onset	duration	cue_type	current_mean_accuracy	duration_error	is_hit	isi_adjusted	onset_delay	response	response_type	reward	rt	rt_time	total_reward	trial_number	trial_phase	trial_type	one_press
11.112	0.25	Control	1.0	0.0	Yes	2.938	0.012	n/a	GoodResponse	0	n/a	n/a	0	0	Cue	Neutral	True
11.362	3.85	Control	1.0	0.001	Yes	2.938	0.0	n/a	GoodResponse	0	n/a	n/a	0	0	Fixation	Neutral	True
15.224	0.4	Control	1.0	0.0	Yes	2.938	0.012	4.0	GoodResponse	0	0.32	14.544	0	0	Target	Neutral	True
15.544	0.3	Control	1.0	0.0	Yes	2.938	0.012	4.0	GoodResponse	0	0.32	n/a	0	0	ButtonPress	Neutral	True
15.608	0.3	Control	1.0	n/a	Yes	2.938	n/a	n/a	GoodResponse	0	n/a	n/a	0	0	Blank	Neutral	True
15.909	1.45	Control	1.0	n/a	Yes	2.938	n/a	5.0	GoodResponse	0	0.018	14.927	0	0	Feedback	Neutral	True
17.364	2.938	Control	1.0	n/a	Yes	2.938	n/a	n/a	GoodResponse	0	0.0	n/a	0	0	ISIslide	Neutral	True
20.389	0.25	Lose2	1.0	0.001	Yes	2.711	0.089	n/a	GoodResponse	0	n/a	n/a	0	1	Cue	AvoidedLoss	True
20.64	4.0	Lose2	1.0	0.0	Yes	2.711	0.001	n/a	GoodResponse	0	n/a	n/a	0	1	Fixation	AvoidedLoss	True
24.635	0.39	Lose2	1.0	0.004	Yes	2.711	-0.004	4.0	GoodResponse	0	0.214	23.849	0	1	Target	AvoidedLoss	True
24.849	0.3	Lose2	1.0	0.004	Yes	2.711	-0.004	4.0	GoodResponse	0	0.214	n/a	0	1	ButtonPress	AvoidedLoss	True
25.037	0.31	Lose2	1.0	n/a	Yes	2.711	n/a	n/a	GoodResponse	0	n/a	n/a	0	1	Blank	AvoidedLoss	True
25.338	1.45	Lose2	1.0	n/a	Yes	2.711	n/a	5.0	GoodResponse	0	0.003	24.341	0	1	Feedback	AvoidedLoss	True
26.792	2.711	Lose2	1.0	n/a	Yes	2.711	n/a	n/a	GoodResponse	0	0.0	n/a	0	1	ISIslide	AvoidedLoss	True
29.517	0.25	Control	1.0	0.0	Yes	2.583	0.017	n/a	GoodResponse	0	n/a	n/a	0	2	Cue	Neutral	True
29.767	4.1	Control	1.0	0.001	Yes	2.583	0.0	n/a	GoodResponse	0	n/a	n/a	0	2	Fixation	Neutral	True
33.863	0.38	Control	1.0	0.004	Yes	2.583	-0.004	4.0	GoodResponse	0	0.238	33.101	0	2	Target	Neutral	True
34.101	0.3	Control	1.0	0.004	Yes	2.583	-0.004	4.0	GoodResponse	0	0.238	n/a	0	2	ButtonPress	Neutral	True
34.248	0.32	Control	1.0	n/a	Yes	2.583	n/a	n/a	GoodResponse	0	n/a	n/a	0	2	Blank	Neutral	True
34.565	1.45	Control	1.0	n/a	Yes	2.583	n/a	5.0	GoodResponse	0	0.044	33.609	0	2	Feedback	Neutral	True
36.02	2.583	Control	1.0	n/a	Yes	2.583	n/a	n/a	GoodResponse	0	0.0	n/a	0	2	ISIslide	Neutral	True
38.677	0.25	Win2	1.0	0.001	Yes	2.773	0.077	n/a	GoodResponse	1	n/a	n/a	1	3	Cue	Win	True
38.928	3.95	Win2	1.0	0.0	Yes	2.773	0.001	n/a	GoodResponse	1	n/a	n/a	1	3	Fixation	Win	True
42.873	0.37	Win2	1.0	0.004	Yes	2.773	-0.004	4.0	GoodResponse	1	0.193	42.066	1	3	Target	Win	True
43.066	0.3	Win2	1.0	0.004	Yes	2.773	-0.004	4.0	GoodResponse	1	0.193	n/a	1	3	ButtonPress	Win	True
43.258	0.33	Win2	1.0	n/a	Yes	2.773	n/a	n/a	GoodResponse	1	n/a	n/a	1	3	Blank	Win	True
43.575	1.45	Win2	1.0	n/a	Yes	2.773	n/a	5.0	GoodResponse	1	0.009	42.584	1	3	Feedback	Win	True
45.03	2.773	Win2	1.0	n/a	Yes	2.773	n/a	n/a	GoodResponse	1	0.0	n/a	1	3	ISIslide	Win	True
47.821	0.25	Win2	1.0	0.001	Yes	3.279	0.021	n/a	GoodResponse	1	n/a	n/a	2	4	Cue	Win	True
48.072	4.0	Win2	1.0	0.0	Yes	3.279	0.001	n/a	GoodResponse	1	n/a	n/a	2	4	Fixation	Win	True
52.068	0.36	Win2	1.0	0.003	Yes	3.279	-0.003	4.0	GoodResponse	1	0.213	51.281	2	4	Target	Win	True
52.281	0.3	Win2	1.0	0.003	Yes	3.279	-0.003	4.0	GoodResponse	1	0.213	n/a	2	4	ButtonPress	Win	True
52.435	0.34	Win2	1.0	n/a	Yes	3.279	n/a	n/a	GoodResponse	1	n/a	n/a	2	4	Blank	Win	True
52.77	1.45	Win2	1.0	n/a	Yes	3.279	n/a	5.0	GoodResponse	1	0.034	51.804	2	4	Feedback	Win	True
54.224	3.279	Win2	1.0	n/a	Yes	3.279	n/a	n/a	GoodResponse	1	0.0	n/a	2	4	ISIslide	Win	True
57.517	0.25	Win2	1.0	0.0	Yes	2.783	0.017	n/a	GoodResponse	1	n/a	n/a	3	5	Cue	Win	True
57.768	4.0	Win2	1.0	0.0	Yes	2.783	0.001	n/a	GoodResponse	1	n/a	n/a	3	5	Fixation	Win	True
61.763	0.35	Win2	1.0	0.004	Yes	2.783	-0.004	4.0	GoodResponse	1	0.186	60.949	3	5	Target	Win	True
61.949	0.3	Win2	1.0	0.004	Yes	2.783	-0.004	4.0	GoodResponse	1	0.186	n/a	3	5	ButtonPress	Win	True
62.114	0.35	Win2	1.0	n/a	Yes	2.783	n/a	n/a	GoodResponse	1	n/a	n/a	3	5	Blank	Win	True
62.465	1.45	Win2	1.0	n/a	Yes	2.783	n/a	5.0	GoodResponse	1	0.046	61.511	3	5	Feedback	Win	True
63.92	2.783	Win2	1.0	n/a	Yes	2.783	n/a	n/a	GoodResponse	1	0.0	n/a	3	5	ISIslide	Win	True
66.728	0.25	Lose2	1.0	0.0	Yes	2.722	0.028	n/a	GoodResponse	0	n/a	n/a	3	6	Cue	AvoidedLoss	True
66.979	3.95	Lose2	1.0	0.0	Yes	2.722	0.001	n/a	GoodResponse	0	n/a	n/a	3	6	Fixation	AvoidedLoss	True
70.924	0.34	Lose2	1.0	0.004	Yes	2.722	-0.004	4.0	GoodResponse	0	0.225	70.149	3	6	Target	AvoidedLoss	True
71.149	0.3	Lose2	1.0	0.004	Yes	2.722	-0.004	4.0	GoodResponse	0	0.225	n/a	3	6	ButtonPress	AvoidedLoss	True
71.275	0.36	Lose2	1.0	n/a	Yes	2.722	n/a	n/a	GoodResponse	0	n/a	n/a	3	6	Blank	AvoidedLoss	True
71.626	1.45	Lose2	1.0	n/a	Yes	2.722	n/a	5.0	GoodResponse	0	0.008	70.634	3	6	Feedback	AvoidedLoss	True
73.08	2.722	Lose2	1.0	n/a	Yes	2.722	n/a	n/a	GoodResponse	0	0.0	n/a	3	6	ISIslide	AvoidedLoss	True
75.822	0.25	Lose2	1.0	0.0	Yes	4.028	0.022	n/a	GoodResponse	0	n/a	n/a	3	7	Cue	AvoidedLoss	True
76.073	4.05	Lose2	1.0	0.0	Yes	4.028	0.001	n/a	GoodResponse	0	n/a	n/a	3	7	Fixation	AvoidedLoss	True
80.118	0.33	Lose2	1.0	0.004	Yes	4.028	-0.004	4.0	GoodResponse	0	0.18	79.298	3	7	Target	AvoidedLoss	True
80.298	0.3	Lose2	1.0	0.004	Yes	4.028	-0.004	4.0	GoodResponse	0	0.18	n/a	3	7	ButtonPress	AvoidedLoss	True
80.452	0.37	Lose2	1.0	n/a	Yes	4.028	n/a	n/a	GoodResponse	0	n/a	n/a	3	7	Blank	AvoidedLoss	True
80.82	1.45	Lose2	1.0	n/a	Yes	4.028	n/a	5.0	GoodResponse	0	0.032	79.852	3	7	Feedback	AvoidedLoss	True
82.274	4.028	Lose2	1.0	n/a	Yes	4.028	n/a	n/a	GoodResponse	0	0.0	n/a	3	7	ISIslide	AvoidedLoss	True
86.32	0.25	Lose2	1.0	0.0	Yes	3.03	0.02	n/a	GoodResponse	0	n/a	n/a	3	8	Cue	AvoidedLoss	False
86.571	3.95	Lose2	1.0	0.0	Yes	3.03	0.001	4.0	GoodResponse	0	0.069	85.64	3	8	Fixation	AvoidedLoss	False
86.64	0.3	Lose2	1.0	0.0	Yes	3.03	0.001	4.0	GoodResponse	0	0.069	n/a	3	8	ButtonPress	AvoidedLoss	False
90.516	0.32	Lose2	1.0	0.004	Yes	3.03	-0.004	4.0	GoodResponse	0	0.286	89.802	3	8	Target	AvoidedLoss	False
90.802	0.3	Lose2	1.0	0.004	Yes	3.03	-0.004	4.0	GoodResponse	0	0.286	n/a	3	8	ButtonPress	AvoidedLoss	False
90.85	0.38	Lose2	1.0	n/a	Yes	3.03	n/a	n/a	GoodResponse	0	n/a	n/a	3	8	Blank	AvoidedLoss	False
91.218	1.45	Lose2	1.0	n/a	Yes	3.03	n/a	5.0	GoodResponse	0	0.024	90.242	3	8	Feedback	AvoidedLoss	False
92.672	3.03	Lose2	1.0	n/a	Yes	3.03	n/a	n/a	GoodResponse	0	0.0	n/a	3	8	ISIslide	AvoidedLoss	False
95.715	0.25	Lose2	1.0	0.0	Yes	3.135	0.015	n/a	GoodResponse	0	n/a	n/a	3	9	Cue	AvoidedLoss	True
95.965	3.95	Lose2	1.0	0.0	Yes	3.135	0.0	n/a	GoodResponse	0	n/a	n/a	3	9	Fixation	AvoidedLoss	True
99.911	0.31	Lose2	1.0	0.004	Yes	3.135	-0.004	4.0	GoodResponse	0	0.198	99.109	3	9	Target	AvoidedLoss	True
100.109	0.3	Lose2	1.0	0.004	Yes	3.135	-0.004	4.0	GoodResponse	0	0.198	n/a	3	9	ButtonPress	AvoidedLoss	True
100.228	0.39	Lose2	1.0	n/a	Yes	3.135	n/a	n/a	GoodResponse	0	n/a	n/a	3	9	Blank	AvoidedLoss	True
100.613	1.45	Lose2	1.0	n/a	Yes	3.135	n/a	5.0	GoodResponse	0	0.044	99.657	3	9	Feedback	AvoidedLoss	True
102.067	3.135	Lose2	1.0	n/a	Yes	3.135	n/a	n/a	GoodResponse	0	0.0	n/a	3	9	ISIslide	AvoidedLoss	True
105.226	0.25	Control	1.0	0.001	Yes	3.274	0.026	n/a	GoodResponse	0	n/a	n/a	3	10	Cue	Neutral	True
105.477	4.0	Control	1.0	0.0	Yes	3.274	0.001	n/a	GoodResponse	0	n/a	n/a	3	10	Fixation	Neutral	True
109.472	0.3	Control	1.0	0.004	Yes	3.274	-0.004	4.0	GoodResponse	0	0.187	108.659	3	10	Target	Neutral	True
109.659	0.3	Control	1.0	0.004	Yes	3.274	-0.004	4.0	GoodResponse	0	0.187	n/a	3	10	ButtonPress	Neutral	True
109.773	0.4	Control	1.0	n/a	Yes	3.274	n/a	n/a	GoodResponse	0	n/a	n/a	3	10	Blank	Neutral	True
110.175	1.45	Control	1.0	n/a	Yes	3.274	n/a	5.0	GoodResponse	0	0.043	109.218	3	10	Feedback	Neutral	True
111.629	3.274	Control	1.0	n/a	Yes	3.274	n/a	n/a	GoodResponse	0	0.0	n/a	3	10	ISIslide	Neutral	True
114.922	0.25	Lose2	1.0	0.0	Yes	2.728	0.022	n/a	GoodResponse	0	n/a	n/a	3	11	Cue	AvoidedLoss	True
115.173	4.05	Lose2	1.0	0.0	Yes	2.728	0.001	n/a	GoodResponse	0	n/a	n/a	3	11	Fixation	AvoidedLoss	True
119.218	0.29	Lose2	1.0	0.004	Yes	2.728	-0.004	4.0	GoodResponse	0	0.223	118.441	3	11	Target	AvoidedLoss	True
119.441	0.3	Lose2	1.0	0.004	Yes	2.728	-0.004	4.0	GoodResponse	0	0.223	n/a	3	11	ButtonPress	AvoidedLoss	True
119.519	0.41	Lose2	1.0	n/a	Yes	2.728	n/a	n/a	GoodResponse	0	n/a	n/a	3	11	Blank	AvoidedLoss	True
119.92	1.45	Lose2	1.0	n/a	Yes	2.728	n/a	5.0	GoodResponse	0	0.006	118.926	3	11	Feedback	AvoidedLoss	True
121.375	2.728	Lose2	1.0	n/a	Yes	2.728	n/a	n/a	GoodResponse	0	0.0	n/a	3	11	ISIslide	AvoidedLoss	True
124.116	0.25	Control	1.0	0.0	Yes	2.984	0.016	n/a	GoodResponse	0	n/a	n/a	3	12	Cue	Neutral	True
124.367	3.9	Control	1.0	0.0	Yes	2.984	0.001	n/a	GoodResponse	0	n/a	n/a	3	12	Fixation	Neutral	True
128.262	0.28	Control	1.0	0.004	Yes	2.984	-0.004	4.0	GoodResponse	0	0.249	127.511	3	12	Target	Neutral	True
128.511	0.3	Control	1.0	0.004	Yes	2.984	-0.004	4.0	GoodResponse	0	0.249	n/a	3	12	ButtonPress	Neutral	True
128.546	0.42	Control	1.0	n/a	Yes	2.984	n/a	n/a	GoodResponse	0	n/a	n/a	3	12	Blank	Neutral	True
128.964	1.45	Control	1.0	n/a	Yes	2.984	n/a	5.0	GoodResponse	0	0.034	127.998	3	12	Feedback	Neutral	True
130.418	2.984	Control	1.0	n/a	Yes	2.984	n/a	n/a	GoodResponse	0	0.0	n/a	3	12	ISIslide	Neutral	True
133.427	0.25	Control	1.0	0.001	Yes	2.773	0.027	n/a	GoodResponse	0	n/a	n/a	3	13	Cue	Neutral	True
133.678	4.0	Control	1.0	0.0	Yes	2.773	0.001	n/a	GoodResponse	0	n/a	n/a	3	13	Fixation	Neutral	True
137.673	0.27	Control	1.0	0.004	Yes	2.773	-0.004	4.0	GoodResponse	0	0.205	136.878	3	13	Target	Neutral	True
137.878	0.3	Control	1.0	0.004	Yes	2.773	-0.004	4.0	GoodResponse	0	0.205	n/a	3	13	ButtonPress	Neutral	True
137.958	0.43	Control	1.0	n/a	Yes	2.773	n/a	n/a	GoodResponse	0	n/a	n/a	3	13	Blank	Neutral	True
138.376	1.45	Control	1.0	n/a	Yes	2.773	n/a	5.0	GoodResponse	0	0.037	137.413	3	13	Feedback	Neutral	True
139.83	2.773	Control	1.0	n/a	Yes	2.773	n/a	n/a	GoodResponse	0	0.0	n/a	3	13	ISIslide	Neutral	True
142.622	0.25	Win2	1.0	0.0	Yes	2.678	0.022	n/a	GoodResponse	1	n/a	n/a	4	14	Cue	Win	True
142.872	4.1	Win2	1.0	0.0	Yes	2.678	0.0	n/a	GoodResponse	1	n/a	n/a	4	14	Fixation	Win	True
146.968	0.26	Win2	1.0	0.004	Yes	2.678	-0.004	4.0	GoodResponse	1	0.208	146.176	4	14	Target	Win	True
147.176	0.3	Win2	1.0	0.004	Yes	2.678	-0.004	4.0	GoodResponse	1	0.208	n/a	4	14	ButtonPress	Win	True
147.235	0.44	Win2	1.0	n/a	Yes	2.678	n/a	n/a	GoodResponse	1	n/a	n/a	4	14	Blank	Win	True
147.67	1.45	Win2	1.0	n/a	Yes	2.678	n/a	5.0	GoodResponse	1	0.011	146.681	4	14	Feedback	Win	True
149.124	2.678	Win2	1.0	n/a	Yes	2.678	n/a	n/a	GoodResponse	1	0.0	n/a	4	14	ISIslide	Win	True
151.816	0.25	Control	1.0	0.0	Yes	2.984	0.016	n/a	GoodResponse	0	n/a	n/a	4	15	Cue	Neutral	True
152.066	4.0	Control	1.0	0.001	Yes	2.984	0.0	n/a	GoodResponse	0	n/a	n/a	4	15	Fixation	Neutral	True
156.062	0.25	Control	1.0	0.004	Yes	2.984	-0.004	4.0	GoodResponse	0	0.219	155.281	4	15	Target	Neutral	True
156.281	0.3	Control	1.0	0.004	Yes	2.984	-0.004	4.0	GoodResponse	0	0.219	n/a	4	15	ButtonPress	Neutral	True
156.313	0.45	Control	1.0	n/a	Yes	2.984	n/a	n/a	GoodResponse	0	n/a	n/a	4	15	Blank	Neutral	True
156.764	1.45	Control	1.0	n/a	Yes	2.984	n/a	5.0	GoodResponse	0	0.039	155.803	4	15	Feedback	Neutral	True
158.218	2.984	Control	1.0	n/a	Yes	2.984	n/a	n/a	GoodResponse	0	0.0	n/a	4	15	ISIslide	Neutral	True
161.227	0.25	Win2	0.9412	0.0	No	2.873	0.027	n/a	LatePress	0	n/a	n/a	4	16	Cue	MissedWin	True
161.478	4.0	Win2	0.9412	0.0	No	2.873	0.001	n/a	LatePress	0	n/a	n/a	4	16	Fixation	MissedWin	True
165.473	0.24	Win2	0.9412	0.004	No	2.873	-0.004	4.0	LatePress	0	0.248	164.721	4	16	Target	MissedWin	True
165.721	0.3	Win2	0.9412	0.004	No	2.873	-0.004	4.0	LatePress	0	0.248	n/a	4	16	ButtonPress	MissedWin	True
165.724	0.46	Win2	0.9412	n/a	No	2.873	n/a	n/a	LatePress	0	n/a	n/a	4	16	Blank	MissedWin	True
166.175	1.45	Win2	0.9412	n/a	No	2.873	n/a	5.0	LatePress	0	0.042	165.217	4	16	Feedback	MissedWin	True
167.63	2.873	Win2	0.9412	n/a	No	2.873	n/a	n/a	LatePress	0	0.0	n/a	4	16	ISIslide	MissedWin	True
170.522	0.25	Lose2	0.9444	0.0	Yes	2.728	0.022	n/a	GoodResponse	0	n/a	n/a	4	17	Cue	AvoidedLoss	True
170.772	3.95	Lose2	0.9444	0.0	Yes	2.728	0.0	n/a	GoodResponse	0	n/a	n/a	4	17	Fixation	AvoidedLoss	True
174.718	0.23	Lose2	0.9444	0.004	Yes	2.728	-0.004	4.0	GoodResponse	0	0.196	173.914	4	17	Target	AvoidedLoss	True
174.914	0.3	Lose2	0.9444	0.004	Yes	2.728	-0.004	4.0	GoodResponse	0	0.196	n/a	4	17	ButtonPress	AvoidedLoss	True
174.952	0.47	Lose2	0.9444	n/a	Yes	2.728	n/a	n/a	GoodResponse	0	n/a	n/a	4	17	Blank	AvoidedLoss	True
175.42	1.45	Lose2	0.9444	n/a	Yes	2.728	n/a	5.0	GoodResponse	0	0.017	174.437	4	17	Feedback	AvoidedLoss	True
176.874	2.728	Lose2	0.9444	n/a	Yes	2.728	n/a	n/a	GoodResponse	0	0.0	n/a	4	17	ISIslide	AvoidedLoss	True
179.616	0.25	Lose2	0.8946999999999999	0.0	No	2.734	0.016	n/a	NoResponse	-1	n/a	n/a	3	18	Cue	Loss	True
179.866	4.05	Lose2	0.8946999999999999	0.0	No	2.734	0.0	n/a	NoResponse	-1	n/a	n/a	3	18	Fixation	Loss	True
183.912	0.22	Lose2	0.8946999999999999	0.004	No	2.734	-0.004	4.0	NoResponse	-1	0.404	183.316	3	18	Target	Loss	True
184.146	0.48	Lose2	0.8946999999999999	n/a	No	2.734	n/a	n/a	NoResponse	-1	n/a	n/a	3	18	Blank	Loss	True
184.316	0.3	Lose2	0.8946999999999999	0.004	No	2.734	-0.004	4.0	NoResponse	-1	0.404	n/a	3	18	ButtonPress	Loss	True
184.614	1.45	Lose2	0.8946999999999999	n/a	No	2.734	n/a	5.0	NoResponse	-1	0.042	183.656	3	18	Feedback	Loss	True
186.068	2.734	Lose2	0.8946999999999999	n/a	No	2.734	n/a	n/a	NoResponse	-1	0.0	n/a	3	18	ISIslide	Loss	True
188.826	0.25	Control	0.85	0.001	No	2.924	0.026	n/a	NoResponse	0	n/a	n/a	3	19	Cue	Neutral	True
189.077	3.95	Control	0.85	0.0	No	2.924	0.001	n/a	NoResponse	0	n/a	n/a	3	19	Fixation	Neutral	True
193.022	0.21	Control	0.85	0.004	No	2.924	-0.004	4.0	NoResponse	0	0.275	192.297	3	19	Target	Neutral	True
193.24	0.49	Control	0.85	n/a	No	2.924	n/a	n/a	NoResponse	0	n/a	n/a	3	19	Blank	Neutral	True
193.297	0.3	Control	0.85	0.004	No	2.924	-0.004	4.0	NoResponse	0	0.275	n/a	3	19	ButtonPress	Neutral	True
193.724	1.45	Control	0.85	n/a	No	2.924	n/a	5.0	NoResponse	0	0.005	192.729	3	19	Feedback	Neutral	True
195.179	2.924	Control	0.85	n/a	No	2.924	n/a	n/a	NoResponse	0	0.0	n/a	3	19	ISIslide	Neutral	True
198.121	0.25	Control	0.8095	0.0	No	2.629	0.021	n/a	NoResponse	0	n/a	n/a	3	20	Cue	Neutral	True
198.372	4.05	Control	0.8095	0.0	No	2.629	0.001	n/a	NoResponse	0	n/a	n/a	3	20	Fixation	Neutral	True
202.417	0.2	Control	0.8095	0.004	No	2.629	-0.004	4.0	NoResponse	0	0.256	201.673	3	20	Target	Neutral	True
202.618	0.5	Control	0.8095	n/a	No	2.629	n/a	n/a	NoResponse	0	n/a	n/a	3	20	Blank	Neutral	True
202.673	0.3	Control	0.8095	0.004	No	2.629	-0.004	4.0	NoResponse	0	0.256	n/a	3	20	ButtonPress	Neutral	True
203.119	1.45	Control	0.8095	n/a	No	2.629	n/a	5.0	NoResponse	0	0.025	202.144	3	20	Feedback	Neutral	True
204.573	2.629	Control	0.8095	n/a	No	2.629	n/a	n/a	NoResponse	0	0.0	n/a	3	20	ISIslide	Neutral	True
207.215	0.25	Control	0.7726999999999999	0.0	No	2.785	0.015	n/a	NoResponse	0	n/a	n/a	3	21	Cue	Neutral	True
207.465	4.1	Control	0.7726999999999999	0.001	No	2.785	0.0	n/a	NoResponse	0	n/a	n/a	3	21	Fixation	Neutral	True
211.561	0.19	Control	0.7726999999999999	0.004	No	2.785	-0.004	4.0	NoResponse	0	0.207	210.768	3	21	Target	Neutral	True
211.762	0.51	Control	0.7726999999999999	n/a	No	2.785	n/a	n/a	NoResponse	0	n/a	n/a	3	21	Blank	Neutral	True
211.768	0.3	Control	0.7726999999999999	0.004	No	2.785	-0.004	4.0	NoResponse	0	0.207	n/a	3	21	ButtonPress	Neutral	True
212.263	1.45	Control	0.7726999999999999	n/a	No	2.785	n/a	5.0	NoResponse	0	0.004	211.267	3	21	Feedback	Neutral	True
213.717	2.785	Control	0.7726999999999999	n/a	No	2.785	n/a	n/a	NoResponse	0	0.0	n/a	3	21	ISIslide	Neutral	True
216.526	0.25	Control	0.7391	0.0	No	2.774	0.026	n/a	NoResponse	0	n/a	n/a	3	22	Cue	Neutral	True
216.777	4.0	Control	0.7391	0.0	No	2.774	0.001	n/a	NoResponse	0	n/a	n/a	3	22	Fixation	Neutral	True
220.772	0.18	Control	0.7391	0.004	No	2.774	-0.004	4.0	NoResponse	0	0.239	220.011	3	22	Target	Neutral	True
220.956	0.52	Control	0.7391	n/a	No	2.774	n/a	n/a	NoResponse	0	n/a	n/a	3	22	Blank	Neutral	True
221.011	0.3	Control	0.7391	0.004	No	2.774	-0.004	4.0	NoResponse	0	0.239	n/a	3	22	ButtonPress	Neutral	True
221.474	1.45	Control	0.7391	n/a	No	2.774	n/a	5.0	NoResponse	0	0.011	220.485	3	22	Feedback	Neutral	True
222.928	2.774	Control	0.7391	n/a	No	2.774	n/a	n/a	NoResponse	0	0.0	n/a	3	22	ISIslide	Neutral	True
225.72	0.25	Control	0.7082999999999999	0.0	No	2.78	0.02	n/a	NoResponse	0	n/a	n/a	3	23	Cue	Neutral	True
225.971	3.9	Control	0.7082999999999999	0.0	No	2.78	0.001	n/a	NoResponse	0	n/a	n/a	3	23	Fixation	Neutral	True
229.866	0.17	Control	0.7082999999999999	0.004	No	2.78	-0.004	4.0	NoResponse	0	0.252	229.118	3	23	Target	Neutral	True
230.05	0.53	Control	0.7082999999999999	n/a	No	2.78	n/a	n/a	NoResponse	0	n/a	n/a	3	23	Blank	Neutral	True
230.118	0.3	Control	0.7082999999999999	0.004	No	2.78	-0.004	4.0	NoResponse	0	0.252	n/a	3	23	ButtonPress	Neutral	True
230.568	1.45	Control	0.7082999999999999	n/a	No	2.78	n/a	5.0	NoResponse	0	0.039	229.607	3	23	Feedback	Neutral	True
232.022	2.78	Control	0.7082999999999999	n/a	No	2.78	n/a	n/a	NoResponse	0	0.0	n/a	3	23	ISIslide	Neutral	True
234.831	0.25	Win2	0.68	0.0	No	3.119	0.031	n/a	NoResponse	0	n/a	n/a	3	24	Cue	MissedWin	True
235.081	3.95	Win2	0.68	0.0	No	3.119	0.0	n/a	NoResponse	0	n/a	n/a	3	24	Fixation	MissedWin	True
239.027	0.16	Win2	0.68	0.004	No	3.119	-0.004	4.0	NoResponse	0	0.174	238.201	3	24	Target	MissedWin	True
239.194	0.54	Win2	0.68	n/a	No	3.119	n/a	n/a	NoResponse	0	n/a	n/a	3	24	Blank	MissedWin	True
239.201	0.3	Win2	0.68	0.004	No	3.119	-0.004	4.0	NoResponse	0	0.174	n/a	3	24	ButtonPress	MissedWin	True
239.729	1.45	Win2	0.68	n/a	No	3.119	n/a	5.0	NoResponse	0	0.049	238.778	3	24	Feedback	MissedWin	True
241.183	3.119	Win2	0.68	n/a	No	3.119	n/a	n/a	NoResponse	0	0.0	n/a	3	24	ISIslide	MissedWin	True
244.326	0.25	Win2	0.6537999999999999	0.0	No	3.074	0.026	n/a	NoResponse	0	n/a	n/a	3	25	Cue	MissedWin	False
244.576	4.0	Win2	0.6537999999999999	0.0	No	3.074	0.0	4.0	NoResponse	0	3.223	246.799	3	25	Fixation	MissedWin	False
247.799	0.3	Win2	0.6537999999999999	0.0	No	3.074	0.0	4.0	NoResponse	0	3.223	n/a	3	25	ButtonPress	MissedWin	False
248.572	0.15	Win2	0.6537999999999999	0.004	No	3.074	-0.004	4.0	NoResponse	0	0.214	247.786	3	25	Target	MissedWin	False
248.722	0.55	Win2	0.6537999999999999	n/a	No	3.074	n/a	n/a	NoResponse	0	n/a	n/a	3	25	Blank	MissedWin	False
248.786	0.3	Win2	0.6537999999999999	0.004	No	3.074	-0.004	4.0	NoResponse	0	0.214	n/a	3	25	ButtonPress	MissedWin	False
249.274	1.45	Win2	0.6537999999999999	n/a	No	3.074	n/a	5.0	NoResponse	0	0.015	248.289	3	25	Feedback	MissedWin	False
250.728	3.074	Win2	0.6537999999999999	n/a	No	3.074	n/a	n/a	NoResponse	0	0.0	n/a	3	25	ISIslide	MissedWin	False
253.821	0.25	Win2	0.6296	0.0	No	2.929	0.021	n/a	NoResponse	0	n/a	n/a	3	26	Cue	MissedWin	True
254.071	3.95	Win2	0.6296	0.001	No	2.929	0.0	n/a	NoResponse	0	n/a	n/a	3	26	Fixation	MissedWin	True
258.017	0.16	Win2	0.6296	0.004	No	2.929	-0.004	4.0	NoResponse	0	0.214	257.231	3	26	Target	MissedWin	True
258.184	0.54	Win2	0.6296	n/a	No	2.929	n/a	n/a	NoResponse	0	n/a	n/a	3	26	Blank	MissedWin	True
258.231	0.3	Win2	0.6296	0.004	No	2.929	-0.004	4.0	NoResponse	0	0.214	n/a	3	26	ButtonPress	MissedWin	True
258.719	1.45	Win2	0.6296	n/a	No	2.929	n/a	5.0	NoResponse	0	0.034	257.753	3	26	Feedback	MissedWin	True
260.173	2.929	Win2	0.6296	n/a	No	2.929	n/a	n/a	NoResponse	0	0.0	n/a	3	26	ISIslide	MissedWin	True
263.115	0.25	Lose2	0.6071	0.0	No	2.835	0.015	n/a	NoResponse	-1	n/a	n/a	2	27	Cue	Loss	True
263.366	4.05	Lose2	0.6071	0.0	No	2.835	0.001	n/a	NoResponse	-1	n/a	n/a	2	27	Fixation	Loss	True
267.411	0.17	Lose2	0.6071	0.004	No	2.835	-0.004	4.0	NoResponse	-1	0.195	266.606	2	27	Target	Loss	True
267.595	0.53	Lose2	0.6071	n/a	No	2.835	n/a	n/a	NoResponse	-1	n/a	n/a	2	27	Blank	Loss	True
267.606	0.3	Lose2	0.6071	0.004	No	2.835	-0.004	4.0	NoResponse	-1	0.195	n/a	2	27	ButtonPress	Loss	True
268.113	1.45	Lose2	0.6071	n/a	No	2.835	n/a	5.0	NoResponse	-1	0.008	267.121	2	27	Feedback	Loss	True
269.568	2.835	Lose2	0.6071	n/a	No	2.835	n/a	n/a	NoResponse	-1	0.0	n/a	2	27	ISIslide	Loss	True
272.426	0.25	Control	0.5861999999999999	0.0	No	2.824	0.026	n/a	NoResponse	0	n/a	n/a	2	28	Cue	Neutral	True
272.677	4.05	Control	0.5861999999999999	0.0	No	2.824	0.001	n/a	NoResponse	0	n/a	n/a	2	28	Fixation	Neutral	True
276.723	0.18	Control	0.5861999999999999	0.003	No	2.824	-0.003	4.0	NoResponse	0	0.192	275.915	2	28	Target	Neutral	True
276.906	0.52	Control	0.5861999999999999	n/a	No	2.824	n/a	n/a	NoResponse	0	n/a	n/a	2	28	Blank	Neutral	True
276.915	0.3	Control	0.5861999999999999	0.003	No	2.824	-0.003	4.0	NoResponse	0	0.192	n/a	2	28	ButtonPress	Neutral	True
277.425	1.45	Control	0.5861999999999999	n/a	No	2.824	n/a	5.0	NoResponse	0	0.011	276.436	2	28	Feedback	Neutral	True
278.879	2.824	Control	0.5861999999999999	n/a	No	2.824	n/a	n/a	NoResponse	0	0.0	n/a	2	28	ISIslide	Neutral	True
281.721	0.25	Lose2	0.5667	0.0	No	2.829	0.021	n/a	NoResponse	-1	n/a	n/a	1	29	Cue	Loss	True
281.972	3.95	Lose2	0.5667	0.0	No	2.829	0.001	n/a	NoResponse	-1	n/a	n/a	1	29	Fixation	Loss	True
285.917	0.19	Lose2	0.5667	0.004	No	2.829	-0.004	4.0	NoResponse	-1	0.213	285.13	1	29	Target	Loss	True
286.117	0.51	Lose2	0.5667	n/a	No	2.829	n/a	n/a	NoResponse	-1	n/a	n/a	1	29	Blank	Loss	True
286.13	0.3	Lose2	0.5667	0.004	No	2.829	-0.004	4.0	NoResponse	-1	0.213	n/a	1	29	ButtonPress	Loss	True
286.619	1.45	Lose2	0.5667	n/a	No	2.829	n/a	5.0	NoResponse	-1	0.036	285.655	1	29	Feedback	Loss	True
288.073	2.829	Lose2	0.5667	n/a	No	2.829	n/a	n/a	NoResponse	-1	0.0	n/a	1	29	ISIslide	Loss	True
290.915	0.25	Win2	0.5484	0.0	No	2.785	0.015	n/a	NoResponse	0	n/a	n/a	1	30	Cue	MissedWin	True
291.166	3.9	Win2	0.5484	0.0	No	2.785	0.001	n/a	NoResponse	0	n/a	n/a	1	30	Fixation	MissedWin	True
295.061	0.2	Win2	0.5484	0.004	No	2.785	-0.004	4.0	NoResponse	0	0.242	294.303	1	30	Target	MissedWin	True
295.261	0.5	Win2	0.5484	n/a	No	2.785	n/a	n/a	NoResponse	0	n/a	n/a	1	30	Blank	MissedWin	True
295.303	0.3	Win2	0.5484	0.004	No	2.785	-0.004	4.0	NoResponse	0	0.242	n/a	1	30	ButtonPress	MissedWin	True
295.763	1.45	Win2	0.5484	n/a	No	2.785	n/a	5.0	NoResponse	0	0.013	294.776	1	30	Feedback	MissedWin	True
297.217	2.785	Win2	0.5484	n/a	No	2.785	n/a	n/a	NoResponse	0	0.0	n/a	1	30	ISIslide	MissedWin	True
300.026	0.25	Lose2	0.5625	0.0	Yes	2.824	0.026	n/a	GoodResponse	0	n/a	n/a	1	31	Cue	AvoidedLoss	True
300.276	4.05	Lose2	0.5625	0.0	Yes	2.824	0.0	n/a	GoodResponse	0	n/a	n/a	1	31	Fixation	AvoidedLoss	True
304.322	0.21	Lose2	0.5625	0.004	Yes	2.824	-0.004	4.0	GoodResponse	0	0.166	303.488	1	31	Target	AvoidedLoss	True
304.488	0.3	Lose2	0.5625	0.004	Yes	2.824	-0.004	4.0	GoodResponse	0	0.166	n/a	1	31	ButtonPress	AvoidedLoss	True
304.539	0.49	Lose2	0.5625	n/a	Yes	2.824	n/a	n/a	GoodResponse	0	n/a	n/a	1	31	Blank	AvoidedLoss	True
305.024	1.45	Lose2	0.5625	n/a	Yes	2.824	n/a	5.0	GoodResponse	0	0.021	304.045	1	31	Feedback	AvoidedLoss	True
306.478	2.824	Lose2	0.5625	n/a	Yes	2.824	n/a	n/a	GoodResponse	0	0.0	n/a	1	31	ISIslide	AvoidedLoss	True
309.32	0.25	Lose2	0.5758	0.0	Yes	2.63	0.02	n/a	GoodResponse	0	n/a	n/a	1	32	Cue	AvoidedLoss	True
309.571	4.15	Lose2	0.5758	0.0	Yes	2.63	0.001	n/a	GoodResponse	0	n/a	n/a	1	32	Fixation	AvoidedLoss	True
313.716	0.22	Lose2	0.5758	0.004	Yes	2.63	-0.004	4.0	GoodResponse	0	0.175	312.891	1	32	Target	AvoidedLoss	True
313.891	0.3	Lose2	0.5758	0.004	Yes	2.63	-0.004	4.0	GoodResponse	0	0.175	n/a	1	32	ButtonPress	AvoidedLoss	True
313.951	0.48	Lose2	0.5758	n/a	Yes	2.63	n/a	n/a	GoodResponse	0	n/a	n/a	1	32	Blank	AvoidedLoss	True
314.419	1.45	Lose2	0.5758	n/a	Yes	2.63	n/a	5.0	GoodResponse	0	0.04	313.459	1	32	Feedback	AvoidedLoss	True
315.873	2.63	Lose2	0.5758	n/a	Yes	2.63	n/a	n/a	GoodResponse	0	0.0	n/a	1	32	ISIslide	AvoidedLoss	True
318.531	0.25	Win2	0.5882000000000001	0.0	Yes	2.669	0.031	n/a	GoodResponse	1	n/a	n/a	2	33	Cue	Win	True
318.782	4.0	Win2	0.5882000000000001	0.0	Yes	2.669	0.001	n/a	GoodResponse	1	n/a	n/a	2	33	Fixation	Win	True
322.777	0.23	Win2	0.5882000000000001	0.004	Yes	2.669	-0.004	4.0	GoodResponse	1	0.18	321.957	2	33	Target	Win	True
322.957	0.3	Win2	0.5882000000000001	0.004	Yes	2.669	-0.004	4.0	GoodResponse	1	0.18	n/a	2	33	ButtonPress	Win	True
323.011	0.47	Win2	0.5882000000000001	n/a	Yes	2.669	n/a	n/a	GoodResponse	1	n/a	n/a	2	33	Blank	Win	True
323.479	1.45	Win2	0.5882000000000001	n/a	Yes	2.669	n/a	5.0	GoodResponse	1	0.008	322.487	2	33	Feedback	Win	True
324.933	2.669	Win2	0.5882000000000001	n/a	Yes	2.669	n/a	n/a	GoodResponse	1	0.0	n/a	2	33	ISIslide	Win	True
327.625	0.25	Lose2	0.6	0.0	Yes	2.625	0.025	n/a	GoodResponse	0	n/a	n/a	2	34	Cue	AvoidedLoss	True
327.875	4.05	Lose2	0.6	0.001	Yes	2.625	0.0	n/a	GoodResponse	0	n/a	n/a	2	34	Fixation	AvoidedLoss	True
331.921	0.24	Lose2	0.6	0.004	Yes	2.625	-0.004	4.0	GoodResponse	0	0.172	331.093	2	34	Target	AvoidedLoss	True
332.093	0.3	Lose2	0.6	0.004	Yes	2.625	-0.004	4.0	GoodResponse	0	0.172	n/a	2	34	ButtonPress	AvoidedLoss	True
332.172	0.46	Lose2	0.6	n/a	Yes	2.625	n/a	n/a	GoodResponse	0	n/a	n/a	2	34	Blank	AvoidedLoss	True
332.623	1.45	Lose2	0.6	n/a	Yes	2.625	n/a	5.0	GoodResponse	0	0.032	331.655	2	34	Feedback	AvoidedLoss	True
334.077	2.625	Lose2	0.6	n/a	Yes	2.625	n/a	n/a	GoodResponse	0	0.0	n/a	2	34	ISIslide	AvoidedLoss	True
336.719	0.25	Lose2	0.5832999999999999	0.0	No	2.681	0.019	n/a	PrematurePress	-1	n/a	n/a	1	35	Cue	Loss	True
336.969	4.0	Lose2	0.5832999999999999	0.0	No	2.681	0.0	n/a	PrematurePress	-1	n/a	n/a	1	35	Fixation	Loss	True
340.965	0.25	Lose2	0.5832999999999999	0.004	No	2.681	-0.004	4.0	PrematurePress	-1	0.058	340.023	1	35	Target	Loss	True
341.023	0.3	Lose2	0.5832999999999999	0.004	No	2.681	-0.004	4.0	PrematurePress	-1	0.058	n/a	1	35	ButtonPress	Loss	True
341.215	0.45	Lose2	0.5832999999999999	n/a	No	2.681	n/a	n/a	PrematurePress	-1	n/a	n/a	1	35	Blank	Loss	True
341.667	1.45	Lose2	0.5832999999999999	n/a	No	2.681	n/a	5.0	PrematurePress	-1	0.011	340.678	1	35	Feedback	Loss	True
343.121	2.681	Lose2	0.5832999999999999	n/a	No	2.681	n/a	n/a	PrematurePress	-1	0.0	n/a	1	35	ISIslide	Loss	True
345.829	0.25	Control	0.5946	0.0	Yes	2.671	0.029	n/a	GoodResponse	0	n/a	n/a	1	36	Cue	Neutral	True
346.08	4.0	Control	0.5946	0.0	Yes	2.671	0.001	n/a	GoodResponse	0	n/a	n/a	1	36	Fixation	Neutral	True
350.075	0.26	Control	0.5946	0.004	Yes	2.671	-0.004	4.0	GoodResponse	0	0.174	349.249	1	36	Target	Neutral	True
350.249	0.3	Control	0.5946	0.004	Yes	2.671	-0.004	4.0	GoodResponse	0	0.174	n/a	1	36	ButtonPress	Neutral	True
350.343	0.44	Control	0.5946	n/a	Yes	2.671	n/a	n/a	GoodResponse	0	n/a	n/a	1	36	Blank	Neutral	True
350.777	1.45	Control	0.5946	n/a	Yes	2.671	n/a	5.0	GoodResponse	0	0.023	349.8	1	36	Feedback	Neutral	True
352.232	2.671	Control	0.5946	n/a	Yes	2.671	n/a	4.0	GoodResponse	0	0.479	n/a	1	36	ISIslide	Neutral	True
354.906	0.25	Win2	0.6053000000000001	0.0	Yes	2.894	0.006	n/a	GoodResponse	1	n/a	n/a	2	37	Cue	Win	True
355.157	4.0	Win2	0.6053000000000001	0.0	Yes	2.894	0.001	n/a	GoodResponse	1	n/a	n/a	2	37	Fixation	Win	True
359.152	0.27	Win2	0.6053000000000001	0.004	Yes	2.894	-0.004	4.0	GoodResponse	1	0.199	358.351	2	37	Target	Win	True
359.351	0.3	Win2	0.6053000000000001	0.004	Yes	2.894	-0.004	4.0	GoodResponse	1	0.199	n/a	2	37	ButtonPress	Win	True
359.437	0.43	Win2	0.6053000000000001	n/a	Yes	2.894	n/a	n/a	GoodResponse	1	n/a	n/a	2	37	Blank	Win	True
359.854	1.45	Win2	0.6053000000000001	n/a	Yes	2.894	n/a	5.0	GoodResponse	1	0.02	358.874	2	37	Feedback	Win	True
361.309	2.894	Win2	0.6053000000000001	n/a	Yes	2.894	n/a	n/a	GoodResponse	1	0.0	n/a	2	37	ISIslide	Win	True
364.217	0.25	Lose2	0.6154	0.001	Yes	2.833	0.017	n/a	GoodResponse	0	n/a	n/a	2	38	Cue	AvoidedLoss	True
364.468	3.95	Lose2	0.6154	0.0	Yes	2.833	0.001	n/a	GoodResponse	0	n/a	n/a	2	38	Fixation	AvoidedLoss	True
368.413	0.28	Lose2	0.6154	0.004	Yes	2.833	-0.004	4.0	GoodResponse	0	0.24	367.653	2	38	Target	AvoidedLoss	True
368.653	0.3	Lose2	0.6154	0.004	Yes	2.833	-0.004	4.0	GoodResponse	0	0.24	n/a	2	38	ButtonPress	AvoidedLoss	True
368.698	0.42	Lose2	0.6154	n/a	Yes	2.833	n/a	n/a	GoodResponse	0	n/a	n/a	2	38	Blank	AvoidedLoss	True
369.115	1.45	Lose2	0.6154	n/a	Yes	2.833	n/a	5.0	GoodResponse	0	0.027	368.142	2	38	Feedback	AvoidedLoss	True
370.57	2.833	Lose2	0.6154	n/a	Yes	2.833	n/a	n/a	GoodResponse	0	0.0	n/a	2	38	ISIslide	AvoidedLoss	True
373.428	0.25	Win2	0.625	0.0	Yes	2.972	0.028	n/a	GoodResponse	1	n/a	n/a	3	39	Cue	Win	True
373.679	4.1	Win2	0.625	0.0	Yes	2.972	0.001	n/a	GoodResponse	1	n/a	n/a	3	39	Fixation	Win	True
377.775	0.29	Win2	0.625	0.003	Yes	2.972	-0.003	4.0	GoodResponse	1	0.19	376.965	3	39	Target	Win	True
377.965	0.3	Win2	0.625	0.003	Yes	2.972	-0.003	4.0	GoodResponse	1	0.19	n/a	3	39	ButtonPress	Win	True
378.076	0.41	Win2	0.625	n/a	Yes	2.972	n/a	n/a	GoodResponse	1	n/a	n/a	3	39	Blank	Win	True
378.477	1.45	Win2	0.625	n/a	Yes	2.972	n/a	5.0	GoodResponse	1	0.03	377.507	3	39	Feedback	Win	True
379.931	2.972	Win2	0.625	n/a	Yes	2.972	n/a	n/a	GoodResponse	1	0.0	n/a	3	39	ISIslide	Win	True
382.923	0.25	Win2	0.6341	0.001	Yes	2.727	0.023	n/a	GoodResponse	1	n/a	n/a	4	40	Cue	Win	True
383.174	3.95	Win2	0.6341	0.0	Yes	2.727	0.001	n/a	GoodResponse	1	n/a	n/a	4	40	Fixation	Win	True
387.119	0.3	Win2	0.6341	0.004	Yes	2.727	-0.004	4.0	GoodResponse	1	0.12	386.239	4	40	Target	Win	True
387.239	0.3	Win2	0.6341	0.004	Yes	2.727	-0.004	4.0	GoodResponse	1	0.12	n/a	4	40	ButtonPress	Win	True
387.42	0.4	Win2	0.6341	n/a	Yes	2.727	n/a	n/a	GoodResponse	1	n/a	n/a	4	40	Blank	Win	True
387.821	1.45	Win2	0.6341	n/a	Yes	2.727	n/a	5.0	GoodResponse	1	0.007	386.828	4	40	Feedback	Win	True
389.276	2.727	Win2	0.6341	n/a	Yes	2.727	n/a	n/a	GoodResponse	1	0.0	n/a	4	40	ISIslide	Win	True
392.017	0.25	Win2	0.6429	0.0	Yes	2.783	0.017	n/a	GoodResponse	1	n/a	n/a	5	41	Cue	Win	False
392.268	3.9	Win2	0.6429	0.0	Yes	2.783	0.001	4.0	GoodResponse	1	1.032	392.3	5	41	Fixation	Win	False
393.3	0.3	Win2	0.6429	0.0	Yes	2.783	0.001	4.0	GoodResponse	1	1.032	n/a	5	41	ButtonPress	Win	False
396.163	0.31	Win2	0.6429	0.004	Yes	2.783	-0.004	4.0	GoodResponse	1	0.172	395.335	5	41	Target	Win	False
396.335	0.3	Win2	0.6429	0.004	Yes	2.783	-0.004	4.0	GoodResponse	1	0.172	n/a	5	41	ButtonPress	Win	False
396.481	0.39	Win2	0.6429	n/a	Yes	2.783	n/a	n/a	GoodResponse	1	n/a	n/a	5	41	Blank	Win	False
396.865	1.45	Win2	0.6429	n/a	Yes	2.783	n/a	5.0	GoodResponse	1	0.032	395.897	5	41	Feedback	Win	False
398.319	2.783	Win2	0.6429	n/a	Yes	2.783	n/a	n/a	GoodResponse	1	0.0	n/a	5	41	ISIslide	Win	False
401.128	0.25	Control	0.6279	0.0	No	2.922	0.028	n/a	NoResponse	0	n/a	n/a	5	42	Cue	Neutral	True
401.379	3.85	Control	0.6279	0.0	No	2.922	0.001	n/a	NoResponse	0	n/a	n/a	5	42	Fixation	Neutral	True
405.24	0.32	Control	0.6279	0.0	No	2.922	0.012	4.0	NoResponse	0	0.327	404.567	5	42	Target	Neutral	True
405.558	0.38	Control	0.6279	n/a	No	2.922	n/a	n/a	NoResponse	0	n/a	n/a	5	42	Blank	Neutral	True
405.567	0.3	Control	0.6279	0.0	No	2.922	0.012	4.0	NoResponse	0	0.327	n/a	5	42	ButtonPress	Neutral	True
405.926	1.45	Control	0.6279	n/a	No	2.922	n/a	5.0	NoResponse	0	0.045	404.971	5	42	Feedback	Neutral	True
407.38	2.922	Control	0.6279	n/a	No	2.922	n/a	n/a	NoResponse	0	0.0	n/a	5	42	ISIslide	Neutral	True
410.322	0.25	Win2	0.6364	0.0	Yes	3.178	0.022	n/a	GoodResponse	1	n/a	n/a	6	43	Cue	Win	True
410.573	4.0	Win2	0.6364	0.0	Yes	3.178	0.001	n/a	GoodResponse	1	n/a	n/a	6	43	Fixation	Win	True
414.568	0.33	Win2	0.6364	0.004	Yes	3.178	-0.004	4.0	GoodResponse	1	0.147	413.715	6	43	Target	Win	True
414.715	0.3	Win2	0.6364	0.004	Yes	3.178	-0.004	4.0	GoodResponse	1	0.147	n/a	6	43	ButtonPress	Win	True
414.902	0.37	Win2	0.6364	n/a	Yes	3.178	n/a	n/a	GoodResponse	1	n/a	n/a	6	43	Blank	Win	True
415.27	1.45	Win2	0.6364	n/a	Yes	3.178	n/a	5.0	GoodResponse	1	0.018	414.288	6	43	Feedback	Win	True
416.724	3.178	Win2	0.6364	n/a	Yes	3.178	n/a	n/a	GoodResponse	1	0.0	n/a	6	43	ISIslide	Win	True
419.917	0.25	Win2	0.6444	0.0	Yes	2.983	0.017	n/a	GoodResponse	1	n/a	n/a	7	44	Cue	Win	True
420.168	4.0	Win2	0.6444	0.0	Yes	2.983	0.001	n/a	GoodResponse	1	n/a	n/a	7	44	Fixation	Win	True
424.163	0.34	Win2	0.6444	0.004	Yes	2.983	-0.004	4.0	GoodResponse	1	0.294	423.457	7	44	Target	Win	True
424.457	0.3	Win2	0.6444	0.004	Yes	2.983	-0.004	4.0	GoodResponse	1	0.294	n/a	7	44	ButtonPress	Win	True
424.514	0.36	Win2	0.6444	n/a	Yes	2.983	n/a	n/a	GoodResponse	1	n/a	n/a	7	44	Blank	Win	True
424.865	1.45	Win2	0.6444	n/a	Yes	2.983	n/a	5.0	GoodResponse	1	0.032	423.897	7	44	Feedback	Win	True
426.32	2.983	Win2	0.6444	n/a	Yes	2.983	n/a	n/a	GoodResponse	1	0.0	n/a	7	44	ISIslide	Win	True
429.329	0.25	Control	0.6522	0.0	Yes	2.871	0.029	n/a	GoodResponse	0	n/a	n/a	7	45	Cue	Neutral	True
429.58	4.1	Control	0.6522	0.0	Yes	2.871	0.001	n/a	GoodResponse	0	n/a	n/a	7	45	Fixation	Neutral	True
433.675	0.35	Control	0.6522	0.004	Yes	2.871	-0.004	4.0	GoodResponse	0	0.213	432.888	7	45	Target	Neutral	True
433.888	0.3	Control	0.6522	0.004	Yes	2.871	-0.004	4.0	GoodResponse	0	0.213	n/a	7	45	ButtonPress	Neutral	True
434.026	0.35	Control	0.6522	n/a	Yes	2.871	n/a	n/a	GoodResponse	0	n/a	n/a	7	45	Blank	Neutral	True
434.377	1.45	Control	0.6522	n/a	Yes	2.871	n/a	5.0	GoodResponse	0	0.032	433.409	7	45	Feedback	Neutral	True
435.832	2.871	Control	0.6522	n/a	Yes	2.871	n/a	n/a	GoodResponse	0	0.0	n/a	7	45	ISIslide	Neutral	True
438.724	0.25	Lose2	0.6596	0.0	Yes	3.376	0.024	n/a	GoodResponse	0	n/a	n/a	7	46	Cue	AvoidedLoss	False
438.974	4.0	Lose2	0.6596	0.0	Yes	3.376	0.0	4.0	GoodResponse	0	3.825	441.799	7	46	Fixation	AvoidedLoss	False
442.799	0.3	Lose2	0.6596	0.0	Yes	3.376	0.0	4.0	GoodResponse	0	3.825	n/a	7	46	ButtonPress	AvoidedLoss	False
442.97	0.36	Lose2	0.6596	0.004	Yes	3.376	-0.004	4.0	GoodResponse	0	0.334	442.304	7	46	Target	AvoidedLoss	False
443.304	0.3	Lose2	0.6596	0.004	Yes	3.376	-0.004	4.0	GoodResponse	0	0.334	n/a	7	46	ButtonPress	AvoidedLoss	False
443.337	0.34	Lose2	0.6596	n/a	Yes	3.376	n/a	n/a	GoodResponse	0	n/a	n/a	7	46	Blank	AvoidedLoss	False
443.672	1.45	Lose2	0.6596	n/a	Yes	3.376	n/a	5.0	GoodResponse	0	0.008	442.68	7	46	Feedback	AvoidedLoss	False
445.126	3.376	Lose2	0.6596	n/a	Yes	3.376	n/a	n/a	GoodResponse	0	0.0	n/a	7	46	ISIslide	AvoidedLoss	False
448.52	0.25	Lose2	0.6667000000000001	0.0	Yes	2.68	0.02	n/a	GoodResponse	0	n/a	n/a	7	47	Cue	AvoidedLoss	True
448.77	4.0	Lose2	0.6667000000000001	0.0	Yes	2.68	0.0	n/a	GoodResponse	0	n/a	n/a	7	47	Fixation	AvoidedLoss	True
452.766	0.36	Lose2	0.6667000000000001	0.004	Yes	2.68	-0.004	4.0	GoodResponse	0	0.219	451.985	7	47	Target	AvoidedLoss	True
452.985	0.3	Lose2	0.6667000000000001	0.004	Yes	2.68	-0.004	4.0	GoodResponse	0	0.219	n/a	7	47	ButtonPress	AvoidedLoss	True
453.133	0.34	Lose2	0.6667000000000001	n/a	Yes	2.68	n/a	n/a	GoodResponse	0	n/a	n/a	7	47	Blank	AvoidedLoss	True
453.468	1.45	Lose2	0.6667000000000001	n/a	Yes	2.68	n/a	5.0	GoodResponse	0	0.014	452.482	7	47	Feedback	AvoidedLoss	True
454.922	2.68	Lose2	0.6667000000000001	n/a	Yes	2.68	n/a	n/a	GoodResponse	0	0.0	n/a	7	47	ISIslide	AvoidedLoss	True
457.63	0.25	Lose2	0.6735	0.0	Yes	3.02	0.03	n/a	GoodResponse	0	n/a	n/a	7	48	Cue	AvoidedLoss	True
457.881	3.95	Lose2	0.6735	0.0	Yes	3.02	0.001	n/a	GoodResponse	0	n/a	n/a	7	48	Fixation	AvoidedLoss	True
461.826	0.35	Lose2	0.6735	0.004	Yes	3.02	-0.004	4.0	GoodResponse	0	0.315	461.141	7	48	Target	AvoidedLoss	True
462.141	0.3	Lose2	0.6735	0.004	Yes	3.02	-0.004	4.0	GoodResponse	0	0.315	n/a	7	48	ButtonPress	AvoidedLoss	True
462.177	0.35	Lose2	0.6735	n/a	Yes	3.02	n/a	n/a	GoodResponse	0	n/a	n/a	7	48	Blank	AvoidedLoss	True
462.528	1.45	Lose2	0.6735	n/a	Yes	3.02	n/a	5.0	GoodResponse	0	0.028	461.556	7	48	Feedback	AvoidedLoss	True
463.982	3.02	Lose2	0.6735	n/a	Yes	3.02	n/a	n/a	GoodResponse	0	0.0	n/a	7	48	ISIslide	AvoidedLoss	True
467.025	0.25	Control	0.68	0.0	Yes	2.875	0.025	n/a	GoodResponse	0	n/a	n/a	7	49	Cue	Neutral	True
467.276	4.0	Control	0.68	0.0	Yes	2.875	0.001	n/a	GoodResponse	0	n/a	n/a	7	49	Fixation	Neutral	True
471.271	0.34	Control	0.68	0.004	Yes	2.875	-0.004	4.0	GoodResponse	0	0.174	470.445	7	49	Target	Neutral	True
471.445	0.3	Control	0.68	0.004	Yes	2.875	-0.004	4.0	GoodResponse	0	0.174	n/a	7	49	ButtonPress	Neutral	True
471.622	0.36	Control	0.68	n/a	Yes	2.875	n/a	n/a	GoodResponse	0	n/a	n/a	7	49	Blank	Neutral	True
471.973	1.45	Control	0.68	n/a	Yes	2.875	n/a	5.0	GoodResponse	0	0.045	471.018	7	49	Feedback	Neutral	True
473.427	2.875	Control	0.68	n/a	Yes	2.875	n/a	n/a	GoodResponse	0	0.0	n/a	7	49	ISIslide	Neutral	True
476.319	0.25	Control	0.6862999999999999	0.0	Yes	2.781	0.019	n/a	GoodResponse	0	n/a	n/a	7	50	Cue	Neutral	True
476.57	4.0	Control	0.6862999999999999	0.0	Yes	2.781	0.001	n/a	GoodResponse	0	n/a	n/a	7	50	Fixation	Neutral	True
480.565	0.33	Control	0.6862999999999999	0.004	Yes	2.781	-0.004	4.0	GoodResponse	0	0.204	479.769	7	50	Target	Neutral	True
480.769	0.3	Control	0.6862999999999999	0.004	Yes	2.781	-0.004	4.0	GoodResponse	0	0.204	n/a	7	50	ButtonPress	Neutral	True
480.9	0.37	Control	0.6862999999999999	n/a	Yes	2.781	n/a	n/a	GoodResponse	0	n/a	n/a	7	50	Blank	Neutral	True
481.267	1.45	Control	0.6862999999999999	n/a	Yes	2.781	n/a	5.0	GoodResponse	0	0.02	480.287	7	50	Feedback	Neutral	True
482.722	2.781	Control	0.6862999999999999	n/a	Yes	2.781	n/a	n/a	GoodResponse	0	0.0	n/a	7	50	ISIslide	Neutral	True
485.53	0.25	Control	0.6923	0.0	Yes	2.72	0.03	n/a	GoodResponse	0	n/a	n/a	7	51	Cue	Neutral	True
485.781	3.95	Control	0.6923	0.0	Yes	2.72	0.001	n/a	GoodResponse	0	n/a	n/a	7	51	Fixation	Neutral	True
489.726	0.32	Control	0.6923	0.004	Yes	2.72	-0.004	4.0	GoodResponse	0	0.214	488.94	7	51	Target	Neutral	True
489.94	0.3	Control	0.6923	0.004	Yes	2.72	-0.004	4.0	GoodResponse	0	0.214	n/a	7	51	ButtonPress	Neutral	True
490.06	0.38	Control	0.6923	n/a	Yes	2.72	n/a	n/a	GoodResponse	0	n/a	n/a	7	51	Blank	Neutral	True
490.428	1.45	Control	0.6923	n/a	Yes	2.72	n/a	5.0	GoodResponse	0	0.029	489.457	7	51	Feedback	Neutral	True
491.883	2.72	Control	0.6923	n/a	Yes	2.72	n/a	n/a	GoodResponse	0	0.0	n/a	7	51	ISIslide	Neutral	True
494.624	0.25	Control	0.6981	0.0	Yes	2.626	0.024	n/a	GoodResponse	0	n/a	n/a	7	52	Cue	Neutral	True
494.875	4.05	Control	0.6981	0.0	Yes	2.626	0.001	n/a	GoodResponse	0	n/a	n/a	7	52	Fixation	Neutral	True
498.92	0.31	Control	0.6981	0.004	Yes	2.626	-0.004	4.0	GoodResponse	0	0.182	498.102	7	52	Target	Neutral	True
499.102	0.3	Control	0.6981	0.004	Yes	2.626	-0.004	4.0	GoodResponse	0	0.182	n/a	7	52	ButtonPress	Neutral	True
499.238	0.39	Control	0.6981	n/a	Yes	2.626	n/a	n/a	GoodResponse	0	n/a	n/a	7	52	Blank	Neutral	True
499.622	1.45	Control	0.6981	n/a	Yes	2.626	n/a	5.0	GoodResponse	0	0.007	498.629	7	52	Feedback	Neutral	True
501.077	2.626	Control	0.6981	n/a	Yes	2.626	n/a	n/a	GoodResponse	0	0.0	n/a	7	52	ISIslide	Neutral	True
503.718	0.25	Win2	0.7037	0.0	Yes	2.932	0.018	n/a	GoodResponse	1	n/a	n/a	8	53	Cue	Win	True
503.969	4.05	Win2	0.7037	0.0	Yes	2.932	0.001	n/a	GoodResponse	1	n/a	n/a	8	53	Fixation	Win	True
508.014	0.3	Win2	0.7037	0.004	Yes	2.932	-0.004	4.0	GoodResponse	1	0.233	507.247	8	53	Target	Win	True
508.247	0.3	Win2	0.7037	0.004	Yes	2.932	-0.004	4.0	GoodResponse	1	0.233	n/a	8	53	ButtonPress	Win	True
508.315	0.4	Win2	0.7037	n/a	Yes	2.932	n/a	n/a	GoodResponse	1	n/a	n/a	8	53	Blank	Win	True
508.716	1.45	Win2	0.7037	n/a	Yes	2.932	n/a	5.0	GoodResponse	1	0.033	507.749	8	53	Feedback	Win	True
510.171	2.932	Win2	0.7037	n/a	Yes	2.932	n/a	n/a	GoodResponse	1	0.0	n/a	8	53	ISIslide	Win	True
513.129	0.25	Win2	0.7091	0.0	Yes	2.721	0.029	n/a	GoodResponse	1	n/a	n/a	9	54	Cue	Win	True
513.38	3.95	Win2	0.7091	0.0	Yes	2.721	0.001	n/a	GoodResponse	1	n/a	n/a	9	54	Fixation	Win	True
517.325	0.29	Win2	0.7091	0.004	Yes	2.721	-0.004	4.0	GoodResponse	1	0.186	516.511	9	54	Target	Win	True
517.511	0.3	Win2	0.7091	0.004	Yes	2.721	-0.004	4.0	GoodResponse	1	0.186	n/a	9	54	ButtonPress	Win	True
517.626	0.41	Win2	0.7091	n/a	Yes	2.721	n/a	n/a	GoodResponse	1	n/a	n/a	9	54	Blank	Win	True
518.027	1.45	Win2	0.7091	n/a	Yes	2.721	n/a	5.0	GoodResponse	1	0.04	517.067	9	54	Feedback	Win	True
519.482	2.721	Win2	0.7091	n/a	Yes	2.721	n/a	n/a	GoodResponse	1	0.0	n/a	9	54	ISIslide	Win	True
522.223	0.25	Control	0.7143	0.0	Yes	3.027	0.023	n/a	GoodResponse	0	n/a	n/a	9	55	Cue	Neutral	True
522.474	3.95	Control	0.7143	0.0	Yes	3.027	0.001	n/a	GoodResponse	0	n/a	n/a	9	55	Fixation	Neutral	True
526.419	0.28	Control	0.7143	0.004	Yes	3.027	-0.004	4.0	GoodResponse	0	0.203	525.622	9	55	Target	Neutral	True
526.622	0.3	Control	0.7143	0.004	Yes	3.027	-0.004	4.0	GoodResponse	0	0.203	n/a	9	55	ButtonPress	Neutral	True
526.703	0.42	Control	0.7143	n/a	Yes	3.027	n/a	n/a	GoodResponse	0	n/a	n/a	9	55	Blank	Neutral	True
527.121	1.45	Control	0.7143	n/a	Yes	3.027	n/a	5.0	GoodResponse	0	0.019	526.14	9	55	Feedback	Neutral	True
528.576	3.027	Control	0.7143	n/a	Yes	3.027	n/a	n/a	GoodResponse	0	0.0	n/a	9	55	ISIslide	Neutral	True
531.618	0.25	Control	0.7018000000000001	0.0	No	2.832	0.018	n/a	NoResponse	0	n/a	n/a	9	56	Cue	Neutral	True
531.869	3.95	Control	0.7018000000000001	0.0	No	2.832	0.001	n/a	NoResponse	0	n/a	n/a	9	56	Fixation	Neutral	True
535.814	0.27	Control	0.7018000000000001	0.004	No	2.832	-0.004	4.0	NoResponse	0	0.335	535.149	9	56	Target	Neutral	True
536.098	0.43	Control	0.7018000000000001	n/a	No	2.832	n/a	n/a	NoResponse	0	n/a	n/a	9	56	Blank	Neutral	True
536.149	0.3	Control	0.7018000000000001	0.004	No	2.832	-0.004	4.0	NoResponse	0	0.335	n/a	9	56	ButtonPress	Neutral	True
536.516	1.45	Control	0.7018000000000001	n/a	No	2.832	n/a	5.0	NoResponse	0	0.039	535.555	9	56	Feedback	Neutral	True
537.97	2.832	Control	0.7018000000000001	n/a	No	2.832	n/a	n/a	NoResponse	0	0.0	n/a	9	56	ISIslide	Neutral	True
540.829	0.25	Control	0.6897	0.0	No	3.471	0.029	n/a	NoResponse	0	n/a	n/a	9	57	Cue	Neutral	True
541.08	4.0	Control	0.6897	0.0	No	3.471	0.001	n/a	NoResponse	0	n/a	n/a	9	57	Fixation	Neutral	True
545.075	0.26	Control	0.6897	0.004	No	3.471	-0.004	4.0	NoResponse	0	0.498	544.573	9	57	Target	Neutral	True
545.342	0.44	Control	0.6897	n/a	No	3.471	n/a	n/a	NoResponse	0	n/a	n/a	9	57	Blank	Neutral	True
545.573	0.3	Control	0.6897	0.004	No	3.471	-0.004	4.0	NoResponse	0	0.498	n/a	9	57	ButtonPress	Neutral	True
545.777	1.45	Control	0.6897	n/a	No	3.471	n/a	5.0	NoResponse	0	0.046	544.823	9	57	Feedback	Neutral	True
547.231	3.471	Control	0.6897	n/a	No	3.471	n/a	n/a	NoResponse	0	0.0	n/a	9	57	ISIslide	Neutral	True
550.725	0.25	Win2	0.6949	0.0	Yes	2.725	0.025	n/a	GoodResponse	1	n/a	n/a	10	58	Cue	Win	True
550.976	4.05	Win2	0.6949	0.0	Yes	2.725	0.001	n/a	GoodResponse	1	n/a	n/a	10	58	Fixation	Win	True
555.021	0.25	Win2	0.6949	0.004	Yes	2.725	-0.004	4.0	GoodResponse	1	0.211	554.232	10	58	Target	Win	True
555.232	0.3	Win2	0.6949	0.004	Yes	2.725	-0.004	4.0	GoodResponse	1	0.211	n/a	10	58	ButtonPress	Win	True
555.272	0.45	Win2	0.6949	n/a	Yes	2.725	n/a	n/a	GoodResponse	1	n/a	n/a	10	58	Blank	Win	True
555.723	1.45	Win2	0.6949	n/a	Yes	2.725	n/a	5.0	GoodResponse	1	0.005	554.728	10	58	Feedback	Win	True
557.178	2.725	Win2	0.6949	n/a	Yes	2.725	n/a	n/a	GoodResponse	1	0.0	n/a	10	58	ISIslide	Win	True
559.919	0.25	Lose2	0.7	0.0	Yes	2.681	0.019	n/a	GoodResponse	0	n/a	n/a	10	59	Cue	AvoidedLoss	True
560.17	4.0	Lose2	0.7	0.0	Yes	2.681	0.001	n/a	GoodResponse	0	n/a	n/a	10	59	Fixation	AvoidedLoss	True
564.165	0.24	Lose2	0.7	0.004	Yes	2.681	-0.004	4.0	GoodResponse	0	0.2	563.365	10	59	Target	AvoidedLoss	True
564.365	0.3	Lose2	0.7	0.004	Yes	2.681	-0.004	4.0	GoodResponse	0	0.2	n/a	10	59	ButtonPress	AvoidedLoss	True
564.416	0.46	Lose2	0.7	n/a	Yes	2.681	n/a	n/a	GoodResponse	0	n/a	n/a	10	59	Blank	AvoidedLoss	True
564.867	1.45	Lose2	0.7	n/a	Yes	2.681	n/a	5.0	GoodResponse	0	0.028	563.895	10	59	Feedback	AvoidedLoss	True
566.322	2.681	Lose2	0.7	n/a	Yes	2.681	n/a	n/a	GoodResponse	0	0.0	n/a	10	59	ISIslide	AvoidedLoss	True
569.03	0.25	Control	0.7049	0.0	Yes	2.67	0.03	n/a	GoodResponse	0	n/a	n/a	10	60	Cue	Neutral	True
569.281	4.0	Control	0.7049	0.0	Yes	2.67	0.001	n/a	GoodResponse	0	n/a	n/a	10	60	Fixation	Neutral	True
573.276	0.23	Control	0.7049	0.004	Yes	2.67	-0.004	4.0	GoodResponse	0	0.219	572.495	10	60	Target	Neutral	True
573.495	0.3	Control	0.7049	0.004	Yes	2.67	-0.004	4.0	GoodResponse	0	0.219	n/a	10	60	ButtonPress	Neutral	True
573.51	0.47	Control	0.7049	n/a	Yes	2.67	n/a	n/a	GoodResponse	0	n/a	n/a	10	60	Blank	Neutral	True
573.978	1.45	Control	0.7049	n/a	Yes	2.67	n/a	5.0	GoodResponse	0	0.039	573.017	10	60	Feedback	Neutral	True
575.432	2.67	Control	0.7049	n/a	Yes	2.67	n/a	n/a	GoodResponse	0	0.0	n/a	10	60	ISIslide	Neutral	True
578.124	0.25	Lose2	0.7097	0.0	Yes	2.976	0.024	n/a	GoodResponse	0	n/a	n/a	10	61	Cue	AvoidedLoss	True
578.374	4.0	Lose2	0.7097	0.001	Yes	2.976	0.0	n/a	GoodResponse	0	n/a	n/a	10	61	Fixation	AvoidedLoss	True
582.37	0.22	Lose2	0.7097	0.004	Yes	2.976	-0.004	4.0	GoodResponse	0	0.198	581.568	10	61	Target	AvoidedLoss	True
582.568	0.3	Lose2	0.7097	0.004	Yes	2.976	-0.004	4.0	GoodResponse	0	0.198	n/a	10	61	ButtonPress	AvoidedLoss	True
582.604	0.48	Lose2	0.7097	n/a	Yes	2.976	n/a	n/a	GoodResponse	0	n/a	n/a	10	61	Blank	AvoidedLoss	True
583.072	1.45	Lose2	0.7097	n/a	Yes	2.976	n/a	5.0	GoodResponse	0	0.019	582.091	10	61	Feedback	AvoidedLoss	True
584.526	2.976	Lose2	0.7097	n/a	Yes	2.976	n/a	n/a	GoodResponse	0	0.0	n/a	10	61	ISIslide	AvoidedLoss	True
587.518	0.25	Lose2	0.7143	0.001	Yes	2.882	0.018	n/a	GoodResponse	0	n/a	n/a	10	62	Cue	AvoidedLoss	True
587.769	3.9	Lose2	0.7143	0.0	Yes	2.882	0.001	n/a	GoodResponse	0	n/a	n/a	10	62	Fixation	AvoidedLoss	True
591.664	0.21	Lose2	0.7143	0.004	Yes	2.882	-0.004	4.0	GoodResponse	0	0.18	590.844	10	62	Target	AvoidedLoss	True
591.844	0.3	Lose2	0.7143	0.004	Yes	2.882	-0.004	4.0	GoodResponse	0	0.18	n/a	10	62	ButtonPress	AvoidedLoss	True
591.882	0.49	Lose2	0.7143	n/a	Yes	2.882	n/a	n/a	GoodResponse	0	n/a	n/a	10	62	Blank	AvoidedLoss	True
592.366	1.45	Lose2	0.7143	n/a	Yes	2.882	n/a	5.0	GoodResponse	0	0.041	591.407	10	62	Feedback	AvoidedLoss	True
593.821	2.882	Lose2	0.7143	n/a	Yes	2.882	n/a	n/a	GoodResponse	0	0.0	n/a	10	62	ISIslide	AvoidedLoss	True
596.729	0.25	Lose2	0.7031000000000001	0.0	No	2.621	0.029	n/a	NoResponse	-1	n/a	n/a	9	63	Cue	Loss	True
596.98	4.05	Lose2	0.7031000000000001	0.0	No	2.621	0.001	n/a	NoResponse	-1	n/a	n/a	9	63	Fixation	Loss	True
601.026	0.2	Lose2	0.7031000000000001	0.003	No	2.621	-0.003	4.0	NoResponse	-1	0.244	600.27	9	63	Target	Loss	True
601.226	0.5	Lose2	0.7031000000000001	n/a	No	2.621	n/a	n/a	NoResponse	-1	n/a	n/a	9	63	Blank	Loss	True
601.27	0.3	Lose2	0.7031000000000001	0.003	No	2.621	-0.003	4.0	NoResponse	-1	0.244	n/a	9	63	ButtonPress	Loss	True
601.728	1.45	Lose2	0.7031000000000001	n/a	No	2.621	n/a	5.0	NoResponse	-1	0.045	600.773	9	63	Feedback	Loss	True
603.182	2.621	Lose2	0.7031000000000001	n/a	No	2.621	n/a	n/a	NoResponse	-1	0.0	n/a	9	63	ISIslide	Loss	True
605.823	0.25	Win2	0.7077	0.0	Yes	3.127	0.023	n/a	GoodResponse	1	n/a	n/a	10	64	Cue	Win	True
606.074	4.15	Win2	0.7077	0.0	Yes	3.127	0.001	n/a	GoodResponse	1	n/a	n/a	10	64	Fixation	Win	True
610.22	0.19	Win2	0.7077	0.003	Yes	3.127	-0.003	4.0	GoodResponse	1	0.176	609.396	10	64	Target	Win	True
610.396	0.3	Win2	0.7077	0.003	Yes	3.127	-0.003	4.0	GoodResponse	1	0.176	n/a	10	64	ButtonPress	Win	True
610.42	0.51	Win2	0.7077	n/a	Yes	3.127	n/a	n/a	GoodResponse	1	n/a	n/a	10	64	Blank	Win	True
610.922	1.45	Win2	0.7077	n/a	Yes	3.127	n/a	5.0	GoodResponse	1	0.022	609.944	10	64	Feedback	Win	True
612.376	3.127	Win2	0.7077	n/a	Yes	3.127	n/a	n/a	GoodResponse	1	0.0	n/a	10	64	ISIslide	Win	True
615.519	0.25	Control	0.6970000000000001	0.0	No	2.781	0.019	n/a	NoResponse	0	n/a	n/a	10	65	Cue	Neutral	True
615.77	4.0	Control	0.6970000000000001	0.0	No	2.781	0.001	n/a	NoResponse	0	n/a	n/a	10	65	Fixation	Neutral	True
619.765	0.18	Control	0.6970000000000001	0.004	No	2.781	-0.004	4.0	NoResponse	0	0.224	618.989	10	65	Target	Neutral	True
619.949	0.52	Control	0.6970000000000001	n/a	No	2.781	n/a	n/a	NoResponse	0	n/a	n/a	10	65	Blank	Neutral	True
619.989	0.3	Control	0.6970000000000001	0.004	No	2.781	-0.004	4.0	NoResponse	0	0.224	n/a	10	65	ButtonPress	Neutral	True
620.467	1.45	Control	0.6970000000000001	n/a	No	2.781	n/a	5.0	NoResponse	0	0.038	619.505	10	65	Feedback	Neutral	True
621.921	2.781	Control	0.6970000000000001	n/a	No	2.781	n/a	n/a	NoResponse	0	0.0	n/a	10	65	ISIslide	Neutral	True
624.73	0.25	Win2	0.6866	0.0	No	2.77	0.03	n/a	NoResponse	0	n/a	n/a	10	66	Cue	MissedWin	True
624.98	3.9	Win2	0.6866	0.001	No	2.77	0.0	n/a	NoResponse	0	n/a	n/a	10	66	Fixation	MissedWin	True
628.892	0.17	Win2	0.6866	0.0	No	2.77	0.012	4.0	NoResponse	0	0.211	628.103	10	66	Target	MissedWin	True
629.059	0.53	Win2	0.6866	n/a	No	2.77	n/a	n/a	NoResponse	0	n/a	n/a	10	66	Blank	MissedWin	True
629.103	0.3	Win2	0.6866	0.0	No	2.77	0.012	4.0	NoResponse	0	0.211	n/a	10	66	ButtonPress	MissedWin	True
629.578	1.45	Win2	0.6866	n/a	No	2.77	n/a	5.0	NoResponse	0	0.049	628.627	10	66	Feedback	MissedWin	True
631.032	2.77	Win2	0.6866	n/a	No	2.77	n/a	n/a	NoResponse	0	0.0	n/a	10	66	ISIslide	MissedWin	True
633.824	0.25	Control	0.6765000000000001	0.0	No	2.726	0.024	n/a	NoResponse	0	n/a	n/a	10	67	Cue	Neutral	True
634.074	3.95	Control	0.6765000000000001	0.0	No	2.726	0.0	n/a	NoResponse	0	n/a	n/a	10	67	Fixation	Neutral	True
638.036	0.16	Control	0.6765000000000001	0.0	No	2.726	0.012	4.0	NoResponse	0	0.196	637.232	10	67	Target	Neutral	True
638.187	0.54	Control	0.6765000000000001	n/a	No	2.726	n/a	n/a	NoResponse	0	n/a	n/a	10	67	Blank	Neutral	True
638.232	0.3	Control	0.6765000000000001	0.0	No	2.726	0.012	4.0	NoResponse	0	0.196	n/a	10	67	ButtonPress	Neutral	True
638.722	1.45	Control	0.6765000000000001	n/a	No	2.726	n/a	5.0	NoResponse	0	0.026	637.748	10	67	Feedback	Neutral	True
640.176	2.726	Control	0.6765000000000001	n/a	No	2.726	n/a	n/a	NoResponse	0	0.0	n/a	10	67	ISIslide	Neutral	True
642.917	0.25	Win2	0.6667000000000001	0.001	No	3.083	0.017	n/a	NoResponse	0	n/a	n/a	10	68	Cue	MissedWin	False
643.168	4.0	Win2	0.6667000000000001	0.0	No	3.083	0.001	4.0	NoResponse	0	0.398	642.566	10	68	Fixation	MissedWin	False
643.566	0.3	Win2	0.6667000000000001	0.0	No	3.083	0.001	4.0	NoResponse	0	0.398	n/a	10	68	ButtonPress	MissedWin	False
647.163	0.15	Win2	0.6667000000000001	0.004	No	3.083	-0.004	4.0	NoResponse	0	0.187	646.35	10	68	Target	MissedWin	False
647.314	0.55	Win2	0.6667000000000001	n/a	No	3.083	n/a	n/a	NoResponse	0	n/a	n/a	10	68	Blank	MissedWin	False
647.35	0.3	Win2	0.6667000000000001	0.004	No	3.083	-0.004	4.0	NoResponse	0	0.187	n/a	10	68	ButtonPress	MissedWin	False
647.866	1.45	Win2	0.6667000000000001	n/a	No	3.083	n/a	5.0	NoResponse	0	0.004	646.87	10	68	Feedback	MissedWin	False
649.32	3.083	Win2	0.6667000000000001	n/a	No	3.083	n/a	n/a	NoResponse	0	0.0	n/a	10	68	ISIslide	MissedWin	False
652.429	0.25	Win2	0.6570999999999999	0.0	No	3.221	0.029	n/a	NoResponse	0	n/a	n/a	10	69	Cue	MissedWin	False
652.68	3.95	Win2	0.6570999999999999	0.0	No	3.221	0.001	4.0	NoResponse	0	3.448	655.128	10	69	Fixation	MissedWin	False
656.128	0.3	Win2	0.6570999999999999	0.0	No	3.221	0.001	4.0	NoResponse	0	3.448	n/a	10	69	ButtonPress	MissedWin	False
656.625	0.15	Win2	0.6570999999999999	0.004	No	3.221	-0.004	4.0	NoResponse	0	0.188	655.813	10	69	Target	MissedWin	False
656.776	0.55	Win2	0.6570999999999999	n/a	No	3.221	n/a	n/a	NoResponse	0	n/a	n/a	10	69	Blank	MissedWin	False
656.813	0.3	Win2	0.6570999999999999	0.004	No	3.221	-0.004	4.0	NoResponse	0	0.188	n/a	10	69	ButtonPress	MissedWin	False
657.327	1.45	Win2	0.6570999999999999	n/a	No	3.221	n/a	5.0	NoResponse	0	0.006	656.333	10	69	Feedback	MissedWin	False
658.782	3.221	Win2	0.6570999999999999	n/a	No	3.221	n/a	n/a	NoResponse	0	0.0	n/a	10	69	ISIslide	MissedWin	False
662.025	0.25	Lose2	0.6479	0.0	No	3.025	0.025	n/a	PrematurePress	-1	n/a	n/a	9	70	Cue	Loss	True
662.275	4.05	Lose2	0.6479	0.0	No	3.025	0.0	n/a	PrematurePress	-1	n/a	n/a	9	70	Fixation	Loss	True
666.321	0.15	Lose2	0.6479	0.004	No	3.025	-0.004	4.0	PrematurePress	-1	0.069	665.39	9	70	Target	Loss	True
666.39	0.3	Lose2	0.6479	0.004	No	3.025	-0.004	4.0	PrematurePress	-1	0.069	n/a	9	70	ButtonPress	Loss	True
666.471	0.55	Lose2	0.6479	n/a	No	3.025	n/a	n/a	PrematurePress	-1	n/a	n/a	9	70	Blank	Loss	True
667.023	1.45	Lose2	0.6479	n/a	No	3.025	n/a	5.0	PrematurePress	-1	0.018	666.041	9	70	Feedback	Loss	True
668.477	3.025	Lose2	0.6479	n/a	No	3.025	n/a	n/a	PrematurePress	-1	0.0	n/a	9	70	ISIslide	Loss	True
671.52	0.25	Win2	0.6528	0.0	Yes	2.73	0.02	n/a	GoodResponse	1	n/a	n/a	10	71	Cue	Win	True
671.77	4.05	Win2	0.6528	0.0	Yes	2.73	0.0	n/a	GoodResponse	1	n/a	n/a	10	71	Fixation	Win	True
675.816	0.16	Win2	0.6528	0.004	Yes	2.73	-0.004	4.0	GoodResponse	1	0.119	674.935	10	71	Target	Win	True
675.935	0.3	Win2	0.6528	0.004	Yes	2.73	-0.004	4.0	GoodResponse	1	0.119	n/a	10	71	ButtonPress	Win	True
675.983	0.54	Win2	0.6528	n/a	Yes	2.73	n/a	n/a	GoodResponse	1	n/a	n/a	10	71	Blank	Win	True
676.518	1.45	Win2	0.6528	n/a	Yes	2.73	n/a	5.0	GoodResponse	1	0.035	675.553	10	71	Feedback	Win	True
677.972	2.73	Win2	0.6528	n/a	Yes	2.73	n/a	n/a	GoodResponse	1	0.0	n/a	10	71	ISIslide	Win	True
680.73	0.25	Win2	0.6437999999999999	0.001	No	2.77	0.03	n/a	NoResponse	0	n/a	n/a	10	72	Cue	MissedWin	False
680.981	4.1	Win2	0.6437999999999999	0.0	No	2.77	0.001	4.0	NoResponse	0	3.815	683.796	10	72	Fixation	MissedWin	False
684.796	0.3	Win2	0.6437999999999999	0.0	No	2.77	0.001	4.0	NoResponse	0	3.815	n/a	10	72	ButtonPress	MissedWin	False
685.077	0.17	Win2	0.6437999999999999	0.003	No	2.77	-0.003	4.0	NoResponse	0	0.227	684.304	10	72	Target	MissedWin	False
685.261	0.53	Win2	0.6437999999999999	n/a	No	2.77	n/a	n/a	NoResponse	0	n/a	n/a	10	72	Blank	MissedWin	False
685.304	0.3	Win2	0.6437999999999999	0.003	No	2.77	-0.003	4.0	NoResponse	0	0.227	n/a	10	72	ButtonPress	MissedWin	False
685.779	1.45	Win2	0.6437999999999999	n/a	No	2.77	n/a	5.0	NoResponse	0	0.042	684.821	10	72	Feedback	MissedWin	False
687.233	2.77	Win2	0.6437999999999999	n/a	No	2.77	n/a	n/a	NoResponse	0	0.0	n/a	10	72	ISIslide	MissedWin	False
690.025	0.25	Win2	0.6351	0.0	No	2.675	0.025	n/a	PrematurePress	0	n/a	n/a	10	73	Cue	MissedWin	True
690.276	4.0	Win2	0.6351	0.0	No	2.675	0.001	n/a	PrematurePress	0	n/a	n/a	10	73	Fixation	MissedWin	True
694.271	0.18	Win2	0.6351	0.004	No	2.675	-0.004	4.0	PrematurePress	0	0.009	693.28	10	73	Target	MissedWin	True
694.28	0.3	Win2	0.6351	0.004	No	2.675	-0.004	4.0	PrematurePress	0	0.009	n/a	10	73	ButtonPress	MissedWin	True
694.455	0.52	Win2	0.6351	n/a	No	2.675	n/a	n/a	PrematurePress	0	n/a	n/a	10	73	Blank	MissedWin	True
694.973	1.45	Win2	0.6351	n/a	No	2.675	n/a	5.0	PrematurePress	0	0.018	693.991	10	73	Feedback	MissedWin	True
696.427	2.675	Win2	0.6351	n/a	No	2.675	n/a	n/a	PrematurePress	0	0.0	n/a	10	73	ISIslide	MissedWin	True
699.119	0.25	Lose2	0.6267	0.0	No	2.631	0.019	n/a	NoResponse	-1	n/a	n/a	9	74	Cue	Loss	True
699.37	4.05	Lose2	0.6267	0.0	No	2.631	0.001	n/a	NoResponse	-1	n/a	n/a	9	74	Fixation	Loss	True
703.415	0.19	Lose2	0.6267	0.004	No	2.631	-0.004	4.0	NoResponse	-1	0.284	702.699	9	74	Target	Loss	True
703.616	0.51	Lose2	0.6267	n/a	No	2.631	n/a	n/a	NoResponse	-1	n/a	n/a	9	74	Blank	Loss	True
703.699	0.3	Lose2	0.6267	0.004	No	2.631	-0.004	4.0	NoResponse	-1	0.284	n/a	9	74	ButtonPress	Loss	True
704.117	1.45	Lose2	0.6267	n/a	No	2.631	n/a	5.0	NoResponse	-1	0.045	703.162	9	74	Feedback	Loss	True
705.571	2.631	Lose2	0.6267	n/a	No	2.631	n/a	n/a	NoResponse	-1	0.0	n/a	9	74	ISIslide	Loss	True
708.213	0.25	Lose2	0.6184000000000001	0.0	No	2.937	0.013	n/a	NoResponse	-1	n/a	n/a	8	75	Cue	Loss	True
708.463	3.95	Lose2	0.6184000000000001	0.0	No	2.937	0.0	n/a	NoResponse	-1	n/a	n/a	8	75	Fixation	Loss	True
712.409	0.2	Lose2	0.6184000000000001	0.004	No	2.937	-0.004	4.0	NoResponse	-1	0.267	711.676	8	75	Target	Loss	True
712.609	0.5	Lose2	0.6184000000000001	n/a	No	2.937	n/a	n/a	NoResponse	-1	n/a	n/a	8	75	Blank	Loss	True
712.676	0.3	Lose2	0.6184000000000001	0.004	No	2.937	-0.004	4.0	NoResponse	-1	0.267	n/a	8	75	ButtonPress	Loss	True
713.111	1.45	Lose2	0.6184000000000001	n/a	No	2.937	n/a	5.0	NoResponse	-1	0.027	712.138	8	75	Feedback	Loss	True
714.565	2.937	Lose2	0.6184000000000001	n/a	No	2.937	n/a	n/a	NoResponse	-1	0.0	n/a	8	75	ISIslide	Loss	True
717.524	0.25	Control	0.6234000000000001	0.0	Yes	3.226	0.024	n/a	GoodResponse	0	n/a	n/a	8	76	Cue	Neutral	True
717.775	4.05	Control	0.6234000000000001	0.0	Yes	3.226	0.001	n/a	GoodResponse	0	n/a	n/a	8	76	Fixation	Neutral	True
721.82	0.21	Control	0.6234000000000001	0.004	Yes	3.226	-0.004	4.0	GoodResponse	0	0.182	721.002	8	76	Target	Neutral	True
722.002	0.3	Control	0.6234000000000001	0.004	Yes	3.226	-0.004	4.0	GoodResponse	0	0.182	n/a	8	76	ButtonPress	Neutral	True
722.037	0.49	Control	0.6234000000000001	n/a	Yes	3.226	n/a	n/a	GoodResponse	0	n/a	n/a	8	76	Blank	Neutral	True
722.522	1.45	Control	0.6234000000000001	n/a	Yes	3.226	n/a	5.0	GoodResponse	0	0.03	721.552	8	76	Feedback	Neutral	True
723.976	3.226	Control	0.6234000000000001	n/a	Yes	3.226	n/a	n/a	GoodResponse	0	0.0	n/a	8	76	ISIslide	Neutral	True
727.219	0.25	Lose2	0.6282	0.001	Yes	2.581	0.019	n/a	GoodResponse	0	n/a	n/a	8	77	Cue	AvoidedLoss	False
727.47	3.95	Lose2	0.6282	0.0	Yes	2.581	0.001	4.0	GoodResponse	0	2.948	729.418	8	77	Fixation	AvoidedLoss	False
730.418	0.3	Lose2	0.6282	0.0	Yes	2.581	0.001	4.0	GoodResponse	0	2.948	n/a	8	77	ButtonPress	AvoidedLoss	False
731.415	0.22	Lose2	0.6282	0.004	Yes	2.581	-0.004	4.0	GoodResponse	0	0.19	730.605	8	77	Target	AvoidedLoss	False
731.605	0.3	Lose2	0.6282	0.004	Yes	2.581	-0.004	4.0	GoodResponse	0	0.19	n/a	8	77	ButtonPress	AvoidedLoss	False
731.649	0.48	Lose2	0.6282	n/a	Yes	2.581	n/a	n/a	GoodResponse	0	n/a	n/a	8	77	Blank	AvoidedLoss	False
732.117	1.45	Lose2	0.6282	n/a	Yes	2.581	n/a	5.0	GoodResponse	0	0.045	731.162	8	77	Feedback	AvoidedLoss	False
733.572	2.581	Lose2	0.6282	n/a	Yes	2.581	n/a	n/a	GoodResponse	0	0.0	n/a	8	77	ISIslide	AvoidedLoss	False
