onset	duration	cue_type	current_mean_accuracy	duration_error	is_hit	isi_adjusted	onset_delay	response	response_type	reward	rt	rt_time	total_reward	trial_number	trial_phase	trial_type	one_press
11.104	0.25	Control	1.0	0.0	Yes	2.946	0.004	n/a	GoodResponse	0	n/a	n/a	0	0	Cue	Neutral	True
11.355	3.85	Control	1.0	0.0	Yes	2.946	0.001	n/a	GoodResponse	0	n/a	n/a	0	0	Fixation	Neutral	True
15.2	0.4	Control	1.0	0.004	Yes	2.946	-0.004	2.0	GoodResponse	0	0.239	14.439	0	0	Target	Neutral	True
15.439	0.3	Control	1.0	0.004	Yes	2.946	-0.004	2.0	GoodResponse	0	0.239	n/a	0	0	ButtonPress	Neutral	True
15.601	0.3	Control	1.0	n/a	Yes	2.946	n/a	n/a	GoodResponse	0	n/a	n/a	0	0	Blank	Neutral	True
15.902	1.45	Control	1.0	n/a	Yes	2.946	n/a	5.0	GoodResponse	0	0.025	14.927	0	0	Feedback	Neutral	True
17.356	2.946	Control	1.0	n/a	Yes	2.946	n/a	n/a	GoodResponse	0	0.0	n/a	0	0	ISIslide	Neutral	True
20.315	0.25	Lose2	1.0	0.0	Yes	2.785	0.015	n/a	GoodResponse	0	n/a	n/a	0	1	Cue	AvoidedLoss	True
20.566	4.0	Lose2	1.0	0.0	Yes	2.785	0.001	n/a	GoodResponse	0	n/a	n/a	0	1	Fixation	AvoidedLoss	True
24.561	0.39	Lose2	1.0	0.004	Yes	2.785	-0.004	2.0	GoodResponse	0	0.217	23.778	0	1	Target	AvoidedLoss	True
24.778	0.3	Lose2	1.0	0.004	Yes	2.785	-0.004	2.0	GoodResponse	0	0.217	n/a	0	1	ButtonPress	AvoidedLoss	True
24.963	0.31	Lose2	1.0	n/a	Yes	2.785	n/a	n/a	GoodResponse	0	n/a	n/a	0	1	Blank	AvoidedLoss	True
25.263	1.45	Lose2	1.0	n/a	Yes	2.785	n/a	5.0	GoodResponse	0	0.03	24.293	0	1	Feedback	AvoidedLoss	True
26.718	2.785	Lose2	1.0	n/a	Yes	2.785	n/a	n/a	GoodResponse	0	0.0	n/a	0	1	ISIslide	AvoidedLoss	True
29.526	0.25	Control	1.0	0.0	Yes	2.574	0.026	n/a	GoodResponse	0	n/a	n/a	0	2	Cue	Neutral	True
29.777	4.1	Control	1.0	0.0	Yes	2.574	0.001	n/a	GoodResponse	0	n/a	n/a	0	2	Fixation	Neutral	True
33.873	0.38	Control	1.0	0.003	Yes	2.574	-0.003	2.0	GoodResponse	0	0.305	33.178	0	2	Target	Neutral	True
34.178	0.3	Control	1.0	0.003	Yes	2.574	-0.003	2.0	GoodResponse	0	0.305	n/a	0	2	ButtonPress	Neutral	True
34.257	0.32	Control	1.0	n/a	Yes	2.574	n/a	n/a	GoodResponse	0	n/a	n/a	0	2	Blank	Neutral	True
34.575	1.45	Control	1.0	n/a	Yes	2.574	n/a	5.0	GoodResponse	0	0.035	33.61	0	2	Feedback	Neutral	True
36.029	2.574	Control	1.0	n/a	Yes	2.574	n/a	n/a	GoodResponse	0	0.0	n/a	0	2	ISIslide	Neutral	True
38.62	0.25	Win2	1.0	0.0	Yes	2.83	0.02	n/a	GoodResponse	1	n/a	n/a	1	3	Cue	Win	True
38.871	3.95	Win2	1.0	0.0	Yes	2.83	0.001	n/a	GoodResponse	1	n/a	n/a	1	3	Fixation	Win	True
42.816	0.37	Win2	1.0	0.004	Yes	2.83	-0.004	2.0	GoodResponse	1	0.196	42.012	1	3	Target	Win	True
43.012	0.3	Win2	1.0	0.004	Yes	2.83	-0.004	2.0	GoodResponse	1	0.196	n/a	1	3	ButtonPress	Win	True
43.201	0.33	Win2	1.0	n/a	Yes	2.83	n/a	n/a	GoodResponse	1	n/a	n/a	1	3	Blank	Win	True
43.518	1.45	Win2	1.0	n/a	Yes	2.83	n/a	5.0	GoodResponse	1	0.018	42.536	1	3	Feedback	Win	True
44.973	2.83	Win2	1.0	n/a	Yes	2.83	n/a	n/a	GoodResponse	1	0.0	n/a	1	3	ISIslide	Win	True
47.814	0.25	Win2	1.0	0.0	Yes	3.286	0.014	n/a	GoodResponse	1	n/a	n/a	2	4	Cue	Win	True
48.065	4.0	Win2	1.0	0.0	Yes	3.286	0.001	n/a	GoodResponse	1	n/a	n/a	2	4	Fixation	Win	True
52.06	0.36	Win2	1.0	0.004	Yes	3.286	-0.004	2.0	GoodResponse	1	0.274	51.334	2	4	Target	Win	True
52.334	0.3	Win2	1.0	0.004	Yes	3.286	-0.004	2.0	GoodResponse	1	0.274	n/a	2	4	ButtonPress	Win	True
52.428	0.34	Win2	1.0	n/a	Yes	3.286	n/a	n/a	GoodResponse	1	n/a	n/a	2	4	Blank	Win	True
52.763	1.45	Win2	1.0	n/a	Yes	3.286	n/a	5.0	GoodResponse	1	0.042	51.805	2	4	Feedback	Win	True
54.217	3.286	Win2	1.0	n/a	Yes	3.286	n/a	n/a	GoodResponse	1	0.0	n/a	2	4	ISIslide	Win	True
57.527	0.25	Win2	1.0	0.0	Yes	2.773	0.027	n/a	GoodResponse	1	n/a	n/a	3	5	Cue	Win	True
57.778	4.0	Win2	1.0	0.0	Yes	2.773	0.001	n/a	GoodResponse	1	n/a	n/a	3	5	Fixation	Win	True
61.773	0.35	Win2	1.0	0.004	Yes	2.773	-0.004	2.0	GoodResponse	1	0.257	61.03	3	5	Target	Win	True
62.03	0.3	Win2	1.0	0.004	Yes	2.773	-0.004	2.0	GoodResponse	1	0.257	n/a	3	5	ButtonPress	Win	True
62.124	0.35	Win2	1.0	n/a	Yes	2.773	n/a	n/a	GoodResponse	1	n/a	n/a	3	5	Blank	Win	True
62.475	1.45	Win2	1.0	n/a	Yes	2.773	n/a	5.0	GoodResponse	1	0.037	61.512	3	5	Feedback	Win	True
63.929	2.773	Win2	1.0	n/a	Yes	2.773	n/a	n/a	GoodResponse	1	0.0	n/a	3	5	ISIslide	Win	True
66.721	0.25	Lose2	0.8571	0.0	No	2.729	0.021	n/a	NoResponse	-1	n/a	n/a	2	6	Cue	Loss	False
66.972	3.95	Lose2	0.8571	0.0	No	2.729	0.001	2.0	NoResponse	-1	3.249	69.221	2	6	Fixation	Loss	False
70.221	0.3	Lose2	0.8571	0.0	No	2.729	0.001	2.0	NoResponse	-1	3.249	n/a	2	6	ButtonPress	Loss	False
70.917	0.34	Lose2	0.8571	0.004	No	2.729	-0.004	2.0	NoResponse	-1	0.441	70.358	2	6	Target	Loss	False
71.268	0.36	Lose2	0.8571	n/a	No	2.729	n/a	n/a	NoResponse	-1	n/a	n/a	2	6	Blank	Loss	False
71.358	0.3	Lose2	0.8571	0.004	No	2.729	-0.004	2.0	NoResponse	-1	0.441	n/a	2	6	ButtonPress	Loss	False
71.619	1.45	Lose2	0.8571	n/a	No	2.729	n/a	5.0	NoResponse	-1	0.015	70.634	2	6	Feedback	Loss	False
73.074	2.729	Lose2	0.8571	n/a	No	2.729	n/a	n/a	NoResponse	-1	0.0	n/a	2	6	ISIslide	Loss	False
75.815	0.25	Lose2	0.875	0.0	Yes	4.035	0.015	n/a	GoodResponse	0	n/a	n/a	2	7	Cue	AvoidedLoss	True
76.066	4.05	Lose2	0.875	0.0	Yes	4.035	0.001	n/a	GoodResponse	0	n/a	n/a	2	7	Fixation	AvoidedLoss	True
80.111	0.33	Lose2	0.875	0.004	Yes	4.035	-0.004	2.0	GoodResponse	0	0.249	79.36	2	7	Target	AvoidedLoss	True
80.36	0.3	Lose2	0.875	0.004	Yes	4.035	-0.004	2.0	GoodResponse	0	0.249	n/a	2	7	ButtonPress	AvoidedLoss	True
80.446	0.37	Lose2	0.875	n/a	Yes	4.035	n/a	n/a	GoodResponse	0	n/a	n/a	2	7	Blank	AvoidedLoss	True
80.813	1.45	Lose2	0.875	n/a	Yes	4.035	n/a	5.0	GoodResponse	0	0.041	79.854	2	7	Feedback	AvoidedLoss	True
82.268	4.035	Lose2	0.875	n/a	Yes	4.035	n/a	n/a	GoodResponse	0	0.0	n/a	2	7	ISIslide	AvoidedLoss	True
86.313	0.25	Lose2	0.8889	0.0	Yes	3.037	0.013	n/a	GoodResponse	0	n/a	n/a	2	8	Cue	AvoidedLoss	True
86.564	3.95	Lose2	0.8889	0.0	Yes	3.037	0.001	n/a	GoodResponse	0	n/a	n/a	2	8	Fixation	AvoidedLoss	True
90.509	0.32	Lose2	0.8889	0.004	Yes	3.037	-0.004	2.0	GoodResponse	0	0.267	89.776	2	8	Target	AvoidedLoss	True
90.776	0.3	Lose2	0.8889	0.004	Yes	3.037	-0.004	2.0	GoodResponse	0	0.267	n/a	2	8	ButtonPress	AvoidedLoss	True
90.843	0.38	Lose2	0.8889	n/a	Yes	3.037	n/a	n/a	GoodResponse	0	n/a	n/a	2	8	Blank	AvoidedLoss	True
91.211	1.45	Lose2	0.8889	n/a	Yes	3.037	n/a	5.0	GoodResponse	0	0.033	90.244	2	8	Feedback	AvoidedLoss	True
92.666	3.037	Lose2	0.8889	n/a	Yes	3.037	n/a	n/a	GoodResponse	0	0.0	n/a	2	8	ISIslide	AvoidedLoss	True
95.725	0.25	Lose2	0.8	0.0	No	3.125	0.025	n/a	PrematurePress	-1	n/a	n/a	1	9	Cue	Loss	True
95.976	3.95	Lose2	0.8	0.0	No	3.125	0.001	n/a	PrematurePress	-1	n/a	n/a	1	9	Fixation	Loss	True
99.921	0.31	Lose2	0.8	0.004	No	3.125	-0.004	2.0	PrematurePress	-1	0.006	98.927	1	9	Target	Loss	True
99.927	0.3	Lose2	0.8	0.004	No	3.125	-0.004	2.0	PrematurePress	-1	0.006	n/a	1	9	ButtonPress	Loss	True
100.238	0.39	Lose2	0.8	n/a	No	3.125	n/a	n/a	PrematurePress	-1	n/a	n/a	1	9	Blank	Loss	True
100.623	1.45	Lose2	0.8	n/a	No	3.125	n/a	5.0	PrematurePress	-1	0.036	99.659	1	9	Feedback	Loss	True
102.077	3.125	Lose2	0.8	n/a	No	3.125	n/a	n/a	PrematurePress	-1	0.0	n/a	1	9	ISIslide	Loss	True
105.22	0.25	Control	0.8181999999999999	0.0	Yes	3.28	0.02	n/a	GoodResponse	0	n/a	n/a	1	10	Cue	Neutral	True
105.471	4.0	Control	0.8181999999999999	0.0	Yes	3.28	0.001	n/a	GoodResponse	0	n/a	n/a	1	10	Fixation	Neutral	True
109.466	0.3	Control	0.8181999999999999	0.004	Yes	3.28	-0.004	2.0	GoodResponse	0	0.28	108.746	1	10	Target	Neutral	True
109.746	0.3	Control	0.8181999999999999	0.004	Yes	3.28	-0.004	2.0	GoodResponse	0	0.28	n/a	1	10	ButtonPress	Neutral	True
109.767	0.4	Control	0.8181999999999999	n/a	Yes	3.28	n/a	n/a	GoodResponse	0	n/a	n/a	1	10	Blank	Neutral	True
110.168	1.45	Control	0.8181999999999999	n/a	Yes	3.28	n/a	5.0	GoodResponse	0	0.005	109.173	1	10	Feedback	Neutral	True
111.622	3.28	Control	0.8181999999999999	n/a	Yes	3.28	n/a	n/a	GoodResponse	0	0.0	n/a	1	10	ISIslide	Neutral	True
114.916	0.25	Lose2	0.8332999999999999	0.0	Yes	2.734	0.016	n/a	GoodResponse	0	n/a	n/a	1	11	Cue	AvoidedLoss	True
115.166	4.05	Lose2	0.8332999999999999	0.001	Yes	2.734	0.0	n/a	GoodResponse	0	n/a	n/a	1	11	Fixation	AvoidedLoss	True
119.212	0.29	Lose2	0.8332999999999999	0.004	Yes	2.734	-0.004	2.0	GoodResponse	0	0.201	118.413	1	11	Target	AvoidedLoss	True
119.413	0.3	Lose2	0.8332999999999999	0.004	Yes	2.734	-0.004	2.0	GoodResponse	0	0.201	n/a	1	11	ButtonPress	AvoidedLoss	True
119.513	0.41	Lose2	0.8332999999999999	n/a	Yes	2.734	n/a	n/a	GoodResponse	0	n/a	n/a	1	11	Blank	AvoidedLoss	True
119.914	1.45	Lose2	0.8332999999999999	n/a	Yes	2.734	n/a	5.0	GoodResponse	0	0.012	118.926	1	11	Feedback	AvoidedLoss	True
121.368	2.734	Lose2	0.8332999999999999	n/a	Yes	2.734	n/a	n/a	GoodResponse	0	0.0	n/a	1	11	ISIslide	AvoidedLoss	True
124.127	0.25	Control	0.7692	0.0	No	2.973	0.027	n/a	NoResponse	0	n/a	n/a	1	12	Cue	Neutral	True
124.377	3.9	Control	0.7692	0.0	No	2.973	0.0	n/a	NoResponse	0	n/a	n/a	1	12	Fixation	Neutral	True
128.289	0.28	Control	0.7692	0.0	No	2.973	0.012	2.0	NoResponse	0	0.275	127.564	1	12	Target	Neutral	True
128.557	0.42	Control	0.7692	n/a	No	2.973	n/a	n/a	NoResponse	0	n/a	n/a	1	12	Blank	Neutral	True
128.564	0.3	Control	0.7692	0.0	No	2.973	0.012	2.0	NoResponse	0	0.275	n/a	1	12	ButtonPress	Neutral	True
128.975	1.45	Control	0.7692	n/a	No	2.973	n/a	5.0	NoResponse	0	0.025	128.0	1	12	Feedback	Neutral	True
130.429	2.973	Control	0.7692	n/a	No	2.973	n/a	n/a	NoResponse	0	0.0	n/a	1	12	ISIslide	Neutral	True
133.421	0.25	Control	0.7143	0.0	No	2.779	0.021	n/a	LatePress	0	n/a	n/a	1	13	Cue	Neutral	True
133.672	4.0	Control	0.7143	0.0	No	2.779	0.001	n/a	LatePress	0	n/a	n/a	1	13	Fixation	Neutral	True
137.667	0.27	Control	0.7143	0.004	No	2.779	-0.004	2.0	LatePress	0	0.277	136.944	1	13	Target	Neutral	True
137.944	0.3	Control	0.7143	0.004	No	2.779	-0.004	2.0	LatePress	0	0.277	n/a	1	13	ButtonPress	Neutral	True
137.951	0.43	Control	0.7143	n/a	No	2.779	n/a	n/a	LatePress	0	n/a	n/a	1	13	Blank	Neutral	True
138.369	1.45	Control	0.7143	n/a	No	2.779	n/a	5.0	LatePress	0	0.045	137.414	1	13	Feedback	Neutral	True
139.824	2.779	Control	0.7143	n/a	No	2.779	n/a	n/a	LatePress	0	0.0	n/a	1	13	ISIslide	Neutral	True
142.615	0.25	Win2	0.7333	0.001	Yes	2.685	0.015	n/a	GoodResponse	1	n/a	n/a	2	14	Cue	Win	True
142.866	4.1	Win2	0.7333	0.0	Yes	2.685	0.001	n/a	GoodResponse	1	n/a	n/a	2	14	Fixation	Win	True
146.962	0.26	Win2	0.7333	0.003	Yes	2.685	-0.003	2.0	GoodResponse	1	0.199	146.161	2	14	Target	Win	True
147.161	0.3	Win2	0.7333	0.003	Yes	2.685	-0.003	2.0	GoodResponse	1	0.199	n/a	2	14	ButtonPress	Win	True
147.229	0.44	Win2	0.7333	n/a	Yes	2.685	n/a	n/a	GoodResponse	1	n/a	n/a	2	14	Blank	Win	True
147.664	1.45	Win2	0.7333	n/a	Yes	2.685	n/a	5.0	GoodResponse	1	0.019	146.683	2	14	Feedback	Win	True
149.118	2.685	Win2	0.7333	n/a	Yes	2.685	n/a	n/a	GoodResponse	1	0.0	n/a	2	14	ISIslide	Win	True
151.826	0.25	Control	0.6875	0.0	No	2.974	0.026	n/a	NoResponse	0	n/a	n/a	2	15	Cue	Neutral	True
152.077	4.0	Control	0.6875	0.0	No	2.974	0.001	n/a	NoResponse	0	n/a	n/a	2	15	Fixation	Neutral	True
156.072	0.25	Control	0.6875	0.004	No	2.974	-0.004	2.0	NoResponse	0	0.266	155.338	2	15	Target	Neutral	True
156.323	0.45	Control	0.6875	n/a	No	2.974	n/a	n/a	NoResponse	0	n/a	n/a	2	15	Blank	Neutral	True
156.338	0.3	Control	0.6875	0.004	No	2.974	-0.004	2.0	NoResponse	0	0.266	n/a	2	15	ButtonPress	Neutral	True
156.775	1.45	Control	0.6875	n/a	No	2.974	n/a	5.0	NoResponse	0	0.03	155.805	2	15	Feedback	Neutral	True
158.229	2.974	Control	0.6875	n/a	No	2.974	n/a	n/a	NoResponse	0	0.0	n/a	2	15	ISIslide	Neutral	True
161.221	0.25	Win2	0.7059000000000001	0.0	Yes	2.879	0.021	n/a	GoodResponse	1	n/a	n/a	3	16	Cue	Win	True
161.472	4.0	Win2	0.7059000000000001	0.0	Yes	2.879	0.001	n/a	GoodResponse	1	n/a	n/a	3	16	Fixation	Win	True
165.467	0.24	Win2	0.7059000000000001	0.004	Yes	2.879	-0.004	2.0	GoodResponse	1	0.226	164.693	3	16	Target	Win	True
165.693	0.3	Win2	0.7059000000000001	0.004	Yes	2.879	-0.004	2.0	GoodResponse	1	0.226	n/a	3	16	ButtonPress	Win	True
165.718	0.46	Win2	0.7059000000000001	n/a	Yes	2.879	n/a	n/a	GoodResponse	1	n/a	n/a	3	16	Blank	Win	True
166.169	1.45	Win2	0.7059000000000001	n/a	Yes	2.879	n/a	5.0	GoodResponse	1	0.002	165.171	3	16	Feedback	Win	True
167.624	2.879	Win2	0.7059000000000001	n/a	Yes	2.879	n/a	n/a	GoodResponse	1	0.0	n/a	3	16	ISIslide	Win	True
170.516	0.25	Lose2	0.7222	0.0	Yes	2.734	0.016	n/a	GoodResponse	0	n/a	n/a	3	17	Cue	AvoidedLoss	True
170.767	3.95	Lose2	0.7222	0.0	Yes	2.734	0.001	n/a	GoodResponse	0	n/a	n/a	3	17	Fixation	AvoidedLoss	True
174.712	0.23	Lose2	0.7222	0.004	Yes	2.734	-0.004	2.0	GoodResponse	0	0.193	173.905	3	17	Target	AvoidedLoss	True
174.905	0.3	Lose2	0.7222	0.004	Yes	2.734	-0.004	2.0	GoodResponse	0	0.193	n/a	3	17	ButtonPress	AvoidedLoss	True
174.946	0.47	Lose2	0.7222	n/a	Yes	2.734	n/a	n/a	GoodResponse	0	n/a	n/a	3	17	Blank	AvoidedLoss	True
175.414	1.45	Lose2	0.7222	n/a	Yes	2.734	n/a	5.0	GoodResponse	0	0.025	174.439	3	17	Feedback	AvoidedLoss	True
176.868	2.734	Lose2	0.7222	n/a	Yes	2.734	n/a	n/a	GoodResponse	0	0.0	n/a	3	17	ISIslide	AvoidedLoss	True
179.626	0.25	Lose2	0.7368000000000001	0.001	Yes	2.724	0.026	n/a	GoodResponse	0	n/a	n/a	3	18	Cue	AvoidedLoss	True
179.877	4.05	Lose2	0.7368000000000001	0.0	Yes	2.724	0.001	n/a	GoodResponse	0	n/a	n/a	3	18	Fixation	AvoidedLoss	True
183.923	0.22	Lose2	0.7368000000000001	0.003	Yes	2.724	-0.003	2.0	GoodResponse	0	0.208	183.131	3	18	Target	AvoidedLoss	True
184.131	0.3	Lose2	0.7368000000000001	0.003	Yes	2.724	-0.003	2.0	GoodResponse	0	0.208	n/a	3	18	ButtonPress	AvoidedLoss	True
184.157	0.48	Lose2	0.7368000000000001	n/a	Yes	2.724	n/a	n/a	GoodResponse	0	n/a	n/a	3	18	Blank	AvoidedLoss	True
184.625	1.45	Lose2	0.7368000000000001	n/a	Yes	2.724	n/a	5.0	GoodResponse	0	0.034	183.659	3	18	Feedback	AvoidedLoss	True
186.079	2.724	Lose2	0.7368000000000001	n/a	Yes	2.724	n/a	2.0	GoodResponse	0	1.218	n/a	3	18	ISIslide	AvoidedLoss	True
188.804	0.25	Control	0.7	0.0	No	2.946	0.004	n/a	NoResponse	0	n/a	n/a	3	19	Cue	Neutral	True
189.055	3.95	Control	0.7	0.0	No	2.946	0.001	2.0	NoResponse	0	3.548	191.603	3	19	Fixation	Neutral	True
192.603	0.3	Control	0.7	0.0	No	2.946	0.001	2.0	NoResponse	0	3.548	n/a	3	19	ButtonPress	Neutral	True
193	0.21	Control	0.7	0.004	No	2.946	-0.004	n/a	NoResponse	0	n/a	n/a	3	19	Target	Neutral	True
193.217	0.49	Control	0.7	n/a	No	2.946	n/a	n/a	NoResponse	0	n/a	n/a	3	19	Blank	Neutral	True
193.702	1.45	Control	0.7	n/a	No	2.946	n/a	5.0	NoResponse	0	0.029	192.731	3	19	Feedback	Neutral	True
195.156	2.946	Control	0.7	n/a	No	2.946	n/a	2.0	NoResponse	0	1.382	n/a	3	19	ISIslide	Neutral	True
198.099	0.25	Control	0.7143	0.0	Yes	2.651	-0.001	n/a	GoodResponse	0	n/a	n/a	3	20	Cue	Neutral	True
198.349	4.05	Control	0.7143	0.0	Yes	2.651	0.0	n/a	GoodResponse	0	n/a	n/a	3	20	Fixation	Neutral	True
202.395	0.2	Control	0.7143	0.004	Yes	2.651	-0.004	2.0	GoodResponse	0	0.188	201.583	3	20	Target	Neutral	True
202.583	0.3	Control	0.7143	0.004	Yes	2.651	-0.004	2.0	GoodResponse	0	0.188	n/a	3	20	ButtonPress	Neutral	True
202.595	0.5	Control	0.7143	n/a	Yes	2.651	n/a	n/a	GoodResponse	0	n/a	n/a	3	20	Blank	Neutral	True
203.097	1.45	Control	0.7143	n/a	Yes	2.651	n/a	5.0	GoodResponse	0	0.0	202.097	3	20	Feedback	Neutral	True
204.551	2.651	Control	0.7143	n/a	Yes	2.651	n/a	n/a	GoodResponse	0	0.0	n/a	3	20	ISIslide	Neutral	True
207.226	0.25	Control	0.6818000000000001	0.0	No	2.774	0.026	n/a	NoResponse	0	n/a	n/a	3	21	Cue	Neutral	True
207.477	4.1	Control	0.6818000000000001	0.0	No	2.774	0.001	n/a	NoResponse	0	n/a	n/a	3	21	Fixation	Neutral	True
211.572	0.19	Control	0.6818000000000001	0.004	No	2.774	-0.004	2.0	NoResponse	0	0.382	210.954	3	21	Target	Neutral	True
211.773	0.51	Control	0.6818000000000001	n/a	No	2.774	n/a	n/a	NoResponse	0	n/a	n/a	3	21	Blank	Neutral	True
211.954	0.3	Control	0.6818000000000001	0.004	No	2.774	-0.004	2.0	NoResponse	0	0.382	n/a	3	21	ButtonPress	Neutral	True
212.274	1.45	Control	0.6818000000000001	n/a	No	2.774	n/a	5.0	NoResponse	0	0.043	211.317	3	21	Feedback	Neutral	True
213.729	2.774	Control	0.6818000000000001	n/a	No	2.774	n/a	n/a	NoResponse	0	0.0	n/a	3	21	ISIslide	Neutral	True
216.52	0.25	Control	0.6522	0.001	No	2.78	0.02	n/a	NoResponse	0	n/a	n/a	3	22	Cue	Neutral	True
216.771	4.0	Control	0.6522	0.0	No	2.78	0.001	n/a	NoResponse	0	n/a	n/a	3	22	Fixation	Neutral	True
220.767	0.18	Control	0.6522	0.003	No	2.78	-0.003	2.0	NoResponse	0	0.343	220.11	3	22	Target	Neutral	True
220.95	0.52	Control	0.6522	n/a	No	2.78	n/a	n/a	NoResponse	0	n/a	n/a	3	22	Blank	Neutral	True
221.11	0.3	Control	0.6522	0.003	No	2.78	-0.003	2.0	NoResponse	0	0.343	n/a	3	22	ButtonPress	Neutral	True
221.469	1.45	Control	0.6522	n/a	No	2.78	n/a	5.0	NoResponse	0	0.018	220.487	3	22	Feedback	Neutral	True
222.923	2.78	Control	0.6522	n/a	No	2.78	n/a	n/a	NoResponse	0	0.0	n/a	3	22	ISIslide	Neutral	True
225.715	0.25	Control	0.625	0.0	No	2.785	0.015	n/a	NoResponse	0	n/a	n/a	3	23	Cue	Neutral	True
225.965	3.9	Control	0.625	0.001	No	2.785	0.0	n/a	NoResponse	0	n/a	n/a	3	23	Fixation	Neutral	True
229.877	0.19	Control	0.625	0.0	No	2.785	0.012	2.0	NoResponse	0	0.291	229.168	3	23	Target	Neutral	True
230.061	0.51	Control	0.625	n/a	No	2.785	n/a	n/a	NoResponse	0	n/a	n/a	3	23	Blank	Neutral	True
230.168	0.3	Control	0.625	0.0	No	2.785	0.012	2.0	NoResponse	0	0.291	n/a	3	23	ButtonPress	Neutral	True
230.563	1.45	Control	0.625	n/a	No	2.785	n/a	5.0	NoResponse	0	0.046	229.609	3	23	Feedback	Neutral	True
232.017	2.785	Control	0.625	n/a	No	2.785	n/a	n/a	NoResponse	0	0.0	n/a	3	23	ISIslide	Neutral	True
234.825	0.25	Win2	0.6	0.001	No	3.125	0.025	n/a	NoResponse	0	n/a	n/a	3	24	Cue	MissedWin	True
235.076	3.95	Win2	0.6	0.0	No	3.125	0.001	n/a	NoResponse	0	n/a	n/a	3	24	Fixation	MissedWin	True
239.021	0.2	Win2	0.6	0.004	No	3.125	-0.004	2.0	NoResponse	0	0.25	238.271	3	24	Target	MissedWin	True
239.222	0.5	Win2	0.6	n/a	No	3.125	n/a	n/a	NoResponse	0	n/a	n/a	3	24	Blank	MissedWin	True
239.271	0.3	Win2	0.6	0.004	No	3.125	-0.004	2.0	NoResponse	0	0.25	n/a	3	24	ButtonPress	MissedWin	True
239.723	1.45	Win2	0.6	n/a	No	3.125	n/a	5.0	NoResponse	0	0.008	238.731	3	24	Feedback	MissedWin	True
241.178	3.125	Win2	0.6	n/a	No	3.125	n/a	n/a	NoResponse	0	0.0	n/a	3	24	ISIslide	MissedWin	True
244.321	0.25	Win2	0.5769	0.0	No	3.079	0.021	n/a	NoResponse	0	n/a	n/a	3	25	Cue	MissedWin	True
244.571	4.0	Win2	0.5769	0.0	No	3.079	0.0	n/a	NoResponse	0	n/a	n/a	3	25	Fixation	MissedWin	True
248.567	0.21	Win2	0.5769	0.004	No	3.079	-0.004	2.0	NoResponse	0	0.224	247.791	3	25	Target	MissedWin	True
248.784	0.49	Win2	0.5769	n/a	No	3.079	n/a	n/a	NoResponse	0	n/a	n/a	3	25	Blank	MissedWin	True
248.791	0.3	Win2	0.5769	0.004	No	3.079	-0.004	2.0	NoResponse	0	0.224	n/a	3	25	ButtonPress	MissedWin	True
249.269	1.45	Win2	0.5769	n/a	No	3.079	n/a	5.0	NoResponse	0	0.024	248.293	3	25	Feedback	MissedWin	True
250.723	3.079	Win2	0.5769	n/a	No	3.079	n/a	n/a	NoResponse	0	0.0	n/a	3	25	ISIslide	MissedWin	True
253.816	0.25	Win2	0.5926	0.0	Yes	2.934	0.016	n/a	GoodResponse	1	n/a	n/a	4	26	Cue	Win	True
254.066	3.95	Win2	0.5926	0.001	Yes	2.934	0.0	n/a	GoodResponse	1	n/a	n/a	4	26	Fixation	Win	True
258.012	0.22	Win2	0.5926	0.004	Yes	2.934	-0.004	2.0	GoodResponse	1	0.192	257.204	4	26	Target	Win	True
258.204	0.3	Win2	0.5926	0.004	Yes	2.934	-0.004	2.0	GoodResponse	1	0.192	n/a	4	26	ButtonPress	Win	True
258.246	0.48	Win2	0.5926	n/a	Yes	2.934	n/a	n/a	GoodResponse	1	n/a	n/a	4	26	Blank	Win	True
258.714	1.45	Win2	0.5926	n/a	Yes	2.934	n/a	5.0	GoodResponse	1	0.042	257.756	4	26	Feedback	Win	True
260.168	2.934	Win2	0.5926	n/a	Yes	2.934	n/a	n/a	GoodResponse	1	0.0	n/a	4	26	ISIslide	Win	True
263.127	0.25	Lose2	0.6071	0.0	Yes	2.823	0.027	n/a	GoodResponse	0	n/a	n/a	4	27	Cue	AvoidedLoss	True
263.378	4.05	Lose2	0.6071	0.0	Yes	2.823	0.001	n/a	GoodResponse	0	n/a	n/a	4	27	Fixation	AvoidedLoss	True
267.423	0.23	Lose2	0.6071	0.004	Yes	2.823	-0.004	2.0	GoodResponse	0	0.177	266.6	4	27	Target	AvoidedLoss	True
267.6	0.3	Lose2	0.6071	0.004	Yes	2.823	-0.004	2.0	GoodResponse	0	0.177	n/a	4	27	ButtonPress	AvoidedLoss	True
267.657	0.47	Lose2	0.6071	n/a	Yes	2.823	n/a	n/a	GoodResponse	0	n/a	n/a	4	27	Blank	AvoidedLoss	True
268.125	1.45	Lose2	0.6071	n/a	Yes	2.823	n/a	5.0	GoodResponse	0	0.045	267.17	4	27	Feedback	AvoidedLoss	True
269.58	2.823	Lose2	0.6071	n/a	Yes	2.823	n/a	n/a	GoodResponse	0	0.0	n/a	4	27	ISIslide	AvoidedLoss	True
272.422	0.25	Control	0.6207	0.0	Yes	2.828	0.022	n/a	GoodResponse	0	n/a	n/a	4	28	Cue	Neutral	True
272.672	4.05	Control	0.6207	0.0	Yes	2.828	0.0	n/a	GoodResponse	0	n/a	n/a	4	28	Fixation	Neutral	True
276.718	0.24	Control	0.6207	0.004	Yes	2.828	-0.004	2.0	GoodResponse	0	0.16	275.878	4	28	Target	Neutral	True
276.878	0.3	Control	0.6207	0.004	Yes	2.828	-0.004	2.0	GoodResponse	0	0.16	n/a	4	28	ButtonPress	Neutral	True
276.968	0.46	Control	0.6207	n/a	Yes	2.828	n/a	n/a	GoodResponse	0	n/a	n/a	4	28	Blank	Neutral	True
277.42	1.45	Control	0.6207	n/a	Yes	2.828	n/a	5.0	GoodResponse	0	0.018	276.438	4	28	Feedback	Neutral	True
278.874	2.828	Control	0.6207	n/a	Yes	2.828	n/a	n/a	GoodResponse	0	0.0	n/a	4	28	ISIslide	Neutral	True
281.716	0.25	Lose2	0.6333	0.0	Yes	2.834	0.016	n/a	GoodResponse	0	n/a	n/a	4	29	Cue	AvoidedLoss	True
281.967	3.95	Lose2	0.6333	0.0	Yes	2.834	0.001	n/a	GoodResponse	0	n/a	n/a	4	29	Fixation	AvoidedLoss	True
285.912	0.25	Lose2	0.6333	0.004	Yes	2.834	-0.004	2.0	GoodResponse	0	0.177	285.089	4	29	Target	AvoidedLoss	True
286.089	0.3	Lose2	0.6333	0.004	Yes	2.834	-0.004	2.0	GoodResponse	0	0.177	n/a	4	29	ButtonPress	AvoidedLoss	True
286.163	0.45	Lose2	0.6333	n/a	Yes	2.834	n/a	n/a	GoodResponse	0	n/a	n/a	4	29	Blank	AvoidedLoss	True
286.614	1.45	Lose2	0.6333	n/a	Yes	2.834	n/a	5.0	GoodResponse	0	0.044	285.658	4	29	Feedback	AvoidedLoss	True
288.068	2.834	Lose2	0.6333	n/a	Yes	2.834	n/a	n/a	GoodResponse	0	0.0	n/a	4	29	ISIslide	AvoidedLoss	True
290.927	0.25	Win2	0.6452	0.0	Yes	2.773	0.027	n/a	GoodResponse	1	n/a	n/a	5	30	Cue	Win	True
291.178	3.9	Win2	0.6452	0.0	Yes	2.773	0.001	n/a	GoodResponse	1	n/a	n/a	5	30	Fixation	Win	True
295.073	0.26	Win2	0.6452	0.004	Yes	2.773	-0.004	2.0	GoodResponse	1	0.179	294.252	5	30	Target	Win	True
295.252	0.3	Win2	0.6452	0.004	Yes	2.773	-0.004	2.0	GoodResponse	1	0.179	n/a	5	30	ButtonPress	Win	True
295.34	0.44	Win2	0.6452	n/a	Yes	2.773	n/a	n/a	GoodResponse	1	n/a	n/a	5	30	Blank	Win	True
295.775	1.45	Win2	0.6452	n/a	Yes	2.773	n/a	5.0	GoodResponse	1	0.005	294.78	5	30	Feedback	Win	True
297.229	2.773	Win2	0.6452	n/a	Yes	2.773	n/a	n/a	GoodResponse	1	0.0	n/a	5	30	ISIslide	Win	True
300.021	0.25	Lose2	0.6562	0.0	Yes	2.829	0.021	n/a	GoodResponse	0	n/a	n/a	5	31	Cue	AvoidedLoss	True
300.272	4.05	Lose2	0.6562	0.0	Yes	2.829	0.001	n/a	GoodResponse	0	n/a	n/a	5	31	Fixation	AvoidedLoss	True
304.317	0.27	Lose2	0.6562	0.004	Yes	2.829	-0.004	2.0	GoodResponse	0	0.153	303.47	5	31	Target	AvoidedLoss	True
304.47	0.3	Lose2	0.6562	0.004	Yes	2.829	-0.004	2.0	GoodResponse	0	0.153	n/a	5	31	ButtonPress	AvoidedLoss	True
304.601	0.43	Lose2	0.6562	n/a	Yes	2.829	n/a	n/a	GoodResponse	0	n/a	n/a	5	31	Blank	AvoidedLoss	True
305.019	1.45	Lose2	0.6562	n/a	Yes	2.829	n/a	5.0	GoodResponse	0	0.029	304.048	5	31	Feedback	AvoidedLoss	True
306.474	2.829	Lose2	0.6562	n/a	Yes	2.829	n/a	n/a	GoodResponse	0	0.0	n/a	5	31	ISIslide	AvoidedLoss	True
309.316	0.25	Lose2	0.6667000000000001	0.0	Yes	2.634	0.016	n/a	GoodResponse	0	n/a	n/a	5	32	Cue	AvoidedLoss	True
309.566	4.15	Lose2	0.6667000000000001	0.0	Yes	2.634	0.0	n/a	GoodResponse	0	n/a	n/a	5	32	Fixation	AvoidedLoss	True
313.712	0.27	Lose2	0.6667000000000001	0.004	Yes	2.634	-0.004	2.0	GoodResponse	0	0.248	312.96	5	32	Target	AvoidedLoss	True
313.96	0.3	Lose2	0.6667000000000001	0.004	Yes	2.634	-0.004	2.0	GoodResponse	0	0.248	n/a	5	32	ButtonPress	AvoidedLoss	True
313.996	0.43	Lose2	0.6667000000000001	n/a	Yes	2.634	n/a	n/a	GoodResponse	0	n/a	n/a	5	32	Blank	AvoidedLoss	True
314.414	1.45	Lose2	0.6667000000000001	n/a	Yes	2.634	n/a	5.0	GoodResponse	0	0.049	313.463	5	32	Feedback	AvoidedLoss	True
315.869	2.634	Lose2	0.6667000000000001	n/a	Yes	2.634	n/a	n/a	GoodResponse	0	0.0	n/a	5	32	ISIslide	AvoidedLoss	True
318.526	0.25	Win2	0.6765000000000001	0.001	Yes	2.674	0.026	n/a	GoodResponse	1	n/a	n/a	6	33	Cue	Win	True
318.777	4.0	Win2	0.6765000000000001	0.0	Yes	2.674	0.001	n/a	GoodResponse	1	n/a	n/a	6	33	Fixation	Win	True
322.773	0.26	Win2	0.6765000000000001	0.003	Yes	2.674	-0.003	2.0	GoodResponse	1	0.237	322.01	6	33	Target	Win	True
323.01	0.3	Win2	0.6765000000000001	0.003	Yes	2.674	-0.003	2.0	GoodResponse	1	0.237	n/a	6	33	ButtonPress	Win	True
323.04	0.44	Win2	0.6765000000000001	n/a	Yes	2.674	n/a	n/a	GoodResponse	1	n/a	n/a	6	33	Blank	Win	True
323.475	1.45	Win2	0.6765000000000001	n/a	Yes	2.674	n/a	5.0	GoodResponse	1	0.012	322.487	6	33	Feedback	Win	True
324.929	2.674	Win2	0.6765000000000001	n/a	Yes	2.674	n/a	n/a	GoodResponse	1	0.0	n/a	6	33	ISIslide	Win	True
327.62	0.25	Lose2	0.6857	0.001	Yes	2.63	0.02	n/a	GoodResponse	0	n/a	n/a	6	34	Cue	AvoidedLoss	True
327.871	4.05	Lose2	0.6857	0.0	Yes	2.63	0.001	n/a	GoodResponse	0	n/a	n/a	6	34	Fixation	AvoidedLoss	True
331.917	0.25	Lose2	0.6857	0.003	Yes	2.63	-0.003	2.0	GoodResponse	0	0.223	331.14	6	34	Target	AvoidedLoss	True
332.14	0.3	Lose2	0.6857	0.003	Yes	2.63	-0.003	2.0	GoodResponse	0	0.223	n/a	6	34	ButtonPress	AvoidedLoss	True
332.167	0.45	Lose2	0.6857	n/a	Yes	2.63	n/a	n/a	GoodResponse	0	n/a	n/a	6	34	Blank	AvoidedLoss	True
332.619	1.45	Lose2	0.6857	n/a	Yes	2.63	n/a	5.0	GoodResponse	0	0.039	331.658	6	34	Feedback	AvoidedLoss	True
334.073	2.63	Lose2	0.6857	n/a	Yes	2.63	n/a	n/a	GoodResponse	0	0.0	n/a	6	34	ISIslide	AvoidedLoss	True
336.714	0.25	Lose2	0.6944	0.0	Yes	2.686	0.014	n/a	GoodResponse	0	n/a	n/a	6	35	Cue	AvoidedLoss	True
336.965	4.0	Lose2	0.6944	0.0	Yes	2.686	0.001	n/a	GoodResponse	0	n/a	n/a	6	35	Fixation	AvoidedLoss	True
340.96	0.24	Lose2	0.6944	0.004	Yes	2.686	-0.004	2.0	GoodResponse	0	0.194	340.154	6	35	Target	AvoidedLoss	True
341.154	0.3	Lose2	0.6944	0.004	Yes	2.686	-0.004	2.0	GoodResponse	0	0.194	n/a	6	35	ButtonPress	AvoidedLoss	True
341.211	0.46	Lose2	0.6944	n/a	Yes	2.686	n/a	n/a	GoodResponse	0	n/a	n/a	6	35	Blank	AvoidedLoss	True
341.663	1.45	Lose2	0.6944	n/a	Yes	2.686	n/a	5.0	GoodResponse	0	0.019	340.682	6	35	Feedback	AvoidedLoss	True
343.117	2.686	Lose2	0.6944	n/a	Yes	2.686	n/a	n/a	GoodResponse	0	0.0	n/a	6	35	ISIslide	AvoidedLoss	True
345.825	0.25	Control	0.6757	0.0	No	2.675	0.025	n/a	NoResponse	0	n/a	n/a	6	36	Cue	Neutral	True
346.076	4.0	Control	0.6757	0.0	No	2.675	0.001	n/a	NoResponse	0	n/a	n/a	6	36	Fixation	Neutral	True
350.071	0.23	Control	0.6757	0.004	No	2.675	-0.004	2.0	NoResponse	0	0.24	349.311	6	36	Target	Neutral	True
350.305	0.47	Control	0.6757	n/a	No	2.675	n/a	n/a	NoResponse	0	n/a	n/a	6	36	Blank	Neutral	True
350.311	0.3	Control	0.6757	0.004	No	2.675	-0.004	2.0	NoResponse	0	0.24	n/a	6	36	ButtonPress	Neutral	True
350.773	1.45	Control	0.6757	n/a	No	2.675	n/a	5.0	NoResponse	0	0.031	349.804	6	36	Feedback	Neutral	True
352.228	2.675	Control	0.6757	n/a	No	2.675	n/a	n/a	NoResponse	0	0.0	n/a	6	36	ISIslide	Neutral	True
354.919	0.25	Win2	0.6842	0.0	Yes	2.881	0.019	n/a	GoodResponse	1	n/a	n/a	7	37	Cue	Win	True
355.17	4.0	Win2	0.6842	0.0	Yes	2.881	0.001	n/a	GoodResponse	1	n/a	n/a	7	37	Fixation	Win	True
359.165	0.22	Win2	0.6842	0.004	Yes	2.881	-0.004	2.0	GoodResponse	1	0.187	358.352	7	37	Target	Win	True
359.352	0.3	Win2	0.6842	0.004	Yes	2.881	-0.004	2.0	GoodResponse	1	0.187	n/a	7	37	ButtonPress	Win	True
359.399	0.48	Win2	0.6842	n/a	Yes	2.881	n/a	n/a	GoodResponse	1	n/a	n/a	7	37	Blank	Win	True
359.867	1.45	Win2	0.6842	n/a	Yes	2.881	n/a	5.0	GoodResponse	1	0.01	358.877	7	37	Feedback	Win	True
361.322	2.881	Win2	0.6842	n/a	Yes	2.881	n/a	n/a	GoodResponse	1	0.0	n/a	7	37	ISIslide	Win	True
364.214	0.25	Lose2	0.6923	0.0	Yes	2.836	0.014	n/a	GoodResponse	0	n/a	n/a	7	38	Cue	AvoidedLoss	True
364.464	3.95	Lose2	0.6923	0.0	Yes	2.836	0.0	n/a	GoodResponse	0	n/a	n/a	7	38	Fixation	AvoidedLoss	True
368.409	0.21	Lose2	0.6923	0.005	Yes	2.836	-0.005	2.0	GoodResponse	0	0.197	367.606	7	38	Target	AvoidedLoss	True
368.606	0.3	Lose2	0.6923	0.005	Yes	2.836	-0.005	2.0	GoodResponse	0	0.197	n/a	7	38	ButtonPress	AvoidedLoss	True
368.627	0.49	Lose2	0.6923	n/a	Yes	2.836	n/a	n/a	GoodResponse	0	n/a	n/a	7	38	Blank	AvoidedLoss	True
369.112	1.45	Lose2	0.6923	n/a	Yes	2.836	n/a	5.0	GoodResponse	0	0.033	368.145	7	38	Feedback	AvoidedLoss	True
370.566	2.836	Lose2	0.6923	n/a	Yes	2.836	n/a	n/a	GoodResponse	0	0.0	n/a	7	38	ISIslide	AvoidedLoss	True
373.425	0.25	Win2	0.7	0.0	Yes	2.975	0.025	n/a	GoodResponse	1	n/a	n/a	8	39	Cue	Win	True
373.675	4.1	Win2	0.7	0.0	Yes	2.975	0.0	n/a	GoodResponse	1	n/a	n/a	8	39	Fixation	Win	True
377.771	0.2	Win2	0.7	0.004	Yes	2.975	-0.004	2.0	GoodResponse	1	0.183	376.954	8	39	Target	Win	True
377.954	0.3	Win2	0.7	0.004	Yes	2.975	-0.004	2.0	GoodResponse	1	0.183	n/a	8	39	ButtonPress	Win	True
377.971	0.5	Win2	0.7	n/a	Yes	2.975	n/a	n/a	GoodResponse	1	n/a	n/a	8	39	Blank	Win	True
378.473	1.45	Win2	0.7	n/a	Yes	2.975	n/a	5.0	GoodResponse	1	0.038	377.511	8	39	Feedback	Win	True
379.927	2.975	Win2	0.7	n/a	Yes	2.975	n/a	n/a	GoodResponse	1	0.0	n/a	8	39	ISIslide	Win	True
382.92	0.25	Win2	0.6829000000000001	0.0	No	2.73	0.02	n/a	LatePress	0	n/a	n/a	8	40	Cue	MissedWin	True
383.17	3.95	Win2	0.6829000000000001	0.0	No	2.73	0.0	n/a	LatePress	0	n/a	n/a	8	40	Fixation	MissedWin	True
387.116	0.19	Win2	0.6829000000000001	0.004	No	2.73	-0.004	2.0	LatePress	0	0.196	386.312	8	40	Target	MissedWin	True
387.312	0.3	Win2	0.6829000000000001	0.004	No	2.73	-0.004	2.0	LatePress	0	0.196	n/a	8	40	ButtonPress	MissedWin	True
387.316	0.51	Win2	0.6829000000000001	n/a	No	2.73	n/a	n/a	LatePress	0	n/a	n/a	8	40	Blank	MissedWin	True
387.818	1.45	Win2	0.6829000000000001	n/a	No	2.73	n/a	5.0	LatePress	0	0.011	386.829	8	40	Feedback	MissedWin	True
389.272	2.73	Win2	0.6829000000000001	n/a	No	2.73	n/a	n/a	LatePress	0	0.0	n/a	8	40	ISIslide	MissedWin	True
392.03	0.25	Win2	0.6905	0.0	Yes	2.77	0.03	n/a	GoodResponse	1	n/a	n/a	9	41	Cue	Win	True
392.281	3.9	Win2	0.6905	0.0	Yes	2.77	0.001	n/a	GoodResponse	1	n/a	n/a	9	41	Fixation	Win	True
396.176	0.18	Win2	0.6905	0.004	Yes	2.77	-0.004	2.0	GoodResponse	1	0.171	395.347	9	41	Target	Win	True
396.347	0.3	Win2	0.6905	0.004	Yes	2.77	-0.004	2.0	GoodResponse	1	0.171	n/a	9	41	ButtonPress	Win	True
396.36	0.52	Win2	0.6905	n/a	Yes	2.77	n/a	n/a	GoodResponse	1	n/a	n/a	9	41	Blank	Win	True
396.878	1.45	Win2	0.6905	n/a	Yes	2.77	n/a	5.0	GoodResponse	1	0.024	395.902	9	41	Feedback	Win	True
398.333	2.77	Win2	0.6905	n/a	Yes	2.77	n/a	n/a	GoodResponse	1	0.0	n/a	9	41	ISIslide	Win	True
401.124	0.25	Control	0.6744	0.0	No	2.926	0.024	n/a	NoResponse	0	n/a	n/a	9	42	Cue	Neutral	True
401.375	3.85	Control	0.6744	0.0	No	2.926	0.001	n/a	NoResponse	0	n/a	n/a	9	42	Fixation	Neutral	True
405.22	0.17	Control	0.6744	0.004	No	2.926	-0.004	2.0	NoResponse	0	0.233	404.453	9	42	Target	Neutral	True
405.404	0.53	Control	0.6744	n/a	No	2.926	n/a	n/a	NoResponse	0	n/a	n/a	9	42	Blank	Neutral	True
405.453	0.3	Control	0.6744	0.004	No	2.926	-0.004	2.0	NoResponse	0	0.233	n/a	9	42	ButtonPress	Neutral	True
405.922	1.45	Control	0.6744	n/a	No	2.926	n/a	5.0	NoResponse	0	0.004	404.926	9	42	Feedback	Neutral	True
407.376	2.926	Control	0.6744	n/a	No	2.926	n/a	n/a	NoResponse	0	0.0	n/a	9	42	ISIslide	Neutral	True
410.319	0.25	Win2	0.6591	0.0	No	3.181	0.019	n/a	NoResponse	0	n/a	n/a	9	43	Cue	MissedWin	True
410.569	4.0	Win2	0.6591	0.0	No	3.181	0.0	n/a	NoResponse	0	n/a	n/a	9	43	Fixation	MissedWin	True
414.565	0.16	Win2	0.6591	0.004	No	3.181	-0.004	2.0	NoResponse	0	0.189	413.754	9	43	Target	MissedWin	True
414.732	0.54	Win2	0.6591	n/a	No	3.181	n/a	n/a	NoResponse	0	n/a	n/a	9	43	Blank	MissedWin	True
414.754	0.3	Win2	0.6591	0.004	No	3.181	-0.004	2.0	NoResponse	0	0.189	n/a	9	43	ButtonPress	MissedWin	True
415.267	1.45	Win2	0.6591	n/a	No	3.181	n/a	5.0	NoResponse	0	0.024	414.291	9	43	Feedback	MissedWin	True
416.721	3.181	Win2	0.6591	n/a	No	3.181	n/a	n/a	NoResponse	0	0.0	n/a	9	43	ISIslide	MissedWin	True
419.914	0.25	Win2	0.6444	0.0	No	2.986	0.014	n/a	NoResponse	0	n/a	n/a	9	44	Cue	MissedWin	True
420.165	4.0	Win2	0.6444	0.0	No	2.986	0.001	n/a	NoResponse	0	n/a	n/a	9	44	Fixation	MissedWin	True
424.16	0.16	Win2	0.6444	0.004	No	2.986	-0.004	2.0	NoResponse	0	0.183	423.343	9	44	Target	MissedWin	True
424.327	0.54	Win2	0.6444	n/a	No	2.986	n/a	n/a	NoResponse	0	n/a	n/a	9	44	Blank	MissedWin	True
424.343	0.3	Win2	0.6444	0.004	No	2.986	-0.004	2.0	NoResponse	0	0.183	n/a	9	44	ButtonPress	MissedWin	True
424.862	1.45	Win2	0.6444	n/a	No	2.986	n/a	5.0	NoResponse	0	0.039	423.901	9	44	Feedback	MissedWin	True
426.317	2.986	Win2	0.6444	n/a	No	2.986	n/a	n/a	NoResponse	0	0.0	n/a	9	44	ISIslide	MissedWin	True
429.326	0.25	Control	0.6304	0.0	No	2.874	0.026	n/a	NoResponse	0	n/a	n/a	9	45	Cue	Neutral	True
429.576	4.1	Control	0.6304	0.0	No	2.874	0.0	n/a	NoResponse	0	n/a	n/a	9	45	Fixation	Neutral	True
433.672	0.17	Control	0.6304	0.004	No	2.874	-0.004	2.0	NoResponse	0	0.233	432.905	9	45	Target	Neutral	True
433.856	0.53	Control	0.6304	n/a	No	2.874	n/a	n/a	NoResponse	0	n/a	n/a	9	45	Blank	Neutral	True
433.905	0.3	Control	0.6304	0.004	No	2.874	-0.004	2.0	NoResponse	0	0.233	n/a	9	45	ButtonPress	Neutral	True
434.374	1.45	Control	0.6304	n/a	No	2.874	n/a	5.0	NoResponse	0	0.039	433.413	9	45	Feedback	Neutral	True
435.828	2.874	Control	0.6304	n/a	No	2.874	n/a	n/a	NoResponse	0	0.0	n/a	9	45	ISIslide	Neutral	True
438.72	0.25	Lose2	0.617	0.0	No	3.38	0.02	n/a	NoResponse	-1	n/a	n/a	8	46	Cue	Loss	True
438.971	4.0	Lose2	0.617	0.0	No	3.38	0.001	2.0	NoResponse	-1	3.513	441.484	8	46	Fixation	Loss	True
442.484	0.3	Lose2	0.617	0.0	No	3.38	0.001	2.0	NoResponse	-1	3.513	n/a	8	46	ButtonPress	Loss	True
442.966	0.18	Lose2	0.617	0.004	No	3.38	-0.004	n/a	NoResponse	-1	n/a	n/a	8	46	Target	Loss	True
443.15	0.52	Lose2	0.617	n/a	No	3.38	n/a	n/a	NoResponse	-1	n/a	n/a	8	46	Blank	Loss	True
443.669	1.45	Lose2	0.617	n/a	No	3.38	n/a	5.0	NoResponse	-1	0.013	442.682	8	46	Feedback	Loss	True
445.123	3.38	Lose2	0.617	n/a	No	3.38	n/a	n/a	NoResponse	-1	0.0	n/a	8	46	ISIslide	Loss	True
448.516	0.25	Lose2	0.6042000000000001	0.001	No	2.684	0.016	n/a	LatePress	-1	n/a	n/a	7	47	Cue	Loss	True
448.767	4.0	Lose2	0.6042000000000001	0.0	No	2.684	0.001	n/a	LatePress	-1	n/a	n/a	7	47	Fixation	Loss	True
452.763	0.19	Lose2	0.6042000000000001	0.003	No	2.684	-0.003	2.0	LatePress	-1	0.193	451.956	7	47	Target	Loss	True
452.956	0.3	Lose2	0.6042000000000001	0.003	No	2.684	-0.003	2.0	LatePress	-1	0.193	n/a	7	47	ButtonPress	Loss	True
452.963	0.51	Lose2	0.6042000000000001	n/a	No	2.684	n/a	n/a	LatePress	-1	n/a	n/a	7	47	Blank	Loss	True
453.465	1.45	Lose2	0.6042000000000001	n/a	No	2.684	n/a	5.0	LatePress	-1	0.022	452.487	7	47	Feedback	Loss	True
454.919	2.684	Lose2	0.6042000000000001	n/a	No	2.684	n/a	n/a	LatePress	-1	0.0	n/a	7	47	ISIslide	Loss	True
457.627	0.25	Lose2	0.6122	0.0	Yes	3.023	0.027	n/a	GoodResponse	0	n/a	n/a	7	48	Cue	AvoidedLoss	False
457.878	3.95	Lose2	0.6122	0.0	Yes	3.023	0.001	2.0	GoodResponse	0	3.721	460.599	7	48	Fixation	AvoidedLoss	False
461.599	0.3	Lose2	0.6122	0.0	Yes	3.023	0.001	2.0	GoodResponse	0	3.721	n/a	7	48	ButtonPress	AvoidedLoss	False
461.823	0.2	Lose2	0.6122	0.004	Yes	3.023	-0.004	2.0	GoodResponse	0	0.177	461.0	7	48	Target	AvoidedLoss	False
462	0.3	Lose2	0.6122	0.004	Yes	3.023	-0.004	2.0	GoodResponse	0	0.177	n/a	7	48	ButtonPress	AvoidedLoss	False
462.024	0.5	Lose2	0.6122	n/a	Yes	3.023	n/a	n/a	GoodResponse	0	n/a	n/a	7	48	Blank	AvoidedLoss	False
462.525	1.45	Lose2	0.6122	n/a	Yes	3.023	n/a	5.0	GoodResponse	0	0.035	461.56	7	48	Feedback	AvoidedLoss	False
463.979	3.023	Lose2	0.6122	n/a	Yes	3.023	n/a	n/a	GoodResponse	0	0.0	n/a	7	48	ISIslide	AvoidedLoss	False
467.022	0.25	Control	0.6	0.0	No	2.878	0.022	n/a	NoResponse	0	n/a	n/a	7	49	Cue	Neutral	True
467.273	4.0	Control	0.6	0.0	No	2.878	0.001	n/a	NoResponse	0	n/a	n/a	7	49	Fixation	Neutral	True
471.268	0.21	Control	0.6	0.004	No	2.878	-0.004	2.0	NoResponse	0	0.267	470.535	7	49	Target	Neutral	True
471.485	0.49	Control	0.6	n/a	No	2.878	n/a	n/a	NoResponse	0	n/a	n/a	7	49	Blank	Neutral	True
471.535	0.3	Control	0.6	0.004	No	2.878	-0.004	2.0	NoResponse	0	0.267	n/a	7	49	ButtonPress	Neutral	True
471.97	1.45	Control	0.6	n/a	No	2.878	n/a	5.0	NoResponse	0	0.005	470.975	7	49	Feedback	Neutral	True
473.424	2.878	Control	0.6	n/a	No	2.878	n/a	n/a	NoResponse	0	0.0	n/a	7	49	ISIslide	Neutral	True
476.316	0.25	Control	0.6078	0.001	Yes	2.784	0.016	n/a	GoodResponse	0	n/a	n/a	7	50	Cue	Neutral	True
476.567	4.0	Control	0.6078	0.0	Yes	2.784	0.001	n/a	GoodResponse	0	n/a	n/a	7	50	Fixation	Neutral	True
480.563	0.22	Control	0.6078	0.003	Yes	2.784	-0.003	2.0	GoodResponse	0	0.216	479.779	7	50	Target	Neutral	True
480.779	0.3	Control	0.6078	0.003	Yes	2.784	-0.003	2.0	GoodResponse	0	0.216	n/a	7	50	ButtonPress	Neutral	True
480.797	0.48	Control	0.6078	n/a	Yes	2.784	n/a	n/a	GoodResponse	0	n/a	n/a	7	50	Blank	Neutral	True
481.265	1.45	Control	0.6078	n/a	Yes	2.784	n/a	5.0	GoodResponse	0	0.027	480.292	7	50	Feedback	Neutral	True
482.719	2.784	Control	0.6078	n/a	Yes	2.784	n/a	n/a	GoodResponse	0	0.0	n/a	7	50	ISIslide	Neutral	True
485.527	0.25	Control	0.5962	0.001	No	2.723	0.027	n/a	NoResponse	0	n/a	n/a	7	51	Cue	Neutral	True
485.778	3.95	Control	0.5962	0.0	No	2.723	0.001	n/a	NoResponse	0	n/a	n/a	7	51	Fixation	Neutral	True
489.723	0.23	Control	0.5962	0.004	No	2.723	-0.004	2.0	NoResponse	0	0.24	488.963	7	51	Target	Neutral	True
489.957	0.47	Control	0.5962	n/a	No	2.723	n/a	n/a	NoResponse	0	n/a	n/a	7	51	Blank	Neutral	True
489.963	0.3	Control	0.5962	0.004	No	2.723	-0.004	2.0	NoResponse	0	0.24	n/a	7	51	ButtonPress	Neutral	True
490.425	1.45	Control	0.5962	n/a	No	2.723	n/a	5.0	NoResponse	0	0.037	489.462	7	51	Feedback	Neutral	True
491.88	2.723	Control	0.5962	n/a	No	2.723	n/a	n/a	NoResponse	0	0.0	n/a	7	51	ISIslide	Neutral	True
494.621	0.25	Control	0.6038	0.0	Yes	2.629	0.021	n/a	GoodResponse	0	n/a	n/a	7	52	Cue	Neutral	True
494.872	4.05	Control	0.6038	0.0	Yes	2.629	0.001	n/a	GoodResponse	0	n/a	n/a	7	52	Fixation	Neutral	True
498.918	0.24	Control	0.6038	0.003	Yes	2.629	-0.003	2.0	GoodResponse	0	0.186	498.104	7	52	Target	Neutral	True
499.104	0.3	Control	0.6038	0.003	Yes	2.629	-0.003	2.0	GoodResponse	0	0.186	n/a	7	52	ButtonPress	Neutral	True
499.168	0.46	Control	0.6038	n/a	Yes	2.629	n/a	n/a	GoodResponse	0	n/a	n/a	7	52	Blank	Neutral	True
499.62	1.45	Control	0.6038	n/a	Yes	2.629	n/a	5.0	GoodResponse	0	0.013	498.633	7	52	Feedback	Neutral	True
501.074	2.629	Control	0.6038	n/a	Yes	2.629	n/a	n/a	GoodResponse	0	0.0	n/a	7	52	ISIslide	Neutral	True
503.715	0.25	Win2	0.6111	0.0	Yes	2.935	0.015	n/a	GoodResponse	1	n/a	n/a	8	53	Cue	Win	True
503.966	4.05	Win2	0.6111	0.0	Yes	2.935	0.001	n/a	GoodResponse	1	n/a	n/a	8	53	Fixation	Win	True
508.012	0.25	Win2	0.6111	0.003	Yes	2.935	-0.003	2.0	GoodResponse	1	0.187	507.199	8	53	Target	Win	True
508.199	0.3	Win2	0.6111	0.003	Yes	2.935	-0.003	2.0	GoodResponse	1	0.187	n/a	8	53	ButtonPress	Win	True
508.262	0.45	Win2	0.6111	n/a	Yes	2.935	n/a	n/a	GoodResponse	1	n/a	n/a	8	53	Blank	Win	True
508.714	1.45	Win2	0.6111	n/a	Yes	2.935	n/a	5.0	GoodResponse	1	0.041	507.755	8	53	Feedback	Win	True
510.168	2.935	Win2	0.6111	n/a	Yes	2.935	n/a	n/a	GoodResponse	1	0.0	n/a	8	53	ISIslide	Win	True
513.127	0.25	Win2	0.6182	0.0	Yes	2.723	0.027	n/a	GoodResponse	1	n/a	n/a	9	54	Cue	Win	True
513.378	3.95	Win2	0.6182	0.0	Yes	2.723	0.001	n/a	GoodResponse	1	n/a	n/a	9	54	Fixation	Win	True
517.323	0.26	Win2	0.6182	0.004	Yes	2.723	-0.004	2.0	GoodResponse	1	0.185	516.508	9	54	Target	Win	True
517.508	0.3	Win2	0.6182	0.004	Yes	2.723	-0.004	2.0	GoodResponse	1	0.185	n/a	9	54	ButtonPress	Win	True
517.59	0.44	Win2	0.6182	n/a	Yes	2.723	n/a	n/a	GoodResponse	1	n/a	n/a	9	54	Blank	Win	True
518.025	1.45	Win2	0.6182	n/a	Yes	2.723	n/a	5.0	GoodResponse	1	0.047	517.072	9	54	Feedback	Win	True
519.479	2.723	Win2	0.6182	n/a	Yes	2.723	n/a	n/a	GoodResponse	1	0.0	n/a	9	54	ISIslide	Win	True
522.221	0.25	Control	0.625	0.0	Yes	3.029	0.021	n/a	GoodResponse	0	n/a	n/a	9	55	Cue	Neutral	True
522.472	3.95	Control	0.625	0.0	Yes	3.029	0.001	n/a	GoodResponse	0	n/a	n/a	9	55	Fixation	Neutral	True
526.417	0.27	Control	0.625	0.004	Yes	3.029	-0.004	2.0	GoodResponse	0	0.258	525.675	9	55	Target	Neutral	True
526.675	0.3	Control	0.625	0.004	Yes	3.029	-0.004	2.0	GoodResponse	0	0.258	n/a	9	55	ButtonPress	Neutral	True
526.701	0.43	Control	0.625	n/a	Yes	3.029	n/a	n/a	GoodResponse	0	n/a	n/a	9	55	Blank	Neutral	True
527.119	1.45	Control	0.625	n/a	Yes	3.029	n/a	5.0	GoodResponse	0	0.026	526.145	9	55	Feedback	Neutral	True
528.573	3.029	Control	0.625	n/a	Yes	3.029	n/a	n/a	GoodResponse	0	0.0	n/a	9	55	ISIslide	Neutral	True
531.616	0.25	Control	0.614	0.0	No	2.834	0.016	n/a	NoResponse	0	n/a	n/a	9	56	Cue	Neutral	True
531.866	3.95	Control	0.614	0.001	No	2.834	0.0	n/a	NoResponse	0	n/a	n/a	9	56	Fixation	Neutral	True
535.812	0.28	Control	0.614	0.004	No	2.834	-0.004	2.0	NoResponse	0	0.295	535.107	9	56	Target	Neutral	True
536.096	0.42	Control	0.614	n/a	No	2.834	n/a	n/a	NoResponse	0	n/a	n/a	9	56	Blank	Neutral	True
536.107	0.3	Control	0.614	0.004	No	2.834	-0.004	2.0	NoResponse	0	0.295	n/a	9	56	ButtonPress	Neutral	True
536.514	1.45	Control	0.614	n/a	No	2.834	n/a	5.0	NoResponse	0	0.046	535.56	9	56	Feedback	Neutral	True
537.968	2.834	Control	0.614	n/a	No	2.834	n/a	n/a	NoResponse	0	0.0	n/a	9	56	ISIslide	Neutral	True
540.827	0.25	Control	0.6207	0.0	Yes	3.473	0.027	n/a	GoodResponse	0	n/a	n/a	9	57	Cue	Neutral	True
541.077	4.0	Control	0.6207	0.0	Yes	3.473	0.0	n/a	GoodResponse	0	n/a	n/a	9	57	Fixation	Neutral	True
545.073	0.29	Control	0.6207	0.004	Yes	3.473	-0.004	2.0	GoodResponse	0	0.21	544.283	9	57	Target	Neutral	True
545.283	0.3	Control	0.6207	0.004	Yes	3.473	-0.004	2.0	GoodResponse	0	0.21	n/a	9	57	ButtonPress	Neutral	True
545.374	0.41	Control	0.6207	n/a	Yes	3.473	n/a	n/a	GoodResponse	0	n/a	n/a	9	57	Blank	Neutral	True
545.775	1.45	Control	0.6207	n/a	Yes	3.473	n/a	5.0	GoodResponse	0	0.005	544.78	9	57	Feedback	Neutral	True
547.229	3.473	Control	0.6207	n/a	Yes	3.473	n/a	n/a	GoodResponse	0	0.0	n/a	9	57	ISIslide	Neutral	True
550.723	0.25	Win2	0.6271	0.0	Yes	2.727	0.023	n/a	GoodResponse	1	n/a	n/a	10	58	Cue	Win	False
550.974	4.05	Win2	0.6271	0.0	Yes	2.727	0.001	2.0	GoodResponse	1	3.969	553.943	10	58	Fixation	Win	False
554.943	0.3	Win2	0.6271	0.0	Yes	2.727	0.001	2.0	GoodResponse	1	3.969	n/a	10	58	ButtonPress	Win	False
555.019	0.3	Win2	0.6271	0.004	Yes	2.727	-0.004	2.0	GoodResponse	1	0.215	554.234	10	58	Target	Win	False
555.234	0.3	Win2	0.6271	0.004	Yes	2.727	-0.004	2.0	GoodResponse	1	0.215	n/a	10	58	ButtonPress	Win	False
555.32	0.4	Win2	0.6271	n/a	Yes	2.727	n/a	n/a	GoodResponse	1	n/a	n/a	10	58	Blank	Win	False
555.721	1.45	Win2	0.6271	n/a	Yes	2.727	n/a	5.0	GoodResponse	1	0.01	554.731	10	58	Feedback	Win	False
557.176	2.727	Win2	0.6271	n/a	Yes	2.727	n/a	n/a	GoodResponse	1	0.0	n/a	10	58	ISIslide	Win	False
559.917	0.25	Lose2	0.6333	0.0	Yes	2.683	0.017	n/a	GoodResponse	0	n/a	n/a	10	59	Cue	AvoidedLoss	True
560.168	4.0	Lose2	0.6333	0.0	Yes	2.683	0.001	n/a	GoodResponse	0	n/a	n/a	10	59	Fixation	AvoidedLoss	True
564.163	0.31	Lose2	0.6333	0.004	Yes	2.683	-0.004	2.0	GoodResponse	0	0.196	563.359	10	59	Target	AvoidedLoss	True
564.359	0.3	Lose2	0.6333	0.004	Yes	2.683	-0.004	2.0	GoodResponse	0	0.196	n/a	10	59	ButtonPress	AvoidedLoss	True
564.481	0.39	Lose2	0.6333	n/a	Yes	2.683	n/a	n/a	GoodResponse	0	n/a	n/a	10	59	Blank	AvoidedLoss	True
564.865	1.45	Lose2	0.6333	n/a	Yes	2.683	n/a	5.0	GoodResponse	0	0.036	563.901	10	59	Feedback	AvoidedLoss	True
566.32	2.683	Lose2	0.6333	n/a	Yes	2.683	n/a	n/a	GoodResponse	0	0.0	n/a	10	59	ISIslide	AvoidedLoss	True
569.028	0.25	Control	0.6393	0.0	Yes	2.672	0.028	n/a	GoodResponse	0	n/a	n/a	10	60	Cue	Neutral	True
569.279	4.0	Control	0.6393	0.0	Yes	2.672	0.001	n/a	GoodResponse	0	n/a	n/a	10	60	Fixation	Neutral	True
573.274	0.32	Control	0.6393	0.004	Yes	2.672	-0.004	2.0	GoodResponse	0	0.209	572.483	10	60	Target	Neutral	True
573.483	0.3	Control	0.6393	0.004	Yes	2.672	-0.004	2.0	GoodResponse	0	0.209	n/a	10	60	ButtonPress	Neutral	True
573.608	0.38	Control	0.6393	n/a	Yes	2.672	n/a	n/a	GoodResponse	0	n/a	n/a	10	60	Blank	Neutral	True
573.976	1.45	Control	0.6393	n/a	Yes	2.672	n/a	5.0	GoodResponse	0	0.047	573.023	10	60	Feedback	Neutral	True
575.43	2.672	Control	0.6393	n/a	Yes	2.672	n/a	n/a	GoodResponse	0	0.0	n/a	10	60	ISIslide	Neutral	True
578.122	0.25	Lose2	0.6452	0.0	Yes	2.978	0.022	n/a	GoodResponse	0	n/a	n/a	10	61	Cue	AvoidedLoss	False
578.373	4.0	Lose2	0.6452	0.0	Yes	2.978	0.001	2.0	GoodResponse	0	3.344	580.717	10	61	Fixation	AvoidedLoss	False
581.717	0.3	Lose2	0.6452	0.0	Yes	2.978	0.001	2.0	GoodResponse	0	3.344	n/a	10	61	ButtonPress	AvoidedLoss	False
582.368	0.33	Lose2	0.6452	0.004	Yes	2.978	-0.004	2.0	GoodResponse	0	0.205	581.573	10	61	Target	AvoidedLoss	False
582.573	0.3	Lose2	0.6452	0.004	Yes	2.978	-0.004	2.0	GoodResponse	0	0.205	n/a	10	61	ButtonPress	AvoidedLoss	False
582.702	0.37	Lose2	0.6452	n/a	Yes	2.978	n/a	n/a	GoodResponse	0	n/a	n/a	10	61	Blank	AvoidedLoss	False
583.07	1.45	Lose2	0.6452	n/a	Yes	2.978	n/a	5.0	GoodResponse	0	0.026	582.096	10	61	Feedback	AvoidedLoss	False
584.524	2.978	Lose2	0.6452	n/a	Yes	2.978	n/a	n/a	GoodResponse	0	0.0	n/a	10	61	ISIslide	AvoidedLoss	False
587.517	0.25	Lose2	0.6507999999999999	0.0	Yes	2.883	0.017	n/a	GoodResponse	0	n/a	n/a	10	62	Cue	AvoidedLoss	True
587.767	3.9	Lose2	0.6507999999999999	0.001	Yes	2.883	0.0	n/a	GoodResponse	0	n/a	n/a	10	62	Fixation	AvoidedLoss	True
591.679	0.34	Lose2	0.6507999999999999	0.0	Yes	2.883	0.012	2.0	GoodResponse	0	0.231	590.91	10	62	Target	AvoidedLoss	True
591.91	0.3	Lose2	0.6507999999999999	0.0	Yes	2.883	0.012	2.0	GoodResponse	0	0.231	n/a	10	62	ButtonPress	AvoidedLoss	True
592.014	0.36	Lose2	0.6507999999999999	n/a	Yes	2.883	n/a	n/a	GoodResponse	0	n/a	n/a	10	62	Blank	AvoidedLoss	True
592.365	1.45	Lose2	0.6507999999999999	n/a	Yes	2.883	n/a	5.0	GoodResponse	0	0.048	591.413	10	62	Feedback	AvoidedLoss	True
593.819	2.883	Lose2	0.6507999999999999	n/a	Yes	2.883	n/a	n/a	GoodResponse	0	0.0	n/a	10	62	ISIslide	AvoidedLoss	True
596.728	0.25	Lose2	0.6562	0.0	Yes	2.622	0.028	n/a	GoodResponse	0	n/a	n/a	10	63	Cue	AvoidedLoss	True
596.978	4.05	Lose2	0.6562	0.001	Yes	2.622	0.0	n/a	GoodResponse	0	n/a	n/a	10	63	Fixation	AvoidedLoss	True
601.024	0.35	Lose2	0.6562	0.004	Yes	2.622	-0.004	2.0	GoodResponse	0	0.177	600.201	10	63	Target	AvoidedLoss	True
601.201	0.3	Lose2	0.6562	0.004	Yes	2.622	-0.004	2.0	GoodResponse	0	0.177	n/a	10	63	ButtonPress	AvoidedLoss	True
601.375	0.35	Lose2	0.6562	n/a	Yes	2.622	n/a	n/a	GoodResponse	0	n/a	n/a	10	63	Blank	AvoidedLoss	True
601.726	1.45	Lose2	0.6562	n/a	Yes	2.622	n/a	5.0	GoodResponse	0	0.004	600.73	10	63	Feedback	AvoidedLoss	True
603.18	2.622	Lose2	0.6562	n/a	Yes	2.622	n/a	n/a	GoodResponse	0	0.0	n/a	10	63	ISIslide	AvoidedLoss	True
605.822	0.25	Win2	0.6615000000000001	0.0	Yes	3.128	0.022	n/a	GoodResponse	1	n/a	n/a	11	64	Cue	Win	True
606.072	4.15	Win2	0.6615000000000001	0.0	Yes	3.128	0.0	n/a	GoodResponse	1	n/a	n/a	11	64	Fixation	Win	True
610.218	0.35	Win2	0.6615000000000001	0.004	Yes	3.128	-0.004	2.0	GoodResponse	1	0.203	609.421	11	64	Target	Win	True
610.421	0.3	Win2	0.6615000000000001	0.004	Yes	3.128	-0.004	2.0	GoodResponse	1	0.203	n/a	11	64	ButtonPress	Win	True
610.569	0.35	Win2	0.6615000000000001	n/a	Yes	3.128	n/a	n/a	GoodResponse	1	n/a	n/a	11	64	Blank	Win	True
610.92	1.45	Win2	0.6615000000000001	n/a	Yes	3.128	n/a	5.0	GoodResponse	1	0.03	609.95	11	64	Feedback	Win	True
612.375	3.128	Win2	0.6615000000000001	n/a	Yes	3.128	n/a	n/a	GoodResponse	1	0.0	n/a	11	64	ISIslide	Win	True
615.517	0.25	Control	0.6667000000000001	0.0	Yes	2.783	0.017	n/a	GoodResponse	0	n/a	n/a	11	65	Cue	Neutral	True
615.768	4.0	Control	0.6667000000000001	0.0	Yes	2.783	0.001	n/a	GoodResponse	0	n/a	n/a	11	65	Fixation	Neutral	True
619.763	0.35	Control	0.6667000000000001	0.004	Yes	2.783	-0.004	2.0	GoodResponse	0	0.262	619.025	11	65	Target	Neutral	True
620.025	0.3	Control	0.6667000000000001	0.004	Yes	2.783	-0.004	2.0	GoodResponse	0	0.262	n/a	11	65	ButtonPress	Neutral	True
620.115	0.35	Control	0.6667000000000001	n/a	Yes	2.783	n/a	n/a	GoodResponse	0	n/a	n/a	11	65	Blank	Neutral	True
620.466	1.45	Control	0.6667000000000001	n/a	Yes	2.783	n/a	5.0	GoodResponse	0	0.045	619.511	11	65	Feedback	Neutral	True
621.92	2.783	Control	0.6667000000000001	n/a	Yes	2.783	n/a	n/a	GoodResponse	0	0.0	n/a	11	65	ISIslide	Neutral	True
624.728	0.25	Win2	0.6716	0.0	Yes	2.772	0.028	n/a	GoodResponse	1	n/a	n/a	12	66	Cue	Win	True
624.979	3.9	Win2	0.6716	0.0	Yes	2.772	0.001	n/a	GoodResponse	1	n/a	n/a	12	66	Fixation	Win	True
628.874	0.34	Win2	0.6716	0.004	Yes	2.772	-0.004	2.0	GoodResponse	1	0.132	628.006	12	66	Target	Win	True
629.006	0.3	Win2	0.6716	0.004	Yes	2.772	-0.004	2.0	GoodResponse	1	0.132	n/a	12	66	ButtonPress	Win	True
629.225	0.36	Win2	0.6716	n/a	Yes	2.772	n/a	n/a	GoodResponse	1	n/a	n/a	12	66	Blank	Win	True
629.576	1.45	Win2	0.6716	n/a	Yes	2.772	n/a	5.0	GoodResponse	1	0.008	628.584	12	66	Feedback	Win	True
631.031	2.772	Win2	0.6716	n/a	Yes	2.772	n/a	n/a	GoodResponse	1	0.0	n/a	12	66	ISIslide	Win	True
633.822	0.25	Control	0.6765000000000001	0.0	Yes	2.728	0.022	n/a	GoodResponse	0	n/a	n/a	12	67	Cue	Neutral	True
634.073	3.95	Control	0.6765000000000001	0.0	Yes	2.728	0.001	n/a	GoodResponse	0	n/a	n/a	12	67	Fixation	Neutral	True
638.018	0.33	Control	0.6765000000000001	0.004	Yes	2.728	-0.004	2.0	GoodResponse	0	0.278	637.296	12	67	Target	Neutral	True
638.296	0.3	Control	0.6765000000000001	0.004	Yes	2.728	-0.004	2.0	GoodResponse	0	0.278	n/a	12	67	ButtonPress	Neutral	True
638.353	0.37	Control	0.6765000000000001	n/a	Yes	2.728	n/a	n/a	GoodResponse	0	n/a	n/a	12	67	Blank	Neutral	True
638.72	1.45	Control	0.6765000000000001	n/a	Yes	2.728	n/a	5.0	GoodResponse	0	0.034	637.754	12	67	Feedback	Neutral	True
640.175	2.728	Control	0.6765000000000001	n/a	Yes	2.728	n/a	n/a	GoodResponse	0	0.0	n/a	12	67	ISIslide	Neutral	True
642.916	0.25	Win2	0.6812	0.0	Yes	3.084	0.016	n/a	GoodResponse	1	n/a	n/a	13	68	Cue	Win	True
643.167	4.0	Win2	0.6812	0.0	Yes	3.084	0.001	n/a	GoodResponse	1	n/a	n/a	13	68	Fixation	Win	True
647.162	0.32	Win2	0.6812	0.004	Yes	3.084	-0.004	2.0	GoodResponse	1	0.259	646.421	13	68	Target	Win	True
647.421	0.3	Win2	0.6812	0.004	Yes	3.084	-0.004	2.0	GoodResponse	1	0.259	n/a	13	68	ButtonPress	Win	True
647.497	0.38	Win2	0.6812	n/a	Yes	3.084	n/a	n/a	GoodResponse	1	n/a	n/a	13	68	Blank	Win	True
647.864	1.45	Win2	0.6812	n/a	Yes	3.084	n/a	5.0	GoodResponse	1	0.012	646.876	13	68	Feedback	Win	True
649.319	3.084	Win2	0.6812	n/a	Yes	3.084	n/a	n/a	GoodResponse	1	0.0	n/a	13	68	ISIslide	Win	True
652.428	0.25	Win2	0.6857	0.0	Yes	3.222	0.028	n/a	GoodResponse	1	n/a	n/a	14	69	Cue	Win	True
652.679	3.95	Win2	0.6857	0.0	Yes	3.222	0.001	n/a	GoodResponse	1	n/a	n/a	14	69	Fixation	Win	True
656.624	0.31	Win2	0.6857	0.004	Yes	3.222	-0.004	2.0	GoodResponse	1	0.205	655.829	14	69	Target	Win	True
656.829	0.3	Win2	0.6857	0.004	Yes	3.222	-0.004	2.0	GoodResponse	1	0.205	n/a	14	69	ButtonPress	Win	True
656.942	0.39	Win2	0.6857	n/a	Yes	3.222	n/a	n/a	GoodResponse	1	n/a	n/a	14	69	Blank	Win	True
657.326	1.45	Win2	0.6857	n/a	Yes	3.222	n/a	5.0	GoodResponse	1	0.014	656.34	14	69	Feedback	Win	True
658.781	3.222	Win2	0.6857	n/a	Yes	3.222	n/a	n/a	GoodResponse	1	0.0	n/a	14	69	ISIslide	Win	True
662.024	0.25	Lose2	0.6901	0.0	Yes	3.026	0.024	n/a	GoodResponse	0	n/a	n/a	14	70	Cue	AvoidedLoss	True
662.274	4.05	Lose2	0.6901	0.0	Yes	3.026	0.0	n/a	GoodResponse	0	n/a	n/a	14	70	Fixation	AvoidedLoss	True
666.32	0.3	Lose2	0.6901	0.004	Yes	3.026	-0.004	2.0	GoodResponse	0	0.186	665.506	14	70	Target	AvoidedLoss	True
666.506	0.3	Lose2	0.6901	0.004	Yes	3.026	-0.004	2.0	GoodResponse	0	0.186	n/a	14	70	ButtonPress	AvoidedLoss	True
666.621	0.4	Lose2	0.6901	n/a	Yes	3.026	n/a	n/a	GoodResponse	0	n/a	n/a	14	70	Blank	AvoidedLoss	True
667.022	1.45	Lose2	0.6901	n/a	Yes	3.026	n/a	5.0	GoodResponse	0	0.025	666.047	14	70	Feedback	AvoidedLoss	True
668.476	3.026	Lose2	0.6901	n/a	Yes	3.026	n/a	n/a	GoodResponse	0	0.0	n/a	14	70	ISIslide	AvoidedLoss	True
671.519	0.25	Win2	0.6944	0.0	Yes	2.731	0.019	n/a	GoodResponse	1	n/a	n/a	15	71	Cue	Win	True
671.769	4.05	Win2	0.6944	0.001	Yes	2.731	0.0	n/a	GoodResponse	1	n/a	n/a	15	71	Fixation	Win	True
675.815	0.29	Win2	0.6944	0.004	Yes	2.731	-0.004	2.0	GoodResponse	1	0.193	675.008	15	71	Target	Win	True
676.008	0.3	Win2	0.6944	0.004	Yes	2.731	-0.004	2.0	GoodResponse	1	0.193	n/a	15	71	ButtonPress	Win	True
676.116	0.41	Win2	0.6944	n/a	Yes	2.731	n/a	n/a	GoodResponse	1	n/a	n/a	15	71	Blank	Win	True
676.517	1.45	Win2	0.6944	n/a	Yes	2.731	n/a	5.0	GoodResponse	1	0.042	675.559	15	71	Feedback	Win	True
677.971	2.731	Win2	0.6944	n/a	Yes	2.731	n/a	n/a	GoodResponse	1	0.0	n/a	15	71	ISIslide	Win	True
680.73	0.25	Win2	0.6986	0.0	Yes	2.77	0.03	n/a	GoodResponse	1	n/a	n/a	16	72	Cue	Win	True
680.98	4.1	Win2	0.6986	0.001	Yes	2.77	0.0	n/a	GoodResponse	1	n/a	n/a	16	72	Fixation	Win	True
685.076	0.28	Win2	0.6986	0.004	Yes	2.77	-0.004	2.0	GoodResponse	1	0.238	684.314	16	72	Target	Win	True
685.314	0.3	Win2	0.6986	0.004	Yes	2.77	-0.004	2.0	GoodResponse	1	0.238	n/a	16	72	ButtonPress	Win	True
685.36	0.42	Win2	0.6986	n/a	Yes	2.77	n/a	n/a	GoodResponse	1	n/a	n/a	16	72	Blank	Win	True
685.778	1.45	Win2	0.6986	n/a	Yes	2.77	n/a	5.0	GoodResponse	1	0.001	684.779	16	72	Feedback	Win	True
687.233	2.77	Win2	0.6986	n/a	Yes	2.77	n/a	n/a	GoodResponse	1	0.0	n/a	16	72	ISIslide	Win	True
690.024	0.25	Win2	0.7027	0.0	Yes	2.676	0.024	n/a	GoodResponse	1	n/a	n/a	17	73	Cue	Win	True
690.275	4.0	Win2	0.7027	0.0	Yes	2.676	0.001	n/a	GoodResponse	1	n/a	n/a	17	73	Fixation	Win	True
694.27	0.27	Win2	0.7027	0.004	Yes	2.676	-0.004	2.0	GoodResponse	1	0.213	693.483	17	73	Target	Win	True
694.483	0.3	Win2	0.7027	0.004	Yes	2.676	-0.004	2.0	GoodResponse	1	0.213	n/a	17	73	ButtonPress	Win	True
694.554	0.43	Win2	0.7027	n/a	Yes	2.676	n/a	n/a	GoodResponse	1	n/a	n/a	17	73	Blank	Win	True
694.972	1.45	Win2	0.7027	n/a	Yes	2.676	n/a	5.0	GoodResponse	1	0.027	693.999	17	73	Feedback	Win	True
696.427	2.676	Win2	0.7027	n/a	Yes	2.676	n/a	n/a	GoodResponse	1	0.0	n/a	17	73	ISIslide	Win	True
699.118	0.25	Lose2	0.7067	0.0	Yes	2.632	0.018	n/a	GoodResponse	0	n/a	n/a	17	74	Cue	AvoidedLoss	True
699.369	4.05	Lose2	0.7067	0.0	Yes	2.632	0.001	n/a	GoodResponse	0	n/a	n/a	17	74	Fixation	AvoidedLoss	True
703.414	0.26	Lose2	0.7067	0.004	Yes	2.632	-0.004	2.0	GoodResponse	0	0.207	702.621	17	74	Target	AvoidedLoss	True
703.621	0.3	Lose2	0.7067	0.004	Yes	2.632	-0.004	2.0	GoodResponse	0	0.207	n/a	17	74	ButtonPress	AvoidedLoss	True
703.682	0.44	Lose2	0.7067	n/a	Yes	2.632	n/a	n/a	GoodResponse	0	n/a	n/a	17	74	Blank	AvoidedLoss	True
704.117	1.45	Lose2	0.7067	n/a	Yes	2.632	n/a	5.0	GoodResponse	0	0.007	703.124	17	74	Feedback	AvoidedLoss	True
705.571	2.632	Lose2	0.7067	n/a	Yes	2.632	n/a	n/a	GoodResponse	0	0.0	n/a	17	74	ISIslide	AvoidedLoss	True
708.229	0.25	Lose2	0.7105	0.0	Yes	2.921	0.029	n/a	GoodResponse	0	n/a	n/a	17	75	Cue	AvoidedLoss	True
708.48	3.95	Lose2	0.7105	0.0	Yes	2.921	0.001	n/a	GoodResponse	0	n/a	n/a	17	75	Fixation	AvoidedLoss	True
712.425	0.25	Lose2	0.7105	0.004	Yes	2.921	-0.004	2.0	GoodResponse	0	0.201	711.626	17	75	Target	AvoidedLoss	True
712.626	0.3	Lose2	0.7105	0.004	Yes	2.921	-0.004	2.0	GoodResponse	0	0.201	n/a	17	75	ButtonPress	AvoidedLoss	True
712.676	0.45	Lose2	0.7105	n/a	Yes	2.921	n/a	n/a	GoodResponse	0	n/a	n/a	17	75	Blank	AvoidedLoss	True
713.127	1.45	Lose2	0.7105	n/a	Yes	2.921	n/a	5.0	GoodResponse	0	0.017	712.144	17	75	Feedback	AvoidedLoss	True
714.581	2.921	Lose2	0.7105	n/a	Yes	2.921	n/a	n/a	GoodResponse	0	0.0	n/a	17	75	ISIslide	AvoidedLoss	True
717.523	0.25	Control	0.7143	0.0	Yes	3.227	0.023	n/a	GoodResponse	0	n/a	n/a	17	76	Cue	Neutral	True
717.774	4.05	Control	0.7143	0.0	Yes	3.227	0.001	n/a	GoodResponse	0	n/a	n/a	17	76	Fixation	Neutral	True
721.82	0.24	Control	0.7143	0.003	Yes	3.227	-0.003	2.0	GoodResponse	0	0.185	721.005	17	76	Target	Neutral	True
722.005	0.3	Control	0.7143	0.003	Yes	3.227	-0.003	2.0	GoodResponse	0	0.185	n/a	17	76	ButtonPress	Neutral	True
722.07	0.46	Control	0.7143	n/a	Yes	3.227	n/a	n/a	GoodResponse	0	n/a	n/a	17	76	Blank	Neutral	True
722.522	1.45	Control	0.7143	n/a	Yes	3.227	n/a	5.0	GoodResponse	0	0.037	721.559	17	76	Feedback	Neutral	True
723.976	3.227	Control	0.7143	n/a	Yes	3.227	n/a	n/a	GoodResponse	0	0.0	n/a	17	76	ISIslide	Neutral	True
727.219	0.25	Lose2	0.7179000000000001	0.0	Yes	2.581	0.019	n/a	GoodResponse	0	n/a	n/a	17	77	Cue	AvoidedLoss	True
727.47	3.95	Lose2	0.7179000000000001	0.0	Yes	2.581	0.001	n/a	GoodResponse	0	n/a	n/a	17	77	Fixation	AvoidedLoss	True
731.415	0.23	Lose2	0.7179000000000001	0.004	Yes	2.581	-0.004	2.0	GoodResponse	0	0.189	730.604	17	77	Target	AvoidedLoss	True
731.604	0.3	Lose2	0.7179000000000001	0.004	Yes	2.581	-0.004	2.0	GoodResponse	0	0.189	n/a	17	77	ButtonPress	AvoidedLoss	True
731.649	0.47	Lose2	0.7179000000000001	n/a	Yes	2.581	n/a	n/a	GoodResponse	0	n/a	n/a	17	77	Blank	AvoidedLoss	True
732.117	1.45	Lose2	0.7179000000000001	n/a	Yes	2.581	n/a	5.0	GoodResponse	0	0.008	731.125	17	77	Feedback	AvoidedLoss	True
733.572	2.581	Lose2	0.7179000000000001	n/a	Yes	2.581	n/a	n/a	GoodResponse	0	0.0	n/a	17	77	ISIslide	AvoidedLoss	True
