onset	duration	cue_type	current_mean_accuracy	duration_error	is_hit	isi_adjusted	onset_delay	response	response_type	reward	rt	rt_time	total_reward	trial_number	trial_phase	trial_type	one_press
11.101	0.25	Control	1.0	0.0	Yes	2.949	0.001	n/a	GoodResponse	0	n/a	n/a	0	0	Cue	Neutral	True
11.351	3.85	Control	1.0	0.0	Yes	2.949	0.0	n/a	GoodResponse	0	n/a	n/a	0	0	Fixation	Neutral	True
15.2	0.4	Control	1.0	0.001	Yes	2.949	-0.001	2.0	GoodResponse	0	0.236	14.436	0	0	Target	Neutral	True
15.436	0.3	Control	1.0	0.001	Yes	2.949	-0.001	2.0	GoodResponse	0	0.236	n/a	0	0	ButtonPress	Neutral	True
15.6	0.3	Control	1.0	n/a	Yes	2.949	n/a	n/a	GoodResponse	0	n/a	n/a	0	0	Blank	Neutral	True
15.899	1.45	Control	1.0	n/a	Yes	2.949	n/a	5.0	GoodResponse	0	0.029	14.928	0	0	Feedback	Neutral	True
17.349	2.949	Control	1.0	n/a	Yes	2.949	n/a	n/a	GoodResponse	0	0.0	n/a	0	0	ISIslide	Neutral	True
20.331	0.25	Lose2	1.0	0.0	Yes	2.769	0.031	n/a	GoodResponse	0	n/a	n/a	0	1	Cue	AvoidedLoss	True
20.581	4.0	Lose2	1.0	0.0	Yes	2.769	0.0	n/a	GoodResponse	0	n/a	n/a	0	1	Fixation	AvoidedLoss	True
24.58	0.39	Lose2	1.0	0.001	Yes	2.769	-0.001	2.0	GoodResponse	0	0.266	23.846	0	1	Target	AvoidedLoss	True
24.846	0.3	Lose2	1.0	0.001	Yes	2.769	-0.001	2.0	GoodResponse	0	0.266	n/a	0	1	ButtonPress	AvoidedLoss	True
24.98	0.31	Lose2	1.0	n/a	Yes	2.769	n/a	n/a	GoodResponse	0	n/a	n/a	0	1	Blank	AvoidedLoss	True
25.28	1.45	Lose2	1.0	n/a	Yes	2.769	n/a	5.0	GoodResponse	0	0.014	24.294	0	1	Feedback	AvoidedLoss	True
26.729	2.769	Lose2	1.0	n/a	Yes	2.769	n/a	n/a	GoodResponse	0	0.0	n/a	0	1	ISIslide	AvoidedLoss	True
29.528	0.25	Control	1.0	0.0	Yes	2.572	0.028	n/a	GoodResponse	0	n/a	n/a	0	2	Cue	Neutral	True
29.778	4.1	Control	1.0	0.0	Yes	2.572	0.0	n/a	GoodResponse	0	n/a	n/a	0	2	Fixation	Neutral	True
33.877	0.38	Control	1.0	0.001	Yes	2.572	-0.001	2.0	GoodResponse	0	0.365	33.242	0	2	Target	Neutral	True
34.242	0.3	Control	1.0	0.001	Yes	2.572	-0.001	2.0	GoodResponse	0	0.365	n/a	0	2	ButtonPress	Neutral	True
34.26	0.32	Control	1.0	n/a	Yes	2.572	n/a	n/a	GoodResponse	0	n/a	n/a	0	2	Blank	Neutral	True
34.576	1.45	Control	1.0	n/a	Yes	2.572	n/a	5.0	GoodResponse	0	0.035	33.611	0	2	Feedback	Neutral	True
36.026	2.572	Control	1.0	n/a	Yes	2.572	n/a	n/a	GoodResponse	0	0.0	n/a	0	2	ISIslide	Neutral	True
38.625	0.25	Win2	1.0	0.0	Yes	2.825	0.025	n/a	GoodResponse	1	n/a	n/a	1	3	Cue	Win	True
38.875	3.95	Win2	1.0	0.0	Yes	2.825	0.0	n/a	GoodResponse	1	n/a	n/a	1	3	Fixation	Win	True
42.824	0.37	Win2	1.0	0.001	Yes	2.825	-0.001	2.0	GoodResponse	1	0.321	42.145	1	3	Target	Win	True
43.145	0.3	Win2	1.0	0.001	Yes	2.825	-0.001	2.0	GoodResponse	1	0.321	n/a	1	3	ButtonPress	Win	True
43.207	0.33	Win2	1.0	n/a	Yes	2.825	n/a	n/a	GoodResponse	1	n/a	n/a	1	3	Blank	Win	True
43.523	1.45	Win2	1.0	n/a	Yes	2.825	n/a	5.0	GoodResponse	1	0.015	42.538	1	3	Feedback	Win	True
44.973	2.825	Win2	1.0	n/a	Yes	2.825	n/a	n/a	GoodResponse	1	0.0	n/a	1	3	ISIslide	Win	True
47.822	0.25	Win2	1.0	0.0	Yes	3.278	0.022	n/a	GoodResponse	1	n/a	n/a	2	4	Cue	Win	True
48.072	4.0	Win2	1.0	0.0	Yes	3.278	0.0	n/a	GoodResponse	1	n/a	n/a	2	4	Fixation	Win	True
52.07	0.36	Win2	1.0	0.002	Yes	3.278	-0.002	2.0	GoodResponse	1	0.299	51.369	2	4	Target	Win	True
52.369	0.3	Win2	1.0	0.002	Yes	3.278	-0.002	2.0	GoodResponse	1	0.299	n/a	2	4	ButtonPress	Win	True
52.437	0.34	Win2	1.0	n/a	Yes	3.278	n/a	n/a	GoodResponse	1	n/a	n/a	2	4	Blank	Win	True
52.77	1.45	Win2	1.0	n/a	Yes	3.278	n/a	5.0	GoodResponse	1	0.037	51.807	2	4	Feedback	Win	True
54.22	3.278	Win2	1.0	n/a	Yes	3.278	n/a	n/a	GoodResponse	1	0.0	n/a	2	4	ISIslide	Win	True
57.518	0.25	Win2	1.0	0.0	Yes	2.782	0.018	n/a	GoodResponse	1	n/a	n/a	3	5	Cue	Win	True
57.768	4.0	Win2	1.0	0.0	Yes	2.782	0.0	n/a	GoodResponse	1	n/a	n/a	3	5	Fixation	Win	True
61.767	0.35	Win2	1.0	0.001	Yes	2.782	-0.001	2.0	GoodResponse	1	0.268	61.035	3	5	Target	Win	True
62.035	0.3	Win2	1.0	0.001	Yes	2.782	-0.001	2.0	GoodResponse	1	0.268	n/a	3	5	ButtonPress	Win	True
62.117	0.35	Win2	1.0	n/a	Yes	2.782	n/a	n/a	GoodResponse	1	n/a	n/a	3	5	Blank	Win	True
62.467	1.45	Win2	1.0	n/a	Yes	2.782	n/a	5.0	GoodResponse	1	0.046	61.513	3	5	Feedback	Win	True
63.916	2.782	Win2	1.0	n/a	Yes	2.782	n/a	n/a	GoodResponse	1	0.0	n/a	3	5	ISIslide	Win	True
66.715	0.25	Lose2	1.0	0.0	Yes	2.735	0.015	n/a	GoodResponse	0	n/a	n/a	3	6	Cue	AvoidedLoss	True
66.965	3.95	Lose2	1.0	0.0	Yes	2.735	0.0	n/a	GoodResponse	0	n/a	n/a	3	6	Fixation	AvoidedLoss	True
70.914	0.34	Lose2	1.0	0.001	Yes	2.735	-0.001	2.0	GoodResponse	0	0.279	70.193	3	6	Target	AvoidedLoss	True
71.193	0.3	Lose2	1.0	0.001	Yes	2.735	-0.001	2.0	GoodResponse	0	0.279	n/a	3	6	ButtonPress	AvoidedLoss	True
71.264	0.36	Lose2	1.0	n/a	Yes	2.735	n/a	n/a	GoodResponse	0	n/a	n/a	3	6	Blank	AvoidedLoss	True
71.614	1.45	Lose2	1.0	n/a	Yes	2.735	n/a	5.0	GoodResponse	0	0.021	70.635	3	6	Feedback	AvoidedLoss	True
73.063	2.735	Lose2	1.0	n/a	Yes	2.735	n/a	n/a	GoodResponse	0	0.0	n/a	3	6	ISIslide	AvoidedLoss	True
75.829	0.25	Lose2	1.0	0.0	Yes	4.021	0.029	n/a	GoodResponse	0	n/a	n/a	3	7	Cue	AvoidedLoss	True
76.079	4.05	Lose2	1.0	0.0	Yes	4.021	0.0	n/a	GoodResponse	0	n/a	n/a	3	7	Fixation	AvoidedLoss	True
80.127	0.33	Lose2	1.0	0.002	Yes	4.021	-0.002	2.0	GoodResponse	0	0.254	79.381	3	7	Target	AvoidedLoss	True
80.381	0.3	Lose2	1.0	0.002	Yes	4.021	-0.002	2.0	GoodResponse	0	0.254	n/a	3	7	ButtonPress	AvoidedLoss	True
80.46	0.37	Lose2	1.0	n/a	Yes	4.021	n/a	n/a	GoodResponse	0	n/a	n/a	3	7	Blank	AvoidedLoss	True
80.827	1.45	Lose2	1.0	n/a	Yes	4.021	n/a	5.0	GoodResponse	0	0.028	79.855	3	7	Feedback	AvoidedLoss	True
82.277	4.021	Lose2	1.0	n/a	Yes	4.021	n/a	n/a	GoodResponse	0	0.0	n/a	3	7	ISIslide	AvoidedLoss	True
86.325	0.25	Lose2	1.0	0.0	Yes	3.025	0.025	n/a	GoodResponse	0	n/a	n/a	3	8	Cue	AvoidedLoss	True
86.575	3.95	Lose2	1.0	0.0	Yes	3.025	0.0	n/a	GoodResponse	0	n/a	n/a	3	8	Fixation	AvoidedLoss	True
90.524	0.32	Lose2	1.0	0.001	Yes	3.025	-0.001	2.0	GoodResponse	0	0.279	89.803	3	8	Target	AvoidedLoss	True
90.803	0.3	Lose2	1.0	0.001	Yes	3.025	-0.001	2.0	GoodResponse	0	0.279	n/a	3	8	ButtonPress	AvoidedLoss	True
90.857	0.38	Lose2	1.0	n/a	Yes	3.025	n/a	n/a	GoodResponse	0	n/a	n/a	3	8	Blank	AvoidedLoss	True
91.223	1.45	Lose2	1.0	n/a	Yes	3.025	n/a	5.0	GoodResponse	0	0.022	90.245	3	8	Feedback	AvoidedLoss	True
92.673	3.025	Lose2	1.0	n/a	Yes	3.025	n/a	n/a	GoodResponse	0	0.0	n/a	3	8	ISIslide	AvoidedLoss	True
95.722	0.25	Lose2	0.9	0.0	No	3.128	0.022	n/a	NoResponse	-1	n/a	n/a	2	9	Cue	Loss	True
95.972	3.95	Lose2	0.9	0.0	No	3.128	0.0	n/a	NoResponse	-1	n/a	n/a	2	9	Fixation	Loss	True
99.92	0.31	Lose2	0.9	0.002	No	3.128	-0.002	2.0	NoResponse	-1	0.392	99.312	2	9	Target	Loss	True
100.237	0.39	Lose2	0.9	n/a	No	3.128	n/a	n/a	NoResponse	-1	n/a	n/a	2	9	Blank	Loss	True
100.312	0.3	Lose2	0.9	0.002	No	3.128	-0.002	2.0	NoResponse	-1	0.392	n/a	2	9	ButtonPress	Loss	True
100.62	1.45	Lose2	0.9	n/a	No	3.128	n/a	5.0	NoResponse	-1	0.04	99.66	2	9	Feedback	Loss	True
102.07	3.128	Lose2	0.9	n/a	No	3.128	n/a	n/a	NoResponse	-1	0.0	n/a	2	9	ISIslide	Loss	True
105.219	0.25	Control	0.9091	0.0	Yes	3.281	0.019	n/a	GoodResponse	0	n/a	n/a	2	10	Cue	Neutral	True
105.469	4.0	Control	0.9091	0.0	Yes	3.281	0.0	n/a	GoodResponse	0	n/a	n/a	2	10	Fixation	Neutral	True
109.467	0.3	Control	0.9091	0.002	Yes	3.281	-0.002	2.0	GoodResponse	0	0.291	108.758	2	10	Target	Neutral	True
109.758	0.3	Control	0.9091	0.002	Yes	3.281	-0.002	2.0	GoodResponse	0	0.291	n/a	2	10	ButtonPress	Neutral	True
109.767	0.4	Control	0.9091	n/a	Yes	3.281	n/a	n/a	GoodResponse	0	n/a	n/a	2	10	Blank	Neutral	True
110.167	1.45	Control	0.9091	n/a	Yes	3.281	n/a	5.0	GoodResponse	0	0.008	109.175	2	10	Feedback	Neutral	True
111.616	3.281	Control	0.9091	n/a	Yes	3.281	n/a	n/a	GoodResponse	0	0.0	n/a	2	10	ISIslide	Neutral	True
114.915	0.25	Lose2	0.8332999999999999	0.0	No	2.735	0.015	n/a	NoResponse	-1	n/a	n/a	1	11	Cue	Loss	True
115.165	4.05	Lose2	0.8332999999999999	0.0	No	2.735	0.0	n/a	NoResponse	-1	n/a	n/a	1	11	Fixation	Loss	True
119.214	0.29	Lose2	0.8332999999999999	0.001	No	2.735	-0.001	2.0	NoResponse	-1	0.332	118.546	1	11	Target	Loss	True
119.514	0.41	Lose2	0.8332999999999999	n/a	No	2.735	n/a	n/a	NoResponse	-1	n/a	n/a	1	11	Blank	Loss	True
119.546	0.3	Lose2	0.8332999999999999	0.001	No	2.735	-0.001	2.0	NoResponse	-1	0.332	n/a	1	11	ButtonPress	Loss	True
119.914	1.45	Lose2	0.8332999999999999	n/a	No	2.735	n/a	5.0	NoResponse	-1	0.015	118.929	1	11	Feedback	Loss	True
121.363	2.735	Lose2	0.8332999999999999	n/a	No	2.735	n/a	n/a	NoResponse	-1	0.0	n/a	1	11	ISIslide	Loss	True
124.129	0.25	Control	0.7692	0.0	No	2.971	0.029	n/a	NoResponse	0	n/a	n/a	1	12	Cue	Neutral	True
124.379	3.9	Control	0.7692	0.0	No	2.971	0.0	n/a	NoResponse	0	n/a	n/a	1	12	Fixation	Neutral	True
128.277	0.28	Control	0.7692	0.002	No	2.971	-0.002	2.0	NoResponse	0	0.321	127.598	1	12	Target	Neutral	True
128.561	0.42	Control	0.7692	n/a	No	2.971	n/a	n/a	NoResponse	0	n/a	n/a	1	12	Blank	Neutral	True
128.598	0.3	Control	0.7692	0.002	No	2.971	-0.002	2.0	NoResponse	0	0.321	n/a	1	12	ButtonPress	Neutral	True
128.977	1.45	Control	0.7692	n/a	No	2.971	n/a	5.0	NoResponse	0	0.024	128.001	1	12	Feedback	Neutral	True
130.427	2.971	Control	0.7692	n/a	No	2.971	n/a	n/a	NoResponse	0	0.0	n/a	1	12	ISIslide	Neutral	True
133.426	0.25	Control	0.7857	0.0	Yes	2.774	0.026	n/a	GoodResponse	0	n/a	n/a	1	13	Cue	Neutral	False
133.675	4.0	Control	0.7857	0.001	Yes	2.774	-0.001	2.0	GoodResponse	0	0.213	132.888	1	13	Fixation	Neutral	False
133.888	0.3	Control	0.7857	0.001	Yes	2.774	-0.001	2.0	GoodResponse	0	0.213	n/a	1	13	ButtonPress	Neutral	False
137.674	0.27	Control	0.7857	0.002	Yes	2.774	-0.002	2.0	GoodResponse	0	0.25	136.924	1	13	Target	Neutral	False
137.924	0.3	Control	0.7857	0.002	Yes	2.774	-0.002	2.0	GoodResponse	0	0.25	n/a	1	13	ButtonPress	Neutral	False
137.957	0.43	Control	0.7857	n/a	Yes	2.774	n/a	n/a	GoodResponse	0	n/a	n/a	1	13	Blank	Neutral	False
138.374	1.45	Control	0.7857	n/a	Yes	2.774	n/a	5.0	GoodResponse	0	0.042	137.416	1	13	Feedback	Neutral	False
139.823	2.774	Control	0.7857	n/a	Yes	2.774	n/a	n/a	GoodResponse	0	0.0	n/a	1	13	ISIslide	Neutral	False
142.622	0.25	Win2	0.7333	0.0	No	2.678	0.022	n/a	NoResponse	0	n/a	n/a	1	14	Cue	MissedWin	True
142.872	4.1	Win2	0.7333	0.0	No	2.678	0.0	n/a	NoResponse	0	n/a	n/a	1	14	Fixation	MissedWin	True
146.971	0.26	Win2	0.7333	0.001	No	2.678	-0.001	2.0	NoResponse	0	0.359	146.33	1	14	Target	MissedWin	True
147.237	0.44	Win2	0.7333	n/a	No	2.678	n/a	n/a	NoResponse	0	n/a	n/a	1	14	Blank	MissedWin	True
147.33	0.3	Win2	0.7333	0.001	No	2.678	-0.001	2.0	NoResponse	0	0.359	n/a	1	14	ButtonPress	MissedWin	True
147.671	1.45	Win2	0.7333	n/a	No	2.678	n/a	5.0	NoResponse	0	0.013	146.684	1	14	Feedback	MissedWin	True
149.12	2.678	Win2	0.7333	n/a	No	2.678	n/a	n/a	NoResponse	0	0.0	n/a	1	14	ISIslide	MissedWin	True
151.819	0.25	Control	0.6875	0.0	No	2.981	0.019	n/a	NoResponse	0	n/a	n/a	1	15	Cue	Neutral	True
152.069	4.0	Control	0.6875	0.0	No	2.981	0.0	n/a	NoResponse	0	n/a	n/a	1	15	Fixation	Neutral	True
156.068	0.25	Control	0.6875	0.001	No	2.981	-0.001	2.0	NoResponse	0	0.301	155.369	1	15	Target	Neutral	True
156.318	0.45	Control	0.6875	n/a	No	2.981	n/a	n/a	NoResponse	0	n/a	n/a	1	15	Blank	Neutral	True
156.369	0.3	Control	0.6875	0.001	No	2.981	-0.001	2.0	NoResponse	0	0.301	n/a	1	15	ButtonPress	Neutral	True
156.767	1.45	Control	0.6875	n/a	No	2.981	n/a	5.0	NoResponse	0	0.039	155.806	1	15	Feedback	Neutral	True
158.217	2.981	Control	0.6875	n/a	No	2.981	n/a	n/a	NoResponse	0	0.0	n/a	1	15	ISIslide	Neutral	True
161.216	0.25	Win2	0.7059000000000001	0.0	Yes	2.884	0.016	n/a	GoodResponse	1	n/a	n/a	2	16	Cue	Win	True
161.466	4.0	Win2	0.7059000000000001	0.0	Yes	2.884	0.0	n/a	GoodResponse	1	n/a	n/a	2	16	Fixation	Win	True
165.464	0.24	Win2	0.7059000000000001	0.002	Yes	2.884	-0.002	2.0	GoodResponse	1	0.236	164.7	2	16	Target	Win	True
165.7	0.3	Win2	0.7059000000000001	0.002	Yes	2.884	-0.002	2.0	GoodResponse	1	0.236	n/a	2	16	ButtonPress	Win	True
165.714	0.46	Win2	0.7059000000000001	n/a	Yes	2.884	n/a	n/a	GoodResponse	1	n/a	n/a	2	16	Blank	Win	True
166.164	1.45	Win2	0.7059000000000001	n/a	Yes	2.884	n/a	5.0	GoodResponse	1	0.008	165.172	2	16	Feedback	Win	True
167.614	2.884	Win2	0.7059000000000001	n/a	Yes	2.884	n/a	n/a	GoodResponse	1	0.0	n/a	2	16	ISIslide	Win	True
170.529	0.25	Lose2	0.6667000000000001	0.0	No	2.721	0.029	n/a	NoResponse	-1	n/a	n/a	1	17	Cue	Loss	True
170.779	3.95	Lose2	0.6667000000000001	0.0	No	2.721	0.0	n/a	NoResponse	-1	n/a	n/a	1	17	Fixation	Loss	True
174.728	0.23	Lose2	0.6667000000000001	0.001	No	2.721	-0.001	2.0	NoResponse	-1	0.283	174.011	1	17	Target	Loss	True
174.961	0.47	Lose2	0.6667000000000001	n/a	No	2.721	n/a	n/a	NoResponse	-1	n/a	n/a	1	17	Blank	Loss	True
175.011	0.3	Lose2	0.6667000000000001	0.001	No	2.721	-0.001	2.0	NoResponse	-1	0.283	n/a	1	17	ButtonPress	Loss	True
175.428	1.45	Lose2	0.6667000000000001	n/a	No	2.721	n/a	5.0	NoResponse	-1	0.012	174.44	1	17	Feedback	Loss	True
176.877	2.721	Lose2	0.6667000000000001	n/a	No	2.721	n/a	n/a	NoResponse	-1	0.0	n/a	1	17	ISIslide	Loss	True
179.626	0.25	Lose2	0.6315999999999999	0.0	No	2.724	0.026	n/a	LatePress	-1	n/a	n/a	0	18	Cue	Loss	True
179.876	4.05	Lose2	0.6315999999999999	0.0	No	2.724	0.0	n/a	LatePress	-1	n/a	n/a	0	18	Fixation	Loss	True
183.925	0.22	Lose2	0.6315999999999999	0.001	No	2.724	-0.001	2.0	LatePress	-1	0.223	183.148	0	18	Target	Loss	True
184.148	0.3	Lose2	0.6315999999999999	0.001	No	2.724	-0.001	2.0	LatePress	-1	0.223	n/a	0	18	ButtonPress	Loss	True
184.158	0.48	Lose2	0.6315999999999999	n/a	No	2.724	n/a	n/a	LatePress	-1	n/a	n/a	0	18	Blank	Loss	True
184.624	1.45	Lose2	0.6315999999999999	n/a	No	2.724	n/a	5.0	LatePress	-1	0.035	183.659	0	18	Feedback	Loss	True
186.074	2.724	Lose2	0.6315999999999999	n/a	No	2.724	n/a	n/a	LatePress	-1	0.0	n/a	0	18	ISIslide	Loss	True
188.823	0.25	Control	0.6	0.0	No	2.927	0.023	n/a	NoResponse	0	n/a	n/a	0	19	Cue	Neutral	True
189.073	3.95	Control	0.6	0.0	No	2.927	0.0	n/a	NoResponse	0	n/a	n/a	0	19	Fixation	Neutral	True
193.022	0.23	Control	0.6	0.001	No	2.927	-0.001	2.0	NoResponse	0	0.248	192.27	0	19	Target	Neutral	True
193.255	0.47	Control	0.6	n/a	No	2.927	n/a	n/a	NoResponse	0	n/a	n/a	0	19	Blank	Neutral	True
193.27	0.3	Control	0.6	0.001	No	2.927	-0.001	2.0	NoResponse	0	0.248	n/a	0	19	ButtonPress	Neutral	True
193.721	1.45	Control	0.6	n/a	No	2.927	n/a	5.0	NoResponse	0	0.011	192.732	0	19	Feedback	Neutral	True
195.171	2.927	Control	0.6	n/a	No	2.927	n/a	n/a	NoResponse	0	0.0	n/a	0	19	ISIslide	Neutral	True
198.12	0.25	Control	0.619	0.0	Yes	2.63	0.02	n/a	GoodResponse	0	n/a	n/a	0	20	Cue	Neutral	True
198.37	4.05	Control	0.619	0.0	Yes	2.63	0.0	n/a	GoodResponse	0	n/a	n/a	0	20	Fixation	Neutral	True
202.418	0.24	Control	0.619	0.002	Yes	2.63	-0.002	2.0	GoodResponse	0	0.235	201.653	0	20	Target	Neutral	True
202.653	0.3	Control	0.619	0.002	Yes	2.63	-0.002	2.0	GoodResponse	0	0.235	n/a	0	20	ButtonPress	Neutral	True
202.668	0.46	Control	0.619	n/a	Yes	2.63	n/a	n/a	GoodResponse	0	n/a	n/a	0	20	Blank	Neutral	True
203.118	1.45	Control	0.619	n/a	Yes	2.63	n/a	5.0	GoodResponse	0	0.029	202.147	0	20	Feedback	Neutral	True
204.568	2.63	Control	0.619	n/a	Yes	2.63	n/a	n/a	GoodResponse	0	0.0	n/a	0	20	ISIslide	Neutral	True
207.217	0.25	Control	0.5909	0.0	No	2.783	0.017	n/a	NoResponse	0	n/a	n/a	0	21	Cue	Neutral	True
207.467	4.1	Control	0.5909	0.0	No	2.783	0.0	n/a	NoResponse	0	n/a	n/a	0	21	Fixation	Neutral	True
211.565	0.25	Control	0.5909	0.002	No	2.783	-0.002	2.0	NoResponse	0	0.291	210.856	0	21	Target	Neutral	True
211.815	0.45	Control	0.5909	n/a	No	2.783	n/a	n/a	NoResponse	0	n/a	n/a	0	21	Blank	Neutral	True
211.856	0.3	Control	0.5909	0.002	No	2.783	-0.002	2.0	NoResponse	0	0.291	n/a	0	21	ButtonPress	Neutral	True
212.265	1.45	Control	0.5909	n/a	No	2.783	n/a	5.0	NoResponse	0	0.006	211.271	0	21	Feedback	Neutral	True
213.714	2.783	Control	0.5909	n/a	No	2.783	n/a	n/a	NoResponse	0	0.0	n/a	0	21	ISIslide	Neutral	True
216.513	0.25	Control	0.5652	0.001	No	2.787	0.013	n/a	NoResponse	0	n/a	n/a	0	22	Cue	Neutral	True
216.763	4.0	Control	0.5652	0.0	No	2.787	0.0	n/a	NoResponse	0	n/a	n/a	0	22	Fixation	Neutral	True
220.762	0.26	Control	0.5652	0.001	No	2.787	-0.001	2.0	NoResponse	0	0.276	220.038	0	22	Target	Neutral	True
221.029	0.44	Control	0.5652	n/a	No	2.787	n/a	n/a	NoResponse	0	n/a	n/a	0	22	Blank	Neutral	True
221.038	0.3	Control	0.5652	0.001	No	2.787	-0.001	2.0	NoResponse	0	0.276	n/a	0	22	ButtonPress	Neutral	True
221.462	1.45	Control	0.5652	n/a	No	2.787	n/a	5.0	NoResponse	0	0.027	220.489	0	22	Feedback	Neutral	True
222.911	2.787	Control	0.5652	n/a	No	2.787	n/a	n/a	NoResponse	0	0.0	n/a	0	22	ISIslide	Neutral	True
225.727	0.25	Control	0.5417000000000001	0.0	No	2.773	0.027	n/a	NoResponse	0	n/a	n/a	0	23	Cue	Neutral	True
225.977	3.9	Control	0.5417000000000001	0.0	No	2.773	0.0	n/a	NoResponse	0	n/a	n/a	0	23	Fixation	Neutral	True
229.875	0.27	Control	0.5417000000000001	0.002	No	2.773	-0.002	2.0	NoResponse	0	0.291	229.166	0	23	Target	Neutral	True
230.159	0.43	Control	0.5417000000000001	n/a	No	2.773	n/a	n/a	NoResponse	0	n/a	n/a	0	23	Blank	Neutral	True
230.166	0.3	Control	0.5417000000000001	0.002	No	2.773	-0.002	2.0	NoResponse	0	0.291	n/a	0	23	ButtonPress	Neutral	True
230.575	1.45	Control	0.5417000000000001	n/a	No	2.773	n/a	5.0	NoResponse	0	0.036	229.611	0	23	Feedback	Neutral	True
232.025	2.773	Control	0.5417000000000001	n/a	No	2.773	n/a	n/a	NoResponse	0	0.0	n/a	0	23	ISIslide	Neutral	True
234.824	0.25	Win2	0.52	0.0	No	3.126	0.024	n/a	NoResponse	0	n/a	n/a	0	24	Cue	MissedWin	True
235.074	3.95	Win2	0.52	0.0	No	3.126	0.0	n/a	NoResponse	0	n/a	n/a	0	24	Fixation	MissedWin	True
239.022	0.28	Win2	0.52	0.002	No	3.126	-0.002	2.0	NoResponse	0	0.291	238.313	0	24	Target	MissedWin	True
239.306	0.42	Win2	0.52	n/a	No	3.126	n/a	n/a	NoResponse	0	n/a	n/a	0	24	Blank	MissedWin	True
239.313	0.3	Win2	0.52	0.002	No	3.126	-0.002	2.0	NoResponse	0	0.291	n/a	0	24	ButtonPress	MissedWin	True
239.722	1.45	Win2	0.52	n/a	No	3.126	n/a	5.0	NoResponse	0	0.011	238.733	0	24	Feedback	MissedWin	True
241.172	3.126	Win2	0.52	n/a	No	3.126	n/a	n/a	NoResponse	0	0.0	n/a	0	24	ISIslide	MissedWin	True
244.32	0.25	Win2	0.5385	0.001	Yes	3.08	0.02	n/a	GoodResponse	1	n/a	n/a	1	25	Cue	Win	True
244.57	4.0	Win2	0.5385	0.0	Yes	3.08	0.0	n/a	GoodResponse	1	n/a	n/a	1	25	Fixation	Win	True
248.569	0.29	Win2	0.5385	0.001	Yes	3.08	-0.001	2.0	GoodResponse	1	0.267	247.836	1	25	Target	Win	True
248.836	0.3	Win2	0.5385	0.001	Yes	3.08	-0.001	2.0	GoodResponse	1	0.267	n/a	1	25	ButtonPress	Win	True
248.869	0.41	Win2	0.5385	n/a	Yes	3.08	n/a	n/a	GoodResponse	1	n/a	n/a	1	25	Blank	Win	True
249.269	1.45	Win2	0.5385	n/a	Yes	3.08	n/a	5.0	GoodResponse	1	0.024	248.293	1	25	Feedback	Win	True
250.718	3.08	Win2	0.5385	n/a	Yes	3.08	n/a	n/a	GoodResponse	1	0.0	n/a	1	25	ISIslide	Win	True
253.817	0.25	Win2	0.5185	0.0	No	2.933	0.017	n/a	NoResponse	0	n/a	n/a	1	26	Cue	MissedWin	True
254.067	3.95	Win2	0.5185	0.0	No	2.933	0.0	n/a	NoResponse	0	n/a	n/a	1	26	Fixation	MissedWin	True
258.016	0.3	Win2	0.5185	0.001	No	2.933	-0.001	2.0	NoResponse	0	0.361	257.377	1	26	Target	MissedWin	True
258.316	0.4	Win2	0.5185	n/a	No	2.933	n/a	n/a	NoResponse	0	n/a	n/a	1	26	Blank	MissedWin	True
258.377	0.3	Win2	0.5185	0.001	No	2.933	-0.001	2.0	NoResponse	0	0.361	n/a	1	26	ButtonPress	MissedWin	True
258.716	1.45	Win2	0.5185	n/a	No	2.933	n/a	5.0	NoResponse	0	0.041	257.757	1	26	Feedback	MissedWin	True
260.165	2.933	Win2	0.5185	n/a	No	2.933	n/a	n/a	NoResponse	0	0.0	n/a	1	26	ISIslide	MissedWin	True
263.131	0.25	Lose2	0.5357	0.0	Yes	2.819	0.031	n/a	GoodResponse	0	n/a	n/a	1	27	Cue	AvoidedLoss	True
263.381	4.05	Lose2	0.5357	0.0	Yes	2.819	0.0	n/a	GoodResponse	0	n/a	n/a	1	27	Fixation	AvoidedLoss	True
267.429	0.31	Lose2	0.5357	0.002	Yes	2.819	-0.002	2.0	GoodResponse	0	0.294	266.723	1	27	Target	AvoidedLoss	True
267.723	0.3	Lose2	0.5357	0.002	Yes	2.819	-0.002	2.0	GoodResponse	0	0.294	n/a	1	27	ButtonPress	AvoidedLoss	True
267.746	0.39	Lose2	0.5357	n/a	Yes	2.819	n/a	n/a	GoodResponse	0	n/a	n/a	1	27	Blank	AvoidedLoss	True
268.129	1.45	Lose2	0.5357	n/a	Yes	2.819	n/a	5.0	GoodResponse	0	0.042	267.171	1	27	Feedback	AvoidedLoss	True
269.578	2.819	Lose2	0.5357	n/a	Yes	2.819	n/a	n/a	GoodResponse	0	0.0	n/a	1	27	ISIslide	AvoidedLoss	True
272.427	0.25	Control	0.5517	0.001	Yes	2.823	0.027	n/a	GoodResponse	0	n/a	n/a	1	28	Cue	Neutral	True
272.677	4.05	Control	0.5517	0.0	Yes	2.823	0.0	n/a	GoodResponse	0	n/a	n/a	1	28	Fixation	Neutral	True
276.726	0.32	Control	0.5517	0.001	Yes	2.823	-0.001	2.0	GoodResponse	0	0.28	276.006	1	28	Target	Neutral	True
277.006	0.3	Control	0.5517	0.001	Yes	2.823	-0.001	2.0	GoodResponse	0	0.28	n/a	1	28	ButtonPress	Neutral	True
277.043	0.38	Control	0.5517	n/a	Yes	2.823	n/a	n/a	GoodResponse	0	n/a	n/a	1	28	Blank	Neutral	True
277.426	1.45	Control	0.5517	n/a	Yes	2.823	n/a	5.0	GoodResponse	0	0.014	276.44	1	28	Feedback	Neutral	True
278.875	2.823	Control	0.5517	n/a	Yes	2.823	n/a	n/a	GoodResponse	0	0.0	n/a	1	28	ISIslide	Neutral	True
281.724	0.25	Lose2	0.5667	0.0	Yes	2.826	0.024	n/a	GoodResponse	0	n/a	n/a	1	29	Cue	AvoidedLoss	True
281.974	3.95	Lose2	0.5667	0.0	Yes	2.826	0.0	n/a	GoodResponse	0	n/a	n/a	1	29	Fixation	AvoidedLoss	True
285.923	0.33	Lose2	0.5667	0.001	Yes	2.826	-0.001	2.0	GoodResponse	0	0.25	285.173	1	29	Target	AvoidedLoss	True
286.173	0.3	Lose2	0.5667	0.001	Yes	2.826	-0.001	2.0	GoodResponse	0	0.25	n/a	1	29	ButtonPress	AvoidedLoss	True
286.256	0.37	Lose2	0.5667	n/a	Yes	2.826	n/a	n/a	GoodResponse	0	n/a	n/a	1	29	Blank	AvoidedLoss	True
286.623	1.45	Lose2	0.5667	n/a	Yes	2.826	n/a	5.0	GoodResponse	0	0.036	285.659	1	29	Feedback	AvoidedLoss	True
288.072	2.826	Lose2	0.5667	n/a	Yes	2.826	n/a	n/a	GoodResponse	0	0.0	n/a	1	29	ISIslide	AvoidedLoss	True
290.921	0.25	Win2	0.5806	0.0	Yes	2.779	0.021	n/a	GoodResponse	1	n/a	n/a	2	30	Cue	Win	True
291.171	3.9	Win2	0.5806	0.0	Yes	2.779	0.0	n/a	GoodResponse	1	n/a	n/a	2	30	Fixation	Win	True
295.07	0.34	Win2	0.5806	0.001	Yes	2.779	-0.001	2.0	GoodResponse	1	0.275	294.345	2	30	Target	Win	True
295.345	0.3	Win2	0.5806	0.001	Yes	2.779	-0.001	2.0	GoodResponse	1	0.275	n/a	2	30	ButtonPress	Win	True
295.419	0.36	Win2	0.5806	n/a	Yes	2.779	n/a	n/a	GoodResponse	1	n/a	n/a	2	30	Blank	Win	True
295.769	1.45	Win2	0.5806	n/a	Yes	2.779	n/a	5.0	GoodResponse	1	0.013	294.782	2	30	Feedback	Win	True
297.219	2.779	Win2	0.5806	n/a	Yes	2.779	n/a	n/a	GoodResponse	1	0.0	n/a	2	30	ISIslide	Win	True
300.018	0.25	Lose2	0.5938	0.0	Yes	2.832	0.018	n/a	GoodResponse	0	n/a	n/a	2	31	Cue	AvoidedLoss	True
300.268	4.05	Lose2	0.5938	0.0	Yes	2.832	0.0	n/a	GoodResponse	0	n/a	n/a	2	31	Fixation	AvoidedLoss	True
304.316	0.35	Lose2	0.5938	0.002	Yes	2.832	-0.002	2.0	GoodResponse	0	0.261	303.577	2	31	Target	AvoidedLoss	True
304.577	0.3	Lose2	0.5938	0.002	Yes	2.832	-0.002	2.0	GoodResponse	0	0.261	n/a	2	31	ButtonPress	AvoidedLoss	True
304.666	0.35	Lose2	0.5938	n/a	Yes	2.832	n/a	n/a	GoodResponse	0	n/a	n/a	2	31	Blank	AvoidedLoss	True
305.016	1.45	Lose2	0.5938	n/a	Yes	2.832	n/a	5.0	GoodResponse	0	0.033	304.049	2	31	Feedback	AvoidedLoss	True
306.466	2.832	Lose2	0.5938	n/a	Yes	2.832	n/a	n/a	GoodResponse	0	0.0	n/a	2	31	ISIslide	AvoidedLoss	True
309.315	0.25	Lose2	0.6061	0.0	Yes	2.635	0.015	n/a	GoodResponse	0	n/a	n/a	2	32	Cue	AvoidedLoss	True
309.565	4.15	Lose2	0.6061	0.0	Yes	2.635	0.0	n/a	GoodResponse	0	n/a	n/a	2	32	Fixation	AvoidedLoss	True
313.713	0.36	Lose2	0.6061	0.002	Yes	2.635	-0.002	2.0	GoodResponse	0	0.293	313.006	2	32	Target	AvoidedLoss	True
314.006	0.3	Lose2	0.6061	0.002	Yes	2.635	-0.002	2.0	GoodResponse	0	0.293	n/a	2	32	ButtonPress	AvoidedLoss	True
314.08	0.34	Lose2	0.6061	n/a	Yes	2.635	n/a	n/a	GoodResponse	0	n/a	n/a	2	32	Blank	AvoidedLoss	True
314.413	1.45	Lose2	0.6061	n/a	Yes	2.635	n/a	5.0	GoodResponse	0	0.008	313.421	2	32	Feedback	AvoidedLoss	True
315.862	2.635	Lose2	0.6061	n/a	Yes	2.635	n/a	n/a	GoodResponse	0	0.0	n/a	2	32	ISIslide	AvoidedLoss	True
318.528	0.25	Win2	0.6175999999999999	0.0	Yes	2.672	0.028	n/a	GoodResponse	1	n/a	n/a	3	33	Cue	Win	True
318.778	4.0	Win2	0.6175999999999999	0.0	Yes	2.672	0.0	n/a	GoodResponse	1	n/a	n/a	3	33	Fixation	Win	True
322.777	0.37	Win2	0.6175999999999999	0.001	Yes	2.672	-0.001	2.0	GoodResponse	1	0.319	322.096	3	33	Target	Win	True
323.096	0.3	Win2	0.6175999999999999	0.001	Yes	2.672	-0.001	2.0	GoodResponse	1	0.319	n/a	3	33	ButtonPress	Win	True
323.16	0.33	Win2	0.6175999999999999	n/a	Yes	2.672	n/a	n/a	GoodResponse	1	n/a	n/a	3	33	Blank	Win	True
323.476	1.45	Win2	0.6175999999999999	n/a	Yes	2.672	n/a	5.0	GoodResponse	1	0.012	322.488	3	33	Feedback	Win	True
324.926	2.672	Win2	0.6175999999999999	n/a	Yes	2.672	n/a	n/a	GoodResponse	1	0.0	n/a	3	33	ISIslide	Win	True
327.625	0.25	Lose2	0.6286	0.0	Yes	2.625	0.025	n/a	GoodResponse	0	n/a	n/a	3	34	Cue	AvoidedLoss	True
327.875	4.05	Lose2	0.6286	0.0	Yes	2.625	0.0	n/a	GoodResponse	0	n/a	n/a	3	34	Fixation	AvoidedLoss	True
331.924	0.38	Lose2	0.6286	0.001	Yes	2.625	-0.001	2.0	GoodResponse	0	0.285	331.209	3	34	Target	AvoidedLoss	True
332.209	0.3	Lose2	0.6286	0.001	Yes	2.625	-0.001	2.0	GoodResponse	0	0.285	n/a	3	34	ButtonPress	AvoidedLoss	True
332.307	0.32	Lose2	0.6286	n/a	Yes	2.625	n/a	n/a	GoodResponse	0	n/a	n/a	3	34	Blank	AvoidedLoss	True
332.623	1.45	Lose2	0.6286	n/a	Yes	2.625	n/a	5.0	GoodResponse	0	0.036	331.659	3	34	Feedback	AvoidedLoss	True
334.073	2.625	Lose2	0.6286	n/a	Yes	2.625	n/a	n/a	GoodResponse	0	0.0	n/a	3	34	ISIslide	AvoidedLoss	True
336.722	0.25	Lose2	0.6389	0.0	Yes	2.678	0.022	n/a	GoodResponse	0	n/a	n/a	3	35	Cue	AvoidedLoss	True
336.972	4.0	Lose2	0.6389	0.0	Yes	2.678	0.0	n/a	GoodResponse	0	n/a	n/a	3	35	Fixation	AvoidedLoss	True
340.97	0.39	Lose2	0.6389	0.002	Yes	2.678	-0.002	2.0	GoodResponse	0	0.373	340.343	3	35	Target	AvoidedLoss	True
341.343	0.3	Lose2	0.6389	0.002	Yes	2.678	-0.002	2.0	GoodResponse	0	0.373	n/a	3	35	ButtonPress	AvoidedLoss	True
341.37	0.31	Lose2	0.6389	n/a	Yes	2.678	n/a	n/a	GoodResponse	0	n/a	n/a	3	35	Blank	AvoidedLoss	True
341.67	1.45	Lose2	0.6389	n/a	Yes	2.678	n/a	5.0	GoodResponse	0	0.014	340.684	3	35	Feedback	AvoidedLoss	True
343.12	2.678	Lose2	0.6389	n/a	Yes	2.678	n/a	n/a	GoodResponse	0	0.0	n/a	3	35	ISIslide	AvoidedLoss	True
345.819	0.25	Control	0.6486	0.0	Yes	2.681	0.019	n/a	GoodResponse	0	n/a	n/a	3	36	Cue	Neutral	True
346.069	4.0	Control	0.6486	0.0	Yes	2.681	0.0	n/a	GoodResponse	0	n/a	n/a	3	36	Fixation	Neutral	True
350.067	0.4	Control	0.6486	0.002	Yes	2.681	-0.002	2.0	GoodResponse	0	0.23	349.297	3	36	Target	Neutral	True
350.297	0.3	Control	0.6486	0.002	Yes	2.681	-0.002	2.0	GoodResponse	0	0.23	n/a	3	36	ButtonPress	Neutral	True
350.467	0.3	Control	0.6486	n/a	Yes	2.681	n/a	n/a	GoodResponse	0	n/a	n/a	3	36	Blank	Neutral	True
350.767	1.45	Control	0.6486	n/a	Yes	2.681	n/a	5.0	GoodResponse	0	0.039	349.806	3	36	Feedback	Neutral	True
352.217	2.681	Control	0.6486	n/a	Yes	2.681	n/a	n/a	GoodResponse	0	0.0	n/a	3	36	ISIslide	Neutral	True
354.916	0.25	Win2	0.6579	0.0	Yes	2.884	0.016	n/a	GoodResponse	1	n/a	n/a	4	37	Cue	Win	True
355.165	4.0	Win2	0.6579	0.001	Yes	2.884	-0.001	n/a	GoodResponse	1	n/a	n/a	4	37	Fixation	Win	True
359.164	0.41	Win2	0.6579	0.002	Yes	2.884	-0.002	2.0	GoodResponse	1	0.244	358.408	4	37	Target	Win	True
359.408	0.3	Win2	0.6579	0.002	Yes	2.884	-0.002	2.0	GoodResponse	1	0.244	n/a	4	37	ButtonPress	Win	True
359.581	0.29	Win2	0.6579	n/a	Yes	2.884	n/a	n/a	GoodResponse	1	n/a	n/a	4	37	Blank	Win	True
359.864	1.45	Win2	0.6579	n/a	Yes	2.884	n/a	5.0	GoodResponse	1	0.014	358.878	4	37	Feedback	Win	True
361.313	2.884	Win2	0.6579	n/a	Yes	2.884	n/a	n/a	GoodResponse	1	0.0	n/a	4	37	ISIslide	Win	True
364.212	0.25	Lose2	0.6667000000000001	0.0	Yes	2.838	0.012	n/a	GoodResponse	0	n/a	n/a	4	38	Cue	AvoidedLoss	True
364.462	3.95	Lose2	0.6667000000000001	0.0	Yes	2.838	0.0	n/a	GoodResponse	0	n/a	n/a	4	38	Fixation	AvoidedLoss	True
368.411	0.41	Lose2	0.6667000000000001	0.001	Yes	2.838	-0.001	2.0	GoodResponse	0	0.377	367.788	4	38	Target	AvoidedLoss	True
368.788	0.3	Lose2	0.6667000000000001	0.001	Yes	2.838	-0.001	2.0	GoodResponse	0	0.377	n/a	4	38	ButtonPress	AvoidedLoss	True
368.827	0.29	Lose2	0.6667000000000001	n/a	Yes	2.838	n/a	n/a	GoodResponse	0	n/a	n/a	4	38	Blank	AvoidedLoss	True
369.111	1.45	Lose2	0.6667000000000001	n/a	Yes	2.838	n/a	5.0	GoodResponse	0	0.035	368.146	4	38	Feedback	AvoidedLoss	True
370.56	2.838	Lose2	0.6667000000000001	n/a	Yes	2.838	n/a	n/a	GoodResponse	0	0.0	n/a	4	38	ISIslide	AvoidedLoss	True
373.426	0.25	Win2	0.675	0.0	Yes	2.974	0.026	n/a	GoodResponse	1	n/a	n/a	5	39	Cue	Win	True
373.676	4.1	Win2	0.675	0.0	Yes	2.974	0.0	n/a	GoodResponse	1	n/a	n/a	5	39	Fixation	Win	True
377.774	0.4	Win2	0.675	0.002	Yes	2.974	-0.002	2.0	GoodResponse	1	0.279	377.053	5	39	Target	Win	True
378.053	0.3	Win2	0.675	0.002	Yes	2.974	-0.002	2.0	GoodResponse	1	0.279	n/a	5	39	ButtonPress	Win	True
378.174	0.3	Win2	0.675	n/a	Yes	2.974	n/a	n/a	GoodResponse	1	n/a	n/a	5	39	Blank	Win	True
378.474	1.45	Win2	0.675	n/a	Yes	2.974	n/a	5.0	GoodResponse	1	0.038	377.512	5	39	Feedback	Win	True
379.924	2.974	Win2	0.675	n/a	Yes	2.974	n/a	n/a	GoodResponse	1	0.0	n/a	5	39	ISIslide	Win	True
382.923	0.25	Win2	0.6829000000000001	0.0	Yes	2.727	0.023	n/a	GoodResponse	1	n/a	n/a	6	40	Cue	Win	True
383.172	3.95	Win2	0.6829000000000001	0.001	Yes	2.727	-0.001	n/a	GoodResponse	1	n/a	n/a	6	40	Fixation	Win	True
387.121	0.39	Win2	0.6829000000000001	0.002	Yes	2.727	-0.002	2.0	GoodResponse	1	0.291	386.412	6	40	Target	Win	True
387.412	0.3	Win2	0.6829000000000001	0.002	Yes	2.727	-0.002	2.0	GoodResponse	1	0.291	n/a	6	40	ButtonPress	Win	True
387.521	0.31	Win2	0.6829000000000001	n/a	Yes	2.727	n/a	n/a	GoodResponse	1	n/a	n/a	6	40	Blank	Win	True
387.821	1.45	Win2	0.6829000000000001	n/a	Yes	2.727	n/a	5.0	GoodResponse	1	0.009	386.83	6	40	Feedback	Win	True
389.27	2.727	Win2	0.6829000000000001	n/a	Yes	2.727	n/a	n/a	GoodResponse	1	0.0	n/a	6	40	ISIslide	Win	True
392.019	0.25	Win2	0.6905	0.001	Yes	2.781	0.019	n/a	GoodResponse	1	n/a	n/a	7	41	Cue	Win	True
392.269	3.9	Win2	0.6905	0.0	Yes	2.781	0.0	n/a	GoodResponse	1	n/a	n/a	7	41	Fixation	Win	True
396.168	0.38	Win2	0.6905	0.001	Yes	2.781	-0.001	2.0	GoodResponse	1	0.236	395.404	7	41	Target	Win	True
396.404	0.3	Win2	0.6905	0.001	Yes	2.781	-0.001	2.0	GoodResponse	1	0.236	n/a	7	41	ButtonPress	Win	True
396.551	0.32	Win2	0.6905	n/a	Yes	2.781	n/a	n/a	GoodResponse	1	n/a	n/a	7	41	Blank	Win	True
396.868	1.45	Win2	0.6905	n/a	Yes	2.781	n/a	5.0	GoodResponse	1	0.035	395.903	7	41	Feedback	Win	True
398.317	2.781	Win2	0.6905	n/a	Yes	2.781	n/a	n/a	GoodResponse	1	0.0	n/a	7	41	ISIslide	Win	True
401.116	0.25	Control	0.6977	0.0	Yes	2.934	0.016	n/a	GoodResponse	0	n/a	n/a	7	42	Cue	Neutral	True
401.366	3.85	Control	0.6977	0.0	Yes	2.934	0.0	n/a	GoodResponse	0	n/a	n/a	7	42	Fixation	Neutral	True
405.215	0.37	Control	0.6977	0.001	Yes	2.934	-0.001	2.0	GoodResponse	0	0.271	404.486	7	42	Target	Neutral	True
405.486	0.3	Control	0.6977	0.001	Yes	2.934	-0.001	2.0	GoodResponse	0	0.271	n/a	7	42	ButtonPress	Neutral	True
405.581	0.33	Control	0.6977	n/a	Yes	2.934	n/a	n/a	GoodResponse	0	n/a	n/a	7	42	Blank	Neutral	True
405.915	1.45	Control	0.6977	n/a	Yes	2.934	n/a	5.0	GoodResponse	0	0.012	404.927	7	42	Feedback	Neutral	True
407.364	2.934	Control	0.6977	n/a	Yes	2.934	n/a	n/a	GoodResponse	0	0.0	n/a	7	42	ISIslide	Neutral	True
410.33	0.25	Win2	0.7045	0.0	Yes	3.17	0.03	n/a	GoodResponse	1	n/a	n/a	8	43	Cue	Win	True
410.58	4.0	Win2	0.7045	0.0	Yes	3.17	0.0	n/a	GoodResponse	1	n/a	n/a	8	43	Fixation	Win	True
414.578	0.36	Win2	0.7045	0.002	Yes	3.17	-0.002	2.0	GoodResponse	1	0.265	413.843	8	43	Target	Win	True
414.843	0.3	Win2	0.7045	0.002	Yes	3.17	-0.002	2.0	GoodResponse	1	0.265	n/a	8	43	ButtonPress	Win	True
414.945	0.34	Win2	0.7045	n/a	Yes	3.17	n/a	n/a	GoodResponse	1	n/a	n/a	8	43	Blank	Win	True
415.278	1.45	Win2	0.7045	n/a	Yes	3.17	n/a	5.0	GoodResponse	1	0.015	414.293	8	43	Feedback	Win	True
416.728	3.17	Win2	0.7045	n/a	Yes	3.17	n/a	n/a	GoodResponse	1	0.0	n/a	8	43	ISIslide	Win	True
419.926	0.25	Win2	0.7111	0.001	Yes	2.974	0.026	n/a	GoodResponse	1	n/a	n/a	9	44	Cue	Win	True
420.176	4.0	Win2	0.7111	0.0	Yes	2.974	0.0	n/a	GoodResponse	1	n/a	n/a	9	44	Fixation	Win	True
424.175	0.35	Win2	0.7111	0.001	Yes	2.974	-0.001	2.0	GoodResponse	1	0.228	423.403	9	44	Target	Win	True
424.403	0.3	Win2	0.7111	0.001	Yes	2.974	-0.001	2.0	GoodResponse	1	0.228	n/a	9	44	ButtonPress	Win	True
424.525	0.35	Win2	0.7111	n/a	Yes	2.974	n/a	n/a	GoodResponse	1	n/a	n/a	9	44	Blank	Win	True
424.875	1.45	Win2	0.7111	n/a	Yes	2.974	n/a	5.0	GoodResponse	1	0.027	423.902	9	44	Feedback	Win	True
426.324	2.974	Win2	0.7111	n/a	Yes	2.974	n/a	n/a	GoodResponse	1	0.0	n/a	9	44	ISIslide	Win	True
429.323	0.25	Control	0.7173999999999999	0.0	Yes	2.877	0.023	n/a	GoodResponse	0	n/a	n/a	9	45	Cue	Neutral	True
429.573	4.1	Control	0.7173999999999999	0.0	Yes	2.877	0.0	n/a	GoodResponse	0	n/a	n/a	9	45	Fixation	Neutral	True
433.672	0.34	Control	0.7173999999999999	0.001	Yes	2.877	-0.001	2.0	GoodResponse	0	0.322	432.994	9	45	Target	Neutral	True
433.994	0.3	Control	0.7173999999999999	0.001	Yes	2.877	-0.001	2.0	GoodResponse	0	0.322	n/a	9	45	ButtonPress	Neutral	True
434.022	0.36	Control	0.7173999999999999	n/a	Yes	2.877	n/a	n/a	GoodResponse	0	n/a	n/a	9	45	Blank	Neutral	True
434.371	1.45	Control	0.7173999999999999	n/a	Yes	2.877	n/a	5.0	GoodResponse	0	0.043	433.414	9	45	Feedback	Neutral	True
435.821	2.877	Control	0.7173999999999999	n/a	Yes	2.877	n/a	n/a	GoodResponse	0	0.0	n/a	9	45	ISIslide	Neutral	True
438.72	0.25	Lose2	0.7234	0.0	Yes	3.38	0.02	n/a	GoodResponse	0	n/a	n/a	9	46	Cue	AvoidedLoss	True
438.97	4.0	Lose2	0.7234	0.0	Yes	3.38	0.0	n/a	GoodResponse	0	n/a	n/a	9	46	Fixation	AvoidedLoss	True
442.968	0.33	Lose2	0.7234	0.002	Yes	3.38	-0.002	2.0	GoodResponse	0	0.265	442.233	9	46	Target	AvoidedLoss	True
443.233	0.3	Lose2	0.7234	0.002	Yes	3.38	-0.002	2.0	GoodResponse	0	0.265	n/a	9	46	ButtonPress	AvoidedLoss	True
443.302	0.37	Lose2	0.7234	n/a	Yes	3.38	n/a	n/a	GoodResponse	0	n/a	n/a	9	46	Blank	AvoidedLoss	True
443.668	1.45	Lose2	0.7234	n/a	Yes	3.38	n/a	5.0	GoodResponse	0	0.015	442.683	9	46	Feedback	AvoidedLoss	True
445.118	3.38	Lose2	0.7234	n/a	Yes	3.38	n/a	n/a	GoodResponse	0	0.0	n/a	9	46	ISIslide	AvoidedLoss	True
448.517	0.25	Lose2	0.7292000000000001	0.0	Yes	2.683	0.017	n/a	GoodResponse	0	n/a	n/a	9	47	Cue	AvoidedLoss	True
448.766	4.0	Lose2	0.7292000000000001	0.001	Yes	2.683	-0.001	n/a	GoodResponse	0	n/a	n/a	9	47	Fixation	AvoidedLoss	True
452.765	0.32	Lose2	0.7292000000000001	0.002	Yes	2.683	-0.002	2.0	GoodResponse	0	0.277	452.042	9	47	Target	AvoidedLoss	True
453.042	0.3	Lose2	0.7292000000000001	0.002	Yes	2.683	-0.002	2.0	GoodResponse	0	0.277	n/a	9	47	ButtonPress	AvoidedLoss	True
453.098	0.38	Lose2	0.7292000000000001	n/a	Yes	2.683	n/a	n/a	GoodResponse	0	n/a	n/a	9	47	Blank	AvoidedLoss	True
453.465	1.45	Lose2	0.7292000000000001	n/a	Yes	2.683	n/a	5.0	GoodResponse	0	0.023	452.488	9	47	Feedback	AvoidedLoss	True
454.914	2.683	Lose2	0.7292000000000001	n/a	Yes	2.683	n/a	n/a	GoodResponse	0	0.0	n/a	9	47	ISIslide	AvoidedLoss	True
457.613	0.25	Lose2	0.7347	0.001	Yes	3.037	0.013	n/a	GoodResponse	0	n/a	n/a	9	48	Cue	AvoidedLoss	True
457.863	3.95	Lose2	0.7347	0.0	Yes	3.037	0.0	n/a	GoodResponse	0	n/a	n/a	9	48	Fixation	AvoidedLoss	True
461.812	0.31	Lose2	0.7347	0.001	Yes	3.037	-0.001	2.0	GoodResponse	0	0.268	461.08	9	48	Target	AvoidedLoss	True
462.08	0.3	Lose2	0.7347	0.001	Yes	3.037	-0.001	2.0	GoodResponse	0	0.268	n/a	9	48	ButtonPress	AvoidedLoss	True
462.129	0.39	Lose2	0.7347	n/a	Yes	3.037	n/a	n/a	GoodResponse	0	n/a	n/a	9	48	Blank	AvoidedLoss	True
462.512	1.45	Lose2	0.7347	n/a	Yes	3.037	n/a	5.0	GoodResponse	0	0.049	461.561	9	48	Feedback	AvoidedLoss	True
463.961	3.037	Lose2	0.7347	n/a	Yes	3.037	n/a	n/a	GoodResponse	0	0.0	n/a	9	48	ISIslide	AvoidedLoss	True
467.027	0.25	Control	0.72	0.0	No	2.873	0.027	n/a	NoResponse	0	n/a	n/a	9	49	Cue	Neutral	True
467.277	4.0	Control	0.72	0.0	No	2.873	0.0	n/a	NoResponse	0	n/a	n/a	9	49	Fixation	Neutral	True
471.275	0.3	Control	0.72	0.002	No	2.873	-0.002	2.0	NoResponse	0	0.318	470.593	9	49	Target	Neutral	True
471.575	0.4	Control	0.72	n/a	No	2.873	n/a	n/a	NoResponse	0	n/a	n/a	9	49	Blank	Neutral	True
471.593	0.3	Control	0.72	0.002	No	2.873	-0.002	2.0	NoResponse	0	0.318	n/a	9	49	ButtonPress	Neutral	True
471.975	1.45	Control	0.72	n/a	No	2.873	n/a	5.0	NoResponse	0	0.001	470.976	9	49	Feedback	Neutral	True
473.425	2.873	Control	0.72	n/a	No	2.873	n/a	n/a	NoResponse	0	0.0	n/a	9	49	ISIslide	Neutral	True
476.324	0.25	Control	0.7059000000000001	0.0	No	2.776	0.024	n/a	NoResponse	0	n/a	n/a	9	50	Cue	Neutral	True
476.574	4.0	Control	0.7059000000000001	0.0	No	2.776	0.0	n/a	NoResponse	0	n/a	n/a	9	50	Fixation	Neutral	True
480.572	0.29	Control	0.7059000000000001	0.002	No	2.776	-0.002	2.0	NoResponse	0	0.357	479.929	9	50	Target	Neutral	True
480.872	0.41	Control	0.7059000000000001	n/a	No	2.776	n/a	n/a	NoResponse	0	n/a	n/a	9	50	Blank	Neutral	True
480.929	0.3	Control	0.7059000000000001	0.002	No	2.776	-0.002	2.0	NoResponse	0	0.357	n/a	9	50	ButtonPress	Neutral	True
481.272	1.45	Control	0.7059000000000001	n/a	No	2.776	n/a	5.0	NoResponse	0	0.02	480.292	9	50	Feedback	Neutral	True
482.721	2.776	Control	0.7059000000000001	n/a	No	2.776	n/a	n/a	NoResponse	0	0.0	n/a	9	50	ISIslide	Neutral	True
485.52	0.25	Control	0.7115	0.001	Yes	2.73	0.02	n/a	GoodResponse	0	n/a	n/a	9	51	Cue	Neutral	True
485.77	3.95	Control	0.7115	0.0	Yes	2.73	0.0	n/a	GoodResponse	0	n/a	n/a	9	51	Fixation	Neutral	True
489.719	0.28	Control	0.7115	0.001	Yes	2.73	-0.001	2.0	GoodResponse	0	0.24	488.959	9	51	Target	Neutral	True
489.959	0.3	Control	0.7115	0.001	Yes	2.73	-0.001	2.0	GoodResponse	0	0.24	n/a	9	51	ButtonPress	Neutral	True
490.002	0.42	Control	0.7115	n/a	Yes	2.73	n/a	n/a	GoodResponse	0	n/a	n/a	9	51	Blank	Neutral	True
490.419	1.45	Control	0.7115	n/a	Yes	2.73	n/a	5.0	GoodResponse	0	0.044	489.463	9	51	Feedback	Neutral	True
491.868	2.73	Control	0.7115	n/a	Yes	2.73	n/a	n/a	GoodResponse	0	0.0	n/a	9	51	ISIslide	Neutral	True
494.617	0.25	Control	0.6981	0.0	No	2.633	0.017	n/a	NoResponse	0	n/a	n/a	9	52	Cue	Neutral	True
494.867	4.05	Control	0.6981	0.0	No	2.633	0.0	n/a	NoResponse	0	n/a	n/a	9	52	Fixation	Neutral	True
498.916	0.27	Control	0.6981	0.001	No	2.633	-0.001	2.0	NoResponse	0	0.341	498.257	9	52	Target	Neutral	True
499.182	0.43	Control	0.6981	n/a	No	2.633	n/a	n/a	NoResponse	0	n/a	n/a	9	52	Blank	Neutral	True
499.257	0.3	Control	0.6981	0.001	No	2.633	-0.001	2.0	NoResponse	0	0.341	n/a	9	52	ButtonPress	Neutral	True
499.616	1.45	Control	0.6981	n/a	No	2.633	n/a	5.0	NoResponse	0	0.018	498.634	9	52	Feedback	Neutral	True
501.065	2.633	Control	0.6981	n/a	No	2.633	n/a	n/a	NoResponse	0	0.0	n/a	9	52	ISIslide	Neutral	True
503.714	0.25	Win2	0.6851999999999999	0.0	No	2.936	0.014	n/a	NoResponse	0	n/a	n/a	9	53	Cue	MissedWin	True
503.964	4.05	Win2	0.6851999999999999	0.0	No	2.936	0.0	n/a	NoResponse	0	n/a	n/a	9	53	Fixation	MissedWin	True
508.013	0.26	Win2	0.6851999999999999	0.001	No	2.936	-0.001	2.0	NoResponse	0	0.279	507.292	9	53	Target	MissedWin	True
508.279	0.44	Win2	0.6851999999999999	n/a	No	2.936	n/a	n/a	NoResponse	0	n/a	n/a	9	53	Blank	MissedWin	True
508.292	0.3	Win2	0.6851999999999999	0.001	No	2.936	-0.001	2.0	NoResponse	0	0.279	n/a	9	53	ButtonPress	MissedWin	True
508.712	1.45	Win2	0.6851999999999999	n/a	No	2.936	n/a	5.0	NoResponse	0	0.044	507.756	9	53	Feedback	MissedWin	True
510.162	2.936	Win2	0.6851999999999999	n/a	No	2.936	n/a	n/a	NoResponse	0	0.0	n/a	9	53	ISIslide	MissedWin	True
513.128	0.25	Win2	0.6727	0.0	No	2.722	0.028	n/a	NoResponse	0	n/a	n/a	9	54	Cue	MissedWin	True
513.377	3.95	Win2	0.6727	0.001	No	2.722	-0.001	n/a	NoResponse	0	n/a	n/a	9	54	Fixation	MissedWin	True
517.326	0.25	Win2	0.6727	0.002	No	2.722	-0.002	2.0	NoResponse	0	0.306	516.632	9	54	Target	MissedWin	True
517.576	0.45	Win2	0.6727	n/a	No	2.722	n/a	n/a	NoResponse	0	n/a	n/a	9	54	Blank	MissedWin	True
517.632	0.3	Win2	0.6727	0.002	No	2.722	-0.002	2.0	NoResponse	0	0.306	n/a	9	54	ButtonPress	MissedWin	True
518.026	1.45	Win2	0.6727	n/a	No	2.722	n/a	5.0	NoResponse	0	0.047	517.073	9	54	Feedback	MissedWin	True
519.475	2.722	Win2	0.6727	n/a	No	2.722	n/a	n/a	NoResponse	0	0.0	n/a	9	54	ISIslide	MissedWin	True
522.224	0.25	Control	0.6607	0.001	No	3.026	0.024	n/a	NoResponse	0	n/a	n/a	9	55	Cue	Neutral	True
522.474	3.95	Control	0.6607	0.0	No	3.026	0.0	n/a	NoResponse	0	n/a	n/a	9	55	Fixation	Neutral	True
526.423	0.24	Control	0.6607	0.001	No	3.026	-0.001	2.0	NoResponse	0	0.299	525.722	9	55	Target	Neutral	True
526.673	0.46	Control	0.6607	n/a	No	3.026	n/a	n/a	NoResponse	0	n/a	n/a	9	55	Blank	Neutral	True
526.722	0.3	Control	0.6607	0.001	No	3.026	-0.001	2.0	NoResponse	0	0.299	n/a	9	55	ButtonPress	Neutral	True
527.123	1.45	Control	0.6607	n/a	No	3.026	n/a	5.0	NoResponse	0	0.023	526.146	9	55	Feedback	Neutral	True
528.572	3.026	Control	0.6607	n/a	No	3.026	n/a	n/a	NoResponse	0	0.0	n/a	9	55	ISIslide	Neutral	True
531.621	0.25	Control	0.6491	0.0	No	2.829	0.021	n/a	NoResponse	0	n/a	n/a	9	56	Cue	Neutral	True
531.871	3.95	Control	0.6491	0.0	No	2.829	0.0	n/a	NoResponse	0	n/a	n/a	9	56	Fixation	Neutral	True
535.82	0.24	Control	0.6491	0.001	No	2.829	-0.001	2.0	NoResponse	0	0.277	535.097	9	56	Target	Neutral	True
536.07	0.46	Control	0.6491	n/a	No	2.829	n/a	n/a	NoResponse	0	n/a	n/a	9	56	Blank	Neutral	True
536.097	0.3	Control	0.6491	0.001	No	2.829	-0.001	2.0	NoResponse	0	0.277	n/a	9	56	ButtonPress	Neutral	True
536.519	1.45	Control	0.6491	n/a	No	2.829	n/a	5.0	NoResponse	0	0.041	535.56	9	56	Feedback	Neutral	True
537.969	2.829	Control	0.6491	n/a	No	2.829	n/a	n/a	NoResponse	0	0.0	n/a	9	56	ISIslide	Neutral	True
540.818	0.25	Control	0.6552	0.0	Yes	3.482	0.018	n/a	GoodResponse	0	n/a	n/a	9	57	Cue	Neutral	True
541.068	4.0	Control	0.6552	0.0	Yes	3.482	0.0	n/a	GoodResponse	0	n/a	n/a	9	57	Fixation	Neutral	True
545.067	0.25	Control	0.6552	0.001	Yes	3.482	-0.001	2.0	GoodResponse	0	0.249	544.316	9	57	Target	Neutral	True
545.316	0.45	Control	0.6552	n/a	Yes	3.482	n/a	n/a	GoodResponse	0	n/a	n/a	9	57	Blank	Neutral	True
545.316	0.3	Control	0.6552	0.001	Yes	3.482	-0.001	2.0	GoodResponse	0	0.249	n/a	9	57	ButtonPress	Neutral	True
545.766	1.45	Control	0.6552	n/a	Yes	3.482	n/a	5.0	GoodResponse	0	0.014	544.78	9	57	Feedback	Neutral	True
547.216	3.482	Control	0.6552	n/a	Yes	3.482	n/a	n/a	GoodResponse	0	0.0	n/a	9	57	ISIslide	Neutral	True
550.715	0.25	Win2	0.6441	0.0	No	2.735	0.015	n/a	NoResponse	0	n/a	n/a	9	58	Cue	MissedWin	True
550.964	4.05	Win2	0.6441	0.001	No	2.735	-0.001	n/a	NoResponse	0	n/a	n/a	9	58	Fixation	MissedWin	True
555.013	0.25	Win2	0.6441	0.002	No	2.735	-0.002	2.0	NoResponse	0	0.312	554.325	9	58	Target	MissedWin	True
555.263	0.45	Win2	0.6441	n/a	No	2.735	n/a	n/a	NoResponse	0	n/a	n/a	9	58	Blank	MissedWin	True
555.325	0.3	Win2	0.6441	0.002	No	2.735	-0.002	2.0	NoResponse	0	0.312	n/a	9	58	ButtonPress	MissedWin	True
555.713	1.45	Win2	0.6441	n/a	No	2.735	n/a	5.0	NoResponse	0	0.018	554.731	9	58	Feedback	MissedWin	True
557.162	2.735	Win2	0.6441	n/a	No	2.735	n/a	n/a	NoResponse	0	0.0	n/a	9	58	ISIslide	MissedWin	True
559.928	0.25	Lose2	0.6333	0.0	No	2.672	0.028	n/a	NoResponse	-1	n/a	n/a	8	59	Cue	Loss	True
560.178	4.0	Lose2	0.6333	0.0	No	2.672	0.0	n/a	NoResponse	-1	n/a	n/a	8	59	Fixation	Loss	True
564.177	0.26	Lose2	0.6333	0.001	No	2.672	-0.001	2.0	NoResponse	-1	0.33	563.507	8	59	Target	Loss	True
564.443	0.44	Lose2	0.6333	n/a	No	2.672	n/a	n/a	NoResponse	-1	n/a	n/a	8	59	Blank	Loss	True
564.507	0.3	Lose2	0.6333	0.001	No	2.672	-0.001	2.0	NoResponse	-1	0.33	n/a	8	59	ButtonPress	Loss	True
564.876	1.45	Lose2	0.6333	n/a	No	2.672	n/a	5.0	NoResponse	-1	0.026	563.902	8	59	Feedback	Loss	True
566.326	2.672	Lose2	0.6333	n/a	No	2.672	n/a	n/a	NoResponse	-1	0.0	n/a	8	59	ISIslide	Loss	True
569.025	0.25	Control	0.623	0.0	No	2.675	0.025	n/a	NoResponse	0	n/a	n/a	8	60	Cue	Neutral	True
569.275	4.0	Control	0.623	0.0	No	2.675	0.0	n/a	NoResponse	0	n/a	n/a	8	60	Fixation	Neutral	True
573.273	0.27	Control	0.623	0.002	No	2.675	-0.002	2.0	NoResponse	0	0.333	572.606	8	60	Target	Neutral	True
573.557	0.43	Control	0.623	n/a	No	2.675	n/a	n/a	NoResponse	0	n/a	n/a	8	60	Blank	Neutral	True
573.606	0.3	Control	0.623	0.002	No	2.675	-0.002	2.0	NoResponse	0	0.333	n/a	8	60	ButtonPress	Neutral	True
573.973	1.45	Control	0.623	n/a	No	2.675	n/a	5.0	NoResponse	0	0.002	572.975	8	60	Feedback	Neutral	True
575.423	2.675	Control	0.623	n/a	No	2.675	n/a	n/a	NoResponse	0	0.0	n/a	8	60	ISIslide	Neutral	True
578.122	0.25	Lose2	0.629	0.0	Yes	2.978	0.022	n/a	GoodResponse	0	n/a	n/a	8	61	Cue	AvoidedLoss	True
578.372	4.0	Lose2	0.629	0.0	Yes	2.978	0.0	n/a	GoodResponse	0	n/a	n/a	8	61	Fixation	AvoidedLoss	True
582.37	0.28	Lose2	0.629	0.002	Yes	2.978	-0.002	2.0	GoodResponse	0	0.258	581.628	8	61	Target	AvoidedLoss	True
582.628	0.3	Lose2	0.629	0.002	Yes	2.978	-0.002	2.0	GoodResponse	0	0.258	n/a	8	61	ButtonPress	AvoidedLoss	True
582.654	0.42	Lose2	0.629	n/a	Yes	2.978	n/a	n/a	GoodResponse	0	n/a	n/a	8	61	Blank	AvoidedLoss	True
583.07	1.45	Lose2	0.629	n/a	Yes	2.978	n/a	5.0	GoodResponse	0	0.027	582.097	8	61	Feedback	AvoidedLoss	True
584.52	2.978	Lose2	0.629	n/a	Yes	2.978	n/a	n/a	GoodResponse	0	0.0	n/a	8	61	ISIslide	AvoidedLoss	True
587.518	0.25	Lose2	0.619	0.001	No	2.882	0.018	n/a	NoResponse	-1	n/a	n/a	7	62	Cue	Loss	True
587.768	3.9	Lose2	0.619	0.001	No	2.882	0.0	n/a	NoResponse	-1	n/a	n/a	7	62	Fixation	Loss	True
591.667	0.29	Lose2	0.619	0.001	No	2.882	-0.001	2.0	NoResponse	-1	0.313	590.98	7	62	Target	Loss	True
591.967	0.41	Lose2	0.619	n/a	No	2.882	n/a	n/a	NoResponse	-1	n/a	n/a	7	62	Blank	Loss	True
591.98	0.3	Lose2	0.619	0.001	No	2.882	-0.001	2.0	NoResponse	-1	0.313	n/a	7	62	ButtonPress	Loss	True
592.367	1.45	Lose2	0.619	n/a	No	2.882	n/a	5.0	NoResponse	-1	0.048	591.415	7	62	Feedback	Loss	True
593.816	2.882	Lose2	0.619	n/a	No	2.882	n/a	n/a	NoResponse	-1	0.0	n/a	7	62	ISIslide	Loss	True
596.715	0.25	Lose2	0.6093999999999999	0.0	No	2.635	0.015	n/a	NoResponse	-1	n/a	n/a	6	63	Cue	Loss	True
596.965	4.05	Lose2	0.6093999999999999	0.0	No	2.635	0.0	n/a	NoResponse	-1	n/a	n/a	6	63	Fixation	Loss	True
601.014	0.3	Lose2	0.6093999999999999	0.001	No	2.635	-0.001	2.0	NoResponse	-1	0.424	600.438	6	63	Target	Loss	True
601.314	0.4	Lose2	0.6093999999999999	n/a	No	2.635	n/a	n/a	NoResponse	-1	n/a	n/a	6	63	Blank	Loss	True
601.438	0.3	Lose2	0.6093999999999999	0.001	No	2.635	-0.001	2.0	NoResponse	-1	0.424	n/a	6	63	ButtonPress	Loss	True
601.714	1.45	Lose2	0.6093999999999999	n/a	No	2.635	n/a	5.0	NoResponse	-1	0.017	600.731	6	63	Feedback	Loss	True
603.163	2.635	Lose2	0.6093999999999999	n/a	No	2.635	n/a	n/a	NoResponse	-1	0.0	n/a	6	63	ISIslide	Loss	True
605.829	0.25	Win2	0.6154	0.0	Yes	3.121	0.029	n/a	GoodResponse	1	n/a	n/a	7	64	Cue	Win	True
606.079	4.15	Win2	0.6154	0.0	Yes	3.121	0.0	n/a	GoodResponse	1	n/a	n/a	7	64	Fixation	Win	True
610.227	0.31	Win2	0.6154	0.002	Yes	3.121	-0.002	2.0	GoodResponse	1	0.265	609.492	7	64	Target	Win	True
610.492	0.3	Win2	0.6154	0.002	Yes	3.121	-0.002	2.0	GoodResponse	1	0.265	n/a	7	64	ButtonPress	Win	True
610.544	0.39	Win2	0.6154	n/a	Yes	3.121	n/a	n/a	GoodResponse	1	n/a	n/a	7	64	Blank	Win	True
610.927	1.45	Win2	0.6154	n/a	Yes	3.121	n/a	5.0	GoodResponse	1	0.023	609.95	7	64	Feedback	Win	True
612.377	3.121	Win2	0.6154	n/a	Yes	3.121	n/a	n/a	GoodResponse	1	0.0	n/a	7	64	ISIslide	Win	True
615.525	0.25	Control	0.6212	0.001	Yes	2.775	0.025	n/a	GoodResponse	0	n/a	n/a	7	65	Cue	Neutral	False
615.775	4.0	Control	0.6212	0.0	Yes	2.775	0.0	2.0	GoodResponse	0	0.788	615.563	7	65	Fixation	Neutral	False
616.563	0.3	Control	0.6212	0.0	Yes	2.775	0.0	2.0	GoodResponse	0	0.788	n/a	7	65	ButtonPress	Neutral	False
619.774	0.32	Control	0.6212	0.001	Yes	2.775	-0.001	2.0	GoodResponse	0	0.278	619.052	7	65	Target	Neutral	False
620.052	0.3	Control	0.6212	0.001	Yes	2.775	-0.001	2.0	GoodResponse	0	0.278	n/a	7	65	ButtonPress	Neutral	False
620.091	0.38	Control	0.6212	n/a	Yes	2.775	n/a	n/a	GoodResponse	0	n/a	n/a	7	65	Blank	Neutral	False
620.474	1.45	Control	0.6212	n/a	Yes	2.775	n/a	5.0	GoodResponse	0	0.038	619.512	7	65	Feedback	Neutral	False
621.923	2.775	Control	0.6212	n/a	Yes	2.775	n/a	n/a	GoodResponse	0	0.0	n/a	7	65	ISIslide	Neutral	False
624.722	0.25	Win2	0.6119	0.0	No	2.778	0.022	n/a	NoResponse	0	n/a	n/a	7	66	Cue	MissedWin	True
624.972	3.9	Win2	0.6119	0.0	No	2.778	0.0	n/a	NoResponse	0	n/a	n/a	7	66	Fixation	MissedWin	True
628.871	0.33	Win2	0.6119	0.001	No	2.778	-0.001	2.0	NoResponse	0	0.349	628.22	7	66	Target	MissedWin	True
629.204	0.37	Win2	0.6119	n/a	No	2.778	n/a	n/a	NoResponse	0	n/a	n/a	7	66	Blank	MissedWin	True
629.22	0.3	Win2	0.6119	0.001	No	2.778	-0.001	2.0	NoResponse	0	0.349	n/a	7	66	ButtonPress	MissedWin	True
629.571	1.45	Win2	0.6119	n/a	No	2.778	n/a	5.0	NoResponse	0	0.014	628.585	7	66	Feedback	MissedWin	True
631.02	2.778	Win2	0.6119	n/a	No	2.778	n/a	n/a	NoResponse	0	0.0	n/a	7	66	ISIslide	MissedWin	True
633.819	0.25	Control	0.6175999999999999	0.0	Yes	2.731	0.019	n/a	GoodResponse	0	n/a	n/a	7	67	Cue	Neutral	True
634.069	3.95	Control	0.6175999999999999	0.0	Yes	2.731	0.0	n/a	GoodResponse	0	n/a	n/a	7	67	Fixation	Neutral	True
638.018	0.34	Control	0.6175999999999999	0.001	Yes	2.731	-0.001	2.0	GoodResponse	0	0.307	637.325	7	67	Target	Neutral	True
638.325	0.3	Control	0.6175999999999999	0.001	Yes	2.731	-0.001	2.0	GoodResponse	0	0.307	n/a	7	67	ButtonPress	Neutral	True
638.368	0.36	Control	0.6175999999999999	n/a	Yes	2.731	n/a	n/a	GoodResponse	0	n/a	n/a	7	67	Blank	Neutral	True
638.717	1.45	Control	0.6175999999999999	n/a	Yes	2.731	n/a	5.0	GoodResponse	0	0.039	637.756	7	67	Feedback	Neutral	True
640.167	2.731	Control	0.6175999999999999	n/a	Yes	2.731	n/a	n/a	GoodResponse	0	0.0	n/a	7	67	ISIslide	Neutral	True
642.916	0.25	Win2	0.6232	0.0	Yes	3.084	0.016	n/a	GoodResponse	1	n/a	n/a	8	68	Cue	Win	False
643.166	4.0	Win2	0.6232	0.0	Yes	3.084	0.0	2.0	GoodResponse	1	0.15	642.316	8	68	Fixation	Win	False
643.316	0.3	Win2	0.6232	0.0	Yes	3.084	0.0	2.0	GoodResponse	1	0.15	n/a	8	68	ButtonPress	Win	False
647.165	0.35	Win2	0.6232	0.001	Yes	3.084	-0.001	2.0	GoodResponse	1	0.242	646.407	8	68	Target	Win	False
647.407	0.3	Win2	0.6232	0.001	Yes	3.084	-0.001	2.0	GoodResponse	1	0.242	n/a	8	68	ButtonPress	Win	False
647.514	0.35	Win2	0.6232	n/a	Yes	3.084	n/a	n/a	GoodResponse	1	n/a	n/a	8	68	Blank	Win	False
647.864	1.45	Win2	0.6232	n/a	Yes	3.084	n/a	5.0	GoodResponse	1	0.014	646.878	8	68	Feedback	Win	False
649.314	3.084	Win2	0.6232	n/a	Yes	3.084	n/a	n/a	GoodResponse	1	0.0	n/a	8	68	ISIslide	Win	False
652.429	0.25	Win2	0.6286	0.0	Yes	3.221	0.029	n/a	GoodResponse	1	n/a	n/a	9	69	Cue	Win	True
652.679	3.95	Win2	0.6286	0.0	Yes	3.221	0.0	n/a	GoodResponse	1	n/a	n/a	9	69	Fixation	Win	True
656.628	0.36	Win2	0.6286	0.001	Yes	3.221	-0.001	2.0	GoodResponse	1	0.349	655.977	9	69	Target	Win	True
656.977	0.3	Win2	0.6286	0.001	Yes	3.221	-0.001	2.0	GoodResponse	1	0.349	n/a	9	69	ButtonPress	Win	True
656.994	0.34	Win2	0.6286	n/a	Yes	3.221	n/a	n/a	GoodResponse	1	n/a	n/a	9	69	Blank	Win	True
657.328	1.45	Win2	0.6286	n/a	Yes	3.221	n/a	5.0	GoodResponse	1	0.012	656.34	9	69	Feedback	Win	True
658.777	3.221	Win2	0.6286	n/a	Yes	3.221	n/a	n/a	GoodResponse	1	0.0	n/a	9	69	ISIslide	Win	True
662.026	0.25	Lose2	0.6338	0.0	Yes	3.024	0.026	n/a	GoodResponse	0	n/a	n/a	9	70	Cue	AvoidedLoss	True
662.276	4.05	Lose2	0.6338	0.0	Yes	3.024	0.0	n/a	GoodResponse	0	n/a	n/a	9	70	Fixation	AvoidedLoss	True
666.325	0.37	Lose2	0.6338	0.001	Yes	3.024	-0.001	2.0	GoodResponse	0	0.319	665.644	9	70	Target	AvoidedLoss	True
666.644	0.3	Lose2	0.6338	0.001	Yes	3.024	-0.001	2.0	GoodResponse	0	0.319	n/a	9	70	ButtonPress	AvoidedLoss	True
666.708	0.33	Lose2	0.6338	n/a	Yes	3.024	n/a	n/a	GoodResponse	0	n/a	n/a	9	70	Blank	AvoidedLoss	True
667.024	1.45	Lose2	0.6338	n/a	Yes	3.024	n/a	5.0	GoodResponse	0	0.024	666.048	9	70	Feedback	AvoidedLoss	True
668.474	3.024	Lose2	0.6338	n/a	Yes	3.024	n/a	n/a	GoodResponse	0	0.0	n/a	9	70	ISIslide	AvoidedLoss	True
671.523	0.25	Win2	0.6389	0.0	Yes	2.727	0.023	n/a	GoodResponse	1	n/a	n/a	10	71	Cue	Win	True
671.773	4.05	Win2	0.6389	0.0	Yes	2.727	0.0	n/a	GoodResponse	1	n/a	n/a	10	71	Fixation	Win	True
675.821	0.38	Win2	0.6389	0.002	Yes	2.727	-0.002	2.0	GoodResponse	1	0.279	675.1	10	71	Target	Win	True
676.1	0.3	Win2	0.6389	0.002	Yes	2.727	-0.002	2.0	GoodResponse	1	0.279	n/a	10	71	ButtonPress	Win	True
676.204	0.32	Win2	0.6389	n/a	Yes	2.727	n/a	n/a	GoodResponse	1	n/a	n/a	10	71	Blank	Win	True
676.521	1.45	Win2	0.6389	n/a	Yes	2.727	n/a	5.0	GoodResponse	1	0.039	675.56	10	71	Feedback	Win	True
677.971	2.727	Win2	0.6389	n/a	Yes	2.727	n/a	n/a	GoodResponse	1	0.0	n/a	10	71	ISIslide	Win	True
680.72	0.25	Win2	0.6437999999999999	0.0	Yes	2.78	0.02	n/a	GoodResponse	1	n/a	n/a	11	72	Cue	Win	True
680.97	4.1	Win2	0.6437999999999999	0.0	Yes	2.78	0.0	n/a	GoodResponse	1	n/a	n/a	11	72	Fixation	Win	True
685.068	0.39	Win2	0.6437999999999999	0.002	Yes	2.78	-0.002	2.0	GoodResponse	1	0.236	684.304	11	72	Target	Win	True
685.304	0.3	Win2	0.6437999999999999	0.002	Yes	2.78	-0.002	2.0	GoodResponse	1	0.236	n/a	11	72	ButtonPress	Win	True
685.468	0.31	Win2	0.6437999999999999	n/a	Yes	2.78	n/a	n/a	GoodResponse	1	n/a	n/a	11	72	Blank	Win	True
685.768	1.45	Win2	0.6437999999999999	n/a	Yes	2.78	n/a	5.0	GoodResponse	1	0.012	684.78	11	72	Feedback	Win	True
687.217	2.78	Win2	0.6437999999999999	n/a	Yes	2.78	n/a	n/a	GoodResponse	1	0.0	n/a	11	72	ISIslide	Win	True
690.016	0.25	Win2	0.6486	0.0	Yes	2.684	0.016	n/a	GoodResponse	1	n/a	n/a	12	73	Cue	Win	True
690.266	4.0	Win2	0.6486	0.0	Yes	2.684	0.0	n/a	GoodResponse	1	n/a	n/a	12	73	Fixation	Win	True
694.265	0.4	Win2	0.6486	0.001	Yes	2.684	-0.001	2.0	GoodResponse	1	0.248	693.513	12	73	Target	Win	True
694.513	0.3	Win2	0.6486	0.001	Yes	2.684	-0.001	2.0	GoodResponse	1	0.248	n/a	12	73	ButtonPress	Win	True
694.665	0.3	Win2	0.6486	n/a	Yes	2.684	n/a	n/a	GoodResponse	1	n/a	n/a	12	73	Blank	Win	True
694.965	1.45	Win2	0.6486	n/a	Yes	2.684	n/a	5.0	GoodResponse	1	0.034	693.999	12	73	Feedback	Win	True
696.414	2.684	Win2	0.6486	n/a	Yes	2.684	n/a	n/a	GoodResponse	1	0.0	n/a	12	73	ISIslide	Win	True
699.13	0.25	Lose2	0.6533	0.0	Yes	2.62	0.03	n/a	GoodResponse	0	n/a	n/a	12	74	Cue	AvoidedLoss	True
699.38	4.05	Lose2	0.6533	0.0	Yes	2.62	0.0	n/a	GoodResponse	0	n/a	n/a	12	74	Fixation	AvoidedLoss	True
703.428	0.41	Lose2	0.6533	0.002	Yes	2.62	-0.002	2.0	GoodResponse	0	0.238	702.666	12	74	Target	AvoidedLoss	True
703.666	0.3	Lose2	0.6533	0.002	Yes	2.62	-0.002	2.0	GoodResponse	0	0.238	n/a	12	74	ButtonPress	AvoidedLoss	True
703.845	0.29	Lose2	0.6533	n/a	Yes	2.62	n/a	n/a	GoodResponse	0	n/a	n/a	12	74	Blank	AvoidedLoss	True
704.128	1.45	Lose2	0.6533	n/a	Yes	2.62	n/a	5.0	GoodResponse	0	0.042	703.17	12	74	Feedback	AvoidedLoss	True
705.578	2.62	Lose2	0.6533	n/a	Yes	2.62	n/a	n/a	GoodResponse	0	0.0	n/a	12	74	ISIslide	AvoidedLoss	True
708.227	0.25	Lose2	0.6579	0.0	Yes	2.923	0.027	n/a	GoodResponse	0	n/a	n/a	12	75	Cue	AvoidedLoss	True
708.477	3.95	Lose2	0.6579	0.0	Yes	2.923	0.0	n/a	GoodResponse	0	n/a	n/a	12	75	Fixation	AvoidedLoss	True
712.425	0.42	Lose2	0.6579	0.002	Yes	2.923	-0.002	2.0	GoodResponse	0	0.283	711.708	12	75	Target	AvoidedLoss	True
712.708	0.3	Lose2	0.6579	0.002	Yes	2.923	-0.002	2.0	GoodResponse	0	0.283	n/a	12	75	ButtonPress	AvoidedLoss	True
712.858	0.28	Lose2	0.6579	n/a	Yes	2.923	n/a	n/a	GoodResponse	0	n/a	n/a	12	75	Blank	AvoidedLoss	True
713.125	1.45	Lose2	0.6579	n/a	Yes	2.923	n/a	5.0	GoodResponse	0	0.021	712.146	12	75	Feedback	AvoidedLoss	True
714.575	2.923	Lose2	0.6579	n/a	Yes	2.923	n/a	n/a	GoodResponse	0	0.0	n/a	12	75	ISIslide	AvoidedLoss	True
717.524	0.25	Control	0.6623	0.0	Yes	3.226	0.024	n/a	GoodResponse	0	n/a	n/a	12	76	Cue	Neutral	True
717.773	4.05	Control	0.6623	0.001	Yes	3.226	-0.001	n/a	GoodResponse	0	n/a	n/a	12	76	Fixation	Neutral	True
721.822	0.42	Control	0.6623	0.002	Yes	3.226	-0.002	2.0	GoodResponse	0	0.267	721.089	12	76	Target	Neutral	True
722.089	0.3	Control	0.6623	0.002	Yes	3.226	-0.002	2.0	GoodResponse	0	0.267	n/a	12	76	ButtonPress	Neutral	True
722.255	0.28	Control	0.6623	n/a	Yes	3.226	n/a	n/a	GoodResponse	0	n/a	n/a	12	76	Blank	Neutral	True
722.522	1.45	Control	0.6623	n/a	Yes	3.226	n/a	5.0	GoodResponse	0	0.038	721.56	12	76	Feedback	Neutral	True
723.971	3.226	Control	0.6623	n/a	Yes	3.226	n/a	n/a	GoodResponse	0	0.0	n/a	12	76	ISIslide	Neutral	True
727.22	0.25	Lose2	0.6667000000000001	0.0	Yes	2.58	0.02	n/a	GoodResponse	0	n/a	n/a	12	77	Cue	AvoidedLoss	True
727.47	3.95	Lose2	0.6667000000000001	0.0	Yes	2.58	0.0	n/a	GoodResponse	0	n/a	n/a	12	77	Fixation	AvoidedLoss	True
731.419	0.42	Lose2	0.6667000000000001	0.001	Yes	2.58	-0.001	2.0	GoodResponse	0	0.293	730.712	12	77	Target	AvoidedLoss	True
731.712	0.3	Lose2	0.6667000000000001	0.001	Yes	2.58	-0.001	2.0	GoodResponse	0	0.293	n/a	12	77	ButtonPress	AvoidedLoss	True
731.852	0.28	Lose2	0.6667000000000001	n/a	Yes	2.58	n/a	n/a	GoodResponse	0	n/a	n/a	12	77	Blank	AvoidedLoss	True
732.118	1.45	Lose2	0.6667000000000001	n/a	Yes	2.58	n/a	5.0	GoodResponse	0	0.008	731.126	12	77	Feedback	AvoidedLoss	True
733.568	2.58	Lose2	0.6667000000000001	n/a	Yes	2.58	n/a	n/a	GoodResponse	0	0.0	n/a	12	77	ISIslide	AvoidedLoss	True
