onset	duration	cue_type	current_mean_accuracy	duration_error	is_hit	isi_adjusted	onset_delay	response	response_type	reward	rt	rt_time	total_reward	trial_number	trial_phase	trial_type	one_press
11.097	0.25	Control	1.0	0.0	Yes	2.953	-0.003	n/a	GoodResponse	0	n/a	n/a	0	0	Cue	Neutral	True
11.348	3.85	Control	1.0	0.0	Yes	2.953	0.001	n/a	GoodResponse	0	n/a	n/a	0	0	Fixation	Neutral	True
15.193	0.4	Control	1.0	0.004	Yes	2.953	-0.004	2.0	GoodResponse	0	0.26	14.453	0	0	Target	Neutral	True
15.453	0.3	Control	1.0	0.004	Yes	2.953	-0.004	2.0	GoodResponse	0	0.26	n/a	0	0	ButtonPress	Neutral	True
15.594	0.3	Control	1.0	n/a	Yes	2.953	n/a	n/a	GoodResponse	0	n/a	n/a	0	0	Blank	Neutral	True
15.895	1.45	Control	1.0	n/a	Yes	2.953	n/a	5.0	GoodResponse	0	0.03	14.925	0	0	Feedback	Neutral	True
17.349	2.953	Control	1.0	n/a	Yes	2.953	n/a	n/a	GoodResponse	0	0.0	n/a	0	0	ISIslide	Neutral	True
20.375	0.25	Lose2	1.0	0.0	Yes	2.725	0.075	n/a	GoodResponse	0	n/a	n/a	0	1	Cue	AvoidedLoss	True
20.626	4.0	Lose2	1.0	0.0	Yes	2.725	0.001	n/a	GoodResponse	0	n/a	n/a	0	1	Fixation	AvoidedLoss	True
24.621	0.39	Lose2	1.0	0.004	Yes	2.725	-0.004	2.0	GoodResponse	0	0.247	23.868	0	1	Target	AvoidedLoss	True
24.868	0.3	Lose2	1.0	0.004	Yes	2.725	-0.004	2.0	GoodResponse	0	0.247	n/a	0	1	ButtonPress	AvoidedLoss	True
25.022	0.31	Lose2	1.0	n/a	Yes	2.725	n/a	n/a	GoodResponse	0	n/a	n/a	0	1	Blank	AvoidedLoss	True
25.323	1.45	Lose2	1.0	n/a	Yes	2.725	n/a	5.0	GoodResponse	0	0.017	24.34	0	1	Feedback	AvoidedLoss	True
26.778	2.725	Lose2	1.0	n/a	Yes	2.725	n/a	n/a	GoodResponse	0	0.0	n/a	0	1	ISIslide	AvoidedLoss	True
29.519	0.25	Control	1.0	0.0	Yes	2.581	0.019	n/a	GoodResponse	0	n/a	n/a	0	2	Cue	Neutral	True
29.77	4.1	Control	1.0	0.0	Yes	2.581	0.001	n/a	GoodResponse	0	n/a	n/a	0	2	Fixation	Neutral	True
33.865	0.38	Control	1.0	0.004	Yes	2.581	-0.004	2.0	GoodResponse	0	0.209	33.074	0	2	Target	Neutral	True
34.074	0.3	Control	1.0	0.004	Yes	2.581	-0.004	2.0	GoodResponse	0	0.209	n/a	0	2	ButtonPress	Neutral	True
34.25	0.32	Control	1.0	n/a	Yes	2.581	n/a	n/a	GoodResponse	0	n/a	n/a	0	2	Blank	Neutral	True
34.568	1.45	Control	1.0	n/a	Yes	2.581	n/a	5.0	GoodResponse	0	0.041	33.609	0	2	Feedback	Neutral	True
36.022	2.581	Control	1.0	n/a	Yes	2.581	n/a	n/a	GoodResponse	0	0.0	n/a	0	2	ISIslide	Neutral	True
38.63	0.25	Win2	1.0	0.0	Yes	2.82	0.03	n/a	GoodResponse	1	n/a	n/a	1	3	Cue	Win	True
38.88	3.95	Win2	1.0	0.0	Yes	2.82	0.0	n/a	GoodResponse	1	n/a	n/a	1	3	Fixation	Win	True
42.826	0.37	Win2	1.0	0.004	Yes	2.82	-0.004	2.0	GoodResponse	1	0.224	42.05	1	3	Target	Win	True
43.05	0.3	Win2	1.0	0.004	Yes	2.82	-0.004	2.0	GoodResponse	1	0.224	n/a	1	3	ButtonPress	Win	True
43.21	0.33	Win2	1.0	n/a	Yes	2.82	n/a	n/a	GoodResponse	1	n/a	n/a	1	3	Blank	Win	True
43.528	1.45	Win2	1.0	n/a	Yes	2.82	n/a	5.0	GoodResponse	1	0.007	42.535	1	3	Feedback	Win	True
44.982	2.82	Win2	1.0	n/a	Yes	2.82	n/a	n/a	GoodResponse	1	0.0	n/a	1	3	ISIslide	Win	True
47.824	0.25	Win2	1.0	0.0	Yes	3.276	0.024	n/a	GoodResponse	1	n/a	n/a	2	4	Cue	Win	True
48.075	4.0	Win2	1.0	0.0	Yes	3.276	0.001	n/a	GoodResponse	1	n/a	n/a	2	4	Fixation	Win	True
52.07	0.36	Win2	1.0	0.004	Yes	3.276	-0.004	2.0	GoodResponse	1	0.246	51.316	2	4	Target	Win	True
52.316	0.3	Win2	1.0	0.004	Yes	3.276	-0.004	2.0	GoodResponse	1	0.246	n/a	2	4	ButtonPress	Win	True
52.438	0.34	Win2	1.0	n/a	Yes	3.276	n/a	n/a	GoodResponse	1	n/a	n/a	2	4	Blank	Win	True
52.772	1.45	Win2	1.0	n/a	Yes	3.276	n/a	5.0	GoodResponse	1	0.031	51.803	2	4	Feedback	Win	True
54.226	3.276	Win2	1.0	n/a	Yes	3.276	n/a	n/a	GoodResponse	1	0.0	n/a	2	4	ISIslide	Win	True
57.519	0.25	Win2	1.0	0.001	Yes	2.781	0.019	n/a	GoodResponse	1	n/a	n/a	3	5	Cue	Win	True
57.77	4.0	Win2	1.0	0.0	Yes	2.781	0.001	n/a	GoodResponse	1	n/a	n/a	3	5	Fixation	Win	True
61.766	0.35	Win2	1.0	0.003	Yes	2.781	-0.003	2.0	GoodResponse	1	0.24	61.006	3	5	Target	Win	True
62.006	0.3	Win2	1.0	0.003	Yes	2.781	-0.003	2.0	GoodResponse	1	0.24	n/a	3	5	ButtonPress	Win	True
62.117	0.35	Win2	1.0	n/a	Yes	2.781	n/a	n/a	GoodResponse	1	n/a	n/a	3	5	Blank	Win	True
62.468	1.45	Win2	1.0	n/a	Yes	2.781	n/a	5.0	GoodResponse	1	0.042	61.51	3	5	Feedback	Win	True
63.922	2.781	Win2	1.0	n/a	Yes	2.781	n/a	n/a	GoodResponse	1	0.0	n/a	3	5	ISIslide	Win	True
66.73	0.25	Lose2	1.0	0.0	Yes	2.72	0.03	n/a	GoodResponse	0	n/a	n/a	3	6	Cue	AvoidedLoss	True
66.981	3.95	Lose2	1.0	0.0	Yes	2.72	0.001	n/a	GoodResponse	0	n/a	n/a	3	6	Fixation	AvoidedLoss	True
70.926	0.34	Lose2	1.0	0.004	Yes	2.72	-0.004	2.0	GoodResponse	0	0.284	70.21	3	6	Target	AvoidedLoss	True
71.21	0.3	Lose2	1.0	0.004	Yes	2.72	-0.004	2.0	GoodResponse	0	0.284	n/a	3	6	ButtonPress	AvoidedLoss	True
71.277	0.36	Lose2	1.0	n/a	Yes	2.72	n/a	n/a	GoodResponse	0	n/a	n/a	3	6	Blank	AvoidedLoss	True
71.628	1.45	Lose2	1.0	n/a	Yes	2.72	n/a	5.0	GoodResponse	0	0.006	70.634	3	6	Feedback	AvoidedLoss	True
73.083	2.72	Lose2	1.0	n/a	Yes	2.72	n/a	n/a	GoodResponse	0	0.0	n/a	3	6	ISIslide	AvoidedLoss	True
75.824	0.25	Lose2	1.0	0.0	Yes	4.026	0.024	n/a	GoodResponse	0	n/a	n/a	3	7	Cue	AvoidedLoss	True
76.075	4.05	Lose2	1.0	0.0	Yes	4.026	0.001	n/a	GoodResponse	0	n/a	n/a	3	7	Fixation	AvoidedLoss	True
80.12	0.33	Lose2	1.0	0.004	Yes	4.026	-0.004	2.0	GoodResponse	0	0.239	79.359	3	7	Target	AvoidedLoss	True
80.359	0.3	Lose2	1.0	0.004	Yes	4.026	-0.004	2.0	GoodResponse	0	0.239	n/a	3	7	ButtonPress	AvoidedLoss	True
80.455	0.37	Lose2	1.0	n/a	Yes	4.026	n/a	n/a	GoodResponse	0	n/a	n/a	3	7	Blank	AvoidedLoss	True
80.822	1.45	Lose2	1.0	n/a	Yes	4.026	n/a	5.0	GoodResponse	0	0.03	79.852	3	7	Feedback	AvoidedLoss	True
82.277	4.026	Lose2	1.0	n/a	Yes	4.026	n/a	n/a	GoodResponse	0	0.0	n/a	3	7	ISIslide	AvoidedLoss	True
86.322	0.25	Lose2	1.0	0.0	Yes	3.028	0.022	n/a	GoodResponse	0	n/a	n/a	3	8	Cue	AvoidedLoss	True
86.573	3.95	Lose2	1.0	0.0	Yes	3.028	0.001	n/a	GoodResponse	0	n/a	n/a	3	8	Fixation	AvoidedLoss	True
90.518	0.32	Lose2	1.0	0.004	Yes	3.028	-0.004	2.0	GoodResponse	0	0.284	89.802	3	8	Target	AvoidedLoss	True
90.802	0.3	Lose2	1.0	0.004	Yes	3.028	-0.004	2.0	GoodResponse	0	0.284	n/a	3	8	ButtonPress	AvoidedLoss	True
90.852	0.38	Lose2	1.0	n/a	Yes	3.028	n/a	n/a	GoodResponse	0	n/a	n/a	3	8	Blank	AvoidedLoss	True
91.22	1.45	Lose2	1.0	n/a	Yes	3.028	n/a	5.0	GoodResponse	0	0.021	90.241	3	8	Feedback	AvoidedLoss	True
92.675	3.028	Lose2	1.0	n/a	Yes	3.028	n/a	n/a	GoodResponse	0	0.0	n/a	3	8	ISIslide	AvoidedLoss	True
95.717	0.25	Lose2	1.0	0.0	Yes	3.133	0.017	n/a	GoodResponse	0	n/a	n/a	3	9	Cue	AvoidedLoss	True
95.968	3.95	Lose2	1.0	0.0	Yes	3.133	0.001	n/a	GoodResponse	0	n/a	n/a	3	9	Fixation	AvoidedLoss	True
99.913	0.31	Lose2	1.0	0.004	Yes	3.133	-0.004	2.0	GoodResponse	0	0.244	99.157	3	9	Target	AvoidedLoss	True
100.157	0.3	Lose2	1.0	0.004	Yes	3.133	-0.004	2.0	GoodResponse	0	0.244	n/a	3	9	ButtonPress	AvoidedLoss	True
100.23	0.39	Lose2	1.0	n/a	Yes	3.133	n/a	n/a	GoodResponse	0	n/a	n/a	3	9	Blank	AvoidedLoss	True
100.615	1.45	Lose2	1.0	n/a	Yes	3.133	n/a	5.0	GoodResponse	0	0.041	99.656	3	9	Feedback	AvoidedLoss	True
102.069	3.133	Lose2	1.0	n/a	Yes	3.133	n/a	n/a	GoodResponse	0	0.0	n/a	3	9	ISIslide	AvoidedLoss	True
105.229	0.25	Control	1.0	0.0	Yes	3.271	0.029	n/a	GoodResponse	0	n/a	n/a	3	10	Cue	Neutral	True
105.48	4.0	Control	1.0	0.0	Yes	3.271	0.001	n/a	GoodResponse	0	n/a	n/a	3	10	Fixation	Neutral	True
109.475	0.3	Control	1.0	0.004	Yes	3.271	-0.004	2.0	GoodResponse	0	0.217	108.692	3	10	Target	Neutral	True
109.692	0.3	Control	1.0	0.004	Yes	3.271	-0.004	2.0	GoodResponse	0	0.217	n/a	3	10	ButtonPress	Neutral	True
109.776	0.4	Control	1.0	n/a	Yes	3.271	n/a	n/a	GoodResponse	0	n/a	n/a	3	10	Blank	Neutral	True
110.177	1.45	Control	1.0	n/a	Yes	3.271	n/a	5.0	GoodResponse	0	0.04	109.217	3	10	Feedback	Neutral	True
111.631	3.271	Control	1.0	n/a	Yes	3.271	n/a	n/a	GoodResponse	0	0.0	n/a	3	10	ISIslide	Neutral	True
114.924	0.25	Lose2	1.0	0.001	Yes	2.726	0.024	n/a	GoodResponse	0	n/a	n/a	3	11	Cue	AvoidedLoss	True
115.175	4.05	Lose2	1.0	0.0	Yes	2.726	0.001	n/a	GoodResponse	0	n/a	n/a	3	11	Fixation	AvoidedLoss	True
119.221	0.29	Lose2	1.0	0.003	Yes	2.726	-0.003	2.0	GoodResponse	0	0.215	118.436	3	11	Target	AvoidedLoss	True
119.436	0.3	Lose2	1.0	0.003	Yes	2.726	-0.003	2.0	GoodResponse	0	0.215	n/a	3	11	ButtonPress	AvoidedLoss	True
119.522	0.41	Lose2	1.0	n/a	Yes	2.726	n/a	n/a	GoodResponse	0	n/a	n/a	3	11	Blank	AvoidedLoss	True
119.923	1.45	Lose2	1.0	n/a	Yes	2.726	n/a	5.0	GoodResponse	0	0.005	118.928	3	11	Feedback	AvoidedLoss	True
121.377	2.726	Lose2	1.0	n/a	Yes	2.726	n/a	n/a	GoodResponse	0	0.0	n/a	3	11	ISIslide	AvoidedLoss	True
124.119	0.25	Control	1.0	0.0	Yes	2.981	0.019	n/a	GoodResponse	0	n/a	n/a	3	12	Cue	Neutral	True
124.369	3.9	Control	1.0	0.0	Yes	2.981	0.0	n/a	GoodResponse	0	n/a	n/a	3	12	Fixation	Neutral	True
128.281	0.28	Control	1.0	0.0	Yes	2.981	0.012	2.0	GoodResponse	0	0.234	127.515	3	12	Target	Neutral	True
128.515	0.3	Control	1.0	0.0	Yes	2.981	0.012	2.0	GoodResponse	0	0.234	n/a	3	12	ButtonPress	Neutral	True
128.548	0.42	Control	1.0	n/a	Yes	2.981	n/a	n/a	GoodResponse	0	n/a	n/a	3	12	Blank	Neutral	True
128.966	1.45	Control	1.0	n/a	Yes	2.981	n/a	5.0	GoodResponse	0	0.031	127.997	3	12	Feedback	Neutral	True
130.421	2.981	Control	1.0	n/a	Yes	2.981	n/a	n/a	GoodResponse	0	0.0	n/a	3	12	ISIslide	Neutral	True
133.43	0.25	Control	1.0	0.0	Yes	2.77	0.03	n/a	GoodResponse	0	n/a	n/a	3	13	Cue	Neutral	True
133.681	4.0	Control	1.0	0.0	Yes	2.77	0.001	n/a	GoodResponse	0	n/a	n/a	3	13	Fixation	Neutral	True
137.676	0.27	Control	1.0	0.004	Yes	2.77	-0.004	2.0	GoodResponse	0	0.247	136.923	3	13	Target	Neutral	True
137.923	0.3	Control	1.0	0.004	Yes	2.77	-0.004	2.0	GoodResponse	0	0.247	n/a	3	13	ButtonPress	Neutral	True
137.96	0.43	Control	1.0	n/a	Yes	2.77	n/a	n/a	GoodResponse	0	n/a	n/a	3	13	Blank	Neutral	True
138.378	1.45	Control	1.0	n/a	Yes	2.77	n/a	5.0	GoodResponse	0	0.034	137.412	3	13	Feedback	Neutral	True
139.832	2.77	Control	1.0	n/a	Yes	2.77	n/a	n/a	GoodResponse	0	0.0	n/a	3	13	ISIslide	Neutral	True
142.624	0.25	Win2	1.0	0.0	Yes	2.676	0.024	n/a	GoodResponse	1	n/a	n/a	4	14	Cue	Win	True
142.875	4.1	Win2	1.0	0.0	Yes	2.676	0.001	n/a	GoodResponse	1	n/a	n/a	4	14	Fixation	Win	True
146.97	0.26	Win2	1.0	0.004	Yes	2.676	-0.004	2.0	GoodResponse	1	0.217	146.187	4	14	Target	Win	True
147.187	0.3	Win2	1.0	0.004	Yes	2.676	-0.004	2.0	GoodResponse	1	0.217	n/a	4	14	ButtonPress	Win	True
147.238	0.44	Win2	1.0	n/a	Yes	2.676	n/a	n/a	GoodResponse	1	n/a	n/a	4	14	Blank	Win	True
147.672	1.45	Win2	1.0	n/a	Yes	2.676	n/a	5.0	GoodResponse	1	0.008	146.68	4	14	Feedback	Win	True
149.127	2.676	Win2	1.0	n/a	Yes	2.676	n/a	n/a	GoodResponse	1	0.0	n/a	4	14	ISIslide	Win	True
151.818	0.25	Control	0.9375	0.0	No	2.982	0.018	n/a	NoResponse	0	n/a	n/a	4	15	Cue	Neutral	True
152.069	4.0	Control	0.9375	0.0	No	2.982	0.001	n/a	NoResponse	0	n/a	n/a	4	15	Fixation	Neutral	True
156.064	0.25	Control	0.9375	0.004	No	2.982	-0.004	2.0	NoResponse	0	0.273	155.337	4	15	Target	Neutral	True
156.315	0.45	Control	0.9375	n/a	No	2.982	n/a	n/a	NoResponse	0	n/a	n/a	4	15	Blank	Neutral	True
156.337	0.3	Control	0.9375	0.004	No	2.982	-0.004	2.0	NoResponse	0	0.273	n/a	4	15	ButtonPress	Neutral	True
156.766	1.45	Control	0.9375	n/a	No	2.982	n/a	5.0	NoResponse	0	0.036	155.802	4	15	Feedback	Neutral	True
158.221	2.982	Control	0.9375	n/a	No	2.982	n/a	n/a	NoResponse	0	0.0	n/a	4	15	ISIslide	Neutral	True
161.23	0.25	Win2	0.9412	0.0	Yes	2.87	0.03	n/a	GoodResponse	1	n/a	n/a	5	16	Cue	Win	True
161.48	4.0	Win2	0.9412	0.0	Yes	2.87	0.0	n/a	GoodResponse	1	n/a	n/a	5	16	Fixation	Win	True
165.476	0.24	Win2	0.9412	0.004	Yes	2.87	-0.004	2.0	GoodResponse	1	0.218	164.694	5	16	Target	Win	True
165.694	0.3	Win2	0.9412	0.004	Yes	2.87	-0.004	2.0	GoodResponse	1	0.218	n/a	5	16	ButtonPress	Win	True
165.726	0.46	Win2	0.9412	n/a	Yes	2.87	n/a	n/a	GoodResponse	1	n/a	n/a	5	16	Blank	Win	True
166.178	1.45	Win2	0.9412	n/a	Yes	2.87	n/a	5.0	GoodResponse	1	0.039	165.217	5	16	Feedback	Win	True
167.632	2.87	Win2	0.9412	n/a	Yes	2.87	n/a	n/a	GoodResponse	1	0.0	n/a	5	16	ISIslide	Win	True
170.524	0.25	Lose2	0.8889	0.0	No	2.726	0.024	n/a	NoResponse	-1	n/a	n/a	4	17	Cue	Loss	True
170.775	3.95	Lose2	0.8889	0.0	No	2.726	0.001	n/a	NoResponse	-1	n/a	n/a	4	17	Fixation	Loss	True
174.72	0.23	Lose2	0.8889	0.004	No	2.726	-0.004	2.0	NoResponse	-1	0.256	173.976	4	17	Target	Loss	True
174.954	0.47	Lose2	0.8889	n/a	No	2.726	n/a	n/a	NoResponse	-1	n/a	n/a	4	17	Blank	Loss	True
174.976	0.3	Lose2	0.8889	0.004	No	2.726	-0.004	2.0	NoResponse	-1	0.256	n/a	4	17	ButtonPress	Loss	True
175.422	1.45	Lose2	0.8889	n/a	No	2.726	n/a	5.0	NoResponse	-1	0.013	174.435	4	17	Feedback	Loss	True
176.876	2.726	Lose2	0.8889	n/a	No	2.726	n/a	n/a	NoResponse	-1	0.0	n/a	4	17	ISIslide	Loss	True
179.618	0.25	Lose2	0.8946999999999999	0.0	Yes	2.732	0.018	n/a	GoodResponse	0	n/a	n/a	4	18	Cue	AvoidedLoss	True
179.869	4.05	Lose2	0.8946999999999999	0.0	Yes	2.732	0.001	n/a	GoodResponse	0	n/a	n/a	4	18	Fixation	AvoidedLoss	True
183.914	0.22	Lose2	0.8946999999999999	0.004	Yes	2.732	-0.004	2.0	GoodResponse	0	0.21	183.124	4	18	Target	AvoidedLoss	True
184.124	0.3	Lose2	0.8946999999999999	0.004	Yes	2.732	-0.004	2.0	GoodResponse	0	0.21	n/a	4	18	ButtonPress	AvoidedLoss	True
184.148	0.48	Lose2	0.8946999999999999	n/a	Yes	2.732	n/a	n/a	GoodResponse	0	n/a	n/a	4	18	Blank	AvoidedLoss	True
184.616	1.45	Lose2	0.8946999999999999	n/a	Yes	2.732	n/a	5.0	GoodResponse	0	0.039	183.655	4	18	Feedback	AvoidedLoss	True
186.07	2.732	Lose2	0.8946999999999999	n/a	Yes	2.732	n/a	n/a	GoodResponse	0	0.0	n/a	4	18	ISIslide	AvoidedLoss	True
188.829	0.25	Control	0.85	0.0	No	2.921	0.029	n/a	NoResponse	0	n/a	n/a	4	19	Cue	Neutral	False
189.079	3.95	Control	0.85	0.001	No	2.921	0.0	n/a	NoResponse	0	n/a	n/a	4	19	Fixation	Neutral	False
193.025	0.21	Control	0.85	0.004	No	2.921	-0.004	n/a	NoResponse	0	n/a	n/a	4	19	Target	Neutral	False
193.242	0.49	Control	0.85	n/a	No	2.921	n/a	n/a	NoResponse	0	n/a	n/a	4	19	Blank	Neutral	False
193.727	1.45	Control	0.85	n/a	No	2.921	n/a	5.0	NoResponse	0	0.001	192.728	4	19	Feedback	Neutral	False
195.181	2.921	Control	0.85	n/a	No	2.921	n/a	n/a	NoResponse	0	0.0	n/a	4	19	ISIslide	Neutral	False
198.123	0.25	Control	0.8095	0.0	No	2.627	0.023	n/a	NoResponse	0	n/a	n/a	4	20	Cue	Neutral	True
198.374	4.05	Control	0.8095	0.0	No	2.627	0.001	n/a	NoResponse	0	n/a	n/a	4	20	Fixation	Neutral	True
202.419	0.2	Control	0.8095	0.004	No	2.627	-0.004	2.0	NoResponse	0	0.212	201.631	4	20	Target	Neutral	True
202.62	0.5	Control	0.8095	n/a	No	2.627	n/a	n/a	NoResponse	0	n/a	n/a	4	20	Blank	Neutral	True
202.631	0.3	Control	0.8095	0.004	No	2.627	-0.004	2.0	NoResponse	0	0.212	n/a	4	20	ButtonPress	Neutral	True
203.121	1.45	Control	0.8095	n/a	No	2.627	n/a	5.0	NoResponse	0	0.022	202.143	4	20	Feedback	Neutral	True
204.576	2.627	Control	0.8095	n/a	No	2.627	n/a	n/a	NoResponse	0	0.0	n/a	4	20	ISIslide	Neutral	True
207.217	0.25	Control	0.7726999999999999	0.0	No	2.783	0.017	n/a	LatePress	0	n/a	n/a	4	21	Cue	Neutral	True
207.468	4.1	Control	0.7726999999999999	0.0	No	2.783	0.001	n/a	LatePress	0	n/a	n/a	4	21	Fixation	Neutral	True
211.563	0.19	Control	0.7726999999999999	0.004	No	2.783	-0.004	2.0	LatePress	0	0.193	210.756	4	21	Target	Neutral	True
211.756	0.3	Control	0.7726999999999999	0.004	No	2.783	-0.004	2.0	LatePress	0	0.193	n/a	4	21	ButtonPress	Neutral	True
211.764	0.51	Control	0.7726999999999999	n/a	No	2.783	n/a	n/a	LatePress	0	n/a	n/a	4	21	Blank	Neutral	True
212.265	1.45	Control	0.7726999999999999	n/a	No	2.783	n/a	5.0	LatePress	0	0.049	211.314	4	21	Feedback	Neutral	True
213.72	2.783	Control	0.7726999999999999	n/a	No	2.783	n/a	n/a	LatePress	0	0.0	n/a	4	21	ISIslide	Neutral	True
216.528	0.25	Control	0.7391	0.0	No	2.772	0.028	n/a	NoResponse	0	n/a	n/a	4	22	Cue	Neutral	True
216.779	4.0	Control	0.7391	0.0	No	2.772	0.001	n/a	NoResponse	0	n/a	n/a	4	22	Fixation	Neutral	True
220.774	0.18	Control	0.7391	0.004	No	2.772	-0.004	2.0	NoResponse	0	0.228	220.002	4	22	Target	Neutral	True
220.958	0.52	Control	0.7391	n/a	No	2.772	n/a	n/a	NoResponse	0	n/a	n/a	4	22	Blank	Neutral	True
221.002	0.3	Control	0.7391	0.004	No	2.772	-0.004	2.0	NoResponse	0	0.228	n/a	4	22	ButtonPress	Neutral	True
221.476	1.45	Control	0.7391	n/a	No	2.772	n/a	5.0	NoResponse	0	0.008	220.484	4	22	Feedback	Neutral	True
222.931	2.772	Control	0.7391	n/a	No	2.772	n/a	n/a	NoResponse	0	0.0	n/a	4	22	ISIslide	Neutral	True
225.722	0.25	Control	0.7082999999999999	0.0	No	2.778	0.022	n/a	NoResponse	0	n/a	n/a	4	23	Cue	Neutral	True
225.973	3.9	Control	0.7082999999999999	0.0	No	2.778	0.001	2.0	NoResponse	0	3.699	228.672	4	23	Fixation	Neutral	True
229.672	0.3	Control	0.7082999999999999	0.0	No	2.778	0.001	2.0	NoResponse	0	3.699	n/a	4	23	ButtonPress	Neutral	True
229.868	0.17	Control	0.7082999999999999	0.004	No	2.778	-0.004	n/a	NoResponse	0	n/a	n/a	4	23	Target	Neutral	True
230.052	0.53	Control	0.7082999999999999	n/a	No	2.778	n/a	n/a	NoResponse	0	n/a	n/a	4	23	Blank	Neutral	True
230.57	1.45	Control	0.7082999999999999	n/a	No	2.778	n/a	5.0	NoResponse	0	0.036	229.606	4	23	Feedback	Neutral	True
232.025	2.778	Control	0.7082999999999999	n/a	No	2.778	n/a	n/a	NoResponse	0	0.0	n/a	4	23	ISIslide	Neutral	True
234.816	0.25	Win2	0.68	0.0	No	3.134	0.016	n/a	NoResponse	0	n/a	n/a	4	24	Cue	MissedWin	True
235.067	3.95	Win2	0.68	0.0	No	3.134	0.001	n/a	NoResponse	0	n/a	n/a	4	24	Fixation	MissedWin	True
239.012	0.16	Win2	0.68	0.004	No	3.134	-0.004	2.0	NoResponse	0	0.208	238.22	4	24	Target	MissedWin	True
239.179	0.54	Win2	0.68	n/a	No	3.134	n/a	n/a	NoResponse	0	n/a	n/a	4	24	Blank	MissedWin	True
239.22	0.3	Win2	0.68	0.004	No	3.134	-0.004	2.0	NoResponse	0	0.208	n/a	4	24	ButtonPress	MissedWin	True
239.714	1.45	Win2	0.68	n/a	No	3.134	n/a	5.0	NoResponse	0	0.014	238.728	4	24	Feedback	MissedWin	True
241.169	3.134	Win2	0.68	n/a	No	3.134	n/a	n/a	NoResponse	0	0.0	n/a	4	24	ISIslide	MissedWin	True
244.328	0.25	Win2	0.6537999999999999	0.0	No	3.072	0.028	n/a	NoResponse	0	n/a	n/a	4	25	Cue	MissedWin	False
244.579	4.0	Win2	0.6537999999999999	0.0	No	3.072	0.001	2.0	NoResponse	0	2.01	245.589	4	25	Fixation	MissedWin	False
246.589	0.3	Win2	0.6537999999999999	0.0	No	3.072	0.001	2.0	NoResponse	0	2.01	n/a	4	25	ButtonPress	MissedWin	False
248.574	0.15	Win2	0.6537999999999999	0.004	No	3.072	-0.004	2.0	NoResponse	0	0.259	247.833	4	25	Target	MissedWin	False
248.724	0.55	Win2	0.6537999999999999	n/a	No	3.072	n/a	n/a	NoResponse	0	n/a	n/a	4	25	Blank	MissedWin	False
248.833	0.3	Win2	0.6537999999999999	0.004	No	3.072	-0.004	2.0	NoResponse	0	0.259	n/a	4	25	ButtonPress	MissedWin	False
249.276	1.45	Win2	0.6537999999999999	n/a	No	3.072	n/a	5.0	NoResponse	0	0.013	248.289	4	25	Feedback	MissedWin	False
250.73	3.072	Win2	0.6537999999999999	n/a	No	3.072	n/a	n/a	NoResponse	0	0.0	n/a	4	25	ISIslide	MissedWin	False
253.823	0.25	Win2	0.6296	0.0	No	2.927	0.023	n/a	NoResponse	0	n/a	n/a	4	26	Cue	MissedWin	True
254.074	3.95	Win2	0.6296	0.0	No	2.927	0.001	n/a	NoResponse	0	n/a	n/a	4	26	Fixation	MissedWin	True
258.019	0.16	Win2	0.6296	0.004	No	2.927	-0.004	2.0	NoResponse	0	0.254	257.273	4	26	Target	MissedWin	True
258.186	0.54	Win2	0.6296	n/a	No	2.927	n/a	n/a	NoResponse	0	n/a	n/a	4	26	Blank	MissedWin	True
258.273	0.3	Win2	0.6296	0.004	No	2.927	-0.004	2.0	NoResponse	0	0.254	n/a	4	26	ButtonPress	MissedWin	True
258.721	1.45	Win2	0.6296	n/a	No	2.927	n/a	5.0	NoResponse	0	0.031	257.752	4	26	Feedback	MissedWin	True
260.175	2.927	Win2	0.6296	n/a	No	2.927	n/a	n/a	NoResponse	0	0.0	n/a	4	26	ISIslide	MissedWin	True
263.118	0.25	Lose2	0.6071	0.0	No	2.832	0.018	n/a	NoResponse	-1	n/a	n/a	3	27	Cue	Loss	True
263.368	4.05	Lose2	0.6071	0.0	No	2.832	0.0	n/a	NoResponse	-1	n/a	n/a	3	27	Fixation	Loss	True
267.414	0.17	Lose2	0.6071	0.004	No	2.832	-0.004	2.0	NoResponse	-1	0.228	266.642	3	27	Target	Loss	True
267.598	0.53	Lose2	0.6071	n/a	No	2.832	n/a	n/a	NoResponse	-1	n/a	n/a	3	27	Blank	Loss	True
267.642	0.3	Lose2	0.6071	0.004	No	2.832	-0.004	2.0	NoResponse	-1	0.228	n/a	3	27	ButtonPress	Loss	True
268.116	1.45	Lose2	0.6071	n/a	No	2.832	n/a	5.0	NoResponse	-1	0.001	267.117	3	27	Feedback	Loss	True
269.57	2.832	Lose2	0.6071	n/a	No	2.832	n/a	n/a	NoResponse	-1	0.0	n/a	3	27	ISIslide	Loss	True
272.429	0.25	Control	0.5861999999999999	0.0	No	2.821	0.029	n/a	NoResponse	0	n/a	n/a	3	28	Cue	Neutral	True
272.679	4.05	Control	0.5861999999999999	0.001	No	2.821	0.0	n/a	NoResponse	0	n/a	n/a	3	28	Fixation	Neutral	True
276.725	0.18	Control	0.5861999999999999	0.004	No	2.821	-0.004	2.0	NoResponse	0	0.205	275.93	3	28	Target	Neutral	True
276.909	0.52	Control	0.5861999999999999	n/a	No	2.821	n/a	n/a	NoResponse	0	n/a	n/a	3	28	Blank	Neutral	True
276.93	0.3	Control	0.5861999999999999	0.004	No	2.821	-0.004	2.0	NoResponse	0	0.205	n/a	3	28	ButtonPress	Neutral	True
277.427	1.45	Control	0.5861999999999999	n/a	No	2.821	n/a	5.0	NoResponse	0	0.007	276.434	3	28	Feedback	Neutral	True
278.881	2.821	Control	0.5861999999999999	n/a	No	2.821	n/a	n/a	NoResponse	0	0.0	n/a	3	28	ISIslide	Neutral	True
281.723	0.25	Lose2	0.5667	0.0	No	2.827	0.023	n/a	NoResponse	-1	n/a	n/a	2	29	Cue	Loss	True
281.974	3.95	Lose2	0.5667	0.0	No	2.827	0.001	n/a	NoResponse	-1	n/a	n/a	2	29	Fixation	Loss	True
285.919	0.19	Lose2	0.5667	0.004	No	2.827	-0.004	2.0	NoResponse	-1	0.209	285.128	2	29	Target	Loss	True
286.12	0.51	Lose2	0.5667	n/a	No	2.827	n/a	n/a	NoResponse	-1	n/a	n/a	2	29	Blank	Loss	True
286.128	0.3	Lose2	0.5667	0.004	No	2.827	-0.004	2.0	NoResponse	-1	0.209	n/a	2	29	ButtonPress	Loss	True
286.621	1.45	Lose2	0.5667	n/a	No	2.827	n/a	5.0	NoResponse	-1	0.033	285.654	2	29	Feedback	Loss	True
288.075	2.827	Lose2	0.5667	n/a	No	2.827	n/a	n/a	NoResponse	-1	0.0	n/a	2	29	ISIslide	Loss	True
290.917	0.25	Win2	0.5484	0.0	No	2.783	0.017	n/a	LatePress	0	n/a	n/a	2	30	Cue	MissedWin	True
291.168	3.9	Win2	0.5484	0.0	No	2.783	0.001	n/a	LatePress	0	n/a	n/a	2	30	Fixation	MissedWin	True
295.063	0.2	Win2	0.5484	0.004	No	2.783	-0.004	2.0	LatePress	0	0.202	294.265	2	30	Target	MissedWin	True
295.264	0.5	Win2	0.5484	n/a	No	2.783	n/a	n/a	LatePress	0	n/a	n/a	2	30	Blank	MissedWin	True
295.265	0.3	Win2	0.5484	0.004	No	2.783	-0.004	2.0	LatePress	0	0.202	n/a	2	30	ButtonPress	MissedWin	True
295.765	1.45	Win2	0.5484	n/a	No	2.783	n/a	5.0	LatePress	0	0.011	294.776	2	30	Feedback	MissedWin	True
297.219	2.783	Win2	0.5484	n/a	No	2.783	n/a	n/a	LatePress	0	0.0	n/a	2	30	ISIslide	MissedWin	True
300.028	0.25	Lose2	0.5625	0.0	Yes	2.822	0.028	n/a	GoodResponse	0	n/a	n/a	2	31	Cue	AvoidedLoss	False
300.279	4.05	Lose2	0.5625	0.0	Yes	2.822	0.001	2.0	GoodResponse	0	0.795	300.074	2	31	Fixation	AvoidedLoss	False
301.074	0.3	Lose2	0.5625	0.0	Yes	2.822	0.001	2.0	GoodResponse	0	0.795	n/a	2	31	ButtonPress	AvoidedLoss	False
304.324	0.21	Lose2	0.5625	0.004	Yes	2.822	-0.004	2.0	GoodResponse	0	0.194	303.518	2	31	Target	AvoidedLoss	False
304.518	0.3	Lose2	0.5625	0.004	Yes	2.822	-0.004	2.0	GoodResponse	0	0.194	n/a	2	31	ButtonPress	AvoidedLoss	False
304.541	0.49	Lose2	0.5625	n/a	Yes	2.822	n/a	n/a	GoodResponse	0	n/a	n/a	2	31	Blank	AvoidedLoss	False
305.026	1.45	Lose2	0.5625	n/a	Yes	2.822	n/a	5.0	GoodResponse	0	0.018	304.044	2	31	Feedback	AvoidedLoss	False
306.481	2.822	Lose2	0.5625	n/a	Yes	2.822	n/a	n/a	GoodResponse	0	0.0	n/a	2	31	ISIslide	AvoidedLoss	False
309.322	0.25	Lose2	0.5758	0.0	Yes	2.628	0.022	n/a	GoodResponse	0	n/a	n/a	2	32	Cue	AvoidedLoss	True
309.573	4.15	Lose2	0.5758	0.0	Yes	2.628	0.001	n/a	GoodResponse	0	n/a	n/a	2	32	Fixation	AvoidedLoss	True
313.719	0.22	Lose2	0.5758	0.003	Yes	2.628	-0.003	2.0	GoodResponse	0	0.138	312.857	2	32	Target	AvoidedLoss	True
313.857	0.3	Lose2	0.5758	0.003	Yes	2.628	-0.003	2.0	GoodResponse	0	0.138	n/a	2	32	ButtonPress	AvoidedLoss	True
313.953	0.48	Lose2	0.5758	n/a	Yes	2.628	n/a	n/a	GoodResponse	0	n/a	n/a	2	32	Blank	AvoidedLoss	True
314.421	1.45	Lose2	0.5758	n/a	Yes	2.628	n/a	5.0	GoodResponse	0	0.037	313.458	2	32	Feedback	AvoidedLoss	True
315.875	2.628	Lose2	0.5758	n/a	Yes	2.628	n/a	n/a	GoodResponse	0	0.0	n/a	2	32	ISIslide	AvoidedLoss	True
318.516	0.25	Win2	0.5882000000000001	0.001	Yes	2.684	0.016	n/a	GoodResponse	1	n/a	n/a	3	33	Cue	Win	True
318.767	4.0	Win2	0.5882000000000001	0.0	Yes	2.684	0.001	n/a	GoodResponse	1	n/a	n/a	3	33	Fixation	Win	True
322.763	0.23	Win2	0.5882000000000001	0.003	Yes	2.684	-0.003	2.0	GoodResponse	1	0.202	321.965	3	33	Target	Win	True
322.965	0.3	Win2	0.5882000000000001	0.003	Yes	2.684	-0.003	2.0	GoodResponse	1	0.202	n/a	3	33	ButtonPress	Win	True
322.997	0.47	Win2	0.5882000000000001	n/a	Yes	2.684	n/a	n/a	GoodResponse	1	n/a	n/a	3	33	Blank	Win	True
323.465	1.45	Win2	0.5882000000000001	n/a	Yes	2.684	n/a	5.0	GoodResponse	1	0.018	322.483	3	33	Feedback	Win	True
324.919	2.684	Win2	0.5882000000000001	n/a	Yes	2.684	n/a	n/a	GoodResponse	1	0.0	n/a	3	33	ISIslide	Win	True
327.627	0.25	Lose2	0.5714	0.0	No	2.623	0.027	n/a	PrematurePress	-1	n/a	n/a	2	34	Cue	Loss	True
327.878	4.05	Lose2	0.5714	0.0	No	2.623	0.001	n/a	PrematurePress	-1	n/a	n/a	2	34	Fixation	Loss	True
331.923	0.24	Lose2	0.5714	0.004	No	2.623	-0.004	2.0	PrematurePress	-1	0.053	330.976	2	34	Target	Loss	True
331.976	0.3	Lose2	0.5714	0.004	No	2.623	-0.004	2.0	PrematurePress	-1	0.053	n/a	2	34	ButtonPress	Loss	True
332.174	0.46	Lose2	0.5714	n/a	No	2.623	n/a	n/a	PrematurePress	-1	n/a	n/a	2	34	Blank	Loss	True
332.625	1.45	Lose2	0.5714	n/a	No	2.623	n/a	5.0	PrematurePress	-1	0.029	331.654	2	34	Feedback	Loss	True
334.08	2.623	Lose2	0.5714	n/a	No	2.623	n/a	n/a	PrematurePress	-1	0.0	n/a	2	34	ISIslide	Loss	True
336.721	0.25	Lose2	0.5832999999999999	0.0	Yes	2.679	0.021	n/a	GoodResponse	0	n/a	n/a	2	35	Cue	AvoidedLoss	True
336.972	4.0	Lose2	0.5832999999999999	0.0	Yes	2.679	0.001	n/a	GoodResponse	0	n/a	n/a	2	35	Fixation	AvoidedLoss	True
340.967	0.25	Lose2	0.5832999999999999	0.004	Yes	2.679	-0.004	2.0	GoodResponse	0	0.214	340.181	2	35	Target	AvoidedLoss	True
341.181	0.3	Lose2	0.5832999999999999	0.004	Yes	2.679	-0.004	2.0	GoodResponse	0	0.214	n/a	2	35	ButtonPress	AvoidedLoss	True
341.218	0.45	Lose2	0.5832999999999999	n/a	Yes	2.679	n/a	n/a	GoodResponse	0	n/a	n/a	2	35	Blank	AvoidedLoss	True
341.669	1.45	Lose2	0.5832999999999999	n/a	Yes	2.679	n/a	5.0	GoodResponse	0	0.009	340.678	2	35	Feedback	AvoidedLoss	True
343.123	2.679	Lose2	0.5832999999999999	n/a	Yes	2.679	n/a	n/a	GoodResponse	0	0.0	n/a	2	35	ISIslide	AvoidedLoss	True
345.831	0.25	Control	0.5946	0.001	Yes	2.669	0.031	n/a	GoodResponse	0	n/a	n/a	2	36	Cue	Neutral	True
346.082	4.0	Control	0.5946	0.0	Yes	2.669	0.001	n/a	GoodResponse	0	n/a	n/a	2	36	Fixation	Neutral	True
350.078	0.26	Control	0.5946	0.003	Yes	2.669	-0.003	2.0	GoodResponse	0	0.203	349.281	2	36	Target	Neutral	True
350.281	0.3	Control	0.5946	0.003	Yes	2.669	-0.003	2.0	GoodResponse	0	0.203	n/a	2	36	ButtonPress	Neutral	True
350.345	0.44	Control	0.5946	n/a	Yes	2.669	n/a	n/a	GoodResponse	0	n/a	n/a	2	36	Blank	Neutral	True
350.78	1.45	Control	0.5946	n/a	Yes	2.669	n/a	5.0	GoodResponse	0	0.019	349.799	2	36	Feedback	Neutral	True
352.234	2.669	Control	0.5946	n/a	Yes	2.669	n/a	n/a	GoodResponse	0	0.0	n/a	2	36	ISIslide	Neutral	True
354.925	0.25	Win2	0.5789	0.0	No	2.875	0.025	n/a	PrematurePress	0	n/a	n/a	2	37	Cue	MissedWin	False
355.176	4.0	Win2	0.5789	0.0	No	2.875	0.001	2.0	PrematurePress	0	3.036	357.212	2	37	Fixation	MissedWin	False
358.212	0.3	Win2	0.5789	0.0	No	2.875	0.001	2.0	PrematurePress	0	3.036	n/a	2	37	ButtonPress	MissedWin	False
359.171	0.27	Win2	0.5789	0.004	No	2.875	-0.004	2.0	PrematurePress	0	0.013	358.184	2	37	Target	MissedWin	False
359.184	0.3	Win2	0.5789	0.004	No	2.875	-0.004	2.0	PrematurePress	0	0.013	n/a	2	37	ButtonPress	MissedWin	False
359.456	0.43	Win2	0.5789	n/a	No	2.875	n/a	n/a	PrematurePress	0	n/a	n/a	2	37	Blank	MissedWin	False
359.873	1.45	Win2	0.5789	n/a	No	2.875	n/a	5.0	PrematurePress	0	0.048	358.921	2	37	Feedback	MissedWin	False
361.328	2.875	Win2	0.5789	n/a	No	2.875	n/a	n/a	PrematurePress	0	0.0	n/a	2	37	ISIslide	MissedWin	False
364.22	0.25	Lose2	0.5897	0.0	Yes	2.83	0.02	n/a	GoodResponse	0	n/a	n/a	2	38	Cue	AvoidedLoss	True
364.471	3.95	Lose2	0.5897	0.0	Yes	2.83	0.001	n/a	GoodResponse	0	n/a	n/a	2	38	Fixation	AvoidedLoss	True
368.416	0.28	Lose2	0.5897	0.004	Yes	2.83	-0.004	2.0	GoodResponse	0	0.262	367.678	2	38	Target	AvoidedLoss	True
368.678	0.3	Lose2	0.5897	0.004	Yes	2.83	-0.004	2.0	GoodResponse	0	0.262	n/a	2	38	ButtonPress	AvoidedLoss	True
368.7	0.42	Lose2	0.5897	n/a	Yes	2.83	n/a	n/a	GoodResponse	0	n/a	n/a	2	38	Blank	AvoidedLoss	True
369.118	1.45	Lose2	0.5897	n/a	Yes	2.83	n/a	5.0	GoodResponse	0	0.023	368.141	2	38	Feedback	AvoidedLoss	True
370.572	2.83	Lose2	0.5897	n/a	Yes	2.83	n/a	n/a	GoodResponse	0	0.0	n/a	2	38	ISIslide	AvoidedLoss	True
373.431	0.25	Win2	0.6	0.0	Yes	2.969	0.031	n/a	GoodResponse	1	n/a	n/a	3	39	Cue	Win	True
373.681	4.1	Win2	0.6	0.001	Yes	2.969	0.0	n/a	GoodResponse	1	n/a	n/a	3	39	Fixation	Win	True
377.777	0.29	Win2	0.6	0.004	Yes	2.969	-0.004	2.0	GoodResponse	1	0.203	376.98	3	39	Target	Win	True
377.98	0.3	Win2	0.6	0.004	Yes	2.969	-0.004	2.0	GoodResponse	1	0.203	n/a	3	39	ButtonPress	Win	True
378.078	0.41	Win2	0.6	n/a	Yes	2.969	n/a	n/a	GoodResponse	1	n/a	n/a	3	39	Blank	Win	True
378.479	1.45	Win2	0.6	n/a	Yes	2.969	n/a	5.0	GoodResponse	1	0.028	377.507	3	39	Feedback	Win	True
379.933	2.969	Win2	0.6	n/a	Yes	2.969	n/a	n/a	GoodResponse	1	0.0	n/a	3	39	ISIslide	Win	True
382.926	0.25	Win2	0.6098	0.0	Yes	2.724	0.026	n/a	GoodResponse	1	n/a	n/a	4	40	Cue	Win	True
383.176	3.95	Win2	0.6098	0.001	Yes	2.724	0.0	n/a	GoodResponse	1	n/a	n/a	4	40	Fixation	Win	True
387.122	0.3	Win2	0.6098	0.004	Yes	2.724	-0.004	2.0	GoodResponse	1	0.197	386.319	4	40	Target	Win	True
387.319	0.3	Win2	0.6098	0.004	Yes	2.724	-0.004	2.0	GoodResponse	1	0.197	n/a	4	40	ButtonPress	Win	True
387.423	0.4	Win2	0.6098	n/a	Yes	2.724	n/a	n/a	GoodResponse	1	n/a	n/a	4	40	Blank	Win	True
387.824	1.45	Win2	0.6098	n/a	Yes	2.724	n/a	5.0	GoodResponse	1	0.048	386.872	4	40	Feedback	Win	True
389.278	2.724	Win2	0.6098	n/a	Yes	2.724	n/a	n/a	GoodResponse	1	0.0	n/a	4	40	ISIslide	Win	True
392.02	0.25	Win2	0.619	0.0	Yes	2.78	0.02	n/a	GoodResponse	1	n/a	n/a	5	41	Cue	Win	True
392.27	3.9	Win2	0.619	0.0	Yes	2.78	0.0	n/a	GoodResponse	1	n/a	n/a	5	41	Fixation	Win	True
396.182	0.31	Win2	0.619	0.0	Yes	2.78	0.012	2.0	GoodResponse	1	0.181	395.363	5	41	Target	Win	True
396.363	0.3	Win2	0.619	0.0	Yes	2.78	0.012	2.0	GoodResponse	1	0.181	n/a	5	41	ButtonPress	Win	True
396.483	0.39	Win2	0.619	n/a	Yes	2.78	n/a	n/a	GoodResponse	1	n/a	n/a	5	41	Blank	Win	True
396.867	1.45	Win2	0.619	n/a	Yes	2.78	n/a	5.0	GoodResponse	1	0.029	395.896	5	41	Feedback	Win	True
398.322	2.78	Win2	0.619	n/a	Yes	2.78	n/a	n/a	GoodResponse	1	0.0	n/a	5	41	ISIslide	Win	True
401.13	0.25	Control	0.6279	0.0	Yes	2.92	0.03	n/a	GoodResponse	0	n/a	n/a	5	42	Cue	Neutral	True
401.381	3.85	Control	0.6279	0.0	Yes	2.92	0.001	n/a	GoodResponse	0	n/a	n/a	5	42	Fixation	Neutral	True
405.226	0.32	Control	0.6279	0.004	Yes	2.92	-0.004	2.0	GoodResponse	0	0.254	404.48	5	42	Target	Neutral	True
405.48	0.3	Control	0.6279	0.004	Yes	2.92	-0.004	2.0	GoodResponse	0	0.254	n/a	5	42	ButtonPress	Neutral	True
405.56	0.38	Control	0.6279	n/a	Yes	2.92	n/a	n/a	GoodResponse	0	n/a	n/a	5	42	Blank	Neutral	True
405.928	1.45	Control	0.6279	n/a	Yes	2.92	n/a	5.0	GoodResponse	0	0.041	404.969	5	42	Feedback	Neutral	True
407.382	2.92	Control	0.6279	n/a	Yes	2.92	n/a	n/a	GoodResponse	0	0.0	n/a	5	42	ISIslide	Neutral	True
410.324	0.25	Win2	0.6364	0.0	Yes	3.176	0.024	n/a	GoodResponse	1	n/a	n/a	6	43	Cue	Win	True
410.575	4.0	Win2	0.6364	0.0	Yes	3.176	0.001	n/a	GoodResponse	1	n/a	n/a	6	43	Fixation	Win	True
414.57	0.33	Win2	0.6364	0.004	Yes	3.176	-0.004	2.0	GoodResponse	1	0.231	413.801	6	43	Target	Win	True
414.801	0.3	Win2	0.6364	0.004	Yes	3.176	-0.004	2.0	GoodResponse	1	0.231	n/a	6	43	ButtonPress	Win	True
414.905	0.37	Win2	0.6364	n/a	Yes	3.176	n/a	n/a	GoodResponse	1	n/a	n/a	6	43	Blank	Win	True
415.272	1.45	Win2	0.6364	n/a	Yes	3.176	n/a	5.0	GoodResponse	1	0.015	414.287	6	43	Feedback	Win	True
416.727	3.176	Win2	0.6364	n/a	Yes	3.176	n/a	n/a	GoodResponse	1	0.0	n/a	6	43	ISIslide	Win	True
419.92	0.25	Win2	0.6444	0.0	Yes	2.98	0.02	n/a	GoodResponse	1	n/a	n/a	7	44	Cue	Win	True
420.17	4.0	Win2	0.6444	0.001	Yes	2.98	0.0	n/a	GoodResponse	1	n/a	n/a	7	44	Fixation	Win	True
424.166	0.34	Win2	0.6444	0.004	Yes	2.98	-0.004	2.0	GoodResponse	1	0.231	423.397	7	44	Target	Win	True
424.397	0.3	Win2	0.6444	0.004	Yes	2.98	-0.004	2.0	GoodResponse	1	0.231	n/a	7	44	ButtonPress	Win	True
424.517	0.36	Win2	0.6444	n/a	Yes	2.98	n/a	n/a	GoodResponse	1	n/a	n/a	7	44	Blank	Win	True
424.868	1.45	Win2	0.6444	n/a	Yes	2.98	n/a	5.0	GoodResponse	1	0.028	423.896	7	44	Feedback	Win	True
426.322	2.98	Win2	0.6444	n/a	Yes	2.98	n/a	n/a	GoodResponse	1	0.0	n/a	7	44	ISIslide	Win	True
429.314	0.25	Control	0.6522	0.001	Yes	2.886	0.014	n/a	GoodResponse	0	n/a	n/a	7	45	Cue	Neutral	True
429.565	4.1	Control	0.6522	0.0	Yes	2.886	0.001	n/a	GoodResponse	0	n/a	n/a	7	45	Fixation	Neutral	True
433.661	0.35	Control	0.6522	0.003	Yes	2.886	-0.003	2.0	GoodResponse	0	0.251	432.912	7	45	Target	Neutral	True
433.912	0.3	Control	0.6522	0.003	Yes	2.886	-0.003	2.0	GoodResponse	0	0.251	n/a	7	45	ButtonPress	Neutral	True
434.012	0.35	Control	0.6522	n/a	Yes	2.886	n/a	n/a	GoodResponse	0	n/a	n/a	7	45	Blank	Neutral	True
434.363	1.45	Control	0.6522	n/a	Yes	2.886	n/a	5.0	GoodResponse	0	0.045	433.408	7	45	Feedback	Neutral	True
435.817	2.886	Control	0.6522	n/a	Yes	2.886	n/a	n/a	GoodResponse	0	0.0	n/a	7	45	ISIslide	Neutral	True
438.726	0.25	Lose2	0.6596	0.0	Yes	3.374	0.026	n/a	GoodResponse	0	n/a	n/a	7	46	Cue	AvoidedLoss	True
438.977	4.0	Lose2	0.6596	0.0	Yes	3.374	0.001	n/a	GoodResponse	0	n/a	n/a	7	46	Fixation	AvoidedLoss	True
442.972	0.36	Lose2	0.6596	0.004	Yes	3.374	-0.004	2.0	GoodResponse	0	0.185	442.157	7	46	Target	AvoidedLoss	True
443.157	0.3	Lose2	0.6596	0.004	Yes	3.374	-0.004	2.0	GoodResponse	0	0.185	n/a	7	46	ButtonPress	AvoidedLoss	True
443.34	0.34	Lose2	0.6596	n/a	Yes	3.374	n/a	n/a	GoodResponse	0	n/a	n/a	7	46	Blank	AvoidedLoss	True
443.674	1.45	Lose2	0.6596	n/a	Yes	3.374	n/a	5.0	GoodResponse	0	0.008	442.682	7	46	Feedback	AvoidedLoss	True
445.128	3.374	Lose2	0.6596	n/a	Yes	3.374	n/a	n/a	GoodResponse	0	0.0	n/a	7	46	ISIslide	AvoidedLoss	True
448.522	0.25	Lose2	0.6667000000000001	0.0	Yes	2.678	0.022	n/a	GoodResponse	0	n/a	n/a	7	47	Cue	AvoidedLoss	True
448.773	4.0	Lose2	0.6667000000000001	0.0	Yes	2.678	0.001	n/a	GoodResponse	0	n/a	n/a	7	47	Fixation	AvoidedLoss	True
452.768	0.36	Lose2	0.6667000000000001	0.004	Yes	2.678	-0.004	2.0	GoodResponse	0	0.252	452.02	7	47	Target	AvoidedLoss	True
453.02	0.3	Lose2	0.6667000000000001	0.004	Yes	2.678	-0.004	2.0	GoodResponse	0	0.252	n/a	7	47	ButtonPress	AvoidedLoss	True
453.136	0.34	Lose2	0.6667000000000001	n/a	Yes	2.678	n/a	n/a	GoodResponse	0	n/a	n/a	7	47	Blank	AvoidedLoss	True
453.47	1.45	Lose2	0.6667000000000001	n/a	Yes	2.678	n/a	5.0	GoodResponse	0	0.011	452.481	7	47	Feedback	AvoidedLoss	True
454.924	2.678	Lose2	0.6667000000000001	n/a	Yes	2.678	n/a	n/a	GoodResponse	0	0.0	n/a	7	47	ISIslide	AvoidedLoss	True
457.632	0.25	Lose2	0.6735	0.001	Yes	3.018	0.032	n/a	GoodResponse	0	n/a	n/a	7	48	Cue	AvoidedLoss	True
457.883	3.95	Lose2	0.6735	0.001	Yes	3.018	0.001	n/a	GoodResponse	0	n/a	n/a	7	48	Fixation	AvoidedLoss	True
461.828	0.35	Lose2	0.6735	0.004	Yes	3.018	-0.004	2.0	GoodResponse	0	0.272	461.1	7	48	Target	AvoidedLoss	True
462.1	0.3	Lose2	0.6735	0.004	Yes	3.018	-0.004	2.0	GoodResponse	0	0.272	n/a	7	48	ButtonPress	AvoidedLoss	True
462.179	0.35	Lose2	0.6735	n/a	Yes	3.018	n/a	n/a	GoodResponse	0	n/a	n/a	7	48	Blank	AvoidedLoss	True
462.53	1.45	Lose2	0.6735	n/a	Yes	3.018	n/a	5.0	GoodResponse	0	0.024	461.554	7	48	Feedback	AvoidedLoss	True
463.985	3.018	Lose2	0.6735	n/a	Yes	3.018	n/a	n/a	GoodResponse	0	0.0	n/a	7	48	ISIslide	AvoidedLoss	True
467.027	0.25	Control	0.68	0.0	Yes	2.873	0.027	n/a	GoodResponse	0	n/a	n/a	7	49	Cue	Neutral	True
467.278	4.0	Control	0.68	0.0	Yes	2.873	0.001	n/a	GoodResponse	0	n/a	n/a	7	49	Fixation	Neutral	True
471.273	0.34	Control	0.68	0.004	Yes	2.873	-0.004	2.0	GoodResponse	0	0.256	470.529	7	49	Target	Neutral	True
471.529	0.3	Control	0.68	0.004	Yes	2.873	-0.004	2.0	GoodResponse	0	0.256	n/a	7	49	ButtonPress	Neutral	True
471.624	0.36	Control	0.68	n/a	Yes	2.873	n/a	n/a	GoodResponse	0	n/a	n/a	7	49	Blank	Neutral	True
471.975	1.45	Control	0.68	n/a	Yes	2.873	n/a	5.0	GoodResponse	0	0.043	471.018	7	49	Feedback	Neutral	True
473.43	2.873	Control	0.68	n/a	Yes	2.873	n/a	n/a	GoodResponse	0	0.0	n/a	7	49	ISIslide	Neutral	True
476.322	0.25	Control	0.6862999999999999	0.0	Yes	2.778	0.022	n/a	GoodResponse	0	n/a	n/a	7	50	Cue	Neutral	True
476.572	4.0	Control	0.6862999999999999	0.0	Yes	2.778	0.0	n/a	GoodResponse	0	n/a	n/a	7	50	Fixation	Neutral	True
480.568	0.33	Control	0.6862999999999999	0.004	Yes	2.778	-0.004	2.0	GoodResponse	0	0.247	479.815	7	50	Target	Neutral	True
480.815	0.3	Control	0.6862999999999999	0.004	Yes	2.778	-0.004	2.0	GoodResponse	0	0.247	n/a	7	50	ButtonPress	Neutral	True
480.902	0.37	Control	0.6862999999999999	n/a	Yes	2.778	n/a	n/a	GoodResponse	0	n/a	n/a	7	50	Blank	Neutral	True
481.27	1.45	Control	0.6862999999999999	n/a	Yes	2.778	n/a	5.0	GoodResponse	0	0.015	480.285	7	50	Feedback	Neutral	True
482.724	2.778	Control	0.6862999999999999	n/a	Yes	2.778	n/a	n/a	GoodResponse	0	0.0	n/a	7	50	ISIslide	Neutral	True
485.516	0.25	Control	0.6923	0.0	Yes	2.734	0.016	n/a	GoodResponse	0	n/a	n/a	7	51	Cue	Neutral	True
485.767	3.95	Control	0.6923	0.0	Yes	2.734	0.001	n/a	GoodResponse	0	n/a	n/a	7	51	Fixation	Neutral	True
489.712	0.32	Control	0.6923	0.004	Yes	2.734	-0.004	2.0	GoodResponse	0	0.264	488.976	7	51	Target	Neutral	True
489.976	0.3	Control	0.6923	0.004	Yes	2.734	-0.004	2.0	GoodResponse	0	0.264	n/a	7	51	ButtonPress	Neutral	True
490.046	0.38	Control	0.6923	n/a	Yes	2.734	n/a	n/a	GoodResponse	0	n/a	n/a	7	51	Blank	Neutral	True
490.414	1.45	Control	0.6923	n/a	Yes	2.734	n/a	5.0	GoodResponse	0	0.042	489.456	7	51	Feedback	Neutral	True
491.868	2.734	Control	0.6923	n/a	Yes	2.734	n/a	n/a	GoodResponse	0	0.0	n/a	7	51	ISIslide	Neutral	True
494.626	0.25	Control	0.6981	0.0	Yes	2.624	0.026	n/a	GoodResponse	0	n/a	n/a	7	52	Cue	Neutral	True
494.877	4.05	Control	0.6981	0.0	Yes	2.624	0.001	n/a	GoodResponse	0	n/a	n/a	7	52	Fixation	Neutral	True
498.923	0.31	Control	0.6981	0.003	Yes	2.624	-0.003	2.0	GoodResponse	0	0.255	498.178	7	52	Target	Neutral	True
499.178	0.3	Control	0.6981	0.003	Yes	2.624	-0.003	2.0	GoodResponse	0	0.255	n/a	7	52	ButtonPress	Neutral	True
499.24	0.39	Control	0.6981	n/a	Yes	2.624	n/a	n/a	GoodResponse	0	n/a	n/a	7	52	Blank	Neutral	True
499.625	1.45	Control	0.6981	n/a	Yes	2.624	n/a	5.0	GoodResponse	0	0.005	498.63	7	52	Feedback	Neutral	True
501.079	2.624	Control	0.6981	n/a	Yes	2.624	n/a	n/a	GoodResponse	0	0.0	n/a	7	52	ISIslide	Neutral	True
503.72	0.25	Win2	0.7037	0.0	Yes	2.93	0.02	n/a	GoodResponse	1	n/a	n/a	8	53	Cue	Win	True
503.971	4.05	Win2	0.7037	0.0	Yes	2.93	0.001	n/a	GoodResponse	1	n/a	n/a	8	53	Fixation	Win	True
508.016	0.3	Win2	0.7037	0.004	Yes	2.93	-0.004	2.0	GoodResponse	1	0.211	507.227	8	53	Target	Win	True
508.227	0.3	Win2	0.7037	0.004	Yes	2.93	-0.004	2.0	GoodResponse	1	0.211	n/a	8	53	ButtonPress	Win	True
508.317	0.4	Win2	0.7037	n/a	Yes	2.93	n/a	n/a	GoodResponse	1	n/a	n/a	8	53	Blank	Win	True
508.719	1.45	Win2	0.7037	n/a	Yes	2.93	n/a	5.0	GoodResponse	1	0.03	507.749	8	53	Feedback	Win	True
510.173	2.93	Win2	0.7037	n/a	Yes	2.93	n/a	n/a	GoodResponse	1	0.0	n/a	8	53	ISIslide	Win	True
513.132	0.25	Win2	0.7091	0.0	Yes	2.718	0.032	n/a	GoodResponse	1	n/a	n/a	9	54	Cue	Win	True
513.382	3.95	Win2	0.7091	0.001	Yes	2.718	0.0	n/a	GoodResponse	1	n/a	n/a	9	54	Fixation	Win	True
517.328	0.29	Win2	0.7091	0.004	Yes	2.718	-0.004	2.0	GoodResponse	1	0.231	516.559	9	54	Target	Win	True
517.559	0.3	Win2	0.7091	0.004	Yes	2.718	-0.004	2.0	GoodResponse	1	0.231	n/a	9	54	ButtonPress	Win	True
517.628	0.41	Win2	0.7091	n/a	Yes	2.718	n/a	n/a	GoodResponse	1	n/a	n/a	9	54	Blank	Win	True
518.03	1.45	Win2	0.7091	n/a	Yes	2.718	n/a	5.0	GoodResponse	1	0.035	517.065	9	54	Feedback	Win	True
519.484	2.718	Win2	0.7091	n/a	Yes	2.718	n/a	n/a	GoodResponse	1	0.0	n/a	9	54	ISIslide	Win	True
522.226	0.25	Control	0.7143	0.0	Yes	3.024	0.026	n/a	GoodResponse	0	n/a	n/a	9	55	Cue	Neutral	True
522.476	3.95	Control	0.7143	0.0	Yes	3.024	0.0	n/a	GoodResponse	0	n/a	n/a	9	55	Fixation	Neutral	True
526.421	0.28	Control	0.7143	0.005	Yes	3.024	-0.005	2.0	GoodResponse	0	0.275	525.696	9	55	Target	Neutral	True
526.696	0.3	Control	0.7143	0.005	Yes	3.024	-0.005	2.0	GoodResponse	0	0.275	n/a	9	55	ButtonPress	Neutral	True
526.706	0.42	Control	0.7143	n/a	Yes	3.024	n/a	n/a	GoodResponse	0	n/a	n/a	9	55	Blank	Neutral	True
527.124	1.45	Control	0.7143	n/a	Yes	3.024	n/a	5.0	GoodResponse	0	0.014	526.138	9	55	Feedback	Neutral	True
528.578	3.024	Control	0.7143	n/a	Yes	3.024	n/a	n/a	GoodResponse	0	0.0	n/a	9	55	ISIslide	Neutral	True
531.62	0.25	Control	0.7193	0.0	Yes	2.83	0.02	n/a	GoodResponse	0	n/a	n/a	9	56	Cue	Neutral	True
531.871	3.95	Control	0.7193	0.0	Yes	2.83	0.001	n/a	GoodResponse	0	n/a	n/a	9	56	Fixation	Neutral	True
535.816	0.27	Control	0.7193	0.004	Yes	2.83	-0.004	2.0	GoodResponse	0	0.265	535.081	9	56	Target	Neutral	True
536.081	0.3	Control	0.7193	0.004	Yes	2.83	-0.004	2.0	GoodResponse	0	0.265	n/a	9	56	ButtonPress	Neutral	True
536.1	0.43	Control	0.7193	n/a	Yes	2.83	n/a	n/a	GoodResponse	0	n/a	n/a	9	56	Blank	Neutral	True
536.518	1.45	Control	0.7193	n/a	Yes	2.83	n/a	5.0	GoodResponse	0	0.035	535.553	9	56	Feedback	Neutral	True
537.973	2.83	Control	0.7193	n/a	Yes	2.83	n/a	n/a	GoodResponse	0	0.0	n/a	9	56	ISIslide	Neutral	True
540.831	0.25	Control	0.7241	0.0	Yes	3.469	0.031	n/a	GoodResponse	0	n/a	n/a	9	57	Cue	Neutral	True
541.082	4.0	Control	0.7241	0.0	Yes	3.469	0.001	n/a	GoodResponse	0	n/a	n/a	9	57	Fixation	Neutral	True
545.077	0.26	Control	0.7241	0.004	Yes	3.469	-0.004	2.0	GoodResponse	0	0.237	544.314	9	57	Target	Neutral	True
545.314	0.3	Control	0.7241	0.004	Yes	3.469	-0.004	2.0	GoodResponse	0	0.237	n/a	9	57	ButtonPress	Neutral	True
545.345	0.44	Control	0.7241	n/a	Yes	3.469	n/a	n/a	GoodResponse	0	n/a	n/a	9	57	Blank	Neutral	True
545.779	1.45	Control	0.7241	n/a	Yes	3.469	n/a	5.0	GoodResponse	0	0.043	544.822	9	57	Feedback	Neutral	True
547.234	3.469	Control	0.7241	n/a	Yes	3.469	n/a	n/a	GoodResponse	0	0.0	n/a	9	57	ISIslide	Neutral	True
550.727	0.25	Win2	0.7288	0.001	Yes	2.723	0.027	n/a	GoodResponse	1	n/a	n/a	10	58	Cue	Win	True
550.978	4.05	Win2	0.7288	0.0	Yes	2.723	0.001	n/a	GoodResponse	1	n/a	n/a	10	58	Fixation	Win	True
555.024	0.25	Win2	0.7288	0.003	Yes	2.723	-0.003	2.0	GoodResponse	1	0.227	554.251	10	58	Target	Win	True
555.251	0.3	Win2	0.7288	0.003	Yes	2.723	-0.003	2.0	GoodResponse	1	0.227	n/a	10	58	ButtonPress	Win	True
555.274	0.45	Win2	0.7288	n/a	Yes	2.723	n/a	n/a	GoodResponse	1	n/a	n/a	10	58	Blank	Win	True
555.726	1.45	Win2	0.7288	n/a	Yes	2.723	n/a	5.0	GoodResponse	1	0.047	554.773	10	58	Feedback	Win	True
557.18	2.723	Win2	0.7288	n/a	Yes	2.723	n/a	n/a	GoodResponse	1	0.0	n/a	10	58	ISIslide	Win	True
559.922	0.25	Lose2	0.7167	0.0	No	2.678	0.022	n/a	NoResponse	-1	n/a	n/a	9	59	Cue	Loss	True
560.172	4.0	Lose2	0.7167	0.0	No	2.678	0.0	n/a	NoResponse	-1	n/a	n/a	9	59	Fixation	Loss	True
564.168	0.24	Lose2	0.7167	0.004	No	2.678	-0.004	2.0	NoResponse	-1	0.258	563.426	9	59	Target	Loss	True
564.418	0.46	Lose2	0.7167	n/a	No	2.678	n/a	n/a	NoResponse	-1	n/a	n/a	9	59	Blank	Loss	True
564.426	0.3	Lose2	0.7167	0.004	No	2.678	-0.004	2.0	NoResponse	-1	0.258	n/a	9	59	ButtonPress	Loss	True
564.87	1.45	Lose2	0.7167	n/a	No	2.678	n/a	5.0	NoResponse	-1	0.024	563.894	9	59	Feedback	Loss	True
566.324	2.678	Lose2	0.7167	n/a	No	2.678	n/a	n/a	NoResponse	-1	0.0	n/a	9	59	ISIslide	Loss	True
569.015	0.25	Control	0.7049	0.001	No	2.685	0.015	n/a	NoResponse	0	n/a	n/a	9	60	Cue	Neutral	True
569.266	4.0	Control	0.7049	0.0	No	2.685	0.001	n/a	NoResponse	0	n/a	n/a	9	60	Fixation	Neutral	True
573.261	0.23	Control	0.7049	0.004	No	2.685	-0.004	2.0	NoResponse	0	0.242	572.503	9	60	Target	Neutral	True
573.496	0.47	Control	0.7049	n/a	No	2.685	n/a	n/a	NoResponse	0	n/a	n/a	9	60	Blank	Neutral	True
573.503	0.3	Control	0.7049	0.004	No	2.685	-0.004	2.0	NoResponse	0	0.242	n/a	9	60	ButtonPress	Neutral	True
573.964	1.45	Control	0.7049	n/a	No	2.685	n/a	5.0	NoResponse	0	0.005	572.969	9	60	Feedback	Neutral	True
575.418	2.685	Control	0.7049	n/a	No	2.685	n/a	n/a	NoResponse	0	0.0	n/a	9	60	ISIslide	Neutral	True
578.126	0.25	Lose2	0.6934999999999999	0.0	No	2.974	0.026	n/a	LatePress	-1	n/a	n/a	8	61	Cue	Loss	True
578.377	4.0	Lose2	0.6934999999999999	0.0	No	2.974	0.001	n/a	LatePress	-1	n/a	n/a	8	61	Fixation	Loss	True
582.372	0.22	Lose2	0.6934999999999999	0.004	No	2.974	-0.004	2.0	LatePress	-1	0.227	581.599	8	61	Target	Loss	True
582.599	0.3	Lose2	0.6934999999999999	0.004	No	2.974	-0.004	2.0	LatePress	-1	0.227	n/a	8	61	ButtonPress	Loss	True
582.606	0.48	Lose2	0.6934999999999999	n/a	No	2.974	n/a	n/a	LatePress	-1	n/a	n/a	8	61	Blank	Loss	True
583.074	1.45	Lose2	0.6934999999999999	n/a	No	2.974	n/a	5.0	LatePress	-1	0.015	582.089	8	61	Feedback	Loss	True
584.529	2.974	Lose2	0.6934999999999999	n/a	No	2.974	n/a	n/a	LatePress	-1	0.0	n/a	8	61	ISIslide	Loss	True
587.521	0.25	Lose2	0.6825	0.0	No	2.879	0.021	n/a	NoResponse	-1	n/a	n/a	7	62	Cue	Loss	False
587.772	3.9	Lose2	0.6825	0.0	No	2.879	0.001	2.0	NoResponse	-1	3.837	590.609	7	62	Fixation	Loss	False
591.609	0.3	Lose2	0.6825	0.0	No	2.879	0.001	2.0	NoResponse	-1	3.837	n/a	7	62	ButtonPress	Loss	False
591.667	0.21	Lose2	0.6825	0.004	No	2.879	-0.004	2.0	NoResponse	-1	0.367	591.034	7	62	Target	Loss	False
591.884	0.49	Lose2	0.6825	n/a	No	2.879	n/a	n/a	NoResponse	-1	n/a	n/a	7	62	Blank	Loss	False
592.034	0.3	Lose2	0.6825	0.004	No	2.879	-0.004	2.0	NoResponse	-1	0.367	n/a	7	62	ButtonPress	Loss	False
592.369	1.45	Lose2	0.6825	n/a	No	2.879	n/a	5.0	NoResponse	-1	0.037	591.406	7	62	Feedback	Loss	False
593.823	2.879	Lose2	0.6825	n/a	No	2.879	n/a	n/a	NoResponse	-1	0.0	n/a	7	62	ISIslide	Loss	False
596.732	0.25	Lose2	0.6718999999999999	0.0	No	2.618	0.032	n/a	NoResponse	-1	n/a	n/a	6	63	Cue	Loss	True
596.982	4.05	Lose2	0.6718999999999999	0.0	No	2.618	0.0	n/a	NoResponse	-1	n/a	n/a	6	63	Fixation	Loss	True
601.028	0.2	Lose2	0.6718999999999999	0.004	No	2.618	-0.004	2.0	NoResponse	-1	0.246	600.274	6	63	Target	Loss	True
601.228	0.5	Lose2	0.6718999999999999	n/a	No	2.618	n/a	n/a	NoResponse	-1	n/a	n/a	6	63	Blank	Loss	True
601.274	0.3	Lose2	0.6718999999999999	0.004	No	2.618	-0.004	2.0	NoResponse	-1	0.246	n/a	6	63	ButtonPress	Loss	True
601.73	1.45	Lose2	0.6718999999999999	n/a	No	2.618	n/a	5.0	NoResponse	-1	0.042	600.772	6	63	Feedback	Loss	True
603.184	2.618	Lose2	0.6718999999999999	n/a	No	2.618	n/a	n/a	NoResponse	-1	0.0	n/a	6	63	ISIslide	Loss	True
605.826	0.25	Win2	0.6615000000000001	0.0	No	3.124	0.026	n/a	LatePress	0	n/a	n/a	6	64	Cue	MissedWin	True
606.076	4.15	Win2	0.6615000000000001	0.0	No	3.124	0.0	n/a	LatePress	0	n/a	n/a	6	64	Fixation	MissedWin	True
610.222	0.19	Win2	0.6615000000000001	0.004	No	3.124	-0.004	2.0	LatePress	0	0.2	609.422	6	64	Target	MissedWin	True
610.422	0.3	Win2	0.6615000000000001	0.004	No	3.124	-0.004	2.0	LatePress	0	0.2	n/a	6	64	ButtonPress	MissedWin	True
610.423	0.51	Win2	0.6615000000000001	n/a	No	3.124	n/a	n/a	LatePress	0	n/a	n/a	6	64	Blank	MissedWin	True
610.924	1.45	Win2	0.6615000000000001	n/a	No	3.124	n/a	5.0	LatePress	0	0.018	609.942	6	64	Feedback	MissedWin	True
612.378	3.124	Win2	0.6615000000000001	n/a	No	3.124	n/a	n/a	LatePress	0	0.0	n/a	6	64	ISIslide	MissedWin	True
615.521	0.25	Control	0.6667000000000001	0.0	Yes	2.779	0.021	n/a	GoodResponse	0	n/a	n/a	6	65	Cue	Neutral	True
615.772	4.0	Control	0.6667000000000001	0.0	Yes	2.779	0.001	n/a	GoodResponse	0	n/a	n/a	6	65	Fixation	Neutral	True
619.767	0.19	Control	0.6667000000000001	0.004	Yes	2.779	-0.004	2.0	GoodResponse	0	0.183	618.95	6	65	Target	Neutral	True
619.95	0.3	Control	0.6667000000000001	0.004	Yes	2.779	-0.004	2.0	GoodResponse	0	0.183	n/a	6	65	ButtonPress	Neutral	True
619.968	0.51	Control	0.6667000000000001	n/a	Yes	2.779	n/a	n/a	GoodResponse	0	n/a	n/a	6	65	Blank	Neutral	True
620.469	1.45	Control	0.6667000000000001	n/a	Yes	2.779	n/a	5.0	GoodResponse	0	0.034	619.503	6	65	Feedback	Neutral	True
621.924	2.779	Control	0.6667000000000001	n/a	Yes	2.779	n/a	n/a	GoodResponse	0	0.0	n/a	6	65	ISIslide	Neutral	True
624.732	0.25	Win2	0.6567000000000001	0.0	No	2.768	0.032	n/a	NoResponse	0	n/a	n/a	6	66	Cue	MissedWin	True
624.983	3.9	Win2	0.6567000000000001	0.0	No	2.768	0.001	n/a	NoResponse	0	n/a	n/a	6	66	Fixation	MissedWin	True
628.878	0.18	Win2	0.6567000000000001	0.004	No	2.768	-0.004	2.0	NoResponse	0	0.192	628.07	6	66	Target	MissedWin	True
629.062	0.52	Win2	0.6567000000000001	n/a	No	2.768	n/a	n/a	NoResponse	0	n/a	n/a	6	66	Blank	MissedWin	True
629.07	0.3	Win2	0.6567000000000001	0.004	No	2.768	-0.004	2.0	NoResponse	0	0.192	n/a	6	66	ButtonPress	MissedWin	True
629.58	1.45	Win2	0.6567000000000001	n/a	No	2.768	n/a	5.0	NoResponse	0	0.045	628.625	6	66	Feedback	MissedWin	True
631.034	2.768	Win2	0.6567000000000001	n/a	No	2.768	n/a	n/a	NoResponse	0	0.0	n/a	6	66	ISIslide	MissedWin	True
633.826	0.25	Control	0.6470999999999999	0.0	No	2.724	0.026	n/a	NoResponse	0	n/a	n/a	6	67	Cue	Neutral	True
634.077	3.95	Control	0.6470999999999999	0.0	No	2.724	0.001	n/a	NoResponse	0	n/a	n/a	6	67	Fixation	Neutral	True
638.022	0.18	Control	0.6470999999999999	0.004	No	2.724	-0.004	2.0	NoResponse	0	0.198	637.22	6	67	Target	Neutral	True
638.206	0.52	Control	0.6470999999999999	n/a	No	2.724	n/a	n/a	NoResponse	0	n/a	n/a	6	67	Blank	Neutral	True
638.22	0.3	Control	0.6470999999999999	0.004	No	2.724	-0.004	2.0	NoResponse	0	0.198	n/a	6	67	ButtonPress	Neutral	True
638.724	1.45	Control	0.6470999999999999	n/a	No	2.724	n/a	5.0	NoResponse	0	0.023	637.747	6	67	Feedback	Neutral	True
640.178	2.724	Control	0.6470999999999999	n/a	No	2.724	n/a	n/a	NoResponse	0	0.0	n/a	6	67	ISIslide	Neutral	True
642.92	0.25	Win2	0.6522	0.0	Yes	3.08	0.02	n/a	GoodResponse	1	n/a	n/a	7	68	Cue	Win	True
643.171	4.0	Win2	0.6522	0.0	Yes	3.08	0.001	n/a	GoodResponse	1	n/a	n/a	7	68	Fixation	Win	True
647.166	0.19	Win2	0.6522	0.004	Yes	3.08	-0.004	2.0	GoodResponse	1	0.174	646.34	7	68	Target	Win	True
647.34	0.3	Win2	0.6522	0.004	Yes	3.08	-0.004	2.0	GoodResponse	1	0.174	n/a	7	68	ButtonPress	Win	True
647.366	0.51	Win2	0.6522	n/a	Yes	3.08	n/a	n/a	GoodResponse	1	n/a	n/a	7	68	Blank	Win	True
647.868	1.45	Win2	0.6522	n/a	Yes	3.08	n/a	5.0	GoodResponse	1	0.0	646.868	7	68	Feedback	Win	True
649.322	3.08	Win2	0.6522	n/a	Yes	3.08	n/a	n/a	GoodResponse	1	0.0	n/a	7	68	ISIslide	Win	True
652.415	0.25	Win2	0.6429	0.0	No	3.235	0.015	n/a	NoResponse	0	n/a	n/a	7	69	Cue	MissedWin	True
652.666	3.95	Win2	0.6429	0.0	No	3.235	0.001	n/a	NoResponse	0	n/a	n/a	7	69	Fixation	MissedWin	True
656.611	0.2	Win2	0.6429	0.004	No	3.235	-0.004	2.0	NoResponse	0	0.222	655.833	7	69	Target	MissedWin	True
656.811	0.5	Win2	0.6429	n/a	No	3.235	n/a	n/a	NoResponse	0	n/a	n/a	7	69	Blank	MissedWin	True
656.833	0.3	Win2	0.6429	0.004	No	3.235	-0.004	2.0	NoResponse	0	0.222	n/a	7	69	ButtonPress	MissedWin	True
657.313	1.45	Win2	0.6429	n/a	No	3.235	n/a	5.0	NoResponse	0	0.019	656.332	7	69	Feedback	MissedWin	True
658.767	3.235	Win2	0.6429	n/a	No	3.235	n/a	n/a	NoResponse	0	0.0	n/a	7	69	ISIslide	MissedWin	True
662.027	0.25	Lose2	0.6338	0.0	No	3.023	0.027	n/a	LatePress	-1	n/a	n/a	6	70	Cue	Loss	True
662.278	4.05	Lose2	0.6338	0.0	No	3.023	0.001	n/a	LatePress	-1	n/a	n/a	6	70	Fixation	Loss	True
666.323	0.21	Lose2	0.6338	0.004	No	3.023	-0.004	2.0	LatePress	-1	0.216	665.539	6	70	Target	Loss	True
666.539	0.3	Lose2	0.6338	0.004	No	3.023	-0.004	2.0	LatePress	-1	0.216	n/a	6	70	ButtonPress	Loss	True
666.54	0.49	Lose2	0.6338	n/a	No	3.023	n/a	n/a	LatePress	-1	n/a	n/a	6	70	Blank	Loss	True
667.025	1.45	Lose2	0.6338	n/a	No	3.023	n/a	5.0	LatePress	-1	0.014	666.039	6	70	Feedback	Loss	True
668.48	3.023	Lose2	0.6338	n/a	No	3.023	n/a	n/a	LatePress	-1	0.0	n/a	6	70	ISIslide	Loss	True
671.522	0.25	Win2	0.6389	0.0	Yes	2.728	0.022	n/a	GoodResponse	1	n/a	n/a	7	71	Cue	Win	True
671.773	4.05	Win2	0.6389	0.0	Yes	2.728	0.001	n/a	GoodResponse	1	n/a	n/a	7	71	Fixation	Win	True
675.818	0.22	Win2	0.6389	0.004	Yes	2.728	-0.004	2.0	GoodResponse	1	0.19	675.008	7	71	Target	Win	True
676.008	0.3	Win2	0.6389	0.004	Yes	2.728	-0.004	2.0	GoodResponse	1	0.19	n/a	7	71	ButtonPress	Win	True
676.052	0.48	Win2	0.6389	n/a	Yes	2.728	n/a	n/a	GoodResponse	1	n/a	n/a	7	71	Blank	Win	True
676.52	1.45	Win2	0.6389	n/a	Yes	2.728	n/a	5.0	GoodResponse	1	0.032	675.552	7	71	Feedback	Win	True
677.975	2.728	Win2	0.6389	n/a	Yes	2.728	n/a	n/a	GoodResponse	1	0.0	n/a	7	71	ISIslide	Win	True
680.716	0.25	Win2	0.6437999999999999	0.0	Yes	2.784	0.016	n/a	GoodResponse	1	n/a	n/a	8	72	Cue	Win	True
680.967	4.1	Win2	0.6437999999999999	0.0	Yes	2.784	0.001	n/a	GoodResponse	1	n/a	n/a	8	72	Fixation	Win	True
685.062	0.23	Win2	0.6437999999999999	0.004	Yes	2.784	-0.004	2.0	GoodResponse	1	0.196	684.258	8	72	Target	Win	True
685.258	0.3	Win2	0.6437999999999999	0.004	Yes	2.784	-0.004	2.0	GoodResponse	1	0.196	n/a	8	72	ButtonPress	Win	True
685.296	0.47	Win2	0.6437999999999999	n/a	Yes	2.784	n/a	n/a	GoodResponse	1	n/a	n/a	8	72	Blank	Win	True
685.765	1.45	Win2	0.6437999999999999	n/a	Yes	2.784	n/a	5.0	GoodResponse	1	0.006	684.771	8	72	Feedback	Win	True
687.219	2.784	Win2	0.6437999999999999	n/a	Yes	2.784	n/a	n/a	GoodResponse	1	0.0	n/a	8	72	ISIslide	Win	True
690.027	0.25	Win2	0.6486	0.0	Yes	2.673	0.027	n/a	GoodResponse	1	n/a	n/a	9	73	Cue	Win	True
690.278	4.0	Win2	0.6486	0.0	Yes	2.673	0.001	n/a	GoodResponse	1	n/a	n/a	9	73	Fixation	Win	True
694.273	0.24	Win2	0.6486	0.004	Yes	2.673	-0.004	2.0	GoodResponse	1	0.119	693.392	9	73	Target	Win	True
694.392	0.3	Win2	0.6486	0.004	Yes	2.673	-0.004	2.0	GoodResponse	1	0.119	n/a	9	73	ButtonPress	Win	True
694.524	0.46	Win2	0.6486	n/a	Yes	2.673	n/a	n/a	GoodResponse	1	n/a	n/a	9	73	Blank	Win	True
694.975	1.45	Win2	0.6486	n/a	Yes	2.673	n/a	5.0	GoodResponse	1	0.015	693.99	9	73	Feedback	Win	True
696.43	2.673	Win2	0.6486	n/a	Yes	2.673	n/a	n/a	GoodResponse	1	0.0	n/a	9	73	ISIslide	Win	True
699.121	0.25	Lose2	0.6533	0.0	Yes	2.629	0.021	n/a	GoodResponse	0	n/a	n/a	9	74	Cue	AvoidedLoss	True
699.372	4.05	Lose2	0.6533	0.0	Yes	2.629	0.001	n/a	GoodResponse	0	n/a	n/a	9	74	Fixation	AvoidedLoss	True
703.417	0.25	Lose2	0.6533	0.004	Yes	2.629	-0.004	2.0	GoodResponse	0	0.216	702.633	9	74	Target	AvoidedLoss	True
703.633	0.3	Lose2	0.6533	0.004	Yes	2.629	-0.004	2.0	GoodResponse	0	0.216	n/a	9	74	ButtonPress	AvoidedLoss	True
703.668	0.45	Lose2	0.6533	n/a	Yes	2.629	n/a	n/a	GoodResponse	0	n/a	n/a	9	74	Blank	AvoidedLoss	True
704.119	1.45	Lose2	0.6533	n/a	Yes	2.629	n/a	5.0	GoodResponse	0	0.042	703.161	9	74	Feedback	AvoidedLoss	True
705.574	2.629	Lose2	0.6533	n/a	Yes	2.629	n/a	n/a	GoodResponse	0	0.0	n/a	9	74	ISIslide	AvoidedLoss	True
708.215	0.25	Lose2	0.6446999999999999	0.0	No	2.935	0.015	n/a	PrematurePress	-1	n/a	n/a	8	75	Cue	Loss	True
708.466	3.95	Lose2	0.6446999999999999	0.0	No	2.935	0.001	n/a	PrematurePress	-1	n/a	n/a	8	75	Fixation	Loss	True
712.411	0.26	Lose2	0.6446999999999999	0.004	No	2.935	-0.004	2.0	PrematurePress	-1	0.067	711.478	8	75	Target	Loss	True
712.478	0.3	Lose2	0.6446999999999999	0.004	No	2.935	-0.004	2.0	PrematurePress	-1	0.067	n/a	8	75	ButtonPress	Loss	True
712.678	0.44	Lose2	0.6446999999999999	n/a	No	2.935	n/a	n/a	PrematurePress	-1	n/a	n/a	8	75	Blank	Loss	True
713.113	1.45	Lose2	0.6446999999999999	n/a	No	2.935	n/a	5.0	PrematurePress	-1	0.023	712.136	8	75	Feedback	Loss	True
714.567	2.935	Lose2	0.6446999999999999	n/a	No	2.935	n/a	n/a	PrematurePress	-1	0.0	n/a	8	75	ISIslide	Loss	True
717.526	0.25	Control	0.6494	0.0	Yes	3.224	0.026	n/a	GoodResponse	0	n/a	n/a	8	76	Cue	Neutral	True
717.777	4.05	Control	0.6494	0.0	Yes	3.224	0.001	n/a	GoodResponse	0	n/a	n/a	8	76	Fixation	Neutral	True
721.822	0.27	Control	0.6494	0.004	Yes	3.224	-0.004	2.0	GoodResponse	0	0.183	721.005	8	76	Target	Neutral	True
722.005	0.3	Control	0.6494	0.004	Yes	3.224	-0.004	2.0	GoodResponse	0	0.183	n/a	8	76	ButtonPress	Neutral	True
722.107	0.43	Control	0.6494	n/a	Yes	3.224	n/a	n/a	GoodResponse	0	n/a	n/a	8	76	Blank	Neutral	True
722.524	1.45	Control	0.6494	n/a	Yes	3.224	n/a	5.0	GoodResponse	0	0.027	721.551	8	76	Feedback	Neutral	True
723.979	3.224	Control	0.6494	n/a	Yes	3.224	n/a	n/a	GoodResponse	0	0.0	n/a	8	76	ISIslide	Neutral	True
727.222	0.25	Lose2	0.6537999999999999	0.0	Yes	2.578	0.022	n/a	GoodResponse	0	n/a	n/a	8	77	Cue	AvoidedLoss	True
727.473	3.95	Lose2	0.6537999999999999	0.0	Yes	2.578	0.001	n/a	GoodResponse	0	n/a	n/a	8	77	Fixation	AvoidedLoss	True
731.418	0.28	Lose2	0.6537999999999999	0.004	Yes	2.578	-0.004	2.0	GoodResponse	0	0.238	730.656	8	77	Target	AvoidedLoss	True
731.656	0.3	Lose2	0.6537999999999999	0.004	Yes	2.578	-0.004	2.0	GoodResponse	0	0.238	n/a	8	77	ButtonPress	AvoidedLoss	True
731.702	0.42	Lose2	0.6537999999999999	n/a	Yes	2.578	n/a	n/a	GoodResponse	0	n/a	n/a	8	77	Blank	AvoidedLoss	True
732.12	1.45	Lose2	0.6537999999999999	n/a	Yes	2.578	n/a	5.0	GoodResponse	0	0.04	731.16	8	77	Feedback	AvoidedLoss	True
733.574	2.578	Lose2	0.6537999999999999	n/a	Yes	2.578	n/a	n/a	GoodResponse	0	0.0	n/a	8	77	ISIslide	AvoidedLoss	True
