onset	duration	cue_type	current_mean_accuracy	duration_error	is_hit	isi_adjusted	onset_delay	response	response_type	reward	rt	rt_time	total_reward	trial_number	trial_phase	trial_type	one_press
11.101	0.25	Control	1.0	0.0	Yes	2.949	0.001	n/a	GoodResponse	0	n/a	n/a	0	0	Cue	Neutral	True
11.352	3.85	Control	1.0	0.0	Yes	2.949	0.001	n/a	GoodResponse	0	n/a	n/a	0	0	Fixation	Neutral	True
15.197	0.4	Control	1.0	0.004	Yes	2.949	-0.004	1.0	GoodResponse	0	0.234	14.431	0	0	Target	Neutral	True
15.431	0.3	Control	1.0	0.004	Yes	2.949	-0.004	1.0	GoodResponse	0	0.234	n/a	0	0	ButtonPress	Neutral	True
15.598	0.3	Control	1.0	n/a	Yes	2.949	n/a	n/a	GoodResponse	0	n/a	n/a	0	0	Blank	Neutral	True
15.899	1.45	Control	1.0	n/a	Yes	2.949	n/a	5.0	GoodResponse	0	0.027	14.926	0	0	Feedback	Neutral	True
17.353	2.949	Control	1.0	n/a	Yes	2.949	n/a	n/a	GoodResponse	0	0.0	n/a	0	0	ISIslide	Neutral	True
20.329	0.25	Lose2	1.0	0.0	Yes	2.771	0.029	n/a	GoodResponse	0	n/a	n/a	0	1	Cue	AvoidedLoss	True
20.579	4.0	Lose2	1.0	0.001	Yes	2.771	0.0	n/a	GoodResponse	0	n/a	n/a	0	1	Fixation	AvoidedLoss	True
24.575	0.39	Lose2	1.0	0.004	Yes	2.771	-0.004	1.0	GoodResponse	0	0.227	23.802	0	1	Target	AvoidedLoss	True
24.802	0.3	Lose2	1.0	0.004	Yes	2.771	-0.004	1.0	GoodResponse	0	0.227	n/a	0	1	ButtonPress	AvoidedLoss	True
24.976	0.31	Lose2	1.0	n/a	Yes	2.771	n/a	n/a	GoodResponse	0	n/a	n/a	0	1	Blank	AvoidedLoss	True
25.277	1.45	Lose2	1.0	n/a	Yes	2.771	n/a	5.0	GoodResponse	0	0.015	24.292	0	1	Feedback	AvoidedLoss	True
26.731	2.771	Lose2	1.0	n/a	Yes	2.771	n/a	n/a	GoodResponse	0	0.0	n/a	0	1	ISIslide	AvoidedLoss	True
29.523	0.25	Control	0.6667000000000001	0.0	No	2.577	0.023	n/a	NoResponse	0	n/a	n/a	0	2	Cue	Neutral	True
29.774	4.1	Control	0.6667000000000001	0.0	No	2.577	0.001	n/a	NoResponse	0	n/a	n/a	0	2	Fixation	Neutral	True
33.869	0.38	Control	0.6667000000000001	0.004	No	2.577	-0.004	1.0	NoResponse	0	0.553	33.422	0	2	Target	Neutral	True
34.254	0.32	Control	0.6667000000000001	n/a	No	2.577	n/a	n/a	NoResponse	0	n/a	n/a	0	2	Blank	Neutral	True
34.422	0.3	Control	0.6667000000000001	0.004	No	2.577	-0.004	1.0	NoResponse	0	0.553	n/a	0	2	ButtonPress	Neutral	True
34.571	1.45	Control	0.6667000000000001	n/a	No	2.577	n/a	5.0	NoResponse	0	0.038	33.609	0	2	Feedback	Neutral	True
36.026	2.577	Control	0.6667000000000001	n/a	No	2.577	n/a	n/a	NoResponse	0	0.0	n/a	0	2	ISIslide	Neutral	True
38.617	0.25	Win2	0.75	0.0	Yes	2.833	0.017	n/a	GoodResponse	1	n/a	n/a	1	3	Cue	Win	True
38.867	3.95	Win2	0.75	0.001	Yes	2.833	0.0	n/a	GoodResponse	1	n/a	n/a	1	3	Fixation	Win	True
42.813	0.37	Win2	0.75	0.004	Yes	2.833	-0.004	1.0	GoodResponse	1	0.232	42.045	1	3	Target	Win	True
43.045	0.3	Win2	0.75	0.004	Yes	2.833	-0.004	1.0	GoodResponse	1	0.232	n/a	1	3	ButtonPress	Win	True
43.197	0.33	Win2	0.75	n/a	Yes	2.833	n/a	n/a	GoodResponse	1	n/a	n/a	1	3	Blank	Win	True
43.515	1.45	Win2	0.75	n/a	Yes	2.833	n/a	5.0	GoodResponse	1	0.021	42.536	1	3	Feedback	Win	True
44.969	2.833	Win2	0.75	n/a	Yes	2.833	n/a	n/a	GoodResponse	1	0.0	n/a	1	3	ISIslide	Win	True
47.828	0.25	Win2	0.8	0.0	Yes	3.272	0.028	n/a	GoodResponse	1	n/a	n/a	2	4	Cue	Win	True
48.078	4.0	Win2	0.8	0.0	Yes	3.272	0.0	n/a	GoodResponse	1	n/a	n/a	2	4	Fixation	Win	True
52.074	0.36	Win2	0.8	0.004	Yes	3.272	-0.004	1.0	GoodResponse	1	0.198	51.272	2	4	Target	Win	True
52.272	0.3	Win2	0.8	0.004	Yes	3.272	-0.004	1.0	GoodResponse	1	0.198	n/a	2	4	ButtonPress	Win	True
52.441	0.34	Win2	0.8	n/a	Yes	3.272	n/a	n/a	GoodResponse	1	n/a	n/a	2	4	Blank	Win	True
52.776	1.45	Win2	0.8	n/a	Yes	3.272	n/a	5.0	GoodResponse	1	0.027	51.803	2	4	Feedback	Win	True
54.23	3.272	Win2	0.8	n/a	Yes	3.272	n/a	n/a	GoodResponse	1	0.0	n/a	2	4	ISIslide	Win	True
57.523	0.25	Win2	0.8332999999999999	0.0	Yes	2.777	0.023	n/a	GoodResponse	1	n/a	n/a	3	5	Cue	Win	False
57.774	4.0	Win2	0.8332999999999999	0.0	Yes	2.777	0.001	1.0	GoodResponse	1	3.381	60.155	3	5	Fixation	Win	False
61.155	0.3	Win2	0.8332999999999999	0.0	Yes	2.777	0.001	1.0	GoodResponse	1	3.381	n/a	3	5	ButtonPress	Win	False
61.769	0.35	Win2	0.8332999999999999	0.004	Yes	2.777	-0.004	1.0	GoodResponse	1	0.281	61.05	3	5	Target	Win	False
62.05	0.3	Win2	0.8332999999999999	0.004	Yes	2.777	-0.004	1.0	GoodResponse	1	0.281	n/a	3	5	ButtonPress	Win	False
62.12	0.35	Win2	0.8332999999999999	n/a	Yes	2.777	n/a	n/a	GoodResponse	1	n/a	n/a	3	5	Blank	Win	False
62.471	1.45	Win2	0.8332999999999999	n/a	Yes	2.777	n/a	5.0	GoodResponse	1	0.04	61.511	3	5	Feedback	Win	False
63.926	2.777	Win2	0.8332999999999999	n/a	Yes	2.777	n/a	n/a	GoodResponse	1	0.0	n/a	3	5	ISIslide	Win	False
66.717	0.25	Lose2	0.8571	0.0	Yes	2.733	0.017	n/a	GoodResponse	0	n/a	n/a	3	6	Cue	AvoidedLoss	True
66.968	3.95	Lose2	0.8571	0.0	Yes	2.733	0.001	n/a	GoodResponse	0	n/a	n/a	3	6	Fixation	AvoidedLoss	True
70.913	0.34	Lose2	0.8571	0.004	Yes	2.733	-0.004	1.0	GoodResponse	0	0.292	70.205	3	6	Target	AvoidedLoss	True
71.205	0.3	Lose2	0.8571	0.004	Yes	2.733	-0.004	1.0	GoodResponse	0	0.292	n/a	3	6	ButtonPress	AvoidedLoss	True
71.264	0.36	Lose2	0.8571	n/a	Yes	2.733	n/a	n/a	GoodResponse	0	n/a	n/a	3	6	Blank	AvoidedLoss	True
71.615	1.45	Lose2	0.8571	n/a	Yes	2.733	n/a	5.0	GoodResponse	0	0.018	70.633	3	6	Feedback	AvoidedLoss	True
73.07	2.733	Lose2	0.8571	n/a	Yes	2.733	n/a	n/a	GoodResponse	0	0.0	n/a	3	6	ISIslide	AvoidedLoss	True
75.828	0.25	Lose2	0.875	0.0	Yes	4.022	0.028	n/a	GoodResponse	0	n/a	n/a	3	7	Cue	AvoidedLoss	True
76.079	4.05	Lose2	0.875	0.0	Yes	4.022	0.001	n/a	GoodResponse	0	n/a	n/a	3	7	Fixation	AvoidedLoss	True
80.124	0.33	Lose2	0.875	0.004	Yes	4.022	-0.004	1.0	GoodResponse	0	0.294	79.418	3	7	Target	AvoidedLoss	True
80.418	0.3	Lose2	0.875	0.004	Yes	4.022	-0.004	1.0	GoodResponse	0	0.294	n/a	3	7	ButtonPress	AvoidedLoss	True
80.458	0.37	Lose2	0.875	n/a	Yes	4.022	n/a	n/a	GoodResponse	0	n/a	n/a	3	7	Blank	AvoidedLoss	True
80.826	1.45	Lose2	0.875	n/a	Yes	4.022	n/a	5.0	GoodResponse	0	0.026	79.852	3	7	Feedback	AvoidedLoss	True
82.28	4.022	Lose2	0.875	n/a	Yes	4.022	n/a	n/a	GoodResponse	0	0.0	n/a	3	7	ISIslide	AvoidedLoss	True
86.326	0.25	Lose2	0.8889	0.0	Yes	3.024	0.026	n/a	GoodResponse	0	n/a	n/a	3	8	Cue	AvoidedLoss	True
86.577	3.95	Lose2	0.8889	0.0	Yes	3.024	0.001	n/a	GoodResponse	0	n/a	n/a	3	8	Fixation	AvoidedLoss	True
90.522	0.32	Lose2	0.8889	0.004	Yes	3.024	-0.004	1.0	GoodResponse	0	0.265	89.787	3	8	Target	AvoidedLoss	True
90.787	0.3	Lose2	0.8889	0.004	Yes	3.024	-0.004	1.0	GoodResponse	0	0.265	n/a	3	8	ButtonPress	AvoidedLoss	True
90.856	0.38	Lose2	0.8889	n/a	Yes	3.024	n/a	n/a	GoodResponse	0	n/a	n/a	3	8	Blank	AvoidedLoss	True
91.224	1.45	Lose2	0.8889	n/a	Yes	3.024	n/a	5.0	GoodResponse	0	0.018	90.242	3	8	Feedback	AvoidedLoss	True
92.678	3.024	Lose2	0.8889	n/a	Yes	3.024	n/a	n/a	GoodResponse	0	0.0	n/a	3	8	ISIslide	AvoidedLoss	True
95.721	0.25	Lose2	0.9	0.0	Yes	3.129	0.021	n/a	GoodResponse	0	n/a	n/a	3	9	Cue	AvoidedLoss	True
95.971	3.95	Lose2	0.9	0.0	Yes	3.129	0.0	n/a	GoodResponse	0	n/a	n/a	3	9	Fixation	AvoidedLoss	True
99.933	0.31	Lose2	0.9	0.0	Yes	3.129	0.012	1.0	GoodResponse	0	0.258	99.191	3	9	Target	AvoidedLoss	True
100.191	0.3	Lose2	0.9	0.0	Yes	3.129	0.012	1.0	GoodResponse	0	0.258	n/a	3	9	ButtonPress	AvoidedLoss	True
100.234	0.39	Lose2	0.9	n/a	Yes	3.129	n/a	n/a	GoodResponse	0	n/a	n/a	3	9	Blank	AvoidedLoss	True
100.619	1.45	Lose2	0.9	n/a	Yes	3.129	n/a	5.0	GoodResponse	0	0.038	99.657	3	9	Feedback	AvoidedLoss	True
102.073	3.129	Lose2	0.9	n/a	Yes	3.129	n/a	n/a	GoodResponse	0	0.0	n/a	3	9	ISIslide	AvoidedLoss	True
105.216	0.25	Control	0.9091	0.0	Yes	3.284	0.016	n/a	GoodResponse	0	n/a	n/a	3	10	Cue	Neutral	True
105.466	4.0	Control	0.9091	0.0	Yes	3.284	0.0	n/a	GoodResponse	0	n/a	n/a	3	10	Fixation	Neutral	True
109.462	0.3	Control	0.9091	0.004	Yes	3.284	-0.004	1.0	GoodResponse	0	0.22	108.682	3	10	Target	Neutral	True
109.682	0.3	Control	0.9091	0.004	Yes	3.284	-0.004	1.0	GoodResponse	0	0.22	n/a	3	10	ButtonPress	Neutral	True
109.762	0.4	Control	0.9091	n/a	Yes	3.284	n/a	n/a	GoodResponse	0	n/a	n/a	3	10	Blank	Neutral	True
110.164	1.45	Control	0.9091	n/a	Yes	3.284	n/a	5.0	GoodResponse	0	0.006	109.17	3	10	Feedback	Neutral	True
111.618	3.284	Control	0.9091	n/a	Yes	3.284	n/a	n/a	GoodResponse	0	0.0	n/a	3	10	ISIslide	Neutral	True
114.928	0.25	Lose2	0.9167000000000001	0.0	Yes	2.722	0.028	n/a	GoodResponse	0	n/a	n/a	3	11	Cue	AvoidedLoss	True
115.179	4.05	Lose2	0.9167000000000001	0.0	Yes	2.722	0.001	n/a	GoodResponse	0	n/a	n/a	3	11	Fixation	AvoidedLoss	True
119.224	0.29	Lose2	0.9167000000000001	0.004	Yes	2.722	-0.004	1.0	GoodResponse	0	0.219	118.443	3	11	Target	AvoidedLoss	True
119.443	0.3	Lose2	0.9167000000000001	0.004	Yes	2.722	-0.004	1.0	GoodResponse	0	0.219	n/a	3	11	ButtonPress	AvoidedLoss	True
119.525	0.41	Lose2	0.9167000000000001	n/a	Yes	2.722	n/a	n/a	GoodResponse	0	n/a	n/a	3	11	Blank	AvoidedLoss	True
119.926	1.45	Lose2	0.9167000000000001	n/a	Yes	2.722	n/a	5.0	GoodResponse	0	0.048	118.974	3	11	Feedback	AvoidedLoss	True
121.381	2.722	Lose2	0.9167000000000001	n/a	Yes	2.722	n/a	n/a	GoodResponse	0	0.0	n/a	3	11	ISIslide	AvoidedLoss	True
124.122	0.25	Control	0.9231	0.0	Yes	2.978	0.022	n/a	GoodResponse	0	n/a	n/a	3	12	Cue	Neutral	True
124.373	3.9	Control	0.9231	0.0	Yes	2.978	0.001	n/a	GoodResponse	0	n/a	n/a	3	12	Fixation	Neutral	True
128.268	0.28	Control	0.9231	0.004	Yes	2.978	-0.004	1.0	GoodResponse	0	0.223	127.491	3	12	Target	Neutral	True
128.491	0.3	Control	0.9231	0.004	Yes	2.978	-0.004	1.0	GoodResponse	0	0.223	n/a	3	12	ButtonPress	Neutral	True
128.552	0.42	Control	0.9231	n/a	Yes	2.978	n/a	n/a	GoodResponse	0	n/a	n/a	3	12	Blank	Neutral	True
128.97	1.45	Control	0.9231	n/a	Yes	2.978	n/a	5.0	GoodResponse	0	0.027	127.997	3	12	Feedback	Neutral	True
130.424	2.978	Control	0.9231	n/a	Yes	2.978	n/a	n/a	GoodResponse	0	0.0	n/a	3	12	ISIslide	Neutral	True
133.416	0.25	Control	0.8571	0.001	No	2.784	0.016	n/a	NoResponse	0	n/a	n/a	3	13	Cue	Neutral	True
133.667	4.0	Control	0.8571	0.0	No	2.784	0.001	n/a	NoResponse	0	n/a	n/a	3	13	Fixation	Neutral	True
137.662	0.27	Control	0.8571	0.004	No	2.784	-0.004	1.0	NoResponse	0	0.344	137.006	3	13	Target	Neutral	True
137.947	0.43	Control	0.8571	n/a	No	2.784	n/a	n/a	NoResponse	0	n/a	n/a	3	13	Blank	Neutral	True
138.006	0.3	Control	0.8571	0.004	No	2.784	-0.004	1.0	NoResponse	0	0.344	n/a	3	13	ButtonPress	Neutral	True
138.365	1.45	Control	0.8571	n/a	No	2.784	n/a	5.0	NoResponse	0	0.047	137.412	3	13	Feedback	Neutral	True
139.819	2.784	Control	0.8571	n/a	No	2.784	n/a	n/a	NoResponse	0	0.0	n/a	3	13	ISIslide	Neutral	True
142.627	0.25	Win2	0.8667	0.0	Yes	2.673	0.027	n/a	GoodResponse	1	n/a	n/a	4	14	Cue	Win	True
142.878	4.1	Win2	0.8667	0.0	Yes	2.673	0.001	n/a	GoodResponse	1	n/a	n/a	4	14	Fixation	Win	True
146.974	0.26	Win2	0.8667	0.003	Yes	2.673	-0.003	1.0	GoodResponse	1	0.214	146.188	4	14	Target	Win	True
147.188	0.3	Win2	0.8667	0.003	Yes	2.673	-0.003	1.0	GoodResponse	1	0.214	n/a	4	14	ButtonPress	Win	True
147.241	0.44	Win2	0.8667	n/a	Yes	2.673	n/a	n/a	GoodResponse	1	n/a	n/a	4	14	Blank	Win	True
147.676	1.45	Win2	0.8667	n/a	Yes	2.673	n/a	5.0	GoodResponse	1	0.005	146.681	4	14	Feedback	Win	True
149.13	2.673	Win2	0.8667	n/a	Yes	2.673	n/a	n/a	GoodResponse	1	0.0	n/a	4	14	ISIslide	Win	True
151.821	0.25	Control	0.875	0.001	Yes	2.979	0.021	n/a	GoodResponse	0	n/a	n/a	4	15	Cue	Neutral	True
152.072	4.0	Control	0.875	0.0	Yes	2.979	0.001	n/a	GoodResponse	0	n/a	n/a	4	15	Fixation	Neutral	True
156.067	0.25	Control	0.875	0.004	Yes	2.979	-0.004	1.0	GoodResponse	0	0.236	155.303	4	15	Target	Neutral	True
156.303	0.3	Control	0.875	0.004	Yes	2.979	-0.004	1.0	GoodResponse	0	0.236	n/a	4	15	ButtonPress	Neutral	True
156.318	0.45	Control	0.875	n/a	Yes	2.979	n/a	n/a	GoodResponse	0	n/a	n/a	4	15	Blank	Neutral	True
156.77	1.45	Control	0.875	n/a	Yes	2.979	n/a	5.0	GoodResponse	0	0.033	155.803	4	15	Feedback	Neutral	True
158.224	2.979	Control	0.875	n/a	Yes	2.979	n/a	n/a	GoodResponse	0	0.0	n/a	4	15	ISIslide	Neutral	True
161.216	0.25	Win2	0.8234999999999999	0.0	No	2.884	0.016	n/a	NoResponse	0	n/a	n/a	4	16	Cue	MissedWin	True
161.467	4.0	Win2	0.8234999999999999	0.0	No	2.884	0.001	n/a	NoResponse	0	n/a	n/a	4	16	Fixation	MissedWin	True
165.462	0.24	Win2	0.8234999999999999	0.004	No	2.884	-0.004	1.0	NoResponse	0	0.286	164.748	4	16	Target	MissedWin	True
165.713	0.46	Win2	0.8234999999999999	n/a	No	2.884	n/a	n/a	NoResponse	0	n/a	n/a	4	16	Blank	MissedWin	True
165.748	0.3	Win2	0.8234999999999999	0.004	No	2.884	-0.004	1.0	NoResponse	0	0.286	n/a	4	16	ButtonPress	MissedWin	True
166.164	1.45	Win2	0.8234999999999999	n/a	No	2.884	n/a	5.0	NoResponse	0	0.006	165.17	4	16	Feedback	MissedWin	True
167.619	2.884	Win2	0.8234999999999999	n/a	No	2.884	n/a	n/a	NoResponse	0	0.0	n/a	4	16	ISIslide	MissedWin	True
170.527	0.25	Lose2	0.7778	0.0	No	2.723	0.027	n/a	NoResponse	-1	n/a	n/a	3	17	Cue	Loss	True
170.778	3.95	Lose2	0.7778	0.0	No	2.723	0.001	n/a	NoResponse	-1	n/a	n/a	3	17	Fixation	Loss	True
174.723	0.23	Lose2	0.7778	0.004	No	2.723	-0.004	1.0	NoResponse	-1	0.241	173.964	3	17	Target	Loss	True
174.957	0.47	Lose2	0.7778	n/a	No	2.723	n/a	n/a	NoResponse	-1	n/a	n/a	3	17	Blank	Loss	True
174.964	0.3	Lose2	0.7778	0.004	No	2.723	-0.004	1.0	NoResponse	-1	0.241	n/a	3	17	ButtonPress	Loss	True
175.425	1.45	Lose2	0.7778	n/a	No	2.723	n/a	5.0	NoResponse	-1	0.011	174.436	3	17	Feedback	Loss	True
176.88	2.723	Lose2	0.7778	n/a	No	2.723	n/a	n/a	NoResponse	-1	0.0	n/a	3	17	ISIslide	Loss	True
179.621	0.25	Lose2	0.7895	0.0	Yes	2.729	0.021	n/a	GoodResponse	0	n/a	n/a	3	18	Cue	AvoidedLoss	True
179.872	4.05	Lose2	0.7895	0.0	Yes	2.729	0.001	n/a	GoodResponse	0	n/a	n/a	3	18	Fixation	AvoidedLoss	True
183.917	0.22	Lose2	0.7895	0.004	Yes	2.729	-0.004	1.0	GoodResponse	0	0.207	183.124	3	18	Target	AvoidedLoss	True
184.124	0.3	Lose2	0.7895	0.004	Yes	2.729	-0.004	1.0	GoodResponse	0	0.207	n/a	3	18	ButtonPress	AvoidedLoss	True
184.151	0.48	Lose2	0.7895	n/a	Yes	2.729	n/a	n/a	GoodResponse	0	n/a	n/a	3	18	Blank	AvoidedLoss	True
184.619	1.45	Lose2	0.7895	n/a	Yes	2.729	n/a	5.0	GoodResponse	0	0.037	183.656	3	18	Feedback	AvoidedLoss	True
186.074	2.729	Lose2	0.7895	n/a	Yes	2.729	n/a	n/a	GoodResponse	0	0.0	n/a	3	18	ISIslide	AvoidedLoss	True
188.815	0.25	Control	0.75	0.0	No	2.935	0.015	n/a	NoResponse	0	n/a	n/a	3	19	Cue	Neutral	True
189.066	3.95	Control	0.75	0.0	No	2.935	0.001	n/a	NoResponse	0	n/a	n/a	3	19	Fixation	Neutral	True
193.011	0.21	Control	0.75	0.004	No	2.935	-0.004	1.0	NoResponse	0	0.218	192.229	3	19	Target	Neutral	True
193.228	0.49	Control	0.75	n/a	No	2.935	n/a	n/a	NoResponse	0	n/a	n/a	3	19	Blank	Neutral	True
193.229	0.3	Control	0.75	0.004	No	2.935	-0.004	1.0	NoResponse	0	0.218	n/a	3	19	ButtonPress	Neutral	True
193.713	1.45	Control	0.75	n/a	No	2.935	n/a	5.0	NoResponse	0	0.016	192.729	3	19	Feedback	Neutral	True
195.168	2.935	Control	0.75	n/a	No	2.935	n/a	n/a	NoResponse	0	0.0	n/a	3	19	ISIslide	Neutral	True
198.126	0.25	Control	0.7143	0.001	No	2.624	0.026	n/a	NoResponse	0	n/a	n/a	3	20	Cue	Neutral	True
198.377	4.05	Control	0.7143	0.0	No	2.624	0.001	n/a	NoResponse	0	n/a	n/a	3	20	Fixation	Neutral	True
202.423	0.2	Control	0.7143	0.003	No	2.624	-0.003	1.0	NoResponse	0	0.238	201.661	3	20	Target	Neutral	True
202.623	0.5	Control	0.7143	n/a	No	2.624	n/a	n/a	NoResponse	0	n/a	n/a	3	20	Blank	Neutral	True
202.661	0.3	Control	0.7143	0.003	No	2.624	-0.003	1.0	NoResponse	0	0.238	n/a	3	20	ButtonPress	Neutral	True
203.125	1.45	Control	0.7143	n/a	No	2.624	n/a	5.0	NoResponse	0	0.019	202.144	3	20	Feedback	Neutral	True
204.579	2.624	Control	0.7143	n/a	No	2.624	n/a	n/a	NoResponse	0	0.0	n/a	3	20	ISIslide	Neutral	True
207.22	0.25	Control	0.6818000000000001	0.0	No	2.78	0.02	n/a	NoResponse	0	n/a	n/a	3	21	Cue	Neutral	True
207.471	4.1	Control	0.6818000000000001	0.0	No	2.78	0.001	n/a	NoResponse	0	n/a	n/a	3	21	Fixation	Neutral	True
211.567	0.19	Control	0.6818000000000001	0.003	No	2.78	-0.003	1.0	NoResponse	0	0.325	210.892	3	21	Target	Neutral	True
211.767	0.51	Control	0.6818000000000001	n/a	No	2.78	n/a	n/a	NoResponse	0	n/a	n/a	3	21	Blank	Neutral	True
211.892	0.3	Control	0.6818000000000001	0.003	No	2.78	-0.003	1.0	NoResponse	0	0.325	n/a	3	21	ButtonPress	Neutral	True
212.269	1.45	Control	0.6818000000000001	n/a	No	2.78	n/a	5.0	NoResponse	0	0.044	211.313	3	21	Feedback	Neutral	True
213.723	2.78	Control	0.6818000000000001	n/a	No	2.78	n/a	n/a	NoResponse	0	0.0	n/a	3	21	ISIslide	Neutral	True
216.515	0.25	Control	0.6522	0.0	No	2.785	0.015	n/a	NoResponse	0	n/a	n/a	3	22	Cue	Neutral	False
216.765	4.0	Control	0.6522	0.0	No	2.785	0.0	n/a	NoResponse	0	n/a	n/a	3	22	Fixation	Neutral	False
220.761	0.18	Control	0.6522	0.004	No	2.785	-0.004	n/a	NoResponse	0	n/a	n/a	3	22	Target	Neutral	False
220.945	0.52	Control	0.6522	n/a	No	2.785	n/a	n/a	NoResponse	0	n/a	n/a	3	22	Blank	Neutral	False
221.463	1.45	Control	0.6522	n/a	No	2.785	n/a	5.0	NoResponse	0	0.021	220.484	3	22	Feedback	Neutral	False
222.917	2.785	Control	0.6522	n/a	No	2.785	n/a	n/a	NoResponse	0	0.0	n/a	3	22	ISIslide	Neutral	False
225.726	0.25	Control	0.625	0.0	No	2.774	0.026	n/a	NoResponse	0	n/a	n/a	3	23	Cue	Neutral	True
225.976	3.9	Control	0.625	0.0	No	2.774	0.0	n/a	NoResponse	0	n/a	n/a	3	23	Fixation	Neutral	True
229.888	0.19	Control	0.625	0.0	No	2.774	0.012	1.0	NoResponse	0	0.229	229.117	3	23	Target	Neutral	True
230.072	0.51	Control	0.625	n/a	No	2.774	n/a	n/a	NoResponse	0	n/a	n/a	3	23	Blank	Neutral	True
230.117	0.3	Control	0.625	0.0	No	2.774	0.012	1.0	NoResponse	0	0.229	n/a	3	23	ButtonPress	Neutral	True
230.573	1.45	Control	0.625	n/a	No	2.774	n/a	5.0	NoResponse	0	0.033	229.606	3	23	Feedback	Neutral	True
232.028	2.774	Control	0.625	n/a	No	2.774	n/a	n/a	NoResponse	0	0.0	n/a	3	23	ISIslide	Neutral	True
234.819	0.25	Win2	0.64	0.0	Yes	3.131	0.019	n/a	GoodResponse	1	n/a	n/a	4	24	Cue	Win	True
235.07	3.95	Win2	0.64	0.0	Yes	3.131	0.001	n/a	GoodResponse	1	n/a	n/a	4	24	Fixation	Win	True
239.015	0.2	Win2	0.64	0.004	Yes	3.131	-0.004	1.0	GoodResponse	1	0.161	238.176	4	24	Target	Win	True
239.176	0.3	Win2	0.64	0.004	Yes	3.131	-0.004	1.0	GoodResponse	1	0.161	n/a	4	24	ButtonPress	Win	True
239.216	0.5	Win2	0.64	n/a	Yes	3.131	n/a	n/a	GoodResponse	1	n/a	n/a	4	24	Blank	Win	True
239.717	1.45	Win2	0.64	n/a	Yes	3.131	n/a	5.0	GoodResponse	1	0.01	238.727	4	24	Feedback	Win	True
241.172	3.131	Win2	0.64	n/a	Yes	3.131	n/a	n/a	GoodResponse	1	0.0	n/a	4	24	ISIslide	Win	True
244.314	0.25	Win2	0.6537999999999999	0.0	Yes	3.086	0.014	n/a	GoodResponse	1	n/a	n/a	5	25	Cue	Win	True
244.565	4.0	Win2	0.6537999999999999	0.0	Yes	3.086	0.001	n/a	GoodResponse	1	n/a	n/a	5	25	Fixation	Win	True
248.56	0.21	Win2	0.6537999999999999	0.004	Yes	3.086	-0.004	1.0	GoodResponse	1	0.184	247.744	5	25	Target	Win	True
248.744	0.3	Win2	0.6537999999999999	0.004	Yes	3.086	-0.004	1.0	GoodResponse	1	0.184	n/a	5	25	ButtonPress	Win	True
248.778	0.49	Win2	0.6537999999999999	n/a	Yes	3.086	n/a	n/a	GoodResponse	1	n/a	n/a	5	25	Blank	Win	True
249.262	1.45	Win2	0.6537999999999999	n/a	Yes	3.086	n/a	5.0	GoodResponse	1	0.026	248.288	5	25	Feedback	Win	True
250.717	3.086	Win2	0.6537999999999999	n/a	Yes	3.086	n/a	n/a	GoodResponse	1	0.0	n/a	5	25	ISIslide	Win	True
253.826	0.25	Win2	0.6667000000000001	0.0	Yes	2.924	0.026	n/a	GoodResponse	1	n/a	n/a	6	26	Cue	Win	True
254.077	3.95	Win2	0.6667000000000001	0.0	Yes	2.924	0.001	n/a	GoodResponse	1	n/a	n/a	6	26	Fixation	Win	True
258.022	0.22	Win2	0.6667000000000001	0.004	Yes	2.924	-0.004	1.0	GoodResponse	1	0.191	257.213	6	26	Target	Win	True
258.213	0.3	Win2	0.6667000000000001	0.004	Yes	2.924	-0.004	1.0	GoodResponse	1	0.191	n/a	6	26	ButtonPress	Win	True
258.256	0.48	Win2	0.6667000000000001	n/a	Yes	2.924	n/a	n/a	GoodResponse	1	n/a	n/a	6	26	Blank	Win	True
258.724	1.45	Win2	0.6667000000000001	n/a	Yes	2.924	n/a	5.0	GoodResponse	1	0.028	257.752	6	26	Feedback	Win	True
260.178	2.924	Win2	0.6667000000000001	n/a	Yes	2.924	n/a	n/a	GoodResponse	1	0.0	n/a	6	26	ISIslide	Win	True
263.121	0.25	Lose2	0.6429	0.0	No	2.829	0.021	n/a	NoResponse	-1	n/a	n/a	5	27	Cue	Loss	True
263.371	4.05	Lose2	0.6429	0.0	No	2.829	0.0	n/a	NoResponse	-1	n/a	n/a	5	27	Fixation	Loss	True
267.417	0.21	Lose2	0.6429	0.004	No	2.829	-0.004	1.0	NoResponse	-1	0.224	266.641	5	27	Target	Loss	True
267.634	0.49	Lose2	0.6429	n/a	No	2.829	n/a	n/a	NoResponse	-1	n/a	n/a	5	27	Blank	Loss	True
267.641	0.3	Lose2	0.6429	0.004	No	2.829	-0.004	1.0	NoResponse	-1	0.224	n/a	5	27	ButtonPress	Loss	True
268.119	1.45	Lose2	0.6429	n/a	No	2.829	n/a	5.0	NoResponse	-1	0.048	267.167	5	27	Feedback	Loss	True
269.573	2.829	Lose2	0.6429	n/a	No	2.829	n/a	n/a	NoResponse	-1	0.0	n/a	5	27	ISIslide	Loss	True
272.415	0.25	Control	0.6552	0.0	Yes	2.835	0.015	n/a	GoodResponse	0	n/a	n/a	5	28	Cue	Neutral	True
272.666	4.05	Control	0.6552	0.0	Yes	2.835	0.001	n/a	GoodResponse	0	n/a	n/a	5	28	Fixation	Neutral	True
276.711	0.22	Control	0.6552	0.004	Yes	2.835	-0.004	1.0	GoodResponse	0	0.198	275.909	5	28	Target	Neutral	True
276.909	0.3	Control	0.6552	0.004	Yes	2.835	-0.004	1.0	GoodResponse	0	0.198	n/a	5	28	ButtonPress	Neutral	True
276.945	0.48	Control	0.6552	n/a	Yes	2.835	n/a	n/a	GoodResponse	0	n/a	n/a	5	28	Blank	Neutral	True
277.413	1.45	Control	0.6552	n/a	Yes	2.835	n/a	5.0	GoodResponse	0	0.021	276.434	5	28	Feedback	Neutral	True
278.868	2.835	Control	0.6552	n/a	Yes	2.835	n/a	n/a	GoodResponse	0	0.0	n/a	5	28	ISIslide	Neutral	True
281.726	0.25	Lose2	0.6667000000000001	0.0	Yes	2.824	0.026	n/a	GoodResponse	0	n/a	n/a	5	29	Cue	AvoidedLoss	False
281.977	3.95	Lose2	0.6667000000000001	0.0	Yes	2.824	0.001	1.0	GoodResponse	0	3.641	284.618	5	29	Fixation	AvoidedLoss	False
285.618	0.3	Lose2	0.6667000000000001	0.0	Yes	2.824	0.001	1.0	GoodResponse	0	3.641	n/a	5	29	ButtonPress	AvoidedLoss	False
285.922	0.22	Lose2	0.6667000000000001	0.004	Yes	2.824	-0.004	1.0	GoodResponse	0	0.147	285.069	5	29	Target	AvoidedLoss	False
286.069	0.3	Lose2	0.6667000000000001	0.004	Yes	2.824	-0.004	1.0	GoodResponse	0	0.147	n/a	5	29	ButtonPress	AvoidedLoss	False
286.156	0.48	Lose2	0.6667000000000001	n/a	Yes	2.824	n/a	n/a	GoodResponse	0	n/a	n/a	5	29	Blank	AvoidedLoss	False
286.624	1.45	Lose2	0.6667000000000001	n/a	Yes	2.824	n/a	5.0	GoodResponse	0	0.03	285.654	5	29	Feedback	AvoidedLoss	False
288.078	2.824	Lose2	0.6667000000000001	n/a	Yes	2.824	n/a	n/a	GoodResponse	0	0.0	n/a	5	29	ISIslide	AvoidedLoss	False
290.92	0.25	Win2	0.6774	0.0	Yes	2.78	0.02	n/a	GoodResponse	1	n/a	n/a	6	30	Cue	Win	True
291.171	3.9	Win2	0.6774	0.0	Yes	2.78	0.001	n/a	GoodResponse	1	n/a	n/a	6	30	Fixation	Win	True
295.066	0.21	Win2	0.6774	0.004	Yes	2.78	-0.004	1.0	GoodResponse	1	0.206	294.272	6	30	Target	Win	True
295.272	0.3	Win2	0.6774	0.004	Yes	2.78	-0.004	1.0	GoodResponse	1	0.206	n/a	6	30	ButtonPress	Win	True
295.283	0.49	Win2	0.6774	n/a	Yes	2.78	n/a	n/a	GoodResponse	1	n/a	n/a	6	30	Blank	Win	True
295.768	1.45	Win2	0.6774	n/a	Yes	2.78	n/a	5.0	GoodResponse	1	0.008	294.776	6	30	Feedback	Win	True
297.222	2.78	Win2	0.6774	n/a	Yes	2.78	n/a	n/a	GoodResponse	1	0.0	n/a	6	30	ISIslide	Win	True
300.014	0.25	Lose2	0.6875	0.0	Yes	2.836	0.014	n/a	GoodResponse	0	n/a	n/a	6	31	Cue	AvoidedLoss	True
300.265	4.05	Lose2	0.6875	0.0	Yes	2.836	0.001	n/a	GoodResponse	0	n/a	n/a	6	31	Fixation	AvoidedLoss	True
304.31	0.2	Lose2	0.6875	0.004	Yes	2.836	-0.004	1.0	GoodResponse	0	0.199	303.509	6	31	Target	AvoidedLoss	True
304.509	0.3	Lose2	0.6875	0.004	Yes	2.836	-0.004	1.0	GoodResponse	0	0.199	n/a	6	31	ButtonPress	AvoidedLoss	True
304.511	0.5	Lose2	0.6875	n/a	Yes	2.836	n/a	n/a	GoodResponse	0	n/a	n/a	6	31	Blank	AvoidedLoss	True
305.012	1.45	Lose2	0.6875	n/a	Yes	2.836	n/a	5.0	GoodResponse	0	0.032	304.044	6	31	Feedback	AvoidedLoss	True
306.467	2.836	Lose2	0.6875	n/a	Yes	2.836	n/a	n/a	GoodResponse	0	0.0	n/a	6	31	ISIslide	AvoidedLoss	True
309.325	0.25	Lose2	0.6970000000000001	0.0	Yes	2.625	0.025	n/a	GoodResponse	0	n/a	n/a	6	32	Cue	AvoidedLoss	True
309.576	4.15	Lose2	0.6970000000000001	0.0	Yes	2.625	0.001	n/a	GoodResponse	0	n/a	n/a	6	32	Fixation	AvoidedLoss	True
313.722	0.19	Lose2	0.6970000000000001	0.003	Yes	2.625	-0.003	1.0	GoodResponse	0	0.166	312.888	6	32	Target	AvoidedLoss	True
313.888	0.3	Lose2	0.6970000000000001	0.003	Yes	2.625	-0.003	1.0	GoodResponse	0	0.166	n/a	6	32	ButtonPress	AvoidedLoss	True
313.922	0.51	Lose2	0.6970000000000001	n/a	Yes	2.625	n/a	n/a	GoodResponse	0	n/a	n/a	6	32	Blank	AvoidedLoss	True
314.424	1.45	Lose2	0.6970000000000001	n/a	Yes	2.625	n/a	5.0	GoodResponse	0	0.034	313.458	6	32	Feedback	AvoidedLoss	True
315.878	2.625	Lose2	0.6970000000000001	n/a	Yes	2.625	n/a	n/a	GoodResponse	0	0.0	n/a	6	32	ISIslide	AvoidedLoss	True
318.519	0.25	Win2	0.6765000000000001	0.0	No	2.681	0.019	n/a	NoResponse	0	n/a	n/a	6	33	Cue	MissedWin	True
318.77	4.0	Win2	0.6765000000000001	0.0	No	2.681	0.001	n/a	NoResponse	0	n/a	n/a	6	33	Fixation	MissedWin	True
322.765	0.18	Win2	0.6765000000000001	0.004	No	2.681	-0.004	1.0	NoResponse	0	0.191	321.956	6	33	Target	MissedWin	True
322.949	0.52	Win2	0.6765000000000001	n/a	No	2.681	n/a	n/a	NoResponse	0	n/a	n/a	6	33	Blank	MissedWin	True
322.956	0.3	Win2	0.6765000000000001	0.004	No	2.681	-0.004	1.0	NoResponse	0	0.191	n/a	6	33	ButtonPress	MissedWin	True
323.467	1.45	Win2	0.6765000000000001	n/a	No	2.681	n/a	5.0	NoResponse	0	0.015	322.482	6	33	Feedback	MissedWin	True
324.922	2.681	Win2	0.6765000000000001	n/a	No	2.681	n/a	n/a	NoResponse	0	0.0	n/a	6	33	ISIslide	MissedWin	True
327.63	0.25	Lose2	0.6570999999999999	0.0	No	2.62	0.03	n/a	NoResponse	-1	n/a	n/a	5	34	Cue	Loss	True
327.881	4.05	Lose2	0.6570999999999999	0.0	No	2.62	0.001	n/a	NoResponse	-1	n/a	n/a	5	34	Fixation	Loss	True
331.926	0.17	Lose2	0.6570999999999999	0.004	No	2.62	-0.004	1.0	NoResponse	-1	0.212	331.138	5	34	Target	Loss	True
332.11	0.53	Lose2	0.6570999999999999	n/a	No	2.62	n/a	n/a	NoResponse	-1	n/a	n/a	5	34	Blank	Loss	True
332.138	0.3	Lose2	0.6570999999999999	0.004	No	2.62	-0.004	1.0	NoResponse	-1	0.212	n/a	5	34	ButtonPress	Loss	True
332.628	1.45	Lose2	0.6570999999999999	n/a	No	2.62	n/a	5.0	NoResponse	-1	0.025	331.653	5	34	Feedback	Loss	True
334.082	2.62	Lose2	0.6570999999999999	n/a	No	2.62	n/a	n/a	NoResponse	-1	0.0	n/a	5	34	ISIslide	Loss	True
336.724	0.25	Lose2	0.6389	0.0	No	2.676	0.024	n/a	NoResponse	-1	n/a	n/a	4	35	Cue	Loss	True
336.974	4.0	Lose2	0.6389	0.0	No	2.676	0.0	n/a	NoResponse	-1	n/a	n/a	4	35	Fixation	Loss	True
340.97	0.17	Lose2	0.6389	0.004	No	2.676	-0.004	1.0	NoResponse	-1	0.19	340.16	4	35	Target	Loss	True
341.154	0.53	Lose2	0.6389	n/a	No	2.676	n/a	n/a	NoResponse	-1	n/a	n/a	4	35	Blank	Loss	True
341.16	0.3	Lose2	0.6389	0.004	No	2.676	-0.004	1.0	NoResponse	-1	0.19	n/a	4	35	ButtonPress	Loss	True
341.672	1.45	Lose2	0.6389	n/a	No	2.676	n/a	5.0	NoResponse	-1	0.006	340.678	4	35	Feedback	Loss	True
343.126	2.676	Lose2	0.6389	n/a	No	2.676	n/a	n/a	NoResponse	-1	0.0	n/a	4	35	ISIslide	Loss	True
345.817	0.25	Control	0.6215999999999999	0.001	No	2.683	0.017	n/a	NoResponse	0	n/a	n/a	4	36	Cue	Neutral	True
346.068	4.0	Control	0.6215999999999999	0.0	No	2.683	0.001	n/a	NoResponse	0	n/a	n/a	4	36	Fixation	Neutral	True
350.064	0.18	Control	0.6215999999999999	0.003	No	2.683	-0.003	1.0	NoResponse	0	0.226	349.29	4	36	Target	Neutral	True
350.247	0.52	Control	0.6215999999999999	n/a	No	2.683	n/a	n/a	NoResponse	0	n/a	n/a	4	36	Blank	Neutral	True
350.29	0.3	Control	0.6215999999999999	0.003	No	2.683	-0.003	1.0	NoResponse	0	0.226	n/a	4	36	ButtonPress	Neutral	True
350.766	1.45	Control	0.6215999999999999	n/a	No	2.683	n/a	5.0	NoResponse	0	0.033	349.799	4	36	Feedback	Neutral	True
352.22	2.683	Control	0.6215999999999999	n/a	No	2.683	n/a	n/a	NoResponse	0	0.0	n/a	4	36	ISIslide	Neutral	True
354.928	0.25	Win2	0.6053000000000001	0.0	No	2.872	0.028	n/a	NoResponse	0	n/a	n/a	4	37	Cue	MissedWin	True
355.179	4.0	Win2	0.6053000000000001	0.0	No	2.872	0.001	n/a	NoResponse	0	n/a	n/a	4	37	Fixation	MissedWin	True
359.174	0.19	Win2	0.6053000000000001	0.004	No	2.872	-0.004	1.0	NoResponse	0	0.222	358.396	4	37	Target	MissedWin	True
359.375	0.51	Win2	0.6053000000000001	n/a	No	2.872	n/a	n/a	NoResponse	0	n/a	n/a	4	37	Blank	MissedWin	True
359.396	0.3	Win2	0.6053000000000001	0.004	No	2.872	-0.004	1.0	NoResponse	0	0.222	n/a	4	37	ButtonPress	MissedWin	True
359.876	1.45	Win2	0.6053000000000001	n/a	No	2.872	n/a	5.0	NoResponse	0	0.045	358.921	4	37	Feedback	MissedWin	True
361.33	2.872	Win2	0.6053000000000001	n/a	No	2.872	n/a	n/a	NoResponse	0	0.0	n/a	4	37	ISIslide	MissedWin	True
364.222	0.25	Lose2	0.5897	0.001	No	2.828	0.022	n/a	LatePress	-1	n/a	n/a	3	38	Cue	Loss	True
364.473	3.95	Lose2	0.5897	0.0	No	2.828	0.001	n/a	LatePress	-1	n/a	n/a	3	38	Fixation	Loss	True
368.418	0.2	Lose2	0.5897	0.004	No	2.828	-0.004	1.0	LatePress	-1	0.203	367.621	3	38	Target	Loss	True
368.619	0.5	Lose2	0.5897	n/a	No	2.828	n/a	n/a	LatePress	-1	n/a	n/a	3	38	Blank	Loss	True
368.621	0.3	Lose2	0.5897	0.004	No	2.828	-0.004	1.0	LatePress	-1	0.203	n/a	3	38	ButtonPress	Loss	True
369.12	1.45	Lose2	0.5897	n/a	No	2.828	n/a	5.0	LatePress	-1	0.02	368.14	3	38	Feedback	Loss	True
370.575	2.828	Lose2	0.5897	n/a	No	2.828	n/a	n/a	LatePress	-1	0.0	n/a	3	38	ISIslide	Loss	True
373.417	0.25	Win2	0.6	0.0	Yes	2.983	0.017	n/a	GoodResponse	1	n/a	n/a	4	39	Cue	Win	True
373.667	4.1	Win2	0.6	0.0	Yes	2.983	0.0	n/a	GoodResponse	1	n/a	n/a	4	39	Fixation	Win	True
377.763	0.21	Win2	0.6	0.004	Yes	2.983	-0.004	1.0	GoodResponse	1	0.155	376.918	4	39	Target	Win	True
377.918	0.3	Win2	0.6	0.004	Yes	2.983	-0.004	1.0	GoodResponse	1	0.155	n/a	4	39	ButtonPress	Win	True
377.98	0.49	Win2	0.6	n/a	Yes	2.983	n/a	n/a	GoodResponse	1	n/a	n/a	4	39	Blank	Win	True
378.465	1.45	Win2	0.6	n/a	Yes	2.983	n/a	5.0	GoodResponse	1	0.041	377.506	4	39	Feedback	Win	True
379.919	2.983	Win2	0.6	n/a	Yes	2.983	n/a	n/a	GoodResponse	1	0.0	n/a	4	39	ISIslide	Win	True
382.928	0.25	Win2	0.6098	0.0	Yes	2.722	0.028	n/a	GoodResponse	1	n/a	n/a	5	40	Cue	Win	True
383.179	3.95	Win2	0.6098	0.0	Yes	2.722	0.001	n/a	GoodResponse	1	n/a	n/a	5	40	Fixation	Win	True
387.124	0.22	Win2	0.6098	0.004	Yes	2.722	-0.004	1.0	GoodResponse	1	0.196	386.32	5	40	Target	Win	True
387.32	0.3	Win2	0.6098	0.004	Yes	2.722	-0.004	1.0	GoodResponse	1	0.196	n/a	5	40	ButtonPress	Win	True
387.358	0.48	Win2	0.6098	n/a	Yes	2.722	n/a	n/a	GoodResponse	1	n/a	n/a	5	40	Blank	Win	True
387.826	1.45	Win2	0.6098	n/a	Yes	2.722	n/a	5.0	GoodResponse	1	0.046	386.872	5	40	Feedback	Win	True
389.281	2.722	Win2	0.6098	n/a	Yes	2.722	n/a	n/a	GoodResponse	1	0.0	n/a	5	40	ISIslide	Win	True
392.022	0.25	Win2	0.619	0.0	Yes	2.778	0.022	n/a	GoodResponse	1	n/a	n/a	6	41	Cue	Win	True
392.273	3.9	Win2	0.619	0.0	Yes	2.778	0.001	n/a	GoodResponse	1	n/a	n/a	6	41	Fixation	Win	True
396.168	0.23	Win2	0.619	0.004	Yes	2.778	-0.004	1.0	GoodResponse	1	0.191	395.359	6	41	Target	Win	True
396.359	0.3	Win2	0.619	0.004	Yes	2.778	-0.004	1.0	GoodResponse	1	0.191	n/a	6	41	ButtonPress	Win	True
396.402	0.47	Win2	0.619	n/a	Yes	2.778	n/a	n/a	GoodResponse	1	n/a	n/a	6	41	Blank	Win	True
396.87	1.45	Win2	0.619	n/a	Yes	2.778	n/a	5.0	GoodResponse	1	0.026	395.896	6	41	Feedback	Win	True
398.324	2.778	Win2	0.619	n/a	Yes	2.778	n/a	n/a	GoodResponse	1	0.0	n/a	6	41	ISIslide	Win	True
401.116	0.25	Control	0.6047	0.0	No	2.934	0.016	n/a	NoResponse	0	n/a	n/a	6	42	Cue	Neutral	False
401.367	3.85	Control	0.6047	0.0	No	2.934	0.001	n/a	NoResponse	0	n/a	n/a	6	42	Fixation	Neutral	False
405.212	0.24	Control	0.6047	0.004	No	2.934	-0.004	n/a	NoResponse	0	n/a	n/a	6	42	Target	Neutral	False
405.462	0.46	Control	0.6047	n/a	No	2.934	n/a	n/a	NoResponse	0	n/a	n/a	6	42	Blank	Neutral	False
405.914	1.45	Control	0.6047	n/a	No	2.934	n/a	5.0	NoResponse	0	0.006	404.92	6	42	Feedback	Neutral	False
407.368	2.934	Control	0.6047	n/a	No	2.934	n/a	n/a	NoResponse	0	0.0	n/a	6	42	ISIslide	Neutral	False
410.327	0.25	Win2	0.6136	0.0	Yes	3.173	0.027	n/a	GoodResponse	1	n/a	n/a	7	43	Cue	Win	True
410.578	4.0	Win2	0.6136	0.0	Yes	3.173	0.001	n/a	GoodResponse	1	n/a	n/a	7	43	Fixation	Win	True
414.573	0.25	Win2	0.6136	0.004	Yes	3.173	-0.004	1.0	GoodResponse	1	0.189	413.762	7	43	Target	Win	True
414.762	0.3	Win2	0.6136	0.004	Yes	3.173	-0.004	1.0	GoodResponse	1	0.189	n/a	7	43	ButtonPress	Win	True
414.824	0.45	Win2	0.6136	n/a	Yes	3.173	n/a	n/a	GoodResponse	1	n/a	n/a	7	43	Blank	Win	True
415.275	1.45	Win2	0.6136	n/a	Yes	3.173	n/a	5.0	GoodResponse	1	0.011	414.286	7	43	Feedback	Win	True
416.729	3.173	Win2	0.6136	n/a	Yes	3.173	n/a	n/a	GoodResponse	1	0.0	n/a	7	43	ISIslide	Win	True
419.922	0.25	Win2	0.6222	0.0	Yes	2.978	0.022	n/a	GoodResponse	1	n/a	n/a	8	44	Cue	Win	True
420.173	4.0	Win2	0.6222	0.0	Yes	2.978	0.001	n/a	GoodResponse	1	n/a	n/a	8	44	Fixation	Win	True
424.168	0.26	Win2	0.6222	0.004	Yes	2.978	-0.004	1.0	GoodResponse	1	0.225	423.393	8	44	Target	Win	True
424.393	0.3	Win2	0.6222	0.004	Yes	2.978	-0.004	1.0	GoodResponse	1	0.225	n/a	8	44	ButtonPress	Win	True
424.436	0.44	Win2	0.6222	n/a	Yes	2.978	n/a	n/a	GoodResponse	1	n/a	n/a	8	44	Blank	Win	True
424.87	1.45	Win2	0.6222	n/a	Yes	2.978	n/a	5.0	GoodResponse	1	0.026	423.896	8	44	Feedback	Win	True
426.325	2.978	Win2	0.6222	n/a	Yes	2.978	n/a	n/a	GoodResponse	1	0.0	n/a	8	44	ISIslide	Win	True
429.317	0.25	Control	0.6087	0.0	No	2.883	0.017	n/a	NoResponse	0	n/a	n/a	8	45	Cue	Neutral	False
429.568	4.1	Control	0.6087	0.0	No	2.883	0.001	n/a	NoResponse	0	n/a	n/a	8	45	Fixation	Neutral	False
433.663	0.27	Control	0.6087	0.004	No	2.883	-0.004	n/a	NoResponse	0	n/a	n/a	8	45	Target	Neutral	False
433.947	0.43	Control	0.6087	n/a	No	2.883	n/a	n/a	NoResponse	0	n/a	n/a	8	45	Blank	Neutral	False
434.365	1.45	Control	0.6087	n/a	No	2.883	n/a	5.0	NoResponse	0	0.043	433.408	8	45	Feedback	Neutral	False
435.82	2.883	Control	0.6087	n/a	No	2.883	n/a	n/a	NoResponse	0	0.0	n/a	8	45	ISIslide	Neutral	False
438.728	0.25	Lose2	0.5957	0.0	No	3.372	0.028	n/a	PrematurePress	-1	n/a	n/a	7	46	Cue	Loss	True
438.979	4.0	Lose2	0.5957	0.0	No	3.372	0.001	n/a	PrematurePress	-1	n/a	n/a	7	46	Fixation	Loss	True
442.974	0.28	Lose2	0.5957	0.004	No	3.372	-0.004	1.0	PrematurePress	-1	0.016	441.99	7	46	Target	Loss	True
442.99	0.3	Lose2	0.5957	0.004	No	3.372	-0.004	1.0	PrematurePress	-1	0.016	n/a	7	46	ButtonPress	Loss	True
443.258	0.42	Lose2	0.5957	n/a	No	3.372	n/a	n/a	PrematurePress	-1	n/a	n/a	7	46	Blank	Loss	True
443.676	1.45	Lose2	0.5957	n/a	No	3.372	n/a	5.0	PrematurePress	-1	0.049	442.725	7	46	Feedback	Loss	True
445.131	3.372	Lose2	0.5957	n/a	No	3.372	n/a	n/a	PrematurePress	-1	0.0	n/a	7	46	ISIslide	Loss	True
448.524	0.25	Lose2	0.6042000000000001	0.0	Yes	2.676	0.024	n/a	GoodResponse	0	n/a	n/a	7	47	Cue	AvoidedLoss	True
448.775	4.0	Lose2	0.6042000000000001	0.0	Yes	2.676	0.001	n/a	GoodResponse	0	n/a	n/a	7	47	Fixation	AvoidedLoss	True
452.77	0.29	Lose2	0.6042000000000001	0.004	Yes	2.676	-0.004	1.0	GoodResponse	0	0.206	451.976	7	47	Target	AvoidedLoss	True
452.976	0.3	Lose2	0.6042000000000001	0.004	Yes	2.676	-0.004	1.0	GoodResponse	0	0.206	n/a	7	47	ButtonPress	AvoidedLoss	True
453.071	0.41	Lose2	0.6042000000000001	n/a	Yes	2.676	n/a	n/a	GoodResponse	0	n/a	n/a	7	47	Blank	AvoidedLoss	True
453.472	1.45	Lose2	0.6042000000000001	n/a	Yes	2.676	n/a	5.0	GoodResponse	0	0.009	452.481	7	47	Feedback	AvoidedLoss	True
454.927	2.676	Lose2	0.6042000000000001	n/a	Yes	2.676	n/a	n/a	GoodResponse	0	0.0	n/a	7	47	ISIslide	AvoidedLoss	True
457.618	0.25	Lose2	0.6122	0.0	Yes	3.032	0.018	n/a	GoodResponse	0	n/a	n/a	7	48	Cue	AvoidedLoss	True
457.869	3.95	Lose2	0.6122	0.0	Yes	3.032	0.001	n/a	GoodResponse	0	n/a	n/a	7	48	Fixation	AvoidedLoss	True
461.814	0.3	Lose2	0.6122	0.004	Yes	3.032	-0.004	1.0	GoodResponse	0	0.194	461.008	7	48	Target	AvoidedLoss	True
462.008	0.3	Lose2	0.6122	0.004	Yes	3.032	-0.004	1.0	GoodResponse	0	0.194	n/a	7	48	ButtonPress	AvoidedLoss	True
462.115	0.4	Lose2	0.6122	n/a	Yes	3.032	n/a	n/a	GoodResponse	0	n/a	n/a	7	48	Blank	AvoidedLoss	True
462.516	1.45	Lose2	0.6122	n/a	Yes	3.032	n/a	5.0	GoodResponse	0	0.038	461.554	7	48	Feedback	AvoidedLoss	True
463.97	3.032	Lose2	0.6122	n/a	Yes	3.032	n/a	n/a	GoodResponse	0	0.0	n/a	7	48	ISIslide	AvoidedLoss	True
467.029	0.25	Control	0.62	0.001	Yes	2.871	0.029	n/a	GoodResponse	0	n/a	n/a	7	49	Cue	Neutral	True
467.28	4.0	Control	0.62	0.0	Yes	2.871	0.001	n/a	GoodResponse	0	n/a	n/a	7	49	Fixation	Neutral	True
471.276	0.31	Control	0.62	0.003	Yes	2.871	-0.003	1.0	GoodResponse	0	0.293	470.569	7	49	Target	Neutral	True
471.569	0.3	Control	0.62	0.003	Yes	2.871	-0.003	1.0	GoodResponse	0	0.293	n/a	7	49	ButtonPress	Neutral	True
471.593	0.39	Control	0.62	n/a	Yes	2.871	n/a	n/a	GoodResponse	0	n/a	n/a	7	49	Blank	Neutral	True
471.978	1.45	Control	0.62	n/a	Yes	2.871	n/a	5.0	GoodResponse	0	0.039	471.017	7	49	Feedback	Neutral	True
473.432	2.871	Control	0.62	n/a	Yes	2.871	n/a	n/a	GoodResponse	0	0.0	n/a	7	49	ISIslide	Neutral	True
476.324	0.25	Control	0.6275	0.0	Yes	2.776	0.024	n/a	GoodResponse	0	n/a	n/a	7	50	Cue	Neutral	True
476.575	4.0	Control	0.6275	0.0	Yes	2.776	0.001	n/a	GoodResponse	0	n/a	n/a	7	50	Fixation	Neutral	True
480.57	0.32	Control	0.6275	0.004	Yes	2.776	-0.004	1.0	GoodResponse	0	0.171	479.741	7	50	Target	Neutral	True
480.741	0.3	Control	0.6275	0.004	Yes	2.776	-0.004	1.0	GoodResponse	0	0.171	n/a	7	50	ButtonPress	Neutral	True
480.904	0.38	Control	0.6275	n/a	Yes	2.776	n/a	n/a	GoodResponse	0	n/a	n/a	7	50	Blank	Neutral	True
481.272	1.45	Control	0.6275	n/a	Yes	2.776	n/a	5.0	GoodResponse	0	0.013	480.285	7	50	Feedback	Neutral	True
482.726	2.776	Control	0.6275	n/a	Yes	2.776	n/a	n/a	GoodResponse	0	0.0	n/a	7	50	ISIslide	Neutral	True
485.518	0.25	Control	0.6154	0.0	No	2.732	0.018	n/a	NoResponse	0	n/a	n/a	7	51	Cue	Neutral	True
485.769	3.95	Control	0.6154	0.0	No	2.732	0.001	1.0	NoResponse	0	3.913	488.682	7	51	Fixation	Neutral	True
489.682	0.3	Control	0.6154	0.0	No	2.732	0.001	1.0	NoResponse	0	3.913	n/a	7	51	ButtonPress	Neutral	True
489.714	0.33	Control	0.6154	0.004	No	2.732	-0.004	n/a	NoResponse	0	n/a	n/a	7	51	Target	Neutral	True
490.048	0.37	Control	0.6154	n/a	No	2.732	n/a	n/a	NoResponse	0	n/a	n/a	7	51	Blank	Neutral	True
490.416	1.45	Control	0.6154	n/a	No	2.732	n/a	5.0	NoResponse	0	0.04	489.456	7	51	Feedback	Neutral	True
491.87	2.732	Control	0.6154	n/a	No	2.732	n/a	n/a	NoResponse	0	0.0	n/a	7	51	ISIslide	Neutral	True
494.629	0.25	Control	0.6225999999999999	0.0	Yes	2.621	0.029	n/a	GoodResponse	0	n/a	n/a	7	52	Cue	Neutral	True
494.879	4.05	Control	0.6225999999999999	0.0	Yes	2.621	0.0	n/a	GoodResponse	0	n/a	n/a	7	52	Fixation	Neutral	True
498.925	0.34	Control	0.6225999999999999	0.004	Yes	2.621	-0.004	1.0	GoodResponse	0	0.17	498.095	7	52	Target	Neutral	True
499.095	0.3	Control	0.6225999999999999	0.004	Yes	2.621	-0.004	1.0	GoodResponse	0	0.17	n/a	7	52	ButtonPress	Neutral	True
499.276	0.36	Control	0.6225999999999999	n/a	Yes	2.621	n/a	n/a	GoodResponse	0	n/a	n/a	7	52	Blank	Neutral	True
499.627	1.45	Control	0.6225999999999999	n/a	Yes	2.621	n/a	5.0	GoodResponse	0	0.049	498.676	7	52	Feedback	Neutral	True
501.081	2.621	Control	0.6225999999999999	n/a	Yes	2.621	n/a	n/a	GoodResponse	0	0.0	n/a	7	52	ISIslide	Neutral	True
503.722	0.25	Win2	0.6296	0.0	Yes	2.928	0.022	n/a	GoodResponse	1	n/a	n/a	8	53	Cue	Win	True
503.973	4.05	Win2	0.6296	0.0	Yes	2.928	0.001	n/a	GoodResponse	1	n/a	n/a	8	53	Fixation	Win	True
508.019	0.35	Win2	0.6296	0.003	Yes	2.928	-0.003	1.0	GoodResponse	1	0.24	507.259	8	53	Target	Win	True
508.259	0.3	Win2	0.6296	0.003	Yes	2.928	-0.003	1.0	GoodResponse	1	0.24	n/a	8	53	ButtonPress	Win	True
508.37	0.35	Win2	0.6296	n/a	Yes	2.928	n/a	n/a	GoodResponse	1	n/a	n/a	8	53	Blank	Win	True
508.721	1.45	Win2	0.6296	n/a	Yes	2.928	n/a	5.0	GoodResponse	1	0.027	507.748	8	53	Feedback	Win	True
510.175	2.928	Win2	0.6296	n/a	Yes	2.928	n/a	n/a	GoodResponse	1	0.0	n/a	8	53	ISIslide	Win	True
513.117	0.25	Win2	0.6364	0.0	Yes	2.733	0.017	n/a	GoodResponse	1	n/a	n/a	9	54	Cue	Win	True
513.368	3.95	Win2	0.6364	0.0	Yes	2.733	0.001	n/a	GoodResponse	1	n/a	n/a	9	54	Fixation	Win	True
517.313	0.36	Win2	0.6364	0.004	Yes	2.733	-0.004	1.0	GoodResponse	1	0.227	516.54	9	54	Target	Win	True
517.54	0.3	Win2	0.6364	0.004	Yes	2.733	-0.004	1.0	GoodResponse	1	0.227	n/a	9	54	ButtonPress	Win	True
517.681	0.34	Win2	0.6364	n/a	Yes	2.733	n/a	n/a	GoodResponse	1	n/a	n/a	9	54	Blank	Win	True
518.015	1.45	Win2	0.6364	n/a	Yes	2.733	n/a	5.0	GoodResponse	1	0.001	517.016	9	54	Feedback	Win	True
519.469	2.733	Win2	0.6364	n/a	Yes	2.733	n/a	n/a	GoodResponse	1	0.0	n/a	9	54	ISIslide	Win	True
522.228	0.25	Control	0.6429	0.0	Yes	3.022	0.028	n/a	GoodResponse	0	n/a	n/a	9	55	Cue	Neutral	True
522.478	3.95	Control	0.6429	0.001	Yes	3.022	0.0	n/a	GoodResponse	0	n/a	n/a	9	55	Fixation	Neutral	True
526.424	0.37	Control	0.6429	0.004	Yes	3.022	-0.004	1.0	GoodResponse	0	0.189	525.613	9	55	Target	Neutral	True
526.613	0.3	Control	0.6429	0.004	Yes	3.022	-0.004	1.0	GoodResponse	0	0.189	n/a	9	55	ButtonPress	Neutral	True
526.808	0.33	Control	0.6429	n/a	Yes	3.022	n/a	n/a	GoodResponse	0	n/a	n/a	9	55	Blank	Neutral	True
527.126	1.45	Control	0.6429	n/a	Yes	3.022	n/a	5.0	GoodResponse	0	0.012	526.138	9	55	Feedback	Neutral	True
528.58	3.022	Control	0.6429	n/a	Yes	3.022	n/a	n/a	GoodResponse	0	0.0	n/a	9	55	ISIslide	Neutral	True
531.622	0.25	Control	0.6491	0.0	Yes	2.828	0.022	n/a	GoodResponse	0	n/a	n/a	9	56	Cue	Neutral	True
531.873	3.95	Control	0.6491	0.0	Yes	2.828	0.001	n/a	GoodResponse	0	n/a	n/a	9	56	Fixation	Neutral	True
535.818	0.38	Control	0.6491	0.004	Yes	2.828	-0.004	1.0	GoodResponse	0	0.212	535.03	9	56	Target	Neutral	True
536.03	0.3	Control	0.6491	0.004	Yes	2.828	-0.004	1.0	GoodResponse	0	0.212	n/a	9	56	ButtonPress	Neutral	True
536.203	0.32	Control	0.6491	n/a	Yes	2.828	n/a	n/a	GoodResponse	0	n/a	n/a	9	56	Blank	Neutral	True
536.52	1.45	Control	0.6491	n/a	Yes	2.828	n/a	5.0	GoodResponse	0	0.033	535.553	9	56	Feedback	Neutral	True
537.975	2.828	Control	0.6491	n/a	Yes	2.828	n/a	n/a	GoodResponse	0	0.0	n/a	9	56	ISIslide	Neutral	True
540.817	0.25	Control	0.6552	0.0	Yes	3.483	0.017	n/a	GoodResponse	0	n/a	n/a	9	57	Cue	Neutral	True
541.067	4.0	Control	0.6552	0.0	Yes	3.483	0.0	n/a	GoodResponse	0	n/a	n/a	9	57	Fixation	Neutral	True
545.063	0.39	Control	0.6552	0.004	Yes	3.483	-0.004	1.0	GoodResponse	0	0.178	544.241	9	57	Target	Neutral	True
545.241	0.3	Control	0.6552	0.004	Yes	3.483	-0.004	1.0	GoodResponse	0	0.178	n/a	9	57	ButtonPress	Neutral	True
545.464	0.31	Control	0.6552	n/a	Yes	3.483	n/a	n/a	GoodResponse	0	n/a	n/a	9	57	Blank	Neutral	True
545.765	1.45	Control	0.6552	n/a	Yes	3.483	n/a	5.0	GoodResponse	0	0.007	544.772	9	57	Feedback	Neutral	True
547.219	3.483	Control	0.6552	n/a	Yes	3.483	n/a	n/a	GoodResponse	0	0.0	n/a	9	57	ISIslide	Neutral	True
550.729	0.25	Win2	0.6609999999999999	0.001	Yes	2.721	0.029	n/a	GoodResponse	1	n/a	n/a	10	58	Cue	Win	True
550.98	4.05	Win2	0.6609999999999999	0.0	Yes	2.721	0.001	n/a	GoodResponse	1	n/a	n/a	10	58	Fixation	Win	True
555.026	0.39	Win2	0.6609999999999999	0.003	Yes	2.721	-0.003	1.0	GoodResponse	1	0.233	554.259	10	58	Target	Win	True
555.259	0.3	Win2	0.6609999999999999	0.003	Yes	2.721	-0.003	1.0	GoodResponse	1	0.233	n/a	10	58	ButtonPress	Win	True
555.427	0.31	Win2	0.6609999999999999	n/a	Yes	2.721	n/a	n/a	GoodResponse	1	n/a	n/a	10	58	Blank	Win	True
555.728	1.45	Win2	0.6609999999999999	n/a	Yes	2.721	n/a	5.0	GoodResponse	1	0.044	554.772	10	58	Feedback	Win	True
557.182	2.721	Win2	0.6609999999999999	n/a	Yes	2.721	n/a	n/a	GoodResponse	1	0.0	n/a	10	58	ISIslide	Win	True
559.924	0.25	Lose2	0.6667000000000001	0.0	Yes	2.676	0.024	n/a	GoodResponse	0	n/a	n/a	10	59	Cue	AvoidedLoss	True
560.174	4.0	Lose2	0.6667000000000001	0.0	Yes	2.676	0.0	n/a	GoodResponse	0	n/a	n/a	10	59	Fixation	AvoidedLoss	True
564.17	0.39	Lose2	0.6667000000000001	0.004	Yes	2.676	-0.004	1.0	GoodResponse	0	0.197	563.367	10	59	Target	AvoidedLoss	True
564.367	0.3	Lose2	0.6667000000000001	0.004	Yes	2.676	-0.004	1.0	GoodResponse	0	0.197	n/a	10	59	ButtonPress	AvoidedLoss	True
564.571	0.31	Lose2	0.6667000000000001	n/a	Yes	2.676	n/a	n/a	GoodResponse	0	n/a	n/a	10	59	Blank	AvoidedLoss	True
564.872	1.45	Lose2	0.6667000000000001	n/a	Yes	2.676	n/a	5.0	GoodResponse	0	0.022	563.894	10	59	Feedback	AvoidedLoss	True
566.326	2.676	Lose2	0.6667000000000001	n/a	Yes	2.676	n/a	n/a	GoodResponse	0	0.0	n/a	10	59	ISIslide	AvoidedLoss	True
569.017	0.25	Control	0.6720999999999999	0.001	Yes	2.683	0.017	n/a	GoodResponse	0	n/a	n/a	10	60	Cue	Neutral	True
569.268	4.0	Control	0.6720999999999999	0.0	Yes	2.683	0.001	n/a	GoodResponse	0	n/a	n/a	10	60	Fixation	Neutral	True
573.263	0.38	Control	0.6720999999999999	0.004	Yes	2.683	-0.004	1.0	GoodResponse	0	0.169	572.432	10	60	Target	Neutral	True
573.432	0.3	Control	0.6720999999999999	0.004	Yes	2.683	-0.004	1.0	GoodResponse	0	0.169	n/a	10	60	ButtonPress	Neutral	True
573.648	0.32	Control	0.6720999999999999	n/a	Yes	2.683	n/a	n/a	GoodResponse	0	n/a	n/a	10	60	Blank	Neutral	True
573.966	1.45	Control	0.6720999999999999	n/a	Yes	2.683	n/a	5.0	GoodResponse	0	0.001	572.967	10	60	Feedback	Neutral	True
575.42	2.683	Control	0.6720999999999999	n/a	Yes	2.683	n/a	n/a	GoodResponse	0	0.0	n/a	10	60	ISIslide	Neutral	True
578.128	0.25	Lose2	0.6774	0.0	Yes	2.972	0.028	n/a	GoodResponse	0	n/a	n/a	10	61	Cue	AvoidedLoss	True
578.379	4.0	Lose2	0.6774	0.0	Yes	2.972	0.001	n/a	GoodResponse	0	n/a	n/a	10	61	Fixation	AvoidedLoss	True
582.374	0.37	Lose2	0.6774	0.004	Yes	2.972	-0.004	1.0	GoodResponse	0	0.277	581.651	10	61	Target	AvoidedLoss	True
582.651	0.3	Lose2	0.6774	0.004	Yes	2.972	-0.004	1.0	GoodResponse	0	0.277	n/a	10	61	ButtonPress	AvoidedLoss	True
582.758	0.33	Lose2	0.6774	n/a	Yes	2.972	n/a	n/a	GoodResponse	0	n/a	n/a	10	61	Blank	AvoidedLoss	True
583.076	1.45	Lose2	0.6774	n/a	Yes	2.972	n/a	5.0	GoodResponse	0	0.012	582.088	10	61	Feedback	AvoidedLoss	True
584.53	2.972	Lose2	0.6774	n/a	Yes	2.972	n/a	n/a	GoodResponse	0	0.0	n/a	10	61	ISIslide	AvoidedLoss	True
587.523	0.25	Lose2	0.6825	0.0	Yes	2.877	0.023	n/a	GoodResponse	0	n/a	n/a	10	62	Cue	AvoidedLoss	True
587.773	3.9	Lose2	0.6825	0.001	Yes	2.877	0.0	n/a	GoodResponse	0	n/a	n/a	10	62	Fixation	AvoidedLoss	True
591.685	0.36	Lose2	0.6825	0.0	Yes	2.877	0.012	1.0	GoodResponse	0	0.214	590.899	10	62	Target	AvoidedLoss	True
591.899	0.3	Lose2	0.6825	0.0	Yes	2.877	0.012	1.0	GoodResponse	0	0.214	n/a	10	62	ButtonPress	AvoidedLoss	True
592.036	0.34	Lose2	0.6825	n/a	Yes	2.877	n/a	n/a	GoodResponse	0	n/a	n/a	10	62	Blank	AvoidedLoss	True
592.37	1.45	Lose2	0.6825	n/a	Yes	2.877	n/a	5.0	GoodResponse	0	0.035	591.405	10	62	Feedback	AvoidedLoss	True
593.825	2.877	Lose2	0.6825	n/a	Yes	2.877	n/a	n/a	GoodResponse	0	0.0	n/a	10	62	ISIslide	AvoidedLoss	True
596.717	0.25	Lose2	0.6875	0.0	Yes	2.633	0.017	n/a	GoodResponse	0	n/a	n/a	10	63	Cue	AvoidedLoss	True
596.968	4.05	Lose2	0.6875	0.0	Yes	2.633	0.001	n/a	GoodResponse	0	n/a	n/a	10	63	Fixation	AvoidedLoss	True
601.013	0.35	Lose2	0.6875	0.004	Yes	2.633	-0.004	1.0	GoodResponse	0	0.199	600.212	10	63	Target	AvoidedLoss	True
601.212	0.3	Lose2	0.6875	0.004	Yes	2.633	-0.004	1.0	GoodResponse	0	0.199	n/a	10	63	ButtonPress	AvoidedLoss	True
601.364	0.35	Lose2	0.6875	n/a	Yes	2.633	n/a	n/a	GoodResponse	0	n/a	n/a	10	63	Blank	AvoidedLoss	True
601.715	1.45	Lose2	0.6875	n/a	Yes	2.633	n/a	5.0	GoodResponse	0	0.008	600.723	10	63	Feedback	AvoidedLoss	True
603.169	2.633	Lose2	0.6875	n/a	Yes	2.633	n/a	n/a	GoodResponse	0	0.0	n/a	10	63	ISIslide	AvoidedLoss	True
605.827	0.25	Win2	0.6923	0.0	Yes	3.123	0.027	n/a	GoodResponse	1	n/a	n/a	11	64	Cue	Win	True
606.078	4.15	Win2	0.6923	0.0	Yes	3.123	0.001	n/a	GoodResponse	1	n/a	n/a	11	64	Fixation	Win	True
610.224	0.34	Win2	0.6923	0.003	Yes	3.123	-0.003	1.0	GoodResponse	1	0.198	609.422	11	64	Target	Win	True
610.422	0.3	Win2	0.6923	0.003	Yes	3.123	-0.003	1.0	GoodResponse	1	0.198	n/a	11	64	ButtonPress	Win	True
610.575	0.36	Win2	0.6923	n/a	Yes	3.123	n/a	n/a	GoodResponse	1	n/a	n/a	11	64	Blank	Win	True
610.926	1.45	Win2	0.6923	n/a	Yes	3.123	n/a	5.0	GoodResponse	1	0.016	609.942	11	64	Feedback	Win	True
612.38	3.123	Win2	0.6923	n/a	Yes	3.123	n/a	n/a	GoodResponse	1	0.0	n/a	11	64	ISIslide	Win	True
615.523	0.25	Control	0.6818000000000001	0.0	No	2.777	0.023	n/a	NoResponse	0	n/a	n/a	11	65	Cue	Neutral	True
615.774	4.0	Control	0.6818000000000001	0.0	No	2.777	0.001	n/a	NoResponse	0	n/a	n/a	11	65	Fixation	Neutral	True
619.769	0.33	Control	0.6818000000000001	0.004	No	2.777	-0.004	1.0	NoResponse	0	0.345	619.114	11	65	Target	Neutral	True
620.103	0.37	Control	0.6818000000000001	n/a	No	2.777	n/a	n/a	NoResponse	0	n/a	n/a	11	65	Blank	Neutral	True
620.114	0.3	Control	0.6818000000000001	0.004	No	2.777	-0.004	1.0	NoResponse	0	0.345	n/a	11	65	ButtonPress	Neutral	True
620.471	1.45	Control	0.6818000000000001	n/a	No	2.777	n/a	5.0	NoResponse	0	0.031	619.502	11	65	Feedback	Neutral	True
621.925	2.777	Control	0.6818000000000001	n/a	No	2.777	n/a	n/a	NoResponse	0	0.0	n/a	11	65	ISIslide	Neutral	True
624.717	0.25	Win2	0.6866	0.0	Yes	2.783	0.017	n/a	GoodResponse	1	n/a	n/a	12	66	Cue	Win	True
624.968	3.9	Win2	0.6866	0.0	Yes	2.783	0.001	n/a	GoodResponse	1	n/a	n/a	12	66	Fixation	Win	True
628.863	0.32	Win2	0.6866	0.004	Yes	2.783	-0.004	1.0	GoodResponse	1	0.204	628.067	12	66	Target	Win	True
629.067	0.3	Win2	0.6866	0.004	Yes	2.783	-0.004	1.0	GoodResponse	1	0.204	n/a	12	66	ButtonPress	Win	True
629.197	0.38	Win2	0.6866	n/a	Yes	2.783	n/a	n/a	GoodResponse	1	n/a	n/a	12	66	Blank	Win	True
629.565	1.45	Win2	0.6866	n/a	Yes	2.783	n/a	5.0	GoodResponse	1	0.01	628.575	12	66	Feedback	Win	True
631.019	2.783	Win2	0.6866	n/a	Yes	2.783	n/a	n/a	GoodResponse	1	0.0	n/a	12	66	ISIslide	Win	True
633.828	0.25	Control	0.6765000000000001	0.0	No	2.722	0.028	n/a	NoResponse	0	n/a	n/a	12	67	Cue	Neutral	True
634.078	3.95	Control	0.6765000000000001	0.0	No	2.722	0.0	n/a	NoResponse	0	n/a	n/a	12	67	Fixation	Neutral	True
638.023	0.31	Control	0.6765000000000001	0.005	No	2.722	-0.005	1.0	NoResponse	0	0.464	637.487	12	67	Target	Neutral	True
638.341	0.39	Control	0.6765000000000001	n/a	No	2.722	n/a	n/a	NoResponse	0	n/a	n/a	12	67	Blank	Neutral	True
638.487	0.3	Control	0.6765000000000001	0.005	No	2.722	-0.005	1.0	NoResponse	0	0.464	n/a	12	67	ButtonPress	Neutral	True
638.726	1.45	Control	0.6765000000000001	n/a	No	2.722	n/a	5.0	NoResponse	0	0.02	637.746	12	67	Feedback	Neutral	True
640.18	2.722	Control	0.6765000000000001	n/a	No	2.722	n/a	n/a	NoResponse	0	0.0	n/a	12	67	ISIslide	Neutral	True
642.921	0.25	Win2	0.6812	0.001	Yes	3.079	0.021	n/a	GoodResponse	1	n/a	n/a	13	68	Cue	Win	True
643.172	4.0	Win2	0.6812	0.0	Yes	3.079	0.001	n/a	GoodResponse	1	n/a	n/a	13	68	Fixation	Win	True
647.167	0.3	Win2	0.6812	0.004	Yes	3.079	-0.004	1.0	GoodResponse	1	0.223	646.39	13	68	Target	Win	True
647.39	0.3	Win2	0.6812	0.004	Yes	3.079	-0.004	1.0	GoodResponse	1	0.223	n/a	13	68	ButtonPress	Win	True
647.468	0.4	Win2	0.6812	n/a	Yes	3.079	n/a	n/a	GoodResponse	1	n/a	n/a	13	68	Blank	Win	True
647.87	1.45	Win2	0.6812	n/a	Yes	3.079	n/a	5.0	GoodResponse	1	0.047	646.917	13	68	Feedback	Win	True
649.324	3.079	Win2	0.6812	n/a	Yes	3.079	n/a	n/a	GoodResponse	1	0.0	n/a	13	68	ISIslide	Win	True
652.416	0.25	Win2	0.6857	0.001	Yes	3.234	0.016	n/a	GoodResponse	1	n/a	n/a	14	69	Cue	Win	True
652.667	3.95	Win2	0.6857	0.0	Yes	3.234	0.001	n/a	GoodResponse	1	n/a	n/a	14	69	Fixation	Win	True
656.612	0.29	Win2	0.6857	0.004	Yes	3.234	-0.004	1.0	GoodResponse	1	0.16	655.772	14	69	Target	Win	True
656.772	0.3	Win2	0.6857	0.004	Yes	3.234	-0.004	1.0	GoodResponse	1	0.16	n/a	14	69	ButtonPress	Win	True
656.913	0.41	Win2	0.6857	n/a	Yes	3.234	n/a	n/a	GoodResponse	1	n/a	n/a	14	69	Blank	Win	True
657.314	1.45	Win2	0.6857	n/a	Yes	3.234	n/a	5.0	GoodResponse	1	0.017	656.331	14	69	Feedback	Win	True
658.769	3.234	Win2	0.6857	n/a	Yes	3.234	n/a	n/a	GoodResponse	1	0.0	n/a	14	69	ISIslide	Win	True
662.029	0.25	Lose2	0.6901	0.0	Yes	3.021	0.029	n/a	GoodResponse	0	n/a	n/a	14	70	Cue	AvoidedLoss	True
662.279	4.05	Lose2	0.6901	0.0	Yes	3.021	0.0	n/a	GoodResponse	0	n/a	n/a	14	70	Fixation	AvoidedLoss	True
666.325	0.28	Lose2	0.6901	0.004	Yes	3.021	-0.004	1.0	GoodResponse	0	0.189	665.514	14	70	Target	AvoidedLoss	True
666.514	0.3	Lose2	0.6901	0.004	Yes	3.021	-0.004	1.0	GoodResponse	0	0.189	n/a	14	70	ButtonPress	AvoidedLoss	True
666.609	0.42	Lose2	0.6901	n/a	Yes	3.021	n/a	n/a	GoodResponse	0	n/a	n/a	14	70	Blank	AvoidedLoss	True
667.027	1.45	Lose2	0.6901	n/a	Yes	3.021	n/a	5.0	GoodResponse	0	0.011	666.038	14	70	Feedback	AvoidedLoss	True
668.481	3.021	Lose2	0.6901	n/a	Yes	3.021	n/a	n/a	GoodResponse	0	0.0	n/a	14	70	ISIslide	AvoidedLoss	True
671.524	0.25	Win2	0.6944	0.0	Yes	2.726	0.024	n/a	GoodResponse	1	n/a	n/a	15	71	Cue	Win	True
671.774	4.05	Win2	0.6944	0.0	Yes	2.726	0.0	n/a	GoodResponse	1	n/a	n/a	15	71	Fixation	Win	True
675.82	0.27	Win2	0.6944	0.004	Yes	2.726	-0.004	1.0	GoodResponse	1	0.217	675.037	15	71	Target	Win	True
676.037	0.3	Win2	0.6944	0.004	Yes	2.726	-0.004	1.0	GoodResponse	1	0.217	n/a	15	71	ButtonPress	Win	True
676.104	0.43	Win2	0.6944	n/a	Yes	2.726	n/a	n/a	GoodResponse	1	n/a	n/a	15	71	Blank	Win	True
676.522	1.45	Win2	0.6944	n/a	Yes	2.726	n/a	5.0	GoodResponse	1	0.029	675.551	15	71	Feedback	Win	True
677.976	2.726	Win2	0.6944	n/a	Yes	2.726	n/a	n/a	GoodResponse	1	0.0	n/a	15	71	ISIslide	Win	True
680.718	0.25	Win2	0.6986	0.0	Yes	2.782	0.018	n/a	GoodResponse	1	n/a	n/a	16	72	Cue	Win	True
680.968	4.1	Win2	0.6986	0.001	Yes	2.782	0.0	n/a	GoodResponse	1	n/a	n/a	16	72	Fixation	Win	True
685.064	0.26	Win2	0.6986	0.004	Yes	2.782	-0.004	1.0	GoodResponse	1	0.189	684.253	16	72	Target	Win	True
685.253	0.3	Win2	0.6986	0.004	Yes	2.782	-0.004	1.0	GoodResponse	1	0.189	n/a	16	72	ButtonPress	Win	True
685.331	0.44	Win2	0.6986	n/a	Yes	2.782	n/a	n/a	GoodResponse	1	n/a	n/a	16	72	Blank	Win	True
685.766	1.45	Win2	0.6986	n/a	Yes	2.782	n/a	5.0	GoodResponse	1	0.006	684.772	16	72	Feedback	Win	True
687.22	2.782	Win2	0.6986	n/a	Yes	2.782	n/a	n/a	GoodResponse	1	0.0	n/a	16	72	ISIslide	Win	True
690.029	0.25	Win2	0.7027	0.0	Yes	2.671	0.029	n/a	GoodResponse	1	n/a	n/a	17	73	Cue	Win	True
690.28	4.0	Win2	0.7027	0.0	Yes	2.671	0.001	n/a	GoodResponse	1	n/a	n/a	17	73	Fixation	Win	True
694.275	0.25	Win2	0.7027	0.004	Yes	2.671	-0.004	1.0	GoodResponse	1	0.184	693.459	17	73	Target	Win	True
694.459	0.3	Win2	0.7027	0.004	Yes	2.671	-0.004	1.0	GoodResponse	1	0.184	n/a	17	73	ButtonPress	Win	True
694.526	0.45	Win2	0.7027	n/a	Yes	2.671	n/a	n/a	GoodResponse	1	n/a	n/a	17	73	Blank	Win	True
694.977	1.45	Win2	0.7027	n/a	Yes	2.671	n/a	5.0	GoodResponse	1	0.012	693.989	17	73	Feedback	Win	True
696.431	2.671	Win2	0.7027	n/a	Yes	2.671	n/a	n/a	GoodResponse	1	0.0	n/a	17	73	ISIslide	Win	True
699.123	0.25	Lose2	0.7067	0.0	Yes	2.627	0.023	n/a	GoodResponse	0	n/a	n/a	17	74	Cue	AvoidedLoss	True
699.373	4.05	Lose2	0.7067	0.0	Yes	2.627	0.0	n/a	GoodResponse	0	n/a	n/a	17	74	Fixation	AvoidedLoss	True
703.419	0.24	Lose2	0.7067	0.004	Yes	2.627	-0.004	1.0	GoodResponse	0	0.144	702.563	17	74	Target	AvoidedLoss	True
703.563	0.3	Lose2	0.7067	0.004	Yes	2.627	-0.004	1.0	GoodResponse	0	0.144	n/a	17	74	ButtonPress	AvoidedLoss	True
703.67	0.46	Lose2	0.7067	n/a	Yes	2.627	n/a	n/a	GoodResponse	0	n/a	n/a	17	74	Blank	AvoidedLoss	True
704.121	1.45	Lose2	0.7067	n/a	Yes	2.627	n/a	5.0	GoodResponse	0	0.039	703.16	17	74	Feedback	AvoidedLoss	True
705.575	2.627	Lose2	0.7067	n/a	Yes	2.627	n/a	n/a	GoodResponse	0	0.0	n/a	17	74	ISIslide	AvoidedLoss	True
708.216	0.25	Lose2	0.7105	0.001	Yes	2.934	0.016	n/a	GoodResponse	0	n/a	n/a	17	75	Cue	AvoidedLoss	True
708.467	3.95	Lose2	0.7105	0.0	Yes	2.934	0.001	n/a	GoodResponse	0	n/a	n/a	17	75	Fixation	AvoidedLoss	True
712.412	0.23	Lose2	0.7105	0.004	Yes	2.934	-0.004	1.0	GoodResponse	0	0.178	711.59	17	75	Target	AvoidedLoss	True
712.59	0.3	Lose2	0.7105	0.004	Yes	2.934	-0.004	1.0	GoodResponse	0	0.178	n/a	17	75	ButtonPress	AvoidedLoss	True
712.646	0.47	Lose2	0.7105	n/a	Yes	2.934	n/a	n/a	GoodResponse	0	n/a	n/a	17	75	Blank	AvoidedLoss	True
713.114	1.45	Lose2	0.7105	n/a	Yes	2.934	n/a	5.0	GoodResponse	0	0.021	712.135	17	75	Feedback	AvoidedLoss	True
714.569	2.934	Lose2	0.7105	n/a	Yes	2.934	n/a	n/a	GoodResponse	0	0.0	n/a	17	75	ISIslide	AvoidedLoss	True
717.528	0.25	Control	0.7012999999999999	0.0	No	3.222	0.028	n/a	LatePress	0	n/a	n/a	17	76	Cue	Neutral	True
717.778	4.05	Control	0.7012999999999999	0.0	No	3.222	0.0	n/a	LatePress	0	n/a	n/a	17	76	Fixation	Neutral	True
721.824	0.22	Control	0.7012999999999999	0.004	No	3.222	-0.004	1.0	LatePress	0	0.228	721.052	17	76	Target	Neutral	True
722.052	0.3	Control	0.7012999999999999	0.004	No	3.222	-0.004	1.0	LatePress	0	0.228	n/a	17	76	ButtonPress	Neutral	True
722.058	0.48	Control	0.7012999999999999	n/a	No	3.222	n/a	n/a	LatePress	0	n/a	n/a	17	76	Blank	Neutral	True
722.526	1.45	Control	0.7012999999999999	n/a	No	3.222	n/a	5.0	LatePress	0	0.024	721.55	17	76	Feedback	Neutral	True
723.98	3.222	Control	0.7012999999999999	n/a	No	3.222	n/a	n/a	LatePress	0	0.0	n/a	17	76	ISIslide	Neutral	True
727.223	0.25	Lose2	0.7051000000000001	0.0	Yes	2.577	0.023	n/a	GoodResponse	0	n/a	n/a	17	77	Cue	AvoidedLoss	True
727.474	3.95	Lose2	0.7051000000000001	0.0	Yes	2.577	0.001	n/a	GoodResponse	0	n/a	n/a	17	77	Fixation	AvoidedLoss	True
731.419	0.21	Lose2	0.7051000000000001	0.004	Yes	2.577	-0.004	1.0	GoodResponse	0	0.188	730.607	17	77	Target	AvoidedLoss	True
731.607	0.3	Lose2	0.7051000000000001	0.004	Yes	2.577	-0.004	1.0	GoodResponse	0	0.188	n/a	17	77	ButtonPress	AvoidedLoss	True
731.636	0.49	Lose2	0.7051000000000001	n/a	Yes	2.577	n/a	n/a	GoodResponse	0	n/a	n/a	17	77	Blank	AvoidedLoss	True
732.121	1.45	Lose2	0.7051000000000001	n/a	Yes	2.577	n/a	5.0	GoodResponse	0	0.038	731.159	17	77	Feedback	AvoidedLoss	True
733.576	2.577	Lose2	0.7051000000000001	n/a	Yes	2.577	n/a	n/a	GoodResponse	0	0.0	n/a	17	77	ISIslide	AvoidedLoss	True
