onset	duration	cue_type	current_mean_accuracy	duration_error	is_hit	isi_adjusted	onset_delay	response	response_type	reward	rt	rt_time	total_reward	trial_number	trial_phase	trial_type	one_press
11.096	0.25	Control	1.0	0.0	Yes	2.954	-0.004	n/a	GoodResponse	0	n/a	n/a	0	0	Cue	Neutral	True
11.346	3.85	Control	1.0	0.0	Yes	2.954	0.0	n/a	GoodResponse	0	n/a	n/a	0	0	Fixation	Neutral	True
15.195	0.4	Control	1.0	0.001	Yes	2.954	-0.001	3.0	GoodResponse	0	0.229	14.424	0	0	Target	Neutral	True
15.424	0.3	Control	1.0	0.001	Yes	2.954	-0.001	3.0	GoodResponse	0	0.229	n/a	0	0	ButtonPress	Neutral	True
15.595	0.3	Control	1.0	n/a	Yes	2.954	n/a	n/a	GoodResponse	0	n/a	n/a	0	0	Blank	Neutral	True
15.895	1.45	Control	1.0	n/a	Yes	2.954	n/a	5.0	GoodResponse	0	0.033	14.928	0	0	Feedback	Neutral	True
17.344	2.954	Control	1.0	n/a	Yes	2.954	n/a	n/a	GoodResponse	0	0.0	n/a	0	0	ISIslide	Neutral	True
20.326	0.25	Lose2	1.0	0.0	Yes	2.774	0.026	n/a	GoodResponse	0	n/a	n/a	0	1	Cue	AvoidedLoss	True
20.576	4.0	Lose2	1.0	0.0	Yes	2.774	0.0	n/a	GoodResponse	0	n/a	n/a	0	1	Fixation	AvoidedLoss	True
24.575	0.39	Lose2	1.0	0.001	Yes	2.774	-0.001	3.0	GoodResponse	0	0.269	23.844	0	1	Target	AvoidedLoss	True
24.844	0.3	Lose2	1.0	0.001	Yes	2.774	-0.001	3.0	GoodResponse	0	0.269	n/a	0	1	ButtonPress	AvoidedLoss	True
24.975	0.31	Lose2	1.0	n/a	Yes	2.774	n/a	n/a	GoodResponse	0	n/a	n/a	0	1	Blank	AvoidedLoss	True
25.275	1.45	Lose2	1.0	n/a	Yes	2.774	n/a	5.0	GoodResponse	0	0.019	24.294	0	1	Feedback	AvoidedLoss	True
26.724	2.774	Lose2	1.0	n/a	Yes	2.774	n/a	n/a	GoodResponse	0	0.0	n/a	0	1	ISIslide	AvoidedLoss	True
29.523	0.25	Control	1.0	0.0	Yes	2.577	0.023	n/a	GoodResponse	0	n/a	n/a	0	2	Cue	Neutral	True
29.773	4.1	Control	1.0	0.0	Yes	2.577	0.0	n/a	GoodResponse	0	n/a	n/a	0	2	Fixation	Neutral	True
33.872	0.38	Control	1.0	0.001	Yes	2.577	-0.001	3.0	GoodResponse	0	0.373	33.245	0	2	Target	Neutral	True
34.245	0.3	Control	1.0	0.001	Yes	2.577	-0.001	3.0	GoodResponse	0	0.373	n/a	0	2	ButtonPress	Neutral	True
34.255	0.32	Control	1.0	n/a	Yes	2.577	n/a	n/a	GoodResponse	0	n/a	n/a	0	2	Blank	Neutral	True
34.571	1.45	Control	1.0	n/a	Yes	2.577	n/a	5.0	GoodResponse	0	0.04	33.611	0	2	Feedback	Neutral	True
36.021	2.577	Control	1.0	n/a	Yes	2.577	n/a	n/a	GoodResponse	0	0.0	n/a	0	2	ISIslide	Neutral	True
38.62	0.25	Win2	1.0	0.0	Yes	2.83	0.02	n/a	GoodResponse	1	n/a	n/a	1	3	Cue	Win	True
38.87	3.95	Win2	1.0	0.0	Yes	2.83	0.0	n/a	GoodResponse	1	n/a	n/a	1	3	Fixation	Win	True
42.819	0.37	Win2	1.0	0.001	Yes	2.83	-0.001	3.0	GoodResponse	1	0.297	42.116	1	3	Target	Win	True
43.116	0.3	Win2	1.0	0.001	Yes	2.83	-0.001	3.0	GoodResponse	1	0.297	n/a	1	3	ButtonPress	Win	True
43.202	0.33	Win2	1.0	n/a	Yes	2.83	n/a	n/a	GoodResponse	1	n/a	n/a	1	3	Blank	Win	True
43.518	1.45	Win2	1.0	n/a	Yes	2.83	n/a	5.0	GoodResponse	1	0.02	42.538	1	3	Feedback	Win	True
44.968	2.83	Win2	1.0	n/a	Yes	2.83	n/a	n/a	GoodResponse	1	0.0	n/a	1	3	ISIslide	Win	True
47.817	0.25	Win2	1.0	0.0	Yes	3.283	0.017	n/a	GoodResponse	1	n/a	n/a	2	4	Cue	Win	True
48.067	4.0	Win2	1.0	0.0	Yes	3.283	0.0	n/a	GoodResponse	1	n/a	n/a	2	4	Fixation	Win	True
52.065	0.36	Win2	1.0	0.002	Yes	3.283	-0.002	3.0	GoodResponse	1	0.304	51.369	2	4	Target	Win	True
52.369	0.3	Win2	1.0	0.002	Yes	3.283	-0.002	3.0	GoodResponse	1	0.304	n/a	2	4	ButtonPress	Win	True
52.432	0.34	Win2	1.0	n/a	Yes	3.283	n/a	n/a	GoodResponse	1	n/a	n/a	2	4	Blank	Win	True
52.765	1.45	Win2	1.0	n/a	Yes	3.283	n/a	5.0	GoodResponse	1	0.042	51.807	2	4	Feedback	Win	True
54.215	3.283	Win2	1.0	n/a	Yes	3.283	n/a	n/a	GoodResponse	1	0.0	n/a	2	4	ISIslide	Win	True
57.514	0.25	Win2	1.0	0.0	Yes	2.786	0.014	n/a	GoodResponse	1	n/a	n/a	3	5	Cue	Win	True
57.764	4.0	Win2	1.0	0.0	Yes	2.786	0.0	n/a	GoodResponse	1	n/a	n/a	3	5	Fixation	Win	True
61.762	0.35	Win2	1.0	0.002	Yes	2.786	-0.002	3.0	GoodResponse	1	0.24	61.002	3	5	Target	Win	True
62.002	0.3	Win2	1.0	0.002	Yes	2.786	-0.002	3.0	GoodResponse	1	0.24	n/a	3	5	ButtonPress	Win	True
62.112	0.35	Win2	1.0	n/a	Yes	2.786	n/a	n/a	GoodResponse	1	n/a	n/a	3	5	Blank	Win	True
62.462	1.45	Win2	1.0	n/a	Yes	2.786	n/a	5.0	GoodResponse	1	0.008	61.47	3	5	Feedback	Win	True
63.911	2.786	Win2	1.0	n/a	Yes	2.786	n/a	n/a	GoodResponse	1	0.0	n/a	3	5	ISIslide	Win	True
66.727	0.25	Lose2	1.0	0.0	Yes	2.723	0.027	n/a	GoodResponse	0	n/a	n/a	3	6	Cue	AvoidedLoss	True
66.977	3.95	Lose2	1.0	0.0	Yes	2.723	0.0	n/a	GoodResponse	0	n/a	n/a	3	6	Fixation	AvoidedLoss	True
70.926	0.34	Lose2	1.0	0.001	Yes	2.723	-0.001	3.0	GoodResponse	0	0.299	70.225	3	6	Target	AvoidedLoss	True
71.225	0.3	Lose2	1.0	0.001	Yes	2.723	-0.001	3.0	GoodResponse	0	0.299	n/a	3	6	ButtonPress	AvoidedLoss	True
71.276	0.36	Lose2	1.0	n/a	Yes	2.723	n/a	n/a	GoodResponse	0	n/a	n/a	3	6	Blank	AvoidedLoss	True
71.625	1.45	Lose2	1.0	n/a	Yes	2.723	n/a	5.0	GoodResponse	0	0.011	70.636	3	6	Feedback	AvoidedLoss	True
73.075	2.723	Lose2	1.0	n/a	Yes	2.723	n/a	n/a	GoodResponse	0	0.0	n/a	3	6	ISIslide	AvoidedLoss	True
75.824	0.25	Lose2	1.0	0.0	Yes	4.026	0.024	n/a	GoodResponse	0	n/a	n/a	3	7	Cue	AvoidedLoss	True
76.074	4.05	Lose2	1.0	0.0	Yes	4.026	0.0	n/a	GoodResponse	0	n/a	n/a	3	7	Fixation	AvoidedLoss	True
80.123	0.33	Lose2	1.0	0.001	Yes	4.026	-0.001	3.0	GoodResponse	0	0.288	79.411	3	7	Target	AvoidedLoss	True
80.411	0.3	Lose2	1.0	0.001	Yes	4.026	-0.001	3.0	GoodResponse	0	0.288	n/a	3	7	ButtonPress	AvoidedLoss	True
80.456	0.37	Lose2	1.0	n/a	Yes	4.026	n/a	n/a	GoodResponse	0	n/a	n/a	3	7	Blank	AvoidedLoss	True
80.822	1.45	Lose2	1.0	n/a	Yes	4.026	n/a	5.0	GoodResponse	0	0.033	79.855	3	7	Feedback	AvoidedLoss	True
82.272	4.026	Lose2	1.0	n/a	Yes	4.026	n/a	n/a	GoodResponse	0	0.0	n/a	3	7	ISIslide	AvoidedLoss	True
86.32	0.25	Lose2	1.0	0.001	Yes	3.03	0.02	n/a	GoodResponse	0	n/a	n/a	3	8	Cue	AvoidedLoss	True
86.57	3.95	Lose2	1.0	0.0	Yes	3.03	0.0	n/a	GoodResponse	0	n/a	n/a	3	8	Fixation	AvoidedLoss	True
90.519	0.32	Lose2	1.0	0.001	Yes	3.03	-0.001	3.0	GoodResponse	0	0.314	89.833	3	8	Target	AvoidedLoss	True
90.833	0.3	Lose2	1.0	0.001	Yes	3.03	-0.001	3.0	GoodResponse	0	0.314	n/a	3	8	ButtonPress	AvoidedLoss	True
90.836	0.38	Lose2	1.0	n/a	Yes	3.03	n/a	n/a	GoodResponse	0	n/a	n/a	3	8	Blank	AvoidedLoss	True
91.219	1.45	Lose2	1.0	n/a	Yes	3.03	n/a	5.0	GoodResponse	0	0.026	90.245	3	8	Feedback	AvoidedLoss	True
92.668	3.03	Lose2	1.0	n/a	Yes	3.03	n/a	n/a	GoodResponse	0	0.0	n/a	3	8	ISIslide	AvoidedLoss	True
95.717	0.25	Lose2	0.9	0.0	No	3.133	0.017	n/a	LatePress	-1	n/a	n/a	2	9	Cue	Loss	True
95.967	3.95	Lose2	0.9	0.0	No	3.133	0.0	n/a	LatePress	-1	n/a	n/a	2	9	Fixation	Loss	True
99.916	0.31	Lose2	0.9	0.001	No	3.133	-0.001	3.0	LatePress	-1	0.315	99.231	2	9	Target	Loss	True
100.231	0.3	Lose2	0.9	0.001	No	3.133	-0.001	3.0	LatePress	-1	0.315	n/a	2	9	ButtonPress	Loss	True
100.232	0.39	Lose2	0.9	n/a	No	3.133	n/a	n/a	LatePress	-1	n/a	n/a	2	9	Blank	Loss	True
100.616	1.45	Lose2	0.9	n/a	No	3.133	n/a	5.0	LatePress	-1	0.044	99.66	2	9	Feedback	Loss	True
102.065	3.133	Lose2	0.9	n/a	No	3.133	n/a	n/a	LatePress	-1	0.0	n/a	2	9	ISIslide	Loss	True
105.231	0.25	Control	0.9091	0.0	Yes	3.269	0.031	n/a	GoodResponse	0	n/a	n/a	2	10	Cue	Neutral	True
105.481	4.0	Control	0.9091	0.0	Yes	3.269	0.0	n/a	GoodResponse	0	n/a	n/a	2	10	Fixation	Neutral	True
109.479	0.3	Control	0.9091	0.002	Yes	3.269	-0.002	3.0	GoodResponse	0	0.23	108.709	2	10	Target	Neutral	True
109.709	0.3	Control	0.9091	0.002	Yes	3.269	-0.002	3.0	GoodResponse	0	0.23	n/a	2	10	ButtonPress	Neutral	True
109.779	0.4	Control	0.9091	n/a	Yes	3.269	n/a	n/a	GoodResponse	0	n/a	n/a	2	10	Blank	Neutral	True
110.179	1.45	Control	0.9091	n/a	Yes	3.269	n/a	5.0	GoodResponse	0	0.042	109.221	2	10	Feedback	Neutral	True
111.628	3.269	Control	0.9091	n/a	Yes	3.269	n/a	n/a	GoodResponse	0	0.0	n/a	2	10	ISIslide	Neutral	True
114.927	0.25	Lose2	0.9167000000000001	0.0	Yes	2.723	0.027	n/a	GoodResponse	0	n/a	n/a	2	11	Cue	AvoidedLoss	True
115.177	4.05	Lose2	0.9167000000000001	0.0	Yes	2.723	0.0	n/a	GoodResponse	0	n/a	n/a	2	11	Fixation	AvoidedLoss	True
119.226	0.29	Lose2	0.9167000000000001	0.001	Yes	2.723	-0.001	3.0	GoodResponse	0	0.216	118.442	2	11	Target	AvoidedLoss	True
119.442	0.3	Lose2	0.9167000000000001	0.001	Yes	2.723	-0.001	3.0	GoodResponse	0	0.216	n/a	2	11	ButtonPress	AvoidedLoss	True
119.526	0.41	Lose2	0.9167000000000001	n/a	Yes	2.723	n/a	n/a	GoodResponse	0	n/a	n/a	2	11	Blank	AvoidedLoss	True
119.926	1.45	Lose2	0.9167000000000001	n/a	Yes	2.723	n/a	5.0	GoodResponse	0	0.007	118.933	2	11	Feedback	AvoidedLoss	True
121.375	2.723	Lose2	0.9167000000000001	n/a	Yes	2.723	n/a	n/a	GoodResponse	0	0.0	n/a	2	11	ISIslide	AvoidedLoss	True
124.124	0.25	Control	0.9231	0.0	Yes	2.976	0.024	n/a	GoodResponse	0	n/a	n/a	2	12	Cue	Neutral	True
124.374	3.9	Control	0.9231	0.0	Yes	2.976	0.0	n/a	GoodResponse	0	n/a	n/a	2	12	Fixation	Neutral	True
128.273	0.28	Control	0.9231	0.001	Yes	2.976	-0.001	3.0	GoodResponse	0	0.264	127.537	2	12	Target	Neutral	True
128.537	0.3	Control	0.9231	0.001	Yes	2.976	-0.001	3.0	GoodResponse	0	0.264	n/a	2	12	ButtonPress	Neutral	True
128.556	0.42	Control	0.9231	n/a	Yes	2.976	n/a	n/a	GoodResponse	0	n/a	n/a	2	12	Blank	Neutral	True
128.973	1.45	Control	0.9231	n/a	Yes	2.976	n/a	5.0	GoodResponse	0	0.029	128.002	2	12	Feedback	Neutral	True
130.422	2.976	Control	0.9231	n/a	Yes	2.976	n/a	n/a	GoodResponse	0	0.0	n/a	2	12	ISIslide	Neutral	True
133.421	0.25	Control	0.8571	0.0	No	2.779	0.021	n/a	NoResponse	0	n/a	n/a	2	13	Cue	Neutral	True
133.671	4.0	Control	0.8571	0.0	No	2.779	0.0	n/a	NoResponse	0	n/a	n/a	2	13	Fixation	Neutral	True
137.67	0.27	Control	0.8571	0.001	No	2.779	-0.001	3.0	NoResponse	0	0.371	137.041	2	13	Target	Neutral	True
137.953	0.43	Control	0.8571	n/a	No	2.779	n/a	n/a	NoResponse	0	n/a	n/a	2	13	Blank	Neutral	True
138.041	0.3	Control	0.8571	0.001	No	2.779	-0.001	3.0	NoResponse	0	0.371	n/a	2	13	ButtonPress	Neutral	True
138.369	1.45	Control	0.8571	n/a	No	2.779	n/a	5.0	NoResponse	0	0.047	137.416	2	13	Feedback	Neutral	True
139.819	2.779	Control	0.8571	n/a	No	2.779	n/a	n/a	NoResponse	0	0.0	n/a	2	13	ISIslide	Neutral	True
142.618	0.25	Win2	0.8667	0.0	Yes	2.682	0.018	n/a	GoodResponse	1	n/a	n/a	3	14	Cue	Win	True
142.868	4.1	Win2	0.8667	0.0	Yes	2.682	0.0	n/a	GoodResponse	1	n/a	n/a	3	14	Fixation	Win	True
146.966	0.26	Win2	0.8667	0.002	Yes	2.682	-0.002	3.0	GoodResponse	1	0.227	146.193	3	14	Target	Win	True
147.193	0.3	Win2	0.8667	0.002	Yes	2.682	-0.002	3.0	GoodResponse	1	0.227	n/a	3	14	ButtonPress	Win	True
147.233	0.44	Win2	0.8667	n/a	Yes	2.682	n/a	n/a	GoodResponse	1	n/a	n/a	3	14	Blank	Win	True
147.666	1.45	Win2	0.8667	n/a	Yes	2.682	n/a	5.0	GoodResponse	1	0.019	146.685	3	14	Feedback	Win	True
149.116	2.682	Win2	0.8667	n/a	Yes	2.682	n/a	n/a	GoodResponse	1	0.0	n/a	3	14	ISIslide	Win	True
151.815	0.25	Control	0.8125	0.0	No	2.985	0.015	n/a	NoResponse	0	n/a	n/a	3	15	Cue	Neutral	True
152.065	4.0	Control	0.8125	0.0	No	2.985	0.0	n/a	NoResponse	0	n/a	n/a	3	15	Fixation	Neutral	True
156.063	0.25	Control	0.8125	0.002	No	2.985	-0.002	3.0	NoResponse	0	0.274	155.337	3	15	Target	Neutral	True
156.313	0.45	Control	0.8125	n/a	No	2.985	n/a	n/a	NoResponse	0	n/a	n/a	3	15	Blank	Neutral	True
156.337	0.3	Control	0.8125	0.002	No	2.985	-0.002	3.0	NoResponse	0	0.274	n/a	3	15	ButtonPress	Neutral	True
156.763	1.45	Control	0.8125	n/a	No	2.985	n/a	5.0	NoResponse	0	0.043	155.806	3	15	Feedback	Neutral	True
158.212	2.985	Control	0.8125	n/a	No	2.985	n/a	n/a	NoResponse	0	0.0	n/a	3	15	ISIslide	Neutral	True
161.228	0.25	Win2	0.8234999999999999	0.0	Yes	2.872	0.028	n/a	GoodResponse	1	n/a	n/a	4	16	Cue	Win	True
161.478	4.0	Win2	0.8234999999999999	0.0	Yes	2.872	0.0	n/a	GoodResponse	1	n/a	n/a	4	16	Fixation	Win	True
165.477	0.24	Win2	0.8234999999999999	0.001	Yes	2.872	-0.001	3.0	GoodResponse	1	0.218	164.695	4	16	Target	Win	True
165.695	0.3	Win2	0.8234999999999999	0.001	Yes	2.872	-0.001	3.0	GoodResponse	1	0.218	n/a	4	16	ButtonPress	Win	True
165.727	0.46	Win2	0.8234999999999999	n/a	Yes	2.872	n/a	n/a	GoodResponse	1	n/a	n/a	4	16	Blank	Win	True
166.176	1.45	Win2	0.8234999999999999	n/a	Yes	2.872	n/a	5.0	GoodResponse	1	0.045	165.221	4	16	Feedback	Win	True
167.626	2.872	Win2	0.8234999999999999	n/a	Yes	2.872	n/a	n/a	GoodResponse	1	0.0	n/a	4	16	ISIslide	Win	True
170.525	0.25	Lose2	0.8332999999999999	0.0	Yes	2.725	0.025	n/a	GoodResponse	0	n/a	n/a	4	17	Cue	AvoidedLoss	True
170.775	3.95	Lose2	0.8332999999999999	0.0	Yes	2.725	0.0	n/a	GoodResponse	0	n/a	n/a	4	17	Fixation	AvoidedLoss	True
174.724	0.23	Lose2	0.8332999999999999	0.001	Yes	2.725	-0.001	3.0	GoodResponse	0	0.228	173.952	4	17	Target	AvoidedLoss	True
174.952	0.3	Lose2	0.8332999999999999	0.001	Yes	2.725	-0.001	3.0	GoodResponse	0	0.228	n/a	4	17	ButtonPress	AvoidedLoss	True
174.957	0.47	Lose2	0.8332999999999999	n/a	Yes	2.725	n/a	n/a	GoodResponse	0	n/a	n/a	4	17	Blank	AvoidedLoss	True
175.423	1.45	Lose2	0.8332999999999999	n/a	Yes	2.725	n/a	5.0	GoodResponse	0	0.017	174.44	4	17	Feedback	AvoidedLoss	True
176.873	2.725	Lose2	0.8332999999999999	n/a	Yes	2.725	n/a	n/a	GoodResponse	0	0.0	n/a	4	17	ISIslide	AvoidedLoss	True
179.622	0.25	Lose2	0.7895	0.0	No	2.728	0.022	n/a	NoResponse	-1	n/a	n/a	3	18	Cue	Loss	True
179.872	4.05	Lose2	0.7895	0.0	No	2.728	0.0	n/a	NoResponse	-1	n/a	n/a	3	18	Fixation	Loss	True
183.92	0.22	Lose2	0.7895	0.002	No	2.728	-0.002	3.0	NoResponse	-1	0.253	183.173	3	18	Target	Loss	True
184.154	0.48	Lose2	0.7895	n/a	No	2.728	n/a	n/a	NoResponse	-1	n/a	n/a	3	18	Blank	Loss	True
184.173	0.3	Lose2	0.7895	0.002	No	2.728	-0.002	3.0	NoResponse	-1	0.253	n/a	3	18	ButtonPress	Loss	True
184.62	1.45	Lose2	0.7895	n/a	No	2.728	n/a	5.0	NoResponse	-1	0.04	183.66	3	18	Feedback	Loss	True
186.07	2.728	Lose2	0.7895	n/a	No	2.728	n/a	n/a	NoResponse	-1	0.0	n/a	3	18	ISIslide	Loss	True
188.819	0.25	Control	0.75	0.0	No	2.931	0.019	n/a	NoResponse	0	n/a	n/a	3	19	Cue	Neutral	True
189.069	3.95	Control	0.75	0.0	No	2.931	0.0	n/a	NoResponse	0	n/a	n/a	3	19	Fixation	Neutral	True
193.017	0.21	Control	0.75	0.002	No	2.931	-0.002	3.0	NoResponse	0	0.253	192.27	3	19	Target	Neutral	True
193.234	0.49	Control	0.75	n/a	No	2.931	n/a	n/a	NoResponse	0	n/a	n/a	3	19	Blank	Neutral	True
193.27	0.3	Control	0.75	0.002	No	2.931	-0.002	3.0	NoResponse	0	0.253	n/a	3	19	ButtonPress	Neutral	True
193.717	1.45	Control	0.75	n/a	No	2.931	n/a	5.0	NoResponse	0	0.016	192.733	3	19	Feedback	Neutral	True
195.167	2.931	Control	0.75	n/a	No	2.931	n/a	n/a	NoResponse	0	0.0	n/a	3	19	ISIslide	Neutral	True
198.116	0.25	Control	0.7143	0.0	No	2.634	0.016	n/a	NoResponse	0	n/a	n/a	3	20	Cue	Neutral	True
198.365	4.05	Control	0.7143	0.001	No	2.634	-0.001	n/a	NoResponse	0	n/a	n/a	3	20	Fixation	Neutral	True
202.414	0.2	Control	0.7143	0.002	No	2.634	-0.002	3.0	NoResponse	0	0.242	201.656	3	20	Target	Neutral	True
202.614	0.5	Control	0.7143	n/a	No	2.634	n/a	n/a	NoResponse	0	n/a	n/a	3	20	Blank	Neutral	True
202.656	0.3	Control	0.7143	0.002	No	2.634	-0.002	3.0	NoResponse	0	0.242	n/a	3	20	ButtonPress	Neutral	True
203.114	1.45	Control	0.7143	n/a	No	2.634	n/a	5.0	NoResponse	0	0.034	202.148	3	20	Feedback	Neutral	True
204.563	2.634	Control	0.7143	n/a	No	2.634	n/a	n/a	NoResponse	0	0.0	n/a	3	20	ISIslide	Neutral	True
207.229	0.25	Control	0.6818000000000001	0.0	No	2.771	0.029	n/a	NoResponse	0	n/a	n/a	3	21	Cue	Neutral	True
207.479	4.1	Control	0.6818000000000001	0.0	No	2.771	0.0	n/a	NoResponse	0	n/a	n/a	3	21	Fixation	Neutral	True
211.578	0.19	Control	0.6818000000000001	0.001	No	2.771	-0.001	3.0	NoResponse	0	0.319	210.897	3	21	Target	Neutral	True
211.777	0.51	Control	0.6818000000000001	n/a	No	2.771	n/a	n/a	NoResponse	0	n/a	n/a	3	21	Blank	Neutral	True
211.897	0.3	Control	0.6818000000000001	0.001	No	2.771	-0.001	3.0	NoResponse	0	0.319	n/a	3	21	ButtonPress	Neutral	True
212.277	1.45	Control	0.6818000000000001	n/a	No	2.771	n/a	5.0	NoResponse	0	0.042	211.319	3	21	Feedback	Neutral	True
213.727	2.771	Control	0.6818000000000001	n/a	No	2.771	n/a	n/a	NoResponse	0	0.0	n/a	3	21	ISIslide	Neutral	True
216.526	0.25	Control	0.6522	0.0	No	2.774	0.026	n/a	NoResponse	0	n/a	n/a	3	22	Cue	Neutral	True
216.776	4.0	Control	0.6522	0.0	No	2.774	0.0	n/a	NoResponse	0	n/a	n/a	3	22	Fixation	Neutral	True
220.774	0.18	Control	0.6522	0.002	No	2.774	-0.002	3.0	NoResponse	0	0.206	219.98	3	22	Target	Neutral	True
220.958	0.52	Control	0.6522	n/a	No	2.774	n/a	n/a	NoResponse	0	n/a	n/a	3	22	Blank	Neutral	True
220.98	0.3	Control	0.6522	0.002	No	2.774	-0.002	3.0	NoResponse	0	0.206	n/a	3	22	ButtonPress	Neutral	True
221.474	1.45	Control	0.6522	n/a	No	2.774	n/a	5.0	NoResponse	0	0.016	220.49	3	22	Feedback	Neutral	True
222.924	2.774	Control	0.6522	n/a	No	2.774	n/a	n/a	NoResponse	0	0.0	n/a	3	22	ISIslide	Neutral	True
225.723	0.25	Control	0.625	0.0	No	2.777	0.023	n/a	NoResponse	0	n/a	n/a	3	23	Cue	Neutral	True
225.973	3.9	Control	0.625	0.0	No	2.777	0.0	n/a	NoResponse	0	n/a	n/a	3	23	Fixation	Neutral	True
229.871	0.19	Control	0.625	0.002	No	2.777	-0.002	3.0	NoResponse	0	0.28	229.151	3	23	Target	Neutral	True
230.071	0.51	Control	0.625	n/a	No	2.777	n/a	n/a	NoResponse	0	n/a	n/a	3	23	Blank	Neutral	True
230.151	0.3	Control	0.625	0.002	No	2.777	-0.002	3.0	NoResponse	0	0.28	n/a	3	23	ButtonPress	Neutral	True
230.571	1.45	Control	0.625	n/a	No	2.777	n/a	5.0	NoResponse	0	0.04	229.611	3	23	Feedback	Neutral	True
232.021	2.777	Control	0.625	n/a	No	2.777	n/a	n/a	NoResponse	0	0.0	n/a	3	23	ISIslide	Neutral	True
234.82	0.25	Win2	0.6	0.0	No	3.13	0.02	n/a	NoResponse	0	n/a	n/a	3	24	Cue	MissedWin	True
235.07	3.95	Win2	0.6	0.0	No	3.13	0.0	n/a	NoResponse	0	n/a	n/a	3	24	Fixation	MissedWin	True
239.018	0.2	Win2	0.6	0.002	No	3.13	-0.002	3.0	NoResponse	0	0.256	238.274	3	24	Target	MissedWin	True
239.218	0.5	Win2	0.6	n/a	No	3.13	n/a	n/a	NoResponse	0	n/a	n/a	3	24	Blank	MissedWin	True
239.274	0.3	Win2	0.6	0.002	No	3.13	-0.002	3.0	NoResponse	0	0.256	n/a	3	24	ButtonPress	MissedWin	True
239.718	1.45	Win2	0.6	n/a	No	3.13	n/a	5.0	NoResponse	0	0.015	238.733	3	24	Feedback	MissedWin	True
241.167	3.13	Win2	0.6	n/a	No	3.13	n/a	n/a	NoResponse	0	0.0	n/a	3	24	ISIslide	MissedWin	True
244.316	0.25	Win2	0.5769	0.0	No	3.084	0.016	n/a	NoResponse	0	n/a	n/a	3	25	Cue	MissedWin	True
244.566	4.0	Win2	0.5769	0.0	No	3.084	0.0	n/a	NoResponse	0	n/a	n/a	3	25	Fixation	MissedWin	True
248.565	0.21	Win2	0.5769	0.001	No	3.084	-0.001	3.0	NoResponse	0	0.224	247.789	3	25	Target	MissedWin	True
248.781	0.49	Win2	0.5769	n/a	No	3.084	n/a	n/a	NoResponse	0	n/a	n/a	3	25	Blank	MissedWin	True
248.789	0.3	Win2	0.5769	0.001	No	3.084	-0.001	3.0	NoResponse	0	0.224	n/a	3	25	ButtonPress	MissedWin	True
249.265	1.45	Win2	0.5769	n/a	No	3.084	n/a	5.0	NoResponse	0	0.029	248.294	3	25	Feedback	MissedWin	True
250.714	3.084	Win2	0.5769	n/a	No	3.084	n/a	n/a	NoResponse	0	0.0	n/a	3	25	ISIslide	MissedWin	True
253.813	0.25	Win2	0.5556	0.0	No	2.937	0.013	n/a	NoResponse	0	n/a	n/a	3	26	Cue	MissedWin	True
254.063	3.95	Win2	0.5556	0.0	No	2.937	0.0	n/a	NoResponse	0	n/a	n/a	3	26	Fixation	MissedWin	True
258.012	0.22	Win2	0.5556	0.001	No	2.937	-0.001	3.0	NoResponse	0	0.268	257.28	3	26	Target	MissedWin	True
258.245	0.48	Win2	0.5556	n/a	No	2.937	n/a	n/a	NoResponse	0	n/a	n/a	3	26	Blank	MissedWin	True
258.28	0.3	Win2	0.5556	0.001	No	2.937	-0.001	3.0	NoResponse	0	0.268	n/a	3	26	ButtonPress	MissedWin	True
258.711	1.45	Win2	0.5556	n/a	No	2.937	n/a	5.0	NoResponse	0	0.046	257.757	3	26	Feedback	MissedWin	True
260.161	2.937	Win2	0.5556	n/a	No	2.937	n/a	n/a	NoResponse	0	0.0	n/a	3	26	ISIslide	MissedWin	True
263.127	0.25	Lose2	0.5357	0.0	No	2.823	0.027	n/a	NoResponse	-1	n/a	n/a	2	27	Cue	Loss	True
263.376	4.05	Lose2	0.5357	0.001	No	2.823	-0.001	n/a	NoResponse	-1	n/a	n/a	2	27	Fixation	Loss	True
267.425	0.23	Lose2	0.5357	0.002	No	2.823	-0.002	3.0	NoResponse	-1	0.242	266.667	2	27	Target	Loss	True
267.658	0.47	Lose2	0.5357	n/a	No	2.823	n/a	n/a	NoResponse	-1	n/a	n/a	2	27	Blank	Loss	True
267.667	0.3	Lose2	0.5357	0.002	No	2.823	-0.002	3.0	NoResponse	-1	0.242	n/a	2	27	ButtonPress	Loss	True
268.125	1.45	Lose2	0.5357	n/a	No	2.823	n/a	5.0	NoResponse	-1	0.047	267.172	2	27	Feedback	Loss	True
269.574	2.823	Lose2	0.5357	n/a	No	2.823	n/a	n/a	NoResponse	-1	0.0	n/a	2	27	ISIslide	Loss	True
272.423	0.25	Control	0.5517	0.001	Yes	2.827	0.023	n/a	GoodResponse	0	n/a	n/a	2	28	Cue	Neutral	True
272.673	4.05	Control	0.5517	0.0	Yes	2.827	0.0	n/a	GoodResponse	0	n/a	n/a	2	28	Fixation	Neutral	True
276.722	0.24	Control	0.5517	0.001	Yes	2.827	-0.001	3.0	GoodResponse	0	0.202	275.924	2	28	Target	Neutral	True
276.924	0.3	Control	0.5517	0.001	Yes	2.827	-0.001	3.0	GoodResponse	0	0.202	n/a	2	28	ButtonPress	Neutral	True
276.972	0.46	Control	0.5517	n/a	Yes	2.827	n/a	n/a	GoodResponse	0	n/a	n/a	2	28	Blank	Neutral	True
277.422	1.45	Control	0.5517	n/a	Yes	2.827	n/a	5.0	GoodResponse	0	0.019	276.441	2	28	Feedback	Neutral	True
278.871	2.827	Control	0.5517	n/a	Yes	2.827	n/a	n/a	GoodResponse	0	0.0	n/a	2	28	ISIslide	Neutral	True
281.72	0.25	Lose2	0.5667	0.0	Yes	2.83	0.02	n/a	GoodResponse	0	n/a	n/a	2	29	Cue	AvoidedLoss	True
281.97	3.95	Lose2	0.5667	0.0	Yes	2.83	0.0	n/a	GoodResponse	0	n/a	n/a	2	29	Fixation	AvoidedLoss	True
285.919	0.25	Lose2	0.5667	0.001	Yes	2.83	-0.001	3.0	GoodResponse	0	0.218	285.137	2	29	Target	AvoidedLoss	True
286.137	0.3	Lose2	0.5667	0.001	Yes	2.83	-0.001	3.0	GoodResponse	0	0.218	n/a	2	29	ButtonPress	AvoidedLoss	True
286.169	0.45	Lose2	0.5667	n/a	Yes	2.83	n/a	n/a	GoodResponse	0	n/a	n/a	2	29	Blank	AvoidedLoss	True
286.619	1.45	Lose2	0.5667	n/a	Yes	2.83	n/a	5.0	GoodResponse	0	0.041	285.66	2	29	Feedback	AvoidedLoss	True
288.068	2.83	Lose2	0.5667	n/a	Yes	2.83	n/a	n/a	GoodResponse	0	0.0	n/a	2	29	ISIslide	AvoidedLoss	True
290.917	0.25	Win2	0.5806	0.0	Yes	2.783	0.017	n/a	GoodResponse	1	n/a	n/a	3	30	Cue	Win	True
291.167	3.9	Win2	0.5806	0.0	Yes	2.783	0.0	n/a	GoodResponse	1	n/a	n/a	3	30	Fixation	Win	True
295.066	0.26	Win2	0.5806	0.001	Yes	2.783	-0.001	3.0	GoodResponse	1	0.217	294.283	3	30	Target	Win	True
295.283	0.3	Win2	0.5806	0.001	Yes	2.783	-0.001	3.0	GoodResponse	1	0.217	n/a	3	30	ButtonPress	Win	True
295.332	0.44	Win2	0.5806	n/a	Yes	2.783	n/a	n/a	GoodResponse	1	n/a	n/a	3	30	Blank	Win	True
295.765	1.45	Win2	0.5806	n/a	Yes	2.783	n/a	5.0	GoodResponse	1	0.017	294.782	3	30	Feedback	Win	True
297.215	2.783	Win2	0.5806	n/a	Yes	2.783	n/a	n/a	GoodResponse	1	0.0	n/a	3	30	ISIslide	Win	True
300.014	0.25	Lose2	0.5625	0.0	No	2.836	0.014	n/a	LatePress	-1	n/a	n/a	2	31	Cue	Loss	True
300.264	4.05	Lose2	0.5625	0.0	No	2.836	0.0	n/a	LatePress	-1	n/a	n/a	2	31	Fixation	Loss	True
304.312	0.27	Lose2	0.5625	0.002	No	2.836	-0.002	3.0	LatePress	-1	0.275	303.587	2	31	Target	Loss	True
304.587	0.3	Lose2	0.5625	0.002	No	2.836	-0.002	3.0	LatePress	-1	0.275	n/a	2	31	ButtonPress	Loss	True
304.596	0.43	Lose2	0.5625	n/a	No	2.836	n/a	n/a	LatePress	-1	n/a	n/a	2	31	Blank	Loss	True
305.012	1.45	Lose2	0.5625	n/a	No	2.836	n/a	5.0	LatePress	-1	0.039	304.051	2	31	Feedback	Loss	True
306.462	2.836	Lose2	0.5625	n/a	No	2.836	n/a	n/a	LatePress	-1	0.0	n/a	2	31	ISIslide	Loss	True
309.327	0.25	Lose2	0.5758	0.001	Yes	2.623	0.027	n/a	GoodResponse	0	n/a	n/a	2	32	Cue	AvoidedLoss	True
309.577	4.15	Lose2	0.5758	0.0	Yes	2.623	0.0	n/a	GoodResponse	0	n/a	n/a	2	32	Fixation	AvoidedLoss	True
313.726	0.28	Lose2	0.5758	0.001	Yes	2.623	-0.001	3.0	GoodResponse	0	0.265	312.991	2	32	Target	AvoidedLoss	True
313.991	0.3	Lose2	0.5758	0.001	Yes	2.623	-0.001	3.0	GoodResponse	0	0.265	n/a	2	32	ButtonPress	AvoidedLoss	True
314.009	0.42	Lose2	0.5758	n/a	Yes	2.623	n/a	n/a	GoodResponse	0	n/a	n/a	2	32	Blank	AvoidedLoss	True
314.426	1.45	Lose2	0.5758	n/a	Yes	2.623	n/a	5.0	GoodResponse	0	0.038	313.464	2	32	Feedback	AvoidedLoss	True
315.875	2.623	Lose2	0.5758	n/a	Yes	2.623	n/a	n/a	GoodResponse	0	0.0	n/a	2	32	ISIslide	AvoidedLoss	True
318.524	0.25	Win2	0.5882000000000001	0.0	Yes	2.676	0.024	n/a	GoodResponse	1	n/a	n/a	3	33	Cue	Win	True
318.774	4.0	Win2	0.5882000000000001	0.0	Yes	2.676	0.0	n/a	GoodResponse	1	n/a	n/a	3	33	Fixation	Win	True
322.773	0.29	Win2	0.5882000000000001	0.001	Yes	2.676	-0.001	3.0	GoodResponse	1	0.256	322.029	3	33	Target	Win	True
323.029	0.3	Win2	0.5882000000000001	0.001	Yes	2.676	-0.001	3.0	GoodResponse	1	0.256	n/a	3	33	ButtonPress	Win	True
323.073	0.41	Win2	0.5882000000000001	n/a	Yes	2.676	n/a	n/a	GoodResponse	1	n/a	n/a	3	33	Blank	Win	True
323.473	1.45	Win2	0.5882000000000001	n/a	Yes	2.676	n/a	5.0	GoodResponse	1	0.016	322.489	3	33	Feedback	Win	True
324.922	2.676	Win2	0.5882000000000001	n/a	Yes	2.676	n/a	n/a	GoodResponse	1	0.0	n/a	3	33	ISIslide	Win	True
327.621	0.25	Lose2	0.6	0.0	Yes	2.629	0.021	n/a	GoodResponse	0	n/a	n/a	3	34	Cue	AvoidedLoss	True
327.871	4.05	Lose2	0.6	0.0	Yes	2.629	0.0	n/a	GoodResponse	0	n/a	n/a	3	34	Fixation	AvoidedLoss	True
331.92	0.3	Lose2	0.6	0.001	Yes	2.629	-0.001	3.0	GoodResponse	0	0.25	331.17	3	34	Target	AvoidedLoss	True
332.17	0.3	Lose2	0.6	0.001	Yes	2.629	-0.001	3.0	GoodResponse	0	0.25	n/a	3	34	ButtonPress	AvoidedLoss	True
332.22	0.4	Lose2	0.6	n/a	Yes	2.629	n/a	n/a	GoodResponse	0	n/a	n/a	3	34	Blank	AvoidedLoss	True
332.619	1.45	Lose2	0.6	n/a	Yes	2.629	n/a	5.0	GoodResponse	0	0.041	331.66	3	34	Feedback	AvoidedLoss	True
334.069	2.629	Lose2	0.6	n/a	Yes	2.629	n/a	n/a	GoodResponse	0	0.0	n/a	3	34	ISIslide	AvoidedLoss	True
336.718	0.25	Lose2	0.6111	0.0	Yes	2.682	0.018	n/a	GoodResponse	0	n/a	n/a	3	35	Cue	AvoidedLoss	True
336.968	4.0	Lose2	0.6111	0.0	Yes	2.682	0.0	n/a	GoodResponse	0	n/a	n/a	3	35	Fixation	AvoidedLoss	True
340.967	0.31	Lose2	0.6111	0.001	Yes	2.682	-0.001	3.0	GoodResponse	0	0.253	340.22	3	35	Target	AvoidedLoss	True
341.22	0.3	Lose2	0.6111	0.001	Yes	2.682	-0.001	3.0	GoodResponse	0	0.253	n/a	3	35	ButtonPress	AvoidedLoss	True
341.283	0.39	Lose2	0.6111	n/a	Yes	2.682	n/a	n/a	GoodResponse	0	n/a	n/a	3	35	Blank	AvoidedLoss	True
341.666	1.45	Lose2	0.6111	n/a	Yes	2.682	n/a	5.0	GoodResponse	0	0.018	340.684	3	35	Feedback	AvoidedLoss	True
343.116	2.682	Lose2	0.6111	n/a	Yes	2.682	n/a	n/a	GoodResponse	0	0.0	n/a	3	35	ISIslide	AvoidedLoss	True
345.815	0.25	Control	0.6215999999999999	0.0	Yes	2.685	0.015	n/a	GoodResponse	0	n/a	n/a	3	36	Cue	Neutral	True
346.065	4.0	Control	0.6215999999999999	0.0	Yes	2.685	0.0	n/a	GoodResponse	0	n/a	n/a	3	36	Fixation	Neutral	True
350.063	0.32	Control	0.6215999999999999	0.002	Yes	2.685	-0.002	3.0	GoodResponse	0	0.257	349.32	3	36	Target	Neutral	True
350.32	0.3	Control	0.6215999999999999	0.002	Yes	2.685	-0.002	3.0	GoodResponse	0	0.257	n/a	3	36	ButtonPress	Neutral	True
350.397	0.38	Control	0.6215999999999999	n/a	Yes	2.685	n/a	n/a	GoodResponse	0	n/a	n/a	3	36	Blank	Neutral	True
350.763	1.45	Control	0.6215999999999999	n/a	Yes	2.685	n/a	5.0	GoodResponse	0	0.043	349.806	3	36	Feedback	Neutral	True
352.213	2.685	Control	0.6215999999999999	n/a	Yes	2.685	n/a	n/a	GoodResponse	0	0.0	n/a	3	36	ISIslide	Neutral	True
354.928	0.25	Win2	0.6315999999999999	0.001	Yes	2.872	0.028	n/a	GoodResponse	1	n/a	n/a	4	37	Cue	Win	True
355.178	4.0	Win2	0.6315999999999999	0.0	Yes	2.872	0.0	n/a	GoodResponse	1	n/a	n/a	4	37	Fixation	Win	True
359.177	0.33	Win2	0.6315999999999999	0.001	Yes	2.872	-0.001	3.0	GoodResponse	1	0.22	358.397	4	37	Target	Win	True
359.397	0.3	Win2	0.6315999999999999	0.001	Yes	2.872	-0.001	3.0	GoodResponse	1	0.22	n/a	4	37	ButtonPress	Win	True
359.51	0.37	Win2	0.6315999999999999	n/a	Yes	2.872	n/a	n/a	GoodResponse	1	n/a	n/a	4	37	Blank	Win	True
359.877	1.45	Win2	0.6315999999999999	n/a	Yes	2.872	n/a	5.0	GoodResponse	1	0.007	358.884	4	37	Feedback	Win	True
361.326	2.872	Win2	0.6315999999999999	n/a	Yes	2.872	n/a	n/a	GoodResponse	1	0.0	n/a	4	37	ISIslide	Win	True
364.225	0.25	Lose2	0.6409999999999999	0.0	Yes	2.825	0.025	n/a	GoodResponse	0	n/a	n/a	4	38	Cue	AvoidedLoss	True
364.475	3.95	Lose2	0.6409999999999999	0.0	Yes	2.825	0.0	n/a	GoodResponse	0	n/a	n/a	4	38	Fixation	AvoidedLoss	True
368.424	0.34	Lose2	0.6409999999999999	0.001	Yes	2.825	-0.001	3.0	GoodResponse	0	0.271	367.695	4	38	Target	AvoidedLoss	True
368.695	0.3	Lose2	0.6409999999999999	0.001	Yes	2.825	-0.001	3.0	GoodResponse	0	0.271	n/a	4	38	ButtonPress	AvoidedLoss	True
368.774	0.36	Lose2	0.6409999999999999	n/a	Yes	2.825	n/a	n/a	GoodResponse	0	n/a	n/a	4	38	Blank	AvoidedLoss	True
369.124	1.45	Lose2	0.6409999999999999	n/a	Yes	2.825	n/a	5.0	GoodResponse	0	0.024	368.148	4	38	Feedback	AvoidedLoss	True
370.573	2.825	Lose2	0.6409999999999999	n/a	Yes	2.825	n/a	n/a	GoodResponse	0	0.0	n/a	4	38	ISIslide	AvoidedLoss	True
373.422	0.25	Win2	0.65	0.0	Yes	2.978	0.022	n/a	GoodResponse	1	n/a	n/a	5	39	Cue	Win	True
373.672	4.1	Win2	0.65	0.0	Yes	2.978	0.0	n/a	GoodResponse	1	n/a	n/a	5	39	Fixation	Win	True
377.771	0.35	Win2	0.65	0.001	Yes	2.978	-0.001	3.0	GoodResponse	1	0.241	377.012	5	39	Target	Win	True
378.012	0.3	Win2	0.65	0.001	Yes	2.978	-0.001	3.0	GoodResponse	1	0.241	n/a	5	39	ButtonPress	Win	True
378.121	0.35	Win2	0.65	n/a	Yes	2.978	n/a	n/a	GoodResponse	1	n/a	n/a	5	39	Blank	Win	True
378.47	1.45	Win2	0.65	n/a	Yes	2.978	n/a	5.0	GoodResponse	1	0.044	377.514	5	39	Feedback	Win	True
379.92	2.978	Win2	0.65	n/a	Yes	2.978	n/a	n/a	GoodResponse	1	0.0	n/a	5	39	ISIslide	Win	True
382.919	0.25	Win2	0.6585	0.0	Yes	2.731	0.019	n/a	GoodResponse	1	n/a	n/a	6	40	Cue	Win	True
383.169	3.95	Win2	0.6585	0.0	Yes	2.731	0.0	n/a	GoodResponse	1	n/a	n/a	6	40	Fixation	Win	True
387.117	0.36	Win2	0.6585	0.002	Yes	2.731	-0.002	3.0	GoodResponse	1	0.301	386.418	6	40	Target	Win	True
387.418	0.3	Win2	0.6585	0.002	Yes	2.731	-0.002	3.0	GoodResponse	1	0.301	n/a	6	40	ButtonPress	Win	True
387.484	0.34	Win2	0.6585	n/a	Yes	2.731	n/a	n/a	GoodResponse	1	n/a	n/a	6	40	Blank	Win	True
387.817	1.45	Win2	0.6585	n/a	Yes	2.731	n/a	5.0	GoodResponse	1	0.013	386.83	6	40	Feedback	Win	True
389.267	2.731	Win2	0.6585	n/a	Yes	2.731	n/a	n/a	GoodResponse	1	0.0	n/a	6	40	ISIslide	Win	True
392.016	0.25	Win2	0.6667000000000001	0.0	Yes	2.784	0.016	n/a	GoodResponse	1	n/a	n/a	7	41	Cue	Win	True
392.266	3.9	Win2	0.6667000000000001	0.0	Yes	2.784	0.0	n/a	GoodResponse	1	n/a	n/a	7	41	Fixation	Win	True
396.164	0.36	Win2	0.6667000000000001	0.002	Yes	2.784	-0.002	3.0	GoodResponse	1	0.298	395.462	7	41	Target	Win	True
396.462	0.3	Win2	0.6667000000000001	0.002	Yes	2.784	-0.002	3.0	GoodResponse	1	0.298	n/a	7	41	ButtonPress	Win	True
396.531	0.34	Win2	0.6667000000000001	n/a	Yes	2.784	n/a	n/a	GoodResponse	1	n/a	n/a	7	41	Blank	Win	True
396.864	1.45	Win2	0.6667000000000001	n/a	Yes	2.784	n/a	5.0	GoodResponse	1	0.039	395.903	7	41	Feedback	Win	True
398.314	2.784	Win2	0.6667000000000001	n/a	Yes	2.784	n/a	n/a	GoodResponse	1	0.0	n/a	7	41	ISIslide	Win	True
401.113	0.25	Control	0.6744	0.0	Yes	2.937	0.013	n/a	GoodResponse	0	n/a	n/a	7	42	Cue	Neutral	True
401.363	3.85	Control	0.6744	0.0	Yes	2.937	0.0	n/a	GoodResponse	0	n/a	n/a	7	42	Fixation	Neutral	True
405.211	0.35	Control	0.6744	0.002	Yes	2.937	-0.002	3.0	GoodResponse	0	0.275	404.486	7	42	Target	Neutral	True
405.486	0.3	Control	0.6744	0.002	Yes	2.937	-0.002	3.0	GoodResponse	0	0.275	n/a	7	42	ButtonPress	Neutral	True
405.561	0.35	Control	0.6744	n/a	Yes	2.937	n/a	n/a	GoodResponse	0	n/a	n/a	7	42	Blank	Neutral	True
405.911	1.45	Control	0.6744	n/a	Yes	2.937	n/a	5.0	GoodResponse	0	0.017	404.928	7	42	Feedback	Neutral	True
407.361	2.937	Control	0.6744	n/a	Yes	2.937	n/a	n/a	GoodResponse	0	0.0	n/a	7	42	ISIslide	Neutral	True
410.326	0.25	Win2	0.6818000000000001	0.0	Yes	3.174	0.026	n/a	GoodResponse	1	n/a	n/a	8	43	Cue	Win	True
410.576	4.0	Win2	0.6818000000000001	0.0	Yes	3.174	0.0	n/a	GoodResponse	1	n/a	n/a	8	43	Fixation	Win	True
414.575	0.34	Win2	0.6818000000000001	0.001	Yes	3.174	-0.001	3.0	GoodResponse	1	0.272	413.847	8	43	Target	Win	True
414.847	0.3	Win2	0.6818000000000001	0.001	Yes	3.174	-0.001	3.0	GoodResponse	1	0.272	n/a	8	43	ButtonPress	Win	True
414.925	0.36	Win2	0.6818000000000001	n/a	Yes	3.174	n/a	n/a	GoodResponse	1	n/a	n/a	8	43	Blank	Win	True
415.274	1.45	Win2	0.6818000000000001	n/a	Yes	3.174	n/a	5.0	GoodResponse	1	0.02	414.294	8	43	Feedback	Win	True
416.724	3.174	Win2	0.6818000000000001	n/a	Yes	3.174	n/a	n/a	GoodResponse	1	0.0	n/a	8	43	ISIslide	Win	True
419.923	0.25	Win2	0.6667000000000001	0.0	No	2.977	0.023	n/a	NoResponse	0	n/a	n/a	8	44	Cue	MissedWin	True
420.173	4.0	Win2	0.6667000000000001	0.0	No	2.977	0.0	n/a	NoResponse	0	n/a	n/a	8	44	Fixation	MissedWin	True
424.171	0.33	Win2	0.6667000000000001	0.002	No	2.977	-0.002	3.0	NoResponse	0	0.341	423.512	8	44	Target	MissedWin	True
424.505	0.37	Win2	0.6667000000000001	n/a	No	2.977	n/a	n/a	NoResponse	0	n/a	n/a	8	44	Blank	MissedWin	True
424.512	0.3	Win2	0.6667000000000001	0.002	No	2.977	-0.002	3.0	NoResponse	0	0.341	n/a	8	44	ButtonPress	MissedWin	True
424.871	1.45	Win2	0.6667000000000001	n/a	No	2.977	n/a	5.0	NoResponse	0	0.033	423.904	8	44	Feedback	MissedWin	True
426.321	2.977	Win2	0.6667000000000001	n/a	No	2.977	n/a	n/a	NoResponse	0	0.0	n/a	8	44	ISIslide	MissedWin	True
429.32	0.25	Control	0.6739	0.0	Yes	2.88	0.02	n/a	GoodResponse	0	n/a	n/a	8	45	Cue	Neutral	True
429.57	4.1	Control	0.6739	0.0	Yes	2.88	0.0	n/a	GoodResponse	0	n/a	n/a	8	45	Fixation	Neutral	True
433.668	0.32	Control	0.6739	0.002	Yes	2.88	-0.002	3.0	GoodResponse	0	0.273	432.941	8	45	Target	Neutral	True
433.941	0.3	Control	0.6739	0.002	Yes	2.88	-0.002	3.0	GoodResponse	0	0.273	n/a	8	45	ButtonPress	Neutral	True
434.001	0.38	Control	0.6739	n/a	Yes	2.88	n/a	n/a	GoodResponse	0	n/a	n/a	8	45	Blank	Neutral	True
434.368	1.45	Control	0.6739	n/a	Yes	2.88	n/a	5.0	GoodResponse	0	0.048	433.416	8	45	Feedback	Neutral	True
435.817	2.88	Control	0.6739	n/a	Yes	2.88	n/a	n/a	GoodResponse	0	0.0	n/a	8	45	ISIslide	Neutral	True
438.716	0.25	Lose2	0.6596	0.001	No	3.384	0.016	n/a	NoResponse	-1	n/a	n/a	7	46	Cue	Loss	True
438.966	4.0	Lose2	0.6596	0.0	No	3.384	0.0	n/a	NoResponse	-1	n/a	n/a	7	46	Fixation	Loss	True
442.965	0.31	Lose2	0.6596	0.001	No	3.384	-0.001	3.0	NoResponse	-1	0.329	442.294	7	46	Target	Loss	True
443.282	0.39	Lose2	0.6596	n/a	No	3.384	n/a	n/a	NoResponse	-1	n/a	n/a	7	46	Blank	Loss	True
443.294	0.3	Lose2	0.6596	0.001	No	3.384	-0.001	3.0	NoResponse	-1	0.329	n/a	7	46	ButtonPress	Loss	True
443.665	1.45	Lose2	0.6596	n/a	No	3.384	n/a	5.0	NoResponse	-1	0.019	442.684	7	46	Feedback	Loss	True
445.114	3.384	Lose2	0.6596	n/a	No	3.384	n/a	n/a	NoResponse	-1	0.0	n/a	7	46	ISIslide	Loss	True
448.53	0.25	Lose2	0.6667000000000001	0.0	Yes	2.67	0.03	n/a	GoodResponse	0	n/a	n/a	7	47	Cue	AvoidedLoss	True
448.78	4.0	Lose2	0.6667000000000001	0.0	Yes	2.67	0.0	n/a	GoodResponse	0	n/a	n/a	7	47	Fixation	AvoidedLoss	True
452.778	0.31	Lose2	0.6667000000000001	0.002	Yes	2.67	-0.002	3.0	GoodResponse	0	0.288	452.066	7	47	Target	AvoidedLoss	True
453.066	0.3	Lose2	0.6667000000000001	0.002	Yes	2.67	-0.002	3.0	GoodResponse	0	0.288	n/a	7	47	ButtonPress	AvoidedLoss	True
453.095	0.39	Lose2	0.6667000000000001	n/a	Yes	2.67	n/a	n/a	GoodResponse	0	n/a	n/a	7	47	Blank	AvoidedLoss	True
453.478	1.45	Lose2	0.6667000000000001	n/a	Yes	2.67	n/a	5.0	GoodResponse	0	0.011	452.489	7	47	Feedback	AvoidedLoss	True
454.928	2.67	Lose2	0.6667000000000001	n/a	Yes	2.67	n/a	n/a	GoodResponse	0	0.0	n/a	7	47	ISIslide	AvoidedLoss	True
457.627	0.25	Lose2	0.6735	0.0	Yes	3.023	0.027	n/a	GoodResponse	0	n/a	n/a	7	48	Cue	AvoidedLoss	True
457.877	3.95	Lose2	0.6735	0.0	Yes	3.023	0.0	n/a	GoodResponse	0	n/a	n/a	7	48	Fixation	AvoidedLoss	True
461.825	0.3	Lose2	0.6735	0.002	Yes	3.023	-0.002	3.0	GoodResponse	0	0.206	461.031	7	48	Target	AvoidedLoss	True
462.031	0.3	Lose2	0.6735	0.002	Yes	3.023	-0.002	3.0	GoodResponse	0	0.206	n/a	7	48	ButtonPress	AvoidedLoss	True
462.125	0.4	Lose2	0.6735	n/a	Yes	3.023	n/a	n/a	GoodResponse	0	n/a	n/a	7	48	Blank	AvoidedLoss	True
462.525	1.45	Lose2	0.6735	n/a	Yes	3.023	n/a	5.0	GoodResponse	0	0.037	461.562	7	48	Feedback	AvoidedLoss	True
463.974	3.023	Lose2	0.6735	n/a	Yes	3.023	n/a	n/a	GoodResponse	0	0.0	n/a	7	48	ISIslide	AvoidedLoss	True
467.023	0.25	Control	0.68	0.001	Yes	2.877	0.023	n/a	GoodResponse	0	n/a	n/a	7	49	Cue	Neutral	True
467.273	4.0	Control	0.68	0.0	Yes	2.877	0.0	n/a	GoodResponse	0	n/a	n/a	7	49	Fixation	Neutral	True
471.272	0.29	Control	0.68	0.001	Yes	2.877	-0.001	3.0	GoodResponse	0	0.258	470.53	7	49	Target	Neutral	True
471.53	0.3	Control	0.68	0.001	Yes	2.877	-0.001	3.0	GoodResponse	0	0.258	n/a	7	49	ButtonPress	Neutral	True
471.572	0.41	Control	0.68	n/a	Yes	2.877	n/a	n/a	GoodResponse	0	n/a	n/a	7	49	Blank	Neutral	True
471.972	1.45	Control	0.68	n/a	Yes	2.877	n/a	5.0	GoodResponse	0	0.007	470.979	7	49	Feedback	Neutral	True
473.421	2.877	Control	0.68	n/a	Yes	2.877	n/a	n/a	GoodResponse	0	0.0	n/a	7	49	ISIslide	Neutral	True
476.32	0.25	Control	0.6667000000000001	0.0	No	2.78	0.02	n/a	NoResponse	0	n/a	n/a	7	50	Cue	Neutral	True
476.57	4.0	Control	0.6667000000000001	0.0	No	2.78	0.0	n/a	NoResponse	0	n/a	n/a	7	50	Fixation	Neutral	True
480.569	0.28	Control	0.6667000000000001	0.001	No	2.78	-0.001	3.0	NoResponse	0	0.541	480.11	7	50	Target	Neutral	True
480.852	0.42	Control	0.6667000000000001	n/a	No	2.78	n/a	n/a	NoResponse	0	n/a	n/a	7	50	Blank	Neutral	True
481.11	0.3	Control	0.6667000000000001	0.001	No	2.78	-0.001	3.0	NoResponse	0	0.541	n/a	7	50	ButtonPress	Neutral	True
481.269	1.45	Control	0.6667000000000001	n/a	No	2.78	n/a	5.0	NoResponse	0	0.025	480.294	7	50	Feedback	Neutral	True
482.718	2.78	Control	0.6667000000000001	n/a	No	2.78	n/a	n/a	NoResponse	0	0.0	n/a	7	50	ISIslide	Neutral	True
485.517	0.25	Control	0.6731	0.0	Yes	2.733	0.017	n/a	GoodResponse	0	n/a	n/a	7	51	Cue	Neutral	True
485.767	3.95	Control	0.6731	0.0	Yes	2.733	0.0	n/a	GoodResponse	0	n/a	n/a	7	51	Fixation	Neutral	True
489.716	0.27	Control	0.6731	0.001	Yes	2.733	-0.001	3.0	GoodResponse	0	0.246	488.962	7	51	Target	Neutral	True
489.962	0.3	Control	0.6731	0.001	Yes	2.733	-0.001	3.0	GoodResponse	0	0.246	n/a	7	51	ButtonPress	Neutral	True
489.999	0.43	Control	0.6731	n/a	Yes	2.733	n/a	n/a	GoodResponse	0	n/a	n/a	7	51	Blank	Neutral	True
490.415	1.45	Control	0.6731	n/a	Yes	2.733	n/a	5.0	GoodResponse	0	0.001	489.416	7	51	Feedback	Neutral	True
491.865	2.733	Control	0.6731	n/a	Yes	2.733	n/a	n/a	GoodResponse	0	0.0	n/a	7	51	ISIslide	Neutral	True
494.631	0.25	Control	0.6792	0.0	Yes	2.619	0.031	n/a	GoodResponse	0	n/a	n/a	7	52	Cue	Neutral	True
494.881	4.05	Control	0.6792	0.0	Yes	2.619	0.0	n/a	GoodResponse	0	n/a	n/a	7	52	Fixation	Neutral	True
498.929	0.26	Control	0.6792	0.002	Yes	2.619	-0.002	3.0	GoodResponse	0	0.232	498.161	7	52	Target	Neutral	True
499.161	0.3	Control	0.6792	0.002	Yes	2.619	-0.002	3.0	GoodResponse	0	0.232	n/a	7	52	ButtonPress	Neutral	True
499.196	0.44	Control	0.6792	n/a	Yes	2.619	n/a	n/a	GoodResponse	0	n/a	n/a	7	52	Blank	Neutral	True
499.629	1.45	Control	0.6792	n/a	Yes	2.619	n/a	5.0	GoodResponse	0	0.008	498.637	7	52	Feedback	Neutral	True
501.078	2.619	Control	0.6792	n/a	Yes	2.619	n/a	n/a	GoodResponse	0	0.0	n/a	7	52	ISIslide	Neutral	True
503.728	0.25	Win2	0.6851999999999999	0.0	Yes	2.922	0.028	n/a	GoodResponse	1	n/a	n/a	8	53	Cue	Win	True
503.977	4.05	Win2	0.6851999999999999	0.001	Yes	2.922	-0.001	n/a	GoodResponse	1	n/a	n/a	8	53	Fixation	Win	True
508.026	0.25	Win2	0.6851999999999999	0.002	Yes	2.922	-0.002	3.0	GoodResponse	1	0.247	507.273	8	53	Target	Win	True
508.273	0.3	Win2	0.6851999999999999	0.002	Yes	2.922	-0.002	3.0	GoodResponse	1	0.247	n/a	8	53	ButtonPress	Win	True
508.276	0.45	Win2	0.6851999999999999	n/a	Yes	2.922	n/a	n/a	GoodResponse	1	n/a	n/a	8	53	Blank	Win	True
508.726	1.45	Win2	0.6851999999999999	n/a	Yes	2.922	n/a	5.0	GoodResponse	1	0.031	507.757	8	53	Feedback	Win	True
510.175	2.922	Win2	0.6851999999999999	n/a	Yes	2.922	n/a	n/a	GoodResponse	1	0.0	n/a	8	53	ISIslide	Win	True
513.124	0.25	Win2	0.6727	0.0	No	2.726	0.024	n/a	NoResponse	0	n/a	n/a	8	54	Cue	MissedWin	True
513.374	3.95	Win2	0.6727	0.0	No	2.726	0.0	n/a	NoResponse	0	n/a	n/a	8	54	Fixation	MissedWin	True
517.323	0.24	Win2	0.6727	0.001	No	2.726	-0.001	3.0	NoResponse	0	0.277	516.6	8	54	Target	MissedWin	True
517.573	0.46	Win2	0.6727	n/a	No	2.726	n/a	n/a	NoResponse	0	n/a	n/a	8	54	Blank	MissedWin	True
517.6	0.3	Win2	0.6727	0.001	No	2.726	-0.001	3.0	NoResponse	0	0.277	n/a	8	54	ButtonPress	MissedWin	True
518.023	1.45	Win2	0.6727	n/a	No	2.726	n/a	5.0	NoResponse	0	0.006	517.029	8	54	Feedback	MissedWin	True
519.472	2.726	Win2	0.6727	n/a	No	2.726	n/a	n/a	NoResponse	0	0.0	n/a	8	54	ISIslide	MissedWin	True
522.221	0.25	Control	0.6607	0.0	No	3.029	0.021	n/a	NoResponse	0	n/a	n/a	8	55	Cue	Neutral	True
522.471	3.95	Control	0.6607	0.0	No	3.029	0.0	n/a	NoResponse	0	n/a	n/a	8	55	Fixation	Neutral	True
526.42	0.23	Control	0.6607	0.001	No	3.029	-0.001	3.0	NoResponse	0	0.248	525.668	8	55	Target	Neutral	True
526.653	0.47	Control	0.6607	n/a	No	3.029	n/a	n/a	NoResponse	0	n/a	n/a	8	55	Blank	Neutral	True
526.668	0.3	Control	0.6607	0.001	No	3.029	-0.001	3.0	NoResponse	0	0.248	n/a	8	55	ButtonPress	Neutral	True
527.12	1.45	Control	0.6607	n/a	No	3.029	n/a	5.0	NoResponse	0	0.028	526.148	8	55	Feedback	Neutral	True
528.569	3.029	Control	0.6607	n/a	No	3.029	n/a	n/a	NoResponse	0	0.0	n/a	8	55	ISIslide	Neutral	True
531.618	0.25	Control	0.6491	0.0	No	2.832	0.018	n/a	NoResponse	0	n/a	n/a	8	56	Cue	Neutral	True
531.868	3.95	Control	0.6491	0.0	No	2.832	0.0	n/a	NoResponse	0	n/a	n/a	8	56	Fixation	Neutral	True
535.817	0.23	Control	0.6491	0.001	No	2.832	-0.001	3.0	NoResponse	0	0.258	535.075	8	56	Target	Neutral	True
536.05	0.47	Control	0.6491	n/a	No	2.832	n/a	n/a	NoResponse	0	n/a	n/a	8	56	Blank	Neutral	True
536.075	0.3	Control	0.6491	0.001	No	2.832	-0.001	3.0	NoResponse	0	0.258	n/a	8	56	ButtonPress	Neutral	True
536.516	1.45	Control	0.6491	n/a	No	2.832	n/a	5.0	NoResponse	0	0.046	535.562	8	56	Feedback	Neutral	True
537.966	2.832	Control	0.6491	n/a	No	2.832	n/a	n/a	NoResponse	0	0.0	n/a	8	56	ISIslide	Neutral	True
540.815	0.25	Control	0.6552	0.0	Yes	3.485	0.015	n/a	GoodResponse	0	n/a	n/a	8	57	Cue	Neutral	True
541.065	4.0	Control	0.6552	0.0	Yes	3.485	0.0	n/a	GoodResponse	0	n/a	n/a	8	57	Fixation	Neutral	True
545.063	0.24	Control	0.6552	0.002	Yes	3.485	-0.002	3.0	GoodResponse	0	0.216	544.279	8	57	Target	Neutral	True
545.279	0.3	Control	0.6552	0.002	Yes	3.485	-0.002	3.0	GoodResponse	0	0.216	n/a	8	57	ButtonPress	Neutral	True
545.313	0.46	Control	0.6552	n/a	Yes	3.485	n/a	n/a	GoodResponse	0	n/a	n/a	8	57	Blank	Neutral	True
545.763	1.45	Control	0.6552	n/a	Yes	3.485	n/a	5.0	GoodResponse	0	0.018	544.781	8	57	Feedback	Neutral	True
547.213	3.485	Control	0.6552	n/a	Yes	3.485	n/a	n/a	GoodResponse	0	0.0	n/a	8	57	ISIslide	Neutral	True
550.728	0.25	Win2	0.6609999999999999	0.0	Yes	2.722	0.028	n/a	GoodResponse	1	n/a	n/a	9	58	Cue	Win	True
550.978	4.05	Win2	0.6609999999999999	0.0	Yes	2.722	0.0	n/a	GoodResponse	1	n/a	n/a	9	58	Fixation	Win	True
555.027	0.24	Win2	0.6609999999999999	0.001	Yes	2.722	-0.001	3.0	GoodResponse	1	0.239	554.266	9	58	Target	Win	True
555.266	0.3	Win2	0.6609999999999999	0.001	Yes	2.722	-0.001	3.0	GoodResponse	1	0.239	n/a	9	58	ButtonPress	Win	True
555.277	0.46	Win2	0.6609999999999999	n/a	Yes	2.722	n/a	n/a	GoodResponse	1	n/a	n/a	9	58	Blank	Win	True
555.726	1.45	Win2	0.6609999999999999	n/a	Yes	2.722	n/a	5.0	GoodResponse	1	0.009	554.735	9	58	Feedback	Win	True
557.176	2.722	Win2	0.6609999999999999	n/a	Yes	2.722	n/a	n/a	GoodResponse	1	0.0	n/a	9	58	ISIslide	Win	True
559.925	0.25	Lose2	0.6667000000000001	0.0	Yes	2.675	0.025	n/a	GoodResponse	0	n/a	n/a	9	59	Cue	AvoidedLoss	True
560.175	4.0	Lose2	0.6667000000000001	0.0	Yes	2.675	0.0	n/a	GoodResponse	0	n/a	n/a	9	59	Fixation	AvoidedLoss	True
564.174	0.24	Lose2	0.6667000000000001	0.001	Yes	2.675	-0.001	3.0	GoodResponse	0	0.233	563.407	9	59	Target	AvoidedLoss	True
564.407	0.3	Lose2	0.6667000000000001	0.001	Yes	2.675	-0.001	3.0	GoodResponse	0	0.233	n/a	9	59	ButtonPress	AvoidedLoss	True
564.423	0.46	Lose2	0.6667000000000001	n/a	Yes	2.675	n/a	n/a	GoodResponse	0	n/a	n/a	9	59	Blank	AvoidedLoss	True
564.873	1.45	Lose2	0.6667000000000001	n/a	Yes	2.675	n/a	5.0	GoodResponse	0	0.03	563.903	9	59	Feedback	AvoidedLoss	True
566.323	2.675	Lose2	0.6667000000000001	n/a	Yes	2.675	n/a	n/a	GoodResponse	0	0.0	n/a	9	59	ISIslide	AvoidedLoss	True
569.022	0.25	Control	0.6557	0.0	No	2.678	0.022	n/a	NoResponse	0	n/a	n/a	9	60	Cue	Neutral	True
569.272	4.0	Control	0.6557	0.0	No	2.678	0.0	n/a	NoResponse	0	n/a	n/a	9	60	Fixation	Neutral	True
573.27	0.23	Control	0.6557	0.002	No	2.678	-0.002	3.0	NoResponse	0	0.243	572.513	9	60	Target	Neutral	True
573.504	0.47	Control	0.6557	n/a	No	2.678	n/a	n/a	NoResponse	0	n/a	n/a	9	60	Blank	Neutral	True
573.513	0.3	Control	0.6557	0.002	No	2.678	-0.002	3.0	NoResponse	0	0.243	n/a	9	60	ButtonPress	Neutral	True
573.97	1.45	Control	0.6557	n/a	No	2.678	n/a	5.0	NoResponse	0	0.008	572.978	9	60	Feedback	Neutral	True
575.42	2.678	Control	0.6557	n/a	No	2.678	n/a	n/a	NoResponse	0	0.0	n/a	9	60	ISIslide	Neutral	True
578.119	0.25	Lose2	0.6613	0.0	Yes	2.981	0.019	n/a	GoodResponse	0	n/a	n/a	9	61	Cue	AvoidedLoss	True
578.369	4.0	Lose2	0.6613	0.0	Yes	2.981	0.0	n/a	GoodResponse	0	n/a	n/a	9	61	Fixation	AvoidedLoss	True
582.367	0.23	Lose2	0.6613	0.002	Yes	2.981	-0.002	3.0	GoodResponse	0	0.222	581.589	9	61	Target	AvoidedLoss	True
582.589	0.3	Lose2	0.6613	0.002	Yes	2.981	-0.002	3.0	GoodResponse	0	0.222	n/a	9	61	ButtonPress	AvoidedLoss	True
582.601	0.47	Lose2	0.6613	n/a	Yes	2.981	n/a	n/a	GoodResponse	0	n/a	n/a	9	61	Blank	AvoidedLoss	True
583.067	1.45	Lose2	0.6613	n/a	Yes	2.981	n/a	5.0	GoodResponse	0	0.032	582.099	9	61	Feedback	AvoidedLoss	True
584.517	2.981	Lose2	0.6613	n/a	Yes	2.981	n/a	n/a	GoodResponse	0	0.0	n/a	9	61	ISIslide	AvoidedLoss	True
587.516	0.25	Lose2	0.6507999999999999	0.0	No	2.884	0.016	n/a	NoResponse	-1	n/a	n/a	8	62	Cue	Loss	True
587.765	3.9	Lose2	0.6507999999999999	0.001	No	2.884	-0.001	n/a	NoResponse	-1	n/a	n/a	8	62	Fixation	Loss	True
591.664	0.23	Lose2	0.6507999999999999	0.002	No	2.884	-0.002	3.0	NoResponse	-1	0.258	590.922	8	62	Target	Loss	True
591.897	0.47	Lose2	0.6507999999999999	n/a	No	2.884	n/a	n/a	NoResponse	-1	n/a	n/a	8	62	Blank	Loss	True
591.922	0.3	Lose2	0.6507999999999999	0.002	No	2.884	-0.002	3.0	NoResponse	-1	0.258	n/a	8	62	ButtonPress	Loss	True
592.364	1.45	Lose2	0.6507999999999999	n/a	No	2.884	n/a	5.0	NoResponse	-1	0.008	591.372	8	62	Feedback	Loss	True
593.813	2.884	Lose2	0.6507999999999999	n/a	No	2.884	n/a	n/a	NoResponse	-1	0.0	n/a	8	62	ISIslide	Loss	True
596.729	0.25	Lose2	0.6406000000000001	0.0	No	2.621	0.029	n/a	NoResponse	-1	n/a	n/a	7	63	Cue	Loss	True
596.979	4.05	Lose2	0.6406000000000001	0.0	No	2.621	0.0	n/a	NoResponse	-1	n/a	n/a	7	63	Fixation	Loss	True
601.028	0.24	Lose2	0.6406000000000001	0.001	No	2.621	-0.001	3.0	NoResponse	-1	0.271	600.299	7	63	Target	Loss	True
601.277	0.46	Lose2	0.6406000000000001	n/a	No	2.621	n/a	n/a	NoResponse	-1	n/a	n/a	7	63	Blank	Loss	True
601.299	0.3	Lose2	0.6406000000000001	0.001	No	2.621	-0.001	3.0	NoResponse	-1	0.271	n/a	7	63	ButtonPress	Loss	True
601.727	1.45	Lose2	0.6406000000000001	n/a	No	2.621	n/a	5.0	NoResponse	-1	0.008	600.735	7	63	Feedback	Loss	True
603.177	2.621	Lose2	0.6406000000000001	n/a	No	2.621	n/a	n/a	NoResponse	-1	0.0	n/a	7	63	ISIslide	Loss	True
605.826	0.25	Win2	0.6308	0.0	No	3.124	0.026	n/a	NoResponse	0	n/a	n/a	7	64	Cue	MissedWin	True
606.076	4.15	Win2	0.6308	0.0	No	3.124	0.0	n/a	NoResponse	0	n/a	n/a	7	64	Fixation	MissedWin	True
610.224	0.25	Win2	0.6308	0.002	No	3.124	-0.002	3.0	NoResponse	0	0.263	609.487	7	64	Target	MissedWin	True
610.474	0.45	Win2	0.6308	n/a	No	3.124	n/a	n/a	NoResponse	0	n/a	n/a	7	64	Blank	MissedWin	True
610.487	0.3	Win2	0.6308	0.002	No	3.124	-0.002	3.0	NoResponse	0	0.263	n/a	7	64	ButtonPress	MissedWin	True
610.924	1.45	Win2	0.6308	n/a	No	3.124	n/a	5.0	NoResponse	0	0.028	609.952	7	64	Feedback	MissedWin	True
612.374	3.124	Win2	0.6308	n/a	No	3.124	n/a	n/a	NoResponse	0	0.0	n/a	7	64	ISIslide	MissedWin	True
615.523	0.25	Control	0.6364	0.0	Yes	2.777	0.023	n/a	GoodResponse	0	n/a	n/a	7	65	Cue	Neutral	True
615.773	4.0	Control	0.6364	0.0	Yes	2.777	0.0	n/a	GoodResponse	0	n/a	n/a	7	65	Fixation	Neutral	True
619.771	0.26	Control	0.6364	0.002	Yes	2.777	-0.002	3.0	GoodResponse	0	0.25	619.021	7	65	Target	Neutral	True
620.021	0.3	Control	0.6364	0.002	Yes	2.777	-0.002	3.0	GoodResponse	0	0.25	n/a	7	65	ButtonPress	Neutral	True
620.038	0.44	Control	0.6364	n/a	Yes	2.777	n/a	n/a	GoodResponse	0	n/a	n/a	7	65	Blank	Neutral	True
620.471	1.45	Control	0.6364	n/a	Yes	2.777	n/a	5.0	GoodResponse	0	0.042	619.513	7	65	Feedback	Neutral	True
621.92	2.777	Control	0.6364	n/a	Yes	2.777	n/a	n/a	GoodResponse	0	0.0	n/a	7	65	ISIslide	Neutral	True
624.719	0.25	Win2	0.6418	0.001	Yes	2.781	0.019	n/a	GoodResponse	1	n/a	n/a	8	66	Cue	Win	True
624.969	3.9	Win2	0.6418	0.0	Yes	2.781	0.0	n/a	GoodResponse	1	n/a	n/a	8	66	Fixation	Win	True
628.868	0.27	Win2	0.6418	0.001	Yes	2.781	-0.001	3.0	GoodResponse	1	0.231	628.099	8	66	Target	Win	True
629.099	0.3	Win2	0.6418	0.001	Yes	2.781	-0.001	3.0	GoodResponse	1	0.231	n/a	8	66	ButtonPress	Win	True
629.135	0.43	Win2	0.6418	n/a	Yes	2.781	n/a	n/a	GoodResponse	1	n/a	n/a	8	66	Blank	Win	True
629.568	1.45	Win2	0.6418	n/a	Yes	2.781	n/a	5.0	GoodResponse	1	0.018	628.586	8	66	Feedback	Win	True
631.017	2.781	Win2	0.6418	n/a	Yes	2.781	n/a	n/a	GoodResponse	1	0.0	n/a	8	66	ISIslide	Win	True
633.816	0.25	Control	0.6470999999999999	0.0	Yes	2.734	0.016	n/a	GoodResponse	0	n/a	n/a	8	67	Cue	Neutral	True
634.066	3.95	Control	0.6470999999999999	0.0	Yes	2.734	0.0	n/a	GoodResponse	0	n/a	n/a	8	67	Fixation	Neutral	True
638.015	0.28	Control	0.6470999999999999	0.001	Yes	2.734	-0.001	3.0	GoodResponse	0	0.24	637.255	8	67	Target	Neutral	True
638.255	0.3	Control	0.6470999999999999	0.001	Yes	2.734	-0.001	3.0	GoodResponse	0	0.24	n/a	8	67	ButtonPress	Neutral	True
638.298	0.42	Control	0.6470999999999999	n/a	Yes	2.734	n/a	n/a	GoodResponse	0	n/a	n/a	8	67	Blank	Neutral	True
638.715	1.45	Control	0.6470999999999999	n/a	Yes	2.734	n/a	5.0	GoodResponse	0	0.042	637.757	8	67	Feedback	Neutral	True
640.164	2.734	Control	0.6470999999999999	n/a	Yes	2.734	n/a	n/a	GoodResponse	0	0.0	n/a	8	67	ISIslide	Neutral	True
642.93	0.25	Win2	0.6522	0.0	Yes	3.07	0.03	n/a	GoodResponse	1	n/a	n/a	9	68	Cue	Win	True
643.18	4.0	Win2	0.6522	0.0	Yes	3.07	0.0	n/a	GoodResponse	1	n/a	n/a	9	68	Fixation	Win	True
647.178	0.29	Win2	0.6522	0.002	Yes	3.07	-0.002	3.0	GoodResponse	1	0.236	646.414	9	68	Target	Win	True
647.414	0.3	Win2	0.6522	0.002	Yes	3.07	-0.002	3.0	GoodResponse	1	0.236	n/a	9	68	ButtonPress	Win	True
647.478	0.41	Win2	0.6522	n/a	Yes	3.07	n/a	n/a	GoodResponse	1	n/a	n/a	9	68	Blank	Win	True
647.878	1.45	Win2	0.6522	n/a	Yes	3.07	n/a	5.0	GoodResponse	1	0.001	646.879	9	68	Feedback	Win	True
649.328	3.07	Win2	0.6522	n/a	Yes	3.07	n/a	n/a	GoodResponse	1	0.0	n/a	9	68	ISIslide	Win	True
652.427	0.25	Win2	0.6570999999999999	0.0	Yes	3.223	0.027	n/a	GoodResponse	1	n/a	n/a	10	69	Cue	Win	True
652.677	3.95	Win2	0.6570999999999999	0.0	Yes	3.223	0.0	n/a	GoodResponse	1	n/a	n/a	10	69	Fixation	Win	True
656.625	0.3	Win2	0.6570999999999999	0.002	Yes	3.223	-0.002	3.0	GoodResponse	1	0.255	655.88	10	69	Target	Win	True
656.88	0.3	Win2	0.6570999999999999	0.002	Yes	3.223	-0.002	3.0	GoodResponse	1	0.255	n/a	10	69	ButtonPress	Win	True
656.925	0.4	Win2	0.6570999999999999	n/a	Yes	3.223	n/a	n/a	GoodResponse	1	n/a	n/a	10	69	Blank	Win	True
657.325	1.45	Win2	0.6570999999999999	n/a	Yes	3.223	n/a	5.0	GoodResponse	1	0.018	656.343	10	69	Feedback	Win	True
658.774	3.223	Win2	0.6570999999999999	n/a	Yes	3.223	n/a	n/a	GoodResponse	1	0.0	n/a	10	69	ISIslide	Win	True
662.023	0.25	Lose2	0.6479	0.0	No	3.027	0.023	n/a	NoResponse	-1	n/a	n/a	9	70	Cue	Loss	True
662.273	4.05	Lose2	0.6479	0.0	No	3.027	0.0	n/a	NoResponse	-1	n/a	n/a	9	70	Fixation	Loss	True
666.322	0.3	Lose2	0.6479	0.001	No	3.027	-0.001	3.0	NoResponse	-1	0.31	665.632	9	70	Target	Loss	True
666.622	0.4	Lose2	0.6479	n/a	No	3.027	n/a	n/a	NoResponse	-1	n/a	n/a	9	70	Blank	Loss	True
666.632	0.3	Lose2	0.6479	0.001	No	3.027	-0.001	3.0	NoResponse	-1	0.31	n/a	9	70	ButtonPress	Loss	True
667.022	1.45	Lose2	0.6479	n/a	No	3.027	n/a	5.0	NoResponse	-1	0.028	666.05	9	70	Feedback	Loss	True
668.471	3.027	Lose2	0.6479	n/a	No	3.027	n/a	n/a	NoResponse	-1	0.0	n/a	9	70	ISIslide	Loss	True
671.52	0.25	Win2	0.6528	0.0	Yes	2.73	0.02	n/a	GoodResponse	1	n/a	n/a	10	71	Cue	Win	True
671.77	4.05	Win2	0.6528	0.0	Yes	2.73	0.0	n/a	GoodResponse	1	n/a	n/a	10	71	Fixation	Win	True
675.819	0.31	Win2	0.6528	0.001	Yes	2.73	-0.001	3.0	GoodResponse	1	0.247	675.066	10	71	Target	Win	True
676.066	0.3	Win2	0.6528	0.001	Yes	2.73	-0.001	3.0	GoodResponse	1	0.247	n/a	10	71	ButtonPress	Win	True
676.135	0.39	Win2	0.6528	n/a	Yes	2.73	n/a	n/a	GoodResponse	1	n/a	n/a	10	71	Blank	Win	True
676.518	1.45	Win2	0.6528	n/a	Yes	2.73	n/a	5.0	GoodResponse	1	0.044	675.562	10	71	Feedback	Win	True
677.968	2.73	Win2	0.6528	n/a	Yes	2.73	n/a	n/a	GoodResponse	1	0.0	n/a	10	71	ISIslide	Win	True
680.717	0.25	Win2	0.6575	0.0	Yes	2.783	0.017	n/a	GoodResponse	1	n/a	n/a	11	72	Cue	Win	True
680.967	4.1	Win2	0.6575	0.0	Yes	2.783	0.0	n/a	GoodResponse	1	n/a	n/a	11	72	Fixation	Win	True
685.065	0.32	Win2	0.6575	0.002	Yes	2.783	-0.002	3.0	GoodResponse	1	0.294	684.359	11	72	Target	Win	True
685.359	0.3	Win2	0.6575	0.002	Yes	2.783	-0.002	3.0	GoodResponse	1	0.294	n/a	11	72	ButtonPress	Win	True
685.399	0.38	Win2	0.6575	n/a	Yes	2.783	n/a	n/a	GoodResponse	1	n/a	n/a	11	72	Blank	Win	True
685.765	1.45	Win2	0.6575	n/a	Yes	2.783	n/a	5.0	GoodResponse	1	0.016	684.781	11	72	Feedback	Win	True
687.215	2.783	Win2	0.6575	n/a	Yes	2.783	n/a	n/a	GoodResponse	1	0.0	n/a	11	72	ISIslide	Win	True
690.03	0.25	Win2	0.6622	0.001	Yes	2.67	0.03	n/a	GoodResponse	1	n/a	n/a	12	73	Cue	Win	True
690.28	4.0	Win2	0.6622	0.0	Yes	2.67	0.0	n/a	GoodResponse	1	n/a	n/a	12	73	Fixation	Win	True
694.279	0.32	Win2	0.6622	0.001	Yes	2.67	-0.001	3.0	GoodResponse	1	0.262	693.541	12	73	Target	Win	True
694.541	0.3	Win2	0.6622	0.001	Yes	2.67	-0.001	3.0	GoodResponse	1	0.262	n/a	12	73	ButtonPress	Win	True
694.596	0.38	Win2	0.6622	n/a	Yes	2.67	n/a	n/a	GoodResponse	1	n/a	n/a	12	73	Blank	Win	True
694.979	1.45	Win2	0.6622	n/a	Yes	2.67	n/a	5.0	GoodResponse	1	0.022	694.001	12	73	Feedback	Win	True
696.428	2.67	Win2	0.6622	n/a	Yes	2.67	n/a	n/a	GoodResponse	1	0.0	n/a	12	73	ISIslide	Win	True
699.127	0.25	Lose2	0.6667000000000001	0.0	Yes	2.623	0.027	n/a	GoodResponse	0	n/a	n/a	12	74	Cue	AvoidedLoss	True
699.377	4.05	Lose2	0.6667000000000001	0.0	Yes	2.623	0.0	n/a	GoodResponse	0	n/a	n/a	12	74	Fixation	AvoidedLoss	True
703.426	0.32	Lose2	0.6667000000000001	0.001	Yes	2.623	-0.001	3.0	GoodResponse	0	0.242	702.668	12	74	Target	AvoidedLoss	True
703.668	0.3	Lose2	0.6667000000000001	0.001	Yes	2.623	-0.001	3.0	GoodResponse	0	0.242	n/a	12	74	ButtonPress	AvoidedLoss	True
703.742	0.38	Lose2	0.6667000000000001	n/a	Yes	2.623	n/a	n/a	GoodResponse	0	n/a	n/a	12	74	Blank	AvoidedLoss	True
704.126	1.45	Lose2	0.6667000000000001	n/a	Yes	2.623	n/a	5.0	GoodResponse	0	0.045	703.171	12	74	Feedback	AvoidedLoss	True
705.575	2.623	Lose2	0.6667000000000001	n/a	Yes	2.623	n/a	n/a	GoodResponse	0	0.0	n/a	12	74	ISIslide	AvoidedLoss	True
708.224	0.25	Lose2	0.6711	0.0	Yes	2.926	0.024	n/a	GoodResponse	0	n/a	n/a	12	75	Cue	AvoidedLoss	True
708.474	3.95	Lose2	0.6711	0.0	Yes	2.926	0.0	n/a	GoodResponse	0	n/a	n/a	12	75	Fixation	AvoidedLoss	True
712.423	0.31	Lose2	0.6711	0.001	Yes	2.926	-0.001	3.0	GoodResponse	0	0.238	711.661	12	75	Target	AvoidedLoss	True
712.661	0.3	Lose2	0.6711	0.001	Yes	2.926	-0.001	3.0	GoodResponse	0	0.238	n/a	12	75	ButtonPress	AvoidedLoss	True
712.739	0.39	Lose2	0.6711	n/a	Yes	2.926	n/a	n/a	GoodResponse	0	n/a	n/a	12	75	Blank	AvoidedLoss	True
713.123	1.45	Lose2	0.6711	n/a	Yes	2.926	n/a	5.0	GoodResponse	0	0.024	712.147	12	75	Feedback	AvoidedLoss	True
714.572	2.926	Lose2	0.6711	n/a	Yes	2.926	n/a	n/a	GoodResponse	0	0.0	n/a	12	75	ISIslide	AvoidedLoss	True
717.521	0.25	Control	0.6753	0.0	Yes	3.229	0.021	n/a	GoodResponse	0	n/a	n/a	12	76	Cue	Neutral	True
717.771	4.05	Control	0.6753	0.0	Yes	3.229	0.0	n/a	GoodResponse	0	n/a	n/a	12	76	Fixation	Neutral	True
721.82	0.3	Control	0.6753	0.001	Yes	3.229	-0.001	3.0	GoodResponse	0	0.286	721.106	12	76	Target	Neutral	True
722.106	0.3	Control	0.6753	0.001	Yes	3.229	-0.001	3.0	GoodResponse	0	0.286	n/a	12	76	ButtonPress	Neutral	True
722.119	0.4	Control	0.6753	n/a	Yes	3.229	n/a	n/a	GoodResponse	0	n/a	n/a	12	76	Blank	Neutral	True
722.519	1.45	Control	0.6753	n/a	Yes	3.229	n/a	5.0	GoodResponse	0	0.043	721.562	12	76	Feedback	Neutral	True
723.969	3.229	Control	0.6753	n/a	Yes	3.229	n/a	n/a	GoodResponse	0	0.0	n/a	12	76	ISIslide	Neutral	True
727.218	0.25	Lose2	0.6795	0.0	Yes	2.582	0.018	n/a	GoodResponse	0	n/a	n/a	12	77	Cue	AvoidedLoss	True
727.468	3.95	Lose2	0.6795	0.0	Yes	2.582	0.0	n/a	GoodResponse	0	n/a	n/a	12	77	Fixation	AvoidedLoss	True
731.416	0.29	Lose2	0.6795	0.002	Yes	2.582	-0.002	3.0	GoodResponse	0	0.249	730.665	12	77	Target	AvoidedLoss	True
731.665	0.3	Lose2	0.6795	0.002	Yes	2.582	-0.002	3.0	GoodResponse	0	0.249	n/a	12	77	ButtonPress	AvoidedLoss	True
731.716	0.41	Lose2	0.6795	n/a	Yes	2.582	n/a	n/a	GoodResponse	0	n/a	n/a	12	77	Blank	AvoidedLoss	True
732.116	1.45	Lose2	0.6795	n/a	Yes	2.582	n/a	5.0	GoodResponse	0	0.008	731.124	12	77	Feedback	AvoidedLoss	True
733.566	2.582	Lose2	0.6795	n/a	Yes	2.582	n/a	n/a	GoodResponse	0	0.0	n/a	12	77	ISIslide	AvoidedLoss	True
