onset	duration	cue_type	current_mean_accuracy	duration_error	is_hit	isi_adjusted	onset_delay	response	response_type	reward	rt	rt_time	total_reward	trial_number	trial_phase	trial_type	one_press
11.098	0.25	Control	1.0	0.0	Yes	2.952	-0.002	n/a	GoodResponse	0	n/a	n/a	0	0	Cue	Neutral	True
11.348	3.85	Control	1.0	0.001	Yes	2.952	0.0	n/a	GoodResponse	0	n/a	n/a	0	0	Fixation	Neutral	True
15.21	0.4	Control	1.0	0.0	Yes	2.952	0.012	1.0	GoodResponse	0	0.191	14.401	0	0	Target	Neutral	True
15.401	0.3	Control	1.0	0.0	Yes	2.952	0.012	1.0	GoodResponse	0	0.191	n/a	0	0	ButtonPress	Neutral	True
15.594	0.3	Control	1.0	n/a	Yes	2.952	n/a	n/a	GoodResponse	0	n/a	n/a	0	0	Blank	Neutral	True
15.895	1.45	Control	1.0	n/a	Yes	2.952	n/a	5.0	GoodResponse	0	0.034	14.929	0	0	Feedback	Neutral	True
17.35	2.952	Control	1.0	n/a	Yes	2.952	n/a	n/a	GoodResponse	0	0.0	n/a	0	0	ISIslide	Neutral	True
20.325	0.25	Lose2	0.5	0.0	No	2.775	0.025	n/a	NoResponse	-1	n/a	n/a	-1	1	Cue	Loss	True
20.576	4.0	Lose2	0.5	0.0	No	2.775	0.001	1.0	NoResponse	-1	3.686	23.262	-1	1	Fixation	Loss	True
24.262	0.3	Lose2	0.5	0.0	No	2.775	0.001	1.0	NoResponse	-1	3.686	n/a	-1	1	ButtonPress	Loss	True
24.571	0.39	Lose2	0.5	0.004	No	2.775	-0.004	n/a	NoResponse	-1	n/a	n/a	-1	1	Target	Loss	True
24.972	0.31	Lose2	0.5	n/a	No	2.775	n/a	n/a	NoResponse	-1	n/a	n/a	-1	1	Blank	Loss	True
25.273	1.45	Lose2	0.5	n/a	No	2.775	n/a	5.0	NoResponse	-1	0.022	24.295	-1	1	Feedback	Loss	True
26.728	2.775	Lose2	0.5	n/a	No	2.775	n/a	n/a	NoResponse	-1	0.0	n/a	-1	1	ISIslide	Loss	True
29.519	0.25	Control	0.6667000000000001	0.0	Yes	2.581	0.019	n/a	GoodResponse	0	n/a	n/a	-1	2	Cue	Neutral	True
29.77	4.1	Control	0.6667000000000001	0.0	Yes	2.581	0.001	n/a	GoodResponse	0	n/a	n/a	-1	2	Fixation	Neutral	True
33.866	0.4	Control	0.6667000000000001	0.003	Yes	2.581	-0.003	1.0	GoodResponse	0	0.221	33.087	-1	2	Target	Neutral	True
34.087	0.3	Control	0.6667000000000001	0.003	Yes	2.581	-0.003	1.0	GoodResponse	0	0.221	n/a	-1	2	ButtonPress	Neutral	True
34.267	0.3	Control	0.6667000000000001	n/a	Yes	2.581	n/a	n/a	GoodResponse	0	n/a	n/a	-1	2	Blank	Neutral	True
34.568	1.45	Control	0.6667000000000001	n/a	Yes	2.581	n/a	5.0	GoodResponse	0	0.044	33.612	-1	2	Feedback	Neutral	True
36.022	2.581	Control	0.6667000000000001	n/a	Yes	2.581	n/a	n/a	GoodResponse	0	0.0	n/a	-1	2	ISIslide	Neutral	True
38.63	0.25	Win2	0.75	0.0	Yes	2.82	0.03	n/a	GoodResponse	1	n/a	n/a	0	3	Cue	Win	True
38.881	3.95	Win2	0.75	0.0	Yes	2.82	0.001	n/a	GoodResponse	1	n/a	n/a	0	3	Fixation	Win	True
42.826	0.39	Win2	0.75	0.004	Yes	2.82	-0.004	1.0	GoodResponse	1	0.193	42.019	0	3	Target	Win	True
43.019	0.3	Win2	0.75	0.004	Yes	2.82	-0.004	1.0	GoodResponse	1	0.193	n/a	0	3	ButtonPress	Win	True
43.227	0.31	Win2	0.75	n/a	Yes	2.82	n/a	n/a	GoodResponse	1	n/a	n/a	0	3	Blank	Win	True
43.528	1.45	Win2	0.75	n/a	Yes	2.82	n/a	5.0	GoodResponse	1	0.011	42.539	0	3	Feedback	Win	True
44.982	2.82	Win2	0.75	n/a	Yes	2.82	n/a	n/a	GoodResponse	1	0.0	n/a	0	3	ISIslide	Win	True
47.824	0.25	Win2	0.8	0.0	Yes	3.276	0.024	n/a	GoodResponse	1	n/a	n/a	1	4	Cue	Win	True
48.075	4.0	Win2	0.8	0.0	Yes	3.276	0.001	n/a	GoodResponse	1	n/a	n/a	1	4	Fixation	Win	True
52.07	0.38	Win2	0.8	0.004	Yes	3.276	-0.004	1.0	GoodResponse	1	0.246	51.316	1	4	Target	Win	True
52.316	0.3	Win2	0.8	0.004	Yes	3.276	-0.004	1.0	GoodResponse	1	0.246	n/a	1	4	ButtonPress	Win	True
52.455	0.32	Win2	0.8	n/a	Yes	3.276	n/a	n/a	GoodResponse	1	n/a	n/a	1	4	Blank	Win	True
52.772	1.45	Win2	0.8	n/a	Yes	3.276	n/a	5.0	GoodResponse	1	0.035	51.807	1	4	Feedback	Win	True
54.227	3.276	Win2	0.8	n/a	Yes	3.276	n/a	n/a	GoodResponse	1	0.0	n/a	1	4	ISIslide	Win	True
57.52	0.25	Win2	0.8332999999999999	0.0	Yes	2.78	0.02	n/a	GoodResponse	1	n/a	n/a	2	5	Cue	Win	True
57.77	4.0	Win2	0.8332999999999999	0.001	Yes	2.78	0.0	n/a	GoodResponse	1	n/a	n/a	2	5	Fixation	Win	True
61.766	0.37	Win2	0.8332999999999999	0.004	Yes	2.78	-0.004	1.0	GoodResponse	1	0.204	60.97	2	5	Target	Win	True
61.97	0.3	Win2	0.8332999999999999	0.004	Yes	2.78	-0.004	1.0	GoodResponse	1	0.204	n/a	2	5	ButtonPress	Win	True
62.15	0.33	Win2	0.8332999999999999	n/a	Yes	2.78	n/a	n/a	GoodResponse	1	n/a	n/a	2	5	Blank	Win	True
62.468	1.45	Win2	0.8332999999999999	n/a	Yes	2.78	n/a	5.0	GoodResponse	1	0.046	61.514	2	5	Feedback	Win	True
63.922	2.78	Win2	0.8332999999999999	n/a	Yes	2.78	n/a	n/a	GoodResponse	1	0.0	n/a	2	5	ISIslide	Win	True
66.731	0.25	Lose2	0.8571	0.0	Yes	2.719	0.031	n/a	GoodResponse	0	n/a	n/a	2	6	Cue	AvoidedLoss	True
66.981	3.95	Lose2	0.8571	0.0	Yes	2.719	0.0	n/a	GoodResponse	0	n/a	n/a	2	6	Fixation	AvoidedLoss	True
70.926	0.36	Lose2	0.8571	0.005	Yes	2.719	-0.005	1.0	GoodResponse	0	0.204	70.13	2	6	Target	AvoidedLoss	True
71.13	0.3	Lose2	0.8571	0.005	Yes	2.719	-0.005	1.0	GoodResponse	0	0.204	n/a	2	6	ButtonPress	AvoidedLoss	True
71.294	0.34	Lose2	0.8571	n/a	Yes	2.719	n/a	n/a	GoodResponse	0	n/a	n/a	2	6	Blank	AvoidedLoss	True
71.628	1.45	Lose2	0.8571	n/a	Yes	2.719	n/a	5.0	GoodResponse	0	0.009	70.637	2	6	Feedback	AvoidedLoss	True
73.083	2.719	Lose2	0.8571	n/a	Yes	2.719	n/a	n/a	GoodResponse	0	0.0	n/a	2	6	ISIslide	AvoidedLoss	True
75.824	0.25	Lose2	0.875	0.0	Yes	4.026	0.024	n/a	GoodResponse	0	n/a	n/a	2	7	Cue	AvoidedLoss	True
76.075	4.05	Lose2	0.875	0.0	Yes	4.026	0.001	n/a	GoodResponse	0	n/a	n/a	2	7	Fixation	AvoidedLoss	True
80.121	0.35	Lose2	0.875	0.003	Yes	4.026	-0.003	1.0	GoodResponse	0	0.205	79.326	2	7	Target	AvoidedLoss	True
80.326	0.3	Lose2	0.875	0.003	Yes	4.026	-0.003	1.0	GoodResponse	0	0.205	n/a	2	7	ButtonPress	AvoidedLoss	True
80.472	0.35	Lose2	0.875	n/a	Yes	4.026	n/a	n/a	GoodResponse	0	n/a	n/a	2	7	Blank	AvoidedLoss	True
80.823	1.45	Lose2	0.875	n/a	Yes	4.026	n/a	5.0	GoodResponse	0	0.032	79.855	2	7	Feedback	AvoidedLoss	True
82.277	4.026	Lose2	0.875	n/a	Yes	4.026	n/a	n/a	GoodResponse	0	0.0	n/a	2	7	ISIslide	AvoidedLoss	True
86.322	0.25	Lose2	0.7778	0.001	No	3.028	0.022	n/a	NoResponse	-1	n/a	n/a	1	8	Cue	Loss	True
86.573	3.95	Lose2	0.7778	0.0	No	3.028	0.001	1.0	NoResponse	-1	3.301	88.874	1	8	Fixation	Loss	True
89.874	0.3	Lose2	0.7778	0.0	No	3.028	0.001	1.0	NoResponse	-1	3.301	n/a	1	8	ButtonPress	Loss	True
90.518	0.34	Lose2	0.7778	0.004	No	3.028	-0.004	n/a	NoResponse	-1	n/a	n/a	1	8	Target	Loss	True
90.869	0.36	Lose2	0.7778	n/a	No	3.028	n/a	n/a	NoResponse	-1	n/a	n/a	1	8	Blank	Loss	True
91.22	1.45	Lose2	0.7778	n/a	No	3.028	n/a	5.0	NoResponse	-1	0.026	90.246	1	8	Feedback	Loss	True
92.675	3.028	Lose2	0.7778	n/a	No	3.028	n/a	n/a	NoResponse	-1	0.0	n/a	1	8	ISIslide	Loss	True
95.717	0.25	Lose2	0.8	0.0	Yes	3.133	0.017	n/a	GoodResponse	0	n/a	n/a	1	9	Cue	AvoidedLoss	True
95.968	3.95	Lose2	0.8	0.0	Yes	3.133	0.001	n/a	GoodResponse	0	n/a	n/a	1	9	Fixation	AvoidedLoss	True
99.913	0.33	Lose2	0.8	0.004	Yes	3.133	-0.004	1.0	GoodResponse	0	0.299	99.212	1	9	Target	AvoidedLoss	True
100.212	0.3	Lose2	0.8	0.004	Yes	3.133	-0.004	1.0	GoodResponse	0	0.299	n/a	1	9	ButtonPress	AvoidedLoss	True
100.247	0.37	Lose2	0.8	n/a	Yes	3.133	n/a	n/a	GoodResponse	0	n/a	n/a	1	9	Blank	AvoidedLoss	True
100.615	1.45	Lose2	0.8	n/a	Yes	3.133	n/a	5.0	GoodResponse	0	0.045	99.66	1	9	Feedback	AvoidedLoss	True
102.069	3.133	Lose2	0.8	n/a	Yes	3.133	n/a	n/a	GoodResponse	0	0.0	n/a	1	9	ISIslide	AvoidedLoss	True
105.229	0.25	Control	0.8181999999999999	0.0	Yes	3.271	0.029	n/a	GoodResponse	0	n/a	n/a	1	10	Cue	Neutral	True
105.48	4.0	Control	0.8181999999999999	0.0	Yes	3.271	0.001	n/a	GoodResponse	0	n/a	n/a	1	10	Fixation	Neutral	True
109.475	0.32	Control	0.8181999999999999	0.004	Yes	3.271	-0.004	1.0	GoodResponse	0	0.256	108.731	1	10	Target	Neutral	True
109.731	0.3	Control	0.8181999999999999	0.004	Yes	3.271	-0.004	1.0	GoodResponse	0	0.256	n/a	1	10	ButtonPress	Neutral	True
109.809	0.38	Control	0.8181999999999999	n/a	Yes	3.271	n/a	n/a	GoodResponse	0	n/a	n/a	1	10	Blank	Neutral	True
110.177	1.45	Control	0.8181999999999999	n/a	Yes	3.271	n/a	5.0	GoodResponse	0	0.043	109.22	1	10	Feedback	Neutral	True
111.631	3.271	Control	0.8181999999999999	n/a	Yes	3.271	n/a	n/a	GoodResponse	0	0.0	n/a	1	10	ISIslide	Neutral	True
114.924	0.25	Lose2	0.8332999999999999	0.001	Yes	2.726	0.024	n/a	GoodResponse	0	n/a	n/a	1	11	Cue	AvoidedLoss	True
115.175	4.05	Lose2	0.8332999999999999	0.0	Yes	2.726	0.001	n/a	GoodResponse	0	n/a	n/a	1	11	Fixation	AvoidedLoss	True
119.221	0.31	Lose2	0.8332999999999999	0.003	Yes	2.726	-0.003	1.0	GoodResponse	0	0.231	118.452	1	11	Target	AvoidedLoss	True
119.452	0.3	Lose2	0.8332999999999999	0.003	Yes	2.726	-0.003	1.0	GoodResponse	0	0.231	n/a	1	11	ButtonPress	AvoidedLoss	True
119.538	0.39	Lose2	0.8332999999999999	n/a	Yes	2.726	n/a	n/a	GoodResponse	0	n/a	n/a	1	11	Blank	AvoidedLoss	True
119.923	1.45	Lose2	0.8332999999999999	n/a	Yes	2.726	n/a	5.0	GoodResponse	0	0.007	118.93	1	11	Feedback	AvoidedLoss	True
121.377	2.726	Lose2	0.8332999999999999	n/a	Yes	2.726	n/a	n/a	GoodResponse	0	0.0	n/a	1	11	ISIslide	AvoidedLoss	True
124.119	0.25	Control	0.8462000000000001	0.0	Yes	2.981	0.019	n/a	GoodResponse	0	n/a	n/a	1	12	Cue	Neutral	True
124.369	3.9	Control	0.8462000000000001	0.0	Yes	2.981	0.0	n/a	GoodResponse	0	n/a	n/a	1	12	Fixation	Neutral	True
128.281	0.3	Control	0.8462000000000001	0.0	Yes	2.981	0.012	1.0	GoodResponse	0	0.271	127.552	1	12	Target	Neutral	True
128.552	0.3	Control	0.8462000000000001	0.0	Yes	2.981	0.012	1.0	GoodResponse	0	0.271	n/a	1	12	ButtonPress	Neutral	True
128.565	0.4	Control	0.8462000000000001	n/a	Yes	2.981	n/a	n/a	GoodResponse	0	n/a	n/a	1	12	Blank	Neutral	True
128.966	1.45	Control	0.8462000000000001	n/a	Yes	2.981	n/a	5.0	GoodResponse	0	0.035	128.001	1	12	Feedback	Neutral	True
130.421	2.981	Control	0.8462000000000001	n/a	Yes	2.981	n/a	n/a	GoodResponse	0	0.0	n/a	1	12	ISIslide	Neutral	True
133.43	0.25	Control	0.8571	0.0	Yes	2.77	0.03	n/a	GoodResponse	0	n/a	n/a	1	13	Cue	Neutral	True
133.68	4.0	Control	0.8571	0.001	Yes	2.77	0.0	n/a	GoodResponse	0	n/a	n/a	1	13	Fixation	Neutral	True
137.676	0.29	Control	0.8571	0.004	Yes	2.77	-0.004	1.0	GoodResponse	0	0.198	136.874	1	13	Target	Neutral	True
137.874	0.3	Control	0.8571	0.004	Yes	2.77	-0.004	1.0	GoodResponse	0	0.198	n/a	1	13	ButtonPress	Neutral	True
137.977	0.41	Control	0.8571	n/a	Yes	2.77	n/a	n/a	GoodResponse	0	n/a	n/a	1	13	Blank	Neutral	True
138.378	1.45	Control	0.8571	n/a	Yes	2.77	n/a	5.0	GoodResponse	0	0.038	137.416	1	13	Feedback	Neutral	True
139.832	2.77	Control	0.8571	n/a	Yes	2.77	n/a	n/a	GoodResponse	0	0.0	n/a	1	13	ISIslide	Neutral	True
142.624	0.25	Win2	0.8667	0.0	Yes	2.676	0.024	n/a	GoodResponse	1	n/a	n/a	2	14	Cue	Win	True
142.875	4.1	Win2	0.8667	0.0	Yes	2.676	0.001	n/a	GoodResponse	1	n/a	n/a	2	14	Fixation	Win	True
146.97	0.28	Win2	0.8667	0.004	Yes	2.676	-0.004	1.0	GoodResponse	1	0.214	146.184	2	14	Target	Win	True
147.184	0.3	Win2	0.8667	0.004	Yes	2.676	-0.004	1.0	GoodResponse	1	0.214	n/a	2	14	ButtonPress	Win	True
147.254	0.42	Win2	0.8667	n/a	Yes	2.676	n/a	n/a	GoodResponse	1	n/a	n/a	2	14	Blank	Win	True
147.672	1.45	Win2	0.8667	n/a	Yes	2.676	n/a	5.0	GoodResponse	1	0.011	146.683	2	14	Feedback	Win	True
149.127	2.676	Win2	0.8667	n/a	Yes	2.676	n/a	n/a	GoodResponse	1	0.0	n/a	2	14	ISIslide	Win	True
151.818	0.25	Control	0.875	0.0	Yes	2.982	0.018	n/a	GoodResponse	0	n/a	n/a	2	15	Cue	Neutral	True
152.069	4.0	Control	0.875	0.0	Yes	2.982	0.001	n/a	GoodResponse	0	n/a	n/a	2	15	Fixation	Neutral	True
156.064	0.27	Control	0.875	0.004	Yes	2.982	-0.004	1.0	GoodResponse	0	0.209	155.273	2	15	Target	Neutral	True
156.273	0.3	Control	0.875	0.004	Yes	2.982	-0.004	1.0	GoodResponse	0	0.209	n/a	2	15	ButtonPress	Neutral	True
156.348	0.43	Control	0.875	n/a	Yes	2.982	n/a	n/a	GoodResponse	0	n/a	n/a	2	15	Blank	Neutral	True
156.766	1.45	Control	0.875	n/a	Yes	2.982	n/a	5.0	GoodResponse	0	0.039	155.805	2	15	Feedback	Neutral	True
158.22	2.982	Control	0.875	n/a	Yes	2.982	n/a	n/a	GoodResponse	0	0.0	n/a	2	15	ISIslide	Neutral	True
161.229	0.25	Win2	0.8824	0.0	Yes	2.871	0.029	n/a	GoodResponse	1	n/a	n/a	3	16	Cue	Win	True
161.48	4.0	Win2	0.8824	0.0	Yes	2.871	0.001	n/a	GoodResponse	1	n/a	n/a	3	16	Fixation	Win	True
165.475	0.26	Win2	0.8824	0.004	Yes	2.871	-0.004	1.0	GoodResponse	1	0.185	164.66	3	16	Target	Win	True
165.66	0.3	Win2	0.8824	0.004	Yes	2.871	-0.004	1.0	GoodResponse	1	0.185	n/a	3	16	ButtonPress	Win	True
165.743	0.44	Win2	0.8824	n/a	Yes	2.871	n/a	n/a	GoodResponse	1	n/a	n/a	3	16	Blank	Win	True
166.178	1.45	Win2	0.8824	n/a	Yes	2.871	n/a	5.0	GoodResponse	1	0.042	165.22	3	16	Feedback	Win	True
167.632	2.871	Win2	0.8824	n/a	Yes	2.871	n/a	n/a	GoodResponse	1	0.0	n/a	3	16	ISIslide	Win	True
170.524	0.25	Lose2	0.8332999999999999	0.0	No	2.726	0.024	n/a	LatePress	-1	n/a	n/a	2	17	Cue	Loss	True
170.775	3.95	Lose2	0.8332999999999999	0.0	No	2.726	0.001	n/a	LatePress	-1	n/a	n/a	2	17	Fixation	Loss	True
174.72	0.25	Lose2	0.8332999999999999	0.004	No	2.726	-0.004	1.0	LatePress	-1	0.253	173.973	2	17	Target	Loss	True
174.97	0.45	Lose2	0.8332999999999999	n/a	No	2.726	n/a	n/a	LatePress	-1	n/a	n/a	2	17	Blank	Loss	True
174.973	0.3	Lose2	0.8332999999999999	0.004	No	2.726	-0.004	1.0	LatePress	-1	0.253	n/a	2	17	ButtonPress	Loss	True
175.422	1.45	Lose2	0.8332999999999999	n/a	No	2.726	n/a	5.0	LatePress	-1	0.018	174.44	2	17	Feedback	Loss	True
176.876	2.726	Lose2	0.8332999999999999	n/a	No	2.726	n/a	n/a	LatePress	-1	0.0	n/a	2	17	ISIslide	Loss	True
179.618	0.25	Lose2	0.8421	0.0	Yes	2.732	0.018	n/a	GoodResponse	0	n/a	n/a	2	18	Cue	AvoidedLoss	True
179.868	4.05	Lose2	0.8421	0.0	Yes	2.732	0.0	n/a	GoodResponse	0	n/a	n/a	2	18	Fixation	AvoidedLoss	True
183.914	0.24	Lose2	0.8421	0.004	Yes	2.732	-0.004	1.0	GoodResponse	0	0.22	183.134	2	18	Target	AvoidedLoss	True
184.134	0.3	Lose2	0.8421	0.004	Yes	2.732	-0.004	1.0	GoodResponse	0	0.22	n/a	2	18	ButtonPress	AvoidedLoss	True
184.165	0.46	Lose2	0.8421	n/a	Yes	2.732	n/a	n/a	GoodResponse	0	n/a	n/a	2	18	Blank	AvoidedLoss	True
184.616	1.45	Lose2	0.8421	n/a	Yes	2.732	n/a	5.0	GoodResponse	0	0.042	183.658	2	18	Feedback	AvoidedLoss	True
186.07	2.732	Lose2	0.8421	n/a	Yes	2.732	n/a	n/a	GoodResponse	0	0.0	n/a	2	18	ISIslide	AvoidedLoss	True
188.829	0.25	Control	0.85	0.0	Yes	2.921	0.029	n/a	GoodResponse	0	n/a	n/a	2	19	Cue	Neutral	True
189.079	3.95	Control	0.85	0.0	Yes	2.921	0.0	n/a	GoodResponse	0	n/a	n/a	2	19	Fixation	Neutral	True
193.041	0.23	Control	0.85	0.0	Yes	2.921	0.012	1.0	GoodResponse	0	0.198	192.239	2	19	Target	Neutral	True
193.239	0.3	Control	0.85	0.0	Yes	2.921	0.012	1.0	GoodResponse	0	0.198	n/a	2	19	ButtonPress	Neutral	True
193.258	0.47	Control	0.85	n/a	Yes	2.921	n/a	n/a	GoodResponse	0	n/a	n/a	2	19	Blank	Neutral	True
193.726	1.45	Control	0.85	n/a	Yes	2.921	n/a	5.0	GoodResponse	0	0.009	192.735	2	19	Feedback	Neutral	True
195.181	2.921	Control	0.85	n/a	Yes	2.921	n/a	n/a	GoodResponse	0	0.0	n/a	2	19	ISIslide	Neutral	True
198.123	0.25	Control	0.8571	0.0	Yes	2.627	0.023	n/a	GoodResponse	0	n/a	n/a	2	20	Cue	Neutral	True
198.374	4.05	Control	0.8571	0.0	Yes	2.627	0.001	n/a	GoodResponse	0	n/a	n/a	2	20	Fixation	Neutral	True
202.419	0.22	Control	0.8571	0.004	Yes	2.627	-0.004	1.0	GoodResponse	0	0.214	201.633	2	20	Target	Neutral	True
202.633	0.3	Control	0.8571	0.004	Yes	2.627	-0.004	1.0	GoodResponse	0	0.214	n/a	2	20	ButtonPress	Neutral	True
202.653	0.48	Control	0.8571	n/a	Yes	2.627	n/a	n/a	GoodResponse	0	n/a	n/a	2	20	Blank	Neutral	True
203.121	1.45	Control	0.8571	n/a	Yes	2.627	n/a	5.0	GoodResponse	0	0.025	202.146	2	20	Feedback	Neutral	True
204.576	2.627	Control	0.8571	n/a	Yes	2.627	n/a	n/a	GoodResponse	0	0.0	n/a	2	20	ISIslide	Neutral	True
207.217	0.25	Control	0.8636	0.0	Yes	2.783	0.017	n/a	GoodResponse	0	n/a	n/a	2	21	Cue	Neutral	True
207.468	4.1	Control	0.8636	0.0	Yes	2.783	0.001	n/a	GoodResponse	0	n/a	n/a	2	21	Fixation	Neutral	True
211.563	0.21	Control	0.8636	0.004	Yes	2.783	-0.004	1.0	GoodResponse	0	0.181	210.744	2	21	Target	Neutral	True
211.744	0.3	Control	0.8636	0.004	Yes	2.783	-0.004	1.0	GoodResponse	0	0.181	n/a	2	21	ButtonPress	Neutral	True
211.78	0.49	Control	0.8636	n/a	Yes	2.783	n/a	n/a	GoodResponse	0	n/a	n/a	2	21	Blank	Neutral	True
212.265	1.45	Control	0.8636	n/a	Yes	2.783	n/a	5.0	GoodResponse	0	0.008	211.273	2	21	Feedback	Neutral	True
213.72	2.783	Control	0.8636	n/a	Yes	2.783	n/a	n/a	GoodResponse	0	0.0	n/a	2	21	ISIslide	Neutral	True
216.528	0.25	Control	0.8261	0.0	No	2.772	0.028	n/a	NoResponse	0	n/a	n/a	2	22	Cue	Neutral	True
216.779	4.0	Control	0.8261	0.0	No	2.772	0.001	n/a	NoResponse	0	n/a	n/a	2	22	Fixation	Neutral	True
220.774	0.2	Control	0.8261	0.004	No	2.772	-0.004	1.0	NoResponse	0	0.205	219.979	2	22	Target	Neutral	True
220.975	0.5	Control	0.8261	n/a	No	2.772	n/a	n/a	NoResponse	0	n/a	n/a	2	22	Blank	Neutral	True
220.979	0.3	Control	0.8261	0.004	No	2.772	-0.004	1.0	NoResponse	0	0.205	n/a	2	22	ButtonPress	Neutral	True
221.476	1.45	Control	0.8261	n/a	No	2.772	n/a	5.0	NoResponse	0	0.011	220.487	2	22	Feedback	Neutral	True
222.93	2.772	Control	0.8261	n/a	No	2.772	n/a	n/a	NoResponse	0	0.0	n/a	2	22	ISIslide	Neutral	True
225.722	0.25	Control	0.7917000000000001	0.0	No	2.778	0.022	n/a	NoResponse	0	n/a	n/a	2	23	Cue	Neutral	True
225.973	3.9	Control	0.7917000000000001	0.0	No	2.778	0.001	n/a	NoResponse	0	n/a	n/a	2	23	Fixation	Neutral	True
229.868	0.19	Control	0.7917000000000001	0.004	No	2.778	-0.004	1.0	NoResponse	0	0.275	229.143	2	23	Target	Neutral	True
230.068	0.51	Control	0.7917000000000001	n/a	No	2.778	n/a	n/a	NoResponse	0	n/a	n/a	2	23	Blank	Neutral	True
230.143	0.3	Control	0.7917000000000001	0.004	No	2.778	-0.004	1.0	NoResponse	0	0.275	n/a	2	23	ButtonPress	Neutral	True
230.57	1.45	Control	0.7917000000000001	n/a	No	2.778	n/a	5.0	NoResponse	0	0.039	229.609	2	23	Feedback	Neutral	True
232.024	2.778	Control	0.7917000000000001	n/a	No	2.778	n/a	n/a	NoResponse	0	0.0	n/a	2	23	ISIslide	Neutral	True
234.816	0.25	Win2	0.8	0.0	Yes	3.134	0.016	n/a	GoodResponse	1	n/a	n/a	3	24	Cue	Win	True
235.067	3.95	Win2	0.8	0.0	Yes	3.134	0.001	n/a	GoodResponse	1	n/a	n/a	3	24	Fixation	Win	True
239.012	0.18	Win2	0.8	0.004	Yes	3.134	-0.004	1.0	GoodResponse	1	0.174	238.186	3	24	Target	Win	True
239.186	0.3	Win2	0.8	0.004	Yes	3.134	-0.004	1.0	GoodResponse	1	0.174	n/a	3	24	ButtonPress	Win	True
239.196	0.52	Win2	0.8	n/a	Yes	3.134	n/a	n/a	GoodResponse	1	n/a	n/a	3	24	Blank	Win	True
239.714	1.45	Win2	0.8	n/a	Yes	3.134	n/a	5.0	GoodResponse	1	0.017	238.731	3	24	Feedback	Win	True
241.168	3.134	Win2	0.8	n/a	Yes	3.134	n/a	n/a	GoodResponse	1	0.0	n/a	3	24	ISIslide	Win	True
244.328	0.25	Win2	0.7692	0.0	No	3.072	0.028	n/a	NoResponse	0	n/a	n/a	3	25	Cue	MissedWin	True
244.578	4.0	Win2	0.7692	0.0	No	3.072	0.0	n/a	NoResponse	0	n/a	n/a	3	25	Fixation	MissedWin	True
248.574	0.17	Win2	0.7692	0.004	No	3.072	-0.004	1.0	NoResponse	0	0.2	247.774	3	25	Target	MissedWin	True
248.757	0.53	Win2	0.7692	n/a	No	3.072	n/a	n/a	NoResponse	0	n/a	n/a	3	25	Blank	MissedWin	True
248.774	0.3	Win2	0.7692	0.004	No	3.072	-0.004	1.0	NoResponse	0	0.2	n/a	3	25	ButtonPress	MissedWin	True
249.276	1.45	Win2	0.7692	n/a	No	3.072	n/a	5.0	NoResponse	0	0.016	248.292	3	25	Feedback	MissedWin	True
250.73	3.072	Win2	0.7692	n/a	No	3.072	n/a	n/a	NoResponse	0	0.0	n/a	3	25	ISIslide	MissedWin	True
253.823	0.25	Win2	0.7406999999999999	0.0	No	2.927	0.023	n/a	NoResponse	0	n/a	n/a	3	26	Cue	MissedWin	True
254.073	3.95	Win2	0.7406999999999999	0.0	No	2.927	0.0	n/a	NoResponse	0	n/a	n/a	3	26	Fixation	MissedWin	True
258.018	0.16	Win2	0.7406999999999999	0.005	No	2.927	-0.005	1.0	NoResponse	0	0.201	257.219	3	26	Target	MissedWin	True
258.186	0.54	Win2	0.7406999999999999	n/a	No	2.927	n/a	n/a	NoResponse	0	n/a	n/a	3	26	Blank	MissedWin	True
258.219	0.3	Win2	0.7406999999999999	0.005	No	2.927	-0.005	1.0	NoResponse	0	0.201	n/a	3	26	ButtonPress	MissedWin	True
258.721	1.45	Win2	0.7406999999999999	n/a	No	2.927	n/a	5.0	NoResponse	0	0.034	257.755	3	26	Feedback	MissedWin	True
260.175	2.927	Win2	0.7406999999999999	n/a	No	2.927	n/a	n/a	NoResponse	0	0.0	n/a	3	26	ISIslide	MissedWin	True
263.117	0.25	Lose2	0.7143	0.0	No	2.833	0.017	n/a	NoResponse	-1	n/a	n/a	2	27	Cue	Loss	True
263.368	4.05	Lose2	0.7143	0.0	No	2.833	0.001	n/a	NoResponse	-1	n/a	n/a	2	27	Fixation	Loss	True
267.413	0.15	Lose2	0.7143	0.004	No	2.833	-0.004	1.0	NoResponse	-1	0.181	266.594	2	27	Target	Loss	True
267.564	0.55	Lose2	0.7143	n/a	No	2.833	n/a	n/a	NoResponse	-1	n/a	n/a	2	27	Blank	Loss	True
267.594	0.3	Lose2	0.7143	0.004	No	2.833	-0.004	1.0	NoResponse	-1	0.181	n/a	2	27	ButtonPress	Loss	True
268.115	1.45	Lose2	0.7143	n/a	No	2.833	n/a	5.0	NoResponse	-1	0.008	267.123	2	27	Feedback	Loss	True
269.57	2.833	Lose2	0.7143	n/a	No	2.833	n/a	n/a	NoResponse	-1	0.0	n/a	2	27	ISIslide	Loss	True
272.428	0.25	Control	0.6897	0.0	No	2.822	0.028	n/a	NoResponse	0	n/a	n/a	2	28	Cue	Neutral	True
272.679	4.05	Control	0.6897	0.0	No	2.822	0.001	n/a	NoResponse	0	n/a	n/a	2	28	Fixation	Neutral	True
276.724	0.15	Control	0.6897	0.004	No	2.822	-0.004	1.0	NoResponse	0	0.197	275.921	2	28	Target	Neutral	True
276.875	0.55	Control	0.6897	n/a	No	2.822	n/a	n/a	NoResponse	0	n/a	n/a	2	28	Blank	Neutral	True
276.921	0.3	Control	0.6897	0.004	No	2.822	-0.004	1.0	NoResponse	0	0.197	n/a	2	28	ButtonPress	Neutral	True
277.426	1.45	Control	0.6897	n/a	No	2.822	n/a	5.0	NoResponse	0	0.012	276.438	2	28	Feedback	Neutral	True
278.881	2.822	Control	0.6897	n/a	No	2.822	n/a	n/a	NoResponse	0	0.0	n/a	2	28	ISIslide	Neutral	True
281.723	0.25	Lose2	0.6667000000000001	0.0	No	2.827	0.023	n/a	NoResponse	-1	n/a	n/a	1	29	Cue	Loss	True
281.973	3.95	Lose2	0.6667000000000001	0.0	No	2.827	0.0	n/a	NoResponse	-1	n/a	n/a	1	29	Fixation	Loss	True
285.935	0.15	Lose2	0.6667000000000001	0.0	No	2.827	0.012	1.0	NoResponse	-1	0.184	285.119	1	29	Target	Loss	True
286.069	0.55	Lose2	0.6667000000000001	n/a	No	2.827	n/a	n/a	NoResponse	-1	n/a	n/a	1	29	Blank	Loss	True
286.119	0.3	Lose2	0.6667000000000001	0.0	No	2.827	0.012	1.0	NoResponse	-1	0.184	n/a	1	29	ButtonPress	Loss	True
286.621	1.45	Lose2	0.6667000000000001	n/a	No	2.827	n/a	5.0	NoResponse	-1	0.037	285.658	1	29	Feedback	Loss	True
288.075	2.827	Lose2	0.6667000000000001	n/a	No	2.827	n/a	n/a	NoResponse	-1	0.0	n/a	1	29	ISIslide	Loss	True
290.917	0.25	Win2	0.6452	0.0	No	2.783	0.017	n/a	NoResponse	0	n/a	n/a	1	30	Cue	MissedWin	True
291.167	3.9	Win2	0.6452	0.001	No	2.783	0.0	1.0	NoResponse	0	3.195	293.362	1	30	Fixation	MissedWin	True
294.362	0.3	Win2	0.6452	0.001	No	2.783	0.0	1.0	NoResponse	0	3.195	n/a	1	30	ButtonPress	MissedWin	True
295.079	0.15	Win2	0.6452	0.0	No	2.783	0.012	n/a	NoResponse	0	n/a	n/a	1	30	Target	MissedWin	True
295.213	0.55	Win2	0.6452	n/a	No	2.783	n/a	n/a	NoResponse	0	n/a	n/a	1	30	Blank	MissedWin	True
295.765	1.45	Win2	0.6452	n/a	No	2.783	n/a	5.0	NoResponse	0	0.014	294.779	1	30	Feedback	MissedWin	True
297.219	2.783	Win2	0.6452	n/a	No	2.783	n/a	n/a	NoResponse	0	0.0	n/a	1	30	ISIslide	MissedWin	True
300.027	0.25	Lose2	0.625	0.0	No	2.823	0.027	n/a	NoResponse	-1	n/a	n/a	0	31	Cue	Loss	True
300.278	4.05	Lose2	0.625	0.0	No	2.823	0.001	n/a	NoResponse	-1	n/a	n/a	0	31	Fixation	Loss	True
304.323	0.16	Lose2	0.625	0.004	No	2.823	-0.004	1.0	NoResponse	-1	0.26	303.583	0	31	Target	Loss	True
304.491	0.54	Lose2	0.625	n/a	No	2.823	n/a	n/a	NoResponse	-1	n/a	n/a	0	31	Blank	Loss	True
304.583	0.3	Lose2	0.625	0.004	No	2.823	-0.004	1.0	NoResponse	-1	0.26	n/a	0	31	ButtonPress	Loss	True
305.026	1.45	Lose2	0.625	n/a	No	2.823	n/a	5.0	NoResponse	-1	0.021	304.047	0	31	Feedback	Loss	True
306.48	2.823	Lose2	0.625	n/a	No	2.823	n/a	n/a	NoResponse	-1	0.0	n/a	0	31	ISIslide	Loss	True
309.322	0.25	Lose2	0.6061	0.0	No	2.628	0.022	n/a	NoResponse	-1	n/a	n/a	-1	32	Cue	Loss	True
309.572	4.15	Lose2	0.6061	0.001	No	2.628	0.0	n/a	NoResponse	-1	n/a	n/a	-1	32	Fixation	Loss	True
313.718	0.17	Lose2	0.6061	0.004	No	2.628	-0.004	1.0	NoResponse	-1	0.196	312.914	-1	32	Target	Loss	True
313.902	0.53	Lose2	0.6061	n/a	No	2.628	n/a	n/a	NoResponse	-1	n/a	n/a	-1	32	Blank	Loss	True
313.914	0.3	Lose2	0.6061	0.004	No	2.628	-0.004	1.0	NoResponse	-1	0.196	n/a	-1	32	ButtonPress	Loss	True
314.42	1.45	Lose2	0.6061	n/a	No	2.628	n/a	5.0	NoResponse	-1	0.042	313.462	-1	32	Feedback	Loss	True
315.875	2.628	Lose2	0.6061	n/a	No	2.628	n/a	n/a	NoResponse	-1	0.0	n/a	-1	32	ISIslide	Loss	True
318.516	0.25	Win2	0.5882000000000001	0.0	No	2.684	0.016	n/a	NoResponse	0	n/a	n/a	-1	33	Cue	MissedWin	True
318.767	4.0	Win2	0.5882000000000001	0.0	No	2.684	0.001	n/a	NoResponse	0	n/a	n/a	-1	33	Fixation	MissedWin	True
322.762	0.18	Win2	0.5882000000000001	0.004	No	2.684	-0.004	1.0	NoResponse	0	0.185	321.947	-1	33	Target	MissedWin	True
322.946	0.52	Win2	0.5882000000000001	n/a	No	2.684	n/a	n/a	NoResponse	0	n/a	n/a	-1	33	Blank	MissedWin	True
322.947	0.3	Win2	0.5882000000000001	0.004	No	2.684	-0.004	1.0	NoResponse	0	0.185	n/a	-1	33	ButtonPress	MissedWin	True
323.464	1.45	Win2	0.5882000000000001	n/a	No	2.684	n/a	5.0	NoResponse	0	0.022	322.486	-1	33	Feedback	MissedWin	True
324.918	2.684	Win2	0.5882000000000001	n/a	No	2.684	n/a	n/a	NoResponse	0	0.0	n/a	-1	33	ISIslide	MissedWin	True
327.626	0.25	Lose2	0.5714	0.0	No	2.624	0.026	n/a	NoResponse	-1	n/a	n/a	-2	34	Cue	Loss	True
327.877	4.05	Lose2	0.5714	0.0	No	2.624	0.001	n/a	NoResponse	-1	n/a	n/a	-2	34	Fixation	Loss	True
331.923	0.19	Lose2	0.5714	0.003	No	2.624	-0.003	1.0	NoResponse	-1	0.216	331.139	-2	34	Target	Loss	True
332.123	0.51	Lose2	0.5714	n/a	No	2.624	n/a	n/a	NoResponse	-1	n/a	n/a	-2	34	Blank	Loss	True
332.139	0.3	Lose2	0.5714	0.003	No	2.624	-0.003	1.0	NoResponse	-1	0.216	n/a	-2	34	ButtonPress	Loss	True
332.625	1.45	Lose2	0.5714	n/a	No	2.624	n/a	5.0	NoResponse	-1	0.031	331.656	-2	34	Feedback	Loss	True
334.079	2.624	Lose2	0.5714	n/a	No	2.624	n/a	n/a	NoResponse	-1	0.0	n/a	-2	34	ISIslide	Loss	True
336.72	0.25	Lose2	0.5832999999999999	0.0	Yes	2.68	0.02	n/a	GoodResponse	0	n/a	n/a	-2	35	Cue	AvoidedLoss	True
336.971	4.0	Lose2	0.5832999999999999	0.0	Yes	2.68	0.001	n/a	GoodResponse	0	n/a	n/a	-2	35	Fixation	AvoidedLoss	True
340.966	0.2	Lose2	0.5832999999999999	0.004	Yes	2.68	-0.004	1.0	GoodResponse	0	0.169	340.135	-2	35	Target	AvoidedLoss	True
341.135	0.3	Lose2	0.5832999999999999	0.004	Yes	2.68	-0.004	1.0	GoodResponse	0	0.169	n/a	-2	35	ButtonPress	AvoidedLoss	True
341.167	0.5	Lose2	0.5832999999999999	n/a	Yes	2.68	n/a	n/a	GoodResponse	0	n/a	n/a	-2	35	Blank	AvoidedLoss	True
341.668	1.45	Lose2	0.5832999999999999	n/a	Yes	2.68	n/a	5.0	GoodResponse	0	0.013	340.681	-2	35	Feedback	AvoidedLoss	True
343.123	2.68	Lose2	0.5832999999999999	n/a	Yes	2.68	n/a	n/a	GoodResponse	0	0.0	n/a	-2	35	ISIslide	AvoidedLoss	True
345.831	0.25	Control	0.5676	0.0	No	2.669	0.031	n/a	NoResponse	0	n/a	n/a	-2	36	Cue	Neutral	True
346.081	4.0	Control	0.5676	0.001	No	2.669	0.0	1.0	NoResponse	0	3.724	348.805	-2	36	Fixation	Neutral	True
349.805	0.3	Control	0.5676	0.001	No	2.669	0.0	1.0	NoResponse	0	3.724	n/a	-2	36	ButtonPress	Neutral	True
350.077	0.21	Control	0.5676	0.004	No	2.669	-0.004	n/a	NoResponse	0	n/a	n/a	-2	36	Target	Neutral	True
350.294	0.49	Control	0.5676	n/a	No	2.669	n/a	n/a	NoResponse	0	n/a	n/a	-2	36	Blank	Neutral	True
350.779	1.45	Control	0.5676	n/a	No	2.669	n/a	5.0	NoResponse	0	0.024	349.803	-2	36	Feedback	Neutral	True
352.233	2.669	Control	0.5676	n/a	No	2.669	n/a	n/a	NoResponse	0	0.0	n/a	-2	36	ISIslide	Neutral	True
354.925	0.25	Win2	0.5789	0.0	Yes	2.875	0.025	n/a	GoodResponse	1	n/a	n/a	-1	37	Cue	Win	True
355.175	4.0	Win2	0.5789	0.0	Yes	2.875	0.0	n/a	GoodResponse	1	n/a	n/a	-1	37	Fixation	Win	True
359.171	0.22	Win2	0.5789	0.004	Yes	2.875	-0.004	1.0	GoodResponse	1	0.185	358.356	-1	37	Target	Win	True
359.356	0.3	Win2	0.5789	0.004	Yes	2.875	-0.004	1.0	GoodResponse	1	0.185	n/a	-1	37	ButtonPress	Win	True
359.405	0.48	Win2	0.5789	n/a	Yes	2.875	n/a	n/a	GoodResponse	1	n/a	n/a	-1	37	Blank	Win	True
359.873	1.45	Win2	0.5789	n/a	Yes	2.875	n/a	5.0	GoodResponse	1	0.006	358.879	-1	37	Feedback	Win	True
361.327	2.875	Win2	0.5789	n/a	Yes	2.875	n/a	n/a	GoodResponse	1	0.0	n/a	-1	37	ISIslide	Win	True
364.219	0.25	Lose2	0.5897	0.0	Yes	2.831	0.019	n/a	GoodResponse	0	n/a	n/a	-1	38	Cue	AvoidedLoss	True
364.47	3.95	Lose2	0.5897	0.0	Yes	2.831	0.001	n/a	GoodResponse	0	n/a	n/a	-1	38	Fixation	AvoidedLoss	True
368.415	0.23	Lose2	0.5897	0.004	Yes	2.831	-0.004	1.0	GoodResponse	0	0.18	367.595	-1	38	Target	AvoidedLoss	True
368.595	0.3	Lose2	0.5897	0.004	Yes	2.831	-0.004	1.0	GoodResponse	0	0.18	n/a	-1	38	ButtonPress	AvoidedLoss	True
368.649	0.47	Lose2	0.5897	n/a	Yes	2.831	n/a	n/a	GoodResponse	0	n/a	n/a	-1	38	Blank	AvoidedLoss	True
369.117	1.45	Lose2	0.5897	n/a	Yes	2.831	n/a	5.0	GoodResponse	0	0.026	368.143	-1	38	Feedback	AvoidedLoss	True
370.571	2.831	Lose2	0.5897	n/a	Yes	2.831	n/a	n/a	GoodResponse	0	0.0	n/a	-1	38	ISIslide	AvoidedLoss	True
373.43	0.25	Win2	0.6	0.0	Yes	2.97	0.03	n/a	GoodResponse	1	n/a	n/a	0	39	Cue	Win	True
373.681	4.1	Win2	0.6	0.0	Yes	2.97	0.001	n/a	GoodResponse	1	n/a	n/a	0	39	Fixation	Win	True
377.776	0.24	Win2	0.6	0.004	Yes	2.97	-0.004	1.0	GoodResponse	1	0.204	376.98	0	39	Target	Win	True
377.98	0.3	Win2	0.6	0.004	Yes	2.97	-0.004	1.0	GoodResponse	1	0.204	n/a	0	39	ButtonPress	Win	True
378.027	0.46	Win2	0.6	n/a	Yes	2.97	n/a	n/a	GoodResponse	1	n/a	n/a	0	39	Blank	Win	True
378.478	1.45	Win2	0.6	n/a	Yes	2.97	n/a	5.0	GoodResponse	1	0.031	377.509	0	39	Feedback	Win	True
379.933	2.97	Win2	0.6	n/a	Yes	2.97	n/a	n/a	GoodResponse	1	0.0	n/a	0	39	ISIslide	Win	True
382.925	0.25	Win2	0.6098	0.0	Yes	2.725	0.025	n/a	GoodResponse	1	n/a	n/a	1	40	Cue	Win	True
383.176	3.95	Win2	0.6098	0.0	Yes	2.725	0.001	n/a	GoodResponse	1	n/a	n/a	1	40	Fixation	Win	True
387.121	0.25	Win2	0.6098	0.004	Yes	2.725	-0.004	1.0	GoodResponse	1	0.209	386.33	1	40	Target	Win	True
387.33	0.3	Win2	0.6098	0.004	Yes	2.725	-0.004	1.0	GoodResponse	1	0.209	n/a	1	40	ButtonPress	Win	True
387.371	0.45	Win2	0.6098	n/a	Yes	2.725	n/a	n/a	GoodResponse	1	n/a	n/a	1	40	Blank	Win	True
387.823	1.45	Win2	0.6098	n/a	Yes	2.725	n/a	5.0	GoodResponse	1	0.008	386.831	1	40	Feedback	Win	True
389.277	2.725	Win2	0.6098	n/a	Yes	2.725	n/a	n/a	GoodResponse	1	0.0	n/a	1	40	ISIslide	Win	True
392.019	0.25	Win2	0.619	0.0	Yes	2.781	0.019	n/a	GoodResponse	1	n/a	n/a	2	41	Cue	Win	True
392.269	3.9	Win2	0.619	0.001	Yes	2.781	0.0	n/a	GoodResponse	1	n/a	n/a	2	41	Fixation	Win	True
396.164	0.26	Win2	0.619	0.005	Yes	2.781	-0.005	1.0	GoodResponse	1	0.198	395.362	2	41	Target	Win	True
396.362	0.3	Win2	0.619	0.005	Yes	2.781	-0.005	1.0	GoodResponse	1	0.198	n/a	2	41	ButtonPress	Win	True
396.432	0.44	Win2	0.619	n/a	Yes	2.781	n/a	n/a	GoodResponse	1	n/a	n/a	2	41	Blank	Win	True
396.866	1.45	Win2	0.619	n/a	Yes	2.781	n/a	5.0	GoodResponse	1	0.034	395.9	2	41	Feedback	Win	True
398.321	2.781	Win2	0.619	n/a	Yes	2.781	n/a	n/a	GoodResponse	1	0.0	n/a	2	41	ISIslide	Win	True
401.129	0.25	Control	0.6279	0.0	Yes	2.921	0.029	n/a	GoodResponse	0	n/a	n/a	2	42	Cue	Neutral	True
401.38	3.85	Control	0.6279	0.0	Yes	2.921	0.001	n/a	GoodResponse	0	n/a	n/a	2	42	Fixation	Neutral	True
405.225	0.27	Control	0.6279	0.004	Yes	2.921	-0.004	1.0	GoodResponse	0	0.202	404.427	2	42	Target	Neutral	True
405.427	0.3	Control	0.6279	0.004	Yes	2.921	-0.004	1.0	GoodResponse	0	0.202	n/a	2	42	ButtonPress	Neutral	True
405.509	0.43	Control	0.6279	n/a	Yes	2.921	n/a	n/a	GoodResponse	0	n/a	n/a	2	42	Blank	Neutral	True
405.927	1.45	Control	0.6279	n/a	Yes	2.921	n/a	5.0	GoodResponse	0	0.045	404.972	2	42	Feedback	Neutral	True
407.381	2.921	Control	0.6279	n/a	Yes	2.921	n/a	n/a	GoodResponse	0	0.0	n/a	2	42	ISIslide	Neutral	True
410.323	0.25	Win2	0.6136	0.0	No	3.177	0.023	n/a	NoResponse	0	n/a	n/a	2	43	Cue	MissedWin	True
410.574	4.0	Win2	0.6136	0.0	No	3.177	0.001	1.0	NoResponse	0	3.98	413.554	2	43	Fixation	MissedWin	True
414.554	0.3	Win2	0.6136	0.0	No	3.177	0.001	1.0	NoResponse	0	3.98	n/a	2	43	ButtonPress	MissedWin	True
414.569	0.28	Win2	0.6136	0.004	No	3.177	-0.004	n/a	NoResponse	0	n/a	n/a	2	43	Target	MissedWin	True
414.854	0.42	Win2	0.6136	n/a	No	3.177	n/a	n/a	NoResponse	0	n/a	n/a	2	43	Blank	MissedWin	True
415.271	1.45	Win2	0.6136	n/a	No	3.177	n/a	5.0	NoResponse	0	0.018	414.289	2	43	Feedback	MissedWin	True
416.726	3.177	Win2	0.6136	n/a	No	3.177	n/a	n/a	NoResponse	0	0.0	n/a	2	43	ISIslide	MissedWin	True
419.919	0.25	Win2	0.6	0.0	No	2.981	0.019	n/a	NoResponse	0	n/a	n/a	2	44	Cue	MissedWin	True
420.169	4.0	Win2	0.6	0.001	No	2.981	0.0	n/a	NoResponse	0	n/a	n/a	2	44	Fixation	MissedWin	True
424.165	0.29	Win2	0.6	0.004	No	2.981	-0.004	1.0	NoResponse	0	0.371	423.536	2	44	Target	MissedWin	True
424.466	0.41	Win2	0.6	n/a	No	2.981	n/a	n/a	NoResponse	0	n/a	n/a	2	44	Blank	MissedWin	True
424.536	0.3	Win2	0.6	0.004	No	2.981	-0.004	1.0	NoResponse	0	0.371	n/a	2	44	ButtonPress	MissedWin	True
424.867	1.45	Win2	0.6	n/a	No	2.981	n/a	5.0	NoResponse	0	0.032	423.899	2	44	Feedback	MissedWin	True
426.321	2.981	Win2	0.6	n/a	No	2.981	n/a	n/a	NoResponse	0	0.0	n/a	2	44	ISIslide	MissedWin	True
429.33	0.25	Control	0.6087	0.0	Yes	2.87	0.03	n/a	GoodResponse	0	n/a	n/a	2	45	Cue	Neutral	True
429.581	4.1	Control	0.6087	0.0	Yes	2.87	0.001	n/a	GoodResponse	0	n/a	n/a	2	45	Fixation	Neutral	True
433.676	0.3	Control	0.6087	0.004	Yes	2.87	-0.004	1.0	GoodResponse	0	0.19	432.866	2	45	Target	Neutral	True
433.866	0.3	Control	0.6087	0.004	Yes	2.87	-0.004	1.0	GoodResponse	0	0.19	n/a	2	45	ButtonPress	Neutral	True
433.977	0.4	Control	0.6087	n/a	Yes	2.87	n/a	n/a	GoodResponse	0	n/a	n/a	2	45	Blank	Neutral	True
434.379	1.45	Control	0.6087	n/a	Yes	2.87	n/a	5.0	GoodResponse	0	0.033	433.412	2	45	Feedback	Neutral	True
435.833	2.87	Control	0.6087	n/a	Yes	2.87	n/a	n/a	GoodResponse	0	0.0	n/a	2	45	ISIslide	Neutral	True
438.725	0.25	Lose2	0.617	0.0	Yes	3.375	0.025	n/a	GoodResponse	0	n/a	n/a	2	46	Cue	AvoidedLoss	True
438.976	4.0	Lose2	0.617	0.0	Yes	3.375	0.001	n/a	GoodResponse	0	n/a	n/a	2	46	Fixation	AvoidedLoss	True
442.971	0.31	Lose2	0.617	0.004	Yes	3.375	-0.004	1.0	GoodResponse	0	0.203	442.174	2	46	Target	AvoidedLoss	True
443.174	0.3	Lose2	0.617	0.004	Yes	3.375	-0.004	1.0	GoodResponse	0	0.203	n/a	2	46	ButtonPress	AvoidedLoss	True
443.288	0.39	Lose2	0.617	n/a	Yes	3.375	n/a	n/a	GoodResponse	0	n/a	n/a	2	46	Blank	AvoidedLoss	True
443.673	1.45	Lose2	0.617	n/a	Yes	3.375	n/a	5.0	GoodResponse	0	0.007	442.68	2	46	Feedback	AvoidedLoss	True
445.127	3.375	Lose2	0.617	n/a	Yes	3.375	n/a	n/a	GoodResponse	0	0.0	n/a	2	46	ISIslide	AvoidedLoss	True
448.521	0.25	Lose2	0.625	0.0	Yes	2.679	0.021	n/a	GoodResponse	0	n/a	n/a	2	47	Cue	AvoidedLoss	True
448.771	4.0	Lose2	0.625	0.001	Yes	2.679	0.0	n/a	GoodResponse	0	n/a	n/a	2	47	Fixation	AvoidedLoss	True
452.767	0.32	Lose2	0.625	0.004	Yes	2.679	-0.004	1.0	GoodResponse	0	0.222	451.989	2	47	Target	AvoidedLoss	True
452.989	0.3	Lose2	0.625	0.004	Yes	2.679	-0.004	1.0	GoodResponse	0	0.222	n/a	2	47	ButtonPress	AvoidedLoss	True
453.101	0.38	Lose2	0.625	n/a	Yes	2.679	n/a	n/a	GoodResponse	0	n/a	n/a	2	47	Blank	AvoidedLoss	True
453.469	1.45	Lose2	0.625	n/a	Yes	2.679	n/a	5.0	GoodResponse	0	0.015	452.484	2	47	Feedback	AvoidedLoss	True
454.923	2.679	Lose2	0.625	n/a	Yes	2.679	n/a	n/a	GoodResponse	0	0.0	n/a	2	47	ISIslide	AvoidedLoss	True
457.631	0.25	Lose2	0.6327	0.0	Yes	3.019	0.031	n/a	GoodResponse	0	n/a	n/a	2	48	Cue	AvoidedLoss	True
457.882	3.95	Lose2	0.6327	0.0	Yes	3.019	0.001	n/a	GoodResponse	0	n/a	n/a	2	48	Fixation	AvoidedLoss	True
461.827	0.33	Lose2	0.6327	0.004	Yes	3.019	-0.004	1.0	GoodResponse	0	0.204	461.031	2	48	Target	AvoidedLoss	True
462.031	0.3	Lose2	0.6327	0.004	Yes	3.019	-0.004	1.0	GoodResponse	0	0.204	n/a	2	48	ButtonPress	AvoidedLoss	True
462.161	0.37	Lose2	0.6327	n/a	Yes	3.019	n/a	n/a	GoodResponse	0	n/a	n/a	2	48	Blank	AvoidedLoss	True
462.529	1.45	Lose2	0.6327	n/a	Yes	3.019	n/a	5.0	GoodResponse	0	0.028	461.557	2	48	Feedback	AvoidedLoss	True
463.984	3.019	Lose2	0.6327	n/a	Yes	3.019	n/a	n/a	GoodResponse	0	0.0	n/a	2	48	ISIslide	AvoidedLoss	True
467.026	0.25	Control	0.64	0.0	Yes	2.874	0.026	n/a	GoodResponse	0	n/a	n/a	2	49	Cue	Neutral	True
467.277	4.0	Control	0.64	0.0	Yes	2.874	0.001	n/a	GoodResponse	0	n/a	n/a	2	49	Fixation	Neutral	True
471.272	0.34	Control	0.64	0.004	Yes	2.874	-0.004	1.0	GoodResponse	0	0.19	470.462	2	49	Target	Neutral	True
471.462	0.3	Control	0.64	0.004	Yes	2.874	-0.004	1.0	GoodResponse	0	0.19	n/a	2	49	ButtonPress	Neutral	True
471.623	0.36	Control	0.64	n/a	Yes	2.874	n/a	n/a	GoodResponse	0	n/a	n/a	2	49	Blank	Neutral	True
471.974	1.45	Control	0.64	n/a	Yes	2.874	n/a	5.0	GoodResponse	0	0.047	471.021	2	49	Feedback	Neutral	True
473.428	2.874	Control	0.64	n/a	Yes	2.874	n/a	n/a	GoodResponse	0	0.0	n/a	2	49	ISIslide	Neutral	True
476.32	0.25	Control	0.6470999999999999	0.001	Yes	2.78	0.02	n/a	GoodResponse	0	n/a	n/a	2	50	Cue	Neutral	True
476.571	4.0	Control	0.6470999999999999	0.0	Yes	2.78	0.001	n/a	GoodResponse	0	n/a	n/a	2	50	Fixation	Neutral	True
480.566	0.35	Control	0.6470999999999999	0.004	Yes	2.78	-0.004	1.0	GoodResponse	0	0.186	479.752	2	50	Target	Neutral	True
480.752	0.3	Control	0.6470999999999999	0.004	Yes	2.78	-0.004	1.0	GoodResponse	0	0.186	n/a	2	50	ButtonPress	Neutral	True
480.918	0.35	Control	0.6470999999999999	n/a	Yes	2.78	n/a	n/a	GoodResponse	0	n/a	n/a	2	50	Blank	Neutral	True
481.269	1.45	Control	0.6470999999999999	n/a	Yes	2.78	n/a	5.0	GoodResponse	0	0.019	480.288	2	50	Feedback	Neutral	True
482.723	2.78	Control	0.6470999999999999	n/a	Yes	2.78	n/a	n/a	GoodResponse	0	0.0	n/a	2	50	ISIslide	Neutral	True
485.531	0.25	Control	0.6537999999999999	0.0	Yes	2.719	0.031	n/a	GoodResponse	0	n/a	n/a	2	51	Cue	Neutral	True
485.782	3.95	Control	0.6537999999999999	0.0	Yes	2.719	0.001	n/a	GoodResponse	0	n/a	n/a	2	51	Fixation	Neutral	True
489.727	0.36	Control	0.6537999999999999	0.004	Yes	2.719	-0.004	1.0	GoodResponse	0	0.181	488.908	2	51	Target	Neutral	True
489.908	0.3	Control	0.6537999999999999	0.004	Yes	2.719	-0.004	1.0	GoodResponse	0	0.181	n/a	2	51	ButtonPress	Neutral	True
490.095	0.34	Control	0.6537999999999999	n/a	Yes	2.719	n/a	n/a	GoodResponse	0	n/a	n/a	2	51	Blank	Neutral	True
490.429	1.45	Control	0.6537999999999999	n/a	Yes	2.719	n/a	5.0	GoodResponse	0	0.03	489.459	2	51	Feedback	Neutral	True
491.884	2.719	Control	0.6537999999999999	n/a	Yes	2.719	n/a	n/a	GoodResponse	0	0.0	n/a	2	51	ISIslide	Neutral	True
494.625	0.25	Control	0.6604000000000001	0.0	Yes	2.625	0.025	n/a	GoodResponse	0	n/a	n/a	2	52	Cue	Neutral	True
494.876	4.05	Control	0.6604000000000001	0.0	Yes	2.625	0.001	n/a	GoodResponse	0	n/a	n/a	2	52	Fixation	Neutral	True
498.921	0.37	Control	0.6604000000000001	0.004	Yes	2.625	-0.004	1.0	GoodResponse	0	0.173	498.094	2	52	Target	Neutral	True
499.094	0.3	Control	0.6604000000000001	0.004	Yes	2.625	-0.004	1.0	GoodResponse	0	0.173	n/a	2	52	ButtonPress	Neutral	True
499.306	0.33	Control	0.6604000000000001	n/a	Yes	2.625	n/a	n/a	GoodResponse	0	n/a	n/a	2	52	Blank	Neutral	True
499.623	1.45	Control	0.6604000000000001	n/a	Yes	2.625	n/a	5.0	GoodResponse	0	0.008	498.631	2	52	Feedback	Neutral	True
501.078	2.625	Control	0.6604000000000001	n/a	Yes	2.625	n/a	n/a	GoodResponse	0	0.0	n/a	2	52	ISIslide	Neutral	True
503.719	0.25	Win2	0.6481	0.0	No	2.931	0.019	n/a	NoResponse	0	n/a	n/a	2	53	Cue	MissedWin	True
503.97	4.05	Win2	0.6481	0.0	No	2.931	0.001	n/a	NoResponse	0	n/a	n/a	2	53	Fixation	MissedWin	True
508.015	0.37	Win2	0.6481	0.004	No	2.931	-0.004	1.0	NoResponse	0	0.597	507.612	2	53	Target	MissedWin	True
508.4	0.33	Win2	0.6481	n/a	No	2.931	n/a	n/a	NoResponse	0	n/a	n/a	2	53	Blank	MissedWin	True
508.612	0.3	Win2	0.6481	0.004	No	2.931	-0.004	1.0	NoResponse	0	0.597	n/a	2	53	ButtonPress	MissedWin	True
508.717	1.45	Win2	0.6481	n/a	No	2.931	n/a	5.0	NoResponse	0	0.035	507.752	2	53	Feedback	MissedWin	True
510.172	2.931	Win2	0.6481	n/a	No	2.931	n/a	n/a	NoResponse	0	0.0	n/a	2	53	ISIslide	MissedWin	True
513.13	0.25	Win2	0.6545000000000001	0.0	Yes	2.72	0.03	n/a	GoodResponse	1	n/a	n/a	3	54	Cue	Win	True
513.381	3.95	Win2	0.6545000000000001	0.0	Yes	2.72	0.001	n/a	GoodResponse	1	n/a	n/a	3	54	Fixation	Win	True
517.326	0.38	Win2	0.6545000000000001	0.004	Yes	2.72	-0.004	1.0	GoodResponse	1	0.15	516.476	3	54	Target	Win	True
517.476	0.3	Win2	0.6545000000000001	0.004	Yes	2.72	-0.004	1.0	GoodResponse	1	0.15	n/a	3	54	ButtonPress	Win	True
517.711	0.32	Win2	0.6545000000000001	n/a	Yes	2.72	n/a	n/a	GoodResponse	1	n/a	n/a	3	54	Blank	Win	True
518.028	1.45	Win2	0.6545000000000001	n/a	Yes	2.72	n/a	5.0	GoodResponse	1	0.04	517.068	3	54	Feedback	Win	True
519.483	2.72	Win2	0.6545000000000001	n/a	Yes	2.72	n/a	n/a	GoodResponse	1	0.0	n/a	3	54	ISIslide	Win	True
522.224	0.25	Control	0.6607	0.0	Yes	3.026	0.024	n/a	GoodResponse	0	n/a	n/a	3	55	Cue	Neutral	True
522.475	3.95	Control	0.6607	0.0	Yes	3.026	0.001	n/a	GoodResponse	0	n/a	n/a	3	55	Fixation	Neutral	True
526.42	0.39	Control	0.6607	0.004	Yes	3.026	-0.004	1.0	GoodResponse	0	0.188	525.608	3	55	Target	Neutral	True
526.608	0.3	Control	0.6607	0.004	Yes	3.026	-0.004	1.0	GoodResponse	0	0.188	n/a	3	55	ButtonPress	Neutral	True
526.821	0.31	Control	0.6607	n/a	Yes	3.026	n/a	n/a	GoodResponse	0	n/a	n/a	3	55	Blank	Neutral	True
527.122	1.45	Control	0.6607	n/a	Yes	3.026	n/a	5.0	GoodResponse	0	0.019	526.141	3	55	Feedback	Neutral	True
528.576	3.026	Control	0.6607	n/a	Yes	3.026	n/a	n/a	GoodResponse	0	0.0	n/a	3	55	ISIslide	Neutral	True
531.619	0.25	Control	0.6667000000000001	0.0	Yes	2.831	0.019	n/a	GoodResponse	0	n/a	n/a	3	56	Cue	Neutral	True
531.87	3.95	Control	0.6667000000000001	0.0	Yes	2.831	0.001	n/a	GoodResponse	0	n/a	n/a	3	56	Fixation	Neutral	True
535.815	0.39	Control	0.6667000000000001	0.004	Yes	2.831	-0.004	1.0	GoodResponse	0	0.287	535.102	3	56	Target	Neutral	True
536.102	0.3	Control	0.6667000000000001	0.004	Yes	2.831	-0.004	1.0	GoodResponse	0	0.287	n/a	3	56	ButtonPress	Neutral	True
536.216	0.31	Control	0.6667000000000001	n/a	Yes	2.831	n/a	n/a	GoodResponse	0	n/a	n/a	3	56	Blank	Neutral	True
536.517	1.45	Control	0.6667000000000001	n/a	Yes	2.831	n/a	5.0	GoodResponse	0	0.039	535.556	3	56	Feedback	Neutral	True
537.971	2.831	Control	0.6667000000000001	n/a	Yes	2.831	n/a	n/a	GoodResponse	0	0.0	n/a	3	56	ISIslide	Neutral	True
540.83	0.25	Control	0.6724	0.0	Yes	3.47	0.03	n/a	GoodResponse	0	n/a	n/a	3	57	Cue	Neutral	True
541.081	4.0	Control	0.6724	0.0	Yes	3.47	0.001	n/a	GoodResponse	0	n/a	n/a	3	57	Fixation	Neutral	True
545.076	0.38	Control	0.6724	0.004	Yes	3.47	-0.004	1.0	GoodResponse	0	0.223	544.299	3	57	Target	Neutral	True
545.299	0.3	Control	0.6724	0.004	Yes	3.47	-0.004	1.0	GoodResponse	0	0.223	n/a	3	57	ButtonPress	Neutral	True
545.46	0.32	Control	0.6724	n/a	Yes	3.47	n/a	n/a	GoodResponse	0	n/a	n/a	3	57	Blank	Neutral	True
545.778	1.45	Control	0.6724	n/a	Yes	3.47	n/a	5.0	GoodResponse	0	0.047	544.825	3	57	Feedback	Neutral	True
547.232	3.47	Control	0.6724	n/a	Yes	3.47	n/a	n/a	GoodResponse	0	0.0	n/a	3	57	ISIslide	Neutral	True
550.726	0.25	Win2	0.6779999999999999	0.0	Yes	2.724	0.026	n/a	GoodResponse	1	n/a	n/a	4	58	Cue	Win	True
550.977	4.05	Win2	0.6779999999999999	0.0	Yes	2.724	0.001	n/a	GoodResponse	1	n/a	n/a	4	58	Fixation	Win	True
555.022	0.37	Win2	0.6779999999999999	0.004	Yes	2.724	-0.004	1.0	GoodResponse	1	0.18	554.202	4	58	Target	Win	True
555.202	0.3	Win2	0.6779999999999999	0.004	Yes	2.724	-0.004	1.0	GoodResponse	1	0.18	n/a	4	58	ButtonPress	Win	True
555.407	0.33	Win2	0.6779999999999999	n/a	Yes	2.724	n/a	n/a	GoodResponse	1	n/a	n/a	4	58	Blank	Win	True
555.724	1.45	Win2	0.6779999999999999	n/a	Yes	2.724	n/a	5.0	GoodResponse	1	0.008	554.732	4	58	Feedback	Win	True
557.179	2.724	Win2	0.6779999999999999	n/a	Yes	2.724	n/a	n/a	GoodResponse	1	0.0	n/a	4	58	ISIslide	Win	True
559.92	0.25	Lose2	0.6833	0.0	Yes	2.68	0.02	n/a	GoodResponse	0	n/a	n/a	4	59	Cue	AvoidedLoss	True
560.171	4.0	Lose2	0.6833	0.0	Yes	2.68	0.001	n/a	GoodResponse	0	n/a	n/a	4	59	Fixation	AvoidedLoss	True
564.166	0.36	Lose2	0.6833	0.004	Yes	2.68	-0.004	1.0	GoodResponse	0	0.338	563.504	4	59	Target	AvoidedLoss	True
564.504	0.3	Lose2	0.6833	0.004	Yes	2.68	-0.004	1.0	GoodResponse	0	0.338	n/a	4	59	ButtonPress	AvoidedLoss	True
564.534	0.34	Lose2	0.6833	n/a	Yes	2.68	n/a	n/a	GoodResponse	0	n/a	n/a	4	59	Blank	AvoidedLoss	True
564.868	1.45	Lose2	0.6833	n/a	Yes	2.68	n/a	5.0	GoodResponse	0	0.029	563.897	4	59	Feedback	AvoidedLoss	True
566.323	2.68	Lose2	0.6833	n/a	Yes	2.68	n/a	n/a	GoodResponse	0	0.0	n/a	4	59	ISIslide	AvoidedLoss	True
569.031	0.25	Control	0.6720999999999999	0.0	No	2.669	0.031	n/a	NoResponse	0	n/a	n/a	4	60	Cue	Neutral	True
569.281	4.0	Control	0.6720999999999999	0.0	No	2.669	0.0	1.0	NoResponse	0	0.483	568.764	4	60	Fixation	Neutral	True
569.764	0.3	Control	0.6720999999999999	0.0	No	2.669	0.0	1.0	NoResponse	0	0.483	n/a	4	60	ButtonPress	Neutral	True
573.277	0.35	Control	0.6720999999999999	0.004	No	2.669	-0.004	n/a	NoResponse	0	n/a	n/a	4	60	Target	Neutral	True
573.628	0.35	Control	0.6720999999999999	n/a	No	2.669	n/a	n/a	NoResponse	0	n/a	n/a	4	60	Blank	Neutral	True
573.979	1.45	Control	0.6720999999999999	n/a	No	2.669	n/a	5.0	NoResponse	0	0.04	573.019	4	60	Feedback	Neutral	True
575.433	2.669	Control	0.6720999999999999	n/a	No	2.669	n/a	n/a	NoResponse	0	0.0	n/a	4	60	ISIslide	Neutral	True
578.124	0.25	Lose2	0.6774	0.001	Yes	2.976	0.024	n/a	GoodResponse	0	n/a	n/a	4	61	Cue	AvoidedLoss	True
578.375	4.0	Lose2	0.6774	0.0	Yes	2.976	0.001	n/a	GoodResponse	0	n/a	n/a	4	61	Fixation	AvoidedLoss	True
582.37	0.34	Lose2	0.6774	0.004	Yes	2.976	-0.004	1.0	GoodResponse	0	0.201	581.571	4	61	Target	AvoidedLoss	True
582.571	0.3	Lose2	0.6774	0.004	Yes	2.976	-0.004	1.0	GoodResponse	0	0.201	n/a	4	61	ButtonPress	AvoidedLoss	True
582.722	0.36	Lose2	0.6774	n/a	Yes	2.976	n/a	n/a	GoodResponse	0	n/a	n/a	4	61	Blank	AvoidedLoss	True
583.073	1.45	Lose2	0.6774	n/a	Yes	2.976	n/a	5.0	GoodResponse	0	0.019	582.092	4	61	Feedback	AvoidedLoss	True
584.527	2.976	Lose2	0.6774	n/a	Yes	2.976	n/a	n/a	GoodResponse	0	0.0	n/a	4	61	ISIslide	AvoidedLoss	True
587.519	0.25	Lose2	0.6667000000000001	0.0	No	2.881	0.019	n/a	NoResponse	-1	n/a	n/a	3	62	Cue	Loss	True
587.77	3.9	Lose2	0.6667000000000001	0.0	No	2.881	0.001	n/a	NoResponse	-1	n/a	n/a	3	62	Fixation	Loss	True
591.665	0.33	Lose2	0.6667000000000001	0.004	No	2.881	-0.004	1.0	NoResponse	-1	0.342	591.007	3	62	Target	Loss	True
591.999	0.37	Lose2	0.6667000000000001	n/a	No	2.881	n/a	n/a	NoResponse	-1	n/a	n/a	3	62	Blank	Loss	True
592.007	0.3	Lose2	0.6667000000000001	0.004	No	2.881	-0.004	1.0	NoResponse	-1	0.342	n/a	3	62	ButtonPress	Loss	True
592.367	1.45	Lose2	0.6667000000000001	n/a	No	2.881	n/a	5.0	NoResponse	-1	0.041	591.408	3	62	Feedback	Loss	True
593.821	2.881	Lose2	0.6667000000000001	n/a	No	2.881	n/a	n/a	NoResponse	-1	0.0	n/a	3	62	ISIslide	Loss	True
596.73	0.25	Lose2	0.6718999999999999	0.0	Yes	2.62	0.03	n/a	GoodResponse	0	n/a	n/a	3	63	Cue	AvoidedLoss	True
596.981	4.05	Lose2	0.6718999999999999	0.0	Yes	2.62	0.001	n/a	GoodResponse	0	n/a	n/a	3	63	Fixation	AvoidedLoss	True
601.026	0.32	Lose2	0.6718999999999999	0.004	Yes	2.62	-0.004	1.0	GoodResponse	0	0.223	600.249	3	63	Target	AvoidedLoss	True
601.249	0.3	Lose2	0.6718999999999999	0.004	Yes	2.62	-0.004	1.0	GoodResponse	0	0.223	n/a	3	63	ButtonPress	AvoidedLoss	True
601.361	0.38	Lose2	0.6718999999999999	n/a	Yes	2.62	n/a	n/a	GoodResponse	0	n/a	n/a	3	63	Blank	AvoidedLoss	True
601.728	1.45	Lose2	0.6718999999999999	n/a	Yes	2.62	n/a	5.0	GoodResponse	0	0.046	600.774	3	63	Feedback	AvoidedLoss	True
603.183	2.62	Lose2	0.6718999999999999	n/a	Yes	2.62	n/a	n/a	GoodResponse	0	0.0	n/a	3	63	ISIslide	AvoidedLoss	True
605.824	0.25	Win2	0.6769	0.0	Yes	3.126	0.024	n/a	GoodResponse	1	n/a	n/a	4	64	Cue	Win	True
606.075	4.15	Win2	0.6769	0.0	Yes	3.126	0.001	n/a	GoodResponse	1	n/a	n/a	4	64	Fixation	Win	True
610.22	0.31	Win2	0.6769	0.004	Yes	3.126	-0.004	1.0	GoodResponse	1	0.178	609.398	4	64	Target	Win	True
610.398	0.3	Win2	0.6769	0.004	Yes	3.126	-0.004	1.0	GoodResponse	1	0.178	n/a	4	64	ButtonPress	Win	True
610.538	0.39	Win2	0.6769	n/a	Yes	3.126	n/a	n/a	GoodResponse	1	n/a	n/a	4	64	Blank	Win	True
610.922	1.45	Win2	0.6769	n/a	Yes	3.126	n/a	5.0	GoodResponse	1	0.023	609.945	4	64	Feedback	Win	True
612.377	3.126	Win2	0.6769	n/a	Yes	3.126	n/a	n/a	GoodResponse	1	0.0	n/a	4	64	ISIslide	Win	True
615.519	0.25	Control	0.6818000000000001	0.001	Yes	2.781	0.019	n/a	GoodResponse	0	n/a	n/a	4	65	Cue	Neutral	True
615.77	4.0	Control	0.6818000000000001	0.0	Yes	2.781	0.001	n/a	GoodResponse	0	n/a	n/a	4	65	Fixation	Neutral	True
619.766	0.3	Control	0.6818000000000001	0.003	Yes	2.781	-0.003	1.0	GoodResponse	0	0.264	619.03	4	65	Target	Neutral	True
620.03	0.3	Control	0.6818000000000001	0.003	Yes	2.781	-0.003	1.0	GoodResponse	0	0.264	n/a	4	65	ButtonPress	Neutral	True
620.066	0.4	Control	0.6818000000000001	n/a	Yes	2.781	n/a	n/a	GoodResponse	0	n/a	n/a	4	65	Blank	Neutral	True
620.468	1.45	Control	0.6818000000000001	n/a	Yes	2.781	n/a	5.0	GoodResponse	0	0.038	619.506	4	65	Feedback	Neutral	True
621.922	2.781	Control	0.6818000000000001	n/a	Yes	2.781	n/a	n/a	GoodResponse	0	0.0	n/a	4	65	ISIslide	Neutral	True
624.73	0.25	Win2	0.6866	0.0	Yes	2.77	0.03	n/a	GoodResponse	1	n/a	n/a	5	66	Cue	Win	True
624.981	3.9	Win2	0.6866	0.0	Yes	2.77	0.001	n/a	GoodResponse	1	n/a	n/a	5	66	Fixation	Win	True
628.876	0.29	Win2	0.6866	0.004	Yes	2.77	-0.004	1.0	GoodResponse	1	0.224	628.1	5	66	Target	Win	True
629.1	0.3	Win2	0.6866	0.004	Yes	2.77	-0.004	1.0	GoodResponse	1	0.224	n/a	5	66	ButtonPress	Win	True
629.177	0.41	Win2	0.6866	n/a	Yes	2.77	n/a	n/a	GoodResponse	1	n/a	n/a	5	66	Blank	Win	True
629.578	1.45	Win2	0.6866	n/a	Yes	2.77	n/a	5.0	GoodResponse	1	0.001	628.579	5	66	Feedback	Win	True
631.032	2.77	Win2	0.6866	n/a	Yes	2.77	n/a	n/a	GoodResponse	1	0.0	n/a	5	66	ISIslide	Win	True
633.824	0.25	Control	0.6765000000000001	0.0	No	2.726	0.024	n/a	PrematurePress	0	n/a	n/a	5	67	Cue	Neutral	True
634.075	3.95	Control	0.6765000000000001	0.0	No	2.726	0.001	n/a	PrematurePress	0	n/a	n/a	5	67	Fixation	Neutral	True
638.02	0.28	Control	0.6765000000000001	0.004	No	2.726	-0.004	1.0	PrematurePress	0	0.095	637.115	5	67	Target	Neutral	True
638.115	0.3	Control	0.6765000000000001	0.004	No	2.726	-0.004	1.0	PrematurePress	0	0.095	n/a	5	67	ButtonPress	Neutral	True
638.304	0.42	Control	0.6765000000000001	n/a	No	2.726	n/a	n/a	PrematurePress	0	n/a	n/a	5	67	Blank	Neutral	True
638.722	1.45	Control	0.6765000000000001	n/a	No	2.726	n/a	5.0	PrematurePress	0	0.028	637.75	5	67	Feedback	Neutral	True
640.176	2.726	Control	0.6765000000000001	n/a	No	2.726	n/a	n/a	PrematurePress	0	0.0	n/a	5	67	ISIslide	Neutral	True
642.918	0.25	Win2	0.6812	0.0	Yes	3.082	0.018	n/a	GoodResponse	1	n/a	n/a	6	68	Cue	Win	True
643.169	4.0	Win2	0.6812	0.0	Yes	3.082	0.001	n/a	GoodResponse	1	n/a	n/a	6	68	Fixation	Win	True
647.164	0.27	Win2	0.6812	0.004	Yes	3.082	-0.004	1.0	GoodResponse	1	0.215	646.379	6	68	Target	Win	True
647.379	0.3	Win2	0.6812	0.004	Yes	3.082	-0.004	1.0	GoodResponse	1	0.215	n/a	6	68	ButtonPress	Win	True
647.448	0.43	Win2	0.6812	n/a	Yes	3.082	n/a	n/a	GoodResponse	1	n/a	n/a	6	68	Blank	Win	True
647.866	1.45	Win2	0.6812	n/a	Yes	3.082	n/a	5.0	GoodResponse	1	0.008	646.874	6	68	Feedback	Win	True
649.32	3.082	Win2	0.6812	n/a	Yes	3.082	n/a	n/a	GoodResponse	1	0.0	n/a	6	68	ISIslide	Win	True
652.43	0.25	Win2	0.6857	0.0	Yes	3.22	0.03	n/a	GoodResponse	1	n/a	n/a	7	69	Cue	Win	True
652.68	3.95	Win2	0.6857	0.001	Yes	3.22	0.0	n/a	GoodResponse	1	n/a	n/a	7	69	Fixation	Win	True
656.626	0.26	Win2	0.6857	0.004	Yes	3.22	-0.004	1.0	GoodResponse	1	0.201	655.827	7	69	Target	Win	True
656.827	0.3	Win2	0.6857	0.004	Yes	3.22	-0.004	1.0	GoodResponse	1	0.201	n/a	7	69	ButtonPress	Win	True
656.893	0.44	Win2	0.6857	n/a	Yes	3.22	n/a	n/a	GoodResponse	1	n/a	n/a	7	69	Blank	Win	True
657.328	1.45	Win2	0.6857	n/a	Yes	3.22	n/a	5.0	GoodResponse	1	0.007	656.335	7	69	Feedback	Win	True
658.782	3.22	Win2	0.6857	n/a	Yes	3.22	n/a	n/a	GoodResponse	1	0.0	n/a	7	69	ISIslide	Win	True
662.025	0.25	Lose2	0.6901	0.0	Yes	3.025	0.025	n/a	GoodResponse	0	n/a	n/a	7	70	Cue	AvoidedLoss	True
662.276	4.05	Lose2	0.6901	0.0	Yes	3.025	0.001	n/a	GoodResponse	0	n/a	n/a	7	70	Fixation	AvoidedLoss	True
666.321	0.25	Lose2	0.6901	0.004	Yes	3.025	-0.004	1.0	GoodResponse	0	0.193	665.514	7	70	Target	AvoidedLoss	True
666.514	0.3	Lose2	0.6901	0.004	Yes	3.025	-0.004	1.0	GoodResponse	0	0.193	n/a	7	70	ButtonPress	AvoidedLoss	True
666.572	0.45	Lose2	0.6901	n/a	Yes	3.025	n/a	n/a	GoodResponse	0	n/a	n/a	7	70	Blank	AvoidedLoss	True
667.023	1.45	Lose2	0.6901	n/a	Yes	3.025	n/a	5.0	GoodResponse	0	0.019	666.042	7	70	Feedback	AvoidedLoss	True
668.478	3.025	Lose2	0.6901	n/a	Yes	3.025	n/a	n/a	GoodResponse	0	0.0	n/a	7	70	ISIslide	AvoidedLoss	True
671.52	0.25	Win2	0.6806	0.0	No	2.73	0.02	n/a	NoResponse	0	n/a	n/a	7	71	Cue	MissedWin	True
671.771	4.05	Win2	0.6806	0.0	No	2.73	0.001	1.0	NoResponse	0	3.826	674.597	7	71	Fixation	MissedWin	True
675.597	0.3	Win2	0.6806	0.0	No	2.73	0.001	1.0	NoResponse	0	3.826	n/a	7	71	ButtonPress	MissedWin	True
675.816	0.24	Win2	0.6806	0.004	No	2.73	-0.004	n/a	NoResponse	0	n/a	n/a	7	71	Target	MissedWin	True
676.067	0.46	Win2	0.6806	n/a	No	2.73	n/a	n/a	NoResponse	0	n/a	n/a	7	71	Blank	MissedWin	True
676.518	1.45	Win2	0.6806	n/a	No	2.73	n/a	5.0	NoResponse	0	0.036	675.554	7	71	Feedback	MissedWin	True
677.973	2.73	Win2	0.6806	n/a	No	2.73	n/a	n/a	NoResponse	0	0.0	n/a	7	71	ISIslide	MissedWin	True
680.731	0.25	Win2	0.6849	0.0	Yes	2.769	0.031	n/a	GoodResponse	1	n/a	n/a	8	72	Cue	Win	True
680.982	4.1	Win2	0.6849	0.0	Yes	2.769	0.001	n/a	GoodResponse	1	n/a	n/a	8	72	Fixation	Win	True
685.077	0.23	Win2	0.6849	0.004	Yes	2.769	-0.004	1.0	GoodResponse	1	0.171	684.248	8	72	Target	Win	True
685.248	0.3	Win2	0.6849	0.004	Yes	2.769	-0.004	1.0	GoodResponse	1	0.171	n/a	8	72	ButtonPress	Win	True
685.311	0.47	Win2	0.6849	n/a	Yes	2.769	n/a	n/a	GoodResponse	1	n/a	n/a	8	72	Blank	Win	True
685.779	1.45	Win2	0.6849	n/a	Yes	2.769	n/a	5.0	GoodResponse	1	0.043	684.822	8	72	Feedback	Win	True
687.234	2.769	Win2	0.6849	n/a	Yes	2.769	n/a	n/a	GoodResponse	1	0.0	n/a	8	72	ISIslide	Win	True
690.025	0.25	Win2	0.6892	0.0	Yes	2.675	0.025	n/a	GoodResponse	1	n/a	n/a	9	73	Cue	Win	True
690.276	4.0	Win2	0.6892	0.0	Yes	2.675	0.001	n/a	GoodResponse	1	n/a	n/a	9	73	Fixation	Win	True
694.271	0.22	Win2	0.6892	0.004	Yes	2.675	-0.004	1.0	GoodResponse	1	0.216	693.487	9	73	Target	Win	True
694.487	0.3	Win2	0.6892	0.004	Yes	2.675	-0.004	1.0	GoodResponse	1	0.216	n/a	9	73	ButtonPress	Win	True
694.505	0.48	Win2	0.6892	n/a	Yes	2.675	n/a	n/a	GoodResponse	1	n/a	n/a	9	73	Blank	Win	True
694.973	1.45	Win2	0.6892	n/a	Yes	2.675	n/a	5.0	GoodResponse	1	0.02	693.993	9	73	Feedback	Win	True
696.428	2.675	Win2	0.6892	n/a	Yes	2.675	n/a	n/a	GoodResponse	1	0.0	n/a	9	73	ISIslide	Win	True
699.119	0.25	Lose2	0.68	0.0	No	2.631	0.019	n/a	NoResponse	-1	n/a	n/a	8	74	Cue	Loss	True
699.37	4.05	Lose2	0.68	0.0	No	2.631	0.001	n/a	NoResponse	-1	n/a	n/a	8	74	Fixation	Loss	True
703.415	0.21	Lose2	0.68	0.004	No	2.631	-0.004	1.0	NoResponse	-1	0.298	702.713	8	74	Target	Loss	True
703.633	0.49	Lose2	0.68	n/a	No	2.631	n/a	n/a	NoResponse	-1	n/a	n/a	8	74	Blank	Loss	True
703.713	0.3	Lose2	0.68	0.004	No	2.631	-0.004	1.0	NoResponse	-1	0.298	n/a	8	74	ButtonPress	Loss	True
704.117	1.45	Lose2	0.68	n/a	No	2.631	n/a	5.0	NoResponse	-1	0.046	703.163	8	74	Feedback	Loss	True
705.572	2.631	Lose2	0.68	n/a	No	2.631	n/a	n/a	NoResponse	-1	0.0	n/a	8	74	ISIslide	Loss	True
708.23	0.25	Lose2	0.6842	0.0	Yes	2.92	0.03	n/a	GoodResponse	0	n/a	n/a	8	75	Cue	AvoidedLoss	True
708.48	3.95	Lose2	0.6842	0.001	Yes	2.92	0.0	n/a	GoodResponse	0	n/a	n/a	8	75	Fixation	AvoidedLoss	True
712.426	0.2	Lose2	0.6842	0.004	Yes	2.92	-0.004	1.0	GoodResponse	0	0.19	711.616	8	75	Target	AvoidedLoss	True
712.616	0.3	Lose2	0.6842	0.004	Yes	2.92	-0.004	1.0	GoodResponse	0	0.19	n/a	8	75	ButtonPress	AvoidedLoss	True
712.626	0.5	Lose2	0.6842	n/a	Yes	2.92	n/a	n/a	GoodResponse	0	n/a	n/a	8	75	Blank	AvoidedLoss	True
713.128	1.45	Lose2	0.6842	n/a	Yes	2.92	n/a	5.0	GoodResponse	0	0.011	712.139	8	75	Feedback	AvoidedLoss	True
714.582	2.92	Lose2	0.6842	n/a	Yes	2.92	n/a	n/a	GoodResponse	0	0.0	n/a	8	75	ISIslide	AvoidedLoss	True
717.524	0.25	Control	0.6753	0.0	No	3.226	0.024	n/a	NoResponse	0	n/a	n/a	8	76	Cue	Neutral	True
717.775	4.05	Control	0.6753	0.0	No	3.226	0.001	n/a	NoResponse	0	n/a	n/a	8	76	Fixation	Neutral	True
721.82	0.19	Control	0.6753	0.004	No	3.226	-0.004	1.0	NoResponse	0	0.256	721.076	8	76	Target	Neutral	True
722.021	0.51	Control	0.6753	n/a	No	3.226	n/a	n/a	NoResponse	0	n/a	n/a	8	76	Blank	Neutral	True
722.076	0.3	Control	0.6753	0.004	No	3.226	-0.004	1.0	NoResponse	0	0.256	n/a	8	76	ButtonPress	Neutral	True
722.522	1.45	Control	0.6753	n/a	No	3.226	n/a	5.0	NoResponse	0	0.031	721.553	8	76	Feedback	Neutral	True
723.977	3.226	Control	0.6753	n/a	No	3.226	n/a	n/a	NoResponse	0	0.0	n/a	8	76	ISIslide	Neutral	True
727.22	0.25	Lose2	0.6667000000000001	0.0	No	2.58	0.02	n/a	NoResponse	-1	n/a	n/a	7	77	Cue	Loss	True
727.47	3.95	Lose2	0.6667000000000001	0.001	No	2.58	0.0	n/a	NoResponse	-1	n/a	n/a	7	77	Fixation	Loss	True
731.416	0.18	Lose2	0.6667000000000001	0.004	No	2.58	-0.004	1.0	NoResponse	-1	0.203	730.619	7	77	Target	Loss	True
731.599	0.52	Lose2	0.6667000000000001	n/a	No	2.58	n/a	n/a	NoResponse	-1	n/a	n/a	7	77	Blank	Loss	True
731.619	0.3	Lose2	0.6667000000000001	0.004	No	2.58	-0.004	1.0	NoResponse	-1	0.203	n/a	7	77	ButtonPress	Loss	True
732.118	1.45	Lose2	0.6667000000000001	n/a	No	2.58	n/a	5.0	NoResponse	-1	0.045	731.163	7	77	Feedback	Loss	True
733.572	2.58	Lose2	0.6667000000000001	n/a	No	2.58	n/a	n/a	NoResponse	-1	0.0	n/a	7	77	ISIslide	Loss	True
