onset	duration	cue_type	current_mean_accuracy	duration_error	is_hit	isi_adjusted	onset_delay	response	response_type	reward	rt	rt_time	total_reward	trial_number	trial_phase	trial_type	one_press
11.097	0.25	Control	1.0	0.0	Yes	2.953	-0.003	n/a	GoodResponse	0	n/a	n/a	0	0	Cue	Neutral	True
11.348	3.85	Control	1.0	0.0	Yes	2.953	0.001	n/a	GoodResponse	0	n/a	n/a	0	0	Fixation	Neutral	True
15.193	0.4	Control	1.0	0.004	Yes	2.953	-0.004	4.0	GoodResponse	0	0.387	14.58	0	0	Target	Neutral	True
15.58	0.3	Control	1.0	0.004	Yes	2.953	-0.004	4.0	GoodResponse	0	0.387	n/a	0	0	ButtonPress	Neutral	True
15.594	0.3	Control	1.0	n/a	Yes	2.953	n/a	n/a	GoodResponse	0	n/a	n/a	0	0	Blank	Neutral	True
15.895	1.45	Control	1.0	n/a	Yes	2.953	n/a	5.0	GoodResponse	0	0.031	14.926	0	0	Feedback	Neutral	True
17.349	2.953	Control	1.0	n/a	Yes	2.953	n/a	n/a	GoodResponse	0	0.0	n/a	0	0	ISIslide	Neutral	True
20.325	0.25	Lose2	0.5	0.0	No	2.775	0.025	n/a	NoResponse	-1	n/a	n/a	-1	1	Cue	Loss	True
20.576	4.0	Lose2	0.5	0.0	No	2.775	0.001	n/a	NoResponse	-1	n/a	n/a	-1	1	Fixation	Loss	True
24.571	0.39	Lose2	0.5	0.004	No	2.775	-0.004	4.0	NoResponse	-1	0.653	24.224	-1	1	Target	Loss	True
24.972	0.31	Lose2	0.5	n/a	No	2.775	n/a	n/a	NoResponse	-1	n/a	n/a	-1	1	Blank	Loss	True
25.224	0.3	Lose2	0.5	0.004	No	2.775	-0.004	4.0	NoResponse	-1	0.653	n/a	-1	1	ButtonPress	Loss	True
25.273	1.45	Lose2	0.5	n/a	No	2.775	n/a	5.0	NoResponse	-1	0.018	24.291	-1	1	Feedback	Loss	True
26.727	2.775	Lose2	0.5	n/a	No	2.775	n/a	n/a	NoResponse	-1	0.0	n/a	-1	1	ISIslide	Loss	True
29.519	0.25	Control	0.6667000000000001	0.0	Yes	2.581	0.019	n/a	GoodResponse	0	n/a	n/a	-1	2	Cue	Neutral	True
29.77	4.1	Control	0.6667000000000001	0.0	Yes	2.581	0.001	n/a	GoodResponse	0	n/a	n/a	-1	2	Fixation	Neutral	True
33.865	0.4	Control	0.6667000000000001	0.004	Yes	2.581	-0.004	4.0	GoodResponse	0	0.231	33.096	-1	2	Target	Neutral	True
34.096	0.3	Control	0.6667000000000001	0.004	Yes	2.581	-0.004	4.0	GoodResponse	0	0.231	n/a	-1	2	ButtonPress	Neutral	True
34.266	0.3	Control	0.6667000000000001	n/a	Yes	2.581	n/a	n/a	GoodResponse	0	n/a	n/a	-1	2	Blank	Neutral	True
34.567	1.45	Control	0.6667000000000001	n/a	Yes	2.581	n/a	5.0	GoodResponse	0	0.042	33.609	-1	2	Feedback	Neutral	True
36.022	2.581	Control	0.6667000000000001	n/a	Yes	2.581	n/a	n/a	GoodResponse	0	0.0	n/a	-1	2	ISIslide	Neutral	True
38.629	0.25	Win2	0.75	0.001	Yes	2.821	0.029	n/a	GoodResponse	1	n/a	n/a	0	3	Cue	Win	True
38.88	3.95	Win2	0.75	0.0	Yes	2.821	0.001	n/a	GoodResponse	1	n/a	n/a	0	3	Fixation	Win	True
42.825	0.39	Win2	0.75	0.004	Yes	2.821	-0.004	4.0	GoodResponse	1	0.216	42.041	0	3	Target	Win	True
43.041	0.3	Win2	0.75	0.004	Yes	2.821	-0.004	4.0	GoodResponse	1	0.216	n/a	0	3	ButtonPress	Win	True
43.227	0.31	Win2	0.75	n/a	Yes	2.821	n/a	n/a	GoodResponse	1	n/a	n/a	0	3	Blank	Win	True
43.527	1.45	Win2	0.75	n/a	Yes	2.821	n/a	5.0	GoodResponse	1	0.009	42.536	0	3	Feedback	Win	True
44.982	2.821	Win2	0.75	n/a	Yes	2.821	n/a	n/a	GoodResponse	1	0.0	n/a	0	3	ISIslide	Win	True
47.824	0.25	Win2	0.6	0.0	No	3.276	0.024	n/a	NoResponse	0	n/a	n/a	0	4	Cue	MissedWin	True
48.074	4.0	Win2	0.6	0.0	No	3.276	0.0	n/a	NoResponse	0	n/a	n/a	0	4	Fixation	MissedWin	True
52.07	0.38	Win2	0.6	0.004	No	3.276	-0.004	4.0	NoResponse	0	0.428	51.498	0	4	Target	MissedWin	True
52.454	0.32	Win2	0.6	n/a	No	3.276	n/a	n/a	NoResponse	0	n/a	n/a	0	4	Blank	MissedWin	True
52.498	0.3	Win2	0.6	0.004	No	3.276	-0.004	4.0	NoResponse	0	0.428	n/a	0	4	ButtonPress	MissedWin	True
52.772	1.45	Win2	0.6	n/a	No	3.276	n/a	5.0	NoResponse	0	0.031	51.803	0	4	Feedback	MissedWin	True
54.226	3.276	Win2	0.6	n/a	No	3.276	n/a	n/a	NoResponse	0	0.0	n/a	0	4	ISIslide	MissedWin	True
57.519	0.25	Win2	0.6667000000000001	0.0	Yes	2.781	0.019	n/a	GoodResponse	1	n/a	n/a	1	5	Cue	Win	True
57.77	4.0	Win2	0.6667000000000001	0.0	Yes	2.781	0.001	n/a	GoodResponse	1	n/a	n/a	1	5	Fixation	Win	True
61.765	0.39	Win2	0.6667000000000001	0.004	Yes	2.781	-0.004	4.0	GoodResponse	1	0.233	60.998	1	5	Target	Win	True
61.998	0.3	Win2	0.6667000000000001	0.004	Yes	2.781	-0.004	4.0	GoodResponse	1	0.233	n/a	1	5	ButtonPress	Win	True
62.166	0.31	Win2	0.6667000000000001	n/a	Yes	2.781	n/a	n/a	GoodResponse	1	n/a	n/a	1	5	Blank	Win	True
62.467	1.45	Win2	0.6667000000000001	n/a	Yes	2.781	n/a	5.0	GoodResponse	1	0.043	61.51	1	5	Feedback	Win	True
63.922	2.781	Win2	0.6667000000000001	n/a	Yes	2.781	n/a	n/a	GoodResponse	1	0.0	n/a	1	5	ISIslide	Win	True
66.73	0.25	Lose2	0.7143	0.0	Yes	2.72	0.03	n/a	GoodResponse	0	n/a	n/a	1	6	Cue	AvoidedLoss	True
66.981	3.95	Lose2	0.7143	0.0	Yes	2.72	0.001	n/a	GoodResponse	0	n/a	n/a	1	6	Fixation	AvoidedLoss	True
70.926	0.38	Lose2	0.7143	0.004	Yes	2.72	-0.004	4.0	GoodResponse	0	0.218	70.144	1	6	Target	AvoidedLoss	True
71.144	0.3	Lose2	0.7143	0.004	Yes	2.72	-0.004	4.0	GoodResponse	0	0.218	n/a	1	6	ButtonPress	AvoidedLoss	True
71.31	0.32	Lose2	0.7143	n/a	Yes	2.72	n/a	n/a	GoodResponse	0	n/a	n/a	1	6	Blank	AvoidedLoss	True
71.628	1.45	Lose2	0.7143	n/a	Yes	2.72	n/a	5.0	GoodResponse	0	0.007	70.635	1	6	Feedback	AvoidedLoss	True
73.082	2.72	Lose2	0.7143	n/a	Yes	2.72	n/a	n/a	GoodResponse	0	0.0	n/a	1	6	ISIslide	AvoidedLoss	True
75.824	0.25	Lose2	0.75	0.0	Yes	4.026	0.024	n/a	GoodResponse	0	n/a	n/a	1	7	Cue	AvoidedLoss	True
76.074	4.05	Lose2	0.75	0.001	Yes	4.026	0.0	n/a	GoodResponse	0	n/a	n/a	1	7	Fixation	AvoidedLoss	True
80.12	0.37	Lose2	0.75	0.004	Yes	4.026	-0.004	4.0	GoodResponse	0	0.245	79.365	1	7	Target	AvoidedLoss	True
80.365	0.3	Lose2	0.75	0.004	Yes	4.026	-0.004	4.0	GoodResponse	0	0.245	n/a	1	7	ButtonPress	AvoidedLoss	True
80.504	0.33	Lose2	0.75	n/a	Yes	4.026	n/a	n/a	GoodResponse	0	n/a	n/a	1	7	Blank	AvoidedLoss	True
80.822	1.45	Lose2	0.75	n/a	Yes	4.026	n/a	5.0	GoodResponse	0	0.03	79.852	1	7	Feedback	AvoidedLoss	True
82.276	4.026	Lose2	0.75	n/a	Yes	4.026	n/a	n/a	GoodResponse	0	0.0	n/a	1	7	ISIslide	AvoidedLoss	True
86.322	0.25	Lose2	0.7778	0.0	Yes	3.028	0.022	n/a	GoodResponse	0	n/a	n/a	1	8	Cue	AvoidedLoss	True
86.572	3.95	Lose2	0.7778	0.001	Yes	3.028	0.0	n/a	GoodResponse	0	n/a	n/a	1	8	Fixation	AvoidedLoss	True
90.518	0.36	Lose2	0.7778	0.004	Yes	3.028	-0.004	4.0	GoodResponse	0	0.308	89.826	1	8	Target	AvoidedLoss	True
90.826	0.3	Lose2	0.7778	0.004	Yes	3.028	-0.004	4.0	GoodResponse	0	0.308	n/a	1	8	ButtonPress	AvoidedLoss	True
90.885	0.34	Lose2	0.7778	n/a	Yes	3.028	n/a	n/a	GoodResponse	0	n/a	n/a	1	8	Blank	AvoidedLoss	True
91.22	1.45	Lose2	0.7778	n/a	Yes	3.028	n/a	5.0	GoodResponse	0	0.021	90.241	1	8	Feedback	AvoidedLoss	True
92.674	3.028	Lose2	0.7778	n/a	Yes	3.028	n/a	n/a	GoodResponse	0	0.0	n/a	1	8	ISIslide	AvoidedLoss	True
95.716	0.25	Lose2	0.8	0.0	Yes	3.134	0.016	n/a	GoodResponse	0	n/a	n/a	1	9	Cue	AvoidedLoss	True
95.967	3.95	Lose2	0.8	0.0	Yes	3.134	0.001	n/a	GoodResponse	0	n/a	n/a	1	9	Fixation	AvoidedLoss	True
99.912	0.35	Lose2	0.8	0.004	Yes	3.134	-0.004	4.0	GoodResponse	0	0.327	99.239	1	9	Target	AvoidedLoss	True
100.239	0.3	Lose2	0.8	0.004	Yes	3.134	-0.004	4.0	GoodResponse	0	0.327	n/a	1	9	ButtonPress	AvoidedLoss	True
100.263	0.35	Lose2	0.8	n/a	Yes	3.134	n/a	n/a	GoodResponse	0	n/a	n/a	1	9	Blank	AvoidedLoss	True
100.614	1.45	Lose2	0.8	n/a	Yes	3.134	n/a	5.0	GoodResponse	0	0.042	99.656	1	9	Feedback	AvoidedLoss	True
102.069	3.134	Lose2	0.8	n/a	Yes	3.134	n/a	n/a	GoodResponse	0	0.0	n/a	1	9	ISIslide	AvoidedLoss	True
105.228	0.25	Control	0.8181999999999999	0.0	Yes	3.272	0.028	n/a	GoodResponse	0	n/a	n/a	1	10	Cue	Neutral	True
105.479	4.0	Control	0.8181999999999999	0.0	Yes	3.272	0.001	n/a	GoodResponse	0	n/a	n/a	1	10	Fixation	Neutral	True
109.474	0.34	Control	0.8181999999999999	0.004	Yes	3.272	-0.004	4.0	GoodResponse	0	0.244	108.718	1	10	Target	Neutral	True
109.718	0.3	Control	0.8181999999999999	0.004	Yes	3.272	-0.004	4.0	GoodResponse	0	0.244	n/a	1	10	ButtonPress	Neutral	True
109.825	0.36	Control	0.8181999999999999	n/a	Yes	3.272	n/a	n/a	GoodResponse	0	n/a	n/a	1	10	Blank	Neutral	True
110.176	1.45	Control	0.8181999999999999	n/a	Yes	3.272	n/a	5.0	GoodResponse	0	0.041	109.217	1	10	Feedback	Neutral	True
111.631	3.272	Control	0.8181999999999999	n/a	Yes	3.272	n/a	n/a	GoodResponse	0	0.0	n/a	1	10	ISIslide	Neutral	True
114.924	0.25	Lose2	0.8332999999999999	0.0	Yes	2.726	0.024	n/a	GoodResponse	0	n/a	n/a	1	11	Cue	AvoidedLoss	True
115.174	4.05	Lose2	0.8332999999999999	0.001	Yes	2.726	0.0	n/a	GoodResponse	0	n/a	n/a	1	11	Fixation	AvoidedLoss	True
119.22	0.33	Lose2	0.8332999999999999	0.004	Yes	2.726	-0.004	4.0	GoodResponse	0	0.226	118.446	1	11	Target	AvoidedLoss	True
119.446	0.3	Lose2	0.8332999999999999	0.004	Yes	2.726	-0.004	4.0	GoodResponse	0	0.226	n/a	1	11	ButtonPress	AvoidedLoss	True
119.554	0.37	Lose2	0.8332999999999999	n/a	Yes	2.726	n/a	n/a	GoodResponse	0	n/a	n/a	1	11	Blank	AvoidedLoss	True
119.922	1.45	Lose2	0.8332999999999999	n/a	Yes	2.726	n/a	5.0	GoodResponse	0	0.007	118.929	1	11	Feedback	AvoidedLoss	True
121.376	2.726	Lose2	0.8332999999999999	n/a	Yes	2.726	n/a	n/a	GoodResponse	0	0.0	n/a	1	11	ISIslide	AvoidedLoss	True
124.118	0.25	Control	0.7692	0.0	No	2.982	0.018	n/a	LatePress	0	n/a	n/a	1	12	Cue	Neutral	True
124.369	3.9	Control	0.7692	0.0	No	2.982	0.001	n/a	LatePress	0	n/a	n/a	1	12	Fixation	Neutral	True
128.264	0.32	Control	0.7692	0.004	No	2.982	-0.004	4.0	LatePress	0	0.326	127.59	1	12	Target	Neutral	True
128.59	0.3	Control	0.7692	0.004	No	2.982	-0.004	4.0	LatePress	0	0.326	n/a	1	12	ButtonPress	Neutral	True
128.598	0.38	Control	0.7692	n/a	No	2.982	n/a	n/a	LatePress	0	n/a	n/a	1	12	Blank	Neutral	True
128.966	1.45	Control	0.7692	n/a	No	2.982	n/a	5.0	LatePress	0	0.031	127.997	1	12	Feedback	Neutral	True
130.42	2.982	Control	0.7692	n/a	No	2.982	n/a	n/a	LatePress	0	0.0	n/a	1	12	ISIslide	Neutral	True
133.429	0.25	Control	0.7143	0.0	No	2.771	0.029	n/a	NoResponse	0	n/a	n/a	1	13	Cue	Neutral	True
133.68	4.0	Control	0.7143	0.0	No	2.771	0.001	n/a	NoResponse	0	n/a	n/a	1	13	Fixation	Neutral	True
137.675	0.31	Control	0.7143	0.004	No	2.771	-0.004	4.0	NoResponse	0	0.528	137.203	1	13	Target	Neutral	True
137.993	0.39	Control	0.7143	n/a	No	2.771	n/a	n/a	NoResponse	0	n/a	n/a	1	13	Blank	Neutral	True
138.203	0.3	Control	0.7143	0.004	No	2.771	-0.004	4.0	NoResponse	0	0.528	n/a	1	13	ButtonPress	Neutral	True
138.377	1.45	Control	0.7143	n/a	No	2.771	n/a	5.0	NoResponse	0	0.035	137.412	1	13	Feedback	Neutral	True
139.831	2.771	Control	0.7143	n/a	No	2.771	n/a	n/a	NoResponse	0	0.0	n/a	1	13	ISIslide	Neutral	True
142.623	0.25	Win2	0.7333	0.0	Yes	2.677	0.023	n/a	GoodResponse	1	n/a	n/a	2	14	Cue	Win	False
142.874	4.1	Win2	0.7333	0.0	Yes	2.677	0.001	4.0	GoodResponse	1	3.768	145.642	2	14	Fixation	Win	False
146.642	0.3	Win2	0.7333	0.0	Yes	2.677	0.001	4.0	GoodResponse	1	3.768	n/a	2	14	ButtonPress	Win	False
146.969	0.3	Win2	0.7333	0.004	Yes	2.677	-0.004	4.0	GoodResponse	1	0.196	146.165	2	14	Target	Win	False
147.165	0.3	Win2	0.7333	0.004	Yes	2.677	-0.004	4.0	GoodResponse	1	0.196	n/a	2	14	ButtonPress	Win	False
147.27	0.4	Win2	0.7333	n/a	Yes	2.677	n/a	n/a	GoodResponse	1	n/a	n/a	2	14	Blank	Win	False
147.671	1.45	Win2	0.7333	n/a	Yes	2.677	n/a	5.0	GoodResponse	1	0.009	146.68	2	14	Feedback	Win	False
149.126	2.677	Win2	0.7333	n/a	Yes	2.677	n/a	n/a	GoodResponse	1	0.0	n/a	2	14	ISIslide	Win	False
151.817	0.25	Control	0.6875	0.0	No	2.983	0.017	n/a	NoResponse	0	n/a	n/a	2	15	Cue	Neutral	True
152.068	4.0	Control	0.6875	0.0	No	2.983	0.001	n/a	NoResponse	0	n/a	n/a	2	15	Fixation	Neutral	True
156.063	0.29	Control	0.6875	0.004	No	2.983	-0.004	4.0	NoResponse	0	0.31	155.373	2	15	Target	Neutral	True
156.364	0.41	Control	0.6875	n/a	No	2.983	n/a	n/a	NoResponse	0	n/a	n/a	2	15	Blank	Neutral	True
156.373	0.3	Control	0.6875	0.004	No	2.983	-0.004	4.0	NoResponse	0	0.31	n/a	2	15	ButtonPress	Neutral	True
156.765	1.45	Control	0.6875	n/a	No	2.983	n/a	5.0	NoResponse	0	0.036	155.801	2	15	Feedback	Neutral	True
158.22	2.983	Control	0.6875	n/a	No	2.983	n/a	n/a	NoResponse	0	0.0	n/a	2	15	ISIslide	Neutral	True
161.229	0.25	Win2	0.7059000000000001	0.0	Yes	2.871	0.029	n/a	GoodResponse	1	n/a	n/a	3	16	Cue	Win	True
161.479	4.0	Win2	0.7059000000000001	0.0	Yes	2.871	0.0	n/a	GoodResponse	1	n/a	n/a	3	16	Fixation	Win	True
165.475	0.28	Win2	0.7059000000000001	0.004	Yes	2.871	-0.004	4.0	GoodResponse	1	0.206	164.681	3	16	Target	Win	True
165.681	0.3	Win2	0.7059000000000001	0.004	Yes	2.871	-0.004	4.0	GoodResponse	1	0.206	n/a	3	16	ButtonPress	Win	True
165.759	0.42	Win2	0.7059000000000001	n/a	Yes	2.871	n/a	n/a	GoodResponse	1	n/a	n/a	3	16	Blank	Win	True
166.177	1.45	Win2	0.7059000000000001	n/a	Yes	2.871	n/a	5.0	GoodResponse	1	0.039	165.216	3	16	Feedback	Win	True
167.631	2.871	Win2	0.7059000000000001	n/a	Yes	2.871	n/a	n/a	GoodResponse	1	0.0	n/a	3	16	ISIslide	Win	True
170.523	0.25	Lose2	0.7222	0.0	Yes	2.727	0.023	n/a	GoodResponse	0	n/a	n/a	3	17	Cue	AvoidedLoss	True
170.774	3.95	Lose2	0.7222	0.0	Yes	2.727	0.001	n/a	GoodResponse	0	n/a	n/a	3	17	Fixation	AvoidedLoss	True
174.719	0.27	Lose2	0.7222	0.004	Yes	2.727	-0.004	4.0	GoodResponse	0	0.233	173.952	3	17	Target	AvoidedLoss	True
174.952	0.3	Lose2	0.7222	0.004	Yes	2.727	-0.004	4.0	GoodResponse	0	0.233	n/a	3	17	ButtonPress	AvoidedLoss	True
175.003	0.43	Lose2	0.7222	n/a	Yes	2.727	n/a	n/a	GoodResponse	0	n/a	n/a	3	17	Blank	AvoidedLoss	True
175.421	1.45	Lose2	0.7222	n/a	Yes	2.727	n/a	5.0	GoodResponse	0	0.015	174.436	3	17	Feedback	AvoidedLoss	True
176.875	2.727	Lose2	0.7222	n/a	Yes	2.727	n/a	n/a	GoodResponse	0	0.0	n/a	3	17	ISIslide	AvoidedLoss	True
179.617	0.25	Lose2	0.7368000000000001	0.0	Yes	2.733	0.017	n/a	GoodResponse	0	n/a	n/a	3	18	Cue	AvoidedLoss	True
179.867	4.05	Lose2	0.7368000000000001	0.001	Yes	2.733	0.0	n/a	GoodResponse	0	n/a	n/a	3	18	Fixation	AvoidedLoss	True
183.913	0.26	Lose2	0.7368000000000001	0.004	Yes	2.733	-0.004	4.0	GoodResponse	0	0.234	183.147	3	18	Target	AvoidedLoss	True
184.147	0.3	Lose2	0.7368000000000001	0.004	Yes	2.733	-0.004	4.0	GoodResponse	0	0.234	n/a	3	18	ButtonPress	AvoidedLoss	True
184.18	0.44	Lose2	0.7368000000000001	n/a	Yes	2.733	n/a	n/a	GoodResponse	0	n/a	n/a	3	18	Blank	AvoidedLoss	True
184.615	1.45	Lose2	0.7368000000000001	n/a	Yes	2.733	n/a	5.0	GoodResponse	0	0.039	183.654	3	18	Feedback	AvoidedLoss	True
186.069	2.733	Lose2	0.7368000000000001	n/a	Yes	2.733	n/a	n/a	GoodResponse	0	0.0	n/a	3	18	ISIslide	AvoidedLoss	True
188.828	0.25	Control	0.7	0.0	No	2.922	0.028	n/a	NoResponse	0	n/a	n/a	3	19	Cue	Neutral	True
189.078	3.95	Control	0.7	0.0	No	2.922	0.0	n/a	NoResponse	0	n/a	n/a	3	19	Fixation	Neutral	True
193.04	0.25	Control	0.7	0.0	No	2.922	0.012	4.0	NoResponse	0	0.277	192.317	3	19	Target	Neutral	True
193.274	0.45	Control	0.7	n/a	No	2.922	n/a	n/a	NoResponse	0	n/a	n/a	3	19	Blank	Neutral	True
193.317	0.3	Control	0.7	0.0	No	2.922	0.012	4.0	NoResponse	0	0.277	n/a	3	19	ButtonPress	Neutral	True
193.725	1.45	Control	0.7	n/a	No	2.922	n/a	5.0	NoResponse	0	0.002	192.727	3	19	Feedback	Neutral	True
195.18	2.922	Control	0.7	n/a	No	2.922	n/a	n/a	NoResponse	0	0.0	n/a	3	19	ISIslide	Neutral	True
198.122	0.25	Control	0.7143	0.0	Yes	2.628	0.022	n/a	GoodResponse	0	n/a	n/a	3	20	Cue	Neutral	True
198.373	4.05	Control	0.7143	0.0	Yes	2.628	0.001	n/a	GoodResponse	0	n/a	n/a	3	20	Fixation	Neutral	True
202.418	0.24	Control	0.7143	0.004	Yes	2.628	-0.004	4.0	GoodResponse	0	0.23	201.648	3	20	Target	Neutral	True
202.648	0.3	Control	0.7143	0.004	Yes	2.628	-0.004	4.0	GoodResponse	0	0.23	n/a	3	20	ButtonPress	Neutral	True
202.669	0.46	Control	0.7143	n/a	Yes	2.628	n/a	n/a	GoodResponse	0	n/a	n/a	3	20	Blank	Neutral	True
203.12	1.45	Control	0.7143	n/a	Yes	2.628	n/a	5.0	GoodResponse	0	0.022	202.142	3	20	Feedback	Neutral	True
204.574	2.628	Control	0.7143	n/a	Yes	2.628	n/a	n/a	GoodResponse	0	0.0	n/a	3	20	ISIslide	Neutral	True
207.216	0.25	Control	0.7273000000000001	0.0	Yes	2.784	0.016	n/a	GoodResponse	0	n/a	n/a	3	21	Cue	Neutral	True
207.466	4.1	Control	0.7273000000000001	0.001	Yes	2.784	0.0	n/a	GoodResponse	0	n/a	n/a	3	21	Fixation	Neutral	True
211.562	0.23	Control	0.7273000000000001	0.004	Yes	2.784	-0.004	4.0	GoodResponse	0	0.223	210.785	3	21	Target	Neutral	True
211.785	0.3	Control	0.7273000000000001	0.004	Yes	2.784	-0.004	4.0	GoodResponse	0	0.223	n/a	3	21	ButtonPress	Neutral	True
211.796	0.47	Control	0.7273000000000001	n/a	Yes	2.784	n/a	n/a	GoodResponse	0	n/a	n/a	3	21	Blank	Neutral	True
212.264	1.45	Control	0.7273000000000001	n/a	Yes	2.784	n/a	5.0	GoodResponse	0	0.049	211.313	3	21	Feedback	Neutral	True
213.718	2.784	Control	0.7273000000000001	n/a	Yes	2.784	n/a	n/a	GoodResponse	0	0.0	n/a	3	21	ISIslide	Neutral	True
216.527	0.25	Control	0.7391	0.0	Yes	2.773	0.027	n/a	GoodResponse	0	n/a	n/a	3	22	Cue	Neutral	True
216.778	4.0	Control	0.7391	0.0	Yes	2.773	0.001	n/a	GoodResponse	0	n/a	n/a	3	22	Fixation	Neutral	True
220.773	0.22	Control	0.7391	0.004	Yes	2.773	-0.004	4.0	GoodResponse	0	0.219	219.992	3	22	Target	Neutral	True
220.992	0.3	Control	0.7391	0.004	Yes	2.773	-0.004	4.0	GoodResponse	0	0.219	n/a	3	22	ButtonPress	Neutral	True
221.007	0.48	Control	0.7391	n/a	Yes	2.773	n/a	n/a	GoodResponse	0	n/a	n/a	3	22	Blank	Neutral	True
221.475	1.45	Control	0.7391	n/a	Yes	2.773	n/a	5.0	GoodResponse	0	0.008	220.483	3	22	Feedback	Neutral	True
222.929	2.773	Control	0.7391	n/a	Yes	2.773	n/a	n/a	GoodResponse	0	0.0	n/a	3	22	ISIslide	Neutral	True
225.721	0.25	Control	0.7082999999999999	0.0	No	2.779	0.021	n/a	NoResponse	0	n/a	n/a	3	23	Cue	Neutral	True
225.972	3.9	Control	0.7082999999999999	0.0	No	2.779	0.001	n/a	NoResponse	0	n/a	n/a	3	23	Fixation	Neutral	True
229.867	0.21	Control	0.7082999999999999	0.004	No	2.779	-0.004	4.0	NoResponse	0	0.238	229.105	3	23	Target	Neutral	True
230.084	0.49	Control	0.7082999999999999	n/a	No	2.779	n/a	n/a	NoResponse	0	n/a	n/a	3	23	Blank	Neutral	True
230.105	0.3	Control	0.7082999999999999	0.004	No	2.779	-0.004	4.0	NoResponse	0	0.238	n/a	3	23	ButtonPress	Neutral	True
230.569	1.45	Control	0.7082999999999999	n/a	No	2.779	n/a	5.0	NoResponse	0	0.036	229.605	3	23	Feedback	Neutral	True
232.023	2.779	Control	0.7082999999999999	n/a	No	2.779	n/a	n/a	NoResponse	0	0.0	n/a	3	23	ISIslide	Neutral	True
234.815	0.25	Win2	0.68	0.0	No	3.135	0.015	n/a	NoResponse	0	n/a	n/a	3	24	Cue	MissedWin	True
235.065	3.95	Win2	0.68	0.001	No	3.135	0.0	n/a	NoResponse	0	n/a	n/a	3	24	Fixation	MissedWin	True
239.011	0.2	Win2	0.68	0.004	No	3.135	-0.004	4.0	NoResponse	0	0.213	238.224	3	24	Target	MissedWin	True
239.211	0.5	Win2	0.68	n/a	No	3.135	n/a	n/a	NoResponse	0	n/a	n/a	3	24	Blank	MissedWin	True
239.224	0.3	Win2	0.68	0.004	No	3.135	-0.004	4.0	NoResponse	0	0.213	n/a	3	24	ButtonPress	MissedWin	True
239.713	1.45	Win2	0.68	n/a	No	3.135	n/a	5.0	NoResponse	0	0.014	238.727	3	24	Feedback	MissedWin	True
241.167	3.135	Win2	0.68	n/a	No	3.135	n/a	n/a	NoResponse	0	0.0	n/a	3	24	ISIslide	MissedWin	True
244.326	0.25	Win2	0.6537999999999999	0.0	No	3.074	0.026	n/a	NoResponse	0	n/a	n/a	3	25	Cue	MissedWin	True
244.577	4.0	Win2	0.6537999999999999	0.0	No	3.074	0.001	n/a	NoResponse	0	n/a	n/a	3	25	Fixation	MissedWin	True
248.572	0.19	Win2	0.6537999999999999	0.004	No	3.074	-0.004	4.0	NoResponse	0	0.21	247.782	3	25	Target	MissedWin	True
248.773	0.51	Win2	0.6537999999999999	n/a	No	3.074	n/a	n/a	NoResponse	0	n/a	n/a	3	25	Blank	MissedWin	True
248.782	0.3	Win2	0.6537999999999999	0.004	No	3.074	-0.004	4.0	NoResponse	0	0.21	n/a	3	25	ButtonPress	MissedWin	True
249.275	1.45	Win2	0.6537999999999999	n/a	No	3.074	n/a	5.0	NoResponse	0	0.013	248.288	3	25	Feedback	MissedWin	True
250.729	3.074	Win2	0.6537999999999999	n/a	No	3.074	n/a	n/a	NoResponse	0	0.0	n/a	3	25	ISIslide	MissedWin	True
253.821	0.25	Win2	0.6667000000000001	0.0	Yes	2.929	0.021	n/a	GoodResponse	1	n/a	n/a	4	26	Cue	Win	True
254.072	3.95	Win2	0.6667000000000001	0.0	Yes	2.929	0.001	n/a	GoodResponse	1	n/a	n/a	4	26	Fixation	Win	True
258.017	0.2	Win2	0.6667000000000001	0.004	Yes	2.929	-0.004	4.0	GoodResponse	1	0.187	257.204	4	26	Target	Win	True
258.204	0.3	Win2	0.6667000000000001	0.004	Yes	2.929	-0.004	4.0	GoodResponse	1	0.187	n/a	4	26	ButtonPress	Win	True
258.218	0.5	Win2	0.6667000000000001	n/a	Yes	2.929	n/a	n/a	GoodResponse	1	n/a	n/a	4	26	Blank	Win	True
258.719	1.45	Win2	0.6667000000000001	n/a	Yes	2.929	n/a	5.0	GoodResponse	1	0.032	257.751	4	26	Feedback	Win	True
260.174	2.929	Win2	0.6667000000000001	n/a	Yes	2.929	n/a	n/a	GoodResponse	1	0.0	n/a	4	26	ISIslide	Win	True
263.116	0.25	Lose2	0.6429	0.0	No	2.834	0.016	n/a	NoResponse	-1	n/a	n/a	3	27	Cue	Loss	True
263.367	4.05	Lose2	0.6429	0.0	No	2.834	0.001	n/a	NoResponse	-1	n/a	n/a	3	27	Fixation	Loss	True
267.412	0.19	Lose2	0.6429	0.004	No	2.834	-0.004	4.0	NoResponse	-1	0.221	266.633	3	27	Target	Loss	True
267.613	0.51	Lose2	0.6429	n/a	No	2.834	n/a	n/a	NoResponse	-1	n/a	n/a	3	27	Blank	Loss	True
267.633	0.3	Lose2	0.6429	0.004	No	2.834	-0.004	4.0	NoResponse	-1	0.221	n/a	3	27	ButtonPress	Loss	True
268.114	1.45	Lose2	0.6429	n/a	No	2.834	n/a	5.0	NoResponse	-1	0.008	267.122	3	27	Feedback	Loss	True
269.568	2.834	Lose2	0.6429	n/a	No	2.834	n/a	n/a	NoResponse	-1	0.0	n/a	3	27	ISIslide	Loss	True
272.427	0.25	Control	0.6207	0.0	No	2.823	0.027	n/a	NoResponse	0	n/a	n/a	3	28	Cue	Neutral	True
272.678	4.05	Control	0.6207	0.0	No	2.823	0.001	n/a	NoResponse	0	n/a	n/a	3	28	Fixation	Neutral	True
276.723	0.2	Control	0.6207	0.004	No	2.823	-0.004	4.0	NoResponse	0	0.234	275.957	3	28	Target	Neutral	True
276.924	0.5	Control	0.6207	n/a	No	2.823	n/a	n/a	NoResponse	0	n/a	n/a	3	28	Blank	Neutral	True
276.957	0.3	Control	0.6207	0.004	No	2.823	-0.004	4.0	NoResponse	0	0.234	n/a	3	28	ButtonPress	Neutral	True
277.425	1.45	Control	0.6207	n/a	No	2.823	n/a	5.0	NoResponse	0	0.009	276.434	3	28	Feedback	Neutral	True
278.879	2.823	Control	0.6207	n/a	No	2.823	n/a	n/a	NoResponse	0	0.0	n/a	3	28	ISIslide	Neutral	True
281.721	0.25	Lose2	0.6	0.0	No	2.829	0.021	n/a	NoResponse	-1	n/a	n/a	2	29	Cue	Loss	True
281.972	3.95	Lose2	0.6	0.0	No	2.829	0.001	n/a	NoResponse	-1	n/a	n/a	2	29	Fixation	Loss	True
285.917	0.21	Lose2	0.6	0.004	No	2.829	-0.004	4.0	NoResponse	-1	0.226	285.143	2	29	Target	Loss	True
286.134	0.49	Lose2	0.6	n/a	No	2.829	n/a	n/a	NoResponse	-1	n/a	n/a	2	29	Blank	Loss	True
286.143	0.3	Lose2	0.6	0.004	No	2.829	-0.004	4.0	NoResponse	-1	0.226	n/a	2	29	ButtonPress	Loss	True
286.619	1.45	Lose2	0.6	n/a	No	2.829	n/a	5.0	NoResponse	-1	0.033	285.652	2	29	Feedback	Loss	True
288.074	2.829	Lose2	0.6	n/a	No	2.829	n/a	n/a	NoResponse	-1	0.0	n/a	2	29	ISIslide	Loss	True
290.915	0.25	Win2	0.5806	0.0	No	2.785	0.015	n/a	LatePress	0	n/a	n/a	2	30	Cue	MissedWin	True
291.166	3.9	Win2	0.5806	0.0	No	2.785	0.001	n/a	LatePress	0	n/a	n/a	2	30	Fixation	MissedWin	True
295.061	0.22	Win2	0.5806	0.004	No	2.785	-0.004	4.0	LatePress	0	0.234	294.295	2	30	Target	MissedWin	True
295.295	0.48	Win2	0.5806	n/a	No	2.785	n/a	n/a	LatePress	0	n/a	n/a	2	30	Blank	MissedWin	True
295.295	0.3	Win2	0.5806	0.004	No	2.785	-0.004	4.0	LatePress	0	0.234	n/a	2	30	ButtonPress	MissedWin	True
295.763	1.45	Win2	0.5806	n/a	No	2.785	n/a	5.0	LatePress	0	0.011	294.774	2	30	Feedback	MissedWin	True
297.218	2.785	Win2	0.5806	n/a	No	2.785	n/a	n/a	LatePress	0	0.0	n/a	2	30	ISIslide	MissedWin	True
300.026	0.25	Lose2	0.5625	0.0	No	2.824	0.026	n/a	NoResponse	-1	n/a	n/a	1	31	Cue	Loss	True
300.277	4.05	Lose2	0.5625	0.0	No	2.824	0.001	n/a	NoResponse	-1	n/a	n/a	1	31	Fixation	Loss	True
304.322	0.23	Lose2	0.5625	0.004	No	2.824	-0.004	4.0	NoResponse	-1	0.265	303.587	1	31	Target	Loss	True
304.556	0.47	Lose2	0.5625	n/a	No	2.824	n/a	n/a	NoResponse	-1	n/a	n/a	1	31	Blank	Loss	True
304.587	0.3	Lose2	0.5625	0.004	No	2.824	-0.004	4.0	NoResponse	-1	0.265	n/a	1	31	ButtonPress	Loss	True
305.024	1.45	Lose2	0.5625	n/a	No	2.824	n/a	5.0	NoResponse	-1	0.019	304.043	1	31	Feedback	Loss	True
306.478	2.824	Lose2	0.5625	n/a	No	2.824	n/a	n/a	NoResponse	-1	0.0	n/a	1	31	ISIslide	Loss	True
309.32	0.25	Lose2	0.5758	0.0	Yes	2.63	0.02	n/a	GoodResponse	0	n/a	n/a	1	32	Cue	AvoidedLoss	True
309.571	4.15	Lose2	0.5758	0.0	Yes	2.63	0.001	n/a	GoodResponse	0	n/a	n/a	1	32	Fixation	AvoidedLoss	True
313.717	0.24	Lose2	0.5758	0.003	Yes	2.63	-0.003	4.0	GoodResponse	0	0.215	312.932	1	32	Target	AvoidedLoss	True
313.932	0.3	Lose2	0.5758	0.003	Yes	2.63	-0.003	4.0	GoodResponse	0	0.215	n/a	1	32	ButtonPress	AvoidedLoss	True
313.967	0.46	Lose2	0.5758	n/a	Yes	2.63	n/a	n/a	GoodResponse	0	n/a	n/a	1	32	Blank	AvoidedLoss	True
314.419	1.45	Lose2	0.5758	n/a	Yes	2.63	n/a	5.0	GoodResponse	0	0.039	313.458	1	32	Feedback	AvoidedLoss	True
315.873	2.63	Lose2	0.5758	n/a	Yes	2.63	n/a	n/a	GoodResponse	0	0.0	n/a	1	32	ISIslide	AvoidedLoss	True
318.514	0.25	Win2	0.5588000000000001	0.0	No	2.686	0.014	n/a	NoResponse	0	n/a	n/a	1	33	Cue	MissedWin	True
318.765	4.0	Win2	0.5588000000000001	0.0	No	2.686	0.001	n/a	NoResponse	0	n/a	n/a	1	33	Fixation	MissedWin	True
322.76	0.25	Win2	0.5588000000000001	0.004	No	2.686	-0.004	4.0	NoResponse	0	0.267	322.027	1	33	Target	MissedWin	True
323.011	0.45	Win2	0.5588000000000001	n/a	No	2.686	n/a	n/a	NoResponse	0	n/a	n/a	1	33	Blank	MissedWin	True
323.027	0.3	Win2	0.5588000000000001	0.004	No	2.686	-0.004	4.0	NoResponse	0	0.267	n/a	1	33	ButtonPress	MissedWin	True
323.462	1.45	Win2	0.5588000000000001	n/a	No	2.686	n/a	5.0	NoResponse	0	0.019	322.481	1	33	Feedback	MissedWin	True
324.917	2.686	Win2	0.5588000000000001	n/a	No	2.686	n/a	n/a	NoResponse	0	0.0	n/a	1	33	ISIslide	MissedWin	True
327.625	0.25	Lose2	0.5714	0.0	Yes	2.625	0.025	n/a	GoodResponse	0	n/a	n/a	1	34	Cue	AvoidedLoss	True
327.876	4.05	Lose2	0.5714	0.0	Yes	2.625	0.001	n/a	GoodResponse	0	n/a	n/a	1	34	Fixation	AvoidedLoss	True
331.921	0.26	Lose2	0.5714	0.004	Yes	2.625	-0.004	4.0	GoodResponse	0	0.248	331.169	1	34	Target	AvoidedLoss	True
332.169	0.3	Lose2	0.5714	0.004	Yes	2.625	-0.004	4.0	GoodResponse	0	0.248	n/a	1	34	ButtonPress	AvoidedLoss	True
332.188	0.44	Lose2	0.5714	n/a	Yes	2.625	n/a	n/a	GoodResponse	0	n/a	n/a	1	34	Blank	AvoidedLoss	True
332.623	1.45	Lose2	0.5714	n/a	Yes	2.625	n/a	5.0	GoodResponse	0	0.029	331.652	1	34	Feedback	AvoidedLoss	True
334.077	2.625	Lose2	0.5714	n/a	Yes	2.625	n/a	n/a	GoodResponse	0	0.0	n/a	1	34	ISIslide	AvoidedLoss	True
336.719	0.25	Lose2	0.5832999999999999	0.0	Yes	2.681	0.019	n/a	GoodResponse	0	n/a	n/a	1	35	Cue	AvoidedLoss	False
336.969	4.0	Lose2	0.5832999999999999	0.001	Yes	2.681	0.0	4.0	GoodResponse	0	0.106	336.075	1	35	Fixation	AvoidedLoss	False
337.075	0.3	Lose2	0.5832999999999999	0.001	Yes	2.681	0.0	4.0	GoodResponse	0	0.106	n/a	1	35	ButtonPress	AvoidedLoss	False
340.965	0.27	Lose2	0.5832999999999999	0.004	Yes	2.681	-0.004	4.0	GoodResponse	0	0.252	340.217	1	35	Target	AvoidedLoss	False
341.217	0.3	Lose2	0.5832999999999999	0.004	Yes	2.681	-0.004	4.0	GoodResponse	0	0.252	n/a	1	35	ButtonPress	AvoidedLoss	False
341.249	0.43	Lose2	0.5832999999999999	n/a	Yes	2.681	n/a	n/a	GoodResponse	0	n/a	n/a	1	35	Blank	AvoidedLoss	False
341.667	1.45	Lose2	0.5832999999999999	n/a	Yes	2.681	n/a	5.0	GoodResponse	0	0.009	340.676	1	35	Feedback	AvoidedLoss	False
343.121	2.681	Lose2	0.5832999999999999	n/a	Yes	2.681	n/a	n/a	GoodResponse	0	0.0	n/a	1	35	ISIslide	AvoidedLoss	False
345.829	0.25	Control	0.5946	0.0	Yes	2.671	0.029	n/a	GoodResponse	0	n/a	n/a	1	36	Cue	Neutral	True
346.08	4.0	Control	0.5946	0.0	Yes	2.671	0.001	n/a	GoodResponse	0	n/a	n/a	1	36	Fixation	Neutral	True
350.075	0.28	Control	0.5946	0.004	Yes	2.671	-0.004	4.0	GoodResponse	0	0.241	349.316	1	36	Target	Neutral	True
350.316	0.3	Control	0.5946	0.004	Yes	2.671	-0.004	4.0	GoodResponse	0	0.241	n/a	1	36	ButtonPress	Neutral	True
350.359	0.42	Control	0.5946	n/a	Yes	2.671	n/a	n/a	GoodResponse	0	n/a	n/a	1	36	Blank	Neutral	True
350.777	1.45	Control	0.5946	n/a	Yes	2.671	n/a	5.0	GoodResponse	0	0.021	349.798	1	36	Feedback	Neutral	True
352.232	2.671	Control	0.5946	n/a	Yes	2.671	n/a	n/a	GoodResponse	0	0.0	n/a	1	36	ISIslide	Neutral	True
354.923	0.25	Win2	0.5789	0.0	No	2.877	0.023	n/a	NoResponse	0	n/a	n/a	1	37	Cue	MissedWin	True
355.174	4.0	Win2	0.5789	0.0	No	2.877	0.001	n/a	NoResponse	0	n/a	n/a	1	37	Fixation	MissedWin	True
359.169	0.29	Win2	0.5789	0.004	No	2.877	-0.004	4.0	NoResponse	0	0.389	358.558	1	37	Target	MissedWin	True
359.47	0.41	Win2	0.5789	n/a	No	2.877	n/a	n/a	NoResponse	0	n/a	n/a	1	37	Blank	MissedWin	True
359.558	0.3	Win2	0.5789	0.004	No	2.877	-0.004	4.0	NoResponse	0	0.389	n/a	1	37	ButtonPress	MissedWin	True
359.871	1.45	Win2	0.5789	n/a	No	2.877	n/a	5.0	NoResponse	0	0.0	358.871	1	37	Feedback	MissedWin	True
361.325	2.877	Win2	0.5789	n/a	No	2.877	n/a	n/a	NoResponse	0	0.0	n/a	1	37	ISIslide	MissedWin	True
364.217	0.25	Lose2	0.5640999999999999	0.0	No	2.833	0.017	n/a	NoResponse	-1	n/a	n/a	0	38	Cue	Loss	True
364.468	3.95	Lose2	0.5640999999999999	0.0	No	2.833	0.001	n/a	NoResponse	-1	n/a	n/a	0	38	Fixation	Loss	True
368.413	0.3	Lose2	0.5640999999999999	0.004	No	2.833	-0.004	4.0	NoResponse	-1	0.313	367.726	0	38	Target	Loss	True
368.714	0.4	Lose2	0.5640999999999999	n/a	No	2.833	n/a	n/a	NoResponse	-1	n/a	n/a	0	38	Blank	Loss	True
368.726	0.3	Lose2	0.5640999999999999	0.004	No	2.833	-0.004	4.0	NoResponse	-1	0.313	n/a	0	38	ButtonPress	Loss	True
369.115	1.45	Lose2	0.5640999999999999	n/a	No	2.833	n/a	5.0	NoResponse	-1	0.024	368.139	0	38	Feedback	Loss	True
370.57	2.833	Lose2	0.5640999999999999	n/a	No	2.833	n/a	n/a	NoResponse	-1	0.0	n/a	0	38	ISIslide	Loss	True
373.428	0.25	Win2	0.575	0.0	Yes	2.972	0.028	n/a	GoodResponse	1	n/a	n/a	1	39	Cue	Win	True
373.679	4.1	Win2	0.575	0.0	Yes	2.972	0.001	n/a	GoodResponse	1	n/a	n/a	1	39	Fixation	Win	True
377.774	0.31	Win2	0.575	0.004	Yes	2.972	-0.004	4.0	GoodResponse	1	0.212	376.986	1	39	Target	Win	True
377.986	0.3	Win2	0.575	0.004	Yes	2.972	-0.004	4.0	GoodResponse	1	0.212	n/a	1	39	ButtonPress	Win	True
378.092	0.39	Win2	0.575	n/a	Yes	2.972	n/a	n/a	GoodResponse	1	n/a	n/a	1	39	Blank	Win	True
378.477	1.45	Win2	0.575	n/a	Yes	2.972	n/a	5.0	GoodResponse	1	0.028	377.505	1	39	Feedback	Win	True
379.931	2.972	Win2	0.575	n/a	Yes	2.972	n/a	n/a	GoodResponse	1	0.0	n/a	1	39	ISIslide	Win	True
382.923	0.25	Win2	0.5854	0.0	Yes	2.727	0.023	n/a	GoodResponse	1	n/a	n/a	2	40	Cue	Win	True
383.174	3.95	Win2	0.5854	0.0	Yes	2.727	0.001	n/a	GoodResponse	1	n/a	n/a	2	40	Fixation	Win	True
387.119	0.32	Win2	0.5854	0.004	Yes	2.727	-0.004	4.0	GoodResponse	1	0.245	386.364	2	40	Target	Win	True
387.364	0.3	Win2	0.5854	0.004	Yes	2.727	-0.004	4.0	GoodResponse	1	0.245	n/a	2	40	ButtonPress	Win	True
387.453	0.38	Win2	0.5854	n/a	Yes	2.727	n/a	n/a	GoodResponse	1	n/a	n/a	2	40	Blank	Win	True
387.821	1.45	Win2	0.5854	n/a	Yes	2.727	n/a	5.0	GoodResponse	1	0.0	386.821	2	40	Feedback	Win	True
389.275	2.727	Win2	0.5854	n/a	Yes	2.727	n/a	n/a	GoodResponse	1	0.0	n/a	2	40	ISIslide	Win	True
392.017	0.25	Win2	0.5952000000000001	0.0	Yes	2.783	0.017	n/a	GoodResponse	1	n/a	n/a	3	41	Cue	Win	True
392.268	3.9	Win2	0.5952000000000001	0.0	Yes	2.783	0.001	n/a	GoodResponse	1	n/a	n/a	3	41	Fixation	Win	True
396.163	0.33	Win2	0.5952000000000001	0.004	Yes	2.783	-0.004	4.0	GoodResponse	1	0.229	395.392	3	41	Target	Win	True
396.392	0.3	Win2	0.5952000000000001	0.004	Yes	2.783	-0.004	4.0	GoodResponse	1	0.229	n/a	3	41	ButtonPress	Win	True
396.497	0.37	Win2	0.5952000000000001	n/a	Yes	2.783	n/a	n/a	GoodResponse	1	n/a	n/a	3	41	Blank	Win	True
396.865	1.45	Win2	0.5952000000000001	n/a	Yes	2.783	n/a	5.0	GoodResponse	1	0.029	395.894	3	41	Feedback	Win	True
398.319	2.783	Win2	0.5952000000000001	n/a	Yes	2.783	n/a	n/a	GoodResponse	1	0.0	n/a	3	41	ISIslide	Win	True
401.127	0.25	Control	0.6047	0.001	Yes	2.923	0.027	n/a	GoodResponse	0	n/a	n/a	3	42	Cue	Neutral	True
401.378	3.85	Control	0.6047	0.0	Yes	2.923	0.001	n/a	GoodResponse	0	n/a	n/a	3	42	Fixation	Neutral	True
405.223	0.34	Control	0.6047	0.004	Yes	2.923	-0.004	4.0	GoodResponse	0	0.23	404.453	3	42	Target	Neutral	True
405.453	0.3	Control	0.6047	0.004	Yes	2.923	-0.004	4.0	GoodResponse	0	0.23	n/a	3	42	ButtonPress	Neutral	True
405.574	0.36	Control	0.6047	n/a	Yes	2.923	n/a	n/a	GoodResponse	0	n/a	n/a	3	42	Blank	Neutral	True
405.925	1.45	Control	0.6047	n/a	Yes	2.923	n/a	5.0	GoodResponse	0	0.043	404.968	3	42	Feedback	Neutral	True
407.379	2.923	Control	0.6047	n/a	Yes	2.923	n/a	n/a	GoodResponse	0	0.0	n/a	3	42	ISIslide	Neutral	True
410.322	0.25	Win2	0.6136	0.0	Yes	3.178	0.022	n/a	GoodResponse	1	n/a	n/a	4	43	Cue	Win	True
410.572	4.0	Win2	0.6136	0.0	Yes	3.178	0.0	n/a	GoodResponse	1	n/a	n/a	4	43	Fixation	Win	True
414.568	0.35	Win2	0.6136	0.004	Yes	3.178	-0.004	4.0	GoodResponse	1	0.224	413.792	4	43	Target	Win	True
414.792	0.3	Win2	0.6136	0.004	Yes	3.178	-0.004	4.0	GoodResponse	1	0.224	n/a	4	43	ButtonPress	Win	True
414.919	0.35	Win2	0.6136	n/a	Yes	3.178	n/a	n/a	GoodResponse	1	n/a	n/a	4	43	Blank	Win	True
415.27	1.45	Win2	0.6136	n/a	Yes	3.178	n/a	5.0	GoodResponse	1	0.015	414.285	4	43	Feedback	Win	True
416.724	3.178	Win2	0.6136	n/a	Yes	3.178	n/a	n/a	GoodResponse	1	0.0	n/a	4	43	ISIslide	Win	True
419.917	0.25	Win2	0.6222	0.0	Yes	2.983	0.017	n/a	GoodResponse	1	n/a	n/a	5	44	Cue	Win	True
420.168	4.0	Win2	0.6222	0.0	Yes	2.983	0.001	n/a	GoodResponse	1	n/a	n/a	5	44	Fixation	Win	True
424.163	0.36	Win2	0.6222	0.004	Yes	2.983	-0.004	4.0	GoodResponse	1	0.247	423.41	5	44	Target	Win	True
424.41	0.3	Win2	0.6222	0.004	Yes	2.983	-0.004	4.0	GoodResponse	1	0.247	n/a	5	44	ButtonPress	Win	True
424.531	0.34	Win2	0.6222	n/a	Yes	2.983	n/a	n/a	GoodResponse	1	n/a	n/a	5	44	Blank	Win	True
424.865	1.45	Win2	0.6222	n/a	Yes	2.983	n/a	5.0	GoodResponse	1	0.029	423.894	5	44	Feedback	Win	True
426.319	2.983	Win2	0.6222	n/a	Yes	2.983	n/a	n/a	GoodResponse	1	0.0	n/a	5	44	ISIslide	Win	True
429.328	0.25	Control	0.6087	0.0	No	2.872	0.028	n/a	NoResponse	0	n/a	n/a	5	45	Cue	Neutral	True
429.579	4.1	Control	0.6087	0.0	No	2.872	0.001	n/a	NoResponse	0	n/a	n/a	5	45	Fixation	Neutral	True
433.675	0.37	Control	0.6087	0.003	No	2.872	-0.003	4.0	NoResponse	0	0.498	433.173	5	45	Target	Neutral	True
434.059	0.33	Control	0.6087	n/a	No	2.872	n/a	n/a	NoResponse	0	n/a	n/a	5	45	Blank	Neutral	True
434.173	0.3	Control	0.6087	0.003	No	2.872	-0.003	4.0	NoResponse	0	0.498	n/a	5	45	ButtonPress	Neutral	True
434.377	1.45	Control	0.6087	n/a	No	2.872	n/a	5.0	NoResponse	0	0.029	433.406	5	45	Feedback	Neutral	True
435.831	2.872	Control	0.6087	n/a	No	2.872	n/a	n/a	NoResponse	0	0.0	n/a	5	45	ISIslide	Neutral	True
438.723	0.25	Lose2	0.617	0.0	Yes	3.377	0.023	n/a	GoodResponse	0	n/a	n/a	5	46	Cue	AvoidedLoss	True
438.974	4.0	Lose2	0.617	0.0	Yes	3.377	0.001	n/a	GoodResponse	0	n/a	n/a	5	46	Fixation	AvoidedLoss	True
442.969	0.38	Lose2	0.617	0.004	Yes	3.377	-0.004	4.0	GoodResponse	0	0.216	442.185	5	46	Target	AvoidedLoss	True
443.185	0.3	Lose2	0.617	0.004	Yes	3.377	-0.004	4.0	GoodResponse	0	0.216	n/a	5	46	ButtonPress	AvoidedLoss	True
443.353	0.32	Lose2	0.617	n/a	Yes	3.377	n/a	n/a	GoodResponse	0	n/a	n/a	5	46	Blank	AvoidedLoss	True
443.671	1.45	Lose2	0.617	n/a	Yes	3.377	n/a	5.0	GoodResponse	0	0.007	442.678	5	46	Feedback	AvoidedLoss	True
445.125	3.377	Lose2	0.617	n/a	Yes	3.377	n/a	n/a	GoodResponse	0	0.0	n/a	5	46	ISIslide	AvoidedLoss	True
448.519	0.25	Lose2	0.625	0.0	Yes	2.681	0.019	n/a	GoodResponse	0	n/a	n/a	5	47	Cue	AvoidedLoss	True
448.77	4.0	Lose2	0.625	0.0	Yes	2.681	0.001	n/a	GoodResponse	0	n/a	n/a	5	47	Fixation	AvoidedLoss	True
452.765	0.39	Lose2	0.625	0.004	Yes	2.681	-0.004	4.0	GoodResponse	0	0.237	452.002	5	47	Target	AvoidedLoss	True
453.002	0.3	Lose2	0.625	0.004	Yes	2.681	-0.004	4.0	GoodResponse	0	0.237	n/a	5	47	ButtonPress	AvoidedLoss	True
453.166	0.31	Lose2	0.625	n/a	Yes	2.681	n/a	n/a	GoodResponse	0	n/a	n/a	5	47	Blank	AvoidedLoss	True
453.467	1.45	Lose2	0.625	n/a	Yes	2.681	n/a	5.0	GoodResponse	0	0.012	452.479	5	47	Feedback	AvoidedLoss	True
454.921	2.681	Lose2	0.625	n/a	Yes	2.681	n/a	n/a	GoodResponse	0	0.0	n/a	5	47	ISIslide	AvoidedLoss	True
457.629	0.25	Lose2	0.6327	0.0	Yes	3.021	0.029	n/a	GoodResponse	0	n/a	n/a	5	48	Cue	AvoidedLoss	True
457.88	3.95	Lose2	0.6327	0.0	Yes	3.021	0.001	n/a	GoodResponse	0	n/a	n/a	5	48	Fixation	AvoidedLoss	True
461.825	0.4	Lose2	0.6327	0.004	Yes	3.021	-0.004	4.0	GoodResponse	0	0.215	461.04	5	48	Target	AvoidedLoss	True
462.04	0.3	Lose2	0.6327	0.004	Yes	3.021	-0.004	4.0	GoodResponse	0	0.215	n/a	5	48	ButtonPress	AvoidedLoss	True
462.226	0.3	Lose2	0.6327	n/a	Yes	3.021	n/a	n/a	GoodResponse	0	n/a	n/a	5	48	Blank	AvoidedLoss	True
462.527	1.45	Lose2	0.6327	n/a	Yes	3.021	n/a	5.0	GoodResponse	0	0.025	461.552	5	48	Feedback	AvoidedLoss	True
463.982	3.021	Lose2	0.6327	n/a	Yes	3.021	n/a	n/a	GoodResponse	0	0.0	n/a	5	48	ISIslide	AvoidedLoss	True
467.024	0.25	Control	0.64	0.0	Yes	2.876	0.024	n/a	GoodResponse	0	n/a	n/a	5	49	Cue	Neutral	True
467.275	4.0	Control	0.64	0.0	Yes	2.876	0.001	n/a	GoodResponse	0	n/a	n/a	5	49	Fixation	Neutral	True
471.27	0.41	Control	0.64	0.004	Yes	2.876	-0.004	4.0	GoodResponse	0	0.212	470.482	5	49	Target	Neutral	True
471.482	0.3	Control	0.64	0.004	Yes	2.876	-0.004	4.0	GoodResponse	0	0.212	n/a	5	49	ButtonPress	Neutral	True
471.688	0.29	Control	0.64	n/a	Yes	2.876	n/a	n/a	GoodResponse	0	n/a	n/a	5	49	Blank	Neutral	True
471.972	1.45	Control	0.64	n/a	Yes	2.876	n/a	5.0	GoodResponse	0	0.043	471.015	5	49	Feedback	Neutral	True
473.426	2.876	Control	0.64	n/a	Yes	2.876	n/a	n/a	GoodResponse	0	0.0	n/a	5	49	ISIslide	Neutral	True
476.318	0.25	Control	0.6275	0.001	No	2.782	0.018	n/a	NoResponse	0	n/a	n/a	5	50	Cue	Neutral	True
476.569	4.0	Control	0.6275	0.0	No	2.782	0.001	n/a	NoResponse	0	n/a	n/a	5	50	Fixation	Neutral	True
480.564	0.42	Control	0.6275	0.004	No	2.782	-0.004	4.0	NoResponse	0	0.686	480.25	5	50	Target	Neutral	True
480.999	0.28	Control	0.6275	n/a	No	2.782	n/a	n/a	NoResponse	0	n/a	n/a	5	50	Blank	Neutral	True
481.25	0.3	Control	0.6275	0.004	No	2.782	-0.004	4.0	NoResponse	0	0.686	n/a	5	50	ButtonPress	Neutral	True
481.267	1.45	Control	0.6275	n/a	No	2.782	n/a	5.0	NoResponse	0	0.017	480.284	5	50	Feedback	Neutral	True
482.721	2.782	Control	0.6275	n/a	No	2.782	n/a	n/a	NoResponse	0	0.0	n/a	5	50	ISIslide	Neutral	True
485.529	0.25	Control	0.6346	0.0	Yes	2.721	0.029	n/a	GoodResponse	0	n/a	n/a	5	51	Cue	Neutral	True
485.78	3.95	Control	0.6346	0.0	Yes	2.721	0.001	n/a	GoodResponse	0	n/a	n/a	5	51	Fixation	Neutral	True
489.725	0.43	Control	0.6346	0.004	Yes	2.721	-0.004	4.0	GoodResponse	0	0.253	488.978	5	51	Target	Neutral	True
489.978	0.3	Control	0.6346	0.004	Yes	2.721	-0.004	4.0	GoodResponse	0	0.253	n/a	5	51	ButtonPress	Neutral	True
490.16	0.27	Control	0.6346	n/a	Yes	2.721	n/a	n/a	GoodResponse	0	n/a	n/a	5	51	Blank	Neutral	True
490.427	1.45	Control	0.6346	n/a	Yes	2.721	n/a	5.0	GoodResponse	0	0.027	489.454	5	51	Feedback	Neutral	True
491.882	2.721	Control	0.6346	n/a	Yes	2.721	n/a	n/a	GoodResponse	0	0.0	n/a	5	51	ISIslide	Neutral	True
494.623	0.25	Control	0.6415000000000001	0.0	Yes	2.627	0.023	n/a	GoodResponse	0	n/a	n/a	5	52	Cue	Neutral	True
494.874	4.05	Control	0.6415000000000001	0.0	Yes	2.627	0.001	n/a	GoodResponse	0	n/a	n/a	5	52	Fixation	Neutral	True
498.919	0.44	Control	0.6415000000000001	0.004	Yes	2.627	-0.004	4.0	GoodResponse	0	0.243	498.162	5	52	Target	Neutral	True
499.162	0.3	Control	0.6415000000000001	0.004	Yes	2.627	-0.004	4.0	GoodResponse	0	0.243	n/a	5	52	ButtonPress	Neutral	True
499.371	0.26	Control	0.6415000000000001	n/a	Yes	2.627	n/a	n/a	GoodResponse	0	n/a	n/a	5	52	Blank	Neutral	True
499.621	1.45	Control	0.6415000000000001	n/a	Yes	2.627	n/a	5.0	GoodResponse	0	0.007	498.628	5	52	Feedback	Neutral	True
501.076	2.627	Control	0.6415000000000001	n/a	Yes	2.627	n/a	n/a	GoodResponse	0	0.0	n/a	5	52	ISIslide	Neutral	True
503.717	0.25	Win2	0.6481	0.0	Yes	2.933	0.017	n/a	GoodResponse	1	n/a	n/a	6	53	Cue	Win	True
503.968	4.05	Win2	0.6481	0.0	Yes	2.933	0.001	n/a	GoodResponse	1	n/a	n/a	6	53	Fixation	Win	True
508.013	0.45	Win2	0.6481	0.004	Yes	2.933	-0.004	4.0	GoodResponse	1	0.208	507.221	6	53	Target	Win	True
508.221	0.3	Win2	0.6481	0.004	Yes	2.933	-0.004	4.0	GoodResponse	1	0.208	n/a	6	53	ButtonPress	Win	True
508.464	0.25	Win2	0.6481	n/a	Yes	2.933	n/a	n/a	GoodResponse	1	n/a	n/a	6	53	Blank	Win	True
508.715	1.45	Win2	0.6481	n/a	Yes	2.933	n/a	5.0	GoodResponse	1	0.031	507.746	6	53	Feedback	Win	True
510.169	2.933	Win2	0.6481	n/a	Yes	2.933	n/a	n/a	GoodResponse	1	0.0	n/a	6	53	ISIslide	Win	True
513.128	0.25	Win2	0.6545000000000001	0.0	Yes	2.722	0.028	n/a	GoodResponse	1	n/a	n/a	7	54	Cue	Win	True
513.379	3.95	Win2	0.6545000000000001	0.0	Yes	2.722	0.001	n/a	GoodResponse	1	n/a	n/a	7	54	Fixation	Win	True
517.324	0.46	Win2	0.6545000000000001	0.004	Yes	2.722	-0.004	4.0	GoodResponse	1	0.418	516.742	7	54	Target	Win	True
517.742	0.3	Win2	0.6545000000000001	0.004	Yes	2.722	-0.004	4.0	GoodResponse	1	0.418	n/a	7	54	ButtonPress	Win	True
517.792	0.24	Win2	0.6545000000000001	n/a	Yes	2.722	n/a	n/a	GoodResponse	1	n/a	n/a	7	54	Blank	Win	True
518.026	1.45	Win2	0.6545000000000001	n/a	Yes	2.722	n/a	5.0	GoodResponse	1	0.037	517.063	7	54	Feedback	Win	True
519.481	2.722	Win2	0.6545000000000001	n/a	Yes	2.722	n/a	n/a	GoodResponse	1	0.0	n/a	7	54	ISIslide	Win	True
522.222	0.25	Control	0.6607	0.0	Yes	3.028	0.022	n/a	GoodResponse	0	n/a	n/a	7	55	Cue	Neutral	True
522.473	3.95	Control	0.6607	0.0	Yes	3.028	0.001	n/a	GoodResponse	0	n/a	n/a	7	55	Fixation	Neutral	True
526.418	0.47	Control	0.6607	0.004	Yes	3.028	-0.004	4.0	GoodResponse	0	0.303	525.721	7	55	Target	Neutral	True
526.721	0.3	Control	0.6607	0.004	Yes	3.028	-0.004	4.0	GoodResponse	0	0.303	n/a	7	55	ButtonPress	Neutral	True
526.903	0.23	Control	0.6607	n/a	Yes	3.028	n/a	n/a	GoodResponse	0	n/a	n/a	7	55	Blank	Neutral	True
527.12	1.45	Control	0.6607	n/a	Yes	3.028	n/a	5.0	GoodResponse	0	0.016	526.136	7	55	Feedback	Neutral	True
528.574	3.028	Control	0.6607	n/a	Yes	3.028	n/a	n/a	GoodResponse	0	0.0	n/a	7	55	ISIslide	Neutral	True
531.617	0.25	Control	0.6491	0.0	No	2.833	0.017	n/a	NoResponse	0	n/a	n/a	7	56	Cue	Neutral	True
531.867	3.95	Control	0.6491	0.001	No	2.833	0.0	n/a	NoResponse	0	n/a	n/a	7	56	Fixation	Neutral	True
535.813	0.47	Control	0.6491	0.004	No	2.833	-0.004	4.0	NoResponse	0	0.539	535.352	7	56	Target	Neutral	True
536.297	0.23	Control	0.6491	n/a	No	2.833	n/a	n/a	NoResponse	0	n/a	n/a	7	56	Blank	Neutral	True
536.352	0.3	Control	0.6491	0.004	No	2.833	-0.004	4.0	NoResponse	0	0.539	n/a	7	56	ButtonPress	Neutral	True
536.515	1.45	Control	0.6491	n/a	No	2.833	n/a	5.0	NoResponse	0	0.036	535.551	7	56	Feedback	Neutral	True
537.969	2.833	Control	0.6491	n/a	No	2.833	n/a	n/a	NoResponse	0	0.0	n/a	7	56	ISIslide	Neutral	True
540.828	0.25	Control	0.6552	0.0	Yes	3.472	0.028	n/a	GoodResponse	0	n/a	n/a	7	57	Cue	Neutral	True
541.078	4.0	Control	0.6552	0.0	Yes	3.472	0.0	n/a	GoodResponse	0	n/a	n/a	7	57	Fixation	Neutral	True
545.074	0.48	Control	0.6552	0.004	Yes	3.472	-0.004	4.0	GoodResponse	0	0.334	544.408	7	57	Target	Neutral	True
545.408	0.3	Control	0.6552	0.004	Yes	3.472	-0.004	4.0	GoodResponse	0	0.334	n/a	7	57	ButtonPress	Neutral	True
545.558	0.22	Control	0.6552	n/a	Yes	3.472	n/a	n/a	GoodResponse	0	n/a	n/a	7	57	Blank	Neutral	True
545.776	1.45	Control	0.6552	n/a	Yes	3.472	n/a	5.0	GoodResponse	0	0.043	544.819	7	57	Feedback	Neutral	True
547.23	3.472	Control	0.6552	n/a	Yes	3.472	n/a	n/a	GoodResponse	0	0.0	n/a	7	57	ISIslide	Neutral	True
550.724	0.25	Win2	0.6609999999999999	0.0	Yes	2.726	0.024	n/a	GoodResponse	1	n/a	n/a	8	58	Cue	Win	True
550.974	4.05	Win2	0.6609999999999999	0.001	Yes	2.726	0.0	n/a	GoodResponse	1	n/a	n/a	8	58	Fixation	Win	True
555.02	0.48	Win2	0.6609999999999999	0.004	Yes	2.726	-0.004	4.0	GoodResponse	1	0.264	554.284	8	58	Target	Win	True
555.284	0.3	Win2	0.6609999999999999	0.004	Yes	2.726	-0.004	4.0	GoodResponse	1	0.264	n/a	8	58	ButtonPress	Win	True
555.505	0.22	Win2	0.6609999999999999	n/a	Yes	2.726	n/a	n/a	GoodResponse	1	n/a	n/a	8	58	Blank	Win	True
555.722	1.45	Win2	0.6609999999999999	n/a	Yes	2.726	n/a	5.0	GoodResponse	1	0.047	554.769	8	58	Feedback	Win	True
557.176	2.726	Win2	0.6609999999999999	n/a	Yes	2.726	n/a	n/a	GoodResponse	1	0.0	n/a	8	58	ISIslide	Win	True
559.918	0.25	Lose2	0.6667000000000001	0.0	Yes	2.682	0.018	n/a	GoodResponse	0	n/a	n/a	8	59	Cue	AvoidedLoss	True
560.169	4.0	Lose2	0.6667000000000001	0.0	Yes	2.682	0.001	n/a	GoodResponse	0	n/a	n/a	8	59	Fixation	AvoidedLoss	True
564.164	0.48	Lose2	0.6667000000000001	0.004	Yes	2.682	-0.004	4.0	GoodResponse	0	0.34	563.504	8	59	Target	AvoidedLoss	True
564.504	0.3	Lose2	0.6667000000000001	0.004	Yes	2.682	-0.004	4.0	GoodResponse	0	0.34	n/a	8	59	ButtonPress	AvoidedLoss	True
564.649	0.22	Lose2	0.6667000000000001	n/a	Yes	2.682	n/a	n/a	GoodResponse	0	n/a	n/a	8	59	Blank	AvoidedLoss	True
564.866	1.45	Lose2	0.6667000000000001	n/a	Yes	2.682	n/a	5.0	GoodResponse	0	0.025	563.891	8	59	Feedback	AvoidedLoss	True
566.32	2.682	Lose2	0.6667000000000001	n/a	Yes	2.682	n/a	n/a	GoodResponse	0	0.0	n/a	8	59	ISIslide	AvoidedLoss	True
569.028	0.25	Control	0.6720999999999999	0.0	Yes	2.672	0.028	n/a	GoodResponse	0	n/a	n/a	8	60	Cue	Neutral	True
569.279	4.0	Control	0.6720999999999999	0.0	Yes	2.672	0.001	n/a	GoodResponse	0	n/a	n/a	8	60	Fixation	Neutral	True
573.274	0.47	Control	0.6720999999999999	0.004	Yes	2.672	-0.004	4.0	GoodResponse	0	0.279	572.553	8	60	Target	Neutral	True
573.553	0.3	Control	0.6720999999999999	0.004	Yes	2.672	-0.004	4.0	GoodResponse	0	0.279	n/a	8	60	ButtonPress	Neutral	True
573.759	0.23	Control	0.6720999999999999	n/a	Yes	2.672	n/a	n/a	GoodResponse	0	n/a	n/a	8	60	Blank	Neutral	True
573.976	1.45	Control	0.6720999999999999	n/a	Yes	2.672	n/a	5.0	GoodResponse	0	0.037	573.013	8	60	Feedback	Neutral	True
575.431	2.672	Control	0.6720999999999999	n/a	Yes	2.672	n/a	n/a	GoodResponse	0	0.0	n/a	8	60	ISIslide	Neutral	True
578.122	0.25	Lose2	0.6774	0.0	Yes	2.978	0.022	n/a	GoodResponse	0	n/a	n/a	8	61	Cue	AvoidedLoss	True
578.373	4.0	Lose2	0.6774	0.0	Yes	2.978	0.001	n/a	GoodResponse	0	n/a	n/a	8	61	Fixation	AvoidedLoss	True
582.368	0.46	Lose2	0.6774	0.004	Yes	2.978	-0.004	4.0	GoodResponse	0	0.276	581.644	8	61	Target	AvoidedLoss	True
582.644	0.3	Lose2	0.6774	0.004	Yes	2.978	-0.004	4.0	GoodResponse	0	0.276	n/a	8	61	ButtonPress	AvoidedLoss	True
582.836	0.24	Lose2	0.6774	n/a	Yes	2.978	n/a	n/a	GoodResponse	0	n/a	n/a	8	61	Blank	AvoidedLoss	True
583.07	1.45	Lose2	0.6774	n/a	Yes	2.978	n/a	5.0	GoodResponse	0	0.017	582.087	8	61	Feedback	AvoidedLoss	True
584.525	2.978	Lose2	0.6774	n/a	Yes	2.978	n/a	n/a	GoodResponse	0	0.0	n/a	8	61	ISIslide	AvoidedLoss	True
587.517	0.25	Lose2	0.6825	0.0	Yes	2.883	0.017	n/a	GoodResponse	0	n/a	n/a	8	62	Cue	AvoidedLoss	True
587.768	3.9	Lose2	0.6825	0.0	Yes	2.883	0.001	n/a	GoodResponse	0	n/a	n/a	8	62	Fixation	AvoidedLoss	True
591.663	0.45	Lose2	0.6825	0.004	Yes	2.883	-0.004	4.0	GoodResponse	0	0.365	591.028	8	62	Target	AvoidedLoss	True
592.028	0.3	Lose2	0.6825	0.004	Yes	2.883	-0.004	4.0	GoodResponse	0	0.365	n/a	8	62	ButtonPress	AvoidedLoss	True
592.114	0.25	Lose2	0.6825	n/a	Yes	2.883	n/a	n/a	GoodResponse	0	n/a	n/a	8	62	Blank	AvoidedLoss	True
592.365	1.45	Lose2	0.6825	n/a	Yes	2.883	n/a	5.0	GoodResponse	0	0.038	591.403	8	62	Feedback	AvoidedLoss	True
593.819	2.883	Lose2	0.6825	n/a	Yes	2.883	n/a	n/a	GoodResponse	0	0.0	n/a	8	62	ISIslide	AvoidedLoss	True
596.728	0.25	Lose2	0.6875	0.0	Yes	2.622	0.028	n/a	GoodResponse	0	n/a	n/a	8	63	Cue	AvoidedLoss	True
596.978	4.05	Lose2	0.6875	0.0	Yes	2.622	0.0	n/a	GoodResponse	0	n/a	n/a	8	63	Fixation	AvoidedLoss	True
601.024	0.44	Lose2	0.6875	0.004	Yes	2.622	-0.004	4.0	GoodResponse	0	0.229	600.253	8	63	Target	AvoidedLoss	True
601.253	0.3	Lose2	0.6875	0.004	Yes	2.622	-0.004	4.0	GoodResponse	0	0.229	n/a	8	63	ButtonPress	AvoidedLoss	True
601.475	0.26	Lose2	0.6875	n/a	Yes	2.622	n/a	n/a	GoodResponse	0	n/a	n/a	8	63	Blank	AvoidedLoss	True
601.726	1.45	Lose2	0.6875	n/a	Yes	2.622	n/a	5.0	GoodResponse	0	0.043	600.769	8	63	Feedback	AvoidedLoss	True
603.18	2.622	Lose2	0.6875	n/a	Yes	2.622	n/a	n/a	GoodResponse	0	0.0	n/a	8	63	ISIslide	AvoidedLoss	True
605.821	0.25	Win2	0.6923	0.001	Yes	3.129	0.021	n/a	GoodResponse	1	n/a	n/a	9	64	Cue	Win	True
606.072	4.15	Win2	0.6923	0.0	Yes	3.129	0.001	n/a	GoodResponse	1	n/a	n/a	9	64	Fixation	Win	True
610.218	0.43	Win2	0.6923	0.003	Yes	3.129	-0.003	4.0	GoodResponse	1	0.233	609.451	9	64	Target	Win	True
610.451	0.3	Win2	0.6923	0.003	Yes	3.129	-0.003	4.0	GoodResponse	1	0.233	n/a	9	64	ButtonPress	Win	True
610.653	0.27	Win2	0.6923	n/a	Yes	3.129	n/a	n/a	GoodResponse	1	n/a	n/a	9	64	Blank	Win	True
610.92	1.45	Win2	0.6923	n/a	Yes	3.129	n/a	5.0	GoodResponse	1	0.02	609.94	9	64	Feedback	Win	True
612.374	3.129	Win2	0.6923	n/a	Yes	3.129	n/a	n/a	GoodResponse	1	0.0	n/a	9	64	ISIslide	Win	True
615.517	0.25	Control	0.6818000000000001	0.0	No	2.783	0.017	n/a	NoResponse	0	n/a	n/a	9	65	Cue	Neutral	True
615.768	4.0	Control	0.6818000000000001	0.0	No	2.783	0.001	n/a	NoResponse	0	n/a	n/a	9	65	Fixation	Neutral	True
619.763	0.42	Control	0.6818000000000001	0.004	No	2.783	-0.004	4.0	NoResponse	0	0.467	619.23	9	65	Target	Neutral	True
620.198	0.28	Control	0.6818000000000001	n/a	No	2.783	n/a	n/a	NoResponse	0	n/a	n/a	9	65	Blank	Neutral	True
620.23	0.3	Control	0.6818000000000001	0.004	No	2.783	-0.004	4.0	NoResponse	0	0.467	n/a	9	65	ButtonPress	Neutral	True
620.465	1.45	Control	0.6818000000000001	n/a	No	2.783	n/a	5.0	NoResponse	0	0.035	619.5	9	65	Feedback	Neutral	True
621.919	2.783	Control	0.6818000000000001	n/a	No	2.783	n/a	n/a	NoResponse	0	0.0	n/a	9	65	ISIslide	Neutral	True
624.728	0.25	Win2	0.6866	0.0	Yes	2.772	0.028	n/a	GoodResponse	1	n/a	n/a	10	66	Cue	Win	True
624.979	3.9	Win2	0.6866	0.0	Yes	2.772	0.001	n/a	GoodResponse	1	n/a	n/a	10	66	Fixation	Win	True
628.874	0.41	Win2	0.6866	0.004	Yes	2.772	-0.004	4.0	GoodResponse	1	0.211	628.085	10	66	Target	Win	True
629.085	0.3	Win2	0.6866	0.004	Yes	2.772	-0.004	4.0	GoodResponse	1	0.211	n/a	10	66	ButtonPress	Win	True
629.291	0.29	Win2	0.6866	n/a	Yes	2.772	n/a	n/a	GoodResponse	1	n/a	n/a	10	66	Blank	Win	True
629.576	1.45	Win2	0.6866	n/a	Yes	2.772	n/a	5.0	GoodResponse	1	0.046	628.622	10	66	Feedback	Win	True
631.03	2.772	Win2	0.6866	n/a	Yes	2.772	n/a	n/a	GoodResponse	1	0.0	n/a	10	66	ISIslide	Win	True
633.822	0.25	Control	0.6765000000000001	0.0	No	2.728	0.022	n/a	NoResponse	0	n/a	n/a	10	67	Cue	Neutral	True
634.072	3.95	Control	0.6765000000000001	0.0	No	2.728	0.0	n/a	NoResponse	0	n/a	n/a	10	67	Fixation	Neutral	True
638.017	0.4	Control	0.6765000000000001	0.005	No	2.728	-0.005	4.0	NoResponse	0	0.616	637.633	10	67	Target	Neutral	True
638.419	0.3	Control	0.6765000000000001	n/a	No	2.728	n/a	n/a	NoResponse	0	n/a	n/a	10	67	Blank	Neutral	True
638.633	0.3	Control	0.6765000000000001	0.005	No	2.728	-0.005	4.0	NoResponse	0	0.616	n/a	10	67	ButtonPress	Neutral	True
638.72	1.45	Control	0.6765000000000001	n/a	No	2.728	n/a	5.0	NoResponse	0	0.024	637.744	10	67	Feedback	Neutral	True
640.174	2.728	Control	0.6765000000000001	n/a	No	2.728	n/a	n/a	NoResponse	0	0.0	n/a	10	67	ISIslide	Neutral	True
642.915	0.25	Win2	0.6812	0.001	Yes	3.085	0.015	n/a	GoodResponse	1	n/a	n/a	11	68	Cue	Win	True
643.166	4.0	Win2	0.6812	0.0	Yes	3.085	0.001	n/a	GoodResponse	1	n/a	n/a	11	68	Fixation	Win	True
647.161	0.39	Win2	0.6812	0.004	Yes	3.085	-0.004	4.0	GoodResponse	1	0.24	646.401	11	68	Target	Win	True
647.401	0.3	Win2	0.6812	0.004	Yes	3.085	-0.004	4.0	GoodResponse	1	0.24	n/a	11	68	ButtonPress	Win	True
647.563	0.31	Win2	0.6812	n/a	Yes	3.085	n/a	n/a	GoodResponse	1	n/a	n/a	11	68	Blank	Win	True
647.864	1.45	Win2	0.6812	n/a	Yes	3.085	n/a	5.0	GoodResponse	1	0.006	646.87	11	68	Feedback	Win	True
649.318	3.085	Win2	0.6812	n/a	Yes	3.085	n/a	n/a	GoodResponse	1	0.0	n/a	11	68	ISIslide	Win	True
652.427	0.25	Win2	0.6857	0.0	Yes	3.223	0.027	n/a	GoodResponse	1	n/a	n/a	12	69	Cue	Win	True
652.678	3.95	Win2	0.6857	0.0	Yes	3.223	0.001	n/a	GoodResponse	1	n/a	n/a	12	69	Fixation	Win	True
656.623	0.38	Win2	0.6857	0.004	Yes	3.223	-0.004	4.0	GoodResponse	1	0.258	655.881	12	69	Target	Win	True
656.881	0.3	Win2	0.6857	0.004	Yes	3.223	-0.004	4.0	GoodResponse	1	0.258	n/a	12	69	ButtonPress	Win	True
657.007	0.32	Win2	0.6857	n/a	Yes	3.223	n/a	n/a	GoodResponse	1	n/a	n/a	12	69	Blank	Win	True
657.325	1.45	Win2	0.6857	n/a	Yes	3.223	n/a	5.0	GoodResponse	1	0.008	656.333	12	69	Feedback	Win	True
658.779	3.223	Win2	0.6857	n/a	Yes	3.223	n/a	n/a	GoodResponse	1	0.0	n/a	12	69	ISIslide	Win	True
662.022	0.25	Lose2	0.6761	0.001	No	3.028	0.022	n/a	NoResponse	-1	n/a	n/a	11	70	Cue	Loss	True
662.273	4.05	Lose2	0.6761	0.0	No	3.028	0.001	n/a	NoResponse	-1	n/a	n/a	11	70	Fixation	Loss	True
666.319	0.37	Lose2	0.6761	0.003	No	3.028	-0.003	4.0	NoResponse	-1	0.477	665.796	11	70	Target	Loss	True
666.703	0.33	Lose2	0.6761	n/a	No	3.028	n/a	n/a	NoResponse	-1	n/a	n/a	11	70	Blank	Loss	True
666.796	0.3	Lose2	0.6761	0.003	No	3.028	-0.003	4.0	NoResponse	-1	0.477	n/a	11	70	ButtonPress	Loss	True
667.021	1.45	Lose2	0.6761	n/a	No	3.028	n/a	5.0	NoResponse	-1	0.015	666.036	11	70	Feedback	Loss	True
668.475	3.028	Lose2	0.6761	n/a	No	3.028	n/a	n/a	NoResponse	-1	0.0	n/a	11	70	ISIslide	Loss	True
671.517	0.25	Win2	0.6806	0.0	Yes	2.733	0.017	n/a	GoodResponse	1	n/a	n/a	12	71	Cue	Win	True
671.768	4.05	Win2	0.6806	0.0	Yes	2.733	0.001	n/a	GoodResponse	1	n/a	n/a	12	71	Fixation	Win	True
675.814	0.36	Win2	0.6806	0.003	Yes	2.733	-0.003	4.0	GoodResponse	1	0.335	675.149	12	71	Target	Win	True
676.149	0.3	Win2	0.6806	0.003	Yes	2.733	-0.003	4.0	GoodResponse	1	0.335	n/a	12	71	ButtonPress	Win	True
676.181	0.34	Win2	0.6806	n/a	Yes	2.733	n/a	n/a	GoodResponse	1	n/a	n/a	12	71	Blank	Win	True
676.516	1.45	Win2	0.6806	n/a	Yes	2.733	n/a	5.0	GoodResponse	1	0.032	675.548	12	71	Feedback	Win	True
677.97	2.733	Win2	0.6806	n/a	Yes	2.733	n/a	n/a	GoodResponse	1	0.0	n/a	12	71	ISIslide	Win	True
680.728	0.25	Win2	0.6849	0.0	Yes	2.772	0.028	n/a	GoodResponse	1	n/a	n/a	13	72	Cue	Win	False
680.979	4.1	Win2	0.6849	0.0	Yes	2.772	0.001	4.0	GoodResponse	1	0.235	680.214	13	72	Fixation	Win	False
681.214	0.3	Win2	0.6849	0.0	Yes	2.772	0.001	4.0	GoodResponse	1	0.235	n/a	13	72	ButtonPress	Win	False
685.075	0.35	Win2	0.6849	0.003	Yes	2.772	-0.003	4.0	GoodResponse	1	0.226	684.301	13	72	Target	Win	False
685.301	0.3	Win2	0.6849	0.003	Yes	2.772	-0.003	4.0	GoodResponse	1	0.226	n/a	13	72	ButtonPress	Win	False
685.426	0.35	Win2	0.6849	n/a	Yes	2.772	n/a	n/a	GoodResponse	1	n/a	n/a	13	72	Blank	Win	False
685.777	1.45	Win2	0.6849	n/a	Yes	2.772	n/a	5.0	GoodResponse	1	0.039	684.816	13	72	Feedback	Win	False
687.231	2.772	Win2	0.6849	n/a	Yes	2.772	n/a	n/a	GoodResponse	1	0.0	n/a	13	72	ISIslide	Win	False
690.023	0.25	Win2	0.6892	0.0	Yes	2.677	0.023	n/a	GoodResponse	1	n/a	n/a	14	73	Cue	Win	True
690.273	4.0	Win2	0.6892	0.0	Yes	2.677	0.0	n/a	GoodResponse	1	n/a	n/a	14	73	Fixation	Win	True
694.269	0.34	Win2	0.6892	0.004	Yes	2.677	-0.004	4.0	GoodResponse	1	0.24	693.509	14	73	Target	Win	True
694.509	0.3	Win2	0.6892	0.004	Yes	2.677	-0.004	4.0	GoodResponse	1	0.24	n/a	14	73	ButtonPress	Win	True
694.62	0.36	Win2	0.6892	n/a	Yes	2.677	n/a	n/a	GoodResponse	1	n/a	n/a	14	73	Blank	Win	True
694.971	1.45	Win2	0.6892	n/a	Yes	2.677	n/a	5.0	GoodResponse	1	0.015	693.986	14	73	Feedback	Win	True
696.425	2.677	Win2	0.6892	n/a	Yes	2.677	n/a	n/a	GoodResponse	1	0.0	n/a	14	73	ISIslide	Win	True
699.116	0.25	Lose2	0.6933	0.0	Yes	2.634	0.016	n/a	GoodResponse	0	n/a	n/a	14	74	Cue	AvoidedLoss	True
699.367	4.05	Lose2	0.6933	0.0	Yes	2.634	0.001	n/a	GoodResponse	0	n/a	n/a	14	74	Fixation	AvoidedLoss	True
703.413	0.33	Lose2	0.6933	0.003	Yes	2.634	-0.003	4.0	GoodResponse	0	0.251	702.664	14	74	Target	AvoidedLoss	True
703.664	0.3	Lose2	0.6933	0.003	Yes	2.634	-0.003	4.0	GoodResponse	0	0.251	n/a	14	74	ButtonPress	AvoidedLoss	True
703.747	0.37	Lose2	0.6933	n/a	Yes	2.634	n/a	n/a	GoodResponse	0	n/a	n/a	14	74	Blank	AvoidedLoss	True
704.115	1.45	Lose2	0.6933	n/a	Yes	2.634	n/a	5.0	GoodResponse	0	0.042	703.157	14	74	Feedback	AvoidedLoss	True
705.569	2.634	Lose2	0.6933	n/a	Yes	2.634	n/a	n/a	GoodResponse	0	0.0	n/a	14	74	ISIslide	AvoidedLoss	True
708.227	0.25	Lose2	0.6842	0.0	No	2.923	0.027	n/a	LatePress	-1	n/a	n/a	13	75	Cue	Loss	True
708.478	3.95	Lose2	0.6842	0.0	No	2.923	0.001	n/a	LatePress	-1	n/a	n/a	13	75	Fixation	Loss	True
712.423	0.32	Lose2	0.6842	0.004	No	2.923	-0.004	4.0	LatePress	-1	0.326	711.749	13	75	Target	Loss	True
712.749	0.3	Lose2	0.6842	0.004	No	2.923	-0.004	4.0	LatePress	-1	0.326	n/a	13	75	ButtonPress	Loss	True
712.757	0.38	Lose2	0.6842	n/a	No	2.923	n/a	n/a	LatePress	-1	n/a	n/a	13	75	Blank	Loss	True
713.125	1.45	Lose2	0.6842	n/a	No	2.923	n/a	5.0	LatePress	-1	0.008	712.133	13	75	Feedback	Loss	True
714.579	2.923	Lose2	0.6842	n/a	No	2.923	n/a	n/a	LatePress	-1	0.0	n/a	13	75	ISIslide	Loss	True
717.521	0.25	Control	0.6753	0.0	No	3.229	0.021	n/a	NoResponse	0	n/a	n/a	13	76	Cue	Neutral	True
717.772	4.05	Control	0.6753	0.0	No	3.229	0.001	n/a	NoResponse	0	n/a	n/a	13	76	Fixation	Neutral	True
721.817	0.31	Control	0.6753	0.004	No	3.229	-0.004	4.0	NoResponse	0	0.442	721.259	13	76	Target	Neutral	True
722.135	0.39	Control	0.6753	n/a	No	3.229	n/a	n/a	NoResponse	0	n/a	n/a	13	76	Blank	Neutral	True
722.259	0.3	Control	0.6753	0.004	No	3.229	-0.004	4.0	NoResponse	0	0.442	n/a	13	76	ButtonPress	Neutral	True
722.52	1.45	Control	0.6753	n/a	No	3.229	n/a	5.0	NoResponse	0	0.027	721.547	13	76	Feedback	Neutral	True
723.974	3.229	Control	0.6753	n/a	No	3.229	n/a	n/a	NoResponse	0	0.0	n/a	13	76	ISIslide	Neutral	True
727.217	0.25	Lose2	0.6795	0.0	Yes	2.583	0.017	n/a	GoodResponse	0	n/a	n/a	13	77	Cue	AvoidedLoss	True
727.468	3.95	Lose2	0.6795	0.0	Yes	2.583	0.001	n/a	GoodResponse	0	n/a	n/a	13	77	Fixation	AvoidedLoss	True
731.413	0.3	Lose2	0.6795	0.004	Yes	2.583	-0.004	4.0	GoodResponse	0	0.257	730.67	13	77	Target	AvoidedLoss	True
731.67	0.3	Lose2	0.6795	0.004	Yes	2.583	-0.004	4.0	GoodResponse	0	0.257	n/a	13	77	ButtonPress	AvoidedLoss	True
731.714	0.4	Lose2	0.6795	n/a	Yes	2.583	n/a	n/a	GoodResponse	0	n/a	n/a	13	77	Blank	AvoidedLoss	True
732.115	1.45	Lose2	0.6795	n/a	Yes	2.583	n/a	5.0	GoodResponse	0	0.042	731.157	13	77	Feedback	AvoidedLoss	True
733.569	2.583	Lose2	0.6795	n/a	Yes	2.583	n/a	n/a	GoodResponse	0	0.0	n/a	13	77	ISIslide	AvoidedLoss	True
