onset	duration	cue_type	current_mean_accuracy	duration_error	is_hit	isi_adjusted	onset_delay	response	response_type	reward	rt	rt_time	total_reward	trial_number	trial_phase	trial_type	one_press
11.11	0.25	Control	1.0	0.0	Yes	2.94	0.01	n/a	GoodResponse	0	n/a	n/a	0	0	Cue	Neutral	True
11.36	3.85	Control	1.0	0.0	Yes	2.94	0.0	n/a	GoodResponse	0	n/a	n/a	0	0	Fixation	Neutral	True
15.208	0.4	Control	1.0	0.002	Yes	2.94	-0.002	4.0	GoodResponse	0	0.243	14.451	0	0	Target	Neutral	True
15.451	0.3	Control	1.0	0.002	Yes	2.94	-0.002	4.0	GoodResponse	0	0.243	n/a	0	0	ButtonPress	Neutral	True
15.608	0.3	Control	1.0	n/a	Yes	2.94	n/a	n/a	GoodResponse	0	n/a	n/a	0	0	Blank	Neutral	True
15.908	1.45	Control	1.0	n/a	Yes	2.94	n/a	5.0	GoodResponse	0	0.021	14.929	0	0	Feedback	Neutral	True
17.358	2.94	Control	1.0	n/a	Yes	2.94	n/a	n/a	GoodResponse	0	0.0	n/a	0	0	ISIslide	Neutral	True
20.323	0.25	Lose2	1.0	0.0	Yes	2.777	0.023	n/a	GoodResponse	0	n/a	n/a	0	1	Cue	AvoidedLoss	True
20.573	4.0	Lose2	1.0	0.0	Yes	2.777	0.0	n/a	GoodResponse	0	n/a	n/a	0	1	Fixation	AvoidedLoss	True
24.572	0.39	Lose2	1.0	0.001	Yes	2.777	-0.001	4.0	GoodResponse	0	0.226	23.798	0	1	Target	AvoidedLoss	True
24.798	0.3	Lose2	1.0	0.001	Yes	2.777	-0.001	4.0	GoodResponse	0	0.226	n/a	0	1	ButtonPress	AvoidedLoss	True
24.972	0.31	Lose2	1.0	n/a	Yes	2.777	n/a	n/a	GoodResponse	0	n/a	n/a	0	1	Blank	AvoidedLoss	True
25.271	1.45	Lose2	1.0	n/a	Yes	2.777	n/a	5.0	GoodResponse	0	0.023	24.294	0	1	Feedback	AvoidedLoss	True
26.721	2.777	Lose2	1.0	n/a	Yes	2.777	n/a	n/a	GoodResponse	0	0.0	n/a	0	1	ISIslide	AvoidedLoss	True
29.52	0.25	Control	1.0	0.0	Yes	2.58	0.02	n/a	GoodResponse	0	n/a	n/a	0	2	Cue	Neutral	True
29.77	4.1	Control	1.0	0.0	Yes	2.58	0.0	n/a	GoodResponse	0	n/a	n/a	0	2	Fixation	Neutral	True
33.869	0.38	Control	1.0	0.001	Yes	2.58	-0.001	4.0	GoodResponse	0	0.246	33.115	0	2	Target	Neutral	True
34.115	0.3	Control	1.0	0.001	Yes	2.58	-0.001	4.0	GoodResponse	0	0.246	n/a	0	2	ButtonPress	Neutral	True
34.252	0.32	Control	1.0	n/a	Yes	2.58	n/a	n/a	GoodResponse	0	n/a	n/a	0	2	Blank	Neutral	True
34.568	1.45	Control	1.0	n/a	Yes	2.58	n/a	5.0	GoodResponse	0	0.043	33.611	0	2	Feedback	Neutral	True
36.018	2.58	Control	1.0	n/a	Yes	2.58	n/a	n/a	GoodResponse	0	0.0	n/a	0	2	ISIslide	Neutral	True
38.617	0.25	Win2	1.0	0.0	Yes	2.833	0.017	n/a	GoodResponse	1	n/a	n/a	1	3	Cue	Win	True
38.867	3.95	Win2	1.0	0.0	Yes	2.833	0.0	n/a	GoodResponse	1	n/a	n/a	1	3	Fixation	Win	True
42.816	0.37	Win2	1.0	0.001	Yes	2.833	-0.001	4.0	GoodResponse	1	0.254	42.07	1	3	Target	Win	True
43.07	0.3	Win2	1.0	0.001	Yes	2.833	-0.001	4.0	GoodResponse	1	0.254	n/a	1	3	ButtonPress	Win	True
43.199	0.33	Win2	1.0	n/a	Yes	2.833	n/a	n/a	GoodResponse	1	n/a	n/a	1	3	Blank	Win	True
43.515	1.45	Win2	1.0	n/a	Yes	2.833	n/a	5.0	GoodResponse	1	0.023	42.538	1	3	Feedback	Win	True
44.965	2.833	Win2	1.0	n/a	Yes	2.833	n/a	n/a	GoodResponse	1	0.0	n/a	1	3	ISIslide	Win	True
47.814	0.25	Win2	1.0	0.0	Yes	3.286	0.014	n/a	GoodResponse	1	n/a	n/a	2	4	Cue	Win	True
48.064	4.0	Win2	1.0	0.0	Yes	3.286	0.0	n/a	GoodResponse	1	n/a	n/a	2	4	Fixation	Win	True
52.062	0.36	Win2	1.0	0.002	Yes	3.286	-0.002	4.0	GoodResponse	1	0.202	51.264	2	4	Target	Win	True
52.264	0.3	Win2	1.0	0.002	Yes	3.286	-0.002	4.0	GoodResponse	1	0.202	n/a	2	4	ButtonPress	Win	True
52.429	0.34	Win2	1.0	n/a	Yes	3.286	n/a	n/a	GoodResponse	1	n/a	n/a	2	4	Blank	Win	True
52.762	1.45	Win2	1.0	n/a	Yes	3.286	n/a	5.0	GoodResponse	1	0.045	51.807	2	4	Feedback	Win	True
54.212	3.286	Win2	1.0	n/a	Yes	3.286	n/a	n/a	GoodResponse	1	0.0	n/a	2	4	ISIslide	Win	True
57.527	0.25	Win2	1.0	0.0	Yes	2.773	0.027	n/a	GoodResponse	1	n/a	n/a	3	5	Cue	Win	True
57.777	4.0	Win2	1.0	0.0	Yes	2.773	0.0	n/a	GoodResponse	1	n/a	n/a	3	5	Fixation	Win	True
61.776	0.35	Win2	1.0	0.001	Yes	2.773	-0.001	4.0	GoodResponse	1	0.244	61.02	3	5	Target	Win	True
62.02	0.3	Win2	1.0	0.001	Yes	2.773	-0.001	4.0	GoodResponse	1	0.244	n/a	3	5	ButtonPress	Win	True
62.126	0.35	Win2	1.0	n/a	Yes	2.773	n/a	n/a	GoodResponse	1	n/a	n/a	3	5	Blank	Win	True
62.475	1.45	Win2	1.0	n/a	Yes	2.773	n/a	5.0	GoodResponse	1	0.039	61.514	3	5	Feedback	Win	True
63.925	2.773	Win2	1.0	n/a	Yes	2.773	n/a	n/a	GoodResponse	1	0.0	n/a	3	5	ISIslide	Win	True
66.724	0.25	Lose2	1.0	0.0	Yes	2.726	0.024	n/a	GoodResponse	0	n/a	n/a	3	6	Cue	AvoidedLoss	True
66.974	3.95	Lose2	1.0	0.0	Yes	2.726	0.0	n/a	GoodResponse	0	n/a	n/a	3	6	Fixation	AvoidedLoss	True
70.923	0.34	Lose2	1.0	0.001	Yes	2.726	-0.001	4.0	GoodResponse	0	0.247	70.17	3	6	Target	AvoidedLoss	True
71.17	0.3	Lose2	1.0	0.001	Yes	2.726	-0.001	4.0	GoodResponse	0	0.247	n/a	3	6	ButtonPress	AvoidedLoss	True
71.272	0.36	Lose2	1.0	n/a	Yes	2.726	n/a	n/a	GoodResponse	0	n/a	n/a	3	6	Blank	AvoidedLoss	True
71.622	1.45	Lose2	1.0	n/a	Yes	2.726	n/a	5.0	GoodResponse	0	0.014	70.636	3	6	Feedback	AvoidedLoss	True
73.072	2.726	Lose2	1.0	n/a	Yes	2.726	n/a	n/a	GoodResponse	0	0.0	n/a	3	6	ISIslide	AvoidedLoss	True
75.821	0.25	Lose2	1.0	0.0	Yes	4.029	0.021	n/a	GoodResponse	0	n/a	n/a	3	7	Cue	AvoidedLoss	True
76.071	4.05	Lose2	1.0	0.0	Yes	4.029	0.0	n/a	GoodResponse	0	n/a	n/a	3	7	Fixation	AvoidedLoss	True
80.119	0.33	Lose2	1.0	0.002	Yes	4.029	-0.002	4.0	GoodResponse	0	0.243	79.362	3	7	Target	AvoidedLoss	True
80.362	0.3	Lose2	1.0	0.002	Yes	4.029	-0.002	4.0	GoodResponse	0	0.243	n/a	3	7	ButtonPress	AvoidedLoss	True
80.453	0.37	Lose2	1.0	n/a	Yes	4.029	n/a	n/a	GoodResponse	0	n/a	n/a	3	7	Blank	AvoidedLoss	True
80.819	1.45	Lose2	1.0	n/a	Yes	4.029	n/a	5.0	GoodResponse	0	0.037	79.856	3	7	Feedback	AvoidedLoss	True
82.269	4.029	Lose2	1.0	n/a	Yes	4.029	n/a	n/a	GoodResponse	0	0.0	n/a	3	7	ISIslide	AvoidedLoss	True
86.317	0.25	Lose2	1.0	0.0	Yes	3.033	0.017	n/a	GoodResponse	0	n/a	n/a	3	8	Cue	AvoidedLoss	True
86.567	3.95	Lose2	1.0	0.0	Yes	3.033	0.0	n/a	GoodResponse	0	n/a	n/a	3	8	Fixation	AvoidedLoss	True
90.516	0.32	Lose2	1.0	0.001	Yes	3.033	-0.001	4.0	GoodResponse	0	0.267	89.783	3	8	Target	AvoidedLoss	True
90.783	0.3	Lose2	1.0	0.001	Yes	3.033	-0.001	4.0	GoodResponse	0	0.267	n/a	3	8	ButtonPress	AvoidedLoss	True
90.832	0.38	Lose2	1.0	n/a	Yes	3.033	n/a	n/a	GoodResponse	0	n/a	n/a	3	8	Blank	AvoidedLoss	True
91.216	1.45	Lose2	1.0	n/a	Yes	3.033	n/a	5.0	GoodResponse	0	0.03	90.246	3	8	Feedback	AvoidedLoss	True
92.665	3.033	Lose2	1.0	n/a	Yes	3.033	n/a	n/a	GoodResponse	0	0.0	n/a	3	8	ISIslide	AvoidedLoss	True
95.714	0.25	Lose2	1.0	0.0	Yes	3.136	0.014	n/a	GoodResponse	0	n/a	n/a	3	9	Cue	AvoidedLoss	True
95.964	3.95	Lose2	1.0	0.0	Yes	3.136	0.0	n/a	GoodResponse	0	n/a	n/a	3	9	Fixation	AvoidedLoss	True
99.913	0.31	Lose2	1.0	0.001	Yes	3.136	-0.001	4.0	GoodResponse	0	0.233	99.146	3	9	Target	AvoidedLoss	True
100.146	0.3	Lose2	1.0	0.001	Yes	3.136	-0.001	4.0	GoodResponse	0	0.233	n/a	3	9	ButtonPress	AvoidedLoss	True
100.229	0.39	Lose2	1.0	n/a	Yes	3.136	n/a	n/a	GoodResponse	0	n/a	n/a	3	9	Blank	AvoidedLoss	True
100.612	1.45	Lose2	1.0	n/a	Yes	3.136	n/a	5.0	GoodResponse	0	0.048	99.66	3	9	Feedback	AvoidedLoss	True
102.062	3.136	Lose2	1.0	n/a	Yes	3.136	n/a	n/a	GoodResponse	0	0.0	n/a	3	9	ISIslide	AvoidedLoss	True
105.227	0.25	Control	0.9091	0.001	No	3.273	0.027	n/a	NoResponse	0	n/a	n/a	3	10	Cue	Neutral	True
105.477	4.0	Control	0.9091	0.0	No	3.273	0.0	n/a	NoResponse	0	n/a	n/a	3	10	Fixation	Neutral	True
109.476	0.3	Control	0.9091	0.001	No	3.273	-0.001	4.0	NoResponse	0	0.471	108.947	3	10	Target	Neutral	True
109.776	0.4	Control	0.9091	n/a	No	3.273	n/a	n/a	NoResponse	0	n/a	n/a	3	10	Blank	Neutral	True
109.947	0.3	Control	0.9091	0.001	No	3.273	-0.001	4.0	NoResponse	0	0.471	n/a	3	10	ButtonPress	Neutral	True
110.176	1.45	Control	0.9091	n/a	No	3.273	n/a	5.0	NoResponse	0	0.045	109.221	3	10	Feedback	Neutral	True
111.625	3.273	Control	0.9091	n/a	No	3.273	n/a	n/a	NoResponse	0	0.0	n/a	3	10	ISIslide	Neutral	True
114.924	0.25	Lose2	0.8332999999999999	0.0	No	2.726	0.024	n/a	NoResponse	-1	n/a	n/a	2	11	Cue	Loss	True
115.174	4.05	Lose2	0.8332999999999999	0.0	No	2.726	0.0	n/a	NoResponse	-1	n/a	n/a	2	11	Fixation	Loss	True
119.223	0.29	Lose2	0.8332999999999999	0.001	No	2.726	-0.001	4.0	NoResponse	-1	0.5	118.723	2	11	Target	Loss	True
119.523	0.41	Lose2	0.8332999999999999	n/a	No	2.726	n/a	n/a	NoResponse	-1	n/a	n/a	2	11	Blank	Loss	True
119.723	0.3	Lose2	0.8332999999999999	0.001	No	2.726	-0.001	4.0	NoResponse	-1	0.5	n/a	2	11	ButtonPress	Loss	True
119.922	1.45	Lose2	0.8332999999999999	n/a	No	2.726	n/a	5.0	NoResponse	-1	0.007	118.929	2	11	Feedback	Loss	True
121.372	2.726	Lose2	0.8332999999999999	n/a	No	2.726	n/a	n/a	NoResponse	-1	0.0	n/a	2	11	ISIslide	Loss	True
124.121	0.25	Control	0.8462000000000001	0.0	Yes	2.979	0.021	n/a	GoodResponse	0	n/a	n/a	2	12	Cue	Neutral	True
124.371	3.9	Control	0.8462000000000001	0.0	Yes	2.979	0.0	n/a	GoodResponse	0	n/a	n/a	2	12	Fixation	Neutral	True
128.27	0.28	Control	0.8462000000000001	0.001	Yes	2.979	-0.001	4.0	GoodResponse	0	0.227	127.497	2	12	Target	Neutral	True
128.497	0.3	Control	0.8462000000000001	0.001	Yes	2.979	-0.001	4.0	GoodResponse	0	0.227	n/a	2	12	ButtonPress	Neutral	True
128.553	0.42	Control	0.8462000000000001	n/a	Yes	2.979	n/a	n/a	GoodResponse	0	n/a	n/a	2	12	Blank	Neutral	True
128.969	1.45	Control	0.8462000000000001	n/a	Yes	2.979	n/a	5.0	GoodResponse	0	0.033	128.002	2	12	Feedback	Neutral	True
130.419	2.979	Control	0.8462000000000001	n/a	Yes	2.979	n/a	n/a	GoodResponse	0	0.0	n/a	2	12	ISIslide	Neutral	True
133.418	0.25	Control	0.7857	0.0	No	2.782	0.018	n/a	NoResponse	0	n/a	n/a	2	13	Cue	Neutral	True
133.668	4.0	Control	0.7857	0.0	No	2.782	0.0	n/a	NoResponse	0	n/a	n/a	2	13	Fixation	Neutral	True
137.666	0.27	Control	0.7857	0.002	No	2.782	-0.002	4.0	NoResponse	0	0.506	137.172	2	13	Target	Neutral	True
137.95	0.43	Control	0.7857	n/a	No	2.782	n/a	n/a	NoResponse	0	n/a	n/a	2	13	Blank	Neutral	True
138.172	0.3	Control	0.7857	0.002	No	2.782	-0.002	4.0	NoResponse	0	0.506	n/a	2	13	ButtonPress	Neutral	True
138.366	1.45	Control	0.7857	n/a	No	2.782	n/a	5.0	NoResponse	0	0.002	137.368	2	13	Feedback	Neutral	True
139.816	2.782	Control	0.7857	n/a	No	2.782	n/a	n/a	NoResponse	0	0.0	n/a	2	13	ISIslide	Neutral	True
142.615	0.25	Win2	0.8	0.0	Yes	2.685	0.015	n/a	GoodResponse	1	n/a	n/a	3	14	Cue	Win	True
142.865	4.1	Win2	0.8	0.0	Yes	2.685	0.0	n/a	GoodResponse	1	n/a	n/a	3	14	Fixation	Win	True
146.963	0.26	Win2	0.8	0.002	Yes	2.685	-0.002	4.0	GoodResponse	1	0.222	146.185	3	14	Target	Win	True
147.185	0.3	Win2	0.8	0.002	Yes	2.685	-0.002	4.0	GoodResponse	1	0.222	n/a	3	14	ButtonPress	Win	True
147.23	0.44	Win2	0.8	n/a	Yes	2.685	n/a	n/a	GoodResponse	1	n/a	n/a	3	14	Blank	Win	True
147.663	1.45	Win2	0.8	n/a	Yes	2.685	n/a	5.0	GoodResponse	1	0.022	146.685	3	14	Feedback	Win	True
149.112	2.685	Win2	0.8	n/a	Yes	2.685	n/a	n/a	GoodResponse	1	0.0	n/a	3	14	ISIslide	Win	True
151.828	0.25	Control	0.8125	0.0	Yes	2.972	0.028	n/a	GoodResponse	0	n/a	n/a	3	15	Cue	Neutral	True
152.078	4.0	Control	0.8125	0.0	Yes	2.972	0.0	n/a	GoodResponse	0	n/a	n/a	3	15	Fixation	Neutral	True
156.077	0.25	Control	0.8125	0.001	Yes	2.972	-0.001	4.0	GoodResponse	0	0.233	155.31	3	15	Target	Neutral	True
156.31	0.3	Control	0.8125	0.001	Yes	2.972	-0.001	4.0	GoodResponse	0	0.233	n/a	3	15	ButtonPress	Neutral	True
156.327	0.45	Control	0.8125	n/a	Yes	2.972	n/a	n/a	GoodResponse	0	n/a	n/a	3	15	Blank	Neutral	True
156.776	1.45	Control	0.8125	n/a	Yes	2.972	n/a	5.0	GoodResponse	0	0.031	155.807	3	15	Feedback	Neutral	True
158.226	2.972	Control	0.8125	n/a	Yes	2.972	n/a	n/a	GoodResponse	0	0.0	n/a	3	15	ISIslide	Neutral	True
161.225	0.25	Win2	0.8234999999999999	0.0	Yes	2.875	0.025	n/a	GoodResponse	1	n/a	n/a	4	16	Cue	Win	True
161.475	4.0	Win2	0.8234999999999999	0.0	Yes	2.875	0.0	n/a	GoodResponse	1	n/a	n/a	4	16	Fixation	Win	True
165.474	0.24	Win2	0.8234999999999999	0.001	Yes	2.875	-0.001	4.0	GoodResponse	1	0.189	164.663	4	16	Target	Win	True
165.663	0.3	Win2	0.8234999999999999	0.001	Yes	2.875	-0.001	4.0	GoodResponse	1	0.189	n/a	4	16	ButtonPress	Win	True
165.723	0.46	Win2	0.8234999999999999	n/a	Yes	2.875	n/a	n/a	GoodResponse	1	n/a	n/a	4	16	Blank	Win	True
166.173	1.45	Win2	0.8234999999999999	n/a	Yes	2.875	n/a	5.0	GoodResponse	1	0.049	165.222	4	16	Feedback	Win	True
167.623	2.875	Win2	0.8234999999999999	n/a	Yes	2.875	n/a	n/a	GoodResponse	1	0.0	n/a	4	16	ISIslide	Win	True
170.522	0.25	Lose2	0.8332999999999999	0.0	Yes	2.728	0.022	n/a	GoodResponse	0	n/a	n/a	4	17	Cue	AvoidedLoss	True
170.772	3.95	Lose2	0.8332999999999999	0.0	Yes	2.728	0.0	n/a	GoodResponse	0	n/a	n/a	4	17	Fixation	AvoidedLoss	True
174.72	0.23	Lose2	0.8332999999999999	0.002	Yes	2.728	-0.002	4.0	GoodResponse	0	0.199	173.919	4	17	Target	AvoidedLoss	True
174.919	0.3	Lose2	0.8332999999999999	0.002	Yes	2.728	-0.002	4.0	GoodResponse	0	0.199	n/a	4	17	ButtonPress	AvoidedLoss	True
174.954	0.47	Lose2	0.8332999999999999	n/a	Yes	2.728	n/a	n/a	GoodResponse	0	n/a	n/a	4	17	Blank	AvoidedLoss	True
175.42	1.45	Lose2	0.8332999999999999	n/a	Yes	2.728	n/a	5.0	GoodResponse	0	0.02	174.44	4	17	Feedback	AvoidedLoss	True
176.87	2.728	Lose2	0.8332999999999999	n/a	Yes	2.728	n/a	n/a	GoodResponse	0	0.0	n/a	4	17	ISIslide	AvoidedLoss	True
179.619	0.25	Lose2	0.7895	0.0	No	2.731	0.019	n/a	NoResponse	-1	n/a	n/a	3	18	Cue	Loss	True
179.869	4.05	Lose2	0.7895	0.0	No	2.731	0.0	n/a	NoResponse	-1	n/a	n/a	3	18	Fixation	Loss	True
183.917	0.22	Lose2	0.7895	0.002	No	2.731	-0.002	4.0	NoResponse	-1	0.354	183.271	3	18	Target	Loss	True
184.15	0.48	Lose2	0.7895	n/a	No	2.731	n/a	n/a	NoResponse	-1	n/a	n/a	3	18	Blank	Loss	True
184.271	0.3	Lose2	0.7895	0.002	No	2.731	-0.002	4.0	NoResponse	-1	0.354	n/a	3	18	ButtonPress	Loss	True
184.617	1.45	Lose2	0.7895	n/a	No	2.731	n/a	5.0	NoResponse	-1	0.043	183.66	3	18	Feedback	Loss	True
186.066	2.731	Lose2	0.7895	n/a	No	2.731	n/a	n/a	NoResponse	-1	0.0	n/a	3	18	ISIslide	Loss	True
188.816	0.25	Control	0.75	0.0	No	2.934	0.016	n/a	NoResponse	0	n/a	n/a	3	19	Cue	Neutral	False
189.065	3.95	Control	0.75	0.001	No	2.934	-0.001	n/a	NoResponse	0	n/a	n/a	3	19	Fixation	Neutral	False
193.014	0.21	Control	0.75	0.002	No	2.934	-0.002	n/a	NoResponse	0	n/a	n/a	3	19	Target	Neutral	False
193.231	0.49	Control	0.75	n/a	No	2.934	n/a	n/a	NoResponse	0	n/a	n/a	3	19	Blank	Neutral	False
193.714	1.45	Control	0.75	n/a	No	2.934	n/a	5.0	NoResponse	0	0.019	192.733	3	19	Feedback	Neutral	False
195.163	2.934	Control	0.75	n/a	No	2.934	n/a	n/a	NoResponse	0	0.0	n/a	3	19	ISIslide	Neutral	False
198.112	0.25	Control	0.7619	0.0	Yes	2.638	0.012	n/a	GoodResponse	0	n/a	n/a	3	20	Cue	Neutral	True
198.362	4.05	Control	0.7619	0.0	Yes	2.638	0.0	n/a	GoodResponse	0	n/a	n/a	3	20	Fixation	Neutral	True
202.411	0.2	Control	0.7619	0.001	Yes	2.638	-0.001	4.0	GoodResponse	0	0.186	201.597	3	20	Target	Neutral	True
202.597	0.3	Control	0.7619	0.001	Yes	2.638	-0.001	4.0	GoodResponse	0	0.186	n/a	3	20	ButtonPress	Neutral	True
202.611	0.5	Control	0.7619	n/a	Yes	2.638	n/a	n/a	GoodResponse	0	n/a	n/a	3	20	Blank	Neutral	True
203.111	1.45	Control	0.7619	n/a	Yes	2.638	n/a	5.0	GoodResponse	0	0.037	202.148	3	20	Feedback	Neutral	True
204.56	2.638	Control	0.7619	n/a	Yes	2.638	n/a	n/a	GoodResponse	0	0.0	n/a	3	20	ISIslide	Neutral	True
207.226	0.25	Control	0.7273000000000001	0.0	No	2.774	0.026	n/a	NoResponse	0	n/a	n/a	3	21	Cue	Neutral	True
207.476	4.1	Control	0.7273000000000001	0.0	No	2.774	0.0	n/a	NoResponse	0	n/a	n/a	3	21	Fixation	Neutral	True
211.574	0.19	Control	0.7273000000000001	0.002	No	2.774	-0.002	4.0	NoResponse	0	0.219	210.793	3	21	Target	Neutral	True
211.774	0.51	Control	0.7273000000000001	n/a	No	2.774	n/a	n/a	NoResponse	0	n/a	n/a	3	21	Blank	Neutral	True
211.793	0.3	Control	0.7273000000000001	0.002	No	2.774	-0.002	4.0	NoResponse	0	0.219	n/a	3	21	ButtonPress	Neutral	True
212.274	1.45	Control	0.7273000000000001	n/a	No	2.774	n/a	5.0	NoResponse	0	0.045	211.319	3	21	Feedback	Neutral	True
213.724	2.774	Control	0.7273000000000001	n/a	No	2.774	n/a	n/a	NoResponse	0	0.0	n/a	3	21	ISIslide	Neutral	True
216.523	0.25	Control	0.7391	0.0	Yes	2.777	0.023	n/a	GoodResponse	0	n/a	n/a	3	22	Cue	Neutral	True
216.773	4.0	Control	0.7391	0.0	Yes	2.777	0.0	n/a	GoodResponse	0	n/a	n/a	3	22	Fixation	Neutral	True
220.771	0.18	Control	0.7391	0.002	Yes	2.777	-0.002	4.0	GoodResponse	0	0.106	219.877	3	22	Target	Neutral	True
220.877	0.3	Control	0.7391	0.002	Yes	2.777	-0.002	4.0	GoodResponse	0	0.106	n/a	3	22	ButtonPress	Neutral	True
220.954	0.52	Control	0.7391	n/a	Yes	2.777	n/a	n/a	GoodResponse	0	n/a	n/a	3	22	Blank	Neutral	True
221.471	1.45	Control	0.7391	n/a	Yes	2.777	n/a	5.0	GoodResponse	0	0.019	220.49	3	22	Feedback	Neutral	True
222.92	2.777	Control	0.7391	n/a	Yes	2.777	n/a	n/a	GoodResponse	0	0.0	n/a	3	22	ISIslide	Neutral	True
225.72	0.25	Control	0.7082999999999999	0.0	No	2.78	0.02	n/a	NoResponse	0	n/a	n/a	3	23	Cue	Neutral	True
225.969	3.9	Control	0.7082999999999999	0.001	No	2.78	-0.001	n/a	NoResponse	0	n/a	n/a	3	23	Fixation	Neutral	True
229.868	0.17	Control	0.7082999999999999	0.002	No	2.78	-0.002	4.0	NoResponse	0	0.194	229.062	3	23	Target	Neutral	True
230.051	0.53	Control	0.7082999999999999	n/a	No	2.78	n/a	n/a	NoResponse	0	n/a	n/a	3	23	Blank	Neutral	True
230.062	0.3	Control	0.7082999999999999	0.002	No	2.78	-0.002	4.0	NoResponse	0	0.194	n/a	3	23	ButtonPress	Neutral	True
230.568	1.45	Control	0.7082999999999999	n/a	No	2.78	n/a	5.0	NoResponse	0	0.044	229.612	3	23	Feedback	Neutral	True
232.017	2.78	Control	0.7082999999999999	n/a	No	2.78	n/a	n/a	NoResponse	0	0.0	n/a	3	23	ISIslide	Neutral	True
234.816	0.25	Win2	0.68	0.001	No	3.134	0.016	n/a	NoResponse	0	n/a	n/a	3	24	Cue	MissedWin	True
235.066	3.95	Win2	0.68	0.0	No	3.134	0.0	n/a	NoResponse	0	n/a	n/a	3	24	Fixation	MissedWin	True
239.015	0.16	Win2	0.68	0.001	No	3.134	-0.001	4.0	NoResponse	0	0.2	238.215	3	24	Target	MissedWin	True
239.182	0.54	Win2	0.68	n/a	No	3.134	n/a	n/a	NoResponse	0	n/a	n/a	3	24	Blank	MissedWin	True
239.215	0.3	Win2	0.68	0.001	No	3.134	-0.001	4.0	NoResponse	0	0.2	n/a	3	24	ButtonPress	MissedWin	True
239.715	1.45	Win2	0.68	n/a	No	3.134	n/a	5.0	NoResponse	0	0.019	238.734	3	24	Feedback	MissedWin	True
241.164	3.134	Win2	0.68	n/a	No	3.134	n/a	n/a	NoResponse	0	0.0	n/a	3	24	ISIslide	MissedWin	True
244.313	0.25	Win2	0.6537999999999999	0.0	No	3.087	0.013	n/a	NoResponse	0	n/a	n/a	3	25	Cue	MissedWin	False
244.563	4.0	Win2	0.6537999999999999	0.0	No	3.087	0.0	4.0	NoResponse	0	3.195	246.758	3	25	Fixation	MissedWin	False
247.758	0.3	Win2	0.6537999999999999	0.0	No	3.087	0.0	4.0	NoResponse	0	3.195	n/a	3	25	ButtonPress	MissedWin	False
248.562	0.15	Win2	0.6537999999999999	0.001	No	3.087	-0.001	4.0	NoResponse	0	0.211	247.773	3	25	Target	MissedWin	False
248.712	0.55	Win2	0.6537999999999999	n/a	No	3.087	n/a	n/a	NoResponse	0	n/a	n/a	3	25	Blank	MissedWin	False
248.773	0.3	Win2	0.6537999999999999	0.001	No	3.087	-0.001	4.0	NoResponse	0	0.211	n/a	3	25	ButtonPress	MissedWin	False
249.261	1.45	Win2	0.6537999999999999	n/a	No	3.087	n/a	5.0	NoResponse	0	0.033	248.294	3	25	Feedback	MissedWin	False
250.711	3.087	Win2	0.6537999999999999	n/a	No	3.087	n/a	n/a	NoResponse	0	0.0	n/a	3	25	ISIslide	MissedWin	False
253.827	0.25	Win2	0.6296	0.0	No	2.923	0.027	n/a	NoResponse	0	n/a	n/a	3	26	Cue	MissedWin	True
254.076	3.95	Win2	0.6296	0.001	No	2.923	-0.001	n/a	NoResponse	0	n/a	n/a	3	26	Fixation	MissedWin	True
258.025	0.16	Win2	0.6296	0.002	No	2.923	-0.002	4.0	NoResponse	0	0.279	257.304	3	26	Target	MissedWin	True
258.192	0.54	Win2	0.6296	n/a	No	2.923	n/a	n/a	NoResponse	0	n/a	n/a	3	26	Blank	MissedWin	True
258.304	0.3	Win2	0.6296	0.002	No	2.923	-0.002	4.0	NoResponse	0	0.279	n/a	3	26	ButtonPress	MissedWin	True
258.725	1.45	Win2	0.6296	n/a	No	2.923	n/a	5.0	NoResponse	0	0.033	257.758	3	26	Feedback	MissedWin	True
260.174	2.923	Win2	0.6296	n/a	No	2.923	n/a	n/a	NoResponse	0	0.0	n/a	3	26	ISIslide	MissedWin	True
263.123	0.25	Lose2	0.6071	0.001	No	2.827	0.023	n/a	NoResponse	-1	n/a	n/a	2	27	Cue	Loss	True
263.373	4.05	Lose2	0.6071	0.0	No	2.827	0.0	n/a	NoResponse	-1	n/a	n/a	2	27	Fixation	Loss	True
267.422	0.17	Lose2	0.6071	0.001	No	2.827	-0.001	4.0	NoResponse	-1	0.23	266.652	2	27	Target	Loss	True
267.589	0.53	Lose2	0.6071	n/a	No	2.827	n/a	n/a	NoResponse	-1	n/a	n/a	2	27	Blank	Loss	True
267.652	0.3	Lose2	0.6071	0.001	No	2.827	-0.001	4.0	NoResponse	-1	0.23	n/a	2	27	ButtonPress	Loss	True
268.122	1.45	Lose2	0.6071	n/a	No	2.827	n/a	5.0	NoResponse	-1	0.006	267.128	2	27	Feedback	Loss	True
269.571	2.827	Lose2	0.6071	n/a	No	2.827	n/a	n/a	NoResponse	-1	0.0	n/a	2	27	ISIslide	Loss	True
272.42	0.25	Control	0.5861999999999999	0.0	No	2.83	0.02	n/a	NoResponse	0	n/a	n/a	2	28	Cue	Neutral	True
272.67	4.05	Control	0.5861999999999999	0.0	No	2.83	0.0	n/a	NoResponse	0	n/a	n/a	2	28	Fixation	Neutral	True
276.719	0.18	Control	0.5861999999999999	0.001	No	2.83	-0.001	4.0	NoResponse	0	0.19	275.909	2	28	Target	Neutral	True
276.902	0.52	Control	0.5861999999999999	n/a	No	2.83	n/a	n/a	NoResponse	0	n/a	n/a	2	28	Blank	Neutral	True
276.909	0.3	Control	0.5861999999999999	0.001	No	2.83	-0.001	4.0	NoResponse	0	0.19	n/a	2	28	ButtonPress	Neutral	True
277.419	1.45	Control	0.5861999999999999	n/a	No	2.83	n/a	5.0	NoResponse	0	0.022	276.441	2	28	Feedback	Neutral	True
278.868	2.83	Control	0.5861999999999999	n/a	No	2.83	n/a	n/a	NoResponse	0	0.0	n/a	2	28	ISIslide	Neutral	True
281.717	0.25	Lose2	0.5667	0.0	No	2.833	0.017	n/a	NoResponse	-1	n/a	n/a	1	29	Cue	Loss	True
281.967	3.95	Lose2	0.5667	0.0	No	2.833	0.0	n/a	NoResponse	-1	n/a	n/a	1	29	Fixation	Loss	True
285.916	0.19	Lose2	0.5667	0.001	No	2.833	-0.001	4.0	NoResponse	-1	0.378	285.294	1	29	Target	Loss	True
286.116	0.51	Lose2	0.5667	n/a	No	2.833	n/a	n/a	NoResponse	-1	n/a	n/a	1	29	Blank	Loss	True
286.294	0.3	Lose2	0.5667	0.001	No	2.833	-0.001	4.0	NoResponse	-1	0.378	n/a	1	29	ButtonPress	Loss	True
286.615	1.45	Lose2	0.5667	n/a	No	2.833	n/a	5.0	NoResponse	-1	0.045	285.66	1	29	Feedback	Loss	True
288.065	2.833	Lose2	0.5667	n/a	No	2.833	n/a	n/a	NoResponse	-1	0.0	n/a	1	29	ISIslide	Loss	True
290.914	0.25	Win2	0.5806	0.0	Yes	2.786	0.014	n/a	GoodResponse	1	n/a	n/a	2	30	Cue	Win	True
291.164	3.9	Win2	0.5806	0.0	Yes	2.786	0.0	n/a	GoodResponse	1	n/a	n/a	2	30	Fixation	Win	True
295.062	0.2	Win2	0.5806	0.002	Yes	2.786	-0.002	4.0	GoodResponse	1	0.198	294.26	2	30	Target	Win	True
295.26	0.3	Win2	0.5806	0.002	Yes	2.786	-0.002	4.0	GoodResponse	1	0.198	n/a	2	30	ButtonPress	Win	True
295.262	0.5	Win2	0.5806	n/a	Yes	2.786	n/a	n/a	GoodResponse	1	n/a	n/a	2	30	Blank	Win	True
295.762	1.45	Win2	0.5806	n/a	Yes	2.786	n/a	5.0	GoodResponse	1	0.021	294.783	2	30	Feedback	Win	True
297.212	2.786	Win2	0.5806	n/a	Yes	2.786	n/a	n/a	GoodResponse	1	0.0	n/a	2	30	ISIslide	Win	True
300.027	0.25	Lose2	0.5938	0.001	Yes	2.823	0.027	n/a	GoodResponse	0	n/a	n/a	2	31	Cue	AvoidedLoss	True
300.277	4.05	Lose2	0.5938	0.0	Yes	2.823	0.0	n/a	GoodResponse	0	n/a	n/a	2	31	Fixation	AvoidedLoss	True
304.326	0.21	Lose2	0.5938	0.001	Yes	2.823	-0.001	4.0	GoodResponse	0	0.192	303.518	2	31	Target	AvoidedLoss	True
304.518	0.3	Lose2	0.5938	0.001	Yes	2.823	-0.001	4.0	GoodResponse	0	0.192	n/a	2	31	ButtonPress	AvoidedLoss	True
304.543	0.49	Lose2	0.5938	n/a	Yes	2.823	n/a	n/a	GoodResponse	0	n/a	n/a	2	31	Blank	AvoidedLoss	True
305.026	1.45	Lose2	0.5938	n/a	Yes	2.823	n/a	5.0	GoodResponse	0	0.025	304.051	2	31	Feedback	AvoidedLoss	True
306.475	2.823	Lose2	0.5938	n/a	Yes	2.823	n/a	n/a	GoodResponse	0	0.0	n/a	2	31	ISIslide	AvoidedLoss	True
309.324	0.25	Lose2	0.6061	0.0	Yes	2.626	0.024	n/a	GoodResponse	0	n/a	n/a	2	32	Cue	AvoidedLoss	True
309.574	4.15	Lose2	0.6061	0.0	Yes	2.626	0.0	n/a	GoodResponse	0	n/a	n/a	2	32	Fixation	AvoidedLoss	True
313.723	0.22	Lose2	0.6061	0.001	Yes	2.626	-0.001	4.0	GoodResponse	0	0.205	312.928	2	32	Target	AvoidedLoss	True
313.928	0.3	Lose2	0.6061	0.001	Yes	2.626	-0.001	4.0	GoodResponse	0	0.205	n/a	2	32	ButtonPress	AvoidedLoss	True
313.956	0.48	Lose2	0.6061	n/a	Yes	2.626	n/a	n/a	GoodResponse	0	n/a	n/a	2	32	Blank	AvoidedLoss	True
314.423	1.45	Lose2	0.6061	n/a	Yes	2.626	n/a	5.0	GoodResponse	0	0.043	313.466	2	32	Feedback	AvoidedLoss	True
315.872	2.626	Lose2	0.6061	n/a	Yes	2.626	n/a	n/a	GoodResponse	0	0.0	n/a	2	32	ISIslide	AvoidedLoss	True
318.521	0.25	Win2	0.5882000000000001	0.0	No	2.679	0.021	n/a	NoResponse	0	n/a	n/a	2	33	Cue	MissedWin	True
318.771	4.0	Win2	0.5882000000000001	0.0	No	2.679	0.0	n/a	NoResponse	0	n/a	n/a	2	33	Fixation	MissedWin	True
322.77	0.23	Win2	0.5882000000000001	0.001	No	2.679	-0.001	4.0	NoResponse	0	0.276	322.046	2	33	Target	MissedWin	True
323.003	0.47	Win2	0.5882000000000001	n/a	No	2.679	n/a	n/a	NoResponse	0	n/a	n/a	2	33	Blank	MissedWin	True
323.046	0.3	Win2	0.5882000000000001	0.001	No	2.679	-0.001	4.0	NoResponse	0	0.276	n/a	2	33	ButtonPress	MissedWin	True
323.469	1.45	Win2	0.5882000000000001	n/a	No	2.679	n/a	5.0	NoResponse	0	0.02	322.489	2	33	Feedback	MissedWin	True
324.919	2.679	Win2	0.5882000000000001	n/a	No	2.679	n/a	n/a	NoResponse	0	0.0	n/a	2	33	ISIslide	MissedWin	True
327.618	0.25	Lose2	0.5714	0.0	No	2.632	0.018	n/a	NoResponse	-1	n/a	n/a	1	34	Cue	Loss	True
327.868	4.05	Lose2	0.5714	0.0	No	2.632	0.0	n/a	NoResponse	-1	n/a	n/a	1	34	Fixation	Loss	True
331.917	0.24	Lose2	0.5714	0.001	No	2.632	-0.001	4.0	NoResponse	-1	0.265	331.182	1	34	Target	Loss	True
332.166	0.46	Lose2	0.5714	n/a	No	2.632	n/a	n/a	NoResponse	-1	n/a	n/a	1	34	Blank	Loss	True
332.182	0.3	Lose2	0.5714	0.001	No	2.632	-0.001	4.0	NoResponse	-1	0.265	n/a	1	34	ButtonPress	Loss	True
332.616	1.45	Lose2	0.5714	n/a	No	2.632	n/a	5.0	NoResponse	-1	0.044	331.66	1	34	Feedback	Loss	True
334.066	2.632	Lose2	0.5714	n/a	No	2.632	n/a	n/a	NoResponse	-1	0.0	n/a	1	34	ISIslide	Loss	True
336.715	0.25	Lose2	0.5832999999999999	0.0	Yes	2.685	0.015	n/a	GoodResponse	0	n/a	n/a	1	35	Cue	AvoidedLoss	True
336.965	4.0	Lose2	0.5832999999999999	0.0	Yes	2.685	0.0	n/a	GoodResponse	0	n/a	n/a	1	35	Fixation	AvoidedLoss	True
340.963	0.25	Lose2	0.5832999999999999	0.002	Yes	2.685	-0.002	4.0	GoodResponse	0	0.199	340.162	1	35	Target	AvoidedLoss	True
341.162	0.3	Lose2	0.5832999999999999	0.002	Yes	2.685	-0.002	4.0	GoodResponse	0	0.199	n/a	1	35	ButtonPress	AvoidedLoss	True
341.213	0.45	Lose2	0.5832999999999999	n/a	Yes	2.685	n/a	n/a	GoodResponse	0	n/a	n/a	1	35	Blank	AvoidedLoss	True
341.663	1.45	Lose2	0.5832999999999999	n/a	Yes	2.685	n/a	5.0	GoodResponse	0	0.022	340.685	1	35	Feedback	AvoidedLoss	True
343.113	2.685	Lose2	0.5832999999999999	n/a	Yes	2.685	n/a	n/a	GoodResponse	0	0.0	n/a	1	35	ISIslide	AvoidedLoss	True
345.828	0.25	Control	0.5946	0.0	Yes	2.672	0.028	n/a	GoodResponse	0	n/a	n/a	1	36	Cue	Neutral	True
346.078	4.0	Control	0.5946	0.0	Yes	2.672	0.0	n/a	GoodResponse	0	n/a	n/a	1	36	Fixation	Neutral	True
350.077	0.26	Control	0.5946	0.001	Yes	2.672	-0.001	4.0	GoodResponse	0	0.227	349.304	1	36	Target	Neutral	True
350.304	0.3	Control	0.5946	0.001	Yes	2.672	-0.001	4.0	GoodResponse	0	0.227	n/a	1	36	ButtonPress	Neutral	True
350.344	0.44	Control	0.5946	n/a	Yes	2.672	n/a	n/a	GoodResponse	0	n/a	n/a	1	36	Blank	Neutral	True
350.777	1.45	Control	0.5946	n/a	Yes	2.672	n/a	5.0	GoodResponse	0	0.03	349.807	1	36	Feedback	Neutral	True
352.226	2.672	Control	0.5946	n/a	Yes	2.672	n/a	n/a	GoodResponse	0	0.0	n/a	1	36	ISIslide	Neutral	True
354.925	0.25	Win2	0.6053000000000001	0.0	Yes	2.875	0.025	n/a	GoodResponse	1	n/a	n/a	2	37	Cue	Win	True
355.175	4.0	Win2	0.6053000000000001	0.0	Yes	2.875	0.0	n/a	GoodResponse	1	n/a	n/a	2	37	Fixation	Win	True
359.174	0.27	Win2	0.6053000000000001	0.001	Yes	2.875	-0.001	4.0	GoodResponse	1	0.1	358.274	2	37	Target	Win	True
359.274	0.3	Win2	0.6053000000000001	0.001	Yes	2.875	-0.001	4.0	GoodResponse	1	0.1	n/a	2	37	ButtonPress	Win	True
359.44	0.43	Win2	0.6053000000000001	n/a	Yes	2.875	n/a	n/a	GoodResponse	1	n/a	n/a	2	37	Blank	Win	True
359.874	1.45	Win2	0.6053000000000001	n/a	Yes	2.875	n/a	5.0	GoodResponse	1	0.006	358.88	2	37	Feedback	Win	True
361.323	2.875	Win2	0.6053000000000001	n/a	Yes	2.875	n/a	n/a	GoodResponse	1	0.0	n/a	2	37	ISIslide	Win	True
364.222	0.25	Lose2	0.6154	0.0	Yes	2.828	0.022	n/a	GoodResponse	0	n/a	n/a	2	38	Cue	AvoidedLoss	True
364.472	3.95	Lose2	0.6154	0.0	Yes	2.828	0.0	n/a	GoodResponse	0	n/a	n/a	2	38	Fixation	AvoidedLoss	True
368.421	0.28	Lose2	0.6154	0.001	Yes	2.828	-0.001	4.0	GoodResponse	0	0.23	367.651	2	38	Target	AvoidedLoss	True
368.651	0.3	Lose2	0.6154	0.001	Yes	2.828	-0.001	4.0	GoodResponse	0	0.23	n/a	2	38	ButtonPress	AvoidedLoss	True
368.704	0.42	Lose2	0.6154	n/a	Yes	2.828	n/a	n/a	GoodResponse	0	n/a	n/a	2	38	Blank	AvoidedLoss	True
369.12	1.45	Lose2	0.6154	n/a	Yes	2.828	n/a	5.0	GoodResponse	0	0.028	368.148	2	38	Feedback	AvoidedLoss	True
370.57	2.828	Lose2	0.6154	n/a	Yes	2.828	n/a	n/a	GoodResponse	0	0.0	n/a	2	38	ISIslide	AvoidedLoss	True
373.419	0.25	Win2	0.625	0.0	Yes	2.981	0.019	n/a	GoodResponse	1	n/a	n/a	3	39	Cue	Win	True
373.669	4.1	Win2	0.625	0.0	Yes	2.981	0.0	n/a	GoodResponse	1	n/a	n/a	3	39	Fixation	Win	True
377.767	0.29	Win2	0.625	0.002	Yes	2.981	-0.002	4.0	GoodResponse	1	0.183	376.95	3	39	Target	Win	True
377.95	0.3	Win2	0.625	0.002	Yes	2.981	-0.002	4.0	GoodResponse	1	0.183	n/a	3	39	ButtonPress	Win	True
378.067	0.41	Win2	0.625	n/a	Yes	2.981	n/a	n/a	GoodResponse	1	n/a	n/a	3	39	Blank	Win	True
378.467	1.45	Win2	0.625	n/a	Yes	2.981	n/a	5.0	GoodResponse	1	0.047	377.514	3	39	Feedback	Win	True
379.917	2.981	Win2	0.625	n/a	Yes	2.981	n/a	n/a	GoodResponse	1	0.0	n/a	3	39	ISIslide	Win	True
382.916	0.25	Win2	0.6341	0.0	Yes	2.734	0.016	n/a	GoodResponse	1	n/a	n/a	4	40	Cue	Win	True
383.166	3.95	Win2	0.6341	0.0	Yes	2.734	0.0	n/a	GoodResponse	1	n/a	n/a	4	40	Fixation	Win	True
387.114	0.3	Win2	0.6341	0.002	Yes	2.734	-0.002	4.0	GoodResponse	1	0.21	386.324	4	40	Target	Win	True
387.324	0.3	Win2	0.6341	0.002	Yes	2.734	-0.002	4.0	GoodResponse	1	0.21	n/a	4	40	ButtonPress	Win	True
387.414	0.4	Win2	0.6341	n/a	Yes	2.734	n/a	n/a	GoodResponse	1	n/a	n/a	4	40	Blank	Win	True
387.814	1.45	Win2	0.6341	n/a	Yes	2.734	n/a	5.0	GoodResponse	1	0.018	386.832	4	40	Feedback	Win	True
389.264	2.734	Win2	0.6341	n/a	Yes	2.734	n/a	n/a	GoodResponse	1	0.0	n/a	4	40	ISIslide	Win	True
392.029	0.25	Win2	0.6429	0.0	Yes	2.771	0.029	n/a	GoodResponse	1	n/a	n/a	5	41	Cue	Win	True
392.279	3.9	Win2	0.6429	0.0	Yes	2.771	0.0	n/a	GoodResponse	1	n/a	n/a	5	41	Fixation	Win	True
396.178	0.31	Win2	0.6429	0.001	Yes	2.771	-0.001	4.0	GoodResponse	1	0.207	395.385	5	41	Target	Win	True
396.385	0.3	Win2	0.6429	0.001	Yes	2.771	-0.001	4.0	GoodResponse	1	0.207	n/a	5	41	ButtonPress	Win	True
396.494	0.39	Win2	0.6429	n/a	Yes	2.771	n/a	n/a	GoodResponse	1	n/a	n/a	5	41	Blank	Win	True
396.878	1.45	Win2	0.6429	n/a	Yes	2.771	n/a	5.0	GoodResponse	1	0.026	395.904	5	41	Feedback	Win	True
398.327	2.771	Win2	0.6429	n/a	Yes	2.771	n/a	n/a	GoodResponse	1	0.0	n/a	5	41	ISIslide	Win	True
401.126	0.25	Control	0.6512	0.0	Yes	2.924	0.026	n/a	GoodResponse	0	n/a	n/a	5	42	Cue	Neutral	True
401.376	3.85	Control	0.6512	0.0	Yes	2.924	0.0	n/a	GoodResponse	0	n/a	n/a	5	42	Fixation	Neutral	True
405.225	0.32	Control	0.6512	0.001	Yes	2.924	-0.001	4.0	GoodResponse	0	0.231	404.456	5	42	Target	Neutral	True
405.456	0.3	Control	0.6512	0.001	Yes	2.924	-0.001	4.0	GoodResponse	0	0.231	n/a	5	42	ButtonPress	Neutral	True
405.558	0.38	Control	0.6512	n/a	Yes	2.924	n/a	n/a	GoodResponse	0	n/a	n/a	5	42	Blank	Neutral	True
405.925	1.45	Control	0.6512	n/a	Yes	2.924	n/a	5.0	GoodResponse	0	0.005	404.93	5	42	Feedback	Neutral	True
407.374	2.924	Control	0.6512	n/a	Yes	2.924	n/a	n/a	GoodResponse	0	0.0	n/a	5	42	ISIslide	Neutral	True
410.323	0.25	Win2	0.6591	0.0	Yes	3.177	0.023	n/a	GoodResponse	1	n/a	n/a	6	43	Cue	Win	True
410.573	4.0	Win2	0.6591	0.0	Yes	3.177	0.0	n/a	GoodResponse	1	n/a	n/a	6	43	Fixation	Win	True
414.572	0.33	Win2	0.6591	0.001	Yes	3.177	-0.001	4.0	GoodResponse	1	0.231	413.803	6	43	Target	Win	True
414.803	0.3	Win2	0.6591	0.001	Yes	3.177	-0.001	4.0	GoodResponse	1	0.231	n/a	6	43	ButtonPress	Win	True
414.905	0.37	Win2	0.6591	n/a	Yes	3.177	n/a	n/a	GoodResponse	1	n/a	n/a	6	43	Blank	Win	True
415.271	1.45	Win2	0.6591	n/a	Yes	3.177	n/a	5.0	GoodResponse	1	0.023	414.294	6	43	Feedback	Win	True
416.721	3.177	Win2	0.6591	n/a	Yes	3.177	n/a	n/a	GoodResponse	1	0.0	n/a	6	43	ISIslide	Win	True
419.92	0.25	Win2	0.6667000000000001	0.0	Yes	2.98	0.02	n/a	GoodResponse	1	n/a	n/a	7	44	Cue	Win	True
420.17	4.0	Win2	0.6667000000000001	0.0	Yes	2.98	0.0	n/a	GoodResponse	1	n/a	n/a	7	44	Fixation	Win	True
424.168	0.33	Win2	0.6667000000000001	0.002	Yes	2.98	-0.002	4.0	GoodResponse	1	0.224	423.392	7	44	Target	Win	True
424.392	0.3	Win2	0.6667000000000001	0.002	Yes	2.98	-0.002	4.0	GoodResponse	1	0.224	n/a	7	44	ButtonPress	Win	True
424.501	0.37	Win2	0.6667000000000001	n/a	Yes	2.98	n/a	n/a	GoodResponse	1	n/a	n/a	7	44	Blank	Win	True
424.868	1.45	Win2	0.6667000000000001	n/a	Yes	2.98	n/a	5.0	GoodResponse	1	0.036	423.904	7	44	Feedback	Win	True
426.318	2.98	Win2	0.6667000000000001	n/a	Yes	2.98	n/a	n/a	GoodResponse	1	0.0	n/a	7	44	ISIslide	Win	True
429.316	0.25	Control	0.6739	0.001	Yes	2.884	0.016	n/a	GoodResponse	0	n/a	n/a	7	45	Cue	Neutral	True
429.566	4.1	Control	0.6739	0.0	Yes	2.884	0.0	n/a	GoodResponse	0	n/a	n/a	7	45	Fixation	Neutral	True
433.665	0.32	Control	0.6739	0.001	Yes	2.884	-0.001	4.0	GoodResponse	0	0.252	432.917	7	45	Target	Neutral	True
433.917	0.3	Control	0.6739	0.001	Yes	2.884	-0.001	4.0	GoodResponse	0	0.252	n/a	7	45	ButtonPress	Neutral	True
433.982	0.38	Control	0.6739	n/a	Yes	2.884	n/a	n/a	GoodResponse	0	n/a	n/a	7	45	Blank	Neutral	True
434.365	1.45	Control	0.6739	n/a	Yes	2.884	n/a	5.0	GoodResponse	0	0.006	433.371	7	45	Feedback	Neutral	True
435.814	2.884	Control	0.6739	n/a	Yes	2.884	n/a	n/a	GoodResponse	0	0.0	n/a	7	45	ISIslide	Neutral	True
438.73	0.25	Lose2	0.6809000000000001	0.0	Yes	3.37	0.03	n/a	GoodResponse	0	n/a	n/a	7	46	Cue	AvoidedLoss	True
438.98	4.0	Lose2	0.6809000000000001	0.0	Yes	3.37	0.0	n/a	GoodResponse	0	n/a	n/a	7	46	Fixation	AvoidedLoss	True
442.978	0.31	Lose2	0.6809000000000001	0.002	Yes	3.37	-0.002	4.0	GoodResponse	0	0.186	442.164	7	46	Target	AvoidedLoss	True
443.164	0.3	Lose2	0.6809000000000001	0.002	Yes	3.37	-0.002	4.0	GoodResponse	0	0.186	n/a	7	46	ButtonPress	AvoidedLoss	True
443.295	0.39	Lose2	0.6809000000000001	n/a	Yes	3.37	n/a	n/a	GoodResponse	0	n/a	n/a	7	46	Blank	AvoidedLoss	True
443.678	1.45	Lose2	0.6809000000000001	n/a	Yes	3.37	n/a	5.0	GoodResponse	0	0.007	442.685	7	46	Feedback	AvoidedLoss	True
445.128	3.37	Lose2	0.6809000000000001	n/a	Yes	3.37	n/a	n/a	GoodResponse	0	0.0	n/a	7	46	ISIslide	AvoidedLoss	True
448.527	0.25	Lose2	0.6875	0.0	Yes	2.673	0.027	n/a	GoodResponse	0	n/a	n/a	7	47	Cue	AvoidedLoss	True
448.777	4.0	Lose2	0.6875	0.0	Yes	2.673	0.0	n/a	GoodResponse	0	n/a	n/a	7	47	Fixation	AvoidedLoss	True
452.775	0.3	Lose2	0.6875	0.002	Yes	2.673	-0.002	4.0	GoodResponse	0	0.265	452.04	7	47	Target	AvoidedLoss	True
453.04	0.3	Lose2	0.6875	0.002	Yes	2.673	-0.002	4.0	GoodResponse	0	0.265	n/a	7	47	ButtonPress	AvoidedLoss	True
453.075	0.4	Lose2	0.6875	n/a	Yes	2.673	n/a	n/a	GoodResponse	0	n/a	n/a	7	47	Blank	AvoidedLoss	True
453.475	1.45	Lose2	0.6875	n/a	Yes	2.673	n/a	5.0	GoodResponse	0	0.015	452.49	7	47	Feedback	AvoidedLoss	True
454.924	2.673	Lose2	0.6875	n/a	Yes	2.673	n/a	n/a	GoodResponse	0	0.0	n/a	7	47	ISIslide	AvoidedLoss	True
457.623	0.25	Lose2	0.6939	0.001	Yes	3.027	0.023	n/a	GoodResponse	0	n/a	n/a	7	48	Cue	AvoidedLoss	True
457.873	3.95	Lose2	0.6939	0.0	Yes	3.027	0.0	n/a	GoodResponse	0	n/a	n/a	7	48	Fixation	AvoidedLoss	True
461.822	0.29	Lose2	0.6939	0.001	Yes	3.027	-0.001	4.0	GoodResponse	0	0.214	461.036	7	48	Target	AvoidedLoss	True
462.036	0.3	Lose2	0.6939	0.001	Yes	3.027	-0.001	4.0	GoodResponse	0	0.214	n/a	7	48	ButtonPress	AvoidedLoss	True
462.122	0.41	Lose2	0.6939	n/a	Yes	3.027	n/a	n/a	GoodResponse	0	n/a	n/a	7	48	Blank	AvoidedLoss	True
462.522	1.45	Lose2	0.6939	n/a	Yes	3.027	n/a	5.0	GoodResponse	0	0.041	461.563	7	48	Feedback	AvoidedLoss	True
463.971	3.027	Lose2	0.6939	n/a	Yes	3.027	n/a	n/a	GoodResponse	0	0.0	n/a	7	48	ISIslide	AvoidedLoss	True
467.02	0.25	Control	0.7	0.0	Yes	2.88	0.02	n/a	GoodResponse	0	n/a	n/a	7	49	Cue	Neutral	True
467.27	4.0	Control	0.7	0.0	Yes	2.88	0.0	n/a	GoodResponse	0	n/a	n/a	7	49	Fixation	Neutral	True
471.269	0.28	Control	0.7	0.001	Yes	2.88	-0.001	4.0	GoodResponse	0	0.229	470.498	7	49	Target	Neutral	True
471.498	0.3	Control	0.7	0.001	Yes	2.88	-0.001	4.0	GoodResponse	0	0.229	n/a	7	49	ButtonPress	Neutral	True
471.552	0.42	Control	0.7	n/a	Yes	2.88	n/a	n/a	GoodResponse	0	n/a	n/a	7	49	Blank	Neutral	True
471.969	1.45	Control	0.7	n/a	Yes	2.88	n/a	5.0	GoodResponse	0	0.008	470.977	7	49	Feedback	Neutral	True
473.418	2.88	Control	0.7	n/a	Yes	2.88	n/a	n/a	GoodResponse	0	0.0	n/a	7	49	ISIslide	Neutral	True
476.317	0.25	Control	0.7059000000000001	0.0	Yes	2.783	0.017	n/a	GoodResponse	0	n/a	n/a	7	50	Cue	Neutral	True
476.567	4.0	Control	0.7059000000000001	0.0	Yes	2.783	0.0	n/a	GoodResponse	0	n/a	n/a	7	50	Fixation	Neutral	True
480.566	0.27	Control	0.7059000000000001	0.001	Yes	2.783	-0.001	4.0	GoodResponse	0	0.245	479.811	7	50	Target	Neutral	True
480.811	0.3	Control	0.7059000000000001	0.001	Yes	2.783	-0.001	4.0	GoodResponse	0	0.245	n/a	7	50	ButtonPress	Neutral	True
480.849	0.43	Control	0.7059000000000001	n/a	Yes	2.783	n/a	n/a	GoodResponse	0	n/a	n/a	7	50	Blank	Neutral	True
481.265	1.45	Control	0.7059000000000001	n/a	Yes	2.783	n/a	5.0	GoodResponse	0	0.029	480.294	7	50	Feedback	Neutral	True
482.715	2.783	Control	0.7059000000000001	n/a	Yes	2.783	n/a	n/a	GoodResponse	0	0.0	n/a	7	50	ISIslide	Neutral	True
485.514	0.25	Control	0.7115	0.0	Yes	2.736	0.014	n/a	GoodResponse	0	n/a	n/a	7	51	Cue	Neutral	True
485.764	3.95	Control	0.7115	0.0	Yes	2.736	0.0	n/a	GoodResponse	0	n/a	n/a	7	51	Fixation	Neutral	True
489.712	0.26	Control	0.7115	0.002	Yes	2.736	-0.002	4.0	GoodResponse	0	0.242	488.954	7	51	Target	Neutral	True
489.954	0.3	Control	0.7115	0.002	Yes	2.736	-0.002	4.0	GoodResponse	0	0.242	n/a	7	51	ButtonPress	Neutral	True
489.979	0.44	Control	0.7115	n/a	Yes	2.736	n/a	n/a	GoodResponse	0	n/a	n/a	7	51	Blank	Neutral	True
490.412	1.45	Control	0.7115	n/a	Yes	2.736	n/a	5.0	GoodResponse	0	0.007	489.419	7	51	Feedback	Neutral	True
491.862	2.736	Control	0.7115	n/a	Yes	2.736	n/a	n/a	GoodResponse	0	0.0	n/a	7	51	ISIslide	Neutral	True
494.627	0.25	Control	0.7170000000000001	0.001	Yes	2.623	0.027	n/a	GoodResponse	0	n/a	n/a	7	52	Cue	Neutral	True
494.877	4.05	Control	0.7170000000000001	0.0	Yes	2.623	0.0	n/a	GoodResponse	0	n/a	n/a	7	52	Fixation	Neutral	True
498.926	0.25	Control	0.7170000000000001	0.001	Yes	2.623	-0.001	4.0	GoodResponse	0	0.228	498.154	7	52	Target	Neutral	True
499.154	0.3	Control	0.7170000000000001	0.001	Yes	2.623	-0.001	4.0	GoodResponse	0	0.228	n/a	7	52	ButtonPress	Neutral	True
499.176	0.45	Control	0.7170000000000001	n/a	Yes	2.623	n/a	n/a	GoodResponse	0	n/a	n/a	7	52	Blank	Neutral	True
499.626	1.45	Control	0.7170000000000001	n/a	Yes	2.623	n/a	5.0	GoodResponse	0	0.01	498.636	7	52	Feedback	Neutral	True
501.075	2.623	Control	0.7170000000000001	n/a	Yes	2.623	n/a	n/a	GoodResponse	0	0.0	n/a	7	52	ISIslide	Neutral	True
503.724	0.25	Win2	0.7222	0.0	Yes	2.926	0.024	n/a	GoodResponse	1	n/a	n/a	8	53	Cue	Win	True
503.974	4.05	Win2	0.7222	0.0	Yes	2.926	0.0	n/a	GoodResponse	1	n/a	n/a	8	53	Fixation	Win	True
508.023	0.24	Win2	0.7222	0.001	Yes	2.926	-0.001	4.0	GoodResponse	1	0.233	507.256	8	53	Target	Win	True
508.256	0.3	Win2	0.7222	0.001	Yes	2.926	-0.001	4.0	GoodResponse	1	0.233	n/a	8	53	ButtonPress	Win	True
508.273	0.46	Win2	0.7222	n/a	Yes	2.926	n/a	n/a	GoodResponse	1	n/a	n/a	8	53	Blank	Win	True
508.723	1.45	Win2	0.7222	n/a	Yes	2.926	n/a	5.0	GoodResponse	1	0.035	507.758	8	53	Feedback	Win	True
510.172	2.926	Win2	0.7222	n/a	Yes	2.926	n/a	n/a	GoodResponse	1	0.0	n/a	8	53	ISIslide	Win	True
513.121	0.25	Win2	0.7273000000000001	0.0	Yes	2.729	0.021	n/a	GoodResponse	1	n/a	n/a	9	54	Cue	Win	True
513.371	3.95	Win2	0.7273000000000001	0.0	Yes	2.729	0.0	n/a	GoodResponse	1	n/a	n/a	9	54	Fixation	Win	True
517.32	0.23	Win2	0.7273000000000001	0.001	Yes	2.729	-0.001	4.0	GoodResponse	1	0.214	516.534	9	54	Target	Win	True
517.534	0.3	Win2	0.7273000000000001	0.001	Yes	2.729	-0.001	4.0	GoodResponse	1	0.214	n/a	9	54	ButtonPress	Win	True
517.553	0.47	Win2	0.7273000000000001	n/a	Yes	2.729	n/a	n/a	GoodResponse	1	n/a	n/a	9	54	Blank	Win	True
518.019	1.45	Win2	0.7273000000000001	n/a	Yes	2.729	n/a	5.0	GoodResponse	1	0.007	517.026	9	54	Feedback	Win	True
519.469	2.729	Win2	0.7273000000000001	n/a	Yes	2.729	n/a	n/a	GoodResponse	1	0.0	n/a	9	54	ISIslide	Win	True
522.218	0.25	Control	0.7321	0.0	Yes	3.032	0.018	n/a	GoodResponse	0	n/a	n/a	9	55	Cue	Neutral	True
522.468	3.95	Control	0.7321	0.0	Yes	3.032	0.0	n/a	GoodResponse	0	n/a	n/a	9	55	Fixation	Neutral	True
526.417	0.22	Control	0.7321	0.001	Yes	3.032	-0.001	4.0	GoodResponse	0	0.216	525.633	9	55	Target	Neutral	True
526.633	0.3	Control	0.7321	0.001	Yes	3.032	-0.001	4.0	GoodResponse	0	0.216	n/a	9	55	ButtonPress	Neutral	True
526.65	0.48	Control	0.7321	n/a	Yes	3.032	n/a	n/a	GoodResponse	0	n/a	n/a	9	55	Blank	Neutral	True
527.116	1.45	Control	0.7321	n/a	Yes	3.032	n/a	5.0	GoodResponse	0	0.032	526.148	9	55	Feedback	Neutral	True
528.566	3.032	Control	0.7321	n/a	Yes	3.032	n/a	n/a	GoodResponse	0	0.0	n/a	9	55	ISIslide	Neutral	True
531.615	0.25	Control	0.7193	0.0	No	2.835	0.015	n/a	NoResponse	0	n/a	n/a	9	56	Cue	Neutral	True
531.865	3.95	Control	0.7193	0.0	No	2.835	0.0	n/a	NoResponse	0	n/a	n/a	9	56	Fixation	Neutral	True
535.813	0.21	Control	0.7193	0.002	No	2.835	-0.002	4.0	NoResponse	0	0.259	535.072	9	56	Target	Neutral	True
536.03	0.49	Control	0.7193	n/a	No	2.835	n/a	n/a	NoResponse	0	n/a	n/a	9	56	Blank	Neutral	True
536.072	0.3	Control	0.7193	0.002	No	2.835	-0.002	4.0	NoResponse	0	0.259	n/a	9	56	ButtonPress	Neutral	True
536.513	1.45	Control	0.7193	n/a	No	2.835	n/a	5.0	NoResponse	0	0.001	535.514	9	56	Feedback	Neutral	True
537.963	2.835	Control	0.7193	n/a	No	2.835	n/a	n/a	NoResponse	0	0.0	n/a	9	56	ISIslide	Neutral	True
540.828	0.25	Control	0.7241	0.0	Yes	3.472	0.028	n/a	GoodResponse	0	n/a	n/a	9	57	Cue	Neutral	True
541.078	4.0	Control	0.7241	0.0	Yes	3.472	0.0	n/a	GoodResponse	0	n/a	n/a	9	57	Fixation	Neutral	True
545.077	0.2	Control	0.7241	0.001	Yes	3.472	-0.001	4.0	GoodResponse	0	0.182	544.259	9	57	Target	Neutral	True
545.259	0.3	Control	0.7241	0.001	Yes	3.472	-0.001	4.0	GoodResponse	0	0.182	n/a	9	57	ButtonPress	Neutral	True
545.277	0.5	Control	0.7241	n/a	Yes	3.472	n/a	n/a	GoodResponse	0	n/a	n/a	9	57	Blank	Neutral	True
545.777	1.45	Control	0.7241	n/a	Yes	3.472	n/a	5.0	GoodResponse	0	0.006	544.783	9	57	Feedback	Neutral	True
547.226	3.472	Control	0.7241	n/a	Yes	3.472	n/a	n/a	GoodResponse	0	0.0	n/a	9	57	ISIslide	Neutral	True
550.725	0.25	Win2	0.7119	0.0	No	2.725	0.025	n/a	NoResponse	0	n/a	n/a	9	58	Cue	MissedWin	True
550.975	4.05	Win2	0.7119	0.0	No	2.725	0.0	n/a	NoResponse	0	n/a	n/a	9	58	Fixation	MissedWin	True
555.023	0.19	Win2	0.7119	0.002	No	2.725	-0.002	4.0	NoResponse	0	0.215	554.238	9	58	Target	MissedWin	True
555.223	0.51	Win2	0.7119	n/a	No	2.725	n/a	n/a	NoResponse	0	n/a	n/a	9	58	Blank	MissedWin	True
555.238	0.3	Win2	0.7119	0.002	No	2.725	-0.002	4.0	NoResponse	0	0.215	n/a	9	58	ButtonPress	MissedWin	True
555.723	1.45	Win2	0.7119	n/a	No	2.725	n/a	5.0	NoResponse	0	0.01	554.733	9	58	Feedback	MissedWin	True
557.173	2.725	Win2	0.7119	n/a	No	2.725	n/a	n/a	NoResponse	0	0.0	n/a	9	58	ISIslide	MissedWin	True
559.922	0.25	Lose2	0.7167	0.0	Yes	2.678	0.022	n/a	GoodResponse	0	n/a	n/a	9	59	Cue	AvoidedLoss	True
560.172	4.0	Lose2	0.7167	0.0	Yes	2.678	0.0	n/a	GoodResponse	0	n/a	n/a	9	59	Fixation	AvoidedLoss	True
564.17	0.18	Lose2	0.7167	0.002	Yes	2.678	-0.002	4.0	GoodResponse	0	0.126	563.296	9	59	Target	AvoidedLoss	True
564.296	0.3	Lose2	0.7167	0.002	Yes	2.678	-0.002	4.0	GoodResponse	0	0.126	n/a	9	59	ButtonPress	AvoidedLoss	True
564.354	0.52	Lose2	0.7167	n/a	Yes	2.678	n/a	n/a	GoodResponse	0	n/a	n/a	9	59	Blank	AvoidedLoss	True
564.87	1.45	Lose2	0.7167	n/a	Yes	2.678	n/a	5.0	GoodResponse	0	0.034	563.904	9	59	Feedback	AvoidedLoss	True
566.32	2.678	Lose2	0.7167	n/a	Yes	2.678	n/a	n/a	GoodResponse	0	0.0	n/a	9	59	ISIslide	AvoidedLoss	True
569.019	0.25	Control	0.7049	0.0	No	2.681	0.019	n/a	NoResponse	0	n/a	n/a	9	60	Cue	Neutral	True
569.269	4.0	Control	0.7049	0.0	No	2.681	0.0	n/a	NoResponse	0	n/a	n/a	9	60	Fixation	Neutral	True
573.267	0.17	Control	0.7049	0.002	No	2.681	-0.002	4.0	NoResponse	0	0.231	572.498	9	60	Target	Neutral	True
573.45	0.53	Control	0.7049	n/a	No	2.681	n/a	n/a	NoResponse	0	n/a	n/a	9	60	Blank	Neutral	True
573.498	0.3	Control	0.7049	0.002	No	2.681	-0.002	4.0	NoResponse	0	0.231	n/a	9	60	ButtonPress	Neutral	True
573.967	1.45	Control	0.7049	n/a	No	2.681	n/a	5.0	NoResponse	0	0.01	572.977	9	60	Feedback	Neutral	True
575.416	2.681	Control	0.7049	n/a	No	2.681	n/a	n/a	NoResponse	0	0.0	n/a	9	60	ISIslide	Neutral	True
578.116	0.25	Lose2	0.6934999999999999	0.0	No	2.984	0.016	n/a	NoResponse	-1	n/a	n/a	8	61	Cue	Loss	True
578.365	4.0	Lose2	0.6934999999999999	0.001	No	2.984	-0.001	n/a	NoResponse	-1	n/a	n/a	8	61	Fixation	Loss	True
582.364	0.16	Lose2	0.6934999999999999	0.002	No	2.984	-0.002	4.0	NoResponse	-1	0.255	581.619	8	61	Target	Loss	True
582.531	0.54	Lose2	0.6934999999999999	n/a	No	2.984	n/a	n/a	NoResponse	-1	n/a	n/a	8	61	Blank	Loss	True
582.619	0.3	Lose2	0.6934999999999999	0.002	No	2.984	-0.002	4.0	NoResponse	-1	0.255	n/a	8	61	ButtonPress	Loss	True
583.064	1.45	Lose2	0.6934999999999999	n/a	No	2.984	n/a	5.0	NoResponse	-1	0.035	582.099	8	61	Feedback	Loss	True
584.513	2.984	Lose2	0.6934999999999999	n/a	No	2.984	n/a	n/a	NoResponse	-1	0.0	n/a	8	61	ISIslide	Loss	True
587.529	0.25	Lose2	0.6825	0.0	No	2.871	0.029	n/a	NoResponse	-1	n/a	n/a	7	62	Cue	Loss	True
587.779	3.9	Lose2	0.6825	0.0	No	2.871	0.0	n/a	NoResponse	-1	n/a	n/a	7	62	Fixation	Loss	True
591.678	0.15	Lose2	0.6825	0.001	No	2.871	-0.001	4.0	NoResponse	-1	0.222	590.9	7	62	Target	Loss	True
591.828	0.55	Lose2	0.6825	n/a	No	2.871	n/a	n/a	NoResponse	-1	n/a	n/a	7	62	Blank	Loss	True
591.9	0.3	Lose2	0.6825	0.001	No	2.871	-0.001	4.0	NoResponse	-1	0.222	n/a	7	62	ButtonPress	Loss	True
592.377	1.45	Lose2	0.6825	n/a	No	2.871	n/a	5.0	NoResponse	-1	0.04	591.417	7	62	Feedback	Loss	True
593.827	2.871	Lose2	0.6825	n/a	No	2.871	n/a	n/a	NoResponse	-1	0.0	n/a	7	62	ISIslide	Loss	True
596.726	0.25	Lose2	0.6718999999999999	0.0	No	2.624	0.026	n/a	NoResponse	-1	n/a	n/a	6	63	Cue	Loss	True
596.976	4.05	Lose2	0.6718999999999999	0.0	No	2.624	0.0	n/a	NoResponse	-1	n/a	n/a	6	63	Fixation	Loss	True
601.024	0.15	Lose2	0.6718999999999999	0.002	No	2.624	-0.002	4.0	NoResponse	-1	0.171	600.195	6	63	Target	Loss	True
601.174	0.55	Lose2	0.6718999999999999	n/a	No	2.624	n/a	n/a	NoResponse	-1	n/a	n/a	6	63	Blank	Loss	True
601.195	0.3	Lose2	0.6718999999999999	0.002	No	2.624	-0.002	4.0	NoResponse	-1	0.171	n/a	6	63	ButtonPress	Loss	True
601.724	1.45	Lose2	0.6718999999999999	n/a	No	2.624	n/a	5.0	NoResponse	-1	0.01	600.734	6	63	Feedback	Loss	True
603.174	2.624	Lose2	0.6718999999999999	n/a	No	2.624	n/a	n/a	NoResponse	-1	0.0	n/a	6	63	ISIslide	Loss	True
605.823	0.25	Win2	0.6615000000000001	0.0	No	3.127	0.023	n/a	NoResponse	0	n/a	n/a	6	64	Cue	MissedWin	True
606.073	4.15	Win2	0.6615000000000001	0.0	No	3.127	0.0	n/a	NoResponse	0	n/a	n/a	6	64	Fixation	MissedWin	True
610.221	0.15	Win2	0.6615000000000001	0.002	No	3.127	-0.002	4.0	NoResponse	0	0.206	609.427	6	64	Target	MissedWin	True
610.371	0.55	Win2	0.6615000000000001	n/a	No	3.127	n/a	n/a	NoResponse	0	n/a	n/a	6	64	Blank	MissedWin	True
610.427	0.3	Win2	0.6615000000000001	0.002	No	3.127	-0.002	4.0	NoResponse	0	0.206	n/a	6	64	ButtonPress	MissedWin	True
610.921	1.45	Win2	0.6615000000000001	n/a	No	3.127	n/a	5.0	NoResponse	0	0.032	609.953	6	64	Feedback	MissedWin	True
612.371	3.127	Win2	0.6615000000000001	n/a	No	3.127	n/a	n/a	NoResponse	0	0.0	n/a	6	64	ISIslide	MissedWin	True
615.519	0.25	Control	0.6515000000000001	0.001	No	2.781	0.019	n/a	NoResponse	0	n/a	n/a	6	65	Cue	Neutral	True
615.769	4.0	Control	0.6515000000000001	0.0	No	2.781	0.0	n/a	NoResponse	0	n/a	n/a	6	65	Fixation	Neutral	True
619.768	0.15	Control	0.6515000000000001	0.001	No	2.781	-0.001	4.0	NoResponse	0	0.213	618.981	6	65	Target	Neutral	True
619.918	0.55	Control	0.6515000000000001	n/a	No	2.781	n/a	n/a	NoResponse	0	n/a	n/a	6	65	Blank	Neutral	True
619.981	0.3	Control	0.6515000000000001	0.001	No	2.781	-0.001	4.0	NoResponse	0	0.213	n/a	6	65	ButtonPress	Neutral	True
620.468	1.45	Control	0.6515000000000001	n/a	No	2.781	n/a	5.0	NoResponse	0	0.045	619.513	6	65	Feedback	Neutral	True
621.917	2.781	Control	0.6515000000000001	n/a	No	2.781	n/a	n/a	NoResponse	0	0.0	n/a	6	65	ISIslide	Neutral	True
624.716	0.25	Win2	0.6418	0.0	No	2.784	0.016	n/a	NoResponse	0	n/a	n/a	6	66	Cue	MissedWin	True
624.966	3.9	Win2	0.6418	0.0	No	2.784	0.0	n/a	NoResponse	0	n/a	n/a	6	66	Fixation	MissedWin	True
628.865	0.16	Win2	0.6418	0.001	No	2.784	-0.001	4.0	NoResponse	0	0.193	628.058	6	66	Target	MissedWin	True
629.031	0.54	Win2	0.6418	n/a	No	2.784	n/a	n/a	NoResponse	0	n/a	n/a	6	66	Blank	MissedWin	True
629.058	0.3	Win2	0.6418	0.001	No	2.784	-0.001	4.0	NoResponse	0	0.193	n/a	6	66	ButtonPress	MissedWin	True
629.565	1.45	Win2	0.6418	n/a	No	2.784	n/a	5.0	NoResponse	0	0.022	628.587	6	66	Feedback	MissedWin	True
631.014	2.784	Win2	0.6418	n/a	No	2.784	n/a	n/a	NoResponse	0	0.0	n/a	6	66	ISIslide	MissedWin	True
633.813	0.25	Control	0.6324000000000001	0.0	No	2.737	0.013	n/a	NoResponse	0	n/a	n/a	6	67	Cue	Neutral	True
634.063	3.95	Control	0.6324000000000001	0.0	No	2.737	0.0	4.0	NoResponse	0	3.921	636.984	6	67	Fixation	Neutral	True
637.984	0.3	Control	0.6324000000000001	0.0	No	2.737	0.0	4.0	NoResponse	0	3.921	n/a	6	67	ButtonPress	Neutral	True
638.012	0.17	Control	0.6324000000000001	0.001	No	2.737	-0.001	n/a	NoResponse	0	n/a	n/a	6	67	Target	Neutral	True
638.178	0.53	Control	0.6324000000000001	n/a	No	2.737	n/a	n/a	NoResponse	0	n/a	n/a	6	67	Blank	Neutral	True
638.711	1.45	Control	0.6324000000000001	n/a	No	2.737	n/a	5.0	NoResponse	0	0.047	637.758	6	67	Feedback	Neutral	True
640.161	2.737	Control	0.6324000000000001	n/a	No	2.737	n/a	n/a	NoResponse	0	0.0	n/a	6	67	ISIslide	Neutral	True
642.927	0.25	Win2	0.6232	0.0	No	3.073	0.027	n/a	NoResponse	0	n/a	n/a	6	68	Cue	MissedWin	False
643.177	4.0	Win2	0.6232	0.0	No	3.073	0.0	n/a	NoResponse	0	n/a	n/a	6	68	Fixation	MissedWin	False
647.175	0.18	Win2	0.6232	0.002	No	3.073	-0.002	n/a	NoResponse	0	n/a	n/a	6	68	Target	MissedWin	False
647.359	0.52	Win2	0.6232	n/a	No	3.073	n/a	n/a	NoResponse	0	n/a	n/a	6	68	Blank	MissedWin	False
647.875	1.45	Win2	0.6232	n/a	No	3.073	n/a	5.0	NoResponse	0	0.006	646.881	6	68	Feedback	MissedWin	False
649.325	3.073	Win2	0.6232	n/a	No	3.073	n/a	n/a	NoResponse	0	0.0	n/a	6	68	ISIslide	MissedWin	False
652.423	0.25	Win2	0.6143	0.001	No	3.227	0.023	n/a	NoResponse	0	n/a	n/a	6	69	Cue	MissedWin	True
652.673	3.95	Win2	0.6143	0.0	No	3.227	0.0	n/a	NoResponse	0	n/a	n/a	6	69	Fixation	MissedWin	True
656.622	0.19	Win2	0.6143	0.001	No	3.227	-0.001	4.0	NoResponse	0	0.254	655.876	6	69	Target	MissedWin	True
656.822	0.51	Win2	0.6143	n/a	No	3.227	n/a	n/a	NoResponse	0	n/a	n/a	6	69	Blank	MissedWin	True
656.876	0.3	Win2	0.6143	0.001	No	3.227	-0.001	4.0	NoResponse	0	0.254	n/a	6	69	ButtonPress	MissedWin	True
657.322	1.45	Win2	0.6143	n/a	No	3.227	n/a	5.0	NoResponse	0	0.021	656.343	6	69	Feedback	MissedWin	True
658.771	3.227	Win2	0.6143	n/a	No	3.227	n/a	n/a	NoResponse	0	0.0	n/a	6	69	ISIslide	MissedWin	True
662.02	0.25	Lose2	0.6197	0.0	Yes	3.03	0.02	n/a	GoodResponse	0	n/a	n/a	6	70	Cue	AvoidedLoss	True
662.27	4.05	Lose2	0.6197	0.0	Yes	3.03	0.0	n/a	GoodResponse	0	n/a	n/a	6	70	Fixation	AvoidedLoss	True
666.319	0.2	Lose2	0.6197	0.001	Yes	3.03	-0.001	4.0	GoodResponse	0	0.196	665.515	6	70	Target	AvoidedLoss	True
666.515	0.3	Lose2	0.6197	0.001	Yes	3.03	-0.001	4.0	GoodResponse	0	0.196	n/a	6	70	ButtonPress	AvoidedLoss	True
666.519	0.5	Lose2	0.6197	n/a	Yes	3.03	n/a	n/a	GoodResponse	0	n/a	n/a	6	70	Blank	AvoidedLoss	True
667.018	1.45	Lose2	0.6197	n/a	Yes	3.03	n/a	5.0	GoodResponse	0	0.033	666.051	6	70	Feedback	AvoidedLoss	True
668.468	3.03	Lose2	0.6197	n/a	Yes	3.03	n/a	n/a	GoodResponse	0	0.0	n/a	6	70	ISIslide	AvoidedLoss	True
671.517	0.25	Win2	0.625	0.0	Yes	2.733	0.017	n/a	GoodResponse	1	n/a	n/a	7	71	Cue	Win	True
671.767	4.05	Win2	0.625	0.0	Yes	2.733	0.0	n/a	GoodResponse	1	n/a	n/a	7	71	Fixation	Win	True
675.815	0.21	Win2	0.625	0.002	Yes	2.733	-0.002	4.0	GoodResponse	1	0.202	675.017	7	71	Target	Win	True
676.017	0.3	Win2	0.625	0.002	Yes	2.733	-0.002	4.0	GoodResponse	1	0.202	n/a	7	71	ButtonPress	Win	True
676.032	0.49	Win2	0.625	n/a	Yes	2.733	n/a	n/a	GoodResponse	1	n/a	n/a	7	71	Blank	Win	True
676.515	1.45	Win2	0.625	n/a	Yes	2.733	n/a	5.0	GoodResponse	1	0.048	675.563	7	71	Feedback	Win	True
677.965	2.733	Win2	0.625	n/a	Yes	2.733	n/a	n/a	GoodResponse	1	0.0	n/a	7	71	ISIslide	Win	True
680.714	0.25	Win2	0.6164000000000001	0.0	No	2.786	0.014	n/a	NoResponse	0	n/a	n/a	7	72	Cue	MissedWin	False
680.964	4.1	Win2	0.6164000000000001	0.0	No	2.786	0.0	n/a	NoResponse	0	n/a	n/a	7	72	Fixation	MissedWin	False
685.062	0.22	Win2	0.6164000000000001	0.002	No	2.786	-0.002	n/a	NoResponse	0	n/a	n/a	7	72	Target	MissedWin	False
685.296	0.48	Win2	0.6164000000000001	n/a	No	2.786	n/a	n/a	NoResponse	0	n/a	n/a	7	72	Blank	MissedWin	False
685.762	1.45	Win2	0.6164000000000001	n/a	No	2.786	n/a	5.0	NoResponse	0	0.021	684.783	7	72	Feedback	MissedWin	False
687.212	2.786	Win2	0.6164000000000001	n/a	No	2.786	n/a	n/a	NoResponse	0	0.0	n/a	7	72	ISIslide	MissedWin	False
690.027	0.25	Win2	0.6215999999999999	0.0	Yes	2.673	0.027	n/a	GoodResponse	1	n/a	n/a	8	73	Cue	Win	True
690.277	4.0	Win2	0.6215999999999999	0.0	Yes	2.673	0.0	n/a	GoodResponse	1	n/a	n/a	8	73	Fixation	Win	True
694.276	0.23	Win2	0.6215999999999999	0.001	Yes	2.673	-0.001	4.0	GoodResponse	1	0.193	693.469	8	73	Target	Win	True
694.469	0.3	Win2	0.6215999999999999	0.001	Yes	2.673	-0.001	4.0	GoodResponse	1	0.193	n/a	8	73	ButtonPress	Win	True
694.509	0.47	Win2	0.6215999999999999	n/a	Yes	2.673	n/a	n/a	GoodResponse	1	n/a	n/a	8	73	Blank	Win	True
694.976	1.45	Win2	0.6215999999999999	n/a	Yes	2.673	n/a	5.0	GoodResponse	1	0.025	694.001	8	73	Feedback	Win	True
696.425	2.673	Win2	0.6215999999999999	n/a	Yes	2.673	n/a	n/a	GoodResponse	1	0.0	n/a	8	73	ISIslide	Win	True
699.124	0.25	Lose2	0.6267	0.0	Yes	2.626	0.024	n/a	GoodResponse	0	n/a	n/a	8	74	Cue	AvoidedLoss	True
699.374	4.05	Lose2	0.6267	0.0	Yes	2.626	0.0	n/a	GoodResponse	0	n/a	n/a	8	74	Fixation	AvoidedLoss	True
703.423	0.24	Lose2	0.6267	0.001	Yes	2.626	-0.001	4.0	GoodResponse	0	0.188	702.611	8	74	Target	AvoidedLoss	True
703.611	0.3	Lose2	0.6267	0.001	Yes	2.626	-0.001	4.0	GoodResponse	0	0.188	n/a	8	74	ButtonPress	AvoidedLoss	True
703.673	0.46	Lose2	0.6267	n/a	Yes	2.626	n/a	n/a	GoodResponse	0	n/a	n/a	8	74	Blank	AvoidedLoss	True
704.122	1.45	Lose2	0.6267	n/a	Yes	2.626	n/a	5.0	GoodResponse	0	0.001	703.123	8	74	Feedback	AvoidedLoss	True
705.572	2.626	Lose2	0.6267	n/a	Yes	2.626	n/a	n/a	GoodResponse	0	0.0	n/a	8	74	ISIslide	AvoidedLoss	True
708.221	0.25	Lose2	0.6315999999999999	0.0	Yes	2.929	0.021	n/a	GoodResponse	0	n/a	n/a	8	75	Cue	AvoidedLoss	True
708.471	3.95	Lose2	0.6315999999999999	0.0	Yes	2.929	0.0	n/a	GoodResponse	0	n/a	n/a	8	75	Fixation	AvoidedLoss	True
712.42	0.25	Lose2	0.6315999999999999	0.001	Yes	2.929	-0.001	4.0	GoodResponse	0	0.178	711.598	8	75	Target	AvoidedLoss	True
712.598	0.3	Lose2	0.6315999999999999	0.001	Yes	2.929	-0.001	4.0	GoodResponse	0	0.178	n/a	8	75	ButtonPress	AvoidedLoss	True
712.669	0.45	Lose2	0.6315999999999999	n/a	Yes	2.929	n/a	n/a	GoodResponse	0	n/a	n/a	8	75	Blank	AvoidedLoss	True
713.119	1.45	Lose2	0.6315999999999999	n/a	Yes	2.929	n/a	5.0	GoodResponse	0	0.029	712.148	8	75	Feedback	AvoidedLoss	True
714.569	2.929	Lose2	0.6315999999999999	n/a	Yes	2.929	n/a	n/a	GoodResponse	0	0.0	n/a	8	75	ISIslide	AvoidedLoss	True
717.518	0.25	Control	0.6234000000000001	0.0	No	3.232	0.018	n/a	NoResponse	0	n/a	n/a	8	76	Cue	Neutral	True
717.768	4.05	Control	0.6234000000000001	0.0	No	3.232	0.0	n/a	NoResponse	0	n/a	n/a	8	76	Fixation	Neutral	True
721.816	0.26	Control	0.6234000000000001	0.002	No	3.232	-0.002	4.0	NoResponse	0	0.311	721.127	8	76	Target	Neutral	True
722.083	0.44	Control	0.6234000000000001	n/a	No	3.232	n/a	n/a	NoResponse	0	n/a	n/a	8	76	Blank	Neutral	True
722.127	0.3	Control	0.6234000000000001	0.002	No	3.232	-0.002	4.0	NoResponse	0	0.311	n/a	8	76	ButtonPress	Neutral	True
722.516	1.45	Control	0.6234000000000001	n/a	No	3.232	n/a	5.0	NoResponse	0	0.047	721.563	8	76	Feedback	Neutral	True
723.966	3.232	Control	0.6234000000000001	n/a	No	3.232	n/a	n/a	NoResponse	0	0.0	n/a	8	76	ISIslide	Neutral	True
727.215	0.25	Lose2	0.6282	0.0	Yes	2.585	0.015	n/a	GoodResponse	0	n/a	n/a	8	77	Cue	AvoidedLoss	True
727.464	3.95	Lose2	0.6282	0.001	Yes	2.585	-0.001	n/a	GoodResponse	0	n/a	n/a	8	77	Fixation	AvoidedLoss	True
731.413	0.27	Lose2	0.6282	0.002	Yes	2.585	-0.002	4.0	GoodResponse	0	0.224	730.637	8	77	Target	AvoidedLoss	True
731.637	0.3	Lose2	0.6282	0.002	Yes	2.585	-0.002	4.0	GoodResponse	0	0.224	n/a	8	77	ButtonPress	AvoidedLoss	True
731.696	0.43	Lose2	0.6282	n/a	Yes	2.585	n/a	n/a	GoodResponse	0	n/a	n/a	8	77	Blank	AvoidedLoss	True
732.113	1.45	Lose2	0.6282	n/a	Yes	2.585	n/a	5.0	GoodResponse	0	0.011	731.124	8	77	Feedback	AvoidedLoss	True
733.562	2.585	Lose2	0.6282	n/a	Yes	2.585	n/a	n/a	GoodResponse	0	0.0	n/a	8	77	ISIslide	AvoidedLoss	True
