onset	duration	cue_type	current_mean_accuracy	duration_error	is_hit	isi_adjusted	onset_delay	response	response_type	reward	rt	rt_time	total_reward	trial_number	trial_phase	trial_type	one_press
11.1	0.25	Control	1.0	0.0	Yes	2.95	0.0	n/a	GoodResponse	0	n/a	n/a	0	0	Cue	Neutral	True
11.351	3.85	Control	1.0	0.0	Yes	2.95	0.001	n/a	GoodResponse	0	n/a	n/a	0	0	Fixation	Neutral	True
15.196	0.4	Control	1.0	0.004	Yes	2.95	-0.004	2.0	GoodResponse	0	0.313	14.509	0	0	Target	Neutral	True
15.509	0.3	Control	1.0	0.004	Yes	2.95	-0.004	2.0	GoodResponse	0	0.313	n/a	0	0	ButtonPress	Neutral	True
15.597	0.3	Control	1.0	n/a	Yes	2.95	n/a	n/a	GoodResponse	0	n/a	n/a	0	0	Blank	Neutral	True
15.898	1.45	Control	1.0	n/a	Yes	2.95	n/a	5.0	GoodResponse	0	0.028	14.926	0	0	Feedback	Neutral	True
17.352	2.95	Control	1.0	n/a	Yes	2.95	n/a	n/a	GoodResponse	0	0.0	n/a	0	0	ISIslide	Neutral	True
20.378	0.25	Lose2	1.0	0.0	Yes	2.722	0.078	n/a	GoodResponse	0	n/a	n/a	0	1	Cue	AvoidedLoss	False
20.628	4.0	Lose2	1.0	0.001	Yes	2.722	0.0	2.0	GoodResponse	0	2.384	22.012	0	1	Fixation	AvoidedLoss	False
23.012	0.3	Lose2	1.0	0.001	Yes	2.722	0.0	2.0	GoodResponse	0	2.384	n/a	0	1	ButtonPress	AvoidedLoss	False
24.624	0.39	Lose2	1.0	0.004	Yes	2.722	-0.004	2.0	GoodResponse	0	0.19	23.814	0	1	Target	AvoidedLoss	False
24.814	0.3	Lose2	1.0	0.004	Yes	2.722	-0.004	2.0	GoodResponse	0	0.19	n/a	0	1	ButtonPress	AvoidedLoss	False
25.025	0.31	Lose2	1.0	n/a	Yes	2.722	n/a	n/a	GoodResponse	0	n/a	n/a	0	1	Blank	AvoidedLoss	False
25.326	1.45	Lose2	1.0	n/a	Yes	2.722	n/a	5.0	GoodResponse	0	0.015	24.341	0	1	Feedback	AvoidedLoss	False
26.78	2.722	Lose2	1.0	n/a	Yes	2.722	n/a	n/a	GoodResponse	0	0.0	n/a	0	1	ISIslide	AvoidedLoss	False
29.522	0.25	Control	1.0	0.0	Yes	2.578	0.022	n/a	GoodResponse	0	n/a	n/a	0	2	Cue	Neutral	True
29.772	4.1	Control	1.0	0.0	Yes	2.578	0.0	n/a	GoodResponse	0	n/a	n/a	0	2	Fixation	Neutral	True
33.868	0.38	Control	1.0	0.004	Yes	2.578	-0.004	2.0	GoodResponse	0	0.186	33.054	0	2	Target	Neutral	True
34.054	0.3	Control	1.0	0.004	Yes	2.578	-0.004	2.0	GoodResponse	0	0.186	n/a	0	2	ButtonPress	Neutral	True
34.252	0.32	Control	1.0	n/a	Yes	2.578	n/a	n/a	GoodResponse	0	n/a	n/a	0	2	Blank	Neutral	True
34.57	1.45	Control	1.0	n/a	Yes	2.578	n/a	5.0	GoodResponse	0	0.038	33.608	0	2	Feedback	Neutral	True
36.024	2.578	Control	1.0	n/a	Yes	2.578	n/a	n/a	GoodResponse	0	0.0	n/a	0	2	ISIslide	Neutral	True
38.682	0.25	Win2	1.0	0.001	Yes	2.768	0.082	n/a	GoodResponse	1	n/a	n/a	1	3	Cue	Win	True
38.933	3.95	Win2	1.0	0.0	Yes	2.768	0.001	n/a	GoodResponse	1	n/a	n/a	1	3	Fixation	Win	True
42.878	0.37	Win2	1.0	0.004	Yes	2.768	-0.004	2.0	GoodResponse	1	0.189	42.067	1	3	Target	Win	True
43.067	0.3	Win2	1.0	0.004	Yes	2.768	-0.004	2.0	GoodResponse	1	0.189	n/a	1	3	ButtonPress	Win	True
43.263	0.33	Win2	1.0	n/a	Yes	2.768	n/a	n/a	GoodResponse	1	n/a	n/a	1	3	Blank	Win	True
43.58	1.45	Win2	1.0	n/a	Yes	2.768	n/a	5.0	GoodResponse	1	0.007	42.587	1	3	Feedback	Win	True
45.035	2.768	Win2	1.0	n/a	Yes	2.768	n/a	n/a	GoodResponse	1	0.0	n/a	1	3	ISIslide	Win	True
47.826	0.25	Win2	1.0	0.0	Yes	3.274	0.026	n/a	GoodResponse	1	n/a	n/a	2	4	Cue	Win	True
48.077	4.0	Win2	1.0	0.0	Yes	3.274	0.001	n/a	GoodResponse	1	n/a	n/a	2	4	Fixation	Win	True
52.072	0.36	Win2	1.0	0.004	Yes	3.274	-0.004	2.0	GoodResponse	1	0.179	51.251	2	4	Target	Win	True
52.251	0.3	Win2	1.0	0.004	Yes	3.274	-0.004	2.0	GoodResponse	1	0.179	n/a	2	4	ButtonPress	Win	True
52.44	0.34	Win2	1.0	n/a	Yes	3.274	n/a	n/a	GoodResponse	1	n/a	n/a	2	4	Blank	Win	True
52.774	1.45	Win2	1.0	n/a	Yes	3.274	n/a	5.0	GoodResponse	1	0.03	51.804	2	4	Feedback	Win	True
54.229	3.274	Win2	1.0	n/a	Yes	3.274	n/a	n/a	GoodResponse	1	0.0	n/a	2	4	ISIslide	Win	True
57.522	0.25	Win2	1.0	0.0	Yes	2.778	0.022	n/a	GoodResponse	1	n/a	n/a	3	5	Cue	Win	True
57.773	4.0	Win2	1.0	0.0	Yes	2.778	0.001	n/a	GoodResponse	1	n/a	n/a	3	5	Fixation	Win	True
61.768	0.35	Win2	1.0	0.004	Yes	2.778	-0.004	2.0	GoodResponse	1	0.186	60.954	3	5	Target	Win	True
61.954	0.3	Win2	1.0	0.004	Yes	2.778	-0.004	2.0	GoodResponse	1	0.186	n/a	3	5	ButtonPress	Win	True
62.119	0.35	Win2	1.0	n/a	Yes	2.778	n/a	n/a	GoodResponse	1	n/a	n/a	3	5	Blank	Win	True
62.47	1.45	Win2	1.0	n/a	Yes	2.778	n/a	5.0	GoodResponse	1	0.041	61.511	3	5	Feedback	Win	True
63.924	2.778	Win2	1.0	n/a	Yes	2.778	n/a	n/a	GoodResponse	1	0.0	n/a	3	5	ISIslide	Win	True
66.716	0.25	Lose2	1.0	0.0	Yes	2.734	0.016	n/a	GoodResponse	0	n/a	n/a	3	6	Cue	AvoidedLoss	True
66.967	3.95	Lose2	1.0	0.0	Yes	2.734	0.001	n/a	GoodResponse	0	n/a	n/a	3	6	Fixation	AvoidedLoss	True
70.912	0.34	Lose2	1.0	0.004	Yes	2.734	-0.004	2.0	GoodResponse	0	0.17	70.082	3	6	Target	AvoidedLoss	True
71.082	0.3	Lose2	1.0	0.004	Yes	2.734	-0.004	2.0	GoodResponse	0	0.17	n/a	3	6	ButtonPress	AvoidedLoss	True
71.263	0.36	Lose2	1.0	n/a	Yes	2.734	n/a	n/a	GoodResponse	0	n/a	n/a	3	6	Blank	AvoidedLoss	True
71.614	1.45	Lose2	1.0	n/a	Yes	2.734	n/a	5.0	GoodResponse	0	0.018	70.632	3	6	Feedback	AvoidedLoss	True
73.068	2.734	Lose2	1.0	n/a	Yes	2.734	n/a	n/a	GoodResponse	0	0.0	n/a	3	6	ISIslide	AvoidedLoss	True
75.827	0.25	Lose2	1.0	0.0	Yes	4.023	0.027	n/a	GoodResponse	0	n/a	n/a	3	7	Cue	AvoidedLoss	True
76.077	4.05	Lose2	1.0	0.0	Yes	4.023	0.0	n/a	GoodResponse	0	n/a	n/a	3	7	Fixation	AvoidedLoss	True
80.123	0.33	Lose2	1.0	0.004	Yes	4.023	-0.004	2.0	GoodResponse	0	0.213	79.336	3	7	Target	AvoidedLoss	True
80.336	0.3	Lose2	1.0	0.004	Yes	4.023	-0.004	2.0	GoodResponse	0	0.213	n/a	3	7	ButtonPress	AvoidedLoss	True
80.457	0.37	Lose2	1.0	n/a	Yes	4.023	n/a	n/a	GoodResponse	0	n/a	n/a	3	7	Blank	AvoidedLoss	True
80.825	1.45	Lose2	1.0	n/a	Yes	4.023	n/a	5.0	GoodResponse	0	0.027	79.852	3	7	Feedback	AvoidedLoss	True
82.279	4.023	Lose2	1.0	n/a	Yes	4.023	n/a	n/a	GoodResponse	0	0.0	n/a	3	7	ISIslide	AvoidedLoss	True
86.325	0.25	Lose2	1.0	0.0	Yes	3.025	0.025	n/a	GoodResponse	0	n/a	n/a	3	8	Cue	AvoidedLoss	True
86.575	3.95	Lose2	1.0	0.001	Yes	3.025	0.0	n/a	GoodResponse	0	n/a	n/a	3	8	Fixation	AvoidedLoss	True
90.521	0.32	Lose2	1.0	0.004	Yes	3.025	-0.004	2.0	GoodResponse	0	0.223	89.744	3	8	Target	AvoidedLoss	True
90.744	0.3	Lose2	1.0	0.004	Yes	3.025	-0.004	2.0	GoodResponse	0	0.223	n/a	3	8	ButtonPress	AvoidedLoss	True
90.855	0.38	Lose2	1.0	n/a	Yes	3.025	n/a	n/a	GoodResponse	0	n/a	n/a	3	8	Blank	AvoidedLoss	True
91.223	1.45	Lose2	1.0	n/a	Yes	3.025	n/a	5.0	GoodResponse	0	0.019	90.242	3	8	Feedback	AvoidedLoss	True
92.677	3.025	Lose2	1.0	n/a	Yes	3.025	n/a	n/a	GoodResponse	0	0.0	n/a	3	8	ISIslide	AvoidedLoss	True
95.719	0.25	Lose2	1.0	0.0	Yes	3.131	0.019	n/a	GoodResponse	0	n/a	n/a	3	9	Cue	AvoidedLoss	True
95.97	3.95	Lose2	1.0	0.0	Yes	3.131	0.001	n/a	GoodResponse	0	n/a	n/a	3	9	Fixation	AvoidedLoss	True
99.915	0.31	Lose2	1.0	0.004	Yes	3.131	-0.004	2.0	GoodResponse	0	0.24	99.155	3	9	Target	AvoidedLoss	True
100.155	0.3	Lose2	1.0	0.004	Yes	3.131	-0.004	2.0	GoodResponse	0	0.24	n/a	3	9	ButtonPress	AvoidedLoss	True
100.233	0.39	Lose2	1.0	n/a	Yes	3.131	n/a	n/a	GoodResponse	0	n/a	n/a	3	9	Blank	AvoidedLoss	True
100.617	1.45	Lose2	1.0	n/a	Yes	3.131	n/a	5.0	GoodResponse	0	0.04	99.657	3	9	Feedback	AvoidedLoss	True
102.072	3.131	Lose2	1.0	n/a	Yes	3.131	n/a	n/a	GoodResponse	0	0.0	n/a	3	9	ISIslide	AvoidedLoss	True
105.214	0.25	Control	1.0	0.001	Yes	3.286	0.014	n/a	GoodResponse	0	n/a	n/a	3	10	Cue	Neutral	True
105.465	4.0	Control	1.0	0.0	Yes	3.286	0.001	n/a	GoodResponse	0	n/a	n/a	3	10	Fixation	Neutral	True
109.46	0.3	Control	1.0	0.004	Yes	3.286	-0.004	2.0	GoodResponse	0	0.204	108.664	3	10	Target	Neutral	True
109.664	0.3	Control	1.0	0.004	Yes	3.286	-0.004	2.0	GoodResponse	0	0.204	n/a	3	10	ButtonPress	Neutral	True
109.761	0.4	Control	1.0	n/a	Yes	3.286	n/a	n/a	GoodResponse	0	n/a	n/a	3	10	Blank	Neutral	True
110.163	1.45	Control	1.0	n/a	Yes	3.286	n/a	5.0	GoodResponse	0	0.006	109.169	3	10	Feedback	Neutral	True
111.617	3.286	Control	1.0	n/a	Yes	3.286	n/a	n/a	GoodResponse	0	0.0	n/a	3	10	ISIslide	Neutral	True
114.927	0.25	Lose2	1.0	0.0	Yes	2.723	0.027	n/a	GoodResponse	0	n/a	n/a	3	11	Cue	AvoidedLoss	True
115.177	4.05	Lose2	1.0	0.001	Yes	2.723	0.0	n/a	GoodResponse	0	n/a	n/a	3	11	Fixation	AvoidedLoss	True
119.223	0.29	Lose2	1.0	0.004	Yes	2.723	-0.004	2.0	GoodResponse	0	0.205	118.428	3	11	Target	AvoidedLoss	True
119.428	0.3	Lose2	1.0	0.004	Yes	2.723	-0.004	2.0	GoodResponse	0	0.205	n/a	3	11	ButtonPress	AvoidedLoss	True
119.524	0.41	Lose2	1.0	n/a	Yes	2.723	n/a	n/a	GoodResponse	0	n/a	n/a	3	11	Blank	AvoidedLoss	True
119.925	1.45	Lose2	1.0	n/a	Yes	2.723	n/a	5.0	GoodResponse	0	0.048	118.973	3	11	Feedback	AvoidedLoss	True
121.379	2.723	Lose2	1.0	n/a	Yes	2.723	n/a	n/a	GoodResponse	0	0.0	n/a	3	11	ISIslide	AvoidedLoss	True
124.121	0.25	Control	1.0	0.0	Yes	2.979	0.021	n/a	GoodResponse	0	n/a	n/a	3	12	Cue	Neutral	True
124.372	3.9	Control	1.0	0.0	Yes	2.979	0.001	n/a	GoodResponse	0	n/a	n/a	3	12	Fixation	Neutral	True
128.267	0.28	Control	1.0	0.004	Yes	2.979	-0.004	2.0	GoodResponse	0	0.227	127.494	3	12	Target	Neutral	True
128.494	0.3	Control	1.0	0.004	Yes	2.979	-0.004	2.0	GoodResponse	0	0.227	n/a	3	12	ButtonPress	Neutral	True
128.551	0.42	Control	1.0	n/a	Yes	2.979	n/a	n/a	GoodResponse	0	n/a	n/a	3	12	Blank	Neutral	True
128.969	1.45	Control	1.0	n/a	Yes	2.979	n/a	5.0	GoodResponse	0	0.029	127.998	3	12	Feedback	Neutral	True
130.423	2.979	Control	1.0	n/a	Yes	2.979	n/a	n/a	GoodResponse	0	0.0	n/a	3	12	ISIslide	Neutral	True
133.415	0.25	Control	1.0	0.0	Yes	2.785	0.015	n/a	GoodResponse	0	n/a	n/a	3	13	Cue	Neutral	True
133.666	4.0	Control	1.0	0.0	Yes	2.785	0.001	n/a	GoodResponse	0	n/a	n/a	3	13	Fixation	Neutral	True
137.661	0.27	Control	1.0	0.004	Yes	2.785	-0.004	2.0	GoodResponse	0	0.203	136.864	3	13	Target	Neutral	True
137.864	0.3	Control	1.0	0.004	Yes	2.785	-0.004	2.0	GoodResponse	0	0.203	n/a	3	13	ButtonPress	Neutral	True
137.945	0.43	Control	1.0	n/a	Yes	2.785	n/a	n/a	GoodResponse	0	n/a	n/a	3	13	Blank	Neutral	True
138.363	1.45	Control	1.0	n/a	Yes	2.785	n/a	5.0	GoodResponse	0	0.001	137.364	3	13	Feedback	Neutral	True
139.818	2.785	Control	1.0	n/a	Yes	2.785	n/a	n/a	GoodResponse	0	0.0	n/a	3	13	ISIslide	Neutral	True
142.626	0.25	Win2	1.0	0.0	Yes	2.674	0.026	n/a	GoodResponse	1	n/a	n/a	4	14	Cue	Win	True
142.877	4.1	Win2	1.0	0.0	Yes	2.674	0.001	n/a	GoodResponse	1	n/a	n/a	4	14	Fixation	Win	True
146.972	0.26	Win2	1.0	0.004	Yes	2.674	-0.004	2.0	GoodResponse	1	0.167	146.139	4	14	Target	Win	True
147.139	0.3	Win2	1.0	0.004	Yes	2.674	-0.004	2.0	GoodResponse	1	0.167	n/a	4	14	ButtonPress	Win	True
147.24	0.44	Win2	1.0	n/a	Yes	2.674	n/a	n/a	GoodResponse	1	n/a	n/a	4	14	Blank	Win	True
147.675	1.45	Win2	1.0	n/a	Yes	2.674	n/a	5.0	GoodResponse	1	0.006	146.681	4	14	Feedback	Win	True
149.129	2.674	Win2	1.0	n/a	Yes	2.674	n/a	n/a	GoodResponse	1	0.0	n/a	4	14	ISIslide	Win	True
151.82	0.25	Control	1.0	0.0	Yes	2.98	0.02	n/a	GoodResponse	0	n/a	n/a	4	15	Cue	Neutral	True
152.071	4.0	Control	1.0	0.0	Yes	2.98	0.001	n/a	GoodResponse	0	n/a	n/a	4	15	Fixation	Neutral	True
156.066	0.25	Control	1.0	0.004	Yes	2.98	-0.004	2.0	GoodResponse	0	0.216	155.282	4	15	Target	Neutral	True
156.282	0.3	Control	1.0	0.004	Yes	2.98	-0.004	2.0	GoodResponse	0	0.216	n/a	4	15	ButtonPress	Neutral	True
156.317	0.45	Control	1.0	n/a	Yes	2.98	n/a	n/a	GoodResponse	0	n/a	n/a	4	15	Blank	Neutral	True
156.768	1.45	Control	1.0	n/a	Yes	2.98	n/a	5.0	GoodResponse	0	0.034	155.802	4	15	Feedback	Neutral	True
158.223	2.98	Control	1.0	n/a	Yes	2.98	n/a	n/a	GoodResponse	0	0.0	n/a	4	15	ISIslide	Neutral	True
161.215	0.25	Win2	1.0	0.0	Yes	2.885	0.015	n/a	GoodResponse	1	n/a	n/a	5	16	Cue	Win	False
161.466	4.0	Win2	1.0	0.0	Yes	2.885	0.001	2.0	GoodResponse	1	2.168	162.634	5	16	Fixation	Win	False
163.634	0.3	Win2	1.0	0.0	Yes	2.885	0.001	2.0	GoodResponse	1	2.168	n/a	5	16	ButtonPress	Win	False
165.461	0.24	Win2	1.0	0.004	Yes	2.885	-0.004	2.0	GoodResponse	1	0.199	164.66	5	16	Target	Win	False
165.66	0.3	Win2	1.0	0.004	Yes	2.885	-0.004	2.0	GoodResponse	1	0.199	n/a	5	16	ButtonPress	Win	False
165.712	0.46	Win2	1.0	n/a	Yes	2.885	n/a	n/a	GoodResponse	1	n/a	n/a	5	16	Blank	Win	False
166.163	1.45	Win2	1.0	n/a	Yes	2.885	n/a	5.0	GoodResponse	1	0.007	165.17	5	16	Feedback	Win	False
167.617	2.885	Win2	1.0	n/a	Yes	2.885	n/a	n/a	GoodResponse	1	0.0	n/a	5	16	ISIslide	Win	False
170.526	0.25	Lose2	0.9444	0.0	No	2.724	0.026	n/a	NoResponse	-1	n/a	n/a	4	17	Cue	Loss	True
170.777	3.95	Lose2	0.9444	0.0	No	2.724	0.001	n/a	NoResponse	-1	n/a	n/a	4	17	Fixation	Loss	True
174.722	0.23	Lose2	0.9444	0.004	No	2.724	-0.004	2.0	NoResponse	-1	0.242	173.964	4	17	Target	Loss	True
174.956	0.47	Lose2	0.9444	n/a	No	2.724	n/a	n/a	NoResponse	-1	n/a	n/a	4	17	Blank	Loss	True
174.964	0.3	Lose2	0.9444	0.004	No	2.724	-0.004	2.0	NoResponse	-1	0.242	n/a	4	17	ButtonPress	Loss	True
175.424	1.45	Lose2	0.9444	n/a	No	2.724	n/a	5.0	NoResponse	-1	0.012	174.436	4	17	Feedback	Loss	True
176.878	2.724	Lose2	0.9444	n/a	No	2.724	n/a	n/a	NoResponse	-1	0.0	n/a	4	17	ISIslide	Loss	True
179.62	0.25	Lose2	0.8946999999999999	0.0	No	2.73	0.02	n/a	NoResponse	-1	n/a	n/a	3	18	Cue	Loss	True
179.871	4.05	Lose2	0.8946999999999999	0.0	No	2.73	0.001	n/a	NoResponse	-1	n/a	n/a	3	18	Fixation	Loss	True
183.916	0.22	Lose2	0.8946999999999999	0.004	No	2.73	-0.004	2.0	NoResponse	-1	0.246	183.162	3	18	Target	Loss	True
184.15	0.48	Lose2	0.8946999999999999	n/a	No	2.73	n/a	n/a	NoResponse	-1	n/a	n/a	3	18	Blank	Loss	True
184.162	0.3	Lose2	0.8946999999999999	0.004	No	2.73	-0.004	2.0	NoResponse	-1	0.246	n/a	3	18	ButtonPress	Loss	True
184.618	1.45	Lose2	0.8946999999999999	n/a	No	2.73	n/a	5.0	NoResponse	-1	0.037	183.655	3	18	Feedback	Loss	True
186.073	2.73	Lose2	0.8946999999999999	n/a	No	2.73	n/a	2.0	NoResponse	-1	0.985	n/a	3	18	ISIslide	Loss	True
188.797	0.25	Control	0.9	0.0	Yes	2.953	-0.003	n/a	GoodResponse	0	n/a	n/a	3	19	Cue	Neutral	True
189.048	3.95	Control	0.9	0.0	Yes	2.953	0.001	n/a	GoodResponse	0	n/a	n/a	3	19	Fixation	Neutral	True
192.993	0.21	Control	0.9	0.004	Yes	2.953	-0.004	2.0	GoodResponse	0	0.138	192.131	3	19	Target	Neutral	True
193.131	0.3	Control	0.9	0.004	Yes	2.953	-0.004	2.0	GoodResponse	0	0.138	n/a	3	19	ButtonPress	Neutral	True
193.211	0.49	Control	0.9	n/a	Yes	2.953	n/a	n/a	GoodResponse	0	n/a	n/a	3	19	Blank	Neutral	True
193.695	1.45	Control	0.9	n/a	Yes	2.953	n/a	5.0	GoodResponse	0	0.033	192.728	3	19	Feedback	Neutral	True
195.15	2.953	Control	0.9	n/a	Yes	2.953	n/a	n/a	GoodResponse	0	0.0	n/a	3	19	ISIslide	Neutral	True
198.125	0.25	Control	0.9048	0.0	Yes	2.625	0.025	n/a	GoodResponse	0	n/a	n/a	3	20	Cue	Neutral	True
198.376	4.05	Control	0.9048	0.0	Yes	2.625	0.001	n/a	GoodResponse	0	n/a	n/a	3	20	Fixation	Neutral	True
202.421	0.2	Control	0.9048	0.004	Yes	2.625	-0.004	2.0	GoodResponse	0	0.187	201.608	3	20	Target	Neutral	True
202.608	0.3	Control	0.9048	0.004	Yes	2.625	-0.004	2.0	GoodResponse	0	0.187	n/a	3	20	ButtonPress	Neutral	True
202.622	0.5	Control	0.9048	n/a	Yes	2.625	n/a	n/a	GoodResponse	0	n/a	n/a	3	20	Blank	Neutral	True
203.123	1.45	Control	0.9048	n/a	Yes	2.625	n/a	5.0	GoodResponse	0	0.02	202.143	3	20	Feedback	Neutral	True
204.578	2.625	Control	0.9048	n/a	Yes	2.625	n/a	n/a	GoodResponse	0	0.0	n/a	3	20	ISIslide	Neutral	True
207.219	0.25	Control	0.9091	0.0	Yes	2.781	0.019	n/a	GoodResponse	0	n/a	n/a	3	21	Cue	Neutral	True
207.47	4.1	Control	0.9091	0.0	Yes	2.781	0.001	n/a	GoodResponse	0	n/a	n/a	3	21	Fixation	Neutral	True
211.565	0.19	Control	0.9091	0.004	Yes	2.781	-0.004	2.0	GoodResponse	0	0.175	210.74	3	21	Target	Neutral	True
211.74	0.3	Control	0.9091	0.004	Yes	2.781	-0.004	2.0	GoodResponse	0	0.175	n/a	3	21	ButtonPress	Neutral	True
211.766	0.51	Control	0.9091	n/a	Yes	2.781	n/a	n/a	GoodResponse	0	n/a	n/a	3	21	Blank	Neutral	True
212.267	1.45	Control	0.9091	n/a	Yes	2.781	n/a	5.0	GoodResponse	0	0.047	211.314	3	21	Feedback	Neutral	True
213.722	2.781	Control	0.9091	n/a	Yes	2.781	n/a	n/a	GoodResponse	0	0.0	n/a	3	21	ISIslide	Neutral	True
216.53	0.25	Control	0.9129999999999999	0.0	Yes	2.77	0.03	n/a	GoodResponse	0	n/a	n/a	3	22	Cue	Neutral	True
216.781	4.0	Control	0.9129999999999999	0.0	Yes	2.77	0.001	n/a	GoodResponse	0	n/a	n/a	3	22	Fixation	Neutral	True
220.776	0.18	Control	0.9129999999999999	0.004	Yes	2.77	-0.004	2.0	GoodResponse	0	0.164	219.94	3	22	Target	Neutral	True
220.94	0.3	Control	0.9129999999999999	0.004	Yes	2.77	-0.004	2.0	GoodResponse	0	0.164	n/a	3	22	ButtonPress	Neutral	True
220.96	0.52	Control	0.9129999999999999	n/a	Yes	2.77	n/a	n/a	GoodResponse	0	n/a	n/a	3	22	Blank	Neutral	True
221.478	1.45	Control	0.9129999999999999	n/a	Yes	2.77	n/a	5.0	GoodResponse	0	0.007	220.485	3	22	Feedback	Neutral	True
222.933	2.77	Control	0.9129999999999999	n/a	Yes	2.77	n/a	n/a	GoodResponse	0	0.0	n/a	3	22	ISIslide	Neutral	True
225.724	0.25	Control	0.875	0.0	No	2.776	0.024	n/a	NoResponse	0	n/a	n/a	3	23	Cue	Neutral	False
225.975	3.9	Control	0.875	0.0	No	2.776	0.001	2.0	NoResponse	0	0.635	225.61	3	23	Fixation	Neutral	False
226.61	0.3	Control	0.875	0.0	No	2.776	0.001	2.0	NoResponse	0	0.635	n/a	3	23	ButtonPress	Neutral	False
229.87	0.17	Control	0.875	0.004	No	2.776	-0.004	2.0	NoResponse	0	0.264	229.134	3	23	Target	Neutral	False
230.054	0.53	Control	0.875	n/a	No	2.776	n/a	n/a	NoResponse	0	n/a	n/a	3	23	Blank	Neutral	False
230.134	0.3	Control	0.875	0.004	No	2.776	-0.004	2.0	NoResponse	0	0.264	n/a	3	23	ButtonPress	Neutral	False
230.572	1.45	Control	0.875	n/a	No	2.776	n/a	5.0	NoResponse	0	0.033	229.605	3	23	Feedback	Neutral	False
232.026	2.776	Control	0.875	n/a	No	2.776	n/a	2.0	NoResponse	0	1.41	n/a	3	23	ISIslide	Neutral	False
234.801	0.25	Win2	0.84	0.001	No	3.149	0.001	n/a	LatePress	0	n/a	n/a	3	24	Cue	MissedWin	True
235.052	3.95	Win2	0.84	0.0	No	3.149	0.001	n/a	LatePress	0	n/a	n/a	3	24	Fixation	MissedWin	True
238.997	0.16	Win2	0.84	0.004	No	3.149	-0.004	2.0	LatePress	0	0.166	238.163	3	24	Target	MissedWin	True
239.163	0.3	Win2	0.84	0.004	No	3.149	-0.004	2.0	LatePress	0	0.166	n/a	3	24	ButtonPress	MissedWin	True
239.164	0.54	Win2	0.84	n/a	No	3.149	n/a	n/a	LatePress	0	n/a	n/a	3	24	Blank	MissedWin	True
239.699	1.45	Win2	0.84	n/a	No	3.149	n/a	5.0	LatePress	0	0.029	238.728	3	24	Feedback	MissedWin	True
241.154	3.149	Win2	0.84	n/a	No	3.149	n/a	n/a	LatePress	0	0.0	n/a	3	24	ISIslide	MissedWin	True
244.33	0.25	Win2	0.8077	0.0	No	3.07	0.03	n/a	NoResponse	0	n/a	n/a	3	25	Cue	MissedWin	True
244.581	4.0	Win2	0.8077	0.0	No	3.07	0.001	n/a	NoResponse	0	n/a	n/a	3	25	Fixation	MissedWin	True
248.576	0.15	Win2	0.8077	0.004	No	3.07	-0.004	2.0	NoResponse	0	0.204	247.78	3	25	Target	MissedWin	True
248.726	0.55	Win2	0.8077	n/a	No	3.07	n/a	n/a	NoResponse	0	n/a	n/a	3	25	Blank	MissedWin	True
248.78	0.3	Win2	0.8077	0.004	No	3.07	-0.004	2.0	NoResponse	0	0.204	n/a	3	25	ButtonPress	MissedWin	True
249.278	1.45	Win2	0.8077	n/a	No	3.07	n/a	5.0	NoResponse	0	0.011	248.289	3	25	Feedback	MissedWin	True
250.732	3.07	Win2	0.8077	n/a	No	3.07	n/a	n/a	NoResponse	0	0.0	n/a	3	25	ISIslide	MissedWin	True
253.825	0.25	Win2	0.7778	0.0	No	2.925	0.025	n/a	NoResponse	0	n/a	n/a	3	26	Cue	MissedWin	True
254.076	3.95	Win2	0.7778	0.0	No	2.925	0.001	n/a	NoResponse	0	n/a	n/a	3	26	Fixation	MissedWin	True
258.021	0.15	Win2	0.7778	0.004	No	2.925	-0.004	2.0	NoResponse	0	0.205	257.226	3	26	Target	MissedWin	True
258.171	0.55	Win2	0.7778	n/a	No	2.925	n/a	n/a	NoResponse	0	n/a	n/a	3	26	Blank	MissedWin	True
258.226	0.3	Win2	0.7778	0.004	No	2.925	-0.004	2.0	NoResponse	0	0.205	n/a	3	26	ButtonPress	MissedWin	True
258.723	1.45	Win2	0.7778	n/a	No	2.925	n/a	5.0	NoResponse	0	0.028	257.751	3	26	Feedback	MissedWin	True
260.177	2.925	Win2	0.7778	n/a	No	2.925	n/a	n/a	NoResponse	0	0.0	n/a	3	26	ISIslide	MissedWin	True
263.119	0.25	Lose2	0.7857	0.0	Yes	2.831	0.019	n/a	GoodResponse	0	n/a	n/a	3	27	Cue	AvoidedLoss	True
263.37	4.05	Lose2	0.7857	0.0	Yes	2.831	0.001	n/a	GoodResponse	0	n/a	n/a	3	27	Fixation	AvoidedLoss	True
267.415	0.15	Lose2	0.7857	0.004	Yes	2.831	-0.004	2.0	GoodResponse	0	0.111	266.526	3	27	Target	AvoidedLoss	True
267.526	0.3	Lose2	0.7857	0.004	Yes	2.831	-0.004	2.0	GoodResponse	0	0.111	n/a	3	27	ButtonPress	AvoidedLoss	True
267.566	0.55	Lose2	0.7857	n/a	Yes	2.831	n/a	n/a	GoodResponse	0	n/a	n/a	3	27	Blank	AvoidedLoss	True
268.118	1.45	Lose2	0.7857	n/a	Yes	2.831	n/a	5.0	GoodResponse	0	0.048	267.166	3	27	Feedback	AvoidedLoss	True
269.572	2.831	Lose2	0.7857	n/a	Yes	2.831	n/a	n/a	GoodResponse	0	0.0	n/a	3	27	ISIslide	AvoidedLoss	True
272.43	0.25	Control	0.7585999999999999	0.001	No	2.82	0.03	n/a	NoResponse	0	n/a	n/a	3	28	Cue	Neutral	False
272.681	4.05	Control	0.7585999999999999	0.0	No	2.82	0.001	2.0	NoResponse	0	3.584	275.265	3	28	Fixation	Neutral	False
276.265	0.3	Control	0.7585999999999999	0.0	No	2.82	0.001	2.0	NoResponse	0	3.584	n/a	3	28	ButtonPress	Neutral	False
276.727	0.15	Control	0.7585999999999999	0.003	No	2.82	-0.003	2.0	NoResponse	0	0.172	275.899	3	28	Target	Neutral	False
276.877	0.55	Control	0.7585999999999999	n/a	No	2.82	n/a	n/a	NoResponse	0	n/a	n/a	3	28	Blank	Neutral	False
276.899	0.3	Control	0.7585999999999999	0.003	No	2.82	-0.003	2.0	NoResponse	0	0.172	n/a	3	28	ButtonPress	Neutral	False
277.429	1.45	Control	0.7585999999999999	n/a	No	2.82	n/a	5.0	NoResponse	0	0.006	276.435	3	28	Feedback	Neutral	False
278.883	2.82	Control	0.7585999999999999	n/a	No	2.82	n/a	n/a	NoResponse	0	0.0	n/a	3	28	ISIslide	Neutral	False
281.725	0.25	Lose2	0.7667	0.0	Yes	2.825	0.025	n/a	GoodResponse	0	n/a	n/a	3	29	Cue	AvoidedLoss	True
281.976	3.95	Lose2	0.7667	0.0	Yes	2.825	0.001	n/a	GoodResponse	0	n/a	n/a	3	29	Fixation	AvoidedLoss	True
285.921	0.15	Lose2	0.7667	0.004	Yes	2.825	-0.004	2.0	GoodResponse	0	0.129	285.05	3	29	Target	AvoidedLoss	True
286.05	0.3	Lose2	0.7667	0.004	Yes	2.825	-0.004	2.0	GoodResponse	0	0.129	n/a	3	29	ButtonPress	AvoidedLoss	True
286.071	0.55	Lose2	0.7667	n/a	Yes	2.825	n/a	n/a	GoodResponse	0	n/a	n/a	3	29	Blank	AvoidedLoss	True
286.623	1.45	Lose2	0.7667	n/a	Yes	2.825	n/a	5.0	GoodResponse	0	0.031	285.654	3	29	Feedback	AvoidedLoss	True
288.077	2.825	Lose2	0.7667	n/a	Yes	2.825	n/a	n/a	GoodResponse	0	0.0	n/a	3	29	ISIslide	AvoidedLoss	True
290.919	0.25	Win2	0.7419	0.0	No	2.781	0.019	n/a	NoResponse	0	n/a	n/a	3	30	Cue	MissedWin	True
291.17	3.9	Win2	0.7419	0.0	No	2.781	0.001	n/a	NoResponse	0	n/a	n/a	3	30	Fixation	MissedWin	True
295.065	0.15	Win2	0.7419	0.004	No	2.781	-0.004	2.0	NoResponse	0	0.171	294.236	3	30	Target	MissedWin	True
295.215	0.55	Win2	0.7419	n/a	No	2.781	n/a	n/a	NoResponse	0	n/a	n/a	3	30	Blank	MissedWin	True
295.236	0.3	Win2	0.7419	0.004	No	2.781	-0.004	2.0	NoResponse	0	0.171	n/a	3	30	ButtonPress	MissedWin	True
295.767	1.45	Win2	0.7419	n/a	No	2.781	n/a	5.0	NoResponse	0	0.008	294.775	3	30	Feedback	MissedWin	True
297.221	2.781	Win2	0.7419	n/a	No	2.781	n/a	n/a	NoResponse	0	0.0	n/a	3	30	ISIslide	MissedWin	True
300.03	0.25	Lose2	0.7188	0.0	No	2.82	0.03	n/a	NoResponse	-1	n/a	n/a	2	31	Cue	Loss	True
300.28	4.05	Lose2	0.7188	0.0	No	2.82	0.0	n/a	NoResponse	-1	n/a	n/a	2	31	Fixation	Loss	True
304.326	0.15	Lose2	0.7188	0.004	No	2.82	-0.004	2.0	NoResponse	-1	0.185	303.511	2	31	Target	Loss	True
304.476	0.55	Lose2	0.7188	n/a	No	2.82	n/a	n/a	NoResponse	-1	n/a	n/a	2	31	Blank	Loss	True
304.511	0.3	Lose2	0.7188	0.004	No	2.82	-0.004	2.0	NoResponse	-1	0.185	n/a	2	31	ButtonPress	Loss	True
305.028	1.45	Lose2	0.7188	n/a	No	2.82	n/a	5.0	NoResponse	-1	0.015	304.043	2	31	Feedback	Loss	True
306.482	2.82	Lose2	0.7188	n/a	No	2.82	n/a	n/a	NoResponse	-1	0.0	n/a	2	31	ISIslide	Loss	True
309.324	0.25	Lose2	0.6970000000000001	0.0	No	2.626	0.024	n/a	NoResponse	-1	n/a	n/a	1	32	Cue	Loss	True
309.575	4.15	Lose2	0.6970000000000001	0.0	No	2.626	0.001	n/a	NoResponse	-1	n/a	n/a	1	32	Fixation	Loss	True
313.72	0.15	Lose2	0.6970000000000001	0.004	No	2.626	-0.004	2.0	NoResponse	-1	0.28	313.0	1	32	Target	Loss	True
313.871	0.55	Lose2	0.6970000000000001	n/a	No	2.626	n/a	n/a	NoResponse	-1	n/a	n/a	1	32	Blank	Loss	True
314	0.3	Lose2	0.6970000000000001	0.004	No	2.626	-0.004	2.0	NoResponse	-1	0.28	n/a	1	32	ButtonPress	Loss	True
314.423	1.45	Lose2	0.6970000000000001	n/a	No	2.626	n/a	5.0	NoResponse	-1	0.035	313.458	1	32	Feedback	Loss	True
315.877	2.626	Lose2	0.6970000000000001	n/a	No	2.626	n/a	n/a	NoResponse	-1	0.0	n/a	1	32	ISIslide	Loss	True
318.518	0.25	Win2	0.6765000000000001	0.0	No	2.682	0.018	n/a	NoResponse	0	n/a	n/a	1	33	Cue	MissedWin	True
318.769	4.0	Win2	0.6765000000000001	0.0	No	2.682	0.001	n/a	NoResponse	0	n/a	n/a	1	33	Fixation	MissedWin	True
322.764	0.15	Win2	0.6765000000000001	0.004	No	2.682	-0.004	2.0	NoResponse	0	0.166	321.93	1	33	Target	MissedWin	True
322.915	0.55	Win2	0.6765000000000001	n/a	No	2.682	n/a	n/a	NoResponse	0	n/a	n/a	1	33	Blank	MissedWin	True
322.93	0.3	Win2	0.6765000000000001	0.004	No	2.682	-0.004	2.0	NoResponse	0	0.166	n/a	1	33	ButtonPress	MissedWin	True
323.466	1.45	Win2	0.6765000000000001	n/a	No	2.682	n/a	5.0	NoResponse	0	0.017	322.483	1	33	Feedback	MissedWin	True
324.921	2.682	Win2	0.6765000000000001	n/a	No	2.682	n/a	n/a	NoResponse	0	0.0	n/a	1	33	ISIslide	MissedWin	True
327.629	0.25	Lose2	0.6570999999999999	0.0	No	2.621	0.029	n/a	NoResponse	-1	n/a	n/a	0	34	Cue	Loss	True
327.879	4.05	Lose2	0.6570999999999999	0.0	No	2.621	0.0	n/a	NoResponse	-1	n/a	n/a	0	34	Fixation	Loss	True
331.925	0.15	Lose2	0.6570999999999999	0.004	No	2.621	-0.004	2.0	NoResponse	-1	0.162	331.087	0	34	Target	Loss	True
332.075	0.55	Lose2	0.6570999999999999	n/a	No	2.621	n/a	n/a	NoResponse	-1	n/a	n/a	0	34	Blank	Loss	True
332.087	0.3	Lose2	0.6570999999999999	0.004	No	2.621	-0.004	2.0	NoResponse	-1	0.162	n/a	0	34	ButtonPress	Loss	True
332.627	1.45	Lose2	0.6570999999999999	n/a	No	2.621	n/a	5.0	NoResponse	-1	0.025	331.652	0	34	Feedback	Loss	True
334.081	2.621	Lose2	0.6570999999999999	n/a	No	2.621	n/a	2.0	NoResponse	-1	1.624	n/a	0	34	ISIslide	Loss	True
336.706	0.25	Lose2	0.6389	0.0	No	2.694	0.006	n/a	NoResponse	-1	n/a	n/a	-1	35	Cue	Loss	False
336.956	4.0	Lose2	0.6389	0.001	No	2.694	0.0	2.0	NoResponse	-1	2.97	338.926	-1	35	Fixation	Loss	False
339.926	0.3	Lose2	0.6389	0.001	No	2.694	0.0	2.0	NoResponse	-1	2.97	n/a	-1	35	ButtonPress	Loss	False
340.952	0.15	Lose2	0.6389	0.004	No	2.694	-0.004	2.0	NoResponse	-1	0.242	340.194	-1	35	Target	Loss	False
341.102	0.55	Lose2	0.6389	n/a	No	2.694	n/a	n/a	NoResponse	-1	n/a	n/a	-1	35	Blank	Loss	False
341.194	0.3	Lose2	0.6389	0.004	No	2.694	-0.004	2.0	NoResponse	-1	0.242	n/a	-1	35	ButtonPress	Loss	False
341.654	1.45	Lose2	0.6389	n/a	No	2.694	n/a	5.0	NoResponse	-1	0.023	340.677	-1	35	Feedback	Loss	False
343.108	2.694	Lose2	0.6389	n/a	No	2.694	n/a	n/a	NoResponse	-1	0.0	n/a	-1	35	ISIslide	Loss	False
345.816	0.25	Control	0.6215999999999999	0.0	No	2.684	0.016	n/a	NoResponse	0	n/a	n/a	-1	36	Cue	Neutral	True
346.067	4.0	Control	0.6215999999999999	0.0	No	2.684	0.001	n/a	NoResponse	0	n/a	n/a	-1	36	Fixation	Neutral	True
350.062	0.16	Control	0.6215999999999999	0.004	No	2.684	-0.004	2.0	NoResponse	0	0.215	349.277	-1	36	Target	Neutral	True
350.229	0.54	Control	0.6215999999999999	n/a	No	2.684	n/a	n/a	NoResponse	0	n/a	n/a	-1	36	Blank	Neutral	True
350.277	0.3	Control	0.6215999999999999	0.004	No	2.684	-0.004	2.0	NoResponse	0	0.215	n/a	-1	36	ButtonPress	Neutral	True
350.764	1.45	Control	0.6215999999999999	n/a	No	2.684	n/a	5.0	NoResponse	0	0.035	349.799	-1	36	Feedback	Neutral	True
352.219	2.684	Control	0.6215999999999999	n/a	No	2.684	n/a	n/a	NoResponse	0	0.0	n/a	-1	36	ISIslide	Neutral	True
354.927	0.25	Win2	0.6053000000000001	0.0	No	2.873	0.027	n/a	NoResponse	0	n/a	n/a	-1	37	Cue	MissedWin	True
355.178	4.0	Win2	0.6053000000000001	0.0	No	2.873	0.001	n/a	NoResponse	0	n/a	n/a	-1	37	Fixation	MissedWin	True
359.173	0.17	Win2	0.6053000000000001	0.004	No	2.873	-0.004	2.0	NoResponse	0	0.236	358.409	-1	37	Target	MissedWin	True
359.357	0.53	Win2	0.6053000000000001	n/a	No	2.873	n/a	n/a	NoResponse	0	n/a	n/a	-1	37	Blank	MissedWin	True
359.409	0.3	Win2	0.6053000000000001	0.004	No	2.873	-0.004	2.0	NoResponse	0	0.236	n/a	-1	37	ButtonPress	MissedWin	True
359.875	1.45	Win2	0.6053000000000001	n/a	No	2.873	n/a	5.0	NoResponse	0	0.046	358.921	-1	37	Feedback	MissedWin	True
361.329	2.873	Win2	0.6053000000000001	n/a	No	2.873	n/a	n/a	NoResponse	0	0.0	n/a	-1	37	ISIslide	MissedWin	True
364.221	0.25	Lose2	0.5897	0.0	No	2.829	0.021	n/a	NoResponse	-1	n/a	n/a	-2	38	Cue	Loss	True
364.472	3.95	Lose2	0.5897	0.0	No	2.829	0.001	n/a	NoResponse	-1	n/a	n/a	-2	38	Fixation	Loss	True
368.417	0.18	Lose2	0.5897	0.004	No	2.829	-0.004	2.0	NoResponse	-1	0.202	367.619	-2	38	Target	Loss	True
368.601	0.52	Lose2	0.5897	n/a	No	2.829	n/a	n/a	NoResponse	-1	n/a	n/a	-2	38	Blank	Loss	True
368.619	0.3	Lose2	0.5897	0.004	No	2.829	-0.004	2.0	NoResponse	-1	0.202	n/a	-2	38	ButtonPress	Loss	True
369.119	1.45	Lose2	0.5897	n/a	No	2.829	n/a	5.0	NoResponse	-1	0.021	368.14	-2	38	Feedback	Loss	True
370.574	2.829	Lose2	0.5897	n/a	No	2.829	n/a	n/a	NoResponse	-1	0.0	n/a	-2	38	ISIslide	Loss	True
373.415	0.25	Win2	0.575	0.0	No	2.985	0.015	n/a	NoResponse	0	n/a	n/a	-2	39	Cue	MissedWin	True
373.666	4.1	Win2	0.575	0.0	No	2.985	0.001	n/a	NoResponse	0	n/a	n/a	-2	39	Fixation	MissedWin	True
377.762	0.19	Win2	0.575	0.003	No	2.985	-0.003	2.0	NoResponse	0	0.208	376.97	-2	39	Target	MissedWin	True
377.962	0.51	Win2	0.575	n/a	No	2.985	n/a	n/a	NoResponse	0	n/a	n/a	-2	39	Blank	MissedWin	True
377.97	0.3	Win2	0.575	0.003	No	2.985	-0.003	2.0	NoResponse	0	0.208	n/a	-2	39	ButtonPress	MissedWin	True
378.464	1.45	Win2	0.575	n/a	No	2.985	n/a	5.0	NoResponse	0	0.042	377.506	-2	39	Feedback	MissedWin	True
379.918	2.985	Win2	0.575	n/a	No	2.985	n/a	n/a	NoResponse	0	0.0	n/a	-2	39	ISIslide	MissedWin	True
382.927	0.25	Win2	0.5854	0.0	Yes	2.723	0.027	n/a	GoodResponse	1	n/a	n/a	-1	40	Cue	Win	True
383.178	3.95	Win2	0.5854	0.0	Yes	2.723	0.001	n/a	GoodResponse	1	n/a	n/a	-1	40	Fixation	Win	True
387.123	0.2	Win2	0.5854	0.004	Yes	2.723	-0.004	2.0	GoodResponse	1	0.181	386.304	-1	40	Target	Win	True
387.304	0.3	Win2	0.5854	0.004	Yes	2.723	-0.004	2.0	GoodResponse	1	0.181	n/a	-1	40	ButtonPress	Win	True
387.324	0.5	Win2	0.5854	n/a	Yes	2.723	n/a	n/a	GoodResponse	1	n/a	n/a	-1	40	Blank	Win	True
387.825	1.45	Win2	0.5854	n/a	Yes	2.723	n/a	5.0	GoodResponse	1	0.046	386.871	-1	40	Feedback	Win	True
389.279	2.723	Win2	0.5854	n/a	Yes	2.723	n/a	n/a	GoodResponse	1	0.0	n/a	-1	40	ISIslide	Win	True
392.021	0.25	Win2	0.5952000000000001	0.0	Yes	2.779	0.021	n/a	GoodResponse	1	n/a	n/a	0	41	Cue	Win	True
392.272	3.9	Win2	0.5952000000000001	0.0	Yes	2.779	0.001	n/a	GoodResponse	1	n/a	n/a	0	41	Fixation	Win	True
396.167	0.21	Win2	0.5952000000000001	0.004	Yes	2.779	-0.004	2.0	GoodResponse	1	0.204	395.371	0	41	Target	Win	True
396.371	0.3	Win2	0.5952000000000001	0.004	Yes	2.779	-0.004	2.0	GoodResponse	1	0.204	n/a	0	41	ButtonPress	Win	True
396.384	0.49	Win2	0.5952000000000001	n/a	Yes	2.779	n/a	n/a	GoodResponse	1	n/a	n/a	0	41	Blank	Win	True
396.869	1.45	Win2	0.5952000000000001	n/a	Yes	2.779	n/a	5.0	GoodResponse	1	0.027	395.896	0	41	Feedback	Win	True
398.323	2.779	Win2	0.5952000000000001	n/a	Yes	2.779	n/a	n/a	GoodResponse	1	0.0	n/a	0	41	ISIslide	Win	True
401.115	0.25	Control	0.5814	0.0	No	2.935	0.015	n/a	NoResponse	0	n/a	n/a	0	42	Cue	Neutral	False
401.366	3.85	Control	0.5814	0.0	No	2.935	0.001	n/a	NoResponse	0	n/a	n/a	0	42	Fixation	Neutral	False
405.227	0.22	Control	0.5814	0.0	No	2.935	0.012	n/a	NoResponse	0	n/a	n/a	0	42	Target	Neutral	False
405.444	0.48	Control	0.5814	n/a	No	2.935	n/a	n/a	NoResponse	0	n/a	n/a	0	42	Blank	Neutral	False
405.912	1.45	Control	0.5814	n/a	No	2.935	n/a	5.0	NoResponse	0	0.008	404.92	0	42	Feedback	Neutral	False
407.367	2.935	Control	0.5814	n/a	No	2.935	n/a	n/a	NoResponse	0	0.0	n/a	0	42	ISIslide	Neutral	False
410.326	0.25	Win2	0.5909	0.0	Yes	3.174	0.026	n/a	GoodResponse	1	n/a	n/a	1	43	Cue	Win	True
410.576	4.0	Win2	0.5909	0.0	Yes	3.174	0.0	n/a	GoodResponse	1	n/a	n/a	1	43	Fixation	Win	True
414.572	0.23	Win2	0.5909	0.004	Yes	3.174	-0.004	2.0	GoodResponse	1	0.19	413.762	1	43	Target	Win	True
414.762	0.3	Win2	0.5909	0.004	Yes	3.174	-0.004	2.0	GoodResponse	1	0.19	n/a	1	43	ButtonPress	Win	True
414.806	0.47	Win2	0.5909	n/a	Yes	3.174	n/a	n/a	GoodResponse	1	n/a	n/a	1	43	Blank	Win	True
415.274	1.45	Win2	0.5909	n/a	Yes	3.174	n/a	5.0	GoodResponse	1	0.011	414.285	1	43	Feedback	Win	True
416.728	3.174	Win2	0.5909	n/a	Yes	3.174	n/a	n/a	GoodResponse	1	0.0	n/a	1	43	ISIslide	Win	True
419.921	0.25	Win2	0.6	0.0	Yes	2.979	0.021	n/a	GoodResponse	1	n/a	n/a	2	44	Cue	Win	True
420.172	4.0	Win2	0.6	0.0	Yes	2.979	0.001	n/a	GoodResponse	1	n/a	n/a	2	44	Fixation	Win	True
424.167	0.24	Win2	0.6	0.004	Yes	2.979	-0.004	2.0	GoodResponse	1	0.221	423.388	2	44	Target	Win	True
424.388	0.3	Win2	0.6	0.004	Yes	2.979	-0.004	2.0	GoodResponse	1	0.221	n/a	2	44	ButtonPress	Win	True
424.418	0.46	Win2	0.6	n/a	Yes	2.979	n/a	n/a	GoodResponse	1	n/a	n/a	2	44	Blank	Win	True
424.869	1.45	Win2	0.6	n/a	Yes	2.979	n/a	5.0	GoodResponse	1	0.026	423.895	2	44	Feedback	Win	True
426.323	2.979	Win2	0.6	n/a	Yes	2.979	n/a	n/a	GoodResponse	1	0.0	n/a	2	44	ISIslide	Win	True
429.316	0.25	Control	0.5870000000000001	0.0	No	2.884	0.016	n/a	NoResponse	0	n/a	n/a	2	45	Cue	Neutral	False
429.566	4.1	Control	0.5870000000000001	0.0	No	2.884	0.0	2.0	NoResponse	0	3.882	432.448	2	45	Fixation	Neutral	False
433.448	0.3	Control	0.5870000000000001	0.0	No	2.884	0.0	2.0	NoResponse	0	3.882	n/a	2	45	ButtonPress	Neutral	False
433.662	0.25	Control	0.5870000000000001	0.004	No	2.884	-0.004	2.0	NoResponse	0	0.262	432.924	2	45	Target	Neutral	False
433.913	0.45	Control	0.5870000000000001	n/a	No	2.884	n/a	n/a	NoResponse	0	n/a	n/a	2	45	Blank	Neutral	False
433.924	0.3	Control	0.5870000000000001	0.004	No	2.884	-0.004	2.0	NoResponse	0	0.262	n/a	2	45	ButtonPress	Neutral	False
434.364	1.45	Control	0.5870000000000001	n/a	No	2.884	n/a	5.0	NoResponse	0	0.044	433.408	2	45	Feedback	Neutral	False
435.818	2.884	Control	0.5870000000000001	n/a	No	2.884	n/a	n/a	NoResponse	0	0.0	n/a	2	45	ISIslide	Neutral	False
438.727	0.25	Lose2	0.5957	0.0	Yes	3.373	0.027	n/a	GoodResponse	0	n/a	n/a	2	46	Cue	AvoidedLoss	True
438.978	4.0	Lose2	0.5957	0.0	Yes	3.373	0.001	n/a	GoodResponse	0	n/a	n/a	2	46	Fixation	AvoidedLoss	True
442.973	0.26	Lose2	0.5957	0.004	Yes	3.373	-0.004	2.0	GoodResponse	0	0.16	442.133	2	46	Target	AvoidedLoss	True
443.133	0.3	Lose2	0.5957	0.004	Yes	3.373	-0.004	2.0	GoodResponse	0	0.16	n/a	2	46	ButtonPress	AvoidedLoss	True
443.241	0.44	Lose2	0.5957	n/a	Yes	3.373	n/a	n/a	GoodResponse	0	n/a	n/a	2	46	Blank	AvoidedLoss	True
443.675	1.45	Lose2	0.5957	n/a	Yes	3.373	n/a	5.0	GoodResponse	0	0.0	442.675	2	46	Feedback	AvoidedLoss	True
445.13	3.373	Lose2	0.5957	n/a	Yes	3.373	n/a	n/a	GoodResponse	0	0.0	n/a	2	46	ISIslide	AvoidedLoss	True
448.523	0.25	Lose2	0.6042000000000001	0.0	Yes	2.677	0.023	n/a	GoodResponse	0	n/a	n/a	2	47	Cue	AvoidedLoss	True
448.774	4.0	Lose2	0.6042000000000001	0.0	Yes	2.677	0.001	n/a	GoodResponse	0	n/a	n/a	2	47	Fixation	AvoidedLoss	True
452.769	0.27	Lose2	0.6042000000000001	0.004	Yes	2.677	-0.004	2.0	GoodResponse	0	0.226	451.995	2	47	Target	AvoidedLoss	True
452.995	0.3	Lose2	0.6042000000000001	0.004	Yes	2.677	-0.004	2.0	GoodResponse	0	0.226	n/a	2	47	ButtonPress	AvoidedLoss	True
453.053	0.43	Lose2	0.6042000000000001	n/a	Yes	2.677	n/a	n/a	GoodResponse	0	n/a	n/a	2	47	Blank	AvoidedLoss	True
453.471	1.45	Lose2	0.6042000000000001	n/a	Yes	2.677	n/a	5.0	GoodResponse	0	0.009	452.48	2	47	Feedback	AvoidedLoss	True
454.925	2.677	Lose2	0.6042000000000001	n/a	Yes	2.677	n/a	n/a	GoodResponse	0	0.0	n/a	2	47	ISIslide	AvoidedLoss	True
457.617	0.25	Lose2	0.6122	0.0	Yes	3.033	0.017	n/a	GoodResponse	0	n/a	n/a	2	48	Cue	AvoidedLoss	True
457.868	3.95	Lose2	0.6122	0.0	Yes	3.033	0.001	n/a	GoodResponse	0	n/a	n/a	2	48	Fixation	AvoidedLoss	True
461.813	0.28	Lose2	0.6122	0.004	Yes	3.033	-0.004	2.0	GoodResponse	0	0.197	461.01	2	48	Target	AvoidedLoss	True
462.01	0.3	Lose2	0.6122	0.004	Yes	3.033	-0.004	2.0	GoodResponse	0	0.197	n/a	2	48	ButtonPress	AvoidedLoss	True
462.097	0.42	Lose2	0.6122	n/a	Yes	3.033	n/a	n/a	GoodResponse	0	n/a	n/a	2	48	Blank	AvoidedLoss	True
462.515	1.45	Lose2	0.6122	n/a	Yes	3.033	n/a	5.0	GoodResponse	0	0.038	461.553	2	48	Feedback	AvoidedLoss	True
463.969	3.033	Lose2	0.6122	n/a	Yes	3.033	n/a	n/a	GoodResponse	0	0.0	n/a	2	48	ISIslide	AvoidedLoss	True
467.028	0.25	Control	0.62	0.0	Yes	2.872	0.028	n/a	GoodResponse	0	n/a	n/a	2	49	Cue	Neutral	True
467.279	4.0	Control	0.62	0.0	Yes	2.872	0.001	n/a	GoodResponse	0	n/a	n/a	2	49	Fixation	Neutral	True
471.274	0.29	Control	0.62	0.004	Yes	2.872	-0.004	2.0	GoodResponse	0	0.185	470.459	2	49	Target	Neutral	True
471.459	0.3	Control	0.62	0.004	Yes	2.872	-0.004	2.0	GoodResponse	0	0.185	n/a	2	49	ButtonPress	Neutral	True
471.575	0.41	Control	0.62	n/a	Yes	2.872	n/a	n/a	GoodResponse	0	n/a	n/a	2	49	Blank	Neutral	True
471.976	1.45	Control	0.62	n/a	Yes	2.872	n/a	5.0	GoodResponse	0	0.041	471.017	2	49	Feedback	Neutral	True
473.431	2.872	Control	0.62	n/a	Yes	2.872	n/a	n/a	GoodResponse	0	0.0	n/a	2	49	ISIslide	Neutral	True
476.323	0.25	Control	0.6275	0.0	Yes	2.777	0.023	n/a	GoodResponse	0	n/a	n/a	2	50	Cue	Neutral	True
476.573	4.0	Control	0.6275	0.001	Yes	2.777	0.0	n/a	GoodResponse	0	n/a	n/a	2	50	Fixation	Neutral	True
480.569	0.3	Control	0.6275	0.004	Yes	2.777	-0.004	2.0	GoodResponse	0	0.166	479.735	2	50	Target	Neutral	True
480.735	0.3	Control	0.6275	0.004	Yes	2.777	-0.004	2.0	GoodResponse	0	0.166	n/a	2	50	ButtonPress	Neutral	True
480.87	0.4	Control	0.6275	n/a	Yes	2.777	n/a	n/a	GoodResponse	0	n/a	n/a	2	50	Blank	Neutral	True
481.271	1.45	Control	0.6275	n/a	Yes	2.777	n/a	5.0	GoodResponse	0	0.013	480.284	2	50	Feedback	Neutral	True
482.725	2.777	Control	0.6275	n/a	Yes	2.777	n/a	n/a	GoodResponse	0	0.0	n/a	2	50	ISIslide	Neutral	True
485.517	0.25	Control	0.6154	0.0	No	2.733	0.017	n/a	LatePress	0	n/a	n/a	2	51	Cue	Neutral	False
485.768	3.95	Control	0.6154	0.0	No	2.733	0.001	2.0	LatePress	0	1.576	486.344	2	51	Fixation	Neutral	False
487.344	0.3	Control	0.6154	0.0	No	2.733	0.001	2.0	LatePress	0	1.576	n/a	2	51	ButtonPress	Neutral	False
489.713	0.31	Control	0.6154	0.004	No	2.733	-0.004	2.0	LatePress	0	0.317	489.03	2	51	Target	Neutral	False
490.03	0.39	Control	0.6154	n/a	No	2.733	n/a	n/a	LatePress	0	n/a	n/a	2	51	Blank	Neutral	False
490.03	0.3	Control	0.6154	0.004	No	2.733	-0.004	2.0	LatePress	0	0.317	n/a	2	51	ButtonPress	Neutral	False
490.415	1.45	Control	0.6154	n/a	No	2.733	n/a	5.0	LatePress	0	0.04	489.455	2	51	Feedback	Neutral	False
491.869	2.733	Control	0.6154	n/a	No	2.733	n/a	n/a	LatePress	0	0.0	n/a	2	51	ISIslide	Neutral	False
494.627	0.25	Control	0.6225999999999999	0.0	Yes	2.623	0.027	n/a	GoodResponse	0	n/a	n/a	2	52	Cue	Neutral	True
494.878	4.05	Control	0.6225999999999999	0.0	Yes	2.623	0.001	n/a	GoodResponse	0	n/a	n/a	2	52	Fixation	Neutral	True
498.924	0.32	Control	0.6225999999999999	0.003	Yes	2.623	-0.003	2.0	GoodResponse	0	0.227	498.151	2	52	Target	Neutral	True
499.151	0.3	Control	0.6225999999999999	0.003	Yes	2.623	-0.003	2.0	GoodResponse	0	0.227	n/a	2	52	ButtonPress	Neutral	True
499.258	0.38	Control	0.6225999999999999	n/a	Yes	2.623	n/a	n/a	GoodResponse	0	n/a	n/a	2	52	Blank	Neutral	True
499.626	1.45	Control	0.6225999999999999	n/a	Yes	2.623	n/a	5.0	GoodResponse	0	0.0	498.626	2	52	Feedback	Neutral	True
501.08	2.623	Control	0.6225999999999999	n/a	Yes	2.623	n/a	n/a	GoodResponse	0	0.0	n/a	2	52	ISIslide	Neutral	True
503.721	0.25	Win2	0.6296	0.0	Yes	2.929	0.021	n/a	GoodResponse	1	n/a	n/a	3	53	Cue	Win	True
503.972	4.05	Win2	0.6296	0.0	Yes	2.929	0.001	n/a	GoodResponse	1	n/a	n/a	3	53	Fixation	Win	True
508.017	0.33	Win2	0.6296	0.004	Yes	2.929	-0.004	2.0	GoodResponse	1	0.196	507.213	3	53	Target	Win	True
508.213	0.3	Win2	0.6296	0.004	Yes	2.929	-0.004	2.0	GoodResponse	1	0.196	n/a	3	53	ButtonPress	Win	True
508.352	0.37	Win2	0.6296	n/a	Yes	2.929	n/a	n/a	GoodResponse	1	n/a	n/a	3	53	Blank	Win	True
508.719	1.45	Win2	0.6296	n/a	Yes	2.929	n/a	5.0	GoodResponse	1	0.029	507.748	3	53	Feedback	Win	True
510.174	2.929	Win2	0.6296	n/a	Yes	2.929	n/a	n/a	GoodResponse	1	0.0	n/a	3	53	ISIslide	Win	True
513.116	0.25	Win2	0.6364	0.0	Yes	2.734	0.016	n/a	GoodResponse	1	n/a	n/a	4	54	Cue	Win	True
513.367	3.95	Win2	0.6364	0.0	Yes	2.734	0.001	n/a	GoodResponse	1	n/a	n/a	4	54	Fixation	Win	True
517.312	0.34	Win2	0.6364	0.004	Yes	2.734	-0.004	2.0	GoodResponse	1	0.297	516.609	4	54	Target	Win	True
517.609	0.3	Win2	0.6364	0.004	Yes	2.734	-0.004	2.0	GoodResponse	1	0.297	n/a	4	54	ButtonPress	Win	True
517.663	0.36	Win2	0.6364	n/a	Yes	2.734	n/a	n/a	GoodResponse	1	n/a	n/a	4	54	Blank	Win	True
518.014	1.45	Win2	0.6364	n/a	Yes	2.734	n/a	5.0	GoodResponse	1	0.001	517.015	4	54	Feedback	Win	True
519.468	2.734	Win2	0.6364	n/a	Yes	2.734	n/a	n/a	GoodResponse	1	0.0	n/a	4	54	ISIslide	Win	True
522.226	0.25	Control	0.6429	0.001	Yes	3.024	0.026	n/a	GoodResponse	0	n/a	n/a	4	55	Cue	Neutral	True
522.477	3.95	Control	0.6429	0.0	Yes	3.024	0.001	n/a	GoodResponse	0	n/a	n/a	4	55	Fixation	Neutral	True
526.422	0.35	Control	0.6429	0.004	Yes	3.024	-0.004	2.0	GoodResponse	0	0.19	525.612	4	55	Target	Neutral	True
526.612	0.3	Control	0.6429	0.004	Yes	3.024	-0.004	2.0	GoodResponse	0	0.19	n/a	4	55	ButtonPress	Neutral	True
526.773	0.35	Control	0.6429	n/a	Yes	3.024	n/a	n/a	GoodResponse	0	n/a	n/a	4	55	Blank	Neutral	True
527.124	1.45	Control	0.6429	n/a	Yes	3.024	n/a	5.0	GoodResponse	0	0.013	526.137	4	55	Feedback	Neutral	True
528.579	3.024	Control	0.6429	n/a	Yes	3.024	n/a	n/a	GoodResponse	0	0.0	n/a	4	55	ISIslide	Neutral	True
531.621	0.25	Control	0.6491	0.0	Yes	2.829	0.021	n/a	GoodResponse	0	n/a	n/a	4	56	Cue	Neutral	True
531.872	3.95	Control	0.6491	0.0	Yes	2.829	0.001	n/a	GoodResponse	0	n/a	n/a	4	56	Fixation	Neutral	True
535.817	0.36	Control	0.6491	0.004	Yes	2.829	-0.004	2.0	GoodResponse	0	0.175	534.992	4	56	Target	Neutral	True
535.992	0.3	Control	0.6491	0.004	Yes	2.829	-0.004	2.0	GoodResponse	0	0.175	n/a	4	56	ButtonPress	Neutral	True
536.185	0.34	Control	0.6491	n/a	Yes	2.829	n/a	n/a	GoodResponse	0	n/a	n/a	4	56	Blank	Neutral	True
536.519	1.45	Control	0.6491	n/a	Yes	2.829	n/a	5.0	GoodResponse	0	0.033	535.552	4	56	Feedback	Neutral	True
537.973	2.829	Control	0.6491	n/a	Yes	2.829	n/a	n/a	GoodResponse	0	0.0	n/a	4	56	ISIslide	Neutral	True
540.815	0.25	Control	0.6552	0.0	Yes	3.485	0.015	n/a	GoodResponse	0	n/a	n/a	4	57	Cue	Neutral	True
541.066	4.0	Control	0.6552	0.0	Yes	3.485	0.001	n/a	GoodResponse	0	n/a	n/a	4	57	Fixation	Neutral	True
545.061	0.37	Control	0.6552	0.004	Yes	3.485	-0.004	2.0	GoodResponse	0	0.296	544.357	4	57	Target	Neutral	True
545.357	0.3	Control	0.6552	0.004	Yes	3.485	-0.004	2.0	GoodResponse	0	0.296	n/a	4	57	ButtonPress	Neutral	True
545.446	0.33	Control	0.6552	n/a	Yes	3.485	n/a	n/a	GoodResponse	0	n/a	n/a	4	57	Blank	Neutral	True
545.763	1.45	Control	0.6552	n/a	Yes	3.485	n/a	5.0	GoodResponse	0	0.009	544.772	4	57	Feedback	Neutral	True
547.218	3.485	Control	0.6552	n/a	Yes	3.485	n/a	n/a	GoodResponse	0	0.0	n/a	4	57	ISIslide	Neutral	True
550.728	0.25	Win2	0.6609999999999999	0.0	Yes	2.722	0.028	n/a	GoodResponse	1	n/a	n/a	5	58	Cue	Win	False
550.979	4.05	Win2	0.6609999999999999	0.0	Yes	2.722	0.001	2.0	GoodResponse	1	0.014	549.993	5	58	Fixation	Win	False
550.993	0.3	Win2	0.6609999999999999	0.0	Yes	2.722	0.001	2.0	GoodResponse	1	0.014	n/a	5	58	ButtonPress	Win	False
555.024	0.37	Win2	0.6609999999999999	0.004	Yes	2.722	-0.004	2.0	GoodResponse	1	0.225	554.249	5	58	Target	Win	False
555.249	0.3	Win2	0.6609999999999999	0.004	Yes	2.722	-0.004	2.0	GoodResponse	1	0.225	n/a	5	58	ButtonPress	Win	False
555.409	0.33	Win2	0.6609999999999999	n/a	Yes	2.722	n/a	n/a	GoodResponse	1	n/a	n/a	5	58	Blank	Win	False
555.727	1.45	Win2	0.6609999999999999	n/a	Yes	2.722	n/a	5.0	GoodResponse	1	0.044	554.771	5	58	Feedback	Win	False
557.181	2.722	Win2	0.6609999999999999	n/a	Yes	2.722	n/a	n/a	GoodResponse	1	0.0	n/a	5	58	ISIslide	Win	False
559.922	0.25	Lose2	0.6667000000000001	0.0	Yes	2.678	0.022	n/a	GoodResponse	0	n/a	n/a	5	59	Cue	AvoidedLoss	True
560.173	4.0	Lose2	0.6667000000000001	0.0	Yes	2.678	0.001	n/a	GoodResponse	0	n/a	n/a	5	59	Fixation	AvoidedLoss	True
564.168	0.37	Lose2	0.6667000000000001	0.004	Yes	2.678	-0.004	2.0	GoodResponse	0	0.34	563.508	5	59	Target	AvoidedLoss	True
564.508	0.3	Lose2	0.6667000000000001	0.004	Yes	2.678	-0.004	2.0	GoodResponse	0	0.34	n/a	5	59	ButtonPress	AvoidedLoss	True
564.553	0.33	Lose2	0.6667000000000001	n/a	Yes	2.678	n/a	n/a	GoodResponse	0	n/a	n/a	5	59	Blank	AvoidedLoss	True
564.87	1.45	Lose2	0.6667000000000001	n/a	Yes	2.678	n/a	5.0	GoodResponse	0	0.023	563.893	5	59	Feedback	AvoidedLoss	True
566.325	2.678	Lose2	0.6667000000000001	n/a	Yes	2.678	n/a	n/a	GoodResponse	0	0.0	n/a	5	59	ISIslide	AvoidedLoss	True
569.016	0.25	Control	0.6720999999999999	0.0	Yes	2.684	0.016	n/a	GoodResponse	0	n/a	n/a	5	60	Cue	Neutral	True
569.267	4.0	Control	0.6720999999999999	0.0	Yes	2.684	0.001	n/a	GoodResponse	0	n/a	n/a	5	60	Fixation	Neutral	True
573.262	0.36	Control	0.6720999999999999	0.004	Yes	2.684	-0.004	2.0	GoodResponse	0	0.195	572.457	5	60	Target	Neutral	True
573.457	0.3	Control	0.6720999999999999	0.004	Yes	2.684	-0.004	2.0	GoodResponse	0	0.195	n/a	5	60	ButtonPress	Neutral	True
573.63	0.34	Control	0.6720999999999999	n/a	Yes	2.684	n/a	n/a	GoodResponse	0	n/a	n/a	5	60	Blank	Neutral	True
573.964	1.45	Control	0.6720999999999999	n/a	Yes	2.684	n/a	5.0	GoodResponse	0	0.002	572.966	5	60	Feedback	Neutral	True
575.419	2.684	Control	0.6720999999999999	n/a	Yes	2.684	n/a	n/a	GoodResponse	0	0.0	n/a	5	60	ISIslide	Neutral	True
578.127	0.25	Lose2	0.6774	0.0	Yes	2.973	0.027	n/a	GoodResponse	0	n/a	n/a	5	61	Cue	AvoidedLoss	True
578.378	4.0	Lose2	0.6774	0.0	Yes	2.973	0.001	n/a	GoodResponse	0	n/a	n/a	5	61	Fixation	AvoidedLoss	True
582.373	0.35	Lose2	0.6774	0.004	Yes	2.973	-0.004	2.0	GoodResponse	0	0.32	581.693	5	61	Target	AvoidedLoss	True
582.693	0.3	Lose2	0.6774	0.004	Yes	2.973	-0.004	2.0	GoodResponse	0	0.32	n/a	5	61	ButtonPress	AvoidedLoss	True
582.724	0.35	Lose2	0.6774	n/a	Yes	2.973	n/a	n/a	GoodResponse	0	n/a	n/a	5	61	Blank	AvoidedLoss	True
583.075	1.45	Lose2	0.6774	n/a	Yes	2.973	n/a	5.0	GoodResponse	0	0.013	582.088	5	61	Feedback	AvoidedLoss	True
584.529	2.973	Lose2	0.6774	n/a	Yes	2.973	n/a	n/a	GoodResponse	0	0.0	n/a	5	61	ISIslide	AvoidedLoss	True
587.521	0.25	Lose2	0.6825	0.001	Yes	2.879	0.021	n/a	GoodResponse	0	n/a	n/a	5	62	Cue	AvoidedLoss	True
587.772	3.9	Lose2	0.6825	0.0	Yes	2.879	0.001	n/a	GoodResponse	0	n/a	n/a	5	62	Fixation	AvoidedLoss	True
591.667	0.34	Lose2	0.6825	0.004	Yes	2.879	-0.004	2.0	GoodResponse	0	0.279	590.946	5	62	Target	AvoidedLoss	True
591.946	0.3	Lose2	0.6825	0.004	Yes	2.879	-0.004	2.0	GoodResponse	0	0.279	n/a	5	62	ButtonPress	AvoidedLoss	True
592.018	0.36	Lose2	0.6825	n/a	Yes	2.879	n/a	n/a	GoodResponse	0	n/a	n/a	5	62	Blank	AvoidedLoss	True
592.369	1.45	Lose2	0.6825	n/a	Yes	2.879	n/a	5.0	GoodResponse	0	0.035	591.404	5	62	Feedback	AvoidedLoss	True
593.824	2.879	Lose2	0.6825	n/a	Yes	2.879	n/a	n/a	GoodResponse	0	0.0	n/a	5	62	ISIslide	AvoidedLoss	True
596.716	0.25	Lose2	0.6875	0.0	Yes	2.634	0.016	n/a	GoodResponse	0	n/a	n/a	5	63	Cue	AvoidedLoss	True
596.966	4.05	Lose2	0.6875	0.0	Yes	2.634	0.0	n/a	GoodResponse	0	n/a	n/a	5	63	Fixation	AvoidedLoss	True
601.012	0.33	Lose2	0.6875	0.004	Yes	2.634	-0.004	2.0	GoodResponse	0	0.212	600.224	5	63	Target	AvoidedLoss	True
601.224	0.3	Lose2	0.6875	0.004	Yes	2.634	-0.004	2.0	GoodResponse	0	0.212	n/a	5	63	ButtonPress	AvoidedLoss	True
601.346	0.37	Lose2	0.6875	n/a	Yes	2.634	n/a	n/a	GoodResponse	0	n/a	n/a	5	63	Blank	AvoidedLoss	True
601.714	1.45	Lose2	0.6875	n/a	Yes	2.634	n/a	5.0	GoodResponse	0	0.007	600.721	5	63	Feedback	AvoidedLoss	True
603.168	2.634	Lose2	0.6875	n/a	Yes	2.634	n/a	n/a	GoodResponse	0	0.0	n/a	5	63	ISIslide	AvoidedLoss	True
605.826	0.25	Win2	0.6769	0.0	No	3.124	0.026	n/a	NoResponse	0	n/a	n/a	5	64	Cue	MissedWin	False
606.077	4.15	Win2	0.6769	0.0	No	3.124	0.001	n/a	NoResponse	0	n/a	n/a	5	64	Fixation	MissedWin	False
610.223	0.32	Win2	0.6769	0.003	No	3.124	-0.003	n/a	NoResponse	0	n/a	n/a	5	64	Target	MissedWin	False
610.557	0.38	Win2	0.6769	n/a	No	3.124	n/a	n/a	NoResponse	0	n/a	n/a	5	64	Blank	MissedWin	False
610.925	1.45	Win2	0.6769	n/a	No	3.124	n/a	5.0	NoResponse	0	0.016	609.941	5	64	Feedback	MissedWin	False
612.379	3.124	Win2	0.6769	n/a	No	3.124	n/a	n/a	NoResponse	0	0.0	n/a	5	64	ISIslide	MissedWin	False
615.522	0.25	Control	0.6818000000000001	0.0	Yes	2.778	0.022	n/a	GoodResponse	0	n/a	n/a	5	65	Cue	Neutral	True
615.773	4.0	Control	0.6818000000000001	0.0	Yes	2.778	0.001	n/a	GoodResponse	0	n/a	n/a	5	65	Fixation	Neutral	True
619.768	0.31	Control	0.6818000000000001	0.004	Yes	2.778	-0.004	2.0	GoodResponse	0	0.298	619.066	5	65	Target	Neutral	True
620.066	0.3	Control	0.6818000000000001	0.004	Yes	2.778	-0.004	2.0	GoodResponse	0	0.298	n/a	5	65	ButtonPress	Neutral	True
620.085	0.39	Control	0.6818000000000001	n/a	Yes	2.778	n/a	n/a	GoodResponse	0	n/a	n/a	5	65	Blank	Neutral	True
620.47	1.45	Control	0.6818000000000001	n/a	Yes	2.778	n/a	5.0	GoodResponse	0	0.032	619.502	5	65	Feedback	Neutral	True
621.924	2.778	Control	0.6818000000000001	n/a	Yes	2.778	n/a	n/a	GoodResponse	0	0.0	n/a	5	65	ISIslide	Neutral	True
624.716	0.25	Win2	0.6866	0.0	Yes	2.784	0.016	n/a	GoodResponse	1	n/a	n/a	6	66	Cue	Win	True
624.967	3.9	Win2	0.6866	0.0	Yes	2.784	0.001	n/a	GoodResponse	1	n/a	n/a	6	66	Fixation	Win	True
628.862	0.3	Win2	0.6866	0.004	Yes	2.784	-0.004	2.0	GoodResponse	1	0.199	628.061	6	66	Target	Win	True
629.061	0.3	Win2	0.6866	0.004	Yes	2.784	-0.004	2.0	GoodResponse	1	0.199	n/a	6	66	ButtonPress	Win	True
629.163	0.4	Win2	0.6866	n/a	Yes	2.784	n/a	n/a	GoodResponse	1	n/a	n/a	6	66	Blank	Win	True
629.564	1.45	Win2	0.6866	n/a	Yes	2.784	n/a	5.0	GoodResponse	1	0.01	628.574	6	66	Feedback	Win	True
631.018	2.784	Win2	0.6866	n/a	Yes	2.784	n/a	n/a	GoodResponse	1	0.0	n/a	6	66	ISIslide	Win	True
633.826	0.25	Control	0.6912	0.001	Yes	2.724	0.026	n/a	GoodResponse	0	n/a	n/a	6	67	Cue	Neutral	True
634.077	3.95	Control	0.6912	0.0	Yes	2.724	0.001	n/a	GoodResponse	0	n/a	n/a	6	67	Fixation	Neutral	True
638.022	0.29	Control	0.6912	0.004	Yes	2.724	-0.004	2.0	GoodResponse	0	0.27	637.292	6	67	Target	Neutral	True
638.292	0.3	Control	0.6912	0.004	Yes	2.724	-0.004	2.0	GoodResponse	0	0.27	n/a	6	67	ButtonPress	Neutral	True
638.323	0.41	Control	0.6912	n/a	Yes	2.724	n/a	n/a	GoodResponse	0	n/a	n/a	6	67	Blank	Neutral	True
638.724	1.45	Control	0.6912	n/a	Yes	2.724	n/a	5.0	GoodResponse	0	0.021	637.745	6	67	Feedback	Neutral	True
640.179	2.724	Control	0.6912	n/a	Yes	2.724	n/a	n/a	GoodResponse	0	0.0	n/a	6	67	ISIslide	Neutral	True
642.92	0.25	Win2	0.6957	0.0	Yes	3.08	0.02	n/a	GoodResponse	1	n/a	n/a	7	68	Cue	Win	True
643.171	4.0	Win2	0.6957	0.0	Yes	3.08	0.001	n/a	GoodResponse	1	n/a	n/a	7	68	Fixation	Win	True
647.166	0.28	Win2	0.6957	0.004	Yes	3.08	-0.004	2.0	GoodResponse	1	0.234	646.4	7	68	Target	Win	True
647.4	0.3	Win2	0.6957	0.004	Yes	3.08	-0.004	2.0	GoodResponse	1	0.234	n/a	7	68	ButtonPress	Win	True
647.45	0.42	Win2	0.6957	n/a	Yes	3.08	n/a	n/a	GoodResponse	1	n/a	n/a	7	68	Blank	Win	True
647.868	1.45	Win2	0.6957	n/a	Yes	3.08	n/a	5.0	GoodResponse	1	0.048	646.916	7	68	Feedback	Win	True
649.323	3.08	Win2	0.6957	n/a	Yes	3.08	n/a	n/a	GoodResponse	1	0.0	n/a	7	68	ISIslide	Win	True
652.415	0.25	Win2	0.7	0.0	Yes	3.235	0.015	n/a	GoodResponse	1	n/a	n/a	8	69	Cue	Win	True
652.666	3.95	Win2	0.7	0.0	Yes	3.235	0.001	n/a	GoodResponse	1	n/a	n/a	8	69	Fixation	Win	True
656.611	0.27	Win2	0.7	0.004	Yes	3.235	-0.004	2.0	GoodResponse	1	0.237	655.848	8	69	Target	Win	True
656.848	0.3	Win2	0.7	0.004	Yes	3.235	-0.004	2.0	GoodResponse	1	0.237	n/a	8	69	ButtonPress	Win	True
656.895	0.43	Win2	0.7	n/a	Yes	3.235	n/a	n/a	GoodResponse	1	n/a	n/a	8	69	Blank	Win	True
657.313	1.45	Win2	0.7	n/a	Yes	3.235	n/a	5.0	GoodResponse	1	0.018	656.331	8	69	Feedback	Win	True
658.768	3.235	Win2	0.7	n/a	Yes	3.235	n/a	n/a	GoodResponse	1	0.0	n/a	8	69	ISIslide	Win	True
662.027	0.25	Lose2	0.7042	0.0	Yes	3.023	0.027	n/a	GoodResponse	0	n/a	n/a	8	70	Cue	AvoidedLoss	True
662.278	4.05	Lose2	0.7042	0.0	Yes	3.023	0.001	n/a	GoodResponse	0	n/a	n/a	8	70	Fixation	AvoidedLoss	True
666.323	0.26	Lose2	0.7042	0.004	Yes	3.023	-0.004	2.0	GoodResponse	0	0.205	665.528	8	70	Target	AvoidedLoss	True
666.528	0.3	Lose2	0.7042	0.004	Yes	3.023	-0.004	2.0	GoodResponse	0	0.205	n/a	8	70	ButtonPress	AvoidedLoss	True
666.591	0.44	Lose2	0.7042	n/a	Yes	3.023	n/a	n/a	GoodResponse	0	n/a	n/a	8	70	Blank	AvoidedLoss	True
667.026	1.45	Lose2	0.7042	n/a	Yes	3.023	n/a	5.0	GoodResponse	0	0.011	666.037	8	70	Feedback	AvoidedLoss	True
668.48	3.023	Lose2	0.7042	n/a	Yes	3.023	n/a	n/a	GoodResponse	0	0.0	n/a	8	70	ISIslide	AvoidedLoss	True
671.522	0.25	Win2	0.6944	0.0	No	2.728	0.022	n/a	NoResponse	0	n/a	n/a	8	71	Cue	MissedWin	True
671.773	4.05	Win2	0.6944	0.0	No	2.728	0.001	n/a	NoResponse	0	n/a	n/a	8	71	Fixation	MissedWin	True
675.819	0.25	Win2	0.6944	0.003	No	2.728	-0.003	2.0	NoResponse	0	0.261	675.08	8	71	Target	MissedWin	True
676.069	0.45	Win2	0.6944	n/a	No	2.728	n/a	n/a	NoResponse	0	n/a	n/a	8	71	Blank	MissedWin	True
676.08	0.3	Win2	0.6944	0.003	No	2.728	-0.003	2.0	NoResponse	0	0.261	n/a	8	71	ButtonPress	MissedWin	True
676.521	1.45	Win2	0.6944	n/a	No	2.728	n/a	5.0	NoResponse	0	0.029	675.55	8	71	Feedback	MissedWin	True
677.975	2.728	Win2	0.6944	n/a	No	2.728	n/a	n/a	NoResponse	0	0.0	n/a	8	71	ISIslide	MissedWin	True
680.716	0.25	Win2	0.6986	0.001	Yes	2.784	0.016	n/a	GoodResponse	1	n/a	n/a	9	72	Cue	Win	True
680.967	4.1	Win2	0.6986	0.0	Yes	2.784	0.001	n/a	GoodResponse	1	n/a	n/a	9	72	Fixation	Win	True
685.063	0.24	Win2	0.6986	0.003	Yes	2.784	-0.003	2.0	GoodResponse	1	0.194	684.257	9	72	Target	Win	True
685.257	0.3	Win2	0.6986	0.003	Yes	2.784	-0.003	2.0	GoodResponse	1	0.194	n/a	9	72	ButtonPress	Win	True
685.314	0.46	Win2	0.6986	n/a	Yes	2.784	n/a	n/a	GoodResponse	1	n/a	n/a	9	72	Blank	Win	True
685.765	1.45	Win2	0.6986	n/a	Yes	2.784	n/a	5.0	GoodResponse	1	0.006	684.771	9	72	Feedback	Win	True
687.219	2.784	Win2	0.6986	n/a	Yes	2.784	n/a	n/a	GoodResponse	1	0.0	n/a	9	72	ISIslide	Win	True
690.028	0.25	Win2	0.6892	0.0	No	2.672	0.028	n/a	NoResponse	0	n/a	n/a	9	73	Cue	MissedWin	True
690.278	4.0	Win2	0.6892	0.0	No	2.672	0.0	n/a	NoResponse	0	n/a	n/a	9	73	Fixation	MissedWin	True
694.274	0.23	Win2	0.6892	0.004	No	2.672	-0.004	2.0	NoResponse	0	0.242	693.516	9	73	Target	MissedWin	True
694.508	0.47	Win2	0.6892	n/a	No	2.672	n/a	n/a	NoResponse	0	n/a	n/a	9	73	Blank	MissedWin	True
694.516	0.3	Win2	0.6892	0.004	No	2.672	-0.004	2.0	NoResponse	0	0.242	n/a	9	73	ButtonPress	MissedWin	True
694.976	1.45	Win2	0.6892	n/a	No	2.672	n/a	5.0	NoResponse	0	0.013	693.989	9	73	Feedback	MissedWin	True
696.43	2.672	Win2	0.6892	n/a	No	2.672	n/a	n/a	NoResponse	0	0.0	n/a	9	73	ISIslide	MissedWin	True
699.121	0.25	Lose2	0.68	0.001	No	2.629	0.021	n/a	NoResponse	-1	n/a	n/a	8	74	Cue	Loss	True
699.372	4.05	Lose2	0.68	0.0	No	2.629	0.001	n/a	NoResponse	-1	n/a	n/a	8	74	Fixation	Loss	True
703.418	0.22	Lose2	0.68	0.003	No	2.629	-0.003	2.0	NoResponse	-1	0.235	702.653	8	74	Target	Loss	True
703.652	0.48	Lose2	0.68	n/a	No	2.629	n/a	n/a	NoResponse	-1	n/a	n/a	8	74	Blank	Loss	True
703.653	0.3	Lose2	0.68	0.003	No	2.629	-0.003	2.0	NoResponse	-1	0.235	n/a	8	74	ButtonPress	Loss	True
704.12	1.45	Lose2	0.68	n/a	No	2.629	n/a	5.0	NoResponse	-1	0.039	703.159	8	74	Feedback	Loss	True
705.574	2.629	Lose2	0.68	n/a	No	2.629	n/a	n/a	NoResponse	-1	0.0	n/a	8	74	ISIslide	Loss	True
708.215	0.25	Lose2	0.6842	0.0	Yes	2.935	0.015	n/a	GoodResponse	0	n/a	n/a	8	75	Cue	AvoidedLoss	True
708.466	3.95	Lose2	0.6842	0.0	Yes	2.935	0.001	n/a	GoodResponse	0	n/a	n/a	8	75	Fixation	AvoidedLoss	True
712.411	0.21	Lose2	0.6842	0.004	Yes	2.935	-0.004	2.0	GoodResponse	0	0.19	711.601	8	75	Target	AvoidedLoss	True
712.601	0.3	Lose2	0.6842	0.004	Yes	2.935	-0.004	2.0	GoodResponse	0	0.19	n/a	8	75	ButtonPress	AvoidedLoss	True
712.628	0.49	Lose2	0.6842	n/a	Yes	2.935	n/a	n/a	GoodResponse	0	n/a	n/a	8	75	Blank	AvoidedLoss	True
713.113	1.45	Lose2	0.6842	n/a	Yes	2.935	n/a	5.0	GoodResponse	0	0.021	712.134	8	75	Feedback	AvoidedLoss	True
714.568	2.935	Lose2	0.6842	n/a	Yes	2.935	n/a	n/a	GoodResponse	0	0.0	n/a	8	75	ISIslide	AvoidedLoss	True
717.526	0.25	Control	0.6883	0.001	Yes	3.224	0.026	n/a	GoodResponse	0	n/a	n/a	8	76	Cue	Neutral	True
717.777	4.05	Control	0.6883	0.0	Yes	3.224	0.001	n/a	GoodResponse	0	n/a	n/a	8	76	Fixation	Neutral	True
721.823	0.2	Control	0.6883	0.003	Yes	3.224	-0.003	2.0	GoodResponse	0	0.157	720.98	8	76	Target	Neutral	True
721.98	0.3	Control	0.6883	0.003	Yes	3.224	-0.003	2.0	GoodResponse	0	0.157	n/a	8	76	ButtonPress	Neutral	True
722.023	0.5	Control	0.6883	n/a	Yes	3.224	n/a	n/a	GoodResponse	0	n/a	n/a	8	76	Blank	Neutral	True
722.525	1.45	Control	0.6883	n/a	Yes	3.224	n/a	5.0	GoodResponse	0	0.024	721.549	8	76	Feedback	Neutral	True
723.979	3.224	Control	0.6883	n/a	Yes	3.224	n/a	n/a	GoodResponse	0	0.0	n/a	8	76	ISIslide	Neutral	True
727.222	0.25	Lose2	0.6795	0.0	No	2.578	0.022	n/a	LatePress	-1	n/a	n/a	7	77	Cue	Loss	True
727.473	3.95	Lose2	0.6795	0.0	No	2.578	0.001	n/a	LatePress	-1	n/a	n/a	7	77	Fixation	Loss	True
731.418	0.19	Lose2	0.6795	0.004	No	2.578	-0.004	2.0	LatePress	-1	0.191	730.609	7	77	Target	Loss	True
731.609	0.3	Lose2	0.6795	0.004	No	2.578	-0.004	2.0	LatePress	-1	0.191	n/a	7	77	ButtonPress	Loss	True
731.618	0.51	Lose2	0.6795	n/a	No	2.578	n/a	n/a	LatePress	-1	n/a	n/a	7	77	Blank	Loss	True
732.12	1.45	Lose2	0.6795	n/a	No	2.578	n/a	5.0	LatePress	-1	0.039	731.159	7	77	Feedback	Loss	True
733.574	2.578	Lose2	0.6795	n/a	No	2.578	n/a	n/a	LatePress	-1	0.0	n/a	7	77	ISIslide	Loss	True
