onset	duration	cue_type	current_mean_accuracy	duration_error	is_hit	isi_adjusted	onset_delay	response	response_type	reward	rt	rt_time	total_reward	trial_number	trial_phase	trial_type	one_press
11.107	0.25	Control	1.0	0.0	Yes	2.943	0.007	n/a	GoodResponse	0	n/a	n/a	0	0	Cue	Neutral	True
11.357	3.85	Control	1.0	0.0	Yes	2.943	0.0	n/a	GoodResponse	0	n/a	n/a	0	0	Fixation	Neutral	True
15.205	0.4	Control	1.0	0.002	Yes	2.943	-0.002	1.0	GoodResponse	0	0.241	14.446	0	0	Target	Neutral	True
15.446	0.3	Control	1.0	0.002	Yes	2.943	-0.002	1.0	GoodResponse	0	0.241	n/a	0	0	ButtonPress	Neutral	True
15.605	0.3	Control	1.0	n/a	Yes	2.943	n/a	n/a	GoodResponse	0	n/a	n/a	0	0	Blank	Neutral	True
15.905	1.45	Control	1.0	n/a	Yes	2.943	n/a	5.0	GoodResponse	0	0.022	14.927	0	0	Feedback	Neutral	True
17.355	2.943	Control	1.0	n/a	Yes	2.943	n/a	n/a	GoodResponse	0	0.0	n/a	0	0	ISIslide	Neutral	True
20.32	0.25	Lose2	1.0	0.0	Yes	2.78	0.02	n/a	GoodResponse	0	n/a	n/a	0	1	Cue	AvoidedLoss	True
20.57	4.0	Lose2	1.0	0.0	Yes	2.78	0.0	n/a	GoodResponse	0	n/a	n/a	0	1	Fixation	AvoidedLoss	True
24.569	0.39	Lose2	1.0	0.001	Yes	2.78	-0.001	1.0	GoodResponse	0	0.219	23.788	0	1	Target	AvoidedLoss	True
24.788	0.3	Lose2	1.0	0.001	Yes	2.78	-0.001	1.0	GoodResponse	0	0.219	n/a	0	1	ButtonPress	AvoidedLoss	True
24.969	0.31	Lose2	1.0	n/a	Yes	2.78	n/a	n/a	GoodResponse	0	n/a	n/a	0	1	Blank	AvoidedLoss	True
25.268	1.45	Lose2	1.0	n/a	Yes	2.78	n/a	5.0	GoodResponse	0	0.025	24.293	0	1	Feedback	AvoidedLoss	True
26.718	2.78	Lose2	1.0	n/a	Yes	2.78	n/a	n/a	GoodResponse	0	0.0	n/a	0	1	ISIslide	AvoidedLoss	True
29.517	0.25	Control	1.0	0.0	Yes	2.583	0.017	n/a	GoodResponse	0	n/a	n/a	0	2	Cue	Neutral	True
29.767	4.1	Control	1.0	0.0	Yes	2.583	0.0	n/a	GoodResponse	0	n/a	n/a	0	2	Fixation	Neutral	True
33.865	0.38	Control	1.0	0.002	Yes	2.583	-0.002	1.0	GoodResponse	0	0.215	33.08	0	2	Target	Neutral	True
34.08	0.3	Control	1.0	0.002	Yes	2.583	-0.002	1.0	GoodResponse	0	0.215	n/a	0	2	ButtonPress	Neutral	True
34.249	0.32	Control	1.0	n/a	Yes	2.583	n/a	n/a	GoodResponse	0	n/a	n/a	0	2	Blank	Neutral	True
34.565	1.45	Control	1.0	n/a	Yes	2.583	n/a	5.0	GoodResponse	0	0.045	33.61	0	2	Feedback	Neutral	True
36.015	2.583	Control	1.0	n/a	Yes	2.583	n/a	n/a	GoodResponse	0	0.0	n/a	0	2	ISIslide	Neutral	True
38.614	0.25	Win2	1.0	0.0	Yes	2.836	0.014	n/a	GoodResponse	1	n/a	n/a	1	3	Cue	Win	True
38.864	3.95	Win2	1.0	0.0	Yes	2.836	0.0	n/a	GoodResponse	1	n/a	n/a	1	3	Fixation	Win	True
42.812	0.37	Win2	1.0	0.002	Yes	2.836	-0.002	1.0	GoodResponse	1	0.225	42.037	1	3	Target	Win	True
43.037	0.3	Win2	1.0	0.002	Yes	2.836	-0.002	1.0	GoodResponse	1	0.225	n/a	1	3	ButtonPress	Win	True
43.196	0.33	Win2	1.0	n/a	Yes	2.836	n/a	n/a	GoodResponse	1	n/a	n/a	1	3	Blank	Win	True
43.512	1.45	Win2	1.0	n/a	Yes	2.836	n/a	5.0	GoodResponse	1	0.024	42.536	1	3	Feedback	Win	True
44.962	2.836	Win2	1.0	n/a	Yes	2.836	n/a	n/a	GoodResponse	1	0.0	n/a	1	3	ISIslide	Win	True
47.827	0.25	Win2	1.0	0.0	Yes	3.273	0.027	n/a	GoodResponse	1	n/a	n/a	2	4	Cue	Win	True
48.077	4.0	Win2	1.0	0.0	Yes	3.273	0.0	n/a	GoodResponse	1	n/a	n/a	2	4	Fixation	Win	True
52.076	0.36	Win2	1.0	0.001	Yes	3.273	-0.001	1.0	GoodResponse	1	0.225	51.301	2	4	Target	Win	True
52.301	0.3	Win2	1.0	0.001	Yes	3.273	-0.001	1.0	GoodResponse	1	0.225	n/a	2	4	ButtonPress	Win	True
52.442	0.34	Win2	1.0	n/a	Yes	3.273	n/a	n/a	GoodResponse	1	n/a	n/a	2	4	Blank	Win	True
52.776	1.45	Win2	1.0	n/a	Yes	3.273	n/a	5.0	GoodResponse	1	0.028	51.804	2	4	Feedback	Win	True
54.225	3.273	Win2	1.0	n/a	Yes	3.273	n/a	n/a	GoodResponse	1	0.0	n/a	2	4	ISIslide	Win	True
57.524	0.25	Win2	1.0	0.0	Yes	2.776	0.024	n/a	GoodResponse	1	n/a	n/a	3	5	Cue	Win	True
57.774	4.0	Win2	1.0	0.0	Yes	2.776	0.0	n/a	GoodResponse	1	n/a	n/a	3	5	Fixation	Win	True
61.772	0.35	Win2	1.0	0.002	Yes	2.776	-0.002	1.0	GoodResponse	1	0.22	60.992	3	5	Target	Win	True
61.992	0.3	Win2	1.0	0.002	Yes	2.776	-0.002	1.0	GoodResponse	1	0.22	n/a	3	5	ButtonPress	Win	True
62.122	0.35	Win2	1.0	n/a	Yes	2.776	n/a	n/a	GoodResponse	1	n/a	n/a	3	5	Blank	Win	True
62.472	1.45	Win2	1.0	n/a	Yes	2.776	n/a	5.0	GoodResponse	1	0.04	61.512	3	5	Feedback	Win	True
63.922	2.776	Win2	1.0	n/a	Yes	2.776	n/a	n/a	GoodResponse	1	0.0	n/a	3	5	ISIslide	Win	True
66.721	0.25	Lose2	1.0	0.0	Yes	2.729	0.021	n/a	GoodResponse	0	n/a	n/a	3	6	Cue	AvoidedLoss	True
66.971	3.95	Lose2	1.0	0.0	Yes	2.729	0.0	n/a	GoodResponse	0	n/a	n/a	3	6	Fixation	AvoidedLoss	True
70.919	0.34	Lose2	1.0	0.002	Yes	2.729	-0.002	1.0	GoodResponse	0	0.239	70.158	3	6	Target	AvoidedLoss	True
71.158	0.3	Lose2	1.0	0.002	Yes	2.729	-0.002	1.0	GoodResponse	0	0.239	n/a	3	6	ButtonPress	AvoidedLoss	True
71.269	0.36	Lose2	1.0	n/a	Yes	2.729	n/a	n/a	GoodResponse	0	n/a	n/a	3	6	Blank	AvoidedLoss	True
71.619	1.45	Lose2	1.0	n/a	Yes	2.729	n/a	5.0	GoodResponse	0	0.015	70.634	3	6	Feedback	AvoidedLoss	True
73.068	2.729	Lose2	1.0	n/a	Yes	2.729	n/a	n/a	GoodResponse	0	0.0	n/a	3	6	ISIslide	AvoidedLoss	True
75.817	0.25	Lose2	1.0	0.001	Yes	4.033	0.017	n/a	GoodResponse	0	n/a	n/a	3	7	Cue	AvoidedLoss	True
76.067	4.05	Lose2	1.0	0.0	Yes	4.033	0.0	n/a	GoodResponse	0	n/a	n/a	3	7	Fixation	AvoidedLoss	True
80.116	0.33	Lose2	1.0	0.001	Yes	4.033	-0.001	1.0	GoodResponse	0	0.22	79.336	3	7	Target	AvoidedLoss	True
80.336	0.3	Lose2	1.0	0.001	Yes	4.033	-0.001	1.0	GoodResponse	0	0.22	n/a	3	7	ButtonPress	AvoidedLoss	True
80.449	0.37	Lose2	1.0	n/a	Yes	4.033	n/a	n/a	GoodResponse	0	n/a	n/a	3	7	Blank	AvoidedLoss	True
80.816	1.45	Lose2	1.0	n/a	Yes	4.033	n/a	5.0	GoodResponse	0	0.037	79.853	3	7	Feedback	AvoidedLoss	True
82.265	4.033	Lose2	1.0	n/a	Yes	4.033	n/a	n/a	GoodResponse	0	0.0	n/a	3	7	ISIslide	AvoidedLoss	True
86.314	0.25	Lose2	1.0	0.0	Yes	3.036	0.014	n/a	GoodResponse	0	n/a	n/a	3	8	Cue	AvoidedLoss	True
86.564	3.95	Lose2	1.0	0.0	Yes	3.036	0.0	n/a	GoodResponse	0	n/a	n/a	3	8	Fixation	AvoidedLoss	True
90.512	0.32	Lose2	1.0	0.002	Yes	3.036	-0.002	1.0	GoodResponse	0	0.242	89.754	3	8	Target	AvoidedLoss	True
90.754	0.3	Lose2	1.0	0.002	Yes	3.036	-0.002	1.0	GoodResponse	0	0.242	n/a	3	8	ButtonPress	AvoidedLoss	True
90.846	0.38	Lose2	1.0	n/a	Yes	3.036	n/a	n/a	GoodResponse	0	n/a	n/a	3	8	Blank	AvoidedLoss	True
91.212	1.45	Lose2	1.0	n/a	Yes	3.036	n/a	5.0	GoodResponse	0	0.031	90.243	3	8	Feedback	AvoidedLoss	True
92.662	3.036	Lose2	1.0	n/a	Yes	3.036	n/a	n/a	GoodResponse	0	0.0	n/a	3	8	ISIslide	AvoidedLoss	True
95.727	0.25	Lose2	1.0	0.0	Yes	3.123	0.027	n/a	GoodResponse	0	n/a	n/a	3	9	Cue	AvoidedLoss	True
95.977	3.95	Lose2	1.0	0.0	Yes	3.123	0.0	n/a	GoodResponse	0	n/a	n/a	3	9	Fixation	AvoidedLoss	True
99.926	0.31	Lose2	1.0	0.001	Yes	3.123	-0.001	1.0	GoodResponse	0	0.228	99.154	3	9	Target	AvoidedLoss	True
100.154	0.3	Lose2	1.0	0.001	Yes	3.123	-0.001	1.0	GoodResponse	0	0.228	n/a	3	9	ButtonPress	AvoidedLoss	True
100.242	0.39	Lose2	1.0	n/a	Yes	3.123	n/a	n/a	GoodResponse	0	n/a	n/a	3	9	Blank	AvoidedLoss	True
100.626	1.45	Lose2	1.0	n/a	Yes	3.123	n/a	5.0	GoodResponse	0	0.032	99.658	3	9	Feedback	AvoidedLoss	True
102.075	3.123	Lose2	1.0	n/a	Yes	3.123	n/a	n/a	GoodResponse	0	0.0	n/a	3	9	ISIslide	AvoidedLoss	True
105.224	0.25	Control	1.0	0.0	Yes	3.276	0.024	n/a	GoodResponse	0	n/a	n/a	3	10	Cue	Neutral	True
105.474	4.0	Control	1.0	0.0	Yes	3.276	0.0	n/a	GoodResponse	0	n/a	n/a	3	10	Fixation	Neutral	True
109.472	0.3	Control	1.0	0.002	Yes	3.276	-0.002	1.0	GoodResponse	0	0.219	108.691	3	10	Target	Neutral	True
109.691	0.3	Control	1.0	0.002	Yes	3.276	-0.002	1.0	GoodResponse	0	0.219	n/a	3	10	ButtonPress	Neutral	True
109.772	0.4	Control	1.0	n/a	Yes	3.276	n/a	n/a	GoodResponse	0	n/a	n/a	3	10	Blank	Neutral	True
110.172	1.45	Control	1.0	n/a	Yes	3.276	n/a	5.0	GoodResponse	0	0.047	109.219	3	10	Feedback	Neutral	True
111.622	3.276	Control	1.0	n/a	Yes	3.276	n/a	n/a	GoodResponse	0	0.0	n/a	3	10	ISIslide	Neutral	True
114.921	0.25	Lose2	1.0	0.0	Yes	2.729	0.021	n/a	GoodResponse	0	n/a	n/a	3	11	Cue	AvoidedLoss	True
115.17	4.05	Lose2	1.0	0.001	Yes	2.729	-0.001	n/a	GoodResponse	0	n/a	n/a	3	11	Fixation	AvoidedLoss	True
119.219	0.29	Lose2	1.0	0.002	Yes	2.729	-0.002	1.0	GoodResponse	0	0.222	118.441	3	11	Target	AvoidedLoss	True
119.441	0.3	Lose2	1.0	0.002	Yes	2.729	-0.002	1.0	GoodResponse	0	0.222	n/a	3	11	ButtonPress	AvoidedLoss	True
119.519	0.41	Lose2	1.0	n/a	Yes	2.729	n/a	n/a	GoodResponse	0	n/a	n/a	3	11	Blank	AvoidedLoss	True
119.919	1.45	Lose2	1.0	n/a	Yes	2.729	n/a	5.0	GoodResponse	0	0.008	118.927	3	11	Feedback	AvoidedLoss	True
121.368	2.729	Lose2	1.0	n/a	Yes	2.729	n/a	n/a	GoodResponse	0	0.0	n/a	3	11	ISIslide	AvoidedLoss	True
124.117	0.25	Control	1.0	0.0	Yes	2.983	0.017	n/a	GoodResponse	0	n/a	n/a	3	12	Cue	Neutral	True
124.367	3.9	Control	1.0	0.0	Yes	2.983	0.0	n/a	GoodResponse	0	n/a	n/a	3	12	Fixation	Neutral	True
128.266	0.28	Control	1.0	0.001	Yes	2.983	-0.001	1.0	GoodResponse	0	0.212	127.478	3	12	Target	Neutral	True
128.478	0.3	Control	1.0	0.001	Yes	2.983	-0.001	1.0	GoodResponse	0	0.212	n/a	3	12	ButtonPress	Neutral	True
128.549	0.42	Control	1.0	n/a	Yes	2.983	n/a	n/a	GoodResponse	0	n/a	n/a	3	12	Blank	Neutral	True
128.966	1.45	Control	1.0	n/a	Yes	2.983	n/a	5.0	GoodResponse	0	0.033	127.999	3	12	Feedback	Neutral	True
130.415	2.983	Control	1.0	n/a	Yes	2.983	n/a	n/a	GoodResponse	0	0.0	n/a	3	12	ISIslide	Neutral	True
133.414	0.25	Control	1.0	0.0	Yes	2.786	0.014	n/a	GoodResponse	0	n/a	n/a	3	13	Cue	Neutral	True
133.664	4.0	Control	1.0	0.0	Yes	2.786	0.0	n/a	GoodResponse	0	n/a	n/a	3	13	Fixation	Neutral	True
137.663	0.27	Control	1.0	0.001	Yes	2.786	-0.001	1.0	GoodResponse	0	0.227	136.89	3	13	Target	Neutral	True
137.89	0.3	Control	1.0	0.001	Yes	2.786	-0.001	1.0	GoodResponse	0	0.227	n/a	3	13	ButtonPress	Neutral	True
137.946	0.43	Control	1.0	n/a	Yes	2.786	n/a	n/a	GoodResponse	0	n/a	n/a	3	13	Blank	Neutral	True
138.362	1.45	Control	1.0	n/a	Yes	2.786	n/a	5.0	GoodResponse	0	0.007	137.369	3	13	Feedback	Neutral	True
139.812	2.786	Control	1.0	n/a	Yes	2.786	n/a	n/a	GoodResponse	0	0.0	n/a	3	13	ISIslide	Neutral	True
142.628	0.25	Win2	1.0	0.0	Yes	2.672	0.028	n/a	GoodResponse	1	n/a	n/a	4	14	Cue	Win	True
142.877	4.1	Win2	1.0	0.001	Yes	2.672	-0.001	n/a	GoodResponse	1	n/a	n/a	4	14	Fixation	Win	True
146.976	0.26	Win2	1.0	0.002	Yes	2.672	-0.002	1.0	GoodResponse	1	0.204	146.18	4	14	Target	Win	True
147.18	0.3	Win2	1.0	0.002	Yes	2.672	-0.002	1.0	GoodResponse	1	0.204	n/a	4	14	ButtonPress	Win	True
147.243	0.44	Win2	1.0	n/a	Yes	2.672	n/a	n/a	GoodResponse	1	n/a	n/a	4	14	Blank	Win	True
147.676	1.45	Win2	1.0	n/a	Yes	2.672	n/a	5.0	GoodResponse	1	0.007	146.683	4	14	Feedback	Win	True
149.125	2.672	Win2	1.0	n/a	Yes	2.672	n/a	n/a	GoodResponse	1	0.0	n/a	4	14	ISIslide	Win	True
151.824	0.25	Control	0.9375	0.0	No	2.976	0.024	n/a	NoResponse	0	n/a	n/a	4	15	Cue	Neutral	True
152.074	4.0	Control	0.9375	0.0	No	2.976	0.0	n/a	NoResponse	0	n/a	n/a	4	15	Fixation	Neutral	True
156.073	0.25	Control	0.9375	0.001	No	2.976	-0.001	1.0	NoResponse	0	0.258	155.331	4	15	Target	Neutral	True
156.323	0.45	Control	0.9375	n/a	No	2.976	n/a	n/a	NoResponse	0	n/a	n/a	4	15	Blank	Neutral	True
156.331	0.3	Control	0.9375	0.001	No	2.976	-0.001	1.0	NoResponse	0	0.258	n/a	4	15	ButtonPress	Neutral	True
156.773	1.45	Control	0.9375	n/a	No	2.976	n/a	5.0	NoResponse	0	0.031	155.804	4	15	Feedback	Neutral	True
158.222	2.976	Control	0.9375	n/a	No	2.976	n/a	n/a	NoResponse	0	0.0	n/a	4	15	ISIslide	Neutral	True
161.221	0.25	Win2	0.9412	0.0	Yes	2.879	0.021	n/a	GoodResponse	1	n/a	n/a	5	16	Cue	Win	True
161.471	4.0	Win2	0.9412	0.0	Yes	2.879	0.0	n/a	GoodResponse	1	n/a	n/a	5	16	Fixation	Win	True
165.47	0.24	Win2	0.9412	0.001	Yes	2.879	-0.001	1.0	GoodResponse	1	0.195	164.665	5	16	Target	Win	True
165.665	0.3	Win2	0.9412	0.001	Yes	2.879	-0.001	1.0	GoodResponse	1	0.195	n/a	5	16	ButtonPress	Win	True
165.719	0.46	Win2	0.9412	n/a	Yes	2.879	n/a	n/a	GoodResponse	1	n/a	n/a	5	16	Blank	Win	True
166.169	1.45	Win2	0.9412	n/a	Yes	2.879	n/a	5.0	GoodResponse	1	0.001	165.17	5	16	Feedback	Win	True
167.619	2.879	Win2	0.9412	n/a	Yes	2.879	n/a	n/a	GoodResponse	1	0.0	n/a	5	16	ISIslide	Win	True
170.518	0.25	Lose2	0.9444	0.0	Yes	2.732	0.018	n/a	GoodResponse	0	n/a	n/a	5	17	Cue	AvoidedLoss	True
170.768	3.95	Lose2	0.9444	0.0	Yes	2.732	0.0	n/a	GoodResponse	0	n/a	n/a	5	17	Fixation	AvoidedLoss	True
174.716	0.23	Lose2	0.9444	0.002	Yes	2.732	-0.002	1.0	GoodResponse	0	0.218	173.934	5	17	Target	AvoidedLoss	True
174.934	0.3	Lose2	0.9444	0.002	Yes	2.732	-0.002	1.0	GoodResponse	0	0.218	n/a	5	17	ButtonPress	AvoidedLoss	True
174.95	0.47	Lose2	0.9444	n/a	Yes	2.732	n/a	n/a	GoodResponse	0	n/a	n/a	5	17	Blank	AvoidedLoss	True
175.416	1.45	Lose2	0.9444	n/a	Yes	2.732	n/a	5.0	GoodResponse	0	0.022	174.438	5	17	Feedback	AvoidedLoss	True
176.866	2.732	Lose2	0.9444	n/a	Yes	2.732	n/a	n/a	GoodResponse	0	0.0	n/a	5	17	ISIslide	AvoidedLoss	True
179.615	0.25	Lose2	0.9473999999999999	0.0	Yes	2.735	0.015	n/a	GoodResponse	0	n/a	n/a	5	18	Cue	AvoidedLoss	True
179.865	4.05	Lose2	0.9473999999999999	0.0	Yes	2.735	0.0	n/a	GoodResponse	0	n/a	n/a	5	18	Fixation	AvoidedLoss	True
183.913	0.22	Lose2	0.9473999999999999	0.002	Yes	2.735	-0.002	1.0	GoodResponse	0	0.215	183.128	5	18	Target	AvoidedLoss	True
184.128	0.3	Lose2	0.9473999999999999	0.002	Yes	2.735	-0.002	1.0	GoodResponse	0	0.215	n/a	5	18	ButtonPress	AvoidedLoss	True
184.146	0.48	Lose2	0.9473999999999999	n/a	Yes	2.735	n/a	n/a	GoodResponse	0	n/a	n/a	5	18	Blank	AvoidedLoss	True
184.613	1.45	Lose2	0.9473999999999999	n/a	Yes	2.735	n/a	5.0	GoodResponse	0	0.045	183.658	5	18	Feedback	AvoidedLoss	True
186.062	2.735	Lose2	0.9473999999999999	n/a	Yes	2.735	n/a	n/a	GoodResponse	0	0.0	n/a	5	18	ISIslide	AvoidedLoss	True
188.828	0.25	Control	0.9	0.0	No	2.922	0.028	n/a	NoResponse	0	n/a	n/a	5	19	Cue	Neutral	True
189.078	3.95	Control	0.9	0.0	No	2.922	0.0	n/a	NoResponse	0	n/a	n/a	5	19	Fixation	Neutral	True
193.027	0.21	Control	0.9	0.001	No	2.922	-0.001	1.0	NoResponse	0	0.224	192.251	5	19	Target	Neutral	True
193.243	0.49	Control	0.9	n/a	No	2.922	n/a	n/a	NoResponse	0	n/a	n/a	5	19	Blank	Neutral	True
193.251	0.3	Control	0.9	0.001	No	2.922	-0.001	1.0	NoResponse	0	0.224	n/a	5	19	ButtonPress	Neutral	True
193.726	1.45	Control	0.9	n/a	No	2.922	n/a	5.0	NoResponse	0	0.007	192.733	5	19	Feedback	Neutral	True
195.176	2.922	Control	0.9	n/a	No	2.922	n/a	n/a	NoResponse	0	0.0	n/a	5	19	ISIslide	Neutral	True
198.125	0.25	Control	0.8571	0.0	No	2.625	0.025	n/a	NoResponse	0	n/a	n/a	5	20	Cue	Neutral	True
198.375	4.05	Control	0.8571	0.0	No	2.625	0.0	n/a	NoResponse	0	n/a	n/a	5	20	Fixation	Neutral	True
202.423	0.2	Control	0.8571	0.002	No	2.625	-0.002	1.0	NoResponse	0	0.22	201.643	5	20	Target	Neutral	True
202.623	0.5	Control	0.8571	n/a	No	2.625	n/a	n/a	NoResponse	0	n/a	n/a	5	20	Blank	Neutral	True
202.643	0.3	Control	0.8571	0.002	No	2.625	-0.002	1.0	NoResponse	0	0.22	n/a	5	20	ButtonPress	Neutral	True
203.123	1.45	Control	0.8571	n/a	No	2.625	n/a	5.0	NoResponse	0	0.022	202.145	5	20	Feedback	Neutral	True
204.573	2.625	Control	0.8571	n/a	No	2.625	n/a	n/a	NoResponse	0	0.0	n/a	5	20	ISIslide	Neutral	True
207.222	0.25	Control	0.8181999999999999	0.0	No	2.778	0.022	n/a	NoResponse	0	n/a	n/a	5	21	Cue	Neutral	False
207.472	4.1	Control	0.8181999999999999	0.0	No	2.778	0.0	1.0	NoResponse	0	0.015	206.487	5	21	Fixation	Neutral	False
207.487	0.3	Control	0.8181999999999999	0.0	No	2.778	0.0	1.0	NoResponse	0	0.015	n/a	5	21	ButtonPress	Neutral	False
211.57	0.19	Control	0.8181999999999999	0.002	No	2.778	-0.002	1.0	NoResponse	0	0.328	210.898	5	21	Target	Neutral	False
211.77	0.51	Control	0.8181999999999999	n/a	No	2.778	n/a	n/a	NoResponse	0	n/a	n/a	5	21	Blank	Neutral	False
211.898	0.3	Control	0.8181999999999999	0.002	No	2.778	-0.002	1.0	NoResponse	0	0.328	n/a	5	21	ButtonPress	Neutral	False
212.27	1.45	Control	0.8181999999999999	n/a	No	2.778	n/a	5.0	NoResponse	0	0.046	211.316	5	21	Feedback	Neutral	False
213.719	2.778	Control	0.8181999999999999	n/a	No	2.778	n/a	n/a	NoResponse	0	0.0	n/a	5	21	ISIslide	Neutral	False
216.518	0.25	Control	0.7826000000000001	0.001	No	2.782	0.018	n/a	NoResponse	0	n/a	n/a	5	22	Cue	Neutral	True
216.768	4.0	Control	0.7826000000000001	0.0	No	2.782	0.0	n/a	NoResponse	0	n/a	n/a	5	22	Fixation	Neutral	True
220.767	0.18	Control	0.7826000000000001	0.001	No	2.782	-0.001	1.0	NoResponse	0	0.273	220.04	5	22	Target	Neutral	True
220.95	0.52	Control	0.7826000000000001	n/a	No	2.782	n/a	n/a	NoResponse	0	n/a	n/a	5	22	Blank	Neutral	True
221.04	0.3	Control	0.7826000000000001	0.001	No	2.782	-0.001	1.0	NoResponse	0	0.273	n/a	5	22	ButtonPress	Neutral	True
221.467	1.45	Control	0.7826000000000001	n/a	No	2.782	n/a	5.0	NoResponse	0	0.019	220.486	5	22	Feedback	Neutral	True
222.916	2.782	Control	0.7826000000000001	n/a	No	2.782	n/a	n/a	NoResponse	0	0.0	n/a	5	22	ISIslide	Neutral	True
225.715	0.25	Control	0.75	0.0	No	2.785	0.015	n/a	NoResponse	0	n/a	n/a	5	23	Cue	Neutral	True
225.965	3.9	Control	0.75	0.0	No	2.785	0.0	n/a	NoResponse	0	n/a	n/a	5	23	Fixation	Neutral	True
229.864	0.17	Control	0.75	0.001	No	2.785	-0.001	1.0	NoResponse	0	0.314	229.178	5	23	Target	Neutral	True
230.03	0.53	Control	0.75	n/a	No	2.785	n/a	n/a	NoResponse	0	n/a	n/a	5	23	Blank	Neutral	True
230.178	0.3	Control	0.75	0.001	No	2.785	-0.001	1.0	NoResponse	0	0.314	n/a	5	23	ButtonPress	Neutral	True
230.564	1.45	Control	0.75	n/a	No	2.785	n/a	5.0	NoResponse	0	0.044	229.608	5	23	Feedback	Neutral	True
232.013	2.785	Control	0.75	n/a	No	2.785	n/a	n/a	NoResponse	0	0.0	n/a	5	23	ISIslide	Neutral	True
234.829	0.25	Win2	0.72	0.0	No	3.121	0.029	n/a	NoResponse	0	n/a	n/a	5	24	Cue	MissedWin	True
235.079	3.95	Win2	0.72	0.0	No	3.121	0.0	n/a	NoResponse	0	n/a	n/a	5	24	Fixation	MissedWin	True
239.027	0.16	Win2	0.72	0.002	No	3.121	-0.002	1.0	NoResponse	0	0.198	238.225	5	24	Target	MissedWin	True
239.194	0.54	Win2	0.72	n/a	No	3.121	n/a	n/a	NoResponse	0	n/a	n/a	5	24	Blank	MissedWin	True
239.225	0.3	Win2	0.72	0.002	No	3.121	-0.002	1.0	NoResponse	0	0.198	n/a	5	24	ButtonPress	MissedWin	True
239.727	1.45	Win2	0.72	n/a	No	3.121	n/a	5.0	NoResponse	0	0.007	238.734	5	24	Feedback	MissedWin	True
241.176	3.121	Win2	0.72	n/a	No	3.121	n/a	n/a	NoResponse	0	0.0	n/a	5	24	ISIslide	MissedWin	True
244.325	0.25	Win2	0.6923	0.0	No	3.075	0.025	n/a	NoResponse	0	n/a	n/a	5	25	Cue	MissedWin	True
244.575	4.0	Win2	0.6923	0.0	No	3.075	0.0	n/a	NoResponse	0	n/a	n/a	5	25	Fixation	MissedWin	True
248.574	0.15	Win2	0.6923	0.001	No	3.075	-0.001	1.0	NoResponse	0	0.229	247.803	5	25	Target	MissedWin	True
248.724	0.55	Win2	0.6923	n/a	No	3.075	n/a	n/a	NoResponse	0	n/a	n/a	5	25	Blank	MissedWin	True
248.803	0.3	Win2	0.6923	0.001	No	3.075	-0.001	1.0	NoResponse	0	0.229	n/a	5	25	ButtonPress	MissedWin	True
249.274	1.45	Win2	0.6923	n/a	No	3.075	n/a	5.0	NoResponse	0	0.017	248.291	5	25	Feedback	MissedWin	True
250.723	3.075	Win2	0.6923	n/a	No	3.075	n/a	n/a	NoResponse	0	0.0	n/a	5	25	ISIslide	MissedWin	True
253.822	0.25	Win2	0.6667000000000001	0.0	No	2.928	0.022	n/a	NoResponse	0	n/a	n/a	5	26	Cue	MissedWin	True
254.072	3.95	Win2	0.6667000000000001	0.0	No	2.928	0.0	n/a	NoResponse	0	n/a	n/a	5	26	Fixation	MissedWin	True
258.021	0.15	Win2	0.6667000000000001	0.001	No	2.928	-0.001	1.0	NoResponse	0	0.254	257.275	5	26	Target	MissedWin	True
258.171	0.55	Win2	0.6667000000000001	n/a	No	2.928	n/a	n/a	NoResponse	0	n/a	n/a	5	26	Blank	MissedWin	True
258.275	0.3	Win2	0.6667000000000001	0.001	No	2.928	-0.001	1.0	NoResponse	0	0.254	n/a	5	26	ButtonPress	MissedWin	True
258.72	1.45	Win2	0.6667000000000001	n/a	No	2.928	n/a	5.0	NoResponse	0	0.034	257.754	5	26	Feedback	MissedWin	True
260.17	2.928	Win2	0.6667000000000001	n/a	No	2.928	n/a	n/a	NoResponse	0	0.0	n/a	5	26	ISIslide	MissedWin	True
263.119	0.25	Lose2	0.6429	0.0	No	2.831	0.019	n/a	NoResponse	-1	n/a	n/a	4	27	Cue	Loss	True
263.369	4.05	Lose2	0.6429	0.0	No	2.831	0.0	1.0	NoResponse	-1	4.009	266.378	4	27	Fixation	Loss	True
267.378	0.3	Lose2	0.6429	0.0	No	2.831	0.0	1.0	NoResponse	-1	4.009	n/a	4	27	ButtonPress	Loss	True
267.417	0.15	Lose2	0.6429	0.002	No	2.831	-0.002	n/a	NoResponse	-1	n/a	n/a	4	27	Target	Loss	True
267.567	0.55	Lose2	0.6429	n/a	No	2.831	n/a	n/a	NoResponse	-1	n/a	n/a	4	27	Blank	Loss	True
268.117	1.45	Lose2	0.6429	n/a	No	2.831	n/a	5.0	NoResponse	-1	0.008	267.125	4	27	Feedback	Loss	True
269.567	2.831	Lose2	0.6429	n/a	No	2.831	n/a	n/a	NoResponse	-1	0.0	n/a	4	27	ISIslide	Loss	True
272.416	0.25	Control	0.6207	0.0	No	2.834	0.016	n/a	NoResponse	0	n/a	n/a	4	28	Cue	Neutral	True
272.665	4.05	Control	0.6207	0.001	No	2.834	-0.001	n/a	NoResponse	0	n/a	n/a	4	28	Fixation	Neutral	True
276.714	0.16	Control	0.6207	0.002	No	2.834	-0.002	1.0	NoResponse	0	0.223	275.937	4	28	Target	Neutral	True
276.881	0.54	Control	0.6207	n/a	No	2.834	n/a	n/a	NoResponse	0	n/a	n/a	4	28	Blank	Neutral	True
276.937	0.3	Control	0.6207	0.002	No	2.834	-0.002	1.0	NoResponse	0	0.223	n/a	4	28	ButtonPress	Neutral	True
277.414	1.45	Control	0.6207	n/a	No	2.834	n/a	5.0	NoResponse	0	0.023	276.437	4	28	Feedback	Neutral	True
278.863	2.834	Control	0.6207	n/a	No	2.834	n/a	n/a	NoResponse	0	0.0	n/a	4	28	ISIslide	Neutral	True
281.712	0.25	Lose2	0.6	0.0	No	2.838	0.012	n/a	NoResponse	-1	n/a	n/a	3	29	Cue	Loss	True
281.962	3.95	Lose2	0.6	0.0	No	2.838	0.0	n/a	NoResponse	-1	n/a	n/a	3	29	Fixation	Loss	True
285.911	0.17	Lose2	0.6	0.001	No	2.838	-0.001	1.0	NoResponse	-1	0.221	285.132	3	29	Target	Loss	True
286.077	0.53	Lose2	0.6	n/a	No	2.838	n/a	n/a	NoResponse	-1	n/a	n/a	3	29	Blank	Loss	True
286.132	0.3	Lose2	0.6	0.001	No	2.838	-0.001	1.0	NoResponse	-1	0.221	n/a	3	29	ButtonPress	Loss	True
286.611	1.45	Lose2	0.6	n/a	No	2.838	n/a	5.0	NoResponse	-1	0.046	285.657	3	29	Feedback	Loss	True
288.06	2.838	Lose2	0.6	n/a	No	2.838	n/a	n/a	NoResponse	-1	0.0	n/a	3	29	ISIslide	Loss	True
290.926	0.25	Win2	0.5806	0.0	No	2.774	0.026	n/a	NoResponse	0	n/a	n/a	3	30	Cue	MissedWin	True
291.176	3.9	Win2	0.5806	0.0	No	2.774	0.0	n/a	NoResponse	0	n/a	n/a	3	30	Fixation	MissedWin	True
295.074	0.18	Win2	0.5806	0.002	No	2.774	-0.002	1.0	NoResponse	0	0.211	294.285	3	30	Target	MissedWin	True
295.258	0.52	Win2	0.5806	n/a	No	2.774	n/a	n/a	NoResponse	0	n/a	n/a	3	30	Blank	MissedWin	True
295.285	0.3	Win2	0.5806	0.002	No	2.774	-0.002	1.0	NoResponse	0	0.211	n/a	3	30	ButtonPress	MissedWin	True
295.774	1.45	Win2	0.5806	n/a	No	2.774	n/a	5.0	NoResponse	0	0.007	294.781	3	30	Feedback	MissedWin	True
297.224	2.774	Win2	0.5806	n/a	No	2.774	n/a	n/a	NoResponse	0	0.0	n/a	3	30	ISIslide	MissedWin	True
300.023	0.25	Lose2	0.5625	0.0	No	2.827	0.023	n/a	LatePress	-1	n/a	n/a	2	31	Cue	Loss	True
300.273	4.05	Lose2	0.5625	0.0	No	2.827	0.0	n/a	LatePress	-1	n/a	n/a	2	31	Fixation	Loss	True
304.321	0.19	Lose2	0.5625	0.002	No	2.827	-0.002	1.0	LatePress	-1	0.194	303.515	2	31	Target	Loss	True
304.515	0.3	Lose2	0.5625	0.002	No	2.827	-0.002	1.0	LatePress	-1	0.194	n/a	2	31	ButtonPress	Loss	True
304.521	0.51	Lose2	0.5625	n/a	No	2.827	n/a	n/a	LatePress	-1	n/a	n/a	2	31	Blank	Loss	True
305.021	1.45	Lose2	0.5625	n/a	No	2.827	n/a	5.0	LatePress	-1	0.025	304.046	2	31	Feedback	Loss	True
306.47	2.827	Lose2	0.5625	n/a	No	2.827	n/a	n/a	LatePress	-1	0.0	n/a	2	31	ISIslide	Loss	True
309.319	0.25	Lose2	0.5455	0.0	No	2.631	0.019	n/a	NoResponse	-1	n/a	n/a	1	32	Cue	Loss	True
309.569	4.15	Lose2	0.5455	0.0	No	2.631	0.0	n/a	NoResponse	-1	n/a	n/a	1	32	Fixation	Loss	True
313.718	0.2	Lose2	0.5455	0.001	No	2.631	-0.001	1.0	NoResponse	-1	0.469	313.187	1	32	Target	Loss	True
313.918	0.5	Lose2	0.5455	n/a	No	2.631	n/a	n/a	NoResponse	-1	n/a	n/a	1	32	Blank	Loss	True
314.187	0.3	Lose2	0.5455	0.001	No	2.631	-0.001	1.0	NoResponse	-1	0.469	n/a	1	32	ButtonPress	Loss	True
314.418	1.45	Lose2	0.5455	n/a	No	2.631	n/a	5.0	NoResponse	-1	0.043	313.461	1	32	Feedback	Loss	True
315.867	2.631	Lose2	0.5455	n/a	No	2.631	n/a	n/a	NoResponse	-1	0.0	n/a	1	32	ISIslide	Loss	True
318.516	0.25	Win2	0.5294	0.0	No	2.684	0.016	n/a	LatePress	0	n/a	n/a	1	33	Cue	MissedWin	True
318.766	4.0	Win2	0.5294	0.0	No	2.684	0.0	n/a	LatePress	0	n/a	n/a	1	33	Fixation	MissedWin	True
322.765	0.21	Win2	0.5294	0.001	No	2.684	-0.001	1.0	LatePress	0	0.212	321.977	1	33	Target	MissedWin	True
322.977	0.3	Win2	0.5294	0.001	No	2.684	-0.001	1.0	LatePress	0	0.212	n/a	1	33	ButtonPress	MissedWin	True
322.981	0.49	Win2	0.5294	n/a	No	2.684	n/a	n/a	LatePress	0	n/a	n/a	1	33	Blank	MissedWin	True
323.464	1.45	Win2	0.5294	n/a	No	2.684	n/a	5.0	LatePress	0	0.022	322.486	1	33	Feedback	MissedWin	True
324.914	2.684	Win2	0.5294	n/a	No	2.684	n/a	n/a	LatePress	0	0.0	n/a	1	33	ISIslide	MissedWin	True
327.63	0.25	Lose2	0.5143	0.0	No	2.62	0.03	n/a	NoResponse	-1	n/a	n/a	0	34	Cue	Loss	True
327.88	4.05	Lose2	0.5143	0.0	No	2.62	0.0	n/a	NoResponse	-1	n/a	n/a	0	34	Fixation	Loss	True
331.928	0.22	Lose2	0.5143	0.002	No	2.62	-0.002	1.0	NoResponse	-1	0.251	331.179	0	34	Target	Loss	True
332.161	0.48	Lose2	0.5143	n/a	No	2.62	n/a	n/a	NoResponse	-1	n/a	n/a	0	34	Blank	Loss	True
332.179	0.3	Lose2	0.5143	0.002	No	2.62	-0.002	1.0	NoResponse	-1	0.251	n/a	0	34	ButtonPress	Loss	True
332.628	1.45	Lose2	0.5143	n/a	No	2.62	n/a	5.0	NoResponse	-1	0.029	331.657	0	34	Feedback	Loss	True
334.077	2.62	Lose2	0.5143	n/a	No	2.62	n/a	n/a	NoResponse	-1	0.0	n/a	0	34	ISIslide	Loss	True
336.726	0.25	Lose2	0.5278	0.001	Yes	2.674	0.026	n/a	GoodResponse	0	n/a	n/a	0	35	Cue	AvoidedLoss	True
336.976	4.0	Lose2	0.5278	0.001	Yes	2.674	0.0	n/a	GoodResponse	0	n/a	n/a	0	35	Fixation	AvoidedLoss	True
340.975	0.23	Lose2	0.5278	0.001	Yes	2.674	-0.001	1.0	GoodResponse	0	0.225	340.2	0	35	Target	AvoidedLoss	True
341.2	0.3	Lose2	0.5278	0.001	Yes	2.674	-0.001	1.0	GoodResponse	0	0.225	n/a	0	35	ButtonPress	AvoidedLoss	True
341.208	0.47	Lose2	0.5278	n/a	Yes	2.674	n/a	n/a	GoodResponse	0	n/a	n/a	0	35	Blank	AvoidedLoss	True
341.675	1.45	Lose2	0.5278	n/a	Yes	2.674	n/a	5.0	GoodResponse	0	0.006	340.681	0	35	Feedback	AvoidedLoss	True
343.124	2.674	Lose2	0.5278	n/a	Yes	2.674	n/a	n/a	GoodResponse	0	0.0	n/a	0	35	ISIslide	AvoidedLoss	True
345.823	0.25	Control	0.5405	0.0	Yes	2.677	0.023	n/a	GoodResponse	0	n/a	n/a	0	36	Cue	Neutral	True
346.073	4.0	Control	0.5405	0.0	Yes	2.677	0.0	n/a	GoodResponse	0	n/a	n/a	0	36	Fixation	Neutral	True
350.072	0.24	Control	0.5405	0.001	Yes	2.677	-0.001	1.0	GoodResponse	0	0.219	349.291	0	36	Target	Neutral	True
350.291	0.3	Control	0.5405	0.001	Yes	2.677	-0.001	1.0	GoodResponse	0	0.219	n/a	0	36	ButtonPress	Neutral	True
350.322	0.46	Control	0.5405	n/a	Yes	2.677	n/a	n/a	GoodResponse	0	n/a	n/a	0	36	Blank	Neutral	True
350.772	1.45	Control	0.5405	n/a	Yes	2.677	n/a	5.0	GoodResponse	0	0.03	349.802	0	36	Feedback	Neutral	True
352.221	2.677	Control	0.5405	n/a	Yes	2.677	n/a	n/a	GoodResponse	0	0.0	n/a	0	36	ISIslide	Neutral	True
354.92	0.25	Win2	0.5526	0.0	Yes	2.88	0.02	n/a	GoodResponse	1	n/a	n/a	1	37	Cue	Win	False
355.17	4.0	Win2	0.5526	0.0	Yes	2.88	0.0	1.0	GoodResponse	1	0.027	354.197	1	37	Fixation	Win	False
355.197	0.3	Win2	0.5526	0.0	Yes	2.88	0.0	1.0	GoodResponse	1	0.027	n/a	1	37	ButtonPress	Win	False
359.169	0.25	Win2	0.5526	0.001	Yes	2.88	-0.001	1.0	GoodResponse	1	0.207	358.376	1	37	Target	Win	False
359.376	0.3	Win2	0.5526	0.001	Yes	2.88	-0.001	1.0	GoodResponse	1	0.207	n/a	1	37	ButtonPress	Win	False
359.419	0.45	Win2	0.5526	n/a	Yes	2.88	n/a	n/a	GoodResponse	1	n/a	n/a	1	37	Blank	Win	False
359.868	1.45	Win2	0.5526	n/a	Yes	2.88	n/a	5.0	GoodResponse	1	0.007	358.875	1	37	Feedback	Win	False
361.318	2.88	Win2	0.5526	n/a	Yes	2.88	n/a	n/a	GoodResponse	1	0.0	n/a	1	37	ISIslide	Win	False
364.217	0.25	Lose2	0.5640999999999999	0.0	Yes	2.833	0.017	n/a	GoodResponse	0	n/a	n/a	1	38	Cue	AvoidedLoss	True
364.467	3.95	Lose2	0.5640999999999999	0.0	Yes	2.833	0.0	n/a	GoodResponse	0	n/a	n/a	1	38	Fixation	AvoidedLoss	True
368.415	0.26	Lose2	0.5640999999999999	0.002	Yes	2.833	-0.002	1.0	GoodResponse	0	0.23	367.645	1	38	Target	AvoidedLoss	True
368.645	0.3	Lose2	0.5640999999999999	0.002	Yes	2.833	-0.002	1.0	GoodResponse	0	0.23	n/a	1	38	ButtonPress	AvoidedLoss	True
368.682	0.44	Lose2	0.5640999999999999	n/a	Yes	2.833	n/a	n/a	GoodResponse	0	n/a	n/a	1	38	Blank	AvoidedLoss	True
369.115	1.45	Lose2	0.5640999999999999	n/a	Yes	2.833	n/a	5.0	GoodResponse	0	0.029	368.144	1	38	Feedback	AvoidedLoss	True
370.565	2.833	Lose2	0.5640999999999999	n/a	Yes	2.833	n/a	n/a	GoodResponse	0	0.0	n/a	1	38	ISIslide	AvoidedLoss	True
373.43	0.25	Win2	0.575	0.0	Yes	2.97	0.03	n/a	GoodResponse	1	n/a	n/a	2	39	Cue	Win	True
373.68	4.1	Win2	0.575	0.0	Yes	2.97	0.0	n/a	GoodResponse	1	n/a	n/a	2	39	Fixation	Win	True
377.779	0.27	Win2	0.575	0.001	Yes	2.97	-0.001	1.0	GoodResponse	1	0.204	376.983	2	39	Target	Win	True
377.983	0.3	Win2	0.575	0.001	Yes	2.97	-0.001	1.0	GoodResponse	1	0.204	n/a	2	39	ButtonPress	Win	True
378.045	0.43	Win2	0.575	n/a	Yes	2.97	n/a	n/a	GoodResponse	1	n/a	n/a	2	39	Blank	Win	True
378.479	1.45	Win2	0.575	n/a	Yes	2.97	n/a	5.0	GoodResponse	1	0.031	377.51	2	39	Feedback	Win	True
379.928	2.97	Win2	0.575	n/a	Yes	2.97	n/a	n/a	GoodResponse	1	0.0	n/a	2	39	ISIslide	Win	True
382.927	0.25	Win2	0.5854	0.0	Yes	2.723	0.027	n/a	GoodResponse	1	n/a	n/a	3	40	Cue	Win	True
383.177	3.95	Win2	0.5854	0.0	Yes	2.723	0.0	n/a	GoodResponse	1	n/a	n/a	3	40	Fixation	Win	True
387.126	0.28	Win2	0.5854	0.001	Yes	2.723	-0.001	1.0	GoodResponse	1	0.225	386.351	3	40	Target	Win	True
387.351	0.3	Win2	0.5854	0.001	Yes	2.723	-0.001	1.0	GoodResponse	1	0.225	n/a	3	40	ButtonPress	Win	True
387.409	0.42	Win2	0.5854	n/a	Yes	2.723	n/a	n/a	GoodResponse	1	n/a	n/a	3	40	Blank	Win	True
387.825	1.45	Win2	0.5854	n/a	Yes	2.723	n/a	5.0	GoodResponse	1	0.002	386.827	3	40	Feedback	Win	True
389.275	2.723	Win2	0.5854	n/a	Yes	2.723	n/a	n/a	GoodResponse	1	0.0	n/a	3	40	ISIslide	Win	True
392.024	0.25	Win2	0.5952000000000001	0.0	Yes	2.776	0.024	n/a	GoodResponse	1	n/a	n/a	4	41	Cue	Win	True
392.274	3.9	Win2	0.5952000000000001	0.0	Yes	2.776	0.0	n/a	GoodResponse	1	n/a	n/a	4	41	Fixation	Win	True
396.172	0.29	Win2	0.5952000000000001	0.002	Yes	2.776	-0.002	1.0	GoodResponse	1	0.244	395.416	4	41	Target	Win	True
396.416	0.3	Win2	0.5952000000000001	0.002	Yes	2.776	-0.002	1.0	GoodResponse	1	0.244	n/a	4	41	ButtonPress	Win	True
396.472	0.41	Win2	0.5952000000000001	n/a	Yes	2.776	n/a	n/a	GoodResponse	1	n/a	n/a	4	41	Blank	Win	True
396.872	1.45	Win2	0.5952000000000001	n/a	Yes	2.776	n/a	5.0	GoodResponse	1	0.027	395.899	4	41	Feedback	Win	True
398.322	2.776	Win2	0.5952000000000001	n/a	Yes	2.776	n/a	n/a	GoodResponse	1	0.0	n/a	4	41	ISIslide	Win	True
401.121	0.25	Control	0.6047	0.0	Yes	2.929	0.021	n/a	GoodResponse	0	n/a	n/a	4	42	Cue	Neutral	True
401.371	3.85	Control	0.6047	0.0	Yes	2.929	0.0	n/a	GoodResponse	0	n/a	n/a	4	42	Fixation	Neutral	True
405.219	0.3	Control	0.6047	0.002	Yes	2.929	-0.002	1.0	GoodResponse	0	0.233	404.452	4	42	Target	Neutral	True
405.452	0.3	Control	0.6047	0.002	Yes	2.929	-0.002	1.0	GoodResponse	0	0.233	n/a	4	42	ButtonPress	Neutral	True
405.519	0.4	Control	0.6047	n/a	Yes	2.929	n/a	n/a	GoodResponse	0	n/a	n/a	4	42	Blank	Neutral	True
405.919	1.45	Control	0.6047	n/a	Yes	2.929	n/a	5.0	GoodResponse	0	0.007	404.926	4	42	Feedback	Neutral	True
407.368	2.929	Control	0.6047	n/a	Yes	2.929	n/a	n/a	GoodResponse	0	0.0	n/a	4	42	ISIslide	Neutral	True
410.317	0.25	Win2	0.6136	0.001	Yes	3.183	0.017	n/a	GoodResponse	1	n/a	n/a	5	43	Cue	Win	True
410.567	4.0	Win2	0.6136	0.0	Yes	3.183	0.0	n/a	GoodResponse	1	n/a	n/a	5	43	Fixation	Win	True
414.566	0.31	Win2	0.6136	0.001	Yes	3.183	-0.001	1.0	GoodResponse	1	0.205	413.771	5	43	Target	Win	True
414.771	0.3	Win2	0.6136	0.001	Yes	3.183	-0.001	1.0	GoodResponse	1	0.205	n/a	5	43	ButtonPress	Win	True
414.883	0.39	Win2	0.6136	n/a	Yes	3.183	n/a	n/a	GoodResponse	1	n/a	n/a	5	43	Blank	Win	True
415.266	1.45	Win2	0.6136	n/a	Yes	3.183	n/a	5.0	GoodResponse	1	0.024	414.29	5	43	Feedback	Win	True
416.715	3.183	Win2	0.6136	n/a	Yes	3.183	n/a	n/a	GoodResponse	1	0.0	n/a	5	43	ISIslide	Win	True
419.931	0.25	Win2	0.6222	0.0	Yes	2.969	0.031	n/a	GoodResponse	1	n/a	n/a	6	44	Cue	Win	True
420.181	4.0	Win2	0.6222	0.0	Yes	2.969	0.0	n/a	GoodResponse	1	n/a	n/a	6	44	Fixation	Win	True
424.179	0.32	Win2	0.6222	0.002	Yes	2.969	-0.002	1.0	GoodResponse	1	0.214	423.393	6	44	Target	Win	True
424.393	0.3	Win2	0.6222	0.002	Yes	2.969	-0.002	1.0	GoodResponse	1	0.214	n/a	6	44	ButtonPress	Win	True
424.513	0.38	Win2	0.6222	n/a	Yes	2.969	n/a	n/a	GoodResponse	1	n/a	n/a	6	44	Blank	Win	True
424.879	1.45	Win2	0.6222	n/a	Yes	2.969	n/a	5.0	GoodResponse	1	0.021	423.9	6	44	Feedback	Win	True
426.329	2.969	Win2	0.6222	n/a	Yes	2.969	n/a	n/a	GoodResponse	1	0.0	n/a	6	44	ISIslide	Win	True
429.328	0.25	Control	0.6304	0.0	Yes	2.872	0.028	n/a	GoodResponse	0	n/a	n/a	6	45	Cue	Neutral	True
429.577	4.1	Control	0.6304	0.001	Yes	2.872	-0.001	n/a	GoodResponse	0	n/a	n/a	6	45	Fixation	Neutral	True
433.676	0.33	Control	0.6304	0.002	Yes	2.872	-0.002	1.0	GoodResponse	0	0.242	432.918	6	45	Target	Neutral	True
433.918	0.3	Control	0.6304	0.002	Yes	2.872	-0.002	1.0	GoodResponse	0	0.242	n/a	6	45	ButtonPress	Neutral	True
434.009	0.37	Control	0.6304	n/a	Yes	2.872	n/a	n/a	GoodResponse	0	n/a	n/a	6	45	Blank	Neutral	True
434.376	1.45	Control	0.6304	n/a	Yes	2.872	n/a	5.0	GoodResponse	0	0.036	433.412	6	45	Feedback	Neutral	True
435.825	2.872	Control	0.6304	n/a	Yes	2.872	n/a	n/a	GoodResponse	0	0.0	n/a	6	45	ISIslide	Neutral	True
438.724	0.25	Lose2	0.6383	0.0	Yes	3.376	0.024	n/a	GoodResponse	0	n/a	n/a	6	46	Cue	AvoidedLoss	True
438.974	4.0	Lose2	0.6383	0.0	Yes	3.376	0.0	n/a	GoodResponse	0	n/a	n/a	6	46	Fixation	AvoidedLoss	True
442.973	0.34	Lose2	0.6383	0.001	Yes	3.376	-0.001	1.0	GoodResponse	0	0.249	442.222	6	46	Target	AvoidedLoss	True
443.222	0.3	Lose2	0.6383	0.001	Yes	3.376	-0.001	1.0	GoodResponse	0	0.249	n/a	6	46	ButtonPress	AvoidedLoss	True
443.323	0.36	Lose2	0.6383	n/a	Yes	3.376	n/a	n/a	GoodResponse	0	n/a	n/a	6	46	Blank	AvoidedLoss	True
443.672	1.45	Lose2	0.6383	n/a	Yes	3.376	n/a	5.0	GoodResponse	0	0.008	442.68	6	46	Feedback	AvoidedLoss	True
445.122	3.376	Lose2	0.6383	n/a	Yes	3.376	n/a	n/a	GoodResponse	0	0.0	n/a	6	46	ISIslide	AvoidedLoss	True
448.521	0.25	Lose2	0.6457999999999999	0.0	Yes	2.679	0.021	n/a	GoodResponse	0	n/a	n/a	6	47	Cue	AvoidedLoss	True
448.771	4.0	Lose2	0.6457999999999999	0.0	Yes	2.679	0.0	n/a	GoodResponse	0	n/a	n/a	6	47	Fixation	AvoidedLoss	True
452.769	0.35	Lose2	0.6457999999999999	0.002	Yes	2.679	-0.002	1.0	GoodResponse	0	0.221	451.99	6	47	Target	AvoidedLoss	True
452.99	0.3	Lose2	0.6457999999999999	0.002	Yes	2.679	-0.002	1.0	GoodResponse	0	0.221	n/a	6	47	ButtonPress	AvoidedLoss	True
453.119	0.35	Lose2	0.6457999999999999	n/a	Yes	2.679	n/a	n/a	GoodResponse	0	n/a	n/a	6	47	Blank	AvoidedLoss	True
453.469	1.45	Lose2	0.6457999999999999	n/a	Yes	2.679	n/a	5.0	GoodResponse	0	0.015	452.484	6	47	Feedback	AvoidedLoss	True
454.919	2.679	Lose2	0.6457999999999999	n/a	Yes	2.679	n/a	n/a	GoodResponse	0	0.0	n/a	6	47	ISIslide	AvoidedLoss	True
457.618	0.25	Lose2	0.6531	0.0	Yes	3.032	0.018	n/a	GoodResponse	0	n/a	n/a	6	48	Cue	AvoidedLoss	True
457.868	3.95	Lose2	0.6531	0.0	Yes	3.032	0.0	n/a	GoodResponse	0	n/a	n/a	6	48	Fixation	AvoidedLoss	True
461.816	0.36	Lose2	0.6531	0.002	Yes	3.032	-0.002	1.0	GoodResponse	0	0.217	461.033	6	48	Target	AvoidedLoss	True
462.033	0.3	Lose2	0.6531	0.002	Yes	3.032	-0.002	1.0	GoodResponse	0	0.217	n/a	6	48	ButtonPress	AvoidedLoss	True
462.183	0.34	Lose2	0.6531	n/a	Yes	3.032	n/a	n/a	GoodResponse	0	n/a	n/a	6	48	Blank	AvoidedLoss	True
462.516	1.45	Lose2	0.6531	n/a	Yes	3.032	n/a	5.0	GoodResponse	0	0.042	461.558	6	48	Feedback	AvoidedLoss	True
463.965	3.032	Lose2	0.6531	n/a	Yes	3.032	n/a	n/a	GoodResponse	0	0.0	n/a	6	48	ISIslide	AvoidedLoss	True
467.014	0.25	Control	0.66	0.0	Yes	2.886	0.014	n/a	GoodResponse	0	n/a	n/a	6	49	Cue	Neutral	True
467.264	4.0	Control	0.66	0.0	Yes	2.886	0.0	n/a	GoodResponse	0	n/a	n/a	6	49	Fixation	Neutral	True
471.263	0.37	Control	0.66	0.001	Yes	2.886	-0.001	1.0	GoodResponse	0	0.208	470.471	6	49	Target	Neutral	True
471.471	0.3	Control	0.66	0.001	Yes	2.886	-0.001	1.0	GoodResponse	0	0.208	n/a	6	49	ButtonPress	Neutral	True
471.629	0.33	Control	0.66	n/a	Yes	2.886	n/a	n/a	GoodResponse	0	n/a	n/a	6	49	Blank	Neutral	True
471.963	1.45	Control	0.66	n/a	Yes	2.886	n/a	5.0	GoodResponse	0	0.009	470.972	6	49	Feedback	Neutral	True
473.412	2.886	Control	0.66	n/a	Yes	2.886	n/a	n/a	GoodResponse	0	0.0	n/a	6	49	ISIslide	Neutral	True
476.328	0.25	Control	0.6667000000000001	0.0	Yes	2.772	0.028	n/a	GoodResponse	0	n/a	n/a	6	50	Cue	Neutral	True
476.578	4.0	Control	0.6667000000000001	0.0	Yes	2.772	0.0	n/a	GoodResponse	0	n/a	n/a	6	50	Fixation	Neutral	True
480.576	0.37	Control	0.6667000000000001	0.002	Yes	2.772	-0.002	1.0	GoodResponse	0	0.247	479.823	6	50	Target	Neutral	True
480.823	0.3	Control	0.6667000000000001	0.002	Yes	2.772	-0.002	1.0	GoodResponse	0	0.247	n/a	6	50	ButtonPress	Neutral	True
480.959	0.33	Control	0.6667000000000001	n/a	Yes	2.772	n/a	n/a	GoodResponse	0	n/a	n/a	6	50	Blank	Neutral	True
481.276	1.45	Control	0.6667000000000001	n/a	Yes	2.772	n/a	5.0	GoodResponse	0	0.014	480.29	6	50	Feedback	Neutral	True
482.726	2.772	Control	0.6667000000000001	n/a	Yes	2.772	n/a	n/a	GoodResponse	0	0.0	n/a	6	50	ISIslide	Neutral	True
485.525	0.25	Control	0.6731	0.0	Yes	2.725	0.025	n/a	GoodResponse	0	n/a	n/a	6	51	Cue	Neutral	True
485.774	3.95	Control	0.6731	0.001	Yes	2.725	-0.001	n/a	GoodResponse	0	n/a	n/a	6	51	Fixation	Neutral	True
489.723	0.36	Control	0.6731	0.002	Yes	2.725	-0.002	1.0	GoodResponse	0	0.2	488.923	6	51	Target	Neutral	True
489.923	0.3	Control	0.6731	0.002	Yes	2.725	-0.002	1.0	GoodResponse	0	0.2	n/a	6	51	ButtonPress	Neutral	True
490.09	0.34	Control	0.6731	n/a	Yes	2.725	n/a	n/a	GoodResponse	0	n/a	n/a	6	51	Blank	Neutral	True
490.423	1.45	Control	0.6731	n/a	Yes	2.725	n/a	5.0	GoodResponse	0	0.037	489.46	6	51	Feedback	Neutral	True
491.872	2.725	Control	0.6731	n/a	Yes	2.725	n/a	n/a	GoodResponse	0	0.0	n/a	6	51	ISIslide	Neutral	True
494.621	0.25	Control	0.6792	0.0	Yes	2.629	0.021	n/a	GoodResponse	0	n/a	n/a	6	52	Cue	Neutral	True
494.871	4.05	Control	0.6792	0.0	Yes	2.629	0.0	n/a	GoodResponse	0	n/a	n/a	6	52	Fixation	Neutral	True
498.92	0.35	Control	0.6792	0.001	Yes	2.629	-0.001	1.0	GoodResponse	0	0.248	498.168	6	52	Target	Neutral	True
499.168	0.3	Control	0.6792	0.001	Yes	2.629	-0.001	1.0	GoodResponse	0	0.248	n/a	6	52	ButtonPress	Neutral	True
499.27	0.35	Control	0.6792	n/a	Yes	2.629	n/a	n/a	GoodResponse	0	n/a	n/a	6	52	Blank	Neutral	True
499.62	1.45	Control	0.6792	n/a	Yes	2.629	n/a	5.0	GoodResponse	0	0.01	498.63	6	52	Feedback	Neutral	True
501.069	2.629	Control	0.6792	n/a	Yes	2.629	n/a	n/a	GoodResponse	0	0.0	n/a	6	52	ISIslide	Neutral	True
503.718	0.25	Win2	0.6851999999999999	0.0	Yes	2.932	0.018	n/a	GoodResponse	1	n/a	n/a	7	53	Cue	Win	True
503.968	4.05	Win2	0.6851999999999999	0.0	Yes	2.932	0.0	n/a	GoodResponse	1	n/a	n/a	7	53	Fixation	Win	True
508.017	0.34	Win2	0.6851999999999999	0.001	Yes	2.932	-0.001	1.0	GoodResponse	1	0.205	507.222	7	53	Target	Win	True
508.222	0.3	Win2	0.6851999999999999	0.001	Yes	2.932	-0.001	1.0	GoodResponse	1	0.205	n/a	7	53	ButtonPress	Win	True
508.367	0.36	Win2	0.6851999999999999	n/a	Yes	2.932	n/a	n/a	GoodResponse	1	n/a	n/a	7	53	Blank	Win	True
508.716	1.45	Win2	0.6851999999999999	n/a	Yes	2.932	n/a	5.0	GoodResponse	1	0.036	507.752	7	53	Feedback	Win	True
510.166	2.932	Win2	0.6851999999999999	n/a	Yes	2.932	n/a	n/a	GoodResponse	1	0.0	n/a	7	53	ISIslide	Win	True
513.115	0.25	Win2	0.6909000000000001	0.0	Yes	2.735	0.015	n/a	GoodResponse	1	n/a	n/a	8	54	Cue	Win	True
513.365	3.95	Win2	0.6909000000000001	0.0	Yes	2.735	0.0	n/a	GoodResponse	1	n/a	n/a	8	54	Fixation	Win	True
517.313	0.33	Win2	0.6909000000000001	0.002	Yes	2.735	-0.002	1.0	GoodResponse	1	0.207	516.52	8	54	Target	Win	True
517.52	0.3	Win2	0.6909000000000001	0.002	Yes	2.735	-0.002	1.0	GoodResponse	1	0.207	n/a	8	54	ButtonPress	Win	True
517.647	0.37	Win2	0.6909000000000001	n/a	Yes	2.735	n/a	n/a	GoodResponse	1	n/a	n/a	8	54	Blank	Win	True
518.013	1.45	Win2	0.6909000000000001	n/a	Yes	2.735	n/a	5.0	GoodResponse	1	0.008	517.021	8	54	Feedback	Win	True
519.463	2.735	Win2	0.6909000000000001	n/a	Yes	2.735	n/a	n/a	GoodResponse	1	0.0	n/a	8	54	ISIslide	Win	True
522.228	0.25	Control	0.6964	0.0	Yes	3.022	0.028	n/a	GoodResponse	0	n/a	n/a	8	55	Cue	Neutral	True
522.478	3.95	Control	0.6964	0.0	Yes	3.022	0.0	n/a	GoodResponse	0	n/a	n/a	8	55	Fixation	Neutral	True
526.427	0.32	Control	0.6964	0.001	Yes	3.022	-0.001	1.0	GoodResponse	0	0.281	525.708	8	55	Target	Neutral	True
526.708	0.3	Control	0.6964	0.001	Yes	3.022	-0.001	1.0	GoodResponse	0	0.281	n/a	8	55	ButtonPress	Neutral	True
526.744	0.38	Control	0.6964	n/a	Yes	3.022	n/a	n/a	GoodResponse	0	n/a	n/a	8	55	Blank	Neutral	True
527.127	1.45	Control	0.6964	n/a	Yes	3.022	n/a	5.0	GoodResponse	0	0.016	526.143	8	55	Feedback	Neutral	True
528.576	3.022	Control	0.6964	n/a	Yes	3.022	n/a	n/a	GoodResponse	0	0.0	n/a	8	55	ISIslide	Neutral	True
531.625	0.25	Control	0.7018000000000001	0.0	Yes	2.825	0.025	n/a	GoodResponse	0	n/a	n/a	8	56	Cue	Neutral	True
531.875	3.95	Control	0.7018000000000001	0.0	Yes	2.825	0.0	n/a	GoodResponse	0	n/a	n/a	8	56	Fixation	Neutral	True
535.824	0.31	Control	0.7018000000000001	0.001	Yes	2.825	-0.001	1.0	GoodResponse	0	0.251	535.075	8	56	Target	Neutral	True
536.075	0.3	Control	0.7018000000000001	0.001	Yes	2.825	-0.001	1.0	GoodResponse	0	0.251	n/a	8	56	ButtonPress	Neutral	True
536.14	0.39	Control	0.7018000000000001	n/a	Yes	2.825	n/a	n/a	GoodResponse	0	n/a	n/a	8	56	Blank	Neutral	True
536.523	1.45	Control	0.7018000000000001	n/a	Yes	2.825	n/a	5.0	GoodResponse	0	0.035	535.558	8	56	Feedback	Neutral	True
537.973	2.825	Control	0.7018000000000001	n/a	Yes	2.825	n/a	n/a	GoodResponse	0	0.0	n/a	8	56	ISIslide	Neutral	True
540.822	0.25	Control	0.7069	0.0	Yes	3.478	0.022	n/a	GoodResponse	0	n/a	n/a	8	57	Cue	Neutral	True
541.072	4.0	Control	0.7069	0.0	Yes	3.478	0.0	n/a	GoodResponse	0	n/a	n/a	8	57	Fixation	Neutral	True
545.07	0.3	Control	0.7069	0.002	Yes	3.478	-0.002	1.0	GoodResponse	0	0.189	544.259	8	57	Target	Neutral	True
545.259	0.3	Control	0.7069	0.002	Yes	3.478	-0.002	1.0	GoodResponse	0	0.189	n/a	8	57	ButtonPress	Neutral	True
545.37	0.4	Control	0.7069	n/a	Yes	3.478	n/a	n/a	GoodResponse	0	n/a	n/a	8	57	Blank	Neutral	True
545.77	1.45	Control	0.7069	n/a	Yes	3.478	n/a	5.0	GoodResponse	0	0.007	544.777	8	57	Feedback	Neutral	True
547.22	3.478	Control	0.7069	n/a	Yes	3.478	n/a	n/a	GoodResponse	0	0.0	n/a	8	57	ISIslide	Neutral	True
550.718	0.25	Win2	0.7119	0.001	Yes	2.732	0.018	n/a	GoodResponse	1	n/a	n/a	9	58	Cue	Win	True
550.968	4.05	Win2	0.7119	0.0	Yes	2.732	0.0	n/a	GoodResponse	1	n/a	n/a	9	58	Fixation	Win	True
555.017	0.29	Win2	0.7119	0.001	Yes	2.732	-0.001	1.0	GoodResponse	1	0.191	554.208	9	58	Target	Win	True
555.208	0.3	Win2	0.7119	0.001	Yes	2.732	-0.001	1.0	GoodResponse	1	0.191	n/a	9	58	ButtonPress	Win	True
555.317	0.41	Win2	0.7119	n/a	Yes	2.732	n/a	n/a	GoodResponse	1	n/a	n/a	9	58	Blank	Win	True
555.717	1.45	Win2	0.7119	n/a	Yes	2.732	n/a	5.0	GoodResponse	1	0.011	554.728	9	58	Feedback	Win	True
557.166	2.732	Win2	0.7119	n/a	Yes	2.732	n/a	n/a	GoodResponse	1	0.0	n/a	9	58	ISIslide	Win	True
559.915	0.25	Lose2	0.7167	0.0	Yes	2.685	0.015	n/a	GoodResponse	0	n/a	n/a	9	59	Cue	AvoidedLoss	True
560.165	4.0	Lose2	0.7167	0.0	Yes	2.685	0.0	n/a	GoodResponse	0	n/a	n/a	9	59	Fixation	AvoidedLoss	True
564.164	0.28	Lose2	0.7167	0.001	Yes	2.685	-0.001	1.0	GoodResponse	0	0.236	563.4	9	59	Target	AvoidedLoss	True
564.4	0.3	Lose2	0.7167	0.001	Yes	2.685	-0.001	1.0	GoodResponse	0	0.236	n/a	9	59	ButtonPress	AvoidedLoss	True
564.447	0.42	Lose2	0.7167	n/a	Yes	2.685	n/a	n/a	GoodResponse	0	n/a	n/a	9	59	Blank	AvoidedLoss	True
564.864	1.45	Lose2	0.7167	n/a	Yes	2.685	n/a	5.0	GoodResponse	0	0.034	563.898	9	59	Feedback	AvoidedLoss	True
566.313	2.685	Lose2	0.7167	n/a	Yes	2.685	n/a	n/a	GoodResponse	0	0.0	n/a	9	59	ISIslide	AvoidedLoss	True
569.029	0.25	Control	0.7212999999999999	0.0	Yes	2.671	0.029	n/a	GoodResponse	0	n/a	n/a	9	60	Cue	Neutral	True
569.279	4.0	Control	0.7212999999999999	0.0	Yes	2.671	0.0	n/a	GoodResponse	0	n/a	n/a	9	60	Fixation	Neutral	True
573.277	0.27	Control	0.7212999999999999	0.002	Yes	2.671	-0.002	1.0	GoodResponse	0	0.238	572.515	9	60	Target	Neutral	True
573.515	0.3	Control	0.7212999999999999	0.002	Yes	2.671	-0.002	1.0	GoodResponse	0	0.238	n/a	9	60	ButtonPress	Neutral	True
573.561	0.43	Control	0.7212999999999999	n/a	Yes	2.671	n/a	n/a	GoodResponse	0	n/a	n/a	9	60	Blank	Neutral	True
573.977	1.45	Control	0.7212999999999999	n/a	Yes	2.671	n/a	5.0	GoodResponse	0	0.043	573.02	9	60	Feedback	Neutral	True
575.427	2.671	Control	0.7212999999999999	n/a	Yes	2.671	n/a	n/a	GoodResponse	0	0.0	n/a	9	60	ISIslide	Neutral	True
578.126	0.25	Lose2	0.7258	0.0	Yes	2.974	0.026	n/a	GoodResponse	0	n/a	n/a	9	61	Cue	AvoidedLoss	True
578.376	4.0	Lose2	0.7258	0.0	Yes	2.974	0.0	n/a	GoodResponse	0	n/a	n/a	9	61	Fixation	AvoidedLoss	True
582.374	0.26	Lose2	0.7258	0.002	Yes	2.974	-0.002	1.0	GoodResponse	0	0.196	581.57	9	61	Target	AvoidedLoss	True
582.57	0.3	Lose2	0.7258	0.002	Yes	2.974	-0.002	1.0	GoodResponse	0	0.196	n/a	9	61	ButtonPress	AvoidedLoss	True
582.641	0.44	Lose2	0.7258	n/a	Yes	2.974	n/a	n/a	GoodResponse	0	n/a	n/a	9	61	Blank	AvoidedLoss	True
583.074	1.45	Lose2	0.7258	n/a	Yes	2.974	n/a	5.0	GoodResponse	0	0.02	582.094	9	61	Feedback	AvoidedLoss	True
584.523	2.974	Lose2	0.7258	n/a	Yes	2.974	n/a	n/a	GoodResponse	0	0.0	n/a	9	61	ISIslide	AvoidedLoss	True
587.522	0.25	Lose2	0.7143	0.0	No	2.878	0.022	n/a	NoResponse	-1	n/a	n/a	8	62	Cue	Loss	True
587.772	3.9	Lose2	0.7143	0.0	No	2.878	0.0	n/a	NoResponse	-1	n/a	n/a	8	62	Fixation	Loss	True
591.671	0.25	Lose2	0.7143	0.001	No	2.878	-0.001	1.0	NoResponse	-1	0.288	590.959	8	62	Target	Loss	True
591.921	0.45	Lose2	0.7143	n/a	No	2.878	n/a	n/a	NoResponse	-1	n/a	n/a	8	62	Blank	Loss	True
591.959	0.3	Lose2	0.7143	0.001	No	2.878	-0.001	1.0	NoResponse	-1	0.288	n/a	8	62	ButtonPress	Loss	True
592.371	1.45	Lose2	0.7143	n/a	No	2.878	n/a	5.0	NoResponse	-1	0.04	591.411	8	62	Feedback	Loss	True
593.82	2.878	Lose2	0.7143	n/a	No	2.878	n/a	n/a	NoResponse	-1	0.0	n/a	8	62	ISIslide	Loss	True
596.719	0.25	Lose2	0.7188	0.0	Yes	2.631	0.019	n/a	GoodResponse	0	n/a	n/a	8	63	Cue	AvoidedLoss	True
596.969	4.05	Lose2	0.7188	0.0	Yes	2.631	0.0	n/a	GoodResponse	0	n/a	n/a	8	63	Fixation	AvoidedLoss	True
601.018	0.24	Lose2	0.7188	0.001	Yes	2.631	-0.001	1.0	GoodResponse	0	0.217	600.235	8	63	Target	AvoidedLoss	True
601.235	0.3	Lose2	0.7188	0.001	Yes	2.631	-0.001	1.0	GoodResponse	0	0.217	n/a	8	63	ButtonPress	AvoidedLoss	True
601.268	0.46	Lose2	0.7188	n/a	Yes	2.631	n/a	n/a	GoodResponse	0	n/a	n/a	8	63	Blank	AvoidedLoss	True
601.717	1.45	Lose2	0.7188	n/a	Yes	2.631	n/a	5.0	GoodResponse	0	0.01	600.727	8	63	Feedback	AvoidedLoss	True
603.167	2.631	Lose2	0.7188	n/a	Yes	2.631	n/a	n/a	GoodResponse	0	0.0	n/a	8	63	ISIslide	AvoidedLoss	True
605.816	0.25	Win2	0.7077	0.0	No	3.134	0.016	n/a	NoResponse	0	n/a	n/a	8	64	Cue	MissedWin	True
606.066	4.15	Win2	0.7077	0.0	No	3.134	0.0	n/a	NoResponse	0	n/a	n/a	8	64	Fixation	MissedWin	True
610.214	0.23	Win2	0.7077	0.002	No	3.134	-0.002	1.0	NoResponse	0	0.251	609.465	8	64	Target	MissedWin	True
610.448	0.47	Win2	0.7077	n/a	No	3.134	n/a	n/a	NoResponse	0	n/a	n/a	8	64	Blank	MissedWin	True
610.465	0.3	Win2	0.7077	0.002	No	3.134	-0.002	1.0	NoResponse	0	0.251	n/a	8	64	ButtonPress	MissedWin	True
610.914	1.45	Win2	0.7077	n/a	No	3.134	n/a	5.0	NoResponse	0	0.033	609.947	8	64	Feedback	MissedWin	True
612.364	3.134	Win2	0.7077	n/a	No	3.134	n/a	n/a	NoResponse	0	0.0	n/a	8	64	ISIslide	MissedWin	True
615.529	0.25	Control	0.6970000000000001	0.0	No	2.771	0.029	n/a	NoResponse	0	n/a	n/a	8	65	Cue	Neutral	True
615.779	4.0	Control	0.6970000000000001	0.0	No	2.771	0.0	n/a	NoResponse	0	n/a	n/a	8	65	Fixation	Neutral	True
619.778	0.22	Control	0.6970000000000001	0.001	No	2.771	-0.001	1.0	NoResponse	0	0.255	619.033	8	65	Target	Neutral	True
619.994	0.48	Control	0.6970000000000001	n/a	No	2.771	n/a	n/a	NoResponse	0	n/a	n/a	8	65	Blank	Neutral	True
620.033	0.3	Control	0.6970000000000001	0.001	No	2.771	-0.001	1.0	NoResponse	0	0.255	n/a	8	65	ButtonPress	Neutral	True
620.477	1.45	Control	0.6970000000000001	n/a	No	2.771	n/a	5.0	NoResponse	0	0.031	619.508	8	65	Feedback	Neutral	True
621.927	2.771	Control	0.6970000000000001	n/a	No	2.771	n/a	n/a	NoResponse	0	0.0	n/a	8	65	ISIslide	Neutral	True
624.726	0.25	Win2	0.7015	0.0	Yes	2.774	0.026	n/a	GoodResponse	1	n/a	n/a	9	66	Cue	Win	True
624.976	3.9	Win2	0.7015	0.0	Yes	2.774	0.0	n/a	GoodResponse	1	n/a	n/a	9	66	Fixation	Win	True
628.875	0.21	Win2	0.7015	0.001	Yes	2.774	-0.001	1.0	GoodResponse	1	0.107	627.982	9	66	Target	Win	True
628.982	0.3	Win2	0.7015	0.001	Yes	2.774	-0.001	1.0	GoodResponse	1	0.107	n/a	9	66	ButtonPress	Win	True
629.091	0.49	Win2	0.7015	n/a	Yes	2.774	n/a	n/a	GoodResponse	1	n/a	n/a	9	66	Blank	Win	True
629.574	1.45	Win2	0.7015	n/a	Yes	2.774	n/a	5.0	GoodResponse	1	0.007	628.581	9	66	Feedback	Win	True
631.024	2.774	Win2	0.7015	n/a	Yes	2.774	n/a	n/a	GoodResponse	1	0.0	n/a	9	66	ISIslide	Win	True
633.823	0.25	Control	0.6912	0.0	No	2.727	0.023	n/a	NoResponse	0	n/a	n/a	9	67	Cue	Neutral	True
634.073	3.95	Control	0.6912	0.0	No	2.727	0.0	n/a	NoResponse	0	n/a	n/a	9	67	Fixation	Neutral	True
638.021	0.2	Control	0.6912	0.002	No	2.727	-0.002	1.0	NoResponse	0	0.238	637.259	9	67	Target	Neutral	True
638.221	0.5	Control	0.6912	n/a	No	2.727	n/a	n/a	NoResponse	0	n/a	n/a	9	67	Blank	Neutral	True
638.259	0.3	Control	0.6912	0.002	No	2.727	-0.002	1.0	NoResponse	0	0.238	n/a	9	67	ButtonPress	Neutral	True
638.721	1.45	Control	0.6912	n/a	No	2.727	n/a	5.0	NoResponse	0	0.031	637.752	9	67	Feedback	Neutral	True
640.171	2.727	Control	0.6912	n/a	No	2.727	n/a	n/a	NoResponse	0	0.0	n/a	9	67	ISIslide	Neutral	True
642.92	0.25	Win2	0.6957	0.0	Yes	3.08	0.02	n/a	GoodResponse	1	n/a	n/a	10	68	Cue	Win	True
643.17	4.0	Win2	0.6957	0.0	Yes	3.08	0.0	n/a	GoodResponse	1	n/a	n/a	10	68	Fixation	Win	True
647.168	0.19	Win2	0.6957	0.002	Yes	3.08	-0.002	1.0	GoodResponse	1	0.141	646.309	10	68	Target	Win	True
647.309	0.3	Win2	0.6957	0.002	Yes	3.08	-0.002	1.0	GoodResponse	1	0.141	n/a	10	68	ButtonPress	Win	True
647.368	0.51	Win2	0.6957	n/a	Yes	3.08	n/a	n/a	GoodResponse	1	n/a	n/a	10	68	Blank	Win	True
647.868	1.45	Win2	0.6957	n/a	Yes	3.08	n/a	5.0	GoodResponse	1	0.007	646.875	10	68	Feedback	Win	True
649.317	3.08	Win2	0.6957	n/a	Yes	3.08	n/a	n/a	GoodResponse	1	0.0	n/a	10	68	ISIslide	Win	True
652.416	0.25	Win2	0.6857	0.0	No	3.234	0.016	n/a	LatePress	0	n/a	n/a	10	69	Cue	MissedWin	True
652.666	3.95	Win2	0.6857	0.0	No	3.234	0.0	n/a	LatePress	0	n/a	n/a	10	69	Fixation	MissedWin	True
656.615	0.18	Win2	0.6857	0.001	No	3.234	-0.001	1.0	LatePress	0	0.18	655.795	10	69	Target	MissedWin	True
656.795	0.3	Win2	0.6857	0.001	No	3.234	-0.001	1.0	LatePress	0	0.18	n/a	10	69	ButtonPress	MissedWin	True
656.798	0.52	Win2	0.6857	n/a	No	3.234	n/a	n/a	LatePress	0	n/a	n/a	10	69	Blank	MissedWin	True
657.315	1.45	Win2	0.6857	n/a	No	3.234	n/a	5.0	LatePress	0	0.022	656.337	10	69	Feedback	MissedWin	True
658.764	3.234	Win2	0.6857	n/a	No	3.234	n/a	n/a	LatePress	0	0.0	n/a	10	69	ISIslide	MissedWin	True
662.03	0.25	Lose2	0.6761	0.0	No	3.02	0.03	n/a	NoResponse	-1	n/a	n/a	9	70	Cue	Loss	True
662.28	4.05	Lose2	0.6761	0.0	No	3.02	0.0	n/a	NoResponse	-1	n/a	n/a	9	70	Fixation	Loss	True
666.328	0.17	Lose2	0.6761	0.002	No	3.02	-0.002	1.0	NoResponse	-1	0.211	665.539	9	70	Target	Loss	True
666.511	0.53	Lose2	0.6761	n/a	No	3.02	n/a	n/a	NoResponse	-1	n/a	n/a	9	70	Blank	Loss	True
666.539	0.3	Lose2	0.6761	0.002	No	3.02	-0.002	1.0	NoResponse	-1	0.211	n/a	9	70	ButtonPress	Loss	True
667.028	1.45	Lose2	0.6761	n/a	No	3.02	n/a	5.0	NoResponse	-1	0.016	666.044	9	70	Feedback	Loss	True
668.477	3.02	Lose2	0.6761	n/a	No	3.02	n/a	n/a	NoResponse	-1	0.0	n/a	9	70	ISIslide	Loss	True
671.526	0.25	Win2	0.6667000000000001	0.0	No	2.724	0.026	n/a	NoResponse	0	n/a	n/a	9	71	Cue	MissedWin	False
671.776	4.05	Win2	0.6667000000000001	0.0	No	2.724	0.0	1.0	NoResponse	0	3.91	674.686	9	71	Fixation	MissedWin	False
675.686	0.3	Win2	0.6667000000000001	0.0	No	2.724	0.0	1.0	NoResponse	0	3.91	n/a	9	71	ButtonPress	MissedWin	False
675.825	0.16	Win2	0.6667000000000001	0.001	No	2.724	-0.001	1.0	NoResponse	0	0.274	675.099	9	71	Target	MissedWin	False
675.991	0.54	Win2	0.6667000000000001	n/a	No	2.724	n/a	n/a	NoResponse	0	n/a	n/a	9	71	Blank	MissedWin	False
676.099	0.3	Win2	0.6667000000000001	0.001	No	2.724	-0.001	1.0	NoResponse	0	0.274	n/a	9	71	ButtonPress	MissedWin	False
676.525	1.45	Win2	0.6667000000000001	n/a	No	2.724	n/a	5.0	NoResponse	0	0.031	675.556	9	71	Feedback	MissedWin	False
677.974	2.724	Win2	0.6667000000000001	n/a	No	2.724	n/a	n/a	NoResponse	0	0.0	n/a	9	71	ISIslide	MissedWin	False
680.723	0.25	Win2	0.6575	0.0	No	2.777	0.023	n/a	NoResponse	0	n/a	n/a	9	72	Cue	MissedWin	True
680.973	4.1	Win2	0.6575	0.0	No	2.777	0.0	n/a	NoResponse	0	n/a	n/a	9	72	Fixation	MissedWin	True
685.072	0.15	Win2	0.6575	0.001	No	2.777	-0.001	1.0	NoResponse	0	0.222	684.294	9	72	Target	MissedWin	True
685.222	0.55	Win2	0.6575	n/a	No	2.777	n/a	n/a	NoResponse	0	n/a	n/a	9	72	Blank	MissedWin	True
685.294	0.3	Win2	0.6575	0.001	No	2.777	-0.001	1.0	NoResponse	0	0.222	n/a	9	72	ButtonPress	MissedWin	True
685.771	1.45	Win2	0.6575	n/a	No	2.777	n/a	5.0	NoResponse	0	0.007	684.778	9	72	Feedback	MissedWin	True
687.221	2.777	Win2	0.6575	n/a	No	2.777	n/a	n/a	NoResponse	0	0.0	n/a	9	72	ISIslide	MissedWin	True
690.02	0.25	Win2	0.6486	0.0	No	2.68	0.02	n/a	NoResponse	0	n/a	n/a	9	73	Cue	MissedWin	True
690.27	4.0	Win2	0.6486	0.0	No	2.68	0.0	n/a	NoResponse	0	n/a	n/a	9	73	Fixation	MissedWin	True
694.268	0.15	Win2	0.6486	0.002	No	2.68	-0.002	1.0	NoResponse	0	0.218	693.486	9	73	Target	MissedWin	True
694.418	0.55	Win2	0.6486	n/a	No	2.68	n/a	n/a	NoResponse	0	n/a	n/a	9	73	Blank	MissedWin	True
694.486	0.3	Win2	0.6486	0.002	No	2.68	-0.002	1.0	NoResponse	0	0.218	n/a	9	73	ButtonPress	MissedWin	True
694.968	1.45	Win2	0.6486	n/a	No	2.68	n/a	5.0	NoResponse	0	0.027	693.995	9	73	Feedback	MissedWin	True
696.418	2.68	Win2	0.6486	n/a	No	2.68	n/a	n/a	NoResponse	0	0.0	n/a	9	73	ISIslide	MissedWin	True
699.117	0.25	Lose2	0.64	0.0	No	2.633	0.017	n/a	NoResponse	-1	n/a	n/a	8	74	Cue	Loss	True
699.367	4.05	Lose2	0.64	0.0	No	2.633	0.0	n/a	NoResponse	-1	n/a	n/a	8	74	Fixation	Loss	True
703.415	0.16	Lose2	0.64	0.002	No	2.633	-0.002	1.0	NoResponse	-1	0.235	702.65	8	74	Target	Loss	True
703.582	0.54	Lose2	0.64	n/a	No	2.633	n/a	n/a	NoResponse	-1	n/a	n/a	8	74	Blank	Loss	True
703.65	0.3	Lose2	0.64	0.002	No	2.633	-0.002	1.0	NoResponse	-1	0.235	n/a	8	74	ButtonPress	Loss	True
704.115	1.45	Lose2	0.64	n/a	No	2.633	n/a	5.0	NoResponse	-1	0.007	703.122	8	74	Feedback	Loss	True
705.564	2.633	Lose2	0.64	n/a	No	2.633	n/a	n/a	NoResponse	-1	0.0	n/a	8	74	ISIslide	Loss	True
708.214	0.25	Lose2	0.6315999999999999	0.0	No	2.936	0.014	n/a	NoResponse	-1	n/a	n/a	7	75	Cue	Loss	True
708.463	3.95	Lose2	0.6315999999999999	0.001	No	2.936	-0.001	n/a	NoResponse	-1	n/a	n/a	7	75	Fixation	Loss	True
712.412	0.17	Lose2	0.6315999999999999	0.002	No	2.936	-0.002	1.0	NoResponse	-1	0.208	711.62	7	75	Target	Loss	True
712.595	0.53	Lose2	0.6315999999999999	n/a	No	2.936	n/a	n/a	NoResponse	-1	n/a	n/a	7	75	Blank	Loss	True
712.62	0.3	Lose2	0.6315999999999999	0.002	No	2.936	-0.002	1.0	NoResponse	-1	0.208	n/a	7	75	ButtonPress	Loss	True
713.112	1.45	Lose2	0.6315999999999999	n/a	No	2.936	n/a	5.0	NoResponse	-1	0.029	712.141	7	75	Feedback	Loss	True
714.561	2.936	Lose2	0.6315999999999999	n/a	No	2.936	n/a	n/a	NoResponse	-1	0.0	n/a	7	75	ISIslide	Loss	True
717.527	0.25	Control	0.6234000000000001	0.0	No	3.223	0.027	n/a	NoResponse	0	n/a	n/a	7	76	Cue	Neutral	True
717.777	4.05	Control	0.6234000000000001	0.0	No	3.223	0.0	n/a	NoResponse	0	n/a	n/a	7	76	Fixation	Neutral	True
721.825	0.18	Control	0.6234000000000001	0.002	No	3.223	-0.002	1.0	NoResponse	0	0.21	721.035	7	76	Target	Neutral	True
722.009	0.52	Control	0.6234000000000001	n/a	No	3.223	n/a	n/a	NoResponse	0	n/a	n/a	7	76	Blank	Neutral	True
722.035	0.3	Control	0.6234000000000001	0.002	No	3.223	-0.002	1.0	NoResponse	0	0.21	n/a	7	76	ButtonPress	Neutral	True
722.525	1.45	Control	0.6234000000000001	n/a	No	3.223	n/a	5.0	NoResponse	0	0.031	721.556	7	76	Feedback	Neutral	True
723.975	3.223	Control	0.6234000000000001	n/a	No	3.223	n/a	n/a	NoResponse	0	0.0	n/a	7	76	ISIslide	Neutral	True
727.224	0.25	Lose2	0.6154	0.0	No	2.576	0.024	n/a	NoResponse	-1	n/a	n/a	6	77	Cue	Loss	True
727.473	3.95	Lose2	0.6154	0.001	No	2.576	-0.001	n/a	NoResponse	-1	n/a	n/a	6	77	Fixation	Loss	True
731.422	0.19	Lose2	0.6154	0.002	No	2.576	-0.002	1.0	NoResponse	-1	0.252	730.674	6	77	Target	Loss	True
731.622	0.51	Lose2	0.6154	n/a	No	2.576	n/a	n/a	NoResponse	-1	n/a	n/a	6	77	Blank	Loss	True
731.674	0.3	Lose2	0.6154	0.002	No	2.576	-0.002	1.0	NoResponse	-1	0.252	n/a	6	77	ButtonPress	Loss	True
732.122	1.45	Lose2	0.6154	n/a	No	2.576	n/a	5.0	NoResponse	-1	0.044	731.166	6	77	Feedback	Loss	True
733.571	2.576	Lose2	0.6154	n/a	No	2.576	n/a	n/a	NoResponse	-1	0.0	n/a	6	77	ISIslide	Loss	True
