onset	duration	cue_type	current_mean_accuracy	duration_error	is_hit	isi_adjusted	onset_delay	response	response_type	reward	rt	rt_time	total_reward	trial_number	trial_phase	trial_type	one_press
11.111	0.25	Control	1.0	0.0	Yes	2.939	0.011	n/a	GoodResponse	0	n/a	n/a	0	0	Cue	Neutral	True
11.361	3.85	Control	1.0	0.0	Yes	2.939	0.0	n/a	GoodResponse	0	n/a	n/a	0	0	Fixation	Neutral	True
15.21	0.4	Control	1.0	0.001	Yes	2.939	-0.001	2.0	GoodResponse	0	0.201	14.411	0	0	Target	Neutral	True
15.411	0.3	Control	1.0	0.001	Yes	2.939	-0.001	2.0	GoodResponse	0	0.201	n/a	0	0	ButtonPress	Neutral	True
15.609	0.3	Control	1.0	n/a	Yes	2.939	n/a	n/a	GoodResponse	0	n/a	n/a	0	0	Blank	Neutral	True
15.909	1.45	Control	1.0	n/a	Yes	2.939	n/a	5.0	GoodResponse	0	0.018	14.927	0	0	Feedback	Neutral	True
17.359	2.939	Control	1.0	n/a	Yes	2.939	n/a	n/a	GoodResponse	0	0.0	n/a	0	0	ISIslide	Neutral	True
20.324	0.25	Lose2	1.0	0.001	Yes	2.776	0.024	n/a	GoodResponse	0	n/a	n/a	0	1	Cue	AvoidedLoss	True
20.574	4.0	Lose2	1.0	0.0	Yes	2.776	0.0	n/a	GoodResponse	0	n/a	n/a	0	1	Fixation	AvoidedLoss	True
24.573	0.39	Lose2	1.0	0.001	Yes	2.776	-0.001	2.0	GoodResponse	0	0.22	23.793	0	1	Target	AvoidedLoss	True
24.793	0.3	Lose2	1.0	0.001	Yes	2.776	-0.001	2.0	GoodResponse	0	0.22	n/a	0	1	ButtonPress	AvoidedLoss	True
24.973	0.31	Lose2	1.0	n/a	Yes	2.776	n/a	n/a	GoodResponse	0	n/a	n/a	0	1	Blank	AvoidedLoss	True
25.273	1.45	Lose2	1.0	n/a	Yes	2.776	n/a	5.0	GoodResponse	0	0.02	24.293	0	1	Feedback	AvoidedLoss	True
26.722	2.776	Lose2	1.0	n/a	Yes	2.776	n/a	n/a	GoodResponse	0	0.0	n/a	0	1	ISIslide	AvoidedLoss	True
29.521	0.25	Control	1.0	0.0	Yes	2.579	0.021	n/a	GoodResponse	0	n/a	n/a	0	2	Cue	Neutral	True
29.771	4.1	Control	1.0	0.0	Yes	2.579	0.0	n/a	GoodResponse	0	n/a	n/a	0	2	Fixation	Neutral	True
33.87	0.38	Control	1.0	0.001	Yes	2.579	-0.001	2.0	GoodResponse	0	0.208	33.078	0	2	Target	Neutral	True
34.078	0.3	Control	1.0	0.001	Yes	2.579	-0.001	2.0	GoodResponse	0	0.208	n/a	0	2	ButtonPress	Neutral	True
34.253	0.32	Control	1.0	n/a	Yes	2.579	n/a	n/a	GoodResponse	0	n/a	n/a	0	2	Blank	Neutral	True
34.57	1.45	Control	1.0	n/a	Yes	2.579	n/a	5.0	GoodResponse	0	0.04	33.61	0	2	Feedback	Neutral	True
36.019	2.579	Control	1.0	n/a	Yes	2.579	n/a	n/a	GoodResponse	0	0.0	n/a	0	2	ISIslide	Neutral	True
38.618	0.25	Win2	1.0	0.0	Yes	2.832	0.018	n/a	GoodResponse	1	n/a	n/a	1	3	Cue	Win	True
38.868	3.95	Win2	1.0	0.0	Yes	2.832	0.0	n/a	GoodResponse	1	n/a	n/a	1	3	Fixation	Win	True
42.817	0.37	Win2	1.0	0.001	Yes	2.832	-0.001	2.0	GoodResponse	1	0.198	42.015	1	3	Target	Win	True
43.015	0.3	Win2	1.0	0.001	Yes	2.832	-0.001	2.0	GoodResponse	1	0.198	n/a	1	3	ButtonPress	Win	True
43.2	0.33	Win2	1.0	n/a	Yes	2.832	n/a	n/a	GoodResponse	1	n/a	n/a	1	3	Blank	Win	True
43.516	1.45	Win2	1.0	n/a	Yes	2.832	n/a	5.0	GoodResponse	1	0.021	42.537	1	3	Feedback	Win	True
44.966	2.832	Win2	1.0	n/a	Yes	2.832	n/a	n/a	GoodResponse	1	0.0	n/a	1	3	ISIslide	Win	True
47.815	0.25	Win2	1.0	0.0	Yes	3.285	0.015	n/a	GoodResponse	1	n/a	n/a	2	4	Cue	Win	True
48.065	4.0	Win2	1.0	0.0	Yes	3.285	0.0	n/a	GoodResponse	1	n/a	n/a	2	4	Fixation	Win	True
52.064	0.36	Win2	1.0	0.001	Yes	3.285	-0.001	2.0	GoodResponse	1	0.232	51.296	2	4	Target	Win	True
52.296	0.3	Win2	1.0	0.001	Yes	3.285	-0.001	2.0	GoodResponse	1	0.232	n/a	2	4	ButtonPress	Win	True
52.43	0.34	Win2	1.0	n/a	Yes	3.285	n/a	n/a	GoodResponse	1	n/a	n/a	2	4	Blank	Win	True
52.763	1.45	Win2	1.0	n/a	Yes	3.285	n/a	5.0	GoodResponse	1	0.041	51.804	2	4	Feedback	Win	True
54.213	3.285	Win2	1.0	n/a	Yes	3.285	n/a	n/a	GoodResponse	1	0.0	n/a	2	4	ISIslide	Win	True
57.512	0.25	Win2	1.0	0.0	Yes	2.788	0.012	n/a	GoodResponse	1	n/a	n/a	3	5	Cue	Win	True
57.762	4.0	Win2	1.0	0.0	Yes	2.788	0.0	n/a	GoodResponse	1	n/a	n/a	3	5	Fixation	Win	True
61.76	0.35	Win2	1.0	0.002	Yes	2.788	-0.002	2.0	GoodResponse	1	0.194	60.954	3	5	Target	Win	True
61.954	0.3	Win2	1.0	0.002	Yes	2.788	-0.002	2.0	GoodResponse	1	0.194	n/a	3	5	ButtonPress	Win	True
62.11	0.35	Win2	1.0	n/a	Yes	2.788	n/a	n/a	GoodResponse	1	n/a	n/a	3	5	Blank	Win	True
62.46	1.45	Win2	1.0	n/a	Yes	2.788	n/a	5.0	GoodResponse	1	0.004	61.464	3	5	Feedback	Win	True
63.909	2.788	Win2	1.0	n/a	Yes	2.788	n/a	n/a	GoodResponse	1	0.0	n/a	3	5	ISIslide	Win	True
66.725	0.25	Lose2	1.0	0.0	Yes	2.725	0.025	n/a	GoodResponse	0	n/a	n/a	3	6	Cue	AvoidedLoss	True
66.975	3.95	Lose2	1.0	0.0	Yes	2.725	0.0	n/a	GoodResponse	0	n/a	n/a	3	6	Fixation	AvoidedLoss	True
70.924	0.34	Lose2	1.0	0.001	Yes	2.725	-0.001	2.0	GoodResponse	0	0.174	70.098	3	6	Target	AvoidedLoss	True
71.098	0.3	Lose2	1.0	0.001	Yes	2.725	-0.001	2.0	GoodResponse	0	0.174	n/a	3	6	ButtonPress	AvoidedLoss	True
71.274	0.36	Lose2	1.0	n/a	Yes	2.725	n/a	n/a	GoodResponse	0	n/a	n/a	3	6	Blank	AvoidedLoss	True
71.623	1.45	Lose2	1.0	n/a	Yes	2.725	n/a	5.0	GoodResponse	0	0.011	70.634	3	6	Feedback	AvoidedLoss	True
73.073	2.725	Lose2	1.0	n/a	Yes	2.725	n/a	n/a	GoodResponse	0	0.0	n/a	3	6	ISIslide	AvoidedLoss	True
75.822	0.25	Lose2	1.0	0.0	Yes	4.028	0.022	n/a	GoodResponse	0	n/a	n/a	3	7	Cue	AvoidedLoss	True
76.072	4.05	Lose2	1.0	0.0	Yes	4.028	0.0	n/a	GoodResponse	0	n/a	n/a	3	7	Fixation	AvoidedLoss	True
80.12	0.33	Lose2	1.0	0.002	Yes	4.028	-0.002	2.0	GoodResponse	0	0.22	79.34	3	7	Target	AvoidedLoss	True
80.34	0.3	Lose2	1.0	0.002	Yes	4.028	-0.002	2.0	GoodResponse	0	0.22	n/a	3	7	ButtonPress	AvoidedLoss	True
80.454	0.37	Lose2	1.0	n/a	Yes	4.028	n/a	n/a	GoodResponse	0	n/a	n/a	3	7	Blank	AvoidedLoss	True
80.82	1.45	Lose2	1.0	n/a	Yes	4.028	n/a	5.0	GoodResponse	0	0.033	79.853	3	7	Feedback	AvoidedLoss	True
82.27	4.028	Lose2	1.0	n/a	Yes	4.028	n/a	n/a	GoodResponse	0	0.0	n/a	3	7	ISIslide	AvoidedLoss	True
86.318	0.25	Lose2	1.0	0.0	Yes	3.032	0.018	n/a	GoodResponse	0	n/a	n/a	3	8	Cue	AvoidedLoss	True
86.568	3.95	Lose2	1.0	0.0	Yes	3.032	0.0	n/a	GoodResponse	0	n/a	n/a	3	8	Fixation	AvoidedLoss	True
90.517	0.32	Lose2	1.0	0.001	Yes	3.032	-0.001	2.0	GoodResponse	0	0.233	89.75	3	8	Target	AvoidedLoss	True
90.75	0.3	Lose2	1.0	0.001	Yes	3.032	-0.001	2.0	GoodResponse	0	0.233	n/a	3	8	ButtonPress	AvoidedLoss	True
90.833	0.38	Lose2	1.0	n/a	Yes	3.032	n/a	n/a	GoodResponse	0	n/a	n/a	3	8	Blank	AvoidedLoss	True
91.217	1.45	Lose2	1.0	n/a	Yes	3.032	n/a	5.0	GoodResponse	0	0.027	90.244	3	8	Feedback	AvoidedLoss	True
92.666	3.032	Lose2	1.0	n/a	Yes	3.032	n/a	n/a	GoodResponse	0	0.0	n/a	3	8	ISIslide	AvoidedLoss	True
95.715	0.25	Lose2	1.0	0.0	Yes	3.135	0.015	n/a	GoodResponse	0	n/a	n/a	3	9	Cue	AvoidedLoss	True
95.965	3.95	Lose2	1.0	0.0	Yes	3.135	0.0	n/a	GoodResponse	0	n/a	n/a	3	9	Fixation	AvoidedLoss	True
99.914	0.31	Lose2	1.0	0.001	Yes	3.135	-0.001	2.0	GoodResponse	0	0.205	99.119	3	9	Target	AvoidedLoss	True
100.119	0.3	Lose2	1.0	0.001	Yes	3.135	-0.001	2.0	GoodResponse	0	0.205	n/a	3	9	ButtonPress	AvoidedLoss	True
100.23	0.39	Lose2	1.0	n/a	Yes	3.135	n/a	n/a	GoodResponse	0	n/a	n/a	3	9	Blank	AvoidedLoss	True
100.613	1.45	Lose2	1.0	n/a	Yes	3.135	n/a	5.0	GoodResponse	0	0.046	99.659	3	9	Feedback	AvoidedLoss	True
102.063	3.135	Lose2	1.0	n/a	Yes	3.135	n/a	n/a	GoodResponse	0	0.0	n/a	3	9	ISIslide	AvoidedLoss	True
105.212	0.25	Control	1.0	0.0	Yes	3.288	0.012	n/a	GoodResponse	0	n/a	n/a	3	10	Cue	Neutral	True
105.462	4.0	Control	1.0	0.0	Yes	3.288	0.0	n/a	GoodResponse	0	n/a	n/a	3	10	Fixation	Neutral	True
109.46	0.3	Control	1.0	0.002	Yes	3.288	-0.002	2.0	GoodResponse	0	0.191	108.651	3	10	Target	Neutral	True
109.651	0.3	Control	1.0	0.002	Yes	3.288	-0.002	2.0	GoodResponse	0	0.191	n/a	3	10	ButtonPress	Neutral	True
109.76	0.4	Control	1.0	n/a	Yes	3.288	n/a	n/a	GoodResponse	0	n/a	n/a	3	10	Blank	Neutral	True
110.16	1.45	Control	1.0	n/a	Yes	3.288	n/a	5.0	GoodResponse	0	0.011	109.171	3	10	Feedback	Neutral	True
111.61	3.288	Control	1.0	n/a	Yes	3.288	n/a	n/a	GoodResponse	0	0.0	n/a	3	10	ISIslide	Neutral	True
114.925	0.25	Lose2	1.0	0.0	Yes	2.725	0.025	n/a	GoodResponse	0	n/a	n/a	3	11	Cue	AvoidedLoss	True
115.175	4.05	Lose2	1.0	0.0	Yes	2.725	0.0	n/a	GoodResponse	0	n/a	n/a	3	11	Fixation	AvoidedLoss	True
119.224	0.29	Lose2	1.0	0.001	Yes	2.725	-0.001	2.0	GoodResponse	0	0.204	118.428	3	11	Target	AvoidedLoss	True
119.428	0.3	Lose2	1.0	0.001	Yes	2.725	-0.001	2.0	GoodResponse	0	0.204	n/a	3	11	ButtonPress	AvoidedLoss	True
119.524	0.41	Lose2	1.0	n/a	Yes	2.725	n/a	n/a	GoodResponse	0	n/a	n/a	3	11	Blank	AvoidedLoss	True
119.923	1.45	Lose2	1.0	n/a	Yes	2.725	n/a	5.0	GoodResponse	0	0.004	118.927	3	11	Feedback	AvoidedLoss	True
121.373	2.725	Lose2	1.0	n/a	Yes	2.725	n/a	n/a	GoodResponse	0	0.0	n/a	3	11	ISIslide	AvoidedLoss	True
124.122	0.25	Control	1.0	0.0	Yes	2.978	0.022	n/a	GoodResponse	0	n/a	n/a	3	12	Cue	Neutral	True
124.372	3.9	Control	1.0	0.0	Yes	2.978	0.0	n/a	GoodResponse	0	n/a	n/a	3	12	Fixation	Neutral	True
128.271	0.28	Control	1.0	0.001	Yes	2.978	-0.001	2.0	GoodResponse	0	0.206	127.477	3	12	Target	Neutral	True
128.477	0.3	Control	1.0	0.001	Yes	2.978	-0.001	2.0	GoodResponse	0	0.206	n/a	3	12	ButtonPress	Neutral	True
128.554	0.42	Control	1.0	n/a	Yes	2.978	n/a	n/a	GoodResponse	0	n/a	n/a	3	12	Blank	Neutral	True
128.97	1.45	Control	1.0	n/a	Yes	2.978	n/a	5.0	GoodResponse	0	0.029	127.999	3	12	Feedback	Neutral	True
130.42	2.978	Control	1.0	n/a	Yes	2.978	n/a	n/a	GoodResponse	0	0.0	n/a	3	12	ISIslide	Neutral	True
133.419	0.25	Control	1.0	0.0	Yes	2.781	0.019	n/a	GoodResponse	0	n/a	n/a	3	13	Cue	Neutral	True
133.669	4.0	Control	1.0	0.0	Yes	2.781	0.0	n/a	GoodResponse	0	n/a	n/a	3	13	Fixation	Neutral	True
137.667	0.27	Control	1.0	0.002	Yes	2.781	-0.002	2.0	GoodResponse	0	0.193	136.86	3	13	Target	Neutral	True
137.86	0.3	Control	1.0	0.002	Yes	2.781	-0.002	2.0	GoodResponse	0	0.193	n/a	3	13	ButtonPress	Neutral	True
137.95	0.43	Control	1.0	n/a	Yes	2.781	n/a	n/a	GoodResponse	0	n/a	n/a	3	13	Blank	Neutral	True
138.367	1.45	Control	1.0	n/a	Yes	2.781	n/a	5.0	GoodResponse	0	0.047	137.414	3	13	Feedback	Neutral	True
139.816	2.781	Control	1.0	n/a	Yes	2.781	n/a	n/a	GoodResponse	0	0.0	n/a	3	13	ISIslide	Neutral	True
142.616	0.25	Win2	1.0	0.0	Yes	2.684	0.016	n/a	GoodResponse	1	n/a	n/a	4	14	Cue	Win	True
142.865	4.1	Win2	1.0	0.001	Yes	2.684	-0.001	n/a	GoodResponse	1	n/a	n/a	4	14	Fixation	Win	True
146.964	0.26	Win2	1.0	0.002	Yes	2.684	-0.002	2.0	GoodResponse	1	0.199	146.163	4	14	Target	Win	True
147.163	0.3	Win2	1.0	0.002	Yes	2.684	-0.002	2.0	GoodResponse	1	0.199	n/a	4	14	ButtonPress	Win	True
147.231	0.44	Win2	1.0	n/a	Yes	2.684	n/a	n/a	GoodResponse	1	n/a	n/a	4	14	Blank	Win	True
147.664	1.45	Win2	1.0	n/a	Yes	2.684	n/a	5.0	GoodResponse	1	0.019	146.683	4	14	Feedback	Win	True
149.113	2.684	Win2	1.0	n/a	Yes	2.684	n/a	n/a	GoodResponse	1	0.0	n/a	4	14	ISIslide	Win	True
151.812	0.25	Control	1.0	0.0	Yes	2.988	0.012	n/a	GoodResponse	0	n/a	n/a	4	15	Cue	Neutral	True
152.062	4.0	Control	1.0	0.0	Yes	2.988	0.0	n/a	GoodResponse	0	n/a	n/a	4	15	Fixation	Neutral	True
156.061	0.25	Control	1.0	0.001	Yes	2.988	-0.001	2.0	GoodResponse	0	0.202	155.263	4	15	Target	Neutral	True
156.263	0.3	Control	1.0	0.001	Yes	2.988	-0.001	2.0	GoodResponse	0	0.202	n/a	4	15	ButtonPress	Neutral	True
156.311	0.45	Control	1.0	n/a	Yes	2.988	n/a	n/a	GoodResponse	0	n/a	n/a	4	15	Blank	Neutral	True
156.761	1.45	Control	1.0	n/a	Yes	2.988	n/a	5.0	GoodResponse	0	0.044	155.805	4	15	Feedback	Neutral	True
158.21	2.988	Control	1.0	n/a	Yes	2.988	n/a	n/a	GoodResponse	0	0.0	n/a	4	15	ISIslide	Neutral	True
161.226	0.25	Win2	1.0	0.0	Yes	2.874	0.026	n/a	GoodResponse	1	n/a	n/a	5	16	Cue	Win	True
161.476	4.0	Win2	1.0	0.0	Yes	2.874	0.0	n/a	GoodResponse	1	n/a	n/a	5	16	Fixation	Win	True
165.474	0.24	Win2	1.0	0.002	Yes	2.874	-0.002	2.0	GoodResponse	1	0.188	164.662	5	16	Target	Win	True
165.662	0.3	Win2	1.0	0.002	Yes	2.874	-0.002	2.0	GoodResponse	1	0.188	n/a	5	16	ButtonPress	Win	True
165.724	0.46	Win2	1.0	n/a	Yes	2.874	n/a	n/a	GoodResponse	1	n/a	n/a	5	16	Blank	Win	True
166.174	1.45	Win2	1.0	n/a	Yes	2.874	n/a	5.0	GoodResponse	1	0.045	165.219	5	16	Feedback	Win	True
167.624	2.874	Win2	1.0	n/a	Yes	2.874	n/a	n/a	GoodResponse	1	0.0	n/a	5	16	ISIslide	Win	True
170.523	0.25	Lose2	1.0	0.0	Yes	2.727	0.023	n/a	GoodResponse	0	n/a	n/a	5	17	Cue	AvoidedLoss	True
170.772	3.95	Lose2	1.0	0.001	Yes	2.727	-0.001	n/a	GoodResponse	0	n/a	n/a	5	17	Fixation	AvoidedLoss	True
174.721	0.23	Lose2	1.0	0.002	Yes	2.727	-0.002	2.0	GoodResponse	0	0.198	173.919	5	17	Target	AvoidedLoss	True
174.919	0.3	Lose2	1.0	0.002	Yes	2.727	-0.002	2.0	GoodResponse	0	0.198	n/a	5	17	ButtonPress	AvoidedLoss	True
174.954	0.47	Lose2	1.0	n/a	Yes	2.727	n/a	n/a	GoodResponse	0	n/a	n/a	5	17	Blank	AvoidedLoss	True
175.421	1.45	Lose2	1.0	n/a	Yes	2.727	n/a	5.0	GoodResponse	0	0.017	174.438	5	17	Feedback	AvoidedLoss	True
176.87	2.727	Lose2	1.0	n/a	Yes	2.727	n/a	n/a	GoodResponse	0	0.0	n/a	5	17	ISIslide	AvoidedLoss	True
179.619	0.25	Lose2	1.0	0.0	Yes	2.731	0.019	n/a	GoodResponse	0	n/a	n/a	5	18	Cue	AvoidedLoss	True
179.869	4.05	Lose2	1.0	0.0	Yes	2.731	0.0	n/a	GoodResponse	0	n/a	n/a	5	18	Fixation	AvoidedLoss	True
183.918	0.22	Lose2	1.0	0.001	Yes	2.731	-0.001	2.0	GoodResponse	0	0.201	183.119	5	18	Target	AvoidedLoss	True
184.119	0.3	Lose2	1.0	0.001	Yes	2.731	-0.001	2.0	GoodResponse	0	0.201	n/a	5	18	ButtonPress	AvoidedLoss	True
184.135	0.48	Lose2	1.0	n/a	Yes	2.731	n/a	n/a	GoodResponse	0	n/a	n/a	5	18	Blank	AvoidedLoss	True
184.618	1.45	Lose2	1.0	n/a	Yes	2.731	n/a	5.0	GoodResponse	0	0.04	183.658	5	18	Feedback	AvoidedLoss	True
186.067	2.731	Lose2	1.0	n/a	Yes	2.731	n/a	n/a	GoodResponse	0	0.0	n/a	5	18	ISIslide	AvoidedLoss	True
188.816	0.25	Control	0.95	0.0	No	2.934	0.016	n/a	NoResponse	0	n/a	n/a	5	19	Cue	Neutral	True
189.066	3.95	Control	0.95	0.0	No	2.934	0.0	n/a	NoResponse	0	n/a	n/a	5	19	Fixation	Neutral	True
193.015	0.21	Control	0.95	0.001	No	2.934	-0.001	2.0	NoResponse	0	0.255	192.27	5	19	Target	Neutral	True
193.231	0.49	Control	0.95	n/a	No	2.934	n/a	n/a	NoResponse	0	n/a	n/a	5	19	Blank	Neutral	True
193.27	0.3	Control	0.95	0.001	No	2.934	-0.001	2.0	NoResponse	0	0.255	n/a	5	19	ButtonPress	Neutral	True
193.715	1.45	Control	0.95	n/a	No	2.934	n/a	5.0	NoResponse	0	0.016	192.731	5	19	Feedback	Neutral	True
195.164	2.934	Control	0.95	n/a	No	2.934	n/a	n/a	NoResponse	0	0.0	n/a	5	19	ISIslide	Neutral	True
198.113	0.25	Control	0.9523999999999999	0.0	Yes	2.637	0.013	n/a	GoodResponse	0	n/a	n/a	5	20	Cue	Neutral	True
198.363	4.05	Control	0.9523999999999999	0.0	Yes	2.637	0.0	n/a	GoodResponse	0	n/a	n/a	5	20	Fixation	Neutral	True
202.412	0.2	Control	0.9523999999999999	0.001	Yes	2.637	-0.001	2.0	GoodResponse	0	0.19	201.602	5	20	Target	Neutral	True
202.602	0.3	Control	0.9523999999999999	0.001	Yes	2.637	-0.001	2.0	GoodResponse	0	0.19	n/a	5	20	ButtonPress	Neutral	True
202.611	0.5	Control	0.9523999999999999	n/a	Yes	2.637	n/a	n/a	GoodResponse	0	n/a	n/a	5	20	Blank	Neutral	True
203.111	1.45	Control	0.9523999999999999	n/a	Yes	2.637	n/a	5.0	GoodResponse	0	0.035	202.146	5	20	Feedback	Neutral	True
204.561	2.637	Control	0.9523999999999999	n/a	Yes	2.637	n/a	n/a	GoodResponse	0	0.0	n/a	5	20	ISIslide	Neutral	True
207.227	0.25	Control	0.9545	0.0	Yes	2.773	0.027	n/a	GoodResponse	0	n/a	n/a	5	21	Cue	Neutral	True
207.476	4.1	Control	0.9545	0.001	Yes	2.773	-0.001	n/a	GoodResponse	0	n/a	n/a	5	21	Fixation	Neutral	True
211.575	0.19	Control	0.9545	0.002	Yes	2.773	-0.002	2.0	GoodResponse	0	0.171	210.746	5	21	Target	Neutral	True
211.746	0.3	Control	0.9545	0.002	Yes	2.773	-0.002	2.0	GoodResponse	0	0.171	n/a	5	21	ButtonPress	Neutral	True
211.775	0.51	Control	0.9545	n/a	Yes	2.773	n/a	n/a	GoodResponse	0	n/a	n/a	5	21	Blank	Neutral	True
212.275	1.45	Control	0.9545	n/a	Yes	2.773	n/a	5.0	GoodResponse	0	0.042	211.317	5	21	Feedback	Neutral	True
213.724	2.773	Control	0.9545	n/a	Yes	2.773	n/a	n/a	GoodResponse	0	0.0	n/a	5	21	ISIslide	Neutral	True
216.523	0.25	Control	0.9129999999999999	0.0	No	2.777	0.023	n/a	NoResponse	0	n/a	n/a	5	22	Cue	Neutral	True
216.773	4.0	Control	0.9129999999999999	0.0	No	2.777	0.0	n/a	NoResponse	0	n/a	n/a	5	22	Fixation	Neutral	True
220.772	0.18	Control	0.9129999999999999	0.001	No	2.777	-0.001	2.0	NoResponse	0	0.223	219.995	5	22	Target	Neutral	True
220.955	0.52	Control	0.9129999999999999	n/a	No	2.777	n/a	n/a	NoResponse	0	n/a	n/a	5	22	Blank	Neutral	True
220.995	0.3	Control	0.9129999999999999	0.001	No	2.777	-0.001	2.0	NoResponse	0	0.223	n/a	5	22	ButtonPress	Neutral	True
221.472	1.45	Control	0.9129999999999999	n/a	No	2.777	n/a	5.0	NoResponse	0	0.015	220.487	5	22	Feedback	Neutral	True
222.921	2.777	Control	0.9129999999999999	n/a	No	2.777	n/a	n/a	NoResponse	0	0.0	n/a	5	22	ISIslide	Neutral	True
225.72	0.25	Control	0.875	0.0	No	2.78	0.02	n/a	NoResponse	0	n/a	n/a	5	23	Cue	Neutral	True
225.97	3.9	Control	0.875	0.0	No	2.78	0.0	n/a	NoResponse	0	n/a	n/a	5	23	Fixation	Neutral	True
229.869	0.17	Control	0.875	0.001	No	2.78	-0.001	2.0	NoResponse	0	0.215	229.084	5	23	Target	Neutral	True
230.052	0.53	Control	0.875	n/a	No	2.78	n/a	n/a	NoResponse	0	n/a	n/a	5	23	Blank	Neutral	True
230.084	0.3	Control	0.875	0.001	No	2.78	-0.001	2.0	NoResponse	0	0.215	n/a	5	23	ButtonPress	Neutral	True
230.568	1.45	Control	0.875	n/a	No	2.78	n/a	5.0	NoResponse	0	0.04	229.608	5	23	Feedback	Neutral	True
232.018	2.78	Control	0.875	n/a	No	2.78	n/a	n/a	NoResponse	0	0.0	n/a	5	23	ISIslide	Neutral	True
234.817	0.25	Win2	0.84	0.0	No	3.133	0.017	n/a	NoResponse	0	n/a	n/a	5	24	Cue	MissedWin	True
235.067	3.95	Win2	0.84	0.0	No	3.133	0.0	n/a	NoResponse	0	n/a	n/a	5	24	Fixation	MissedWin	True
239.016	0.16	Win2	0.84	0.001	No	3.133	-0.001	2.0	NoResponse	0	0.18	238.196	5	24	Target	MissedWin	True
239.182	0.54	Win2	0.84	n/a	No	3.133	n/a	n/a	NoResponse	0	n/a	n/a	5	24	Blank	MissedWin	True
239.196	0.3	Win2	0.84	0.001	No	3.133	-0.001	2.0	NoResponse	0	0.18	n/a	5	24	ButtonPress	MissedWin	True
239.715	1.45	Win2	0.84	n/a	No	3.133	n/a	5.0	NoResponse	0	0.016	238.731	5	24	Feedback	MissedWin	True
241.165	3.133	Win2	0.84	n/a	No	3.133	n/a	n/a	NoResponse	0	0.0	n/a	5	24	ISIslide	MissedWin	True
244.314	0.25	Win2	0.8077	0.0	No	3.086	0.014	n/a	NoResponse	0	n/a	n/a	5	25	Cue	MissedWin	True
244.564	4.0	Win2	0.8077	0.0	No	3.086	0.0	n/a	NoResponse	0	n/a	n/a	5	25	Fixation	MissedWin	True
248.562	0.15	Win2	0.8077	0.002	No	3.086	-0.002	2.0	NoResponse	0	0.198	247.76	5	25	Target	MissedWin	True
248.712	0.55	Win2	0.8077	n/a	No	3.086	n/a	n/a	NoResponse	0	n/a	n/a	5	25	Blank	MissedWin	True
248.76	0.3	Win2	0.8077	0.002	No	3.086	-0.002	2.0	NoResponse	0	0.198	n/a	5	25	ButtonPress	MissedWin	True
249.262	1.45	Win2	0.8077	n/a	No	3.086	n/a	5.0	NoResponse	0	0.03	248.292	5	25	Feedback	MissedWin	True
250.711	3.086	Win2	0.8077	n/a	No	3.086	n/a	n/a	NoResponse	0	0.0	n/a	5	25	ISIslide	MissedWin	True
253.827	0.25	Win2	0.7778	0.0	No	2.923	0.027	n/a	NoResponse	0	n/a	n/a	5	26	Cue	MissedWin	True
254.077	3.95	Win2	0.7778	0.0	No	2.923	0.0	n/a	NoResponse	0	n/a	n/a	5	26	Fixation	MissedWin	True
258.026	0.15	Win2	0.7778	0.001	No	2.923	-0.001	2.0	NoResponse	0	0.17	257.196	5	26	Target	MissedWin	True
258.176	0.55	Win2	0.7778	n/a	No	2.923	n/a	n/a	NoResponse	0	n/a	n/a	5	26	Blank	MissedWin	True
258.196	0.3	Win2	0.7778	0.001	No	2.923	-0.001	2.0	NoResponse	0	0.17	n/a	5	26	ButtonPress	MissedWin	True
258.725	1.45	Win2	0.7778	n/a	No	2.923	n/a	5.0	NoResponse	0	0.03	257.755	5	26	Feedback	MissedWin	True
260.175	2.923	Win2	0.7778	n/a	No	2.923	n/a	n/a	NoResponse	0	0.0	n/a	5	26	ISIslide	MissedWin	True
263.124	0.25	Lose2	0.75	0.0	No	2.826	0.024	n/a	NoResponse	-1	n/a	n/a	4	27	Cue	Loss	True
263.374	4.05	Lose2	0.75	0.0	No	2.826	0.0	n/a	NoResponse	-1	n/a	n/a	4	27	Fixation	Loss	True
267.422	0.15	Lose2	0.75	0.002	No	2.826	-0.002	2.0	NoResponse	-1	0.182	266.604	4	27	Target	Loss	True
267.572	0.55	Lose2	0.75	n/a	No	2.826	n/a	n/a	NoResponse	-1	n/a	n/a	4	27	Blank	Loss	True
267.604	0.3	Lose2	0.75	0.002	No	2.826	-0.002	2.0	NoResponse	-1	0.182	n/a	4	27	ButtonPress	Loss	True
268.122	1.45	Lose2	0.75	n/a	No	2.826	n/a	5.0	NoResponse	-1	0.048	267.17	4	27	Feedback	Loss	True
269.572	2.826	Lose2	0.75	n/a	No	2.826	n/a	n/a	NoResponse	-1	0.0	n/a	4	27	ISIslide	Loss	True
272.421	0.25	Control	0.7241	0.0	No	2.829	0.021	n/a	NoResponse	0	n/a	n/a	4	28	Cue	Neutral	True
272.671	4.05	Control	0.7241	0.0	No	2.829	0.0	n/a	NoResponse	0	n/a	n/a	4	28	Fixation	Neutral	True
276.719	0.15	Control	0.7241	0.002	No	2.829	-0.002	2.0	NoResponse	0	0.17	275.889	4	28	Target	Neutral	True
276.869	0.55	Control	0.7241	n/a	No	2.829	n/a	n/a	NoResponse	0	n/a	n/a	4	28	Blank	Neutral	True
276.889	0.3	Control	0.7241	0.002	No	2.829	-0.002	2.0	NoResponse	0	0.17	n/a	4	28	ButtonPress	Neutral	True
277.419	1.45	Control	0.7241	n/a	No	2.829	n/a	5.0	NoResponse	0	0.019	276.438	4	28	Feedback	Neutral	True
278.868	2.829	Control	0.7241	n/a	No	2.829	n/a	n/a	NoResponse	0	0.0	n/a	4	28	ISIslide	Neutral	True
281.717	0.25	Lose2	0.7	0.001	No	2.833	0.017	n/a	NoResponse	-1	n/a	n/a	3	29	Cue	Loss	True
281.967	3.95	Lose2	0.7	0.0	No	2.833	0.0	n/a	NoResponse	-1	n/a	n/a	3	29	Fixation	Loss	True
285.916	0.15	Lose2	0.7	0.001	No	2.833	-0.001	2.0	NoResponse	-1	0.186	285.102	3	29	Target	Loss	True
286.066	0.55	Lose2	0.7	n/a	No	2.833	n/a	n/a	NoResponse	-1	n/a	n/a	3	29	Blank	Loss	True
286.102	0.3	Lose2	0.7	0.001	No	2.833	-0.001	2.0	NoResponse	-1	0.186	n/a	3	29	ButtonPress	Loss	True
286.616	1.45	Lose2	0.7	n/a	No	2.833	n/a	5.0	NoResponse	-1	0.042	285.658	3	29	Feedback	Loss	True
288.065	2.833	Lose2	0.7	n/a	No	2.833	n/a	n/a	NoResponse	-1	0.0	n/a	3	29	ISIslide	Loss	True
290.914	0.25	Win2	0.6774	0.0	No	2.786	0.014	n/a	NoResponse	0	n/a	n/a	3	30	Cue	MissedWin	True
291.164	3.9	Win2	0.6774	0.0	No	2.786	0.0	n/a	NoResponse	0	n/a	n/a	3	30	Fixation	MissedWin	True
295.063	0.15	Win2	0.6774	0.001	No	2.786	-0.001	2.0	NoResponse	0	0.2	294.263	3	30	Target	MissedWin	True
295.213	0.55	Win2	0.6774	n/a	No	2.786	n/a	n/a	NoResponse	0	n/a	n/a	3	30	Blank	MissedWin	True
295.263	0.3	Win2	0.6774	0.001	No	2.786	-0.001	2.0	NoResponse	0	0.2	n/a	3	30	ButtonPress	MissedWin	True
295.763	1.45	Win2	0.6774	n/a	No	2.786	n/a	5.0	NoResponse	0	0.016	294.779	3	30	Feedback	MissedWin	True
297.212	2.786	Win2	0.6774	n/a	No	2.786	n/a	n/a	NoResponse	0	0.0	n/a	3	30	ISIslide	MissedWin	True
300.011	0.25	Lose2	0.6562	0.0	No	2.839	0.011	n/a	PrematurePress	-1	n/a	n/a	2	31	Cue	Loss	True
300.261	4.05	Lose2	0.6562	0.0	No	2.839	0.0	n/a	PrematurePress	-1	n/a	n/a	2	31	Fixation	Loss	True
304.31	0.15	Lose2	0.6562	0.001	No	2.839	-0.001	2.0	PrematurePress	-1	0.025	303.335	2	31	Target	Loss	True
304.335	0.3	Lose2	0.6562	0.001	No	2.839	-0.001	2.0	PrematurePress	-1	0.025	n/a	2	31	ButtonPress	Loss	True
304.46	0.55	Lose2	0.6562	n/a	No	2.839	n/a	n/a	PrematurePress	-1	n/a	n/a	2	31	Blank	Loss	True
305.009	1.45	Lose2	0.6562	n/a	No	2.839	n/a	5.0	PrematurePress	-1	0.038	304.047	2	31	Feedback	Loss	True
306.459	2.839	Lose2	0.6562	n/a	No	2.839	n/a	n/a	PrematurePress	-1	0.0	n/a	2	31	ISIslide	Loss	True
309.325	0.25	Lose2	0.6364	0.0	No	2.625	0.025	n/a	NoResponse	-1	n/a	n/a	1	32	Cue	Loss	True
309.574	4.15	Lose2	0.6364	0.001	No	2.625	-0.001	n/a	NoResponse	-1	n/a	n/a	1	32	Fixation	Loss	True
313.723	0.15	Lose2	0.6364	0.002	No	2.625	-0.002	2.0	NoResponse	-1	0.177	312.9	1	32	Target	Loss	True
313.873	0.55	Lose2	0.6364	n/a	No	2.625	n/a	n/a	NoResponse	-1	n/a	n/a	1	32	Blank	Loss	True
313.9	0.3	Lose2	0.6364	0.002	No	2.625	-0.002	2.0	NoResponse	-1	0.177	n/a	1	32	ButtonPress	Loss	True
314.423	1.45	Lose2	0.6364	n/a	No	2.625	n/a	5.0	NoResponse	-1	0.039	313.462	1	32	Feedback	Loss	True
315.872	2.625	Lose2	0.6364	n/a	No	2.625	n/a	n/a	NoResponse	-1	0.0	n/a	1	32	ISIslide	Loss	True
318.521	0.25	Win2	0.6175999999999999	0.0	No	2.679	0.021	n/a	NoResponse	0	n/a	n/a	1	33	Cue	MissedWin	True
318.771	4.0	Win2	0.6175999999999999	0.0	No	2.679	0.0	n/a	NoResponse	0	n/a	n/a	1	33	Fixation	MissedWin	True
322.77	0.16	Win2	0.6175999999999999	0.001	No	2.679	-0.001	2.0	NoResponse	0	0.19	321.96	1	33	Target	MissedWin	True
322.937	0.54	Win2	0.6175999999999999	n/a	No	2.679	n/a	n/a	NoResponse	0	n/a	n/a	1	33	Blank	MissedWin	True
322.96	0.3	Win2	0.6175999999999999	0.001	No	2.679	-0.001	2.0	NoResponse	0	0.19	n/a	1	33	ButtonPress	MissedWin	True
323.47	1.45	Win2	0.6175999999999999	n/a	No	2.679	n/a	5.0	NoResponse	0	0.017	322.487	1	33	Feedback	MissedWin	True
324.919	2.679	Win2	0.6175999999999999	n/a	No	2.679	n/a	n/a	NoResponse	0	0.0	n/a	1	33	ISIslide	MissedWin	True
327.618	0.25	Lose2	0.6	0.0	No	2.632	0.018	n/a	NoResponse	-1	n/a	n/a	0	34	Cue	Loss	True
327.868	4.05	Lose2	0.6	0.0	No	2.632	0.0	2.0	NoResponse	-1	4.021	330.889	0	34	Fixation	Loss	True
331.889	0.3	Lose2	0.6	0.0	No	2.632	0.0	2.0	NoResponse	-1	4.021	n/a	0	34	ButtonPress	Loss	True
331.917	0.17	Lose2	0.6	0.001	No	2.632	-0.001	n/a	NoResponse	-1	n/a	n/a	0	34	Target	Loss	True
332.083	0.53	Lose2	0.6	n/a	No	2.632	n/a	n/a	NoResponse	-1	n/a	n/a	0	34	Blank	Loss	True
332.617	1.45	Lose2	0.6	n/a	No	2.632	n/a	5.0	NoResponse	-1	0.041	331.658	0	34	Feedback	Loss	True
334.066	2.632	Lose2	0.6	n/a	No	2.632	n/a	n/a	NoResponse	-1	0.0	n/a	0	34	ISIslide	Loss	True
336.715	0.25	Lose2	0.6111	0.0	Yes	2.685	0.015	n/a	GoodResponse	0	n/a	n/a	0	35	Cue	AvoidedLoss	True
336.965	4.0	Lose2	0.6111	0.0	Yes	2.685	0.0	n/a	GoodResponse	0	n/a	n/a	0	35	Fixation	AvoidedLoss	True
340.964	0.18	Lose2	0.6111	0.001	Yes	2.685	-0.001	2.0	GoodResponse	0	0.171	340.135	0	35	Target	AvoidedLoss	True
341.135	0.3	Lose2	0.6111	0.001	Yes	2.685	-0.001	2.0	GoodResponse	0	0.171	n/a	0	35	ButtonPress	AvoidedLoss	True
341.147	0.52	Lose2	0.6111	n/a	Yes	2.685	n/a	n/a	GoodResponse	0	n/a	n/a	0	35	Blank	AvoidedLoss	True
341.663	1.45	Lose2	0.6111	n/a	Yes	2.685	n/a	5.0	GoodResponse	0	0.019	340.682	0	35	Feedback	AvoidedLoss	True
343.113	2.685	Lose2	0.6111	n/a	Yes	2.685	n/a	n/a	GoodResponse	0	0.0	n/a	0	35	ISIslide	AvoidedLoss	True
345.812	0.25	Control	0.6215999999999999	0.0	Yes	2.688	0.012	n/a	GoodResponse	0	n/a	n/a	0	36	Cue	Neutral	True
346.062	4.0	Control	0.6215999999999999	0.0	Yes	2.688	0.0	n/a	GoodResponse	0	n/a	n/a	0	36	Fixation	Neutral	True
350.06	0.19	Control	0.6215999999999999	0.002	Yes	2.688	-0.002	2.0	GoodResponse	0	0.184	349.244	0	36	Target	Neutral	True
350.244	0.3	Control	0.6215999999999999	0.002	Yes	2.688	-0.002	2.0	GoodResponse	0	0.184	n/a	0	36	ButtonPress	Neutral	True
350.26	0.51	Control	0.6215999999999999	n/a	Yes	2.688	n/a	n/a	GoodResponse	0	n/a	n/a	0	36	Blank	Neutral	True
350.76	1.45	Control	0.6215999999999999	n/a	Yes	2.688	n/a	5.0	GoodResponse	0	0.043	349.803	0	36	Feedback	Neutral	True
352.21	2.688	Control	0.6215999999999999	n/a	Yes	2.688	n/a	n/a	GoodResponse	0	0.0	n/a	0	36	ISIslide	Neutral	True
354.925	0.25	Win2	0.6315999999999999	0.001	Yes	2.875	0.025	n/a	GoodResponse	1	n/a	n/a	1	37	Cue	Win	True
355.175	4.0	Win2	0.6315999999999999	0.0	Yes	2.875	0.0	n/a	GoodResponse	1	n/a	n/a	1	37	Fixation	Win	True
359.174	0.2	Win2	0.6315999999999999	0.001	Yes	2.875	-0.001	2.0	GoodResponse	1	0.192	358.366	1	37	Target	Win	True
359.366	0.3	Win2	0.6315999999999999	0.001	Yes	2.875	-0.001	2.0	GoodResponse	1	0.192	n/a	1	37	ButtonPress	Win	True
359.374	0.5	Win2	0.6315999999999999	n/a	Yes	2.875	n/a	n/a	GoodResponse	1	n/a	n/a	1	37	Blank	Win	True
359.874	1.45	Win2	0.6315999999999999	n/a	Yes	2.875	n/a	5.0	GoodResponse	1	0.004	358.878	1	37	Feedback	Win	True
361.323	2.875	Win2	0.6315999999999999	n/a	Yes	2.875	n/a	n/a	GoodResponse	1	0.0	n/a	1	37	ISIslide	Win	True
364.222	0.25	Lose2	0.6409999999999999	0.0	Yes	2.828	0.022	n/a	GoodResponse	0	n/a	n/a	1	38	Cue	AvoidedLoss	True
364.472	3.95	Lose2	0.6409999999999999	0.0	Yes	2.828	0.0	n/a	GoodResponse	0	n/a	n/a	1	38	Fixation	AvoidedLoss	True
368.421	0.21	Lose2	0.6409999999999999	0.001	Yes	2.828	-0.001	2.0	GoodResponse	0	0.183	367.604	1	38	Target	AvoidedLoss	True
368.604	0.3	Lose2	0.6409999999999999	0.001	Yes	2.828	-0.001	2.0	GoodResponse	0	0.183	n/a	1	38	ButtonPress	AvoidedLoss	True
368.637	0.49	Lose2	0.6409999999999999	n/a	Yes	2.828	n/a	n/a	GoodResponse	0	n/a	n/a	1	38	Blank	AvoidedLoss	True
369.121	1.45	Lose2	0.6409999999999999	n/a	Yes	2.828	n/a	5.0	GoodResponse	0	0.024	368.145	1	38	Feedback	AvoidedLoss	True
370.57	2.828	Lose2	0.6409999999999999	n/a	Yes	2.828	n/a	n/a	GoodResponse	0	0.0	n/a	1	38	ISIslide	AvoidedLoss	True
373.419	0.25	Win2	0.65	0.0	Yes	2.981	0.019	n/a	GoodResponse	1	n/a	n/a	2	39	Cue	Win	True
373.669	4.1	Win2	0.65	0.0	Yes	2.981	0.0	n/a	GoodResponse	1	n/a	n/a	2	39	Fixation	Win	True
377.768	0.22	Win2	0.65	0.001	Yes	2.981	-0.001	2.0	GoodResponse	1	0.178	376.946	2	39	Target	Win	True
377.946	0.3	Win2	0.65	0.001	Yes	2.981	-0.001	2.0	GoodResponse	1	0.178	n/a	2	39	ButtonPress	Win	True
378.001	0.48	Win2	0.65	n/a	Yes	2.981	n/a	n/a	GoodResponse	1	n/a	n/a	2	39	Blank	Win	True
378.467	1.45	Win2	0.65	n/a	Yes	2.981	n/a	5.0	GoodResponse	1	0.001	377.468	2	39	Feedback	Win	True
379.917	2.981	Win2	0.65	n/a	Yes	2.981	n/a	n/a	GoodResponse	1	0.0	n/a	2	39	ISIslide	Win	True
382.916	0.25	Win2	0.6585	0.0	Yes	2.734	0.016	n/a	GoodResponse	1	n/a	n/a	3	40	Cue	Win	True
383.166	3.95	Win2	0.6585	0.0	Yes	2.734	0.0	n/a	GoodResponse	1	n/a	n/a	3	40	Fixation	Win	True
387.114	0.23	Win2	0.6585	0.002	Yes	2.734	-0.002	2.0	GoodResponse	1	0.208	386.322	3	40	Target	Win	True
387.322	0.3	Win2	0.6585	0.002	Yes	2.734	-0.002	2.0	GoodResponse	1	0.208	n/a	3	40	ButtonPress	Win	True
387.348	0.47	Win2	0.6585	n/a	Yes	2.734	n/a	n/a	GoodResponse	1	n/a	n/a	3	40	Blank	Win	True
387.814	1.45	Win2	0.6585	n/a	Yes	2.734	n/a	5.0	GoodResponse	1	0.014	386.828	3	40	Feedback	Win	True
389.264	2.734	Win2	0.6585	n/a	Yes	2.734	n/a	n/a	GoodResponse	1	0.0	n/a	3	40	ISIslide	Win	True
392.029	0.25	Win2	0.6667000000000001	0.0	Yes	2.771	0.029	n/a	GoodResponse	1	n/a	n/a	4	41	Cue	Win	True
392.279	3.9	Win2	0.6667000000000001	0.0	Yes	2.771	0.0	n/a	GoodResponse	1	n/a	n/a	4	41	Fixation	Win	True
396.178	0.23	Win2	0.6667000000000001	0.001	Yes	2.771	-0.001	2.0	GoodResponse	1	0.19	395.368	4	41	Target	Win	True
396.368	0.3	Win2	0.6667000000000001	0.001	Yes	2.771	-0.001	2.0	GoodResponse	1	0.19	n/a	4	41	ButtonPress	Win	True
396.411	0.47	Win2	0.6667000000000001	n/a	Yes	2.771	n/a	n/a	GoodResponse	1	n/a	n/a	4	41	Blank	Win	True
396.878	1.45	Win2	0.6667000000000001	n/a	Yes	2.771	n/a	5.0	GoodResponse	1	0.023	395.901	4	41	Feedback	Win	True
398.327	2.771	Win2	0.6667000000000001	n/a	Yes	2.771	n/a	n/a	GoodResponse	1	0.0	n/a	4	41	ISIslide	Win	True
401.126	0.25	Control	0.6744	0.0	Yes	2.924	0.026	n/a	GoodResponse	0	n/a	n/a	4	42	Cue	Neutral	True
401.376	3.85	Control	0.6744	0.0	Yes	2.924	0.0	n/a	GoodResponse	0	n/a	n/a	4	42	Fixation	Neutral	True
405.225	0.22	Control	0.6744	0.001	Yes	2.924	-0.001	2.0	GoodResponse	0	0.187	404.412	4	42	Target	Neutral	True
405.412	0.3	Control	0.6744	0.001	Yes	2.924	-0.001	2.0	GoodResponse	0	0.187	n/a	4	42	ButtonPress	Neutral	True
405.458	0.48	Control	0.6744	n/a	Yes	2.924	n/a	n/a	GoodResponse	0	n/a	n/a	4	42	Blank	Neutral	True
405.924	1.45	Control	0.6744	n/a	Yes	2.924	n/a	5.0	GoodResponse	0	0.002	404.926	4	42	Feedback	Neutral	True
407.374	2.924	Control	0.6744	n/a	Yes	2.924	n/a	n/a	GoodResponse	0	0.0	n/a	4	42	ISIslide	Neutral	True
410.323	0.25	Win2	0.6818000000000001	0.0	Yes	3.177	0.023	n/a	GoodResponse	1	n/a	n/a	5	43	Cue	Win	True
410.573	4.0	Win2	0.6818000000000001	0.0	Yes	3.177	0.0	n/a	GoodResponse	1	n/a	n/a	5	43	Fixation	Win	True
414.572	0.21	Win2	0.6818000000000001	0.001	Yes	3.177	-0.001	2.0	GoodResponse	1	0.181	413.753	5	43	Target	Win	True
414.753	0.3	Win2	0.6818000000000001	0.001	Yes	3.177	-0.001	2.0	GoodResponse	1	0.181	n/a	5	43	ButtonPress	Win	True
414.788	0.49	Win2	0.6818000000000001	n/a	Yes	3.177	n/a	n/a	GoodResponse	1	n/a	n/a	5	43	Blank	Win	True
415.271	1.45	Win2	0.6818000000000001	n/a	Yes	3.177	n/a	5.0	GoodResponse	1	0.02	414.291	5	43	Feedback	Win	True
416.721	3.177	Win2	0.6818000000000001	n/a	Yes	3.177	n/a	n/a	GoodResponse	1	0.0	n/a	5	43	ISIslide	Win	True
419.92	0.25	Win2	0.6889	0.0	Yes	2.98	0.02	n/a	GoodResponse	1	n/a	n/a	6	44	Cue	Win	True
420.17	4.0	Win2	0.6889	0.0	Yes	2.98	0.0	n/a	GoodResponse	1	n/a	n/a	6	44	Fixation	Win	True
424.168	0.2	Win2	0.6889	0.002	Yes	2.98	-0.002	2.0	GoodResponse	1	0.121	423.289	6	44	Target	Win	True
424.289	0.3	Win2	0.6889	0.002	Yes	2.98	-0.002	2.0	GoodResponse	1	0.121	n/a	6	44	ButtonPress	Win	True
424.368	0.5	Win2	0.6889	n/a	Yes	2.98	n/a	n/a	GoodResponse	1	n/a	n/a	6	44	Blank	Win	True
424.868	1.45	Win2	0.6889	n/a	Yes	2.98	n/a	5.0	GoodResponse	1	0.033	423.901	6	44	Feedback	Win	True
426.317	2.98	Win2	0.6889	n/a	Yes	2.98	n/a	n/a	GoodResponse	1	0.0	n/a	6	44	ISIslide	Win	True
429.316	0.25	Control	0.6957	0.001	Yes	2.884	0.016	n/a	GoodResponse	0	n/a	n/a	6	45	Cue	Neutral	True
429.566	4.1	Control	0.6957	0.0	Yes	2.884	0.0	n/a	GoodResponse	0	n/a	n/a	6	45	Fixation	Neutral	True
433.665	0.19	Control	0.6957	0.001	Yes	2.884	-0.001	2.0	GoodResponse	0	0.18	432.845	6	45	Target	Neutral	True
433.845	0.3	Control	0.6957	0.001	Yes	2.884	-0.001	2.0	GoodResponse	0	0.18	n/a	6	45	ButtonPress	Neutral	True
433.865	0.51	Control	0.6957	n/a	Yes	2.884	n/a	n/a	GoodResponse	0	n/a	n/a	6	45	Blank	Neutral	True
434.365	1.45	Control	0.6957	n/a	Yes	2.884	n/a	5.0	GoodResponse	0	0.048	433.413	6	45	Feedback	Neutral	True
435.814	2.884	Control	0.6957	n/a	Yes	2.884	n/a	n/a	GoodResponse	0	0.0	n/a	6	45	ISIslide	Neutral	True
438.73	0.25	Lose2	0.6809000000000001	0.0	No	3.37	0.03	n/a	NoResponse	-1	n/a	n/a	5	46	Cue	Loss	False
438.98	4.0	Lose2	0.6809000000000001	0.0	No	3.37	0.0	2.0	NoResponse	-1	3.888	441.868	5	46	Fixation	Loss	False
442.868	0.3	Lose2	0.6809000000000001	0.0	No	3.37	0.0	2.0	NoResponse	-1	3.888	n/a	5	46	ButtonPress	Loss	False
442.978	0.18	Lose2	0.6809000000000001	0.002	No	3.37	-0.002	2.0	NoResponse	-1	0.265	442.243	5	46	Target	Loss	False
443.162	0.52	Lose2	0.6809000000000001	n/a	No	3.37	n/a	n/a	NoResponse	-1	n/a	n/a	5	46	Blank	Loss	False
443.243	0.3	Lose2	0.6809000000000001	0.002	No	3.37	-0.002	2.0	NoResponse	-1	0.265	n/a	5	46	ButtonPress	Loss	False
443.678	1.45	Lose2	0.6809000000000001	n/a	No	3.37	n/a	5.0	NoResponse	-1	0.007	442.685	5	46	Feedback	Loss	False
445.128	3.37	Lose2	0.6809000000000001	n/a	No	3.37	n/a	n/a	NoResponse	-1	0.0	n/a	5	46	ISIslide	Loss	False
448.526	0.25	Lose2	0.6667000000000001	0.001	No	2.674	0.026	n/a	NoResponse	-1	n/a	n/a	4	47	Cue	Loss	True
448.776	4.0	Lose2	0.6667000000000001	0.0	No	2.674	0.0	n/a	NoResponse	-1	n/a	n/a	4	47	Fixation	Loss	True
452.775	0.17	Lose2	0.6667000000000001	0.001	No	2.674	-0.001	2.0	NoResponse	-1	0.179	451.954	4	47	Target	Loss	True
452.942	0.53	Lose2	0.6667000000000001	n/a	No	2.674	n/a	n/a	NoResponse	-1	n/a	n/a	4	47	Blank	Loss	True
452.954	0.3	Lose2	0.6667000000000001	0.001	No	2.674	-0.001	2.0	NoResponse	-1	0.179	n/a	4	47	ButtonPress	Loss	True
453.475	1.45	Lose2	0.6667000000000001	n/a	No	2.674	n/a	5.0	NoResponse	-1	0.011	452.486	4	47	Feedback	Loss	True
454.924	2.674	Lose2	0.6667000000000001	n/a	No	2.674	n/a	n/a	NoResponse	-1	0.0	n/a	4	47	ISIslide	Loss	True
457.623	0.25	Lose2	0.6735	0.0	Yes	3.027	0.023	n/a	GoodResponse	0	n/a	n/a	4	48	Cue	AvoidedLoss	True
457.873	3.95	Lose2	0.6735	0.0	Yes	3.027	0.0	n/a	GoodResponse	0	n/a	n/a	4	48	Fixation	AvoidedLoss	True
461.822	0.16	Lose2	0.6735	0.001	Yes	3.027	-0.001	2.0	GoodResponse	0	0.145	460.967	4	48	Target	AvoidedLoss	True
461.967	0.3	Lose2	0.6735	0.001	Yes	3.027	-0.001	2.0	GoodResponse	0	0.145	n/a	4	48	ButtonPress	AvoidedLoss	True
461.988	0.54	Lose2	0.6735	n/a	Yes	3.027	n/a	n/a	GoodResponse	0	n/a	n/a	4	48	Blank	AvoidedLoss	True
462.522	1.45	Lose2	0.6735	n/a	Yes	3.027	n/a	5.0	GoodResponse	0	0.038	461.56	4	48	Feedback	AvoidedLoss	True
463.971	3.027	Lose2	0.6735	n/a	Yes	3.027	n/a	n/a	GoodResponse	0	0.0	n/a	4	48	ISIslide	AvoidedLoss	True
467.02	0.25	Control	0.66	0.0	No	2.88	0.02	n/a	NoResponse	0	n/a	n/a	4	49	Cue	Neutral	True
467.27	4.0	Control	0.66	0.0	No	2.88	0.0	n/a	NoResponse	0	n/a	n/a	4	49	Fixation	Neutral	True
471.269	0.15	Control	0.66	0.001	No	2.88	-0.001	2.0	NoResponse	0	0.195	470.464	4	49	Target	Neutral	True
471.419	0.55	Control	0.66	n/a	No	2.88	n/a	n/a	NoResponse	0	n/a	n/a	4	49	Blank	Neutral	True
471.464	0.3	Control	0.66	0.001	No	2.88	-0.001	2.0	NoResponse	0	0.195	n/a	4	49	ButtonPress	Neutral	True
471.968	1.45	Control	0.66	n/a	No	2.88	n/a	5.0	NoResponse	0	0.006	470.974	4	49	Feedback	Neutral	True
473.418	2.88	Control	0.66	n/a	No	2.88	n/a	n/a	NoResponse	0	0.0	n/a	4	49	ISIslide	Neutral	True
476.317	0.25	Control	0.6470999999999999	0.0	No	2.783	0.017	n/a	NoResponse	0	n/a	n/a	4	50	Cue	Neutral	True
476.567	4.0	Control	0.6470999999999999	0.0	No	2.783	0.0	n/a	NoResponse	0	n/a	n/a	4	50	Fixation	Neutral	True
480.565	0.15	Control	0.6470999999999999	0.002	No	2.783	-0.002	2.0	NoResponse	0	0.161	479.726	4	50	Target	Neutral	True
480.715	0.55	Control	0.6470999999999999	n/a	No	2.783	n/a	n/a	NoResponse	0	n/a	n/a	4	50	Blank	Neutral	True
480.726	0.3	Control	0.6470999999999999	0.002	No	2.783	-0.002	2.0	NoResponse	0	0.161	n/a	4	50	ButtonPress	Neutral	True
481.265	1.45	Control	0.6470999999999999	n/a	No	2.783	n/a	5.0	NoResponse	0	0.026	480.291	4	50	Feedback	Neutral	True
482.715	2.783	Control	0.6470999999999999	n/a	No	2.783	n/a	n/a	NoResponse	0	0.0	n/a	4	50	ISIslide	Neutral	True
485.514	0.25	Control	0.6346	0.0	No	2.736	0.014	n/a	NoResponse	0	n/a	n/a	4	51	Cue	Neutral	True
485.764	3.95	Control	0.6346	0.0	No	2.736	0.0	n/a	NoResponse	0	n/a	n/a	4	51	Fixation	Neutral	True
489.712	0.16	Control	0.6346	0.002	No	2.736	-0.002	2.0	NoResponse	0	0.194	488.906	4	51	Target	Neutral	True
489.879	0.54	Control	0.6346	n/a	No	2.736	n/a	n/a	NoResponse	0	n/a	n/a	4	51	Blank	Neutral	True
489.906	0.3	Control	0.6346	0.002	No	2.736	-0.002	2.0	NoResponse	0	0.194	n/a	4	51	ButtonPress	Neutral	True
490.412	1.45	Control	0.6346	n/a	No	2.736	n/a	5.0	NoResponse	0	0.001	489.413	4	51	Feedback	Neutral	True
491.861	2.736	Control	0.6346	n/a	No	2.736	n/a	n/a	NoResponse	0	0.0	n/a	4	51	ISIslide	Neutral	True
494.627	0.25	Control	0.6225999999999999	0.0	No	2.623	0.027	n/a	NoResponse	0	n/a	n/a	4	52	Cue	Neutral	False
494.877	4.05	Control	0.6225999999999999	0.0	No	2.623	0.0	2.0	NoResponse	0	1.715	495.592	4	52	Fixation	Neutral	False
496.592	0.3	Control	0.6225999999999999	0.0	No	2.623	0.0	2.0	NoResponse	0	1.715	n/a	4	52	ButtonPress	Neutral	False
498.926	0.17	Control	0.6225999999999999	0.001	No	2.623	-0.001	2.0	NoResponse	0	0.191	498.117	4	52	Target	Neutral	False
499.092	0.53	Control	0.6225999999999999	n/a	No	2.623	n/a	n/a	NoResponse	0	n/a	n/a	4	52	Blank	Neutral	False
499.117	0.3	Control	0.6225999999999999	0.001	No	2.623	-0.001	2.0	NoResponse	0	0.191	n/a	4	52	ButtonPress	Neutral	False
499.625	1.45	Control	0.6225999999999999	n/a	No	2.623	n/a	5.0	NoResponse	0	0.007	498.632	4	52	Feedback	Neutral	False
501.075	2.623	Control	0.6225999999999999	n/a	No	2.623	n/a	n/a	NoResponse	0	0.0	n/a	4	52	ISIslide	Neutral	False
503.724	0.25	Win2	0.6296	0.0	Yes	2.926	0.024	n/a	GoodResponse	1	n/a	n/a	5	53	Cue	Win	True
503.974	4.05	Win2	0.6296	0.0	Yes	2.926	0.0	n/a	GoodResponse	1	n/a	n/a	5	53	Fixation	Win	True
508.023	0.18	Win2	0.6296	0.001	Yes	2.926	-0.001	2.0	GoodResponse	1	0.174	507.197	5	53	Target	Win	True
508.197	0.3	Win2	0.6296	0.001	Yes	2.926	-0.001	2.0	GoodResponse	1	0.174	n/a	5	53	ButtonPress	Win	True
508.206	0.52	Win2	0.6296	n/a	Yes	2.926	n/a	n/a	GoodResponse	1	n/a	n/a	5	53	Blank	Win	True
508.722	1.45	Win2	0.6296	n/a	Yes	2.926	n/a	5.0	GoodResponse	1	0.032	507.754	5	53	Feedback	Win	True
510.172	2.926	Win2	0.6296	n/a	Yes	2.926	n/a	n/a	GoodResponse	1	0.0	n/a	5	53	ISIslide	Win	True
513.121	0.25	Win2	0.6182	0.0	No	2.729	0.021	n/a	LatePress	0	n/a	n/a	5	54	Cue	MissedWin	True
513.371	3.95	Win2	0.6182	0.0	No	2.729	0.0	n/a	LatePress	0	n/a	n/a	5	54	Fixation	MissedWin	True
517.319	0.19	Win2	0.6182	0.002	No	2.729	-0.002	2.0	LatePress	0	0.193	516.512	5	54	Target	MissedWin	True
517.512	0.3	Win2	0.6182	0.002	No	2.729	-0.002	2.0	LatePress	0	0.193	n/a	5	54	ButtonPress	MissedWin	True
517.519	0.51	Win2	0.6182	n/a	No	2.729	n/a	n/a	LatePress	0	n/a	n/a	5	54	Blank	MissedWin	True
518.019	1.45	Win2	0.6182	n/a	No	2.729	n/a	5.0	LatePress	0	0.007	517.026	5	54	Feedback	MissedWin	True
519.469	2.729	Win2	0.6182	n/a	No	2.729	n/a	n/a	LatePress	0	0.0	n/a	5	54	ISIslide	MissedWin	True
522.218	0.25	Control	0.6071	0.0	No	3.032	0.018	n/a	NoResponse	0	n/a	n/a	5	55	Cue	Neutral	True
522.468	3.95	Control	0.6071	0.0	No	3.032	0.0	n/a	NoResponse	0	n/a	n/a	5	55	Fixation	Neutral	True
526.416	0.2	Control	0.6071	0.002	No	3.032	-0.002	2.0	NoResponse	0	0.214	525.63	5	55	Target	Neutral	True
526.616	0.5	Control	0.6071	n/a	No	3.032	n/a	n/a	NoResponse	0	n/a	n/a	5	55	Blank	Neutral	True
526.63	0.3	Control	0.6071	0.002	No	3.032	-0.002	2.0	NoResponse	0	0.214	n/a	5	55	ButtonPress	Neutral	True
527.116	1.45	Control	0.6071	n/a	No	3.032	n/a	5.0	NoResponse	0	0.029	526.145	5	55	Feedback	Neutral	True
528.565	3.032	Control	0.6071	n/a	No	3.032	n/a	n/a	NoResponse	0	0.0	n/a	5	55	ISIslide	Neutral	True
531.614	0.25	Control	0.614	0.0	Yes	2.836	0.014	n/a	GoodResponse	0	n/a	n/a	5	56	Cue	Neutral	True
531.864	3.95	Control	0.614	0.0	Yes	2.836	0.0	n/a	GoodResponse	0	n/a	n/a	5	56	Fixation	Neutral	True
535.813	0.21	Control	0.614	0.001	Yes	2.836	-0.001	2.0	GoodResponse	0	0.198	535.011	5	56	Target	Neutral	True
536.011	0.3	Control	0.614	0.001	Yes	2.836	-0.001	2.0	GoodResponse	0	0.198	n/a	5	56	ButtonPress	Neutral	True
536.03	0.49	Control	0.614	n/a	Yes	2.836	n/a	n/a	GoodResponse	0	n/a	n/a	5	56	Blank	Neutral	True
536.513	1.45	Control	0.614	n/a	Yes	2.836	n/a	5.0	GoodResponse	0	0.046	535.559	5	56	Feedback	Neutral	True
537.962	2.836	Control	0.614	n/a	Yes	2.836	n/a	n/a	GoodResponse	0	0.0	n/a	5	56	ISIslide	Neutral	True
540.828	0.25	Control	0.6207	0.0	Yes	3.472	0.028	n/a	GoodResponse	0	n/a	n/a	5	57	Cue	Neutral	True
541.078	4.0	Control	0.6207	0.0	Yes	3.472	0.0	n/a	GoodResponse	0	n/a	n/a	5	57	Fixation	Neutral	True
545.076	0.22	Control	0.6207	0.002	Yes	3.472	-0.002	2.0	GoodResponse	0	0.205	544.281	5	57	Target	Neutral	True
545.281	0.3	Control	0.6207	0.002	Yes	3.472	-0.002	2.0	GoodResponse	0	0.205	n/a	5	57	ButtonPress	Neutral	True
545.31	0.48	Control	0.6207	n/a	Yes	3.472	n/a	n/a	GoodResponse	0	n/a	n/a	5	57	Blank	Neutral	True
545.776	1.45	Control	0.6207	n/a	Yes	3.472	n/a	5.0	GoodResponse	0	0.007	544.783	5	57	Feedback	Neutral	True
547.226	3.472	Control	0.6207	n/a	Yes	3.472	n/a	n/a	GoodResponse	0	0.0	n/a	5	57	ISIslide	Neutral	True
550.724	0.25	Win2	0.6271	0.0	Yes	2.726	0.024	n/a	GoodResponse	1	n/a	n/a	6	58	Cue	Win	True
550.974	4.05	Win2	0.6271	0.0	Yes	2.726	0.0	n/a	GoodResponse	1	n/a	n/a	6	58	Fixation	Win	True
555.023	0.23	Win2	0.6271	0.001	Yes	2.726	-0.001	2.0	GoodResponse	1	0.184	554.207	6	58	Target	Win	True
555.207	0.3	Win2	0.6271	0.001	Yes	2.726	-0.001	2.0	GoodResponse	1	0.184	n/a	6	58	ButtonPress	Win	True
555.256	0.47	Win2	0.6271	n/a	Yes	2.726	n/a	n/a	GoodResponse	1	n/a	n/a	6	58	Blank	Win	True
555.723	1.45	Win2	0.6271	n/a	Yes	2.726	n/a	5.0	GoodResponse	1	0.007	554.73	6	58	Feedback	Win	True
557.172	2.726	Win2	0.6271	n/a	Yes	2.726	n/a	n/a	GoodResponse	1	0.0	n/a	6	58	ISIslide	Win	True
559.921	0.25	Lose2	0.6333	0.0	Yes	2.679	0.021	n/a	GoodResponse	0	n/a	n/a	6	59	Cue	AvoidedLoss	True
560.171	4.0	Lose2	0.6333	0.0	Yes	2.679	0.0	n/a	GoodResponse	0	n/a	n/a	6	59	Fixation	AvoidedLoss	True
564.17	0.24	Lose2	0.6333	0.001	Yes	2.679	-0.001	2.0	GoodResponse	0	0.201	563.371	6	59	Target	AvoidedLoss	True
564.371	0.3	Lose2	0.6333	0.001	Yes	2.679	-0.001	2.0	GoodResponse	0	0.201	n/a	6	59	ButtonPress	AvoidedLoss	True
564.42	0.46	Lose2	0.6333	n/a	Yes	2.679	n/a	n/a	GoodResponse	0	n/a	n/a	6	59	Blank	AvoidedLoss	True
564.87	1.45	Lose2	0.6333	n/a	Yes	2.679	n/a	5.0	GoodResponse	0	0.03	563.9	6	59	Feedback	AvoidedLoss	True
566.319	2.679	Lose2	0.6333	n/a	Yes	2.679	n/a	n/a	GoodResponse	0	0.0	n/a	6	59	ISIslide	AvoidedLoss	True
569.018	0.25	Control	0.6393	0.0	Yes	2.682	0.018	n/a	GoodResponse	0	n/a	n/a	6	60	Cue	Neutral	True
569.268	4.0	Control	0.6393	0.0	Yes	2.682	0.0	n/a	GoodResponse	0	n/a	n/a	6	60	Fixation	Neutral	True
573.267	0.25	Control	0.6393	0.001	Yes	2.682	-0.001	2.0	GoodResponse	0	0.182	572.449	6	60	Target	Neutral	True
573.449	0.3	Control	0.6393	0.001	Yes	2.682	-0.001	2.0	GoodResponse	0	0.182	n/a	6	60	ButtonPress	Neutral	True
573.517	0.45	Control	0.6393	n/a	Yes	2.682	n/a	n/a	GoodResponse	0	n/a	n/a	6	60	Blank	Neutral	True
573.966	1.45	Control	0.6393	n/a	Yes	2.682	n/a	5.0	GoodResponse	0	0.008	572.974	6	60	Feedback	Neutral	True
575.416	2.682	Control	0.6393	n/a	Yes	2.682	n/a	n/a	GoodResponse	0	0.0	n/a	6	60	ISIslide	Neutral	True
578.115	0.25	Lose2	0.6452	0.0	Yes	2.985	0.015	n/a	GoodResponse	0	n/a	n/a	6	61	Cue	AvoidedLoss	True
578.365	4.0	Lose2	0.6452	0.0	Yes	2.985	0.0	n/a	GoodResponse	0	n/a	n/a	6	61	Fixation	AvoidedLoss	True
582.364	0.26	Lose2	0.6452	0.001	Yes	2.985	-0.001	2.0	GoodResponse	0	0.191	581.555	6	61	Target	AvoidedLoss	True
582.555	0.3	Lose2	0.6452	0.001	Yes	2.985	-0.001	2.0	GoodResponse	0	0.191	n/a	6	61	ButtonPress	AvoidedLoss	True
582.63	0.44	Lose2	0.6452	n/a	Yes	2.985	n/a	n/a	GoodResponse	0	n/a	n/a	6	61	Blank	AvoidedLoss	True
583.063	1.45	Lose2	0.6452	n/a	Yes	2.985	n/a	5.0	GoodResponse	0	0.033	582.096	6	61	Feedback	AvoidedLoss	True
584.513	2.985	Lose2	0.6452	n/a	Yes	2.985	n/a	n/a	GoodResponse	0	0.0	n/a	6	61	ISIslide	AvoidedLoss	True
587.528	0.25	Lose2	0.6507999999999999	0.0	Yes	2.872	0.028	n/a	GoodResponse	0	n/a	n/a	6	62	Cue	AvoidedLoss	True
587.778	3.9	Lose2	0.6507999999999999	0.0	Yes	2.872	0.0	n/a	GoodResponse	0	n/a	n/a	6	62	Fixation	AvoidedLoss	True
591.677	0.27	Lose2	0.6507999999999999	0.001	Yes	2.872	-0.001	2.0	GoodResponse	0	0.198	590.875	6	62	Target	AvoidedLoss	True
591.875	0.3	Lose2	0.6507999999999999	0.001	Yes	2.872	-0.001	2.0	GoodResponse	0	0.198	n/a	6	62	ButtonPress	AvoidedLoss	True
591.944	0.43	Lose2	0.6507999999999999	n/a	Yes	2.872	n/a	n/a	GoodResponse	0	n/a	n/a	6	62	Blank	AvoidedLoss	True
592.377	1.45	Lose2	0.6507999999999999	n/a	Yes	2.872	n/a	5.0	GoodResponse	0	0.035	591.412	6	62	Feedback	AvoidedLoss	True
593.826	2.872	Lose2	0.6507999999999999	n/a	Yes	2.872	n/a	n/a	GoodResponse	0	0.0	n/a	6	62	ISIslide	AvoidedLoss	True
596.725	0.25	Lose2	0.6562	0.0	Yes	2.625	0.025	n/a	GoodResponse	0	n/a	n/a	6	63	Cue	AvoidedLoss	True
596.975	4.05	Lose2	0.6562	0.0	Yes	2.625	0.0	n/a	GoodResponse	0	n/a	n/a	6	63	Fixation	AvoidedLoss	True
601.024	0.28	Lose2	0.6562	0.001	Yes	2.625	-0.001	2.0	GoodResponse	0	0.186	600.21	6	63	Target	AvoidedLoss	True
601.21	0.3	Lose2	0.6562	0.001	Yes	2.625	-0.001	2.0	GoodResponse	0	0.186	n/a	6	63	ButtonPress	AvoidedLoss	True
601.307	0.42	Lose2	0.6562	n/a	Yes	2.625	n/a	n/a	GoodResponse	0	n/a	n/a	6	63	Blank	AvoidedLoss	True
601.723	1.45	Lose2	0.6562	n/a	Yes	2.625	n/a	5.0	GoodResponse	0	0.007	600.73	6	63	Feedback	AvoidedLoss	True
603.173	2.625	Lose2	0.6562	n/a	Yes	2.625	n/a	n/a	GoodResponse	0	0.0	n/a	6	63	ISIslide	AvoidedLoss	True
605.822	0.25	Win2	0.6615000000000001	0.0	Yes	3.128	0.022	n/a	GoodResponse	1	n/a	n/a	7	64	Cue	Win	True
606.072	4.15	Win2	0.6615000000000001	0.0	Yes	3.128	0.0	n/a	GoodResponse	1	n/a	n/a	7	64	Fixation	Win	True
610.221	0.28	Win2	0.6615000000000001	0.001	Yes	3.128	-0.001	2.0	GoodResponse	1	0.177	609.398	7	64	Target	Win	True
610.398	0.3	Win2	0.6615000000000001	0.001	Yes	3.128	-0.001	2.0	GoodResponse	1	0.177	n/a	7	64	ButtonPress	Win	True
610.504	0.42	Win2	0.6615000000000001	n/a	Yes	3.128	n/a	n/a	GoodResponse	1	n/a	n/a	7	64	Blank	Win	True
610.92	1.45	Win2	0.6615000000000001	n/a	Yes	3.128	n/a	5.0	GoodResponse	1	0.029	609.949	7	64	Feedback	Win	True
612.37	3.128	Win2	0.6615000000000001	n/a	Yes	3.128	n/a	n/a	GoodResponse	1	0.0	n/a	7	64	ISIslide	Win	True
615.519	0.25	Control	0.6667000000000001	0.0	Yes	2.781	0.019	n/a	GoodResponse	0	n/a	n/a	7	65	Cue	Neutral	True
615.769	4.0	Control	0.6667000000000001	0.0	Yes	2.781	0.0	n/a	GoodResponse	0	n/a	n/a	7	65	Fixation	Neutral	True
619.767	0.28	Control	0.6667000000000001	0.002	Yes	2.781	-0.002	2.0	GoodResponse	0	0.187	618.954	7	65	Target	Neutral	True
619.954	0.3	Control	0.6667000000000001	0.002	Yes	2.781	-0.002	2.0	GoodResponse	0	0.187	n/a	7	65	ButtonPress	Neutral	True
620.05	0.42	Control	0.6667000000000001	n/a	Yes	2.781	n/a	n/a	GoodResponse	0	n/a	n/a	7	65	Blank	Neutral	True
620.467	1.45	Control	0.6667000000000001	n/a	Yes	2.781	n/a	5.0	GoodResponse	0	0.043	619.51	7	65	Feedback	Neutral	True
621.916	2.781	Control	0.6667000000000001	n/a	Yes	2.781	n/a	n/a	GoodResponse	0	0.0	n/a	7	65	ISIslide	Neutral	True
624.716	0.25	Win2	0.6716	0.0	Yes	2.784	0.016	n/a	GoodResponse	1	n/a	n/a	8	66	Cue	Win	True
624.965	3.9	Win2	0.6716	0.001	Yes	2.784	-0.001	n/a	GoodResponse	1	n/a	n/a	8	66	Fixation	Win	True
628.864	0.27	Win2	0.6716	0.002	Yes	2.784	-0.002	2.0	GoodResponse	1	0.206	628.07	8	66	Target	Win	True
629.07	0.3	Win2	0.6716	0.002	Yes	2.784	-0.002	2.0	GoodResponse	1	0.206	n/a	8	66	ButtonPress	Win	True
629.147	0.43	Win2	0.6716	n/a	Yes	2.784	n/a	n/a	GoodResponse	1	n/a	n/a	8	66	Blank	Win	True
629.564	1.45	Win2	0.6716	n/a	Yes	2.784	n/a	5.0	GoodResponse	1	0.019	628.583	8	66	Feedback	Win	True
631.013	2.784	Win2	0.6716	n/a	Yes	2.784	n/a	n/a	GoodResponse	1	0.0	n/a	8	66	ISIslide	Win	True
633.812	0.25	Control	0.6765000000000001	0.0	Yes	2.738	0.012	n/a	GoodResponse	0	n/a	n/a	8	67	Cue	Neutral	True
634.062	3.95	Control	0.6765000000000001	0.0	Yes	2.738	0.0	n/a	GoodResponse	0	n/a	n/a	8	67	Fixation	Neutral	True
638.011	0.26	Control	0.6765000000000001	0.001	Yes	2.738	-0.001	2.0	GoodResponse	0	0.218	637.229	8	67	Target	Neutral	True
638.229	0.3	Control	0.6765000000000001	0.001	Yes	2.738	-0.001	2.0	GoodResponse	0	0.218	n/a	8	67	ButtonPress	Neutral	True
638.277	0.44	Control	0.6765000000000001	n/a	Yes	2.738	n/a	n/a	GoodResponse	0	n/a	n/a	8	67	Blank	Neutral	True
638.711	1.45	Control	0.6765000000000001	n/a	Yes	2.738	n/a	5.0	GoodResponse	0	0.043	637.754	8	67	Feedback	Neutral	True
640.16	2.738	Control	0.6765000000000001	n/a	Yes	2.738	n/a	n/a	GoodResponse	0	0.0	n/a	8	67	ISIslide	Neutral	True
642.926	0.25	Win2	0.6812	0.0	Yes	3.074	0.026	n/a	GoodResponse	1	n/a	n/a	9	68	Cue	Win	True
643.176	4.0	Win2	0.6812	0.0	Yes	3.074	0.0	n/a	GoodResponse	1	n/a	n/a	9	68	Fixation	Win	True
647.174	0.25	Win2	0.6812	0.002	Yes	3.074	-0.002	2.0	GoodResponse	1	0.181	646.355	9	68	Target	Win	True
647.355	0.3	Win2	0.6812	0.002	Yes	3.074	-0.002	2.0	GoodResponse	1	0.181	n/a	9	68	ButtonPress	Win	True
647.424	0.45	Win2	0.6812	n/a	Yes	3.074	n/a	n/a	GoodResponse	1	n/a	n/a	9	68	Blank	Win	True
647.874	1.45	Win2	0.6812	n/a	Yes	3.074	n/a	5.0	GoodResponse	1	0.001	646.875	9	68	Feedback	Win	True
649.324	3.074	Win2	0.6812	n/a	Yes	3.074	n/a	n/a	GoodResponse	1	0.0	n/a	9	68	ISIslide	Win	True
652.423	0.25	Win2	0.6857	0.0	Yes	3.227	0.023	n/a	GoodResponse	1	n/a	n/a	10	69	Cue	Win	True
652.673	3.95	Win2	0.6857	0.0	Yes	3.227	0.0	n/a	GoodResponse	1	n/a	n/a	10	69	Fixation	Win	True
656.621	0.24	Win2	0.6857	0.002	Yes	3.227	-0.002	2.0	GoodResponse	1	0.18	655.801	10	69	Target	Win	True
656.801	0.3	Win2	0.6857	0.002	Yes	3.227	-0.002	2.0	GoodResponse	1	0.18	n/a	10	69	ButtonPress	Win	True
656.871	0.46	Win2	0.6857	n/a	Yes	3.227	n/a	n/a	GoodResponse	1	n/a	n/a	10	69	Blank	Win	True
657.321	1.45	Win2	0.6857	n/a	Yes	3.227	n/a	5.0	GoodResponse	1	0.018	656.339	10	69	Feedback	Win	True
658.77	3.227	Win2	0.6857	n/a	Yes	3.227	n/a	n/a	GoodResponse	1	0.0	n/a	10	69	ISIslide	Win	True
662.019	0.25	Lose2	0.6901	0.0	Yes	3.031	0.019	n/a	GoodResponse	0	n/a	n/a	10	70	Cue	AvoidedLoss	True
662.269	4.05	Lose2	0.6901	0.0	Yes	3.031	0.0	n/a	GoodResponse	0	n/a	n/a	10	70	Fixation	AvoidedLoss	True
666.318	0.23	Lose2	0.6901	0.001	Yes	3.031	-0.001	2.0	GoodResponse	0	0.174	665.492	10	70	Target	AvoidedLoss	True
666.492	0.3	Lose2	0.6901	0.001	Yes	3.031	-0.001	2.0	GoodResponse	0	0.174	n/a	10	70	ButtonPress	AvoidedLoss	True
666.551	0.47	Lose2	0.6901	n/a	Yes	3.031	n/a	n/a	GoodResponse	0	n/a	n/a	10	70	Blank	AvoidedLoss	True
667.018	1.45	Lose2	0.6901	n/a	Yes	3.031	n/a	5.0	GoodResponse	0	0.028	666.046	10	70	Feedback	AvoidedLoss	True
668.467	3.031	Lose2	0.6901	n/a	Yes	3.031	n/a	n/a	GoodResponse	0	0.0	n/a	10	70	ISIslide	AvoidedLoss	True
671.516	0.25	Win2	0.6944	0.0	Yes	2.734	0.016	n/a	GoodResponse	1	n/a	n/a	11	71	Cue	Win	True
671.766	4.05	Win2	0.6944	0.0	Yes	2.734	0.0	n/a	GoodResponse	1	n/a	n/a	11	71	Fixation	Win	True
675.815	0.22	Win2	0.6944	0.001	Yes	2.734	-0.001	2.0	GoodResponse	1	0.202	675.017	11	71	Target	Win	True
676.017	0.3	Win2	0.6944	0.001	Yes	2.734	-0.001	2.0	GoodResponse	1	0.202	n/a	11	71	ButtonPress	Win	True
676.048	0.48	Win2	0.6944	n/a	Yes	2.734	n/a	n/a	GoodResponse	1	n/a	n/a	11	71	Blank	Win	True
676.514	1.45	Win2	0.6944	n/a	Yes	2.734	n/a	5.0	GoodResponse	1	0.044	675.558	11	71	Feedback	Win	True
677.964	2.734	Win2	0.6944	n/a	Yes	2.734	n/a	n/a	GoodResponse	1	0.0	n/a	11	71	ISIslide	Win	True
680.729	0.25	Win2	0.6986	0.001	Yes	2.771	0.029	n/a	GoodResponse	1	n/a	n/a	12	72	Cue	Win	True
680.979	4.1	Win2	0.6986	0.0	Yes	2.771	0.0	n/a	GoodResponse	1	n/a	n/a	12	72	Fixation	Win	True
685.078	0.21	Win2	0.6986	0.001	Yes	2.771	-0.001	2.0	GoodResponse	1	0.176	684.254	12	72	Target	Win	True
685.254	0.3	Win2	0.6986	0.001	Yes	2.771	-0.001	2.0	GoodResponse	1	0.176	n/a	12	72	ButtonPress	Win	True
685.295	0.49	Win2	0.6986	n/a	Yes	2.771	n/a	n/a	GoodResponse	1	n/a	n/a	12	72	Blank	Win	True
685.778	1.45	Win2	0.6986	n/a	Yes	2.771	n/a	5.0	GoodResponse	1	0.049	684.827	12	72	Feedback	Win	True
687.227	2.771	Win2	0.6986	n/a	Yes	2.771	n/a	n/a	GoodResponse	1	0.0	n/a	12	72	ISIslide	Win	True
690.026	0.25	Win2	0.7027	0.0	Yes	2.674	0.026	n/a	GoodResponse	1	n/a	n/a	13	73	Cue	Win	True
690.276	4.0	Win2	0.7027	0.0	Yes	2.674	0.0	n/a	GoodResponse	1	n/a	n/a	13	73	Fixation	Win	True
694.275	0.2	Win2	0.7027	0.001	Yes	2.674	-0.001	2.0	GoodResponse	1	0.167	693.442	13	73	Target	Win	True
694.442	0.3	Win2	0.7027	0.001	Yes	2.674	-0.001	2.0	GoodResponse	1	0.167	n/a	13	73	ButtonPress	Win	True
694.475	0.5	Win2	0.7027	n/a	Yes	2.674	n/a	n/a	GoodResponse	1	n/a	n/a	13	73	Blank	Win	True
694.975	1.45	Win2	0.7027	n/a	Yes	2.674	n/a	5.0	GoodResponse	1	0.023	693.998	13	73	Feedback	Win	True
696.424	2.674	Win2	0.7027	n/a	Yes	2.674	n/a	n/a	GoodResponse	1	0.0	n/a	13	73	ISIslide	Win	True
699.123	0.25	Lose2	0.7067	0.0	Yes	2.627	0.023	n/a	GoodResponse	0	n/a	n/a	13	74	Cue	AvoidedLoss	True
699.373	4.05	Lose2	0.7067	0.0	Yes	2.627	0.0	n/a	GoodResponse	0	n/a	n/a	13	74	Fixation	AvoidedLoss	True
703.422	0.19	Lose2	0.7067	0.001	Yes	2.627	-0.001	2.0	GoodResponse	0	0.178	702.6	13	74	Target	AvoidedLoss	True
703.6	0.3	Lose2	0.7067	0.001	Yes	2.627	-0.001	2.0	GoodResponse	0	0.178	n/a	13	74	ButtonPress	AvoidedLoss	True
703.622	0.51	Lose2	0.7067	n/a	Yes	2.627	n/a	n/a	GoodResponse	0	n/a	n/a	13	74	Blank	AvoidedLoss	True
704.121	1.45	Lose2	0.7067	n/a	Yes	2.627	n/a	5.0	GoodResponse	0	0.046	703.167	13	74	Feedback	AvoidedLoss	True
705.571	2.627	Lose2	0.7067	n/a	Yes	2.627	n/a	n/a	GoodResponse	0	0.0	n/a	13	74	ISIslide	AvoidedLoss	True
708.22	0.25	Lose2	0.7105	0.0	Yes	2.93	0.02	n/a	GoodResponse	0	n/a	n/a	13	75	Cue	AvoidedLoss	True
708.47	3.95	Lose2	0.7105	0.0	Yes	2.93	0.0	n/a	GoodResponse	0	n/a	n/a	13	75	Fixation	AvoidedLoss	True
712.419	0.18	Lose2	0.7105	0.001	Yes	2.93	-0.001	2.0	GoodResponse	0	0.165	711.584	13	75	Target	AvoidedLoss	True
712.584	0.3	Lose2	0.7105	0.001	Yes	2.93	-0.001	2.0	GoodResponse	0	0.165	n/a	13	75	ButtonPress	AvoidedLoss	True
712.602	0.52	Lose2	0.7105	n/a	Yes	2.93	n/a	n/a	GoodResponse	0	n/a	n/a	13	75	Blank	AvoidedLoss	True
713.118	1.45	Lose2	0.7105	n/a	Yes	2.93	n/a	5.0	GoodResponse	0	0.025	712.143	13	75	Feedback	AvoidedLoss	True
714.568	2.93	Lose2	0.7105	n/a	Yes	2.93	n/a	n/a	GoodResponse	0	0.0	n/a	13	75	ISIslide	AvoidedLoss	True
717.517	0.25	Control	0.7012999999999999	0.0	No	3.233	0.017	n/a	NoResponse	0	n/a	n/a	13	76	Cue	Neutral	True
717.767	4.05	Control	0.7012999999999999	0.0	No	3.233	0.0	n/a	NoResponse	0	n/a	n/a	13	76	Fixation	Neutral	True
721.815	0.17	Control	0.7012999999999999	0.002	No	3.233	-0.002	2.0	NoResponse	0	0.192	721.007	13	76	Target	Neutral	True
721.999	0.53	Control	0.7012999999999999	n/a	No	3.233	n/a	n/a	NoResponse	0	n/a	n/a	13	76	Blank	Neutral	True
722.007	0.3	Control	0.7012999999999999	0.002	No	3.233	-0.002	2.0	NoResponse	0	0.192	n/a	13	76	ButtonPress	Neutral	True
722.515	1.45	Control	0.7012999999999999	n/a	No	3.233	n/a	5.0	NoResponse	0	0.043	721.558	13	76	Feedback	Neutral	True
723.965	3.233	Control	0.7012999999999999	n/a	No	3.233	n/a	n/a	NoResponse	0	0.0	n/a	13	76	ISIslide	Neutral	True
727.23	0.25	Lose2	0.6923	0.0	No	2.57	0.03	n/a	NoResponse	-1	n/a	n/a	12	77	Cue	Loss	True
727.48	3.95	Lose2	0.6923	0.0	No	2.57	0.0	n/a	NoResponse	-1	n/a	n/a	12	77	Fixation	Loss	True
731.429	0.16	Lose2	0.6923	0.001	No	2.57	-0.001	2.0	NoResponse	-1	0.172	730.601	12	77	Target	Loss	True
731.595	0.54	Lose2	0.6923	n/a	No	2.57	n/a	n/a	NoResponse	-1	n/a	n/a	12	77	Blank	Loss	True
731.601	0.3	Lose2	0.6923	0.001	No	2.57	-0.001	2.0	NoResponse	-1	0.172	n/a	12	77	ButtonPress	Loss	True
732.128	1.45	Lose2	0.6923	n/a	No	2.57	n/a	5.0	NoResponse	-1	0.04	731.168	12	77	Feedback	Loss	True
733.578	2.57	Lose2	0.6923	n/a	No	2.57	n/a	n/a	NoResponse	-1	0.0	n/a	12	77	ISIslide	Loss	True
