onset	duration	cue_type	current_mean_accuracy	duration_error	is_hit	isi_adjusted	onset_delay	response	response_type	reward	rt	rt_time	total_reward	trial_number	trial_phase	trial_type	one_press
11.11	0.25	Control	1.0	0.0	Yes	2.94	0.01	n/a	GoodResponse	0	n/a	n/a	0	0	Cue	Neutral	True
11.361	3.85	Control	1.0	0.0	Yes	2.94	0.001	n/a	GoodResponse	0	n/a	n/a	0	0	Fixation	Neutral	True
15.222	0.4	Control	1.0	0.0	Yes	2.94	0.012	2.0	GoodResponse	0	0.227	14.449	0	0	Target	Neutral	True
15.449	0.3	Control	1.0	0.0	Yes	2.94	0.012	2.0	GoodResponse	0	0.227	n/a	0	0	ButtonPress	Neutral	True
15.607	0.3	Control	1.0	n/a	Yes	2.94	n/a	n/a	GoodResponse	0	n/a	n/a	0	0	Blank	Neutral	True
15.907	1.45	Control	1.0	n/a	Yes	2.94	n/a	5.0	GoodResponse	0	0.019	14.926	0	0	Feedback	Neutral	True
17.362	2.94	Control	1.0	n/a	Yes	2.94	n/a	n/a	GoodResponse	0	0.0	n/a	0	0	ISIslide	Neutral	True
20.321	0.25	Lose2	1.0	0.0	Yes	2.779	0.021	n/a	GoodResponse	0	n/a	n/a	0	1	Cue	AvoidedLoss	True
20.571	4.0	Lose2	1.0	0.0	Yes	2.779	0.0	n/a	GoodResponse	0	n/a	n/a	0	1	Fixation	AvoidedLoss	True
24.567	0.39	Lose2	1.0	0.004	Yes	2.779	-0.004	2.0	GoodResponse	0	0.267	23.834	0	1	Target	AvoidedLoss	True
24.834	0.3	Lose2	1.0	0.004	Yes	2.779	-0.004	2.0	GoodResponse	0	0.267	n/a	0	1	ButtonPress	AvoidedLoss	True
24.968	0.31	Lose2	1.0	n/a	Yes	2.779	n/a	n/a	GoodResponse	0	n/a	n/a	0	1	Blank	AvoidedLoss	True
25.269	1.45	Lose2	1.0	n/a	Yes	2.779	n/a	5.0	GoodResponse	0	0.023	24.292	0	1	Feedback	AvoidedLoss	True
26.723	2.779	Lose2	1.0	n/a	Yes	2.779	n/a	n/a	GoodResponse	0	0.0	n/a	0	1	ISIslide	AvoidedLoss	True
29.515	0.25	Control	1.0	0.0	Yes	2.585	0.015	n/a	GoodResponse	0	n/a	n/a	0	2	Cue	Neutral	True
29.766	4.1	Control	1.0	0.0	Yes	2.585	0.001	n/a	GoodResponse	0	n/a	n/a	0	2	Fixation	Neutral	True
33.861	0.38	Control	1.0	0.004	Yes	2.585	-0.004	2.0	GoodResponse	0	0.24	33.101	0	2	Target	Neutral	True
34.101	0.3	Control	1.0	0.004	Yes	2.585	-0.004	2.0	GoodResponse	0	0.24	n/a	0	2	ButtonPress	Neutral	True
34.246	0.32	Control	1.0	n/a	Yes	2.585	n/a	n/a	GoodResponse	0	n/a	n/a	0	2	Blank	Neutral	True
34.563	1.45	Control	1.0	n/a	Yes	2.585	n/a	5.0	GoodResponse	0	0.046	33.609	0	2	Feedback	Neutral	True
36.018	2.585	Control	1.0	n/a	Yes	2.585	n/a	n/a	GoodResponse	0	0.0	n/a	0	2	ISIslide	Neutral	True
38.625	0.25	Win2	1.0	0.001	Yes	2.825	0.025	n/a	GoodResponse	1	n/a	n/a	1	3	Cue	Win	True
38.876	3.95	Win2	1.0	0.0	Yes	2.825	0.001	n/a	GoodResponse	1	n/a	n/a	1	3	Fixation	Win	True
42.821	0.37	Win2	1.0	0.004	Yes	2.825	-0.004	2.0	GoodResponse	1	0.227	42.048	1	3	Target	Win	True
43.048	0.3	Win2	1.0	0.004	Yes	2.825	-0.004	2.0	GoodResponse	1	0.227	n/a	1	3	ButtonPress	Win	True
43.206	0.33	Win2	1.0	n/a	Yes	2.825	n/a	n/a	GoodResponse	1	n/a	n/a	1	3	Blank	Win	True
43.523	1.45	Win2	1.0	n/a	Yes	2.825	n/a	5.0	GoodResponse	1	0.012	42.535	1	3	Feedback	Win	True
44.978	2.825	Win2	1.0	n/a	Yes	2.825	n/a	n/a	GoodResponse	1	0.0	n/a	1	3	ISIslide	Win	True
47.82	0.25	Win2	1.0	0.0	Yes	3.28	0.02	n/a	GoodResponse	1	n/a	n/a	2	4	Cue	Win	True
48.07	4.0	Win2	1.0	0.0	Yes	3.28	0.0	n/a	GoodResponse	1	n/a	n/a	2	4	Fixation	Win	True
52.066	0.36	Win2	1.0	0.004	Yes	3.28	-0.004	2.0	GoodResponse	1	0.21	51.276	2	4	Target	Win	True
52.276	0.3	Win2	1.0	0.004	Yes	3.28	-0.004	2.0	GoodResponse	1	0.21	n/a	2	4	ButtonPress	Win	True
52.433	0.34	Win2	1.0	n/a	Yes	3.28	n/a	n/a	GoodResponse	1	n/a	n/a	2	4	Blank	Win	True
52.768	1.45	Win2	1.0	n/a	Yes	3.28	n/a	5.0	GoodResponse	1	0.036	51.804	2	4	Feedback	Win	True
54.222	3.28	Win2	1.0	n/a	Yes	3.28	n/a	n/a	GoodResponse	1	0.0	n/a	2	4	ISIslide	Win	True
57.515	0.25	Win2	1.0	0.0	Yes	2.785	0.015	n/a	GoodResponse	1	n/a	n/a	3	5	Cue	Win	True
57.766	4.0	Win2	1.0	0.0	Yes	2.785	0.001	n/a	GoodResponse	1	n/a	n/a	3	5	Fixation	Win	True
61.761	0.35	Win2	1.0	0.004	Yes	2.785	-0.004	2.0	GoodResponse	1	0.231	60.992	3	5	Target	Win	True
61.992	0.3	Win2	1.0	0.004	Yes	2.785	-0.004	2.0	GoodResponse	1	0.231	n/a	3	5	ButtonPress	Win	True
62.112	0.35	Win2	1.0	n/a	Yes	2.785	n/a	n/a	GoodResponse	1	n/a	n/a	3	5	Blank	Win	True
62.463	1.45	Win2	1.0	n/a	Yes	2.785	n/a	5.0	GoodResponse	1	0.048	61.511	3	5	Feedback	Win	True
63.918	2.785	Win2	1.0	n/a	Yes	2.785	n/a	n/a	GoodResponse	1	0.0	n/a	3	5	ISIslide	Win	True
66.726	0.25	Lose2	1.0	0.0	Yes	2.724	0.026	n/a	GoodResponse	0	n/a	n/a	3	6	Cue	AvoidedLoss	True
66.977	3.95	Lose2	1.0	0.0	Yes	2.724	0.001	n/a	GoodResponse	0	n/a	n/a	3	6	Fixation	AvoidedLoss	True
70.922	0.34	Lose2	1.0	0.004	Yes	2.724	-0.004	2.0	GoodResponse	0	0.28	70.202	3	6	Target	AvoidedLoss	True
71.202	0.3	Lose2	1.0	0.004	Yes	2.724	-0.004	2.0	GoodResponse	0	0.28	n/a	3	6	ButtonPress	AvoidedLoss	True
71.273	0.36	Lose2	1.0	n/a	Yes	2.724	n/a	n/a	GoodResponse	0	n/a	n/a	3	6	Blank	AvoidedLoss	True
71.624	1.45	Lose2	1.0	n/a	Yes	2.724	n/a	5.0	GoodResponse	0	0.009	70.633	3	6	Feedback	AvoidedLoss	True
73.079	2.724	Lose2	1.0	n/a	Yes	2.724	n/a	n/a	GoodResponse	0	0.0	n/a	3	6	ISIslide	AvoidedLoss	True
75.82	0.25	Lose2	1.0	0.0	Yes	4.03	0.02	n/a	GoodResponse	0	n/a	n/a	3	7	Cue	AvoidedLoss	True
76.071	4.05	Lose2	1.0	0.0	Yes	4.03	0.001	n/a	GoodResponse	0	n/a	n/a	3	7	Fixation	AvoidedLoss	True
80.116	0.33	Lose2	1.0	0.004	Yes	4.03	-0.004	2.0	GoodResponse	0	0.2	79.316	3	7	Target	AvoidedLoss	True
80.316	0.3	Lose2	1.0	0.004	Yes	4.03	-0.004	2.0	GoodResponse	0	0.2	n/a	3	7	ButtonPress	AvoidedLoss	True
80.451	0.37	Lose2	1.0	n/a	Yes	4.03	n/a	n/a	GoodResponse	0	n/a	n/a	3	7	Blank	AvoidedLoss	True
80.818	1.45	Lose2	1.0	n/a	Yes	4.03	n/a	5.0	GoodResponse	0	0.034	79.852	3	7	Feedback	AvoidedLoss	True
82.273	4.03	Lose2	1.0	n/a	Yes	4.03	n/a	n/a	GoodResponse	0	0.0	n/a	3	7	ISIslide	AvoidedLoss	True
86.318	0.25	Lose2	0.8889	0.0	No	3.032	0.018	n/a	NoResponse	-1	n/a	n/a	2	8	Cue	Loss	True
86.569	3.95	Lose2	0.8889	0.0	No	3.032	0.001	n/a	NoResponse	-1	n/a	n/a	2	8	Fixation	Loss	True
90.514	0.32	Lose2	0.8889	0.004	No	3.032	-0.004	2.0	NoResponse	-1	0.376	89.89	2	8	Target	Loss	True
90.848	0.38	Lose2	0.8889	n/a	No	3.032	n/a	n/a	NoResponse	-1	n/a	n/a	2	8	Blank	Loss	True
90.89	0.3	Lose2	0.8889	0.004	No	3.032	-0.004	2.0	NoResponse	-1	0.376	n/a	2	8	ButtonPress	Loss	True
91.216	1.45	Lose2	0.8889	n/a	No	3.032	n/a	5.0	NoResponse	-1	0.026	90.242	2	8	Feedback	Loss	True
92.671	3.032	Lose2	0.8889	n/a	No	3.032	n/a	n/a	NoResponse	-1	0.0	n/a	2	8	ISIslide	Loss	True
95.713	0.25	Lose2	0.9	0.0	Yes	3.137	0.013	n/a	GoodResponse	0	n/a	n/a	2	9	Cue	AvoidedLoss	True
95.964	3.95	Lose2	0.9	0.0	Yes	3.137	0.001	n/a	GoodResponse	0	n/a	n/a	2	9	Fixation	AvoidedLoss	True
99.909	0.31	Lose2	0.9	0.004	Yes	3.137	-0.004	2.0	GoodResponse	0	0.229	99.138	2	9	Target	AvoidedLoss	True
100.138	0.3	Lose2	0.9	0.004	Yes	3.137	-0.004	2.0	GoodResponse	0	0.229	n/a	2	9	ButtonPress	AvoidedLoss	True
100.227	0.39	Lose2	0.9	n/a	Yes	3.137	n/a	n/a	GoodResponse	0	n/a	n/a	2	9	Blank	AvoidedLoss	True
100.611	1.45	Lose2	0.9	n/a	Yes	3.137	n/a	5.0	GoodResponse	0	0.046	99.657	2	9	Feedback	AvoidedLoss	True
102.065	3.137	Lose2	0.9	n/a	Yes	3.137	n/a	n/a	GoodResponse	0	0.0	n/a	2	9	ISIslide	AvoidedLoss	True
105.225	0.25	Control	0.9091	0.0	Yes	3.275	0.025	n/a	GoodResponse	0	n/a	n/a	2	10	Cue	Neutral	True
105.476	4.0	Control	0.9091	0.0	Yes	3.275	0.001	n/a	GoodResponse	0	n/a	n/a	2	10	Fixation	Neutral	True
109.471	0.3	Control	0.9091	0.004	Yes	3.275	-0.004	2.0	GoodResponse	0	0.193	108.664	2	10	Target	Neutral	True
109.664	0.3	Control	0.9091	0.004	Yes	3.275	-0.004	2.0	GoodResponse	0	0.193	n/a	2	10	ButtonPress	Neutral	True
109.772	0.4	Control	0.9091	n/a	Yes	3.275	n/a	n/a	GoodResponse	0	n/a	n/a	2	10	Blank	Neutral	True
110.173	1.45	Control	0.9091	n/a	Yes	3.275	n/a	5.0	GoodResponse	0	0.045	109.218	2	10	Feedback	Neutral	True
111.627	3.275	Control	0.9091	n/a	Yes	3.275	n/a	n/a	GoodResponse	0	0.0	n/a	2	10	ISIslide	Neutral	True
114.921	0.25	Lose2	0.9167000000000001	0.0	Yes	2.729	0.021	n/a	GoodResponse	0	n/a	n/a	2	11	Cue	AvoidedLoss	True
115.171	4.05	Lose2	0.9167000000000001	0.0	Yes	2.729	0.0	n/a	GoodResponse	0	n/a	n/a	2	11	Fixation	AvoidedLoss	True
119.217	0.29	Lose2	0.9167000000000001	0.004	Yes	2.729	-0.004	2.0	GoodResponse	0	0.222	118.439	2	11	Target	AvoidedLoss	True
119.439	0.3	Lose2	0.9167000000000001	0.004	Yes	2.729	-0.004	2.0	GoodResponse	0	0.222	n/a	2	11	ButtonPress	AvoidedLoss	True
119.518	0.41	Lose2	0.9167000000000001	n/a	Yes	2.729	n/a	n/a	GoodResponse	0	n/a	n/a	2	11	Blank	AvoidedLoss	True
119.919	1.45	Lose2	0.9167000000000001	n/a	Yes	2.729	n/a	5.0	GoodResponse	0	0.007	118.926	2	11	Feedback	AvoidedLoss	True
121.373	2.729	Lose2	0.9167000000000001	n/a	Yes	2.729	n/a	n/a	GoodResponse	0	0.0	n/a	2	11	ISIslide	AvoidedLoss	True
124.115	0.25	Control	0.9231	0.0	Yes	2.985	0.015	n/a	GoodResponse	0	n/a	n/a	2	12	Cue	Neutral	True
124.365	3.9	Control	0.9231	0.001	Yes	2.985	0.0	n/a	GoodResponse	0	n/a	n/a	2	12	Fixation	Neutral	True
128.277	0.28	Control	0.9231	0.0	Yes	2.985	0.012	2.0	GoodResponse	0	0.257	127.534	2	12	Target	Neutral	True
128.534	0.3	Control	0.9231	0.0	Yes	2.985	0.012	2.0	GoodResponse	0	0.257	n/a	2	12	ButtonPress	Neutral	True
128.545	0.42	Control	0.9231	n/a	Yes	2.985	n/a	n/a	GoodResponse	0	n/a	n/a	2	12	Blank	Neutral	True
128.963	1.45	Control	0.9231	n/a	Yes	2.985	n/a	5.0	GoodResponse	0	0.035	127.998	2	12	Feedback	Neutral	True
130.417	2.985	Control	0.9231	n/a	Yes	2.985	n/a	n/a	GoodResponse	0	0.0	n/a	2	12	ISIslide	Neutral	True
133.426	0.25	Control	0.9286	0.0	Yes	2.774	0.026	n/a	GoodResponse	0	n/a	n/a	2	13	Cue	Neutral	True
133.677	4.0	Control	0.9286	0.0	Yes	2.774	0.001	n/a	GoodResponse	0	n/a	n/a	2	13	Fixation	Neutral	True
137.672	0.27	Control	0.9286	0.004	Yes	2.774	-0.004	2.0	GoodResponse	0	0.231	136.903	2	13	Target	Neutral	True
137.903	0.3	Control	0.9286	0.004	Yes	2.774	-0.004	2.0	GoodResponse	0	0.231	n/a	2	13	ButtonPress	Neutral	True
137.956	0.43	Control	0.9286	n/a	Yes	2.774	n/a	n/a	GoodResponse	0	n/a	n/a	2	13	Blank	Neutral	True
138.374	1.45	Control	0.9286	n/a	Yes	2.774	n/a	5.0	GoodResponse	0	0.039	137.413	2	13	Feedback	Neutral	True
139.828	2.774	Control	0.9286	n/a	Yes	2.774	n/a	n/a	GoodResponse	0	0.0	n/a	2	13	ISIslide	Neutral	True
142.62	0.25	Win2	0.9333	0.0	Yes	2.68	0.02	n/a	GoodResponse	1	n/a	n/a	3	14	Cue	Win	True
142.871	4.1	Win2	0.9333	0.0	Yes	2.68	0.001	n/a	GoodResponse	1	n/a	n/a	3	14	Fixation	Win	True
146.966	0.26	Win2	0.9333	0.004	Yes	2.68	-0.004	2.0	GoodResponse	1	0.211	146.177	3	14	Target	Win	True
147.177	0.3	Win2	0.9333	0.004	Yes	2.68	-0.004	2.0	GoodResponse	1	0.211	n/a	3	14	ButtonPress	Win	True
147.234	0.44	Win2	0.9333	n/a	Yes	2.68	n/a	n/a	GoodResponse	1	n/a	n/a	3	14	Blank	Win	True
147.669	1.45	Win2	0.9333	n/a	Yes	2.68	n/a	5.0	GoodResponse	1	0.012	146.681	3	14	Feedback	Win	True
149.123	2.68	Win2	0.9333	n/a	Yes	2.68	n/a	n/a	GoodResponse	1	0.0	n/a	3	14	ISIslide	Win	True
151.814	0.25	Control	0.9375	0.0	Yes	2.986	0.014	n/a	GoodResponse	0	n/a	n/a	3	15	Cue	Neutral	True
152.065	4.0	Control	0.9375	0.0	Yes	2.986	0.001	n/a	GoodResponse	0	n/a	n/a	3	15	Fixation	Neutral	True
156.06	0.25	Control	0.9375	0.004	Yes	2.986	-0.004	2.0	GoodResponse	0	0.23	155.29	3	15	Target	Neutral	True
156.29	0.3	Control	0.9375	0.004	Yes	2.986	-0.004	2.0	GoodResponse	0	0.23	n/a	3	15	ButtonPress	Neutral	True
156.311	0.45	Control	0.9375	n/a	Yes	2.986	n/a	n/a	GoodResponse	0	n/a	n/a	3	15	Blank	Neutral	True
156.762	1.45	Control	0.9375	n/a	Yes	2.986	n/a	5.0	GoodResponse	0	0.041	155.803	3	15	Feedback	Neutral	True
158.217	2.986	Control	0.9375	n/a	Yes	2.986	n/a	n/a	GoodResponse	0	0.0	n/a	3	15	ISIslide	Neutral	True
161.226	0.25	Win2	0.9412	0.0	Yes	2.874	0.026	n/a	GoodResponse	1	n/a	n/a	4	16	Cue	Win	True
161.477	4.0	Win2	0.9412	0.0	Yes	2.874	0.001	n/a	GoodResponse	1	n/a	n/a	4	16	Fixation	Win	True
165.472	0.24	Win2	0.9412	0.004	Yes	2.874	-0.004	2.0	GoodResponse	1	0.215	164.687	4	16	Target	Win	True
165.687	0.3	Win2	0.9412	0.004	Yes	2.874	-0.004	2.0	GoodResponse	1	0.215	n/a	4	16	ButtonPress	Win	True
165.723	0.46	Win2	0.9412	n/a	Yes	2.874	n/a	n/a	GoodResponse	1	n/a	n/a	4	16	Blank	Win	True
166.174	1.45	Win2	0.9412	n/a	Yes	2.874	n/a	5.0	GoodResponse	1	0.044	165.218	4	16	Feedback	Win	True
167.628	2.874	Win2	0.9412	n/a	Yes	2.874	n/a	n/a	GoodResponse	1	0.0	n/a	4	16	ISIslide	Win	True
170.52	0.25	Lose2	0.9444	0.0	Yes	2.73	0.02	n/a	GoodResponse	0	n/a	n/a	4	17	Cue	AvoidedLoss	True
170.771	3.95	Lose2	0.9444	0.0	Yes	2.73	0.001	n/a	GoodResponse	0	n/a	n/a	4	17	Fixation	AvoidedLoss	True
174.716	0.23	Lose2	0.9444	0.004	Yes	2.73	-0.004	2.0	GoodResponse	0	0.219	173.935	4	17	Target	AvoidedLoss	True
174.935	0.3	Lose2	0.9444	0.004	Yes	2.73	-0.004	2.0	GoodResponse	0	0.219	n/a	4	17	ButtonPress	AvoidedLoss	True
174.95	0.47	Lose2	0.9444	n/a	Yes	2.73	n/a	n/a	GoodResponse	0	n/a	n/a	4	17	Blank	AvoidedLoss	True
175.418	1.45	Lose2	0.9444	n/a	Yes	2.73	n/a	5.0	GoodResponse	0	0.019	174.437	4	17	Feedback	AvoidedLoss	True
176.873	2.73	Lose2	0.9444	n/a	Yes	2.73	n/a	n/a	GoodResponse	0	0.0	n/a	4	17	ISIslide	AvoidedLoss	True
179.614	0.25	Lose2	0.8946999999999999	0.0	No	2.736	0.014	n/a	NoResponse	-1	n/a	n/a	3	18	Cue	Loss	True
179.865	4.05	Lose2	0.8946999999999999	0.0	No	2.736	0.001	n/a	NoResponse	-1	n/a	n/a	3	18	Fixation	Loss	True
183.91	0.22	Lose2	0.8946999999999999	0.004	No	2.736	-0.004	2.0	NoResponse	-1	0.235	183.145	3	18	Target	Loss	True
184.144	0.48	Lose2	0.8946999999999999	n/a	No	2.736	n/a	n/a	NoResponse	-1	n/a	n/a	3	18	Blank	Loss	True
184.145	0.3	Lose2	0.8946999999999999	0.004	No	2.736	-0.004	2.0	NoResponse	-1	0.235	n/a	3	18	ButtonPress	Loss	True
184.612	1.45	Lose2	0.8946999999999999	n/a	No	2.736	n/a	5.0	NoResponse	-1	0.044	183.656	3	18	Feedback	Loss	True
186.067	2.736	Lose2	0.8946999999999999	n/a	No	2.736	n/a	n/a	NoResponse	-1	0.0	n/a	3	18	ISIslide	Loss	True
188.825	0.25	Control	0.9	0.0	Yes	2.925	0.025	n/a	GoodResponse	0	n/a	n/a	3	19	Cue	Neutral	True
189.076	3.95	Control	0.9	0.0	Yes	2.925	0.001	n/a	GoodResponse	0	n/a	n/a	3	19	Fixation	Neutral	True
193.021	0.21	Control	0.9	0.004	Yes	2.925	-0.004	2.0	GoodResponse	0	0.176	192.197	3	19	Target	Neutral	True
193.197	0.3	Control	0.9	0.004	Yes	2.925	-0.004	2.0	GoodResponse	0	0.176	n/a	3	19	ButtonPress	Neutral	True
193.238	0.49	Control	0.9	n/a	Yes	2.925	n/a	n/a	GoodResponse	0	n/a	n/a	3	19	Blank	Neutral	True
193.723	1.45	Control	0.9	n/a	Yes	2.925	n/a	5.0	GoodResponse	0	0.006	192.729	3	19	Feedback	Neutral	True
195.177	2.925	Control	0.9	n/a	Yes	2.925	n/a	n/a	GoodResponse	0	0.0	n/a	3	19	ISIslide	Neutral	True
198.12	0.25	Control	0.9048	0.0	Yes	2.63	0.02	n/a	GoodResponse	0	n/a	n/a	3	20	Cue	Neutral	True
198.37	4.05	Control	0.9048	0.0	Yes	2.63	0.0	n/a	GoodResponse	0	n/a	n/a	3	20	Fixation	Neutral	True
202.416	0.2	Control	0.9048	0.004	Yes	2.63	-0.004	2.0	GoodResponse	0	0.198	201.614	3	20	Target	Neutral	True
202.614	0.3	Control	0.9048	0.004	Yes	2.63	-0.004	2.0	GoodResponse	0	0.198	n/a	3	20	ButtonPress	Neutral	True
202.616	0.5	Control	0.9048	n/a	Yes	2.63	n/a	n/a	GoodResponse	0	n/a	n/a	3	20	Blank	Neutral	True
203.118	1.45	Control	0.9048	n/a	Yes	2.63	n/a	5.0	GoodResponse	0	0.026	202.144	3	20	Feedback	Neutral	True
204.572	2.63	Control	0.9048	n/a	Yes	2.63	n/a	n/a	GoodResponse	0	0.0	n/a	3	20	ISIslide	Neutral	True
207.213	0.25	Control	0.8636	0.001	No	2.787	0.013	n/a	NoResponse	0	n/a	n/a	3	21	Cue	Neutral	True
207.464	4.1	Control	0.8636	0.0	No	2.787	0.001	n/a	NoResponse	0	n/a	n/a	3	21	Fixation	Neutral	True
211.56	0.19	Control	0.8636	0.003	No	2.787	-0.003	2.0	NoResponse	0	0.206	210.766	3	21	Target	Neutral	True
211.76	0.51	Control	0.8636	n/a	No	2.787	n/a	n/a	NoResponse	0	n/a	n/a	3	21	Blank	Neutral	True
211.766	0.3	Control	0.8636	0.003	No	2.787	-0.003	2.0	NoResponse	0	0.206	n/a	3	21	ButtonPress	Neutral	True
212.262	1.45	Control	0.8636	n/a	No	2.787	n/a	5.0	NoResponse	0	0.004	211.266	3	21	Feedback	Neutral	True
213.716	2.787	Control	0.8636	n/a	No	2.787	n/a	n/a	NoResponse	0	0.0	n/a	3	21	ISIslide	Neutral	True
216.525	0.25	Control	0.8261	0.0	No	2.775	0.025	n/a	NoResponse	0	n/a	n/a	3	22	Cue	Neutral	True
216.775	4.0	Control	0.8261	0.0	No	2.775	0.0	n/a	NoResponse	0	n/a	n/a	3	22	Fixation	Neutral	True
220.771	0.18	Control	0.8261	0.004	No	2.775	-0.004	2.0	NoResponse	0	0.204	219.975	3	22	Target	Neutral	True
220.955	0.52	Control	0.8261	n/a	No	2.775	n/a	n/a	NoResponse	0	n/a	n/a	3	22	Blank	Neutral	True
220.975	0.3	Control	0.8261	0.004	No	2.775	-0.004	2.0	NoResponse	0	0.204	n/a	3	22	ButtonPress	Neutral	True
221.473	1.45	Control	0.8261	n/a	No	2.775	n/a	5.0	NoResponse	0	0.013	220.486	3	22	Feedback	Neutral	True
222.927	2.775	Control	0.8261	n/a	No	2.775	n/a	n/a	NoResponse	0	0.0	n/a	3	22	ISIslide	Neutral	True
225.719	0.25	Control	0.7917000000000001	0.0	No	2.781	0.019	n/a	NoResponse	0	n/a	n/a	3	23	Cue	Neutral	True
225.97	3.9	Control	0.7917000000000001	0.0	No	2.781	0.001	n/a	NoResponse	0	n/a	n/a	3	23	Fixation	Neutral	True
229.865	0.17	Control	0.7917000000000001	0.004	No	2.781	-0.004	2.0	NoResponse	0	0.246	229.111	3	23	Target	Neutral	True
230.048	0.53	Control	0.7917000000000001	n/a	No	2.781	n/a	n/a	NoResponse	0	n/a	n/a	3	23	Blank	Neutral	True
230.111	0.3	Control	0.7917000000000001	0.004	No	2.781	-0.004	2.0	NoResponse	0	0.246	n/a	3	23	ButtonPress	Neutral	True
230.567	1.45	Control	0.7917000000000001	n/a	No	2.781	n/a	5.0	NoResponse	0	0.04	229.607	3	23	Feedback	Neutral	True
232.021	2.781	Control	0.7917000000000001	n/a	No	2.781	n/a	n/a	NoResponse	0	0.0	n/a	3	23	ISIslide	Neutral	True
234.829	0.25	Win2	0.76	0.001	No	3.121	0.029	n/a	NoResponse	0	n/a	n/a	3	24	Cue	MissedWin	True
235.08	3.95	Win2	0.76	0.0	No	3.121	0.001	n/a	NoResponse	0	n/a	n/a	3	24	Fixation	MissedWin	True
239.025	0.16	Win2	0.76	0.004	No	3.121	-0.004	2.0	NoResponse	0	0.19	238.215	3	24	Target	MissedWin	True
239.192	0.54	Win2	0.76	n/a	No	3.121	n/a	n/a	NoResponse	0	n/a	n/a	3	24	Blank	MissedWin	True
239.215	0.3	Win2	0.76	0.004	No	3.121	-0.004	2.0	NoResponse	0	0.19	n/a	3	24	ButtonPress	MissedWin	True
239.727	1.45	Win2	0.76	n/a	No	3.121	n/a	5.0	NoResponse	0	0.004	238.731	3	24	Feedback	MissedWin	True
241.182	3.121	Win2	0.76	n/a	No	3.121	n/a	n/a	NoResponse	0	0.0	n/a	3	24	ISIslide	MissedWin	True
244.325	0.25	Win2	0.7308	0.0	No	3.075	0.025	n/a	NoResponse	0	n/a	n/a	3	25	Cue	MissedWin	True
244.575	4.0	Win2	0.7308	0.0	No	3.075	0.0	n/a	NoResponse	0	n/a	n/a	3	25	Fixation	MissedWin	True
248.571	0.15	Win2	0.7308	0.004	No	3.075	-0.004	2.0	NoResponse	0	0.19	247.761	3	25	Target	MissedWin	True
248.721	0.55	Win2	0.7308	n/a	No	3.075	n/a	n/a	NoResponse	0	n/a	n/a	3	25	Blank	MissedWin	True
248.761	0.3	Win2	0.7308	0.004	No	3.075	-0.004	2.0	NoResponse	0	0.19	n/a	3	25	ButtonPress	MissedWin	True
249.273	1.45	Win2	0.7308	n/a	No	3.075	n/a	5.0	NoResponse	0	0.017	248.29	3	25	Feedback	MissedWin	True
250.727	3.075	Win2	0.7308	n/a	No	3.075	n/a	n/a	NoResponse	0	0.0	n/a	3	25	ISIslide	MissedWin	True
253.82	0.25	Win2	0.7037	0.0	No	2.93	0.02	n/a	NoResponse	0	n/a	n/a	3	26	Cue	MissedWin	True
254.07	3.95	Win2	0.7037	0.0	No	2.93	0.0	n/a	NoResponse	0	n/a	n/a	3	26	Fixation	MissedWin	True
258.015	0.15	Win2	0.7037	0.005	No	2.93	-0.005	2.0	NoResponse	0	0.172	257.187	3	26	Target	MissedWin	True
258.166	0.55	Win2	0.7037	n/a	No	2.93	n/a	n/a	NoResponse	0	n/a	n/a	3	26	Blank	MissedWin	True
258.187	0.3	Win2	0.7037	0.005	No	2.93	-0.005	2.0	NoResponse	0	0.172	n/a	3	26	ButtonPress	MissedWin	True
258.718	1.45	Win2	0.7037	n/a	No	2.93	n/a	5.0	NoResponse	0	0.035	257.753	3	26	Feedback	MissedWin	True
260.172	2.93	Win2	0.7037	n/a	No	2.93	n/a	n/a	NoResponse	0	0.0	n/a	3	26	ISIslide	MissedWin	True
263.114	0.25	Lose2	0.6786	0.0	No	2.836	0.014	n/a	NoResponse	-1	n/a	n/a	2	27	Cue	Loss	False
263.365	4.05	Lose2	0.6786	0.0	No	2.836	0.001	2.0	NoResponse	-1	3.027	265.392	2	27	Fixation	Loss	False
266.392	0.3	Lose2	0.6786	0.0	No	2.836	0.001	2.0	NoResponse	-1	3.027	n/a	2	27	ButtonPress	Loss	False
267.41	0.15	Lose2	0.6786	0.004	No	2.836	-0.004	2.0	NoResponse	-1	0.188	266.598	2	27	Target	Loss	False
267.561	0.55	Lose2	0.6786	n/a	No	2.836	n/a	n/a	NoResponse	-1	n/a	n/a	2	27	Blank	Loss	False
267.598	0.3	Lose2	0.6786	0.004	No	2.836	-0.004	2.0	NoResponse	-1	0.188	n/a	2	27	ButtonPress	Loss	False
268.112	1.45	Lose2	0.6786	n/a	No	2.836	n/a	5.0	NoResponse	-1	0.007	267.119	2	27	Feedback	Loss	False
269.567	2.836	Lose2	0.6786	n/a	No	2.836	n/a	n/a	NoResponse	-1	0.0	n/a	2	27	ISIslide	Loss	False
272.425	0.25	Control	0.6552	0.0	No	2.825	0.025	n/a	PrematurePress	0	n/a	n/a	2	28	Cue	Neutral	True
272.676	4.05	Control	0.6552	0.0	No	2.825	0.001	n/a	PrematurePress	0	n/a	n/a	2	28	Fixation	Neutral	True
276.721	0.15	Control	0.6552	0.004	No	2.825	-0.004	2.0	PrematurePress	0	0.053	275.774	2	28	Target	Neutral	True
276.774	0.3	Control	0.6552	0.004	No	2.825	-0.004	2.0	PrematurePress	0	0.053	n/a	2	28	ButtonPress	Neutral	True
276.872	0.55	Control	0.6552	n/a	No	2.825	n/a	n/a	PrematurePress	0	n/a	n/a	2	28	Blank	Neutral	True
277.424	1.45	Control	0.6552	n/a	No	2.825	n/a	5.0	PrematurePress	0	0.012	276.436	2	28	Feedback	Neutral	True
278.878	2.825	Control	0.6552	n/a	No	2.825	n/a	n/a	PrematurePress	0	0.0	n/a	2	28	ISIslide	Neutral	True
281.72	0.25	Lose2	0.6333	0.0	No	2.83	0.02	n/a	NoResponse	-1	n/a	n/a	1	29	Cue	Loss	True
281.971	3.95	Lose2	0.6333	0.0	No	2.83	0.001	n/a	NoResponse	-1	n/a	n/a	1	29	Fixation	Loss	True
285.916	0.15	Lose2	0.6333	0.004	No	2.83	-0.004	2.0	NoResponse	-1	0.23	285.146	1	29	Target	Loss	True
286.066	0.55	Lose2	0.6333	n/a	No	2.83	n/a	n/a	NoResponse	-1	n/a	n/a	1	29	Blank	Loss	True
286.146	0.3	Lose2	0.6333	0.004	No	2.83	-0.004	2.0	NoResponse	-1	0.23	n/a	1	29	ButtonPress	Loss	True
286.618	1.45	Lose2	0.6333	n/a	No	2.83	n/a	5.0	NoResponse	-1	0.037	285.655	1	29	Feedback	Loss	True
288.072	2.83	Lose2	0.6333	n/a	No	2.83	n/a	n/a	NoResponse	-1	0.0	n/a	1	29	ISIslide	Loss	True
290.914	0.25	Win2	0.6129	0.0	No	2.786	0.014	n/a	NoResponse	0	n/a	n/a	1	30	Cue	MissedWin	True
291.165	3.9	Win2	0.6129	0.0	No	2.786	0.001	2.0	NoResponse	0	3.605	293.77	1	30	Fixation	MissedWin	True
294.77	0.3	Win2	0.6129	0.0	No	2.786	0.001	2.0	NoResponse	0	3.605	n/a	1	30	ButtonPress	MissedWin	True
295.06	0.16	Win2	0.6129	0.004	No	2.786	-0.004	n/a	NoResponse	0	n/a	n/a	1	30	Target	MissedWin	True
295.227	0.54	Win2	0.6129	n/a	No	2.786	n/a	n/a	NoResponse	0	n/a	n/a	1	30	Blank	MissedWin	True
295.762	1.45	Win2	0.6129	n/a	No	2.786	n/a	5.0	NoResponse	0	0.015	294.777	1	30	Feedback	MissedWin	True
297.216	2.786	Win2	0.6129	n/a	No	2.786	n/a	n/a	NoResponse	0	0.0	n/a	1	30	ISIslide	MissedWin	True
300.025	0.25	Lose2	0.5938	0.0	No	2.825	0.025	n/a	NoResponse	-1	n/a	n/a	0	31	Cue	Loss	True
300.275	4.05	Lose2	0.5938	0.0	No	2.825	0.0	n/a	NoResponse	-1	n/a	n/a	0	31	Fixation	Loss	True
304.321	0.17	Lose2	0.5938	0.004	No	2.825	-0.004	2.0	NoResponse	-1	0.197	303.518	0	31	Target	Loss	True
304.505	0.53	Lose2	0.5938	n/a	No	2.825	n/a	n/a	NoResponse	-1	n/a	n/a	0	31	Blank	Loss	True
304.518	0.3	Lose2	0.5938	0.004	No	2.825	-0.004	2.0	NoResponse	-1	0.197	n/a	0	31	ButtonPress	Loss	True
305.023	1.45	Lose2	0.5938	n/a	No	2.825	n/a	5.0	NoResponse	-1	0.023	304.046	0	31	Feedback	Loss	True
306.477	2.825	Lose2	0.5938	n/a	No	2.825	n/a	n/a	NoResponse	-1	0.0	n/a	0	31	ISIslide	Loss	True
309.319	0.25	Lose2	0.5758	0.0	No	2.631	0.019	n/a	NoResponse	-1	n/a	n/a	-1	32	Cue	Loss	True
309.57	4.15	Lose2	0.5758	0.0	No	2.631	0.001	n/a	NoResponse	-1	n/a	n/a	-1	32	Fixation	Loss	True
313.716	0.18	Lose2	0.5758	0.003	No	2.631	-0.003	2.0	NoResponse	-1	0.207	312.923	-1	32	Target	Loss	True
313.899	0.52	Lose2	0.5758	n/a	No	2.631	n/a	n/a	NoResponse	-1	n/a	n/a	-1	32	Blank	Loss	True
313.923	0.3	Lose2	0.5758	0.003	No	2.631	-0.003	2.0	NoResponse	-1	0.207	n/a	-1	32	ButtonPress	Loss	True
314.418	1.45	Lose2	0.5758	n/a	No	2.631	n/a	5.0	NoResponse	-1	0.042	313.46	-1	32	Feedback	Loss	True
315.872	2.631	Lose2	0.5758	n/a	No	2.631	n/a	n/a	NoResponse	-1	0.0	n/a	-1	32	ISIslide	Loss	True
318.513	0.25	Win2	0.5588000000000001	0.0	No	2.687	0.013	n/a	NoResponse	0	n/a	n/a	-1	33	Cue	MissedWin	True
318.764	4.0	Win2	0.5588000000000001	0.0	No	2.687	0.001	n/a	NoResponse	0	n/a	n/a	-1	33	Fixation	MissedWin	True
322.759	0.19	Win2	0.5588000000000001	0.004	No	2.687	-0.004	2.0	NoResponse	0	0.207	321.966	-1	33	Target	MissedWin	True
322.96	0.51	Win2	0.5588000000000001	n/a	No	2.687	n/a	n/a	NoResponse	0	n/a	n/a	-1	33	Blank	MissedWin	True
322.966	0.3	Win2	0.5588000000000001	0.004	No	2.687	-0.004	2.0	NoResponse	0	0.207	n/a	-1	33	ButtonPress	MissedWin	True
323.461	1.45	Win2	0.5588000000000001	n/a	No	2.687	n/a	5.0	NoResponse	0	0.024	322.485	-1	33	Feedback	MissedWin	True
324.916	2.687	Win2	0.5588000000000001	n/a	No	2.687	n/a	n/a	NoResponse	0	0.0	n/a	-1	33	ISIslide	MissedWin	True
327.624	0.25	Lose2	0.5428999999999999	0.0	No	2.626	0.024	n/a	NoResponse	-1	n/a	n/a	-2	34	Cue	Loss	True
327.875	4.05	Lose2	0.5428999999999999	0.0	No	2.626	0.001	n/a	NoResponse	-1	n/a	n/a	-2	34	Fixation	Loss	True
331.92	0.2	Lose2	0.5428999999999999	0.004	No	2.626	-0.004	2.0	NoResponse	-1	0.225	331.145	-2	34	Target	Loss	True
332.121	0.5	Lose2	0.5428999999999999	n/a	No	2.626	n/a	n/a	NoResponse	-1	n/a	n/a	-2	34	Blank	Loss	True
332.145	0.3	Lose2	0.5428999999999999	0.004	No	2.626	-0.004	2.0	NoResponse	-1	0.225	n/a	-2	34	ButtonPress	Loss	True
332.622	1.45	Lose2	0.5428999999999999	n/a	No	2.626	n/a	5.0	NoResponse	-1	0.033	331.655	-2	34	Feedback	Loss	True
334.077	2.626	Lose2	0.5428999999999999	n/a	No	2.626	n/a	n/a	NoResponse	-1	0.0	n/a	-2	34	ISIslide	Loss	True
336.718	0.25	Lose2	0.5278	0.0	No	2.682	0.018	n/a	NoResponse	-1	n/a	n/a	-3	35	Cue	Loss	True
336.968	4.0	Lose2	0.5278	0.001	No	2.682	0.0	n/a	NoResponse	-1	n/a	n/a	-3	35	Fixation	Loss	True
340.964	0.21	Lose2	0.5278	0.004	No	2.682	-0.004	2.0	NoResponse	-1	0.301	340.265	-3	35	Target	Loss	True
341.181	0.49	Lose2	0.5278	n/a	No	2.682	n/a	n/a	NoResponse	-1	n/a	n/a	-3	35	Blank	Loss	True
341.265	0.3	Lose2	0.5278	0.004	No	2.682	-0.004	2.0	NoResponse	-1	0.301	n/a	-3	35	ButtonPress	Loss	True
341.666	1.45	Lose2	0.5278	n/a	No	2.682	n/a	5.0	NoResponse	-1	0.013	340.679	-3	35	Feedback	Loss	True
343.12	2.682	Lose2	0.5278	n/a	No	2.682	n/a	n/a	NoResponse	-1	0.0	n/a	-3	35	ISIslide	Loss	True
345.828	0.25	Control	0.5405	0.0	Yes	2.672	0.028	n/a	GoodResponse	0	n/a	n/a	-3	36	Cue	Neutral	True
346.079	4.0	Control	0.5405	0.0	Yes	2.672	0.001	n/a	GoodResponse	0	n/a	n/a	-3	36	Fixation	Neutral	True
350.074	0.22	Control	0.5405	0.004	Yes	2.672	-0.004	2.0	GoodResponse	0	0.175	349.249	-3	36	Target	Neutral	True
350.249	0.3	Control	0.5405	0.004	Yes	2.672	-0.004	2.0	GoodResponse	0	0.175	n/a	-3	36	ButtonPress	Neutral	True
350.308	0.48	Control	0.5405	n/a	Yes	2.672	n/a	n/a	GoodResponse	0	n/a	n/a	-3	36	Blank	Neutral	True
350.776	1.45	Control	0.5405	n/a	Yes	2.672	n/a	5.0	GoodResponse	0	0.025	349.801	-3	36	Feedback	Neutral	True
352.231	2.672	Control	0.5405	n/a	Yes	2.672	n/a	n/a	GoodResponse	0	0.0	n/a	-3	36	ISIslide	Neutral	True
354.922	0.25	Win2	0.5526	0.0	Yes	2.878	0.022	n/a	GoodResponse	1	n/a	n/a	-2	37	Cue	Win	True
355.173	4.0	Win2	0.5526	0.0	Yes	2.878	0.001	n/a	GoodResponse	1	n/a	n/a	-2	37	Fixation	Win	True
359.168	0.23	Win2	0.5526	0.004	Yes	2.878	-0.004	2.0	GoodResponse	1	0.166	358.334	-2	37	Target	Win	True
359.334	0.3	Win2	0.5526	0.004	Yes	2.878	-0.004	2.0	GoodResponse	1	0.166	n/a	-2	37	ButtonPress	Win	True
359.402	0.47	Win2	0.5526	n/a	Yes	2.878	n/a	n/a	GoodResponse	1	n/a	n/a	-2	37	Blank	Win	True
359.87	1.45	Win2	0.5526	n/a	Yes	2.878	n/a	5.0	GoodResponse	1	0.004	358.874	-2	37	Feedback	Win	True
361.325	2.878	Win2	0.5526	n/a	Yes	2.878	n/a	n/a	GoodResponse	1	0.0	n/a	-2	37	ISIslide	Win	True
364.217	0.25	Lose2	0.5385	0.0	No	2.833	0.017	n/a	NoResponse	-1	n/a	n/a	-3	38	Cue	Loss	True
364.467	3.95	Lose2	0.5385	0.001	No	2.833	0.0	2.0	NoResponse	-1	3.801	367.268	-3	38	Fixation	Loss	True
368.268	0.3	Lose2	0.5385	0.001	No	2.833	0.0	2.0	NoResponse	-1	3.801	n/a	-3	38	ButtonPress	Loss	True
368.413	0.24	Lose2	0.5385	0.004	No	2.833	-0.004	n/a	NoResponse	-1	n/a	n/a	-3	38	Target	Loss	True
368.663	0.46	Lose2	0.5385	n/a	No	2.833	n/a	n/a	NoResponse	-1	n/a	n/a	-3	38	Blank	Loss	True
369.115	1.45	Lose2	0.5385	n/a	No	2.833	n/a	5.0	NoResponse	-1	0.028	368.143	-3	38	Feedback	Loss	True
370.569	2.833	Lose2	0.5385	n/a	No	2.833	n/a	n/a	NoResponse	-1	0.0	n/a	-3	38	ISIslide	Loss	True
373.428	0.25	Win2	0.525	0.0	No	2.972	0.028	n/a	NoResponse	0	n/a	n/a	-3	39	Cue	MissedWin	True
373.678	4.1	Win2	0.525	0.0	No	2.972	0.0	n/a	NoResponse	0	n/a	n/a	-3	39	Fixation	MissedWin	True
377.774	0.25	Win2	0.525	0.004	No	2.972	-0.004	2.0	NoResponse	0	0.262	377.036	-3	39	Target	MissedWin	True
378.025	0.45	Win2	0.525	n/a	No	2.972	n/a	n/a	NoResponse	0	n/a	n/a	-3	39	Blank	MissedWin	True
378.036	0.3	Win2	0.525	0.004	No	2.972	-0.004	2.0	NoResponse	0	0.262	n/a	-3	39	ButtonPress	MissedWin	True
378.476	1.45	Win2	0.525	n/a	No	2.972	n/a	5.0	NoResponse	0	0.032	377.508	-3	39	Feedback	MissedWin	True
379.93	2.972	Win2	0.525	n/a	No	2.972	n/a	n/a	NoResponse	0	0.0	n/a	-3	39	ISIslide	MissedWin	True
382.923	0.25	Win2	0.5366	0.0	Yes	2.727	0.023	n/a	GoodResponse	1	n/a	n/a	-2	40	Cue	Win	True
383.173	3.95	Win2	0.5366	0.001	Yes	2.727	0.0	n/a	GoodResponse	1	n/a	n/a	-2	40	Fixation	Win	True
387.119	0.26	Win2	0.5366	0.004	Yes	2.727	-0.004	2.0	GoodResponse	1	0.18	386.299	-2	40	Target	Win	True
387.299	0.3	Win2	0.5366	0.004	Yes	2.727	-0.004	2.0	GoodResponse	1	0.18	n/a	-2	40	ButtonPress	Win	True
387.386	0.44	Win2	0.5366	n/a	Yes	2.727	n/a	n/a	GoodResponse	1	n/a	n/a	-2	40	Blank	Win	True
387.821	1.45	Win2	0.5366	n/a	Yes	2.727	n/a	5.0	GoodResponse	1	0.004	386.825	-2	40	Feedback	Win	True
389.275	2.727	Win2	0.5366	n/a	Yes	2.727	n/a	n/a	GoodResponse	1	0.0	n/a	-2	40	ISIslide	Win	True
392.017	0.25	Win2	0.5476	0.0	Yes	2.783	0.017	n/a	GoodResponse	1	n/a	n/a	-1	41	Cue	Win	True
392.267	3.9	Win2	0.5476	0.0	Yes	2.783	0.0	n/a	GoodResponse	1	n/a	n/a	-1	41	Fixation	Win	True
396.179	0.27	Win2	0.5476	0.0	Yes	2.783	0.012	2.0	GoodResponse	1	0.227	395.406	-1	41	Target	Win	True
396.406	0.3	Win2	0.5476	0.0	Yes	2.783	0.012	2.0	GoodResponse	1	0.227	n/a	-1	41	ButtonPress	Win	True
396.447	0.43	Win2	0.5476	n/a	Yes	2.783	n/a	n/a	GoodResponse	1	n/a	n/a	-1	41	Blank	Win	True
396.864	1.45	Win2	0.5476	n/a	Yes	2.783	n/a	5.0	GoodResponse	1	0.034	395.898	-1	41	Feedback	Win	True
398.319	2.783	Win2	0.5476	n/a	Yes	2.783	n/a	n/a	GoodResponse	1	0.0	n/a	-1	41	ISIslide	Win	True
401.127	0.25	Control	0.5581	0.0	Yes	2.923	0.027	n/a	GoodResponse	0	n/a	n/a	-1	42	Cue	Neutral	True
401.378	3.85	Control	0.5581	0.0	Yes	2.923	0.001	n/a	GoodResponse	0	n/a	n/a	-1	42	Fixation	Neutral	True
405.223	0.28	Control	0.5581	0.004	Yes	2.923	-0.004	2.0	GoodResponse	0	0.234	404.457	-1	42	Target	Neutral	True
405.457	0.3	Control	0.5581	0.004	Yes	2.923	-0.004	2.0	GoodResponse	0	0.234	n/a	-1	42	ButtonPress	Neutral	True
405.507	0.42	Control	0.5581	n/a	Yes	2.923	n/a	n/a	GoodResponse	0	n/a	n/a	-1	42	Blank	Neutral	True
405.925	1.45	Control	0.5581	n/a	Yes	2.923	n/a	5.0	GoodResponse	0	0.046	404.971	-1	42	Feedback	Neutral	True
407.379	2.923	Control	0.5581	n/a	Yes	2.923	n/a	n/a	GoodResponse	0	0.0	n/a	-1	42	ISIslide	Neutral	True
410.321	0.25	Win2	0.5682	0.0	Yes	3.179	0.021	n/a	GoodResponse	1	n/a	n/a	0	43	Cue	Win	True
410.572	4.0	Win2	0.5682	0.0	Yes	3.179	0.001	n/a	GoodResponse	1	n/a	n/a	0	43	Fixation	Win	True
414.567	0.29	Win2	0.5682	0.004	Yes	3.179	-0.004	2.0	GoodResponse	1	0.191	413.758	0	43	Target	Win	True
414.758	0.3	Win2	0.5682	0.004	Yes	3.179	-0.004	2.0	GoodResponse	1	0.191	n/a	0	43	ButtonPress	Win	True
414.868	0.41	Win2	0.5682	n/a	Yes	3.179	n/a	n/a	GoodResponse	1	n/a	n/a	0	43	Blank	Win	True
415.27	1.45	Win2	0.5682	n/a	Yes	3.179	n/a	5.0	GoodResponse	1	0.019	414.289	0	43	Feedback	Win	True
416.724	3.179	Win2	0.5682	n/a	Yes	3.179	n/a	n/a	GoodResponse	1	0.0	n/a	0	43	ISIslide	Win	True
419.917	0.25	Win2	0.5778	0.0	Yes	2.983	0.017	n/a	GoodResponse	1	n/a	n/a	1	44	Cue	Win	True
420.168	4.0	Win2	0.5778	0.0	Yes	2.983	0.001	n/a	GoodResponse	1	n/a	n/a	1	44	Fixation	Win	True
424.163	0.3	Win2	0.5778	0.004	Yes	2.983	-0.004	2.0	GoodResponse	1	0.279	423.442	1	44	Target	Win	True
424.442	0.3	Win2	0.5778	0.004	Yes	2.983	-0.004	2.0	GoodResponse	1	0.279	n/a	1	44	ButtonPress	Win	True
424.464	0.4	Win2	0.5778	n/a	Yes	2.983	n/a	n/a	GoodResponse	1	n/a	n/a	1	44	Blank	Win	True
424.865	1.45	Win2	0.5778	n/a	Yes	2.983	n/a	5.0	GoodResponse	1	0.034	423.899	1	44	Feedback	Win	True
426.319	2.983	Win2	0.5778	n/a	Yes	2.983	n/a	n/a	GoodResponse	1	0.0	n/a	1	44	ISIslide	Win	True
429.328	0.25	Control	0.5870000000000001	0.0	Yes	2.872	0.028	n/a	GoodResponse	0	n/a	n/a	1	45	Cue	Neutral	True
429.579	4.1	Control	0.5870000000000001	0.0	Yes	2.872	0.001	n/a	GoodResponse	0	n/a	n/a	1	45	Fixation	Neutral	True
433.675	0.31	Control	0.5870000000000001	0.003	Yes	2.872	-0.003	2.0	GoodResponse	0	0.232	432.907	1	45	Target	Neutral	True
433.907	0.3	Control	0.5870000000000001	0.003	Yes	2.872	-0.003	2.0	GoodResponse	0	0.232	n/a	1	45	ButtonPress	Neutral	True
433.992	0.39	Control	0.5870000000000001	n/a	Yes	2.872	n/a	n/a	GoodResponse	0	n/a	n/a	1	45	Blank	Neutral	True
434.377	1.45	Control	0.5870000000000001	n/a	Yes	2.872	n/a	5.0	GoodResponse	0	0.033	433.41	1	45	Feedback	Neutral	True
435.831	2.872	Control	0.5870000000000001	n/a	Yes	2.872	n/a	n/a	GoodResponse	0	0.0	n/a	1	45	ISIslide	Neutral	True
438.723	0.25	Lose2	0.5957	0.0	Yes	3.377	0.023	n/a	GoodResponse	0	n/a	n/a	1	46	Cue	AvoidedLoss	True
438.974	4.0	Lose2	0.5957	0.0	Yes	3.377	0.001	n/a	GoodResponse	0	n/a	n/a	1	46	Fixation	AvoidedLoss	True
442.969	0.32	Lose2	0.5957	0.004	Yes	3.377	-0.004	2.0	GoodResponse	0	0.203	442.172	1	46	Target	AvoidedLoss	True
443.172	0.3	Lose2	0.5957	0.004	Yes	3.377	-0.004	2.0	GoodResponse	0	0.203	n/a	1	46	ButtonPress	AvoidedLoss	True
443.303	0.38	Lose2	0.5957	n/a	Yes	3.377	n/a	n/a	GoodResponse	0	n/a	n/a	1	46	Blank	AvoidedLoss	True
443.671	1.45	Lose2	0.5957	n/a	Yes	3.377	n/a	5.0	GoodResponse	0	0.007	442.678	1	46	Feedback	AvoidedLoss	True
445.126	3.377	Lose2	0.5957	n/a	Yes	3.377	n/a	n/a	GoodResponse	0	0.0	n/a	1	46	ISIslide	AvoidedLoss	True
448.519	0.25	Lose2	0.6042000000000001	0.0	Yes	2.681	0.019	n/a	GoodResponse	0	n/a	n/a	1	47	Cue	AvoidedLoss	True
448.77	4.0	Lose2	0.6042000000000001	0.0	Yes	2.681	0.001	n/a	GoodResponse	0	n/a	n/a	1	47	Fixation	AvoidedLoss	True
452.765	0.33	Lose2	0.6042000000000001	0.004	Yes	2.681	-0.004	2.0	GoodResponse	0	0.23	451.995	1	47	Target	AvoidedLoss	True
452.995	0.3	Lose2	0.6042000000000001	0.004	Yes	2.681	-0.004	2.0	GoodResponse	0	0.23	n/a	1	47	ButtonPress	AvoidedLoss	True
453.099	0.37	Lose2	0.6042000000000001	n/a	Yes	2.681	n/a	n/a	GoodResponse	0	n/a	n/a	1	47	Blank	AvoidedLoss	True
453.467	1.45	Lose2	0.6042000000000001	n/a	Yes	2.681	n/a	5.0	GoodResponse	0	0.016	452.483	1	47	Feedback	AvoidedLoss	True
454.922	2.681	Lose2	0.6042000000000001	n/a	Yes	2.681	n/a	n/a	GoodResponse	0	0.0	n/a	1	47	ISIslide	AvoidedLoss	True
457.63	0.25	Lose2	0.6122	0.0	Yes	3.02	0.03	n/a	GoodResponse	0	n/a	n/a	1	48	Cue	AvoidedLoss	True
457.88	3.95	Lose2	0.6122	0.001	Yes	3.02	0.0	n/a	GoodResponse	0	n/a	n/a	1	48	Fixation	AvoidedLoss	True
461.826	0.34	Lose2	0.6122	0.004	Yes	3.02	-0.004	2.0	GoodResponse	0	0.192	461.018	1	48	Target	AvoidedLoss	True
462.018	0.3	Lose2	0.6122	0.004	Yes	3.02	-0.004	2.0	GoodResponse	0	0.192	n/a	1	48	ButtonPress	AvoidedLoss	True
462.177	0.36	Lose2	0.6122	n/a	Yes	3.02	n/a	n/a	GoodResponse	0	n/a	n/a	1	48	Blank	AvoidedLoss	True
462.528	1.45	Lose2	0.6122	n/a	Yes	3.02	n/a	5.0	GoodResponse	0	0.028	461.556	1	48	Feedback	AvoidedLoss	True
463.982	3.02	Lose2	0.6122	n/a	Yes	3.02	n/a	n/a	GoodResponse	0	0.0	n/a	1	48	ISIslide	AvoidedLoss	True
467.024	0.25	Control	0.62	0.001	Yes	2.876	0.024	n/a	GoodResponse	0	n/a	n/a	1	49	Cue	Neutral	True
467.275	4.0	Control	0.62	0.0	Yes	2.876	0.001	n/a	GoodResponse	0	n/a	n/a	1	49	Fixation	Neutral	True
471.271	0.35	Control	0.62	0.003	Yes	2.876	-0.003	2.0	GoodResponse	0	0.326	470.597	1	49	Target	Neutral	True
471.597	0.3	Control	0.62	0.003	Yes	2.876	-0.003	2.0	GoodResponse	0	0.326	n/a	1	49	ButtonPress	Neutral	True
471.622	0.35	Control	0.62	n/a	Yes	2.876	n/a	n/a	GoodResponse	0	n/a	n/a	1	49	Blank	Neutral	True
471.973	1.45	Control	0.62	n/a	Yes	2.876	n/a	5.0	GoodResponse	0	0.047	471.02	1	49	Feedback	Neutral	True
473.427	2.876	Control	0.62	n/a	Yes	2.876	n/a	n/a	GoodResponse	0	0.0	n/a	1	49	ISIslide	Neutral	True
476.319	0.25	Control	0.6275	0.0	Yes	2.781	0.019	n/a	GoodResponse	0	n/a	n/a	1	50	Cue	Neutral	True
476.57	4.0	Control	0.6275	0.0	Yes	2.781	0.001	n/a	GoodResponse	0	n/a	n/a	1	50	Fixation	Neutral	True
480.565	0.36	Control	0.6275	0.004	Yes	2.781	-0.004	2.0	GoodResponse	0	0.307	479.872	1	50	Target	Neutral	True
480.872	0.3	Control	0.6275	0.004	Yes	2.781	-0.004	2.0	GoodResponse	0	0.307	n/a	1	50	ButtonPress	Neutral	True
480.933	0.34	Control	0.6275	n/a	Yes	2.781	n/a	n/a	GoodResponse	0	n/a	n/a	1	50	Blank	Neutral	True
481.267	1.45	Control	0.6275	n/a	Yes	2.781	n/a	5.0	GoodResponse	0	0.02	480.287	1	50	Feedback	Neutral	True
482.721	2.781	Control	0.6275	n/a	Yes	2.781	n/a	n/a	GoodResponse	0	0.0	n/a	1	50	ISIslide	Neutral	True
485.513	0.25	Control	0.6346	0.0	Yes	2.737	0.013	n/a	GoodResponse	0	n/a	n/a	1	51	Cue	Neutral	True
485.764	3.95	Control	0.6346	0.0	Yes	2.737	0.001	n/a	GoodResponse	0	n/a	n/a	1	51	Fixation	Neutral	True
489.709	0.37	Control	0.6346	0.004	Yes	2.737	-0.004	2.0	GoodResponse	0	0.358	489.067	1	51	Target	Neutral	True
490.067	0.3	Control	0.6346	0.004	Yes	2.737	-0.004	2.0	GoodResponse	0	0.358	n/a	1	51	ButtonPress	Neutral	True
490.094	0.33	Control	0.6346	n/a	Yes	2.737	n/a	n/a	GoodResponse	0	n/a	n/a	1	51	Blank	Neutral	True
490.411	1.45	Control	0.6346	n/a	Yes	2.737	n/a	5.0	GoodResponse	0	0.047	489.458	1	51	Feedback	Neutral	True
491.865	2.737	Control	0.6346	n/a	Yes	2.737	n/a	n/a	GoodResponse	0	0.0	n/a	1	51	ISIslide	Neutral	True
494.624	0.25	Control	0.6415000000000001	0.0	Yes	2.626	0.024	n/a	GoodResponse	0	n/a	n/a	1	52	Cue	Neutral	True
494.874	4.05	Control	0.6415000000000001	0.001	Yes	2.626	0.0	n/a	GoodResponse	0	n/a	n/a	1	52	Fixation	Neutral	True
498.92	0.38	Control	0.6415000000000001	0.004	Yes	2.626	-0.004	2.0	GoodResponse	0	0.303	498.223	1	52	Target	Neutral	True
499.223	0.3	Control	0.6415000000000001	0.004	Yes	2.626	-0.004	2.0	GoodResponse	0	0.303	n/a	1	52	ButtonPress	Neutral	True
499.304	0.32	Control	0.6415000000000001	n/a	Yes	2.626	n/a	n/a	GoodResponse	0	n/a	n/a	1	52	Blank	Neutral	True
499.622	1.45	Control	0.6415000000000001	n/a	Yes	2.626	n/a	5.0	GoodResponse	0	0.007	498.629	1	52	Feedback	Neutral	True
501.076	2.626	Control	0.6415000000000001	n/a	Yes	2.626	n/a	n/a	GoodResponse	0	0.0	n/a	1	52	ISIslide	Neutral	True
503.718	0.25	Win2	0.6481	0.0	Yes	2.932	0.018	n/a	GoodResponse	1	n/a	n/a	2	53	Cue	Win	True
503.968	4.05	Win2	0.6481	0.0	Yes	2.932	0.0	n/a	GoodResponse	1	n/a	n/a	2	53	Fixation	Win	True
508.014	0.39	Win2	0.6481	0.004	Yes	2.932	-0.004	2.0	GoodResponse	1	0.2	507.214	2	53	Target	Win	True
508.214	0.3	Win2	0.6481	0.004	Yes	2.932	-0.004	2.0	GoodResponse	1	0.2	n/a	2	53	ButtonPress	Win	True
508.415	0.31	Win2	0.6481	n/a	Yes	2.932	n/a	n/a	GoodResponse	1	n/a	n/a	2	53	Blank	Win	True
508.716	1.45	Win2	0.6481	n/a	Yes	2.932	n/a	5.0	GoodResponse	1	0.035	507.751	2	53	Feedback	Win	True
510.17	2.932	Win2	0.6481	n/a	Yes	2.932	n/a	n/a	GoodResponse	1	0.0	n/a	2	53	ISIslide	Win	True
513.129	0.25	Win2	0.6545000000000001	0.0	Yes	2.721	0.029	n/a	GoodResponse	1	n/a	n/a	3	54	Cue	Win	True
513.38	3.95	Win2	0.6545000000000001	0.0	Yes	2.721	0.001	n/a	GoodResponse	1	n/a	n/a	3	54	Fixation	Win	True
517.325	0.4	Win2	0.6545000000000001	0.004	Yes	2.721	-0.004	2.0	GoodResponse	1	0.245	516.57	3	54	Target	Win	True
517.57	0.3	Win2	0.6545000000000001	0.004	Yes	2.721	-0.004	2.0	GoodResponse	1	0.245	n/a	3	54	ButtonPress	Win	True
517.726	0.3	Win2	0.6545000000000001	n/a	Yes	2.721	n/a	n/a	GoodResponse	1	n/a	n/a	3	54	Blank	Win	True
518.027	1.45	Win2	0.6545000000000001	n/a	Yes	2.721	n/a	5.0	GoodResponse	1	0.041	517.068	3	54	Feedback	Win	True
519.481	2.721	Win2	0.6545000000000001	n/a	Yes	2.721	n/a	n/a	GoodResponse	1	0.0	n/a	3	54	ISIslide	Win	True
522.223	0.25	Control	0.6607	0.0	Yes	3.027	0.023	n/a	GoodResponse	0	n/a	n/a	3	55	Cue	Neutral	True
522.474	3.95	Control	0.6607	0.0	Yes	3.027	0.001	n/a	GoodResponse	0	n/a	n/a	3	55	Fixation	Neutral	True
526.419	0.41	Control	0.6607	0.004	Yes	3.027	-0.004	2.0	GoodResponse	0	0.258	525.677	3	55	Target	Neutral	True
526.677	0.3	Control	0.6607	0.004	Yes	3.027	-0.004	2.0	GoodResponse	0	0.258	n/a	3	55	ButtonPress	Neutral	True
526.837	0.29	Control	0.6607	n/a	Yes	3.027	n/a	n/a	GoodResponse	0	n/a	n/a	3	55	Blank	Neutral	True
527.121	1.45	Control	0.6607	n/a	Yes	3.027	n/a	5.0	GoodResponse	0	0.021	526.142	3	55	Feedback	Neutral	True
528.575	3.027	Control	0.6607	n/a	Yes	3.027	n/a	n/a	GoodResponse	0	0.0	n/a	3	55	ISIslide	Neutral	True
531.618	0.25	Control	0.6667000000000001	0.0	Yes	2.832	0.018	n/a	GoodResponse	0	n/a	n/a	3	56	Cue	Neutral	True
531.869	3.95	Control	0.6667000000000001	0.0	Yes	2.832	0.001	n/a	GoodResponse	0	n/a	n/a	3	56	Fixation	Neutral	True
535.814	0.41	Control	0.6667000000000001	0.004	Yes	2.832	-0.004	2.0	GoodResponse	0	0.279	535.093	3	56	Target	Neutral	True
536.093	0.3	Control	0.6667000000000001	0.004	Yes	2.832	-0.004	2.0	GoodResponse	0	0.279	n/a	3	56	ButtonPress	Neutral	True
536.232	0.29	Control	0.6667000000000001	n/a	Yes	2.832	n/a	n/a	GoodResponse	0	n/a	n/a	3	56	Blank	Neutral	True
536.516	1.45	Control	0.6667000000000001	n/a	Yes	2.832	n/a	5.0	GoodResponse	0	0.039	535.555	3	56	Feedback	Neutral	True
537.97	2.832	Control	0.6667000000000001	n/a	Yes	2.832	n/a	n/a	GoodResponse	0	0.0	n/a	3	56	ISIslide	Neutral	True
540.812	0.25	Control	0.6724	0.0	Yes	3.488	0.012	n/a	GoodResponse	0	n/a	n/a	3	57	Cue	Neutral	True
541.063	4.0	Control	0.6724	0.0	Yes	3.488	0.001	n/a	GoodResponse	0	n/a	n/a	3	57	Fixation	Neutral	True
545.058	0.4	Control	0.6724	0.004	Yes	3.488	-0.004	2.0	GoodResponse	0	0.255	544.313	3	57	Target	Neutral	True
545.313	0.3	Control	0.6724	0.004	Yes	3.488	-0.004	2.0	GoodResponse	0	0.255	n/a	3	57	ButtonPress	Neutral	True
545.459	0.3	Control	0.6724	n/a	Yes	3.488	n/a	n/a	GoodResponse	0	n/a	n/a	3	57	Blank	Neutral	True
545.76	1.45	Control	0.6724	n/a	Yes	3.488	n/a	5.0	GoodResponse	0	0.015	544.775	3	57	Feedback	Neutral	True
547.214	3.488	Control	0.6724	n/a	Yes	3.488	n/a	n/a	GoodResponse	0	0.0	n/a	3	57	ISIslide	Neutral	True
550.725	0.25	Win2	0.6779999999999999	0.0	Yes	2.725	0.025	n/a	GoodResponse	1	n/a	n/a	4	58	Cue	Win	True
550.976	4.05	Win2	0.6779999999999999	0.0	Yes	2.725	0.001	n/a	GoodResponse	1	n/a	n/a	4	58	Fixation	Win	True
555.021	0.39	Win2	0.6779999999999999	0.004	Yes	2.725	-0.004	2.0	GoodResponse	1	0.249	554.27	4	58	Target	Win	True
555.27	0.3	Win2	0.6779999999999999	0.004	Yes	2.725	-0.004	2.0	GoodResponse	1	0.249	n/a	4	58	ButtonPress	Win	True
555.422	0.31	Win2	0.6779999999999999	n/a	Yes	2.725	n/a	n/a	GoodResponse	1	n/a	n/a	4	58	Blank	Win	True
555.723	1.45	Win2	0.6779999999999999	n/a	Yes	2.725	n/a	5.0	GoodResponse	1	0.004	554.727	4	58	Feedback	Win	True
557.178	2.725	Win2	0.6779999999999999	n/a	Yes	2.725	n/a	n/a	GoodResponse	1	0.0	n/a	4	58	ISIslide	Win	True
559.919	0.25	Lose2	0.6833	0.0	Yes	2.681	0.019	n/a	GoodResponse	0	n/a	n/a	4	59	Cue	AvoidedLoss	True
560.17	4.0	Lose2	0.6833	0.0	Yes	2.681	0.001	n/a	GoodResponse	0	n/a	n/a	4	59	Fixation	AvoidedLoss	True
564.165	0.38	Lose2	0.6833	0.004	Yes	2.681	-0.004	2.0	GoodResponse	0	0.218	563.383	4	59	Target	AvoidedLoss	True
564.383	0.3	Lose2	0.6833	0.004	Yes	2.681	-0.004	2.0	GoodResponse	0	0.218	n/a	4	59	ButtonPress	AvoidedLoss	True
564.55	0.32	Lose2	0.6833	n/a	Yes	2.681	n/a	n/a	GoodResponse	0	n/a	n/a	4	59	Blank	AvoidedLoss	True
564.867	1.45	Lose2	0.6833	n/a	Yes	2.681	n/a	5.0	GoodResponse	0	0.03	563.897	4	59	Feedback	AvoidedLoss	True
566.322	2.681	Lose2	0.6833	n/a	Yes	2.681	n/a	n/a	GoodResponse	0	0.0	n/a	4	59	ISIslide	AvoidedLoss	True
569.013	0.25	Control	0.6720999999999999	0.0	No	2.687	0.013	n/a	LatePress	0	n/a	n/a	4	60	Cue	Neutral	True
569.264	4.0	Control	0.6720999999999999	0.0	No	2.687	0.001	n/a	LatePress	0	n/a	n/a	4	60	Fixation	Neutral	True
573.259	0.37	Control	0.6720999999999999	0.004	No	2.687	-0.004	2.0	LatePress	0	0.372	572.631	4	60	Target	Neutral	True
573.631	0.3	Control	0.6720999999999999	0.004	No	2.687	-0.004	2.0	LatePress	0	0.372	n/a	4	60	ButtonPress	Neutral	True
573.644	0.33	Control	0.6720999999999999	n/a	No	2.687	n/a	n/a	LatePress	0	n/a	n/a	4	60	Blank	Neutral	True
573.961	1.45	Control	0.6720999999999999	n/a	No	2.687	n/a	5.0	LatePress	0	0.009	572.97	4	60	Feedback	Neutral	True
575.416	2.687	Control	0.6720999999999999	n/a	No	2.687	n/a	n/a	LatePress	0	0.0	n/a	4	60	ISIslide	Neutral	True
578.124	0.25	Lose2	0.6774	0.0	Yes	2.976	0.024	n/a	GoodResponse	0	n/a	n/a	4	61	Cue	AvoidedLoss	True
578.374	4.0	Lose2	0.6774	0.0	Yes	2.976	0.0	n/a	GoodResponse	0	n/a	n/a	4	61	Fixation	AvoidedLoss	True
582.37	0.36	Lose2	0.6774	0.004	Yes	2.976	-0.004	2.0	GoodResponse	0	0.191	581.561	4	61	Target	AvoidedLoss	True
582.561	0.3	Lose2	0.6774	0.004	Yes	2.976	-0.004	2.0	GoodResponse	0	0.191	n/a	4	61	ButtonPress	AvoidedLoss	True
582.737	0.34	Lose2	0.6774	n/a	Yes	2.976	n/a	n/a	GoodResponse	0	n/a	n/a	4	61	Blank	AvoidedLoss	True
583.072	1.45	Lose2	0.6774	n/a	Yes	2.976	n/a	5.0	GoodResponse	0	0.019	582.091	4	61	Feedback	AvoidedLoss	True
584.526	2.976	Lose2	0.6774	n/a	Yes	2.976	n/a	n/a	GoodResponse	0	0.0	n/a	4	61	ISIslide	AvoidedLoss	True
587.518	0.25	Lose2	0.6825	0.001	Yes	2.882	0.018	n/a	GoodResponse	0	n/a	n/a	4	62	Cue	AvoidedLoss	True
587.769	3.9	Lose2	0.6825	0.0	Yes	2.882	0.001	n/a	GoodResponse	0	n/a	n/a	4	62	Fixation	AvoidedLoss	True
591.664	0.35	Lose2	0.6825	0.004	Yes	2.882	-0.004	2.0	GoodResponse	0	0.239	590.903	4	62	Target	AvoidedLoss	True
591.903	0.3	Lose2	0.6825	0.004	Yes	2.882	-0.004	2.0	GoodResponse	0	0.239	n/a	4	62	ButtonPress	AvoidedLoss	True
592.015	0.35	Lose2	0.6825	n/a	Yes	2.882	n/a	n/a	GoodResponse	0	n/a	n/a	4	62	Blank	AvoidedLoss	True
592.366	1.45	Lose2	0.6825	n/a	Yes	2.882	n/a	5.0	GoodResponse	0	0.043	591.409	4	62	Feedback	AvoidedLoss	True
593.821	2.882	Lose2	0.6825	n/a	Yes	2.882	n/a	n/a	GoodResponse	0	0.0	n/a	4	62	ISIslide	AvoidedLoss	True
596.729	0.25	Lose2	0.6875	0.0	Yes	2.621	0.029	n/a	GoodResponse	0	n/a	n/a	4	63	Cue	AvoidedLoss	True
596.98	4.05	Lose2	0.6875	0.0	Yes	2.621	0.001	n/a	GoodResponse	0	n/a	n/a	4	63	Fixation	AvoidedLoss	True
601.026	0.34	Lose2	0.6875	0.003	Yes	2.621	-0.003	2.0	GoodResponse	0	0.247	600.273	4	63	Target	AvoidedLoss	True
601.273	0.3	Lose2	0.6875	0.003	Yes	2.621	-0.003	2.0	GoodResponse	0	0.247	n/a	4	63	ButtonPress	AvoidedLoss	True
601.377	0.36	Lose2	0.6875	n/a	Yes	2.621	n/a	n/a	GoodResponse	0	n/a	n/a	4	63	Blank	AvoidedLoss	True
601.728	1.45	Lose2	0.6875	n/a	Yes	2.621	n/a	5.0	GoodResponse	0	0.047	600.775	4	63	Feedback	AvoidedLoss	True
603.182	2.621	Lose2	0.6875	n/a	Yes	2.621	n/a	n/a	GoodResponse	0	0.0	n/a	4	63	ISIslide	AvoidedLoss	True
605.823	0.25	Win2	0.6923	0.0	Yes	3.127	0.023	n/a	GoodResponse	1	n/a	n/a	5	64	Cue	Win	True
606.074	4.15	Win2	0.6923	0.0	Yes	3.127	0.001	n/a	GoodResponse	1	n/a	n/a	5	64	Fixation	Win	True
610.22	0.33	Win2	0.6923	0.003	Yes	3.127	-0.003	2.0	GoodResponse	1	0.209	609.429	5	64	Target	Win	True
610.429	0.3	Win2	0.6923	0.003	Yes	3.127	-0.003	2.0	GoodResponse	1	0.209	n/a	5	64	ButtonPress	Win	True
610.554	0.37	Win2	0.6923	n/a	Yes	3.127	n/a	n/a	GoodResponse	1	n/a	n/a	5	64	Blank	Win	True
610.922	1.45	Win2	0.6923	n/a	Yes	3.127	n/a	5.0	GoodResponse	1	0.023	609.945	5	64	Feedback	Win	True
612.376	3.127	Win2	0.6923	n/a	Yes	3.127	n/a	n/a	GoodResponse	1	0.0	n/a	5	64	ISIslide	Win	True
615.519	0.25	Control	0.6970000000000001	0.0	Yes	2.781	0.019	n/a	GoodResponse	0	n/a	n/a	5	65	Cue	Neutral	True
615.77	4.0	Control	0.6970000000000001	0.0	Yes	2.781	0.001	n/a	GoodResponse	0	n/a	n/a	5	65	Fixation	Neutral	True
619.765	0.32	Control	0.6970000000000001	0.004	Yes	2.781	-0.004	2.0	GoodResponse	0	0.299	619.064	5	65	Target	Neutral	True
620.064	0.3	Control	0.6970000000000001	0.004	Yes	2.781	-0.004	2.0	GoodResponse	0	0.299	n/a	5	65	ButtonPress	Neutral	True
620.099	0.38	Control	0.6970000000000001	n/a	Yes	2.781	n/a	n/a	GoodResponse	0	n/a	n/a	5	65	Blank	Neutral	True
620.467	1.45	Control	0.6970000000000001	n/a	Yes	2.781	n/a	5.0	GoodResponse	0	0.039	619.506	5	65	Feedback	Neutral	True
621.921	2.781	Control	0.6970000000000001	n/a	Yes	2.781	n/a	n/a	GoodResponse	0	0.0	n/a	5	65	ISIslide	Neutral	True
624.713	0.25	Win2	0.7015	0.0	Yes	2.787	0.013	n/a	GoodResponse	1	n/a	n/a	6	66	Cue	Win	True
624.964	3.9	Win2	0.7015	0.0	Yes	2.787	0.001	n/a	GoodResponse	1	n/a	n/a	6	66	Fixation	Win	True
628.859	0.31	Win2	0.7015	0.004	Yes	2.787	-0.004	2.0	GoodResponse	1	0.192	628.051	6	66	Target	Win	True
629.051	0.3	Win2	0.7015	0.004	Yes	2.787	-0.004	2.0	GoodResponse	1	0.192	n/a	6	66	ButtonPress	Win	True
629.176	0.39	Win2	0.7015	n/a	Yes	2.787	n/a	n/a	GoodResponse	1	n/a	n/a	6	66	Blank	Win	True
629.561	1.45	Win2	0.7015	n/a	Yes	2.787	n/a	5.0	GoodResponse	1	0.019	628.58	6	66	Feedback	Win	True
631.015	2.787	Win2	0.7015	n/a	Yes	2.787	n/a	n/a	GoodResponse	1	0.0	n/a	6	66	ISIslide	Win	True
633.824	0.25	Control	0.7059000000000001	0.0	Yes	2.726	0.024	n/a	GoodResponse	0	n/a	n/a	6	67	Cue	Neutral	True
634.074	3.95	Control	0.7059000000000001	0.001	Yes	2.726	0.0	n/a	GoodResponse	0	n/a	n/a	6	67	Fixation	Neutral	True
638.02	0.3	Control	0.7059000000000001	0.004	Yes	2.726	-0.004	2.0	GoodResponse	0	0.22	637.24	6	67	Target	Neutral	True
638.24	0.3	Control	0.7059000000000001	0.004	Yes	2.726	-0.004	2.0	GoodResponse	0	0.22	n/a	6	67	ButtonPress	Neutral	True
638.321	0.4	Control	0.7059000000000001	n/a	Yes	2.726	n/a	n/a	GoodResponse	0	n/a	n/a	6	67	Blank	Neutral	True
638.722	1.45	Control	0.7059000000000001	n/a	Yes	2.726	n/a	5.0	GoodResponse	0	0.028	637.75	6	67	Feedback	Neutral	True
640.176	2.726	Control	0.7059000000000001	n/a	Yes	2.726	n/a	n/a	GoodResponse	0	0.0	n/a	6	67	ISIslide	Neutral	True
642.918	0.25	Win2	0.7101000000000001	0.0	Yes	3.082	0.018	n/a	GoodResponse	1	n/a	n/a	7	68	Cue	Win	True
643.168	4.0	Win2	0.7101000000000001	0.0	Yes	3.082	0.0	n/a	GoodResponse	1	n/a	n/a	7	68	Fixation	Win	True
647.164	0.29	Win2	0.7101000000000001	0.004	Yes	3.082	-0.004	2.0	GoodResponse	1	0.218	646.382	7	68	Target	Win	True
647.382	0.3	Win2	0.7101000000000001	0.004	Yes	3.082	-0.004	2.0	GoodResponse	1	0.218	n/a	7	68	ButtonPress	Win	True
647.465	0.41	Win2	0.7101000000000001	n/a	Yes	3.082	n/a	n/a	GoodResponse	1	n/a	n/a	7	68	Blank	Win	True
647.866	1.45	Win2	0.7101000000000001	n/a	Yes	3.082	n/a	5.0	GoodResponse	1	0.006	646.872	7	68	Feedback	Win	True
649.32	3.082	Win2	0.7101000000000001	n/a	Yes	3.082	n/a	n/a	GoodResponse	1	0.0	n/a	7	68	ISIslide	Win	True
652.429	0.25	Win2	0.7143	0.001	Yes	3.221	0.029	n/a	GoodResponse	1	n/a	n/a	8	69	Cue	Win	True
652.68	3.95	Win2	0.7143	0.0	Yes	3.221	0.001	n/a	GoodResponse	1	n/a	n/a	8	69	Fixation	Win	True
656.625	0.28	Win2	0.7143	0.004	Yes	3.221	-0.004	2.0	GoodResponse	1	0.228	655.853	8	69	Target	Win	True
656.853	0.3	Win2	0.7143	0.004	Yes	3.221	-0.004	2.0	GoodResponse	1	0.228	n/a	8	69	ButtonPress	Win	True
656.91	0.42	Win2	0.7143	n/a	Yes	3.221	n/a	n/a	GoodResponse	1	n/a	n/a	8	69	Blank	Win	True
657.327	1.45	Win2	0.7143	n/a	Yes	3.221	n/a	5.0	GoodResponse	1	0.008	656.335	8	69	Feedback	Win	True
658.782	3.221	Win2	0.7143	n/a	Yes	3.221	n/a	n/a	GoodResponse	1	0.0	n/a	8	69	ISIslide	Win	True
662.025	0.25	Lose2	0.7182999999999999	0.0	Yes	3.025	0.025	n/a	GoodResponse	0	n/a	n/a	8	70	Cue	AvoidedLoss	True
662.276	4.05	Lose2	0.7182999999999999	0.0	Yes	3.025	0.001	n/a	GoodResponse	0	n/a	n/a	8	70	Fixation	AvoidedLoss	True
666.321	0.27	Lose2	0.7182999999999999	0.004	Yes	3.025	-0.004	2.0	GoodResponse	0	0.194	665.515	8	70	Target	AvoidedLoss	True
666.515	0.3	Lose2	0.7182999999999999	0.004	Yes	3.025	-0.004	2.0	GoodResponse	0	0.194	n/a	8	70	ButtonPress	AvoidedLoss	True
666.605	0.43	Lose2	0.7182999999999999	n/a	Yes	3.025	n/a	n/a	GoodResponse	0	n/a	n/a	8	70	Blank	AvoidedLoss	True
667.023	1.45	Lose2	0.7182999999999999	n/a	Yes	3.025	n/a	5.0	GoodResponse	0	0.019	666.042	8	70	Feedback	AvoidedLoss	True
668.477	3.025	Lose2	0.7182999999999999	n/a	Yes	3.025	n/a	n/a	GoodResponse	0	0.0	n/a	8	70	ISIslide	AvoidedLoss	True
671.52	0.25	Win2	0.7222	0.0	Yes	2.73	0.02	n/a	GoodResponse	1	n/a	n/a	9	71	Cue	Win	True
671.771	4.05	Win2	0.7222	0.0	Yes	2.73	0.001	n/a	GoodResponse	1	n/a	n/a	9	71	Fixation	Win	True
675.816	0.26	Win2	0.7222	0.004	Yes	2.73	-0.004	2.0	GoodResponse	1	0.199	675.015	9	71	Target	Win	True
676.015	0.3	Win2	0.7222	0.004	Yes	2.73	-0.004	2.0	GoodResponse	1	0.199	n/a	9	71	ButtonPress	Win	True
676.084	0.44	Win2	0.7222	n/a	Yes	2.73	n/a	n/a	GoodResponse	1	n/a	n/a	9	71	Blank	Win	True
676.518	1.45	Win2	0.7222	n/a	Yes	2.73	n/a	5.0	GoodResponse	1	0.037	675.555	9	71	Feedback	Win	True
677.973	2.73	Win2	0.7222	n/a	Yes	2.73	n/a	n/a	GoodResponse	1	0.0	n/a	9	71	ISIslide	Win	True
680.714	0.25	Win2	0.7123	0.0	No	2.786	0.014	n/a	NoResponse	0	n/a	n/a	9	72	Cue	MissedWin	True
680.965	4.1	Win2	0.7123	0.0	No	2.786	0.001	n/a	NoResponse	0	n/a	n/a	9	72	Fixation	MissedWin	True
685.06	0.25	Win2	0.7123	0.004	No	2.786	-0.004	2.0	NoResponse	0	0.281	684.341	9	72	Target	MissedWin	True
685.311	0.45	Win2	0.7123	n/a	No	2.786	n/a	n/a	NoResponse	0	n/a	n/a	9	72	Blank	MissedWin	True
685.341	0.3	Win2	0.7123	0.004	No	2.786	-0.004	2.0	NoResponse	0	0.281	n/a	9	72	ButtonPress	MissedWin	True
685.763	1.45	Win2	0.7123	n/a	No	2.786	n/a	5.0	NoResponse	0	0.01	684.773	9	72	Feedback	MissedWin	True
687.217	2.786	Win2	0.7123	n/a	No	2.786	n/a	n/a	NoResponse	0	0.0	n/a	9	72	ISIslide	MissedWin	True
690.025	0.25	Win2	0.7027	0.0	No	2.675	0.025	n/a	NoResponse	0	n/a	n/a	9	73	Cue	MissedWin	True
690.276	4.0	Win2	0.7027	0.0	No	2.675	0.001	n/a	NoResponse	0	n/a	n/a	9	73	Fixation	MissedWin	True
694.271	0.24	Win2	0.7027	0.004	No	2.675	-0.004	2.0	NoResponse	0	0.267	693.538	9	73	Target	MissedWin	True
694.522	0.46	Win2	0.7027	n/a	No	2.675	n/a	n/a	NoResponse	0	n/a	n/a	9	73	Blank	MissedWin	True
694.538	0.3	Win2	0.7027	0.004	No	2.675	-0.004	2.0	NoResponse	0	0.267	n/a	9	73	ButtonPress	MissedWin	True
694.973	1.45	Win2	0.7027	n/a	No	2.675	n/a	5.0	NoResponse	0	0.02	693.993	9	73	Feedback	MissedWin	True
696.428	2.675	Win2	0.7027	n/a	No	2.675	n/a	n/a	NoResponse	0	0.0	n/a	9	73	ISIslide	MissedWin	True
699.119	0.25	Lose2	0.7067	0.0	Yes	2.631	0.019	n/a	GoodResponse	0	n/a	n/a	9	74	Cue	AvoidedLoss	True
699.37	4.05	Lose2	0.7067	0.0	Yes	2.631	0.001	n/a	GoodResponse	0	n/a	n/a	9	74	Fixation	AvoidedLoss	True
703.415	0.23	Lose2	0.7067	0.004	Yes	2.631	-0.004	2.0	GoodResponse	0	0.188	702.603	9	74	Target	AvoidedLoss	True
703.603	0.3	Lose2	0.7067	0.004	Yes	2.631	-0.004	2.0	GoodResponse	0	0.188	n/a	9	74	ButtonPress	AvoidedLoss	True
703.649	0.47	Lose2	0.7067	n/a	Yes	2.631	n/a	n/a	GoodResponse	0	n/a	n/a	9	74	Blank	AvoidedLoss	True
704.117	1.45	Lose2	0.7067	n/a	Yes	2.631	n/a	5.0	GoodResponse	0	0.047	703.164	9	74	Feedback	AvoidedLoss	True
705.572	2.631	Lose2	0.7067	n/a	Yes	2.631	n/a	n/a	GoodResponse	0	0.0	n/a	9	74	ISIslide	AvoidedLoss	True
708.213	0.25	Lose2	0.7105	0.0	Yes	2.937	0.013	n/a	GoodResponse	0	n/a	n/a	9	75	Cue	AvoidedLoss	True
708.464	3.95	Lose2	0.7105	0.0	Yes	2.937	0.001	n/a	GoodResponse	0	n/a	n/a	9	75	Fixation	AvoidedLoss	True
712.409	0.22	Lose2	0.7105	0.004	Yes	2.937	-0.004	2.0	GoodResponse	0	0.207	711.616	9	75	Target	AvoidedLoss	True
712.616	0.3	Lose2	0.7105	0.004	Yes	2.937	-0.004	2.0	GoodResponse	0	0.207	n/a	9	75	ButtonPress	AvoidedLoss	True
712.643	0.48	Lose2	0.7105	n/a	Yes	2.937	n/a	n/a	GoodResponse	0	n/a	n/a	9	75	Blank	AvoidedLoss	True
713.111	1.45	Lose2	0.7105	n/a	Yes	2.937	n/a	5.0	GoodResponse	0	0.029	712.14	9	75	Feedback	AvoidedLoss	True
714.565	2.937	Lose2	0.7105	n/a	Yes	2.937	n/a	n/a	GoodResponse	0	0.0	n/a	9	75	ISIslide	AvoidedLoss	True
717.524	0.25	Control	0.7012999999999999	0.0	No	3.226	0.024	n/a	NoResponse	0	n/a	n/a	9	76	Cue	Neutral	False
717.775	4.05	Control	0.7012999999999999	0.0	No	3.226	0.001	2.0	NoResponse	0	3.731	720.506	9	76	Fixation	Neutral	False
721.506	0.3	Control	0.7012999999999999	0.0	No	3.226	0.001	2.0	NoResponse	0	3.731	n/a	9	76	ButtonPress	Neutral	False
721.82	0.21	Control	0.7012999999999999	0.004	No	3.226	-0.004	2.0	NoResponse	0	0.312	721.132	9	76	Target	Neutral	False
722.038	0.49	Control	0.7012999999999999	n/a	No	3.226	n/a	n/a	NoResponse	0	n/a	n/a	9	76	Blank	Neutral	False
722.132	0.3	Control	0.7012999999999999	0.004	No	3.226	-0.004	2.0	NoResponse	0	0.312	n/a	9	76	ButtonPress	Neutral	False
722.523	1.45	Control	0.7012999999999999	n/a	No	3.226	n/a	5.0	NoResponse	0	0.031	721.554	9	76	Feedback	Neutral	False
723.977	3.226	Control	0.7012999999999999	n/a	No	3.226	n/a	n/a	NoResponse	0	0.0	n/a	9	76	ISIslide	Neutral	False
727.22	0.25	Lose2	0.6923	0.0	No	2.58	0.02	n/a	NoResponse	-1	n/a	n/a	8	77	Cue	Loss	True
727.471	3.95	Lose2	0.6923	0.0	No	2.58	0.001	n/a	NoResponse	-1	n/a	n/a	8	77	Fixation	Loss	True
731.416	0.2	Lose2	0.6923	0.004	No	2.58	-0.004	2.0	NoResponse	-1	0.218	730.634	8	77	Target	Loss	True
731.616	0.5	Lose2	0.6923	n/a	No	2.58	n/a	n/a	NoResponse	-1	n/a	n/a	8	77	Blank	Loss	True
731.634	0.3	Lose2	0.6923	0.004	No	2.58	-0.004	2.0	NoResponse	-1	0.218	n/a	8	77	ButtonPress	Loss	True
732.118	1.45	Lose2	0.6923	n/a	No	2.58	n/a	5.0	NoResponse	-1	0.045	731.163	8	77	Feedback	Loss	True
733.572	2.58	Lose2	0.6923	n/a	No	2.58	n/a	n/a	NoResponse	-1	0.0	n/a	8	77	ISIslide	Loss	True
