onset	duration	cue_type	current_mean_accuracy	duration_error	is_hit	isi_adjusted	onset_delay	response	response_type	reward	rt	rt_time	total_reward	trial_number	trial_phase	trial_type	one_press
11.106	0.25	Control	1.0	0.0	Yes	2.944	0.006	n/a	GoodResponse	0	n/a	n/a	0	0	Cue	Neutral	True
11.356	3.85	Control	1.0	0.0	Yes	2.944	0.0	n/a	GoodResponse	0	n/a	n/a	0	0	Fixation	Neutral	True
15.218	0.4	Control	1.0	0.0	Yes	2.944	0.012	2.0	GoodResponse	0	0.212	14.43	0	0	Target	Neutral	True
15.43	0.3	Control	1.0	0.0	Yes	2.944	0.012	2.0	GoodResponse	0	0.212	n/a	0	0	ButtonPress	Neutral	True
15.602	0.3	Control	1.0	n/a	Yes	2.944	n/a	n/a	GoodResponse	0	n/a	n/a	0	0	Blank	Neutral	True
15.903	1.45	Control	1.0	n/a	Yes	2.944	n/a	5.0	GoodResponse	0	0.02	14.923	0	0	Feedback	Neutral	True
17.358	2.944	Control	1.0	n/a	Yes	2.944	n/a	n/a	GoodResponse	0	0.0	n/a	0	0	ISIslide	Neutral	True
20.316	0.25	Lose2	1.0	0.001	Yes	2.784	0.016	n/a	GoodResponse	0	n/a	n/a	0	1	Cue	AvoidedLoss	True
20.567	4.0	Lose2	1.0	0.0	Yes	2.784	0.001	n/a	GoodResponse	0	n/a	n/a	0	1	Fixation	AvoidedLoss	True
24.563	0.39	Lose2	1.0	0.003	Yes	2.784	-0.003	2.0	GoodResponse	0	0.217	23.78	0	1	Target	AvoidedLoss	True
24.78	0.3	Lose2	1.0	0.003	Yes	2.784	-0.003	2.0	GoodResponse	0	0.217	n/a	0	1	ButtonPress	AvoidedLoss	True
24.964	0.31	Lose2	1.0	n/a	Yes	2.784	n/a	n/a	GoodResponse	0	n/a	n/a	0	1	Blank	AvoidedLoss	True
25.265	1.45	Lose2	1.0	n/a	Yes	2.784	n/a	5.0	GoodResponse	0	0.042	24.307	0	1	Feedback	AvoidedLoss	True
26.719	2.784	Lose2	1.0	n/a	Yes	2.784	n/a	n/a	GoodResponse	0	0.0	n/a	0	1	ISIslide	AvoidedLoss	True
29.527	0.25	Control	1.0	0.0	Yes	2.573	0.027	n/a	GoodResponse	0	n/a	n/a	0	2	Cue	Neutral	True
29.778	4.1	Control	1.0	0.0	Yes	2.573	0.001	n/a	GoodResponse	0	n/a	n/a	0	2	Fixation	Neutral	True
33.874	0.38	Control	1.0	0.003	Yes	2.573	-0.003	2.0	GoodResponse	0	0.228	33.102	0	2	Target	Neutral	True
34.102	0.3	Control	1.0	0.003	Yes	2.573	-0.003	2.0	GoodResponse	0	0.228	n/a	0	2	ButtonPress	Neutral	True
34.258	0.32	Control	1.0	n/a	Yes	2.573	n/a	n/a	GoodResponse	0	n/a	n/a	0	2	Blank	Neutral	True
34.576	1.45	Control	1.0	n/a	Yes	2.573	n/a	5.0	GoodResponse	0	0.013	33.589	0	2	Feedback	Neutral	True
36.03	2.573	Control	1.0	n/a	Yes	2.573	n/a	n/a	GoodResponse	0	0.0	n/a	0	2	ISIslide	Neutral	True
38.621	0.25	Win2	1.0	0.0	Yes	2.829	0.021	n/a	GoodResponse	1	n/a	n/a	1	3	Cue	Win	True
38.872	3.95	Win2	1.0	0.0	Yes	2.829	0.001	n/a	GoodResponse	1	n/a	n/a	1	3	Fixation	Win	True
42.817	0.37	Win2	1.0	0.004	Yes	2.829	-0.004	2.0	GoodResponse	1	0.231	42.048	1	3	Target	Win	True
43.048	0.3	Win2	1.0	0.004	Yes	2.829	-0.004	2.0	GoodResponse	1	0.231	n/a	1	3	ButtonPress	Win	True
43.202	0.33	Win2	1.0	n/a	Yes	2.829	n/a	n/a	GoodResponse	1	n/a	n/a	1	3	Blank	Win	True
43.519	1.45	Win2	1.0	n/a	Yes	2.829	n/a	5.0	GoodResponse	1	0.045	42.564	1	3	Feedback	Win	True
44.974	2.829	Win2	1.0	n/a	Yes	2.829	n/a	n/a	GoodResponse	1	0.0	n/a	1	3	ISIslide	Win	True
47.815	0.25	Win2	1.0	0.0	Yes	3.285	0.015	n/a	GoodResponse	1	n/a	n/a	2	4	Cue	Win	True
48.066	4.0	Win2	1.0	0.0	Yes	3.285	0.001	n/a	GoodResponse	1	n/a	n/a	2	4	Fixation	Win	True
52.061	0.36	Win2	1.0	0.004	Yes	3.285	-0.004	2.0	GoodResponse	1	0.232	51.293	2	4	Target	Win	True
52.293	0.3	Win2	1.0	0.004	Yes	3.285	-0.004	2.0	GoodResponse	1	0.232	n/a	2	4	ButtonPress	Win	True
52.429	0.34	Win2	1.0	n/a	Yes	3.285	n/a	n/a	GoodResponse	1	n/a	n/a	2	4	Blank	Win	True
52.763	1.45	Win2	1.0	n/a	Yes	3.285	n/a	5.0	GoodResponse	1	0.031	51.794	2	4	Feedback	Win	True
54.218	3.285	Win2	1.0	n/a	Yes	3.285	n/a	n/a	GoodResponse	1	0.0	n/a	2	4	ISIslide	Win	True
57.528	0.25	Win2	1.0	0.0	Yes	2.772	0.028	n/a	GoodResponse	1	n/a	n/a	3	5	Cue	Win	True
57.778	4.0	Win2	1.0	0.001	Yes	2.772	0.0	n/a	GoodResponse	1	n/a	n/a	3	5	Fixation	Win	True
61.774	0.35	Win2	1.0	0.004	Yes	2.772	-0.004	2.0	GoodResponse	1	0.282	61.056	3	5	Target	Win	True
62.056	0.3	Win2	1.0	0.004	Yes	2.772	-0.004	2.0	GoodResponse	1	0.282	n/a	3	5	ButtonPress	Win	True
62.125	0.35	Win2	1.0	n/a	Yes	2.772	n/a	n/a	GoodResponse	1	n/a	n/a	3	5	Blank	Win	True
62.476	1.45	Win2	1.0	n/a	Yes	2.772	n/a	5.0	GoodResponse	1	0.01	61.486	3	5	Feedback	Win	True
63.93	2.772	Win2	1.0	n/a	Yes	2.772	n/a	n/a	GoodResponse	1	0.0	n/a	3	5	ISIslide	Win	True
66.722	0.25	Lose2	1.0	0.0	Yes	2.728	0.022	n/a	GoodResponse	0	n/a	n/a	3	6	Cue	AvoidedLoss	True
66.973	3.95	Lose2	1.0	0.0	Yes	2.728	0.001	n/a	GoodResponse	0	n/a	n/a	3	6	Fixation	AvoidedLoss	True
70.918	0.34	Lose2	1.0	0.004	Yes	2.728	-0.004	2.0	GoodResponse	0	0.241	70.159	3	6	Target	AvoidedLoss	True
71.159	0.3	Lose2	1.0	0.004	Yes	2.728	-0.004	2.0	GoodResponse	0	0.241	n/a	3	6	ButtonPress	AvoidedLoss	True
71.269	0.36	Lose2	1.0	n/a	Yes	2.728	n/a	n/a	GoodResponse	0	n/a	n/a	3	6	Blank	AvoidedLoss	True
71.62	1.45	Lose2	1.0	n/a	Yes	2.728	n/a	5.0	GoodResponse	0	0.045	70.665	3	6	Feedback	AvoidedLoss	True
73.074	2.728	Lose2	1.0	n/a	Yes	2.728	n/a	n/a	GoodResponse	0	0.0	n/a	3	6	ISIslide	AvoidedLoss	True
75.816	0.25	Lose2	1.0	0.0	Yes	4.034	0.016	n/a	GoodResponse	0	n/a	n/a	3	7	Cue	AvoidedLoss	True
76.066	4.05	Lose2	1.0	0.001	Yes	4.034	0.0	n/a	GoodResponse	0	n/a	n/a	3	7	Fixation	AvoidedLoss	True
80.112	0.33	Lose2	1.0	0.004	Yes	4.034	-0.004	2.0	GoodResponse	0	0.225	79.337	3	7	Target	AvoidedLoss	True
80.337	0.3	Lose2	1.0	0.004	Yes	4.034	-0.004	2.0	GoodResponse	0	0.225	n/a	3	7	ButtonPress	AvoidedLoss	True
80.446	0.37	Lose2	1.0	n/a	Yes	4.034	n/a	n/a	GoodResponse	0	n/a	n/a	3	7	Blank	AvoidedLoss	True
80.814	1.45	Lose2	1.0	n/a	Yes	4.034	n/a	5.0	GoodResponse	0	0.031	79.845	3	7	Feedback	AvoidedLoss	True
82.268	4.034	Lose2	1.0	n/a	Yes	4.034	n/a	n/a	GoodResponse	0	0.0	n/a	3	7	ISIslide	AvoidedLoss	True
86.331	0.25	Lose2	1.0	0.0	Yes	3.019	0.031	n/a	GoodResponse	0	n/a	n/a	3	8	Cue	AvoidedLoss	True
86.581	3.95	Lose2	1.0	0.0	Yes	3.019	0.0	n/a	GoodResponse	0	n/a	n/a	3	8	Fixation	AvoidedLoss	True
90.543	0.32	Lose2	1.0	0.0	Yes	3.019	0.012	2.0	GoodResponse	0	0.245	89.788	3	8	Target	AvoidedLoss	True
90.788	0.3	Lose2	1.0	0.0	Yes	3.019	0.012	2.0	GoodResponse	0	0.245	n/a	3	8	ButtonPress	AvoidedLoss	True
90.861	0.38	Lose2	1.0	n/a	Yes	3.019	n/a	n/a	GoodResponse	0	n/a	n/a	3	8	Blank	AvoidedLoss	True
91.228	1.45	Lose2	1.0	n/a	Yes	3.019	n/a	5.0	GoodResponse	0	0.027	90.255	3	8	Feedback	AvoidedLoss	True
92.683	3.019	Lose2	1.0	n/a	Yes	3.019	n/a	n/a	GoodResponse	0	0.0	n/a	3	8	ISIslide	AvoidedLoss	True
95.725	0.25	Lose2	1.0	0.0	Yes	3.125	0.025	n/a	GoodResponse	0	n/a	n/a	3	9	Cue	AvoidedLoss	True
95.976	3.95	Lose2	1.0	0.0	Yes	3.125	0.001	n/a	GoodResponse	0	n/a	n/a	3	9	Fixation	AvoidedLoss	True
99.921	0.31	Lose2	1.0	0.004	Yes	3.125	-0.004	2.0	GoodResponse	0	0.256	99.177	3	9	Target	AvoidedLoss	True
100.177	0.3	Lose2	1.0	0.004	Yes	3.125	-0.004	2.0	GoodResponse	0	0.256	n/a	3	9	ButtonPress	AvoidedLoss	True
100.239	0.39	Lose2	1.0	n/a	Yes	3.125	n/a	n/a	GoodResponse	0	n/a	n/a	3	9	Blank	AvoidedLoss	True
100.623	1.45	Lose2	1.0	n/a	Yes	3.125	n/a	5.0	GoodResponse	0	0.017	99.64	3	9	Feedback	AvoidedLoss	True
102.078	3.125	Lose2	1.0	n/a	Yes	3.125	n/a	n/a	GoodResponse	0	0.0	n/a	3	9	ISIslide	AvoidedLoss	True
105.22	0.25	Control	1.0	0.0	Yes	3.28	0.02	n/a	GoodResponse	0	n/a	n/a	3	10	Cue	Neutral	True
105.471	4.0	Control	1.0	0.0	Yes	3.28	0.001	n/a	GoodResponse	0	n/a	n/a	3	10	Fixation	Neutral	True
109.466	0.3	Control	1.0	0.004	Yes	3.28	-0.004	2.0	GoodResponse	0	0.217	108.683	3	10	Target	Neutral	True
109.683	0.3	Control	1.0	0.004	Yes	3.28	-0.004	2.0	GoodResponse	0	0.217	n/a	3	10	ButtonPress	Neutral	True
109.767	0.4	Control	1.0	n/a	Yes	3.28	n/a	n/a	GoodResponse	0	n/a	n/a	3	10	Blank	Neutral	True
110.168	1.45	Control	1.0	n/a	Yes	3.28	n/a	5.0	GoodResponse	0	0.01	109.178	3	10	Feedback	Neutral	True
111.623	3.28	Control	1.0	n/a	Yes	3.28	n/a	n/a	GoodResponse	0	0.0	n/a	3	10	ISIslide	Neutral	True
114.916	0.25	Lose2	1.0	0.0	Yes	2.734	0.016	n/a	GoodResponse	0	n/a	n/a	3	11	Cue	AvoidedLoss	True
115.167	4.05	Lose2	1.0	0.0	Yes	2.734	0.001	n/a	GoodResponse	0	n/a	n/a	3	11	Fixation	AvoidedLoss	True
119.212	0.29	Lose2	1.0	0.004	Yes	2.734	-0.004	2.0	GoodResponse	0	0.229	118.441	3	11	Target	AvoidedLoss	True
119.441	0.3	Lose2	1.0	0.004	Yes	2.734	-0.004	2.0	GoodResponse	0	0.229	n/a	3	11	ButtonPress	AvoidedLoss	True
119.513	0.41	Lose2	1.0	n/a	Yes	2.734	n/a	n/a	GoodResponse	0	n/a	n/a	3	11	Blank	AvoidedLoss	True
119.914	1.45	Lose2	1.0	n/a	Yes	2.734	n/a	5.0	GoodResponse	0	0.007	118.921	3	11	Feedback	AvoidedLoss	True
121.369	2.734	Lose2	1.0	n/a	Yes	2.734	n/a	n/a	GoodResponse	0	0.0	n/a	3	11	ISIslide	AvoidedLoss	True
124.127	0.25	Control	0.9231	0.0	No	2.973	0.027	n/a	NoResponse	0	n/a	n/a	3	12	Cue	Neutral	True
124.378	3.9	Control	0.9231	0.0	No	2.973	0.001	n/a	NoResponse	0	n/a	n/a	3	12	Fixation	Neutral	True
128.273	0.28	Control	0.9231	0.004	No	2.973	-0.004	2.0	NoResponse	0	0.32	127.593	3	12	Target	Neutral	True
128.557	0.42	Control	0.9231	n/a	No	2.973	n/a	n/a	NoResponse	0	n/a	n/a	3	12	Blank	Neutral	True
128.593	0.3	Control	0.9231	0.004	No	2.973	-0.004	2.0	NoResponse	0	0.32	n/a	3	12	ButtonPress	Neutral	True
128.975	1.45	Control	0.9231	n/a	No	2.973	n/a	5.0	NoResponse	0	0.023	127.998	3	12	Feedback	Neutral	True
130.429	2.973	Control	0.9231	n/a	No	2.973	n/a	n/a	NoResponse	0	0.0	n/a	3	12	ISIslide	Neutral	True
133.421	0.25	Control	0.9286	0.0	Yes	2.779	0.021	n/a	GoodResponse	0	n/a	n/a	3	13	Cue	Neutral	True
133.672	4.0	Control	0.9286	0.0	Yes	2.779	0.001	n/a	GoodResponse	0	n/a	n/a	3	13	Fixation	Neutral	True
137.667	0.27	Control	0.9286	0.004	Yes	2.779	-0.004	2.0	GoodResponse	0	0.215	136.882	3	13	Target	Neutral	True
137.882	0.3	Control	0.9286	0.004	Yes	2.779	-0.004	2.0	GoodResponse	0	0.215	n/a	3	13	ButtonPress	Neutral	True
137.952	0.43	Control	0.9286	n/a	Yes	2.779	n/a	n/a	GoodResponse	0	n/a	n/a	3	13	Blank	Neutral	True
138.369	1.45	Control	0.9286	n/a	Yes	2.779	n/a	5.0	GoodResponse	0	0.014	137.383	3	13	Feedback	Neutral	True
139.824	2.779	Control	0.9286	n/a	Yes	2.779	n/a	n/a	GoodResponse	0	0.0	n/a	3	13	ISIslide	Neutral	True
142.632	0.25	Win2	0.9333	0.0	Yes	2.668	0.032	n/a	GoodResponse	1	n/a	n/a	4	14	Cue	Win	True
142.883	4.1	Win2	0.9333	0.0	Yes	2.668	0.001	n/a	GoodResponse	1	n/a	n/a	4	14	Fixation	Win	True
146.979	0.26	Win2	0.9333	0.003	Yes	2.668	-0.003	2.0	GoodResponse	1	0.193	146.172	4	14	Target	Win	True
147.172	0.3	Win2	0.9333	0.003	Yes	2.668	-0.003	2.0	GoodResponse	1	0.193	n/a	4	14	ButtonPress	Win	True
147.246	0.44	Win2	0.9333	n/a	Yes	2.668	n/a	n/a	GoodResponse	1	n/a	n/a	4	14	Blank	Win	True
147.681	1.45	Win2	0.9333	n/a	Yes	2.668	n/a	5.0	GoodResponse	1	0.035	146.716	4	14	Feedback	Win	True
149.135	2.668	Win2	0.9333	n/a	Yes	2.668	n/a	n/a	GoodResponse	1	0.0	n/a	4	14	ISIslide	Win	True
151.826	0.25	Control	0.9375	0.0	Yes	2.974	0.026	n/a	GoodResponse	0	n/a	n/a	4	15	Cue	Neutral	True
152.077	4.0	Control	0.9375	0.0	Yes	2.974	0.001	n/a	GoodResponse	0	n/a	n/a	4	15	Fixation	Neutral	True
156.072	0.25	Control	0.9375	0.004	Yes	2.974	-0.004	2.0	GoodResponse	0	0.244	155.316	4	15	Target	Neutral	True
156.316	0.3	Control	0.9375	0.004	Yes	2.974	-0.004	2.0	GoodResponse	0	0.244	n/a	4	15	ButtonPress	Neutral	True
156.323	0.45	Control	0.9375	n/a	Yes	2.974	n/a	n/a	GoodResponse	0	n/a	n/a	4	15	Blank	Neutral	True
156.774	1.45	Control	0.9375	n/a	Yes	2.974	n/a	5.0	GoodResponse	0	0.019	155.793	4	15	Feedback	Neutral	True
158.229	2.974	Control	0.9375	n/a	Yes	2.974	n/a	n/a	GoodResponse	0	0.0	n/a	4	15	ISIslide	Neutral	True
161.221	0.25	Win2	0.9412	0.0	Yes	2.879	0.021	n/a	GoodResponse	1	n/a	n/a	5	16	Cue	Win	True
161.472	4.0	Win2	0.9412	0.0	Yes	2.879	0.001	n/a	GoodResponse	1	n/a	n/a	5	16	Fixation	Win	True
165.467	0.24	Win2	0.9412	0.004	Yes	2.879	-0.004	2.0	GoodResponse	1	0.203	164.67	5	16	Target	Win	True
165.67	0.3	Win2	0.9412	0.004	Yes	2.879	-0.004	2.0	GoodResponse	1	0.203	n/a	5	16	ButtonPress	Win	True
165.718	0.46	Win2	0.9412	n/a	Yes	2.879	n/a	n/a	GoodResponse	1	n/a	n/a	5	16	Blank	Win	True
166.169	1.45	Win2	0.9412	n/a	Yes	2.879	n/a	5.0	GoodResponse	1	0.008	165.177	5	16	Feedback	Win	True
167.624	2.879	Win2	0.9412	n/a	Yes	2.879	n/a	n/a	GoodResponse	1	0.0	n/a	5	16	ISIslide	Win	True
170.516	0.25	Lose2	0.9444	0.0	Yes	2.734	0.016	n/a	GoodResponse	0	n/a	n/a	5	17	Cue	AvoidedLoss	True
170.766	3.95	Lose2	0.9444	0.0	Yes	2.734	0.0	n/a	GoodResponse	0	n/a	n/a	5	17	Fixation	AvoidedLoss	True
174.728	0.23	Lose2	0.9444	0.0	Yes	2.734	0.012	2.0	GoodResponse	0	0.215	173.943	5	17	Target	AvoidedLoss	True
174.943	0.3	Lose2	0.9444	0.0	Yes	2.734	0.012	2.0	GoodResponse	0	0.215	n/a	5	17	ButtonPress	AvoidedLoss	True
174.945	0.47	Lose2	0.9444	n/a	Yes	2.734	n/a	n/a	GoodResponse	0	n/a	n/a	5	17	Blank	AvoidedLoss	True
175.414	1.45	Lose2	0.9444	n/a	Yes	2.734	n/a	5.0	GoodResponse	0	0.045	174.459	5	17	Feedback	AvoidedLoss	True
176.868	2.734	Lose2	0.9444	n/a	Yes	2.734	n/a	n/a	GoodResponse	0	0.0	n/a	5	17	ISIslide	AvoidedLoss	True
179.626	0.25	Lose2	0.8946999999999999	0.0	No	2.724	0.026	n/a	NoResponse	-1	n/a	n/a	4	18	Cue	Loss	True
179.877	4.05	Lose2	0.8946999999999999	0.0	No	2.724	0.001	n/a	NoResponse	-1	n/a	n/a	4	18	Fixation	Loss	True
183.922	0.22	Lose2	0.8946999999999999	0.004	No	2.724	-0.004	2.0	NoResponse	-1	0.288	183.21	4	18	Target	Loss	True
184.156	0.48	Lose2	0.8946999999999999	n/a	No	2.724	n/a	n/a	NoResponse	-1	n/a	n/a	4	18	Blank	Loss	True
184.21	0.3	Lose2	0.8946999999999999	0.004	No	2.724	-0.004	2.0	NoResponse	-1	0.288	n/a	4	18	ButtonPress	Loss	True
184.624	1.45	Lose2	0.8946999999999999	n/a	No	2.724	n/a	5.0	NoResponse	-1	0.015	183.639	4	18	Feedback	Loss	True
186.079	2.724	Lose2	0.8946999999999999	n/a	No	2.724	n/a	n/a	NoResponse	-1	0.0	n/a	4	18	ISIslide	Loss	True
188.82	0.25	Control	0.9	0.0	Yes	2.93	0.02	n/a	GoodResponse	0	n/a	n/a	4	19	Cue	Neutral	True
189.071	3.95	Control	0.9	0.0	Yes	2.93	0.001	n/a	GoodResponse	0	n/a	n/a	4	19	Fixation	Neutral	True
193.016	0.21	Control	0.9	0.004	Yes	2.93	-0.004	2.0	GoodResponse	0	0.176	192.192	4	19	Target	Neutral	True
193.192	0.3	Control	0.9	0.004	Yes	2.93	-0.004	2.0	GoodResponse	0	0.176	n/a	4	19	ButtonPress	Neutral	True
193.233	0.49	Control	0.9	n/a	Yes	2.93	n/a	n/a	GoodResponse	0	n/a	n/a	4	19	Blank	Neutral	True
193.718	1.45	Control	0.9	n/a	Yes	2.93	n/a	5.0	GoodResponse	0	0.048	192.766	4	19	Feedback	Neutral	True
195.173	2.93	Control	0.9	n/a	Yes	2.93	n/a	n/a	GoodResponse	0	0.0	n/a	4	19	ISIslide	Neutral	True
198.115	0.25	Control	0.8571	0.0	No	2.635	0.015	n/a	LatePress	0	n/a	n/a	4	20	Cue	Neutral	True
198.365	4.05	Control	0.8571	0.001	No	2.635	0.0	n/a	LatePress	0	n/a	n/a	4	20	Fixation	Neutral	True
202.411	0.2	Control	0.8571	0.004	No	2.635	-0.004	2.0	LatePress	0	0.201	201.612	4	20	Target	Neutral	True
202.612	0.5	Control	0.8571	n/a	No	2.635	n/a	n/a	LatePress	0	n/a	n/a	4	20	Blank	Neutral	True
202.612	0.3	Control	0.8571	0.004	No	2.635	-0.004	2.0	LatePress	0	0.201	n/a	4	20	ButtonPress	Neutral	True
203.113	1.45	Control	0.8571	n/a	No	2.635	n/a	5.0	LatePress	0	0.038	202.151	4	20	Feedback	Neutral	True
204.567	2.635	Control	0.8571	n/a	No	2.635	n/a	n/a	LatePress	0	0.0	n/a	4	20	ISIslide	Neutral	True
207.225	0.25	Control	0.8181999999999999	0.0	No	2.775	0.025	n/a	NoResponse	0	n/a	n/a	4	21	Cue	Neutral	True
207.476	4.1	Control	0.8181999999999999	0.0	No	2.775	0.001	n/a	NoResponse	0	n/a	n/a	4	21	Fixation	Neutral	True
211.572	0.19	Control	0.8181999999999999	0.003	No	2.775	-0.003	2.0	NoResponse	0	0.289	210.861	4	21	Target	Neutral	True
211.772	0.51	Control	0.8181999999999999	n/a	No	2.775	n/a	n/a	NoResponse	0	n/a	n/a	4	21	Blank	Neutral	True
211.861	0.3	Control	0.8181999999999999	0.003	No	2.775	-0.003	2.0	NoResponse	0	0.289	n/a	4	21	ButtonPress	Neutral	True
212.274	1.45	Control	0.8181999999999999	n/a	No	2.775	n/a	5.0	NoResponse	0	0.006	211.28	4	21	Feedback	Neutral	True
213.728	2.775	Control	0.8181999999999999	n/a	No	2.775	n/a	n/a	NoResponse	0	0.0	n/a	4	21	ISIslide	Neutral	True
216.52	0.25	Control	0.7826000000000001	0.0	No	2.78	0.02	n/a	NoResponse	0	n/a	n/a	4	22	Cue	Neutral	True
216.771	4.0	Control	0.7826000000000001	0.0	No	2.78	0.001	n/a	NoResponse	0	n/a	n/a	4	22	Fixation	Neutral	True
220.766	0.18	Control	0.7826000000000001	0.004	No	2.78	-0.004	2.0	NoResponse	0	0.242	220.008	4	22	Target	Neutral	True
220.95	0.52	Control	0.7826000000000001	n/a	No	2.78	n/a	n/a	NoResponse	0	n/a	n/a	4	22	Blank	Neutral	True
221.008	0.3	Control	0.7826000000000001	0.004	No	2.78	-0.004	2.0	NoResponse	0	0.242	n/a	4	22	ButtonPress	Neutral	True
221.468	1.45	Control	0.7826000000000001	n/a	No	2.78	n/a	5.0	NoResponse	0	0.042	220.51	4	22	Feedback	Neutral	True
222.922	2.78	Control	0.7826000000000001	n/a	No	2.78	n/a	n/a	NoResponse	0	0.0	n/a	4	22	ISIslide	Neutral	True
225.731	0.25	Control	0.75	0.0	No	2.769	0.031	n/a	NoResponse	0	n/a	n/a	4	23	Cue	Neutral	True
225.981	3.9	Control	0.75	0.0	No	2.769	0.0	n/a	NoResponse	0	n/a	n/a	4	23	Fixation	Neutral	True
229.893	0.17	Control	0.75	0.0	No	2.769	0.012	2.0	NoResponse	0	0.344	229.237	4	23	Target	Neutral	True
230.06	0.53	Control	0.75	n/a	No	2.769	n/a	n/a	NoResponse	0	n/a	n/a	4	23	Blank	Neutral	True
230.237	0.3	Control	0.75	0.0	No	2.769	0.012	2.0	NoResponse	0	0.344	n/a	4	23	ButtonPress	Neutral	True
230.578	1.45	Control	0.75	n/a	No	2.769	n/a	5.0	NoResponse	0	0.009	229.587	4	23	Feedback	Neutral	True
232.033	2.769	Control	0.75	n/a	No	2.769	n/a	n/a	NoResponse	0	0.0	n/a	4	23	ISIslide	Neutral	True
234.824	0.25	Win2	0.72	0.001	No	3.126	0.024	n/a	LatePress	0	n/a	n/a	4	24	Cue	MissedWin	True
235.075	3.95	Win2	0.72	0.0	No	3.126	0.001	n/a	LatePress	0	n/a	n/a	4	24	Fixation	MissedWin	True
239.02	0.16	Win2	0.72	0.004	No	3.126	-0.004	2.0	LatePress	0	0.164	238.184	4	24	Target	MissedWin	True
239.184	0.3	Win2	0.72	0.004	No	3.126	-0.004	2.0	LatePress	0	0.164	n/a	4	24	ButtonPress	MissedWin	True
239.188	0.54	Win2	0.72	n/a	No	3.126	n/a	n/a	LatePress	0	n/a	n/a	4	24	Blank	MissedWin	True
239.722	1.45	Win2	0.72	n/a	No	3.126	n/a	5.0	LatePress	0	0.044	238.766	4	24	Feedback	MissedWin	True
241.177	3.126	Win2	0.72	n/a	No	3.126	n/a	n/a	LatePress	0	0.0	n/a	4	24	ISIslide	MissedWin	True
244.32	0.25	Win2	0.6923	0.0	No	3.08	0.02	n/a	NoResponse	0	n/a	n/a	4	25	Cue	MissedWin	True
244.57	4.0	Win2	0.6923	0.0	No	3.08	0.0	n/a	NoResponse	0	n/a	n/a	4	25	Fixation	MissedWin	True
248.566	0.15	Win2	0.6923	0.004	No	3.08	-0.004	2.0	NoResponse	0	0.205	247.771	4	25	Target	MissedWin	True
248.716	0.55	Win2	0.6923	n/a	No	3.08	n/a	n/a	NoResponse	0	n/a	n/a	4	25	Blank	MissedWin	True
248.771	0.3	Win2	0.6923	0.004	No	3.08	-0.004	2.0	NoResponse	0	0.205	n/a	4	25	ButtonPress	MissedWin	True
249.268	1.45	Win2	0.6923	n/a	No	3.08	n/a	5.0	NoResponse	0	0.036	248.304	4	25	Feedback	MissedWin	True
250.722	3.08	Win2	0.6923	n/a	No	3.08	n/a	n/a	NoResponse	0	0.0	n/a	4	25	ISIslide	MissedWin	True
253.831	0.25	Win2	0.6667000000000001	0.0	No	2.919	0.031	n/a	NoResponse	0	n/a	n/a	4	26	Cue	MissedWin	True
254.082	3.95	Win2	0.6667000000000001	0.0	No	2.919	0.001	n/a	NoResponse	0	n/a	n/a	4	26	Fixation	MissedWin	True
258.027	0.15	Win2	0.6667000000000001	0.004	No	2.919	-0.004	2.0	NoResponse	0	0.177	257.204	4	26	Target	MissedWin	True
258.178	0.55	Win2	0.6667000000000001	n/a	No	2.919	n/a	n/a	NoResponse	0	n/a	n/a	4	26	Blank	MissedWin	True
258.204	0.3	Win2	0.6667000000000001	0.004	No	2.919	-0.004	2.0	NoResponse	0	0.177	n/a	4	26	ButtonPress	MissedWin	True
258.729	1.45	Win2	0.6667000000000001	n/a	No	2.919	n/a	5.0	NoResponse	0	0.011	257.74	4	26	Feedback	MissedWin	True
260.184	2.919	Win2	0.6667000000000001	n/a	No	2.919	n/a	n/a	NoResponse	0	0.0	n/a	4	26	ISIslide	MissedWin	True
263.126	0.25	Lose2	0.6429	0.0	No	2.824	0.026	n/a	NoResponse	-1	n/a	n/a	3	27	Cue	Loss	True
263.377	4.05	Lose2	0.6429	0.0	No	2.824	0.001	n/a	NoResponse	-1	n/a	n/a	3	27	Fixation	Loss	True
267.422	0.15	Lose2	0.6429	0.004	No	2.824	-0.004	2.0	NoResponse	-1	0.234	266.656	3	27	Target	Loss	True
267.572	0.55	Lose2	0.6429	n/a	No	2.824	n/a	n/a	NoResponse	-1	n/a	n/a	3	27	Blank	Loss	True
267.656	0.3	Lose2	0.6429	0.004	No	2.824	-0.004	2.0	NoResponse	-1	0.234	n/a	3	27	ButtonPress	Loss	True
268.124	1.45	Lose2	0.6429	n/a	No	2.824	n/a	5.0	NoResponse	-1	0.001	267.125	3	27	Feedback	Loss	True
269.578	2.824	Lose2	0.6429	n/a	No	2.824	n/a	n/a	NoResponse	-1	0.0	n/a	3	27	ISIslide	Loss	True
272.42	0.25	Control	0.6207	0.0	No	2.83	0.02	n/a	NoResponse	0	n/a	n/a	3	28	Cue	Neutral	True
272.671	4.05	Control	0.6207	0.0	No	2.83	0.001	n/a	NoResponse	0	n/a	n/a	3	28	Fixation	Neutral	True
276.716	0.16	Control	0.6207	0.004	No	2.83	-0.004	2.0	NoResponse	0	0.218	275.934	3	28	Target	Neutral	True
276.884	0.54	Control	0.6207	n/a	No	2.83	n/a	n/a	NoResponse	0	n/a	n/a	3	28	Blank	Neutral	True
276.934	0.3	Control	0.6207	0.004	No	2.83	-0.004	2.0	NoResponse	0	0.218	n/a	3	28	ButtonPress	Neutral	True
277.419	1.45	Control	0.6207	n/a	No	2.83	n/a	5.0	NoResponse	0	0.039	276.458	3	28	Feedback	Neutral	True
278.873	2.83	Control	0.6207	n/a	No	2.83	n/a	n/a	NoResponse	0	0.0	n/a	3	28	ISIslide	Neutral	True
281.731	0.25	Lose2	0.6	0.0	No	2.819	0.031	n/a	NoResponse	-1	n/a	n/a	2	29	Cue	Loss	True
281.982	3.95	Lose2	0.6	0.0	No	2.819	0.001	n/a	NoResponse	-1	n/a	n/a	2	29	Fixation	Loss	True
285.927	0.17	Lose2	0.6	0.004	No	2.819	-0.004	2.0	NoResponse	-1	0.192	285.119	2	29	Target	Loss	True
286.111	0.53	Lose2	0.6	n/a	No	2.819	n/a	n/a	NoResponse	-1	n/a	n/a	2	29	Blank	Loss	True
286.119	0.3	Lose2	0.6	0.004	No	2.819	-0.004	2.0	NoResponse	-1	0.192	n/a	2	29	ButtonPress	Loss	True
286.629	1.45	Lose2	0.6	n/a	No	2.819	n/a	5.0	NoResponse	-1	0.008	285.637	2	29	Feedback	Loss	True
288.084	2.819	Lose2	0.6	n/a	No	2.819	n/a	2.0	NoResponse	-1	1.817	n/a	2	29	ISIslide	Loss	True
290.909	0.25	Win2	0.5806	0.0	No	2.791	0.009	n/a	NoResponse	0	n/a	n/a	2	30	Cue	MissedWin	True
291.16	3.9	Win2	0.5806	0.0	No	2.791	0.001	n/a	NoResponse	0	n/a	n/a	2	30	Fixation	MissedWin	True
295.055	0.18	Win2	0.5806	0.004	No	2.791	-0.004	2.0	NoResponse	0	0.231	294.286	2	30	Target	MissedWin	True
295.238	0.52	Win2	0.5806	n/a	No	2.791	n/a	n/a	NoResponse	0	n/a	n/a	2	30	Blank	MissedWin	True
295.286	0.3	Win2	0.5806	0.004	No	2.791	-0.004	2.0	NoResponse	0	0.231	n/a	2	30	ButtonPress	MissedWin	True
295.757	1.45	Win2	0.5806	n/a	No	2.791	n/a	5.0	NoResponse	0	0.009	294.766	2	30	Feedback	MissedWin	True
297.211	2.791	Win2	0.5806	n/a	No	2.791	n/a	n/a	NoResponse	0	0.0	n/a	2	30	ISIslide	MissedWin	True
300.019	0.25	Lose2	0.5625	0.0	No	2.831	0.019	n/a	NoResponse	-1	n/a	n/a	1	31	Cue	Loss	True
300.27	4.05	Lose2	0.5625	0.0	No	2.831	0.001	2.0	NoResponse	-1	3.529	302.799	1	31	Fixation	Loss	True
303.799	0.3	Lose2	0.5625	0.0	No	2.831	0.001	2.0	NoResponse	-1	3.529	n/a	1	31	ButtonPress	Loss	True
304.316	0.19	Lose2	0.5625	0.003	No	2.831	-0.003	n/a	NoResponse	-1	n/a	n/a	1	31	Target	Loss	True
304.516	0.51	Lose2	0.5625	n/a	No	2.831	n/a	n/a	NoResponse	-1	n/a	n/a	1	31	Blank	Loss	True
305.018	1.45	Lose2	0.5625	n/a	No	2.831	n/a	5.0	NoResponse	-1	0.03	304.048	1	31	Feedback	Loss	True
306.472	2.831	Lose2	0.5625	n/a	No	2.831	n/a	n/a	NoResponse	-1	0.0	n/a	1	31	ISIslide	Loss	True
309.331	0.25	Lose2	0.5455	0.0	No	2.619	0.031	n/a	NoResponse	-1	n/a	n/a	0	32	Cue	Loss	True
309.581	4.15	Lose2	0.5455	0.0	No	2.619	0.0	n/a	NoResponse	-1	n/a	n/a	0	32	Fixation	Loss	True
313.727	0.2	Lose2	0.5455	0.004	No	2.619	-0.004	2.0	NoResponse	-1	0.212	312.939	0	32	Target	Loss	True
313.928	0.5	Lose2	0.5455	n/a	No	2.619	n/a	n/a	NoResponse	-1	n/a	n/a	0	32	Blank	Loss	True
313.939	0.3	Lose2	0.5455	0.004	No	2.619	-0.004	2.0	NoResponse	-1	0.212	n/a	0	32	ButtonPress	Loss	True
314.429	1.45	Lose2	0.5455	n/a	No	2.619	n/a	5.0	NoResponse	-1	0.007	313.436	0	32	Feedback	Loss	True
315.884	2.619	Lose2	0.5455	n/a	No	2.619	n/a	n/a	NoResponse	-1	0.0	n/a	0	32	ISIslide	Loss	True
318.525	0.25	Win2	0.5588000000000001	0.0	Yes	2.675	0.025	n/a	GoodResponse	1	n/a	n/a	1	33	Cue	Win	True
318.776	4.0	Win2	0.5588000000000001	0.0	Yes	2.675	0.001	n/a	GoodResponse	1	n/a	n/a	1	33	Fixation	Win	True
322.771	0.21	Win2	0.5588000000000001	0.004	Yes	2.675	-0.004	2.0	GoodResponse	1	0.19	321.961	1	33	Target	Win	True
322.961	0.3	Win2	0.5588000000000001	0.004	Yes	2.675	-0.004	2.0	GoodResponse	1	0.19	n/a	1	33	ButtonPress	Win	True
322.988	0.49	Win2	0.5588000000000001	n/a	Yes	2.675	n/a	n/a	GoodResponse	1	n/a	n/a	1	33	Blank	Win	True
323.473	1.45	Win2	0.5588000000000001	n/a	Yes	2.675	n/a	5.0	GoodResponse	1	0.035	322.508	1	33	Feedback	Win	True
324.927	2.675	Win2	0.5588000000000001	n/a	Yes	2.675	n/a	n/a	GoodResponse	1	0.0	n/a	1	33	ISIslide	Win	True
327.619	0.25	Lose2	0.5428999999999999	0.0	No	2.631	0.019	n/a	NoResponse	-1	n/a	n/a	0	34	Cue	Loss	True
327.869	4.05	Lose2	0.5428999999999999	0.0	No	2.631	0.0	n/a	NoResponse	-1	n/a	n/a	0	34	Fixation	Loss	True
331.915	0.22	Lose2	0.5428999999999999	0.004	No	2.631	-0.004	2.0	NoResponse	-1	0.248	331.163	0	34	Target	Loss	True
332.149	0.48	Lose2	0.5428999999999999	n/a	No	2.631	n/a	n/a	NoResponse	-1	n/a	n/a	0	34	Blank	Loss	True
332.163	0.3	Lose2	0.5428999999999999	0.004	No	2.631	-0.004	2.0	NoResponse	-1	0.248	n/a	0	34	ButtonPress	Loss	True
332.617	1.45	Lose2	0.5428999999999999	n/a	No	2.631	n/a	5.0	NoResponse	-1	0.02	331.637	0	34	Feedback	Loss	True
334.071	2.631	Lose2	0.5428999999999999	n/a	No	2.631	n/a	n/a	NoResponse	-1	0.0	n/a	0	34	ISIslide	Loss	True
336.729	0.25	Lose2	0.5556	0.0	Yes	2.671	0.029	n/a	GoodResponse	0	n/a	n/a	0	35	Cue	AvoidedLoss	True
336.98	4.0	Lose2	0.5556	0.0	Yes	2.671	0.001	n/a	GoodResponse	0	n/a	n/a	0	35	Fixation	AvoidedLoss	True
340.975	0.23	Lose2	0.5556	0.004	Yes	2.671	-0.004	2.0	GoodResponse	0	0.198	340.173	0	35	Target	AvoidedLoss	True
341.173	0.3	Lose2	0.5556	0.004	Yes	2.671	-0.004	2.0	GoodResponse	0	0.198	n/a	0	35	ButtonPress	AvoidedLoss	True
341.209	0.47	Lose2	0.5556	n/a	Yes	2.671	n/a	n/a	GoodResponse	0	n/a	n/a	0	35	Blank	AvoidedLoss	True
341.677	1.45	Lose2	0.5556	n/a	Yes	2.671	n/a	5.0	GoodResponse	0	0.037	340.714	0	35	Feedback	AvoidedLoss	True
343.132	2.671	Lose2	0.5556	n/a	Yes	2.671	n/a	n/a	GoodResponse	0	0.0	n/a	0	35	ISIslide	AvoidedLoss	True
345.823	0.25	Control	0.5676	0.0	Yes	2.677	0.023	n/a	GoodResponse	0	n/a	n/a	0	36	Cue	Neutral	True
346.074	4.0	Control	0.5676	0.0	Yes	2.677	0.001	n/a	GoodResponse	0	n/a	n/a	0	36	Fixation	Neutral	True
350.069	0.24	Control	0.5676	0.004	Yes	2.677	-0.004	2.0	GoodResponse	0	0.174	349.243	0	36	Target	Neutral	True
350.243	0.3	Control	0.5676	0.004	Yes	2.677	-0.004	2.0	GoodResponse	0	0.174	n/a	0	36	ButtonPress	Neutral	True
350.32	0.46	Control	0.5676	n/a	Yes	2.677	n/a	n/a	GoodResponse	0	n/a	n/a	0	36	Blank	Neutral	True
350.771	1.45	Control	0.5676	n/a	Yes	2.677	n/a	5.0	GoodResponse	0	0.02	349.791	0	36	Feedback	Neutral	True
352.226	2.677	Control	0.5676	n/a	Yes	2.677	n/a	n/a	GoodResponse	0	0.0	n/a	0	36	ISIslide	Neutral	True
354.917	0.25	Win2	0.5789	0.0	Yes	2.883	0.017	n/a	GoodResponse	1	n/a	n/a	1	37	Cue	Win	True
355.168	4.0	Win2	0.5789	0.0	Yes	2.883	0.001	n/a	GoodResponse	1	n/a	n/a	1	37	Fixation	Win	True
359.163	0.25	Win2	0.5789	0.004	Yes	2.883	-0.004	2.0	GoodResponse	1	0.204	358.367	1	37	Target	Win	True
359.367	0.3	Win2	0.5789	0.004	Yes	2.883	-0.004	2.0	GoodResponse	1	0.204	n/a	1	37	ButtonPress	Win	True
359.414	0.45	Win2	0.5789	n/a	Yes	2.883	n/a	n/a	GoodResponse	1	n/a	n/a	1	37	Blank	Win	True
359.865	1.45	Win2	0.5789	n/a	Yes	2.883	n/a	5.0	GoodResponse	1	0.007	358.872	1	37	Feedback	Win	True
361.319	2.883	Win2	0.5789	n/a	Yes	2.883	n/a	n/a	GoodResponse	1	0.0	n/a	1	37	ISIslide	Win	True
364.228	0.25	Lose2	0.5897	0.0	Yes	2.822	0.028	n/a	GoodResponse	0	n/a	n/a	1	38	Cue	AvoidedLoss	True
364.479	3.95	Lose2	0.5897	0.0	Yes	2.822	0.001	n/a	GoodResponse	0	n/a	n/a	1	38	Fixation	AvoidedLoss	True
368.424	0.26	Lose2	0.5897	0.004	Yes	2.822	-0.004	2.0	GoodResponse	0	0.205	367.629	1	38	Target	AvoidedLoss	True
368.629	0.3	Lose2	0.5897	0.004	Yes	2.822	-0.004	2.0	GoodResponse	0	0.205	n/a	1	38	ButtonPress	AvoidedLoss	True
368.691	0.44	Lose2	0.5897	n/a	Yes	2.822	n/a	n/a	GoodResponse	0	n/a	n/a	1	38	Blank	AvoidedLoss	True
369.126	1.45	Lose2	0.5897	n/a	Yes	2.822	n/a	5.0	GoodResponse	0	0.023	368.149	1	38	Feedback	AvoidedLoss	True
370.58	2.822	Lose2	0.5897	n/a	Yes	2.822	n/a	n/a	GoodResponse	0	0.0	n/a	1	38	ISIslide	AvoidedLoss	True
373.422	0.25	Win2	0.6	0.0	Yes	2.978	0.022	n/a	GoodResponse	1	n/a	n/a	2	39	Cue	Win	True
373.673	4.1	Win2	0.6	0.0	Yes	2.978	0.001	n/a	GoodResponse	1	n/a	n/a	2	39	Fixation	Win	True
377.769	0.27	Win2	0.6	0.003	Yes	2.978	-0.003	2.0	GoodResponse	1	0.192	376.961	2	39	Target	Win	True
377.961	0.3	Win2	0.6	0.003	Yes	2.978	-0.003	2.0	GoodResponse	1	0.192	n/a	2	39	ButtonPress	Win	True
378.053	0.43	Win2	0.6	n/a	Yes	2.978	n/a	n/a	GoodResponse	1	n/a	n/a	2	39	Blank	Win	True
378.471	1.45	Win2	0.6	n/a	Yes	2.978	n/a	5.0	GoodResponse	1	0.011	377.482	2	39	Feedback	Win	True
379.925	2.978	Win2	0.6	n/a	Yes	2.978	n/a	n/a	GoodResponse	1	0.0	n/a	2	39	ISIslide	Win	True
382.917	0.25	Win2	0.6098	0.0	Yes	2.733	0.017	n/a	GoodResponse	1	n/a	n/a	3	40	Cue	Win	True
383.168	3.95	Win2	0.6098	0.0	Yes	2.733	0.001	n/a	GoodResponse	1	n/a	n/a	3	40	Fixation	Win	True
387.113	0.28	Win2	0.6098	0.004	Yes	2.733	-0.004	2.0	GoodResponse	1	0.257	386.37	3	40	Target	Win	True
387.37	0.3	Win2	0.6098	0.004	Yes	2.733	-0.004	2.0	GoodResponse	1	0.257	n/a	3	40	ButtonPress	Win	True
387.397	0.42	Win2	0.6098	n/a	Yes	2.733	n/a	n/a	GoodResponse	1	n/a	n/a	3	40	Blank	Win	True
387.815	1.45	Win2	0.6098	n/a	Yes	2.733	n/a	5.0	GoodResponse	1	0.001	386.816	3	40	Feedback	Win	True
389.27	2.733	Win2	0.6098	n/a	Yes	2.733	n/a	n/a	GoodResponse	1	0.0	n/a	3	40	ISIslide	Win	True
392.028	0.25	Win2	0.619	0.0	Yes	2.772	0.028	n/a	GoodResponse	1	n/a	n/a	4	41	Cue	Win	True
392.279	3.9	Win2	0.619	0.0	Yes	2.772	0.001	n/a	GoodResponse	1	n/a	n/a	4	41	Fixation	Win	True
396.174	0.29	Win2	0.619	0.004	Yes	2.772	-0.004	2.0	GoodResponse	1	0.204	395.378	4	41	Target	Win	True
396.378	0.3	Win2	0.619	0.004	Yes	2.772	-0.004	2.0	GoodResponse	1	0.204	n/a	4	41	ButtonPress	Win	True
396.474	0.41	Win2	0.619	n/a	Yes	2.772	n/a	n/a	GoodResponse	1	n/a	n/a	4	41	Blank	Win	True
396.876	1.45	Win2	0.619	n/a	Yes	2.772	n/a	5.0	GoodResponse	1	0.017	395.893	4	41	Feedback	Win	True
398.33	2.772	Win2	0.619	n/a	Yes	2.772	n/a	n/a	GoodResponse	1	0.0	n/a	4	41	ISIslide	Win	True
401.122	0.25	Control	0.6279	0.0	Yes	2.928	0.022	n/a	GoodResponse	0	n/a	n/a	4	42	Cue	Neutral	True
401.372	3.85	Control	0.6279	0.001	Yes	2.928	0.0	n/a	GoodResponse	0	n/a	n/a	4	42	Fixation	Neutral	True
405.234	0.3	Control	0.6279	0.0	Yes	2.928	0.012	2.0	GoodResponse	0	0.221	404.455	4	42	Target	Neutral	True
405.455	0.3	Control	0.6279	0.0	Yes	2.928	0.012	2.0	GoodResponse	0	0.221	n/a	4	42	ButtonPress	Neutral	True
405.518	0.4	Control	0.6279	n/a	Yes	2.928	n/a	n/a	GoodResponse	0	n/a	n/a	4	42	Blank	Neutral	True
405.919	1.45	Control	0.6279	n/a	Yes	2.928	n/a	5.0	GoodResponse	0	0.05	404.969	4	42	Feedback	Neutral	True
407.374	2.928	Control	0.6279	n/a	Yes	2.928	n/a	n/a	GoodResponse	0	0.0	n/a	4	42	ISIslide	Neutral	True
410.316	0.25	Win2	0.6364	0.0	Yes	3.184	0.016	n/a	GoodResponse	1	n/a	n/a	5	43	Cue	Win	True
410.567	4.0	Win2	0.6364	0.0	Yes	3.184	0.001	n/a	GoodResponse	1	n/a	n/a	5	43	Fixation	Win	True
414.562	0.31	Win2	0.6364	0.004	Yes	3.184	-0.004	2.0	GoodResponse	1	0.185	413.747	5	43	Target	Win	True
414.747	0.3	Win2	0.6364	0.004	Yes	3.184	-0.004	2.0	GoodResponse	1	0.185	n/a	5	43	ButtonPress	Win	True
414.88	0.39	Win2	0.6364	n/a	Yes	3.184	n/a	n/a	GoodResponse	1	n/a	n/a	5	43	Blank	Win	True
415.264	1.45	Win2	0.6364	n/a	Yes	3.184	n/a	5.0	GoodResponse	1	0.038	414.302	5	43	Feedback	Win	True
416.718	3.184	Win2	0.6364	n/a	Yes	3.184	n/a	n/a	GoodResponse	1	0.0	n/a	5	43	ISIslide	Win	True
419.928	0.25	Win2	0.6444	0.0	Yes	2.972	0.028	n/a	GoodResponse	1	n/a	n/a	6	44	Cue	Win	True
420.179	4.0	Win2	0.6444	0.0	Yes	2.972	0.001	n/a	GoodResponse	1	n/a	n/a	6	44	Fixation	Win	True
424.174	0.32	Win2	0.6444	0.004	Yes	2.972	-0.004	2.0	GoodResponse	1	0.205	423.379	6	44	Target	Win	True
424.379	0.3	Win2	0.6444	0.004	Yes	2.972	-0.004	2.0	GoodResponse	1	0.205	n/a	6	44	ButtonPress	Win	True
424.508	0.38	Win2	0.6444	n/a	Yes	2.972	n/a	n/a	GoodResponse	1	n/a	n/a	6	44	Blank	Win	True
424.876	1.45	Win2	0.6444	n/a	Yes	2.972	n/a	5.0	GoodResponse	1	0.016	423.892	6	44	Feedback	Win	True
426.33	2.972	Win2	0.6444	n/a	Yes	2.972	n/a	n/a	GoodResponse	1	0.0	n/a	6	44	ISIslide	Win	True
429.323	0.25	Control	0.6522	0.0	Yes	2.877	0.023	n/a	GoodResponse	0	n/a	n/a	6	45	Cue	Neutral	True
429.573	4.1	Control	0.6522	0.001	Yes	2.877	0.0	n/a	GoodResponse	0	n/a	n/a	6	45	Fixation	Neutral	True
433.669	0.33	Control	0.6522	0.004	Yes	2.877	-0.004	2.0	GoodResponse	0	0.254	432.923	6	45	Target	Neutral	True
433.923	0.3	Control	0.6522	0.004	Yes	2.877	-0.004	2.0	GoodResponse	0	0.254	n/a	6	45	ButtonPress	Neutral	True
434.003	0.37	Control	0.6522	n/a	Yes	2.877	n/a	n/a	GoodResponse	0	n/a	n/a	6	45	Blank	Neutral	True
434.371	1.45	Control	0.6522	n/a	Yes	2.877	n/a	5.0	GoodResponse	0	0.008	433.379	6	45	Feedback	Neutral	True
435.825	2.877	Control	0.6522	n/a	Yes	2.877	n/a	n/a	GoodResponse	0	0.0	n/a	6	45	ISIslide	Neutral	True
438.717	0.25	Lose2	0.6596	0.001	Yes	3.383	0.017	n/a	GoodResponse	0	n/a	n/a	6	46	Cue	AvoidedLoss	True
438.968	4.0	Lose2	0.6596	0.0	Yes	3.383	0.001	n/a	GoodResponse	0	n/a	n/a	6	46	Fixation	AvoidedLoss	True
442.964	0.34	Lose2	0.6596	0.003	Yes	3.383	-0.003	2.0	GoodResponse	0	0.2	442.164	6	46	Target	AvoidedLoss	True
443.164	0.3	Lose2	0.6596	0.003	Yes	3.383	-0.003	2.0	GoodResponse	0	0.2	n/a	6	46	ButtonPress	AvoidedLoss	True
443.315	0.36	Lose2	0.6596	n/a	Yes	3.383	n/a	n/a	GoodResponse	0	n/a	n/a	6	46	Blank	AvoidedLoss	True
443.666	1.45	Lose2	0.6596	n/a	Yes	3.383	n/a	5.0	GoodResponse	0	0.047	442.713	6	46	Feedback	AvoidedLoss	True
445.12	3.383	Lose2	0.6596	n/a	Yes	3.383	n/a	n/a	GoodResponse	0	0.0	n/a	6	46	ISIslide	AvoidedLoss	True
448.53	0.25	Lose2	0.6667000000000001	0.0	Yes	2.67	0.03	n/a	GoodResponse	0	n/a	n/a	6	47	Cue	AvoidedLoss	True
448.781	4.0	Lose2	0.6667000000000001	0.0	Yes	2.67	0.001	n/a	GoodResponse	0	n/a	n/a	6	47	Fixation	AvoidedLoss	True
452.776	0.34	Lose2	0.6667000000000001	0.004	Yes	2.67	-0.004	2.0	GoodResponse	0	0.199	451.975	6	47	Target	AvoidedLoss	True
452.975	0.3	Lose2	0.6667000000000001	0.004	Yes	2.67	-0.004	2.0	GoodResponse	0	0.199	n/a	6	47	ButtonPress	AvoidedLoss	True
453.127	0.36	Lose2	0.6667000000000001	n/a	Yes	2.67	n/a	n/a	GoodResponse	0	n/a	n/a	6	47	Blank	AvoidedLoss	True
453.478	1.45	Lose2	0.6667000000000001	n/a	Yes	2.67	n/a	5.0	GoodResponse	0	0.029	452.507	6	47	Feedback	AvoidedLoss	True
454.933	2.67	Lose2	0.6667000000000001	n/a	Yes	2.67	n/a	n/a	GoodResponse	0	0.0	n/a	6	47	ISIslide	AvoidedLoss	True
457.624	0.25	Lose2	0.6735	0.0	Yes	3.026	0.024	n/a	GoodResponse	0	n/a	n/a	6	48	Cue	AvoidedLoss	True
457.875	3.95	Lose2	0.6735	0.0	Yes	3.026	0.001	n/a	GoodResponse	0	n/a	n/a	6	48	Fixation	AvoidedLoss	True
461.82	0.33	Lose2	0.6735	0.004	Yes	3.026	-0.004	2.0	GoodResponse	0	0.198	461.018	6	48	Target	AvoidedLoss	True
462.018	0.3	Lose2	0.6735	0.004	Yes	3.026	-0.004	2.0	GoodResponse	0	0.198	n/a	6	48	ButtonPress	AvoidedLoss	True
462.154	0.37	Lose2	0.6735	n/a	Yes	3.026	n/a	n/a	GoodResponse	0	n/a	n/a	6	48	Blank	AvoidedLoss	True
462.522	1.45	Lose2	0.6735	n/a	Yes	3.026	n/a	5.0	GoodResponse	0	0.011	461.533	6	48	Feedback	AvoidedLoss	True
463.976	3.026	Lose2	0.6735	n/a	Yes	3.026	n/a	n/a	GoodResponse	0	0.0	n/a	6	48	ISIslide	AvoidedLoss	True
467.019	0.25	Control	0.68	0.0	Yes	2.881	0.019	n/a	GoodResponse	0	n/a	n/a	6	49	Cue	Neutral	True
467.269	4.0	Control	0.68	0.001	Yes	2.881	0.0	n/a	GoodResponse	0	n/a	n/a	6	49	Fixation	Neutral	True
471.265	0.32	Control	0.68	0.004	Yes	2.881	-0.004	2.0	GoodResponse	0	0.201	470.466	6	49	Target	Neutral	True
471.466	0.3	Control	0.68	0.004	Yes	2.881	-0.004	2.0	GoodResponse	0	0.201	n/a	6	49	ButtonPress	Neutral	True
471.599	0.38	Control	0.68	n/a	Yes	2.881	n/a	n/a	GoodResponse	0	n/a	n/a	6	49	Blank	Neutral	True
471.967	1.45	Control	0.68	n/a	Yes	2.881	n/a	5.0	GoodResponse	0	0.002	470.969	6	49	Feedback	Neutral	True
473.421	2.881	Control	0.68	n/a	Yes	2.881	n/a	n/a	GoodResponse	0	0.0	n/a	6	49	ISIslide	Neutral	True
476.33	0.25	Control	0.6862999999999999	0.0	Yes	2.77	0.03	n/a	GoodResponse	0	n/a	n/a	6	50	Cue	Neutral	True
476.581	4.0	Control	0.6862999999999999	0.0	Yes	2.77	0.001	n/a	GoodResponse	0	n/a	n/a	6	50	Fixation	Neutral	True
480.576	0.31	Control	0.6862999999999999	0.004	Yes	2.77	-0.004	2.0	GoodResponse	0	0.242	479.818	6	50	Target	Neutral	True
480.818	0.3	Control	0.6862999999999999	0.004	Yes	2.77	-0.004	2.0	GoodResponse	0	0.242	n/a	6	50	ButtonPress	Neutral	True
480.894	0.39	Control	0.6862999999999999	n/a	Yes	2.77	n/a	n/a	GoodResponse	0	n/a	n/a	6	50	Blank	Neutral	True
481.278	1.45	Control	0.6862999999999999	n/a	Yes	2.77	n/a	5.0	GoodResponse	0	0.024	480.302	6	50	Feedback	Neutral	True
482.732	2.77	Control	0.6862999999999999	n/a	Yes	2.77	n/a	n/a	GoodResponse	0	0.0	n/a	6	50	ISIslide	Neutral	True
485.524	0.25	Control	0.6923	0.0	Yes	2.726	0.024	n/a	GoodResponse	0	n/a	n/a	6	51	Cue	Neutral	True
485.775	3.95	Control	0.6923	0.0	Yes	2.726	0.001	n/a	GoodResponse	0	n/a	n/a	6	51	Fixation	Neutral	True
489.72	0.3	Control	0.6923	0.004	Yes	2.726	-0.004	2.0	GoodResponse	0	0.217	488.937	6	51	Target	Neutral	True
489.937	0.3	Control	0.6923	0.004	Yes	2.726	-0.004	2.0	GoodResponse	0	0.217	n/a	6	51	ButtonPress	Neutral	True
490.021	0.4	Control	0.6923	n/a	Yes	2.726	n/a	n/a	GoodResponse	0	n/a	n/a	6	51	Blank	Neutral	True
490.422	1.45	Control	0.6923	n/a	Yes	2.726	n/a	5.0	GoodResponse	0	0.007	489.429	6	51	Feedback	Neutral	True
491.876	2.726	Control	0.6923	n/a	Yes	2.726	n/a	n/a	GoodResponse	0	0.0	n/a	6	51	ISIslide	Neutral	True
494.618	0.25	Control	0.6981	0.0	Yes	2.632	0.018	n/a	GoodResponse	0	n/a	n/a	6	52	Cue	Neutral	True
494.869	4.05	Control	0.6981	0.0	Yes	2.632	0.001	n/a	GoodResponse	0	n/a	n/a	6	52	Fixation	Neutral	True
498.914	0.29	Control	0.6981	0.004	Yes	2.632	-0.004	2.0	GoodResponse	0	0.265	498.179	6	52	Target	Neutral	True
499.179	0.3	Control	0.6981	0.004	Yes	2.632	-0.004	2.0	GoodResponse	0	0.265	n/a	6	52	ButtonPress	Neutral	True
499.215	0.41	Control	0.6981	n/a	Yes	2.632	n/a	n/a	GoodResponse	0	n/a	n/a	6	52	Blank	Neutral	True
499.616	1.45	Control	0.6981	n/a	Yes	2.632	n/a	5.0	GoodResponse	0	0.044	498.66	6	52	Feedback	Neutral	True
501.071	2.632	Control	0.6981	n/a	Yes	2.632	n/a	n/a	GoodResponse	0	0.0	n/a	6	52	ISIslide	Neutral	True
503.728	0.25	Win2	0.7037	0.001	Yes	2.922	0.028	n/a	GoodResponse	1	n/a	n/a	7	53	Cue	Win	True
503.979	4.05	Win2	0.7037	0.0	Yes	2.922	0.001	n/a	GoodResponse	1	n/a	n/a	7	53	Fixation	Win	True
508.025	0.28	Win2	0.7037	0.003	Yes	2.922	-0.003	2.0	GoodResponse	1	0.196	507.221	7	53	Target	Win	True
508.221	0.3	Win2	0.7037	0.003	Yes	2.922	-0.003	2.0	GoodResponse	1	0.196	n/a	7	53	ButtonPress	Win	True
508.309	0.42	Win2	0.7037	n/a	Yes	2.922	n/a	n/a	GoodResponse	1	n/a	n/a	7	53	Blank	Win	True
508.727	1.45	Win2	0.7037	n/a	Yes	2.922	n/a	5.0	GoodResponse	1	0.01	507.737	7	53	Feedback	Win	True
510.181	2.922	Win2	0.7037	n/a	Yes	2.922	n/a	n/a	GoodResponse	1	0.0	n/a	7	53	ISIslide	Win	True
513.123	0.25	Win2	0.7091	0.0	Yes	2.727	0.023	n/a	GoodResponse	1	n/a	n/a	8	54	Cue	Win	True
513.374	3.95	Win2	0.7091	0.0	Yes	2.727	0.001	n/a	GoodResponse	1	n/a	n/a	8	54	Fixation	Win	True
517.319	0.27	Win2	0.7091	0.004	Yes	2.727	-0.004	2.0	GoodResponse	1	0.23	516.549	8	54	Target	Win	True
517.549	0.3	Win2	0.7091	0.004	Yes	2.727	-0.004	2.0	GoodResponse	1	0.23	n/a	8	54	ButtonPress	Win	True
517.603	0.43	Win2	0.7091	n/a	Yes	2.727	n/a	n/a	GoodResponse	1	n/a	n/a	8	54	Blank	Win	True
518.021	1.45	Win2	0.7091	n/a	Yes	2.727	n/a	5.0	GoodResponse	1	0.05	517.071	8	54	Feedback	Win	True
519.476	2.727	Win2	0.7091	n/a	Yes	2.727	n/a	n/a	GoodResponse	1	0.0	n/a	8	54	ISIslide	Win	True
522.217	0.25	Control	0.7143	0.0	Yes	3.033	0.017	n/a	GoodResponse	0	n/a	n/a	8	55	Cue	Neutral	True
522.468	3.95	Control	0.7143	0.0	Yes	3.033	0.001	n/a	GoodResponse	0	n/a	n/a	8	55	Fixation	Neutral	True
526.413	0.26	Control	0.7143	0.004	Yes	3.033	-0.004	2.0	GoodResponse	0	0.205	525.618	8	55	Target	Neutral	True
526.618	0.3	Control	0.7143	0.004	Yes	3.033	-0.004	2.0	GoodResponse	0	0.205	n/a	8	55	ButtonPress	Neutral	True
526.68	0.44	Control	0.7143	n/a	Yes	3.033	n/a	n/a	GoodResponse	0	n/a	n/a	8	55	Blank	Neutral	True
527.115	1.45	Control	0.7143	n/a	Yes	3.033	n/a	5.0	GoodResponse	0	0.033	526.148	8	55	Feedback	Neutral	True
528.569	3.033	Control	0.7143	n/a	Yes	3.033	n/a	n/a	GoodResponse	0	0.0	n/a	8	55	ISIslide	Neutral	True
531.629	0.25	Control	0.7193	0.0	Yes	2.821	0.029	n/a	GoodResponse	0	n/a	n/a	8	56	Cue	Neutral	True
531.879	3.95	Control	0.7193	0.0	Yes	2.821	0.0	n/a	GoodResponse	0	n/a	n/a	8	56	Fixation	Neutral	True
535.841	0.25	Control	0.7193	0.0	Yes	2.821	0.012	2.0	GoodResponse	0	0.221	535.062	8	56	Target	Neutral	True
536.062	0.3	Control	0.7193	0.0	Yes	2.821	0.012	2.0	GoodResponse	0	0.221	n/a	8	56	ButtonPress	Neutral	True
536.075	0.45	Control	0.7193	n/a	Yes	2.821	n/a	n/a	GoodResponse	0	n/a	n/a	8	56	Blank	Neutral	True
536.527	1.45	Control	0.7193	n/a	Yes	2.821	n/a	5.0	GoodResponse	0	0.008	535.535	8	56	Feedback	Neutral	True
537.981	2.821	Control	0.7193	n/a	Yes	2.821	n/a	n/a	GoodResponse	0	0.0	n/a	8	56	ISIslide	Neutral	True
540.823	0.25	Control	0.7241	0.0	Yes	3.477	0.023	n/a	GoodResponse	0	n/a	n/a	8	57	Cue	Neutral	True
541.073	4.0	Control	0.7241	0.001	Yes	3.477	0.0	n/a	GoodResponse	0	n/a	n/a	8	57	Fixation	Neutral	True
545.069	0.24	Control	0.7241	0.004	Yes	3.477	-0.004	2.0	GoodResponse	0	0.233	544.302	8	57	Target	Neutral	True
545.302	0.3	Control	0.7241	0.004	Yes	3.477	-0.004	2.0	GoodResponse	0	0.233	n/a	8	57	ButtonPress	Neutral	True
545.32	0.46	Control	0.7241	n/a	Yes	3.477	n/a	n/a	GoodResponse	0	n/a	n/a	8	57	Blank	Neutral	True
545.771	1.45	Control	0.7241	n/a	Yes	3.477	n/a	5.0	GoodResponse	0	0.043	544.814	8	57	Feedback	Neutral	True
547.225	3.477	Control	0.7241	n/a	Yes	3.477	n/a	n/a	GoodResponse	0	0.0	n/a	8	57	ISIslide	Neutral	True
550.719	0.25	Win2	0.7288	0.0	Yes	2.731	0.019	n/a	GoodResponse	1	n/a	n/a	9	58	Cue	Win	True
550.97	4.05	Win2	0.7288	0.0	Yes	2.731	0.001	n/a	GoodResponse	1	n/a	n/a	9	58	Fixation	Win	True
555.015	0.23	Win2	0.7288	0.004	Yes	2.731	-0.004	2.0	GoodResponse	1	0.204	554.219	9	58	Target	Win	True
555.219	0.3	Win2	0.7288	0.004	Yes	2.731	-0.004	2.0	GoodResponse	1	0.204	n/a	9	58	ButtonPress	Win	True
555.249	0.47	Win2	0.7288	n/a	Yes	2.731	n/a	n/a	GoodResponse	1	n/a	n/a	9	58	Blank	Win	True
555.717	1.45	Win2	0.7288	n/a	Yes	2.731	n/a	5.0	GoodResponse	1	0.045	554.762	9	58	Feedback	Win	True
557.172	2.731	Win2	0.7288	n/a	Yes	2.731	n/a	n/a	GoodResponse	1	0.0	n/a	9	58	ISIslide	Win	True
559.93	0.25	Lose2	0.7333	0.0	Yes	2.67	0.03	n/a	GoodResponse	0	n/a	n/a	9	59	Cue	AvoidedLoss	True
560.181	4.0	Lose2	0.7333	0.0	Yes	2.67	0.001	n/a	GoodResponse	0	n/a	n/a	9	59	Fixation	AvoidedLoss	True
564.176	0.22	Lose2	0.7333	0.004	Yes	2.67	-0.004	2.0	GoodResponse	0	0.184	563.36	9	59	Target	AvoidedLoss	True
564.36	0.3	Lose2	0.7333	0.004	Yes	2.67	-0.004	2.0	GoodResponse	0	0.184	n/a	9	59	ButtonPress	AvoidedLoss	True
564.41	0.48	Lose2	0.7333	n/a	Yes	2.67	n/a	n/a	GoodResponse	0	n/a	n/a	9	59	Blank	AvoidedLoss	True
564.878	1.45	Lose2	0.7333	n/a	Yes	2.67	n/a	5.0	GoodResponse	0	0.013	563.891	9	59	Feedback	AvoidedLoss	True
566.332	2.67	Lose2	0.7333	n/a	Yes	2.67	n/a	n/a	GoodResponse	0	0.0	n/a	9	59	ISIslide	AvoidedLoss	True
569.024	0.25	Control	0.7212999999999999	0.0	No	2.676	0.024	n/a	NoResponse	0	n/a	n/a	9	60	Cue	Neutral	True
569.274	4.0	Control	0.7212999999999999	0.001	No	2.676	0.0	n/a	NoResponse	0	n/a	n/a	9	60	Fixation	Neutral	True
573.27	0.21	Control	0.7212999999999999	0.004	No	2.676	-0.004	2.0	NoResponse	0	0.353	572.623	9	60	Target	Neutral	True
573.487	0.49	Control	0.7212999999999999	n/a	No	2.676	n/a	n/a	NoResponse	0	n/a	n/a	9	60	Blank	Neutral	True
573.623	0.3	Control	0.7212999999999999	0.004	No	2.676	-0.004	2.0	NoResponse	0	0.353	n/a	9	60	ButtonPress	Neutral	True
573.972	1.45	Control	0.7212999999999999	n/a	No	2.676	n/a	5.0	NoResponse	0	0.046	573.018	9	60	Feedback	Neutral	True
575.426	2.676	Control	0.7212999999999999	n/a	No	2.676	n/a	n/a	NoResponse	0	0.0	n/a	9	60	ISIslide	Neutral	True
578.118	0.25	Lose2	0.7258	0.0	Yes	2.982	0.018	n/a	GoodResponse	0	n/a	n/a	9	61	Cue	AvoidedLoss	True
578.368	4.0	Lose2	0.7258	0.0	Yes	2.982	0.0	n/a	GoodResponse	0	n/a	n/a	9	61	Fixation	AvoidedLoss	True
582.364	0.2	Lose2	0.7258	0.004	Yes	2.982	-0.004	2.0	GoodResponse	0	0.185	581.549	9	61	Target	AvoidedLoss	True
582.549	0.3	Lose2	0.7258	0.004	Yes	2.982	-0.004	2.0	GoodResponse	0	0.185	n/a	9	61	ButtonPress	AvoidedLoss	True
582.564	0.5	Lose2	0.7258	n/a	Yes	2.982	n/a	n/a	GoodResponse	0	n/a	n/a	9	61	Blank	AvoidedLoss	True
583.066	1.45	Lose2	0.7258	n/a	Yes	2.982	n/a	5.0	GoodResponse	0	0.029	582.095	9	61	Feedback	AvoidedLoss	True
584.52	2.982	Lose2	0.7258	n/a	Yes	2.982	n/a	n/a	GoodResponse	0	0.0	n/a	9	61	ISIslide	AvoidedLoss	True
587.529	0.25	Lose2	0.7143	0.0	No	2.871	0.029	n/a	NoResponse	-1	n/a	n/a	8	62	Cue	Loss	True
587.78	3.9	Lose2	0.7143	0.0	No	2.871	0.001	n/a	NoResponse	-1	n/a	n/a	8	62	Fixation	Loss	True
591.675	0.19	Lose2	0.7143	0.004	No	2.871	-0.004	2.0	NoResponse	-1	0.209	590.884	8	62	Target	Loss	True
591.875	0.51	Lose2	0.7143	n/a	No	2.871	n/a	n/a	NoResponse	-1	n/a	n/a	8	62	Blank	Loss	True
591.884	0.3	Lose2	0.7143	0.004	No	2.871	-0.004	2.0	NoResponse	-1	0.209	n/a	8	62	ButtonPress	Loss	True
592.377	1.45	Lose2	0.7143	n/a	No	2.871	n/a	5.0	NoResponse	-1	0.0	591.377	8	62	Feedback	Loss	True
593.831	2.871	Lose2	0.7143	n/a	No	2.871	n/a	n/a	NoResponse	-1	0.0	n/a	8	62	ISIslide	Loss	True
596.723	0.25	Lose2	0.7031000000000001	0.0	No	2.627	0.023	n/a	NoResponse	-1	n/a	n/a	7	63	Cue	Loss	True
596.974	4.05	Lose2	0.7031000000000001	0.0	No	2.627	0.001	n/a	NoResponse	-1	n/a	n/a	7	63	Fixation	Loss	True
601.019	0.18	Lose2	0.7031000000000001	0.004	No	2.627	-0.004	2.0	NoResponse	-1	0.197	600.216	7	63	Target	Loss	True
601.203	0.52	Lose2	0.7031000000000001	n/a	No	2.627	n/a	n/a	NoResponse	-1	n/a	n/a	7	63	Blank	Loss	True
601.216	0.3	Lose2	0.7031000000000001	0.004	No	2.627	-0.004	2.0	NoResponse	-1	0.197	n/a	7	63	ButtonPress	Loss	True
601.721	1.45	Lose2	0.7031000000000001	n/a	No	2.627	n/a	5.0	NoResponse	-1	0.041	600.762	7	63	Feedback	Loss	True
603.176	2.627	Lose2	0.7031000000000001	n/a	No	2.627	n/a	n/a	NoResponse	-1	0.0	n/a	7	63	ISIslide	Loss	True
605.817	0.25	Win2	0.6923	0.0	No	3.133	0.017	n/a	NoResponse	0	n/a	n/a	7	64	Cue	MissedWin	True
606.068	4.15	Win2	0.6923	0.0	No	3.133	0.001	2.0	NoResponse	0	3.901	608.969	7	64	Fixation	MissedWin	True
609.969	0.3	Win2	0.6923	0.0	No	3.133	0.001	2.0	NoResponse	0	3.901	n/a	7	64	ButtonPress	MissedWin	True
610.214	0.17	Win2	0.6923	0.003	No	3.133	-0.003	n/a	NoResponse	0	n/a	n/a	7	64	Target	MissedWin	True
610.397	0.53	Win2	0.6923	n/a	No	3.133	n/a	n/a	NoResponse	0	n/a	n/a	7	64	Blank	MissedWin	True
610.916	1.45	Win2	0.6923	n/a	No	3.133	n/a	5.0	NoResponse	0	0.026	609.942	7	64	Feedback	MissedWin	True
612.37	3.133	Win2	0.6923	n/a	No	3.133	n/a	n/a	NoResponse	0	0.0	n/a	7	64	ISIslide	MissedWin	True
615.529	0.25	Control	0.6818000000000001	0.001	No	2.771	0.029	n/a	NoResponse	0	n/a	n/a	7	65	Cue	Neutral	True
615.78	4.0	Control	0.6818000000000001	0.0	No	2.771	0.001	n/a	NoResponse	0	n/a	n/a	7	65	Fixation	Neutral	True
619.775	0.16	Control	0.6818000000000001	0.004	No	2.771	-0.004	2.0	NoResponse	0	0.279	619.054	7	65	Target	Neutral	True
619.943	0.54	Control	0.6818000000000001	n/a	No	2.771	n/a	n/a	NoResponse	0	n/a	n/a	7	65	Blank	Neutral	True
620.054	0.3	Control	0.6818000000000001	0.004	No	2.771	-0.004	2.0	NoResponse	0	0.279	n/a	7	65	ButtonPress	Neutral	True
620.478	1.45	Control	0.6818000000000001	n/a	No	2.771	n/a	5.0	NoResponse	0	0.006	619.484	7	65	Feedback	Neutral	True
621.932	2.771	Control	0.6818000000000001	n/a	No	2.771	n/a	n/a	NoResponse	0	0.0	n/a	7	65	ISIslide	Neutral	True
624.724	0.25	Win2	0.6716	0.0	No	2.776	0.024	n/a	NoResponse	0	n/a	n/a	7	66	Cue	MissedWin	True
624.974	3.9	Win2	0.6716	0.0	No	2.776	0.0	n/a	NoResponse	0	n/a	n/a	7	66	Fixation	MissedWin	True
628.886	0.15	Win2	0.6716	0.0	No	2.776	0.012	2.0	NoResponse	0	0.199	628.085	7	66	Target	MissedWin	True
629.02	0.55	Win2	0.6716	n/a	No	2.776	n/a	n/a	NoResponse	0	n/a	n/a	7	66	Blank	MissedWin	True
629.085	0.3	Win2	0.6716	0.0	No	2.776	0.012	2.0	NoResponse	0	0.199	n/a	7	66	ButtonPress	MissedWin	True
629.571	1.45	Win2	0.6716	n/a	No	2.776	n/a	5.0	NoResponse	0	0.036	628.607	7	66	Feedback	MissedWin	True
631.026	2.776	Win2	0.6716	n/a	No	2.776	n/a	n/a	NoResponse	0	0.0	n/a	7	66	ISIslide	MissedWin	True
633.817	0.25	Control	0.6618	0.001	No	2.733	0.017	n/a	NoResponse	0	n/a	n/a	7	67	Cue	Neutral	True
634.068	3.95	Control	0.6618	0.0	No	2.733	0.001	n/a	NoResponse	0	n/a	n/a	7	67	Fixation	Neutral	True
638.013	0.15	Control	0.6618	0.004	No	2.733	-0.004	2.0	NoResponse	0	0.182	637.195	7	67	Target	Neutral	True
638.164	0.55	Control	0.6618	n/a	No	2.733	n/a	n/a	NoResponse	0	n/a	n/a	7	67	Blank	Neutral	True
638.195	0.3	Control	0.6618	0.004	No	2.733	-0.004	2.0	NoResponse	0	0.182	n/a	7	67	ButtonPress	Neutral	True
638.715	1.45	Control	0.6618	n/a	No	2.733	n/a	5.0	NoResponse	0	0.021	637.736	7	67	Feedback	Neutral	True
640.17	2.733	Control	0.6618	n/a	No	2.733	n/a	n/a	NoResponse	0	0.0	n/a	7	67	ISIslide	Neutral	True
642.928	0.25	Win2	0.6522	0.0	No	3.072	0.028	n/a	NoResponse	0	n/a	n/a	7	68	Cue	MissedWin	True
643.179	4.0	Win2	0.6522	0.0	No	3.072	0.001	n/a	NoResponse	0	n/a	n/a	7	68	Fixation	MissedWin	True
647.174	0.15	Win2	0.6522	0.004	No	3.072	-0.004	2.0	NoResponse	0	0.169	646.343	7	68	Target	MissedWin	True
647.325	0.55	Win2	0.6522	n/a	No	3.072	n/a	n/a	NoResponse	0	n/a	n/a	7	68	Blank	MissedWin	True
647.343	0.3	Win2	0.6522	0.004	No	3.072	-0.004	2.0	NoResponse	0	0.169	n/a	7	68	ButtonPress	MissedWin	True
647.876	1.45	Win2	0.6522	n/a	No	3.072	n/a	5.0	NoResponse	0	0.039	646.915	7	68	Feedback	MissedWin	True
649.33	3.072	Win2	0.6522	n/a	No	3.072	n/a	n/a	NoResponse	0	0.0	n/a	7	68	ISIslide	MissedWin	True
652.423	0.25	Win2	0.6429	0.0	No	3.227	0.023	n/a	NoResponse	0	n/a	n/a	7	69	Cue	MissedWin	True
652.674	3.95	Win2	0.6429	0.0	No	3.227	0.001	n/a	NoResponse	0	n/a	n/a	7	69	Fixation	MissedWin	True
656.619	0.16	Win2	0.6429	0.004	No	3.227	-0.004	2.0	NoResponse	0	0.194	655.813	7	69	Target	MissedWin	True
656.786	0.54	Win2	0.6429	n/a	No	3.227	n/a	n/a	NoResponse	0	n/a	n/a	7	69	Blank	MissedWin	True
656.813	0.3	Win2	0.6429	0.004	No	3.227	-0.004	2.0	NoResponse	0	0.194	n/a	7	69	ButtonPress	MissedWin	True
657.321	1.45	Win2	0.6429	n/a	No	3.227	n/a	5.0	NoResponse	0	0.03	656.351	7	69	Feedback	MissedWin	True
658.775	3.227	Win2	0.6429	n/a	No	3.227	n/a	n/a	NoResponse	0	0.0	n/a	7	69	ISIslide	MissedWin	True
662.018	0.25	Lose2	0.6338	0.001	No	3.032	0.018	n/a	NoResponse	-1	n/a	n/a	6	70	Cue	Loss	True
662.269	4.05	Lose2	0.6338	0.0	No	3.032	0.001	n/a	NoResponse	-1	n/a	n/a	6	70	Fixation	Loss	True
666.315	0.17	Lose2	0.6338	0.003	No	3.032	-0.003	2.0	NoResponse	-1	0.205	665.52	6	70	Target	Loss	True
666.498	0.53	Lose2	0.6338	n/a	No	3.032	n/a	n/a	NoResponse	-1	n/a	n/a	6	70	Blank	Loss	True
666.52	0.3	Lose2	0.6338	0.003	No	3.032	-0.003	2.0	NoResponse	-1	0.205	n/a	6	70	ButtonPress	Loss	True
667.017	1.45	Lose2	0.6338	n/a	No	3.032	n/a	5.0	NoResponse	-1	0.026	666.043	6	70	Feedback	Loss	True
668.471	3.032	Lose2	0.6338	n/a	No	3.032	n/a	n/a	NoResponse	-1	0.0	n/a	6	70	ISIslide	Loss	True
671.53	0.25	Win2	0.6389	0.0	Yes	2.72	0.03	n/a	GoodResponse	1	n/a	n/a	7	71	Cue	Win	True
671.781	4.05	Win2	0.6389	0.0	Yes	2.72	0.001	n/a	GoodResponse	1	n/a	n/a	7	71	Fixation	Win	True
675.826	0.18	Win2	0.6389	0.004	Yes	2.72	-0.004	2.0	GoodResponse	1	0.176	675.002	7	71	Target	Win	True
676.002	0.3	Win2	0.6389	0.004	Yes	2.72	-0.004	2.0	GoodResponse	1	0.176	n/a	7	71	ButtonPress	Win	True
676.01	0.52	Win2	0.6389	n/a	Yes	2.72	n/a	n/a	GoodResponse	1	n/a	n/a	7	71	Blank	Win	True
676.528	1.45	Win2	0.6389	n/a	Yes	2.72	n/a	5.0	GoodResponse	1	0.006	675.534	7	71	Feedback	Win	True
677.983	2.72	Win2	0.6389	n/a	Yes	2.72	n/a	n/a	GoodResponse	1	0.0	n/a	7	71	ISIslide	Win	True
680.724	0.25	Win2	0.6301	0.0	No	2.776	0.024	n/a	NoResponse	0	n/a	n/a	7	72	Cue	MissedWin	True
680.975	4.1	Win2	0.6301	0.0	No	2.776	0.001	n/a	NoResponse	0	n/a	n/a	7	72	Fixation	MissedWin	True
685.071	0.19	Win2	0.6301	0.003	No	2.776	-0.003	2.0	NoResponse	0	0.21	684.281	7	72	Target	MissedWin	True
685.271	0.51	Win2	0.6301	n/a	No	2.776	n/a	n/a	NoResponse	0	n/a	n/a	7	72	Blank	MissedWin	True
685.281	0.3	Win2	0.6301	0.003	No	2.776	-0.003	2.0	NoResponse	0	0.21	n/a	7	72	ButtonPress	MissedWin	True
685.773	1.45	Win2	0.6301	n/a	No	2.776	n/a	5.0	NoResponse	0	0.039	684.812	7	72	Feedback	MissedWin	True
687.227	2.776	Win2	0.6301	n/a	No	2.776	n/a	n/a	NoResponse	0	0.0	n/a	7	72	ISIslide	MissedWin	True
690.019	0.25	Win2	0.6351	0.0	Yes	2.681	0.019	n/a	GoodResponse	1	n/a	n/a	8	73	Cue	Win	True
690.27	4.0	Win2	0.6351	0.0	Yes	2.681	0.001	n/a	GoodResponse	1	n/a	n/a	8	73	Fixation	Win	True
694.265	0.2	Win2	0.6351	0.004	Yes	2.681	-0.004	2.0	GoodResponse	1	0.16	693.425	8	73	Target	Win	True
694.425	0.3	Win2	0.6351	0.004	Yes	2.681	-0.004	2.0	GoodResponse	1	0.16	n/a	8	73	ButtonPress	Win	True
694.465	0.5	Win2	0.6351	n/a	Yes	2.681	n/a	n/a	GoodResponse	1	n/a	n/a	8	73	Blank	Win	True
694.967	1.45	Win2	0.6351	n/a	Yes	2.681	n/a	5.0	GoodResponse	1	0.025	693.992	8	73	Feedback	Win	True
696.421	2.681	Win2	0.6351	n/a	Yes	2.681	n/a	n/a	GoodResponse	1	0.0	n/a	8	73	ISIslide	Win	True
699.129	0.25	Lose2	0.6267	0.0	No	2.621	0.029	n/a	NoResponse	-1	n/a	n/a	7	74	Cue	Loss	True
699.38	4.05	Lose2	0.6267	0.0	No	2.621	0.001	n/a	NoResponse	-1	n/a	n/a	7	74	Fixation	Loss	True
703.426	0.21	Lose2	0.6267	0.003	No	2.621	-0.003	2.0	NoResponse	-1	0.225	702.651	7	74	Target	Loss	True
703.643	0.49	Lose2	0.6267	n/a	No	2.621	n/a	n/a	NoResponse	-1	n/a	n/a	7	74	Blank	Loss	True
703.651	0.3	Lose2	0.6267	0.003	No	2.621	-0.003	2.0	NoResponse	-1	0.225	n/a	7	74	ButtonPress	Loss	True
704.128	1.45	Lose2	0.6267	n/a	No	2.621	n/a	5.0	NoResponse	-1	0.042	703.17	7	74	Feedback	Loss	True
705.582	2.621	Lose2	0.6267	n/a	No	2.621	n/a	n/a	NoResponse	-1	0.0	n/a	7	74	ISIslide	Loss	True
708.223	0.25	Lose2	0.6184000000000001	0.0	No	2.927	0.023	n/a	PrematurePress	-1	n/a	n/a	6	75	Cue	Loss	True
708.474	3.95	Lose2	0.6184000000000001	0.0	No	2.927	0.001	n/a	PrematurePress	-1	n/a	n/a	6	75	Fixation	Loss	True
712.419	0.22	Lose2	0.6184000000000001	0.004	No	2.927	-0.004	2.0	PrematurePress	-1	0.025	711.444	6	75	Target	Loss	True
712.444	0.3	Lose2	0.6184000000000001	0.004	No	2.927	-0.004	2.0	PrematurePress	-1	0.025	n/a	6	75	ButtonPress	Loss	True
712.653	0.48	Lose2	0.6184000000000001	n/a	No	2.927	n/a	n/a	PrematurePress	-1	n/a	n/a	6	75	Blank	Loss	True
713.121	1.45	Lose2	0.6184000000000001	n/a	No	2.927	n/a	5.0	PrematurePress	-1	0.024	712.145	6	75	Feedback	Loss	True
714.576	2.927	Lose2	0.6184000000000001	n/a	No	2.927	n/a	n/a	PrematurePress	-1	0.0	n/a	6	75	ISIslide	Loss	True
717.518	0.25	Control	0.6234000000000001	0.0	Yes	3.232	0.018	n/a	GoodResponse	0	n/a	n/a	6	76	Cue	Neutral	True
717.768	4.05	Control	0.6234000000000001	0.001	Yes	3.232	0.0	n/a	GoodResponse	0	n/a	n/a	6	76	Fixation	Neutral	True
721.814	0.23	Control	0.6234000000000001	0.004	Yes	3.232	-0.004	2.0	GoodResponse	0	0.198	721.012	6	76	Target	Neutral	True
722.012	0.3	Control	0.6234000000000001	0.004	Yes	3.232	-0.004	2.0	GoodResponse	0	0.198	n/a	6	76	ButtonPress	Neutral	True
722.048	0.47	Control	0.6234000000000001	n/a	Yes	3.232	n/a	n/a	GoodResponse	0	n/a	n/a	6	76	Blank	Neutral	True
722.516	1.45	Control	0.6234000000000001	n/a	Yes	3.232	n/a	5.0	GoodResponse	0	0.014	721.53	6	76	Feedback	Neutral	True
723.97	3.232	Control	0.6234000000000001	n/a	Yes	3.232	n/a	n/a	GoodResponse	0	0.0	n/a	6	76	ISIslide	Neutral	True
727.23	0.25	Lose2	0.6282	0.0	Yes	2.57	0.03	n/a	GoodResponse	0	n/a	n/a	6	77	Cue	AvoidedLoss	True
727.481	3.95	Lose2	0.6282	0.0	Yes	2.57	0.001	n/a	GoodResponse	0	n/a	n/a	6	77	Fixation	AvoidedLoss	True
731.426	0.24	Lose2	0.6282	0.004	Yes	2.57	-0.004	2.0	GoodResponse	0	0.106	730.532	6	77	Target	AvoidedLoss	True
731.532	0.3	Lose2	0.6282	0.004	Yes	2.57	-0.004	2.0	GoodResponse	0	0.106	n/a	6	77	ButtonPress	AvoidedLoss	True
731.677	0.46	Lose2	0.6282	n/a	Yes	2.57	n/a	n/a	GoodResponse	0	n/a	n/a	6	77	Blank	AvoidedLoss	True
732.128	1.45	Lose2	0.6282	n/a	Yes	2.57	n/a	5.0	GoodResponse	0	0.043	731.171	6	77	Feedback	AvoidedLoss	True
733.582	2.57	Lose2	0.6282	n/a	Yes	2.57	n/a	n/a	GoodResponse	0	0.0	n/a	6	77	ISIslide	AvoidedLoss	True
