onset	duration	cue_type	current_mean_accuracy	duration_error	is_hit	isi_adjusted	onset_delay	response	response_type	reward	rt	rt_time	total_reward	trial_number	trial_phase	trial_type	one_press
11.105	0.25	Control	1.0	0.0	Yes	2.945	0.005	n/a	GoodResponse	0	n/a	n/a	0	0	Cue	Neutral	False
11.356	3.85	Control	1.0	0.0	Yes	2.945	0.001	2.0	GoodResponse	0	0.154	10.51	0	0	Fixation	Neutral	False
11.51	0.3	Control	1.0	0.0	Yes	2.945	0.001	2.0	GoodResponse	0	0.154	n/a	0	0	ButtonPress	Neutral	False
15.217	0.4	Control	1.0	0.0	Yes	2.945	0.012	2.0	GoodResponse	0	0.226	14.443	0	0	Target	Neutral	False
15.443	0.3	Control	1.0	0.0	Yes	2.945	0.012	2.0	GoodResponse	0	0.226	n/a	0	0	ButtonPress	Neutral	False
15.602	0.3	Control	1.0	n/a	Yes	2.945	n/a	n/a	GoodResponse	0	n/a	n/a	0	0	Blank	Neutral	False
15.902	1.45	Control	1.0	n/a	Yes	2.945	n/a	5.0	GoodResponse	0	0.024	14.926	0	0	Feedback	Neutral	False
17.357	2.945	Control	1.0	n/a	Yes	2.945	n/a	n/a	GoodResponse	0	0.0	n/a	0	0	ISIslide	Neutral	False
20.316	0.25	Lose2	1.0	0.0	Yes	2.784	0.016	n/a	GoodResponse	0	n/a	n/a	0	1	Cue	AvoidedLoss	False
20.566	4.0	Lose2	1.0	0.001	Yes	2.784	0.0	2.0	GoodResponse	0	0.161	19.727	0	1	Fixation	AvoidedLoss	False
20.727	0.3	Lose2	1.0	0.001	Yes	2.784	0.0	2.0	GoodResponse	0	0.161	n/a	0	1	ButtonPress	AvoidedLoss	False
24.562	0.39	Lose2	1.0	0.004	Yes	2.784	-0.004	2.0	GoodResponse	0	0.245	23.807	0	1	Target	AvoidedLoss	False
24.807	0.3	Lose2	1.0	0.004	Yes	2.784	-0.004	2.0	GoodResponse	0	0.245	n/a	0	1	ButtonPress	AvoidedLoss	False
24.963	0.31	Lose2	1.0	n/a	Yes	2.784	n/a	n/a	GoodResponse	0	n/a	n/a	0	1	Blank	AvoidedLoss	False
25.264	1.45	Lose2	1.0	n/a	Yes	2.784	n/a	5.0	GoodResponse	0	0.027	24.291	0	1	Feedback	AvoidedLoss	False
26.718	2.784	Lose2	1.0	n/a	Yes	2.784	n/a	n/a	GoodResponse	0	0.0	n/a	0	1	ISIslide	AvoidedLoss	False
29.527	0.25	Control	1.0	0.0	Yes	2.573	0.027	n/a	GoodResponse	0	n/a	n/a	0	2	Cue	Neutral	False
29.777	4.1	Control	1.0	0.0	Yes	2.573	0.0	2.0	GoodResponse	0	0.041	28.818	0	2	Fixation	Neutral	False
29.818	0.3	Control	1.0	0.0	Yes	2.573	0.0	2.0	GoodResponse	0	0.041	n/a	0	2	ButtonPress	Neutral	False
33.873	0.38	Control	1.0	0.004	Yes	2.573	-0.004	2.0	GoodResponse	0	0.206	33.079	0	2	Target	Neutral	False
34.079	0.3	Control	1.0	0.004	Yes	2.573	-0.004	2.0	GoodResponse	0	0.206	n/a	0	2	ButtonPress	Neutral	False
34.257	0.32	Control	1.0	n/a	Yes	2.573	n/a	n/a	GoodResponse	0	n/a	n/a	0	2	Blank	Neutral	False
34.575	1.45	Control	1.0	n/a	Yes	2.573	n/a	5.0	GoodResponse	0	0.033	33.608	0	2	Feedback	Neutral	False
36.029	2.573	Control	1.0	n/a	Yes	2.573	n/a	n/a	GoodResponse	0	0.0	n/a	0	2	ISIslide	Neutral	False
38.62	0.25	Win2	1.0	0.0	Yes	2.83	0.02	2.0	GoodResponse	1	0.201	37.821	1	3	Cue	Win	False
38.821	0.3	Win2	1.0	0.0	Yes	2.83	0.02	2.0	GoodResponse	1	0.201	n/a	1	3	ButtonPress	Win	False
38.871	3.95	Win2	1.0	0.0	Yes	2.83	0.001	n/a	GoodResponse	1	n/a	n/a	1	3	Fixation	Win	False
42.816	0.37	Win2	1.0	0.004	Yes	2.83	-0.004	2.0	GoodResponse	1	0.181	41.997	1	3	Target	Win	False
42.997	0.3	Win2	1.0	0.004	Yes	2.83	-0.004	2.0	GoodResponse	1	0.181	n/a	1	3	ButtonPress	Win	False
43.201	0.33	Win2	1.0	n/a	Yes	2.83	n/a	n/a	GoodResponse	1	n/a	n/a	1	3	Blank	Win	False
43.518	1.45	Win2	1.0	n/a	Yes	2.83	n/a	5.0	GoodResponse	1	0.017	42.535	1	3	Feedback	Win	False
44.973	2.83	Win2	1.0	n/a	Yes	2.83	n/a	n/a	GoodResponse	1	0.0	n/a	1	3	ISIslide	Win	False
47.815	0.25	Win2	1.0	0.0	Yes	3.285	0.015	n/a	GoodResponse	1	n/a	n/a	2	4	Cue	Win	False
48.065	4.0	Win2	1.0	0.0	Yes	3.285	0.0	2.0	GoodResponse	1	0.171	47.236	2	4	Fixation	Win	False
48.236	0.3	Win2	1.0	0.0	Yes	3.285	0.0	2.0	GoodResponse	1	0.171	n/a	2	4	ButtonPress	Win	False
52.061	0.36	Win2	1.0	0.004	Yes	3.285	-0.004	2.0	GoodResponse	1	0.191	51.252	2	4	Target	Win	False
52.252	0.3	Win2	1.0	0.004	Yes	3.285	-0.004	2.0	GoodResponse	1	0.191	n/a	2	4	ButtonPress	Win	False
52.428	0.34	Win2	1.0	n/a	Yes	3.285	n/a	n/a	GoodResponse	1	n/a	n/a	2	4	Blank	Win	False
52.763	1.45	Win2	1.0	n/a	Yes	3.285	n/a	5.0	GoodResponse	1	0.041	51.804	2	4	Feedback	Win	False
54.217	3.285	Win2	1.0	n/a	Yes	3.285	n/a	n/a	GoodResponse	1	0.0	n/a	2	4	ISIslide	Win	False
57.527	0.25	Win2	1.0	0.0	Yes	2.773	0.027	2.0	GoodResponse	1	0.23	56.757	3	5	Cue	Win	False
57.757	0.3	Win2	1.0	0.0	Yes	2.773	0.027	2.0	GoodResponse	1	0.23	n/a	3	5	ButtonPress	Win	False
57.778	4.0	Win2	1.0	0.0	Yes	2.773	0.001	n/a	GoodResponse	1	n/a	n/a	3	5	Fixation	Win	False
61.773	0.35	Win2	1.0	0.004	Yes	2.773	-0.004	2.0	GoodResponse	1	0.188	60.961	3	5	Target	Win	False
61.961	0.3	Win2	1.0	0.004	Yes	2.773	-0.004	2.0	GoodResponse	1	0.188	n/a	3	5	ButtonPress	Win	False
62.124	0.35	Win2	1.0	n/a	Yes	2.773	n/a	n/a	GoodResponse	1	n/a	n/a	3	5	Blank	Win	False
62.475	1.45	Win2	1.0	n/a	Yes	2.773	n/a	5.0	GoodResponse	1	0.035	61.51	3	5	Feedback	Win	False
63.929	2.773	Win2	1.0	n/a	Yes	2.773	n/a	n/a	GoodResponse	1	0.0	n/a	3	5	ISIslide	Win	False
66.721	0.25	Lose2	0.8571	0.0	No	2.729	0.021	2.0	NoResponse	-1	0.235	65.956	2	6	Cue	Loss	False
66.956	0.3	Lose2	0.8571	0.0	No	2.729	0.021	2.0	NoResponse	-1	0.235	n/a	2	6	ButtonPress	Loss	False
66.972	3.95	Lose2	0.8571	0.0	No	2.729	0.001	2.0	NoResponse	-1	3.847	69.819	2	6	Fixation	Loss	False
70.819	0.3	Lose2	0.8571	0.0	No	2.729	0.001	2.0	NoResponse	-1	3.847	n/a	2	6	ButtonPress	Loss	False
70.917	0.34	Lose2	0.8571	0.004	No	2.729	-0.004	n/a	NoResponse	-1	n/a	n/a	2	6	Target	Loss	False
71.268	0.36	Lose2	0.8571	n/a	No	2.729	n/a	n/a	NoResponse	-1	n/a	n/a	2	6	Blank	Loss	False
71.619	1.45	Lose2	0.8571	n/a	No	2.729	n/a	5.0	NoResponse	-1	0.013	70.632	2	6	Feedback	Loss	False
73.073	2.729	Lose2	0.8571	n/a	No	2.729	n/a	n/a	NoResponse	-1	0.0	n/a	2	6	ISIslide	Loss	False
75.815	0.25	Lose2	0.875	0.0	Yes	4.035	0.015	2.0	GoodResponse	0	0.207	75.022	2	7	Cue	AvoidedLoss	False
76.022	0.3	Lose2	0.875	0.0	Yes	4.035	0.015	2.0	GoodResponse	0	0.207	n/a	2	7	ButtonPress	AvoidedLoss	False
76.066	4.05	Lose2	0.875	0.0	Yes	4.035	0.001	n/a	GoodResponse	0	n/a	n/a	2	7	Fixation	AvoidedLoss	False
80.111	0.33	Lose2	0.875	0.004	Yes	4.035	-0.004	2.0	GoodResponse	0	0.187	79.298	2	7	Target	AvoidedLoss	False
80.298	0.3	Lose2	0.875	0.004	Yes	4.035	-0.004	2.0	GoodResponse	0	0.187	n/a	2	7	ButtonPress	AvoidedLoss	False
80.445	0.37	Lose2	0.875	n/a	Yes	4.035	n/a	n/a	GoodResponse	0	n/a	n/a	2	7	Blank	AvoidedLoss	False
80.813	1.45	Lose2	0.875	n/a	Yes	4.035	n/a	5.0	GoodResponse	0	0.039	79.852	2	7	Feedback	AvoidedLoss	False
82.268	4.035	Lose2	0.875	n/a	Yes	4.035	n/a	n/a	GoodResponse	0	0.0	n/a	2	7	ISIslide	AvoidedLoss	False
86.33	0.25	Lose2	0.8889	0.0	Yes	3.02	0.03	n/a	GoodResponse	0	n/a	n/a	2	8	Cue	AvoidedLoss	False
86.58	3.95	Lose2	0.8889	0.001	Yes	3.02	0.0	2.0	GoodResponse	0	0.135	85.715	2	8	Fixation	AvoidedLoss	False
86.715	0.3	Lose2	0.8889	0.001	Yes	3.02	0.0	2.0	GoodResponse	0	0.135	n/a	2	8	ButtonPress	AvoidedLoss	False
90.526	0.32	Lose2	0.8889	0.004	Yes	3.02	-0.004	2.0	GoodResponse	0	0.195	89.721	2	8	Target	AvoidedLoss	False
90.721	0.3	Lose2	0.8889	0.004	Yes	3.02	-0.004	2.0	GoodResponse	0	0.195	n/a	2	8	ButtonPress	AvoidedLoss	False
90.86	0.38	Lose2	0.8889	n/a	Yes	3.02	n/a	n/a	GoodResponse	0	n/a	n/a	2	8	Blank	AvoidedLoss	False
91.228	1.45	Lose2	0.8889	n/a	Yes	3.02	n/a	5.0	GoodResponse	0	0.014	90.242	2	8	Feedback	AvoidedLoss	False
92.682	3.02	Lose2	0.8889	n/a	Yes	3.02	n/a	n/a	GoodResponse	0	0.0	n/a	2	8	ISIslide	AvoidedLoss	False
95.724	0.25	Lose2	0.9	0.001	Yes	3.126	0.024	n/a	GoodResponse	0	n/a	n/a	2	9	Cue	AvoidedLoss	False
95.975	3.95	Lose2	0.9	0.0	Yes	3.126	0.001	2.0	GoodResponse	0	0.188	95.163	2	9	Fixation	AvoidedLoss	False
96.163	0.3	Lose2	0.9	0.0	Yes	3.126	0.001	2.0	GoodResponse	0	0.188	n/a	2	9	ButtonPress	AvoidedLoss	False
99.92	0.31	Lose2	0.9	0.004	Yes	3.126	-0.004	2.0	GoodResponse	0	0.187	99.107	2	9	Target	AvoidedLoss	False
100.107	0.3	Lose2	0.9	0.004	Yes	3.126	-0.004	2.0	GoodResponse	0	0.187	n/a	2	9	ButtonPress	AvoidedLoss	False
100.238	0.39	Lose2	0.9	n/a	Yes	3.126	n/a	n/a	GoodResponse	0	n/a	n/a	2	9	Blank	AvoidedLoss	False
100.622	1.45	Lose2	0.9	n/a	Yes	3.126	n/a	5.0	GoodResponse	0	0.035	99.657	2	9	Feedback	AvoidedLoss	False
102.077	3.126	Lose2	0.9	n/a	Yes	3.126	n/a	n/a	GoodResponse	0	0.0	n/a	2	9	ISIslide	AvoidedLoss	False
105.22	0.25	Control	0.9091	0.0	Yes	3.28	0.02	2.0	GoodResponse	0	0.2	104.42	2	10	Cue	Neutral	False
105.42	0.3	Control	0.9091	0.0	Yes	3.28	0.02	2.0	GoodResponse	0	0.2	n/a	2	10	ButtonPress	Neutral	False
105.47	4.0	Control	0.9091	0.0	Yes	3.28	0.0	n/a	GoodResponse	0	n/a	n/a	2	10	Fixation	Neutral	False
109.466	0.3	Control	0.9091	0.004	Yes	3.28	-0.004	2.0	GoodResponse	0	0.167	108.633	2	10	Target	Neutral	False
109.633	0.3	Control	0.9091	0.004	Yes	3.28	-0.004	2.0	GoodResponse	0	0.167	n/a	2	10	ButtonPress	Neutral	False
109.766	0.4	Control	0.9091	n/a	Yes	3.28	n/a	n/a	GoodResponse	0	n/a	n/a	2	10	Blank	Neutral	False
110.168	1.45	Control	0.9091	n/a	Yes	3.28	n/a	5.0	GoodResponse	0	0.0	109.168	2	10	Feedback	Neutral	False
111.622	3.28	Control	0.9091	n/a	Yes	3.28	n/a	n/a	GoodResponse	0	0.0	n/a	2	10	ISIslide	Neutral	False
114.915	0.25	Lose2	0.9167000000000001	0.0	Yes	2.735	0.015	2.0	GoodResponse	0	0.207	114.122	2	11	Cue	AvoidedLoss	False
115.122	0.3	Lose2	0.9167000000000001	0.0	Yes	2.735	0.015	2.0	GoodResponse	0	0.207	n/a	2	11	ButtonPress	AvoidedLoss	False
115.166	4.05	Lose2	0.9167000000000001	0.0	Yes	2.735	0.001	n/a	GoodResponse	0	n/a	n/a	2	11	Fixation	AvoidedLoss	False
119.211	0.29	Lose2	0.9167000000000001	0.004	Yes	2.735	-0.004	2.0	GoodResponse	0	0.139	118.35	2	11	Target	AvoidedLoss	False
119.35	0.3	Lose2	0.9167000000000001	0.004	Yes	2.735	-0.004	2.0	GoodResponse	0	0.139	n/a	2	11	ButtonPress	AvoidedLoss	False
119.512	0.41	Lose2	0.9167000000000001	n/a	Yes	2.735	n/a	n/a	GoodResponse	0	n/a	n/a	2	11	Blank	AvoidedLoss	False
119.913	1.45	Lose2	0.9167000000000001	n/a	Yes	2.735	n/a	5.0	GoodResponse	0	0.011	118.924	2	11	Feedback	AvoidedLoss	False
121.368	2.735	Lose2	0.9167000000000001	n/a	Yes	2.735	n/a	n/a	GoodResponse	0	0.0	n/a	2	11	ISIslide	AvoidedLoss	False
124.126	0.25	Control	0.9231	0.0	Yes	2.974	0.026	2.0	GoodResponse	0	0.185	123.311	2	12	Cue	Neutral	False
124.311	0.3	Control	0.9231	0.0	Yes	2.974	0.026	2.0	GoodResponse	0	0.185	n/a	2	12	ButtonPress	Neutral	False
124.377	3.9	Control	0.9231	0.0	Yes	2.974	0.001	n/a	GoodResponse	0	n/a	n/a	2	12	Fixation	Neutral	False
128.272	0.28	Control	0.9231	0.004	Yes	2.974	-0.004	2.0	GoodResponse	0	0.198	127.47	2	12	Target	Neutral	False
128.47	0.3	Control	0.9231	0.004	Yes	2.974	-0.004	2.0	GoodResponse	0	0.198	n/a	2	12	ButtonPress	Neutral	False
128.556	0.42	Control	0.9231	n/a	Yes	2.974	n/a	n/a	GoodResponse	0	n/a	n/a	2	12	Blank	Neutral	False
128.974	1.45	Control	0.9231	n/a	Yes	2.974	n/a	5.0	GoodResponse	0	0.024	127.998	2	12	Feedback	Neutral	False
130.428	2.974	Control	0.9231	n/a	Yes	2.974	n/a	n/a	GoodResponse	0	0.0	n/a	2	12	ISIslide	Neutral	False
133.421	0.25	Control	0.9286	0.0	Yes	2.779	0.021	2.0	GoodResponse	0	0.207	132.628	2	13	Cue	Neutral	False
133.628	0.3	Control	0.9286	0.0	Yes	2.779	0.021	2.0	GoodResponse	0	0.207	n/a	2	13	ButtonPress	Neutral	False
133.671	4.0	Control	0.9286	0.0	Yes	2.779	0.0	n/a	GoodResponse	0	n/a	n/a	2	13	Fixation	Neutral	False
137.667	0.27	Control	0.9286	0.004	Yes	2.779	-0.004	2.0	GoodResponse	0	0.123	136.79	2	13	Target	Neutral	False
137.79	0.3	Control	0.9286	0.004	Yes	2.779	-0.004	2.0	GoodResponse	0	0.123	n/a	2	13	ButtonPress	Neutral	False
137.951	0.43	Control	0.9286	n/a	Yes	2.779	n/a	n/a	GoodResponse	0	n/a	n/a	2	13	Blank	Neutral	False
138.369	1.45	Control	0.9286	n/a	Yes	2.779	n/a	5.0	GoodResponse	0	0.043	137.412	2	13	Feedback	Neutral	False
139.823	2.779	Control	0.9286	n/a	Yes	2.779	n/a	n/a	GoodResponse	0	0.0	n/a	2	13	ISIslide	Neutral	False
142.615	0.25	Win2	0.9333	0.0	Yes	2.685	0.015	2.0	GoodResponse	1	0.218	141.833	3	14	Cue	Win	False
142.833	0.3	Win2	0.9333	0.0	Yes	2.685	0.015	2.0	GoodResponse	1	0.218	n/a	3	14	ButtonPress	Win	False
142.865	4.1	Win2	0.9333	0.0	Yes	2.685	0.0	n/a	GoodResponse	1	n/a	n/a	3	14	Fixation	Win	False
146.961	0.26	Win2	0.9333	0.004	Yes	2.685	-0.004	2.0	GoodResponse	1	0.2	146.161	3	14	Target	Win	False
147.161	0.3	Win2	0.9333	0.004	Yes	2.685	-0.004	2.0	GoodResponse	1	0.2	n/a	3	14	ButtonPress	Win	False
147.228	0.44	Win2	0.9333	n/a	Yes	2.685	n/a	n/a	GoodResponse	1	n/a	n/a	3	14	Blank	Win	False
147.663	1.45	Win2	0.9333	n/a	Yes	2.685	n/a	5.0	GoodResponse	1	0.017	146.68	3	14	Feedback	Win	False
149.117	2.685	Win2	0.9333	n/a	Yes	2.685	n/a	n/a	GoodResponse	1	0.0	n/a	3	14	ISIslide	Win	False
151.826	0.25	Control	0.9375	0.0	Yes	2.974	0.026	n/a	GoodResponse	0	n/a	n/a	3	15	Cue	Neutral	False
152.076	4.0	Control	0.9375	0.0	Yes	2.974	0.0	2.0	GoodResponse	0	0.011	151.087	3	15	Fixation	Neutral	False
152.087	0.3	Control	0.9375	0.0	Yes	2.974	0.0	2.0	GoodResponse	0	0.011	n/a	3	15	ButtonPress	Neutral	False
156.072	0.25	Control	0.9375	0.004	Yes	2.974	-0.004	2.0	GoodResponse	0	0.189	155.261	3	15	Target	Neutral	False
156.261	0.3	Control	0.9375	0.004	Yes	2.974	-0.004	2.0	GoodResponse	0	0.189	n/a	3	15	ButtonPress	Neutral	False
156.322	0.45	Control	0.9375	n/a	Yes	2.974	n/a	n/a	GoodResponse	0	n/a	n/a	3	15	Blank	Neutral	False
156.774	1.45	Control	0.9375	n/a	Yes	2.974	n/a	5.0	GoodResponse	0	0.028	155.802	3	15	Feedback	Neutral	False
158.228	2.974	Control	0.9375	n/a	Yes	2.974	n/a	n/a	GoodResponse	0	0.0	n/a	3	15	ISIslide	Neutral	False
161.22	0.25	Win2	0.9412	0.0	Yes	2.88	0.02	2.0	GoodResponse	1	0.207	160.427	4	16	Cue	Win	False
161.427	0.3	Win2	0.9412	0.0	Yes	2.88	0.02	2.0	GoodResponse	1	0.207	n/a	4	16	ButtonPress	Win	False
161.471	4.0	Win2	0.9412	0.0	Yes	2.88	0.001	n/a	GoodResponse	1	n/a	n/a	4	16	Fixation	Win	False
165.466	0.24	Win2	0.9412	0.004	Yes	2.88	-0.004	2.0	GoodResponse	1	0.185	164.651	4	16	Target	Win	False
165.651	0.3	Win2	0.9412	0.004	Yes	2.88	-0.004	2.0	GoodResponse	1	0.185	n/a	4	16	ButtonPress	Win	False
165.717	0.46	Win2	0.9412	n/a	Yes	2.88	n/a	n/a	GoodResponse	1	n/a	n/a	4	16	Blank	Win	False
166.168	1.45	Win2	0.9412	n/a	Yes	2.88	n/a	5.0	GoodResponse	1	0.049	165.217	4	16	Feedback	Win	False
167.623	2.88	Win2	0.9412	n/a	Yes	2.88	n/a	n/a	GoodResponse	1	0.0	n/a	4	16	ISIslide	Win	False
170.515	0.25	Lose2	0.8889	0.0	No	2.735	0.015	2.0	NoResponse	-1	0.171	169.686	3	17	Cue	Loss	False
170.686	0.3	Lose2	0.8889	0.0	No	2.735	0.015	2.0	NoResponse	-1	0.171	n/a	3	17	ButtonPress	Loss	False
170.765	3.95	Lose2	0.8889	0.001	No	2.735	0.0	n/a	NoResponse	-1	n/a	n/a	3	17	Fixation	Loss	False
174.711	0.23	Lose2	0.8889	0.004	No	2.735	-0.004	2.0	NoResponse	-1	0.24	173.951	3	17	Target	Loss	False
174.945	0.47	Lose2	0.8889	n/a	No	2.735	n/a	n/a	NoResponse	-1	n/a	n/a	3	17	Blank	Loss	False
174.951	0.3	Lose2	0.8889	0.004	No	2.735	-0.004	2.0	NoResponse	-1	0.24	n/a	3	17	ButtonPress	Loss	False
175.413	1.45	Lose2	0.8889	n/a	No	2.735	n/a	5.0	NoResponse	-1	0.023	174.436	3	17	Feedback	Loss	False
176.867	2.735	Lose2	0.8889	n/a	No	2.735	n/a	n/a	NoResponse	-1	0.0	n/a	3	17	ISIslide	Loss	False
179.625	0.25	Lose2	0.8946999999999999	0.0	Yes	2.725	0.025	2.0	GoodResponse	0	0.205	178.83	3	18	Cue	AvoidedLoss	False
179.83	0.3	Lose2	0.8946999999999999	0.0	Yes	2.725	0.025	2.0	GoodResponse	0	0.205	n/a	3	18	ButtonPress	AvoidedLoss	False
179.876	4.05	Lose2	0.8946999999999999	0.0	Yes	2.725	0.001	n/a	GoodResponse	0	n/a	n/a	3	18	Fixation	AvoidedLoss	False
183.921	0.22	Lose2	0.8946999999999999	0.004	Yes	2.725	-0.004	2.0	GoodResponse	0	0.137	183.058	3	18	Target	AvoidedLoss	False
184.058	0.3	Lose2	0.8946999999999999	0.004	Yes	2.725	-0.004	2.0	GoodResponse	0	0.137	n/a	3	18	ButtonPress	AvoidedLoss	False
184.156	0.48	Lose2	0.8946999999999999	n/a	Yes	2.725	n/a	n/a	GoodResponse	0	n/a	n/a	3	18	Blank	AvoidedLoss	False
184.624	1.45	Lose2	0.8946999999999999	n/a	Yes	2.725	n/a	5.0	GoodResponse	0	0.032	183.656	3	18	Feedback	AvoidedLoss	False
186.078	2.725	Lose2	0.8946999999999999	n/a	Yes	2.725	n/a	n/a	GoodResponse	0	0.0	n/a	3	18	ISIslide	AvoidedLoss	False
188.819	0.25	Control	0.9	0.001	Yes	2.931	0.019	2.0	GoodResponse	0	0.199	188.018	3	19	Cue	Neutral	False
189.018	0.3	Control	0.9	0.001	Yes	2.931	0.019	2.0	GoodResponse	0	0.199	n/a	3	19	ButtonPress	Neutral	False
189.07	3.95	Control	0.9	0.0	Yes	2.931	0.001	n/a	GoodResponse	0	n/a	n/a	3	19	Fixation	Neutral	False
193.015	0.21	Control	0.9	0.004	Yes	2.931	-0.004	2.0	GoodResponse	0	0.18	192.195	3	19	Target	Neutral	False
193.195	0.3	Control	0.9	0.004	Yes	2.931	-0.004	2.0	GoodResponse	0	0.18	n/a	3	19	ButtonPress	Neutral	False
193.233	0.49	Control	0.9	n/a	Yes	2.931	n/a	n/a	GoodResponse	0	n/a	n/a	3	19	Blank	Neutral	False
193.717	1.45	Control	0.9	n/a	Yes	2.931	n/a	5.0	GoodResponse	0	0.011	192.728	3	19	Feedback	Neutral	False
195.172	2.931	Control	0.9	n/a	Yes	2.931	n/a	n/a	GoodResponse	0	0.0	n/a	3	19	ISIslide	Neutral	False
198.114	0.25	Control	0.9048	0.0	Yes	2.636	0.014	n/a	GoodResponse	0	n/a	n/a	3	20	Cue	Neutral	False
198.365	4.05	Control	0.9048	0.0	Yes	2.636	0.001	2.0	GoodResponse	0	0.083	197.448	3	20	Fixation	Neutral	False
198.448	0.3	Control	0.9048	0.0	Yes	2.636	0.001	2.0	GoodResponse	0	0.083	n/a	3	20	ButtonPress	Neutral	False
202.41	0.2	Control	0.9048	0.004	Yes	2.636	-0.004	2.0	GoodResponse	0	0.186	201.596	3	20	Target	Neutral	False
202.596	0.3	Control	0.9048	0.004	Yes	2.636	-0.004	2.0	GoodResponse	0	0.186	n/a	3	20	ButtonPress	Neutral	False
202.611	0.5	Control	0.9048	n/a	Yes	2.636	n/a	n/a	GoodResponse	0	n/a	n/a	3	20	Blank	Neutral	False
203.112	1.45	Control	0.9048	n/a	Yes	2.636	n/a	5.0	GoodResponse	0	0.031	202.143	3	20	Feedback	Neutral	False
204.567	2.636	Control	0.9048	n/a	Yes	2.636	n/a	n/a	GoodResponse	0	0.0	n/a	3	20	ISIslide	Neutral	False
207.224	0.25	Control	0.9091	0.001	Yes	2.776	0.024	2.0	GoodResponse	0	0.248	206.472	3	21	Cue	Neutral	False
207.472	0.3	Control	0.9091	0.001	Yes	2.776	0.024	2.0	GoodResponse	0	0.248	n/a	3	21	ButtonPress	Neutral	False
207.475	4.1	Control	0.9091	0.0	Yes	2.776	0.001	n/a	GoodResponse	0	n/a	n/a	3	21	Fixation	Neutral	False
211.571	0.19	Control	0.9091	0.003	Yes	2.776	-0.003	2.0	GoodResponse	0	0.187	210.758	3	21	Target	Neutral	False
211.758	0.3	Control	0.9091	0.003	Yes	2.776	-0.003	2.0	GoodResponse	0	0.187	n/a	3	21	ButtonPress	Neutral	False
211.771	0.51	Control	0.9091	n/a	Yes	2.776	n/a	n/a	GoodResponse	0	n/a	n/a	3	21	Blank	Neutral	False
212.273	1.45	Control	0.9091	n/a	Yes	2.776	n/a	5.0	GoodResponse	0	0.041	211.314	3	21	Feedback	Neutral	False
213.727	2.776	Control	0.9091	n/a	Yes	2.776	n/a	n/a	GoodResponse	0	0.0	n/a	3	21	ISIslide	Neutral	False
216.519	0.25	Control	0.8695999999999999	0.0	No	2.781	0.019	n/a	NoResponse	0	n/a	n/a	3	22	Cue	Neutral	False
216.77	4.0	Control	0.8695999999999999	0.0	No	2.781	0.001	2.0	NoResponse	0	0.013	215.783	3	22	Fixation	Neutral	False
216.783	0.3	Control	0.8695999999999999	0.0	No	2.781	0.001	2.0	NoResponse	0	0.013	n/a	3	22	ButtonPress	Neutral	False
220.765	0.18	Control	0.8695999999999999	0.004	No	2.781	-0.004	2.0	NoResponse	0	0.321	220.086	3	22	Target	Neutral	False
220.949	0.52	Control	0.8695999999999999	n/a	No	2.781	n/a	n/a	NoResponse	0	n/a	n/a	3	22	Blank	Neutral	False
221.086	0.3	Control	0.8695999999999999	0.004	No	2.781	-0.004	2.0	NoResponse	0	0.321	n/a	3	22	ButtonPress	Neutral	False
221.467	1.45	Control	0.8695999999999999	n/a	No	2.781	n/a	5.0	NoResponse	0	0.017	220.484	3	22	Feedback	Neutral	False
222.921	2.781	Control	0.8695999999999999	n/a	No	2.781	n/a	n/a	NoResponse	0	0.0	n/a	3	22	ISIslide	Neutral	False
225.713	0.25	Control	0.8332999999999999	0.0	No	2.787	0.013	n/a	NoResponse	0	n/a	n/a	3	23	Cue	Neutral	False
225.964	3.9	Control	0.8332999999999999	0.0	No	2.787	0.001	2.0	NoResponse	0	0.053	225.017	3	23	Fixation	Neutral	False
226.017	0.3	Control	0.8332999999999999	0.0	No	2.787	0.001	2.0	NoResponse	0	0.053	n/a	3	23	ButtonPress	Neutral	False
229.859	0.17	Control	0.8332999999999999	0.004	No	2.787	-0.004	2.0	NoResponse	0	0.225	229.084	3	23	Target	Neutral	False
230.043	0.53	Control	0.8332999999999999	n/a	No	2.787	n/a	n/a	NoResponse	0	n/a	n/a	3	23	Blank	Neutral	False
230.084	0.3	Control	0.8332999999999999	0.004	No	2.787	-0.004	2.0	NoResponse	0	0.225	n/a	3	23	ButtonPress	Neutral	False
230.561	1.45	Control	0.8332999999999999	n/a	No	2.787	n/a	5.0	NoResponse	0	0.045	229.606	3	23	Feedback	Neutral	False
232.015	2.787	Control	0.8332999999999999	n/a	No	2.787	n/a	n/a	NoResponse	0	0.0	n/a	3	23	ISIslide	Neutral	False
234.824	0.25	Win2	0.8	0.0	No	3.126	0.024	n/a	NoResponse	0	n/a	n/a	3	24	Cue	MissedWin	False
235.074	3.95	Win2	0.8	0.001	No	3.126	0.0	2.0	NoResponse	0	0.013	234.087	3	24	Fixation	MissedWin	False
235.087	0.3	Win2	0.8	0.001	No	3.126	0.0	2.0	NoResponse	0	0.013	n/a	3	24	ButtonPress	MissedWin	False
239.02	0.16	Win2	0.8	0.004	No	3.126	-0.004	2.0	NoResponse	0	0.311	238.331	3	24	Target	MissedWin	False
239.187	0.54	Win2	0.8	n/a	No	3.126	n/a	n/a	NoResponse	0	n/a	n/a	3	24	Blank	MissedWin	False
239.331	0.3	Win2	0.8	0.004	No	3.126	-0.004	2.0	NoResponse	0	0.311	n/a	3	24	ButtonPress	MissedWin	False
239.722	1.45	Win2	0.8	n/a	No	3.126	n/a	5.0	NoResponse	0	0.005	238.727	3	24	Feedback	MissedWin	False
241.176	3.126	Win2	0.8	n/a	No	3.126	n/a	n/a	NoResponse	0	0.0	n/a	3	24	ISIslide	MissedWin	False
244.319	0.25	Win2	0.7692	0.0	No	3.081	0.019	2.0	NoResponse	0	0.213	243.532	3	25	Cue	MissedWin	False
244.532	0.3	Win2	0.7692	0.0	No	3.081	0.019	2.0	NoResponse	0	0.213	n/a	3	25	ButtonPress	MissedWin	False
244.569	4.0	Win2	0.7692	0.001	No	3.081	0.0	n/a	NoResponse	0	n/a	n/a	3	25	Fixation	MissedWin	False
248.565	0.15	Win2	0.7692	0.004	No	3.081	-0.004	2.0	NoResponse	0	0.204	247.769	3	25	Target	MissedWin	False
248.715	0.55	Win2	0.7692	n/a	No	3.081	n/a	n/a	NoResponse	0	n/a	n/a	3	25	Blank	MissedWin	False
248.769	0.3	Win2	0.7692	0.004	No	3.081	-0.004	2.0	NoResponse	0	0.204	n/a	3	25	ButtonPress	MissedWin	False
249.267	1.45	Win2	0.7692	n/a	No	3.081	n/a	5.0	NoResponse	0	0.022	248.289	3	25	Feedback	MissedWin	False
250.721	3.081	Win2	0.7692	n/a	No	3.081	n/a	n/a	NoResponse	0	0.0	n/a	3	25	ISIslide	MissedWin	False
253.814	0.25	Win2	0.7406999999999999	0.0	No	2.936	0.014	2.0	LatePress	0	0.18	252.994	3	26	Cue	MissedWin	False
253.994	0.3	Win2	0.7406999999999999	0.0	No	2.936	0.014	2.0	LatePress	0	0.18	n/a	3	26	ButtonPress	MissedWin	False
254.065	3.95	Win2	0.7406999999999999	0.0	No	2.936	0.001	n/a	LatePress	0	n/a	n/a	3	26	Fixation	MissedWin	False
258.01	0.15	Win2	0.7406999999999999	0.004	No	2.936	-0.004	2.0	LatePress	0	0.152	257.162	3	26	Target	MissedWin	False
258.16	0.55	Win2	0.7406999999999999	n/a	No	2.936	n/a	n/a	LatePress	0	n/a	n/a	3	26	Blank	MissedWin	False
258.162	0.3	Win2	0.7406999999999999	0.004	No	2.936	-0.004	2.0	LatePress	0	0.152	n/a	3	26	ButtonPress	MissedWin	False
258.712	1.45	Win2	0.7406999999999999	n/a	No	2.936	n/a	5.0	LatePress	0	0.04	257.752	3	26	Feedback	MissedWin	False
260.166	2.936	Win2	0.7406999999999999	n/a	No	2.936	n/a	n/a	LatePress	0	0.0	n/a	3	26	ISIslide	MissedWin	False
263.125	0.25	Lose2	0.7143	0.0	No	2.825	0.025	n/a	NoResponse	-1	n/a	n/a	2	27	Cue	Loss	False
263.376	4.05	Lose2	0.7143	0.0	No	2.825	0.001	2.0	NoResponse	-1	0.131	262.507	2	27	Fixation	Loss	False
263.507	0.3	Lose2	0.7143	0.0	No	2.825	0.001	2.0	NoResponse	-1	0.131	n/a	2	27	ButtonPress	Loss	False
267.421	0.15	Lose2	0.7143	0.004	No	2.825	-0.004	2.0	NoResponse	-1	0.192	266.613	2	27	Target	Loss	False
267.572	0.55	Lose2	0.7143	n/a	No	2.825	n/a	n/a	NoResponse	-1	n/a	n/a	2	27	Blank	Loss	False
267.613	0.3	Lose2	0.7143	0.004	No	2.825	-0.004	2.0	NoResponse	-1	0.192	n/a	2	27	ButtonPress	Loss	False
268.123	1.45	Lose2	0.7143	n/a	No	2.825	n/a	5.0	NoResponse	-1	0.044	267.167	2	27	Feedback	Loss	False
269.578	2.825	Lose2	0.7143	n/a	No	2.825	n/a	n/a	NoResponse	-1	0.0	n/a	2	27	ISIslide	Loss	False
272.419	0.25	Control	0.6897	0.001	No	2.831	0.019	n/a	NoResponse	0	n/a	n/a	2	28	Cue	Neutral	False
272.67	4.05	Control	0.6897	0.0	No	2.831	0.001	2.0	NoResponse	0	0.105	271.775	2	28	Fixation	Neutral	False
272.775	0.3	Control	0.6897	0.0	No	2.831	0.001	2.0	NoResponse	0	0.105	n/a	2	28	ButtonPress	Neutral	False
276.716	0.15	Control	0.6897	0.003	No	2.831	-0.003	2.0	NoResponse	0	0.181	275.897	2	28	Target	Neutral	False
276.866	0.55	Control	0.6897	n/a	No	2.831	n/a	n/a	NoResponse	0	n/a	n/a	2	28	Blank	Neutral	False
276.897	0.3	Control	0.6897	0.003	No	2.831	-0.003	2.0	NoResponse	0	0.181	n/a	2	28	ButtonPress	Neutral	False
277.418	1.45	Control	0.6897	n/a	No	2.831	n/a	5.0	NoResponse	0	0.016	276.434	2	28	Feedback	Neutral	False
278.872	2.831	Control	0.6897	n/a	No	2.831	n/a	n/a	NoResponse	0	0.0	n/a	2	28	ISIslide	Neutral	False
281.714	0.25	Lose2	0.6667000000000001	0.0	No	2.836	0.014	2.0	NoResponse	-1	0.211	280.925	1	29	Cue	Loss	False
281.925	0.3	Lose2	0.6667000000000001	0.0	No	2.836	0.014	2.0	NoResponse	-1	0.211	n/a	1	29	ButtonPress	Loss	False
281.965	3.95	Lose2	0.6667000000000001	0.0	No	2.836	0.001	n/a	NoResponse	-1	n/a	n/a	1	29	Fixation	Loss	False
285.91	0.15	Lose2	0.6667000000000001	0.004	No	2.836	-0.004	2.0	NoResponse	-1	0.274	285.184	1	29	Target	Loss	False
286.06	0.55	Lose2	0.6667000000000001	n/a	No	2.836	n/a	n/a	NoResponse	-1	n/a	n/a	1	29	Blank	Loss	False
286.184	0.3	Lose2	0.6667000000000001	0.004	No	2.836	-0.004	2.0	NoResponse	-1	0.274	n/a	1	29	ButtonPress	Loss	False
286.612	1.45	Lose2	0.6667000000000001	n/a	No	2.836	n/a	5.0	NoResponse	-1	0.042	285.654	1	29	Feedback	Loss	False
288.066	2.836	Lose2	0.6667000000000001	n/a	No	2.836	n/a	n/a	NoResponse	-1	0.0	n/a	1	29	ISIslide	Loss	False
290.925	0.25	Win2	0.6452	0.0	No	2.775	0.025	n/a	NoResponse	0	n/a	n/a	1	30	Cue	MissedWin	True
291.175	3.9	Win2	0.6452	0.001	No	2.775	0.0	2.0	NoResponse	0	0.049	290.224	1	30	Fixation	MissedWin	True
291.224	0.3	Win2	0.6452	0.001	No	2.775	0.0	2.0	NoResponse	0	0.049	n/a	1	30	ButtonPress	MissedWin	True
295.07	0.15	Win2	0.6452	0.005	No	2.775	-0.005	n/a	NoResponse	0	n/a	n/a	1	30	Target	MissedWin	True
295.221	0.55	Win2	0.6452	n/a	No	2.775	n/a	n/a	NoResponse	0	n/a	n/a	1	30	Blank	MissedWin	True
295.773	1.45	Win2	0.6452	n/a	No	2.775	n/a	5.0	NoResponse	0	0.005	294.778	1	30	Feedback	MissedWin	True
297.227	2.775	Win2	0.6452	n/a	No	2.775	n/a	n/a	NoResponse	0	0.0	n/a	1	30	ISIslide	MissedWin	True
300.019	0.25	Lose2	0.625	0.0	No	2.831	0.019	2.0	NoResponse	-1	0.223	299.242	0	31	Cue	Loss	False
300.242	0.3	Lose2	0.625	0.0	No	2.831	0.019	2.0	NoResponse	-1	0.223	n/a	0	31	ButtonPress	Loss	False
300.269	4.05	Lose2	0.625	0.0	No	2.831	0.0	n/a	NoResponse	-1	n/a	n/a	0	31	Fixation	Loss	False
304.315	0.16	Lose2	0.625	0.004	No	2.831	-0.004	2.0	NoResponse	-1	0.189	303.504	0	31	Target	Loss	False
304.482	0.54	Lose2	0.625	n/a	No	2.831	n/a	n/a	NoResponse	-1	n/a	n/a	0	31	Blank	Loss	False
304.504	0.3	Lose2	0.625	0.004	No	2.831	-0.004	2.0	NoResponse	-1	0.189	n/a	0	31	ButtonPress	Loss	False
305.017	1.45	Lose2	0.625	n/a	No	2.831	n/a	5.0	NoResponse	-1	0.027	304.044	0	31	Feedback	Loss	False
306.471	2.831	Lose2	0.625	n/a	No	2.831	n/a	n/a	NoResponse	-1	0.0	n/a	0	31	ISIslide	Loss	False
309.33	0.25	Lose2	0.6061	0.0	No	2.62	0.03	n/a	LatePress	-1	n/a	n/a	-1	32	Cue	Loss	False
309.581	4.15	Lose2	0.6061	0.0	No	2.62	0.001	2.0	LatePress	-1	0.02	308.601	-1	32	Fixation	Loss	False
309.601	0.3	Lose2	0.6061	0.0	No	2.62	0.001	2.0	LatePress	-1	0.02	n/a	-1	32	ButtonPress	Loss	False
313.726	0.17	Lose2	0.6061	0.004	No	2.62	-0.004	2.0	LatePress	-1	0.184	312.91	-1	32	Target	Loss	False
313.91	0.53	Lose2	0.6061	n/a	No	2.62	n/a	n/a	LatePress	-1	n/a	n/a	-1	32	Blank	Loss	False
313.91	0.3	Lose2	0.6061	0.004	No	2.62	-0.004	2.0	LatePress	-1	0.184	n/a	-1	32	ButtonPress	Loss	False
314.428	1.45	Lose2	0.6061	n/a	No	2.62	n/a	5.0	LatePress	-1	0.031	313.459	-1	32	Feedback	Loss	False
315.883	2.62	Lose2	0.6061	n/a	No	2.62	n/a	n/a	LatePress	-1	0.0	n/a	-1	32	ISIslide	Loss	False
318.524	0.25	Win2	0.5882000000000001	0.0	No	2.676	0.024	2.0	NoResponse	0	0.238	317.762	-1	33	Cue	MissedWin	False
318.762	0.3	Win2	0.5882000000000001	0.0	No	2.676	0.024	2.0	NoResponse	0	0.238	n/a	-1	33	ButtonPress	MissedWin	False
318.775	4.0	Win2	0.5882000000000001	0.0	No	2.676	0.001	n/a	NoResponse	0	n/a	n/a	-1	33	Fixation	MissedWin	False
322.77	0.18	Win2	0.5882000000000001	0.004	No	2.676	-0.004	2.0	NoResponse	0	0.197	321.967	-1	33	Target	MissedWin	False
322.954	0.52	Win2	0.5882000000000001	n/a	No	2.676	n/a	n/a	NoResponse	0	n/a	n/a	-1	33	Blank	MissedWin	False
322.967	0.3	Win2	0.5882000000000001	0.004	No	2.676	-0.004	2.0	NoResponse	0	0.197	n/a	-1	33	ButtonPress	MissedWin	False
323.472	1.45	Win2	0.5882000000000001	n/a	No	2.676	n/a	5.0	NoResponse	0	0.01	322.482	-1	33	Feedback	MissedWin	False
324.926	2.676	Win2	0.5882000000000001	n/a	No	2.676	n/a	n/a	NoResponse	0	0.0	n/a	-1	33	ISIslide	MissedWin	False
327.618	0.25	Lose2	0.6	0.0	Yes	2.632	0.018	2.0	GoodResponse	0	0.098	326.716	-1	34	Cue	AvoidedLoss	False
327.716	0.3	Lose2	0.6	0.0	Yes	2.632	0.018	2.0	GoodResponse	0	0.098	n/a	-1	34	ButtonPress	AvoidedLoss	False
327.869	4.05	Lose2	0.6	0.0	Yes	2.632	0.001	n/a	GoodResponse	0	n/a	n/a	-1	34	Fixation	AvoidedLoss	False
331.914	0.19	Lose2	0.6	0.004	Yes	2.632	-0.004	2.0	GoodResponse	0	0.186	331.1	-1	34	Target	AvoidedLoss	False
332.1	0.3	Lose2	0.6	0.004	Yes	2.632	-0.004	2.0	GoodResponse	0	0.186	n/a	-1	34	ButtonPress	AvoidedLoss	False
332.115	0.51	Lose2	0.6	n/a	Yes	2.632	n/a	n/a	GoodResponse	0	n/a	n/a	-1	34	Blank	AvoidedLoss	False
332.616	1.45	Lose2	0.6	n/a	Yes	2.632	n/a	5.0	GoodResponse	0	0.037	331.653	-1	34	Feedback	AvoidedLoss	False
334.07	2.632	Lose2	0.6	n/a	Yes	2.632	n/a	n/a	GoodResponse	0	0.0	n/a	-1	34	ISIslide	AvoidedLoss	False
336.728	0.25	Lose2	0.6111	0.0	Yes	2.672	0.028	n/a	GoodResponse	0	n/a	n/a	-1	35	Cue	AvoidedLoss	False
336.979	4.0	Lose2	0.6111	0.0	Yes	2.672	0.001	2.0	GoodResponse	0	0.156	336.135	-1	35	Fixation	AvoidedLoss	False
337.135	0.3	Lose2	0.6111	0.0	Yes	2.672	0.001	2.0	GoodResponse	0	0.156	n/a	-1	35	ButtonPress	AvoidedLoss	False
340.974	0.2	Lose2	0.6111	0.004	Yes	2.672	-0.004	2.0	GoodResponse	0	0.148	340.122	-1	35	Target	AvoidedLoss	False
341.122	0.3	Lose2	0.6111	0.004	Yes	2.672	-0.004	2.0	GoodResponse	0	0.148	n/a	-1	35	ButtonPress	AvoidedLoss	False
341.175	0.5	Lose2	0.6111	n/a	Yes	2.672	n/a	n/a	GoodResponse	0	n/a	n/a	-1	35	Blank	AvoidedLoss	False
341.677	1.45	Lose2	0.6111	n/a	Yes	2.672	n/a	5.0	GoodResponse	0	0.001	340.678	-1	35	Feedback	AvoidedLoss	False
343.131	2.672	Lose2	0.6111	n/a	Yes	2.672	n/a	n/a	GoodResponse	0	0.0	n/a	-1	35	ISIslide	AvoidedLoss	False
345.822	0.25	Control	0.6215999999999999	0.0	Yes	2.678	0.022	2.0	GoodResponse	0	0.209	345.031	-1	36	Cue	Neutral	False
346.031	0.3	Control	0.6215999999999999	0.0	Yes	2.678	0.022	2.0	GoodResponse	0	0.209	n/a	-1	36	ButtonPress	Neutral	False
346.073	4.0	Control	0.6215999999999999	0.0	Yes	2.678	0.001	n/a	GoodResponse	0	n/a	n/a	-1	36	Fixation	Neutral	False
350.068	0.21	Control	0.6215999999999999	0.004	Yes	2.678	-0.004	2.0	GoodResponse	0	0.121	349.189	-1	36	Target	Neutral	False
350.189	0.3	Control	0.6215999999999999	0.004	Yes	2.678	-0.004	2.0	GoodResponse	0	0.121	n/a	-1	36	ButtonPress	Neutral	False
350.286	0.49	Control	0.6215999999999999	n/a	Yes	2.678	n/a	n/a	GoodResponse	0	n/a	n/a	-1	36	Blank	Neutral	False
350.77	1.45	Control	0.6215999999999999	n/a	Yes	2.678	n/a	5.0	GoodResponse	0	0.03	349.8	-1	36	Feedback	Neutral	False
352.225	2.678	Control	0.6215999999999999	n/a	Yes	2.678	n/a	n/a	GoodResponse	0	0.0	n/a	-1	36	ISIslide	Neutral	False
354.916	0.25	Win2	0.6315999999999999	0.0	Yes	2.884	0.016	n/a	GoodResponse	1	n/a	n/a	0	37	Cue	Win	False
355.167	4.0	Win2	0.6315999999999999	0.0	Yes	2.884	0.001	2.0	GoodResponse	1	0.012	354.179	0	37	Fixation	Win	False
355.179	0.3	Win2	0.6315999999999999	0.0	Yes	2.884	0.001	2.0	GoodResponse	1	0.012	n/a	0	37	ButtonPress	Win	False
359.162	0.22	Win2	0.6315999999999999	0.004	Yes	2.884	-0.004	2.0	GoodResponse	1	0.201	358.363	0	37	Target	Win	False
359.363	0.3	Win2	0.6315999999999999	0.004	Yes	2.884	-0.004	2.0	GoodResponse	1	0.201	n/a	0	37	ButtonPress	Win	False
359.396	0.48	Win2	0.6315999999999999	n/a	Yes	2.884	n/a	n/a	GoodResponse	1	n/a	n/a	0	37	Blank	Win	False
359.864	1.45	Win2	0.6315999999999999	n/a	Yes	2.884	n/a	5.0	GoodResponse	1	0.009	358.873	0	37	Feedback	Win	False
361.319	2.884	Win2	0.6315999999999999	n/a	Yes	2.884	n/a	n/a	GoodResponse	1	0.0	n/a	0	37	ISIslide	Win	False
364.227	0.25	Lose2	0.6154	0.0	No	2.823	0.027	n/a	NoResponse	-1	n/a	n/a	-1	38	Cue	Loss	True
364.478	3.95	Lose2	0.6154	0.0	No	2.823	0.001	n/a	NoResponse	-1	n/a	n/a	-1	38	Fixation	Loss	True
368.423	0.23	Lose2	0.6154	0.004	No	2.823	-0.004	2.0	NoResponse	-1	0.263	367.686	-1	38	Target	Loss	True
368.657	0.47	Lose2	0.6154	n/a	No	2.823	n/a	n/a	NoResponse	-1	n/a	n/a	-1	38	Blank	Loss	True
368.686	0.3	Lose2	0.6154	0.004	No	2.823	-0.004	2.0	NoResponse	-1	0.263	n/a	-1	38	ButtonPress	Loss	True
369.125	1.45	Lose2	0.6154	n/a	No	2.823	n/a	5.0	NoResponse	-1	0.015	368.14	-1	38	Feedback	Loss	True
370.58	2.823	Lose2	0.6154	n/a	No	2.823	n/a	n/a	NoResponse	-1	0.0	n/a	-1	38	ISIslide	Loss	True
373.421	0.25	Win2	0.625	0.0	Yes	2.979	0.021	2.0	GoodResponse	1	0.199	372.62	0	39	Cue	Win	False
373.62	0.3	Win2	0.625	0.0	Yes	2.979	0.021	2.0	GoodResponse	1	0.199	n/a	0	39	ButtonPress	Win	False
373.672	4.1	Win2	0.625	0.0	Yes	2.979	0.001	n/a	GoodResponse	1	n/a	n/a	0	39	Fixation	Win	False
377.768	0.24	Win2	0.625	0.003	Yes	2.979	-0.003	2.0	GoodResponse	1	0.172	376.94	0	39	Target	Win	False
377.94	0.3	Win2	0.625	0.003	Yes	2.979	-0.003	2.0	GoodResponse	1	0.172	n/a	0	39	ButtonPress	Win	False
378.018	0.46	Win2	0.625	n/a	Yes	2.979	n/a	n/a	GoodResponse	1	n/a	n/a	0	39	Blank	Win	False
378.47	1.45	Win2	0.625	n/a	Yes	2.979	n/a	5.0	GoodResponse	1	0.036	377.506	0	39	Feedback	Win	False
379.924	2.979	Win2	0.625	n/a	Yes	2.979	n/a	n/a	GoodResponse	1	0.0	n/a	0	39	ISIslide	Win	False
382.916	0.25	Win2	0.6098	0.001	No	2.734	0.016	2.0	NoResponse	0	0.191	382.107	0	40	Cue	MissedWin	False
383.107	0.3	Win2	0.6098	0.001	No	2.734	0.016	2.0	NoResponse	0	0.191	n/a	0	40	ButtonPress	MissedWin	False
383.167	3.95	Win2	0.6098	0.0	No	2.734	0.001	2.0	NoResponse	0	3.844	386.011	0	40	Fixation	MissedWin	False
387.011	0.3	Win2	0.6098	0.0	No	2.734	0.001	2.0	NoResponse	0	3.844	n/a	0	40	ButtonPress	MissedWin	False
387.112	0.25	Win2	0.6098	0.004	No	2.734	-0.004	n/a	NoResponse	0	n/a	n/a	0	40	Target	MissedWin	False
387.363	0.45	Win2	0.6098	n/a	No	2.734	n/a	n/a	NoResponse	0	n/a	n/a	0	40	Blank	MissedWin	False
387.814	1.45	Win2	0.6098	n/a	No	2.734	n/a	5.0	NoResponse	0	0.01	386.824	0	40	Feedback	MissedWin	False
389.269	2.734	Win2	0.6098	n/a	No	2.734	n/a	n/a	NoResponse	0	0.0	n/a	0	40	ISIslide	MissedWin	False
392.027	0.25	Win2	0.619	0.0	Yes	2.773	0.027	2.0	GoodResponse	1	0.234	391.261	1	41	Cue	Win	False
392.261	0.3	Win2	0.619	0.0	Yes	2.773	0.027	2.0	GoodResponse	1	0.234	n/a	1	41	ButtonPress	Win	False
392.278	3.9	Win2	0.619	0.0	Yes	2.773	0.001	n/a	GoodResponse	1	n/a	n/a	1	41	Fixation	Win	False
396.173	0.26	Win2	0.619	0.004	Yes	2.773	-0.004	2.0	GoodResponse	1	0.202	395.375	1	41	Target	Win	False
396.375	0.3	Win2	0.619	0.004	Yes	2.773	-0.004	2.0	GoodResponse	1	0.202	n/a	1	41	ButtonPress	Win	False
396.44	0.44	Win2	0.619	n/a	Yes	2.773	n/a	n/a	GoodResponse	1	n/a	n/a	1	41	Blank	Win	False
396.875	1.45	Win2	0.619	n/a	Yes	2.773	n/a	5.0	GoodResponse	1	0.022	395.897	1	41	Feedback	Win	False
398.329	2.773	Win2	0.619	n/a	Yes	2.773	n/a	n/a	GoodResponse	1	0.0	n/a	1	41	ISIslide	Win	False
401.121	0.25	Control	0.6279	0.0	Yes	2.929	0.021	n/a	GoodResponse	0	n/a	n/a	1	42	Cue	Neutral	False
401.372	3.85	Control	0.6279	0.0	Yes	2.929	0.001	2.0	GoodResponse	0	0.087	400.459	1	42	Fixation	Neutral	False
401.459	0.3	Control	0.6279	0.0	Yes	2.929	0.001	2.0	GoodResponse	0	0.087	n/a	1	42	ButtonPress	Neutral	False
405.216	0.27	Control	0.6279	0.005	Yes	2.929	-0.005	2.0	GoodResponse	0	0.176	404.392	1	42	Target	Neutral	False
405.392	0.3	Control	0.6279	0.005	Yes	2.929	-0.005	2.0	GoodResponse	0	0.176	n/a	1	42	ButtonPress	Neutral	False
405.501	0.43	Control	0.6279	n/a	Yes	2.929	n/a	n/a	GoodResponse	0	n/a	n/a	1	42	Blank	Neutral	False
405.919	1.45	Control	0.6279	n/a	Yes	2.929	n/a	5.0	GoodResponse	0	0.001	404.92	1	42	Feedback	Neutral	False
407.373	2.929	Control	0.6279	n/a	Yes	2.929	n/a	n/a	GoodResponse	0	0.0	n/a	1	42	ISIslide	Neutral	False
410.315	0.25	Win2	0.6364	0.0	Yes	3.185	0.015	2.0	GoodResponse	1	0.197	409.512	2	43	Cue	Win	False
410.512	0.3	Win2	0.6364	0.0	Yes	3.185	0.015	2.0	GoodResponse	1	0.197	n/a	2	43	ButtonPress	Win	False
410.566	4.0	Win2	0.6364	0.0	Yes	3.185	0.001	n/a	GoodResponse	1	n/a	n/a	2	43	Fixation	Win	False
414.561	0.28	Win2	0.6364	0.004	Yes	3.185	-0.004	2.0	GoodResponse	1	0.215	413.776	2	43	Target	Win	False
414.776	0.3	Win2	0.6364	0.004	Yes	3.185	-0.004	2.0	GoodResponse	1	0.215	n/a	2	43	ButtonPress	Win	False
414.845	0.42	Win2	0.6364	n/a	Yes	3.185	n/a	n/a	GoodResponse	1	n/a	n/a	2	43	Blank	Win	False
415.263	1.45	Win2	0.6364	n/a	Yes	3.185	n/a	5.0	GoodResponse	1	0.023	414.286	2	43	Feedback	Win	False
416.718	3.185	Win2	0.6364	n/a	Yes	3.185	n/a	n/a	GoodResponse	1	0.0	n/a	2	43	ISIslide	Win	False
419.927	0.25	Win2	0.6444	0.0	Yes	2.973	0.027	2.0	GoodResponse	1	0.2	419.127	3	44	Cue	Win	False
420.127	0.3	Win2	0.6444	0.0	Yes	2.973	0.027	2.0	GoodResponse	1	0.2	n/a	3	44	ButtonPress	Win	False
420.178	4.0	Win2	0.6444	0.0	Yes	2.973	0.001	2.0	GoodResponse	1	3.664	422.842	3	44	Fixation	Win	False
423.842	0.3	Win2	0.6444	0.0	Yes	2.973	0.001	2.0	GoodResponse	1	3.664	n/a	3	44	ButtonPress	Win	False
424.173	0.29	Win2	0.6444	0.004	Yes	2.973	-0.004	2.0	GoodResponse	1	0.135	423.308	3	44	Target	Win	False
424.308	0.3	Win2	0.6444	0.004	Yes	2.973	-0.004	2.0	GoodResponse	1	0.135	n/a	3	44	ButtonPress	Win	False
424.474	0.41	Win2	0.6444	n/a	Yes	2.973	n/a	n/a	GoodResponse	1	n/a	n/a	3	44	Blank	Win	False
424.875	1.45	Win2	0.6444	n/a	Yes	2.973	n/a	5.0	GoodResponse	1	0.021	423.896	3	44	Feedback	Win	False
426.33	2.973	Win2	0.6444	n/a	Yes	2.973	n/a	n/a	GoodResponse	1	0.0	n/a	3	44	ISIslide	Win	False
429.322	0.25	Control	0.6522	0.0	Yes	2.878	0.022	2.0	GoodResponse	0	0.211	428.533	3	45	Cue	Neutral	False
429.533	0.3	Control	0.6522	0.0	Yes	2.878	0.022	2.0	GoodResponse	0	0.211	n/a	3	45	ButtonPress	Neutral	False
429.573	4.1	Control	0.6522	0.0	Yes	2.878	0.001	n/a	GoodResponse	0	n/a	n/a	3	45	Fixation	Neutral	False
433.668	0.3	Control	0.6522	0.004	Yes	2.878	-0.004	2.0	GoodResponse	0	0.198	432.866	3	45	Target	Neutral	False
433.866	0.3	Control	0.6522	0.004	Yes	2.878	-0.004	2.0	GoodResponse	0	0.198	n/a	3	45	ButtonPress	Neutral	False
433.969	0.4	Control	0.6522	n/a	Yes	2.878	n/a	n/a	GoodResponse	0	n/a	n/a	3	45	Blank	Neutral	False
434.37	1.45	Control	0.6522	n/a	Yes	2.878	n/a	5.0	GoodResponse	0	0.038	433.408	3	45	Feedback	Neutral	False
435.825	2.878	Control	0.6522	n/a	Yes	2.878	n/a	n/a	GoodResponse	0	0.0	n/a	3	45	ISIslide	Neutral	False
438.717	0.25	Lose2	0.6596	0.0	Yes	3.383	0.017	2.0	GoodResponse	0	0.205	437.922	3	46	Cue	AvoidedLoss	False
438.922	0.3	Lose2	0.6596	0.0	Yes	3.383	0.017	2.0	GoodResponse	0	0.205	n/a	3	46	ButtonPress	AvoidedLoss	False
438.967	4.0	Lose2	0.6596	0.0	Yes	3.383	0.0	n/a	GoodResponse	0	n/a	n/a	3	46	Fixation	AvoidedLoss	False
442.963	0.31	Lose2	0.6596	0.004	Yes	3.383	-0.004	2.0	GoodResponse	0	0.185	442.148	3	46	Target	AvoidedLoss	False
443.148	0.3	Lose2	0.6596	0.004	Yes	3.383	-0.004	2.0	GoodResponse	0	0.185	n/a	3	46	ButtonPress	AvoidedLoss	False
443.28	0.39	Lose2	0.6596	n/a	Yes	3.383	n/a	n/a	GoodResponse	0	n/a	n/a	3	46	Blank	AvoidedLoss	False
443.665	1.45	Lose2	0.6596	n/a	Yes	3.383	n/a	5.0	GoodResponse	0	0.012	442.677	3	46	Feedback	AvoidedLoss	False
445.119	3.383	Lose2	0.6596	n/a	Yes	3.383	n/a	n/a	GoodResponse	0	0.0	n/a	3	46	ISIslide	AvoidedLoss	False
448.529	0.25	Lose2	0.6667000000000001	0.0	Yes	2.671	0.029	n/a	GoodResponse	0	n/a	n/a	3	47	Cue	AvoidedLoss	False
448.78	4.0	Lose2	0.6667000000000001	0.0	Yes	2.671	0.001	2.0	GoodResponse	0	0.097	447.877	3	47	Fixation	AvoidedLoss	False
448.877	0.3	Lose2	0.6667000000000001	0.0	Yes	2.671	0.001	2.0	GoodResponse	0	0.097	n/a	3	47	ButtonPress	AvoidedLoss	False
452.775	0.31	Lose2	0.6667000000000001	0.004	Yes	2.671	-0.004	2.0	GoodResponse	0	0.187	451.962	3	47	Target	AvoidedLoss	False
452.962	0.3	Lose2	0.6667000000000001	0.004	Yes	2.671	-0.004	2.0	GoodResponse	0	0.187	n/a	3	47	ButtonPress	AvoidedLoss	False
453.093	0.39	Lose2	0.6667000000000001	n/a	Yes	2.671	n/a	n/a	GoodResponse	0	n/a	n/a	3	47	Blank	AvoidedLoss	False
453.477	1.45	Lose2	0.6667000000000001	n/a	Yes	2.671	n/a	5.0	GoodResponse	0	0.007	452.484	3	47	Feedback	AvoidedLoss	False
454.932	2.671	Lose2	0.6667000000000001	n/a	Yes	2.671	n/a	n/a	GoodResponse	0	0.0	n/a	3	47	ISIslide	AvoidedLoss	False
457.623	0.25	Lose2	0.6735	0.0	Yes	3.027	0.023	2.0	GoodResponse	0	0.249	456.872	3	48	Cue	AvoidedLoss	False
457.872	0.3	Lose2	0.6735	0.0	Yes	3.027	0.023	2.0	GoodResponse	0	0.249	n/a	3	48	ButtonPress	AvoidedLoss	False
457.874	3.95	Lose2	0.6735	0.0	Yes	3.027	0.001	n/a	GoodResponse	0	n/a	n/a	3	48	Fixation	AvoidedLoss	False
461.819	0.3	Lose2	0.6735	0.004	Yes	3.027	-0.004	2.0	GoodResponse	0	0.218	461.037	3	48	Target	AvoidedLoss	False
462.037	0.3	Lose2	0.6735	0.004	Yes	3.027	-0.004	2.0	GoodResponse	0	0.218	n/a	3	48	ButtonPress	AvoidedLoss	False
462.12	0.4	Lose2	0.6735	n/a	Yes	3.027	n/a	n/a	GoodResponse	0	n/a	n/a	3	48	Blank	AvoidedLoss	False
462.521	1.45	Lose2	0.6735	n/a	Yes	3.027	n/a	5.0	GoodResponse	0	0.033	461.554	3	48	Feedback	AvoidedLoss	False
463.975	3.027	Lose2	0.6735	n/a	Yes	3.027	n/a	n/a	GoodResponse	0	0.0	n/a	3	48	ISIslide	AvoidedLoss	False
467.018	0.25	Control	0.66	0.0	No	2.882	0.018	n/a	NoResponse	0	n/a	n/a	3	49	Cue	Neutral	True
467.269	4.0	Control	0.66	0.0	No	2.882	0.001	2.0	NoResponse	0	0.087	466.356	3	49	Fixation	Neutral	True
467.356	0.3	Control	0.66	0.0	No	2.882	0.001	2.0	NoResponse	0	0.087	n/a	3	49	ButtonPress	Neutral	True
471.264	0.29	Control	0.66	0.004	No	2.882	-0.004	n/a	NoResponse	0	n/a	n/a	3	49	Target	Neutral	True
471.565	0.41	Control	0.66	n/a	No	2.882	n/a	n/a	NoResponse	0	n/a	n/a	3	49	Blank	Neutral	True
471.966	1.45	Control	0.66	n/a	No	2.882	n/a	5.0	NoResponse	0	0.005	470.971	3	49	Feedback	Neutral	True
473.42	2.882	Control	0.66	n/a	No	2.882	n/a	n/a	NoResponse	0	0.0	n/a	3	49	ISIslide	Neutral	True
476.312	0.25	Control	0.6667000000000001	0.0	Yes	2.788	0.012	2.0	GoodResponse	0	0.205	475.517	3	50	Cue	Neutral	False
476.517	0.3	Control	0.6667000000000001	0.0	Yes	2.788	0.012	2.0	GoodResponse	0	0.205	n/a	3	50	ButtonPress	Neutral	False
476.563	4.0	Control	0.6667000000000001	0.0	Yes	2.788	0.001	n/a	GoodResponse	0	n/a	n/a	3	50	Fixation	Neutral	False
480.558	0.29	Control	0.6667000000000001	0.004	Yes	2.788	-0.004	2.0	GoodResponse	0	0.205	479.763	3	50	Target	Neutral	False
480.763	0.3	Control	0.6667000000000001	0.004	Yes	2.788	-0.004	2.0	GoodResponse	0	0.205	n/a	3	50	ButtonPress	Neutral	False
480.859	0.41	Control	0.6667000000000001	n/a	Yes	2.788	n/a	n/a	GoodResponse	0	n/a	n/a	3	50	Blank	Neutral	False
481.26	1.45	Control	0.6667000000000001	n/a	Yes	2.788	n/a	5.0	GoodResponse	0	0.026	480.286	3	50	Feedback	Neutral	False
482.715	2.788	Control	0.6667000000000001	n/a	Yes	2.788	n/a	n/a	GoodResponse	0	0.0	n/a	3	50	ISIslide	Neutral	False
485.523	0.25	Control	0.6731	0.0	Yes	2.727	0.023	n/a	GoodResponse	0	n/a	n/a	3	51	Cue	Neutral	False
485.774	3.95	Control	0.6731	0.0	Yes	2.727	0.001	2.0	GoodResponse	0	0.03	484.804	3	51	Fixation	Neutral	False
485.804	0.3	Control	0.6731	0.0	Yes	2.727	0.001	2.0	GoodResponse	0	0.03	n/a	3	51	ButtonPress	Neutral	False
489.719	0.28	Control	0.6731	0.004	Yes	2.727	-0.004	2.0	GoodResponse	0	0.184	488.903	3	51	Target	Neutral	False
489.903	0.3	Control	0.6731	0.004	Yes	2.727	-0.004	2.0	GoodResponse	0	0.184	n/a	3	51	ButtonPress	Neutral	False
490.003	0.42	Control	0.6731	n/a	Yes	2.727	n/a	n/a	GoodResponse	0	n/a	n/a	3	51	Blank	Neutral	False
490.421	1.45	Control	0.6731	n/a	Yes	2.727	n/a	5.0	GoodResponse	0	0.035	489.456	3	51	Feedback	Neutral	False
491.876	2.727	Control	0.6731	n/a	Yes	2.727	n/a	n/a	GoodResponse	0	0.0	n/a	3	51	ISIslide	Neutral	False
494.617	0.25	Control	0.6792	0.0	Yes	2.633	0.017	2.0	GoodResponse	0	0.184	493.801	3	52	Cue	Neutral	False
494.801	0.3	Control	0.6792	0.0	Yes	2.633	0.017	2.0	GoodResponse	0	0.184	n/a	3	52	ButtonPress	Neutral	False
494.868	4.05	Control	0.6792	0.0	Yes	2.633	0.001	n/a	GoodResponse	0	n/a	n/a	3	52	Fixation	Neutral	False
498.913	0.27	Control	0.6792	0.004	Yes	2.633	-0.004	2.0	GoodResponse	0	0.237	498.15	3	52	Target	Neutral	False
499.15	0.3	Control	0.6792	0.004	Yes	2.633	-0.004	2.0	GoodResponse	0	0.237	n/a	3	52	ButtonPress	Neutral	False
499.197	0.43	Control	0.6792	n/a	Yes	2.633	n/a	n/a	GoodResponse	0	n/a	n/a	3	52	Blank	Neutral	False
499.615	1.45	Control	0.6792	n/a	Yes	2.633	n/a	5.0	GoodResponse	0	0.012	498.627	3	52	Feedback	Neutral	False
501.07	2.633	Control	0.6792	n/a	Yes	2.633	n/a	n/a	GoodResponse	0	0.0	n/a	3	52	ISIslide	Neutral	False
503.728	0.25	Win2	0.6667000000000001	0.0	No	2.922	0.028	n/a	NoResponse	0	n/a	n/a	3	53	Cue	MissedWin	False
503.978	4.05	Win2	0.6667000000000001	0.001	No	2.922	0.0	2.0	NoResponse	0	0.007	502.985	3	53	Fixation	MissedWin	False
503.985	0.3	Win2	0.6667000000000001	0.001	No	2.922	0.0	2.0	NoResponse	0	0.007	n/a	3	53	ButtonPress	MissedWin	False
508.024	0.26	Win2	0.6667000000000001	0.004	No	2.922	-0.004	2.0	NoResponse	0	0.289	507.313	3	53	Target	MissedWin	False
508.291	0.44	Win2	0.6667000000000001	n/a	No	2.922	n/a	n/a	NoResponse	0	n/a	n/a	3	53	Blank	MissedWin	False
508.313	0.3	Win2	0.6667000000000001	0.004	No	2.922	-0.004	2.0	NoResponse	0	0.289	n/a	3	53	ButtonPress	MissedWin	False
508.726	1.45	Win2	0.6667000000000001	n/a	No	2.922	n/a	5.0	NoResponse	0	0.023	507.749	3	53	Feedback	MissedWin	False
510.18	2.922	Win2	0.6667000000000001	n/a	No	2.922	n/a	n/a	NoResponse	0	0.0	n/a	3	53	ISIslide	MissedWin	False
513.122	0.25	Win2	0.6727	0.001	Yes	2.728	0.022	2.0	GoodResponse	1	0.154	512.276	4	54	Cue	Win	False
513.276	0.3	Win2	0.6727	0.001	Yes	2.728	0.022	2.0	GoodResponse	1	0.154	n/a	4	54	ButtonPress	Win	False
513.373	3.95	Win2	0.6727	0.0	Yes	2.728	0.001	n/a	GoodResponse	1	n/a	n/a	4	54	Fixation	Win	False
517.318	0.25	Win2	0.6727	0.004	Yes	2.728	-0.004	2.0	GoodResponse	1	0.19	516.508	4	54	Target	Win	False
517.508	0.3	Win2	0.6727	0.004	Yes	2.728	-0.004	2.0	GoodResponse	1	0.19	n/a	4	54	ButtonPress	Win	False
517.569	0.45	Win2	0.6727	n/a	Yes	2.728	n/a	n/a	GoodResponse	1	n/a	n/a	4	54	Blank	Win	False
518.02	1.45	Win2	0.6727	n/a	Yes	2.728	n/a	5.0	GoodResponse	1	0.046	517.066	4	54	Feedback	Win	False
519.475	2.728	Win2	0.6727	n/a	Yes	2.728	n/a	n/a	GoodResponse	1	0.0	n/a	4	54	ISIslide	Win	False
522.216	0.25	Control	0.6786	0.0	Yes	3.034	0.016	2.0	GoodResponse	0	0.196	521.412	4	55	Cue	Neutral	False
522.412	0.3	Control	0.6786	0.0	Yes	3.034	0.016	2.0	GoodResponse	0	0.196	n/a	4	55	ButtonPress	Neutral	False
522.467	3.95	Control	0.6786	0.0	Yes	3.034	0.001	n/a	GoodResponse	0	n/a	n/a	4	55	Fixation	Neutral	False
526.412	0.24	Control	0.6786	0.004	Yes	3.034	-0.004	2.0	GoodResponse	0	0.183	525.595	4	55	Target	Neutral	False
526.595	0.3	Control	0.6786	0.004	Yes	3.034	-0.004	2.0	GoodResponse	0	0.183	n/a	4	55	ButtonPress	Neutral	False
526.663	0.46	Control	0.6786	n/a	Yes	3.034	n/a	n/a	GoodResponse	0	n/a	n/a	4	55	Blank	Neutral	False
527.114	1.45	Control	0.6786	n/a	Yes	3.034	n/a	5.0	GoodResponse	0	0.025	526.139	4	55	Feedback	Neutral	False
528.569	3.034	Control	0.6786	n/a	Yes	3.034	n/a	n/a	GoodResponse	0	0.0	n/a	4	55	ISIslide	Neutral	False
531.628	0.25	Control	0.6667000000000001	0.0	No	2.822	0.028	2.0	LatePress	0	0.208	530.836	4	56	Cue	Neutral	False
531.836	0.3	Control	0.6667000000000001	0.0	No	2.822	0.028	2.0	LatePress	0	0.208	n/a	4	56	ButtonPress	Neutral	False
531.879	3.95	Control	0.6667000000000001	0.0	No	2.822	0.001	2.0	LatePress	0	3.721	534.6	4	56	Fixation	Neutral	False
535.6	0.3	Control	0.6667000000000001	0.0	No	2.822	0.001	2.0	LatePress	0	3.721	n/a	4	56	ButtonPress	Neutral	False
535.824	0.23	Control	0.6667000000000001	0.004	No	2.822	-0.004	2.0	LatePress	0	0.232	535.056	4	56	Target	Neutral	False
536.056	0.3	Control	0.6667000000000001	0.004	No	2.822	-0.004	2.0	LatePress	0	0.232	n/a	4	56	ButtonPress	Neutral	False
536.058	0.47	Control	0.6667000000000001	n/a	No	2.822	n/a	n/a	LatePress	0	n/a	n/a	4	56	Blank	Neutral	False
536.526	1.45	Control	0.6667000000000001	n/a	No	2.822	n/a	5.0	LatePress	0	0.027	535.553	4	56	Feedback	Neutral	False
537.98	2.822	Control	0.6667000000000001	n/a	No	2.822	n/a	n/a	LatePress	0	0.0	n/a	4	56	ISIslide	Neutral	False
540.822	0.25	Control	0.6552	0.0	No	3.478	0.022	n/a	PrematurePress	0	n/a	n/a	4	57	Cue	Neutral	False
541.073	4.0	Control	0.6552	0.0	No	3.478	0.001	2.0	PrematurePress	0	0.034	540.107	4	57	Fixation	Neutral	False
541.107	0.3	Control	0.6552	0.0	No	3.478	0.001	2.0	PrematurePress	0	0.034	n/a	4	57	ButtonPress	Neutral	False
545.068	0.22	Control	0.6552	0.004	No	3.478	-0.004	2.0	PrematurePress	0	0.048	544.116	4	57	Target	Neutral	False
545.116	0.3	Control	0.6552	0.004	No	3.478	-0.004	2.0	PrematurePress	0	0.048	n/a	4	57	ButtonPress	Neutral	False
545.302	0.48	Control	0.6552	n/a	No	3.478	n/a	n/a	PrematurePress	0	n/a	n/a	4	57	Blank	Neutral	False
545.77	1.45	Control	0.6552	n/a	No	3.478	n/a	5.0	PrematurePress	0	0.006	544.776	4	57	Feedback	Neutral	False
547.224	3.478	Control	0.6552	n/a	No	3.478	n/a	n/a	PrematurePress	0	0.0	n/a	4	57	ISIslide	Neutral	False
550.718	0.25	Win2	0.6609999999999999	0.0	Yes	2.732	0.018	2.0	GoodResponse	1	0.207	549.925	5	58	Cue	Win	False
550.925	0.3	Win2	0.6609999999999999	0.0	Yes	2.732	0.018	2.0	GoodResponse	1	0.207	n/a	5	58	ButtonPress	Win	False
550.969	4.05	Win2	0.6609999999999999	0.0	Yes	2.732	0.001	n/a	GoodResponse	1	n/a	n/a	5	58	Fixation	Win	False
555.014	0.22	Win2	0.6609999999999999	0.004	Yes	2.732	-0.004	2.0	GoodResponse	1	0.194	554.208	5	58	Target	Win	False
555.208	0.3	Win2	0.6609999999999999	0.004	Yes	2.732	-0.004	2.0	GoodResponse	1	0.194	n/a	5	58	ButtonPress	Win	False
555.248	0.48	Win2	0.6609999999999999	n/a	Yes	2.732	n/a	n/a	GoodResponse	1	n/a	n/a	5	58	Blank	Win	False
555.716	1.45	Win2	0.6609999999999999	n/a	Yes	2.732	n/a	5.0	GoodResponse	1	0.008	554.724	5	58	Feedback	Win	False
557.171	2.732	Win2	0.6609999999999999	n/a	Yes	2.732	n/a	n/a	GoodResponse	1	0.0	n/a	5	58	ISIslide	Win	False
559.929	0.25	Lose2	0.6667000000000001	0.0	Yes	2.671	0.029	2.0	GoodResponse	0	0.236	559.165	5	59	Cue	AvoidedLoss	False
560.165	0.3	Lose2	0.6667000000000001	0.0	Yes	2.671	0.029	2.0	GoodResponse	0	0.236	n/a	5	59	ButtonPress	AvoidedLoss	False
560.18	4.0	Lose2	0.6667000000000001	0.0	Yes	2.671	0.001	n/a	GoodResponse	0	n/a	n/a	5	59	Fixation	AvoidedLoss	False
564.175	0.22	Lose2	0.6667000000000001	0.004	Yes	2.671	-0.004	2.0	GoodResponse	0	0.184	563.359	5	59	Target	AvoidedLoss	False
564.359	0.3	Lose2	0.6667000000000001	0.004	Yes	2.671	-0.004	2.0	GoodResponse	0	0.184	n/a	5	59	ButtonPress	AvoidedLoss	False
564.409	0.48	Lose2	0.6667000000000001	n/a	Yes	2.671	n/a	n/a	GoodResponse	0	n/a	n/a	5	59	Blank	AvoidedLoss	False
564.877	1.45	Lose2	0.6667000000000001	n/a	Yes	2.671	n/a	5.0	GoodResponse	0	0.018	563.895	5	59	Feedback	AvoidedLoss	False
566.332	2.671	Lose2	0.6667000000000001	n/a	Yes	2.671	n/a	n/a	GoodResponse	0	0.0	n/a	5	59	ISIslide	AvoidedLoss	False
569.023	0.25	Control	0.6720999999999999	0.0	Yes	2.677	0.023	2.0	GoodResponse	0	0.22	568.243	5	60	Cue	Neutral	False
569.243	0.3	Control	0.6720999999999999	0.0	Yes	2.677	0.023	2.0	GoodResponse	0	0.22	n/a	5	60	ButtonPress	Neutral	False
569.274	4.0	Control	0.6720999999999999	0.0	Yes	2.677	0.001	n/a	GoodResponse	0	n/a	n/a	5	60	Fixation	Neutral	False
573.269	0.21	Control	0.6720999999999999	0.004	Yes	2.677	-0.004	2.0	GoodResponse	0	0.182	572.451	5	60	Target	Neutral	False
573.451	0.3	Control	0.6720999999999999	0.004	Yes	2.677	-0.004	2.0	GoodResponse	0	0.182	n/a	5	60	ButtonPress	Neutral	False
573.486	0.49	Control	0.6720999999999999	n/a	Yes	2.677	n/a	n/a	GoodResponse	0	n/a	n/a	5	60	Blank	Neutral	False
573.971	1.45	Control	0.6720999999999999	n/a	Yes	2.677	n/a	5.0	GoodResponse	0	0.046	573.017	5	60	Feedback	Neutral	False
575.425	2.677	Control	0.6720999999999999	n/a	Yes	2.677	n/a	n/a	GoodResponse	0	0.0	n/a	5	60	ISIslide	Neutral	False
578.117	0.25	Lose2	0.6774	0.0	Yes	2.983	0.017	2.0	GoodResponse	0	0.222	577.339	5	61	Cue	AvoidedLoss	False
578.339	0.3	Lose2	0.6774	0.0	Yes	2.983	0.017	2.0	GoodResponse	0	0.222	n/a	5	61	ButtonPress	AvoidedLoss	False
578.368	4.0	Lose2	0.6774	0.0	Yes	2.983	0.001	n/a	GoodResponse	0	n/a	n/a	5	61	Fixation	AvoidedLoss	False
582.363	0.2	Lose2	0.6774	0.004	Yes	2.983	-0.004	2.0	GoodResponse	0	0.17	581.533	5	61	Target	AvoidedLoss	False
582.533	0.3	Lose2	0.6774	0.004	Yes	2.983	-0.004	2.0	GoodResponse	0	0.17	n/a	5	61	ButtonPress	AvoidedLoss	False
582.563	0.5	Lose2	0.6774	n/a	Yes	2.983	n/a	n/a	GoodResponse	0	n/a	n/a	5	61	Blank	AvoidedLoss	False
583.065	1.45	Lose2	0.6774	n/a	Yes	2.983	n/a	5.0	GoodResponse	0	0.024	582.089	5	61	Feedback	AvoidedLoss	False
584.519	2.983	Lose2	0.6774	n/a	Yes	2.983	n/a	n/a	GoodResponse	0	0.0	n/a	5	61	ISIslide	AvoidedLoss	False
587.528	0.25	Lose2	0.6825	0.0	Yes	2.872	0.028	n/a	GoodResponse	0	n/a	n/a	5	62	Cue	AvoidedLoss	False
587.779	3.9	Lose2	0.6825	0.0	Yes	2.872	0.001	2.0	GoodResponse	0	0.08	586.859	5	62	Fixation	AvoidedLoss	False
587.859	0.3	Lose2	0.6825	0.0	Yes	2.872	0.001	2.0	GoodResponse	0	0.08	n/a	5	62	ButtonPress	AvoidedLoss	False
591.674	0.19	Lose2	0.6825	0.004	Yes	2.872	-0.004	2.0	GoodResponse	0	0.178	590.852	5	62	Target	AvoidedLoss	False
591.852	0.3	Lose2	0.6825	0.004	Yes	2.872	-0.004	2.0	GoodResponse	0	0.178	n/a	5	62	ButtonPress	AvoidedLoss	False
591.875	0.51	Lose2	0.6825	n/a	Yes	2.872	n/a	n/a	GoodResponse	0	n/a	n/a	5	62	Blank	AvoidedLoss	False
592.376	1.45	Lose2	0.6825	n/a	Yes	2.872	n/a	5.0	GoodResponse	0	0.03	591.406	5	62	Feedback	AvoidedLoss	False
593.83	2.872	Lose2	0.6825	n/a	Yes	2.872	n/a	n/a	GoodResponse	0	0.0	n/a	5	62	ISIslide	AvoidedLoss	False
596.722	0.25	Lose2	0.6718999999999999	0.001	No	2.628	0.022	n/a	NoResponse	-1	n/a	n/a	4	63	Cue	Loss	False
596.973	4.05	Lose2	0.6718999999999999	0.0	No	2.628	0.001	2.0	NoResponse	-1	0.098	596.071	4	63	Fixation	Loss	False
597.071	0.3	Lose2	0.6718999999999999	0.0	No	2.628	0.001	2.0	NoResponse	-1	0.098	n/a	4	63	ButtonPress	Loss	False
601.019	0.18	Lose2	0.6718999999999999	0.003	No	2.628	-0.003	2.0	NoResponse	-1	0.192	600.211	4	63	Target	Loss	False
601.202	0.52	Lose2	0.6718999999999999	n/a	No	2.628	n/a	n/a	NoResponse	-1	n/a	n/a	4	63	Blank	Loss	False
601.211	0.3	Lose2	0.6718999999999999	0.003	No	2.628	-0.003	2.0	NoResponse	-1	0.192	n/a	4	63	ButtonPress	Loss	False
601.721	1.45	Lose2	0.6718999999999999	n/a	No	2.628	n/a	5.0	NoResponse	-1	0.007	600.728	4	63	Feedback	Loss	False
603.175	2.628	Lose2	0.6718999999999999	n/a	No	2.628	n/a	n/a	NoResponse	-1	0.0	n/a	4	63	ISIslide	Loss	False
605.816	0.25	Win2	0.6615000000000001	0.0	No	3.134	0.016	2.0	NoResponse	0	0.214	605.03	4	64	Cue	MissedWin	False
606.03	0.3	Win2	0.6615000000000001	0.0	No	3.134	0.016	2.0	NoResponse	0	0.214	n/a	4	64	ButtonPress	MissedWin	False
606.067	4.15	Win2	0.6615000000000001	0.0	No	3.134	0.001	n/a	NoResponse	0	n/a	n/a	4	64	Fixation	MissedWin	False
610.213	0.17	Win2	0.6615000000000001	0.003	No	3.134	-0.003	2.0	NoResponse	0	0.237	609.45	4	64	Target	MissedWin	False
610.397	0.53	Win2	0.6615000000000001	n/a	No	3.134	n/a	n/a	NoResponse	0	n/a	n/a	4	64	Blank	MissedWin	False
610.45	0.3	Win2	0.6615000000000001	0.003	No	3.134	-0.003	2.0	NoResponse	0	0.237	n/a	4	64	ButtonPress	MissedWin	False
610.915	1.45	Win2	0.6615000000000001	n/a	No	3.134	n/a	5.0	NoResponse	0	0.028	609.943	4	64	Feedback	MissedWin	False
612.369	3.134	Win2	0.6615000000000001	n/a	No	3.134	n/a	2.0	NoResponse	0	2.985	n/a	4	64	ISIslide	MissedWin	False
615.512	0.25	Control	0.6515000000000001	0.0	No	2.788	0.012	n/a	LatePress	0	n/a	n/a	4	65	Cue	Neutral	False
615.763	4.0	Control	0.6515000000000001	0.0	No	2.788	0.001	2.0	LatePress	0	0.087	614.85	4	65	Fixation	Neutral	False
615.85	0.3	Control	0.6515000000000001	0.0	No	2.788	0.001	2.0	LatePress	0	0.087	n/a	4	65	ButtonPress	Neutral	False
619.758	0.17	Control	0.6515000000000001	0.004	No	2.788	-0.004	2.0	LatePress	0	0.183	618.941	4	65	Target	Neutral	False
619.941	0.3	Control	0.6515000000000001	0.004	No	2.788	-0.004	2.0	LatePress	0	0.183	n/a	4	65	ButtonPress	Neutral	False
619.942	0.53	Control	0.6515000000000001	n/a	No	2.788	n/a	n/a	LatePress	0	n/a	n/a	4	65	Blank	Neutral	False
620.46	1.45	Control	0.6515000000000001	n/a	No	2.788	n/a	5.0	LatePress	0	0.043	619.503	4	65	Feedback	Neutral	False
621.914	2.788	Control	0.6515000000000001	n/a	No	2.788	n/a	n/a	LatePress	0	0.0	n/a	4	65	ISIslide	Neutral	False
624.723	0.25	Win2	0.6418	0.0	No	2.777	0.023	2.0	NoResponse	0	0.179	623.902	4	66	Cue	MissedWin	False
624.902	0.3	Win2	0.6418	0.0	No	2.777	0.023	2.0	NoResponse	0	0.179	n/a	4	66	ButtonPress	MissedWin	False
624.974	3.9	Win2	0.6418	0.0	No	2.777	0.001	n/a	NoResponse	0	n/a	n/a	4	66	Fixation	MissedWin	False
628.869	0.18	Win2	0.6418	0.004	No	2.777	-0.004	2.0	NoResponse	0	0.192	628.061	4	66	Target	MissedWin	False
629.052	0.52	Win2	0.6418	n/a	No	2.777	n/a	n/a	NoResponse	0	n/a	n/a	4	66	Blank	MissedWin	False
629.061	0.3	Win2	0.6418	0.004	No	2.777	-0.004	2.0	NoResponse	0	0.192	n/a	4	66	ButtonPress	MissedWin	False
629.571	1.45	Win2	0.6418	n/a	No	2.777	n/a	5.0	NoResponse	0	0.008	628.579	4	66	Feedback	MissedWin	False
631.025	2.777	Win2	0.6418	n/a	No	2.777	n/a	n/a	NoResponse	0	0.0	n/a	4	66	ISIslide	MissedWin	False
633.817	0.25	Control	0.6470999999999999	0.0	Yes	2.733	0.017	n/a	GoodResponse	0	n/a	n/a	4	67	Cue	Neutral	False
634.067	3.95	Control	0.6470999999999999	0.001	Yes	2.733	0.0	2.0	GoodResponse	0	0.006	633.073	4	67	Fixation	Neutral	False
634.073	0.3	Control	0.6470999999999999	0.001	Yes	2.733	0.0	2.0	GoodResponse	0	0.006	n/a	4	67	ButtonPress	Neutral	False
638.013	0.19	Control	0.6470999999999999	0.004	Yes	2.733	-0.004	2.0	GoodResponse	0	0.182	637.195	4	67	Target	Neutral	False
638.195	0.3	Control	0.6470999999999999	0.004	Yes	2.733	-0.004	2.0	GoodResponse	0	0.182	n/a	4	67	ButtonPress	Neutral	False
638.213	0.51	Control	0.6470999999999999	n/a	Yes	2.733	n/a	n/a	GoodResponse	0	n/a	n/a	4	67	Blank	Neutral	False
638.715	1.45	Control	0.6470999999999999	n/a	Yes	2.733	n/a	5.0	GoodResponse	0	0.032	637.747	4	67	Feedback	Neutral	False
640.169	2.733	Control	0.6470999999999999	n/a	Yes	2.733	n/a	2.0	GoodResponse	0	2.271	n/a	4	67	ISIslide	Neutral	False
642.91	0.25	Win2	0.6522	0.001	Yes	3.09	0.01	2.0	GoodResponse	1	0.012	641.922	5	68	Cue	Win	False
642.922	0.3	Win2	0.6522	0.001	Yes	3.09	0.01	2.0	GoodResponse	1	0.012	n/a	5	68	ButtonPress	Win	False
643.161	4.0	Win2	0.6522	0.0	Yes	3.09	0.001	n/a	GoodResponse	1	n/a	n/a	5	68	Fixation	Win	False
647.157	0.2	Win2	0.6522	0.003	Yes	3.09	-0.003	2.0	GoodResponse	1	0.198	646.355	5	68	Target	Win	False
647.355	0.3	Win2	0.6522	0.003	Yes	3.09	-0.003	2.0	GoodResponse	1	0.198	n/a	5	68	ButtonPress	Win	False
647.357	0.5	Win2	0.6522	n/a	Yes	3.09	n/a	n/a	GoodResponse	1	n/a	n/a	5	68	Blank	Win	False
647.859	1.45	Win2	0.6522	n/a	Yes	3.09	n/a	5.0	GoodResponse	1	0.01	646.869	5	68	Feedback	Win	False
649.313	3.09	Win2	0.6522	n/a	Yes	3.09	n/a	n/a	GoodResponse	1	0.0	n/a	5	68	ISIslide	Win	False
652.422	0.25	Win2	0.6570999999999999	0.0	Yes	3.228	0.022	n/a	GoodResponse	1	n/a	n/a	6	69	Cue	Win	False
652.673	3.95	Win2	0.6570999999999999	0.0	Yes	3.228	0.001	2.0	GoodResponse	1	0.084	651.757	6	69	Fixation	Win	False
652.757	0.3	Win2	0.6570999999999999	0.0	Yes	3.228	0.001	2.0	GoodResponse	1	0.084	n/a	6	69	ButtonPress	Win	False
656.618	0.21	Win2	0.6570999999999999	0.004	Yes	3.228	-0.004	2.0	GoodResponse	1	0.163	655.781	6	69	Target	Win	False
656.781	0.3	Win2	0.6570999999999999	0.004	Yes	3.228	-0.004	2.0	GoodResponse	1	0.163	n/a	6	69	ButtonPress	Win	False
656.835	0.49	Win2	0.6570999999999999	n/a	Yes	3.228	n/a	n/a	GoodResponse	1	n/a	n/a	6	69	Blank	Win	False
657.32	1.45	Win2	0.6570999999999999	n/a	Yes	3.228	n/a	5.0	GoodResponse	1	0.013	656.333	6	69	Feedback	Win	False
658.775	3.228	Win2	0.6570999999999999	n/a	Yes	3.228	n/a	n/a	GoodResponse	1	0.0	n/a	6	69	ISIslide	Win	False
662.018	0.25	Lose2	0.6479	0.0	No	3.032	0.018	2.0	NoResponse	-1	0.219	661.237	5	70	Cue	Loss	False
662.237	0.3	Lose2	0.6479	0.0	No	3.032	0.018	2.0	NoResponse	-1	0.219	n/a	5	70	ButtonPress	Loss	False
662.268	4.05	Lose2	0.6479	0.0	No	3.032	0.0	2.0	NoResponse	-1	3.847	665.115	5	70	Fixation	Loss	False
666.115	0.3	Lose2	0.6479	0.0	No	3.032	0.0	2.0	NoResponse	-1	3.847	n/a	5	70	ButtonPress	Loss	False
666.314	0.21	Lose2	0.6479	0.004	No	3.032	-0.004	n/a	NoResponse	-1	n/a	n/a	5	70	Target	Loss	False
666.531	0.49	Lose2	0.6479	n/a	No	3.032	n/a	n/a	NoResponse	-1	n/a	n/a	5	70	Blank	Loss	False
667.016	1.45	Lose2	0.6479	n/a	No	3.032	n/a	5.0	NoResponse	-1	0.023	666.039	5	70	Feedback	Loss	False
668.47	3.032	Lose2	0.6479	n/a	No	3.032	n/a	n/a	NoResponse	-1	0.0	n/a	5	70	ISIslide	Loss	False
671.529	0.25	Win2	0.6528	0.001	Yes	2.721	0.029	2.0	GoodResponse	1	0.197	670.726	6	71	Cue	Win	False
671.726	0.3	Win2	0.6528	0.001	Yes	2.721	0.029	2.0	GoodResponse	1	0.197	n/a	6	71	ButtonPress	Win	False
671.78	4.05	Win2	0.6528	0.0	Yes	2.721	0.001	n/a	GoodResponse	1	n/a	n/a	6	71	Fixation	Win	False
675.826	0.22	Win2	0.6528	0.003	Yes	2.721	-0.003	2.0	GoodResponse	1	0.172	674.998	6	71	Target	Win	False
675.998	0.3	Win2	0.6528	0.003	Yes	2.721	-0.003	2.0	GoodResponse	1	0.172	n/a	6	71	ButtonPress	Win	False
676.06	0.48	Win2	0.6528	n/a	Yes	2.721	n/a	n/a	GoodResponse	1	n/a	n/a	6	71	Blank	Win	False
676.528	1.45	Win2	0.6528	n/a	Yes	2.721	n/a	5.0	GoodResponse	1	0.023	675.551	6	71	Feedback	Win	False
677.982	2.721	Win2	0.6528	n/a	Yes	2.721	n/a	n/a	GoodResponse	1	0.0	n/a	6	71	ISIslide	Win	False
680.724	0.25	Win2	0.6575	0.0	Yes	2.776	0.024	2.0	GoodResponse	1	0.201	679.925	7	72	Cue	Win	False
680.925	0.3	Win2	0.6575	0.0	Yes	2.776	0.024	2.0	GoodResponse	1	0.201	n/a	7	72	ButtonPress	Win	False
680.974	4.1	Win2	0.6575	0.0	Yes	2.776	0.0	n/a	GoodResponse	1	n/a	n/a	7	72	Fixation	Win	False
685.07	0.23	Win2	0.6575	0.004	Yes	2.776	-0.004	2.0	GoodResponse	1	0.206	684.276	7	72	Target	Win	False
685.276	0.3	Win2	0.6575	0.004	Yes	2.776	-0.004	2.0	GoodResponse	1	0.206	n/a	7	72	ButtonPress	Win	False
685.304	0.47	Win2	0.6575	n/a	Yes	2.776	n/a	n/a	GoodResponse	1	n/a	n/a	7	72	Blank	Win	False
685.772	1.45	Win2	0.6575	n/a	Yes	2.776	n/a	5.0	GoodResponse	1	0.048	684.82	7	72	Feedback	Win	False
687.226	2.776	Win2	0.6575	n/a	Yes	2.776	n/a	n/a	GoodResponse	1	0.0	n/a	7	72	ISIslide	Win	False
690.018	0.25	Win2	0.6622	0.0	Yes	2.682	0.018	n/a	GoodResponse	1	n/a	n/a	8	73	Cue	Win	True
690.269	4.0	Win2	0.6622	0.0	Yes	2.682	0.001	n/a	GoodResponse	1	n/a	n/a	8	73	Fixation	Win	True
694.264	0.23	Win2	0.6622	0.004	Yes	2.682	-0.004	2.0	GoodResponse	1	0.195	693.459	8	73	Target	Win	True
694.459	0.3	Win2	0.6622	0.004	Yes	2.682	-0.004	2.0	GoodResponse	1	0.195	n/a	8	73	ButtonPress	Win	True
694.498	0.47	Win2	0.6622	n/a	Yes	2.682	n/a	n/a	GoodResponse	1	n/a	n/a	8	73	Blank	Win	True
694.966	1.45	Win2	0.6622	n/a	Yes	2.682	n/a	5.0	GoodResponse	1	0.025	693.991	8	73	Feedback	Win	True
696.42	2.682	Win2	0.6622	n/a	Yes	2.682	n/a	n/a	GoodResponse	1	0.0	n/a	8	73	ISIslide	Win	True
699.129	0.25	Lose2	0.6533	0.0	No	2.621	0.029	2.0	NoResponse	-1	0.167	698.296	7	74	Cue	Loss	False
699.296	0.3	Lose2	0.6533	0.0	No	2.621	0.029	2.0	NoResponse	-1	0.167	n/a	7	74	ButtonPress	Loss	False
699.379	4.05	Lose2	0.6533	0.0	No	2.621	0.0	2.0	NoResponse	-1	4.008	702.387	7	74	Fixation	Loss	False
703.387	0.3	Lose2	0.6533	0.0	No	2.621	0.0	2.0	NoResponse	-1	4.008	n/a	7	74	ButtonPress	Loss	False
703.425	0.23	Lose2	0.6533	0.004	No	2.621	-0.004	n/a	NoResponse	-1	n/a	n/a	7	74	Target	Loss	False
703.659	0.47	Lose2	0.6533	n/a	No	2.621	n/a	n/a	NoResponse	-1	n/a	n/a	7	74	Blank	Loss	False
704.127	1.45	Lose2	0.6533	n/a	No	2.621	n/a	5.0	NoResponse	-1	0.034	703.161	7	74	Feedback	Loss	False
705.581	2.621	Lose2	0.6533	n/a	No	2.621	n/a	n/a	NoResponse	-1	0.0	n/a	7	74	ISIslide	Loss	False
708.222	0.25	Lose2	0.6579	0.001	Yes	2.928	0.022	2.0	GoodResponse	0	0.237	707.459	7	75	Cue	AvoidedLoss	False
708.459	0.3	Lose2	0.6579	0.001	Yes	2.928	0.022	2.0	GoodResponse	0	0.237	n/a	7	75	ButtonPress	AvoidedLoss	False
708.473	3.95	Lose2	0.6579	0.0	Yes	2.928	0.001	n/a	GoodResponse	0	n/a	n/a	7	75	Fixation	AvoidedLoss	False
712.418	0.24	Lose2	0.6579	0.004	Yes	2.928	-0.004	2.0	GoodResponse	0	0.182	711.6	7	75	Target	AvoidedLoss	False
712.6	0.3	Lose2	0.6579	0.004	Yes	2.928	-0.004	2.0	GoodResponse	0	0.182	n/a	7	75	ButtonPress	AvoidedLoss	False
712.669	0.46	Lose2	0.6579	n/a	Yes	2.928	n/a	n/a	GoodResponse	0	n/a	n/a	7	75	Blank	AvoidedLoss	False
713.12	1.45	Lose2	0.6579	n/a	Yes	2.928	n/a	5.0	GoodResponse	0	0.016	712.136	7	75	Feedback	AvoidedLoss	False
714.575	2.928	Lose2	0.6579	n/a	Yes	2.928	n/a	n/a	GoodResponse	0	0.0	n/a	7	75	ISIslide	AvoidedLoss	False
717.517	0.25	Control	0.6623	0.0	Yes	3.233	0.017	2.0	GoodResponse	0	0.186	716.703	7	76	Cue	Neutral	False
717.703	0.3	Control	0.6623	0.0	Yes	3.233	0.017	2.0	GoodResponse	0	0.186	n/a	7	76	ButtonPress	Neutral	False
717.768	4.05	Control	0.6623	0.0	Yes	3.233	0.001	n/a	GoodResponse	0	n/a	n/a	7	76	Fixation	Neutral	False
721.813	0.24	Control	0.6623	0.004	Yes	3.233	-0.004	2.0	GoodResponse	0	0.199	721.012	7	76	Target	Neutral	False
722.012	0.3	Control	0.6623	0.004	Yes	3.233	-0.004	2.0	GoodResponse	0	0.199	n/a	7	76	ButtonPress	Neutral	False
722.064	0.46	Control	0.6623	n/a	Yes	3.233	n/a	n/a	GoodResponse	0	n/a	n/a	7	76	Blank	Neutral	False
722.515	1.45	Control	0.6623	n/a	Yes	3.233	n/a	5.0	GoodResponse	0	0.036	721.551	7	76	Feedback	Neutral	False
723.97	3.233	Control	0.6623	n/a	Yes	3.233	n/a	n/a	GoodResponse	0	0.0	n/a	7	76	ISIslide	Neutral	False
727.229	0.25	Lose2	0.6537999999999999	0.0	No	2.571	0.029	2.0	NoResponse	-1	0.18	726.409	6	77	Cue	Loss	False
727.409	0.3	Lose2	0.6537999999999999	0.0	No	2.571	0.029	2.0	NoResponse	-1	0.18	n/a	6	77	ButtonPress	Loss	False
727.48	3.95	Lose2	0.6537999999999999	0.0	No	2.571	0.001	2.0	NoResponse	-1	3.864	730.344	6	77	Fixation	Loss	False
731.344	0.3	Lose2	0.6537999999999999	0.0	No	2.571	0.001	2.0	NoResponse	-1	3.864	n/a	6	77	ButtonPress	Loss	False
731.425	0.24	Lose2	0.6537999999999999	0.004	No	2.571	-0.004	n/a	NoResponse	-1	n/a	n/a	6	77	Target	Loss	False
731.676	0.46	Lose2	0.6537999999999999	n/a	No	2.571	n/a	n/a	NoResponse	-1	n/a	n/a	6	77	Blank	Loss	False
732.127	1.45	Lose2	0.6537999999999999	n/a	No	2.571	n/a	5.0	NoResponse	-1	0.034	731.161	6	77	Feedback	Loss	False
733.582	2.571	Lose2	0.6537999999999999	n/a	No	2.571	n/a	n/a	NoResponse	-1	0.0	n/a	6	77	ISIslide	Loss	False
