onset	duration	cue_type	current_mean_accuracy	duration_error	is_hit	isi_adjusted	onset_delay	response	response_type	reward	rt	rt_time	total_reward	trial_number	trial_phase	trial_type	one_press
11.106	0.25	Control	1.0	0.0	Yes	2.944	0.006	n/a	GoodResponse	0	n/a	n/a	0	0	Cue	Neutral	True
11.356	3.85	Control	1.0	0.0	Yes	2.944	0.0	n/a	GoodResponse	0	n/a	n/a	0	0	Fixation	Neutral	True
15.205	0.4	Control	1.0	0.001	Yes	2.944	-0.001	2.0	GoodResponse	0	0.254	14.458999999999996	0	0	Target	Neutral	True
15.459	0.3	Control	1.0	0.001	Yes	2.944	-0.001	2.0	GoodResponse	0	0.254	n/a	0	0	ButtonPress	Neutral	True
15.605	0.3	Control	1.0	n/a	Yes	2.944	n/a	n/a	GoodResponse	0	n/a	n/a	0	0	Blank	Neutral	True
15.905	1.45	Control	1.0	n/a	Yes	2.944	n/a	5.0	GoodResponse	0	0.024	14.928999999999997	0	0	Feedback	Neutral	True
17.354	2.944	Control	1.0	n/a	Yes	2.944	n/a	n/a	GoodResponse	0	0.0	n/a	0	0	ISIslide	Neutral	True
20.32	0.25	Lose2	1.0	0.0	Yes	2.78	0.02	n/a	GoodResponse	0	n/a	n/a	0	1	Cue	AvoidedLoss	True
20.57	4.0	Lose2	1.0	0.0	Yes	2.78	0.0	n/a	GoodResponse	0	n/a	n/a	0	1	Fixation	AvoidedLoss	True
24.568	0.39	Lose2	1.0	0.002	Yes	2.78	-0.002	2.0	GoodResponse	0	0.256	23.823999999999998	0	1	Target	AvoidedLoss	True
24.824	0.3	Lose2	1.0	0.002	Yes	2.78	-0.002	2.0	GoodResponse	0	0.256	n/a	0	1	ButtonPress	AvoidedLoss	True
24.968	0.31	Lose2	1.0	n/a	Yes	2.78	n/a	n/a	GoodResponse	0	n/a	n/a	0	1	Blank	AvoidedLoss	True
25.268	1.45	Lose2	1.0	n/a	Yes	2.78	n/a	5.0	GoodResponse	0	0.027	24.294999999999995	0	1	Feedback	AvoidedLoss	True
26.718	2.78	Lose2	1.0	n/a	Yes	2.78	n/a	n/a	GoodResponse	0	0.0	n/a	0	1	ISIslide	AvoidedLoss	True
29.517	0.25	Control	1.0	0.0	Yes	2.583	0.017	n/a	GoodResponse	0	n/a	n/a	0	2	Cue	Neutral	True
29.766	4.1	Control	1.0	0.001	Yes	2.583	-0.001	n/a	GoodResponse	0	n/a	n/a	0	2	Fixation	Neutral	True
33.865	0.38	Control	1.0	0.002	Yes	2.583	-0.002	2.0	GoodResponse	0	0.186	33.051	0	2	Target	Neutral	True
34.051	0.3	Control	1.0	0.002	Yes	2.583	-0.002	2.0	GoodResponse	0	0.186	n/a	0	2	ButtonPress	Neutral	True
34.248	0.32	Control	1.0	n/a	Yes	2.583	n/a	n/a	GoodResponse	0	n/a	n/a	0	2	Blank	Neutral	True
34.565	1.45	Control	1.0	n/a	Yes	2.583	n/a	5.0	GoodResponse	0	0.046	33.611	0	2	Feedback	Neutral	True
36.014	2.583	Control	1.0	n/a	Yes	2.583	n/a	n/a	GoodResponse	0	0.0	n/a	0	2	ISIslide	Neutral	True
38.613	0.25	Win2	1.0	0.0	Yes	2.837	0.013	n/a	GoodResponse	1	n/a	n/a	1	3	Cue	Win	True
38.863	3.95	Win2	1.0	0.0	Yes	2.837	0.0	n/a	GoodResponse	1	n/a	n/a	1	3	Fixation	Win	True
42.812	0.37	Win2	1.0	0.001	Yes	2.837	-0.001	2.0	GoodResponse	1	0.194	42.006	1	3	Target	Win	True
43.006	0.3	Win2	1.0	0.001	Yes	2.837	-0.001	2.0	GoodResponse	1	0.194	n/a	1	3	ButtonPress	Win	True
43.178	0.33	Win2	1.0	n/a	Yes	2.837	n/a	n/a	GoodResponse	1	n/a	n/a	1	3	Blank	Win	True
43.512	1.45	Win2	1.0	n/a	Yes	2.837	n/a	5.0	GoodResponse	1	0.026	42.538	1	3	Feedback	Win	True
44.961	2.837	Win2	1.0	n/a	Yes	2.837	n/a	n/a	GoodResponse	1	0.0	n/a	1	3	ISIslide	Win	True
47.827	0.25	Win2	1.0	0.0	Yes	3.273	0.027	n/a	GoodResponse	1	n/a	n/a	2	4	Cue	Win	True
48.077	4.0	Win2	1.0	0.0	Yes	3.273	0.0	n/a	GoodResponse	1	n/a	n/a	2	4	Fixation	Win	True
52.075	0.36	Win2	1.0	0.002	Yes	3.273	-0.002	2.0	GoodResponse	1	0.184	51.259	2	4	Target	Win	True
52.259	0.3	Win2	1.0	0.002	Yes	3.273	-0.002	2.0	GoodResponse	1	0.184	n/a	2	4	ButtonPress	Win	True
52.442	0.34	Win2	1.0	n/a	Yes	3.273	n/a	n/a	GoodResponse	1	n/a	n/a	2	4	Blank	Win	True
52.775	1.45	Win2	1.0	n/a	Yes	3.273	n/a	5.0	GoodResponse	1	0.032	51.807	2	4	Feedback	Win	True
54.225	3.273	Win2	1.0	n/a	Yes	3.273	n/a	n/a	GoodResponse	1	0.0	n/a	2	4	ISIslide	Win	True
57.523	0.25	Win2	1.0	0.001	Yes	2.777	0.023	n/a	GoodResponse	1	n/a	n/a	3	5	Cue	Win	True
57.773	4.0	Win2	1.0	0.0	Yes	2.777	0.0	n/a	GoodResponse	1	n/a	n/a	3	5	Fixation	Win	True
61.772	0.35	Win2	1.0	0.001	Yes	2.777	-0.001	2.0	GoodResponse	1	0.245	61.017	3	5	Target	Win	True
62.017	0.3	Win2	1.0	0.001	Yes	2.777	-0.001	2.0	GoodResponse	1	0.245	n/a	3	5	ButtonPress	Win	True
62.122	0.35	Win2	1.0	n/a	Yes	2.777	n/a	n/a	GoodResponse	1	n/a	n/a	3	5	Blank	Win	True
62.472	1.45	Win2	1.0	n/a	Yes	2.777	n/a	5.0	GoodResponse	1	0.042	61.514	3	5	Feedback	Win	True
63.921	2.777	Win2	1.0	n/a	Yes	2.777	n/a	n/a	GoodResponse	1	0.0	n/a	3	5	ISIslide	Win	True
66.72	0.25	Lose2	1.0	0.0	Yes	2.73	0.02	n/a	GoodResponse	0	n/a	n/a	3	6	Cue	AvoidedLoss	True
66.97	3.95	Lose2	1.0	0.0	Yes	2.73	0.0	n/a	GoodResponse	0	n/a	n/a	3	6	Fixation	AvoidedLoss	True
70.919	0.34	Lose2	1.0	0.001	Yes	2.73	-0.001	2.0	GoodResponse	0	0.19	70.109	3	6	Target	AvoidedLoss	True
71.109	0.3	Lose2	1.0	0.001	Yes	2.73	-0.001	2.0	GoodResponse	0	0.19	n/a	3	6	ButtonPress	AvoidedLoss	True
71.269	0.36	Lose2	1.0	n/a	Yes	2.73	n/a	n/a	GoodResponse	0	n/a	n/a	3	6	Blank	AvoidedLoss	True
71.619	1.45	Lose2	1.0	n/a	Yes	2.73	n/a	5.0	GoodResponse	0	0.017	70.636	3	6	Feedback	AvoidedLoss	True
73.068	2.73	Lose2	1.0	n/a	Yes	2.73	n/a	n/a	GoodResponse	0	0.0	n/a	3	6	ISIslide	AvoidedLoss	True
75.817	0.25	Lose2	1.0	0.0	Yes	4.033	0.017	n/a	GoodResponse	0	n/a	n/a	3	7	Cue	AvoidedLoss	True
76.067	4.05	Lose2	1.0	0.0	Yes	4.033	0.0	n/a	GoodResponse	0	n/a	n/a	3	7	Fixation	AvoidedLoss	True
80.116	0.33	Lose2	1.0	0.001	Yes	4.033	-0.001	2.0	GoodResponse	0	0.173	79.289	3	7	Target	AvoidedLoss	True
80.289	0.3	Lose2	1.0	0.001	Yes	4.033	-0.001	2.0	GoodResponse	0	0.173	n/a	3	7	ButtonPress	AvoidedLoss	True
80.449	0.37	Lose2	1.0	n/a	Yes	4.033	n/a	n/a	GoodResponse	0	n/a	n/a	3	7	Blank	AvoidedLoss	True
80.815	1.45	Lose2	1.0	n/a	Yes	4.033	n/a	5.0	GoodResponse	0	0.04	79.855	3	7	Feedback	AvoidedLoss	True
82.265	4.033	Lose2	1.0	n/a	Yes	4.033	n/a	n/a	GoodResponse	0	0.0	n/a	3	7	ISIslide	AvoidedLoss	True
86.313	0.25	Lose2	1.0	0.0	Yes	3.037	0.013	n/a	GoodResponse	0	n/a	n/a	3	8	Cue	AvoidedLoss	True
86.563	3.95	Lose2	1.0	0.0	Yes	3.037	0.0	n/a	GoodResponse	0	n/a	n/a	3	8	Fixation	AvoidedLoss	True
90.512	0.32	Lose2	1.0	0.001	Yes	3.037	-0.001	2.0	GoodResponse	0	0.173	89.685	3	8	Target	AvoidedLoss	True
90.685	0.3	Lose2	1.0	0.001	Yes	3.037	-0.001	2.0	GoodResponse	0	0.173	n/a	3	8	ButtonPress	AvoidedLoss	True
90.828	0.38	Lose2	1.0	n/a	Yes	3.037	n/a	n/a	GoodResponse	0	n/a	n/a	3	8	Blank	AvoidedLoss	True
91.212	1.45	Lose2	1.0	n/a	Yes	3.037	n/a	5.0	GoodResponse	0	0.033	90.245	3	8	Feedback	AvoidedLoss	True
92.661	3.037	Lose2	1.0	n/a	Yes	3.037	n/a	n/a	GoodResponse	0	0.0	n/a	3	8	ISIslide	AvoidedLoss	True
95.727	0.25	Lose2	0.9	0.0	No	3.123	0.027	n/a	NoResponse	-1	n/a	n/a	2	9	Cue	Loss	True
95.977	3.95	Lose2	0.9	0.0	No	3.123	0.0	n/a	NoResponse	-1	n/a	n/a	2	9	Fixation	Loss	True
99.925	0.31	Lose2	0.9	0.002	No	3.123	-0.002	2.0	NoResponse	-1	0.439	99.364	2	9	Target	Loss	True
100.242	0.39	Lose2	0.9	n/a	No	3.123	n/a	n/a	NoResponse	-1	n/a	n/a	2	9	Blank	Loss	True
100.364	0.3	Lose2	0.9	0.002	No	3.123	-0.002	2.0	NoResponse	-1	0.439	n/a	2	9	ButtonPress	Loss	True
100.625	1.45	Lose2	0.9	n/a	No	3.123	n/a	5.0	NoResponse	-1	0.035	99.66	2	9	Feedback	Loss	True
102.075	3.123	Lose2	0.9	n/a	No	3.123	n/a	n/a	NoResponse	-1	0.0	n/a	2	9	ISIslide	Loss	True
105.223	0.25	Control	0.9091	0.001	Yes	3.277	0.023	n/a	GoodResponse	0	n/a	n/a	2	10	Cue	Neutral	False
105.473	4.0	Control	0.9091	0.0	Yes	3.277	0.0	2.0	GoodResponse	0	2.857	107.33	2	10	Fixation	Neutral	False
108.33	0.3	Control	0.9091	0.0	Yes	3.277	0.0	2.0	GoodResponse	0	2.857	n/a	2	10	ButtonPress	Neutral	False
109.472	0.3	Control	0.9091	0.001	Yes	3.277	-0.001	2.0	GoodResponse	0	0.237	108.709	2	10	Target	Neutral	False
109.709	0.3	Control	0.9091	0.001	Yes	3.277	-0.001	2.0	GoodResponse	0	0.237	n/a	2	10	ButtonPress	Neutral	False
109.772	0.4	Control	0.9091	n/a	Yes	3.277	n/a	n/a	GoodResponse	0	n/a	n/a	2	10	Blank	Neutral	False
110.172	1.45	Control	0.9091	n/a	Yes	3.277	n/a	5.0	GoodResponse	0	0.0	109.172	2	10	Feedback	Neutral	False
111.621	3.277	Control	0.9091	n/a	Yes	3.277	n/a	n/a	GoodResponse	0	0.0	n/a	2	10	ISIslide	Neutral	False
114.92	0.25	Lose2	0.9167000000000001	0.0	Yes	2.73	0.02	n/a	GoodResponse	0	n/a	n/a	2	11	Cue	AvoidedLoss	True
115.17	4.05	Lose2	0.9167000000000001	0.0	Yes	2.73	0.0	n/a	GoodResponse	0	n/a	n/a	2	11	Fixation	AvoidedLoss	True
119.219	0.29	Lose2	0.9167000000000001	0.001	Yes	2.73	-0.001	2.0	GoodResponse	0	0.202	118.421	2	11	Target	AvoidedLoss	True
119.421	0.3	Lose2	0.9167000000000001	0.001	Yes	2.73	-0.001	2.0	GoodResponse	0	0.202	n/a	2	11	ButtonPress	AvoidedLoss	True
119.518	0.41	Lose2	0.9167000000000001	n/a	Yes	2.73	n/a	n/a	GoodResponse	0	n/a	n/a	2	11	Blank	AvoidedLoss	True
119.918	1.45	Lose2	0.9167000000000001	n/a	Yes	2.73	n/a	5.0	GoodResponse	0	0.011	118.929	2	11	Feedback	AvoidedLoss	True
121.368	2.73	Lose2	0.9167000000000001	n/a	Yes	2.73	n/a	n/a	GoodResponse	0	0.0	n/a	2	11	ISIslide	AvoidedLoss	True
124.117	0.25	Control	0.9231	0.0	Yes	2.983	0.017	n/a	GoodResponse	0	n/a	n/a	2	12	Cue	Neutral	True
124.367	3.9	Control	0.9231	0.0	Yes	2.983	0.0	n/a	GoodResponse	0	n/a	n/a	2	12	Fixation	Neutral	True
128.265	0.28	Control	0.9231	0.002	Yes	2.983	-0.002	2.0	GoodResponse	0	0.252	127.517	2	12	Target	Neutral	True
128.517	0.3	Control	0.9231	0.002	Yes	2.983	-0.002	2.0	GoodResponse	0	0.252	n/a	2	12	ButtonPress	Neutral	True
128.549	0.42	Control	0.9231	n/a	Yes	2.983	n/a	n/a	GoodResponse	0	n/a	n/a	2	12	Blank	Neutral	True
128.965	1.45	Control	0.9231	n/a	Yes	2.983	n/a	5.0	GoodResponse	0	0.037	128.002	2	12	Feedback	Neutral	True
130.415	2.983	Control	0.9231	n/a	Yes	2.983	n/a	n/a	GoodResponse	0	0.0	n/a	2	12	ISIslide	Neutral	True
133.414	0.25	Control	0.9286	0.0	Yes	2.786	0.014	n/a	GoodResponse	0	n/a	n/a	2	13	Cue	Neutral	True
133.664	4.0	Control	0.9286	0.0	Yes	2.786	0.0	n/a	GoodResponse	0	n/a	n/a	2	13	Fixation	Neutral	True
137.662	0.27	Control	0.9286	0.002	Yes	2.786	-0.002	2.0	GoodResponse	0	0.206	136.868	2	13	Target	Neutral	True
137.868	0.3	Control	0.9286	0.002	Yes	2.786	-0.002	2.0	GoodResponse	0	0.206	n/a	2	13	ButtonPress	Neutral	True
137.945	0.43	Control	0.9286	n/a	Yes	2.786	n/a	n/a	GoodResponse	0	n/a	n/a	2	13	Blank	Neutral	True
138.362	1.45	Control	0.9286	n/a	Yes	2.786	n/a	5.0	GoodResponse	0	0.006	137.368	2	13	Feedback	Neutral	True
139.811	2.786	Control	0.9286	n/a	Yes	2.786	n/a	n/a	GoodResponse	0	0.0	n/a	2	13	ISIslide	Neutral	True
142.627	0.25	Win2	0.9333	0.0	Yes	2.673	0.027	n/a	GoodResponse	1	n/a	n/a	3	14	Cue	Win	True
142.877	4.1	Win2	0.9333	0.0	Yes	2.673	0.0	n/a	GoodResponse	1	n/a	n/a	3	14	Fixation	Win	True
146.976	0.26	Win2	0.9333	0.001	Yes	2.673	-0.001	2.0	GoodResponse	1	0.148	146.124	3	14	Target	Win	True
147.124	0.3	Win2	0.9333	0.001	Yes	2.673	-0.001	2.0	GoodResponse	1	0.148	n/a	3	14	ButtonPress	Win	True
147.242	0.44	Win2	0.9333	n/a	Yes	2.673	n/a	n/a	GoodResponse	1	n/a	n/a	3	14	Blank	Win	True
147.675	1.45	Win2	0.9333	n/a	Yes	2.673	n/a	5.0	GoodResponse	1	0.009	146.684	3	14	Feedback	Win	True
149.125	2.673	Win2	0.9333	n/a	Yes	2.673	n/a	n/a	GoodResponse	1	0.0	n/a	3	14	ISIslide	Win	True
151.824	0.25	Control	0.9375	0.0	Yes	2.976	0.024	n/a	GoodResponse	0	n/a	n/a	3	15	Cue	Neutral	True
152.074	4.0	Control	0.9375	0.0	Yes	2.976	0.0	n/a	GoodResponse	0	n/a	n/a	3	15	Fixation	Neutral	True
156.072	0.25	Control	0.9375	0.002	Yes	2.976	-0.002	2.0	GoodResponse	0	0.195	155.267	3	15	Target	Neutral	True
156.267	0.3	Control	0.9375	0.002	Yes	2.976	-0.002	2.0	GoodResponse	0	0.195	n/a	3	15	ButtonPress	Neutral	True
156.322	0.45	Control	0.9375	n/a	Yes	2.976	n/a	n/a	GoodResponse	0	n/a	n/a	3	15	Blank	Neutral	True
156.772	1.45	Control	0.9375	n/a	Yes	2.976	n/a	5.0	GoodResponse	0	0.034	155.806	3	15	Feedback	Neutral	True
158.222	2.976	Control	0.9375	n/a	Yes	2.976	n/a	n/a	GoodResponse	0	0.0	n/a	3	15	ISIslide	Neutral	True
161.221	0.25	Win2	0.9412	0.0	Yes	2.879	0.021	n/a	GoodResponse	1	n/a	n/a	4	16	Cue	Win	False
161.47	4.0	Win2	0.9412	0.001	Yes	2.879	-0.001	2.0	GoodResponse	1	3.608	164.078	4	16	Fixation	Win	False
165.078	0.3	Win2	0.9412	0.001	Yes	2.879	-0.001	2.0	GoodResponse	1	3.608	n/a	4	16	ButtonPress	Win	False
165.469	0.24	Win2	0.9412	0.002	Yes	2.879	-0.002	2.0	GoodResponse	1	0.186	164.655	4	16	Target	Win	False
165.655	0.3	Win2	0.9412	0.002	Yes	2.879	-0.002	2.0	GoodResponse	1	0.186	n/a	4	16	ButtonPress	Win	False
165.719	0.46	Win2	0.9412	n/a	Yes	2.879	n/a	n/a	GoodResponse	1	n/a	n/a	4	16	Blank	Win	False
166.169	1.45	Win2	0.9412	n/a	Yes	2.879	n/a	5.0	GoodResponse	1	0.007	165.176	4	16	Feedback	Win	False
167.618	2.879	Win2	0.9412	n/a	Yes	2.879	n/a	n/a	GoodResponse	1	0.0	n/a	4	16	ISIslide	Win	False
170.517	0.25	Lose2	0.9444	0.0	Yes	2.733	0.017	n/a	GoodResponse	0	n/a	n/a	4	17	Cue	AvoidedLoss	True
170.767	3.95	Lose2	0.9444	0.0	Yes	2.733	0.0	n/a	GoodResponse	0	n/a	n/a	4	17	Fixation	AvoidedLoss	True
174.716	0.23	Lose2	0.9444	0.001	Yes	2.733	-0.001	2.0	GoodResponse	0	0.186	173.902	4	17	Target	AvoidedLoss	True
174.902	0.3	Lose2	0.9444	0.001	Yes	2.733	-0.001	2.0	GoodResponse	0	0.186	n/a	4	17	ButtonPress	AvoidedLoss	True
174.949	0.47	Lose2	0.9444	n/a	Yes	2.733	n/a	n/a	GoodResponse	0	n/a	n/a	4	17	Blank	AvoidedLoss	True
175.416	1.45	Lose2	0.9444	n/a	Yes	2.733	n/a	5.0	GoodResponse	0	0.025	174.441	4	17	Feedback	AvoidedLoss	True
176.865	2.733	Lose2	0.9444	n/a	Yes	2.733	n/a	n/a	GoodResponse	0	0.0	n/a	4	17	ISIslide	AvoidedLoss	True
179.614	0.25	Lose2	0.9473999999999999	0.0	Yes	2.736	0.014	n/a	GoodResponse	0	n/a	n/a	4	18	Cue	AvoidedLoss	True
179.864	4.05	Lose2	0.9473999999999999	0.0	Yes	2.736	0.0	n/a	GoodResponse	0	n/a	n/a	4	18	Fixation	AvoidedLoss	True
183.913	0.22	Lose2	0.9473999999999999	0.001	Yes	2.736	-0.001	2.0	GoodResponse	0	0.18	183.093	4	18	Target	AvoidedLoss	True
184.093	0.3	Lose2	0.9473999999999999	0.001	Yes	2.736	-0.001	2.0	GoodResponse	0	0.18	n/a	4	18	ButtonPress	AvoidedLoss	True
184.146	0.48	Lose2	0.9473999999999999	n/a	Yes	2.736	n/a	n/a	GoodResponse	0	n/a	n/a	4	18	Blank	AvoidedLoss	True
184.612	1.45	Lose2	0.9473999999999999	n/a	Yes	2.736	n/a	5.0	GoodResponse	0	0.047	183.659	4	18	Feedback	AvoidedLoss	True
186.062	2.736	Lose2	0.9473999999999999	n/a	Yes	2.736	n/a	n/a	GoodResponse	0	0.0	n/a	4	18	ISIslide	AvoidedLoss	True
188.828	0.25	Control	0.9	0.0	No	2.922	0.028	n/a	NoResponse	0	n/a	n/a	4	19	Cue	Neutral	True
189.078	3.95	Control	0.9	0.0	No	2.922	0.0	n/a	NoResponse	0	n/a	n/a	4	19	Fixation	Neutral	True
193.026	0.21	Control	0.9	0.002	No	2.922	-0.002	2.0	NoResponse	0	0.345	192.371	4	19	Target	Neutral	True
193.243	0.49	Control	0.9	n/a	No	2.922	n/a	n/a	NoResponse	0	n/a	n/a	4	19	Blank	Neutral	True
193.371	0.3	Control	0.9	0.002	No	2.922	-0.002	2.0	NoResponse	0	0.345	n/a	4	19	ButtonPress	Neutral	True
193.726	1.45	Control	0.9	n/a	No	2.922	n/a	5.0	NoResponse	0	0.007	192.733	4	19	Feedback	Neutral	True
195.175	2.922	Control	0.9	n/a	No	2.922	n/a	n/a	NoResponse	0	0.0	n/a	4	19	ISIslide	Neutral	True
198.124	0.25	Control	0.9048	0.001	Yes	2.626	0.024	n/a	GoodResponse	0	n/a	n/a	4	20	Cue	Neutral	True
198.374	4.05	Control	0.9048	0.0	Yes	2.626	0.0	n/a	GoodResponse	0	n/a	n/a	4	20	Fixation	Neutral	True
202.423	0.2	Control	0.9048	0.001	Yes	2.626	-0.001	2.0	GoodResponse	0	0.171	201.594	4	20	Target	Neutral	True
202.594	0.3	Control	0.9048	0.001	Yes	2.626	-0.001	2.0	GoodResponse	0	0.171	n/a	4	20	ButtonPress	Neutral	True
202.623	0.5	Control	0.9048	n/a	Yes	2.626	n/a	n/a	GoodResponse	0	n/a	n/a	4	20	Blank	Neutral	True
203.123	1.45	Control	0.9048	n/a	Yes	2.626	n/a	5.0	GoodResponse	0	0.024	202.147	4	20	Feedback	Neutral	True
204.572	2.626	Control	0.9048	n/a	Yes	2.626	n/a	n/a	GoodResponse	0	0.0	n/a	4	20	ISIslide	Neutral	True
207.221	0.25	Control	0.8636	0.0	No	2.779	0.021	n/a	NoResponse	0	n/a	n/a	4	21	Cue	Neutral	True
207.471	4.1	Control	0.8636	0.0	No	2.779	0.0	n/a	NoResponse	0	n/a	n/a	4	21	Fixation	Neutral	True
211.57	0.19	Control	0.8636	0.001	No	2.779	-0.001	2.0	NoResponse	0	0.221	210.791	4	21	Target	Neutral	True
211.77	0.51	Control	0.8636	n/a	No	2.779	n/a	n/a	NoResponse	0	n/a	n/a	4	21	Blank	Neutral	True
211.791	0.3	Control	0.8636	0.001	No	2.779	-0.001	2.0	NoResponse	0	0.221	n/a	4	21	ButtonPress	Neutral	True
212.269	1.45	Control	0.8636	n/a	No	2.779	n/a	5.0	NoResponse	0	0.049	211.318	4	21	Feedback	Neutral	True
213.719	2.779	Control	0.8636	n/a	No	2.779	n/a	n/a	NoResponse	0	0.0	n/a	4	21	ISIslide	Neutral	True
216.518	0.25	Control	0.8261	0.0	No	2.782	0.018	n/a	NoResponse	0	n/a	n/a	4	22	Cue	Neutral	True
216.768	4.0	Control	0.8261	0.0	No	2.782	0.0	n/a	NoResponse	0	n/a	n/a	4	22	Fixation	Neutral	True
220.766	0.18	Control	0.8261	0.002	No	2.782	-0.002	2.0	NoResponse	0	0.206	219.972	4	22	Target	Neutral	True
220.95	0.52	Control	0.8261	n/a	No	2.782	n/a	n/a	NoResponse	0	n/a	n/a	4	22	Blank	Neutral	True
220.972	0.3	Control	0.8261	0.002	No	2.782	-0.002	2.0	NoResponse	0	0.206	n/a	4	22	ButtonPress	Neutral	True
221.466	1.45	Control	0.8261	n/a	No	2.782	n/a	5.0	NoResponse	0	0.023	220.489	4	22	Feedback	Neutral	True
222.916	2.782	Control	0.8261	n/a	No	2.782	n/a	n/a	NoResponse	0	0.0	n/a	4	22	ISIslide	Neutral	True
225.715	0.25	Control	0.7917000000000001	0.0	No	2.785	0.015	n/a	NoResponse	0	n/a	n/a	4	23	Cue	Neutral	True
225.965	3.9	Control	0.7917000000000001	0.0	No	2.785	0.0	n/a	NoResponse	0	n/a	n/a	4	23	Fixation	Neutral	True
229.863	0.17	Control	0.7917000000000001	0.002	No	2.785	-0.002	2.0	NoResponse	0	0.29	229.153	4	23	Target	Neutral	True
230.047	0.53	Control	0.7917000000000001	n/a	No	2.785	n/a	n/a	NoResponse	0	n/a	n/a	4	23	Blank	Neutral	True
230.153	0.3	Control	0.7917000000000001	0.002	No	2.785	-0.002	2.0	NoResponse	0	0.29	n/a	4	23	ButtonPress	Neutral	True
230.563	1.45	Control	0.7917000000000001	n/a	No	2.785	n/a	5.0	NoResponse	0	0.048	229.611	4	23	Feedback	Neutral	True
232.013	2.785	Control	0.7917000000000001	n/a	No	2.785	n/a	n/a	NoResponse	0	0.0	n/a	4	23	ISIslide	Neutral	True
234.828	0.25	Win2	0.76	0.0	No	3.122	0.028	n/a	NoResponse	0	n/a	n/a	4	24	Cue	MissedWin	True
235.078	3.95	Win2	0.76	0.0	No	3.122	0.0	n/a	NoResponse	0	n/a	n/a	4	24	Fixation	MissedWin	True
239.027	0.16	Win2	0.76	0.001	No	3.122	-0.001	2.0	NoResponse	0	0.183	238.21	4	24	Target	MissedWin	True
239.193	0.54	Win2	0.76	n/a	No	3.122	n/a	n/a	NoResponse	0	n/a	n/a	4	24	Blank	MissedWin	True
239.21	0.3	Win2	0.76	0.001	No	3.122	-0.001	2.0	NoResponse	0	0.183	n/a	4	24	ButtonPress	MissedWin	True
239.727	1.45	Win2	0.76	n/a	No	3.122	n/a	5.0	NoResponse	0	0.005	238.732	4	24	Feedback	MissedWin	True
241.176	3.122	Win2	0.76	n/a	No	3.122	n/a	n/a	NoResponse	0	0.0	n/a	4	24	ISIslide	MissedWin	True
244.325	0.25	Win2	0.7308	0.0	No	3.075	0.025	n/a	NoResponse	0	n/a	n/a	4	25	Cue	MissedWin	True
244.575	4.0	Win2	0.7308	0.0	No	3.075	0.0	n/a	NoResponse	0	n/a	n/a	4	25	Fixation	MissedWin	True
248.573	0.15	Win2	0.7308	0.002	No	3.075	-0.002	2.0	NoResponse	0	0.179	247.752	4	25	Target	MissedWin	True
248.723	0.55	Win2	0.7308	n/a	No	3.075	n/a	n/a	NoResponse	0	n/a	n/a	4	25	Blank	MissedWin	True
248.752	0.3	Win2	0.7308	0.002	No	3.075	-0.002	2.0	NoResponse	0	0.179	n/a	4	25	ButtonPress	MissedWin	True
249.273	1.45	Win2	0.7308	n/a	No	3.075	n/a	5.0	NoResponse	0	0.02	248.293	4	25	Feedback	MissedWin	True
250.723	3.075	Win2	0.7308	n/a	No	3.075	n/a	n/a	NoResponse	0	0.0	n/a	4	25	ISIslide	MissedWin	True
253.822	0.25	Win2	0.7037	0.0	No	2.928	0.022	n/a	NoResponse	0	n/a	n/a	4	26	Cue	MissedWin	False
254.072	3.95	Win2	0.7037	0.0	No	2.928	0.0	2.0	NoResponse	0	3.163	256.235	4	26	Fixation	MissedWin	False
257.235	0.3	Win2	0.7037	0.0	No	2.928	0.0	2.0	NoResponse	0	3.163	n/a	4	26	ButtonPress	MissedWin	False
258.02	0.15	Win2	0.7037	0.002	No	2.928	-0.002	2.0	NoResponse	0	0.186	257.206	4	26	Target	MissedWin	False
258.17	0.55	Win2	0.7037	n/a	No	2.928	n/a	n/a	NoResponse	0	n/a	n/a	4	26	Blank	MissedWin	False
258.206	0.3	Win2	0.7037	0.002	No	2.928	-0.002	2.0	NoResponse	0	0.186	n/a	4	26	ButtonPress	MissedWin	False
258.72	1.45	Win2	0.7037	n/a	No	2.928	n/a	5.0	NoResponse	0	0.037	257.757	4	26	Feedback	MissedWin	False
260.169	2.928	Win2	0.7037	n/a	No	2.928	n/a	n/a	NoResponse	0	0.0	n/a	4	26	ISIslide	MissedWin	False
263.118	0.25	Lose2	0.6786	0.0	No	2.832	0.018	n/a	NoResponse	-1	n/a	n/a	3	27	Cue	Loss	True
263.368	4.05	Lose2	0.6786	0.0	No	2.832	0.0	n/a	NoResponse	-1	n/a	n/a	3	27	Fixation	Loss	True
267.417	0.15	Lose2	0.6786	0.001	No	2.832	-0.001	2.0	NoResponse	-1	0.186	266.603	3	27	Target	Loss	True
267.567	0.55	Lose2	0.6786	n/a	No	2.832	n/a	n/a	NoResponse	-1	n/a	n/a	3	27	Blank	Loss	True
267.603	0.3	Lose2	0.6786	0.001	No	2.832	-0.001	2.0	NoResponse	-1	0.186	n/a	3	27	ButtonPress	Loss	True
268.117	1.45	Lose2	0.6786	n/a	No	2.832	n/a	5.0	NoResponse	-1	0.006	267.123	3	27	Feedback	Loss	True
269.566	2.832	Lose2	0.6786	n/a	No	2.832	n/a	n/a	NoResponse	-1	0.0	n/a	3	27	ISIslide	Loss	True
272.415	0.25	Control	0.6552	0.0	No	2.835	0.015	n/a	NoResponse	0	n/a	n/a	3	28	Cue	Neutral	True
272.665	4.05	Control	0.6552	0.0	No	2.835	0.0	n/a	NoResponse	0	n/a	n/a	3	28	Fixation	Neutral	True
276.714	0.15	Control	0.6552	0.001	No	2.835	-0.001	2.0	NoResponse	0	0.265	275.979	3	28	Target	Neutral	True
276.864	0.55	Control	0.6552	n/a	No	2.835	n/a	n/a	NoResponse	0	n/a	n/a	3	28	Blank	Neutral	True
276.979	0.3	Control	0.6552	0.001	No	2.835	-0.001	2.0	NoResponse	0	0.265	n/a	3	28	ButtonPress	Neutral	True
277.413	1.45	Control	0.6552	n/a	No	2.835	n/a	5.0	NoResponse	0	0.027	276.44	3	28	Feedback	Neutral	True
278.863	2.835	Control	0.6552	n/a	No	2.835	n/a	n/a	NoResponse	0	0.0	n/a	3	28	ISIslide	Neutral	True
281.729	0.25	Lose2	0.6333	0.0	No	2.821	0.029	n/a	NoResponse	-1	n/a	n/a	2	29	Cue	Loss	True
281.978	3.95	Lose2	0.6333	0.001	No	2.821	-0.001	n/a	NoResponse	-1	n/a	n/a	2	29	Fixation	Loss	True
285.927	0.15	Lose2	0.6333	0.002	No	2.821	-0.002	2.0	NoResponse	-1	0.172	285.099	2	29	Target	Loss	True
286.077	0.55	Lose2	0.6333	n/a	No	2.821	n/a	n/a	NoResponse	-1	n/a	n/a	2	29	Blank	Loss	True
286.099	0.3	Lose2	0.6333	0.002	No	2.821	-0.002	2.0	NoResponse	-1	0.172	n/a	2	29	ButtonPress	Loss	True
286.627	1.45	Lose2	0.6333	n/a	No	2.821	n/a	5.0	NoResponse	-1	0.031	285.658	2	29	Feedback	Loss	True
288.076	2.821	Lose2	0.6333	n/a	No	2.821	n/a	n/a	NoResponse	-1	0.0	n/a	2	29	ISIslide	Loss	True
290.925	0.25	Win2	0.6129	0.0	No	2.775	0.025	n/a	NoResponse	0	n/a	n/a	2	30	Cue	MissedWin	True
291.175	3.9	Win2	0.6129	0.0	No	2.775	0.0	n/a	NoResponse	0	n/a	n/a	2	30	Fixation	MissedWin	True
295.074	0.16	Win2	0.6129	0.001	No	2.775	-0.001	2.0	NoResponse	0	0.209	294.283	2	30	Target	MissedWin	True
295.24	0.54	Win2	0.6129	n/a	No	2.775	n/a	n/a	NoResponse	0	n/a	n/a	2	30	Blank	MissedWin	True
295.283	0.3	Win2	0.6129	0.001	No	2.775	-0.001	2.0	NoResponse	0	0.209	n/a	2	30	ButtonPress	MissedWin	True
295.774	1.45	Win2	0.6129	n/a	No	2.775	n/a	5.0	NoResponse	0	0.007	294.781	2	30	Feedback	MissedWin	True
297.223	2.775	Win2	0.6129	n/a	No	2.775	n/a	n/a	NoResponse	0	0.0	n/a	2	30	ISIslide	MissedWin	True
300.022	0.25	Lose2	0.5938	0.0	No	2.828	0.022	n/a	LatePress	-1	n/a	n/a	1	31	Cue	Loss	True
300.272	4.05	Lose2	0.5938	0.0	No	2.828	0.0	n/a	LatePress	-1	n/a	n/a	1	31	Fixation	Loss	True
304.321	0.17	Lose2	0.5938	0.001	No	2.828	-0.001	2.0	LatePress	-1	0.175	303.496	1	31	Target	Loss	True
304.496	0.3	Lose2	0.5938	0.001	No	2.828	-0.001	2.0	LatePress	-1	0.175	n/a	1	31	ButtonPress	Loss	True
304.504	0.53	Lose2	0.5938	n/a	No	2.828	n/a	n/a	LatePress	-1	n/a	n/a	1	31	Blank	Loss	True
305.02	1.45	Lose2	0.5938	n/a	No	2.828	n/a	5.0	LatePress	-1	0.029	304.049	1	31	Feedback	Loss	True
306.47	2.828	Lose2	0.5938	n/a	No	2.828	n/a	n/a	LatePress	-1	0.0	n/a	1	31	ISIslide	Loss	True
309.319	0.25	Lose2	0.5758	0.0	No	2.631	0.019	n/a	NoResponse	-1	n/a	n/a	0	32	Cue	Loss	True
309.569	4.15	Lose2	0.5758	0.0	No	2.631	0.0	2.0	NoResponse	-1	4.106	312.675	0	32	Fixation	Loss	True
313.675	0.3	Lose2	0.5758	0.0	No	2.631	0.0	2.0	NoResponse	-1	4.106	n/a	0	32	ButtonPress	Loss	True
313.717	0.18	Lose2	0.5758	0.002	No	2.631	-0.002	n/a	NoResponse	-1	n/a	n/a	0	32	Target	Loss	True
313.901	0.52	Lose2	0.5758	n/a	No	2.631	n/a	n/a	NoResponse	-1	n/a	n/a	0	32	Blank	Loss	True
314.417	1.45	Lose2	0.5758	n/a	No	2.631	n/a	5.0	NoResponse	-1	0.047	313.464	0	32	Feedback	Loss	True
315.867	2.631	Lose2	0.5758	n/a	No	2.631	n/a	n/a	NoResponse	-1	0.0	n/a	0	32	ISIslide	Loss	True
318.516	0.25	Win2	0.5588000000000001	0.0	No	2.684	0.016	n/a	LatePress	0	n/a	n/a	0	33	Cue	MissedWin	True
318.766	4.0	Win2	0.5588000000000001	0.0	No	2.684	0.0	n/a	LatePress	0	n/a	n/a	0	33	Fixation	MissedWin	True
322.764	0.19	Win2	0.5588000000000001	0.002	No	2.684	-0.002	2.0	LatePress	0	0.2	321.964	0	33	Target	MissedWin	True
322.964	0.51	Win2	0.5588000000000001	n/a	No	2.684	n/a	n/a	LatePress	0	n/a	n/a	0	33	Blank	MissedWin	True
322.964	0.3	Win2	0.5588000000000001	0.002	No	2.684	-0.002	2.0	LatePress	0	0.2	n/a	0	33	ButtonPress	MissedWin	True
323.464	1.45	Win2	0.5588000000000001	n/a	No	2.684	n/a	5.0	LatePress	0	0.024	322.488	0	33	Feedback	MissedWin	True
324.913	2.684	Win2	0.5588000000000001	n/a	No	2.684	n/a	n/a	LatePress	0	0.0	n/a	0	33	ISIslide	MissedWin	True
327.613	0.25	Lose2	0.5714	0.0	Yes	2.637	0.013	n/a	GoodResponse	0	n/a	n/a	0	34	Cue	AvoidedLoss	True
327.862	4.05	Lose2	0.5714	0.001	Yes	2.637	-0.001	n/a	GoodResponse	0	n/a	n/a	0	34	Fixation	AvoidedLoss	True
331.911	0.2	Lose2	0.5714	0.002	Yes	2.637	-0.002	2.0	GoodResponse	0	0.19	331.101	0	34	Target	AvoidedLoss	True
332.101	0.3	Lose2	0.5714	0.002	Yes	2.637	-0.002	2.0	GoodResponse	0	0.19	n/a	0	34	ButtonPress	AvoidedLoss	True
332.111	0.5	Lose2	0.5714	n/a	Yes	2.637	n/a	n/a	GoodResponse	0	n/a	n/a	0	34	Blank	AvoidedLoss	True
332.611	1.45	Lose2	0.5714	n/a	Yes	2.637	n/a	5.0	GoodResponse	0	0.047	331.658	0	34	Feedback	AvoidedLoss	True
334.06	2.637	Lose2	0.5714	n/a	Yes	2.637	n/a	n/a	GoodResponse	0	0.0	n/a	0	34	ISIslide	AvoidedLoss	True
336.726	0.25	Lose2	0.5832999999999999	0.0	Yes	2.674	0.026	n/a	GoodResponse	0	n/a	n/a	0	35	Cue	AvoidedLoss	True
336.976	4.0	Lose2	0.5832999999999999	0.0	Yes	2.674	0.0	n/a	GoodResponse	0	n/a	n/a	0	35	Fixation	AvoidedLoss	True
340.975	0.21	Lose2	0.5832999999999999	0.001	Yes	2.674	-0.001	2.0	GoodResponse	0	0.185	340.16	0	35	Target	AvoidedLoss	True
341.16	0.3	Lose2	0.5832999999999999	0.001	Yes	2.674	-0.001	2.0	GoodResponse	0	0.185	n/a	0	35	ButtonPress	AvoidedLoss	True
341.191	0.49	Lose2	0.5832999999999999	n/a	Yes	2.674	n/a	n/a	GoodResponse	0	n/a	n/a	0	35	Blank	AvoidedLoss	True
341.674	1.45	Lose2	0.5832999999999999	n/a	Yes	2.674	n/a	5.0	GoodResponse	0	0.009	340.683	0	35	Feedback	AvoidedLoss	True
343.124	2.674	Lose2	0.5832999999999999	n/a	Yes	2.674	n/a	n/a	GoodResponse	0	0.0	n/a	0	35	ISIslide	AvoidedLoss	True
345.823	0.25	Control	0.5676	0.0	No	2.677	0.023	n/a	NoResponse	0	n/a	n/a	0	36	Cue	Neutral	True
346.073	4.0	Control	0.5676	0.0	No	2.677	0.0	n/a	NoResponse	0	n/a	n/a	0	36	Fixation	Neutral	True
350.071	0.22	Control	0.5676	0.002	No	2.677	-0.002	2.0	NoResponse	0	0.241	349.312	0	36	Target	Neutral	True
350.305	0.48	Control	0.5676	n/a	No	2.677	n/a	n/a	NoResponse	0	n/a	n/a	0	36	Blank	Neutral	True
350.312	0.3	Control	0.5676	0.002	No	2.677	-0.002	2.0	NoResponse	0	0.241	n/a	0	36	ButtonPress	Neutral	True
350.771	1.45	Control	0.5676	n/a	No	2.677	n/a	5.0	NoResponse	0	0.034	349.805	0	36	Feedback	Neutral	True
352.221	2.677	Control	0.5676	n/a	No	2.677	n/a	n/a	NoResponse	0	0.0	n/a	0	36	ISIslide	Neutral	True
354.92	0.25	Win2	0.5789	0.0	Yes	2.88	0.02	n/a	GoodResponse	1	n/a	n/a	1	37	Cue	Win	True
355.17	4.0	Win2	0.5789	0.0	Yes	2.88	0.0	n/a	GoodResponse	1	n/a	n/a	1	37	Fixation	Win	True
359.168	0.23	Win2	0.5789	0.002	Yes	2.88	-0.002	2.0	GoodResponse	1	0.205	358.373	1	37	Target	Win	True
359.373	0.3	Win2	0.5789	0.002	Yes	2.88	-0.002	2.0	GoodResponse	1	0.205	n/a	1	37	ButtonPress	Win	True
359.401	0.47	Win2	0.5789	n/a	Yes	2.88	n/a	n/a	GoodResponse	1	n/a	n/a	1	37	Blank	Win	True
359.868	1.45	Win2	0.5789	n/a	Yes	2.88	n/a	5.0	GoodResponse	1	0.01	358.878	1	37	Feedback	Win	True
361.317	2.88	Win2	0.5789	n/a	Yes	2.88	n/a	n/a	GoodResponse	1	0.0	n/a	1	37	ISIslide	Win	True
364.216	0.25	Lose2	0.5897	0.001	Yes	2.834	0.016	n/a	GoodResponse	0	n/a	n/a	1	38	Cue	AvoidedLoss	True
364.466	3.95	Lose2	0.5897	0.001	Yes	2.834	0.0	n/a	GoodResponse	0	n/a	n/a	1	38	Fixation	AvoidedLoss	True
368.415	0.24	Lose2	0.5897	0.001	Yes	2.834	-0.001	2.0	GoodResponse	0	0.207	367.622	1	38	Target	AvoidedLoss	True
368.622	0.3	Lose2	0.5897	0.001	Yes	2.834	-0.001	2.0	GoodResponse	0	0.207	n/a	1	38	ButtonPress	AvoidedLoss	True
368.665	0.46	Lose2	0.5897	n/a	Yes	2.834	n/a	n/a	GoodResponse	0	n/a	n/a	1	38	Blank	AvoidedLoss	True
369.115	1.45	Lose2	0.5897	n/a	Yes	2.834	n/a	5.0	GoodResponse	0	0.031	368.146	1	38	Feedback	AvoidedLoss	True
370.564	2.834	Lose2	0.5897	n/a	Yes	2.834	n/a	n/a	GoodResponse	0	0.0	n/a	1	38	ISIslide	AvoidedLoss	True
373.43	0.25	Win2	0.6	0.0	Yes	2.97	0.03	n/a	GoodResponse	1	n/a	n/a	2	39	Cue	Win	True
373.68	4.1	Win2	0.6	0.0	Yes	2.97	0.0	n/a	GoodResponse	1	n/a	n/a	2	39	Fixation	Win	True
377.778	0.25	Win2	0.6	0.002	Yes	2.97	-0.002	2.0	GoodResponse	1	0.233	377.011	2	39	Target	Win	True
378.011	0.3	Win2	0.6	0.002	Yes	2.97	-0.002	2.0	GoodResponse	1	0.233	n/a	2	39	ButtonPress	Win	True
378.028	0.45	Win2	0.6	n/a	Yes	2.97	n/a	n/a	GoodResponse	1	n/a	n/a	2	39	Blank	Win	True
378.478	1.45	Win2	0.6	n/a	Yes	2.97	n/a	5.0	GoodResponse	1	0.034	377.512	2	39	Feedback	Win	True
379.928	2.97	Win2	0.6	n/a	Yes	2.97	n/a	n/a	GoodResponse	1	0.0	n/a	2	39	ISIslide	Win	True
382.927	0.25	Win2	0.6098	0.0	Yes	2.723	0.027	n/a	GoodResponse	1	n/a	n/a	3	40	Cue	Win	True
383.177	3.95	Win2	0.6098	0.0	Yes	2.723	0.0	n/a	GoodResponse	1	n/a	n/a	3	40	Fixation	Win	True
387.125	0.26	Win2	0.6098	0.002	Yes	2.723	-0.002	2.0	GoodResponse	1	0.19	386.315	3	40	Target	Win	True
387.315	0.3	Win2	0.6098	0.002	Yes	2.723	-0.002	2.0	GoodResponse	1	0.19	n/a	3	40	ButtonPress	Win	True
387.392	0.44	Win2	0.6098	n/a	Yes	2.723	n/a	n/a	GoodResponse	1	n/a	n/a	3	40	Blank	Win	True
387.825	1.45	Win2	0.6098	n/a	Yes	2.723	n/a	5.0	GoodResponse	1	0.006	386.831	3	40	Feedback	Win	True
389.274	2.723	Win2	0.6098	n/a	Yes	2.723	n/a	n/a	GoodResponse	1	0.0	n/a	3	40	ISIslide	Win	True
392.023	0.25	Win2	0.619	0.0	Yes	2.777	0.023	n/a	GoodResponse	1	n/a	n/a	4	41	Cue	Win	True
392.273	3.9	Win2	0.619	0.0	Yes	2.777	0.0	n/a	GoodResponse	1	n/a	n/a	4	41	Fixation	Win	True
396.172	0.27	Win2	0.619	0.001	Yes	2.777	-0.001	2.0	GoodResponse	1	0.208	395.38	4	41	Target	Win	True
396.38	0.3	Win2	0.619	0.001	Yes	2.777	-0.001	2.0	GoodResponse	1	0.208	n/a	4	41	ButtonPress	Win	True
396.439	0.43	Win2	0.619	n/a	Yes	2.777	n/a	n/a	GoodResponse	1	n/a	n/a	4	41	Blank	Win	True
396.872	1.45	Win2	0.619	n/a	Yes	2.777	n/a	5.0	GoodResponse	1	0.03	395.902	4	41	Feedback	Win	True
398.321	2.777	Win2	0.619	n/a	Yes	2.777	n/a	n/a	GoodResponse	1	0.0	n/a	4	41	ISIslide	Win	True
401.12	0.25	Control	0.6279	0.0	Yes	2.93	0.02	n/a	GoodResponse	0	n/a	n/a	4	42	Cue	Neutral	True
401.37	3.85	Control	0.6279	0.0	Yes	2.93	0.0	n/a	GoodResponse	0	n/a	n/a	4	42	Fixation	Neutral	True
405.219	0.28	Control	0.6279	0.001	Yes	2.93	-0.001	2.0	GoodResponse	0	0.205	404.424	4	42	Target	Neutral	True
405.424	0.3	Control	0.6279	0.001	Yes	2.93	-0.001	2.0	GoodResponse	0	0.205	n/a	4	42	ButtonPress	Neutral	True
405.502	0.42	Control	0.6279	n/a	Yes	2.93	n/a	n/a	GoodResponse	0	n/a	n/a	4	42	Blank	Neutral	True
405.919	1.45	Control	0.6279	n/a	Yes	2.93	n/a	5.0	GoodResponse	0	0.007	404.926	4	42	Feedback	Neutral	True
407.368	2.93	Control	0.6279	n/a	Yes	2.93	n/a	n/a	GoodResponse	0	0.0	n/a	4	42	ISIslide	Neutral	True
410.317	0.25	Win2	0.6364	0.0	Yes	3.183	0.017	n/a	GoodResponse	1	n/a	n/a	5	43	Cue	Win	True
410.567	4.0	Win2	0.6364	0.0	Yes	3.183	0.0	n/a	GoodResponse	1	n/a	n/a	5	43	Fixation	Win	True
414.566	0.29	Win2	0.6364	0.001	Yes	3.183	-0.001	2.0	GoodResponse	1	0.208	413.774	5	43	Target	Win	True
414.774	0.3	Win2	0.6364	0.001	Yes	3.183	-0.001	2.0	GoodResponse	1	0.208	n/a	5	43	ButtonPress	Win	True
414.865	0.41	Win2	0.6364	n/a	Yes	3.183	n/a	n/a	GoodResponse	1	n/a	n/a	5	43	Blank	Win	True
415.265	1.45	Win2	0.6364	n/a	Yes	3.183	n/a	5.0	GoodResponse	1	0.027	414.292	5	43	Feedback	Win	True
416.715	3.183	Win2	0.6364	n/a	Yes	3.183	n/a	n/a	GoodResponse	1	0.0	n/a	5	43	ISIslide	Win	True
419.914	0.25	Win2	0.6444	0.0	Yes	2.986	0.014	n/a	GoodResponse	1	n/a	n/a	6	44	Cue	Win	True
420.164	4.0	Win2	0.6444	0.0	Yes	2.986	0.0	n/a	GoodResponse	1	n/a	n/a	6	44	Fixation	Win	True
424.162	0.3	Win2	0.6444	0.002	Yes	2.986	-0.002	2.0	GoodResponse	1	0.195	423.357	6	44	Target	Win	True
424.357	0.3	Win2	0.6444	0.002	Yes	2.986	-0.002	2.0	GoodResponse	1	0.195	n/a	6	44	ButtonPress	Win	True
424.462	0.4	Win2	0.6444	n/a	Yes	2.986	n/a	n/a	GoodResponse	1	n/a	n/a	6	44	Blank	Win	True
424.862	1.45	Win2	0.6444	n/a	Yes	2.986	n/a	5.0	GoodResponse	1	0.04	423.902	6	44	Feedback	Win	True
426.311	2.986	Win2	0.6444	n/a	Yes	2.986	n/a	n/a	GoodResponse	1	0.0	n/a	6	44	ISIslide	Win	True
429.327	0.25	Control	0.6522	0.0	Yes	2.873	0.027	n/a	GoodResponse	0	n/a	n/a	6	45	Cue	Neutral	True
429.577	4.1	Control	0.6522	0.0	Yes	2.873	0.0	n/a	GoodResponse	0	n/a	n/a	6	45	Fixation	Neutral	True
433.676	0.31	Control	0.6522	0.001	Yes	2.873	-0.001	2.0	GoodResponse	0	0.174	432.85	6	45	Target	Neutral	True
433.85	0.3	Control	0.6522	0.001	Yes	2.873	-0.001	2.0	GoodResponse	0	0.174	n/a	6	45	ButtonPress	Neutral	True
433.992	0.39	Control	0.6522	n/a	Yes	2.873	n/a	n/a	GoodResponse	0	n/a	n/a	6	45	Blank	Neutral	True
434.375	1.45	Control	0.6522	n/a	Yes	2.873	n/a	5.0	GoodResponse	0	0.038	433.413	6	45	Feedback	Neutral	True
435.825	2.873	Control	0.6522	n/a	Yes	2.873	n/a	n/a	GoodResponse	0	0.0	n/a	6	45	ISIslide	Neutral	True
438.724	0.25	Lose2	0.6383	0.0	No	3.376	0.024	n/a	PrematurePress	-1	n/a	n/a	5	46	Cue	Loss	True
438.974	4.0	Lose2	0.6383	0.0	No	3.376	0.0	n/a	PrematurePress	-1	n/a	n/a	5	46	Fixation	Loss	True
442.972	0.32	Lose2	0.6383	0.002	No	3.376	-0.002	2.0	PrematurePress	-1	0.088	442.06	5	46	Target	Loss	True
443.06	0.3	Lose2	0.6383	0.002	No	3.376	-0.002	2.0	PrematurePress	-1	0.088	n/a	5	46	ButtonPress	Loss	True
443.306	0.38	Lose2	0.6383	n/a	No	3.376	n/a	n/a	PrematurePress	-1	n/a	n/a	5	46	Blank	Loss	True
443.672	1.45	Lose2	0.6383	n/a	No	3.376	n/a	5.0	PrematurePress	-1	0.01	442.682	5	46	Feedback	Loss	True
445.122	3.376	Lose2	0.6383	n/a	No	3.376	n/a	n/a	PrematurePress	-1	0.0	n/a	5	46	ISIslide	Loss	True
448.52	0.25	Lose2	0.6457999999999999	0.0	Yes	2.68	0.02	n/a	GoodResponse	0	n/a	n/a	5	47	Cue	AvoidedLoss	True
448.77	4.0	Lose2	0.6457999999999999	0.0	Yes	2.68	0.0	n/a	GoodResponse	0	n/a	n/a	5	47	Fixation	AvoidedLoss	True
452.769	0.33	Lose2	0.6457999999999999	0.001	Yes	2.68	-0.001	2.0	GoodResponse	0	0.189	451.958	5	47	Target	AvoidedLoss	True
452.958	0.3	Lose2	0.6457999999999999	0.001	Yes	2.68	-0.001	2.0	GoodResponse	0	0.189	n/a	5	47	ButtonPress	AvoidedLoss	True
453.102	0.37	Lose2	0.6457999999999999	n/a	Yes	2.68	n/a	n/a	GoodResponse	0	n/a	n/a	5	47	Blank	AvoidedLoss	True
453.469	1.45	Lose2	0.6457999999999999	n/a	Yes	2.68	n/a	5.0	GoodResponse	0	0.018	452.487	5	47	Feedback	AvoidedLoss	True
454.918	2.68	Lose2	0.6457999999999999	n/a	Yes	2.68	n/a	n/a	GoodResponse	0	0.0	n/a	5	47	ISIslide	AvoidedLoss	True
457.617	0.25	Lose2	0.6531	0.0	Yes	3.033	0.017	n/a	GoodResponse	0	n/a	n/a	5	48	Cue	AvoidedLoss	True
457.867	3.95	Lose2	0.6531	0.0	Yes	3.033	0.0	n/a	GoodResponse	0	n/a	n/a	5	48	Fixation	AvoidedLoss	True
461.816	0.34	Lose2	0.6531	0.001	Yes	3.033	-0.001	2.0	GoodResponse	0	0.252	461.068	5	48	Target	AvoidedLoss	True
462.068	0.3	Lose2	0.6531	0.001	Yes	3.033	-0.001	2.0	GoodResponse	0	0.252	n/a	5	48	ButtonPress	AvoidedLoss	True
462.166	0.36	Lose2	0.6531	n/a	Yes	3.033	n/a	n/a	GoodResponse	0	n/a	n/a	5	48	Blank	AvoidedLoss	True
462.515	1.45	Lose2	0.6531	n/a	Yes	3.033	n/a	5.0	GoodResponse	0	0.045	461.56	5	48	Feedback	AvoidedLoss	True
463.965	3.033	Lose2	0.6531	n/a	Yes	3.033	n/a	n/a	GoodResponse	0	0.0	n/a	5	48	ISIslide	AvoidedLoss	True
467.014	0.25	Control	0.66	0.0	Yes	2.886	0.014	n/a	GoodResponse	0	n/a	n/a	5	49	Cue	Neutral	False
467.264	4.0	Control	0.66	0.0	Yes	2.886	0.0	2.0	GoodResponse	0	0.023	466.287	5	49	Fixation	Neutral	False
467.287	0.3	Control	0.66	0.0	Yes	2.886	0.0	2.0	GoodResponse	0	0.023	n/a	5	49	ButtonPress	Neutral	False
471.262	0.35	Control	0.66	0.002	Yes	2.886	-0.002	2.0	GoodResponse	0	0.231	470.493	5	49	Target	Neutral	False
471.493	0.3	Control	0.66	0.002	Yes	2.886	-0.002	2.0	GoodResponse	0	0.231	n/a	5	49	ButtonPress	Neutral	False
471.612	0.35	Control	0.66	n/a	Yes	2.886	n/a	n/a	GoodResponse	0	n/a	n/a	5	49	Blank	Neutral	False
471.962	1.45	Control	0.66	n/a	Yes	2.886	n/a	5.0	GoodResponse	0	0.013	470.975	5	49	Feedback	Neutral	False
473.412	2.886	Control	0.66	n/a	Yes	2.886	n/a	n/a	GoodResponse	0	0.0	n/a	5	49	ISIslide	Neutral	False
476.327	0.25	Control	0.6667000000000001	0.0	Yes	2.773	0.027	n/a	GoodResponse	0	n/a	n/a	5	50	Cue	Neutral	True
476.577	4.0	Control	0.6667000000000001	0.0	Yes	2.773	0.0	n/a	GoodResponse	0	n/a	n/a	5	50	Fixation	Neutral	True
480.576	0.35	Control	0.6667000000000001	0.001	Yes	2.773	-0.001	2.0	GoodResponse	0	0.207	479.783	5	50	Target	Neutral	True
480.783	0.3	Control	0.6667000000000001	0.001	Yes	2.773	-0.001	2.0	GoodResponse	0	0.207	n/a	5	50	ButtonPress	Neutral	True
480.926	0.35	Control	0.6667000000000001	n/a	Yes	2.773	n/a	n/a	GoodResponse	0	n/a	n/a	5	50	Blank	Neutral	True
481.276	1.45	Control	0.6667000000000001	n/a	Yes	2.773	n/a	5.0	GoodResponse	0	0.016	480.292	5	50	Feedback	Neutral	True
482.725	2.773	Control	0.6667000000000001	n/a	Yes	2.773	n/a	n/a	GoodResponse	0	0.0	n/a	5	50	ISIslide	Neutral	True
485.524	0.25	Control	0.6731	0.0	Yes	2.726	0.024	n/a	GoodResponse	0	n/a	n/a	5	51	Cue	Neutral	True
485.774	3.95	Control	0.6731	0.0	Yes	2.726	0.0	n/a	GoodResponse	0	n/a	n/a	5	51	Fixation	Neutral	True
489.723	0.34	Control	0.6731	0.001	Yes	2.726	-0.001	2.0	GoodResponse	0	0.248	488.971	5	51	Target	Neutral	True
489.971	0.3	Control	0.6731	0.001	Yes	2.726	-0.001	2.0	GoodResponse	0	0.248	n/a	5	51	ButtonPress	Neutral	True
490.073	0.36	Control	0.6731	n/a	Yes	2.726	n/a	n/a	GoodResponse	0	n/a	n/a	5	51	Blank	Neutral	True
490.422	1.45	Control	0.6731	n/a	Yes	2.726	n/a	5.0	GoodResponse	0	0.04	489.462	5	51	Feedback	Neutral	True
491.872	2.726	Control	0.6731	n/a	Yes	2.726	n/a	n/a	GoodResponse	0	0.0	n/a	5	51	ISIslide	Neutral	True
494.621	0.25	Control	0.6792	0.0	Yes	2.629	0.021	n/a	GoodResponse	0	n/a	n/a	5	52	Cue	Neutral	True
494.871	4.05	Control	0.6792	0.0	Yes	2.629	0.0	n/a	GoodResponse	0	n/a	n/a	5	52	Fixation	Neutral	True
498.919	0.33	Control	0.6792	0.002	Yes	2.629	-0.002	2.0	GoodResponse	0	0.212	498.131	5	52	Target	Neutral	True
499.131	0.3	Control	0.6792	0.002	Yes	2.629	-0.002	2.0	GoodResponse	0	0.212	n/a	5	52	ButtonPress	Neutral	True
499.253	0.37	Control	0.6792	n/a	Yes	2.629	n/a	n/a	GoodResponse	0	n/a	n/a	5	52	Blank	Neutral	True
499.619	1.45	Control	0.6792	n/a	Yes	2.629	n/a	5.0	GoodResponse	0	0.014	498.633	5	52	Feedback	Neutral	True
501.069	2.629	Control	0.6792	n/a	Yes	2.629	n/a	n/a	GoodResponse	0	0.0	n/a	5	52	ISIslide	Neutral	True
503.718	0.25	Win2	0.6851999999999999	0.0	Yes	2.932	0.018	n/a	GoodResponse	1	n/a	n/a	6	53	Cue	Win	True
503.968	4.05	Win2	0.6851999999999999	0.0	Yes	2.932	0.0	n/a	GoodResponse	1	n/a	n/a	6	53	Fixation	Win	True
508.016	0.32	Win2	0.6851999999999999	0.002	Yes	2.932	-0.002	2.0	GoodResponse	1	0.236	507.252	6	53	Target	Win	True
508.252	0.3	Win2	0.6851999999999999	0.002	Yes	2.932	-0.002	2.0	GoodResponse	1	0.236	n/a	6	53	ButtonPress	Win	True
508.349	0.38	Win2	0.6851999999999999	n/a	Yes	2.932	n/a	n/a	GoodResponse	1	n/a	n/a	6	53	Blank	Win	True
508.716	1.45	Win2	0.6851999999999999	n/a	Yes	2.932	n/a	5.0	GoodResponse	1	0.039	507.755	6	53	Feedback	Win	True
510.166	2.932	Win2	0.6851999999999999	n/a	Yes	2.932	n/a	n/a	GoodResponse	1	0.0	n/a	6	53	ISIslide	Win	True
513.114	0.25	Win2	0.6909000000000001	0.001	Yes	2.736	0.014	n/a	GoodResponse	1	n/a	n/a	7	54	Cue	Win	True
513.364	3.95	Win2	0.6909000000000001	0.001	Yes	2.736	0.0	n/a	GoodResponse	1	n/a	n/a	7	54	Fixation	Win	True
517.313	0.31	Win2	0.6909000000000001	0.001	Yes	2.736	-0.001	2.0	GoodResponse	1	0.173	516.486	7	54	Target	Win	True
517.486	0.3	Win2	0.6909000000000001	0.001	Yes	2.736	-0.001	2.0	GoodResponse	1	0.173	n/a	7	54	ButtonPress	Win	True
517.63	0.39	Win2	0.6909000000000001	n/a	Yes	2.736	n/a	n/a	GoodResponse	1	n/a	n/a	7	54	Blank	Win	True
518.013	1.45	Win2	0.6909000000000001	n/a	Yes	2.736	n/a	5.0	GoodResponse	1	0.01	517.023	7	54	Feedback	Win	True
519.462	2.736	Win2	0.6909000000000001	n/a	Yes	2.736	n/a	n/a	GoodResponse	1	0.0	n/a	7	54	ISIslide	Win	True
522.228	0.25	Control	0.6964	0.0	Yes	3.022	0.028	n/a	GoodResponse	0	n/a	n/a	7	55	Cue	Neutral	True
522.478	3.95	Control	0.6964	0.0	Yes	3.022	0.0	n/a	GoodResponse	0	n/a	n/a	7	55	Fixation	Neutral	True
526.427	0.3	Control	0.6964	0.001	Yes	3.022	-0.001	2.0	GoodResponse	0	0.239	525.666	7	55	Target	Neutral	True
526.666	0.3	Control	0.6964	0.001	Yes	3.022	-0.001	2.0	GoodResponse	0	0.239	n/a	7	55	ButtonPress	Neutral	True
526.726	0.4	Control	0.6964	n/a	Yes	3.022	n/a	n/a	GoodResponse	0	n/a	n/a	7	55	Blank	Neutral	True
527.126	1.45	Control	0.6964	n/a	Yes	3.022	n/a	5.0	GoodResponse	0	0.019	526.145	7	55	Feedback	Neutral	True
528.576	3.022	Control	0.6964	n/a	Yes	3.022	n/a	n/a	GoodResponse	0	0.0	n/a	7	55	ISIslide	Neutral	True
531.625	0.25	Control	0.6842	0.0	No	2.825	0.025	n/a	NoResponse	0	n/a	n/a	7	56	Cue	Neutral	False
531.875	3.95	Control	0.6842	0.0	No	2.825	0.0	n/a	NoResponse	0	n/a	n/a	7	56	Fixation	Neutral	False
535.823	0.29	Control	0.6842	0.002	No	2.825	-0.002	n/a	NoResponse	0	n/a	n/a	7	56	Target	Neutral	False
536.123	0.41	Control	0.6842	n/a	No	2.825	n/a	n/a	NoResponse	0	n/a	n/a	7	56	Blank	Neutral	False
536.523	1.45	Control	0.6842	n/a	No	2.825	n/a	5.0	NoResponse	0	0.036	535.559	7	56	Feedback	Neutral	False
537.972	2.825	Control	0.6842	n/a	No	2.825	n/a	n/a	NoResponse	0	0.0	n/a	7	56	ISIslide	Neutral	False
540.822	0.25	Control	0.6897	0.0	Yes	3.478	0.022	n/a	GoodResponse	0	n/a	n/a	7	57	Cue	Neutral	True
541.071	4.0	Control	0.6897	0.001	Yes	3.478	-0.001	n/a	GoodResponse	0	n/a	n/a	7	57	Fixation	Neutral	True
545.07	0.28	Control	0.6897	0.002	Yes	3.478	-0.002	2.0	GoodResponse	0	0.184	544.254	7	57	Target	Neutral	True
545.254	0.3	Control	0.6897	0.002	Yes	3.478	-0.002	2.0	GoodResponse	0	0.184	n/a	7	57	ButtonPress	Neutral	True
545.353	0.42	Control	0.6897	n/a	Yes	3.478	n/a	n/a	GoodResponse	0	n/a	n/a	7	57	Blank	Neutral	True
545.77	1.45	Control	0.6897	n/a	Yes	3.478	n/a	5.0	GoodResponse	0	0.009	544.779	7	57	Feedback	Neutral	True
547.219	3.478	Control	0.6897	n/a	Yes	3.478	n/a	n/a	GoodResponse	0	0.0	n/a	7	57	ISIslide	Neutral	True
550.718	0.25	Win2	0.6949	0.0	Yes	2.732	0.018	n/a	GoodResponse	1	n/a	n/a	8	58	Cue	Win	True
550.968	4.05	Win2	0.6949	0.0	Yes	2.732	0.0	n/a	GoodResponse	1	n/a	n/a	8	58	Fixation	Win	True
555.017	0.27	Win2	0.6949	0.001	Yes	2.732	-0.001	2.0	GoodResponse	1	0.17	554.187	8	58	Target	Win	True
555.187	0.3	Win2	0.6949	0.001	Yes	2.732	-0.001	2.0	GoodResponse	1	0.17	n/a	8	58	ButtonPress	Win	True
555.3	0.43	Win2	0.6949	n/a	Yes	2.732	n/a	n/a	GoodResponse	1	n/a	n/a	8	58	Blank	Win	True
555.716	1.45	Win2	0.6949	n/a	Yes	2.732	n/a	5.0	GoodResponse	1	0.014	554.73	8	58	Feedback	Win	True
557.166	2.732	Win2	0.6949	n/a	Yes	2.732	n/a	n/a	GoodResponse	1	0.0	n/a	8	58	ISIslide	Win	True
559.915	0.25	Lose2	0.7	0.0	Yes	2.685	0.015	n/a	GoodResponse	0	n/a	n/a	8	59	Cue	AvoidedLoss	True
560.165	4.0	Lose2	0.7	0.0	Yes	2.685	0.0	n/a	GoodResponse	0	n/a	n/a	8	59	Fixation	AvoidedLoss	True
564.163	0.26	Lose2	0.7	0.002	Yes	2.685	-0.002	2.0	GoodResponse	0	0.18	563.343	8	59	Target	AvoidedLoss	True
564.343	0.3	Lose2	0.7	0.002	Yes	2.685	-0.002	2.0	GoodResponse	0	0.18	n/a	8	59	ButtonPress	AvoidedLoss	True
564.43	0.44	Lose2	0.7	n/a	Yes	2.685	n/a	n/a	GoodResponse	0	n/a	n/a	8	59	Blank	AvoidedLoss	True
564.863	1.45	Lose2	0.7	n/a	Yes	2.685	n/a	5.0	GoodResponse	0	0.038	563.901	8	59	Feedback	AvoidedLoss	True
566.313	2.685	Lose2	0.7	n/a	Yes	2.685	n/a	n/a	GoodResponse	0	0.0	n/a	8	59	ISIslide	AvoidedLoss	True
569.012	0.25	Control	0.7049	0.0	Yes	2.688	0.012	n/a	GoodResponse	0	n/a	n/a	8	60	Cue	Neutral	True
569.262	4.0	Control	0.7049	0.0	Yes	2.688	0.0	n/a	GoodResponse	0	n/a	n/a	8	60	Fixation	Neutral	True
573.26	0.25	Control	0.7049	0.002	Yes	2.688	-0.002	2.0	GoodResponse	0	0.177	572.437	8	60	Target	Neutral	True
573.437	0.3	Control	0.7049	0.002	Yes	2.688	-0.002	2.0	GoodResponse	0	0.177	n/a	8	60	ButtonPress	Neutral	True
573.51	0.45	Control	0.7049	n/a	Yes	2.688	n/a	n/a	GoodResponse	0	n/a	n/a	8	60	Blank	Neutral	True
573.96	1.45	Control	0.7049	n/a	Yes	2.688	n/a	5.0	GoodResponse	0	0.014	572.974	8	60	Feedback	Neutral	True
575.409	2.688	Control	0.7049	n/a	Yes	2.688	n/a	n/a	GoodResponse	0	0.0	n/a	8	60	ISIslide	Neutral	True
578.125	0.25	Lose2	0.7097	0.0	Yes	2.975	0.025	n/a	GoodResponse	0	n/a	n/a	8	61	Cue	AvoidedLoss	True
578.375	4.0	Lose2	0.7097	0.0	Yes	2.975	0.0	n/a	GoodResponse	0	n/a	n/a	8	61	Fixation	AvoidedLoss	True
582.374	0.24	Lose2	0.7097	0.001	Yes	2.975	-0.001	2.0	GoodResponse	0	0.182	581.556	8	61	Target	AvoidedLoss	True
582.556	0.3	Lose2	0.7097	0.001	Yes	2.975	-0.001	2.0	GoodResponse	0	0.182	n/a	8	61	ButtonPress	AvoidedLoss	True
582.624	0.46	Lose2	0.7097	n/a	Yes	2.975	n/a	n/a	GoodResponse	0	n/a	n/a	8	61	Blank	AvoidedLoss	True
583.073	1.45	Lose2	0.7097	n/a	Yes	2.975	n/a	5.0	GoodResponse	0	0.023	582.096	8	61	Feedback	AvoidedLoss	True
584.523	2.975	Lose2	0.7097	n/a	Yes	2.975	n/a	n/a	GoodResponse	0	0.0	n/a	8	61	ISIslide	AvoidedLoss	True
587.522	0.25	Lose2	0.7143	0.0	Yes	2.878	0.022	n/a	GoodResponse	0	n/a	n/a	8	62	Cue	AvoidedLoss	True
587.772	3.9	Lose2	0.7143	0.0	Yes	2.878	0.0	n/a	GoodResponse	0	n/a	n/a	8	62	Fixation	AvoidedLoss	True
591.67	0.23	Lose2	0.7143	0.002	Yes	2.878	-0.002	2.0	GoodResponse	0	0.196	590.866	8	62	Target	AvoidedLoss	True
591.866	0.3	Lose2	0.7143	0.002	Yes	2.878	-0.002	2.0	GoodResponse	0	0.196	n/a	8	62	ButtonPress	AvoidedLoss	True
591.904	0.47	Lose2	0.7143	n/a	Yes	2.878	n/a	n/a	GoodResponse	0	n/a	n/a	8	62	Blank	AvoidedLoss	True
592.37	1.45	Lose2	0.7143	n/a	Yes	2.878	n/a	5.0	GoodResponse	0	0.043	591.413	8	62	Feedback	AvoidedLoss	True
593.82	2.878	Lose2	0.7143	n/a	Yes	2.878	n/a	n/a	GoodResponse	0	0.0	n/a	8	62	ISIslide	AvoidedLoss	True
596.719	0.25	Lose2	0.7031000000000001	0.0	No	2.631	0.019	n/a	PrematurePress	-1	n/a	n/a	7	63	Cue	Loss	False
596.969	4.05	Lose2	0.7031000000000001	0.0	No	2.631	0.0	2.0	PrematurePress	-1	3.691	599.66	7	63	Fixation	Loss	False
600.66	0.3	Lose2	0.7031000000000001	0.0	No	2.631	0.0	2.0	PrematurePress	-1	3.691	n/a	7	63	ButtonPress	Loss	False
601.017	0.22	Lose2	0.7031000000000001	0.002	No	2.631	-0.002	2.0	PrematurePress	-1	0.064	600.081	7	63	Target	Loss	False
601.081	0.3	Lose2	0.7031000000000001	0.002	No	2.631	-0.002	2.0	PrematurePress	-1	0.064	n/a	7	63	ButtonPress	Loss	False
601.25	0.48	Lose2	0.7031000000000001	n/a	No	2.631	n/a	n/a	PrematurePress	-1	n/a	n/a	7	63	Blank	Loss	False
601.717	1.45	Lose2	0.7031000000000001	n/a	No	2.631	n/a	5.0	PrematurePress	-1	0.013	600.73	7	63	Feedback	Loss	False
603.166	2.631	Lose2	0.7031000000000001	n/a	No	2.631	n/a	n/a	PrematurePress	-1	0.0	n/a	7	63	ISIslide	Loss	False
605.815	0.25	Win2	0.6923	0.001	No	3.135	0.015	n/a	NoResponse	0	n/a	n/a	7	64	Cue	MissedWin	True
606.065	4.15	Win2	0.6923	0.0	No	3.135	0.0	n/a	NoResponse	0	n/a	n/a	7	64	Fixation	MissedWin	True
610.214	0.21	Win2	0.6923	0.001	No	3.135	-0.001	2.0	NoResponse	0	0.226	609.44	7	64	Target	MissedWin	True
610.431	0.49	Win2	0.6923	n/a	No	3.135	n/a	n/a	NoResponse	0	n/a	n/a	7	64	Blank	MissedWin	True
610.44	0.3	Win2	0.6923	0.001	No	3.135	-0.001	2.0	NoResponse	0	0.226	n/a	7	64	ButtonPress	MissedWin	True
610.914	1.45	Win2	0.6923	n/a	No	3.135	n/a	5.0	NoResponse	0	0.035	609.949	7	64	Feedback	MissedWin	True
612.363	3.135	Win2	0.6923	n/a	No	3.135	n/a	n/a	NoResponse	0	0.0	n/a	7	64	ISIslide	MissedWin	True
615.529	0.25	Control	0.6818000000000001	0.0	No	2.771	0.029	n/a	NoResponse	0	n/a	n/a	7	65	Cue	Neutral	True
615.779	4.0	Control	0.6818000000000001	0.0	No	2.771	0.0	n/a	NoResponse	0	n/a	n/a	7	65	Fixation	Neutral	True
619.777	0.2	Control	0.6818000000000001	0.002	No	2.771	-0.002	2.0	NoResponse	0	0.238	619.015	7	65	Target	Neutral	True
619.977	0.5	Control	0.6818000000000001	n/a	No	2.771	n/a	n/a	NoResponse	0	n/a	n/a	7	65	Blank	Neutral	True
620.015	0.3	Control	0.6818000000000001	0.002	No	2.771	-0.002	2.0	NoResponse	0	0.238	n/a	7	65	ButtonPress	Neutral	True
620.477	1.45	Control	0.6818000000000001	n/a	No	2.771	n/a	5.0	NoResponse	0	0.033	619.51	7	65	Feedback	Neutral	True
621.927	2.771	Control	0.6818000000000001	n/a	No	2.771	n/a	n/a	NoResponse	0	0.0	n/a	7	65	ISIslide	Neutral	True
624.726	0.25	Win2	0.6716	0.0	No	2.774	0.026	n/a	NoResponse	0	n/a	n/a	7	66	Cue	MissedWin	True
624.975	3.9	Win2	0.6716	0.001	No	2.774	-0.001	2.0	NoResponse	0	3.304	627.279	7	66	Fixation	MissedWin	True
628.279	0.3	Win2	0.6716	0.001	No	2.774	-0.001	2.0	NoResponse	0	3.304	n/a	7	66	ButtonPress	MissedWin	True
628.874	0.19	Win2	0.6716	0.002	No	2.774	-0.002	n/a	NoResponse	0	n/a	n/a	7	66	Target	MissedWin	True
629.074	0.51	Win2	0.6716	n/a	No	2.774	n/a	n/a	NoResponse	0	n/a	n/a	7	66	Blank	MissedWin	True
629.574	1.45	Win2	0.6716	n/a	No	2.774	n/a	5.0	NoResponse	0	0.01	628.584	7	66	Feedback	MissedWin	True
631.023	2.774	Win2	0.6716	n/a	No	2.774	n/a	n/a	NoResponse	0	0.0	n/a	7	66	ISIslide	MissedWin	True
633.822	0.25	Control	0.6618	0.0	No	2.728	0.022	n/a	NoResponse	0	n/a	n/a	7	67	Cue	Neutral	True
634.072	3.95	Control	0.6618	0.0	No	2.728	0.0	n/a	NoResponse	0	n/a	n/a	7	67	Fixation	Neutral	True
638.021	0.18	Control	0.6618	0.001	No	2.728	-0.001	2.0	NoResponse	0	0.203	637.224	7	67	Target	Neutral	True
638.204	0.52	Control	0.6618	n/a	No	2.728	n/a	n/a	NoResponse	0	n/a	n/a	7	67	Blank	Neutral	True
638.224	0.3	Control	0.6618	0.001	No	2.728	-0.001	2.0	NoResponse	0	0.203	n/a	7	67	ButtonPress	Neutral	True
638.721	1.45	Control	0.6618	n/a	No	2.728	n/a	5.0	NoResponse	0	0.033	637.754	7	67	Feedback	Neutral	True
640.17	2.728	Control	0.6618	n/a	No	2.728	n/a	n/a	NoResponse	0	0.0	n/a	7	67	ISIslide	Neutral	True
642.919	0.25	Win2	0.6522	0.0	No	3.081	0.019	n/a	NoResponse	0	n/a	n/a	7	68	Cue	MissedWin	True
643.169	4.0	Win2	0.6522	0.0	No	3.081	0.0	n/a	NoResponse	0	n/a	n/a	7	68	Fixation	MissedWin	True
647.168	0.18	Win2	0.6522	0.001	No	3.081	-0.001	2.0	NoResponse	0	0.192	646.36	7	68	Target	MissedWin	True
647.351	0.52	Win2	0.6522	n/a	No	3.081	n/a	n/a	NoResponse	0	n/a	n/a	7	68	Blank	MissedWin	True
647.36	0.3	Win2	0.6522	0.001	No	3.081	-0.001	2.0	NoResponse	0	0.192	n/a	7	68	ButtonPress	MissedWin	True
647.867	1.45	Win2	0.6522	n/a	No	3.081	n/a	5.0	NoResponse	0	0.009	646.876	7	68	Feedback	MissedWin	True
649.317	3.081	Win2	0.6522	n/a	No	3.081	n/a	n/a	NoResponse	0	0.0	n/a	7	68	ISIslide	MissedWin	True
652.416	0.25	Win2	0.6429	0.0	No	3.234	0.016	n/a	NoResponse	0	n/a	n/a	7	69	Cue	MissedWin	True
652.666	3.95	Win2	0.6429	0.0	No	3.234	0.0	n/a	NoResponse	0	n/a	n/a	7	69	Fixation	MissedWin	True
656.614	0.19	Win2	0.6429	0.002	No	3.234	-0.002	2.0	NoResponse	0	0.276	655.89	7	69	Target	MissedWin	True
656.814	0.51	Win2	0.6429	n/a	No	3.234	n/a	n/a	NoResponse	0	n/a	n/a	7	69	Blank	MissedWin	True
656.89	0.3	Win2	0.6429	0.002	No	3.234	-0.002	2.0	NoResponse	0	0.276	n/a	7	69	ButtonPress	MissedWin	True
657.314	1.45	Win2	0.6429	n/a	No	3.234	n/a	5.0	NoResponse	0	0.025	656.339	7	69	Feedback	MissedWin	True
658.764	3.234	Win2	0.6429	n/a	No	3.234	n/a	n/a	NoResponse	0	0.0	n/a	7	69	ISIslide	MissedWin	True
662.013	0.25	Lose2	0.6338	0.0	No	3.037	0.013	n/a	NoResponse	-1	n/a	n/a	6	70	Cue	Loss	False
662.262	4.05	Lose2	0.6338	0.001	No	3.037	-0.001	n/a	NoResponse	-1	n/a	n/a	6	70	Fixation	Loss	False
666.311	0.2	Lose2	0.6338	0.002	No	3.037	-0.002	n/a	NoResponse	-1	n/a	n/a	6	70	Target	Loss	False
666.511	0.5	Lose2	0.6338	n/a	No	3.037	n/a	n/a	NoResponse	-1	n/a	n/a	6	70	Blank	Loss	False
667.011	1.45	Lose2	0.6338	n/a	No	3.037	n/a	5.0	NoResponse	-1	0.036	666.047	6	70	Feedback	Loss	False
668.46	3.037	Lose2	0.6338	n/a	No	3.037	n/a	n/a	NoResponse	-1	0.0	n/a	6	70	ISIslide	Loss	False
671.526	0.25	Win2	0.6389	0.0	Yes	2.724	0.026	n/a	GoodResponse	1	n/a	n/a	7	71	Cue	Win	True
671.776	4.05	Win2	0.6389	0.0	Yes	2.724	0.0	n/a	GoodResponse	1	n/a	n/a	7	71	Fixation	Win	True
675.824	0.21	Win2	0.6389	0.002	Yes	2.724	-0.002	2.0	GoodResponse	1	0.189	675.013	7	71	Target	Win	True
676.013	0.3	Win2	0.6389	0.002	Yes	2.724	-0.002	2.0	GoodResponse	1	0.189	n/a	7	71	ButtonPress	Win	True
676.041	0.49	Win2	0.6389	n/a	Yes	2.724	n/a	n/a	GoodResponse	1	n/a	n/a	7	71	Blank	Win	True
676.524	1.45	Win2	0.6389	n/a	Yes	2.724	n/a	5.0	GoodResponse	1	0.035	675.559	7	71	Feedback	Win	True
677.974	2.724	Win2	0.6389	n/a	Yes	2.724	n/a	n/a	GoodResponse	1	0.0	n/a	7	71	ISIslide	Win	True
680.723	0.25	Win2	0.6437999999999999	0.0	Yes	2.777	0.023	n/a	GoodResponse	1	n/a	n/a	8	72	Cue	Win	True
680.973	4.1	Win2	0.6437999999999999	0.0	Yes	2.777	0.0	n/a	GoodResponse	1	n/a	n/a	8	72	Fixation	Win	True
685.071	0.22	Win2	0.6437999999999999	0.002	Yes	2.777	-0.002	2.0	GoodResponse	1	0.202	684.273	8	72	Target	Win	True
685.273	0.3	Win2	0.6437999999999999	0.002	Yes	2.777	-0.002	2.0	GoodResponse	1	0.202	n/a	8	72	ButtonPress	Win	True
685.304	0.48	Win2	0.6437999999999999	n/a	Yes	2.777	n/a	n/a	GoodResponse	1	n/a	n/a	8	72	Blank	Win	True
685.771	1.45	Win2	0.6437999999999999	n/a	Yes	2.777	n/a	5.0	GoodResponse	1	0.007	684.778	8	72	Feedback	Win	True
687.22	2.777	Win2	0.6437999999999999	n/a	Yes	2.777	n/a	n/a	GoodResponse	1	0.0	n/a	8	72	ISIslide	Win	True
690.019	0.25	Win2	0.6486	0.001	Yes	2.681	0.019	n/a	GoodResponse	1	n/a	n/a	9	73	Cue	Win	True
690.269	4.0	Win2	0.6486	0.0	Yes	2.681	0.0	n/a	GoodResponse	1	n/a	n/a	9	73	Fixation	Win	True
694.268	0.23	Win2	0.6486	0.001	Yes	2.681	-0.001	2.0	GoodResponse	1	0.211	693.479	9	73	Target	Win	True
694.479	0.3	Win2	0.6486	0.001	Yes	2.681	-0.001	2.0	GoodResponse	1	0.211	n/a	9	73	ButtonPress	Win	True
694.501	0.47	Win2	0.6486	n/a	Yes	2.681	n/a	n/a	GoodResponse	1	n/a	n/a	9	73	Blank	Win	True
694.968	1.45	Win2	0.6486	n/a	Yes	2.681	n/a	5.0	GoodResponse	1	0.029	693.997	9	73	Feedback	Win	True
696.417	2.681	Win2	0.6486	n/a	Yes	2.681	n/a	n/a	GoodResponse	1	0.0	n/a	9	73	ISIslide	Win	True
699.116	0.25	Lose2	0.6533	0.0	Yes	2.634	0.016	n/a	GoodResponse	0	n/a	n/a	9	74	Cue	AvoidedLoss	True
699.366	4.05	Lose2	0.6533	0.0	Yes	2.634	0.0	n/a	GoodResponse	0	n/a	n/a	9	74	Fixation	AvoidedLoss	True
703.415	0.24	Lose2	0.6533	0.001	Yes	2.634	-0.001	2.0	GoodResponse	0	0.228	702.643	9	74	Target	AvoidedLoss	True
703.643	0.3	Lose2	0.6533	0.001	Yes	2.634	-0.001	2.0	GoodResponse	0	0.228	n/a	9	74	ButtonPress	AvoidedLoss	True
703.665	0.46	Lose2	0.6533	n/a	Yes	2.634	n/a	n/a	GoodResponse	0	n/a	n/a	9	74	Blank	AvoidedLoss	True
704.115	1.45	Lose2	0.6533	n/a	Yes	2.634	n/a	5.0	GoodResponse	0	0.004	703.119	9	74	Feedback	AvoidedLoss	True
705.564	2.634	Lose2	0.6533	n/a	Yes	2.634	n/a	n/a	GoodResponse	0	0.0	n/a	9	74	ISIslide	AvoidedLoss	True
708.213	0.25	Lose2	0.6579	0.0	Yes	2.937	0.013	n/a	GoodResponse	0	n/a	n/a	9	75	Cue	AvoidedLoss	True
708.463	3.95	Lose2	0.6579	0.0	Yes	2.937	0.0	n/a	GoodResponse	0	n/a	n/a	9	75	Fixation	AvoidedLoss	True
712.412	0.25	Lose2	0.6579	0.001	Yes	2.937	-0.001	2.0	GoodResponse	0	0.19	711.602	9	75	Target	AvoidedLoss	True
712.602	0.3	Lose2	0.6579	0.001	Yes	2.937	-0.001	2.0	GoodResponse	0	0.19	n/a	9	75	ButtonPress	AvoidedLoss	True
712.662	0.45	Lose2	0.6579	n/a	Yes	2.937	n/a	n/a	GoodResponse	0	n/a	n/a	9	75	Blank	AvoidedLoss	True
713.111	1.45	Lose2	0.6579	n/a	Yes	2.937	n/a	5.0	GoodResponse	0	0.033	712.144	9	75	Feedback	AvoidedLoss	True
714.561	2.937	Lose2	0.6579	n/a	Yes	2.937	n/a	n/a	GoodResponse	0	0.0	n/a	9	75	ISIslide	AvoidedLoss	True
717.527	0.25	Control	0.6623	0.0	Yes	3.223	0.027	n/a	GoodResponse	0	n/a	n/a	9	76	Cue	Neutral	True
717.776	4.05	Control	0.6623	0.001	Yes	3.223	-0.001	n/a	GoodResponse	0	n/a	n/a	9	76	Fixation	Neutral	True
721.825	0.25	Control	0.6623	0.002	Yes	3.223	-0.002	2.0	GoodResponse	0	0.242	721.067	9	76	Target	Neutral	True
722.067	0.3	Control	0.6623	0.002	Yes	3.223	-0.002	2.0	GoodResponse	0	0.242	n/a	9	76	ButtonPress	Neutral	True
722.075	0.45	Control	0.6623	n/a	Yes	3.223	n/a	n/a	GoodResponse	0	n/a	n/a	9	76	Blank	Neutral	True
722.525	1.45	Control	0.6623	n/a	Yes	3.223	n/a	5.0	GoodResponse	0	0.034	721.559	9	76	Feedback	Neutral	True
723.974	3.223	Control	0.6623	n/a	Yes	3.223	n/a	n/a	GoodResponse	0	0.0	n/a	9	76	ISIslide	Neutral	True
727.223	0.25	Lose2	0.6537999999999999	0.0	No	2.577	0.023	n/a	NoResponse	-1	n/a	n/a	8	77	Cue	Loss	True
727.473	3.95	Lose2	0.6537999999999999	0.0	No	2.577	0.0	n/a	NoResponse	-1	n/a	n/a	8	77	Fixation	Loss	True
731.422	0.25	Lose2	0.6537999999999999	0.001	No	2.577	-0.001	2.0	NoResponse	-1	0.281	730.703	8	77	Target	Loss	True
731.672	0.45	Lose2	0.6537999999999999	n/a	No	2.577	n/a	n/a	NoResponse	-1	n/a	n/a	8	77	Blank	Loss	True
731.703	0.3	Lose2	0.6537999999999999	0.001	No	2.577	-0.001	2.0	NoResponse	-1	0.281	n/a	8	77	ButtonPress	Loss	True
732.121	1.45	Lose2	0.6537999999999999	n/a	No	2.577	n/a	5.0	NoResponse	-1	0.047	731.168	8	77	Feedback	Loss	True
733.571	2.577	Lose2	0.6537999999999999	n/a	No	2.577	n/a	n/a	NoResponse	-1	0.0	n/a	8	77	ISIslide	Loss	True
