onset	duration	cue_type	current_mean_accuracy	duration_error	is_hit	isi_adjusted	onset_delay	response	response_type	reward	rt	rt_time	total_reward	trial_number	trial_phase	trial_type	one_press
11.096	0.25	Control	1.0	0.0	Yes	2.954	-0.004	n/a	GoodResponse	0	n/a	n/a	0	0	Cue	Neutral	True
11.346	3.85	Control	1.0	0.0	Yes	2.954	0.0	n/a	GoodResponse	0	n/a	n/a	0	0	Fixation	Neutral	True
15.195	0.4	Control	1.0	0.001	Yes	2.954	-0.001	2.0	GoodResponse	0	0.174	14.369	0	0	Target	Neutral	True
15.369	0.3	Control	1.0	0.001	Yes	2.954	-0.001	2.0	GoodResponse	0	0.174	n/a	0	0	ButtonPress	Neutral	True
15.594	0.3	Control	1.0	n/a	Yes	2.954	n/a	n/a	GoodResponse	0	n/a	n/a	0	0	Blank	Neutral	True
15.894	1.45	Control	1.0	n/a	Yes	2.954	n/a	5.0	GoodResponse	0	0.032	14.926	0	0	Feedback	Neutral	True
17.344	2.954	Control	1.0	n/a	Yes	2.954	n/a	n/a	GoodResponse	0	0.0	n/a	0	0	ISIslide	Neutral	True
20.326	0.25	Lose2	1.0	0.0	Yes	2.774	0.026	n/a	GoodResponse	0	n/a	n/a	0	1	Cue	AvoidedLoss	True
20.576	4.0	Lose2	1.0	0.0	Yes	2.774	0.0	n/a	GoodResponse	0	n/a	n/a	0	1	Fixation	AvoidedLoss	True
24.575	0.39	Lose2	1.0	0.001	Yes	2.774	-0.001	2.0	GoodResponse	0	0.3	23.875	0	1	Target	AvoidedLoss	True
24.875	0.3	Lose2	1.0	0.001	Yes	2.774	-0.001	2.0	GoodResponse	0	0.3	n/a	0	1	ButtonPress	AvoidedLoss	True
24.974	0.31	Lose2	1.0	n/a	Yes	2.774	n/a	n/a	GoodResponse	0	n/a	n/a	0	1	Blank	AvoidedLoss	True
25.274	1.45	Lose2	1.0	n/a	Yes	2.774	n/a	5.0	GoodResponse	0	0.018	24.292	0	1	Feedback	AvoidedLoss	True
26.724	2.774	Lose2	1.0	n/a	Yes	2.774	n/a	n/a	GoodResponse	0	0.0	n/a	0	1	ISIslide	AvoidedLoss	True
29.523	0.25	Control	1.0	0.0	Yes	2.577	0.023	n/a	GoodResponse	0	n/a	n/a	0	2	Cue	Neutral	False
29.773	4.1	Control	1.0	0.0	Yes	2.577	0.0	2.0	GoodResponse	0	3.451	32.224	0	2	Fixation	Neutral	False
33.224	0.3	Control	1.0	0.0	Yes	2.577	0.0	2.0	GoodResponse	0	3.451	n/a	0	2	ButtonPress	Neutral	False
33.871	0.38	Control	1.0	0.002	Yes	2.577	-0.002	2.0	GoodResponse	0	0.196	33.067	0	2	Target	Neutral	False
34.067	0.3	Control	1.0	0.002	Yes	2.577	-0.002	2.0	GoodResponse	0	0.196	n/a	0	2	ButtonPress	Neutral	False
34.255	0.32	Control	1.0	n/a	Yes	2.577	n/a	n/a	GoodResponse	0	n/a	n/a	0	2	Blank	Neutral	False
34.571	1.45	Control	1.0	n/a	Yes	2.577	n/a	5.0	GoodResponse	0	0.038	33.609	0	2	Feedback	Neutral	False
36.021	2.577	Control	1.0	n/a	Yes	2.577	n/a	n/a	GoodResponse	0	0.0	n/a	0	2	ISIslide	Neutral	False
38.62	0.25	Win2	1.0	0.0	Yes	2.83	0.02	n/a	GoodResponse	1	n/a	n/a	1	3	Cue	Win	True
38.87	3.95	Win2	1.0	0.0	Yes	2.83	0.0	n/a	GoodResponse	1	n/a	n/a	1	3	Fixation	Win	True
42.818	0.37	Win2	1.0	0.002	Yes	2.83	-0.002	2.0	GoodResponse	1	0.179	41.997	1	3	Target	Win	True
42.997	0.3	Win2	1.0	0.002	Yes	2.83	-0.002	2.0	GoodResponse	1	0.179	n/a	1	3	ButtonPress	Win	True
43.201	0.33	Win2	1.0	n/a	Yes	2.83	n/a	n/a	GoodResponse	1	n/a	n/a	1	3	Blank	Win	True
43.518	1.45	Win2	1.0	n/a	Yes	2.83	n/a	5.0	GoodResponse	1	0.018	42.536	1	3	Feedback	Win	True
44.967	2.83	Win2	1.0	n/a	Yes	2.83	n/a	n/a	GoodResponse	1	0.0	n/a	1	3	ISIslide	Win	True
47.816	0.25	Win2	1.0	0.001	Yes	3.284	0.016	n/a	GoodResponse	1	n/a	n/a	2	4	Cue	Win	True
48.066	4.0	Win2	1.0	0.0	Yes	3.284	0.0	n/a	GoodResponse	1	n/a	n/a	2	4	Fixation	Win	True
52.065	0.36	Win2	1.0	0.001	Yes	3.284	-0.001	2.0	GoodResponse	1	0.16	51.225	2	4	Target	Win	True
52.225	0.3	Win2	1.0	0.001	Yes	3.284	-0.001	2.0	GoodResponse	1	0.16	n/a	2	4	ButtonPress	Win	True
52.431	0.34	Win2	1.0	n/a	Yes	3.284	n/a	n/a	GoodResponse	1	n/a	n/a	2	4	Blank	Win	True
52.765	1.45	Win2	1.0	n/a	Yes	3.284	n/a	5.0	GoodResponse	1	0.038	51.803	2	4	Feedback	Win	True
54.214	3.284	Win2	1.0	n/a	Yes	3.284	n/a	n/a	GoodResponse	1	0.0	n/a	2	4	ISIslide	Win	True
57.53	0.25	Win2	1.0	0.0	Yes	2.77	0.03	n/a	GoodResponse	1	n/a	n/a	3	5	Cue	Win	False
57.78	4.0	Win2	1.0	0.0	Yes	2.77	0.0	2.0	GoodResponse	1	3.843	60.623	3	5	Fixation	Win	False
61.623	0.3	Win2	1.0	0.0	Yes	2.77	0.0	2.0	GoodResponse	1	3.843	n/a	3	5	ButtonPress	Win	False
61.778	0.35	Win2	1.0	0.002	Yes	2.77	-0.002	2.0	GoodResponse	1	0.173	60.951	3	5	Target	Win	False
61.951	0.3	Win2	1.0	0.002	Yes	2.77	-0.002	2.0	GoodResponse	1	0.173	n/a	3	5	ButtonPress	Win	False
62.128	0.35	Win2	1.0	n/a	Yes	2.77	n/a	n/a	GoodResponse	1	n/a	n/a	3	5	Blank	Win	False
62.478	1.45	Win2	1.0	n/a	Yes	2.77	n/a	5.0	GoodResponse	1	0.033	61.511	3	5	Feedback	Win	False
63.927	2.77	Win2	1.0	n/a	Yes	2.77	n/a	n/a	GoodResponse	1	0.0	n/a	3	5	ISIslide	Win	False
66.726	0.25	Lose2	0.8571	0.001	No	2.724	0.026	n/a	NoResponse	-1	n/a	n/a	2	6	Cue	Loss	True
66.976	3.95	Lose2	0.8571	0.0	No	2.724	0.0	2.0	NoResponse	-1	3.915	69.891	2	6	Fixation	Loss	True
70.891	0.3	Lose2	0.8571	0.0	No	2.724	0.0	2.0	NoResponse	-1	3.915	n/a	2	6	ButtonPress	Loss	True
70.925	0.34	Lose2	0.8571	0.001	No	2.724	-0.001	n/a	NoResponse	-1	n/a	n/a	2	6	Target	Loss	True
71.275	0.36	Lose2	0.8571	n/a	No	2.724	n/a	n/a	NoResponse	-1	n/a	n/a	2	6	Blank	Loss	True
71.625	1.45	Lose2	0.8571	n/a	No	2.724	n/a	5.0	NoResponse	-1	0.008	70.633	2	6	Feedback	Loss	True
73.074	2.724	Lose2	0.8571	n/a	No	2.724	n/a	n/a	NoResponse	-1	0.0	n/a	2	6	ISIslide	Loss	True
75.823	0.25	Lose2	0.875	0.0	Yes	4.027	0.023	n/a	GoodResponse	0	n/a	n/a	2	7	Cue	AvoidedLoss	True
76.073	4.05	Lose2	0.875	0.0	Yes	4.027	0.0	n/a	GoodResponse	0	n/a	n/a	2	7	Fixation	AvoidedLoss	True
80.122	0.33	Lose2	0.875	0.001	Yes	4.027	-0.001	2.0	GoodResponse	0	0.174	79.296	2	7	Target	AvoidedLoss	True
80.296	0.3	Lose2	0.875	0.001	Yes	4.027	-0.001	2.0	GoodResponse	0	0.174	n/a	2	7	ButtonPress	AvoidedLoss	True
80.455	0.37	Lose2	0.875	n/a	Yes	4.027	n/a	n/a	GoodResponse	0	n/a	n/a	2	7	Blank	AvoidedLoss	True
80.821	1.45	Lose2	0.875	n/a	Yes	4.027	n/a	5.0	GoodResponse	0	0.031	79.852	2	7	Feedback	AvoidedLoss	True
82.271	4.027	Lose2	0.875	n/a	Yes	4.027	n/a	n/a	GoodResponse	0	0.0	n/a	2	7	ISIslide	AvoidedLoss	True
86.32	0.25	Lose2	0.8889	0.0	Yes	3.03	0.02	n/a	GoodResponse	0	n/a	n/a	2	8	Cue	AvoidedLoss	True
86.569	3.95	Lose2	0.8889	0.001	Yes	3.03	-0.001	n/a	GoodResponse	0	n/a	n/a	2	8	Fixation	AvoidedLoss	True
90.518	0.32	Lose2	0.8889	0.002	Yes	3.03	-0.002	2.0	GoodResponse	0	0.181	89.699	2	8	Target	AvoidedLoss	True
90.699	0.3	Lose2	0.8889	0.002	Yes	3.03	-0.002	2.0	GoodResponse	0	0.181	n/a	2	8	ButtonPress	AvoidedLoss	True
90.851	0.38	Lose2	0.8889	n/a	Yes	3.03	n/a	n/a	GoodResponse	0	n/a	n/a	2	8	Blank	AvoidedLoss	True
91.218	1.45	Lose2	0.8889	n/a	Yes	3.03	n/a	5.0	GoodResponse	0	0.025	90.243	2	8	Feedback	AvoidedLoss	True
92.667	3.03	Lose2	0.8889	n/a	Yes	3.03	n/a	n/a	GoodResponse	0	0.0	n/a	2	8	ISIslide	AvoidedLoss	True
95.716	0.25	Lose2	0.9	0.0	Yes	3.134	0.016	n/a	GoodResponse	0	n/a	n/a	2	9	Cue	AvoidedLoss	True
95.966	3.95	Lose2	0.9	0.0	Yes	3.134	0.0	n/a	GoodResponse	0	n/a	n/a	2	9	Fixation	AvoidedLoss	True
99.915	0.31	Lose2	0.9	0.001	Yes	3.134	-0.001	2.0	GoodResponse	0	0.178	99.093	2	9	Target	AvoidedLoss	True
100.093	0.3	Lose2	0.9	0.001	Yes	3.134	-0.001	2.0	GoodResponse	0	0.178	n/a	2	9	ButtonPress	AvoidedLoss	True
100.231	0.39	Lose2	0.9	n/a	Yes	3.134	n/a	n/a	GoodResponse	0	n/a	n/a	2	9	Blank	AvoidedLoss	True
100.615	1.45	Lose2	0.9	n/a	Yes	3.134	n/a	5.0	GoodResponse	0	0.041	99.656	2	9	Feedback	AvoidedLoss	True
102.064	3.134	Lose2	0.9	n/a	Yes	3.134	n/a	n/a	GoodResponse	0	0.0	n/a	2	9	ISIslide	AvoidedLoss	True
105.213	0.25	Control	0.9091	0.0	Yes	3.287	0.013	n/a	GoodResponse	0	n/a	n/a	2	10	Cue	Neutral	True
105.463	4.0	Control	0.9091	0.0	Yes	3.287	0.0	n/a	GoodResponse	0	n/a	n/a	2	10	Fixation	Neutral	True
109.461	0.3	Control	0.9091	0.002	Yes	3.287	-0.002	2.0	GoodResponse	0	0.175	108.636	2	10	Target	Neutral	True
109.636	0.3	Control	0.9091	0.002	Yes	3.287	-0.002	2.0	GoodResponse	0	0.175	n/a	2	10	ButtonPress	Neutral	True
109.761	0.4	Control	0.9091	n/a	Yes	3.287	n/a	n/a	GoodResponse	0	n/a	n/a	2	10	Blank	Neutral	True
110.161	1.45	Control	0.9091	n/a	Yes	3.287	n/a	5.0	GoodResponse	0	0.008	109.169	2	10	Feedback	Neutral	True
111.611	3.287	Control	0.9091	n/a	Yes	3.287	n/a	n/a	GoodResponse	0	0.0	n/a	2	10	ISIslide	Neutral	True
114.926	0.25	Lose2	0.9167000000000001	0.0	Yes	2.724	0.026	n/a	GoodResponse	0	n/a	n/a	2	11	Cue	AvoidedLoss	True
115.176	4.05	Lose2	0.9167000000000001	0.0	Yes	2.724	0.0	n/a	GoodResponse	0	n/a	n/a	2	11	Fixation	AvoidedLoss	True
119.225	0.29	Lose2	0.9167000000000001	0.001	Yes	2.724	-0.001	2.0	GoodResponse	0	0.117	118.342	2	11	Target	AvoidedLoss	True
119.342	0.3	Lose2	0.9167000000000001	0.001	Yes	2.724	-0.001	2.0	GoodResponse	0	0.117	n/a	2	11	ButtonPress	AvoidedLoss	True
119.525	0.41	Lose2	0.9167000000000001	n/a	Yes	2.724	n/a	n/a	GoodResponse	0	n/a	n/a	2	11	Blank	AvoidedLoss	True
119.924	1.45	Lose2	0.9167000000000001	n/a	Yes	2.724	n/a	5.0	GoodResponse	0	0.001	118.925	2	11	Feedback	AvoidedLoss	True
121.374	2.724	Lose2	0.9167000000000001	n/a	Yes	2.724	n/a	n/a	GoodResponse	0	0.0	n/a	2	11	ISIslide	AvoidedLoss	True
124.123	0.25	Control	0.9231	0.0	Yes	2.977	0.023	n/a	GoodResponse	0	n/a	n/a	2	12	Cue	Neutral	True
124.373	3.9	Control	0.9231	0.0	Yes	2.977	0.0	n/a	GoodResponse	0	n/a	n/a	2	12	Fixation	Neutral	True
128.271	0.28	Control	0.9231	0.002	Yes	2.977	-0.002	2.0	GoodResponse	0	0.178	127.449	2	12	Target	Neutral	True
128.449	0.3	Control	0.9231	0.002	Yes	2.977	-0.002	2.0	GoodResponse	0	0.178	n/a	2	12	ButtonPress	Neutral	True
128.555	0.42	Control	0.9231	n/a	Yes	2.977	n/a	n/a	GoodResponse	0	n/a	n/a	2	12	Blank	Neutral	True
128.971	1.45	Control	0.9231	n/a	Yes	2.977	n/a	5.0	GoodResponse	0	0.027	127.998	2	12	Feedback	Neutral	True
130.421	2.977	Control	0.9231	n/a	Yes	2.977	n/a	n/a	GoodResponse	0	0.0	n/a	2	12	ISIslide	Neutral	True
133.42	0.25	Control	0.9286	0.0	Yes	2.78	0.02	n/a	GoodResponse	0	n/a	n/a	2	13	Cue	Neutral	True
133.67	4.0	Control	0.9286	0.0	Yes	2.78	0.0	n/a	GoodResponse	0	n/a	n/a	2	13	Fixation	Neutral	True
137.668	0.27	Control	0.9286	0.002	Yes	2.78	-0.002	2.0	GoodResponse	0	0.166	136.834	2	13	Target	Neutral	True
137.834	0.3	Control	0.9286	0.002	Yes	2.78	-0.002	2.0	GoodResponse	0	0.166	n/a	2	13	ButtonPress	Neutral	True
137.951	0.43	Control	0.9286	n/a	Yes	2.78	n/a	n/a	GoodResponse	0	n/a	n/a	2	13	Blank	Neutral	True
138.368	1.45	Control	0.9286	n/a	Yes	2.78	n/a	5.0	GoodResponse	0	0.044	137.412	2	13	Feedback	Neutral	True
139.817	2.78	Control	0.9286	n/a	Yes	2.78	n/a	n/a	GoodResponse	0	0.0	n/a	2	13	ISIslide	Neutral	True
142.616	0.25	Win2	0.9333	0.001	Yes	2.684	0.016	n/a	GoodResponse	1	n/a	n/a	3	14	Cue	Win	False
142.866	4.1	Win2	0.9333	0.0	Yes	2.684	0.0	2.0	GoodResponse	1	0.075	141.941	3	14	Fixation	Win	False
142.941	0.3	Win2	0.9333	0.0	Yes	2.684	0.0	2.0	GoodResponse	1	0.075	n/a	3	14	ButtonPress	Win	False
146.965	0.26	Win2	0.9333	0.001	Yes	2.684	-0.001	2.0	GoodResponse	1	0.179	146.144	3	14	Target	Win	False
147.144	0.3	Win2	0.9333	0.001	Yes	2.684	-0.001	2.0	GoodResponse	1	0.179	n/a	3	14	ButtonPress	Win	False
147.231	0.44	Win2	0.9333	n/a	Yes	2.684	n/a	n/a	GoodResponse	1	n/a	n/a	3	14	Blank	Win	False
147.665	1.45	Win2	0.9333	n/a	Yes	2.684	n/a	5.0	GoodResponse	1	0.015	146.68	3	14	Feedback	Win	False
149.114	2.684	Win2	0.9333	n/a	Yes	2.684	n/a	n/a	GoodResponse	1	0.0	n/a	3	14	ISIslide	Win	False
151.813	0.25	Control	0.9375	0.0	Yes	2.987	0.013	n/a	GoodResponse	0	n/a	n/a	3	15	Cue	Neutral	True
152.063	4.0	Control	0.9375	0.0	Yes	2.987	0.0	n/a	GoodResponse	0	n/a	n/a	3	15	Fixation	Neutral	True
156.062	0.25	Control	0.9375	0.001	Yes	2.987	-0.001	2.0	GoodResponse	0	0.178	155.24	3	15	Target	Neutral	True
156.24	0.3	Control	0.9375	0.001	Yes	2.987	-0.001	2.0	GoodResponse	0	0.178	n/a	3	15	ButtonPress	Neutral	True
156.312	0.45	Control	0.9375	n/a	Yes	2.987	n/a	n/a	GoodResponse	0	n/a	n/a	3	15	Blank	Neutral	True
156.761	1.45	Control	0.9375	n/a	Yes	2.987	n/a	5.0	GoodResponse	0	0.041	155.802	3	15	Feedback	Neutral	True
158.211	2.987	Control	0.9375	n/a	Yes	2.987	n/a	n/a	GoodResponse	0	0.0	n/a	3	15	ISIslide	Neutral	True
161.227	0.25	Win2	0.9412	0.0	Yes	2.873	0.027	n/a	GoodResponse	1	n/a	n/a	4	16	Cue	Win	True
161.476	4.0	Win2	0.9412	0.001	Yes	2.873	-0.001	n/a	GoodResponse	1	n/a	n/a	4	16	Fixation	Win	True
165.475	0.24	Win2	0.9412	0.002	Yes	2.873	-0.002	2.0	GoodResponse	1	0.191	164.666	4	16	Target	Win	True
165.666	0.3	Win2	0.9412	0.002	Yes	2.873	-0.002	2.0	GoodResponse	1	0.191	n/a	4	16	ButtonPress	Win	True
165.725	0.46	Win2	0.9412	n/a	Yes	2.873	n/a	n/a	GoodResponse	1	n/a	n/a	4	16	Blank	Win	True
166.175	1.45	Win2	0.9412	n/a	Yes	2.873	n/a	5.0	GoodResponse	1	0.042	165.217	4	16	Feedback	Win	True
167.624	2.873	Win2	0.9412	n/a	Yes	2.873	n/a	n/a	GoodResponse	1	0.0	n/a	4	16	ISIslide	Win	True
170.523	0.25	Lose2	0.9444	0.0	Yes	2.727	0.023	n/a	GoodResponse	0	n/a	n/a	4	17	Cue	AvoidedLoss	True
170.773	3.95	Lose2	0.9444	0.0	Yes	2.727	0.0	n/a	GoodResponse	0	n/a	n/a	4	17	Fixation	AvoidedLoss	True
174.722	0.23	Lose2	0.9444	0.001	Yes	2.727	-0.001	2.0	GoodResponse	0	0.197	173.919	4	17	Target	AvoidedLoss	True
174.919	0.3	Lose2	0.9444	0.001	Yes	2.727	-0.001	2.0	GoodResponse	0	0.197	n/a	4	17	ButtonPress	AvoidedLoss	True
174.955	0.47	Lose2	0.9444	n/a	Yes	2.727	n/a	n/a	GoodResponse	0	n/a	n/a	4	17	Blank	AvoidedLoss	True
175.421	1.45	Lose2	0.9444	n/a	Yes	2.727	n/a	5.0	GoodResponse	0	0.016	174.437	4	17	Feedback	AvoidedLoss	True
176.871	2.727	Lose2	0.9444	n/a	Yes	2.727	n/a	n/a	GoodResponse	0	0.0	n/a	4	17	ISIslide	AvoidedLoss	True
179.62	0.25	Lose2	0.9473999999999999	0.0	Yes	2.73	0.02	n/a	GoodResponse	0	n/a	n/a	4	18	Cue	AvoidedLoss	True
179.87	4.05	Lose2	0.9473999999999999	0.0	Yes	2.73	0.0	n/a	GoodResponse	0	n/a	n/a	4	18	Fixation	AvoidedLoss	True
183.919	0.22	Lose2	0.9473999999999999	0.001	Yes	2.73	-0.001	2.0	GoodResponse	0	0.175	183.094	4	18	Target	AvoidedLoss	True
184.094	0.3	Lose2	0.9473999999999999	0.001	Yes	2.73	-0.001	2.0	GoodResponse	0	0.175	n/a	4	18	ButtonPress	AvoidedLoss	True
184.152	0.48	Lose2	0.9473999999999999	n/a	Yes	2.73	n/a	n/a	GoodResponse	0	n/a	n/a	4	18	Blank	AvoidedLoss	True
184.618	1.45	Lose2	0.9473999999999999	n/a	Yes	2.73	n/a	5.0	GoodResponse	0	0.037	183.655	4	18	Feedback	AvoidedLoss	True
186.068	2.73	Lose2	0.9473999999999999	n/a	Yes	2.73	n/a	n/a	GoodResponse	0	0.0	n/a	4	18	ISIslide	AvoidedLoss	True
188.817	0.25	Control	0.95	0.0	Yes	2.933	0.017	n/a	GoodResponse	0	n/a	n/a	4	19	Cue	Neutral	True
189.067	3.95	Control	0.95	0.0	Yes	2.933	0.0	n/a	GoodResponse	0	n/a	n/a	4	19	Fixation	Neutral	True
193.015	0.21	Control	0.95	0.002	Yes	2.933	-0.002	2.0	GoodResponse	0	0.168	192.183	4	19	Target	Neutral	True
193.183	0.3	Control	0.95	0.002	Yes	2.933	-0.002	2.0	GoodResponse	0	0.168	n/a	4	19	ButtonPress	Neutral	True
193.232	0.49	Control	0.95	n/a	Yes	2.933	n/a	n/a	GoodResponse	0	n/a	n/a	4	19	Blank	Neutral	True
193.715	1.45	Control	0.95	n/a	Yes	2.933	n/a	5.0	GoodResponse	0	0.014	192.729	4	19	Feedback	Neutral	True
195.165	2.933	Control	0.95	n/a	Yes	2.933	n/a	n/a	GoodResponse	0	0.0	n/a	4	19	ISIslide	Neutral	True
198.114	0.25	Control	0.9048	0.0	No	2.636	0.014	n/a	NoResponse	0	n/a	n/a	4	20	Cue	Neutral	True
198.363	4.05	Control	0.9048	0.001	No	2.636	-0.001	n/a	NoResponse	0	n/a	n/a	4	20	Fixation	Neutral	True
202.412	0.2	Control	0.9048	0.002	No	2.636	-0.002	2.0	NoResponse	0	0.209	201.621	4	20	Target	Neutral	True
202.612	0.5	Control	0.9048	n/a	No	2.636	n/a	n/a	NoResponse	0	n/a	n/a	4	20	Blank	Neutral	True
202.621	0.3	Control	0.9048	0.002	No	2.636	-0.002	2.0	NoResponse	0	0.209	n/a	4	20	ButtonPress	Neutral	True
203.112	1.45	Control	0.9048	n/a	No	2.636	n/a	5.0	NoResponse	0	0.032	202.144	4	20	Feedback	Neutral	True
204.561	2.636	Control	0.9048	n/a	No	2.636	n/a	n/a	NoResponse	0	0.0	n/a	4	20	ISIslide	Neutral	True
207.21	0.25	Control	0.9091	0.0	Yes	2.79	0.01	n/a	GoodResponse	0	n/a	n/a	4	21	Cue	Neutral	True
207.46	4.1	Control	0.9091	0.0	Yes	2.79	0.0	n/a	GoodResponse	0	n/a	n/a	4	21	Fixation	Neutral	True
211.559	0.19	Control	0.9091	0.001	Yes	2.79	-0.001	2.0	GoodResponse	0	0.177	210.736	4	21	Target	Neutral	True
211.736	0.3	Control	0.9091	0.001	Yes	2.79	-0.001	2.0	GoodResponse	0	0.177	n/a	4	21	ButtonPress	Neutral	True
211.759	0.51	Control	0.9091	n/a	Yes	2.79	n/a	n/a	GoodResponse	0	n/a	n/a	4	21	Blank	Neutral	True
212.259	1.45	Control	0.9091	n/a	Yes	2.79	n/a	5.0	GoodResponse	0	0.007	211.266	4	21	Feedback	Neutral	True
213.708	2.79	Control	0.9091	n/a	Yes	2.79	n/a	n/a	GoodResponse	0	0.0	n/a	4	21	ISIslide	Neutral	True
216.524	0.25	Control	0.8695999999999999	0.0	No	2.776	0.024	n/a	PrematurePress	0	n/a	n/a	4	22	Cue	Neutral	True
216.774	4.0	Control	0.8695999999999999	0.0	No	2.776	0.0	n/a	PrematurePress	0	n/a	n/a	4	22	Fixation	Neutral	True
220.772	0.18	Control	0.8695999999999999	0.002	No	2.776	-0.002	2.0	PrematurePress	0	0.045	219.817	4	22	Target	Neutral	True
220.817	0.3	Control	0.8695999999999999	0.002	No	2.776	-0.002	2.0	PrematurePress	0	0.045	n/a	4	22	ButtonPress	Neutral	True
220.955	0.52	Control	0.8695999999999999	n/a	No	2.776	n/a	n/a	PrematurePress	0	n/a	n/a	4	22	Blank	Neutral	True
221.472	1.45	Control	0.8695999999999999	n/a	No	2.776	n/a	5.0	PrematurePress	0	0.012	220.484	4	22	Feedback	Neutral	True
222.921	2.776	Control	0.8695999999999999	n/a	No	2.776	n/a	n/a	PrematurePress	0	0.0	n/a	4	22	ISIslide	Neutral	True
225.72	0.25	Control	0.8332999999999999	0.001	No	2.78	0.02	n/a	NoResponse	0	n/a	n/a	4	23	Cue	Neutral	True
225.97	3.9	Control	0.8332999999999999	0.0	No	2.78	0.0	n/a	NoResponse	0	n/a	n/a	4	23	Fixation	Neutral	True
229.869	0.17	Control	0.8332999999999999	0.001	No	2.78	-0.001	2.0	NoResponse	0	0.175	229.044	4	23	Target	Neutral	True
230.036	0.53	Control	0.8332999999999999	n/a	No	2.78	n/a	n/a	NoResponse	0	n/a	n/a	4	23	Blank	Neutral	True
230.044	0.3	Control	0.8332999999999999	0.001	No	2.78	-0.001	2.0	NoResponse	0	0.175	n/a	4	23	ButtonPress	Neutral	True
230.569	1.45	Control	0.8332999999999999	n/a	No	2.78	n/a	5.0	NoResponse	0	0.037	229.606	4	23	Feedback	Neutral	True
232.018	2.78	Control	0.8332999999999999	n/a	No	2.78	n/a	n/a	NoResponse	0	0.0	n/a	4	23	ISIslide	Neutral	True
234.817	0.25	Win2	0.8	0.0	No	3.133	0.017	n/a	NoResponse	0	n/a	n/a	4	24	Cue	MissedWin	False
235.067	3.95	Win2	0.8	0.0	No	3.133	0.0	2.0	NoResponse	0	0.083	234.15	4	24	Fixation	MissedWin	False
235.15	0.3	Win2	0.8	0.0	No	3.133	0.0	2.0	NoResponse	0	0.083	n/a	4	24	ButtonPress	MissedWin	False
239.016	0.16	Win2	0.8	0.001	No	3.133	-0.001	2.0	NoResponse	0	0.177	238.193	4	24	Target	MissedWin	False
239.182	0.54	Win2	0.8	n/a	No	3.133	n/a	n/a	NoResponse	0	n/a	n/a	4	24	Blank	MissedWin	False
239.193	0.3	Win2	0.8	0.001	No	3.133	-0.001	2.0	NoResponse	0	0.177	n/a	4	24	ButtonPress	MissedWin	False
239.716	1.45	Win2	0.8	n/a	No	3.133	n/a	5.0	NoResponse	0	0.012	238.728	4	24	Feedback	MissedWin	False
241.165	3.133	Win2	0.8	n/a	No	3.133	n/a	n/a	NoResponse	0	0.0	n/a	4	24	ISIslide	MissedWin	False
244.314	0.25	Win2	0.7692	0.0	No	3.086	0.014	n/a	NoResponse	0	n/a	n/a	4	25	Cue	MissedWin	True
244.564	4.0	Win2	0.7692	0.0	No	3.086	0.0	2.0	NoResponse	0	3.963	247.527	4	25	Fixation	MissedWin	True
248.527	0.3	Win2	0.7692	0.0	No	3.086	0.0	2.0	NoResponse	0	3.963	n/a	4	25	ButtonPress	MissedWin	True
248.562	0.15	Win2	0.7692	0.002	No	3.086	-0.002	n/a	NoResponse	0	n/a	n/a	4	25	Target	MissedWin	True
248.712	0.55	Win2	0.7692	n/a	No	3.086	n/a	n/a	NoResponse	0	n/a	n/a	4	25	Blank	MissedWin	True
249.262	1.45	Win2	0.7692	n/a	No	3.086	n/a	5.0	NoResponse	0	0.027	248.289	4	25	Feedback	MissedWin	True
250.712	3.086	Win2	0.7692	n/a	No	3.086	n/a	n/a	NoResponse	0	0.0	n/a	4	25	ISIslide	MissedWin	True
253.827	0.25	Win2	0.7406999999999999	0.0	No	2.923	0.027	n/a	NoResponse	0	n/a	n/a	4	26	Cue	MissedWin	False
254.077	3.95	Win2	0.7406999999999999	0.0	No	2.923	0.0	n/a	NoResponse	0	n/a	n/a	4	26	Fixation	MissedWin	False
258.026	0.15	Win2	0.7406999999999999	0.001	No	2.923	-0.001	n/a	NoResponse	0	n/a	n/a	4	26	Target	MissedWin	False
258.176	0.55	Win2	0.7406999999999999	n/a	No	2.923	n/a	n/a	NoResponse	0	n/a	n/a	4	26	Blank	MissedWin	False
258.725	1.45	Win2	0.7406999999999999	n/a	No	2.923	n/a	5.0	NoResponse	0	0.028	257.753	4	26	Feedback	MissedWin	False
260.175	2.923	Win2	0.7406999999999999	n/a	No	2.923	n/a	n/a	NoResponse	0	0.0	n/a	4	26	ISIslide	MissedWin	False
263.124	0.25	Lose2	0.7143	0.0	No	2.826	0.024	n/a	NoResponse	-1	n/a	n/a	3	27	Cue	Loss	True
263.374	4.05	Lose2	0.7143	0.0	No	2.826	0.0	n/a	NoResponse	-1	n/a	n/a	3	27	Fixation	Loss	True
267.422	0.15	Lose2	0.7143	0.002	No	2.826	-0.002	2.0	NoResponse	-1	0.196	266.618	3	27	Target	Loss	True
267.572	0.55	Lose2	0.7143	n/a	No	2.826	n/a	n/a	NoResponse	-1	n/a	n/a	3	27	Blank	Loss	True
267.618	0.3	Lose2	0.7143	0.002	No	2.826	-0.002	2.0	NoResponse	-1	0.196	n/a	3	27	ButtonPress	Loss	True
268.122	1.45	Lose2	0.7143	n/a	No	2.826	n/a	5.0	NoResponse	-1	0.045	267.167	3	27	Feedback	Loss	True
269.572	2.826	Lose2	0.7143	n/a	No	2.826	n/a	n/a	NoResponse	-1	0.0	n/a	3	27	ISIslide	Loss	True
272.421	0.25	Control	0.6897	0.0	No	2.829	0.021	n/a	PrematurePress	0	n/a	n/a	3	28	Cue	Neutral	False
272.671	4.05	Control	0.6897	0.0	No	2.829	0.0	2.0	PrematurePress	0	3.067	274.738	3	28	Fixation	Neutral	False
275.738	0.3	Control	0.6897	0.0	No	2.829	0.0	2.0	PrematurePress	0	3.067	n/a	3	28	ButtonPress	Neutral	False
276.719	0.15	Control	0.6897	0.002	No	2.829	-0.002	2.0	PrematurePress	0	0.08	275.799	3	28	Target	Neutral	False
276.799	0.3	Control	0.6897	0.002	No	2.829	-0.002	2.0	PrematurePress	0	0.08	n/a	3	28	ButtonPress	Neutral	False
276.869	0.55	Control	0.6897	n/a	No	2.829	n/a	n/a	PrematurePress	0	n/a	n/a	3	28	Blank	Neutral	False
277.419	1.45	Control	0.6897	n/a	No	2.829	n/a	5.0	PrematurePress	0	0.016	276.435	3	28	Feedback	Neutral	False
278.868	2.829	Control	0.6897	n/a	No	2.829	n/a	n/a	PrematurePress	0	0.0	n/a	3	28	ISIslide	Neutral	False
281.717	0.25	Lose2	0.6667000000000001	0.0	No	2.833	0.017	n/a	NoResponse	-1	n/a	n/a	2	29	Cue	Loss	True
281.967	3.95	Lose2	0.6667000000000001	0.0	No	2.833	0.0	n/a	NoResponse	-1	n/a	n/a	2	29	Fixation	Loss	True
285.916	0.15	Lose2	0.6667000000000001	0.001	No	2.833	-0.001	2.0	NoResponse	-1	0.163	285.079	2	29	Target	Loss	True
286.066	0.55	Lose2	0.6667000000000001	n/a	No	2.833	n/a	n/a	NoResponse	-1	n/a	n/a	2	29	Blank	Loss	True
286.079	0.3	Lose2	0.6667000000000001	0.001	No	2.833	-0.001	2.0	NoResponse	-1	0.163	n/a	2	29	ButtonPress	Loss	True
286.616	1.45	Lose2	0.6667000000000001	n/a	No	2.833	n/a	5.0	NoResponse	-1	0.039	285.655	2	29	Feedback	Loss	True
288.065	2.833	Lose2	0.6667000000000001	n/a	No	2.833	n/a	n/a	NoResponse	-1	0.0	n/a	2	29	ISIslide	Loss	True
290.914	0.25	Win2	0.6774	0.0	Yes	2.786	0.014	n/a	GoodResponse	1	n/a	n/a	3	30	Cue	Win	False
291.164	3.9	Win2	0.6774	0.0	Yes	2.786	0.0	2.0	GoodResponse	1	2.839	293.003	3	30	Fixation	Win	False
294.003	0.3	Win2	0.6774	0.0	Yes	2.786	0.0	2.0	GoodResponse	1	2.839	n/a	3	30	ButtonPress	Win	False
295.063	0.15	Win2	0.6774	0.001	Yes	2.786	-0.001	2.0	GoodResponse	1	0.128	294.191	3	30	Target	Win	False
295.191	0.3	Win2	0.6774	0.001	Yes	2.786	-0.001	2.0	GoodResponse	1	0.128	n/a	3	30	ButtonPress	Win	False
295.213	0.55	Win2	0.6774	n/a	Yes	2.786	n/a	n/a	GoodResponse	1	n/a	n/a	3	30	Blank	Win	False
295.762	1.45	Win2	0.6774	n/a	Yes	2.786	n/a	5.0	GoodResponse	1	0.015	294.777	3	30	Feedback	Win	False
297.212	2.786	Win2	0.6774	n/a	Yes	2.786	n/a	n/a	GoodResponse	1	0.0	n/a	3	30	ISIslide	Win	False
300.028	0.25	Lose2	0.6562	0.0	No	2.822	0.028	n/a	PrematurePress	-1	n/a	n/a	2	31	Cue	Loss	False
300.278	4.05	Lose2	0.6562	0.0	No	2.822	0.0	2.0	PrematurePress	-1	1.625	300.903	2	31	Fixation	Loss	False
301.903	0.3	Lose2	0.6562	0.0	No	2.822	0.0	2.0	PrematurePress	-1	1.625	n/a	2	31	ButtonPress	Loss	False
304.326	0.15	Lose2	0.6562	0.002	No	2.822	-0.002	2.0	PrematurePress	-1	0.03	303.356	2	31	Target	Loss	False
304.356	0.3	Lose2	0.6562	0.002	No	2.822	-0.002	2.0	PrematurePress	-1	0.03	n/a	2	31	ButtonPress	Loss	False
304.476	0.55	Lose2	0.6562	n/a	No	2.822	n/a	n/a	PrematurePress	-1	n/a	n/a	2	31	Blank	Loss	False
305.026	1.45	Lose2	0.6562	n/a	No	2.822	n/a	5.0	PrematurePress	-1	0.018	304.044	2	31	Feedback	Loss	False
306.475	2.822	Lose2	0.6562	n/a	No	2.822	n/a	2.0	PrematurePress	-1	0.704	n/a	2	31	ISIslide	Loss	False
309.308	0.25	Lose2	0.6364	0.0	No	2.642	0.008	n/a	NoResponse	-1	n/a	n/a	1	32	Cue	Loss	False
309.558	4.15	Lose2	0.6364	0.0	No	2.642	0.0	2.0	NoResponse	-1	4.025	312.583	1	32	Fixation	Loss	False
313.583	0.3	Lose2	0.6364	0.0	No	2.642	0.0	2.0	NoResponse	-1	4.025	n/a	1	32	ButtonPress	Loss	False
313.706	0.15	Lose2	0.6364	0.002	No	2.642	-0.002	2.0	NoResponse	-1	0.218	312.924	1	32	Target	Loss	False
313.856	0.55	Lose2	0.6364	n/a	No	2.642	n/a	n/a	NoResponse	-1	n/a	n/a	1	32	Blank	Loss	False
313.924	0.3	Lose2	0.6364	0.002	No	2.642	-0.002	2.0	NoResponse	-1	0.218	n/a	1	32	ButtonPress	Loss	False
314.406	1.45	Lose2	0.6364	n/a	No	2.642	n/a	5.0	NoResponse	-1	0.004	313.41	1	32	Feedback	Loss	False
315.855	2.642	Lose2	0.6364	n/a	No	2.642	n/a	n/a	NoResponse	-1	0.0	n/a	1	32	ISIslide	Loss	False
318.521	0.25	Win2	0.6470999999999999	0.0	Yes	2.679	0.021	n/a	GoodResponse	1	n/a	n/a	2	33	Cue	Win	False
318.771	4.0	Win2	0.6470999999999999	0.0	Yes	2.679	0.0	2.0	GoodResponse	1	3.727	321.498	2	33	Fixation	Win	False
322.498	0.3	Win2	0.6470999999999999	0.0	Yes	2.679	0.0	2.0	GoodResponse	1	3.727	n/a	2	33	ButtonPress	Win	False
322.77	0.16	Win2	0.6470999999999999	0.001	Yes	2.679	-0.001	2.0	GoodResponse	1	0.136	321.906	2	33	Target	Win	False
322.906	0.3	Win2	0.6470999999999999	0.001	Yes	2.679	-0.001	2.0	GoodResponse	1	0.136	n/a	2	33	ButtonPress	Win	False
322.936	0.54	Win2	0.6470999999999999	n/a	Yes	2.679	n/a	n/a	GoodResponse	1	n/a	n/a	2	33	Blank	Win	False
323.469	1.45	Win2	0.6470999999999999	n/a	Yes	2.679	n/a	5.0	GoodResponse	1	0.014	322.483	2	33	Feedback	Win	False
324.919	2.679	Win2	0.6470999999999999	n/a	Yes	2.679	n/a	n/a	GoodResponse	1	0.0	n/a	2	33	ISIslide	Win	False
327.618	0.25	Lose2	0.6286	0.0	No	2.632	0.018	n/a	NoResponse	-1	n/a	n/a	1	34	Cue	Loss	True
327.868	4.05	Lose2	0.6286	0.0	No	2.632	0.0	n/a	NoResponse	-1	n/a	n/a	1	34	Fixation	Loss	True
331.916	0.17	Lose2	0.6286	0.002	No	2.632	-0.002	2.0	NoResponse	-1	0.2	331.116	1	34	Target	Loss	True
332.1	0.53	Lose2	0.6286	n/a	No	2.632	n/a	n/a	NoResponse	-1	n/a	n/a	1	34	Blank	Loss	True
332.116	0.3	Lose2	0.6286	0.002	No	2.632	-0.002	2.0	NoResponse	-1	0.2	n/a	1	34	ButtonPress	Loss	True
332.616	1.45	Lose2	0.6286	n/a	No	2.632	n/a	5.0	NoResponse	-1	0.038	331.654	1	34	Feedback	Loss	True
334.066	2.632	Lose2	0.6286	n/a	No	2.632	n/a	n/a	NoResponse	-1	0.0	n/a	1	34	ISIslide	Loss	True
336.715	0.25	Lose2	0.6389	0.0	Yes	2.685	0.015	n/a	GoodResponse	0	n/a	n/a	1	35	Cue	AvoidedLoss	False
336.965	4.0	Lose2	0.6389	0.0	Yes	2.685	0.0	2.0	GoodResponse	0	3.536	339.501	1	35	Fixation	AvoidedLoss	False
340.501	0.3	Lose2	0.6389	0.0	Yes	2.685	0.0	2.0	GoodResponse	0	3.536	n/a	1	35	ButtonPress	AvoidedLoss	False
340.963	0.18	Lose2	0.6389	0.002	Yes	2.685	-0.002	2.0	GoodResponse	0	0.159	340.122	1	35	Target	AvoidedLoss	False
341.122	0.3	Lose2	0.6389	0.002	Yes	2.685	-0.002	2.0	GoodResponse	0	0.159	n/a	1	35	ButtonPress	AvoidedLoss	False
341.146	0.52	Lose2	0.6389	n/a	Yes	2.685	n/a	n/a	GoodResponse	0	n/a	n/a	1	35	Blank	AvoidedLoss	False
341.663	1.45	Lose2	0.6389	n/a	Yes	2.685	n/a	5.0	GoodResponse	0	0.016	340.679	1	35	Feedback	AvoidedLoss	False
343.112	2.685	Lose2	0.6389	n/a	Yes	2.685	n/a	2.0	GoodResponse	0	1.253	n/a	1	35	ISIslide	AvoidedLoss	False
345.811	0.25	Control	0.6215999999999999	0.001	No	2.689	0.011	n/a	PrematurePress	0	n/a	n/a	1	36	Cue	Neutral	True
346.061	4.0	Control	0.6215999999999999	0.0	No	2.689	0.0	n/a	PrematurePress	0	n/a	n/a	1	36	Fixation	Neutral	True
350.06	0.19	Control	0.6215999999999999	0.001	No	2.689	-0.001	2.0	PrematurePress	0	0.087	349.147	1	36	Target	Neutral	True
350.147	0.3	Control	0.6215999999999999	0.001	No	2.689	-0.001	2.0	PrematurePress	0	0.087	n/a	1	36	ButtonPress	Neutral	True
350.26	0.51	Control	0.6215999999999999	n/a	No	2.689	n/a	n/a	PrematurePress	0	n/a	n/a	1	36	Blank	Neutral	True
350.76	1.45	Control	0.6215999999999999	n/a	No	2.689	n/a	5.0	PrematurePress	0	0.04	349.8	1	36	Feedback	Neutral	True
352.209	2.689	Control	0.6215999999999999	n/a	No	2.689	n/a	n/a	PrematurePress	0	0.0	n/a	1	36	ISIslide	Neutral	True
354.925	0.25	Win2	0.6315999999999999	0.0	Yes	2.875	0.025	n/a	GoodResponse	1	n/a	n/a	2	37	Cue	Win	False
355.175	4.0	Win2	0.6315999999999999	0.0	Yes	2.875	0.0	2.0	GoodResponse	1	3.853	358.028	2	37	Fixation	Win	False
359.028	0.3	Win2	0.6315999999999999	0.0	Yes	2.875	0.0	2.0	GoodResponse	1	3.853	n/a	2	37	ButtonPress	Win	False
359.173	0.2	Win2	0.6315999999999999	0.002	Yes	2.875	-0.002	2.0	GoodResponse	1	0.13	358.303	2	37	Target	Win	False
359.303	0.3	Win2	0.6315999999999999	0.002	Yes	2.875	-0.002	2.0	GoodResponse	1	0.13	n/a	2	37	ButtonPress	Win	False
359.373	0.5	Win2	0.6315999999999999	n/a	Yes	2.875	n/a	n/a	GoodResponse	1	n/a	n/a	2	37	Blank	Win	False
359.873	1.45	Win2	0.6315999999999999	n/a	Yes	2.875	n/a	5.0	GoodResponse	1	0.0	358.873	2	37	Feedback	Win	False
361.323	2.875	Win2	0.6315999999999999	n/a	Yes	2.875	n/a	n/a	GoodResponse	1	0.0	n/a	2	37	ISIslide	Win	False
364.222	0.25	Lose2	0.6154	0.0	No	2.828	0.022	n/a	PrematurePress	-1	n/a	n/a	1	38	Cue	Loss	False
364.472	3.95	Lose2	0.6154	0.0	No	2.828	0.0	2.0	PrematurePress	-1	3.534	367.006	1	38	Fixation	Loss	False
368.006	0.3	Lose2	0.6154	0.0	No	2.828	0.0	2.0	PrematurePress	-1	3.534	n/a	1	38	ButtonPress	Loss	False
368.42	0.21	Lose2	0.6154	0.002	No	2.828	-0.002	2.0	PrematurePress	-1	0.05	367.47	1	38	Target	Loss	False
368.47	0.3	Lose2	0.6154	0.002	No	2.828	-0.002	2.0	PrematurePress	-1	0.05	n/a	1	38	ButtonPress	Loss	False
368.637	0.49	Lose2	0.6154	n/a	No	2.828	n/a	n/a	PrematurePress	-1	n/a	n/a	1	38	Blank	Loss	False
369.12	1.45	Lose2	0.6154	n/a	No	2.828	n/a	5.0	PrematurePress	-1	0.022	368.142	1	38	Feedback	Loss	False
370.569	2.828	Lose2	0.6154	n/a	No	2.828	n/a	n/a	PrematurePress	-1	0.0	n/a	1	38	ISIslide	Loss	False
373.418	0.25	Win2	0.625	0.0	Yes	2.982	0.018	n/a	GoodResponse	1	n/a	n/a	2	39	Cue	Win	False
373.668	4.1	Win2	0.625	0.0	Yes	2.982	0.0	2.0	GoodResponse	1	4.026	376.694	2	39	Fixation	Win	False
377.694	0.3	Win2	0.625	0.0	Yes	2.982	0.0	2.0	GoodResponse	1	4.026	n/a	2	39	ButtonPress	Win	False
377.767	0.22	Win2	0.625	0.001	Yes	2.982	-0.001	2.0	GoodResponse	1	0.14	376.907	2	39	Target	Win	False
377.907	0.3	Win2	0.625	0.001	Yes	2.982	-0.001	2.0	GoodResponse	1	0.14	n/a	2	39	ButtonPress	Win	False
377.983	0.48	Win2	0.625	n/a	Yes	2.982	n/a	n/a	GoodResponse	1	n/a	n/a	2	39	Blank	Win	False
378.467	1.45	Win2	0.625	n/a	Yes	2.982	n/a	5.0	GoodResponse	1	0.041	377.508	2	39	Feedback	Win	False
379.916	2.982	Win2	0.625	n/a	Yes	2.982	n/a	n/a	GoodResponse	1	0.0	n/a	2	39	ISIslide	Win	False
382.915	0.25	Win2	0.6098	0.0	No	2.735	0.015	n/a	PrematurePress	0	n/a	n/a	2	40	Cue	MissedWin	False
383.165	3.95	Win2	0.6098	0.0	No	2.735	0.0	2.0	PrematurePress	0	3.339	385.504	2	40	Fixation	MissedWin	False
386.504	0.3	Win2	0.6098	0.0	No	2.735	0.0	2.0	PrematurePress	0	3.339	n/a	2	40	ButtonPress	MissedWin	False
387.114	0.23	Win2	0.6098	0.001	No	2.735	-0.001	2.0	PrematurePress	0	0.034	386.148	2	40	Target	MissedWin	False
387.148	0.3	Win2	0.6098	0.001	No	2.735	-0.001	2.0	PrematurePress	0	0.034	n/a	2	40	ButtonPress	MissedWin	False
387.347	0.47	Win2	0.6098	n/a	No	2.735	n/a	n/a	PrematurePress	0	n/a	n/a	2	40	Blank	MissedWin	False
387.813	1.45	Win2	0.6098	n/a	No	2.735	n/a	5.0	PrematurePress	0	0.012	386.825	2	40	Feedback	MissedWin	False
389.263	2.735	Win2	0.6098	n/a	No	2.735	n/a	n/a	PrematurePress	0	0.0	n/a	2	40	ISIslide	MissedWin	False
392.029	0.25	Win2	0.619	0.0	Yes	2.771	0.029	n/a	GoodResponse	1	n/a	n/a	3	41	Cue	Win	True
392.278	3.9	Win2	0.619	0.001	Yes	2.771	-0.001	n/a	GoodResponse	1	n/a	n/a	3	41	Fixation	Win	True
396.177	0.24	Win2	0.619	0.002	Yes	2.771	-0.002	2.0	GoodResponse	1	0.163	395.34	3	41	Target	Win	True
396.34	0.3	Win2	0.619	0.002	Yes	2.771	-0.002	2.0	GoodResponse	1	0.163	n/a	3	41	ButtonPress	Win	True
396.427	0.46	Win2	0.619	n/a	Yes	2.771	n/a	n/a	GoodResponse	1	n/a	n/a	3	41	Blank	Win	True
396.877	1.45	Win2	0.619	n/a	Yes	2.771	n/a	5.0	GoodResponse	1	0.02	395.897	3	41	Feedback	Win	True
398.326	2.771	Win2	0.619	n/a	Yes	2.771	n/a	n/a	GoodResponse	1	0.0	n/a	3	41	ISIslide	Win	True
401.125	0.25	Control	0.6047	0.0	No	2.925	0.025	n/a	PrematurePress	0	n/a	n/a	3	42	Cue	Neutral	False
401.375	3.85	Control	0.6047	0.0	No	2.925	0.0	2.0	PrematurePress	0	3.531	403.906	3	42	Fixation	Neutral	False
404.906	0.3	Control	0.6047	0.0	No	2.925	0.0	2.0	PrematurePress	0	3.531	n/a	3	42	ButtonPress	Neutral	False
405.224	0.25	Control	0.6047	0.001	No	2.925	-0.001	2.0	PrematurePress	0	0.078	404.302	3	42	Target	Neutral	False
405.302	0.3	Control	0.6047	0.001	No	2.925	-0.001	2.0	PrematurePress	0	0.078	n/a	3	42	ButtonPress	Neutral	False
405.474	0.45	Control	0.6047	n/a	No	2.925	n/a	n/a	PrematurePress	0	n/a	n/a	3	42	Blank	Neutral	False
405.924	1.45	Control	0.6047	n/a	No	2.925	n/a	5.0	PrematurePress	0	0.046	404.97	3	42	Feedback	Neutral	False
407.373	2.925	Control	0.6047	n/a	No	2.925	n/a	n/a	PrematurePress	0	0.0	n/a	3	42	ISIslide	Neutral	False
410.322	0.25	Win2	0.6136	0.0	Yes	3.178	0.022	n/a	GoodResponse	1	n/a	n/a	4	43	Cue	Win	True
410.572	4.0	Win2	0.6136	0.0	Yes	3.178	0.0	n/a	GoodResponse	1	n/a	n/a	4	43	Fixation	Win	True
414.571	0.26	Win2	0.6136	0.001	Yes	3.178	-0.001	2.0	GoodResponse	1	0.141	413.712	4	43	Target	Win	True
414.712	0.3	Win2	0.6136	0.001	Yes	3.178	-0.001	2.0	GoodResponse	1	0.141	n/a	4	43	ButtonPress	Win	True
414.837	0.44	Win2	0.6136	n/a	Yes	3.178	n/a	n/a	GoodResponse	1	n/a	n/a	4	43	Blank	Win	True
415.27	1.45	Win2	0.6136	n/a	Yes	3.178	n/a	5.0	GoodResponse	1	0.018	414.288	4	43	Feedback	Win	True
416.72	3.178	Win2	0.6136	n/a	Yes	3.178	n/a	n/a	GoodResponse	1	0.0	n/a	4	43	ISIslide	Win	True
419.919	0.25	Win2	0.6222	0.0	Yes	2.981	0.019	n/a	GoodResponse	1	n/a	n/a	5	44	Cue	Win	True
420.169	4.0	Win2	0.6222	0.0	Yes	2.981	0.0	n/a	GoodResponse	1	n/a	n/a	5	44	Fixation	Win	True
424.167	0.27	Win2	0.6222	0.002	Yes	2.981	-0.002	2.0	GoodResponse	1	0.162	423.329	5	44	Target	Win	True
424.329	0.3	Win2	0.6222	0.002	Yes	2.981	-0.002	2.0	GoodResponse	1	0.162	n/a	5	44	ButtonPress	Win	True
424.45	0.43	Win2	0.6222	n/a	Yes	2.981	n/a	n/a	GoodResponse	1	n/a	n/a	5	44	Blank	Win	True
424.867	1.45	Win2	0.6222	n/a	Yes	2.981	n/a	5.0	GoodResponse	1	0.03	423.897	5	44	Feedback	Win	True
426.316	2.981	Win2	0.6222	n/a	Yes	2.981	n/a	n/a	GoodResponse	1	0.0	n/a	5	44	ISIslide	Win	True
429.315	0.25	Control	0.6087	0.001	No	2.885	0.015	n/a	NoResponse	0	n/a	n/a	5	45	Cue	Neutral	True
429.565	4.1	Control	0.6087	0.0	No	2.885	0.0	n/a	NoResponse	0	n/a	n/a	5	45	Fixation	Neutral	True
433.664	0.28	Control	0.6087	0.001	No	2.885	-0.001	2.0	NoResponse	0	0.291	432.955	5	45	Target	Neutral	True
433.947	0.42	Control	0.6087	n/a	No	2.885	n/a	n/a	NoResponse	0	n/a	n/a	5	45	Blank	Neutral	True
433.955	0.3	Control	0.6087	0.001	No	2.885	-0.001	2.0	NoResponse	0	0.291	n/a	5	45	ButtonPress	Neutral	True
434.364	1.45	Control	0.6087	n/a	No	2.885	n/a	5.0	NoResponse	0	0.045	433.409	5	45	Feedback	Neutral	True
435.813	2.885	Control	0.6087	n/a	No	2.885	n/a	n/a	NoResponse	0	0.0	n/a	5	45	ISIslide	Neutral	True
438.712	0.25	Lose2	0.617	0.0	Yes	3.388	0.012	n/a	GoodResponse	0	n/a	n/a	5	46	Cue	AvoidedLoss	True
438.962	4.0	Lose2	0.617	0.0	Yes	3.388	0.0	n/a	GoodResponse	0	n/a	n/a	5	46	Fixation	AvoidedLoss	True
442.961	0.29	Lose2	0.617	0.001	Yes	3.388	-0.001	2.0	GoodResponse	0	0.169	442.13	5	46	Target	AvoidedLoss	True
443.13	0.3	Lose2	0.617	0.001	Yes	3.388	-0.001	2.0	GoodResponse	0	0.169	n/a	5	46	ButtonPress	AvoidedLoss	True
443.26	0.41	Lose2	0.617	n/a	Yes	3.388	n/a	n/a	GoodResponse	0	n/a	n/a	5	46	Blank	AvoidedLoss	True
443.66	1.45	Lose2	0.617	n/a	Yes	3.388	n/a	5.0	GoodResponse	0	0.017	442.677	5	46	Feedback	AvoidedLoss	True
445.11	3.388	Lose2	0.617	n/a	Yes	3.388	n/a	n/a	GoodResponse	0	0.0	n/a	5	46	ISIslide	AvoidedLoss	True
448.525	0.25	Lose2	0.625	0.0	Yes	2.675	0.025	n/a	GoodResponse	0	n/a	n/a	5	47	Cue	AvoidedLoss	True
448.775	4.0	Lose2	0.625	0.0	Yes	2.675	0.0	n/a	GoodResponse	0	n/a	n/a	5	47	Fixation	AvoidedLoss	True
452.774	0.3	Lose2	0.625	0.001	Yes	2.675	-0.001	2.0	GoodResponse	0	0.186	451.96	5	47	Target	AvoidedLoss	True
452.96	0.3	Lose2	0.625	0.001	Yes	2.675	-0.001	2.0	GoodResponse	0	0.186	n/a	5	47	ButtonPress	AvoidedLoss	True
453.074	0.4	Lose2	0.625	n/a	Yes	2.675	n/a	n/a	GoodResponse	0	n/a	n/a	5	47	Blank	AvoidedLoss	True
453.474	1.45	Lose2	0.625	n/a	Yes	2.675	n/a	5.0	GoodResponse	0	0.008	452.482	5	47	Feedback	AvoidedLoss	True
454.923	2.675	Lose2	0.625	n/a	Yes	2.675	n/a	n/a	GoodResponse	0	0.0	n/a	5	47	ISIslide	AvoidedLoss	True
457.622	0.25	Lose2	0.6327	0.0	Yes	3.028	0.022	n/a	GoodResponse	0	n/a	n/a	5	48	Cue	AvoidedLoss	False
457.872	3.95	Lose2	0.6327	0.0	Yes	3.028	0.0	2.0	GoodResponse	0	3.929	460.801	5	48	Fixation	AvoidedLoss	False
461.801	0.3	Lose2	0.6327	0.0	Yes	3.028	0.0	2.0	GoodResponse	0	3.929	n/a	5	48	ButtonPress	AvoidedLoss	False
461.821	0.31	Lose2	0.6327	0.001	Yes	3.028	-0.001	2.0	GoodResponse	0	0.185	461.006	5	48	Target	AvoidedLoss	False
462.006	0.3	Lose2	0.6327	0.001	Yes	3.028	-0.001	2.0	GoodResponse	0	0.185	n/a	5	48	ButtonPress	AvoidedLoss	False
462.137	0.39	Lose2	0.6327	n/a	Yes	3.028	n/a	n/a	GoodResponse	0	n/a	n/a	5	48	Blank	AvoidedLoss	False
462.52	1.45	Lose2	0.6327	n/a	Yes	3.028	n/a	5.0	GoodResponse	0	0.035	461.555	5	48	Feedback	AvoidedLoss	False
463.97	3.028	Lose2	0.6327	n/a	Yes	3.028	n/a	n/a	GoodResponse	0	0.0	n/a	5	48	ISIslide	AvoidedLoss	False
467.019	0.25	Control	0.64	0.0	Yes	2.881	0.019	n/a	GoodResponse	0	n/a	n/a	5	49	Cue	Neutral	True
467.269	4.0	Control	0.64	0.0	Yes	2.881	0.0	n/a	GoodResponse	0	n/a	n/a	5	49	Fixation	Neutral	True
471.267	0.32	Control	0.64	0.002	Yes	2.881	-0.002	2.0	GoodResponse	0	0.165	470.432	5	49	Target	Neutral	True
471.432	0.3	Control	0.64	0.002	Yes	2.881	-0.002	2.0	GoodResponse	0	0.165	n/a	5	49	ButtonPress	Neutral	True
471.6	0.38	Control	0.64	n/a	Yes	2.881	n/a	n/a	GoodResponse	0	n/a	n/a	5	49	Blank	Neutral	True
471.967	1.45	Control	0.64	n/a	Yes	2.881	n/a	5.0	GoodResponse	0	0.005	470.972	5	49	Feedback	Neutral	True
473.417	2.881	Control	0.64	n/a	Yes	2.881	n/a	n/a	GoodResponse	0	0.0	n/a	5	49	ISIslide	Neutral	True
476.315	0.25	Control	0.6470999999999999	0.001	Yes	2.785	0.015	n/a	GoodResponse	0	n/a	n/a	5	50	Cue	Neutral	True
476.565	4.0	Control	0.6470999999999999	0.0	Yes	2.785	0.0	n/a	GoodResponse	0	n/a	n/a	5	50	Fixation	Neutral	True
480.564	0.33	Control	0.6470999999999999	0.001	Yes	2.785	-0.001	2.0	GoodResponse	0	0.163	479.727	5	50	Target	Neutral	True
480.727	0.3	Control	0.6470999999999999	0.001	Yes	2.785	-0.001	2.0	GoodResponse	0	0.163	n/a	5	50	ButtonPress	Neutral	True
480.897	0.37	Control	0.6470999999999999	n/a	Yes	2.785	n/a	n/a	GoodResponse	0	n/a	n/a	5	50	Blank	Neutral	True
481.264	1.45	Control	0.6470999999999999	n/a	Yes	2.785	n/a	5.0	GoodResponse	0	0.022	480.286	5	50	Feedback	Neutral	True
482.713	2.785	Control	0.6470999999999999	n/a	Yes	2.785	n/a	n/a	GoodResponse	0	0.0	n/a	5	50	ISIslide	Neutral	True
485.512	0.25	Control	0.6537999999999999	0.0	Yes	2.738	0.012	n/a	GoodResponse	0	n/a	n/a	5	51	Cue	Neutral	True
485.762	3.95	Control	0.6537999999999999	0.0	Yes	2.738	0.0	n/a	GoodResponse	0	n/a	n/a	5	51	Fixation	Neutral	True
489.711	0.34	Control	0.6537999999999999	0.001	Yes	2.738	-0.001	2.0	GoodResponse	0	0.171	488.882	5	51	Target	Neutral	True
489.882	0.3	Control	0.6537999999999999	0.001	Yes	2.738	-0.001	2.0	GoodResponse	0	0.171	n/a	5	51	ButtonPress	Neutral	True
490.061	0.36	Control	0.6537999999999999	n/a	Yes	2.738	n/a	n/a	GoodResponse	0	n/a	n/a	5	51	Blank	Neutral	True
490.411	1.45	Control	0.6537999999999999	n/a	Yes	2.738	n/a	5.0	GoodResponse	0	0.046	489.457	5	51	Feedback	Neutral	True
491.86	2.738	Control	0.6537999999999999	n/a	Yes	2.738	n/a	n/a	GoodResponse	0	0.0	n/a	5	51	ISIslide	Neutral	True
494.626	0.25	Control	0.6604000000000001	0.0	Yes	2.624	0.026	n/a	GoodResponse	0	n/a	n/a	5	52	Cue	Neutral	True
494.876	4.05	Control	0.6604000000000001	0.0	Yes	2.624	0.0	n/a	GoodResponse	0	n/a	n/a	5	52	Fixation	Neutral	True
498.924	0.35	Control	0.6604000000000001	0.002	Yes	2.624	-0.002	2.0	GoodResponse	0	0.214	498.138	5	52	Target	Neutral	True
499.138	0.3	Control	0.6604000000000001	0.002	Yes	2.624	-0.002	2.0	GoodResponse	0	0.214	n/a	5	52	ButtonPress	Neutral	True
499.274	0.35	Control	0.6604000000000001	n/a	Yes	2.624	n/a	n/a	GoodResponse	0	n/a	n/a	5	52	Blank	Neutral	True
499.624	1.45	Control	0.6604000000000001	n/a	Yes	2.624	n/a	5.0	GoodResponse	0	0.004	498.628	5	52	Feedback	Neutral	True
501.073	2.624	Control	0.6604000000000001	n/a	Yes	2.624	n/a	n/a	GoodResponse	0	0.0	n/a	5	52	ISIslide	Neutral	True
503.723	0.25	Win2	0.6667000000000001	0.0	Yes	2.927	0.023	n/a	GoodResponse	1	n/a	n/a	6	53	Cue	Win	False
503.972	4.05	Win2	0.6667000000000001	0.001	Yes	2.927	-0.001	2.0	GoodResponse	1	3.763	506.735	6	53	Fixation	Win	False
507.735	0.3	Win2	0.6667000000000001	0.001	Yes	2.927	-0.001	2.0	GoodResponse	1	3.763	n/a	6	53	ButtonPress	Win	False
508.021	0.35	Win2	0.6667000000000001	0.002	Yes	2.927	-0.002	2.0	GoodResponse	1	0.175	507.196	6	53	Target	Win	False
508.196	0.3	Win2	0.6667000000000001	0.002	Yes	2.927	-0.002	2.0	GoodResponse	1	0.175	n/a	6	53	ButtonPress	Win	False
508.371	0.35	Win2	0.6667000000000001	n/a	Yes	2.927	n/a	n/a	GoodResponse	1	n/a	n/a	6	53	Blank	Win	False
508.721	1.45	Win2	0.6667000000000001	n/a	Yes	2.927	n/a	5.0	GoodResponse	1	0.029	507.75	6	53	Feedback	Win	False
510.17	2.927	Win2	0.6667000000000001	n/a	Yes	2.927	n/a	n/a	GoodResponse	1	0.0	n/a	6	53	ISIslide	Win	False
513.119	0.25	Win2	0.6727	0.0	Yes	2.731	0.019	n/a	GoodResponse	1	n/a	n/a	7	54	Cue	Win	True
513.369	3.95	Win2	0.6727	0.0	Yes	2.731	0.0	n/a	GoodResponse	1	n/a	n/a	7	54	Fixation	Win	True
517.318	0.34	Win2	0.6727	0.001	Yes	2.731	-0.001	2.0	GoodResponse	1	0.165	516.483	7	54	Target	Win	True
517.483	0.3	Win2	0.6727	0.001	Yes	2.731	-0.001	2.0	GoodResponse	1	0.165	n/a	7	54	ButtonPress	Win	True
517.668	0.36	Win2	0.6727	n/a	Yes	2.731	n/a	n/a	GoodResponse	1	n/a	n/a	7	54	Blank	Win	True
518.017	1.45	Win2	0.6727	n/a	Yes	2.731	n/a	5.0	GoodResponse	1	0.002	517.019	7	54	Feedback	Win	True
519.467	2.731	Win2	0.6727	n/a	Yes	2.731	n/a	n/a	GoodResponse	1	0.0	n/a	7	54	ISIslide	Win	True
522.216	0.25	Control	0.6786	0.0	Yes	3.034	0.016	n/a	GoodResponse	0	n/a	n/a	7	55	Cue	Neutral	True
522.466	3.95	Control	0.6786	0.0	Yes	3.034	0.0	n/a	GoodResponse	0	n/a	n/a	7	55	Fixation	Neutral	True
526.415	0.33	Control	0.6786	0.001	Yes	3.034	-0.001	2.0	GoodResponse	0	0.323	525.738	7	55	Target	Neutral	True
526.738	0.3	Control	0.6786	0.001	Yes	3.034	-0.001	2.0	GoodResponse	0	0.323	n/a	7	55	ButtonPress	Neutral	True
526.748	0.37	Control	0.6786	n/a	Yes	3.034	n/a	n/a	GoodResponse	0	n/a	n/a	7	55	Blank	Neutral	True
527.114	1.45	Control	0.6786	n/a	Yes	3.034	n/a	5.0	GoodResponse	0	0.026	526.14	7	55	Feedback	Neutral	True
528.564	3.034	Control	0.6786	n/a	Yes	3.034	n/a	n/a	GoodResponse	0	0.0	n/a	7	55	ISIslide	Neutral	True
531.613	0.25	Control	0.6842	0.0	Yes	2.837	0.013	n/a	GoodResponse	0	n/a	n/a	7	56	Cue	Neutral	True
531.863	3.95	Control	0.6842	0.0	Yes	2.837	0.0	n/a	GoodResponse	0	n/a	n/a	7	56	Fixation	Neutral	True
535.811	0.32	Control	0.6842	0.002	Yes	2.837	-0.002	2.0	GoodResponse	0	0.154	534.965	7	56	Target	Neutral	True
535.965	0.3	Control	0.6842	0.002	Yes	2.837	-0.002	2.0	GoodResponse	0	0.154	n/a	7	56	ButtonPress	Neutral	True
536.144	0.38	Control	0.6842	n/a	Yes	2.837	n/a	n/a	GoodResponse	0	n/a	n/a	7	56	Blank	Neutral	True
536.511	1.45	Control	0.6842	n/a	Yes	2.837	n/a	5.0	GoodResponse	0	0.043	535.554	7	56	Feedback	Neutral	True
537.96	2.837	Control	0.6842	n/a	Yes	2.837	n/a	n/a	GoodResponse	0	0.0	n/a	7	56	ISIslide	Neutral	True
540.826	0.25	Control	0.6897	0.0	Yes	3.474	0.026	n/a	GoodResponse	0	n/a	n/a	7	57	Cue	Neutral	False
541.076	4.0	Control	0.6897	0.0	Yes	3.474	0.0	2.0	GoodResponse	0	3.882	543.958	7	57	Fixation	Neutral	False
544.958	0.3	Control	0.6897	0.0	Yes	3.474	0.0	2.0	GoodResponse	0	3.882	n/a	7	57	ButtonPress	Neutral	False
545.075	0.31	Control	0.6897	0.001	Yes	3.474	-0.001	2.0	GoodResponse	0	0.159	544.234	7	57	Target	Neutral	False
545.234	0.3	Control	0.6897	0.001	Yes	3.474	-0.001	2.0	GoodResponse	0	0.159	n/a	7	57	ButtonPress	Neutral	False
545.391	0.39	Control	0.6897	n/a	Yes	3.474	n/a	n/a	GoodResponse	0	n/a	n/a	7	57	Blank	Neutral	False
545.774	1.45	Control	0.6897	n/a	Yes	3.474	n/a	5.0	GoodResponse	0	0.049	544.823	7	57	Feedback	Neutral	False
547.224	3.474	Control	0.6897	n/a	Yes	3.474	n/a	n/a	GoodResponse	0	0.0	n/a	7	57	ISIslide	Neutral	False
550.723	0.25	Win2	0.6949	0.0	Yes	2.727	0.023	n/a	GoodResponse	1	n/a	n/a	8	58	Cue	Win	False
550.973	4.05	Win2	0.6949	0.0	Yes	2.727	0.0	2.0	GoodResponse	1	3.572	553.545	8	58	Fixation	Win	False
554.545	0.3	Win2	0.6949	0.0	Yes	2.727	0.0	2.0	GoodResponse	1	3.572	n/a	8	58	ButtonPress	Win	False
555.021	0.3	Win2	0.6949	0.002	Yes	2.727	-0.002	2.0	GoodResponse	1	0.176	554.197	8	58	Target	Win	False
555.197	0.3	Win2	0.6949	0.002	Yes	2.727	-0.002	2.0	GoodResponse	1	0.176	n/a	8	58	ButtonPress	Win	False
555.321	0.4	Win2	0.6949	n/a	Yes	2.727	n/a	n/a	GoodResponse	1	n/a	n/a	8	58	Blank	Win	False
555.721	1.45	Win2	0.6949	n/a	Yes	2.727	n/a	5.0	GoodResponse	1	0.004	554.725	8	58	Feedback	Win	False
557.17	2.727	Win2	0.6949	n/a	Yes	2.727	n/a	n/a	GoodResponse	1	0.0	n/a	8	58	ISIslide	Win	False
559.919	0.25	Lose2	0.7	0.0	Yes	2.681	0.019	n/a	GoodResponse	0	n/a	n/a	8	59	Cue	AvoidedLoss	True
560.169	4.0	Lose2	0.7	0.0	Yes	2.681	0.0	n/a	GoodResponse	0	n/a	n/a	8	59	Fixation	AvoidedLoss	True
564.168	0.29	Lose2	0.7	0.001	Yes	2.681	-0.001	2.0	GoodResponse	0	0.172	563.34	8	59	Target	AvoidedLoss	True
564.34	0.3	Lose2	0.7	0.001	Yes	2.681	-0.001	2.0	GoodResponse	0	0.172	n/a	8	59	ButtonPress	AvoidedLoss	True
564.468	0.41	Lose2	0.7	n/a	Yes	2.681	n/a	n/a	GoodResponse	0	n/a	n/a	8	59	Blank	AvoidedLoss	True
564.868	1.45	Lose2	0.7	n/a	Yes	2.681	n/a	5.0	GoodResponse	0	0.027	563.895	8	59	Feedback	AvoidedLoss	True
566.317	2.681	Lose2	0.7	n/a	Yes	2.681	n/a	n/a	GoodResponse	0	0.0	n/a	8	59	ISIslide	AvoidedLoss	True
569.016	0.25	Control	0.7049	0.0	Yes	2.684	0.016	n/a	GoodResponse	0	n/a	n/a	8	60	Cue	Neutral	True
569.266	4.0	Control	0.7049	0.0	Yes	2.684	0.0	n/a	GoodResponse	0	n/a	n/a	8	60	Fixation	Neutral	True
573.265	0.28	Control	0.7049	0.001	Yes	2.684	-0.001	2.0	GoodResponse	0	0.177	572.442	8	60	Target	Neutral	True
573.442	0.3	Control	0.7049	0.001	Yes	2.684	-0.001	2.0	GoodResponse	0	0.177	n/a	8	60	ButtonPress	Neutral	True
573.548	0.42	Control	0.7049	n/a	Yes	2.684	n/a	n/a	GoodResponse	0	n/a	n/a	8	60	Blank	Neutral	True
573.964	1.45	Control	0.7049	n/a	Yes	2.684	n/a	5.0	GoodResponse	0	0.004	572.968	8	60	Feedback	Neutral	True
575.414	2.684	Control	0.7049	n/a	Yes	2.684	n/a	n/a	GoodResponse	0	0.0	n/a	8	60	ISIslide	Neutral	True
578.113	0.25	Lose2	0.7097	0.0	Yes	2.987	0.013	n/a	GoodResponse	0	n/a	n/a	8	61	Cue	AvoidedLoss	True
578.363	4.0	Lose2	0.7097	0.0	Yes	2.987	0.0	n/a	GoodResponse	0	n/a	n/a	8	61	Fixation	AvoidedLoss	True
582.361	0.27	Lose2	0.7097	0.002	Yes	2.987	-0.002	2.0	GoodResponse	0	0.187	581.548	8	61	Target	AvoidedLoss	True
582.548	0.3	Lose2	0.7097	0.002	Yes	2.987	-0.002	2.0	GoodResponse	0	0.187	n/a	8	61	ButtonPress	AvoidedLoss	True
582.645	0.43	Lose2	0.7097	n/a	Yes	2.987	n/a	n/a	GoodResponse	0	n/a	n/a	8	61	Blank	AvoidedLoss	True
583.061	1.45	Lose2	0.7097	n/a	Yes	2.987	n/a	5.0	GoodResponse	0	0.029	582.09	8	61	Feedback	AvoidedLoss	True
584.511	2.987	Lose2	0.7097	n/a	Yes	2.987	n/a	n/a	GoodResponse	0	0.0	n/a	8	61	ISIslide	AvoidedLoss	True
587.526	0.25	Lose2	0.7143	0.0	Yes	2.874	0.026	n/a	GoodResponse	0	n/a	n/a	8	62	Cue	AvoidedLoss	True
587.776	3.9	Lose2	0.7143	0.0	Yes	2.874	0.0	n/a	GoodResponse	0	n/a	n/a	8	62	Fixation	AvoidedLoss	True
591.675	0.26	Lose2	0.7143	0.001	Yes	2.874	-0.001	2.0	GoodResponse	0	0.174	590.849	8	62	Target	AvoidedLoss	True
591.849	0.3	Lose2	0.7143	0.001	Yes	2.874	-0.001	2.0	GoodResponse	0	0.174	n/a	8	62	ButtonPress	AvoidedLoss	True
591.941	0.44	Lose2	0.7143	n/a	Yes	2.874	n/a	n/a	GoodResponse	0	n/a	n/a	8	62	Blank	AvoidedLoss	True
592.375	1.45	Lose2	0.7143	n/a	Yes	2.874	n/a	5.0	GoodResponse	0	0.033	591.408	8	62	Feedback	AvoidedLoss	True
593.824	2.874	Lose2	0.7143	n/a	Yes	2.874	n/a	n/a	GoodResponse	0	0.0	n/a	8	62	ISIslide	AvoidedLoss	True
596.723	0.25	Lose2	0.7188	0.0	Yes	2.627	0.023	n/a	GoodResponse	0	n/a	n/a	8	63	Cue	AvoidedLoss	True
596.973	4.05	Lose2	0.7188	0.0	Yes	2.627	0.0	n/a	GoodResponse	0	n/a	n/a	8	63	Fixation	AvoidedLoss	True
601.022	0.25	Lose2	0.7188	0.001	Yes	2.627	-0.001	2.0	GoodResponse	0	0.17	600.192	8	63	Target	AvoidedLoss	True
601.192	0.3	Lose2	0.7188	0.001	Yes	2.627	-0.001	2.0	GoodResponse	0	0.17	n/a	8	63	ButtonPress	AvoidedLoss	True
601.271	0.45	Lose2	0.7188	n/a	Yes	2.627	n/a	n/a	GoodResponse	0	n/a	n/a	8	63	Blank	AvoidedLoss	True
601.721	1.45	Lose2	0.7188	n/a	Yes	2.627	n/a	5.0	GoodResponse	0	0.004	600.725	8	63	Feedback	AvoidedLoss	True
603.171	2.627	Lose2	0.7188	n/a	Yes	2.627	n/a	n/a	GoodResponse	0	0.0	n/a	8	63	ISIslide	AvoidedLoss	True
605.82	0.25	Win2	0.7231000000000001	0.0	Yes	3.13	0.02	n/a	GoodResponse	1	n/a	n/a	9	64	Cue	Win	True
606.07	4.15	Win2	0.7231000000000001	0.0	Yes	3.13	0.0	n/a	GoodResponse	1	n/a	n/a	9	64	Fixation	Win	True
610.218	0.24	Win2	0.7231000000000001	0.002	Yes	3.13	-0.002	2.0	GoodResponse	1	0.161	609.379	9	64	Target	Win	True
610.379	0.3	Win2	0.7231000000000001	0.002	Yes	3.13	-0.002	2.0	GoodResponse	1	0.161	n/a	9	64	ButtonPress	Win	True
610.468	0.46	Win2	0.7231000000000001	n/a	Yes	3.13	n/a	n/a	GoodResponse	1	n/a	n/a	9	64	Blank	Win	True
610.918	1.45	Win2	0.7231000000000001	n/a	Yes	3.13	n/a	5.0	GoodResponse	1	0.025	609.943	9	64	Feedback	Win	True
612.368	3.13	Win2	0.7231000000000001	n/a	Yes	3.13	n/a	n/a	GoodResponse	1	0.0	n/a	9	64	ISIslide	Win	True
615.516	0.25	Control	0.7121	0.001	No	2.784	0.016	n/a	NoResponse	0	n/a	n/a	9	65	Cue	Neutral	True
615.766	4.0	Control	0.7121	0.0	No	2.784	0.0	2.0	NoResponse	0	3.474	618.24	9	65	Fixation	Neutral	True
619.24	0.3	Control	0.7121	0.0	No	2.784	0.0	2.0	NoResponse	0	3.474	n/a	9	65	ButtonPress	Neutral	True
619.765	0.23	Control	0.7121	0.001	No	2.784	-0.001	n/a	NoResponse	0	n/a	n/a	9	65	Target	Neutral	True
619.998	0.47	Control	0.7121	n/a	No	2.784	n/a	n/a	NoResponse	0	n/a	n/a	9	65	Blank	Neutral	True
620.465	1.45	Control	0.7121	n/a	No	2.784	n/a	5.0	NoResponse	0	0.04	619.505	9	65	Feedback	Neutral	True
621.914	2.784	Control	0.7121	n/a	No	2.784	n/a	n/a	NoResponse	0	0.0	n/a	9	65	ISIslide	Neutral	True
624.713	0.25	Win2	0.7164	0.0	Yes	2.787	0.013	n/a	GoodResponse	1	n/a	n/a	10	66	Cue	Win	True
624.963	3.9	Win2	0.7164	0.0	Yes	2.787	0.0	n/a	GoodResponse	1	n/a	n/a	10	66	Fixation	Win	True
628.862	0.22	Win2	0.7164	0.001	Yes	2.787	-0.001	2.0	GoodResponse	1	0.172	628.034	10	66	Target	Win	True
629.034	0.3	Win2	0.7164	0.001	Yes	2.787	-0.001	2.0	GoodResponse	1	0.172	n/a	10	66	ButtonPress	Win	True
629.078	0.48	Win2	0.7164	n/a	Yes	2.787	n/a	n/a	GoodResponse	1	n/a	n/a	10	66	Blank	Win	True
629.562	1.45	Win2	0.7164	n/a	Yes	2.787	n/a	5.0	GoodResponse	1	0.016	628.578	10	66	Feedback	Win	True
631.011	2.787	Win2	0.7164	n/a	Yes	2.787	n/a	n/a	GoodResponse	1	0.0	n/a	10	66	ISIslide	Win	True
633.827	0.25	Control	0.7059000000000001	0.0	No	2.723	0.027	n/a	NoResponse	0	n/a	n/a	10	67	Cue	Neutral	False
634.077	3.95	Control	0.7059000000000001	0.0	No	2.723	0.0	n/a	NoResponse	0	n/a	n/a	10	67	Fixation	Neutral	False
638.025	0.21	Control	0.7059000000000001	0.002	No	2.723	-0.002	n/a	NoResponse	0	n/a	n/a	10	67	Target	Neutral	False
638.242	0.49	Control	0.7059000000000001	n/a	No	2.723	n/a	n/a	NoResponse	0	n/a	n/a	10	67	Blank	Neutral	False
638.725	1.45	Control	0.7059000000000001	n/a	No	2.723	n/a	5.0	NoResponse	0	0.024	637.749	10	67	Feedback	Neutral	False
640.174	2.723	Control	0.7059000000000001	n/a	No	2.723	n/a	n/a	NoResponse	0	0.0	n/a	10	67	ISIslide	Neutral	False
642.923	0.25	Win2	0.6957	0.001	No	3.077	0.023	n/a	PrematurePress	0	n/a	n/a	10	68	Cue	MissedWin	True
643.173	4.0	Win2	0.6957	0.0	No	3.077	0.0	n/a	PrematurePress	0	n/a	n/a	10	68	Fixation	MissedWin	True
647.172	0.2	Win2	0.6957	0.001	No	3.077	-0.001	2.0	PrematurePress	0	0.032	646.204	10	68	Target	MissedWin	True
647.204	0.3	Win2	0.6957	0.001	No	3.077	-0.001	2.0	PrematurePress	0	0.032	n/a	10	68	ButtonPress	MissedWin	True
647.372	0.5	Win2	0.6957	n/a	No	3.077	n/a	n/a	PrematurePress	0	n/a	n/a	10	68	Blank	MissedWin	True
647.872	1.45	Win2	0.6957	n/a	No	3.077	n/a	5.0	PrematurePress	0	0.048	646.92	10	68	Feedback	MissedWin	True
649.321	3.077	Win2	0.6957	n/a	No	3.077	n/a	n/a	PrematurePress	0	0.0	n/a	10	68	ISIslide	MissedWin	True
652.42	0.25	Win2	0.7	0.0	Yes	3.23	0.02	2.0	GoodResponse	1	0.221	651.641	11	69	Cue	Win	False
652.641	0.3	Win2	0.7	0.0	Yes	3.23	0.02	2.0	GoodResponse	1	0.221	n/a	11	69	ButtonPress	Win	False
652.67	3.95	Win2	0.7	0.0	Yes	3.23	0.0	n/a	GoodResponse	1	n/a	n/a	11	69	Fixation	Win	False
656.619	0.19	Win2	0.7	0.001	Yes	3.23	-0.001	2.0	GoodResponse	1	0.167	655.786	11	69	Target	Win	False
656.786	0.3	Win2	0.7	0.001	Yes	3.23	-0.001	2.0	GoodResponse	1	0.167	n/a	11	69	ButtonPress	Win	False
656.819	0.51	Win2	0.7	n/a	Yes	3.23	n/a	n/a	GoodResponse	1	n/a	n/a	11	69	Blank	Win	False
657.318	1.45	Win2	0.7	n/a	Yes	3.23	n/a	5.0	GoodResponse	1	0.015	656.333	11	69	Feedback	Win	False
658.768	3.23	Win2	0.7	n/a	Yes	3.23	n/a	n/a	GoodResponse	1	0.0	n/a	11	69	ISIslide	Win	False
662.017	0.25	Lose2	0.6901	0.0	No	3.033	0.017	n/a	LatePress	-1	n/a	n/a	10	70	Cue	Loss	True
662.267	4.05	Lose2	0.6901	0.0	No	3.033	0.0	n/a	LatePress	-1	n/a	n/a	10	70	Fixation	Loss	True
666.315	0.18	Lose2	0.6901	0.002	No	3.033	-0.002	2.0	LatePress	-1	0.181	665.496	10	70	Target	Loss	True
666.496	0.3	Lose2	0.6901	0.002	No	3.033	-0.002	2.0	LatePress	-1	0.181	n/a	10	70	ButtonPress	Loss	True
666.498	0.52	Lose2	0.6901	n/a	No	3.033	n/a	n/a	LatePress	-1	n/a	n/a	10	70	Blank	Loss	True
667.015	1.45	Lose2	0.6901	n/a	No	3.033	n/a	5.0	LatePress	-1	0.026	666.041	10	70	Feedback	Loss	True
668.464	3.033	Lose2	0.6901	n/a	No	3.033	n/a	n/a	LatePress	-1	0.0	n/a	10	70	ISIslide	Loss	True
671.513	0.25	Win2	0.6806	0.0	No	2.737	0.013	n/a	PrematurePress	0	n/a	n/a	10	71	Cue	MissedWin	False
671.763	4.05	Win2	0.6806	0.0	No	2.737	0.0	2.0	PrematurePress	0	3.628	674.391	10	71	Fixation	MissedWin	False
675.391	0.3	Win2	0.6806	0.0	No	2.737	0.0	2.0	PrematurePress	0	3.628	n/a	10	71	ButtonPress	MissedWin	False
675.812	0.17	Win2	0.6806	0.001	No	2.737	-0.001	2.0	PrematurePress	0	0.047	674.859	10	71	Target	MissedWin	False
675.859	0.3	Win2	0.6806	0.001	No	2.737	-0.001	2.0	PrematurePress	0	0.047	n/a	10	71	ButtonPress	MissedWin	False
675.978	0.53	Win2	0.6806	n/a	No	2.737	n/a	n/a	PrematurePress	0	n/a	n/a	10	71	Blank	MissedWin	False
676.512	1.45	Win2	0.6806	n/a	No	2.737	n/a	5.0	PrematurePress	0	0.041	675.553	10	71	Feedback	MissedWin	False
677.961	2.737	Win2	0.6806	n/a	No	2.737	n/a	n/a	PrematurePress	0	0.0	n/a	10	71	ISIslide	MissedWin	False
680.727	0.25	Win2	0.6712	0.0	No	2.773	0.027	n/a	NoResponse	0	n/a	n/a	10	72	Cue	MissedWin	True
680.977	4.1	Win2	0.6712	0.0	No	2.773	0.0	n/a	NoResponse	0	n/a	n/a	10	72	Fixation	MissedWin	True
685.075	0.16	Win2	0.6712	0.002	No	2.773	-0.002	2.0	NoResponse	0	0.182	684.257	10	72	Target	MissedWin	True
685.242	0.54	Win2	0.6712	n/a	No	2.773	n/a	n/a	NoResponse	0	n/a	n/a	10	72	Blank	MissedWin	True
685.257	0.3	Win2	0.6712	0.002	No	2.773	-0.002	2.0	NoResponse	0	0.182	n/a	10	72	ButtonPress	MissedWin	True
685.775	1.45	Win2	0.6712	n/a	No	2.773	n/a	5.0	NoResponse	0	0.047	684.822	10	72	Feedback	MissedWin	True
687.225	2.773	Win2	0.6712	n/a	No	2.773	n/a	n/a	NoResponse	0	0.0	n/a	10	72	ISIslide	MissedWin	True
690.024	0.25	Win2	0.6757	0.0	Yes	2.676	0.024	n/a	GoodResponse	1	n/a	n/a	11	73	Cue	Win	False
690.273	4.0	Win2	0.6757	0.001	Yes	2.676	-0.001	2.0	GoodResponse	1	0.122	689.395	11	73	Fixation	Win	False
690.395	0.3	Win2	0.6757	0.001	Yes	2.676	-0.001	2.0	GoodResponse	1	0.122	n/a	11	73	ButtonPress	Win	False
694.272	0.15	Win2	0.6757	0.002	Yes	2.676	-0.002	2.0	GoodResponse	1	0.14	693.412	11	73	Target	Win	False
694.412	0.3	Win2	0.6757	0.002	Yes	2.676	-0.002	2.0	GoodResponse	1	0.14	n/a	11	73	ButtonPress	Win	False
694.422	0.55	Win2	0.6757	n/a	Yes	2.676	n/a	n/a	GoodResponse	1	n/a	n/a	11	73	Blank	Win	False
694.972	1.45	Win2	0.6757	n/a	Yes	2.676	n/a	5.0	GoodResponse	1	0.02	693.992	11	73	Feedback	Win	False
696.421	2.676	Win2	0.6757	n/a	Yes	2.676	n/a	n/a	GoodResponse	1	0.0	n/a	11	73	ISIslide	Win	False
699.12	0.25	Lose2	0.6667000000000001	0.0	No	2.63	0.02	n/a	NoResponse	-1	n/a	n/a	10	74	Cue	Loss	True
699.37	4.05	Lose2	0.6667000000000001	0.0	No	2.63	0.0	n/a	NoResponse	-1	n/a	n/a	10	74	Fixation	Loss	True
703.419	0.15	Lose2	0.6667000000000001	0.001	No	2.63	-0.001	2.0	NoResponse	-1	0.16	702.579	10	74	Target	Loss	True
703.569	0.55	Lose2	0.6667000000000001	n/a	No	2.63	n/a	n/a	NoResponse	-1	n/a	n/a	10	74	Blank	Loss	True
703.579	0.3	Lose2	0.6667000000000001	0.001	No	2.63	-0.001	2.0	NoResponse	-1	0.16	n/a	10	74	ButtonPress	Loss	True
704.119	1.45	Lose2	0.6667000000000001	n/a	No	2.63	n/a	5.0	NoResponse	-1	0.043	703.162	10	74	Feedback	Loss	True
705.568	2.63	Lose2	0.6667000000000001	n/a	No	2.63	n/a	n/a	NoResponse	-1	0.0	n/a	10	74	ISIslide	Loss	True
708.217	0.25	Lose2	0.6579	0.0	No	2.933	0.017	n/a	NoResponse	-1	n/a	n/a	9	75	Cue	Loss	True
708.467	3.95	Lose2	0.6579	0.0	No	2.933	0.0	n/a	NoResponse	-1	n/a	n/a	9	75	Fixation	Loss	True
712.416	0.15	Lose2	0.6579	0.001	No	2.933	-0.001	2.0	NoResponse	-1	0.155	711.571	9	75	Target	Loss	True
712.566	0.55	Lose2	0.6579	n/a	No	2.933	n/a	n/a	NoResponse	-1	n/a	n/a	9	75	Blank	Loss	True
712.571	0.3	Lose2	0.6579	0.001	No	2.933	-0.001	2.0	NoResponse	-1	0.155	n/a	9	75	ButtonPress	Loss	True
713.115	1.45	Lose2	0.6579	n/a	No	2.933	n/a	5.0	NoResponse	-1	0.023	712.138	9	75	Feedback	Loss	True
714.565	2.933	Lose2	0.6579	n/a	No	2.933	n/a	n/a	NoResponse	-1	0.0	n/a	9	75	ISIslide	Loss	True
717.514	0.25	Control	0.6494	0.0	No	3.236	0.014	n/a	NoResponse	0	n/a	n/a	9	76	Cue	Neutral	False
717.764	4.05	Control	0.6494	0.0	No	3.236	0.0	2.0	NoResponse	0	3.547	720.311	9	76	Fixation	Neutral	False
721.311	0.3	Control	0.6494	0.0	No	3.236	0.0	2.0	NoResponse	0	3.547	n/a	9	76	ButtonPress	Neutral	False
721.812	0.15	Control	0.6494	0.002	No	3.236	-0.002	2.0	NoResponse	0	0.215	721.027	9	76	Target	Neutral	False
721.962	0.55	Control	0.6494	n/a	No	3.236	n/a	n/a	NoResponse	0	n/a	n/a	9	76	Blank	Neutral	False
722.027	0.3	Control	0.6494	0.002	No	3.236	-0.002	2.0	NoResponse	0	0.215	n/a	9	76	ButtonPress	Neutral	False
722.512	1.45	Control	0.6494	n/a	No	3.236	n/a	5.0	NoResponse	0	0.041	721.553	9	76	Feedback	Neutral	False
723.962	3.236	Control	0.6494	n/a	No	3.236	n/a	n/a	NoResponse	0	0.0	n/a	9	76	ISIslide	Neutral	False
727.227	0.25	Lose2	0.6409999999999999	0.0	No	2.573	0.027	n/a	PrematurePress	-1	n/a	n/a	8	77	Cue	Loss	False
727.477	3.95	Lose2	0.6409999999999999	0.0	No	2.573	0.0	2.0	PrematurePress	-1	3.478	729.955	8	77	Fixation	Loss	False
730.955	0.3	Lose2	0.6409999999999999	0.0	No	2.573	0.0	2.0	PrematurePress	-1	3.478	n/a	8	77	ButtonPress	Loss	False
731.426	0.16	Lose2	0.6409999999999999	0.001	No	2.573	-0.001	2.0	PrematurePress	-1	0.073	730.499	8	77	Target	Loss	False
731.499	0.3	Lose2	0.6409999999999999	0.001	No	2.573	-0.001	2.0	PrematurePress	-1	0.073	n/a	8	77	ButtonPress	Loss	False
731.592	0.54	Lose2	0.6409999999999999	n/a	No	2.573	n/a	n/a	PrematurePress	-1	n/a	n/a	8	77	Blank	Loss	False
732.125	1.45	Lose2	0.6409999999999999	n/a	No	2.573	n/a	5.0	PrematurePress	-1	0.038	731.163	8	77	Feedback	Loss	False
733.575	2.573	Lose2	0.6409999999999999	n/a	No	2.573	n/a	n/a	PrematurePress	-1	0.0	n/a	8	77	ISIslide	Loss	False
