onset	duration	cue_type	current_mean_accuracy	duration_error	is_hit	isi_adjusted	onset_delay	response	response_type	reward	rt	rt_time	total_reward	trial_number	trial_phase	trial_type	one_press
11.104	0.25	Control	1.0	0.0	Yes	2.946	0.004	n/a	GoodResponse	0	n/a	n/a	0	0	Cue	Neutral	False
11.355	3.85	Control	1.0	0.0	Yes	2.946	0.001	2.0	GoodResponse	0	0.396	10.751	0	0	Fixation	Neutral	False
11.751	0.3	Control	1.0	0.0	Yes	2.946	0.001	2.0	GoodResponse	0	0.396	n/a	0	0	ButtonPress	Neutral	False
15.199	0.4	Control	1.0	0.005	Yes	2.946	-0.005	2.0	GoodResponse	0	0.259	14.458	0	0	Target	Neutral	False
15.458	0.3	Control	1.0	0.005	Yes	2.946	-0.005	2.0	GoodResponse	0	0.259	n/a	0	0	ButtonPress	Neutral	False
15.601	0.3	Control	1.0	n/a	Yes	2.946	n/a	n/a	GoodResponse	0	n/a	n/a	0	0	Blank	Neutral	False
15.902	1.45	Control	1.0	n/a	Yes	2.946	n/a	5.0	GoodResponse	0	0.025	14.927	0	0	Feedback	Neutral	False
17.356	2.946	Control	1.0	n/a	Yes	2.946	n/a	n/a	GoodResponse	0	0.0	n/a	0	0	ISIslide	Neutral	False
20.331	0.25	Lose2	1.0	0.001	Yes	2.769	0.031	n/a	GoodResponse	0	n/a	n/a	0	1	Cue	AvoidedLoss	True
20.582	4.0	Lose2	1.0	0.0	Yes	2.769	0.001	n/a	GoodResponse	0	n/a	n/a	0	1	Fixation	AvoidedLoss	True
24.577	0.39	Lose2	1.0	0.004	Yes	2.769	-0.004	2.0	GoodResponse	0	0.241	23.818	0	1	Target	AvoidedLoss	True
24.818	0.3	Lose2	1.0	0.004	Yes	2.769	-0.004	2.0	GoodResponse	0	0.241	n/a	0	1	ButtonPress	AvoidedLoss	True
24.979	0.31	Lose2	1.0	n/a	Yes	2.769	n/a	n/a	GoodResponse	0	n/a	n/a	0	1	Blank	AvoidedLoss	True
25.28	1.45	Lose2	1.0	n/a	Yes	2.769	n/a	5.0	GoodResponse	0	0.011	24.291	0	1	Feedback	AvoidedLoss	True
26.734	2.769	Lose2	1.0	n/a	Yes	2.769	n/a	n/a	GoodResponse	0	0.0	n/a	0	1	ISIslide	AvoidedLoss	True
29.526	0.25	Control	1.0	0.0	Yes	2.574	0.026	n/a	GoodResponse	0	n/a	n/a	0	2	Cue	Neutral	True
29.776	4.1	Control	1.0	0.0	Yes	2.574	0.0	n/a	GoodResponse	0	n/a	n/a	0	2	Fixation	Neutral	True
33.872	0.38	Control	1.0	0.004	Yes	2.574	-0.004	2.0	GoodResponse	0	0.224	33.096	0	2	Target	Neutral	True
34.096	0.3	Control	1.0	0.004	Yes	2.574	-0.004	2.0	GoodResponse	0	0.224	n/a	0	2	ButtonPress	Neutral	True
34.256	0.32	Control	1.0	n/a	Yes	2.574	n/a	n/a	GoodResponse	0	n/a	n/a	0	2	Blank	Neutral	True
34.574	1.45	Control	1.0	n/a	Yes	2.574	n/a	5.0	GoodResponse	0	0.035	33.609	0	2	Feedback	Neutral	True
36.028	2.574	Control	1.0	n/a	Yes	2.574	n/a	n/a	GoodResponse	0	0.0	n/a	0	2	ISIslide	Neutral	True
38.619	0.25	Win2	1.0	0.0	Yes	2.831	0.019	n/a	GoodResponse	1	n/a	n/a	1	3	Cue	Win	True
38.87	3.95	Win2	1.0	0.0	Yes	2.831	0.001	n/a	GoodResponse	1	n/a	n/a	1	3	Fixation	Win	True
42.815	0.37	Win2	1.0	0.004	Yes	2.831	-0.004	2.0	GoodResponse	1	0.22	42.035	1	3	Target	Win	True
43.035	0.3	Win2	1.0	0.004	Yes	2.831	-0.004	2.0	GoodResponse	1	0.22	n/a	1	3	ButtonPress	Win	True
43.2	0.33	Win2	1.0	n/a	Yes	2.831	n/a	n/a	GoodResponse	1	n/a	n/a	1	3	Blank	Win	True
43.517	1.45	Win2	1.0	n/a	Yes	2.831	n/a	5.0	GoodResponse	1	0.019	42.536	1	3	Feedback	Win	True
44.972	2.831	Win2	1.0	n/a	Yes	2.831	n/a	n/a	GoodResponse	1	0.0	n/a	1	3	ISIslide	Win	True
47.83	0.25	Win2	1.0	0.0	Yes	3.27	0.03	n/a	GoodResponse	1	n/a	n/a	2	4	Cue	Win	True
48.081	4.0	Win2	1.0	0.0	Yes	3.27	0.001	n/a	GoodResponse	1	n/a	n/a	2	4	Fixation	Win	True
52.076	0.36	Win2	1.0	0.004	Yes	3.27	-0.004	2.0	GoodResponse	1	0.193	51.269	2	4	Target	Win	True
52.269	0.3	Win2	1.0	0.004	Yes	3.27	-0.004	2.0	GoodResponse	1	0.193	n/a	2	4	ButtonPress	Win	True
52.444	0.34	Win2	1.0	n/a	Yes	3.27	n/a	n/a	GoodResponse	1	n/a	n/a	2	4	Blank	Win	True
52.778	1.45	Win2	1.0	n/a	Yes	3.27	n/a	5.0	GoodResponse	1	0.026	51.804	2	4	Feedback	Win	True
54.233	3.27	Win2	1.0	n/a	Yes	3.27	n/a	n/a	GoodResponse	1	0.0	n/a	2	4	ISIslide	Win	True
57.526	0.25	Win2	1.0	0.0	Yes	2.774	0.026	n/a	GoodResponse	1	n/a	n/a	3	5	Cue	Win	True
57.776	4.0	Win2	1.0	0.001	Yes	2.774	0.0	n/a	GoodResponse	1	n/a	n/a	3	5	Fixation	Win	True
61.772	0.35	Win2	1.0	0.004	Yes	2.774	-0.004	2.0	GoodResponse	1	0.228	61.0	3	5	Target	Win	True
62	0.3	Win2	1.0	0.004	Yes	2.774	-0.004	2.0	GoodResponse	1	0.228	n/a	3	5	ButtonPress	Win	True
62.123	0.35	Win2	1.0	n/a	Yes	2.774	n/a	n/a	GoodResponse	1	n/a	n/a	3	5	Blank	Win	True
62.474	1.45	Win2	1.0	n/a	Yes	2.774	n/a	5.0	GoodResponse	1	0.036	61.51	3	5	Feedback	Win	True
63.928	2.774	Win2	1.0	n/a	Yes	2.774	n/a	n/a	GoodResponse	1	0.0	n/a	3	5	ISIslide	Win	True
66.72	0.25	Lose2	1.0	0.0	Yes	2.73	0.02	n/a	GoodResponse	0	n/a	n/a	3	6	Cue	AvoidedLoss	True
66.971	3.95	Lose2	1.0	0.0	Yes	2.73	0.001	n/a	GoodResponse	0	n/a	n/a	3	6	Fixation	AvoidedLoss	True
70.916	0.34	Lose2	1.0	0.004	Yes	2.73	-0.004	2.0	GoodResponse	0	0.209	70.125	3	6	Target	AvoidedLoss	True
71.125	0.3	Lose2	1.0	0.004	Yes	2.73	-0.004	2.0	GoodResponse	0	0.209	n/a	3	6	ButtonPress	AvoidedLoss	True
71.267	0.36	Lose2	1.0	n/a	Yes	2.73	n/a	n/a	GoodResponse	0	n/a	n/a	3	6	Blank	AvoidedLoss	True
71.618	1.45	Lose2	1.0	n/a	Yes	2.73	n/a	5.0	GoodResponse	0	0.014	70.632	3	6	Feedback	AvoidedLoss	True
73.072	2.73	Lose2	1.0	n/a	Yes	2.73	n/a	n/a	GoodResponse	0	0.0	n/a	3	6	ISIslide	AvoidedLoss	True
75.83	0.25	Lose2	0.875	0.0	No	4.02	0.03	n/a	NoResponse	-1	n/a	n/a	2	7	Cue	Loss	True
76.081	4.05	Lose2	0.875	0.0	No	4.02	0.001	n/a	NoResponse	-1	n/a	n/a	2	7	Fixation	Loss	True
80.126	0.33	Lose2	0.875	0.004	No	4.02	-0.004	2.0	NoResponse	-1	0.385	79.511	2	7	Target	Loss	True
80.461	0.37	Lose2	0.875	n/a	No	4.02	n/a	n/a	NoResponse	-1	n/a	n/a	2	7	Blank	Loss	True
80.511	0.3	Lose2	0.875	0.004	No	4.02	-0.004	2.0	NoResponse	-1	0.385	n/a	2	7	ButtonPress	Loss	True
80.829	1.45	Lose2	0.875	n/a	No	4.02	n/a	5.0	NoResponse	-1	0.023	79.852	2	7	Feedback	Loss	True
82.283	4.02	Lose2	0.875	n/a	No	4.02	n/a	n/a	NoResponse	-1	0.0	n/a	2	7	ISIslide	Loss	True
86.328	0.25	Lose2	0.8889	0.0	Yes	3.022	0.028	n/a	GoodResponse	0	n/a	n/a	2	8	Cue	AvoidedLoss	True
86.579	3.95	Lose2	0.8889	0.0	Yes	3.022	0.001	n/a	GoodResponse	0	n/a	n/a	2	8	Fixation	AvoidedLoss	True
90.524	0.32	Lose2	0.8889	0.004	Yes	3.022	-0.004	2.0	GoodResponse	0	0.187	89.711	2	8	Target	AvoidedLoss	True
90.711	0.3	Lose2	0.8889	0.004	Yes	3.022	-0.004	2.0	GoodResponse	0	0.187	n/a	2	8	ButtonPress	AvoidedLoss	True
90.858	0.38	Lose2	0.8889	n/a	Yes	3.022	n/a	n/a	GoodResponse	0	n/a	n/a	2	8	Blank	AvoidedLoss	True
91.226	1.45	Lose2	0.8889	n/a	Yes	3.022	n/a	5.0	GoodResponse	0	0.015	90.241	2	8	Feedback	AvoidedLoss	True
92.681	3.022	Lose2	0.8889	n/a	Yes	3.022	n/a	n/a	GoodResponse	0	0.0	n/a	2	8	ISIslide	AvoidedLoss	True
95.723	0.25	Lose2	0.9	0.0	Yes	3.127	0.023	n/a	GoodResponse	0	n/a	n/a	2	9	Cue	AvoidedLoss	True
95.974	3.95	Lose2	0.9	0.0	Yes	3.127	0.001	n/a	GoodResponse	0	n/a	n/a	2	9	Fixation	AvoidedLoss	True
99.919	0.31	Lose2	0.9	0.004	Yes	3.127	-0.004	2.0	GoodResponse	0	0.206	99.125	2	9	Target	AvoidedLoss	True
100.125	0.3	Lose2	0.9	0.004	Yes	3.127	-0.004	2.0	GoodResponse	0	0.206	n/a	2	9	ButtonPress	AvoidedLoss	True
100.236	0.39	Lose2	0.9	n/a	Yes	3.127	n/a	n/a	GoodResponse	0	n/a	n/a	2	9	Blank	AvoidedLoss	True
100.621	1.45	Lose2	0.9	n/a	Yes	3.127	n/a	5.0	GoodResponse	0	0.035	99.656	2	9	Feedback	AvoidedLoss	True
102.075	3.127	Lose2	0.9	n/a	Yes	3.127	n/a	n/a	GoodResponse	0	0.0	n/a	2	9	ISIslide	AvoidedLoss	True
105.218	0.25	Control	0.9091	0.0	Yes	3.282	0.018	n/a	GoodResponse	0	n/a	n/a	2	10	Cue	Neutral	True
105.469	4.0	Control	0.9091	0.0	Yes	3.282	0.001	n/a	GoodResponse	0	n/a	n/a	2	10	Fixation	Neutral	True
109.464	0.3	Control	0.9091	0.004	Yes	3.282	-0.004	2.0	GoodResponse	0	0.209	108.673	2	10	Target	Neutral	True
109.673	0.3	Control	0.9091	0.004	Yes	3.282	-0.004	2.0	GoodResponse	0	0.209	n/a	2	10	ButtonPress	Neutral	True
109.765	0.4	Control	0.9091	n/a	Yes	3.282	n/a	n/a	GoodResponse	0	n/a	n/a	2	10	Blank	Neutral	True
110.166	1.45	Control	0.9091	n/a	Yes	3.282	n/a	5.0	GoodResponse	0	0.002	109.168	2	10	Feedback	Neutral	True
111.62	3.282	Control	0.9091	n/a	Yes	3.282	n/a	n/a	GoodResponse	0	0.0	n/a	2	10	ISIslide	Neutral	True
114.914	0.25	Lose2	0.9167000000000001	0.0	Yes	2.736	0.014	n/a	GoodResponse	0	n/a	n/a	2	11	Cue	AvoidedLoss	True
115.164	4.05	Lose2	0.9167000000000001	0.0	Yes	2.736	0.0	n/a	GoodResponse	0	n/a	n/a	2	11	Fixation	AvoidedLoss	True
119.21	0.29	Lose2	0.9167000000000001	0.004	Yes	2.736	-0.004	2.0	GoodResponse	0	0.264	118.474	2	11	Target	AvoidedLoss	True
119.474	0.3	Lose2	0.9167000000000001	0.004	Yes	2.736	-0.004	2.0	GoodResponse	0	0.264	n/a	2	11	ButtonPress	AvoidedLoss	True
119.511	0.41	Lose2	0.9167000000000001	n/a	Yes	2.736	n/a	n/a	GoodResponse	0	n/a	n/a	2	11	Blank	AvoidedLoss	True
119.912	1.45	Lose2	0.9167000000000001	n/a	Yes	2.736	n/a	5.0	GoodResponse	0	0.012	118.924	2	11	Feedback	AvoidedLoss	True
121.366	2.736	Lose2	0.9167000000000001	n/a	Yes	2.736	n/a	n/a	GoodResponse	0	0.0	n/a	2	11	ISIslide	AvoidedLoss	True
124.124	0.25	Control	0.9231	0.0	Yes	2.976	0.024	n/a	GoodResponse	0	n/a	n/a	2	12	Cue	Neutral	True
124.375	3.9	Control	0.9231	0.0	Yes	2.976	0.001	n/a	GoodResponse	0	n/a	n/a	2	12	Fixation	Neutral	True
128.27	0.28	Control	0.9231	0.004	Yes	2.976	-0.004	2.0	GoodResponse	0	0.188	127.458	2	12	Target	Neutral	True
128.458	0.3	Control	0.9231	0.004	Yes	2.976	-0.004	2.0	GoodResponse	0	0.188	n/a	2	12	ButtonPress	Neutral	True
128.554	0.42	Control	0.9231	n/a	Yes	2.976	n/a	n/a	GoodResponse	0	n/a	n/a	2	12	Blank	Neutral	True
128.972	1.45	Control	0.9231	n/a	Yes	2.976	n/a	5.0	GoodResponse	0	0.025	127.997	2	12	Feedback	Neutral	True
130.427	2.976	Control	0.9231	n/a	Yes	2.976	n/a	n/a	GoodResponse	0	0.0	n/a	2	12	ISIslide	Neutral	True
133.419	0.25	Control	0.9286	0.0	Yes	2.781	0.019	n/a	GoodResponse	0	n/a	n/a	2	13	Cue	Neutral	True
133.67	4.0	Control	0.9286	0.0	Yes	2.781	0.001	n/a	GoodResponse	0	n/a	n/a	2	13	Fixation	Neutral	True
137.665	0.27	Control	0.9286	0.004	Yes	2.781	-0.004	2.0	GoodResponse	0	0.185	136.85	2	13	Target	Neutral	True
137.85	0.3	Control	0.9286	0.004	Yes	2.781	-0.004	2.0	GoodResponse	0	0.185	n/a	2	13	ButtonPress	Neutral	True
137.949	0.43	Control	0.9286	n/a	Yes	2.781	n/a	n/a	GoodResponse	0	n/a	n/a	2	13	Blank	Neutral	True
138.367	1.45	Control	0.9286	n/a	Yes	2.781	n/a	5.0	GoodResponse	0	0.044	137.411	2	13	Feedback	Neutral	True
139.821	2.781	Control	0.9286	n/a	Yes	2.781	n/a	n/a	GoodResponse	0	0.0	n/a	2	13	ISIslide	Neutral	True
142.63	0.25	Win2	0.9333	0.0	Yes	2.67	0.03	n/a	GoodResponse	1	n/a	n/a	3	14	Cue	Win	True
142.88	4.1	Win2	0.9333	0.0	Yes	2.67	0.0	n/a	GoodResponse	1	n/a	n/a	3	14	Fixation	Win	True
146.976	0.26	Win2	0.9333	0.004	Yes	2.67	-0.004	2.0	GoodResponse	1	0.19	146.166	3	14	Target	Win	True
147.166	0.3	Win2	0.9333	0.004	Yes	2.67	-0.004	2.0	GoodResponse	1	0.19	n/a	3	14	ButtonPress	Win	True
147.243	0.44	Win2	0.9333	n/a	Yes	2.67	n/a	n/a	GoodResponse	1	n/a	n/a	3	14	Blank	Win	True
147.678	1.45	Win2	0.9333	n/a	Yes	2.67	n/a	5.0	GoodResponse	1	0.002	146.68	3	14	Feedback	Win	True
149.132	2.67	Win2	0.9333	n/a	Yes	2.67	n/a	n/a	GoodResponse	1	0.0	n/a	3	14	ISIslide	Win	True
151.824	0.25	Control	0.9375	0.0	Yes	2.976	0.024	n/a	GoodResponse	0	n/a	n/a	3	15	Cue	Neutral	True
152.074	4.0	Control	0.9375	0.001	Yes	2.976	0.0	n/a	GoodResponse	0	n/a	n/a	3	15	Fixation	Neutral	True
156.07	0.25	Control	0.9375	0.004	Yes	2.976	-0.004	2.0	GoodResponse	0	0.209	155.279	3	15	Target	Neutral	True
156.279	0.3	Control	0.9375	0.004	Yes	2.976	-0.004	2.0	GoodResponse	0	0.209	n/a	3	15	ButtonPress	Neutral	True
156.32	0.45	Control	0.9375	n/a	Yes	2.976	n/a	n/a	GoodResponse	0	n/a	n/a	3	15	Blank	Neutral	True
156.772	1.45	Control	0.9375	n/a	Yes	2.976	n/a	5.0	GoodResponse	0	0.029	155.801	3	15	Feedback	Neutral	True
158.226	2.976	Control	0.9375	n/a	Yes	2.976	n/a	n/a	GoodResponse	0	0.0	n/a	3	15	ISIslide	Neutral	True
161.218	0.25	Win2	0.9412	0.0	Yes	2.882	0.018	n/a	GoodResponse	1	n/a	n/a	4	16	Cue	Win	True
161.469	4.0	Win2	0.9412	0.0	Yes	2.882	0.001	n/a	GoodResponse	1	n/a	n/a	4	16	Fixation	Win	True
165.464	0.24	Win2	0.9412	0.004	Yes	2.882	-0.004	2.0	GoodResponse	1	0.218	164.682	4	16	Target	Win	True
165.682	0.3	Win2	0.9412	0.004	Yes	2.882	-0.004	2.0	GoodResponse	1	0.218	n/a	4	16	ButtonPress	Win	True
165.715	0.46	Win2	0.9412	n/a	Yes	2.882	n/a	n/a	GoodResponse	1	n/a	n/a	4	16	Blank	Win	True
166.166	1.45	Win2	0.9412	n/a	Yes	2.882	n/a	5.0	GoodResponse	1	0.001	165.167	4	16	Feedback	Win	True
167.621	2.882	Win2	0.9412	n/a	Yes	2.882	n/a	n/a	GoodResponse	1	0.0	n/a	4	16	ISIslide	Win	True
170.529	0.25	Lose2	0.8889	0.001	No	2.721	0.029	n/a	NoResponse	-1	n/a	n/a	3	17	Cue	Loss	True
170.78	3.95	Lose2	0.8889	0.0	No	2.721	0.001	n/a	NoResponse	-1	n/a	n/a	3	17	Fixation	Loss	True
174.725	0.23	Lose2	0.8889	0.004	No	2.721	-0.004	2.0	NoResponse	-1	0.235	173.96	3	17	Target	Loss	True
174.959	0.47	Lose2	0.8889	n/a	No	2.721	n/a	n/a	NoResponse	-1	n/a	n/a	3	17	Blank	Loss	True
174.96	0.3	Lose2	0.8889	0.004	No	2.721	-0.004	2.0	NoResponse	-1	0.235	n/a	3	17	ButtonPress	Loss	True
175.427	1.45	Lose2	0.8889	n/a	No	2.721	n/a	5.0	NoResponse	-1	0.008	174.435	3	17	Feedback	Loss	True
176.882	2.721	Lose2	0.8889	n/a	No	2.721	n/a	n/a	NoResponse	-1	0.0	n/a	3	17	ISIslide	Loss	True
179.623	0.25	Lose2	0.8421	0.0	No	2.727	0.023	n/a	PrematurePress	-1	n/a	n/a	2	18	Cue	Loss	True
179.874	4.05	Lose2	0.8421	0.0	No	2.727	0.001	n/a	PrematurePress	-1	n/a	n/a	2	18	Fixation	Loss	True
183.919	0.22	Lose2	0.8421	0.004	No	2.727	-0.004	2.0	PrematurePress	-1	0.086	183.005	2	18	Target	Loss	True
184.005	0.3	Lose2	0.8421	0.004	No	2.727	-0.004	2.0	PrematurePress	-1	0.086	n/a	2	18	ButtonPress	Loss	True
184.153	0.48	Lose2	0.8421	n/a	No	2.727	n/a	n/a	PrematurePress	-1	n/a	n/a	2	18	Blank	Loss	True
184.622	1.45	Lose2	0.8421	n/a	No	2.727	n/a	5.0	PrematurePress	-1	0.033	183.655	2	18	Feedback	Loss	True
186.076	2.727	Lose2	0.8421	n/a	No	2.727	n/a	n/a	PrematurePress	-1	0.0	n/a	2	18	ISIslide	Loss	True
188.817	0.25	Control	0.8	0.0	No	2.933	0.017	n/a	NoResponse	0	n/a	n/a	2	19	Cue	Neutral	True
189.068	3.95	Control	0.8	0.0	No	2.933	0.001	n/a	NoResponse	0	n/a	n/a	2	19	Fixation	Neutral	True
193.013	0.21	Control	0.8	0.004	No	2.933	-0.004	2.0	NoResponse	0	0.225	192.238	2	19	Target	Neutral	True
193.231	0.49	Control	0.8	n/a	No	2.933	n/a	n/a	NoResponse	0	n/a	n/a	2	19	Blank	Neutral	True
193.238	0.3	Control	0.8	0.004	No	2.933	-0.004	2.0	NoResponse	0	0.225	n/a	2	19	ButtonPress	Neutral	True
193.715	1.45	Control	0.8	n/a	No	2.933	n/a	5.0	NoResponse	0	0.012	192.727	2	19	Feedback	Neutral	True
195.17	2.933	Control	0.8	n/a	No	2.933	n/a	n/a	NoResponse	0	0.0	n/a	2	19	ISIslide	Neutral	True
198.128	0.25	Control	0.8095	0.001	Yes	2.622	0.028	n/a	GoodResponse	0	n/a	n/a	2	20	Cue	Neutral	True
198.379	4.05	Control	0.8095	0.0	Yes	2.622	0.001	n/a	GoodResponse	0	n/a	n/a	2	20	Fixation	Neutral	True
202.425	0.2	Control	0.8095	0.003	Yes	2.622	-0.003	2.0	GoodResponse	0	0.195	201.62	2	20	Target	Neutral	True
202.62	0.3	Control	0.8095	0.003	Yes	2.622	-0.003	2.0	GoodResponse	0	0.195	n/a	2	20	ButtonPress	Neutral	True
202.625	0.5	Control	0.8095	n/a	Yes	2.622	n/a	n/a	GoodResponse	0	n/a	n/a	2	20	Blank	Neutral	True
203.127	1.45	Control	0.8095	n/a	Yes	2.622	n/a	5.0	GoodResponse	0	0.015	202.142	2	20	Feedback	Neutral	True
204.581	2.622	Control	0.8095	n/a	Yes	2.622	n/a	n/a	GoodResponse	0	0.0	n/a	2	20	ISIslide	Neutral	True
207.222	0.25	Control	0.7726999999999999	0.0	No	2.778	0.022	n/a	NoResponse	0	n/a	n/a	2	21	Cue	Neutral	True
207.473	4.1	Control	0.7726999999999999	0.0	No	2.778	0.001	n/a	NoResponse	0	n/a	n/a	2	21	Fixation	Neutral	True
211.569	0.19	Control	0.7726999999999999	0.003	No	2.778	-0.003	2.0	NoResponse	0	0.214	210.783	2	21	Target	Neutral	True
211.769	0.51	Control	0.7726999999999999	n/a	No	2.778	n/a	n/a	NoResponse	0	n/a	n/a	2	21	Blank	Neutral	True
211.783	0.3	Control	0.7726999999999999	0.003	No	2.778	-0.003	2.0	NoResponse	0	0.214	n/a	2	21	ButtonPress	Neutral	True
212.271	1.45	Control	0.7726999999999999	n/a	No	2.778	n/a	5.0	NoResponse	0	0.0	211.271	2	21	Feedback	Neutral	True
213.725	2.778	Control	0.7726999999999999	n/a	No	2.778	n/a	n/a	NoResponse	0	0.0	n/a	2	21	ISIslide	Neutral	True
216.517	0.25	Control	0.7826000000000001	0.0	Yes	2.783	0.017	n/a	GoodResponse	0	n/a	n/a	2	22	Cue	Neutral	True
216.767	4.0	Control	0.7826000000000001	0.0	Yes	2.783	0.0	n/a	GoodResponse	0	n/a	n/a	2	22	Fixation	Neutral	True
220.763	0.18	Control	0.7826000000000001	0.004	Yes	2.783	-0.004	2.0	GoodResponse	0	0.165	219.928	2	22	Target	Neutral	True
220.928	0.3	Control	0.7826000000000001	0.004	Yes	2.783	-0.004	2.0	GoodResponse	0	0.165	n/a	2	22	ButtonPress	Neutral	True
220.947	0.52	Control	0.7826000000000001	n/a	Yes	2.783	n/a	n/a	GoodResponse	0	n/a	n/a	2	22	Blank	Neutral	True
221.465	1.45	Control	0.7826000000000001	n/a	Yes	2.783	n/a	5.0	GoodResponse	0	0.018	220.483	2	22	Feedback	Neutral	True
222.919	2.783	Control	0.7826000000000001	n/a	Yes	2.783	n/a	n/a	GoodResponse	0	0.0	n/a	2	22	ISIslide	Neutral	True
225.727	0.25	Control	0.7917000000000001	0.001	Yes	2.773	0.027	n/a	GoodResponse	0	n/a	n/a	2	23	Cue	Neutral	True
225.978	3.9	Control	0.7917000000000001	0.0	Yes	2.773	0.001	n/a	GoodResponse	0	n/a	n/a	2	23	Fixation	Neutral	True
229.873	0.17	Control	0.7917000000000001	0.004	Yes	2.773	-0.004	2.0	GoodResponse	0	0.169	229.042	2	23	Target	Neutral	True
230.042	0.3	Control	0.7917000000000001	0.004	Yes	2.773	-0.004	2.0	GoodResponse	0	0.169	n/a	2	23	ButtonPress	Neutral	True
230.057	0.53	Control	0.7917000000000001	n/a	Yes	2.773	n/a	n/a	GoodResponse	0	n/a	n/a	2	23	Blank	Neutral	True
230.592	1.45	Control	0.7917000000000001	n/a	Yes	2.773	n/a	5.0	GoodResponse	0	0.012	229.604	2	23	Feedback	Neutral	True
232.03	2.773	Control	0.7917000000000001	n/a	Yes	2.773	n/a	n/a	GoodResponse	0	0.0	n/a	2	23	ISIslide	Neutral	True
234.821	0.25	Win2	0.76	0.0	No	3.129	0.021	n/a	LatePress	0	n/a	n/a	2	24	Cue	MissedWin	True
235.072	3.95	Win2	0.76	0.0	No	3.129	0.001	n/a	LatePress	0	n/a	n/a	2	24	Fixation	MissedWin	True
239.017	0.16	Win2	0.76	0.004	No	3.129	-0.004	2.0	LatePress	0	0.165	238.182	2	24	Target	MissedWin	True
239.182	0.3	Win2	0.76	0.004	No	3.129	-0.004	2.0	LatePress	0	0.165	n/a	2	24	ButtonPress	MissedWin	True
239.184	0.54	Win2	0.76	n/a	No	3.129	n/a	n/a	LatePress	0	n/a	n/a	2	24	Blank	MissedWin	True
239.719	1.45	Win2	0.76	n/a	No	3.129	n/a	5.0	LatePress	0	0.007	238.726	2	24	Feedback	MissedWin	True
241.174	3.129	Win2	0.76	n/a	No	3.129	n/a	n/a	LatePress	0	0.0	n/a	2	24	ISIslide	MissedWin	True
244.316	0.25	Win2	0.7692	0.0	Yes	3.084	0.016	n/a	GoodResponse	1	n/a	n/a	3	25	Cue	Win	False
244.567	4.0	Win2	0.7692	0.0	Yes	3.084	0.001	2.0	GoodResponse	1	3.543	247.11	3	25	Fixation	Win	False
248.11	0.3	Win2	0.7692	0.0	Yes	3.084	0.001	2.0	GoodResponse	1	3.543	n/a	3	25	ButtonPress	Win	False
248.562	0.15	Win2	0.7692	0.004	Yes	3.084	-0.004	2.0	GoodResponse	1	0.124	247.686	3	25	Target	Win	False
248.686	0.3	Win2	0.7692	0.004	Yes	3.084	-0.004	2.0	GoodResponse	1	0.124	n/a	3	25	ButtonPress	Win	False
248.713	0.55	Win2	0.7692	n/a	Yes	3.084	n/a	n/a	GoodResponse	1	n/a	n/a	3	25	Blank	Win	False
249.264	1.45	Win2	0.7692	n/a	Yes	3.084	n/a	5.0	GoodResponse	1	0.023	248.287	3	25	Feedback	Win	False
250.719	3.084	Win2	0.7692	n/a	Yes	3.084	n/a	n/a	GoodResponse	1	0.0	n/a	3	25	ISIslide	Win	False
253.828	0.25	Win2	0.7406999999999999	0.0	No	2.922	0.028	n/a	PrematurePress	0	n/a	n/a	3	26	Cue	MissedWin	False
254.079	3.95	Win2	0.7406999999999999	0.0	No	2.922	0.001	2.0	PrematurePress	0	2.712	255.791	3	26	Fixation	MissedWin	False
256.791	0.3	Win2	0.7406999999999999	0.0	No	2.922	0.001	2.0	PrematurePress	0	2.712	n/a	3	26	ButtonPress	MissedWin	False
258.024	0.15	Win2	0.7406999999999999	0.004	No	2.922	-0.004	2.0	PrematurePress	0	0.018	257.042	3	26	Target	MissedWin	False
258.042	0.3	Win2	0.7406999999999999	0.004	No	2.922	-0.004	2.0	PrematurePress	0	0.018	n/a	3	26	ButtonPress	MissedWin	False
258.174	0.55	Win2	0.7406999999999999	n/a	No	2.922	n/a	n/a	PrematurePress	0	n/a	n/a	3	26	Blank	MissedWin	False
258.726	1.45	Win2	0.7406999999999999	n/a	No	2.922	n/a	5.0	PrematurePress	0	0.024	257.75	3	26	Feedback	MissedWin	False
260.18	2.922	Win2	0.7406999999999999	n/a	No	2.922	n/a	n/a	PrematurePress	0	0.0	n/a	3	26	ISIslide	MissedWin	False
263.122	0.25	Lose2	0.7143	0.0	No	2.828	0.022	n/a	NoResponse	-1	n/a	n/a	2	27	Cue	Loss	False
263.373	4.05	Lose2	0.7143	0.0	No	2.828	0.001	2.0	NoResponse	-1	3.553	265.926	2	27	Fixation	Loss	False
266.926	0.3	Lose2	0.7143	0.0	No	2.828	0.001	2.0	NoResponse	-1	3.553	n/a	2	27	ButtonPress	Loss	False
267.485	0.15	Lose2	0.7143	0.001	No	2.828	0.063	1.0	NoResponse	-1	0.187	266.672	2	27	Target	Loss	False
267.586	0.55	Lose2	0.7143	n/a	No	2.828	n/a	n/a	NoResponse	-1	n/a	n/a	2	27	Blank	Loss	False
267.672	0.3	Lose2	0.7143	0.001	No	2.828	0.063	1.0	NoResponse	-1	0.187	n/a	2	27	ButtonPress	Loss	False
268.137	1.45	Lose2	0.7143	n/a	No	2.828	n/a	5.0	NoResponse	-1	0.027	267.164	2	27	Feedback	Loss	False
269.575	2.828	Lose2	0.7143	n/a	No	2.828	n/a	n/a	NoResponse	-1	0.0	n/a	2	27	ISIslide	Loss	False
272.417	0.25	Control	0.6897	0.0	No	2.833	0.017	n/a	NoResponse	0	n/a	n/a	2	28	Cue	Neutral	True
272.668	4.05	Control	0.6897	0.0	No	2.833	0.001	n/a	NoResponse	0	n/a	n/a	2	28	Fixation	Neutral	True
276.713	0.15	Control	0.6897	0.004	No	2.833	-0.004	2.0	NoResponse	0	0.19	275.903	2	28	Target	Neutral	True
276.863	0.55	Control	0.6897	n/a	No	2.833	n/a	n/a	NoResponse	0	n/a	n/a	2	28	Blank	Neutral	True
276.903	0.3	Control	0.6897	0.004	No	2.833	-0.004	2.0	NoResponse	0	0.19	n/a	2	28	ButtonPress	Neutral	True
277.415	1.45	Control	0.6897	n/a	No	2.833	n/a	5.0	NoResponse	0	0.018	276.433	2	28	Feedback	Neutral	True
278.869	2.833	Control	0.6897	n/a	No	2.833	n/a	n/a	NoResponse	0	0.0	n/a	2	28	ISIslide	Neutral	True
281.728	0.25	Lose2	0.6667000000000001	0.0	No	2.822	0.028	n/a	PrematurePress	-1	n/a	n/a	1	29	Cue	Loss	True
281.979	3.95	Lose2	0.6667000000000001	0.0	No	2.822	0.001	n/a	PrematurePress	-1	n/a	n/a	1	29	Fixation	Loss	True
285.924	0.15	Lose2	0.6667000000000001	0.004	No	2.822	-0.004	2.0	PrematurePress	-1	0.048	284.972	1	29	Target	Loss	True
285.972	0.3	Lose2	0.6667000000000001	0.004	No	2.822	-0.004	2.0	PrematurePress	-1	0.048	n/a	1	29	ButtonPress	Loss	True
286.074	0.55	Lose2	0.6667000000000001	n/a	No	2.822	n/a	n/a	PrematurePress	-1	n/a	n/a	1	29	Blank	Loss	True
286.626	1.45	Lose2	0.6667000000000001	n/a	No	2.822	n/a	5.0	PrematurePress	-1	0.026	285.652	1	29	Feedback	Loss	True
288.081	2.822	Lose2	0.6667000000000001	n/a	No	2.822	n/a	n/a	PrematurePress	-1	0.0	n/a	1	29	ISIslide	Loss	True
290.922	0.25	Win2	0.6452	0.0	No	2.778	0.022	n/a	NoResponse	0	n/a	n/a	1	30	Cue	MissedWin	True
291.173	3.9	Win2	0.6452	0.0	No	2.778	0.001	n/a	NoResponse	0	n/a	n/a	1	30	Fixation	MissedWin	True
295.068	0.15	Win2	0.6452	0.004	No	2.778	-0.004	2.0	NoResponse	0	0.203	294.271	1	30	Target	MissedWin	True
295.218	0.55	Win2	0.6452	n/a	No	2.778	n/a	n/a	NoResponse	0	n/a	n/a	1	30	Blank	MissedWin	True
295.271	0.3	Win2	0.6452	0.004	No	2.778	-0.004	2.0	NoResponse	0	0.203	n/a	1	30	ButtonPress	MissedWin	True
295.77	1.45	Win2	0.6452	n/a	No	2.778	n/a	5.0	NoResponse	0	0.008	294.778	1	30	Feedback	MissedWin	True
297.224	2.778	Win2	0.6452	n/a	No	2.778	n/a	n/a	NoResponse	0	0.0	n/a	1	30	ISIslide	MissedWin	True
300.016	0.25	Lose2	0.625	0.0	No	2.834	0.016	n/a	NoResponse	-1	n/a	n/a	0	31	Cue	Loss	True
300.267	4.05	Lose2	0.625	0.0	No	2.834	0.001	n/a	NoResponse	-1	n/a	n/a	0	31	Fixation	Loss	True
304.312	0.16	Lose2	0.625	0.004	No	2.834	-0.004	2.0	NoResponse	-1	0.198	303.51	0	31	Target	Loss	True
304.479	0.54	Lose2	0.625	n/a	No	2.834	n/a	n/a	NoResponse	-1	n/a	n/a	0	31	Blank	Loss	True
304.51	0.3	Lose2	0.625	0.004	No	2.834	-0.004	2.0	NoResponse	-1	0.198	n/a	0	31	ButtonPress	Loss	True
305.014	1.45	Lose2	0.625	n/a	No	2.834	n/a	5.0	NoResponse	-1	0.028	304.042	0	31	Feedback	Loss	True
306.468	2.834	Lose2	0.625	n/a	No	2.834	n/a	n/a	NoResponse	-1	0.0	n/a	0	31	ISIslide	Loss	True
309.327	0.25	Lose2	0.6061	0.0	No	2.623	0.027	n/a	LatePress	-1	n/a	n/a	-1	32	Cue	Loss	True
309.578	4.15	Lose2	0.6061	0.0	No	2.623	0.001	n/a	LatePress	-1	n/a	n/a	-1	32	Fixation	Loss	True
313.723	0.17	Lose2	0.6061	0.004	No	2.623	-0.004	2.0	LatePress	-1	0.185	312.908	-1	32	Target	Loss	True
313.907	0.53	Lose2	0.6061	n/a	No	2.623	n/a	n/a	LatePress	-1	n/a	n/a	-1	32	Blank	Loss	True
313.908	0.3	Lose2	0.6061	0.004	No	2.623	-0.004	2.0	LatePress	-1	0.185	n/a	-1	32	ButtonPress	Loss	True
314.425	1.45	Lose2	0.6061	n/a	No	2.623	n/a	5.0	LatePress	-1	0.032	313.457	-1	32	Feedback	Loss	True
315.88	2.623	Lose2	0.6061	n/a	No	2.623	n/a	n/a	LatePress	-1	0.0	n/a	-1	32	ISIslide	Loss	True
318.521	0.25	Win2	0.5882000000000001	0.0	No	2.679	0.021	n/a	NoResponse	0	n/a	n/a	-1	33	Cue	MissedWin	True
318.772	4.0	Win2	0.5882000000000001	0.0	No	2.679	0.001	n/a	NoResponse	0	n/a	n/a	-1	33	Fixation	MissedWin	True
322.767	0.18	Win2	0.5882000000000001	0.004	No	2.679	-0.004	2.0	NoResponse	0	0.341	322.108	-1	33	Target	MissedWin	True
322.951	0.52	Win2	0.5882000000000001	n/a	No	2.679	n/a	n/a	NoResponse	0	n/a	n/a	-1	33	Blank	MissedWin	True
323.108	0.3	Win2	0.5882000000000001	0.004	No	2.679	-0.004	2.0	NoResponse	0	0.341	n/a	-1	33	ButtonPress	MissedWin	True
323.469	1.45	Win2	0.5882000000000001	n/a	No	2.679	n/a	5.0	NoResponse	0	0.011	322.48	-1	33	Feedback	MissedWin	True
324.923	2.679	Win2	0.5882000000000001	n/a	No	2.679	n/a	2.0	NoResponse	0	1.718	n/a	-1	33	ISIslide	MissedWin	True
327.598	0.25	Lose2	0.5714	0.0	No	2.652	-0.002	n/a	LatePress	-1	n/a	n/a	-2	34	Cue	Loss	True
327.849	4.05	Lose2	0.5714	0.0	No	2.652	0.001	n/a	LatePress	-1	n/a	n/a	-2	34	Fixation	Loss	True
331.894	0.19	Lose2	0.5714	0.004	No	2.652	-0.004	2.0	LatePress	-1	0.198	331.092	-2	34	Target	Loss	True
332.092	0.3	Lose2	0.5714	0.004	No	2.652	-0.004	2.0	LatePress	-1	0.198	n/a	-2	34	ButtonPress	Loss	True
332.095	0.51	Lose2	0.5714	n/a	No	2.652	n/a	n/a	LatePress	-1	n/a	n/a	-2	34	Blank	Loss	True
332.596	1.45	Lose2	0.5714	n/a	No	2.652	n/a	5.0	LatePress	-1	0.007	331.603	-2	34	Feedback	Loss	True
334.051	2.652	Lose2	0.5714	n/a	No	2.652	n/a	n/a	LatePress	-1	0.0	n/a	-2	34	ISIslide	Loss	True
336.725	0.25	Lose2	0.5832999999999999	0.0	Yes	2.675	0.025	n/a	GoodResponse	0	n/a	n/a	-2	35	Cue	AvoidedLoss	True
336.976	4.0	Lose2	0.5832999999999999	0.0	Yes	2.675	0.001	n/a	GoodResponse	0	n/a	n/a	-2	35	Fixation	AvoidedLoss	True
340.971	0.2	Lose2	0.5832999999999999	0.004	Yes	2.675	-0.004	2.0	GoodResponse	0	0.167	340.138	-2	35	Target	AvoidedLoss	True
341.138	0.3	Lose2	0.5832999999999999	0.004	Yes	2.675	-0.004	2.0	GoodResponse	0	0.167	n/a	-2	35	ButtonPress	AvoidedLoss	True
341.172	0.5	Lose2	0.5832999999999999	n/a	Yes	2.675	n/a	n/a	GoodResponse	0	n/a	n/a	-2	35	Blank	AvoidedLoss	True
341.673	1.45	Lose2	0.5832999999999999	n/a	Yes	2.675	n/a	5.0	GoodResponse	0	0.002	340.675	-2	35	Feedback	AvoidedLoss	True
343.128	2.675	Lose2	0.5832999999999999	n/a	Yes	2.675	n/a	n/a	GoodResponse	0	0.0	n/a	-2	35	ISIslide	AvoidedLoss	True
345.819	0.25	Control	0.5676	0.0	No	2.681	0.019	n/a	NoResponse	0	n/a	n/a	-2	36	Cue	Neutral	True
346.07	4.0	Control	0.5676	0.0	No	2.681	0.001	2.0	NoResponse	0	3.847	348.917	-2	36	Fixation	Neutral	True
349.917	0.3	Control	0.5676	0.0	No	2.681	0.001	2.0	NoResponse	0	3.847	n/a	-2	36	ButtonPress	Neutral	True
350.065	0.21	Control	0.5676	0.004	No	2.681	-0.004	n/a	NoResponse	0	n/a	n/a	-2	36	Target	Neutral	True
350.282	0.49	Control	0.5676	n/a	No	2.681	n/a	n/a	NoResponse	0	n/a	n/a	-2	36	Blank	Neutral	True
350.767	1.45	Control	0.5676	n/a	No	2.681	n/a	5.0	NoResponse	0	0.03	349.797	-2	36	Feedback	Neutral	True
352.221	2.681	Control	0.5676	n/a	No	2.681	n/a	n/a	NoResponse	0	0.0	n/a	-2	36	ISIslide	Neutral	True
354.93	0.25	Win2	0.5789	0.0	Yes	2.87	0.03	n/a	GoodResponse	1	n/a	n/a	-1	37	Cue	Win	True
355.18	4.0	Win2	0.5789	0.0	Yes	2.87	0.0	n/a	GoodResponse	1	n/a	n/a	-1	37	Fixation	Win	True
359.176	0.22	Win2	0.5789	0.004	Yes	2.87	-0.004	2.0	GoodResponse	1	0.174	358.35	-1	37	Target	Win	True
359.35	0.3	Win2	0.5789	0.004	Yes	2.87	-0.004	2.0	GoodResponse	1	0.174	n/a	-1	37	ButtonPress	Win	True
359.41	0.48	Win2	0.5789	n/a	Yes	2.87	n/a	n/a	GoodResponse	1	n/a	n/a	-1	37	Blank	Win	True
359.878	1.45	Win2	0.5789	n/a	Yes	2.87	n/a	5.0	GoodResponse	1	0.04	358.918	-1	37	Feedback	Win	True
361.332	2.87	Win2	0.5789	n/a	Yes	2.87	n/a	n/a	GoodResponse	1	0.0	n/a	-1	37	ISIslide	Win	True
364.224	0.25	Lose2	0.5897	0.0	Yes	2.826	0.024	n/a	GoodResponse	0	n/a	n/a	-1	38	Cue	AvoidedLoss	True
364.475	3.95	Lose2	0.5897	0.0	Yes	2.826	0.001	n/a	GoodResponse	0	n/a	n/a	-1	38	Fixation	AvoidedLoss	True
368.42	0.23	Lose2	0.5897	0.004	Yes	2.826	-0.004	2.0	GoodResponse	0	0.176	367.596	-1	38	Target	AvoidedLoss	True
368.596	0.3	Lose2	0.5897	0.004	Yes	2.826	-0.004	2.0	GoodResponse	0	0.176	n/a	-1	38	ButtonPress	AvoidedLoss	True
368.654	0.47	Lose2	0.5897	n/a	Yes	2.826	n/a	n/a	GoodResponse	0	n/a	n/a	-1	38	Blank	AvoidedLoss	True
369.122	1.45	Lose2	0.5897	n/a	Yes	2.826	n/a	5.0	GoodResponse	0	0.016	368.138	-1	38	Feedback	AvoidedLoss	True
370.576	2.826	Lose2	0.5897	n/a	Yes	2.826	n/a	n/a	GoodResponse	0	0.0	n/a	-1	38	ISIslide	AvoidedLoss	True
373.418	0.25	Win2	0.575	0.0	No	2.982	0.018	n/a	LatePress	0	n/a	n/a	-1	39	Cue	MissedWin	True
373.669	4.1	Win2	0.575	0.0	No	2.982	0.001	n/a	LatePress	0	n/a	n/a	-1	39	Fixation	MissedWin	True
377.764	0.24	Win2	0.575	0.004	No	2.982	-0.004	1.0	LatePress	0	0.468	377.232	-1	39	Target	MissedWin	True
378.232	0.3	Win2	0.575	0.004	No	2.982	-0.004	1.0	LatePress	0	0.468	n/a	-1	39	ButtonPress	MissedWin	True
378.249	0.46	Win2	0.575	n/a	No	2.982	n/a	n/a	LatePress	0	n/a	n/a	-1	39	Blank	MissedWin	True
378.466	1.45	Win2	0.575	n/a	No	2.982	n/a	5.0	LatePress	0	0.038	377.504	-1	39	Feedback	MissedWin	True
379.921	2.982	Win2	0.575	n/a	No	2.982	n/a	n/a	LatePress	0	0.0	n/a	-1	39	ISIslide	MissedWin	True
382.93	0.25	Win2	0.5854	0.0	Yes	2.72	0.03	n/a	GoodResponse	1	n/a	n/a	0	40	Cue	Win	True
383.181	3.95	Win2	0.5854	0.0	Yes	2.72	0.001	n/a	GoodResponse	1	n/a	n/a	0	40	Fixation	Win	True
387.126	0.25	Win2	0.5854	0.004	Yes	2.72	-0.004	2.0	GoodResponse	1	0.167	386.293	0	40	Target	Win	True
387.293	0.3	Win2	0.5854	0.004	Yes	2.72	-0.004	2.0	GoodResponse	1	0.167	n/a	0	40	ButtonPress	Win	True
387.376	0.45	Win2	0.5854	n/a	Yes	2.72	n/a	n/a	GoodResponse	1	n/a	n/a	0	40	Blank	Win	True
387.828	1.45	Win2	0.5854	n/a	Yes	2.72	n/a	5.0	GoodResponse	1	0.041	386.869	0	40	Feedback	Win	True
389.282	2.72	Win2	0.5854	n/a	Yes	2.72	n/a	n/a	GoodResponse	1	0.0	n/a	0	40	ISIslide	Win	True
392.024	0.25	Win2	0.5952000000000001	0.0	Yes	2.776	0.024	n/a	GoodResponse	1	n/a	n/a	1	41	Cue	Win	True
392.274	3.9	Win2	0.5952000000000001	0.0	Yes	2.776	0.0	n/a	GoodResponse	1	n/a	n/a	1	41	Fixation	Win	True
396.186	0.26	Win2	0.5952000000000001	0.0	Yes	2.776	0.012	2.0	GoodResponse	1	0.167	395.353	1	41	Target	Win	True
396.353	0.3	Win2	0.5952000000000001	0.0	Yes	2.776	0.012	2.0	GoodResponse	1	0.167	n/a	1	41	ButtonPress	Win	True
396.437	0.44	Win2	0.5952000000000001	n/a	Yes	2.776	n/a	n/a	GoodResponse	1	n/a	n/a	1	41	Blank	Win	True
396.871	1.45	Win2	0.5952000000000001	n/a	Yes	2.776	n/a	5.0	GoodResponse	1	0.022	395.893	1	41	Feedback	Win	True
398.326	2.776	Win2	0.5952000000000001	n/a	Yes	2.776	n/a	n/a	GoodResponse	1	0.0	n/a	1	41	ISIslide	Win	True
401.117	0.25	Control	0.6047	0.0	Yes	2.933	0.017	n/a	GoodResponse	0	n/a	n/a	1	42	Cue	Neutral	True
401.368	3.85	Control	0.6047	0.0	Yes	2.933	0.001	n/a	GoodResponse	0	n/a	n/a	1	42	Fixation	Neutral	True
405.213	0.27	Control	0.6047	0.004	Yes	2.933	-0.004	2.0	GoodResponse	0	0.218	404.431	1	42	Target	Neutral	True
405.431	0.3	Control	0.6047	0.004	Yes	2.933	-0.004	2.0	GoodResponse	0	0.218	n/a	1	42	ButtonPress	Neutral	True
405.497	0.43	Control	0.6047	n/a	Yes	2.933	n/a	n/a	GoodResponse	0	n/a	n/a	1	42	Blank	Neutral	True
405.915	1.45	Control	0.6047	n/a	Yes	2.933	n/a	5.0	GoodResponse	0	0.006	404.921	1	42	Feedback	Neutral	True
407.369	2.933	Control	0.6047	n/a	Yes	2.933	n/a	n/a	GoodResponse	0	0.0	n/a	1	42	ISIslide	Neutral	True
410.328	0.25	Win2	0.5909	0.0	No	3.172	0.028	n/a	NoResponse	0	n/a	n/a	1	43	Cue	MissedWin	False
410.579	4.0	Win2	0.5909	0.0	No	3.172	0.001	2.0	NoResponse	0	3.746	413.325	1	43	Fixation	MissedWin	False
414.325	0.3	Win2	0.5909	0.0	No	3.172	0.001	2.0	NoResponse	0	3.746	n/a	1	43	ButtonPress	MissedWin	False
414.574	0.28	Win2	0.5909	0.004	No	3.172	-0.004	1.0	NoResponse	0	0.426	414.0	1	43	Target	MissedWin	False
414.858	0.42	Win2	0.5909	n/a	No	3.172	n/a	n/a	NoResponse	0	n/a	n/a	1	43	Blank	MissedWin	False
415	0.3	Win2	0.5909	0.004	No	3.172	-0.004	1.0	NoResponse	0	0.426	n/a	1	43	ButtonPress	MissedWin	False
415.276	1.45	Win2	0.5909	n/a	No	3.172	n/a	5.0	NoResponse	0	0.008	414.284	1	43	Feedback	MissedWin	False
416.731	3.172	Win2	0.5909	n/a	No	3.172	n/a	n/a	NoResponse	0	0.0	n/a	1	43	ISIslide	MissedWin	False
419.923	0.25	Win2	0.6	0.001	Yes	2.977	0.023	n/a	GoodResponse	1	n/a	n/a	2	44	Cue	Win	True
420.174	4.0	Win2	0.6	0.0	Yes	2.977	0.001	n/a	GoodResponse	1	n/a	n/a	2	44	Fixation	Win	True
424.169	0.29	Win2	0.6	0.004	Yes	2.977	-0.004	2.0	GoodResponse	1	0.198	423.367	2	44	Target	Win	True
424.367	0.3	Win2	0.6	0.004	Yes	2.977	-0.004	2.0	GoodResponse	1	0.198	n/a	2	44	ButtonPress	Win	True
424.47	0.41	Win2	0.6	n/a	Yes	2.977	n/a	n/a	GoodResponse	1	n/a	n/a	2	44	Blank	Win	True
424.872	1.45	Win2	0.6	n/a	Yes	2.977	n/a	5.0	GoodResponse	1	0.02	423.892	2	44	Feedback	Win	True
426.326	2.977	Win2	0.6	n/a	Yes	2.977	n/a	n/a	GoodResponse	1	0.0	n/a	2	44	ISIslide	Win	True
429.318	0.25	Control	0.6087	0.0	Yes	2.882	0.018	n/a	GoodResponse	0	n/a	n/a	2	45	Cue	Neutral	True
429.569	4.1	Control	0.6087	0.0	Yes	2.882	0.001	n/a	GoodResponse	0	n/a	n/a	2	45	Fixation	Neutral	True
433.664	0.3	Control	0.6087	0.004	Yes	2.882	-0.004	2.0	GoodResponse	0	0.205	432.869	2	45	Target	Neutral	True
433.869	0.3	Control	0.6087	0.004	Yes	2.882	-0.004	2.0	GoodResponse	0	0.205	n/a	2	45	ButtonPress	Neutral	True
433.965	0.4	Control	0.6087	n/a	Yes	2.882	n/a	n/a	GoodResponse	0	n/a	n/a	2	45	Blank	Neutral	True
434.367	1.45	Control	0.6087	n/a	Yes	2.882	n/a	5.0	GoodResponse	0	0.038	433.405	2	45	Feedback	Neutral	True
435.821	2.882	Control	0.6087	n/a	Yes	2.882	n/a	n/a	GoodResponse	0	0.0	n/a	2	45	ISIslide	Neutral	True
438.73	0.25	Lose2	0.617	0.0	Yes	3.37	0.03	n/a	GoodResponse	0	n/a	n/a	2	46	Cue	AvoidedLoss	True
438.98	4.0	Lose2	0.617	0.0	Yes	3.37	0.0	n/a	GoodResponse	0	n/a	n/a	2	46	Fixation	AvoidedLoss	True
442.976	0.31	Lose2	0.617	0.004	Yes	3.37	-0.004	2.0	GoodResponse	0	0.22	442.196	2	46	Target	AvoidedLoss	True
443.196	0.3	Lose2	0.617	0.004	Yes	3.37	-0.004	2.0	GoodResponse	0	0.22	n/a	2	46	ButtonPress	AvoidedLoss	True
443.293	0.39	Lose2	0.617	n/a	Yes	3.37	n/a	n/a	GoodResponse	0	n/a	n/a	2	46	Blank	AvoidedLoss	True
443.678	1.45	Lose2	0.617	n/a	Yes	3.37	n/a	5.0	GoodResponse	0	0.044	442.722	2	46	Feedback	AvoidedLoss	True
445.132	3.37	Lose2	0.617	n/a	Yes	3.37	n/a	n/a	GoodResponse	0	0.0	n/a	2	46	ISIslide	AvoidedLoss	True
448.525	0.25	Lose2	0.625	0.001	Yes	2.675	0.025	n/a	GoodResponse	0	n/a	n/a	2	47	Cue	AvoidedLoss	True
448.776	4.0	Lose2	0.625	0.0	Yes	2.675	0.001	n/a	GoodResponse	0	n/a	n/a	2	47	Fixation	AvoidedLoss	True
452.771	0.32	Lose2	0.625	0.004	Yes	2.675	-0.004	2.0	GoodResponse	0	0.168	451.939	2	47	Target	AvoidedLoss	True
452.939	0.3	Lose2	0.625	0.004	Yes	2.675	-0.004	2.0	GoodResponse	0	0.168	n/a	2	47	ButtonPress	AvoidedLoss	True
453.106	0.38	Lose2	0.625	n/a	Yes	2.675	n/a	n/a	GoodResponse	0	n/a	n/a	2	47	Blank	AvoidedLoss	True
453.474	1.45	Lose2	0.625	n/a	Yes	2.675	n/a	5.0	GoodResponse	0	0.004	452.478	2	47	Feedback	AvoidedLoss	True
454.928	2.675	Lose2	0.625	n/a	Yes	2.675	n/a	n/a	GoodResponse	0	0.0	n/a	2	47	ISIslide	AvoidedLoss	True
457.619	0.25	Lose2	0.6327	0.0	Yes	3.031	0.019	n/a	GoodResponse	0	n/a	n/a	2	48	Cue	AvoidedLoss	True
457.87	3.95	Lose2	0.6327	0.0	Yes	3.031	0.001	n/a	GoodResponse	0	n/a	n/a	2	48	Fixation	AvoidedLoss	True
461.815	0.33	Lose2	0.6327	0.004	Yes	3.031	-0.004	2.0	GoodResponse	0	0.178	460.993	2	48	Target	AvoidedLoss	True
461.993	0.3	Lose2	0.6327	0.004	Yes	3.031	-0.004	2.0	GoodResponse	0	0.178	n/a	2	48	ButtonPress	AvoidedLoss	True
462.149	0.37	Lose2	0.6327	n/a	Yes	3.031	n/a	n/a	GoodResponse	0	n/a	n/a	2	48	Blank	AvoidedLoss	True
462.517	1.45	Lose2	0.6327	n/a	Yes	3.031	n/a	5.0	GoodResponse	0	0.033	461.55	2	48	Feedback	AvoidedLoss	True
463.972	3.031	Lose2	0.6327	n/a	Yes	3.031	n/a	n/a	GoodResponse	0	0.0	n/a	2	48	ISIslide	AvoidedLoss	True
467.031	0.25	Control	0.64	0.0	Yes	2.869	0.031	n/a	GoodResponse	0	n/a	n/a	2	49	Cue	Neutral	True
467.281	4.0	Control	0.64	0.0	Yes	2.869	0.0	n/a	GoodResponse	0	n/a	n/a	2	49	Fixation	Neutral	True
471.277	0.34	Control	0.64	0.004	Yes	2.869	-0.004	2.0	GoodResponse	0	0.179	470.456	2	49	Target	Neutral	True
471.456	0.3	Control	0.64	0.004	Yes	2.869	-0.004	2.0	GoodResponse	0	0.179	n/a	2	49	ButtonPress	Neutral	True
471.628	0.36	Control	0.64	n/a	Yes	2.869	n/a	n/a	GoodResponse	0	n/a	n/a	2	49	Blank	Neutral	True
471.979	1.45	Control	0.64	n/a	Yes	2.869	n/a	5.0	GoodResponse	0	0.035	471.014	2	49	Feedback	Neutral	True
473.433	2.869	Control	0.64	n/a	Yes	2.869	n/a	n/a	GoodResponse	0	0.0	n/a	2	49	ISIslide	Neutral	True
476.325	0.25	Control	0.6470999999999999	0.0	Yes	2.775	0.025	n/a	GoodResponse	0	n/a	n/a	2	50	Cue	Neutral	True
476.576	4.0	Control	0.6470999999999999	0.0	Yes	2.775	0.001	n/a	GoodResponse	0	n/a	n/a	2	50	Fixation	Neutral	True
480.571	0.35	Control	0.6470999999999999	0.004	Yes	2.775	-0.004	2.0	GoodResponse	0	0.17	479.741	2	50	Target	Neutral	True
480.741	0.3	Control	0.6470999999999999	0.004	Yes	2.775	-0.004	2.0	GoodResponse	0	0.17	n/a	2	50	ButtonPress	Neutral	True
480.922	0.35	Control	0.6470999999999999	n/a	Yes	2.775	n/a	n/a	GoodResponse	0	n/a	n/a	2	50	Blank	Neutral	True
481.273	1.45	Control	0.6470999999999999	n/a	Yes	2.775	n/a	5.0	GoodResponse	0	0.009	480.282	2	50	Feedback	Neutral	True
482.727	2.775	Control	0.6470999999999999	n/a	Yes	2.775	n/a	n/a	GoodResponse	0	0.0	n/a	2	50	ISIslide	Neutral	True
485.519	0.25	Control	0.6537999999999999	0.0	Yes	2.731	0.019	n/a	GoodResponse	0	n/a	n/a	2	51	Cue	Neutral	True
485.77	3.95	Control	0.6537999999999999	0.0	Yes	2.731	0.001	n/a	GoodResponse	0	n/a	n/a	2	51	Fixation	Neutral	True
489.715	0.36	Control	0.6537999999999999	0.004	Yes	2.731	-0.004	2.0	GoodResponse	0	0.214	488.929	2	51	Target	Neutral	True
489.929	0.3	Control	0.6537999999999999	0.004	Yes	2.731	-0.004	2.0	GoodResponse	0	0.214	n/a	2	51	ButtonPress	Neutral	True
490.083	0.34	Control	0.6537999999999999	n/a	Yes	2.731	n/a	n/a	GoodResponse	0	n/a	n/a	2	51	Blank	Neutral	True
490.417	1.45	Control	0.6537999999999999	n/a	Yes	2.731	n/a	5.0	GoodResponse	0	0.035	489.452	2	51	Feedback	Neutral	True
491.871	2.731	Control	0.6537999999999999	n/a	Yes	2.731	n/a	n/a	GoodResponse	0	0.0	n/a	2	51	ISIslide	Neutral	True
494.63	0.25	Control	0.6604000000000001	0.0	Yes	2.62	0.03	n/a	GoodResponse	0	n/a	n/a	2	52	Cue	Neutral	True
494.88	4.05	Control	0.6604000000000001	0.0	Yes	2.62	0.0	n/a	GoodResponse	0	n/a	n/a	2	52	Fixation	Neutral	True
498.926	0.37	Control	0.6604000000000001	0.004	Yes	2.62	-0.004	2.0	GoodResponse	0	0.163	498.089	2	52	Target	Neutral	True
499.089	0.3	Control	0.6604000000000001	0.004	Yes	2.62	-0.004	2.0	GoodResponse	0	0.163	n/a	2	52	ButtonPress	Neutral	True
499.31	0.33	Control	0.6604000000000001	n/a	Yes	2.62	n/a	n/a	GoodResponse	0	n/a	n/a	2	52	Blank	Neutral	True
499.628	1.45	Control	0.6604000000000001	n/a	Yes	2.62	n/a	5.0	GoodResponse	0	0.044	498.672	2	52	Feedback	Neutral	True
501.082	2.62	Control	0.6604000000000001	n/a	Yes	2.62	n/a	n/a	GoodResponse	0	0.0	n/a	2	52	ISIslide	Neutral	True
503.723	0.25	Win2	0.6667000000000001	0.001	Yes	2.927	0.023	n/a	GoodResponse	1	n/a	n/a	3	53	Cue	Win	True
503.974	4.05	Win2	0.6667000000000001	0.0	Yes	2.927	0.001	n/a	GoodResponse	1	n/a	n/a	3	53	Fixation	Win	True
508.02	0.37	Win2	0.6667000000000001	0.003	Yes	2.927	-0.003	2.0	GoodResponse	1	0.19	507.21	3	53	Target	Win	True
508.21	0.3	Win2	0.6667000000000001	0.003	Yes	2.927	-0.003	2.0	GoodResponse	1	0.19	n/a	3	53	ButtonPress	Win	True
508.404	0.33	Win2	0.6667000000000001	n/a	Yes	2.927	n/a	n/a	GoodResponse	1	n/a	n/a	3	53	Blank	Win	True
508.722	1.45	Win2	0.6667000000000001	n/a	Yes	2.927	n/a	5.0	GoodResponse	1	0.023	507.745	3	53	Feedback	Win	True
510.176	2.927	Win2	0.6667000000000001	n/a	Yes	2.927	n/a	n/a	GoodResponse	1	0.0	n/a	3	53	ISIslide	Win	True
513.118	0.25	Win2	0.6727	0.0	Yes	2.732	0.018	n/a	GoodResponse	1	n/a	n/a	4	54	Cue	Win	True
513.369	3.95	Win2	0.6727	0.0	Yes	2.732	0.001	n/a	GoodResponse	1	n/a	n/a	4	54	Fixation	Win	True
517.314	0.36	Win2	0.6727	0.004	Yes	2.732	-0.004	2.0	GoodResponse	1	0.169	516.483	4	54	Target	Win	True
517.483	0.3	Win2	0.6727	0.004	Yes	2.732	-0.004	2.0	GoodResponse	1	0.169	n/a	4	54	ButtonPress	Win	True
517.682	0.34	Win2	0.6727	n/a	Yes	2.732	n/a	n/a	GoodResponse	1	n/a	n/a	4	54	Blank	Win	True
518.016	1.45	Win2	0.6727	n/a	Yes	2.732	n/a	5.0	GoodResponse	1	0.046	517.062	4	54	Feedback	Win	True
519.47	2.732	Win2	0.6727	n/a	Yes	2.732	n/a	n/a	GoodResponse	1	0.0	n/a	4	54	ISIslide	Win	True
522.229	0.25	Control	0.6786	0.0	Yes	3.021	0.029	n/a	GoodResponse	0	n/a	n/a	4	55	Cue	Neutral	True
522.479	3.95	Control	0.6786	0.0	Yes	3.021	0.0	n/a	GoodResponse	0	n/a	n/a	4	55	Fixation	Neutral	True
526.425	0.35	Control	0.6786	0.004	Yes	3.021	-0.004	2.0	GoodResponse	0	0.234	525.659	4	55	Target	Neutral	True
526.659	0.3	Control	0.6786	0.004	Yes	3.021	-0.004	2.0	GoodResponse	0	0.234	n/a	4	55	ButtonPress	Neutral	True
526.776	0.35	Control	0.6786	n/a	Yes	3.021	n/a	n/a	GoodResponse	0	n/a	n/a	4	55	Blank	Neutral	True
527.127	1.45	Control	0.6786	n/a	Yes	3.021	n/a	5.0	GoodResponse	0	0.007	526.134	4	55	Feedback	Neutral	True
528.581	3.021	Control	0.6786	n/a	Yes	3.021	n/a	n/a	GoodResponse	0	0.0	n/a	4	55	ISIslide	Neutral	True
531.623	0.25	Control	0.6842	0.0	Yes	2.827	0.023	n/a	GoodResponse	0	n/a	n/a	4	56	Cue	Neutral	True
531.874	3.95	Control	0.6842	0.0	Yes	2.827	0.001	n/a	GoodResponse	0	n/a	n/a	4	56	Fixation	Neutral	True
535.819	0.34	Control	0.6842	0.004	Yes	2.827	-0.004	2.0	GoodResponse	0	0.177	534.996	4	56	Target	Neutral	True
535.996	0.3	Control	0.6842	0.004	Yes	2.827	-0.004	2.0	GoodResponse	0	0.177	n/a	4	56	ButtonPress	Neutral	True
536.17	0.36	Control	0.6842	n/a	Yes	2.827	n/a	n/a	GoodResponse	0	n/a	n/a	4	56	Blank	Neutral	True
536.521	1.45	Control	0.6842	n/a	Yes	2.827	n/a	5.0	GoodResponse	0	0.028	535.549	4	56	Feedback	Neutral	True
537.976	2.827	Control	0.6842	n/a	Yes	2.827	n/a	n/a	GoodResponse	0	0.0	n/a	4	56	ISIslide	Neutral	True
540.817	0.25	Control	0.6897	0.001	Yes	3.483	0.017	n/a	GoodResponse	0	n/a	n/a	4	57	Cue	Neutral	True
541.068	4.0	Control	0.6897	0.0	Yes	3.483	0.001	n/a	GoodResponse	0	n/a	n/a	4	57	Fixation	Neutral	True
545.063	0.33	Control	0.6897	0.004	Yes	3.483	-0.004	2.0	GoodResponse	0	0.176	544.239	4	57	Target	Neutral	True
545.239	0.3	Control	0.6897	0.004	Yes	3.483	-0.004	2.0	GoodResponse	0	0.176	n/a	4	57	ButtonPress	Neutral	True
545.398	0.37	Control	0.6897	n/a	Yes	3.483	n/a	n/a	GoodResponse	0	n/a	n/a	4	57	Blank	Neutral	True
545.766	1.45	Control	0.6897	n/a	Yes	3.483	n/a	5.0	GoodResponse	0	0.005	544.771	4	57	Feedback	Neutral	True
547.22	3.483	Control	0.6897	n/a	Yes	3.483	n/a	n/a	GoodResponse	0	0.0	n/a	4	57	ISIslide	Neutral	True
550.714	0.25	Win2	0.6949	0.0	Yes	2.736	0.014	n/a	GoodResponse	1	n/a	n/a	5	58	Cue	Win	True
550.964	4.05	Win2	0.6949	0.0	Yes	2.736	0.0	n/a	GoodResponse	1	n/a	n/a	5	58	Fixation	Win	True
555.01	0.32	Win2	0.6949	0.004	Yes	2.736	-0.004	2.0	GoodResponse	1	0.25	554.26	5	58	Target	Win	True
555.26	0.3	Win2	0.6949	0.004	Yes	2.736	-0.004	2.0	GoodResponse	1	0.25	n/a	5	58	ButtonPress	Win	True
555.344	0.38	Win2	0.6949	n/a	Yes	2.736	n/a	n/a	GoodResponse	1	n/a	n/a	5	58	Blank	Win	True
555.712	1.45	Win2	0.6949	n/a	Yes	2.736	n/a	5.0	GoodResponse	1	0.007	554.719	5	58	Feedback	Win	True
557.166	2.736	Win2	0.6949	n/a	Yes	2.736	n/a	n/a	GoodResponse	1	0.0	n/a	5	58	ISIslide	Win	True
559.924	0.25	Lose2	0.7	0.0	Yes	2.676	0.024	n/a	GoodResponse	0	n/a	n/a	5	59	Cue	AvoidedLoss	True
560.175	4.0	Lose2	0.7	0.0	Yes	2.676	0.001	n/a	GoodResponse	0	n/a	n/a	5	59	Fixation	AvoidedLoss	True
564.17	0.31	Lose2	0.7	0.004	Yes	2.676	-0.004	2.0	GoodResponse	0	0.222	563.392	5	59	Target	AvoidedLoss	True
564.392	0.3	Lose2	0.7	0.004	Yes	2.676	-0.004	2.0	GoodResponse	0	0.222	n/a	5	59	ButtonPress	AvoidedLoss	True
564.488	0.39	Lose2	0.7	n/a	Yes	2.676	n/a	n/a	GoodResponse	0	n/a	n/a	5	59	Blank	AvoidedLoss	True
564.873	1.45	Lose2	0.7	n/a	Yes	2.676	n/a	5.0	GoodResponse	0	0.017	563.89	5	59	Feedback	AvoidedLoss	True
566.327	2.676	Lose2	0.7	n/a	Yes	2.676	n/a	n/a	GoodResponse	0	0.0	n/a	5	59	ISIslide	AvoidedLoss	True
569.018	0.25	Control	0.7049	0.0	Yes	2.682	0.018	n/a	GoodResponse	0	n/a	n/a	5	60	Cue	Neutral	True
569.269	4.0	Control	0.7049	0.0	Yes	2.682	0.001	n/a	GoodResponse	0	n/a	n/a	5	60	Fixation	Neutral	True
573.264	0.3	Control	0.7049	0.004	Yes	2.682	-0.004	2.0	GoodResponse	0	0.283	572.547	5	60	Target	Neutral	True
573.547	0.3	Control	0.7049	0.004	Yes	2.682	-0.004	2.0	GoodResponse	0	0.283	n/a	5	60	ButtonPress	Neutral	True
573.565	0.4	Control	0.7049	n/a	Yes	2.682	n/a	n/a	GoodResponse	0	n/a	n/a	5	60	Blank	Neutral	True
573.966	1.45	Control	0.7049	n/a	Yes	2.682	n/a	5.0	GoodResponse	0	0.046	573.012	5	60	Feedback	Neutral	True
575.421	2.682	Control	0.7049	n/a	Yes	2.682	n/a	n/a	GoodResponse	0	0.0	n/a	5	60	ISIslide	Neutral	True
578.129	0.25	Lose2	0.7097	0.0	Yes	2.971	0.029	n/a	GoodResponse	0	n/a	n/a	5	61	Cue	AvoidedLoss	True
578.379	4.0	Lose2	0.7097	0.001	Yes	2.971	0.0	n/a	GoodResponse	0	n/a	n/a	5	61	Fixation	AvoidedLoss	True
582.375	0.29	Lose2	0.7097	0.004	Yes	2.971	-0.004	2.0	GoodResponse	0	0.178	581.553	5	61	Target	AvoidedLoss	True
582.553	0.3	Lose2	0.7097	0.004	Yes	2.971	-0.004	2.0	GoodResponse	0	0.178	n/a	5	61	ButtonPress	AvoidedLoss	True
582.676	0.41	Lose2	0.7097	n/a	Yes	2.971	n/a	n/a	GoodResponse	0	n/a	n/a	5	61	Blank	AvoidedLoss	True
583.077	1.45	Lose2	0.7097	n/a	Yes	2.971	n/a	5.0	GoodResponse	0	0.008	582.085	5	61	Feedback	AvoidedLoss	True
584.531	2.971	Lose2	0.7097	n/a	Yes	2.971	n/a	n/a	GoodResponse	0	0.0	n/a	5	61	ISIslide	AvoidedLoss	True
587.523	0.25	Lose2	0.7143	0.0	Yes	2.877	0.023	n/a	GoodResponse	0	n/a	n/a	5	62	Cue	AvoidedLoss	True
587.774	3.9	Lose2	0.7143	0.0	Yes	2.877	0.001	n/a	GoodResponse	0	n/a	n/a	5	62	Fixation	AvoidedLoss	True
591.669	0.28	Lose2	0.7143	0.004	Yes	2.877	-0.004	2.0	GoodResponse	0	0.182	590.851	5	62	Target	AvoidedLoss	True
591.851	0.3	Lose2	0.7143	0.004	Yes	2.877	-0.004	2.0	GoodResponse	0	0.182	n/a	5	62	ButtonPress	AvoidedLoss	True
591.953	0.42	Lose2	0.7143	n/a	Yes	2.877	n/a	n/a	GoodResponse	0	n/a	n/a	5	62	Blank	AvoidedLoss	True
592.371	1.45	Lose2	0.7143	n/a	Yes	2.877	n/a	5.0	GoodResponse	0	0.03	591.401	5	62	Feedback	AvoidedLoss	True
593.826	2.877	Lose2	0.7143	n/a	Yes	2.877	n/a	n/a	GoodResponse	0	0.0	n/a	5	62	ISIslide	AvoidedLoss	True
596.718	0.25	Lose2	0.7188	0.0	Yes	2.632	0.018	n/a	GoodResponse	0	n/a	n/a	5	63	Cue	AvoidedLoss	True
596.968	4.05	Lose2	0.7188	0.0	Yes	2.632	0.0	n/a	GoodResponse	0	n/a	n/a	5	63	Fixation	AvoidedLoss	True
601.014	0.27	Lose2	0.7188	0.004	Yes	2.632	-0.004	2.0	GoodResponse	0	0.187	600.201	5	63	Target	AvoidedLoss	True
601.201	0.3	Lose2	0.7188	0.004	Yes	2.632	-0.004	2.0	GoodResponse	0	0.187	n/a	5	63	ButtonPress	AvoidedLoss	True
601.298	0.43	Lose2	0.7188	n/a	Yes	2.632	n/a	n/a	GoodResponse	0	n/a	n/a	5	63	Blank	AvoidedLoss	True
601.716	1.45	Lose2	0.7188	n/a	Yes	2.632	n/a	5.0	GoodResponse	0	0.002	600.718	5	63	Feedback	AvoidedLoss	True
603.17	2.632	Lose2	0.7188	n/a	Yes	2.632	n/a	n/a	GoodResponse	0	0.0	n/a	5	63	ISIslide	AvoidedLoss	True
605.828	0.25	Win2	0.7231000000000001	0.0	Yes	3.122	0.028	n/a	GoodResponse	1	n/a	n/a	6	64	Cue	Win	True
606.079	4.15	Win2	0.7231000000000001	0.0	Yes	3.122	0.001	n/a	GoodResponse	1	n/a	n/a	6	64	Fixation	Win	True
610.224	0.26	Win2	0.7231000000000001	0.004	Yes	3.122	-0.004	2.0	GoodResponse	1	0.222	609.446	6	64	Target	Win	True
610.446	0.3	Win2	0.7231000000000001	0.004	Yes	3.122	-0.004	2.0	GoodResponse	1	0.222	n/a	6	64	ButtonPress	Win	True
610.492	0.44	Win2	0.7231000000000001	n/a	Yes	3.122	n/a	n/a	GoodResponse	1	n/a	n/a	6	64	Blank	Win	True
610.927	1.45	Win2	0.7231000000000001	n/a	Yes	3.122	n/a	5.0	GoodResponse	1	0.011	609.938	6	64	Feedback	Win	True
612.381	3.122	Win2	0.7231000000000001	n/a	Yes	3.122	n/a	n/a	GoodResponse	1	0.0	n/a	6	64	ISIslide	Win	True
615.524	0.25	Control	0.7273000000000001	0.0	Yes	2.776	0.024	n/a	GoodResponse	0	n/a	n/a	6	65	Cue	Neutral	True
615.774	4.0	Control	0.7273000000000001	0.0	Yes	2.776	0.0	n/a	GoodResponse	0	n/a	n/a	6	65	Fixation	Neutral	True
619.77	0.25	Control	0.7273000000000001	0.004	Yes	2.776	-0.004	2.0	GoodResponse	0	0.212	618.982	6	65	Target	Neutral	True
619.982	0.3	Control	0.7273000000000001	0.004	Yes	2.776	-0.004	2.0	GoodResponse	0	0.212	n/a	6	65	ButtonPress	Neutral	True
620.02	0.45	Control	0.7273000000000001	n/a	Yes	2.776	n/a	n/a	GoodResponse	0	n/a	n/a	6	65	Blank	Neutral	True
620.472	1.45	Control	0.7273000000000001	n/a	Yes	2.776	n/a	5.0	GoodResponse	0	0.026	619.498	6	65	Feedback	Neutral	True
621.926	2.776	Control	0.7273000000000001	n/a	Yes	2.776	n/a	n/a	GoodResponse	0	0.0	n/a	6	65	ISIslide	Neutral	True
624.718	0.25	Win2	0.7313	0.0	Yes	2.782	0.018	n/a	GoodResponse	1	n/a	n/a	7	66	Cue	Win	True
624.968	3.9	Win2	0.7313	0.001	Yes	2.782	0.0	n/a	GoodResponse	1	n/a	n/a	7	66	Fixation	Win	True
628.88	0.24	Win2	0.7313	0.0	Yes	2.782	0.012	2.0	GoodResponse	1	0.226	628.106	7	66	Target	Win	True
629.106	0.3	Win2	0.7313	0.0	Yes	2.782	0.012	2.0	GoodResponse	1	0.226	n/a	7	66	ButtonPress	Win	True
629.114	0.46	Win2	0.7313	n/a	Yes	2.782	n/a	n/a	GoodResponse	1	n/a	n/a	7	66	Blank	Win	True
629.566	1.45	Win2	0.7313	n/a	Yes	2.782	n/a	5.0	GoodResponse	1	0.008	628.574	7	66	Feedback	Win	True
631.02	2.782	Win2	0.7313	n/a	Yes	2.782	n/a	n/a	GoodResponse	1	0.0	n/a	7	66	ISIslide	Win	True
633.828	0.25	Control	0.7353000000000001	0.0	Yes	2.722	0.028	n/a	GoodResponse	0	n/a	n/a	7	67	Cue	Neutral	True
634.079	3.95	Control	0.7353000000000001	0.0	Yes	2.722	0.001	n/a	GoodResponse	0	n/a	n/a	7	67	Fixation	Neutral	True
638.024	0.23	Control	0.7353000000000001	0.004	Yes	2.722	-0.004	2.0	GoodResponse	0	0.182	637.206	7	67	Target	Neutral	True
638.206	0.3	Control	0.7353000000000001	0.004	Yes	2.722	-0.004	2.0	GoodResponse	0	0.182	n/a	7	67	ButtonPress	Neutral	True
638.258	0.47	Control	0.7353000000000001	n/a	Yes	2.722	n/a	n/a	GoodResponse	0	n/a	n/a	7	67	Blank	Neutral	True
638.726	1.45	Control	0.7353000000000001	n/a	Yes	2.722	n/a	5.0	GoodResponse	0	0.016	637.742	7	67	Feedback	Neutral	True
640.18	2.722	Control	0.7353000000000001	n/a	Yes	2.722	n/a	n/a	GoodResponse	0	0.0	n/a	7	67	ISIslide	Neutral	True
642.922	0.25	Win2	0.7391	0.0	Yes	3.078	0.022	n/a	GoodResponse	1	n/a	n/a	8	68	Cue	Win	True
643.173	4.0	Win2	0.7391	0.0	Yes	3.078	0.001	n/a	GoodResponse	1	n/a	n/a	8	68	Fixation	Win	True
647.168	0.22	Win2	0.7391	0.004	Yes	3.078	-0.004	2.0	GoodResponse	1	0.187	646.355	8	68	Target	Win	True
647.355	0.3	Win2	0.7391	0.004	Yes	3.078	-0.004	2.0	GoodResponse	1	0.187	n/a	8	68	ButtonPress	Win	True
647.402	0.48	Win2	0.7391	n/a	Yes	3.078	n/a	n/a	GoodResponse	1	n/a	n/a	8	68	Blank	Win	True
647.87	1.45	Win2	0.7391	n/a	Yes	3.078	n/a	5.0	GoodResponse	1	0.043	646.913	8	68	Feedback	Win	True
649.324	3.078	Win2	0.7391	n/a	Yes	3.078	n/a	n/a	GoodResponse	1	0.0	n/a	8	68	ISIslide	Win	True
652.417	0.25	Win2	0.7429000000000001	0.0	Yes	3.233	0.017	n/a	GoodResponse	1	n/a	n/a	9	69	Cue	Win	True
652.668	3.95	Win2	0.7429000000000001	0.0	Yes	3.233	0.001	n/a	GoodResponse	1	n/a	n/a	9	69	Fixation	Win	True
656.613	0.21	Win2	0.7429000000000001	0.004	Yes	3.233	-0.004	2.0	GoodResponse	1	0.165	655.778	9	69	Target	Win	True
656.778	0.3	Win2	0.7429000000000001	0.004	Yes	3.233	-0.004	2.0	GoodResponse	1	0.165	n/a	9	69	ButtonPress	Win	True
656.83	0.49	Win2	0.7429000000000001	n/a	Yes	3.233	n/a	n/a	GoodResponse	1	n/a	n/a	9	69	Blank	Win	True
657.315	1.45	Win2	0.7429000000000001	n/a	Yes	3.233	n/a	5.0	GoodResponse	1	0.011	656.326	9	69	Feedback	Win	True
658.769	3.233	Win2	0.7429000000000001	n/a	Yes	3.233	n/a	n/a	GoodResponse	1	0.0	n/a	9	69	ISIslide	Win	True
662.029	0.25	Lose2	0.7465	0.0	Yes	3.021	0.029	n/a	GoodResponse	0	n/a	n/a	9	70	Cue	AvoidedLoss	True
662.28	4.05	Lose2	0.7465	0.0	Yes	3.021	0.001	n/a	GoodResponse	0	n/a	n/a	9	70	Fixation	AvoidedLoss	True
666.325	0.2	Lose2	0.7465	0.004	Yes	3.021	-0.004	2.0	GoodResponse	0	0.186	665.511	9	70	Target	AvoidedLoss	True
666.511	0.3	Lose2	0.7465	0.004	Yes	3.021	-0.004	2.0	GoodResponse	0	0.186	n/a	9	70	ButtonPress	AvoidedLoss	True
666.526	0.5	Lose2	0.7465	n/a	Yes	3.021	n/a	n/a	GoodResponse	0	n/a	n/a	9	70	Blank	AvoidedLoss	True
667.027	1.45	Lose2	0.7465	n/a	Yes	3.021	n/a	5.0	GoodResponse	0	0.007	666.034	9	70	Feedback	AvoidedLoss	True
668.482	3.021	Lose2	0.7465	n/a	Yes	3.021	n/a	n/a	GoodResponse	0	0.0	n/a	9	70	ISIslide	AvoidedLoss	True
671.524	0.25	Win2	0.7361	0.0	No	2.726	0.024	n/a	LatePress	0	n/a	n/a	9	71	Cue	MissedWin	True
671.775	4.05	Win2	0.7361	0.0	No	2.726	0.001	n/a	LatePress	0	n/a	n/a	9	71	Fixation	MissedWin	True
675.82	0.19	Win2	0.7361	0.004	No	2.726	-0.004	2.0	LatePress	0	0.191	675.011	9	71	Target	MissedWin	True
676.011	0.3	Win2	0.7361	0.004	No	2.726	-0.004	2.0	LatePress	0	0.191	n/a	9	71	ButtonPress	MissedWin	True
676.021	0.51	Win2	0.7361	n/a	No	2.726	n/a	n/a	LatePress	0	n/a	n/a	9	71	Blank	MissedWin	True
676.522	1.45	Win2	0.7361	n/a	No	2.726	n/a	5.0	LatePress	0	0.024	675.546	9	71	Feedback	MissedWin	True
677.977	2.726	Win2	0.7361	n/a	No	2.726	n/a	n/a	LatePress	0	0.0	n/a	9	71	ISIslide	MissedWin	True
680.718	0.25	Win2	0.726	0.0	No	2.782	0.018	n/a	PrematurePress	0	n/a	n/a	9	72	Cue	MissedWin	True
680.969	4.1	Win2	0.726	0.0	No	2.782	0.001	n/a	PrematurePress	0	n/a	n/a	9	72	Fixation	MissedWin	True
685.064	0.18	Win2	0.726	0.004	No	2.782	-0.004	2.0	PrematurePress	0	0.086	684.15	9	72	Target	MissedWin	True
685.15	0.3	Win2	0.726	0.004	No	2.782	-0.004	2.0	PrematurePress	0	0.086	n/a	9	72	ButtonPress	MissedWin	True
685.248	0.52	Win2	0.726	n/a	No	2.782	n/a	n/a	PrematurePress	0	n/a	n/a	9	72	Blank	MissedWin	True
685.766	1.45	Win2	0.726	n/a	No	2.782	n/a	5.0	PrematurePress	0	0.047	684.813	9	72	Feedback	MissedWin	True
687.221	2.782	Win2	0.726	n/a	No	2.782	n/a	n/a	PrematurePress	0	0.0	n/a	9	72	ISIslide	MissedWin	True
690.029	0.25	Win2	0.7162000000000001	0.0	No	2.671	0.029	n/a	LatePress	0	n/a	n/a	9	73	Cue	MissedWin	True
690.28	4.0	Win2	0.7162000000000001	0.0	No	2.671	0.001	n/a	LatePress	0	n/a	n/a	9	73	Fixation	MissedWin	True
694.275	0.17	Win2	0.7162000000000001	0.004	No	2.671	-0.004	2.0	LatePress	0	0.173	693.448	9	73	Target	MissedWin	True
694.448	0.3	Win2	0.7162000000000001	0.004	No	2.671	-0.004	2.0	LatePress	0	0.173	n/a	9	73	ButtonPress	MissedWin	True
694.459	0.53	Win2	0.7162000000000001	n/a	No	2.671	n/a	n/a	LatePress	0	n/a	n/a	9	73	Blank	MissedWin	True
694.977	1.45	Win2	0.7162000000000001	n/a	No	2.671	n/a	5.0	LatePress	0	0.007	693.984	9	73	Feedback	MissedWin	True
696.432	2.671	Win2	0.7162000000000001	n/a	No	2.671	n/a	n/a	LatePress	0	0.0	n/a	9	73	ISIslide	MissedWin	True
699.123	0.25	Lose2	0.72	0.0	Yes	2.627	0.023	n/a	GoodResponse	0	n/a	n/a	9	74	Cue	AvoidedLoss	True
699.374	4.05	Lose2	0.72	0.0	Yes	2.627	0.001	n/a	GoodResponse	0	n/a	n/a	9	74	Fixation	AvoidedLoss	True
703.419	0.16	Lose2	0.72	0.004	Yes	2.627	-0.004	2.0	GoodResponse	0	0.11	702.529	9	74	Target	AvoidedLoss	True
703.529	0.3	Lose2	0.72	0.004	Yes	2.627	-0.004	2.0	GoodResponse	0	0.11	n/a	9	74	ButtonPress	AvoidedLoss	True
703.586	0.54	Lose2	0.72	n/a	Yes	2.627	n/a	n/a	GoodResponse	0	n/a	n/a	9	74	Blank	AvoidedLoss	True
704.121	1.45	Lose2	0.72	n/a	Yes	2.627	n/a	5.0	GoodResponse	0	0.034	703.155	9	74	Feedback	AvoidedLoss	True
705.576	2.627	Lose2	0.72	n/a	Yes	2.627	n/a	n/a	GoodResponse	0	0.0	n/a	9	74	ISIslide	AvoidedLoss	True
708.217	0.25	Lose2	0.7105	0.0	No	2.933	0.017	n/a	NoResponse	-1	n/a	n/a	8	75	Cue	Loss	True
708.468	3.95	Lose2	0.7105	0.0	No	2.933	0.001	n/a	NoResponse	-1	n/a	n/a	8	75	Fixation	Loss	True
712.413	0.15	Lose2	0.7105	0.004	No	2.933	-0.004	2.0	NoResponse	-1	0.161	711.574	8	75	Target	Loss	True
712.563	0.55	Lose2	0.7105	n/a	No	2.933	n/a	n/a	NoResponse	-1	n/a	n/a	8	75	Blank	Loss	True
712.574	0.3	Lose2	0.7105	0.004	No	2.933	-0.004	2.0	NoResponse	-1	0.161	n/a	8	75	ButtonPress	Loss	True
713.115	1.45	Lose2	0.7105	n/a	No	2.933	n/a	5.0	NoResponse	-1	0.016	712.131	8	75	Feedback	Loss	True
714.569	2.933	Lose2	0.7105	n/a	No	2.933	n/a	n/a	NoResponse	-1	0.0	n/a	8	75	ISIslide	Loss	True
717.528	0.25	Control	0.7012999999999999	0.0	No	3.222	0.028	n/a	NoResponse	0	n/a	n/a	8	76	Cue	Neutral	True
717.779	4.05	Control	0.7012999999999999	0.0	No	3.222	0.001	n/a	NoResponse	0	n/a	n/a	8	76	Fixation	Neutral	True
721.824	0.15	Control	0.7012999999999999	0.004	No	3.222	-0.004	2.0	NoResponse	0	0.188	721.012	8	76	Target	Neutral	True
721.974	0.55	Control	0.7012999999999999	n/a	No	3.222	n/a	n/a	NoResponse	0	n/a	n/a	8	76	Blank	Neutral	True
722.012	0.3	Control	0.7012999999999999	0.004	No	3.222	-0.004	2.0	NoResponse	0	0.188	n/a	8	76	ButtonPress	Neutral	True
722.526	1.45	Control	0.7012999999999999	n/a	No	3.222	n/a	5.0	NoResponse	0	0.019	721.545	8	76	Feedback	Neutral	True
723.98	3.222	Control	0.7012999999999999	n/a	No	3.222	n/a	n/a	NoResponse	0	0.0	n/a	8	76	ISIslide	Neutral	True
727.223	0.25	Lose2	0.6923	0.001	No	2.577	0.023	n/a	NoResponse	-1	n/a	n/a	7	77	Cue	Loss	True
727.474	3.95	Lose2	0.6923	0.0	No	2.577	0.001	n/a	NoResponse	-1	n/a	n/a	7	77	Fixation	Loss	True
731.419	0.15	Lose2	0.6923	0.004	No	2.577	-0.004	2.0	NoResponse	-1	0.182	730.601	7	77	Target	Loss	True
731.57	0.55	Lose2	0.6923	n/a	No	2.577	n/a	n/a	NoResponse	-1	n/a	n/a	7	77	Blank	Loss	True
731.601	0.3	Lose2	0.6923	0.004	No	2.577	-0.004	2.0	NoResponse	-1	0.182	n/a	7	77	ButtonPress	Loss	True
732.121	1.45	Lose2	0.6923	n/a	No	2.577	n/a	5.0	NoResponse	-1	0.033	731.154	7	77	Feedback	Loss	True
733.576	2.577	Lose2	0.6923	n/a	No	2.577	n/a	n/a	NoResponse	-1	0.0	n/a	7	77	ISIslide	Loss	True
