onset	duration	cue_type	current_mean_accuracy	duration_error	is_hit	isi_adjusted	onset_delay	response	response_type	reward	rt	rt_time	total_reward	trial_number	trial_phase	trial_type	one_press
11.11	0.25	Control	1.0	0.0	Yes	2.94	0.01	n/a	GoodResponse	0	n/a	n/a	0	0	Cue	Neutral	True
11.36	3.85	Control	1.0	0.0	Yes	2.94	0.0	n/a	GoodResponse	0	n/a	n/a	0	0	Fixation	Neutral	True
15.222	0.4	Control	1.0	0.0	Yes	2.94	0.012	4.0	GoodResponse	0	0.225	14.447	0	0	Target	Neutral	True
15.447	0.3	Control	1.0	0.0	Yes	2.94	0.012	4.0	GoodResponse	0	0.225	n/a	0	0	ButtonPress	Neutral	True
15.606	0.3	Control	1.0	n/a	Yes	2.94	n/a	n/a	GoodResponse	0	n/a	n/a	0	0	Blank	Neutral	True
15.907	1.45	Control	1.0	n/a	Yes	2.94	n/a	5.0	GoodResponse	0	0.019	14.926	0	0	Feedback	Neutral	True
17.362	2.94	Control	1.0	n/a	Yes	2.94	n/a	n/a	GoodResponse	0	0.0	n/a	0	0	ISIslide	Neutral	True
20.32	0.25	Lose2	1.0	0.001	Yes	2.78	0.02	n/a	GoodResponse	0	n/a	n/a	0	1	Cue	AvoidedLoss	True
20.571	4.0	Lose2	1.0	0.0	Yes	2.78	0.001	n/a	GoodResponse	0	n/a	n/a	0	1	Fixation	AvoidedLoss	True
24.566	0.39	Lose2	1.0	0.004	Yes	2.78	-0.004	4.0	GoodResponse	0	0.323	23.889	0	1	Target	AvoidedLoss	True
24.889	0.3	Lose2	1.0	0.004	Yes	2.78	-0.004	4.0	GoodResponse	0	0.323	n/a	0	1	ButtonPress	AvoidedLoss	True
24.968	0.31	Lose2	1.0	n/a	Yes	2.78	n/a	n/a	GoodResponse	0	n/a	n/a	0	1	Blank	AvoidedLoss	True
25.268	1.45	Lose2	1.0	n/a	Yes	2.78	n/a	5.0	GoodResponse	0	0.024	24.292	0	1	Feedback	AvoidedLoss	True
26.723	2.78	Lose2	1.0	n/a	Yes	2.78	n/a	n/a	GoodResponse	0	0.0	n/a	0	1	ISIslide	AvoidedLoss	True
29.515	0.25	Control	1.0	0.0	Yes	2.585	0.015	n/a	GoodResponse	0	n/a	n/a	0	2	Cue	Neutral	True
29.765	4.1	Control	1.0	0.0	Yes	2.585	0.0	n/a	GoodResponse	0	n/a	n/a	0	2	Fixation	Neutral	True
33.861	0.38	Control	1.0	0.004	Yes	2.585	-0.004	4.0	GoodResponse	0	0.246	33.107	0	2	Target	Neutral	True
34.107	0.3	Control	1.0	0.004	Yes	2.585	-0.004	4.0	GoodResponse	0	0.246	n/a	0	2	ButtonPress	Neutral	True
34.245	0.32	Control	1.0	n/a	Yes	2.585	n/a	n/a	GoodResponse	0	n/a	n/a	0	2	Blank	Neutral	True
34.563	1.45	Control	1.0	n/a	Yes	2.585	n/a	5.0	GoodResponse	0	0.046	33.609	0	2	Feedback	Neutral	True
36.017	2.585	Control	1.0	n/a	Yes	2.585	n/a	n/a	GoodResponse	0	0.0	n/a	0	2	ISIslide	Neutral	True
38.625	0.25	Win2	1.0	0.0	Yes	2.825	0.025	n/a	GoodResponse	1	n/a	n/a	1	3	Cue	Win	True
38.876	3.95	Win2	1.0	0.0	Yes	2.825	0.001	n/a	GoodResponse	1	n/a	n/a	1	3	Fixation	Win	True
42.821	0.37	Win2	1.0	0.004	Yes	2.825	-0.004	4.0	GoodResponse	1	0.327	42.148	1	3	Target	Win	True
43.148	0.3	Win2	1.0	0.004	Yes	2.825	-0.004	4.0	GoodResponse	1	0.327	n/a	1	3	ButtonPress	Win	True
43.205	0.33	Win2	1.0	n/a	Yes	2.825	n/a	n/a	GoodResponse	1	n/a	n/a	1	3	Blank	Win	True
43.523	1.45	Win2	1.0	n/a	Yes	2.825	n/a	5.0	GoodResponse	1	0.013	42.536	1	3	Feedback	Win	True
44.977	2.825	Win2	1.0	n/a	Yes	2.825	n/a	n/a	GoodResponse	1	0.0	n/a	1	3	ISIslide	Win	True
47.819	0.25	Win2	1.0	0.0	Yes	3.281	0.019	n/a	GoodResponse	1	n/a	n/a	2	4	Cue	Win	True
48.07	4.0	Win2	1.0	0.0	Yes	3.281	0.001	n/a	GoodResponse	1	n/a	n/a	2	4	Fixation	Win	True
52.065	0.36	Win2	1.0	0.004	Yes	3.281	-0.004	4.0	GoodResponse	1	0.245	51.31	2	4	Target	Win	True
52.31	0.3	Win2	1.0	0.004	Yes	3.281	-0.004	4.0	GoodResponse	1	0.245	n/a	2	4	ButtonPress	Win	True
52.433	0.34	Win2	1.0	n/a	Yes	3.281	n/a	n/a	GoodResponse	1	n/a	n/a	2	4	Blank	Win	True
52.767	1.45	Win2	1.0	n/a	Yes	3.281	n/a	5.0	GoodResponse	1	0.036	51.803	2	4	Feedback	Win	True
54.222	3.281	Win2	1.0	n/a	Yes	3.281	n/a	n/a	GoodResponse	1	0.0	n/a	2	4	ISIslide	Win	True
57.515	0.25	Win2	0.8332999999999999	0.0	No	2.785	0.015	n/a	NoResponse	0	n/a	n/a	2	5	Cue	MissedWin	False
57.766	4.0	Win2	0.8332999999999999	0.0	No	2.785	0.001	n/a	NoResponse	0	n/a	n/a	2	5	Fixation	MissedWin	False
61.761	0.35	Win2	0.8332999999999999	0.004	No	2.785	-0.004	n/a	NoResponse	0	n/a	n/a	2	5	Target	MissedWin	False
62.112	0.35	Win2	0.8332999999999999	n/a	No	2.785	n/a	n/a	NoResponse	0	n/a	n/a	2	5	Blank	MissedWin	False
62.463	1.45	Win2	0.8332999999999999	n/a	No	2.785	n/a	5.0	NoResponse	0	0.048	61.511	2	5	Feedback	MissedWin	False
63.917	2.785	Win2	0.8332999999999999	n/a	No	2.785	n/a	n/a	NoResponse	0	0.0	n/a	2	5	ISIslide	MissedWin	False
66.726	0.25	Lose2	0.8571	0.0	Yes	2.724	0.026	n/a	GoodResponse	0	n/a	n/a	2	6	Cue	AvoidedLoss	True
66.976	3.95	Lose2	0.8571	0.0	Yes	2.724	0.0	n/a	GoodResponse	0	n/a	n/a	2	6	Fixation	AvoidedLoss	True
70.922	0.34	Lose2	0.8571	0.004	Yes	2.724	-0.004	4.0	GoodResponse	0	0.257	70.179	2	6	Target	AvoidedLoss	True
71.179	0.3	Lose2	0.8571	0.004	Yes	2.724	-0.004	4.0	GoodResponse	0	0.257	n/a	2	6	ButtonPress	AvoidedLoss	True
71.273	0.36	Lose2	0.8571	n/a	Yes	2.724	n/a	n/a	GoodResponse	0	n/a	n/a	2	6	Blank	AvoidedLoss	True
71.624	1.45	Lose2	0.8571	n/a	Yes	2.724	n/a	5.0	GoodResponse	0	0.009	70.633	2	6	Feedback	AvoidedLoss	True
73.078	2.724	Lose2	0.8571	n/a	Yes	2.724	n/a	n/a	GoodResponse	0	0.0	n/a	2	6	ISIslide	AvoidedLoss	True
75.819	0.25	Lose2	0.875	0.001	Yes	4.031	0.019	n/a	GoodResponse	0	n/a	n/a	2	7	Cue	AvoidedLoss	True
76.07	4.05	Lose2	0.875	0.0	Yes	4.031	0.001	n/a	GoodResponse	0	n/a	n/a	2	7	Fixation	AvoidedLoss	True
80.116	0.33	Lose2	0.875	0.003	Yes	4.031	-0.003	4.0	GoodResponse	0	0.221	79.337	2	7	Target	AvoidedLoss	True
80.337	0.3	Lose2	0.875	0.003	Yes	4.031	-0.003	4.0	GoodResponse	0	0.221	n/a	2	7	ButtonPress	AvoidedLoss	True
80.45	0.37	Lose2	0.875	n/a	Yes	4.031	n/a	n/a	GoodResponse	0	n/a	n/a	2	7	Blank	AvoidedLoss	True
80.818	1.45	Lose2	0.875	n/a	Yes	4.031	n/a	5.0	GoodResponse	0	0.034	79.852	2	7	Feedback	AvoidedLoss	True
82.272	4.031	Lose2	0.875	n/a	Yes	4.031	n/a	n/a	GoodResponse	0	0.0	n/a	2	7	ISIslide	AvoidedLoss	True
86.317	0.25	Lose2	0.8889	0.001	Yes	3.033	0.017	n/a	GoodResponse	0	n/a	n/a	2	8	Cue	AvoidedLoss	True
86.568	3.95	Lose2	0.8889	0.0	Yes	3.033	0.001	n/a	GoodResponse	0	n/a	n/a	2	8	Fixation	AvoidedLoss	True
90.513	0.32	Lose2	0.8889	0.004	Yes	3.033	-0.004	4.0	GoodResponse	0	0.245	89.758	2	8	Target	AvoidedLoss	True
90.758	0.3	Lose2	0.8889	0.004	Yes	3.033	-0.004	4.0	GoodResponse	0	0.245	n/a	2	8	ButtonPress	AvoidedLoss	True
90.848	0.38	Lose2	0.8889	n/a	Yes	3.033	n/a	n/a	GoodResponse	0	n/a	n/a	2	8	Blank	AvoidedLoss	True
91.215	1.45	Lose2	0.8889	n/a	Yes	3.033	n/a	5.0	GoodResponse	0	0.027	90.242	2	8	Feedback	AvoidedLoss	True
92.67	3.033	Lose2	0.8889	n/a	Yes	3.033	n/a	n/a	GoodResponse	0	0.0	n/a	2	8	ISIslide	AvoidedLoss	True
95.729	0.25	Lose2	0.9	0.0	Yes	3.121	0.029	n/a	GoodResponse	0	n/a	n/a	2	9	Cue	AvoidedLoss	True
95.98	3.95	Lose2	0.9	0.0	Yes	3.121	0.001	n/a	GoodResponse	0	n/a	n/a	2	9	Fixation	AvoidedLoss	True
99.925	0.31	Lose2	0.9	0.004	Yes	3.121	-0.004	4.0	GoodResponse	0	0.246	99.171	2	9	Target	AvoidedLoss	True
100.171	0.3	Lose2	0.9	0.004	Yes	3.121	-0.004	4.0	GoodResponse	0	0.246	n/a	2	9	ButtonPress	AvoidedLoss	True
100.242	0.39	Lose2	0.9	n/a	Yes	3.121	n/a	n/a	GoodResponse	0	n/a	n/a	2	9	Blank	AvoidedLoss	True
100.627	1.45	Lose2	0.9	n/a	Yes	3.121	n/a	5.0	GoodResponse	0	0.029	99.656	2	9	Feedback	AvoidedLoss	True
102.081	3.121	Lose2	0.9	n/a	Yes	3.121	n/a	n/a	GoodResponse	0	0.0	n/a	2	9	ISIslide	AvoidedLoss	True
105.224	0.25	Control	0.9091	0.0	Yes	3.276	0.024	n/a	GoodResponse	0	n/a	n/a	2	10	Cue	Neutral	True
105.475	4.0	Control	0.9091	0.0	Yes	3.276	0.001	n/a	GoodResponse	0	n/a	n/a	2	10	Fixation	Neutral	True
109.47	0.3	Control	0.9091	0.004	Yes	3.276	-0.004	4.0	GoodResponse	0	0.208	108.678	2	10	Target	Neutral	True
109.678	0.3	Control	0.9091	0.004	Yes	3.276	-0.004	4.0	GoodResponse	0	0.208	n/a	2	10	ButtonPress	Neutral	True
109.771	0.4	Control	0.9091	n/a	Yes	3.276	n/a	n/a	GoodResponse	0	n/a	n/a	2	10	Blank	Neutral	True
110.172	1.45	Control	0.9091	n/a	Yes	3.276	n/a	5.0	GoodResponse	0	0.045	109.217	2	10	Feedback	Neutral	True
111.626	3.276	Control	0.9091	n/a	Yes	3.276	n/a	n/a	GoodResponse	0	0.0	n/a	2	10	ISIslide	Neutral	True
114.92	0.25	Lose2	0.9167000000000001	0.0	Yes	2.73	0.02	n/a	GoodResponse	0	n/a	n/a	2	11	Cue	AvoidedLoss	True
115.17	4.05	Lose2	0.9167000000000001	0.0	Yes	2.73	0.0	n/a	GoodResponse	0	n/a	n/a	2	11	Fixation	AvoidedLoss	True
119.216	0.29	Lose2	0.9167000000000001	0.004	Yes	2.73	-0.004	4.0	GoodResponse	0	0.285	118.501	2	11	Target	AvoidedLoss	True
119.501	0.3	Lose2	0.9167000000000001	0.004	Yes	2.73	-0.004	4.0	GoodResponse	0	0.285	n/a	2	11	ButtonPress	AvoidedLoss	True
119.517	0.41	Lose2	0.9167000000000001	n/a	Yes	2.73	n/a	n/a	GoodResponse	0	n/a	n/a	2	11	Blank	AvoidedLoss	True
119.918	1.45	Lose2	0.9167000000000001	n/a	Yes	2.73	n/a	5.0	GoodResponse	0	0.007	118.925	2	11	Feedback	AvoidedLoss	True
121.372	2.73	Lose2	0.9167000000000001	n/a	Yes	2.73	n/a	n/a	GoodResponse	0	0.0	n/a	2	11	ISIslide	AvoidedLoss	True
124.114	0.25	Control	0.9231	0.0	Yes	2.986	0.014	n/a	GoodResponse	0	n/a	n/a	2	12	Cue	Neutral	True
124.364	3.9	Control	0.9231	0.001	Yes	2.986	0.0	n/a	GoodResponse	0	n/a	n/a	2	12	Fixation	Neutral	True
128.276	0.28	Control	0.9231	0.0	Yes	2.986	0.012	4.0	GoodResponse	0	0.229	127.505	2	12	Target	Neutral	True
128.505	0.3	Control	0.9231	0.0	Yes	2.986	0.012	4.0	GoodResponse	0	0.229	n/a	2	12	ButtonPress	Neutral	True
128.544	0.42	Control	0.9231	n/a	Yes	2.986	n/a	n/a	GoodResponse	0	n/a	n/a	2	12	Blank	Neutral	True
128.962	1.45	Control	0.9231	n/a	Yes	2.986	n/a	5.0	GoodResponse	0	0.035	127.997	2	12	Feedback	Neutral	True
130.416	2.986	Control	0.9231	n/a	Yes	2.986	n/a	n/a	GoodResponse	0	0.0	n/a	2	12	ISIslide	Neutral	True
133.425	0.25	Control	0.9286	0.0	Yes	2.775	0.025	n/a	GoodResponse	0	n/a	n/a	2	13	Cue	Neutral	True
133.676	4.0	Control	0.9286	0.0	Yes	2.775	0.001	n/a	GoodResponse	0	n/a	n/a	2	13	Fixation	Neutral	True
137.671	0.27	Control	0.9286	0.004	Yes	2.775	-0.004	4.0	GoodResponse	0	0.238	136.909	2	13	Target	Neutral	True
137.909	0.3	Control	0.9286	0.004	Yes	2.775	-0.004	4.0	GoodResponse	0	0.238	n/a	2	13	ButtonPress	Neutral	True
137.955	0.43	Control	0.9286	n/a	Yes	2.775	n/a	n/a	GoodResponse	0	n/a	n/a	2	13	Blank	Neutral	True
138.373	1.45	Control	0.9286	n/a	Yes	2.775	n/a	5.0	GoodResponse	0	0.039	137.412	2	13	Feedback	Neutral	True
139.827	2.775	Control	0.9286	n/a	Yes	2.775	n/a	n/a	GoodResponse	0	0.0	n/a	2	13	ISIslide	Neutral	True
142.619	0.25	Win2	0.8667	0.0	No	2.681	0.019	n/a	NoResponse	0	n/a	n/a	2	14	Cue	MissedWin	True
142.87	4.1	Win2	0.8667	0.0	No	2.681	0.001	4.0	NoResponse	0	3.932	145.802	2	14	Fixation	MissedWin	True
146.802	0.3	Win2	0.8667	0.0	No	2.681	0.001	4.0	NoResponse	0	3.932	n/a	2	14	ButtonPress	MissedWin	True
146.965	0.26	Win2	0.8667	0.004	No	2.681	-0.004	n/a	NoResponse	0	n/a	n/a	2	14	Target	MissedWin	True
147.233	0.44	Win2	0.8667	n/a	No	2.681	n/a	n/a	NoResponse	0	n/a	n/a	2	14	Blank	MissedWin	True
147.667	1.45	Win2	0.8667	n/a	No	2.681	n/a	5.0	NoResponse	0	0.013	146.68	2	14	Feedback	MissedWin	True
149.122	2.681	Win2	0.8667	n/a	No	2.681	n/a	n/a	NoResponse	0	0.0	n/a	2	14	ISIslide	MissedWin	True
151.83	0.25	Control	0.8125	0.0	No	2.97	0.03	n/a	NoResponse	0	n/a	n/a	2	15	Cue	Neutral	True
152.081	4.0	Control	0.8125	0.0	No	2.97	0.001	n/a	NoResponse	0	n/a	n/a	2	15	Fixation	Neutral	True
156.076	0.25	Control	0.8125	0.004	No	2.97	-0.004	4.0	NoResponse	0	0.27	155.346	2	15	Target	Neutral	True
156.327	0.45	Control	0.8125	n/a	No	2.97	n/a	n/a	NoResponse	0	n/a	n/a	2	15	Blank	Neutral	True
156.346	0.3	Control	0.8125	0.004	No	2.97	-0.004	4.0	NoResponse	0	0.27	n/a	2	15	ButtonPress	Neutral	True
156.778	1.45	Control	0.8125	n/a	No	2.97	n/a	5.0	NoResponse	0	0.024	155.802	2	15	Feedback	Neutral	True
158.232	2.97	Control	0.8125	n/a	No	2.97	n/a	n/a	NoResponse	0	0.0	n/a	2	15	ISIslide	Neutral	True
161.225	0.25	Win2	0.7646999999999999	0.0	No	2.875	0.025	n/a	LatePress	0	n/a	n/a	2	16	Cue	MissedWin	True
161.475	4.0	Win2	0.7646999999999999	0.0	No	2.875	0.0	n/a	LatePress	0	n/a	n/a	2	16	Fixation	MissedWin	True
165.471	0.24	Win2	0.7646999999999999	0.004	No	2.875	-0.004	4.0	LatePress	0	0.244	164.715	2	16	Target	MissedWin	True
165.715	0.3	Win2	0.7646999999999999	0.004	No	2.875	-0.004	4.0	LatePress	0	0.244	n/a	2	16	ButtonPress	MissedWin	True
165.721	0.46	Win2	0.7646999999999999	n/a	No	2.875	n/a	n/a	LatePress	0	n/a	n/a	2	16	Blank	MissedWin	True
166.173	1.45	Win2	0.7646999999999999	n/a	No	2.875	n/a	5.0	LatePress	0	0.043	165.216	2	16	Feedback	MissedWin	True
167.627	2.875	Win2	0.7646999999999999	n/a	No	2.875	n/a	n/a	LatePress	0	0.0	n/a	2	16	ISIslide	MissedWin	True
170.519	0.25	Lose2	0.7222	0.0	No	2.731	0.019	n/a	NoResponse	-1	n/a	n/a	1	17	Cue	Loss	True
170.77	3.95	Lose2	0.7222	0.0	No	2.731	0.001	n/a	NoResponse	-1	n/a	n/a	1	17	Fixation	Loss	True
174.715	0.23	Lose2	0.7222	0.004	No	2.731	-0.004	4.0	NoResponse	-1	0.252	173.967	1	17	Target	Loss	True
174.949	0.47	Lose2	0.7222	n/a	No	2.731	n/a	n/a	NoResponse	-1	n/a	n/a	1	17	Blank	Loss	True
174.967	0.3	Lose2	0.7222	0.004	No	2.731	-0.004	4.0	NoResponse	-1	0.252	n/a	1	17	ButtonPress	Loss	True
175.417	1.45	Lose2	0.7222	n/a	No	2.731	n/a	5.0	NoResponse	-1	0.019	174.436	1	17	Feedback	Loss	True
176.871	2.731	Lose2	0.7222	n/a	No	2.731	n/a	n/a	NoResponse	-1	0.0	n/a	1	17	ISIslide	Loss	True
179.63	0.25	Lose2	0.6842	0.0	No	2.72	0.03	n/a	NoResponse	-1	n/a	n/a	0	18	Cue	Loss	True
179.88	4.05	Lose2	0.6842	0.0	No	2.72	0.0	n/a	NoResponse	-1	n/a	n/a	0	18	Fixation	Loss	True
183.926	0.22	Lose2	0.6842	0.004	No	2.72	-0.004	4.0	NoResponse	-1	0.241	183.167	0	18	Target	Loss	True
184.16	0.48	Lose2	0.6842	n/a	No	2.72	n/a	n/a	NoResponse	-1	n/a	n/a	0	18	Blank	Loss	True
184.167	0.3	Lose2	0.6842	0.004	No	2.72	-0.004	4.0	NoResponse	-1	0.241	n/a	0	18	ButtonPress	Loss	True
184.628	1.45	Lose2	0.6842	n/a	No	2.72	n/a	5.0	NoResponse	-1	0.027	183.655	0	18	Feedback	Loss	True
186.082	2.72	Lose2	0.6842	n/a	No	2.72	n/a	n/a	NoResponse	-1	0.0	n/a	0	18	ISIslide	Loss	True
188.824	0.25	Control	0.65	0.0	No	2.926	0.024	n/a	NoResponse	0	n/a	n/a	0	19	Cue	Neutral	True
189.074	3.95	Control	0.65	0.0	No	2.926	0.0	n/a	NoResponse	0	n/a	n/a	0	19	Fixation	Neutral	True
193.019	0.21	Control	0.65	0.005	No	2.926	-0.005	4.0	NoResponse	0	0.254	192.273	0	19	Target	Neutral	True
193.237	0.49	Control	0.65	n/a	No	2.926	n/a	n/a	NoResponse	0	n/a	n/a	0	19	Blank	Neutral	True
193.273	0.3	Control	0.65	0.005	No	2.926	-0.005	4.0	NoResponse	0	0.254	n/a	0	19	ButtonPress	Neutral	True
193.722	1.45	Control	0.65	n/a	No	2.926	n/a	5.0	NoResponse	0	0.008	192.73	0	19	Feedback	Neutral	True
195.176	2.926	Control	0.65	n/a	No	2.926	n/a	n/a	NoResponse	0	0.0	n/a	0	19	ISIslide	Neutral	True
198.118	0.25	Control	0.6667000000000001	0.0	Yes	2.632	0.018	n/a	GoodResponse	0	n/a	n/a	0	20	Cue	Neutral	True
198.369	4.05	Control	0.6667000000000001	0.0	Yes	2.632	0.001	n/a	GoodResponse	0	n/a	n/a	0	20	Fixation	Neutral	True
202.414	0.22	Control	0.6667000000000001	0.004	Yes	2.632	-0.004	4.0	GoodResponse	0	0.157	201.571	0	20	Target	Neutral	True
202.571	0.3	Control	0.6667000000000001	0.004	Yes	2.632	-0.004	4.0	GoodResponse	0	0.157	n/a	0	20	ButtonPress	Neutral	True
202.648	0.48	Control	0.6667000000000001	n/a	Yes	2.632	n/a	n/a	GoodResponse	0	n/a	n/a	0	20	Blank	Neutral	True
203.116	1.45	Control	0.6667000000000001	n/a	Yes	2.632	n/a	5.0	GoodResponse	0	0.026	202.142	0	20	Feedback	Neutral	True
204.571	2.632	Control	0.6667000000000001	n/a	Yes	2.632	n/a	n/a	GoodResponse	0	0.0	n/a	0	20	ISIslide	Neutral	True
207.229	0.25	Control	0.6364	0.0	No	2.771	0.029	n/a	NoResponse	0	n/a	n/a	0	21	Cue	Neutral	True
207.479	4.1	Control	0.6364	0.0	No	2.771	0.0	n/a	NoResponse	0	n/a	n/a	0	21	Fixation	Neutral	True
211.575	0.21	Control	0.6364	0.004	No	2.771	-0.004	4.0	NoResponse	0	0.243	210.818	0	21	Target	Neutral	True
211.792	0.49	Control	0.6364	n/a	No	2.771	n/a	n/a	NoResponse	0	n/a	n/a	0	21	Blank	Neutral	True
211.818	0.3	Control	0.6364	0.004	No	2.771	-0.004	4.0	NoResponse	0	0.243	n/a	0	21	ButtonPress	Neutral	True
212.277	1.45	Control	0.6364	n/a	No	2.771	n/a	5.0	NoResponse	0	0.036	211.313	0	21	Feedback	Neutral	True
213.731	2.771	Control	0.6364	n/a	No	2.771	n/a	n/a	NoResponse	0	0.0	n/a	0	21	ISIslide	Neutral	True
216.523	0.25	Control	0.6087	0.0	No	2.777	0.023	n/a	NoResponse	0	n/a	n/a	0	22	Cue	Neutral	True
216.774	4.0	Control	0.6087	0.0	No	2.777	0.001	n/a	NoResponse	0	n/a	n/a	0	22	Fixation	Neutral	True
220.769	0.22	Control	0.6087	0.004	No	2.777	-0.004	4.0	NoResponse	0	0.332	220.101	0	22	Target	Neutral	True
221.003	0.48	Control	0.6087	n/a	No	2.777	n/a	n/a	NoResponse	0	n/a	n/a	0	22	Blank	Neutral	True
221.101	0.3	Control	0.6087	0.004	No	2.777	-0.004	4.0	NoResponse	0	0.332	n/a	0	22	ButtonPress	Neutral	True
221.471	1.45	Control	0.6087	n/a	No	2.777	n/a	5.0	NoResponse	0	0.013	220.484	0	22	Feedback	Neutral	True
222.925	2.777	Control	0.6087	n/a	No	2.777	n/a	n/a	NoResponse	0	0.0	n/a	0	22	ISIslide	Neutral	True
225.717	0.25	Control	0.5832999999999999	0.0	No	2.783	0.017	n/a	NoResponse	0	n/a	n/a	0	23	Cue	Neutral	True
225.968	3.9	Control	0.5832999999999999	0.0	No	2.783	0.001	n/a	NoResponse	0	n/a	n/a	0	23	Fixation	Neutral	True
229.863	0.23	Control	0.5832999999999999	0.004	No	2.783	-0.004	4.0	NoResponse	0	0.289	229.152	0	23	Target	Neutral	True
230.097	0.47	Control	0.5832999999999999	n/a	No	2.783	n/a	n/a	NoResponse	0	n/a	n/a	0	23	Blank	Neutral	True
230.152	0.3	Control	0.5832999999999999	0.004	No	2.783	-0.004	4.0	NoResponse	0	0.289	n/a	0	23	ButtonPress	Neutral	True
230.565	1.45	Control	0.5832999999999999	n/a	No	2.783	n/a	5.0	NoResponse	0	0.041	229.606	0	23	Feedback	Neutral	True
232.019	2.783	Control	0.5832999999999999	n/a	No	2.783	n/a	n/a	NoResponse	0	0.0	n/a	0	23	ISIslide	Neutral	True
234.828	0.25	Win2	0.6	0.0	Yes	3.122	0.028	n/a	GoodResponse	1	n/a	n/a	1	24	Cue	Win	True
235.078	3.95	Win2	0.6	0.0	Yes	3.122	0.0	n/a	GoodResponse	1	n/a	n/a	1	24	Fixation	Win	True
239.024	0.24	Win2	0.6	0.004	Yes	3.122	-0.004	4.0	GoodResponse	1	0.234	238.258	1	24	Target	Win	True
239.258	0.3	Win2	0.6	0.004	Yes	3.122	-0.004	4.0	GoodResponse	1	0.234	n/a	1	24	ButtonPress	Win	True
239.274	0.46	Win2	0.6	n/a	Yes	3.122	n/a	n/a	GoodResponse	1	n/a	n/a	1	24	Blank	Win	True
239.726	1.45	Win2	0.6	n/a	Yes	3.122	n/a	5.0	GoodResponse	1	0.001	238.727	1	24	Feedback	Win	True
241.18	3.122	Win2	0.6	n/a	Yes	3.122	n/a	n/a	GoodResponse	1	0.0	n/a	1	24	ISIslide	Win	True
244.323	0.25	Win2	0.5769	0.0	No	3.077	0.023	n/a	NoResponse	0	n/a	n/a	1	25	Cue	MissedWin	True
244.573	4.0	Win2	0.5769	0.001	No	3.077	0.0	n/a	NoResponse	0	n/a	n/a	1	25	Fixation	MissedWin	True
248.569	0.25	Win2	0.5769	0.004	No	3.077	-0.004	4.0	NoResponse	0	0.288	247.857	1	25	Target	MissedWin	True
248.819	0.45	Win2	0.5769	n/a	No	3.077	n/a	n/a	NoResponse	0	n/a	n/a	1	25	Blank	MissedWin	True
248.857	0.3	Win2	0.5769	0.004	No	3.077	-0.004	4.0	NoResponse	0	0.288	n/a	1	25	ButtonPress	MissedWin	True
249.271	1.45	Win2	0.5769	n/a	No	3.077	n/a	5.0	NoResponse	0	0.017	248.288	1	25	Feedback	MissedWin	True
250.725	3.077	Win2	0.5769	n/a	No	3.077	n/a	n/a	NoResponse	0	0.0	n/a	1	25	ISIslide	MissedWin	True
253.818	0.25	Win2	0.5556	0.0	No	2.932	0.018	n/a	NoResponse	0	n/a	n/a	1	26	Cue	MissedWin	True
254.068	3.95	Win2	0.5556	0.001	No	2.932	0.0	n/a	NoResponse	0	n/a	n/a	1	26	Fixation	MissedWin	True
258.014	0.26	Win2	0.5556	0.004	No	2.932	-0.004	4.0	NoResponse	0	0.277	257.291	1	26	Target	MissedWin	True
258.281	0.44	Win2	0.5556	n/a	No	2.932	n/a	n/a	NoResponse	0	n/a	n/a	1	26	Blank	MissedWin	True
258.291	0.3	Win2	0.5556	0.004	No	2.932	-0.004	4.0	NoResponse	0	0.277	n/a	1	26	ButtonPress	MissedWin	True
258.716	1.45	Win2	0.5556	n/a	No	2.932	n/a	5.0	NoResponse	0	0.036	257.752	1	26	Feedback	MissedWin	True
260.17	2.932	Win2	0.5556	n/a	No	2.932	n/a	n/a	NoResponse	0	0.0	n/a	1	26	ISIslide	MissedWin	True
263.129	0.25	Lose2	0.5714	0.0	Yes	2.821	0.029	n/a	GoodResponse	0	n/a	n/a	1	27	Cue	AvoidedLoss	True
263.38	4.05	Lose2	0.5714	0.0	Yes	2.821	0.001	n/a	GoodResponse	0	n/a	n/a	1	27	Fixation	AvoidedLoss	True
267.425	0.27	Lose2	0.5714	0.004	Yes	2.821	-0.004	4.0	GoodResponse	0	0.176	266.601	1	27	Target	AvoidedLoss	True
267.601	0.3	Lose2	0.5714	0.004	Yes	2.821	-0.004	4.0	GoodResponse	0	0.176	n/a	1	27	ButtonPress	AvoidedLoss	True
267.709	0.43	Lose2	0.5714	n/a	Yes	2.821	n/a	n/a	GoodResponse	0	n/a	n/a	1	27	Blank	AvoidedLoss	True
268.127	1.45	Lose2	0.5714	n/a	Yes	2.821	n/a	5.0	GoodResponse	0	0.039	267.166	1	27	Feedback	AvoidedLoss	True
269.581	2.821	Lose2	0.5714	n/a	Yes	2.821	n/a	n/a	GoodResponse	0	0.0	n/a	1	27	ISIslide	AvoidedLoss	True
272.423	0.25	Control	0.5861999999999999	0.0	Yes	2.827	0.023	n/a	GoodResponse	0	n/a	n/a	1	28	Cue	Neutral	False
272.674	4.05	Control	0.5861999999999999	0.0	Yes	2.827	0.001	4.0	GoodResponse	0	0.068	271.742	1	28	Fixation	Neutral	False
272.742	0.3	Control	0.5861999999999999	0.0	Yes	2.827	0.001	4.0	GoodResponse	0	0.068	n/a	1	28	ButtonPress	Neutral	False
276.719	0.28	Control	0.5861999999999999	0.004	Yes	2.827	-0.004	4.0	GoodResponse	0	0.218	275.937	1	28	Target	Neutral	False
276.937	0.3	Control	0.5861999999999999	0.004	Yes	2.827	-0.004	4.0	GoodResponse	0	0.218	n/a	1	28	ButtonPress	Neutral	False
277.004	0.42	Control	0.5861999999999999	n/a	Yes	2.827	n/a	n/a	GoodResponse	0	n/a	n/a	1	28	Blank	Neutral	False
277.422	1.45	Control	0.5861999999999999	n/a	Yes	2.827	n/a	5.0	GoodResponse	0	0.012	276.434	1	28	Feedback	Neutral	False
278.876	2.827	Control	0.5861999999999999	n/a	Yes	2.827	n/a	n/a	GoodResponse	0	0.0	n/a	1	28	ISIslide	Neutral	False
281.718	0.25	Lose2	0.6	0.0	Yes	2.832	0.018	n/a	GoodResponse	0	n/a	n/a	1	29	Cue	AvoidedLoss	True
281.968	3.95	Lose2	0.6	0.001	Yes	2.832	0.0	n/a	GoodResponse	0	n/a	n/a	1	29	Fixation	AvoidedLoss	True
285.914	0.29	Lose2	0.6	0.004	Yes	2.832	-0.004	4.0	GoodResponse	0	0.255	285.169	1	29	Target	AvoidedLoss	True
286.169	0.3	Lose2	0.6	0.004	Yes	2.832	-0.004	4.0	GoodResponse	0	0.255	n/a	1	29	ButtonPress	AvoidedLoss	True
286.214	0.41	Lose2	0.6	n/a	Yes	2.832	n/a	n/a	GoodResponse	0	n/a	n/a	1	29	Blank	AvoidedLoss	True
286.616	1.45	Lose2	0.6	n/a	Yes	2.832	n/a	5.0	GoodResponse	0	0.037	285.653	1	29	Feedback	AvoidedLoss	True
288.07	2.832	Lose2	0.6	n/a	Yes	2.832	n/a	n/a	GoodResponse	0	0.0	n/a	1	29	ISIslide	AvoidedLoss	True
290.929	0.25	Win2	0.6129	0.0	Yes	2.771	0.029	n/a	GoodResponse	1	n/a	n/a	2	30	Cue	Win	True
291.179	3.9	Win2	0.6129	0.0	Yes	2.771	0.0	n/a	GoodResponse	1	n/a	n/a	2	30	Fixation	Win	True
295.091	0.3	Win2	0.6129	0.0	Yes	2.771	0.012	4.0	GoodResponse	1	0.228	294.319	2	30	Target	Win	True
295.319	0.3	Win2	0.6129	0.0	Yes	2.771	0.012	4.0	GoodResponse	1	0.228	n/a	2	30	ButtonPress	Win	True
295.375	0.4	Win2	0.6129	n/a	Yes	2.771	n/a	n/a	GoodResponse	1	n/a	n/a	2	30	Blank	Win	True
295.776	1.45	Win2	0.6129	n/a	Yes	2.771	n/a	5.0	GoodResponse	1	0.048	294.824	2	30	Feedback	Win	True
297.231	2.771	Win2	0.6129	n/a	Yes	2.771	n/a	n/a	GoodResponse	1	0.0	n/a	2	30	ISIslide	Win	True
300.022	0.25	Lose2	0.625	0.0	Yes	2.828	0.022	n/a	GoodResponse	0	n/a	n/a	2	31	Cue	AvoidedLoss	True
300.273	4.05	Lose2	0.625	0.0	Yes	2.828	0.001	n/a	GoodResponse	0	n/a	n/a	2	31	Fixation	AvoidedLoss	True
304.319	0.31	Lose2	0.625	0.003	Yes	2.828	-0.003	4.0	GoodResponse	0	0.238	303.557	2	31	Target	AvoidedLoss	True
304.557	0.3	Lose2	0.625	0.003	Yes	2.828	-0.003	4.0	GoodResponse	0	0.238	n/a	2	31	ButtonPress	AvoidedLoss	True
304.636	0.39	Lose2	0.625	n/a	Yes	2.828	n/a	n/a	GoodResponse	0	n/a	n/a	2	31	Blank	AvoidedLoss	True
305.021	1.45	Lose2	0.625	n/a	Yes	2.828	n/a	5.0	GoodResponse	0	0.023	304.044	2	31	Feedback	AvoidedLoss	True
306.475	2.828	Lose2	0.625	n/a	Yes	2.828	n/a	n/a	GoodResponse	0	0.0	n/a	2	31	ISIslide	AvoidedLoss	True
309.317	0.25	Lose2	0.6364	0.0	Yes	2.633	0.017	n/a	GoodResponse	0	n/a	n/a	2	32	Cue	AvoidedLoss	True
309.568	4.15	Lose2	0.6364	0.0	Yes	2.633	0.001	n/a	GoodResponse	0	n/a	n/a	2	32	Fixation	AvoidedLoss	True
313.713	0.32	Lose2	0.6364	0.004	Yes	2.633	-0.004	4.0	GoodResponse	0	0.271	312.984	2	32	Target	AvoidedLoss	True
313.984	0.3	Lose2	0.6364	0.004	Yes	2.633	-0.004	4.0	GoodResponse	0	0.271	n/a	2	32	ButtonPress	AvoidedLoss	True
314.048	0.38	Lose2	0.6364	n/a	Yes	2.633	n/a	n/a	GoodResponse	0	n/a	n/a	2	32	Blank	AvoidedLoss	True
314.415	1.45	Lose2	0.6364	n/a	Yes	2.633	n/a	5.0	GoodResponse	0	0.043	313.458	2	32	Feedback	AvoidedLoss	True
315.87	2.633	Lose2	0.6364	n/a	Yes	2.633	n/a	n/a	GoodResponse	0	0.0	n/a	2	32	ISIslide	AvoidedLoss	True
318.528	0.25	Win2	0.6470999999999999	0.0	Yes	2.672	0.028	n/a	GoodResponse	1	n/a	n/a	3	33	Cue	Win	True
318.778	4.0	Win2	0.6470999999999999	0.0	Yes	2.672	0.0	n/a	GoodResponse	1	n/a	n/a	3	33	Fixation	Win	True
322.774	0.33	Win2	0.6470999999999999	0.004	Yes	2.672	-0.004	4.0	GoodResponse	1	0.266	322.04	3	33	Target	Win	True
323.04	0.3	Win2	0.6470999999999999	0.004	Yes	2.672	-0.004	4.0	GoodResponse	1	0.266	n/a	3	33	ButtonPress	Win	True
323.108	0.37	Win2	0.6470999999999999	n/a	Yes	2.672	n/a	n/a	GoodResponse	1	n/a	n/a	3	33	Blank	Win	True
323.476	1.45	Win2	0.6470999999999999	n/a	Yes	2.672	n/a	5.0	GoodResponse	1	0.006	322.482	3	33	Feedback	Win	True
324.93	2.672	Win2	0.6470999999999999	n/a	Yes	2.672	n/a	n/a	GoodResponse	1	0.0	n/a	3	33	ISIslide	Win	True
327.621	0.25	Lose2	0.6570999999999999	0.001	Yes	2.629	0.021	n/a	GoodResponse	0	n/a	n/a	3	34	Cue	AvoidedLoss	True
327.872	4.05	Lose2	0.6570999999999999	0.0	Yes	2.629	0.001	n/a	GoodResponse	0	n/a	n/a	3	34	Fixation	AvoidedLoss	True
331.918	0.34	Lose2	0.6570999999999999	0.003	Yes	2.629	-0.003	4.0	GoodResponse	0	0.243	331.161	3	34	Target	AvoidedLoss	True
332.161	0.3	Lose2	0.6570999999999999	0.003	Yes	2.629	-0.003	4.0	GoodResponse	0	0.243	n/a	3	34	ButtonPress	AvoidedLoss	True
332.269	0.36	Lose2	0.6570999999999999	n/a	Yes	2.629	n/a	n/a	GoodResponse	0	n/a	n/a	3	34	Blank	AvoidedLoss	True
332.62	1.45	Lose2	0.6570999999999999	n/a	Yes	2.629	n/a	5.0	GoodResponse	0	0.033	331.653	3	34	Feedback	AvoidedLoss	True
334.074	2.629	Lose2	0.6570999999999999	n/a	Yes	2.629	n/a	n/a	GoodResponse	0	0.0	n/a	3	34	ISIslide	AvoidedLoss	True
336.715	0.25	Lose2	0.6667000000000001	0.0	Yes	2.685	0.015	n/a	GoodResponse	0	n/a	n/a	3	35	Cue	AvoidedLoss	True
336.966	4.0	Lose2	0.6667000000000001	0.0	Yes	2.685	0.001	n/a	GoodResponse	0	n/a	n/a	3	35	Fixation	AvoidedLoss	True
340.961	0.34	Lose2	0.6667000000000001	0.004	Yes	2.685	-0.004	4.0	GoodResponse	0	0.238	340.199	3	35	Target	AvoidedLoss	True
341.199	0.3	Lose2	0.6667000000000001	0.004	Yes	2.685	-0.004	4.0	GoodResponse	0	0.238	n/a	3	35	ButtonPress	AvoidedLoss	True
341.312	0.36	Lose2	0.6667000000000001	n/a	Yes	2.685	n/a	n/a	GoodResponse	0	n/a	n/a	3	35	Blank	AvoidedLoss	True
341.663	1.45	Lose2	0.6667000000000001	n/a	Yes	2.685	n/a	5.0	GoodResponse	0	0.014	340.677	3	35	Feedback	AvoidedLoss	True
343.118	2.685	Lose2	0.6667000000000001	n/a	Yes	2.685	n/a	n/a	GoodResponse	0	0.0	n/a	3	35	ISIslide	AvoidedLoss	True
345.826	0.25	Control	0.6757	0.0	Yes	2.674	0.026	n/a	GoodResponse	0	n/a	n/a	3	36	Cue	Neutral	True
346.077	4.0	Control	0.6757	0.0	Yes	2.674	0.001	n/a	GoodResponse	0	n/a	n/a	3	36	Fixation	Neutral	True
350.072	0.33	Control	0.6757	0.004	Yes	2.674	-0.004	4.0	GoodResponse	0	0.231	349.303	3	36	Target	Neutral	True
350.303	0.3	Control	0.6757	0.004	Yes	2.674	-0.004	4.0	GoodResponse	0	0.231	n/a	3	36	ButtonPress	Neutral	True
350.406	0.37	Control	0.6757	n/a	Yes	2.674	n/a	n/a	GoodResponse	0	n/a	n/a	3	36	Blank	Neutral	True
350.774	1.45	Control	0.6757	n/a	Yes	2.674	n/a	5.0	GoodResponse	0	0.024	349.798	3	36	Feedback	Neutral	True
352.228	2.674	Control	0.6757	n/a	Yes	2.674	n/a	n/a	GoodResponse	0	0.0	n/a	3	36	ISIslide	Neutral	True
354.92	0.25	Win2	0.6842	0.0	Yes	2.88	0.02	n/a	GoodResponse	1	n/a	n/a	4	37	Cue	Win	True
355.17	4.0	Win2	0.6842	0.0	Yes	2.88	0.0	n/a	GoodResponse	1	n/a	n/a	4	37	Fixation	Win	True
359.166	0.32	Win2	0.6842	0.004	Yes	2.88	-0.004	4.0	GoodResponse	1	0.214	358.38	4	37	Target	Win	True
359.38	0.3	Win2	0.6842	0.004	Yes	2.88	-0.004	4.0	GoodResponse	1	0.214	n/a	4	37	ButtonPress	Win	True
359.5	0.38	Win2	0.6842	n/a	Yes	2.88	n/a	n/a	GoodResponse	1	n/a	n/a	4	37	Blank	Win	True
359.868	1.45	Win2	0.6842	n/a	Yes	2.88	n/a	5.0	GoodResponse	1	0.008	358.876	4	37	Feedback	Win	True
361.322	2.88	Win2	0.6842	n/a	Yes	2.88	n/a	n/a	GoodResponse	1	0.0	n/a	4	37	ISIslide	Win	True
364.231	0.25	Lose2	0.6923	0.0	Yes	2.819	0.031	n/a	GoodResponse	0	n/a	n/a	4	38	Cue	AvoidedLoss	True
364.482	3.95	Lose2	0.6923	0.0	Yes	2.819	0.001	n/a	GoodResponse	0	n/a	n/a	4	38	Fixation	AvoidedLoss	True
368.427	0.31	Lose2	0.6923	0.004	Yes	2.819	-0.004	4.0	GoodResponse	0	0.233	367.66	4	38	Target	AvoidedLoss	True
368.66	0.3	Lose2	0.6923	0.004	Yes	2.819	-0.004	4.0	GoodResponse	0	0.233	n/a	4	38	ButtonPress	AvoidedLoss	True
368.744	0.39	Lose2	0.6923	n/a	Yes	2.819	n/a	n/a	GoodResponse	0	n/a	n/a	4	38	Blank	AvoidedLoss	True
369.129	1.45	Lose2	0.6923	n/a	Yes	2.819	n/a	5.0	GoodResponse	0	0.011	368.14	4	38	Feedback	AvoidedLoss	True
370.583	2.819	Lose2	0.6923	n/a	Yes	2.819	n/a	n/a	GoodResponse	0	0.0	n/a	4	38	ISIslide	AvoidedLoss	True
373.425	0.25	Win2	0.7	0.0	Yes	2.975	0.025	n/a	GoodResponse	1	n/a	n/a	5	39	Cue	Win	True
373.676	4.1	Win2	0.7	0.0	Yes	2.975	0.001	n/a	GoodResponse	1	n/a	n/a	5	39	Fixation	Win	True
377.771	0.3	Win2	0.7	0.004	Yes	2.975	-0.004	4.0	GoodResponse	1	0.219	376.99	5	39	Target	Win	True
377.99	0.3	Win2	0.7	0.004	Yes	2.975	-0.004	4.0	GoodResponse	1	0.219	n/a	5	39	ButtonPress	Win	True
378.072	0.4	Win2	0.7	n/a	Yes	2.975	n/a	n/a	GoodResponse	1	n/a	n/a	5	39	Blank	Win	True
378.473	1.45	Win2	0.7	n/a	Yes	2.975	n/a	5.0	GoodResponse	1	0.033	377.506	5	39	Feedback	Win	True
379.928	2.975	Win2	0.7	n/a	Yes	2.975	n/a	n/a	GoodResponse	1	0.0	n/a	5	39	ISIslide	Win	True
382.92	0.25	Win2	0.7073	0.0	Yes	2.73	0.02	n/a	GoodResponse	1	n/a	n/a	6	40	Cue	Win	True
383.171	3.95	Win2	0.7073	0.0	Yes	2.73	0.001	n/a	GoodResponse	1	n/a	n/a	6	40	Fixation	Win	True
387.116	0.29	Win2	0.7073	0.004	Yes	2.73	-0.004	4.0	GoodResponse	1	0.228	386.344	6	40	Target	Win	True
387.344	0.3	Win2	0.7073	0.004	Yes	2.73	-0.004	4.0	GoodResponse	1	0.228	n/a	6	40	ButtonPress	Win	True
387.417	0.41	Win2	0.7073	n/a	Yes	2.73	n/a	n/a	GoodResponse	1	n/a	n/a	6	40	Blank	Win	True
387.818	1.45	Win2	0.7073	n/a	Yes	2.73	n/a	5.0	GoodResponse	1	0.007	386.825	6	40	Feedback	Win	True
389.272	2.73	Win2	0.7073	n/a	Yes	2.73	n/a	n/a	GoodResponse	1	0.0	n/a	6	40	ISIslide	Win	True
392.031	0.25	Win2	0.7143	0.0	Yes	2.769	0.031	n/a	GoodResponse	1	n/a	n/a	7	41	Cue	Win	True
392.281	3.9	Win2	0.7143	0.0	Yes	2.769	0.0	n/a	GoodResponse	1	n/a	n/a	7	41	Fixation	Win	True
396.193	0.28	Win2	0.7143	0.0	Yes	2.769	0.012	4.0	GoodResponse	1	0.262	395.455	7	41	Target	Win	True
396.455	0.3	Win2	0.7143	0.0	Yes	2.769	0.012	4.0	GoodResponse	1	0.262	n/a	7	41	ButtonPress	Win	True
396.46	0.42	Win2	0.7143	n/a	Yes	2.769	n/a	n/a	GoodResponse	1	n/a	n/a	7	41	Blank	Win	True
396.878	1.45	Win2	0.7143	n/a	Yes	2.769	n/a	5.0	GoodResponse	1	0.017	395.895	7	41	Feedback	Win	True
398.333	2.769	Win2	0.7143	n/a	Yes	2.769	n/a	n/a	GoodResponse	1	0.0	n/a	7	41	ISIslide	Win	True
401.124	0.25	Control	0.7209	0.0	Yes	2.926	0.024	n/a	GoodResponse	0	n/a	n/a	7	42	Cue	Neutral	True
401.375	3.85	Control	0.7209	0.0	Yes	2.926	0.001	n/a	GoodResponse	0	n/a	n/a	7	42	Fixation	Neutral	True
405.22	0.27	Control	0.7209	0.004	Yes	2.926	-0.004	4.0	GoodResponse	0	0.221	404.441	7	42	Target	Neutral	True
405.441	0.3	Control	0.7209	0.004	Yes	2.926	-0.004	4.0	GoodResponse	0	0.221	n/a	7	42	ButtonPress	Neutral	True
405.504	0.43	Control	0.7209	n/a	Yes	2.926	n/a	n/a	GoodResponse	0	n/a	n/a	7	42	Blank	Neutral	True
405.922	1.45	Control	0.7209	n/a	Yes	2.926	n/a	5.0	GoodResponse	0	0.047	404.969	7	42	Feedback	Neutral	True
407.376	2.926	Control	0.7209	n/a	Yes	2.926	n/a	n/a	GoodResponse	0	0.0	n/a	7	42	ISIslide	Neutral	True
410.318	0.25	Win2	0.7273000000000001	0.001	Yes	3.182	0.018	n/a	GoodResponse	1	n/a	n/a	8	43	Cue	Win	True
410.569	4.0	Win2	0.7273000000000001	0.0	Yes	3.182	0.001	n/a	GoodResponse	1	n/a	n/a	8	43	Fixation	Win	True
414.564	0.26	Win2	0.7273000000000001	0.004	Yes	3.182	-0.004	4.0	GoodResponse	1	0.228	413.792	8	43	Target	Win	True
414.792	0.3	Win2	0.7273000000000001	0.004	Yes	3.182	-0.004	4.0	GoodResponse	1	0.228	n/a	8	43	ButtonPress	Win	True
414.832	0.44	Win2	0.7273000000000001	n/a	Yes	3.182	n/a	n/a	GoodResponse	1	n/a	n/a	8	43	Blank	Win	True
415.267	1.45	Win2	0.7273000000000001	n/a	Yes	3.182	n/a	5.0	GoodResponse	1	0.019	414.286	8	43	Feedback	Win	True
416.721	3.182	Win2	0.7273000000000001	n/a	Yes	3.182	n/a	n/a	GoodResponse	1	0.0	n/a	8	43	ISIslide	Win	True
419.93	0.25	Win2	0.7333	0.001	Yes	2.97	0.03	n/a	GoodResponse	1	n/a	n/a	9	44	Cue	Win	True
420.181	4.0	Win2	0.7333	0.0	Yes	2.97	0.001	n/a	GoodResponse	1	n/a	n/a	9	44	Fixation	Win	True
424.177	0.25	Win2	0.7333	0.003	Yes	2.97	-0.003	4.0	GoodResponse	1	0.23	423.407	9	44	Target	Win	True
424.407	0.3	Win2	0.7333	0.003	Yes	2.97	-0.003	4.0	GoodResponse	1	0.23	n/a	9	44	ButtonPress	Win	True
424.427	0.45	Win2	0.7333	n/a	Yes	2.97	n/a	n/a	GoodResponse	1	n/a	n/a	9	44	Blank	Win	True
424.879	1.45	Win2	0.7333	n/a	Yes	2.97	n/a	5.0	GoodResponse	1	0.017	423.896	9	44	Feedback	Win	True
426.333	2.97	Win2	0.7333	n/a	Yes	2.97	n/a	n/a	GoodResponse	1	0.0	n/a	9	44	ISIslide	Win	True
429.325	0.25	Control	0.7173999999999999	0.0	No	2.875	0.025	n/a	LatePress	0	n/a	n/a	9	45	Cue	Neutral	True
429.576	4.1	Control	0.7173999999999999	0.0	No	2.875	0.001	n/a	LatePress	0	n/a	n/a	9	45	Fixation	Neutral	True
433.672	0.24	Control	0.7173999999999999	0.003	No	2.875	-0.003	4.0	LatePress	0	0.244	432.916	9	45	Target	Neutral	True
433.916	0.3	Control	0.7173999999999999	0.003	No	2.875	-0.003	4.0	LatePress	0	0.244	n/a	9	45	ButtonPress	Neutral	True
433.922	0.46	Control	0.7173999999999999	n/a	No	2.875	n/a	n/a	LatePress	0	n/a	n/a	9	45	Blank	Neutral	True
434.374	1.45	Control	0.7173999999999999	n/a	No	2.875	n/a	5.0	LatePress	0	0.033	433.407	9	45	Feedback	Neutral	True
435.828	2.875	Control	0.7173999999999999	n/a	No	2.875	n/a	n/a	LatePress	0	0.0	n/a	9	45	ISIslide	Neutral	True
438.72	0.25	Lose2	0.7021	0.0	No	3.38	0.02	n/a	NoResponse	-1	n/a	n/a	8	46	Cue	Loss	True
438.971	4.0	Lose2	0.7021	0.0	No	3.38	0.001	n/a	NoResponse	-1	n/a	n/a	8	46	Fixation	Loss	True
442.966	0.23	Lose2	0.7021	0.004	No	3.38	-0.004	4.0	NoResponse	-1	0.243	442.209	8	46	Target	Loss	True
443.2	0.47	Lose2	0.7021	n/a	No	3.38	n/a	n/a	NoResponse	-1	n/a	n/a	8	46	Blank	Loss	True
443.209	0.3	Lose2	0.7021	0.004	No	3.38	-0.004	4.0	NoResponse	-1	0.243	n/a	8	46	ButtonPress	Loss	True
443.668	1.45	Lose2	0.7021	n/a	No	3.38	n/a	5.0	NoResponse	-1	0.008	442.676	8	46	Feedback	Loss	True
445.122	3.38	Lose2	0.7021	n/a	No	3.38	n/a	n/a	NoResponse	-1	0.0	n/a	8	46	ISIslide	Loss	True
448.516	0.25	Lose2	0.6875	0.0	No	2.684	0.016	n/a	NoResponse	-1	n/a	n/a	7	47	Cue	Loss	True
448.767	4.0	Lose2	0.6875	0.0	No	2.684	0.001	n/a	NoResponse	-1	n/a	n/a	7	47	Fixation	Loss	True
452.762	0.22	Lose2	0.6875	0.004	No	2.684	-0.004	4.0	NoResponse	-1	0.261	452.023	7	47	Target	Loss	True
452.996	0.48	Lose2	0.6875	n/a	No	2.684	n/a	n/a	NoResponse	-1	n/a	n/a	7	47	Blank	Loss	True
453.023	0.3	Lose2	0.6875	0.004	No	2.684	-0.004	4.0	NoResponse	-1	0.261	n/a	7	47	ButtonPress	Loss	True
453.464	1.45	Lose2	0.6875	n/a	No	2.684	n/a	5.0	NoResponse	-1	0.016	452.48	7	47	Feedback	Loss	True
454.918	2.684	Lose2	0.6875	n/a	No	2.684	n/a	n/a	NoResponse	-1	0.0	n/a	7	47	ISIslide	Loss	True
457.626	0.25	Lose2	0.6735	0.0	No	3.024	0.026	n/a	NoResponse	-1	n/a	n/a	6	48	Cue	Loss	True
457.877	3.95	Lose2	0.6735	0.0	No	3.024	0.001	n/a	NoResponse	-1	n/a	n/a	6	48	Fixation	Loss	True
461.822	0.21	Lose2	0.6735	0.004	No	3.024	-0.004	4.0	NoResponse	-1	0.262	461.084	6	48	Target	Loss	True
462.04	0.49	Lose2	0.6735	n/a	No	3.024	n/a	n/a	NoResponse	-1	n/a	n/a	6	48	Blank	Loss	True
462.084	0.3	Lose2	0.6735	0.004	No	3.024	-0.004	4.0	NoResponse	-1	0.262	n/a	6	48	ButtonPress	Loss	True
462.524	1.45	Lose2	0.6735	n/a	No	3.024	n/a	5.0	NoResponse	-1	0.029	461.553	6	48	Feedback	Loss	True
463.979	3.024	Lose2	0.6735	n/a	No	3.024	n/a	n/a	NoResponse	-1	0.0	n/a	6	48	ISIslide	Loss	True
467.021	0.25	Control	0.66	0.0	No	2.879	0.021	n/a	NoResponse	0	n/a	n/a	6	49	Cue	Neutral	True
467.272	4.0	Control	0.66	0.0	No	2.879	0.001	n/a	NoResponse	0	n/a	n/a	6	49	Fixation	Neutral	True
471.267	0.2	Control	0.66	0.004	No	2.879	-0.004	4.0	NoResponse	0	0.313	470.58	6	49	Target	Neutral	True
471.468	0.5	Control	0.66	n/a	No	2.879	n/a	n/a	NoResponse	0	n/a	n/a	6	49	Blank	Neutral	True
471.58	0.3	Control	0.66	0.004	No	2.879	-0.004	4.0	NoResponse	0	0.313	n/a	6	49	ButtonPress	Neutral	True
471.969	1.45	Control	0.66	n/a	No	2.879	n/a	5.0	NoResponse	0	0.047	471.016	6	49	Feedback	Neutral	True
473.424	2.879	Control	0.66	n/a	No	2.879	n/a	n/a	NoResponse	0	0.0	n/a	6	49	ISIslide	Neutral	True
476.316	0.25	Control	0.6470999999999999	0.0	No	2.784	0.016	n/a	NoResponse	0	n/a	n/a	6	50	Cue	Neutral	True
476.566	4.0	Control	0.6470999999999999	0.0	No	2.784	0.0	n/a	NoResponse	0	n/a	n/a	6	50	Fixation	Neutral	True
480.562	0.2	Control	0.6470999999999999	0.004	No	2.784	-0.004	4.0	NoResponse	0	0.239	479.801	6	50	Target	Neutral	True
480.762	0.5	Control	0.6470999999999999	n/a	No	2.784	n/a	n/a	NoResponse	0	n/a	n/a	6	50	Blank	Neutral	True
480.801	0.3	Control	0.6470999999999999	0.004	No	2.784	-0.004	4.0	NoResponse	0	0.239	n/a	6	50	ButtonPress	Neutral	True
481.264	1.45	Control	0.6470999999999999	n/a	No	2.784	n/a	5.0	NoResponse	0	0.021	480.285	6	50	Feedback	Neutral	True
482.718	2.784	Control	0.6470999999999999	n/a	No	2.784	n/a	n/a	NoResponse	0	0.0	n/a	6	50	ISIslide	Neutral	True
485.526	0.25	Control	0.6537999999999999	0.0	Yes	2.724	0.026	n/a	GoodResponse	0	n/a	n/a	6	51	Cue	Neutral	True
485.777	3.95	Control	0.6537999999999999	0.0	Yes	2.724	0.001	n/a	GoodResponse	0	n/a	n/a	6	51	Fixation	Neutral	True
489.722	0.21	Control	0.6537999999999999	0.004	Yes	2.724	-0.004	4.0	GoodResponse	0	0.209	488.931	6	51	Target	Neutral	True
489.931	0.3	Control	0.6537999999999999	0.004	Yes	2.724	-0.004	4.0	GoodResponse	0	0.209	n/a	6	51	ButtonPress	Neutral	True
489.94	0.49	Control	0.6537999999999999	n/a	Yes	2.724	n/a	n/a	GoodResponse	0	n/a	n/a	6	51	Blank	Neutral	True
490.424	1.45	Control	0.6537999999999999	n/a	Yes	2.724	n/a	5.0	GoodResponse	0	0.031	489.455	6	51	Feedback	Neutral	True
491.879	2.724	Control	0.6537999999999999	n/a	Yes	2.724	n/a	n/a	GoodResponse	0	0.0	n/a	6	51	ISIslide	Neutral	True
494.62	0.25	Control	0.6415000000000001	0.0	No	2.63	0.02	n/a	NoResponse	0	n/a	n/a	6	52	Cue	Neutral	True
494.871	4.05	Control	0.6415000000000001	0.0	No	2.63	0.001	n/a	NoResponse	0	n/a	n/a	6	52	Fixation	Neutral	True
498.916	0.22	Control	0.6415000000000001	0.004	No	2.63	-0.004	4.0	NoResponse	0	0.302	498.218	6	52	Target	Neutral	True
499.15	0.48	Control	0.6415000000000001	n/a	No	2.63	n/a	n/a	NoResponse	0	n/a	n/a	6	52	Blank	Neutral	True
499.218	0.3	Control	0.6415000000000001	0.004	No	2.63	-0.004	4.0	NoResponse	0	0.302	n/a	6	52	ButtonPress	Neutral	True
499.618	1.45	Control	0.6415000000000001	n/a	No	2.63	n/a	5.0	NoResponse	0	0.008	498.626	6	52	Feedback	Neutral	True
501.073	2.63	Control	0.6415000000000001	n/a	No	2.63	n/a	n/a	NoResponse	0	0.0	n/a	6	52	ISIslide	Neutral	True
503.731	0.25	Win2	0.6296	0.0	No	2.919	0.031	n/a	LatePress	0	n/a	n/a	6	53	Cue	MissedWin	True
503.982	4.05	Win2	0.6296	0.0	No	2.919	0.001	n/a	LatePress	0	n/a	n/a	6	53	Fixation	MissedWin	True
508.027	0.23	Win2	0.6296	0.004	No	2.919	-0.004	4.0	LatePress	0	0.23	507.257	6	53	Target	MissedWin	True
508.257	0.3	Win2	0.6296	0.004	No	2.919	-0.004	4.0	LatePress	0	0.23	n/a	6	53	ButtonPress	MissedWin	True
508.261	0.47	Win2	0.6296	n/a	No	2.919	n/a	n/a	LatePress	0	n/a	n/a	6	53	Blank	MissedWin	True
508.729	1.45	Win2	0.6296	n/a	No	2.919	n/a	5.0	LatePress	0	0.018	507.747	6	53	Feedback	MissedWin	True
510.183	2.919	Win2	0.6296	n/a	No	2.919	n/a	n/a	LatePress	0	0.0	n/a	6	53	ISIslide	MissedWin	True
513.125	0.25	Win2	0.6182	0.001	No	2.725	0.025	n/a	LatePress	0	n/a	n/a	6	54	Cue	MissedWin	True
513.376	3.95	Win2	0.6182	0.0	No	2.725	0.001	n/a	LatePress	0	n/a	n/a	6	54	Fixation	MissedWin	True
517.321	0.24	Win2	0.6182	0.004	No	2.725	-0.004	4.0	LatePress	0	0.249	516.57	6	54	Target	MissedWin	True
517.57	0.3	Win2	0.6182	0.004	No	2.725	-0.004	4.0	LatePress	0	0.249	n/a	6	54	ButtonPress	MissedWin	True
517.572	0.46	Win2	0.6182	n/a	No	2.725	n/a	n/a	LatePress	0	n/a	n/a	6	54	Blank	MissedWin	True
518.023	1.45	Win2	0.6182	n/a	No	2.725	n/a	5.0	LatePress	0	0.041	517.064	6	54	Feedback	MissedWin	True
519.478	2.725	Win2	0.6182	n/a	No	2.725	n/a	n/a	LatePress	0	0.0	n/a	6	54	ISIslide	MissedWin	True
522.219	0.25	Control	0.625	0.0	Yes	3.031	0.019	n/a	GoodResponse	0	n/a	n/a	6	55	Cue	Neutral	True
522.47	3.95	Control	0.625	0.0	Yes	3.031	0.001	n/a	GoodResponse	0	n/a	n/a	6	55	Fixation	Neutral	True
526.415	0.25	Control	0.625	0.004	Yes	3.031	-0.004	4.0	GoodResponse	0	0.249	525.664	6	55	Target	Neutral	True
526.664	0.3	Control	0.625	0.004	Yes	3.031	-0.004	4.0	GoodResponse	0	0.249	n/a	6	55	ButtonPress	Neutral	True
526.666	0.45	Control	0.625	n/a	Yes	3.031	n/a	n/a	GoodResponse	0	n/a	n/a	6	55	Blank	Neutral	True
527.117	1.45	Control	0.625	n/a	Yes	3.031	n/a	5.0	GoodResponse	0	0.021	526.138	6	55	Feedback	Neutral	True
528.572	3.031	Control	0.625	n/a	Yes	3.031	n/a	n/a	GoodResponse	0	0.0	n/a	6	55	ISIslide	Neutral	True
531.631	0.25	Control	0.614	0.0	No	2.819	0.031	n/a	NoResponse	0	n/a	n/a	6	56	Cue	Neutral	True
531.881	3.95	Control	0.614	0.001	No	2.819	0.0	n/a	NoResponse	0	n/a	n/a	6	56	Fixation	Neutral	True
535.827	0.26	Control	0.614	0.004	No	2.819	-0.004	4.0	NoResponse	0	0.276	535.103	6	56	Target	Neutral	True
536.094	0.44	Control	0.614	n/a	No	2.819	n/a	n/a	NoResponse	0	n/a	n/a	6	56	Blank	Neutral	True
536.103	0.3	Control	0.614	0.004	No	2.819	-0.004	4.0	NoResponse	0	0.276	n/a	6	56	ButtonPress	Neutral	True
536.529	1.45	Control	0.614	n/a	No	2.819	n/a	5.0	NoResponse	0	0.023	535.552	6	56	Feedback	Neutral	True
537.983	2.819	Control	0.614	n/a	No	2.819	n/a	n/a	NoResponse	0	0.0	n/a	6	56	ISIslide	Neutral	True
540.825	0.25	Control	0.6034	0.0	No	3.475	0.025	n/a	NoResponse	0	n/a	n/a	6	57	Cue	Neutral	True
541.076	4.0	Control	0.6034	0.0	No	3.475	0.001	n/a	NoResponse	0	n/a	n/a	6	57	Fixation	Neutral	True
545.071	0.27	Control	0.6034	0.004	No	3.475	-0.004	4.0	NoResponse	0	0.297	544.368	6	57	Target	Neutral	True
545.355	0.43	Control	0.6034	n/a	No	3.475	n/a	n/a	NoResponse	0	n/a	n/a	6	57	Blank	Neutral	True
545.368	0.3	Control	0.6034	0.004	No	3.475	-0.004	4.0	NoResponse	0	0.297	n/a	6	57	ButtonPress	Neutral	True
545.773	1.45	Control	0.6034	n/a	No	3.475	n/a	5.0	NoResponse	0	0.047	544.82	6	57	Feedback	Neutral	True
547.227	3.475	Control	0.6034	n/a	No	3.475	n/a	n/a	NoResponse	0	0.0	n/a	6	57	ISIslide	Neutral	True
550.721	0.25	Win2	0.6102000000000001	0.0	Yes	2.729	0.021	n/a	GoodResponse	1	n/a	n/a	7	58	Cue	Win	True
550.972	4.05	Win2	0.6102000000000001	0.0	Yes	2.729	0.001	n/a	GoodResponse	1	n/a	n/a	7	58	Fixation	Win	True
555.017	0.28	Win2	0.6102000000000001	0.004	Yes	2.729	-0.004	4.0	GoodResponse	1	0.191	554.208	7	58	Target	Win	True
555.208	0.3	Win2	0.6102000000000001	0.004	Yes	2.729	-0.004	4.0	GoodResponse	1	0.191	n/a	7	58	ButtonPress	Win	True
555.301	0.42	Win2	0.6102000000000001	n/a	Yes	2.729	n/a	n/a	GoodResponse	1	n/a	n/a	7	58	Blank	Win	True
555.719	1.45	Win2	0.6102000000000001	n/a	Yes	2.729	n/a	5.0	GoodResponse	1	0.008	554.727	7	58	Feedback	Win	True
557.174	2.729	Win2	0.6102000000000001	n/a	Yes	2.729	n/a	n/a	GoodResponse	1	0.0	n/a	7	58	ISIslide	Win	True
559.915	0.25	Lose2	0.6167	0.0	Yes	2.685	0.015	n/a	GoodResponse	0	n/a	n/a	7	59	Cue	AvoidedLoss	True
560.166	4.0	Lose2	0.6167	0.0	Yes	2.685	0.001	n/a	GoodResponse	0	n/a	n/a	7	59	Fixation	AvoidedLoss	True
564.161	0.29	Lose2	0.6167	0.004	Yes	2.685	-0.004	4.0	GoodResponse	0	0.262	563.423	7	59	Target	AvoidedLoss	True
564.423	0.3	Lose2	0.6167	0.004	Yes	2.685	-0.004	4.0	GoodResponse	0	0.262	n/a	7	59	ButtonPress	AvoidedLoss	True
564.462	0.41	Lose2	0.6167	n/a	Yes	2.685	n/a	n/a	GoodResponse	0	n/a	n/a	7	59	Blank	AvoidedLoss	True
564.863	1.45	Lose2	0.6167	n/a	Yes	2.685	n/a	5.0	GoodResponse	0	0.03	563.893	7	59	Feedback	AvoidedLoss	True
566.318	2.685	Lose2	0.6167	n/a	Yes	2.685	n/a	n/a	GoodResponse	0	0.0	n/a	7	59	ISIslide	AvoidedLoss	True
569.026	0.25	Control	0.6065999999999999	0.0	No	2.674	0.026	n/a	NoResponse	0	n/a	n/a	7	60	Cue	Neutral	True
569.277	4.0	Control	0.6065999999999999	0.0	No	2.674	0.001	n/a	NoResponse	0	n/a	n/a	7	60	Fixation	Neutral	True
573.272	0.3	Control	0.6065999999999999	0.004	No	2.674	-0.004	4.0	NoResponse	0	0.376	572.648	7	60	Target	Neutral	True
573.573	0.4	Control	0.6065999999999999	n/a	No	2.674	n/a	n/a	NoResponse	0	n/a	n/a	7	60	Blank	Neutral	True
573.648	0.3	Control	0.6065999999999999	0.004	No	2.674	-0.004	4.0	NoResponse	0	0.376	n/a	7	60	ButtonPress	Neutral	True
573.974	1.45	Control	0.6065999999999999	n/a	No	2.674	n/a	5.0	NoResponse	0	0.04	573.014	7	60	Feedback	Neutral	True
575.428	2.674	Control	0.6065999999999999	n/a	No	2.674	n/a	n/a	NoResponse	0	0.0	n/a	7	60	ISIslide	Neutral	True
578.12	0.25	Lose2	0.6129	0.0	Yes	2.98	0.02	n/a	GoodResponse	0	n/a	n/a	7	61	Cue	AvoidedLoss	True
578.37	4.0	Lose2	0.6129	0.0	Yes	2.98	0.0	n/a	GoodResponse	0	n/a	n/a	7	61	Fixation	AvoidedLoss	True
582.366	0.31	Lose2	0.6129	0.004	Yes	2.98	-0.004	4.0	GoodResponse	0	0.276	581.642	7	61	Target	AvoidedLoss	True
582.642	0.3	Lose2	0.6129	0.004	Yes	2.98	-0.004	4.0	GoodResponse	0	0.276	n/a	7	61	ButtonPress	AvoidedLoss	True
582.683	0.39	Lose2	0.6129	n/a	Yes	2.98	n/a	n/a	GoodResponse	0	n/a	n/a	7	61	Blank	AvoidedLoss	True
583.068	1.45	Lose2	0.6129	n/a	Yes	2.98	n/a	5.0	GoodResponse	0	0.02	582.088	7	61	Feedback	AvoidedLoss	True
584.522	2.98	Lose2	0.6129	n/a	Yes	2.98	n/a	n/a	GoodResponse	0	0.0	n/a	7	61	ISIslide	AvoidedLoss	True
587.531	0.25	Lose2	0.619	0.0	Yes	2.869	0.031	n/a	GoodResponse	0	n/a	n/a	7	62	Cue	AvoidedLoss	True
587.782	3.9	Lose2	0.619	0.0	Yes	2.869	0.001	n/a	GoodResponse	0	n/a	n/a	7	62	Fixation	AvoidedLoss	True
591.677	0.32	Lose2	0.619	0.004	Yes	2.869	-0.004	4.0	GoodResponse	0	0.308	590.985	7	62	Target	AvoidedLoss	True
591.985	0.3	Lose2	0.619	0.004	Yes	2.869	-0.004	4.0	GoodResponse	0	0.308	n/a	7	62	ButtonPress	AvoidedLoss	True
592.011	0.38	Lose2	0.619	n/a	Yes	2.869	n/a	n/a	GoodResponse	0	n/a	n/a	7	62	Blank	AvoidedLoss	True
592.379	1.45	Lose2	0.619	n/a	Yes	2.869	n/a	5.0	GoodResponse	0	0.026	591.405	7	62	Feedback	AvoidedLoss	True
593.833	2.869	Lose2	0.619	n/a	Yes	2.869	n/a	n/a	GoodResponse	0	0.0	n/a	7	62	ISIslide	AvoidedLoss	True
596.725	0.25	Lose2	0.625	0.0	Yes	2.625	0.025	n/a	GoodResponse	0	n/a	n/a	7	63	Cue	AvoidedLoss	True
596.976	4.05	Lose2	0.625	0.0	Yes	2.625	0.001	n/a	GoodResponse	0	n/a	n/a	7	63	Fixation	AvoidedLoss	True
601.021	0.33	Lose2	0.625	0.004	Yes	2.625	-0.004	4.0	GoodResponse	0	0.246	600.267	7	63	Target	AvoidedLoss	True
601.267	0.3	Lose2	0.625	0.004	Yes	2.625	-0.004	4.0	GoodResponse	0	0.246	n/a	7	63	ButtonPress	AvoidedLoss	True
601.356	0.37	Lose2	0.625	n/a	Yes	2.625	n/a	n/a	GoodResponse	0	n/a	n/a	7	63	Blank	AvoidedLoss	True
601.723	1.45	Lose2	0.625	n/a	Yes	2.625	n/a	5.0	GoodResponse	0	0.048	600.771	7	63	Feedback	AvoidedLoss	True
603.178	2.625	Lose2	0.625	n/a	Yes	2.625	n/a	n/a	GoodResponse	0	0.0	n/a	7	63	ISIslide	AvoidedLoss	True
605.819	0.25	Win2	0.6308	0.0	Yes	3.131	0.019	n/a	GoodResponse	1	n/a	n/a	8	64	Cue	Win	True
606.07	4.15	Win2	0.6308	0.0	Yes	3.131	0.001	n/a	GoodResponse	1	n/a	n/a	8	64	Fixation	Win	True
610.215	0.34	Win2	0.6308	0.004	Yes	3.131	-0.004	4.0	GoodResponse	1	0.24	609.455	8	64	Target	Win	True
610.455	0.3	Win2	0.6308	0.004	Yes	3.131	-0.004	4.0	GoodResponse	1	0.24	n/a	8	64	ButtonPress	Win	True
610.566	0.36	Win2	0.6308	n/a	Yes	3.131	n/a	n/a	GoodResponse	1	n/a	n/a	8	64	Blank	Win	True
610.918	1.45	Win2	0.6308	n/a	Yes	3.131	n/a	5.0	GoodResponse	1	0.024	609.942	8	64	Feedback	Win	True
612.372	3.131	Win2	0.6308	n/a	Yes	3.131	n/a	n/a	GoodResponse	1	0.0	n/a	8	64	ISIslide	Win	True
615.515	0.25	Control	0.6364	0.0	Yes	2.785	0.015	n/a	GoodResponse	0	n/a	n/a	8	65	Cue	Neutral	True
615.765	4.0	Control	0.6364	0.0	Yes	2.785	0.0	n/a	GoodResponse	0	n/a	n/a	8	65	Fixation	Neutral	True
619.761	0.35	Control	0.6364	0.004	Yes	2.785	-0.004	4.0	GoodResponse	0	0.279	619.04	8	65	Target	Neutral	True
620.04	0.3	Control	0.6364	0.004	Yes	2.785	-0.004	4.0	GoodResponse	0	0.279	n/a	8	65	ButtonPress	Neutral	True
620.112	0.35	Control	0.6364	n/a	Yes	2.785	n/a	n/a	GoodResponse	0	n/a	n/a	8	65	Blank	Neutral	True
620.463	1.45	Control	0.6364	n/a	Yes	2.785	n/a	5.0	GoodResponse	0	0.039	619.502	8	65	Feedback	Neutral	True
621.917	2.785	Control	0.6364	n/a	Yes	2.785	n/a	n/a	GoodResponse	0	0.0	n/a	8	65	ISIslide	Neutral	True
624.725	0.25	Win2	0.6418	0.001	Yes	2.775	0.025	n/a	GoodResponse	1	n/a	n/a	9	66	Cue	Win	True
624.976	3.9	Win2	0.6418	0.0	Yes	2.775	0.001	n/a	GoodResponse	1	n/a	n/a	9	66	Fixation	Win	True
628.871	0.36	Win2	0.6418	0.004	Yes	2.775	-0.004	4.0	GoodResponse	1	0.216	628.087	9	66	Target	Win	True
629.087	0.3	Win2	0.6418	0.004	Yes	2.775	-0.004	4.0	GoodResponse	1	0.216	n/a	9	66	ButtonPress	Win	True
629.239	0.34	Win2	0.6418	n/a	Yes	2.775	n/a	n/a	GoodResponse	1	n/a	n/a	9	66	Blank	Win	True
629.573	1.45	Win2	0.6418	n/a	Yes	2.775	n/a	5.0	GoodResponse	1	0.002	628.575	9	66	Feedback	Win	True
631.028	2.775	Win2	0.6418	n/a	Yes	2.775	n/a	n/a	GoodResponse	1	0.0	n/a	9	66	ISIslide	Win	True
633.819	0.25	Control	0.6470999999999999	0.0	Yes	2.731	0.019	n/a	GoodResponse	0	n/a	n/a	9	67	Cue	Neutral	True
634.07	3.95	Control	0.6470999999999999	0.0	Yes	2.731	0.001	n/a	GoodResponse	0	n/a	n/a	9	67	Fixation	Neutral	True
638.015	0.37	Control	0.6470999999999999	0.004	Yes	2.731	-0.004	4.0	GoodResponse	0	0.163	637.178	9	67	Target	Neutral	True
638.178	0.3	Control	0.6470999999999999	0.004	Yes	2.731	-0.004	4.0	GoodResponse	0	0.163	n/a	9	67	ButtonPress	Neutral	True
638.4	0.33	Control	0.6470999999999999	n/a	Yes	2.731	n/a	n/a	GoodResponse	0	n/a	n/a	9	67	Blank	Neutral	True
638.717	1.45	Control	0.6470999999999999	n/a	Yes	2.731	n/a	5.0	GoodResponse	0	0.029	637.746	9	67	Feedback	Neutral	True
640.172	2.731	Control	0.6470999999999999	n/a	Yes	2.731	n/a	n/a	GoodResponse	0	0.0	n/a	9	67	ISIslide	Neutral	True
642.93	0.25	Win2	0.6522	0.0	Yes	3.07	0.03	n/a	GoodResponse	1	n/a	n/a	10	68	Cue	Win	True
643.181	4.0	Win2	0.6522	0.0	Yes	3.07	0.001	n/a	GoodResponse	1	n/a	n/a	10	68	Fixation	Win	True
647.176	0.38	Win2	0.6522	0.004	Yes	3.07	-0.004	4.0	GoodResponse	1	0.265	646.441	10	68	Target	Win	True
647.441	0.3	Win2	0.6522	0.004	Yes	3.07	-0.004	4.0	GoodResponse	1	0.265	n/a	10	68	ButtonPress	Win	True
647.56	0.32	Win2	0.6522	n/a	Yes	3.07	n/a	n/a	GoodResponse	1	n/a	n/a	10	68	Blank	Win	True
647.878	1.45	Win2	0.6522	n/a	Yes	3.07	n/a	5.0	GoodResponse	1	0.039	646.917	10	68	Feedback	Win	True
649.332	3.07	Win2	0.6522	n/a	Yes	3.07	n/a	n/a	GoodResponse	1	0.0	n/a	10	68	ISIslide	Win	True
652.425	0.25	Win2	0.6570999999999999	0.0	Yes	3.225	0.025	n/a	GoodResponse	1	n/a	n/a	11	69	Cue	Win	True
652.676	3.95	Win2	0.6570999999999999	0.0	Yes	3.225	0.001	n/a	GoodResponse	1	n/a	n/a	11	69	Fixation	Win	True
656.621	0.39	Win2	0.6570999999999999	0.004	Yes	3.225	-0.004	4.0	GoodResponse	1	0.252	655.873	11	69	Target	Win	True
656.873	0.3	Win2	0.6570999999999999	0.004	Yes	3.225	-0.004	4.0	GoodResponse	1	0.252	n/a	11	69	ButtonPress	Win	True
657.022	0.31	Win2	0.6570999999999999	n/a	Yes	3.225	n/a	n/a	GoodResponse	1	n/a	n/a	11	69	Blank	Win	True
657.323	1.45	Win2	0.6570999999999999	n/a	Yes	3.225	n/a	5.0	GoodResponse	1	0.008	656.331	11	69	Feedback	Win	True
658.777	3.225	Win2	0.6570999999999999	n/a	Yes	3.225	n/a	n/a	GoodResponse	1	0.0	n/a	11	69	ISIslide	Win	True
662.02	0.25	Lose2	0.662	0.0	Yes	3.03	0.02	n/a	GoodResponse	0	n/a	n/a	11	70	Cue	AvoidedLoss	True
662.271	4.05	Lose2	0.662	0.0	Yes	3.03	0.001	n/a	GoodResponse	0	n/a	n/a	11	70	Fixation	AvoidedLoss	True
666.316	0.39	Lose2	0.662	0.004	Yes	3.03	-0.004	4.0	GoodResponse	0	0.216	665.532	11	70	Target	AvoidedLoss	True
666.532	0.3	Lose2	0.662	0.004	Yes	3.03	-0.004	4.0	GoodResponse	0	0.216	n/a	11	70	ButtonPress	AvoidedLoss	True
666.718	0.31	Lose2	0.662	n/a	Yes	3.03	n/a	n/a	GoodResponse	0	n/a	n/a	11	70	Blank	AvoidedLoss	True
667.018	1.45	Lose2	0.662	n/a	Yes	3.03	n/a	5.0	GoodResponse	0	0.02	666.038	11	70	Feedback	AvoidedLoss	True
668.473	3.03	Lose2	0.662	n/a	Yes	3.03	n/a	n/a	GoodResponse	0	0.0	n/a	11	70	ISIslide	AvoidedLoss	True
671.515	0.25	Win2	0.6667000000000001	0.0	Yes	2.735	0.015	n/a	GoodResponse	1	n/a	n/a	12	71	Cue	Win	True
671.766	4.05	Win2	0.6667000000000001	0.0	Yes	2.735	0.001	n/a	GoodResponse	1	n/a	n/a	12	71	Fixation	Win	True
675.811	0.39	Win2	0.6667000000000001	0.004	Yes	2.735	-0.004	4.0	GoodResponse	1	0.256	675.067	12	71	Target	Win	True
676.067	0.3	Win2	0.6667000000000001	0.004	Yes	2.735	-0.004	4.0	GoodResponse	1	0.256	n/a	12	71	ButtonPress	Win	True
676.213	0.31	Win2	0.6667000000000001	n/a	Yes	2.735	n/a	n/a	GoodResponse	1	n/a	n/a	12	71	Blank	Win	True
676.513	1.45	Win2	0.6667000000000001	n/a	Yes	2.735	n/a	5.0	GoodResponse	1	0.037	675.55	12	71	Feedback	Win	True
677.968	2.735	Win2	0.6667000000000001	n/a	Yes	2.735	n/a	n/a	GoodResponse	1	0.0	n/a	12	71	ISIslide	Win	True
680.726	0.25	Win2	0.6712	0.0	Yes	2.774	0.026	n/a	GoodResponse	1	n/a	n/a	13	72	Cue	Win	True
680.977	4.1	Win2	0.6712	0.0	Yes	2.774	0.001	n/a	GoodResponse	1	n/a	n/a	13	72	Fixation	Win	True
685.072	0.38	Win2	0.6712	0.004	Yes	2.774	-0.004	4.0	GoodResponse	1	0.277	684.349	13	72	Target	Win	True
685.349	0.3	Win2	0.6712	0.004	Yes	2.774	-0.004	4.0	GoodResponse	1	0.277	n/a	13	72	ButtonPress	Win	True
685.457	0.32	Win2	0.6712	n/a	Yes	2.774	n/a	n/a	GoodResponse	1	n/a	n/a	13	72	Blank	Win	True
685.774	1.45	Win2	0.6712	n/a	Yes	2.774	n/a	5.0	GoodResponse	1	0.044	684.818	13	72	Feedback	Win	True
687.229	2.774	Win2	0.6712	n/a	Yes	2.774	n/a	n/a	GoodResponse	1	0.0	n/a	13	72	ISIslide	Win	True
690.02	0.25	Win2	0.6757	0.001	Yes	2.68	0.02	n/a	GoodResponse	1	n/a	n/a	14	73	Cue	Win	True
690.271	4.0	Win2	0.6757	0.0	Yes	2.68	0.001	n/a	GoodResponse	1	n/a	n/a	14	73	Fixation	Win	True
694.266	0.37	Win2	0.6757	0.004	Yes	2.68	-0.004	4.0	GoodResponse	1	0.259	693.525	14	73	Target	Win	True
694.525	0.3	Win2	0.6757	0.004	Yes	2.68	-0.004	4.0	GoodResponse	1	0.259	n/a	14	73	ButtonPress	Win	True
694.651	0.33	Win2	0.6757	n/a	Yes	2.68	n/a	n/a	GoodResponse	1	n/a	n/a	14	73	Blank	Win	True
694.969	1.45	Win2	0.6757	n/a	Yes	2.68	n/a	5.0	GoodResponse	1	0.019	693.988	14	73	Feedback	Win	True
696.423	2.68	Win2	0.6757	n/a	Yes	2.68	n/a	n/a	GoodResponse	1	0.0	n/a	14	73	ISIslide	Win	True
699.131	0.25	Lose2	0.68	0.0	Yes	2.619	0.031	n/a	GoodResponse	0	n/a	n/a	14	74	Cue	AvoidedLoss	True
699.382	4.05	Lose2	0.68	0.0	Yes	2.619	0.001	n/a	GoodResponse	0	n/a	n/a	14	74	Fixation	AvoidedLoss	True
703.427	0.36	Lose2	0.68	0.004	Yes	2.619	-0.004	4.0	GoodResponse	0	0.246	702.673	14	74	Target	AvoidedLoss	True
703.673	0.3	Lose2	0.68	0.004	Yes	2.619	-0.004	4.0	GoodResponse	0	0.246	n/a	14	74	ButtonPress	AvoidedLoss	True
703.795	0.34	Lose2	0.68	n/a	Yes	2.619	n/a	n/a	GoodResponse	0	n/a	n/a	14	74	Blank	AvoidedLoss	True
704.129	1.45	Lose2	0.68	n/a	Yes	2.619	n/a	5.0	GoodResponse	0	0.03	703.159	14	74	Feedback	AvoidedLoss	True
705.584	2.619	Lose2	0.68	n/a	Yes	2.619	n/a	n/a	GoodResponse	0	0.0	n/a	14	74	ISIslide	AvoidedLoss	True
708.225	0.25	Lose2	0.6842	0.0	Yes	2.925	0.025	n/a	GoodResponse	0	n/a	n/a	14	75	Cue	AvoidedLoss	True
708.476	3.95	Lose2	0.6842	0.0	Yes	2.925	0.001	n/a	GoodResponse	0	n/a	n/a	14	75	Fixation	AvoidedLoss	True
712.421	0.35	Lose2	0.6842	0.004	Yes	2.925	-0.004	4.0	GoodResponse	0	0.241	711.662	14	75	Target	AvoidedLoss	True
712.662	0.3	Lose2	0.6842	0.004	Yes	2.925	-0.004	4.0	GoodResponse	0	0.241	n/a	14	75	ButtonPress	AvoidedLoss	True
712.772	0.35	Lose2	0.6842	n/a	Yes	2.925	n/a	n/a	GoodResponse	0	n/a	n/a	14	75	Blank	AvoidedLoss	True
713.123	1.45	Lose2	0.6842	n/a	Yes	2.925	n/a	5.0	GoodResponse	0	0.012	712.135	14	75	Feedback	AvoidedLoss	True
714.577	2.925	Lose2	0.6842	n/a	Yes	2.925	n/a	n/a	GoodResponse	0	0.0	n/a	14	75	ISIslide	AvoidedLoss	True
717.519	0.25	Control	0.6753	0.0	No	3.231	0.019	n/a	LatePress	0	n/a	n/a	14	76	Cue	Neutral	True
717.77	4.05	Control	0.6753	0.0	No	3.231	0.001	n/a	LatePress	0	n/a	n/a	14	76	Fixation	Neutral	True
721.815	0.34	Control	0.6753	0.004	No	3.231	-0.004	4.0	LatePress	0	0.347	721.162	14	76	Target	Neutral	True
722.162	0.3	Control	0.6753	0.004	No	3.231	-0.004	4.0	LatePress	0	0.347	n/a	14	76	ButtonPress	Neutral	True
722.166	0.36	Control	0.6753	n/a	No	3.231	n/a	n/a	LatePress	0	n/a	n/a	14	76	Blank	Neutral	True
722.517	1.45	Control	0.6753	n/a	No	3.231	n/a	5.0	LatePress	0	0.033	721.55	14	76	Feedback	Neutral	True
723.972	3.231	Control	0.6753	n/a	No	3.231	n/a	n/a	LatePress	0	0.0	n/a	14	76	ISIslide	Neutral	True
727.215	0.25	Lose2	0.6795	0.0	Yes	2.585	0.015	n/a	GoodResponse	0	n/a	n/a	14	77	Cue	AvoidedLoss	True
727.466	3.95	Lose2	0.6795	0.0	Yes	2.585	0.001	n/a	GoodResponse	0	n/a	n/a	14	77	Fixation	AvoidedLoss	True
731.411	0.33	Lose2	0.6795	0.004	Yes	2.585	-0.004	4.0	GoodResponse	0	0.308	730.719	14	77	Target	AvoidedLoss	True
731.719	0.3	Lose2	0.6795	0.004	Yes	2.585	-0.004	4.0	GoodResponse	0	0.308	n/a	14	77	ButtonPress	AvoidedLoss	True
731.745	0.37	Lose2	0.6795	n/a	Yes	2.585	n/a	n/a	GoodResponse	0	n/a	n/a	14	77	Blank	AvoidedLoss	True
732.113	1.45	Lose2	0.6795	n/a	Yes	2.585	n/a	5.0	GoodResponse	0	0.045	731.158	14	77	Feedback	AvoidedLoss	True
733.567	2.585	Lose2	0.6795	n/a	Yes	2.585	n/a	n/a	GoodResponse	0	0.0	n/a	14	77	ISIslide	AvoidedLoss	True
