onset	duration	cue_type	current_mean_accuracy	duration_error	is_hit	isi_adjusted	onset_delay	response	response_type	reward	rt	rt_time	total_reward	trial_number	trial_phase	trial_type	one_press
11.107	0.25	Control	1.0	0.0	Yes	2.943	0.007	n/a	GoodResponse	0	n/a	n/a	0	0	Cue	Neutral	True
11.357	3.85	Control	1.0	0.0	Yes	2.943	0.0	n/a	GoodResponse	0	n/a	n/a	0	0	Fixation	Neutral	True
15.206	0.4	Control	1.0	0.001	Yes	2.943	-0.001	2.0	GoodResponse	0	0.21	14.416	0	0	Target	Neutral	True
15.416	0.3	Control	1.0	0.001	Yes	2.943	-0.001	2.0	GoodResponse	0	0.21	n/a	0	0	ButtonPress	Neutral	True
15.606	0.3	Control	1.0	n/a	Yes	2.943	n/a	n/a	GoodResponse	0	n/a	n/a	0	0	Blank	Neutral	True
15.905	1.45	Control	1.0	n/a	Yes	2.943	n/a	5.0	GoodResponse	0	0.024	14.929	0	0	Feedback	Neutral	True
17.355	2.943	Control	1.0	n/a	Yes	2.943	n/a	n/a	GoodResponse	0	0.0	n/a	0	0	ISIslide	Neutral	True
20.321	0.25	Lose2	1.0	0.0	Yes	2.779	0.021	n/a	GoodResponse	0	n/a	n/a	0	1	Cue	AvoidedLoss	True
20.57	4.0	Lose2	1.0	0.001	Yes	2.779	-0.001	n/a	GoodResponse	0	n/a	n/a	0	1	Fixation	AvoidedLoss	True
24.569	0.39	Lose2	1.0	0.002	Yes	2.779	-0.002	2.0	GoodResponse	0	0.198	23.767	0	1	Target	AvoidedLoss	True
24.767	0.3	Lose2	1.0	0.002	Yes	2.779	-0.002	2.0	GoodResponse	0	0.198	n/a	0	1	ButtonPress	AvoidedLoss	True
24.969	0.31	Lose2	1.0	n/a	Yes	2.779	n/a	n/a	GoodResponse	0	n/a	n/a	0	1	Blank	AvoidedLoss	True
25.269	1.45	Lose2	1.0	n/a	Yes	2.779	n/a	5.0	GoodResponse	0	0.026	24.295	0	1	Feedback	AvoidedLoss	True
26.718	2.779	Lose2	1.0	n/a	Yes	2.779	n/a	n/a	GoodResponse	0	0.0	n/a	0	1	ISIslide	AvoidedLoss	True
29.517	0.25	Control	1.0	0.0	Yes	2.583	0.017	n/a	GoodResponse	0	n/a	n/a	0	2	Cue	Neutral	True
29.767	4.1	Control	1.0	0.0	Yes	2.583	0.0	n/a	GoodResponse	0	n/a	n/a	0	2	Fixation	Neutral	True
33.866	0.38	Control	1.0	0.001	Yes	2.583	-0.001	2.0	GoodResponse	0	0.187	33.053	0	2	Target	Neutral	True
34.053	0.3	Control	1.0	0.001	Yes	2.583	-0.001	2.0	GoodResponse	0	0.187	n/a	0	2	ButtonPress	Neutral	True
34.249	0.32	Control	1.0	n/a	Yes	2.583	n/a	n/a	GoodResponse	0	n/a	n/a	0	2	Blank	Neutral	True
34.565	1.45	Control	1.0	n/a	Yes	2.583	n/a	5.0	GoodResponse	0	0.047	33.612	0	2	Feedback	Neutral	True
36.015	2.583	Control	1.0	n/a	Yes	2.583	n/a	n/a	GoodResponse	0	0.0	n/a	0	2	ISIslide	Neutral	True
38.631	0.25	Win2	1.0	0.0	Yes	2.819	0.031	n/a	GoodResponse	1	n/a	n/a	1	3	Cue	Win	True
38.881	3.95	Win2	1.0	0.0	Yes	2.819	0.0	n/a	GoodResponse	1	n/a	n/a	1	3	Fixation	Win	True
42.829	0.37	Win2	1.0	0.002	Yes	2.819	-0.002	2.0	GoodResponse	1	0.225	42.054	1	3	Target	Win	True
43.054	0.3	Win2	1.0	0.002	Yes	2.819	-0.002	2.0	GoodResponse	1	0.225	n/a	1	3	ButtonPress	Win	True
43.212	0.33	Win2	1.0	n/a	Yes	2.819	n/a	n/a	GoodResponse	1	n/a	n/a	1	3	Blank	Win	True
43.529	1.45	Win2	1.0	n/a	Yes	2.819	n/a	5.0	GoodResponse	1	0.009	42.538	1	3	Feedback	Win	True
44.978	2.819	Win2	1.0	n/a	Yes	2.819	n/a	n/a	GoodResponse	1	0.0	n/a	1	3	ISIslide	Win	True
47.827	0.25	Win2	1.0	0.0	Yes	3.273	0.027	n/a	GoodResponse	1	n/a	n/a	2	4	Cue	Win	True
48.077	4.0	Win2	1.0	0.0	Yes	3.273	0.0	n/a	GoodResponse	1	n/a	n/a	2	4	Fixation	Win	True
52.076	0.36	Win2	1.0	0.001	Yes	3.273	-0.001	2.0	GoodResponse	1	0.228	51.304	2	4	Target	Win	True
52.304	0.3	Win2	1.0	0.001	Yes	3.273	-0.001	2.0	GoodResponse	1	0.228	n/a	2	4	ButtonPress	Win	True
52.442	0.34	Win2	1.0	n/a	Yes	3.273	n/a	n/a	GoodResponse	1	n/a	n/a	2	4	Blank	Win	True
52.776	1.45	Win2	1.0	n/a	Yes	3.273	n/a	5.0	GoodResponse	1	0.03	51.806	2	4	Feedback	Win	True
54.225	3.273	Win2	1.0	n/a	Yes	3.273	n/a	n/a	GoodResponse	1	0.0	n/a	2	4	ISIslide	Win	True
57.524	0.25	Win2	1.0	0.0	Yes	2.776	0.024	n/a	GoodResponse	1	n/a	n/a	3	5	Cue	Win	True
57.774	4.0	Win2	1.0	0.0	Yes	2.776	0.0	n/a	GoodResponse	1	n/a	n/a	3	5	Fixation	Win	True
61.772	0.35	Win2	1.0	0.002	Yes	2.776	-0.002	2.0	GoodResponse	1	0.207	60.979	3	5	Target	Win	True
61.979	0.3	Win2	1.0	0.002	Yes	2.776	-0.002	2.0	GoodResponse	1	0.207	n/a	3	5	ButtonPress	Win	True
62.122	0.35	Win2	1.0	n/a	Yes	2.776	n/a	n/a	GoodResponse	1	n/a	n/a	3	5	Blank	Win	True
62.472	1.45	Win2	1.0	n/a	Yes	2.776	n/a	5.0	GoodResponse	1	0.042	61.514	3	5	Feedback	Win	True
63.922	2.776	Win2	1.0	n/a	Yes	2.776	n/a	n/a	GoodResponse	1	0.0	n/a	3	5	ISIslide	Win	True
66.721	0.25	Lose2	1.0	0.0	Yes	2.729	0.021	n/a	GoodResponse	0	n/a	n/a	3	6	Cue	AvoidedLoss	True
66.97	3.95	Lose2	1.0	0.001	Yes	2.729	-0.001	n/a	GoodResponse	0	n/a	n/a	3	6	Fixation	AvoidedLoss	True
70.919	0.34	Lose2	1.0	0.002	Yes	2.729	-0.002	2.0	GoodResponse	0	0.304	70.223	3	6	Target	AvoidedLoss	True
71.223	0.3	Lose2	1.0	0.002	Yes	2.729	-0.002	2.0	GoodResponse	0	0.304	n/a	3	6	ButtonPress	AvoidedLoss	True
71.269	0.36	Lose2	1.0	n/a	Yes	2.729	n/a	n/a	GoodResponse	0	n/a	n/a	3	6	Blank	AvoidedLoss	True
71.619	1.45	Lose2	1.0	n/a	Yes	2.729	n/a	5.0	GoodResponse	0	0.017	70.636	3	6	Feedback	AvoidedLoss	True
73.068	2.729	Lose2	1.0	n/a	Yes	2.729	n/a	n/a	GoodResponse	0	0.0	n/a	3	6	ISIslide	AvoidedLoss	True
75.817	0.25	Lose2	1.0	0.0	Yes	4.033	0.017	n/a	GoodResponse	0	n/a	n/a	3	7	Cue	AvoidedLoss	True
76.067	4.05	Lose2	1.0	0.0	Yes	4.033	0.0	n/a	GoodResponse	0	n/a	n/a	3	7	Fixation	AvoidedLoss	True
80.116	0.33	Lose2	1.0	0.001	Yes	4.033	-0.001	2.0	GoodResponse	0	0.218	79.334	3	7	Target	AvoidedLoss	True
80.334	0.3	Lose2	1.0	0.001	Yes	4.033	-0.001	2.0	GoodResponse	0	0.218	n/a	3	7	ButtonPress	AvoidedLoss	True
80.449	0.37	Lose2	1.0	n/a	Yes	4.033	n/a	n/a	GoodResponse	0	n/a	n/a	3	7	Blank	AvoidedLoss	True
80.815	1.45	Lose2	1.0	n/a	Yes	4.033	n/a	5.0	GoodResponse	0	0.039	79.854	3	7	Feedback	AvoidedLoss	True
82.265	4.033	Lose2	1.0	n/a	Yes	4.033	n/a	n/a	GoodResponse	0	0.0	n/a	3	7	ISIslide	AvoidedLoss	True
86.314	0.25	Lose2	1.0	0.0	Yes	3.036	0.014	n/a	GoodResponse	0	n/a	n/a	3	8	Cue	AvoidedLoss	True
86.563	3.95	Lose2	1.0	0.001	Yes	3.036	-0.001	n/a	GoodResponse	0	n/a	n/a	3	8	Fixation	AvoidedLoss	True
90.512	0.32	Lose2	1.0	0.002	Yes	3.036	-0.002	2.0	GoodResponse	0	0.266	89.778	3	8	Target	AvoidedLoss	True
90.778	0.3	Lose2	1.0	0.002	Yes	3.036	-0.002	2.0	GoodResponse	0	0.266	n/a	3	8	ButtonPress	AvoidedLoss	True
90.845	0.38	Lose2	1.0	n/a	Yes	3.036	n/a	n/a	GoodResponse	0	n/a	n/a	3	8	Blank	AvoidedLoss	True
91.212	1.45	Lose2	1.0	n/a	Yes	3.036	n/a	5.0	GoodResponse	0	0.033	90.245	3	8	Feedback	AvoidedLoss	True
92.661	3.036	Lose2	1.0	n/a	Yes	3.036	n/a	n/a	GoodResponse	0	0.0	n/a	3	8	ISIslide	AvoidedLoss	True
95.727	0.25	Lose2	1.0	0.0	Yes	3.123	0.027	n/a	GoodResponse	0	n/a	n/a	3	9	Cue	AvoidedLoss	True
95.977	3.95	Lose2	1.0	0.0	Yes	3.123	0.0	n/a	GoodResponse	0	n/a	n/a	3	9	Fixation	AvoidedLoss	True
99.925	0.31	Lose2	1.0	0.002	Yes	3.123	-0.002	2.0	GoodResponse	0	0.224	99.149	3	9	Target	AvoidedLoss	True
100.149	0.3	Lose2	1.0	0.002	Yes	3.123	-0.002	2.0	GoodResponse	0	0.224	n/a	3	9	ButtonPress	AvoidedLoss	True
100.242	0.39	Lose2	1.0	n/a	Yes	3.123	n/a	n/a	GoodResponse	0	n/a	n/a	3	9	Blank	AvoidedLoss	True
100.625	1.45	Lose2	1.0	n/a	Yes	3.123	n/a	5.0	GoodResponse	0	0.035	99.66	3	9	Feedback	AvoidedLoss	True
102.075	3.123	Lose2	1.0	n/a	Yes	3.123	n/a	n/a	GoodResponse	0	0.0	n/a	3	9	ISIslide	AvoidedLoss	True
105.223	0.25	Control	0.9091	0.0	No	3.277	0.023	n/a	NoResponse	0	n/a	n/a	3	10	Cue	Neutral	False
105.473	4.0	Control	0.9091	0.0	No	3.277	0.0	2.0	NoResponse	0	3.897	108.37	3	10	Fixation	Neutral	False
109.37	0.3	Control	0.9091	0.0	No	3.277	0.0	2.0	NoResponse	0	3.897	n/a	3	10	ButtonPress	Neutral	False
109.472	0.3	Control	0.9091	0.001	No	3.277	-0.001	2.0	NoResponse	0	0.392	108.864	3	10	Target	Neutral	False
109.772	0.4	Control	0.9091	n/a	No	3.277	n/a	n/a	NoResponse	0	n/a	n/a	3	10	Blank	Neutral	False
109.864	0.3	Control	0.9091	0.001	No	3.277	-0.001	2.0	NoResponse	0	0.392	n/a	3	10	ButtonPress	Neutral	False
110.172	1.45	Control	0.9091	n/a	No	3.277	n/a	5.0	NoResponse	0	0.048	109.22	3	10	Feedback	Neutral	False
111.621	3.277	Control	0.9091	n/a	No	3.277	n/a	n/a	NoResponse	0	0.0	n/a	3	10	ISIslide	Neutral	False
114.92	0.25	Lose2	0.9167000000000001	0.0	Yes	2.73	0.02	n/a	GoodResponse	0	n/a	n/a	3	11	Cue	AvoidedLoss	True
115.17	4.05	Lose2	0.9167000000000001	0.0	Yes	2.73	0.0	n/a	GoodResponse	0	n/a	n/a	3	11	Fixation	AvoidedLoss	True
119.218	0.29	Lose2	0.9167000000000001	0.002	Yes	2.73	-0.002	2.0	GoodResponse	0	0.238	118.456	3	11	Target	AvoidedLoss	True
119.456	0.3	Lose2	0.9167000000000001	0.002	Yes	2.73	-0.002	2.0	GoodResponse	0	0.238	n/a	3	11	ButtonPress	AvoidedLoss	True
119.518	0.41	Lose2	0.9167000000000001	n/a	Yes	2.73	n/a	n/a	GoodResponse	0	n/a	n/a	3	11	Blank	AvoidedLoss	True
119.918	1.45	Lose2	0.9167000000000001	n/a	Yes	2.73	n/a	5.0	GoodResponse	0	0.009	118.927	3	11	Feedback	AvoidedLoss	True
121.368	2.73	Lose2	0.9167000000000001	n/a	Yes	2.73	n/a	n/a	GoodResponse	0	0.0	n/a	3	11	ISIslide	AvoidedLoss	True
124.117	0.25	Control	0.9231	0.0	Yes	2.983	0.017	n/a	GoodResponse	0	n/a	n/a	3	12	Cue	Neutral	True
124.367	3.9	Control	0.9231	0.0	Yes	2.983	0.0	n/a	GoodResponse	0	n/a	n/a	3	12	Fixation	Neutral	True
128.265	0.28	Control	0.9231	0.002	Yes	2.983	-0.002	2.0	GoodResponse	0	0.246	127.511	3	12	Target	Neutral	True
128.511	0.3	Control	0.9231	0.002	Yes	2.983	-0.002	2.0	GoodResponse	0	0.246	n/a	3	12	ButtonPress	Neutral	True
128.548	0.42	Control	0.9231	n/a	Yes	2.983	n/a	n/a	GoodResponse	0	n/a	n/a	3	12	Blank	Neutral	True
128.965	1.45	Control	0.9231	n/a	Yes	2.983	n/a	5.0	GoodResponse	0	0.035	128.0	3	12	Feedback	Neutral	True
130.414	2.983	Control	0.9231	n/a	Yes	2.983	n/a	n/a	GoodResponse	0	0.0	n/a	3	12	ISIslide	Neutral	True
133.413	0.25	Control	0.9286	0.0	Yes	2.787	0.013	n/a	GoodResponse	0	n/a	n/a	3	13	Cue	Neutral	True
133.663	4.0	Control	0.9286	0.0	Yes	2.787	0.0	n/a	GoodResponse	0	n/a	n/a	3	13	Fixation	Neutral	True
137.662	0.27	Control	0.9286	0.001	Yes	2.787	-0.001	2.0	GoodResponse	0	0.111	136.773	3	13	Target	Neutral	True
137.773	0.3	Control	0.9286	0.001	Yes	2.787	-0.001	2.0	GoodResponse	0	0.111	n/a	3	13	ButtonPress	Neutral	True
137.945	0.43	Control	0.9286	n/a	Yes	2.787	n/a	n/a	GoodResponse	0	n/a	n/a	3	13	Blank	Neutral	True
138.361	1.45	Control	0.9286	n/a	Yes	2.787	n/a	5.0	GoodResponse	0	0.007	137.368	3	13	Feedback	Neutral	True
139.811	2.787	Control	0.9286	n/a	Yes	2.787	n/a	n/a	GoodResponse	0	0.0	n/a	3	13	ISIslide	Neutral	True
142.627	0.25	Win2	0.9333	0.0	Yes	2.673	0.027	n/a	GoodResponse	1	n/a	n/a	4	14	Cue	Win	True
142.877	4.1	Win2	0.9333	0.0	Yes	2.673	0.0	n/a	GoodResponse	1	n/a	n/a	4	14	Fixation	Win	True
146.975	0.26	Win2	0.9333	0.002	Yes	2.673	-0.002	2.0	GoodResponse	1	0.212	146.187	4	14	Target	Win	True
147.187	0.3	Win2	0.9333	0.002	Yes	2.673	-0.002	2.0	GoodResponse	1	0.212	n/a	4	14	ButtonPress	Win	True
147.242	0.44	Win2	0.9333	n/a	Yes	2.673	n/a	n/a	GoodResponse	1	n/a	n/a	4	14	Blank	Win	True
147.675	1.45	Win2	0.9333	n/a	Yes	2.673	n/a	5.0	GoodResponse	1	0.008	146.683	4	14	Feedback	Win	True
149.124	2.673	Win2	0.9333	n/a	Yes	2.673	n/a	n/a	GoodResponse	1	0.0	n/a	4	14	ISIslide	Win	True
151.823	0.25	Control	0.9375	0.0	Yes	2.977	0.023	n/a	GoodResponse	0	n/a	n/a	4	15	Cue	Neutral	True
152.073	4.0	Control	0.9375	0.0	Yes	2.977	0.0	n/a	GoodResponse	0	n/a	n/a	4	15	Fixation	Neutral	True
156.072	0.25	Control	0.9375	0.001	Yes	2.977	-0.001	2.0	GoodResponse	0	0.235	155.307	4	15	Target	Neutral	True
156.307	0.3	Control	0.9375	0.001	Yes	2.977	-0.001	2.0	GoodResponse	0	0.235	n/a	4	15	ButtonPress	Neutral	True
156.322	0.45	Control	0.9375	n/a	Yes	2.977	n/a	n/a	GoodResponse	0	n/a	n/a	4	15	Blank	Neutral	True
156.772	1.45	Control	0.9375	n/a	Yes	2.977	n/a	5.0	GoodResponse	0	0.033	155.805	4	15	Feedback	Neutral	True
158.221	2.977	Control	0.9375	n/a	Yes	2.977	n/a	n/a	GoodResponse	0	0.0	n/a	4	15	ISIslide	Neutral	True
161.22	0.25	Win2	0.8824	0.0	No	2.88	0.02	n/a	NoResponse	0	n/a	n/a	4	16	Cue	MissedWin	True
161.47	4.0	Win2	0.8824	0.0	No	2.88	0.0	n/a	NoResponse	0	n/a	n/a	4	16	Fixation	MissedWin	True
165.468	0.24	Win2	0.8824	0.002	No	2.88	-0.002	2.0	NoResponse	0	0.251	164.719	4	16	Target	MissedWin	True
165.718	0.46	Win2	0.8824	n/a	No	2.88	n/a	n/a	NoResponse	0	n/a	n/a	4	16	Blank	MissedWin	True
165.719	0.3	Win2	0.8824	0.002	No	2.88	-0.002	2.0	NoResponse	0	0.251	n/a	4	16	ButtonPress	MissedWin	True
166.168	1.45	Win2	0.8824	n/a	No	2.88	n/a	5.0	NoResponse	0	0.007	165.175	4	16	Feedback	MissedWin	True
167.618	2.88	Win2	0.8824	n/a	No	2.88	n/a	n/a	NoResponse	0	0.0	n/a	4	16	ISIslide	MissedWin	True
170.517	0.25	Lose2	0.8889	0.0	Yes	2.733	0.017	n/a	GoodResponse	0	n/a	n/a	4	17	Cue	AvoidedLoss	True
170.767	3.95	Lose2	0.8889	0.0	Yes	2.733	0.0	n/a	GoodResponse	0	n/a	n/a	4	17	Fixation	AvoidedLoss	True
174.715	0.23	Lose2	0.8889	0.002	Yes	2.733	-0.002	2.0	GoodResponse	0	0.203	173.918	4	17	Target	AvoidedLoss	True
174.918	0.3	Lose2	0.8889	0.002	Yes	2.733	-0.002	2.0	GoodResponse	0	0.203	n/a	4	17	ButtonPress	AvoidedLoss	True
174.948	0.47	Lose2	0.8889	n/a	Yes	2.733	n/a	n/a	GoodResponse	0	n/a	n/a	4	17	Blank	AvoidedLoss	True
175.415	1.45	Lose2	0.8889	n/a	Yes	2.733	n/a	5.0	GoodResponse	0	0.023	174.438	4	17	Feedback	AvoidedLoss	True
176.864	2.733	Lose2	0.8889	n/a	Yes	2.733	n/a	n/a	GoodResponse	0	0.0	n/a	4	17	ISIslide	AvoidedLoss	True
179.613	0.25	Lose2	0.8946999999999999	0.0	Yes	2.737	0.013	n/a	GoodResponse	0	n/a	n/a	4	18	Cue	AvoidedLoss	True
179.863	4.05	Lose2	0.8946999999999999	0.0	Yes	2.737	0.0	n/a	GoodResponse	0	n/a	n/a	4	18	Fixation	AvoidedLoss	True
183.912	0.22	Lose2	0.8946999999999999	0.001	Yes	2.737	-0.001	2.0	GoodResponse	0	0.219	183.131	4	18	Target	AvoidedLoss	True
184.128	0.48	Lose2	0.8946999999999999	n/a	Yes	2.737	n/a	n/a	GoodResponse	0	n/a	n/a	4	18	Blank	AvoidedLoss	True
184.131	0.3	Lose2	0.8946999999999999	0.001	Yes	2.737	-0.001	2.0	GoodResponse	0	0.219	n/a	4	18	ButtonPress	AvoidedLoss	True
184.612	1.45	Lose2	0.8946999999999999	n/a	Yes	2.737	n/a	5.0	GoodResponse	0	0.046	183.658	4	18	Feedback	AvoidedLoss	True
186.061	2.737	Lose2	0.8946999999999999	n/a	Yes	2.737	n/a	n/a	GoodResponse	0	0.0	n/a	4	18	ISIslide	AvoidedLoss	True
188.827	0.25	Control	0.85	0.0	No	2.923	0.027	n/a	NoResponse	0	n/a	n/a	4	19	Cue	Neutral	True
189.077	3.95	Control	0.85	0.0	No	2.923	0.0	n/a	NoResponse	0	n/a	n/a	4	19	Fixation	Neutral	True
193.025	0.21	Control	0.85	0.002	No	2.923	-0.002	2.0	NoResponse	0	0.244	192.269	4	19	Target	Neutral	True
193.242	0.49	Control	0.85	n/a	No	2.923	n/a	n/a	NoResponse	0	n/a	n/a	4	19	Blank	Neutral	True
193.269	0.3	Control	0.85	0.002	No	2.923	-0.002	2.0	NoResponse	0	0.244	n/a	4	19	ButtonPress	Neutral	True
193.725	1.45	Control	0.85	n/a	No	2.923	n/a	5.0	NoResponse	0	0.007	192.732	4	19	Feedback	Neutral	True
195.174	2.923	Control	0.85	n/a	No	2.923	n/a	n/a	NoResponse	0	0.0	n/a	4	19	ISIslide	Neutral	True
198.123	0.25	Control	0.8095	0.0	No	2.627	0.023	n/a	NoResponse	0	n/a	n/a	4	20	Cue	Neutral	True
198.373	4.05	Control	0.8095	0.0	No	2.627	0.0	n/a	NoResponse	0	n/a	n/a	4	20	Fixation	Neutral	True
202.422	0.2	Control	0.8095	0.001	No	2.627	-0.001	2.0	NoResponse	0	0.21	201.632	4	20	Target	Neutral	True
202.622	0.5	Control	0.8095	n/a	No	2.627	n/a	n/a	NoResponse	0	n/a	n/a	4	20	Blank	Neutral	True
202.632	0.3	Control	0.8095	0.001	No	2.627	-0.001	2.0	NoResponse	0	0.21	n/a	4	20	ButtonPress	Neutral	True
203.122	1.45	Control	0.8095	n/a	No	2.627	n/a	5.0	NoResponse	0	0.024	202.146	4	20	Feedback	Neutral	True
204.571	2.627	Control	0.8095	n/a	No	2.627	n/a	n/a	NoResponse	0	0.0	n/a	4	20	ISIslide	Neutral	True
207.22	0.25	Control	0.8181999999999999	0.0	Yes	2.78	0.02	n/a	GoodResponse	0	n/a	n/a	4	21	Cue	Neutral	True
207.47	4.1	Control	0.8181999999999999	0.0	Yes	2.78	0.0	n/a	GoodResponse	0	n/a	n/a	4	21	Fixation	Neutral	True
211.569	0.19	Control	0.8181999999999999	0.001	Yes	2.78	-0.001	2.0	GoodResponse	0	0.182	210.751	4	21	Target	Neutral	True
211.751	0.3	Control	0.8181999999999999	0.001	Yes	2.78	-0.001	2.0	GoodResponse	0	0.182	n/a	4	21	ButtonPress	Neutral	True
211.768	0.51	Control	0.8181999999999999	n/a	Yes	2.78	n/a	n/a	GoodResponse	0	n/a	n/a	4	21	Blank	Neutral	True
212.268	1.45	Control	0.8181999999999999	n/a	Yes	2.78	n/a	5.0	GoodResponse	0	0.048	211.316	4	21	Feedback	Neutral	True
213.718	2.78	Control	0.8181999999999999	n/a	Yes	2.78	n/a	n/a	GoodResponse	0	0.0	n/a	4	21	ISIslide	Neutral	True
216.517	0.25	Control	0.7826000000000001	0.0	No	2.783	0.017	n/a	NoResponse	0	n/a	n/a	4	22	Cue	Neutral	True
216.767	4.0	Control	0.7826000000000001	0.0	No	2.783	0.0	n/a	NoResponse	0	n/a	n/a	4	22	Fixation	Neutral	True
220.765	0.18	Control	0.7826000000000001	0.002	No	2.783	-0.002	2.0	NoResponse	0	0.214	219.979	4	22	Target	Neutral	True
220.948	0.52	Control	0.7826000000000001	n/a	No	2.783	n/a	n/a	NoResponse	0	n/a	n/a	4	22	Blank	Neutral	True
220.979	0.3	Control	0.7826000000000001	0.002	No	2.783	-0.002	2.0	NoResponse	0	0.214	n/a	4	22	ButtonPress	Neutral	True
221.465	1.45	Control	0.7826000000000001	n/a	No	2.783	n/a	5.0	NoResponse	0	0.021	220.486	4	22	Feedback	Neutral	True
222.914	2.783	Control	0.7826000000000001	n/a	No	2.783	n/a	n/a	NoResponse	0	0.0	n/a	4	22	ISIslide	Neutral	True
225.73	0.25	Control	0.75	0.0	No	2.77	0.03	n/a	NoResponse	0	n/a	n/a	4	23	Cue	Neutral	True
225.98	3.9	Control	0.75	0.0	No	2.77	0.0	n/a	NoResponse	0	n/a	n/a	4	23	Fixation	Neutral	True
229.879	0.17	Control	0.75	0.001	No	2.77	-0.001	2.0	NoResponse	0	0.244	229.123	4	23	Target	Neutral	True
230.062	0.53	Control	0.75	n/a	No	2.77	n/a	n/a	NoResponse	0	n/a	n/a	4	23	Blank	Neutral	True
230.123	0.3	Control	0.75	0.001	No	2.77	-0.001	2.0	NoResponse	0	0.244	n/a	4	23	ButtonPress	Neutral	True
230.578	1.45	Control	0.75	n/a	No	2.77	n/a	5.0	NoResponse	0	0.03	229.608	4	23	Feedback	Neutral	True
232.028	2.77	Control	0.75	n/a	No	2.77	n/a	n/a	NoResponse	0	0.0	n/a	4	23	ISIslide	Neutral	True
234.827	0.25	Win2	0.72	0.0	No	3.123	0.027	n/a	NoResponse	0	n/a	n/a	4	24	Cue	MissedWin	True
235.077	3.95	Win2	0.72	0.0	No	3.123	0.0	n/a	NoResponse	0	n/a	n/a	4	24	Fixation	MissedWin	True
239.025	0.16	Win2	0.72	0.002	No	3.123	-0.002	2.0	NoResponse	0	0.188	238.213	4	24	Target	MissedWin	True
239.192	0.54	Win2	0.72	n/a	No	3.123	n/a	n/a	NoResponse	0	n/a	n/a	4	24	Blank	MissedWin	True
239.213	0.3	Win2	0.72	0.002	No	3.123	-0.002	2.0	NoResponse	0	0.188	n/a	4	24	ButtonPress	MissedWin	True
239.725	1.45	Win2	0.72	n/a	No	3.123	n/a	5.0	NoResponse	0	0.006	238.731	4	24	Feedback	MissedWin	True
241.175	3.123	Win2	0.72	n/a	No	3.123	n/a	n/a	NoResponse	0	0.0	n/a	4	24	ISIslide	MissedWin	True
244.323	0.25	Win2	0.6923	0.001	No	3.077	0.023	n/a	NoResponse	0	n/a	n/a	4	25	Cue	MissedWin	True
244.573	4.0	Win2	0.6923	0.0	No	3.077	0.0	n/a	NoResponse	0	n/a	n/a	4	25	Fixation	MissedWin	True
248.572	0.15	Win2	0.6923	0.001	No	3.077	-0.001	2.0	NoResponse	0	0.195	247.767	4	25	Target	MissedWin	True
248.722	0.55	Win2	0.6923	n/a	No	3.077	n/a	n/a	NoResponse	0	n/a	n/a	4	25	Blank	MissedWin	True
248.767	0.3	Win2	0.6923	0.001	No	3.077	-0.001	2.0	NoResponse	0	0.195	n/a	4	25	ButtonPress	MissedWin	True
249.272	1.45	Win2	0.6923	n/a	No	3.077	n/a	5.0	NoResponse	0	0.019	248.291	4	25	Feedback	MissedWin	True
250.721	3.077	Win2	0.6923	n/a	No	3.077	n/a	n/a	NoResponse	0	0.0	n/a	4	25	ISIslide	MissedWin	True
253.82	0.25	Win2	0.6667000000000001	0.0	No	2.93	0.02	n/a	NoResponse	0	n/a	n/a	4	26	Cue	MissedWin	True
254.07	3.95	Win2	0.6667000000000001	0.0	No	2.93	0.0	n/a	NoResponse	0	n/a	n/a	4	26	Fixation	MissedWin	True
258.018	0.15	Win2	0.6667000000000001	0.002	No	2.93	-0.002	2.0	NoResponse	0	0.195	257.213	4	26	Target	MissedWin	True
258.168	0.55	Win2	0.6667000000000001	n/a	No	2.93	n/a	n/a	NoResponse	0	n/a	n/a	4	26	Blank	MissedWin	True
258.213	0.3	Win2	0.6667000000000001	0.002	No	2.93	-0.002	2.0	NoResponse	0	0.195	n/a	4	26	ButtonPress	MissedWin	True
258.718	1.45	Win2	0.6667000000000001	n/a	No	2.93	n/a	5.0	NoResponse	0	0.036	257.754	4	26	Feedback	MissedWin	True
260.168	2.93	Win2	0.6667000000000001	n/a	No	2.93	n/a	n/a	NoResponse	0	0.0	n/a	4	26	ISIslide	MissedWin	True
263.117	0.25	Lose2	0.6429	0.0	No	2.833	0.017	n/a	NoResponse	-1	n/a	n/a	3	27	Cue	Loss	True
263.367	4.05	Lose2	0.6429	0.0	No	2.833	0.0	n/a	NoResponse	-1	n/a	n/a	3	27	Fixation	Loss	True
267.415	0.15	Lose2	0.6429	0.002	No	2.833	-0.002	2.0	NoResponse	-1	0.207	266.622	3	27	Target	Loss	True
267.565	0.55	Lose2	0.6429	n/a	No	2.833	n/a	n/a	NoResponse	-1	n/a	n/a	3	27	Blank	Loss	True
267.622	0.3	Lose2	0.6429	0.002	No	2.833	-0.002	2.0	NoResponse	-1	0.207	n/a	3	27	ButtonPress	Loss	True
268.115	1.45	Lose2	0.6429	n/a	No	2.833	n/a	5.0	NoResponse	-1	0.006	267.121	3	27	Feedback	Loss	True
269.564	2.833	Lose2	0.6429	n/a	No	2.833	n/a	n/a	NoResponse	-1	0.0	n/a	3	27	ISIslide	Loss	True
272.413	0.25	Control	0.6207	0.0	No	2.837	0.013	n/a	NoResponse	0	n/a	n/a	3	28	Cue	Neutral	True
272.663	4.05	Control	0.6207	0.0	No	2.837	0.0	n/a	NoResponse	0	n/a	n/a	3	28	Fixation	Neutral	True
276.712	0.16	Control	0.6207	0.001	No	2.837	-0.001	2.0	NoResponse	0	0.202	275.914	3	28	Target	Neutral	True
276.878	0.54	Control	0.6207	n/a	No	2.837	n/a	n/a	NoResponse	0	n/a	n/a	3	28	Blank	Neutral	True
276.914	0.3	Control	0.6207	0.001	No	2.837	-0.001	2.0	NoResponse	0	0.202	n/a	3	28	ButtonPress	Neutral	True
277.412	1.45	Control	0.6207	n/a	No	2.837	n/a	5.0	NoResponse	0	0.024	276.436	3	28	Feedback	Neutral	True
278.861	2.837	Control	0.6207	n/a	No	2.837	n/a	n/a	NoResponse	0	0.0	n/a	3	28	ISIslide	Neutral	True
281.727	0.25	Lose2	0.6	0.0	No	2.823	0.027	n/a	LatePress	-1	n/a	n/a	2	29	Cue	Loss	True
281.977	3.95	Lose2	0.6	0.0	No	2.823	0.0	n/a	LatePress	-1	n/a	n/a	2	29	Fixation	Loss	True
285.925	0.17	Lose2	0.6	0.002	No	2.823	-0.002	2.0	LatePress	-1	0.178	285.103	2	29	Target	Loss	True
286.103	0.3	Lose2	0.6	0.002	No	2.823	-0.002	2.0	LatePress	-1	0.178	n/a	2	29	ButtonPress	Loss	True
286.108	0.53	Lose2	0.6	n/a	No	2.823	n/a	n/a	LatePress	-1	n/a	n/a	2	29	Blank	Loss	True
286.625	1.45	Lose2	0.6	n/a	No	2.823	n/a	5.0	LatePress	-1	0.031	285.656	2	29	Feedback	Loss	True
288.074	2.823	Lose2	0.6	n/a	No	2.823	n/a	n/a	LatePress	-1	0.0	n/a	2	29	ISIslide	Loss	True
290.923	0.25	Win2	0.5806	0.0	No	2.777	0.023	n/a	NoResponse	0	n/a	n/a	2	30	Cue	MissedWin	True
291.173	3.9	Win2	0.5806	0.0	No	2.777	0.0	n/a	NoResponse	0	n/a	n/a	2	30	Fixation	MissedWin	True
295.072	0.18	Win2	0.5806	0.001	No	2.777	-0.001	2.0	NoResponse	0	0.197	294.269	2	30	Target	MissedWin	True
295.255	0.52	Win2	0.5806	n/a	No	2.777	n/a	n/a	NoResponse	0	n/a	n/a	2	30	Blank	MissedWin	True
295.269	0.3	Win2	0.5806	0.001	No	2.777	-0.001	2.0	NoResponse	0	0.197	n/a	2	30	ButtonPress	MissedWin	True
295.772	1.45	Win2	0.5806	n/a	No	2.777	n/a	5.0	NoResponse	0	0.007	294.779	2	30	Feedback	MissedWin	True
297.221	2.777	Win2	0.5806	n/a	No	2.777	n/a	n/a	NoResponse	0	0.0	n/a	2	30	ISIslide	MissedWin	True
300.02	0.25	Lose2	0.5938	0.0	Yes	2.83	0.02	n/a	GoodResponse	0	n/a	n/a	2	31	Cue	AvoidedLoss	True
300.27	4.05	Lose2	0.5938	0.0	Yes	2.83	0.0	n/a	GoodResponse	0	n/a	n/a	2	31	Fixation	AvoidedLoss	True
304.319	0.19	Lose2	0.5938	0.001	Yes	2.83	-0.001	2.0	GoodResponse	0	0.102	303.421	2	31	Target	AvoidedLoss	True
304.421	0.3	Lose2	0.5938	0.001	Yes	2.83	-0.001	2.0	GoodResponse	0	0.102	n/a	2	31	ButtonPress	AvoidedLoss	True
304.518	0.51	Lose2	0.5938	n/a	Yes	2.83	n/a	n/a	GoodResponse	0	n/a	n/a	2	31	Blank	AvoidedLoss	True
305.018	1.45	Lose2	0.5938	n/a	Yes	2.83	n/a	5.0	GoodResponse	0	0.028	304.046	2	31	Feedback	AvoidedLoss	True
306.468	2.83	Lose2	0.5938	n/a	Yes	2.83	n/a	n/a	GoodResponse	0	0.0	n/a	2	31	ISIslide	AvoidedLoss	True
309.317	0.25	Lose2	0.6061	0.0	Yes	2.633	0.017	n/a	GoodResponse	0	n/a	n/a	2	32	Cue	AvoidedLoss	True
309.567	4.15	Lose2	0.6061	0.0	Yes	2.633	0.0	n/a	GoodResponse	0	n/a	n/a	2	32	Fixation	AvoidedLoss	True
313.715	0.2	Lose2	0.6061	0.002	Yes	2.633	-0.002	2.0	GoodResponse	0	0.198	312.913	2	32	Target	AvoidedLoss	True
313.913	0.3	Lose2	0.6061	0.002	Yes	2.633	-0.002	2.0	GoodResponse	0	0.198	n/a	2	32	ButtonPress	AvoidedLoss	True
313.915	0.5	Lose2	0.6061	n/a	Yes	2.633	n/a	n/a	GoodResponse	0	n/a	n/a	2	32	Blank	AvoidedLoss	True
314.415	1.45	Lose2	0.6061	n/a	Yes	2.633	n/a	5.0	GoodResponse	0	0.045	313.46	2	32	Feedback	AvoidedLoss	True
315.864	2.633	Lose2	0.6061	n/a	Yes	2.633	n/a	n/a	GoodResponse	0	0.0	n/a	2	32	ISIslide	AvoidedLoss	True
318.513	0.25	Win2	0.5882000000000001	0.001	No	2.687	0.013	n/a	NoResponse	0	n/a	n/a	2	33	Cue	MissedWin	True
318.763	4.0	Win2	0.5882000000000001	0.0	No	2.687	0.0	n/a	NoResponse	0	n/a	n/a	2	33	Fixation	MissedWin	True
322.762	0.21	Win2	0.5882000000000001	0.001	No	2.687	-0.001	2.0	NoResponse	0	0.225	321.987	2	33	Target	MissedWin	True
322.979	0.49	Win2	0.5882000000000001	n/a	No	2.687	n/a	n/a	NoResponse	0	n/a	n/a	2	33	Blank	MissedWin	True
322.987	0.3	Win2	0.5882000000000001	0.001	No	2.687	-0.001	2.0	NoResponse	0	0.225	n/a	2	33	ButtonPress	MissedWin	True
323.462	1.45	Win2	0.5882000000000001	n/a	No	2.687	n/a	5.0	NoResponse	0	0.023	322.485	2	33	Feedback	MissedWin	True
324.911	2.687	Win2	0.5882000000000001	n/a	No	2.687	n/a	n/a	NoResponse	0	0.0	n/a	2	33	ISIslide	MissedWin	True
327.627	0.25	Lose2	0.5714	0.0	No	2.623	0.027	n/a	LatePress	-1	n/a	n/a	1	34	Cue	Loss	True
327.877	4.05	Lose2	0.5714	0.0	No	2.623	0.0	n/a	LatePress	-1	n/a	n/a	1	34	Fixation	Loss	True
331.925	0.22	Lose2	0.5714	0.002	No	2.623	-0.002	2.0	LatePress	-1	0.232	331.157	1	34	Target	Loss	True
332.157	0.3	Lose2	0.5714	0.002	No	2.623	-0.002	2.0	LatePress	-1	0.232	n/a	1	34	ButtonPress	Loss	True
332.159	0.48	Lose2	0.5714	n/a	No	2.623	n/a	n/a	LatePress	-1	n/a	n/a	1	34	Blank	Loss	True
332.625	1.45	Lose2	0.5714	n/a	No	2.623	n/a	5.0	LatePress	-1	0.03	331.655	1	34	Feedback	Loss	True
334.075	2.623	Lose2	0.5714	n/a	No	2.623	n/a	n/a	LatePress	-1	0.0	n/a	1	34	ISIslide	Loss	True
336.724	0.25	Lose2	0.5832999999999999	0.0	Yes	2.676	0.024	n/a	GoodResponse	0	n/a	n/a	1	35	Cue	AvoidedLoss	True
336.973	4.0	Lose2	0.5832999999999999	0.001	Yes	2.676	-0.001	n/a	GoodResponse	0	n/a	n/a	1	35	Fixation	AvoidedLoss	True
340.972	0.23	Lose2	0.5832999999999999	0.002	Yes	2.676	-0.002	2.0	GoodResponse	0	0.187	340.159	1	35	Target	AvoidedLoss	True
341.159	0.3	Lose2	0.5832999999999999	0.002	Yes	2.676	-0.002	2.0	GoodResponse	0	0.187	n/a	1	35	ButtonPress	AvoidedLoss	True
341.205	0.47	Lose2	0.5832999999999999	n/a	Yes	2.676	n/a	n/a	GoodResponse	0	n/a	n/a	1	35	Blank	AvoidedLoss	True
341.672	1.45	Lose2	0.5832999999999999	n/a	Yes	2.676	n/a	5.0	GoodResponse	0	0.008	340.68	1	35	Feedback	AvoidedLoss	True
343.121	2.676	Lose2	0.5832999999999999	n/a	Yes	2.676	n/a	n/a	GoodResponse	0	0.0	n/a	1	35	ISIslide	AvoidedLoss	True
345.82	0.25	Control	0.5946	0.0	Yes	2.68	0.02	n/a	GoodResponse	0	n/a	n/a	1	36	Cue	Neutral	True
346.07	4.0	Control	0.5946	0.0	Yes	2.68	0.0	n/a	GoodResponse	0	n/a	n/a	1	36	Fixation	Neutral	True
350.069	0.24	Control	0.5946	0.001	Yes	2.68	-0.001	2.0	GoodResponse	0	0.185	349.254	1	36	Target	Neutral	True
350.254	0.3	Control	0.5946	0.001	Yes	2.68	-0.001	2.0	GoodResponse	0	0.185	n/a	1	36	ButtonPress	Neutral	True
350.319	0.46	Control	0.5946	n/a	Yes	2.68	n/a	n/a	GoodResponse	0	n/a	n/a	1	36	Blank	Neutral	True
350.769	1.45	Control	0.5946	n/a	Yes	2.68	n/a	5.0	GoodResponse	0	0.032	349.801	1	36	Feedback	Neutral	True
352.218	2.68	Control	0.5946	n/a	Yes	2.68	n/a	n/a	GoodResponse	0	0.0	n/a	1	36	ISIslide	Neutral	True
354.917	0.25	Win2	0.6053000000000001	0.0	Yes	2.883	0.017	n/a	GoodResponse	1	n/a	n/a	2	37	Cue	Win	False
355.167	4.0	Win2	0.6053000000000001	0.0	Yes	2.883	0.0	2.0	GoodResponse	1	3.86	358.027	2	37	Fixation	Win	False
359.027	0.3	Win2	0.6053000000000001	0.0	Yes	2.883	0.0	2.0	GoodResponse	1	3.86	n/a	2	37	ButtonPress	Win	False
359.166	0.25	Win2	0.6053000000000001	0.001	Yes	2.883	-0.001	2.0	GoodResponse	1	0.223	358.389	2	37	Target	Win	False
359.389	0.3	Win2	0.6053000000000001	0.001	Yes	2.883	-0.001	2.0	GoodResponse	1	0.223	n/a	2	37	ButtonPress	Win	False
359.415	0.45	Win2	0.6053000000000001	n/a	Yes	2.883	n/a	n/a	GoodResponse	1	n/a	n/a	2	37	Blank	Win	False
359.865	1.45	Win2	0.6053000000000001	n/a	Yes	2.883	n/a	5.0	GoodResponse	1	0.009	358.874	2	37	Feedback	Win	False
361.315	2.883	Win2	0.6053000000000001	n/a	Yes	2.883	n/a	n/a	GoodResponse	1	0.0	n/a	2	37	ISIslide	Win	False
364.214	0.25	Lose2	0.6154	0.0	Yes	2.836	0.014	n/a	GoodResponse	0	n/a	n/a	2	38	Cue	AvoidedLoss	True
364.464	3.95	Lose2	0.6154	0.0	Yes	2.836	0.0	n/a	GoodResponse	0	n/a	n/a	2	38	Fixation	AvoidedLoss	True
368.412	0.26	Lose2	0.6154	0.002	Yes	2.836	-0.002	2.0	GoodResponse	0	0.208	367.62	2	38	Target	AvoidedLoss	True
368.62	0.3	Lose2	0.6154	0.002	Yes	2.836	-0.002	2.0	GoodResponse	0	0.208	n/a	2	38	ButtonPress	AvoidedLoss	True
368.679	0.44	Lose2	0.6154	n/a	Yes	2.836	n/a	n/a	GoodResponse	0	n/a	n/a	2	38	Blank	AvoidedLoss	True
369.112	1.45	Lose2	0.6154	n/a	Yes	2.836	n/a	5.0	GoodResponse	0	0.031	368.143	2	38	Feedback	AvoidedLoss	True
370.561	2.836	Lose2	0.6154	n/a	Yes	2.836	n/a	n/a	GoodResponse	0	0.0	n/a	2	38	ISIslide	AvoidedLoss	True
373.427	0.25	Win2	0.625	0.0	Yes	2.973	0.027	n/a	GoodResponse	1	n/a	n/a	3	39	Cue	Win	True
373.677	4.1	Win2	0.625	0.0	Yes	2.973	0.0	n/a	GoodResponse	1	n/a	n/a	3	39	Fixation	Win	True
377.775	0.27	Win2	0.625	0.002	Yes	2.973	-0.002	2.0	GoodResponse	1	0.216	376.991	3	39	Target	Win	True
377.991	0.3	Win2	0.625	0.002	Yes	2.973	-0.002	2.0	GoodResponse	1	0.216	n/a	3	39	ButtonPress	Win	True
378.059	0.43	Win2	0.625	n/a	Yes	2.973	n/a	n/a	GoodResponse	1	n/a	n/a	3	39	Blank	Win	True
378.475	1.45	Win2	0.625	n/a	Yes	2.973	n/a	5.0	GoodResponse	1	0.033	377.508	3	39	Feedback	Win	True
379.925	2.973	Win2	0.625	n/a	Yes	2.973	n/a	n/a	GoodResponse	1	0.0	n/a	3	39	ISIslide	Win	True
382.924	0.25	Win2	0.6341	0.0	Yes	2.726	0.024	n/a	GoodResponse	1	n/a	n/a	4	40	Cue	Win	True
383.174	3.95	Win2	0.6341	0.0	Yes	2.726	0.0	n/a	GoodResponse	1	n/a	n/a	4	40	Fixation	Win	True
387.122	0.28	Win2	0.6341	0.002	Yes	2.726	-0.002	2.0	GoodResponse	1	0.216	386.338	4	40	Target	Win	True
387.338	0.3	Win2	0.6341	0.002	Yes	2.726	-0.002	2.0	GoodResponse	1	0.216	n/a	4	40	ButtonPress	Win	True
387.405	0.42	Win2	0.6341	n/a	Yes	2.726	n/a	n/a	GoodResponse	1	n/a	n/a	4	40	Blank	Win	True
387.822	1.45	Win2	0.6341	n/a	Yes	2.726	n/a	5.0	GoodResponse	1	0.008	386.83	4	40	Feedback	Win	True
389.271	2.726	Win2	0.6341	n/a	Yes	2.726	n/a	n/a	GoodResponse	1	0.0	n/a	4	40	ISIslide	Win	True
392.02	0.25	Win2	0.6429	0.0	Yes	2.78	0.02	n/a	GoodResponse	1	n/a	n/a	5	41	Cue	Win	True
392.27	3.9	Win2	0.6429	0.0	Yes	2.78	0.0	n/a	GoodResponse	1	n/a	n/a	5	41	Fixation	Win	True
396.169	0.29	Win2	0.6429	0.001	Yes	2.78	-0.001	2.0	GoodResponse	1	0.22	395.389	5	41	Target	Win	True
396.389	0.3	Win2	0.6429	0.001	Yes	2.78	-0.001	2.0	GoodResponse	1	0.22	n/a	5	41	ButtonPress	Win	True
396.469	0.41	Win2	0.6429	n/a	Yes	2.78	n/a	n/a	GoodResponse	1	n/a	n/a	5	41	Blank	Win	True
396.869	1.45	Win2	0.6429	n/a	Yes	2.78	n/a	5.0	GoodResponse	1	0.029	395.898	5	41	Feedback	Win	True
398.318	2.78	Win2	0.6429	n/a	Yes	2.78	n/a	n/a	GoodResponse	1	0.0	n/a	5	41	ISIslide	Win	True
401.117	0.25	Control	0.6512	0.0	Yes	2.933	0.017	n/a	GoodResponse	0	n/a	n/a	5	42	Cue	Neutral	True
401.367	3.85	Control	0.6512	0.0	Yes	2.933	0.0	n/a	GoodResponse	0	n/a	n/a	5	42	Fixation	Neutral	True
405.216	0.3	Control	0.6512	0.001	Yes	2.933	-0.001	2.0	GoodResponse	0	0.206	404.422	5	42	Target	Neutral	True
405.422	0.3	Control	0.6512	0.001	Yes	2.933	-0.001	2.0	GoodResponse	0	0.206	n/a	5	42	ButtonPress	Neutral	True
405.516	0.4	Control	0.6512	n/a	Yes	2.933	n/a	n/a	GoodResponse	0	n/a	n/a	5	42	Blank	Neutral	True
405.915	1.45	Control	0.6512	n/a	Yes	2.933	n/a	5.0	GoodResponse	0	0.008	404.923	5	42	Feedback	Neutral	True
407.365	2.933	Control	0.6512	n/a	Yes	2.933	n/a	n/a	GoodResponse	0	0.0	n/a	5	42	ISIslide	Neutral	True
410.33	0.25	Win2	0.6591	0.001	Yes	3.17	0.03	n/a	GoodResponse	1	n/a	n/a	6	43	Cue	Win	True
410.58	4.0	Win2	0.6591	0.0	Yes	3.17	0.0	n/a	GoodResponse	1	n/a	n/a	6	43	Fixation	Win	True
414.579	0.31	Win2	0.6591	0.001	Yes	3.17	-0.001	2.0	GoodResponse	1	0.203	413.782	6	43	Target	Win	True
414.782	0.3	Win2	0.6591	0.001	Yes	3.17	-0.001	2.0	GoodResponse	1	0.203	n/a	6	43	ButtonPress	Win	True
414.895	0.39	Win2	0.6591	n/a	Yes	3.17	n/a	n/a	GoodResponse	1	n/a	n/a	6	43	Blank	Win	True
415.279	1.45	Win2	0.6591	n/a	Yes	3.17	n/a	5.0	GoodResponse	1	0.009	414.288	6	43	Feedback	Win	True
416.728	3.17	Win2	0.6591	n/a	Yes	3.17	n/a	n/a	GoodResponse	1	0.0	n/a	6	43	ISIslide	Win	True
419.927	0.25	Win2	0.6667000000000001	0.0	Yes	2.973	0.027	n/a	GoodResponse	1	n/a	n/a	7	44	Cue	Win	True
420.177	4.0	Win2	0.6667000000000001	0.0	Yes	2.973	0.0	n/a	GoodResponse	1	n/a	n/a	7	44	Fixation	Win	True
424.176	0.31	Win2	0.6667000000000001	0.001	Yes	2.973	-0.001	2.0	GoodResponse	1	0.194	423.37	7	44	Target	Win	True
424.37	0.3	Win2	0.6667000000000001	0.001	Yes	2.973	-0.001	2.0	GoodResponse	1	0.194	n/a	7	44	ButtonPress	Win	True
424.492	0.39	Win2	0.6667000000000001	n/a	Yes	2.973	n/a	n/a	GoodResponse	1	n/a	n/a	7	44	Blank	Win	True
424.875	1.45	Win2	0.6667000000000001	n/a	Yes	2.973	n/a	5.0	GoodResponse	1	0.023	423.898	7	44	Feedback	Win	True
426.325	2.973	Win2	0.6667000000000001	n/a	Yes	2.973	n/a	n/a	GoodResponse	1	0.0	n/a	7	44	ISIslide	Win	True
429.324	0.25	Control	0.6739	0.0	Yes	2.876	0.024	n/a	GoodResponse	0	n/a	n/a	7	45	Cue	Neutral	True
429.574	4.1	Control	0.6739	0.0	Yes	2.876	0.0	n/a	GoodResponse	0	n/a	n/a	7	45	Fixation	Neutral	True
433.672	0.3	Control	0.6739	0.002	Yes	2.876	-0.002	2.0	GoodResponse	0	0.21	432.882	7	45	Target	Neutral	True
433.882	0.3	Control	0.6739	0.002	Yes	2.876	-0.002	2.0	GoodResponse	0	0.21	n/a	7	45	ButtonPress	Neutral	True
433.972	0.4	Control	0.6739	n/a	Yes	2.876	n/a	n/a	GoodResponse	0	n/a	n/a	7	45	Blank	Neutral	True
434.372	1.45	Control	0.6739	n/a	Yes	2.876	n/a	5.0	GoodResponse	0	0.038	433.41	7	45	Feedback	Neutral	True
435.821	2.876	Control	0.6739	n/a	Yes	2.876	n/a	n/a	GoodResponse	0	0.0	n/a	7	45	ISIslide	Neutral	True
438.72	0.25	Lose2	0.6809000000000001	0.0	Yes	3.38	0.02	n/a	GoodResponse	0	n/a	n/a	7	46	Cue	AvoidedLoss	True
438.97	4.0	Lose2	0.6809000000000001	0.0	Yes	3.38	0.0	n/a	GoodResponse	0	n/a	n/a	7	46	Fixation	AvoidedLoss	True
442.969	0.29	Lose2	0.6809000000000001	0.001	Yes	3.38	-0.001	2.0	GoodResponse	0	0.202	442.171	7	46	Target	AvoidedLoss	True
443.171	0.3	Lose2	0.6809000000000001	0.001	Yes	3.38	-0.001	2.0	GoodResponse	0	0.202	n/a	7	46	ButtonPress	AvoidedLoss	True
443.269	0.41	Lose2	0.6809000000000001	n/a	Yes	3.38	n/a	n/a	GoodResponse	0	n/a	n/a	7	46	Blank	AvoidedLoss	True
443.668	1.45	Lose2	0.6809000000000001	n/a	Yes	3.38	n/a	5.0	GoodResponse	0	0.009	442.677	7	46	Feedback	AvoidedLoss	True
445.118	3.38	Lose2	0.6809000000000001	n/a	Yes	3.38	n/a	n/a	GoodResponse	0	0.0	n/a	7	46	ISIslide	AvoidedLoss	True
448.517	0.25	Lose2	0.6875	0.0	Yes	2.683	0.017	n/a	GoodResponse	0	n/a	n/a	7	47	Cue	AvoidedLoss	True
448.767	4.0	Lose2	0.6875	0.0	Yes	2.683	0.0	n/a	GoodResponse	0	n/a	n/a	7	47	Fixation	AvoidedLoss	True
452.765	0.28	Lose2	0.6875	0.002	Yes	2.683	-0.002	2.0	GoodResponse	0	0.21	451.975	7	47	Target	AvoidedLoss	True
452.975	0.3	Lose2	0.6875	0.002	Yes	2.683	-0.002	2.0	GoodResponse	0	0.21	n/a	7	47	ButtonPress	AvoidedLoss	True
453.048	0.42	Lose2	0.6875	n/a	Yes	2.683	n/a	n/a	GoodResponse	0	n/a	n/a	7	47	Blank	AvoidedLoss	True
453.465	1.45	Lose2	0.6875	n/a	Yes	2.683	n/a	5.0	GoodResponse	0	0.017	452.482	7	47	Feedback	AvoidedLoss	True
454.914	2.683	Lose2	0.6875	n/a	Yes	2.683	n/a	n/a	GoodResponse	0	0.0	n/a	7	47	ISIslide	AvoidedLoss	True
457.613	0.25	Lose2	0.6939	0.001	Yes	3.037	0.013	n/a	GoodResponse	0	n/a	n/a	7	48	Cue	AvoidedLoss	True
457.863	3.95	Lose2	0.6939	0.0	Yes	3.037	0.0	n/a	GoodResponse	0	n/a	n/a	7	48	Fixation	AvoidedLoss	True
461.812	0.27	Lose2	0.6939	0.001	Yes	3.037	-0.001	2.0	GoodResponse	0	0.195	461.007	7	48	Target	AvoidedLoss	True
462.007	0.3	Lose2	0.6939	0.001	Yes	3.037	-0.001	2.0	GoodResponse	0	0.195	n/a	7	48	ButtonPress	AvoidedLoss	True
462.079	0.43	Lose2	0.6939	n/a	Yes	3.037	n/a	n/a	GoodResponse	0	n/a	n/a	7	48	Blank	AvoidedLoss	True
462.512	1.45	Lose2	0.6939	n/a	Yes	3.037	n/a	5.0	GoodResponse	0	0.044	461.556	7	48	Feedback	AvoidedLoss	True
463.961	3.037	Lose2	0.6939	n/a	Yes	3.037	n/a	n/a	GoodResponse	0	0.0	n/a	7	48	ISIslide	AvoidedLoss	True
467.027	0.25	Control	0.68	0.0	No	2.873	0.027	n/a	NoResponse	0	n/a	n/a	7	49	Cue	Neutral	True
467.277	4.0	Control	0.68	0.0	No	2.873	0.0	n/a	NoResponse	0	n/a	n/a	7	49	Fixation	Neutral	True
471.275	0.26	Control	0.68	0.002	No	2.873	-0.002	2.0	NoResponse	0	0.336	470.611	7	49	Target	Neutral	True
471.542	0.44	Control	0.68	n/a	No	2.873	n/a	n/a	NoResponse	0	n/a	n/a	7	49	Blank	Neutral	True
471.611	0.3	Control	0.68	0.002	No	2.873	-0.002	2.0	NoResponse	0	0.336	n/a	7	49	ButtonPress	Neutral	True
471.975	1.45	Control	0.68	n/a	No	2.873	n/a	5.0	NoResponse	0	0.043	471.018	7	49	Feedback	Neutral	True
473.424	2.873	Control	0.68	n/a	No	2.873	n/a	n/a	NoResponse	0	0.0	n/a	7	49	ISIslide	Neutral	True
476.323	0.25	Control	0.6667000000000001	0.001	No	2.777	0.023	n/a	NoResponse	0	n/a	n/a	7	50	Cue	Neutral	True
476.573	4.0	Control	0.6667000000000001	0.0	No	2.777	0.0	n/a	NoResponse	0	n/a	n/a	7	50	Fixation	Neutral	True
480.572	0.25	Control	0.6667000000000001	0.001	No	2.777	-0.001	2.0	NoResponse	0	0.324	479.896	7	50	Target	Neutral	True
480.822	0.45	Control	0.6667000000000001	n/a	No	2.777	n/a	n/a	NoResponse	0	n/a	n/a	7	50	Blank	Neutral	True
480.896	0.3	Control	0.6667000000000001	0.001	No	2.777	-0.001	2.0	NoResponse	0	0.324	n/a	7	50	ButtonPress	Neutral	True
481.272	1.45	Control	0.6667000000000001	n/a	No	2.777	n/a	5.0	NoResponse	0	0.015	480.287	7	50	Feedback	Neutral	True
482.721	2.777	Control	0.6667000000000001	n/a	No	2.777	n/a	n/a	NoResponse	0	0.0	n/a	7	50	ISIslide	Neutral	True
485.52	0.25	Control	0.6731	0.0	Yes	2.73	0.02	n/a	GoodResponse	0	n/a	n/a	7	51	Cue	Neutral	True
485.77	3.95	Control	0.6731	0.0	Yes	2.73	0.0	n/a	GoodResponse	0	n/a	n/a	7	51	Fixation	Neutral	True
489.719	0.24	Control	0.6731	0.001	Yes	2.73	-0.001	2.0	GoodResponse	0	0.176	488.895	7	51	Target	Neutral	True
489.895	0.3	Control	0.6731	0.001	Yes	2.73	-0.001	2.0	GoodResponse	0	0.176	n/a	7	51	ButtonPress	Neutral	True
489.969	0.46	Control	0.6731	n/a	Yes	2.73	n/a	n/a	GoodResponse	0	n/a	n/a	7	51	Blank	Neutral	True
490.418	1.45	Control	0.6731	n/a	Yes	2.73	n/a	5.0	GoodResponse	0	0.039	489.457	7	51	Feedback	Neutral	True
491.868	2.73	Control	0.6731	n/a	Yes	2.73	n/a	n/a	GoodResponse	0	0.0	n/a	7	51	ISIslide	Neutral	True
494.617	0.25	Control	0.6792	0.0	Yes	2.633	0.017	n/a	GoodResponse	0	n/a	n/a	7	52	Cue	Neutral	True
494.867	4.05	Control	0.6792	0.0	Yes	2.633	0.0	n/a	GoodResponse	0	n/a	n/a	7	52	Fixation	Neutral	True
498.915	0.23	Control	0.6792	0.002	Yes	2.633	-0.002	2.0	GoodResponse	0	0.173	498.088	7	52	Target	Neutral	True
499.088	0.3	Control	0.6792	0.002	Yes	2.633	-0.002	2.0	GoodResponse	0	0.173	n/a	7	52	ButtonPress	Neutral	True
499.149	0.47	Control	0.6792	n/a	Yes	2.633	n/a	n/a	GoodResponse	0	n/a	n/a	7	52	Blank	Neutral	True
499.615	1.45	Control	0.6792	n/a	Yes	2.633	n/a	5.0	GoodResponse	0	0.013	498.628	7	52	Feedback	Neutral	True
501.065	2.633	Control	0.6792	n/a	Yes	2.633	n/a	n/a	GoodResponse	0	0.0	n/a	7	52	ISIslide	Neutral	True
503.73	0.25	Win2	0.6667000000000001	0.0	No	2.92	0.03	n/a	PrematurePress	0	n/a	n/a	7	53	Cue	MissedWin	True
503.98	4.05	Win2	0.6667000000000001	0.0	No	2.92	0.0	n/a	PrematurePress	0	n/a	n/a	7	53	Fixation	MissedWin	True
508.029	0.22	Win2	0.6667000000000001	0.001	No	2.92	-0.001	2.0	PrematurePress	0	0.01	507.039	7	53	Target	MissedWin	True
508.039	0.3	Win2	0.6667000000000001	0.001	No	2.92	-0.001	2.0	PrematurePress	0	0.01	n/a	7	53	ButtonPress	MissedWin	True
508.262	0.48	Win2	0.6667000000000001	n/a	No	2.92	n/a	n/a	PrematurePress	0	n/a	n/a	7	53	Blank	MissedWin	True
508.728	1.45	Win2	0.6667000000000001	n/a	No	2.92	n/a	5.0	PrematurePress	0	0.021	507.749	7	53	Feedback	MissedWin	True
510.178	2.92	Win2	0.6667000000000001	n/a	No	2.92	n/a	n/a	PrematurePress	0	0.0	n/a	7	53	ISIslide	MissedWin	True
513.127	0.25	Win2	0.6545000000000001	0.0	No	2.723	0.027	n/a	NoResponse	0	n/a	n/a	7	54	Cue	MissedWin	True
513.377	3.95	Win2	0.6545000000000001	0.0	No	2.723	0.0	n/a	NoResponse	0	n/a	n/a	7	54	Fixation	MissedWin	True
517.325	0.21	Win2	0.6545000000000001	0.002	No	2.723	-0.002	2.0	NoResponse	0	0.226	516.551	7	54	Target	MissedWin	True
517.542	0.49	Win2	0.6545000000000001	n/a	No	2.723	n/a	n/a	NoResponse	0	n/a	n/a	7	54	Blank	MissedWin	True
517.551	0.3	Win2	0.6545000000000001	0.002	No	2.723	-0.002	2.0	NoResponse	0	0.226	n/a	7	54	ButtonPress	MissedWin	True
518.025	1.45	Win2	0.6545000000000001	n/a	No	2.723	n/a	5.0	NoResponse	0	0.042	517.067	7	54	Feedback	MissedWin	True
519.475	2.723	Win2	0.6545000000000001	n/a	No	2.723	n/a	n/a	NoResponse	0	0.0	n/a	7	54	ISIslide	MissedWin	True
522.224	0.25	Control	0.6607	0.0	Yes	3.026	0.024	n/a	GoodResponse	0	n/a	n/a	7	55	Cue	Neutral	True
522.474	3.95	Control	0.6607	0.0	Yes	3.026	0.0	n/a	GoodResponse	0	n/a	n/a	7	55	Fixation	Neutral	True
526.422	0.22	Control	0.6607	0.002	Yes	3.026	-0.002	2.0	GoodResponse	0	0.197	525.619	7	55	Target	Neutral	True
526.619	0.3	Control	0.6607	0.002	Yes	3.026	-0.002	2.0	GoodResponse	0	0.197	n/a	7	55	ButtonPress	Neutral	True
526.655	0.48	Control	0.6607	n/a	Yes	3.026	n/a	n/a	GoodResponse	0	n/a	n/a	7	55	Blank	Neutral	True
527.122	1.45	Control	0.6607	n/a	Yes	3.026	n/a	5.0	GoodResponse	0	0.018	526.14	7	55	Feedback	Neutral	True
528.571	3.026	Control	0.6607	n/a	Yes	3.026	n/a	n/a	GoodResponse	0	0.0	n/a	7	55	ISIslide	Neutral	True
531.62	0.25	Control	0.6667000000000001	0.0	Yes	2.83	0.02	n/a	GoodResponse	0	n/a	n/a	7	56	Cue	Neutral	True
531.87	3.95	Control	0.6667000000000001	0.0	Yes	2.83	0.0	n/a	GoodResponse	0	n/a	n/a	7	56	Fixation	Neutral	True
535.819	0.22	Control	0.6667000000000001	0.001	Yes	2.83	-0.001	2.0	GoodResponse	0	0.216	535.035	7	56	Target	Neutral	True
536.035	0.3	Control	0.6667000000000001	0.001	Yes	2.83	-0.001	2.0	GoodResponse	0	0.216	n/a	7	56	ButtonPress	Neutral	True
536.052	0.48	Control	0.6667000000000001	n/a	Yes	2.83	n/a	n/a	GoodResponse	0	n/a	n/a	7	56	Blank	Neutral	True
536.518	1.45	Control	0.6667000000000001	n/a	Yes	2.83	n/a	5.0	GoodResponse	0	0.037	535.555	7	56	Feedback	Neutral	True
537.968	2.83	Control	0.6667000000000001	n/a	Yes	2.83	n/a	n/a	GoodResponse	0	0.0	n/a	7	56	ISIslide	Neutral	True
540.817	0.25	Control	0.6724	0.0	Yes	3.483	0.017	n/a	GoodResponse	0	n/a	n/a	7	57	Cue	Neutral	True
541.067	4.0	Control	0.6724	0.0	Yes	3.483	0.0	n/a	GoodResponse	0	n/a	n/a	7	57	Fixation	Neutral	True
545.065	0.21	Control	0.6724	0.002	Yes	3.483	-0.002	2.0	GoodResponse	0	0.203	544.268	7	57	Target	Neutral	True
545.268	0.3	Control	0.6724	0.002	Yes	3.483	-0.002	2.0	GoodResponse	0	0.203	n/a	7	57	ButtonPress	Neutral	True
545.282	0.49	Control	0.6724	n/a	Yes	3.483	n/a	n/a	GoodResponse	0	n/a	n/a	7	57	Blank	Neutral	True
545.765	1.45	Control	0.6724	n/a	Yes	3.483	n/a	5.0	GoodResponse	0	0.008	544.773	7	57	Feedback	Neutral	True
547.215	3.483	Control	0.6724	n/a	Yes	3.483	n/a	n/a	GoodResponse	0	0.0	n/a	7	57	ISIslide	Neutral	True
550.73	0.25	Win2	0.6609999999999999	0.0	No	2.72	0.03	n/a	LatePress	0	n/a	n/a	7	58	Cue	MissedWin	True
550.98	4.05	Win2	0.6609999999999999	0.0	No	2.72	0.0	n/a	LatePress	0	n/a	n/a	7	58	Fixation	MissedWin	True
555.029	0.2	Win2	0.6609999999999999	0.001	No	2.72	-0.001	2.0	LatePress	0	0.2	554.229	7	58	Target	MissedWin	True
555.228	0.5	Win2	0.6609999999999999	n/a	No	2.72	n/a	n/a	LatePress	0	n/a	n/a	7	58	Blank	MissedWin	True
555.229	0.3	Win2	0.6609999999999999	0.001	No	2.72	-0.001	2.0	LatePress	0	0.2	n/a	7	58	ButtonPress	MissedWin	True
555.728	1.45	Win2	0.6609999999999999	n/a	No	2.72	n/a	5.0	LatePress	0	0.045	554.773	7	58	Feedback	MissedWin	True
557.178	2.72	Win2	0.6609999999999999	n/a	No	2.72	n/a	n/a	LatePress	0	0.0	n/a	7	58	ISIslide	MissedWin	True
559.927	0.25	Lose2	0.65	0.0	No	2.673	0.027	n/a	NoResponse	-1	n/a	n/a	6	59	Cue	Loss	True
560.177	4.0	Lose2	0.65	0.0	No	2.673	0.0	n/a	NoResponse	-1	n/a	n/a	6	59	Fixation	Loss	True
564.175	0.2	Lose2	0.65	0.002	No	2.673	-0.002	2.0	NoResponse	-1	0.21	563.385	6	59	Target	Loss	True
564.375	0.5	Lose2	0.65	n/a	No	2.673	n/a	n/a	NoResponse	-1	n/a	n/a	6	59	Blank	Loss	True
564.385	0.3	Lose2	0.65	0.002	No	2.673	-0.002	2.0	NoResponse	-1	0.21	n/a	6	59	ButtonPress	Loss	True
564.875	1.45	Lose2	0.65	n/a	No	2.673	n/a	5.0	NoResponse	-1	0.02	563.895	6	59	Feedback	Loss	True
566.324	2.673	Lose2	0.65	n/a	No	2.673	n/a	n/a	NoResponse	-1	0.0	n/a	6	59	ISIslide	Loss	True
569.023	0.25	Control	0.6393	0.001	No	2.677	0.023	n/a	NoResponse	0	n/a	n/a	6	60	Cue	Neutral	False
569.273	4.0	Control	0.6393	0.0	No	2.677	0.0	n/a	NoResponse	0	n/a	n/a	6	60	Fixation	Neutral	False
573.272	0.21	Control	0.6393	0.001	No	2.677	-0.001	n/a	NoResponse	0	n/a	n/a	6	60	Target	Neutral	False
573.489	0.49	Control	0.6393	n/a	No	2.677	n/a	n/a	NoResponse	0	n/a	n/a	6	60	Blank	Neutral	False
573.972	1.45	Control	0.6393	n/a	No	2.677	n/a	5.0	NoResponse	0	0.044	573.016	6	60	Feedback	Neutral	False
575.421	2.677	Control	0.6393	n/a	No	2.677	n/a	n/a	NoResponse	0	0.0	n/a	6	60	ISIslide	Neutral	False
578.12	0.25	Lose2	0.6452	0.0	Yes	2.98	0.02	n/a	GoodResponse	0	n/a	n/a	6	61	Cue	AvoidedLoss	True
578.37	4.0	Lose2	0.6452	0.0	Yes	2.98	0.0	n/a	GoodResponse	0	n/a	n/a	6	61	Fixation	AvoidedLoss	True
582.369	0.22	Lose2	0.6452	0.001	Yes	2.98	-0.001	2.0	GoodResponse	0	0.177	581.546	6	61	Target	AvoidedLoss	True
582.546	0.3	Lose2	0.6452	0.001	Yes	2.98	-0.001	2.0	GoodResponse	0	0.177	n/a	6	61	ButtonPress	AvoidedLoss	True
582.602	0.48	Lose2	0.6452	n/a	Yes	2.98	n/a	n/a	GoodResponse	0	n/a	n/a	6	61	Blank	AvoidedLoss	True
583.068	1.45	Lose2	0.6452	n/a	Yes	2.98	n/a	5.0	GoodResponse	0	0.022	582.09	6	61	Feedback	AvoidedLoss	True
584.518	2.98	Lose2	0.6452	n/a	Yes	2.98	n/a	n/a	GoodResponse	0	0.0	n/a	6	61	ISIslide	AvoidedLoss	True
587.517	0.25	Lose2	0.6349	0.0	No	2.883	0.017	n/a	NoResponse	-1	n/a	n/a	5	62	Cue	Loss	True
587.767	3.9	Lose2	0.6349	0.0	No	2.883	0.0	n/a	NoResponse	-1	n/a	n/a	5	62	Fixation	Loss	True
591.665	0.23	Lose2	0.6349	0.002	No	2.883	-0.002	2.0	NoResponse	-1	0.303	590.968	5	62	Target	Loss	True
591.899	0.47	Lose2	0.6349	n/a	No	2.883	n/a	n/a	NoResponse	-1	n/a	n/a	5	62	Blank	Loss	True
591.968	0.3	Lose2	0.6349	0.002	No	2.883	-0.002	2.0	NoResponse	-1	0.303	n/a	5	62	ButtonPress	Loss	True
592.365	1.45	Lose2	0.6349	n/a	No	2.883	n/a	5.0	NoResponse	-1	0.042	591.407	5	62	Feedback	Loss	True
593.815	2.883	Lose2	0.6349	n/a	No	2.883	n/a	n/a	NoResponse	-1	0.0	n/a	5	62	ISIslide	Loss	True
596.714	0.25	Lose2	0.6406000000000001	0.0	Yes	2.636	0.014	n/a	GoodResponse	0	n/a	n/a	5	63	Cue	AvoidedLoss	True
596.963	4.05	Lose2	0.6406000000000001	0.001	Yes	2.636	-0.001	n/a	GoodResponse	0	n/a	n/a	5	63	Fixation	AvoidedLoss	True
601.012	0.24	Lose2	0.6406000000000001	0.002	Yes	2.636	-0.002	2.0	GoodResponse	0	0.184	600.196	5	63	Target	AvoidedLoss	True
601.196	0.3	Lose2	0.6406000000000001	0.002	Yes	2.636	-0.002	2.0	GoodResponse	0	0.184	n/a	5	63	ButtonPress	AvoidedLoss	True
601.262	0.46	Lose2	0.6406000000000001	n/a	Yes	2.636	n/a	n/a	GoodResponse	0	n/a	n/a	5	63	Blank	AvoidedLoss	True
601.712	1.45	Lose2	0.6406000000000001	n/a	Yes	2.636	n/a	5.0	GoodResponse	0	0.012	600.724	5	63	Feedback	AvoidedLoss	True
603.161	2.636	Lose2	0.6406000000000001	n/a	Yes	2.636	n/a	n/a	GoodResponse	0	0.0	n/a	5	63	ISIslide	AvoidedLoss	True
605.827	0.25	Win2	0.6462	0.0	Yes	3.123	0.027	n/a	GoodResponse	1	n/a	n/a	6	64	Cue	Win	False
606.077	4.15	Win2	0.6462	0.0	Yes	3.123	0.0	2.0	GoodResponse	1	3.99	609.067	6	64	Fixation	Win	False
610.067	0.3	Win2	0.6462	0.0	Yes	3.123	0.0	2.0	GoodResponse	1	3.99	n/a	6	64	ButtonPress	Win	False
610.225	0.25	Win2	0.6462	0.002	Yes	3.123	-0.002	2.0	GoodResponse	1	0.165	609.39	6	64	Target	Win	False
610.39	0.3	Win2	0.6462	0.002	Yes	3.123	-0.002	2.0	GoodResponse	1	0.165	n/a	6	64	ButtonPress	Win	False
610.475	0.45	Win2	0.6462	n/a	Yes	3.123	n/a	n/a	GoodResponse	1	n/a	n/a	6	64	Blank	Win	False
610.925	1.45	Win2	0.6462	n/a	Yes	3.123	n/a	5.0	GoodResponse	1	0.018	609.943	6	64	Feedback	Win	False
612.375	3.123	Win2	0.6462	n/a	Yes	3.123	n/a	n/a	GoodResponse	1	0.0	n/a	6	64	ISIslide	Win	False
615.523	0.25	Control	0.6515000000000001	0.001	Yes	2.777	0.023	n/a	GoodResponse	0	n/a	n/a	6	65	Cue	Neutral	True
615.773	4.0	Control	0.6515000000000001	0.0	Yes	2.777	0.0	n/a	GoodResponse	0	n/a	n/a	6	65	Fixation	Neutral	True
619.772	0.26	Control	0.6515000000000001	0.001	Yes	2.777	-0.001	2.0	GoodResponse	0	0.172	618.944	6	65	Target	Neutral	True
619.944	0.3	Control	0.6515000000000001	0.001	Yes	2.777	-0.001	2.0	GoodResponse	0	0.172	n/a	6	65	ButtonPress	Neutral	True
620.038	0.44	Control	0.6515000000000001	n/a	Yes	2.777	n/a	n/a	GoodResponse	0	n/a	n/a	6	65	Blank	Neutral	True
620.472	1.45	Control	0.6515000000000001	n/a	Yes	2.777	n/a	5.0	GoodResponse	0	0.032	619.504	6	65	Feedback	Neutral	True
621.921	2.777	Control	0.6515000000000001	n/a	Yes	2.777	n/a	n/a	GoodResponse	0	0.0	n/a	6	65	ISIslide	Neutral	True
624.72	0.25	Win2	0.6567000000000001	0.0	Yes	2.78	0.02	n/a	GoodResponse	1	n/a	n/a	7	66	Cue	Win	True
624.97	3.9	Win2	0.6567000000000001	0.0	Yes	2.78	0.0	n/a	GoodResponse	1	n/a	n/a	7	66	Fixation	Win	True
628.869	0.27	Win2	0.6567000000000001	0.001	Yes	2.78	-0.001	2.0	GoodResponse	1	0.218	628.087	7	66	Target	Win	True
629.087	0.3	Win2	0.6567000000000001	0.001	Yes	2.78	-0.001	2.0	GoodResponse	1	0.218	n/a	7	66	ButtonPress	Win	True
629.152	0.43	Win2	0.6567000000000001	n/a	Yes	2.78	n/a	n/a	GoodResponse	1	n/a	n/a	7	66	Blank	Win	True
629.568	1.45	Win2	0.6567000000000001	n/a	Yes	2.78	n/a	5.0	GoodResponse	1	0.009	628.577	7	66	Feedback	Win	True
631.018	2.78	Win2	0.6567000000000001	n/a	Yes	2.78	n/a	n/a	GoodResponse	1	0.0	n/a	7	66	ISIslide	Win	True
633.817	0.25	Control	0.6618	0.0	Yes	2.733	0.017	n/a	GoodResponse	0	n/a	n/a	7	67	Cue	Neutral	True
634.067	3.95	Control	0.6618	0.0	Yes	2.733	0.0	n/a	GoodResponse	0	n/a	n/a	7	67	Fixation	Neutral	True
638.015	0.27	Control	0.6618	0.002	Yes	2.733	-0.002	2.0	GoodResponse	0	0.2	637.215	7	67	Target	Neutral	True
638.215	0.3	Control	0.6618	0.002	Yes	2.733	-0.002	2.0	GoodResponse	0	0.2	n/a	7	67	ButtonPress	Neutral	True
638.299	0.43	Control	0.6618	n/a	Yes	2.733	n/a	n/a	GoodResponse	0	n/a	n/a	7	67	Blank	Neutral	True
638.715	1.45	Control	0.6618	n/a	Yes	2.733	n/a	5.0	GoodResponse	0	0.033	637.748	7	67	Feedback	Neutral	True
640.165	2.733	Control	0.6618	n/a	Yes	2.733	n/a	n/a	GoodResponse	0	0.0	n/a	7	67	ISIslide	Neutral	True
642.914	0.25	Win2	0.6667000000000001	0.0	Yes	3.086	0.014	n/a	GoodResponse	1	n/a	n/a	8	68	Cue	Win	True
643.164	4.0	Win2	0.6667000000000001	0.0	Yes	3.086	0.0	n/a	GoodResponse	1	n/a	n/a	8	68	Fixation	Win	True
647.162	0.27	Win2	0.6667000000000001	0.002	Yes	3.086	-0.002	2.0	GoodResponse	1	0.164	646.326	8	68	Target	Win	True
647.326	0.3	Win2	0.6667000000000001	0.002	Yes	3.086	-0.002	2.0	GoodResponse	1	0.164	n/a	8	68	ButtonPress	Win	True
647.445	0.43	Win2	0.6667000000000001	n/a	Yes	3.086	n/a	n/a	GoodResponse	1	n/a	n/a	8	68	Blank	Win	True
647.862	1.45	Win2	0.6667000000000001	n/a	Yes	3.086	n/a	5.0	GoodResponse	1	0.007	646.869	8	68	Feedback	Win	True
649.311	3.086	Win2	0.6667000000000001	n/a	Yes	3.086	n/a	n/a	GoodResponse	1	0.0	n/a	8	68	ISIslide	Win	True
652.427	0.25	Win2	0.6714	0.0	Yes	3.223	0.027	n/a	GoodResponse	1	n/a	n/a	9	69	Cue	Win	True
652.677	3.95	Win2	0.6714	0.0	Yes	3.223	0.0	n/a	GoodResponse	1	n/a	n/a	9	69	Fixation	Win	True
656.625	0.26	Win2	0.6714	0.002	Yes	3.223	-0.002	2.0	GoodResponse	1	0.198	655.823	9	69	Target	Win	True
656.823	0.3	Win2	0.6714	0.002	Yes	3.223	-0.002	2.0	GoodResponse	1	0.198	n/a	9	69	ButtonPress	Win	True
656.892	0.44	Win2	0.6714	n/a	Yes	3.223	n/a	n/a	GoodResponse	1	n/a	n/a	9	69	Blank	Win	True
657.325	1.45	Win2	0.6714	n/a	Yes	3.223	n/a	5.0	GoodResponse	1	0.008	656.333	9	69	Feedback	Win	True
658.775	3.223	Win2	0.6714	n/a	Yes	3.223	n/a	n/a	GoodResponse	1	0.0	n/a	9	69	ISIslide	Win	True
662.023	0.25	Lose2	0.6761	0.001	Yes	3.027	0.023	n/a	GoodResponse	0	n/a	n/a	9	70	Cue	AvoidedLoss	True
662.273	4.05	Lose2	0.6761	0.0	Yes	3.027	0.0	n/a	GoodResponse	0	n/a	n/a	9	70	Fixation	AvoidedLoss	True
666.322	0.25	Lose2	0.6761	0.001	Yes	3.027	-0.001	2.0	GoodResponse	0	0.204	665.526	9	70	Target	AvoidedLoss	True
666.526	0.3	Lose2	0.6761	0.001	Yes	3.027	-0.001	2.0	GoodResponse	0	0.204	n/a	9	70	ButtonPress	AvoidedLoss	True
666.572	0.45	Lose2	0.6761	n/a	Yes	3.027	n/a	n/a	GoodResponse	0	n/a	n/a	9	70	Blank	AvoidedLoss	True
667.022	1.45	Lose2	0.6761	n/a	Yes	3.027	n/a	5.0	GoodResponse	0	0.018	666.04	9	70	Feedback	AvoidedLoss	True
668.471	3.027	Lose2	0.6761	n/a	Yes	3.027	n/a	n/a	GoodResponse	0	0.0	n/a	9	70	ISIslide	AvoidedLoss	True
671.52	0.25	Win2	0.6806	0.0	Yes	2.73	0.02	n/a	GoodResponse	1	n/a	n/a	10	71	Cue	Win	True
671.77	4.05	Win2	0.6806	0.0	Yes	2.73	0.0	n/a	GoodResponse	1	n/a	n/a	10	71	Fixation	Win	True
675.818	0.24	Win2	0.6806	0.002	Yes	2.73	-0.002	2.0	GoodResponse	1	0.187	675.005	10	71	Target	Win	True
676.005	0.3	Win2	0.6806	0.002	Yes	2.73	-0.002	2.0	GoodResponse	1	0.187	n/a	10	71	ButtonPress	Win	True
676.068	0.46	Win2	0.6806	n/a	Yes	2.73	n/a	n/a	GoodResponse	1	n/a	n/a	10	71	Blank	Win	True
676.518	1.45	Win2	0.6806	n/a	Yes	2.73	n/a	5.0	GoodResponse	1	0.033	675.551	10	71	Feedback	Win	True
677.968	2.73	Win2	0.6806	n/a	Yes	2.73	n/a	n/a	GoodResponse	1	0.0	n/a	10	71	ISIslide	Win	True
680.717	0.25	Win2	0.6849	0.0	Yes	2.783	0.017	n/a	GoodResponse	1	n/a	n/a	11	72	Cue	Win	True
680.967	4.1	Win2	0.6849	0.0	Yes	2.783	0.0	n/a	GoodResponse	1	n/a	n/a	11	72	Fixation	Win	True
685.065	0.23	Win2	0.6849	0.002	Yes	2.783	-0.002	2.0	GoodResponse	1	0.165	684.23	11	72	Target	Win	True
685.23	0.3	Win2	0.6849	0.002	Yes	2.783	-0.002	2.0	GoodResponse	1	0.165	n/a	11	72	ButtonPress	Win	True
685.298	0.47	Win2	0.6849	n/a	Yes	2.783	n/a	n/a	GoodResponse	1	n/a	n/a	11	72	Blank	Win	True
685.765	1.45	Win2	0.6849	n/a	Yes	2.783	n/a	5.0	GoodResponse	1	0.008	684.773	11	72	Feedback	Win	True
687.214	2.783	Win2	0.6849	n/a	Yes	2.783	n/a	n/a	GoodResponse	1	0.0	n/a	11	72	ISIslide	Win	True
690.013	0.25	Win2	0.6892	0.0	Yes	2.687	0.013	n/a	GoodResponse	1	n/a	n/a	12	73	Cue	Win	True
690.263	4.0	Win2	0.6892	0.0	Yes	2.687	0.0	n/a	GoodResponse	1	n/a	n/a	12	73	Fixation	Win	True
694.262	0.22	Win2	0.6892	0.001	Yes	2.687	-0.001	2.0	GoodResponse	1	0.172	693.434	12	73	Target	Win	True
694.434	0.3	Win2	0.6892	0.001	Yes	2.687	-0.001	2.0	GoodResponse	1	0.172	n/a	12	73	ButtonPress	Win	True
694.478	0.48	Win2	0.6892	n/a	Yes	2.687	n/a	n/a	GoodResponse	1	n/a	n/a	12	73	Blank	Win	True
694.962	1.45	Win2	0.6892	n/a	Yes	2.687	n/a	5.0	GoodResponse	1	0.029	693.991	12	73	Feedback	Win	True
696.411	2.687	Win2	0.6892	n/a	Yes	2.687	n/a	n/a	GoodResponse	1	0.0	n/a	12	73	ISIslide	Win	True
699.127	0.25	Lose2	0.68	0.0	No	2.623	0.027	n/a	PrematurePress	-1	n/a	n/a	11	74	Cue	Loss	False
699.377	4.05	Lose2	0.68	0.0	No	2.623	0.0	2.0	PrematurePress	-1	3.777	702.154	11	74	Fixation	Loss	False
703.154	0.3	Lose2	0.68	0.0	No	2.623	0.0	2.0	PrematurePress	-1	3.777	n/a	11	74	ButtonPress	Loss	False
703.425	0.21	Lose2	0.68	0.002	No	2.623	-0.002	2.0	PrematurePress	-1	0.022	702.447	11	74	Target	Loss	False
703.447	0.3	Lose2	0.68	0.002	No	2.623	-0.002	2.0	PrematurePress	-1	0.022	n/a	11	74	ButtonPress	Loss	False
703.642	0.49	Lose2	0.68	n/a	No	2.623	n/a	n/a	PrematurePress	-1	n/a	n/a	11	74	Blank	Loss	False
704.125	1.45	Lose2	0.68	n/a	No	2.623	n/a	5.0	PrematurePress	-1	0.036	703.161	11	74	Feedback	Loss	False
705.574	2.623	Lose2	0.68	n/a	No	2.623	n/a	n/a	PrematurePress	-1	0.0	n/a	11	74	ISIslide	Loss	False
708.223	0.25	Lose2	0.6711	0.001	No	2.927	0.023	n/a	NoResponse	-1	n/a	n/a	10	75	Cue	Loss	True
708.473	3.95	Lose2	0.6711	0.001	No	2.927	0.0	n/a	NoResponse	-1	n/a	n/a	10	75	Fixation	Loss	True
712.422	0.2	Lose2	0.6711	0.001	No	2.927	-0.001	2.0	NoResponse	-1	0.227	711.649	10	75	Target	Loss	True
712.622	0.5	Lose2	0.6711	n/a	No	2.927	n/a	n/a	NoResponse	-1	n/a	n/a	10	75	Blank	Loss	True
712.649	0.3	Lose2	0.6711	0.001	No	2.927	-0.001	2.0	NoResponse	-1	0.227	n/a	10	75	ButtonPress	Loss	True
713.122	1.45	Lose2	0.6711	n/a	No	2.927	n/a	5.0	NoResponse	-1	0.014	712.136	10	75	Feedback	Loss	True
714.571	2.927	Lose2	0.6711	n/a	No	2.927	n/a	n/a	NoResponse	-1	0.0	n/a	10	75	ISIslide	Loss	True
717.52	0.25	Control	0.6623	0.0	No	3.23	0.02	n/a	LatePress	0	n/a	n/a	10	76	Cue	Neutral	True
717.77	4.05	Control	0.6623	0.0	No	3.23	0.0	n/a	LatePress	0	n/a	n/a	10	76	Fixation	Neutral	True
721.819	0.19	Control	0.6623	0.001	No	3.23	-0.001	2.0	LatePress	0	0.195	721.014	10	76	Target	Neutral	True
722.014	0.3	Control	0.6623	0.001	No	3.23	-0.001	2.0	LatePress	0	0.195	n/a	10	76	ButtonPress	Neutral	True
722.019	0.51	Control	0.6623	n/a	No	3.23	n/a	n/a	LatePress	0	n/a	n/a	10	76	Blank	Neutral	True
722.518	1.45	Control	0.6623	n/a	No	3.23	n/a	5.0	LatePress	0	0.033	721.551	10	76	Feedback	Neutral	True
723.968	3.23	Control	0.6623	n/a	No	3.23	n/a	n/a	LatePress	0	0.0	n/a	10	76	ISIslide	Neutral	True
727.217	0.25	Lose2	0.6537999999999999	0.0	No	2.583	0.017	n/a	LatePress	-1	n/a	n/a	9	77	Cue	Loss	True
727.467	3.95	Lose2	0.6537999999999999	0.0	No	2.583	0.0	n/a	LatePress	-1	n/a	n/a	9	77	Fixation	Loss	True
731.415	0.19	Lose2	0.6537999999999999	0.002	No	2.583	-0.002	2.0	LatePress	-1	0.196	730.611	9	77	Target	Loss	True
731.611	0.3	Lose2	0.6537999999999999	0.002	No	2.583	-0.002	2.0	LatePress	-1	0.196	n/a	9	77	ButtonPress	Loss	True
731.615	0.51	Lose2	0.6537999999999999	n/a	No	2.583	n/a	n/a	LatePress	-1	n/a	n/a	9	77	Blank	Loss	True
732.115	1.45	Lose2	0.6537999999999999	n/a	No	2.583	n/a	5.0	LatePress	-1	0.046	731.161	9	77	Feedback	Loss	True
733.564	2.583	Lose2	0.6537999999999999	n/a	No	2.583	n/a	n/a	LatePress	-1	0.0	n/a	9	77	ISIslide	Loss	True
