onset	duration	cue_type	current_mean_accuracy	duration_error	is_hit	isi_adjusted	onset_delay	response	response_type	reward	rt	rt_time	total_reward	trial_number	trial_phase	trial_type	one_press
11.096	0.25	Control	1.0	0.0	Yes	2.954	-0.004	n/a	GoodResponse	0	n/a	n/a	0	0	Cue	Neutral	True
11.347	3.85	Control	1.0	0.0	Yes	2.954	0.001	n/a	GoodResponse	0	n/a	n/a	0	0	Fixation	Neutral	True
15.192	0.4	Control	1.0	0.004	Yes	2.954	-0.004	2.0	GoodResponse	0	0.213	14.405	0	0	Target	Neutral	True
15.405	0.3	Control	1.0	0.004	Yes	2.954	-0.004	2.0	GoodResponse	0	0.213	n/a	0	0	ButtonPress	Neutral	True
15.593	0.3	Control	1.0	n/a	Yes	2.954	n/a	n/a	GoodResponse	0	n/a	n/a	0	0	Blank	Neutral	True
15.894	1.45	Control	1.0	n/a	Yes	2.954	n/a	5.0	GoodResponse	0	0.033	14.927	0	0	Feedback	Neutral	True
17.348	2.954	Control	1.0	n/a	Yes	2.954	n/a	n/a	GoodResponse	0	0.0	n/a	0	0	ISIslide	Neutral	True
20.324	0.25	Lose2	1.0	0.0	Yes	2.776	0.024	n/a	GoodResponse	0	n/a	n/a	0	1	Cue	AvoidedLoss	True
20.574	4.0	Lose2	1.0	0.0	Yes	2.776	0.0	n/a	GoodResponse	0	n/a	n/a	0	1	Fixation	AvoidedLoss	True
24.57	0.39	Lose2	1.0	0.004	Yes	2.776	-0.004	2.0	GoodResponse	0	0.208	23.778	0	1	Target	AvoidedLoss	True
24.778	0.3	Lose2	1.0	0.004	Yes	2.776	-0.004	2.0	GoodResponse	0	0.208	n/a	0	1	ButtonPress	AvoidedLoss	True
24.971	0.31	Lose2	1.0	n/a	Yes	2.776	n/a	n/a	GoodResponse	0	n/a	n/a	0	1	Blank	AvoidedLoss	True
25.272	1.45	Lose2	1.0	n/a	Yes	2.776	n/a	5.0	GoodResponse	0	0.02	24.292	0	1	Feedback	AvoidedLoss	True
26.726	2.776	Lose2	1.0	n/a	Yes	2.776	n/a	n/a	GoodResponse	0	0.0	n/a	0	1	ISIslide	AvoidedLoss	True
29.518	0.25	Control	1.0	0.0	Yes	2.582	0.018	n/a	GoodResponse	0	n/a	n/a	0	2	Cue	Neutral	True
29.769	4.1	Control	1.0	0.0	Yes	2.582	0.001	n/a	GoodResponse	0	n/a	n/a	0	2	Fixation	Neutral	True
33.864	0.38	Control	1.0	0.004	Yes	2.582	-0.004	2.0	GoodResponse	0	0.209	33.073	0	2	Target	Neutral	True
34.073	0.3	Control	1.0	0.004	Yes	2.582	-0.004	2.0	GoodResponse	0	0.209	n/a	0	2	ButtonPress	Neutral	True
34.249	0.32	Control	1.0	n/a	Yes	2.582	n/a	n/a	GoodResponse	0	n/a	n/a	0	2	Blank	Neutral	True
34.566	1.45	Control	1.0	n/a	Yes	2.582	n/a	5.0	GoodResponse	0	0.043	33.609	0	2	Feedback	Neutral	True
36.021	2.582	Control	1.0	n/a	Yes	2.582	n/a	n/a	GoodResponse	0	0.0	n/a	0	2	ISIslide	Neutral	True
38.628	0.25	Win2	1.0	0.0	Yes	2.822	0.028	n/a	GoodResponse	1	n/a	n/a	1	3	Cue	Win	True
38.879	3.95	Win2	1.0	0.0	Yes	2.822	0.001	n/a	GoodResponse	1	n/a	n/a	1	3	Fixation	Win	True
42.824	0.37	Win2	1.0	0.004	Yes	2.822	-0.004	2.0	GoodResponse	1	0.211	42.035	1	3	Target	Win	True
43.035	0.3	Win2	1.0	0.004	Yes	2.822	-0.004	2.0	GoodResponse	1	0.211	n/a	1	3	ButtonPress	Win	True
43.209	0.33	Win2	1.0	n/a	Yes	2.822	n/a	n/a	GoodResponse	1	n/a	n/a	1	3	Blank	Win	True
43.526	1.45	Win2	1.0	n/a	Yes	2.822	n/a	5.0	GoodResponse	1	0.01	42.536	1	3	Feedback	Win	True
44.981	2.822	Win2	1.0	n/a	Yes	2.822	n/a	n/a	GoodResponse	1	0.0	n/a	1	3	ISIslide	Win	True
47.822	0.25	Win2	0.8	0.0	No	3.278	0.022	n/a	NoResponse	0	n/a	n/a	1	4	Cue	MissedWin	False
48.073	4.0	Win2	0.8	0.0	No	3.278	0.001	n/a	NoResponse	0	n/a	n/a	1	4	Fixation	MissedWin	False
52.068	0.36	Win2	0.8	0.004	No	3.278	-0.004	n/a	NoResponse	0	n/a	n/a	1	4	Target	MissedWin	False
52.436	0.34	Win2	0.8	n/a	No	3.278	n/a	n/a	NoResponse	0	n/a	n/a	1	4	Blank	MissedWin	False
52.771	1.45	Win2	0.8	n/a	No	3.278	n/a	5.0	NoResponse	0	0.033	51.804	1	4	Feedback	MissedWin	False
54.225	3.278	Win2	0.8	n/a	No	3.278	n/a	n/a	NoResponse	0	0.0	n/a	1	4	ISIslide	MissedWin	False
57.518	0.25	Win2	0.8332999999999999	0.0	Yes	2.782	0.018	n/a	GoodResponse	1	n/a	n/a	2	5	Cue	Win	True
57.769	4.0	Win2	0.8332999999999999	0.0	Yes	2.782	0.001	n/a	GoodResponse	1	n/a	n/a	2	5	Fixation	Win	True
61.764	0.35	Win2	0.8332999999999999	0.004	Yes	2.782	-0.004	2.0	GoodResponse	1	0.188	60.952	2	5	Target	Win	True
61.952	0.3	Win2	0.8332999999999999	0.004	Yes	2.782	-0.004	2.0	GoodResponse	1	0.188	n/a	2	5	ButtonPress	Win	True
62.115	0.35	Win2	0.8332999999999999	n/a	Yes	2.782	n/a	n/a	GoodResponse	1	n/a	n/a	2	5	Blank	Win	True
62.466	1.45	Win2	0.8332999999999999	n/a	Yes	2.782	n/a	5.0	GoodResponse	1	0.045	61.511	2	5	Feedback	Win	True
63.921	2.782	Win2	0.8332999999999999	n/a	Yes	2.782	n/a	n/a	GoodResponse	1	0.0	n/a	2	5	ISIslide	Win	True
66.729	0.25	Lose2	0.8571	0.0	Yes	2.721	0.029	n/a	GoodResponse	0	n/a	n/a	2	6	Cue	AvoidedLoss	False
66.98	3.95	Lose2	0.8571	0.0	Yes	2.721	0.001	2.0	GoodResponse	0	1.277	67.257	2	6	Fixation	AvoidedLoss	False
68.257	0.3	Lose2	0.8571	0.0	Yes	2.721	0.001	2.0	GoodResponse	0	1.277	n/a	2	6	ButtonPress	AvoidedLoss	False
70.925	0.34	Lose2	0.8571	0.004	Yes	2.721	-0.004	2.0	GoodResponse	0	0.224	70.149	2	6	Target	AvoidedLoss	False
71.149	0.3	Lose2	0.8571	0.004	Yes	2.721	-0.004	2.0	GoodResponse	0	0.224	n/a	2	6	ButtonPress	AvoidedLoss	False
71.276	0.36	Lose2	0.8571	n/a	Yes	2.721	n/a	n/a	GoodResponse	0	n/a	n/a	2	6	Blank	AvoidedLoss	False
71.627	1.45	Lose2	0.8571	n/a	Yes	2.721	n/a	5.0	GoodResponse	0	0.007	70.634	2	6	Feedback	AvoidedLoss	False
73.081	2.721	Lose2	0.8571	n/a	Yes	2.721	n/a	n/a	GoodResponse	0	0.0	n/a	2	6	ISIslide	AvoidedLoss	False
75.823	0.25	Lose2	0.875	0.0	Yes	4.027	0.023	n/a	GoodResponse	0	n/a	n/a	2	7	Cue	AvoidedLoss	True
76.073	4.05	Lose2	0.875	0.001	Yes	4.027	0.0	n/a	GoodResponse	0	n/a	n/a	2	7	Fixation	AvoidedLoss	True
80.119	0.33	Lose2	0.875	0.004	Yes	4.027	-0.004	2.0	GoodResponse	0	0.194	79.313	2	7	Target	AvoidedLoss	True
80.313	0.3	Lose2	0.875	0.004	Yes	4.027	-0.004	2.0	GoodResponse	0	0.194	n/a	2	7	ButtonPress	AvoidedLoss	True
80.453	0.37	Lose2	0.875	n/a	Yes	4.027	n/a	n/a	GoodResponse	0	n/a	n/a	2	7	Blank	AvoidedLoss	True
80.821	1.45	Lose2	0.875	n/a	Yes	4.027	n/a	5.0	GoodResponse	0	0.031	79.852	2	7	Feedback	AvoidedLoss	True
82.275	4.027	Lose2	0.875	n/a	Yes	4.027	n/a	n/a	GoodResponse	0	0.0	n/a	2	7	ISIslide	AvoidedLoss	True
86.321	0.25	Lose2	0.8889	0.0	Yes	3.029	0.021	n/a	GoodResponse	0	n/a	n/a	2	8	Cue	AvoidedLoss	True
86.571	3.95	Lose2	0.8889	0.001	Yes	3.029	0.0	n/a	GoodResponse	0	n/a	n/a	2	8	Fixation	AvoidedLoss	True
90.517	0.32	Lose2	0.8889	0.004	Yes	3.029	-0.004	2.0	GoodResponse	0	0.2	89.717	2	8	Target	AvoidedLoss	True
90.717	0.3	Lose2	0.8889	0.004	Yes	3.029	-0.004	2.0	GoodResponse	0	0.2	n/a	2	8	ButtonPress	AvoidedLoss	True
90.851	0.38	Lose2	0.8889	n/a	Yes	3.029	n/a	n/a	GoodResponse	0	n/a	n/a	2	8	Blank	AvoidedLoss	True
91.219	1.45	Lose2	0.8889	n/a	Yes	3.029	n/a	5.0	GoodResponse	0	0.024	90.243	2	8	Feedback	AvoidedLoss	True
92.673	3.029	Lose2	0.8889	n/a	Yes	3.029	n/a	n/a	GoodResponse	0	0.0	n/a	2	8	ISIslide	AvoidedLoss	True
95.715	0.25	Lose2	0.9	0.001	Yes	3.135	0.015	n/a	GoodResponse	0	n/a	n/a	2	9	Cue	AvoidedLoss	True
95.966	3.95	Lose2	0.9	0.0	Yes	3.135	0.001	n/a	GoodResponse	0	n/a	n/a	2	9	Fixation	AvoidedLoss	True
99.911	0.31	Lose2	0.9	0.004	Yes	3.135	-0.004	2.0	GoodResponse	0	0.199	99.11	2	9	Target	AvoidedLoss	True
100.11	0.3	Lose2	0.9	0.004	Yes	3.135	-0.004	2.0	GoodResponse	0	0.199	n/a	2	9	ButtonPress	AvoidedLoss	True
100.229	0.39	Lose2	0.9	n/a	Yes	3.135	n/a	n/a	GoodResponse	0	n/a	n/a	2	9	Blank	AvoidedLoss	True
100.613	1.45	Lose2	0.9	n/a	Yes	3.135	n/a	5.0	GoodResponse	0	0.043	99.656	2	9	Feedback	AvoidedLoss	True
102.068	3.135	Lose2	0.9	n/a	Yes	3.135	n/a	n/a	GoodResponse	0	0.0	n/a	2	9	ISIslide	AvoidedLoss	True
105.227	0.25	Control	0.9091	0.0	Yes	3.273	0.027	n/a	GoodResponse	0	n/a	n/a	2	10	Cue	Neutral	True
105.478	4.0	Control	0.9091	0.0	Yes	3.273	0.001	n/a	GoodResponse	0	n/a	n/a	2	10	Fixation	Neutral	True
109.473	0.3	Control	0.9091	0.004	Yes	3.273	-0.004	2.0	GoodResponse	0	0.215	108.688	2	10	Target	Neutral	True
109.688	0.3	Control	0.9091	0.004	Yes	3.273	-0.004	2.0	GoodResponse	0	0.215	n/a	2	10	ButtonPress	Neutral	True
109.774	0.4	Control	0.9091	n/a	Yes	3.273	n/a	n/a	GoodResponse	0	n/a	n/a	2	10	Blank	Neutral	True
110.175	1.45	Control	0.9091	n/a	Yes	3.273	n/a	5.0	GoodResponse	0	0.042	109.217	2	10	Feedback	Neutral	True
111.63	3.273	Control	0.9091	n/a	Yes	3.273	n/a	n/a	GoodResponse	0	0.0	n/a	2	10	ISIslide	Neutral	True
114.923	0.25	Lose2	0.9167000000000001	0.0	Yes	2.727	0.023	n/a	GoodResponse	0	n/a	n/a	2	11	Cue	AvoidedLoss	True
115.174	4.05	Lose2	0.9167000000000001	0.0	Yes	2.727	0.001	n/a	GoodResponse	0	n/a	n/a	2	11	Fixation	AvoidedLoss	True
119.219	0.29	Lose2	0.9167000000000001	0.004	Yes	2.727	-0.004	2.0	GoodResponse	0	0.193	118.412	2	11	Target	AvoidedLoss	True
119.412	0.3	Lose2	0.9167000000000001	0.004	Yes	2.727	-0.004	2.0	GoodResponse	0	0.193	n/a	2	11	ButtonPress	AvoidedLoss	True
119.52	0.41	Lose2	0.9167000000000001	n/a	Yes	2.727	n/a	n/a	GoodResponse	0	n/a	n/a	2	11	Blank	AvoidedLoss	True
119.921	1.45	Lose2	0.9167000000000001	n/a	Yes	2.727	n/a	5.0	GoodResponse	0	0.007	118.928	2	11	Feedback	AvoidedLoss	True
121.375	2.727	Lose2	0.9167000000000001	n/a	Yes	2.727	n/a	n/a	GoodResponse	0	0.0	n/a	2	11	ISIslide	AvoidedLoss	True
124.117	0.25	Control	0.9231	0.0	Yes	2.983	0.017	n/a	GoodResponse	0	n/a	n/a	2	12	Cue	Neutral	True
124.368	3.9	Control	0.9231	0.0	Yes	2.983	0.001	n/a	GoodResponse	0	n/a	n/a	2	12	Fixation	Neutral	True
128.263	0.28	Control	0.9231	0.004	Yes	2.983	-0.004	2.0	GoodResponse	0	0.213	127.476	2	12	Target	Neutral	True
128.476	0.3	Control	0.9231	0.004	Yes	2.983	-0.004	2.0	GoodResponse	0	0.213	n/a	2	12	ButtonPress	Neutral	True
128.547	0.42	Control	0.9231	n/a	Yes	2.983	n/a	n/a	GoodResponse	0	n/a	n/a	2	12	Blank	Neutral	True
128.965	1.45	Control	0.9231	n/a	Yes	2.983	n/a	5.0	GoodResponse	0	0.033	127.998	2	12	Feedback	Neutral	True
130.419	2.983	Control	0.9231	n/a	Yes	2.983	n/a	n/a	GoodResponse	0	0.0	n/a	2	12	ISIslide	Neutral	True
133.428	0.25	Control	0.9286	0.0	Yes	2.772	0.028	n/a	GoodResponse	0	n/a	n/a	2	13	Cue	Neutral	True
133.679	4.0	Control	0.9286	0.0	Yes	2.772	0.001	n/a	GoodResponse	0	n/a	n/a	2	13	Fixation	Neutral	True
137.674	0.27	Control	0.9286	0.004	Yes	2.772	-0.004	2.0	GoodResponse	0	0.205	136.879	2	13	Target	Neutral	True
137.879	0.3	Control	0.9286	0.004	Yes	2.772	-0.004	2.0	GoodResponse	0	0.205	n/a	2	13	ButtonPress	Neutral	True
137.958	0.43	Control	0.9286	n/a	Yes	2.772	n/a	n/a	GoodResponse	0	n/a	n/a	2	13	Blank	Neutral	True
138.376	1.45	Control	0.9286	n/a	Yes	2.772	n/a	5.0	GoodResponse	0	0.036	137.412	2	13	Feedback	Neutral	True
139.831	2.772	Control	0.9286	n/a	Yes	2.772	n/a	n/a	GoodResponse	0	0.0	n/a	2	13	ISIslide	Neutral	True
142.622	0.25	Win2	0.9333	0.0	Yes	2.678	0.022	n/a	GoodResponse	1	n/a	n/a	3	14	Cue	Win	True
142.873	4.1	Win2	0.9333	0.0	Yes	2.678	0.001	n/a	GoodResponse	1	n/a	n/a	3	14	Fixation	Win	True
146.969	0.26	Win2	0.9333	0.003	Yes	2.678	-0.003	2.0	GoodResponse	1	0.212	146.181	3	14	Target	Win	True
147.181	0.3	Win2	0.9333	0.003	Yes	2.678	-0.003	2.0	GoodResponse	1	0.212	n/a	3	14	ButtonPress	Win	True
147.236	0.44	Win2	0.9333	n/a	Yes	2.678	n/a	n/a	GoodResponse	1	n/a	n/a	3	14	Blank	Win	True
147.671	1.45	Win2	0.9333	n/a	Yes	2.678	n/a	5.0	GoodResponse	1	0.009	146.68	3	14	Feedback	Win	True
149.125	2.678	Win2	0.9333	n/a	Yes	2.678	n/a	n/a	GoodResponse	1	0.0	n/a	3	14	ISIslide	Win	True
151.816	0.25	Control	0.875	0.0	No	2.984	0.016	n/a	NoResponse	0	n/a	n/a	3	15	Cue	Neutral	True
152.067	4.0	Control	0.875	0.0	No	2.984	0.001	n/a	NoResponse	0	n/a	n/a	3	15	Fixation	Neutral	True
156.062	0.25	Control	0.875	0.004	No	2.984	-0.004	2.0	NoResponse	0	0.309	155.371	3	15	Target	Neutral	True
156.313	0.45	Control	0.875	n/a	No	2.984	n/a	n/a	NoResponse	0	n/a	n/a	3	15	Blank	Neutral	True
156.371	0.3	Control	0.875	0.004	No	2.984	-0.004	2.0	NoResponse	0	0.309	n/a	3	15	ButtonPress	Neutral	True
156.764	1.45	Control	0.875	n/a	No	2.984	n/a	5.0	NoResponse	0	0.038	155.802	3	15	Feedback	Neutral	True
158.219	2.984	Control	0.875	n/a	No	2.984	n/a	n/a	NoResponse	0	0.0	n/a	3	15	ISIslide	Neutral	True
161.228	0.25	Win2	0.8824	0.0	Yes	2.872	0.028	n/a	GoodResponse	1	n/a	n/a	4	16	Cue	Win	True
161.479	4.0	Win2	0.8824	0.0	Yes	2.872	0.001	n/a	GoodResponse	1	n/a	n/a	4	16	Fixation	Win	True
165.474	0.24	Win2	0.8824	0.004	Yes	2.872	-0.004	2.0	GoodResponse	1	0.193	164.667	4	16	Target	Win	True
165.667	0.3	Win2	0.8824	0.004	Yes	2.872	-0.004	2.0	GoodResponse	1	0.193	n/a	4	16	ButtonPress	Win	True
165.725	0.46	Win2	0.8824	n/a	Yes	2.872	n/a	n/a	GoodResponse	1	n/a	n/a	4	16	Blank	Win	True
166.176	1.45	Win2	0.8824	n/a	Yes	2.872	n/a	5.0	GoodResponse	1	0.041	165.217	4	16	Feedback	Win	True
167.63	2.872	Win2	0.8824	n/a	Yes	2.872	n/a	n/a	GoodResponse	1	0.0	n/a	4	16	ISIslide	Win	True
170.522	0.25	Lose2	0.8889	0.0	Yes	2.728	0.022	n/a	GoodResponse	0	n/a	n/a	4	17	Cue	AvoidedLoss	True
170.773	3.95	Lose2	0.8889	0.0	Yes	2.728	0.001	n/a	GoodResponse	0	n/a	n/a	4	17	Fixation	AvoidedLoss	True
174.718	0.23	Lose2	0.8889	0.004	Yes	2.728	-0.004	2.0	GoodResponse	0	0.198	173.916	4	17	Target	AvoidedLoss	True
174.916	0.3	Lose2	0.8889	0.004	Yes	2.728	-0.004	2.0	GoodResponse	0	0.198	n/a	4	17	ButtonPress	AvoidedLoss	True
174.952	0.47	Lose2	0.8889	n/a	Yes	2.728	n/a	n/a	GoodResponse	0	n/a	n/a	4	17	Blank	AvoidedLoss	True
175.42	1.45	Lose2	0.8889	n/a	Yes	2.728	n/a	5.0	GoodResponse	0	0.016	174.436	4	17	Feedback	AvoidedLoss	True
176.875	2.728	Lose2	0.8889	n/a	Yes	2.728	n/a	n/a	GoodResponse	0	0.0	n/a	4	17	ISIslide	AvoidedLoss	True
179.616	0.25	Lose2	0.8946999999999999	0.0	Yes	2.734	0.016	n/a	GoodResponse	0	n/a	n/a	4	18	Cue	AvoidedLoss	True
179.867	4.05	Lose2	0.8946999999999999	0.0	Yes	2.734	0.001	n/a	GoodResponse	0	n/a	n/a	4	18	Fixation	AvoidedLoss	True
183.912	0.22	Lose2	0.8946999999999999	0.004	Yes	2.734	-0.004	2.0	GoodResponse	0	0.192	183.104	4	18	Target	AvoidedLoss	True
184.104	0.3	Lose2	0.8946999999999999	0.004	Yes	2.734	-0.004	2.0	GoodResponse	0	0.192	n/a	4	18	ButtonPress	AvoidedLoss	True
184.146	0.48	Lose2	0.8946999999999999	n/a	Yes	2.734	n/a	n/a	GoodResponse	0	n/a	n/a	4	18	Blank	AvoidedLoss	True
184.614	1.45	Lose2	0.8946999999999999	n/a	Yes	2.734	n/a	5.0	GoodResponse	0	0.041	183.655	4	18	Feedback	AvoidedLoss	True
186.069	2.734	Lose2	0.8946999999999999	n/a	Yes	2.734	n/a	n/a	GoodResponse	0	0.0	n/a	4	18	ISIslide	AvoidedLoss	True
188.827	0.25	Control	0.85	0.0	No	2.923	0.027	n/a	NoResponse	0	n/a	n/a	4	19	Cue	Neutral	True
189.078	3.95	Control	0.85	0.0	No	2.923	0.001	n/a	NoResponse	0	n/a	n/a	4	19	Fixation	Neutral	True
193.023	0.21	Control	0.85	0.004	No	2.923	-0.004	2.0	NoResponse	0	0.241	192.264	4	19	Target	Neutral	True
193.24	0.49	Control	0.85	n/a	No	2.923	n/a	n/a	NoResponse	0	n/a	n/a	4	19	Blank	Neutral	True
193.264	0.3	Control	0.85	0.004	No	2.923	-0.004	2.0	NoResponse	0	0.241	n/a	4	19	ButtonPress	Neutral	True
193.725	1.45	Control	0.85	n/a	No	2.923	n/a	5.0	NoResponse	0	0.007	192.732	4	19	Feedback	Neutral	True
195.179	2.923	Control	0.85	n/a	No	2.923	n/a	n/a	NoResponse	0	0.0	n/a	4	19	ISIslide	Neutral	True
198.121	0.25	Control	0.8095	0.0	No	2.629	0.021	n/a	NoResponse	0	n/a	n/a	4	20	Cue	Neutral	True
198.372	4.05	Control	0.8095	0.0	No	2.629	0.001	n/a	NoResponse	0	n/a	n/a	4	20	Fixation	Neutral	True
202.417	0.2	Control	0.8095	0.004	No	2.629	-0.004	2.0	NoResponse	0	0.213	201.63	4	20	Target	Neutral	True
202.618	0.5	Control	0.8095	n/a	No	2.629	n/a	n/a	NoResponse	0	n/a	n/a	4	20	Blank	Neutral	True
202.63	0.3	Control	0.8095	0.004	No	2.629	-0.004	2.0	NoResponse	0	0.213	n/a	4	20	ButtonPress	Neutral	True
203.12	1.45	Control	0.8095	n/a	No	2.629	n/a	5.0	NoResponse	0	0.023	202.143	4	20	Feedback	Neutral	True
204.574	2.629	Control	0.8095	n/a	No	2.629	n/a	n/a	NoResponse	0	0.0	n/a	4	20	ISIslide	Neutral	True
207.215	0.25	Control	0.8181999999999999	0.0	Yes	2.785	0.015	n/a	GoodResponse	0	n/a	n/a	4	21	Cue	Neutral	True
207.466	4.1	Control	0.8181999999999999	0.0	Yes	2.785	0.001	n/a	GoodResponse	0	n/a	n/a	4	21	Fixation	Neutral	True
211.561	0.19	Control	0.8181999999999999	0.004	Yes	2.785	-0.004	2.0	GoodResponse	0	0.188	210.749	4	21	Target	Neutral	True
211.749	0.3	Control	0.8181999999999999	0.004	Yes	2.785	-0.004	2.0	GoodResponse	0	0.188	n/a	4	21	ButtonPress	Neutral	True
211.762	0.51	Control	0.8181999999999999	n/a	Yes	2.785	n/a	n/a	GoodResponse	0	n/a	n/a	4	21	Blank	Neutral	True
212.264	1.45	Control	0.8181999999999999	n/a	Yes	2.785	n/a	5.0	GoodResponse	0	0.0	211.264	4	21	Feedback	Neutral	True
213.718	2.785	Control	0.8181999999999999	n/a	Yes	2.785	n/a	n/a	GoodResponse	0	0.0	n/a	4	21	ISIslide	Neutral	True
216.526	0.25	Control	0.7826000000000001	0.0	No	2.774	0.026	n/a	NoResponse	0	n/a	n/a	4	22	Cue	Neutral	True
216.777	4.0	Control	0.7826000000000001	0.0	No	2.774	0.001	n/a	NoResponse	0	n/a	n/a	4	22	Fixation	Neutral	True
220.772	0.18	Control	0.7826000000000001	0.004	No	2.774	-0.004	2.0	NoResponse	0	0.255	220.027	4	22	Target	Neutral	True
220.956	0.52	Control	0.7826000000000001	n/a	No	2.774	n/a	n/a	NoResponse	0	n/a	n/a	4	22	Blank	Neutral	True
221.027	0.3	Control	0.7826000000000001	0.004	No	2.774	-0.004	2.0	NoResponse	0	0.255	n/a	4	22	ButtonPress	Neutral	True
221.474	1.45	Control	0.7826000000000001	n/a	No	2.774	n/a	5.0	NoResponse	0	0.01	220.484	4	22	Feedback	Neutral	True
222.929	2.774	Control	0.7826000000000001	n/a	No	2.774	n/a	n/a	NoResponse	0	0.0	n/a	4	22	ISIslide	Neutral	True
225.72	0.25	Control	0.75	0.0	No	2.78	0.02	n/a	NoResponse	0	n/a	n/a	4	23	Cue	Neutral	True
225.971	3.9	Control	0.75	0.0	No	2.78	0.001	n/a	NoResponse	0	n/a	n/a	4	23	Fixation	Neutral	True
229.866	0.17	Control	0.75	0.004	No	2.78	-0.004	2.0	NoResponse	0	0.193	229.059	4	23	Target	Neutral	True
230.05	0.53	Control	0.75	n/a	No	2.78	n/a	n/a	NoResponse	0	n/a	n/a	4	23	Blank	Neutral	True
230.059	0.3	Control	0.75	0.004	No	2.78	-0.004	2.0	NoResponse	0	0.193	n/a	4	23	ButtonPress	Neutral	True
230.568	1.45	Control	0.75	n/a	No	2.78	n/a	5.0	NoResponse	0	0.038	229.606	4	23	Feedback	Neutral	True
232.023	2.78	Control	0.75	n/a	No	2.78	n/a	n/a	NoResponse	0	0.0	n/a	4	23	ISIslide	Neutral	True
234.831	0.25	Win2	0.72	0.0	No	3.119	0.031	n/a	NoResponse	0	n/a	n/a	4	24	Cue	MissedWin	True
235.082	3.95	Win2	0.72	0.0	No	3.119	0.001	n/a	NoResponse	0	n/a	n/a	4	24	Fixation	MissedWin	True
239.027	0.16	Win2	0.72	0.004	No	3.119	-0.004	2.0	NoResponse	0	0.199	238.226	4	24	Target	MissedWin	True
239.194	0.54	Win2	0.72	n/a	No	3.119	n/a	n/a	NoResponse	0	n/a	n/a	4	24	Blank	MissedWin	True
239.226	0.3	Win2	0.72	0.004	No	3.119	-0.004	2.0	NoResponse	0	0.199	n/a	4	24	ButtonPress	MissedWin	True
239.729	1.45	Win2	0.72	n/a	No	3.119	n/a	5.0	NoResponse	0	0.048	238.777	4	24	Feedback	MissedWin	True
241.183	3.119	Win2	0.72	n/a	No	3.119	n/a	n/a	NoResponse	0	0.0	n/a	4	24	ISIslide	MissedWin	True
244.326	0.25	Win2	0.6923	0.0	No	3.074	0.026	n/a	NoResponse	0	n/a	n/a	4	25	Cue	MissedWin	True
244.577	4.0	Win2	0.6923	0.0	No	3.074	0.001	n/a	NoResponse	0	n/a	n/a	4	25	Fixation	MissedWin	True
248.572	0.15	Win2	0.6923	0.004	No	3.074	-0.004	2.0	NoResponse	0	0.191	247.763	4	25	Target	MissedWin	True
248.722	0.55	Win2	0.6923	n/a	No	3.074	n/a	n/a	NoResponse	0	n/a	n/a	4	25	Blank	MissedWin	True
248.763	0.3	Win2	0.6923	0.004	No	3.074	-0.004	2.0	NoResponse	0	0.191	n/a	4	25	ButtonPress	MissedWin	True
249.274	1.45	Win2	0.6923	n/a	No	3.074	n/a	5.0	NoResponse	0	0.014	248.288	4	25	Feedback	MissedWin	True
250.728	3.074	Win2	0.6923	n/a	No	3.074	n/a	n/a	NoResponse	0	0.0	n/a	4	25	ISIslide	MissedWin	True
253.821	0.25	Win2	0.6667000000000001	0.0	No	2.929	0.021	n/a	NoResponse	0	n/a	n/a	4	26	Cue	MissedWin	True
254.072	3.95	Win2	0.6667000000000001	0.0	No	2.929	0.001	n/a	NoResponse	0	n/a	n/a	4	26	Fixation	MissedWin	True
258.017	0.15	Win2	0.6667000000000001	0.004	No	2.929	-0.004	2.0	NoResponse	0	0.162	257.179	4	26	Target	MissedWin	True
258.167	0.55	Win2	0.6667000000000001	n/a	No	2.929	n/a	n/a	NoResponse	0	n/a	n/a	4	26	Blank	MissedWin	True
258.179	0.3	Win2	0.6667000000000001	0.004	No	2.929	-0.004	2.0	NoResponse	0	0.162	n/a	4	26	ButtonPress	MissedWin	True
258.719	1.45	Win2	0.6667000000000001	n/a	No	2.929	n/a	5.0	NoResponse	0	0.033	257.752	4	26	Feedback	MissedWin	True
260.173	2.929	Win2	0.6667000000000001	n/a	No	2.929	n/a	n/a	NoResponse	0	0.0	n/a	4	26	ISIslide	MissedWin	True
263.115	0.25	Lose2	0.6429	0.0	No	2.835	0.015	n/a	NoResponse	-1	n/a	n/a	3	27	Cue	Loss	True
263.366	4.05	Lose2	0.6429	0.0	No	2.835	0.001	n/a	NoResponse	-1	n/a	n/a	3	27	Fixation	Loss	True
267.412	0.15	Lose2	0.6429	0.003	No	2.835	-0.003	2.0	NoResponse	-1	0.161	266.573	3	27	Target	Loss	True
267.562	0.55	Lose2	0.6429	n/a	No	2.835	n/a	n/a	NoResponse	-1	n/a	n/a	3	27	Blank	Loss	True
267.573	0.3	Lose2	0.6429	0.003	No	2.835	-0.003	2.0	NoResponse	-1	0.161	n/a	3	27	ButtonPress	Loss	True
268.114	1.45	Lose2	0.6429	n/a	No	2.835	n/a	5.0	NoResponse	-1	0.006	267.12	3	27	Feedback	Loss	True
269.568	2.835	Lose2	0.6429	n/a	No	2.835	n/a	n/a	NoResponse	-1	0.0	n/a	3	27	ISIslide	Loss	True
272.427	0.25	Control	0.6207	0.0	No	2.823	0.027	n/a	NoResponse	0	n/a	n/a	3	28	Cue	Neutral	True
272.677	4.05	Control	0.6207	0.0	No	2.823	0.0	n/a	NoResponse	0	n/a	n/a	3	28	Fixation	Neutral	True
276.723	0.16	Control	0.6207	0.004	No	2.823	-0.004	2.0	NoResponse	0	0.191	275.914	3	28	Target	Neutral	True
276.89	0.54	Control	0.6207	n/a	No	2.823	n/a	n/a	NoResponse	0	n/a	n/a	3	28	Blank	Neutral	True
276.914	0.3	Control	0.6207	0.004	No	2.823	-0.004	2.0	NoResponse	0	0.191	n/a	3	28	ButtonPress	Neutral	True
277.425	1.45	Control	0.6207	n/a	No	2.823	n/a	5.0	NoResponse	0	0.01	276.435	3	28	Feedback	Neutral	True
278.879	2.823	Control	0.6207	n/a	No	2.823	n/a	n/a	NoResponse	0	0.0	n/a	3	28	ISIslide	Neutral	True
281.721	0.25	Lose2	0.6	0.0	No	2.829	0.021	n/a	LatePress	-1	n/a	n/a	2	29	Cue	Loss	True
281.972	3.95	Lose2	0.6	0.0	No	2.829	0.001	n/a	LatePress	-1	n/a	n/a	2	29	Fixation	Loss	True
285.917	0.17	Lose2	0.6	0.004	No	2.829	-0.004	2.0	LatePress	-1	0.181	285.098	2	29	Target	Loss	True
286.098	0.3	Lose2	0.6	0.004	No	2.829	-0.004	2.0	LatePress	-1	0.181	n/a	2	29	ButtonPress	Loss	True
286.101	0.53	Lose2	0.6	n/a	No	2.829	n/a	n/a	LatePress	-1	n/a	n/a	2	29	Blank	Loss	True
286.619	1.45	Lose2	0.6	n/a	No	2.829	n/a	5.0	LatePress	-1	0.034	285.653	2	29	Feedback	Loss	True
288.073	2.829	Lose2	0.6	n/a	No	2.829	n/a	n/a	LatePress	-1	0.0	n/a	2	29	ISIslide	Loss	True
290.915	0.25	Win2	0.5806	0.0	No	2.785	0.015	n/a	NoResponse	0	n/a	n/a	2	30	Cue	MissedWin	True
291.166	3.9	Win2	0.5806	0.0	No	2.785	0.001	n/a	NoResponse	0	n/a	n/a	2	30	Fixation	MissedWin	True
295.061	0.18	Win2	0.5806	0.004	No	2.785	-0.004	2.0	NoResponse	0	0.207	294.268	2	30	Target	MissedWin	True
295.245	0.52	Win2	0.5806	n/a	No	2.785	n/a	n/a	NoResponse	0	n/a	n/a	2	30	Blank	MissedWin	True
295.268	0.3	Win2	0.5806	0.004	No	2.785	-0.004	2.0	NoResponse	0	0.207	n/a	2	30	ButtonPress	MissedWin	True
295.763	1.45	Win2	0.5806	n/a	No	2.785	n/a	5.0	NoResponse	0	0.012	294.775	2	30	Feedback	MissedWin	True
297.217	2.785	Win2	0.5806	n/a	No	2.785	n/a	n/a	NoResponse	0	0.0	n/a	2	30	ISIslide	MissedWin	True
300.026	0.25	Lose2	0.5938	0.0	Yes	2.824	0.026	n/a	GoodResponse	0	n/a	n/a	2	31	Cue	AvoidedLoss	True
300.276	4.05	Lose2	0.5938	0.0	Yes	2.824	0.0	n/a	GoodResponse	0	n/a	n/a	2	31	Fixation	AvoidedLoss	True
304.322	0.19	Lose2	0.5938	0.004	Yes	2.824	-0.004	2.0	GoodResponse	0	0.176	303.498	2	31	Target	AvoidedLoss	True
304.498	0.3	Lose2	0.5938	0.004	Yes	2.824	-0.004	2.0	GoodResponse	0	0.176	n/a	2	31	ButtonPress	AvoidedLoss	True
304.522	0.51	Lose2	0.5938	n/a	Yes	2.824	n/a	n/a	GoodResponse	0	n/a	n/a	2	31	Blank	AvoidedLoss	True
305.024	1.45	Lose2	0.5938	n/a	Yes	2.824	n/a	5.0	GoodResponse	0	0.02	304.044	2	31	Feedback	AvoidedLoss	True
306.478	2.824	Lose2	0.5938	n/a	Yes	2.824	n/a	n/a	GoodResponse	0	0.0	n/a	2	31	ISIslide	AvoidedLoss	True
309.32	0.25	Lose2	0.6061	0.0	Yes	2.63	0.02	n/a	GoodResponse	0	n/a	n/a	2	32	Cue	AvoidedLoss	True
309.571	4.15	Lose2	0.6061	0.0	Yes	2.63	0.001	n/a	GoodResponse	0	n/a	n/a	2	32	Fixation	AvoidedLoss	True
313.717	0.2	Lose2	0.6061	0.003	Yes	2.63	-0.003	2.0	GoodResponse	0	0.172	312.889	2	32	Target	AvoidedLoss	True
313.889	0.3	Lose2	0.6061	0.003	Yes	2.63	-0.003	2.0	GoodResponse	0	0.172	n/a	2	32	ButtonPress	AvoidedLoss	True
313.917	0.5	Lose2	0.6061	n/a	Yes	2.63	n/a	n/a	GoodResponse	0	n/a	n/a	2	32	Blank	AvoidedLoss	True
314.419	1.45	Lose2	0.6061	n/a	Yes	2.63	n/a	5.0	GoodResponse	0	0.039	313.458	2	32	Feedback	AvoidedLoss	True
315.873	2.63	Lose2	0.6061	n/a	Yes	2.63	n/a	n/a	GoodResponse	0	0.0	n/a	2	32	ISIslide	AvoidedLoss	True
318.531	0.25	Win2	0.6175999999999999	0.0	Yes	2.669	0.031	n/a	GoodResponse	1	n/a	n/a	3	33	Cue	Win	True
318.782	4.0	Win2	0.6175999999999999	0.0	Yes	2.669	0.001	n/a	GoodResponse	1	n/a	n/a	3	33	Fixation	Win	True
322.777	0.21	Win2	0.6175999999999999	0.004	Yes	2.669	-0.004	2.0	GoodResponse	1	0.187	321.964	3	33	Target	Win	True
322.964	0.3	Win2	0.6175999999999999	0.004	Yes	2.669	-0.004	2.0	GoodResponse	1	0.187	n/a	3	33	ButtonPress	Win	True
322.994	0.49	Win2	0.6175999999999999	n/a	Yes	2.669	n/a	n/a	GoodResponse	1	n/a	n/a	3	33	Blank	Win	True
323.479	1.45	Win2	0.6175999999999999	n/a	Yes	2.669	n/a	5.0	GoodResponse	1	0.007	322.486	3	33	Feedback	Win	True
324.933	2.669	Win2	0.6175999999999999	n/a	Yes	2.669	n/a	n/a	GoodResponse	1	0.0	n/a	3	33	ISIslide	Win	True
327.625	0.25	Lose2	0.6286	0.0	Yes	2.625	0.025	n/a	GoodResponse	0	n/a	n/a	3	34	Cue	AvoidedLoss	True
327.875	4.05	Lose2	0.6286	0.001	Yes	2.625	0.0	n/a	GoodResponse	0	n/a	n/a	3	34	Fixation	AvoidedLoss	True
331.921	0.22	Lose2	0.6286	0.004	Yes	2.625	-0.004	2.0	GoodResponse	0	0.179	331.1	3	34	Target	AvoidedLoss	True
332.1	0.3	Lose2	0.6286	0.004	Yes	2.625	-0.004	2.0	GoodResponse	0	0.179	n/a	3	34	ButtonPress	AvoidedLoss	True
332.155	0.48	Lose2	0.6286	n/a	Yes	2.625	n/a	n/a	GoodResponse	0	n/a	n/a	3	34	Blank	AvoidedLoss	True
332.623	1.45	Lose2	0.6286	n/a	Yes	2.625	n/a	5.0	GoodResponse	0	0.03	331.653	3	34	Feedback	AvoidedLoss	True
334.077	2.625	Lose2	0.6286	n/a	Yes	2.625	n/a	n/a	GoodResponse	0	0.0	n/a	3	34	ISIslide	AvoidedLoss	True
336.719	0.25	Lose2	0.6389	0.0	Yes	2.681	0.019	n/a	GoodResponse	0	n/a	n/a	3	35	Cue	AvoidedLoss	False
336.969	4.0	Lose2	0.6389	0.0	Yes	2.681	0.0	2.0	GoodResponse	0	0.043	336.012	3	35	Fixation	AvoidedLoss	False
337.012	0.3	Lose2	0.6389	0.0	Yes	2.681	0.0	2.0	GoodResponse	0	0.043	n/a	3	35	ButtonPress	AvoidedLoss	False
340.965	0.23	Lose2	0.6389	0.004	Yes	2.681	-0.004	2.0	GoodResponse	0	0.183	340.148	3	35	Target	AvoidedLoss	False
341.148	0.3	Lose2	0.6389	0.004	Yes	2.681	-0.004	2.0	GoodResponse	0	0.183	n/a	3	35	ButtonPress	AvoidedLoss	False
341.199	0.47	Lose2	0.6389	n/a	Yes	2.681	n/a	n/a	GoodResponse	0	n/a	n/a	3	35	Blank	AvoidedLoss	False
341.667	1.45	Lose2	0.6389	n/a	Yes	2.681	n/a	5.0	GoodResponse	0	0.01	340.677	3	35	Feedback	AvoidedLoss	False
343.121	2.681	Lose2	0.6389	n/a	Yes	2.681	n/a	n/a	GoodResponse	0	0.0	n/a	3	35	ISIslide	AvoidedLoss	False
345.829	0.25	Control	0.6486	0.0	Yes	2.671	0.029	n/a	GoodResponse	0	n/a	n/a	3	36	Cue	Neutral	True
346.08	4.0	Control	0.6486	0.0	Yes	2.671	0.001	n/a	GoodResponse	0	n/a	n/a	3	36	Fixation	Neutral	True
350.075	0.24	Control	0.6486	0.004	Yes	2.671	-0.004	2.0	GoodResponse	0	0.187	349.262	3	36	Target	Neutral	True
350.262	0.3	Control	0.6486	0.004	Yes	2.671	-0.004	2.0	GoodResponse	0	0.187	n/a	3	36	ButtonPress	Neutral	True
350.326	0.46	Control	0.6486	n/a	Yes	2.671	n/a	n/a	GoodResponse	0	n/a	n/a	3	36	Blank	Neutral	True
350.777	1.45	Control	0.6486	n/a	Yes	2.671	n/a	5.0	GoodResponse	0	0.022	349.799	3	36	Feedback	Neutral	True
352.232	2.671	Control	0.6486	n/a	Yes	2.671	n/a	n/a	GoodResponse	0	0.0	n/a	3	36	ISIslide	Neutral	True
354.923	0.25	Win2	0.6579	0.0	Yes	2.877	0.023	n/a	GoodResponse	1	n/a	n/a	4	37	Cue	Win	True
355.174	4.0	Win2	0.6579	0.0	Yes	2.877	0.001	n/a	GoodResponse	1	n/a	n/a	4	37	Fixation	Win	True
359.169	0.25	Win2	0.6579	0.004	Yes	2.877	-0.004	2.0	GoodResponse	1	0.194	358.363	4	37	Target	Win	True
359.363	0.3	Win2	0.6579	0.004	Yes	2.877	-0.004	2.0	GoodResponse	1	0.194	n/a	4	37	ButtonPress	Win	True
359.42	0.45	Win2	0.6579	n/a	Yes	2.877	n/a	n/a	GoodResponse	1	n/a	n/a	4	37	Blank	Win	True
359.871	1.45	Win2	0.6579	n/a	Yes	2.877	n/a	5.0	GoodResponse	1	0.001	358.872	4	37	Feedback	Win	True
361.325	2.877	Win2	0.6579	n/a	Yes	2.877	n/a	n/a	GoodResponse	1	0.0	n/a	4	37	ISIslide	Win	True
364.217	0.25	Lose2	0.6667000000000001	0.0	Yes	2.833	0.017	n/a	GoodResponse	0	n/a	n/a	4	38	Cue	AvoidedLoss	True
364.468	3.95	Lose2	0.6667000000000001	0.0	Yes	2.833	0.001	n/a	GoodResponse	0	n/a	n/a	4	38	Fixation	AvoidedLoss	True
368.413	0.25	Lose2	0.6667000000000001	0.004	Yes	2.833	-0.004	2.0	GoodResponse	0	0.18	367.593	4	38	Target	AvoidedLoss	True
368.593	0.3	Lose2	0.6667000000000001	0.004	Yes	2.833	-0.004	2.0	GoodResponse	0	0.18	n/a	4	38	ButtonPress	AvoidedLoss	True
368.664	0.45	Lose2	0.6667000000000001	n/a	Yes	2.833	n/a	n/a	GoodResponse	0	n/a	n/a	4	38	Blank	AvoidedLoss	True
369.115	1.45	Lose2	0.6667000000000001	n/a	Yes	2.833	n/a	5.0	GoodResponse	0	0.025	368.14	4	38	Feedback	AvoidedLoss	True
370.57	2.833	Lose2	0.6667000000000001	n/a	Yes	2.833	n/a	n/a	GoodResponse	0	0.0	n/a	4	38	ISIslide	AvoidedLoss	True
373.428	0.25	Win2	0.675	0.0	Yes	2.972	0.028	n/a	GoodResponse	1	n/a	n/a	5	39	Cue	Win	True
373.679	4.1	Win2	0.675	0.0	Yes	2.972	0.001	n/a	GoodResponse	1	n/a	n/a	5	39	Fixation	Win	True
377.774	0.24	Win2	0.675	0.004	Yes	2.972	-0.004	2.0	GoodResponse	1	0.18	376.954	5	39	Target	Win	True
377.954	0.3	Win2	0.675	0.004	Yes	2.972	-0.004	2.0	GoodResponse	1	0.18	n/a	5	39	ButtonPress	Win	True
378.025	0.46	Win2	0.675	n/a	Yes	2.972	n/a	n/a	GoodResponse	1	n/a	n/a	5	39	Blank	Win	True
378.477	1.45	Win2	0.675	n/a	Yes	2.972	n/a	5.0	GoodResponse	1	0.029	377.506	5	39	Feedback	Win	True
379.931	2.972	Win2	0.675	n/a	Yes	2.972	n/a	n/a	GoodResponse	1	0.0	n/a	5	39	ISIslide	Win	True
382.923	0.25	Win2	0.6829000000000001	0.0	Yes	2.727	0.023	n/a	GoodResponse	1	n/a	n/a	6	40	Cue	Win	True
383.174	3.95	Win2	0.6829000000000001	0.0	Yes	2.727	0.001	n/a	GoodResponse	1	n/a	n/a	6	40	Fixation	Win	True
387.119	0.23	Win2	0.6829000000000001	0.004	Yes	2.727	-0.004	2.0	GoodResponse	1	0.208	386.327	6	40	Target	Win	True
387.327	0.3	Win2	0.6829000000000001	0.004	Yes	2.727	-0.004	2.0	GoodResponse	1	0.208	n/a	6	40	ButtonPress	Win	True
387.353	0.47	Win2	0.6829000000000001	n/a	Yes	2.727	n/a	n/a	GoodResponse	1	n/a	n/a	6	40	Blank	Win	True
387.821	1.45	Win2	0.6829000000000001	n/a	Yes	2.727	n/a	5.0	GoodResponse	1	0.002	386.823	6	40	Feedback	Win	True
389.276	2.727	Win2	0.6829000000000001	n/a	Yes	2.727	n/a	n/a	GoodResponse	1	0.0	n/a	6	40	ISIslide	Win	True
392.017	0.25	Win2	0.6905	0.0	Yes	2.783	0.017	n/a	GoodResponse	1	n/a	n/a	7	41	Cue	Win	True
392.268	3.9	Win2	0.6905	0.0	Yes	2.783	0.001	n/a	GoodResponse	1	n/a	n/a	7	41	Fixation	Win	True
396.163	0.22	Win2	0.6905	0.004	Yes	2.783	-0.004	2.0	GoodResponse	1	0.173	395.336	7	41	Target	Win	True
396.336	0.3	Win2	0.6905	0.004	Yes	2.783	-0.004	2.0	GoodResponse	1	0.173	n/a	7	41	ButtonPress	Win	True
396.397	0.48	Win2	0.6905	n/a	Yes	2.783	n/a	n/a	GoodResponse	1	n/a	n/a	7	41	Blank	Win	True
396.865	1.45	Win2	0.6905	n/a	Yes	2.783	n/a	5.0	GoodResponse	1	0.03	395.895	7	41	Feedback	Win	True
398.319	2.783	Win2	0.6905	n/a	Yes	2.783	n/a	n/a	GoodResponse	1	0.0	n/a	7	41	ISIslide	Win	True
401.128	0.25	Control	0.6977	0.0	Yes	2.922	0.028	n/a	GoodResponse	0	n/a	n/a	7	42	Cue	Neutral	True
401.378	3.85	Control	0.6977	0.0	Yes	2.922	0.0	n/a	GoodResponse	0	n/a	n/a	7	42	Fixation	Neutral	True
405.24	0.21	Control	0.6977	0.0	Yes	2.922	0.012	2.0	GoodResponse	0	0.193	404.433	7	42	Target	Neutral	True
405.433	0.3	Control	0.6977	0.0	Yes	2.922	0.012	2.0	GoodResponse	0	0.193	n/a	7	42	ButtonPress	Neutral	True
405.44	0.49	Control	0.6977	n/a	Yes	2.922	n/a	n/a	GoodResponse	0	n/a	n/a	7	42	Blank	Neutral	True
405.925	1.45	Control	0.6977	n/a	Yes	2.922	n/a	5.0	GoodResponse	0	0.044	404.969	7	42	Feedback	Neutral	True
407.38	2.922	Control	0.6977	n/a	Yes	2.922	n/a	n/a	GoodResponse	0	0.0	n/a	7	42	ISIslide	Neutral	True
410.322	0.25	Win2	0.7045	0.0	Yes	3.178	0.022	n/a	GoodResponse	1	n/a	n/a	8	43	Cue	Win	True
410.572	4.0	Win2	0.7045	0.001	Yes	3.178	0.0	n/a	GoodResponse	1	n/a	n/a	8	43	Fixation	Win	True
414.568	0.2	Win2	0.7045	0.004	Yes	3.178	-0.004	2.0	GoodResponse	1	0.184	413.752	8	43	Target	Win	True
414.752	0.3	Win2	0.7045	0.004	Yes	3.178	-0.004	2.0	GoodResponse	1	0.184	n/a	8	43	ButtonPress	Win	True
414.768	0.5	Win2	0.7045	n/a	Yes	3.178	n/a	n/a	GoodResponse	1	n/a	n/a	8	43	Blank	Win	True
415.27	1.45	Win2	0.7045	n/a	Yes	3.178	n/a	5.0	GoodResponse	1	0.016	414.286	8	43	Feedback	Win	True
416.724	3.178	Win2	0.7045	n/a	Yes	3.178	n/a	n/a	GoodResponse	1	0.0	n/a	8	43	ISIslide	Win	True
419.917	0.25	Win2	0.7111	0.0	Yes	2.983	0.017	n/a	GoodResponse	1	n/a	n/a	9	44	Cue	Win	True
420.168	4.0	Win2	0.7111	0.0	Yes	2.983	0.001	n/a	GoodResponse	1	n/a	n/a	9	44	Fixation	Win	True
424.163	0.19	Win2	0.7111	0.004	Yes	2.983	-0.004	2.0	GoodResponse	1	0.17	423.333	9	44	Target	Win	True
424.333	0.3	Win2	0.7111	0.004	Yes	2.983	-0.004	2.0	GoodResponse	1	0.17	n/a	9	44	ButtonPress	Win	True
424.364	0.51	Win2	0.7111	n/a	Yes	2.983	n/a	n/a	GoodResponse	1	n/a	n/a	9	44	Blank	Win	True
424.865	1.45	Win2	0.7111	n/a	Yes	2.983	n/a	5.0	GoodResponse	1	0.031	423.896	9	44	Feedback	Win	True
426.319	2.983	Win2	0.7111	n/a	Yes	2.983	n/a	n/a	GoodResponse	1	0.0	n/a	9	44	ISIslide	Win	True
429.328	0.25	Control	0.6957	0.001	No	2.872	0.028	n/a	NoResponse	0	n/a	n/a	9	45	Cue	Neutral	True
429.579	4.1	Control	0.6957	0.0	No	2.872	0.001	n/a	NoResponse	0	n/a	n/a	9	45	Fixation	Neutral	True
433.675	0.18	Control	0.6957	0.003	No	2.872	-0.003	2.0	NoResponse	0	0.2	432.875	9	45	Target	Neutral	True
433.859	0.52	Control	0.6957	n/a	No	2.872	n/a	n/a	NoResponse	0	n/a	n/a	9	45	Blank	Neutral	True
433.875	0.3	Control	0.6957	0.003	No	2.872	-0.003	2.0	NoResponse	0	0.2	n/a	9	45	ButtonPress	Neutral	True
434.377	1.45	Control	0.6957	n/a	No	2.872	n/a	5.0	NoResponse	0	0.03	433.407	9	45	Feedback	Neutral	True
435.831	2.872	Control	0.6957	n/a	No	2.872	n/a	n/a	NoResponse	0	0.0	n/a	9	45	ISIslide	Neutral	True
438.723	0.25	Lose2	0.6809000000000001	0.0	No	3.377	0.023	n/a	LatePress	-1	n/a	n/a	8	46	Cue	Loss	True
438.974	4.0	Lose2	0.6809000000000001	0.0	No	3.377	0.001	n/a	LatePress	-1	n/a	n/a	8	46	Fixation	Loss	True
442.969	0.17	Lose2	0.6809000000000001	0.004	No	3.377	-0.004	2.0	LatePress	-1	0.177	442.146	8	46	Target	Loss	True
443.146	0.3	Lose2	0.6809000000000001	0.004	No	3.377	-0.004	2.0	LatePress	-1	0.177	n/a	8	46	ButtonPress	Loss	True
443.153	0.53	Lose2	0.6809000000000001	n/a	No	3.377	n/a	n/a	LatePress	-1	n/a	n/a	8	46	Blank	Loss	True
443.671	1.45	Lose2	0.6809000000000001	n/a	No	3.377	n/a	5.0	LatePress	-1	0.006	442.677	8	46	Feedback	Loss	True
445.126	3.377	Lose2	0.6809000000000001	n/a	No	3.377	n/a	n/a	LatePress	-1	0.0	n/a	8	46	ISIslide	Loss	True
448.519	0.25	Lose2	0.6667000000000001	0.0	No	2.681	0.019	n/a	NoResponse	-1	n/a	n/a	7	47	Cue	Loss	True
448.77	4.0	Lose2	0.6667000000000001	0.0	No	2.681	0.001	n/a	NoResponse	-1	n/a	n/a	7	47	Fixation	Loss	True
452.765	0.16	Lose2	0.6667000000000001	0.004	No	2.681	-0.004	2.0	NoResponse	-1	0.192	451.957	7	47	Target	Loss	True
452.932	0.54	Lose2	0.6667000000000001	n/a	No	2.681	n/a	n/a	NoResponse	-1	n/a	n/a	7	47	Blank	Loss	True
452.957	0.3	Lose2	0.6667000000000001	0.004	No	2.681	-0.004	2.0	NoResponse	-1	0.192	n/a	7	47	ButtonPress	Loss	True
453.467	1.45	Lose2	0.6667000000000001	n/a	No	2.681	n/a	5.0	NoResponse	-1	0.013	452.48	7	47	Feedback	Loss	True
454.922	2.681	Lose2	0.6667000000000001	n/a	No	2.681	n/a	n/a	NoResponse	-1	0.0	n/a	7	47	ISIslide	Loss	True
457.63	0.25	Lose2	0.6531	0.0	No	3.02	0.03	n/a	NoResponse	-1	n/a	n/a	6	48	Cue	Loss	True
457.88	3.95	Lose2	0.6531	0.0	No	3.02	0.0	n/a	NoResponse	-1	n/a	n/a	6	48	Fixation	Loss	True
461.826	0.15	Lose2	0.6531	0.004	No	3.02	-0.004	2.0	NoResponse	-1	0.199	461.025	6	48	Target	Loss	True
461.976	0.55	Lose2	0.6531	n/a	No	3.02	n/a	n/a	NoResponse	-1	n/a	n/a	6	48	Blank	Loss	True
462.025	0.3	Lose2	0.6531	0.004	No	3.02	-0.004	2.0	NoResponse	-1	0.199	n/a	6	48	ButtonPress	Loss	True
462.528	1.45	Lose2	0.6531	n/a	No	3.02	n/a	5.0	NoResponse	-1	0.026	461.554	6	48	Feedback	Loss	True
463.982	3.02	Lose2	0.6531	n/a	No	3.02	n/a	n/a	NoResponse	-1	0.0	n/a	6	48	ISIslide	Loss	True
467.024	0.25	Control	0.64	0.0	No	2.876	0.024	n/a	NoResponse	0	n/a	n/a	6	49	Cue	Neutral	True
467.275	4.0	Control	0.64	0.0	No	2.876	0.001	n/a	NoResponse	0	n/a	n/a	6	49	Fixation	Neutral	True
471.27	0.16	Control	0.64	0.004	No	2.876	-0.004	2.0	NoResponse	0	0.245	470.515	6	49	Target	Neutral	True
471.438	0.54	Control	0.64	n/a	No	2.876	n/a	n/a	NoResponse	0	n/a	n/a	6	49	Blank	Neutral	True
471.515	0.3	Control	0.64	0.004	No	2.876	-0.004	2.0	NoResponse	0	0.245	n/a	6	49	ButtonPress	Neutral	True
471.972	1.45	Control	0.64	n/a	No	2.876	n/a	5.0	NoResponse	0	0.044	471.016	6	49	Feedback	Neutral	True
473.427	2.876	Control	0.64	n/a	No	2.876	n/a	n/a	NoResponse	0	0.0	n/a	6	49	ISIslide	Neutral	True
476.319	0.25	Control	0.6275	0.0	No	2.781	0.019	n/a	NoResponse	0	n/a	n/a	6	50	Cue	Neutral	True
476.57	4.0	Control	0.6275	0.0	No	2.781	0.001	n/a	NoResponse	0	n/a	n/a	6	50	Fixation	Neutral	True
480.565	0.17	Control	0.6275	0.004	No	2.781	-0.004	2.0	NoResponse	0	0.202	479.767	6	50	Target	Neutral	True
480.749	0.53	Control	0.6275	n/a	No	2.781	n/a	n/a	NoResponse	0	n/a	n/a	6	50	Blank	Neutral	True
480.767	0.3	Control	0.6275	0.004	No	2.781	-0.004	2.0	NoResponse	0	0.202	n/a	6	50	ButtonPress	Neutral	True
481.267	1.45	Control	0.6275	n/a	No	2.781	n/a	5.0	NoResponse	0	0.017	480.284	6	50	Feedback	Neutral	True
482.721	2.781	Control	0.6275	n/a	No	2.781	n/a	n/a	NoResponse	0	0.0	n/a	6	50	ISIslide	Neutral	True
485.53	0.25	Control	0.6346	0.0	Yes	2.72	0.03	n/a	GoodResponse	0	n/a	n/a	6	51	Cue	Neutral	True
485.78	3.95	Control	0.6346	0.0	Yes	2.72	0.0	n/a	GoodResponse	0	n/a	n/a	6	51	Fixation	Neutral	True
489.726	0.18	Control	0.6346	0.004	Yes	2.72	-0.004	2.0	GoodResponse	0	0.178	488.904	6	51	Target	Neutral	True
489.904	0.3	Control	0.6346	0.004	Yes	2.72	-0.004	2.0	GoodResponse	0	0.178	n/a	6	51	ButtonPress	Neutral	True
489.909	0.52	Control	0.6346	n/a	Yes	2.72	n/a	n/a	GoodResponse	0	n/a	n/a	6	51	Blank	Neutral	True
490.428	1.45	Control	0.6346	n/a	Yes	2.72	n/a	5.0	GoodResponse	0	0.027	489.455	6	51	Feedback	Neutral	True
491.882	2.72	Control	0.6346	n/a	Yes	2.72	n/a	n/a	GoodResponse	0	0.0	n/a	6	51	ISIslide	Neutral	True
494.623	0.25	Control	0.6225999999999999	0.001	No	2.627	0.023	n/a	NoResponse	0	n/a	n/a	6	52	Cue	Neutral	True
494.874	4.05	Control	0.6225999999999999	0.0	No	2.627	0.001	n/a	NoResponse	0	n/a	n/a	6	52	Fixation	Neutral	True
498.92	0.19	Control	0.6225999999999999	0.003	No	2.627	-0.003	2.0	NoResponse	0	0.219	498.139	6	52	Target	Neutral	True
499.12	0.51	Control	0.6225999999999999	n/a	No	2.627	n/a	n/a	NoResponse	0	n/a	n/a	6	52	Blank	Neutral	True
499.139	0.3	Control	0.6225999999999999	0.003	No	2.627	-0.003	2.0	NoResponse	0	0.219	n/a	6	52	ButtonPress	Neutral	True
499.622	1.45	Control	0.6225999999999999	n/a	No	2.627	n/a	5.0	NoResponse	0	0.006	498.628	6	52	Feedback	Neutral	True
501.076	2.627	Control	0.6225999999999999	n/a	No	2.627	n/a	n/a	NoResponse	0	0.0	n/a	6	52	ISIslide	Neutral	True
503.717	0.25	Win2	0.6296	0.0	Yes	2.933	0.017	n/a	GoodResponse	1	n/a	n/a	7	53	Cue	Win	True
503.968	4.05	Win2	0.6296	0.0	Yes	2.933	0.001	n/a	GoodResponse	1	n/a	n/a	7	53	Fixation	Win	True
508.013	0.2	Win2	0.6296	0.004	Yes	2.933	-0.004	2.0	GoodResponse	1	0.192	507.205	7	53	Target	Win	True
508.205	0.3	Win2	0.6296	0.004	Yes	2.933	-0.004	2.0	GoodResponse	1	0.192	n/a	7	53	ButtonPress	Win	True
508.214	0.5	Win2	0.6296	n/a	Yes	2.933	n/a	n/a	GoodResponse	1	n/a	n/a	7	53	Blank	Win	True
508.716	1.45	Win2	0.6296	n/a	Yes	2.933	n/a	5.0	GoodResponse	1	0.031	507.747	7	53	Feedback	Win	True
510.17	2.933	Win2	0.6296	n/a	Yes	2.933	n/a	n/a	GoodResponse	1	0.0	n/a	7	53	ISIslide	Win	True
513.129	0.25	Win2	0.6364	0.0	Yes	2.721	0.029	n/a	GoodResponse	1	n/a	n/a	8	54	Cue	Win	True
513.379	3.95	Win2	0.6364	0.001	Yes	2.721	0.0	n/a	GoodResponse	1	n/a	n/a	8	54	Fixation	Win	True
517.325	0.21	Win2	0.6364	0.004	Yes	2.721	-0.004	2.0	GoodResponse	1	0.177	516.502	8	54	Target	Win	True
517.502	0.3	Win2	0.6364	0.004	Yes	2.721	-0.004	2.0	GoodResponse	1	0.177	n/a	8	54	ButtonPress	Win	True
517.542	0.49	Win2	0.6364	n/a	Yes	2.721	n/a	n/a	GoodResponse	1	n/a	n/a	8	54	Blank	Win	True
518.027	1.45	Win2	0.6364	n/a	Yes	2.721	n/a	5.0	GoodResponse	1	0.037	517.064	8	54	Feedback	Win	True
519.481	2.721	Win2	0.6364	n/a	Yes	2.721	n/a	n/a	GoodResponse	1	0.0	n/a	8	54	ISIslide	Win	True
522.223	0.25	Control	0.6429	0.0	Yes	3.027	0.023	n/a	GoodResponse	0	n/a	n/a	8	55	Cue	Neutral	True
522.473	3.95	Control	0.6429	0.0	Yes	3.027	0.0	n/a	GoodResponse	0	n/a	n/a	8	55	Fixation	Neutral	True
526.418	0.22	Control	0.6429	0.005	Yes	3.027	-0.005	2.0	GoodResponse	0	0.147	525.565	8	55	Target	Neutral	True
526.565	0.3	Control	0.6429	0.005	Yes	3.027	-0.005	2.0	GoodResponse	0	0.147	n/a	8	55	ButtonPress	Neutral	True
526.652	0.48	Control	0.6429	n/a	Yes	3.027	n/a	n/a	GoodResponse	0	n/a	n/a	8	55	Blank	Neutral	True
527.121	1.45	Control	0.6429	n/a	Yes	3.027	n/a	5.0	GoodResponse	0	0.017	526.138	8	55	Feedback	Neutral	True
528.575	3.027	Control	0.6429	n/a	Yes	3.027	n/a	n/a	GoodResponse	0	0.0	n/a	8	55	ISIslide	Neutral	True
531.617	0.25	Control	0.6491	0.0	Yes	2.833	0.017	n/a	GoodResponse	0	n/a	n/a	8	56	Cue	Neutral	True
531.868	3.95	Control	0.6491	0.0	Yes	2.833	0.001	n/a	GoodResponse	0	n/a	n/a	8	56	Fixation	Neutral	True
535.813	0.23	Control	0.6491	0.004	Yes	2.833	-0.004	2.0	GoodResponse	0	0.197	535.01	8	56	Target	Neutral	True
536.01	0.3	Control	0.6491	0.004	Yes	2.833	-0.004	2.0	GoodResponse	0	0.197	n/a	8	56	ButtonPress	Neutral	True
536.047	0.47	Control	0.6491	n/a	Yes	2.833	n/a	n/a	GoodResponse	0	n/a	n/a	8	56	Blank	Neutral	True
536.515	1.45	Control	0.6491	n/a	Yes	2.833	n/a	5.0	GoodResponse	0	0.037	535.552	8	56	Feedback	Neutral	True
537.97	2.833	Control	0.6491	n/a	Yes	2.833	n/a	n/a	GoodResponse	0	0.0	n/a	8	56	ISIslide	Neutral	True
540.828	0.25	Control	0.6552	0.0	Yes	3.472	0.028	n/a	GoodResponse	0	n/a	n/a	8	57	Cue	Neutral	True
541.079	4.0	Control	0.6552	0.0	Yes	3.472	0.001	n/a	GoodResponse	0	n/a	n/a	8	57	Fixation	Neutral	True
545.074	0.24	Control	0.6552	0.004	Yes	3.472	-0.004	2.0	GoodResponse	0	0.181	544.255	8	57	Target	Neutral	True
545.255	0.3	Control	0.6552	0.004	Yes	3.472	-0.004	2.0	GoodResponse	0	0.181	n/a	8	57	ButtonPress	Neutral	True
545.325	0.46	Control	0.6552	n/a	Yes	3.472	n/a	n/a	GoodResponse	0	n/a	n/a	8	57	Blank	Neutral	True
545.776	1.45	Control	0.6552	n/a	Yes	3.472	n/a	5.0	GoodResponse	0	0.044	544.82	8	57	Feedback	Neutral	True
547.231	3.472	Control	0.6552	n/a	Yes	3.472	n/a	n/a	GoodResponse	0	0.0	n/a	8	57	ISIslide	Neutral	True
550.724	0.25	Win2	0.6609999999999999	0.0	Yes	2.726	0.024	n/a	GoodResponse	1	n/a	n/a	9	58	Cue	Win	True
550.975	4.05	Win2	0.6609999999999999	0.0	Yes	2.726	0.001	n/a	GoodResponse	1	n/a	n/a	9	58	Fixation	Win	True
555.02	0.24	Win2	0.6609999999999999	0.004	Yes	2.726	-0.004	2.0	GoodResponse	1	0.206	554.226	9	58	Target	Win	True
555.226	0.3	Win2	0.6609999999999999	0.004	Yes	2.726	-0.004	2.0	GoodResponse	1	0.206	n/a	9	58	ButtonPress	Win	True
555.271	0.46	Win2	0.6609999999999999	n/a	Yes	2.726	n/a	n/a	GoodResponse	1	n/a	n/a	9	58	Blank	Win	True
555.723	1.45	Win2	0.6609999999999999	n/a	Yes	2.726	n/a	5.0	GoodResponse	1	0.048	554.771	9	58	Feedback	Win	True
557.177	2.726	Win2	0.6609999999999999	n/a	Yes	2.726	n/a	n/a	GoodResponse	1	0.0	n/a	9	58	ISIslide	Win	True
559.918	0.25	Lose2	0.6667000000000001	0.001	Yes	2.682	0.018	n/a	GoodResponse	0	n/a	n/a	9	59	Cue	AvoidedLoss	True
560.169	4.0	Lose2	0.6667000000000001	0.0	Yes	2.682	0.001	n/a	GoodResponse	0	n/a	n/a	9	59	Fixation	AvoidedLoss	True
564.164	0.24	Lose2	0.6667000000000001	0.004	Yes	2.682	-0.004	2.0	GoodResponse	0	0.176	563.34	9	59	Target	AvoidedLoss	True
564.34	0.3	Lose2	0.6667000000000001	0.004	Yes	2.682	-0.004	2.0	GoodResponse	0	0.176	n/a	9	59	ButtonPress	AvoidedLoss	True
564.415	0.46	Lose2	0.6667000000000001	n/a	Yes	2.682	n/a	n/a	GoodResponse	0	n/a	n/a	9	59	Blank	AvoidedLoss	True
564.867	1.45	Lose2	0.6667000000000001	n/a	Yes	2.682	n/a	5.0	GoodResponse	0	0.026	563.893	9	59	Feedback	AvoidedLoss	True
566.321	2.682	Lose2	0.6667000000000001	n/a	Yes	2.682	n/a	n/a	GoodResponse	0	0.0	n/a	9	59	ISIslide	AvoidedLoss	True
569.029	0.25	Control	0.6720999999999999	0.0	Yes	2.671	0.029	n/a	GoodResponse	0	n/a	n/a	9	60	Cue	Neutral	True
569.28	4.0	Control	0.6720999999999999	0.0	Yes	2.671	0.001	n/a	GoodResponse	0	n/a	n/a	9	60	Fixation	Neutral	True
573.275	0.23	Control	0.6720999999999999	0.004	Yes	2.671	-0.004	2.0	GoodResponse	0	0.194	572.469	9	60	Target	Neutral	True
573.469	0.3	Control	0.6720999999999999	0.004	Yes	2.671	-0.004	2.0	GoodResponse	0	0.194	n/a	9	60	ButtonPress	Neutral	True
573.509	0.47	Control	0.6720999999999999	n/a	Yes	2.671	n/a	n/a	GoodResponse	0	n/a	n/a	9	60	Blank	Neutral	True
573.977	1.45	Control	0.6720999999999999	n/a	Yes	2.671	n/a	5.0	GoodResponse	0	0.038	573.015	9	60	Feedback	Neutral	True
575.431	2.671	Control	0.6720999999999999	n/a	Yes	2.671	n/a	n/a	GoodResponse	0	0.0	n/a	9	60	ISIslide	Neutral	True
578.123	0.25	Lose2	0.6774	0.0	Yes	2.977	0.023	n/a	GoodResponse	0	n/a	n/a	9	61	Cue	AvoidedLoss	True
578.374	4.0	Lose2	0.6774	0.0	Yes	2.977	0.001	n/a	GoodResponse	0	n/a	n/a	9	61	Fixation	AvoidedLoss	True
582.369	0.22	Lose2	0.6774	0.004	Yes	2.977	-0.004	2.0	GoodResponse	0	0.133	581.502	9	61	Target	AvoidedLoss	True
582.502	0.3	Lose2	0.6774	0.004	Yes	2.977	-0.004	2.0	GoodResponse	0	0.133	n/a	9	61	ButtonPress	AvoidedLoss	True
582.603	0.48	Lose2	0.6774	n/a	Yes	2.977	n/a	n/a	GoodResponse	0	n/a	n/a	9	61	Blank	AvoidedLoss	True
583.071	1.45	Lose2	0.6774	n/a	Yes	2.977	n/a	5.0	GoodResponse	0	0.016	582.087	9	61	Feedback	AvoidedLoss	True
584.525	2.977	Lose2	0.6774	n/a	Yes	2.977	n/a	n/a	GoodResponse	0	0.0	n/a	9	61	ISIslide	AvoidedLoss	True
587.518	0.25	Lose2	0.6825	0.0	Yes	2.882	0.018	n/a	GoodResponse	0	n/a	n/a	9	62	Cue	AvoidedLoss	True
587.768	3.9	Lose2	0.6825	0.0	Yes	2.882	0.0	n/a	GoodResponse	0	n/a	n/a	9	62	Fixation	AvoidedLoss	True
591.68	0.21	Lose2	0.6825	0.0	Yes	2.882	0.012	2.0	GoodResponse	0	0.193	590.873	9	62	Target	AvoidedLoss	True
591.873	0.3	Lose2	0.6825	0.0	Yes	2.882	0.012	2.0	GoodResponse	0	0.193	n/a	9	62	ButtonPress	AvoidedLoss	True
591.881	0.49	Lose2	0.6825	n/a	Yes	2.882	n/a	n/a	GoodResponse	0	n/a	n/a	9	62	Blank	AvoidedLoss	True
592.365	1.45	Lose2	0.6825	n/a	Yes	2.882	n/a	5.0	GoodResponse	0	0.04	591.405	9	62	Feedback	AvoidedLoss	True
593.82	2.882	Lose2	0.6825	n/a	Yes	2.882	n/a	n/a	GoodResponse	0	0.0	n/a	9	62	ISIslide	AvoidedLoss	True
596.728	0.25	Lose2	0.6875	0.0	Yes	2.622	0.028	n/a	GoodResponse	0	n/a	n/a	9	63	Cue	AvoidedLoss	True
596.979	4.05	Lose2	0.6875	0.0	Yes	2.622	0.001	n/a	GoodResponse	0	n/a	n/a	9	63	Fixation	AvoidedLoss	True
601.025	0.2	Lose2	0.6875	0.003	Yes	2.622	-0.003	2.0	GoodResponse	0	0.184	600.209	9	63	Target	AvoidedLoss	True
601.209	0.3	Lose2	0.6875	0.003	Yes	2.622	-0.003	2.0	GoodResponse	0	0.184	n/a	9	63	ButtonPress	AvoidedLoss	True
601.225	0.5	Lose2	0.6875	n/a	Yes	2.622	n/a	n/a	GoodResponse	0	n/a	n/a	9	63	Blank	AvoidedLoss	True
601.727	1.45	Lose2	0.6875	n/a	Yes	2.622	n/a	5.0	GoodResponse	0	0.044	600.771	9	63	Feedback	AvoidedLoss	True
603.181	2.622	Lose2	0.6875	n/a	Yes	2.622	n/a	n/a	GoodResponse	0	0.0	n/a	9	63	ISIslide	AvoidedLoss	True
605.822	0.25	Win2	0.6923	0.0	Yes	3.128	0.022	n/a	GoodResponse	1	n/a	n/a	10	64	Cue	Win	True
606.073	4.15	Win2	0.6923	0.0	Yes	3.128	0.001	n/a	GoodResponse	1	n/a	n/a	10	64	Fixation	Win	True
610.219	0.19	Win2	0.6923	0.003	Yes	3.128	-0.003	2.0	GoodResponse	1	0.162	609.381	10	64	Target	Win	True
610.381	0.3	Win2	0.6923	0.003	Yes	3.128	-0.003	2.0	GoodResponse	1	0.162	n/a	10	64	ButtonPress	Win	True
610.419	0.51	Win2	0.6923	n/a	Yes	3.128	n/a	n/a	GoodResponse	1	n/a	n/a	10	64	Blank	Win	True
610.921	1.45	Win2	0.6923	n/a	Yes	3.128	n/a	5.0	GoodResponse	1	0.02	609.941	10	64	Feedback	Win	True
612.375	3.128	Win2	0.6923	n/a	Yes	3.128	n/a	n/a	GoodResponse	1	0.0	n/a	10	64	ISIslide	Win	True
615.518	0.25	Control	0.6818000000000001	0.0	No	2.782	0.018	n/a	NoResponse	0	n/a	n/a	10	65	Cue	Neutral	True
615.769	4.0	Control	0.6818000000000001	0.0	No	2.782	0.001	n/a	NoResponse	0	n/a	n/a	10	65	Fixation	Neutral	True
619.764	0.18	Control	0.6818000000000001	0.004	No	2.782	-0.004	2.0	NoResponse	0	0.197	618.961	10	65	Target	Neutral	True
619.948	0.52	Control	0.6818000000000001	n/a	No	2.782	n/a	n/a	NoResponse	0	n/a	n/a	10	65	Blank	Neutral	True
619.961	0.3	Control	0.6818000000000001	0.004	No	2.782	-0.004	2.0	NoResponse	0	0.197	n/a	10	65	ButtonPress	Neutral	True
620.466	1.45	Control	0.6818000000000001	n/a	No	2.782	n/a	5.0	NoResponse	0	0.035	619.501	10	65	Feedback	Neutral	True
621.92	2.782	Control	0.6818000000000001	n/a	No	2.782	n/a	n/a	NoResponse	0	0.0	n/a	10	65	ISIslide	Neutral	True
624.729	0.25	Win2	0.6716	0.0	No	2.771	0.029	n/a	NoResponse	0	n/a	n/a	10	66	Cue	MissedWin	True
624.979	3.9	Win2	0.6716	0.001	No	2.771	0.0	n/a	NoResponse	0	n/a	n/a	10	66	Fixation	MissedWin	True
628.891	0.17	Win2	0.6716	0.0	No	2.771	0.012	2.0	NoResponse	0	0.168	628.059	10	66	Target	MissedWin	True
629.058	0.53	Win2	0.6716	n/a	No	2.771	n/a	n/a	NoResponse	0	n/a	n/a	10	66	Blank	MissedWin	True
629.059	0.3	Win2	0.6716	0.0	No	2.771	0.012	2.0	NoResponse	0	0.168	n/a	10	66	ButtonPress	MissedWin	True
629.576	1.45	Win2	0.6716	n/a	No	2.771	n/a	5.0	NoResponse	0	0.047	628.623	10	66	Feedback	MissedWin	True
631.031	2.771	Win2	0.6716	n/a	No	2.771	n/a	n/a	NoResponse	0	0.0	n/a	10	66	ISIslide	MissedWin	True
633.823	0.25	Control	0.6618	0.0	No	2.727	0.023	n/a	NoResponse	0	n/a	n/a	10	67	Cue	Neutral	True
634.073	3.95	Control	0.6618	0.0	No	2.727	0.0	n/a	NoResponse	0	n/a	n/a	10	67	Fixation	Neutral	True
638.035	0.16	Control	0.6618	0.0	No	2.727	0.012	2.0	NoResponse	0	0.204	637.239	10	67	Target	Neutral	True
638.186	0.54	Control	0.6618	n/a	No	2.727	n/a	n/a	NoResponse	0	n/a	n/a	10	67	Blank	Neutral	True
638.239	0.3	Control	0.6618	0.0	No	2.727	0.012	2.0	NoResponse	0	0.204	n/a	10	67	ButtonPress	Neutral	True
638.72	1.45	Control	0.6618	n/a	No	2.727	n/a	5.0	NoResponse	0	0.025	637.745	10	67	Feedback	Neutral	True
640.175	2.727	Control	0.6618	n/a	No	2.727	n/a	n/a	NoResponse	0	0.0	n/a	10	67	ISIslide	Neutral	True
642.916	0.25	Win2	0.6522	0.0	No	3.084	0.016	n/a	NoResponse	0	n/a	n/a	10	68	Cue	MissedWin	True
643.167	4.0	Win2	0.6522	0.0	No	3.084	0.001	n/a	NoResponse	0	n/a	n/a	10	68	Fixation	MissedWin	True
647.162	0.16	Win2	0.6522	0.004	No	3.084	-0.004	2.0	NoResponse	0	0.182	646.344	10	68	Target	MissedWin	True
647.33	0.54	Win2	0.6522	n/a	No	3.084	n/a	n/a	NoResponse	0	n/a	n/a	10	68	Blank	MissedWin	True
647.344	0.3	Win2	0.6522	0.004	No	3.084	-0.004	2.0	NoResponse	0	0.182	n/a	10	68	ButtonPress	MissedWin	True
647.864	1.45	Win2	0.6522	n/a	No	3.084	n/a	5.0	NoResponse	0	0.006	646.87	10	68	Feedback	MissedWin	True
649.319	3.084	Win2	0.6522	n/a	No	3.084	n/a	n/a	NoResponse	0	0.0	n/a	10	68	ISIslide	MissedWin	True
652.428	0.25	Win2	0.6429	0.0	No	3.222	0.028	n/a	LatePress	0	n/a	n/a	10	69	Cue	MissedWin	True
652.679	3.95	Win2	0.6429	0.0	No	3.222	0.001	n/a	LatePress	0	n/a	n/a	10	69	Fixation	MissedWin	True
656.624	0.17	Win2	0.6429	0.004	No	3.222	-0.004	2.0	LatePress	0	0.179	655.803	10	69	Target	MissedWin	True
656.803	0.3	Win2	0.6429	0.004	No	3.222	-0.004	2.0	LatePress	0	0.179	n/a	10	69	ButtonPress	MissedWin	True
656.808	0.53	Win2	0.6429	n/a	No	3.222	n/a	n/a	LatePress	0	n/a	n/a	10	69	Blank	MissedWin	True
657.326	1.45	Win2	0.6429	n/a	No	3.222	n/a	5.0	LatePress	0	0.006	656.332	10	69	Feedback	MissedWin	True
658.78	3.222	Win2	0.6429	n/a	No	3.222	n/a	n/a	LatePress	0	0.0	n/a	10	69	ISIslide	MissedWin	True
662.023	0.25	Lose2	0.6479	0.0	Yes	3.027	0.023	n/a	GoodResponse	0	n/a	n/a	10	70	Cue	AvoidedLoss	True
662.274	4.05	Lose2	0.6479	0.0	Yes	3.027	0.001	n/a	GoodResponse	0	n/a	n/a	10	70	Fixation	AvoidedLoss	True
666.32	0.18	Lose2	0.6479	0.003	Yes	3.027	-0.003	2.0	GoodResponse	0	0.171	665.491	10	70	Target	AvoidedLoss	True
666.491	0.3	Lose2	0.6479	0.003	Yes	3.027	-0.003	2.0	GoodResponse	0	0.171	n/a	10	70	ButtonPress	AvoidedLoss	True
666.503	0.52	Lose2	0.6479	n/a	Yes	3.027	n/a	n/a	GoodResponse	0	n/a	n/a	10	70	Blank	AvoidedLoss	True
667.022	1.45	Lose2	0.6479	n/a	Yes	3.027	n/a	5.0	GoodResponse	0	0.015	666.037	10	70	Feedback	AvoidedLoss	True
668.476	3.027	Lose2	0.6479	n/a	Yes	3.027	n/a	n/a	GoodResponse	0	0.0	n/a	10	70	ISIslide	AvoidedLoss	True
671.518	0.25	Win2	0.6528	0.0	Yes	2.732	0.018	n/a	GoodResponse	1	n/a	n/a	11	71	Cue	Win	True
671.769	4.05	Win2	0.6528	0.0	Yes	2.732	0.001	n/a	GoodResponse	1	n/a	n/a	11	71	Fixation	Win	True
675.815	0.19	Win2	0.6528	0.003	Yes	2.732	-0.003	2.0	GoodResponse	1	0.179	674.994	11	71	Target	Win	True
675.994	0.3	Win2	0.6528	0.003	Yes	2.732	-0.003	2.0	GoodResponse	1	0.179	n/a	11	71	ButtonPress	Win	True
676.015	0.51	Win2	0.6528	n/a	Yes	2.732	n/a	n/a	GoodResponse	1	n/a	n/a	11	71	Blank	Win	True
676.517	1.45	Win2	0.6528	n/a	Yes	2.732	n/a	5.0	GoodResponse	1	0.033	675.55	11	71	Feedback	Win	True
677.971	2.732	Win2	0.6528	n/a	Yes	2.732	n/a	n/a	GoodResponse	1	0.0	n/a	11	71	ISIslide	Win	True
680.729	0.25	Win2	0.6575	0.0	Yes	2.771	0.029	n/a	GoodResponse	1	n/a	n/a	12	72	Cue	Win	True
680.98	4.1	Win2	0.6575	0.0	Yes	2.771	0.001	n/a	GoodResponse	1	n/a	n/a	12	72	Fixation	Win	True
685.076	0.2	Win2	0.6575	0.003	Yes	2.771	-0.003	2.0	GoodResponse	1	0.174	684.25	12	72	Target	Win	True
685.25	0.3	Win2	0.6575	0.003	Yes	2.771	-0.003	2.0	GoodResponse	1	0.174	n/a	12	72	ButtonPress	Win	True
685.276	0.5	Win2	0.6575	n/a	Yes	2.771	n/a	n/a	GoodResponse	1	n/a	n/a	12	72	Blank	Win	True
685.778	1.45	Win2	0.6575	n/a	Yes	2.771	n/a	5.0	GoodResponse	1	0.04	684.818	12	72	Feedback	Win	True
687.232	2.771	Win2	0.6575	n/a	Yes	2.771	n/a	n/a	GoodResponse	1	0.0	n/a	12	72	ISIslide	Win	True
690.024	0.25	Win2	0.6622	0.0	Yes	2.676	0.024	n/a	GoodResponse	1	n/a	n/a	13	73	Cue	Win	True
690.274	4.0	Win2	0.6622	0.001	Yes	2.676	0.0	n/a	GoodResponse	1	n/a	n/a	13	73	Fixation	Win	True
694.27	0.2	Win2	0.6622	0.004	Yes	2.676	-0.004	2.0	GoodResponse	1	0.175	693.445	13	73	Target	Win	True
694.445	0.3	Win2	0.6622	0.004	Yes	2.676	-0.004	2.0	GoodResponse	1	0.175	n/a	13	73	ButtonPress	Win	True
694.47	0.5	Win2	0.6622	n/a	Yes	2.676	n/a	n/a	GoodResponse	1	n/a	n/a	13	73	Blank	Win	True
694.972	1.45	Win2	0.6622	n/a	Yes	2.676	n/a	5.0	GoodResponse	1	0.017	693.989	13	73	Feedback	Win	True
696.426	2.676	Win2	0.6622	n/a	Yes	2.676	n/a	n/a	GoodResponse	1	0.0	n/a	13	73	ISIslide	Win	True
699.118	0.25	Lose2	0.6667000000000001	0.0	Yes	2.632	0.018	n/a	GoodResponse	0	n/a	n/a	13	74	Cue	AvoidedLoss	True
699.368	4.05	Lose2	0.6667000000000001	0.0	Yes	2.632	0.0	n/a	GoodResponse	0	n/a	n/a	13	74	Fixation	AvoidedLoss	True
703.414	0.2	Lose2	0.6667000000000001	0.004	Yes	2.632	-0.004	2.0	GoodResponse	0	0.184	702.598	13	74	Target	AvoidedLoss	True
703.598	0.3	Lose2	0.6667000000000001	0.004	Yes	2.632	-0.004	2.0	GoodResponse	0	0.184	n/a	13	74	ButtonPress	AvoidedLoss	True
703.614	0.5	Lose2	0.6667000000000001	n/a	Yes	2.632	n/a	n/a	GoodResponse	0	n/a	n/a	13	74	Blank	AvoidedLoss	True
704.116	1.45	Lose2	0.6667000000000001	n/a	Yes	2.632	n/a	5.0	GoodResponse	0	0.043	703.159	13	74	Feedback	AvoidedLoss	True
705.57	2.632	Lose2	0.6667000000000001	n/a	Yes	2.632	n/a	n/a	GoodResponse	0	0.0	n/a	13	74	ISIslide	AvoidedLoss	True
708.228	0.25	Lose2	0.6579	0.0	No	2.922	0.028	n/a	LatePress	-1	n/a	n/a	12	75	Cue	Loss	True
708.479	3.95	Lose2	0.6579	0.0	No	2.922	0.001	n/a	LatePress	-1	n/a	n/a	12	75	Fixation	Loss	True
712.424	0.19	Lose2	0.6579	0.004	No	2.922	-0.004	2.0	LatePress	-1	0.194	711.618	12	75	Target	Loss	True
712.618	0.3	Lose2	0.6579	0.004	No	2.922	-0.004	2.0	LatePress	-1	0.194	n/a	12	75	ButtonPress	Loss	True
712.625	0.51	Lose2	0.6579	n/a	No	2.922	n/a	n/a	LatePress	-1	n/a	n/a	12	75	Blank	Loss	True
713.126	1.45	Lose2	0.6579	n/a	No	2.922	n/a	5.0	LatePress	-1	0.008	712.134	12	75	Feedback	Loss	True
714.58	2.922	Lose2	0.6579	n/a	No	2.922	n/a	n/a	LatePress	-1	0.0	n/a	12	75	ISIslide	Loss	True
717.522	0.25	Control	0.6494	0.001	No	3.228	0.022	n/a	LatePress	0	n/a	n/a	12	76	Cue	Neutral	True
717.773	4.05	Control	0.6494	0.0	No	3.228	0.001	n/a	LatePress	0	n/a	n/a	12	76	Fixation	Neutral	True
721.819	0.19	Control	0.6494	0.003	No	3.228	-0.003	2.0	LatePress	0	0.19	721.009	12	76	Target	Neutral	True
722.009	0.3	Control	0.6494	0.003	No	3.228	-0.003	2.0	LatePress	0	0.19	n/a	12	76	ButtonPress	Neutral	True
722.019	0.51	Control	0.6494	n/a	No	3.228	n/a	n/a	LatePress	0	n/a	n/a	12	76	Blank	Neutral	True
722.521	1.45	Control	0.6494	n/a	No	3.228	n/a	5.0	LatePress	0	0.028	721.549	12	76	Feedback	Neutral	True
723.975	3.228	Control	0.6494	n/a	No	3.228	n/a	n/a	LatePress	0	0.0	n/a	12	76	ISIslide	Neutral	True
727.218	0.25	Lose2	0.6409999999999999	0.0	No	2.582	0.018	n/a	NoResponse	-1	n/a	n/a	11	77	Cue	Loss	False
727.469	3.95	Lose2	0.6409999999999999	0.0	No	2.582	0.001	2.0	NoResponse	-1	3.78	730.249	11	77	Fixation	Loss	False
731.249	0.3	Lose2	0.6409999999999999	0.0	No	2.582	0.001	2.0	NoResponse	-1	3.78	n/a	11	77	ButtonPress	Loss	False
731.414	0.2	Lose2	0.6409999999999999	0.004	No	2.582	-0.004	2.0	NoResponse	-1	0.338	730.752	11	77	Target	Loss	False
731.615	0.5	Lose2	0.6409999999999999	n/a	No	2.582	n/a	n/a	NoResponse	-1	n/a	n/a	11	77	Blank	Loss	False
731.752	0.3	Lose2	0.6409999999999999	0.004	No	2.582	-0.004	2.0	NoResponse	-1	0.338	n/a	11	77	ButtonPress	Loss	False
732.116	1.45	Lose2	0.6409999999999999	n/a	No	2.582	n/a	5.0	NoResponse	-1	0.042	731.158	11	77	Feedback	Loss	False
733.57	2.582	Lose2	0.6409999999999999	n/a	No	2.582	n/a	n/a	NoResponse	-1	0.0	n/a	11	77	ISIslide	Loss	False
