onset	duration	cue_type	current_mean_accuracy	duration_error	is_hit	isi_adjusted	onset_delay	response	response_type	reward	rt	rt_time	total_reward	trial_number	trial_phase	trial_type	one_press
11.112	0.25	Control	1.0	0.0	Yes	2.938	0.012	n/a	GoodResponse	0	n/a	n/a	0	0	Cue	Neutral	True
11.362	3.85	Control	1.0	0.0	Yes	2.938	0.0	n/a	GoodResponse	0	n/a	n/a	0	0	Fixation	Neutral	True
15.21	0.4	Control	1.0	0.002	Yes	2.938	-0.002	4.0	GoodResponse	0	0.317	14.527	0	0	Target	Neutral	True
15.527	0.3	Control	1.0	0.002	Yes	2.938	-0.002	4.0	GoodResponse	0	0.317	n/a	0	0	ButtonPress	Neutral	True
15.61	0.3	Control	1.0	n/a	Yes	2.938	n/a	n/a	GoodResponse	0	n/a	n/a	0	0	Blank	Neutral	True
15.91	1.45	Control	1.0	n/a	Yes	2.938	n/a	5.0	GoodResponse	0	0.017	14.927	0	0	Feedback	Neutral	True
17.36	2.938	Control	1.0	n/a	Yes	2.938	n/a	n/a	GoodResponse	0	0.0	n/a	0	0	ISIslide	Neutral	True
20.325	0.25	Lose2	1.0	0.0	Yes	2.775	0.025	n/a	GoodResponse	0	n/a	n/a	0	1	Cue	AvoidedLoss	True
20.575	4.0	Lose2	1.0	0.0	Yes	2.775	0.0	n/a	GoodResponse	0	n/a	n/a	0	1	Fixation	AvoidedLoss	True
24.574	0.39	Lose2	1.0	0.001	Yes	2.775	-0.001	4.0	GoodResponse	0	0.181	23.755	0	1	Target	AvoidedLoss	True
24.755	0.3	Lose2	1.0	0.001	Yes	2.775	-0.001	4.0	GoodResponse	0	0.181	n/a	0	1	ButtonPress	AvoidedLoss	True
24.974	0.31	Lose2	1.0	n/a	Yes	2.775	n/a	n/a	GoodResponse	0	n/a	n/a	0	1	Blank	AvoidedLoss	True
25.274	1.45	Lose2	1.0	n/a	Yes	2.775	n/a	5.0	GoodResponse	0	0.019	24.293	0	1	Feedback	AvoidedLoss	True
26.723	2.775	Lose2	1.0	n/a	Yes	2.775	n/a	n/a	GoodResponse	0	0.0	n/a	0	1	ISIslide	AvoidedLoss	True
29.522	0.25	Control	0.6667000000000001	0.0	No	2.578	0.022	n/a	NoResponse	0	n/a	n/a	0	2	Cue	Neutral	True
29.772	4.1	Control	0.6667000000000001	0.0	No	2.578	0.0	4.0	NoResponse	0	3.918	32.69	0	2	Fixation	Neutral	True
33.69	0.3	Control	0.6667000000000001	0.0	No	2.578	0.0	4.0	NoResponse	0	3.918	n/a	0	2	ButtonPress	Neutral	True
33.871	0.38	Control	0.6667000000000001	0.001	No	2.578	-0.001	n/a	NoResponse	0	n/a	n/a	0	2	Target	Neutral	True
34.254	0.32	Control	0.6667000000000001	n/a	No	2.578	n/a	n/a	NoResponse	0	n/a	n/a	0	2	Blank	Neutral	True
34.57	1.45	Control	0.6667000000000001	n/a	No	2.578	n/a	5.0	NoResponse	0	0.04	33.61	0	2	Feedback	Neutral	True
36.02	2.578	Control	0.6667000000000001	n/a	No	2.578	n/a	n/a	NoResponse	0	0.0	n/a	0	2	ISIslide	Neutral	True
38.619	0.25	Win2	0.75	0.0	Yes	2.831	0.019	n/a	GoodResponse	1	n/a	n/a	1	3	Cue	Win	True
38.869	3.95	Win2	0.75	0.0	Yes	2.831	0.0	n/a	GoodResponse	1	n/a	n/a	1	3	Fixation	Win	True
42.817	0.37	Win2	0.75	0.002	Yes	2.831	-0.002	4.0	GoodResponse	1	0.195	42.012	1	3	Target	Win	True
43.012	0.3	Win2	0.75	0.002	Yes	2.831	-0.002	4.0	GoodResponse	1	0.195	n/a	1	3	ButtonPress	Win	True
43.201	0.33	Win2	0.75	n/a	Yes	2.831	n/a	n/a	GoodResponse	1	n/a	n/a	1	3	Blank	Win	True
43.517	1.45	Win2	0.75	n/a	Yes	2.831	n/a	5.0	GoodResponse	1	0.02	42.537	1	3	Feedback	Win	True
44.967	2.831	Win2	0.75	n/a	Yes	2.831	n/a	n/a	GoodResponse	1	0.0	n/a	1	3	ISIslide	Win	True
47.816	0.25	Win2	0.8	0.0	Yes	3.284	0.016	n/a	GoodResponse	1	n/a	n/a	2	4	Cue	Win	True
48.066	4.0	Win2	0.8	0.0	Yes	3.284	0.0	n/a	GoodResponse	1	n/a	n/a	2	4	Fixation	Win	True
52.064	0.36	Win2	0.8	0.002	Yes	3.284	-0.002	4.0	GoodResponse	1	0.205	51.269	2	4	Target	Win	True
52.269	0.3	Win2	0.8	0.002	Yes	3.284	-0.002	4.0	GoodResponse	1	0.205	n/a	2	4	ButtonPress	Win	True
52.431	0.34	Win2	0.8	n/a	Yes	3.284	n/a	n/a	GoodResponse	1	n/a	n/a	2	4	Blank	Win	True
52.764	1.45	Win2	0.8	n/a	Yes	3.284	n/a	5.0	GoodResponse	1	0.04	51.804	2	4	Feedback	Win	True
54.213	3.284	Win2	0.8	n/a	Yes	3.284	n/a	n/a	GoodResponse	1	0.0	n/a	2	4	ISIslide	Win	True
57.529	0.25	Win2	0.6667000000000001	0.0	No	2.771	0.029	n/a	PrematurePress	0	n/a	n/a	2	5	Cue	MissedWin	True
57.779	4.0	Win2	0.6667000000000001	0.0	No	2.771	0.0	n/a	PrematurePress	0	n/a	n/a	2	5	Fixation	MissedWin	True
61.777	0.35	Win2	0.6667000000000001	0.002	No	2.771	-0.002	4.0	PrematurePress	0	0.006	60.783	2	5	Target	MissedWin	True
61.783	0.3	Win2	0.6667000000000001	0.002	No	2.771	-0.002	4.0	PrematurePress	0	0.006	n/a	2	5	ButtonPress	MissedWin	True
62.127	0.35	Win2	0.6667000000000001	n/a	No	2.771	n/a	n/a	PrematurePress	0	n/a	n/a	2	5	Blank	MissedWin	True
62.477	1.45	Win2	0.6667000000000001	n/a	No	2.771	n/a	5.0	PrematurePress	0	0.035	61.512	2	5	Feedback	MissedWin	True
63.927	2.771	Win2	0.6667000000000001	n/a	No	2.771	n/a	n/a	PrematurePress	0	0.0	n/a	2	5	ISIslide	MissedWin	True
66.726	0.25	Lose2	0.7143	0.0	Yes	2.724	0.026	n/a	GoodResponse	0	n/a	n/a	2	6	Cue	AvoidedLoss	True
66.976	3.95	Lose2	0.7143	0.0	Yes	2.724	0.0	n/a	GoodResponse	0	n/a	n/a	2	6	Fixation	AvoidedLoss	True
70.924	0.34	Lose2	0.7143	0.002	Yes	2.724	-0.002	4.0	GoodResponse	0	0.208	70.132	2	6	Target	AvoidedLoss	True
71.132	0.3	Lose2	0.7143	0.002	Yes	2.724	-0.002	4.0	GoodResponse	0	0.208	n/a	2	6	ButtonPress	AvoidedLoss	True
71.274	0.36	Lose2	0.7143	n/a	Yes	2.724	n/a	n/a	GoodResponse	0	n/a	n/a	2	6	Blank	AvoidedLoss	True
71.624	1.45	Lose2	0.7143	n/a	Yes	2.724	n/a	5.0	GoodResponse	0	0.01	70.634	2	6	Feedback	AvoidedLoss	True
73.074	2.724	Lose2	0.7143	n/a	Yes	2.724	n/a	n/a	GoodResponse	0	0.0	n/a	2	6	ISIslide	AvoidedLoss	True
75.823	0.25	Lose2	0.625	0.0	No	4.027	0.023	n/a	PrematurePress	-1	n/a	n/a	1	7	Cue	Loss	True
76.073	4.05	Lose2	0.625	0.0	No	4.027	0.0	n/a	PrematurePress	-1	n/a	n/a	1	7	Fixation	Loss	True
80.121	0.33	Lose2	0.625	0.002	No	4.027	-0.002	4.0	PrematurePress	-1	0.002	79.123	1	7	Target	Loss	True
80.123	0.3	Lose2	0.625	0.002	No	4.027	-0.002	4.0	PrematurePress	-1	0.002	n/a	1	7	ButtonPress	Loss	True
80.454	0.37	Lose2	0.625	n/a	No	4.027	n/a	n/a	PrematurePress	-1	n/a	n/a	1	7	Blank	Loss	True
80.821	1.45	Lose2	0.625	n/a	No	4.027	n/a	5.0	PrematurePress	-1	0.032	79.853	1	7	Feedback	Loss	True
82.27	4.027	Lose2	0.625	n/a	No	4.027	n/a	n/a	PrematurePress	-1	0.0	n/a	1	7	ISIslide	Loss	True
86.319	0.25	Lose2	0.6667000000000001	0.0	Yes	3.031	0.019	n/a	GoodResponse	0	n/a	n/a	1	8	Cue	AvoidedLoss	True
86.569	3.95	Lose2	0.6667000000000001	0.0	Yes	3.031	0.0	n/a	GoodResponse	0	n/a	n/a	1	8	Fixation	AvoidedLoss	True
90.517	0.34	Lose2	0.6667000000000001	0.002	Yes	3.031	-0.002	4.0	GoodResponse	0	0.188	89.705	1	8	Target	AvoidedLoss	True
90.705	0.3	Lose2	0.6667000000000001	0.002	Yes	3.031	-0.002	4.0	GoodResponse	0	0.188	n/a	1	8	ButtonPress	AvoidedLoss	True
90.867	0.36	Lose2	0.6667000000000001	n/a	Yes	3.031	n/a	n/a	GoodResponse	0	n/a	n/a	1	8	Blank	AvoidedLoss	True
91.217	1.45	Lose2	0.6667000000000001	n/a	Yes	3.031	n/a	5.0	GoodResponse	0	0.027	90.244	1	8	Feedback	AvoidedLoss	True
92.667	3.031	Lose2	0.6667000000000001	n/a	Yes	3.031	n/a	n/a	GoodResponse	0	0.0	n/a	1	8	ISIslide	AvoidedLoss	True
95.716	0.25	Lose2	0.7	0.0	Yes	3.134	0.016	n/a	GoodResponse	0	n/a	n/a	1	9	Cue	AvoidedLoss	False
95.966	3.95	Lose2	0.7	0.0	Yes	3.134	0.0	4.0	GoodResponse	0	3.828	98.794	1	9	Fixation	AvoidedLoss	False
99.794	0.3	Lose2	0.7	0.0	Yes	3.134	0.0	4.0	GoodResponse	0	3.828	n/a	1	9	ButtonPress	AvoidedLoss	False
99.914	0.33	Lose2	0.7	0.002	Yes	3.134	-0.002	4.0	GoodResponse	0	0.181	99.095	1	9	Target	AvoidedLoss	False
100.095	0.3	Lose2	0.7	0.002	Yes	3.134	-0.002	4.0	GoodResponse	0	0.181	n/a	1	9	ButtonPress	AvoidedLoss	False
100.247	0.37	Lose2	0.7	n/a	Yes	3.134	n/a	n/a	GoodResponse	0	n/a	n/a	1	9	Blank	AvoidedLoss	False
100.614	1.45	Lose2	0.7	n/a	Yes	3.134	n/a	5.0	GoodResponse	0	0.043	99.657	1	9	Feedback	AvoidedLoss	False
102.063	3.134	Lose2	0.7	n/a	Yes	3.134	n/a	n/a	GoodResponse	0	0.0	n/a	1	9	ISIslide	AvoidedLoss	False
105.212	0.25	Control	0.7273000000000001	0.0	Yes	3.288	0.012	n/a	GoodResponse	0	n/a	n/a	1	10	Cue	Neutral	True
105.462	4.0	Control	0.7273000000000001	0.0	Yes	3.288	0.0	n/a	GoodResponse	0	n/a	n/a	1	10	Fixation	Neutral	True
109.461	0.32	Control	0.7273000000000001	0.001	Yes	3.288	-0.001	4.0	GoodResponse	0	0.186	108.647	1	10	Target	Neutral	True
109.647	0.3	Control	0.7273000000000001	0.001	Yes	3.288	-0.001	4.0	GoodResponse	0	0.186	n/a	1	10	ButtonPress	Neutral	True
109.777	0.38	Control	0.7273000000000001	n/a	Yes	3.288	n/a	n/a	GoodResponse	0	n/a	n/a	1	10	Blank	Neutral	True
110.161	1.45	Control	0.7273000000000001	n/a	Yes	3.288	n/a	5.0	GoodResponse	0	0.009	109.17	1	10	Feedback	Neutral	True
111.61	3.288	Control	0.7273000000000001	n/a	Yes	3.288	n/a	n/a	GoodResponse	0	0.0	n/a	1	10	ISIslide	Neutral	True
114.926	0.25	Lose2	0.75	0.0	Yes	2.724	0.026	n/a	GoodResponse	0	n/a	n/a	1	11	Cue	AvoidedLoss	True
115.176	4.05	Lose2	0.75	0.0	Yes	2.724	0.0	n/a	GoodResponse	0	n/a	n/a	1	11	Fixation	AvoidedLoss	True
119.224	0.31	Lose2	0.75	0.002	Yes	2.724	-0.002	4.0	GoodResponse	0	0.233	118.457	1	11	Target	AvoidedLoss	True
119.457	0.3	Lose2	0.75	0.002	Yes	2.724	-0.002	4.0	GoodResponse	0	0.233	n/a	1	11	ButtonPress	AvoidedLoss	True
119.541	0.39	Lose2	0.75	n/a	Yes	2.724	n/a	n/a	GoodResponse	0	n/a	n/a	1	11	Blank	AvoidedLoss	True
119.924	1.45	Lose2	0.75	n/a	Yes	2.724	n/a	5.0	GoodResponse	0	0.002	118.926	1	11	Feedback	AvoidedLoss	True
121.373	2.724	Lose2	0.75	n/a	Yes	2.724	n/a	n/a	GoodResponse	0	0.0	n/a	1	11	ISIslide	AvoidedLoss	True
124.122	0.25	Control	0.7692	0.001	Yes	2.978	0.022	n/a	GoodResponse	0	n/a	n/a	1	12	Cue	Neutral	True
124.372	3.9	Control	0.7692	0.0	Yes	2.978	0.0	n/a	GoodResponse	0	n/a	n/a	1	12	Fixation	Neutral	True
128.271	0.3	Control	0.7692	0.001	Yes	2.978	-0.001	4.0	GoodResponse	0	0.225	127.496	1	12	Target	Neutral	True
128.496	0.3	Control	0.7692	0.001	Yes	2.978	-0.001	4.0	GoodResponse	0	0.225	n/a	1	12	ButtonPress	Neutral	True
128.571	0.4	Control	0.7692	n/a	Yes	2.978	n/a	n/a	GoodResponse	0	n/a	n/a	1	12	Blank	Neutral	True
128.971	1.45	Control	0.7692	n/a	Yes	2.978	n/a	5.0	GoodResponse	0	0.028	127.999	1	12	Feedback	Neutral	True
130.42	2.978	Control	0.7692	n/a	Yes	2.978	n/a	n/a	GoodResponse	0	0.0	n/a	1	12	ISIslide	Neutral	True
133.419	0.25	Control	0.7857	0.0	Yes	2.781	0.019	n/a	GoodResponse	0	n/a	n/a	1	13	Cue	Neutral	True
133.669	4.0	Control	0.7857	0.0	Yes	2.781	0.0	n/a	GoodResponse	0	n/a	n/a	1	13	Fixation	Neutral	True
137.668	0.29	Control	0.7857	0.001	Yes	2.781	-0.001	4.0	GoodResponse	0	0.189	136.857	1	13	Target	Neutral	True
137.857	0.3	Control	0.7857	0.001	Yes	2.781	-0.001	4.0	GoodResponse	0	0.189	n/a	1	13	ButtonPress	Neutral	True
137.968	0.41	Control	0.7857	n/a	Yes	2.781	n/a	n/a	GoodResponse	0	n/a	n/a	1	13	Blank	Neutral	True
138.367	1.45	Control	0.7857	n/a	Yes	2.781	n/a	5.0	GoodResponse	0	0.047	137.414	1	13	Feedback	Neutral	True
139.817	2.781	Control	0.7857	n/a	Yes	2.781	n/a	n/a	GoodResponse	0	0.0	n/a	1	13	ISIslide	Neutral	True
142.616	0.25	Win2	0.8	0.0	Yes	2.684	0.016	n/a	GoodResponse	1	n/a	n/a	2	14	Cue	Win	True
142.866	4.1	Win2	0.8	0.0	Yes	2.684	0.0	n/a	GoodResponse	1	n/a	n/a	2	14	Fixation	Win	True
146.964	0.28	Win2	0.8	0.002	Yes	2.684	-0.002	4.0	GoodResponse	1	0.169	146.133	2	14	Target	Win	True
147.133	0.3	Win2	0.8	0.002	Yes	2.684	-0.002	4.0	GoodResponse	1	0.169	n/a	2	14	ButtonPress	Win	True
147.248	0.42	Win2	0.8	n/a	Yes	2.684	n/a	n/a	GoodResponse	1	n/a	n/a	2	14	Blank	Win	True
147.664	1.45	Win2	0.8	n/a	Yes	2.684	n/a	5.0	GoodResponse	1	0.017	146.681	2	14	Feedback	Win	True
149.114	2.684	Win2	0.8	n/a	Yes	2.684	n/a	n/a	GoodResponse	1	0.0	n/a	2	14	ISIslide	Win	True
151.813	0.25	Control	0.8125	0.0	Yes	2.987	0.013	n/a	GoodResponse	0	n/a	n/a	2	15	Cue	Neutral	True
152.063	4.0	Control	0.8125	0.0	Yes	2.987	0.0	n/a	GoodResponse	0	n/a	n/a	2	15	Fixation	Neutral	True
156.061	0.27	Control	0.8125	0.002	Yes	2.987	-0.002	4.0	GoodResponse	0	0.213	155.274	2	15	Target	Neutral	True
156.274	0.3	Control	0.8125	0.002	Yes	2.987	-0.002	4.0	GoodResponse	0	0.213	n/a	2	15	ButtonPress	Neutral	True
156.345	0.43	Control	0.8125	n/a	Yes	2.987	n/a	n/a	GoodResponse	0	n/a	n/a	2	15	Blank	Neutral	True
156.761	1.45	Control	0.8125	n/a	Yes	2.987	n/a	5.0	GoodResponse	0	0.043	155.804	2	15	Feedback	Neutral	True
158.211	2.987	Control	0.8125	n/a	Yes	2.987	n/a	n/a	GoodResponse	0	0.0	n/a	2	15	ISIslide	Neutral	True
161.226	0.25	Win2	0.8234999999999999	0.0	Yes	2.874	0.026	n/a	GoodResponse	1	n/a	n/a	3	16	Cue	Win	True
161.476	4.0	Win2	0.8234999999999999	0.0	Yes	2.874	0.0	n/a	GoodResponse	1	n/a	n/a	3	16	Fixation	Win	True
165.475	0.26	Win2	0.8234999999999999	0.001	Yes	2.874	-0.001	4.0	GoodResponse	1	0.188	164.663	3	16	Target	Win	True
165.663	0.3	Win2	0.8234999999999999	0.001	Yes	2.874	-0.001	4.0	GoodResponse	1	0.188	n/a	3	16	ButtonPress	Win	True
165.741	0.44	Win2	0.8234999999999999	n/a	Yes	2.874	n/a	n/a	GoodResponse	1	n/a	n/a	3	16	Blank	Win	True
166.174	1.45	Win2	0.8234999999999999	n/a	Yes	2.874	n/a	5.0	GoodResponse	1	0.044	165.218	3	16	Feedback	Win	True
167.624	2.874	Win2	0.8234999999999999	n/a	Yes	2.874	n/a	n/a	GoodResponse	1	0.0	n/a	3	16	ISIslide	Win	True
170.523	0.25	Lose2	0.8332999999999999	0.0	Yes	2.727	0.023	n/a	GoodResponse	0	n/a	n/a	3	17	Cue	AvoidedLoss	True
170.773	3.95	Lose2	0.8332999999999999	0.0	Yes	2.727	0.0	n/a	GoodResponse	0	n/a	n/a	3	17	Fixation	AvoidedLoss	True
174.721	0.25	Lose2	0.8332999999999999	0.002	Yes	2.727	-0.002	4.0	GoodResponse	0	0.178	173.899	3	17	Target	AvoidedLoss	True
174.899	0.3	Lose2	0.8332999999999999	0.002	Yes	2.727	-0.002	4.0	GoodResponse	0	0.178	n/a	3	17	ButtonPress	AvoidedLoss	True
174.971	0.45	Lose2	0.8332999999999999	n/a	Yes	2.727	n/a	n/a	GoodResponse	0	n/a	n/a	3	17	Blank	AvoidedLoss	True
175.421	1.45	Lose2	0.8332999999999999	n/a	Yes	2.727	n/a	5.0	GoodResponse	0	0.017	174.438	3	17	Feedback	AvoidedLoss	True
176.871	2.727	Lose2	0.8332999999999999	n/a	Yes	2.727	n/a	n/a	GoodResponse	0	0.0	n/a	3	17	ISIslide	AvoidedLoss	True
179.62	0.25	Lose2	0.7895	0.0	No	2.73	0.02	n/a	NoResponse	-1	n/a	n/a	2	18	Cue	Loss	True
179.87	4.05	Lose2	0.7895	0.0	No	2.73	0.0	4.0	NoResponse	-1	4.035	182.905	2	18	Fixation	Loss	True
183.905	0.3	Lose2	0.7895	0.0	No	2.73	0.0	4.0	NoResponse	-1	4.035	n/a	2	18	ButtonPress	Loss	True
183.918	0.24	Lose2	0.7895	0.002	No	2.73	-0.002	n/a	NoResponse	-1	n/a	n/a	2	18	Target	Loss	True
184.168	0.46	Lose2	0.7895	n/a	No	2.73	n/a	n/a	NoResponse	-1	n/a	n/a	2	18	Blank	Loss	True
184.618	1.45	Lose2	0.7895	n/a	No	2.73	n/a	5.0	NoResponse	-1	0.039	183.657	2	18	Feedback	Loss	True
186.067	2.73	Lose2	0.7895	n/a	No	2.73	n/a	n/a	NoResponse	-1	0.0	n/a	2	18	ISIslide	Loss	True
188.817	0.25	Control	0.8	0.0	Yes	2.933	0.017	n/a	GoodResponse	0	n/a	n/a	2	19	Cue	Neutral	True
189.066	3.95	Control	0.8	0.001	Yes	2.933	-0.001	n/a	GoodResponse	0	n/a	n/a	2	19	Fixation	Neutral	True
193.015	0.23	Control	0.8	0.002	Yes	2.933	-0.002	4.0	GoodResponse	0	0.187	192.202	2	19	Target	Neutral	True
193.202	0.3	Control	0.8	0.002	Yes	2.933	-0.002	4.0	GoodResponse	0	0.187	n/a	2	19	ButtonPress	Neutral	True
193.248	0.47	Control	0.8	n/a	Yes	2.933	n/a	n/a	GoodResponse	0	n/a	n/a	2	19	Blank	Neutral	True
193.715	1.45	Control	0.8	n/a	Yes	2.933	n/a	5.0	GoodResponse	0	0.016	192.731	2	19	Feedback	Neutral	True
195.164	2.933	Control	0.8	n/a	Yes	2.933	n/a	n/a	GoodResponse	0	0.0	n/a	2	19	ISIslide	Neutral	True
198.113	0.25	Control	0.8095	0.0	Yes	2.637	0.013	n/a	GoodResponse	0	n/a	n/a	2	20	Cue	Neutral	True
198.363	4.05	Control	0.8095	0.0	Yes	2.637	0.0	n/a	GoodResponse	0	n/a	n/a	2	20	Fixation	Neutral	True
202.412	0.22	Control	0.8095	0.001	Yes	2.637	-0.001	4.0	GoodResponse	0	0.219	201.631	2	20	Target	Neutral	True
202.631	0.3	Control	0.8095	0.001	Yes	2.637	-0.001	4.0	GoodResponse	0	0.219	n/a	2	20	ButtonPress	Neutral	True
202.645	0.48	Control	0.8095	n/a	Yes	2.637	n/a	n/a	GoodResponse	0	n/a	n/a	2	20	Blank	Neutral	True
203.112	1.45	Control	0.8095	n/a	Yes	2.637	n/a	5.0	GoodResponse	0	0.033	202.145	2	20	Feedback	Neutral	True
204.561	2.637	Control	0.8095	n/a	Yes	2.637	n/a	n/a	GoodResponse	0	0.0	n/a	2	20	ISIslide	Neutral	True
207.21	0.25	Control	0.8181999999999999	0.0	Yes	2.79	0.01	n/a	GoodResponse	0	n/a	n/a	2	21	Cue	Neutral	True
207.46	4.1	Control	0.8181999999999999	0.0	Yes	2.79	0.0	n/a	GoodResponse	0	n/a	n/a	2	21	Fixation	Neutral	True
211.559	0.21	Control	0.8181999999999999	0.001	Yes	2.79	-0.001	4.0	GoodResponse	0	0.19	210.749	2	21	Target	Neutral	True
211.749	0.3	Control	0.8181999999999999	0.001	Yes	2.79	-0.001	4.0	GoodResponse	0	0.19	n/a	2	21	ButtonPress	Neutral	True
211.775	0.49	Control	0.8181999999999999	n/a	Yes	2.79	n/a	n/a	GoodResponse	0	n/a	n/a	2	21	Blank	Neutral	True
212.258	1.45	Control	0.8181999999999999	n/a	Yes	2.79	n/a	5.0	GoodResponse	0	0.009	211.267	2	21	Feedback	Neutral	True
213.708	2.79	Control	0.8181999999999999	n/a	Yes	2.79	n/a	n/a	GoodResponse	0	0.0	n/a	2	21	ISIslide	Neutral	True
216.523	0.25	Control	0.8261	0.001	Yes	2.777	0.023	n/a	GoodResponse	0	n/a	n/a	2	22	Cue	Neutral	True
216.773	4.0	Control	0.8261	0.0	Yes	2.777	0.0	n/a	GoodResponse	0	n/a	n/a	2	22	Fixation	Neutral	True
220.772	0.2	Control	0.8261	0.001	Yes	2.777	-0.001	4.0	GoodResponse	0	0.153	219.925	2	22	Target	Neutral	True
220.925	0.3	Control	0.8261	0.001	Yes	2.777	-0.001	4.0	GoodResponse	0	0.153	n/a	2	22	ButtonPress	Neutral	True
220.972	0.5	Control	0.8261	n/a	Yes	2.777	n/a	n/a	GoodResponse	0	n/a	n/a	2	22	Blank	Neutral	True
221.472	1.45	Control	0.8261	n/a	Yes	2.777	n/a	5.0	GoodResponse	0	0.014	220.486	2	22	Feedback	Neutral	True
222.921	2.777	Control	0.8261	n/a	Yes	2.777	n/a	n/a	GoodResponse	0	0.0	n/a	2	22	ISIslide	Neutral	True
225.72	0.25	Control	0.7917000000000001	0.0	No	2.78	0.02	n/a	NoResponse	0	n/a	n/a	2	23	Cue	Neutral	True
225.97	3.9	Control	0.7917000000000001	0.0	No	2.78	0.0	n/a	NoResponse	0	n/a	n/a	2	23	Fixation	Neutral	True
229.869	0.19	Control	0.7917000000000001	0.001	No	2.78	-0.001	4.0	NoResponse	0	0.242	229.111	2	23	Target	Neutral	True
230.069	0.51	Control	0.7917000000000001	n/a	No	2.78	n/a	n/a	NoResponse	0	n/a	n/a	2	23	Blank	Neutral	True
230.111	0.3	Control	0.7917000000000001	0.001	No	2.78	-0.001	4.0	NoResponse	0	0.242	n/a	2	23	ButtonPress	Neutral	True
230.569	1.45	Control	0.7917000000000001	n/a	No	2.78	n/a	5.0	NoResponse	0	0.039	229.608	2	23	Feedback	Neutral	True
232.018	2.78	Control	0.7917000000000001	n/a	No	2.78	n/a	n/a	NoResponse	0	0.0	n/a	2	23	ISIslide	Neutral	True
234.817	0.25	Win2	0.76	0.0	No	3.133	0.017	n/a	NoResponse	0	n/a	n/a	2	24	Cue	MissedWin	True
235.067	3.95	Win2	0.76	0.0	No	3.133	0.0	n/a	NoResponse	0	n/a	n/a	2	24	Fixation	MissedWin	True
239.016	0.18	Win2	0.76	0.001	No	3.133	-0.001	4.0	NoResponse	0	0.218	238.234	2	24	Target	MissedWin	True
239.199	0.52	Win2	0.76	n/a	No	3.133	n/a	n/a	NoResponse	0	n/a	n/a	2	24	Blank	MissedWin	True
239.234	0.3	Win2	0.76	0.001	No	3.133	-0.001	4.0	NoResponse	0	0.218	n/a	2	24	ButtonPress	MissedWin	True
239.715	1.45	Win2	0.76	n/a	No	3.133	n/a	5.0	NoResponse	0	0.015	238.73	2	24	Feedback	MissedWin	True
241.165	3.133	Win2	0.76	n/a	No	3.133	n/a	n/a	NoResponse	0	0.0	n/a	2	24	ISIslide	MissedWin	True
244.314	0.25	Win2	0.7692	0.0	Yes	3.086	0.014	n/a	GoodResponse	1	n/a	n/a	3	25	Cue	Win	True
244.564	4.0	Win2	0.7692	0.0	Yes	3.086	0.0	n/a	GoodResponse	1	n/a	n/a	3	25	Fixation	Win	True
248.562	0.17	Win2	0.7692	0.002	Yes	3.086	-0.002	4.0	GoodResponse	1	0.16	247.722	3	25	Target	Win	True
248.722	0.3	Win2	0.7692	0.002	Yes	3.086	-0.002	4.0	GoodResponse	1	0.16	n/a	3	25	ButtonPress	Win	True
248.746	0.53	Win2	0.7692	n/a	Yes	3.086	n/a	n/a	GoodResponse	1	n/a	n/a	3	25	Blank	Win	True
249.262	1.45	Win2	0.7692	n/a	Yes	3.086	n/a	5.0	GoodResponse	1	0.029	248.291	3	25	Feedback	Win	True
250.712	3.086	Win2	0.7692	n/a	Yes	3.086	n/a	n/a	GoodResponse	1	0.0	n/a	3	25	ISIslide	Win	True
253.827	0.25	Win2	0.7406999999999999	0.0	No	2.923	0.027	n/a	NoResponse	0	n/a	n/a	3	26	Cue	MissedWin	True
254.077	3.95	Win2	0.7406999999999999	0.0	No	2.923	0.0	n/a	NoResponse	0	n/a	n/a	3	26	Fixation	MissedWin	True
258.026	0.16	Win2	0.7406999999999999	0.001	No	2.923	-0.001	4.0	NoResponse	0	0.191	257.217	3	26	Target	MissedWin	True
258.192	0.54	Win2	0.7406999999999999	n/a	No	2.923	n/a	n/a	NoResponse	0	n/a	n/a	3	26	Blank	MissedWin	True
258.217	0.3	Win2	0.7406999999999999	0.001	No	2.923	-0.001	4.0	NoResponse	0	0.191	n/a	3	26	ButtonPress	MissedWin	True
258.725	1.45	Win2	0.7406999999999999	n/a	No	2.923	n/a	5.0	NoResponse	0	0.029	257.754	3	26	Feedback	MissedWin	True
260.175	2.923	Win2	0.7406999999999999	n/a	No	2.923	n/a	n/a	NoResponse	0	0.0	n/a	3	26	ISIslide	MissedWin	True
263.124	0.25	Lose2	0.7143	0.0	No	2.826	0.024	n/a	NoResponse	-1	n/a	n/a	2	27	Cue	Loss	True
263.374	4.05	Lose2	0.7143	0.0	No	2.826	0.0	n/a	NoResponse	-1	n/a	n/a	2	27	Fixation	Loss	True
267.422	0.15	Lose2	0.7143	0.002	No	2.826	-0.002	4.0	NoResponse	-1	0.265	266.687	2	27	Target	Loss	True
267.572	0.55	Lose2	0.7143	n/a	No	2.826	n/a	n/a	NoResponse	-1	n/a	n/a	2	27	Blank	Loss	True
267.687	0.3	Lose2	0.7143	0.002	No	2.826	-0.002	4.0	NoResponse	-1	0.265	n/a	2	27	ButtonPress	Loss	True
268.122	1.45	Lose2	0.7143	n/a	No	2.826	n/a	5.0	NoResponse	-1	0.047	267.169	2	27	Feedback	Loss	True
269.572	2.826	Lose2	0.7143	n/a	No	2.826	n/a	n/a	NoResponse	-1	0.0	n/a	2	27	ISIslide	Loss	True
272.421	0.25	Control	0.6897	0.0	No	2.829	0.021	n/a	NoResponse	0	n/a	n/a	2	28	Cue	Neutral	True
272.671	4.05	Control	0.6897	0.0	No	2.829	0.0	n/a	NoResponse	0	n/a	n/a	2	28	Fixation	Neutral	True
276.719	0.15	Control	0.6897	0.002	No	2.829	-0.002	4.0	NoResponse	0	0.183	275.902	2	28	Target	Neutral	True
276.869	0.55	Control	0.6897	n/a	No	2.829	n/a	n/a	NoResponse	0	n/a	n/a	2	28	Blank	Neutral	True
276.902	0.3	Control	0.6897	0.002	No	2.829	-0.002	4.0	NoResponse	0	0.183	n/a	2	28	ButtonPress	Neutral	True
277.419	1.45	Control	0.6897	n/a	No	2.829	n/a	5.0	NoResponse	0	0.018	276.437	2	28	Feedback	Neutral	True
278.868	2.829	Control	0.6897	n/a	No	2.829	n/a	n/a	NoResponse	0	0.0	n/a	2	28	ISIslide	Neutral	True
281.717	0.25	Lose2	0.6667000000000001	0.0	No	2.833	0.017	n/a	NoResponse	-1	n/a	n/a	1	29	Cue	Loss	True
281.967	3.95	Lose2	0.6667000000000001	0.0	No	2.833	0.0	4.0	NoResponse	-1	3.828	284.795	1	29	Fixation	Loss	True
285.795	0.3	Lose2	0.6667000000000001	0.0	No	2.833	0.0	4.0	NoResponse	-1	3.828	n/a	1	29	ButtonPress	Loss	True
285.916	0.15	Lose2	0.6667000000000001	0.001	No	2.833	-0.001	n/a	NoResponse	-1	n/a	n/a	1	29	Target	Loss	True
286.066	0.55	Lose2	0.6667000000000001	n/a	No	2.833	n/a	n/a	NoResponse	-1	n/a	n/a	1	29	Blank	Loss	True
286.616	1.45	Lose2	0.6667000000000001	n/a	No	2.833	n/a	5.0	NoResponse	-1	0.041	285.657	1	29	Feedback	Loss	True
288.065	2.833	Lose2	0.6667000000000001	n/a	No	2.833	n/a	n/a	NoResponse	-1	0.0	n/a	1	29	ISIslide	Loss	True
290.914	0.25	Win2	0.6452	0.0	No	2.786	0.014	n/a	NoResponse	0	n/a	n/a	1	30	Cue	MissedWin	True
291.164	3.9	Win2	0.6452	0.0	No	2.786	0.0	n/a	NoResponse	0	n/a	n/a	1	30	Fixation	MissedWin	True
295.063	0.15	Win2	0.6452	0.001	No	2.786	-0.001	4.0	NoResponse	0	0.221	294.284	1	30	Target	MissedWin	True
295.213	0.55	Win2	0.6452	n/a	No	2.786	n/a	n/a	NoResponse	0	n/a	n/a	1	30	Blank	MissedWin	True
295.284	0.3	Win2	0.6452	0.001	No	2.786	-0.001	4.0	NoResponse	0	0.221	n/a	1	30	ButtonPress	MissedWin	True
295.763	1.45	Win2	0.6452	n/a	No	2.786	n/a	5.0	NoResponse	0	0.015	294.778	1	30	Feedback	MissedWin	True
297.212	2.786	Win2	0.6452	n/a	No	2.786	n/a	n/a	NoResponse	0	0.0	n/a	1	30	ISIslide	MissedWin	True
300.011	0.25	Lose2	0.625	0.0	No	2.839	0.011	n/a	NoResponse	-1	n/a	n/a	0	31	Cue	Loss	True
300.261	4.05	Lose2	0.625	0.0	No	2.839	0.0	n/a	NoResponse	-1	n/a	n/a	0	31	Fixation	Loss	True
304.31	0.16	Lose2	0.625	0.001	No	2.839	-0.001	4.0	NoResponse	-1	0.179	303.489	0	31	Target	Loss	True
304.476	0.54	Lose2	0.625	n/a	No	2.839	n/a	n/a	NoResponse	-1	n/a	n/a	0	31	Blank	Loss	True
304.489	0.3	Lose2	0.625	0.001	No	2.839	-0.001	4.0	NoResponse	-1	0.179	n/a	0	31	ButtonPress	Loss	True
305.009	1.45	Lose2	0.625	n/a	No	2.839	n/a	5.0	NoResponse	-1	0.037	304.046	0	31	Feedback	Loss	True
306.459	2.839	Lose2	0.625	n/a	No	2.839	n/a	n/a	NoResponse	-1	0.0	n/a	0	31	ISIslide	Loss	True
309.324	0.25	Lose2	0.6061	0.001	No	2.626	0.024	n/a	NoResponse	-1	n/a	n/a	-1	32	Cue	Loss	True
309.574	4.15	Lose2	0.6061	0.0	No	2.626	0.0	n/a	NoResponse	-1	n/a	n/a	-1	32	Fixation	Loss	True
313.723	0.17	Lose2	0.6061	0.001	No	2.626	-0.001	4.0	NoResponse	-1	0.198	312.921	-1	32	Target	Loss	True
313.89	0.53	Lose2	0.6061	n/a	No	2.626	n/a	n/a	NoResponse	-1	n/a	n/a	-1	32	Blank	Loss	True
313.921	0.3	Lose2	0.6061	0.001	No	2.626	-0.001	4.0	NoResponse	-1	0.198	n/a	-1	32	ButtonPress	Loss	True
314.423	1.45	Lose2	0.6061	n/a	No	2.626	n/a	5.0	NoResponse	-1	0.038	313.461	-1	32	Feedback	Loss	True
315.872	2.626	Lose2	0.6061	n/a	No	2.626	n/a	n/a	NoResponse	-1	0.0	n/a	-1	32	ISIslide	Loss	True
318.521	0.25	Win2	0.5882000000000001	0.0	No	2.679	0.021	n/a	LatePress	0	n/a	n/a	-1	33	Cue	MissedWin	True
318.771	4.0	Win2	0.5882000000000001	0.0	No	2.679	0.0	n/a	LatePress	0	n/a	n/a	-1	33	Fixation	MissedWin	True
322.77	0.18	Win2	0.5882000000000001	0.001	No	2.679	-0.001	4.0	LatePress	0	0.181	321.951	-1	33	Target	MissedWin	True
322.951	0.3	Win2	0.5882000000000001	0.001	No	2.679	-0.001	4.0	LatePress	0	0.181	n/a	-1	33	ButtonPress	MissedWin	True
322.953	0.52	Win2	0.5882000000000001	n/a	No	2.679	n/a	n/a	LatePress	0	n/a	n/a	-1	33	Blank	MissedWin	True
323.47	1.45	Win2	0.5882000000000001	n/a	No	2.679	n/a	5.0	LatePress	0	0.016	322.486	-1	33	Feedback	MissedWin	True
324.919	2.679	Win2	0.5882000000000001	n/a	No	2.679	n/a	n/a	LatePress	0	0.0	n/a	-1	33	ISIslide	MissedWin	True
327.618	0.25	Lose2	0.6	0.0	Yes	2.632	0.018	n/a	GoodResponse	0	n/a	n/a	-1	34	Cue	AvoidedLoss	True
327.868	4.05	Lose2	0.6	0.0	Yes	2.632	0.0	n/a	GoodResponse	0	n/a	n/a	-1	34	Fixation	AvoidedLoss	True
331.917	0.19	Lose2	0.6	0.001	Yes	2.632	-0.001	4.0	GoodResponse	0	0.163	331.08	-1	34	Target	AvoidedLoss	True
332.08	0.3	Lose2	0.6	0.001	Yes	2.632	-0.001	4.0	GoodResponse	0	0.163	n/a	-1	34	ButtonPress	AvoidedLoss	True
332.117	0.51	Lose2	0.6	n/a	Yes	2.632	n/a	n/a	GoodResponse	0	n/a	n/a	-1	34	Blank	AvoidedLoss	True
332.616	1.45	Lose2	0.6	n/a	Yes	2.632	n/a	5.0	GoodResponse	0	0.04	331.656	-1	34	Feedback	AvoidedLoss	True
334.066	2.632	Lose2	0.6	n/a	Yes	2.632	n/a	n/a	GoodResponse	0	0.0	n/a	-1	34	ISIslide	AvoidedLoss	True
336.715	0.25	Lose2	0.5832999999999999	0.0	No	2.685	0.015	n/a	NoResponse	-1	n/a	n/a	-2	35	Cue	Loss	True
336.965	4.0	Lose2	0.5832999999999999	0.0	No	2.685	0.0	n/a	NoResponse	-1	n/a	n/a	-2	35	Fixation	Loss	True
340.963	0.2	Lose2	0.5832999999999999	0.002	No	2.685	-0.002	4.0	NoResponse	-1	0.208	340.171	-2	35	Target	Loss	True
341.163	0.5	Lose2	0.5832999999999999	n/a	No	2.685	n/a	n/a	NoResponse	-1	n/a	n/a	-2	35	Blank	Loss	True
341.171	0.3	Lose2	0.5832999999999999	0.002	No	2.685	-0.002	4.0	NoResponse	-1	0.208	n/a	-2	35	ButtonPress	Loss	True
341.663	1.45	Lose2	0.5832999999999999	n/a	No	2.685	n/a	5.0	NoResponse	-1	0.018	340.681	-2	35	Feedback	Loss	True
343.113	2.685	Lose2	0.5832999999999999	n/a	No	2.685	n/a	n/a	NoResponse	-1	0.0	n/a	-2	35	ISIslide	Loss	True
345.812	0.25	Control	0.5946	0.0	Yes	2.688	0.012	n/a	GoodResponse	0	n/a	n/a	-2	36	Cue	Neutral	True
346.062	4.0	Control	0.5946	0.0	Yes	2.688	0.0	n/a	GoodResponse	0	n/a	n/a	-2	36	Fixation	Neutral	True
350.06	0.21	Control	0.5946	0.002	Yes	2.688	-0.002	4.0	GoodResponse	0	0.197	349.257	-2	36	Target	Neutral	True
350.257	0.3	Control	0.5946	0.002	Yes	2.688	-0.002	4.0	GoodResponse	0	0.197	n/a	-2	36	ButtonPress	Neutral	True
350.277	0.49	Control	0.5946	n/a	Yes	2.688	n/a	n/a	GoodResponse	0	n/a	n/a	-2	36	Blank	Neutral	True
350.76	1.45	Control	0.5946	n/a	Yes	2.688	n/a	5.0	GoodResponse	0	0.042	349.802	-2	36	Feedback	Neutral	True
352.21	2.688	Control	0.5946	n/a	Yes	2.688	n/a	n/a	GoodResponse	0	0.0	n/a	-2	36	ISIslide	Neutral	True
354.925	0.25	Win2	0.6053000000000001	0.0	Yes	2.875	0.025	n/a	GoodResponse	1	n/a	n/a	-1	37	Cue	Win	True
355.175	4.0	Win2	0.6053000000000001	0.0	Yes	2.875	0.0	n/a	GoodResponse	1	n/a	n/a	-1	37	Fixation	Win	True
359.174	0.22	Win2	0.6053000000000001	0.001	Yes	2.875	-0.001	4.0	GoodResponse	1	0.208	358.382	-1	37	Target	Win	True
359.382	0.3	Win2	0.6053000000000001	0.001	Yes	2.875	-0.001	4.0	GoodResponse	1	0.208	n/a	-1	37	ButtonPress	Win	True
359.407	0.48	Win2	0.6053000000000001	n/a	Yes	2.875	n/a	n/a	GoodResponse	1	n/a	n/a	-1	37	Blank	Win	True
359.873	1.45	Win2	0.6053000000000001	n/a	Yes	2.875	n/a	5.0	GoodResponse	1	0.006	358.879	-1	37	Feedback	Win	True
361.323	2.875	Win2	0.6053000000000001	n/a	Yes	2.875	n/a	n/a	GoodResponse	1	0.0	n/a	-1	37	ISIslide	Win	True
364.222	0.25	Lose2	0.5897	0.0	No	2.828	0.022	n/a	NoResponse	-1	n/a	n/a	-2	38	Cue	Loss	True
364.472	3.95	Lose2	0.5897	0.0	No	2.828	0.0	4.0	NoResponse	-1	3.857	367.329	-2	38	Fixation	Loss	True
368.329	0.3	Lose2	0.5897	0.0	No	2.828	0.0	4.0	NoResponse	-1	3.857	n/a	-2	38	ButtonPress	Loss	True
368.421	0.23	Lose2	0.5897	0.001	No	2.828	-0.001	n/a	NoResponse	-1	n/a	n/a	-2	38	Target	Loss	True
368.654	0.47	Lose2	0.5897	n/a	No	2.828	n/a	n/a	NoResponse	-1	n/a	n/a	-2	38	Blank	Loss	True
369.12	1.45	Lose2	0.5897	n/a	No	2.828	n/a	5.0	NoResponse	-1	0.024	368.144	-2	38	Feedback	Loss	True
370.57	2.828	Lose2	0.5897	n/a	No	2.828	n/a	n/a	NoResponse	-1	0.0	n/a	-2	38	ISIslide	Loss	True
373.419	0.25	Win2	0.6	0.0	Yes	2.981	0.019	n/a	GoodResponse	1	n/a	n/a	-1	39	Cue	Win	True
373.669	4.1	Win2	0.6	0.0	Yes	2.981	0.0	n/a	GoodResponse	1	n/a	n/a	-1	39	Fixation	Win	True
377.767	0.24	Win2	0.6	0.002	Yes	2.981	-0.002	4.0	GoodResponse	1	0.227	376.994	-1	39	Target	Win	True
377.994	0.3	Win2	0.6	0.002	Yes	2.981	-0.002	4.0	GoodResponse	1	0.227	n/a	-1	39	ButtonPress	Win	True
378.017	0.46	Win2	0.6	n/a	Yes	2.981	n/a	n/a	GoodResponse	1	n/a	n/a	-1	39	Blank	Win	True
378.467	1.45	Win2	0.6	n/a	Yes	2.981	n/a	5.0	GoodResponse	1	0.043	377.51	-1	39	Feedback	Win	True
379.916	2.981	Win2	0.6	n/a	Yes	2.981	n/a	n/a	GoodResponse	1	0.0	n/a	-1	39	ISIslide	Win	True
382.915	0.25	Win2	0.6098	0.001	Yes	2.735	0.015	n/a	GoodResponse	1	n/a	n/a	0	40	Cue	Win	True
383.165	3.95	Win2	0.6098	0.0	Yes	2.735	0.0	n/a	GoodResponse	1	n/a	n/a	0	40	Fixation	Win	True
387.114	0.25	Win2	0.6098	0.001	Yes	2.735	-0.001	4.0	GoodResponse	1	0.179	386.293	0	40	Target	Win	True
387.293	0.3	Win2	0.6098	0.001	Yes	2.735	-0.001	4.0	GoodResponse	1	0.179	n/a	0	40	ButtonPress	Win	True
387.364	0.45	Win2	0.6098	n/a	Yes	2.735	n/a	n/a	GoodResponse	1	n/a	n/a	0	40	Blank	Win	True
387.814	1.45	Win2	0.6098	n/a	Yes	2.735	n/a	5.0	GoodResponse	1	0.013	386.827	0	40	Feedback	Win	True
389.263	2.735	Win2	0.6098	n/a	Yes	2.735	n/a	n/a	GoodResponse	1	0.0	n/a	0	40	ISIslide	Win	True
392.029	0.25	Win2	0.619	0.0	Yes	2.771	0.029	n/a	GoodResponse	1	n/a	n/a	1	41	Cue	Win	True
392.279	3.9	Win2	0.619	0.0	Yes	2.771	0.0	n/a	GoodResponse	1	n/a	n/a	1	41	Fixation	Win	True
396.178	0.26	Win2	0.619	0.001	Yes	2.771	-0.001	4.0	GoodResponse	1	0.178	395.356	1	41	Target	Win	True
396.356	0.3	Win2	0.619	0.001	Yes	2.771	-0.001	4.0	GoodResponse	1	0.178	n/a	1	41	ButtonPress	Win	True
396.444	0.44	Win2	0.619	n/a	Yes	2.771	n/a	n/a	GoodResponse	1	n/a	n/a	1	41	Blank	Win	True
396.877	1.45	Win2	0.619	n/a	Yes	2.771	n/a	5.0	GoodResponse	1	0.023	395.9	1	41	Feedback	Win	True
398.327	2.771	Win2	0.619	n/a	Yes	2.771	n/a	n/a	GoodResponse	1	0.0	n/a	1	41	ISIslide	Win	True
401.126	0.25	Control	0.6279	0.0	Yes	2.924	0.026	n/a	GoodResponse	0	n/a	n/a	1	42	Cue	Neutral	True
401.376	3.85	Control	0.6279	0.0	Yes	2.924	0.0	n/a	GoodResponse	0	n/a	n/a	1	42	Fixation	Neutral	True
405.224	0.27	Control	0.6279	0.002	Yes	2.924	-0.002	4.0	GoodResponse	0	0.22	404.444	1	42	Target	Neutral	True
405.444	0.3	Control	0.6279	0.002	Yes	2.924	-0.002	4.0	GoodResponse	0	0.22	n/a	1	42	ButtonPress	Neutral	True
405.508	0.43	Control	0.6279	n/a	Yes	2.924	n/a	n/a	GoodResponse	0	n/a	n/a	1	42	Blank	Neutral	True
405.924	1.45	Control	0.6279	n/a	Yes	2.924	n/a	5.0	GoodResponse	0	0.0	404.924	1	42	Feedback	Neutral	True
407.374	2.924	Control	0.6279	n/a	Yes	2.924	n/a	n/a	GoodResponse	0	0.0	n/a	1	42	ISIslide	Neutral	True
410.323	0.25	Win2	0.6364	0.0	Yes	3.177	0.023	n/a	GoodResponse	1	n/a	n/a	2	43	Cue	Win	True
410.572	4.0	Win2	0.6364	0.001	Yes	3.177	-0.001	n/a	GoodResponse	1	n/a	n/a	2	43	Fixation	Win	True
414.571	0.28	Win2	0.6364	0.002	Yes	3.177	-0.002	4.0	GoodResponse	1	0.233	413.804	2	43	Target	Win	True
414.804	0.3	Win2	0.6364	0.002	Yes	3.177	-0.002	4.0	GoodResponse	1	0.233	n/a	2	43	ButtonPress	Win	True
414.854	0.42	Win2	0.6364	n/a	Yes	3.177	n/a	n/a	GoodResponse	1	n/a	n/a	2	43	Blank	Win	True
415.271	1.45	Win2	0.6364	n/a	Yes	3.177	n/a	5.0	GoodResponse	1	0.019	414.29	2	43	Feedback	Win	True
416.72	3.177	Win2	0.6364	n/a	Yes	3.177	n/a	n/a	GoodResponse	1	0.0	n/a	2	43	ISIslide	Win	True
419.919	0.25	Win2	0.6444	0.0	Yes	2.981	0.019	n/a	GoodResponse	1	n/a	n/a	3	44	Cue	Win	True
420.169	4.0	Win2	0.6444	0.0	Yes	2.981	0.0	n/a	GoodResponse	1	n/a	n/a	3	44	Fixation	Win	True
424.168	0.29	Win2	0.6444	0.001	Yes	2.981	-0.001	4.0	GoodResponse	1	0.199	423.367	3	44	Target	Win	True
424.367	0.3	Win2	0.6444	0.001	Yes	2.981	-0.001	4.0	GoodResponse	1	0.199	n/a	3	44	ButtonPress	Win	True
424.468	0.41	Win2	0.6444	n/a	Yes	2.981	n/a	n/a	GoodResponse	1	n/a	n/a	3	44	Blank	Win	True
424.867	1.45	Win2	0.6444	n/a	Yes	2.981	n/a	5.0	GoodResponse	1	0.032	423.899	3	44	Feedback	Win	True
426.317	2.981	Win2	0.6444	n/a	Yes	2.981	n/a	n/a	GoodResponse	1	0.0	n/a	3	44	ISIslide	Win	True
429.316	0.25	Control	0.6522	0.0	Yes	2.884	0.016	n/a	GoodResponse	0	n/a	n/a	3	45	Cue	Neutral	True
429.566	4.1	Control	0.6522	0.0	Yes	2.884	0.0	n/a	GoodResponse	0	n/a	n/a	3	45	Fixation	Neutral	True
433.664	0.3	Control	0.6522	0.002	Yes	2.884	-0.002	4.0	GoodResponse	0	0.207	432.871	3	45	Target	Neutral	True
433.871	0.3	Control	0.6522	0.002	Yes	2.884	-0.002	4.0	GoodResponse	0	0.207	n/a	3	45	ButtonPress	Neutral	True
433.964	0.4	Control	0.6522	n/a	Yes	2.884	n/a	n/a	GoodResponse	0	n/a	n/a	3	45	Blank	Neutral	True
434.364	1.45	Control	0.6522	n/a	Yes	2.884	n/a	5.0	GoodResponse	0	0.048	433.412	3	45	Feedback	Neutral	True
435.814	2.884	Control	0.6522	n/a	Yes	2.884	n/a	n/a	GoodResponse	0	0.0	n/a	3	45	ISIslide	Neutral	True
438.729	0.25	Lose2	0.6596	0.0	Yes	3.371	0.029	n/a	GoodResponse	0	n/a	n/a	3	46	Cue	AvoidedLoss	True
438.979	4.0	Lose2	0.6596	0.0	Yes	3.371	0.0	n/a	GoodResponse	0	n/a	n/a	3	46	Fixation	AvoidedLoss	True
442.978	0.31	Lose2	0.6596	0.001	Yes	3.371	-0.001	4.0	GoodResponse	0	0.194	442.172	3	46	Target	AvoidedLoss	True
443.172	0.3	Lose2	0.6596	0.001	Yes	3.371	-0.001	4.0	GoodResponse	0	0.194	n/a	3	46	ButtonPress	AvoidedLoss	True
443.294	0.39	Lose2	0.6596	n/a	Yes	3.371	n/a	n/a	GoodResponse	0	n/a	n/a	3	46	Blank	AvoidedLoss	True
443.678	1.45	Lose2	0.6596	n/a	Yes	3.371	n/a	5.0	GoodResponse	0	0.005	442.683	3	46	Feedback	AvoidedLoss	True
445.127	3.371	Lose2	0.6596	n/a	Yes	3.371	n/a	n/a	GoodResponse	0	0.0	n/a	3	46	ISIslide	AvoidedLoss	True
448.526	0.25	Lose2	0.6667000000000001	0.0	Yes	2.674	0.026	n/a	GoodResponse	0	n/a	n/a	3	47	Cue	AvoidedLoss	True
448.776	4.0	Lose2	0.6667000000000001	0.0	Yes	2.674	0.0	n/a	GoodResponse	0	n/a	n/a	3	47	Fixation	AvoidedLoss	True
452.774	0.31	Lose2	0.6667000000000001	0.002	Yes	2.674	-0.002	4.0	GoodResponse	0	0.19	451.964	3	47	Target	AvoidedLoss	True
452.964	0.3	Lose2	0.6667000000000001	0.002	Yes	2.674	-0.002	4.0	GoodResponse	0	0.19	n/a	3	47	ButtonPress	AvoidedLoss	True
453.091	0.39	Lose2	0.6667000000000001	n/a	Yes	2.674	n/a	n/a	GoodResponse	0	n/a	n/a	3	47	Blank	AvoidedLoss	True
453.474	1.45	Lose2	0.6667000000000001	n/a	Yes	2.674	n/a	5.0	GoodResponse	0	0.01	452.484	3	47	Feedback	AvoidedLoss	True
454.924	2.674	Lose2	0.6667000000000001	n/a	Yes	2.674	n/a	n/a	GoodResponse	0	0.0	n/a	3	47	ISIslide	AvoidedLoss	True
457.623	0.25	Lose2	0.6735	0.0	Yes	3.027	0.023	n/a	GoodResponse	0	n/a	n/a	3	48	Cue	AvoidedLoss	True
457.873	3.95	Lose2	0.6735	0.0	Yes	3.027	0.0	n/a	GoodResponse	0	n/a	n/a	3	48	Fixation	AvoidedLoss	True
461.821	0.3	Lose2	0.6735	0.002	Yes	3.027	-0.002	4.0	GoodResponse	0	0.213	461.034	3	48	Target	AvoidedLoss	True
462.034	0.3	Lose2	0.6735	0.002	Yes	3.027	-0.002	4.0	GoodResponse	0	0.213	n/a	3	48	ButtonPress	AvoidedLoss	True
462.121	0.4	Lose2	0.6735	n/a	Yes	3.027	n/a	n/a	GoodResponse	0	n/a	n/a	3	48	Blank	AvoidedLoss	True
462.521	1.45	Lose2	0.6735	n/a	Yes	3.027	n/a	5.0	GoodResponse	0	0.036	461.557	3	48	Feedback	AvoidedLoss	True
463.971	3.027	Lose2	0.6735	n/a	Yes	3.027	n/a	n/a	GoodResponse	0	0.0	n/a	3	48	ISIslide	AvoidedLoss	True
467.019	0.25	Control	0.68	0.001	Yes	2.881	0.019	n/a	GoodResponse	0	n/a	n/a	3	49	Cue	Neutral	True
467.269	4.0	Control	0.68	0.0	Yes	2.881	0.0	n/a	GoodResponse	0	n/a	n/a	3	49	Fixation	Neutral	True
471.268	0.29	Control	0.68	0.001	Yes	2.881	-0.001	4.0	GoodResponse	0	0.23	470.498	3	49	Target	Neutral	True
471.498	0.3	Control	0.68	0.001	Yes	2.881	-0.001	4.0	GoodResponse	0	0.23	n/a	3	49	ButtonPress	Neutral	True
471.568	0.41	Control	0.68	n/a	Yes	2.881	n/a	n/a	GoodResponse	0	n/a	n/a	3	49	Blank	Neutral	True
471.968	1.45	Control	0.68	n/a	Yes	2.881	n/a	5.0	GoodResponse	0	0.006	470.974	3	49	Feedback	Neutral	True
473.417	2.881	Control	0.68	n/a	Yes	2.881	n/a	n/a	GoodResponse	0	0.0	n/a	3	49	ISIslide	Neutral	True
476.316	0.25	Control	0.6862999999999999	0.0	Yes	2.784	0.016	n/a	GoodResponse	0	n/a	n/a	3	50	Cue	Neutral	True
476.566	4.0	Control	0.6862999999999999	0.0	Yes	2.784	0.0	n/a	GoodResponse	0	n/a	n/a	3	50	Fixation	Neutral	True
480.565	0.28	Control	0.6862999999999999	0.001	Yes	2.784	-0.001	4.0	GoodResponse	0	0.197	479.762	3	50	Target	Neutral	True
480.762	0.3	Control	0.6862999999999999	0.001	Yes	2.784	-0.001	4.0	GoodResponse	0	0.197	n/a	3	50	ButtonPress	Neutral	True
480.848	0.42	Control	0.6862999999999999	n/a	Yes	2.784	n/a	n/a	GoodResponse	0	n/a	n/a	3	50	Blank	Neutral	True
481.264	1.45	Control	0.6862999999999999	n/a	Yes	2.784	n/a	5.0	GoodResponse	0	0.025	480.289	3	50	Feedback	Neutral	True
482.714	2.784	Control	0.6862999999999999	n/a	Yes	2.784	n/a	n/a	GoodResponse	0	0.0	n/a	3	50	ISIslide	Neutral	True
485.513	0.25	Control	0.6731	0.0	No	2.737	0.013	n/a	NoResponse	0	n/a	n/a	3	51	Cue	Neutral	True
485.763	3.95	Control	0.6731	0.0	No	2.737	0.0	4.0	NoResponse	0	3.875	488.638	3	51	Fixation	Neutral	True
489.638	0.3	Control	0.6731	0.0	No	2.737	0.0	4.0	NoResponse	0	3.875	n/a	3	51	ButtonPress	Neutral	True
489.712	0.27	Control	0.6731	0.001	No	2.737	-0.001	n/a	NoResponse	0	n/a	n/a	3	51	Target	Neutral	True
489.995	0.43	Control	0.6731	n/a	No	2.737	n/a	n/a	NoResponse	0	n/a	n/a	3	51	Blank	Neutral	True
490.411	1.45	Control	0.6731	n/a	No	2.737	n/a	5.0	NoResponse	0	0.049	489.46	3	51	Feedback	Neutral	True
491.861	2.737	Control	0.6731	n/a	No	2.737	n/a	n/a	NoResponse	0	0.0	n/a	3	51	ISIslide	Neutral	True
494.627	0.25	Control	0.6792	0.0	Yes	2.623	0.027	n/a	GoodResponse	0	n/a	n/a	3	52	Cue	Neutral	True
494.876	4.05	Control	0.6792	0.001	Yes	2.623	-0.001	n/a	GoodResponse	0	n/a	n/a	3	52	Fixation	Neutral	True
498.925	0.26	Control	0.6792	0.002	Yes	2.623	-0.002	4.0	GoodResponse	0	0.181	498.106	3	52	Target	Neutral	True
499.106	0.3	Control	0.6792	0.002	Yes	2.623	-0.002	4.0	GoodResponse	0	0.181	n/a	3	52	ButtonPress	Neutral	True
499.192	0.44	Control	0.6792	n/a	Yes	2.623	n/a	n/a	GoodResponse	0	n/a	n/a	3	52	Blank	Neutral	True
499.625	1.45	Control	0.6792	n/a	Yes	2.623	n/a	5.0	GoodResponse	0	0.008	498.633	3	52	Feedback	Neutral	True
501.074	2.623	Control	0.6792	n/a	Yes	2.623	n/a	n/a	GoodResponse	0	0.0	n/a	3	52	ISIslide	Neutral	True
503.723	0.25	Win2	0.6851999999999999	0.0	Yes	2.927	0.023	n/a	GoodResponse	1	n/a	n/a	4	53	Cue	Win	True
503.973	4.05	Win2	0.6851999999999999	0.0	Yes	2.927	0.0	n/a	GoodResponse	1	n/a	n/a	4	53	Fixation	Win	True
508.022	0.25	Win2	0.6851999999999999	0.001	Yes	2.927	-0.001	4.0	GoodResponse	1	0.188	507.21	4	53	Target	Win	True
508.21	0.3	Win2	0.6851999999999999	0.001	Yes	2.927	-0.001	4.0	GoodResponse	1	0.188	n/a	4	53	ButtonPress	Win	True
508.272	0.45	Win2	0.6851999999999999	n/a	Yes	2.927	n/a	n/a	GoodResponse	1	n/a	n/a	4	53	Blank	Win	True
508.722	1.45	Win2	0.6851999999999999	n/a	Yes	2.927	n/a	5.0	GoodResponse	1	0.03	507.752	4	53	Feedback	Win	True
510.171	2.927	Win2	0.6851999999999999	n/a	Yes	2.927	n/a	n/a	GoodResponse	1	0.0	n/a	4	53	ISIslide	Win	True
513.12	0.25	Win2	0.6909000000000001	0.0	Yes	2.73	0.02	n/a	GoodResponse	1	n/a	n/a	5	54	Cue	Win	True
513.37	3.95	Win2	0.6909000000000001	0.0	Yes	2.73	0.0	n/a	GoodResponse	1	n/a	n/a	5	54	Fixation	Win	True
517.319	0.24	Win2	0.6909000000000001	0.001	Yes	2.73	-0.001	4.0	GoodResponse	1	0.189	516.508	5	54	Target	Win	True
517.508	0.3	Win2	0.6909000000000001	0.001	Yes	2.73	-0.001	4.0	GoodResponse	1	0.189	n/a	5	54	ButtonPress	Win	True
517.568	0.46	Win2	0.6909000000000001	n/a	Yes	2.73	n/a	n/a	GoodResponse	1	n/a	n/a	5	54	Blank	Win	True
518.018	1.45	Win2	0.6909000000000001	n/a	Yes	2.73	n/a	5.0	GoodResponse	1	0.007	517.025	5	54	Feedback	Win	True
519.468	2.73	Win2	0.6909000000000001	n/a	Yes	2.73	n/a	n/a	GoodResponse	1	0.0	n/a	5	54	ISIslide	Win	True
522.217	0.25	Control	0.6964	0.0	Yes	3.033	0.017	n/a	GoodResponse	0	n/a	n/a	5	55	Cue	Neutral	True
522.467	3.95	Control	0.6964	0.0	Yes	3.033	0.0	n/a	GoodResponse	0	n/a	n/a	5	55	Fixation	Neutral	True
526.415	0.23	Control	0.6964	0.002	Yes	3.033	-0.002	4.0	GoodResponse	0	0.205	525.62	5	55	Target	Neutral	True
526.62	0.3	Control	0.6964	0.002	Yes	3.033	-0.002	4.0	GoodResponse	0	0.205	n/a	5	55	ButtonPress	Neutral	True
526.649	0.47	Control	0.6964	n/a	Yes	3.033	n/a	n/a	GoodResponse	0	n/a	n/a	5	55	Blank	Neutral	True
527.115	1.45	Control	0.6964	n/a	Yes	3.033	n/a	5.0	GoodResponse	0	0.028	526.143	5	55	Feedback	Neutral	True
528.565	3.033	Control	0.6964	n/a	Yes	3.033	n/a	n/a	GoodResponse	0	0.0	n/a	5	55	ISIslide	Neutral	True
531.614	0.25	Control	0.7018000000000001	0.0	Yes	2.836	0.014	n/a	GoodResponse	0	n/a	n/a	5	56	Cue	Neutral	True
531.863	3.95	Control	0.7018000000000001	0.001	Yes	2.836	-0.001	n/a	GoodResponse	0	n/a	n/a	5	56	Fixation	Neutral	True
535.812	0.22	Control	0.7018000000000001	0.002	Yes	2.836	-0.002	4.0	GoodResponse	0	0.215	535.027	5	56	Target	Neutral	True
536.027	0.3	Control	0.7018000000000001	0.002	Yes	2.836	-0.002	4.0	GoodResponse	0	0.215	n/a	5	56	ButtonPress	Neutral	True
536.045	0.48	Control	0.7018000000000001	n/a	Yes	2.836	n/a	n/a	GoodResponse	0	n/a	n/a	5	56	Blank	Neutral	True
536.512	1.45	Control	0.7018000000000001	n/a	Yes	2.836	n/a	5.0	GoodResponse	0	0.045	535.557	5	56	Feedback	Neutral	True
537.961	2.836	Control	0.7018000000000001	n/a	Yes	2.836	n/a	n/a	GoodResponse	0	0.0	n/a	5	56	ISIslide	Neutral	True
540.827	0.25	Control	0.7069	0.0	Yes	3.473	0.027	n/a	GoodResponse	0	n/a	n/a	5	57	Cue	Neutral	True
541.077	4.0	Control	0.7069	0.0	Yes	3.473	0.0	n/a	GoodResponse	0	n/a	n/a	5	57	Fixation	Neutral	True
545.076	0.21	Control	0.7069	0.001	Yes	3.473	-0.001	4.0	GoodResponse	0	0.196	544.272	5	57	Target	Neutral	True
545.272	0.3	Control	0.7069	0.001	Yes	3.473	-0.001	4.0	GoodResponse	0	0.196	n/a	5	57	ButtonPress	Neutral	True
545.292	0.49	Control	0.7069	n/a	Yes	3.473	n/a	n/a	GoodResponse	0	n/a	n/a	5	57	Blank	Neutral	True
545.775	1.45	Control	0.7069	n/a	Yes	3.473	n/a	5.0	GoodResponse	0	0.002	544.777	5	57	Feedback	Neutral	True
547.225	3.473	Control	0.7069	n/a	Yes	3.473	n/a	n/a	GoodResponse	0	0.0	n/a	5	57	ISIslide	Neutral	True
550.724	0.25	Win2	0.7119	0.0	Yes	2.726	0.024	n/a	GoodResponse	1	n/a	n/a	6	58	Cue	Win	True
550.974	4.05	Win2	0.7119	0.0	Yes	2.726	0.0	n/a	GoodResponse	1	n/a	n/a	6	58	Fixation	Win	True
555.022	0.2	Win2	0.7119	0.002	Yes	2.726	-0.002	4.0	GoodResponse	1	0.158	554.18	6	58	Target	Win	True
555.18	0.3	Win2	0.7119	0.002	Yes	2.726	-0.002	4.0	GoodResponse	1	0.158	n/a	6	58	ButtonPress	Win	True
555.222	0.5	Win2	0.7119	n/a	Yes	2.726	n/a	n/a	GoodResponse	1	n/a	n/a	6	58	Blank	Win	True
555.722	1.45	Win2	0.7119	n/a	Yes	2.726	n/a	5.0	GoodResponse	1	0.007	554.729	6	58	Feedback	Win	True
557.171	2.726	Win2	0.7119	n/a	Yes	2.726	n/a	n/a	GoodResponse	1	0.0	n/a	6	58	ISIslide	Win	True
559.92	0.25	Lose2	0.7167	0.0	Yes	2.68	0.02	n/a	GoodResponse	0	n/a	n/a	6	59	Cue	AvoidedLoss	True
560.17	4.0	Lose2	0.7167	0.0	Yes	2.68	0.0	n/a	GoodResponse	0	n/a	n/a	6	59	Fixation	AvoidedLoss	True
564.169	0.19	Lose2	0.7167	0.001	Yes	2.68	-0.001	4.0	GoodResponse	0	0.182	563.351	6	59	Target	AvoidedLoss	True
564.351	0.3	Lose2	0.7167	0.001	Yes	2.68	-0.001	4.0	GoodResponse	0	0.182	n/a	6	59	ButtonPress	AvoidedLoss	True
564.369	0.51	Lose2	0.7167	n/a	Yes	2.68	n/a	n/a	GoodResponse	0	n/a	n/a	6	59	Blank	AvoidedLoss	True
564.869	1.45	Lose2	0.7167	n/a	Yes	2.68	n/a	5.0	GoodResponse	0	0.029	563.898	6	59	Feedback	AvoidedLoss	True
566.318	2.68	Lose2	0.7167	n/a	Yes	2.68	n/a	n/a	GoodResponse	0	0.0	n/a	6	59	ISIslide	AvoidedLoss	True
569.017	0.25	Control	0.7049	0.0	No	2.683	0.017	n/a	LatePress	0	n/a	n/a	6	60	Cue	Neutral	True
569.267	4.0	Control	0.7049	0.0	No	2.683	0.0	n/a	LatePress	0	n/a	n/a	6	60	Fixation	Neutral	True
573.266	0.18	Control	0.7049	0.001	No	2.683	-0.001	4.0	LatePress	0	0.181	572.447	6	60	Target	Neutral	True
573.447	0.3	Control	0.7049	0.001	No	2.683	-0.001	4.0	LatePress	0	0.181	n/a	6	60	ButtonPress	Neutral	True
573.449	0.52	Control	0.7049	n/a	No	2.683	n/a	n/a	LatePress	0	n/a	n/a	6	60	Blank	Neutral	True
573.965	1.45	Control	0.7049	n/a	No	2.683	n/a	5.0	LatePress	0	0.007	572.972	6	60	Feedback	Neutral	True
575.415	2.683	Control	0.7049	n/a	No	2.683	n/a	n/a	LatePress	0	0.0	n/a	6	60	ISIslide	Neutral	True
578.114	0.25	Lose2	0.6934999999999999	0.0	No	2.986	0.014	n/a	NoResponse	-1	n/a	n/a	5	61	Cue	Loss	True
578.364	4.0	Lose2	0.6934999999999999	0.0	No	2.986	0.0	n/a	NoResponse	-1	n/a	n/a	5	61	Fixation	Loss	True
582.363	0.17	Lose2	0.6934999999999999	0.001	No	2.986	-0.001	4.0	NoResponse	-1	0.19	581.553	5	61	Target	Loss	True
582.546	0.53	Lose2	0.6934999999999999	n/a	No	2.986	n/a	n/a	NoResponse	-1	n/a	n/a	5	61	Blank	Loss	True
582.553	0.3	Lose2	0.6934999999999999	0.001	No	2.986	-0.001	4.0	NoResponse	-1	0.19	n/a	5	61	ButtonPress	Loss	True
583.062	1.45	Lose2	0.6934999999999999	n/a	No	2.986	n/a	5.0	NoResponse	-1	0.032	582.094	5	61	Feedback	Loss	True
584.512	2.986	Lose2	0.6934999999999999	n/a	No	2.986	n/a	n/a	NoResponse	-1	0.0	n/a	5	61	ISIslide	Loss	True
587.527	0.25	Lose2	0.6825	0.0	No	2.873	0.027	n/a	NoResponse	-1	n/a	n/a	4	62	Cue	Loss	True
587.777	3.9	Lose2	0.6825	0.0	No	2.873	0.0	n/a	NoResponse	-1	n/a	n/a	4	62	Fixation	Loss	True
591.676	0.16	Lose2	0.6825	0.001	No	2.873	-0.001	4.0	NoResponse	-1	0.168	590.844	4	62	Target	Loss	True
591.843	0.54	Lose2	0.6825	n/a	No	2.873	n/a	n/a	NoResponse	-1	n/a	n/a	4	62	Blank	Loss	True
591.844	0.3	Lose2	0.6825	0.001	No	2.873	-0.001	4.0	NoResponse	-1	0.168	n/a	4	62	ButtonPress	Loss	True
592.376	1.45	Lose2	0.6825	n/a	No	2.873	n/a	5.0	NoResponse	-1	0.035	591.411	4	62	Feedback	Loss	True
593.825	2.873	Lose2	0.6825	n/a	No	2.873	n/a	n/a	NoResponse	-1	0.0	n/a	4	62	ISIslide	Loss	True
596.724	0.25	Lose2	0.6718999999999999	0.0	No	2.626	0.024	n/a	NoResponse	-1	n/a	n/a	3	63	Cue	Loss	True
596.974	4.05	Lose2	0.6718999999999999	0.0	No	2.626	0.0	n/a	NoResponse	-1	n/a	n/a	3	63	Fixation	Loss	True
601.023	0.15	Lose2	0.6718999999999999	0.001	No	2.626	-0.001	4.0	NoResponse	-1	0.202	600.225	3	63	Target	Loss	True
601.173	0.55	Lose2	0.6718999999999999	n/a	No	2.626	n/a	n/a	NoResponse	-1	n/a	n/a	3	63	Blank	Loss	True
601.225	0.3	Lose2	0.6718999999999999	0.001	No	2.626	-0.001	4.0	NoResponse	-1	0.202	n/a	3	63	ButtonPress	Loss	True
601.722	1.45	Lose2	0.6718999999999999	n/a	No	2.626	n/a	5.0	NoResponse	-1	0.008	600.73	3	63	Feedback	Loss	True
603.172	2.626	Lose2	0.6718999999999999	n/a	No	2.626	n/a	n/a	NoResponse	-1	0.0	n/a	3	63	ISIslide	Loss	True
605.821	0.25	Win2	0.6615000000000001	0.0	No	3.129	0.021	n/a	NoResponse	0	n/a	n/a	3	64	Cue	MissedWin	True
606.071	4.15	Win2	0.6615000000000001	0.0	No	3.129	0.0	4.0	NoResponse	0	4.08	609.151	3	64	Fixation	MissedWin	True
610.151	0.3	Win2	0.6615000000000001	0.0	No	3.129	0.0	4.0	NoResponse	0	4.08	n/a	3	64	ButtonPress	MissedWin	True
610.219	0.15	Win2	0.6615000000000001	0.002	No	3.129	-0.002	n/a	NoResponse	0	n/a	n/a	3	64	Target	MissedWin	True
610.369	0.55	Win2	0.6615000000000001	n/a	No	3.129	n/a	n/a	NoResponse	0	n/a	n/a	3	64	Blank	MissedWin	True
610.919	1.45	Win2	0.6615000000000001	n/a	No	3.129	n/a	5.0	NoResponse	0	0.028	609.947	3	64	Feedback	MissedWin	True
612.369	3.129	Win2	0.6615000000000001	n/a	No	3.129	n/a	n/a	NoResponse	0	0.0	n/a	3	64	ISIslide	MissedWin	True
615.518	0.25	Control	0.6515000000000001	0.0	No	2.782	0.018	n/a	NoResponse	0	n/a	n/a	3	65	Cue	Neutral	True
615.768	4.0	Control	0.6515000000000001	0.0	No	2.782	0.0	n/a	NoResponse	0	n/a	n/a	3	65	Fixation	Neutral	True
619.766	0.15	Control	0.6515000000000001	0.002	No	2.782	-0.002	4.0	NoResponse	0	0.199	618.965	3	65	Target	Neutral	True
619.916	0.55	Control	0.6515000000000001	n/a	No	2.782	n/a	n/a	NoResponse	0	n/a	n/a	3	65	Blank	Neutral	True
619.965	0.3	Control	0.6515000000000001	0.002	No	2.782	-0.002	4.0	NoResponse	0	0.199	n/a	3	65	ButtonPress	Neutral	True
620.466	1.45	Control	0.6515000000000001	n/a	No	2.782	n/a	5.0	NoResponse	0	0.042	619.508	3	65	Feedback	Neutral	True
621.915	2.782	Control	0.6515000000000001	n/a	No	2.782	n/a	n/a	NoResponse	0	0.0	n/a	3	65	ISIslide	Neutral	True
624.714	0.25	Win2	0.6418	0.001	No	2.786	0.014	n/a	NoResponse	0	n/a	n/a	3	66	Cue	MissedWin	True
624.964	3.9	Win2	0.6418	0.0	No	2.786	0.0	n/a	NoResponse	0	n/a	n/a	3	66	Fixation	MissedWin	True
628.863	0.16	Win2	0.6418	0.001	No	2.786	-0.001	4.0	NoResponse	0	0.19	628.053	3	66	Target	MissedWin	True
629.03	0.54	Win2	0.6418	n/a	No	2.786	n/a	n/a	NoResponse	0	n/a	n/a	3	66	Blank	MissedWin	True
629.053	0.3	Win2	0.6418	0.001	No	2.786	-0.001	4.0	NoResponse	0	0.19	n/a	3	66	ButtonPress	MissedWin	True
629.563	1.45	Win2	0.6418	n/a	No	2.786	n/a	5.0	NoResponse	0	0.018	628.581	3	66	Feedback	MissedWin	True
631.012	2.786	Win2	0.6418	n/a	No	2.786	n/a	n/a	NoResponse	0	0.0	n/a	3	66	ISIslide	MissedWin	True
633.828	0.25	Control	0.6324000000000001	0.0	No	2.722	0.028	n/a	NoResponse	0	n/a	n/a	3	67	Cue	Neutral	True
634.078	3.95	Control	0.6324000000000001	0.0	No	2.722	0.0	4.0	NoResponse	0	3.597	636.675	3	67	Fixation	Neutral	True
637.675	0.3	Control	0.6324000000000001	0.0	No	2.722	0.0	4.0	NoResponse	0	3.597	n/a	3	67	ButtonPress	Neutral	True
638.026	0.17	Control	0.6324000000000001	0.002	No	2.722	-0.002	n/a	NoResponse	0	n/a	n/a	3	67	Target	Neutral	True
638.21	0.53	Control	0.6324000000000001	n/a	No	2.722	n/a	n/a	NoResponse	0	n/a	n/a	3	67	Blank	Neutral	True
638.726	1.45	Control	0.6324000000000001	n/a	No	2.722	n/a	5.0	NoResponse	0	0.026	637.752	3	67	Feedback	Neutral	True
640.176	2.722	Control	0.6324000000000001	n/a	No	2.722	n/a	n/a	NoResponse	0	0.0	n/a	3	67	ISIslide	Neutral	True
642.925	0.25	Win2	0.6232	0.0	No	3.075	0.025	n/a	NoResponse	0	n/a	n/a	3	68	Cue	MissedWin	True
643.175	4.0	Win2	0.6232	0.0	No	3.075	0.0	n/a	NoResponse	0	n/a	n/a	3	68	Fixation	MissedWin	True
647.173	0.18	Win2	0.6232	0.002	No	3.075	-0.002	4.0	NoResponse	0	0.219	646.392	3	68	Target	MissedWin	True
647.357	0.52	Win2	0.6232	n/a	No	3.075	n/a	n/a	NoResponse	0	n/a	n/a	3	68	Blank	MissedWin	True
647.392	0.3	Win2	0.6232	0.002	No	3.075	-0.002	4.0	NoResponse	0	0.219	n/a	3	68	ButtonPress	MissedWin	True
647.873	1.45	Win2	0.6232	n/a	No	3.075	n/a	5.0	NoResponse	0	0.0	646.873	3	68	Feedback	MissedWin	True
649.323	3.075	Win2	0.6232	n/a	No	3.075	n/a	n/a	NoResponse	0	0.0	n/a	3	68	ISIslide	MissedWin	True
652.421	0.25	Win2	0.6143	0.001	No	3.229	0.021	n/a	NoResponse	0	n/a	n/a	3	69	Cue	MissedWin	True
652.671	3.95	Win2	0.6143	0.0	No	3.229	0.0	n/a	NoResponse	0	n/a	n/a	3	69	Fixation	MissedWin	True
656.62	0.19	Win2	0.6143	0.001	No	3.229	-0.001	4.0	NoResponse	0	0.208	655.828	3	69	Target	MissedWin	True
656.82	0.51	Win2	0.6143	n/a	No	3.229	n/a	n/a	NoResponse	0	n/a	n/a	3	69	Blank	MissedWin	True
656.828	0.3	Win2	0.6143	0.001	No	3.229	-0.001	4.0	NoResponse	0	0.208	n/a	3	69	ButtonPress	MissedWin	True
657.32	1.45	Win2	0.6143	n/a	No	3.229	n/a	5.0	NoResponse	0	0.016	656.336	3	69	Feedback	MissedWin	True
658.769	3.229	Win2	0.6143	n/a	No	3.229	n/a	n/a	NoResponse	0	0.0	n/a	3	69	ISIslide	MissedWin	True
662.018	0.25	Lose2	0.6197	0.0	Yes	3.032	0.018	n/a	GoodResponse	0	n/a	n/a	3	70	Cue	AvoidedLoss	True
662.268	4.05	Lose2	0.6197	0.0	Yes	3.032	0.0	n/a	GoodResponse	0	n/a	n/a	3	70	Fixation	AvoidedLoss	True
666.317	0.2	Lose2	0.6197	0.001	Yes	3.032	-0.001	4.0	GoodResponse	0	0.187	665.504	3	70	Target	AvoidedLoss	True
666.504	0.3	Lose2	0.6197	0.001	Yes	3.032	-0.001	4.0	GoodResponse	0	0.187	n/a	3	70	ButtonPress	AvoidedLoss	True
666.517	0.5	Lose2	0.6197	n/a	Yes	3.032	n/a	n/a	GoodResponse	0	n/a	n/a	3	70	Blank	AvoidedLoss	True
667.016	1.45	Lose2	0.6197	n/a	Yes	3.032	n/a	5.0	GoodResponse	0	0.028	666.044	3	70	Feedback	AvoidedLoss	True
668.466	3.032	Lose2	0.6197	n/a	Yes	3.032	n/a	n/a	GoodResponse	0	0.0	n/a	3	70	ISIslide	AvoidedLoss	True
671.531	0.25	Win2	0.625	0.001	Yes	2.719	0.031	n/a	GoodResponse	1	n/a	n/a	4	71	Cue	Win	True
671.781	4.05	Win2	0.625	0.0	Yes	2.719	0.0	n/a	GoodResponse	1	n/a	n/a	4	71	Fixation	Win	True
675.83	0.21	Win2	0.625	0.001	Yes	2.719	-0.001	4.0	GoodResponse	1	0.18	675.01	4	71	Target	Win	True
676.01	0.3	Win2	0.625	0.001	Yes	2.719	-0.001	4.0	GoodResponse	1	0.18	n/a	4	71	ButtonPress	Win	True
676.047	0.49	Win2	0.625	n/a	Yes	2.719	n/a	n/a	GoodResponse	1	n/a	n/a	4	71	Blank	Win	True
676.53	1.45	Win2	0.625	n/a	Yes	2.719	n/a	5.0	GoodResponse	1	0.026	675.556	4	71	Feedback	Win	True
677.979	2.719	Win2	0.625	n/a	Yes	2.719	n/a	n/a	GoodResponse	1	0.0	n/a	4	71	ISIslide	Win	True
680.728	0.25	Win2	0.6164000000000001	0.0	No	2.772	0.028	n/a	NoResponse	0	n/a	n/a	4	72	Cue	MissedWin	True
680.978	4.1	Win2	0.6164000000000001	0.0	No	2.772	0.0	4.0	NoResponse	0	4.003	683.981	4	72	Fixation	MissedWin	True
684.981	0.3	Win2	0.6164000000000001	0.0	No	2.772	0.0	4.0	NoResponse	0	4.003	n/a	4	72	ButtonPress	MissedWin	True
685.077	0.22	Win2	0.6164000000000001	0.001	No	2.772	-0.001	n/a	NoResponse	0	n/a	n/a	4	72	Target	MissedWin	True
685.31	0.48	Win2	0.6164000000000001	n/a	No	2.772	n/a	n/a	NoResponse	0	n/a	n/a	4	72	Blank	MissedWin	True
685.776	1.45	Win2	0.6164000000000001	n/a	No	2.772	n/a	5.0	NoResponse	0	0.048	684.824	4	72	Feedback	MissedWin	True
687.226	2.772	Win2	0.6164000000000001	n/a	No	2.772	n/a	n/a	NoResponse	0	0.0	n/a	4	72	ISIslide	MissedWin	True
690.025	0.25	Win2	0.6215999999999999	0.0	Yes	2.675	0.025	n/a	GoodResponse	1	n/a	n/a	5	73	Cue	Win	True
690.275	4.0	Win2	0.6215999999999999	0.0	Yes	2.675	0.0	n/a	GoodResponse	1	n/a	n/a	5	73	Fixation	Win	True
694.274	0.23	Win2	0.6215999999999999	0.001	Yes	2.675	-0.001	4.0	GoodResponse	1	0.221	693.495	5	73	Target	Win	True
694.495	0.3	Win2	0.6215999999999999	0.001	Yes	2.675	-0.001	4.0	GoodResponse	1	0.221	n/a	5	73	ButtonPress	Win	True
694.507	0.47	Win2	0.6215999999999999	n/a	Yes	2.675	n/a	n/a	GoodResponse	1	n/a	n/a	5	73	Blank	Win	True
694.973	1.45	Win2	0.6215999999999999	n/a	Yes	2.675	n/a	5.0	GoodResponse	1	0.022	693.995	5	73	Feedback	Win	True
696.423	2.675	Win2	0.6215999999999999	n/a	Yes	2.675	n/a	n/a	GoodResponse	1	0.0	n/a	5	73	ISIslide	Win	True
699.122	0.25	Lose2	0.6267	0.0	Yes	2.628	0.022	n/a	GoodResponse	0	n/a	n/a	5	74	Cue	AvoidedLoss	True
699.372	4.05	Lose2	0.6267	0.0	Yes	2.628	0.0	n/a	GoodResponse	0	n/a	n/a	5	74	Fixation	AvoidedLoss	True
703.42	0.24	Lose2	0.6267	0.002	Yes	2.628	-0.002	4.0	GoodResponse	0	0.199	702.619	5	74	Target	AvoidedLoss	True
703.619	0.3	Lose2	0.6267	0.002	Yes	2.628	-0.002	4.0	GoodResponse	0	0.199	n/a	5	74	ButtonPress	AvoidedLoss	True
703.67	0.46	Lose2	0.6267	n/a	Yes	2.628	n/a	n/a	GoodResponse	0	n/a	n/a	5	74	Blank	AvoidedLoss	True
704.12	1.45	Lose2	0.6267	n/a	Yes	2.628	n/a	5.0	GoodResponse	0	0.045	703.165	5	74	Feedback	AvoidedLoss	True
705.57	2.628	Lose2	0.6267	n/a	Yes	2.628	n/a	n/a	GoodResponse	0	0.0	n/a	5	74	ISIslide	AvoidedLoss	True
708.219	0.25	Lose2	0.6315999999999999	0.0	Yes	2.931	0.019	n/a	GoodResponse	0	n/a	n/a	5	75	Cue	AvoidedLoss	True
708.469	3.95	Lose2	0.6315999999999999	0.0	Yes	2.931	0.0	n/a	GoodResponse	0	n/a	n/a	5	75	Fixation	AvoidedLoss	True
712.417	0.25	Lose2	0.6315999999999999	0.002	Yes	2.931	-0.002	4.0	GoodResponse	0	0.177	711.594	5	75	Target	AvoidedLoss	True
712.594	0.3	Lose2	0.6315999999999999	0.002	Yes	2.931	-0.002	4.0	GoodResponse	0	0.177	n/a	5	75	ButtonPress	AvoidedLoss	True
712.667	0.45	Lose2	0.6315999999999999	n/a	Yes	2.931	n/a	n/a	GoodResponse	0	n/a	n/a	5	75	Blank	AvoidedLoss	True
713.117	1.45	Lose2	0.6315999999999999	n/a	Yes	2.931	n/a	5.0	GoodResponse	0	0.024	712.141	5	75	Feedback	AvoidedLoss	True
714.566	2.931	Lose2	0.6315999999999999	n/a	Yes	2.931	n/a	n/a	GoodResponse	0	0.0	n/a	5	75	ISIslide	AvoidedLoss	True
717.515	0.25	Control	0.6364	0.0	Yes	3.235	0.015	n/a	GoodResponse	0	n/a	n/a	5	76	Cue	Neutral	True
717.765	4.05	Control	0.6364	0.0	Yes	3.235	0.0	n/a	GoodResponse	0	n/a	n/a	5	76	Fixation	Neutral	True
721.814	0.26	Control	0.6364	0.001	Yes	3.235	-0.001	4.0	GoodResponse	0	0.252	721.066	5	76	Target	Neutral	True
722.066	0.3	Control	0.6364	0.001	Yes	3.235	-0.001	4.0	GoodResponse	0	0.252	n/a	5	76	ButtonPress	Neutral	True
722.08	0.44	Control	0.6364	n/a	Yes	3.235	n/a	n/a	GoodResponse	0	n/a	n/a	5	76	Blank	Neutral	True
722.514	1.45	Control	0.6364	n/a	Yes	3.235	n/a	5.0	GoodResponse	0	0.042	721.556	5	76	Feedback	Neutral	True
723.963	3.235	Control	0.6364	n/a	Yes	3.235	n/a	n/a	GoodResponse	0	0.0	n/a	5	76	ISIslide	Neutral	True
727.229	0.25	Lose2	0.6409999999999999	0.0	Yes	2.571	0.029	n/a	GoodResponse	0	n/a	n/a	5	77	Cue	AvoidedLoss	True
727.479	3.95	Lose2	0.6409999999999999	0.0	Yes	2.571	0.0	n/a	GoodResponse	0	n/a	n/a	5	77	Fixation	AvoidedLoss	True
731.427	0.27	Lose2	0.6409999999999999	0.002	Yes	2.571	-0.002	4.0	GoodResponse	0	0.216	730.643	5	77	Target	AvoidedLoss	True
731.643	0.3	Lose2	0.6409999999999999	0.002	Yes	2.571	-0.002	4.0	GoodResponse	0	0.216	n/a	5	77	ButtonPress	AvoidedLoss	True
731.71	0.43	Lose2	0.6409999999999999	n/a	Yes	2.571	n/a	n/a	GoodResponse	0	n/a	n/a	5	77	Blank	AvoidedLoss	True
732.127	1.45	Lose2	0.6409999999999999	n/a	Yes	2.571	n/a	5.0	GoodResponse	0	0.039	731.166	5	77	Feedback	AvoidedLoss	True
733.576	2.571	Lose2	0.6409999999999999	n/a	Yes	2.571	n/a	n/a	GoodResponse	0	0.0	n/a	5	77	ISIslide	AvoidedLoss	True
