onset	duration	cue_type	current_mean_accuracy	duration_error	is_hit	isi_adjusted	onset_delay	response	response_type	reward	rt	rt_time	total_reward	trial_number	trial_phase	trial_type	one_press
11.108	0.25	Control	1.0	0.001	Yes	2.942	0.008	n/a	GoodResponse	0	n/a	n/a	0	0	Cue	Neutral	False
11.358	3.85	Control	1.0	0.0	Yes	2.942	0.0	2.0	GoodResponse	0	0.239	10.597	0	0	Fixation	Neutral	False
11.597	0.3	Control	1.0	0.0	Yes	2.942	0.0	2.0	GoodResponse	0	0.239	n/a	0	0	ButtonPress	Neutral	False
15.207	0.4	Control	1.0	0.001	Yes	2.942	-0.001	2.0	GoodResponse	0	0.257	14.464	0	0	Target	Neutral	False
15.464	0.3	Control	1.0	0.001	Yes	2.942	-0.001	2.0	GoodResponse	0	0.257	n/a	0	0	ButtonPress	Neutral	False
15.607	0.3	Control	1.0	n/a	Yes	2.942	n/a	n/a	GoodResponse	0	n/a	n/a	0	0	Blank	Neutral	False
15.907	1.45	Control	1.0	n/a	Yes	2.942	n/a	5.0	GoodResponse	0	0.018	14.925	0	0	Feedback	Neutral	False
17.356	2.942	Control	1.0	n/a	Yes	2.942	n/a	n/a	GoodResponse	0	0.0	n/a	0	0	ISIslide	Neutral	False
20.322	0.25	Lose2	1.0	0.0	Yes	2.778	0.022	n/a	GoodResponse	0	n/a	n/a	0	1	Cue	AvoidedLoss	True
20.572	4.0	Lose2	1.0	0.0	Yes	2.778	0.0	n/a	GoodResponse	0	n/a	n/a	0	1	Fixation	AvoidedLoss	True
24.57	0.39	Lose2	1.0	0.002	Yes	2.778	-0.002	2.0	GoodResponse	0	0.212	23.782	0	1	Target	AvoidedLoss	True
24.782	0.3	Lose2	1.0	0.002	Yes	2.778	-0.002	2.0	GoodResponse	0	0.212	n/a	0	1	ButtonPress	AvoidedLoss	True
24.97	0.31	Lose2	1.0	n/a	Yes	2.778	n/a	n/a	GoodResponse	0	n/a	n/a	0	1	Blank	AvoidedLoss	True
25.27	1.45	Lose2	1.0	n/a	Yes	2.778	n/a	5.0	GoodResponse	0	0.021	24.291	0	1	Feedback	AvoidedLoss	True
26.72	2.778	Lose2	1.0	n/a	Yes	2.778	n/a	n/a	GoodResponse	0	0.0	n/a	0	1	ISIslide	AvoidedLoss	True
29.519	0.25	Control	1.0	0.0	Yes	2.581	0.019	n/a	GoodResponse	0	n/a	n/a	0	2	Cue	Neutral	True
29.769	4.1	Control	1.0	0.0	Yes	2.581	0.0	n/a	GoodResponse	0	n/a	n/a	0	2	Fixation	Neutral	True
33.867	0.38	Control	1.0	0.002	Yes	2.581	-0.002	2.0	GoodResponse	0	0.204	33.071	0	2	Target	Neutral	True
34.071	0.3	Control	1.0	0.002	Yes	2.581	-0.002	2.0	GoodResponse	0	0.204	n/a	0	2	ButtonPress	Neutral	True
34.25	0.32	Control	1.0	n/a	Yes	2.581	n/a	n/a	GoodResponse	0	n/a	n/a	0	2	Blank	Neutral	True
34.567	1.45	Control	1.0	n/a	Yes	2.581	n/a	5.0	GoodResponse	0	0.042	33.609	0	2	Feedback	Neutral	True
36.016	2.581	Control	1.0	n/a	Yes	2.581	n/a	n/a	GoodResponse	0	0.0	n/a	0	2	ISIslide	Neutral	True
38.632	0.25	Win2	1.0	0.0	Yes	2.818	0.032	n/a	GoodResponse	1	n/a	n/a	1	3	Cue	Win	True
38.882	3.95	Win2	1.0	0.0	Yes	2.818	0.0	n/a	GoodResponse	1	n/a	n/a	1	3	Fixation	Win	True
42.831	0.37	Win2	1.0	0.001	Yes	2.818	-0.001	2.0	GoodResponse	1	0.202	42.033	1	3	Target	Win	True
43.033	0.3	Win2	1.0	0.001	Yes	2.818	-0.001	2.0	GoodResponse	1	0.202	n/a	1	3	ButtonPress	Win	True
43.214	0.33	Win2	1.0	n/a	Yes	2.818	n/a	n/a	GoodResponse	1	n/a	n/a	1	3	Blank	Win	True
43.53	1.45	Win2	1.0	n/a	Yes	2.818	n/a	5.0	GoodResponse	1	0.008	42.538	1	3	Feedback	Win	True
44.98	2.818	Win2	1.0	n/a	Yes	2.818	n/a	n/a	GoodResponse	1	0.0	n/a	1	3	ISIslide	Win	True
47.829	0.25	Win2	1.0	0.0	Yes	3.271	0.029	n/a	GoodResponse	1	n/a	n/a	2	4	Cue	Win	True
48.079	4.0	Win2	1.0	0.0	Yes	3.271	0.0	n/a	GoodResponse	1	n/a	n/a	2	4	Fixation	Win	True
52.077	0.36	Win2	1.0	0.002	Yes	3.271	-0.002	2.0	GoodResponse	1	0.203	51.28	2	4	Target	Win	True
52.28	0.3	Win2	1.0	0.002	Yes	3.271	-0.002	2.0	GoodResponse	1	0.203	n/a	2	4	ButtonPress	Win	True
52.444	0.34	Win2	1.0	n/a	Yes	3.271	n/a	n/a	GoodResponse	1	n/a	n/a	2	4	Blank	Win	True
52.777	1.45	Win2	1.0	n/a	Yes	3.271	n/a	5.0	GoodResponse	1	0.026	51.803	2	4	Feedback	Win	True
54.226	3.271	Win2	1.0	n/a	Yes	3.271	n/a	n/a	GoodResponse	1	0.0	n/a	2	4	ISIslide	Win	True
57.525	0.25	Win2	1.0	0.0	Yes	2.775	0.025	n/a	GoodResponse	1	n/a	n/a	3	5	Cue	Win	True
57.775	4.0	Win2	1.0	0.0	Yes	2.775	0.0	n/a	GoodResponse	1	n/a	n/a	3	5	Fixation	Win	True
61.774	0.35	Win2	1.0	0.001	Yes	2.775	-0.001	2.0	GoodResponse	1	0.219	60.993	3	5	Target	Win	True
61.993	0.3	Win2	1.0	0.001	Yes	2.775	-0.001	2.0	GoodResponse	1	0.219	n/a	3	5	ButtonPress	Win	True
62.124	0.35	Win2	1.0	n/a	Yes	2.775	n/a	n/a	GoodResponse	1	n/a	n/a	3	5	Blank	Win	True
62.474	1.45	Win2	1.0	n/a	Yes	2.775	n/a	5.0	GoodResponse	1	0.036	61.51	3	5	Feedback	Win	True
63.923	2.775	Win2	1.0	n/a	Yes	2.775	n/a	n/a	GoodResponse	1	0.0	n/a	3	5	ISIslide	Win	True
66.722	0.25	Lose2	1.0	0.0	Yes	2.728	0.022	n/a	GoodResponse	0	n/a	n/a	3	6	Cue	AvoidedLoss	True
66.972	3.95	Lose2	1.0	0.0	Yes	2.728	0.0	n/a	GoodResponse	0	n/a	n/a	3	6	Fixation	AvoidedLoss	True
70.921	0.34	Lose2	1.0	0.001	Yes	2.728	-0.001	2.0	GoodResponse	0	0.202	70.123	3	6	Target	AvoidedLoss	True
71.123	0.3	Lose2	1.0	0.001	Yes	2.728	-0.001	2.0	GoodResponse	0	0.202	n/a	3	6	ButtonPress	AvoidedLoss	True
71.27	0.36	Lose2	1.0	n/a	Yes	2.728	n/a	n/a	GoodResponse	0	n/a	n/a	3	6	Blank	AvoidedLoss	True
71.62	1.45	Lose2	1.0	n/a	Yes	2.728	n/a	5.0	GoodResponse	0	0.013	70.633	3	6	Feedback	AvoidedLoss	True
73.07	2.728	Lose2	1.0	n/a	Yes	2.728	n/a	n/a	GoodResponse	0	0.0	n/a	3	6	ISIslide	AvoidedLoss	True
75.819	0.25	Lose2	1.0	0.0	Yes	4.031	0.019	n/a	GoodResponse	0	n/a	n/a	3	7	Cue	AvoidedLoss	True
76.069	4.05	Lose2	1.0	0.0	Yes	4.031	0.0	n/a	GoodResponse	0	n/a	n/a	3	7	Fixation	AvoidedLoss	True
80.117	0.33	Lose2	1.0	0.002	Yes	4.031	-0.002	2.0	GoodResponse	0	0.215	79.332	3	7	Target	AvoidedLoss	True
80.332	0.3	Lose2	1.0	0.002	Yes	4.031	-0.002	2.0	GoodResponse	0	0.215	n/a	3	7	ButtonPress	AvoidedLoss	True
80.45	0.37	Lose2	1.0	n/a	Yes	4.031	n/a	n/a	GoodResponse	0	n/a	n/a	3	7	Blank	AvoidedLoss	True
80.817	1.45	Lose2	1.0	n/a	Yes	4.031	n/a	5.0	GoodResponse	0	0.034	79.851	3	7	Feedback	AvoidedLoss	True
82.266	4.031	Lose2	1.0	n/a	Yes	4.031	n/a	n/a	GoodResponse	0	0.0	n/a	3	7	ISIslide	AvoidedLoss	True
86.315	0.25	Lose2	1.0	0.0	Yes	3.035	0.015	n/a	GoodResponse	0	n/a	n/a	3	8	Cue	AvoidedLoss	True
86.565	3.95	Lose2	1.0	0.0	Yes	3.035	0.0	n/a	GoodResponse	0	n/a	n/a	3	8	Fixation	AvoidedLoss	True
90.514	0.32	Lose2	1.0	0.001	Yes	3.035	-0.001	2.0	GoodResponse	0	0.217	89.731	3	8	Target	AvoidedLoss	True
90.731	0.3	Lose2	1.0	0.001	Yes	3.035	-0.001	2.0	GoodResponse	0	0.217	n/a	3	8	ButtonPress	AvoidedLoss	True
90.847	0.38	Lose2	1.0	n/a	Yes	3.035	n/a	n/a	GoodResponse	0	n/a	n/a	3	8	Blank	AvoidedLoss	True
91.213	1.45	Lose2	1.0	n/a	Yes	3.035	n/a	5.0	GoodResponse	0	0.029	90.242	3	8	Feedback	AvoidedLoss	True
92.663	3.035	Lose2	1.0	n/a	Yes	3.035	n/a	n/a	GoodResponse	0	0.0	n/a	3	8	ISIslide	AvoidedLoss	True
95.728	0.25	Lose2	1.0	0.0	Yes	3.122	0.028	n/a	GoodResponse	0	n/a	n/a	3	9	Cue	AvoidedLoss	True
95.978	3.95	Lose2	1.0	0.0	Yes	3.122	0.0	n/a	GoodResponse	0	n/a	n/a	3	9	Fixation	AvoidedLoss	True
99.927	0.31	Lose2	1.0	0.001	Yes	3.122	-0.001	2.0	GoodResponse	0	0.209	99.136	3	9	Target	AvoidedLoss	True
100.136	0.3	Lose2	1.0	0.001	Yes	3.122	-0.001	2.0	GoodResponse	0	0.209	n/a	3	9	ButtonPress	AvoidedLoss	True
100.243	0.39	Lose2	1.0	n/a	Yes	3.122	n/a	n/a	GoodResponse	0	n/a	n/a	3	9	Blank	AvoidedLoss	True
100.627	1.45	Lose2	1.0	n/a	Yes	3.122	n/a	5.0	GoodResponse	0	0.029	99.656	3	9	Feedback	AvoidedLoss	True
102.076	3.122	Lose2	1.0	n/a	Yes	3.122	n/a	n/a	GoodResponse	0	0.0	n/a	3	9	ISIslide	AvoidedLoss	True
105.225	0.25	Control	1.0	0.0	Yes	3.275	0.025	n/a	GoodResponse	0	n/a	n/a	3	10	Cue	Neutral	True
105.475	4.0	Control	1.0	0.0	Yes	3.275	0.0	n/a	GoodResponse	0	n/a	n/a	3	10	Fixation	Neutral	True
109.473	0.3	Control	1.0	0.002	Yes	3.275	-0.002	2.0	GoodResponse	0	0.237	108.71	3	10	Target	Neutral	True
109.71	0.3	Control	1.0	0.002	Yes	3.275	-0.002	2.0	GoodResponse	0	0.237	n/a	3	10	ButtonPress	Neutral	True
109.773	0.4	Control	1.0	n/a	Yes	3.275	n/a	n/a	GoodResponse	0	n/a	n/a	3	10	Blank	Neutral	True
110.173	1.45	Control	1.0	n/a	Yes	3.275	n/a	5.0	GoodResponse	0	0.044	109.217	3	10	Feedback	Neutral	True
111.623	3.275	Control	1.0	n/a	Yes	3.275	n/a	n/a	GoodResponse	0	0.0	n/a	3	10	ISIslide	Neutral	True
114.922	0.25	Lose2	1.0	0.0	Yes	2.728	0.022	n/a	GoodResponse	0	n/a	n/a	3	11	Cue	AvoidedLoss	True
115.171	4.05	Lose2	1.0	0.001	Yes	2.728	-0.001	n/a	GoodResponse	0	n/a	n/a	3	11	Fixation	AvoidedLoss	True
119.22	0.29	Lose2	1.0	0.002	Yes	2.728	-0.002	2.0	GoodResponse	0	0.227	118.447	3	11	Target	AvoidedLoss	True
119.447	0.3	Lose2	1.0	0.002	Yes	2.728	-0.002	2.0	GoodResponse	0	0.227	n/a	3	11	ButtonPress	AvoidedLoss	True
119.52	0.41	Lose2	1.0	n/a	Yes	2.728	n/a	n/a	GoodResponse	0	n/a	n/a	3	11	Blank	AvoidedLoss	True
119.92	1.45	Lose2	1.0	n/a	Yes	2.728	n/a	5.0	GoodResponse	0	0.008	118.928	3	11	Feedback	AvoidedLoss	True
121.369	2.728	Lose2	1.0	n/a	Yes	2.728	n/a	n/a	GoodResponse	0	0.0	n/a	3	11	ISIslide	AvoidedLoss	True
124.118	0.25	Control	0.9231	0.0	No	2.982	0.018	n/a	NoResponse	0	n/a	n/a	3	12	Cue	Neutral	True
124.368	3.9	Control	0.9231	0.0	No	2.982	0.0	n/a	NoResponse	0	n/a	n/a	3	12	Fixation	Neutral	True
128.267	0.28	Control	0.9231	0.001	No	2.982	-0.001	2.0	NoResponse	0	0.534	127.801	3	12	Target	Neutral	True
128.55	0.42	Control	0.9231	n/a	No	2.982	n/a	n/a	NoResponse	0	n/a	n/a	3	12	Blank	Neutral	True
128.801	0.3	Control	0.9231	0.001	No	2.982	-0.001	2.0	NoResponse	0	0.534	n/a	3	12	ButtonPress	Neutral	True
128.967	1.45	Control	0.9231	n/a	No	2.982	n/a	5.0	NoResponse	0	0.03	127.997	3	12	Feedback	Neutral	True
130.416	2.982	Control	0.9231	n/a	No	2.982	n/a	n/a	NoResponse	0	0.0	n/a	3	12	ISIslide	Neutral	True
133.415	0.25	Control	0.8571	0.0	No	2.785	0.015	n/a	NoResponse	0	n/a	n/a	3	13	Cue	Neutral	True
133.665	4.0	Control	0.8571	0.0	No	2.785	0.0	n/a	NoResponse	0	n/a	n/a	3	13	Fixation	Neutral	True
137.663	0.27	Control	0.8571	0.002	No	2.785	-0.002	2.0	NoResponse	0	0.315	136.978	3	13	Target	Neutral	True
137.947	0.43	Control	0.8571	n/a	No	2.785	n/a	n/a	NoResponse	0	n/a	n/a	3	13	Blank	Neutral	True
137.978	0.3	Control	0.8571	0.002	No	2.785	-0.002	2.0	NoResponse	0	0.315	n/a	3	13	ButtonPress	Neutral	True
138.363	1.45	Control	0.8571	n/a	No	2.785	n/a	5.0	NoResponse	0	0.049	137.412	3	13	Feedback	Neutral	True
139.813	2.785	Control	0.8571	n/a	No	2.785	n/a	n/a	NoResponse	0	0.0	n/a	3	13	ISIslide	Neutral	True
142.628	0.25	Win2	0.8667	0.0	Yes	2.672	0.028	n/a	GoodResponse	1	n/a	n/a	4	14	Cue	Win	True
142.878	4.1	Win2	0.8667	0.0	Yes	2.672	0.0	n/a	GoodResponse	1	n/a	n/a	4	14	Fixation	Win	True
146.977	0.26	Win2	0.8667	0.001	Yes	2.672	-0.001	2.0	GoodResponse	1	0.214	146.191	4	14	Target	Win	True
147.191	0.3	Win2	0.8667	0.001	Yes	2.672	-0.001	2.0	GoodResponse	1	0.214	n/a	4	14	ButtonPress	Win	True
147.243	0.44	Win2	0.8667	n/a	Yes	2.672	n/a	n/a	GoodResponse	1	n/a	n/a	4	14	Blank	Win	True
147.677	1.45	Win2	0.8667	n/a	Yes	2.672	n/a	5.0	GoodResponse	1	0.007	146.684	4	14	Feedback	Win	True
149.126	2.672	Win2	0.8667	n/a	Yes	2.672	n/a	n/a	GoodResponse	1	0.0	n/a	4	14	ISIslide	Win	True
151.825	0.25	Control	0.8125	0.0	No	2.975	0.025	n/a	NoResponse	0	n/a	n/a	4	15	Cue	Neutral	False
152.075	4.0	Control	0.8125	0.0	No	2.975	0.0	n/a	NoResponse	0	n/a	n/a	4	15	Fixation	Neutral	False
156.074	0.25	Control	0.8125	0.001	No	2.975	-0.001	n/a	NoResponse	0	n/a	n/a	4	15	Target	Neutral	False
156.323	0.45	Control	0.8125	n/a	No	2.975	n/a	n/a	NoResponse	0	n/a	n/a	4	15	Blank	Neutral	False
156.773	1.45	Control	0.8125	n/a	No	2.975	n/a	5.0	NoResponse	0	0.028	155.801	4	15	Feedback	Neutral	False
158.223	2.975	Control	0.8125	n/a	No	2.975	n/a	n/a	NoResponse	0	0.0	n/a	4	15	ISIslide	Neutral	False
161.222	0.25	Win2	0.8234999999999999	0.0	Yes	2.878	0.022	n/a	GoodResponse	1	n/a	n/a	5	16	Cue	Win	True
161.472	4.0	Win2	0.8234999999999999	0.0	Yes	2.878	0.0	n/a	GoodResponse	1	n/a	n/a	5	16	Fixation	Win	True
165.47	0.24	Win2	0.8234999999999999	0.002	Yes	2.878	-0.002	2.0	GoodResponse	1	0.211	164.681	5	16	Target	Win	True
165.681	0.3	Win2	0.8234999999999999	0.002	Yes	2.878	-0.002	2.0	GoodResponse	1	0.211	n/a	5	16	ButtonPress	Win	True
165.72	0.46	Win2	0.8234999999999999	n/a	Yes	2.878	n/a	n/a	GoodResponse	1	n/a	n/a	5	16	Blank	Win	True
166.17	1.45	Win2	0.8234999999999999	n/a	Yes	2.878	n/a	5.0	GoodResponse	1	0.046	165.216	5	16	Feedback	Win	True
167.619	2.878	Win2	0.8234999999999999	n/a	Yes	2.878	n/a	n/a	GoodResponse	1	0.0	n/a	5	16	ISIslide	Win	True
170.518	0.25	Lose2	0.8332999999999999	0.001	Yes	2.732	0.018	n/a	GoodResponse	0	n/a	n/a	5	17	Cue	AvoidedLoss	True
170.768	3.95	Lose2	0.8332999999999999	0.0	Yes	2.732	0.0	n/a	GoodResponse	0	n/a	n/a	5	17	Fixation	AvoidedLoss	True
174.717	0.23	Lose2	0.8332999999999999	0.001	Yes	2.732	-0.001	2.0	GoodResponse	0	0.203	173.92	5	17	Target	AvoidedLoss	True
174.92	0.3	Lose2	0.8332999999999999	0.001	Yes	2.732	-0.001	2.0	GoodResponse	0	0.203	n/a	5	17	ButtonPress	AvoidedLoss	True
174.95	0.47	Lose2	0.8332999999999999	n/a	Yes	2.732	n/a	n/a	GoodResponse	0	n/a	n/a	5	17	Blank	AvoidedLoss	True
175.417	1.45	Lose2	0.8332999999999999	n/a	Yes	2.732	n/a	5.0	GoodResponse	0	0.019	174.436	5	17	Feedback	AvoidedLoss	True
176.866	2.732	Lose2	0.8332999999999999	n/a	Yes	2.732	n/a	n/a	GoodResponse	0	0.0	n/a	5	17	ISIslide	AvoidedLoss	True
179.615	0.25	Lose2	0.7895	0.0	No	2.735	0.015	n/a	NoResponse	-1	n/a	n/a	4	18	Cue	Loss	True
179.865	4.05	Lose2	0.7895	0.0	No	2.735	0.0	2.0	NoResponse	-1	3.841	182.706	4	18	Fixation	Loss	True
183.706	0.3	Lose2	0.7895	0.0	No	2.735	0.0	2.0	NoResponse	-1	3.841	n/a	4	18	ButtonPress	Loss	True
183.914	0.22	Lose2	0.7895	0.001	No	2.735	-0.001	n/a	NoResponse	-1	n/a	n/a	4	18	Target	Loss	True
184.147	0.48	Lose2	0.7895	n/a	No	2.735	n/a	n/a	NoResponse	-1	n/a	n/a	4	18	Blank	Loss	True
184.613	1.45	Lose2	0.7895	n/a	No	2.735	n/a	5.0	NoResponse	-1	0.042	183.655	4	18	Feedback	Loss	True
186.063	2.735	Lose2	0.7895	n/a	No	2.735	n/a	n/a	NoResponse	-1	0.0	n/a	4	18	ISIslide	Loss	True
188.829	0.25	Control	0.75	0.0	No	2.921	0.029	n/a	NoResponse	0	n/a	n/a	4	19	Cue	Neutral	True
189.078	3.95	Control	0.75	0.001	No	2.921	-0.001	n/a	NoResponse	0	n/a	n/a	4	19	Fixation	Neutral	True
193.027	0.21	Control	0.75	0.002	No	2.921	-0.002	2.0	NoResponse	0	0.234	192.261	4	19	Target	Neutral	True
193.244	0.49	Control	0.75	n/a	No	2.921	n/a	n/a	NoResponse	0	n/a	n/a	4	19	Blank	Neutral	True
193.261	0.3	Control	0.75	0.002	No	2.921	-0.002	2.0	NoResponse	0	0.234	n/a	4	19	ButtonPress	Neutral	True
193.727	1.45	Control	0.75	n/a	No	2.921	n/a	5.0	NoResponse	0	0.002	192.729	4	19	Feedback	Neutral	True
195.176	2.921	Control	0.75	n/a	No	2.921	n/a	n/a	NoResponse	0	0.0	n/a	4	19	ISIslide	Neutral	True
198.125	0.25	Control	0.7143	0.0	No	2.625	0.025	n/a	NoResponse	0	n/a	n/a	4	20	Cue	Neutral	True
198.375	4.05	Control	0.7143	0.0	No	2.625	0.0	n/a	NoResponse	0	n/a	n/a	4	20	Fixation	Neutral	True
202.424	0.2	Control	0.7143	0.001	No	2.625	-0.001	2.0	NoResponse	0	0.215	201.639	4	20	Target	Neutral	True
202.624	0.5	Control	0.7143	n/a	No	2.625	n/a	n/a	NoResponse	0	n/a	n/a	4	20	Blank	Neutral	True
202.639	0.3	Control	0.7143	0.001	No	2.625	-0.001	2.0	NoResponse	0	0.215	n/a	4	20	ButtonPress	Neutral	True
203.124	1.45	Control	0.7143	n/a	No	2.625	n/a	5.0	NoResponse	0	0.018	202.142	4	20	Feedback	Neutral	True
204.573	2.625	Control	0.7143	n/a	No	2.625	n/a	n/a	NoResponse	0	0.0	n/a	4	20	ISIslide	Neutral	True
207.222	0.25	Control	0.6818000000000001	0.0	No	2.778	0.022	n/a	NoResponse	0	n/a	n/a	4	21	Cue	Neutral	True
207.472	4.1	Control	0.6818000000000001	0.0	No	2.778	0.0	n/a	NoResponse	0	n/a	n/a	4	21	Fixation	Neutral	True
211.571	0.19	Control	0.6818000000000001	0.001	No	2.778	-0.001	2.0	NoResponse	0	0.222	210.793	4	21	Target	Neutral	True
211.77	0.51	Control	0.6818000000000001	n/a	No	2.778	n/a	n/a	NoResponse	0	n/a	n/a	4	21	Blank	Neutral	True
211.793	0.3	Control	0.6818000000000001	0.001	No	2.778	-0.001	2.0	NoResponse	0	0.222	n/a	4	21	ButtonPress	Neutral	True
212.27	1.45	Control	0.6818000000000001	n/a	No	2.778	n/a	5.0	NoResponse	0	0.043	211.313	4	21	Feedback	Neutral	True
213.72	2.778	Control	0.6818000000000001	n/a	No	2.778	n/a	n/a	NoResponse	0	0.0	n/a	4	21	ISIslide	Neutral	True
216.519	0.25	Control	0.6522	0.0	No	2.781	0.019	n/a	NoResponse	0	n/a	n/a	4	22	Cue	Neutral	True
216.769	4.0	Control	0.6522	0.0	No	2.781	0.0	n/a	NoResponse	0	n/a	n/a	4	22	Fixation	Neutral	True
220.767	0.18	Control	0.6522	0.002	No	2.781	-0.002	2.0	NoResponse	0	0.234	220.001	4	22	Target	Neutral	True
220.951	0.52	Control	0.6522	n/a	No	2.781	n/a	n/a	NoResponse	0	n/a	n/a	4	22	Blank	Neutral	True
221.001	0.3	Control	0.6522	0.002	No	2.781	-0.002	2.0	NoResponse	0	0.234	n/a	4	22	ButtonPress	Neutral	True
221.467	1.45	Control	0.6522	n/a	No	2.781	n/a	5.0	NoResponse	0	0.017	220.484	4	22	Feedback	Neutral	True
222.916	2.781	Control	0.6522	n/a	No	2.781	n/a	n/a	NoResponse	0	0.0	n/a	4	22	ISIslide	Neutral	True
225.715	0.25	Control	0.625	0.001	No	2.785	0.015	n/a	NoResponse	0	n/a	n/a	4	23	Cue	Neutral	True
225.965	3.9	Control	0.625	0.0	No	2.785	0.0	n/a	NoResponse	0	n/a	n/a	4	23	Fixation	Neutral	True
229.864	0.19	Control	0.625	0.001	No	2.785	-0.001	2.0	NoResponse	0	0.274	229.138	4	23	Target	Neutral	True
230.064	0.51	Control	0.625	n/a	No	2.785	n/a	n/a	NoResponse	0	n/a	n/a	4	23	Blank	Neutral	True
230.138	0.3	Control	0.625	0.001	No	2.785	-0.001	2.0	NoResponse	0	0.274	n/a	4	23	ButtonPress	Neutral	True
230.564	1.45	Control	0.625	n/a	No	2.785	n/a	5.0	NoResponse	0	0.041	229.605	4	23	Feedback	Neutral	True
232.013	2.785	Control	0.625	n/a	No	2.785	n/a	n/a	NoResponse	0	0.0	n/a	4	23	ISIslide	Neutral	True
234.829	0.25	Win2	0.6	0.0	No	3.121	0.029	n/a	NoResponse	0	n/a	n/a	4	24	Cue	MissedWin	True
235.079	3.95	Win2	0.6	0.0	No	3.121	0.0	n/a	NoResponse	0	n/a	n/a	4	24	Fixation	MissedWin	True
239.027	0.2	Win2	0.6	0.002	No	3.121	-0.002	2.0	NoResponse	0	0.212	238.239	4	24	Target	MissedWin	True
239.227	0.5	Win2	0.6	n/a	No	3.121	n/a	n/a	NoResponse	0	n/a	n/a	4	24	Blank	MissedWin	True
239.239	0.3	Win2	0.6	0.002	No	3.121	-0.002	2.0	NoResponse	0	0.212	n/a	4	24	ButtonPress	MissedWin	True
239.727	1.45	Win2	0.6	n/a	No	3.121	n/a	5.0	NoResponse	0	0.0	238.727	4	24	Feedback	MissedWin	True
241.177	3.121	Win2	0.6	n/a	No	3.121	n/a	n/a	NoResponse	0	0.0	n/a	4	24	ISIslide	MissedWin	True
244.326	0.25	Win2	0.5769	0.0	No	3.074	0.026	n/a	NoResponse	0	n/a	n/a	4	25	Cue	MissedWin	True
244.575	4.0	Win2	0.5769	0.001	No	3.074	-0.001	n/a	NoResponse	0	n/a	n/a	4	25	Fixation	MissedWin	True
248.574	0.21	Win2	0.5769	0.002	No	3.074	-0.002	2.0	NoResponse	0	0.228	247.802	4	25	Target	MissedWin	True
248.791	0.49	Win2	0.5769	n/a	No	3.074	n/a	n/a	NoResponse	0	n/a	n/a	4	25	Blank	MissedWin	True
248.802	0.3	Win2	0.5769	0.002	No	3.074	-0.002	2.0	NoResponse	0	0.228	n/a	4	25	ButtonPress	MissedWin	True
249.274	1.45	Win2	0.5769	n/a	No	3.074	n/a	5.0	NoResponse	0	0.014	248.288	4	25	Feedback	MissedWin	True
250.723	3.074	Win2	0.5769	n/a	No	3.074	n/a	n/a	NoResponse	0	0.0	n/a	4	25	ISIslide	MissedWin	True
253.822	0.25	Win2	0.5556	0.0	No	2.928	0.022	n/a	NoResponse	0	n/a	n/a	4	26	Cue	MissedWin	True
254.072	3.95	Win2	0.5556	0.0	No	2.928	0.0	n/a	NoResponse	0	n/a	n/a	4	26	Fixation	MissedWin	True
258.021	0.22	Win2	0.5556	0.001	No	2.928	-0.001	2.0	NoResponse	0	0.309	257.33	4	26	Target	MissedWin	True
258.254	0.48	Win2	0.5556	n/a	No	2.928	n/a	n/a	NoResponse	0	n/a	n/a	4	26	Blank	MissedWin	True
258.33	0.3	Win2	0.5556	0.001	No	2.928	-0.001	2.0	NoResponse	0	0.309	n/a	4	26	ButtonPress	MissedWin	True
258.72	1.45	Win2	0.5556	n/a	No	2.928	n/a	5.0	NoResponse	0	0.032	257.752	4	26	Feedback	MissedWin	True
260.17	2.928	Win2	0.5556	n/a	No	2.928	n/a	n/a	NoResponse	0	0.0	n/a	4	26	ISIslide	MissedWin	True
263.119	0.25	Lose2	0.5714	0.0	Yes	2.831	0.019	n/a	GoodResponse	0	n/a	n/a	4	27	Cue	AvoidedLoss	True
263.369	4.05	Lose2	0.5714	0.0	Yes	2.831	0.0	n/a	GoodResponse	0	n/a	n/a	4	27	Fixation	AvoidedLoss	True
267.417	0.23	Lose2	0.5714	0.002	Yes	2.831	-0.002	2.0	GoodResponse	0	0.208	266.625	4	27	Target	AvoidedLoss	True
267.625	0.3	Lose2	0.5714	0.002	Yes	2.831	-0.002	2.0	GoodResponse	0	0.208	n/a	4	27	ButtonPress	AvoidedLoss	True
267.651	0.47	Lose2	0.5714	n/a	Yes	2.831	n/a	n/a	GoodResponse	0	n/a	n/a	4	27	Blank	AvoidedLoss	True
268.117	1.45	Lose2	0.5714	n/a	Yes	2.831	n/a	5.0	GoodResponse	0	0.0	267.117	4	27	Feedback	AvoidedLoss	True
269.567	2.831	Lose2	0.5714	n/a	Yes	2.831	n/a	n/a	GoodResponse	0	0.0	n/a	4	27	ISIslide	AvoidedLoss	True
272.416	0.25	Control	0.5861999999999999	0.0	Yes	2.834	0.016	n/a	GoodResponse	0	n/a	n/a	4	28	Cue	Neutral	True
272.665	4.05	Control	0.5861999999999999	0.001	Yes	2.834	-0.001	n/a	GoodResponse	0	n/a	n/a	4	28	Fixation	Neutral	True
276.714	0.24	Control	0.5861999999999999	0.002	Yes	2.834	-0.002	2.0	GoodResponse	0	0.215	275.929	4	28	Target	Neutral	True
276.929	0.3	Control	0.5861999999999999	0.002	Yes	2.834	-0.002	2.0	GoodResponse	0	0.215	n/a	4	28	ButtonPress	Neutral	True
276.964	0.46	Control	0.5861999999999999	n/a	Yes	2.834	n/a	n/a	GoodResponse	0	n/a	n/a	4	28	Blank	Neutral	True
277.414	1.45	Control	0.5861999999999999	n/a	Yes	2.834	n/a	5.0	GoodResponse	0	0.02	276.434	4	28	Feedback	Neutral	True
278.863	2.834	Control	0.5861999999999999	n/a	Yes	2.834	n/a	n/a	GoodResponse	0	0.0	n/a	4	28	ISIslide	Neutral	True
281.729	0.25	Lose2	0.6	0.0	Yes	2.821	0.029	n/a	GoodResponse	0	n/a	n/a	4	29	Cue	AvoidedLoss	True
281.979	3.95	Lose2	0.6	0.0	Yes	2.821	0.0	n/a	GoodResponse	0	n/a	n/a	4	29	Fixation	AvoidedLoss	True
285.927	0.25	Lose2	0.6	0.002	Yes	2.821	-0.002	2.0	GoodResponse	0	0.214	285.141	4	29	Target	AvoidedLoss	True
286.141	0.3	Lose2	0.6	0.002	Yes	2.821	-0.002	2.0	GoodResponse	0	0.214	n/a	4	29	ButtonPress	AvoidedLoss	True
286.177	0.45	Lose2	0.6	n/a	Yes	2.821	n/a	n/a	GoodResponse	0	n/a	n/a	4	29	Blank	AvoidedLoss	True
286.627	1.45	Lose2	0.6	n/a	Yes	2.821	n/a	5.0	GoodResponse	0	0.027	285.654	4	29	Feedback	AvoidedLoss	True
288.077	2.821	Lose2	0.6	n/a	Yes	2.821	n/a	n/a	GoodResponse	0	0.0	n/a	4	29	ISIslide	AvoidedLoss	True
290.926	0.25	Win2	0.5806	0.0	No	2.774	0.026	n/a	NoResponse	0	n/a	n/a	4	30	Cue	MissedWin	True
291.176	3.9	Win2	0.5806	0.0	No	2.774	0.0	n/a	NoResponse	0	n/a	n/a	4	30	Fixation	MissedWin	True
295.074	0.26	Win2	0.5806	0.002	No	2.774	-0.002	2.0	NoResponse	0	0.278	294.352	4	30	Target	MissedWin	True
295.341	0.44	Win2	0.5806	n/a	No	2.774	n/a	n/a	NoResponse	0	n/a	n/a	4	30	Blank	MissedWin	True
295.352	0.3	Win2	0.5806	0.002	No	2.774	-0.002	2.0	NoResponse	0	0.278	n/a	4	30	ButtonPress	MissedWin	True
295.774	1.45	Win2	0.5806	n/a	No	2.774	n/a	5.0	NoResponse	0	0.002	294.776	4	30	Feedback	MissedWin	True
297.223	2.774	Win2	0.5806	n/a	No	2.774	n/a	n/a	NoResponse	0	0.0	n/a	4	30	ISIslide	MissedWin	True
300.022	0.25	Lose2	0.5938	0.0	Yes	2.828	0.022	n/a	GoodResponse	0	n/a	n/a	4	31	Cue	AvoidedLoss	True
300.272	4.05	Lose2	0.5938	0.0	Yes	2.828	0.0	n/a	GoodResponse	0	n/a	n/a	4	31	Fixation	AvoidedLoss	True
304.321	0.27	Lose2	0.5938	0.001	Yes	2.828	-0.001	2.0	GoodResponse	0	0.247	303.568	4	31	Target	AvoidedLoss	True
304.568	0.3	Lose2	0.5938	0.001	Yes	2.828	-0.001	2.0	GoodResponse	0	0.247	n/a	4	31	ButtonPress	AvoidedLoss	True
304.587	0.43	Lose2	0.5938	n/a	Yes	2.828	n/a	n/a	GoodResponse	0	n/a	n/a	4	31	Blank	AvoidedLoss	True
305.021	1.45	Lose2	0.5938	n/a	Yes	2.828	n/a	5.0	GoodResponse	0	0.023	304.044	4	31	Feedback	AvoidedLoss	True
306.47	2.828	Lose2	0.5938	n/a	Yes	2.828	n/a	n/a	GoodResponse	0	0.0	n/a	4	31	ISIslide	AvoidedLoss	True
309.319	0.25	Lose2	0.6061	0.0	Yes	2.631	0.019	n/a	GoodResponse	0	n/a	n/a	4	32	Cue	AvoidedLoss	True
309.569	4.15	Lose2	0.6061	0.0	Yes	2.631	0.0	n/a	GoodResponse	0	n/a	n/a	4	32	Fixation	AvoidedLoss	True
313.718	0.28	Lose2	0.6061	0.001	Yes	2.631	-0.001	2.0	GoodResponse	0	0.277	312.995	4	32	Target	AvoidedLoss	True
313.995	0.3	Lose2	0.6061	0.001	Yes	2.631	-0.001	2.0	GoodResponse	0	0.277	n/a	4	32	ButtonPress	AvoidedLoss	True
314.001	0.42	Lose2	0.6061	n/a	Yes	2.631	n/a	n/a	GoodResponse	0	n/a	n/a	4	32	Blank	AvoidedLoss	True
314.417	1.45	Lose2	0.6061	n/a	Yes	2.631	n/a	5.0	GoodResponse	0	0.041	313.458	4	32	Feedback	AvoidedLoss	True
315.867	2.631	Lose2	0.6061	n/a	Yes	2.631	n/a	n/a	GoodResponse	0	0.0	n/a	4	32	ISIslide	AvoidedLoss	True
318.516	0.25	Win2	0.6175999999999999	0.0	Yes	2.684	0.016	n/a	GoodResponse	1	n/a	n/a	5	33	Cue	Win	True
318.766	4.0	Win2	0.6175999999999999	0.0	Yes	2.684	0.0	n/a	GoodResponse	1	n/a	n/a	5	33	Fixation	Win	True
322.764	0.29	Win2	0.6175999999999999	0.002	Yes	2.684	-0.002	2.0	GoodResponse	1	0.23	321.994	5	33	Target	Win	True
322.994	0.3	Win2	0.6175999999999999	0.002	Yes	2.684	-0.002	2.0	GoodResponse	1	0.23	n/a	5	33	ButtonPress	Win	True
323.064	0.41	Win2	0.6175999999999999	n/a	Yes	2.684	n/a	n/a	GoodResponse	1	n/a	n/a	5	33	Blank	Win	True
323.464	1.45	Win2	0.6175999999999999	n/a	Yes	2.684	n/a	5.0	GoodResponse	1	0.018	322.482	5	33	Feedback	Win	True
324.914	2.684	Win2	0.6175999999999999	n/a	Yes	2.684	n/a	n/a	GoodResponse	1	0.0	n/a	5	33	ISIslide	Win	True
327.629	0.25	Lose2	0.6286	0.0	Yes	2.621	0.029	n/a	GoodResponse	0	n/a	n/a	5	34	Cue	AvoidedLoss	True
327.879	4.05	Lose2	0.6286	0.0	Yes	2.621	0.0	n/a	GoodResponse	0	n/a	n/a	5	34	Fixation	AvoidedLoss	True
331.928	0.3	Lose2	0.6286	0.001	Yes	2.621	-0.001	2.0	GoodResponse	0	0.238	331.166	5	34	Target	AvoidedLoss	True
332.166	0.3	Lose2	0.6286	0.001	Yes	2.621	-0.001	2.0	GoodResponse	0	0.238	n/a	5	34	ButtonPress	AvoidedLoss	True
332.228	0.4	Lose2	0.6286	n/a	Yes	2.621	n/a	n/a	GoodResponse	0	n/a	n/a	5	34	Blank	AvoidedLoss	True
332.627	1.45	Lose2	0.6286	n/a	Yes	2.621	n/a	5.0	GoodResponse	0	0.026	331.653	5	34	Feedback	AvoidedLoss	True
334.077	2.621	Lose2	0.6286	n/a	Yes	2.621	n/a	n/a	GoodResponse	0	0.0	n/a	5	34	ISIslide	AvoidedLoss	True
336.726	0.25	Lose2	0.6389	0.0	Yes	2.674	0.026	n/a	GoodResponse	0	n/a	n/a	5	35	Cue	AvoidedLoss	True
336.976	4.0	Lose2	0.6389	0.0	Yes	2.674	0.0	n/a	GoodResponse	0	n/a	n/a	5	35	Fixation	AvoidedLoss	True
340.974	0.31	Lose2	0.6389	0.002	Yes	2.674	-0.002	2.0	GoodResponse	0	0.279	340.253	5	35	Target	AvoidedLoss	True
341.253	0.3	Lose2	0.6389	0.002	Yes	2.674	-0.002	2.0	GoodResponse	0	0.279	n/a	5	35	ButtonPress	AvoidedLoss	True
341.291	0.39	Lose2	0.6389	n/a	Yes	2.674	n/a	n/a	GoodResponse	0	n/a	n/a	5	35	Blank	AvoidedLoss	True
341.674	1.45	Lose2	0.6389	n/a	Yes	2.674	n/a	5.0	GoodResponse	0	0.007	340.681	5	35	Feedback	AvoidedLoss	True
343.124	2.674	Lose2	0.6389	n/a	Yes	2.674	n/a	n/a	GoodResponse	0	0.0	n/a	5	35	ISIslide	AvoidedLoss	True
345.823	0.25	Control	0.6486	0.0	Yes	2.677	0.023	n/a	GoodResponse	0	n/a	n/a	5	36	Cue	Neutral	True
346.073	4.0	Control	0.6486	0.0	Yes	2.677	0.0	n/a	GoodResponse	0	n/a	n/a	5	36	Fixation	Neutral	True
350.071	0.32	Control	0.6486	0.002	Yes	2.677	-0.002	2.0	GoodResponse	0	0.255	349.326	5	36	Target	Neutral	True
350.326	0.3	Control	0.6486	0.002	Yes	2.677	-0.002	2.0	GoodResponse	0	0.255	n/a	5	36	ButtonPress	Neutral	True
350.404	0.38	Control	0.6486	n/a	Yes	2.677	n/a	n/a	GoodResponse	0	n/a	n/a	5	36	Blank	Neutral	True
350.771	1.45	Control	0.6486	n/a	Yes	2.677	n/a	5.0	GoodResponse	0	0.028	349.799	5	36	Feedback	Neutral	True
352.22	2.677	Control	0.6486	n/a	Yes	2.677	n/a	n/a	GoodResponse	0	0.0	n/a	5	36	ISIslide	Neutral	True
354.92	0.25	Win2	0.6579	0.0	Yes	2.88	0.02	n/a	GoodResponse	1	n/a	n/a	6	37	Cue	Win	True
355.169	4.0	Win2	0.6579	0.001	Yes	2.88	-0.001	n/a	GoodResponse	1	n/a	n/a	6	37	Fixation	Win	True
359.168	0.33	Win2	0.6579	0.002	Yes	2.88	-0.002	2.0	GoodResponse	1	0.264	358.432	6	37	Target	Win	True
359.432	0.3	Win2	0.6579	0.002	Yes	2.88	-0.002	2.0	GoodResponse	1	0.264	n/a	6	37	ButtonPress	Win	True
359.501	0.37	Win2	0.6579	n/a	Yes	2.88	n/a	n/a	GoodResponse	1	n/a	n/a	6	37	Blank	Win	True
359.868	1.45	Win2	0.6579	n/a	Yes	2.88	n/a	5.0	GoodResponse	1	0.008	358.876	6	37	Feedback	Win	True
361.317	2.88	Win2	0.6579	n/a	Yes	2.88	n/a	n/a	GoodResponse	1	0.0	n/a	6	37	ISIslide	Win	True
364.216	0.25	Lose2	0.6667000000000001	0.0	Yes	2.834	0.016	n/a	GoodResponse	0	n/a	n/a	6	38	Cue	AvoidedLoss	True
364.466	3.95	Lose2	0.6667000000000001	0.0	Yes	2.834	0.0	n/a	GoodResponse	0	n/a	n/a	6	38	Fixation	AvoidedLoss	True
368.415	0.33	Lose2	0.6667000000000001	0.001	Yes	2.834	-0.001	2.0	GoodResponse	0	0.242	367.657	6	38	Target	AvoidedLoss	True
368.657	0.3	Lose2	0.6667000000000001	0.001	Yes	2.834	-0.001	2.0	GoodResponse	0	0.242	n/a	6	38	ButtonPress	AvoidedLoss	True
368.748	0.37	Lose2	0.6667000000000001	n/a	Yes	2.834	n/a	n/a	GoodResponse	0	n/a	n/a	6	38	Blank	AvoidedLoss	True
369.114	1.45	Lose2	0.6667000000000001	n/a	Yes	2.834	n/a	5.0	GoodResponse	0	0.026	368.14	6	38	Feedback	AvoidedLoss	True
370.564	2.834	Lose2	0.6667000000000001	n/a	Yes	2.834	n/a	n/a	GoodResponse	0	0.0	n/a	6	38	ISIslide	AvoidedLoss	True
373.43	0.25	Win2	0.675	0.0	Yes	2.97	0.03	n/a	GoodResponse	1	n/a	n/a	7	39	Cue	Win	True
373.68	4.1	Win2	0.675	0.0	Yes	2.97	0.0	n/a	GoodResponse	1	n/a	n/a	7	39	Fixation	Win	True
377.778	0.32	Win2	0.675	0.002	Yes	2.97	-0.002	2.0	GoodResponse	1	0.24	377.018	7	39	Target	Win	True
378.018	0.3	Win2	0.675	0.002	Yes	2.97	-0.002	2.0	GoodResponse	1	0.24	n/a	7	39	ButtonPress	Win	True
378.111	0.38	Win2	0.675	n/a	Yes	2.97	n/a	n/a	GoodResponse	1	n/a	n/a	7	39	Blank	Win	True
378.478	1.45	Win2	0.675	n/a	Yes	2.97	n/a	5.0	GoodResponse	1	0.028	377.506	7	39	Feedback	Win	True
379.927	2.97	Win2	0.675	n/a	Yes	2.97	n/a	n/a	GoodResponse	1	0.0	n/a	7	39	ISIslide	Win	True
382.926	0.25	Win2	0.6829000000000001	0.0	Yes	2.724	0.026	n/a	GoodResponse	1	n/a	n/a	8	40	Cue	Win	True
383.176	3.95	Win2	0.6829000000000001	0.0	Yes	2.724	0.0	n/a	GoodResponse	1	n/a	n/a	8	40	Fixation	Win	True
387.125	0.31	Win2	0.6829000000000001	0.001	Yes	2.724	-0.001	2.0	GoodResponse	1	0.226	386.351	8	40	Target	Win	True
387.351	0.3	Win2	0.6829000000000001	0.001	Yes	2.724	-0.001	2.0	GoodResponse	1	0.226	n/a	8	40	ButtonPress	Win	True
387.441	0.39	Win2	0.6829000000000001	n/a	Yes	2.724	n/a	n/a	GoodResponse	1	n/a	n/a	8	40	Blank	Win	True
387.824	1.45	Win2	0.6829000000000001	n/a	Yes	2.724	n/a	5.0	GoodResponse	1	0.047	386.871	8	40	Feedback	Win	True
389.274	2.724	Win2	0.6829000000000001	n/a	Yes	2.724	n/a	n/a	GoodResponse	1	0.0	n/a	8	40	ISIslide	Win	True
392.023	0.25	Win2	0.6667000000000001	0.0	No	2.777	0.023	n/a	NoResponse	0	n/a	n/a	8	41	Cue	MissedWin	False
392.273	3.9	Win2	0.6667000000000001	0.0	No	2.777	0.0	n/a	NoResponse	0	n/a	n/a	8	41	Fixation	MissedWin	False
396.172	0.3	Win2	0.6667000000000001	0.001	No	2.777	-0.001	n/a	NoResponse	0	n/a	n/a	8	41	Target	MissedWin	False
396.471	0.4	Win2	0.6667000000000001	n/a	No	2.777	n/a	n/a	NoResponse	0	n/a	n/a	8	41	Blank	MissedWin	False
396.871	1.45	Win2	0.6667000000000001	n/a	No	2.777	n/a	5.0	NoResponse	0	0.025	395.896	8	41	Feedback	MissedWin	False
398.321	2.777	Win2	0.6667000000000001	n/a	No	2.777	n/a	n/a	NoResponse	0	0.0	n/a	8	41	ISIslide	MissedWin	False
401.12	0.25	Control	0.6512	0.0	No	2.93	0.02	n/a	LatePress	0	n/a	n/a	8	42	Cue	Neutral	True
401.37	3.85	Control	0.6512	0.0	No	2.93	0.0	n/a	LatePress	0	n/a	n/a	8	42	Fixation	Neutral	True
405.218	0.29	Control	0.6512	0.002	No	2.93	-0.002	2.0	LatePress	0	0.292	404.51	8	42	Target	Neutral	True
405.51	0.3	Control	0.6512	0.002	No	2.93	-0.002	2.0	LatePress	0	0.292	n/a	8	42	ButtonPress	Neutral	True
405.518	0.41	Control	0.6512	n/a	No	2.93	n/a	n/a	LatePress	0	n/a	n/a	8	42	Blank	Neutral	True
405.918	1.45	Control	0.6512	n/a	No	2.93	n/a	5.0	LatePress	0	0.002	404.92	8	42	Feedback	Neutral	True
407.368	2.93	Control	0.6512	n/a	No	2.93	n/a	n/a	LatePress	0	0.0	n/a	8	42	ISIslide	Neutral	True
410.316	0.25	Win2	0.6591	0.001	Yes	3.184	0.016	n/a	GoodResponse	1	n/a	n/a	9	43	Cue	Win	True
410.566	4.0	Win2	0.6591	0.0	Yes	3.184	0.0	n/a	GoodResponse	1	n/a	n/a	9	43	Fixation	Win	True
414.565	0.3	Win2	0.6591	0.001	Yes	3.184	-0.001	2.0	GoodResponse	1	0.238	413.803	9	43	Target	Win	True
414.803	0.3	Win2	0.6591	0.001	Yes	3.184	-0.001	2.0	GoodResponse	1	0.238	n/a	9	43	ButtonPress	Win	True
414.865	0.4	Win2	0.6591	n/a	Yes	3.184	n/a	n/a	GoodResponse	1	n/a	n/a	9	43	Blank	Win	True
415.265	1.45	Win2	0.6591	n/a	Yes	3.184	n/a	5.0	GoodResponse	1	0.021	414.286	9	43	Feedback	Win	True
416.714	3.184	Win2	0.6591	n/a	Yes	3.184	n/a	n/a	GoodResponse	1	0.0	n/a	9	43	ISIslide	Win	True
419.913	0.25	Win2	0.6667000000000001	0.0	Yes	2.987	0.013	n/a	GoodResponse	1	n/a	n/a	10	44	Cue	Win	True
420.163	4.0	Win2	0.6667000000000001	0.0	Yes	2.987	0.0	n/a	GoodResponse	1	n/a	n/a	10	44	Fixation	Win	True
424.162	0.3	Win2	0.6667000000000001	0.001	Yes	2.987	-0.001	2.0	GoodResponse	1	0.226	423.388	10	44	Target	Win	True
424.388	0.3	Win2	0.6667000000000001	0.001	Yes	2.987	-0.001	2.0	GoodResponse	1	0.226	n/a	10	44	ButtonPress	Win	True
424.461	0.4	Win2	0.6667000000000001	n/a	Yes	2.987	n/a	n/a	GoodResponse	1	n/a	n/a	10	44	Blank	Win	True
424.861	1.45	Win2	0.6667000000000001	n/a	Yes	2.987	n/a	5.0	GoodResponse	1	0.034	423.895	10	44	Feedback	Win	True
426.311	2.987	Win2	0.6667000000000001	n/a	Yes	2.987	n/a	n/a	GoodResponse	1	0.0	n/a	10	44	ISIslide	Win	True
429.326	0.25	Control	0.6739	0.0	Yes	2.874	0.026	n/a	GoodResponse	0	n/a	n/a	10	45	Cue	Neutral	True
429.576	4.1	Control	0.6739	0.0	Yes	2.874	0.0	n/a	GoodResponse	0	n/a	n/a	10	45	Fixation	Neutral	True
433.675	0.29	Control	0.6739	0.001	Yes	2.874	-0.001	2.0	GoodResponse	0	0.237	432.912	10	45	Target	Neutral	True
433.912	0.3	Control	0.6739	0.001	Yes	2.874	-0.001	2.0	GoodResponse	0	0.237	n/a	10	45	ButtonPress	Neutral	True
433.975	0.41	Control	0.6739	n/a	Yes	2.874	n/a	n/a	GoodResponse	0	n/a	n/a	10	45	Blank	Neutral	True
434.375	1.45	Control	0.6739	n/a	Yes	2.874	n/a	5.0	GoodResponse	0	0.033	433.408	10	45	Feedback	Neutral	True
435.824	2.874	Control	0.6739	n/a	Yes	2.874	n/a	n/a	GoodResponse	0	0.0	n/a	10	45	ISIslide	Neutral	True
438.723	0.25	Lose2	0.6809000000000001	0.0	Yes	3.377	0.023	n/a	GoodResponse	0	n/a	n/a	10	46	Cue	AvoidedLoss	True
438.973	4.0	Lose2	0.6809000000000001	0.0	Yes	3.377	0.0	n/a	GoodResponse	0	n/a	n/a	10	46	Fixation	AvoidedLoss	True
442.972	0.28	Lose2	0.6809000000000001	0.001	Yes	3.377	-0.001	2.0	GoodResponse	0	0.229	442.201	10	46	Target	AvoidedLoss	True
443.201	0.3	Lose2	0.6809000000000001	0.001	Yes	3.377	-0.001	2.0	GoodResponse	0	0.229	n/a	10	46	ButtonPress	AvoidedLoss	True
443.255	0.42	Lose2	0.6809000000000001	n/a	Yes	3.377	n/a	n/a	GoodResponse	0	n/a	n/a	10	46	Blank	AvoidedLoss	True
443.671	1.45	Lose2	0.6809000000000001	n/a	Yes	3.377	n/a	5.0	GoodResponse	0	0.006	442.677	10	46	Feedback	AvoidedLoss	True
445.121	3.377	Lose2	0.6809000000000001	n/a	Yes	3.377	n/a	n/a	GoodResponse	0	0.0	n/a	10	46	ISIslide	AvoidedLoss	True
448.52	0.25	Lose2	0.6875	0.0	Yes	2.68	0.02	n/a	GoodResponse	0	n/a	n/a	10	47	Cue	AvoidedLoss	True
448.769	4.0	Lose2	0.6875	0.001	Yes	2.68	-0.001	n/a	GoodResponse	0	n/a	n/a	10	47	Fixation	AvoidedLoss	True
452.768	0.27	Lose2	0.6875	0.002	Yes	2.68	-0.002	2.0	GoodResponse	0	0.226	451.994	10	47	Target	AvoidedLoss	True
452.994	0.3	Lose2	0.6875	0.002	Yes	2.68	-0.002	2.0	GoodResponse	0	0.226	n/a	10	47	ButtonPress	AvoidedLoss	True
453.051	0.43	Lose2	0.6875	n/a	Yes	2.68	n/a	n/a	GoodResponse	0	n/a	n/a	10	47	Blank	AvoidedLoss	True
453.468	1.45	Lose2	0.6875	n/a	Yes	2.68	n/a	5.0	GoodResponse	0	0.013	452.481	10	47	Feedback	AvoidedLoss	True
454.917	2.68	Lose2	0.6875	n/a	Yes	2.68	n/a	n/a	GoodResponse	0	0.0	n/a	10	47	ISIslide	AvoidedLoss	True
457.616	0.25	Lose2	0.6939	0.0	Yes	3.034	0.016	n/a	GoodResponse	0	n/a	n/a	10	48	Cue	AvoidedLoss	True
457.866	3.95	Lose2	0.6939	0.0	Yes	3.034	0.0	n/a	GoodResponse	0	n/a	n/a	10	48	Fixation	AvoidedLoss	True
461.815	0.26	Lose2	0.6939	0.001	Yes	3.034	-0.001	2.0	GoodResponse	0	0.216	461.031	10	48	Target	AvoidedLoss	True
462.031	0.3	Lose2	0.6939	0.001	Yes	3.034	-0.001	2.0	GoodResponse	0	0.216	n/a	10	48	ButtonPress	AvoidedLoss	True
462.081	0.44	Lose2	0.6939	n/a	Yes	3.034	n/a	n/a	GoodResponse	0	n/a	n/a	10	48	Blank	AvoidedLoss	True
462.515	1.45	Lose2	0.6939	n/a	Yes	3.034	n/a	5.0	GoodResponse	0	0.038	461.553	10	48	Feedback	AvoidedLoss	True
463.964	3.034	Lose2	0.6939	n/a	Yes	3.034	n/a	n/a	GoodResponse	0	0.0	n/a	10	48	ISIslide	AvoidedLoss	True
467.013	0.25	Control	0.7	0.0	Yes	2.887	0.013	n/a	GoodResponse	0	n/a	n/a	10	49	Cue	Neutral	True
467.263	4.0	Control	0.7	0.0	Yes	2.887	0.0	n/a	GoodResponse	0	n/a	n/a	10	49	Fixation	Neutral	True
471.261	0.25	Control	0.7	0.002	Yes	2.887	-0.002	2.0	GoodResponse	0	0.247	470.508	10	49	Target	Neutral	True
471.508	0.3	Control	0.7	0.002	Yes	2.887	-0.002	2.0	GoodResponse	0	0.247	n/a	10	49	ButtonPress	Neutral	True
471.511	0.45	Control	0.7	n/a	Yes	2.887	n/a	n/a	GoodResponse	0	n/a	n/a	10	49	Blank	Neutral	True
471.961	1.45	Control	0.7	n/a	Yes	2.887	n/a	5.0	GoodResponse	0	0.007	470.968	10	49	Feedback	Neutral	True
473.411	2.887	Control	0.7	n/a	Yes	2.887	n/a	n/a	GoodResponse	0	0.0	n/a	10	49	ISIslide	Neutral	True
476.326	0.25	Control	0.7059000000000001	0.0	Yes	2.774	0.026	n/a	GoodResponse	0	n/a	n/a	10	50	Cue	Neutral	True
476.576	4.0	Control	0.7059000000000001	0.0	Yes	2.774	0.0	n/a	GoodResponse	0	n/a	n/a	10	50	Fixation	Neutral	True
480.575	0.24	Control	0.7059000000000001	0.001	Yes	2.774	-0.001	2.0	GoodResponse	0	0.231	479.806	10	50	Target	Neutral	True
480.806	0.3	Control	0.7059000000000001	0.001	Yes	2.774	-0.001	2.0	GoodResponse	0	0.231	n/a	10	50	ButtonPress	Neutral	True
480.825	0.46	Control	0.7059000000000001	n/a	Yes	2.774	n/a	n/a	GoodResponse	0	n/a	n/a	10	50	Blank	Neutral	True
481.275	1.45	Control	0.7059000000000001	n/a	Yes	2.774	n/a	5.0	GoodResponse	0	0.01	480.285	10	50	Feedback	Neutral	True
482.724	2.774	Control	0.7059000000000001	n/a	Yes	2.774	n/a	n/a	GoodResponse	0	0.0	n/a	10	50	ISIslide	Neutral	True
485.523	0.25	Control	0.6923	0.0	No	2.727	0.023	n/a	NoResponse	0	n/a	n/a	10	51	Cue	Neutral	False
485.773	3.95	Control	0.6923	0.0	No	2.727	0.0	n/a	NoResponse	0	n/a	n/a	10	51	Fixation	Neutral	False
489.722	0.23	Control	0.6923	0.001	No	2.727	-0.001	n/a	NoResponse	0	n/a	n/a	10	51	Target	Neutral	False
489.955	0.47	Control	0.6923	n/a	No	2.727	n/a	n/a	NoResponse	0	n/a	n/a	10	51	Blank	Neutral	False
490.421	1.45	Control	0.6923	n/a	No	2.727	n/a	5.0	NoResponse	0	0.035	489.456	10	51	Feedback	Neutral	False
491.871	2.727	Control	0.6923	n/a	No	2.727	n/a	n/a	NoResponse	0	0.0	n/a	10	51	ISIslide	Neutral	False
494.62	0.25	Control	0.6981	0.0	Yes	2.63	0.02	n/a	GoodResponse	0	n/a	n/a	10	52	Cue	Neutral	True
494.87	4.05	Control	0.6981	0.0	Yes	2.63	0.0	n/a	GoodResponse	0	n/a	n/a	10	52	Fixation	Neutral	True
498.918	0.22	Control	0.6981	0.002	Yes	2.63	-0.002	2.0	GoodResponse	0	0.215	498.133	10	52	Target	Neutral	True
499.133	0.3	Control	0.6981	0.002	Yes	2.63	-0.002	2.0	GoodResponse	0	0.215	n/a	10	52	ButtonPress	Neutral	True
499.152	0.48	Control	0.6981	n/a	Yes	2.63	n/a	n/a	GoodResponse	0	n/a	n/a	10	52	Blank	Neutral	True
499.618	1.45	Control	0.6981	n/a	Yes	2.63	n/a	5.0	GoodResponse	0	0.008	498.626	10	52	Feedback	Neutral	True
501.068	2.63	Control	0.6981	n/a	Yes	2.63	n/a	n/a	GoodResponse	0	0.0	n/a	10	52	ISIslide	Neutral	True
503.717	0.25	Win2	0.6851999999999999	0.0	No	2.933	0.017	n/a	NoResponse	0	n/a	n/a	10	53	Cue	MissedWin	True
503.966	4.05	Win2	0.6851999999999999	0.001	No	2.933	-0.001	n/a	NoResponse	0	n/a	n/a	10	53	Fixation	MissedWin	True
508.015	0.21	Win2	0.6851999999999999	0.002	No	2.933	-0.002	2.0	NoResponse	0	0.224	507.239	10	53	Target	MissedWin	True
508.232	0.49	Win2	0.6851999999999999	n/a	No	2.933	n/a	n/a	NoResponse	0	n/a	n/a	10	53	Blank	MissedWin	True
508.239	0.3	Win2	0.6851999999999999	0.002	No	2.933	-0.002	2.0	NoResponse	0	0.224	n/a	10	53	ButtonPress	MissedWin	True
508.715	1.45	Win2	0.6851999999999999	n/a	No	2.933	n/a	5.0	NoResponse	0	0.033	507.748	10	53	Feedback	MissedWin	True
510.164	2.933	Win2	0.6851999999999999	n/a	No	2.933	n/a	n/a	NoResponse	0	0.0	n/a	10	53	ISIslide	MissedWin	True
513.113	0.25	Win2	0.6727	0.0	No	2.737	0.013	n/a	NoResponse	0	n/a	n/a	10	54	Cue	MissedWin	True
513.363	3.95	Win2	0.6727	0.0	No	2.737	0.0	n/a	NoResponse	0	n/a	n/a	10	54	Fixation	MissedWin	True
517.312	0.2	Win2	0.6727	0.001	No	2.737	-0.001	2.0	NoResponse	0	0.283	516.595	10	54	Target	MissedWin	True
517.512	0.5	Win2	0.6727	n/a	No	2.737	n/a	n/a	NoResponse	0	n/a	n/a	10	54	Blank	MissedWin	True
517.595	0.3	Win2	0.6727	0.001	No	2.737	-0.001	2.0	NoResponse	0	0.283	n/a	10	54	ButtonPress	MissedWin	True
518.012	1.45	Win2	0.6727	n/a	No	2.737	n/a	5.0	NoResponse	0	0.004	517.016	10	54	Feedback	MissedWin	True
519.461	2.737	Win2	0.6727	n/a	No	2.737	n/a	n/a	NoResponse	0	0.0	n/a	10	54	ISIslide	MissedWin	True
522.227	0.25	Control	0.6607	0.0	No	3.023	0.027	n/a	NoResponse	0	n/a	n/a	10	55	Cue	Neutral	True
522.477	3.95	Control	0.6607	0.0	No	3.023	0.0	n/a	NoResponse	0	n/a	n/a	10	55	Fixation	Neutral	True
526.425	0.19	Control	0.6607	0.002	No	3.023	-0.002	2.0	NoResponse	0	0.282	525.707	10	55	Target	Neutral	True
526.625	0.51	Control	0.6607	n/a	No	3.023	n/a	n/a	NoResponse	0	n/a	n/a	10	55	Blank	Neutral	True
526.707	0.3	Control	0.6607	0.002	No	3.023	-0.002	2.0	NoResponse	0	0.282	n/a	10	55	ButtonPress	Neutral	True
527.125	1.45	Control	0.6607	n/a	No	3.023	n/a	5.0	NoResponse	0	0.013	526.138	10	55	Feedback	Neutral	True
528.574	3.023	Control	0.6607	n/a	No	3.023	n/a	n/a	NoResponse	0	0.0	n/a	10	55	ISIslide	Neutral	True
531.623	0.25	Control	0.6491	0.0	No	2.827	0.023	n/a	NoResponse	0	n/a	n/a	10	56	Cue	Neutral	True
531.873	3.95	Control	0.6491	0.0	No	2.827	0.0	n/a	NoResponse	0	n/a	n/a	10	56	Fixation	Neutral	True
535.822	0.19	Control	0.6491	0.001	No	2.827	-0.001	2.0	NoResponse	0	0.327	535.149	10	56	Target	Neutral	True
536.022	0.51	Control	0.6491	n/a	No	2.827	n/a	n/a	NoResponse	0	n/a	n/a	10	56	Blank	Neutral	True
536.149	0.3	Control	0.6491	0.001	No	2.827	-0.001	2.0	NoResponse	0	0.327	n/a	10	56	ButtonPress	Neutral	True
536.522	1.45	Control	0.6491	n/a	No	2.827	n/a	5.0	NoResponse	0	0.03	535.552	10	56	Feedback	Neutral	True
537.971	2.827	Control	0.6491	n/a	No	2.827	n/a	n/a	NoResponse	0	0.0	n/a	10	56	ISIslide	Neutral	True
540.82	0.25	Control	0.6379	0.0	No	3.48	0.02	n/a	NoResponse	0	n/a	n/a	10	57	Cue	Neutral	True
541.07	4.0	Control	0.6379	0.0	No	3.48	0.0	n/a	NoResponse	0	n/a	n/a	10	57	Fixation	Neutral	True
545.069	0.2	Control	0.6379	0.001	No	3.48	-0.001	2.0	NoResponse	0	0.266	544.335	10	57	Target	Neutral	True
545.268	0.5	Control	0.6379	n/a	No	3.48	n/a	n/a	NoResponse	0	n/a	n/a	10	57	Blank	Neutral	True
545.335	0.3	Control	0.6379	0.001	No	3.48	-0.001	2.0	NoResponse	0	0.266	n/a	10	57	ButtonPress	Neutral	True
545.768	1.45	Control	0.6379	n/a	No	3.48	n/a	5.0	NoResponse	0	0.004	544.772	10	57	Feedback	Neutral	True
547.218	3.48	Control	0.6379	n/a	No	3.48	n/a	n/a	NoResponse	0	0.0	n/a	10	57	ISIslide	Neutral	True
550.717	0.25	Win2	0.6441	0.0	Yes	2.733	0.017	n/a	GoodResponse	1	n/a	n/a	11	58	Cue	Win	True
550.966	4.05	Win2	0.6441	0.001	Yes	2.733	-0.001	n/a	GoodResponse	1	n/a	n/a	11	58	Fixation	Win	True
555.015	0.21	Win2	0.6441	0.002	Yes	2.733	-0.002	2.0	GoodResponse	1	0.205	554.22	11	58	Target	Win	True
555.22	0.3	Win2	0.6441	0.002	Yes	2.733	-0.002	2.0	GoodResponse	1	0.205	n/a	11	58	ButtonPress	Win	True
555.232	0.49	Win2	0.6441	n/a	Yes	2.733	n/a	n/a	GoodResponse	1	n/a	n/a	11	58	Blank	Win	True
555.715	1.45	Win2	0.6441	n/a	Yes	2.733	n/a	5.0	GoodResponse	1	0.008	554.723	11	58	Feedback	Win	True
557.164	2.733	Win2	0.6441	n/a	Yes	2.733	n/a	n/a	GoodResponse	1	0.0	n/a	11	58	ISIslide	Win	True
559.913	0.25	Lose2	0.65	0.0	Yes	2.687	0.013	n/a	GoodResponse	0	n/a	n/a	11	59	Cue	AvoidedLoss	True
560.163	4.0	Lose2	0.65	0.0	Yes	2.687	0.0	n/a	GoodResponse	0	n/a	n/a	11	59	Fixation	AvoidedLoss	True
564.162	0.22	Lose2	0.65	0.001	Yes	2.687	-0.001	2.0	GoodResponse	0	0.166	563.328	11	59	Target	AvoidedLoss	True
564.328	0.3	Lose2	0.65	0.001	Yes	2.687	-0.001	2.0	GoodResponse	0	0.166	n/a	11	59	ButtonPress	AvoidedLoss	True
564.395	0.48	Lose2	0.65	n/a	Yes	2.687	n/a	n/a	GoodResponse	0	n/a	n/a	11	59	Blank	AvoidedLoss	True
564.861	1.45	Lose2	0.65	n/a	Yes	2.687	n/a	5.0	GoodResponse	0	0.033	563.894	11	59	Feedback	AvoidedLoss	True
566.311	2.687	Lose2	0.65	n/a	Yes	2.687	n/a	n/a	GoodResponse	0	0.0	n/a	11	59	ISIslide	AvoidedLoss	True
569.027	0.25	Control	0.6393	0.0	No	2.673	0.027	n/a	NoResponse	0	n/a	n/a	11	60	Cue	Neutral	True
569.277	4.0	Control	0.6393	0.0	No	2.673	0.0	n/a	NoResponse	0	n/a	n/a	11	60	Fixation	Neutral	True
573.275	0.23	Control	0.6393	0.002	No	2.673	-0.002	2.0	NoResponse	0	0.264	572.539	11	60	Target	Neutral	True
573.508	0.47	Control	0.6393	n/a	No	2.673	n/a	n/a	NoResponse	0	n/a	n/a	11	60	Blank	Neutral	True
573.539	0.3	Control	0.6393	0.002	No	2.673	-0.002	2.0	NoResponse	0	0.264	n/a	11	60	ButtonPress	Neutral	True
573.975	1.45	Control	0.6393	n/a	No	2.673	n/a	5.0	NoResponse	0	0.04	573.015	11	60	Feedback	Neutral	True
575.424	2.673	Control	0.6393	n/a	No	2.673	n/a	n/a	NoResponse	0	0.0	n/a	11	60	ISIslide	Neutral	True
578.123	0.25	Lose2	0.6452	0.001	Yes	2.977	0.023	n/a	GoodResponse	0	n/a	n/a	11	61	Cue	AvoidedLoss	True
578.373	4.0	Lose2	0.6452	0.0	Yes	2.977	0.0	n/a	GoodResponse	0	n/a	n/a	11	61	Fixation	AvoidedLoss	True
582.372	0.24	Lose2	0.6452	0.001	Yes	2.977	-0.001	2.0	GoodResponse	0	0.199	581.571	11	61	Target	AvoidedLoss	True
582.571	0.3	Lose2	0.6452	0.001	Yes	2.977	-0.001	2.0	GoodResponse	0	0.199	n/a	11	61	ButtonPress	AvoidedLoss	True
582.622	0.46	Lose2	0.6452	n/a	Yes	2.977	n/a	n/a	GoodResponse	0	n/a	n/a	11	61	Blank	AvoidedLoss	True
583.072	1.45	Lose2	0.6452	n/a	Yes	2.977	n/a	5.0	GoodResponse	0	0.016	582.088	11	61	Feedback	AvoidedLoss	True
584.521	2.977	Lose2	0.6452	n/a	Yes	2.977	n/a	n/a	GoodResponse	0	0.0	n/a	11	61	ISIslide	AvoidedLoss	True
587.52	0.25	Lose2	0.6507999999999999	0.0	Yes	2.88	0.02	n/a	GoodResponse	0	n/a	n/a	11	62	Cue	AvoidedLoss	True
587.77	3.9	Lose2	0.6507999999999999	0.0	Yes	2.88	0.0	n/a	GoodResponse	0	n/a	n/a	11	62	Fixation	AvoidedLoss	True
591.669	0.25	Lose2	0.6507999999999999	0.001	Yes	2.88	-0.001	2.0	GoodResponse	0	0.192	590.861	11	62	Target	AvoidedLoss	True
591.861	0.3	Lose2	0.6507999999999999	0.001	Yes	2.88	-0.001	2.0	GoodResponse	0	0.192	n/a	11	62	ButtonPress	AvoidedLoss	True
591.919	0.45	Lose2	0.6507999999999999	n/a	Yes	2.88	n/a	n/a	GoodResponse	0	n/a	n/a	11	62	Blank	AvoidedLoss	True
592.368	1.45	Lose2	0.6507999999999999	n/a	Yes	2.88	n/a	5.0	GoodResponse	0	0.038	591.406	11	62	Feedback	AvoidedLoss	True
593.818	2.88	Lose2	0.6507999999999999	n/a	Yes	2.88	n/a	n/a	GoodResponse	0	0.0	n/a	11	62	ISIslide	AvoidedLoss	True
596.717	0.25	Lose2	0.6406000000000001	0.0	No	2.633	0.017	n/a	NoResponse	-1	n/a	n/a	10	63	Cue	Loss	True
596.967	4.05	Lose2	0.6406000000000001	0.0	No	2.633	0.0	n/a	NoResponse	-1	n/a	n/a	10	63	Fixation	Loss	True
601.015	0.26	Lose2	0.6406000000000001	0.002	No	2.633	-0.002	2.0	NoResponse	-1	0.283	600.298	10	63	Target	Loss	True
601.282	0.44	Lose2	0.6406000000000001	n/a	No	2.633	n/a	n/a	NoResponse	-1	n/a	n/a	10	63	Blank	Loss	True
601.298	0.3	Lose2	0.6406000000000001	0.002	No	2.633	-0.002	2.0	NoResponse	-1	0.283	n/a	10	63	ButtonPress	Loss	True
601.715	1.45	Lose2	0.6406000000000001	n/a	No	2.633	n/a	5.0	NoResponse	-1	0.008	600.723	10	63	Feedback	Loss	True
603.165	2.633	Lose2	0.6406000000000001	n/a	No	2.633	n/a	n/a	NoResponse	-1	0.0	n/a	10	63	ISIslide	Loss	True
605.814	0.25	Win2	0.6462	0.0	Yes	3.136	0.014	n/a	GoodResponse	1	n/a	n/a	11	64	Cue	Win	True
606.064	4.15	Win2	0.6462	0.0	Yes	3.136	0.0	n/a	GoodResponse	1	n/a	n/a	11	64	Fixation	Win	True
610.212	0.27	Win2	0.6462	0.002	Yes	3.136	-0.002	2.0	GoodResponse	1	0.167	609.379	11	64	Target	Win	True
610.379	0.3	Win2	0.6462	0.002	Yes	3.136	-0.002	2.0	GoodResponse	1	0.167	n/a	11	64	ButtonPress	Win	True
610.495	0.43	Win2	0.6462	n/a	Yes	3.136	n/a	n/a	GoodResponse	1	n/a	n/a	11	64	Blank	Win	True
610.912	1.45	Win2	0.6462	n/a	Yes	3.136	n/a	5.0	GoodResponse	1	0.029	609.941	11	64	Feedback	Win	True
612.361	3.136	Win2	0.6462	n/a	Yes	3.136	n/a	n/a	GoodResponse	1	0.0	n/a	11	64	ISIslide	Win	True
615.51	0.25	Control	0.6515000000000001	0.0	Yes	2.79	0.01	n/a	GoodResponse	0	n/a	n/a	11	65	Cue	Neutral	True
615.76	4.0	Control	0.6515000000000001	0.0	Yes	2.79	0.0	n/a	GoodResponse	0	n/a	n/a	11	65	Fixation	Neutral	True
619.759	0.28	Control	0.6515000000000001	0.001	Yes	2.79	-0.001	2.0	GoodResponse	0	0.172	618.931	11	65	Target	Neutral	True
619.931	0.3	Control	0.6515000000000001	0.001	Yes	2.79	-0.001	2.0	GoodResponse	0	0.172	n/a	11	65	ButtonPress	Neutral	True
620.042	0.42	Control	0.6515000000000001	n/a	Yes	2.79	n/a	n/a	GoodResponse	0	n/a	n/a	11	65	Blank	Neutral	True
620.458	1.45	Control	0.6515000000000001	n/a	Yes	2.79	n/a	5.0	GoodResponse	0	0.045	619.503	11	65	Feedback	Neutral	True
621.908	2.79	Control	0.6515000000000001	n/a	Yes	2.79	n/a	n/a	GoodResponse	0	0.0	n/a	11	65	ISIslide	Neutral	True
624.724	0.25	Win2	0.6567000000000001	0.0	Yes	2.776	0.024	n/a	GoodResponse	1	n/a	n/a	12	66	Cue	Win	True
624.973	3.9	Win2	0.6567000000000001	0.001	Yes	2.776	-0.001	n/a	GoodResponse	1	n/a	n/a	12	66	Fixation	Win	True
628.872	0.29	Win2	0.6567000000000001	0.002	Yes	2.776	-0.002	2.0	GoodResponse	1	0.192	628.064	12	66	Target	Win	True
629.064	0.3	Win2	0.6567000000000001	0.002	Yes	2.776	-0.002	2.0	GoodResponse	1	0.192	n/a	12	66	ButtonPress	Win	True
629.172	0.41	Win2	0.6567000000000001	n/a	Yes	2.776	n/a	n/a	GoodResponse	1	n/a	n/a	12	66	Blank	Win	True
629.572	1.45	Win2	0.6567000000000001	n/a	Yes	2.776	n/a	5.0	GoodResponse	1	0.005	628.577	12	66	Feedback	Win	True
631.021	2.776	Win2	0.6567000000000001	n/a	Yes	2.776	n/a	n/a	GoodResponse	1	0.0	n/a	12	66	ISIslide	Win	True
633.82	0.25	Control	0.6618	0.0	Yes	2.73	0.02	n/a	GoodResponse	0	n/a	n/a	12	67	Cue	Neutral	True
634.07	3.95	Control	0.6618	0.0	Yes	2.73	0.0	n/a	GoodResponse	0	n/a	n/a	12	67	Fixation	Neutral	True
638.019	0.29	Control	0.6618	0.001	Yes	2.73	-0.001	2.0	GoodResponse	0	0.188	637.207	12	67	Target	Neutral	True
638.207	0.3	Control	0.6618	0.001	Yes	2.73	-0.001	2.0	GoodResponse	0	0.188	n/a	12	67	ButtonPress	Neutral	True
638.319	0.41	Control	0.6618	n/a	Yes	2.73	n/a	n/a	GoodResponse	0	n/a	n/a	12	67	Blank	Neutral	True
638.719	1.45	Control	0.6618	n/a	Yes	2.73	n/a	5.0	GoodResponse	0	0.028	637.747	12	67	Feedback	Neutral	True
640.168	2.73	Control	0.6618	n/a	Yes	2.73	n/a	n/a	GoodResponse	0	0.0	n/a	12	67	ISIslide	Neutral	True
642.917	0.25	Win2	0.6667000000000001	0.0	Yes	3.083	0.017	n/a	GoodResponse	1	n/a	n/a	13	68	Cue	Win	True
643.167	4.0	Win2	0.6667000000000001	0.0	Yes	3.083	0.0	n/a	GoodResponse	1	n/a	n/a	13	68	Fixation	Win	True
647.166	0.29	Win2	0.6667000000000001	0.001	Yes	3.083	-0.001	2.0	GoodResponse	1	0.203	646.369	13	68	Target	Win	True
647.369	0.3	Win2	0.6667000000000001	0.001	Yes	3.083	-0.001	2.0	GoodResponse	1	0.203	n/a	13	68	ButtonPress	Win	True
647.465	0.41	Win2	0.6667000000000001	n/a	Yes	3.083	n/a	n/a	GoodResponse	1	n/a	n/a	13	68	Blank	Win	True
647.865	1.45	Win2	0.6667000000000001	n/a	Yes	3.083	n/a	5.0	GoodResponse	1	0.005	646.87	13	68	Feedback	Win	True
649.315	3.083	Win2	0.6667000000000001	n/a	Yes	3.083	n/a	n/a	GoodResponse	1	0.0	n/a	13	68	ISIslide	Win	True
652.414	0.25	Win2	0.6714	0.0	Yes	3.236	0.014	n/a	GoodResponse	1	n/a	n/a	14	69	Cue	Win	True
652.664	3.95	Win2	0.6714	0.0	Yes	3.236	0.0	n/a	GoodResponse	1	n/a	n/a	14	69	Fixation	Win	True
656.612	0.28	Win2	0.6714	0.002	Yes	3.236	-0.002	2.0	GoodResponse	1	0.251	655.863	14	69	Target	Win	True
656.863	0.3	Win2	0.6714	0.002	Yes	3.236	-0.002	2.0	GoodResponse	1	0.251	n/a	14	69	ButtonPress	Win	True
656.895	0.42	Win2	0.6714	n/a	Yes	3.236	n/a	n/a	GoodResponse	1	n/a	n/a	14	69	Blank	Win	True
657.312	1.45	Win2	0.6714	n/a	Yes	3.236	n/a	5.0	GoodResponse	1	0.019	656.331	14	69	Feedback	Win	True
658.761	3.236	Win2	0.6714	n/a	Yes	3.236	n/a	n/a	GoodResponse	1	0.0	n/a	14	69	ISIslide	Win	True
662.01	0.25	Lose2	0.6761	0.0	Yes	3.04	0.01	n/a	GoodResponse	0	n/a	n/a	14	70	Cue	AvoidedLoss	True
662.26	4.05	Lose2	0.6761	0.0	Yes	3.04	0.0	n/a	GoodResponse	0	n/a	n/a	14	70	Fixation	AvoidedLoss	True
666.309	0.27	Lose2	0.6761	0.001	Yes	3.04	-0.001	2.0	GoodResponse	0	0.209	665.518	14	70	Target	AvoidedLoss	True
666.518	0.3	Lose2	0.6761	0.001	Yes	3.04	-0.001	2.0	GoodResponse	0	0.209	n/a	14	70	ButtonPress	AvoidedLoss	True
666.592	0.43	Lose2	0.6761	n/a	Yes	3.04	n/a	n/a	GoodResponse	0	n/a	n/a	14	70	Blank	AvoidedLoss	True
667.008	1.45	Lose2	0.6761	n/a	Yes	3.04	n/a	5.0	GoodResponse	0	0.031	666.039	14	70	Feedback	AvoidedLoss	True
668.458	3.04	Lose2	0.6761	n/a	Yes	3.04	n/a	n/a	GoodResponse	0	0.0	n/a	14	70	ISIslide	AvoidedLoss	True
671.524	0.25	Win2	0.6806	0.0	Yes	2.726	0.024	n/a	GoodResponse	1	n/a	n/a	15	71	Cue	Win	True
671.773	4.05	Win2	0.6806	0.001	Yes	2.726	-0.001	n/a	GoodResponse	1	n/a	n/a	15	71	Fixation	Win	True
675.822	0.26	Win2	0.6806	0.002	Yes	2.726	-0.002	2.0	GoodResponse	1	0.216	675.038	15	71	Target	Win	True
676.038	0.3	Win2	0.6806	0.002	Yes	2.726	-0.002	2.0	GoodResponse	1	0.216	n/a	15	71	ButtonPress	Win	True
676.089	0.44	Win2	0.6806	n/a	Yes	2.726	n/a	n/a	GoodResponse	1	n/a	n/a	15	71	Blank	Win	True
676.522	1.45	Win2	0.6806	n/a	Yes	2.726	n/a	5.0	GoodResponse	1	0.029	675.551	15	71	Feedback	Win	True
677.971	2.726	Win2	0.6806	n/a	Yes	2.726	n/a	n/a	GoodResponse	1	0.0	n/a	15	71	ISIslide	Win	True
680.72	0.25	Win2	0.6849	0.0	Yes	2.78	0.02	n/a	GoodResponse	1	n/a	n/a	16	72	Cue	Win	True
680.97	4.1	Win2	0.6849	0.0	Yes	2.78	0.0	n/a	GoodResponse	1	n/a	n/a	16	72	Fixation	Win	True
685.069	0.25	Win2	0.6849	0.001	Yes	2.78	-0.001	2.0	GoodResponse	1	0.24	684.309	16	72	Target	Win	True
685.309	0.3	Win2	0.6849	0.001	Yes	2.78	-0.001	2.0	GoodResponse	1	0.24	n/a	16	72	ButtonPress	Win	True
685.319	0.45	Win2	0.6849	n/a	Yes	2.78	n/a	n/a	GoodResponse	1	n/a	n/a	16	72	Blank	Win	True
685.768	1.45	Win2	0.6849	n/a	Yes	2.78	n/a	5.0	GoodResponse	1	0.005	684.773	16	72	Feedback	Win	True
687.218	2.78	Win2	0.6849	n/a	Yes	2.78	n/a	n/a	GoodResponse	1	0.0	n/a	16	72	ISIslide	Win	True
690.017	0.25	Win2	0.6892	0.0	Yes	2.683	0.017	n/a	GoodResponse	1	n/a	n/a	17	73	Cue	Win	True
690.267	4.0	Win2	0.6892	0.0	Yes	2.683	0.0	n/a	GoodResponse	1	n/a	n/a	17	73	Fixation	Win	True
694.265	0.24	Win2	0.6892	0.002	Yes	2.683	-0.002	2.0	GoodResponse	1	0.22	693.485	17	73	Target	Win	True
694.485	0.3	Win2	0.6892	0.002	Yes	2.683	-0.002	2.0	GoodResponse	1	0.22	n/a	17	73	ButtonPress	Win	True
694.515	0.46	Win2	0.6892	n/a	Yes	2.683	n/a	n/a	GoodResponse	1	n/a	n/a	17	73	Blank	Win	True
694.965	1.45	Win2	0.6892	n/a	Yes	2.683	n/a	5.0	GoodResponse	1	0.024	693.989	17	73	Feedback	Win	True
696.415	2.683	Win2	0.6892	n/a	Yes	2.683	n/a	n/a	GoodResponse	1	0.0	n/a	17	73	ISIslide	Win	True
699.114	0.25	Lose2	0.68	0.0	No	2.636	0.014	n/a	NoResponse	-1	n/a	n/a	16	74	Cue	Loss	True
699.364	4.05	Lose2	0.68	0.0	No	2.636	0.0	n/a	NoResponse	-1	n/a	n/a	16	74	Fixation	Loss	True
703.412	0.23	Lose2	0.68	0.002	No	2.636	-0.002	2.0	NoResponse	-1	0.267	702.679	16	74	Target	Loss	True
703.645	0.47	Lose2	0.68	n/a	No	2.636	n/a	n/a	NoResponse	-1	n/a	n/a	16	74	Blank	Loss	True
703.679	0.3	Lose2	0.68	0.002	No	2.636	-0.002	2.0	NoResponse	-1	0.267	n/a	16	74	ButtonPress	Loss	True
704.112	1.45	Lose2	0.68	n/a	No	2.636	n/a	5.0	NoResponse	-1	0.048	703.16	16	74	Feedback	Loss	True
705.561	2.636	Lose2	0.68	n/a	No	2.636	n/a	n/a	NoResponse	-1	0.0	n/a	16	74	ISIslide	Loss	True
708.227	0.25	Lose2	0.6842	0.0	Yes	2.923	0.027	n/a	GoodResponse	0	n/a	n/a	16	75	Cue	AvoidedLoss	True
708.477	3.95	Lose2	0.6842	0.0	Yes	2.923	0.0	n/a	GoodResponse	0	n/a	n/a	16	75	Fixation	AvoidedLoss	True
712.426	0.22	Lose2	0.6842	0.001	Yes	2.923	-0.001	2.0	GoodResponse	0	0.213	711.639	16	75	Target	AvoidedLoss	True
712.639	0.3	Lose2	0.6842	0.001	Yes	2.923	-0.001	2.0	GoodResponse	0	0.213	n/a	16	75	ButtonPress	AvoidedLoss	True
712.642	0.48	Lose2	0.6842	n/a	Yes	2.923	n/a	n/a	GoodResponse	0	n/a	n/a	16	75	Blank	AvoidedLoss	True
713.125	1.45	Lose2	0.6842	n/a	Yes	2.923	n/a	5.0	GoodResponse	0	0.011	712.136	16	75	Feedback	AvoidedLoss	True
714.575	2.923	Lose2	0.6842	n/a	Yes	2.923	n/a	n/a	GoodResponse	0	0.0	n/a	16	75	ISIslide	AvoidedLoss	True
717.524	0.25	Control	0.6753	0.0	No	3.226	0.024	n/a	NoResponse	0	n/a	n/a	16	76	Cue	Neutral	True
717.774	4.05	Control	0.6753	0.0	No	3.226	0.0	n/a	NoResponse	0	n/a	n/a	16	76	Fixation	Neutral	True
721.822	0.21	Control	0.6753	0.002	No	3.226	-0.002	2.0	NoResponse	0	0.241	721.063	16	76	Target	Neutral	True
722.039	0.49	Control	0.6753	n/a	No	3.226	n/a	n/a	NoResponse	0	n/a	n/a	16	76	Blank	Neutral	True
722.063	0.3	Control	0.6753	0.002	No	3.226	-0.002	2.0	NoResponse	0	0.241	n/a	16	76	ButtonPress	Neutral	True
722.522	1.45	Control	0.6753	n/a	No	3.226	n/a	5.0	NoResponse	0	0.028	721.55	16	76	Feedback	Neutral	True
723.972	3.226	Control	0.6753	n/a	No	3.226	n/a	n/a	NoResponse	0	0.0	n/a	16	76	ISIslide	Neutral	True
727.22	0.25	Lose2	0.6667000000000001	0.0	No	2.58	0.02	n/a	NoResponse	-1	n/a	n/a	15	77	Cue	Loss	True
727.47	3.95	Lose2	0.6667000000000001	0.0	No	2.58	0.0	n/a	NoResponse	-1	n/a	n/a	15	77	Fixation	Loss	True
731.419	0.2	Lose2	0.6667000000000001	0.001	No	2.58	-0.001	2.0	NoResponse	-1	0.201	730.62	15	77	Target	Loss	True
731.619	0.5	Lose2	0.6667000000000001	n/a	No	2.58	n/a	n/a	NoResponse	-1	n/a	n/a	15	77	Blank	Loss	True
731.62	0.3	Lose2	0.6667000000000001	0.001	No	2.58	-0.001	2.0	NoResponse	-1	0.201	n/a	15	77	ButtonPress	Loss	True
732.119	1.45	Lose2	0.6667000000000001	n/a	No	2.58	n/a	5.0	NoResponse	-1	0.04	731.159	15	77	Feedback	Loss	True
733.568	2.58	Lose2	0.6667000000000001	n/a	No	2.58	n/a	n/a	NoResponse	-1	0.0	n/a	15	77	ISIslide	Loss	True
