onset	duration	cue_type	current_mean_accuracy	duration_error	is_hit	isi_adjusted	onset_delay	response	response_type	reward	rt	rt_time	total_reward	trial_number	trial_phase	trial_type	one_press
11.112	0.25	Control	1.0	0.0	Yes	2.938	0.012	n/a	GoodResponse	0	n/a	n/a	0	0	Cue	Neutral	True
11.362	3.85	Control	1.0	0.0	Yes	2.938	0.0	n/a	GoodResponse	0	n/a	n/a	0	0	Fixation	Neutral	True
15.224	0.4	Control	1.0	0.0	Yes	2.938	0.012	4.0	GoodResponse	0	0.193	14.417	0	0	Target	Neutral	True
15.417	0.3	Control	1.0	0.0	Yes	2.938	0.012	4.0	GoodResponse	0	0.193	n/a	0	0	ButtonPress	Neutral	True
15.608	0.3	Control	1.0	n/a	Yes	2.938	n/a	n/a	GoodResponse	0	n/a	n/a	0	0	Blank	Neutral	True
15.909	1.45	Control	1.0	n/a	Yes	2.938	n/a	5.0	GoodResponse	0	0.017	14.926	0	0	Feedback	Neutral	True
17.364	2.938	Control	1.0	n/a	Yes	2.938	n/a	n/a	GoodResponse	0	0.0	n/a	0	0	ISIslide	Neutral	True
20.322	0.25	Lose2	1.0	0.0	Yes	2.778	0.022	n/a	GoodResponse	0	n/a	n/a	0	1	Cue	AvoidedLoss	True
20.573	4.0	Lose2	1.0	0.0	Yes	2.778	0.001	n/a	GoodResponse	0	n/a	n/a	0	1	Fixation	AvoidedLoss	True
24.568	0.39	Lose2	1.0	0.004	Yes	2.778	-0.004	4.0	GoodResponse	0	0.207	23.775	0	1	Target	AvoidedLoss	True
24.775	0.3	Lose2	1.0	0.004	Yes	2.778	-0.004	4.0	GoodResponse	0	0.207	n/a	0	1	ButtonPress	AvoidedLoss	True
24.97	0.31	Lose2	1.0	n/a	Yes	2.778	n/a	n/a	GoodResponse	0	n/a	n/a	0	1	Blank	AvoidedLoss	True
25.27	1.45	Lose2	1.0	n/a	Yes	2.778	n/a	5.0	GoodResponse	0	0.022	24.292	0	1	Feedback	AvoidedLoss	True
26.725	2.778	Lose2	1.0	n/a	Yes	2.778	n/a	n/a	GoodResponse	0	0.0	n/a	0	1	ISIslide	AvoidedLoss	True
29.516	0.25	Control	1.0	0.001	Yes	2.584	0.016	n/a	GoodResponse	0	n/a	n/a	0	2	Cue	Neutral	True
29.767	4.1	Control	1.0	0.0	Yes	2.584	0.001	n/a	GoodResponse	0	n/a	n/a	0	2	Fixation	Neutral	True
33.863	0.38	Control	1.0	0.003	Yes	2.584	-0.003	4.0	GoodResponse	0	0.211	33.074	0	2	Target	Neutral	True
34.074	0.3	Control	1.0	0.003	Yes	2.584	-0.003	4.0	GoodResponse	0	0.211	n/a	0	2	ButtonPress	Neutral	True
34.247	0.32	Control	1.0	n/a	Yes	2.584	n/a	n/a	GoodResponse	0	n/a	n/a	0	2	Blank	Neutral	True
34.565	1.45	Control	1.0	n/a	Yes	2.584	n/a	5.0	GoodResponse	0	0.044	33.609	0	2	Feedback	Neutral	True
36.019	2.584	Control	1.0	n/a	Yes	2.584	n/a	n/a	GoodResponse	0	0.0	n/a	0	2	ISIslide	Neutral	True
38.627	0.25	Win2	1.0	0.0	Yes	2.823	0.027	n/a	GoodResponse	1	n/a	n/a	1	3	Cue	Win	True
38.878	3.95	Win2	1.0	0.0	Yes	2.823	0.001	n/a	GoodResponse	1	n/a	n/a	1	3	Fixation	Win	True
42.823	0.37	Win2	1.0	0.004	Yes	2.823	-0.004	4.0	GoodResponse	1	0.193	42.016	1	3	Target	Win	True
43.016	0.3	Win2	1.0	0.004	Yes	2.823	-0.004	4.0	GoodResponse	1	0.193	n/a	1	3	ButtonPress	Win	True
43.207	0.33	Win2	1.0	n/a	Yes	2.823	n/a	n/a	GoodResponse	1	n/a	n/a	1	3	Blank	Win	True
43.525	1.45	Win2	1.0	n/a	Yes	2.823	n/a	5.0	GoodResponse	1	0.01	42.535	1	3	Feedback	Win	True
44.979	2.823	Win2	1.0	n/a	Yes	2.823	n/a	n/a	GoodResponse	1	0.0	n/a	1	3	ISIslide	Win	True
47.821	0.25	Win2	1.0	0.0	Yes	3.279	0.021	n/a	GoodResponse	1	n/a	n/a	2	4	Cue	Win	True
48.072	4.0	Win2	1.0	0.0	Yes	3.279	0.001	n/a	GoodResponse	1	n/a	n/a	2	4	Fixation	Win	True
52.067	0.36	Win2	1.0	0.004	Yes	3.279	-0.004	4.0	GoodResponse	1	0.333	51.4	2	4	Target	Win	True
52.4	0.3	Win2	1.0	0.004	Yes	3.279	-0.004	4.0	GoodResponse	1	0.333	n/a	2	4	ButtonPress	Win	True
52.435	0.34	Win2	1.0	n/a	Yes	3.279	n/a	n/a	GoodResponse	1	n/a	n/a	2	4	Blank	Win	True
52.769	1.45	Win2	1.0	n/a	Yes	3.279	n/a	5.0	GoodResponse	1	0.035	51.804	2	4	Feedback	Win	True
54.224	3.279	Win2	1.0	n/a	Yes	3.279	n/a	n/a	GoodResponse	1	0.0	n/a	2	4	ISIslide	Win	True
57.517	0.25	Win2	1.0	0.0	Yes	2.783	0.017	n/a	GoodResponse	1	n/a	n/a	3	5	Cue	Win	True
57.768	4.0	Win2	1.0	0.0	Yes	2.783	0.001	n/a	GoodResponse	1	n/a	n/a	3	5	Fixation	Win	True
61.763	0.35	Win2	1.0	0.004	Yes	2.783	-0.004	4.0	GoodResponse	1	0.196	60.959	3	5	Target	Win	True
61.959	0.3	Win2	1.0	0.004	Yes	2.783	-0.004	4.0	GoodResponse	1	0.196	n/a	3	5	ButtonPress	Win	True
62.114	0.35	Win2	1.0	n/a	Yes	2.783	n/a	n/a	GoodResponse	1	n/a	n/a	3	5	Blank	Win	True
62.465	1.45	Win2	1.0	n/a	Yes	2.783	n/a	5.0	GoodResponse	1	0.046	61.511	3	5	Feedback	Win	True
63.919	2.783	Win2	1.0	n/a	Yes	2.783	n/a	n/a	GoodResponse	1	0.0	n/a	3	5	ISIslide	Win	True
66.728	0.25	Lose2	1.0	0.0	Yes	2.722	0.028	n/a	GoodResponse	0	n/a	n/a	3	6	Cue	AvoidedLoss	True
66.978	3.95	Lose2	1.0	0.0	Yes	2.722	0.0	n/a	GoodResponse	0	n/a	n/a	3	6	Fixation	AvoidedLoss	True
70.923	0.34	Lose2	1.0	0.005	Yes	2.722	-0.005	4.0	GoodResponse	0	0.189	70.112	3	6	Target	AvoidedLoss	True
71.112	0.3	Lose2	1.0	0.005	Yes	2.722	-0.005	4.0	GoodResponse	0	0.189	n/a	3	6	ButtonPress	AvoidedLoss	True
71.275	0.36	Lose2	1.0	n/a	Yes	2.722	n/a	n/a	GoodResponse	0	n/a	n/a	3	6	Blank	AvoidedLoss	True
71.626	1.45	Lose2	1.0	n/a	Yes	2.722	n/a	5.0	GoodResponse	0	0.007	70.633	3	6	Feedback	AvoidedLoss	True
73.08	2.722	Lose2	1.0	n/a	Yes	2.722	n/a	n/a	GoodResponse	0	0.0	n/a	3	6	ISIslide	AvoidedLoss	True
75.821	0.25	Lose2	1.0	0.001	Yes	4.029	0.021	n/a	GoodResponse	0	n/a	n/a	3	7	Cue	AvoidedLoss	True
76.072	4.05	Lose2	1.0	0.0	Yes	4.029	0.001	n/a	GoodResponse	0	n/a	n/a	3	7	Fixation	AvoidedLoss	True
80.118	0.33	Lose2	1.0	0.003	Yes	4.029	-0.003	4.0	GoodResponse	0	0.185	79.303	3	7	Target	AvoidedLoss	True
80.303	0.3	Lose2	1.0	0.003	Yes	4.029	-0.003	4.0	GoodResponse	0	0.185	n/a	3	7	ButtonPress	AvoidedLoss	True
80.452	0.37	Lose2	1.0	n/a	Yes	4.029	n/a	n/a	GoodResponse	0	n/a	n/a	3	7	Blank	AvoidedLoss	True
80.82	1.45	Lose2	1.0	n/a	Yes	4.029	n/a	5.0	GoodResponse	0	0.032	79.852	3	7	Feedback	AvoidedLoss	True
82.274	4.029	Lose2	1.0	n/a	Yes	4.029	n/a	n/a	GoodResponse	0	0.0	n/a	3	7	ISIslide	AvoidedLoss	True
86.319	0.25	Lose2	1.0	0.001	Yes	3.031	0.019	n/a	GoodResponse	0	n/a	n/a	3	8	Cue	AvoidedLoss	True
86.57	3.95	Lose2	1.0	0.0	Yes	3.031	0.001	n/a	GoodResponse	0	n/a	n/a	3	8	Fixation	AvoidedLoss	True
90.515	0.32	Lose2	1.0	0.004	Yes	3.031	-0.004	4.0	GoodResponse	0	0.181	89.696	3	8	Target	AvoidedLoss	True
90.696	0.3	Lose2	1.0	0.004	Yes	3.031	-0.004	4.0	GoodResponse	0	0.181	n/a	3	8	ButtonPress	AvoidedLoss	True
90.85	0.38	Lose2	1.0	n/a	Yes	3.031	n/a	n/a	GoodResponse	0	n/a	n/a	3	8	Blank	AvoidedLoss	True
91.217	1.45	Lose2	1.0	n/a	Yes	3.031	n/a	5.0	GoodResponse	0	0.025	90.242	3	8	Feedback	AvoidedLoss	True
92.672	3.031	Lose2	1.0	n/a	Yes	3.031	n/a	n/a	GoodResponse	0	0.0	n/a	3	8	ISIslide	AvoidedLoss	True
95.731	0.25	Lose2	1.0	0.0	Yes	3.119	0.031	n/a	GoodResponse	0	n/a	n/a	3	9	Cue	AvoidedLoss	True
95.982	3.95	Lose2	1.0	0.0	Yes	3.119	0.001	n/a	GoodResponse	0	n/a	n/a	3	9	Fixation	AvoidedLoss	True
99.927	0.31	Lose2	1.0	0.004	Yes	3.119	-0.004	4.0	GoodResponse	0	0.205	99.132	3	9	Target	AvoidedLoss	True
100.132	0.3	Lose2	1.0	0.004	Yes	3.119	-0.004	4.0	GoodResponse	0	0.205	n/a	3	9	ButtonPress	AvoidedLoss	True
100.244	0.39	Lose2	1.0	n/a	Yes	3.119	n/a	n/a	GoodResponse	0	n/a	n/a	3	9	Blank	AvoidedLoss	True
100.629	1.45	Lose2	1.0	n/a	Yes	3.119	n/a	5.0	GoodResponse	0	0.028	99.657	3	9	Feedback	AvoidedLoss	True
102.083	3.119	Lose2	1.0	n/a	Yes	3.119	n/a	n/a	GoodResponse	0	0.0	n/a	3	9	ISIslide	AvoidedLoss	True
105.226	0.25	Control	1.0	0.0	Yes	3.274	0.026	n/a	GoodResponse	0	n/a	n/a	3	10	Cue	Neutral	True
105.477	4.0	Control	1.0	0.0	Yes	3.274	0.001	n/a	GoodResponse	0	n/a	n/a	3	10	Fixation	Neutral	True
109.472	0.3	Control	1.0	0.004	Yes	3.274	-0.004	4.0	GoodResponse	0	0.165	108.637	3	10	Target	Neutral	True
109.637	0.3	Control	1.0	0.004	Yes	3.274	-0.004	4.0	GoodResponse	0	0.165	n/a	3	10	ButtonPress	Neutral	True
109.773	0.4	Control	1.0	n/a	Yes	3.274	n/a	n/a	GoodResponse	0	n/a	n/a	3	10	Blank	Neutral	True
110.174	1.45	Control	1.0	n/a	Yes	3.274	n/a	5.0	GoodResponse	0	0.044	109.218	3	10	Feedback	Neutral	True
111.628	3.274	Control	1.0	n/a	Yes	3.274	n/a	n/a	GoodResponse	0	0.0	n/a	3	10	ISIslide	Neutral	True
114.922	0.25	Lose2	1.0	0.0	Yes	2.728	0.022	n/a	GoodResponse	0	n/a	n/a	3	11	Cue	AvoidedLoss	False
115.172	4.05	Lose2	1.0	0.0	Yes	2.728	0.0	4.0	GoodResponse	0	3.448	117.62	3	11	Fixation	AvoidedLoss	False
118.62	0.3	Lose2	1.0	0.0	Yes	2.728	0.0	4.0	GoodResponse	0	3.448	n/a	3	11	ButtonPress	AvoidedLoss	False
119.218	0.29	Lose2	1.0	0.004	Yes	2.728	-0.004	4.0	GoodResponse	0	0.202	118.42	3	11	Target	AvoidedLoss	False
119.42	0.3	Lose2	1.0	0.004	Yes	2.728	-0.004	4.0	GoodResponse	0	0.202	n/a	3	11	ButtonPress	AvoidedLoss	False
119.519	0.41	Lose2	1.0	n/a	Yes	2.728	n/a	n/a	GoodResponse	0	n/a	n/a	3	11	Blank	AvoidedLoss	False
119.92	1.45	Lose2	1.0	n/a	Yes	2.728	n/a	5.0	GoodResponse	0	0.006	118.926	3	11	Feedback	AvoidedLoss	False
121.374	2.728	Lose2	1.0	n/a	Yes	2.728	n/a	n/a	GoodResponse	0	0.0	n/a	3	11	ISIslide	AvoidedLoss	False
124.116	0.25	Control	1.0	0.0	Yes	2.984	0.016	n/a	GoodResponse	0	n/a	n/a	3	12	Cue	Neutral	True
124.366	3.9	Control	1.0	0.001	Yes	2.984	0.0	n/a	GoodResponse	0	n/a	n/a	3	12	Fixation	Neutral	True
128.278	0.28	Control	1.0	0.0	Yes	2.984	0.012	4.0	GoodResponse	0	0.213	127.491	3	12	Target	Neutral	True
128.491	0.3	Control	1.0	0.0	Yes	2.984	0.012	4.0	GoodResponse	0	0.213	n/a	3	12	ButtonPress	Neutral	True
128.546	0.42	Control	1.0	n/a	Yes	2.984	n/a	n/a	GoodResponse	0	n/a	n/a	3	12	Blank	Neutral	True
128.963	1.45	Control	1.0	n/a	Yes	2.984	n/a	5.0	GoodResponse	0	0.035	127.998	3	12	Feedback	Neutral	True
130.418	2.984	Control	1.0	n/a	Yes	2.984	n/a	n/a	GoodResponse	0	0.0	n/a	3	12	ISIslide	Neutral	True
133.427	0.25	Control	1.0	0.0	Yes	2.773	0.027	n/a	GoodResponse	0	n/a	n/a	3	13	Cue	Neutral	True
133.678	4.0	Control	1.0	0.0	Yes	2.773	0.001	n/a	GoodResponse	0	n/a	n/a	3	13	Fixation	Neutral	True
137.673	0.27	Control	1.0	0.004	Yes	2.773	-0.004	4.0	GoodResponse	0	0.189	136.862	3	13	Target	Neutral	True
137.862	0.3	Control	1.0	0.004	Yes	2.773	-0.004	4.0	GoodResponse	0	0.189	n/a	3	13	ButtonPress	Neutral	True
137.957	0.43	Control	1.0	n/a	Yes	2.773	n/a	n/a	GoodResponse	0	n/a	n/a	3	13	Blank	Neutral	True
138.375	1.45	Control	1.0	n/a	Yes	2.773	n/a	5.0	GoodResponse	0	0.037	137.412	3	13	Feedback	Neutral	True
139.829	2.773	Control	1.0	n/a	Yes	2.773	n/a	n/a	GoodResponse	0	0.0	n/a	3	13	ISIslide	Neutral	True
142.621	0.25	Win2	1.0	0.0	Yes	2.679	0.021	n/a	GoodResponse	1	n/a	n/a	4	14	Cue	Win	True
142.872	4.1	Win2	1.0	0.0	Yes	2.679	0.001	n/a	GoodResponse	1	n/a	n/a	4	14	Fixation	Win	True
146.967	0.26	Win2	1.0	0.004	Yes	2.679	-0.004	4.0	GoodResponse	1	0.225	146.192	4	14	Target	Win	True
147.192	0.3	Win2	1.0	0.004	Yes	2.679	-0.004	4.0	GoodResponse	1	0.225	n/a	4	14	ButtonPress	Win	True
147.235	0.44	Win2	1.0	n/a	Yes	2.679	n/a	n/a	GoodResponse	1	n/a	n/a	4	14	Blank	Win	True
147.669	1.45	Win2	1.0	n/a	Yes	2.679	n/a	5.0	GoodResponse	1	0.012	146.681	4	14	Feedback	Win	True
149.124	2.679	Win2	1.0	n/a	Yes	2.679	n/a	n/a	GoodResponse	1	0.0	n/a	4	14	ISIslide	Win	True
151.815	0.25	Control	1.0	0.0	Yes	2.985	0.015	n/a	GoodResponse	0	n/a	n/a	4	15	Cue	Neutral	True
152.066	4.0	Control	1.0	0.0	Yes	2.985	0.001	n/a	GoodResponse	0	n/a	n/a	4	15	Fixation	Neutral	True
156.061	0.25	Control	1.0	0.004	Yes	2.985	-0.004	4.0	GoodResponse	0	0.191	155.252	4	15	Target	Neutral	True
156.252	0.3	Control	1.0	0.004	Yes	2.985	-0.004	4.0	GoodResponse	0	0.191	n/a	4	15	ButtonPress	Neutral	True
156.312	0.45	Control	1.0	n/a	Yes	2.985	n/a	n/a	GoodResponse	0	n/a	n/a	4	15	Blank	Neutral	True
156.763	1.45	Control	1.0	n/a	Yes	2.985	n/a	5.0	GoodResponse	0	0.039	155.802	4	15	Feedback	Neutral	True
158.218	2.985	Control	1.0	n/a	Yes	2.985	n/a	n/a	GoodResponse	0	0.0	n/a	4	15	ISIslide	Neutral	True
161.226	0.25	Win2	1.0	0.001	Yes	2.874	0.026	n/a	GoodResponse	1	n/a	n/a	5	16	Cue	Win	True
161.477	4.0	Win2	1.0	0.0	Yes	2.874	0.001	n/a	GoodResponse	1	n/a	n/a	5	16	Fixation	Win	True
165.473	0.24	Win2	1.0	0.003	Yes	2.874	-0.003	4.0	GoodResponse	1	0.186	164.659	5	16	Target	Win	True
165.659	0.3	Win2	1.0	0.003	Yes	2.874	-0.003	4.0	GoodResponse	1	0.186	n/a	5	16	ButtonPress	Win	True
165.723	0.46	Win2	1.0	n/a	Yes	2.874	n/a	n/a	GoodResponse	1	n/a	n/a	5	16	Blank	Win	True
166.175	1.45	Win2	1.0	n/a	Yes	2.874	n/a	5.0	GoodResponse	1	0.042	165.217	5	16	Feedback	Win	True
167.629	2.874	Win2	1.0	n/a	Yes	2.874	n/a	n/a	GoodResponse	1	0.0	n/a	5	16	ISIslide	Win	True
170.521	0.25	Lose2	1.0	0.0	Yes	2.729	0.021	n/a	GoodResponse	0	n/a	n/a	5	17	Cue	AvoidedLoss	True
170.772	3.95	Lose2	1.0	0.0	Yes	2.729	0.001	n/a	GoodResponse	0	n/a	n/a	5	17	Fixation	AvoidedLoss	True
174.717	0.23	Lose2	1.0	0.004	Yes	2.729	-0.004	4.0	GoodResponse	0	0.184	173.901	5	17	Target	AvoidedLoss	True
174.901	0.3	Lose2	1.0	0.004	Yes	2.729	-0.004	4.0	GoodResponse	0	0.184	n/a	5	17	ButtonPress	AvoidedLoss	True
174.951	0.47	Lose2	1.0	n/a	Yes	2.729	n/a	n/a	GoodResponse	0	n/a	n/a	5	17	Blank	AvoidedLoss	True
175.419	1.45	Lose2	1.0	n/a	Yes	2.729	n/a	5.0	GoodResponse	0	0.017	174.436	5	17	Feedback	AvoidedLoss	True
176.873	2.729	Lose2	1.0	n/a	Yes	2.729	n/a	n/a	GoodResponse	0	0.0	n/a	5	17	ISIslide	AvoidedLoss	True
179.615	0.25	Lose2	1.0	0.0	Yes	2.735	0.015	n/a	GoodResponse	0	n/a	n/a	5	18	Cue	AvoidedLoss	False
179.865	4.05	Lose2	1.0	0.001	Yes	2.735	0.0	4.0	GoodResponse	0	3.565	182.43	5	18	Fixation	AvoidedLoss	False
183.43	0.3	Lose2	1.0	0.001	Yes	2.735	0.0	4.0	GoodResponse	0	3.565	n/a	5	18	ButtonPress	AvoidedLoss	False
183.911	0.22	Lose2	1.0	0.004	Yes	2.735	-0.004	4.0	GoodResponse	0	0.185	183.096	5	18	Target	AvoidedLoss	False
184.096	0.3	Lose2	1.0	0.004	Yes	2.735	-0.004	4.0	GoodResponse	0	0.185	n/a	5	18	ButtonPress	AvoidedLoss	False
184.145	0.48	Lose2	1.0	n/a	Yes	2.735	n/a	n/a	GoodResponse	0	n/a	n/a	5	18	Blank	AvoidedLoss	False
184.613	1.45	Lose2	1.0	n/a	Yes	2.735	n/a	5.0	GoodResponse	0	0.043	183.656	5	18	Feedback	AvoidedLoss	False
186.067	2.735	Lose2	1.0	n/a	Yes	2.735	n/a	n/a	GoodResponse	0	0.0	n/a	5	18	ISIslide	AvoidedLoss	False
188.826	0.25	Control	0.95	0.0	No	2.924	0.026	n/a	NoResponse	0	n/a	n/a	5	19	Cue	Neutral	True
189.076	3.95	Control	0.95	0.0	No	2.924	0.0	n/a	NoResponse	0	n/a	n/a	5	19	Fixation	Neutral	True
193.038	0.21	Control	0.95	0.0	No	2.924	0.012	4.0	NoResponse	0	0.28	192.318	5	19	Target	Neutral	True
193.239	0.49	Control	0.95	n/a	No	2.924	n/a	n/a	NoResponse	0	n/a	n/a	5	19	Blank	Neutral	True
193.318	0.3	Control	0.95	0.0	No	2.924	0.012	4.0	NoResponse	0	0.28	n/a	5	19	ButtonPress	Neutral	True
193.724	1.45	Control	0.95	n/a	No	2.924	n/a	5.0	NoResponse	0	0.007	192.731	5	19	Feedback	Neutral	True
195.178	2.924	Control	0.95	n/a	No	2.924	n/a	n/a	NoResponse	0	0.0	n/a	5	19	ISIslide	Neutral	True
198.12	0.25	Control	0.9048	0.0	No	2.63	0.02	n/a	NoResponse	0	n/a	n/a	5	20	Cue	Neutral	True
198.371	4.05	Control	0.9048	0.0	No	2.63	0.001	n/a	NoResponse	0	n/a	n/a	5	20	Fixation	Neutral	True
202.416	0.2	Control	0.9048	0.004	No	2.63	-0.004	4.0	NoResponse	0	0.212	201.628	5	20	Target	Neutral	True
202.617	0.5	Control	0.9048	n/a	No	2.63	n/a	n/a	NoResponse	0	n/a	n/a	5	20	Blank	Neutral	True
202.628	0.3	Control	0.9048	0.004	No	2.63	-0.004	4.0	NoResponse	0	0.212	n/a	5	20	ButtonPress	Neutral	True
203.118	1.45	Control	0.9048	n/a	No	2.63	n/a	5.0	NoResponse	0	0.025	202.143	5	20	Feedback	Neutral	True
204.573	2.63	Control	0.9048	n/a	No	2.63	n/a	n/a	NoResponse	0	0.0	n/a	5	20	ISIslide	Neutral	True
207.231	0.25	Control	0.9091	0.0	Yes	2.769	0.031	n/a	GoodResponse	0	n/a	n/a	5	21	Cue	Neutral	True
207.481	4.1	Control	0.9091	0.0	Yes	2.769	0.0	n/a	GoodResponse	0	n/a	n/a	5	21	Fixation	Neutral	True
211.577	0.19	Control	0.9091	0.004	Yes	2.769	-0.004	4.0	GoodResponse	0	0.159	210.736	5	21	Target	Neutral	True
211.736	0.3	Control	0.9091	0.004	Yes	2.769	-0.004	4.0	GoodResponse	0	0.159	n/a	5	21	ButtonPress	Neutral	True
211.777	0.51	Control	0.9091	n/a	Yes	2.769	n/a	n/a	GoodResponse	0	n/a	n/a	5	21	Blank	Neutral	True
212.279	1.45	Control	0.9091	n/a	Yes	2.769	n/a	5.0	GoodResponse	0	0.035	211.314	5	21	Feedback	Neutral	True
213.733	2.769	Control	0.9091	n/a	Yes	2.769	n/a	n/a	GoodResponse	0	0.0	n/a	5	21	ISIslide	Neutral	True
216.525	0.25	Control	0.9129999999999999	0.0	Yes	2.775	0.025	n/a	GoodResponse	0	n/a	n/a	5	22	Cue	Neutral	True
216.776	4.0	Control	0.9129999999999999	0.0	Yes	2.775	0.001	n/a	GoodResponse	0	n/a	n/a	5	22	Fixation	Neutral	True
220.771	0.18	Control	0.9129999999999999	0.004	Yes	2.775	-0.004	4.0	GoodResponse	0	0.173	219.944	5	22	Target	Neutral	True
220.944	0.3	Control	0.9129999999999999	0.004	Yes	2.775	-0.004	4.0	GoodResponse	0	0.173	n/a	5	22	ButtonPress	Neutral	True
220.955	0.52	Control	0.9129999999999999	n/a	Yes	2.775	n/a	n/a	GoodResponse	0	n/a	n/a	5	22	Blank	Neutral	True
221.473	1.45	Control	0.9129999999999999	n/a	Yes	2.775	n/a	5.0	GoodResponse	0	0.012	220.485	5	22	Feedback	Neutral	True
222.927	2.775	Control	0.9129999999999999	n/a	Yes	2.775	n/a	n/a	GoodResponse	0	0.0	n/a	5	22	ISIslide	Neutral	True
225.719	0.25	Control	0.875	0.0	No	2.781	0.019	n/a	LatePress	0	n/a	n/a	5	23	Cue	Neutral	True
225.97	3.9	Control	0.875	0.0	No	2.781	0.001	n/a	LatePress	0	n/a	n/a	5	23	Fixation	Neutral	True
229.865	0.17	Control	0.875	0.004	No	2.781	-0.004	4.0	LatePress	0	0.18	229.045	5	23	Target	Neutral	True
230.045	0.3	Control	0.875	0.004	No	2.781	-0.004	4.0	LatePress	0	0.18	n/a	5	23	ButtonPress	Neutral	True
230.049	0.53	Control	0.875	n/a	No	2.781	n/a	n/a	LatePress	0	n/a	n/a	5	23	Blank	Neutral	True
230.567	1.45	Control	0.875	n/a	No	2.781	n/a	5.0	LatePress	0	0.039	229.606	5	23	Feedback	Neutral	True
232.021	2.781	Control	0.875	n/a	No	2.781	n/a	n/a	LatePress	0	0.0	n/a	5	23	ISIslide	Neutral	True
234.83	0.25	Win2	0.84	0.0	No	3.12	0.03	n/a	NoResponse	0	n/a	n/a	5	24	Cue	MissedWin	True
235.08	3.95	Win2	0.84	0.0	No	3.12	0.0	n/a	NoResponse	0	n/a	n/a	5	24	Fixation	MissedWin	True
239.026	0.16	Win2	0.84	0.004	No	3.12	-0.004	4.0	NoResponse	0	0.187	238.213	5	24	Target	MissedWin	True
239.193	0.54	Win2	0.84	n/a	No	3.12	n/a	n/a	NoResponse	0	n/a	n/a	5	24	Blank	MissedWin	True
239.213	0.3	Win2	0.84	0.004	No	3.12	-0.004	4.0	NoResponse	0	0.187	n/a	5	24	ButtonPress	MissedWin	True
239.728	1.45	Win2	0.84	n/a	No	3.12	n/a	5.0	NoResponse	0	0.0	238.728	5	24	Feedback	MissedWin	True
241.182	3.12	Win2	0.84	n/a	No	3.12	n/a	n/a	NoResponse	0	0.0	n/a	5	24	ISIslide	MissedWin	True
244.325	0.25	Win2	0.8077	0.0	No	3.075	0.025	n/a	LatePress	0	n/a	n/a	5	25	Cue	MissedWin	True
244.575	4.0	Win2	0.8077	0.0	No	3.075	0.0	n/a	LatePress	0	n/a	n/a	5	25	Fixation	MissedWin	True
248.571	0.15	Win2	0.8077	0.004	No	3.075	-0.004	4.0	LatePress	0	0.152	247.723	5	25	Target	MissedWin	True
248.721	0.55	Win2	0.8077	n/a	No	3.075	n/a	n/a	LatePress	0	n/a	n/a	5	25	Blank	MissedWin	True
248.723	0.3	Win2	0.8077	0.004	No	3.075	-0.004	4.0	LatePress	0	0.152	n/a	5	25	ButtonPress	MissedWin	True
249.273	1.45	Win2	0.8077	n/a	No	3.075	n/a	5.0	LatePress	0	0.016	248.289	5	25	Feedback	MissedWin	True
250.727	3.075	Win2	0.8077	n/a	No	3.075	n/a	n/a	LatePress	0	0.0	n/a	5	25	ISIslide	MissedWin	True
253.82	0.25	Win2	0.7778	0.0	No	2.93	0.02	n/a	NoResponse	0	n/a	n/a	5	26	Cue	MissedWin	True
254.07	3.95	Win2	0.7778	0.001	No	2.93	0.0	n/a	NoResponse	0	n/a	n/a	5	26	Fixation	MissedWin	True
258.016	0.15	Win2	0.7778	0.004	No	2.93	-0.004	4.0	NoResponse	0	0.192	257.208	5	26	Target	MissedWin	True
258.166	0.55	Win2	0.7778	n/a	No	2.93	n/a	n/a	NoResponse	0	n/a	n/a	5	26	Blank	MissedWin	True
258.208	0.3	Win2	0.7778	0.004	No	2.93	-0.004	4.0	NoResponse	0	0.192	n/a	5	26	ButtonPress	MissedWin	True
258.718	1.45	Win2	0.7778	n/a	No	2.93	n/a	5.0	NoResponse	0	0.034	257.752	5	26	Feedback	MissedWin	True
260.172	2.93	Win2	0.7778	n/a	No	2.93	n/a	n/a	NoResponse	0	0.0	n/a	5	26	ISIslide	MissedWin	True
263.131	0.25	Lose2	0.75	0.0	No	2.819	0.031	n/a	NoResponse	-1	n/a	n/a	4	27	Cue	Loss	True
263.382	4.05	Lose2	0.75	0.0	No	2.819	0.001	n/a	NoResponse	-1	n/a	n/a	4	27	Fixation	Loss	True
267.427	0.15	Lose2	0.75	0.004	No	2.819	-0.004	4.0	NoResponse	-1	0.185	266.612	4	27	Target	Loss	True
267.577	0.55	Lose2	0.75	n/a	No	2.819	n/a	n/a	NoResponse	-1	n/a	n/a	4	27	Blank	Loss	True
267.612	0.3	Lose2	0.75	0.004	No	2.819	-0.004	4.0	NoResponse	-1	0.185	n/a	4	27	ButtonPress	Loss	True
268.129	1.45	Lose2	0.75	n/a	No	2.819	n/a	5.0	NoResponse	-1	0.037	267.166	4	27	Feedback	Loss	True
269.583	2.819	Lose2	0.75	n/a	No	2.819	n/a	n/a	NoResponse	-1	0.0	n/a	4	27	ISIslide	Loss	True
272.425	0.25	Control	0.7241	0.0	No	2.825	0.025	n/a	NoResponse	0	n/a	n/a	4	28	Cue	Neutral	True
272.676	4.05	Control	0.7241	0.0	No	2.825	0.001	n/a	NoResponse	0	n/a	n/a	4	28	Fixation	Neutral	True
276.721	0.15	Control	0.7241	0.004	No	2.825	-0.004	4.0	NoResponse	0	0.18	275.901	4	28	Target	Neutral	True
276.872	0.55	Control	0.7241	n/a	No	2.825	n/a	n/a	NoResponse	0	n/a	n/a	4	28	Blank	Neutral	True
276.901	0.3	Control	0.7241	0.004	No	2.825	-0.004	4.0	NoResponse	0	0.18	n/a	4	28	ButtonPress	Neutral	True
277.424	1.45	Control	0.7241	n/a	No	2.825	n/a	5.0	NoResponse	0	0.01	276.434	4	28	Feedback	Neutral	True
278.878	2.825	Control	0.7241	n/a	No	2.825	n/a	n/a	NoResponse	0	0.0	n/a	4	28	ISIslide	Neutral	True
281.72	0.25	Lose2	0.7	0.0	No	2.83	0.02	n/a	NoResponse	-1	n/a	n/a	3	29	Cue	Loss	True
281.97	3.95	Lose2	0.7	0.0	No	2.83	0.0	4.0	NoResponse	-1	3.811	284.781	3	29	Fixation	Loss	True
285.781	0.3	Lose2	0.7	0.0	No	2.83	0.0	4.0	NoResponse	-1	3.811	n/a	3	29	ButtonPress	Loss	True
285.916	0.15	Lose2	0.7	0.004	No	2.83	-0.004	n/a	NoResponse	-1	n/a	n/a	3	29	Target	Loss	True
286.066	0.55	Lose2	0.7	n/a	No	2.83	n/a	n/a	NoResponse	-1	n/a	n/a	3	29	Blank	Loss	True
286.618	1.45	Lose2	0.7	n/a	No	2.83	n/a	5.0	NoResponse	-1	0.036	285.654	3	29	Feedback	Loss	True
288.072	2.83	Lose2	0.7	n/a	No	2.83	n/a	n/a	NoResponse	-1	0.0	n/a	3	29	ISIslide	Loss	True
290.931	0.25	Win2	0.6774	0.0	No	2.769	0.031	n/a	NoResponse	0	n/a	n/a	3	30	Cue	MissedWin	True
291.181	3.9	Win2	0.6774	0.0	No	2.769	0.0	n/a	NoResponse	0	n/a	n/a	3	30	Fixation	MissedWin	True
295.093	0.15	Win2	0.6774	0.0	No	2.769	0.012	4.0	NoResponse	0	0.202	294.295	3	30	Target	MissedWin	True
295.227	0.55	Win2	0.6774	n/a	No	2.769	n/a	n/a	NoResponse	0	n/a	n/a	3	30	Blank	MissedWin	True
295.295	0.3	Win2	0.6774	0.0	No	2.769	0.012	4.0	NoResponse	0	0.202	n/a	3	30	ButtonPress	MissedWin	True
295.778	1.45	Win2	0.6774	n/a	No	2.769	n/a	5.0	NoResponse	0	0.047	294.825	3	30	Feedback	MissedWin	True
297.233	2.769	Win2	0.6774	n/a	No	2.769	n/a	n/a	NoResponse	0	0.0	n/a	3	30	ISIslide	MissedWin	True
300.024	0.25	Lose2	0.6562	0.0	No	2.826	0.024	n/a	NoResponse	-1	n/a	n/a	2	31	Cue	Loss	True
300.275	4.05	Lose2	0.6562	0.0	No	2.826	0.001	n/a	NoResponse	-1	n/a	n/a	2	31	Fixation	Loss	True
304.321	0.15	Lose2	0.6562	0.003	No	2.826	-0.003	4.0	NoResponse	-1	0.194	303.515	2	31	Target	Loss	True
304.471	0.55	Lose2	0.6562	n/a	No	2.826	n/a	n/a	NoResponse	-1	n/a	n/a	2	31	Blank	Loss	True
304.515	0.3	Lose2	0.6562	0.003	No	2.826	-0.003	4.0	NoResponse	-1	0.194	n/a	2	31	ButtonPress	Loss	True
305.023	1.45	Lose2	0.6562	n/a	No	2.826	n/a	5.0	NoResponse	-1	0.02	304.043	2	31	Feedback	Loss	True
306.477	2.826	Lose2	0.6562	n/a	No	2.826	n/a	n/a	NoResponse	-1	0.0	n/a	2	31	ISIslide	Loss	True
309.319	0.25	Lose2	0.6364	0.0	No	2.631	0.019	n/a	NoResponse	-1	n/a	n/a	1	32	Cue	Loss	True
309.57	4.15	Lose2	0.6364	0.0	No	2.631	0.001	n/a	NoResponse	-1	n/a	n/a	1	32	Fixation	Loss	True
313.715	0.15	Lose2	0.6364	0.004	No	2.631	-0.004	4.0	NoResponse	-1	0.172	312.887	1	32	Target	Loss	True
313.866	0.55	Lose2	0.6364	n/a	No	2.631	n/a	n/a	NoResponse	-1	n/a	n/a	1	32	Blank	Loss	True
313.887	0.3	Lose2	0.6364	0.004	No	2.631	-0.004	4.0	NoResponse	-1	0.172	n/a	1	32	ButtonPress	Loss	True
314.417	1.45	Lose2	0.6364	n/a	No	2.631	n/a	5.0	NoResponse	-1	0.041	313.458	1	32	Feedback	Loss	True
315.872	2.631	Lose2	0.6364	n/a	No	2.631	n/a	n/a	NoResponse	-1	0.0	n/a	1	32	ISIslide	Loss	True
318.53	0.25	Win2	0.6175999999999999	0.0	No	2.67	0.03	n/a	NoResponse	0	n/a	n/a	1	33	Cue	MissedWin	True
318.78	4.0	Win2	0.6175999999999999	0.0	No	2.67	0.0	n/a	NoResponse	0	n/a	n/a	1	33	Fixation	MissedWin	True
322.776	0.16	Win2	0.6175999999999999	0.004	No	2.67	-0.004	4.0	NoResponse	0	0.186	321.962	1	33	Target	MissedWin	True
322.943	0.54	Win2	0.6175999999999999	n/a	No	2.67	n/a	n/a	NoResponse	0	n/a	n/a	1	33	Blank	MissedWin	True
322.962	0.3	Win2	0.6175999999999999	0.004	No	2.67	-0.004	4.0	NoResponse	0	0.186	n/a	1	33	ButtonPress	MissedWin	True
323.478	1.45	Win2	0.6175999999999999	n/a	No	2.67	n/a	5.0	NoResponse	0	0.007	322.485	1	33	Feedback	MissedWin	True
324.932	2.67	Win2	0.6175999999999999	n/a	No	2.67	n/a	n/a	NoResponse	0	0.0	n/a	1	33	ISIslide	MissedWin	True
327.623	0.25	Lose2	0.6	0.001	No	2.627	0.023	n/a	NoResponse	-1	n/a	n/a	0	34	Cue	Loss	True
327.874	4.05	Lose2	0.6	0.0	No	2.627	0.001	n/a	NoResponse	-1	n/a	n/a	0	34	Fixation	Loss	True
331.92	0.17	Lose2	0.6	0.003	No	2.627	-0.003	4.0	NoResponse	-1	0.215	331.135	0	34	Target	Loss	True
332.103	0.53	Lose2	0.6	n/a	No	2.627	n/a	n/a	NoResponse	-1	n/a	n/a	0	34	Blank	Loss	True
332.135	0.3	Lose2	0.6	0.003	No	2.627	-0.003	4.0	NoResponse	-1	0.215	n/a	0	34	ButtonPress	Loss	True
332.622	1.45	Lose2	0.6	n/a	No	2.627	n/a	5.0	NoResponse	-1	0.031	331.653	0	34	Feedback	Loss	True
334.076	2.627	Lose2	0.6	n/a	No	2.627	n/a	n/a	NoResponse	-1	0.0	n/a	0	34	ISIslide	Loss	True
336.717	0.25	Lose2	0.5832999999999999	0.0	No	2.683	0.017	n/a	NoResponse	-1	n/a	n/a	-1	35	Cue	Loss	True
336.968	4.0	Lose2	0.5832999999999999	0.0	No	2.683	0.001	n/a	NoResponse	-1	n/a	n/a	-1	35	Fixation	Loss	True
340.963	0.18	Lose2	0.5832999999999999	0.004	No	2.683	-0.004	4.0	NoResponse	-1	0.193	340.156	-1	35	Target	Loss	True
341.147	0.52	Lose2	0.5832999999999999	n/a	No	2.683	n/a	n/a	NoResponse	-1	n/a	n/a	-1	35	Blank	Loss	True
341.156	0.3	Lose2	0.5832999999999999	0.004	No	2.683	-0.004	4.0	NoResponse	-1	0.193	n/a	-1	35	ButtonPress	Loss	True
341.665	1.45	Lose2	0.5832999999999999	n/a	No	2.683	n/a	5.0	NoResponse	-1	0.012	340.677	-1	35	Feedback	Loss	True
343.12	2.683	Lose2	0.5832999999999999	n/a	No	2.683	n/a	n/a	NoResponse	-1	0.0	n/a	-1	35	ISIslide	Loss	True
345.828	0.25	Control	0.5946	0.0	Yes	2.672	0.028	n/a	GoodResponse	0	n/a	n/a	-1	36	Cue	Neutral	True
346.079	4.0	Control	0.5946	0.0	Yes	2.672	0.001	n/a	GoodResponse	0	n/a	n/a	-1	36	Fixation	Neutral	True
350.074	0.19	Control	0.5946	0.004	Yes	2.672	-0.004	4.0	GoodResponse	0	0.183	349.257	-1	36	Target	Neutral	True
350.257	0.3	Control	0.5946	0.004	Yes	2.672	-0.004	4.0	GoodResponse	0	0.183	n/a	-1	36	ButtonPress	Neutral	True
350.274	0.51	Control	0.5946	n/a	Yes	2.672	n/a	n/a	GoodResponse	0	n/a	n/a	-1	36	Blank	Neutral	True
350.776	1.45	Control	0.5946	n/a	Yes	2.672	n/a	5.0	GoodResponse	0	0.023	349.799	-1	36	Feedback	Neutral	True
352.23	2.672	Control	0.5946	n/a	Yes	2.672	n/a	n/a	GoodResponse	0	0.0	n/a	-1	36	ISIslide	Neutral	True
354.922	0.25	Win2	0.6053000000000001	0.0	Yes	2.878	0.022	n/a	GoodResponse	1	n/a	n/a	0	37	Cue	Win	False
355.172	4.0	Win2	0.6053000000000001	0.0	Yes	2.878	0.0	4.0	GoodResponse	1	3.563	357.735	0	37	Fixation	Win	False
358.735	0.3	Win2	0.6053000000000001	0.0	Yes	2.878	0.0	4.0	GoodResponse	1	3.563	n/a	0	37	ButtonPress	Win	False
359.168	0.2	Win2	0.6053000000000001	0.004	Yes	2.878	-0.004	4.0	GoodResponse	1	0.157	358.325	0	37	Target	Win	False
359.325	0.3	Win2	0.6053000000000001	0.004	Yes	2.878	-0.004	4.0	GoodResponse	1	0.157	n/a	0	37	ButtonPress	Win	False
359.368	0.5	Win2	0.6053000000000001	n/a	Yes	2.878	n/a	n/a	GoodResponse	1	n/a	n/a	0	37	Blank	Win	False
359.87	1.45	Win2	0.6053000000000001	n/a	Yes	2.878	n/a	5.0	GoodResponse	1	0.002	358.872	0	37	Feedback	Win	False
361.324	2.878	Win2	0.6053000000000001	n/a	Yes	2.878	n/a	n/a	GoodResponse	1	0.0	n/a	0	37	ISIslide	Win	False
364.216	0.25	Lose2	0.5897	0.0	No	2.834	0.016	n/a	LatePress	-1	n/a	n/a	-1	38	Cue	Loss	True
364.467	3.95	Lose2	0.5897	0.0	No	2.834	0.001	n/a	LatePress	-1	n/a	n/a	-1	38	Fixation	Loss	True
368.412	0.21	Lose2	0.5897	0.004	No	2.834	-0.004	4.0	LatePress	-1	0.215	367.627	-1	38	Target	Loss	True
368.627	0.3	Lose2	0.5897	0.004	No	2.834	-0.004	4.0	LatePress	-1	0.215	n/a	-1	38	ButtonPress	Loss	True
368.629	0.49	Lose2	0.5897	n/a	No	2.834	n/a	n/a	LatePress	-1	n/a	n/a	-1	38	Blank	Loss	True
369.114	1.45	Lose2	0.5897	n/a	No	2.834	n/a	5.0	LatePress	-1	0.027	368.141	-1	38	Feedback	Loss	True
370.568	2.834	Lose2	0.5897	n/a	No	2.834	n/a	n/a	LatePress	-1	0.0	n/a	-1	38	ISIslide	Loss	True
373.427	0.25	Win2	0.6	0.0	Yes	2.973	0.027	n/a	GoodResponse	1	n/a	n/a	0	39	Cue	Win	True
373.678	4.1	Win2	0.6	0.0	Yes	2.973	0.001	n/a	GoodResponse	1	n/a	n/a	0	39	Fixation	Win	True
377.773	0.22	Win2	0.6	0.004	Yes	2.973	-0.004	4.0	GoodResponse	1	0.21	376.983	0	39	Target	Win	True
377.983	0.3	Win2	0.6	0.004	Yes	2.973	-0.004	4.0	GoodResponse	1	0.21	n/a	0	39	ButtonPress	Win	True
378.007	0.48	Win2	0.6	n/a	Yes	2.973	n/a	n/a	GoodResponse	1	n/a	n/a	0	39	Blank	Win	True
378.475	1.45	Win2	0.6	n/a	Yes	2.973	n/a	5.0	GoodResponse	1	0.031	377.506	0	39	Feedback	Win	True
379.93	2.973	Win2	0.6	n/a	Yes	2.973	n/a	n/a	GoodResponse	1	0.0	n/a	0	39	ISIslide	Win	True
382.922	0.25	Win2	0.6098	0.0	Yes	2.728	0.022	n/a	GoodResponse	1	n/a	n/a	1	40	Cue	Win	True
383.173	3.95	Win2	0.6098	0.0	Yes	2.728	0.001	n/a	GoodResponse	1	n/a	n/a	1	40	Fixation	Win	True
387.118	0.23	Win2	0.6098	0.004	Yes	2.728	-0.004	4.0	GoodResponse	1	0.202	386.32	1	40	Target	Win	True
387.32	0.3	Win2	0.6098	0.004	Yes	2.728	-0.004	4.0	GoodResponse	1	0.202	n/a	1	40	ButtonPress	Win	True
387.352	0.47	Win2	0.6098	n/a	Yes	2.728	n/a	n/a	GoodResponse	1	n/a	n/a	1	40	Blank	Win	True
387.82	1.45	Win2	0.6098	n/a	Yes	2.728	n/a	5.0	GoodResponse	1	0.007	386.827	1	40	Feedback	Win	True
389.274	2.728	Win2	0.6098	n/a	Yes	2.728	n/a	n/a	GoodResponse	1	0.0	n/a	1	40	ISIslide	Win	True
392.016	0.25	Win2	0.619	0.0	Yes	2.784	0.016	n/a	GoodResponse	1	n/a	n/a	2	41	Cue	Win	True
392.266	3.9	Win2	0.619	0.001	Yes	2.784	0.0	n/a	GoodResponse	1	n/a	n/a	2	41	Fixation	Win	True
396.178	0.24	Win2	0.619	0.0	Yes	2.784	0.012	4.0	GoodResponse	1	0.181	395.359	2	41	Target	Win	True
396.359	0.3	Win2	0.619	0.0	Yes	2.784	0.012	4.0	GoodResponse	1	0.181	n/a	2	41	ButtonPress	Win	True
396.412	0.46	Win2	0.619	n/a	Yes	2.784	n/a	n/a	GoodResponse	1	n/a	n/a	2	41	Blank	Win	True
396.864	1.45	Win2	0.619	n/a	Yes	2.784	n/a	5.0	GoodResponse	1	0.032	395.896	2	41	Feedback	Win	True
398.318	2.784	Win2	0.619	n/a	Yes	2.784	n/a	n/a	GoodResponse	1	0.0	n/a	2	41	ISIslide	Win	True
401.126	0.25	Control	0.6279	0.0	Yes	2.924	0.026	n/a	GoodResponse	0	n/a	n/a	2	42	Cue	Neutral	True
401.377	3.85	Control	0.6279	0.0	Yes	2.924	0.001	n/a	GoodResponse	0	n/a	n/a	2	42	Fixation	Neutral	True
405.222	0.25	Control	0.6279	0.004	Yes	2.924	-0.004	4.0	GoodResponse	0	0.185	404.407	2	42	Target	Neutral	True
405.407	0.3	Control	0.6279	0.004	Yes	2.924	-0.004	4.0	GoodResponse	0	0.185	n/a	2	42	ButtonPress	Neutral	True
405.473	0.45	Control	0.6279	n/a	Yes	2.924	n/a	n/a	GoodResponse	0	n/a	n/a	2	42	Blank	Neutral	True
405.924	1.45	Control	0.6279	n/a	Yes	2.924	n/a	5.0	GoodResponse	0	0.045	404.969	2	42	Feedback	Neutral	True
407.378	2.924	Control	0.6279	n/a	Yes	2.924	n/a	n/a	GoodResponse	0	0.0	n/a	2	42	ISIslide	Neutral	True
410.32	0.25	Win2	0.6364	0.0	Yes	3.18	0.02	n/a	GoodResponse	1	n/a	n/a	3	43	Cue	Win	True
410.571	4.0	Win2	0.6364	0.0	Yes	3.18	0.001	n/a	GoodResponse	1	n/a	n/a	3	43	Fixation	Win	True
414.566	0.26	Win2	0.6364	0.004	Yes	3.18	-0.004	4.0	GoodResponse	1	0.177	413.743	3	43	Target	Win	True
414.743	0.3	Win2	0.6364	0.004	Yes	3.18	-0.004	4.0	GoodResponse	1	0.177	n/a	3	43	ButtonPress	Win	True
414.834	0.44	Win2	0.6364	n/a	Yes	3.18	n/a	n/a	GoodResponse	1	n/a	n/a	3	43	Blank	Win	True
415.269	1.45	Win2	0.6364	n/a	Yes	3.18	n/a	5.0	GoodResponse	1	0.017	414.286	3	43	Feedback	Win	True
416.723	3.18	Win2	0.6364	n/a	Yes	3.18	n/a	n/a	GoodResponse	1	0.0	n/a	3	43	ISIslide	Win	True
419.916	0.25	Win2	0.6444	0.0	Yes	2.984	0.016	n/a	GoodResponse	1	n/a	n/a	4	44	Cue	Win	True
420.166	4.0	Win2	0.6444	0.001	Yes	2.984	0.0	n/a	GoodResponse	1	n/a	n/a	4	44	Fixation	Win	True
424.162	0.27	Win2	0.6444	0.004	Yes	2.984	-0.004	4.0	GoodResponse	1	0.22	423.382	4	44	Target	Win	True
424.382	0.3	Win2	0.6444	0.004	Yes	2.984	-0.004	4.0	GoodResponse	1	0.22	n/a	4	44	ButtonPress	Win	True
424.446	0.43	Win2	0.6444	n/a	Yes	2.984	n/a	n/a	GoodResponse	1	n/a	n/a	4	44	Blank	Win	True
424.864	1.45	Win2	0.6444	n/a	Yes	2.984	n/a	5.0	GoodResponse	1	0.031	423.895	4	44	Feedback	Win	True
426.318	2.984	Win2	0.6444	n/a	Yes	2.984	n/a	n/a	GoodResponse	1	0.0	n/a	4	44	ISIslide	Win	True
429.327	0.25	Control	0.6522	0.0	Yes	2.873	0.027	n/a	GoodResponse	0	n/a	n/a	4	45	Cue	Neutral	True
429.578	4.1	Control	0.6522	0.0	Yes	2.873	0.001	n/a	GoodResponse	0	n/a	n/a	4	45	Fixation	Neutral	True
433.673	0.28	Control	0.6522	0.004	Yes	2.873	-0.004	4.0	GoodResponse	0	0.202	432.875	4	45	Target	Neutral	True
433.875	0.3	Control	0.6522	0.004	Yes	2.873	-0.004	4.0	GoodResponse	0	0.202	n/a	4	45	ButtonPress	Neutral	True
433.958	0.42	Control	0.6522	n/a	Yes	2.873	n/a	n/a	GoodResponse	0	n/a	n/a	4	45	Blank	Neutral	True
434.376	1.45	Control	0.6522	n/a	Yes	2.873	n/a	5.0	GoodResponse	0	0.032	433.408	4	45	Feedback	Neutral	True
435.83	2.873	Control	0.6522	n/a	Yes	2.873	n/a	n/a	GoodResponse	0	0.0	n/a	4	45	ISIslide	Neutral	True
438.722	0.25	Lose2	0.6596	0.0	Yes	3.378	0.022	n/a	GoodResponse	0	n/a	n/a	4	46	Cue	AvoidedLoss	True
438.973	4.0	Lose2	0.6596	0.0	Yes	3.378	0.001	n/a	GoodResponse	0	n/a	n/a	4	46	Fixation	AvoidedLoss	True
442.968	0.29	Lose2	0.6596	0.004	Yes	3.378	-0.004	4.0	GoodResponse	0	0.179	442.147	4	46	Target	AvoidedLoss	True
443.147	0.3	Lose2	0.6596	0.004	Yes	3.378	-0.004	4.0	GoodResponse	0	0.179	n/a	4	46	ButtonPress	AvoidedLoss	True
443.269	0.41	Lose2	0.6596	n/a	Yes	3.378	n/a	n/a	GoodResponse	0	n/a	n/a	4	46	Blank	AvoidedLoss	True
443.67	1.45	Lose2	0.6596	n/a	Yes	3.378	n/a	5.0	GoodResponse	0	0.007	442.677	4	46	Feedback	AvoidedLoss	True
445.124	3.378	Lose2	0.6596	n/a	Yes	3.378	n/a	n/a	GoodResponse	0	0.0	n/a	4	46	ISIslide	AvoidedLoss	True
448.518	0.25	Lose2	0.6667000000000001	0.0	Yes	2.682	0.018	n/a	GoodResponse	0	n/a	n/a	4	47	Cue	AvoidedLoss	True
448.769	4.0	Lose2	0.6667000000000001	0.0	Yes	2.682	0.001	n/a	GoodResponse	0	n/a	n/a	4	47	Fixation	AvoidedLoss	True
452.764	0.29	Lose2	0.6667000000000001	0.004	Yes	2.682	-0.004	4.0	GoodResponse	0	0.189	451.953	4	47	Target	AvoidedLoss	True
452.953	0.3	Lose2	0.6667000000000001	0.004	Yes	2.682	-0.004	4.0	GoodResponse	0	0.189	n/a	4	47	ButtonPress	AvoidedLoss	True
453.065	0.41	Lose2	0.6667000000000001	n/a	Yes	2.682	n/a	n/a	GoodResponse	0	n/a	n/a	4	47	Blank	AvoidedLoss	True
453.466	1.45	Lose2	0.6667000000000001	n/a	Yes	2.682	n/a	5.0	GoodResponse	0	0.014	452.48	4	47	Feedback	AvoidedLoss	True
454.92	2.682	Lose2	0.6667000000000001	n/a	Yes	2.682	n/a	n/a	GoodResponse	0	0.0	n/a	4	47	ISIslide	AvoidedLoss	True
457.628	0.25	Lose2	0.6735	0.0	Yes	3.022	0.028	n/a	GoodResponse	0	n/a	n/a	4	48	Cue	AvoidedLoss	True
457.879	3.95	Lose2	0.6735	0.0	Yes	3.022	0.001	n/a	GoodResponse	0	n/a	n/a	4	48	Fixation	AvoidedLoss	True
461.824	0.28	Lose2	0.6735	0.004	Yes	3.022	-0.004	4.0	GoodResponse	0	0.197	461.021	4	48	Target	AvoidedLoss	True
462.021	0.3	Lose2	0.6735	0.004	Yes	3.022	-0.004	4.0	GoodResponse	0	0.197	n/a	4	48	ButtonPress	AvoidedLoss	True
462.108	0.42	Lose2	0.6735	n/a	Yes	3.022	n/a	n/a	GoodResponse	0	n/a	n/a	4	48	Blank	AvoidedLoss	True
462.526	1.45	Lose2	0.6735	n/a	Yes	3.022	n/a	5.0	GoodResponse	0	0.027	461.553	4	48	Feedback	AvoidedLoss	True
463.981	3.022	Lose2	0.6735	n/a	Yes	3.022	n/a	n/a	GoodResponse	0	0.0	n/a	4	48	ISIslide	AvoidedLoss	True
467.023	0.25	Control	0.68	0.0	Yes	2.877	0.023	n/a	GoodResponse	0	n/a	n/a	4	49	Cue	Neutral	True
467.274	4.0	Control	0.68	0.0	Yes	2.877	0.001	n/a	GoodResponse	0	n/a	n/a	4	49	Fixation	Neutral	True
471.269	0.27	Control	0.68	0.004	Yes	2.877	-0.004	4.0	GoodResponse	0	0.193	470.462	4	49	Target	Neutral	True
471.462	0.3	Control	0.68	0.004	Yes	2.877	-0.004	4.0	GoodResponse	0	0.193	n/a	4	49	ButtonPress	Neutral	True
471.553	0.43	Control	0.68	n/a	Yes	2.877	n/a	n/a	GoodResponse	0	n/a	n/a	4	49	Blank	Neutral	True
471.971	1.45	Control	0.68	n/a	Yes	2.877	n/a	5.0	GoodResponse	0	0.046	471.017	4	49	Feedback	Neutral	True
473.426	2.877	Control	0.68	n/a	Yes	2.877	n/a	n/a	GoodResponse	0	0.0	n/a	4	49	ISIslide	Neutral	True
476.318	0.25	Control	0.6862999999999999	0.0	Yes	2.782	0.018	n/a	GoodResponse	0	n/a	n/a	4	50	Cue	Neutral	True
476.568	4.0	Control	0.6862999999999999	0.0	Yes	2.782	0.0	n/a	GoodResponse	0	n/a	n/a	4	50	Fixation	Neutral	True
480.564	0.26	Control	0.6862999999999999	0.004	Yes	2.782	-0.004	4.0	GoodResponse	0	0.183	479.747	4	50	Target	Neutral	True
480.747	0.3	Control	0.6862999999999999	0.004	Yes	2.782	-0.004	4.0	GoodResponse	0	0.183	n/a	4	50	ButtonPress	Neutral	True
480.831	0.44	Control	0.6862999999999999	n/a	Yes	2.782	n/a	n/a	GoodResponse	0	n/a	n/a	4	50	Blank	Neutral	True
481.266	1.45	Control	0.6862999999999999	n/a	Yes	2.782	n/a	5.0	GoodResponse	0	0.019	480.285	4	50	Feedback	Neutral	True
482.72	2.782	Control	0.6862999999999999	n/a	Yes	2.782	n/a	n/a	GoodResponse	0	0.0	n/a	4	50	ISIslide	Neutral	True
485.528	0.25	Control	0.6923	0.001	Yes	2.722	0.028	n/a	GoodResponse	0	n/a	n/a	4	51	Cue	Neutral	True
485.779	3.95	Control	0.6923	0.0	Yes	2.722	0.001	n/a	GoodResponse	0	n/a	n/a	4	51	Fixation	Neutral	True
489.724	0.25	Control	0.6923	0.004	Yes	2.722	-0.004	4.0	GoodResponse	0	0.201	488.925	4	51	Target	Neutral	True
489.925	0.3	Control	0.6923	0.004	Yes	2.722	-0.004	4.0	GoodResponse	0	0.201	n/a	4	51	ButtonPress	Neutral	True
489.975	0.45	Control	0.6923	n/a	Yes	2.722	n/a	n/a	GoodResponse	0	n/a	n/a	4	51	Blank	Neutral	True
490.426	1.45	Control	0.6923	n/a	Yes	2.722	n/a	5.0	GoodResponse	0	0.029	489.455	4	51	Feedback	Neutral	True
491.881	2.722	Control	0.6923	n/a	Yes	2.722	n/a	n/a	GoodResponse	0	0.0	n/a	4	51	ISIslide	Neutral	True
494.622	0.25	Control	0.6981	0.0	Yes	2.628	0.022	n/a	GoodResponse	0	n/a	n/a	4	52	Cue	Neutral	True
494.873	4.05	Control	0.6981	0.0	Yes	2.628	0.001	n/a	GoodResponse	0	n/a	n/a	4	52	Fixation	Neutral	True
498.918	0.24	Control	0.6981	0.004	Yes	2.628	-0.004	4.0	GoodResponse	0	0.15	498.068	4	52	Target	Neutral	True
499.068	0.3	Control	0.6981	0.004	Yes	2.628	-0.004	4.0	GoodResponse	0	0.15	n/a	4	52	ButtonPress	Neutral	True
499.169	0.46	Control	0.6981	n/a	Yes	2.628	n/a	n/a	GoodResponse	0	n/a	n/a	4	52	Blank	Neutral	True
499.62	1.45	Control	0.6981	n/a	Yes	2.628	n/a	5.0	GoodResponse	0	0.006	498.626	4	52	Feedback	Neutral	True
501.075	2.628	Control	0.6981	n/a	Yes	2.628	n/a	n/a	GoodResponse	0	0.0	n/a	4	52	ISIslide	Neutral	True
503.716	0.25	Win2	0.7037	0.0	Yes	2.934	0.016	n/a	GoodResponse	1	n/a	n/a	5	53	Cue	Win	True
503.967	4.05	Win2	0.7037	0.0	Yes	2.934	0.001	n/a	GoodResponse	1	n/a	n/a	5	53	Fixation	Win	True
508.012	0.23	Win2	0.7037	0.004	Yes	2.934	-0.004	4.0	GoodResponse	1	0.195	507.207	5	53	Target	Win	True
508.207	0.3	Win2	0.7037	0.004	Yes	2.934	-0.004	4.0	GoodResponse	1	0.195	n/a	5	53	ButtonPress	Win	True
508.246	0.47	Win2	0.7037	n/a	Yes	2.934	n/a	n/a	GoodResponse	1	n/a	n/a	5	53	Blank	Win	True
508.714	1.45	Win2	0.7037	n/a	Yes	2.934	n/a	5.0	GoodResponse	1	0.034	507.748	5	53	Feedback	Win	True
510.169	2.934	Win2	0.7037	n/a	Yes	2.934	n/a	n/a	GoodResponse	1	0.0	n/a	5	53	ISIslide	Win	True
513.127	0.25	Win2	0.7091	0.001	Yes	2.723	0.027	n/a	GoodResponse	1	n/a	n/a	6	54	Cue	Win	True
513.378	3.95	Win2	0.7091	0.0	Yes	2.723	0.001	n/a	GoodResponse	1	n/a	n/a	6	54	Fixation	Win	True
517.323	0.22	Win2	0.7091	0.004	Yes	2.723	-0.004	4.0	GoodResponse	1	0.191	516.514	6	54	Target	Win	True
517.514	0.3	Win2	0.7091	0.004	Yes	2.723	-0.004	4.0	GoodResponse	1	0.191	n/a	6	54	ButtonPress	Win	True
517.557	0.48	Win2	0.7091	n/a	Yes	2.723	n/a	n/a	GoodResponse	1	n/a	n/a	6	54	Blank	Win	True
518.025	1.45	Win2	0.7091	n/a	Yes	2.723	n/a	5.0	GoodResponse	1	0.04	517.065	6	54	Feedback	Win	True
519.48	2.723	Win2	0.7091	n/a	Yes	2.723	n/a	n/a	GoodResponse	1	0.0	n/a	6	54	ISIslide	Win	True
522.221	0.25	Control	0.7143	0.0	Yes	3.029	0.021	n/a	GoodResponse	0	n/a	n/a	6	55	Cue	Neutral	True
522.472	3.95	Control	0.7143	0.0	Yes	3.029	0.001	n/a	GoodResponse	0	n/a	n/a	6	55	Fixation	Neutral	True
526.417	0.21	Control	0.7143	0.004	Yes	3.029	-0.004	4.0	GoodResponse	0	0.192	525.609	6	55	Target	Neutral	True
526.609	0.3	Control	0.7143	0.004	Yes	3.029	-0.004	4.0	GoodResponse	0	0.192	n/a	6	55	ButtonPress	Neutral	True
526.634	0.49	Control	0.7143	n/a	Yes	3.029	n/a	n/a	GoodResponse	0	n/a	n/a	6	55	Blank	Neutral	True
527.119	1.45	Control	0.7143	n/a	Yes	3.029	n/a	5.0	GoodResponse	0	0.018	526.137	6	55	Feedback	Neutral	True
528.574	3.029	Control	0.7143	n/a	Yes	3.029	n/a	n/a	GoodResponse	0	0.0	n/a	6	55	ISIslide	Neutral	True
531.616	0.25	Control	0.7193	0.0	Yes	2.834	0.016	n/a	GoodResponse	0	n/a	n/a	6	56	Cue	Neutral	True
531.867	3.95	Control	0.7193	0.0	Yes	2.834	0.001	n/a	GoodResponse	0	n/a	n/a	6	56	Fixation	Neutral	True
535.812	0.2	Control	0.7193	0.004	Yes	2.834	-0.004	4.0	GoodResponse	0	0.185	534.997	6	56	Target	Neutral	True
535.997	0.3	Control	0.7193	0.004	Yes	2.834	-0.004	4.0	GoodResponse	0	0.185	n/a	6	56	ButtonPress	Neutral	True
536.012	0.5	Control	0.7193	n/a	Yes	2.834	n/a	n/a	GoodResponse	0	n/a	n/a	6	56	Blank	Neutral	True
536.514	1.45	Control	0.7193	n/a	Yes	2.834	n/a	5.0	GoodResponse	0	0.038	535.552	6	56	Feedback	Neutral	True
537.968	2.834	Control	0.7193	n/a	Yes	2.834	n/a	n/a	GoodResponse	0	0.0	n/a	6	56	ISIslide	Neutral	True
540.827	0.25	Control	0.7241	0.0	Yes	3.473	0.027	n/a	GoodResponse	0	n/a	n/a	6	57	Cue	Neutral	True
541.078	4.0	Control	0.7241	0.0	Yes	3.473	0.001	n/a	GoodResponse	0	n/a	n/a	6	57	Fixation	Neutral	True
545.073	0.19	Control	0.7241	0.004	Yes	3.473	-0.004	4.0	GoodResponse	0	0.17	544.243	6	57	Target	Neutral	True
545.243	0.3	Control	0.7241	0.004	Yes	3.473	-0.004	4.0	GoodResponse	0	0.17	n/a	6	57	ButtonPress	Neutral	True
545.273	0.51	Control	0.7241	n/a	Yes	3.473	n/a	n/a	GoodResponse	0	n/a	n/a	6	57	Blank	Neutral	True
545.775	1.45	Control	0.7241	n/a	Yes	3.473	n/a	5.0	GoodResponse	0	0.046	544.821	6	57	Feedback	Neutral	True
547.229	3.473	Control	0.7241	n/a	Yes	3.473	n/a	n/a	GoodResponse	0	0.0	n/a	6	57	ISIslide	Neutral	True
550.723	0.25	Win2	0.7119	0.0	No	2.727	0.023	n/a	LatePress	0	n/a	n/a	6	58	Cue	MissedWin	True
550.974	4.05	Win2	0.7119	0.0	No	2.727	0.001	n/a	LatePress	0	n/a	n/a	6	58	Fixation	MissedWin	True
555.019	0.18	Win2	0.7119	0.004	No	2.727	-0.004	4.0	LatePress	0	0.181	554.2	6	58	Target	MissedWin	True
555.2	0.3	Win2	0.7119	0.004	No	2.727	-0.004	4.0	LatePress	0	0.181	n/a	6	58	ButtonPress	MissedWin	True
555.203	0.52	Win2	0.7119	n/a	No	2.727	n/a	n/a	LatePress	0	n/a	n/a	6	58	Blank	MissedWin	True
555.721	1.45	Win2	0.7119	n/a	No	2.727	n/a	5.0	LatePress	0	0.002	554.723	6	58	Feedback	MissedWin	True
557.176	2.727	Win2	0.7119	n/a	No	2.727	n/a	n/a	LatePress	0	0.0	n/a	6	58	ISIslide	MissedWin	True
559.917	0.25	Lose2	0.7	0.0	No	2.683	0.017	n/a	LatePress	-1	n/a	n/a	5	59	Cue	Loss	True
560.168	4.0	Lose2	0.7	0.0	No	2.683	0.001	n/a	LatePress	-1	n/a	n/a	5	59	Fixation	Loss	True
564.163	0.17	Lose2	0.7	0.004	No	2.683	-0.004	4.0	LatePress	-1	0.173	563.336	5	59	Target	Loss	True
564.336	0.3	Lose2	0.7	0.004	No	2.683	-0.004	4.0	LatePress	-1	0.173	n/a	5	59	ButtonPress	Loss	True
564.347	0.53	Lose2	0.7	n/a	No	2.683	n/a	n/a	LatePress	-1	n/a	n/a	5	59	Blank	Loss	True
564.865	1.45	Lose2	0.7	n/a	No	2.683	n/a	5.0	LatePress	-1	0.028	563.893	5	59	Feedback	Loss	True
566.32	2.683	Lose2	0.7	n/a	No	2.683	n/a	n/a	LatePress	-1	0.0	n/a	5	59	ISIslide	Loss	True
569.028	0.25	Control	0.6884999999999999	0.0	No	2.672	0.028	n/a	NoResponse	0	n/a	n/a	5	60	Cue	Neutral	True
569.278	4.0	Control	0.6884999999999999	0.001	No	2.672	0.0	n/a	NoResponse	0	n/a	n/a	5	60	Fixation	Neutral	True
573.274	0.16	Control	0.6884999999999999	0.004	No	2.672	-0.004	4.0	NoResponse	0	0.175	572.449	5	60	Target	Neutral	True
573.441	0.54	Control	0.6884999999999999	n/a	No	2.672	n/a	n/a	NoResponse	0	n/a	n/a	5	60	Blank	Neutral	True
573.449	0.3	Control	0.6884999999999999	0.004	No	2.672	-0.004	4.0	NoResponse	0	0.175	n/a	5	60	ButtonPress	Neutral	True
573.976	1.45	Control	0.6884999999999999	n/a	No	2.672	n/a	5.0	NoResponse	0	0.039	573.015	5	60	Feedback	Neutral	True
575.43	2.672	Control	0.6884999999999999	n/a	No	2.672	n/a	n/a	NoResponse	0	0.0	n/a	5	60	ISIslide	Neutral	True
578.122	0.25	Lose2	0.6774	0.0	No	2.978	0.022	n/a	NoResponse	-1	n/a	n/a	4	61	Cue	Loss	True
578.372	4.0	Lose2	0.6774	0.0	No	2.978	0.0	n/a	NoResponse	-1	n/a	n/a	4	61	Fixation	Loss	True
582.368	0.15	Lose2	0.6774	0.004	No	2.978	-0.004	4.0	NoResponse	-1	0.232	581.6	4	61	Target	Loss	True
582.518	0.55	Lose2	0.6774	n/a	No	2.978	n/a	n/a	NoResponse	-1	n/a	n/a	4	61	Blank	Loss	True
582.6	0.3	Lose2	0.6774	0.004	No	2.978	-0.004	4.0	NoResponse	-1	0.232	n/a	4	61	ButtonPress	Loss	True
583.07	1.45	Lose2	0.6774	n/a	No	2.978	n/a	5.0	NoResponse	-1	0.018	582.088	4	61	Feedback	Loss	True
584.524	2.978	Lose2	0.6774	n/a	No	2.978	n/a	n/a	NoResponse	-1	0.0	n/a	4	61	ISIslide	Loss	True
587.516	0.25	Lose2	0.6667000000000001	0.0	No	2.884	0.016	n/a	NoResponse	-1	n/a	n/a	3	62	Cue	Loss	True
587.767	3.9	Lose2	0.6667000000000001	0.0	No	2.884	0.001	n/a	NoResponse	-1	n/a	n/a	3	62	Fixation	Loss	True
591.662	0.15	Lose2	0.6667000000000001	0.004	No	2.884	-0.004	4.0	NoResponse	-1	0.184	590.846	3	62	Target	Loss	True
591.812	0.55	Lose2	0.6667000000000001	n/a	No	2.884	n/a	n/a	NoResponse	-1	n/a	n/a	3	62	Blank	Loss	True
591.846	0.3	Lose2	0.6667000000000001	0.004	No	2.884	-0.004	4.0	NoResponse	-1	0.184	n/a	3	62	ButtonPress	Loss	True
592.364	1.45	Lose2	0.6667000000000001	n/a	No	2.884	n/a	5.0	NoResponse	-1	0.041	591.405	3	62	Feedback	Loss	True
593.818	2.884	Lose2	0.6667000000000001	n/a	No	2.884	n/a	n/a	NoResponse	-1	0.0	n/a	3	62	ISIslide	Loss	True
596.727	0.25	Lose2	0.6562	0.0	No	2.623	0.027	n/a	NoResponse	-1	n/a	n/a	2	63	Cue	Loss	False
596.978	4.05	Lose2	0.6562	0.0	No	2.623	0.001	4.0	NoResponse	-1	3.896	599.874	2	63	Fixation	Loss	False
600.874	0.3	Lose2	0.6562	0.0	No	2.623	0.001	4.0	NoResponse	-1	3.896	n/a	2	63	ButtonPress	Loss	False
601.023	0.15	Lose2	0.6562	0.004	No	2.623	-0.004	4.0	NoResponse	-1	0.21	600.233	2	63	Target	Loss	False
601.174	0.55	Lose2	0.6562	n/a	No	2.623	n/a	n/a	NoResponse	-1	n/a	n/a	2	63	Blank	Loss	False
601.233	0.3	Lose2	0.6562	0.004	No	2.623	-0.004	4.0	NoResponse	-1	0.21	n/a	2	63	ButtonPress	Loss	False
601.725	1.45	Lose2	0.6562	n/a	No	2.623	n/a	5.0	NoResponse	-1	0.045	600.77	2	63	Feedback	Loss	False
603.18	2.623	Lose2	0.6562	n/a	No	2.623	n/a	n/a	NoResponse	-1	0.0	n/a	2	63	ISIslide	Loss	False
605.821	0.25	Win2	0.6462	0.0	No	3.129	0.021	n/a	NoResponse	0	n/a	n/a	2	64	Cue	MissedWin	True
606.072	4.15	Win2	0.6462	0.0	No	3.129	0.001	n/a	NoResponse	0	n/a	n/a	2	64	Fixation	MissedWin	True
610.217	0.15	Win2	0.6462	0.004	No	3.129	-0.004	4.0	NoResponse	0	0.195	609.412	2	64	Target	MissedWin	True
610.368	0.55	Win2	0.6462	n/a	No	3.129	n/a	n/a	NoResponse	0	n/a	n/a	2	64	Blank	MissedWin	True
610.412	0.3	Win2	0.6462	0.004	No	3.129	-0.004	4.0	NoResponse	0	0.195	n/a	2	64	ButtonPress	MissedWin	True
610.92	1.45	Win2	0.6462	n/a	No	3.129	n/a	5.0	NoResponse	0	0.021	609.941	2	64	Feedback	MissedWin	True
612.374	3.129	Win2	0.6462	n/a	No	3.129	n/a	n/a	NoResponse	0	0.0	n/a	2	64	ISIslide	MissedWin	True
615.517	0.25	Control	0.6364	0.0	No	2.783	0.017	n/a	NoResponse	0	n/a	n/a	2	65	Cue	Neutral	True
615.767	4.0	Control	0.6364	0.0	No	2.783	0.0	n/a	NoResponse	0	n/a	n/a	2	65	Fixation	Neutral	True
619.763	0.16	Control	0.6364	0.004	No	2.783	-0.004	4.0	NoResponse	0	0.201	618.964	2	65	Target	Neutral	True
619.93	0.54	Control	0.6364	n/a	No	2.783	n/a	n/a	NoResponse	0	n/a	n/a	2	65	Blank	Neutral	True
619.964	0.3	Control	0.6364	0.004	No	2.783	-0.004	4.0	NoResponse	0	0.201	n/a	2	65	ButtonPress	Neutral	True
620.465	1.45	Control	0.6364	n/a	No	2.783	n/a	5.0	NoResponse	0	0.037	619.502	2	65	Feedback	Neutral	True
621.919	2.783	Control	0.6364	n/a	No	2.783	n/a	n/a	NoResponse	0	0.0	n/a	2	65	ISIslide	Neutral	True
624.727	0.25	Win2	0.6269	0.0	No	2.773	0.027	n/a	NoResponse	0	n/a	n/a	2	66	Cue	MissedWin	True
624.978	3.9	Win2	0.6269	0.0	No	2.773	0.001	n/a	NoResponse	0	n/a	n/a	2	66	Fixation	MissedWin	True
628.873	0.17	Win2	0.6269	0.004	No	2.773	-0.004	4.0	NoResponse	0	0.193	628.066	2	66	Target	MissedWin	True
629.057	0.53	Win2	0.6269	n/a	No	2.773	n/a	n/a	NoResponse	0	n/a	n/a	2	66	Blank	MissedWin	True
629.066	0.3	Win2	0.6269	0.004	No	2.773	-0.004	4.0	NoResponse	0	0.193	n/a	2	66	ButtonPress	MissedWin	True
629.575	1.45	Win2	0.6269	n/a	No	2.773	n/a	5.0	NoResponse	0	0.001	628.576	2	66	Feedback	MissedWin	True
631.03	2.773	Win2	0.6269	n/a	No	2.773	n/a	n/a	NoResponse	0	0.0	n/a	2	66	ISIslide	MissedWin	True
633.821	0.25	Control	0.6175999999999999	0.0	No	2.729	0.021	n/a	NoResponse	0	n/a	n/a	2	67	Cue	Neutral	True
634.072	3.95	Control	0.6175999999999999	0.0	No	2.729	0.001	n/a	NoResponse	0	n/a	n/a	2	67	Fixation	Neutral	True
638.017	0.18	Control	0.6175999999999999	0.004	No	2.729	-0.004	4.0	NoResponse	0	0.184	637.201	2	67	Target	Neutral	True
638.201	0.52	Control	0.6175999999999999	n/a	No	2.729	n/a	n/a	NoResponse	0	n/a	n/a	2	67	Blank	Neutral	True
638.201	0.3	Control	0.6175999999999999	0.004	No	2.729	-0.004	4.0	NoResponse	0	0.184	n/a	2	67	ButtonPress	Neutral	True
638.719	1.45	Control	0.6175999999999999	n/a	No	2.729	n/a	5.0	NoResponse	0	0.026	637.745	2	67	Feedback	Neutral	True
640.174	2.729	Control	0.6175999999999999	n/a	No	2.729	n/a	n/a	NoResponse	0	0.0	n/a	2	67	ISIslide	Neutral	True
642.915	0.25	Win2	0.6232	0.0	Yes	3.085	0.015	n/a	GoodResponse	1	n/a	n/a	3	68	Cue	Win	True
643.166	4.0	Win2	0.6232	0.0	Yes	3.085	0.001	n/a	GoodResponse	1	n/a	n/a	3	68	Fixation	Win	True
647.161	0.19	Win2	0.6232	0.004	Yes	3.085	-0.004	4.0	GoodResponse	1	0.179	646.34	3	68	Target	Win	True
647.34	0.3	Win2	0.6232	0.004	Yes	3.085	-0.004	4.0	GoodResponse	1	0.179	n/a	3	68	ButtonPress	Win	True
647.362	0.51	Win2	0.6232	n/a	Yes	3.085	n/a	n/a	GoodResponse	1	n/a	n/a	3	68	Blank	Win	True
647.863	1.45	Win2	0.6232	n/a	Yes	3.085	n/a	5.0	GoodResponse	1	0.006	646.869	3	68	Feedback	Win	True
649.318	3.085	Win2	0.6232	n/a	Yes	3.085	n/a	n/a	GoodResponse	1	0.0	n/a	3	68	ISIslide	Win	True
652.427	0.25	Win2	0.6286	0.0	Yes	3.223	0.027	n/a	GoodResponse	1	n/a	n/a	4	69	Cue	Win	True
652.678	3.95	Win2	0.6286	0.0	Yes	3.223	0.001	n/a	GoodResponse	1	n/a	n/a	4	69	Fixation	Win	True
656.623	0.2	Win2	0.6286	0.004	Yes	3.223	-0.004	4.0	GoodResponse	1	0.178	655.801	4	69	Target	Win	True
656.801	0.3	Win2	0.6286	0.004	Yes	3.223	-0.004	4.0	GoodResponse	1	0.178	n/a	4	69	ButtonPress	Win	True
656.823	0.5	Win2	0.6286	n/a	Yes	3.223	n/a	n/a	GoodResponse	1	n/a	n/a	4	69	Blank	Win	True
657.325	1.45	Win2	0.6286	n/a	Yes	3.223	n/a	5.0	GoodResponse	1	0.007	656.332	4	69	Feedback	Win	True
658.779	3.223	Win2	0.6286	n/a	Yes	3.223	n/a	n/a	GoodResponse	1	0.0	n/a	4	69	ISIslide	Win	True
662.022	0.25	Lose2	0.6338	0.0	Yes	3.028	0.022	n/a	GoodResponse	0	n/a	n/a	4	70	Cue	AvoidedLoss	True
662.273	4.05	Lose2	0.6338	0.0	Yes	3.028	0.001	n/a	GoodResponse	0	n/a	n/a	4	70	Fixation	AvoidedLoss	True
666.318	0.21	Lose2	0.6338	0.004	Yes	3.028	-0.004	4.0	GoodResponse	0	0.2	665.518	4	70	Target	AvoidedLoss	True
666.518	0.3	Lose2	0.6338	0.004	Yes	3.028	-0.004	4.0	GoodResponse	0	0.2	n/a	4	70	ButtonPress	AvoidedLoss	True
666.536	0.49	Lose2	0.6338	n/a	Yes	3.028	n/a	n/a	GoodResponse	0	n/a	n/a	4	70	Blank	AvoidedLoss	True
667.02	1.45	Lose2	0.6338	n/a	Yes	3.028	n/a	5.0	GoodResponse	0	0.018	666.038	4	70	Feedback	AvoidedLoss	True
668.475	3.028	Lose2	0.6338	n/a	Yes	3.028	n/a	n/a	GoodResponse	0	0.0	n/a	4	70	ISIslide	AvoidedLoss	True
671.517	0.25	Win2	0.625	0.0	No	2.733	0.017	n/a	LatePress	0	n/a	n/a	4	71	Cue	MissedWin	True
671.768	4.05	Win2	0.625	0.0	No	2.733	0.001	n/a	LatePress	0	n/a	n/a	4	71	Fixation	MissedWin	True
675.813	0.22	Win2	0.625	0.004	No	2.733	-0.004	4.0	LatePress	0	0.228	675.041	4	71	Target	MissedWin	True
676.041	0.3	Win2	0.625	0.004	No	2.733	-0.004	4.0	LatePress	0	0.228	n/a	4	71	ButtonPress	MissedWin	True
676.047	0.48	Win2	0.625	n/a	No	2.733	n/a	n/a	LatePress	0	n/a	n/a	4	71	Blank	MissedWin	True
676.515	1.45	Win2	0.625	n/a	No	2.733	n/a	5.0	LatePress	0	0.035	675.55	4	71	Feedback	MissedWin	True
677.97	2.733	Win2	0.625	n/a	No	2.733	n/a	n/a	LatePress	0	0.0	n/a	4	71	ISIslide	MissedWin	True
680.728	0.25	Win2	0.6301	0.0	Yes	2.772	0.028	n/a	GoodResponse	1	n/a	n/a	5	72	Cue	Win	True
680.979	4.1	Win2	0.6301	0.0	Yes	2.772	0.001	n/a	GoodResponse	1	n/a	n/a	5	72	Fixation	Win	True
685.074	0.23	Win2	0.6301	0.004	Yes	2.772	-0.004	4.0	GoodResponse	1	0.218	684.292	5	72	Target	Win	True
685.292	0.3	Win2	0.6301	0.004	Yes	2.772	-0.004	4.0	GoodResponse	1	0.218	n/a	5	72	ButtonPress	Win	True
685.308	0.47	Win2	0.6301	n/a	Yes	2.772	n/a	n/a	GoodResponse	1	n/a	n/a	5	72	Blank	Win	True
685.776	1.45	Win2	0.6301	n/a	Yes	2.772	n/a	5.0	GoodResponse	1	0.042	684.818	5	72	Feedback	Win	True
687.231	2.772	Win2	0.6301	n/a	Yes	2.772	n/a	n/a	GoodResponse	1	0.0	n/a	5	72	ISIslide	Win	True
690.022	0.25	Win2	0.6351	0.0	Yes	2.678	0.022	n/a	GoodResponse	1	n/a	n/a	6	73	Cue	Win	True
690.273	4.0	Win2	0.6351	0.0	Yes	2.678	0.001	n/a	GoodResponse	1	n/a	n/a	6	73	Fixation	Win	True
694.268	0.24	Win2	0.6351	0.004	Yes	2.678	-0.004	4.0	GoodResponse	1	0.183	693.451	6	73	Target	Win	True
694.451	0.3	Win2	0.6351	0.004	Yes	2.678	-0.004	4.0	GoodResponse	1	0.183	n/a	6	73	ButtonPress	Win	True
694.519	0.46	Win2	0.6351	n/a	Yes	2.678	n/a	n/a	GoodResponse	1	n/a	n/a	6	73	Blank	Win	True
694.971	1.45	Win2	0.6351	n/a	Yes	2.678	n/a	5.0	GoodResponse	1	0.018	693.989	6	73	Feedback	Win	True
696.425	2.678	Win2	0.6351	n/a	Yes	2.678	n/a	n/a	GoodResponse	1	0.0	n/a	6	73	ISIslide	Win	True
699.116	0.25	Lose2	0.64	0.0	Yes	2.634	0.016	n/a	GoodResponse	0	n/a	n/a	6	74	Cue	AvoidedLoss	True
699.367	4.05	Lose2	0.64	0.0	Yes	2.634	0.001	n/a	GoodResponse	0	n/a	n/a	6	74	Fixation	AvoidedLoss	True
703.412	0.25	Lose2	0.64	0.004	Yes	2.634	-0.004	4.0	GoodResponse	0	0.184	702.596	6	74	Target	AvoidedLoss	True
703.596	0.3	Lose2	0.64	0.004	Yes	2.634	-0.004	4.0	GoodResponse	0	0.184	n/a	6	74	ButtonPress	AvoidedLoss	True
703.663	0.45	Lose2	0.64	n/a	Yes	2.634	n/a	n/a	GoodResponse	0	n/a	n/a	6	74	Blank	AvoidedLoss	True
704.114	1.45	Lose2	0.64	n/a	Yes	2.634	n/a	5.0	GoodResponse	0	0.046	703.16	6	74	Feedback	AvoidedLoss	True
705.569	2.634	Lose2	0.64	n/a	Yes	2.634	n/a	n/a	GoodResponse	0	0.0	n/a	6	74	ISIslide	AvoidedLoss	True
708.227	0.25	Lose2	0.6315999999999999	0.0	No	2.923	0.027	n/a	NoResponse	-1	n/a	n/a	5	75	Cue	Loss	True
708.478	3.95	Lose2	0.6315999999999999	0.0	No	2.923	0.001	n/a	NoResponse	-1	n/a	n/a	5	75	Fixation	Loss	True
712.423	0.26	Lose2	0.6315999999999999	0.004	No	2.923	-0.004	4.0	NoResponse	-1	0.296	711.719	5	75	Target	Loss	True
712.69	0.44	Lose2	0.6315999999999999	n/a	No	2.923	n/a	n/a	NoResponse	-1	n/a	n/a	5	75	Blank	Loss	True
712.719	0.3	Lose2	0.6315999999999999	0.004	No	2.923	-0.004	4.0	NoResponse	-1	0.296	n/a	5	75	ButtonPress	Loss	True
713.125	1.45	Lose2	0.6315999999999999	n/a	No	2.923	n/a	5.0	NoResponse	-1	0.01	712.135	5	75	Feedback	Loss	True
714.579	2.923	Lose2	0.6315999999999999	n/a	No	2.923	n/a	n/a	NoResponse	-1	0.0	n/a	5	75	ISIslide	Loss	True
717.521	0.25	Control	0.6364	0.0	Yes	3.229	0.021	n/a	GoodResponse	0	n/a	n/a	5	76	Cue	Neutral	True
717.772	4.05	Control	0.6364	0.0	Yes	3.229	0.001	n/a	GoodResponse	0	n/a	n/a	5	76	Fixation	Neutral	True
721.817	0.27	Control	0.6364	0.004	Yes	3.229	-0.004	4.0	GoodResponse	0	0.19	721.007	5	76	Target	Neutral	True
722.007	0.3	Control	0.6364	0.004	Yes	3.229	-0.004	4.0	GoodResponse	0	0.19	n/a	5	76	ButtonPress	Neutral	True
722.102	0.43	Control	0.6364	n/a	Yes	3.229	n/a	n/a	GoodResponse	0	n/a	n/a	5	76	Blank	Neutral	True
722.519	1.45	Control	0.6364	n/a	Yes	3.229	n/a	5.0	GoodResponse	0	0.03	721.549	5	76	Feedback	Neutral	True
723.974	3.229	Control	0.6364	n/a	Yes	3.229	n/a	n/a	GoodResponse	0	0.0	n/a	5	76	ISIslide	Neutral	True
727.217	0.25	Lose2	0.6409999999999999	0.0	Yes	2.583	0.017	n/a	GoodResponse	0	n/a	n/a	5	77	Cue	AvoidedLoss	True
727.468	3.95	Lose2	0.6409999999999999	0.0	Yes	2.583	0.001	n/a	GoodResponse	0	n/a	n/a	5	77	Fixation	AvoidedLoss	True
731.413	0.28	Lose2	0.6409999999999999	0.004	Yes	2.583	-0.004	4.0	GoodResponse	0	0.185	730.598	5	77	Target	AvoidedLoss	True
731.598	0.3	Lose2	0.6409999999999999	0.004	Yes	2.583	-0.004	4.0	GoodResponse	0	0.185	n/a	5	77	ButtonPress	AvoidedLoss	True
731.697	0.42	Lose2	0.6409999999999999	n/a	Yes	2.583	n/a	n/a	GoodResponse	0	n/a	n/a	5	77	Blank	AvoidedLoss	True
732.115	1.45	Lose2	0.6409999999999999	n/a	Yes	2.583	n/a	5.0	GoodResponse	0	0.044	731.159	5	77	Feedback	AvoidedLoss	True
733.569	2.583	Lose2	0.6409999999999999	n/a	Yes	2.583	n/a	n/a	GoodResponse	0	0.0	n/a	5	77	ISIslide	AvoidedLoss	True
