onset	duration	cue_type	current_mean_accuracy	duration_error	is_hit	isi_adjusted	onset_delay	response	response_type	reward	rt	rt_time	total_reward	trial_number	trial_phase	trial_type	one_press
11.103	0.25	Control	1.0	0.0	Yes	2.947	0.003	n/a	GoodResponse	0	n/a	n/a	0	0	Cue	Neutral	True
11.353	3.85	Control	1.0	0.0	Yes	2.947	0.0	n/a	GoodResponse	0	n/a	n/a	0	0	Fixation	Neutral	True
15.202	0.4	Control	1.0	0.001	Yes	2.947	-0.001	4.0	GoodResponse	0	0.201	14.403	0	0	Target	Neutral	True
15.403	0.3	Control	1.0	0.001	Yes	2.947	-0.001	4.0	GoodResponse	0	0.201	n/a	0	0	ButtonPress	Neutral	True
15.602	0.3	Control	1.0	n/a	Yes	2.947	n/a	n/a	GoodResponse	0	n/a	n/a	0	0	Blank	Neutral	True
15.902	1.45	Control	1.0	n/a	Yes	2.947	n/a	5.0	GoodResponse	0	0.025	14.927	0	0	Feedback	Neutral	True
17.351	2.947	Control	1.0	n/a	Yes	2.947	n/a	n/a	GoodResponse	0	0.0	n/a	0	0	ISIslide	Neutral	True
20.317	0.25	Lose2	1.0	0.0	Yes	2.783	0.017	n/a	GoodResponse	0	n/a	n/a	0	1	Cue	AvoidedLoss	True
20.567	4.0	Lose2	1.0	0.0	Yes	2.783	0.0	n/a	GoodResponse	0	n/a	n/a	0	1	Fixation	AvoidedLoss	True
24.565	0.39	Lose2	1.0	0.002	Yes	2.783	-0.002	4.0	GoodResponse	0	0.189	23.754	0	1	Target	AvoidedLoss	True
24.754	0.3	Lose2	1.0	0.002	Yes	2.783	-0.002	4.0	GoodResponse	0	0.189	n/a	0	1	ButtonPress	AvoidedLoss	True
24.965	0.31	Lose2	1.0	n/a	Yes	2.783	n/a	n/a	GoodResponse	0	n/a	n/a	0	1	Blank	AvoidedLoss	True
25.265	1.45	Lose2	1.0	n/a	Yes	2.783	n/a	5.0	GoodResponse	0	0.027	24.292	0	1	Feedback	AvoidedLoss	True
26.714	2.783	Lose2	1.0	n/a	Yes	2.783	n/a	n/a	GoodResponse	0	0.0	n/a	0	1	ISIslide	AvoidedLoss	True
29.514	0.25	Control	1.0	0.0	Yes	2.586	0.014	n/a	GoodResponse	0	n/a	n/a	0	2	Cue	Neutral	True
29.763	4.1	Control	1.0	0.001	Yes	2.586	-0.001	n/a	GoodResponse	0	n/a	n/a	0	2	Fixation	Neutral	True
33.862	0.38	Control	1.0	0.002	Yes	2.586	-0.002	4.0	GoodResponse	0	0.198	33.06	0	2	Target	Neutral	True
34.06	0.3	Control	1.0	0.002	Yes	2.586	-0.002	4.0	GoodResponse	0	0.198	n/a	0	2	ButtonPress	Neutral	True
34.245	0.32	Control	1.0	n/a	Yes	2.586	n/a	n/a	GoodResponse	0	n/a	n/a	0	2	Blank	Neutral	True
34.562	1.45	Control	1.0	n/a	Yes	2.586	n/a	5.0	GoodResponse	0	0.047	33.609	0	2	Feedback	Neutral	True
36.011	2.586	Control	1.0	n/a	Yes	2.586	n/a	n/a	GoodResponse	0	0.0	n/a	0	2	ISIslide	Neutral	True
38.627	0.25	Win2	1.0	0.0	Yes	2.823	0.027	n/a	GoodResponse	1	n/a	n/a	1	3	Cue	Win	True
38.877	3.95	Win2	1.0	0.0	Yes	2.823	0.0	n/a	GoodResponse	1	n/a	n/a	1	3	Fixation	Win	True
42.826	0.37	Win2	1.0	0.001	Yes	2.823	-0.001	4.0	GoodResponse	1	0.232	42.058	1	3	Target	Win	True
43.058	0.3	Win2	1.0	0.001	Yes	2.823	-0.001	4.0	GoodResponse	1	0.232	n/a	1	3	ButtonPress	Win	True
43.209	0.33	Win2	1.0	n/a	Yes	2.823	n/a	n/a	GoodResponse	1	n/a	n/a	1	3	Blank	Win	True
43.525	1.45	Win2	1.0	n/a	Yes	2.823	n/a	5.0	GoodResponse	1	0.011	42.536	1	3	Feedback	Win	True
44.975	2.823	Win2	1.0	n/a	Yes	2.823	n/a	n/a	GoodResponse	1	0.0	n/a	1	3	ISIslide	Win	True
47.824	0.25	Win2	1.0	0.0	Yes	3.276	0.024	n/a	GoodResponse	1	n/a	n/a	2	4	Cue	Win	True
48.074	4.0	Win2	1.0	0.0	Yes	3.276	0.0	n/a	GoodResponse	1	n/a	n/a	2	4	Fixation	Win	True
52.072	0.36	Win2	1.0	0.002	Yes	3.276	-0.002	4.0	GoodResponse	1	0.241	51.313	2	4	Target	Win	True
52.313	0.3	Win2	1.0	0.002	Yes	3.276	-0.002	4.0	GoodResponse	1	0.241	n/a	2	4	ButtonPress	Win	True
52.439	0.34	Win2	1.0	n/a	Yes	3.276	n/a	n/a	GoodResponse	1	n/a	n/a	2	4	Blank	Win	True
52.772	1.45	Win2	1.0	n/a	Yes	3.276	n/a	5.0	GoodResponse	1	0.033	51.805	2	4	Feedback	Win	True
54.222	3.276	Win2	1.0	n/a	Yes	3.276	n/a	n/a	GoodResponse	1	0.0	n/a	2	4	ISIslide	Win	True
57.52	0.25	Win2	1.0	0.001	Yes	2.78	0.02	n/a	GoodResponse	1	n/a	n/a	3	5	Cue	Win	True
57.77	4.0	Win2	1.0	0.0	Yes	2.78	0.0	n/a	GoodResponse	1	n/a	n/a	3	5	Fixation	Win	True
61.769	0.35	Win2	1.0	0.001	Yes	2.78	-0.001	4.0	GoodResponse	1	0.208	60.977	3	5	Target	Win	True
61.977	0.3	Win2	1.0	0.001	Yes	2.78	-0.001	4.0	GoodResponse	1	0.208	n/a	3	5	ButtonPress	Win	True
62.119	0.35	Win2	1.0	n/a	Yes	2.78	n/a	n/a	GoodResponse	1	n/a	n/a	3	5	Blank	Win	True
62.469	1.45	Win2	1.0	n/a	Yes	2.78	n/a	5.0	GoodResponse	1	0.043	61.512	3	5	Feedback	Win	True
63.918	2.78	Win2	1.0	n/a	Yes	2.78	n/a	n/a	GoodResponse	1	0.0	n/a	3	5	ISIslide	Win	True
66.717	0.25	Lose2	1.0	0.0	Yes	2.733	0.017	n/a	GoodResponse	0	n/a	n/a	3	6	Cue	AvoidedLoss	True
66.967	3.95	Lose2	1.0	0.0	Yes	2.733	0.0	n/a	GoodResponse	0	n/a	n/a	3	6	Fixation	AvoidedLoss	True
70.916	0.34	Lose2	1.0	0.001	Yes	2.733	-0.001	4.0	GoodResponse	0	0.195	70.111	3	6	Target	AvoidedLoss	True
71.111	0.3	Lose2	1.0	0.001	Yes	2.733	-0.001	4.0	GoodResponse	0	0.195	n/a	3	6	ButtonPress	AvoidedLoss	True
71.266	0.36	Lose2	1.0	n/a	Yes	2.733	n/a	n/a	GoodResponse	0	n/a	n/a	3	6	Blank	AvoidedLoss	True
71.616	1.45	Lose2	1.0	n/a	Yes	2.733	n/a	5.0	GoodResponse	0	0.018	70.634	3	6	Feedback	AvoidedLoss	True
73.065	2.733	Lose2	1.0	n/a	Yes	2.733	n/a	n/a	GoodResponse	0	0.0	n/a	3	6	ISIslide	AvoidedLoss	True
75.814	0.25	Lose2	1.0	0.0	Yes	4.036	0.014	n/a	GoodResponse	0	n/a	n/a	3	7	Cue	AvoidedLoss	True
76.064	4.05	Lose2	1.0	0.0	Yes	4.036	0.0	n/a	GoodResponse	0	n/a	n/a	3	7	Fixation	AvoidedLoss	True
80.113	0.33	Lose2	1.0	0.001	Yes	4.036	-0.001	4.0	GoodResponse	0	0.241	79.354	3	7	Target	AvoidedLoss	True
80.354	0.3	Lose2	1.0	0.001	Yes	4.036	-0.001	4.0	GoodResponse	0	0.241	n/a	3	7	ButtonPress	AvoidedLoss	True
80.446	0.37	Lose2	1.0	n/a	Yes	4.036	n/a	n/a	GoodResponse	0	n/a	n/a	3	7	Blank	AvoidedLoss	True
80.812	1.45	Lose2	1.0	n/a	Yes	4.036	n/a	5.0	GoodResponse	0	0.041	79.853	3	7	Feedback	AvoidedLoss	True
82.262	4.036	Lose2	1.0	n/a	Yes	4.036	n/a	n/a	GoodResponse	0	0.0	n/a	3	7	ISIslide	AvoidedLoss	True
86.327	0.25	Lose2	1.0	0.0	Yes	3.023	0.027	n/a	GoodResponse	0	n/a	n/a	3	8	Cue	AvoidedLoss	True
86.577	3.95	Lose2	1.0	0.0	Yes	3.023	0.0	n/a	GoodResponse	0	n/a	n/a	3	8	Fixation	AvoidedLoss	True
90.526	0.32	Lose2	1.0	0.001	Yes	3.023	-0.001	4.0	GoodResponse	0	0.198	89.724	3	8	Target	AvoidedLoss	True
90.724	0.3	Lose2	1.0	0.001	Yes	3.023	-0.001	4.0	GoodResponse	0	0.198	n/a	3	8	ButtonPress	AvoidedLoss	True
90.859	0.38	Lose2	1.0	n/a	Yes	3.023	n/a	n/a	GoodResponse	0	n/a	n/a	3	8	Blank	AvoidedLoss	True
91.226	1.45	Lose2	1.0	n/a	Yes	3.023	n/a	5.0	GoodResponse	0	0.017	90.243	3	8	Feedback	AvoidedLoss	True
92.675	3.023	Lose2	1.0	n/a	Yes	3.023	n/a	n/a	GoodResponse	0	0.0	n/a	3	8	ISIslide	AvoidedLoss	True
95.724	0.25	Lose2	1.0	0.0	Yes	3.126	0.024	n/a	GoodResponse	0	n/a	n/a	3	9	Cue	AvoidedLoss	True
95.974	3.95	Lose2	1.0	0.0	Yes	3.126	0.0	n/a	GoodResponse	0	n/a	n/a	3	9	Fixation	AvoidedLoss	True
99.923	0.31	Lose2	1.0	0.001	Yes	3.126	-0.001	4.0	GoodResponse	0	0.205	99.128	3	9	Target	AvoidedLoss	True
100.128	0.3	Lose2	1.0	0.001	Yes	3.126	-0.001	4.0	GoodResponse	0	0.205	n/a	3	9	ButtonPress	AvoidedLoss	True
100.239	0.39	Lose2	1.0	n/a	Yes	3.126	n/a	n/a	GoodResponse	0	n/a	n/a	3	9	Blank	AvoidedLoss	True
100.622	1.45	Lose2	1.0	n/a	Yes	3.126	n/a	5.0	GoodResponse	0	0.036	99.658	3	9	Feedback	AvoidedLoss	True
102.072	3.126	Lose2	1.0	n/a	Yes	3.126	n/a	n/a	GoodResponse	0	0.0	n/a	3	9	ISIslide	AvoidedLoss	True
105.221	0.25	Control	1.0	0.0	Yes	3.279	0.021	n/a	GoodResponse	0	n/a	n/a	3	10	Cue	Neutral	True
105.471	4.0	Control	1.0	0.0	Yes	3.279	0.0	n/a	GoodResponse	0	n/a	n/a	3	10	Fixation	Neutral	True
109.469	0.3	Control	1.0	0.002	Yes	3.279	-0.002	4.0	GoodResponse	0	0.209	108.678	3	10	Target	Neutral	True
109.678	0.3	Control	1.0	0.002	Yes	3.279	-0.002	4.0	GoodResponse	0	0.209	n/a	3	10	ButtonPress	Neutral	True
109.769	0.4	Control	1.0	n/a	Yes	3.279	n/a	n/a	GoodResponse	0	n/a	n/a	3	10	Blank	Neutral	True
110.169	1.45	Control	1.0	n/a	Yes	3.279	n/a	5.0	GoodResponse	0	0.001	109.17	3	10	Feedback	Neutral	True
111.618	3.279	Control	1.0	n/a	Yes	3.279	n/a	n/a	GoodResponse	0	0.0	n/a	3	10	ISIslide	Neutral	True
114.917	0.25	Lose2	0.9167000000000001	0.0	No	2.733	0.017	n/a	NoResponse	-1	n/a	n/a	2	11	Cue	Loss	True
115.167	4.05	Lose2	0.9167000000000001	0.0	No	2.733	0.0	4.0	NoResponse	-1	3.976	118.143	2	11	Fixation	Loss	True
119.143	0.3	Lose2	0.9167000000000001	0.0	No	2.733	0.0	4.0	NoResponse	-1	3.976	n/a	2	11	ButtonPress	Loss	True
119.216	0.29	Lose2	0.9167000000000001	0.001	No	2.733	-0.001	n/a	NoResponse	-1	n/a	n/a	2	11	Target	Loss	True
119.516	0.41	Lose2	0.9167000000000001	n/a	No	2.733	n/a	n/a	NoResponse	-1	n/a	n/a	2	11	Blank	Loss	True
119.916	1.45	Lose2	0.9167000000000001	n/a	No	2.733	n/a	5.0	NoResponse	-1	0.01	118.926	2	11	Feedback	Loss	True
121.365	2.733	Lose2	0.9167000000000001	n/a	No	2.733	n/a	n/a	NoResponse	-1	0.0	n/a	2	11	ISIslide	Loss	True
124.114	0.25	Control	0.9231	0.0	Yes	2.986	0.014	n/a	GoodResponse	0	n/a	n/a	2	12	Cue	Neutral	True
124.364	3.9	Control	0.9231	0.0	Yes	2.986	0.0	n/a	GoodResponse	0	n/a	n/a	2	12	Fixation	Neutral	True
128.263	0.28	Control	0.9231	0.001	Yes	2.986	-0.001	4.0	GoodResponse	0	0.239	127.502	2	12	Target	Neutral	True
128.502	0.3	Control	0.9231	0.001	Yes	2.986	-0.001	4.0	GoodResponse	0	0.239	n/a	2	12	ButtonPress	Neutral	True
128.546	0.42	Control	0.9231	n/a	Yes	2.986	n/a	n/a	GoodResponse	0	n/a	n/a	2	12	Blank	Neutral	True
128.962	1.45	Control	0.9231	n/a	Yes	2.986	n/a	5.0	GoodResponse	0	0.038	128.0	2	12	Feedback	Neutral	True
130.412	2.986	Control	0.9231	n/a	Yes	2.986	n/a	n/a	GoodResponse	0	0.0	n/a	2	12	ISIslide	Neutral	True
133.428	0.25	Control	0.9286	0.0	Yes	2.772	0.028	n/a	GoodResponse	0	n/a	n/a	2	13	Cue	Neutral	True
133.678	4.0	Control	0.9286	0.0	Yes	2.772	0.0	n/a	GoodResponse	0	n/a	n/a	2	13	Fixation	Neutral	True
137.676	0.27	Control	0.9286	0.002	Yes	2.772	-0.002	4.0	GoodResponse	0	0.223	136.899	2	13	Target	Neutral	True
137.899	0.3	Control	0.9286	0.002	Yes	2.772	-0.002	4.0	GoodResponse	0	0.223	n/a	2	13	ButtonPress	Neutral	True
137.959	0.43	Control	0.9286	n/a	Yes	2.772	n/a	n/a	GoodResponse	0	n/a	n/a	2	13	Blank	Neutral	True
138.376	1.45	Control	0.9286	n/a	Yes	2.772	n/a	5.0	GoodResponse	0	0.037	137.413	2	13	Feedback	Neutral	True
139.825	2.772	Control	0.9286	n/a	Yes	2.772	n/a	n/a	GoodResponse	0	0.0	n/a	2	13	ISIslide	Neutral	True
142.624	0.25	Win2	0.9333	0.0	Yes	2.676	0.024	n/a	GoodResponse	1	n/a	n/a	3	14	Cue	Win	True
142.874	4.1	Win2	0.9333	0.0	Yes	2.676	0.0	n/a	GoodResponse	1	n/a	n/a	3	14	Fixation	Win	True
146.973	0.26	Win2	0.9333	0.001	Yes	2.676	-0.001	4.0	GoodResponse	1	0.252	146.225	3	14	Target	Win	True
147.225	0.3	Win2	0.9333	0.001	Yes	2.676	-0.001	4.0	GoodResponse	1	0.252	n/a	3	14	ButtonPress	Win	True
147.239	0.44	Win2	0.9333	n/a	Yes	2.676	n/a	n/a	GoodResponse	1	n/a	n/a	3	14	Blank	Win	True
147.673	1.45	Win2	0.9333	n/a	Yes	2.676	n/a	5.0	GoodResponse	1	0.009	146.682	3	14	Feedback	Win	True
149.122	2.676	Win2	0.9333	n/a	Yes	2.676	n/a	n/a	GoodResponse	1	0.0	n/a	3	14	ISIslide	Win	True
151.821	0.25	Control	0.875	0.0	No	2.979	0.021	n/a	NoResponse	0	n/a	n/a	3	15	Cue	Neutral	True
152.071	4.0	Control	0.875	0.0	No	2.979	0.0	n/a	NoResponse	0	n/a	n/a	3	15	Fixation	Neutral	True
156.07	0.25	Control	0.875	0.001	No	2.979	-0.001	4.0	NoResponse	0	0.299	155.369	3	15	Target	Neutral	True
156.32	0.45	Control	0.875	n/a	No	2.979	n/a	n/a	NoResponse	0	n/a	n/a	3	15	Blank	Neutral	True
156.369	0.3	Control	0.875	0.001	No	2.979	-0.001	4.0	NoResponse	0	0.299	n/a	3	15	ButtonPress	Neutral	True
156.77	1.45	Control	0.875	n/a	No	2.979	n/a	5.0	NoResponse	0	0.034	155.804	3	15	Feedback	Neutral	True
158.219	2.979	Control	0.875	n/a	No	2.979	n/a	n/a	NoResponse	0	0.0	n/a	3	15	ISIslide	Neutral	True
161.218	0.25	Win2	0.8824	0.0	Yes	2.882	0.018	n/a	GoodResponse	1	n/a	n/a	4	16	Cue	Win	True
161.468	4.0	Win2	0.8824	0.0	Yes	2.882	0.0	n/a	GoodResponse	1	n/a	n/a	4	16	Fixation	Win	True
165.467	0.24	Win2	0.8824	0.001	Yes	2.882	-0.001	4.0	GoodResponse	1	0.236	164.703	4	16	Target	Win	True
165.703	0.3	Win2	0.8824	0.001	Yes	2.882	-0.001	4.0	GoodResponse	1	0.236	n/a	4	16	ButtonPress	Win	True
165.716	0.46	Win2	0.8824	n/a	Yes	2.882	n/a	n/a	GoodResponse	1	n/a	n/a	4	16	Blank	Win	True
166.166	1.45	Win2	0.8824	n/a	Yes	2.882	n/a	5.0	GoodResponse	1	0.007	165.173	4	16	Feedback	Win	True
167.616	2.882	Win2	0.8824	n/a	Yes	2.882	n/a	n/a	GoodResponse	1	0.0	n/a	4	16	ISIslide	Win	True
170.515	0.25	Lose2	0.8889	0.0	Yes	2.735	0.015	n/a	GoodResponse	0	n/a	n/a	4	17	Cue	AvoidedLoss	True
170.765	3.95	Lose2	0.8889	0.0	Yes	2.735	0.0	n/a	GoodResponse	0	n/a	n/a	4	17	Fixation	AvoidedLoss	True
174.713	0.23	Lose2	0.8889	0.002	Yes	2.735	-0.002	4.0	GoodResponse	0	0.21	173.923	4	17	Target	AvoidedLoss	True
174.923	0.3	Lose2	0.8889	0.002	Yes	2.735	-0.002	4.0	GoodResponse	0	0.21	n/a	4	17	ButtonPress	AvoidedLoss	True
174.947	0.47	Lose2	0.8889	n/a	Yes	2.735	n/a	n/a	GoodResponse	0	n/a	n/a	4	17	Blank	AvoidedLoss	True
175.413	1.45	Lose2	0.8889	n/a	Yes	2.735	n/a	5.0	GoodResponse	0	0.025	174.438	4	17	Feedback	AvoidedLoss	True
176.863	2.735	Lose2	0.8889	n/a	Yes	2.735	n/a	n/a	GoodResponse	0	0.0	n/a	4	17	ISIslide	AvoidedLoss	True
179.628	0.25	Lose2	0.8946999999999999	0.0	Yes	2.722	0.028	n/a	GoodResponse	0	n/a	n/a	4	18	Cue	AvoidedLoss	True
179.878	4.05	Lose2	0.8946999999999999	0.0	Yes	2.722	0.0	n/a	GoodResponse	0	n/a	n/a	4	18	Fixation	AvoidedLoss	True
183.927	0.22	Lose2	0.8946999999999999	0.001	Yes	2.722	-0.001	4.0	GoodResponse	0	0.202	183.129	4	18	Target	AvoidedLoss	True
184.129	0.3	Lose2	0.8946999999999999	0.001	Yes	2.722	-0.001	4.0	GoodResponse	0	0.202	n/a	4	18	ButtonPress	AvoidedLoss	True
184.143	0.48	Lose2	0.8946999999999999	n/a	Yes	2.722	n/a	n/a	GoodResponse	0	n/a	n/a	4	18	Blank	AvoidedLoss	True
184.627	1.45	Lose2	0.8946999999999999	n/a	Yes	2.722	n/a	5.0	GoodResponse	0	0.031	183.658	4	18	Feedback	AvoidedLoss	True
186.076	2.722	Lose2	0.8946999999999999	n/a	Yes	2.722	n/a	n/a	GoodResponse	0	0.0	n/a	4	18	ISIslide	AvoidedLoss	True
188.825	0.25	Control	0.9	0.0	Yes	2.925	0.025	n/a	GoodResponse	0	n/a	n/a	4	19	Cue	Neutral	True
189.075	3.95	Control	0.9	0.0	Yes	2.925	0.0	n/a	GoodResponse	0	n/a	n/a	4	19	Fixation	Neutral	True
193.024	0.21	Control	0.9	0.001	Yes	2.925	-0.001	4.0	GoodResponse	0	0.205	192.229	4	19	Target	Neutral	True
193.229	0.3	Control	0.9	0.001	Yes	2.925	-0.001	4.0	GoodResponse	0	0.205	n/a	4	19	ButtonPress	Neutral	True
193.24	0.49	Control	0.9	n/a	Yes	2.925	n/a	n/a	GoodResponse	0	n/a	n/a	4	19	Blank	Neutral	True
193.723	1.45	Control	0.9	n/a	Yes	2.925	n/a	5.0	GoodResponse	0	0.008	192.731	4	19	Feedback	Neutral	True
195.173	2.925	Control	0.9	n/a	Yes	2.925	n/a	n/a	GoodResponse	0	0.0	n/a	4	19	ISIslide	Neutral	True
198.122	0.25	Control	0.8571	0.0	No	2.628	0.022	n/a	NoResponse	0	n/a	n/a	4	20	Cue	Neutral	True
198.372	4.05	Control	0.8571	0.0	No	2.628	0.0	n/a	NoResponse	0	n/a	n/a	4	20	Fixation	Neutral	True
202.42	0.2	Control	0.8571	0.002	No	2.628	-0.002	4.0	NoResponse	0	0.255	201.675	4	20	Target	Neutral	True
202.62	0.5	Control	0.8571	n/a	No	2.628	n/a	n/a	NoResponse	0	n/a	n/a	4	20	Blank	Neutral	True
202.675	0.3	Control	0.8571	0.002	No	2.628	-0.002	4.0	NoResponse	0	0.255	n/a	4	20	ButtonPress	Neutral	True
203.12	1.45	Control	0.8571	n/a	No	2.628	n/a	5.0	NoResponse	0	0.025	202.145	4	20	Feedback	Neutral	True
204.57	2.628	Control	0.8571	n/a	No	2.628	n/a	n/a	NoResponse	0	0.0	n/a	4	20	ISIslide	Neutral	True
207.219	0.25	Control	0.8181999999999999	0.0	No	2.781	0.019	n/a	NoResponse	0	n/a	n/a	4	21	Cue	Neutral	True
207.469	4.1	Control	0.8181999999999999	0.0	No	2.781	0.0	n/a	NoResponse	0	n/a	n/a	4	21	Fixation	Neutral	True
211.567	0.19	Control	0.8181999999999999	0.002	No	2.781	-0.002	4.0	NoResponse	0	0.278	210.845	4	21	Target	Neutral	True
211.767	0.51	Control	0.8181999999999999	n/a	No	2.781	n/a	n/a	NoResponse	0	n/a	n/a	4	21	Blank	Neutral	True
211.845	0.3	Control	0.8181999999999999	0.002	No	2.781	-0.002	4.0	NoResponse	0	0.278	n/a	4	21	ButtonPress	Neutral	True
212.267	1.45	Control	0.8181999999999999	n/a	No	2.781	n/a	5.0	NoResponse	0	0.0	211.267	4	21	Feedback	Neutral	True
213.717	2.781	Control	0.8181999999999999	n/a	No	2.781	n/a	n/a	NoResponse	0	0.0	n/a	4	21	ISIslide	Neutral	True
216.516	0.25	Control	0.7826000000000001	0.0	No	2.784	0.016	n/a	NoResponse	0	n/a	n/a	4	22	Cue	Neutral	True
216.765	4.0	Control	0.7826000000000001	0.001	No	2.784	-0.001	n/a	NoResponse	0	n/a	n/a	4	22	Fixation	Neutral	True
220.764	0.18	Control	0.7826000000000001	0.002	No	2.784	-0.002	4.0	NoResponse	0	0.273	220.037	4	22	Target	Neutral	True
220.947	0.52	Control	0.7826000000000001	n/a	No	2.784	n/a	n/a	NoResponse	0	n/a	n/a	4	22	Blank	Neutral	True
221.037	0.3	Control	0.7826000000000001	0.002	No	2.784	-0.002	4.0	NoResponse	0	0.273	n/a	4	22	ButtonPress	Neutral	True
221.464	1.45	Control	0.7826000000000001	n/a	No	2.784	n/a	5.0	NoResponse	0	0.023	220.487	4	22	Feedback	Neutral	True
222.913	2.784	Control	0.7826000000000001	n/a	No	2.784	n/a	n/a	NoResponse	0	0.0	n/a	4	22	ISIslide	Neutral	True
225.712	0.25	Control	0.75	0.0	No	2.788	0.012	n/a	NoResponse	0	n/a	n/a	4	23	Cue	Neutral	True
225.962	3.9	Control	0.75	0.0	No	2.788	0.0	n/a	NoResponse	0	n/a	n/a	4	23	Fixation	Neutral	True
229.861	0.17	Control	0.75	0.001	No	2.788	-0.001	4.0	NoResponse	0	0.229	229.09	4	23	Target	Neutral	True
230.028	0.53	Control	0.75	n/a	No	2.788	n/a	n/a	NoResponse	0	n/a	n/a	4	23	Blank	Neutral	True
230.09	0.3	Control	0.75	0.001	No	2.788	-0.001	4.0	NoResponse	0	0.229	n/a	4	23	ButtonPress	Neutral	True
230.561	1.45	Control	0.75	n/a	No	2.788	n/a	5.0	NoResponse	0	0.048	229.609	4	23	Feedback	Neutral	True
232.01	2.788	Control	0.75	n/a	No	2.788	n/a	n/a	NoResponse	0	0.0	n/a	4	23	ISIslide	Neutral	True
234.826	0.25	Win2	0.72	0.0	No	3.124	0.026	n/a	NoResponse	0	n/a	n/a	4	24	Cue	MissedWin	True
235.076	3.95	Win2	0.72	0.0	No	3.124	0.0	n/a	NoResponse	0	n/a	n/a	4	24	Fixation	MissedWin	True
239.024	0.16	Win2	0.72	0.002	No	3.124	-0.002	4.0	NoResponse	0	0.22	238.244	4	24	Target	MissedWin	True
239.191	0.54	Win2	0.72	n/a	No	3.124	n/a	n/a	NoResponse	0	n/a	n/a	4	24	Blank	MissedWin	True
239.244	0.3	Win2	0.72	0.002	No	3.124	-0.002	4.0	NoResponse	0	0.22	n/a	4	24	ButtonPress	MissedWin	True
239.724	1.45	Win2	0.72	n/a	No	3.124	n/a	5.0	NoResponse	0	0.008	238.732	4	24	Feedback	MissedWin	True
241.174	3.124	Win2	0.72	n/a	No	3.124	n/a	n/a	NoResponse	0	0.0	n/a	4	24	ISIslide	MissedWin	True
244.323	0.25	Win2	0.6923	0.0	No	3.077	0.023	n/a	NoResponse	0	n/a	n/a	4	25	Cue	MissedWin	True
244.572	4.0	Win2	0.6923	0.001	No	3.077	-0.001	n/a	NoResponse	0	n/a	n/a	4	25	Fixation	MissedWin	True
248.571	0.15	Win2	0.6923	0.002	No	3.077	-0.002	4.0	NoResponse	0	0.182	247.753	4	25	Target	MissedWin	True
248.721	0.55	Win2	0.6923	n/a	No	3.077	n/a	n/a	NoResponse	0	n/a	n/a	4	25	Blank	MissedWin	True
248.753	0.3	Win2	0.6923	0.002	No	3.077	-0.002	4.0	NoResponse	0	0.182	n/a	4	25	ButtonPress	MissedWin	True
249.271	1.45	Win2	0.6923	n/a	No	3.077	n/a	5.0	NoResponse	0	0.021	248.292	4	25	Feedback	MissedWin	True
250.72	3.077	Win2	0.6923	n/a	No	3.077	n/a	n/a	NoResponse	0	0.0	n/a	4	25	ISIslide	MissedWin	True
253.819	0.25	Win2	0.6667000000000001	0.0	No	2.931	0.019	n/a	NoResponse	0	n/a	n/a	4	26	Cue	MissedWin	True
254.069	3.95	Win2	0.6667000000000001	0.0	No	2.931	0.0	n/a	NoResponse	0	n/a	n/a	4	26	Fixation	MissedWin	True
258.018	0.15	Win2	0.6667000000000001	0.001	No	2.931	-0.001	4.0	NoResponse	0	0.2	257.218	4	26	Target	MissedWin	True
258.168	0.55	Win2	0.6667000000000001	n/a	No	2.931	n/a	n/a	NoResponse	0	n/a	n/a	4	26	Blank	MissedWin	True
258.218	0.3	Win2	0.6667000000000001	0.001	No	2.931	-0.001	4.0	NoResponse	0	0.2	n/a	4	26	ButtonPress	MissedWin	True
258.718	1.45	Win2	0.6667000000000001	n/a	No	2.931	n/a	5.0	NoResponse	0	0.037	257.755	4	26	Feedback	MissedWin	True
260.167	2.931	Win2	0.6667000000000001	n/a	No	2.931	n/a	n/a	NoResponse	0	0.0	n/a	4	26	ISIslide	MissedWin	True
263.116	0.25	Lose2	0.6429	0.0	No	2.834	0.016	n/a	NoResponse	-1	n/a	n/a	3	27	Cue	Loss	True
263.366	4.05	Lose2	0.6429	0.0	No	2.834	0.0	n/a	NoResponse	-1	n/a	n/a	3	27	Fixation	Loss	True
267.415	0.15	Lose2	0.6429	0.001	No	2.834	-0.001	4.0	NoResponse	-1	0.186	266.601	3	27	Target	Loss	True
267.565	0.55	Lose2	0.6429	n/a	No	2.834	n/a	n/a	NoResponse	-1	n/a	n/a	3	27	Blank	Loss	True
267.601	0.3	Lose2	0.6429	0.001	No	2.834	-0.001	4.0	NoResponse	-1	0.186	n/a	3	27	ButtonPress	Loss	True
268.114	1.45	Lose2	0.6429	n/a	No	2.834	n/a	5.0	NoResponse	-1	0.007	267.121	3	27	Feedback	Loss	True
269.564	2.834	Lose2	0.6429	n/a	No	2.834	n/a	n/a	NoResponse	-1	0.0	n/a	3	27	ISIslide	Loss	True
272.413	0.25	Control	0.6207	0.0	No	2.837	0.013	n/a	NoResponse	0	n/a	n/a	3	28	Cue	Neutral	True
272.663	4.05	Control	0.6207	0.0	No	2.837	0.0	n/a	NoResponse	0	n/a	n/a	3	28	Fixation	Neutral	True
276.711	0.16	Control	0.6207	0.002	No	2.837	-0.002	4.0	NoResponse	0	0.215	275.926	3	28	Target	Neutral	True
276.878	0.54	Control	0.6207	n/a	No	2.837	n/a	n/a	NoResponse	0	n/a	n/a	3	28	Blank	Neutral	True
276.926	0.3	Control	0.6207	0.002	No	2.837	-0.002	4.0	NoResponse	0	0.215	n/a	3	28	ButtonPress	Neutral	True
277.411	1.45	Control	0.6207	n/a	No	2.837	n/a	5.0	NoResponse	0	0.027	276.438	3	28	Feedback	Neutral	True
278.861	2.837	Control	0.6207	n/a	No	2.837	n/a	n/a	NoResponse	0	0.0	n/a	3	28	ISIslide	Neutral	True
281.726	0.25	Lose2	0.6	0.0	No	2.824	0.026	n/a	NoResponse	-1	n/a	n/a	2	29	Cue	Loss	True
281.976	3.95	Lose2	0.6	0.0	No	2.824	0.0	4.0	NoResponse	-1	3.371	284.347	2	29	Fixation	Loss	True
285.347	0.3	Lose2	0.6	0.0	No	2.824	0.0	4.0	NoResponse	-1	3.371	n/a	2	29	ButtonPress	Loss	True
285.925	0.17	Lose2	0.6	0.001	No	2.824	-0.001	n/a	NoResponse	-1	n/a	n/a	2	29	Target	Loss	True
286.091	0.53	Lose2	0.6	n/a	No	2.824	n/a	n/a	NoResponse	-1	n/a	n/a	2	29	Blank	Loss	True
286.625	1.45	Lose2	0.6	n/a	No	2.824	n/a	5.0	NoResponse	-1	0.032	285.657	2	29	Feedback	Loss	True
288.074	2.824	Lose2	0.6	n/a	No	2.824	n/a	n/a	NoResponse	-1	0.0	n/a	2	29	ISIslide	Loss	True
290.923	0.25	Win2	0.5806	0.0	No	2.777	0.023	n/a	NoResponse	0	n/a	n/a	2	30	Cue	MissedWin	True
291.173	3.9	Win2	0.5806	0.0	No	2.777	0.0	n/a	NoResponse	0	n/a	n/a	2	30	Fixation	MissedWin	True
295.072	0.18	Win2	0.5806	0.001	No	2.777	-0.001	4.0	NoResponse	0	0.211	294.283	2	30	Target	MissedWin	True
295.255	0.52	Win2	0.5806	n/a	No	2.777	n/a	n/a	NoResponse	0	n/a	n/a	2	30	Blank	MissedWin	True
295.283	0.3	Win2	0.5806	0.001	No	2.777	-0.001	4.0	NoResponse	0	0.211	n/a	2	30	ButtonPress	MissedWin	True
295.771	1.45	Win2	0.5806	n/a	No	2.777	n/a	5.0	NoResponse	0	0.008	294.779	2	30	Feedback	MissedWin	True
297.221	2.777	Win2	0.5806	n/a	No	2.777	n/a	n/a	NoResponse	0	0.0	n/a	2	30	ISIslide	MissedWin	True
300.02	0.25	Lose2	0.5625	0.0	No	2.83	0.02	n/a	LatePress	-1	n/a	n/a	1	31	Cue	Loss	True
300.27	4.05	Lose2	0.5625	0.0	No	2.83	0.0	n/a	LatePress	-1	n/a	n/a	1	31	Fixation	Loss	True
304.318	0.19	Lose2	0.5625	0.002	No	2.83	-0.002	4.0	LatePress	-1	0.197	303.515	1	31	Target	Loss	True
304.515	0.3	Lose2	0.5625	0.002	No	2.83	-0.002	4.0	LatePress	-1	0.197	n/a	1	31	ButtonPress	Loss	True
304.518	0.51	Lose2	0.5625	n/a	No	2.83	n/a	n/a	LatePress	-1	n/a	n/a	1	31	Blank	Loss	True
305.018	1.45	Lose2	0.5625	n/a	No	2.83	n/a	5.0	LatePress	-1	0.03	304.048	1	31	Feedback	Loss	True
306.468	2.83	Lose2	0.5625	n/a	No	2.83	n/a	n/a	LatePress	-1	0.0	n/a	1	31	ISIslide	Loss	True
309.317	0.25	Lose2	0.5455	0.0	No	2.633	0.017	n/a	NoResponse	-1	n/a	n/a	0	32	Cue	Loss	True
309.567	4.15	Lose2	0.5455	0.0	No	2.633	0.0	n/a	NoResponse	-1	n/a	n/a	0	32	Fixation	Loss	True
313.715	0.2	Lose2	0.5455	0.002	No	2.633	-0.002	4.0	NoResponse	-1	0.222	312.937	0	32	Target	Loss	True
313.915	0.5	Lose2	0.5455	n/a	No	2.633	n/a	n/a	NoResponse	-1	n/a	n/a	0	32	Blank	Loss	True
313.937	0.3	Lose2	0.5455	0.002	No	2.633	-0.002	4.0	NoResponse	-1	0.222	n/a	0	32	ButtonPress	Loss	True
314.415	1.45	Lose2	0.5455	n/a	No	2.633	n/a	5.0	NoResponse	-1	0.047	313.462	0	32	Feedback	Loss	True
315.864	2.633	Lose2	0.5455	n/a	No	2.633	n/a	n/a	NoResponse	-1	0.0	n/a	0	32	ISIslide	Loss	True
318.53	0.25	Win2	0.5588000000000001	0.0	Yes	2.67	0.03	n/a	GoodResponse	1	n/a	n/a	1	33	Cue	Win	True
318.78	4.0	Win2	0.5588000000000001	0.0	Yes	2.67	0.0	n/a	GoodResponse	1	n/a	n/a	1	33	Fixation	Win	True
322.779	0.21	Win2	0.5588000000000001	0.001	Yes	2.67	-0.001	4.0	GoodResponse	1	0.203	321.982	1	33	Target	Win	True
322.982	0.3	Win2	0.5588000000000001	0.001	Yes	2.67	-0.001	4.0	GoodResponse	1	0.203	n/a	1	33	ButtonPress	Win	True
322.995	0.49	Win2	0.5588000000000001	n/a	Yes	2.67	n/a	n/a	GoodResponse	1	n/a	n/a	1	33	Blank	Win	True
323.479	1.45	Win2	0.5588000000000001	n/a	Yes	2.67	n/a	5.0	GoodResponse	1	0.007	322.486	1	33	Feedback	Win	True
324.928	2.67	Win2	0.5588000000000001	n/a	Yes	2.67	n/a	n/a	GoodResponse	1	0.0	n/a	1	33	ISIslide	Win	True
327.627	0.25	Lose2	0.5428999999999999	0.0	No	2.623	0.027	n/a	LatePress	-1	n/a	n/a	0	34	Cue	Loss	True
327.877	4.05	Lose2	0.5428999999999999	0.0	No	2.623	0.0	n/a	LatePress	-1	n/a	n/a	0	34	Fixation	Loss	True
331.926	0.22	Lose2	0.5428999999999999	0.001	No	2.623	-0.001	4.0	LatePress	-1	0.222	331.148	0	34	Target	Loss	True
332.148	0.3	Lose2	0.5428999999999999	0.001	No	2.623	-0.001	4.0	LatePress	-1	0.222	n/a	0	34	ButtonPress	Loss	True
332.159	0.48	Lose2	0.5428999999999999	n/a	No	2.623	n/a	n/a	LatePress	-1	n/a	n/a	0	34	Blank	Loss	True
332.625	1.45	Lose2	0.5428999999999999	n/a	No	2.623	n/a	5.0	LatePress	-1	0.032	331.657	0	34	Feedback	Loss	True
334.075	2.623	Lose2	0.5428999999999999	n/a	No	2.623	n/a	n/a	LatePress	-1	0.0	n/a	0	34	ISIslide	Loss	True
336.724	0.25	Lose2	0.5278	0.0	No	2.676	0.024	n/a	NoResponse	-1	n/a	n/a	-1	35	Cue	Loss	True
336.974	4.0	Lose2	0.5278	0.0	No	2.676	0.0	n/a	NoResponse	-1	n/a	n/a	-1	35	Fixation	Loss	True
340.972	0.23	Lose2	0.5278	0.002	No	2.676	-0.002	4.0	NoResponse	-1	0.259	340.231	-1	35	Target	Loss	True
341.206	0.47	Lose2	0.5278	n/a	No	2.676	n/a	n/a	NoResponse	-1	n/a	n/a	-1	35	Blank	Loss	True
341.231	0.3	Lose2	0.5278	0.002	No	2.676	-0.002	4.0	NoResponse	-1	0.259	n/a	-1	35	ButtonPress	Loss	True
341.672	1.45	Lose2	0.5278	n/a	No	2.676	n/a	5.0	NoResponse	-1	0.009	340.681	-1	35	Feedback	Loss	True
343.122	2.676	Lose2	0.5278	n/a	No	2.676	n/a	n/a	NoResponse	-1	0.0	n/a	-1	35	ISIslide	Loss	True
345.821	0.25	Control	0.5405	0.0	Yes	2.679	0.021	n/a	GoodResponse	0	n/a	n/a	-1	36	Cue	Neutral	True
346.071	4.0	Control	0.5405	0.0	Yes	2.679	0.0	n/a	GoodResponse	0	n/a	n/a	-1	36	Fixation	Neutral	True
350.069	0.24	Control	0.5405	0.002	Yes	2.679	-0.002	4.0	GoodResponse	0	0.215	349.284	-1	36	Target	Neutral	True
350.284	0.3	Control	0.5405	0.002	Yes	2.679	-0.002	4.0	GoodResponse	0	0.215	n/a	-1	36	ButtonPress	Neutral	True
350.319	0.46	Control	0.5405	n/a	Yes	2.679	n/a	n/a	GoodResponse	0	n/a	n/a	-1	36	Blank	Neutral	True
350.769	1.45	Control	0.5405	n/a	Yes	2.679	n/a	5.0	GoodResponse	0	0.035	349.804	-1	36	Feedback	Neutral	True
352.219	2.679	Control	0.5405	n/a	Yes	2.679	n/a	n/a	GoodResponse	0	0.0	n/a	-1	36	ISIslide	Neutral	True
354.918	0.25	Win2	0.5526	0.0	Yes	2.882	0.018	n/a	GoodResponse	1	n/a	n/a	0	37	Cue	Win	True
355.168	4.0	Win2	0.5526	0.0	Yes	2.882	0.0	n/a	GoodResponse	1	n/a	n/a	0	37	Fixation	Win	True
359.166	0.25	Win2	0.5526	0.002	Yes	2.882	-0.002	4.0	GoodResponse	1	0.207	358.373	0	37	Target	Win	True
359.373	0.3	Win2	0.5526	0.002	Yes	2.882	-0.002	4.0	GoodResponse	1	0.207	n/a	0	37	ButtonPress	Win	True
359.416	0.45	Win2	0.5526	n/a	Yes	2.882	n/a	n/a	GoodResponse	1	n/a	n/a	0	37	Blank	Win	True
359.866	1.45	Win2	0.5526	n/a	Yes	2.882	n/a	5.0	GoodResponse	1	0.011	358.877	0	37	Feedback	Win	True
361.315	2.882	Win2	0.5526	n/a	Yes	2.882	n/a	n/a	GoodResponse	1	0.0	n/a	0	37	ISIslide	Win	True
364.214	0.25	Lose2	0.5385	0.001	No	2.836	0.014	n/a	NoResponse	-1	n/a	n/a	-1	38	Cue	Loss	True
364.464	3.95	Lose2	0.5385	0.001	No	2.836	0.0	n/a	NoResponse	-1	n/a	n/a	-1	38	Fixation	Loss	True
368.413	0.26	Lose2	0.5385	0.001	No	2.836	-0.001	4.0	NoResponse	-1	0.276	367.689	-1	38	Target	Loss	True
368.68	0.44	Lose2	0.5385	n/a	No	2.836	n/a	n/a	NoResponse	-1	n/a	n/a	-1	38	Blank	Loss	True
368.689	0.3	Lose2	0.5385	0.001	No	2.836	-0.001	4.0	NoResponse	-1	0.276	n/a	-1	38	ButtonPress	Loss	True
369.113	1.45	Lose2	0.5385	n/a	No	2.836	n/a	5.0	NoResponse	-1	0.032	368.145	-1	38	Feedback	Loss	True
370.562	2.836	Lose2	0.5385	n/a	No	2.836	n/a	4.0	NoResponse	-1	0.409	n/a	-1	38	ISIslide	Loss	True
373.411	0.25	Win2	0.55	0.0	Yes	2.989	0.011	n/a	GoodResponse	1	n/a	n/a	0	39	Cue	Win	True
373.661	4.1	Win2	0.55	0.0	Yes	2.989	0.0	n/a	GoodResponse	1	n/a	n/a	0	39	Fixation	Win	True
377.76	0.27	Win2	0.55	0.001	Yes	2.989	-0.001	4.0	GoodResponse	1	0.231	376.991	0	39	Target	Win	True
377.991	0.3	Win2	0.55	0.001	Yes	2.989	-0.001	4.0	GoodResponse	1	0.231	n/a	0	39	ButtonPress	Win	True
378.043	0.43	Win2	0.55	n/a	Yes	2.989	n/a	n/a	GoodResponse	1	n/a	n/a	0	39	Blank	Win	True
378.46	1.45	Win2	0.55	n/a	Yes	2.989	n/a	5.0	GoodResponse	1	0.005	377.465	0	39	Feedback	Win	True
379.909	2.989	Win2	0.55	n/a	Yes	2.989	n/a	n/a	GoodResponse	1	0.0	n/a	0	39	ISIslide	Win	True
382.925	0.25	Win2	0.561	0.0	Yes	2.725	0.025	n/a	GoodResponse	1	n/a	n/a	1	40	Cue	Win	True
383.175	3.95	Win2	0.561	0.0	Yes	2.725	0.0	n/a	GoodResponse	1	n/a	n/a	1	40	Fixation	Win	True
387.123	0.28	Win2	0.561	0.002	Yes	2.725	-0.002	4.0	GoodResponse	1	0.218	386.341	1	40	Target	Win	True
387.341	0.3	Win2	0.561	0.002	Yes	2.725	-0.002	4.0	GoodResponse	1	0.218	n/a	1	40	ButtonPress	Win	True
387.406	0.42	Win2	0.561	n/a	Yes	2.725	n/a	n/a	GoodResponse	1	n/a	n/a	1	40	Blank	Win	True
387.823	1.45	Win2	0.561	n/a	Yes	2.725	n/a	5.0	GoodResponse	1	0.006	386.829	1	40	Feedback	Win	True
389.272	2.725	Win2	0.561	n/a	Yes	2.725	n/a	n/a	GoodResponse	1	0.0	n/a	1	40	ISIslide	Win	True
392.021	0.25	Win2	0.5714	0.001	Yes	2.779	0.021	n/a	GoodResponse	1	n/a	n/a	2	41	Cue	Win	True
392.271	3.9	Win2	0.5714	0.001	Yes	2.779	0.0	n/a	GoodResponse	1	n/a	n/a	2	41	Fixation	Win	True
396.17	0.29	Win2	0.5714	0.001	Yes	2.779	-0.001	4.0	GoodResponse	1	0.234	395.404	2	41	Target	Win	True
396.404	0.3	Win2	0.5714	0.001	Yes	2.779	-0.001	4.0	GoodResponse	1	0.234	n/a	2	41	ButtonPress	Win	True
396.47	0.41	Win2	0.5714	n/a	Yes	2.779	n/a	n/a	GoodResponse	1	n/a	n/a	2	41	Blank	Win	True
396.87	1.45	Win2	0.5714	n/a	Yes	2.779	n/a	5.0	GoodResponse	1	0.031	395.901	2	41	Feedback	Win	True
398.319	2.779	Win2	0.5714	n/a	Yes	2.779	n/a	n/a	GoodResponse	1	0.0	n/a	2	41	ISIslide	Win	True
401.118	0.25	Control	0.5814	0.0	Yes	2.932	0.018	n/a	GoodResponse	0	n/a	n/a	2	42	Cue	Neutral	True
401.368	3.85	Control	0.5814	0.0	Yes	2.932	0.0	n/a	GoodResponse	0	n/a	n/a	2	42	Fixation	Neutral	True
405.217	0.3	Control	0.5814	0.001	Yes	2.932	-0.001	4.0	GoodResponse	0	0.214	404.431	2	42	Target	Neutral	True
405.431	0.3	Control	0.5814	0.001	Yes	2.932	-0.001	4.0	GoodResponse	0	0.214	n/a	2	42	ButtonPress	Neutral	True
405.517	0.4	Control	0.5814	n/a	Yes	2.932	n/a	n/a	GoodResponse	0	n/a	n/a	2	42	Blank	Neutral	True
405.917	1.45	Control	0.5814	n/a	Yes	2.932	n/a	5.0	GoodResponse	0	0.008	404.925	2	42	Feedback	Neutral	True
407.366	2.932	Control	0.5814	n/a	Yes	2.932	n/a	n/a	GoodResponse	0	0.0	n/a	2	42	ISIslide	Neutral	True
410.315	0.25	Win2	0.5909	0.0	Yes	3.185	0.015	n/a	GoodResponse	1	n/a	n/a	3	43	Cue	Win	True
410.565	4.0	Win2	0.5909	0.0	Yes	3.185	0.0	n/a	GoodResponse	1	n/a	n/a	3	43	Fixation	Win	True
414.564	0.31	Win2	0.5909	0.001	Yes	3.185	-0.001	4.0	GoodResponse	1	0.236	413.8	3	43	Target	Win	True
414.8	0.3	Win2	0.5909	0.001	Yes	3.185	-0.001	4.0	GoodResponse	1	0.236	n/a	3	43	ButtonPress	Win	True
414.88	0.39	Win2	0.5909	n/a	Yes	3.185	n/a	n/a	GoodResponse	1	n/a	n/a	3	43	Blank	Win	True
415.263	1.45	Win2	0.5909	n/a	Yes	3.185	n/a	5.0	GoodResponse	1	0.028	414.291	3	43	Feedback	Win	True
416.713	3.185	Win2	0.5909	n/a	Yes	3.185	n/a	n/a	GoodResponse	1	0.0	n/a	3	43	ISIslide	Win	True
419.929	0.25	Win2	0.6	0.0	Yes	2.971	0.029	n/a	GoodResponse	1	n/a	n/a	4	44	Cue	Win	True
420.178	4.0	Win2	0.6	0.001	Yes	2.971	-0.001	n/a	GoodResponse	1	n/a	n/a	4	44	Fixation	Win	True
424.177	0.32	Win2	0.6	0.002	Yes	2.971	-0.002	4.0	GoodResponse	1	0.276	423.453	4	44	Target	Win	True
424.453	0.3	Win2	0.6	0.002	Yes	2.971	-0.002	4.0	GoodResponse	1	0.276	n/a	4	44	ButtonPress	Win	True
424.51	0.38	Win2	0.6	n/a	Yes	2.971	n/a	n/a	GoodResponse	1	n/a	n/a	4	44	Blank	Win	True
424.877	1.45	Win2	0.6	n/a	Yes	2.971	n/a	5.0	GoodResponse	1	0.024	423.901	4	44	Feedback	Win	True
426.326	2.971	Win2	0.6	n/a	Yes	2.971	n/a	n/a	GoodResponse	1	0.0	n/a	4	44	ISIslide	Win	True
429.325	0.25	Control	0.6087	0.0	Yes	2.875	0.025	n/a	GoodResponse	0	n/a	n/a	4	45	Cue	Neutral	True
429.575	4.1	Control	0.6087	0.0	Yes	2.875	0.0	n/a	GoodResponse	0	n/a	n/a	4	45	Fixation	Neutral	True
433.674	0.33	Control	0.6087	0.001	Yes	2.875	-0.001	4.0	GoodResponse	0	0.225	432.899	4	45	Target	Neutral	True
433.899	0.3	Control	0.6087	0.001	Yes	2.875	-0.001	4.0	GoodResponse	0	0.225	n/a	4	45	ButtonPress	Neutral	True
434.007	0.37	Control	0.6087	n/a	Yes	2.875	n/a	n/a	GoodResponse	0	n/a	n/a	4	45	Blank	Neutral	True
434.374	1.45	Control	0.6087	n/a	Yes	2.875	n/a	5.0	GoodResponse	0	0.038	433.412	4	45	Feedback	Neutral	True
435.823	2.875	Control	0.6087	n/a	Yes	2.875	n/a	n/a	GoodResponse	0	0.0	n/a	4	45	ISIslide	Neutral	True
438.722	0.25	Lose2	0.617	0.0	Yes	3.378	0.022	n/a	GoodResponse	0	n/a	n/a	4	46	Cue	AvoidedLoss	True
438.972	4.0	Lose2	0.617	0.0	Yes	3.378	0.0	n/a	GoodResponse	0	n/a	n/a	4	46	Fixation	AvoidedLoss	True
442.971	0.34	Lose2	0.617	0.001	Yes	3.378	-0.001	4.0	GoodResponse	0	0.21	442.181	4	46	Target	AvoidedLoss	True
443.181	0.3	Lose2	0.617	0.001	Yes	3.378	-0.001	4.0	GoodResponse	0	0.21	n/a	4	46	ButtonPress	AvoidedLoss	True
443.32	0.36	Lose2	0.617	n/a	Yes	3.378	n/a	n/a	GoodResponse	0	n/a	n/a	4	46	Blank	AvoidedLoss	True
443.67	1.45	Lose2	0.617	n/a	Yes	3.378	n/a	5.0	GoodResponse	0	0.011	442.681	4	46	Feedback	AvoidedLoss	True
445.12	3.378	Lose2	0.617	n/a	Yes	3.378	n/a	n/a	GoodResponse	0	0.0	n/a	4	46	ISIslide	AvoidedLoss	True
448.519	0.25	Lose2	0.625	0.0	Yes	2.681	0.019	n/a	GoodResponse	0	n/a	n/a	4	47	Cue	AvoidedLoss	True
448.769	4.0	Lose2	0.625	0.0	Yes	2.681	0.0	n/a	GoodResponse	0	n/a	n/a	4	47	Fixation	AvoidedLoss	True
452.767	0.35	Lose2	0.625	0.002	Yes	2.681	-0.002	4.0	GoodResponse	0	0.244	452.011	4	47	Target	AvoidedLoss	True
453.011	0.3	Lose2	0.625	0.002	Yes	2.681	-0.002	4.0	GoodResponse	0	0.244	n/a	4	47	ButtonPress	AvoidedLoss	True
453.117	0.35	Lose2	0.625	n/a	Yes	2.681	n/a	n/a	GoodResponse	0	n/a	n/a	4	47	Blank	AvoidedLoss	True
453.467	1.45	Lose2	0.625	n/a	Yes	2.681	n/a	5.0	GoodResponse	0	0.019	452.486	4	47	Feedback	AvoidedLoss	True
454.916	2.681	Lose2	0.625	n/a	Yes	2.681	n/a	n/a	GoodResponse	0	0.0	n/a	4	47	ISIslide	AvoidedLoss	True
457.615	0.25	Lose2	0.6327	0.001	Yes	3.035	0.015	n/a	GoodResponse	0	n/a	n/a	4	48	Cue	AvoidedLoss	True
457.865	3.95	Lose2	0.6327	0.0	Yes	3.035	0.0	n/a	GoodResponse	0	n/a	n/a	4	48	Fixation	AvoidedLoss	True
461.814	0.36	Lose2	0.6327	0.001	Yes	3.035	-0.001	4.0	GoodResponse	0	0.252	461.066	4	48	Target	AvoidedLoss	True
462.066	0.3	Lose2	0.6327	0.001	Yes	3.035	-0.001	4.0	GoodResponse	0	0.252	n/a	4	48	ButtonPress	AvoidedLoss	True
462.181	0.34	Lose2	0.6327	n/a	Yes	3.035	n/a	n/a	GoodResponse	0	n/a	n/a	4	48	Blank	AvoidedLoss	True
462.514	1.45	Lose2	0.6327	n/a	Yes	3.035	n/a	5.0	GoodResponse	0	0.045	461.559	4	48	Feedback	AvoidedLoss	True
463.963	3.035	Lose2	0.6327	n/a	Yes	3.035	n/a	n/a	GoodResponse	0	0.0	n/a	4	48	ISIslide	AvoidedLoss	True
467.029	0.25	Control	0.62	0.0	No	2.871	0.029	n/a	NoResponse	0	n/a	n/a	4	49	Cue	Neutral	True
467.279	4.0	Control	0.62	0.0	No	2.871	0.0	n/a	NoResponse	0	n/a	n/a	4	49	Fixation	Neutral	True
471.277	0.37	Control	0.62	0.002	No	2.871	-0.002	4.0	NoResponse	0	0.555	470.832	4	49	Target	Neutral	True
471.661	0.33	Control	0.62	n/a	No	2.871	n/a	n/a	NoResponse	0	n/a	n/a	4	49	Blank	Neutral	True
471.832	0.3	Control	0.62	0.002	No	2.871	-0.002	4.0	NoResponse	0	0.555	n/a	4	49	ButtonPress	Neutral	True
471.977	1.45	Control	0.62	n/a	No	2.871	n/a	5.0	NoResponse	0	0.046	471.023	4	49	Feedback	Neutral	True
473.427	2.871	Control	0.62	n/a	No	2.871	n/a	n/a	NoResponse	0	0.0	n/a	4	49	ISIslide	Neutral	True
476.326	0.25	Control	0.6275	0.0	Yes	2.774	0.026	n/a	GoodResponse	0	n/a	n/a	4	50	Cue	Neutral	True
476.576	4.0	Control	0.6275	0.0	Yes	2.774	0.0	n/a	GoodResponse	0	n/a	n/a	4	50	Fixation	Neutral	True
480.574	0.38	Control	0.6275	0.002	Yes	2.774	-0.002	4.0	GoodResponse	0	0.227	479.801	4	50	Target	Neutral	True
480.801	0.3	Control	0.6275	0.002	Yes	2.774	-0.002	4.0	GoodResponse	0	0.227	n/a	4	50	ButtonPress	Neutral	True
480.957	0.32	Control	0.6275	n/a	Yes	2.774	n/a	n/a	GoodResponse	0	n/a	n/a	4	50	Blank	Neutral	True
481.274	1.45	Control	0.6275	n/a	Yes	2.774	n/a	5.0	GoodResponse	0	0.017	480.291	4	50	Feedback	Neutral	True
482.723	2.774	Control	0.6275	n/a	Yes	2.774	n/a	n/a	GoodResponse	0	0.0	n/a	4	50	ISIslide	Neutral	True
485.523	0.25	Control	0.6154	0.0	No	2.727	0.023	n/a	NoResponse	0	n/a	n/a	4	51	Cue	Neutral	False
485.772	3.95	Control	0.6154	0.001	No	2.727	-0.001	n/a	NoResponse	0	n/a	n/a	4	51	Fixation	Neutral	False
489.721	0.39	Control	0.6154	0.002	No	2.727	-0.002	n/a	NoResponse	0	n/a	n/a	4	51	Target	Neutral	False
490.121	0.31	Control	0.6154	n/a	No	2.727	n/a	n/a	NoResponse	0	n/a	n/a	4	51	Blank	Neutral	False
490.421	1.45	Control	0.6154	n/a	No	2.727	n/a	5.0	NoResponse	0	0.041	489.462	4	51	Feedback	Neutral	False
491.87	2.727	Control	0.6154	n/a	No	2.727	n/a	n/a	NoResponse	0	0.0	n/a	4	51	ISIslide	Neutral	False
494.619	0.25	Control	0.6225999999999999	0.0	Yes	2.631	0.019	n/a	GoodResponse	0	n/a	n/a	4	52	Cue	Neutral	True
494.869	4.05	Control	0.6225999999999999	0.0	Yes	2.631	0.0	n/a	GoodResponse	0	n/a	n/a	4	52	Fixation	Neutral	True
498.918	0.4	Control	0.6225999999999999	0.001	Yes	2.631	-0.001	4.0	GoodResponse	0	0.195	498.113	4	52	Target	Neutral	True
499.113	0.3	Control	0.6225999999999999	0.001	Yes	2.631	-0.001	4.0	GoodResponse	0	0.195	n/a	4	52	ButtonPress	Neutral	True
499.318	0.3	Control	0.6225999999999999	n/a	Yes	2.631	n/a	n/a	GoodResponse	0	n/a	n/a	4	52	Blank	Neutral	True
499.618	1.45	Control	0.6225999999999999	n/a	Yes	2.631	n/a	5.0	GoodResponse	0	0.014	498.632	4	52	Feedback	Neutral	True
501.067	2.631	Control	0.6225999999999999	n/a	Yes	2.631	n/a	n/a	GoodResponse	0	0.0	n/a	4	52	ISIslide	Neutral	True
503.716	0.25	Win2	0.6296	0.0	Yes	2.934	0.016	n/a	GoodResponse	1	n/a	n/a	5	53	Cue	Win	True
503.966	4.05	Win2	0.6296	0.0	Yes	2.934	0.0	n/a	GoodResponse	1	n/a	n/a	5	53	Fixation	Win	True
508.015	0.41	Win2	0.6296	0.001	Yes	2.934	-0.001	4.0	GoodResponse	1	0.192	507.207	5	53	Target	Win	True
508.207	0.3	Win2	0.6296	0.001	Yes	2.934	-0.001	4.0	GoodResponse	1	0.192	n/a	5	53	ButtonPress	Win	True
508.431	0.29	Win2	0.6296	n/a	Yes	2.934	n/a	n/a	GoodResponse	1	n/a	n/a	5	53	Blank	Win	True
508.714	1.45	Win2	0.6296	n/a	Yes	2.934	n/a	5.0	GoodResponse	1	0.04	507.754	5	53	Feedback	Win	True
510.164	2.934	Win2	0.6296	n/a	Yes	2.934	n/a	n/a	GoodResponse	1	0.0	n/a	5	53	ISIslide	Win	True
513.113	0.25	Win2	0.6364	0.0	Yes	2.737	0.013	n/a	GoodResponse	1	n/a	n/a	6	54	Cue	Win	True
513.363	3.95	Win2	0.6364	0.0	Yes	2.737	0.0	n/a	GoodResponse	1	n/a	n/a	6	54	Fixation	Win	True
517.312	0.42	Win2	0.6364	0.001	Yes	2.737	-0.001	4.0	GoodResponse	1	0.294	516.606	6	54	Target	Win	True
517.606	0.3	Win2	0.6364	0.001	Yes	2.737	-0.001	4.0	GoodResponse	1	0.294	n/a	6	54	ButtonPress	Win	True
517.745	0.28	Win2	0.6364	n/a	Yes	2.737	n/a	n/a	GoodResponse	1	n/a	n/a	6	54	Blank	Win	True
518.011	1.45	Win2	0.6364	n/a	Yes	2.737	n/a	5.0	GoodResponse	1	0.011	517.022	6	54	Feedback	Win	True
519.461	2.737	Win2	0.6364	n/a	Yes	2.737	n/a	n/a	GoodResponse	1	0.0	n/a	6	54	ISIslide	Win	True
522.226	0.25	Control	0.6429	0.001	Yes	3.024	0.026	n/a	GoodResponse	0	n/a	n/a	6	55	Cue	Neutral	True
522.476	3.95	Control	0.6429	0.0	Yes	3.024	0.0	n/a	GoodResponse	0	n/a	n/a	6	55	Fixation	Neutral	True
526.425	0.43	Control	0.6429	0.001	Yes	3.024	-0.001	4.0	GoodResponse	0	0.291	525.716	6	55	Target	Neutral	True
526.716	0.3	Control	0.6429	0.001	Yes	3.024	-0.001	4.0	GoodResponse	0	0.291	n/a	6	55	ButtonPress	Neutral	True
526.858	0.27	Control	0.6429	n/a	Yes	3.024	n/a	n/a	GoodResponse	0	n/a	n/a	6	55	Blank	Neutral	True
527.125	1.45	Control	0.6429	n/a	Yes	3.024	n/a	5.0	GoodResponse	0	0.019	526.144	6	55	Feedback	Neutral	True
528.574	3.024	Control	0.6429	n/a	Yes	3.024	n/a	n/a	GoodResponse	0	0.0	n/a	6	55	ISIslide	Neutral	True
531.623	0.25	Control	0.6315999999999999	0.0	No	2.827	0.023	n/a	NoResponse	0	n/a	n/a	6	56	Cue	Neutral	True
531.873	3.95	Control	0.6315999999999999	0.0	No	2.827	0.0	n/a	NoResponse	0	n/a	n/a	6	56	Fixation	Neutral	True
535.822	0.44	Control	0.6315999999999999	0.001	No	2.827	-0.001	n/a	NoResponse	0	n/a	n/a	6	56	Target	Neutral	True
536.272	0.26	Control	0.6315999999999999	n/a	No	2.827	n/a	n/a	NoResponse	0	n/a	n/a	6	56	Blank	Neutral	True
536.522	1.45	Control	0.6315999999999999	n/a	No	2.827	n/a	4.0	NoResponse	0	0.022	535.544	6	56	Feedback	Neutral	True
536.544	0.3	Control	0.6315999999999999	n/a	No	2.827	n/a	4.0	NoResponse	0	0.022	n/a	6	56	ButtonPress	Neutral	True
537.971	2.827	Control	0.6315999999999999	n/a	No	2.827	n/a	n/a	NoResponse	0	0.0	n/a	6	56	ISIslide	Neutral	True
540.82	0.25	Control	0.6379	0.0	Yes	3.48	0.02	n/a	GoodResponse	0	n/a	n/a	6	57	Cue	Neutral	True
541.07	4.0	Control	0.6379	0.0	Yes	3.48	0.0	n/a	GoodResponse	0	n/a	n/a	6	57	Fixation	Neutral	True
545.069	0.45	Control	0.6379	0.001	Yes	3.48	-0.001	4.0	GoodResponse	0	0.344	544.413	6	57	Target	Neutral	True
545.413	0.3	Control	0.6379	0.001	Yes	3.48	-0.001	4.0	GoodResponse	0	0.344	n/a	6	57	ButtonPress	Neutral	True
545.518	0.25	Control	0.6379	n/a	Yes	3.48	n/a	n/a	GoodResponse	0	n/a	n/a	6	57	Blank	Neutral	True
545.768	1.45	Control	0.6379	n/a	Yes	3.48	n/a	5.0	GoodResponse	0	0.011	544.779	6	57	Feedback	Neutral	True
547.218	3.48	Control	0.6379	n/a	Yes	3.48	n/a	n/a	GoodResponse	0	0.0	n/a	6	57	ISIslide	Neutral	True
550.717	0.25	Win2	0.6441	0.0	Yes	2.733	0.017	n/a	GoodResponse	1	n/a	n/a	7	58	Cue	Win	True
550.967	4.05	Win2	0.6441	0.0	Yes	2.733	0.0	n/a	GoodResponse	1	n/a	n/a	7	58	Fixation	Win	True
555.015	0.46	Win2	0.6441	0.002	Yes	2.733	-0.002	4.0	GoodResponse	1	0.26	554.275	7	58	Target	Win	True
555.275	0.3	Win2	0.6441	0.002	Yes	2.733	-0.002	4.0	GoodResponse	1	0.26	n/a	7	58	ButtonPress	Win	True
555.482	0.24	Win2	0.6441	n/a	Yes	2.733	n/a	n/a	GoodResponse	1	n/a	n/a	7	58	Blank	Win	True
555.715	1.45	Win2	0.6441	n/a	Yes	2.733	n/a	5.0	GoodResponse	1	0.014	554.729	7	58	Feedback	Win	True
557.164	2.733	Win2	0.6441	n/a	Yes	2.733	n/a	n/a	GoodResponse	1	0.0	n/a	7	58	ISIslide	Win	True
559.913	0.25	Lose2	0.65	0.001	Yes	2.687	0.013	n/a	GoodResponse	0	n/a	n/a	7	59	Cue	AvoidedLoss	True
560.163	4.0	Lose2	0.65	0.0	Yes	2.687	0.0	n/a	GoodResponse	0	n/a	n/a	7	59	Fixation	AvoidedLoss	True
564.162	0.47	Lose2	0.65	0.001	Yes	2.687	-0.001	4.0	GoodResponse	0	0.184	563.346	7	59	Target	AvoidedLoss	True
564.346	0.3	Lose2	0.65	0.001	Yes	2.687	-0.001	4.0	GoodResponse	0	0.184	n/a	7	59	ButtonPress	AvoidedLoss	True
564.628	0.23	Lose2	0.65	n/a	Yes	2.687	n/a	n/a	GoodResponse	0	n/a	n/a	7	59	Blank	AvoidedLoss	True
564.862	1.45	Lose2	0.65	n/a	Yes	2.687	n/a	5.0	GoodResponse	0	0.038	563.9	7	59	Feedback	AvoidedLoss	True
566.311	2.687	Lose2	0.65	n/a	Yes	2.687	n/a	n/a	GoodResponse	0	0.0	n/a	7	59	ISIslide	AvoidedLoss	True
569.027	0.25	Control	0.6557	0.0	Yes	2.673	0.027	n/a	GoodResponse	0	n/a	n/a	7	60	Cue	Neutral	True
569.277	4.0	Control	0.6557	0.0	Yes	2.673	0.0	n/a	GoodResponse	0	n/a	n/a	7	60	Fixation	Neutral	True
573.276	0.48	Control	0.6557	0.001	Yes	2.673	-0.001	4.0	GoodResponse	0	0.237	572.513	7	60	Target	Neutral	True
573.513	0.3	Control	0.6557	0.001	Yes	2.673	-0.001	4.0	GoodResponse	0	0.237	n/a	7	60	ButtonPress	Neutral	True
573.759	0.22	Control	0.6557	n/a	Yes	2.673	n/a	n/a	GoodResponse	0	n/a	n/a	7	60	Blank	Neutral	True
573.975	1.45	Control	0.6557	n/a	Yes	2.673	n/a	5.0	GoodResponse	0	0.047	573.022	7	60	Feedback	Neutral	True
575.425	2.673	Control	0.6557	n/a	Yes	2.673	n/a	n/a	GoodResponse	0	0.0	n/a	7	60	ISIslide	Neutral	True
578.124	0.25	Lose2	0.6613	0.0	Yes	2.976	0.024	n/a	GoodResponse	0	n/a	n/a	7	61	Cue	AvoidedLoss	True
578.374	4.0	Lose2	0.6613	0.0	Yes	2.976	0.0	n/a	GoodResponse	0	n/a	n/a	7	61	Fixation	AvoidedLoss	True
582.372	0.48	Lose2	0.6613	0.002	Yes	2.976	-0.002	4.0	GoodResponse	0	0.209	581.581	7	61	Target	AvoidedLoss	True
582.581	0.3	Lose2	0.6613	0.002	Yes	2.976	-0.002	4.0	GoodResponse	0	0.209	n/a	7	61	ButtonPress	AvoidedLoss	True
582.856	0.22	Lose2	0.6613	n/a	Yes	2.976	n/a	n/a	GoodResponse	0	n/a	n/a	7	61	Blank	AvoidedLoss	True
583.072	1.45	Lose2	0.6613	n/a	Yes	2.976	n/a	5.0	GoodResponse	0	0.023	582.095	7	61	Feedback	AvoidedLoss	True
584.522	2.976	Lose2	0.6613	n/a	Yes	2.976	n/a	n/a	GoodResponse	0	0.0	n/a	7	61	ISIslide	AvoidedLoss	True
587.521	0.25	Lose2	0.6667000000000001	0.0	Yes	2.879	0.021	n/a	GoodResponse	0	n/a	n/a	7	62	Cue	AvoidedLoss	True
587.77	3.9	Lose2	0.6667000000000001	0.001	Yes	2.879	-0.001	n/a	GoodResponse	0	n/a	n/a	7	62	Fixation	AvoidedLoss	True
591.669	0.48	Lose2	0.6667000000000001	0.002	Yes	2.879	-0.002	4.0	GoodResponse	0	0.21	590.879	7	62	Target	AvoidedLoss	True
591.879	0.3	Lose2	0.6667000000000001	0.002	Yes	2.879	-0.002	4.0	GoodResponse	0	0.21	n/a	7	62	ButtonPress	AvoidedLoss	True
592.152	0.22	Lose2	0.6667000000000001	n/a	Yes	2.879	n/a	n/a	GoodResponse	0	n/a	n/a	7	62	Blank	AvoidedLoss	True
592.369	1.45	Lose2	0.6667000000000001	n/a	Yes	2.879	n/a	5.0	GoodResponse	0	0.043	591.412	7	62	Feedback	AvoidedLoss	True
593.818	2.879	Lose2	0.6667000000000001	n/a	Yes	2.879	n/a	n/a	GoodResponse	0	0.0	n/a	7	62	ISIslide	AvoidedLoss	True
596.717	0.25	Lose2	0.6718999999999999	0.0	Yes	2.633	0.017	n/a	GoodResponse	0	n/a	n/a	7	63	Cue	AvoidedLoss	True
596.967	4.05	Lose2	0.6718999999999999	0.0	Yes	2.633	0.0	n/a	GoodResponse	0	n/a	n/a	7	63	Fixation	AvoidedLoss	True
601.016	0.47	Lose2	0.6718999999999999	0.001	Yes	2.633	-0.001	4.0	GoodResponse	0	0.245	600.261	7	63	Target	AvoidedLoss	True
601.261	0.3	Lose2	0.6718999999999999	0.001	Yes	2.633	-0.001	4.0	GoodResponse	0	0.245	n/a	7	63	ButtonPress	AvoidedLoss	True
601.482	0.23	Lose2	0.6718999999999999	n/a	Yes	2.633	n/a	n/a	GoodResponse	0	n/a	n/a	7	63	Blank	AvoidedLoss	True
601.716	1.45	Lose2	0.6718999999999999	n/a	Yes	2.633	n/a	5.0	GoodResponse	0	0.014	600.73	7	63	Feedback	AvoidedLoss	True
603.165	2.633	Lose2	0.6718999999999999	n/a	Yes	2.633	n/a	n/a	GoodResponse	0	0.0	n/a	7	63	ISIslide	AvoidedLoss	True
605.814	0.25	Win2	0.6769	0.0	Yes	3.136	0.014	n/a	GoodResponse	1	n/a	n/a	8	64	Cue	Win	True
606.064	4.15	Win2	0.6769	0.0	Yes	3.136	0.0	n/a	GoodResponse	1	n/a	n/a	8	64	Fixation	Win	True
610.213	0.46	Win2	0.6769	0.001	Yes	3.136	-0.001	4.0	GoodResponse	1	0.225	609.438	8	64	Target	Win	True
610.438	0.3	Win2	0.6769	0.001	Yes	3.136	-0.001	4.0	GoodResponse	1	0.225	n/a	8	64	ButtonPress	Win	True
610.679	0.24	Win2	0.6769	n/a	Yes	3.136	n/a	n/a	GoodResponse	1	n/a	n/a	8	64	Blank	Win	True
610.912	1.45	Win2	0.6769	n/a	Yes	3.136	n/a	5.0	GoodResponse	1	0.037	609.949	8	64	Feedback	Win	True
612.362	3.136	Win2	0.6769	n/a	Yes	3.136	n/a	n/a	GoodResponse	1	0.0	n/a	8	64	ISIslide	Win	True
615.528	0.25	Control	0.6818000000000001	0.0	Yes	2.772	0.028	n/a	GoodResponse	0	n/a	n/a	8	65	Cue	Neutral	True
615.777	4.0	Control	0.6818000000000001	0.001	Yes	2.772	-0.001	n/a	GoodResponse	0	n/a	n/a	8	65	Fixation	Neutral	True
619.776	0.45	Control	0.6818000000000001	0.002	Yes	2.772	-0.002	4.0	GoodResponse	0	0.206	618.982	8	65	Target	Neutral	True
619.982	0.3	Control	0.6818000000000001	0.002	Yes	2.772	-0.002	4.0	GoodResponse	0	0.206	n/a	8	65	ButtonPress	Neutral	True
620.226	0.25	Control	0.6818000000000001	n/a	Yes	2.772	n/a	n/a	GoodResponse	0	n/a	n/a	8	65	Blank	Neutral	True
620.476	1.45	Control	0.6818000000000001	n/a	Yes	2.772	n/a	5.0	GoodResponse	0	0.033	619.509	8	65	Feedback	Neutral	True
621.925	2.772	Control	0.6818000000000001	n/a	Yes	2.772	n/a	n/a	GoodResponse	0	0.0	n/a	8	65	ISIslide	Neutral	True
624.724	0.25	Win2	0.6866	0.0	Yes	2.776	0.024	n/a	GoodResponse	1	n/a	n/a	9	66	Cue	Win	True
624.974	3.9	Win2	0.6866	0.0	Yes	2.776	0.0	n/a	GoodResponse	1	n/a	n/a	9	66	Fixation	Win	True
628.873	0.44	Win2	0.6866	0.001	Yes	2.776	-0.001	4.0	GoodResponse	1	0.188	628.061	9	66	Target	Win	True
629.061	0.3	Win2	0.6866	0.001	Yes	2.776	-0.001	4.0	GoodResponse	1	0.188	n/a	9	66	ButtonPress	Win	True
629.323	0.26	Win2	0.6866	n/a	Yes	2.776	n/a	n/a	GoodResponse	1	n/a	n/a	9	66	Blank	Win	True
629.573	1.45	Win2	0.6866	n/a	Yes	2.776	n/a	5.0	GoodResponse	1	0.01	628.583	9	66	Feedback	Win	True
631.022	2.776	Win2	0.6866	n/a	Yes	2.776	n/a	n/a	GoodResponse	1	0.0	n/a	9	66	ISIslide	Win	True
633.821	0.25	Control	0.6912	0.0	Yes	2.729	0.021	n/a	GoodResponse	0	n/a	n/a	9	67	Cue	Neutral	True
634.071	3.95	Control	0.6912	0.0	Yes	2.729	0.0	n/a	GoodResponse	0	n/a	n/a	9	67	Fixation	Neutral	True
638.02	0.43	Control	0.6912	0.001	Yes	2.729	-0.001	4.0	GoodResponse	0	0.273	637.293	9	67	Target	Neutral	True
638.293	0.3	Control	0.6912	0.001	Yes	2.729	-0.001	4.0	GoodResponse	0	0.273	n/a	9	67	ButtonPress	Neutral	True
638.453	0.27	Control	0.6912	n/a	Yes	2.729	n/a	n/a	GoodResponse	0	n/a	n/a	9	67	Blank	Neutral	True
638.72	1.45	Control	0.6912	n/a	Yes	2.729	n/a	5.0	GoodResponse	0	0.034	637.754	9	67	Feedback	Neutral	True
640.169	2.729	Control	0.6912	n/a	Yes	2.729	n/a	n/a	GoodResponse	0	0.0	n/a	9	67	ISIslide	Neutral	True
642.918	0.25	Win2	0.6957	0.0	Yes	3.082	0.018	n/a	GoodResponse	1	n/a	n/a	10	68	Cue	Win	False
643.168	4.0	Win2	0.6957	0.0	Yes	3.082	0.0	4.0	GoodResponse	1	0.152	642.32	10	68	Fixation	Win	False
643.32	0.3	Win2	0.6957	0.0	Yes	3.082	0.0	4.0	GoodResponse	1	0.152	n/a	10	68	ButtonPress	Win	False
647.167	0.42	Win2	0.6957	0.001	Yes	3.082	-0.001	4.0	GoodResponse	1	0.234	646.401	10	68	Target	Win	False
647.401	0.3	Win2	0.6957	0.001	Yes	3.082	-0.001	4.0	GoodResponse	1	0.234	n/a	10	68	ButtonPress	Win	False
647.6	0.28	Win2	0.6957	n/a	Yes	3.082	n/a	n/a	GoodResponse	1	n/a	n/a	10	68	Blank	Win	False
647.866	1.45	Win2	0.6957	n/a	Yes	3.082	n/a	5.0	GoodResponse	1	0.01	646.876	10	68	Feedback	Win	False
649.316	3.082	Win2	0.6957	n/a	Yes	3.082	n/a	n/a	GoodResponse	1	0.0	n/a	10	68	ISIslide	Win	False
652.415	0.25	Win2	0.7	0.0	Yes	3.235	0.015	n/a	GoodResponse	1	n/a	n/a	11	69	Cue	Win	True
652.665	3.95	Win2	0.7	0.0	Yes	3.235	0.0	n/a	GoodResponse	1	n/a	n/a	11	69	Fixation	Win	True
656.613	0.41	Win2	0.7	0.002	Yes	3.235	-0.002	4.0	GoodResponse	1	0.251	655.864	11	69	Target	Win	True
656.864	0.3	Win2	0.7	0.002	Yes	3.235	-0.002	4.0	GoodResponse	1	0.251	n/a	11	69	ButtonPress	Win	True
657.03	0.29	Win2	0.7	n/a	Yes	3.235	n/a	n/a	GoodResponse	1	n/a	n/a	11	69	Blank	Win	True
657.313	1.45	Win2	0.7	n/a	Yes	3.235	n/a	5.0	GoodResponse	1	0.026	656.339	11	69	Feedback	Win	True
658.763	3.235	Win2	0.7	n/a	Yes	3.235	n/a	n/a	GoodResponse	1	0.0	n/a	11	69	ISIslide	Win	True
662.028	0.25	Lose2	0.7042	0.0	Yes	3.022	0.028	n/a	GoodResponse	0	n/a	n/a	11	70	Cue	AvoidedLoss	True
662.278	4.05	Lose2	0.7042	0.0	Yes	3.022	0.0	n/a	GoodResponse	0	n/a	n/a	11	70	Fixation	AvoidedLoss	True
666.327	0.4	Lose2	0.7042	0.001	Yes	3.022	-0.001	4.0	GoodResponse	0	0.207	665.534	11	70	Target	AvoidedLoss	True
666.534	0.3	Lose2	0.7042	0.001	Yes	3.022	-0.001	4.0	GoodResponse	0	0.207	n/a	11	70	ButtonPress	AvoidedLoss	True
666.727	0.3	Lose2	0.7042	n/a	Yes	3.022	n/a	n/a	GoodResponse	0	n/a	n/a	11	70	Blank	AvoidedLoss	True
667.026	1.45	Lose2	0.7042	n/a	Yes	3.022	n/a	5.0	GoodResponse	0	0.021	666.047	11	70	Feedback	AvoidedLoss	True
668.476	3.022	Lose2	0.7042	n/a	Yes	3.022	n/a	n/a	GoodResponse	0	0.0	n/a	11	70	ISIslide	AvoidedLoss	True
671.525	0.25	Win2	0.7082999999999999	0.0	Yes	2.725	0.025	n/a	GoodResponse	1	n/a	n/a	12	71	Cue	Win	True
671.775	4.05	Win2	0.7082999999999999	0.0	Yes	2.725	0.0	n/a	GoodResponse	1	n/a	n/a	12	71	Fixation	Win	True
675.823	0.39	Win2	0.7082999999999999	0.002	Yes	2.725	-0.002	4.0	GoodResponse	1	0.225	675.048	12	71	Target	Win	True
676.048	0.3	Win2	0.7082999999999999	0.002	Yes	2.725	-0.002	4.0	GoodResponse	1	0.225	n/a	12	71	ButtonPress	Win	True
676.223	0.31	Win2	0.7082999999999999	n/a	Yes	2.725	n/a	n/a	GoodResponse	1	n/a	n/a	12	71	Blank	Win	True
676.523	1.45	Win2	0.7082999999999999	n/a	Yes	2.725	n/a	5.0	GoodResponse	1	0.035	675.558	12	71	Feedback	Win	True
677.973	2.725	Win2	0.7082999999999999	n/a	Yes	2.725	n/a	n/a	GoodResponse	1	0.0	n/a	12	71	ISIslide	Win	True
680.722	0.25	Win2	0.7123	0.0	Yes	2.778	0.022	n/a	GoodResponse	1	n/a	n/a	13	72	Cue	Win	True
680.972	4.1	Win2	0.7123	0.0	Yes	2.778	0.0	n/a	GoodResponse	1	n/a	n/a	13	72	Fixation	Win	True
685.07	0.38	Win2	0.7123	0.002	Yes	2.778	-0.002	4.0	GoodResponse	1	0.259	684.329	13	72	Target	Win	True
685.329	0.3	Win2	0.7123	0.002	Yes	2.778	-0.002	4.0	GoodResponse	1	0.259	n/a	13	72	ButtonPress	Win	True
685.453	0.32	Win2	0.7123	n/a	Yes	2.778	n/a	n/a	GoodResponse	1	n/a	n/a	13	72	Blank	Win	True
685.77	1.45	Win2	0.7123	n/a	Yes	2.778	n/a	5.0	GoodResponse	1	0.008	684.778	13	72	Feedback	Win	True
687.219	2.778	Win2	0.7123	n/a	Yes	2.778	n/a	n/a	GoodResponse	1	0.0	n/a	13	72	ISIslide	Win	True
690.018	0.25	Win2	0.7162000000000001	0.001	Yes	2.682	0.018	n/a	GoodResponse	1	n/a	n/a	14	73	Cue	Win	True
690.268	4.0	Win2	0.7162000000000001	0.0	Yes	2.682	0.0	n/a	GoodResponse	1	n/a	n/a	14	73	Fixation	Win	True
694.267	0.37	Win2	0.7162000000000001	0.001	Yes	2.682	-0.001	4.0	GoodResponse	1	0.236	693.503	14	73	Target	Win	True
694.503	0.3	Win2	0.7162000000000001	0.001	Yes	2.682	-0.001	4.0	GoodResponse	1	0.236	n/a	14	73	ButtonPress	Win	True
694.634	0.33	Win2	0.7162000000000001	n/a	Yes	2.682	n/a	n/a	GoodResponse	1	n/a	n/a	14	73	Blank	Win	True
694.967	1.45	Win2	0.7162000000000001	n/a	Yes	2.682	n/a	5.0	GoodResponse	1	0.03	693.997	14	73	Feedback	Win	True
696.416	2.682	Win2	0.7162000000000001	n/a	Yes	2.682	n/a	n/a	GoodResponse	1	0.0	n/a	14	73	ISIslide	Win	True
699.115	0.25	Lose2	0.72	0.0	Yes	2.635	0.015	n/a	GoodResponse	0	n/a	n/a	14	74	Cue	AvoidedLoss	True
699.365	4.05	Lose2	0.72	0.0	Yes	2.635	0.0	n/a	GoodResponse	0	n/a	n/a	14	74	Fixation	AvoidedLoss	True
703.414	0.36	Lose2	0.72	0.001	Yes	2.635	-0.001	4.0	GoodResponse	0	0.208	702.622	14	74	Target	AvoidedLoss	True
703.622	0.3	Lose2	0.72	0.001	Yes	2.635	-0.001	4.0	GoodResponse	0	0.208	n/a	14	74	ButtonPress	AvoidedLoss	True
703.78	0.34	Lose2	0.72	n/a	Yes	2.635	n/a	n/a	GoodResponse	0	n/a	n/a	14	74	Blank	AvoidedLoss	True
704.114	1.45	Lose2	0.72	n/a	Yes	2.635	n/a	5.0	GoodResponse	0	0.007	703.121	14	74	Feedback	AvoidedLoss	True
705.563	2.635	Lose2	0.72	n/a	Yes	2.635	n/a	n/a	GoodResponse	0	0.0	n/a	14	74	ISIslide	AvoidedLoss	True
708.229	0.25	Lose2	0.7237	0.0	Yes	2.921	0.029	n/a	GoodResponse	0	n/a	n/a	14	75	Cue	AvoidedLoss	True
708.479	3.95	Lose2	0.7237	0.0	Yes	2.921	0.0	n/a	GoodResponse	0	n/a	n/a	14	75	Fixation	AvoidedLoss	True
712.427	0.35	Lose2	0.7237	0.002	Yes	2.921	-0.002	4.0	GoodResponse	0	0.223	711.65	14	75	Target	AvoidedLoss	True
712.65	0.3	Lose2	0.7237	0.002	Yes	2.921	-0.002	4.0	GoodResponse	0	0.223	n/a	14	75	ButtonPress	AvoidedLoss	True
712.777	0.35	Lose2	0.7237	n/a	Yes	2.921	n/a	n/a	GoodResponse	0	n/a	n/a	14	75	Blank	AvoidedLoss	True
713.127	1.45	Lose2	0.7237	n/a	Yes	2.921	n/a	5.0	GoodResponse	0	0.017	712.144	14	75	Feedback	AvoidedLoss	True
714.577	2.921	Lose2	0.7237	n/a	Yes	2.921	n/a	n/a	GoodResponse	0	0.0	n/a	14	75	ISIslide	AvoidedLoss	True
717.526	0.25	Control	0.7273000000000001	0.0	Yes	3.224	0.026	n/a	GoodResponse	0	n/a	n/a	14	76	Cue	Neutral	True
717.776	4.05	Control	0.7273000000000001	0.0	Yes	3.224	0.0	n/a	GoodResponse	0	n/a	n/a	14	76	Fixation	Neutral	True
721.824	0.34	Control	0.7273000000000001	0.002	Yes	3.224	-0.002	4.0	GoodResponse	0	0.25	721.074	14	76	Target	Neutral	True
722.074	0.3	Control	0.7273000000000001	0.002	Yes	3.224	-0.002	4.0	GoodResponse	0	0.25	n/a	14	76	ButtonPress	Neutral	True
722.174	0.36	Control	0.7273000000000001	n/a	Yes	3.224	n/a	n/a	GoodResponse	0	n/a	n/a	14	76	Blank	Neutral	True
722.524	1.45	Control	0.7273000000000001	n/a	Yes	3.224	n/a	5.0	GoodResponse	0	0.035	721.559	14	76	Feedback	Neutral	True
723.973	3.224	Control	0.7273000000000001	n/a	Yes	3.224	n/a	n/a	GoodResponse	0	0.0	n/a	14	76	ISIslide	Neutral	True
727.222	0.25	Lose2	0.7308	0.0	Yes	2.578	0.022	n/a	GoodResponse	0	n/a	n/a	14	77	Cue	AvoidedLoss	True
727.472	3.95	Lose2	0.7308	0.0	Yes	2.578	0.0	n/a	GoodResponse	0	n/a	n/a	14	77	Fixation	AvoidedLoss	True
731.421	0.33	Lose2	0.7308	0.001	Yes	2.578	-0.001	4.0	GoodResponse	0	0.191	730.612	14	77	Target	AvoidedLoss	True
731.612	0.3	Lose2	0.7308	0.001	Yes	2.578	-0.001	4.0	GoodResponse	0	0.191	n/a	14	77	ButtonPress	AvoidedLoss	True
731.754	0.37	Lose2	0.7308	n/a	Yes	2.578	n/a	n/a	GoodResponse	0	n/a	n/a	14	77	Blank	AvoidedLoss	True
732.121	1.45	Lose2	0.7308	n/a	Yes	2.578	n/a	5.0	GoodResponse	0	0.046	731.167	14	77	Feedback	AvoidedLoss	True
733.57	2.578	Lose2	0.7308	n/a	Yes	2.578	n/a	n/a	GoodResponse	0	0.0	n/a	14	77	ISIslide	AvoidedLoss	True
