onset	duration	cue_type	current_mean_accuracy	duration_error	is_hit	isi_adjusted	onset_delay	response	response_type	reward	rt	rt_time	total_reward	trial_number	trial_phase	trial_type	one_press
11.099	0.25	Control	1.0	0.0	Yes	2.951	-0.001	n/a	GoodResponse	0	n/a	n/a	0	0	Cue	Neutral	True
11.35	3.85	Control	1.0	0.0	Yes	2.951	0.001	n/a	GoodResponse	0	n/a	n/a	0	0	Fixation	Neutral	True
15.195	0.4	Control	1.0	0.004	Yes	2.951	-0.004	2.0	GoodResponse	0	0.287	14.482	0	0	Target	Neutral	True
15.482	0.3	Control	1.0	0.004	Yes	2.951	-0.004	2.0	GoodResponse	0	0.287	n/a	0	0	ButtonPress	Neutral	True
15.596	0.3	Control	1.0	n/a	Yes	2.951	n/a	n/a	GoodResponse	0	n/a	n/a	0	0	Blank	Neutral	True
15.897	1.45	Control	1.0	n/a	Yes	2.951	n/a	5.0	GoodResponse	0	0.03	14.927	0	0	Feedback	Neutral	True
17.351	2.951	Control	1.0	n/a	Yes	2.951	n/a	n/a	GoodResponse	0	0.0	n/a	0	0	ISIslide	Neutral	True
20.327	0.25	Lose2	1.0	0.0	Yes	2.773	0.027	n/a	GoodResponse	0	n/a	n/a	0	1	Cue	AvoidedLoss	True
20.578	4.0	Lose2	1.0	0.0	Yes	2.773	0.001	n/a	GoodResponse	0	n/a	n/a	0	1	Fixation	AvoidedLoss	True
24.573	0.39	Lose2	1.0	0.004	Yes	2.773	-0.004	2.0	GoodResponse	0	0.236	23.809	0	1	Target	AvoidedLoss	True
24.809	0.3	Lose2	1.0	0.004	Yes	2.773	-0.004	2.0	GoodResponse	0	0.236	n/a	0	1	ButtonPress	AvoidedLoss	True
24.974	0.31	Lose2	1.0	n/a	Yes	2.773	n/a	n/a	GoodResponse	0	n/a	n/a	0	1	Blank	AvoidedLoss	True
25.275	1.45	Lose2	1.0	n/a	Yes	2.773	n/a	5.0	GoodResponse	0	0.018	24.293	0	1	Feedback	AvoidedLoss	True
26.729	2.773	Lose2	1.0	n/a	Yes	2.773	n/a	n/a	GoodResponse	0	0.0	n/a	0	1	ISIslide	AvoidedLoss	True
29.521	0.25	Control	1.0	0.0	Yes	2.579	0.021	n/a	GoodResponse	0	n/a	n/a	0	2	Cue	Neutral	True
29.772	4.1	Control	1.0	0.0	Yes	2.579	0.001	n/a	GoodResponse	0	n/a	n/a	0	2	Fixation	Neutral	True
33.867	0.38	Control	1.0	0.004	Yes	2.579	-0.004	2.0	GoodResponse	0	0.255	33.122	0	2	Target	Neutral	True
34.122	0.3	Control	1.0	0.004	Yes	2.579	-0.004	2.0	GoodResponse	0	0.255	n/a	0	2	ButtonPress	Neutral	True
34.252	0.32	Control	1.0	n/a	Yes	2.579	n/a	n/a	GoodResponse	0	n/a	n/a	0	2	Blank	Neutral	True
34.57	1.45	Control	1.0	n/a	Yes	2.579	n/a	5.0	GoodResponse	0	0.04	33.61	0	2	Feedback	Neutral	True
36.024	2.579	Control	1.0	n/a	Yes	2.579	n/a	n/a	GoodResponse	0	0.0	n/a	0	2	ISIslide	Neutral	True
38.632	0.25	Win2	1.0	0.0	Yes	2.818	0.032	n/a	GoodResponse	1	n/a	n/a	1	3	Cue	Win	True
38.882	3.95	Win2	1.0	0.0	Yes	2.818	0.0	n/a	GoodResponse	1	n/a	n/a	1	3	Fixation	Win	True
42.828	0.37	Win2	1.0	0.004	Yes	2.818	-0.004	2.0	GoodResponse	1	0.188	42.016	1	3	Target	Win	True
43.016	0.3	Win2	1.0	0.004	Yes	2.818	-0.004	2.0	GoodResponse	1	0.188	n/a	1	3	ButtonPress	Win	True
43.212	0.33	Win2	1.0	n/a	Yes	2.818	n/a	n/a	GoodResponse	1	n/a	n/a	1	3	Blank	Win	True
43.53	1.45	Win2	1.0	n/a	Yes	2.818	n/a	5.0	GoodResponse	1	0.007	42.537	1	3	Feedback	Win	True
44.984	2.818	Win2	1.0	n/a	Yes	2.818	n/a	n/a	GoodResponse	1	0.0	n/a	1	3	ISIslide	Win	True
47.826	0.25	Win2	1.0	0.0	Yes	3.274	0.026	n/a	GoodResponse	1	n/a	n/a	2	4	Cue	Win	True
48.077	4.0	Win2	1.0	0.0	Yes	3.274	0.001	n/a	GoodResponse	1	n/a	n/a	2	4	Fixation	Win	True
52.072	0.36	Win2	1.0	0.004	Yes	3.274	-0.004	4.0	GoodResponse	1	0.17	51.242	2	4	Target	Win	True
52.242	0.3	Win2	1.0	0.004	Yes	3.274	-0.004	4.0	GoodResponse	1	0.17	n/a	2	4	ButtonPress	Win	True
52.44	0.34	Win2	1.0	n/a	Yes	3.274	n/a	n/a	GoodResponse	1	n/a	n/a	2	4	Blank	Win	True
52.774	1.45	Win2	1.0	n/a	Yes	3.274	n/a	5.0	GoodResponse	1	0.03	51.804	2	4	Feedback	Win	True
54.228	3.274	Win2	1.0	n/a	Yes	3.274	n/a	n/a	GoodResponse	1	0.0	n/a	2	4	ISIslide	Win	True
57.522	0.25	Win2	1.0	0.0	Yes	2.778	0.022	n/a	GoodResponse	1	n/a	n/a	3	5	Cue	Win	True
57.772	4.0	Win2	1.0	0.0	Yes	2.778	0.0	n/a	GoodResponse	1	n/a	n/a	3	5	Fixation	Win	True
61.768	0.35	Win2	1.0	0.004	Yes	2.778	-0.004	2.0	GoodResponse	1	0.205	60.973	3	5	Target	Win	True
61.973	0.3	Win2	1.0	0.004	Yes	2.778	-0.004	2.0	GoodResponse	1	0.205	n/a	3	5	ButtonPress	Win	True
62.119	0.35	Win2	1.0	n/a	Yes	2.778	n/a	n/a	GoodResponse	1	n/a	n/a	3	5	Blank	Win	True
62.47	1.45	Win2	1.0	n/a	Yes	2.778	n/a	5.0	GoodResponse	1	0.042	61.512	3	5	Feedback	Win	True
63.924	2.778	Win2	1.0	n/a	Yes	2.778	n/a	n/a	GoodResponse	1	0.0	n/a	3	5	ISIslide	Win	True
66.716	0.25	Lose2	1.0	0.0	Yes	2.734	0.016	n/a	GoodResponse	0	n/a	n/a	3	6	Cue	AvoidedLoss	True
66.966	3.95	Lose2	1.0	0.001	Yes	2.734	0.0	n/a	GoodResponse	0	n/a	n/a	3	6	Fixation	AvoidedLoss	True
70.912	0.34	Lose2	1.0	0.004	Yes	2.734	-0.004	2.0	GoodResponse	0	0.255	70.167	3	6	Target	AvoidedLoss	True
71.167	0.3	Lose2	1.0	0.004	Yes	2.734	-0.004	2.0	GoodResponse	0	0.255	n/a	3	6	ButtonPress	AvoidedLoss	True
71.263	0.36	Lose2	1.0	n/a	Yes	2.734	n/a	n/a	GoodResponse	0	n/a	n/a	3	6	Blank	AvoidedLoss	True
71.614	1.45	Lose2	1.0	n/a	Yes	2.734	n/a	5.0	GoodResponse	0	0.02	70.634	3	6	Feedback	AvoidedLoss	True
73.068	2.734	Lose2	1.0	n/a	Yes	2.734	n/a	n/a	GoodResponse	0	0.0	n/a	3	6	ISIslide	AvoidedLoss	True
75.826	0.25	Lose2	1.0	0.0	Yes	4.024	0.026	n/a	GoodResponse	0	n/a	n/a	3	7	Cue	AvoidedLoss	True
76.077	4.05	Lose2	1.0	0.0	Yes	4.024	0.001	n/a	GoodResponse	0	n/a	n/a	3	7	Fixation	AvoidedLoss	True
80.123	0.33	Lose2	1.0	0.003	Yes	4.024	-0.003	2.0	GoodResponse	0	0.202	79.325	3	7	Target	AvoidedLoss	True
80.325	0.3	Lose2	1.0	0.003	Yes	4.024	-0.003	2.0	GoodResponse	0	0.202	n/a	3	7	ButtonPress	AvoidedLoss	True
80.457	0.37	Lose2	1.0	n/a	Yes	4.024	n/a	n/a	GoodResponse	0	n/a	n/a	3	7	Blank	AvoidedLoss	True
80.825	1.45	Lose2	1.0	n/a	Yes	4.024	n/a	5.0	GoodResponse	0	0.029	79.854	3	7	Feedback	AvoidedLoss	True
82.279	4.024	Lose2	1.0	n/a	Yes	4.024	n/a	n/a	GoodResponse	0	0.0	n/a	3	7	ISIslide	AvoidedLoss	True
86.324	0.25	Lose2	1.0	0.001	Yes	3.026	0.024	n/a	GoodResponse	0	n/a	n/a	3	8	Cue	AvoidedLoss	True
86.575	3.95	Lose2	1.0	0.0	Yes	3.026	0.001	n/a	GoodResponse	0	n/a	n/a	3	8	Fixation	AvoidedLoss	True
90.52	0.32	Lose2	1.0	0.004	Yes	3.026	-0.004	2.0	GoodResponse	0	0.207	89.727	3	8	Target	AvoidedLoss	True
90.727	0.3	Lose2	1.0	0.004	Yes	3.026	-0.004	2.0	GoodResponse	0	0.207	n/a	3	8	ButtonPress	AvoidedLoss	True
90.855	0.38	Lose2	1.0	n/a	Yes	3.026	n/a	n/a	GoodResponse	0	n/a	n/a	3	8	Blank	AvoidedLoss	True
91.222	1.45	Lose2	1.0	n/a	Yes	3.026	n/a	5.0	GoodResponse	0	0.022	90.244	3	8	Feedback	AvoidedLoss	True
92.677	3.026	Lose2	1.0	n/a	Yes	3.026	n/a	n/a	GoodResponse	0	0.0	n/a	3	8	ISIslide	AvoidedLoss	True
95.719	0.25	Lose2	1.0	0.0	Yes	3.131	0.019	n/a	GoodResponse	0	n/a	n/a	3	9	Cue	AvoidedLoss	True
95.97	3.95	Lose2	1.0	0.0	Yes	3.131	0.001	n/a	GoodResponse	0	n/a	n/a	3	9	Fixation	AvoidedLoss	True
99.915	0.31	Lose2	1.0	0.004	Yes	3.131	-0.004	2.0	GoodResponse	0	0.185	99.1	3	9	Target	AvoidedLoss	True
100.1	0.3	Lose2	1.0	0.004	Yes	3.131	-0.004	2.0	GoodResponse	0	0.185	n/a	3	9	ButtonPress	AvoidedLoss	True
100.233	0.39	Lose2	1.0	n/a	Yes	3.131	n/a	n/a	GoodResponse	0	n/a	n/a	3	9	Blank	AvoidedLoss	True
100.617	1.45	Lose2	1.0	n/a	Yes	3.131	n/a	5.0	GoodResponse	0	0.041	99.658	3	9	Feedback	AvoidedLoss	True
102.072	3.131	Lose2	1.0	n/a	Yes	3.131	n/a	n/a	GoodResponse	0	0.0	n/a	3	9	ISIslide	AvoidedLoss	True
105.231	0.25	Control	1.0	0.0	Yes	3.269	0.031	n/a	GoodResponse	0	n/a	n/a	3	10	Cue	Neutral	True
105.482	4.0	Control	1.0	0.0	Yes	3.269	0.001	n/a	GoodResponse	0	n/a	n/a	3	10	Fixation	Neutral	True
109.477	0.3	Control	1.0	0.004	Yes	3.269	-0.004	2.0	GoodResponse	0	0.227	108.704	3	10	Target	Neutral	True
109.704	0.3	Control	1.0	0.004	Yes	3.269	-0.004	2.0	GoodResponse	0	0.227	n/a	3	10	ButtonPress	Neutral	True
109.778	0.4	Control	1.0	n/a	Yes	3.269	n/a	n/a	GoodResponse	0	n/a	n/a	3	10	Blank	Neutral	True
110.179	1.45	Control	1.0	n/a	Yes	3.269	n/a	5.0	GoodResponse	0	0.04	109.219	3	10	Feedback	Neutral	True
111.634	3.269	Control	1.0	n/a	Yes	3.269	n/a	n/a	GoodResponse	0	0.0	n/a	3	10	ISIslide	Neutral	True
114.927	0.25	Lose2	1.0	0.0	Yes	2.723	0.027	n/a	GoodResponse	0	n/a	n/a	3	11	Cue	AvoidedLoss	True
115.177	4.05	Lose2	1.0	0.001	Yes	2.723	0.0	n/a	GoodResponse	0	n/a	n/a	3	11	Fixation	AvoidedLoss	True
119.223	0.29	Lose2	1.0	0.004	Yes	2.723	-0.004	2.0	GoodResponse	0	0.176	118.399	3	11	Target	AvoidedLoss	True
119.399	0.3	Lose2	1.0	0.004	Yes	2.723	-0.004	2.0	GoodResponse	0	0.176	n/a	3	11	ButtonPress	AvoidedLoss	True
119.524	0.41	Lose2	1.0	n/a	Yes	2.723	n/a	n/a	GoodResponse	0	n/a	n/a	3	11	Blank	AvoidedLoss	True
119.925	1.45	Lose2	1.0	n/a	Yes	2.723	n/a	5.0	GoodResponse	0	0.001	118.926	3	11	Feedback	AvoidedLoss	True
121.379	2.723	Lose2	1.0	n/a	Yes	2.723	n/a	n/a	GoodResponse	0	0.0	n/a	3	11	ISIslide	AvoidedLoss	True
124.121	0.25	Control	1.0	0.0	Yes	2.979	0.021	n/a	GoodResponse	0	n/a	n/a	3	12	Cue	Neutral	True
124.372	3.9	Control	1.0	0.0	Yes	2.979	0.001	n/a	GoodResponse	0	n/a	n/a	3	12	Fixation	Neutral	True
128.267	0.28	Control	1.0	0.004	Yes	2.979	-0.004	2.0	GoodResponse	0	0.18	127.447	3	12	Target	Neutral	True
128.447	0.3	Control	1.0	0.004	Yes	2.979	-0.004	2.0	GoodResponse	0	0.18	n/a	3	12	ButtonPress	Neutral	True
128.551	0.42	Control	1.0	n/a	Yes	2.979	n/a	n/a	GoodResponse	0	n/a	n/a	3	12	Blank	Neutral	True
128.969	1.45	Control	1.0	n/a	Yes	2.979	n/a	5.0	GoodResponse	0	0.03	127.999	3	12	Feedback	Neutral	True
130.423	2.979	Control	1.0	n/a	Yes	2.979	n/a	n/a	GoodResponse	0	0.0	n/a	3	12	ISIslide	Neutral	True
133.415	0.25	Control	1.0	0.001	Yes	2.785	0.015	n/a	GoodResponse	0	n/a	n/a	3	13	Cue	Neutral	True
133.666	4.0	Control	1.0	0.0	Yes	2.785	0.001	n/a	GoodResponse	0	n/a	n/a	3	13	Fixation	Neutral	True
137.661	0.27	Control	1.0	0.004	Yes	2.785	-0.004	2.0	GoodResponse	0	0.199	136.86	3	13	Target	Neutral	True
137.86	0.3	Control	1.0	0.004	Yes	2.785	-0.004	2.0	GoodResponse	0	0.199	n/a	3	13	ButtonPress	Neutral	True
137.946	0.43	Control	1.0	n/a	Yes	2.785	n/a	n/a	GoodResponse	0	n/a	n/a	3	13	Blank	Neutral	True
138.364	1.45	Control	1.0	n/a	Yes	2.785	n/a	5.0	GoodResponse	0	0.001	137.365	3	13	Feedback	Neutral	True
139.818	2.785	Control	1.0	n/a	Yes	2.785	n/a	n/a	GoodResponse	0	0.0	n/a	3	13	ISIslide	Neutral	True
142.626	0.25	Win2	1.0	0.0	Yes	2.674	0.026	n/a	GoodResponse	1	n/a	n/a	4	14	Cue	Win	True
142.877	4.1	Win2	1.0	0.0	Yes	2.674	0.001	n/a	GoodResponse	1	n/a	n/a	4	14	Fixation	Win	True
146.973	0.26	Win2	1.0	0.003	Yes	2.674	-0.003	2.0	GoodResponse	1	0.204	146.177	4	14	Target	Win	True
147.177	0.3	Win2	1.0	0.003	Yes	2.674	-0.003	2.0	GoodResponse	1	0.204	n/a	4	14	ButtonPress	Win	True
147.24	0.44	Win2	1.0	n/a	Yes	2.674	n/a	n/a	GoodResponse	1	n/a	n/a	4	14	Blank	Win	True
147.675	1.45	Win2	1.0	n/a	Yes	2.674	n/a	5.0	GoodResponse	1	0.007	146.682	4	14	Feedback	Win	True
149.129	2.674	Win2	1.0	n/a	Yes	2.674	n/a	n/a	GoodResponse	1	0.0	n/a	4	14	ISIslide	Win	True
151.82	0.25	Control	0.9375	0.001	No	2.98	0.02	n/a	NoResponse	0	n/a	n/a	4	15	Cue	Neutral	True
152.071	4.0	Control	0.9375	0.0	No	2.98	0.001	n/a	NoResponse	0	n/a	n/a	4	15	Fixation	Neutral	True
156.067	0.25	Control	0.9375	0.003	No	2.98	-0.003	2.0	NoResponse	0	0.258	155.325	4	15	Target	Neutral	True
156.317	0.45	Control	0.9375	n/a	No	2.98	n/a	n/a	NoResponse	0	n/a	n/a	4	15	Blank	Neutral	True
156.325	0.3	Control	0.9375	0.003	No	2.98	-0.003	2.0	NoResponse	0	0.258	n/a	4	15	ButtonPress	Neutral	True
156.769	1.45	Control	0.9375	n/a	No	2.98	n/a	5.0	NoResponse	0	0.035	155.804	4	15	Feedback	Neutral	True
158.223	2.98	Control	0.9375	n/a	No	2.98	n/a	n/a	NoResponse	0	0.0	n/a	4	15	ISIslide	Neutral	True
161.215	0.25	Win2	0.9412	0.0	Yes	2.885	0.015	n/a	GoodResponse	1	n/a	n/a	5	16	Cue	Win	True
161.466	4.0	Win2	0.9412	0.0	Yes	2.885	0.001	n/a	GoodResponse	1	n/a	n/a	5	16	Fixation	Win	True
165.461	0.24	Win2	0.9412	0.004	Yes	2.885	-0.004	2.0	GoodResponse	1	0.174	164.635	5	16	Target	Win	True
165.635	0.3	Win2	0.9412	0.004	Yes	2.885	-0.004	2.0	GoodResponse	1	0.174	n/a	5	16	ButtonPress	Win	True
165.712	0.46	Win2	0.9412	n/a	Yes	2.885	n/a	n/a	GoodResponse	1	n/a	n/a	5	16	Blank	Win	True
166.163	1.45	Win2	0.9412	n/a	Yes	2.885	n/a	5.0	GoodResponse	1	0.007	165.17	5	16	Feedback	Win	True
167.618	2.885	Win2	0.9412	n/a	Yes	2.885	n/a	n/a	GoodResponse	1	0.0	n/a	5	16	ISIslide	Win	True
170.526	0.25	Lose2	0.9444	0.001	Yes	2.724	0.026	n/a	GoodResponse	0	n/a	n/a	5	17	Cue	AvoidedLoss	True
170.777	3.95	Lose2	0.9444	0.0	Yes	2.724	0.001	n/a	GoodResponse	0	n/a	n/a	5	17	Fixation	AvoidedLoss	True
174.722	0.23	Lose2	0.9444	0.004	Yes	2.724	-0.004	2.0	GoodResponse	0	0.177	173.899	5	17	Target	AvoidedLoss	True
174.899	0.3	Lose2	0.9444	0.004	Yes	2.724	-0.004	2.0	GoodResponse	0	0.177	n/a	5	17	ButtonPress	AvoidedLoss	True
174.956	0.47	Lose2	0.9444	n/a	Yes	2.724	n/a	n/a	GoodResponse	0	n/a	n/a	5	17	Blank	AvoidedLoss	True
175.424	1.45	Lose2	0.9444	n/a	Yes	2.724	n/a	5.0	GoodResponse	0	0.014	174.438	5	17	Feedback	AvoidedLoss	True
176.879	2.724	Lose2	0.9444	n/a	Yes	2.724	n/a	n/a	GoodResponse	0	0.0	n/a	5	17	ISIslide	AvoidedLoss	True
179.62	0.25	Lose2	0.9473999999999999	0.0	Yes	2.73	0.02	n/a	GoodResponse	0	n/a	n/a	5	18	Cue	AvoidedLoss	True
179.871	4.05	Lose2	0.9473999999999999	0.0	Yes	2.73	0.001	n/a	GoodResponse	0	n/a	n/a	5	18	Fixation	AvoidedLoss	True
183.917	0.22	Lose2	0.9473999999999999	0.003	Yes	2.73	-0.003	2.0	GoodResponse	0	0.153	183.07	5	18	Target	AvoidedLoss	True
184.07	0.3	Lose2	0.9473999999999999	0.003	Yes	2.73	-0.003	2.0	GoodResponse	0	0.153	n/a	5	18	ButtonPress	AvoidedLoss	True
184.151	0.48	Lose2	0.9473999999999999	n/a	Yes	2.73	n/a	n/a	GoodResponse	0	n/a	n/a	5	18	Blank	AvoidedLoss	True
184.619	1.45	Lose2	0.9473999999999999	n/a	Yes	2.73	n/a	5.0	GoodResponse	0	0.039	183.658	5	18	Feedback	AvoidedLoss	True
186.073	2.73	Lose2	0.9473999999999999	n/a	Yes	2.73	n/a	n/a	GoodResponse	0	0.0	n/a	5	18	ISIslide	AvoidedLoss	True
188.815	0.25	Control	0.95	0.0	Yes	2.935	0.015	n/a	GoodResponse	0	n/a	n/a	5	19	Cue	Neutral	True
189.065	3.95	Control	0.95	0.0	Yes	2.935	0.0	n/a	GoodResponse	0	n/a	n/a	5	19	Fixation	Neutral	True
193.027	0.21	Control	0.95	0.0	Yes	2.935	0.012	2.0	GoodResponse	0	0.195	192.222	5	19	Target	Neutral	True
193.222	0.3	Control	0.95	0.0	Yes	2.935	0.012	2.0	GoodResponse	0	0.195	n/a	5	19	ButtonPress	Neutral	True
193.228	0.49	Control	0.95	n/a	Yes	2.935	n/a	n/a	GoodResponse	0	n/a	n/a	5	19	Blank	Neutral	True
193.713	1.45	Control	0.95	n/a	Yes	2.935	n/a	5.0	GoodResponse	0	0.017	192.73	5	19	Feedback	Neutral	True
195.167	2.935	Control	0.95	n/a	Yes	2.935	n/a	n/a	GoodResponse	0	0.0	n/a	5	19	ISIslide	Neutral	True
198.126	0.25	Control	0.9048	0.0	No	2.624	0.026	n/a	LatePress	0	n/a	n/a	5	20	Cue	Neutral	True
198.377	4.05	Control	0.9048	0.0	No	2.624	0.001	n/a	LatePress	0	n/a	n/a	5	20	Fixation	Neutral	True
202.422	0.2	Control	0.9048	0.004	No	2.624	-0.004	2.0	LatePress	0	0.2	201.622	5	20	Target	Neutral	True
202.622	0.3	Control	0.9048	0.004	No	2.624	-0.004	2.0	LatePress	0	0.2	n/a	5	20	ButtonPress	Neutral	True
202.623	0.5	Control	0.9048	n/a	No	2.624	n/a	n/a	LatePress	0	n/a	n/a	5	20	Blank	Neutral	True
203.124	1.45	Control	0.9048	n/a	No	2.624	n/a	5.0	LatePress	0	0.021	202.145	5	20	Feedback	Neutral	True
204.578	2.624	Control	0.9048	n/a	No	2.624	n/a	n/a	LatePress	0	0.0	n/a	5	20	ISIslide	Neutral	True
207.22	0.25	Control	0.9091	0.0	Yes	2.78	0.02	n/a	GoodResponse	0	n/a	n/a	5	21	Cue	Neutral	True
207.47	4.1	Control	0.9091	0.0	Yes	2.78	0.0	n/a	GoodResponse	0	n/a	n/a	5	21	Fixation	Neutral	True
211.566	0.19	Control	0.9091	0.004	Yes	2.78	-0.004	2.0	GoodResponse	0	0.164	210.73	5	21	Target	Neutral	True
211.73	0.3	Control	0.9091	0.004	Yes	2.78	-0.004	2.0	GoodResponse	0	0.164	n/a	5	21	ButtonPress	Neutral	True
211.767	0.51	Control	0.9091	n/a	Yes	2.78	n/a	n/a	GoodResponse	0	n/a	n/a	5	21	Blank	Neutral	True
212.268	1.45	Control	0.9091	n/a	Yes	2.78	n/a	5.0	GoodResponse	0	0.047	211.315	5	21	Feedback	Neutral	True
213.722	2.78	Control	0.9091	n/a	Yes	2.78	n/a	n/a	GoodResponse	0	0.0	n/a	5	21	ISIslide	Neutral	True
216.514	0.25	Control	0.8695999999999999	0.0	No	2.786	0.014	n/a	NoResponse	0	n/a	n/a	5	22	Cue	Neutral	False
216.765	4.0	Control	0.8695999999999999	0.0	No	2.786	0.001	2.0	NoResponse	0	3.411	219.176	5	22	Fixation	Neutral	False
220.176	0.3	Control	0.8695999999999999	0.0	No	2.786	0.001	2.0	NoResponse	0	3.411	n/a	5	22	ButtonPress	Neutral	False
220.76	0.18	Control	0.8695999999999999	0.004	No	2.786	-0.004	2.0	NoResponse	0	0.193	219.953	5	22	Target	Neutral	False
220.944	0.52	Control	0.8695999999999999	n/a	No	2.786	n/a	n/a	NoResponse	0	n/a	n/a	5	22	Blank	Neutral	False
220.953	0.3	Control	0.8695999999999999	0.004	No	2.786	-0.004	2.0	NoResponse	0	0.193	n/a	5	22	ButtonPress	Neutral	False
221.462	1.45	Control	0.8695999999999999	n/a	No	2.786	n/a	5.0	NoResponse	0	0.024	220.486	5	22	Feedback	Neutral	False
222.917	2.786	Control	0.8695999999999999	n/a	No	2.786	n/a	n/a	NoResponse	0	0.0	n/a	5	22	ISIslide	Neutral	False
225.725	0.25	Control	0.8332999999999999	0.0	No	2.775	0.025	n/a	NoResponse	0	n/a	n/a	5	23	Cue	Neutral	True
225.976	3.9	Control	0.8332999999999999	0.0	No	2.775	0.001	n/a	NoResponse	0	n/a	n/a	5	23	Fixation	Neutral	True
229.871	0.17	Control	0.8332999999999999	0.004	No	2.775	-0.004	2.0	NoResponse	0	0.19	229.061	5	23	Target	Neutral	True
230.055	0.53	Control	0.8332999999999999	n/a	No	2.775	n/a	n/a	NoResponse	0	n/a	n/a	5	23	Blank	Neutral	True
230.061	0.3	Control	0.8332999999999999	0.004	No	2.775	-0.004	2.0	NoResponse	0	0.19	n/a	5	23	ButtonPress	Neutral	True
230.573	1.45	Control	0.8332999999999999	n/a	No	2.775	n/a	5.0	NoResponse	0	0.035	229.608	5	23	Feedback	Neutral	True
232.027	2.775	Control	0.8332999999999999	n/a	No	2.775	n/a	n/a	NoResponse	0	0.0	n/a	5	23	ISIslide	Neutral	True
234.819	0.25	Win2	0.8	0.0	No	3.131	0.019	n/a	NoResponse	0	n/a	n/a	5	24	Cue	MissedWin	True
235.07	3.95	Win2	0.8	0.0	No	3.131	0.001	n/a	NoResponse	0	n/a	n/a	5	24	Fixation	MissedWin	True
239.015	0.16	Win2	0.8	0.004	No	3.131	-0.004	2.0	NoResponse	0	0.187	238.202	5	24	Target	MissedWin	True
239.182	0.54	Win2	0.8	n/a	No	3.131	n/a	n/a	NoResponse	0	n/a	n/a	5	24	Blank	MissedWin	True
239.202	0.3	Win2	0.8	0.004	No	3.131	-0.004	2.0	NoResponse	0	0.187	n/a	5	24	ButtonPress	MissedWin	True
239.717	1.45	Win2	0.8	n/a	No	3.131	n/a	5.0	NoResponse	0	0.013	238.73	5	24	Feedback	MissedWin	True
241.171	3.131	Win2	0.8	n/a	No	3.131	n/a	n/a	NoResponse	0	0.0	n/a	5	24	ISIslide	MissedWin	True
244.314	0.25	Win2	0.7692	0.0	No	3.086	0.014	n/a	PrematurePress	0	n/a	n/a	5	25	Cue	MissedWin	True
244.565	4.0	Win2	0.7692	0.0	No	3.086	0.001	n/a	PrematurePress	0	n/a	n/a	5	25	Fixation	MissedWin	True
248.56	0.15	Win2	0.7692	0.004	No	3.086	-0.004	2.0	PrematurePress	0	0.085	247.645	5	25	Target	MissedWin	True
248.645	0.3	Win2	0.7692	0.004	No	3.086	-0.004	2.0	PrematurePress	0	0.085	n/a	5	25	ButtonPress	MissedWin	True
248.71	0.55	Win2	0.7692	n/a	No	3.086	n/a	n/a	PrematurePress	0	n/a	n/a	5	25	Blank	MissedWin	True
249.262	1.45	Win2	0.7692	n/a	No	3.086	n/a	5.0	PrematurePress	0	0.029	248.291	5	25	Feedback	MissedWin	True
250.717	3.086	Win2	0.7692	n/a	No	3.086	n/a	n/a	PrematurePress	0	0.0	n/a	5	25	ISIslide	MissedWin	True
253.826	0.25	Win2	0.7406999999999999	0.0	No	2.924	0.026	n/a	NoResponse	0	n/a	n/a	5	26	Cue	MissedWin	True
254.077	3.95	Win2	0.7406999999999999	0.0	No	2.924	0.001	n/a	NoResponse	0	n/a	n/a	5	26	Fixation	MissedWin	True
258.022	0.15	Win2	0.7406999999999999	0.004	No	2.924	-0.004	2.0	NoResponse	0	0.18	257.202	5	26	Target	MissedWin	True
258.172	0.55	Win2	0.7406999999999999	n/a	No	2.924	n/a	n/a	NoResponse	0	n/a	n/a	5	26	Blank	MissedWin	True
258.202	0.3	Win2	0.7406999999999999	0.004	No	2.924	-0.004	2.0	NoResponse	0	0.18	n/a	5	26	ButtonPress	MissedWin	True
258.724	1.45	Win2	0.7406999999999999	n/a	No	2.924	n/a	5.0	NoResponse	0	0.03	257.754	5	26	Feedback	MissedWin	True
260.178	2.924	Win2	0.7406999999999999	n/a	No	2.924	n/a	n/a	NoResponse	0	0.0	n/a	5	26	ISIslide	MissedWin	True
263.12	0.25	Lose2	0.7143	0.0	No	2.83	0.02	n/a	NoResponse	-1	n/a	n/a	4	27	Cue	Loss	False
263.371	4.05	Lose2	0.7143	0.0	No	2.83	0.001	2.0	NoResponse	-1	3.743	266.114	4	27	Fixation	Loss	False
267.114	0.3	Lose2	0.7143	0.0	No	2.83	0.001	2.0	NoResponse	-1	3.743	n/a	4	27	ButtonPress	Loss	False
267.416	0.15	Lose2	0.7143	0.004	No	2.83	-0.004	2.0	NoResponse	-1	0.192	266.608	4	27	Target	Loss	False
267.567	0.55	Lose2	0.7143	n/a	No	2.83	n/a	n/a	NoResponse	-1	n/a	n/a	4	27	Blank	Loss	False
267.608	0.3	Lose2	0.7143	0.004	No	2.83	-0.004	2.0	NoResponse	-1	0.192	n/a	4	27	ButtonPress	Loss	False
268.119	1.45	Lose2	0.7143	n/a	No	2.83	n/a	5.0	NoResponse	-1	0.001	267.12	4	27	Feedback	Loss	False
269.573	2.83	Lose2	0.7143	n/a	No	2.83	n/a	n/a	NoResponse	-1	0.0	n/a	4	27	ISIslide	Loss	False
272.415	0.25	Control	0.6897	0.0	No	2.835	0.015	n/a	NoResponse	0	n/a	n/a	4	28	Cue	Neutral	True
272.666	4.05	Control	0.6897	0.0	No	2.835	0.001	n/a	NoResponse	0	n/a	n/a	4	28	Fixation	Neutral	True
276.711	0.15	Control	0.6897	0.004	No	2.835	-0.004	2.0	NoResponse	0	0.169	275.88	4	28	Target	Neutral	True
276.861	0.55	Control	0.6897	n/a	No	2.835	n/a	n/a	NoResponse	0	n/a	n/a	4	28	Blank	Neutral	True
276.88	0.3	Control	0.6897	0.004	No	2.835	-0.004	2.0	NoResponse	0	0.169	n/a	4	28	ButtonPress	Neutral	True
277.413	1.45	Control	0.6897	n/a	No	2.835	n/a	5.0	NoResponse	0	0.024	276.437	4	28	Feedback	Neutral	True
278.867	2.835	Control	0.6897	n/a	No	2.835	n/a	n/a	NoResponse	0	0.0	n/a	4	28	ISIslide	Neutral	True
281.726	0.25	Lose2	0.6667000000000001	0.0	No	2.824	0.026	n/a	NoResponse	-1	n/a	n/a	3	29	Cue	Loss	True
281.977	3.95	Lose2	0.6667000000000001	0.0	No	2.824	0.001	n/a	NoResponse	-1	n/a	n/a	3	29	Fixation	Loss	True
285.922	0.15	Lose2	0.6667000000000001	0.004	No	2.824	-0.004	2.0	NoResponse	-1	0.17	285.092	3	29	Target	Loss	True
286.072	0.55	Lose2	0.6667000000000001	n/a	No	2.824	n/a	n/a	NoResponse	-1	n/a	n/a	3	29	Blank	Loss	True
286.092	0.3	Lose2	0.6667000000000001	0.004	No	2.824	-0.004	2.0	NoResponse	-1	0.17	n/a	3	29	ButtonPress	Loss	True
286.624	1.45	Lose2	0.6667000000000001	n/a	No	2.824	n/a	5.0	NoResponse	-1	0.033	285.657	3	29	Feedback	Loss	True
288.078	2.824	Lose2	0.6667000000000001	n/a	No	2.824	n/a	n/a	NoResponse	-1	0.0	n/a	3	29	ISIslide	Loss	True
290.92	0.25	Win2	0.6452	0.0	No	2.78	0.02	n/a	NoResponse	0	n/a	n/a	3	30	Cue	MissedWin	True
291.171	3.9	Win2	0.6452	0.0	No	2.78	0.001	n/a	NoResponse	0	n/a	n/a	3	30	Fixation	MissedWin	True
295.066	0.15	Win2	0.6452	0.004	No	2.78	-0.004	2.0	NoResponse	0	0.185	294.251	3	30	Target	MissedWin	True
295.216	0.55	Win2	0.6452	n/a	No	2.78	n/a	n/a	NoResponse	0	n/a	n/a	3	30	Blank	MissedWin	True
295.251	0.3	Win2	0.6452	0.004	No	2.78	-0.004	2.0	NoResponse	0	0.185	n/a	3	30	ButtonPress	MissedWin	True
295.768	1.45	Win2	0.6452	n/a	No	2.78	n/a	5.0	NoResponse	0	0.01	294.778	3	30	Feedback	MissedWin	True
297.222	2.78	Win2	0.6452	n/a	No	2.78	n/a	n/a	NoResponse	0	0.0	n/a	3	30	ISIslide	MissedWin	True
300.014	0.25	Lose2	0.625	0.0	No	2.836	0.014	n/a	NoResponse	-1	n/a	n/a	2	31	Cue	Loss	True
300.265	4.05	Lose2	0.625	0.0	No	2.836	0.001	n/a	NoResponse	-1	n/a	n/a	2	31	Fixation	Loss	True
304.31	0.16	Lose2	0.625	0.004	No	2.836	-0.004	2.0	NoResponse	-1	0.18	303.49	2	31	Target	Loss	True
304.477	0.54	Lose2	0.625	n/a	No	2.836	n/a	n/a	NoResponse	-1	n/a	n/a	2	31	Blank	Loss	True
304.49	0.3	Lose2	0.625	0.004	No	2.836	-0.004	2.0	NoResponse	-1	0.18	n/a	2	31	ButtonPress	Loss	True
305.012	1.45	Lose2	0.625	n/a	No	2.836	n/a	5.0	NoResponse	-1	0.034	304.046	2	31	Feedback	Loss	True
306.467	2.836	Lose2	0.625	n/a	No	2.836	n/a	2.0	NoResponse	-1	2.039	n/a	2	31	ISIslide	Loss	True
309.309	0.25	Lose2	0.6061	0.0	No	2.641	0.009	n/a	NoResponse	-1	n/a	n/a	1	32	Cue	Loss	True
309.559	4.15	Lose2	0.6061	0.0	No	2.641	0.0	n/a	NoResponse	-1	n/a	n/a	1	32	Fixation	Loss	True
313.705	0.17	Lose2	0.6061	0.004	No	2.641	-0.004	2.0	NoResponse	-1	0.2	312.905	1	32	Target	Loss	True
313.889	0.53	Lose2	0.6061	n/a	No	2.641	n/a	n/a	NoResponse	-1	n/a	n/a	1	32	Blank	Loss	True
313.905	0.3	Lose2	0.6061	0.004	No	2.641	-0.004	2.0	NoResponse	-1	0.2	n/a	1	32	ButtonPress	Loss	True
314.407	1.45	Lose2	0.6061	n/a	No	2.641	n/a	5.0	NoResponse	-1	0.005	313.412	1	32	Feedback	Loss	True
315.862	2.641	Lose2	0.6061	n/a	No	2.641	n/a	n/a	NoResponse	-1	0.0	n/a	1	32	ISIslide	Loss	True
318.519	0.25	Win2	0.5882000000000001	0.001	No	2.681	0.019	n/a	NoResponse	0	n/a	n/a	1	33	Cue	MissedWin	True
318.77	4.0	Win2	0.5882000000000001	0.0	No	2.681	0.001	n/a	NoResponse	0	n/a	n/a	1	33	Fixation	MissedWin	True
322.766	0.18	Win2	0.5882000000000001	0.003	No	2.681	-0.003	2.0	NoResponse	0	0.197	321.963	1	33	Target	MissedWin	True
322.949	0.52	Win2	0.5882000000000001	n/a	No	2.681	n/a	n/a	NoResponse	0	n/a	n/a	1	33	Blank	MissedWin	True
322.963	0.3	Win2	0.5882000000000001	0.003	No	2.681	-0.003	2.0	NoResponse	0	0.197	n/a	1	33	ButtonPress	MissedWin	True
323.468	1.45	Win2	0.5882000000000001	n/a	No	2.681	n/a	5.0	NoResponse	0	0.017	322.485	1	33	Feedback	MissedWin	True
324.922	2.681	Win2	0.5882000000000001	n/a	No	2.681	n/a	n/a	NoResponse	0	0.0	n/a	1	33	ISIslide	MissedWin	True
327.613	0.25	Lose2	0.6	0.0	Yes	2.637	0.013	n/a	GoodResponse	0	n/a	n/a	1	34	Cue	AvoidedLoss	True
327.864	4.05	Lose2	0.6	0.0	Yes	2.637	0.001	n/a	GoodResponse	0	n/a	n/a	1	34	Fixation	AvoidedLoss	True
331.91	0.19	Lose2	0.6	0.003	Yes	2.637	-0.003	2.0	GoodResponse	0	0.182	331.092	1	34	Target	AvoidedLoss	True
332.092	0.3	Lose2	0.6	0.003	Yes	2.637	-0.003	2.0	GoodResponse	0	0.182	n/a	1	34	ButtonPress	AvoidedLoss	True
332.11	0.51	Lose2	0.6	n/a	Yes	2.637	n/a	n/a	GoodResponse	0	n/a	n/a	1	34	Blank	AvoidedLoss	True
332.612	1.45	Lose2	0.6	n/a	Yes	2.637	n/a	5.0	GoodResponse	0	0.044	331.656	1	34	Feedback	AvoidedLoss	True
334.066	2.637	Lose2	0.6	n/a	Yes	2.637	n/a	n/a	GoodResponse	0	0.0	n/a	1	34	ISIslide	AvoidedLoss	True
336.724	0.25	Lose2	0.5832999999999999	0.0	No	2.676	0.024	n/a	NoResponse	-1	n/a	n/a	0	35	Cue	Loss	True
336.975	4.0	Lose2	0.5832999999999999	0.0	No	2.676	0.001	n/a	NoResponse	-1	n/a	n/a	0	35	Fixation	Loss	True
340.97	0.2	Lose2	0.5832999999999999	0.004	No	2.676	-0.004	2.0	NoResponse	-1	0.209	340.179	0	35	Target	Loss	True
341.171	0.5	Lose2	0.5832999999999999	n/a	No	2.676	n/a	n/a	NoResponse	-1	n/a	n/a	0	35	Blank	Loss	True
341.179	0.3	Lose2	0.5832999999999999	0.004	No	2.676	-0.004	2.0	NoResponse	-1	0.209	n/a	0	35	ButtonPress	Loss	True
341.672	1.45	Lose2	0.5832999999999999	n/a	No	2.676	n/a	5.0	NoResponse	-1	0.009	340.681	0	35	Feedback	Loss	True
343.126	2.676	Lose2	0.5832999999999999	n/a	No	2.676	n/a	n/a	NoResponse	-1	0.0	n/a	0	35	ISIslide	Loss	True
345.818	0.25	Control	0.5946	0.0	Yes	2.682	0.018	n/a	GoodResponse	0	n/a	n/a	0	36	Cue	Neutral	True
346.069	4.0	Control	0.5946	0.0	Yes	2.682	0.001	n/a	GoodResponse	0	n/a	n/a	0	36	Fixation	Neutral	True
350.064	0.21	Control	0.5946	0.004	Yes	2.682	-0.004	2.0	GoodResponse	0	0.206	349.27	0	36	Target	Neutral	True
350.27	0.3	Control	0.5946	0.004	Yes	2.682	-0.004	2.0	GoodResponse	0	0.206	n/a	0	36	ButtonPress	Neutral	True
350.281	0.49	Control	0.5946	n/a	Yes	2.682	n/a	n/a	GoodResponse	0	n/a	n/a	0	36	Blank	Neutral	True
350.766	1.45	Control	0.5946	n/a	Yes	2.682	n/a	5.0	GoodResponse	0	0.036	349.802	0	36	Feedback	Neutral	True
352.22	2.682	Control	0.5946	n/a	Yes	2.682	n/a	n/a	GoodResponse	0	0.0	n/a	0	36	ISIslide	Neutral	True
354.928	0.25	Win2	0.5789	0.001	No	2.872	0.028	n/a	NoResponse	0	n/a	n/a	0	37	Cue	MissedWin	True
355.179	4.0	Win2	0.5789	0.0	No	2.872	0.001	n/a	NoResponse	0	n/a	n/a	0	37	Fixation	MissedWin	True
359.174	0.22	Win2	0.5789	0.004	No	2.872	-0.004	2.0	NoResponse	0	0.242	358.416	0	37	Target	MissedWin	True
359.409	0.48	Win2	0.5789	n/a	No	2.872	n/a	n/a	NoResponse	0	n/a	n/a	0	37	Blank	MissedWin	True
359.416	0.3	Win2	0.5789	0.004	No	2.872	-0.004	2.0	NoResponse	0	0.242	n/a	0	37	ButtonPress	MissedWin	True
359.877	1.45	Win2	0.5789	n/a	No	2.872	n/a	5.0	NoResponse	0	0.047	358.924	0	37	Feedback	MissedWin	True
361.331	2.872	Win2	0.5789	n/a	No	2.872	n/a	n/a	NoResponse	0	0.0	n/a	0	37	ISIslide	MissedWin	True
364.223	0.25	Lose2	0.5640999999999999	0.0	No	2.827	0.023	n/a	NoResponse	-1	n/a	n/a	-1	38	Cue	Loss	True
364.474	3.95	Lose2	0.5640999999999999	0.0	No	2.827	0.001	n/a	NoResponse	-1	n/a	n/a	-1	38	Fixation	Loss	True
368.419	0.23	Lose2	0.5640999999999999	0.004	No	2.827	-0.004	2.0	NoResponse	-1	0.31	367.729	-1	38	Target	Loss	True
368.653	0.47	Lose2	0.5640999999999999	n/a	No	2.827	n/a	n/a	NoResponse	-1	n/a	n/a	-1	38	Blank	Loss	True
368.729	0.3	Lose2	0.5640999999999999	0.004	No	2.827	-0.004	2.0	NoResponse	-1	0.31	n/a	-1	38	ButtonPress	Loss	True
369.121	1.45	Lose2	0.5640999999999999	n/a	No	2.827	n/a	5.0	NoResponse	-1	0.022	368.143	-1	38	Feedback	Loss	True
370.575	2.827	Lose2	0.5640999999999999	n/a	No	2.827	n/a	n/a	NoResponse	-1	0.0	n/a	-1	38	ISIslide	Loss	True
373.417	0.25	Win2	0.55	0.0	No	2.983	0.017	n/a	NoResponse	0	n/a	n/a	-1	39	Cue	MissedWin	True
373.668	4.1	Win2	0.55	0.0	No	2.983	0.001	n/a	NoResponse	0	n/a	n/a	-1	39	Fixation	MissedWin	True
377.763	0.24	Win2	0.55	0.004	No	2.983	-0.004	2.0	NoResponse	0	0.558	377.321	-1	39	Target	MissedWin	True
378.014	0.46	Win2	0.55	n/a	No	2.983	n/a	n/a	NoResponse	0	n/a	n/a	-1	39	Blank	MissedWin	True
378.321	0.3	Win2	0.55	0.004	No	2.983	-0.004	2.0	NoResponse	0	0.558	n/a	-1	39	ButtonPress	MissedWin	True
378.466	1.45	Win2	0.55	n/a	No	2.983	n/a	5.0	NoResponse	0	0.043	377.509	-1	39	Feedback	MissedWin	True
379.92	2.983	Win2	0.55	n/a	No	2.983	n/a	n/a	NoResponse	0	0.0	n/a	-1	39	ISIslide	MissedWin	True
382.929	0.25	Win2	0.561	0.0	Yes	2.721	0.029	n/a	GoodResponse	1	n/a	n/a	0	40	Cue	Win	True
383.18	3.95	Win2	0.561	0.0	Yes	2.721	0.001	n/a	GoodResponse	1	n/a	n/a	0	40	Fixation	Win	True
387.125	0.25	Win2	0.561	0.004	Yes	2.721	-0.004	2.0	GoodResponse	1	0.21	386.335	0	40	Target	Win	True
387.335	0.3	Win2	0.561	0.004	Yes	2.721	-0.004	2.0	GoodResponse	1	0.21	n/a	0	40	ButtonPress	Win	True
387.376	0.45	Win2	0.561	n/a	Yes	2.721	n/a	n/a	GoodResponse	1	n/a	n/a	0	40	Blank	Win	True
387.827	1.45	Win2	0.561	n/a	Yes	2.721	n/a	5.0	GoodResponse	1	0.048	386.875	0	40	Feedback	Win	True
389.281	2.721	Win2	0.561	n/a	Yes	2.721	n/a	n/a	GoodResponse	1	0.0	n/a	0	40	ISIslide	Win	True
392.023	0.25	Win2	0.5714	0.0	Yes	2.777	0.023	n/a	GoodResponse	1	n/a	n/a	1	41	Cue	Win	True
392.274	3.9	Win2	0.5714	0.0	Yes	2.777	0.001	n/a	GoodResponse	1	n/a	n/a	1	41	Fixation	Win	True
396.169	0.26	Win2	0.5714	0.004	Yes	2.777	-0.004	2.0	GoodResponse	1	0.191	395.36	1	41	Target	Win	True
396.36	0.3	Win2	0.5714	0.004	Yes	2.777	-0.004	2.0	GoodResponse	1	0.191	n/a	1	41	ButtonPress	Win	True
396.436	0.44	Win2	0.5714	n/a	Yes	2.777	n/a	n/a	GoodResponse	1	n/a	n/a	1	41	Blank	Win	True
396.871	1.45	Win2	0.5714	n/a	Yes	2.777	n/a	5.0	GoodResponse	1	0.028	395.899	1	41	Feedback	Win	True
398.325	2.777	Win2	0.5714	n/a	Yes	2.777	n/a	n/a	GoodResponse	1	0.0	n/a	1	41	ISIslide	Win	True
401.117	0.25	Control	0.5581	0.0	No	2.933	0.017	n/a	NoResponse	0	n/a	n/a	1	42	Cue	Neutral	False
401.367	3.85	Control	0.5581	0.001	No	2.933	0.0	n/a	NoResponse	0	n/a	n/a	1	42	Fixation	Neutral	False
405.229	0.27	Control	0.5581	0.0	No	2.933	0.012	n/a	NoResponse	0	n/a	n/a	1	42	Target	Neutral	False
405.496	0.43	Control	0.5581	n/a	No	2.933	n/a	n/a	NoResponse	0	n/a	n/a	1	42	Blank	Neutral	False
405.914	1.45	Control	0.5581	n/a	No	2.933	n/a	5.0	NoResponse	0	0.009	404.923	1	42	Feedback	Neutral	False
407.369	2.933	Control	0.5581	n/a	No	2.933	n/a	n/a	NoResponse	0	0.0	n/a	1	42	ISIslide	Neutral	False
410.328	0.25	Win2	0.5682	0.0	Yes	3.172	0.028	n/a	GoodResponse	1	n/a	n/a	2	43	Cue	Win	True
410.578	4.0	Win2	0.5682	0.0	Yes	3.172	0.0	n/a	GoodResponse	1	n/a	n/a	2	43	Fixation	Win	True
414.574	0.28	Win2	0.5682	0.004	Yes	3.172	-0.004	2.0	GoodResponse	1	0.204	413.778	2	43	Target	Win	True
414.778	0.3	Win2	0.5682	0.004	Yes	3.172	-0.004	2.0	GoodResponse	1	0.204	n/a	2	43	ButtonPress	Win	True
414.858	0.42	Win2	0.5682	n/a	Yes	3.172	n/a	n/a	GoodResponse	1	n/a	n/a	2	43	Blank	Win	True
415.276	1.45	Win2	0.5682	n/a	Yes	3.172	n/a	5.0	GoodResponse	1	0.013	414.289	2	43	Feedback	Win	True
416.73	3.172	Win2	0.5682	n/a	Yes	3.172	n/a	n/a	GoodResponse	1	0.0	n/a	2	43	ISIslide	Win	True
419.923	0.25	Win2	0.5778	0.0	Yes	2.977	0.023	n/a	GoodResponse	1	n/a	n/a	3	44	Cue	Win	True
420.174	4.0	Win2	0.5778	0.0	Yes	2.977	0.001	n/a	GoodResponse	1	n/a	n/a	3	44	Fixation	Win	True
424.169	0.29	Win2	0.5778	0.004	Yes	2.977	-0.004	2.0	GoodResponse	1	0.21	423.379	3	44	Target	Win	True
424.379	0.3	Win2	0.5778	0.004	Yes	2.977	-0.004	2.0	GoodResponse	1	0.21	n/a	3	44	ButtonPress	Win	True
424.47	0.41	Win2	0.5778	n/a	Yes	2.977	n/a	n/a	GoodResponse	1	n/a	n/a	3	44	Blank	Win	True
424.871	1.45	Win2	0.5778	n/a	Yes	2.977	n/a	5.0	GoodResponse	1	0.028	423.899	3	44	Feedback	Win	True
426.325	2.977	Win2	0.5778	n/a	Yes	2.977	n/a	n/a	GoodResponse	1	0.0	n/a	3	44	ISIslide	Win	True
429.318	0.25	Control	0.5652	0.0	No	2.882	0.018	n/a	NoResponse	0	n/a	n/a	3	45	Cue	Neutral	True
429.569	4.1	Control	0.5652	0.0	No	2.882	0.001	n/a	NoResponse	0	n/a	n/a	3	45	Fixation	Neutral	True
433.664	0.3	Control	0.5652	0.004	No	2.882	-0.004	2.0	NoResponse	0	0.352	433.016	3	45	Target	Neutral	True
433.965	0.4	Control	0.5652	n/a	No	2.882	n/a	n/a	NoResponse	0	n/a	n/a	3	45	Blank	Neutral	True
434.016	0.3	Control	0.5652	0.004	No	2.882	-0.004	2.0	NoResponse	0	0.352	n/a	3	45	ButtonPress	Neutral	True
434.366	1.45	Control	0.5652	n/a	No	2.882	n/a	5.0	NoResponse	0	0.046	433.412	3	45	Feedback	Neutral	True
435.821	2.882	Control	0.5652	n/a	No	2.882	n/a	n/a	NoResponse	0	0.0	n/a	3	45	ISIslide	Neutral	True
438.729	0.25	Lose2	0.5745	0.0	Yes	3.371	0.029	n/a	GoodResponse	0	n/a	n/a	3	46	Cue	AvoidedLoss	True
438.98	4.0	Lose2	0.5745	0.0	Yes	3.371	0.001	n/a	GoodResponse	0	n/a	n/a	3	46	Fixation	AvoidedLoss	True
442.975	0.31	Lose2	0.5745	0.004	Yes	3.371	-0.004	2.0	GoodResponse	0	0.198	442.173	3	46	Target	AvoidedLoss	True
443.173	0.3	Lose2	0.5745	0.004	Yes	3.371	-0.004	2.0	GoodResponse	0	0.198	n/a	3	46	ButtonPress	AvoidedLoss	True
443.293	0.39	Lose2	0.5745	n/a	Yes	3.371	n/a	n/a	GoodResponse	0	n/a	n/a	3	46	Blank	AvoidedLoss	True
443.677	1.45	Lose2	0.5745	n/a	Yes	3.371	n/a	5.0	GoodResponse	0	0.004	442.681	3	46	Feedback	AvoidedLoss	True
445.132	3.371	Lose2	0.5745	n/a	Yes	3.371	n/a	n/a	GoodResponse	0	0.0	n/a	3	46	ISIslide	AvoidedLoss	True
448.525	0.25	Lose2	0.5832999999999999	0.0	Yes	2.675	0.025	n/a	GoodResponse	0	n/a	n/a	3	47	Cue	AvoidedLoss	True
448.776	4.0	Lose2	0.5832999999999999	0.0	Yes	2.675	0.001	n/a	GoodResponse	0	n/a	n/a	3	47	Fixation	AvoidedLoss	True
452.771	0.32	Lose2	0.5832999999999999	0.004	Yes	2.675	-0.004	2.0	GoodResponse	0	0.222	451.993	3	47	Target	AvoidedLoss	True
452.993	0.3	Lose2	0.5832999999999999	0.004	Yes	2.675	-0.004	2.0	GoodResponse	0	0.222	n/a	3	47	ButtonPress	AvoidedLoss	True
453.106	0.38	Lose2	0.5832999999999999	n/a	Yes	2.675	n/a	n/a	GoodResponse	0	n/a	n/a	3	47	Blank	AvoidedLoss	True
453.473	1.45	Lose2	0.5832999999999999	n/a	Yes	2.675	n/a	5.0	GoodResponse	0	0.011	452.484	3	47	Feedback	AvoidedLoss	True
454.928	2.675	Lose2	0.5832999999999999	n/a	Yes	2.675	n/a	n/a	GoodResponse	0	0.0	n/a	3	47	ISIslide	AvoidedLoss	True
457.619	0.25	Lose2	0.5918	0.0	Yes	3.031	0.019	n/a	GoodResponse	0	n/a	n/a	3	48	Cue	AvoidedLoss	True
457.87	3.95	Lose2	0.5918	0.0	Yes	3.031	0.001	n/a	GoodResponse	0	n/a	n/a	3	48	Fixation	AvoidedLoss	True
461.815	0.33	Lose2	0.5918	0.004	Yes	3.031	-0.004	2.0	GoodResponse	0	0.199	461.014	3	48	Target	AvoidedLoss	True
462.014	0.3	Lose2	0.5918	0.004	Yes	3.031	-0.004	2.0	GoodResponse	0	0.199	n/a	3	48	ButtonPress	AvoidedLoss	True
462.149	0.37	Lose2	0.5918	n/a	Yes	3.031	n/a	n/a	GoodResponse	0	n/a	n/a	3	48	Blank	AvoidedLoss	True
462.517	1.45	Lose2	0.5918	n/a	Yes	3.031	n/a	5.0	GoodResponse	0	0.04	461.557	3	48	Feedback	AvoidedLoss	True
463.972	3.031	Lose2	0.5918	n/a	Yes	3.031	n/a	n/a	GoodResponse	0	0.0	n/a	3	48	ISIslide	AvoidedLoss	True
467.014	0.25	Control	0.6	0.0	Yes	2.886	0.014	n/a	GoodResponse	0	n/a	n/a	3	49	Cue	Neutral	True
467.265	4.0	Control	0.6	0.0	Yes	2.886	0.001	n/a	GoodResponse	0	n/a	n/a	3	49	Fixation	Neutral	True
471.26	0.34	Control	0.6	0.004	Yes	2.886	-0.004	2.0	GoodResponse	0	0.218	470.478	3	49	Target	Neutral	True
471.478	0.3	Control	0.6	0.004	Yes	2.886	-0.004	2.0	GoodResponse	0	0.218	n/a	3	49	ButtonPress	Neutral	True
471.611	0.36	Control	0.6	n/a	Yes	2.886	n/a	n/a	GoodResponse	0	n/a	n/a	3	49	Blank	Neutral	True
471.962	1.45	Control	0.6	n/a	Yes	2.886	n/a	5.0	GoodResponse	0	0.01	470.972	3	49	Feedback	Neutral	True
473.416	2.886	Control	0.6	n/a	Yes	2.886	n/a	n/a	GoodResponse	0	0.0	n/a	3	49	ISIslide	Neutral	True
476.325	0.25	Control	0.6078	0.0	Yes	2.775	0.025	n/a	GoodResponse	0	n/a	n/a	3	50	Cue	Neutral	True
476.576	4.0	Control	0.6078	0.0	Yes	2.775	0.001	n/a	GoodResponse	0	n/a	n/a	3	50	Fixation	Neutral	True
480.571	0.35	Control	0.6078	0.004	Yes	2.775	-0.004	2.0	GoodResponse	0	0.211	479.782	3	50	Target	Neutral	True
480.782	0.3	Control	0.6078	0.004	Yes	2.775	-0.004	2.0	GoodResponse	0	0.211	n/a	3	50	ButtonPress	Neutral	True
480.922	0.35	Control	0.6078	n/a	Yes	2.775	n/a	n/a	GoodResponse	0	n/a	n/a	3	50	Blank	Neutral	True
481.273	1.45	Control	0.6078	n/a	Yes	2.775	n/a	5.0	GoodResponse	0	0.016	480.289	3	50	Feedback	Neutral	True
482.728	2.775	Control	0.6078	n/a	Yes	2.775	n/a	n/a	GoodResponse	0	0.0	n/a	3	50	ISIslide	Neutral	True
485.519	0.25	Control	0.6154	0.0	Yes	2.731	0.019	n/a	GoodResponse	0	n/a	n/a	3	51	Cue	Neutral	True
485.77	3.95	Control	0.6154	0.0	Yes	2.731	0.001	n/a	GoodResponse	0	n/a	n/a	3	51	Fixation	Neutral	True
489.715	0.36	Control	0.6154	0.004	Yes	2.731	-0.004	2.0	GoodResponse	0	0.253	488.968	3	51	Target	Neutral	True
489.968	0.3	Control	0.6154	0.004	Yes	2.731	-0.004	2.0	GoodResponse	0	0.253	n/a	3	51	ButtonPress	Neutral	True
490.083	0.34	Control	0.6154	n/a	Yes	2.731	n/a	n/a	GoodResponse	0	n/a	n/a	3	51	Blank	Neutral	True
490.417	1.45	Control	0.6154	n/a	Yes	2.731	n/a	5.0	GoodResponse	0	0.043	489.46	3	51	Feedback	Neutral	True
491.872	2.731	Control	0.6154	n/a	Yes	2.731	n/a	n/a	GoodResponse	0	0.0	n/a	3	51	ISIslide	Neutral	True
494.613	0.25	Control	0.6225999999999999	0.0	Yes	2.637	0.013	n/a	GoodResponse	0	n/a	n/a	3	52	Cue	Neutral	True
494.864	4.05	Control	0.6225999999999999	0.0	Yes	2.637	0.001	n/a	GoodResponse	0	n/a	n/a	3	52	Fixation	Neutral	True
498.909	0.37	Control	0.6225999999999999	0.004	Yes	2.637	-0.004	2.0	GoodResponse	0	0.238	498.147	3	52	Target	Neutral	True
499.147	0.3	Control	0.6225999999999999	0.004	Yes	2.637	-0.004	2.0	GoodResponse	0	0.238	n/a	3	52	ButtonPress	Neutral	True
499.294	0.33	Control	0.6225999999999999	n/a	Yes	2.637	n/a	n/a	GoodResponse	0	n/a	n/a	3	52	Blank	Neutral	True
499.612	1.45	Control	0.6225999999999999	n/a	Yes	2.637	n/a	5.0	GoodResponse	0	0.018	498.63	3	52	Feedback	Neutral	True
501.066	2.637	Control	0.6225999999999999	n/a	Yes	2.637	n/a	n/a	GoodResponse	0	0.0	n/a	3	52	ISIslide	Neutral	True
503.724	0.25	Win2	0.6296	0.0	Yes	2.926	0.024	n/a	GoodResponse	1	n/a	n/a	4	53	Cue	Win	True
503.975	4.05	Win2	0.6296	0.0	Yes	2.926	0.001	n/a	GoodResponse	1	n/a	n/a	4	53	Fixation	Win	True
508.02	0.38	Win2	0.6296	0.004	Yes	2.926	-0.004	2.0	GoodResponse	1	0.189	507.209	4	53	Target	Win	True
508.209	0.3	Win2	0.6296	0.004	Yes	2.926	-0.004	2.0	GoodResponse	1	0.189	n/a	4	53	ButtonPress	Win	True
508.405	0.32	Win2	0.6296	n/a	Yes	2.926	n/a	n/a	GoodResponse	1	n/a	n/a	4	53	Blank	Win	True
508.722	1.45	Win2	0.6296	n/a	Yes	2.926	n/a	5.0	GoodResponse	1	0.03	507.752	4	53	Feedback	Win	True
510.176	2.926	Win2	0.6296	n/a	Yes	2.926	n/a	n/a	GoodResponse	1	0.0	n/a	4	53	ISIslide	Win	True
513.119	0.25	Win2	0.6364	0.0	Yes	2.731	0.019	n/a	GoodResponse	1	n/a	n/a	5	54	Cue	Win	True
513.369	3.95	Win2	0.6364	0.0	Yes	2.731	0.0	n/a	GoodResponse	1	n/a	n/a	5	54	Fixation	Win	True
517.315	0.39	Win2	0.6364	0.004	Yes	2.731	-0.004	2.0	GoodResponse	1	0.147	516.462	5	54	Target	Win	True
517.462	0.3	Win2	0.6364	0.004	Yes	2.731	-0.004	2.0	GoodResponse	1	0.147	n/a	5	54	ButtonPress	Win	True
517.716	0.31	Win2	0.6364	n/a	Yes	2.731	n/a	n/a	GoodResponse	1	n/a	n/a	5	54	Blank	Win	True
518.017	1.45	Win2	0.6364	n/a	Yes	2.731	n/a	5.0	GoodResponse	1	0.005	517.022	5	54	Feedback	Win	True
519.471	2.731	Win2	0.6364	n/a	Yes	2.731	n/a	n/a	GoodResponse	1	0.0	n/a	5	54	ISIslide	Win	True
522.213	0.25	Control	0.6429	0.0	Yes	3.037	0.013	n/a	GoodResponse	0	n/a	n/a	5	55	Cue	Neutral	True
522.463	3.95	Control	0.6429	0.0	Yes	3.037	0.0	n/a	GoodResponse	0	n/a	n/a	5	55	Fixation	Neutral	True
526.425	0.4	Control	0.6429	0.0	Yes	3.037	0.012	2.0	GoodResponse	0	0.229	525.654	5	55	Target	Neutral	True
526.654	0.3	Control	0.6429	0.0	Yes	3.037	0.012	2.0	GoodResponse	0	0.229	n/a	5	55	ButtonPress	Neutral	True
526.81	0.3	Control	0.6429	n/a	Yes	3.037	n/a	n/a	GoodResponse	0	n/a	n/a	5	55	Blank	Neutral	True
527.111	1.45	Control	0.6429	n/a	Yes	3.037	n/a	5.0	GoodResponse	0	0.031	526.142	5	55	Feedback	Neutral	True
528.565	3.037	Control	0.6429	n/a	Yes	3.037	n/a	n/a	GoodResponse	0	0.0	n/a	5	55	ISIslide	Neutral	True
531.624	0.25	Control	0.6491	0.0	Yes	2.826	0.024	n/a	GoodResponse	0	n/a	n/a	5	56	Cue	Neutral	True
531.875	3.95	Control	0.6491	0.0	Yes	2.826	0.001	n/a	GoodResponse	0	n/a	n/a	5	56	Fixation	Neutral	True
535.82	0.41	Control	0.6491	0.004	Yes	2.826	-0.004	2.0	GoodResponse	0	0.222	535.042	5	56	Target	Neutral	True
536.042	0.3	Control	0.6491	0.004	Yes	2.826	-0.004	2.0	GoodResponse	0	0.222	n/a	5	56	ButtonPress	Neutral	True
536.238	0.29	Control	0.6491	n/a	Yes	2.826	n/a	n/a	GoodResponse	0	n/a	n/a	5	56	Blank	Neutral	True
536.522	1.45	Control	0.6491	n/a	Yes	2.826	n/a	5.0	GoodResponse	0	0.035	535.557	5	56	Feedback	Neutral	True
537.976	2.826	Control	0.6491	n/a	Yes	2.826	n/a	n/a	GoodResponse	0	0.0	n/a	5	56	ISIslide	Neutral	True
540.818	0.25	Control	0.6552	0.0	Yes	3.482	0.018	n/a	GoodResponse	0	n/a	n/a	5	57	Cue	Neutral	True
541.069	4.0	Control	0.6552	0.0	Yes	3.482	0.001	n/a	GoodResponse	0	n/a	n/a	5	57	Fixation	Neutral	True
545.064	0.42	Control	0.6552	0.004	Yes	3.482	-0.004	2.0	GoodResponse	0	0.245	544.309	5	57	Target	Neutral	True
545.309	0.3	Control	0.6552	0.004	Yes	3.482	-0.004	2.0	GoodResponse	0	0.245	n/a	5	57	ButtonPress	Neutral	True
545.499	0.28	Control	0.6552	n/a	Yes	3.482	n/a	n/a	GoodResponse	0	n/a	n/a	5	57	Blank	Neutral	True
545.766	1.45	Control	0.6552	n/a	Yes	3.482	n/a	5.0	GoodResponse	0	0.011	544.777	5	57	Feedback	Neutral	True
547.221	3.482	Control	0.6552	n/a	Yes	3.482	n/a	n/a	GoodResponse	0	0.0	n/a	5	57	ISIslide	Neutral	True
550.714	0.25	Win2	0.6609999999999999	0.001	Yes	2.736	0.014	n/a	GoodResponse	1	n/a	n/a	6	58	Cue	Win	True
550.965	4.05	Win2	0.6609999999999999	0.0	Yes	2.736	0.001	n/a	GoodResponse	1	n/a	n/a	6	58	Fixation	Win	True
555.011	0.42	Win2	0.6609999999999999	0.003	Yes	2.736	-0.003	2.0	GoodResponse	1	0.195	554.206	6	58	Target	Win	True
555.206	0.3	Win2	0.6609999999999999	0.003	Yes	2.736	-0.003	2.0	GoodResponse	1	0.195	n/a	6	58	ButtonPress	Win	True
555.445	0.28	Win2	0.6609999999999999	n/a	Yes	2.736	n/a	n/a	GoodResponse	1	n/a	n/a	6	58	Blank	Win	True
555.713	1.45	Win2	0.6609999999999999	n/a	Yes	2.736	n/a	5.0	GoodResponse	1	0.014	554.727	6	58	Feedback	Win	True
557.167	2.736	Win2	0.6609999999999999	n/a	Yes	2.736	n/a	n/a	GoodResponse	1	0.0	n/a	6	58	ISIslide	Win	True
559.925	0.25	Lose2	0.6667000000000001	0.001	Yes	2.675	0.025	n/a	GoodResponse	0	n/a	n/a	6	59	Cue	AvoidedLoss	True
560.176	4.0	Lose2	0.6667000000000001	0.0	Yes	2.675	0.001	n/a	GoodResponse	0	n/a	n/a	6	59	Fixation	AvoidedLoss	True
564.171	0.42	Lose2	0.6667000000000001	0.004	Yes	2.675	-0.004	2.0	GoodResponse	0	0.226	563.397	6	59	Target	AvoidedLoss	True
564.397	0.3	Lose2	0.6667000000000001	0.004	Yes	2.675	-0.004	2.0	GoodResponse	0	0.226	n/a	6	59	ButtonPress	AvoidedLoss	True
564.606	0.28	Lose2	0.6667000000000001	n/a	Yes	2.675	n/a	n/a	GoodResponse	0	n/a	n/a	6	59	Blank	AvoidedLoss	True
564.874	1.45	Lose2	0.6667000000000001	n/a	Yes	2.675	n/a	5.0	GoodResponse	0	0.024	563.898	6	59	Feedback	AvoidedLoss	True
566.328	2.675	Lose2	0.6667000000000001	n/a	Yes	2.675	n/a	n/a	GoodResponse	0	0.0	n/a	6	59	ISIslide	AvoidedLoss	True
569.019	0.25	Control	0.6720999999999999	0.0	Yes	2.681	0.019	n/a	GoodResponse	0	n/a	n/a	6	60	Cue	Neutral	True
569.27	4.0	Control	0.6720999999999999	0.0	Yes	2.681	0.001	n/a	GoodResponse	0	n/a	n/a	6	60	Fixation	Neutral	True
573.265	0.41	Control	0.6720999999999999	0.004	Yes	2.681	-0.004	2.0	GoodResponse	0	0.215	572.48	6	60	Target	Neutral	True
573.48	0.3	Control	0.6720999999999999	0.004	Yes	2.681	-0.004	2.0	GoodResponse	0	0.215	n/a	6	60	ButtonPress	Neutral	True
573.683	0.29	Control	0.6720999999999999	n/a	Yes	2.681	n/a	n/a	GoodResponse	0	n/a	n/a	6	60	Blank	Neutral	True
573.967	1.45	Control	0.6720999999999999	n/a	Yes	2.681	n/a	5.0	GoodResponse	0	0.005	572.972	6	60	Feedback	Neutral	True
575.422	2.681	Control	0.6720999999999999	n/a	Yes	2.681	n/a	n/a	GoodResponse	0	0.0	n/a	6	60	ISIslide	Neutral	True
578.113	0.25	Lose2	0.6774	0.0	Yes	2.987	0.013	n/a	GoodResponse	0	n/a	n/a	6	61	Cue	AvoidedLoss	True
578.364	4.0	Lose2	0.6774	0.0	Yes	2.987	0.001	n/a	GoodResponse	0	n/a	n/a	6	61	Fixation	AvoidedLoss	True
582.359	0.4	Lose2	0.6774	0.004	Yes	2.987	-0.004	2.0	GoodResponse	0	0.207	581.566	6	61	Target	AvoidedLoss	True
582.566	0.3	Lose2	0.6774	0.004	Yes	2.987	-0.004	2.0	GoodResponse	0	0.207	n/a	6	61	ButtonPress	AvoidedLoss	True
582.76	0.3	Lose2	0.6774	n/a	Yes	2.987	n/a	n/a	GoodResponse	0	n/a	n/a	6	61	Blank	AvoidedLoss	True
583.061	1.45	Lose2	0.6774	n/a	Yes	2.987	n/a	5.0	GoodResponse	0	0.032	582.093	6	61	Feedback	AvoidedLoss	True
584.516	2.987	Lose2	0.6774	n/a	Yes	2.987	n/a	n/a	GoodResponse	0	0.0	n/a	6	61	ISIslide	AvoidedLoss	True
587.525	0.25	Lose2	0.6825	0.0	Yes	2.875	0.025	n/a	GoodResponse	0	n/a	n/a	6	62	Cue	AvoidedLoss	True
587.775	3.9	Lose2	0.6825	0.0	Yes	2.875	0.0	n/a	GoodResponse	0	n/a	n/a	6	62	Fixation	AvoidedLoss	True
591.687	0.39	Lose2	0.6825	0.0	Yes	2.875	0.012	2.0	GoodResponse	0	0.203	590.89	6	62	Target	AvoidedLoss	True
591.89	0.3	Lose2	0.6825	0.0	Yes	2.875	0.012	2.0	GoodResponse	0	0.203	n/a	6	62	ButtonPress	AvoidedLoss	True
592.072	0.31	Lose2	0.6825	n/a	Yes	2.875	n/a	n/a	GoodResponse	0	n/a	n/a	6	62	Blank	AvoidedLoss	True
592.373	1.45	Lose2	0.6825	n/a	Yes	2.875	n/a	5.0	GoodResponse	0	0.037	591.41	6	62	Feedback	AvoidedLoss	True
593.827	2.875	Lose2	0.6825	n/a	Yes	2.875	n/a	n/a	GoodResponse	0	0.0	n/a	6	62	ISIslide	AvoidedLoss	True
596.719	0.25	Lose2	0.6875	0.0	Yes	2.631	0.019	n/a	GoodResponse	0	n/a	n/a	6	63	Cue	AvoidedLoss	True
596.97	4.05	Lose2	0.6875	0.0	Yes	2.631	0.001	n/a	GoodResponse	0	n/a	n/a	6	63	Fixation	AvoidedLoss	True
601.015	0.38	Lose2	0.6875	0.004	Yes	2.631	-0.004	2.0	GoodResponse	0	0.249	600.264	6	63	Target	AvoidedLoss	True
601.264	0.3	Lose2	0.6875	0.004	Yes	2.631	-0.004	2.0	GoodResponse	0	0.249	n/a	6	63	ButtonPress	AvoidedLoss	True
601.4	0.32	Lose2	0.6875	n/a	Yes	2.631	n/a	n/a	GoodResponse	0	n/a	n/a	6	63	Blank	AvoidedLoss	True
601.717	1.45	Lose2	0.6875	n/a	Yes	2.631	n/a	5.0	GoodResponse	0	0.009	600.726	6	63	Feedback	AvoidedLoss	True
603.172	2.631	Lose2	0.6875	n/a	Yes	2.631	n/a	n/a	GoodResponse	0	0.0	n/a	6	63	ISIslide	AvoidedLoss	True
605.829	0.25	Win2	0.6923	0.001	Yes	3.121	0.029	n/a	GoodResponse	1	n/a	n/a	7	64	Cue	Win	True
606.08	4.15	Win2	0.6923	0.0	Yes	3.121	0.001	n/a	GoodResponse	1	n/a	n/a	7	64	Fixation	Win	True
610.226	0.37	Win2	0.6923	0.003	Yes	3.121	-0.003	2.0	GoodResponse	1	0.228	609.454	7	64	Target	Win	True
610.454	0.3	Win2	0.6923	0.003	Yes	3.121	-0.003	2.0	GoodResponse	1	0.228	n/a	7	64	ButtonPress	Win	True
610.61	0.33	Win2	0.6923	n/a	Yes	3.121	n/a	n/a	GoodResponse	1	n/a	n/a	7	64	Blank	Win	True
610.928	1.45	Win2	0.6923	n/a	Yes	3.121	n/a	5.0	GoodResponse	1	0.018	609.946	7	64	Feedback	Win	True
612.382	3.121	Win2	0.6923	n/a	Yes	3.121	n/a	n/a	GoodResponse	1	0.0	n/a	7	64	ISIslide	Win	True
615.525	0.25	Control	0.6970000000000001	0.0	Yes	2.775	0.025	n/a	GoodResponse	0	n/a	n/a	7	65	Cue	Neutral	True
615.776	4.0	Control	0.6970000000000001	0.0	Yes	2.775	0.001	n/a	GoodResponse	0	n/a	n/a	7	65	Fixation	Neutral	True
619.771	0.36	Control	0.6970000000000001	0.004	Yes	2.775	-0.004	2.0	GoodResponse	0	0.269	619.04	7	65	Target	Neutral	True
620.04	0.3	Control	0.6970000000000001	0.004	Yes	2.775	-0.004	2.0	GoodResponse	0	0.269	n/a	7	65	ButtonPress	Neutral	True
620.139	0.34	Control	0.6970000000000001	n/a	Yes	2.775	n/a	n/a	GoodResponse	0	n/a	n/a	7	65	Blank	Neutral	True
620.473	1.45	Control	0.6970000000000001	n/a	Yes	2.775	n/a	5.0	GoodResponse	0	0.034	619.507	7	65	Feedback	Neutral	True
621.928	2.775	Control	0.6970000000000001	n/a	Yes	2.775	n/a	n/a	GoodResponse	0	0.0	n/a	7	65	ISIslide	Neutral	True
624.719	0.25	Win2	0.7015	0.0	Yes	2.781	0.019	n/a	GoodResponse	1	n/a	n/a	8	66	Cue	Win	True
624.97	3.9	Win2	0.7015	0.0	Yes	2.781	0.001	n/a	GoodResponse	1	n/a	n/a	8	66	Fixation	Win	True
628.865	0.35	Win2	0.7015	0.004	Yes	2.781	-0.004	2.0	GoodResponse	1	0.217	628.082	8	66	Target	Win	True
629.082	0.3	Win2	0.7015	0.004	Yes	2.781	-0.004	2.0	GoodResponse	1	0.217	n/a	8	66	ButtonPress	Win	True
629.216	0.35	Win2	0.7015	n/a	Yes	2.781	n/a	n/a	GoodResponse	1	n/a	n/a	8	66	Blank	Win	True
629.567	1.45	Win2	0.7015	n/a	Yes	2.781	n/a	5.0	GoodResponse	1	0.013	628.58	8	66	Feedback	Win	True
631.022	2.781	Win2	0.7015	n/a	Yes	2.781	n/a	n/a	GoodResponse	1	0.0	n/a	8	66	ISIslide	Win	True
633.813	0.25	Control	0.7059000000000001	0.0	Yes	2.737	0.013	n/a	GoodResponse	0	n/a	n/a	8	67	Cue	Neutral	True
634.064	3.95	Control	0.7059000000000001	0.0	Yes	2.737	0.001	n/a	GoodResponse	0	n/a	n/a	8	67	Fixation	Neutral	True
638.009	0.34	Control	0.7059000000000001	0.004	Yes	2.737	-0.004	2.0	GoodResponse	0	0.233	637.242	8	67	Target	Neutral	True
638.242	0.3	Control	0.7059000000000001	0.004	Yes	2.737	-0.004	2.0	GoodResponse	0	0.233	n/a	8	67	ButtonPress	Neutral	True
638.36	0.36	Control	0.7059000000000001	n/a	Yes	2.737	n/a	n/a	GoodResponse	0	n/a	n/a	8	67	Blank	Neutral	True
638.711	1.45	Control	0.7059000000000001	n/a	Yes	2.737	n/a	5.0	GoodResponse	0	0.04	637.751	8	67	Feedback	Neutral	True
640.166	2.737	Control	0.7059000000000001	n/a	Yes	2.737	n/a	n/a	GoodResponse	0	0.0	n/a	8	67	ISIslide	Neutral	True
642.924	0.25	Win2	0.7101000000000001	0.0	Yes	3.076	0.024	n/a	GoodResponse	1	n/a	n/a	9	68	Cue	Win	True
643.175	4.0	Win2	0.7101000000000001	0.0	Yes	3.076	0.001	n/a	GoodResponse	1	n/a	n/a	9	68	Fixation	Win	True
647.17	0.33	Win2	0.7101000000000001	0.004	Yes	3.076	-0.004	2.0	GoodResponse	1	0.282	646.452	9	68	Target	Win	True
647.452	0.3	Win2	0.7101000000000001	0.004	Yes	3.076	-0.004	2.0	GoodResponse	1	0.282	n/a	9	68	ButtonPress	Win	True
647.504	0.37	Win2	0.7101000000000001	n/a	Yes	3.076	n/a	n/a	GoodResponse	1	n/a	n/a	9	68	Blank	Win	True
647.872	1.45	Win2	0.7101000000000001	n/a	Yes	3.076	n/a	5.0	GoodResponse	1	0.001	646.873	9	68	Feedback	Win	True
649.326	3.076	Win2	0.7101000000000001	n/a	Yes	3.076	n/a	n/a	GoodResponse	1	0.0	n/a	9	68	ISIslide	Win	True
652.419	0.25	Win2	0.7143	0.0	Yes	3.231	0.019	n/a	GoodResponse	1	n/a	n/a	10	69	Cue	Win	True
652.67	3.95	Win2	0.7143	0.0	Yes	3.231	0.001	n/a	GoodResponse	1	n/a	n/a	10	69	Fixation	Win	True
656.615	0.32	Win2	0.7143	0.004	Yes	3.231	-0.004	2.0	GoodResponse	1	0.312	655.927	10	69	Target	Win	True
656.927	0.3	Win2	0.7143	0.004	Yes	3.231	-0.004	2.0	GoodResponse	1	0.312	n/a	10	69	ButtonPress	Win	True
656.949	0.38	Win2	0.7143	n/a	Yes	3.231	n/a	n/a	GoodResponse	1	n/a	n/a	10	69	Blank	Win	True
657.317	1.45	Win2	0.7143	n/a	Yes	3.231	n/a	5.0	GoodResponse	1	0.019	656.336	10	69	Feedback	Win	True
658.771	3.231	Win2	0.7143	n/a	Yes	3.231	n/a	n/a	GoodResponse	1	0.0	n/a	10	69	ISIslide	Win	True
662.014	0.25	Lose2	0.7182999999999999	0.0	Yes	3.036	0.014	n/a	GoodResponse	0	n/a	n/a	10	70	Cue	AvoidedLoss	True
662.265	4.05	Lose2	0.7182999999999999	0.0	Yes	3.036	0.001	n/a	GoodResponse	0	n/a	n/a	10	70	Fixation	AvoidedLoss	True
666.311	0.31	Lose2	0.7182999999999999	0.003	Yes	3.036	-0.003	2.0	GoodResponse	0	0.217	665.528	10	70	Target	AvoidedLoss	True
666.528	0.3	Lose2	0.7182999999999999	0.003	Yes	3.036	-0.003	2.0	GoodResponse	0	0.217	n/a	10	70	ButtonPress	AvoidedLoss	True
666.628	0.39	Lose2	0.7182999999999999	n/a	Yes	3.036	n/a	n/a	GoodResponse	0	n/a	n/a	10	70	Blank	AvoidedLoss	True
667.013	1.45	Lose2	0.7182999999999999	n/a	Yes	3.036	n/a	5.0	GoodResponse	0	0.03	666.043	10	70	Feedback	AvoidedLoss	True
668.467	3.036	Lose2	0.7182999999999999	n/a	Yes	3.036	n/a	n/a	GoodResponse	0	0.0	n/a	10	70	ISIslide	AvoidedLoss	True
671.526	0.25	Win2	0.7222	0.0	Yes	2.724	0.026	n/a	GoodResponse	1	n/a	n/a	11	71	Cue	Win	True
671.777	4.05	Win2	0.7222	0.0	Yes	2.724	0.001	n/a	GoodResponse	1	n/a	n/a	11	71	Fixation	Win	True
675.822	0.3	Win2	0.7222	0.004	Yes	2.724	-0.004	2.0	GoodResponse	1	0.224	675.046	11	71	Target	Win	True
676.046	0.3	Win2	0.7222	0.004	Yes	2.724	-0.004	2.0	GoodResponse	1	0.224	n/a	11	71	ButtonPress	Win	True
676.123	0.4	Win2	0.7222	n/a	Yes	2.724	n/a	n/a	GoodResponse	1	n/a	n/a	11	71	Blank	Win	True
676.524	1.45	Win2	0.7222	n/a	Yes	2.724	n/a	5.0	GoodResponse	1	0.032	675.556	11	71	Feedback	Win	True
677.979	2.724	Win2	0.7222	n/a	Yes	2.724	n/a	n/a	GoodResponse	1	0.0	n/a	11	71	ISIslide	Win	True
680.72	0.25	Win2	0.726	0.0	Yes	2.78	0.02	n/a	GoodResponse	1	n/a	n/a	12	72	Cue	Win	True
680.971	4.1	Win2	0.726	0.0	Yes	2.78	0.001	n/a	GoodResponse	1	n/a	n/a	12	72	Fixation	Win	True
685.067	0.29	Win2	0.726	0.003	Yes	2.78	-0.003	2.0	GoodResponse	1	0.201	684.268	12	72	Target	Win	True
685.268	0.3	Win2	0.726	0.003	Yes	2.78	-0.003	2.0	GoodResponse	1	0.201	n/a	12	72	ButtonPress	Win	True
685.368	0.41	Win2	0.726	n/a	Yes	2.78	n/a	n/a	GoodResponse	1	n/a	n/a	12	72	Blank	Win	True
685.769	1.45	Win2	0.726	n/a	Yes	2.78	n/a	5.0	GoodResponse	1	0.006	684.775	12	72	Feedback	Win	True
687.223	2.78	Win2	0.726	n/a	Yes	2.78	n/a	n/a	GoodResponse	1	0.0	n/a	12	72	ISIslide	Win	True
690.015	0.25	Win2	0.7297	0.0	Yes	2.685	0.015	n/a	GoodResponse	1	n/a	n/a	13	73	Cue	Win	True
690.266	4.0	Win2	0.7297	0.0	Yes	2.685	0.001	n/a	GoodResponse	1	n/a	n/a	13	73	Fixation	Win	True
694.261	0.28	Win2	0.7297	0.004	Yes	2.685	-0.004	2.0	GoodResponse	1	0.228	693.489	13	73	Target	Win	True
694.489	0.3	Win2	0.7297	0.004	Yes	2.685	-0.004	2.0	GoodResponse	1	0.228	n/a	13	73	ButtonPress	Win	True
694.545	0.42	Win2	0.7297	n/a	Yes	2.685	n/a	n/a	GoodResponse	1	n/a	n/a	13	73	Blank	Win	True
694.963	1.45	Win2	0.7297	n/a	Yes	2.685	n/a	5.0	GoodResponse	1	0.031	693.994	13	73	Feedback	Win	True
696.417	2.685	Win2	0.7297	n/a	Yes	2.685	n/a	n/a	GoodResponse	1	0.0	n/a	13	73	ISIslide	Win	True
699.125	0.25	Lose2	0.7333	0.0	Yes	2.625	0.025	n/a	GoodResponse	0	n/a	n/a	13	74	Cue	AvoidedLoss	True
699.376	4.05	Lose2	0.7333	0.0	Yes	2.625	0.001	n/a	GoodResponse	0	n/a	n/a	13	74	Fixation	AvoidedLoss	True
703.422	0.27	Lose2	0.7333	0.003	Yes	2.625	-0.003	2.0	GoodResponse	0	0.201	702.623	13	74	Target	AvoidedLoss	True
703.623	0.3	Lose2	0.7333	0.003	Yes	2.625	-0.003	2.0	GoodResponse	0	0.201	n/a	13	74	ButtonPress	AvoidedLoss	True
703.706	0.43	Lose2	0.7333	n/a	Yes	2.625	n/a	n/a	GoodResponse	0	n/a	n/a	13	74	Blank	AvoidedLoss	True
704.124	1.45	Lose2	0.7333	n/a	Yes	2.625	n/a	5.0	GoodResponse	0	0.041	703.165	13	74	Feedback	AvoidedLoss	True
705.578	2.625	Lose2	0.7333	n/a	Yes	2.625	n/a	n/a	GoodResponse	0	0.0	n/a	13	74	ISIslide	AvoidedLoss	True
708.219	0.25	Lose2	0.7368000000000001	0.0	Yes	2.931	0.019	n/a	GoodResponse	0	n/a	n/a	13	75	Cue	AvoidedLoss	True
708.47	3.95	Lose2	0.7368000000000001	0.0	Yes	2.931	0.001	n/a	GoodResponse	0	n/a	n/a	13	75	Fixation	AvoidedLoss	True
712.415	0.26	Lose2	0.7368000000000001	0.004	Yes	2.931	-0.004	2.0	GoodResponse	0	0.226	711.641	13	75	Target	AvoidedLoss	True
712.641	0.3	Lose2	0.7368000000000001	0.004	Yes	2.931	-0.004	2.0	GoodResponse	0	0.226	n/a	13	75	ButtonPress	AvoidedLoss	True
712.683	0.44	Lose2	0.7368000000000001	n/a	Yes	2.931	n/a	n/a	GoodResponse	0	n/a	n/a	13	75	Blank	AvoidedLoss	True
713.117	1.45	Lose2	0.7368000000000001	n/a	Yes	2.931	n/a	5.0	GoodResponse	0	0.023	712.14	13	75	Feedback	AvoidedLoss	True
714.572	2.931	Lose2	0.7368000000000001	n/a	Yes	2.931	n/a	n/a	GoodResponse	0	0.0	n/a	13	75	ISIslide	AvoidedLoss	True
717.514	0.25	Control	0.7403	0.0	Yes	3.236	0.014	n/a	GoodResponse	0	n/a	n/a	13	76	Cue	Neutral	True
717.765	4.05	Control	0.7403	0.0	Yes	3.236	0.001	n/a	GoodResponse	0	n/a	n/a	13	76	Fixation	Neutral	True
721.81	0.25	Control	0.7403	0.004	Yes	3.236	-0.004	2.0	GoodResponse	0	0.189	720.999	13	76	Target	Neutral	True
721.999	0.3	Control	0.7403	0.004	Yes	3.236	-0.004	2.0	GoodResponse	0	0.189	n/a	13	76	ButtonPress	Neutral	True
722.061	0.45	Control	0.7403	n/a	Yes	3.236	n/a	n/a	GoodResponse	0	n/a	n/a	13	76	Blank	Neutral	True
722.512	1.45	Control	0.7403	n/a	Yes	3.236	n/a	5.0	GoodResponse	0	0.043	721.555	13	76	Feedback	Neutral	True
723.966	3.236	Control	0.7403	n/a	Yes	3.236	n/a	n/a	GoodResponse	0	0.0	n/a	13	76	ISIslide	Neutral	True
727.226	0.25	Lose2	0.7436	0.0	Yes	2.574	0.026	n/a	GoodResponse	0	n/a	n/a	13	77	Cue	AvoidedLoss	True
727.477	3.95	Lose2	0.7436	0.0	Yes	2.574	0.001	n/a	GoodResponse	0	n/a	n/a	13	77	Fixation	AvoidedLoss	True
731.422	0.24	Lose2	0.7436	0.004	Yes	2.574	-0.004	2.0	GoodResponse	0	0.221	730.643	13	77	Target	AvoidedLoss	True
731.643	0.3	Lose2	0.7436	0.004	Yes	2.574	-0.004	2.0	GoodResponse	0	0.221	n/a	13	77	ButtonPress	AvoidedLoss	True
731.673	0.46	Lose2	0.7436	n/a	Yes	2.574	n/a	n/a	GoodResponse	0	n/a	n/a	13	77	Blank	AvoidedLoss	True
732.124	1.45	Lose2	0.7436	n/a	Yes	2.574	n/a	5.0	GoodResponse	0	0.041	731.165	13	77	Feedback	AvoidedLoss	True
733.579	2.574	Lose2	0.7436	n/a	Yes	2.574	n/a	n/a	GoodResponse	0	0.0	n/a	13	77	ISIslide	AvoidedLoss	True
