onset	duration	cue_type	current_mean_accuracy	duration_error	is_hit	isi_adjusted	onset_delay	response	response_type	reward	rt	rt_time	total_reward	trial_number	trial_phase	trial_type	one_press
11.102	0.25	Control	1.0	0.0	Yes	2.948	0.002	n/a	GoodResponse	0	n/a	n/a	0	0	Cue	Neutral	True
11.352	3.85	Control	1.0	0.001	Yes	2.948	0.0	n/a	GoodResponse	0	n/a	n/a	0	0	Fixation	Neutral	True
15.214	0.4	Control	1.0	0.0	Yes	2.948	0.012	4.0	GoodResponse	0	0.255	14.469	0	0	Target	Neutral	True
15.469	0.3	Control	1.0	0.0	Yes	2.948	0.012	4.0	GoodResponse	0	0.255	n/a	0	0	ButtonPress	Neutral	True
15.599	0.3	Control	1.0	n/a	Yes	2.948	n/a	n/a	GoodResponse	0	n/a	n/a	0	0	Blank	Neutral	True
15.899	1.45	Control	1.0	n/a	Yes	2.948	n/a	5.0	GoodResponse	0	0.027	14.926	0	0	Feedback	Neutral	True
17.354	2.948	Control	1.0	n/a	Yes	2.948	n/a	n/a	GoodResponse	0	0.0	n/a	0	0	ISIslide	Neutral	True
20.329	0.25	Lose2	1.0	0.0	Yes	2.771	0.029	n/a	GoodResponse	0	n/a	n/a	0	1	Cue	AvoidedLoss	True
20.58	4.0	Lose2	1.0	0.0	Yes	2.771	0.001	n/a	GoodResponse	0	n/a	n/a	0	1	Fixation	AvoidedLoss	True
24.575	0.39	Lose2	1.0	0.004	Yes	2.771	-0.004	4.0	GoodResponse	0	0.24	23.815	0	1	Target	AvoidedLoss	True
24.815	0.3	Lose2	1.0	0.004	Yes	2.771	-0.004	4.0	GoodResponse	0	0.24	n/a	0	1	ButtonPress	AvoidedLoss	True
24.977	0.31	Lose2	1.0	n/a	Yes	2.771	n/a	n/a	GoodResponse	0	n/a	n/a	0	1	Blank	AvoidedLoss	True
25.278	1.45	Lose2	1.0	n/a	Yes	2.771	n/a	5.0	GoodResponse	0	0.014	24.292	0	1	Feedback	AvoidedLoss	True
26.732	2.771	Lose2	1.0	n/a	Yes	2.771	n/a	n/a	GoodResponse	0	0.0	n/a	0	1	ISIslide	AvoidedLoss	True
29.524	0.25	Control	1.0	0.0	Yes	2.576	0.024	n/a	GoodResponse	0	n/a	n/a	0	2	Cue	Neutral	True
29.774	4.1	Control	1.0	0.0	Yes	2.576	0.0	n/a	GoodResponse	0	n/a	n/a	0	2	Fixation	Neutral	True
33.87	0.38	Control	1.0	0.004	Yes	2.576	-0.004	4.0	GoodResponse	0	0.225	33.095	0	2	Target	Neutral	True
34.095	0.3	Control	1.0	0.004	Yes	2.576	-0.004	4.0	GoodResponse	0	0.225	n/a	0	2	ButtonPress	Neutral	True
34.254	0.32	Control	1.0	n/a	Yes	2.576	n/a	n/a	GoodResponse	0	n/a	n/a	0	2	Blank	Neutral	True
34.572	1.45	Control	1.0	n/a	Yes	2.576	n/a	5.0	GoodResponse	0	0.037	33.609	0	2	Feedback	Neutral	True
36.026	2.576	Control	1.0	n/a	Yes	2.576	n/a	n/a	GoodResponse	0	0.0	n/a	0	2	ISIslide	Neutral	True
38.618	0.25	Win2	1.0	0.0	Yes	2.832	0.018	n/a	GoodResponse	1	n/a	n/a	1	3	Cue	Win	True
38.868	3.95	Win2	1.0	0.0	Yes	2.832	0.0	n/a	GoodResponse	1	n/a	n/a	1	3	Fixation	Win	True
42.83	0.37	Win2	1.0	0.0	Yes	2.832	0.012	4.0	GoodResponse	1	0.228	42.058	1	3	Target	Win	True
43.058	0.3	Win2	1.0	0.0	Yes	2.832	0.012	4.0	GoodResponse	1	0.228	n/a	1	3	ButtonPress	Win	True
43.198	0.33	Win2	1.0	n/a	Yes	2.832	n/a	n/a	GoodResponse	1	n/a	n/a	1	3	Blank	Win	True
43.516	1.45	Win2	1.0	n/a	Yes	2.832	n/a	5.0	GoodResponse	1	0.019	42.535	1	3	Feedback	Win	True
44.97	2.832	Win2	1.0	n/a	Yes	2.832	n/a	n/a	GoodResponse	1	0.0	n/a	1	3	ISIslide	Win	True
47.828	0.25	Win2	1.0	0.001	Yes	3.272	0.028	n/a	GoodResponse	1	n/a	n/a	2	4	Cue	Win	True
48.079	4.0	Win2	1.0	0.0	Yes	3.272	0.001	n/a	GoodResponse	1	n/a	n/a	2	4	Fixation	Win	True
52.075	0.36	Win2	1.0	0.003	Yes	3.272	-0.003	4.0	GoodResponse	1	0.187	51.262	2	4	Target	Win	True
52.262	0.3	Win2	1.0	0.003	Yes	3.272	-0.003	4.0	GoodResponse	1	0.187	n/a	2	4	ButtonPress	Win	True
52.442	0.34	Win2	1.0	n/a	Yes	3.272	n/a	n/a	GoodResponse	1	n/a	n/a	2	4	Blank	Win	True
52.777	1.45	Win2	1.0	n/a	Yes	3.272	n/a	5.0	GoodResponse	1	0.027	51.804	2	4	Feedback	Win	True
54.231	3.272	Win2	1.0	n/a	Yes	3.272	n/a	n/a	GoodResponse	1	0.0	n/a	2	4	ISIslide	Win	True
57.524	0.25	Win2	1.0	0.0	Yes	2.776	0.024	n/a	GoodResponse	1	n/a	n/a	3	5	Cue	Win	True
57.775	4.0	Win2	1.0	0.0	Yes	2.776	0.001	n/a	GoodResponse	1	n/a	n/a	3	5	Fixation	Win	True
61.77	0.35	Win2	1.0	0.004	Yes	2.776	-0.004	4.0	GoodResponse	1	0.247	61.017	3	5	Target	Win	True
62.017	0.3	Win2	1.0	0.004	Yes	2.776	-0.004	4.0	GoodResponse	1	0.247	n/a	3	5	ButtonPress	Win	True
62.121	0.35	Win2	1.0	n/a	Yes	2.776	n/a	n/a	GoodResponse	1	n/a	n/a	3	5	Blank	Win	True
62.472	1.45	Win2	1.0	n/a	Yes	2.776	n/a	5.0	GoodResponse	1	0.039	61.511	3	5	Feedback	Win	True
63.927	2.776	Win2	1.0	n/a	Yes	2.776	n/a	n/a	GoodResponse	1	0.0	n/a	3	5	ISIslide	Win	True
66.718	0.25	Lose2	1.0	0.001	Yes	2.732	0.018	n/a	GoodResponse	0	n/a	n/a	3	6	Cue	AvoidedLoss	True
66.969	3.95	Lose2	1.0	0.0	Yes	2.732	0.001	n/a	GoodResponse	0	n/a	n/a	3	6	Fixation	AvoidedLoss	True
70.914	0.34	Lose2	1.0	0.004	Yes	2.732	-0.004	4.0	GoodResponse	0	0.223	70.137	3	6	Target	AvoidedLoss	True
71.137	0.3	Lose2	1.0	0.004	Yes	2.732	-0.004	4.0	GoodResponse	0	0.223	n/a	3	6	ButtonPress	AvoidedLoss	True
71.265	0.36	Lose2	1.0	n/a	Yes	2.732	n/a	n/a	GoodResponse	0	n/a	n/a	3	6	Blank	AvoidedLoss	True
71.616	1.45	Lose2	1.0	n/a	Yes	2.732	n/a	5.0	GoodResponse	0	0.017	70.633	3	6	Feedback	AvoidedLoss	True
73.071	2.732	Lose2	1.0	n/a	Yes	2.732	n/a	n/a	GoodResponse	0	0.0	n/a	3	6	ISIslide	AvoidedLoss	True
75.829	0.25	Lose2	1.0	0.0	Yes	4.021	0.029	n/a	GoodResponse	0	n/a	n/a	3	7	Cue	AvoidedLoss	True
76.08	4.05	Lose2	1.0	0.0	Yes	4.021	0.001	n/a	GoodResponse	0	n/a	n/a	3	7	Fixation	AvoidedLoss	True
80.125	0.33	Lose2	1.0	0.004	Yes	4.021	-0.004	4.0	GoodResponse	0	0.278	79.403	3	7	Target	AvoidedLoss	True
80.403	0.3	Lose2	1.0	0.004	Yes	4.021	-0.004	4.0	GoodResponse	0	0.278	n/a	3	7	ButtonPress	AvoidedLoss	True
80.46	0.37	Lose2	1.0	n/a	Yes	4.021	n/a	n/a	GoodResponse	0	n/a	n/a	3	7	Blank	AvoidedLoss	True
80.827	1.45	Lose2	1.0	n/a	Yes	4.021	n/a	5.0	GoodResponse	0	0.026	79.853	3	7	Feedback	AvoidedLoss	True
82.282	4.021	Lose2	1.0	n/a	Yes	4.021	n/a	n/a	GoodResponse	0	0.0	n/a	3	7	ISIslide	AvoidedLoss	True
86.327	0.25	Lose2	1.0	0.0	Yes	3.023	0.027	n/a	GoodResponse	0	n/a	n/a	3	8	Cue	AvoidedLoss	True
86.578	3.95	Lose2	1.0	0.0	Yes	3.023	0.001	n/a	GoodResponse	0	n/a	n/a	3	8	Fixation	AvoidedLoss	True
90.523	0.32	Lose2	1.0	0.004	Yes	3.023	-0.004	4.0	GoodResponse	0	0.232	89.755	3	8	Target	AvoidedLoss	True
90.755	0.3	Lose2	1.0	0.004	Yes	3.023	-0.004	4.0	GoodResponse	0	0.232	n/a	3	8	ButtonPress	AvoidedLoss	True
90.857	0.38	Lose2	1.0	n/a	Yes	3.023	n/a	n/a	GoodResponse	0	n/a	n/a	3	8	Blank	AvoidedLoss	True
91.225	1.45	Lose2	1.0	n/a	Yes	3.023	n/a	5.0	GoodResponse	0	0.018	90.243	3	8	Feedback	AvoidedLoss	True
92.68	3.023	Lose2	1.0	n/a	Yes	3.023	n/a	n/a	GoodResponse	0	0.0	n/a	3	8	ISIslide	AvoidedLoss	True
95.722	0.25	Lose2	1.0	0.0	Yes	3.128	0.022	n/a	GoodResponse	0	n/a	n/a	3	9	Cue	AvoidedLoss	True
95.973	3.95	Lose2	1.0	0.0	Yes	3.128	0.001	n/a	GoodResponse	0	n/a	n/a	3	9	Fixation	AvoidedLoss	True
99.918	0.31	Lose2	1.0	0.004	Yes	3.128	-0.004	4.0	GoodResponse	0	0.209	99.127	3	9	Target	AvoidedLoss	True
100.127	0.3	Lose2	1.0	0.004	Yes	3.128	-0.004	4.0	GoodResponse	0	0.209	n/a	3	9	ButtonPress	AvoidedLoss	True
100.235	0.39	Lose2	1.0	n/a	Yes	3.128	n/a	n/a	GoodResponse	0	n/a	n/a	3	9	Blank	AvoidedLoss	True
100.62	1.45	Lose2	1.0	n/a	Yes	3.128	n/a	5.0	GoodResponse	0	0.037	99.657	3	9	Feedback	AvoidedLoss	True
102.074	3.128	Lose2	1.0	n/a	Yes	3.128	n/a	n/a	GoodResponse	0	0.0	n/a	3	9	ISIslide	AvoidedLoss	True
105.217	0.25	Control	1.0	0.0	Yes	3.283	0.017	n/a	GoodResponse	0	n/a	n/a	3	10	Cue	Neutral	True
105.468	4.0	Control	1.0	0.0	Yes	3.283	0.001	n/a	GoodResponse	0	n/a	n/a	3	10	Fixation	Neutral	True
109.463	0.3	Control	1.0	0.004	Yes	3.283	-0.004	4.0	GoodResponse	0	0.242	108.705	3	10	Target	Neutral	True
109.705	0.3	Control	1.0	0.004	Yes	3.283	-0.004	4.0	GoodResponse	0	0.242	n/a	3	10	ButtonPress	Neutral	True
109.764	0.4	Control	1.0	n/a	Yes	3.283	n/a	n/a	GoodResponse	0	n/a	n/a	3	10	Blank	Neutral	True
110.165	1.45	Control	1.0	n/a	Yes	3.283	n/a	5.0	GoodResponse	0	0.006	109.171	3	10	Feedback	Neutral	True
111.62	3.283	Control	1.0	n/a	Yes	3.283	n/a	n/a	GoodResponse	0	0.0	n/a	3	10	ISIslide	Neutral	True
114.93	0.25	Lose2	1.0	0.0	Yes	2.72	0.03	n/a	GoodResponse	0	n/a	n/a	3	11	Cue	AvoidedLoss	True
115.18	4.05	Lose2	1.0	0.0	Yes	2.72	0.0	n/a	GoodResponse	0	n/a	n/a	3	11	Fixation	AvoidedLoss	True
119.226	0.29	Lose2	1.0	0.004	Yes	2.72	-0.004	4.0	GoodResponse	0	0.225	118.451	3	11	Target	AvoidedLoss	True
119.451	0.3	Lose2	1.0	0.004	Yes	2.72	-0.004	4.0	GoodResponse	0	0.225	n/a	3	11	ButtonPress	AvoidedLoss	True
119.527	0.41	Lose2	1.0	n/a	Yes	2.72	n/a	n/a	GoodResponse	0	n/a	n/a	3	11	Blank	AvoidedLoss	True
119.928	1.45	Lose2	1.0	n/a	Yes	2.72	n/a	5.0	GoodResponse	0	0.046	118.974	3	11	Feedback	AvoidedLoss	True
121.382	2.72	Lose2	1.0	n/a	Yes	2.72	n/a	n/a	GoodResponse	0	0.0	n/a	3	11	ISIslide	AvoidedLoss	True
124.124	0.25	Control	1.0	0.0	Yes	2.976	0.024	n/a	GoodResponse	0	n/a	n/a	3	12	Cue	Neutral	True
124.374	3.9	Control	1.0	0.001	Yes	2.976	0.0	n/a	GoodResponse	0	n/a	n/a	3	12	Fixation	Neutral	True
128.269	0.28	Control	1.0	0.005	Yes	2.976	-0.005	4.0	GoodResponse	0	0.221	127.49	3	12	Target	Neutral	True
128.49	0.3	Control	1.0	0.005	Yes	2.976	-0.005	4.0	GoodResponse	0	0.221	n/a	3	12	ButtonPress	Neutral	True
128.554	0.42	Control	1.0	n/a	Yes	2.976	n/a	n/a	GoodResponse	0	n/a	n/a	3	12	Blank	Neutral	True
128.972	1.45	Control	1.0	n/a	Yes	2.976	n/a	5.0	GoodResponse	0	0.027	127.999	3	12	Feedback	Neutral	True
130.426	2.976	Control	1.0	n/a	Yes	2.976	n/a	n/a	GoodResponse	0	0.0	n/a	3	12	ISIslide	Neutral	True
133.418	0.25	Control	1.0	0.0	Yes	2.782	0.018	n/a	GoodResponse	0	n/a	n/a	3	13	Cue	Neutral	True
133.669	4.0	Control	1.0	0.0	Yes	2.782	0.001	n/a	GoodResponse	0	n/a	n/a	3	13	Fixation	Neutral	True
137.664	0.27	Control	1.0	0.004	Yes	2.782	-0.004	4.0	GoodResponse	0	0.206	136.87	3	13	Target	Neutral	True
137.87	0.3	Control	1.0	0.004	Yes	2.782	-0.004	4.0	GoodResponse	0	0.206	n/a	3	13	ButtonPress	Neutral	True
137.948	0.43	Control	1.0	n/a	Yes	2.782	n/a	n/a	GoodResponse	0	n/a	n/a	3	13	Blank	Neutral	True
138.366	1.45	Control	1.0	n/a	Yes	2.782	n/a	5.0	GoodResponse	0	0.048	137.414	3	13	Feedback	Neutral	True
139.821	2.782	Control	1.0	n/a	Yes	2.782	n/a	n/a	GoodResponse	0	0.0	n/a	3	13	ISIslide	Neutral	True
142.629	0.25	Win2	1.0	0.0	Yes	2.671	0.029	n/a	GoodResponse	1	n/a	n/a	4	14	Cue	Win	True
142.88	4.1	Win2	1.0	0.0	Yes	2.671	0.001	n/a	GoodResponse	1	n/a	n/a	4	14	Fixation	Win	True
146.976	0.26	Win2	1.0	0.003	Yes	2.671	-0.003	4.0	GoodResponse	1	0.229	146.205	4	14	Target	Win	True
147.205	0.3	Win2	1.0	0.003	Yes	2.671	-0.003	4.0	GoodResponse	1	0.229	n/a	4	14	ButtonPress	Win	True
147.243	0.44	Win2	1.0	n/a	Yes	2.671	n/a	n/a	GoodResponse	1	n/a	n/a	4	14	Blank	Win	True
147.678	1.45	Win2	1.0	n/a	Yes	2.671	n/a	5.0	GoodResponse	1	0.005	146.683	4	14	Feedback	Win	True
149.132	2.671	Win2	1.0	n/a	Yes	2.671	n/a	n/a	GoodResponse	1	0.0	n/a	4	14	ISIslide	Win	True
151.823	0.25	Control	0.9375	0.0	No	2.977	0.023	n/a	NoResponse	0	n/a	n/a	4	15	Cue	Neutral	True
152.074	4.0	Control	0.9375	0.0	No	2.977	0.001	n/a	NoResponse	0	n/a	n/a	4	15	Fixation	Neutral	True
156.069	0.25	Control	0.9375	0.004	No	2.977	-0.004	4.0	NoResponse	0	0.276	155.345	4	15	Target	Neutral	True
156.32	0.45	Control	0.9375	n/a	No	2.977	n/a	n/a	NoResponse	0	n/a	n/a	4	15	Blank	Neutral	True
156.345	0.3	Control	0.9375	0.004	No	2.977	-0.004	4.0	NoResponse	0	0.276	n/a	4	15	ButtonPress	Neutral	True
156.772	1.45	Control	0.9375	n/a	No	2.977	n/a	5.0	NoResponse	0	0.031	155.803	4	15	Feedback	Neutral	True
158.226	2.977	Control	0.9375	n/a	No	2.977	n/a	n/a	NoResponse	0	0.0	n/a	4	15	ISIslide	Neutral	True
161.218	0.25	Win2	0.9412	0.0	Yes	2.882	0.018	n/a	GoodResponse	1	n/a	n/a	5	16	Cue	Win	True
161.469	4.0	Win2	0.9412	0.0	Yes	2.882	0.001	n/a	GoodResponse	1	n/a	n/a	5	16	Fixation	Win	True
165.464	0.24	Win2	0.9412	0.004	Yes	2.882	-0.004	4.0	GoodResponse	1	0.169	164.633	5	16	Target	Win	True
165.633	0.3	Win2	0.9412	0.004	Yes	2.882	-0.004	4.0	GoodResponse	1	0.169	n/a	5	16	ButtonPress	Win	True
165.715	0.46	Win2	0.9412	n/a	Yes	2.882	n/a	n/a	GoodResponse	1	n/a	n/a	5	16	Blank	Win	True
166.166	1.45	Win2	0.9412	n/a	Yes	2.882	n/a	5.0	GoodResponse	1	0.006	165.172	5	16	Feedback	Win	True
167.621	2.882	Win2	0.9412	n/a	Yes	2.882	n/a	n/a	GoodResponse	1	0.0	n/a	5	16	ISIslide	Win	True
170.529	0.25	Lose2	0.8889	0.001	No	2.721	0.029	n/a	NoResponse	-1	n/a	n/a	4	17	Cue	Loss	True
170.78	3.95	Lose2	0.8889	0.0	No	2.721	0.001	n/a	NoResponse	-1	n/a	n/a	4	17	Fixation	Loss	True
174.725	0.23	Lose2	0.8889	0.004	No	2.721	-0.004	4.0	NoResponse	-1	0.304	174.029	4	17	Target	Loss	True
174.959	0.47	Lose2	0.8889	n/a	No	2.721	n/a	n/a	NoResponse	-1	n/a	n/a	4	17	Blank	Loss	True
175.029	0.3	Lose2	0.8889	0.004	No	2.721	-0.004	4.0	NoResponse	-1	0.304	n/a	4	17	ButtonPress	Loss	True
175.427	1.45	Lose2	0.8889	n/a	No	2.721	n/a	5.0	NoResponse	-1	0.01	174.437	4	17	Feedback	Loss	True
176.882	2.721	Lose2	0.8889	n/a	No	2.721	n/a	n/a	NoResponse	-1	0.0	n/a	4	17	ISIslide	Loss	True
179.623	0.25	Lose2	0.8946999999999999	0.0	Yes	2.727	0.023	n/a	GoodResponse	0	n/a	n/a	4	18	Cue	AvoidedLoss	True
179.874	4.05	Lose2	0.8946999999999999	0.0	Yes	2.727	0.001	n/a	GoodResponse	0	n/a	n/a	4	18	Fixation	AvoidedLoss	True
183.92	0.22	Lose2	0.8946999999999999	0.003	Yes	2.727	-0.003	4.0	GoodResponse	0	0.156	183.076	4	18	Target	AvoidedLoss	True
184.076	0.3	Lose2	0.8946999999999999	0.003	Yes	2.727	-0.003	4.0	GoodResponse	0	0.156	n/a	4	18	ButtonPress	AvoidedLoss	True
184.154	0.48	Lose2	0.8946999999999999	n/a	Yes	2.727	n/a	n/a	GoodResponse	0	n/a	n/a	4	18	Blank	AvoidedLoss	True
184.622	1.45	Lose2	0.8946999999999999	n/a	Yes	2.727	n/a	5.0	GoodResponse	0	0.035	183.657	4	18	Feedback	AvoidedLoss	True
186.076	2.727	Lose2	0.8946999999999999	n/a	Yes	2.727	n/a	n/a	GoodResponse	0	0.0	n/a	4	18	ISIslide	AvoidedLoss	True
188.818	0.25	Control	0.85	0.0	No	2.932	0.018	n/a	NoResponse	0	n/a	n/a	4	19	Cue	Neutral	True
189.068	3.95	Control	0.85	0.0	No	2.932	0.0	n/a	NoResponse	0	n/a	n/a	4	19	Fixation	Neutral	True
193.03	0.21	Control	0.85	0.0	No	2.932	0.012	4.0	NoResponse	0	0.219	192.249	4	19	Target	Neutral	True
193.231	0.49	Control	0.85	n/a	No	2.932	n/a	n/a	NoResponse	0	n/a	n/a	4	19	Blank	Neutral	True
193.249	0.3	Control	0.85	0.0	No	2.932	0.012	4.0	NoResponse	0	0.219	n/a	4	19	ButtonPress	Neutral	True
193.716	1.45	Control	0.85	n/a	No	2.932	n/a	5.0	NoResponse	0	0.014	192.73	4	19	Feedback	Neutral	True
195.17	2.932	Control	0.85	n/a	No	2.932	n/a	n/a	NoResponse	0	0.0	n/a	4	19	ISIslide	Neutral	True
198.129	0.25	Control	0.8095	0.0	No	2.621	0.029	n/a	LatePress	0	n/a	n/a	4	20	Cue	Neutral	True
198.38	4.05	Control	0.8095	0.0	No	2.621	0.001	n/a	LatePress	0	n/a	n/a	4	20	Fixation	Neutral	True
202.425	0.2	Control	0.8095	0.004	No	2.621	-0.004	4.0	LatePress	0	0.2	201.625	4	20	Target	Neutral	True
202.625	0.3	Control	0.8095	0.004	No	2.621	-0.004	4.0	LatePress	0	0.2	n/a	4	20	ButtonPress	Neutral	True
202.626	0.5	Control	0.8095	n/a	No	2.621	n/a	n/a	LatePress	0	n/a	n/a	4	20	Blank	Neutral	True
203.127	1.45	Control	0.8095	n/a	No	2.621	n/a	5.0	LatePress	0	0.018	202.145	4	20	Feedback	Neutral	True
204.581	2.621	Control	0.8095	n/a	No	2.621	n/a	n/a	LatePress	0	0.0	n/a	4	20	ISIslide	Neutral	True
207.223	0.25	Control	0.8181999999999999	0.0	Yes	2.777	0.023	n/a	GoodResponse	0	n/a	n/a	4	21	Cue	Neutral	True
207.473	4.1	Control	0.8181999999999999	0.001	Yes	2.777	0.0	n/a	GoodResponse	0	n/a	n/a	4	21	Fixation	Neutral	True
211.569	0.19	Control	0.8181999999999999	0.004	Yes	2.777	-0.004	4.0	GoodResponse	0	0.106	210.675	4	21	Target	Neutral	True
211.675	0.3	Control	0.8181999999999999	0.004	Yes	2.777	-0.004	4.0	GoodResponse	0	0.106	n/a	4	21	ButtonPress	Neutral	True
211.77	0.51	Control	0.8181999999999999	n/a	Yes	2.777	n/a	n/a	GoodResponse	0	n/a	n/a	4	21	Blank	Neutral	True
212.271	1.45	Control	0.8181999999999999	n/a	Yes	2.777	n/a	5.0	GoodResponse	0	0.045	211.316	4	21	Feedback	Neutral	True
213.726	2.777	Control	0.8181999999999999	n/a	Yes	2.777	n/a	n/a	GoodResponse	0	0.0	n/a	4	21	ISIslide	Neutral	True
216.517	0.25	Control	0.7826000000000001	0.0	No	2.783	0.017	n/a	NoResponse	0	n/a	n/a	4	22	Cue	Neutral	True
216.768	4.0	Control	0.7826000000000001	0.0	No	2.783	0.001	n/a	NoResponse	0	n/a	n/a	4	22	Fixation	Neutral	True
220.763	0.18	Control	0.7826000000000001	0.004	No	2.783	-0.004	4.0	NoResponse	0	0.207	219.97	4	22	Target	Neutral	True
220.947	0.52	Control	0.7826000000000001	n/a	No	2.783	n/a	n/a	NoResponse	0	n/a	n/a	4	22	Blank	Neutral	True
220.97	0.3	Control	0.7826000000000001	0.004	No	2.783	-0.004	4.0	NoResponse	0	0.207	n/a	4	22	ButtonPress	Neutral	True
221.465	1.45	Control	0.7826000000000001	n/a	No	2.783	n/a	5.0	NoResponse	0	0.021	220.486	4	22	Feedback	Neutral	True
222.92	2.783	Control	0.7826000000000001	n/a	No	2.783	n/a	n/a	NoResponse	0	0.0	n/a	4	22	ISIslide	Neutral	True
225.728	0.25	Control	0.75	0.0	No	2.772	0.028	n/a	NoResponse	0	n/a	n/a	4	23	Cue	Neutral	True
225.979	3.9	Control	0.75	0.0	No	2.772	0.001	n/a	NoResponse	0	n/a	n/a	4	23	Fixation	Neutral	True
229.874	0.17	Control	0.75	0.004	No	2.772	-0.004	4.0	NoResponse	0	0.228	229.102	4	23	Target	Neutral	True
230.058	0.53	Control	0.75	n/a	No	2.772	n/a	n/a	NoResponse	0	n/a	n/a	4	23	Blank	Neutral	True
230.102	0.3	Control	0.75	0.004	No	2.772	-0.004	4.0	NoResponse	0	0.228	n/a	4	23	ButtonPress	Neutral	True
230.576	1.45	Control	0.75	n/a	No	2.772	n/a	5.0	NoResponse	0	0.032	229.608	4	23	Feedback	Neutral	True
232.03	2.772	Control	0.75	n/a	No	2.772	n/a	n/a	NoResponse	0	0.0	n/a	4	23	ISIslide	Neutral	True
234.822	0.25	Win2	0.72	0.0	No	3.128	0.022	n/a	NoResponse	0	n/a	n/a	4	24	Cue	MissedWin	False
235.073	3.95	Win2	0.72	0.0	No	3.128	0.001	4.0	NoResponse	0	3.025	237.098	4	24	Fixation	MissedWin	False
238.098	0.3	Win2	0.72	0.0	No	3.128	0.001	4.0	NoResponse	0	3.025	n/a	4	24	ButtonPress	MissedWin	False
239.018	0.16	Win2	0.72	0.004	No	3.128	-0.004	4.0	NoResponse	0	0.267	238.285	4	24	Target	MissedWin	False
239.185	0.54	Win2	0.72	n/a	No	3.128	n/a	n/a	NoResponse	0	n/a	n/a	4	24	Blank	MissedWin	False
239.285	0.3	Win2	0.72	0.004	No	3.128	-0.004	4.0	NoResponse	0	0.267	n/a	4	24	ButtonPress	MissedWin	False
239.72	1.45	Win2	0.72	n/a	No	3.128	n/a	5.0	NoResponse	0	0.01	238.73	4	24	Feedback	MissedWin	False
241.174	3.128	Win2	0.72	n/a	No	3.128	n/a	n/a	NoResponse	0	0.0	n/a	4	24	ISIslide	MissedWin	False
244.317	0.25	Win2	0.6923	0.0	No	3.083	0.017	n/a	NoResponse	0	n/a	n/a	4	25	Cue	MissedWin	True
244.568	4.0	Win2	0.6923	0.0	No	3.083	0.001	n/a	NoResponse	0	n/a	n/a	4	25	Fixation	MissedWin	True
248.563	0.15	Win2	0.6923	0.004	No	3.083	-0.004	4.0	NoResponse	0	0.216	247.779	4	25	Target	MissedWin	True
248.714	0.55	Win2	0.6923	n/a	No	3.083	n/a	n/a	NoResponse	0	n/a	n/a	4	25	Blank	MissedWin	True
248.779	0.3	Win2	0.6923	0.004	No	3.083	-0.004	4.0	NoResponse	0	0.216	n/a	4	25	ButtonPress	MissedWin	True
249.265	1.45	Win2	0.6923	n/a	No	3.083	n/a	5.0	NoResponse	0	0.026	248.291	4	25	Feedback	MissedWin	True
250.72	3.083	Win2	0.6923	n/a	No	3.083	n/a	n/a	NoResponse	0	0.0	n/a	4	25	ISIslide	MissedWin	True
253.829	0.25	Win2	0.6667000000000001	0.0	No	2.921	0.029	n/a	NoResponse	0	n/a	n/a	4	26	Cue	MissedWin	True
254.08	3.95	Win2	0.6667000000000001	0.0	No	2.921	0.001	4.0	NoResponse	0	3.924	257.004	4	26	Fixation	MissedWin	True
258.004	0.3	Win2	0.6667000000000001	0.0	No	2.921	0.001	4.0	NoResponse	0	3.924	n/a	4	26	ButtonPress	MissedWin	True
258.025	0.15	Win2	0.6667000000000001	0.004	No	2.921	-0.004	n/a	NoResponse	0	n/a	n/a	4	26	Target	MissedWin	True
258.175	0.55	Win2	0.6667000000000001	n/a	No	2.921	n/a	n/a	NoResponse	0	n/a	n/a	4	26	Blank	MissedWin	True
258.727	1.45	Win2	0.6667000000000001	n/a	No	2.921	n/a	5.0	NoResponse	0	0.027	257.754	4	26	Feedback	MissedWin	True
260.181	2.921	Win2	0.6667000000000001	n/a	No	2.921	n/a	n/a	NoResponse	0	0.0	n/a	4	26	ISIslide	MissedWin	True
263.124	0.25	Lose2	0.6429	0.0	No	2.826	0.024	n/a	NoResponse	-1	n/a	n/a	3	27	Cue	Loss	True
263.374	4.05	Lose2	0.6429	0.0	No	2.826	0.0	n/a	NoResponse	-1	n/a	n/a	3	27	Fixation	Loss	True
267.42	0.15	Lose2	0.6429	0.004	No	2.826	-0.004	4.0	NoResponse	-1	0.203	266.623	3	27	Target	Loss	True
267.57	0.55	Lose2	0.6429	n/a	No	2.826	n/a	n/a	NoResponse	-1	n/a	n/a	3	27	Blank	Loss	True
267.623	0.3	Lose2	0.6429	0.004	No	2.826	-0.004	4.0	NoResponse	-1	0.203	n/a	3	27	ButtonPress	Loss	True
268.122	1.45	Lose2	0.6429	n/a	No	2.826	n/a	5.0	NoResponse	-1	0.047	267.169	3	27	Feedback	Loss	True
269.576	2.826	Lose2	0.6429	n/a	No	2.826	n/a	n/a	NoResponse	-1	0.0	n/a	3	27	ISIslide	Loss	True
272.418	0.25	Control	0.6207	0.0	No	2.832	0.018	n/a	NoResponse	0	n/a	n/a	3	28	Cue	Neutral	True
272.669	4.05	Control	0.6207	0.0	No	2.832	0.001	n/a	NoResponse	0	n/a	n/a	3	28	Fixation	Neutral	True
276.714	0.16	Control	0.6207	0.004	No	2.832	-0.004	4.0	NoResponse	0	0.227	275.941	3	28	Target	Neutral	True
276.881	0.54	Control	0.6207	n/a	No	2.832	n/a	n/a	NoResponse	0	n/a	n/a	3	28	Blank	Neutral	True
276.941	0.3	Control	0.6207	0.004	No	2.832	-0.004	4.0	NoResponse	0	0.227	n/a	3	28	ButtonPress	Neutral	True
277.416	1.45	Control	0.6207	n/a	No	2.832	n/a	5.0	NoResponse	0	0.02	276.436	3	28	Feedback	Neutral	True
278.871	2.832	Control	0.6207	n/a	No	2.832	n/a	n/a	NoResponse	0	0.0	n/a	3	28	ISIslide	Neutral	True
281.729	0.25	Lose2	0.6	0.0	No	2.821	0.029	n/a	NoResponse	-1	n/a	n/a	2	29	Cue	Loss	True
281.98	3.95	Lose2	0.6	0.0	No	2.821	0.001	n/a	NoResponse	-1	n/a	n/a	2	29	Fixation	Loss	True
285.925	0.17	Lose2	0.6	0.004	No	2.821	-0.004	4.0	NoResponse	-1	0.244	285.169	2	29	Target	Loss	True
286.109	0.53	Lose2	0.6	n/a	No	2.821	n/a	n/a	NoResponse	-1	n/a	n/a	2	29	Blank	Loss	True
286.169	0.3	Lose2	0.6	0.004	No	2.821	-0.004	4.0	NoResponse	-1	0.244	n/a	2	29	ButtonPress	Loss	True
286.627	1.45	Lose2	0.6	n/a	No	2.821	n/a	5.0	NoResponse	-1	0.029	285.656	2	29	Feedback	Loss	True
288.082	2.821	Lose2	0.6	n/a	No	2.821	n/a	n/a	NoResponse	-1	0.0	n/a	2	29	ISIslide	Loss	True
290.924	0.25	Win2	0.5806	0.0	No	2.776	0.024	n/a	NoResponse	0	n/a	n/a	2	30	Cue	MissedWin	True
291.174	3.9	Win2	0.5806	0.0	No	2.776	0.0	n/a	NoResponse	0	n/a	n/a	2	30	Fixation	MissedWin	True
295.086	0.18	Win2	0.5806	0.0	No	2.776	0.012	4.0	NoResponse	0	0.219	294.305	2	30	Target	MissedWin	True
295.253	0.52	Win2	0.5806	n/a	No	2.776	n/a	n/a	NoResponse	0	n/a	n/a	2	30	Blank	MissedWin	True
295.305	0.3	Win2	0.5806	0.0	No	2.776	0.012	4.0	NoResponse	0	0.219	n/a	2	30	ButtonPress	MissedWin	True
295.771	1.45	Win2	0.5806	n/a	No	2.776	n/a	5.0	NoResponse	0	0.007	294.778	2	30	Feedback	MissedWin	True
297.226	2.776	Win2	0.5806	n/a	No	2.776	n/a	n/a	NoResponse	0	0.0	n/a	2	30	ISIslide	MissedWin	True
300.017	0.25	Lose2	0.5625	0.001	No	2.833	0.017	n/a	PrematurePress	-1	n/a	n/a	1	31	Cue	Loss	True
300.268	4.05	Lose2	0.5625	0.0	No	2.833	0.001	n/a	PrematurePress	-1	n/a	n/a	1	31	Fixation	Loss	True
304.314	0.19	Lose2	0.5625	0.003	No	2.833	-0.003	4.0	PrematurePress	-1	0.015	303.329	1	31	Target	Loss	True
304.329	0.3	Lose2	0.5625	0.003	No	2.833	-0.003	4.0	PrematurePress	-1	0.015	n/a	1	31	ButtonPress	Loss	True
304.514	0.51	Lose2	0.5625	n/a	No	2.833	n/a	n/a	PrematurePress	-1	n/a	n/a	1	31	Blank	Loss	True
305.016	1.45	Lose2	0.5625	n/a	No	2.833	n/a	5.0	PrematurePress	-1	0.03	304.046	1	31	Feedback	Loss	True
306.47	2.833	Lose2	0.5625	n/a	No	2.833	n/a	n/a	PrematurePress	-1	0.0	n/a	1	31	ISIslide	Loss	True
309.329	0.25	Lose2	0.5455	0.0	No	2.621	0.029	n/a	NoResponse	-1	n/a	n/a	0	32	Cue	Loss	True
309.579	4.15	Lose2	0.5455	0.0	No	2.621	0.0	n/a	NoResponse	-1	n/a	n/a	0	32	Fixation	Loss	True
313.725	0.2	Lose2	0.5455	0.004	No	2.621	-0.004	4.0	NoResponse	-1	0.212	312.937	0	32	Target	Loss	True
313.926	0.5	Lose2	0.5455	n/a	No	2.621	n/a	n/a	NoResponse	-1	n/a	n/a	0	32	Blank	Loss	True
313.937	0.3	Lose2	0.5455	0.004	No	2.621	-0.004	4.0	NoResponse	-1	0.212	n/a	0	32	ButtonPress	Loss	True
314.427	1.45	Lose2	0.5455	n/a	No	2.621	n/a	5.0	NoResponse	-1	0.034	313.461	0	32	Feedback	Loss	True
315.882	2.621	Lose2	0.5455	n/a	No	2.621	n/a	n/a	NoResponse	-1	0.0	n/a	0	32	ISIslide	Loss	True
318.523	0.25	Win2	0.5588000000000001	0.0	Yes	2.677	0.023	n/a	GoodResponse	1	n/a	n/a	1	33	Cue	Win	True
318.774	4.0	Win2	0.5588000000000001	0.0	Yes	2.677	0.001	n/a	GoodResponse	1	n/a	n/a	1	33	Fixation	Win	True
322.769	0.21	Win2	0.5588000000000001	0.004	Yes	2.677	-0.004	4.0	GoodResponse	1	0.179	321.948	1	33	Target	Win	True
322.948	0.3	Win2	0.5588000000000001	0.004	Yes	2.677	-0.004	4.0	GoodResponse	1	0.179	n/a	1	33	ButtonPress	Win	True
322.986	0.49	Win2	0.5588000000000001	n/a	Yes	2.677	n/a	n/a	GoodResponse	1	n/a	n/a	1	33	Blank	Win	True
323.471	1.45	Win2	0.5588000000000001	n/a	Yes	2.677	n/a	5.0	GoodResponse	1	0.015	322.486	1	33	Feedback	Win	True
324.925	2.677	Win2	0.5588000000000001	n/a	Yes	2.677	n/a	n/a	GoodResponse	1	0.0	n/a	1	33	ISIslide	Win	True
327.617	0.25	Lose2	0.5428999999999999	0.0	No	2.633	0.017	n/a	NoResponse	-1	n/a	n/a	0	34	Cue	Loss	True
327.868	4.05	Lose2	0.5428999999999999	0.0	No	2.633	0.001	4.0	NoResponse	-1	3.896	330.764	0	34	Fixation	Loss	True
331.764	0.3	Lose2	0.5428999999999999	0.0	No	2.633	0.001	4.0	NoResponse	-1	3.896	n/a	0	34	ButtonPress	Loss	True
331.913	0.22	Lose2	0.5428999999999999	0.004	No	2.633	-0.004	n/a	NoResponse	-1	n/a	n/a	0	34	Target	Loss	True
332.147	0.48	Lose2	0.5428999999999999	n/a	No	2.633	n/a	n/a	NoResponse	-1	n/a	n/a	0	34	Blank	Loss	True
332.615	1.45	Lose2	0.5428999999999999	n/a	No	2.633	n/a	5.0	NoResponse	-1	0.04	331.655	0	34	Feedback	Loss	True
334.069	2.633	Lose2	0.5428999999999999	n/a	No	2.633	n/a	n/a	NoResponse	-1	0.0	n/a	0	34	ISIslide	Loss	True
336.727	0.25	Lose2	0.5556	0.001	Yes	2.673	0.027	n/a	GoodResponse	0	n/a	n/a	0	35	Cue	AvoidedLoss	True
336.978	4.0	Lose2	0.5556	0.0	Yes	2.673	0.001	n/a	GoodResponse	0	n/a	n/a	0	35	Fixation	AvoidedLoss	True
340.973	0.23	Lose2	0.5556	0.004	Yes	2.673	-0.004	4.0	GoodResponse	0	0.229	340.202	0	35	Target	AvoidedLoss	True
341.202	0.3	Lose2	0.5556	0.004	Yes	2.673	-0.004	4.0	GoodResponse	0	0.229	n/a	0	35	ButtonPress	AvoidedLoss	True
341.208	0.47	Lose2	0.5556	n/a	Yes	2.673	n/a	n/a	GoodResponse	0	n/a	n/a	0	35	Blank	AvoidedLoss	True
341.676	1.45	Lose2	0.5556	n/a	Yes	2.673	n/a	5.0	GoodResponse	0	0.005	340.681	0	35	Feedback	AvoidedLoss	True
343.13	2.673	Lose2	0.5556	n/a	Yes	2.673	n/a	n/a	GoodResponse	0	0.0	n/a	0	35	ISIslide	AvoidedLoss	True
345.821	0.25	Control	0.5676	0.0	Yes	2.679	0.021	n/a	GoodResponse	0	n/a	n/a	0	36	Cue	Neutral	True
346.072	4.0	Control	0.5676	0.0	Yes	2.679	0.001	n/a	GoodResponse	0	n/a	n/a	0	36	Fixation	Neutral	True
350.067	0.24	Control	0.5676	0.004	Yes	2.679	-0.004	4.0	GoodResponse	0	0.209	349.276	0	36	Target	Neutral	True
350.276	0.3	Control	0.5676	0.004	Yes	2.679	-0.004	4.0	GoodResponse	0	0.209	n/a	0	36	ButtonPress	Neutral	True
350.318	0.46	Control	0.5676	n/a	Yes	2.679	n/a	n/a	GoodResponse	0	n/a	n/a	0	36	Blank	Neutral	True
350.77	1.45	Control	0.5676	n/a	Yes	2.679	n/a	5.0	GoodResponse	0	0.032	349.802	0	36	Feedback	Neutral	True
352.224	2.679	Control	0.5676	n/a	Yes	2.679	n/a	n/a	GoodResponse	0	0.0	n/a	0	36	ISIslide	Neutral	True
354.932	0.25	Win2	0.5789	0.0	Yes	2.868	0.032	n/a	GoodResponse	1	n/a	n/a	1	37	Cue	Win	True
355.183	4.0	Win2	0.5789	0.0	Yes	2.868	0.001	n/a	GoodResponse	1	n/a	n/a	1	37	Fixation	Win	True
359.178	0.25	Win2	0.5789	0.004	Yes	2.868	-0.004	4.0	GoodResponse	1	0.191	358.369	1	37	Target	Win	True
359.369	0.3	Win2	0.5789	0.004	Yes	2.868	-0.004	4.0	GoodResponse	1	0.191	n/a	1	37	ButtonPress	Win	True
359.429	0.45	Win2	0.5789	n/a	Yes	2.868	n/a	n/a	GoodResponse	1	n/a	n/a	1	37	Blank	Win	True
359.88	1.45	Win2	0.5789	n/a	Yes	2.868	n/a	5.0	GoodResponse	1	0.044	358.924	1	37	Feedback	Win	True
361.334	2.868	Win2	0.5789	n/a	Yes	2.868	n/a	n/a	GoodResponse	1	0.0	n/a	1	37	ISIslide	Win	True
364.227	0.25	Lose2	0.5897	0.0	Yes	2.823	0.027	n/a	GoodResponse	0	n/a	n/a	1	38	Cue	AvoidedLoss	True
364.477	3.95	Lose2	0.5897	0.0	Yes	2.823	0.0	n/a	GoodResponse	0	n/a	n/a	1	38	Fixation	AvoidedLoss	True
368.439	0.26	Lose2	0.5897	0.0	Yes	2.823	0.012	4.0	GoodResponse	0	0.221	367.66	1	38	Target	AvoidedLoss	True
368.66	0.3	Lose2	0.5897	0.0	Yes	2.823	0.012	4.0	GoodResponse	0	0.221	n/a	1	38	ButtonPress	AvoidedLoss	True
368.69	0.44	Lose2	0.5897	n/a	Yes	2.823	n/a	n/a	GoodResponse	0	n/a	n/a	1	38	Blank	AvoidedLoss	True
369.125	1.45	Lose2	0.5897	n/a	Yes	2.823	n/a	5.0	GoodResponse	0	0.019	368.144	1	38	Feedback	AvoidedLoss	True
370.579	2.823	Lose2	0.5897	n/a	Yes	2.823	n/a	n/a	GoodResponse	0	0.0	n/a	1	38	ISIslide	AvoidedLoss	True
373.421	0.25	Win2	0.6	0.0	Yes	2.979	0.021	n/a	GoodResponse	1	n/a	n/a	2	39	Cue	Win	True
373.671	4.1	Win2	0.6	0.001	Yes	2.979	0.0	n/a	GoodResponse	1	n/a	n/a	2	39	Fixation	Win	True
377.767	0.27	Win2	0.6	0.004	Yes	2.979	-0.004	4.0	GoodResponse	1	0.229	376.996	2	39	Target	Win	True
377.996	0.3	Win2	0.6	0.004	Yes	2.979	-0.004	4.0	GoodResponse	1	0.229	n/a	2	39	ButtonPress	Win	True
378.051	0.43	Win2	0.6	n/a	Yes	2.979	n/a	n/a	GoodResponse	1	n/a	n/a	2	39	Blank	Win	True
378.469	1.45	Win2	0.6	n/a	Yes	2.979	n/a	5.0	GoodResponse	1	0.04	377.509	2	39	Feedback	Win	True
379.924	2.979	Win2	0.6	n/a	Yes	2.979	n/a	n/a	GoodResponse	1	0.0	n/a	2	39	ISIslide	Win	True
382.933	0.25	Win2	0.6098	0.0	Yes	2.717	0.033	n/a	GoodResponse	1	n/a	n/a	3	40	Cue	Win	False
383.183	3.95	Win2	0.6098	0.0	Yes	2.717	0.0	4.0	GoodResponse	1	0.235	382.418	3	40	Fixation	Win	False
383.418	0.3	Win2	0.6098	0.0	Yes	2.717	0.0	4.0	GoodResponse	1	0.235	n/a	3	40	ButtonPress	Win	False
387.128	0.28	Win2	0.6098	0.005	Yes	2.717	-0.005	4.0	GoodResponse	1	0.233	386.361	3	40	Target	Win	False
387.361	0.3	Win2	0.6098	0.005	Yes	2.717	-0.005	4.0	GoodResponse	1	0.233	n/a	3	40	ButtonPress	Win	False
387.413	0.42	Win2	0.6098	n/a	Yes	2.717	n/a	n/a	GoodResponse	1	n/a	n/a	3	40	Blank	Win	False
387.831	1.45	Win2	0.6098	n/a	Yes	2.717	n/a	5.0	GoodResponse	1	0.044	386.875	3	40	Feedback	Win	False
389.285	2.717	Win2	0.6098	n/a	Yes	2.717	n/a	n/a	GoodResponse	1	0.0	n/a	3	40	ISIslide	Win	False
392.026	0.25	Win2	0.619	0.001	Yes	2.774	0.026	n/a	GoodResponse	1	n/a	n/a	4	41	Cue	Win	True
392.277	3.9	Win2	0.619	0.0	Yes	2.774	0.001	n/a	GoodResponse	1	n/a	n/a	4	41	Fixation	Win	True
396.172	0.29	Win2	0.619	0.004	Yes	2.774	-0.004	4.0	GoodResponse	1	0.24	395.412	4	41	Target	Win	True
396.412	0.3	Win2	0.619	0.004	Yes	2.774	-0.004	4.0	GoodResponse	1	0.24	n/a	4	41	ButtonPress	Win	True
396.473	0.41	Win2	0.619	n/a	Yes	2.774	n/a	n/a	GoodResponse	1	n/a	n/a	4	41	Blank	Win	True
396.874	1.45	Win2	0.619	n/a	Yes	2.774	n/a	5.0	GoodResponse	1	0.025	395.899	4	41	Feedback	Win	True
398.329	2.774	Win2	0.619	n/a	Yes	2.774	n/a	n/a	GoodResponse	1	0.0	n/a	4	41	ISIslide	Win	True
401.12	0.25	Control	0.6279	0.0	Yes	2.93	0.02	n/a	GoodResponse	0	n/a	n/a	4	42	Cue	Neutral	True
401.371	3.85	Control	0.6279	0.0	Yes	2.93	0.001	n/a	GoodResponse	0	n/a	n/a	4	42	Fixation	Neutral	True
405.216	0.3	Control	0.6279	0.004	Yes	2.93	-0.004	4.0	GoodResponse	0	0.235	404.451	4	42	Target	Neutral	True
405.451	0.3	Control	0.6279	0.004	Yes	2.93	-0.004	4.0	GoodResponse	0	0.235	n/a	4	42	ButtonPress	Neutral	True
405.517	0.4	Control	0.6279	n/a	Yes	2.93	n/a	n/a	GoodResponse	0	n/a	n/a	4	42	Blank	Neutral	True
405.918	1.45	Control	0.6279	n/a	Yes	2.93	n/a	5.0	GoodResponse	0	0.006	404.924	4	42	Feedback	Neutral	True
407.372	2.93	Control	0.6279	n/a	Yes	2.93	n/a	n/a	GoodResponse	0	0.0	n/a	4	42	ISIslide	Neutral	True
410.331	0.25	Win2	0.6364	0.0	Yes	3.169	0.031	n/a	GoodResponse	1	n/a	n/a	5	43	Cue	Win	True
410.582	4.0	Win2	0.6364	0.0	Yes	3.169	0.001	n/a	GoodResponse	1	n/a	n/a	5	43	Fixation	Win	True
414.577	0.31	Win2	0.6364	0.004	Yes	3.169	-0.004	4.0	GoodResponse	1	0.191	413.768	5	43	Target	Win	True
414.768	0.3	Win2	0.6364	0.004	Yes	3.169	-0.004	4.0	GoodResponse	1	0.191	n/a	5	43	ButtonPress	Win	True
414.895	0.39	Win2	0.6364	n/a	Yes	3.169	n/a	n/a	GoodResponse	1	n/a	n/a	5	43	Blank	Win	True
415.279	1.45	Win2	0.6364	n/a	Yes	3.169	n/a	5.0	GoodResponse	1	0.01	414.289	5	43	Feedback	Win	True
416.734	3.169	Win2	0.6364	n/a	Yes	3.169	n/a	n/a	GoodResponse	1	0.0	n/a	5	43	ISIslide	Win	True
419.927	0.25	Win2	0.6444	0.0	Yes	2.973	0.027	n/a	GoodResponse	1	n/a	n/a	6	44	Cue	Win	True
420.177	4.0	Win2	0.6444	0.001	Yes	2.973	0.0	n/a	GoodResponse	1	n/a	n/a	6	44	Fixation	Win	True
424.173	0.32	Win2	0.6444	0.004	Yes	2.973	-0.004	4.0	GoodResponse	1	0.186	423.359	6	44	Target	Win	True
424.359	0.3	Win2	0.6444	0.004	Yes	2.973	-0.004	4.0	GoodResponse	1	0.186	n/a	6	44	ButtonPress	Win	True
424.507	0.38	Win2	0.6444	n/a	Yes	2.973	n/a	n/a	GoodResponse	1	n/a	n/a	6	44	Blank	Win	True
424.875	1.45	Win2	0.6444	n/a	Yes	2.973	n/a	5.0	GoodResponse	1	0.024	423.899	6	44	Feedback	Win	True
426.329	2.973	Win2	0.6444	n/a	Yes	2.973	n/a	n/a	GoodResponse	1	0.0	n/a	6	44	ISIslide	Win	True
429.322	0.25	Control	0.6522	0.0	Yes	2.878	0.022	n/a	GoodResponse	0	n/a	n/a	6	45	Cue	Neutral	True
429.572	4.1	Control	0.6522	0.0	Yes	2.878	0.0	n/a	GoodResponse	0	n/a	n/a	6	45	Fixation	Neutral	True
433.668	0.33	Control	0.6522	0.004	Yes	2.878	-0.004	4.0	GoodResponse	0	0.244	432.912	6	45	Target	Neutral	True
433.912	0.3	Control	0.6522	0.004	Yes	2.878	-0.004	4.0	GoodResponse	0	0.244	n/a	6	45	ButtonPress	Neutral	True
434.002	0.37	Control	0.6522	n/a	Yes	2.878	n/a	n/a	GoodResponse	0	n/a	n/a	6	45	Blank	Neutral	True
434.37	1.45	Control	0.6522	n/a	Yes	2.878	n/a	5.0	GoodResponse	0	0.041	433.411	6	45	Feedback	Neutral	True
435.824	2.878	Control	0.6522	n/a	Yes	2.878	n/a	n/a	GoodResponse	0	0.0	n/a	6	45	ISIslide	Neutral	True
438.716	0.25	Lose2	0.6596	0.0	Yes	3.384	0.016	n/a	GoodResponse	0	n/a	n/a	6	46	Cue	AvoidedLoss	True
438.967	4.0	Lose2	0.6596	0.0	Yes	3.384	0.001	n/a	GoodResponse	0	n/a	n/a	6	46	Fixation	AvoidedLoss	True
442.962	0.34	Lose2	0.6596	0.004	Yes	3.384	-0.004	4.0	GoodResponse	0	0.237	442.199	6	46	Target	AvoidedLoss	True
443.199	0.3	Lose2	0.6596	0.004	Yes	3.384	-0.004	4.0	GoodResponse	0	0.237	n/a	6	46	ButtonPress	AvoidedLoss	True
443.313	0.36	Lose2	0.6596	n/a	Yes	3.384	n/a	n/a	GoodResponse	0	n/a	n/a	6	46	Blank	AvoidedLoss	True
443.665	1.45	Lose2	0.6596	n/a	Yes	3.384	n/a	5.0	GoodResponse	0	0.015	442.68	6	46	Feedback	AvoidedLoss	True
445.119	3.384	Lose2	0.6596	n/a	Yes	3.384	n/a	n/a	GoodResponse	0	0.0	n/a	6	46	ISIslide	AvoidedLoss	True
448.529	0.25	Lose2	0.6667000000000001	0.0	Yes	2.671	0.029	n/a	GoodResponse	0	n/a	n/a	6	47	Cue	AvoidedLoss	True
448.78	4.0	Lose2	0.6667000000000001	0.0	Yes	2.671	0.001	n/a	GoodResponse	0	n/a	n/a	6	47	Fixation	AvoidedLoss	True
452.775	0.34	Lose2	0.6667000000000001	0.004	Yes	2.671	-0.004	4.0	GoodResponse	0	0.22	451.995	6	47	Target	AvoidedLoss	True
452.995	0.3	Lose2	0.6667000000000001	0.004	Yes	2.671	-0.004	4.0	GoodResponse	0	0.22	n/a	6	47	ButtonPress	AvoidedLoss	True
453.126	0.36	Lose2	0.6667000000000001	n/a	Yes	2.671	n/a	n/a	GoodResponse	0	n/a	n/a	6	47	Blank	AvoidedLoss	True
453.477	1.45	Lose2	0.6667000000000001	n/a	Yes	2.671	n/a	5.0	GoodResponse	0	0.007	452.484	6	47	Feedback	AvoidedLoss	True
454.932	2.671	Lose2	0.6667000000000001	n/a	Yes	2.671	n/a	n/a	GoodResponse	0	0.0	n/a	6	47	ISIslide	AvoidedLoss	True
457.623	0.25	Lose2	0.6735	0.0	Yes	3.027	0.023	n/a	GoodResponse	0	n/a	n/a	6	48	Cue	AvoidedLoss	True
457.874	3.95	Lose2	0.6735	0.0	Yes	3.027	0.001	n/a	GoodResponse	0	n/a	n/a	6	48	Fixation	AvoidedLoss	True
461.819	0.33	Lose2	0.6735	0.004	Yes	3.027	-0.004	4.0	GoodResponse	0	0.203	461.022	6	48	Target	AvoidedLoss	True
462.022	0.3	Lose2	0.6735	0.004	Yes	3.027	-0.004	4.0	GoodResponse	0	0.203	n/a	6	48	ButtonPress	AvoidedLoss	True
462.153	0.37	Lose2	0.6735	n/a	Yes	3.027	n/a	n/a	GoodResponse	0	n/a	n/a	6	48	Blank	AvoidedLoss	True
462.521	1.45	Lose2	0.6735	n/a	Yes	3.027	n/a	5.0	GoodResponse	0	0.036	461.557	6	48	Feedback	AvoidedLoss	True
463.975	3.027	Lose2	0.6735	n/a	Yes	3.027	n/a	n/a	GoodResponse	0	0.0	n/a	6	48	ISIslide	AvoidedLoss	True
467.018	0.25	Control	0.68	0.0	Yes	2.882	0.018	n/a	GoodResponse	0	n/a	n/a	6	49	Cue	Neutral	True
467.269	4.0	Control	0.68	0.0	Yes	2.882	0.001	n/a	GoodResponse	0	n/a	n/a	6	49	Fixation	Neutral	True
471.264	0.32	Control	0.68	0.004	Yes	2.882	-0.004	4.0	GoodResponse	0	0.248	470.512	6	49	Target	Neutral	True
471.512	0.3	Control	0.68	0.004	Yes	2.882	-0.004	4.0	GoodResponse	0	0.248	n/a	6	49	ButtonPress	Neutral	True
471.598	0.38	Control	0.68	n/a	Yes	2.882	n/a	n/a	GoodResponse	0	n/a	n/a	6	49	Blank	Neutral	True
471.966	1.45	Control	0.68	n/a	Yes	2.882	n/a	5.0	GoodResponse	0	0.006	470.972	6	49	Feedback	Neutral	True
473.42	2.882	Control	0.68	n/a	Yes	2.882	n/a	n/a	GoodResponse	0	0.0	n/a	6	49	ISIslide	Neutral	True
476.329	0.25	Control	0.6862999999999999	0.0	Yes	2.771	0.029	n/a	GoodResponse	0	n/a	n/a	6	50	Cue	Neutral	True
476.58	4.0	Control	0.6862999999999999	0.0	Yes	2.771	0.001	n/a	GoodResponse	0	n/a	n/a	6	50	Fixation	Neutral	True
480.575	0.31	Control	0.6862999999999999	0.004	Yes	2.771	-0.004	4.0	GoodResponse	0	0.253	479.828	6	50	Target	Neutral	True
480.828	0.3	Control	0.6862999999999999	0.004	Yes	2.771	-0.004	4.0	GoodResponse	0	0.253	n/a	6	50	ButtonPress	Neutral	True
480.893	0.39	Control	0.6862999999999999	n/a	Yes	2.771	n/a	n/a	GoodResponse	0	n/a	n/a	6	50	Blank	Neutral	True
481.277	1.45	Control	0.6862999999999999	n/a	Yes	2.771	n/a	5.0	GoodResponse	0	0.012	480.289	6	50	Feedback	Neutral	True
482.732	2.771	Control	0.6862999999999999	n/a	Yes	2.771	n/a	n/a	GoodResponse	0	0.0	n/a	6	50	ISIslide	Neutral	True
485.523	0.25	Control	0.6923	0.0	Yes	2.727	0.023	n/a	GoodResponse	0	n/a	n/a	6	51	Cue	Neutral	True
485.774	3.95	Control	0.6923	0.0	Yes	2.727	0.001	n/a	GoodResponse	0	n/a	n/a	6	51	Fixation	Neutral	True
489.719	0.3	Control	0.6923	0.004	Yes	2.727	-0.004	4.0	GoodResponse	0	0.295	489.014	6	51	Target	Neutral	True
490.014	0.3	Control	0.6923	0.004	Yes	2.727	-0.004	4.0	GoodResponse	0	0.295	n/a	6	51	ButtonPress	Neutral	True
490.02	0.4	Control	0.6923	n/a	Yes	2.727	n/a	n/a	GoodResponse	0	n/a	n/a	6	51	Blank	Neutral	True
490.421	1.45	Control	0.6923	n/a	Yes	2.727	n/a	5.0	GoodResponse	0	0.039	489.46	6	51	Feedback	Neutral	True
491.876	2.727	Control	0.6923	n/a	Yes	2.727	n/a	n/a	GoodResponse	0	0.0	n/a	6	51	ISIslide	Neutral	True
494.617	0.25	Control	0.6981	0.0	Yes	2.633	0.017	n/a	GoodResponse	0	n/a	n/a	6	52	Cue	Neutral	True
494.868	4.05	Control	0.6981	0.0	Yes	2.633	0.001	n/a	GoodResponse	0	n/a	n/a	6	52	Fixation	Neutral	True
498.913	0.29	Control	0.6981	0.004	Yes	2.633	-0.004	4.0	GoodResponse	0	0.251	498.164	6	52	Target	Neutral	True
499.164	0.3	Control	0.6981	0.004	Yes	2.633	-0.004	4.0	GoodResponse	0	0.251	n/a	6	52	ButtonPress	Neutral	True
499.214	0.41	Control	0.6981	n/a	Yes	2.633	n/a	n/a	GoodResponse	0	n/a	n/a	6	52	Blank	Neutral	True
499.616	1.45	Control	0.6981	n/a	Yes	2.633	n/a	5.0	GoodResponse	0	0.015	498.631	6	52	Feedback	Neutral	True
501.07	2.633	Control	0.6981	n/a	Yes	2.633	n/a	n/a	GoodResponse	0	0.0	n/a	6	52	ISIslide	Neutral	True
503.728	0.25	Win2	0.7037	0.0	Yes	2.922	0.028	n/a	GoodResponse	1	n/a	n/a	7	53	Cue	Win	True
503.979	4.05	Win2	0.7037	0.0	Yes	2.922	0.001	n/a	GoodResponse	1	n/a	n/a	7	53	Fixation	Win	True
508.024	0.28	Win2	0.7037	0.004	Yes	2.922	-0.004	4.0	GoodResponse	1	0.255	507.279	7	53	Target	Win	True
508.279	0.3	Win2	0.7037	0.004	Yes	2.922	-0.004	4.0	GoodResponse	1	0.255	n/a	7	53	ButtonPress	Win	True
508.308	0.42	Win2	0.7037	n/a	Yes	2.922	n/a	n/a	GoodResponse	1	n/a	n/a	7	53	Blank	Win	True
508.726	1.45	Win2	0.7037	n/a	Yes	2.922	n/a	5.0	GoodResponse	1	0.027	507.753	7	53	Feedback	Win	True
510.181	2.922	Win2	0.7037	n/a	Yes	2.922	n/a	n/a	GoodResponse	1	0.0	n/a	7	53	ISIslide	Win	True
513.123	0.25	Win2	0.7091	0.0	Yes	2.727	0.023	n/a	GoodResponse	1	n/a	n/a	8	54	Cue	Win	True
513.373	3.95	Win2	0.7091	0.0	Yes	2.727	0.0	n/a	GoodResponse	1	n/a	n/a	8	54	Fixation	Win	True
517.319	0.27	Win2	0.7091	0.004	Yes	2.727	-0.004	4.0	GoodResponse	1	0.23	516.549	8	54	Target	Win	True
517.549	0.3	Win2	0.7091	0.004	Yes	2.727	-0.004	4.0	GoodResponse	1	0.23	n/a	8	54	ButtonPress	Win	True
517.603	0.43	Win2	0.7091	n/a	Yes	2.727	n/a	n/a	GoodResponse	1	n/a	n/a	8	54	Blank	Win	True
518.021	1.45	Win2	0.7091	n/a	Yes	2.727	n/a	5.0	GoodResponse	1	0.048	517.069	8	54	Feedback	Win	True
519.475	2.727	Win2	0.7091	n/a	Yes	2.727	n/a	n/a	GoodResponse	1	0.0	n/a	8	54	ISIslide	Win	True
522.217	0.25	Control	0.7143	0.0	Yes	3.033	0.017	n/a	GoodResponse	0	n/a	n/a	8	55	Cue	Neutral	True
522.467	3.95	Control	0.7143	0.0	Yes	3.033	0.0	n/a	GoodResponse	0	n/a	n/a	8	55	Fixation	Neutral	True
526.412	0.26	Control	0.7143	0.005	Yes	3.033	-0.005	4.0	GoodResponse	0	0.244	525.656	8	55	Target	Neutral	True
526.656	0.3	Control	0.7143	0.005	Yes	3.033	-0.005	4.0	GoodResponse	0	0.244	n/a	8	55	ButtonPress	Neutral	True
526.68	0.44	Control	0.7143	n/a	Yes	3.033	n/a	n/a	GoodResponse	0	n/a	n/a	8	55	Blank	Neutral	True
527.115	1.45	Control	0.7143	n/a	Yes	3.033	n/a	5.0	GoodResponse	0	0.027	526.142	8	55	Feedback	Neutral	True
528.569	3.033	Control	0.7143	n/a	Yes	3.033	n/a	n/a	GoodResponse	0	0.0	n/a	8	55	ISIslide	Neutral	True
531.628	0.25	Control	0.7193	0.0	Yes	2.822	0.028	n/a	GoodResponse	0	n/a	n/a	8	56	Cue	Neutral	True
531.879	3.95	Control	0.7193	0.0	Yes	2.822	0.001	n/a	GoodResponse	0	n/a	n/a	8	56	Fixation	Neutral	True
535.824	0.25	Control	0.7193	0.004	Yes	2.822	-0.004	4.0	GoodResponse	0	0.248	535.072	8	56	Target	Neutral	True
536.072	0.3	Control	0.7193	0.004	Yes	2.822	-0.004	4.0	GoodResponse	0	0.248	n/a	8	56	ButtonPress	Neutral	True
536.075	0.45	Control	0.7193	n/a	Yes	2.822	n/a	n/a	GoodResponse	0	n/a	n/a	8	56	Blank	Neutral	True
536.526	1.45	Control	0.7193	n/a	Yes	2.822	n/a	5.0	GoodResponse	0	0.031	535.557	8	56	Feedback	Neutral	True
537.98	2.822	Control	0.7193	n/a	Yes	2.822	n/a	n/a	GoodResponse	0	0.0	n/a	8	56	ISIslide	Neutral	True
540.822	0.25	Control	0.7069	0.0	No	3.478	0.022	n/a	NoResponse	0	n/a	n/a	8	57	Cue	Neutral	True
541.073	4.0	Control	0.7069	0.0	No	3.478	0.001	n/a	NoResponse	0	n/a	n/a	8	57	Fixation	Neutral	True
545.068	0.24	Control	0.7069	0.004	No	3.478	-0.004	4.0	NoResponse	0	0.265	544.333	8	57	Target	Neutral	True
545.319	0.46	Control	0.7069	n/a	No	3.478	n/a	n/a	NoResponse	0	n/a	n/a	8	57	Blank	Neutral	True
545.333	0.3	Control	0.7069	0.004	No	3.478	-0.004	4.0	NoResponse	0	0.265	n/a	8	57	ButtonPress	Neutral	True
545.77	1.45	Control	0.7069	n/a	No	3.478	n/a	5.0	NoResponse	0	0.006	544.776	8	57	Feedback	Neutral	True
547.225	3.478	Control	0.7069	n/a	No	3.478	n/a	n/a	NoResponse	0	0.0	n/a	8	57	ISIslide	Neutral	True
550.719	0.25	Win2	0.6949	0.0	No	2.731	0.019	n/a	NoResponse	0	n/a	n/a	8	58	Cue	MissedWin	True
550.969	4.05	Win2	0.6949	0.001	No	2.731	0.0	n/a	NoResponse	0	n/a	n/a	8	58	Fixation	MissedWin	True
555.015	0.23	Win2	0.6949	0.004	No	2.731	-0.004	4.0	NoResponse	0	0.292	554.307	8	58	Target	MissedWin	True
555.249	0.47	Win2	0.6949	n/a	No	2.731	n/a	n/a	NoResponse	0	n/a	n/a	8	58	Blank	MissedWin	True
555.307	0.3	Win2	0.6949	0.004	No	2.731	-0.004	4.0	NoResponse	0	0.292	n/a	8	58	ButtonPress	MissedWin	True
555.717	1.45	Win2	0.6949	n/a	No	2.731	n/a	5.0	NoResponse	0	0.011	554.728	8	58	Feedback	MissedWin	True
557.171	2.731	Win2	0.6949	n/a	No	2.731	n/a	n/a	NoResponse	0	0.0	n/a	8	58	ISIslide	MissedWin	True
559.93	0.25	Lose2	0.7	0.0	Yes	2.67	0.03	n/a	GoodResponse	0	n/a	n/a	8	59	Cue	AvoidedLoss	True
560.18	4.0	Lose2	0.7	0.0	Yes	2.67	0.0	n/a	GoodResponse	0	n/a	n/a	8	59	Fixation	AvoidedLoss	True
564.176	0.22	Lose2	0.7	0.004	Yes	2.67	-0.004	4.0	GoodResponse	0	0.193	563.369	8	59	Target	AvoidedLoss	True
564.369	0.3	Lose2	0.7	0.004	Yes	2.67	-0.004	4.0	GoodResponse	0	0.193	n/a	8	59	ButtonPress	AvoidedLoss	True
564.41	0.48	Lose2	0.7	n/a	Yes	2.67	n/a	n/a	GoodResponse	0	n/a	n/a	8	59	Blank	AvoidedLoss	True
564.878	1.45	Lose2	0.7	n/a	Yes	2.67	n/a	5.0	GoodResponse	0	0.021	563.899	8	59	Feedback	AvoidedLoss	True
566.332	2.67	Lose2	0.7	n/a	Yes	2.67	n/a	n/a	GoodResponse	0	0.0	n/a	8	59	ISIslide	AvoidedLoss	True
569.023	0.25	Control	0.7049	0.001	Yes	2.677	0.023	n/a	GoodResponse	0	n/a	n/a	8	60	Cue	Neutral	True
569.274	4.0	Control	0.7049	0.0	Yes	2.677	0.001	n/a	GoodResponse	0	n/a	n/a	8	60	Fixation	Neutral	True
573.27	0.21	Control	0.7049	0.003	Yes	2.677	-0.003	4.0	GoodResponse	0	0.159	572.429	8	60	Target	Neutral	True
573.429	0.3	Control	0.7049	0.003	Yes	2.677	-0.003	4.0	GoodResponse	0	0.159	n/a	8	60	ButtonPress	Neutral	True
573.487	0.49	Control	0.7049	n/a	Yes	2.677	n/a	n/a	GoodResponse	0	n/a	n/a	8	60	Blank	Neutral	True
573.972	1.45	Control	0.7049	n/a	Yes	2.677	n/a	5.0	GoodResponse	0	0.048	573.02	8	60	Feedback	Neutral	True
575.426	2.677	Control	0.7049	n/a	Yes	2.677	n/a	n/a	GoodResponse	0	0.0	n/a	8	60	ISIslide	Neutral	True
578.117	0.25	Lose2	0.6934999999999999	0.001	No	2.983	0.017	n/a	NoResponse	-1	n/a	n/a	7	61	Cue	Loss	True
578.368	4.0	Lose2	0.6934999999999999	0.0	No	2.983	0.001	n/a	NoResponse	-1	n/a	n/a	7	61	Fixation	Loss	True
582.363	0.2	Lose2	0.6934999999999999	0.004	No	2.983	-0.004	4.0	NoResponse	-1	0.214	581.577	7	61	Target	Loss	True
582.564	0.5	Lose2	0.6934999999999999	n/a	No	2.983	n/a	n/a	NoResponse	-1	n/a	n/a	7	61	Blank	Loss	True
582.577	0.3	Lose2	0.6934999999999999	0.004	No	2.983	-0.004	4.0	NoResponse	-1	0.214	n/a	7	61	ButtonPress	Loss	True
583.066	1.45	Lose2	0.6934999999999999	n/a	No	2.983	n/a	5.0	NoResponse	-1	0.027	582.093	7	61	Feedback	Loss	True
584.52	2.983	Lose2	0.6934999999999999	n/a	No	2.983	n/a	n/a	NoResponse	-1	0.0	n/a	7	61	ISIslide	Loss	True
587.529	0.25	Lose2	0.6984	0.0	Yes	2.871	0.029	n/a	GoodResponse	0	n/a	n/a	7	62	Cue	AvoidedLoss	True
587.78	3.9	Lose2	0.6984	0.0	Yes	2.871	0.001	n/a	GoodResponse	0	n/a	n/a	7	62	Fixation	AvoidedLoss	True
591.675	0.19	Lose2	0.6984	0.004	Yes	2.871	-0.004	4.0	GoodResponse	0	0.177	590.852	7	62	Target	AvoidedLoss	True
591.852	0.3	Lose2	0.6984	0.004	Yes	2.871	-0.004	4.0	GoodResponse	0	0.177	n/a	7	62	ButtonPress	AvoidedLoss	True
591.875	0.51	Lose2	0.6984	n/a	Yes	2.871	n/a	n/a	GoodResponse	0	n/a	n/a	7	62	Blank	AvoidedLoss	True
592.377	1.45	Lose2	0.6984	n/a	Yes	2.871	n/a	5.0	GoodResponse	0	0.033	591.41	7	62	Feedback	AvoidedLoss	True
593.831	2.871	Lose2	0.6984	n/a	Yes	2.871	n/a	n/a	GoodResponse	0	0.0	n/a	7	62	ISIslide	AvoidedLoss	True
596.723	0.25	Lose2	0.6875	0.0	No	2.627	0.023	n/a	NoResponse	-1	n/a	n/a	6	63	Cue	Loss	True
596.974	4.05	Lose2	0.6875	0.0	No	2.627	0.001	n/a	NoResponse	-1	n/a	n/a	6	63	Fixation	Loss	True
601.019	0.18	Lose2	0.6875	0.004	No	2.627	-0.004	4.0	NoResponse	-1	0.255	600.274	6	63	Target	Loss	True
601.203	0.52	Lose2	0.6875	n/a	No	2.627	n/a	n/a	NoResponse	-1	n/a	n/a	6	63	Blank	Loss	True
601.274	0.3	Lose2	0.6875	0.004	No	2.627	-0.004	4.0	NoResponse	-1	0.255	n/a	6	63	ButtonPress	Loss	True
601.721	1.45	Lose2	0.6875	n/a	No	2.627	n/a	5.0	NoResponse	-1	0.006	600.727	6	63	Feedback	Loss	True
603.176	2.627	Lose2	0.6875	n/a	No	2.627	n/a	n/a	NoResponse	-1	0.0	n/a	6	63	ISIslide	Loss	True
605.817	0.25	Win2	0.6769	0.0	No	3.133	0.017	n/a	NoResponse	0	n/a	n/a	6	64	Cue	MissedWin	True
606.068	4.15	Win2	0.6769	0.0	No	3.133	0.001	4.0	NoResponse	0	3.189	608.257	6	64	Fixation	MissedWin	True
609.257	0.3	Win2	0.6769	0.0	No	3.133	0.001	4.0	NoResponse	0	3.189	n/a	6	64	ButtonPress	MissedWin	True
610.214	0.17	Win2	0.6769	0.003	No	3.133	-0.003	n/a	NoResponse	0	n/a	n/a	6	64	Target	MissedWin	True
610.397	0.53	Win2	0.6769	n/a	No	3.133	n/a	n/a	NoResponse	0	n/a	n/a	6	64	Blank	MissedWin	True
610.916	1.45	Win2	0.6769	n/a	No	3.133	n/a	5.0	NoResponse	0	0.031	609.947	6	64	Feedback	MissedWin	True
612.37	3.133	Win2	0.6769	n/a	No	3.133	n/a	n/a	NoResponse	0	0.0	n/a	6	64	ISIslide	MissedWin	True
615.513	0.25	Control	0.6667000000000001	0.0	No	2.787	0.013	n/a	NoResponse	0	n/a	n/a	6	65	Cue	Neutral	True
615.764	4.0	Control	0.6667000000000001	0.0	No	2.787	0.001	n/a	NoResponse	0	n/a	n/a	6	65	Fixation	Neutral	True
619.759	0.16	Control	0.6667000000000001	0.004	No	2.787	-0.004	4.0	NoResponse	0	0.18	618.939	6	65	Target	Neutral	True
619.926	0.54	Control	0.6667000000000001	n/a	No	2.787	n/a	n/a	NoResponse	0	n/a	n/a	6	65	Blank	Neutral	True
619.939	0.3	Control	0.6667000000000001	0.004	No	2.787	-0.004	4.0	NoResponse	0	0.18	n/a	6	65	ButtonPress	Neutral	True
620.461	1.45	Control	0.6667000000000001	n/a	No	2.787	n/a	5.0	NoResponse	0	0.047	619.508	6	65	Feedback	Neutral	True
621.915	2.787	Control	0.6667000000000001	n/a	No	2.787	n/a	n/a	NoResponse	0	0.0	n/a	6	65	ISIslide	Neutral	True
624.724	0.25	Win2	0.6567000000000001	0.0	No	2.776	0.024	n/a	NoResponse	0	n/a	n/a	6	66	Cue	MissedWin	True
624.974	3.9	Win2	0.6567000000000001	0.001	No	2.776	0.0	n/a	NoResponse	0	n/a	n/a	6	66	Fixation	MissedWin	True
628.886	0.15	Win2	0.6567000000000001	0.0	No	2.776	0.012	4.0	NoResponse	0	0.248	628.134	6	66	Target	MissedWin	True
629.02	0.55	Win2	0.6567000000000001	n/a	No	2.776	n/a	n/a	NoResponse	0	n/a	n/a	6	66	Blank	MissedWin	True
629.134	0.3	Win2	0.6567000000000001	0.0	No	2.776	0.012	4.0	NoResponse	0	0.248	n/a	6	66	ButtonPress	MissedWin	True
629.572	1.45	Win2	0.6567000000000001	n/a	No	2.776	n/a	5.0	NoResponse	0	0.009	628.581	6	66	Feedback	MissedWin	True
631.026	2.776	Win2	0.6567000000000001	n/a	No	2.776	n/a	n/a	NoResponse	0	0.0	n/a	6	66	ISIslide	MissedWin	True
633.818	0.25	Control	0.6470999999999999	0.0	No	2.732	0.018	n/a	NoResponse	0	n/a	n/a	6	67	Cue	Neutral	True
634.068	3.95	Control	0.6470999999999999	0.0	No	2.732	0.0	n/a	NoResponse	0	n/a	n/a	6	67	Fixation	Neutral	True
638.014	0.15	Control	0.6470999999999999	0.004	No	2.732	-0.004	4.0	NoResponse	0	0.164	637.178	6	67	Target	Neutral	True
638.164	0.55	Control	0.6470999999999999	n/a	No	2.732	n/a	n/a	NoResponse	0	n/a	n/a	6	67	Blank	Neutral	True
638.178	0.3	Control	0.6470999999999999	0.004	No	2.732	-0.004	4.0	NoResponse	0	0.164	n/a	6	67	ButtonPress	Neutral	True
638.716	1.45	Control	0.6470999999999999	n/a	No	2.732	n/a	5.0	NoResponse	0	0.035	637.751	6	67	Feedback	Neutral	True
640.17	2.732	Control	0.6470999999999999	n/a	No	2.732	n/a	n/a	NoResponse	0	0.0	n/a	6	67	ISIslide	Neutral	True
642.928	0.25	Win2	0.6522	0.0	Yes	3.072	0.028	n/a	GoodResponse	1	n/a	n/a	7	68	Cue	Win	True
643.179	4.0	Win2	0.6522	0.0	Yes	3.072	0.001	n/a	GoodResponse	1	n/a	n/a	7	68	Fixation	Win	True
647.174	0.16	Win2	0.6522	0.004	Yes	3.072	-0.004	4.0	GoodResponse	1	0.111	646.285	7	68	Target	Win	True
647.285	0.3	Win2	0.6522	0.004	Yes	3.072	-0.004	4.0	GoodResponse	1	0.111	n/a	7	68	ButtonPress	Win	True
647.341	0.54	Win2	0.6522	n/a	Yes	3.072	n/a	n/a	GoodResponse	1	n/a	n/a	7	68	Blank	Win	True
647.876	1.45	Win2	0.6522	n/a	Yes	3.072	n/a	5.0	GoodResponse	1	0.046	646.922	7	68	Feedback	Win	True
649.331	3.072	Win2	0.6522	n/a	Yes	3.072	n/a	n/a	GoodResponse	1	0.0	n/a	7	68	ISIslide	Win	True
652.423	0.25	Win2	0.6429	0.0	No	3.227	0.023	n/a	NoResponse	0	n/a	n/a	7	69	Cue	MissedWin	True
652.674	3.95	Win2	0.6429	0.0	No	3.227	0.001	n/a	NoResponse	0	n/a	n/a	7	69	Fixation	MissedWin	True
656.619	0.17	Win2	0.6429	0.004	No	3.227	-0.004	4.0	NoResponse	0	0.275	655.894	7	69	Target	MissedWin	True
656.803	0.53	Win2	0.6429	n/a	No	3.227	n/a	n/a	NoResponse	0	n/a	n/a	7	69	Blank	MissedWin	True
656.894	0.3	Win2	0.6429	0.004	No	3.227	-0.004	4.0	NoResponse	0	0.275	n/a	7	69	ButtonPress	MissedWin	True
657.321	1.45	Win2	0.6429	n/a	No	3.227	n/a	5.0	NoResponse	0	0.016	656.337	7	69	Feedback	MissedWin	True
658.776	3.227	Win2	0.6429	n/a	No	3.227	n/a	n/a	NoResponse	0	0.0	n/a	7	69	ISIslide	MissedWin	True
662.019	0.25	Lose2	0.6338	0.0	No	3.031	0.019	n/a	NoResponse	-1	n/a	n/a	6	70	Cue	Loss	True
662.27	4.05	Lose2	0.6338	0.0	No	3.031	0.001	n/a	NoResponse	-1	n/a	n/a	6	70	Fixation	Loss	True
666.315	0.18	Lose2	0.6338	0.004	No	3.031	-0.004	4.0	NoResponse	-1	0.197	665.512	6	70	Target	Loss	True
666.499	0.52	Lose2	0.6338	n/a	No	3.031	n/a	n/a	NoResponse	-1	n/a	n/a	6	70	Blank	Loss	True
666.512	0.3	Lose2	0.6338	0.004	No	3.031	-0.004	4.0	NoResponse	-1	0.197	n/a	6	70	ButtonPress	Loss	True
667.017	1.45	Lose2	0.6338	n/a	No	3.031	n/a	5.0	NoResponse	-1	0.027	666.044	6	70	Feedback	Loss	True
668.471	3.031	Lose2	0.6338	n/a	No	3.031	n/a	n/a	NoResponse	-1	0.0	n/a	6	70	ISIslide	Loss	True
671.514	0.25	Win2	0.625	0.0	No	2.736	0.014	n/a	NoResponse	0	n/a	n/a	6	71	Cue	MissedWin	False
671.765	4.05	Win2	0.625	0.0	No	2.736	0.001	4.0	NoResponse	0	3.375	674.14	6	71	Fixation	MissedWin	False
675.14	0.3	Win2	0.625	0.0	No	2.736	0.001	4.0	NoResponse	0	3.375	n/a	6	71	ButtonPress	MissedWin	False
675.81	0.19	Win2	0.625	0.004	No	2.736	-0.004	4.0	NoResponse	0	0.208	675.018	6	71	Target	MissedWin	False
676.011	0.51	Win2	0.625	n/a	No	2.736	n/a	n/a	NoResponse	0	n/a	n/a	6	71	Blank	MissedWin	False
676.018	0.3	Win2	0.625	0.004	No	2.736	-0.004	4.0	NoResponse	0	0.208	n/a	6	71	ButtonPress	MissedWin	False
676.512	1.45	Win2	0.625	n/a	No	2.736	n/a	5.0	NoResponse	0	0.044	675.556	6	71	Feedback	MissedWin	False
677.967	2.736	Win2	0.625	n/a	No	2.736	n/a	n/a	NoResponse	0	0.0	n/a	6	71	ISIslide	MissedWin	False
680.725	0.25	Win2	0.6164000000000001	0.0	No	2.775	0.025	n/a	NoResponse	0	n/a	n/a	6	72	Cue	MissedWin	False
680.976	4.1	Win2	0.6164000000000001	0.0	No	2.775	0.001	n/a	NoResponse	0	n/a	n/a	6	72	Fixation	MissedWin	False
685.071	0.2	Win2	0.6164000000000001	0.004	No	2.775	-0.004	n/a	NoResponse	0	n/a	n/a	6	72	Target	MissedWin	False
685.272	0.5	Win2	0.6164000000000001	n/a	No	2.775	n/a	n/a	NoResponse	0	n/a	n/a	6	72	Blank	MissedWin	False
685.773	1.45	Win2	0.6164000000000001	n/a	No	2.775	n/a	5.0	NoResponse	0	0.004	684.777	6	72	Feedback	MissedWin	False
687.228	2.775	Win2	0.6164000000000001	n/a	No	2.775	n/a	n/a	NoResponse	0	0.0	n/a	6	72	ISIslide	MissedWin	False
690.019	0.25	Win2	0.6081	0.0	No	2.681	0.019	n/a	NoResponse	0	n/a	n/a	6	73	Cue	MissedWin	True
690.27	4.0	Win2	0.6081	0.0	No	2.681	0.001	n/a	NoResponse	0	n/a	n/a	6	73	Fixation	MissedWin	True
694.265	0.21	Win2	0.6081	0.004	No	2.681	-0.004	4.0	NoResponse	0	0.23	693.495	6	73	Target	MissedWin	True
694.483	0.49	Win2	0.6081	n/a	No	2.681	n/a	n/a	NoResponse	0	n/a	n/a	6	73	Blank	MissedWin	True
694.495	0.3	Win2	0.6081	0.004	No	2.681	-0.004	4.0	NoResponse	0	0.23	n/a	6	73	ButtonPress	MissedWin	True
694.968	1.45	Win2	0.6081	n/a	No	2.681	n/a	5.0	NoResponse	0	0.026	693.994	6	73	Feedback	MissedWin	True
696.422	2.681	Win2	0.6081	n/a	No	2.681	n/a	n/a	NoResponse	0	0.0	n/a	6	73	ISIslide	MissedWin	True
699.113	0.25	Lose2	0.6133	0.0	Yes	2.637	0.013	n/a	GoodResponse	0	n/a	n/a	6	74	Cue	AvoidedLoss	True
699.364	4.05	Lose2	0.6133	0.0	Yes	2.637	0.001	n/a	GoodResponse	0	n/a	n/a	6	74	Fixation	AvoidedLoss	True
703.409	0.22	Lose2	0.6133	0.004	Yes	2.637	-0.004	4.0	GoodResponse	0	0.219	702.628	6	74	Target	AvoidedLoss	True
703.628	0.3	Lose2	0.6133	0.004	Yes	2.637	-0.004	4.0	GoodResponse	0	0.219	n/a	6	74	ButtonPress	AvoidedLoss	True
703.644	0.48	Lose2	0.6133	n/a	Yes	2.637	n/a	n/a	GoodResponse	0	n/a	n/a	6	74	Blank	AvoidedLoss	True
704.112	1.45	Lose2	0.6133	n/a	Yes	2.637	n/a	5.0	GoodResponse	0	0.004	703.116	6	74	Feedback	AvoidedLoss	True
705.566	2.637	Lose2	0.6133	n/a	Yes	2.637	n/a	n/a	GoodResponse	0	0.0	n/a	6	74	ISIslide	AvoidedLoss	True
708.224	0.25	Lose2	0.6184000000000001	0.0	Yes	2.926	0.024	n/a	GoodResponse	0	n/a	n/a	6	75	Cue	AvoidedLoss	True
708.475	3.95	Lose2	0.6184000000000001	0.0	Yes	2.926	0.001	n/a	GoodResponse	0	n/a	n/a	6	75	Fixation	AvoidedLoss	True
712.42	0.23	Lose2	0.6184000000000001	0.004	Yes	2.926	-0.004	4.0	GoodResponse	0	0.224	711.644	6	75	Target	AvoidedLoss	True
712.644	0.3	Lose2	0.6184000000000001	0.004	Yes	2.926	-0.004	4.0	GoodResponse	0	0.224	n/a	6	75	ButtonPress	AvoidedLoss	True
712.654	0.47	Lose2	0.6184000000000001	n/a	Yes	2.926	n/a	n/a	GoodResponse	0	n/a	n/a	6	75	Blank	AvoidedLoss	True
713.122	1.45	Lose2	0.6184000000000001	n/a	Yes	2.926	n/a	5.0	GoodResponse	0	0.019	712.141	6	75	Feedback	AvoidedLoss	True
714.576	2.926	Lose2	0.6184000000000001	n/a	Yes	2.926	n/a	n/a	GoodResponse	0	0.0	n/a	6	75	ISIslide	AvoidedLoss	True
717.518	0.25	Control	0.6234000000000001	0.001	Yes	3.232	0.018	n/a	GoodResponse	0	n/a	n/a	6	76	Cue	Neutral	True
717.769	4.05	Control	0.6234000000000001	0.0	Yes	3.232	0.001	n/a	GoodResponse	0	n/a	n/a	6	76	Fixation	Neutral	True
721.815	0.24	Control	0.6234000000000001	0.003	Yes	3.232	-0.003	4.0	GoodResponse	0	0.215	721.03	6	76	Target	Neutral	True
722.03	0.3	Control	0.6234000000000001	0.003	Yes	3.232	-0.003	4.0	GoodResponse	0	0.215	n/a	6	76	ButtonPress	Neutral	True
722.065	0.46	Control	0.6234000000000001	n/a	Yes	3.232	n/a	n/a	GoodResponse	0	n/a	n/a	6	76	Blank	Neutral	True
722.517	1.45	Control	0.6234000000000001	n/a	Yes	3.232	n/a	5.0	GoodResponse	0	0.039	721.556	6	76	Feedback	Neutral	True
723.971	3.232	Control	0.6234000000000001	n/a	Yes	3.232	n/a	n/a	GoodResponse	0	0.0	n/a	6	76	ISIslide	Neutral	True
727.214	0.25	Lose2	0.6154	0.0	No	2.586	0.014	n/a	LatePress	-1	n/a	n/a	5	77	Cue	Loss	True
727.465	3.95	Lose2	0.6154	0.0	No	2.586	0.001	n/a	LatePress	-1	n/a	n/a	5	77	Fixation	Loss	True
731.41	0.25	Lose2	0.6154	0.004	No	2.586	-0.004	4.0	LatePress	-1	0.253	730.663	5	77	Target	Loss	True
731.661	0.45	Lose2	0.6154	n/a	No	2.586	n/a	n/a	LatePress	-1	n/a	n/a	5	77	Blank	Loss	True
731.663	0.3	Lose2	0.6154	0.004	No	2.586	-0.004	4.0	LatePress	-1	0.253	n/a	5	77	ButtonPress	Loss	True
732.112	1.45	Lose2	0.6154	n/a	No	2.586	n/a	5.0	LatePress	-1	0.005	731.117	5	77	Feedback	Loss	True
733.567	2.586	Lose2	0.6154	n/a	No	2.586	n/a	n/a	LatePress	-1	0.0	n/a	5	77	ISIslide	Loss	True
