onset	duration	cue_type	current_mean_accuracy	duration_error	is_hit	isi_adjusted	onset_delay	response	response_type	reward	rt	rt_time	total_reward	trial_number	trial_phase	trial_type	one_press
11.103	0.25	Control	1.0	0.0	Yes	2.947	0.003	n/a	GoodResponse	0	n/a	n/a	0	0	Cue	Neutral	False
11.353	3.85	Control	1.0	0.0	Yes	2.947	0.0	n/a	GoodResponse	0	n/a	n/a	0	0	Fixation	Neutral	False
15.201	0.4	Control	1.0	0.002	Yes	2.947	-0.002	4.0	GoodResponse	0	0.212	14.413	0	0	Target	Neutral	False
15.413	0.3	Control	1.0	0.002	Yes	2.947	-0.002	4.0	GoodResponse	0	0.212	n/a	0	0	ButtonPress	Neutral	False
15.601	0.3	Control	1.0	n/a	Yes	2.947	n/a	n/a	GoodResponse	0	n/a	n/a	0	0	Blank	Neutral	False
15.901	1.45	Control	1.0	n/a	Yes	2.947	n/a	5	GoodResponse	0	0.025	14.926	0	0	Feedback	Neutral	False
15.926	0.3	Control	1.0	n/a	Yes	2.947	n/a	5	GoodResponse	0	0.025	n/a	0	0	ButtonPress	Neutral	False
17.351	2.947	Control	1.0	n/a	Yes	2.947	n/a	n/a	GoodResponse	0	0.0	n/a	0	0	ISIslide	Neutral	False
20.333	0.25	Lose2	1.0	0.0	Yes	2.767	0.033	n/a	GoodResponse	0	n/a	n/a	0	1	Cue	AvoidedLoss	False
20.583	4.0	Lose2	1.0	0.0	Yes	2.767	0.0	n/a	GoodResponse	0	n/a	n/a	0	1	Fixation	AvoidedLoss	False
24.581	0.39	Lose2	1.0	0.002	Yes	2.767	-0.002	4.0	GoodResponse	0	0.229	23.81	0	1	Target	AvoidedLoss	False
24.81	0.3	Lose2	1.0	0.002	Yes	2.767	-0.002	4.0	GoodResponse	0	0.229	n/a	0	1	ButtonPress	AvoidedLoss	False
24.981	0.31	Lose2	1.0	n/a	Yes	2.767	n/a	n/a	GoodResponse	0	n/a	n/a	0	1	Blank	AvoidedLoss	False
25.281	1.45	Lose2	1.0	n/a	Yes	2.767	n/a	5	GoodResponse	0	0.01	24.291	0	1	Feedback	AvoidedLoss	False
25.291	0.3	Lose2	1.0	n/a	Yes	2.767	n/a	5	GoodResponse	0	0.01	n/a	0	1	ButtonPress	AvoidedLoss	False
26.731	2.767	Lose2	1.0	n/a	Yes	2.767	n/a	n/a	GoodResponse	0	0.0	n/a	0	1	ISIslide	AvoidedLoss	False
29.513	0.25	Control	1.0	0.0	Yes	2.587	0.013	n/a	GoodResponse	0	n/a	n/a	0	2	Cue	Neutral	False
29.763	4.1	Control	1.0	0.0	Yes	2.587	0.0	n/a	GoodResponse	0	n/a	n/a	0	2	Fixation	Neutral	False
33.861	0.38	Control	1.0	0.002	Yes	2.587	-0.002	4.0	GoodResponse	0	0.248	33.109	0	2	Target	Neutral	False
34.109	0.3	Control	1.0	0.002	Yes	2.587	-0.002	4.0	GoodResponse	0	0.248	n/a	0	2	ButtonPress	Neutral	False
34.245	0.32	Control	1.0	n/a	Yes	2.587	n/a	n/a	GoodResponse	0	n/a	n/a	0	2	Blank	Neutral	False
34.561	1.45	Control	1.0	n/a	Yes	2.587	n/a	5	GoodResponse	0	0.047	33.608	0	2	Feedback	Neutral	False
34.608	0.3	Control	1.0	n/a	Yes	2.587	n/a	5	GoodResponse	0	0.047	n/a	0	2	ButtonPress	Neutral	False
36.011	2.587	Control	1.0	n/a	Yes	2.587	n/a	n/a	GoodResponse	0	0.0	n/a	0	2	ISIslide	Neutral	False
38.626	0.25	Win2	1.0	0.0	Yes	2.824	0.026	n/a	GoodResponse	1	n/a	n/a	1	3	Cue	Win	False
38.876	3.95	Win2	1.0	0.0	Yes	2.824	0.0	n/a	GoodResponse	1	n/a	n/a	1	3	Fixation	Win	False
42.825	0.37	Win2	1.0	0.001	Yes	2.824	-0.001	4.0	GoodResponse	1	0.296	42.121	1	3	Target	Win	False
43.121	0.3	Win2	1.0	0.001	Yes	2.824	-0.001	4.0	GoodResponse	1	0.296	n/a	1	3	ButtonPress	Win	False
43.191	0.33	Win2	1.0	n/a	Yes	2.824	n/a	n/a	GoodResponse	1	n/a	n/a	1	3	Blank	Win	False
43.525	1.45	Win2	1.0	n/a	Yes	2.824	n/a	5	GoodResponse	1	0.01	42.535	1	3	Feedback	Win	False
43.535	0.3	Win2	1.0	n/a	Yes	2.824	n/a	5	GoodResponse	1	0.01	n/a	1	3	ButtonPress	Win	False
44.974	2.824	Win2	1.0	n/a	Yes	2.824	n/a	n/a	GoodResponse	1	0.0	n/a	1	3	ISIslide	Win	False
47.823	0.25	Win2	1.0	0.0	Yes	3.277	0.023	n/a	GoodResponse	1	n/a	n/a	2	4	Cue	Win	False
48.073	4.0	Win2	1.0	0.0	Yes	3.277	0.0	n/a	GoodResponse	1	n/a	n/a	2	4	Fixation	Win	False
52.072	0.36	Win2	1.0	0.001	Yes	3.277	-0.001	4.0	GoodResponse	1	0.235	51.307	2	4	Target	Win	False
52.307	0.3	Win2	1.0	0.001	Yes	3.277	-0.001	4.0	GoodResponse	1	0.235	n/a	2	4	ButtonPress	Win	False
52.438	0.34	Win2	1.0	n/a	Yes	3.277	n/a	n/a	GoodResponse	1	n/a	n/a	2	4	Blank	Win	False
52.771	1.45	Win2	1.0	n/a	Yes	3.277	n/a	5	GoodResponse	1	0.033	51.804	2	4	Feedback	Win	False
52.804	0.3	Win2	1.0	n/a	Yes	3.277	n/a	5	GoodResponse	1	0.033	n/a	2	4	ButtonPress	Win	False
54.221	3.277	Win2	1.0	n/a	Yes	3.277	n/a	n/a	GoodResponse	1	0.0	n/a	2	4	ISIslide	Win	False
57.52	0.25	Win2	1.0	0.0	Yes	2.78	0.02	n/a	GoodResponse	1	n/a	n/a	3	5	Cue	Win	False
57.77	4.0	Win2	1.0	0.0	Yes	2.78	0.0	n/a	GoodResponse	1	n/a	n/a	3	5	Fixation	Win	False
61.768	0.35	Win2	1.0	0.002	Yes	2.78	-0.002	4.0	GoodResponse	1	0.27	61.038	3	5	Target	Win	False
62.038	0.3	Win2	1.0	0.002	Yes	2.78	-0.002	4.0	GoodResponse	1	0.27	n/a	3	5	ButtonPress	Win	False
62.118	0.35	Win2	1.0	n/a	Yes	2.78	n/a	n/a	GoodResponse	1	n/a	n/a	3	5	Blank	Win	False
62.468	1.45	Win2	1.0	n/a	Yes	2.78	n/a	5	GoodResponse	1	0.042	61.51	3	5	Feedback	Win	False
62.51	0.3	Win2	1.0	n/a	Yes	2.78	n/a	5	GoodResponse	1	0.042	n/a	3	5	ButtonPress	Win	False
63.917	2.78	Win2	1.0	n/a	Yes	2.78	n/a	n/a	GoodResponse	1	0.0	n/a	3	5	ISIslide	Win	False
66.716	0.25	Lose2	1.0	0.0	Yes	2.734	0.016	n/a	GoodResponse	0	n/a	n/a	3	6	Cue	AvoidedLoss	False
66.966	3.95	Lose2	1.0	0.0	Yes	2.734	0.0	n/a	GoodResponse	0	n/a	n/a	3	6	Fixation	AvoidedLoss	False
70.915	0.34	Lose2	1.0	0.001	Yes	2.734	-0.001	4.0	GoodResponse	0	0.273	70.188	3	6	Target	AvoidedLoss	False
71.188	0.3	Lose2	1.0	0.001	Yes	2.734	-0.001	4.0	GoodResponse	0	0.273	n/a	3	6	ButtonPress	AvoidedLoss	False
71.265	0.36	Lose2	1.0	n/a	Yes	2.734	n/a	n/a	GoodResponse	0	n/a	n/a	3	6	Blank	AvoidedLoss	False
71.615	1.45	Lose2	1.0	n/a	Yes	2.734	n/a	5	GoodResponse	0	0.017	70.632	3	6	Feedback	AvoidedLoss	False
71.632	0.3	Lose2	1.0	n/a	Yes	2.734	n/a	5	GoodResponse	0	0.017	n/a	3	6	ButtonPress	AvoidedLoss	False
73.064	2.734	Lose2	1.0	n/a	Yes	2.734	n/a	n/a	GoodResponse	0	0.0	n/a	3	6	ISIslide	AvoidedLoss	False
75.83	0.25	Lose2	0.875	0.0	No	4.02	0.03	n/a	NoResponse	-1	n/a	n/a	2	7	Cue	Loss	True
76.08	4.05	Lose2	0.875	0.0	No	4.02	0.0	n/a	NoResponse	-1	n/a	n/a	2	7	Fixation	Loss	True
80.128	0.33	Lose2	0.875	0.002	No	4.02	-0.002	n/a	NoResponse	-1	n/a	n/a	2	7	Target	Loss	True
80.462	0.37	Lose2	0.875	n/a	No	4.02	n/a	n/a	NoResponse	-1	n/a	n/a	2	7	Blank	Loss	True
80.828	1.45	Lose2	0.875	n/a	No	4.02	n/a	5	NoResponse	-1	0.024	79.852	2	7	Feedback	Loss	True
80.852	0.3	Lose2	0.875	n/a	No	4.02	n/a	5	NoResponse	-1	0.024	n/a	2	7	ButtonPress	Loss	True
82.278	4.02	Lose2	0.875	n/a	No	4.02	n/a	n/a	NoResponse	-1	0.0	n/a	2	7	ISIslide	Loss	True
86.326	0.25	Lose2	0.7778	0.0	No	3.024	0.026	n/a	NoResponse	-1	n/a	n/a	1	8	Cue	Loss	True
86.576	3.95	Lose2	0.7778	0.0	No	3.024	0.0	n/a	NoResponse	-1	n/a	n/a	1	8	Fixation	Loss	True
90.525	0.32	Lose2	0.7778	0.001	No	3.024	-0.001	n/a	NoResponse	-1	n/a	n/a	1	8	Target	Loss	True
90.858	0.38	Lose2	0.7778	n/a	No	3.024	n/a	n/a	NoResponse	-1	n/a	n/a	1	8	Blank	Loss	True
91.224	1.45	Lose2	0.7778	n/a	No	3.024	n/a	5	NoResponse	-1	0.018	90.242	1	8	Feedback	Loss	True
91.242	0.3	Lose2	0.7778	n/a	No	3.024	n/a	5	NoResponse	-1	0.018	n/a	1	8	ButtonPress	Loss	True
92.674	3.024	Lose2	0.7778	n/a	No	3.024	n/a	n/a	NoResponse	-1	0.0	n/a	1	8	ISIslide	Loss	True
95.723	0.25	Lose2	0.7	0.0	No	3.127	0.023	n/a	NoResponse	-1	n/a	n/a	0	9	Cue	Loss	True
95.973	3.95	Lose2	0.7	0.0	No	3.127	0.0	n/a	NoResponse	-1	n/a	n/a	0	9	Fixation	Loss	True
99.921	0.31	Lose2	0.7	0.002	No	3.127	-0.002	n/a	NoResponse	-1	n/a	n/a	0	9	Target	Loss	True
100.238	0.39	Lose2	0.7	n/a	No	3.127	n/a	n/a	NoResponse	-1	n/a	n/a	0	9	Blank	Loss	True
100.621	1.45	Lose2	0.7	n/a	No	3.127	n/a	5	NoResponse	-1	0.035	99.656	0	9	Feedback	Loss	True
100.656	0.3	Lose2	0.7	n/a	No	3.127	n/a	5	NoResponse	-1	0.035	n/a	0	9	ButtonPress	Loss	True
102.071	3.127	Lose2	0.7	n/a	No	3.127	n/a	n/a	NoResponse	-1	0.0	n/a	0	9	ISIslide	Loss	True
105.219	0.25	Control	0.6364	0.0	No	3.281	0.019	n/a	NoResponse	0	n/a	n/a	0	10	Cue	Neutral	True
105.469	4.0	Control	0.6364	0.0	No	3.281	0.0	n/a	NoResponse	0	n/a	n/a	0	10	Fixation	Neutral	True
109.468	0.3	Control	0.6364	0.001	No	3.281	-0.001	n/a	NoResponse	0	n/a	n/a	0	10	Target	Neutral	True
109.768	0.4	Control	0.6364	n/a	No	3.281	n/a	n/a	NoResponse	0	n/a	n/a	0	10	Blank	Neutral	True
110.168	1.45	Control	0.6364	n/a	No	3.281	n/a	5	NoResponse	0	0.0	109.168	0	10	Feedback	Neutral	True
110.168	0.3	Control	0.6364	n/a	No	3.281	n/a	5	NoResponse	0	0.0	n/a	0	10	ButtonPress	Neutral	True
111.617	3.281	Control	0.6364	n/a	No	3.281	n/a	n/a	NoResponse	0	0.0	n/a	0	10	ISIslide	Neutral	True
114.916	0.25	Lose2	0.5832999999999999	0.0	No	2.734	0.016	n/a	NoResponse	-1	n/a	n/a	-1	11	Cue	Loss	False
115.166	4.05	Lose2	0.5832999999999999	0.0	No	2.734	0.0	4.0	NoResponse	-1	1.919	116.085	-1	11	Fixation	Loss	False
117.085	0.3	Lose2	0.5832999999999999	0.0	No	2.734	0.0	4.0	NoResponse	-1	1.919	n/a	-1	11	ButtonPress	Loss	False
119.214	0.31	Lose2	0.5832999999999999	0.002	No	2.734	-0.002	n/a	NoResponse	-1	n/a	n/a	-1	11	Target	Loss	False
119.531	0.39	Lose2	0.5832999999999999	n/a	No	2.734	n/a	n/a	NoResponse	-1	n/a	n/a	-1	11	Blank	Loss	False
119.914	1.45	Lose2	0.5832999999999999	n/a	No	2.734	n/a	5	NoResponse	-1	0.011	118.925	-1	11	Feedback	Loss	False
119.925	0.3	Lose2	0.5832999999999999	n/a	No	2.734	n/a	5	NoResponse	-1	0.011	n/a	-1	11	ButtonPress	Loss	False
121.364	2.734	Lose2	0.5832999999999999	n/a	No	2.734	n/a	n/a	NoResponse	-1	0.0	n/a	-1	11	ISIslide	Loss	False
124.129	0.25	Control	0.5385	0.0	No	2.971	0.029	n/a	NoResponse	0	n/a	n/a	-1	12	Cue	Neutral	False
124.379	3.9	Control	0.5385	0.0	No	2.971	0.0	4.0	NoResponse	0	0.355	123.734	-1	12	Fixation	Neutral	False
124.734	0.3	Control	0.5385	0.0	No	2.971	0.0	4.0	NoResponse	0	0.355	n/a	-1	12	ButtonPress	Neutral	False
128.278	0.32	Control	0.5385	0.001	No	2.971	-0.001	n/a	NoResponse	0	n/a	n/a	-1	12	Target	Neutral	False
128.594	0.38	Control	0.5385	n/a	No	2.971	n/a	n/a	NoResponse	0	n/a	n/a	-1	12	Blank	Neutral	False
128.978	1.45	Control	0.5385	n/a	No	2.971	n/a	5	NoResponse	0	0.02	127.998	-1	12	Feedback	Neutral	False
128.998	0.3	Control	0.5385	n/a	No	2.971	n/a	5	NoResponse	0	0.02	n/a	-1	12	ButtonPress	Neutral	False
130.427	2.971	Control	0.5385	n/a	No	2.971	n/a	n/a	NoResponse	0	0.0	n/a	-1	12	ISIslide	Neutral	False
133.426	0.25	Control	0.5	0.0	No	2.774	0.026	n/a	NoResponse	0	n/a	n/a	-1	13	Cue	Neutral	True
133.676	4.0	Control	0.5	0.0	No	2.774	0.0	n/a	NoResponse	0	n/a	n/a	-1	13	Fixation	Neutral	True
137.675	0.33	Control	0.5	0.001	No	2.774	-0.001	n/a	NoResponse	0	n/a	n/a	-1	13	Target	Neutral	True
138.008	0.37	Control	0.5	n/a	No	2.774	n/a	n/a	NoResponse	0	n/a	n/a	-1	13	Blank	Neutral	True
138.374	1.45	Control	0.5	n/a	No	2.774	n/a	5	NoResponse	0	0.038	137.412	-1	13	Feedback	Neutral	True
138.412	0.3	Control	0.5	n/a	No	2.774	n/a	5	NoResponse	0	0.038	n/a	-1	13	ButtonPress	Neutral	True
139.824	2.774	Control	0.5	n/a	No	2.774	n/a	n/a	NoResponse	0	0.0	n/a	-1	13	ISIslide	Neutral	True
142.623	0.25	Win2	0.4667	0.0	No	2.677	0.023	n/a	NoResponse	0	n/a	n/a	-1	14	Cue	MissedWin	True
142.873	4.1	Win2	0.4667	0.0	No	2.677	0.0	n/a	NoResponse	0	n/a	n/a	-1	14	Fixation	MissedWin	True
146.971	0.34	Win2	0.4667	0.002	No	2.677	-0.002	n/a	NoResponse	0	n/a	n/a	-1	14	Target	MissedWin	True
147.321	0.36	Win2	0.4667	n/a	No	2.677	n/a	n/a	NoResponse	0	n/a	n/a	-1	14	Blank	MissedWin	True
147.671	1.45	Win2	0.4667	n/a	No	2.677	n/a	5	NoResponse	0	0.009	146.68	-1	14	Feedback	MissedWin	True
147.68	0.3	Win2	0.4667	n/a	No	2.677	n/a	5	NoResponse	0	0.009	n/a	-1	14	ButtonPress	MissedWin	True
149.12	2.677	Win2	0.4667	n/a	No	2.677	n/a	n/a	NoResponse	0	0.0	n/a	-1	14	ISIslide	MissedWin	True
151.819	0.25	Control	0.4375	0.001	No	2.981	0.019	n/a	NoResponse	0	n/a	n/a	-1	15	Cue	Neutral	True
152.069	4.0	Control	0.4375	0.0	No	2.981	0.0	n/a	NoResponse	0	n/a	n/a	-1	15	Fixation	Neutral	True
156.068	0.35	Control	0.4375	0.001	No	2.981	-0.001	n/a	NoResponse	0	n/a	n/a	-1	15	Target	Neutral	True
156.418	0.35	Control	0.4375	n/a	No	2.981	n/a	n/a	NoResponse	0	n/a	n/a	-1	15	Blank	Neutral	True
156.768	1.45	Control	0.4375	n/a	No	2.981	n/a	5	NoResponse	0	0.034	155.802	-1	15	Feedback	Neutral	True
156.802	0.3	Control	0.4375	n/a	No	2.981	n/a	5	NoResponse	0	0.034	n/a	-1	15	ButtonPress	Neutral	True
158.217	2.981	Control	0.4375	n/a	No	2.981	n/a	n/a	NoResponse	0	0.0	n/a	-1	15	ISIslide	Neutral	True
161.216	0.25	Win2	0.4118	0.0	No	2.884	0.016	n/a	NoResponse	0	n/a	n/a	-1	16	Cue	MissedWin	True
161.466	4.0	Win2	0.4118	0.0	No	2.884	0.0	n/a	NoResponse	0	n/a	n/a	-1	16	Fixation	MissedWin	True
165.465	0.36	Win2	0.4118	0.001	No	2.884	-0.001	n/a	NoResponse	0	n/a	n/a	-1	16	Target	MissedWin	True
165.831	0.34	Win2	0.4118	n/a	No	2.884	n/a	n/a	NoResponse	0	n/a	n/a	-1	16	Blank	MissedWin	True
166.164	1.45	Win2	0.4118	n/a	No	2.884	n/a	5	NoResponse	0	0.007	165.171	-1	16	Feedback	MissedWin	True
166.171	0.3	Win2	0.4118	n/a	No	2.884	n/a	5	NoResponse	0	0.007	n/a	-1	16	ButtonPress	MissedWin	True
167.614	2.884	Win2	0.4118	n/a	No	2.884	n/a	n/a	NoResponse	0	0.0	n/a	-1	16	ISIslide	MissedWin	True
170.529	0.25	Lose2	0.3889	0.001	No	2.721	0.029	n/a	NoResponse	-1	n/a	n/a	-2	17	Cue	Loss	True
170.779	3.95	Lose2	0.3889	0.0	No	2.721	0.0	n/a	NoResponse	-1	n/a	n/a	-2	17	Fixation	Loss	True
174.728	0.37	Lose2	0.3889	0.001	No	2.721	-0.001	n/a	NoResponse	-1	n/a	n/a	-2	17	Target	Loss	True
175.095	0.33	Lose2	0.3889	n/a	No	2.721	n/a	n/a	NoResponse	-1	n/a	n/a	-2	17	Blank	Loss	True
175.428	1.45	Lose2	0.3889	n/a	No	2.721	n/a	5	NoResponse	-1	0.007	174.435	-2	17	Feedback	Loss	True
175.435	0.3	Lose2	0.3889	n/a	No	2.721	n/a	5	NoResponse	-1	0.007	n/a	-2	17	ButtonPress	Loss	True
176.877	2.721	Lose2	0.3889	n/a	No	2.721	n/a	n/a	NoResponse	-1	0.0	n/a	-2	17	ISIslide	Loss	True
179.626	0.25	Lose2	0.36840000000000006	0.0	No	2.724	0.026	n/a	NoResponse	-1	n/a	n/a	-3	18	Cue	Loss	True
179.876	4.05	Lose2	0.36840000000000006	0.0	No	2.724	0.0	n/a	NoResponse	-1	n/a	n/a	-3	18	Fixation	Loss	True
183.925	0.38	Lose2	0.36840000000000006	0.001	No	2.724	-0.001	n/a	NoResponse	-1	n/a	n/a	-3	18	Target	Loss	True
184.308	0.32	Lose2	0.36840000000000006	n/a	No	2.724	n/a	n/a	NoResponse	-1	n/a	n/a	-3	18	Blank	Loss	True
184.624	1.45	Lose2	0.36840000000000006	n/a	No	2.724	n/a	5	NoResponse	-1	0.031	183.655	-3	18	Feedback	Loss	True
184.655	0.3	Lose2	0.36840000000000006	n/a	No	2.724	n/a	5	NoResponse	-1	0.031	n/a	-3	18	ButtonPress	Loss	True
186.074	2.724	Lose2	0.36840000000000006	n/a	No	2.724	n/a	n/a	NoResponse	-1	0.0	n/a	-3	18	ISIslide	Loss	True
188.823	0.25	Control	0.4	0.0	Yes	2.927	0.023	n/a	GoodResponse	0	n/a	n/a	-3	19	Cue	Neutral	False
189.073	3.95	Control	0.4	0.0	Yes	2.927	0.0	n/a	GoodResponse	0	n/a	n/a	-3	19	Fixation	Neutral	False
193.021	0.39	Control	0.4	0.002	Yes	2.927	-0.002	4.0	GoodResponse	0	0.269	192.29	-3	19	Target	Neutral	False
193.29	0.3	Control	0.4	0.002	Yes	2.927	-0.002	4.0	GoodResponse	0	0.269	n/a	-3	19	ButtonPress	Neutral	False
193.421	0.31	Control	0.4	n/a	Yes	2.927	n/a	n/a	GoodResponse	0	n/a	n/a	-3	19	Blank	Neutral	False
193.721	1.45	Control	0.4	n/a	Yes	2.927	n/a	5	GoodResponse	0	0.007	192.728	-3	19	Feedback	Neutral	False
193.728	0.3	Control	0.4	n/a	Yes	2.927	n/a	5	GoodResponse	0	0.007	n/a	-3	19	ButtonPress	Neutral	False
195.171	2.927	Control	0.4	n/a	Yes	2.927	n/a	n/a	GoodResponse	0	0.0	n/a	-3	19	ISIslide	Neutral	False
198.12	0.25	Control	0.381	0.0	No	2.63	0.02	n/a	NoResponse	0	n/a	n/a	-3	20	Cue	Neutral	True
198.37	4.05	Control	0.381	0.0	No	2.63	0.0	n/a	NoResponse	0	n/a	n/a	-3	20	Fixation	Neutral	True
202.418	0.4	Control	0.381	0.002	No	2.63	-0.002	n/a	NoResponse	0	n/a	n/a	-3	20	Target	Neutral	True
202.818	0.3	Control	0.381	n/a	No	2.63	n/a	n/a	NoResponse	0	n/a	n/a	-3	20	Blank	Neutral	True
203.118	1.45	Control	0.381	n/a	No	2.63	n/a	5	NoResponse	0	0.025	202.143	-3	20	Feedback	Neutral	True
203.143	0.3	Control	0.381	n/a	No	2.63	n/a	5	NoResponse	0	0.025	n/a	-3	20	ButtonPress	Neutral	True
204.567	2.63	Control	0.381	n/a	No	2.63	n/a	n/a	NoResponse	0	0.0	n/a	-3	20	ISIslide	Neutral	True
207.216	0.25	Control	0.40909999999999996	0.001	Yes	2.784	0.016	n/a	GoodResponse	0	n/a	n/a	-3	21	Cue	Neutral	False
207.466	4.1	Control	0.40909999999999996	0.0	Yes	2.784	0.0	n/a	GoodResponse	0	n/a	n/a	-3	21	Fixation	Neutral	False
211.565	0.41	Control	0.40909999999999996	0.001	Yes	2.784	-0.001	4.0	GoodResponse	0	0.216	210.781	-3	21	Target	Neutral	False
211.781	0.3	Control	0.40909999999999996	0.001	Yes	2.784	-0.001	4.0	GoodResponse	0	0.216	n/a	-3	21	ButtonPress	Neutral	False
211.981	0.29	Control	0.40909999999999996	n/a	Yes	2.784	n/a	n/a	GoodResponse	0	n/a	n/a	-3	21	Blank	Neutral	False
212.265	1.45	Control	0.40909999999999996	n/a	Yes	2.784	n/a	5	GoodResponse	0	0.048	211.313	-3	21	Feedback	Neutral	False
212.313	0.3	Control	0.40909999999999996	n/a	Yes	2.784	n/a	5	GoodResponse	0	0.048	n/a	-3	21	ButtonPress	Neutral	False
213.714	2.784	Control	0.40909999999999996	n/a	Yes	2.784	n/a	4.0	GoodResponse	0	1.336	n/a	-3	21	ISIslide	Neutral	False
216.496	0.25	Control	0.39130000000000004	0.001	No	2.804	-0.004	n/a	NoResponse	0	n/a	n/a	-3	22	Cue	Neutral	True
216.746	4.0	Control	0.39130000000000004	0.0	No	2.804	0.0	n/a	NoResponse	0	n/a	n/a	-3	22	Fixation	Neutral	True
220.745	0.42	Control	0.39130000000000004	0.001	No	2.804	-0.001	n/a	NoResponse	0	n/a	n/a	-3	22	Target	Neutral	True
221.161	0.28	Control	0.39130000000000004	n/a	No	2.804	n/a	n/a	NoResponse	0	n/a	n/a	-3	22	Blank	Neutral	True
221.445	1.45	Control	0.39130000000000004	n/a	No	2.804	n/a	5	NoResponse	0	0.039	220.484	-3	22	Feedback	Neutral	True
221.484	0.3	Control	0.39130000000000004	n/a	No	2.804	n/a	5	NoResponse	0	0.039	n/a	-3	22	ButtonPress	Neutral	True
222.894	2.804	Control	0.39130000000000004	n/a	No	2.804	n/a	n/a	NoResponse	0	0.0	n/a	-3	22	ISIslide	Neutral	True
225.727	0.25	Control	0.375	0.0	No	2.773	0.027	n/a	NoResponse	0	n/a	n/a	-3	23	Cue	Neutral	False
225.976	3.9	Control	0.375	0.001	No	2.773	-0.001	4.0	NoResponse	0	1.347	226.323	-3	23	Fixation	Neutral	False
227.323	0.3	Control	0.375	0.001	No	2.773	-0.001	4.0	NoResponse	0	1.347	n/a	-3	23	ButtonPress	Neutral	False
229.875	0.43	Control	0.375	0.002	No	2.773	-0.002	n/a	NoResponse	0	n/a	n/a	-3	23	Target	Neutral	False
230.308	0.27	Control	0.375	n/a	No	2.773	n/a	n/a	NoResponse	0	n/a	n/a	-3	23	Blank	Neutral	False
230.575	1.45	Control	0.375	n/a	No	2.773	n/a	5	NoResponse	0	0.031	229.606	-3	23	Feedback	Neutral	False
230.606	0.3	Control	0.375	n/a	No	2.773	n/a	5	NoResponse	0	0.031	n/a	-3	23	ButtonPress	Neutral	False
232.024	2.773	Control	0.375	n/a	No	2.773	n/a	n/a	NoResponse	0	0.0	n/a	-3	23	ISIslide	Neutral	False
234.823	0.25	Win2	0.36	0.0	No	3.127	0.023	n/a	NoResponse	0	n/a	n/a	-3	24	Cue	MissedWin	True
235.073	3.95	Win2	0.36	0.0	No	3.127	0.0	n/a	NoResponse	0	n/a	n/a	-3	24	Fixation	MissedWin	True
239.022	0.44	Win2	0.36	0.001	No	3.127	-0.001	n/a	NoResponse	0	n/a	n/a	-3	24	Target	MissedWin	True
239.472	0.26	Win2	0.36	n/a	No	3.127	n/a	n/a	NoResponse	0	n/a	n/a	-3	24	Blank	MissedWin	True
239.722	1.45	Win2	0.36	n/a	No	3.127	n/a	5	NoResponse	0	0.006	238.728	-3	24	Feedback	MissedWin	True
239.728	0.3	Win2	0.36	n/a	No	3.127	n/a	5	NoResponse	0	0.006	n/a	-3	24	ButtonPress	MissedWin	True
241.171	3.127	Win2	0.36	n/a	No	3.127	n/a	n/a	NoResponse	0	0.0	n/a	-3	24	ISIslide	MissedWin	True
244.32	0.25	Win2	0.34619999999999995	0.0	No	3.08	0.02	n/a	NoResponse	0	n/a	n/a	-3	25	Cue	MissedWin	True
244.57	4.0	Win2	0.34619999999999995	0.0	No	3.08	0.0	n/a	NoResponse	0	n/a	n/a	-3	25	Fixation	MissedWin	True
248.568	0.45	Win2	0.34619999999999995	0.002	No	3.08	-0.002	n/a	NoResponse	0	n/a	n/a	-3	25	Target	MissedWin	True
249.018	0.25	Win2	0.34619999999999995	n/a	No	3.08	n/a	n/a	NoResponse	0	n/a	n/a	-3	25	Blank	MissedWin	True
249.268	1.45	Win2	0.34619999999999995	n/a	No	3.08	n/a	5	NoResponse	0	0.02	248.288	-3	25	Feedback	MissedWin	True
249.288	0.3	Win2	0.34619999999999995	n/a	No	3.08	n/a	5	NoResponse	0	0.02	n/a	-3	25	ButtonPress	MissedWin	True
250.718	3.08	Win2	0.34619999999999995	n/a	No	3.08	n/a	n/a	NoResponse	0	0.0	n/a	-3	25	ISIslide	MissedWin	True
253.817	0.25	Win2	0.3333	0.0	No	2.933	0.017	n/a	NoResponse	0	n/a	n/a	-3	26	Cue	MissedWin	False
254.066	3.95	Win2	0.3333	0.001	No	2.933	-0.001	n/a	NoResponse	0	n/a	n/a	-3	26	Fixation	MissedWin	False
258.015	0.46	Win2	0.3333	0.002	No	2.933	-0.002	4.0	NoResponse	0	0.613	257.628	-3	26	Target	MissedWin	False
258.482	0.24	Win2	0.3333	n/a	No	2.933	n/a	n/a	NoResponse	0	n/a	n/a	-3	26	Blank	MissedWin	False
258.628	0.3	Win2	0.3333	0.002	No	2.933	-0.002	4.0	NoResponse	0	0.613	n/a	-3	26	ButtonPress	MissedWin	False
258.715	1.45	Win2	0.3333	n/a	No	2.933	n/a	5	NoResponse	0	0.037	257.752	-3	26	Feedback	MissedWin	False
258.752	0.3	Win2	0.3333	n/a	No	2.933	n/a	5	NoResponse	0	0.037	n/a	-3	26	ButtonPress	MissedWin	False
260.164	2.933	Win2	0.3333	n/a	No	2.933	n/a	n/a	NoResponse	0	0.0	n/a	-3	26	ISIslide	MissedWin	False
263.113	0.25	Lose2	0.3214	0.0	No	2.837	0.013	n/a	NoResponse	-1	n/a	n/a	-4	27	Cue	Loss	True
263.363	4.05	Lose2	0.3214	0.0	No	2.837	0.0	n/a	NoResponse	-1	n/a	n/a	-4	27	Fixation	Loss	True
267.412	0.47	Lose2	0.3214	0.001	No	2.837	-0.001	n/a	NoResponse	-1	n/a	n/a	-4	27	Target	Loss	True
267.895	0.23	Lose2	0.3214	n/a	No	2.837	n/a	n/a	NoResponse	-1	n/a	n/a	-4	27	Blank	Loss	True
268.111	1.45	Lose2	0.3214	n/a	No	2.837	n/a	5	NoResponse	-1	0.007	267.118	-4	27	Feedback	Loss	True
268.118	0.3	Lose2	0.3214	n/a	No	2.837	n/a	5	NoResponse	-1	0.007	n/a	-4	27	ButtonPress	Loss	True
269.561	2.837	Lose2	0.3214	n/a	No	2.837	n/a	n/a	NoResponse	-1	0.0	n/a	-4	27	ISIslide	Loss	True
272.427	0.25	Control	0.3448	0.0	Yes	2.823	0.027	n/a	GoodResponse	0	n/a	n/a	-4	28	Cue	Neutral	False
272.676	4.05	Control	0.3448	0.001	Yes	2.823	-0.001	n/a	GoodResponse	0	n/a	n/a	-4	28	Fixation	Neutral	False
276.725	0.48	Control	0.3448	0.002	Yes	2.823	-0.002	4.0	GoodResponse	0	0.348	276.073	-4	28	Target	Neutral	False
277.073	0.3	Control	0.3448	0.002	Yes	2.823	-0.002	4.0	GoodResponse	0	0.348	n/a	-4	28	ButtonPress	Neutral	False
277.208	0.22	Control	0.3448	n/a	Yes	2.823	n/a	n/a	GoodResponse	0	n/a	n/a	-4	28	Blank	Neutral	False
277.425	1.45	Control	0.3448	n/a	Yes	2.823	n/a	5	GoodResponse	0	0.01	276.435	-4	28	Feedback	Neutral	False
277.435	0.3	Control	0.3448	n/a	Yes	2.823	n/a	5	GoodResponse	0	0.01	n/a	-4	28	ButtonPress	Neutral	False
278.874	2.823	Control	0.3448	n/a	Yes	2.823	n/a	n/a	GoodResponse	0	0.0	n/a	-4	28	ISIslide	Neutral	False
281.723	0.25	Lose2	0.3667	0.0	Yes	2.827	0.023	n/a	GoodResponse	0	n/a	n/a	-4	29	Cue	AvoidedLoss	False
281.973	3.95	Lose2	0.3667	0.0	Yes	2.827	0.0	n/a	GoodResponse	0	n/a	n/a	-4	29	Fixation	AvoidedLoss	False
285.922	0.49	Lose2	0.3667	0.001	Yes	2.827	-0.001	4.0	GoodResponse	0	0.23	285.152	-4	29	Target	AvoidedLoss	False
286.152	0.3	Lose2	0.3667	0.001	Yes	2.827	-0.001	4.0	GoodResponse	0	0.23	n/a	-4	29	ButtonPress	AvoidedLoss	False
286.422	0.21	Lose2	0.3667	n/a	Yes	2.827	n/a	n/a	GoodResponse	0	n/a	n/a	-4	29	Blank	AvoidedLoss	False
286.622	1.45	Lose2	0.3667	n/a	Yes	2.827	n/a	5	GoodResponse	0	0.031	285.653	-4	29	Feedback	AvoidedLoss	False
286.653	0.3	Lose2	0.3667	n/a	Yes	2.827	n/a	5	GoodResponse	0	0.031	n/a	-4	29	ButtonPress	AvoidedLoss	False
288.071	2.827	Lose2	0.3667	n/a	Yes	2.827	n/a	n/a	GoodResponse	0	0.0	n/a	-4	29	ISIslide	AvoidedLoss	False
290.92	0.25	Win2	0.35479999999999995	0.0	No	2.78	0.02	n/a	NoResponse	0	n/a	n/a	-4	30	Cue	MissedWin	True
291.17	3.9	Win2	0.35479999999999995	0.0	No	2.78	0.0	n/a	NoResponse	0	n/a	n/a	-4	30	Fixation	MissedWin	True
295.069	0.5	Win2	0.35479999999999995	0.001	No	2.78	-0.001	n/a	NoResponse	0	n/a	n/a	-4	30	Target	MissedWin	True
295.568	0.2	Win2	0.35479999999999995	n/a	No	2.78	n/a	n/a	NoResponse	0	n/a	n/a	-4	30	Blank	MissedWin	True
295.768	1.45	Win2	0.35479999999999995	n/a	No	2.78	n/a	5	NoResponse	0	0.007	294.775	-4	30	Feedback	MissedWin	True
295.775	0.3	Win2	0.35479999999999995	n/a	No	2.78	n/a	5	NoResponse	0	0.007	n/a	-4	30	ButtonPress	MissedWin	True
297.218	2.78	Win2	0.35479999999999995	n/a	No	2.78	n/a	n/a	NoResponse	0	0.0	n/a	-4	30	ISIslide	MissedWin	True
300.017	0.25	Lose2	0.34380000000000005	0.0	No	2.833	0.017	n/a	NoResponse	-1	n/a	n/a	-5	31	Cue	Loss	True
300.267	4.05	Lose2	0.34380000000000005	0.0	No	2.833	0.0	n/a	NoResponse	-1	n/a	n/a	-5	31	Fixation	Loss	True
304.315	0.5	Lose2	0.34380000000000005	0.002	No	2.833	-0.002	n/a	NoResponse	-1	n/a	n/a	-5	31	Target	Loss	True
304.815	0.2	Lose2	0.34380000000000005	n/a	No	2.833	n/a	n/a	NoResponse	-1	n/a	n/a	-5	31	Blank	Loss	True
305.015	1.45	Lose2	0.34380000000000005	n/a	No	2.833	n/a	5	NoResponse	-1	0.029	304.044	-5	31	Feedback	Loss	True
305.044	0.3	Lose2	0.34380000000000005	n/a	No	2.833	n/a	5	NoResponse	-1	0.029	n/a	-5	31	ButtonPress	Loss	True
306.464	2.833	Lose2	0.34380000000000005	n/a	No	2.833	n/a	4.0	NoResponse	-1	0.612	n/a	-5	31	ISIslide	Loss	True
309.297	0.25	Lose2	0.3333	0.0	No	2.653	-0.003	n/a	NoResponse	-1	n/a	n/a	-6	32	Cue	Loss	True
309.547	4.15	Lose2	0.3333	0.0	No	2.653	0.0	n/a	NoResponse	-1	n/a	n/a	-6	32	Fixation	Loss	True
313.695	0.5	Lose2	0.3333	0.002	No	2.653	-0.002	n/a	NoResponse	-1	n/a	n/a	-6	32	Target	Loss	True
314.195	0.2	Lose2	0.3333	n/a	No	2.653	n/a	n/a	NoResponse	-1	n/a	n/a	-6	32	Blank	Loss	True
314.395	1.45	Lose2	0.3333	n/a	No	2.653	n/a	5	NoResponse	-1	0.015	313.41	-6	32	Feedback	Loss	True
314.41	0.3	Lose2	0.3333	n/a	No	2.653	n/a	5	NoResponse	-1	0.015	n/a	-6	32	ButtonPress	Loss	True
315.844	2.653	Lose2	0.3333	n/a	No	2.653	n/a	n/a	NoResponse	-1	0.0	n/a	-6	32	ISIslide	Loss	True
318.527	0.25	Win2	0.3235	0.0	No	2.673	0.027	n/a	NoResponse	0	n/a	n/a	-6	33	Cue	MissedWin	True
318.777	4.0	Win2	0.3235	0.0	No	2.673	0.0	n/a	NoResponse	0	n/a	n/a	-6	33	Fixation	MissedWin	True
322.775	0.5	Win2	0.3235	0.002	No	2.673	-0.002	n/a	NoResponse	0	n/a	n/a	-6	33	Target	MissedWin	True
323.275	0.2	Win2	0.3235	n/a	No	2.673	n/a	n/a	NoResponse	0	n/a	n/a	-6	33	Blank	MissedWin	True
323.475	1.45	Win2	0.3235	n/a	No	2.673	n/a	5	NoResponse	0	0.007	322.482	-6	33	Feedback	MissedWin	True
323.482	0.3	Win2	0.3235	n/a	No	2.673	n/a	5	NoResponse	0	0.007	n/a	-6	33	ButtonPress	MissedWin	True
324.925	2.673	Win2	0.3235	n/a	No	2.673	n/a	n/a	NoResponse	0	0.0	n/a	-6	33	ISIslide	MissedWin	True
327.624	0.25	Lose2	0.3143	0.0	No	2.626	0.024	n/a	NoResponse	-1	n/a	n/a	-7	34	Cue	Loss	True
327.874	4.05	Lose2	0.3143	0.0	No	2.626	0.0	n/a	NoResponse	-1	n/a	n/a	-7	34	Fixation	Loss	True
331.922	0.5	Lose2	0.3143	0.002	No	2.626	-0.002	n/a	NoResponse	-1	n/a	n/a	-7	34	Target	Loss	True
332.422	0.2	Lose2	0.3143	n/a	No	2.626	n/a	n/a	NoResponse	-1	n/a	n/a	-7	34	Blank	Loss	True
332.622	1.45	Lose2	0.3143	n/a	No	2.626	n/a	5	NoResponse	-1	0.031	331.653	-7	34	Feedback	Loss	True
332.653	0.3	Lose2	0.3143	n/a	No	2.626	n/a	5	NoResponse	-1	0.031	n/a	-7	34	ButtonPress	Loss	True
334.071	2.626	Lose2	0.3143	n/a	No	2.626	n/a	n/a	NoResponse	-1	0.0	n/a	-7	34	ISIslide	Loss	True
336.72	0.25	Lose2	0.3056	0.0	No	2.68	0.02	n/a	NoResponse	-1	n/a	n/a	-8	35	Cue	Loss	True
336.97	4.0	Lose2	0.3056	0.0	No	2.68	0.0	n/a	NoResponse	-1	n/a	n/a	-8	35	Fixation	Loss	True
340.969	0.5	Lose2	0.3056	0.001	No	2.68	-0.001	n/a	NoResponse	-1	n/a	n/a	-8	35	Target	Loss	True
341.469	0.2	Lose2	0.3056	n/a	No	2.68	n/a	n/a	NoResponse	-1	n/a	n/a	-8	35	Blank	Loss	True
341.669	1.45	Lose2	0.3056	n/a	No	2.68	n/a	5	NoResponse	-1	0.009	340.678	-8	35	Feedback	Loss	True
341.678	0.3	Lose2	0.3056	n/a	No	2.68	n/a	5	NoResponse	-1	0.009	n/a	-8	35	ButtonPress	Loss	True
343.118	2.68	Lose2	0.3056	n/a	No	2.68	n/a	n/a	NoResponse	-1	0.0	n/a	-8	35	ISIslide	Loss	True
345.817	0.25	Control	0.2973	0.0	No	2.683	0.017	n/a	NoResponse	0	n/a	n/a	-8	36	Cue	Neutral	True
346.067	4.0	Control	0.2973	0.0	No	2.683	0.0	n/a	NoResponse	0	n/a	n/a	-8	36	Fixation	Neutral	True
350.066	0.5	Control	0.2973	0.001	No	2.683	-0.001	n/a	NoResponse	0	n/a	n/a	-8	36	Target	Neutral	True
350.565	0.2	Control	0.2973	n/a	No	2.683	n/a	n/a	NoResponse	0	n/a	n/a	-8	36	Blank	Neutral	True
350.765	1.45	Control	0.2973	n/a	No	2.683	n/a	5	NoResponse	0	0.035	349.8	-8	36	Feedback	Neutral	True
350.8	0.3	Control	0.2973	n/a	No	2.683	n/a	5	NoResponse	0	0.035	n/a	-8	36	ButtonPress	Neutral	True
352.215	2.683	Control	0.2973	n/a	No	2.683	n/a	n/a	NoResponse	0	0.0	n/a	-8	36	ISIslide	Neutral	True
354.914	0.25	Win2	0.2895	0.0	No	2.886	0.014	n/a	NoResponse	0	n/a	n/a	-8	37	Cue	MissedWin	True
355.164	4.0	Win2	0.2895	0.0	No	2.886	0.0	n/a	NoResponse	0	n/a	n/a	-8	37	Fixation	MissedWin	True
359.162	0.5	Win2	0.2895	0.002	No	2.886	-0.002	n/a	NoResponse	0	n/a	n/a	-8	37	Target	MissedWin	True
359.662	0.2	Win2	0.2895	n/a	No	2.886	n/a	n/a	NoResponse	0	n/a	n/a	-8	37	Blank	MissedWin	True
359.862	1.45	Win2	0.2895	n/a	No	2.886	n/a	5	NoResponse	0	0.01	358.872	-8	37	Feedback	MissedWin	True
359.872	0.3	Win2	0.2895	n/a	No	2.886	n/a	5	NoResponse	0	0.01	n/a	-8	37	ButtonPress	MissedWin	True
361.312	2.886	Win2	0.2895	n/a	No	2.886	n/a	n/a	NoResponse	0	0.0	n/a	-8	37	ISIslide	MissedWin	True
364.227	0.25	Lose2	0.2821	0.0	No	2.823	0.027	n/a	NoResponse	-1	n/a	n/a	-9	38	Cue	Loss	True
364.477	3.95	Lose2	0.2821	0.0	No	2.823	0.0	n/a	NoResponse	-1	n/a	n/a	-9	38	Fixation	Loss	True
368.426	0.5	Lose2	0.2821	0.001	No	2.823	-0.001	n/a	NoResponse	-1	n/a	n/a	-9	38	Target	Loss	True
368.926	0.2	Lose2	0.2821	n/a	No	2.823	n/a	n/a	NoResponse	-1	n/a	n/a	-9	38	Blank	Loss	True
369.126	1.45	Lose2	0.2821	n/a	No	2.823	n/a	5	NoResponse	-1	0.014	368.14	-9	38	Feedback	Loss	True
369.14	0.3	Lose2	0.2821	n/a	No	2.823	n/a	5	NoResponse	-1	0.014	n/a	-9	38	ButtonPress	Loss	True
370.575	2.823	Lose2	0.2821	n/a	No	2.823	n/a	n/a	NoResponse	-1	0.0	n/a	-9	38	ISIslide	Loss	True
373.424	0.25	Win2	0.275	0.0	No	2.976	0.024	n/a	NoResponse	0	n/a	n/a	-9	39	Cue	MissedWin	False
373.674	4.1	Win2	0.275	0.0	No	2.976	0.0	4.0	NoResponse	0	2.463	375.137	-9	39	Fixation	MissedWin	False
376.137	0.3	Win2	0.275	0.0	No	2.976	0.0	4.0	NoResponse	0	2.463	n/a	-9	39	ButtonPress	MissedWin	False
377.772	0.5	Win2	0.275	0.002	No	2.976	-0.002	n/a	NoResponse	0	n/a	n/a	-9	39	Target	MissedWin	False
378.272	0.2	Win2	0.275	n/a	No	2.976	n/a	n/a	NoResponse	0	n/a	n/a	-9	39	Blank	MissedWin	False
378.472	1.45	Win2	0.275	n/a	No	2.976	n/a	5	NoResponse	0	0.034	377.506	-9	39	Feedback	MissedWin	False
378.506	0.3	Win2	0.275	n/a	No	2.976	n/a	5	NoResponse	0	0.034	n/a	-9	39	ButtonPress	MissedWin	False
379.922	2.976	Win2	0.275	n/a	No	2.976	n/a	n/a	NoResponse	0	0.0	n/a	-9	39	ISIslide	MissedWin	False
382.921	0.25	Win2	0.2683	0.0	No	2.729	0.021	n/a	NoResponse	0	n/a	n/a	-9	40	Cue	MissedWin	True
383.171	3.95	Win2	0.2683	0.0	No	2.729	0.0	n/a	NoResponse	0	n/a	n/a	-9	40	Fixation	MissedWin	True
387.119	0.5	Win2	0.2683	0.002	No	2.729	-0.002	n/a	NoResponse	0	n/a	n/a	-9	40	Target	MissedWin	True
387.619	0.2	Win2	0.2683	n/a	No	2.729	n/a	n/a	NoResponse	0	n/a	n/a	-9	40	Blank	MissedWin	True
387.819	1.45	Win2	0.2683	n/a	No	2.729	n/a	5	NoResponse	0	0.007	386.826	-9	40	Feedback	MissedWin	True
387.826	0.3	Win2	0.2683	n/a	No	2.729	n/a	5	NoResponse	0	0.007	n/a	-9	40	ButtonPress	MissedWin	True
389.268	2.729	Win2	0.2683	n/a	No	2.729	n/a	n/a	NoResponse	0	0.0	n/a	-9	40	ISIslide	MissedWin	True
392.017	0.25	Win2	0.2619	0.0	No	2.783	0.017	n/a	NoResponse	0	n/a	n/a	-9	41	Cue	MissedWin	True
392.267	3.9	Win2	0.2619	0.0	No	2.783	0.0	n/a	NoResponse	0	n/a	n/a	-9	41	Fixation	MissedWin	True
396.166	0.5	Win2	0.2619	0.001	No	2.783	-0.001	n/a	NoResponse	0	n/a	n/a	-9	41	Target	MissedWin	True
396.666	0.2	Win2	0.2619	n/a	No	2.783	n/a	n/a	NoResponse	0	n/a	n/a	-9	41	Blank	MissedWin	True
396.866	1.45	Win2	0.2619	n/a	No	2.783	n/a	5	NoResponse	0	0.03	395.896	-9	41	Feedback	MissedWin	True
396.896	0.3	Win2	0.2619	n/a	No	2.783	n/a	5	NoResponse	0	0.03	n/a	-9	41	ButtonPress	MissedWin	True
398.315	2.783	Win2	0.2619	n/a	No	2.783	n/a	n/a	NoResponse	0	0.0	n/a	-9	41	ISIslide	MissedWin	True
401.114	0.25	Control	0.25579999999999997	0.0	No	2.936	0.014	n/a	NoResponse	0	n/a	n/a	-9	42	Cue	Neutral	True
401.364	3.85	Control	0.25579999999999997	0.0	No	2.936	0.0	n/a	NoResponse	0	n/a	n/a	-9	42	Fixation	Neutral	True
405.213	0.5	Control	0.25579999999999997	0.001	No	2.936	-0.001	n/a	NoResponse	0	n/a	n/a	-9	42	Target	Neutral	True
405.712	0.2	Control	0.25579999999999997	n/a	No	2.936	n/a	n/a	NoResponse	0	n/a	n/a	-9	42	Blank	Neutral	True
405.912	1.45	Control	0.25579999999999997	n/a	No	2.936	n/a	5	NoResponse	0	0.008	404.92	-9	42	Feedback	Neutral	True
405.92	0.3	Control	0.25579999999999997	n/a	No	2.936	n/a	5	NoResponse	0	0.008	n/a	-9	42	ButtonPress	Neutral	True
407.362	2.936	Control	0.25579999999999997	n/a	No	2.936	n/a	n/a	NoResponse	0	0.0	n/a	-9	42	ISIslide	Neutral	True
410.328	0.25	Win2	0.25	0.0	No	3.172	0.028	n/a	NoResponse	0	n/a	n/a	-9	43	Cue	MissedWin	True
410.577	4.0	Win2	0.25	0.001	No	3.172	-0.001	n/a	NoResponse	0	n/a	n/a	-9	43	Fixation	MissedWin	True
414.576	0.5	Win2	0.25	0.002	No	3.172	-0.002	n/a	NoResponse	0	n/a	n/a	-9	43	Target	MissedWin	True
415.076	0.2	Win2	0.25	n/a	No	3.172	n/a	n/a	NoResponse	0	n/a	n/a	-9	43	Blank	MissedWin	True
415.276	1.45	Win2	0.25	n/a	No	3.172	n/a	5	NoResponse	0	0.01	414.286	-9	43	Feedback	MissedWin	True
415.286	0.3	Win2	0.25	n/a	No	3.172	n/a	5	NoResponse	0	0.01	n/a	-9	43	ButtonPress	MissedWin	True
416.725	3.172	Win2	0.25	n/a	No	3.172	n/a	n/a	NoResponse	0	0.0	n/a	-9	43	ISIslide	MissedWin	True
419.924	0.25	Win2	0.2444	0.0	No	2.976	0.024	n/a	NoResponse	0	n/a	n/a	-9	44	Cue	MissedWin	True
420.174	4.0	Win2	0.2444	0.0	No	2.976	0.0	n/a	NoResponse	0	n/a	n/a	-9	44	Fixation	MissedWin	True
424.173	0.5	Win2	0.2444	0.001	No	2.976	-0.001	n/a	NoResponse	0	n/a	n/a	-9	44	Target	MissedWin	True
424.672	0.2	Win2	0.2444	n/a	No	2.976	n/a	n/a	NoResponse	0	n/a	n/a	-9	44	Blank	MissedWin	True
424.872	1.45	Win2	0.2444	n/a	No	2.976	n/a	5	NoResponse	0	0.024	423.896	-9	44	Feedback	MissedWin	True
424.896	0.3	Win2	0.2444	n/a	No	2.976	n/a	5	NoResponse	0	0.024	n/a	-9	44	ButtonPress	MissedWin	True
426.322	2.976	Win2	0.2444	n/a	No	2.976	n/a	n/a	NoResponse	0	0.0	n/a	-9	44	ISIslide	MissedWin	True
429.321	0.25	Control	0.2391	0.0	No	2.879	0.021	n/a	NoResponse	0	n/a	n/a	-9	45	Cue	Neutral	True
429.571	4.1	Control	0.2391	0.0	No	2.879	0.0	n/a	NoResponse	0	n/a	n/a	-9	45	Fixation	Neutral	True
433.669	0.5	Control	0.2391	0.002	No	2.879	-0.002	n/a	NoResponse	0	n/a	n/a	-9	45	Target	Neutral	True
434.169	0.2	Control	0.2391	n/a	No	2.879	n/a	n/a	NoResponse	0	n/a	n/a	-9	45	Blank	Neutral	True
434.369	1.45	Control	0.2391	n/a	No	2.879	n/a	5	NoResponse	0	0.038	433.407	-9	45	Feedback	Neutral	True
434.407	0.3	Control	0.2391	n/a	No	2.879	n/a	5	NoResponse	0	0.038	n/a	-9	45	ButtonPress	Neutral	True
435.818	2.879	Control	0.2391	n/a	No	2.879	n/a	n/a	NoResponse	0	0.0	n/a	-9	45	ISIslide	Neutral	True
438.717	0.25	Lose2	0.23399999999999999	0.001	No	3.383	0.017	n/a	NoResponse	-1	n/a	n/a	-10	46	Cue	Loss	False
438.967	4.0	Lose2	0.23399999999999999	0.0	No	3.383	0.0	n/a	NoResponse	-1	n/a	n/a	-10	46	Fixation	Loss	False
442.966	0.5	Lose2	0.23399999999999999	0.001	No	3.383	-0.001	n/a	NoResponse	-1	n/a	n/a	-10	46	Target	Loss	False
443.466	0.2	Lose2	0.23399999999999999	n/a	No	3.383	n/a	n/a	NoResponse	-1	n/a	n/a	-10	46	Blank	Loss	False
443.666	1.45	Lose2	0.23399999999999999	n/a	No	3.383	n/a	n/a	NoResponse	-1	n/a	n/a	-10	46	Feedback	Loss	False
445.115	3.383	Lose2	0.23399999999999999	n/a	No	3.383	n/a	n/a	NoResponse	-1	0.0	n/a	-10	46	ISIslide	Loss	False
448.514	0.25	Lose2	0.22920000000000001	0.0	No	2.686	0.014	n/a	NoResponse	-1	n/a	n/a	-11	47	Cue	Loss	False
448.764	4.0	Lose2	0.22920000000000001	0.0	No	2.686	0.0	n/a	NoResponse	-1	n/a	n/a	-11	47	Fixation	Loss	False
452.762	0.5	Lose2	0.22920000000000001	0.002	No	2.686	-0.002	n/a	NoResponse	-1	n/a	n/a	-11	47	Target	Loss	False
453.262	0.2	Lose2	0.22920000000000001	n/a	No	2.686	n/a	n/a	NoResponse	-1	n/a	n/a	-11	47	Blank	Loss	False
453.462	1.45	Lose2	0.22920000000000001	n/a	No	2.686	n/a	n/a	NoResponse	-1	n/a	n/a	-11	47	Feedback	Loss	False
454.912	2.686	Lose2	0.22920000000000001	n/a	No	2.686	n/a	n/a	NoResponse	-1	0.0	n/a	-11	47	ISIslide	Loss	False
457.627	0.25	Lose2	0.2245	0.0	No	3.023	0.027	n/a	NoResponse	-1	n/a	n/a	-12	48	Cue	Loss	False
457.877	3.95	Lose2	0.2245	0.0	No	3.023	0.0	n/a	NoResponse	-1	n/a	n/a	-12	48	Fixation	Loss	False
461.826	0.5	Lose2	0.2245	0.001	No	3.023	-0.001	n/a	NoResponse	-1	n/a	n/a	-12	48	Target	Loss	False
462.326	0.2	Lose2	0.2245	n/a	No	3.023	n/a	n/a	NoResponse	-1	n/a	n/a	-12	48	Blank	Loss	False
462.526	1.45	Lose2	0.2245	n/a	No	3.023	n/a	n/a	NoResponse	-1	n/a	n/a	-12	48	Feedback	Loss	False
463.975	3.023	Lose2	0.2245	n/a	No	3.023	n/a	n/a	NoResponse	-1	0.0	n/a	-12	48	ISIslide	Loss	False
467.024	0.25	Control	0.22	0.0	No	2.876	0.024	n/a	NoResponse	0	n/a	n/a	-12	49	Cue	Neutral	True
467.274	4.0	Control	0.22	0.0	No	2.876	0.0	n/a	NoResponse	0	n/a	n/a	-12	49	Fixation	Neutral	True
471.273	0.5	Control	0.22	0.001	No	2.876	-0.001	1.0	NoResponse	0	0.627	470.9	-12	49	Target	Neutral	True
471.772	0.2	Control	0.22	n/a	No	2.876	n/a	n/a	NoResponse	0	n/a	n/a	-12	49	Blank	Neutral	True
471.9	0.3	Control	0.22	0.001	No	2.876	-0.001	1.0	NoResponse	0	0.627	n/a	-12	49	ButtonPress	Neutral	True
471.972	1.45	Control	0.22	n/a	No	2.876	n/a	n/a	NoResponse	0	n/a	n/a	-12	49	Feedback	Neutral	True
473.422	2.876	Control	0.22	n/a	No	2.876	n/a	3.0	NoResponse	0	0.254	n/a	-12	49	ISIslide	Neutral	True
476.304	0.25	Control	0.2157	0.0	No	2.796	0.004	n/a	NoResponse	0	n/a	n/a	-12	50	Cue	Neutral	True
476.554	4.0	Control	0.2157	0.0	No	2.796	0.0	1.0	NoResponse	0	0.15	475.704	-12	50	Fixation	Neutral	True
476.704	0.3	Control	0.2157	0.0	No	2.796	0.0	1.0	NoResponse	0	0.15	n/a	-12	50	ButtonPress	Neutral	True
480.553	0.5	Control	0.2157	0.001	No	2.796	-0.001	n/a	NoResponse	0	n/a	n/a	-12	50	Target	Neutral	True
481.052	0.2	Control	0.2157	n/a	No	2.796	n/a	n/a	NoResponse	0	n/a	n/a	-12	50	Blank	Neutral	True
481.252	1.45	Control	0.2157	n/a	No	2.796	n/a	n/a	NoResponse	0	n/a	n/a	-12	50	Feedback	Neutral	True
482.702	2.796	Control	0.2157	n/a	No	2.796	n/a	2.0	NoResponse	0	0.865	n/a	-12	50	ISIslide	Neutral	True
485.501	0.25	Control	0.2115	0.0	No	2.749	0.001	2.0	NoResponse	0	0.007	484.508	-12	51	Cue	Neutral	False
485.508	0.3	Control	0.2115	0.0	No	2.749	0.001	2.0	NoResponse	0	0.007	n/a	-12	51	ButtonPress	Neutral	False
485.751	3.95	Control	0.2115	0.0	No	2.749	0.0	2.0	NoResponse	0	0.142	484.893	-12	51	Fixation	Neutral	False
485.893	0.3	Control	0.2115	0.0	No	2.749	0.0	2.0	NoResponse	0	0.142	n/a	-12	51	ButtonPress	Neutral	False
489.699	0.5	Control	0.2115	0.002	No	2.749	-0.002	n/a	NoResponse	0	n/a	n/a	-12	51	Target	Neutral	False
490.199	0.2	Control	0.2115	n/a	No	2.749	n/a	n/a	NoResponse	0	n/a	n/a	-12	51	Blank	Neutral	False
490.399	1.45	Control	0.2115	n/a	No	2.749	n/a	n/a	NoResponse	0	n/a	n/a	-12	51	Feedback	Neutral	False
491.849	2.749	Control	0.2115	n/a	No	2.749	n/a	n/a	NoResponse	0	0.0	n/a	-12	51	ISIslide	Neutral	False
494.631	0.25	Control	0.2075	0.0	No	2.619	0.031	n/a	NoResponse	0	n/a	n/a	-12	52	Cue	Neutral	False
494.881	4.05	Control	0.2075	0.0	No	2.619	0.0	n/a	NoResponse	0	n/a	n/a	-12	52	Fixation	Neutral	False
498.929	0.5	Control	0.2075	0.002	No	2.619	-0.002	n/a	NoResponse	0	n/a	n/a	-12	52	Target	Neutral	False
499.429	0.2	Control	0.2075	n/a	No	2.619	n/a	n/a	NoResponse	0	n/a	n/a	-12	52	Blank	Neutral	False
499.629	1.45	Control	0.2075	n/a	No	2.619	n/a	n/a	NoResponse	0	n/a	n/a	-12	52	Feedback	Neutral	False
501.079	2.619	Control	0.2075	n/a	No	2.619	n/a	n/a	NoResponse	0	0.0	n/a	-12	52	ISIslide	Neutral	False
503.728	0.25	Win2	0.22219999999999998	0.0	Yes	2.922	0.028	n/a	GoodResponse	1	n/a	n/a	-11	53	Cue	Win	False
503.978	4.05	Win2	0.22219999999999998	0.0	Yes	2.922	0.0	4.0	GoodResponse	1	2.741	505.719	-11	53	Fixation	Win	False
506.719	0.3	Win2	0.22219999999999998	0.0	Yes	2.922	0.0	4.0	GoodResponse	1	2.741	n/a	-11	53	ButtonPress	Win	False
508.026	0.5	Win2	0.22219999999999998	0.002	Yes	2.922	-0.002	3.0	GoodResponse	1	0.178	507.204	-11	53	Target	Win	False
508.204	0.3	Win2	0.22219999999999998	0.002	Yes	2.922	-0.002	3.0	GoodResponse	1	0.178	n/a	-11	53	ButtonPress	Win	False
508.526	0.2	Win2	0.22219999999999998	n/a	Yes	2.922	n/a	n/a	GoodResponse	1	n/a	n/a	-11	53	Blank	Win	False
508.726	1.45	Win2	0.22219999999999998	n/a	Yes	2.922	n/a	4	GoodResponse	1	0.091	507.817	-11	53	Feedback	Win	False
508.817	0.3	Win2	0.22219999999999998	n/a	Yes	2.922	n/a	4	GoodResponse	1	0.091	n/a	-11	53	ButtonPress	Win	False
510.175	2.922	Win2	0.22219999999999998	n/a	Yes	2.922	n/a	n/a	GoodResponse	1	0.0	n/a	-11	53	ISIslide	Win	False
513.124	0.25	Win2	0.2182	0.0	No	2.726	0.024	n/a	NoResponse	0	n/a	n/a	-11	54	Cue	MissedWin	False
513.374	3.95	Win2	0.2182	0.0	No	2.726	0.0	n/a	NoResponse	0	n/a	n/a	-11	54	Fixation	MissedWin	False
517.323	0.5	Win2	0.2182	0.001	No	2.726	-0.001	n/a	NoResponse	0	n/a	n/a	-11	54	Target	MissedWin	False
517.823	0.2	Win2	0.2182	n/a	No	2.726	n/a	n/a	NoResponse	0	n/a	n/a	-11	54	Blank	MissedWin	False
518.023	1.45	Win2	0.2182	n/a	No	2.726	n/a	n/a	NoResponse	0	n/a	n/a	-11	54	Feedback	MissedWin	False
519.472	2.726	Win2	0.2182	n/a	No	2.726	n/a	n/a	NoResponse	0	0.0	n/a	-11	54	ISIslide	MissedWin	False
522.221	0.25	Control	0.2143	0.0	No	3.029	0.021	n/a	NoResponse	0	n/a	n/a	-11	55	Cue	Neutral	False
522.471	3.95	Control	0.2143	0.0	No	3.029	0.0	n/a	NoResponse	0	n/a	n/a	-11	55	Fixation	Neutral	False
526.42	0.5	Control	0.2143	0.001	No	3.029	-0.001	n/a	NoResponse	0	n/a	n/a	-11	55	Target	Neutral	False
526.919	0.2	Control	0.2143	n/a	No	3.029	n/a	n/a	NoResponse	0	n/a	n/a	-11	55	Blank	Neutral	False
527.119	1.45	Control	0.2143	n/a	No	3.029	n/a	n/a	NoResponse	0	n/a	n/a	-11	55	Feedback	Neutral	False
528.569	3.029	Control	0.2143	n/a	No	3.029	n/a	n/a	NoResponse	0	0.0	n/a	-11	55	ISIslide	Neutral	False
531.618	0.25	Control	0.21050000000000002	0.0	No	2.832	0.018	n/a	NoResponse	0	n/a	n/a	-11	56	Cue	Neutral	False
531.868	3.95	Control	0.21050000000000002	0.0	No	2.832	0.0	n/a	NoResponse	0	n/a	n/a	-11	56	Fixation	Neutral	False
535.816	0.5	Control	0.21050000000000002	0.002	No	2.832	-0.002	n/a	NoResponse	0	n/a	n/a	-11	56	Target	Neutral	False
536.316	0.2	Control	0.21050000000000002	n/a	No	2.832	n/a	n/a	NoResponse	0	n/a	n/a	-11	56	Blank	Neutral	False
536.516	1.45	Control	0.21050000000000002	n/a	No	2.832	n/a	n/a	NoResponse	0	n/a	n/a	-11	56	Feedback	Neutral	False
537.965	2.832	Control	0.21050000000000002	n/a	No	2.832	n/a	n/a	NoResponse	0	0.0	n/a	-11	56	ISIslide	Neutral	False
540.814	0.25	Control	0.2069	0.001	No	3.486	0.014	n/a	NoResponse	0	n/a	n/a	-11	57	Cue	Neutral	False
541.064	4.0	Control	0.2069	0.0	No	3.486	0.0	n/a	NoResponse	0	n/a	n/a	-11	57	Fixation	Neutral	False
545.063	0.5	Control	0.2069	0.001	No	3.486	-0.001	n/a	NoResponse	0	n/a	n/a	-11	57	Target	Neutral	False
545.563	0.2	Control	0.2069	n/a	No	3.486	n/a	n/a	NoResponse	0	n/a	n/a	-11	57	Blank	Neutral	False
545.763	1.45	Control	0.2069	n/a	No	3.486	n/a	n/a	NoResponse	0	n/a	n/a	-11	57	Feedback	Neutral	False
547.212	3.486	Control	0.2069	n/a	No	3.486	n/a	n/a	NoResponse	0	0.0	n/a	-11	57	ISIslide	Neutral	False
550.728	0.25	Win2	0.2034	0.0	No	2.722	0.028	n/a	NoResponse	0	n/a	n/a	-11	58	Cue	MissedWin	False
550.977	4.05	Win2	0.2034	0.001	No	2.722	-0.001	n/a	NoResponse	0	n/a	n/a	-11	58	Fixation	MissedWin	False
555.026	0.5	Win2	0.2034	0.002	No	2.722	-0.002	n/a	NoResponse	0	n/a	n/a	-11	58	Target	MissedWin	False
555.526	0.2	Win2	0.2034	n/a	No	2.722	n/a	n/a	NoResponse	0	n/a	n/a	-11	58	Blank	MissedWin	False
555.726	1.45	Win2	0.2034	n/a	No	2.722	n/a	n/a	NoResponse	0	n/a	n/a	-11	58	Feedback	MissedWin	False
557.175	2.722	Win2	0.2034	n/a	No	2.722	n/a	n/a	NoResponse	0	0.0	n/a	-11	58	ISIslide	MissedWin	False
559.924	0.25	Lose2	0.2167	0.0	Yes	2.676	0.024	n/a	GoodResponse	0	n/a	n/a	-11	59	Cue	AvoidedLoss	False
560.174	4.0	Lose2	0.2167	0.0	Yes	2.676	0.0	n/a	GoodResponse	0	n/a	n/a	-11	59	Fixation	AvoidedLoss	False
564.173	0.5	Lose2	0.2167	0.001	Yes	2.676	-0.001	4.0	GoodResponse	0	0.205	563.378	-11	59	Target	AvoidedLoss	False
564.378	0.3	Lose2	0.2167	0.001	Yes	2.676	-0.001	4.0	GoodResponse	0	0.205	n/a	-11	59	ButtonPress	AvoidedLoss	False
564.673	0.2	Lose2	0.2167	n/a	Yes	2.676	n/a	n/a	GoodResponse	0	n/a	n/a	-11	59	Blank	AvoidedLoss	False
564.873	1.45	Lose2	0.2167	n/a	Yes	2.676	n/a	{ALT}	GoodResponse	0	1.411	565.284	-11	59	Feedback	AvoidedLoss	False
566.284	0.3	Lose2	0.2167	n/a	Yes	2.676	n/a	{ALT}	GoodResponse	0	1.411	n/a	-11	59	ButtonPress	AvoidedLoss	False
566.322	2.676	Lose2	0.2167	n/a	Yes	2.676	n/a	n/a	GoodResponse	0	0.0	n/a	-11	59	ISIslide	AvoidedLoss	False
-32.073	0.999	Control	0.22949999999999998	n/a	Yes	2.679	n/a	999.0	GoodResponse	0	0.999	n/a	-11	60	ISIslide	Neutral	False
569.021	0.25	Control	0.22949999999999998	0.0	Yes	2.679	0.021	n/a	GoodResponse	0	n/a	n/a	-11	60	Cue	Neutral	False
569.271	4.0	Control	0.22949999999999998	0.0	Yes	2.679	0.0	n/a	GoodResponse	0	n/a	n/a	-11	60	Fixation	Neutral	False
573.27	0.5	Control	0.22949999999999998	0.001	Yes	2.679	-0.001	n/a	GoodResponse	0	n/a	n/a	-11	60	Target	Neutral	False
573.769	0.2	Control	0.22949999999999998	n/a	Yes	2.679	n/a	n/a	GoodResponse	0	n/a	n/a	-11	60	Blank	Neutral	False
573.969	1.45	Control	0.22949999999999998	n/a	Yes	2.679	n/a	n/a	GoodResponse	0	n/a	n/a	-11	60	Feedback	Neutral	False
