onset	duration	cue_type	current_mean_accuracy	duration_error	is_hit	isi_adjusted	onset_delay	response	response_type	reward	rt	rt_time	total_reward	trial_number	trial_phase	trial_type	one_press
11.104	0.25	Control	1.0	0.0	Yes	2.946	0.004	n/a	GoodResponse	0	n/a	n/a	0	0	Cue	Neutral	True
11.354	3.85	Control	1.0	0.0	Yes	2.946	0.0	n/a	GoodResponse	0	n/a	n/a	0	0	Fixation	Neutral	True
15.202	0.4	Control	1.0	0.002	Yes	2.946	-0.002	4.0	GoodResponse	0	0.208	14.41	0	0	Target	Neutral	True
15.41	0.3	Control	1.0	0.002	Yes	2.946	-0.002	4.0	GoodResponse	0	0.208	n/a	0	0	ButtonPress	Neutral	True
15.602	0.3	Control	1.0	n/a	Yes	2.946	n/a	n/a	GoodResponse	0	n/a	n/a	0	0	Blank	Neutral	True
15.902	1.45	Control	1.0	n/a	Yes	2.946	n/a	5.0	GoodResponse	0	0.025	14.927	0	0	Feedback	Neutral	True
17.352	2.946	Control	1.0	n/a	Yes	2.946	n/a	n/a	GoodResponse	0	0.0	n/a	0	0	ISIslide	Neutral	True
20.317	0.25	Lose2	1.0	0.0	Yes	2.783	0.017	n/a	GoodResponse	0	n/a	n/a	0	1	Cue	AvoidedLoss	True
20.567	4.0	Lose2	1.0	0.0	Yes	2.783	0.0	n/a	GoodResponse	0	n/a	n/a	0	1	Fixation	AvoidedLoss	True
24.566	0.39	Lose2	1.0	0.001	Yes	2.783	-0.001	4.0	GoodResponse	0	0.191	23.757	0	1	Target	AvoidedLoss	True
24.757	0.3	Lose2	1.0	0.001	Yes	2.783	-0.001	4.0	GoodResponse	0	0.191	n/a	0	1	ButtonPress	AvoidedLoss	True
24.966	0.31	Lose2	1.0	n/a	Yes	2.783	n/a	n/a	GoodResponse	0	n/a	n/a	0	1	Blank	AvoidedLoss	True
25.266	1.45	Lose2	1.0	n/a	Yes	2.783	n/a	5.0	GoodResponse	0	0.027	24.293	0	1	Feedback	AvoidedLoss	True
26.715	2.783	Lose2	1.0	n/a	Yes	2.783	n/a	n/a	GoodResponse	0	0.0	n/a	0	1	ISIslide	AvoidedLoss	True
29.514	0.25	Control	1.0	0.0	Yes	2.586	0.014	n/a	GoodResponse	0	n/a	n/a	0	2	Cue	Neutral	True
29.764	4.1	Control	1.0	0.0	Yes	2.586	0.0	n/a	GoodResponse	0	n/a	n/a	0	2	Fixation	Neutral	True
33.862	0.38	Control	1.0	0.002	Yes	2.586	-0.002	4.0	GoodResponse	0	0.223	33.085	0	2	Target	Neutral	True
34.085	0.3	Control	1.0	0.002	Yes	2.586	-0.002	4.0	GoodResponse	0	0.223	n/a	0	2	ButtonPress	Neutral	True
34.246	0.32	Control	1.0	n/a	Yes	2.586	n/a	n/a	GoodResponse	0	n/a	n/a	0	2	Blank	Neutral	True
34.562	1.45	Control	1.0	n/a	Yes	2.586	n/a	5.0	GoodResponse	0	0.047	33.609	0	2	Feedback	Neutral	True
36.012	2.586	Control	1.0	n/a	Yes	2.586	n/a	n/a	GoodResponse	0	0.0	n/a	0	2	ISIslide	Neutral	True
38.627	0.25	Win2	1.0	0.001	Yes	2.823	0.027	n/a	GoodResponse	1	n/a	n/a	1	3	Cue	Win	True
38.877	3.95	Win2	1.0	0.0	Yes	2.823	0.0	n/a	GoodResponse	1	n/a	n/a	1	3	Fixation	Win	True
42.826	0.37	Win2	1.0	0.001	Yes	2.823	-0.001	4.0	GoodResponse	1	0.245	42.071	1	3	Target	Win	True
43.071	0.3	Win2	1.0	0.001	Yes	2.823	-0.001	4.0	GoodResponse	1	0.245	n/a	1	3	ButtonPress	Win	True
43.192	0.33	Win2	1.0	n/a	Yes	2.823	n/a	n/a	GoodResponse	1	n/a	n/a	1	3	Blank	Win	True
43.526	1.45	Win2	1.0	n/a	Yes	2.823	n/a	5.0	GoodResponse	1	0.01	42.536	1	3	Feedback	Win	True
44.975	2.823	Win2	1.0	n/a	Yes	2.823	n/a	n/a	GoodResponse	1	0.0	n/a	1	3	ISIslide	Win	True
47.824	0.25	Win2	0.8	0.0	No	3.276	0.024	n/a	NoResponse	0	n/a	n/a	1	4	Cue	MissedWin	True
48.074	4.0	Win2	0.8	0.0	No	3.276	0.0	n/a	NoResponse	0	n/a	n/a	1	4	Fixation	MissedWin	True
52.073	0.36	Win2	0.8	0.001	No	3.276	-0.001	4.0	NoResponse	0	0.384	51.457	1	4	Target	MissedWin	True
52.439	0.34	Win2	0.8	n/a	No	3.276	n/a	n/a	NoResponse	0	n/a	n/a	1	4	Blank	MissedWin	True
52.457	0.3	Win2	0.8	0.001	No	3.276	-0.001	4.0	NoResponse	0	0.384	n/a	1	4	ButtonPress	MissedWin	True
52.772	1.45	Win2	0.8	n/a	No	3.276	n/a	5.0	NoResponse	0	0.032	51.804	1	4	Feedback	MissedWin	True
54.222	3.276	Win2	0.8	n/a	No	3.276	n/a	n/a	NoResponse	0	0.0	n/a	1	4	ISIslide	MissedWin	True
57.521	0.25	Win2	0.8332999999999999	0.0	Yes	2.779	0.021	n/a	GoodResponse	1	n/a	n/a	2	5	Cue	Win	True
57.771	4.0	Win2	0.8332999999999999	0.0	Yes	2.779	0.0	n/a	GoodResponse	1	n/a	n/a	2	5	Fixation	Win	True
61.769	0.35	Win2	0.8332999999999999	0.002	Yes	2.779	-0.002	4.0	GoodResponse	1	0.204	60.973	2	5	Target	Win	True
61.973	0.3	Win2	0.8332999999999999	0.002	Yes	2.779	-0.002	4.0	GoodResponse	1	0.204	n/a	2	5	ButtonPress	Win	True
62.119	0.35	Win2	0.8332999999999999	n/a	Yes	2.779	n/a	n/a	GoodResponse	1	n/a	n/a	2	5	Blank	Win	True
62.469	1.45	Win2	0.8332999999999999	n/a	Yes	2.779	n/a	5.0	GoodResponse	1	0.043	61.512	2	5	Feedback	Win	True
63.918	2.779	Win2	0.8332999999999999	n/a	Yes	2.779	n/a	n/a	GoodResponse	1	0.0	n/a	2	5	ISIslide	Win	True
66.717	0.25	Lose2	0.8571	0.001	Yes	2.733	0.017	n/a	GoodResponse	0	n/a	n/a	2	6	Cue	AvoidedLoss	True
66.967	3.95	Lose2	0.8571	0.0	Yes	2.733	0.0	n/a	GoodResponse	0	n/a	n/a	2	6	Fixation	AvoidedLoss	True
70.916	0.34	Lose2	0.8571	0.001	Yes	2.733	-0.001	4.0	GoodResponse	0	0.221	70.137	2	6	Target	AvoidedLoss	True
71.137	0.3	Lose2	0.8571	0.001	Yes	2.733	-0.001	4.0	GoodResponse	0	0.221	n/a	2	6	ButtonPress	AvoidedLoss	True
71.266	0.36	Lose2	0.8571	n/a	Yes	2.733	n/a	n/a	GoodResponse	0	n/a	n/a	2	6	Blank	AvoidedLoss	True
71.616	1.45	Lose2	0.8571	n/a	Yes	2.733	n/a	5.0	GoodResponse	0	0.017	70.633	2	6	Feedback	AvoidedLoss	True
73.065	2.733	Lose2	0.8571	n/a	Yes	2.733	n/a	n/a	GoodResponse	0	0.0	n/a	2	6	ISIslide	AvoidedLoss	True
75.814	0.25	Lose2	0.875	0.0	Yes	4.036	0.014	n/a	GoodResponse	0	n/a	n/a	2	7	Cue	AvoidedLoss	True
76.064	4.05	Lose2	0.875	0.0	Yes	4.036	0.0	n/a	GoodResponse	0	n/a	n/a	2	7	Fixation	AvoidedLoss	True
80.113	0.33	Lose2	0.875	0.001	Yes	4.036	-0.001	4.0	GoodResponse	0	0.188	79.301	2	7	Target	AvoidedLoss	True
80.301	0.3	Lose2	0.875	0.001	Yes	4.036	-0.001	4.0	GoodResponse	0	0.188	n/a	2	7	ButtonPress	AvoidedLoss	True
80.446	0.37	Lose2	0.875	n/a	Yes	4.036	n/a	n/a	GoodResponse	0	n/a	n/a	2	7	Blank	AvoidedLoss	True
80.812	1.45	Lose2	0.875	n/a	Yes	4.036	n/a	5.0	GoodResponse	0	0.04	79.852	2	7	Feedback	AvoidedLoss	True
82.262	4.036	Lose2	0.875	n/a	Yes	4.036	n/a	n/a	GoodResponse	0	0.0	n/a	2	7	ISIslide	AvoidedLoss	True
86.327	0.25	Lose2	0.8889	0.0	Yes	3.023	0.027	n/a	GoodResponse	0	n/a	n/a	2	8	Cue	AvoidedLoss	True
86.577	3.95	Lose2	0.8889	0.0	Yes	3.023	0.0	n/a	GoodResponse	0	n/a	n/a	2	8	Fixation	AvoidedLoss	True
90.526	0.32	Lose2	0.8889	0.001	Yes	3.023	-0.001	4.0	GoodResponse	0	0.231	89.757	2	8	Target	AvoidedLoss	True
90.757	0.3	Lose2	0.8889	0.001	Yes	3.023	-0.001	4.0	GoodResponse	0	0.231	n/a	2	8	ButtonPress	AvoidedLoss	True
90.859	0.38	Lose2	0.8889	n/a	Yes	3.023	n/a	n/a	GoodResponse	0	n/a	n/a	2	8	Blank	AvoidedLoss	True
91.225	1.45	Lose2	0.8889	n/a	Yes	3.023	n/a	5.0	GoodResponse	0	0.018	90.243	2	8	Feedback	AvoidedLoss	True
92.675	3.023	Lose2	0.8889	n/a	Yes	3.023	n/a	n/a	GoodResponse	0	0.0	n/a	2	8	ISIslide	AvoidedLoss	True
95.724	0.25	Lose2	0.9	0.0	Yes	3.126	0.024	n/a	GoodResponse	0	n/a	n/a	2	9	Cue	AvoidedLoss	True
95.974	3.95	Lose2	0.9	0.0	Yes	3.126	0.0	n/a	GoodResponse	0	n/a	n/a	2	9	Fixation	AvoidedLoss	True
99.922	0.31	Lose2	0.9	0.002	Yes	3.126	-0.002	4.0	GoodResponse	0	0.213	99.135	2	9	Target	AvoidedLoss	True
100.135	0.3	Lose2	0.9	0.002	Yes	3.126	-0.002	4.0	GoodResponse	0	0.213	n/a	2	9	ButtonPress	AvoidedLoss	True
100.239	0.39	Lose2	0.9	n/a	Yes	3.126	n/a	n/a	GoodResponse	0	n/a	n/a	2	9	Blank	AvoidedLoss	True
100.622	1.45	Lose2	0.9	n/a	Yes	3.126	n/a	5.0	GoodResponse	0	0.036	99.658	2	9	Feedback	AvoidedLoss	True
102.072	3.126	Lose2	0.9	n/a	Yes	3.126	n/a	n/a	GoodResponse	0	0.0	n/a	2	9	ISIslide	AvoidedLoss	True
105.22	0.25	Control	0.8181999999999999	0.001	No	3.28	0.02	n/a	PrematurePress	0	n/a	n/a	2	10	Cue	Neutral	True
105.47	4.0	Control	0.8181999999999999	0.0	No	3.28	0.0	n/a	PrematurePress	0	n/a	n/a	2	10	Fixation	Neutral	True
109.469	0.3	Control	0.8181999999999999	0.001	No	3.28	-0.001	4.0	PrematurePress	0	0.05	108.519	2	10	Target	Neutral	True
109.519	0.3	Control	0.8181999999999999	0.001	No	3.28	-0.001	4.0	PrematurePress	0	0.05	n/a	2	10	ButtonPress	Neutral	True
109.769	0.4	Control	0.8181999999999999	n/a	No	3.28	n/a	n/a	PrematurePress	0	n/a	n/a	2	10	Blank	Neutral	True
110.169	1.45	Control	0.8181999999999999	n/a	No	3.28	n/a	5.0	PrematurePress	0	0.0	109.169	2	10	Feedback	Neutral	True
111.618	3.28	Control	0.8181999999999999	n/a	No	3.28	n/a	n/a	PrematurePress	0	0.0	n/a	2	10	ISIslide	Neutral	True
114.917	0.25	Lose2	0.8332999999999999	0.0	Yes	2.733	0.017	n/a	GoodResponse	0	n/a	n/a	2	11	Cue	AvoidedLoss	True
115.167	4.05	Lose2	0.8332999999999999	0.0	Yes	2.733	0.0	n/a	GoodResponse	0	n/a	n/a	2	11	Fixation	AvoidedLoss	True
119.215	0.29	Lose2	0.8332999999999999	0.002	Yes	2.733	-0.002	4.0	GoodResponse	0	0.175	118.39	2	11	Target	AvoidedLoss	True
119.39	0.3	Lose2	0.8332999999999999	0.002	Yes	2.733	-0.002	4.0	GoodResponse	0	0.175	n/a	2	11	ButtonPress	AvoidedLoss	True
119.515	0.41	Lose2	0.8332999999999999	n/a	Yes	2.733	n/a	n/a	GoodResponse	0	n/a	n/a	2	11	Blank	AvoidedLoss	True
119.915	1.45	Lose2	0.8332999999999999	n/a	Yes	2.733	n/a	5.0	GoodResponse	0	0.01	118.925	2	11	Feedback	AvoidedLoss	True
121.365	2.733	Lose2	0.8332999999999999	n/a	Yes	2.733	n/a	n/a	GoodResponse	0	0.0	n/a	2	11	ISIslide	AvoidedLoss	True
124.114	0.25	Control	0.8462000000000001	0.0	Yes	2.986	0.014	n/a	GoodResponse	0	n/a	n/a	2	12	Cue	Neutral	True
124.364	3.9	Control	0.8462000000000001	0.0	Yes	2.986	0.0	n/a	GoodResponse	0	n/a	n/a	2	12	Fixation	Neutral	True
128.262	0.28	Control	0.8462000000000001	0.002	Yes	2.986	-0.002	4.0	GoodResponse	0	0.244	127.506	2	12	Target	Neutral	True
128.506	0.3	Control	0.8462000000000001	0.002	Yes	2.986	-0.002	4.0	GoodResponse	0	0.244	n/a	2	12	ButtonPress	Neutral	True
128.545	0.42	Control	0.8462000000000001	n/a	Yes	2.986	n/a	n/a	GoodResponse	0	n/a	n/a	2	12	Blank	Neutral	True
128.962	1.45	Control	0.8462000000000001	n/a	Yes	2.986	n/a	5.0	GoodResponse	0	0.036	127.998	2	12	Feedback	Neutral	True
130.411	2.986	Control	0.8462000000000001	n/a	Yes	2.986	n/a	n/a	GoodResponse	0	0.0	n/a	2	12	ISIslide	Neutral	True
133.427	0.25	Control	0.8571	0.0	Yes	2.773	0.027	n/a	GoodResponse	0	n/a	n/a	2	13	Cue	Neutral	True
133.677	4.0	Control	0.8571	0.0	Yes	2.773	0.0	n/a	GoodResponse	0	n/a	n/a	2	13	Fixation	Neutral	True
137.676	0.27	Control	0.8571	0.001	Yes	2.773	-0.001	4.0	GoodResponse	0	0.224	136.9	2	13	Target	Neutral	True
137.9	0.3	Control	0.8571	0.001	Yes	2.773	-0.001	4.0	GoodResponse	0	0.224	n/a	2	13	ButtonPress	Neutral	True
137.959	0.43	Control	0.8571	n/a	Yes	2.773	n/a	n/a	GoodResponse	0	n/a	n/a	2	13	Blank	Neutral	True
138.375	1.45	Control	0.8571	n/a	Yes	2.773	n/a	5.0	GoodResponse	0	0.038	137.413	2	13	Feedback	Neutral	True
139.825	2.773	Control	0.8571	n/a	Yes	2.773	n/a	n/a	GoodResponse	0	0.0	n/a	2	13	ISIslide	Neutral	True
142.624	0.25	Win2	0.8667	0.0	Yes	2.676	0.024	n/a	GoodResponse	1	n/a	n/a	3	14	Cue	Win	True
142.874	4.1	Win2	0.8667	0.0	Yes	2.676	0.0	n/a	GoodResponse	1	n/a	n/a	3	14	Fixation	Win	True
146.972	0.26	Win2	0.8667	0.002	Yes	2.676	-0.002	4.0	GoodResponse	1	0.202	146.174	3	14	Target	Win	True
147.174	0.3	Win2	0.8667	0.002	Yes	2.676	-0.002	4.0	GoodResponse	1	0.202	n/a	3	14	ButtonPress	Win	True
147.239	0.44	Win2	0.8667	n/a	Yes	2.676	n/a	n/a	GoodResponse	1	n/a	n/a	3	14	Blank	Win	True
147.672	1.45	Win2	0.8667	n/a	Yes	2.676	n/a	5.0	GoodResponse	1	0.009	146.681	3	14	Feedback	Win	True
149.121	2.676	Win2	0.8667	n/a	Yes	2.676	n/a	n/a	GoodResponse	1	0.0	n/a	3	14	ISIslide	Win	True
151.821	0.25	Control	0.8125	0.0	No	2.979	0.021	n/a	NoResponse	0	n/a	n/a	3	15	Cue	Neutral	True
152.07	4.0	Control	0.8125	0.001	No	2.979	-0.001	n/a	NoResponse	0	n/a	n/a	3	15	Fixation	Neutral	True
156.069	0.25	Control	0.8125	0.002	No	2.979	-0.002	4.0	NoResponse	0	0.26	155.329	3	15	Target	Neutral	True
156.319	0.45	Control	0.8125	n/a	No	2.979	n/a	n/a	NoResponse	0	n/a	n/a	3	15	Blank	Neutral	True
156.329	0.3	Control	0.8125	0.002	No	2.979	-0.002	4.0	NoResponse	0	0.26	n/a	3	15	ButtonPress	Neutral	True
156.769	1.45	Control	0.8125	n/a	No	2.979	n/a	5.0	NoResponse	0	0.034	155.803	3	15	Feedback	Neutral	True
158.218	2.979	Control	0.8125	n/a	No	2.979	n/a	n/a	NoResponse	0	0.0	n/a	3	15	ISIslide	Neutral	True
161.217	0.25	Win2	0.8234999999999999	0.0	Yes	2.883	0.017	n/a	GoodResponse	1	n/a	n/a	4	16	Cue	Win	True
161.467	4.0	Win2	0.8234999999999999	0.0	Yes	2.883	0.0	n/a	GoodResponse	1	n/a	n/a	4	16	Fixation	Win	True
165.466	0.24	Win2	0.8234999999999999	0.001	Yes	2.883	-0.001	4.0	GoodResponse	1	0.209	164.675	4	16	Target	Win	True
165.675	0.3	Win2	0.8234999999999999	0.001	Yes	2.883	-0.001	4.0	GoodResponse	1	0.209	n/a	4	16	ButtonPress	Win	True
165.716	0.46	Win2	0.8234999999999999	n/a	Yes	2.883	n/a	n/a	GoodResponse	1	n/a	n/a	4	16	Blank	Win	True
166.165	1.45	Win2	0.8234999999999999	n/a	Yes	2.883	n/a	5.0	GoodResponse	1	0.006	165.171	4	16	Feedback	Win	True
167.615	2.883	Win2	0.8234999999999999	n/a	Yes	2.883	n/a	n/a	GoodResponse	1	0.0	n/a	4	16	ISIslide	Win	True
170.514	0.25	Lose2	0.7778	0.0	No	2.736	0.014	n/a	NoResponse	-1	n/a	n/a	3	17	Cue	Loss	True
170.764	3.95	Lose2	0.7778	0.0	No	2.736	0.0	n/a	NoResponse	-1	n/a	n/a	3	17	Fixation	Loss	True
174.712	0.23	Lose2	0.7778	0.002	No	2.736	-0.002	4.0	NoResponse	-1	0.315	174.027	3	17	Target	Loss	True
174.946	0.47	Lose2	0.7778	n/a	No	2.736	n/a	n/a	NoResponse	-1	n/a	n/a	3	17	Blank	Loss	True
175.027	0.3	Lose2	0.7778	0.002	No	2.736	-0.002	4.0	NoResponse	-1	0.315	n/a	3	17	ButtonPress	Loss	True
175.412	1.45	Lose2	0.7778	n/a	No	2.736	n/a	5.0	NoResponse	-1	0.025	174.437	3	17	Feedback	Loss	True
176.862	2.736	Lose2	0.7778	n/a	No	2.736	n/a	n/a	NoResponse	-1	0.0	n/a	3	17	ISIslide	Loss	True
179.627	0.25	Lose2	0.7895	0.0	Yes	2.723	0.027	n/a	GoodResponse	0	n/a	n/a	3	18	Cue	AvoidedLoss	True
179.877	4.05	Lose2	0.7895	0.0	Yes	2.723	0.0	n/a	GoodResponse	0	n/a	n/a	3	18	Fixation	AvoidedLoss	True
183.926	0.22	Lose2	0.7895	0.001	Yes	2.723	-0.001	4.0	GoodResponse	0	0.21	183.136	3	18	Target	AvoidedLoss	True
184.136	0.3	Lose2	0.7895	0.001	Yes	2.723	-0.001	4.0	GoodResponse	0	0.21	n/a	3	18	ButtonPress	AvoidedLoss	True
184.159	0.48	Lose2	0.7895	n/a	Yes	2.723	n/a	n/a	GoodResponse	0	n/a	n/a	3	18	Blank	AvoidedLoss	True
184.626	1.45	Lose2	0.7895	n/a	Yes	2.723	n/a	5.0	GoodResponse	0	0.03	183.656	3	18	Feedback	AvoidedLoss	True
186.075	2.723	Lose2	0.7895	n/a	Yes	2.723	n/a	n/a	GoodResponse	0	0.0	n/a	3	18	ISIslide	AvoidedLoss	True
188.824	0.25	Control	0.75	0.0	No	2.926	0.024	n/a	NoResponse	0	n/a	n/a	3	19	Cue	Neutral	True
189.074	3.95	Control	0.75	0.0	No	2.926	0.0	n/a	NoResponse	0	n/a	n/a	3	19	Fixation	Neutral	True
193.023	0.21	Control	0.75	0.001	No	2.926	-0.001	4.0	NoResponse	0	0.242	192.265	3	19	Target	Neutral	True
193.239	0.49	Control	0.75	n/a	No	2.926	n/a	n/a	NoResponse	0	n/a	n/a	3	19	Blank	Neutral	True
193.265	0.3	Control	0.75	0.001	No	2.926	-0.001	4.0	NoResponse	0	0.242	n/a	3	19	ButtonPress	Neutral	True
193.722	1.45	Control	0.75	n/a	No	2.926	n/a	5.0	NoResponse	0	0.008	192.73	3	19	Feedback	Neutral	True
195.172	2.926	Control	0.75	n/a	No	2.926	n/a	n/a	NoResponse	0	0.0	n/a	3	19	ISIslide	Neutral	True
198.121	0.25	Control	0.7143	0.0	No	2.629	0.021	n/a	NoResponse	0	n/a	n/a	3	20	Cue	Neutral	True
198.371	4.05	Control	0.7143	0.0	No	2.629	0.0	n/a	NoResponse	0	n/a	n/a	3	20	Fixation	Neutral	True
202.419	0.2	Control	0.7143	0.002	No	2.629	-0.002	4.0	NoResponse	0	0.228	201.647	3	20	Target	Neutral	True
202.619	0.5	Control	0.7143	n/a	No	2.629	n/a	n/a	NoResponse	0	n/a	n/a	3	20	Blank	Neutral	True
202.647	0.3	Control	0.7143	0.002	No	2.629	-0.002	4.0	NoResponse	0	0.228	n/a	3	20	ButtonPress	Neutral	True
203.119	1.45	Control	0.7143	n/a	No	2.629	n/a	5.0	NoResponse	0	0.025	202.144	3	20	Feedback	Neutral	True
204.568	2.629	Control	0.7143	n/a	No	2.629	n/a	n/a	NoResponse	0	0.0	n/a	3	20	ISIslide	Neutral	True
207.217	0.25	Control	0.6818000000000001	0.001	No	2.783	0.017	n/a	NoResponse	0	n/a	n/a	3	21	Cue	Neutral	True
207.467	4.1	Control	0.6818000000000001	0.0	No	2.783	0.0	n/a	NoResponse	0	n/a	n/a	3	21	Fixation	Neutral	True
211.566	0.19	Control	0.6818000000000001	0.001	No	2.783	-0.001	4.0	NoResponse	0	0.207	210.773	3	21	Target	Neutral	True
211.766	0.51	Control	0.6818000000000001	n/a	No	2.783	n/a	n/a	NoResponse	0	n/a	n/a	3	21	Blank	Neutral	True
211.773	0.3	Control	0.6818000000000001	0.001	No	2.783	-0.001	4.0	NoResponse	0	0.207	n/a	3	21	ButtonPress	Neutral	True
212.266	1.45	Control	0.6818000000000001	n/a	No	2.783	n/a	5.0	NoResponse	0	0.049	211.315	3	21	Feedback	Neutral	True
213.715	2.783	Control	0.6818000000000001	n/a	No	2.783	n/a	n/a	NoResponse	0	0.0	n/a	3	21	ISIslide	Neutral	True
216.514	0.25	Control	0.6522	0.0	No	2.786	0.014	n/a	NoResponse	0	n/a	n/a	3	22	Cue	Neutral	True
216.764	4.0	Control	0.6522	0.0	No	2.786	0.0	n/a	NoResponse	0	n/a	n/a	3	22	Fixation	Neutral	True
220.763	0.18	Control	0.6522	0.001	No	2.786	-0.001	4.0	NoResponse	0	0.245	220.008	3	22	Target	Neutral	True
220.946	0.52	Control	0.6522	n/a	No	2.786	n/a	n/a	NoResponse	0	n/a	n/a	3	22	Blank	Neutral	True
221.008	0.3	Control	0.6522	0.001	No	2.786	-0.001	4.0	NoResponse	0	0.245	n/a	3	22	ButtonPress	Neutral	True
221.462	1.45	Control	0.6522	n/a	No	2.786	n/a	5.0	NoResponse	0	0.022	220.484	3	22	Feedback	Neutral	True
222.912	2.786	Control	0.6522	n/a	No	2.786	n/a	n/a	NoResponse	0	0.0	n/a	3	22	ISIslide	Neutral	True
225.711	0.25	Control	0.6667000000000001	0.0	Yes	2.789	0.011	n/a	GoodResponse	0	n/a	n/a	3	23	Cue	Neutral	True
225.961	3.9	Control	0.6667000000000001	0.0	Yes	2.789	0.0	n/a	GoodResponse	0	n/a	n/a	3	23	Fixation	Neutral	True
229.859	0.19	Control	0.6667000000000001	0.002	Yes	2.789	-0.002	4.0	GoodResponse	0	0.166	229.025	3	23	Target	Neutral	True
230.025	0.3	Control	0.6667000000000001	0.002	Yes	2.789	-0.002	4.0	GoodResponse	0	0.166	n/a	3	23	ButtonPress	Neutral	True
230.059	0.51	Control	0.6667000000000001	n/a	Yes	2.789	n/a	n/a	GoodResponse	0	n/a	n/a	3	23	Blank	Neutral	True
230.559	1.45	Control	0.6667000000000001	n/a	Yes	2.789	n/a	5.0	GoodResponse	0	0.047	229.606	3	23	Feedback	Neutral	True
232.009	2.789	Control	0.6667000000000001	n/a	Yes	2.789	n/a	n/a	GoodResponse	0	0.0	n/a	3	23	ISIslide	Neutral	True
234.824	0.25	Win2	0.68	0.0	Yes	3.126	0.024	n/a	GoodResponse	1	n/a	n/a	4	24	Cue	Win	True
235.074	3.95	Win2	0.68	0.0	Yes	3.126	0.0	n/a	GoodResponse	1	n/a	n/a	4	24	Fixation	Win	True
239.023	0.18	Win2	0.68	0.001	Yes	3.126	-0.001	4.0	GoodResponse	1	0.179	238.202	4	24	Target	Win	True
239.202	0.3	Win2	0.68	0.001	Yes	3.126	-0.001	4.0	GoodResponse	1	0.179	n/a	4	24	ButtonPress	Win	True
239.206	0.52	Win2	0.68	n/a	Yes	3.126	n/a	n/a	GoodResponse	1	n/a	n/a	4	24	Blank	Win	True
239.723	1.45	Win2	0.68	n/a	Yes	3.126	n/a	5.0	GoodResponse	1	0.006	238.729	4	24	Feedback	Win	True
241.172	3.126	Win2	0.68	n/a	Yes	3.126	n/a	n/a	GoodResponse	1	0.0	n/a	4	24	ISIslide	Win	True
244.321	0.25	Win2	0.6537999999999999	0.0	No	3.079	0.021	n/a	NoResponse	0	n/a	n/a	4	25	Cue	MissedWin	True
244.571	4.0	Win2	0.6537999999999999	0.0	No	3.079	0.0	n/a	NoResponse	0	n/a	n/a	4	25	Fixation	MissedWin	True
248.569	0.17	Win2	0.6537999999999999	0.002	No	3.079	-0.002	4.0	NoResponse	0	0.197	247.766	4	25	Target	MissedWin	True
248.753	0.53	Win2	0.6537999999999999	n/a	No	3.079	n/a	n/a	NoResponse	0	n/a	n/a	4	25	Blank	MissedWin	True
248.766	0.3	Win2	0.6537999999999999	0.002	No	3.079	-0.002	4.0	NoResponse	0	0.197	n/a	4	25	ButtonPress	MissedWin	True
249.269	1.45	Win2	0.6537999999999999	n/a	No	3.079	n/a	5.0	NoResponse	0	0.021	248.29	4	25	Feedback	MissedWin	True
250.719	3.079	Win2	0.6537999999999999	n/a	No	3.079	n/a	n/a	NoResponse	0	0.0	n/a	4	25	ISIslide	MissedWin	True
253.818	0.25	Win2	0.6667000000000001	0.0	Yes	2.932	0.018	n/a	GoodResponse	1	n/a	n/a	5	26	Cue	Win	True
254.067	3.95	Win2	0.6667000000000001	0.001	Yes	2.932	-0.001	n/a	GoodResponse	1	n/a	n/a	5	26	Fixation	Win	True
258.016	0.18	Win2	0.6667000000000001	0.002	Yes	2.932	-0.002	4.0	GoodResponse	1	0.16	257.176	5	26	Target	Win	True
258.176	0.3	Win2	0.6667000000000001	0.002	Yes	2.932	-0.002	4.0	GoodResponse	1	0.16	n/a	5	26	ButtonPress	Win	True
258.199	0.52	Win2	0.6667000000000001	n/a	Yes	2.932	n/a	n/a	GoodResponse	1	n/a	n/a	5	26	Blank	Win	True
258.716	1.45	Win2	0.6667000000000001	n/a	Yes	2.932	n/a	5.0	GoodResponse	1	0.036	257.752	5	26	Feedback	Win	True
260.165	2.932	Win2	0.6667000000000001	n/a	Yes	2.932	n/a	n/a	GoodResponse	1	0.0	n/a	5	26	ISIslide	Win	True
263.114	0.25	Lose2	0.6786	0.0	Yes	2.836	0.014	n/a	GoodResponse	0	n/a	n/a	5	27	Cue	AvoidedLoss	True
263.364	4.05	Lose2	0.6786	0.0	Yes	2.836	0.0	n/a	GoodResponse	0	n/a	n/a	5	27	Fixation	AvoidedLoss	True
267.413	0.17	Lose2	0.6786	0.001	Yes	2.836	-0.001	4.0	GoodResponse	0	0.151	266.564	5	27	Target	AvoidedLoss	True
267.564	0.3	Lose2	0.6786	0.001	Yes	2.836	-0.001	4.0	GoodResponse	0	0.151	n/a	5	27	ButtonPress	AvoidedLoss	True
267.596	0.53	Lose2	0.6786	n/a	Yes	2.836	n/a	n/a	GoodResponse	0	n/a	n/a	5	27	Blank	AvoidedLoss	True
268.112	1.45	Lose2	0.6786	n/a	Yes	2.836	n/a	5.0	GoodResponse	0	0.006	267.118	5	27	Feedback	AvoidedLoss	True
269.562	2.836	Lose2	0.6786	n/a	Yes	2.836	n/a	n/a	GoodResponse	0	0.0	n/a	5	27	ISIslide	AvoidedLoss	True
272.428	0.25	Control	0.6552	0.0	No	2.822	0.028	n/a	NoResponse	0	n/a	n/a	5	28	Cue	Neutral	True
272.678	4.05	Control	0.6552	0.0	No	2.822	0.0	n/a	NoResponse	0	n/a	n/a	5	28	Fixation	Neutral	True
276.726	0.16	Control	0.6552	0.002	No	2.822	-0.002	4.0	NoResponse	0	0.271	275.997	5	28	Target	Neutral	True
276.893	0.54	Control	0.6552	n/a	No	2.822	n/a	n/a	NoResponse	0	n/a	n/a	5	28	Blank	Neutral	True
276.997	0.3	Control	0.6552	0.002	No	2.822	-0.002	4.0	NoResponse	0	0.271	n/a	5	28	ButtonPress	Neutral	True
277.426	1.45	Control	0.6552	n/a	No	2.822	n/a	5.0	NoResponse	0	0.009	276.435	5	28	Feedback	Neutral	True
278.875	2.822	Control	0.6552	n/a	No	2.822	n/a	n/a	NoResponse	0	0.0	n/a	5	28	ISIslide	Neutral	True
281.724	0.25	Lose2	0.6333	0.0	No	2.826	0.024	n/a	LatePress	-1	n/a	n/a	4	29	Cue	Loss	True
281.974	3.95	Lose2	0.6333	0.0	No	2.826	0.0	n/a	LatePress	-1	n/a	n/a	4	29	Fixation	Loss	True
285.923	0.16	Lose2	0.6333	0.001	No	2.826	-0.001	4.0	LatePress	-1	0.161	285.084	4	29	Target	Loss	True
286.084	0.3	Lose2	0.6333	0.001	No	2.826	-0.001	4.0	LatePress	-1	0.161	n/a	4	29	ButtonPress	Loss	True
286.089	0.54	Lose2	0.6333	n/a	No	2.826	n/a	n/a	LatePress	-1	n/a	n/a	4	29	Blank	Loss	True
286.623	1.45	Lose2	0.6333	n/a	No	2.826	n/a	5.0	LatePress	-1	0.032	285.655	4	29	Feedback	Loss	True
288.072	2.826	Lose2	0.6333	n/a	No	2.826	n/a	n/a	LatePress	-1	0.0	n/a	4	29	ISIslide	Loss	True
290.921	0.25	Win2	0.6129	0.0	No	2.779	0.021	n/a	NoResponse	0	n/a	n/a	4	30	Cue	MissedWin	True
291.171	3.9	Win2	0.6129	0.0	No	2.779	0.0	n/a	NoResponse	0	n/a	n/a	4	30	Fixation	MissedWin	True
295.07	0.17	Win2	0.6129	0.001	No	2.779	-0.001	4.0	NoResponse	0	0.192	294.262	4	30	Target	MissedWin	True
295.253	0.53	Win2	0.6129	n/a	No	2.779	n/a	n/a	NoResponse	0	n/a	n/a	4	30	Blank	MissedWin	True
295.262	0.3	Win2	0.6129	0.001	No	2.779	-0.001	4.0	NoResponse	0	0.192	n/a	4	30	ButtonPress	MissedWin	True
295.769	1.45	Win2	0.6129	n/a	No	2.779	n/a	5.0	NoResponse	0	0.007	294.776	4	30	Feedback	MissedWin	True
297.219	2.779	Win2	0.6129	n/a	No	2.779	n/a	n/a	NoResponse	0	0.0	n/a	4	30	ISIslide	MissedWin	True
300.018	0.25	Lose2	0.5938	0.0	No	2.832	0.018	n/a	NoResponse	-1	n/a	n/a	3	31	Cue	Loss	True
300.268	4.05	Lose2	0.5938	0.0	No	2.832	0.0	4.0	NoResponse	-1	3.911	303.179	3	31	Fixation	Loss	True
304.179	0.3	Lose2	0.5938	0.0	No	2.832	0.0	4.0	NoResponse	-1	3.911	n/a	3	31	ButtonPress	Loss	True
304.316	0.18	Lose2	0.5938	0.002	No	2.832	-0.002	n/a	NoResponse	-1	n/a	n/a	3	31	Target	Loss	True
304.5	0.52	Lose2	0.5938	n/a	No	2.832	n/a	n/a	NoResponse	-1	n/a	n/a	3	31	Blank	Loss	True
305.016	1.45	Lose2	0.5938	n/a	No	2.832	n/a	5.0	NoResponse	-1	0.028	304.044	3	31	Feedback	Loss	True
306.466	2.832	Lose2	0.5938	n/a	No	2.832	n/a	n/a	NoResponse	-1	0.0	n/a	3	31	ISIslide	Loss	True
309.314	0.25	Lose2	0.5758	0.001	No	2.636	0.014	n/a	NoResponse	-1	n/a	n/a	2	32	Cue	Loss	True
309.564	4.15	Lose2	0.5758	0.0	No	2.636	0.0	n/a	NoResponse	-1	n/a	n/a	2	32	Fixation	Loss	True
313.713	0.19	Lose2	0.5758	0.001	No	2.636	-0.001	4.0	NoResponse	-1	0.226	312.939	2	32	Target	Loss	True
313.913	0.51	Lose2	0.5758	n/a	No	2.636	n/a	n/a	NoResponse	-1	n/a	n/a	2	32	Blank	Loss	True
313.939	0.3	Lose2	0.5758	0.001	No	2.636	-0.001	4.0	NoResponse	-1	0.226	n/a	2	32	ButtonPress	Loss	True
314.413	1.45	Lose2	0.5758	n/a	No	2.636	n/a	5.0	NoResponse	-1	0.046	313.459	2	32	Feedback	Loss	True
315.862	2.636	Lose2	0.5758	n/a	No	2.636	n/a	n/a	NoResponse	-1	0.0	n/a	2	32	ISIslide	Loss	True
318.528	0.25	Win2	0.5588000000000001	0.0	No	2.672	0.028	n/a	NoResponse	0	n/a	n/a	2	33	Cue	MissedWin	True
318.778	4.0	Win2	0.5588000000000001	0.0	No	2.672	0.0	n/a	NoResponse	0	n/a	n/a	2	33	Fixation	MissedWin	True
322.776	0.2	Win2	0.5588000000000001	0.002	No	2.672	-0.002	4.0	NoResponse	0	0.237	322.013	2	33	Target	MissedWin	True
322.976	0.5	Win2	0.5588000000000001	n/a	No	2.672	n/a	n/a	NoResponse	0	n/a	n/a	2	33	Blank	MissedWin	True
323.013	0.3	Win2	0.5588000000000001	0.002	No	2.672	-0.002	4.0	NoResponse	0	0.237	n/a	2	33	ButtonPress	MissedWin	True
323.476	1.45	Win2	0.5588000000000001	n/a	No	2.672	n/a	5.0	NoResponse	0	0.008	322.484	2	33	Feedback	MissedWin	True
324.926	2.672	Win2	0.5588000000000001	n/a	No	2.672	n/a	n/a	NoResponse	0	0.0	n/a	2	33	ISIslide	MissedWin	True
327.625	0.25	Lose2	0.5714	0.0	Yes	2.625	0.025	n/a	GoodResponse	0	n/a	n/a	2	34	Cue	AvoidedLoss	True
327.875	4.05	Lose2	0.5714	0.0	Yes	2.625	0.0	n/a	GoodResponse	0	n/a	n/a	2	34	Fixation	AvoidedLoss	True
331.923	0.21	Lose2	0.5714	0.002	Yes	2.625	-0.002	4.0	GoodResponse	0	0.201	331.124	2	34	Target	AvoidedLoss	True
332.124	0.3	Lose2	0.5714	0.002	Yes	2.625	-0.002	4.0	GoodResponse	0	0.201	n/a	2	34	ButtonPress	AvoidedLoss	True
332.14	0.49	Lose2	0.5714	n/a	Yes	2.625	n/a	n/a	GoodResponse	0	n/a	n/a	2	34	Blank	AvoidedLoss	True
332.623	1.45	Lose2	0.5714	n/a	Yes	2.625	n/a	5.0	GoodResponse	0	0.031	331.654	2	34	Feedback	AvoidedLoss	True
334.072	2.625	Lose2	0.5714	n/a	Yes	2.625	n/a	n/a	GoodResponse	0	0.0	n/a	2	34	ISIslide	AvoidedLoss	True
336.721	0.25	Lose2	0.5832999999999999	0.0	Yes	2.679	0.021	n/a	GoodResponse	0	n/a	n/a	2	35	Cue	AvoidedLoss	True
336.971	4.0	Lose2	0.5832999999999999	0.0	Yes	2.679	0.0	n/a	GoodResponse	0	n/a	n/a	2	35	Fixation	AvoidedLoss	True
340.97	0.22	Lose2	0.5832999999999999	0.001	Yes	2.679	-0.001	4.0	GoodResponse	0	0.209	340.179	2	35	Target	AvoidedLoss	True
341.179	0.3	Lose2	0.5832999999999999	0.001	Yes	2.679	-0.001	4.0	GoodResponse	0	0.209	n/a	2	35	ButtonPress	AvoidedLoss	True
341.186	0.48	Lose2	0.5832999999999999	n/a	Yes	2.679	n/a	n/a	GoodResponse	0	n/a	n/a	2	35	Blank	AvoidedLoss	True
341.67	1.45	Lose2	0.5832999999999999	n/a	Yes	2.679	n/a	5.0	GoodResponse	0	0.008	340.678	2	35	Feedback	AvoidedLoss	True
343.119	2.679	Lose2	0.5832999999999999	n/a	Yes	2.679	n/a	n/a	GoodResponse	0	0.0	n/a	2	35	ISIslide	AvoidedLoss	True
345.818	0.25	Control	0.5946	0.0	Yes	2.682	0.018	n/a	GoodResponse	0	n/a	n/a	2	36	Cue	Neutral	True
346.068	4.0	Control	0.5946	0.0	Yes	2.682	0.0	n/a	GoodResponse	0	n/a	n/a	2	36	Fixation	Neutral	True
350.067	0.23	Control	0.5946	0.001	Yes	2.682	-0.001	4.0	GoodResponse	0	0.201	349.268	2	36	Target	Neutral	True
350.268	0.3	Control	0.5946	0.001	Yes	2.682	-0.001	4.0	GoodResponse	0	0.201	n/a	2	36	ButtonPress	Neutral	True
350.3	0.47	Control	0.5946	n/a	Yes	2.682	n/a	n/a	GoodResponse	0	n/a	n/a	2	36	Blank	Neutral	True
350.766	1.45	Control	0.5946	n/a	Yes	2.682	n/a	5.0	GoodResponse	0	0.034	349.8	2	36	Feedback	Neutral	True
352.216	2.682	Control	0.5946	n/a	Yes	2.682	n/a	n/a	GoodResponse	0	0.0	n/a	2	36	ISIslide	Neutral	True
354.915	0.25	Win2	0.5789	0.0	No	2.885	0.015	n/a	PrematurePress	0	n/a	n/a	2	37	Cue	MissedWin	True
355.165	4.0	Win2	0.5789	0.0	No	2.885	0.0	n/a	PrematurePress	0	n/a	n/a	2	37	Fixation	MissedWin	True
359.163	0.24	Win2	0.5789	0.002	No	2.885	-0.002	4.0	PrematurePress	0	0.074	358.237	2	37	Target	MissedWin	True
359.237	0.3	Win2	0.5789	0.002	No	2.885	-0.002	4.0	PrematurePress	0	0.074	n/a	2	37	ButtonPress	MissedWin	True
359.413	0.46	Win2	0.5789	n/a	No	2.885	n/a	n/a	PrematurePress	0	n/a	n/a	2	37	Blank	MissedWin	True
359.863	1.45	Win2	0.5789	n/a	No	2.885	n/a	5.0	PrematurePress	0	0.01	358.873	2	37	Feedback	MissedWin	True
361.313	2.885	Win2	0.5789	n/a	No	2.885	n/a	n/a	PrematurePress	0	0.0	n/a	2	37	ISIslide	MissedWin	True
364.228	0.25	Lose2	0.5897	0.0	Yes	2.822	0.028	n/a	GoodResponse	0	n/a	n/a	2	38	Cue	AvoidedLoss	True
364.478	3.95	Lose2	0.5897	0.0	Yes	2.822	0.0	n/a	GoodResponse	0	n/a	n/a	2	38	Fixation	AvoidedLoss	True
368.427	0.25	Lose2	0.5897	0.001	Yes	2.822	-0.001	4.0	GoodResponse	0	0.248	367.675	2	38	Target	AvoidedLoss	True
368.675	0.3	Lose2	0.5897	0.001	Yes	2.822	-0.001	4.0	GoodResponse	0	0.248	n/a	2	38	ButtonPress	AvoidedLoss	True
368.677	0.45	Lose2	0.5897	n/a	Yes	2.822	n/a	n/a	GoodResponse	0	n/a	n/a	2	38	Blank	AvoidedLoss	True
369.127	1.45	Lose2	0.5897	n/a	Yes	2.822	n/a	5.0	GoodResponse	0	0.014	368.141	2	38	Feedback	AvoidedLoss	True
370.576	2.822	Lose2	0.5897	n/a	Yes	2.822	n/a	n/a	GoodResponse	0	0.0	n/a	2	38	ISIslide	AvoidedLoss	True
373.425	0.25	Win2	0.6	0.0	Yes	2.975	0.025	n/a	GoodResponse	1	n/a	n/a	3	39	Cue	Win	True
373.675	4.1	Win2	0.6	0.0	Yes	2.975	0.0	n/a	GoodResponse	1	n/a	n/a	3	39	Fixation	Win	True
377.773	0.26	Win2	0.6	0.002	Yes	2.975	-0.002	4.0	GoodResponse	1	0.207	376.98	3	39	Target	Win	True
377.98	0.3	Win2	0.6	0.002	Yes	2.975	-0.002	4.0	GoodResponse	1	0.207	n/a	3	39	ButtonPress	Win	True
378.04	0.44	Win2	0.6	n/a	Yes	2.975	n/a	n/a	GoodResponse	1	n/a	n/a	3	39	Blank	Win	True
378.473	1.45	Win2	0.6	n/a	Yes	2.975	n/a	5.0	GoodResponse	1	0.034	377.507	3	39	Feedback	Win	True
379.923	2.975	Win2	0.6	n/a	Yes	2.975	n/a	n/a	GoodResponse	1	0.0	n/a	3	39	ISIslide	Win	True
382.922	0.25	Win2	0.6098	0.0	Yes	2.728	0.022	n/a	GoodResponse	1	n/a	n/a	4	40	Cue	Win	True
383.172	3.95	Win2	0.6098	0.0	Yes	2.728	0.0	n/a	GoodResponse	1	n/a	n/a	4	40	Fixation	Win	True
387.12	0.27	Win2	0.6098	0.002	Yes	2.728	-0.002	4.0	GoodResponse	1	0.179	386.299	4	40	Target	Win	True
387.299	0.3	Win2	0.6098	0.002	Yes	2.728	-0.002	4.0	GoodResponse	1	0.179	n/a	4	40	ButtonPress	Win	True
387.403	0.43	Win2	0.6098	n/a	Yes	2.728	n/a	n/a	GoodResponse	1	n/a	n/a	4	40	Blank	Win	True
387.82	1.45	Win2	0.6098	n/a	Yes	2.728	n/a	5.0	GoodResponse	1	0.004	386.824	4	40	Feedback	Win	True
389.269	2.728	Win2	0.6098	n/a	Yes	2.728	n/a	n/a	GoodResponse	1	0.0	n/a	4	40	ISIslide	Win	True
392.018	0.25	Win2	0.619	0.0	Yes	2.782	0.018	n/a	GoodResponse	1	n/a	n/a	5	41	Cue	Win	True
392.268	3.9	Win2	0.619	0.0	Yes	2.782	0.0	n/a	GoodResponse	1	n/a	n/a	5	41	Fixation	Win	True
396.167	0.28	Win2	0.619	0.001	Yes	2.782	-0.001	4.0	GoodResponse	1	0.24	395.407	5	41	Target	Win	True
396.407	0.3	Win2	0.619	0.001	Yes	2.782	-0.001	4.0	GoodResponse	1	0.24	n/a	5	41	ButtonPress	Win	True
396.45	0.42	Win2	0.619	n/a	Yes	2.782	n/a	n/a	GoodResponse	1	n/a	n/a	5	41	Blank	Win	True
396.867	1.45	Win2	0.619	n/a	Yes	2.782	n/a	5.0	GoodResponse	1	0.03	395.897	5	41	Feedback	Win	True
398.316	2.782	Win2	0.619	n/a	Yes	2.782	n/a	n/a	GoodResponse	1	0.0	n/a	5	41	ISIslide	Win	True
401.115	0.25	Control	0.6047	0.0	No	2.935	0.015	n/a	NoResponse	0	n/a	n/a	5	42	Cue	Neutral	True
401.365	3.85	Control	0.6047	0.0	No	2.935	0.0	n/a	NoResponse	0	n/a	n/a	5	42	Fixation	Neutral	True
405.214	0.29	Control	0.6047	0.001	No	2.935	-0.001	4.0	NoResponse	0	0.322	404.536	5	42	Target	Neutral	True
405.514	0.41	Control	0.6047	n/a	No	2.935	n/a	n/a	NoResponse	0	n/a	n/a	5	42	Blank	Neutral	True
405.536	0.3	Control	0.6047	0.001	No	2.935	-0.001	4.0	NoResponse	0	0.322	n/a	5	42	ButtonPress	Neutral	True
405.913	1.45	Control	0.6047	n/a	No	2.935	n/a	5.0	NoResponse	0	0.009	404.922	5	42	Feedback	Neutral	True
407.363	2.935	Control	0.6047	n/a	No	2.935	n/a	n/a	NoResponse	0	0.0	n/a	5	42	ISIslide	Neutral	True
410.312	0.25	Win2	0.6136	0.0	Yes	3.188	0.012	n/a	GoodResponse	1	n/a	n/a	6	43	Cue	Win	True
410.562	4.0	Win2	0.6136	0.0	Yes	3.188	0.0	n/a	GoodResponse	1	n/a	n/a	6	43	Fixation	Win	True
414.56	0.3	Win2	0.6136	0.002	Yes	3.188	-0.002	4.0	GoodResponse	1	0.205	413.765	6	43	Target	Win	True
414.765	0.3	Win2	0.6136	0.002	Yes	3.188	-0.002	4.0	GoodResponse	1	0.205	n/a	6	43	ButtonPress	Win	True
414.86	0.4	Win2	0.6136	n/a	Yes	3.188	n/a	n/a	GoodResponse	1	n/a	n/a	6	43	Blank	Win	True
415.26	1.45	Win2	0.6136	n/a	Yes	3.188	n/a	5.0	GoodResponse	1	0.027	414.287	6	43	Feedback	Win	True
416.71	3.188	Win2	0.6136	n/a	Yes	3.188	n/a	n/a	GoodResponse	1	0.0	n/a	6	43	ISIslide	Win	True
419.925	0.25	Win2	0.6222	0.0	Yes	2.975	0.025	n/a	GoodResponse	1	n/a	n/a	7	44	Cue	Win	True
420.175	4.0	Win2	0.6222	0.0	Yes	2.975	0.0	n/a	GoodResponse	1	n/a	n/a	7	44	Fixation	Win	True
424.174	0.31	Win2	0.6222	0.001	Yes	2.975	-0.001	4.0	GoodResponse	1	0.201	423.375	7	44	Target	Win	True
424.375	0.3	Win2	0.6222	0.001	Yes	2.975	-0.001	4.0	GoodResponse	1	0.201	n/a	7	44	ButtonPress	Win	True
424.49	0.39	Win2	0.6222	n/a	Yes	2.975	n/a	n/a	GoodResponse	1	n/a	n/a	7	44	Blank	Win	True
424.873	1.45	Win2	0.6222	n/a	Yes	2.975	n/a	5.0	GoodResponse	1	0.024	423.897	7	44	Feedback	Win	True
426.323	2.975	Win2	0.6222	n/a	Yes	2.975	n/a	n/a	GoodResponse	1	0.0	n/a	7	44	ISIslide	Win	True
429.322	0.25	Control	0.6304	0.0	Yes	2.878	0.022	n/a	GoodResponse	0	n/a	n/a	7	45	Cue	Neutral	True
429.572	4.1	Control	0.6304	0.0	Yes	2.878	0.0	n/a	GoodResponse	0	n/a	n/a	7	45	Fixation	Neutral	True
433.67	0.32	Control	0.6304	0.002	Yes	2.878	-0.002	4.0	GoodResponse	0	0.235	432.905	7	45	Target	Neutral	True
433.905	0.3	Control	0.6304	0.002	Yes	2.878	-0.002	4.0	GoodResponse	0	0.235	n/a	7	45	ButtonPress	Neutral	True
434.003	0.38	Control	0.6304	n/a	Yes	2.878	n/a	n/a	GoodResponse	0	n/a	n/a	7	45	Blank	Neutral	True
434.37	1.45	Control	0.6304	n/a	Yes	2.878	n/a	5.0	GoodResponse	0	0.039	433.409	7	45	Feedback	Neutral	True
435.819	2.878	Control	0.6304	n/a	Yes	2.878	n/a	n/a	GoodResponse	0	0.0	n/a	7	45	ISIslide	Neutral	True
438.718	0.25	Lose2	0.6383	0.001	Yes	3.382	0.018	n/a	GoodResponse	0	n/a	n/a	7	46	Cue	AvoidedLoss	True
438.968	4.0	Lose2	0.6383	0.0	Yes	3.382	0.0	n/a	GoodResponse	0	n/a	n/a	7	46	Fixation	AvoidedLoss	True
442.967	0.33	Lose2	0.6383	0.001	Yes	3.382	-0.001	4.0	GoodResponse	0	0.27	442.237	7	46	Target	AvoidedLoss	True
443.237	0.3	Lose2	0.6383	0.001	Yes	3.382	-0.001	4.0	GoodResponse	0	0.27	n/a	7	46	ButtonPress	AvoidedLoss	True
443.3	0.37	Lose2	0.6383	n/a	Yes	3.382	n/a	n/a	GoodResponse	0	n/a	n/a	7	46	Blank	AvoidedLoss	True
443.667	1.45	Lose2	0.6383	n/a	Yes	3.382	n/a	5.0	GoodResponse	0	0.01	442.677	7	46	Feedback	AvoidedLoss	True
445.116	3.382	Lose2	0.6383	n/a	Yes	3.382	n/a	n/a	GoodResponse	0	0.0	n/a	7	46	ISIslide	AvoidedLoss	True
448.515	0.25	Lose2	0.6457999999999999	0.0	Yes	2.685	0.015	n/a	GoodResponse	0	n/a	n/a	7	47	Cue	AvoidedLoss	True
448.765	4.0	Lose2	0.6457999999999999	0.0	Yes	2.685	0.0	n/a	GoodResponse	0	n/a	n/a	7	47	Fixation	AvoidedLoss	True
452.763	0.34	Lose2	0.6457999999999999	0.002	Yes	2.685	-0.002	4.0	GoodResponse	0	0.253	452.016	7	47	Target	AvoidedLoss	True
453.016	0.3	Lose2	0.6457999999999999	0.002	Yes	2.685	-0.002	4.0	GoodResponse	0	0.253	n/a	7	47	ButtonPress	AvoidedLoss	True
453.113	0.36	Lose2	0.6457999999999999	n/a	Yes	2.685	n/a	n/a	GoodResponse	0	n/a	n/a	7	47	Blank	AvoidedLoss	True
453.463	1.45	Lose2	0.6457999999999999	n/a	Yes	2.685	n/a	5.0	GoodResponse	0	0.018	452.481	7	47	Feedback	AvoidedLoss	True
454.913	2.685	Lose2	0.6457999999999999	n/a	Yes	2.685	n/a	n/a	GoodResponse	0	0.0	n/a	7	47	ISIslide	AvoidedLoss	True
457.628	0.25	Lose2	0.6531	0.001	Yes	3.022	0.028	n/a	GoodResponse	0	n/a	n/a	7	48	Cue	AvoidedLoss	True
457.878	3.95	Lose2	0.6531	0.0	Yes	3.022	0.0	n/a	GoodResponse	0	n/a	n/a	7	48	Fixation	AvoidedLoss	True
461.827	0.35	Lose2	0.6531	0.001	Yes	3.022	-0.001	4.0	GoodResponse	0	0.184	461.011	7	48	Target	AvoidedLoss	True
462.011	0.3	Lose2	0.6531	0.001	Yes	3.022	-0.001	4.0	GoodResponse	0	0.184	n/a	7	48	ButtonPress	AvoidedLoss	True
462.177	0.35	Lose2	0.6531	n/a	Yes	3.022	n/a	n/a	GoodResponse	0	n/a	n/a	7	48	Blank	AvoidedLoss	True
462.527	1.45	Lose2	0.6531	n/a	Yes	3.022	n/a	5.0	GoodResponse	0	0.028	461.555	7	48	Feedback	AvoidedLoss	True
463.976	3.022	Lose2	0.6531	n/a	Yes	3.022	n/a	n/a	GoodResponse	0	0.0	n/a	7	48	ISIslide	AvoidedLoss	True
467.025	0.25	Control	0.66	0.0	Yes	2.875	0.025	n/a	GoodResponse	0	n/a	n/a	7	49	Cue	Neutral	True
467.275	4.0	Control	0.66	0.0	Yes	2.875	0.0	n/a	GoodResponse	0	n/a	n/a	7	49	Fixation	Neutral	True
471.274	0.36	Control	0.66	0.001	Yes	2.875	-0.001	4.0	GoodResponse	0	0.227	470.501	7	49	Target	Neutral	True
471.501	0.3	Control	0.66	0.001	Yes	2.875	-0.001	4.0	GoodResponse	0	0.227	n/a	7	49	ButtonPress	Neutral	True
471.64	0.34	Control	0.66	n/a	Yes	2.875	n/a	n/a	GoodResponse	0	n/a	n/a	7	49	Blank	Neutral	True
471.973	1.45	Control	0.66	n/a	Yes	2.875	n/a	5.0	GoodResponse	0	0.045	471.018	7	49	Feedback	Neutral	True
473.423	2.875	Control	0.66	n/a	Yes	2.875	n/a	4.0	GoodResponse	0	0.826	n/a	7	49	ISIslide	Neutral	True
476.305	0.25	Control	0.6667000000000001	0.0	Yes	2.795	0.005	n/a	GoodResponse	0	n/a	n/a	7	50	Cue	Neutral	True
476.555	4.0	Control	0.6667000000000001	0.0	Yes	2.795	0.0	n/a	GoodResponse	0	n/a	n/a	7	50	Fixation	Neutral	True
480.554	0.36	Control	0.6667000000000001	0.001	Yes	2.795	-0.001	4.0	GoodResponse	0	0.187	479.741	7	50	Target	Neutral	True
480.741	0.3	Control	0.6667000000000001	0.001	Yes	2.795	-0.001	4.0	GoodResponse	0	0.187	n/a	7	50	ButtonPress	Neutral	True
480.92	0.34	Control	0.6667000000000001	n/a	Yes	2.795	n/a	n/a	GoodResponse	0	n/a	n/a	7	50	Blank	Neutral	True
481.253	1.45	Control	0.6667000000000001	n/a	Yes	2.795	n/a	5.0	GoodResponse	0	0.034	480.287	7	50	Feedback	Neutral	True
482.703	2.795	Control	0.6667000000000001	n/a	Yes	2.795	n/a	n/a	GoodResponse	0	0.0	n/a	7	50	ISIslide	Neutral	True
485.518	0.25	Control	0.6731	0.001	Yes	2.732	0.018	n/a	GoodResponse	0	n/a	n/a	7	51	Cue	Neutral	True
485.768	3.95	Control	0.6731	0.0	Yes	2.732	0.0	n/a	GoodResponse	0	n/a	n/a	7	51	Fixation	Neutral	True
489.717	0.35	Control	0.6731	0.001	Yes	2.732	-0.001	4.0	GoodResponse	0	0.222	488.939	7	51	Target	Neutral	True
489.939	0.3	Control	0.6731	0.001	Yes	2.732	-0.001	4.0	GoodResponse	0	0.222	n/a	7	51	ButtonPress	Neutral	True
490.067	0.35	Control	0.6731	n/a	Yes	2.732	n/a	n/a	GoodResponse	0	n/a	n/a	7	51	Blank	Neutral	True
490.417	1.45	Control	0.6731	n/a	Yes	2.732	n/a	5.0	GoodResponse	0	0.04	489.457	7	51	Feedback	Neutral	True
491.866	2.732	Control	0.6731	n/a	Yes	2.732	n/a	n/a	GoodResponse	0	0.0	n/a	7	51	ISIslide	Neutral	True
494.615	0.25	Control	0.6792	0.0	Yes	2.635	0.015	n/a	GoodResponse	0	n/a	n/a	7	52	Cue	Neutral	True
494.865	4.05	Control	0.6792	0.0	Yes	2.635	0.0	n/a	GoodResponse	0	n/a	n/a	7	52	Fixation	Neutral	True
498.914	0.34	Control	0.6792	0.001	Yes	2.635	-0.001	4.0	GoodResponse	0	0.297	498.211	7	52	Target	Neutral	True
499.211	0.3	Control	0.6792	0.001	Yes	2.635	-0.001	4.0	GoodResponse	0	0.297	n/a	7	52	ButtonPress	Neutral	True
499.264	0.36	Control	0.6792	n/a	Yes	2.635	n/a	n/a	GoodResponse	0	n/a	n/a	7	52	Blank	Neutral	True
499.613	1.45	Control	0.6792	n/a	Yes	2.635	n/a	5.0	GoodResponse	0	0.014	498.627	7	52	Feedback	Neutral	True
501.063	2.635	Control	0.6792	n/a	Yes	2.635	n/a	n/a	GoodResponse	0	0.0	n/a	7	52	ISIslide	Neutral	True
503.712	0.25	Win2	0.6851999999999999	0.0	Yes	2.938	0.012	n/a	GoodResponse	1	n/a	n/a	8	53	Cue	Win	True
503.962	4.05	Win2	0.6851999999999999	0.0	Yes	2.938	0.0	n/a	GoodResponse	1	n/a	n/a	8	53	Fixation	Win	True
508.01	0.33	Win2	0.6851999999999999	0.002	Yes	2.938	-0.002	4.0	GoodResponse	1	0.251	507.261	8	53	Target	Win	True
508.261	0.3	Win2	0.6851999999999999	0.002	Yes	2.938	-0.002	4.0	GoodResponse	1	0.251	n/a	8	53	ButtonPress	Win	True
508.344	0.37	Win2	0.6851999999999999	n/a	Yes	2.938	n/a	n/a	GoodResponse	1	n/a	n/a	8	53	Blank	Win	True
508.71	1.45	Win2	0.6851999999999999	n/a	Yes	2.938	n/a	5.0	GoodResponse	1	0.039	507.749	8	53	Feedback	Win	True
510.16	2.938	Win2	0.6851999999999999	n/a	Yes	2.938	n/a	n/a	GoodResponse	1	0.0	n/a	8	53	ISIslide	Win	True
513.125	0.25	Win2	0.6909000000000001	0.0	Yes	2.725	0.025	n/a	GoodResponse	1	n/a	n/a	9	54	Cue	Win	True
513.375	3.95	Win2	0.6909000000000001	0.0	Yes	2.725	0.0	n/a	GoodResponse	1	n/a	n/a	9	54	Fixation	Win	True
517.324	0.32	Win2	0.6909000000000001	0.001	Yes	2.725	-0.001	4.0	GoodResponse	1	0.202	516.526	9	54	Target	Win	True
517.526	0.3	Win2	0.6909000000000001	0.001	Yes	2.725	-0.001	4.0	GoodResponse	1	0.202	n/a	9	54	ButtonPress	Win	True
517.64	0.38	Win2	0.6909000000000001	n/a	Yes	2.725	n/a	n/a	GoodResponse	1	n/a	n/a	9	54	Blank	Win	True
518.024	1.45	Win2	0.6909000000000001	n/a	Yes	2.725	n/a	5.0	GoodResponse	1	0.042	517.066	9	54	Feedback	Win	True
519.473	2.725	Win2	0.6909000000000001	n/a	Yes	2.725	n/a	n/a	GoodResponse	1	0.0	n/a	9	54	ISIslide	Win	True
522.222	0.25	Control	0.6964	0.0	Yes	3.028	0.022	n/a	GoodResponse	0	n/a	n/a	9	55	Cue	Neutral	True
522.472	3.95	Control	0.6964	0.0	Yes	3.028	0.0	n/a	GoodResponse	0	n/a	n/a	9	55	Fixation	Neutral	True
526.421	0.31	Control	0.6964	0.001	Yes	3.028	-0.001	4.0	GoodResponse	0	0.234	525.655	9	55	Target	Neutral	True
526.655	0.3	Control	0.6964	0.001	Yes	3.028	-0.001	4.0	GoodResponse	0	0.234	n/a	9	55	ButtonPress	Neutral	True
526.737	0.39	Control	0.6964	n/a	Yes	3.028	n/a	n/a	GoodResponse	0	n/a	n/a	9	55	Blank	Neutral	True
527.12	1.45	Control	0.6964	n/a	Yes	3.028	n/a	5.0	GoodResponse	0	0.019	526.139	9	55	Feedback	Neutral	True
528.57	3.028	Control	0.6964	n/a	Yes	3.028	n/a	n/a	GoodResponse	0	0.0	n/a	9	55	ISIslide	Neutral	True
531.619	0.25	Control	0.7018000000000001	0.0	Yes	2.831	0.019	n/a	GoodResponse	0	n/a	n/a	9	56	Cue	Neutral	True
531.869	3.95	Control	0.7018000000000001	0.0	Yes	2.831	0.0	n/a	GoodResponse	0	n/a	n/a	9	56	Fixation	Neutral	True
535.817	0.3	Control	0.7018000000000001	0.002	Yes	2.831	-0.002	4.0	GoodResponse	0	0.175	534.992	9	56	Target	Neutral	True
535.992	0.3	Control	0.7018000000000001	0.002	Yes	2.831	-0.002	4.0	GoodResponse	0	0.175	n/a	9	56	ButtonPress	Neutral	True
536.117	0.4	Control	0.7018000000000001	n/a	Yes	2.831	n/a	n/a	GoodResponse	0	n/a	n/a	9	56	Blank	Neutral	True
536.517	1.45	Control	0.7018000000000001	n/a	Yes	2.831	n/a	5.0	GoodResponse	0	0.037	535.554	9	56	Feedback	Neutral	True
537.966	2.831	Control	0.7018000000000001	n/a	Yes	2.831	n/a	n/a	GoodResponse	0	0.0	n/a	9	56	ISIslide	Neutral	True
540.815	0.25	Control	0.7069	0.001	Yes	3.485	0.015	n/a	GoodResponse	0	n/a	n/a	9	57	Cue	Neutral	True
541.065	4.0	Control	0.7069	0.0	Yes	3.485	0.0	n/a	GoodResponse	0	n/a	n/a	9	57	Fixation	Neutral	True
545.064	0.29	Control	0.7069	0.001	Yes	3.485	-0.001	4.0	GoodResponse	0	0.25	544.314	9	57	Target	Neutral	True
545.314	0.3	Control	0.7069	0.001	Yes	3.485	-0.001	4.0	GoodResponse	0	0.25	n/a	9	57	ButtonPress	Neutral	True
545.364	0.41	Control	0.7069	n/a	Yes	3.485	n/a	n/a	GoodResponse	0	n/a	n/a	9	57	Blank	Neutral	True
545.764	1.45	Control	0.7069	n/a	Yes	3.485	n/a	5.0	GoodResponse	0	0.009	544.773	9	57	Feedback	Neutral	True
547.213	3.485	Control	0.7069	n/a	Yes	3.485	n/a	n/a	GoodResponse	0	0.0	n/a	9	57	ISIslide	Neutral	True
550.712	0.25	Win2	0.7119	0.0	Yes	2.738	0.012	n/a	GoodResponse	1	n/a	n/a	10	58	Cue	Win	True
550.962	4.05	Win2	0.7119	0.0	Yes	2.738	0.0	n/a	GoodResponse	1	n/a	n/a	10	58	Fixation	Win	True
555.01	0.28	Win2	0.7119	0.002	Yes	2.738	-0.002	4.0	GoodResponse	1	0.228	554.238	10	58	Target	Win	True
555.238	0.3	Win2	0.7119	0.002	Yes	2.738	-0.002	4.0	GoodResponse	1	0.228	n/a	10	58	ButtonPress	Win	True
555.294	0.42	Win2	0.7119	n/a	Yes	2.738	n/a	n/a	GoodResponse	1	n/a	n/a	10	58	Blank	Win	True
555.71	1.45	Win2	0.7119	n/a	Yes	2.738	n/a	5.0	GoodResponse	1	0.015	554.725	10	58	Feedback	Win	True
557.16	2.738	Win2	0.7119	n/a	Yes	2.738	n/a	n/a	GoodResponse	1	0.0	n/a	10	58	ISIslide	Win	True
559.925	0.25	Lose2	0.7167	0.0	Yes	2.675	0.025	n/a	GoodResponse	0	n/a	n/a	10	59	Cue	AvoidedLoss	True
560.175	4.0	Lose2	0.7167	0.0	Yes	2.675	0.0	n/a	GoodResponse	0	n/a	n/a	10	59	Fixation	AvoidedLoss	True
564.174	0.27	Lose2	0.7167	0.001	Yes	2.675	-0.001	4.0	GoodResponse	0	0.252	563.426	10	59	Target	AvoidedLoss	True
564.426	0.3	Lose2	0.7167	0.001	Yes	2.675	-0.001	4.0	GoodResponse	0	0.252	n/a	10	59	ButtonPress	AvoidedLoss	True
564.44	0.43	Lose2	0.7167	n/a	Yes	2.675	n/a	n/a	GoodResponse	0	n/a	n/a	10	59	Blank	AvoidedLoss	True
564.874	1.45	Lose2	0.7167	n/a	Yes	2.675	n/a	5.0	GoodResponse	0	0.02	563.894	10	59	Feedback	AvoidedLoss	True
566.323	2.675	Lose2	0.7167	n/a	Yes	2.675	n/a	n/a	GoodResponse	0	0.0	n/a	10	59	ISIslide	AvoidedLoss	True
569.022	0.25	Control	0.7212999999999999	0.0	Yes	2.678	0.022	n/a	GoodResponse	0	n/a	n/a	10	60	Cue	Neutral	True
569.272	4.0	Control	0.7212999999999999	0.0	Yes	2.678	0.0	n/a	GoodResponse	0	n/a	n/a	10	60	Fixation	Neutral	True
573.271	0.26	Control	0.7212999999999999	0.001	Yes	2.678	-0.001	4.0	GoodResponse	0	0.193	572.464	10	60	Target	Neutral	True
573.464	0.3	Control	0.7212999999999999	0.001	Yes	2.678	-0.001	4.0	GoodResponse	0	0.193	n/a	10	60	ButtonPress	Neutral	True
573.537	0.44	Control	0.7212999999999999	n/a	Yes	2.678	n/a	n/a	GoodResponse	0	n/a	n/a	10	60	Blank	Neutral	True
573.97	1.45	Control	0.7212999999999999	n/a	Yes	2.678	n/a	5.0	GoodResponse	0	0.047	573.017	10	60	Feedback	Neutral	True
575.42	2.678	Control	0.7212999999999999	n/a	Yes	2.678	n/a	n/a	GoodResponse	0	0.0	n/a	10	60	ISIslide	Neutral	True
578.119	0.25	Lose2	0.7258	0.0	Yes	2.981	0.019	n/a	GoodResponse	0	n/a	n/a	10	61	Cue	AvoidedLoss	True
578.369	4.0	Lose2	0.7258	0.0	Yes	2.981	0.0	n/a	GoodResponse	0	n/a	n/a	10	61	Fixation	AvoidedLoss	True
582.367	0.25	Lose2	0.7258	0.002	Yes	2.981	-0.002	4.0	GoodResponse	0	0.207	581.574	10	61	Target	AvoidedLoss	True
582.574	0.3	Lose2	0.7258	0.002	Yes	2.981	-0.002	4.0	GoodResponse	0	0.207	n/a	10	61	ButtonPress	AvoidedLoss	True
582.617	0.45	Lose2	0.7258	n/a	Yes	2.981	n/a	n/a	GoodResponse	0	n/a	n/a	10	61	Blank	AvoidedLoss	True
583.067	1.45	Lose2	0.7258	n/a	Yes	2.981	n/a	5.0	GoodResponse	0	0.023	582.09	10	61	Feedback	AvoidedLoss	True
584.517	2.981	Lose2	0.7258	n/a	Yes	2.981	n/a	n/a	GoodResponse	0	0.0	n/a	10	61	ISIslide	AvoidedLoss	True
587.516	0.25	Lose2	0.7143	0.0	No	2.884	0.016	n/a	NoResponse	-1	n/a	n/a	9	62	Cue	Loss	True
587.765	3.9	Lose2	0.7143	0.001	No	2.884	-0.001	n/a	NoResponse	-1	n/a	n/a	9	62	Fixation	Loss	True
591.664	0.24	Lose2	0.7143	0.002	No	2.884	-0.002	4.0	NoResponse	-1	0.259	590.923	9	62	Target	Loss	True
591.914	0.46	Lose2	0.7143	n/a	No	2.884	n/a	n/a	NoResponse	-1	n/a	n/a	9	62	Blank	Loss	True
591.923	0.3	Lose2	0.7143	0.002	No	2.884	-0.002	4.0	NoResponse	-1	0.259	n/a	9	62	ButtonPress	Loss	True
592.364	1.45	Lose2	0.7143	n/a	No	2.884	n/a	5.0	NoResponse	-1	0.043	591.407	9	62	Feedback	Loss	True
593.813	2.884	Lose2	0.7143	n/a	No	2.884	n/a	n/a	NoResponse	-1	0.0	n/a	9	62	ISIslide	Loss	True
596.712	0.25	Lose2	0.7188	0.0	Yes	2.638	0.012	n/a	GoodResponse	0	n/a	n/a	9	63	Cue	AvoidedLoss	True
596.962	4.05	Lose2	0.7188	0.0	Yes	2.638	0.0	n/a	GoodResponse	0	n/a	n/a	9	63	Fixation	AvoidedLoss	True
601.011	0.23	Lose2	0.7188	0.001	Yes	2.638	-0.001	4.0	GoodResponse	0	0.215	600.226	9	63	Target	AvoidedLoss	True
601.226	0.3	Lose2	0.7188	0.001	Yes	2.638	-0.001	4.0	GoodResponse	0	0.215	n/a	9	63	ButtonPress	AvoidedLoss	True
601.244	0.47	Lose2	0.7188	n/a	Yes	2.638	n/a	n/a	GoodResponse	0	n/a	n/a	9	63	Blank	AvoidedLoss	True
601.71	1.45	Lose2	0.7188	n/a	Yes	2.638	n/a	5.0	GoodResponse	0	0.013	600.723	9	63	Feedback	AvoidedLoss	True
603.16	2.638	Lose2	0.7188	n/a	Yes	2.638	n/a	n/a	GoodResponse	0	0.0	n/a	9	63	ISIslide	AvoidedLoss	True
605.826	0.25	Win2	0.7077	0.0	No	3.124	0.026	n/a	PrematurePress	0	n/a	n/a	9	64	Cue	MissedWin	True
606.076	4.15	Win2	0.7077	0.0	No	3.124	0.0	n/a	PrematurePress	0	n/a	n/a	9	64	Fixation	MissedWin	True
610.224	0.22	Win2	0.7077	0.002	No	3.124	-0.002	4.0	PrematurePress	0	0.024	609.248	9	64	Target	MissedWin	True
610.248	0.3	Win2	0.7077	0.002	No	3.124	-0.002	4.0	PrematurePress	0	0.024	n/a	9	64	ButtonPress	MissedWin	True
610.457	0.48	Win2	0.7077	n/a	No	3.124	n/a	n/a	PrematurePress	0	n/a	n/a	9	64	Blank	MissedWin	True
610.924	1.45	Win2	0.7077	n/a	No	3.124	n/a	5.0	PrematurePress	0	0.019	609.943	9	64	Feedback	MissedWin	True
612.373	3.124	Win2	0.7077	n/a	No	3.124	n/a	n/a	PrematurePress	0	0.0	n/a	9	64	ISIslide	MissedWin	True
615.522	0.25	Control	0.6970000000000001	0.0	No	2.778	0.022	n/a	NoResponse	0	n/a	n/a	9	65	Cue	Neutral	True
615.772	4.0	Control	0.6970000000000001	0.0	No	2.778	0.0	n/a	NoResponse	0	n/a	n/a	9	65	Fixation	Neutral	True
619.771	0.21	Control	0.6970000000000001	0.001	No	2.778	-0.001	4.0	NoResponse	0	0.345	619.116	9	65	Target	Neutral	True
619.987	0.49	Control	0.6970000000000001	n/a	No	2.778	n/a	n/a	NoResponse	0	n/a	n/a	9	65	Blank	Neutral	True
620.116	0.3	Control	0.6970000000000001	0.001	No	2.778	-0.001	4.0	NoResponse	0	0.345	n/a	9	65	ButtonPress	Neutral	True
620.47	1.45	Control	0.6970000000000001	n/a	No	2.778	n/a	5.0	NoResponse	0	0.034	619.504	9	65	Feedback	Neutral	True
621.92	2.778	Control	0.6970000000000001	n/a	No	2.778	n/a	n/a	NoResponse	0	0.0	n/a	9	65	ISIslide	Neutral	True
624.719	0.25	Win2	0.6866	0.0	No	2.781	0.019	n/a	NoResponse	0	n/a	n/a	9	66	Cue	MissedWin	True
624.969	3.9	Win2	0.6866	0.0	No	2.781	0.0	n/a	NoResponse	0	n/a	n/a	9	66	Fixation	MissedWin	True
628.867	0.2	Win2	0.6866	0.002	No	2.781	-0.002	4.0	NoResponse	0	0.216	628.083	9	66	Target	MissedWin	True
629.067	0.5	Win2	0.6866	n/a	No	2.781	n/a	n/a	NoResponse	0	n/a	n/a	9	66	Blank	MissedWin	True
629.083	0.3	Win2	0.6866	0.002	No	2.781	-0.002	4.0	NoResponse	0	0.216	n/a	9	66	ButtonPress	MissedWin	True
629.567	1.45	Win2	0.6866	n/a	No	2.781	n/a	5.0	NoResponse	0	0.01	628.577	9	66	Feedback	MissedWin	True
631.017	2.781	Win2	0.6866	n/a	No	2.781	n/a	n/a	NoResponse	0	0.0	n/a	9	66	ISIslide	MissedWin	True
633.816	0.25	Control	0.6765000000000001	0.0	No	2.734	0.016	n/a	NoResponse	0	n/a	n/a	9	67	Cue	Neutral	True
634.066	3.95	Control	0.6765000000000001	0.0	No	2.734	0.0	n/a	NoResponse	0	n/a	n/a	9	67	Fixation	Neutral	True
638.014	0.19	Control	0.6765000000000001	0.002	No	2.734	-0.002	4.0	NoResponse	0	0.237	637.251	9	67	Target	Neutral	True
638.214	0.51	Control	0.6765000000000001	n/a	No	2.734	n/a	n/a	NoResponse	0	n/a	n/a	9	67	Blank	Neutral	True
638.251	0.3	Control	0.6765000000000001	0.002	No	2.734	-0.002	4.0	NoResponse	0	0.237	n/a	9	67	ButtonPress	Neutral	True
638.714	1.45	Control	0.6765000000000001	n/a	No	2.734	n/a	5.0	NoResponse	0	0.033	637.747	9	67	Feedback	Neutral	True
640.163	2.734	Control	0.6765000000000001	n/a	No	2.734	n/a	n/a	NoResponse	0	0.0	n/a	9	67	ISIslide	Neutral	True
642.912	0.25	Win2	0.6812	0.001	Yes	3.088	0.012	n/a	GoodResponse	1	n/a	n/a	10	68	Cue	Win	True
643.162	4.0	Win2	0.6812	0.001	Yes	3.088	0.0	n/a	GoodResponse	1	n/a	n/a	10	68	Fixation	Win	True
647.161	0.18	Win2	0.6812	0.001	Yes	3.088	-0.001	4.0	GoodResponse	1	0.178	646.339	10	68	Target	Win	True
647.339	0.3	Win2	0.6812	0.001	Yes	3.088	-0.001	4.0	GoodResponse	1	0.178	n/a	10	68	ButtonPress	Win	True
647.344	0.52	Win2	0.6812	n/a	Yes	3.088	n/a	n/a	GoodResponse	1	n/a	n/a	10	68	Blank	Win	True
647.861	1.45	Win2	0.6812	n/a	Yes	3.088	n/a	5.0	GoodResponse	1	0.008	646.869	10	68	Feedback	Win	True
649.31	3.088	Win2	0.6812	n/a	Yes	3.088	n/a	n/a	GoodResponse	1	0.0	n/a	10	68	ISIslide	Win	True
652.426	0.25	Win2	0.6714	0.0	No	3.224	0.026	n/a	NoResponse	0	n/a	n/a	10	69	Cue	MissedWin	True
652.676	3.95	Win2	0.6714	0.0	No	3.224	0.0	n/a	NoResponse	0	n/a	n/a	10	69	Fixation	MissedWin	True
656.624	0.17	Win2	0.6714	0.002	No	3.224	-0.002	4.0	NoResponse	0	0.267	655.891	10	69	Target	MissedWin	True
656.808	0.53	Win2	0.6714	n/a	No	3.224	n/a	n/a	NoResponse	0	n/a	n/a	10	69	Blank	MissedWin	True
656.891	0.3	Win2	0.6714	0.002	No	3.224	-0.002	4.0	NoResponse	0	0.267	n/a	10	69	ButtonPress	MissedWin	True
657.324	1.45	Win2	0.6714	n/a	No	3.224	n/a	5.0	NoResponse	0	0.009	656.333	10	69	Feedback	MissedWin	True
658.774	3.224	Win2	0.6714	n/a	No	3.224	n/a	n/a	NoResponse	0	0.0	n/a	10	69	ISIslide	MissedWin	True
662.022	0.25	Lose2	0.662	0.0	No	3.028	0.022	n/a	NoResponse	-1	n/a	n/a	9	70	Cue	Loss	True
662.272	4.05	Lose2	0.662	0.0	No	3.028	0.0	n/a	NoResponse	-1	n/a	n/a	9	70	Fixation	Loss	True
666.321	0.16	Lose2	0.662	0.001	No	3.028	-0.001	4.0	NoResponse	-1	0.204	665.525	9	70	Target	Loss	True
666.487	0.54	Lose2	0.662	n/a	No	3.028	n/a	n/a	NoResponse	-1	n/a	n/a	9	70	Blank	Loss	True
666.525	0.3	Lose2	0.662	0.001	No	3.028	-0.001	4.0	NoResponse	-1	0.204	n/a	9	70	ButtonPress	Loss	True
667.021	1.45	Lose2	0.662	n/a	No	3.028	n/a	5.0	NoResponse	-1	0.019	666.04	9	70	Feedback	Loss	True
668.47	3.028	Lose2	0.662	n/a	No	3.028	n/a	n/a	NoResponse	-1	0.0	n/a	9	70	ISIslide	Loss	True
671.519	0.25	Win2	0.6667000000000001	0.0	Yes	2.731	0.019	n/a	GoodResponse	1	n/a	n/a	10	71	Cue	Win	True
671.769	4.05	Win2	0.6667000000000001	0.0	Yes	2.731	0.0	n/a	GoodResponse	1	n/a	n/a	10	71	Fixation	Win	True
675.817	0.16	Win2	0.6667000000000001	0.002	Yes	2.731	-0.002	4.0	GoodResponse	1	0.155	674.972	10	71	Target	Win	True
675.972	0.3	Win2	0.6667000000000001	0.002	Yes	2.731	-0.002	4.0	GoodResponse	1	0.155	n/a	10	71	ButtonPress	Win	True
675.984	0.54	Win2	0.6667000000000001	n/a	Yes	2.731	n/a	n/a	GoodResponse	1	n/a	n/a	10	71	Blank	Win	True
676.517	1.45	Win2	0.6667000000000001	n/a	Yes	2.731	n/a	5.0	GoodResponse	1	0.034	675.551	10	71	Feedback	Win	True
677.967	2.731	Win2	0.6667000000000001	n/a	Yes	2.731	n/a	n/a	GoodResponse	1	0.0	n/a	10	71	ISIslide	Win	True
680.716	0.25	Win2	0.6575	0.0	No	2.784	0.016	n/a	LatePress	0	n/a	n/a	10	72	Cue	MissedWin	True
680.966	4.1	Win2	0.6575	0.0	No	2.784	0.0	n/a	LatePress	0	n/a	n/a	10	72	Fixation	MissedWin	True
685.064	0.15	Win2	0.6575	0.002	No	2.784	-0.002	4.0	LatePress	0	0.151	684.215	10	72	Target	MissedWin	True
685.214	0.55	Win2	0.6575	n/a	No	2.784	n/a	n/a	LatePress	0	n/a	n/a	10	72	Blank	MissedWin	True
685.215	0.3	Win2	0.6575	0.002	No	2.784	-0.002	4.0	LatePress	0	0.151	n/a	10	72	ButtonPress	MissedWin	True
685.764	1.45	Win2	0.6575	n/a	No	2.784	n/a	5.0	LatePress	0	0.007	684.771	10	72	Feedback	MissedWin	True
687.213	2.784	Win2	0.6575	n/a	No	2.784	n/a	n/a	LatePress	0	0.0	n/a	10	72	ISIslide	MissedWin	True
690.012	0.25	Win2	0.6486	0.0	No	2.688	0.012	n/a	NoResponse	0	n/a	n/a	10	73	Cue	MissedWin	True
690.262	4.0	Win2	0.6486	0.0	No	2.688	0.0	n/a	NoResponse	0	n/a	n/a	10	73	Fixation	MissedWin	True
694.261	0.15	Win2	0.6486	0.001	No	2.688	-0.001	4.0	NoResponse	0	0.196	693.457	10	73	Target	MissedWin	True
694.411	0.55	Win2	0.6486	n/a	No	2.688	n/a	n/a	NoResponse	0	n/a	n/a	10	73	Blank	MissedWin	True
694.457	0.3	Win2	0.6486	0.001	No	2.688	-0.001	4.0	NoResponse	0	0.196	n/a	10	73	ButtonPress	MissedWin	True
694.961	1.45	Win2	0.6486	n/a	No	2.688	n/a	5.0	NoResponse	0	0.03	693.991	10	73	Feedback	MissedWin	True
696.41	2.688	Win2	0.6486	n/a	No	2.688	n/a	n/a	NoResponse	0	0.0	n/a	10	73	ISIslide	MissedWin	True
699.126	0.25	Lose2	0.64	0.0	No	2.624	0.026	n/a	NoResponse	-1	n/a	n/a	9	74	Cue	Loss	True
699.376	4.05	Lose2	0.64	0.0	No	2.624	0.0	n/a	NoResponse	-1	n/a	n/a	9	74	Fixation	Loss	True
703.424	0.16	Lose2	0.64	0.002	No	2.624	-0.002	4.0	NoResponse	-1	0.184	702.608	9	74	Target	Loss	True
703.591	0.54	Lose2	0.64	n/a	No	2.624	n/a	n/a	NoResponse	-1	n/a	n/a	9	74	Blank	Loss	True
703.608	0.3	Lose2	0.64	0.002	No	2.624	-0.002	4.0	NoResponse	-1	0.184	n/a	9	74	ButtonPress	Loss	True
704.124	1.45	Lose2	0.64	n/a	No	2.624	n/a	5.0	NoResponse	-1	0.038	703.162	9	74	Feedback	Loss	True
705.574	2.624	Lose2	0.64	n/a	No	2.624	n/a	n/a	NoResponse	-1	0.0	n/a	9	74	ISIslide	Loss	True
708.223	0.25	Lose2	0.6315999999999999	0.0	No	2.927	0.023	n/a	NoResponse	-1	n/a	n/a	8	75	Cue	Loss	True
708.473	3.95	Lose2	0.6315999999999999	0.0	No	2.927	0.0	n/a	NoResponse	-1	n/a	n/a	8	75	Fixation	Loss	True
712.421	0.17	Lose2	0.6315999999999999	0.002	No	2.927	-0.002	4.0	NoResponse	-1	0.2	711.621	8	75	Target	Loss	True
712.604	0.53	Lose2	0.6315999999999999	n/a	No	2.927	n/a	n/a	NoResponse	-1	n/a	n/a	8	75	Blank	Loss	True
712.621	0.3	Lose2	0.6315999999999999	0.002	No	2.927	-0.002	4.0	NoResponse	-1	0.2	n/a	8	75	ButtonPress	Loss	True
713.121	1.45	Lose2	0.6315999999999999	n/a	No	2.927	n/a	5.0	NoResponse	-1	0.015	712.136	8	75	Feedback	Loss	True
714.57	2.927	Lose2	0.6315999999999999	n/a	No	2.927	n/a	n/a	NoResponse	-1	0.0	n/a	8	75	ISIslide	Loss	True
717.519	0.25	Control	0.6234000000000001	0.0	No	3.231	0.019	n/a	NoResponse	0	n/a	n/a	8	76	Cue	Neutral	True
717.769	4.05	Control	0.6234000000000001	0.0	No	3.231	0.0	n/a	NoResponse	0	n/a	n/a	8	76	Fixation	Neutral	True
721.818	0.18	Control	0.6234000000000001	0.001	No	3.231	-0.001	4.0	NoResponse	0	0.194	721.012	8	76	Target	Neutral	True
722.001	0.52	Control	0.6234000000000001	n/a	No	3.231	n/a	n/a	NoResponse	0	n/a	n/a	8	76	Blank	Neutral	True
722.012	0.3	Control	0.6234000000000001	0.001	No	3.231	-0.001	4.0	NoResponse	0	0.194	n/a	8	76	ButtonPress	Neutral	True
722.518	1.45	Control	0.6234000000000001	n/a	No	3.231	n/a	5.0	NoResponse	0	0.033	721.551	8	76	Feedback	Neutral	True
723.967	3.231	Control	0.6234000000000001	n/a	No	3.231	n/a	n/a	NoResponse	0	0.0	n/a	8	76	ISIslide	Neutral	True
727.216	0.25	Lose2	0.6282	0.0	Yes	2.584	0.016	n/a	GoodResponse	0	n/a	n/a	8	77	Cue	AvoidedLoss	True
727.466	3.95	Lose2	0.6282	0.0	Yes	2.584	0.0	n/a	GoodResponse	0	n/a	n/a	8	77	Fixation	AvoidedLoss	True
731.414	0.19	Lose2	0.6282	0.002	Yes	2.584	-0.002	4.0	GoodResponse	0	0.16	730.574	8	77	Target	AvoidedLoss	True
731.574	0.3	Lose2	0.6282	0.002	Yes	2.584	-0.002	4.0	GoodResponse	0	0.16	n/a	8	77	ButtonPress	AvoidedLoss	True
731.614	0.51	Lose2	0.6282	n/a	Yes	2.584	n/a	n/a	GoodResponse	0	n/a	n/a	8	77	Blank	AvoidedLoss	True
732.114	1.45	Lose2	0.6282	n/a	Yes	2.584	n/a	5.0	GoodResponse	0	0.047	731.161	8	77	Feedback	AvoidedLoss	True
733.564	2.584	Lose2	0.6282	n/a	Yes	2.584	n/a	n/a	GoodResponse	0	0.0	n/a	8	77	ISIslide	AvoidedLoss	True
