onset	duration	cue_type	current_mean_accuracy	duration_error	is_hit	isi_adjusted	onset_delay	response	response_type	reward	rt	rt_time	total_reward	trial_number	trial_phase	trial_type	one_press
11.108	0.25	Control	1.0	0.0	Yes	2.942	0.008	n/a	GoodResponse	0	n/a	n/a	0	0	Cue	Neutral	True
11.358	3.85	Control	1.0	0.0	Yes	2.942	0.0	n/a	GoodResponse	0	n/a	n/a	0	0	Fixation	Neutral	True
15.206	0.4	Control	1.0	0.002	Yes	2.942	-0.002	2.0	GoodResponse	0	0.272	14.478	0	0	Target	Neutral	True
15.478	0.3	Control	1.0	0.002	Yes	2.942	-0.002	2.0	GoodResponse	0	0.272	n/a	0	0	ButtonPress	Neutral	True
15.606	0.3	Control	1.0	n/a	Yes	2.942	n/a	n/a	GoodResponse	0	n/a	n/a	0	0	Blank	Neutral	True
15.906	1.45	Control	1.0	n/a	Yes	2.942	n/a	5.0	GoodResponse	0	0.02	14.926	0	0	Feedback	Neutral	True
17.356	2.942	Control	1.0	n/a	Yes	2.942	n/a	n/a	GoodResponse	0	0.0	n/a	0	0	ISIslide	Neutral	True
20.321	0.25	Lose2	1.0	0.0	Yes	2.779	0.021	n/a	GoodResponse	0	n/a	n/a	0	1	Cue	AvoidedLoss	True
20.571	4.0	Lose2	1.0	0.0	Yes	2.779	0.0	n/a	GoodResponse	0	n/a	n/a	0	1	Fixation	AvoidedLoss	True
24.57	0.39	Lose2	1.0	0.001	Yes	2.779	-0.001	2.0	GoodResponse	0	0.285	23.855	0	1	Target	AvoidedLoss	True
24.855	0.3	Lose2	1.0	0.001	Yes	2.779	-0.001	2.0	GoodResponse	0	0.285	n/a	0	1	ButtonPress	AvoidedLoss	True
24.97	0.31	Lose2	1.0	n/a	Yes	2.779	n/a	n/a	GoodResponse	0	n/a	n/a	0	1	Blank	AvoidedLoss	True
25.269	1.45	Lose2	1.0	n/a	Yes	2.779	n/a	5.0	GoodResponse	0	0.022	24.291	0	1	Feedback	AvoidedLoss	True
26.719	2.779	Lose2	1.0	n/a	Yes	2.779	n/a	n/a	GoodResponse	0	0.0	n/a	0	1	ISIslide	AvoidedLoss	True
29.518	0.25	Control	1.0	0.0	Yes	2.582	0.018	n/a	GoodResponse	0	n/a	n/a	0	2	Cue	Neutral	True
29.768	4.1	Control	1.0	0.0	Yes	2.582	0.0	n/a	GoodResponse	0	n/a	n/a	0	2	Fixation	Neutral	True
33.866	0.38	Control	1.0	0.002	Yes	2.582	-0.002	2.0	GoodResponse	0	0.261	33.127	0	2	Target	Neutral	True
34.127	0.3	Control	1.0	0.002	Yes	2.582	-0.002	2.0	GoodResponse	0	0.261	n/a	0	2	ButtonPress	Neutral	True
34.25	0.32	Control	1.0	n/a	Yes	2.582	n/a	n/a	GoodResponse	0	n/a	n/a	0	2	Blank	Neutral	True
34.566	1.45	Control	1.0	n/a	Yes	2.582	n/a	5.0	GoodResponse	0	0.042	33.608	0	2	Feedback	Neutral	True
36.016	2.582	Control	1.0	n/a	Yes	2.582	n/a	n/a	GoodResponse	0	0.0	n/a	0	2	ISIslide	Neutral	True
38.615	0.25	Win2	1.0	0.0	Yes	2.835	0.015	n/a	GoodResponse	1	n/a	n/a	1	3	Cue	Win	True
38.865	3.95	Win2	1.0	0.0	Yes	2.835	0.0	n/a	GoodResponse	1	n/a	n/a	1	3	Fixation	Win	True
42.813	0.37	Win2	1.0	0.002	Yes	2.835	-0.002	2.0	GoodResponse	1	0.285	42.098	1	3	Target	Win	True
43.098	0.3	Win2	1.0	0.002	Yes	2.835	-0.002	2.0	GoodResponse	1	0.285	n/a	1	3	ButtonPress	Win	True
43.197	0.33	Win2	1.0	n/a	Yes	2.835	n/a	n/a	GoodResponse	1	n/a	n/a	1	3	Blank	Win	True
43.513	1.45	Win2	1.0	n/a	Yes	2.835	n/a	5.0	GoodResponse	1	0.022	42.535	1	3	Feedback	Win	True
44.963	2.835	Win2	1.0	n/a	Yes	2.835	n/a	n/a	GoodResponse	1	0.0	n/a	1	3	ISIslide	Win	True
47.828	0.25	Win2	1.0	0.0	Yes	3.272	0.028	n/a	GoodResponse	1	n/a	n/a	2	4	Cue	Win	True
48.078	4.0	Win2	1.0	0.0	Yes	3.272	0.0	n/a	GoodResponse	1	n/a	n/a	2	4	Fixation	Win	True
52.077	0.36	Win2	1.0	0.001	Yes	3.272	-0.001	2.0	GoodResponse	1	0.252	51.329	2	4	Target	Win	True
52.329	0.3	Win2	1.0	0.001	Yes	3.272	-0.001	2.0	GoodResponse	1	0.252	n/a	2	4	ButtonPress	Win	True
52.443	0.34	Win2	1.0	n/a	Yes	3.272	n/a	n/a	GoodResponse	1	n/a	n/a	2	4	Blank	Win	True
52.776	1.45	Win2	1.0	n/a	Yes	3.272	n/a	5.0	GoodResponse	1	0.028	51.804	2	4	Feedback	Win	True
54.226	3.272	Win2	1.0	n/a	Yes	3.272	n/a	n/a	GoodResponse	1	0.0	n/a	2	4	ISIslide	Win	True
57.525	0.25	Win2	1.0	0.0	Yes	2.775	0.025	n/a	GoodResponse	1	n/a	n/a	3	5	Cue	Win	True
57.775	4.0	Win2	1.0	0.0	Yes	2.775	0.0	n/a	GoodResponse	1	n/a	n/a	3	5	Fixation	Win	True
61.773	0.35	Win2	1.0	0.002	Yes	2.775	-0.002	2.0	GoodResponse	1	0.269	61.042	3	5	Target	Win	True
62.042	0.3	Win2	1.0	0.002	Yes	2.775	-0.002	2.0	GoodResponse	1	0.269	n/a	3	5	ButtonPress	Win	True
62.123	0.35	Win2	1.0	n/a	Yes	2.775	n/a	n/a	GoodResponse	1	n/a	n/a	3	5	Blank	Win	True
62.473	1.45	Win2	1.0	n/a	Yes	2.775	n/a	5.0	GoodResponse	1	0.037	61.51	3	5	Feedback	Win	True
63.923	2.775	Win2	1.0	n/a	Yes	2.775	n/a	n/a	GoodResponse	1	0.0	n/a	3	5	ISIslide	Win	True
66.722	0.25	Lose2	0.8571	0.0	No	2.728	0.022	n/a	LatePress	-1	n/a	n/a	2	6	Cue	Loss	True
66.972	3.95	Lose2	0.8571	0.0	No	2.728	0.0	n/a	LatePress	-1	n/a	n/a	2	6	Fixation	Loss	True
70.92	0.34	Lose2	0.8571	0.002	No	2.728	-0.002	2.0	LatePress	-1	0.34	70.26	2	6	Target	Loss	True
71.26	0.3	Lose2	0.8571	0.002	No	2.728	-0.002	2.0	LatePress	-1	0.34	n/a	2	6	ButtonPress	Loss	True
71.27	0.36	Lose2	0.8571	n/a	No	2.728	n/a	n/a	LatePress	-1	n/a	n/a	2	6	Blank	Loss	True
71.62	1.45	Lose2	0.8571	n/a	No	2.728	n/a	5.0	LatePress	-1	0.012	70.632	2	6	Feedback	Loss	True
73.069	2.728	Lose2	0.8571	n/a	No	2.728	n/a	n/a	LatePress	-1	0.0	n/a	2	6	ISIslide	Loss	True
75.818	0.25	Lose2	0.875	0.0	Yes	4.032	0.018	n/a	GoodResponse	0	n/a	n/a	2	7	Cue	AvoidedLoss	True
76.068	4.05	Lose2	0.875	0.0	Yes	4.032	0.0	n/a	GoodResponse	0	n/a	n/a	2	7	Fixation	AvoidedLoss	True
80.117	0.33	Lose2	0.875	0.001	Yes	4.032	-0.001	2.0	GoodResponse	0	0.259	79.376	2	7	Target	AvoidedLoss	True
80.376	0.3	Lose2	0.875	0.001	Yes	4.032	-0.001	2.0	GoodResponse	0	0.259	n/a	2	7	ButtonPress	AvoidedLoss	True
80.45	0.37	Lose2	0.875	n/a	Yes	4.032	n/a	n/a	GoodResponse	0	n/a	n/a	2	7	Blank	AvoidedLoss	True
80.817	1.45	Lose2	0.875	n/a	Yes	4.032	n/a	5.0	GoodResponse	0	0.035	79.852	2	7	Feedback	AvoidedLoss	True
82.266	4.032	Lose2	0.875	n/a	Yes	4.032	n/a	n/a	GoodResponse	0	0.0	n/a	2	7	ISIslide	AvoidedLoss	True
86.315	0.25	Lose2	0.7778	0.0	No	3.035	0.015	n/a	LatePress	-1	n/a	n/a	1	8	Cue	Loss	True
86.565	3.95	Lose2	0.7778	0.0	No	3.035	0.0	n/a	LatePress	-1	n/a	n/a	1	8	Fixation	Loss	True
90.513	0.32	Lose2	0.7778	0.002	No	3.035	-0.002	2.0	LatePress	-1	0.327	89.84	1	8	Target	Loss	True
90.84	0.3	Lose2	0.7778	0.002	No	3.035	-0.002	2.0	LatePress	-1	0.327	n/a	1	8	ButtonPress	Loss	True
90.846	0.38	Lose2	0.7778	n/a	No	3.035	n/a	n/a	LatePress	-1	n/a	n/a	1	8	Blank	Loss	True
91.213	1.45	Lose2	0.7778	n/a	No	3.035	n/a	5.0	LatePress	-1	0.029	90.242	1	8	Feedback	Loss	True
92.662	3.035	Lose2	0.7778	n/a	No	3.035	n/a	n/a	LatePress	-1	0.0	n/a	1	8	ISIslide	Loss	True
95.728	0.25	Lose2	0.7	0.0	No	3.122	0.028	n/a	NoResponse	-1	n/a	n/a	0	9	Cue	Loss	False
95.978	3.95	Lose2	0.7	0.0	No	3.122	0.0	2.0	NoResponse	-1	1.221	96.199	0	9	Fixation	Loss	False
97.199	0.3	Lose2	0.7	0.0	No	3.122	0.0	2.0	NoResponse	-1	1.221	n/a	0	9	ButtonPress	Loss	False
99.927	0.31	Lose2	0.7	0.001	No	3.122	-0.001	2.0	NoResponse	-1	0.369	99.296	0	9	Target	Loss	False
100.243	0.39	Lose2	0.7	n/a	No	3.122	n/a	n/a	NoResponse	-1	n/a	n/a	0	9	Blank	Loss	False
100.296	0.3	Lose2	0.7	0.001	No	3.122	-0.001	2.0	NoResponse	-1	0.369	n/a	0	9	ButtonPress	Loss	False
100.626	1.45	Lose2	0.7	n/a	No	3.122	n/a	5.0	NoResponse	-1	0.031	99.657	0	9	Feedback	Loss	False
102.076	3.122	Lose2	0.7	n/a	No	3.122	n/a	n/a	NoResponse	-1	0.0	n/a	0	9	ISIslide	Loss	False
105.225	0.25	Control	0.7273000000000001	0.0	Yes	3.275	0.025	n/a	GoodResponse	0	n/a	n/a	0	10	Cue	Neutral	True
105.475	4.0	Control	0.7273000000000001	0.0	Yes	3.275	0.0	n/a	GoodResponse	0	n/a	n/a	0	10	Fixation	Neutral	True
109.473	0.3	Control	0.7273000000000001	0.002	Yes	3.275	-0.002	2.0	GoodResponse	0	0.277	108.75	0	10	Target	Neutral	True
109.75	0.3	Control	0.7273000000000001	0.002	Yes	3.275	-0.002	2.0	GoodResponse	0	0.277	n/a	0	10	ButtonPress	Neutral	True
109.773	0.4	Control	0.7273000000000001	n/a	Yes	3.275	n/a	n/a	GoodResponse	0	n/a	n/a	0	10	Blank	Neutral	True
110.173	1.45	Control	0.7273000000000001	n/a	Yes	3.275	n/a	5.0	GoodResponse	0	0.044	109.217	0	10	Feedback	Neutral	True
111.622	3.275	Control	0.7273000000000001	n/a	Yes	3.275	n/a	n/a	GoodResponse	0	0.0	n/a	0	10	ISIslide	Neutral	True
114.921	0.25	Lose2	0.6667000000000001	0.0	No	2.729	0.021	n/a	NoResponse	-1	n/a	n/a	-1	11	Cue	Loss	True
115.171	4.05	Lose2	0.6667000000000001	0.0	No	2.729	0.0	n/a	NoResponse	-1	n/a	n/a	-1	11	Fixation	Loss	True
119.22	0.29	Lose2	0.6667000000000001	0.001	No	2.729	-0.001	2.0	NoResponse	-1	0.365	118.585	-1	11	Target	Loss	True
119.52	0.41	Lose2	0.6667000000000001	n/a	No	2.729	n/a	n/a	NoResponse	-1	n/a	n/a	-1	11	Blank	Loss	True
119.585	0.3	Lose2	0.6667000000000001	0.001	No	2.729	-0.001	2.0	NoResponse	-1	0.365	n/a	-1	11	ButtonPress	Loss	True
119.919	1.45	Lose2	0.6667000000000001	n/a	No	2.729	n/a	5.0	NoResponse	-1	0.007	118.926	-1	11	Feedback	Loss	True
121.369	2.729	Lose2	0.6667000000000001	n/a	No	2.729	n/a	n/a	NoResponse	-1	0.0	n/a	-1	11	ISIslide	Loss	True
124.118	0.25	Control	0.6154	0.0	No	2.982	0.018	n/a	NoResponse	0	n/a	n/a	-1	12	Cue	Neutral	False
124.368	3.9	Control	0.6154	0.0	No	2.982	0.0	2.0	NoResponse	0	0.399	123.767	-1	12	Fixation	Neutral	False
124.767	0.3	Control	0.6154	0.0	No	2.982	0.0	2.0	NoResponse	0	0.399	n/a	-1	12	ButtonPress	Neutral	False
128.267	0.28	Control	0.6154	0.001	No	2.982	-0.001	2.0	NoResponse	0	0.372	127.639	-1	12	Target	Neutral	False
128.55	0.42	Control	0.6154	n/a	No	2.982	n/a	n/a	NoResponse	0	n/a	n/a	-1	12	Blank	Neutral	False
128.639	0.3	Control	0.6154	0.001	No	2.982	-0.001	2.0	NoResponse	0	0.372	n/a	-1	12	ButtonPress	Neutral	False
128.966	1.45	Control	0.6154	n/a	No	2.982	n/a	5.0	NoResponse	0	0.032	127.998	-1	12	Feedback	Neutral	False
130.416	2.982	Control	0.6154	n/a	No	2.982	n/a	n/a	NoResponse	0	0.0	n/a	-1	12	ISIslide	Neutral	False
133.415	0.25	Control	0.5714	0.0	No	2.785	0.015	n/a	NoResponse	0	n/a	n/a	-1	13	Cue	Neutral	False
133.665	4.0	Control	0.5714	0.0	No	2.785	0.0	2.0	NoResponse	0	0.292	132.957	-1	13	Fixation	Neutral	False
133.957	0.3	Control	0.5714	0.0	No	2.785	0.0	2.0	NoResponse	0	0.292	n/a	-1	13	ButtonPress	Neutral	False
137.663	0.29	Control	0.5714	0.002	No	2.785	-0.002	2.0	NoResponse	0	0.358	137.021	-1	13	Target	Neutral	False
137.963	0.41	Control	0.5714	n/a	No	2.785	n/a	n/a	NoResponse	0	n/a	n/a	-1	13	Blank	Neutral	False
138.021	0.3	Control	0.5714	0.002	No	2.785	-0.002	2.0	NoResponse	0	0.358	n/a	-1	13	ButtonPress	Neutral	False
138.363	1.45	Control	0.5714	n/a	No	2.785	n/a	5.0	NoResponse	0	0.001	137.364	-1	13	Feedback	Neutral	False
139.812	2.785	Control	0.5714	n/a	No	2.785	n/a	n/a	NoResponse	0	0.0	n/a	-1	13	ISIslide	Neutral	False
142.628	0.25	Win2	0.6	0.0	Yes	2.672	0.028	n/a	GoodResponse	1	n/a	n/a	0	14	Cue	Win	True
142.878	4.1	Win2	0.6	0.0	Yes	2.672	0.0	n/a	GoodResponse	1	n/a	n/a	0	14	Fixation	Win	True
146.977	0.3	Win2	0.6	0.001	Yes	2.672	-0.001	2.0	GoodResponse	1	0.287	146.264	0	14	Target	Win	True
147.264	0.3	Win2	0.6	0.001	Yes	2.672	-0.001	2.0	GoodResponse	1	0.287	n/a	0	14	ButtonPress	Win	True
147.277	0.4	Win2	0.6	n/a	Yes	2.672	n/a	n/a	GoodResponse	1	n/a	n/a	0	14	Blank	Win	True
147.676	1.45	Win2	0.6	n/a	Yes	2.672	n/a	5.0	GoodResponse	1	0.007	146.683	0	14	Feedback	Win	True
149.126	2.672	Win2	0.6	n/a	Yes	2.672	n/a	n/a	GoodResponse	1	0.0	n/a	0	14	ISIslide	Win	True
151.825	0.25	Control	0.625	0.0	Yes	2.975	0.025	n/a	GoodResponse	0	n/a	n/a	0	15	Cue	Neutral	True
152.075	4.0	Control	0.625	0.0	Yes	2.975	0.0	n/a	GoodResponse	0	n/a	n/a	0	15	Fixation	Neutral	True
156.073	0.31	Control	0.625	0.002	Yes	2.975	-0.002	2.0	GoodResponse	0	0.262	155.335	0	15	Target	Neutral	True
156.335	0.3	Control	0.625	0.002	Yes	2.975	-0.002	2.0	GoodResponse	0	0.262	n/a	0	15	ButtonPress	Neutral	True
156.39	0.39	Control	0.625	n/a	Yes	2.975	n/a	n/a	GoodResponse	0	n/a	n/a	0	15	Blank	Neutral	True
156.773	1.45	Control	0.625	n/a	Yes	2.975	n/a	5.0	GoodResponse	0	0.029	155.802	0	15	Feedback	Neutral	True
158.223	2.975	Control	0.625	n/a	Yes	2.975	n/a	n/a	GoodResponse	0	0.0	n/a	0	15	ISIslide	Neutral	True
161.222	0.25	Win2	0.6470999999999999	0.0	Yes	2.878	0.022	n/a	GoodResponse	1	n/a	n/a	1	16	Cue	Win	True
161.472	4.0	Win2	0.6470999999999999	0.0	Yes	2.878	0.0	n/a	GoodResponse	1	n/a	n/a	1	16	Fixation	Win	True
165.47	0.32	Win2	0.6470999999999999	0.002	Yes	2.878	-0.002	2.0	GoodResponse	1	0.265	164.735	1	16	Target	Win	True
165.735	0.3	Win2	0.6470999999999999	0.002	Yes	2.878	-0.002	2.0	GoodResponse	1	0.265	n/a	1	16	ButtonPress	Win	True
165.803	0.38	Win2	0.6470999999999999	n/a	Yes	2.878	n/a	n/a	GoodResponse	1	n/a	n/a	1	16	Blank	Win	True
166.17	1.45	Win2	0.6470999999999999	n/a	Yes	2.878	n/a	5.0	GoodResponse	1	0.047	165.217	1	16	Feedback	Win	True
167.619	2.878	Win2	0.6470999999999999	n/a	Yes	2.878	n/a	n/a	GoodResponse	1	0.0	n/a	1	16	ISIslide	Win	True
170.518	0.25	Lose2	0.6667000000000001	0.0	Yes	2.732	0.018	n/a	GoodResponse	0	n/a	n/a	1	17	Cue	AvoidedLoss	True
170.768	3.95	Lose2	0.6667000000000001	0.0	Yes	2.732	0.0	n/a	GoodResponse	0	n/a	n/a	1	17	Fixation	AvoidedLoss	True
174.717	0.33	Lose2	0.6667000000000001	0.001	Yes	2.732	-0.001	2.0	GoodResponse	0	0.289	174.006	1	17	Target	AvoidedLoss	True
175.006	0.3	Lose2	0.6667000000000001	0.001	Yes	2.732	-0.001	2.0	GoodResponse	0	0.289	n/a	1	17	ButtonPress	AvoidedLoss	True
175.05	0.37	Lose2	0.6667000000000001	n/a	Yes	2.732	n/a	n/a	GoodResponse	0	n/a	n/a	1	17	Blank	AvoidedLoss	True
175.417	1.45	Lose2	0.6667000000000001	n/a	Yes	2.732	n/a	5.0	GoodResponse	0	0.02	174.437	1	17	Feedback	AvoidedLoss	True
176.866	2.732	Lose2	0.6667000000000001	n/a	Yes	2.732	n/a	n/a	GoodResponse	0	0.0	n/a	1	17	ISIslide	AvoidedLoss	True
179.615	0.25	Lose2	0.6842	0.0	Yes	2.735	0.015	n/a	GoodResponse	0	n/a	n/a	1	18	Cue	AvoidedLoss	True
179.865	4.05	Lose2	0.6842	0.0	Yes	2.735	0.0	n/a	GoodResponse	0	n/a	n/a	1	18	Fixation	AvoidedLoss	True
183.914	0.32	Lose2	0.6842	0.001	Yes	2.735	-0.001	2.0	GoodResponse	0	0.277	183.191	1	18	Target	AvoidedLoss	True
184.191	0.3	Lose2	0.6842	0.001	Yes	2.735	-0.001	2.0	GoodResponse	0	0.277	n/a	1	18	ButtonPress	AvoidedLoss	True
184.247	0.38	Lose2	0.6842	n/a	Yes	2.735	n/a	n/a	GoodResponse	0	n/a	n/a	1	18	Blank	AvoidedLoss	True
184.613	1.45	Lose2	0.6842	n/a	Yes	2.735	n/a	5.0	GoodResponse	0	0.043	183.656	1	18	Feedback	AvoidedLoss	True
186.063	2.735	Lose2	0.6842	n/a	Yes	2.735	n/a	n/a	GoodResponse	0	0.0	n/a	1	18	ISIslide	AvoidedLoss	True
188.829	0.25	Control	0.7	0.0	Yes	2.921	0.029	n/a	GoodResponse	0	n/a	n/a	1	19	Cue	Neutral	True
189.078	3.95	Control	0.7	0.001	Yes	2.921	-0.001	n/a	GoodResponse	0	n/a	n/a	1	19	Fixation	Neutral	True
193.027	0.31	Control	0.7	0.002	Yes	2.921	-0.002	2.0	GoodResponse	0	0.258	192.285	1	19	Target	Neutral	True
193.285	0.3	Control	0.7	0.002	Yes	2.921	-0.002	2.0	GoodResponse	0	0.258	n/a	1	19	ButtonPress	Neutral	True
193.344	0.39	Control	0.7	n/a	Yes	2.921	n/a	n/a	GoodResponse	0	n/a	n/a	1	19	Blank	Neutral	True
193.727	1.45	Control	0.7	n/a	Yes	2.921	n/a	5.0	GoodResponse	0	0.001	192.728	1	19	Feedback	Neutral	True
195.176	2.921	Control	0.7	n/a	Yes	2.921	n/a	n/a	GoodResponse	0	0.0	n/a	1	19	ISIslide	Neutral	True
198.125	0.25	Control	0.7143	0.0	Yes	2.625	0.025	n/a	GoodResponse	0	n/a	n/a	1	20	Cue	Neutral	True
198.375	4.05	Control	0.7143	0.0	Yes	2.625	0.0	n/a	GoodResponse	0	n/a	n/a	1	20	Fixation	Neutral	True
202.424	0.3	Control	0.7143	0.001	Yes	2.625	-0.001	2.0	GoodResponse	0	0.26	201.684	1	20	Target	Neutral	True
202.684	0.3	Control	0.7143	0.001	Yes	2.625	-0.001	2.0	GoodResponse	0	0.26	n/a	1	20	ButtonPress	Neutral	True
202.724	0.4	Control	0.7143	n/a	Yes	2.625	n/a	n/a	GoodResponse	0	n/a	n/a	1	20	Blank	Neutral	True
203.124	1.45	Control	0.7143	n/a	Yes	2.625	n/a	5.0	GoodResponse	0	0.019	202.143	1	20	Feedback	Neutral	True
204.573	2.625	Control	0.7143	n/a	Yes	2.625	n/a	n/a	GoodResponse	0	0.0	n/a	1	20	ISIslide	Neutral	True
207.222	0.25	Control	0.7273000000000001	0.0	Yes	2.778	0.022	n/a	GoodResponse	0	n/a	n/a	1	21	Cue	Neutral	True
207.472	4.1	Control	0.7273000000000001	0.0	Yes	2.778	0.0	n/a	GoodResponse	0	n/a	n/a	1	21	Fixation	Neutral	True
211.571	0.29	Control	0.7273000000000001	0.001	Yes	2.778	-0.001	2.0	GoodResponse	0	0.267	210.838	1	21	Target	Neutral	True
211.838	0.3	Control	0.7273000000000001	0.001	Yes	2.778	-0.001	2.0	GoodResponse	0	0.267	n/a	1	21	ButtonPress	Neutral	True
211.87	0.41	Control	0.7273000000000001	n/a	Yes	2.778	n/a	n/a	GoodResponse	0	n/a	n/a	1	21	Blank	Neutral	True
212.27	1.45	Control	0.7273000000000001	n/a	Yes	2.778	n/a	5.0	GoodResponse	0	0.044	211.314	1	21	Feedback	Neutral	True
213.72	2.778	Control	0.7273000000000001	n/a	Yes	2.778	n/a	n/a	GoodResponse	0	0.0	n/a	1	21	ISIslide	Neutral	True
216.519	0.25	Control	0.6957	0.0	No	2.781	0.019	n/a	NoResponse	0	n/a	n/a	1	22	Cue	Neutral	True
216.769	4.0	Control	0.6957	0.0	No	2.781	0.0	n/a	NoResponse	0	n/a	n/a	1	22	Fixation	Neutral	True
220.767	0.28	Control	0.6957	0.002	No	2.781	-0.002	2.0	NoResponse	0	0.299	220.066	1	22	Target	Neutral	True
221.051	0.42	Control	0.6957	n/a	No	2.781	n/a	n/a	NoResponse	0	n/a	n/a	1	22	Blank	Neutral	True
221.066	0.3	Control	0.6957	0.002	No	2.781	-0.002	2.0	NoResponse	0	0.299	n/a	1	22	ButtonPress	Neutral	True
221.467	1.45	Control	0.6957	n/a	No	2.781	n/a	5.0	NoResponse	0	0.018	220.485	1	22	Feedback	Neutral	True
222.917	2.781	Control	0.6957	n/a	No	2.781	n/a	n/a	NoResponse	0	0.0	n/a	1	22	ISIslide	Neutral	True
225.716	0.25	Control	0.6667000000000001	0.0	No	2.784	0.016	n/a	NoResponse	0	n/a	n/a	1	23	Cue	Neutral	True
225.965	3.9	Control	0.6667000000000001	0.001	No	2.784	-0.001	n/a	NoResponse	0	n/a	n/a	1	23	Fixation	Neutral	True
229.864	0.27	Control	0.6667000000000001	0.002	No	2.784	-0.002	2.0	NoResponse	0	0.378	229.242	1	23	Target	Neutral	True
230.147	0.43	Control	0.6667000000000001	n/a	No	2.784	n/a	n/a	NoResponse	0	n/a	n/a	1	23	Blank	Neutral	True
230.242	0.3	Control	0.6667000000000001	0.002	No	2.784	-0.002	2.0	NoResponse	0	0.378	n/a	1	23	ButtonPress	Neutral	True
230.564	1.45	Control	0.6667000000000001	n/a	No	2.784	n/a	5.0	NoResponse	0	0.042	229.606	1	23	Feedback	Neutral	True
232.013	2.784	Control	0.6667000000000001	n/a	No	2.784	n/a	n/a	NoResponse	0	0.0	n/a	1	23	ISIslide	Neutral	True
234.812	0.25	Win2	0.64	0.0	No	3.138	0.012	n/a	NoResponse	0	n/a	n/a	1	24	Cue	MissedWin	True
235.062	3.95	Win2	0.64	0.0	No	3.138	0.0	n/a	NoResponse	0	n/a	n/a	1	24	Fixation	MissedWin	True
239.011	0.26	Win2	0.64	0.001	No	3.138	-0.001	2.0	NoResponse	0	0.275	238.286	1	24	Target	MissedWin	True
239.277	0.44	Win2	0.64	n/a	No	3.138	n/a	n/a	NoResponse	0	n/a	n/a	1	24	Blank	MissedWin	True
239.286	0.3	Win2	0.64	0.001	No	3.138	-0.001	2.0	NoResponse	0	0.275	n/a	1	24	ButtonPress	MissedWin	True
239.711	1.45	Win2	0.64	n/a	No	3.138	n/a	5.0	NoResponse	0	0.017	238.728	1	24	Feedback	MissedWin	True
241.16	3.138	Win2	0.64	n/a	No	3.138	n/a	n/a	NoResponse	0	0.0	n/a	1	24	ISIslide	MissedWin	True
244.326	0.25	Win2	0.6537999999999999	0.0	Yes	3.074	0.026	n/a	GoodResponse	1	n/a	n/a	2	25	Cue	Win	True
244.576	4.0	Win2	0.6537999999999999	0.0	Yes	3.074	0.0	n/a	GoodResponse	1	n/a	n/a	2	25	Fixation	Win	True
248.574	0.27	Win2	0.6537999999999999	0.002	Yes	3.074	-0.002	2.0	GoodResponse	1	0.243	247.817	2	25	Target	Win	True
248.817	0.3	Win2	0.6537999999999999	0.002	Yes	3.074	-0.002	2.0	GoodResponse	1	0.243	n/a	2	25	ButtonPress	Win	True
248.857	0.43	Win2	0.6537999999999999	n/a	Yes	3.074	n/a	n/a	GoodResponse	1	n/a	n/a	2	25	Blank	Win	True
249.274	1.45	Win2	0.6537999999999999	n/a	Yes	3.074	n/a	5.0	GoodResponse	1	0.015	248.289	2	25	Feedback	Win	True
250.723	3.074	Win2	0.6537999999999999	n/a	Yes	3.074	n/a	n/a	GoodResponse	1	0.0	n/a	2	25	ISIslide	Win	True
253.822	0.25	Win2	0.6296	0.0	No	2.928	0.022	n/a	NoResponse	0	n/a	n/a	2	26	Cue	MissedWin	True
254.072	3.95	Win2	0.6296	0.0	No	2.928	0.0	2.0	NoResponse	0	3.85	256.922	2	26	Fixation	MissedWin	True
257.922	0.3	Win2	0.6296	0.0	No	2.928	0.0	2.0	NoResponse	0	3.85	n/a	2	26	ButtonPress	MissedWin	True
258.021	0.28	Win2	0.6296	0.001	No	2.928	-0.001	n/a	NoResponse	0	n/a	n/a	2	26	Target	MissedWin	True
258.304	0.42	Win2	0.6296	n/a	No	2.928	n/a	n/a	NoResponse	0	n/a	n/a	2	26	Blank	MissedWin	True
258.721	1.45	Win2	0.6296	n/a	No	2.928	n/a	5.0	NoResponse	0	0.032	257.753	2	26	Feedback	MissedWin	True
260.17	2.928	Win2	0.6296	n/a	No	2.928	n/a	n/a	NoResponse	0	0.0	n/a	2	26	ISIslide	MissedWin	True
263.119	0.25	Lose2	0.6429	0.0	Yes	2.831	0.019	n/a	GoodResponse	0	n/a	n/a	2	27	Cue	AvoidedLoss	False
263.369	4.05	Lose2	0.6429	0.0	Yes	2.831	0.0	2.0	GoodResponse	0	0.045	262.414	2	27	Fixation	AvoidedLoss	False
263.414	0.3	Lose2	0.6429	0.0	Yes	2.831	0.0	2.0	GoodResponse	0	0.045	n/a	2	27	ButtonPress	AvoidedLoss	False
267.418	0.29	Lose2	0.6429	0.001	Yes	2.831	-0.001	2.0	GoodResponse	0	0.27	266.688	2	27	Target	AvoidedLoss	False
267.688	0.3	Lose2	0.6429	0.001	Yes	2.831	-0.001	2.0	GoodResponse	0	0.27	n/a	2	27	ButtonPress	AvoidedLoss	False
267.717	0.41	Lose2	0.6429	n/a	Yes	2.831	n/a	n/a	GoodResponse	0	n/a	n/a	2	27	Blank	AvoidedLoss	False
268.117	1.45	Lose2	0.6429	n/a	Yes	2.831	n/a	5.0	GoodResponse	0	0.002	267.119	2	27	Feedback	AvoidedLoss	False
269.567	2.831	Lose2	0.6429	n/a	Yes	2.831	n/a	n/a	GoodResponse	0	0.0	n/a	2	27	ISIslide	AvoidedLoss	False
272.416	0.25	Control	0.6207	0.0	No	2.834	0.016	n/a	NoResponse	0	n/a	n/a	2	28	Cue	Neutral	True
272.666	4.05	Control	0.6207	0.0	No	2.834	0.0	n/a	NoResponse	0	n/a	n/a	2	28	Fixation	Neutral	True
276.714	0.3	Control	0.6207	0.002	No	2.834	-0.002	2.0	NoResponse	0	0.324	276.038	2	28	Target	Neutral	True
277.014	0.4	Control	0.6207	n/a	No	2.834	n/a	n/a	NoResponse	0	n/a	n/a	2	28	Blank	Neutral	True
277.038	0.3	Control	0.6207	0.002	No	2.834	-0.002	2.0	NoResponse	0	0.324	n/a	2	28	ButtonPress	Neutral	True
277.414	1.45	Control	0.6207	n/a	No	2.834	n/a	5.0	NoResponse	0	0.021	276.435	2	28	Feedback	Neutral	True
278.863	2.834	Control	0.6207	n/a	No	2.834	n/a	n/a	NoResponse	0	0.0	n/a	2	28	ISIslide	Neutral	True
281.729	0.25	Lose2	0.6333	0.0	Yes	2.821	0.029	n/a	GoodResponse	0	n/a	n/a	2	29	Cue	AvoidedLoss	True
281.979	3.95	Lose2	0.6333	0.0	Yes	2.821	0.0	n/a	GoodResponse	0	n/a	n/a	2	29	Fixation	AvoidedLoss	True
285.928	0.31	Lose2	0.6333	0.001	Yes	2.821	-0.001	2.0	GoodResponse	0	0.276	285.204	2	29	Target	AvoidedLoss	True
286.204	0.3	Lose2	0.6333	0.001	Yes	2.821	-0.001	2.0	GoodResponse	0	0.276	n/a	2	29	ButtonPress	AvoidedLoss	True
286.244	0.39	Lose2	0.6333	n/a	Yes	2.821	n/a	n/a	GoodResponse	0	n/a	n/a	2	29	Blank	AvoidedLoss	True
286.627	1.45	Lose2	0.6333	n/a	Yes	2.821	n/a	5.0	GoodResponse	0	0.027	285.654	2	29	Feedback	AvoidedLoss	True
288.077	2.821	Lose2	0.6333	n/a	Yes	2.821	n/a	n/a	GoodResponse	0	0.0	n/a	2	29	ISIslide	AvoidedLoss	True
290.926	0.25	Win2	0.6452	0.0	Yes	2.774	0.026	n/a	GoodResponse	1	n/a	n/a	3	30	Cue	Win	True
291.176	3.9	Win2	0.6452	0.0	Yes	2.774	0.0	n/a	GoodResponse	1	n/a	n/a	3	30	Fixation	Win	True
295.074	0.32	Win2	0.6452	0.002	Yes	2.774	-0.002	2.0	GoodResponse	1	0.319	294.393	3	30	Target	Win	True
295.393	0.3	Win2	0.6452	0.002	Yes	2.774	-0.002	2.0	GoodResponse	1	0.319	n/a	3	30	ButtonPress	Win	True
295.408	0.38	Win2	0.6452	n/a	Yes	2.774	n/a	n/a	GoodResponse	1	n/a	n/a	3	30	Blank	Win	True
295.774	1.45	Win2	0.6452	n/a	Yes	2.774	n/a	5.0	GoodResponse	1	0.002	294.776	3	30	Feedback	Win	True
297.224	2.774	Win2	0.6452	n/a	Yes	2.774	n/a	n/a	GoodResponse	1	0.0	n/a	3	30	ISIslide	Win	True
300.023	0.25	Lose2	0.6562	0.0	Yes	2.827	0.023	n/a	GoodResponse	0	n/a	n/a	3	31	Cue	AvoidedLoss	True
300.273	4.05	Lose2	0.6562	0.0	Yes	2.827	0.0	n/a	GoodResponse	0	n/a	n/a	3	31	Fixation	AvoidedLoss	True
304.321	0.33	Lose2	0.6562	0.002	Yes	2.827	-0.002	2.0	GoodResponse	0	0.273	303.594	3	31	Target	AvoidedLoss	True
304.594	0.3	Lose2	0.6562	0.002	Yes	2.827	-0.002	2.0	GoodResponse	0	0.273	n/a	3	31	ButtonPress	AvoidedLoss	True
304.654	0.37	Lose2	0.6562	n/a	Yes	2.827	n/a	n/a	GoodResponse	0	n/a	n/a	3	31	Blank	AvoidedLoss	True
305.021	1.45	Lose2	0.6562	n/a	Yes	2.827	n/a	5.0	GoodResponse	0	0.024	304.045	3	31	Feedback	AvoidedLoss	True
306.47	2.827	Lose2	0.6562	n/a	Yes	2.827	n/a	n/a	GoodResponse	0	0.0	n/a	3	31	ISIslide	AvoidedLoss	True
309.319	0.25	Lose2	0.6667000000000001	0.001	Yes	2.631	0.019	n/a	GoodResponse	0	n/a	n/a	3	32	Cue	AvoidedLoss	True
309.569	4.15	Lose2	0.6667000000000001	0.0	Yes	2.631	0.0	n/a	GoodResponse	0	n/a	n/a	3	32	Fixation	AvoidedLoss	True
313.718	0.33	Lose2	0.6667000000000001	0.001	Yes	2.631	-0.001	2.0	GoodResponse	0	0.269	312.987	3	32	Target	AvoidedLoss	True
313.987	0.3	Lose2	0.6667000000000001	0.001	Yes	2.631	-0.001	2.0	GoodResponse	0	0.269	n/a	3	32	ButtonPress	AvoidedLoss	True
314.051	0.37	Lose2	0.6667000000000001	n/a	Yes	2.631	n/a	n/a	GoodResponse	0	n/a	n/a	3	32	Blank	AvoidedLoss	True
314.418	1.45	Lose2	0.6667000000000001	n/a	Yes	2.631	n/a	5.0	GoodResponse	0	0.042	313.46	3	32	Feedback	AvoidedLoss	True
315.867	2.631	Lose2	0.6667000000000001	n/a	Yes	2.631	n/a	n/a	GoodResponse	0	0.0	n/a	3	32	ISIslide	AvoidedLoss	True
318.516	0.25	Win2	0.6470999999999999	0.0	No	2.684	0.016	n/a	NoResponse	0	n/a	n/a	3	33	Cue	MissedWin	True
318.766	4.0	Win2	0.6470999999999999	0.0	No	2.684	0.0	n/a	NoResponse	0	n/a	n/a	3	33	Fixation	MissedWin	True
322.765	0.32	Win2	0.6470999999999999	0.001	No	2.684	-0.001	2.0	NoResponse	0	0.347	322.112	3	33	Target	MissedWin	True
323.098	0.38	Win2	0.6470999999999999	n/a	No	2.684	n/a	n/a	NoResponse	0	n/a	n/a	3	33	Blank	MissedWin	True
323.112	0.3	Win2	0.6470999999999999	0.001	No	2.684	-0.001	2.0	NoResponse	0	0.347	n/a	3	33	ButtonPress	MissedWin	True
323.464	1.45	Win2	0.6470999999999999	n/a	No	2.684	n/a	5.0	NoResponse	0	0.019	322.483	3	33	Feedback	MissedWin	True
324.914	2.684	Win2	0.6470999999999999	n/a	No	2.684	n/a	n/a	NoResponse	0	0.0	n/a	3	33	ISIslide	MissedWin	True
327.63	0.25	Lose2	0.6570999999999999	0.0	Yes	2.62	0.03	n/a	GoodResponse	0	n/a	n/a	3	34	Cue	AvoidedLoss	True
327.88	4.05	Lose2	0.6570999999999999	0.0	Yes	2.62	0.0	n/a	GoodResponse	0	n/a	n/a	3	34	Fixation	AvoidedLoss	True
331.928	0.33	Lose2	0.6570999999999999	0.002	Yes	2.62	-0.002	2.0	GoodResponse	0	0.291	331.219	3	34	Target	AvoidedLoss	True
332.219	0.3	Lose2	0.6570999999999999	0.002	Yes	2.62	-0.002	2.0	GoodResponse	0	0.291	n/a	3	34	ButtonPress	AvoidedLoss	True
332.261	0.37	Lose2	0.6570999999999999	n/a	Yes	2.62	n/a	n/a	GoodResponse	0	n/a	n/a	3	34	Blank	AvoidedLoss	True
332.628	1.45	Lose2	0.6570999999999999	n/a	Yes	2.62	n/a	5.0	GoodResponse	0	0.026	331.654	3	34	Feedback	AvoidedLoss	True
334.077	2.62	Lose2	0.6570999999999999	n/a	Yes	2.62	n/a	n/a	GoodResponse	0	0.0	n/a	3	34	ISIslide	AvoidedLoss	True
336.726	0.25	Lose2	0.6667000000000001	0.001	Yes	2.674	0.026	n/a	GoodResponse	0	n/a	n/a	3	35	Cue	AvoidedLoss	True
336.976	4.0	Lose2	0.6667000000000001	0.0	Yes	2.674	0.0	n/a	GoodResponse	0	n/a	n/a	3	35	Fixation	AvoidedLoss	True
340.975	0.33	Lose2	0.6667000000000001	0.001	Yes	2.674	-0.001	2.0	GoodResponse	0	0.298	340.273	3	35	Target	AvoidedLoss	True
341.273	0.3	Lose2	0.6667000000000001	0.001	Yes	2.674	-0.001	2.0	GoodResponse	0	0.298	n/a	3	35	ButtonPress	AvoidedLoss	True
341.308	0.37	Lose2	0.6667000000000001	n/a	Yes	2.674	n/a	n/a	GoodResponse	0	n/a	n/a	3	35	Blank	AvoidedLoss	True
341.675	1.45	Lose2	0.6667000000000001	n/a	Yes	2.674	n/a	5.0	GoodResponse	0	0.006	340.681	3	35	Feedback	AvoidedLoss	True
343.124	2.674	Lose2	0.6667000000000001	n/a	Yes	2.674	n/a	n/a	GoodResponse	0	0.0	n/a	3	35	ISIslide	AvoidedLoss	True
345.823	0.25	Control	0.6757	0.0	Yes	2.677	0.023	n/a	GoodResponse	0	n/a	n/a	3	36	Cue	Neutral	True
346.073	4.0	Control	0.6757	0.0	Yes	2.677	0.0	n/a	GoodResponse	0	n/a	n/a	3	36	Fixation	Neutral	True
350.072	0.32	Control	0.6757	0.001	Yes	2.677	-0.001	2.0	GoodResponse	0	0.25	349.322	3	36	Target	Neutral	True
350.322	0.3	Control	0.6757	0.001	Yes	2.677	-0.001	2.0	GoodResponse	0	0.25	n/a	3	36	ButtonPress	Neutral	True
350.405	0.38	Control	0.6757	n/a	Yes	2.677	n/a	n/a	GoodResponse	0	n/a	n/a	3	36	Blank	Neutral	True
350.771	1.45	Control	0.6757	n/a	Yes	2.677	n/a	5.0	GoodResponse	0	0.03	349.801	3	36	Feedback	Neutral	True
352.221	2.677	Control	0.6757	n/a	Yes	2.677	n/a	n/a	GoodResponse	0	0.0	n/a	3	36	ISIslide	Neutral	True
354.92	0.25	Win2	0.6579	0.0	No	2.88	0.02	n/a	NoResponse	0	n/a	n/a	3	37	Cue	MissedWin	True
355.17	4.0	Win2	0.6579	0.0	No	2.88	0.0	n/a	NoResponse	0	n/a	n/a	3	37	Fixation	MissedWin	True
359.169	0.31	Win2	0.6579	0.001	No	2.88	-0.001	2.0	NoResponse	0	0.353	358.522	3	37	Target	MissedWin	True
359.485	0.39	Win2	0.6579	n/a	No	2.88	n/a	n/a	NoResponse	0	n/a	n/a	3	37	Blank	MissedWin	True
359.522	0.3	Win2	0.6579	0.001	No	2.88	-0.001	2.0	NoResponse	0	0.353	n/a	3	37	ButtonPress	MissedWin	True
359.868	1.45	Win2	0.6579	n/a	No	2.88	n/a	5.0	NoResponse	0	0.007	358.875	3	37	Feedback	MissedWin	True
361.318	2.88	Win2	0.6579	n/a	No	2.88	n/a	n/a	NoResponse	0	0.0	n/a	3	37	ISIslide	MissedWin	True
364.217	0.25	Lose2	0.6667000000000001	0.0	Yes	2.833	0.017	n/a	GoodResponse	0	n/a	n/a	3	38	Cue	AvoidedLoss	True
364.467	3.95	Lose2	0.6667000000000001	0.0	Yes	2.833	0.0	n/a	GoodResponse	0	n/a	n/a	3	38	Fixation	AvoidedLoss	True
368.415	0.31	Lose2	0.6667000000000001	0.002	Yes	2.833	-0.002	2.0	GoodResponse	0	0.246	367.661	3	38	Target	AvoidedLoss	True
368.661	0.3	Lose2	0.6667000000000001	0.002	Yes	2.833	-0.002	2.0	GoodResponse	0	0.246	n/a	3	38	ButtonPress	AvoidedLoss	True
368.732	0.39	Lose2	0.6667000000000001	n/a	Yes	2.833	n/a	n/a	GoodResponse	0	n/a	n/a	3	38	Blank	AvoidedLoss	True
369.115	1.45	Lose2	0.6667000000000001	n/a	Yes	2.833	n/a	5.0	GoodResponse	0	0.026	368.141	3	38	Feedback	AvoidedLoss	True
370.565	2.833	Lose2	0.6667000000000001	n/a	Yes	2.833	n/a	n/a	GoodResponse	0	0.0	n/a	3	38	ISIslide	AvoidedLoss	True
373.414	0.25	Win2	0.675	0.0	Yes	2.986	0.014	n/a	GoodResponse	1	n/a	n/a	4	39	Cue	Win	True
373.663	4.1	Win2	0.675	0.001	Yes	2.986	-0.001	n/a	GoodResponse	1	n/a	n/a	4	39	Fixation	Win	True
377.762	0.3	Win2	0.675	0.002	Yes	2.986	-0.002	2.0	GoodResponse	1	0.278	377.04	4	39	Target	Win	True
378.04	0.3	Win2	0.675	0.002	Yes	2.986	-0.002	2.0	GoodResponse	1	0.278	n/a	4	39	ButtonPress	Win	True
378.062	0.4	Win2	0.675	n/a	Yes	2.986	n/a	n/a	GoodResponse	1	n/a	n/a	4	39	Blank	Win	True
378.462	1.45	Win2	0.675	n/a	Yes	2.986	n/a	5.0	GoodResponse	1	0.045	377.507	4	39	Feedback	Win	True
379.911	2.986	Win2	0.675	n/a	Yes	2.986	n/a	n/a	GoodResponse	1	0.0	n/a	4	39	ISIslide	Win	True
382.927	0.25	Win2	0.6585	0.0	No	2.723	0.027	n/a	NoResponse	0	n/a	n/a	4	40	Cue	MissedWin	True
383.177	3.95	Win2	0.6585	0.0	No	2.723	0.0	n/a	NoResponse	0	n/a	n/a	4	40	Fixation	MissedWin	True
387.125	0.29	Win2	0.6585	0.002	No	2.723	-0.002	2.0	NoResponse	0	0.315	386.44	4	40	Target	MissedWin	True
387.425	0.41	Win2	0.6585	n/a	No	2.723	n/a	n/a	NoResponse	0	n/a	n/a	4	40	Blank	MissedWin	True
387.44	0.3	Win2	0.6585	0.002	No	2.723	-0.002	2.0	NoResponse	0	0.315	n/a	4	40	ButtonPress	MissedWin	True
387.825	1.45	Win2	0.6585	n/a	No	2.723	n/a	5.0	NoResponse	0	0.048	386.873	4	40	Feedback	MissedWin	True
389.275	2.723	Win2	0.6585	n/a	No	2.723	n/a	n/a	NoResponse	0	0.0	n/a	4	40	ISIslide	MissedWin	True
392.024	0.25	Win2	0.6667000000000001	0.0	Yes	2.776	0.024	n/a	GoodResponse	1	n/a	n/a	5	41	Cue	Win	True
392.274	3.9	Win2	0.6667000000000001	0.0	Yes	2.776	0.0	n/a	GoodResponse	1	n/a	n/a	5	41	Fixation	Win	True
396.172	0.29	Win2	0.6667000000000001	0.002	Yes	2.776	-0.002	2.0	GoodResponse	1	0.248	395.42	5	41	Target	Win	True
396.42	0.3	Win2	0.6667000000000001	0.002	Yes	2.776	-0.002	2.0	GoodResponse	1	0.248	n/a	5	41	ButtonPress	Win	True
396.472	0.41	Win2	0.6667000000000001	n/a	Yes	2.776	n/a	n/a	GoodResponse	1	n/a	n/a	5	41	Blank	Win	True
396.872	1.45	Win2	0.6667000000000001	n/a	Yes	2.776	n/a	5.0	GoodResponse	1	0.026	395.898	5	41	Feedback	Win	True
398.321	2.776	Win2	0.6667000000000001	n/a	Yes	2.776	n/a	n/a	GoodResponse	1	0.0	n/a	5	41	ISIslide	Win	True
401.12	0.25	Control	0.6512	0.001	No	2.93	0.02	n/a	NoResponse	0	n/a	n/a	5	42	Cue	Neutral	True
401.37	3.85	Control	0.6512	0.0	No	2.93	0.0	n/a	NoResponse	0	n/a	n/a	5	42	Fixation	Neutral	True
405.219	0.28	Control	0.6512	0.001	No	2.93	-0.001	2.0	NoResponse	0	0.334	404.553	5	42	Target	Neutral	True
405.502	0.42	Control	0.6512	n/a	No	2.93	n/a	n/a	NoResponse	0	n/a	n/a	5	42	Blank	Neutral	True
405.553	0.3	Control	0.6512	0.001	No	2.93	-0.001	2.0	NoResponse	0	0.334	n/a	5	42	ButtonPress	Neutral	True
405.919	1.45	Control	0.6512	n/a	No	2.93	n/a	5.0	NoResponse	0	0.005	404.924	5	42	Feedback	Neutral	True
407.368	2.93	Control	0.6512	n/a	No	2.93	n/a	n/a	NoResponse	0	0.0	n/a	5	42	ISIslide	Neutral	True
410.317	0.25	Win2	0.6591	0.0	Yes	3.183	0.017	n/a	GoodResponse	1	n/a	n/a	6	43	Cue	Win	True
410.567	4.0	Win2	0.6591	0.0	Yes	3.183	0.0	n/a	GoodResponse	1	n/a	n/a	6	43	Fixation	Win	True
414.566	0.29	Win2	0.6591	0.001	Yes	3.183	-0.001	2.0	GoodResponse	1	0.237	413.803	6	43	Target	Win	True
414.803	0.3	Win2	0.6591	0.001	Yes	3.183	-0.001	2.0	GoodResponse	1	0.237	n/a	6	43	ButtonPress	Win	True
414.866	0.41	Win2	0.6591	n/a	Yes	3.183	n/a	n/a	GoodResponse	1	n/a	n/a	6	43	Blank	Win	True
415.265	1.45	Win2	0.6591	n/a	Yes	3.183	n/a	5.0	GoodResponse	1	0.022	414.287	6	43	Feedback	Win	True
416.715	3.183	Win2	0.6591	n/a	Yes	3.183	n/a	n/a	GoodResponse	1	0.0	n/a	6	43	ISIslide	Win	True
419.914	0.25	Win2	0.6444	0.0	No	2.986	0.014	n/a	NoResponse	0	n/a	n/a	6	44	Cue	MissedWin	True
420.164	4.0	Win2	0.6444	0.0	No	2.986	0.0	n/a	NoResponse	0	n/a	n/a	6	44	Fixation	MissedWin	True
424.162	0.29	Win2	0.6444	0.002	No	2.986	-0.002	2.0	NoResponse	0	0.31	423.472	6	44	Target	MissedWin	True
424.462	0.41	Win2	0.6444	n/a	No	2.986	n/a	n/a	NoResponse	0	n/a	n/a	6	44	Blank	MissedWin	True
424.472	0.3	Win2	0.6444	0.002	No	2.986	-0.002	2.0	NoResponse	0	0.31	n/a	6	44	ButtonPress	MissedWin	True
424.862	1.45	Win2	0.6444	n/a	No	2.986	n/a	5.0	NoResponse	0	0.035	423.897	6	44	Feedback	MissedWin	True
426.312	2.986	Win2	0.6444	n/a	No	2.986	n/a	n/a	NoResponse	0	0.0	n/a	6	44	ISIslide	MissedWin	True
429.327	0.25	Control	0.6522	0.0	Yes	2.873	0.027	n/a	GoodResponse	0	n/a	n/a	6	45	Cue	Neutral	True
429.577	4.1	Control	0.6522	0.0	Yes	2.873	0.0	n/a	GoodResponse	0	n/a	n/a	6	45	Fixation	Neutral	True
433.676	0.3	Control	0.6522	0.001	Yes	2.873	-0.001	2.0	GoodResponse	0	0.275	432.951	6	45	Target	Neutral	True
433.951	0.3	Control	0.6522	0.001	Yes	2.873	-0.001	2.0	GoodResponse	0	0.275	n/a	6	45	ButtonPress	Neutral	True
433.976	0.4	Control	0.6522	n/a	Yes	2.873	n/a	n/a	GoodResponse	0	n/a	n/a	6	45	Blank	Neutral	True
434.375	1.45	Control	0.6522	n/a	Yes	2.873	n/a	5.0	GoodResponse	0	0.034	433.409	6	45	Feedback	Neutral	True
435.825	2.873	Control	0.6522	n/a	Yes	2.873	n/a	n/a	GoodResponse	0	0.0	n/a	6	45	ISIslide	Neutral	True
438.724	0.25	Lose2	0.6596	0.0	Yes	3.376	0.024	n/a	GoodResponse	0	n/a	n/a	6	46	Cue	AvoidedLoss	True
438.974	4.0	Lose2	0.6596	0.0	Yes	3.376	0.0	n/a	GoodResponse	0	n/a	n/a	6	46	Fixation	AvoidedLoss	True
442.972	0.31	Lose2	0.6596	0.002	Yes	3.376	-0.002	2.0	GoodResponse	0	0.266	442.238	6	46	Target	AvoidedLoss	True
443.238	0.3	Lose2	0.6596	0.002	Yes	3.376	-0.002	2.0	GoodResponse	0	0.266	n/a	6	46	ButtonPress	AvoidedLoss	True
443.289	0.39	Lose2	0.6596	n/a	Yes	3.376	n/a	n/a	GoodResponse	0	n/a	n/a	6	46	Blank	AvoidedLoss	True
443.672	1.45	Lose2	0.6596	n/a	Yes	3.376	n/a	5.0	GoodResponse	0	0.007	442.679	6	46	Feedback	AvoidedLoss	True
445.122	3.376	Lose2	0.6596	n/a	Yes	3.376	n/a	n/a	GoodResponse	0	0.0	n/a	6	46	ISIslide	AvoidedLoss	True
448.52	0.25	Lose2	0.6667000000000001	0.0	Yes	2.68	0.02	n/a	GoodResponse	0	n/a	n/a	6	47	Cue	AvoidedLoss	True
448.77	4.0	Lose2	0.6667000000000001	0.0	Yes	2.68	0.0	n/a	GoodResponse	0	n/a	n/a	6	47	Fixation	AvoidedLoss	True
452.769	0.31	Lose2	0.6667000000000001	0.001	Yes	2.68	-0.001	2.0	GoodResponse	0	0.237	452.006	6	47	Target	AvoidedLoss	True
453.006	0.3	Lose2	0.6667000000000001	0.001	Yes	2.68	-0.001	2.0	GoodResponse	0	0.237	n/a	6	47	ButtonPress	AvoidedLoss	True
453.085	0.39	Lose2	0.6667000000000001	n/a	Yes	2.68	n/a	n/a	GoodResponse	0	n/a	n/a	6	47	Blank	AvoidedLoss	True
453.469	1.45	Lose2	0.6667000000000001	n/a	Yes	2.68	n/a	5.0	GoodResponse	0	0.013	452.482	6	47	Feedback	AvoidedLoss	True
454.918	2.68	Lose2	0.6667000000000001	n/a	Yes	2.68	n/a	n/a	GoodResponse	0	0.0	n/a	6	47	ISIslide	AvoidedLoss	True
457.617	0.25	Lose2	0.6531	0.0	No	3.033	0.017	n/a	NoResponse	-1	n/a	n/a	5	48	Cue	Loss	True
457.867	3.95	Lose2	0.6531	0.0	No	3.033	0.0	n/a	NoResponse	-1	n/a	n/a	5	48	Fixation	Loss	True
461.816	0.3	Lose2	0.6531	0.001	No	3.033	-0.001	2.0	NoResponse	-1	0.319	461.135	5	48	Target	Loss	True
462.116	0.4	Lose2	0.6531	n/a	No	3.033	n/a	n/a	NoResponse	-1	n/a	n/a	5	48	Blank	Loss	True
462.135	0.3	Lose2	0.6531	0.001	No	3.033	-0.001	2.0	NoResponse	-1	0.319	n/a	5	48	ButtonPress	Loss	True
462.515	1.45	Lose2	0.6531	n/a	No	3.033	n/a	5.0	NoResponse	-1	0.04	461.555	5	48	Feedback	Loss	True
463.965	3.033	Lose2	0.6531	n/a	No	3.033	n/a	n/a	NoResponse	-1	0.0	n/a	5	48	ISIslide	Loss	True
467.014	0.25	Control	0.66	0.0	Yes	2.886	0.014	n/a	GoodResponse	0	n/a	n/a	5	49	Cue	Neutral	True
467.264	4.0	Control	0.66	0.0	Yes	2.886	0.0	n/a	GoodResponse	0	n/a	n/a	5	49	Fixation	Neutral	True
471.262	0.31	Control	0.66	0.002	Yes	2.886	-0.002	2.0	GoodResponse	0	0.256	470.518	5	49	Target	Neutral	True
471.518	0.3	Control	0.66	0.002	Yes	2.886	-0.002	2.0	GoodResponse	0	0.256	n/a	5	49	ButtonPress	Neutral	True
471.579	0.39	Control	0.66	n/a	Yes	2.886	n/a	n/a	GoodResponse	0	n/a	n/a	5	49	Blank	Neutral	True
471.962	1.45	Control	0.66	n/a	Yes	2.886	n/a	5.0	GoodResponse	0	0.008	470.97	5	49	Feedback	Neutral	True
473.412	2.886	Control	0.66	n/a	Yes	2.886	n/a	n/a	GoodResponse	0	0.0	n/a	5	49	ISIslide	Neutral	True
476.327	0.25	Control	0.6667000000000001	0.0	Yes	2.773	0.027	n/a	GoodResponse	0	n/a	n/a	5	50	Cue	Neutral	True
476.577	4.0	Control	0.6667000000000001	0.0	Yes	2.773	0.0	n/a	GoodResponse	0	n/a	n/a	5	50	Fixation	Neutral	True
480.576	0.31	Control	0.6667000000000001	0.001	Yes	2.773	-0.001	2.0	GoodResponse	0	0.295	479.871	5	50	Target	Neutral	True
480.871	0.3	Control	0.6667000000000001	0.001	Yes	2.773	-0.001	2.0	GoodResponse	0	0.295	n/a	5	50	ButtonPress	Neutral	True
480.892	0.39	Control	0.6667000000000001	n/a	Yes	2.773	n/a	n/a	GoodResponse	0	n/a	n/a	5	50	Blank	Neutral	True
481.276	1.45	Control	0.6667000000000001	n/a	Yes	2.773	n/a	5.0	GoodResponse	0	0.011	480.287	5	50	Feedback	Neutral	True
482.725	2.773	Control	0.6667000000000001	n/a	Yes	2.773	n/a	n/a	GoodResponse	0	0.0	n/a	5	50	ISIslide	Neutral	True
485.524	0.25	Control	0.6537999999999999	0.0	No	2.726	0.024	n/a	NoResponse	0	n/a	n/a	5	51	Cue	Neutral	True
485.774	3.95	Control	0.6537999999999999	0.0	No	2.726	0.0	n/a	NoResponse	0	n/a	n/a	5	51	Fixation	Neutral	True
489.723	0.3	Control	0.6537999999999999	0.001	No	2.726	-0.001	2.0	NoResponse	0	0.302	489.025	5	51	Target	Neutral	True
490.022	0.4	Control	0.6537999999999999	n/a	No	2.726	n/a	n/a	NoResponse	0	n/a	n/a	5	51	Blank	Neutral	True
490.025	0.3	Control	0.6537999999999999	0.001	No	2.726	-0.001	2.0	NoResponse	0	0.302	n/a	5	51	ButtonPress	Neutral	True
490.422	1.45	Control	0.6537999999999999	n/a	No	2.726	n/a	5.0	NoResponse	0	0.035	489.457	5	51	Feedback	Neutral	True
491.872	2.726	Control	0.6537999999999999	n/a	No	2.726	n/a	n/a	NoResponse	0	0.0	n/a	5	51	ISIslide	Neutral	True
494.621	0.25	Control	0.6604000000000001	0.0	Yes	2.629	0.021	n/a	GoodResponse	0	n/a	n/a	5	52	Cue	Neutral	True
494.871	4.05	Control	0.6604000000000001	0.0	Yes	2.629	0.0	n/a	GoodResponse	0	n/a	n/a	5	52	Fixation	Neutral	True
498.919	0.31	Control	0.6604000000000001	0.002	Yes	2.629	-0.002	2.0	GoodResponse	0	0.272	498.191	5	52	Target	Neutral	True
499.191	0.3	Control	0.6604000000000001	0.002	Yes	2.629	-0.002	2.0	GoodResponse	0	0.272	n/a	5	52	ButtonPress	Neutral	True
499.236	0.39	Control	0.6604000000000001	n/a	Yes	2.629	n/a	n/a	GoodResponse	0	n/a	n/a	5	52	Blank	Neutral	True
499.619	1.45	Control	0.6604000000000001	n/a	Yes	2.629	n/a	5.0	GoodResponse	0	0.009	498.628	5	52	Feedback	Neutral	True
501.069	2.629	Control	0.6604000000000001	n/a	Yes	2.629	n/a	n/a	GoodResponse	0	0.0	n/a	5	52	ISIslide	Neutral	True
503.718	0.25	Win2	0.6667000000000001	0.0	Yes	2.932	0.018	n/a	GoodResponse	1	n/a	n/a	6	53	Cue	Win	False
503.968	4.05	Win2	0.6667000000000001	0.0	Yes	2.932	0.0	2.0	GoodResponse	1	0.344	503.312	6	53	Fixation	Win	False
504.312	0.3	Win2	0.6667000000000001	0.0	Yes	2.932	0.0	2.0	GoodResponse	1	0.344	n/a	6	53	ButtonPress	Win	False
508.016	0.31	Win2	0.6667000000000001	0.002	Yes	2.932	-0.002	2.0	GoodResponse	1	0.256	507.272	6	53	Target	Win	False
508.272	0.3	Win2	0.6667000000000001	0.002	Yes	2.932	-0.002	2.0	GoodResponse	1	0.256	n/a	6	53	ButtonPress	Win	False
508.333	0.39	Win2	0.6667000000000001	n/a	Yes	2.932	n/a	n/a	GoodResponse	1	n/a	n/a	6	53	Blank	Win	False
508.716	1.45	Win2	0.6667000000000001	n/a	Yes	2.932	n/a	5.0	GoodResponse	1	0.034	507.75	6	53	Feedback	Win	False
510.165	2.932	Win2	0.6667000000000001	n/a	Yes	2.932	n/a	n/a	GoodResponse	1	0.0	n/a	6	53	ISIslide	Win	False
513.114	0.25	Win2	0.6545000000000001	0.0	No	2.736	0.014	n/a	NoResponse	0	n/a	n/a	6	54	Cue	MissedWin	True
513.364	3.95	Win2	0.6545000000000001	0.0	No	2.736	0.0	n/a	NoResponse	0	n/a	n/a	6	54	Fixation	MissedWin	True
517.313	0.3	Win2	0.6545000000000001	0.001	No	2.736	-0.001	2.0	NoResponse	0	0.361	516.674	6	54	Target	MissedWin	True
517.613	0.4	Win2	0.6545000000000001	n/a	No	2.736	n/a	n/a	NoResponse	0	n/a	n/a	6	54	Blank	MissedWin	True
517.674	0.3	Win2	0.6545000000000001	0.001	No	2.736	-0.001	2.0	NoResponse	0	0.361	n/a	6	54	ButtonPress	MissedWin	True
518.013	1.45	Win2	0.6545000000000001	n/a	No	2.736	n/a	5.0	NoResponse	0	0.005	517.018	6	54	Feedback	MissedWin	True
519.462	2.736	Win2	0.6545000000000001	n/a	No	2.736	n/a	n/a	NoResponse	0	0.0	n/a	6	54	ISIslide	MissedWin	True
522.228	0.25	Control	0.6607	0.0	Yes	3.022	0.028	n/a	GoodResponse	0	n/a	n/a	6	55	Cue	Neutral	True
522.478	3.95	Control	0.6607	0.0	Yes	3.022	0.0	n/a	GoodResponse	0	n/a	n/a	6	55	Fixation	Neutral	True
526.426	0.31	Control	0.6607	0.002	Yes	3.022	-0.002	2.0	GoodResponse	0	0.262	525.688	6	55	Target	Neutral	True
526.688	0.3	Control	0.6607	0.002	Yes	3.022	-0.002	2.0	GoodResponse	0	0.262	n/a	6	55	ButtonPress	Neutral	True
526.743	0.39	Control	0.6607	n/a	Yes	3.022	n/a	n/a	GoodResponse	0	n/a	n/a	6	55	Blank	Neutral	True
527.126	1.45	Control	0.6607	n/a	Yes	3.022	n/a	5.0	GoodResponse	0	0.014	526.14	6	55	Feedback	Neutral	True
528.576	3.022	Control	0.6607	n/a	Yes	3.022	n/a	n/a	GoodResponse	0	0.0	n/a	6	55	ISIslide	Neutral	True
531.624	0.25	Control	0.6667000000000001	0.001	Yes	2.826	0.024	n/a	GoodResponse	0	n/a	n/a	6	56	Cue	Neutral	True
531.874	3.95	Control	0.6667000000000001	0.0	Yes	2.826	0.0	n/a	GoodResponse	0	n/a	n/a	6	56	Fixation	Neutral	True
535.823	0.31	Control	0.6667000000000001	0.001	Yes	2.826	-0.001	2.0	GoodResponse	0	0.269	535.092	6	56	Target	Neutral	True
536.092	0.3	Control	0.6667000000000001	0.001	Yes	2.826	-0.001	2.0	GoodResponse	0	0.269	n/a	6	56	ButtonPress	Neutral	True
536.14	0.39	Control	0.6667000000000001	n/a	Yes	2.826	n/a	n/a	GoodResponse	0	n/a	n/a	6	56	Blank	Neutral	True
536.523	1.45	Control	0.6667000000000001	n/a	Yes	2.826	n/a	5.0	GoodResponse	0	0.031	535.554	6	56	Feedback	Neutral	True
537.972	2.826	Control	0.6667000000000001	n/a	Yes	2.826	n/a	n/a	GoodResponse	0	0.0	n/a	6	56	ISIslide	Neutral	True
540.821	0.25	Control	0.6724	0.0	Yes	3.479	0.021	n/a	GoodResponse	0	n/a	n/a	6	57	Cue	Neutral	True
541.071	4.0	Control	0.6724	0.0	Yes	3.479	0.0	n/a	GoodResponse	0	n/a	n/a	6	57	Fixation	Neutral	True
545.07	0.3	Control	0.6724	0.001	Yes	3.479	-0.001	2.0	GoodResponse	0	0.266	544.336	6	57	Target	Neutral	True
545.336	0.3	Control	0.6724	0.001	Yes	3.479	-0.001	2.0	GoodResponse	0	0.266	n/a	6	57	ButtonPress	Neutral	True
545.37	0.4	Control	0.6724	n/a	Yes	3.479	n/a	n/a	GoodResponse	0	n/a	n/a	6	57	Blank	Neutral	True
545.769	1.45	Control	0.6724	n/a	Yes	3.479	n/a	5.0	GoodResponse	0	0.007	544.776	6	57	Feedback	Neutral	True
547.219	3.479	Control	0.6724	n/a	Yes	3.479	n/a	n/a	GoodResponse	0	0.0	n/a	6	57	ISIslide	Neutral	True
550.718	0.25	Win2	0.6779999999999999	0.0	Yes	2.732	0.018	n/a	GoodResponse	1	n/a	n/a	7	58	Cue	Win	True
550.968	4.05	Win2	0.6779999999999999	0.0	Yes	2.732	0.0	n/a	GoodResponse	1	n/a	n/a	7	58	Fixation	Win	True
555.016	0.29	Win2	0.6779999999999999	0.002	Yes	2.732	-0.002	2.0	GoodResponse	1	0.276	554.292	7	58	Target	Win	True
555.292	0.3	Win2	0.6779999999999999	0.002	Yes	2.732	-0.002	2.0	GoodResponse	1	0.276	n/a	7	58	ButtonPress	Win	True
555.316	0.41	Win2	0.6779999999999999	n/a	Yes	2.732	n/a	n/a	GoodResponse	1	n/a	n/a	7	58	Blank	Win	True
555.716	1.45	Win2	0.6779999999999999	n/a	Yes	2.732	n/a	5.0	GoodResponse	1	0.009	554.725	7	58	Feedback	Win	True
557.165	2.732	Win2	0.6779999999999999	n/a	Yes	2.732	n/a	n/a	GoodResponse	1	0.0	n/a	7	58	ISIslide	Win	True
559.914	0.25	Lose2	0.6833	0.001	Yes	2.686	0.014	n/a	GoodResponse	0	n/a	n/a	7	59	Cue	AvoidedLoss	True
560.164	4.0	Lose2	0.6833	0.001	Yes	2.686	0.0	n/a	GoodResponse	0	n/a	n/a	7	59	Fixation	AvoidedLoss	True
564.163	0.28	Lose2	0.6833	0.001	Yes	2.686	-0.001	2.0	GoodResponse	0	0.255	563.418	7	59	Target	AvoidedLoss	True
564.418	0.3	Lose2	0.6833	0.001	Yes	2.686	-0.001	2.0	GoodResponse	0	0.255	n/a	7	59	ButtonPress	AvoidedLoss	True
564.446	0.42	Lose2	0.6833	n/a	Yes	2.686	n/a	n/a	GoodResponse	0	n/a	n/a	7	59	Blank	AvoidedLoss	True
564.863	1.45	Lose2	0.6833	n/a	Yes	2.686	n/a	5.0	GoodResponse	0	0.033	563.896	7	59	Feedback	AvoidedLoss	True
566.312	2.686	Lose2	0.6833	n/a	Yes	2.686	n/a	n/a	GoodResponse	0	0.0	n/a	7	59	ISIslide	AvoidedLoss	True
569.028	0.25	Control	0.6720999999999999	0.0	No	2.672	0.028	n/a	LatePress	0	n/a	n/a	7	60	Cue	Neutral	True
569.278	4.0	Control	0.6720999999999999	0.0	No	2.672	0.0	n/a	LatePress	0	n/a	n/a	7	60	Fixation	Neutral	True
573.276	0.27	Control	0.6720999999999999	0.002	No	2.672	-0.002	2.0	LatePress	0	0.274	572.55	7	60	Target	Neutral	True
573.55	0.3	Control	0.6720999999999999	0.002	No	2.672	-0.002	2.0	LatePress	0	0.274	n/a	7	60	ButtonPress	Neutral	True
573.56	0.43	Control	0.6720999999999999	n/a	No	2.672	n/a	n/a	LatePress	0	n/a	n/a	7	60	Blank	Neutral	True
573.976	1.45	Control	0.6720999999999999	n/a	No	2.672	n/a	5.0	LatePress	0	0.041	573.017	7	60	Feedback	Neutral	True
575.426	2.672	Control	0.6720999999999999	n/a	No	2.672	n/a	n/a	LatePress	0	0.0	n/a	7	60	ISIslide	Neutral	True
578.125	0.25	Lose2	0.6774	0.0	Yes	2.975	0.025	n/a	GoodResponse	0	n/a	n/a	7	61	Cue	AvoidedLoss	True
578.375	4.0	Lose2	0.6774	0.0	Yes	2.975	0.0	n/a	GoodResponse	0	n/a	n/a	7	61	Fixation	AvoidedLoss	True
582.373	0.26	Lose2	0.6774	0.002	Yes	2.975	-0.002	2.0	GoodResponse	0	0.249	581.622	7	61	Target	AvoidedLoss	True
582.622	0.3	Lose2	0.6774	0.002	Yes	2.975	-0.002	2.0	GoodResponse	0	0.249	n/a	7	61	ButtonPress	AvoidedLoss	True
582.64	0.44	Lose2	0.6774	n/a	Yes	2.975	n/a	n/a	GoodResponse	0	n/a	n/a	7	61	Blank	AvoidedLoss	True
583.073	1.45	Lose2	0.6774	n/a	Yes	2.975	n/a	5.0	GoodResponse	0	0.017	582.09	7	61	Feedback	AvoidedLoss	True
584.522	2.975	Lose2	0.6774	n/a	Yes	2.975	n/a	n/a	GoodResponse	0	0.0	n/a	7	61	ISIslide	AvoidedLoss	True
587.521	0.25	Lose2	0.6667000000000001	0.0	No	2.879	0.021	n/a	NoResponse	-1	n/a	n/a	6	62	Cue	Loss	True
587.771	3.9	Lose2	0.6667000000000001	0.0	No	2.879	0.0	n/a	NoResponse	-1	n/a	n/a	6	62	Fixation	Loss	True
591.67	0.25	Lose2	0.6667000000000001	0.001	No	2.879	-0.001	2.0	NoResponse	-1	0.272	590.942	6	62	Target	Loss	True
591.92	0.45	Lose2	0.6667000000000001	n/a	No	2.879	n/a	n/a	NoResponse	-1	n/a	n/a	6	62	Blank	Loss	True
591.942	0.3	Lose2	0.6667000000000001	0.001	No	2.879	-0.001	2.0	NoResponse	-1	0.272	n/a	6	62	ButtonPress	Loss	True
592.37	1.45	Lose2	0.6667000000000001	n/a	No	2.879	n/a	5.0	NoResponse	-1	0.037	591.407	6	62	Feedback	Loss	True
593.819	2.879	Lose2	0.6667000000000001	n/a	No	2.879	n/a	n/a	NoResponse	-1	0.0	n/a	6	62	ISIslide	Loss	True
596.718	0.25	Lose2	0.6562	0.0	No	2.632	0.018	n/a	NoResponse	-1	n/a	n/a	5	63	Cue	Loss	True
596.968	4.05	Lose2	0.6562	0.0	No	2.632	0.0	n/a	NoResponse	-1	n/a	n/a	5	63	Fixation	Loss	True
601.017	0.24	Lose2	0.6562	0.001	No	2.632	-0.001	2.0	NoResponse	-1	0.272	600.289	5	63	Target	Loss	True
601.267	0.46	Lose2	0.6562	n/a	No	2.632	n/a	n/a	NoResponse	-1	n/a	n/a	5	63	Blank	Loss	True
601.289	0.3	Lose2	0.6562	0.001	No	2.632	-0.001	2.0	NoResponse	-1	0.272	n/a	5	63	ButtonPress	Loss	True
601.716	1.45	Lose2	0.6562	n/a	No	2.632	n/a	5.0	NoResponse	-1	0.009	600.725	5	63	Feedback	Loss	True
603.166	2.632	Lose2	0.6562	n/a	No	2.632	n/a	n/a	NoResponse	-1	0.0	n/a	5	63	ISIslide	Loss	True
605.815	0.25	Win2	0.6462	0.0	No	3.135	0.015	n/a	NoResponse	0	n/a	n/a	5	64	Cue	MissedWin	True
606.065	4.15	Win2	0.6462	0.0	No	3.135	0.0	n/a	NoResponse	0	n/a	n/a	5	64	Fixation	MissedWin	True
610.213	0.24	Win2	0.6462	0.002	No	3.135	-0.002	2.0	NoResponse	0	0.258	609.471	5	64	Target	MissedWin	True
610.463	0.46	Win2	0.6462	n/a	No	3.135	n/a	n/a	NoResponse	0	n/a	n/a	5	64	Blank	MissedWin	True
610.471	0.3	Win2	0.6462	0.002	No	3.135	-0.002	2.0	NoResponse	0	0.258	n/a	5	64	ButtonPress	MissedWin	True
610.913	1.45	Win2	0.6462	n/a	No	3.135	n/a	5.0	NoResponse	0	0.031	609.944	5	64	Feedback	MissedWin	True
612.363	3.135	Win2	0.6462	n/a	No	3.135	n/a	n/a	NoResponse	0	0.0	n/a	5	64	ISIslide	MissedWin	True
615.512	0.25	Control	0.6364	0.0	No	2.788	0.012	n/a	NoResponse	0	n/a	n/a	5	65	Cue	Neutral	True
615.761	4.0	Control	0.6364	0.001	No	2.788	-0.001	n/a	NoResponse	0	n/a	n/a	5	65	Fixation	Neutral	True
619.76	0.25	Control	0.6364	0.002	No	2.788	-0.002	2.0	NoResponse	0	0.31	619.07	5	65	Target	Neutral	True
620.01	0.45	Control	0.6364	n/a	No	2.788	n/a	n/a	NoResponse	0	n/a	n/a	5	65	Blank	Neutral	True
620.07	0.3	Control	0.6364	0.002	No	2.788	-0.002	2.0	NoResponse	0	0.31	n/a	5	65	ButtonPress	Neutral	True
620.46	1.45	Control	0.6364	n/a	No	2.788	n/a	5.0	NoResponse	0	0.044	619.504	5	65	Feedback	Neutral	True
621.909	2.788	Control	0.6364	n/a	No	2.788	n/a	n/a	NoResponse	0	0.0	n/a	5	65	ISIslide	Neutral	True
624.725	0.25	Win2	0.6269	0.0	No	2.775	0.025	n/a	NoResponse	0	n/a	n/a	5	66	Cue	MissedWin	True
624.975	3.9	Win2	0.6269	0.0	No	2.775	0.0	n/a	NoResponse	0	n/a	n/a	5	66	Fixation	MissedWin	True
628.874	0.26	Win2	0.6269	0.001	No	2.775	-0.001	2.0	NoResponse	0	0.298	628.172	5	66	Target	MissedWin	True
629.14	0.44	Win2	0.6269	n/a	No	2.775	n/a	n/a	NoResponse	0	n/a	n/a	5	66	Blank	MissedWin	True
629.172	0.3	Win2	0.6269	0.001	No	2.775	-0.001	2.0	NoResponse	0	0.298	n/a	5	66	ButtonPress	MissedWin	True
629.573	1.45	Win2	0.6269	n/a	No	2.775	n/a	5.0	NoResponse	0	0.007	628.58	5	66	Feedback	MissedWin	True
631.023	2.775	Win2	0.6269	n/a	No	2.775	n/a	n/a	NoResponse	0	0.0	n/a	5	66	ISIslide	MissedWin	True
633.822	0.25	Control	0.6175999999999999	0.0	No	2.728	0.022	n/a	LatePress	0	n/a	n/a	5	67	Cue	Neutral	True
634.072	3.95	Control	0.6175999999999999	0.0	No	2.728	0.0	n/a	LatePress	0	n/a	n/a	5	67	Fixation	Neutral	True
638.02	0.27	Control	0.6175999999999999	0.002	No	2.728	-0.002	2.0	LatePress	0	0.275	637.295	5	67	Target	Neutral	True
638.295	0.3	Control	0.6175999999999999	0.002	No	2.728	-0.002	2.0	LatePress	0	0.275	n/a	5	67	ButtonPress	Neutral	True
638.304	0.43	Control	0.6175999999999999	n/a	No	2.728	n/a	n/a	LatePress	0	n/a	n/a	5	67	Blank	Neutral	True
638.72	1.45	Control	0.6175999999999999	n/a	No	2.728	n/a	5.0	LatePress	0	0.028	637.748	5	67	Feedback	Neutral	True
640.17	2.728	Control	0.6175999999999999	n/a	No	2.728	n/a	n/a	LatePress	0	0.0	n/a	5	67	ISIslide	Neutral	True
642.919	0.25	Win2	0.6087	0.0	No	3.081	0.019	n/a	NoResponse	0	n/a	n/a	5	68	Cue	MissedWin	True
643.168	4.0	Win2	0.6087	0.001	No	3.081	-0.001	n/a	NoResponse	0	n/a	n/a	5	68	Fixation	MissedWin	True
647.167	0.28	Win2	0.6087	0.002	No	3.081	-0.002	2.0	NoResponse	0	0.284	646.451	5	68	Target	MissedWin	True
647.45	0.42	Win2	0.6087	n/a	No	3.081	n/a	n/a	NoResponse	0	n/a	n/a	5	68	Blank	MissedWin	True
647.451	0.3	Win2	0.6087	0.002	No	3.081	-0.002	2.0	NoResponse	0	0.284	n/a	5	68	ButtonPress	MissedWin	True
647.867	1.45	Win2	0.6087	n/a	No	3.081	n/a	5.0	NoResponse	0	0.007	646.874	5	68	Feedback	MissedWin	True
649.316	3.081	Win2	0.6087	n/a	No	3.081	n/a	n/a	NoResponse	0	0.0	n/a	5	68	ISIslide	MissedWin	True
652.415	0.25	Win2	0.6	0.0	No	3.235	0.015	n/a	LatePress	0	n/a	n/a	5	69	Cue	MissedWin	True
652.665	3.95	Win2	0.6	0.0	No	3.235	0.0	n/a	LatePress	0	n/a	n/a	5	69	Fixation	MissedWin	True
656.614	0.29	Win2	0.6	0.001	No	3.235	-0.001	2.0	LatePress	0	0.294	655.908	5	69	Target	MissedWin	True
656.908	0.3	Win2	0.6	0.001	No	3.235	-0.001	2.0	LatePress	0	0.294	n/a	5	69	ButtonPress	MissedWin	True
656.914	0.41	Win2	0.6	n/a	No	3.235	n/a	n/a	LatePress	0	n/a	n/a	5	69	Blank	MissedWin	True
657.314	1.45	Win2	0.6	n/a	No	3.235	n/a	5.0	LatePress	0	0.02	656.334	5	69	Feedback	MissedWin	True
658.763	3.235	Win2	0.6	n/a	No	3.235	n/a	n/a	LatePress	0	0.0	n/a	5	69	ISIslide	MissedWin	True
662.029	0.25	Lose2	0.6056	0.0	Yes	3.021	0.029	n/a	GoodResponse	0	n/a	n/a	5	70	Cue	AvoidedLoss	True
662.278	4.05	Lose2	0.6056	0.001	Yes	3.021	-0.001	n/a	GoodResponse	0	n/a	n/a	5	70	Fixation	AvoidedLoss	True
666.327	0.3	Lose2	0.6056	0.002	Yes	3.021	-0.002	2.0	GoodResponse	0	0.278	665.605	5	70	Target	AvoidedLoss	True
666.605	0.3	Lose2	0.6056	0.002	Yes	3.021	-0.002	2.0	GoodResponse	0	0.278	n/a	5	70	ButtonPress	AvoidedLoss	True
666.627	0.4	Lose2	0.6056	n/a	Yes	3.021	n/a	n/a	GoodResponse	0	n/a	n/a	5	70	Blank	AvoidedLoss	True
667.027	1.45	Lose2	0.6056	n/a	Yes	3.021	n/a	5.0	GoodResponse	0	0.013	666.04	5	70	Feedback	AvoidedLoss	True
668.476	3.021	Lose2	0.6056	n/a	Yes	3.021	n/a	n/a	GoodResponse	0	0.0	n/a	5	70	ISIslide	AvoidedLoss	True
671.525	0.25	Win2	0.6111	0.0	Yes	2.725	0.025	n/a	GoodResponse	1	n/a	n/a	6	71	Cue	Win	True
671.775	4.05	Win2	0.6111	0.0	Yes	2.725	0.0	n/a	GoodResponse	1	n/a	n/a	6	71	Fixation	Win	True
675.824	0.31	Win2	0.6111	0.001	Yes	2.725	-0.001	2.0	GoodResponse	1	0.305	675.129	6	71	Target	Win	True
676.129	0.3	Win2	0.6111	0.001	Yes	2.725	-0.001	2.0	GoodResponse	1	0.305	n/a	6	71	ButtonPress	Win	True
676.14	0.39	Win2	0.6111	n/a	Yes	2.725	n/a	n/a	GoodResponse	1	n/a	n/a	6	71	Blank	Win	True
676.523	1.45	Win2	0.6111	n/a	Yes	2.725	n/a	5.0	GoodResponse	1	0.03	675.553	6	71	Feedback	Win	True
677.973	2.725	Win2	0.6111	n/a	Yes	2.725	n/a	n/a	GoodResponse	1	0.0	n/a	6	71	ISIslide	Win	True
680.722	0.25	Win2	0.6164000000000001	0.0	Yes	2.778	0.022	n/a	GoodResponse	1	n/a	n/a	7	72	Cue	Win	False
680.972	4.1	Win2	0.6164000000000001	0.0	Yes	2.778	0.0	2.0	GoodResponse	1	0.168	680.14	7	72	Fixation	Win	False
681.14	0.3	Win2	0.6164000000000001	0.0	Yes	2.778	0.0	2.0	GoodResponse	1	0.168	n/a	7	72	ButtonPress	Win	False
685.07	0.32	Win2	0.6164000000000001	0.002	Yes	2.778	-0.002	2.0	GoodResponse	1	0.288	684.358	7	72	Target	Win	False
685.358	0.3	Win2	0.6164000000000001	0.002	Yes	2.778	-0.002	2.0	GoodResponse	1	0.288	n/a	7	72	ButtonPress	Win	False
685.404	0.38	Win2	0.6164000000000001	n/a	Yes	2.778	n/a	n/a	GoodResponse	1	n/a	n/a	7	72	Blank	Win	False
685.77	1.45	Win2	0.6164000000000001	n/a	Yes	2.778	n/a	5.0	GoodResponse	1	0.002	684.772	7	72	Feedback	Win	False
687.22	2.778	Win2	0.6164000000000001	n/a	Yes	2.778	n/a	n/a	GoodResponse	1	0.0	n/a	7	72	ISIslide	Win	False
690.019	0.25	Win2	0.6215999999999999	0.0	Yes	2.681	0.019	n/a	GoodResponse	1	n/a	n/a	8	73	Cue	Win	True
690.269	4.0	Win2	0.6215999999999999	0.0	Yes	2.681	0.0	n/a	GoodResponse	1	n/a	n/a	8	73	Fixation	Win	True
694.267	0.33	Win2	0.6215999999999999	0.002	Yes	2.681	-0.002	2.0	GoodResponse	1	0.271	693.538	8	73	Target	Win	True
694.538	0.3	Win2	0.6215999999999999	0.002	Yes	2.681	-0.002	2.0	GoodResponse	1	0.271	n/a	8	73	ButtonPress	Win	True
694.6	0.37	Win2	0.6215999999999999	n/a	Yes	2.681	n/a	n/a	GoodResponse	1	n/a	n/a	8	73	Blank	Win	True
694.967	1.45	Win2	0.6215999999999999	n/a	Yes	2.681	n/a	5.0	GoodResponse	1	0.025	693.992	8	73	Feedback	Win	True
696.416	2.681	Win2	0.6215999999999999	n/a	Yes	2.681	n/a	n/a	GoodResponse	1	0.0	n/a	8	73	ISIslide	Win	True
699.115	0.25	Lose2	0.6267	0.001	Yes	2.635	0.015	n/a	GoodResponse	0	n/a	n/a	8	74	Cue	AvoidedLoss	False
699.365	4.05	Lose2	0.6267	0.0	Yes	2.635	0.0	2.0	GoodResponse	0	0.09	698.455	8	74	Fixation	AvoidedLoss	False
699.455	0.3	Lose2	0.6267	0.0	Yes	2.635	0.0	2.0	GoodResponse	0	0.09	n/a	8	74	ButtonPress	AvoidedLoss	False
703.414	0.34	Lose2	0.6267	0.001	Yes	2.635	-0.001	2.0	GoodResponse	0	0.282	702.696	8	74	Target	AvoidedLoss	False
703.696	0.3	Lose2	0.6267	0.001	Yes	2.635	-0.001	2.0	GoodResponse	0	0.282	n/a	8	74	ButtonPress	AvoidedLoss	False
703.764	0.36	Lose2	0.6267	n/a	Yes	2.635	n/a	n/a	GoodResponse	0	n/a	n/a	8	74	Blank	AvoidedLoss	False
704.114	1.45	Lose2	0.6267	n/a	Yes	2.635	n/a	5.0	GoodResponse	0	0.048	703.162	8	74	Feedback	AvoidedLoss	False
705.563	2.635	Lose2	0.6267	n/a	Yes	2.635	n/a	n/a	GoodResponse	0	0.0	n/a	8	74	ISIslide	AvoidedLoss	False
708.229	0.25	Lose2	0.6315999999999999	0.0	Yes	2.921	0.029	n/a	GoodResponse	0	n/a	n/a	8	75	Cue	AvoidedLoss	True
708.479	3.95	Lose2	0.6315999999999999	0.0	Yes	2.921	0.0	n/a	GoodResponse	0	n/a	n/a	8	75	Fixation	AvoidedLoss	True
712.427	0.35	Lose2	0.6315999999999999	0.002	Yes	2.921	-0.002	2.0	GoodResponse	0	0.286	711.713	8	75	Target	AvoidedLoss	True
712.713	0.3	Lose2	0.6315999999999999	0.002	Yes	2.921	-0.002	2.0	GoodResponse	0	0.286	n/a	8	75	ButtonPress	AvoidedLoss	True
712.777	0.35	Lose2	0.6315999999999999	n/a	Yes	2.921	n/a	n/a	GoodResponse	0	n/a	n/a	8	75	Blank	AvoidedLoss	True
713.127	1.45	Lose2	0.6315999999999999	n/a	Yes	2.921	n/a	5.0	GoodResponse	0	0.011	712.138	8	75	Feedback	AvoidedLoss	True
714.577	2.921	Lose2	0.6315999999999999	n/a	Yes	2.921	n/a	n/a	GoodResponse	0	0.0	n/a	8	75	ISIslide	AvoidedLoss	True
717.526	0.25	Control	0.6364	0.0	Yes	3.224	0.026	n/a	GoodResponse	0	n/a	n/a	8	76	Cue	Neutral	True
717.776	4.05	Control	0.6364	0.0	Yes	3.224	0.0	n/a	GoodResponse	0	n/a	n/a	8	76	Fixation	Neutral	True
721.824	0.36	Control	0.6364	0.002	Yes	3.224	-0.002	2.0	GoodResponse	0	0.255	721.079	8	76	Target	Neutral	True
722.079	0.3	Control	0.6364	0.002	Yes	3.224	-0.002	2.0	GoodResponse	0	0.255	n/a	8	76	ButtonPress	Neutral	True
722.191	0.34	Control	0.6364	n/a	Yes	3.224	n/a	n/a	GoodResponse	0	n/a	n/a	8	76	Blank	Neutral	True
722.524	1.45	Control	0.6364	n/a	Yes	3.224	n/a	5.0	GoodResponse	0	0.028	721.552	8	76	Feedback	Neutral	True
723.973	3.224	Control	0.6364	n/a	Yes	3.224	n/a	n/a	GoodResponse	0	0.0	n/a	8	76	ISIslide	Neutral	True
727.222	0.25	Lose2	0.6409999999999999	0.0	Yes	2.578	0.022	n/a	GoodResponse	0	n/a	n/a	8	77	Cue	AvoidedLoss	True
727.472	3.95	Lose2	0.6409999999999999	0.0	Yes	2.578	0.0	n/a	GoodResponse	0	n/a	n/a	8	77	Fixation	AvoidedLoss	True
731.421	0.37	Lose2	0.6409999999999999	0.001	Yes	2.578	-0.001	2.0	GoodResponse	0	0.346	730.767	8	77	Target	AvoidedLoss	True
731.767	0.3	Lose2	0.6409999999999999	0.001	Yes	2.578	-0.001	2.0	GoodResponse	0	0.346	n/a	8	77	ButtonPress	AvoidedLoss	True
731.804	0.33	Lose2	0.6409999999999999	n/a	Yes	2.578	n/a	n/a	GoodResponse	0	n/a	n/a	8	77	Blank	AvoidedLoss	True
732.12	1.45	Lose2	0.6409999999999999	n/a	Yes	2.578	n/a	5.0	GoodResponse	0	0.042	731.162	8	77	Feedback	AvoidedLoss	True
733.57	2.578	Lose2	0.6409999999999999	n/a	Yes	2.578	n/a	n/a	GoodResponse	0	0.0	n/a	8	77	ISIslide	AvoidedLoss	True
