onset	duration	cue_type	current_mean_accuracy	duration_error	is_hit	isi_adjusted	onset_delay	response	response_type	reward	rt	rt_time	total_reward	trial_number	trial_phase	trial_type	one_press
11.101	0.25	Control	1.0	0.0	Yes	2.949	0.001	n/a	GoodResponse	0	n/a	n/a	0	0	Cue	Neutral	True
11.35	3.85	Control	1.0	0.001	Yes	2.949	-0.001	n/a	GoodResponse	0	n/a	n/a	0	0	Fixation	Neutral	True
15.199	0.4	Control	1.0	0.002	Yes	2.949	-0.002	4.0	GoodResponse	0	0.261	14.46	0	0	Target	Neutral	True
15.46	0.3	Control	1.0	0.002	Yes	2.949	-0.002	4.0	GoodResponse	0	0.261	n/a	0	0	ButtonPress	Neutral	True
15.599	0.3	Control	1.0	n/a	Yes	2.949	n/a	n/a	GoodResponse	0	n/a	n/a	0	0	Blank	Neutral	True
15.899	1.45	Control	1.0	n/a	Yes	2.949	n/a	5.0	GoodResponse	0	0.028	14.927	0	0	Feedback	Neutral	True
17.348	2.949	Control	1.0	n/a	Yes	2.949	n/a	n/a	GoodResponse	0	0.0	n/a	0	0	ISIslide	Neutral	True
20.314	0.25	Lose2	1.0	0.0	Yes	2.786	0.014	n/a	GoodResponse	0	n/a	n/a	0	1	Cue	AvoidedLoss	True
20.564	4.0	Lose2	1.0	0.0	Yes	2.786	0.0	n/a	GoodResponse	0	n/a	n/a	0	1	Fixation	AvoidedLoss	True
24.562	0.39	Lose2	1.0	0.002	Yes	2.786	-0.002	4.0	GoodResponse	0	0.242	23.804	0	1	Target	AvoidedLoss	True
24.804	0.3	Lose2	1.0	0.002	Yes	2.786	-0.002	4.0	GoodResponse	0	0.242	n/a	0	1	ButtonPress	AvoidedLoss	True
24.962	0.31	Lose2	1.0	n/a	Yes	2.786	n/a	n/a	GoodResponse	0	n/a	n/a	0	1	Blank	AvoidedLoss	True
25.262	1.45	Lose2	1.0	n/a	Yes	2.786	n/a	5.0	GoodResponse	0	0.031	24.293	0	1	Feedback	AvoidedLoss	True
26.712	2.786	Lose2	1.0	n/a	Yes	2.786	n/a	n/a	GoodResponse	0	0.0	n/a	0	1	ISIslide	AvoidedLoss	True
29.527	0.25	Control	1.0	0.0	Yes	2.573	0.027	n/a	GoodResponse	0	n/a	n/a	0	2	Cue	Neutral	True
29.777	4.1	Control	1.0	0.0	Yes	2.573	0.0	n/a	GoodResponse	0	n/a	n/a	0	2	Fixation	Neutral	True
33.876	0.38	Control	1.0	0.001	Yes	2.573	-0.001	4.0	GoodResponse	0	0.229	33.105	0	2	Target	Neutral	True
34.105	0.3	Control	1.0	0.001	Yes	2.573	-0.001	4.0	GoodResponse	0	0.229	n/a	0	2	ButtonPress	Neutral	True
34.259	0.32	Control	1.0	n/a	Yes	2.573	n/a	n/a	GoodResponse	0	n/a	n/a	0	2	Blank	Neutral	True
34.576	1.45	Control	1.0	n/a	Yes	2.573	n/a	5.0	GoodResponse	0	0.034	33.61	0	2	Feedback	Neutral	True
36.025	2.573	Control	1.0	n/a	Yes	2.573	n/a	n/a	GoodResponse	0	0.0	n/a	0	2	ISIslide	Neutral	True
38.624	0.25	Win2	1.0	0.0	Yes	2.826	0.024	n/a	GoodResponse	1	n/a	n/a	1	3	Cue	Win	True
38.874	3.95	Win2	1.0	0.0	Yes	2.826	0.0	n/a	GoodResponse	1	n/a	n/a	1	3	Fixation	Win	True
42.823	0.37	Win2	1.0	0.001	Yes	2.826	-0.001	4.0	GoodResponse	1	0.233	42.056	1	3	Target	Win	True
43.056	0.3	Win2	1.0	0.001	Yes	2.826	-0.001	4.0	GoodResponse	1	0.233	n/a	1	3	ButtonPress	Win	True
43.206	0.33	Win2	1.0	n/a	Yes	2.826	n/a	n/a	GoodResponse	1	n/a	n/a	1	3	Blank	Win	True
43.523	1.45	Win2	1.0	n/a	Yes	2.826	n/a	5.0	GoodResponse	1	0.013	42.536	1	3	Feedback	Win	True
44.972	2.826	Win2	1.0	n/a	Yes	2.826	n/a	n/a	GoodResponse	1	0.0	n/a	1	3	ISIslide	Win	True
47.821	0.25	Win2	1.0	0.0	Yes	3.279	0.021	n/a	GoodResponse	1	n/a	n/a	2	4	Cue	Win	True
48.071	4.0	Win2	1.0	0.0	Yes	3.279	0.0	n/a	GoodResponse	1	n/a	n/a	2	4	Fixation	Win	True
52.07	0.36	Win2	1.0	0.001	Yes	3.279	-0.001	4.0	GoodResponse	1	0.282	51.352	2	4	Target	Win	True
52.352	0.3	Win2	1.0	0.001	Yes	3.279	-0.001	4.0	GoodResponse	1	0.282	n/a	2	4	ButtonPress	Win	True
52.436	0.34	Win2	1.0	n/a	Yes	3.279	n/a	n/a	GoodResponse	1	n/a	n/a	2	4	Blank	Win	True
52.769	1.45	Win2	1.0	n/a	Yes	3.279	n/a	5.0	GoodResponse	1	0.035	51.804	2	4	Feedback	Win	True
54.219	3.279	Win2	1.0	n/a	Yes	3.279	n/a	n/a	GoodResponse	1	0.0	n/a	2	4	ISIslide	Win	True
57.518	0.25	Win2	1.0	0.0	Yes	2.782	0.018	n/a	GoodResponse	1	n/a	n/a	3	5	Cue	Win	True
57.768	4.0	Win2	1.0	0.0	Yes	2.782	0.0	n/a	GoodResponse	1	n/a	n/a	3	5	Fixation	Win	True
61.766	0.35	Win2	1.0	0.002	Yes	2.782	-0.002	4.0	GoodResponse	1	0.243	61.009	3	5	Target	Win	True
62.009	0.3	Win2	1.0	0.002	Yes	2.782	-0.002	4.0	GoodResponse	1	0.243	n/a	3	5	ButtonPress	Win	True
62.116	0.35	Win2	1.0	n/a	Yes	2.782	n/a	n/a	GoodResponse	1	n/a	n/a	3	5	Blank	Win	True
62.466	1.45	Win2	1.0	n/a	Yes	2.782	n/a	5.0	GoodResponse	1	0.046	61.512	3	5	Feedback	Win	True
63.915	2.782	Win2	1.0	n/a	Yes	2.782	n/a	n/a	GoodResponse	1	0.0	n/a	3	5	ISIslide	Win	True
66.714	0.25	Lose2	1.0	0.001	Yes	2.736	0.014	n/a	GoodResponse	0	n/a	n/a	3	6	Cue	AvoidedLoss	True
66.964	3.95	Lose2	1.0	0.0	Yes	2.736	0.0	n/a	GoodResponse	0	n/a	n/a	3	6	Fixation	AvoidedLoss	True
70.913	0.34	Lose2	1.0	0.001	Yes	2.736	-0.001	4.0	GoodResponse	0	0.254	70.167	3	6	Target	AvoidedLoss	True
71.167	0.3	Lose2	1.0	0.001	Yes	2.736	-0.001	4.0	GoodResponse	0	0.254	n/a	3	6	ButtonPress	AvoidedLoss	True
71.263	0.36	Lose2	1.0	n/a	Yes	2.736	n/a	n/a	GoodResponse	0	n/a	n/a	3	6	Blank	AvoidedLoss	True
71.613	1.45	Lose2	1.0	n/a	Yes	2.736	n/a	5.0	GoodResponse	0	0.021	70.634	3	6	Feedback	AvoidedLoss	True
73.062	2.736	Lose2	1.0	n/a	Yes	2.736	n/a	n/a	GoodResponse	0	0.0	n/a	3	6	ISIslide	AvoidedLoss	True
75.828	0.25	Lose2	1.0	0.0	Yes	4.022	0.028	n/a	GoodResponse	0	n/a	n/a	3	7	Cue	AvoidedLoss	True
76.078	4.05	Lose2	1.0	0.0	Yes	4.022	0.0	n/a	GoodResponse	0	n/a	n/a	3	7	Fixation	AvoidedLoss	True
80.126	0.33	Lose2	1.0	0.002	Yes	4.022	-0.002	4.0	GoodResponse	0	0.256	79.382	3	7	Target	AvoidedLoss	True
80.382	0.3	Lose2	1.0	0.002	Yes	4.022	-0.002	4.0	GoodResponse	0	0.256	n/a	3	7	ButtonPress	AvoidedLoss	True
80.46	0.37	Lose2	1.0	n/a	Yes	4.022	n/a	n/a	GoodResponse	0	n/a	n/a	3	7	Blank	AvoidedLoss	True
80.826	1.45	Lose2	1.0	n/a	Yes	4.022	n/a	5.0	GoodResponse	0	0.027	79.853	3	7	Feedback	AvoidedLoss	True
82.276	4.022	Lose2	1.0	n/a	Yes	4.022	n/a	n/a	GoodResponse	0	0.0	n/a	3	7	ISIslide	AvoidedLoss	True
86.324	0.25	Lose2	1.0	0.0	Yes	3.026	0.024	n/a	GoodResponse	0	n/a	n/a	3	8	Cue	AvoidedLoss	True
86.574	3.95	Lose2	1.0	0.0	Yes	3.026	0.0	n/a	GoodResponse	0	n/a	n/a	3	8	Fixation	AvoidedLoss	True
90.523	0.32	Lose2	1.0	0.001	Yes	3.026	-0.001	4.0	GoodResponse	0	0.258	89.781	3	8	Target	AvoidedLoss	True
90.781	0.3	Lose2	1.0	0.001	Yes	3.026	-0.001	4.0	GoodResponse	0	0.258	n/a	3	8	ButtonPress	AvoidedLoss	True
90.856	0.38	Lose2	1.0	n/a	Yes	3.026	n/a	n/a	GoodResponse	0	n/a	n/a	3	8	Blank	AvoidedLoss	True
91.223	1.45	Lose2	1.0	n/a	Yes	3.026	n/a	5.0	GoodResponse	0	0.02	90.243	3	8	Feedback	AvoidedLoss	True
92.672	3.026	Lose2	1.0	n/a	Yes	3.026	n/a	n/a	GoodResponse	0	0.0	n/a	3	8	ISIslide	AvoidedLoss	True
95.721	0.25	Lose2	1.0	0.0	Yes	3.129	0.021	n/a	GoodResponse	0	n/a	n/a	3	9	Cue	AvoidedLoss	True
95.971	3.95	Lose2	1.0	0.0	Yes	3.129	0.0	n/a	GoodResponse	0	n/a	n/a	3	9	Fixation	AvoidedLoss	True
99.92	0.31	Lose2	1.0	0.001	Yes	3.129	-0.001	4.0	GoodResponse	0	0.251	99.171	3	9	Target	AvoidedLoss	True
100.171	0.3	Lose2	1.0	0.001	Yes	3.129	-0.001	4.0	GoodResponse	0	0.251	n/a	3	9	ButtonPress	AvoidedLoss	True
100.236	0.39	Lose2	1.0	n/a	Yes	3.129	n/a	n/a	GoodResponse	0	n/a	n/a	3	9	Blank	AvoidedLoss	True
100.619	1.45	Lose2	1.0	n/a	Yes	3.129	n/a	5.0	GoodResponse	0	0.038	99.657	3	9	Feedback	AvoidedLoss	True
102.069	3.129	Lose2	1.0	n/a	Yes	3.129	n/a	n/a	GoodResponse	0	0.0	n/a	3	9	ISIslide	AvoidedLoss	True
105.218	0.25	Control	1.0	0.0	Yes	3.282	0.018	n/a	GoodResponse	0	n/a	n/a	3	10	Cue	Neutral	True
105.468	4.0	Control	1.0	0.0	Yes	3.282	0.0	n/a	GoodResponse	0	n/a	n/a	3	10	Fixation	Neutral	True
109.466	0.3	Control	1.0	0.002	Yes	3.282	-0.002	4.0	GoodResponse	0	0.226	108.692	3	10	Target	Neutral	True
109.692	0.3	Control	1.0	0.002	Yes	3.282	-0.002	4.0	GoodResponse	0	0.226	n/a	3	10	ButtonPress	Neutral	True
109.766	0.4	Control	1.0	n/a	Yes	3.282	n/a	n/a	GoodResponse	0	n/a	n/a	3	10	Blank	Neutral	True
110.166	1.45	Control	1.0	n/a	Yes	3.282	n/a	5.0	GoodResponse	0	0.007	109.173	3	10	Feedback	Neutral	True
111.615	3.282	Control	1.0	n/a	Yes	3.282	n/a	n/a	GoodResponse	0	0.0	n/a	3	10	ISIslide	Neutral	True
114.914	0.25	Lose2	1.0	0.0	Yes	2.736	0.014	n/a	GoodResponse	0	n/a	n/a	3	11	Cue	AvoidedLoss	True
115.164	4.05	Lose2	1.0	0.0	Yes	2.736	0.0	n/a	GoodResponse	0	n/a	n/a	3	11	Fixation	AvoidedLoss	True
119.213	0.29	Lose2	1.0	0.001	Yes	2.736	-0.001	4.0	GoodResponse	0	0.221	118.434	3	11	Target	AvoidedLoss	True
119.434	0.3	Lose2	1.0	0.001	Yes	2.736	-0.001	4.0	GoodResponse	0	0.221	n/a	3	11	ButtonPress	AvoidedLoss	True
119.513	0.41	Lose2	1.0	n/a	Yes	2.736	n/a	n/a	GoodResponse	0	n/a	n/a	3	11	Blank	AvoidedLoss	True
119.913	1.45	Lose2	1.0	n/a	Yes	2.736	n/a	5.0	GoodResponse	0	0.013	118.926	3	11	Feedback	AvoidedLoss	True
121.362	2.736	Lose2	1.0	n/a	Yes	2.736	n/a	n/a	GoodResponse	0	0.0	n/a	3	11	ISIslide	AvoidedLoss	True
124.128	0.25	Control	1.0	0.0	Yes	2.972	0.028	n/a	GoodResponse	0	n/a	n/a	3	12	Cue	Neutral	True
124.378	3.9	Control	1.0	0.0	Yes	2.972	0.0	n/a	GoodResponse	0	n/a	n/a	3	12	Fixation	Neutral	True
128.276	0.28	Control	1.0	0.002	Yes	2.972	-0.002	4.0	GoodResponse	0	0.244	127.52	3	12	Target	Neutral	True
128.52	0.3	Control	1.0	0.002	Yes	2.972	-0.002	4.0	GoodResponse	0	0.244	n/a	3	12	ButtonPress	Neutral	True
128.56	0.42	Control	1.0	n/a	Yes	2.972	n/a	n/a	GoodResponse	0	n/a	n/a	3	12	Blank	Neutral	True
128.976	1.45	Control	1.0	n/a	Yes	2.972	n/a	5.0	GoodResponse	0	0.023	127.999	3	12	Feedback	Neutral	True
130.426	2.972	Control	1.0	n/a	Yes	2.972	n/a	n/a	GoodResponse	0	0.0	n/a	3	12	ISIslide	Neutral	True
133.424	0.25	Control	1.0	0.001	Yes	2.776	0.024	n/a	GoodResponse	0	n/a	n/a	3	13	Cue	Neutral	True
133.674	4.0	Control	1.0	0.001	Yes	2.776	0.0	n/a	GoodResponse	0	n/a	n/a	3	13	Fixation	Neutral	True
137.673	0.27	Control	1.0	0.001	Yes	2.776	-0.001	4.0	GoodResponse	0	0.253	136.926	3	13	Target	Neutral	True
137.926	0.3	Control	1.0	0.001	Yes	2.776	-0.001	4.0	GoodResponse	0	0.253	n/a	3	13	ButtonPress	Neutral	True
137.94	0.43	Control	1.0	n/a	Yes	2.776	n/a	n/a	GoodResponse	0	n/a	n/a	3	13	Blank	Neutral	True
138.373	1.45	Control	1.0	n/a	Yes	2.776	n/a	5.0	GoodResponse	0	0.04	137.413	3	13	Feedback	Neutral	True
139.822	2.776	Control	1.0	n/a	Yes	2.776	n/a	n/a	GoodResponse	0	0.0	n/a	3	13	ISIslide	Neutral	True
142.621	0.25	Win2	0.9333	0.0	No	2.679	0.021	n/a	LatePress	0	n/a	n/a	3	14	Cue	MissedWin	True
142.871	4.1	Win2	0.9333	0.0	No	2.679	0.0	n/a	LatePress	0	n/a	n/a	3	14	Fixation	MissedWin	True
146.97	0.26	Win2	0.9333	0.001	No	2.679	-0.001	4.0	LatePress	0	0.262	146.232	3	14	Target	MissedWin	True
147.232	0.3	Win2	0.9333	0.001	No	2.679	-0.001	4.0	LatePress	0	0.262	n/a	3	14	ButtonPress	MissedWin	True
147.236	0.44	Win2	0.9333	n/a	No	2.679	n/a	n/a	LatePress	0	n/a	n/a	3	14	Blank	MissedWin	True
147.67	1.45	Win2	0.9333	n/a	No	2.679	n/a	5.0	LatePress	0	0.011	146.681	3	14	Feedback	MissedWin	True
149.119	2.679	Win2	0.9333	n/a	No	2.679	n/a	n/a	LatePress	0	0.0	n/a	3	14	ISIslide	MissedWin	True
151.818	0.25	Control	0.9375	0.0	Yes	2.982	0.018	n/a	GoodResponse	0	n/a	n/a	3	15	Cue	Neutral	True
152.068	4.0	Control	0.9375	0.0	Yes	2.982	0.0	n/a	GoodResponse	0	n/a	n/a	3	15	Fixation	Neutral	True
156.067	0.25	Control	0.9375	0.001	Yes	2.982	-0.001	4.0	GoodResponse	0	0.217	155.284	3	15	Target	Neutral	True
156.284	0.3	Control	0.9375	0.001	Yes	2.982	-0.001	4.0	GoodResponse	0	0.217	n/a	3	15	ButtonPress	Neutral	True
156.317	0.45	Control	0.9375	n/a	Yes	2.982	n/a	n/a	GoodResponse	0	n/a	n/a	3	15	Blank	Neutral	True
156.766	1.45	Control	0.9375	n/a	Yes	2.982	n/a	5.0	GoodResponse	0	0.037	155.803	3	15	Feedback	Neutral	True
158.216	2.982	Control	0.9375	n/a	Yes	2.982	n/a	n/a	GoodResponse	0	0.0	n/a	3	15	ISIslide	Neutral	True
161.215	0.25	Win2	0.9412	0.0	Yes	2.885	0.015	n/a	GoodResponse	1	n/a	n/a	4	16	Cue	Win	True
161.465	4.0	Win2	0.9412	0.0	Yes	2.885	0.0	n/a	GoodResponse	1	n/a	n/a	4	16	Fixation	Win	True
165.463	0.24	Win2	0.9412	0.002	Yes	2.885	-0.002	4.0	GoodResponse	1	0.205	164.668	4	16	Target	Win	True
165.668	0.3	Win2	0.9412	0.002	Yes	2.885	-0.002	4.0	GoodResponse	1	0.205	n/a	4	16	ButtonPress	Win	True
165.713	0.46	Win2	0.9412	n/a	Yes	2.885	n/a	n/a	GoodResponse	1	n/a	n/a	4	16	Blank	Win	True
166.163	1.45	Win2	0.9412	n/a	Yes	2.885	n/a	5.0	GoodResponse	1	0.007	165.17	4	16	Feedback	Win	True
167.613	2.885	Win2	0.9412	n/a	Yes	2.885	n/a	n/a	GoodResponse	1	0.0	n/a	4	16	ISIslide	Win	True
170.528	0.25	Lose2	0.9444	0.0	Yes	2.722	0.028	n/a	GoodResponse	0	n/a	n/a	4	17	Cue	AvoidedLoss	True
170.778	3.95	Lose2	0.9444	0.0	Yes	2.722	0.0	n/a	GoodResponse	0	n/a	n/a	4	17	Fixation	AvoidedLoss	True
174.727	0.23	Lose2	0.9444	0.001	Yes	2.722	-0.001	4.0	GoodResponse	0	0.19	173.917	4	17	Target	AvoidedLoss	True
174.917	0.3	Lose2	0.9444	0.001	Yes	2.722	-0.001	4.0	GoodResponse	0	0.19	n/a	4	17	ButtonPress	AvoidedLoss	True
174.96	0.47	Lose2	0.9444	n/a	Yes	2.722	n/a	n/a	GoodResponse	0	n/a	n/a	4	17	Blank	AvoidedLoss	True
175.427	1.45	Lose2	0.9444	n/a	Yes	2.722	n/a	5.0	GoodResponse	0	0.011	174.438	4	17	Feedback	AvoidedLoss	True
176.876	2.722	Lose2	0.9444	n/a	Yes	2.722	n/a	n/a	GoodResponse	0	0.0	n/a	4	17	ISIslide	AvoidedLoss	True
179.625	0.25	Lose2	0.8946999999999999	0.0	No	2.725	0.025	n/a	LatePress	-1	n/a	n/a	3	18	Cue	Loss	True
179.875	4.05	Lose2	0.8946999999999999	0.0	No	2.725	0.0	n/a	LatePress	-1	n/a	n/a	3	18	Fixation	Loss	True
183.924	0.22	Lose2	0.8946999999999999	0.001	No	2.725	-0.001	4.0	LatePress	-1	0.221	183.145	3	18	Target	Loss	True
184.145	0.3	Lose2	0.8946999999999999	0.001	No	2.725	-0.001	4.0	LatePress	-1	0.221	n/a	3	18	ButtonPress	Loss	True
184.157	0.48	Lose2	0.8946999999999999	n/a	No	2.725	n/a	n/a	LatePress	-1	n/a	n/a	3	18	Blank	Loss	True
184.623	1.45	Lose2	0.8946999999999999	n/a	No	2.725	n/a	5.0	LatePress	-1	0.034	183.657	3	18	Feedback	Loss	True
186.073	2.725	Lose2	0.8946999999999999	n/a	No	2.725	n/a	n/a	LatePress	-1	0.0	n/a	3	18	ISIslide	Loss	True
188.822	0.25	Control	0.9	0.0	Yes	2.928	0.022	n/a	GoodResponse	0	n/a	n/a	3	19	Cue	Neutral	True
189.072	3.95	Control	0.9	0.0	Yes	2.928	0.0	n/a	GoodResponse	0	n/a	n/a	3	19	Fixation	Neutral	True
193.02	0.21	Control	0.9	0.002	Yes	2.928	-0.002	4.0	GoodResponse	0	0.207	192.227	3	19	Target	Neutral	True
193.227	0.3	Control	0.9	0.002	Yes	2.928	-0.002	4.0	GoodResponse	0	0.207	n/a	3	19	ButtonPress	Neutral	True
193.237	0.49	Control	0.9	n/a	Yes	2.928	n/a	n/a	GoodResponse	0	n/a	n/a	3	19	Blank	Neutral	True
193.72	1.45	Control	0.9	n/a	Yes	2.928	n/a	5.0	GoodResponse	0	0.01	192.73	3	19	Feedback	Neutral	True
195.17	2.928	Control	0.9	n/a	Yes	2.928	n/a	n/a	GoodResponse	0	0.0	n/a	3	19	ISIslide	Neutral	True
198.119	0.25	Control	0.8571	0.0	No	2.631	0.019	n/a	NoResponse	0	n/a	n/a	3	20	Cue	Neutral	True
198.369	4.05	Control	0.8571	0.0	No	2.631	0.0	n/a	NoResponse	0	n/a	n/a	3	20	Fixation	Neutral	True
202.417	0.2	Control	0.8571	0.002	No	2.631	-0.002	4.0	NoResponse	0	0.211	201.628	3	20	Target	Neutral	True
202.617	0.5	Control	0.8571	n/a	No	2.631	n/a	n/a	NoResponse	0	n/a	n/a	3	20	Blank	Neutral	True
202.628	0.3	Control	0.8571	0.002	No	2.631	-0.002	4.0	NoResponse	0	0.211	n/a	3	20	ButtonPress	Neutral	True
203.117	1.45	Control	0.8571	n/a	No	2.631	n/a	5.0	NoResponse	0	0.028	202.145	3	20	Feedback	Neutral	True
204.566	2.631	Control	0.8571	n/a	No	2.631	n/a	n/a	NoResponse	0	0.0	n/a	3	20	ISIslide	Neutral	True
207.215	0.25	Control	0.8181999999999999	0.001	No	2.785	0.015	n/a	LatePress	0	n/a	n/a	3	21	Cue	Neutral	True
207.465	4.1	Control	0.8181999999999999	0.0	No	2.785	0.0	n/a	LatePress	0	n/a	n/a	3	21	Fixation	Neutral	True
211.564	0.19	Control	0.8181999999999999	0.001	No	2.785	-0.001	4.0	LatePress	0	0.199	210.763	3	21	Target	Neutral	True
211.763	0.3	Control	0.8181999999999999	0.001	No	2.785	-0.001	4.0	LatePress	0	0.199	n/a	3	21	ButtonPress	Neutral	True
211.764	0.51	Control	0.8181999999999999	n/a	No	2.785	n/a	n/a	LatePress	0	n/a	n/a	3	21	Blank	Neutral	True
212.264	1.45	Control	0.8181999999999999	n/a	No	2.785	n/a	5.0	LatePress	0	0.007	211.271	3	21	Feedback	Neutral	True
213.713	2.785	Control	0.8181999999999999	n/a	No	2.785	n/a	n/a	LatePress	0	0.0	n/a	3	21	ISIslide	Neutral	True
216.512	0.25	Control	0.7826000000000001	0.0	No	2.788	0.012	n/a	NoResponse	0	n/a	n/a	3	22	Cue	Neutral	True
216.762	4.0	Control	0.7826000000000001	0.0	No	2.788	0.0	n/a	NoResponse	0	n/a	n/a	3	22	Fixation	Neutral	True
220.761	0.18	Control	0.7826000000000001	0.001	No	2.788	-0.001	4.0	NoResponse	0	0.21	219.971	3	22	Target	Neutral	True
220.944	0.52	Control	0.7826000000000001	n/a	No	2.788	n/a	n/a	NoResponse	0	n/a	n/a	3	22	Blank	Neutral	True
220.971	0.3	Control	0.7826000000000001	0.001	No	2.788	-0.001	4.0	NoResponse	0	0.21	n/a	3	22	ButtonPress	Neutral	True
221.46	1.45	Control	0.7826000000000001	n/a	No	2.788	n/a	5.0	NoResponse	0	0.026	220.486	3	22	Feedback	Neutral	True
222.91	2.788	Control	0.7826000000000001	n/a	No	2.788	n/a	n/a	NoResponse	0	0.0	n/a	3	22	ISIslide	Neutral	True
225.726	0.25	Control	0.75	0.0	No	2.774	0.026	n/a	NoResponse	0	n/a	n/a	3	23	Cue	Neutral	True
225.976	3.9	Control	0.75	0.0	No	2.774	0.0	n/a	NoResponse	0	n/a	n/a	3	23	Fixation	Neutral	True
229.874	0.17	Control	0.75	0.002	No	2.774	-0.002	4.0	NoResponse	0	0.21	229.084	3	23	Target	Neutral	True
230.057	0.53	Control	0.75	n/a	No	2.774	n/a	n/a	NoResponse	0	n/a	n/a	3	23	Blank	Neutral	True
230.084	0.3	Control	0.75	0.002	No	2.774	-0.002	4.0	NoResponse	0	0.21	n/a	3	23	ButtonPress	Neutral	True
230.574	1.45	Control	0.75	n/a	No	2.774	n/a	5.0	NoResponse	0	0.034	229.608	3	23	Feedback	Neutral	True
232.023	2.774	Control	0.75	n/a	No	2.774	n/a	n/a	NoResponse	0	0.0	n/a	3	23	ISIslide	Neutral	True
234.822	0.25	Win2	0.72	0.001	No	3.128	0.022	n/a	NoResponse	0	n/a	n/a	3	24	Cue	MissedWin	True
235.072	3.95	Win2	0.72	0.0	No	3.128	0.0	n/a	NoResponse	0	n/a	n/a	3	24	Fixation	MissedWin	True
239.021	0.16	Win2	0.72	0.001	No	3.128	-0.001	4.0	NoResponse	0	0.176	238.197	3	24	Target	MissedWin	True
239.188	0.54	Win2	0.72	n/a	No	3.128	n/a	n/a	NoResponse	0	n/a	n/a	3	24	Blank	MissedWin	True
239.197	0.3	Win2	0.72	0.001	No	3.128	-0.001	4.0	NoResponse	0	0.176	n/a	3	24	ButtonPress	MissedWin	True
239.721	1.45	Win2	0.72	n/a	No	3.128	n/a	5.0	NoResponse	0	0.008	238.729	3	24	Feedback	MissedWin	True
241.17	3.128	Win2	0.72	n/a	No	3.128	n/a	n/a	NoResponse	0	0.0	n/a	3	24	ISIslide	MissedWin	True
244.319	0.25	Win2	0.6923	0.0	No	3.081	0.019	n/a	NoResponse	0	n/a	n/a	3	25	Cue	MissedWin	True
244.569	4.0	Win2	0.6923	0.0	No	3.081	0.0	n/a	NoResponse	0	n/a	n/a	3	25	Fixation	MissedWin	True
248.568	0.15	Win2	0.6923	0.001	No	3.081	-0.001	4.0	NoResponse	0	0.189	247.757	3	25	Target	MissedWin	True
248.718	0.55	Win2	0.6923	n/a	No	3.081	n/a	n/a	NoResponse	0	n/a	n/a	3	25	Blank	MissedWin	True
248.757	0.3	Win2	0.6923	0.001	No	3.081	-0.001	4.0	NoResponse	0	0.189	n/a	3	25	ButtonPress	MissedWin	True
249.267	1.45	Win2	0.6923	n/a	No	3.081	n/a	5.0	NoResponse	0	0.024	248.291	3	25	Feedback	MissedWin	True
250.717	3.081	Win2	0.6923	n/a	No	3.081	n/a	n/a	NoResponse	0	0.0	n/a	3	25	ISIslide	MissedWin	True
253.816	0.25	Win2	0.6667000000000001	0.0	No	2.934	0.016	n/a	NoResponse	0	n/a	n/a	3	26	Cue	MissedWin	True
254.066	3.95	Win2	0.6667000000000001	0.0	No	2.934	0.0	4.0	NoResponse	0	3.776	256.842	3	26	Fixation	MissedWin	True
257.842	0.3	Win2	0.6667000000000001	0.0	No	2.934	0.0	4.0	NoResponse	0	3.776	n/a	3	26	ButtonPress	MissedWin	True
258.014	0.15	Win2	0.6667000000000001	0.002	No	2.934	-0.002	n/a	NoResponse	0	n/a	n/a	3	26	Target	MissedWin	True
258.164	0.55	Win2	0.6667000000000001	n/a	No	2.934	n/a	n/a	NoResponse	0	n/a	n/a	3	26	Blank	MissedWin	True
258.714	1.45	Win2	0.6667000000000001	n/a	No	2.934	n/a	5.0	NoResponse	0	0.04	257.754	3	26	Feedback	MissedWin	True
260.164	2.934	Win2	0.6667000000000001	n/a	No	2.934	n/a	n/a	NoResponse	0	0.0	n/a	3	26	ISIslide	MissedWin	True
263.129	0.25	Lose2	0.6429	0.0	No	2.821	0.029	n/a	NoResponse	-1	n/a	n/a	2	27	Cue	Loss	True
263.379	4.05	Lose2	0.6429	0.0	No	2.821	0.0	n/a	NoResponse	-1	n/a	n/a	2	27	Fixation	Loss	True
267.428	0.15	Lose2	0.6429	0.001	No	2.821	-0.001	4.0	NoResponse	-1	0.187	266.615	2	27	Target	Loss	True
267.578	0.55	Lose2	0.6429	n/a	No	2.821	n/a	n/a	NoResponse	-1	n/a	n/a	2	27	Blank	Loss	True
267.615	0.3	Lose2	0.6429	0.001	No	2.821	-0.001	4.0	NoResponse	-1	0.187	n/a	2	27	ButtonPress	Loss	True
268.128	1.45	Lose2	0.6429	n/a	No	2.821	n/a	5.0	NoResponse	-1	0.041	267.169	2	27	Feedback	Loss	True
269.577	2.821	Lose2	0.6429	n/a	No	2.821	n/a	n/a	NoResponse	-1	0.0	n/a	2	27	ISIslide	Loss	True
272.426	0.25	Control	0.6207	0.0	No	2.824	0.026	n/a	NoResponse	0	n/a	n/a	2	28	Cue	Neutral	True
272.676	4.05	Control	0.6207	0.0	No	2.824	0.0	n/a	NoResponse	0	n/a	n/a	2	28	Fixation	Neutral	True
276.724	0.16	Control	0.6207	0.002	No	2.824	-0.002	4.0	NoResponse	0	0.256	275.98	2	28	Target	Neutral	True
276.891	0.54	Control	0.6207	n/a	No	2.824	n/a	n/a	NoResponse	0	n/a	n/a	2	28	Blank	Neutral	True
276.98	0.3	Control	0.6207	0.002	No	2.824	-0.002	4.0	NoResponse	0	0.256	n/a	2	28	ButtonPress	Neutral	True
277.424	1.45	Control	0.6207	n/a	No	2.824	n/a	5.0	NoResponse	0	0.013	276.437	2	28	Feedback	Neutral	True
278.874	2.824	Control	0.6207	n/a	No	2.824	n/a	n/a	NoResponse	0	0.0	n/a	2	28	ISIslide	Neutral	True
281.723	0.25	Lose2	0.6	0.0	No	2.827	0.023	n/a	LatePress	-1	n/a	n/a	1	29	Cue	Loss	True
281.973	3.95	Lose2	0.6	0.0	No	2.827	0.0	n/a	LatePress	-1	n/a	n/a	1	29	Fixation	Loss	True
285.921	0.17	Lose2	0.6	0.002	No	2.827	-0.002	4.0	LatePress	-1	0.18	285.101	1	29	Target	Loss	True
286.101	0.3	Lose2	0.6	0.002	No	2.827	-0.002	4.0	LatePress	-1	0.18	n/a	1	29	ButtonPress	Loss	True
286.105	0.53	Lose2	0.6	n/a	No	2.827	n/a	n/a	LatePress	-1	n/a	n/a	1	29	Blank	Loss	True
286.621	1.45	Lose2	0.6	n/a	No	2.827	n/a	5.0	LatePress	-1	0.036	285.657	1	29	Feedback	Loss	True
288.071	2.827	Lose2	0.6	n/a	No	2.827	n/a	n/a	LatePress	-1	0.0	n/a	1	29	ISIslide	Loss	True
290.92	0.25	Win2	0.5806	0.0	No	2.78	0.02	n/a	NoResponse	0	n/a	n/a	1	30	Cue	MissedWin	False
291.169	3.9	Win2	0.5806	0.001	No	2.78	-0.001	4.0	NoResponse	0	3.375	293.544	1	30	Fixation	MissedWin	False
294.544	0.3	Win2	0.5806	0.001	No	2.78	-0.001	4.0	NoResponse	0	3.375	n/a	1	30	ButtonPress	MissedWin	False
295.068	0.18	Win2	0.5806	0.002	No	2.78	-0.002	4.0	NoResponse	0	0.36	294.428	1	30	Target	MissedWin	False
295.251	0.52	Win2	0.5806	n/a	No	2.78	n/a	n/a	NoResponse	0	n/a	n/a	1	30	Blank	MissedWin	False
295.428	0.3	Win2	0.5806	0.002	No	2.78	-0.002	4.0	NoResponse	0	0.36	n/a	1	30	ButtonPress	MissedWin	False
295.768	1.45	Win2	0.5806	n/a	No	2.78	n/a	5.0	NoResponse	0	0.01	294.778	1	30	Feedback	MissedWin	False
297.217	2.78	Win2	0.5806	n/a	No	2.78	n/a	n/a	NoResponse	0	0.0	n/a	1	30	ISIslide	MissedWin	False
300.016	0.25	Lose2	0.5625	0.0	No	2.834	0.016	n/a	NoResponse	-1	n/a	n/a	0	31	Cue	Loss	True
300.266	4.05	Lose2	0.5625	0.0	No	2.834	0.0	n/a	NoResponse	-1	n/a	n/a	0	31	Fixation	Loss	True
304.315	0.19	Lose2	0.5625	0.001	No	2.834	-0.001	4.0	NoResponse	-1	0.226	303.541	0	31	Target	Loss	True
304.515	0.51	Lose2	0.5625	n/a	No	2.834	n/a	n/a	NoResponse	-1	n/a	n/a	0	31	Blank	Loss	True
304.541	0.3	Lose2	0.5625	0.001	No	2.834	-0.001	4.0	NoResponse	-1	0.226	n/a	0	31	ButtonPress	Loss	True
305.015	1.45	Lose2	0.5625	n/a	No	2.834	n/a	5.0	NoResponse	-1	0.031	304.046	0	31	Feedback	Loss	True
306.464	2.834	Lose2	0.5625	n/a	No	2.834	n/a	n/a	NoResponse	-1	0.0	n/a	0	31	ISIslide	Loss	True
309.313	0.25	Lose2	0.5455	0.0	No	2.637	0.013	n/a	NoResponse	-1	n/a	n/a	-1	32	Cue	Loss	True
309.563	4.15	Lose2	0.5455	0.0	No	2.637	0.0	n/a	NoResponse	-1	n/a	n/a	-1	32	Fixation	Loss	True
313.712	0.2	Lose2	0.5455	0.001	No	2.637	-0.001	4.0	NoResponse	-1	0.22	312.932	-1	32	Target	Loss	True
313.912	0.5	Lose2	0.5455	n/a	No	2.637	n/a	n/a	NoResponse	-1	n/a	n/a	-1	32	Blank	Loss	True
313.932	0.3	Lose2	0.5455	0.001	No	2.637	-0.001	4.0	NoResponse	-1	0.22	n/a	-1	32	ButtonPress	Loss	True
314.411	1.45	Lose2	0.5455	n/a	No	2.637	n/a	5.0	NoResponse	-1	0.001	313.412	-1	32	Feedback	Loss	True
315.861	2.637	Lose2	0.5455	n/a	No	2.637	n/a	n/a	NoResponse	-1	0.0	n/a	-1	32	ISIslide	Loss	True
318.527	0.25	Win2	0.5294	0.0	No	2.673	0.027	n/a	NoResponse	0	n/a	n/a	-1	33	Cue	MissedWin	True
318.776	4.0	Win2	0.5294	0.001	No	2.673	-0.001	n/a	NoResponse	0	n/a	n/a	-1	33	Fixation	MissedWin	True
322.775	0.21	Win2	0.5294	0.002	No	2.673	-0.002	4.0	NoResponse	0	0.224	321.999	-1	33	Target	MissedWin	True
322.992	0.49	Win2	0.5294	n/a	No	2.673	n/a	n/a	NoResponse	0	n/a	n/a	-1	33	Blank	MissedWin	True
322.999	0.3	Win2	0.5294	0.002	No	2.673	-0.002	4.0	NoResponse	0	0.224	n/a	-1	33	ButtonPress	MissedWin	True
323.475	1.45	Win2	0.5294	n/a	No	2.673	n/a	5.0	NoResponse	0	0.011	322.486	-1	33	Feedback	MissedWin	True
324.924	2.673	Win2	0.5294	n/a	No	2.673	n/a	n/a	NoResponse	0	0.0	n/a	-1	33	ISIslide	MissedWin	True
327.623	0.25	Lose2	0.5428999999999999	0.0	Yes	2.627	0.023	n/a	GoodResponse	0	n/a	n/a	-1	34	Cue	AvoidedLoss	True
327.873	4.05	Lose2	0.5428999999999999	0.0	Yes	2.627	0.0	n/a	GoodResponse	0	n/a	n/a	-1	34	Fixation	AvoidedLoss	True
331.922	0.22	Lose2	0.5428999999999999	0.001	Yes	2.627	-0.001	4.0	GoodResponse	0	0.203	331.125	-1	34	Target	AvoidedLoss	True
332.125	0.3	Lose2	0.5428999999999999	0.001	Yes	2.627	-0.001	4.0	GoodResponse	0	0.203	n/a	-1	34	ButtonPress	AvoidedLoss	True
332.139	0.48	Lose2	0.5428999999999999	n/a	Yes	2.627	n/a	n/a	GoodResponse	0	n/a	n/a	-1	34	Blank	AvoidedLoss	True
332.622	1.45	Lose2	0.5428999999999999	n/a	Yes	2.627	n/a	5.0	GoodResponse	0	0.034	331.656	-1	34	Feedback	AvoidedLoss	True
334.071	2.627	Lose2	0.5428999999999999	n/a	Yes	2.627	n/a	n/a	GoodResponse	0	0.0	n/a	-1	34	ISIslide	AvoidedLoss	True
336.72	0.25	Lose2	0.5556	0.0	Yes	2.68	0.02	n/a	GoodResponse	0	n/a	n/a	-1	35	Cue	AvoidedLoss	True
336.97	4.0	Lose2	0.5556	0.0	Yes	2.68	0.0	n/a	GoodResponse	0	n/a	n/a	-1	35	Fixation	AvoidedLoss	True
340.969	0.23	Lose2	0.5556	0.001	Yes	2.68	-0.001	4.0	GoodResponse	0	0.197	340.166	-1	35	Target	AvoidedLoss	True
341.166	0.3	Lose2	0.5556	0.001	Yes	2.68	-0.001	4.0	GoodResponse	0	0.197	n/a	-1	35	ButtonPress	AvoidedLoss	True
341.202	0.47	Lose2	0.5556	n/a	Yes	2.68	n/a	n/a	GoodResponse	0	n/a	n/a	-1	35	Blank	AvoidedLoss	True
341.669	1.45	Lose2	0.5556	n/a	Yes	2.68	n/a	5.0	GoodResponse	0	0.011	340.68	-1	35	Feedback	AvoidedLoss	True
343.118	2.68	Lose2	0.5556	n/a	Yes	2.68	n/a	n/a	GoodResponse	0	0.0	n/a	-1	35	ISIslide	AvoidedLoss	True
345.817	0.25	Control	0.5405	0.0	No	2.683	0.017	n/a	NoResponse	0	n/a	n/a	-1	36	Cue	Neutral	True
346.067	4.0	Control	0.5405	0.0	No	2.683	0.0	n/a	NoResponse	0	n/a	n/a	-1	36	Fixation	Neutral	True
350.066	0.24	Control	0.5405	0.001	No	2.683	-0.001	4.0	NoResponse	0	0.257	349.323	-1	36	Target	Neutral	True
350.316	0.46	Control	0.5405	n/a	No	2.683	n/a	n/a	NoResponse	0	n/a	n/a	-1	36	Blank	Neutral	True
350.323	0.3	Control	0.5405	0.001	No	2.683	-0.001	4.0	NoResponse	0	0.257	n/a	-1	36	ButtonPress	Neutral	True
350.765	1.45	Control	0.5405	n/a	No	2.683	n/a	5.0	NoResponse	0	0.037	349.802	-1	36	Feedback	Neutral	True
352.215	2.683	Control	0.5405	n/a	No	2.683	n/a	n/a	NoResponse	0	0.0	n/a	-1	36	ISIslide	Neutral	True
354.914	0.25	Win2	0.5526	0.0	Yes	2.886	0.014	n/a	GoodResponse	1	n/a	n/a	0	37	Cue	Win	True
355.164	4.0	Win2	0.5526	0.0	Yes	2.886	0.0	n/a	GoodResponse	1	n/a	n/a	0	37	Fixation	Win	True
359.162	0.25	Win2	0.5526	0.002	Yes	2.886	-0.002	4.0	GoodResponse	1	0.199	358.361	0	37	Target	Win	True
359.361	0.3	Win2	0.5526	0.002	Yes	2.886	-0.002	4.0	GoodResponse	1	0.199	n/a	0	37	ButtonPress	Win	True
359.412	0.45	Win2	0.5526	n/a	Yes	2.886	n/a	n/a	GoodResponse	1	n/a	n/a	0	37	Blank	Win	True
359.862	1.45	Win2	0.5526	n/a	Yes	2.886	n/a	5.0	GoodResponse	1	0.013	358.875	0	37	Feedback	Win	True
361.312	2.886	Win2	0.5526	n/a	Yes	2.886	n/a	n/a	GoodResponse	1	0.0	n/a	0	37	ISIslide	Win	True
364.227	0.25	Lose2	0.5640999999999999	0.0	Yes	2.823	0.027	n/a	GoodResponse	0	n/a	n/a	0	38	Cue	AvoidedLoss	True
364.477	3.95	Lose2	0.5640999999999999	0.0	Yes	2.823	0.0	n/a	GoodResponse	0	n/a	n/a	0	38	Fixation	AvoidedLoss	True
368.426	0.26	Lose2	0.5640999999999999	0.001	Yes	2.823	-0.001	4.0	GoodResponse	0	0.202	367.628	0	38	Target	AvoidedLoss	True
368.628	0.3	Lose2	0.5640999999999999	0.001	Yes	2.823	-0.001	4.0	GoodResponse	0	0.202	n/a	0	38	ButtonPress	AvoidedLoss	True
368.692	0.44	Lose2	0.5640999999999999	n/a	Yes	2.823	n/a	n/a	GoodResponse	0	n/a	n/a	0	38	Blank	AvoidedLoss	True
369.126	1.45	Lose2	0.5640999999999999	n/a	Yes	2.823	n/a	5.0	GoodResponse	0	0.018	368.144	0	38	Feedback	AvoidedLoss	True
370.575	2.823	Lose2	0.5640999999999999	n/a	Yes	2.823	n/a	n/a	GoodResponse	0	0.0	n/a	0	38	ISIslide	AvoidedLoss	True
373.424	0.25	Win2	0.575	0.0	Yes	2.976	0.024	n/a	GoodResponse	1	n/a	n/a	1	39	Cue	Win	True
373.674	4.1	Win2	0.575	0.0	Yes	2.976	0.0	n/a	GoodResponse	1	n/a	n/a	1	39	Fixation	Win	True
377.773	0.27	Win2	0.575	0.001	Yes	2.976	-0.001	4.0	GoodResponse	1	0.202	376.975	1	39	Target	Win	True
377.975	0.3	Win2	0.575	0.001	Yes	2.976	-0.001	4.0	GoodResponse	1	0.202	n/a	1	39	ButtonPress	Win	True
378.056	0.43	Win2	0.575	n/a	Yes	2.976	n/a	n/a	GoodResponse	1	n/a	n/a	1	39	Blank	Win	True
378.472	1.45	Win2	0.575	n/a	Yes	2.976	n/a	5.0	GoodResponse	1	0.038	377.51	1	39	Feedback	Win	True
379.922	2.976	Win2	0.575	n/a	Yes	2.976	n/a	n/a	GoodResponse	1	0.0	n/a	1	39	ISIslide	Win	True
382.921	0.25	Win2	0.5854	0.0	Yes	2.729	0.021	n/a	GoodResponse	1	n/a	n/a	2	40	Cue	Win	True
383.171	3.95	Win2	0.5854	0.0	Yes	2.729	0.0	n/a	GoodResponse	1	n/a	n/a	2	40	Fixation	Win	True
387.119	0.28	Win2	0.5854	0.002	Yes	2.729	-0.002	4.0	GoodResponse	1	0.255	386.374	2	40	Target	Win	True
387.374	0.3	Win2	0.5854	0.002	Yes	2.729	-0.002	4.0	GoodResponse	1	0.255	n/a	2	40	ButtonPress	Win	True
387.403	0.42	Win2	0.5854	n/a	Yes	2.729	n/a	n/a	GoodResponse	1	n/a	n/a	2	40	Blank	Win	True
387.819	1.45	Win2	0.5854	n/a	Yes	2.729	n/a	5.0	GoodResponse	1	0.008	386.827	2	40	Feedback	Win	True
389.269	2.729	Win2	0.5854	n/a	Yes	2.729	n/a	n/a	GoodResponse	1	0.0	n/a	2	40	ISIslide	Win	True
392.018	0.25	Win2	0.5952000000000001	0.0	Yes	2.782	0.018	n/a	GoodResponse	1	n/a	n/a	3	41	Cue	Win	True
392.268	3.9	Win2	0.5952000000000001	0.0	Yes	2.782	0.0	n/a	GoodResponse	1	n/a	n/a	3	41	Fixation	Win	True
396.166	0.29	Win2	0.5952000000000001	0.002	Yes	2.782	-0.002	4.0	GoodResponse	1	0.209	395.375	3	41	Target	Win	True
396.375	0.3	Win2	0.5952000000000001	0.002	Yes	2.782	-0.002	4.0	GoodResponse	1	0.209	n/a	3	41	ButtonPress	Win	True
396.466	0.41	Win2	0.5952000000000001	n/a	Yes	2.782	n/a	n/a	GoodResponse	1	n/a	n/a	3	41	Blank	Win	True
396.866	1.45	Win2	0.5952000000000001	n/a	Yes	2.782	n/a	5.0	GoodResponse	1	0.033	395.899	3	41	Feedback	Win	True
398.315	2.782	Win2	0.5952000000000001	n/a	Yes	2.782	n/a	n/a	GoodResponse	1	0.0	n/a	3	41	ISIslide	Win	True
401.114	0.25	Control	0.6047	0.001	Yes	2.936	0.014	n/a	GoodResponse	0	n/a	n/a	3	42	Cue	Neutral	True
401.364	3.85	Control	0.6047	0.0	Yes	2.936	0.0	n/a	GoodResponse	0	n/a	n/a	3	42	Fixation	Neutral	True
405.213	0.3	Control	0.6047	0.001	Yes	2.936	-0.001	4.0	GoodResponse	0	0.237	404.45	3	42	Target	Neutral	True
405.45	0.3	Control	0.6047	0.001	Yes	2.936	-0.001	4.0	GoodResponse	0	0.237	n/a	3	42	ButtonPress	Neutral	True
405.513	0.4	Control	0.6047	n/a	Yes	2.936	n/a	n/a	GoodResponse	0	n/a	n/a	3	42	Blank	Neutral	True
405.913	1.45	Control	0.6047	n/a	Yes	2.936	n/a	5.0	GoodResponse	0	0.011	404.924	3	42	Feedback	Neutral	True
407.362	2.936	Control	0.6047	n/a	Yes	2.936	n/a	n/a	GoodResponse	0	0.0	n/a	3	42	ISIslide	Neutral	True
410.328	0.25	Win2	0.6136	0.0	Yes	3.172	0.028	n/a	GoodResponse	1	n/a	n/a	4	43	Cue	Win	True
410.578	4.0	Win2	0.6136	0.0	Yes	3.172	0.0	n/a	GoodResponse	1	n/a	n/a	4	43	Fixation	Win	True
414.576	0.31	Win2	0.6136	0.002	Yes	3.172	-0.002	4.0	GoodResponse	1	0.212	413.788	4	43	Target	Win	True
414.788	0.3	Win2	0.6136	0.002	Yes	3.172	-0.002	4.0	GoodResponse	1	0.212	n/a	4	43	ButtonPress	Win	True
414.893	0.39	Win2	0.6136	n/a	Yes	3.172	n/a	n/a	GoodResponse	1	n/a	n/a	4	43	Blank	Win	True
415.276	1.45	Win2	0.6136	n/a	Yes	3.172	n/a	5.0	GoodResponse	1	0.014	414.29	4	43	Feedback	Win	True
416.726	3.172	Win2	0.6136	n/a	Yes	3.172	n/a	n/a	GoodResponse	1	0.0	n/a	4	43	ISIslide	Win	True
419.925	0.25	Win2	0.6222	0.0	Yes	2.975	0.025	n/a	GoodResponse	1	n/a	n/a	5	44	Cue	Win	True
420.174	4.0	Win2	0.6222	0.001	Yes	2.975	-0.001	n/a	GoodResponse	1	n/a	n/a	5	44	Fixation	Win	True
424.173	0.32	Win2	0.6222	0.002	Yes	2.975	-0.002	4.0	GoodResponse	1	0.237	423.41	5	44	Target	Win	True
424.41	0.3	Win2	0.6222	0.002	Yes	2.975	-0.002	4.0	GoodResponse	1	0.237	n/a	5	44	ButtonPress	Win	True
424.506	0.38	Win2	0.6222	n/a	Yes	2.975	n/a	n/a	GoodResponse	1	n/a	n/a	5	44	Blank	Win	True
424.873	1.45	Win2	0.6222	n/a	Yes	2.975	n/a	5.0	GoodResponse	1	0.027	423.9	5	44	Feedback	Win	True
426.322	2.975	Win2	0.6222	n/a	Yes	2.975	n/a	n/a	GoodResponse	1	0.0	n/a	5	44	ISIslide	Win	True
429.321	0.25	Control	0.6304	0.0	Yes	2.879	0.021	n/a	GoodResponse	0	n/a	n/a	5	45	Cue	Neutral	True
429.571	4.1	Control	0.6304	0.0	Yes	2.879	0.0	n/a	GoodResponse	0	n/a	n/a	5	45	Fixation	Neutral	True
433.67	0.33	Control	0.6304	0.001	Yes	2.879	-0.001	4.0	GoodResponse	0	0.27	432.94	5	45	Target	Neutral	True
433.94	0.3	Control	0.6304	0.001	Yes	2.879	-0.001	4.0	GoodResponse	0	0.27	n/a	5	45	ButtonPress	Neutral	True
434.003	0.37	Control	0.6304	n/a	Yes	2.879	n/a	n/a	GoodResponse	0	n/a	n/a	5	45	Blank	Neutral	True
434.37	1.45	Control	0.6304	n/a	Yes	2.879	n/a	5.0	GoodResponse	0	0.042	433.412	5	45	Feedback	Neutral	True
435.819	2.879	Control	0.6304	n/a	Yes	2.879	n/a	n/a	GoodResponse	0	0.0	n/a	5	45	ISIslide	Neutral	True
438.718	0.25	Lose2	0.6383	0.0	Yes	3.382	0.018	n/a	GoodResponse	0	n/a	n/a	5	46	Cue	AvoidedLoss	True
438.968	4.0	Lose2	0.6383	0.0	Yes	3.382	0.0	n/a	GoodResponse	0	n/a	n/a	5	46	Fixation	AvoidedLoss	True
442.967	0.34	Lose2	0.6383	0.001	Yes	3.382	-0.001	4.0	GoodResponse	0	0.214	442.181	5	46	Target	AvoidedLoss	True
443.181	0.3	Lose2	0.6383	0.001	Yes	3.382	-0.001	4.0	GoodResponse	0	0.214	n/a	5	46	ButtonPress	AvoidedLoss	True
443.316	0.36	Lose2	0.6383	n/a	Yes	3.382	n/a	n/a	GoodResponse	0	n/a	n/a	5	46	Blank	AvoidedLoss	True
443.666	1.45	Lose2	0.6383	n/a	Yes	3.382	n/a	5.0	GoodResponse	0	0.013	442.679	5	46	Feedback	AvoidedLoss	True
445.116	3.382	Lose2	0.6383	n/a	Yes	3.382	n/a	n/a	GoodResponse	0	0.0	n/a	5	46	ISIslide	AvoidedLoss	True
448.515	0.25	Lose2	0.6457999999999999	0.0	Yes	2.685	0.015	n/a	GoodResponse	0	n/a	n/a	5	47	Cue	AvoidedLoss	True
448.764	4.0	Lose2	0.6457999999999999	0.001	Yes	2.685	-0.001	n/a	GoodResponse	0	n/a	n/a	5	47	Fixation	AvoidedLoss	True
452.763	0.35	Lose2	0.6457999999999999	0.002	Yes	2.685	-0.002	4.0	GoodResponse	0	0.263	452.026	5	47	Target	AvoidedLoss	True
453.026	0.3	Lose2	0.6457999999999999	0.002	Yes	2.685	-0.002	4.0	GoodResponse	0	0.263	n/a	5	47	ButtonPress	AvoidedLoss	True
453.113	0.35	Lose2	0.6457999999999999	n/a	Yes	2.685	n/a	n/a	GoodResponse	0	n/a	n/a	5	47	Blank	AvoidedLoss	True
453.463	1.45	Lose2	0.6457999999999999	n/a	Yes	2.685	n/a	5.0	GoodResponse	0	0.021	452.484	5	47	Feedback	AvoidedLoss	True
454.912	2.685	Lose2	0.6457999999999999	n/a	Yes	2.685	n/a	n/a	GoodResponse	0	0.0	n/a	5	47	ISIslide	AvoidedLoss	True
457.628	0.25	Lose2	0.6531	0.0	Yes	3.022	0.028	n/a	GoodResponse	0	n/a	n/a	5	48	Cue	AvoidedLoss	True
457.878	3.95	Lose2	0.6531	0.0	Yes	3.022	0.0	n/a	GoodResponse	0	n/a	n/a	5	48	Fixation	AvoidedLoss	True
461.827	0.36	Lose2	0.6531	0.001	Yes	3.022	-0.001	4.0	GoodResponse	0	0.206	461.033	5	48	Target	AvoidedLoss	True
462.033	0.3	Lose2	0.6531	0.001	Yes	3.022	-0.001	4.0	GoodResponse	0	0.206	n/a	5	48	ButtonPress	AvoidedLoss	True
462.193	0.34	Lose2	0.6531	n/a	Yes	3.022	n/a	n/a	GoodResponse	0	n/a	n/a	5	48	Blank	AvoidedLoss	True
462.526	1.45	Lose2	0.6531	n/a	Yes	3.022	n/a	5.0	GoodResponse	0	0.032	461.558	5	48	Feedback	AvoidedLoss	True
463.976	3.022	Lose2	0.6531	n/a	Yes	3.022	n/a	n/a	GoodResponse	0	0.0	n/a	5	48	ISIslide	AvoidedLoss	True
467.025	0.25	Control	0.66	0.0	Yes	2.875	0.025	n/a	GoodResponse	0	n/a	n/a	5	49	Cue	Neutral	True
467.275	4.0	Control	0.66	0.0	Yes	2.875	0.0	n/a	GoodResponse	0	n/a	n/a	5	49	Fixation	Neutral	True
471.273	0.37	Control	0.66	0.002	Yes	2.875	-0.002	4.0	GoodResponse	0	0.248	470.521	5	49	Target	Neutral	True
471.521	0.3	Control	0.66	0.002	Yes	2.875	-0.002	4.0	GoodResponse	0	0.248	n/a	5	49	ButtonPress	Neutral	True
471.656	0.33	Control	0.66	n/a	Yes	2.875	n/a	n/a	GoodResponse	0	n/a	n/a	5	49	Blank	Neutral	True
471.973	1.45	Control	0.66	n/a	Yes	2.875	n/a	5.0	GoodResponse	0	0.048	471.021	5	49	Feedback	Neutral	True
473.423	2.875	Control	0.66	n/a	Yes	2.875	n/a	n/a	GoodResponse	0	0.0	n/a	5	49	ISIslide	Neutral	True
476.322	0.25	Control	0.6667000000000001	0.0	Yes	2.778	0.022	n/a	GoodResponse	0	n/a	n/a	5	50	Cue	Neutral	True
476.571	4.0	Control	0.6667000000000001	0.001	Yes	2.778	-0.001	n/a	GoodResponse	0	n/a	n/a	5	50	Fixation	Neutral	True
480.57	0.37	Control	0.6667000000000001	0.002	Yes	2.778	-0.002	4.0	GoodResponse	0	0.254	479.824	5	50	Target	Neutral	True
480.824	0.3	Control	0.6667000000000001	0.002	Yes	2.778	-0.002	4.0	GoodResponse	0	0.254	n/a	5	50	ButtonPress	Neutral	True
480.953	0.33	Control	0.6667000000000001	n/a	Yes	2.778	n/a	n/a	GoodResponse	0	n/a	n/a	5	50	Blank	Neutral	True
481.27	1.45	Control	0.6667000000000001	n/a	Yes	2.778	n/a	5.0	GoodResponse	0	0.02	480.29	5	50	Feedback	Neutral	True
482.719	2.778	Control	0.6667000000000001	n/a	Yes	2.778	n/a	n/a	GoodResponse	0	0.0	n/a	5	50	ISIslide	Neutral	True
485.518	0.25	Control	0.6731	0.0	Yes	2.732	0.018	n/a	GoodResponse	0	n/a	n/a	5	51	Cue	Neutral	True
485.768	3.95	Control	0.6731	0.0	Yes	2.732	0.0	n/a	GoodResponse	0	n/a	n/a	5	51	Fixation	Neutral	True
489.717	0.36	Control	0.6731	0.001	Yes	2.732	-0.001	4.0	GoodResponse	0	0.246	488.963	5	51	Target	Neutral	True
489.963	0.3	Control	0.6731	0.001	Yes	2.732	-0.001	4.0	GoodResponse	0	0.246	n/a	5	51	ButtonPress	Neutral	True
490.083	0.34	Control	0.6731	n/a	Yes	2.732	n/a	n/a	GoodResponse	0	n/a	n/a	5	51	Blank	Neutral	True
490.417	1.45	Control	0.6731	n/a	Yes	2.732	n/a	5.0	GoodResponse	0	0.042	489.459	5	51	Feedback	Neutral	True
491.866	2.732	Control	0.6731	n/a	Yes	2.732	n/a	n/a	GoodResponse	0	0.0	n/a	5	51	ISIslide	Neutral	True
494.615	0.25	Control	0.6792	0.0	Yes	2.635	0.015	n/a	GoodResponse	0	n/a	n/a	5	52	Cue	Neutral	True
494.865	4.05	Control	0.6792	0.0	Yes	2.635	0.0	n/a	GoodResponse	0	n/a	n/a	5	52	Fixation	Neutral	True
498.914	0.35	Control	0.6792	0.001	Yes	2.635	-0.001	4.0	GoodResponse	0	0.254	498.168	5	52	Target	Neutral	True
499.168	0.3	Control	0.6792	0.001	Yes	2.635	-0.001	4.0	GoodResponse	0	0.254	n/a	5	52	ButtonPress	Neutral	True
499.264	0.35	Control	0.6792	n/a	Yes	2.635	n/a	n/a	GoodResponse	0	n/a	n/a	5	52	Blank	Neutral	True
499.613	1.45	Control	0.6792	n/a	Yes	2.635	n/a	5.0	GoodResponse	0	0.017	498.63	5	52	Feedback	Neutral	True
501.063	2.635	Control	0.6792	n/a	Yes	2.635	n/a	n/a	GoodResponse	0	0.0	n/a	5	52	ISIslide	Neutral	True
503.729	0.25	Win2	0.6851999999999999	0.0	Yes	2.921	0.029	n/a	GoodResponse	1	n/a	n/a	6	53	Cue	Win	True
503.979	4.05	Win2	0.6851999999999999	0.0	Yes	2.921	0.0	n/a	GoodResponse	1	n/a	n/a	6	53	Fixation	Win	True
508.027	0.34	Win2	0.6851999999999999	0.002	Yes	2.921	-0.002	4.0	GoodResponse	1	0.216	507.243	6	53	Target	Win	True
508.243	0.3	Win2	0.6851999999999999	0.002	Yes	2.921	-0.002	4.0	GoodResponse	1	0.216	n/a	6	53	ButtonPress	Win	True
508.377	0.36	Win2	0.6851999999999999	n/a	Yes	2.921	n/a	n/a	GoodResponse	1	n/a	n/a	6	53	Blank	Win	True
508.727	1.45	Win2	0.6851999999999999	n/a	Yes	2.921	n/a	5.0	GoodResponse	1	0.025	507.752	6	53	Feedback	Win	True
510.176	2.921	Win2	0.6851999999999999	n/a	Yes	2.921	n/a	n/a	GoodResponse	1	0.0	n/a	6	53	ISIslide	Win	True
513.125	0.25	Win2	0.6909000000000001	0.0	Yes	2.725	0.025	n/a	GoodResponse	1	n/a	n/a	7	54	Cue	Win	True
513.375	3.95	Win2	0.6909000000000001	0.0	Yes	2.725	0.0	n/a	GoodResponse	1	n/a	n/a	7	54	Fixation	Win	True
517.324	0.33	Win2	0.6909000000000001	0.001	Yes	2.725	-0.001	4.0	GoodResponse	1	0.221	516.545	7	54	Target	Win	True
517.545	0.3	Win2	0.6909000000000001	0.001	Yes	2.725	-0.001	4.0	GoodResponse	1	0.221	n/a	7	54	ButtonPress	Win	True
517.657	0.37	Win2	0.6909000000000001	n/a	Yes	2.725	n/a	n/a	GoodResponse	1	n/a	n/a	7	54	Blank	Win	True
518.024	1.45	Win2	0.6909000000000001	n/a	Yes	2.725	n/a	5.0	GoodResponse	1	0.046	517.07	7	54	Feedback	Win	True
519.473	2.725	Win2	0.6909000000000001	n/a	Yes	2.725	n/a	n/a	GoodResponse	1	0.0	n/a	7	54	ISIslide	Win	True
522.222	0.25	Control	0.6964	0.0	Yes	3.028	0.022	n/a	GoodResponse	0	n/a	n/a	7	55	Cue	Neutral	True
522.472	3.95	Control	0.6964	0.0	Yes	3.028	0.0	n/a	GoodResponse	0	n/a	n/a	7	55	Fixation	Neutral	True
526.421	0.32	Control	0.6964	0.001	Yes	3.028	-0.001	4.0	GoodResponse	0	0.246	525.667	7	55	Target	Neutral	True
526.667	0.3	Control	0.6964	0.001	Yes	3.028	-0.001	4.0	GoodResponse	0	0.246	n/a	7	55	ButtonPress	Neutral	True
526.754	0.38	Control	0.6964	n/a	Yes	3.028	n/a	n/a	GoodResponse	0	n/a	n/a	7	55	Blank	Neutral	True
527.12	1.45	Control	0.6964	n/a	Yes	3.028	n/a	5.0	GoodResponse	0	0.023	526.143	7	55	Feedback	Neutral	True
528.57	3.028	Control	0.6964	n/a	Yes	3.028	n/a	n/a	GoodResponse	0	0.0	n/a	7	55	ISIslide	Neutral	True
531.619	0.25	Control	0.6842	0.0	No	2.831	0.019	n/a	NoResponse	0	n/a	n/a	7	56	Cue	Neutral	True
531.869	3.95	Control	0.6842	0.0	No	2.831	0.0	n/a	NoResponse	0	n/a	n/a	7	56	Fixation	Neutral	True
535.817	0.31	Control	0.6842	0.002	No	2.831	-0.002	4.0	NoResponse	0	0.328	535.145	7	56	Target	Neutral	True
536.134	0.39	Control	0.6842	n/a	No	2.831	n/a	n/a	NoResponse	0	n/a	n/a	7	56	Blank	Neutral	True
536.145	0.3	Control	0.6842	0.002	No	2.831	-0.002	4.0	NoResponse	0	0.328	n/a	7	56	ButtonPress	Neutral	True
536.517	1.45	Control	0.6842	n/a	No	2.831	n/a	5.0	NoResponse	0	0.041	535.558	7	56	Feedback	Neutral	True
537.967	2.831	Control	0.6842	n/a	No	2.831	n/a	n/a	NoResponse	0	0.0	n/a	7	56	ISIslide	Neutral	True
540.816	0.25	Control	0.6897	0.0	Yes	3.484	0.016	n/a	GoodResponse	0	n/a	n/a	7	57	Cue	Neutral	True
541.066	4.0	Control	0.6897	0.0	Yes	3.484	0.0	n/a	GoodResponse	0	n/a	n/a	7	57	Fixation	Neutral	True
545.064	0.3	Control	0.6897	0.002	Yes	3.484	-0.002	4.0	GoodResponse	0	0.198	544.262	7	57	Target	Neutral	True
545.262	0.3	Control	0.6897	0.002	Yes	3.484	-0.002	4.0	GoodResponse	0	0.198	n/a	7	57	ButtonPress	Neutral	True
545.364	0.4	Control	0.6897	n/a	Yes	3.484	n/a	n/a	GoodResponse	0	n/a	n/a	7	57	Blank	Neutral	True
545.764	1.45	Control	0.6897	n/a	Yes	3.484	n/a	5.0	GoodResponse	0	0.012	544.776	7	57	Feedback	Neutral	True
547.213	3.484	Control	0.6897	n/a	Yes	3.484	n/a	n/a	GoodResponse	0	0.0	n/a	7	57	ISIslide	Neutral	True
550.712	0.25	Win2	0.6949	0.0	Yes	2.738	0.012	n/a	GoodResponse	1	n/a	n/a	8	58	Cue	Win	True
550.962	4.05	Win2	0.6949	0.0	Yes	2.738	0.0	n/a	GoodResponse	1	n/a	n/a	8	58	Fixation	Win	True
555.011	0.29	Win2	0.6949	0.001	Yes	2.738	-0.001	4.0	GoodResponse	1	0.239	554.25	8	58	Target	Win	True
555.25	0.3	Win2	0.6949	0.001	Yes	2.738	-0.001	4.0	GoodResponse	1	0.239	n/a	8	58	ButtonPress	Win	True
555.311	0.41	Win2	0.6949	n/a	Yes	2.738	n/a	n/a	GoodResponse	1	n/a	n/a	8	58	Blank	Win	True
555.711	1.45	Win2	0.6949	n/a	Yes	2.738	n/a	5.0	GoodResponse	1	0.017	554.728	8	58	Feedback	Win	True
557.16	2.738	Win2	0.6949	n/a	Yes	2.738	n/a	n/a	GoodResponse	1	0.0	n/a	8	58	ISIslide	Win	True
559.926	0.25	Lose2	0.7	0.0	Yes	2.674	0.026	n/a	GoodResponse	0	n/a	n/a	8	59	Cue	AvoidedLoss	True
560.176	4.0	Lose2	0.7	0.0	Yes	2.674	0.0	n/a	GoodResponse	0	n/a	n/a	8	59	Fixation	AvoidedLoss	True
564.174	0.28	Lose2	0.7	0.002	Yes	2.674	-0.002	4.0	GoodResponse	0	0.233	563.407	8	59	Target	AvoidedLoss	True
564.407	0.3	Lose2	0.7	0.002	Yes	2.674	-0.002	4.0	GoodResponse	0	0.233	n/a	8	59	ButtonPress	AvoidedLoss	True
564.457	0.42	Lose2	0.7	n/a	Yes	2.674	n/a	n/a	GoodResponse	0	n/a	n/a	8	59	Blank	AvoidedLoss	True
564.874	1.45	Lose2	0.7	n/a	Yes	2.674	n/a	5.0	GoodResponse	0	0.024	563.898	8	59	Feedback	AvoidedLoss	True
566.323	2.674	Lose2	0.7	n/a	Yes	2.674	n/a	n/a	GoodResponse	0	0.0	n/a	8	59	ISIslide	AvoidedLoss	True
569.023	0.25	Control	0.7049	0.0	Yes	2.677	0.023	n/a	GoodResponse	0	n/a	n/a	8	60	Cue	Neutral	True
569.272	4.0	Control	0.7049	0.001	Yes	2.677	-0.001	n/a	GoodResponse	0	n/a	n/a	8	60	Fixation	Neutral	True
573.271	0.27	Control	0.7049	0.002	Yes	2.677	-0.002	4.0	GoodResponse	0	0.208	572.479	8	60	Target	Neutral	True
573.479	0.3	Control	0.7049	0.002	Yes	2.677	-0.002	4.0	GoodResponse	0	0.208	n/a	8	60	ButtonPress	Neutral	True
573.554	0.43	Control	0.7049	n/a	Yes	2.677	n/a	n/a	GoodResponse	0	n/a	n/a	8	60	Blank	Neutral	True
573.971	1.45	Control	0.7049	n/a	Yes	2.677	n/a	5.0	GoodResponse	0	0.001	572.972	8	60	Feedback	Neutral	True
575.42	2.677	Control	0.7049	n/a	Yes	2.677	n/a	n/a	GoodResponse	0	0.0	n/a	8	60	ISIslide	Neutral	True
578.119	0.25	Lose2	0.7097	0.0	Yes	2.981	0.019	n/a	GoodResponse	0	n/a	n/a	8	61	Cue	AvoidedLoss	True
578.369	4.0	Lose2	0.7097	0.0	Yes	2.981	0.0	n/a	GoodResponse	0	n/a	n/a	8	61	Fixation	AvoidedLoss	True
582.368	0.26	Lose2	0.7097	0.001	Yes	2.981	-0.001	4.0	GoodResponse	0	0.197	581.565	8	61	Target	AvoidedLoss	True
582.565	0.3	Lose2	0.7097	0.001	Yes	2.981	-0.001	4.0	GoodResponse	0	0.197	n/a	8	61	ButtonPress	AvoidedLoss	True
582.634	0.44	Lose2	0.7097	n/a	Yes	2.981	n/a	n/a	GoodResponse	0	n/a	n/a	8	61	Blank	AvoidedLoss	True
583.068	1.45	Lose2	0.7097	n/a	Yes	2.981	n/a	5.0	GoodResponse	0	0.026	582.094	8	61	Feedback	AvoidedLoss	True
584.517	2.981	Lose2	0.7097	n/a	Yes	2.981	n/a	n/a	GoodResponse	0	0.0	n/a	8	61	ISIslide	AvoidedLoss	True
587.516	0.25	Lose2	0.6984	0.0	No	2.884	0.016	n/a	NoResponse	-1	n/a	n/a	7	62	Cue	Loss	True
587.766	3.9	Lose2	0.6984	0.0	No	2.884	0.0	n/a	NoResponse	-1	n/a	n/a	7	62	Fixation	Loss	True
591.665	0.25	Lose2	0.6984	0.001	No	2.884	-0.001	4.0	NoResponse	-1	0.266	590.931	7	62	Target	Loss	True
591.915	0.45	Lose2	0.6984	n/a	No	2.884	n/a	n/a	NoResponse	-1	n/a	n/a	7	62	Blank	Loss	True
591.931	0.3	Lose2	0.6984	0.001	No	2.884	-0.001	4.0	NoResponse	-1	0.266	n/a	7	62	ButtonPress	Loss	True
592.364	1.45	Lose2	0.6984	n/a	No	2.884	n/a	5.0	NoResponse	-1	0.046	591.41	7	62	Feedback	Loss	True
593.814	2.884	Lose2	0.6984	n/a	No	2.884	n/a	n/a	NoResponse	-1	0.0	n/a	7	62	ISIslide	Loss	True
596.713	0.25	Lose2	0.7031000000000001	0.0	Yes	2.637	0.013	n/a	GoodResponse	0	n/a	n/a	7	63	Cue	AvoidedLoss	True
596.963	4.05	Lose2	0.7031000000000001	0.0	Yes	2.637	0.0	n/a	GoodResponse	0	n/a	n/a	7	63	Fixation	AvoidedLoss	True
601.011	0.24	Lose2	0.7031000000000001	0.002	Yes	2.637	-0.002	4.0	GoodResponse	0	0.223	600.234	7	63	Target	AvoidedLoss	True
601.234	0.3	Lose2	0.7031000000000001	0.002	Yes	2.637	-0.002	4.0	GoodResponse	0	0.223	n/a	7	63	ButtonPress	AvoidedLoss	True
601.261	0.46	Lose2	0.7031000000000001	n/a	Yes	2.637	n/a	n/a	GoodResponse	0	n/a	n/a	7	63	Blank	AvoidedLoss	True
601.711	1.45	Lose2	0.7031000000000001	n/a	Yes	2.637	n/a	5.0	GoodResponse	0	0.016	600.727	7	63	Feedback	AvoidedLoss	True
603.161	2.637	Lose2	0.7031000000000001	n/a	Yes	2.637	n/a	n/a	GoodResponse	0	0.0	n/a	7	63	ISIslide	AvoidedLoss	True
605.826	0.25	Win2	0.7077	0.0	Yes	3.124	0.026	n/a	GoodResponse	1	n/a	n/a	8	64	Cue	Win	True
606.076	4.15	Win2	0.7077	0.0	Yes	3.124	0.0	n/a	GoodResponse	1	n/a	n/a	8	64	Fixation	Win	True
610.225	0.23	Win2	0.7077	0.001	Yes	3.124	-0.001	4.0	GoodResponse	1	0.2	609.425	8	64	Target	Win	True
610.425	0.3	Win2	0.7077	0.001	Yes	3.124	-0.001	4.0	GoodResponse	1	0.2	n/a	8	64	ButtonPress	Win	True
610.458	0.47	Win2	0.7077	n/a	Yes	3.124	n/a	n/a	GoodResponse	1	n/a	n/a	8	64	Blank	Win	True
610.925	1.45	Win2	0.7077	n/a	Yes	3.124	n/a	5.0	GoodResponse	1	0.022	609.947	8	64	Feedback	Win	True
612.374	3.124	Win2	0.7077	n/a	Yes	3.124	n/a	n/a	GoodResponse	1	0.0	n/a	8	64	ISIslide	Win	True
615.523	0.25	Control	0.6970000000000001	0.0	No	2.777	0.023	n/a	NoResponse	0	n/a	n/a	8	65	Cue	Neutral	True
615.773	4.0	Control	0.6970000000000001	0.0	No	2.777	0.0	n/a	NoResponse	0	n/a	n/a	8	65	Fixation	Neutral	True
619.771	0.22	Control	0.6970000000000001	0.002	No	2.777	-0.002	4.0	NoResponse	0	0.25	619.021	8	65	Target	Neutral	True
620.005	0.48	Control	0.6970000000000001	n/a	No	2.777	n/a	n/a	NoResponse	0	n/a	n/a	8	65	Blank	Neutral	True
620.021	0.3	Control	0.6970000000000001	0.002	No	2.777	-0.002	4.0	NoResponse	0	0.25	n/a	8	65	ButtonPress	Neutral	True
620.471	1.45	Control	0.6970000000000001	n/a	No	2.777	n/a	5.0	NoResponse	0	0.037	619.508	8	65	Feedback	Neutral	True
621.921	2.777	Control	0.6970000000000001	n/a	No	2.777	n/a	n/a	NoResponse	0	0.0	n/a	8	65	ISIslide	Neutral	True
624.72	0.25	Win2	0.7015	0.0	Yes	2.78	0.02	n/a	GoodResponse	1	n/a	n/a	9	66	Cue	Win	True
624.97	3.9	Win2	0.7015	0.0	Yes	2.78	0.0	n/a	GoodResponse	1	n/a	n/a	9	66	Fixation	Win	True
628.868	0.21	Win2	0.7015	0.002	Yes	2.78	-0.002	4.0	GoodResponse	1	0.209	628.077	9	66	Target	Win	True
629.077	0.3	Win2	0.7015	0.002	Yes	2.78	-0.002	4.0	GoodResponse	1	0.209	n/a	9	66	ButtonPress	Win	True
629.085	0.49	Win2	0.7015	n/a	Yes	2.78	n/a	n/a	GoodResponse	1	n/a	n/a	9	66	Blank	Win	True
629.568	1.45	Win2	0.7015	n/a	Yes	2.78	n/a	5.0	GoodResponse	1	0.013	628.581	9	66	Feedback	Win	True
631.018	2.78	Win2	0.7015	n/a	Yes	2.78	n/a	n/a	GoodResponse	1	0.0	n/a	9	66	ISIslide	Win	True
633.817	0.25	Control	0.6912	0.0	No	2.733	0.017	n/a	NoResponse	0	n/a	n/a	9	67	Cue	Neutral	True
634.067	3.95	Control	0.6912	0.0	No	2.733	0.0	n/a	NoResponse	0	n/a	n/a	9	67	Fixation	Neutral	True
638.015	0.2	Control	0.6912	0.002	No	2.733	-0.002	4.0	NoResponse	0	0.217	637.232	9	67	Target	Neutral	True
638.215	0.5	Control	0.6912	n/a	No	2.733	n/a	n/a	NoResponse	0	n/a	n/a	9	67	Blank	Neutral	True
638.232	0.3	Control	0.6912	0.002	No	2.733	-0.002	4.0	NoResponse	0	0.217	n/a	9	67	ButtonPress	Neutral	True
638.715	1.45	Control	0.6912	n/a	No	2.733	n/a	5.0	NoResponse	0	0.037	637.752	9	67	Feedback	Neutral	True
640.164	2.733	Control	0.6912	n/a	No	2.733	n/a	n/a	NoResponse	0	0.0	n/a	9	67	ISIslide	Neutral	True
642.93	0.25	Win2	0.6812	0.0	No	3.07	0.03	n/a	NoResponse	0	n/a	n/a	9	68	Cue	MissedWin	True
643.18	4.0	Win2	0.6812	0.0	No	3.07	0.0	n/a	NoResponse	0	n/a	n/a	9	68	Fixation	MissedWin	True
647.179	0.19	Win2	0.6812	0.001	No	3.07	-0.001	4.0	NoResponse	0	0.21	646.389	9	68	Target	MissedWin	True
647.379	0.51	Win2	0.6812	n/a	No	3.07	n/a	n/a	NoResponse	0	n/a	n/a	9	68	Blank	MissedWin	True
647.389	0.3	Win2	0.6812	0.001	No	3.07	-0.001	4.0	NoResponse	0	0.21	n/a	9	68	ButtonPress	MissedWin	True
647.878	1.45	Win2	0.6812	n/a	No	3.07	n/a	5.0	NoResponse	0	0.044	646.922	9	68	Feedback	MissedWin	True
649.328	3.07	Win2	0.6812	n/a	No	3.07	n/a	n/a	NoResponse	0	0.0	n/a	9	68	ISIslide	MissedWin	True
652.427	0.25	Win2	0.6714	0.0	No	3.223	0.027	n/a	NoResponse	0	n/a	n/a	9	69	Cue	MissedWin	True
652.677	3.95	Win2	0.6714	0.0	No	3.223	0.0	n/a	NoResponse	0	n/a	n/a	9	69	Fixation	MissedWin	True
656.625	0.18	Win2	0.6714	0.002	No	3.223	-0.002	4.0	NoResponse	0	0.192	655.817	9	69	Target	MissedWin	True
656.809	0.52	Win2	0.6714	n/a	No	3.223	n/a	n/a	NoResponse	0	n/a	n/a	9	69	Blank	MissedWin	True
656.817	0.3	Win2	0.6714	0.002	No	3.223	-0.002	4.0	NoResponse	0	0.192	n/a	9	69	ButtonPress	MissedWin	True
657.325	1.45	Win2	0.6714	n/a	No	3.223	n/a	5.0	NoResponse	0	0.012	656.337	9	69	Feedback	MissedWin	True
658.775	3.223	Win2	0.6714	n/a	No	3.223	n/a	n/a	NoResponse	0	0.0	n/a	9	69	ISIslide	MissedWin	True
662.023	0.25	Lose2	0.662	0.001	No	3.027	0.023	n/a	NoResponse	-1	n/a	n/a	8	70	Cue	Loss	True
662.273	4.05	Lose2	0.662	0.0	No	3.027	0.0	n/a	NoResponse	-1	n/a	n/a	8	70	Fixation	Loss	True
666.322	0.17	Lose2	0.662	0.001	No	3.027	-0.001	4.0	NoResponse	-1	0.184	665.506	8	70	Target	Loss	True
666.489	0.53	Lose2	0.662	n/a	No	3.027	n/a	n/a	NoResponse	-1	n/a	n/a	8	70	Blank	Loss	True
666.506	0.3	Lose2	0.662	0.001	No	3.027	-0.001	4.0	NoResponse	-1	0.184	n/a	8	70	ButtonPress	Loss	True
667.022	1.45	Lose2	0.662	n/a	No	3.027	n/a	5.0	NoResponse	-1	0.022	666.044	8	70	Feedback	Loss	True
668.471	3.027	Lose2	0.662	n/a	No	3.027	n/a	n/a	NoResponse	-1	0.0	n/a	8	70	ISIslide	Loss	True
671.52	0.25	Win2	0.6528	0.0	No	2.73	0.02	n/a	NoResponse	0	n/a	n/a	8	71	Cue	MissedWin	True
671.77	4.05	Win2	0.6528	0.0	No	2.73	0.0	n/a	NoResponse	0	n/a	n/a	8	71	Fixation	MissedWin	True
675.819	0.17	Win2	0.6528	0.001	No	2.73	-0.001	4.0	NoResponse	0	0.224	675.043	8	71	Target	MissedWin	True
676.002	0.53	Win2	0.6528	n/a	No	2.73	n/a	n/a	NoResponse	0	n/a	n/a	8	71	Blank	MissedWin	True
676.043	0.3	Win2	0.6528	0.001	No	2.73	-0.001	4.0	NoResponse	0	0.224	n/a	8	71	ButtonPress	MissedWin	True
676.518	1.45	Win2	0.6528	n/a	No	2.73	n/a	5.0	NoResponse	0	0.038	675.556	8	71	Feedback	MissedWin	True
677.968	2.73	Win2	0.6528	n/a	No	2.73	n/a	n/a	NoResponse	0	0.0	n/a	8	71	ISIslide	MissedWin	True
680.717	0.25	Win2	0.6437999999999999	0.0	No	2.783	0.017	n/a	NoResponse	0	n/a	n/a	8	72	Cue	MissedWin	True
680.967	4.1	Win2	0.6437999999999999	0.0	No	2.783	0.0	n/a	NoResponse	0	n/a	n/a	8	72	Fixation	MissedWin	True
685.065	0.18	Win2	0.6437999999999999	0.002	No	2.783	-0.002	4.0	NoResponse	0	0.185	684.25	8	72	Target	MissedWin	True
685.249	0.52	Win2	0.6437999999999999	n/a	No	2.783	n/a	n/a	NoResponse	0	n/a	n/a	8	72	Blank	MissedWin	True
685.25	0.3	Win2	0.6437999999999999	0.002	No	2.783	-0.002	4.0	NoResponse	0	0.185	n/a	8	72	ButtonPress	MissedWin	True
685.765	1.45	Win2	0.6437999999999999	n/a	No	2.783	n/a	5.0	NoResponse	0	0.011	684.776	8	72	Feedback	MissedWin	True
687.215	2.783	Win2	0.6437999999999999	n/a	No	2.783	n/a	n/a	NoResponse	0	0.0	n/a	8	72	ISIslide	MissedWin	True
690.014	0.25	Win2	0.6486	0.0	Yes	2.686	0.014	n/a	GoodResponse	1	n/a	n/a	9	73	Cue	Win	True
690.264	4.0	Win2	0.6486	0.0	Yes	2.686	0.0	n/a	GoodResponse	1	n/a	n/a	9	73	Fixation	Win	True
694.262	0.19	Win2	0.6486	0.002	Yes	2.686	-0.002	4.0	GoodResponse	1	0.141	693.403	9	73	Target	Win	True
694.403	0.3	Win2	0.6486	0.002	Yes	2.686	-0.002	4.0	GoodResponse	1	0.141	n/a	9	73	ButtonPress	Win	True
694.462	0.51	Win2	0.6486	n/a	Yes	2.686	n/a	n/a	GoodResponse	1	n/a	n/a	9	73	Blank	Win	True
694.962	1.45	Win2	0.6486	n/a	Yes	2.686	n/a	5.0	GoodResponse	1	0.033	693.995	9	73	Feedback	Win	True
696.411	2.686	Win2	0.6486	n/a	Yes	2.686	n/a	n/a	GoodResponse	1	0.0	n/a	9	73	ISIslide	Win	True
699.127	0.25	Lose2	0.6533	0.0	Yes	2.623	0.027	n/a	GoodResponse	0	n/a	n/a	9	74	Cue	AvoidedLoss	True
699.377	4.05	Lose2	0.6533	0.0	Yes	2.623	0.0	n/a	GoodResponse	0	n/a	n/a	9	74	Fixation	AvoidedLoss	True
703.426	0.2	Lose2	0.6533	0.001	Yes	2.623	-0.001	4.0	GoodResponse	0	0.189	702.615	9	74	Target	AvoidedLoss	True
703.615	0.3	Lose2	0.6533	0.001	Yes	2.623	-0.001	4.0	GoodResponse	0	0.189	n/a	9	74	ButtonPress	AvoidedLoss	True
703.626	0.5	Lose2	0.6533	n/a	Yes	2.623	n/a	n/a	GoodResponse	0	n/a	n/a	9	74	Blank	AvoidedLoss	True
704.125	1.45	Lose2	0.6533	n/a	Yes	2.623	n/a	5.0	GoodResponse	0	0.041	703.166	9	74	Feedback	AvoidedLoss	True
705.575	2.623	Lose2	0.6533	n/a	Yes	2.623	n/a	n/a	GoodResponse	0	0.0	n/a	9	74	ISIslide	AvoidedLoss	True
708.224	0.25	Lose2	0.6579	0.0	Yes	2.926	0.024	n/a	GoodResponse	0	n/a	n/a	9	75	Cue	AvoidedLoss	True
708.474	3.95	Lose2	0.6579	0.0	Yes	2.926	0.0	n/a	GoodResponse	0	n/a	n/a	9	75	Fixation	AvoidedLoss	True
712.423	0.21	Lose2	0.6579	0.001	Yes	2.926	-0.001	4.0	GoodResponse	0	0.19	711.613	9	75	Target	AvoidedLoss	True
712.613	0.3	Lose2	0.6579	0.001	Yes	2.926	-0.001	4.0	GoodResponse	0	0.19	n/a	9	75	ButtonPress	AvoidedLoss	True
712.639	0.49	Lose2	0.6579	n/a	Yes	2.926	n/a	n/a	GoodResponse	0	n/a	n/a	9	75	Blank	AvoidedLoss	True
713.122	1.45	Lose2	0.6579	n/a	Yes	2.926	n/a	5.0	GoodResponse	0	0.019	712.141	9	75	Feedback	AvoidedLoss	True
714.572	2.926	Lose2	0.6579	n/a	Yes	2.926	n/a	n/a	GoodResponse	0	0.0	n/a	9	75	ISIslide	AvoidedLoss	True
717.521	0.25	Control	0.6623	0.0	Yes	3.229	0.021	n/a	GoodResponse	0	n/a	n/a	9	76	Cue	Neutral	True
717.771	4.05	Control	0.6623	0.0	Yes	3.229	0.0	n/a	GoodResponse	0	n/a	n/a	9	76	Fixation	Neutral	True
721.819	0.21	Control	0.6623	0.002	Yes	3.229	-0.002	4.0	GoodResponse	0	0.189	721.008	9	76	Target	Neutral	True
722.008	0.3	Control	0.6623	0.002	Yes	3.229	-0.002	4.0	GoodResponse	0	0.189	n/a	9	76	ButtonPress	Neutral	True
722.036	0.49	Control	0.6623	n/a	Yes	3.229	n/a	n/a	GoodResponse	0	n/a	n/a	9	76	Blank	Neutral	True
722.519	1.45	Control	0.6623	n/a	Yes	3.229	n/a	5.0	GoodResponse	0	0.037	721.556	9	76	Feedback	Neutral	True
723.968	3.229	Control	0.6623	n/a	Yes	3.229	n/a	n/a	GoodResponse	0	0.0	n/a	9	76	ISIslide	Neutral	True
727.217	0.25	Lose2	0.6667000000000001	0.0	Yes	2.583	0.017	n/a	GoodResponse	0	n/a	n/a	9	77	Cue	AvoidedLoss	True
727.467	3.95	Lose2	0.6667000000000001	0.0	Yes	2.583	0.0	n/a	GoodResponse	0	n/a	n/a	9	77	Fixation	AvoidedLoss	True
731.416	0.21	Lose2	0.6667000000000001	0.001	Yes	2.583	-0.001	4.0	GoodResponse	0	0.179	730.595	9	77	Target	AvoidedLoss	True
731.595	0.3	Lose2	0.6667000000000001	0.001	Yes	2.583	-0.001	4.0	GoodResponse	0	0.179	n/a	9	77	ButtonPress	AvoidedLoss	True
731.632	0.49	Lose2	0.6667000000000001	n/a	Yes	2.583	n/a	n/a	GoodResponse	0	n/a	n/a	9	77	Blank	AvoidedLoss	True
732.116	1.45	Lose2	0.6667000000000001	n/a	Yes	2.583	n/a	5.0	GoodResponse	0	0.001	731.117	9	77	Feedback	AvoidedLoss	True
733.565	2.583	Lose2	0.6667000000000001	n/a	Yes	2.583	n/a	n/a	GoodResponse	0	0.0	n/a	9	77	ISIslide	AvoidedLoss	True
