onset	duration	cue_type	current_mean_accuracy	duration_error	is_hit	isi_adjusted	onset_delay	response	response_type	reward	rt	rt_time	total_reward	trial_number	trial_phase	trial_type	one_press
11.111	0.25	Control	1.0	0.0	Yes	2.939	0.011	n/a	GoodResponse	0	n/a	n/a	0	0	Cue	Neutral	True
11.361	3.85	Control	1.0	0.0	Yes	2.939	0.0	n/a	GoodResponse	0	n/a	n/a	0	0	Fixation	Neutral	True
15.223	0.4	Control	1.0	0.0	Yes	2.939	0.012	2.0	GoodResponse	0	0.241	14.464	0	0	Target	Neutral	True
15.464	0.3	Control	1.0	0.0	Yes	2.939	0.012	2.0	GoodResponse	0	0.241	n/a	0	0	ButtonPress	Neutral	True
15.607	0.3	Control	1.0	n/a	Yes	2.939	n/a	n/a	GoodResponse	0	n/a	n/a	0	0	Blank	Neutral	True
15.908	1.45	Control	1.0	n/a	Yes	2.939	n/a	5.0	GoodResponse	0	0.018	14.926	0	0	Feedback	Neutral	True
17.363	2.939	Control	1.0	n/a	Yes	2.939	n/a	n/a	GoodResponse	0	0.0	n/a	0	0	ISIslide	Neutral	True
20.322	0.25	Lose2	1.0	0.0	Yes	2.778	0.022	n/a	GoodResponse	0	n/a	n/a	0	1	Cue	AvoidedLoss	True
20.572	4.0	Lose2	1.0	0.0	Yes	2.778	0.0	n/a	GoodResponse	0	n/a	n/a	0	1	Fixation	AvoidedLoss	True
24.568	0.39	Lose2	1.0	0.004	Yes	2.778	-0.004	2.0	GoodResponse	0	0.197	23.765	0	1	Target	AvoidedLoss	True
24.765	0.3	Lose2	1.0	0.004	Yes	2.778	-0.004	2.0	GoodResponse	0	0.197	n/a	0	1	ButtonPress	AvoidedLoss	True
24.969	0.31	Lose2	1.0	n/a	Yes	2.778	n/a	n/a	GoodResponse	0	n/a	n/a	0	1	Blank	AvoidedLoss	True
25.27	1.45	Lose2	1.0	n/a	Yes	2.778	n/a	5.0	GoodResponse	0	0.021	24.291	0	1	Feedback	AvoidedLoss	True
26.724	2.778	Lose2	1.0	n/a	Yes	2.778	n/a	n/a	GoodResponse	0	0.0	n/a	0	1	ISIslide	AvoidedLoss	True
29.516	0.25	Control	1.0	0.0	Yes	2.584	0.016	n/a	GoodResponse	0	n/a	n/a	0	2	Cue	Neutral	True
29.766	4.1	Control	1.0	0.001	Yes	2.584	0.0	n/a	GoodResponse	0	n/a	n/a	0	2	Fixation	Neutral	True
33.862	0.38	Control	1.0	0.004	Yes	2.584	-0.004	2.0	GoodResponse	0	0.222	33.084	0	2	Target	Neutral	True
34.084	0.3	Control	1.0	0.004	Yes	2.584	-0.004	2.0	GoodResponse	0	0.222	n/a	0	2	ButtonPress	Neutral	True
34.247	0.32	Control	1.0	n/a	Yes	2.584	n/a	n/a	GoodResponse	0	n/a	n/a	0	2	Blank	Neutral	True
34.564	1.45	Control	1.0	n/a	Yes	2.584	n/a	5.0	GoodResponse	0	0.045	33.609	0	2	Feedback	Neutral	True
36.019	2.584	Control	1.0	n/a	Yes	2.584	n/a	n/a	GoodResponse	0	0.0	n/a	0	2	ISIslide	Neutral	True
38.626	0.25	Win2	1.0	0.0	Yes	2.824	0.026	n/a	GoodResponse	1	n/a	n/a	1	3	Cue	Win	True
38.877	3.95	Win2	1.0	0.0	Yes	2.824	0.001	n/a	GoodResponse	1	n/a	n/a	1	3	Fixation	Win	True
42.822	0.37	Win2	1.0	0.004	Yes	2.824	-0.004	2.0	GoodResponse	1	0.229	42.051	1	3	Target	Win	True
43.051	0.3	Win2	1.0	0.004	Yes	2.824	-0.004	2.0	GoodResponse	1	0.229	n/a	1	3	ButtonPress	Win	True
43.207	0.33	Win2	1.0	n/a	Yes	2.824	n/a	n/a	GoodResponse	1	n/a	n/a	1	3	Blank	Win	True
43.524	1.45	Win2	1.0	n/a	Yes	2.824	n/a	5.0	GoodResponse	1	0.012	42.536	1	3	Feedback	Win	True
44.979	2.824	Win2	1.0	n/a	Yes	2.824	n/a	n/a	GoodResponse	1	0.0	n/a	1	3	ISIslide	Win	True
47.821	0.25	Win2	1.0	0.0	Yes	3.279	0.021	n/a	GoodResponse	1	n/a	n/a	2	4	Cue	Win	True
48.071	4.0	Win2	1.0	0.0	Yes	3.279	0.0	n/a	GoodResponse	1	n/a	n/a	2	4	Fixation	Win	True
52.067	0.36	Win2	1.0	0.004	Yes	3.279	-0.004	2.0	GoodResponse	1	0.212	51.279	2	4	Target	Win	True
52.279	0.3	Win2	1.0	0.004	Yes	3.279	-0.004	2.0	GoodResponse	1	0.212	n/a	2	4	ButtonPress	Win	True
52.434	0.34	Win2	1.0	n/a	Yes	3.279	n/a	n/a	GoodResponse	1	n/a	n/a	2	4	Blank	Win	True
52.769	1.45	Win2	1.0	n/a	Yes	3.279	n/a	5.0	GoodResponse	1	0.035	51.804	2	4	Feedback	Win	True
54.223	3.279	Win2	1.0	n/a	Yes	3.279	n/a	n/a	GoodResponse	1	0.0	n/a	2	4	ISIslide	Win	True
57.516	0.25	Win2	1.0	0.0	Yes	2.784	0.016	n/a	GoodResponse	1	n/a	n/a	3	5	Cue	Win	True
57.767	4.0	Win2	1.0	0.0	Yes	2.784	0.001	n/a	GoodResponse	1	n/a	n/a	3	5	Fixation	Win	True
61.762	0.35	Win2	1.0	0.004	Yes	2.784	-0.004	2.0	GoodResponse	1	0.23	60.992	3	5	Target	Win	True
61.992	0.3	Win2	1.0	0.004	Yes	2.784	-0.004	2.0	GoodResponse	1	0.23	n/a	3	5	ButtonPress	Win	True
62.113	0.35	Win2	1.0	n/a	Yes	2.784	n/a	n/a	GoodResponse	1	n/a	n/a	3	5	Blank	Win	True
62.464	1.45	Win2	1.0	n/a	Yes	2.784	n/a	5.0	GoodResponse	1	0.047	61.511	3	5	Feedback	Win	True
63.919	2.784	Win2	1.0	n/a	Yes	2.784	n/a	n/a	GoodResponse	1	0.0	n/a	3	5	ISIslide	Win	True
66.727	0.25	Lose2	1.0	0.0	Yes	2.723	0.027	n/a	GoodResponse	0	n/a	n/a	3	6	Cue	AvoidedLoss	True
66.978	3.95	Lose2	1.0	0.0	Yes	2.723	0.001	n/a	GoodResponse	0	n/a	n/a	3	6	Fixation	AvoidedLoss	True
70.923	0.34	Lose2	1.0	0.004	Yes	2.723	-0.004	2.0	GoodResponse	0	0.208	70.131	3	6	Target	AvoidedLoss	True
71.131	0.3	Lose2	1.0	0.004	Yes	2.723	-0.004	2.0	GoodResponse	0	0.208	n/a	3	6	ButtonPress	AvoidedLoss	True
71.274	0.36	Lose2	1.0	n/a	Yes	2.723	n/a	n/a	GoodResponse	0	n/a	n/a	3	6	Blank	AvoidedLoss	True
71.625	1.45	Lose2	1.0	n/a	Yes	2.723	n/a	5.0	GoodResponse	0	0.008	70.633	3	6	Feedback	AvoidedLoss	True
73.079	2.723	Lose2	1.0	n/a	Yes	2.723	n/a	n/a	GoodResponse	0	0.0	n/a	3	6	ISIslide	AvoidedLoss	True
75.821	0.25	Lose2	1.0	0.0	Yes	4.029	0.021	n/a	GoodResponse	0	n/a	n/a	3	7	Cue	AvoidedLoss	True
76.072	4.05	Lose2	1.0	0.0	Yes	4.029	0.001	n/a	GoodResponse	0	n/a	n/a	3	7	Fixation	AvoidedLoss	True
80.117	0.33	Lose2	1.0	0.004	Yes	4.029	-0.004	2.0	GoodResponse	0	0.265	79.382	3	7	Target	AvoidedLoss	True
80.382	0.3	Lose2	1.0	0.004	Yes	4.029	-0.004	2.0	GoodResponse	0	0.265	n/a	3	7	ButtonPress	AvoidedLoss	True
80.452	0.37	Lose2	1.0	n/a	Yes	4.029	n/a	n/a	GoodResponse	0	n/a	n/a	3	7	Blank	AvoidedLoss	True
80.819	1.45	Lose2	1.0	n/a	Yes	4.029	n/a	5.0	GoodResponse	0	0.033	79.852	3	7	Feedback	AvoidedLoss	True
82.274	4.029	Lose2	1.0	n/a	Yes	4.029	n/a	n/a	GoodResponse	0	0.0	n/a	3	7	ISIslide	AvoidedLoss	True
86.319	0.25	Lose2	1.0	0.0	Yes	3.031	0.019	n/a	GoodResponse	0	n/a	n/a	3	8	Cue	AvoidedLoss	True
86.57	3.95	Lose2	1.0	0.0	Yes	3.031	0.001	n/a	GoodResponse	0	n/a	n/a	3	8	Fixation	AvoidedLoss	True
90.515	0.32	Lose2	1.0	0.004	Yes	3.031	-0.004	2.0	GoodResponse	0	0.254	89.769	3	8	Target	AvoidedLoss	True
90.769	0.3	Lose2	1.0	0.004	Yes	3.031	-0.004	2.0	GoodResponse	0	0.254	n/a	3	8	ButtonPress	AvoidedLoss	True
90.849	0.38	Lose2	1.0	n/a	Yes	3.031	n/a	n/a	GoodResponse	0	n/a	n/a	3	8	Blank	AvoidedLoss	True
91.217	1.45	Lose2	1.0	n/a	Yes	3.031	n/a	5.0	GoodResponse	0	0.025	90.242	3	8	Feedback	AvoidedLoss	True
92.671	3.031	Lose2	1.0	n/a	Yes	3.031	n/a	n/a	GoodResponse	0	0.0	n/a	3	8	ISIslide	AvoidedLoss	True
95.731	0.25	Lose2	1.0	0.0	Yes	3.119	0.031	n/a	GoodResponse	0	n/a	n/a	3	9	Cue	AvoidedLoss	True
95.981	3.95	Lose2	1.0	0.0	Yes	3.119	0.0	n/a	GoodResponse	0	n/a	n/a	3	9	Fixation	AvoidedLoss	True
99.926	0.31	Lose2	1.0	0.005	Yes	3.119	-0.005	2.0	GoodResponse	0	0.303	99.229	3	9	Target	AvoidedLoss	True
100.229	0.3	Lose2	1.0	0.005	Yes	3.119	-0.005	2.0	GoodResponse	0	0.303	n/a	3	9	ButtonPress	AvoidedLoss	True
100.244	0.39	Lose2	1.0	n/a	Yes	3.119	n/a	n/a	GoodResponse	0	n/a	n/a	3	9	Blank	AvoidedLoss	True
100.629	1.45	Lose2	1.0	n/a	Yes	3.119	n/a	5.0	GoodResponse	0	0.028	99.657	3	9	Feedback	AvoidedLoss	True
102.083	3.119	Lose2	1.0	n/a	Yes	3.119	n/a	n/a	GoodResponse	0	0.0	n/a	3	9	ISIslide	AvoidedLoss	True
105.226	0.25	Control	1.0	0.0	Yes	3.274	0.026	n/a	GoodResponse	0	n/a	n/a	3	10	Cue	Neutral	True
105.476	4.0	Control	1.0	0.001	Yes	3.274	0.0	n/a	GoodResponse	0	n/a	n/a	3	10	Fixation	Neutral	True
109.472	0.3	Control	1.0	0.004	Yes	3.274	-0.004	2.0	GoodResponse	0	0.218	108.69	3	10	Target	Neutral	True
109.69	0.3	Control	1.0	0.004	Yes	3.274	-0.004	2.0	GoodResponse	0	0.218	n/a	3	10	ButtonPress	Neutral	True
109.773	0.4	Control	1.0	n/a	Yes	3.274	n/a	n/a	GoodResponse	0	n/a	n/a	3	10	Blank	Neutral	True
110.174	1.45	Control	1.0	n/a	Yes	3.274	n/a	5.0	GoodResponse	0	0.044	109.218	3	10	Feedback	Neutral	True
111.628	3.274	Control	1.0	n/a	Yes	3.274	n/a	n/a	GoodResponse	0	0.0	n/a	3	10	ISIslide	Neutral	True
114.921	0.25	Lose2	0.9167000000000001	0.0	No	2.729	0.021	n/a	NoResponse	-1	n/a	n/a	2	11	Cue	Loss	True
115.172	4.05	Lose2	0.9167000000000001	0.0	No	2.729	0.001	n/a	NoResponse	-1	n/a	n/a	2	11	Fixation	Loss	True
119.218	0.29	Lose2	0.9167000000000001	0.003	No	2.729	-0.003	2.0	NoResponse	-1	0.309	118.527	2	11	Target	Loss	True
119.518	0.41	Lose2	0.9167000000000001	n/a	No	2.729	n/a	n/a	NoResponse	-1	n/a	n/a	2	11	Blank	Loss	True
119.527	0.3	Lose2	0.9167000000000001	0.003	No	2.729	-0.003	2.0	NoResponse	-1	0.309	n/a	2	11	ButtonPress	Loss	True
119.92	1.45	Lose2	0.9167000000000001	n/a	No	2.729	n/a	5.0	NoResponse	-1	0.006	118.926	2	11	Feedback	Loss	True
121.374	2.729	Lose2	0.9167000000000001	n/a	No	2.729	n/a	n/a	NoResponse	-1	0.0	n/a	2	11	ISIslide	Loss	True
124.116	0.25	Control	0.9231	0.0	Yes	2.984	0.016	n/a	GoodResponse	0	n/a	n/a	2	12	Cue	Neutral	True
124.366	3.9	Control	0.9231	0.0	Yes	2.984	0.0	n/a	GoodResponse	0	n/a	n/a	2	12	Fixation	Neutral	True
128.278	0.28	Control	0.9231	0.0	Yes	2.984	0.012	2.0	GoodResponse	0	0.22	127.498	2	12	Target	Neutral	True
128.498	0.3	Control	0.9231	0.0	Yes	2.984	0.012	2.0	GoodResponse	0	0.22	n/a	2	12	ButtonPress	Neutral	True
128.545	0.42	Control	0.9231	n/a	Yes	2.984	n/a	n/a	GoodResponse	0	n/a	n/a	2	12	Blank	Neutral	True
128.963	1.45	Control	0.9231	n/a	Yes	2.984	n/a	5.0	GoodResponse	0	0.035	127.998	2	12	Feedback	Neutral	True
130.418	2.984	Control	0.9231	n/a	Yes	2.984	n/a	n/a	GoodResponse	0	0.0	n/a	2	12	ISIslide	Neutral	True
133.427	0.25	Control	0.9286	0.0	Yes	2.773	0.027	n/a	GoodResponse	0	n/a	n/a	2	13	Cue	Neutral	True
133.678	4.0	Control	0.9286	0.0	Yes	2.773	0.001	n/a	GoodResponse	0	n/a	n/a	2	13	Fixation	Neutral	True
137.673	0.27	Control	0.9286	0.004	Yes	2.773	-0.004	2.0	GoodResponse	0	0.26	136.933	2	13	Target	Neutral	True
137.933	0.3	Control	0.9286	0.004	Yes	2.773	-0.004	2.0	GoodResponse	0	0.26	n/a	2	13	ButtonPress	Neutral	True
137.957	0.43	Control	0.9286	n/a	Yes	2.773	n/a	n/a	GoodResponse	0	n/a	n/a	2	13	Blank	Neutral	True
138.375	1.45	Control	0.9286	n/a	Yes	2.773	n/a	5.0	GoodResponse	0	0.038	137.413	2	13	Feedback	Neutral	True
139.829	2.773	Control	0.9286	n/a	Yes	2.773	n/a	n/a	GoodResponse	0	0.0	n/a	2	13	ISIslide	Neutral	True
142.621	0.25	Win2	0.9333	0.0	Yes	2.679	0.021	n/a	GoodResponse	1	n/a	n/a	3	14	Cue	Win	True
142.872	4.1	Win2	0.9333	0.0	Yes	2.679	0.001	n/a	GoodResponse	1	n/a	n/a	3	14	Fixation	Win	True
146.967	0.26	Win2	0.9333	0.004	Yes	2.679	-0.004	2.0	GoodResponse	1	0.257	146.224	3	14	Target	Win	True
147.224	0.3	Win2	0.9333	0.004	Yes	2.679	-0.004	2.0	GoodResponse	1	0.257	n/a	3	14	ButtonPress	Win	True
147.235	0.44	Win2	0.9333	n/a	Yes	2.679	n/a	n/a	GoodResponse	1	n/a	n/a	3	14	Blank	Win	True
147.669	1.45	Win2	0.9333	n/a	Yes	2.679	n/a	5.0	GoodResponse	1	0.012	146.681	3	14	Feedback	Win	True
149.124	2.679	Win2	0.9333	n/a	Yes	2.679	n/a	n/a	GoodResponse	1	0.0	n/a	3	14	ISIslide	Win	True
151.815	0.25	Control	0.875	0.0	No	2.985	0.015	n/a	LatePress	0	n/a	n/a	3	15	Cue	Neutral	True
152.066	4.0	Control	0.875	0.0	No	2.985	0.001	n/a	LatePress	0	n/a	n/a	3	15	Fixation	Neutral	True
156.061	0.25	Control	0.875	0.004	No	2.985	-0.004	2.0	LatePress	0	0.251	155.312	3	15	Target	Neutral	True
156.312	0.45	Control	0.875	n/a	No	2.985	n/a	n/a	LatePress	0	n/a	n/a	3	15	Blank	Neutral	True
156.312	0.3	Control	0.875	0.004	No	2.985	-0.004	2.0	LatePress	0	0.251	n/a	3	15	ButtonPress	Neutral	True
156.763	1.45	Control	0.875	n/a	No	2.985	n/a	5.0	LatePress	0	0.04	155.803	3	15	Feedback	Neutral	True
158.218	2.985	Control	0.875	n/a	No	2.985	n/a	n/a	LatePress	0	0.0	n/a	3	15	ISIslide	Neutral	True
161.227	0.25	Win2	0.8824	0.0	Yes	2.873	0.027	n/a	GoodResponse	1	n/a	n/a	4	16	Cue	Win	True
161.477	4.0	Win2	0.8824	0.0	Yes	2.873	0.0	n/a	GoodResponse	1	n/a	n/a	4	16	Fixation	Win	True
165.473	0.24	Win2	0.8824	0.004	Yes	2.873	-0.004	2.0	GoodResponse	1	0.191	164.664	4	16	Target	Win	True
165.664	0.3	Win2	0.8824	0.004	Yes	2.873	-0.004	2.0	GoodResponse	1	0.191	n/a	4	16	ButtonPress	Win	True
165.723	0.46	Win2	0.8824	n/a	Yes	2.873	n/a	n/a	GoodResponse	1	n/a	n/a	4	16	Blank	Win	True
166.175	1.45	Win2	0.8824	n/a	Yes	2.873	n/a	5.0	GoodResponse	1	0.043	165.218	4	16	Feedback	Win	True
167.629	2.873	Win2	0.8824	n/a	Yes	2.873	n/a	n/a	GoodResponse	1	0.0	n/a	4	16	ISIslide	Win	True
170.521	0.25	Lose2	0.8332999999999999	0.0	No	2.729	0.021	n/a	NoResponse	-1	n/a	n/a	3	17	Cue	Loss	False
170.772	3.95	Lose2	0.8332999999999999	0.0	No	2.729	0.001	2.0	NoResponse	-1	1.759	171.531	3	17	Fixation	Loss	False
172.531	0.3	Lose2	0.8332999999999999	0.0	No	2.729	0.001	2.0	NoResponse	-1	1.759	n/a	3	17	ButtonPress	Loss	False
174.717	0.23	Lose2	0.8332999999999999	0.004	No	2.729	-0.004	2.0	NoResponse	-1	0.338	174.055	3	17	Target	Loss	False
174.951	0.47	Lose2	0.8332999999999999	n/a	No	2.729	n/a	n/a	NoResponse	-1	n/a	n/a	3	17	Blank	Loss	False
175.055	0.3	Lose2	0.8332999999999999	0.004	No	2.729	-0.004	2.0	NoResponse	-1	0.338	n/a	3	17	ButtonPress	Loss	False
175.419	1.45	Lose2	0.8332999999999999	n/a	No	2.729	n/a	5.0	NoResponse	-1	0.017	174.436	3	17	Feedback	Loss	False
176.873	2.729	Lose2	0.8332999999999999	n/a	No	2.729	n/a	n/a	NoResponse	-1	0.0	n/a	3	17	ISIslide	Loss	False
179.615	0.25	Lose2	0.7895	0.0	No	2.735	0.015	n/a	NoResponse	-1	n/a	n/a	2	18	Cue	Loss	True
179.866	4.05	Lose2	0.7895	0.0	No	2.735	0.001	n/a	NoResponse	-1	n/a	n/a	2	18	Fixation	Loss	True
183.911	0.22	Lose2	0.7895	0.004	No	2.735	-0.004	2.0	NoResponse	-1	0.264	183.175	2	18	Target	Loss	True
184.145	0.48	Lose2	0.7895	n/a	No	2.735	n/a	n/a	NoResponse	-1	n/a	n/a	2	18	Blank	Loss	True
184.175	0.3	Lose2	0.7895	0.004	No	2.735	-0.004	2.0	NoResponse	-1	0.264	n/a	2	18	ButtonPress	Loss	True
184.613	1.45	Lose2	0.7895	n/a	No	2.735	n/a	5.0	NoResponse	-1	0.043	183.656	2	18	Feedback	Loss	True
186.068	2.735	Lose2	0.7895	n/a	No	2.735	n/a	n/a	NoResponse	-1	0.0	n/a	2	18	ISIslide	Loss	True
188.826	0.25	Control	0.75	0.0	No	2.924	0.026	n/a	LatePress	0	n/a	n/a	2	19	Cue	Neutral	True
189.077	3.95	Control	0.75	0.0	No	2.924	0.001	n/a	LatePress	0	n/a	n/a	2	19	Fixation	Neutral	True
193.022	0.21	Control	0.75	0.004	No	2.924	-0.004	2.0	LatePress	0	0.211	192.233	2	19	Target	Neutral	True
193.233	0.3	Control	0.75	0.004	No	2.924	-0.004	2.0	LatePress	0	0.211	n/a	2	19	ButtonPress	Neutral	True
193.239	0.49	Control	0.75	n/a	No	2.924	n/a	n/a	LatePress	0	n/a	n/a	2	19	Blank	Neutral	True
193.724	1.45	Control	0.75	n/a	No	2.924	n/a	5.0	LatePress	0	0.007	192.731	2	19	Feedback	Neutral	True
195.178	2.924	Control	0.75	n/a	No	2.924	n/a	n/a	LatePress	0	0.0	n/a	2	19	ISIslide	Neutral	True
198.12	0.25	Control	0.7619	0.001	Yes	2.63	0.02	n/a	GoodResponse	0	n/a	n/a	2	20	Cue	Neutral	True
198.371	4.05	Control	0.7619	0.0	Yes	2.63	0.001	n/a	GoodResponse	0	n/a	n/a	2	20	Fixation	Neutral	True
202.417	0.2	Control	0.7619	0.003	Yes	2.63	-0.003	2.0	GoodResponse	0	0.128	201.545	2	20	Target	Neutral	True
202.545	0.3	Control	0.7619	0.003	Yes	2.63	-0.003	2.0	GoodResponse	0	0.128	n/a	2	20	ButtonPress	Neutral	True
202.617	0.5	Control	0.7619	n/a	Yes	2.63	n/a	n/a	GoodResponse	0	n/a	n/a	2	20	Blank	Neutral	True
203.119	1.45	Control	0.7619	n/a	Yes	2.63	n/a	5.0	GoodResponse	0	0.025	202.144	2	20	Feedback	Neutral	True
204.573	2.63	Control	0.7619	n/a	Yes	2.63	n/a	n/a	GoodResponse	0	0.0	n/a	2	20	ISIslide	Neutral	True
207.214	0.25	Control	0.7273000000000001	0.0	No	2.786	0.014	n/a	NoResponse	0	n/a	n/a	2	21	Cue	Neutral	True
207.465	4.1	Control	0.7273000000000001	0.0	No	2.786	0.001	n/a	NoResponse	0	n/a	n/a	2	21	Fixation	Neutral	True
211.561	0.19	Control	0.7273000000000001	0.003	No	2.786	-0.003	2.0	NoResponse	0	0.34	210.901	2	21	Target	Neutral	True
211.761	0.51	Control	0.7273000000000001	n/a	No	2.786	n/a	n/a	NoResponse	0	n/a	n/a	2	21	Blank	Neutral	True
211.901	0.3	Control	0.7273000000000001	0.003	No	2.786	-0.003	2.0	NoResponse	0	0.34	n/a	2	21	ButtonPress	Neutral	True
212.263	1.45	Control	0.7273000000000001	n/a	No	2.786	n/a	5.0	NoResponse	0	0.006	211.269	2	21	Feedback	Neutral	True
213.717	2.786	Control	0.7273000000000001	n/a	No	2.786	n/a	n/a	NoResponse	0	0.0	n/a	2	21	ISIslide	Neutral	True
216.526	0.25	Control	0.6957	0.0	No	2.774	0.026	n/a	NoResponse	0	n/a	n/a	2	22	Cue	Neutral	False
216.776	4.0	Control	0.6957	0.0	No	2.774	0.0	n/a	NoResponse	0	n/a	n/a	2	22	Fixation	Neutral	False
220.772	0.18	Control	0.6957	0.004	No	2.774	-0.004	n/a	NoResponse	0	n/a	n/a	2	22	Target	Neutral	False
220.955	0.52	Control	0.6957	n/a	No	2.774	n/a	n/a	NoResponse	0	n/a	n/a	2	22	Blank	Neutral	False
221.474	1.45	Control	0.6957	n/a	No	2.774	n/a	5.0	NoResponse	0	0.011	220.485	2	22	Feedback	Neutral	False
222.928	2.774	Control	0.6957	n/a	No	2.774	n/a	n/a	NoResponse	0	0.0	n/a	2	22	ISIslide	Neutral	False
225.72	0.25	Control	0.6667000000000001	0.0	No	2.78	0.02	n/a	NoResponse	0	n/a	n/a	2	23	Cue	Neutral	True
225.97	3.9	Control	0.6667000000000001	0.001	No	2.78	0.0	n/a	NoResponse	0	n/a	n/a	2	23	Fixation	Neutral	True
229.865	0.17	Control	0.6667000000000001	0.005	No	2.78	-0.005	2.0	NoResponse	0	0.193	229.058	2	23	Target	Neutral	True
230.049	0.53	Control	0.6667000000000001	n/a	No	2.78	n/a	n/a	NoResponse	0	n/a	n/a	2	23	Blank	Neutral	True
230.058	0.3	Control	0.6667000000000001	0.005	No	2.78	-0.005	2.0	NoResponse	0	0.193	n/a	2	23	ButtonPress	Neutral	True
230.568	1.45	Control	0.6667000000000001	n/a	No	2.78	n/a	5.0	NoResponse	0	0.039	229.607	2	23	Feedback	Neutral	True
232.022	2.78	Control	0.6667000000000001	n/a	No	2.78	n/a	n/a	NoResponse	0	0.0	n/a	2	23	ISIslide	Neutral	True
234.83	0.25	Win2	0.64	0.0	No	3.12	0.03	n/a	NoResponse	0	n/a	n/a	2	24	Cue	MissedWin	True
235.081	3.95	Win2	0.64	0.0	No	3.12	0.001	n/a	NoResponse	0	n/a	n/a	2	24	Fixation	MissedWin	True
239.026	0.16	Win2	0.64	0.004	No	3.12	-0.004	2.0	NoResponse	0	0.202	238.228	2	24	Target	MissedWin	True
239.193	0.54	Win2	0.64	n/a	No	3.12	n/a	n/a	NoResponse	0	n/a	n/a	2	24	Blank	MissedWin	True
239.228	0.3	Win2	0.64	0.004	No	3.12	-0.004	2.0	NoResponse	0	0.202	n/a	2	24	ButtonPress	MissedWin	True
239.728	1.45	Win2	0.64	n/a	No	3.12	n/a	5.0	NoResponse	0	0.001	238.729	2	24	Feedback	MissedWin	True
241.183	3.12	Win2	0.64	n/a	No	3.12	n/a	n/a	NoResponse	0	0.0	n/a	2	24	ISIslide	MissedWin	True
244.325	0.25	Win2	0.6154	0.0	No	3.075	0.025	n/a	NoResponse	0	n/a	n/a	2	25	Cue	MissedWin	False
244.576	4.0	Win2	0.6154	0.0	No	3.075	0.001	2.0	NoResponse	0	2.875	246.451	2	25	Fixation	MissedWin	False
247.451	0.3	Win2	0.6154	0.0	No	3.075	0.001	2.0	NoResponse	0	2.875	n/a	2	25	ButtonPress	MissedWin	False
248.571	0.17	Win2	0.6154	0.004	No	3.075	-0.004	2.0	NoResponse	0	0.249	247.82	2	25	Target	MissedWin	False
248.755	0.53	Win2	0.6154	n/a	No	3.075	n/a	n/a	NoResponse	0	n/a	n/a	2	25	Blank	MissedWin	False
248.82	0.3	Win2	0.6154	0.004	No	3.075	-0.004	2.0	NoResponse	0	0.249	n/a	2	25	ButtonPress	MissedWin	False
249.274	1.45	Win2	0.6154	n/a	No	3.075	n/a	5.0	NoResponse	0	0.016	248.29	2	25	Feedback	MissedWin	False
250.728	3.075	Win2	0.6154	n/a	No	3.075	n/a	n/a	NoResponse	0	0.0	n/a	2	25	ISIslide	MissedWin	False
253.82	0.25	Win2	0.5926	0.001	No	2.93	0.02	n/a	NoResponse	0	n/a	n/a	2	26	Cue	MissedWin	True
254.071	3.95	Win2	0.5926	0.0	No	2.93	0.001	n/a	NoResponse	0	n/a	n/a	2	26	Fixation	MissedWin	True
258.016	0.18	Win2	0.5926	0.004	No	2.93	-0.004	2.0	NoResponse	0	0.195	257.211	2	26	Target	MissedWin	True
258.2	0.52	Win2	0.5926	n/a	No	2.93	n/a	n/a	NoResponse	0	n/a	n/a	2	26	Blank	MissedWin	True
258.211	0.3	Win2	0.5926	0.004	No	2.93	-0.004	2.0	NoResponse	0	0.195	n/a	2	26	ButtonPress	MissedWin	True
258.718	1.45	Win2	0.5926	n/a	No	2.93	n/a	5.0	NoResponse	0	0.035	257.753	2	26	Feedback	MissedWin	True
260.173	2.93	Win2	0.5926	n/a	No	2.93	n/a	n/a	NoResponse	0	0.0	n/a	2	26	ISIslide	MissedWin	True
263.115	0.25	Lose2	0.5714	0.0	No	2.835	0.015	n/a	LatePress	-1	n/a	n/a	1	27	Cue	Loss	True
263.366	4.05	Lose2	0.5714	0.0	No	2.835	0.001	n/a	LatePress	-1	n/a	n/a	1	27	Fixation	Loss	True
267.411	0.19	Lose2	0.5714	0.004	No	2.835	-0.004	2.0	LatePress	-1	0.195	266.606	1	27	Target	Loss	True
267.606	0.3	Lose2	0.5714	0.004	No	2.835	-0.004	2.0	LatePress	-1	0.195	n/a	1	27	ButtonPress	Loss	True
267.612	0.51	Lose2	0.5714	n/a	No	2.835	n/a	n/a	LatePress	-1	n/a	n/a	1	27	Blank	Loss	True
268.113	1.45	Lose2	0.5714	n/a	No	2.835	n/a	5.0	LatePress	-1	0.007	267.12	1	27	Feedback	Loss	True
269.568	2.835	Lose2	0.5714	n/a	No	2.835	n/a	n/a	LatePress	-1	0.0	n/a	1	27	ISIslide	Loss	True
272.426	0.25	Control	0.5517	0.0	No	2.824	0.026	n/a	NoResponse	0	n/a	n/a	1	28	Cue	Neutral	True
272.677	4.05	Control	0.5517	0.0	No	2.824	0.001	n/a	NoResponse	0	n/a	n/a	1	28	Fixation	Neutral	True
276.722	0.2	Control	0.5517	0.004	No	2.824	-0.004	2.0	NoResponse	0	0.242	275.964	1	28	Target	Neutral	True
276.923	0.5	Control	0.5517	n/a	No	2.824	n/a	n/a	NoResponse	0	n/a	n/a	1	28	Blank	Neutral	True
276.964	0.3	Control	0.5517	0.004	No	2.824	-0.004	2.0	NoResponse	0	0.242	n/a	1	28	ButtonPress	Neutral	True
277.424	1.45	Control	0.5517	n/a	No	2.824	n/a	5.0	NoResponse	0	0.011	276.435	1	28	Feedback	Neutral	True
278.879	2.824	Control	0.5517	n/a	No	2.824	n/a	n/a	NoResponse	0	0.0	n/a	1	28	ISIslide	Neutral	True
281.721	0.25	Lose2	0.5333	0.0	No	2.829	0.021	n/a	NoResponse	-1	n/a	n/a	0	29	Cue	Loss	True
281.971	3.95	Lose2	0.5333	0.0	No	2.829	0.0	n/a	NoResponse	-1	n/a	n/a	0	29	Fixation	Loss	True
285.917	0.21	Lose2	0.5333	0.004	No	2.829	-0.004	2.0	NoResponse	-1	0.229	285.146	0	29	Target	Loss	True
286.134	0.49	Lose2	0.5333	n/a	No	2.829	n/a	n/a	NoResponse	-1	n/a	n/a	0	29	Blank	Loss	True
286.146	0.3	Lose2	0.5333	0.004	No	2.829	-0.004	2.0	NoResponse	-1	0.229	n/a	0	29	ButtonPress	Loss	True
286.619	1.45	Lose2	0.5333	n/a	No	2.829	n/a	5.0	NoResponse	-1	0.036	285.655	0	29	Feedback	Loss	True
288.073	2.829	Lose2	0.5333	n/a	No	2.829	n/a	n/a	NoResponse	-1	0.0	n/a	0	29	ISIslide	Loss	True
290.915	0.25	Win2	0.5484	0.0	Yes	2.785	0.015	n/a	GoodResponse	1	n/a	n/a	1	30	Cue	Win	True
291.166	3.9	Win2	0.5484	0.0	Yes	2.785	0.001	n/a	GoodResponse	1	n/a	n/a	1	30	Fixation	Win	True
295.061	0.22	Win2	0.5484	0.004	Yes	2.785	-0.004	2.0	GoodResponse	1	0.207	294.268	1	30	Target	Win	True
295.268	0.3	Win2	0.5484	0.004	Yes	2.785	-0.004	2.0	GoodResponse	1	0.207	n/a	1	30	ButtonPress	Win	True
295.295	0.48	Win2	0.5484	n/a	Yes	2.785	n/a	n/a	GoodResponse	1	n/a	n/a	1	30	Blank	Win	True
295.763	1.45	Win2	0.5484	n/a	Yes	2.785	n/a	5.0	GoodResponse	1	0.014	294.777	1	30	Feedback	Win	True
297.217	2.785	Win2	0.5484	n/a	Yes	2.785	n/a	n/a	GoodResponse	1	0.0	n/a	1	30	ISIslide	Win	True
300.025	0.25	Lose2	0.5625	0.001	Yes	2.825	0.025	n/a	GoodResponse	0	n/a	n/a	1	31	Cue	AvoidedLoss	True
300.276	4.05	Lose2	0.5625	0.0	Yes	2.825	0.001	n/a	GoodResponse	0	n/a	n/a	1	31	Fixation	AvoidedLoss	True
304.322	0.23	Lose2	0.5625	0.003	Yes	2.825	-0.003	2.0	GoodResponse	0	0.204	303.526	1	31	Target	AvoidedLoss	True
304.526	0.3	Lose2	0.5625	0.003	Yes	2.825	-0.003	2.0	GoodResponse	0	0.204	n/a	1	31	ButtonPress	AvoidedLoss	True
304.556	0.47	Lose2	0.5625	n/a	Yes	2.825	n/a	n/a	GoodResponse	0	n/a	n/a	1	31	Blank	AvoidedLoss	True
305.024	1.45	Lose2	0.5625	n/a	Yes	2.825	n/a	5.0	GoodResponse	0	0.021	304.045	1	31	Feedback	AvoidedLoss	True
306.478	2.825	Lose2	0.5625	n/a	Yes	2.825	n/a	n/a	GoodResponse	0	0.0	n/a	1	31	ISIslide	AvoidedLoss	True
309.32	0.25	Lose2	0.5455	0.0	No	2.63	0.02	n/a	NoResponse	-1	n/a	n/a	0	32	Cue	Loss	True
309.571	4.15	Lose2	0.5455	0.0	No	2.63	0.001	n/a	NoResponse	-1	n/a	n/a	0	32	Fixation	Loss	True
313.716	0.24	Lose2	0.5455	0.004	No	2.63	-0.004	2.0	NoResponse	-1	0.291	313.007	0	32	Target	Loss	True
313.967	0.46	Lose2	0.5455	n/a	No	2.63	n/a	n/a	NoResponse	-1	n/a	n/a	0	32	Blank	Loss	True
314.007	0.3	Lose2	0.5455	0.004	No	2.63	-0.004	2.0	NoResponse	-1	0.291	n/a	0	32	ButtonPress	Loss	True
314.419	1.45	Lose2	0.5455	n/a	No	2.63	n/a	5.0	NoResponse	-1	0.041	313.46	0	32	Feedback	Loss	True
315.873	2.63	Lose2	0.5455	n/a	No	2.63	n/a	n/a	NoResponse	-1	0.0	n/a	0	32	ISIslide	Loss	True
318.531	0.25	Win2	0.5588000000000001	0.0	Yes	2.669	0.031	n/a	GoodResponse	1	n/a	n/a	1	33	Cue	Win	True
318.782	4.0	Win2	0.5588000000000001	0.0	Yes	2.669	0.001	n/a	GoodResponse	1	n/a	n/a	1	33	Fixation	Win	True
322.777	0.25	Win2	0.5588000000000001	0.004	Yes	2.669	-0.004	2.0	GoodResponse	1	0.213	321.99	1	33	Target	Win	True
322.99	0.3	Win2	0.5588000000000001	0.004	Yes	2.669	-0.004	2.0	GoodResponse	1	0.213	n/a	1	33	ButtonPress	Win	True
323.028	0.45	Win2	0.5588000000000001	n/a	Yes	2.669	n/a	n/a	GoodResponse	1	n/a	n/a	1	33	Blank	Win	True
323.479	1.45	Win2	0.5588000000000001	n/a	Yes	2.669	n/a	5.0	GoodResponse	1	0.007	322.486	1	33	Feedback	Win	True
324.933	2.669	Win2	0.5588000000000001	n/a	Yes	2.669	n/a	n/a	GoodResponse	1	0.0	n/a	1	33	ISIslide	Win	True
327.625	0.25	Lose2	0.5714	0.0	Yes	2.625	0.025	n/a	GoodResponse	0	n/a	n/a	1	34	Cue	AvoidedLoss	True
327.875	4.05	Lose2	0.5714	0.001	Yes	2.625	0.0	n/a	GoodResponse	0	n/a	n/a	1	34	Fixation	AvoidedLoss	True
331.921	0.26	Lose2	0.5714	0.004	Yes	2.625	-0.004	2.0	GoodResponse	0	0.188	331.109	1	34	Target	AvoidedLoss	True
332.109	0.3	Lose2	0.5714	0.004	Yes	2.625	-0.004	2.0	GoodResponse	0	0.188	n/a	1	34	ButtonPress	AvoidedLoss	True
332.188	0.44	Lose2	0.5714	n/a	Yes	2.625	n/a	n/a	GoodResponse	0	n/a	n/a	1	34	Blank	AvoidedLoss	True
332.623	1.45	Lose2	0.5714	n/a	Yes	2.625	n/a	5.0	GoodResponse	0	0.031	331.654	1	34	Feedback	AvoidedLoss	True
334.077	2.625	Lose2	0.5714	n/a	Yes	2.625	n/a	n/a	GoodResponse	0	0.0	n/a	1	34	ISIslide	AvoidedLoss	True
336.719	0.25	Lose2	0.5832999999999999	0.0	Yes	2.681	0.019	n/a	GoodResponse	0	n/a	n/a	1	35	Cue	AvoidedLoss	True
336.969	4.0	Lose2	0.5832999999999999	0.0	Yes	2.681	0.0	n/a	GoodResponse	0	n/a	n/a	1	35	Fixation	AvoidedLoss	True
340.965	0.27	Lose2	0.5832999999999999	0.004	Yes	2.681	-0.004	2.0	GoodResponse	0	0.2	340.165	1	35	Target	AvoidedLoss	True
341.165	0.3	Lose2	0.5832999999999999	0.004	Yes	2.681	-0.004	2.0	GoodResponse	0	0.2	n/a	1	35	ButtonPress	AvoidedLoss	True
341.249	0.43	Lose2	0.5832999999999999	n/a	Yes	2.681	n/a	n/a	GoodResponse	0	n/a	n/a	1	35	Blank	AvoidedLoss	True
341.667	1.45	Lose2	0.5832999999999999	n/a	Yes	2.681	n/a	5.0	GoodResponse	0	0.012	340.679	1	35	Feedback	AvoidedLoss	True
343.121	2.681	Lose2	0.5832999999999999	n/a	Yes	2.681	n/a	n/a	GoodResponse	0	0.0	n/a	1	35	ISIslide	AvoidedLoss	True
345.829	0.25	Control	0.5946	0.0	Yes	2.671	0.029	n/a	GoodResponse	0	n/a	n/a	1	36	Cue	Neutral	True
346.08	4.0	Control	0.5946	0.0	Yes	2.671	0.001	n/a	GoodResponse	0	n/a	n/a	1	36	Fixation	Neutral	True
350.075	0.28	Control	0.5946	0.004	Yes	2.671	-0.004	2.0	GoodResponse	0	0.204	349.279	1	36	Target	Neutral	True
350.279	0.3	Control	0.5946	0.004	Yes	2.671	-0.004	2.0	GoodResponse	0	0.204	n/a	1	36	ButtonPress	Neutral	True
350.359	0.42	Control	0.5946	n/a	Yes	2.671	n/a	n/a	GoodResponse	0	n/a	n/a	1	36	Blank	Neutral	True
350.777	1.45	Control	0.5946	n/a	Yes	2.671	n/a	5.0	GoodResponse	0	0.024	349.801	1	36	Feedback	Neutral	True
352.232	2.671	Control	0.5946	n/a	Yes	2.671	n/a	n/a	GoodResponse	0	0.0	n/a	1	36	ISIslide	Neutral	True
354.923	0.25	Win2	0.6053000000000001	0.0	Yes	2.877	0.023	n/a	GoodResponse	1	n/a	n/a	2	37	Cue	Win	True
355.174	4.0	Win2	0.6053000000000001	0.0	Yes	2.877	0.001	n/a	GoodResponse	1	n/a	n/a	2	37	Fixation	Win	True
359.169	0.29	Win2	0.6053000000000001	0.004	Yes	2.877	-0.004	2.0	GoodResponse	1	0.219	358.388	2	37	Target	Win	True
359.388	0.3	Win2	0.6053000000000001	0.004	Yes	2.877	-0.004	2.0	GoodResponse	1	0.219	n/a	2	37	ButtonPress	Win	True
359.47	0.41	Win2	0.6053000000000001	n/a	Yes	2.877	n/a	n/a	GoodResponse	1	n/a	n/a	2	37	Blank	Win	True
359.871	1.45	Win2	0.6053000000000001	n/a	Yes	2.877	n/a	5.0	GoodResponse	1	0.008	358.879	2	37	Feedback	Win	True
361.326	2.877	Win2	0.6053000000000001	n/a	Yes	2.877	n/a	n/a	GoodResponse	1	0.0	n/a	2	37	ISIslide	Win	True
364.218	0.25	Lose2	0.5897	0.0	No	2.832	0.018	n/a	NoResponse	-1	n/a	n/a	1	38	Cue	Loss	True
364.468	3.95	Lose2	0.5897	0.0	No	2.832	0.0	n/a	NoResponse	-1	n/a	n/a	1	38	Fixation	Loss	True
368.43	0.3	Lose2	0.5897	0.0	No	2.832	0.012	2.0	NoResponse	-1	0.413	367.843	1	38	Target	Loss	True
368.714	0.4	Lose2	0.5897	n/a	No	2.832	n/a	n/a	NoResponse	-1	n/a	n/a	1	38	Blank	Loss	True
368.843	0.3	Lose2	0.5897	0.0	No	2.832	0.012	2.0	NoResponse	-1	0.413	n/a	1	38	ButtonPress	Loss	True
369.116	1.45	Lose2	0.5897	n/a	No	2.832	n/a	5.0	NoResponse	-1	0.027	368.143	1	38	Feedback	Loss	True
370.57	2.832	Lose2	0.5897	n/a	No	2.832	n/a	n/a	NoResponse	-1	0.0	n/a	1	38	ISIslide	Loss	True
373.428	0.25	Win2	0.6	0.001	Yes	2.972	0.028	n/a	GoodResponse	1	n/a	n/a	2	39	Cue	Win	True
373.679	4.1	Win2	0.6	0.0	Yes	2.972	0.001	n/a	GoodResponse	1	n/a	n/a	2	39	Fixation	Win	True
377.775	0.31	Win2	0.6	0.003	Yes	2.972	-0.003	2.0	GoodResponse	1	0.197	376.972	2	39	Target	Win	True
377.972	0.3	Win2	0.6	0.003	Yes	2.972	-0.003	2.0	GoodResponse	1	0.197	n/a	2	39	ButtonPress	Win	True
378.092	0.39	Win2	0.6	n/a	Yes	2.972	n/a	n/a	GoodResponse	1	n/a	n/a	2	39	Blank	Win	True
378.477	1.45	Win2	0.6	n/a	Yes	2.972	n/a	5.0	GoodResponse	1	0.03	377.507	2	39	Feedback	Win	True
379.931	2.972	Win2	0.6	n/a	Yes	2.972	n/a	n/a	GoodResponse	1	0.0	n/a	2	39	ISIslide	Win	True
382.924	0.25	Win2	0.6098	0.0	Yes	2.726	0.024	n/a	GoodResponse	1	n/a	n/a	3	40	Cue	Win	True
383.174	3.95	Win2	0.6098	0.0	Yes	2.726	0.0	n/a	GoodResponse	1	n/a	n/a	3	40	Fixation	Win	True
387.136	0.32	Win2	0.6098	0.0	Yes	2.726	0.012	2.0	GoodResponse	1	0.262	386.398	3	40	Target	Win	True
387.398	0.3	Win2	0.6098	0.0	Yes	2.726	0.012	2.0	GoodResponse	1	0.262	n/a	3	40	ButtonPress	Win	True
387.454	0.38	Win2	0.6098	n/a	Yes	2.726	n/a	n/a	GoodResponse	1	n/a	n/a	3	40	Blank	Win	True
387.822	1.45	Win2	0.6098	n/a	Yes	2.726	n/a	5.0	GoodResponse	1	0.007	386.829	3	40	Feedback	Win	True
389.276	2.726	Win2	0.6098	n/a	Yes	2.726	n/a	2.0	GoodResponse	1	0.555	n/a	3	40	ISIslide	Win	True
392.001	0.25	Win2	0.619	0.0	Yes	2.799	0.001	n/a	GoodResponse	1	n/a	n/a	4	41	Cue	Win	True
392.252	3.9	Win2	0.619	0.0	Yes	2.799	0.001	n/a	GoodResponse	1	n/a	n/a	4	41	Fixation	Win	True
396.147	0.33	Win2	0.619	0.004	Yes	2.799	-0.004	2.0	GoodResponse	1	0.21	395.357	4	41	Target	Win	True
396.357	0.3	Win2	0.619	0.004	Yes	2.799	-0.004	2.0	GoodResponse	1	0.21	n/a	4	41	ButtonPress	Win	True
396.481	0.37	Win2	0.619	n/a	Yes	2.799	n/a	n/a	GoodResponse	1	n/a	n/a	4	41	Blank	Win	True
396.849	1.45	Win2	0.619	n/a	Yes	2.799	n/a	5.0	GoodResponse	1	0.0	395.849	4	41	Feedback	Win	True
398.303	2.799	Win2	0.619	n/a	Yes	2.799	n/a	2.0	GoodResponse	1	1.744	n/a	4	41	ISIslide	Win	True
401.111	0.25	Control	0.6279	0.0	Yes	2.939	0.011	n/a	GoodResponse	0	n/a	n/a	4	42	Cue	Neutral	True
401.362	3.85	Control	0.6279	0.0	Yes	2.939	0.001	n/a	GoodResponse	0	n/a	n/a	4	42	Fixation	Neutral	True
405.207	0.34	Control	0.6279	0.004	Yes	2.939	-0.004	2.0	GoodResponse	0	0.24	404.447	4	42	Target	Neutral	True
405.447	0.3	Control	0.6279	0.004	Yes	2.939	-0.004	2.0	GoodResponse	0	0.24	n/a	4	42	ButtonPress	Neutral	True
405.558	0.36	Control	0.6279	n/a	Yes	2.939	n/a	n/a	GoodResponse	0	n/a	n/a	4	42	Blank	Neutral	True
405.909	1.45	Control	0.6279	n/a	Yes	2.939	n/a	5.0	GoodResponse	0	0.013	404.922	4	42	Feedback	Neutral	True
407.363	2.939	Control	0.6279	n/a	Yes	2.939	n/a	n/a	GoodResponse	0	0.0	n/a	4	42	ISIslide	Neutral	True
410.322	0.25	Win2	0.6364	0.0	Yes	3.178	0.022	n/a	GoodResponse	1	n/a	n/a	5	43	Cue	Win	True
410.573	4.0	Win2	0.6364	0.0	Yes	3.178	0.001	n/a	GoodResponse	1	n/a	n/a	5	43	Fixation	Win	True
414.568	0.35	Win2	0.6364	0.004	Yes	3.178	-0.004	2.0	GoodResponse	1	0.262	413.83	5	43	Target	Win	True
414.83	0.3	Win2	0.6364	0.004	Yes	3.178	-0.004	2.0	GoodResponse	1	0.262	n/a	5	43	ButtonPress	Win	True
414.919	0.35	Win2	0.6364	n/a	Yes	3.178	n/a	n/a	GoodResponse	1	n/a	n/a	5	43	Blank	Win	True
415.27	1.45	Win2	0.6364	n/a	Yes	3.178	n/a	5.0	GoodResponse	1	0.018	414.288	5	43	Feedback	Win	True
416.725	3.178	Win2	0.6364	n/a	Yes	3.178	n/a	n/a	GoodResponse	1	0.0	n/a	5	43	ISIslide	Win	True
419.918	0.25	Win2	0.6444	0.0	Yes	2.982	0.018	n/a	GoodResponse	1	n/a	n/a	6	44	Cue	Win	True
420.168	4.0	Win2	0.6444	0.001	Yes	2.982	0.0	n/a	GoodResponse	1	n/a	n/a	6	44	Fixation	Win	True
424.164	0.36	Win2	0.6444	0.004	Yes	2.982	-0.004	2.0	GoodResponse	1	0.195	423.359	6	44	Target	Win	True
424.359	0.3	Win2	0.6444	0.004	Yes	2.982	-0.004	2.0	GoodResponse	1	0.195	n/a	6	44	ButtonPress	Win	True
424.531	0.34	Win2	0.6444	n/a	Yes	2.982	n/a	n/a	GoodResponse	1	n/a	n/a	6	44	Blank	Win	True
424.866	1.45	Win2	0.6444	n/a	Yes	2.982	n/a	5.0	GoodResponse	1	0.031	423.897	6	44	Feedback	Win	True
426.32	2.982	Win2	0.6444	n/a	Yes	2.982	n/a	n/a	GoodResponse	1	0.0	n/a	6	44	ISIslide	Win	True
429.329	0.25	Control	0.6522	0.0	Yes	2.871	0.029	n/a	GoodResponse	0	n/a	n/a	6	45	Cue	Neutral	True
429.58	4.1	Control	0.6522	0.0	Yes	2.871	0.001	n/a	GoodResponse	0	n/a	n/a	6	45	Fixation	Neutral	True
433.676	0.37	Control	0.6522	0.003	Yes	2.871	-0.003	2.0	GoodResponse	0	0.273	432.949	6	45	Target	Neutral	True
433.949	0.3	Control	0.6522	0.003	Yes	2.871	-0.003	2.0	GoodResponse	0	0.273	n/a	6	45	ButtonPress	Neutral	True
434.06	0.33	Control	0.6522	n/a	Yes	2.871	n/a	n/a	GoodResponse	0	n/a	n/a	6	45	Blank	Neutral	True
434.378	1.45	Control	0.6522	n/a	Yes	2.871	n/a	5.0	GoodResponse	0	0.032	433.41	6	45	Feedback	Neutral	True
435.832	2.871	Control	0.6522	n/a	Yes	2.871	n/a	n/a	GoodResponse	0	0.0	n/a	6	45	ISIslide	Neutral	True
438.724	0.25	Lose2	0.6596	0.0	Yes	3.376	0.024	n/a	GoodResponse	0	n/a	n/a	6	46	Cue	AvoidedLoss	False
438.975	4.0	Lose2	0.6596	0.0	Yes	3.376	0.001	2.0	GoodResponse	0	2.714	440.689	6	46	Fixation	AvoidedLoss	False
441.689	0.3	Lose2	0.6596	0.0	Yes	3.376	0.001	2.0	GoodResponse	0	2.714	n/a	6	46	ButtonPress	AvoidedLoss	False
442.97	0.38	Lose2	0.6596	0.004	Yes	3.376	-0.004	2.0	GoodResponse	0	0.265	442.235	6	46	Target	AvoidedLoss	False
443.235	0.3	Lose2	0.6596	0.004	Yes	3.376	-0.004	2.0	GoodResponse	0	0.265	n/a	6	46	ButtonPress	AvoidedLoss	False
443.354	0.32	Lose2	0.6596	n/a	Yes	3.376	n/a	n/a	GoodResponse	0	n/a	n/a	6	46	Blank	AvoidedLoss	False
443.672	1.45	Lose2	0.6596	n/a	Yes	3.376	n/a	5.0	GoodResponse	0	0.007	442.679	6	46	Feedback	AvoidedLoss	False
445.126	3.376	Lose2	0.6596	n/a	Yes	3.376	n/a	n/a	GoodResponse	0	0.0	n/a	6	46	ISIslide	AvoidedLoss	False
448.52	0.25	Lose2	0.6667000000000001	0.0	Yes	2.68	0.02	n/a	GoodResponse	0	n/a	n/a	6	47	Cue	AvoidedLoss	True
448.771	4.0	Lose2	0.6667000000000001	0.0	Yes	2.68	0.001	n/a	GoodResponse	0	n/a	n/a	6	47	Fixation	AvoidedLoss	True
452.766	0.38	Lose2	0.6667000000000001	0.004	Yes	2.68	-0.004	2.0	GoodResponse	0	0.213	451.979	6	47	Target	AvoidedLoss	True
452.979	0.3	Lose2	0.6667000000000001	0.004	Yes	2.68	-0.004	2.0	GoodResponse	0	0.213	n/a	6	47	ButtonPress	AvoidedLoss	True
453.15	0.32	Lose2	0.6667000000000001	n/a	Yes	2.68	n/a	n/a	GoodResponse	0	n/a	n/a	6	47	Blank	AvoidedLoss	True
453.468	1.45	Lose2	0.6667000000000001	n/a	Yes	2.68	n/a	5.0	GoodResponse	0	0.015	452.483	6	47	Feedback	AvoidedLoss	True
454.922	2.68	Lose2	0.6667000000000001	n/a	Yes	2.68	n/a	n/a	GoodResponse	0	0.0	n/a	6	47	ISIslide	AvoidedLoss	True
457.631	0.25	Lose2	0.6735	0.0	Yes	3.019	0.031	n/a	GoodResponse	0	n/a	n/a	6	48	Cue	AvoidedLoss	True
457.881	3.95	Lose2	0.6735	0.0	Yes	3.019	0.0	n/a	GoodResponse	0	n/a	n/a	6	48	Fixation	AvoidedLoss	True
461.826	0.37	Lose2	0.6735	0.005	Yes	3.019	-0.005	2.0	GoodResponse	0	0.192	461.018	6	48	Target	AvoidedLoss	True
462.018	0.3	Lose2	0.6735	0.005	Yes	3.019	-0.005	2.0	GoodResponse	0	0.192	n/a	6	48	ButtonPress	AvoidedLoss	True
462.211	0.33	Lose2	0.6735	n/a	Yes	3.019	n/a	n/a	GoodResponse	0	n/a	n/a	6	48	Blank	AvoidedLoss	True
462.529	1.45	Lose2	0.6735	n/a	Yes	3.019	n/a	5.0	GoodResponse	0	0.027	461.556	6	48	Feedback	AvoidedLoss	True
463.983	3.019	Lose2	0.6735	n/a	Yes	3.019	n/a	n/a	GoodResponse	0	0.0	n/a	6	48	ISIslide	AvoidedLoss	True
467.025	0.25	Control	0.68	0.0	Yes	2.875	0.025	n/a	GoodResponse	0	n/a	n/a	6	49	Cue	Neutral	True
467.276	4.0	Control	0.68	0.0	Yes	2.875	0.001	n/a	GoodResponse	0	n/a	n/a	6	49	Fixation	Neutral	True
471.271	0.36	Control	0.68	0.004	Yes	2.875	-0.004	2.0	GoodResponse	0	0.28	470.551	6	49	Target	Neutral	True
471.551	0.3	Control	0.68	0.004	Yes	2.875	-0.004	2.0	GoodResponse	0	0.28	n/a	6	49	ButtonPress	Neutral	True
471.639	0.34	Control	0.68	n/a	Yes	2.875	n/a	n/a	GoodResponse	0	n/a	n/a	6	49	Blank	Neutral	True
471.973	1.45	Control	0.68	n/a	Yes	2.875	n/a	5.0	GoodResponse	0	0.046	471.019	6	49	Feedback	Neutral	True
473.428	2.875	Control	0.68	n/a	Yes	2.875	n/a	n/a	GoodResponse	0	0.0	n/a	6	49	ISIslide	Neutral	True
476.32	0.25	Control	0.6862999999999999	0.0	Yes	2.78	0.02	n/a	GoodResponse	0	n/a	n/a	6	50	Cue	Neutral	True
476.571	4.0	Control	0.6862999999999999	0.0	Yes	2.78	0.001	n/a	GoodResponse	0	n/a	n/a	6	50	Fixation	Neutral	True
480.566	0.35	Control	0.6862999999999999	0.004	Yes	2.78	-0.004	2.0	GoodResponse	0	0.226	479.792	6	50	Target	Neutral	True
480.792	0.3	Control	0.6862999999999999	0.004	Yes	2.78	-0.004	2.0	GoodResponse	0	0.226	n/a	6	50	ButtonPress	Neutral	True
480.917	0.35	Control	0.6862999999999999	n/a	Yes	2.78	n/a	n/a	GoodResponse	0	n/a	n/a	6	50	Blank	Neutral	True
481.268	1.45	Control	0.6862999999999999	n/a	Yes	2.78	n/a	5.0	GoodResponse	0	0.019	480.287	6	50	Feedback	Neutral	True
482.722	2.78	Control	0.6862999999999999	n/a	Yes	2.78	n/a	n/a	GoodResponse	0	0.0	n/a	6	50	ISIslide	Neutral	True
485.514	0.25	Control	0.6923	0.0	Yes	2.736	0.014	n/a	GoodResponse	0	n/a	n/a	6	51	Cue	Neutral	True
485.765	3.95	Control	0.6923	0.0	Yes	2.736	0.001	n/a	GoodResponse	0	n/a	n/a	6	51	Fixation	Neutral	True
489.71	0.34	Control	0.6923	0.004	Yes	2.736	-0.004	2.0	GoodResponse	0	0.23	488.94	6	51	Target	Neutral	True
489.94	0.3	Control	0.6923	0.004	Yes	2.736	-0.004	2.0	GoodResponse	0	0.23	n/a	6	51	ButtonPress	Neutral	True
490.061	0.36	Control	0.6923	n/a	Yes	2.736	n/a	n/a	GoodResponse	0	n/a	n/a	6	51	Blank	Neutral	True
490.412	1.45	Control	0.6923	n/a	Yes	2.736	n/a	5.0	GoodResponse	0	0.046	489.458	6	51	Feedback	Neutral	True
491.866	2.736	Control	0.6923	n/a	Yes	2.736	n/a	n/a	GoodResponse	0	0.0	n/a	6	51	ISIslide	Neutral	True
494.625	0.25	Control	0.6981	0.0	Yes	2.625	0.025	n/a	GoodResponse	0	n/a	n/a	6	52	Cue	Neutral	True
494.875	4.05	Control	0.6981	0.0	Yes	2.625	0.0	n/a	GoodResponse	0	n/a	n/a	6	52	Fixation	Neutral	True
498.921	0.33	Control	0.6981	0.004	Yes	2.625	-0.004	2.0	GoodResponse	0	0.208	498.129	6	52	Target	Neutral	True
499.129	0.3	Control	0.6981	0.004	Yes	2.625	-0.004	2.0	GoodResponse	0	0.208	n/a	6	52	ButtonPress	Neutral	True
499.255	0.37	Control	0.6981	n/a	Yes	2.625	n/a	n/a	GoodResponse	0	n/a	n/a	6	52	Blank	Neutral	True
499.623	1.45	Control	0.6981	n/a	Yes	2.625	n/a	5.0	GoodResponse	0	0.007	498.63	6	52	Feedback	Neutral	True
501.077	2.625	Control	0.6981	n/a	Yes	2.625	n/a	n/a	GoodResponse	0	0.0	n/a	6	52	ISIslide	Neutral	True
503.719	0.25	Win2	0.7037	0.0	Yes	2.931	0.019	n/a	GoodResponse	1	n/a	n/a	7	53	Cue	Win	True
503.969	4.05	Win2	0.7037	0.0	Yes	2.931	0.0	n/a	GoodResponse	1	n/a	n/a	7	53	Fixation	Win	True
508.015	0.32	Win2	0.7037	0.004	Yes	2.931	-0.004	2.0	GoodResponse	1	0.237	507.252	7	53	Target	Win	True
508.252	0.3	Win2	0.7037	0.004	Yes	2.931	-0.004	2.0	GoodResponse	1	0.237	n/a	7	53	ButtonPress	Win	True
508.349	0.38	Win2	0.7037	n/a	Yes	2.931	n/a	n/a	GoodResponse	1	n/a	n/a	7	53	Blank	Win	True
508.717	1.45	Win2	0.7037	n/a	Yes	2.931	n/a	5.0	GoodResponse	1	0.034	507.751	7	53	Feedback	Win	True
510.171	2.931	Win2	0.7037	n/a	Yes	2.931	n/a	n/a	GoodResponse	1	0.0	n/a	7	53	ISIslide	Win	True
513.13	0.25	Win2	0.7091	0.0	Yes	2.72	0.03	n/a	GoodResponse	1	n/a	n/a	8	54	Cue	Win	True
513.381	3.95	Win2	0.7091	0.0	Yes	2.72	0.001	n/a	GoodResponse	1	n/a	n/a	8	54	Fixation	Win	True
517.326	0.31	Win2	0.7091	0.004	Yes	2.72	-0.004	2.0	GoodResponse	1	0.197	516.523	8	54	Target	Win	True
517.523	0.3	Win2	0.7091	0.004	Yes	2.72	-0.004	2.0	GoodResponse	1	0.197	n/a	8	54	ButtonPress	Win	True
517.644	0.39	Win2	0.7091	n/a	Yes	2.72	n/a	n/a	GoodResponse	1	n/a	n/a	8	54	Blank	Win	True
518.028	1.45	Win2	0.7091	n/a	Yes	2.72	n/a	5.0	GoodResponse	1	0.04	517.068	8	54	Feedback	Win	True
519.482	2.72	Win2	0.7091	n/a	Yes	2.72	n/a	n/a	GoodResponse	1	0.0	n/a	8	54	ISIslide	Win	True
522.224	0.25	Control	0.7143	0.0	Yes	3.026	0.024	n/a	GoodResponse	0	n/a	n/a	8	55	Cue	Neutral	True
522.475	3.95	Control	0.7143	0.0	Yes	3.026	0.001	n/a	GoodResponse	0	n/a	n/a	8	55	Fixation	Neutral	True
526.42	0.3	Control	0.7143	0.004	Yes	3.026	-0.004	2.0	GoodResponse	0	0.147	525.567	8	55	Target	Neutral	True
526.567	0.3	Control	0.7143	0.004	Yes	3.026	-0.004	2.0	GoodResponse	0	0.147	n/a	8	55	ButtonPress	Neutral	True
526.721	0.4	Control	0.7143	n/a	Yes	3.026	n/a	n/a	GoodResponse	0	n/a	n/a	8	55	Blank	Neutral	True
527.122	1.45	Control	0.7143	n/a	Yes	3.026	n/a	5.0	GoodResponse	0	0.018	526.14	8	55	Feedback	Neutral	True
528.576	3.026	Control	0.7143	n/a	Yes	3.026	n/a	n/a	GoodResponse	0	0.0	n/a	8	55	ISIslide	Neutral	True
531.619	0.25	Control	0.7193	0.0	Yes	2.831	0.019	n/a	GoodResponse	0	n/a	n/a	8	56	Cue	Neutral	True
531.869	3.95	Control	0.7193	0.0	Yes	2.831	0.0	n/a	GoodResponse	0	n/a	n/a	8	56	Fixation	Neutral	True
535.815	0.29	Control	0.7193	0.004	Yes	2.831	-0.004	2.0	GoodResponse	0	0.289	535.104	8	56	Target	Neutral	True
536.104	0.3	Control	0.7193	0.004	Yes	2.831	-0.004	2.0	GoodResponse	0	0.289	n/a	8	56	ButtonPress	Neutral	True
536.115	0.41	Control	0.7193	n/a	Yes	2.831	n/a	n/a	GoodResponse	0	n/a	n/a	8	56	Blank	Neutral	True
536.517	1.45	Control	0.7193	n/a	Yes	2.831	n/a	5.0	GoodResponse	0	0.038	535.555	8	56	Feedback	Neutral	True
537.971	2.831	Control	0.7193	n/a	Yes	2.831	n/a	n/a	GoodResponse	0	0.0	n/a	8	56	ISIslide	Neutral	True
540.83	0.25	Control	0.7241	0.0	Yes	3.47	0.03	n/a	GoodResponse	0	n/a	n/a	8	57	Cue	Neutral	True
541.08	4.0	Control	0.7241	0.0	Yes	3.47	0.0	n/a	GoodResponse	0	n/a	n/a	8	57	Fixation	Neutral	True
545.076	0.28	Control	0.7241	0.004	Yes	3.47	-0.004	2.0	GoodResponse	0	0.266	544.342	8	57	Target	Neutral	True
545.342	0.3	Control	0.7241	0.004	Yes	3.47	-0.004	2.0	GoodResponse	0	0.266	n/a	8	57	ButtonPress	Neutral	True
545.36	0.42	Control	0.7241	n/a	Yes	3.47	n/a	n/a	GoodResponse	0	n/a	n/a	8	57	Blank	Neutral	True
545.778	1.45	Control	0.7241	n/a	Yes	3.47	n/a	5.0	GoodResponse	0	0.045	544.823	8	57	Feedback	Neutral	True
547.232	3.47	Control	0.7241	n/a	Yes	3.47	n/a	n/a	GoodResponse	0	0.0	n/a	8	57	ISIslide	Neutral	True
550.726	0.25	Win2	0.7288	0.0	Yes	2.724	0.026	n/a	GoodResponse	1	n/a	n/a	9	58	Cue	Win	True
550.977	4.05	Win2	0.7288	0.0	Yes	2.724	0.001	n/a	GoodResponse	1	n/a	n/a	9	58	Fixation	Win	True
555.022	0.27	Win2	0.7288	0.004	Yes	2.724	-0.004	2.0	GoodResponse	1	0.194	554.216	9	58	Target	Win	True
555.216	0.3	Win2	0.7288	0.004	Yes	2.724	-0.004	2.0	GoodResponse	1	0.194	n/a	9	58	ButtonPress	Win	True
555.306	0.43	Win2	0.7288	n/a	Yes	2.724	n/a	n/a	GoodResponse	1	n/a	n/a	9	58	Blank	Win	True
555.724	1.45	Win2	0.7288	n/a	Yes	2.724	n/a	5.0	GoodResponse	1	0.002	554.726	9	58	Feedback	Win	True
557.179	2.724	Win2	0.7288	n/a	Yes	2.724	n/a	n/a	GoodResponse	1	0.0	n/a	9	58	ISIslide	Win	True
559.92	0.25	Lose2	0.7333	0.0	Yes	2.68	0.02	n/a	GoodResponse	0	n/a	n/a	9	59	Cue	AvoidedLoss	True
560.171	4.0	Lose2	0.7333	0.0	Yes	2.68	0.001	n/a	GoodResponse	0	n/a	n/a	9	59	Fixation	AvoidedLoss	True
564.166	0.26	Lose2	0.7333	0.004	Yes	2.68	-0.004	2.0	GoodResponse	0	0.196	563.362	9	59	Target	AvoidedLoss	True
564.362	0.3	Lose2	0.7333	0.004	Yes	2.68	-0.004	2.0	GoodResponse	0	0.196	n/a	9	59	ButtonPress	AvoidedLoss	True
564.434	0.44	Lose2	0.7333	n/a	Yes	2.68	n/a	n/a	GoodResponse	0	n/a	n/a	9	59	Blank	AvoidedLoss	True
564.868	1.45	Lose2	0.7333	n/a	Yes	2.68	n/a	5.0	GoodResponse	0	0.029	563.897	9	59	Feedback	AvoidedLoss	True
566.323	2.68	Lose2	0.7333	n/a	Yes	2.68	n/a	n/a	GoodResponse	0	0.0	n/a	9	59	ISIslide	AvoidedLoss	True
569.014	0.25	Control	0.7212999999999999	0.0	No	2.686	0.014	n/a	NoResponse	0	n/a	n/a	9	60	Cue	Neutral	False
569.265	4.0	Control	0.7212999999999999	0.0	No	2.686	0.001	2.0	NoResponse	0	3.329	571.594	9	60	Fixation	Neutral	False
572.594	0.3	Control	0.7212999999999999	0.0	No	2.686	0.001	2.0	NoResponse	0	3.329	n/a	9	60	ButtonPress	Neutral	False
573.26	0.25	Control	0.7212999999999999	0.004	No	2.686	-0.004	2.0	NoResponse	0	0.359	572.619	9	60	Target	Neutral	False
573.511	0.45	Control	0.7212999999999999	n/a	No	2.686	n/a	n/a	NoResponse	0	n/a	n/a	9	60	Blank	Neutral	False
573.619	0.3	Control	0.7212999999999999	0.004	No	2.686	-0.004	2.0	NoResponse	0	0.359	n/a	9	60	ButtonPress	Neutral	False
573.962	1.45	Control	0.7212999999999999	n/a	No	2.686	n/a	5.0	NoResponse	0	0.008	572.97	9	60	Feedback	Neutral	False
575.416	2.686	Control	0.7212999999999999	n/a	No	2.686	n/a	n/a	NoResponse	0	0.0	n/a	9	60	ISIslide	Neutral	False
578.125	0.25	Lose2	0.7258	0.0	Yes	2.975	0.025	n/a	GoodResponse	0	n/a	n/a	9	61	Cue	AvoidedLoss	True
578.375	4.0	Lose2	0.7258	0.0	Yes	2.975	0.0	n/a	GoodResponse	0	n/a	n/a	9	61	Fixation	AvoidedLoss	True
582.371	0.24	Lose2	0.7258	0.004	Yes	2.975	-0.004	2.0	GoodResponse	0	0.221	581.592	9	61	Target	AvoidedLoss	True
582.592	0.3	Lose2	0.7258	0.004	Yes	2.975	-0.004	2.0	GoodResponse	0	0.221	n/a	9	61	ButtonPress	AvoidedLoss	True
582.621	0.46	Lose2	0.7258	n/a	Yes	2.975	n/a	n/a	GoodResponse	0	n/a	n/a	9	61	Blank	AvoidedLoss	True
583.073	1.45	Lose2	0.7258	n/a	Yes	2.975	n/a	5.0	GoodResponse	0	0.018	582.091	9	61	Feedback	AvoidedLoss	True
584.527	2.975	Lose2	0.7258	n/a	Yes	2.975	n/a	n/a	GoodResponse	0	0.0	n/a	9	61	ISIslide	AvoidedLoss	True
587.519	0.25	Lose2	0.7302	0.0	Yes	2.881	0.019	n/a	GoodResponse	0	n/a	n/a	9	62	Cue	AvoidedLoss	True
587.77	3.9	Lose2	0.7302	0.0	Yes	2.881	0.001	n/a	GoodResponse	0	n/a	n/a	9	62	Fixation	AvoidedLoss	True
591.665	0.23	Lose2	0.7302	0.004	Yes	2.881	-0.004	2.0	GoodResponse	0	0.207	590.872	9	62	Target	AvoidedLoss	True
591.872	0.3	Lose2	0.7302	0.004	Yes	2.881	-0.004	2.0	GoodResponse	0	0.207	n/a	9	62	ButtonPress	AvoidedLoss	True
591.899	0.47	Lose2	0.7302	n/a	Yes	2.881	n/a	n/a	GoodResponse	0	n/a	n/a	9	62	Blank	AvoidedLoss	True
592.367	1.45	Lose2	0.7302	n/a	Yes	2.881	n/a	5.0	GoodResponse	0	0.041	591.408	9	62	Feedback	AvoidedLoss	True
593.822	2.881	Lose2	0.7302	n/a	Yes	2.881	n/a	n/a	GoodResponse	0	0.0	n/a	9	62	ISIslide	AvoidedLoss	True
596.73	0.25	Lose2	0.7188	0.0	No	2.62	0.03	n/a	LatePress	-1	n/a	n/a	8	63	Cue	Loss	True
596.981	4.05	Lose2	0.7188	0.0	No	2.62	0.001	n/a	LatePress	-1	n/a	n/a	8	63	Fixation	Loss	True
601.026	0.22	Lose2	0.7188	0.004	No	2.62	-0.004	2.0	LatePress	-1	0.226	600.252	8	63	Target	Loss	True
601.252	0.3	Lose2	0.7188	0.004	No	2.62	-0.004	2.0	LatePress	-1	0.226	n/a	8	63	ButtonPress	Loss	True
601.26	0.48	Lose2	0.7188	n/a	No	2.62	n/a	n/a	LatePress	-1	n/a	n/a	8	63	Blank	Loss	True
601.729	1.45	Lose2	0.7188	n/a	No	2.62	n/a	5.0	LatePress	-1	0.045	600.774	8	63	Feedback	Loss	True
603.183	2.62	Lose2	0.7188	n/a	No	2.62	n/a	n/a	LatePress	-1	0.0	n/a	8	63	ISIslide	Loss	True
605.824	0.25	Win2	0.7231000000000001	0.0	Yes	3.126	0.024	n/a	GoodResponse	1	n/a	n/a	9	64	Cue	Win	True
606.075	4.15	Win2	0.7231000000000001	0.0	Yes	3.126	0.001	n/a	GoodResponse	1	n/a	n/a	9	64	Fixation	Win	True
610.221	0.21	Win2	0.7231000000000001	0.003	Yes	3.126	-0.003	2.0	GoodResponse	1	0.173	609.394	9	64	Target	Win	True
610.394	0.3	Win2	0.7231000000000001	0.003	Yes	3.126	-0.003	2.0	GoodResponse	1	0.173	n/a	9	64	ButtonPress	Win	True
610.438	0.49	Win2	0.7231000000000001	n/a	Yes	3.126	n/a	n/a	GoodResponse	1	n/a	n/a	9	64	Blank	Win	True
610.923	1.45	Win2	0.7231000000000001	n/a	Yes	3.126	n/a	5.0	GoodResponse	1	0.022	609.945	9	64	Feedback	Win	True
612.377	3.126	Win2	0.7231000000000001	n/a	Yes	3.126	n/a	n/a	GoodResponse	1	0.0	n/a	9	64	ISIslide	Win	True
615.52	0.25	Control	0.7273000000000001	0.0	Yes	2.78	0.02	n/a	GoodResponse	0	n/a	n/a	9	65	Cue	Neutral	True
615.771	4.0	Control	0.7273000000000001	0.0	Yes	2.78	0.001	n/a	GoodResponse	0	n/a	n/a	9	65	Fixation	Neutral	True
619.766	0.2	Control	0.7273000000000001	0.004	Yes	2.78	-0.004	2.0	GoodResponse	0	0.189	618.955	9	65	Target	Neutral	True
619.955	0.3	Control	0.7273000000000001	0.004	Yes	2.78	-0.004	2.0	GoodResponse	0	0.189	n/a	9	65	ButtonPress	Neutral	True
619.966	0.5	Control	0.7273000000000001	n/a	Yes	2.78	n/a	n/a	GoodResponse	0	n/a	n/a	9	65	Blank	Neutral	True
620.468	1.45	Control	0.7273000000000001	n/a	Yes	2.78	n/a	5.0	GoodResponse	0	0.038	619.506	9	65	Feedback	Neutral	True
621.922	2.78	Control	0.7273000000000001	n/a	Yes	2.78	n/a	n/a	GoodResponse	0	0.0	n/a	9	65	ISIslide	Neutral	True
624.731	0.25	Win2	0.7313	0.0	Yes	2.769	0.031	n/a	GoodResponse	1	n/a	n/a	10	66	Cue	Win	True
624.981	3.9	Win2	0.7313	0.001	Yes	2.769	0.0	n/a	GoodResponse	1	n/a	n/a	10	66	Fixation	Win	True
628.893	0.19	Win2	0.7313	0.0	Yes	2.769	0.012	2.0	GoodResponse	1	0.181	628.074	10	66	Target	Win	True
629.074	0.3	Win2	0.7313	0.0	Yes	2.769	0.012	2.0	GoodResponse	1	0.181	n/a	10	66	ButtonPress	Win	True
629.077	0.51	Win2	0.7313	n/a	Yes	2.769	n/a	n/a	GoodResponse	1	n/a	n/a	10	66	Blank	Win	True
629.579	1.45	Win2	0.7313	n/a	Yes	2.769	n/a	5.0	GoodResponse	1	0.048	628.627	10	66	Feedback	Win	True
631.033	2.769	Win2	0.7313	n/a	Yes	2.769	n/a	n/a	GoodResponse	1	0.0	n/a	10	66	ISIslide	Win	True
633.825	0.25	Control	0.7206	0.0	No	2.725	0.025	n/a	NoResponse	0	n/a	n/a	10	67	Cue	Neutral	True
634.075	3.95	Control	0.7206	0.0	No	2.725	0.0	n/a	NoResponse	0	n/a	n/a	10	67	Fixation	Neutral	True
638.021	0.18	Control	0.7206	0.004	No	2.725	-0.004	2.0	NoResponse	0	0.296	637.317	10	67	Target	Neutral	True
638.204	0.52	Control	0.7206	n/a	No	2.725	n/a	n/a	NoResponse	0	n/a	n/a	10	67	Blank	Neutral	True
638.317	0.3	Control	0.7206	0.004	No	2.725	-0.004	2.0	NoResponse	0	0.296	n/a	10	67	ButtonPress	Neutral	True
638.723	1.45	Control	0.7206	n/a	No	2.725	n/a	5.0	NoResponse	0	0.026	637.749	10	67	Feedback	Neutral	True
640.177	2.725	Control	0.7206	n/a	No	2.725	n/a	n/a	NoResponse	0	0.0	n/a	10	67	ISIslide	Neutral	True
642.919	0.25	Win2	0.7101000000000001	0.0	No	3.081	0.019	n/a	NoResponse	0	n/a	n/a	10	68	Cue	MissedWin	True
643.169	4.0	Win2	0.7101000000000001	0.0	No	3.081	0.0	n/a	NoResponse	0	n/a	n/a	10	68	Fixation	MissedWin	True
647.165	0.17	Win2	0.7101000000000001	0.004	No	3.081	-0.004	2.0	NoResponse	0	0.197	646.362	10	68	Target	MissedWin	True
647.348	0.53	Win2	0.7101000000000001	n/a	No	3.081	n/a	n/a	NoResponse	0	n/a	n/a	10	68	Blank	MissedWin	True
647.362	0.3	Win2	0.7101000000000001	0.004	No	3.081	-0.004	2.0	NoResponse	0	0.197	n/a	10	68	ButtonPress	MissedWin	True
647.867	1.45	Win2	0.7101000000000001	n/a	No	3.081	n/a	5.0	NoResponse	0	0.007	646.874	10	68	Feedback	MissedWin	True
649.321	3.081	Win2	0.7101000000000001	n/a	No	3.081	n/a	n/a	NoResponse	0	0.0	n/a	10	68	ISIslide	MissedWin	True
652.43	0.25	Win2	0.7	0.0	No	3.22	0.03	n/a	NoResponse	0	n/a	n/a	10	69	Cue	MissedWin	True
652.681	3.95	Win2	0.7	0.0	No	3.22	0.001	n/a	NoResponse	0	n/a	n/a	10	69	Fixation	MissedWin	True
656.626	0.16	Win2	0.7	0.004	No	3.22	-0.004	2.0	NoResponse	0	0.177	655.803	10	69	Target	MissedWin	True
656.793	0.54	Win2	0.7	n/a	No	3.22	n/a	n/a	NoResponse	0	n/a	n/a	10	69	Blank	MissedWin	True
656.803	0.3	Win2	0.7	0.004	No	3.22	-0.004	2.0	NoResponse	0	0.177	n/a	10	69	ButtonPress	MissedWin	True
657.328	1.45	Win2	0.7	n/a	No	3.22	n/a	5.0	NoResponse	0	0.007	656.335	10	69	Feedback	MissedWin	True
658.783	3.22	Win2	0.7	n/a	No	3.22	n/a	n/a	NoResponse	0	0.0	n/a	10	69	ISIslide	MissedWin	True
662.026	0.25	Lose2	0.6901	0.0	No	3.024	0.026	n/a	NoResponse	-1	n/a	n/a	9	70	Cue	Loss	True
662.276	4.05	Lose2	0.6901	0.001	No	3.024	0.0	n/a	NoResponse	-1	n/a	n/a	9	70	Fixation	Loss	True
666.322	0.15	Lose2	0.6901	0.004	No	3.024	-0.004	2.0	NoResponse	-1	0.197	665.519	9	70	Target	Loss	True
666.472	0.55	Lose2	0.6901	n/a	No	3.024	n/a	n/a	NoResponse	-1	n/a	n/a	9	70	Blank	Loss	True
666.519	0.3	Lose2	0.6901	0.004	No	3.024	-0.004	2.0	NoResponse	-1	0.197	n/a	9	70	ButtonPress	Loss	True
667.024	1.45	Lose2	0.6901	n/a	No	3.024	n/a	5.0	NoResponse	-1	0.018	666.042	9	70	Feedback	Loss	True
668.478	3.024	Lose2	0.6901	n/a	No	3.024	n/a	n/a	NoResponse	-1	0.0	n/a	9	70	ISIslide	Loss	True
671.521	0.25	Win2	0.6806	0.0	No	2.729	0.021	n/a	NoResponse	0	n/a	n/a	9	71	Cue	MissedWin	False
671.772	4.05	Win2	0.6806	0.0	No	2.729	0.001	2.0	NoResponse	0	1.565	672.337	9	71	Fixation	MissedWin	False
673.337	0.3	Win2	0.6806	0.0	No	2.729	0.001	2.0	NoResponse	0	1.565	n/a	9	71	ButtonPress	MissedWin	False
675.817	0.15	Win2	0.6806	0.004	No	2.729	-0.004	2.0	NoResponse	0	0.278	675.095	9	71	Target	MissedWin	False
675.967	0.55	Win2	0.6806	n/a	No	2.729	n/a	n/a	NoResponse	0	n/a	n/a	9	71	Blank	MissedWin	False
676.095	0.3	Win2	0.6806	0.004	No	2.729	-0.004	2.0	NoResponse	0	0.278	n/a	9	71	ButtonPress	MissedWin	False
676.519	1.45	Win2	0.6806	n/a	No	2.729	n/a	5.0	NoResponse	0	0.034	675.553	9	71	Feedback	MissedWin	False
677.973	2.729	Win2	0.6806	n/a	No	2.729	n/a	n/a	NoResponse	0	0.0	n/a	9	71	ISIslide	MissedWin	False
680.732	0.25	Win2	0.6712	0.0	No	2.768	0.032	n/a	NoResponse	0	n/a	n/a	9	72	Cue	MissedWin	True
680.982	4.1	Win2	0.6712	0.001	No	2.768	0.0	n/a	NoResponse	0	n/a	n/a	9	72	Fixation	MissedWin	True
685.078	0.15	Win2	0.6712	0.004	No	2.768	-0.004	2.0	NoResponse	0	0.17	684.248	9	72	Target	MissedWin	True
685.228	0.55	Win2	0.6712	n/a	No	2.768	n/a	n/a	NoResponse	0	n/a	n/a	9	72	Blank	MissedWin	True
685.248	0.3	Win2	0.6712	0.004	No	2.768	-0.004	2.0	NoResponse	0	0.17	n/a	9	72	ButtonPress	MissedWin	True
685.78	1.45	Win2	0.6712	n/a	No	2.768	n/a	5.0	NoResponse	0	0.042	684.822	9	72	Feedback	MissedWin	True
687.234	2.768	Win2	0.6712	n/a	No	2.768	n/a	n/a	NoResponse	0	0.0	n/a	9	72	ISIslide	MissedWin	True
690.026	0.25	Win2	0.6622	0.0	No	2.674	0.026	n/a	NoResponse	0	n/a	n/a	9	73	Cue	MissedWin	False
690.277	4.0	Win2	0.6622	0.0	No	2.674	0.001	2.0	NoResponse	0	1.217	690.494	9	73	Fixation	MissedWin	False
691.494	0.3	Win2	0.6622	0.0	No	2.674	0.001	2.0	NoResponse	0	1.217	n/a	9	73	ButtonPress	MissedWin	False
694.272	0.15	Win2	0.6622	0.004	No	2.674	-0.004	2.0	NoResponse	0	0.162	693.434	9	73	Target	MissedWin	False
694.423	0.55	Win2	0.6622	n/a	No	2.674	n/a	n/a	NoResponse	0	n/a	n/a	9	73	Blank	MissedWin	False
694.434	0.3	Win2	0.6622	0.004	No	2.674	-0.004	2.0	NoResponse	0	0.162	n/a	9	73	ButtonPress	MissedWin	False
694.974	1.45	Win2	0.6622	n/a	No	2.674	n/a	5.0	NoResponse	0	0.018	693.992	9	73	Feedback	MissedWin	False
696.429	2.674	Win2	0.6622	n/a	No	2.674	n/a	n/a	NoResponse	0	0.0	n/a	9	73	ISIslide	MissedWin	False
699.12	0.25	Lose2	0.6533	0.0	No	2.63	0.02	n/a	NoResponse	-1	n/a	n/a	8	74	Cue	Loss	True
699.371	4.05	Lose2	0.6533	0.0	No	2.63	0.001	n/a	NoResponse	-1	n/a	n/a	8	74	Fixation	Loss	True
703.416	0.15	Lose2	0.6533	0.004	No	2.63	-0.004	2.0	NoResponse	-1	0.175	702.591	8	74	Target	Loss	True
703.567	0.55	Lose2	0.6533	n/a	No	2.63	n/a	n/a	NoResponse	-1	n/a	n/a	8	74	Blank	Loss	True
703.591	0.3	Lose2	0.6533	0.004	No	2.63	-0.004	2.0	NoResponse	-1	0.175	n/a	8	74	ButtonPress	Loss	True
704.118	1.45	Lose2	0.6533	n/a	No	2.63	n/a	5.0	NoResponse	-1	0.045	703.163	8	74	Feedback	Loss	True
705.573	2.63	Lose2	0.6533	n/a	No	2.63	n/a	n/a	NoResponse	-1	0.0	n/a	8	74	ISIslide	Loss	True
708.231	0.25	Lose2	0.6446999999999999	0.0	No	2.919	0.031	n/a	NoResponse	-1	n/a	n/a	7	75	Cue	Loss	True
708.481	3.95	Lose2	0.6446999999999999	0.001	No	2.919	0.0	n/a	NoResponse	-1	n/a	n/a	7	75	Fixation	Loss	True
712.427	0.16	Lose2	0.6446999999999999	0.004	No	2.919	-0.004	2.0	NoResponse	-1	0.175	711.602	7	75	Target	Loss	True
712.594	0.54	Lose2	0.6446999999999999	n/a	No	2.919	n/a	n/a	NoResponse	-1	n/a	n/a	7	75	Blank	Loss	True
712.602	0.3	Lose2	0.6446999999999999	0.004	No	2.919	-0.004	2.0	NoResponse	-1	0.175	n/a	7	75	ButtonPress	Loss	True
713.129	1.45	Lose2	0.6446999999999999	n/a	No	2.919	n/a	5.0	NoResponse	-1	0.01	712.139	7	75	Feedback	Loss	True
714.583	2.919	Lose2	0.6446999999999999	n/a	No	2.919	n/a	n/a	NoResponse	-1	0.0	n/a	7	75	ISIslide	Loss	True
717.525	0.25	Control	0.6364	0.0	No	3.225	0.025	n/a	NoResponse	0	n/a	n/a	7	76	Cue	Neutral	True
717.776	4.05	Control	0.6364	0.0	No	3.225	0.001	2.0	NoResponse	0	3.35	720.126	7	76	Fixation	Neutral	True
721.126	0.3	Control	0.6364	0.0	No	3.225	0.001	2.0	NoResponse	0	3.35	n/a	7	76	ButtonPress	Neutral	True
721.821	0.17	Control	0.6364	0.004	No	3.225	-0.004	n/a	NoResponse	0	n/a	n/a	7	76	Target	Neutral	True
722.005	0.53	Control	0.6364	n/a	No	3.225	n/a	n/a	NoResponse	0	n/a	n/a	7	76	Blank	Neutral	True
722.523	1.45	Control	0.6364	n/a	No	3.225	n/a	5.0	NoResponse	0	0.031	721.554	7	76	Feedback	Neutral	True
723.978	3.225	Control	0.6364	n/a	No	3.225	n/a	n/a	NoResponse	0	0.0	n/a	7	76	ISIslide	Neutral	True
727.221	0.25	Lose2	0.6282	0.0	No	2.579	0.021	n/a	NoResponse	-1	n/a	n/a	6	77	Cue	Loss	True
727.472	3.95	Lose2	0.6282	0.0	No	2.579	0.001	2.0	NoResponse	-1	3.383	729.855	6	77	Fixation	Loss	True
730.855	0.3	Lose2	0.6282	0.0	No	2.579	0.001	2.0	NoResponse	-1	3.383	n/a	6	77	ButtonPress	Loss	True
731.417	0.18	Lose2	0.6282	0.004	No	2.579	-0.004	n/a	NoResponse	-1	n/a	n/a	6	77	Target	Loss	True
731.601	0.52	Lose2	0.6282	n/a	No	2.579	n/a	n/a	NoResponse	-1	n/a	n/a	6	77	Blank	Loss	True
732.119	1.45	Lose2	0.6282	n/a	No	2.579	n/a	5.0	NoResponse	-1	0.044	731.163	6	77	Feedback	Loss	True
733.573	2.579	Lose2	0.6282	n/a	No	2.579	n/a	n/a	NoResponse	-1	0.0	n/a	6	77	ISIslide	Loss	True
