onset	duration	cue_type	current_mean_accuracy	duration_error	is_hit	isi_adjusted	onset_delay	response	response_type	reward	rt	rt_time	total_reward	trial_number	trial_phase	trial_type	one_press
11.098	0.25	Control	1.0	0.0	Yes	2.952	-0.002	n/a	GoodResponse	0	n/a	n/a	0	0	Cue	Neutral	True
11.348	3.85	Control	1.0	0.0	Yes	2.952	0.0	n/a	GoodResponse	0	n/a	n/a	0	0	Fixation	Neutral	True
15.197	0.4	Control	1.0	0.001	Yes	2.952	-0.001	4.0	GoodResponse	0	0.246	14.443	0	0	Target	Neutral	True
15.443	0.3	Control	1.0	0.001	Yes	2.952	-0.001	4.0	GoodResponse	0	0.246	n/a	0	0	ButtonPress	Neutral	True
15.597	0.3	Control	1.0	n/a	Yes	2.952	n/a	n/a	GoodResponse	0	n/a	n/a	0	0	Blank	Neutral	True
15.897	1.45	Control	1.0	n/a	Yes	2.952	n/a	5.0	GoodResponse	0	0.033	14.93	0	0	Feedback	Neutral	True
17.346	2.952	Control	1.0	n/a	Yes	2.952	n/a	n/a	GoodResponse	0	0.0	n/a	0	0	ISIslide	Neutral	True
20.328	0.25	Lose2	1.0	0.0	Yes	2.772	0.028	n/a	GoodResponse	0	n/a	n/a	0	1	Cue	AvoidedLoss	True
20.578	4.0	Lose2	1.0	0.0	Yes	2.772	0.0	n/a	GoodResponse	0	n/a	n/a	0	1	Fixation	AvoidedLoss	True
24.577	0.39	Lose2	1.0	0.001	Yes	2.772	-0.001	4.0	GoodResponse	0	0.27	23.847	0	1	Target	AvoidedLoss	True
24.847	0.3	Lose2	1.0	0.001	Yes	2.772	-0.001	4.0	GoodResponse	0	0.27	n/a	0	1	ButtonPress	AvoidedLoss	True
24.977	0.31	Lose2	1.0	n/a	Yes	2.772	n/a	n/a	GoodResponse	0	n/a	n/a	0	1	Blank	AvoidedLoss	True
25.277	1.45	Lose2	1.0	n/a	Yes	2.772	n/a	5.0	GoodResponse	0	0.018	24.295	0	1	Feedback	AvoidedLoss	True
26.726	2.772	Lose2	1.0	n/a	Yes	2.772	n/a	n/a	GoodResponse	0	0.0	n/a	0	1	ISIslide	AvoidedLoss	True
29.525	0.25	Control	0.6667000000000001	0.0	No	2.575	0.025	n/a	NoResponse	0	n/a	n/a	0	2	Cue	Neutral	True
29.775	4.1	Control	0.6667000000000001	0.0	No	2.575	0.0	n/a	NoResponse	0	n/a	n/a	0	2	Fixation	Neutral	True
33.874	0.38	Control	0.6667000000000001	0.001	No	2.575	-0.001	4.0	NoResponse	0	0.552	33.426	0	2	Target	Neutral	True
34.257	0.32	Control	0.6667000000000001	n/a	No	2.575	n/a	n/a	NoResponse	0	n/a	n/a	0	2	Blank	Neutral	True
34.426	0.3	Control	0.6667000000000001	0.001	No	2.575	-0.001	4.0	NoResponse	0	0.552	n/a	0	2	ButtonPress	Neutral	True
34.573	1.45	Control	0.6667000000000001	n/a	No	2.575	n/a	5.0	NoResponse	0	0.039	33.612	0	2	Feedback	Neutral	True
36.023	2.575	Control	0.6667000000000001	n/a	No	2.575	n/a	n/a	NoResponse	0	0.0	n/a	0	2	ISIslide	Neutral	True
38.622	0.25	Win2	0.75	0.0	Yes	2.828	0.022	n/a	GoodResponse	1	n/a	n/a	1	3	Cue	Win	True
38.872	3.95	Win2	0.75	0.0	Yes	2.828	0.0	n/a	GoodResponse	1	n/a	n/a	1	3	Fixation	Win	True
42.82	0.37	Win2	0.75	0.002	Yes	2.828	-0.002	4.0	GoodResponse	1	0.206	42.026	1	3	Target	Win	True
43.026	0.3	Win2	0.75	0.002	Yes	2.828	-0.002	4.0	GoodResponse	1	0.206	n/a	1	3	ButtonPress	Win	True
43.204	0.33	Win2	0.75	n/a	Yes	2.828	n/a	n/a	GoodResponse	1	n/a	n/a	1	3	Blank	Win	True
43.52	1.45	Win2	0.75	n/a	Yes	2.828	n/a	5.0	GoodResponse	1	0.019	42.539	1	3	Feedback	Win	True
44.97	2.828	Win2	0.75	n/a	Yes	2.828	n/a	n/a	GoodResponse	1	0.0	n/a	1	3	ISIslide	Win	True
47.819	0.25	Win2	0.8	0.0	Yes	3.281	0.019	n/a	GoodResponse	1	n/a	n/a	2	4	Cue	Win	True
48.069	4.0	Win2	0.8	0.0	Yes	3.281	0.0	n/a	GoodResponse	1	n/a	n/a	2	4	Fixation	Win	True
52.067	0.36	Win2	0.8	0.002	Yes	3.281	-0.002	4.0	GoodResponse	1	0.223	51.29	2	4	Target	Win	True
52.29	0.3	Win2	0.8	0.002	Yes	3.281	-0.002	4.0	GoodResponse	1	0.223	n/a	2	4	ButtonPress	Win	True
52.434	0.34	Win2	0.8	n/a	Yes	3.281	n/a	n/a	GoodResponse	1	n/a	n/a	2	4	Blank	Win	True
52.767	1.45	Win2	0.8	n/a	Yes	3.281	n/a	5.0	GoodResponse	1	0.04	51.807	2	4	Feedback	Win	True
54.216	3.281	Win2	0.8	n/a	Yes	3.281	n/a	n/a	GoodResponse	1	0.0	n/a	2	4	ISIslide	Win	True
57.515	0.25	Win2	0.8332999999999999	0.0	Yes	2.785	0.015	n/a	GoodResponse	1	n/a	n/a	3	5	Cue	Win	True
57.765	4.0	Win2	0.8332999999999999	0.0	Yes	2.785	0.0	n/a	GoodResponse	1	n/a	n/a	3	5	Fixation	Win	True
61.764	0.35	Win2	0.8332999999999999	0.001	Yes	2.785	-0.001	4.0	GoodResponse	1	0.212	60.976	3	5	Target	Win	True
61.976	0.3	Win2	0.8332999999999999	0.001	Yes	2.785	-0.001	4.0	GoodResponse	1	0.212	n/a	3	5	ButtonPress	Win	True
62.114	0.35	Win2	0.8332999999999999	n/a	Yes	2.785	n/a	n/a	GoodResponse	1	n/a	n/a	3	5	Blank	Win	True
62.464	1.45	Win2	0.8332999999999999	n/a	Yes	2.785	n/a	5.0	GoodResponse	1	0.003	61.467	3	5	Feedback	Win	True
63.913	2.785	Win2	0.8332999999999999	n/a	Yes	2.785	n/a	n/a	GoodResponse	1	0.0	n/a	3	5	ISIslide	Win	True
66.712	0.25	Lose2	0.8571	0.0	Yes	2.738	0.012	n/a	GoodResponse	0	n/a	n/a	3	6	Cue	AvoidedLoss	True
66.962	3.95	Lose2	0.8571	0.0	Yes	2.738	0.0	n/a	GoodResponse	0	n/a	n/a	3	6	Fixation	AvoidedLoss	True
70.911	0.34	Lose2	0.8571	0.001	Yes	2.738	-0.001	4.0	GoodResponse	0	0.202	70.113	3	6	Target	AvoidedLoss	True
71.113	0.3	Lose2	0.8571	0.001	Yes	2.738	-0.001	4.0	GoodResponse	0	0.202	n/a	3	6	ButtonPress	AvoidedLoss	True
71.26	0.36	Lose2	0.8571	n/a	Yes	2.738	n/a	n/a	GoodResponse	0	n/a	n/a	3	6	Blank	AvoidedLoss	True
71.61	1.45	Lose2	0.8571	n/a	Yes	2.738	n/a	5.0	GoodResponse	0	0.026	70.636	3	6	Feedback	AvoidedLoss	True
73.06	2.738	Lose2	0.8571	n/a	Yes	2.738	n/a	n/a	GoodResponse	0	0.0	n/a	3	6	ISIslide	AvoidedLoss	True
75.826	0.25	Lose2	0.875	0.0	Yes	4.024	0.026	n/a	GoodResponse	0	n/a	n/a	3	7	Cue	AvoidedLoss	True
76.075	4.05	Lose2	0.875	0.001	Yes	4.024	-0.001	n/a	GoodResponse	0	n/a	n/a	3	7	Fixation	AvoidedLoss	True
80.124	0.33	Lose2	0.875	0.002	Yes	4.024	-0.002	4.0	GoodResponse	0	0.265	79.389	3	7	Target	AvoidedLoss	True
80.389	0.3	Lose2	0.875	0.002	Yes	4.024	-0.002	4.0	GoodResponse	0	0.265	n/a	3	7	ButtonPress	AvoidedLoss	True
80.457	0.37	Lose2	0.875	n/a	Yes	4.024	n/a	n/a	GoodResponse	0	n/a	n/a	3	7	Blank	AvoidedLoss	True
80.824	1.45	Lose2	0.875	n/a	Yes	4.024	n/a	5.0	GoodResponse	0	0.031	79.855	3	7	Feedback	AvoidedLoss	True
82.273	4.024	Lose2	0.875	n/a	Yes	4.024	n/a	n/a	GoodResponse	0	0.0	n/a	3	7	ISIslide	AvoidedLoss	True
86.322	0.25	Lose2	0.8889	0.0	Yes	3.028	0.022	n/a	GoodResponse	0	n/a	n/a	3	8	Cue	AvoidedLoss	True
86.572	3.95	Lose2	0.8889	0.0	Yes	3.028	0.0	n/a	GoodResponse	0	n/a	n/a	3	8	Fixation	AvoidedLoss	True
90.52	0.32	Lose2	0.8889	0.002	Yes	3.028	-0.002	4.0	GoodResponse	0	0.24	89.76	3	8	Target	AvoidedLoss	True
90.76	0.3	Lose2	0.8889	0.002	Yes	3.028	-0.002	4.0	GoodResponse	0	0.24	n/a	3	8	ButtonPress	AvoidedLoss	True
90.854	0.38	Lose2	0.8889	n/a	Yes	3.028	n/a	n/a	GoodResponse	0	n/a	n/a	3	8	Blank	AvoidedLoss	True
91.22	1.45	Lose2	0.8889	n/a	Yes	3.028	n/a	5.0	GoodResponse	0	0.026	90.246	3	8	Feedback	AvoidedLoss	True
92.67	3.028	Lose2	0.8889	n/a	Yes	3.028	n/a	n/a	GoodResponse	0	0.0	n/a	3	8	ISIslide	AvoidedLoss	True
95.719	0.25	Lose2	0.8	0.0	No	3.131	0.019	n/a	NoResponse	-1	n/a	n/a	2	9	Cue	Loss	True
95.968	3.95	Lose2	0.8	0.001	No	3.131	-0.001	n/a	NoResponse	-1	n/a	n/a	2	9	Fixation	Loss	True
99.917	0.31	Lose2	0.8	0.002	No	3.131	-0.002	4.0	NoResponse	-1	0.323	99.24	2	9	Target	Loss	True
100.234	0.39	Lose2	0.8	n/a	No	3.131	n/a	n/a	NoResponse	-1	n/a	n/a	2	9	Blank	Loss	True
100.24	0.3	Lose2	0.8	0.002	No	3.131	-0.002	4.0	NoResponse	-1	0.323	n/a	2	9	ButtonPress	Loss	True
100.617	1.45	Lose2	0.8	n/a	No	3.131	n/a	5.0	NoResponse	-1	0.044	99.661	2	9	Feedback	Loss	True
102.066	3.131	Lose2	0.8	n/a	No	3.131	n/a	n/a	NoResponse	-1	0.0	n/a	2	9	ISIslide	Loss	True
105.215	0.25	Control	0.8181999999999999	0.0	Yes	3.285	0.015	n/a	GoodResponse	0	n/a	n/a	2	10	Cue	Neutral	True
105.465	4.0	Control	0.8181999999999999	0.0	Yes	3.285	0.0	n/a	GoodResponse	0	n/a	n/a	2	10	Fixation	Neutral	True
109.464	0.3	Control	0.8181999999999999	0.001	Yes	3.285	-0.001	4.0	GoodResponse	0	0.184	108.648	2	10	Target	Neutral	True
109.648	0.3	Control	0.8181999999999999	0.001	Yes	3.285	-0.001	4.0	GoodResponse	0	0.184	n/a	2	10	ButtonPress	Neutral	True
109.764	0.4	Control	0.8181999999999999	n/a	Yes	3.285	n/a	n/a	GoodResponse	0	n/a	n/a	2	10	Blank	Neutral	True
110.163	1.45	Control	0.8181999999999999	n/a	Yes	3.285	n/a	5.0	GoodResponse	0	0.009	109.172	2	10	Feedback	Neutral	True
111.613	3.285	Control	0.8181999999999999	n/a	Yes	3.285	n/a	n/a	GoodResponse	0	0.0	n/a	2	10	ISIslide	Neutral	True
114.928	0.25	Lose2	0.8332999999999999	0.001	Yes	2.722	0.028	n/a	GoodResponse	0	n/a	n/a	2	11	Cue	AvoidedLoss	True
115.178	4.05	Lose2	0.8332999999999999	0.0	Yes	2.722	0.0	n/a	GoodResponse	0	n/a	n/a	2	11	Fixation	AvoidedLoss	True
119.227	0.29	Lose2	0.8332999999999999	0.001	Yes	2.722	-0.001	4.0	GoodResponse	0	0.273	118.5	2	11	Target	AvoidedLoss	True
119.5	0.3	Lose2	0.8332999999999999	0.001	Yes	2.722	-0.001	4.0	GoodResponse	0	0.273	n/a	2	11	ButtonPress	AvoidedLoss	True
119.527	0.41	Lose2	0.8332999999999999	n/a	Yes	2.722	n/a	n/a	GoodResponse	0	n/a	n/a	2	11	Blank	AvoidedLoss	True
119.927	1.45	Lose2	0.8332999999999999	n/a	Yes	2.722	n/a	5.0	GoodResponse	0	0.003	118.93	2	11	Feedback	AvoidedLoss	True
121.376	2.722	Lose2	0.8332999999999999	n/a	Yes	2.722	n/a	n/a	GoodResponse	0	0.0	n/a	2	11	ISIslide	AvoidedLoss	True
124.125	0.25	Control	0.8462000000000001	0.0	Yes	2.975	0.025	n/a	GoodResponse	0	n/a	n/a	2	12	Cue	Neutral	True
124.375	3.9	Control	0.8462000000000001	0.0	Yes	2.975	0.0	n/a	GoodResponse	0	n/a	n/a	2	12	Fixation	Neutral	True
128.274	0.28	Control	0.8462000000000001	0.001	Yes	2.975	-0.001	4.0	GoodResponse	0	0.268	127.542	2	12	Target	Neutral	True
128.542	0.3	Control	0.8462000000000001	0.001	Yes	2.975	-0.001	4.0	GoodResponse	0	0.268	n/a	2	12	ButtonPress	Neutral	True
128.557	0.42	Control	0.8462000000000001	n/a	Yes	2.975	n/a	n/a	GoodResponse	0	n/a	n/a	2	12	Blank	Neutral	True
128.973	1.45	Control	0.8462000000000001	n/a	Yes	2.975	n/a	5.0	GoodResponse	0	0.028	128.001	2	12	Feedback	Neutral	True
130.423	2.975	Control	0.8462000000000001	n/a	Yes	2.975	n/a	n/a	GoodResponse	0	0.0	n/a	2	12	ISIslide	Neutral	True
133.422	0.25	Control	0.7857	0.0	No	2.778	0.022	n/a	NoResponse	0	n/a	n/a	2	13	Cue	Neutral	False
133.672	4.0	Control	0.7857	0.0	No	2.778	0.0	n/a	NoResponse	0	n/a	n/a	2	13	Fixation	Neutral	False
137.67	0.27	Control	0.7857	0.002	No	2.778	-0.002	n/a	NoResponse	0	n/a	n/a	2	13	Target	Neutral	False
137.954	0.43	Control	0.7857	n/a	No	2.778	n/a	n/a	NoResponse	0	n/a	n/a	2	13	Blank	Neutral	False
138.37	1.45	Control	0.7857	n/a	No	2.778	n/a	5.0	NoResponse	0	0.046	137.416	2	13	Feedback	Neutral	False
139.82	2.778	Control	0.7857	n/a	No	2.778	n/a	n/a	NoResponse	0	0.0	n/a	2	13	ISIslide	Neutral	False
142.619	0.25	Win2	0.8	0.0	Yes	2.681	0.019	n/a	GoodResponse	1	n/a	n/a	3	14	Cue	Win	True
142.869	4.1	Win2	0.8	0.0	Yes	2.681	0.0	n/a	GoodResponse	1	n/a	n/a	3	14	Fixation	Win	True
146.967	0.26	Win2	0.8	0.002	Yes	2.681	-0.002	4.0	GoodResponse	1	0.218	146.185	3	14	Target	Win	True
147.185	0.3	Win2	0.8	0.002	Yes	2.681	-0.002	4.0	GoodResponse	1	0.218	n/a	3	14	ButtonPress	Win	True
147.234	0.44	Win2	0.8	n/a	Yes	2.681	n/a	n/a	GoodResponse	1	n/a	n/a	3	14	Blank	Win	True
147.667	1.45	Win2	0.8	n/a	Yes	2.681	n/a	5.0	GoodResponse	1	0.017	146.684	3	14	Feedback	Win	True
149.116	2.681	Win2	0.8	n/a	Yes	2.681	n/a	n/a	GoodResponse	1	0.0	n/a	3	14	ISIslide	Win	True
151.815	0.25	Control	0.75	0.001	No	2.985	0.015	n/a	NoResponse	0	n/a	n/a	3	15	Cue	Neutral	True
152.065	4.0	Control	0.75	0.0	No	2.985	0.0	n/a	NoResponse	0	n/a	n/a	3	15	Fixation	Neutral	True
156.064	0.25	Control	0.75	0.001	No	2.985	-0.001	4.0	NoResponse	0	0.289	155.353	3	15	Target	Neutral	True
156.314	0.45	Control	0.75	n/a	No	2.985	n/a	n/a	NoResponse	0	n/a	n/a	3	15	Blank	Neutral	True
156.353	0.3	Control	0.75	0.001	No	2.985	-0.001	4.0	NoResponse	0	0.289	n/a	3	15	ButtonPress	Neutral	True
156.764	1.45	Control	0.75	n/a	No	2.985	n/a	5.0	NoResponse	0	0.042	155.806	3	15	Feedback	Neutral	True
158.213	2.985	Control	0.75	n/a	No	2.985	n/a	n/a	NoResponse	0	0.0	n/a	3	15	ISIslide	Neutral	True
161.212	0.25	Win2	0.7646999999999999	0.0	Yes	2.888	0.012	n/a	GoodResponse	1	n/a	n/a	4	16	Cue	Win	True
161.462	4.0	Win2	0.7646999999999999	0.0	Yes	2.888	0.0	n/a	GoodResponse	1	n/a	n/a	4	16	Fixation	Win	True
165.461	0.24	Win2	0.7646999999999999	0.001	Yes	2.888	-0.001	4.0	GoodResponse	1	0.227	164.688	4	16	Target	Win	True
165.688	0.3	Win2	0.7646999999999999	0.001	Yes	2.888	-0.001	4.0	GoodResponse	1	0.227	n/a	4	16	ButtonPress	Win	True
165.711	0.46	Win2	0.7646999999999999	n/a	Yes	2.888	n/a	n/a	GoodResponse	1	n/a	n/a	4	16	Blank	Win	True
166.16	1.45	Win2	0.7646999999999999	n/a	Yes	2.888	n/a	5.0	GoodResponse	1	0.012	165.172	4	16	Feedback	Win	True
167.61	2.888	Win2	0.7646999999999999	n/a	Yes	2.888	n/a	n/a	GoodResponse	1	0.0	n/a	4	16	ISIslide	Win	True
170.525	0.25	Lose2	0.7778	0.001	Yes	2.725	0.025	n/a	GoodResponse	0	n/a	n/a	4	17	Cue	AvoidedLoss	True
170.775	3.95	Lose2	0.7778	0.0	Yes	2.725	0.0	n/a	GoodResponse	0	n/a	n/a	4	17	Fixation	AvoidedLoss	True
174.724	0.23	Lose2	0.7778	0.001	Yes	2.725	-0.001	4.0	GoodResponse	0	0.185	173.909	4	17	Target	AvoidedLoss	True
174.909	0.3	Lose2	0.7778	0.001	Yes	2.725	-0.001	4.0	GoodResponse	0	0.185	n/a	4	17	ButtonPress	AvoidedLoss	True
174.957	0.47	Lose2	0.7778	n/a	Yes	2.725	n/a	n/a	GoodResponse	0	n/a	n/a	4	17	Blank	AvoidedLoss	True
175.424	1.45	Lose2	0.7778	n/a	Yes	2.725	n/a	5.0	GoodResponse	0	0.016	174.44	4	17	Feedback	AvoidedLoss	True
176.873	2.725	Lose2	0.7778	n/a	Yes	2.725	n/a	n/a	GoodResponse	0	0.0	n/a	4	17	ISIslide	AvoidedLoss	True
179.622	0.25	Lose2	0.7368000000000001	0.0	No	2.728	0.022	n/a	NoResponse	-1	n/a	n/a	3	18	Cue	Loss	True
179.872	4.05	Lose2	0.7368000000000001	0.0	No	2.728	0.0	n/a	NoResponse	-1	n/a	n/a	3	18	Fixation	Loss	True
183.921	0.22	Lose2	0.7368000000000001	0.001	No	2.728	-0.001	4.0	NoResponse	-1	0.268	183.189	3	18	Target	Loss	True
184.137	0.48	Lose2	0.7368000000000001	n/a	No	2.728	n/a	n/a	NoResponse	-1	n/a	n/a	3	18	Blank	Loss	True
184.189	0.3	Lose2	0.7368000000000001	0.001	No	2.728	-0.001	4.0	NoResponse	-1	0.268	n/a	3	18	ButtonPress	Loss	True
184.621	1.45	Lose2	0.7368000000000001	n/a	No	2.728	n/a	5.0	NoResponse	-1	0.039	183.66	3	18	Feedback	Loss	True
186.07	2.728	Lose2	0.7368000000000001	n/a	No	2.728	n/a	n/a	NoResponse	-1	0.0	n/a	3	18	ISIslide	Loss	True
188.819	0.25	Control	0.7	0.0	No	2.931	0.019	n/a	NoResponse	0	n/a	n/a	3	19	Cue	Neutral	True
189.069	3.95	Control	0.7	0.0	No	2.931	0.0	n/a	NoResponse	0	n/a	n/a	3	19	Fixation	Neutral	True
193.018	0.21	Control	0.7	0.001	No	2.931	-0.001	4.0	NoResponse	0	0.241	192.259	3	19	Target	Neutral	True
193.234	0.49	Control	0.7	n/a	No	2.931	n/a	n/a	NoResponse	0	n/a	n/a	3	19	Blank	Neutral	True
193.259	0.3	Control	0.7	0.001	No	2.931	-0.001	4.0	NoResponse	0	0.241	n/a	3	19	ButtonPress	Neutral	True
193.717	1.45	Control	0.7	n/a	No	2.931	n/a	5.0	NoResponse	0	0.015	192.732	3	19	Feedback	Neutral	True
195.167	2.931	Control	0.7	n/a	No	2.931	n/a	n/a	NoResponse	0	0.0	n/a	3	19	ISIslide	Neutral	True
198.116	0.25	Control	0.7143	0.0	Yes	2.634	0.016	n/a	GoodResponse	0	n/a	n/a	3	20	Cue	Neutral	True
198.366	4.05	Control	0.7143	0.0	Yes	2.634	0.0	n/a	GoodResponse	0	n/a	n/a	3	20	Fixation	Neutral	True
202.414	0.2	Control	0.7143	0.002	Yes	2.634	-0.002	4.0	GoodResponse	0	0.163	201.577	3	20	Target	Neutral	True
202.577	0.3	Control	0.7143	0.002	Yes	2.634	-0.002	4.0	GoodResponse	0	0.163	n/a	3	20	ButtonPress	Neutral	True
202.614	0.5	Control	0.7143	n/a	Yes	2.634	n/a	n/a	GoodResponse	0	n/a	n/a	3	20	Blank	Neutral	True
203.114	1.45	Control	0.7143	n/a	Yes	2.634	n/a	5.0	GoodResponse	0	0.033	202.147	3	20	Feedback	Neutral	True
204.564	2.634	Control	0.7143	n/a	Yes	2.634	n/a	n/a	GoodResponse	0	0.0	n/a	3	20	ISIslide	Neutral	True
207.213	0.25	Control	0.6818000000000001	0.0	No	2.787	0.013	n/a	NoResponse	0	n/a	n/a	3	21	Cue	Neutral	True
207.462	4.1	Control	0.6818000000000001	0.001	No	2.787	-0.001	n/a	NoResponse	0	n/a	n/a	3	21	Fixation	Neutral	True
211.561	0.19	Control	0.6818000000000001	0.002	No	2.787	-0.002	4.0	NoResponse	0	0.239	210.8	3	21	Target	Neutral	True
211.761	0.51	Control	0.6818000000000001	n/a	No	2.787	n/a	n/a	NoResponse	0	n/a	n/a	3	21	Blank	Neutral	True
211.8	0.3	Control	0.6818000000000001	0.002	No	2.787	-0.002	4.0	NoResponse	0	0.239	n/a	3	21	ButtonPress	Neutral	True
212.261	1.45	Control	0.6818000000000001	n/a	No	2.787	n/a	5.0	NoResponse	0	0.008	211.269	3	21	Feedback	Neutral	True
213.71	2.787	Control	0.6818000000000001	n/a	No	2.787	n/a	n/a	NoResponse	0	0.0	n/a	3	21	ISIslide	Neutral	True
216.526	0.25	Control	0.6957	0.0	Yes	2.774	0.026	n/a	GoodResponse	0	n/a	n/a	3	22	Cue	Neutral	True
216.776	4.0	Control	0.6957	0.0	Yes	2.774	0.0	n/a	GoodResponse	0	n/a	n/a	3	22	Fixation	Neutral	True
220.774	0.18	Control	0.6957	0.002	Yes	2.774	-0.002	4.0	GoodResponse	0	0.128	219.902	3	22	Target	Neutral	True
220.902	0.3	Control	0.6957	0.002	Yes	2.774	-0.002	4.0	GoodResponse	0	0.128	n/a	3	22	ButtonPress	Neutral	True
220.958	0.52	Control	0.6957	n/a	Yes	2.774	n/a	n/a	GoodResponse	0	n/a	n/a	3	22	Blank	Neutral	True
221.474	1.45	Control	0.6957	n/a	Yes	2.774	n/a	5.0	GoodResponse	0	0.014	220.488	3	22	Feedback	Neutral	True
222.924	2.774	Control	0.6957	n/a	Yes	2.774	n/a	n/a	GoodResponse	0	0.0	n/a	3	22	ISIslide	Neutral	True
225.723	0.25	Control	0.6667000000000001	0.0	No	2.777	0.023	n/a	NoResponse	0	n/a	n/a	3	23	Cue	Neutral	True
225.973	3.9	Control	0.6667000000000001	0.0	No	2.777	0.0	n/a	NoResponse	0	n/a	n/a	3	23	Fixation	Neutral	True
229.871	0.17	Control	0.6667000000000001	0.002	No	2.777	-0.002	4.0	NoResponse	0	0.648	229.519	3	23	Target	Neutral	True
230.055	0.53	Control	0.6667000000000001	n/a	No	2.777	n/a	n/a	NoResponse	0	n/a	n/a	3	23	Blank	Neutral	True
230.519	0.3	Control	0.6667000000000001	0.002	No	2.777	-0.002	4.0	NoResponse	0	0.648	n/a	3	23	ButtonPress	Neutral	True
230.571	1.45	Control	0.6667000000000001	n/a	No	2.777	n/a	5.0	NoResponse	0	0.039	229.61	3	23	Feedback	Neutral	True
232.021	2.777	Control	0.6667000000000001	n/a	No	2.777	n/a	n/a	NoResponse	0	0.0	n/a	3	23	ISIslide	Neutral	True
234.82	0.25	Win2	0.64	0.0	No	3.13	0.02	n/a	PrematurePress	0	n/a	n/a	3	24	Cue	MissedWin	True
235.069	3.95	Win2	0.64	0.001	No	3.13	-0.001	n/a	PrematurePress	0	n/a	n/a	3	24	Fixation	MissedWin	True
239.018	0.16	Win2	0.64	0.002	No	3.13	-0.002	4.0	PrematurePress	0	0.031	238.049	3	24	Target	MissedWin	True
239.049	0.3	Win2	0.64	0.002	No	3.13	-0.002	4.0	PrematurePress	0	0.031	n/a	3	24	ButtonPress	MissedWin	True
239.185	0.54	Win2	0.64	n/a	No	3.13	n/a	n/a	PrematurePress	0	n/a	n/a	3	24	Blank	MissedWin	True
239.718	1.45	Win2	0.64	n/a	No	3.13	n/a	5.0	PrematurePress	0	0.014	238.732	3	24	Feedback	MissedWin	True
241.167	3.13	Win2	0.64	n/a	No	3.13	n/a	n/a	PrematurePress	0	0.0	n/a	3	24	ISIslide	MissedWin	True
244.316	0.25	Win2	0.6154	0.0	No	3.084	0.016	n/a	NoResponse	0	n/a	n/a	3	25	Cue	MissedWin	True
244.566	4.0	Win2	0.6154	0.0	No	3.084	0.0	n/a	NoResponse	0	n/a	n/a	3	25	Fixation	MissedWin	True
248.565	0.17	Win2	0.6154	0.001	No	3.084	-0.001	4.0	NoResponse	0	0.204	247.769	3	25	Target	MissedWin	True
248.731	0.53	Win2	0.6154	n/a	No	3.084	n/a	n/a	NoResponse	0	n/a	n/a	3	25	Blank	MissedWin	True
248.769	0.3	Win2	0.6154	0.001	No	3.084	-0.001	4.0	NoResponse	0	0.204	n/a	3	25	ButtonPress	MissedWin	True
249.264	1.45	Win2	0.6154	n/a	No	3.084	n/a	5.0	NoResponse	0	0.029	248.293	3	25	Feedback	MissedWin	True
250.714	3.084	Win2	0.6154	n/a	No	3.084	n/a	n/a	NoResponse	0	0.0	n/a	3	25	ISIslide	MissedWin	True
253.829	0.25	Win2	0.5926	0.001	No	2.921	0.029	n/a	LatePress	0	n/a	n/a	3	26	Cue	MissedWin	False
254.079	3.95	Win2	0.5926	0.0	No	2.921	0.0	4.0	LatePress	0	3.494	256.573	3	26	Fixation	MissedWin	False
257.573	0.3	Win2	0.5926	0.0	No	2.921	0.0	4.0	LatePress	0	3.494	n/a	3	26	ButtonPress	MissedWin	False
258.028	0.18	Win2	0.5926	0.001	No	2.921	-0.001	4.0	LatePress	0	0.182	257.21	3	26	Target	MissedWin	False
258.21	0.3	Win2	0.5926	0.001	No	2.921	-0.001	4.0	LatePress	0	0.182	n/a	3	26	ButtonPress	MissedWin	False
258.211	0.52	Win2	0.5926	n/a	No	2.921	n/a	n/a	LatePress	0	n/a	n/a	3	26	Blank	MissedWin	False
258.728	1.45	Win2	0.5926	n/a	No	2.921	n/a	5.0	LatePress	0	0.028	257.756	3	26	Feedback	MissedWin	False
260.177	2.921	Win2	0.5926	n/a	No	2.921	n/a	n/a	LatePress	0	0.0	n/a	3	26	ISIslide	MissedWin	False
263.126	0.25	Lose2	0.5714	0.0	No	2.824	0.026	n/a	NoResponse	-1	n/a	n/a	2	27	Cue	Loss	True
263.376	4.05	Lose2	0.5714	0.0	No	2.824	0.0	n/a	NoResponse	-1	n/a	n/a	2	27	Fixation	Loss	True
267.425	0.19	Lose2	0.5714	0.001	No	2.824	-0.001	4.0	NoResponse	-1	0.219	266.644	2	27	Target	Loss	True
267.625	0.51	Lose2	0.5714	n/a	No	2.824	n/a	n/a	NoResponse	-1	n/a	n/a	2	27	Blank	Loss	True
267.644	0.3	Lose2	0.5714	0.001	No	2.824	-0.001	4.0	NoResponse	-1	0.219	n/a	2	27	ButtonPress	Loss	True
268.124	1.45	Lose2	0.5714	n/a	No	2.824	n/a	5.0	NoResponse	-1	0.047	267.171	2	27	Feedback	Loss	True
269.574	2.824	Lose2	0.5714	n/a	No	2.824	n/a	n/a	NoResponse	-1	0.0	n/a	2	27	ISIslide	Loss	True
272.423	0.25	Control	0.5861999999999999	0.0	Yes	2.827	0.023	n/a	GoodResponse	0	n/a	n/a	2	28	Cue	Neutral	True
272.673	4.05	Control	0.5861999999999999	0.0	Yes	2.827	0.0	n/a	GoodResponse	0	n/a	n/a	2	28	Fixation	Neutral	True
276.721	0.2	Control	0.5861999999999999	0.002	Yes	2.827	-0.002	4.0	GoodResponse	0	0.198	275.919	2	28	Target	Neutral	True
276.919	0.3	Control	0.5861999999999999	0.002	Yes	2.827	-0.002	4.0	GoodResponse	0	0.198	n/a	2	28	ButtonPress	Neutral	True
276.921	0.5	Control	0.5861999999999999	n/a	Yes	2.827	n/a	n/a	GoodResponse	0	n/a	n/a	2	28	Blank	Neutral	True
277.421	1.45	Control	0.5861999999999999	n/a	Yes	2.827	n/a	5.0	GoodResponse	0	0.017	276.438	2	28	Feedback	Neutral	True
278.871	2.827	Control	0.5861999999999999	n/a	Yes	2.827	n/a	n/a	GoodResponse	0	0.0	n/a	2	28	ISIslide	Neutral	True
281.72	0.25	Lose2	0.5667	0.0	No	2.83	0.02	n/a	NoResponse	-1	n/a	n/a	1	29	Cue	Loss	True
281.97	3.95	Lose2	0.5667	0.0	No	2.83	0.0	n/a	NoResponse	-1	n/a	n/a	1	29	Fixation	Loss	True
285.918	0.21	Lose2	0.5667	0.002	No	2.83	-0.002	4.0	NoResponse	-1	0.233	285.151	1	29	Target	Loss	True
286.135	0.49	Lose2	0.5667	n/a	No	2.83	n/a	n/a	NoResponse	-1	n/a	n/a	1	29	Blank	Loss	True
286.151	0.3	Lose2	0.5667	0.002	No	2.83	-0.002	4.0	NoResponse	-1	0.233	n/a	1	29	ButtonPress	Loss	True
286.618	1.45	Lose2	0.5667	n/a	No	2.83	n/a	5.0	NoResponse	-1	0.04	285.658	1	29	Feedback	Loss	True
288.067	2.83	Lose2	0.5667	n/a	No	2.83	n/a	n/a	NoResponse	-1	0.0	n/a	1	29	ISIslide	Loss	True
290.916	0.25	Win2	0.5806	0.001	Yes	2.784	0.016	n/a	GoodResponse	1	n/a	n/a	2	30	Cue	Win	True
291.166	3.9	Win2	0.5806	0.0	Yes	2.784	0.0	n/a	GoodResponse	1	n/a	n/a	2	30	Fixation	Win	True
295.065	0.22	Win2	0.5806	0.001	Yes	2.784	-0.001	4.0	GoodResponse	1	0.208	294.273	2	30	Target	Win	True
295.273	0.3	Win2	0.5806	0.001	Yes	2.784	-0.001	4.0	GoodResponse	1	0.208	n/a	2	30	ButtonPress	Win	True
295.282	0.48	Win2	0.5806	n/a	Yes	2.784	n/a	n/a	GoodResponse	1	n/a	n/a	2	30	Blank	Win	True
295.765	1.45	Win2	0.5806	n/a	Yes	2.784	n/a	5.0	GoodResponse	1	0.015	294.78	2	30	Feedback	Win	True
297.214	2.784	Win2	0.5806	n/a	Yes	2.784	n/a	n/a	GoodResponse	1	0.0	n/a	2	30	ISIslide	Win	True
300.013	0.25	Lose2	0.5625	0.0	No	2.837	0.013	n/a	NoResponse	-1	n/a	n/a	1	31	Cue	Loss	True
300.263	4.05	Lose2	0.5625	0.0	No	2.837	0.0	n/a	NoResponse	-1	n/a	n/a	1	31	Fixation	Loss	True
304.312	0.23	Lose2	0.5625	0.001	No	2.837	-0.001	4.0	NoResponse	-1	0.234	303.546	1	31	Target	Loss	True
304.545	0.47	Lose2	0.5625	n/a	No	2.837	n/a	n/a	NoResponse	-1	n/a	n/a	1	31	Blank	Loss	True
304.546	0.3	Lose2	0.5625	0.001	No	2.837	-0.001	4.0	NoResponse	-1	0.234	n/a	1	31	ButtonPress	Loss	True
305.011	1.45	Lose2	0.5625	n/a	No	2.837	n/a	5.0	NoResponse	-1	0.037	304.048	1	31	Feedback	Loss	True
306.461	2.837	Lose2	0.5625	n/a	No	2.837	n/a	n/a	NoResponse	-1	0.0	n/a	1	31	ISIslide	Loss	True
309.327	0.25	Lose2	0.5758	0.0	Yes	2.623	0.027	n/a	GoodResponse	0	n/a	n/a	1	32	Cue	AvoidedLoss	True
309.577	4.15	Lose2	0.5758	0.0	Yes	2.623	0.0	n/a	GoodResponse	0	n/a	n/a	1	32	Fixation	AvoidedLoss	True
313.725	0.24	Lose2	0.5758	0.002	Yes	2.623	-0.002	4.0	GoodResponse	0	0.195	312.92	1	32	Target	AvoidedLoss	True
313.92	0.3	Lose2	0.5758	0.002	Yes	2.623	-0.002	4.0	GoodResponse	0	0.195	n/a	1	32	ButtonPress	AvoidedLoss	True
313.975	0.46	Lose2	0.5758	n/a	Yes	2.623	n/a	n/a	GoodResponse	0	n/a	n/a	1	32	Blank	AvoidedLoss	True
314.425	1.45	Lose2	0.5758	n/a	Yes	2.623	n/a	5.0	GoodResponse	0	0.038	313.463	1	32	Feedback	AvoidedLoss	True
315.874	2.623	Lose2	0.5758	n/a	Yes	2.623	n/a	n/a	GoodResponse	0	0.0	n/a	1	32	ISIslide	AvoidedLoss	True
318.523	0.25	Win2	0.5588000000000001	0.0	No	2.677	0.023	n/a	NoResponse	0	n/a	n/a	1	33	Cue	MissedWin	True
318.773	4.0	Win2	0.5588000000000001	0.0	No	2.677	0.0	n/a	NoResponse	0	n/a	n/a	1	33	Fixation	MissedWin	True
322.772	0.25	Win2	0.5588000000000001	0.001	No	2.677	-0.001	4.0	NoResponse	0	0.5	322.272	1	33	Target	MissedWin	True
323.022	0.45	Win2	0.5588000000000001	n/a	No	2.677	n/a	n/a	NoResponse	0	n/a	n/a	1	33	Blank	MissedWin	True
323.272	0.3	Win2	0.5588000000000001	0.001	No	2.677	-0.001	4.0	NoResponse	0	0.5	n/a	1	33	ButtonPress	MissedWin	True
323.472	1.45	Win2	0.5588000000000001	n/a	No	2.677	n/a	5.0	NoResponse	0	0.015	322.487	1	33	Feedback	MissedWin	True
324.921	2.677	Win2	0.5588000000000001	n/a	No	2.677	n/a	n/a	NoResponse	0	0.0	n/a	1	33	ISIslide	MissedWin	True
327.62	0.25	Lose2	0.5714	0.0	Yes	2.63	0.02	n/a	GoodResponse	0	n/a	n/a	1	34	Cue	AvoidedLoss	True
327.87	4.05	Lose2	0.5714	0.0	Yes	2.63	0.0	n/a	GoodResponse	0	n/a	n/a	1	34	Fixation	AvoidedLoss	True
331.919	0.26	Lose2	0.5714	0.001	Yes	2.63	-0.001	4.0	GoodResponse	0	0.157	331.076	1	34	Target	AvoidedLoss	True
332.076	0.3	Lose2	0.5714	0.001	Yes	2.63	-0.001	4.0	GoodResponse	0	0.157	n/a	1	34	ButtonPress	AvoidedLoss	True
332.185	0.44	Lose2	0.5714	n/a	Yes	2.63	n/a	n/a	GoodResponse	0	n/a	n/a	1	34	Blank	AvoidedLoss	True
332.618	1.45	Lose2	0.5714	n/a	Yes	2.63	n/a	5.0	GoodResponse	0	0.04	331.658	1	34	Feedback	AvoidedLoss	True
334.068	2.63	Lose2	0.5714	n/a	Yes	2.63	n/a	n/a	GoodResponse	0	0.0	n/a	1	34	ISIslide	AvoidedLoss	True
336.717	0.25	Lose2	0.5832999999999999	0.0	Yes	2.683	0.017	n/a	GoodResponse	0	n/a	n/a	1	35	Cue	AvoidedLoss	True
336.967	4.0	Lose2	0.5832999999999999	0.0	Yes	2.683	0.0	n/a	GoodResponse	0	n/a	n/a	1	35	Fixation	AvoidedLoss	True
340.965	0.27	Lose2	0.5832999999999999	0.002	Yes	2.683	-0.002	4.0	GoodResponse	0	0.197	340.162	1	35	Target	AvoidedLoss	True
341.162	0.3	Lose2	0.5832999999999999	0.002	Yes	2.683	-0.002	4.0	GoodResponse	0	0.197	n/a	1	35	ButtonPress	AvoidedLoss	True
341.249	0.43	Lose2	0.5832999999999999	n/a	Yes	2.683	n/a	n/a	GoodResponse	0	n/a	n/a	1	35	Blank	AvoidedLoss	True
341.665	1.45	Lose2	0.5832999999999999	n/a	Yes	2.683	n/a	5.0	GoodResponse	0	0.017	340.682	1	35	Feedback	AvoidedLoss	True
343.115	2.683	Lose2	0.5832999999999999	n/a	Yes	2.683	n/a	n/a	GoodResponse	0	0.0	n/a	1	35	ISIslide	AvoidedLoss	True
345.814	0.25	Control	0.5946	0.0	Yes	2.686	0.014	n/a	GoodResponse	0	n/a	n/a	1	36	Cue	Neutral	True
346.064	4.0	Control	0.5946	0.0	Yes	2.686	0.0	n/a	GoodResponse	0	n/a	n/a	1	36	Fixation	Neutral	True
350.062	0.28	Control	0.5946	0.002	Yes	2.686	-0.002	4.0	GoodResponse	0	0.214	349.276	1	36	Target	Neutral	True
350.276	0.3	Control	0.5946	0.002	Yes	2.686	-0.002	4.0	GoodResponse	0	0.214	n/a	1	36	ButtonPress	Neutral	True
350.345	0.42	Control	0.5946	n/a	Yes	2.686	n/a	n/a	GoodResponse	0	n/a	n/a	1	36	Blank	Neutral	True
350.762	1.45	Control	0.5946	n/a	Yes	2.686	n/a	5.0	GoodResponse	0	0.042	349.804	1	36	Feedback	Neutral	True
352.211	2.686	Control	0.5946	n/a	Yes	2.686	n/a	n/a	GoodResponse	0	0.0	n/a	1	36	ISIslide	Neutral	True
354.927	0.25	Win2	0.6053000000000001	0.0	Yes	2.873	0.027	n/a	GoodResponse	1	n/a	n/a	2	37	Cue	Win	True
355.177	4.0	Win2	0.6053000000000001	0.0	Yes	2.873	0.0	n/a	GoodResponse	1	n/a	n/a	2	37	Fixation	Win	True
359.176	0.29	Win2	0.6053000000000001	0.001	Yes	2.873	-0.001	4.0	GoodResponse	1	0.171	358.347	2	37	Target	Win	True
359.347	0.3	Win2	0.6053000000000001	0.001	Yes	2.873	-0.001	4.0	GoodResponse	1	0.171	n/a	2	37	ButtonPress	Win	True
359.476	0.41	Win2	0.6053000000000001	n/a	Yes	2.873	n/a	n/a	GoodResponse	1	n/a	n/a	2	37	Blank	Win	True
359.875	1.45	Win2	0.6053000000000001	n/a	Yes	2.873	n/a	5.0	GoodResponse	1	0.002	358.877	2	37	Feedback	Win	True
361.325	2.873	Win2	0.6053000000000001	n/a	Yes	2.873	n/a	n/a	GoodResponse	1	0.0	n/a	2	37	ISIslide	Win	True
364.224	0.25	Lose2	0.6154	0.0	Yes	2.826	0.024	n/a	GoodResponse	0	n/a	n/a	2	38	Cue	AvoidedLoss	True
364.474	3.95	Lose2	0.6154	0.0	Yes	2.826	0.0	n/a	GoodResponse	0	n/a	n/a	2	38	Fixation	AvoidedLoss	True
368.422	0.3	Lose2	0.6154	0.002	Yes	2.826	-0.002	4.0	GoodResponse	0	0.204	367.626	2	38	Target	AvoidedLoss	True
368.626	0.3	Lose2	0.6154	0.002	Yes	2.826	-0.002	4.0	GoodResponse	0	0.204	n/a	2	38	ButtonPress	AvoidedLoss	True
368.722	0.4	Lose2	0.6154	n/a	Yes	2.826	n/a	n/a	GoodResponse	0	n/a	n/a	2	38	Blank	AvoidedLoss	True
369.122	1.45	Lose2	0.6154	n/a	Yes	2.826	n/a	5.0	GoodResponse	0	0.023	368.145	2	38	Feedback	AvoidedLoss	True
370.572	2.826	Lose2	0.6154	n/a	Yes	2.826	n/a	n/a	GoodResponse	0	0.0	n/a	2	38	ISIslide	AvoidedLoss	True
373.421	0.25	Win2	0.625	0.0	Yes	2.979	0.021	n/a	GoodResponse	1	n/a	n/a	3	39	Cue	Win	True
373.671	4.1	Win2	0.625	0.0	Yes	2.979	0.0	n/a	GoodResponse	1	n/a	n/a	3	39	Fixation	Win	True
377.769	0.31	Win2	0.625	0.002	Yes	2.979	-0.002	4.0	GoodResponse	1	0.196	376.965	3	39	Target	Win	True
377.965	0.3	Win2	0.625	0.002	Yes	2.979	-0.002	4.0	GoodResponse	1	0.196	n/a	3	39	ButtonPress	Win	True
378.086	0.39	Win2	0.625	n/a	Yes	2.979	n/a	n/a	GoodResponse	1	n/a	n/a	3	39	Blank	Win	True
378.469	1.45	Win2	0.625	n/a	Yes	2.979	n/a	5.0	GoodResponse	1	0.042	377.511	3	39	Feedback	Win	True
379.918	2.979	Win2	0.625	n/a	Yes	2.979	n/a	n/a	GoodResponse	1	0.0	n/a	3	39	ISIslide	Win	True
382.917	0.25	Win2	0.6341	0.0	Yes	2.733	0.017	n/a	GoodResponse	1	n/a	n/a	4	40	Cue	Win	True
383.167	3.95	Win2	0.6341	0.0	Yes	2.733	0.0	n/a	GoodResponse	1	n/a	n/a	4	40	Fixation	Win	True
387.116	0.32	Win2	0.6341	0.001	Yes	2.733	-0.001	4.0	GoodResponse	1	0.203	386.319	4	40	Target	Win	True
387.319	0.3	Win2	0.6341	0.001	Yes	2.733	-0.001	4.0	GoodResponse	1	0.203	n/a	4	40	ButtonPress	Win	True
387.432	0.38	Win2	0.6341	n/a	Yes	2.733	n/a	n/a	GoodResponse	1	n/a	n/a	4	40	Blank	Win	True
387.816	1.45	Win2	0.6341	n/a	Yes	2.733	n/a	5.0	GoodResponse	1	0.012	386.828	4	40	Feedback	Win	True
389.265	2.733	Win2	0.6341	n/a	Yes	2.733	n/a	n/a	GoodResponse	1	0.0	n/a	4	40	ISIslide	Win	True
392.014	0.25	Win2	0.6429	0.0	Yes	2.786	0.014	n/a	GoodResponse	1	n/a	n/a	5	41	Cue	Win	True
392.264	3.9	Win2	0.6429	0.0	Yes	2.786	0.0	n/a	GoodResponse	1	n/a	n/a	5	41	Fixation	Win	True
396.163	0.33	Win2	0.6429	0.001	Yes	2.786	-0.001	4.0	GoodResponse	1	0.198	395.361	5	41	Target	Win	True
396.361	0.3	Win2	0.6429	0.001	Yes	2.786	-0.001	4.0	GoodResponse	1	0.198	n/a	5	41	ButtonPress	Win	True
396.496	0.37	Win2	0.6429	n/a	Yes	2.786	n/a	n/a	GoodResponse	1	n/a	n/a	5	41	Blank	Win	True
396.862	1.45	Win2	0.6429	n/a	Yes	2.786	n/a	5.0	GoodResponse	1	0.039	395.901	5	41	Feedback	Win	True
398.312	2.786	Win2	0.6429	n/a	Yes	2.786	n/a	n/a	GoodResponse	1	0.0	n/a	5	41	ISIslide	Win	True
401.128	0.25	Control	0.6512	0.0	Yes	2.922	0.028	n/a	GoodResponse	0	n/a	n/a	5	42	Cue	Neutral	True
401.378	3.85	Control	0.6512	0.0	Yes	2.922	0.0	n/a	GoodResponse	0	n/a	n/a	5	42	Fixation	Neutral	True
405.226	0.34	Control	0.6512	0.002	Yes	2.922	-0.002	4.0	GoodResponse	0	0.227	404.453	5	42	Target	Neutral	True
405.453	0.3	Control	0.6512	0.002	Yes	2.922	-0.002	4.0	GoodResponse	0	0.227	n/a	5	42	ButtonPress	Neutral	True
405.576	0.36	Control	0.6512	n/a	Yes	2.922	n/a	n/a	GoodResponse	0	n/a	n/a	5	42	Blank	Neutral	True
405.926	1.45	Control	0.6512	n/a	Yes	2.922	n/a	5.0	GoodResponse	0	0.048	404.974	5	42	Feedback	Neutral	True
407.375	2.922	Control	0.6512	n/a	Yes	2.922	n/a	n/a	GoodResponse	0	0.0	n/a	5	42	ISIslide	Neutral	True
410.324	0.25	Win2	0.6591	0.0	Yes	3.176	0.024	n/a	GoodResponse	1	n/a	n/a	6	43	Cue	Win	True
410.574	4.0	Win2	0.6591	0.0	Yes	3.176	0.0	n/a	GoodResponse	1	n/a	n/a	6	43	Fixation	Win	True
414.573	0.35	Win2	0.6591	0.001	Yes	3.176	-0.001	4.0	GoodResponse	1	0.187	413.76	6	43	Target	Win	True
414.76	0.3	Win2	0.6591	0.001	Yes	3.176	-0.001	4.0	GoodResponse	1	0.187	n/a	6	43	ButtonPress	Win	True
414.923	0.35	Win2	0.6591	n/a	Yes	3.176	n/a	n/a	GoodResponse	1	n/a	n/a	6	43	Blank	Win	True
415.273	1.45	Win2	0.6591	n/a	Yes	3.176	n/a	5.0	GoodResponse	1	0.018	414.291	6	43	Feedback	Win	True
416.722	3.176	Win2	0.6591	n/a	Yes	3.176	n/a	n/a	GoodResponse	1	0.0	n/a	6	43	ISIslide	Win	True
419.921	0.25	Win2	0.6667000000000001	0.0	Yes	2.979	0.021	n/a	GoodResponse	1	n/a	n/a	7	44	Cue	Win	True
420.171	4.0	Win2	0.6667000000000001	0.0	Yes	2.979	0.0	n/a	GoodResponse	1	n/a	n/a	7	44	Fixation	Win	True
424.169	0.35	Win2	0.6667000000000001	0.002	Yes	2.979	-0.002	4.0	GoodResponse	1	0.227	423.396	7	44	Target	Win	True
424.396	0.3	Win2	0.6667000000000001	0.002	Yes	2.979	-0.002	4.0	GoodResponse	1	0.227	n/a	7	44	ButtonPress	Win	True
424.519	0.35	Win2	0.6667000000000001	n/a	Yes	2.979	n/a	n/a	GoodResponse	1	n/a	n/a	7	44	Blank	Win	True
424.869	1.45	Win2	0.6667000000000001	n/a	Yes	2.979	n/a	5.0	GoodResponse	1	0.032	423.901	7	44	Feedback	Win	True
426.319	2.979	Win2	0.6667000000000001	n/a	Yes	2.979	n/a	n/a	GoodResponse	1	0.0	n/a	7	44	ISIslide	Win	True
429.318	0.25	Control	0.6739	0.0	Yes	2.882	0.018	n/a	GoodResponse	0	n/a	n/a	7	45	Cue	Neutral	True
429.568	4.1	Control	0.6739	0.0	Yes	2.882	0.0	n/a	GoodResponse	0	n/a	n/a	7	45	Fixation	Neutral	True
433.666	0.34	Control	0.6739	0.002	Yes	2.882	-0.002	4.0	GoodResponse	0	0.2	432.866	7	45	Target	Neutral	True
433.866	0.3	Control	0.6739	0.002	Yes	2.882	-0.002	4.0	GoodResponse	0	0.2	n/a	7	45	ButtonPress	Neutral	True
434.016	0.36	Control	0.6739	n/a	Yes	2.882	n/a	n/a	GoodResponse	0	n/a	n/a	7	45	Blank	Neutral	True
434.366	1.45	Control	0.6739	n/a	Yes	2.882	n/a	5.0	GoodResponse	0	0.047	433.413	7	45	Feedback	Neutral	True
435.815	2.882	Control	0.6739	n/a	Yes	2.882	n/a	n/a	GoodResponse	0	0.0	n/a	7	45	ISIslide	Neutral	True
438.714	0.25	Lose2	0.6809000000000001	0.0	Yes	3.386	0.014	n/a	GoodResponse	0	n/a	n/a	7	46	Cue	AvoidedLoss	True
438.964	4.0	Lose2	0.6809000000000001	0.0	Yes	3.386	0.0	n/a	GoodResponse	0	n/a	n/a	7	46	Fixation	AvoidedLoss	True
442.963	0.33	Lose2	0.6809000000000001	0.001	Yes	3.386	-0.001	4.0	GoodResponse	0	0.223	442.186	7	46	Target	AvoidedLoss	True
443.186	0.3	Lose2	0.6809000000000001	0.001	Yes	3.386	-0.001	4.0	GoodResponse	0	0.223	n/a	7	46	ButtonPress	AvoidedLoss	True
443.296	0.37	Lose2	0.6809000000000001	n/a	Yes	3.386	n/a	n/a	GoodResponse	0	n/a	n/a	7	46	Blank	AvoidedLoss	True
443.663	1.45	Lose2	0.6809000000000001	n/a	Yes	3.386	n/a	5.0	GoodResponse	0	0.018	442.681	7	46	Feedback	AvoidedLoss	True
445.112	3.386	Lose2	0.6809000000000001	n/a	Yes	3.386	n/a	n/a	GoodResponse	0	0.0	n/a	7	46	ISIslide	AvoidedLoss	True
448.528	0.25	Lose2	0.6875	0.0	Yes	2.672	0.028	n/a	GoodResponse	0	n/a	n/a	7	47	Cue	AvoidedLoss	True
448.777	4.0	Lose2	0.6875	0.001	Yes	2.672	-0.001	n/a	GoodResponse	0	n/a	n/a	7	47	Fixation	AvoidedLoss	True
452.776	0.32	Lose2	0.6875	0.002	Yes	2.672	-0.002	4.0	GoodResponse	0	0.276	452.052	7	47	Target	AvoidedLoss	True
453.052	0.3	Lose2	0.6875	0.002	Yes	2.672	-0.002	4.0	GoodResponse	0	0.276	n/a	7	47	ButtonPress	AvoidedLoss	True
453.109	0.38	Lose2	0.6875	n/a	Yes	2.672	n/a	n/a	GoodResponse	0	n/a	n/a	7	47	Blank	AvoidedLoss	True
453.476	1.45	Lose2	0.6875	n/a	Yes	2.672	n/a	5.0	GoodResponse	0	0.009	452.485	7	47	Feedback	AvoidedLoss	True
454.925	2.672	Lose2	0.6875	n/a	Yes	2.672	n/a	n/a	GoodResponse	0	0.0	n/a	7	47	ISIslide	AvoidedLoss	True
457.624	0.25	Lose2	0.6735	0.0	No	3.026	0.024	n/a	NoResponse	-1	n/a	n/a	6	48	Cue	Loss	True
457.874	3.95	Lose2	0.6735	0.0	No	3.026	0.0	n/a	NoResponse	-1	n/a	n/a	6	48	Fixation	Loss	True
461.823	0.31	Lose2	0.6735	0.001	No	3.026	-0.001	4.0	NoResponse	-1	0.347	461.17	6	48	Target	Loss	True
462.139	0.39	Lose2	0.6735	n/a	No	3.026	n/a	n/a	NoResponse	-1	n/a	n/a	6	48	Blank	Loss	True
462.17	0.3	Lose2	0.6735	0.001	No	3.026	-0.001	4.0	NoResponse	-1	0.347	n/a	6	48	ButtonPress	Loss	True
462.523	1.45	Lose2	0.6735	n/a	No	3.026	n/a	5.0	NoResponse	-1	0.036	461.559	6	48	Feedback	Loss	True
463.972	3.026	Lose2	0.6735	n/a	No	3.026	n/a	n/a	NoResponse	-1	0.0	n/a	6	48	ISIslide	Loss	True
467.021	0.25	Control	0.68	0.0	Yes	2.879	0.021	n/a	GoodResponse	0	n/a	n/a	6	49	Cue	Neutral	False
467.271	4.0	Control	0.68	0.0	Yes	2.879	0.0	4.0	GoodResponse	0	3.838	470.109	6	49	Fixation	Neutral	False
471.109	0.3	Control	0.68	0.0	Yes	2.879	0.0	4.0	GoodResponse	0	3.838	n/a	6	49	ButtonPress	Neutral	False
471.27	0.3	Control	0.68	0.001	Yes	2.879	-0.001	4.0	GoodResponse	0	0.218	470.488	6	49	Target	Neutral	False
471.488	0.3	Control	0.68	0.001	Yes	2.879	-0.001	4.0	GoodResponse	0	0.218	n/a	6	49	ButtonPress	Neutral	False
471.569	0.4	Control	0.68	n/a	Yes	2.879	n/a	n/a	GoodResponse	0	n/a	n/a	6	49	Blank	Neutral	False
471.969	1.45	Control	0.68	n/a	Yes	2.879	n/a	5.0	GoodResponse	0	0.004	470.973	6	49	Feedback	Neutral	False
473.419	2.879	Control	0.68	n/a	Yes	2.879	n/a	n/a	GoodResponse	0	0.0	n/a	6	49	ISIslide	Neutral	False
476.318	0.25	Control	0.6862999999999999	0.0	Yes	2.782	0.018	n/a	GoodResponse	0	n/a	n/a	6	50	Cue	Neutral	True
476.568	4.0	Control	0.6862999999999999	0.0	Yes	2.782	0.0	n/a	GoodResponse	0	n/a	n/a	6	50	Fixation	Neutral	True
480.566	0.29	Control	0.6862999999999999	0.002	Yes	2.782	-0.002	4.0	GoodResponse	0	0.199	479.765	6	50	Target	Neutral	True
480.765	0.3	Control	0.6862999999999999	0.002	Yes	2.782	-0.002	4.0	GoodResponse	0	0.199	n/a	6	50	ButtonPress	Neutral	True
480.866	0.41	Control	0.6862999999999999	n/a	Yes	2.782	n/a	n/a	GoodResponse	0	n/a	n/a	6	50	Blank	Neutral	True
481.266	1.45	Control	0.6862999999999999	n/a	Yes	2.782	n/a	5.0	GoodResponse	0	0.025	480.291	6	50	Feedback	Neutral	True
482.716	2.782	Control	0.6862999999999999	n/a	Yes	2.782	n/a	n/a	GoodResponse	0	0.0	n/a	6	50	ISIslide	Neutral	True
485.515	0.25	Control	0.6923	0.0	Yes	2.735	0.015	n/a	GoodResponse	0	n/a	n/a	6	51	Cue	Neutral	True
485.764	3.95	Control	0.6923	0.001	Yes	2.735	-0.001	n/a	GoodResponse	0	n/a	n/a	6	51	Fixation	Neutral	True
489.713	0.28	Control	0.6923	0.002	Yes	2.735	-0.002	4.0	GoodResponse	0	0.208	488.921	6	51	Target	Neutral	True
489.921	0.3	Control	0.6923	0.002	Yes	2.735	-0.002	4.0	GoodResponse	0	0.208	n/a	6	51	ButtonPress	Neutral	True
489.996	0.42	Control	0.6923	n/a	Yes	2.735	n/a	n/a	GoodResponse	0	n/a	n/a	6	51	Blank	Neutral	True
490.413	1.45	Control	0.6923	n/a	Yes	2.735	n/a	5.0	GoodResponse	0	0.047	489.46	6	51	Feedback	Neutral	True
491.862	2.735	Control	0.6923	n/a	Yes	2.735	n/a	n/a	GoodResponse	0	0.0	n/a	6	51	ISIslide	Neutral	True
494.611	0.25	Control	0.6981	0.0	Yes	2.639	0.011	n/a	GoodResponse	0	n/a	n/a	6	52	Cue	Neutral	True
494.861	4.05	Control	0.6981	0.0	Yes	2.639	0.0	n/a	GoodResponse	0	n/a	n/a	6	52	Fixation	Neutral	True
498.91	0.27	Control	0.6981	0.001	Yes	2.639	-0.001	4.0	GoodResponse	0	0.171	498.081	6	52	Target	Neutral	True
499.081	0.3	Control	0.6981	0.001	Yes	2.639	-0.001	4.0	GoodResponse	0	0.171	n/a	6	52	ButtonPress	Neutral	True
499.176	0.43	Control	0.6981	n/a	Yes	2.639	n/a	n/a	GoodResponse	0	n/a	n/a	6	52	Blank	Neutral	True
499.61	1.45	Control	0.6981	n/a	Yes	2.639	n/a	5.0	GoodResponse	0	0.021	498.631	6	52	Feedback	Neutral	True
501.059	2.639	Control	0.6981	n/a	Yes	2.639	n/a	n/a	GoodResponse	0	0.0	n/a	6	52	ISIslide	Neutral	True
503.725	0.25	Win2	0.7037	0.0	Yes	2.925	0.025	n/a	GoodResponse	1	n/a	n/a	7	53	Cue	Win	True
503.975	4.05	Win2	0.7037	0.0	Yes	2.925	0.0	n/a	GoodResponse	1	n/a	n/a	7	53	Fixation	Win	True
508.023	0.26	Win2	0.7037	0.002	Yes	2.925	-0.002	4.0	GoodResponse	1	0.197	507.22	7	53	Target	Win	True
508.22	0.3	Win2	0.7037	0.002	Yes	2.925	-0.002	4.0	GoodResponse	1	0.197	n/a	7	53	ButtonPress	Win	True
508.29	0.44	Win2	0.7037	n/a	Yes	2.925	n/a	n/a	GoodResponse	1	n/a	n/a	7	53	Blank	Win	True
508.723	1.45	Win2	0.7037	n/a	Yes	2.925	n/a	5.0	GoodResponse	1	0.03	507.753	7	53	Feedback	Win	True
510.173	2.925	Win2	0.7037	n/a	Yes	2.925	n/a	n/a	GoodResponse	1	0.0	n/a	7	53	ISIslide	Win	True
513.121	0.25	Win2	0.6909000000000001	0.001	No	2.729	0.021	n/a	NoResponse	0	n/a	n/a	7	54	Cue	MissedWin	True
513.371	3.95	Win2	0.6909000000000001	0.0	No	2.729	0.0	n/a	NoResponse	0	n/a	n/a	7	54	Fixation	MissedWin	True
517.32	0.25	Win2	0.6909000000000001	0.001	No	2.729	-0.001	4.0	NoResponse	0	0.257	516.577	7	54	Target	MissedWin	True
517.57	0.45	Win2	0.6909000000000001	n/a	No	2.729	n/a	n/a	NoResponse	0	n/a	n/a	7	54	Blank	MissedWin	True
517.577	0.3	Win2	0.6909000000000001	0.001	No	2.729	-0.001	4.0	NoResponse	0	0.257	n/a	7	54	ButtonPress	MissedWin	True
518.02	1.45	Win2	0.6909000000000001	n/a	No	2.729	n/a	5.0	NoResponse	0	0.004	517.024	7	54	Feedback	MissedWin	True
519.469	2.729	Win2	0.6909000000000001	n/a	No	2.729	n/a	n/a	NoResponse	0	0.0	n/a	7	54	ISIslide	MissedWin	True
522.218	0.25	Control	0.6964	0.0	Yes	3.032	0.018	n/a	GoodResponse	0	n/a	n/a	7	55	Cue	Neutral	True
522.468	3.95	Control	0.6964	0.0	Yes	3.032	0.0	n/a	GoodResponse	0	n/a	n/a	7	55	Fixation	Neutral	True
526.417	0.24	Control	0.6964	0.001	Yes	3.032	-0.001	4.0	GoodResponse	0	0.223	525.64	7	55	Target	Neutral	True
526.64	0.3	Control	0.6964	0.001	Yes	3.032	-0.001	4.0	GoodResponse	0	0.223	n/a	7	55	ButtonPress	Neutral	True
526.667	0.46	Control	0.6964	n/a	Yes	3.032	n/a	n/a	GoodResponse	0	n/a	n/a	7	55	Blank	Neutral	True
527.117	1.45	Control	0.6964	n/a	Yes	3.032	n/a	5.0	GoodResponse	0	0.027	526.144	7	55	Feedback	Neutral	True
528.566	3.032	Control	0.6964	n/a	Yes	3.032	n/a	n/a	GoodResponse	0	0.0	n/a	7	55	ISIslide	Neutral	True
531.615	0.25	Control	0.7018000000000001	0.0	Yes	2.835	0.015	n/a	GoodResponse	0	n/a	n/a	7	56	Cue	Neutral	True
531.865	3.95	Control	0.7018000000000001	0.0	Yes	2.835	0.0	n/a	GoodResponse	0	n/a	n/a	7	56	Fixation	Neutral	True
535.813	0.23	Control	0.7018000000000001	0.002	Yes	2.835	-0.002	4.0	GoodResponse	0	0.229	535.042	7	56	Target	Neutral	True
536.042	0.3	Control	0.7018000000000001	0.002	Yes	2.835	-0.002	4.0	GoodResponse	0	0.229	n/a	7	56	ButtonPress	Neutral	True
536.047	0.47	Control	0.7018000000000001	n/a	Yes	2.835	n/a	n/a	GoodResponse	0	n/a	n/a	7	56	Blank	Neutral	True
536.513	1.45	Control	0.7018000000000001	n/a	Yes	2.835	n/a	5.0	GoodResponse	0	0.045	535.558	7	56	Feedback	Neutral	True
537.963	2.835	Control	0.7018000000000001	n/a	Yes	2.835	n/a	n/a	GoodResponse	0	0.0	n/a	7	56	ISIslide	Neutral	True
540.812	0.25	Control	0.6897	0.0	No	3.488	0.012	n/a	NoResponse	0	n/a	n/a	7	57	Cue	Neutral	True
541.062	4.0	Control	0.6897	0.0	No	3.488	0.0	n/a	NoResponse	0	n/a	n/a	7	57	Fixation	Neutral	True
545.06	0.22	Control	0.6897	0.002	No	3.488	-0.002	4.0	NoResponse	0	0.252	544.312	7	57	Target	Neutral	True
545.293	0.48	Control	0.6897	n/a	No	3.488	n/a	n/a	NoResponse	0	n/a	n/a	7	57	Blank	Neutral	True
545.312	0.3	Control	0.6897	0.002	No	3.488	-0.002	4.0	NoResponse	0	0.252	n/a	7	57	ButtonPress	Neutral	True
545.76	1.45	Control	0.6897	n/a	No	3.488	n/a	5.0	NoResponse	0	0.017	544.777	7	57	Feedback	Neutral	True
547.209	3.488	Control	0.6897	n/a	No	3.488	n/a	n/a	NoResponse	0	0.0	n/a	7	57	ISIslide	Neutral	True
550.725	0.25	Win2	0.6949	0.0	Yes	2.725	0.025	n/a	GoodResponse	1	n/a	n/a	8	58	Cue	Win	True
550.975	4.05	Win2	0.6949	0.0	Yes	2.725	0.0	n/a	GoodResponse	1	n/a	n/a	8	58	Fixation	Win	True
555.023	0.21	Win2	0.6949	0.002	Yes	2.725	-0.002	4.0	GoodResponse	1	0.208	554.231	8	58	Target	Win	True
555.231	0.3	Win2	0.6949	0.002	Yes	2.725	-0.002	4.0	GoodResponse	1	0.208	n/a	8	58	ButtonPress	Win	True
555.24	0.49	Win2	0.6949	n/a	Yes	2.725	n/a	n/a	GoodResponse	1	n/a	n/a	8	58	Blank	Win	True
555.723	1.45	Win2	0.6949	n/a	Yes	2.725	n/a	5.0	GoodResponse	1	0.006	554.729	8	58	Feedback	Win	True
557.173	2.725	Win2	0.6949	n/a	Yes	2.725	n/a	n/a	GoodResponse	1	0.0	n/a	8	58	ISIslide	Win	True
559.922	0.25	Lose2	0.7	0.0	Yes	2.678	0.022	n/a	GoodResponse	0	n/a	n/a	8	59	Cue	AvoidedLoss	True
560.172	4.0	Lose2	0.7	0.0	Yes	2.678	0.0	n/a	GoodResponse	0	n/a	n/a	8	59	Fixation	AvoidedLoss	True
564.17	0.2	Lose2	0.7	0.002	Yes	2.678	-0.002	4.0	GoodResponse	0	0.199	563.369	8	59	Target	AvoidedLoss	True
564.369	0.3	Lose2	0.7	0.002	Yes	2.678	-0.002	4.0	GoodResponse	0	0.199	n/a	8	59	ButtonPress	AvoidedLoss	True
564.37	0.5	Lose2	0.7	n/a	Yes	2.678	n/a	n/a	GoodResponse	0	n/a	n/a	8	59	Blank	AvoidedLoss	True
564.87	1.45	Lose2	0.7	n/a	Yes	2.678	n/a	5.0	GoodResponse	0	0.029	563.899	8	59	Feedback	AvoidedLoss	True
566.319	2.678	Lose2	0.7	n/a	Yes	2.678	n/a	n/a	GoodResponse	0	0.0	n/a	8	59	ISIslide	AvoidedLoss	True
569.018	0.25	Control	0.6884999999999999	0.001	No	2.682	0.018	n/a	LatePress	0	n/a	n/a	8	60	Cue	Neutral	True
569.268	4.0	Control	0.6884999999999999	0.0	No	2.682	0.0	n/a	LatePress	0	n/a	n/a	8	60	Fixation	Neutral	True
573.267	0.19	Control	0.6884999999999999	0.001	No	2.682	-0.001	4.0	LatePress	0	0.197	572.464	8	60	Target	Neutral	True
573.464	0.3	Control	0.6884999999999999	0.001	No	2.682	-0.001	4.0	LatePress	0	0.197	n/a	8	60	ButtonPress	Neutral	True
573.467	0.51	Control	0.6884999999999999	n/a	No	2.682	n/a	n/a	LatePress	0	n/a	n/a	8	60	Blank	Neutral	True
573.967	1.45	Control	0.6884999999999999	n/a	No	2.682	n/a	5.0	LatePress	0	0.006	572.973	8	60	Feedback	Neutral	True
575.416	2.682	Control	0.6884999999999999	n/a	No	2.682	n/a	n/a	LatePress	0	0.0	n/a	8	60	ISIslide	Neutral	True
578.115	0.25	Lose2	0.6934999999999999	0.0	Yes	2.985	0.015	n/a	GoodResponse	0	n/a	n/a	8	61	Cue	AvoidedLoss	True
578.365	4.0	Lose2	0.6934999999999999	0.0	Yes	2.985	0.0	n/a	GoodResponse	0	n/a	n/a	8	61	Fixation	AvoidedLoss	True
582.364	0.18	Lose2	0.6934999999999999	0.001	Yes	2.985	-0.001	4.0	GoodResponse	0	0.135	581.499	8	61	Target	AvoidedLoss	True
582.499	0.3	Lose2	0.6934999999999999	0.001	Yes	2.985	-0.001	4.0	GoodResponse	0	0.135	n/a	8	61	ButtonPress	AvoidedLoss	True
582.547	0.52	Lose2	0.6934999999999999	n/a	Yes	2.985	n/a	n/a	GoodResponse	0	n/a	n/a	8	61	Blank	AvoidedLoss	True
583.064	1.45	Lose2	0.6934999999999999	n/a	Yes	2.985	n/a	5.0	GoodResponse	0	0.03	582.094	8	61	Feedback	AvoidedLoss	True
584.513	2.985	Lose2	0.6934999999999999	n/a	Yes	2.985	n/a	n/a	GoodResponse	0	0.0	n/a	8	61	ISIslide	AvoidedLoss	True
587.529	0.25	Lose2	0.6825	0.0	No	2.871	0.029	n/a	NoResponse	-1	n/a	n/a	7	62	Cue	Loss	True
587.779	3.9	Lose2	0.6825	0.0	No	2.871	0.0	n/a	NoResponse	-1	n/a	n/a	7	62	Fixation	Loss	True
591.677	0.17	Lose2	0.6825	0.002	No	2.871	-0.002	4.0	NoResponse	-1	0.225	590.902	7	62	Target	Loss	True
591.86	0.53	Lose2	0.6825	n/a	No	2.871	n/a	n/a	NoResponse	-1	n/a	n/a	7	62	Blank	Loss	True
591.902	0.3	Lose2	0.6825	0.002	No	2.871	-0.002	4.0	NoResponse	-1	0.225	n/a	7	62	ButtonPress	Loss	True
592.377	1.45	Lose2	0.6825	n/a	No	2.871	n/a	5.0	NoResponse	-1	0.034	591.411	7	62	Feedback	Loss	True
593.826	2.871	Lose2	0.6825	n/a	No	2.871	n/a	n/a	NoResponse	-1	0.0	n/a	7	62	ISIslide	Loss	True
596.725	0.25	Lose2	0.6718999999999999	0.0	No	2.625	0.025	n/a	NoResponse	-1	n/a	n/a	6	63	Cue	Loss	True
596.975	4.05	Lose2	0.6718999999999999	0.0	No	2.625	0.0	n/a	NoResponse	-1	n/a	n/a	6	63	Fixation	Loss	True
601.024	0.16	Lose2	0.6718999999999999	0.001	No	2.625	-0.001	4.0	NoResponse	-1	0.215	600.239	6	63	Target	Loss	True
601.19	0.54	Lose2	0.6718999999999999	n/a	No	2.625	n/a	n/a	NoResponse	-1	n/a	n/a	6	63	Blank	Loss	True
601.239	0.3	Lose2	0.6718999999999999	0.001	No	2.625	-0.001	4.0	NoResponse	-1	0.215	n/a	6	63	ButtonPress	Loss	True
601.724	1.45	Lose2	0.6718999999999999	n/a	No	2.625	n/a	5.0	NoResponse	-1	0.004	600.728	6	63	Feedback	Loss	True
603.173	2.625	Lose2	0.6718999999999999	n/a	No	2.625	n/a	n/a	NoResponse	-1	0.0	n/a	6	63	ISIslide	Loss	True
605.822	0.25	Win2	0.6615000000000001	0.0	No	3.128	0.022	n/a	NoResponse	0	n/a	n/a	6	64	Cue	MissedWin	True
606.072	4.15	Win2	0.6615000000000001	0.0	No	3.128	0.0	n/a	NoResponse	0	n/a	n/a	6	64	Fixation	MissedWin	True
610.221	0.15	Win2	0.6615000000000001	0.001	No	3.128	-0.001	4.0	NoResponse	0	0.205	609.426	6	64	Target	MissedWin	True
610.371	0.55	Win2	0.6615000000000001	n/a	No	3.128	n/a	n/a	NoResponse	0	n/a	n/a	6	64	Blank	MissedWin	True
610.426	0.3	Win2	0.6615000000000001	0.001	No	3.128	-0.001	4.0	NoResponse	0	0.205	n/a	6	64	ButtonPress	MissedWin	True
610.92	1.45	Win2	0.6615000000000001	n/a	No	3.128	n/a	5.0	NoResponse	0	0.028	609.948	6	64	Feedback	MissedWin	True
612.37	3.128	Win2	0.6615000000000001	n/a	No	3.128	n/a	n/a	NoResponse	0	0.0	n/a	6	64	ISIslide	MissedWin	True
615.519	0.25	Control	0.6515000000000001	0.0	No	2.781	0.019	n/a	NoResponse	0	n/a	n/a	6	65	Cue	Neutral	True
615.769	4.0	Control	0.6515000000000001	0.0	No	2.781	0.0	n/a	NoResponse	0	n/a	n/a	6	65	Fixation	Neutral	True
619.767	0.15	Control	0.6515000000000001	0.002	No	2.781	-0.002	4.0	NoResponse	0	0.179	618.946	6	65	Target	Neutral	True
619.917	0.55	Control	0.6515000000000001	n/a	No	2.781	n/a	n/a	NoResponse	0	n/a	n/a	6	65	Blank	Neutral	True
619.946	0.3	Control	0.6515000000000001	0.002	No	2.781	-0.002	4.0	NoResponse	0	0.179	n/a	6	65	ButtonPress	Neutral	True
620.467	1.45	Control	0.6515000000000001	n/a	No	2.781	n/a	5.0	NoResponse	0	0.041	619.508	6	65	Feedback	Neutral	True
621.916	2.781	Control	0.6515000000000001	n/a	No	2.781	n/a	n/a	NoResponse	0	0.0	n/a	6	65	ISIslide	Neutral	True
624.715	0.25	Win2	0.6418	0.001	No	2.785	0.015	n/a	NoResponse	0	n/a	n/a	6	66	Cue	MissedWin	True
624.965	3.9	Win2	0.6418	0.0	No	2.785	0.0	n/a	NoResponse	0	n/a	n/a	6	66	Fixation	MissedWin	True
628.864	0.16	Win2	0.6418	0.001	No	2.785	-0.001	4.0	NoResponse	0	0.193	628.057	6	66	Target	MissedWin	True
629.031	0.54	Win2	0.6418	n/a	No	2.785	n/a	n/a	NoResponse	0	n/a	n/a	6	66	Blank	MissedWin	True
629.057	0.3	Win2	0.6418	0.001	No	2.785	-0.001	4.0	NoResponse	0	0.193	n/a	6	66	ButtonPress	MissedWin	True
629.564	1.45	Win2	0.6418	n/a	No	2.785	n/a	5.0	NoResponse	0	0.017	628.581	6	66	Feedback	MissedWin	True
631.013	2.785	Win2	0.6418	n/a	No	2.785	n/a	n/a	NoResponse	0	0.0	n/a	6	66	ISIslide	MissedWin	True
633.829	0.25	Control	0.6324000000000001	0.0	No	2.721	0.029	n/a	NoResponse	0	n/a	n/a	6	67	Cue	Neutral	True
634.079	3.95	Control	0.6324000000000001	0.0	No	2.721	0.0	4.0	NoResponse	0	3.306	636.385	6	67	Fixation	Neutral	True
637.385	0.3	Control	0.6324000000000001	0.0	No	2.721	0.0	4.0	NoResponse	0	3.306	n/a	6	67	ButtonPress	Neutral	True
638.027	0.17	Control	0.6324000000000001	0.002	No	2.721	-0.002	n/a	NoResponse	0	n/a	n/a	6	67	Target	Neutral	True
638.211	0.53	Control	0.6324000000000001	n/a	No	2.721	n/a	n/a	NoResponse	0	n/a	n/a	6	67	Blank	Neutral	True
638.727	1.45	Control	0.6324000000000001	n/a	No	2.721	n/a	5.0	NoResponse	0	0.025	637.752	6	67	Feedback	Neutral	True
640.177	2.721	Control	0.6324000000000001	n/a	No	2.721	n/a	n/a	NoResponse	0	0.0	n/a	6	67	ISIslide	Neutral	True
642.926	0.25	Win2	0.6232	0.0	No	3.074	0.026	n/a	NoResponse	0	n/a	n/a	6	68	Cue	MissedWin	True
643.176	4.0	Win2	0.6232	0.0	No	3.074	0.0	n/a	NoResponse	0	n/a	n/a	6	68	Fixation	MissedWin	True
647.174	0.18	Win2	0.6232	0.002	No	3.074	-0.002	4.0	NoResponse	0	0.191	646.365	6	68	Target	MissedWin	True
647.358	0.52	Win2	0.6232	n/a	No	3.074	n/a	n/a	NoResponse	0	n/a	n/a	6	68	Blank	MissedWin	True
647.365	0.3	Win2	0.6232	0.002	No	3.074	-0.002	4.0	NoResponse	0	0.191	n/a	6	68	ButtonPress	MissedWin	True
647.874	1.45	Win2	0.6232	n/a	No	3.074	n/a	5.0	NoResponse	0	0.049	646.923	6	68	Feedback	MissedWin	True
649.323	3.074	Win2	0.6232	n/a	No	3.074	n/a	n/a	NoResponse	0	0.0	n/a	6	68	ISIslide	MissedWin	True
652.422	0.25	Win2	0.6143	0.0	No	3.228	0.022	n/a	NoResponse	0	n/a	n/a	6	69	Cue	MissedWin	True
652.672	3.95	Win2	0.6143	0.0	No	3.228	0.0	n/a	NoResponse	0	n/a	n/a	6	69	Fixation	MissedWin	True
656.621	0.19	Win2	0.6143	0.001	No	3.228	-0.001	4.0	NoResponse	0	0.22	655.841	6	69	Target	MissedWin	True
656.821	0.51	Win2	0.6143	n/a	No	3.228	n/a	n/a	NoResponse	0	n/a	n/a	6	69	Blank	MissedWin	True
656.841	0.3	Win2	0.6143	0.001	No	3.228	-0.001	4.0	NoResponse	0	0.22	n/a	6	69	ButtonPress	MissedWin	True
657.321	1.45	Win2	0.6143	n/a	No	3.228	n/a	5.0	NoResponse	0	0.017	656.338	6	69	Feedback	MissedWin	True
658.77	3.228	Win2	0.6143	n/a	No	3.228	n/a	n/a	NoResponse	0	0.0	n/a	6	69	ISIslide	MissedWin	True
662.019	0.25	Lose2	0.6197	0.0	Yes	3.031	0.019	n/a	GoodResponse	0	n/a	n/a	6	70	Cue	AvoidedLoss	True
662.269	4.05	Lose2	0.6197	0.0	Yes	3.031	0.0	n/a	GoodResponse	0	n/a	n/a	6	70	Fixation	AvoidedLoss	True
666.318	0.2	Lose2	0.6197	0.001	Yes	3.031	-0.001	4.0	GoodResponse	0	0.186	665.504	6	70	Target	AvoidedLoss	True
666.504	0.3	Lose2	0.6197	0.001	Yes	3.031	-0.001	4.0	GoodResponse	0	0.186	n/a	6	70	ButtonPress	AvoidedLoss	True
666.517	0.5	Lose2	0.6197	n/a	Yes	3.031	n/a	n/a	GoodResponse	0	n/a	n/a	6	70	Blank	AvoidedLoss	True
667.017	1.45	Lose2	0.6197	n/a	Yes	3.031	n/a	5.0	GoodResponse	0	0.027	666.044	6	70	Feedback	AvoidedLoss	True
668.467	3.031	Lose2	0.6197	n/a	Yes	3.031	n/a	n/a	GoodResponse	0	0.0	n/a	6	70	ISIslide	AvoidedLoss	True
671.516	0.25	Win2	0.625	0.0	Yes	2.734	0.016	n/a	GoodResponse	1	n/a	n/a	7	71	Cue	Win	True
671.766	4.05	Win2	0.625	0.0	Yes	2.734	0.0	n/a	GoodResponse	1	n/a	n/a	7	71	Fixation	Win	True
675.814	0.21	Win2	0.625	0.002	Yes	2.734	-0.002	4.0	GoodResponse	1	0.18	674.994	7	71	Target	Win	True
675.994	0.3	Win2	0.625	0.002	Yes	2.734	-0.002	4.0	GoodResponse	1	0.18	n/a	7	71	ButtonPress	Win	True
676.031	0.49	Win2	0.625	n/a	Yes	2.734	n/a	n/a	GoodResponse	1	n/a	n/a	7	71	Blank	Win	True
676.514	1.45	Win2	0.625	n/a	Yes	2.734	n/a	5.0	GoodResponse	1	0.042	675.556	7	71	Feedback	Win	True
677.963	2.734	Win2	0.625	n/a	Yes	2.734	n/a	n/a	GoodResponse	1	0.0	n/a	7	71	ISIslide	Win	True
680.729	0.25	Win2	0.6301	0.0	Yes	2.771	0.029	n/a	GoodResponse	1	n/a	n/a	8	72	Cue	Win	True
680.979	4.1	Win2	0.6301	0.0	Yes	2.771	0.0	n/a	GoodResponse	1	n/a	n/a	8	72	Fixation	Win	True
685.078	0.22	Win2	0.6301	0.001	Yes	2.771	-0.001	4.0	GoodResponse	1	0.203	684.281	8	72	Target	Win	True
685.281	0.3	Win2	0.6301	0.001	Yes	2.771	-0.001	4.0	GoodResponse	1	0.203	n/a	8	72	ButtonPress	Win	True
685.311	0.48	Win2	0.6301	n/a	Yes	2.771	n/a	n/a	GoodResponse	1	n/a	n/a	8	72	Blank	Win	True
685.777	1.45	Win2	0.6301	n/a	Yes	2.771	n/a	5.0	GoodResponse	1	0.048	684.825	8	72	Feedback	Win	True
687.227	2.771	Win2	0.6301	n/a	Yes	2.771	n/a	n/a	GoodResponse	1	0.0	n/a	8	72	ISIslide	Win	True
690.026	0.25	Win2	0.6351	0.0	Yes	2.674	0.026	n/a	GoodResponse	1	n/a	n/a	9	73	Cue	Win	True
690.276	4.0	Win2	0.6351	0.0	Yes	2.674	0.0	n/a	GoodResponse	1	n/a	n/a	9	73	Fixation	Win	True
694.274	0.23	Win2	0.6351	0.002	Yes	2.674	-0.002	4.0	GoodResponse	1	0.212	693.486	9	73	Target	Win	True
694.486	0.3	Win2	0.6351	0.002	Yes	2.674	-0.002	4.0	GoodResponse	1	0.212	n/a	9	73	ButtonPress	Win	True
694.508	0.47	Win2	0.6351	n/a	Yes	2.674	n/a	n/a	GoodResponse	1	n/a	n/a	9	73	Blank	Win	True
694.974	1.45	Win2	0.6351	n/a	Yes	2.674	n/a	5.0	GoodResponse	1	0.022	693.996	9	73	Feedback	Win	True
696.424	2.674	Win2	0.6351	n/a	Yes	2.674	n/a	n/a	GoodResponse	1	0.0	n/a	9	73	ISIslide	Win	True
699.123	0.25	Lose2	0.64	0.0	Yes	2.627	0.023	n/a	GoodResponse	0	n/a	n/a	9	74	Cue	AvoidedLoss	True
699.373	4.05	Lose2	0.64	0.0	Yes	2.627	0.0	n/a	GoodResponse	0	n/a	n/a	9	74	Fixation	AvoidedLoss	True
703.421	0.24	Lose2	0.64	0.002	Yes	2.627	-0.002	4.0	GoodResponse	0	0.218	702.639	9	74	Target	AvoidedLoss	True
703.639	0.3	Lose2	0.64	0.002	Yes	2.627	-0.002	4.0	GoodResponse	0	0.218	n/a	9	74	ButtonPress	AvoidedLoss	True
703.671	0.46	Lose2	0.64	n/a	Yes	2.627	n/a	n/a	GoodResponse	0	n/a	n/a	9	74	Blank	AvoidedLoss	True
704.121	1.45	Lose2	0.64	n/a	Yes	2.627	n/a	5.0	GoodResponse	0	0.044	703.165	9	74	Feedback	AvoidedLoss	True
705.57	2.627	Lose2	0.64	n/a	Yes	2.627	n/a	n/a	GoodResponse	0	0.0	n/a	9	74	ISIslide	AvoidedLoss	True
708.219	0.25	Lose2	0.6446999999999999	0.001	Yes	2.931	0.019	n/a	GoodResponse	0	n/a	n/a	9	75	Cue	AvoidedLoss	True
708.469	3.95	Lose2	0.6446999999999999	0.0	Yes	2.931	0.0	n/a	GoodResponse	0	n/a	n/a	9	75	Fixation	AvoidedLoss	True
712.418	0.25	Lose2	0.6446999999999999	0.001	Yes	2.931	-0.001	4.0	GoodResponse	0	0.197	711.615	9	75	Target	AvoidedLoss	True
712.615	0.3	Lose2	0.6446999999999999	0.001	Yes	2.931	-0.001	4.0	GoodResponse	0	0.197	n/a	9	75	ButtonPress	AvoidedLoss	True
712.668	0.45	Lose2	0.6446999999999999	n/a	Yes	2.931	n/a	n/a	GoodResponse	0	n/a	n/a	9	75	Blank	AvoidedLoss	True
713.118	1.45	Lose2	0.6446999999999999	n/a	Yes	2.931	n/a	5.0	GoodResponse	0	0.023	712.141	9	75	Feedback	AvoidedLoss	True
714.567	2.931	Lose2	0.6446999999999999	n/a	Yes	2.931	n/a	n/a	GoodResponse	0	0.0	n/a	9	75	ISIslide	AvoidedLoss	True
717.516	0.25	Control	0.6494	0.0	Yes	3.234	0.016	n/a	GoodResponse	0	n/a	n/a	9	76	Cue	Neutral	True
717.766	4.05	Control	0.6494	0.0	Yes	3.234	0.0	n/a	GoodResponse	0	n/a	n/a	9	76	Fixation	Neutral	True
721.815	0.26	Control	0.6494	0.001	Yes	3.234	-0.001	4.0	GoodResponse	0	0.199	721.014	9	76	Target	Neutral	True
722.014	0.3	Control	0.6494	0.001	Yes	3.234	-0.001	4.0	GoodResponse	0	0.199	n/a	9	76	ButtonPress	Neutral	True
722.081	0.44	Control	0.6494	n/a	Yes	3.234	n/a	n/a	GoodResponse	0	n/a	n/a	9	76	Blank	Neutral	True
722.514	1.45	Control	0.6494	n/a	Yes	3.234	n/a	5.0	GoodResponse	0	0.042	721.556	9	76	Feedback	Neutral	True
723.964	3.234	Control	0.6494	n/a	Yes	3.234	n/a	n/a	GoodResponse	0	0.0	n/a	9	76	ISIslide	Neutral	True
727.213	0.25	Lose2	0.6537999999999999	0.0	Yes	2.587	0.013	n/a	GoodResponse	0	n/a	n/a	9	77	Cue	AvoidedLoss	True
727.463	3.95	Lose2	0.6537999999999999	0.0	Yes	2.587	0.0	n/a	GoodResponse	0	n/a	n/a	9	77	Fixation	AvoidedLoss	True
731.411	0.27	Lose2	0.6537999999999999	0.002	Yes	2.587	-0.002	4.0	GoodResponse	0	0.203	730.614	9	77	Target	AvoidedLoss	True
731.614	0.3	Lose2	0.6537999999999999	0.002	Yes	2.587	-0.002	4.0	GoodResponse	0	0.203	n/a	9	77	ButtonPress	AvoidedLoss	True
731.694	0.43	Lose2	0.6537999999999999	n/a	Yes	2.587	n/a	n/a	GoodResponse	0	n/a	n/a	9	77	Blank	AvoidedLoss	True
732.111	1.45	Lose2	0.6537999999999999	n/a	Yes	2.587	n/a	5.0	GoodResponse	0	0.006	731.117	9	77	Feedback	AvoidedLoss	True
733.56	2.587	Lose2	0.6537999999999999	n/a	Yes	2.587	n/a	n/a	GoodResponse	0	0.0	n/a	9	77	ISIslide	AvoidedLoss	True
