onset	duration	cue_type	current_mean_accuracy	duration_error	is_hit	isi_adjusted	onset_delay	response	response_type	reward	rt	rt_time	total_reward	trial_number	trial_phase	trial_type	one_press
11.107	0.25	Control	1.0	0.0	Yes	2.943	0.007	n/a	GoodResponse	0	n/a	n/a	0	0	Cue	Neutral	False
11.358	3.85	Control	1.0	0.0	Yes	2.943	0.001	1.0	GoodResponse	0	0.071	10.429	0	0	Fixation	Neutral	False
11.429	0.3	Control	1.0	0.0	Yes	2.943	0.001	1.0	GoodResponse	0	0.071	n/a	0	0	ButtonPress	Neutral	False
15.203	0.4	Control	1.0	0.004	Yes	2.943	-0.004	1.0	GoodResponse	0	0.23	14.433	0	0	Target	Neutral	False
15.433	0.3	Control	1.0	0.004	Yes	2.943	-0.004	1.0	GoodResponse	0	0.23	n/a	0	0	ButtonPress	Neutral	False
15.604	0.3	Control	1.0	n/a	Yes	2.943	n/a	n/a	GoodResponse	0	n/a	n/a	0	0	Blank	Neutral	False
15.905	1.45	Control	1.0	n/a	Yes	2.943	n/a	5.0	GoodResponse	0	0.022	14.927	0	0	Feedback	Neutral	False
17.359	2.943	Control	1.0	n/a	Yes	2.943	n/a	n/a	GoodResponse	0	0.0	n/a	0	0	ISIslide	Neutral	False
20.318	0.25	Lose2	1.0	0.0	Yes	2.782	0.018	n/a	GoodResponse	0	n/a	n/a	0	1	Cue	AvoidedLoss	True
20.569	4.0	Lose2	1.0	0.0	Yes	2.782	0.001	n/a	GoodResponse	0	n/a	n/a	0	1	Fixation	AvoidedLoss	True
24.564	0.39	Lose2	1.0	0.004	Yes	2.782	-0.004	1.0	GoodResponse	0	0.233	23.797	0	1	Target	AvoidedLoss	True
24.797	0.3	Lose2	1.0	0.004	Yes	2.782	-0.004	1.0	GoodResponse	0	0.233	n/a	0	1	ButtonPress	AvoidedLoss	True
24.966	0.31	Lose2	1.0	n/a	Yes	2.782	n/a	n/a	GoodResponse	0	n/a	n/a	0	1	Blank	AvoidedLoss	True
25.266	1.45	Lose2	1.0	n/a	Yes	2.782	n/a	5.0	GoodResponse	0	0.027	24.293	0	1	Feedback	AvoidedLoss	True
26.721	2.782	Lose2	1.0	n/a	Yes	2.782	n/a	n/a	GoodResponse	0	0.0	n/a	0	1	ISIslide	AvoidedLoss	True
29.529	0.25	Control	1.0	0.0	Yes	2.571	0.029	n/a	GoodResponse	0	n/a	n/a	0	2	Cue	Neutral	True
29.78	4.1	Control	1.0	0.0	Yes	2.571	0.001	n/a	GoodResponse	0	n/a	n/a	0	2	Fixation	Neutral	True
33.876	0.38	Control	1.0	0.003	Yes	2.571	-0.003	1.0	GoodResponse	0	0.247	33.123	0	2	Target	Neutral	True
34.123	0.3	Control	1.0	0.003	Yes	2.571	-0.003	1.0	GoodResponse	0	0.247	n/a	0	2	ButtonPress	Neutral	True
34.26	0.32	Control	1.0	n/a	Yes	2.571	n/a	n/a	GoodResponse	0	n/a	n/a	0	2	Blank	Neutral	True
34.578	1.45	Control	1.0	n/a	Yes	2.571	n/a	5.0	GoodResponse	0	0.032	33.61	0	2	Feedback	Neutral	True
36.032	2.571	Control	1.0	n/a	Yes	2.571	n/a	n/a	GoodResponse	0	0.0	n/a	0	2	ISIslide	Neutral	True
38.623	0.25	Win2	1.0	0.0	Yes	2.827	0.023	n/a	GoodResponse	1	n/a	n/a	1	3	Cue	Win	True
38.874	3.95	Win2	1.0	0.0	Yes	2.827	0.001	n/a	GoodResponse	1	n/a	n/a	1	3	Fixation	Win	True
42.819	0.37	Win2	1.0	0.004	Yes	2.827	-0.004	1.0	GoodResponse	1	0.24	42.059	1	3	Target	Win	True
43.059	0.3	Win2	1.0	0.004	Yes	2.827	-0.004	1.0	GoodResponse	1	0.24	n/a	1	3	ButtonPress	Win	True
43.204	0.33	Win2	1.0	n/a	Yes	2.827	n/a	n/a	GoodResponse	1	n/a	n/a	1	3	Blank	Win	True
43.521	1.45	Win2	1.0	n/a	Yes	2.827	n/a	5.0	GoodResponse	1	0.016	42.537	1	3	Feedback	Win	True
44.976	2.827	Win2	1.0	n/a	Yes	2.827	n/a	n/a	GoodResponse	1	0.0	n/a	1	3	ISIslide	Win	True
47.817	0.25	Win2	1.0	0.001	Yes	3.283	0.017	n/a	GoodResponse	1	n/a	n/a	2	4	Cue	Win	True
48.068	4.0	Win2	1.0	0.0	Yes	3.283	0.001	n/a	GoodResponse	1	n/a	n/a	2	4	Fixation	Win	True
52.064	0.36	Win2	1.0	0.003	Yes	3.283	-0.003	1.0	GoodResponse	1	0.21	51.274	2	4	Target	Win	True
52.274	0.3	Win2	1.0	0.003	Yes	3.283	-0.003	1.0	GoodResponse	1	0.21	n/a	2	4	ButtonPress	Win	True
52.431	0.34	Win2	1.0	n/a	Yes	3.283	n/a	n/a	GoodResponse	1	n/a	n/a	2	4	Blank	Win	True
52.766	1.45	Win2	1.0	n/a	Yes	3.283	n/a	5.0	GoodResponse	1	0.039	51.805	2	4	Feedback	Win	True
54.22	3.283	Win2	1.0	n/a	Yes	3.283	n/a	n/a	GoodResponse	1	0.0	n/a	2	4	ISIslide	Win	True
57.53	0.25	Win2	1.0	0.0	Yes	2.77	0.03	n/a	GoodResponse	1	n/a	n/a	3	5	Cue	Win	True
57.781	4.0	Win2	1.0	0.0	Yes	2.77	0.001	n/a	GoodResponse	1	n/a	n/a	3	5	Fixation	Win	True
61.776	0.35	Win2	1.0	0.004	Yes	2.77	-0.004	1.0	GoodResponse	1	0.258	61.034	3	5	Target	Win	True
62.034	0.3	Win2	1.0	0.004	Yes	2.77	-0.004	1.0	GoodResponse	1	0.258	n/a	3	5	ButtonPress	Win	True
62.127	0.35	Win2	1.0	n/a	Yes	2.77	n/a	n/a	GoodResponse	1	n/a	n/a	3	5	Blank	Win	True
62.478	1.45	Win2	1.0	n/a	Yes	2.77	n/a	5.0	GoodResponse	1	0.035	61.513	3	5	Feedback	Win	True
63.932	2.77	Win2	1.0	n/a	Yes	2.77	n/a	n/a	GoodResponse	1	0.0	n/a	3	5	ISIslide	Win	True
66.724	0.25	Lose2	1.0	0.0	Yes	2.726	0.024	n/a	GoodResponse	0	n/a	n/a	3	6	Cue	AvoidedLoss	True
66.975	3.95	Lose2	1.0	0.0	Yes	2.726	0.001	n/a	GoodResponse	0	n/a	n/a	3	6	Fixation	AvoidedLoss	True
70.92	0.34	Lose2	1.0	0.004	Yes	2.726	-0.004	1.0	GoodResponse	0	0.253	70.173	3	6	Target	AvoidedLoss	True
71.173	0.3	Lose2	1.0	0.004	Yes	2.726	-0.004	1.0	GoodResponse	0	0.253	n/a	3	6	ButtonPress	AvoidedLoss	True
71.271	0.36	Lose2	1.0	n/a	Yes	2.726	n/a	n/a	GoodResponse	0	n/a	n/a	3	6	Blank	AvoidedLoss	True
71.622	1.45	Lose2	1.0	n/a	Yes	2.726	n/a	5.0	GoodResponse	0	0.012	70.634	3	6	Feedback	AvoidedLoss	True
73.077	2.726	Lose2	1.0	n/a	Yes	2.726	n/a	n/a	GoodResponse	0	0.0	n/a	3	6	ISIslide	AvoidedLoss	True
75.818	0.25	Lose2	1.0	0.0	Yes	4.032	0.018	n/a	GoodResponse	0	n/a	n/a	3	7	Cue	AvoidedLoss	True
76.069	4.05	Lose2	1.0	0.0	Yes	4.032	0.001	n/a	GoodResponse	0	n/a	n/a	3	7	Fixation	AvoidedLoss	True
80.114	0.33	Lose2	1.0	0.004	Yes	4.032	-0.004	1.0	GoodResponse	0	0.232	79.346	3	7	Target	AvoidedLoss	True
80.346	0.3	Lose2	1.0	0.004	Yes	4.032	-0.004	1.0	GoodResponse	0	0.232	n/a	3	7	ButtonPress	AvoidedLoss	True
80.449	0.37	Lose2	1.0	n/a	Yes	4.032	n/a	n/a	GoodResponse	0	n/a	n/a	3	7	Blank	AvoidedLoss	True
80.816	1.45	Lose2	1.0	n/a	Yes	4.032	n/a	5.0	GoodResponse	0	0.037	79.853	3	7	Feedback	AvoidedLoss	True
82.271	4.032	Lose2	1.0	n/a	Yes	4.032	n/a	n/a	GoodResponse	0	0.0	n/a	3	7	ISIslide	AvoidedLoss	True
86.316	0.25	Lose2	1.0	0.0	Yes	3.034	0.016	n/a	GoodResponse	0	n/a	n/a	3	8	Cue	AvoidedLoss	True
86.567	3.95	Lose2	1.0	0.0	Yes	3.034	0.001	n/a	GoodResponse	0	n/a	n/a	3	8	Fixation	AvoidedLoss	True
90.512	0.32	Lose2	1.0	0.004	Yes	3.034	-0.004	1.0	GoodResponse	0	0.232	89.744	3	8	Target	AvoidedLoss	True
90.744	0.3	Lose2	1.0	0.004	Yes	3.034	-0.004	1.0	GoodResponse	0	0.232	n/a	3	8	ButtonPress	AvoidedLoss	True
90.847	0.38	Lose2	1.0	n/a	Yes	3.034	n/a	n/a	GoodResponse	0	n/a	n/a	3	8	Blank	AvoidedLoss	True
91.214	1.45	Lose2	1.0	n/a	Yes	3.034	n/a	5.0	GoodResponse	0	0.03	90.244	3	8	Feedback	AvoidedLoss	True
92.669	3.034	Lose2	1.0	n/a	Yes	3.034	n/a	n/a	GoodResponse	0	0.0	n/a	3	8	ISIslide	AvoidedLoss	True
95.728	0.25	Lose2	1.0	0.0	Yes	3.122	0.028	n/a	GoodResponse	0	n/a	n/a	3	9	Cue	AvoidedLoss	True
95.979	3.95	Lose2	1.0	0.0	Yes	3.122	0.001	n/a	GoodResponse	0	n/a	n/a	3	9	Fixation	AvoidedLoss	True
99.924	0.31	Lose2	1.0	0.004	Yes	3.122	-0.004	1.0	GoodResponse	0	0.248	99.172	3	9	Target	AvoidedLoss	True
100.172	0.3	Lose2	1.0	0.004	Yes	3.122	-0.004	1.0	GoodResponse	0	0.248	n/a	3	9	ButtonPress	AvoidedLoss	True
100.241	0.39	Lose2	1.0	n/a	Yes	3.122	n/a	n/a	GoodResponse	0	n/a	n/a	3	9	Blank	AvoidedLoss	True
100.626	1.45	Lose2	1.0	n/a	Yes	3.122	n/a	5.0	GoodResponse	0	0.032	99.658	3	9	Feedback	AvoidedLoss	True
102.08	3.122	Lose2	1.0	n/a	Yes	3.122	n/a	n/a	GoodResponse	0	0.0	n/a	3	9	ISIslide	AvoidedLoss	True
105.223	0.25	Control	1.0	0.0	Yes	3.277	0.023	n/a	GoodResponse	0	n/a	n/a	3	10	Cue	Neutral	True
105.474	4.0	Control	1.0	0.0	Yes	3.277	0.001	n/a	GoodResponse	0	n/a	n/a	3	10	Fixation	Neutral	True
109.469	0.3	Control	1.0	0.004	Yes	3.277	-0.004	1.0	GoodResponse	0	0.201	108.67	3	10	Target	Neutral	True
109.67	0.3	Control	1.0	0.004	Yes	3.277	-0.004	1.0	GoodResponse	0	0.201	n/a	3	10	ButtonPress	Neutral	True
109.77	0.4	Control	1.0	n/a	Yes	3.277	n/a	n/a	GoodResponse	0	n/a	n/a	3	10	Blank	Neutral	True
110.171	1.45	Control	1.0	n/a	Yes	3.277	n/a	5.0	GoodResponse	0	0.049	109.22	3	10	Feedback	Neutral	True
111.626	3.277	Control	1.0	n/a	Yes	3.277	n/a	n/a	GoodResponse	0	0.0	n/a	3	10	ISIslide	Neutral	True
114.919	0.25	Lose2	1.0	0.0	Yes	2.731	0.019	n/a	GoodResponse	0	n/a	n/a	3	11	Cue	AvoidedLoss	True
115.17	4.05	Lose2	1.0	0.0	Yes	2.731	0.001	n/a	GoodResponse	0	n/a	n/a	3	11	Fixation	AvoidedLoss	True
119.215	0.29	Lose2	1.0	0.004	Yes	2.731	-0.004	1.0	GoodResponse	0	0.217	118.432	3	11	Target	AvoidedLoss	True
119.432	0.3	Lose2	1.0	0.004	Yes	2.731	-0.004	1.0	GoodResponse	0	0.217	n/a	3	11	ButtonPress	AvoidedLoss	True
119.516	0.41	Lose2	1.0	n/a	Yes	2.731	n/a	n/a	GoodResponse	0	n/a	n/a	3	11	Blank	AvoidedLoss	True
119.917	1.45	Lose2	1.0	n/a	Yes	2.731	n/a	5.0	GoodResponse	0	0.01	118.927	3	11	Feedback	AvoidedLoss	True
121.371	2.731	Lose2	1.0	n/a	Yes	2.731	n/a	n/a	GoodResponse	0	0.0	n/a	3	11	ISIslide	AvoidedLoss	True
124.13	0.25	Control	1.0	0.0	Yes	2.97	0.03	n/a	GoodResponse	0	n/a	n/a	3	12	Cue	Neutral	True
124.38	3.9	Control	1.0	0.001	Yes	2.97	0.0	n/a	GoodResponse	0	n/a	n/a	3	12	Fixation	Neutral	True
128.292	0.28	Control	1.0	0.0	Yes	2.97	0.012	1.0	GoodResponse	0	0.189	127.481	3	12	Target	Neutral	True
128.481	0.3	Control	1.0	0.0	Yes	2.97	0.012	1.0	GoodResponse	0	0.189	n/a	3	12	ButtonPress	Neutral	True
128.56	0.42	Control	1.0	n/a	Yes	2.97	n/a	n/a	GoodResponse	0	n/a	n/a	3	12	Blank	Neutral	True
128.978	1.45	Control	1.0	n/a	Yes	2.97	n/a	5.0	GoodResponse	0	0.022	128.0	3	12	Feedback	Neutral	True
130.432	2.97	Control	1.0	n/a	Yes	2.97	n/a	n/a	GoodResponse	0	0.0	n/a	3	12	ISIslide	Neutral	True
133.424	0.25	Control	1.0	0.0	Yes	2.776	0.024	n/a	GoodResponse	0	n/a	n/a	3	13	Cue	Neutral	True
133.675	4.0	Control	1.0	0.0	Yes	2.776	0.001	n/a	GoodResponse	0	n/a	n/a	3	13	Fixation	Neutral	True
137.67	0.27	Control	1.0	0.004	Yes	2.776	-0.004	1.0	GoodResponse	0	0.238	136.908	3	13	Target	Neutral	True
137.908	0.3	Control	1.0	0.004	Yes	2.776	-0.004	1.0	GoodResponse	0	0.238	n/a	3	13	ButtonPress	Neutral	True
137.955	0.43	Control	1.0	n/a	Yes	2.776	n/a	n/a	GoodResponse	0	n/a	n/a	3	13	Blank	Neutral	True
138.372	1.45	Control	1.0	n/a	Yes	2.776	n/a	5.0	GoodResponse	0	0.043	137.415	3	13	Feedback	Neutral	True
139.827	2.776	Control	1.0	n/a	Yes	2.776	n/a	n/a	GoodResponse	0	0.0	n/a	3	13	ISIslide	Neutral	True
142.619	0.25	Win2	1.0	0.0	Yes	2.681	0.019	n/a	GoodResponse	1	n/a	n/a	4	14	Cue	Win	True
142.869	4.1	Win2	1.0	0.0	Yes	2.681	0.0	n/a	GoodResponse	1	n/a	n/a	4	14	Fixation	Win	True
146.965	0.26	Win2	1.0	0.004	Yes	2.681	-0.004	1.0	GoodResponse	1	0.231	146.196	4	14	Target	Win	True
147.196	0.3	Win2	1.0	0.004	Yes	2.681	-0.004	1.0	GoodResponse	1	0.231	n/a	4	14	ButtonPress	Win	True
147.232	0.44	Win2	1.0	n/a	Yes	2.681	n/a	n/a	GoodResponse	1	n/a	n/a	4	14	Blank	Win	True
147.667	1.45	Win2	1.0	n/a	Yes	2.681	n/a	5.0	GoodResponse	1	0.015	146.682	4	14	Feedback	Win	True
149.121	2.681	Win2	1.0	n/a	Yes	2.681	n/a	n/a	GoodResponse	1	0.0	n/a	4	14	ISIslide	Win	True
151.829	0.25	Control	0.9375	0.001	No	2.971	0.029	n/a	NoResponse	0	n/a	n/a	4	15	Cue	Neutral	True
152.08	4.0	Control	0.9375	0.0	No	2.971	0.001	n/a	NoResponse	0	n/a	n/a	4	15	Fixation	Neutral	True
156.076	0.25	Control	0.9375	0.003	No	2.971	-0.003	1.0	NoResponse	0	0.308	155.384	4	15	Target	Neutral	True
156.326	0.45	Control	0.9375	n/a	No	2.971	n/a	n/a	NoResponse	0	n/a	n/a	4	15	Blank	Neutral	True
156.384	0.3	Control	0.9375	0.003	No	2.971	-0.003	1.0	NoResponse	0	0.308	n/a	4	15	ButtonPress	Neutral	True
156.778	1.45	Control	0.9375	n/a	No	2.971	n/a	5.0	NoResponse	0	0.026	155.804	4	15	Feedback	Neutral	True
158.232	2.971	Control	0.9375	n/a	No	2.971	n/a	n/a	NoResponse	0	0.0	n/a	4	15	ISIslide	Neutral	True
161.224	0.25	Win2	0.9412	0.0	Yes	2.876	0.024	n/a	GoodResponse	1	n/a	n/a	5	16	Cue	Win	True
161.475	4.0	Win2	0.9412	0.0	Yes	2.876	0.001	n/a	GoodResponse	1	n/a	n/a	5	16	Fixation	Win	True
165.47	0.24	Win2	0.9412	0.004	Yes	2.876	-0.004	1.0	GoodResponse	1	0.2	164.67	5	16	Target	Win	True
165.67	0.3	Win2	0.9412	0.004	Yes	2.876	-0.004	1.0	GoodResponse	1	0.2	n/a	5	16	ButtonPress	Win	True
165.721	0.46	Win2	0.9412	n/a	Yes	2.876	n/a	n/a	GoodResponse	1	n/a	n/a	5	16	Blank	Win	True
166.173	1.45	Win2	0.9412	n/a	Yes	2.876	n/a	5.0	GoodResponse	1	0.046	165.219	5	16	Feedback	Win	True
167.627	2.876	Win2	0.9412	n/a	Yes	2.876	n/a	n/a	GoodResponse	1	0.0	n/a	5	16	ISIslide	Win	True
170.519	0.25	Lose2	0.8889	0.0	No	2.731	0.019	n/a	NoResponse	-1	n/a	n/a	4	17	Cue	Loss	True
170.77	3.95	Lose2	0.8889	0.0	No	2.731	0.001	n/a	NoResponse	-1	n/a	n/a	4	17	Fixation	Loss	True
174.715	0.23	Lose2	0.8889	0.004	No	2.731	-0.004	1.0	NoResponse	-1	0.275	173.99	4	17	Target	Loss	True
174.949	0.47	Lose2	0.8889	n/a	No	2.731	n/a	n/a	NoResponse	-1	n/a	n/a	4	17	Blank	Loss	True
174.99	0.3	Lose2	0.8889	0.004	No	2.731	-0.004	1.0	NoResponse	-1	0.275	n/a	4	17	ButtonPress	Loss	True
175.417	1.45	Lose2	0.8889	n/a	No	2.731	n/a	5.0	NoResponse	-1	0.022	174.439	4	17	Feedback	Loss	True
176.871	2.731	Lose2	0.8889	n/a	No	2.731	n/a	n/a	NoResponse	-1	0.0	n/a	4	17	ISIslide	Loss	True
179.63	0.25	Lose2	0.8946999999999999	0.0	Yes	2.72	0.03	n/a	GoodResponse	0	n/a	n/a	4	18	Cue	AvoidedLoss	True
179.88	4.05	Lose2	0.8946999999999999	0.0	Yes	2.72	0.0	n/a	GoodResponse	0	n/a	n/a	4	18	Fixation	AvoidedLoss	True
183.926	0.22	Lose2	0.8946999999999999	0.004	Yes	2.72	-0.004	1.0	GoodResponse	0	0.202	183.128	4	18	Target	AvoidedLoss	True
184.128	0.3	Lose2	0.8946999999999999	0.004	Yes	2.72	-0.004	1.0	GoodResponse	0	0.202	n/a	4	18	ButtonPress	AvoidedLoss	True
184.16	0.48	Lose2	0.8946999999999999	n/a	Yes	2.72	n/a	n/a	GoodResponse	0	n/a	n/a	4	18	Blank	AvoidedLoss	True
184.628	1.45	Lose2	0.8946999999999999	n/a	Yes	2.72	n/a	5.0	GoodResponse	0	0.031	183.659	4	18	Feedback	AvoidedLoss	True
186.082	2.72	Lose2	0.8946999999999999	n/a	Yes	2.72	n/a	n/a	GoodResponse	0	0.0	n/a	4	18	ISIslide	AvoidedLoss	True
188.824	0.25	Control	0.85	0.0	No	2.926	0.024	n/a	NoResponse	0	n/a	n/a	4	19	Cue	Neutral	False
189.075	3.95	Control	0.85	0.0	No	2.926	0.001	1.0	NoResponse	0	3.898	191.973	4	19	Fixation	Neutral	False
192.973	0.3	Control	0.85	0.0	No	2.926	0.001	1.0	NoResponse	0	3.898	n/a	4	19	ButtonPress	Neutral	False
193.02	0.21	Control	0.85	0.004	No	2.926	-0.004	1.0	NoResponse	0	0.289	192.309	4	19	Target	Neutral	False
193.237	0.49	Control	0.85	n/a	No	2.926	n/a	n/a	NoResponse	0	n/a	n/a	4	19	Blank	Neutral	False
193.309	0.3	Control	0.85	0.004	No	2.926	-0.004	1.0	NoResponse	0	0.289	n/a	4	19	ButtonPress	Neutral	False
193.722	1.45	Control	0.85	n/a	No	2.926	n/a	5.0	NoResponse	0	0.01	192.732	4	19	Feedback	Neutral	False
195.176	2.926	Control	0.85	n/a	No	2.926	n/a	n/a	NoResponse	0	0.0	n/a	4	19	ISIslide	Neutral	False
198.118	0.25	Control	0.8095	0.0	No	2.632	0.018	n/a	NoResponse	0	n/a	n/a	4	20	Cue	Neutral	True
198.369	4.05	Control	0.8095	0.0	No	2.632	0.001	n/a	NoResponse	0	n/a	n/a	4	20	Fixation	Neutral	True
202.415	0.2	Control	0.8095	0.003	No	2.632	-0.003	1.0	NoResponse	0	0.232	201.647	4	20	Target	Neutral	True
202.615	0.5	Control	0.8095	n/a	No	2.632	n/a	n/a	NoResponse	0	n/a	n/a	4	20	Blank	Neutral	True
202.647	0.3	Control	0.8095	0.003	No	2.632	-0.003	1.0	NoResponse	0	0.232	n/a	4	20	ButtonPress	Neutral	True
203.117	1.45	Control	0.8095	n/a	No	2.632	n/a	5.0	NoResponse	0	0.03	202.147	4	20	Feedback	Neutral	True
204.571	2.632	Control	0.8095	n/a	No	2.632	n/a	n/a	NoResponse	0	0.0	n/a	4	20	ISIslide	Neutral	True
207.229	0.25	Control	0.7726999999999999	0.0	No	2.771	0.029	n/a	NoResponse	0	n/a	n/a	4	21	Cue	Neutral	True
207.48	4.1	Control	0.7726999999999999	0.0	No	2.771	0.001	n/a	NoResponse	0	n/a	n/a	4	21	Fixation	Neutral	True
211.575	0.19	Control	0.7726999999999999	0.004	No	2.771	-0.004	1.0	NoResponse	0	0.213	210.788	4	21	Target	Neutral	True
211.776	0.51	Control	0.7726999999999999	n/a	No	2.771	n/a	n/a	NoResponse	0	n/a	n/a	4	21	Blank	Neutral	True
211.788	0.3	Control	0.7726999999999999	0.004	No	2.771	-0.004	1.0	NoResponse	0	0.213	n/a	4	21	ButtonPress	Neutral	True
212.277	1.45	Control	0.7726999999999999	n/a	No	2.771	n/a	5.0	NoResponse	0	0.04	211.317	4	21	Feedback	Neutral	True
213.732	2.771	Control	0.7726999999999999	n/a	No	2.771	n/a	n/a	NoResponse	0	0.0	n/a	4	21	ISIslide	Neutral	True
216.54	0.25	Control	0.7391	0.0	No	2.76	0.04	n/a	NoResponse	0	n/a	n/a	4	22	Cue	Neutral	True
216.791	4.0	Control	0.7391	0.0	No	2.76	0.001	n/a	NoResponse	0	n/a	n/a	4	22	Fixation	Neutral	True
220.786	0.18	Control	0.7391	0.004	No	2.76	-0.004	1.0	NoResponse	0	0.224	220.01	4	22	Target	Neutral	True
220.97	0.52	Control	0.7391	n/a	No	2.76	n/a	n/a	NoResponse	0	n/a	n/a	4	22	Blank	Neutral	True
221.01	0.3	Control	0.7391	0.004	No	2.76	-0.004	1.0	NoResponse	0	0.224	n/a	4	22	ButtonPress	Neutral	True
221.488	1.45	Control	0.7391	n/a	No	2.76	n/a	5.0	NoResponse	0	0.048	220.536	4	22	Feedback	Neutral	True
222.943	2.76	Control	0.7391	n/a	No	2.76	n/a	n/a	NoResponse	0	0.0	n/a	4	22	ISIslide	Neutral	True
225.718	0.25	Control	0.7082999999999999	0.0	No	2.782	0.018	n/a	NoResponse	0	n/a	n/a	4	23	Cue	Neutral	True
225.969	3.9	Control	0.7082999999999999	0.0	No	2.782	0.001	n/a	NoResponse	0	n/a	n/a	4	23	Fixation	Neutral	True
229.864	0.17	Control	0.7082999999999999	0.004	No	2.782	-0.004	1.0	NoResponse	0	0.216	229.08	4	23	Target	Neutral	True
230.047	0.53	Control	0.7082999999999999	n/a	No	2.782	n/a	n/a	NoResponse	0	n/a	n/a	4	23	Blank	Neutral	True
230.08	0.3	Control	0.7082999999999999	0.004	No	2.782	-0.004	1.0	NoResponse	0	0.216	n/a	4	23	ButtonPress	Neutral	True
230.566	1.45	Control	0.7082999999999999	n/a	No	2.782	n/a	5.0	NoResponse	0	0.0	229.566	4	23	Feedback	Neutral	True
232.02	2.782	Control	0.7082999999999999	n/a	No	2.782	n/a	n/a	NoResponse	0	0.0	n/a	4	23	ISIslide	Neutral	True
234.828	0.25	Win2	0.68	0.001	No	3.122	0.028	n/a	NoResponse	0	n/a	n/a	4	24	Cue	MissedWin	True
235.079	3.95	Win2	0.68	0.0	No	3.122	0.001	n/a	NoResponse	0	n/a	n/a	4	24	Fixation	MissedWin	True
239.024	0.16	Win2	0.68	0.004	No	3.122	-0.004	1.0	NoResponse	0	0.189	238.213	4	24	Target	MissedWin	True
239.192	0.54	Win2	0.68	n/a	No	3.122	n/a	n/a	NoResponse	0	n/a	n/a	4	24	Blank	MissedWin	True
239.213	0.3	Win2	0.68	0.004	No	3.122	-0.004	1.0	NoResponse	0	0.189	n/a	4	24	ButtonPress	MissedWin	True
239.726	1.45	Win2	0.68	n/a	No	3.122	n/a	5.0	NoResponse	0	0.007	238.733	4	24	Feedback	MissedWin	True
241.181	3.122	Win2	0.68	n/a	No	3.122	n/a	n/a	NoResponse	0	0.0	n/a	4	24	ISIslide	MissedWin	True
244.324	0.25	Win2	0.6537999999999999	0.0	No	3.076	0.024	n/a	NoResponse	0	n/a	n/a	4	25	Cue	MissedWin	True
244.574	4.0	Win2	0.6537999999999999	0.0	No	3.076	0.0	n/a	NoResponse	0	n/a	n/a	4	25	Fixation	MissedWin	True
248.57	0.15	Win2	0.6537999999999999	0.004	No	3.076	-0.004	1.0	NoResponse	0	0.225	247.795	4	25	Target	MissedWin	True
248.72	0.55	Win2	0.6537999999999999	n/a	No	3.076	n/a	n/a	NoResponse	0	n/a	n/a	4	25	Blank	MissedWin	True
248.795	0.3	Win2	0.6537999999999999	0.004	No	3.076	-0.004	1.0	NoResponse	0	0.225	n/a	4	25	ButtonPress	MissedWin	True
249.272	1.45	Win2	0.6537999999999999	n/a	No	3.076	n/a	5.0	NoResponse	0	0.021	248.293	4	25	Feedback	MissedWin	True
250.726	3.076	Win2	0.6537999999999999	n/a	No	3.076	n/a	n/a	NoResponse	0	0.0	n/a	4	25	ISIslide	MissedWin	True
253.819	0.25	Win2	0.6296	0.0	No	2.931	0.019	n/a	NoResponse	0	n/a	n/a	4	26	Cue	MissedWin	True
254.07	3.95	Win2	0.6296	0.0	No	2.931	0.001	n/a	NoResponse	0	n/a	n/a	4	26	Fixation	MissedWin	True
258.015	0.16	Win2	0.6296	0.004	No	2.931	-0.004	1.0	NoResponse	0	0.189	257.204	4	26	Target	MissedWin	True
258.182	0.54	Win2	0.6296	n/a	No	2.931	n/a	n/a	NoResponse	0	n/a	n/a	4	26	Blank	MissedWin	True
258.204	0.3	Win2	0.6296	0.004	No	2.931	-0.004	1.0	NoResponse	0	0.189	n/a	4	26	ButtonPress	MissedWin	True
258.717	1.45	Win2	0.6296	n/a	No	2.931	n/a	5.0	NoResponse	0	0.039	257.756	4	26	Feedback	MissedWin	True
260.171	2.931	Win2	0.6296	n/a	No	2.931	n/a	1.0	NoResponse	0	0.171	n/a	4	26	ISIslide	MissedWin	True
263.097	0.25	Lose2	0.6071	0.0	No	2.853	-0.003	n/a	NoResponse	-1	n/a	n/a	3	27	Cue	Loss	True
263.347	4.05	Lose2	0.6071	0.0	No	2.853	0.0	n/a	NoResponse	-1	n/a	n/a	3	27	Fixation	Loss	True
267.393	0.17	Lose2	0.6071	0.004	No	2.853	-0.004	1.0	NoResponse	-1	0.209	266.602	3	27	Target	Loss	True
267.577	0.53	Lose2	0.6071	n/a	No	2.853	n/a	n/a	NoResponse	-1	n/a	n/a	3	27	Blank	Loss	True
267.602	0.3	Lose2	0.6071	0.004	No	2.853	-0.004	1.0	NoResponse	-1	0.209	n/a	3	27	ButtonPress	Loss	True
268.095	1.45	Lose2	0.6071	n/a	No	2.853	n/a	5.0	NoResponse	-1	0.027	267.122	3	27	Feedback	Loss	True
269.549	2.853	Lose2	0.6071	n/a	No	2.853	n/a	n/a	NoResponse	-1	0.0	n/a	3	27	ISIslide	Loss	True
272.425	0.25	Control	0.5861999999999999	0.0	No	2.825	0.025	n/a	NoResponse	0	n/a	n/a	3	28	Cue	Neutral	True
272.675	4.05	Control	0.5861999999999999	0.0	No	2.825	0.0	n/a	NoResponse	0	n/a	n/a	3	28	Fixation	Neutral	True
276.721	0.18	Control	0.5861999999999999	0.004	No	2.825	-0.004	1.0	NoResponse	0	0.191	275.912	3	28	Target	Neutral	True
276.905	0.52	Control	0.5861999999999999	n/a	No	2.825	n/a	n/a	NoResponse	0	n/a	n/a	3	28	Blank	Neutral	True
276.912	0.3	Control	0.5861999999999999	0.004	No	2.825	-0.004	1.0	NoResponse	0	0.191	n/a	3	28	ButtonPress	Neutral	True
277.423	1.45	Control	0.5861999999999999	n/a	No	2.825	n/a	5.0	NoResponse	0	0.016	276.439	3	28	Feedback	Neutral	True
278.877	2.825	Control	0.5861999999999999	n/a	No	2.825	n/a	n/a	NoResponse	0	0.0	n/a	3	28	ISIslide	Neutral	True
281.719	0.25	Lose2	0.5667	0.0	No	2.831	0.019	n/a	NoResponse	-1	n/a	n/a	2	29	Cue	Loss	True
281.97	3.95	Lose2	0.5667	0.0	No	2.831	0.001	n/a	NoResponse	-1	n/a	n/a	2	29	Fixation	Loss	True
285.915	0.19	Lose2	0.5667	0.004	No	2.831	-0.004	1.0	NoResponse	-1	0.235	285.15	2	29	Target	Loss	True
286.116	0.51	Lose2	0.5667	n/a	No	2.831	n/a	n/a	NoResponse	-1	n/a	n/a	2	29	Blank	Loss	True
286.15	0.3	Lose2	0.5667	0.004	No	2.831	-0.004	1.0	NoResponse	-1	0.235	n/a	2	29	ButtonPress	Loss	True
286.617	1.45	Lose2	0.5667	n/a	No	2.831	n/a	5.0	NoResponse	-1	0.0	285.617	2	29	Feedback	Loss	True
288.072	2.831	Lose2	0.5667	n/a	No	2.831	n/a	n/a	NoResponse	-1	0.0	n/a	2	29	ISIslide	Loss	True
290.93	0.25	Win2	0.5484	0.0	No	2.77	0.03	n/a	NoResponse	0	n/a	n/a	2	30	Cue	MissedWin	True
291.181	3.9	Win2	0.5484	0.0	No	2.77	0.001	n/a	NoResponse	0	n/a	n/a	2	30	Fixation	MissedWin	True
295.076	0.2	Win2	0.5484	0.004	No	2.77	-0.004	1.0	NoResponse	0	0.255	294.331	2	30	Target	MissedWin	True
295.276	0.5	Win2	0.5484	n/a	No	2.77	n/a	n/a	NoResponse	0	n/a	n/a	2	30	Blank	MissedWin	True
295.331	0.3	Win2	0.5484	0.004	No	2.77	-0.004	1.0	NoResponse	0	0.255	n/a	2	30	ButtonPress	MissedWin	True
295.778	1.45	Win2	0.5484	n/a	No	2.77	n/a	5.0	NoResponse	0	0.007	294.785	2	30	Feedback	MissedWin	True
297.232	2.77	Win2	0.5484	n/a	No	2.77	n/a	n/a	NoResponse	0	0.0	n/a	2	30	ISIslide	MissedWin	True
300.024	0.25	Lose2	0.5625	0.0	Yes	2.826	0.024	n/a	GoodResponse	0	n/a	n/a	2	31	Cue	AvoidedLoss	True
300.275	4.05	Lose2	0.5625	0.0	Yes	2.826	0.001	n/a	GoodResponse	0	n/a	n/a	2	31	Fixation	AvoidedLoss	True
304.32	0.21	Lose2	0.5625	0.004	Yes	2.826	-0.004	1.0	GoodResponse	0	0.195	303.515	2	31	Target	AvoidedLoss	True
304.515	0.3	Lose2	0.5625	0.004	Yes	2.826	-0.004	1.0	GoodResponse	0	0.195	n/a	2	31	ButtonPress	AvoidedLoss	True
304.538	0.49	Lose2	0.5625	n/a	Yes	2.826	n/a	n/a	GoodResponse	0	n/a	n/a	2	31	Blank	AvoidedLoss	True
305.022	1.45	Lose2	0.5625	n/a	Yes	2.826	n/a	5.0	GoodResponse	0	0.026	304.048	2	31	Feedback	AvoidedLoss	True
306.477	2.826	Lose2	0.5625	n/a	Yes	2.826	n/a	n/a	GoodResponse	0	0.0	n/a	2	31	ISIslide	AvoidedLoss	True
309.319	0.25	Lose2	0.5455	0.0	No	2.631	0.019	n/a	LatePress	-1	n/a	n/a	1	32	Cue	Loss	False
309.569	4.15	Lose2	0.5455	0.0	No	2.631	0.0	1.0	LatePress	-1	3.732	312.301	1	32	Fixation	Loss	False
313.301	0.3	Lose2	0.5455	0.0	No	2.631	0.0	1.0	LatePress	-1	3.732	n/a	1	32	ButtonPress	Loss	False
313.715	0.22	Lose2	0.5455	0.004	No	2.631	-0.004	1.0	LatePress	-1	0.233	312.948	1	32	Target	Loss	False
313.948	0.3	Lose2	0.5455	0.004	No	2.631	-0.004	1.0	LatePress	-1	0.233	n/a	1	32	ButtonPress	Loss	False
313.949	0.48	Lose2	0.5455	n/a	No	2.631	n/a	n/a	LatePress	-1	n/a	n/a	1	32	Blank	Loss	False
314.417	1.45	Lose2	0.5455	n/a	No	2.631	n/a	5.0	LatePress	-1	0.001	313.418	1	32	Feedback	Loss	False
315.872	2.631	Lose2	0.5455	n/a	No	2.631	n/a	n/a	LatePress	-1	0.0	n/a	1	32	ISIslide	Loss	False
318.53	0.25	Win2	0.5588000000000001	0.0	Yes	2.67	0.03	n/a	GoodResponse	1	n/a	n/a	2	33	Cue	Win	True
318.78	4.0	Win2	0.5588000000000001	0.0	Yes	2.67	0.0	n/a	GoodResponse	1	n/a	n/a	2	33	Fixation	Win	True
322.776	0.23	Win2	0.5588000000000001	0.004	Yes	2.67	-0.004	1.0	GoodResponse	1	0.189	321.965	2	33	Target	Win	True
322.965	0.3	Win2	0.5588000000000001	0.004	Yes	2.67	-0.004	1.0	GoodResponse	1	0.189	n/a	2	33	ButtonPress	Win	True
323.01	0.47	Win2	0.5588000000000001	n/a	Yes	2.67	n/a	n/a	GoodResponse	1	n/a	n/a	2	33	Blank	Win	True
323.478	1.45	Win2	0.5588000000000001	n/a	Yes	2.67	n/a	5.0	GoodResponse	1	0.01	322.488	2	33	Feedback	Win	True
324.932	2.67	Win2	0.5588000000000001	n/a	Yes	2.67	n/a	n/a	GoodResponse	1	0.0	n/a	2	33	ISIslide	Win	True
327.623	0.25	Lose2	0.5714	0.001	Yes	2.627	0.023	n/a	GoodResponse	0	n/a	n/a	2	34	Cue	AvoidedLoss	False
327.874	4.05	Lose2	0.5714	0.0	Yes	2.627	0.001	1.0	GoodResponse	0	3.726	330.6	2	34	Fixation	AvoidedLoss	False
331.6	0.3	Lose2	0.5714	0.0	Yes	2.627	0.001	1.0	GoodResponse	0	3.726	n/a	2	34	ButtonPress	AvoidedLoss	False
331.92	0.24	Lose2	0.5714	0.003	Yes	2.627	-0.003	1.0	GoodResponse	0	0.197	331.117	2	34	Target	AvoidedLoss	False
332.117	0.3	Lose2	0.5714	0.003	Yes	2.627	-0.003	1.0	GoodResponse	0	0.197	n/a	2	34	ButtonPress	AvoidedLoss	False
332.17	0.46	Lose2	0.5714	n/a	Yes	2.627	n/a	n/a	GoodResponse	0	n/a	n/a	2	34	Blank	AvoidedLoss	False
332.622	1.45	Lose2	0.5714	n/a	Yes	2.627	n/a	5.0	GoodResponse	0	0.036	331.658	2	34	Feedback	AvoidedLoss	False
334.076	2.627	Lose2	0.5714	n/a	Yes	2.627	n/a	n/a	GoodResponse	0	0.0	n/a	2	34	ISIslide	AvoidedLoss	False
336.717	0.25	Lose2	0.5832999999999999	0.001	Yes	2.683	0.017	n/a	GoodResponse	0	n/a	n/a	2	35	Cue	AvoidedLoss	True
336.968	4.0	Lose2	0.5832999999999999	0.0	Yes	2.683	0.001	n/a	GoodResponse	0	n/a	n/a	2	35	Fixation	AvoidedLoss	True
340.964	0.25	Lose2	0.5832999999999999	0.003	Yes	2.683	-0.003	1.0	GoodResponse	0	0.241	340.205	2	35	Target	AvoidedLoss	True
341.205	0.3	Lose2	0.5832999999999999	0.003	Yes	2.683	-0.003	1.0	GoodResponse	0	0.241	n/a	2	35	ButtonPress	AvoidedLoss	True
341.214	0.45	Lose2	0.5832999999999999	n/a	Yes	2.683	n/a	n/a	GoodResponse	0	n/a	n/a	2	35	Blank	AvoidedLoss	True
341.666	1.45	Lose2	0.5832999999999999	n/a	Yes	2.683	n/a	5.0	GoodResponse	0	0.017	340.683	2	35	Feedback	AvoidedLoss	True
343.12	2.683	Lose2	0.5832999999999999	n/a	Yes	2.683	n/a	n/a	GoodResponse	0	0.0	n/a	2	35	ISIslide	AvoidedLoss	True
345.828	0.25	Control	0.5946	0.0	Yes	2.672	0.028	n/a	GoodResponse	0	n/a	n/a	2	36	Cue	Neutral	True
346.079	4.0	Control	0.5946	0.0	Yes	2.672	0.001	n/a	GoodResponse	0	n/a	n/a	2	36	Fixation	Neutral	True
350.074	0.26	Control	0.5946	0.004	Yes	2.672	-0.004	1.0	GoodResponse	0	0.25	349.324	2	36	Target	Neutral	True
350.324	0.3	Control	0.5946	0.004	Yes	2.672	-0.004	1.0	GoodResponse	0	0.25	n/a	2	36	ButtonPress	Neutral	True
350.342	0.44	Control	0.5946	n/a	Yes	2.672	n/a	n/a	GoodResponse	0	n/a	n/a	2	36	Blank	Neutral	True
350.776	1.45	Control	0.5946	n/a	Yes	2.672	n/a	5.0	GoodResponse	0	0.029	349.805	2	36	Feedback	Neutral	True
352.231	2.672	Control	0.5946	n/a	Yes	2.672	n/a	n/a	GoodResponse	0	0.0	n/a	2	36	ISIslide	Neutral	True
354.922	0.25	Win2	0.6053000000000001	0.0	Yes	2.878	0.022	n/a	GoodResponse	1	n/a	n/a	3	37	Cue	Win	True
355.173	4.0	Win2	0.6053000000000001	0.0	Yes	2.878	0.001	n/a	GoodResponse	1	n/a	n/a	3	37	Fixation	Win	True
359.168	0.27	Win2	0.6053000000000001	0.004	Yes	2.878	-0.004	1.0	GoodResponse	1	0.223	358.391	3	37	Target	Win	True
359.391	0.3	Win2	0.6053000000000001	0.004	Yes	2.878	-0.004	1.0	GoodResponse	1	0.223	n/a	3	37	ButtonPress	Win	True
359.452	0.43	Win2	0.6053000000000001	n/a	Yes	2.878	n/a	n/a	GoodResponse	1	n/a	n/a	3	37	Blank	Win	True
359.87	1.45	Win2	0.6053000000000001	n/a	Yes	2.878	n/a	5.0	GoodResponse	1	0.008	358.878	3	37	Feedback	Win	True
361.325	2.878	Win2	0.6053000000000001	n/a	Yes	2.878	n/a	n/a	GoodResponse	1	0.0	n/a	3	37	ISIslide	Win	True
364.217	0.25	Lose2	0.6154	0.0	Yes	2.833	0.017	n/a	GoodResponse	0	n/a	n/a	3	38	Cue	AvoidedLoss	True
364.467	3.95	Lose2	0.6154	0.0	Yes	2.833	0.0	n/a	GoodResponse	0	n/a	n/a	3	38	Fixation	AvoidedLoss	True
368.429	0.28	Lose2	0.6154	0.0	Yes	2.833	0.012	1.0	GoodResponse	0	0.217	367.646	3	38	Target	AvoidedLoss	True
368.646	0.3	Lose2	0.6154	0.0	Yes	2.833	0.012	1.0	GoodResponse	0	0.217	n/a	3	38	ButtonPress	AvoidedLoss	True
368.697	0.42	Lose2	0.6154	n/a	Yes	2.833	n/a	n/a	GoodResponse	0	n/a	n/a	3	38	Blank	AvoidedLoss	True
369.115	1.45	Lose2	0.6154	n/a	Yes	2.833	n/a	5.0	GoodResponse	0	0.032	368.147	3	38	Feedback	AvoidedLoss	True
370.569	2.833	Lose2	0.6154	n/a	Yes	2.833	n/a	n/a	GoodResponse	0	0.0	n/a	3	38	ISIslide	AvoidedLoss	True
373.428	0.25	Win2	0.625	0.0	Yes	2.972	0.028	n/a	GoodResponse	1	n/a	n/a	4	39	Cue	Win	True
373.678	4.1	Win2	0.625	0.0	Yes	2.972	0.0	n/a	GoodResponse	1	n/a	n/a	4	39	Fixation	Win	True
377.774	0.29	Win2	0.625	0.004	Yes	2.972	-0.004	1.0	GoodResponse	1	0.206	376.98	4	39	Target	Win	True
377.98	0.3	Win2	0.625	0.004	Yes	2.972	-0.004	1.0	GoodResponse	1	0.206	n/a	4	39	ButtonPress	Win	True
378.075	0.41	Win2	0.625	n/a	Yes	2.972	n/a	n/a	GoodResponse	1	n/a	n/a	4	39	Blank	Win	True
378.476	1.45	Win2	0.625	n/a	Yes	2.972	n/a	5.0	GoodResponse	1	0.036	377.512	4	39	Feedback	Win	True
379.93	2.972	Win2	0.625	n/a	Yes	2.972	n/a	n/a	GoodResponse	1	0.0	n/a	4	39	ISIslide	Win	True
382.923	0.25	Win2	0.6341	0.0	Yes	2.727	0.023	n/a	GoodResponse	1	n/a	n/a	5	40	Cue	Win	True
383.173	3.95	Win2	0.6341	0.001	Yes	2.727	0.0	n/a	GoodResponse	1	n/a	n/a	5	40	Fixation	Win	True
387.119	0.3	Win2	0.6341	0.004	Yes	2.727	-0.004	1.0	GoodResponse	1	0.212	386.331	5	40	Target	Win	True
387.331	0.3	Win2	0.6341	0.004	Yes	2.727	-0.004	1.0	GoodResponse	1	0.212	n/a	5	40	ButtonPress	Win	True
387.42	0.4	Win2	0.6341	n/a	Yes	2.727	n/a	n/a	GoodResponse	1	n/a	n/a	5	40	Blank	Win	True
387.821	1.45	Win2	0.6341	n/a	Yes	2.727	n/a	5.0	GoodResponse	1	0.008	386.829	5	40	Feedback	Win	True
389.275	2.727	Win2	0.6341	n/a	Yes	2.727	n/a	n/a	GoodResponse	1	0.0	n/a	5	40	ISIslide	Win	True
392.017	0.25	Win2	0.6429	0.0	Yes	2.783	0.017	n/a	GoodResponse	1	n/a	n/a	6	41	Cue	Win	True
392.267	3.9	Win2	0.6429	0.0	Yes	2.783	0.0	n/a	GoodResponse	1	n/a	n/a	6	41	Fixation	Win	True
396.179	0.31	Win2	0.6429	0.0	Yes	2.783	0.012	1.0	GoodResponse	1	0.211	395.39	6	41	Target	Win	True
396.39	0.3	Win2	0.6429	0.0	Yes	2.783	0.012	1.0	GoodResponse	1	0.211	n/a	6	41	ButtonPress	Win	True
396.48	0.39	Win2	0.6429	n/a	Yes	2.783	n/a	n/a	GoodResponse	1	n/a	n/a	6	41	Blank	Win	True
396.865	1.45	Win2	0.6429	n/a	Yes	2.783	n/a	5.0	GoodResponse	1	0.037	395.902	6	41	Feedback	Win	True
398.319	2.783	Win2	0.6429	n/a	Yes	2.783	n/a	n/a	GoodResponse	1	0.0	n/a	6	41	ISIslide	Win	True
401.127	0.25	Control	0.6512	0.0	Yes	2.923	0.027	n/a	GoodResponse	0	n/a	n/a	6	42	Cue	Neutral	True
401.378	3.85	Control	0.6512	0.0	Yes	2.923	0.001	n/a	GoodResponse	0	n/a	n/a	6	42	Fixation	Neutral	True
405.223	0.32	Control	0.6512	0.004	Yes	2.923	-0.004	1.0	GoodResponse	0	0.258	404.481	6	42	Target	Neutral	True
405.481	0.3	Control	0.6512	0.004	Yes	2.923	-0.004	1.0	GoodResponse	0	0.258	n/a	6	42	ButtonPress	Neutral	True
405.557	0.38	Control	0.6512	n/a	Yes	2.923	n/a	n/a	GoodResponse	0	n/a	n/a	6	42	Blank	Neutral	True
405.925	1.45	Control	0.6512	n/a	Yes	2.923	n/a	5.0	GoodResponse	0	0.002	404.927	6	42	Feedback	Neutral	True
407.379	2.923	Control	0.6512	n/a	Yes	2.923	n/a	n/a	GoodResponse	0	0.0	n/a	6	42	ISIslide	Neutral	True
410.322	0.25	Win2	0.6591	0.0	Yes	3.178	0.022	n/a	GoodResponse	1	n/a	n/a	7	43	Cue	Win	True
410.572	4.0	Win2	0.6591	0.0	Yes	3.178	0.0	n/a	GoodResponse	1	n/a	n/a	7	43	Fixation	Win	True
414.568	0.33	Win2	0.6591	0.004	Yes	3.178	-0.004	1.0	GoodResponse	1	0.21	413.778	7	43	Target	Win	True
414.778	0.3	Win2	0.6591	0.004	Yes	3.178	-0.004	1.0	GoodResponse	1	0.21	n/a	7	43	ButtonPress	Win	True
414.902	0.37	Win2	0.6591	n/a	Yes	3.178	n/a	n/a	GoodResponse	1	n/a	n/a	7	43	Blank	Win	True
415.27	1.45	Win2	0.6591	n/a	Yes	3.178	n/a	5.0	GoodResponse	1	0.023	414.293	7	43	Feedback	Win	True
416.724	3.178	Win2	0.6591	n/a	Yes	3.178	n/a	n/a	GoodResponse	1	0.0	n/a	7	43	ISIslide	Win	True
419.917	0.25	Win2	0.6667000000000001	0.0	Yes	2.983	0.017	n/a	GoodResponse	1	n/a	n/a	8	44	Cue	Win	True
420.168	4.0	Win2	0.6667000000000001	0.0	Yes	2.983	0.001	n/a	GoodResponse	1	n/a	n/a	8	44	Fixation	Win	True
424.163	0.33	Win2	0.6667000000000001	0.004	Yes	2.983	-0.004	1.0	GoodResponse	1	0.211	423.374	8	44	Target	Win	True
424.374	0.3	Win2	0.6667000000000001	0.004	Yes	2.983	-0.004	1.0	GoodResponse	1	0.211	n/a	8	44	ButtonPress	Win	True
424.497	0.37	Win2	0.6667000000000001	n/a	Yes	2.983	n/a	n/a	GoodResponse	1	n/a	n/a	8	44	Blank	Win	True
424.865	1.45	Win2	0.6667000000000001	n/a	Yes	2.983	n/a	5.0	GoodResponse	1	0.037	423.902	8	44	Feedback	Win	True
426.32	2.983	Win2	0.6667000000000001	n/a	Yes	2.983	n/a	n/a	GoodResponse	1	0.0	n/a	8	44	ISIslide	Win	True
429.312	0.25	Control	0.6739	0.0	Yes	2.888	0.012	n/a	GoodResponse	0	n/a	n/a	8	45	Cue	Neutral	True
429.563	4.1	Control	0.6739	0.0	Yes	2.888	0.001	n/a	GoodResponse	0	n/a	n/a	8	45	Fixation	Neutral	True
433.658	0.32	Control	0.6739	0.004	Yes	2.888	-0.004	1.0	GoodResponse	0	0.228	432.886	8	45	Target	Neutral	True
433.886	0.3	Control	0.6739	0.004	Yes	2.888	-0.004	1.0	GoodResponse	0	0.228	n/a	8	45	ButtonPress	Neutral	True
433.993	0.38	Control	0.6739	n/a	Yes	2.888	n/a	n/a	GoodResponse	0	n/a	n/a	8	45	Blank	Neutral	True
434.36	1.45	Control	0.6739	n/a	Yes	2.888	n/a	5.0	GoodResponse	0	0.006	433.366	8	45	Feedback	Neutral	True
435.815	2.888	Control	0.6739	n/a	Yes	2.888	n/a	n/a	GoodResponse	0	0.0	n/a	8	45	ISIslide	Neutral	True
438.723	0.25	Lose2	0.6809000000000001	0.001	Yes	3.377	0.023	n/a	GoodResponse	0	n/a	n/a	8	46	Cue	AvoidedLoss	True
438.974	4.0	Lose2	0.6809000000000001	0.0	Yes	3.377	0.001	n/a	GoodResponse	0	n/a	n/a	8	46	Fixation	AvoidedLoss	True
442.97	0.31	Lose2	0.6809000000000001	0.003	Yes	3.377	-0.003	1.0	GoodResponse	0	0.276	442.246	8	46	Target	AvoidedLoss	True
443.246	0.3	Lose2	0.6809000000000001	0.003	Yes	3.377	-0.003	1.0	GoodResponse	0	0.276	n/a	8	46	ButtonPress	AvoidedLoss	True
443.287	0.39	Lose2	0.6809000000000001	n/a	Yes	3.377	n/a	n/a	GoodResponse	0	n/a	n/a	8	46	Blank	AvoidedLoss	True
443.672	1.45	Lose2	0.6809000000000001	n/a	Yes	3.377	n/a	5.0	GoodResponse	0	0.011	442.683	8	46	Feedback	AvoidedLoss	True
445.126	3.377	Lose2	0.6809000000000001	n/a	Yes	3.377	n/a	n/a	GoodResponse	0	0.0	n/a	8	46	ISIslide	AvoidedLoss	True
448.519	0.25	Lose2	0.6875	0.001	Yes	2.681	0.019	n/a	GoodResponse	0	n/a	n/a	8	47	Cue	AvoidedLoss	True
448.77	4.0	Lose2	0.6875	0.0	Yes	2.681	0.001	n/a	GoodResponse	0	n/a	n/a	8	47	Fixation	AvoidedLoss	True
452.766	0.3	Lose2	0.6875	0.003	Yes	2.681	-0.003	1.0	GoodResponse	0	0.246	452.012	8	47	Target	AvoidedLoss	True
453.012	0.3	Lose2	0.6875	0.003	Yes	2.681	-0.003	1.0	GoodResponse	0	0.246	n/a	8	47	ButtonPress	AvoidedLoss	True
453.066	0.4	Lose2	0.6875	n/a	Yes	2.681	n/a	n/a	GoodResponse	0	n/a	n/a	8	47	Blank	AvoidedLoss	True
453.468	1.45	Lose2	0.6875	n/a	Yes	2.681	n/a	5.0	GoodResponse	0	0.019	452.487	8	47	Feedback	AvoidedLoss	True
454.922	2.681	Lose2	0.6875	n/a	Yes	2.681	n/a	n/a	GoodResponse	0	0.0	n/a	8	47	ISIslide	AvoidedLoss	True
457.613	0.25	Lose2	0.6939	0.001	Yes	3.037	0.013	n/a	GoodResponse	0	n/a	n/a	8	48	Cue	AvoidedLoss	True
457.864	3.95	Lose2	0.6939	0.0	Yes	3.037	0.001	n/a	GoodResponse	0	n/a	n/a	8	48	Fixation	AvoidedLoss	True
461.809	0.29	Lose2	0.6939	0.004	Yes	3.037	-0.004	1.0	GoodResponse	0	0.231	461.04	8	48	Target	AvoidedLoss	True
462.04	0.3	Lose2	0.6939	0.004	Yes	3.037	-0.004	1.0	GoodResponse	0	0.231	n/a	8	48	ButtonPress	AvoidedLoss	True
462.11	0.41	Lose2	0.6939	n/a	Yes	3.037	n/a	n/a	GoodResponse	0	n/a	n/a	8	48	Blank	AvoidedLoss	True
462.511	1.45	Lose2	0.6939	n/a	Yes	3.037	n/a	5.0	GoodResponse	0	0.001	461.512	8	48	Feedback	AvoidedLoss	True
463.966	3.037	Lose2	0.6939	n/a	Yes	3.037	n/a	n/a	GoodResponse	0	0.0	n/a	8	48	ISIslide	AvoidedLoss	True
467.025	0.25	Control	0.7	0.0	Yes	2.875	0.025	n/a	GoodResponse	0	n/a	n/a	8	49	Cue	Neutral	True
467.276	4.0	Control	0.7	0.0	Yes	2.875	0.001	n/a	GoodResponse	0	n/a	n/a	8	49	Fixation	Neutral	True
471.271	0.28	Control	0.7	0.005	Yes	2.875	-0.004	1.0	GoodResponse	0	0.23	470.501	8	49	Target	Neutral	True
471.501	0.3	Control	0.7	0.005	Yes	2.875	-0.004	1.0	GoodResponse	0	0.23	n/a	8	49	ButtonPress	Neutral	True
471.555	0.42	Control	0.7	n/a	Yes	2.875	n/a	n/a	GoodResponse	0	n/a	n/a	8	49	Blank	Neutral	True
471.973	1.45	Control	0.7	n/a	Yes	2.875	n/a	5.0	GoodResponse	0	0.002	470.975	8	49	Feedback	Neutral	True
473.428	2.875	Control	0.7	n/a	Yes	2.875	n/a	n/a	GoodResponse	0	0.0	n/a	8	49	ISIslide	Neutral	True
476.32	0.25	Control	0.7059000000000001	0.0	Yes	2.78	0.02	n/a	GoodResponse	0	n/a	n/a	8	50	Cue	Neutral	True
476.57	4.0	Control	0.7059000000000001	0.0	Yes	2.78	0.0	n/a	GoodResponse	0	n/a	n/a	8	50	Fixation	Neutral	True
480.566	0.27	Control	0.7059000000000001	0.004	Yes	2.78	-0.004	1.0	GoodResponse	0	0.258	479.824	8	50	Target	Neutral	True
480.824	0.3	Control	0.7059000000000001	0.004	Yes	2.78	-0.004	1.0	GoodResponse	0	0.258	n/a	8	50	ButtonPress	Neutral	True
480.85	0.43	Control	0.7059000000000001	n/a	Yes	2.78	n/a	n/a	GoodResponse	0	n/a	n/a	8	50	Blank	Neutral	True
481.268	1.45	Control	0.7059000000000001	n/a	Yes	2.78	n/a	5.0	GoodResponse	0	0.024	480.292	8	50	Feedback	Neutral	True
482.722	2.78	Control	0.7059000000000001	n/a	Yes	2.78	n/a	n/a	GoodResponse	0	0.0	n/a	8	50	ISIslide	Neutral	True
485.514	0.25	Control	0.7115	0.0	Yes	2.736	0.014	n/a	GoodResponse	0	n/a	n/a	8	51	Cue	Neutral	True
485.765	3.95	Control	0.7115	0.0	Yes	2.736	0.001	n/a	GoodResponse	0	n/a	n/a	8	51	Fixation	Neutral	True
489.71	0.26	Control	0.7115	0.004	Yes	2.736	-0.004	1.0	GoodResponse	0	0.215	488.925	8	51	Target	Neutral	True
489.925	0.3	Control	0.7115	0.004	Yes	2.736	-0.004	1.0	GoodResponse	0	0.215	n/a	8	51	ButtonPress	Neutral	True
489.977	0.44	Control	0.7115	n/a	Yes	2.736	n/a	n/a	GoodResponse	0	n/a	n/a	8	51	Blank	Neutral	True
490.412	1.45	Control	0.7115	n/a	Yes	2.736	n/a	5.0	GoodResponse	0	0.005	489.417	8	51	Feedback	Neutral	True
491.866	2.736	Control	0.7115	n/a	Yes	2.736	n/a	n/a	GoodResponse	0	0.0	n/a	8	51	ISIslide	Neutral	True
494.624	0.25	Control	0.7170000000000001	0.001	Yes	2.626	0.024	n/a	GoodResponse	0	n/a	n/a	8	52	Cue	Neutral	True
494.875	4.05	Control	0.7170000000000001	0.0	Yes	2.626	0.001	n/a	GoodResponse	0	n/a	n/a	8	52	Fixation	Neutral	True
498.921	0.25	Control	0.7170000000000001	0.003	Yes	2.626	-0.003	1.0	GoodResponse	0	0.21	498.131	8	52	Target	Neutral	True
499.131	0.3	Control	0.7170000000000001	0.003	Yes	2.626	-0.003	1.0	GoodResponse	0	0.21	n/a	8	52	ButtonPress	Neutral	True
499.171	0.45	Control	0.7170000000000001	n/a	Yes	2.626	n/a	n/a	GoodResponse	0	n/a	n/a	8	52	Blank	Neutral	True
499.623	1.45	Control	0.7170000000000001	n/a	Yes	2.626	n/a	5.0	GoodResponse	0	0.011	498.634	8	52	Feedback	Neutral	True
501.077	2.626	Control	0.7170000000000001	n/a	Yes	2.626	n/a	n/a	GoodResponse	0	0.0	n/a	8	52	ISIslide	Neutral	True
503.718	0.25	Win2	0.7222	0.0	Yes	2.932	0.018	n/a	GoodResponse	1	n/a	n/a	9	53	Cue	Win	True
503.969	4.05	Win2	0.7222	0.0	Yes	2.932	0.001	n/a	GoodResponse	1	n/a	n/a	9	53	Fixation	Win	True
508.015	0.24	Win2	0.7222	0.003	Yes	2.932	-0.003	1.0	GoodResponse	1	0.214	507.229	9	53	Target	Win	True
508.229	0.3	Win2	0.7222	0.003	Yes	2.932	-0.003	1.0	GoodResponse	1	0.214	n/a	9	53	ButtonPress	Win	True
508.265	0.46	Win2	0.7222	n/a	Yes	2.932	n/a	n/a	GoodResponse	1	n/a	n/a	9	53	Blank	Win	True
508.717	1.45	Win2	0.7222	n/a	Yes	2.932	n/a	5.0	GoodResponse	1	0.039	507.756	9	53	Feedback	Win	True
510.171	2.932	Win2	0.7222	n/a	Yes	2.932	n/a	n/a	GoodResponse	1	0.0	n/a	9	53	ISIslide	Win	True
513.113	0.25	Win2	0.7091	0.0	No	2.737	0.013	n/a	NoResponse	0	n/a	n/a	9	54	Cue	MissedWin	True
513.364	3.95	Win2	0.7091	0.0	No	2.737	0.001	n/a	NoResponse	0	n/a	n/a	9	54	Fixation	MissedWin	True
517.309	0.23	Win2	0.7091	0.004	No	2.737	-0.004	1.0	NoResponse	0	0.315	516.624	9	54	Target	MissedWin	True
517.543	0.47	Win2	0.7091	n/a	No	2.737	n/a	n/a	NoResponse	0	n/a	n/a	9	54	Blank	MissedWin	True
517.624	0.3	Win2	0.7091	0.004	No	2.737	-0.004	1.0	NoResponse	0	0.315	n/a	9	54	ButtonPress	MissedWin	True
518.011	1.45	Win2	0.7091	n/a	No	2.737	n/a	5.0	NoResponse	0	0.014	517.025	9	54	Feedback	MissedWin	True
519.466	2.737	Win2	0.7091	n/a	No	2.737	n/a	n/a	NoResponse	0	0.0	n/a	9	54	ISIslide	MissedWin	True
522.224	0.25	Control	0.7143	0.0	Yes	3.026	0.024	n/a	GoodResponse	0	n/a	n/a	9	55	Cue	Neutral	True
522.475	3.95	Control	0.7143	0.0	Yes	3.026	0.001	n/a	GoodResponse	0	n/a	n/a	9	55	Fixation	Neutral	True
526.42	0.22	Control	0.7143	0.004	Yes	3.026	-0.004	1.0	GoodResponse	0	0.177	525.597	9	55	Target	Neutral	True
526.597	0.3	Control	0.7143	0.004	Yes	3.026	-0.004	1.0	GoodResponse	0	0.177	n/a	9	55	ButtonPress	Neutral	True
526.654	0.48	Control	0.7143	n/a	Yes	3.026	n/a	n/a	GoodResponse	0	n/a	n/a	9	55	Blank	Neutral	True
527.122	1.45	Control	0.7143	n/a	Yes	3.026	n/a	5.0	GoodResponse	0	0.024	526.146	9	55	Feedback	Neutral	True
528.576	3.026	Control	0.7143	n/a	Yes	3.026	n/a	n/a	GoodResponse	0	0.0	n/a	9	55	ISIslide	Neutral	True
531.619	0.25	Control	0.7018000000000001	0.0	No	2.831	0.019	n/a	LatePress	0	n/a	n/a	9	56	Cue	Neutral	True
531.87	3.95	Control	0.7018000000000001	0.0	No	2.831	0.001	n/a	LatePress	0	n/a	n/a	9	56	Fixation	Neutral	True
535.815	0.21	Control	0.7018000000000001	0.004	No	2.831	-0.004	1.0	LatePress	0	0.211	535.026	9	56	Target	Neutral	True
536.026	0.3	Control	0.7018000000000001	0.004	No	2.831	-0.004	1.0	LatePress	0	0.211	n/a	9	56	ButtonPress	Neutral	True
536.032	0.49	Control	0.7018000000000001	n/a	No	2.831	n/a	n/a	LatePress	0	n/a	n/a	9	56	Blank	Neutral	True
536.517	1.45	Control	0.7018000000000001	n/a	No	2.831	n/a	5.0	LatePress	0	0.043	535.56	9	56	Feedback	Neutral	True
537.971	2.831	Control	0.7018000000000001	n/a	No	2.831	n/a	n/a	LatePress	0	0.0	n/a	9	56	ISIslide	Neutral	True
540.83	0.25	Control	0.6897	0.0	No	3.47	0.03	n/a	NoResponse	0	n/a	n/a	9	57	Cue	Neutral	True
541.08	4.0	Control	0.6897	0.001	No	3.47	0.0	n/a	NoResponse	0	n/a	n/a	9	57	Fixation	Neutral	True
545.076	0.2	Control	0.6897	0.004	No	3.47	-0.004	1.0	NoResponse	0	0.274	544.35	9	57	Target	Neutral	True
545.293	0.5	Control	0.6897	n/a	No	3.47	n/a	n/a	NoResponse	0	n/a	n/a	9	57	Blank	Neutral	True
545.35	0.3	Control	0.6897	0.004	No	3.47	-0.004	1.0	NoResponse	0	0.274	n/a	9	57	ButtonPress	Neutral	True
545.778	1.45	Control	0.6897	n/a	No	3.47	n/a	5.0	NoResponse	0	0.002	544.78	9	57	Feedback	Neutral	True
547.232	3.47	Control	0.6897	n/a	No	3.47	n/a	n/a	NoResponse	0	0.0	n/a	9	57	ISIslide	Neutral	True
550.726	0.25	Win2	0.6779999999999999	0.0	No	2.724	0.026	n/a	NoResponse	0	n/a	n/a	9	58	Cue	MissedWin	True
550.977	4.05	Win2	0.6779999999999999	0.0	No	2.724	0.001	n/a	NoResponse	0	n/a	n/a	9	58	Fixation	MissedWin	True
555.022	0.19	Win2	0.6779999999999999	0.004	No	2.724	-0.004	1.0	NoResponse	0	0.214	554.236	9	58	Target	MissedWin	True
555.223	0.51	Win2	0.6779999999999999	n/a	No	2.724	n/a	n/a	NoResponse	0	n/a	n/a	9	58	Blank	MissedWin	True
555.236	0.3	Win2	0.6779999999999999	0.004	No	2.724	-0.004	1.0	NoResponse	0	0.214	n/a	9	58	ButtonPress	MissedWin	True
555.724	1.45	Win2	0.6779999999999999	n/a	No	2.724	n/a	5.0	NoResponse	0	0.007	554.731	9	58	Feedback	MissedWin	True
557.179	2.724	Win2	0.6779999999999999	n/a	No	2.724	n/a	n/a	NoResponse	0	0.0	n/a	9	58	ISIslide	MissedWin	True
559.92	0.25	Lose2	0.6667000000000001	0.0	No	2.68	0.02	n/a	NoResponse	-1	n/a	n/a	8	59	Cue	Loss	True
560.171	4.0	Lose2	0.6667000000000001	0.0	No	2.68	0.001	n/a	NoResponse	-1	n/a	n/a	8	59	Fixation	Loss	True
564.166	0.18	Lose2	0.6667000000000001	0.004	No	2.68	-0.004	1.0	NoResponse	-1	0.214	563.38	8	59	Target	Loss	True
564.35	0.52	Lose2	0.6667000000000001	n/a	No	2.68	n/a	n/a	NoResponse	-1	n/a	n/a	8	59	Blank	Loss	True
564.38	0.3	Lose2	0.6667000000000001	0.004	No	2.68	-0.004	1.0	NoResponse	-1	0.214	n/a	8	59	ButtonPress	Loss	True
564.869	1.45	Lose2	0.6667000000000001	n/a	No	2.68	n/a	5.0	NoResponse	-1	0.033	563.902	8	59	Feedback	Loss	True
566.323	2.68	Lose2	0.6667000000000001	n/a	No	2.68	n/a	n/a	NoResponse	-1	0.0	n/a	8	59	ISIslide	Loss	True
569.014	0.25	Control	0.6557	0.0	No	2.686	0.014	n/a	NoResponse	0	n/a	n/a	8	60	Cue	Neutral	True
569.265	4.0	Control	0.6557	0.0	No	2.686	0.001	n/a	NoResponse	0	n/a	n/a	8	60	Fixation	Neutral	True
573.26	0.17	Control	0.6557	0.004	No	2.686	-0.004	1.0	NoResponse	0	0.215	572.475	8	60	Target	Neutral	True
573.444	0.53	Control	0.6557	n/a	No	2.686	n/a	n/a	NoResponse	0	n/a	n/a	8	60	Blank	Neutral	True
573.475	0.3	Control	0.6557	0.004	No	2.686	-0.004	1.0	NoResponse	0	0.215	n/a	8	60	ButtonPress	Neutral	True
573.962	1.45	Control	0.6557	n/a	No	2.686	n/a	5.0	NoResponse	0	0.014	572.976	8	60	Feedback	Neutral	True
575.417	2.686	Control	0.6557	n/a	No	2.686	n/a	n/a	NoResponse	0	0.0	n/a	8	60	ISIslide	Neutral	True
578.125	0.25	Lose2	0.6452	0.0	No	2.975	0.025	n/a	NoResponse	-1	n/a	n/a	7	61	Cue	Loss	True
578.376	4.0	Lose2	0.6452	0.0	No	2.975	0.001	n/a	NoResponse	-1	n/a	n/a	7	61	Fixation	Loss	True
582.371	0.17	Lose2	0.6452	0.004	No	2.975	-0.004	1.0	NoResponse	-1	0.217	581.588	7	61	Target	Loss	True
582.555	0.53	Lose2	0.6452	n/a	No	2.975	n/a	n/a	NoResponse	-1	n/a	n/a	7	61	Blank	Loss	True
582.588	0.3	Lose2	0.6452	0.004	No	2.975	-0.004	1.0	NoResponse	-1	0.217	n/a	7	61	ButtonPress	Loss	True
583.073	1.45	Lose2	0.6452	n/a	No	2.975	n/a	5.0	NoResponse	-1	0.025	582.098	7	61	Feedback	Loss	True
584.527	2.975	Lose2	0.6452	n/a	No	2.975	n/a	n/a	NoResponse	-1	0.0	n/a	7	61	ISIslide	Loss	True
587.52	0.25	Lose2	0.6349	0.0	No	2.88	0.02	n/a	NoResponse	-1	n/a	n/a	6	62	Cue	Loss	True
587.771	3.9	Lose2	0.6349	0.0	No	2.88	0.001	n/a	NoResponse	-1	n/a	n/a	6	62	Fixation	Loss	True
591.666	0.18	Lose2	0.6349	0.004	No	2.88	-0.004	1.0	NoResponse	-1	0.233	590.899	6	62	Target	Loss	True
591.849	0.52	Lose2	0.6349	n/a	No	2.88	n/a	n/a	NoResponse	-1	n/a	n/a	6	62	Blank	Loss	True
591.899	0.3	Lose2	0.6349	0.004	No	2.88	-0.004	1.0	NoResponse	-1	0.233	n/a	6	62	ButtonPress	Loss	True
592.368	1.45	Lose2	0.6349	n/a	No	2.88	n/a	5.0	NoResponse	-1	0.047	591.415	6	62	Feedback	Loss	True
593.822	2.88	Lose2	0.6349	n/a	No	2.88	n/a	n/a	NoResponse	-1	0.0	n/a	6	62	ISIslide	Loss	True
596.714	0.25	Lose2	0.625	0.0	No	2.636	0.014	n/a	NoResponse	-1	n/a	n/a	5	63	Cue	Loss	True
596.965	4.05	Lose2	0.625	0.0	No	2.636	0.001	n/a	NoResponse	-1	n/a	n/a	5	63	Fixation	Loss	True
601.01	0.19	Lose2	0.625	0.004	No	2.636	-0.004	1.0	NoResponse	-1	0.208	600.218	5	63	Target	Loss	True
601.211	0.51	Lose2	0.625	n/a	No	2.636	n/a	n/a	NoResponse	-1	n/a	n/a	5	63	Blank	Loss	True
601.218	0.3	Lose2	0.625	0.004	No	2.636	-0.004	1.0	NoResponse	-1	0.208	n/a	5	63	ButtonPress	Loss	True
601.712	1.45	Lose2	0.625	n/a	No	2.636	n/a	5.0	NoResponse	-1	0.019	600.731	5	63	Feedback	Loss	True
603.167	2.636	Lose2	0.625	n/a	No	2.636	n/a	n/a	NoResponse	-1	0.0	n/a	5	63	ISIslide	Loss	True
605.825	0.25	Win2	0.6154	0.0	No	3.125	0.025	n/a	NoResponse	0	n/a	n/a	5	64	Cue	MissedWin	True
606.075	4.15	Win2	0.6154	0.001	No	3.125	0.0	n/a	NoResponse	0	n/a	n/a	5	64	Fixation	MissedWin	True
610.221	0.2	Win2	0.6154	0.004	No	3.125	-0.004	1.0	NoResponse	0	0.21	609.431	5	64	Target	MissedWin	True
610.422	0.5	Win2	0.6154	n/a	No	3.125	n/a	n/a	NoResponse	0	n/a	n/a	5	64	Blank	MissedWin	True
610.431	0.3	Win2	0.6154	0.004	No	3.125	-0.004	1.0	NoResponse	0	0.21	n/a	5	64	ButtonPress	MissedWin	True
610.923	1.45	Win2	0.6154	n/a	No	3.125	n/a	5.0	NoResponse	0	0.028	609.951	5	64	Feedback	MissedWin	True
612.378	3.125	Win2	0.6154	n/a	No	3.125	n/a	n/a	NoResponse	0	0.0	n/a	5	64	ISIslide	MissedWin	True
615.52	0.25	Control	0.6061	0.001	No	2.78	0.02	n/a	PrematurePress	0	n/a	n/a	5	65	Cue	Neutral	True
615.771	4.0	Control	0.6061	0.0	No	2.78	0.001	n/a	PrematurePress	0	n/a	n/a	5	65	Fixation	Neutral	True
619.767	0.21	Control	0.6061	0.003	No	2.78	-0.003	1.0	PrematurePress	0	0.076	618.843	5	65	Target	Neutral	True
619.843	0.3	Control	0.6061	0.003	No	2.78	-0.003	1.0	PrematurePress	0	0.076	n/a	5	65	ButtonPress	Neutral	True
619.984	0.49	Control	0.6061	n/a	No	2.78	n/a	n/a	PrematurePress	0	n/a	n/a	5	65	Blank	Neutral	True
620.469	1.45	Control	0.6061	n/a	No	2.78	n/a	5.0	PrematurePress	0	0.044	619.513	5	65	Feedback	Neutral	True
621.923	2.78	Control	0.6061	n/a	No	2.78	n/a	n/a	PrematurePress	0	0.0	n/a	5	65	ISIslide	Neutral	True
624.715	0.25	Win2	0.6119	0.0	Yes	2.785	0.015	n/a	GoodResponse	1	n/a	n/a	6	66	Cue	Win	True
624.965	3.9	Win2	0.6119	0.001	Yes	2.785	0.0	n/a	GoodResponse	1	n/a	n/a	6	66	Fixation	Win	True
628.86	0.22	Win2	0.6119	0.005	Yes	2.785	-0.005	1.0	GoodResponse	1	0.206	628.066	6	66	Target	Win	True
629.066	0.3	Win2	0.6119	0.005	Yes	2.785	-0.005	1.0	GoodResponse	1	0.206	n/a	6	66	ButtonPress	Win	True
629.095	0.48	Win2	0.6119	n/a	Yes	2.785	n/a	n/a	GoodResponse	1	n/a	n/a	6	66	Blank	Win	True
629.563	1.45	Win2	0.6119	n/a	Yes	2.785	n/a	5.0	GoodResponse	1	0.022	628.585	6	66	Feedback	Win	True
631.017	2.785	Win2	0.6119	n/a	Yes	2.785	n/a	n/a	GoodResponse	1	0.0	n/a	6	66	ISIslide	Win	True
633.825	0.25	Control	0.6175999999999999	0.0	Yes	2.725	0.025	n/a	GoodResponse	0	n/a	n/a	6	67	Cue	Neutral	True
634.076	3.95	Control	0.6175999999999999	0.0	Yes	2.725	0.001	n/a	GoodResponse	0	n/a	n/a	6	67	Fixation	Neutral	True
638.021	0.23	Control	0.6175999999999999	0.004	Yes	2.725	-0.004	1.0	GoodResponse	0	0.226	637.247	6	67	Target	Neutral	True
638.247	0.3	Control	0.6175999999999999	0.004	Yes	2.725	-0.004	1.0	GoodResponse	0	0.226	n/a	6	67	ButtonPress	Neutral	True
638.255	0.47	Control	0.6175999999999999	n/a	Yes	2.725	n/a	n/a	GoodResponse	0	n/a	n/a	6	67	Blank	Neutral	True
638.723	1.45	Control	0.6175999999999999	n/a	Yes	2.725	n/a	5.0	GoodResponse	0	0.033	637.756	6	67	Feedback	Neutral	True
640.178	2.725	Control	0.6175999999999999	n/a	Yes	2.725	n/a	n/a	GoodResponse	0	0.0	n/a	6	67	ISIslide	Neutral	True
642.919	0.25	Win2	0.6087	0.0	No	3.081	0.019	n/a	NoResponse	0	n/a	n/a	6	68	Cue	MissedWin	True
643.17	4.0	Win2	0.6087	0.0	No	3.081	0.001	n/a	NoResponse	0	n/a	n/a	6	68	Fixation	MissedWin	True
647.165	0.24	Win2	0.6087	0.004	No	3.081	-0.004	1.0	NoResponse	0	0.257	646.422	6	68	Target	MissedWin	True
647.416	0.46	Win2	0.6087	n/a	No	3.081	n/a	n/a	NoResponse	0	n/a	n/a	6	68	Blank	MissedWin	True
647.422	0.3	Win2	0.6087	0.004	No	3.081	-0.004	1.0	NoResponse	0	0.257	n/a	6	68	ButtonPress	MissedWin	True
647.867	1.45	Win2	0.6087	n/a	No	3.081	n/a	5.0	NoResponse	0	0.011	646.878	6	68	Feedback	MissedWin	True
649.322	3.081	Win2	0.6087	n/a	No	3.081	n/a	n/a	NoResponse	0	0.0	n/a	6	68	ISIslide	MissedWin	True
652.414	0.25	Win2	0.6143	0.001	Yes	3.236	0.014	n/a	GoodResponse	1	n/a	n/a	7	69	Cue	Win	True
652.665	3.95	Win2	0.6143	0.0	Yes	3.236	0.001	n/a	GoodResponse	1	n/a	n/a	7	69	Fixation	Win	True
656.61	0.25	Win2	0.6143	0.004	Yes	3.236	-0.004	1.0	GoodResponse	1	0.186	655.796	7	69	Target	Win	True
656.796	0.3	Win2	0.6143	0.004	Yes	3.236	-0.004	1.0	GoodResponse	1	0.186	n/a	7	69	ButtonPress	Win	True
656.861	0.45	Win2	0.6143	n/a	Yes	3.236	n/a	n/a	GoodResponse	1	n/a	n/a	7	69	Blank	Win	True
657.312	1.45	Win2	0.6143	n/a	Yes	3.236	n/a	5.0	GoodResponse	1	0.029	656.341	7	69	Feedback	Win	True
658.784	3.236	Win2	0.6143	n/a	Yes	3.236	n/a	n/a	GoodResponse	1	0.0	n/a	7	69	ISIslide	Win	True
662.027	0.25	Lose2	0.6197	0.0	Yes	3.023	0.027	n/a	GoodResponse	0	n/a	n/a	7	70	Cue	AvoidedLoss	True
662.277	4.05	Lose2	0.6197	0.0	Yes	3.023	0.0	n/a	GoodResponse	0	n/a	n/a	7	70	Fixation	AvoidedLoss	True
666.323	0.26	Lose2	0.6197	0.004	Yes	3.023	-0.004	1.0	GoodResponse	0	0.228	665.551	7	70	Target	AvoidedLoss	True
666.551	0.3	Lose2	0.6197	0.004	Yes	3.023	-0.004	1.0	GoodResponse	0	0.228	n/a	7	70	ButtonPress	AvoidedLoss	True
666.59	0.44	Lose2	0.6197	n/a	Yes	3.023	n/a	n/a	GoodResponse	0	n/a	n/a	7	70	Blank	AvoidedLoss	True
667.025	1.45	Lose2	0.6197	n/a	Yes	3.023	n/a	5.0	GoodResponse	0	0.024	666.049	7	70	Feedback	AvoidedLoss	True
668.479	3.023	Lose2	0.6197	n/a	Yes	3.023	n/a	n/a	GoodResponse	0	0.0	n/a	7	70	ISIslide	AvoidedLoss	True
671.522	0.25	Win2	0.625	0.0	Yes	2.728	0.022	n/a	GoodResponse	1	n/a	n/a	8	71	Cue	Win	True
671.773	4.05	Win2	0.625	0.0	Yes	2.728	0.001	n/a	GoodResponse	1	n/a	n/a	8	71	Fixation	Win	True
675.818	0.27	Win2	0.625	0.004	Yes	2.728	-0.004	1.0	GoodResponse	1	0.249	675.067	8	71	Target	Win	True
676.067	0.3	Win2	0.625	0.004	Yes	2.728	-0.004	1.0	GoodResponse	1	0.249	n/a	8	71	ButtonPress	Win	True
676.102	0.43	Win2	0.625	n/a	Yes	2.728	n/a	n/a	GoodResponse	1	n/a	n/a	8	71	Blank	Win	True
676.52	1.45	Win2	0.625	n/a	Yes	2.728	n/a	5.0	GoodResponse	1	0.04	675.56	8	71	Feedback	Win	True
677.974	2.728	Win2	0.625	n/a	Yes	2.728	n/a	n/a	GoodResponse	1	0.0	n/a	8	71	ISIslide	Win	True
680.716	0.25	Win2	0.6301	0.0	Yes	2.784	0.016	n/a	GoodResponse	1	n/a	n/a	9	72	Cue	Win	True
680.967	4.1	Win2	0.6301	0.0	Yes	2.784	0.001	n/a	GoodResponse	1	n/a	n/a	9	72	Fixation	Win	True
685.062	0.28	Win2	0.6301	0.004	Yes	2.784	-0.004	1.0	GoodResponse	1	0.208	684.27	9	72	Target	Win	True
685.27	0.3	Win2	0.6301	0.004	Yes	2.784	-0.004	1.0	GoodResponse	1	0.208	n/a	9	72	ButtonPress	Win	True
685.347	0.42	Win2	0.6301	n/a	Yes	2.784	n/a	n/a	GoodResponse	1	n/a	n/a	9	72	Blank	Win	True
685.765	1.45	Win2	0.6301	n/a	Yes	2.784	n/a	5.0	GoodResponse	1	0.015	684.78	9	72	Feedback	Win	True
687.219	2.784	Win2	0.6301	n/a	Yes	2.784	n/a	n/a	GoodResponse	1	0.0	n/a	9	72	ISIslide	Win	True
690.027	0.25	Win2	0.6351	0.0	Yes	2.673	0.027	n/a	GoodResponse	1	n/a	n/a	10	73	Cue	Win	False
690.278	4.0	Win2	0.6351	0.0	Yes	2.673	0.001	1.0	GoodResponse	1	3.56	692.838	10	73	Fixation	Win	False
693.838	0.3	Win2	0.6351	0.0	Yes	2.673	0.001	1.0	GoodResponse	1	3.56	n/a	10	73	ButtonPress	Win	False
694.273	0.29	Win2	0.6351	0.004	Yes	2.673	-0.004	1.0	GoodResponse	1	0.164	693.437	10	73	Target	Win	False
694.437	0.3	Win2	0.6351	0.004	Yes	2.673	-0.004	1.0	GoodResponse	1	0.164	n/a	10	73	ButtonPress	Win	False
694.574	0.41	Win2	0.6351	n/a	Yes	2.673	n/a	n/a	GoodResponse	1	n/a	n/a	10	73	Blank	Win	False
694.975	1.45	Win2	0.6351	n/a	Yes	2.673	n/a	5.0	GoodResponse	1	0.024	693.999	10	73	Feedback	Win	False
696.43	2.673	Win2	0.6351	n/a	Yes	2.673	n/a	n/a	GoodResponse	1	0.0	n/a	10	73	ISIslide	Win	False
699.121	0.25	Lose2	0.64	0.0	Yes	2.629	0.021	n/a	GoodResponse	0	n/a	n/a	10	74	Cue	AvoidedLoss	True
699.372	4.05	Lose2	0.64	0.0	Yes	2.629	0.001	n/a	GoodResponse	0	n/a	n/a	10	74	Fixation	AvoidedLoss	True
703.417	0.3	Lose2	0.64	0.004	Yes	2.629	-0.004	1.0	GoodResponse	0	0.19	702.607	10	74	Target	AvoidedLoss	True
703.607	0.3	Lose2	0.64	0.004	Yes	2.629	-0.004	1.0	GoodResponse	0	0.19	n/a	10	74	ButtonPress	AvoidedLoss	True
703.718	0.4	Lose2	0.64	n/a	Yes	2.629	n/a	n/a	GoodResponse	0	n/a	n/a	10	74	Blank	AvoidedLoss	True
704.12	1.45	Lose2	0.64	n/a	Yes	2.629	n/a	5.0	GoodResponse	0	0.004	703.124	10	74	Feedback	AvoidedLoss	True
705.574	2.629	Lose2	0.64	n/a	Yes	2.629	n/a	n/a	GoodResponse	0	0.0	n/a	10	74	ISIslide	AvoidedLoss	True
708.215	0.25	Lose2	0.6446999999999999	0.0	Yes	2.935	0.015	n/a	GoodResponse	0	n/a	n/a	10	75	Cue	AvoidedLoss	True
708.466	3.95	Lose2	0.6446999999999999	0.0	Yes	2.935	0.001	n/a	GoodResponse	0	n/a	n/a	10	75	Fixation	AvoidedLoss	True
712.411	0.31	Lose2	0.6446999999999999	0.004	Yes	2.935	-0.004	1.0	GoodResponse	0	0.221	711.632	10	75	Target	AvoidedLoss	True
712.632	0.3	Lose2	0.6446999999999999	0.004	Yes	2.935	-0.004	1.0	GoodResponse	0	0.221	n/a	10	75	ButtonPress	AvoidedLoss	True
712.729	0.39	Lose2	0.6446999999999999	n/a	Yes	2.935	n/a	n/a	GoodResponse	0	n/a	n/a	10	75	Blank	AvoidedLoss	True
713.113	1.45	Lose2	0.6446999999999999	n/a	Yes	2.935	n/a	5.0	GoodResponse	0	0.033	712.146	10	75	Feedback	AvoidedLoss	True
714.568	2.935	Lose2	0.6446999999999999	n/a	Yes	2.935	n/a	n/a	GoodResponse	0	0.0	n/a	10	75	ISIslide	AvoidedLoss	True
717.526	0.25	Control	0.6364	0.001	No	3.224	0.026	n/a	PrematurePress	0	n/a	n/a	10	76	Cue	Neutral	False
717.777	4.05	Control	0.6364	0.0	No	3.224	0.001	1.0	PrematurePress	0	3.615	720.392	10	76	Fixation	Neutral	False
721.392	0.3	Control	0.6364	0.0	No	3.224	0.001	1.0	PrematurePress	0	3.615	n/a	10	76	ButtonPress	Neutral	False
721.823	0.32	Control	0.6364	0.003	No	3.224	-0.003	1.0	PrematurePress	0	0.069	720.892	10	76	Target	Neutral	False
721.892	0.3	Control	0.6364	0.003	No	3.224	-0.003	1.0	PrematurePress	0	0.069	n/a	10	76	ButtonPress	Neutral	False
722.157	0.38	Control	0.6364	n/a	No	3.224	n/a	n/a	PrematurePress	0	n/a	n/a	10	76	Blank	Neutral	False
722.525	1.45	Control	0.6364	n/a	No	3.224	n/a	5.0	PrematurePress	0	0.036	721.561	10	76	Feedback	Neutral	False
723.979	3.224	Control	0.6364	n/a	No	3.224	n/a	n/a	PrematurePress	0	0.0	n/a	10	76	ISIslide	Neutral	False
727.222	0.25	Lose2	0.6409999999999999	0.0	Yes	2.578	0.022	n/a	GoodResponse	0	n/a	n/a	10	77	Cue	AvoidedLoss	True
727.473	3.95	Lose2	0.6409999999999999	0.0	Yes	2.578	0.001	n/a	GoodResponse	0	n/a	n/a	10	77	Fixation	AvoidedLoss	True
731.418	0.33	Lose2	0.6409999999999999	0.004	Yes	2.578	-0.004	1.0	GoodResponse	0	0.209	730.627	10	77	Target	AvoidedLoss	True
731.627	0.3	Lose2	0.6409999999999999	0.004	Yes	2.578	-0.004	1.0	GoodResponse	0	0.209	n/a	10	77	ButtonPress	AvoidedLoss	True
731.752	0.37	Lose2	0.6409999999999999	n/a	Yes	2.578	n/a	n/a	GoodResponse	0	n/a	n/a	10	77	Blank	AvoidedLoss	True
732.12	1.45	Lose2	0.6409999999999999	n/a	Yes	2.578	n/a	5.0	GoodResponse	0	0.002	731.122	10	77	Feedback	AvoidedLoss	True
733.575	2.578	Lose2	0.6409999999999999	n/a	Yes	2.578	n/a	n/a	GoodResponse	0	0.0	n/a	10	77	ISIslide	AvoidedLoss	True
