onset	duration	cue_type	current_mean_accuracy	duration_error	is_hit	isi_adjusted	onset_delay	response	response_type	reward	rt	rt_time	total_reward	trial_number	trial_phase	trial_type	one_press
11.111	0.25	Control	1.0	0.0	Yes	2.939	0.011	n/a	GoodResponse	0	n/a	n/a	0	0	Cue	Neutral	True
11.362	3.85	Control	1.0	0.0	Yes	2.939	0.001	n/a	GoodResponse	0	n/a	n/a	0	0	Fixation	Neutral	True
15.223	0.4	Control	1.0	0.0	Yes	2.939	0.012	2.0	GoodResponse	0	0.288	14.511	0	0	Target	Neutral	True
15.511	0.3	Control	1.0	0.0	Yes	2.939	0.012	2.0	GoodResponse	0	0.288	n/a	0	0	ButtonPress	Neutral	True
15.608	0.3	Control	1.0	n/a	Yes	2.939	n/a	n/a	GoodResponse	0	n/a	n/a	0	0	Blank	Neutral	True
15.909	1.45	Control	1.0	n/a	Yes	2.939	n/a	5.0	GoodResponse	0	0.018	14.927	0	0	Feedback	Neutral	True
17.363	2.939	Control	1.0	n/a	Yes	2.939	n/a	n/a	GoodResponse	0	0.0	n/a	0	0	ISIslide	Neutral	True
20.322	0.25	Lose2	1.0	0.0	Yes	2.778	0.022	n/a	GoodResponse	0	n/a	n/a	0	1	Cue	AvoidedLoss	True
20.573	4.0	Lose2	1.0	0.0	Yes	2.778	0.001	n/a	GoodResponse	0	n/a	n/a	0	1	Fixation	AvoidedLoss	True
24.568	0.39	Lose2	1.0	0.004	Yes	2.778	-0.004	2.0	GoodResponse	0	0.244	23.812	0	1	Target	AvoidedLoss	True
24.812	0.3	Lose2	1.0	0.004	Yes	2.778	-0.004	2.0	GoodResponse	0	0.244	n/a	0	1	ButtonPress	AvoidedLoss	True
24.969	0.31	Lose2	1.0	n/a	Yes	2.778	n/a	n/a	GoodResponse	0	n/a	n/a	0	1	Blank	AvoidedLoss	True
25.27	1.45	Lose2	1.0	n/a	Yes	2.778	n/a	5.0	GoodResponse	0	0.023	24.293	0	1	Feedback	AvoidedLoss	True
26.724	2.778	Lose2	1.0	n/a	Yes	2.778	n/a	n/a	GoodResponse	0	0.0	n/a	0	1	ISIslide	AvoidedLoss	True
29.516	0.25	Control	1.0	0.0	Yes	2.584	0.016	n/a	GoodResponse	0	n/a	n/a	0	2	Cue	Neutral	True
29.767	4.1	Control	1.0	0.0	Yes	2.584	0.001	n/a	GoodResponse	0	n/a	n/a	0	2	Fixation	Neutral	True
33.862	0.38	Control	1.0	0.004	Yes	2.584	-0.004	2.0	GoodResponse	0	0.228	33.09	0	2	Target	Neutral	True
34.09	0.3	Control	1.0	0.004	Yes	2.584	-0.004	2.0	GoodResponse	0	0.228	n/a	0	2	ButtonPress	Neutral	True
34.247	0.32	Control	1.0	n/a	Yes	2.584	n/a	n/a	GoodResponse	0	n/a	n/a	0	2	Blank	Neutral	True
34.564	1.45	Control	1.0	n/a	Yes	2.584	n/a	5.0	GoodResponse	0	0.046	33.61	0	2	Feedback	Neutral	True
36.019	2.584	Control	1.0	n/a	Yes	2.584	n/a	n/a	GoodResponse	0	0.0	n/a	0	2	ISIslide	Neutral	True
38.627	0.25	Win2	1.0	0.0	Yes	2.823	0.027	n/a	GoodResponse	1	n/a	n/a	1	3	Cue	Win	True
38.877	3.95	Win2	1.0	0.0	Yes	2.823	0.0	n/a	GoodResponse	1	n/a	n/a	1	3	Fixation	Win	True
42.822	0.37	Win2	1.0	0.005	Yes	2.823	-0.005	2.0	GoodResponse	1	0.221	42.043	1	3	Target	Win	True
43.043	0.3	Win2	1.0	0.005	Yes	2.823	-0.005	2.0	GoodResponse	1	0.221	n/a	1	3	ButtonPress	Win	True
43.207	0.33	Win2	1.0	n/a	Yes	2.823	n/a	n/a	GoodResponse	1	n/a	n/a	1	3	Blank	Win	True
43.525	1.45	Win2	1.0	n/a	Yes	2.823	n/a	5.0	GoodResponse	1	0.011	42.536	1	3	Feedback	Win	True
44.979	2.823	Win2	1.0	n/a	Yes	2.823	n/a	n/a	GoodResponse	1	0.0	n/a	1	3	ISIslide	Win	True
47.821	0.25	Win2	1.0	0.0	Yes	3.279	0.021	n/a	GoodResponse	1	n/a	n/a	2	4	Cue	Win	True
48.072	4.0	Win2	1.0	0.0	Yes	3.279	0.001	n/a	GoodResponse	1	n/a	n/a	2	4	Fixation	Win	True
52.067	0.36	Win2	1.0	0.004	Yes	3.279	-0.004	2.0	GoodResponse	1	0.251	51.318	2	4	Target	Win	True
52.318	0.3	Win2	1.0	0.004	Yes	3.279	-0.004	2.0	GoodResponse	1	0.251	n/a	2	4	ButtonPress	Win	True
52.435	0.34	Win2	1.0	n/a	Yes	3.279	n/a	n/a	GoodResponse	1	n/a	n/a	2	4	Blank	Win	True
52.769	1.45	Win2	1.0	n/a	Yes	3.279	n/a	5.0	GoodResponse	1	0.036	51.805	2	4	Feedback	Win	True
54.223	3.279	Win2	1.0	n/a	Yes	3.279	n/a	n/a	GoodResponse	1	0.0	n/a	2	4	ISIslide	Win	True
57.516	0.25	Win2	1.0	0.001	Yes	2.784	0.016	n/a	GoodResponse	1	n/a	n/a	3	5	Cue	Win	True
57.767	4.0	Win2	1.0	0.0	Yes	2.784	0.001	n/a	GoodResponse	1	n/a	n/a	3	5	Fixation	Win	True
61.763	0.35	Win2	1.0	0.003	Yes	2.784	-0.003	2.0	GoodResponse	1	0.275	61.038	3	5	Target	Win	True
62.038	0.3	Win2	1.0	0.003	Yes	2.784	-0.003	2.0	GoodResponse	1	0.275	n/a	3	5	ButtonPress	Win	True
62.114	0.35	Win2	1.0	n/a	Yes	2.784	n/a	n/a	GoodResponse	1	n/a	n/a	3	5	Blank	Win	True
62.465	1.45	Win2	1.0	n/a	Yes	2.784	n/a	5.0	GoodResponse	1	0.047	61.512	3	5	Feedback	Win	True
63.919	2.784	Win2	1.0	n/a	Yes	2.784	n/a	n/a	GoodResponse	1	0.0	n/a	3	5	ISIslide	Win	True
66.727	0.25	Lose2	1.0	0.0	Yes	2.723	0.027	n/a	GoodResponse	0	n/a	n/a	3	6	Cue	AvoidedLoss	True
66.978	3.95	Lose2	1.0	0.0	Yes	2.723	0.001	n/a	GoodResponse	0	n/a	n/a	3	6	Fixation	AvoidedLoss	True
70.923	0.34	Lose2	1.0	0.004	Yes	2.723	-0.004	2.0	GoodResponse	0	0.189	70.112	3	6	Target	AvoidedLoss	True
71.112	0.3	Lose2	1.0	0.004	Yes	2.723	-0.004	2.0	GoodResponse	0	0.189	n/a	3	6	ButtonPress	AvoidedLoss	True
71.274	0.36	Lose2	1.0	n/a	Yes	2.723	n/a	n/a	GoodResponse	0	n/a	n/a	3	6	Blank	AvoidedLoss	True
71.625	1.45	Lose2	1.0	n/a	Yes	2.723	n/a	5.0	GoodResponse	0	0.009	70.634	3	6	Feedback	AvoidedLoss	True
73.08	2.723	Lose2	1.0	n/a	Yes	2.723	n/a	n/a	GoodResponse	0	0.0	n/a	3	6	ISIslide	AvoidedLoss	True
75.821	0.25	Lose2	1.0	0.0	Yes	4.029	0.021	n/a	GoodResponse	0	n/a	n/a	3	7	Cue	AvoidedLoss	True
76.072	4.05	Lose2	1.0	0.0	Yes	4.029	0.001	n/a	GoodResponse	0	n/a	n/a	3	7	Fixation	AvoidedLoss	True
80.117	0.33	Lose2	1.0	0.004	Yes	4.029	-0.004	2.0	GoodResponse	0	0.202	79.319	3	7	Target	AvoidedLoss	True
80.319	0.3	Lose2	1.0	0.004	Yes	4.029	-0.004	2.0	GoodResponse	0	0.202	n/a	3	7	ButtonPress	AvoidedLoss	True
80.452	0.37	Lose2	1.0	n/a	Yes	4.029	n/a	n/a	GoodResponse	0	n/a	n/a	3	7	Blank	AvoidedLoss	True
80.82	1.45	Lose2	1.0	n/a	Yes	4.029	n/a	5.0	GoodResponse	0	0.034	79.854	3	7	Feedback	AvoidedLoss	True
82.274	4.029	Lose2	1.0	n/a	Yes	4.029	n/a	n/a	GoodResponse	0	0.0	n/a	3	7	ISIslide	AvoidedLoss	True
86.319	0.25	Lose2	1.0	0.0	Yes	3.031	0.019	n/a	GoodResponse	0	n/a	n/a	3	8	Cue	AvoidedLoss	True
86.57	3.95	Lose2	1.0	0.0	Yes	3.031	0.001	n/a	GoodResponse	0	n/a	n/a	3	8	Fixation	AvoidedLoss	True
90.515	0.32	Lose2	1.0	0.004	Yes	3.031	-0.004	2.0	GoodResponse	0	0.199	89.714	3	8	Target	AvoidedLoss	True
90.714	0.3	Lose2	1.0	0.004	Yes	3.031	-0.004	2.0	GoodResponse	0	0.199	n/a	3	8	ButtonPress	AvoidedLoss	True
90.85	0.38	Lose2	1.0	n/a	Yes	3.031	n/a	n/a	GoodResponse	0	n/a	n/a	3	8	Blank	AvoidedLoss	True
91.217	1.45	Lose2	1.0	n/a	Yes	3.031	n/a	5.0	GoodResponse	0	0.026	90.243	3	8	Feedback	AvoidedLoss	True
92.672	3.031	Lose2	1.0	n/a	Yes	3.031	n/a	n/a	GoodResponse	0	0.0	n/a	3	8	ISIslide	AvoidedLoss	True
95.714	0.25	Lose2	1.0	0.0	Yes	3.136	0.014	n/a	GoodResponse	0	n/a	n/a	3	9	Cue	AvoidedLoss	True
95.965	3.95	Lose2	1.0	0.0	Yes	3.136	0.001	n/a	GoodResponse	0	n/a	n/a	3	9	Fixation	AvoidedLoss	True
99.91	0.31	Lose2	1.0	0.004	Yes	3.136	-0.004	2.0	GoodResponse	0	0.214	99.124	3	9	Target	AvoidedLoss	True
100.124	0.3	Lose2	1.0	0.004	Yes	3.136	-0.004	2.0	GoodResponse	0	0.214	n/a	3	9	ButtonPress	AvoidedLoss	True
100.228	0.39	Lose2	1.0	n/a	Yes	3.136	n/a	n/a	GoodResponse	0	n/a	n/a	3	9	Blank	AvoidedLoss	True
100.612	1.45	Lose2	1.0	n/a	Yes	3.136	n/a	5.0	GoodResponse	0	0.046	99.658	3	9	Feedback	AvoidedLoss	True
102.066	3.136	Lose2	1.0	n/a	Yes	3.136	n/a	n/a	GoodResponse	0	0.0	n/a	3	9	ISIslide	AvoidedLoss	True
105.226	0.25	Control	0.9091	0.0	No	3.274	0.026	n/a	NoResponse	0	n/a	n/a	3	10	Cue	Neutral	False
105.477	4.0	Control	0.9091	0.0	No	3.274	0.001	n/a	NoResponse	0	n/a	n/a	3	10	Fixation	Neutral	False
109.472	0.3	Control	0.9091	0.004	No	3.274	-0.004	n/a	NoResponse	0	n/a	n/a	3	10	Target	Neutral	False
109.773	0.4	Control	0.9091	n/a	No	3.274	n/a	n/a	NoResponse	0	n/a	n/a	3	10	Blank	Neutral	False
110.174	1.45	Control	0.9091	n/a	No	3.274	n/a	5.0	NoResponse	0	0.045	109.219	3	10	Feedback	Neutral	False
111.628	3.274	Control	0.9091	n/a	No	3.274	n/a	n/a	NoResponse	0	0.0	n/a	3	10	ISIslide	Neutral	False
114.922	0.25	Lose2	0.9167000000000001	0.0	Yes	2.728	0.022	n/a	GoodResponse	0	n/a	n/a	3	11	Cue	AvoidedLoss	True
115.172	4.05	Lose2	0.9167000000000001	0.0	Yes	2.728	0.0	n/a	GoodResponse	0	n/a	n/a	3	11	Fixation	AvoidedLoss	True
119.218	0.29	Lose2	0.9167000000000001	0.004	Yes	2.728	-0.004	2.0	GoodResponse	0	0.188	118.406	3	11	Target	AvoidedLoss	True
119.406	0.3	Lose2	0.9167000000000001	0.004	Yes	2.728	-0.004	2.0	GoodResponse	0	0.188	n/a	3	11	ButtonPress	AvoidedLoss	True
119.519	0.41	Lose2	0.9167000000000001	n/a	Yes	2.728	n/a	n/a	GoodResponse	0	n/a	n/a	3	11	Blank	AvoidedLoss	True
119.92	1.45	Lose2	0.9167000000000001	n/a	Yes	2.728	n/a	5.0	GoodResponse	0	0.006	118.926	3	11	Feedback	AvoidedLoss	True
121.374	2.728	Lose2	0.9167000000000001	n/a	Yes	2.728	n/a	n/a	GoodResponse	0	0.0	n/a	3	11	ISIslide	AvoidedLoss	True
124.116	0.25	Control	0.8462000000000001	0.0	No	2.984	0.016	n/a	NoResponse	0	n/a	n/a	3	12	Cue	Neutral	False
124.367	3.9	Control	0.8462000000000001	0.0	No	2.984	0.001	n/a	NoResponse	0	n/a	n/a	3	12	Fixation	Neutral	False
128.262	0.28	Control	0.8462000000000001	0.004	No	2.984	-0.004	n/a	NoResponse	0	n/a	n/a	3	12	Target	Neutral	False
128.546	0.42	Control	0.8462000000000001	n/a	No	2.984	n/a	n/a	NoResponse	0	n/a	n/a	3	12	Blank	Neutral	False
128.964	1.45	Control	0.8462000000000001	n/a	No	2.984	n/a	5.0	NoResponse	0	0.036	128.0	3	12	Feedback	Neutral	False
130.418	2.984	Control	0.8462000000000001	n/a	No	2.984	n/a	n/a	NoResponse	0	0.0	n/a	3	12	ISIslide	Neutral	False
133.427	0.25	Control	0.7857	0.0	No	2.773	0.027	n/a	NoResponse	0	n/a	n/a	3	13	Cue	Neutral	False
133.678	4.0	Control	0.7857	0.0	No	2.773	0.001	n/a	NoResponse	0	n/a	n/a	3	13	Fixation	Neutral	False
137.673	0.27	Control	0.7857	0.004	No	2.773	-0.004	n/a	NoResponse	0	n/a	n/a	3	13	Target	Neutral	False
137.957	0.43	Control	0.7857	n/a	No	2.773	n/a	n/a	NoResponse	0	n/a	n/a	3	13	Blank	Neutral	False
138.375	1.45	Control	0.7857	n/a	No	2.773	n/a	5.0	NoResponse	0	0.038	137.413	3	13	Feedback	Neutral	False
139.83	2.773	Control	0.7857	n/a	No	2.773	n/a	n/a	NoResponse	0	0.0	n/a	3	13	ISIslide	Neutral	False
142.621	0.25	Win2	0.8	0.0	Yes	2.679	0.021	n/a	GoodResponse	1	n/a	n/a	4	14	Cue	Win	True
142.872	4.1	Win2	0.8	0.0	Yes	2.679	0.001	n/a	GoodResponse	1	n/a	n/a	4	14	Fixation	Win	True
146.968	0.26	Win2	0.8	0.003	Yes	2.679	-0.003	2.0	GoodResponse	1	0.236	146.204	4	14	Target	Win	True
147.204	0.3	Win2	0.8	0.003	Yes	2.679	-0.003	2.0	GoodResponse	1	0.236	n/a	4	14	ButtonPress	Win	True
147.235	0.44	Win2	0.8	n/a	Yes	2.679	n/a	n/a	GoodResponse	1	n/a	n/a	4	14	Blank	Win	True
147.67	1.45	Win2	0.8	n/a	Yes	2.679	n/a	5.0	GoodResponse	1	0.012	146.682	4	14	Feedback	Win	True
149.124	2.679	Win2	0.8	n/a	Yes	2.679	n/a	n/a	GoodResponse	1	0.0	n/a	4	14	ISIslide	Win	True
151.815	0.25	Control	0.75	0.0	No	2.985	0.015	n/a	NoResponse	0	n/a	n/a	4	15	Cue	Neutral	False
152.066	4.0	Control	0.75	0.0	No	2.985	0.001	n/a	NoResponse	0	n/a	n/a	4	15	Fixation	Neutral	False
156.061	0.25	Control	0.75	0.004	No	2.985	-0.004	n/a	NoResponse	0	n/a	n/a	4	15	Target	Neutral	False
156.312	0.45	Control	0.75	n/a	No	2.985	n/a	n/a	NoResponse	0	n/a	n/a	4	15	Blank	Neutral	False
156.764	1.45	Control	0.75	n/a	No	2.985	n/a	5.0	NoResponse	0	0.04	155.804	4	15	Feedback	Neutral	False
158.218	2.985	Control	0.75	n/a	No	2.985	n/a	n/a	NoResponse	0	0.0	n/a	4	15	ISIslide	Neutral	False
161.227	0.25	Win2	0.7646999999999999	0.0	Yes	2.873	0.027	n/a	GoodResponse	1	n/a	n/a	5	16	Cue	Win	True
161.478	4.0	Win2	0.7646999999999999	0.0	Yes	2.873	0.001	n/a	GoodResponse	1	n/a	n/a	5	16	Fixation	Win	True
165.473	0.24	Win2	0.7646999999999999	0.004	Yes	2.873	-0.004	2.0	GoodResponse	1	0.223	164.696	5	16	Target	Win	True
165.696	0.3	Win2	0.7646999999999999	0.004	Yes	2.873	-0.004	2.0	GoodResponse	1	0.223	n/a	5	16	ButtonPress	Win	True
165.724	0.46	Win2	0.7646999999999999	n/a	Yes	2.873	n/a	n/a	GoodResponse	1	n/a	n/a	5	16	Blank	Win	True
166.175	1.45	Win2	0.7646999999999999	n/a	Yes	2.873	n/a	5.0	GoodResponse	1	0.043	165.218	5	16	Feedback	Win	True
167.629	2.873	Win2	0.7646999999999999	n/a	Yes	2.873	n/a	n/a	GoodResponse	1	0.0	n/a	5	16	ISIslide	Win	True
170.521	0.25	Lose2	0.7778	0.0	Yes	2.729	0.021	n/a	GoodResponse	0	n/a	n/a	5	17	Cue	AvoidedLoss	True
170.772	3.95	Lose2	0.7778	0.0	Yes	2.729	0.001	n/a	GoodResponse	0	n/a	n/a	5	17	Fixation	AvoidedLoss	True
174.717	0.23	Lose2	0.7778	0.004	Yes	2.729	-0.004	2.0	GoodResponse	0	0.199	173.916	5	17	Target	AvoidedLoss	True
174.916	0.3	Lose2	0.7778	0.004	Yes	2.729	-0.004	2.0	GoodResponse	0	0.199	n/a	5	17	ButtonPress	AvoidedLoss	True
174.951	0.47	Lose2	0.7778	n/a	Yes	2.729	n/a	n/a	GoodResponse	0	n/a	n/a	5	17	Blank	AvoidedLoss	True
175.419	1.45	Lose2	0.7778	n/a	Yes	2.729	n/a	5.0	GoodResponse	0	0.019	174.438	5	17	Feedback	AvoidedLoss	True
176.874	2.729	Lose2	0.7778	n/a	Yes	2.729	n/a	n/a	GoodResponse	0	0.0	n/a	5	17	ISIslide	AvoidedLoss	True
179.615	0.25	Lose2	0.7368000000000001	0.0	No	2.735	0.015	n/a	LatePress	-1	n/a	n/a	4	18	Cue	Loss	True
179.866	4.05	Lose2	0.7368000000000001	0.0	No	2.735	0.001	n/a	LatePress	-1	n/a	n/a	4	18	Fixation	Loss	True
183.911	0.22	Lose2	0.7368000000000001	0.004	No	2.735	-0.004	2.0	LatePress	-1	0.228	183.139	4	18	Target	Loss	True
184.139	0.3	Lose2	0.7368000000000001	0.004	No	2.735	-0.004	2.0	LatePress	-1	0.228	n/a	4	18	ButtonPress	Loss	True
184.146	0.48	Lose2	0.7368000000000001	n/a	No	2.735	n/a	n/a	LatePress	-1	n/a	n/a	4	18	Blank	Loss	True
184.614	1.45	Lose2	0.7368000000000001	n/a	No	2.735	n/a	5.0	LatePress	-1	0.044	183.658	4	18	Feedback	Loss	True
186.068	2.735	Lose2	0.7368000000000001	n/a	No	2.735	n/a	n/a	LatePress	-1	0.0	n/a	4	18	ISIslide	Loss	True
188.826	0.25	Control	0.7	0.0	No	2.924	0.026	n/a	NoResponse	0	n/a	n/a	4	19	Cue	Neutral	False
189.077	3.95	Control	0.7	0.0	No	2.924	0.001	n/a	NoResponse	0	n/a	n/a	4	19	Fixation	Neutral	False
193.022	0.21	Control	0.7	0.004	No	2.924	-0.004	n/a	NoResponse	0	n/a	n/a	4	19	Target	Neutral	False
193.239	0.49	Control	0.7	n/a	No	2.924	n/a	n/a	NoResponse	0	n/a	n/a	4	19	Blank	Neutral	False
193.724	1.45	Control	0.7	n/a	No	2.924	n/a	5.0	NoResponse	0	0.006	192.73	4	19	Feedback	Neutral	False
195.179	2.924	Control	0.7	n/a	No	2.924	n/a	n/a	NoResponse	0	0.0	n/a	4	19	ISIslide	Neutral	False
198.121	0.25	Control	0.6667000000000001	0.0	No	2.629	0.021	n/a	NoResponse	0	n/a	n/a	4	20	Cue	Neutral	False
198.371	4.05	Control	0.6667000000000001	0.001	No	2.629	0.0	n/a	NoResponse	0	n/a	n/a	4	20	Fixation	Neutral	False
202.417	0.2	Control	0.6667000000000001	0.004	No	2.629	-0.004	n/a	NoResponse	0	n/a	n/a	4	20	Target	Neutral	False
202.617	0.5	Control	0.6667000000000001	n/a	No	2.629	n/a	n/a	NoResponse	0	n/a	n/a	4	20	Blank	Neutral	False
203.119	1.45	Control	0.6667000000000001	n/a	No	2.629	n/a	5.0	NoResponse	0	0.026	202.145	4	20	Feedback	Neutral	False
204.573	2.629	Control	0.6667000000000001	n/a	No	2.629	n/a	n/a	NoResponse	0	0.0	n/a	4	20	ISIslide	Neutral	False
207.215	0.25	Control	0.6364	0.0	No	2.785	0.015	n/a	NoResponse	0	n/a	n/a	4	21	Cue	Neutral	False
207.465	4.1	Control	0.6364	0.0	No	2.785	0.0	n/a	NoResponse	0	n/a	n/a	4	21	Fixation	Neutral	False
211.561	0.19	Control	0.6364	0.004	No	2.785	-0.004	n/a	NoResponse	0	n/a	n/a	4	21	Target	Neutral	False
211.762	0.51	Control	0.6364	n/a	No	2.785	n/a	n/a	NoResponse	0	n/a	n/a	4	21	Blank	Neutral	False
212.263	1.45	Control	0.6364	n/a	No	2.785	n/a	5.0	NoResponse	0	0.006	211.269	4	21	Feedback	Neutral	False
213.717	2.785	Control	0.6364	n/a	No	2.785	n/a	n/a	NoResponse	0	0.0	n/a	4	21	ISIslide	Neutral	False
216.526	0.25	Control	0.6087	0.0	No	2.774	0.026	n/a	NoResponse	0	n/a	n/a	4	22	Cue	Neutral	True
216.777	4.0	Control	0.6087	0.0	No	2.774	0.001	n/a	NoResponse	0	n/a	n/a	4	22	Fixation	Neutral	True
220.772	0.2	Control	0.6087	0.004	No	2.774	-0.004	2.0	NoResponse	0	0.247	220.019	4	22	Target	Neutral	True
220.972	0.5	Control	0.6087	n/a	No	2.774	n/a	n/a	NoResponse	0	n/a	n/a	4	22	Blank	Neutral	True
221.019	0.3	Control	0.6087	0.004	No	2.774	-0.004	2.0	NoResponse	0	0.247	n/a	4	22	ButtonPress	Neutral	True
221.474	1.45	Control	0.6087	n/a	No	2.774	n/a	5.0	NoResponse	0	0.012	220.486	4	22	Feedback	Neutral	True
222.928	2.774	Control	0.6087	n/a	No	2.774	n/a	n/a	NoResponse	0	0.0	n/a	4	22	ISIslide	Neutral	True
225.72	0.25	Control	0.625	0.0	Yes	2.78	0.02	n/a	GoodResponse	0	n/a	n/a	4	23	Cue	Neutral	True
225.971	3.9	Control	0.625	0.0	Yes	2.78	0.001	n/a	GoodResponse	0	n/a	n/a	4	23	Fixation	Neutral	True
229.866	0.21	Control	0.625	0.004	Yes	2.78	-0.004	2.0	GoodResponse	0	0.198	229.064	4	23	Target	Neutral	True
230.064	0.3	Control	0.625	0.004	Yes	2.78	-0.004	2.0	GoodResponse	0	0.198	n/a	4	23	ButtonPress	Neutral	True
230.083	0.49	Control	0.625	n/a	Yes	2.78	n/a	n/a	GoodResponse	0	n/a	n/a	4	23	Blank	Neutral	True
230.568	1.45	Control	0.625	n/a	Yes	2.78	n/a	5.0	GoodResponse	0	0.04	229.608	4	23	Feedback	Neutral	True
232.022	2.78	Control	0.625	n/a	Yes	2.78	n/a	n/a	GoodResponse	0	0.0	n/a	4	23	ISIslide	Neutral	True
234.831	0.25	Win2	0.64	0.0	Yes	3.119	0.031	n/a	GoodResponse	1	n/a	n/a	5	24	Cue	Win	True
235.081	3.95	Win2	0.64	0.0	Yes	3.119	0.0	n/a	GoodResponse	1	n/a	n/a	5	24	Fixation	Win	True
239.043	0.22	Win2	0.64	0.0	Yes	3.119	0.012	2.0	GoodResponse	1	0.176	238.219	5	24	Target	Win	True
239.219	0.3	Win2	0.64	0.0	Yes	3.119	0.012	2.0	GoodResponse	1	0.176	n/a	5	24	ButtonPress	Win	True
239.26	0.48	Win2	0.64	n/a	Yes	3.119	n/a	n/a	GoodResponse	1	n/a	n/a	5	24	Blank	Win	True
239.729	1.45	Win2	0.64	n/a	Yes	3.119	n/a	5.0	GoodResponse	1	0.0	238.729	5	24	Feedback	Win	True
241.183	3.119	Win2	0.64	n/a	Yes	3.119	n/a	n/a	GoodResponse	1	0.0	n/a	5	24	ISIslide	Win	True
244.326	0.25	Win2	0.6537999999999999	0.0	Yes	3.074	0.026	n/a	GoodResponse	1	n/a	n/a	6	25	Cue	Win	True
244.576	4.0	Win2	0.6537999999999999	0.0	Yes	3.074	0.0	n/a	GoodResponse	1	n/a	n/a	6	25	Fixation	Win	True
248.572	0.23	Win2	0.6537999999999999	0.004	Yes	3.074	-0.004	2.0	GoodResponse	1	0.203	247.775	6	25	Target	Win	True
248.775	0.3	Win2	0.6537999999999999	0.004	Yes	3.074	-0.004	2.0	GoodResponse	1	0.203	n/a	6	25	ButtonPress	Win	True
248.806	0.47	Win2	0.6537999999999999	n/a	Yes	3.074	n/a	n/a	GoodResponse	1	n/a	n/a	6	25	Blank	Win	True
249.274	1.45	Win2	0.6537999999999999	n/a	Yes	3.074	n/a	5.0	GoodResponse	1	0.016	248.29	6	25	Feedback	Win	True
250.728	3.074	Win2	0.6537999999999999	n/a	Yes	3.074	n/a	n/a	GoodResponse	1	0.0	n/a	6	25	ISIslide	Win	True
253.821	0.25	Win2	0.6296	0.0	No	2.929	0.021	n/a	NoResponse	0	n/a	n/a	6	26	Cue	MissedWin	True
254.071	3.95	Win2	0.6296	0.001	No	2.929	0.0	n/a	NoResponse	0	n/a	n/a	6	26	Fixation	MissedWin	True
258.017	0.24	Win2	0.6296	0.004	No	2.929	-0.004	2.0	NoResponse	0	0.275	257.292	6	26	Target	MissedWin	True
258.267	0.46	Win2	0.6296	n/a	No	2.929	n/a	n/a	NoResponse	0	n/a	n/a	6	26	Blank	MissedWin	True
258.292	0.3	Win2	0.6296	0.004	No	2.929	-0.004	2.0	NoResponse	0	0.275	n/a	6	26	ButtonPress	MissedWin	True
258.719	1.45	Win2	0.6296	n/a	No	2.929	n/a	5.0	NoResponse	0	0.035	257.754	6	26	Feedback	MissedWin	True
260.173	2.929	Win2	0.6296	n/a	No	2.929	n/a	n/a	NoResponse	0	0.0	n/a	6	26	ISIslide	MissedWin	True
263.115	0.25	Lose2	0.6429	0.0	Yes	2.835	0.015	n/a	GoodResponse	0	n/a	n/a	6	27	Cue	AvoidedLoss	True
263.366	4.05	Lose2	0.6429	0.0	Yes	2.835	0.001	n/a	GoodResponse	0	n/a	n/a	6	27	Fixation	AvoidedLoss	True
267.411	0.25	Lose2	0.6429	0.004	Yes	2.835	-0.004	2.0	GoodResponse	0	0.113	266.524	6	27	Target	AvoidedLoss	True
267.524	0.3	Lose2	0.6429	0.004	Yes	2.835	-0.004	2.0	GoodResponse	0	0.113	n/a	6	27	ButtonPress	AvoidedLoss	True
267.662	0.45	Lose2	0.6429	n/a	Yes	2.835	n/a	n/a	GoodResponse	0	n/a	n/a	6	27	Blank	AvoidedLoss	True
268.114	1.45	Lose2	0.6429	n/a	Yes	2.835	n/a	5.0	GoodResponse	0	0.007	267.121	6	27	Feedback	AvoidedLoss	True
269.568	2.835	Lose2	0.6429	n/a	Yes	2.835	n/a	n/a	GoodResponse	0	0.0	n/a	6	27	ISIslide	AvoidedLoss	True
272.426	0.25	Control	0.6207	0.001	No	2.824	0.026	n/a	NoResponse	0	n/a	n/a	6	28	Cue	Neutral	False
272.677	4.05	Control	0.6207	0.0	No	2.824	0.001	n/a	NoResponse	0	n/a	n/a	6	28	Fixation	Neutral	False
276.723	0.26	Control	0.6207	0.003	No	2.824	-0.003	n/a	NoResponse	0	n/a	n/a	6	28	Target	Neutral	False
276.99	0.44	Control	0.6207	n/a	No	2.824	n/a	n/a	NoResponse	0	n/a	n/a	6	28	Blank	Neutral	False
277.425	1.45	Control	0.6207	n/a	No	2.824	n/a	5.0	NoResponse	0	0.012	276.437	6	28	Feedback	Neutral	False
278.879	2.824	Control	0.6207	n/a	No	2.824	n/a	n/a	NoResponse	0	0.0	n/a	6	28	ISIslide	Neutral	False
281.721	0.25	Lose2	0.6333	0.0	Yes	2.829	0.021	n/a	GoodResponse	0	n/a	n/a	6	29	Cue	AvoidedLoss	True
281.972	3.95	Lose2	0.6333	0.0	Yes	2.829	0.001	n/a	GoodResponse	0	n/a	n/a	6	29	Fixation	AvoidedLoss	True
285.917	0.27	Lose2	0.6333	0.004	Yes	2.829	-0.004	2.0	GoodResponse	0	0.243	285.16	6	29	Target	AvoidedLoss	True
286.16	0.3	Lose2	0.6333	0.004	Yes	2.829	-0.004	2.0	GoodResponse	0	0.243	n/a	6	29	ButtonPress	AvoidedLoss	True
286.201	0.43	Lose2	0.6333	n/a	Yes	2.829	n/a	n/a	GoodResponse	0	n/a	n/a	6	29	Blank	AvoidedLoss	True
286.619	1.45	Lose2	0.6333	n/a	Yes	2.829	n/a	5.0	GoodResponse	0	0.038	285.657	6	29	Feedback	AvoidedLoss	True
288.073	2.829	Lose2	0.6333	n/a	Yes	2.829	n/a	n/a	GoodResponse	0	0.0	n/a	6	29	ISIslide	AvoidedLoss	True
290.932	0.25	Win2	0.6452	0.0	Yes	2.768	0.032	n/a	GoodResponse	1	n/a	n/a	7	30	Cue	Win	True
291.183	3.9	Win2	0.6452	0.0	Yes	2.768	0.001	n/a	GoodResponse	1	n/a	n/a	7	30	Fixation	Win	True
295.078	0.28	Win2	0.6452	0.004	Yes	2.768	-0.004	2.0	GoodResponse	1	0.203	294.281	7	30	Target	Win	True
295.281	0.3	Win2	0.6452	0.004	Yes	2.768	-0.004	2.0	GoodResponse	1	0.203	n/a	7	30	ButtonPress	Win	True
295.362	0.42	Win2	0.6452	n/a	Yes	2.768	n/a	n/a	GoodResponse	1	n/a	n/a	7	30	Blank	Win	True
295.78	1.45	Win2	0.6452	n/a	Yes	2.768	n/a	5.0	GoodResponse	1	0.047	294.827	7	30	Feedback	Win	True
297.234	2.768	Win2	0.6452	n/a	Yes	2.768	n/a	n/a	GoodResponse	1	0.0	n/a	7	30	ISIslide	Win	True
300.026	0.25	Lose2	0.625	0.0	No	2.824	0.026	n/a	NoResponse	-1	n/a	n/a	6	31	Cue	Loss	False
300.276	4.05	Lose2	0.625	0.001	No	2.824	0.0	2.0	NoResponse	-1	4.004	303.28	6	31	Fixation	Loss	False
304.28	0.3	Lose2	0.625	0.001	No	2.824	0.0	2.0	NoResponse	-1	4.004	n/a	6	31	ButtonPress	Loss	False
304.322	0.29	Lose2	0.625	0.004	No	2.824	-0.004	2.0	NoResponse	-1	0.603	303.925	6	31	Target	Loss	False
304.623	0.41	Lose2	0.625	n/a	No	2.824	n/a	n/a	NoResponse	-1	n/a	n/a	6	31	Blank	Loss	False
304.925	0.3	Lose2	0.625	0.004	No	2.824	-0.004	2.0	NoResponse	-1	0.603	n/a	6	31	ButtonPress	Loss	False
305.024	1.45	Lose2	0.625	n/a	No	2.824	n/a	5.0	NoResponse	-1	0.022	304.046	6	31	Feedback	Loss	False
306.478	2.824	Lose2	0.625	n/a	No	2.824	n/a	n/a	NoResponse	-1	0.0	n/a	6	31	ISIslide	Loss	False
309.32	0.25	Lose2	0.6364	0.0	Yes	2.63	0.02	n/a	GoodResponse	0	n/a	n/a	6	32	Cue	AvoidedLoss	True
309.571	4.15	Lose2	0.6364	0.0	Yes	2.63	0.001	n/a	GoodResponse	0	n/a	n/a	6	32	Fixation	AvoidedLoss	True
313.717	0.3	Lose2	0.6364	0.003	Yes	2.63	-0.003	2.0	GoodResponse	0	0.228	312.945	6	32	Target	AvoidedLoss	True
313.945	0.3	Lose2	0.6364	0.003	Yes	2.63	-0.003	2.0	GoodResponse	0	0.228	n/a	6	32	ButtonPress	AvoidedLoss	True
314.018	0.4	Lose2	0.6364	n/a	Yes	2.63	n/a	n/a	GoodResponse	0	n/a	n/a	6	32	Blank	AvoidedLoss	True
314.419	1.45	Lose2	0.6364	n/a	Yes	2.63	n/a	5.0	GoodResponse	0	0.042	313.461	6	32	Feedback	AvoidedLoss	True
315.873	2.63	Lose2	0.6364	n/a	Yes	2.63	n/a	n/a	GoodResponse	0	0.0	n/a	6	32	ISIslide	AvoidedLoss	True
318.531	0.25	Win2	0.6470999999999999	0.0	Yes	2.669	0.031	n/a	GoodResponse	1	n/a	n/a	7	33	Cue	Win	True
318.782	4.0	Win2	0.6470999999999999	0.0	Yes	2.669	0.001	n/a	GoodResponse	1	n/a	n/a	7	33	Fixation	Win	True
322.777	0.31	Win2	0.6470999999999999	0.004	Yes	2.669	-0.004	2.0	GoodResponse	1	0.227	322.004	7	33	Target	Win	True
323.004	0.3	Win2	0.6470999999999999	0.004	Yes	2.669	-0.004	2.0	GoodResponse	1	0.227	n/a	7	33	ButtonPress	Win	True
323.095	0.39	Win2	0.6470999999999999	n/a	Yes	2.669	n/a	n/a	GoodResponse	1	n/a	n/a	7	33	Blank	Win	True
323.479	1.45	Win2	0.6470999999999999	n/a	Yes	2.669	n/a	5.0	GoodResponse	1	0.008	322.487	7	33	Feedback	Win	True
324.934	2.669	Win2	0.6470999999999999	n/a	Yes	2.669	n/a	n/a	GoodResponse	1	0.0	n/a	7	33	ISIslide	Win	True
327.625	0.25	Lose2	0.6570999999999999	0.0	Yes	2.625	0.025	n/a	GoodResponse	0	n/a	n/a	7	34	Cue	AvoidedLoss	True
327.876	4.05	Lose2	0.6570999999999999	0.0	Yes	2.625	0.001	n/a	GoodResponse	0	n/a	n/a	7	34	Fixation	AvoidedLoss	True
331.921	0.32	Lose2	0.6570999999999999	0.004	Yes	2.625	-0.004	2.0	GoodResponse	0	0.205	331.126	7	34	Target	AvoidedLoss	True
332.126	0.3	Lose2	0.6570999999999999	0.004	Yes	2.625	-0.004	2.0	GoodResponse	0	0.205	n/a	7	34	ButtonPress	AvoidedLoss	True
332.256	0.38	Lose2	0.6570999999999999	n/a	Yes	2.625	n/a	n/a	GoodResponse	0	n/a	n/a	7	34	Blank	AvoidedLoss	True
332.623	1.45	Lose2	0.6570999999999999	n/a	Yes	2.625	n/a	5.0	GoodResponse	0	0.033	331.656	7	34	Feedback	AvoidedLoss	True
334.078	2.625	Lose2	0.6570999999999999	n/a	Yes	2.625	n/a	n/a	GoodResponse	0	0.0	n/a	7	34	ISIslide	AvoidedLoss	True
336.719	0.25	Lose2	0.6667000000000001	0.0	Yes	2.681	0.019	n/a	GoodResponse	0	n/a	n/a	7	35	Cue	AvoidedLoss	True
336.97	4.0	Lose2	0.6667000000000001	0.0	Yes	2.681	0.001	n/a	GoodResponse	0	n/a	n/a	7	35	Fixation	AvoidedLoss	True
340.965	0.32	Lose2	0.6667000000000001	0.004	Yes	2.681	-0.004	2.0	GoodResponse	0	0.214	340.179	7	35	Target	AvoidedLoss	True
341.179	0.3	Lose2	0.6667000000000001	0.004	Yes	2.681	-0.004	2.0	GoodResponse	0	0.214	n/a	7	35	ButtonPress	AvoidedLoss	True
341.299	0.38	Lose2	0.6667000000000001	n/a	Yes	2.681	n/a	n/a	GoodResponse	0	n/a	n/a	7	35	Blank	AvoidedLoss	True
341.667	1.45	Lose2	0.6667000000000001	n/a	Yes	2.681	n/a	5.0	GoodResponse	0	0.013	340.68	7	35	Feedback	AvoidedLoss	True
343.121	2.681	Lose2	0.6667000000000001	n/a	Yes	2.681	n/a	n/a	GoodResponse	0	0.0	n/a	7	35	ISIslide	AvoidedLoss	True
345.829	0.25	Control	0.6486	0.001	No	2.671	0.029	n/a	NoResponse	0	n/a	n/a	7	36	Cue	Neutral	False
346.08	4.0	Control	0.6486	0.0	No	2.671	0.001	n/a	NoResponse	0	n/a	n/a	7	36	Fixation	Neutral	False
350.076	0.31	Control	0.6486	0.003	No	2.671	-0.003	n/a	NoResponse	0	n/a	n/a	7	36	Target	Neutral	False
350.393	0.39	Control	0.6486	n/a	No	2.671	n/a	n/a	NoResponse	0	n/a	n/a	7	36	Blank	Neutral	False
350.778	1.45	Control	0.6486	n/a	No	2.671	n/a	5.0	NoResponse	0	0.024	349.802	7	36	Feedback	Neutral	False
352.232	2.671	Control	0.6486	n/a	No	2.671	n/a	n/a	NoResponse	0	0.0	n/a	7	36	ISIslide	Neutral	False
354.923	0.25	Win2	0.6579	0.0	Yes	2.877	0.023	n/a	GoodResponse	1	n/a	n/a	8	37	Cue	Win	True
355.174	4.0	Win2	0.6579	0.0	Yes	2.877	0.001	n/a	GoodResponse	1	n/a	n/a	8	37	Fixation	Win	True
359.169	0.32	Win2	0.6579	0.004	Yes	2.877	-0.004	2.0	GoodResponse	1	0.259	358.428	8	37	Target	Win	True
359.428	0.3	Win2	0.6579	0.004	Yes	2.877	-0.004	2.0	GoodResponse	1	0.259	n/a	8	37	ButtonPress	Win	True
359.504	0.38	Win2	0.6579	n/a	Yes	2.877	n/a	n/a	GoodResponse	1	n/a	n/a	8	37	Blank	Win	True
359.872	1.45	Win2	0.6579	n/a	Yes	2.877	n/a	5.0	GoodResponse	1	0.007	358.879	8	37	Feedback	Win	True
361.326	2.877	Win2	0.6579	n/a	Yes	2.877	n/a	n/a	GoodResponse	1	0.0	n/a	8	37	ISIslide	Win	True
364.218	0.25	Lose2	0.6667000000000001	0.0	Yes	2.832	0.018	n/a	GoodResponse	0	n/a	n/a	8	38	Cue	AvoidedLoss	True
364.469	3.95	Lose2	0.6667000000000001	0.0	Yes	2.832	0.001	n/a	GoodResponse	0	n/a	n/a	8	38	Fixation	AvoidedLoss	True
368.414	0.32	Lose2	0.6667000000000001	0.004	Yes	2.832	-0.004	2.0	GoodResponse	0	0.232	367.646	8	38	Target	AvoidedLoss	True
368.646	0.3	Lose2	0.6667000000000001	0.004	Yes	2.832	-0.004	2.0	GoodResponse	0	0.232	n/a	8	38	ButtonPress	AvoidedLoss	True
368.748	0.38	Lose2	0.6667000000000001	n/a	Yes	2.832	n/a	n/a	GoodResponse	0	n/a	n/a	8	38	Blank	AvoidedLoss	True
369.116	1.45	Lose2	0.6667000000000001	n/a	Yes	2.832	n/a	5.0	GoodResponse	0	0.027	368.143	8	38	Feedback	AvoidedLoss	True
370.57	2.832	Lose2	0.6667000000000001	n/a	Yes	2.832	n/a	n/a	GoodResponse	0	0.0	n/a	8	38	ISIslide	AvoidedLoss	True
373.429	0.25	Win2	0.675	0.0	Yes	2.971	0.029	n/a	GoodResponse	1	n/a	n/a	9	39	Cue	Win	True
373.68	4.1	Win2	0.675	0.0	Yes	2.971	0.001	n/a	GoodResponse	1	n/a	n/a	9	39	Fixation	Win	True
377.775	0.31	Win2	0.675	0.004	Yes	2.971	-0.004	2.0	GoodResponse	1	0.215	376.99	9	39	Target	Win	True
377.99	0.3	Win2	0.675	0.004	Yes	2.971	-0.004	2.0	GoodResponse	1	0.215	n/a	9	39	ButtonPress	Win	True
378.093	0.39	Win2	0.675	n/a	Yes	2.971	n/a	n/a	GoodResponse	1	n/a	n/a	9	39	Blank	Win	True
378.477	1.45	Win2	0.675	n/a	Yes	2.971	n/a	5.0	GoodResponse	1	0.032	377.509	9	39	Feedback	Win	True
379.932	2.971	Win2	0.675	n/a	Yes	2.971	n/a	n/a	GoodResponse	1	0.0	n/a	9	39	ISIslide	Win	True
382.924	0.25	Win2	0.6829000000000001	0.0	Yes	2.726	0.024	n/a	GoodResponse	1	n/a	n/a	10	40	Cue	Win	True
383.175	3.95	Win2	0.6829000000000001	0.0	Yes	2.726	0.001	n/a	GoodResponse	1	n/a	n/a	10	40	Fixation	Win	True
387.12	0.3	Win2	0.6829000000000001	0.004	Yes	2.726	-0.004	2.0	GoodResponse	1	0.269	386.389	10	40	Target	Win	True
387.389	0.3	Win2	0.6829000000000001	0.004	Yes	2.726	-0.004	2.0	GoodResponse	1	0.269	n/a	10	40	ButtonPress	Win	True
387.421	0.4	Win2	0.6829000000000001	n/a	Yes	2.726	n/a	n/a	GoodResponse	1	n/a	n/a	10	40	Blank	Win	True
387.822	1.45	Win2	0.6829000000000001	n/a	Yes	2.726	n/a	5.0	GoodResponse	1	0.008	386.83	10	40	Feedback	Win	True
389.276	2.726	Win2	0.6829000000000001	n/a	Yes	2.726	n/a	n/a	GoodResponse	1	0.0	n/a	10	40	ISIslide	Win	True
392.018	0.25	Win2	0.6905	0.0	Yes	2.782	0.018	n/a	GoodResponse	1	n/a	n/a	11	41	Cue	Win	True
392.268	3.9	Win2	0.6905	0.001	Yes	2.782	0.0	n/a	GoodResponse	1	n/a	n/a	11	41	Fixation	Win	True
396.163	0.29	Win2	0.6905	0.005	Yes	2.782	-0.005	2.0	GoodResponse	1	0.228	395.391	11	41	Target	Win	True
396.391	0.3	Win2	0.6905	0.005	Yes	2.782	-0.005	2.0	GoodResponse	1	0.228	n/a	11	41	ButtonPress	Win	True
396.464	0.41	Win2	0.6905	n/a	Yes	2.782	n/a	n/a	GoodResponse	1	n/a	n/a	11	41	Blank	Win	True
396.866	1.45	Win2	0.6905	n/a	Yes	2.782	n/a	5.0	GoodResponse	1	0.033	395.899	11	41	Feedback	Win	True
398.32	2.782	Win2	0.6905	n/a	Yes	2.782	n/a	n/a	GoodResponse	1	0.0	n/a	11	41	ISIslide	Win	True
401.128	0.25	Control	0.6744	0.0	No	2.922	0.028	n/a	NoResponse	0	n/a	n/a	11	42	Cue	Neutral	False
401.379	3.85	Control	0.6744	0.0	No	2.922	0.001	n/a	NoResponse	0	n/a	n/a	11	42	Fixation	Neutral	False
405.224	0.28	Control	0.6744	0.004	No	2.922	-0.004	n/a	NoResponse	0	n/a	n/a	11	42	Target	Neutral	False
405.508	0.42	Control	0.6744	n/a	No	2.922	n/a	n/a	NoResponse	0	n/a	n/a	11	42	Blank	Neutral	False
405.926	1.45	Control	0.6744	n/a	No	2.922	n/a	5.0	NoResponse	0	0.046	404.972	11	42	Feedback	Neutral	False
407.38	2.922	Control	0.6744	n/a	No	2.922	n/a	n/a	NoResponse	0	0.0	n/a	11	42	ISIslide	Neutral	False
410.323	0.25	Win2	0.6818000000000001	0.0	Yes	3.177	0.023	n/a	GoodResponse	1	n/a	n/a	12	43	Cue	Win	True
410.573	4.0	Win2	0.6818000000000001	0.0	Yes	3.177	0.0	n/a	GoodResponse	1	n/a	n/a	12	43	Fixation	Win	True
414.569	0.27	Win2	0.6818000000000001	0.004	Yes	3.177	-0.004	2.0	GoodResponse	1	0.24	413.809	12	43	Target	Win	True
414.809	0.3	Win2	0.6818000000000001	0.004	Yes	3.177	-0.004	2.0	GoodResponse	1	0.24	n/a	12	43	ButtonPress	Win	True
414.853	0.43	Win2	0.6818000000000001	n/a	Yes	3.177	n/a	n/a	GoodResponse	1	n/a	n/a	12	43	Blank	Win	True
415.271	1.45	Win2	0.6818000000000001	n/a	Yes	3.177	n/a	5.0	GoodResponse	1	0.018	414.289	12	43	Feedback	Win	True
416.725	3.177	Win2	0.6818000000000001	n/a	Yes	3.177	n/a	n/a	GoodResponse	1	0.0	n/a	12	43	ISIslide	Win	True
419.918	0.25	Win2	0.6667000000000001	0.0	No	2.982	0.018	n/a	NoResponse	0	n/a	n/a	12	44	Cue	MissedWin	True
420.169	4.0	Win2	0.6667000000000001	0.0	No	2.982	0.001	n/a	NoResponse	0	n/a	n/a	12	44	Fixation	MissedWin	True
424.164	0.26	Win2	0.6667000000000001	0.004	No	2.982	-0.004	2.0	NoResponse	0	0.294	423.458	12	44	Target	MissedWin	True
424.431	0.44	Win2	0.6667000000000001	n/a	No	2.982	n/a	n/a	NoResponse	0	n/a	n/a	12	44	Blank	MissedWin	True
424.458	0.3	Win2	0.6667000000000001	0.004	No	2.982	-0.004	2.0	NoResponse	0	0.294	n/a	12	44	ButtonPress	MissedWin	True
424.866	1.45	Win2	0.6667000000000001	n/a	No	2.982	n/a	5.0	NoResponse	0	0.033	423.899	12	44	Feedback	MissedWin	True
426.32	2.982	Win2	0.6667000000000001	n/a	No	2.982	n/a	n/a	NoResponse	0	0.0	n/a	12	44	ISIslide	MissedWin	True
429.329	0.25	Control	0.6522	0.001	No	2.871	0.029	n/a	NoResponse	0	n/a	n/a	12	45	Cue	Neutral	False
429.58	4.1	Control	0.6522	0.0	No	2.871	0.001	n/a	NoResponse	0	n/a	n/a	12	45	Fixation	Neutral	False
433.676	0.25	Control	0.6522	0.003	No	2.871	-0.003	n/a	NoResponse	0	n/a	n/a	12	45	Target	Neutral	False
433.927	0.45	Control	0.6522	n/a	No	2.871	n/a	n/a	NoResponse	0	n/a	n/a	12	45	Blank	Neutral	False
434.378	1.45	Control	0.6522	n/a	No	2.871	n/a	5.0	NoResponse	0	0.033	433.411	12	45	Feedback	Neutral	False
435.832	2.871	Control	0.6522	n/a	No	2.871	n/a	n/a	NoResponse	0	0.0	n/a	12	45	ISIslide	Neutral	False
438.724	0.25	Lose2	0.6596	0.0	Yes	3.376	0.024	n/a	GoodResponse	0	n/a	n/a	12	46	Cue	AvoidedLoss	True
438.975	4.0	Lose2	0.6596	0.0	Yes	3.376	0.001	n/a	GoodResponse	0	n/a	n/a	12	46	Fixation	AvoidedLoss	True
442.97	0.26	Lose2	0.6596	0.004	Yes	3.376	-0.004	2.0	GoodResponse	0	0.195	442.165	12	46	Target	AvoidedLoss	True
443.165	0.3	Lose2	0.6596	0.004	Yes	3.376	-0.004	2.0	GoodResponse	0	0.195	n/a	12	46	ButtonPress	AvoidedLoss	True
443.238	0.44	Lose2	0.6596	n/a	Yes	3.376	n/a	n/a	GoodResponse	0	n/a	n/a	12	46	Blank	AvoidedLoss	True
443.672	1.45	Lose2	0.6596	n/a	Yes	3.376	n/a	5.0	GoodResponse	0	0.007	442.679	12	46	Feedback	AvoidedLoss	True
445.127	3.376	Lose2	0.6596	n/a	Yes	3.376	n/a	n/a	GoodResponse	0	0.0	n/a	12	46	ISIslide	AvoidedLoss	True
448.52	0.25	Lose2	0.6667000000000001	0.0	Yes	2.68	0.02	n/a	GoodResponse	0	n/a	n/a	12	47	Cue	AvoidedLoss	True
448.771	4.0	Lose2	0.6667000000000001	0.0	Yes	2.68	0.001	n/a	GoodResponse	0	n/a	n/a	12	47	Fixation	AvoidedLoss	True
452.766	0.26	Lose2	0.6667000000000001	0.004	Yes	2.68	-0.004	2.0	GoodResponse	0	0.206	451.972	12	47	Target	AvoidedLoss	True
452.972	0.3	Lose2	0.6667000000000001	0.004	Yes	2.68	-0.004	2.0	GoodResponse	0	0.206	n/a	12	47	ButtonPress	AvoidedLoss	True
453.034	0.44	Lose2	0.6667000000000001	n/a	Yes	2.68	n/a	n/a	GoodResponse	0	n/a	n/a	12	47	Blank	AvoidedLoss	True
453.468	1.45	Lose2	0.6667000000000001	n/a	Yes	2.68	n/a	5.0	GoodResponse	0	0.016	452.484	12	47	Feedback	AvoidedLoss	True
454.923	2.68	Lose2	0.6667000000000001	n/a	Yes	2.68	n/a	n/a	GoodResponse	0	0.0	n/a	12	47	ISIslide	AvoidedLoss	True
457.631	0.25	Lose2	0.6735	0.0	Yes	3.019	0.031	n/a	GoodResponse	0	n/a	n/a	12	48	Cue	AvoidedLoss	True
457.882	3.95	Lose2	0.6735	0.0	Yes	3.019	0.001	n/a	GoodResponse	0	n/a	n/a	12	48	Fixation	AvoidedLoss	True
461.827	0.25	Lose2	0.6735	0.004	Yes	3.019	-0.004	2.0	GoodResponse	0	0.186	461.013	12	48	Target	AvoidedLoss	True
462.013	0.3	Lose2	0.6735	0.004	Yes	3.019	-0.004	2.0	GoodResponse	0	0.186	n/a	12	48	ButtonPress	AvoidedLoss	True
462.077	0.45	Lose2	0.6735	n/a	Yes	3.019	n/a	n/a	GoodResponse	0	n/a	n/a	12	48	Blank	AvoidedLoss	True
462.529	1.45	Lose2	0.6735	n/a	Yes	3.019	n/a	5.0	GoodResponse	0	0.028	461.557	12	48	Feedback	AvoidedLoss	True
463.983	3.019	Lose2	0.6735	n/a	Yes	3.019	n/a	n/a	GoodResponse	0	0.0	n/a	12	48	ISIslide	AvoidedLoss	True
467.026	0.25	Control	0.68	0.0	Yes	2.874	0.026	n/a	GoodResponse	0	n/a	n/a	12	49	Cue	Neutral	True
467.276	4.0	Control	0.68	0.0	Yes	2.874	0.0	n/a	GoodResponse	0	n/a	n/a	12	49	Fixation	Neutral	True
471.272	0.24	Control	0.68	0.004	Yes	2.874	-0.004	2.0	GoodResponse	0	0.235	470.507	12	49	Target	Neutral	True
471.507	0.3	Control	0.68	0.004	Yes	2.874	-0.004	2.0	GoodResponse	0	0.235	n/a	12	49	ButtonPress	Neutral	True
471.522	0.46	Control	0.68	n/a	Yes	2.874	n/a	n/a	GoodResponse	0	n/a	n/a	12	49	Blank	Neutral	True
471.974	1.45	Control	0.68	n/a	Yes	2.874	n/a	5.0	GoodResponse	0	0.047	471.021	12	49	Feedback	Neutral	True
473.428	2.874	Control	0.68	n/a	Yes	2.874	n/a	n/a	GoodResponse	0	0.0	n/a	12	49	ISIslide	Neutral	True
476.32	0.25	Control	0.6667000000000001	0.0	No	2.78	0.02	n/a	NoResponse	0	n/a	n/a	12	50	Cue	Neutral	False
476.571	4.0	Control	0.6667000000000001	0.0	No	2.78	0.001	n/a	NoResponse	0	n/a	n/a	12	50	Fixation	Neutral	False
480.566	0.23	Control	0.6667000000000001	0.004	No	2.78	-0.004	n/a	NoResponse	0	n/a	n/a	12	50	Target	Neutral	False
480.8	0.47	Control	0.6667000000000001	n/a	No	2.78	n/a	n/a	NoResponse	0	n/a	n/a	12	50	Blank	Neutral	False
481.268	1.45	Control	0.6667000000000001	n/a	No	2.78	n/a	5.0	NoResponse	0	0.021	480.289	12	50	Feedback	Neutral	False
482.723	2.78	Control	0.6667000000000001	n/a	No	2.78	n/a	n/a	NoResponse	0	0.0	n/a	12	50	ISIslide	Neutral	False
485.514	0.25	Control	0.6537999999999999	0.0	No	2.736	0.014	n/a	NoResponse	0	n/a	n/a	12	51	Cue	Neutral	False
485.765	3.95	Control	0.6537999999999999	0.0	No	2.736	0.001	n/a	NoResponse	0	n/a	n/a	12	51	Fixation	Neutral	False
489.71	0.22	Control	0.6537999999999999	0.004	No	2.736	-0.004	n/a	NoResponse	0	n/a	n/a	12	51	Target	Neutral	False
489.944	0.48	Control	0.6537999999999999	n/a	No	2.736	n/a	n/a	NoResponse	0	n/a	n/a	12	51	Blank	Neutral	False
490.412	1.45	Control	0.6537999999999999	n/a	No	2.736	n/a	5.0	NoResponse	0	0.047	489.459	12	51	Feedback	Neutral	False
491.867	2.736	Control	0.6537999999999999	n/a	No	2.736	n/a	n/a	NoResponse	0	0.0	n/a	12	51	ISIslide	Neutral	False
494.625	0.25	Control	0.6415000000000001	0.0	No	2.625	0.025	n/a	NoResponse	0	n/a	n/a	12	52	Cue	Neutral	False
494.876	4.05	Control	0.6415000000000001	0.0	No	2.625	0.001	n/a	NoResponse	0	n/a	n/a	12	52	Fixation	Neutral	False
498.921	0.23	Control	0.6415000000000001	0.004	No	2.625	-0.004	n/a	NoResponse	0	n/a	n/a	12	52	Target	Neutral	False
499.155	0.47	Control	0.6415000000000001	n/a	No	2.625	n/a	n/a	NoResponse	0	n/a	n/a	12	52	Blank	Neutral	False
499.623	1.45	Control	0.6415000000000001	n/a	No	2.625	n/a	5.0	NoResponse	0	0.008	498.631	12	52	Feedback	Neutral	False
501.078	2.625	Control	0.6415000000000001	n/a	No	2.625	n/a	n/a	NoResponse	0	0.0	n/a	12	52	ISIslide	Neutral	False
503.719	0.25	Win2	0.6481	0.0	Yes	2.931	0.019	n/a	GoodResponse	1	n/a	n/a	13	53	Cue	Win	True
503.97	4.05	Win2	0.6481	0.0	Yes	2.931	0.001	n/a	GoodResponse	1	n/a	n/a	13	53	Fixation	Win	True
508.015	0.24	Win2	0.6481	0.004	Yes	2.931	-0.004	2.0	GoodResponse	1	0.229	507.244	13	53	Target	Win	True
508.244	0.3	Win2	0.6481	0.004	Yes	2.931	-0.004	2.0	GoodResponse	1	0.229	n/a	13	53	ButtonPress	Win	True
508.266	0.46	Win2	0.6481	n/a	Yes	2.931	n/a	n/a	GoodResponse	1	n/a	n/a	13	53	Blank	Win	True
508.717	1.45	Win2	0.6481	n/a	Yes	2.931	n/a	5.0	GoodResponse	1	0.035	507.752	13	53	Feedback	Win	True
510.171	2.931	Win2	0.6481	n/a	Yes	2.931	n/a	n/a	GoodResponse	1	0.0	n/a	13	53	ISIslide	Win	True
513.13	0.25	Win2	0.6545000000000001	0.0	Yes	2.72	0.03	n/a	GoodResponse	1	n/a	n/a	14	54	Cue	Win	True
513.381	3.95	Win2	0.6545000000000001	0.0	Yes	2.72	0.001	n/a	GoodResponse	1	n/a	n/a	14	54	Fixation	Win	True
517.326	0.25	Win2	0.6545000000000001	0.004	Yes	2.72	-0.004	2.0	GoodResponse	1	0.196	516.522	14	54	Target	Win	True
517.522	0.3	Win2	0.6545000000000001	0.004	Yes	2.72	-0.004	2.0	GoodResponse	1	0.196	n/a	14	54	ButtonPress	Win	True
517.577	0.45	Win2	0.6545000000000001	n/a	Yes	2.72	n/a	n/a	GoodResponse	1	n/a	n/a	14	54	Blank	Win	True
518.028	1.45	Win2	0.6545000000000001	n/a	Yes	2.72	n/a	5.0	GoodResponse	1	0.041	517.069	14	54	Feedback	Win	True
519.483	2.72	Win2	0.6545000000000001	n/a	Yes	2.72	n/a	n/a	GoodResponse	1	0.0	n/a	14	54	ISIslide	Win	True
522.224	0.25	Control	0.6429	0.0	No	3.026	0.024	n/a	NoResponse	0	n/a	n/a	14	55	Cue	Neutral	False
522.475	3.95	Control	0.6429	0.0	No	3.026	0.001	n/a	NoResponse	0	n/a	n/a	14	55	Fixation	Neutral	False
526.42	0.26	Control	0.6429	0.004	No	3.026	-0.004	n/a	NoResponse	0	n/a	n/a	14	55	Target	Neutral	False
526.688	0.44	Control	0.6429	n/a	No	3.026	n/a	n/a	NoResponse	0	n/a	n/a	14	55	Blank	Neutral	False
527.122	1.45	Control	0.6429	n/a	No	3.026	n/a	5.0	NoResponse	0	0.02	526.142	14	55	Feedback	Neutral	False
528.577	3.026	Control	0.6429	n/a	No	3.026	n/a	n/a	NoResponse	0	0.0	n/a	14	55	ISIslide	Neutral	False
531.619	0.25	Control	0.6315999999999999	0.0	No	2.831	0.019	n/a	NoResponse	0	n/a	n/a	14	56	Cue	Neutral	False
531.87	3.95	Control	0.6315999999999999	0.0	No	2.831	0.001	n/a	NoResponse	0	n/a	n/a	14	56	Fixation	Neutral	False
535.815	0.27	Control	0.6315999999999999	0.004	No	2.831	-0.004	n/a	NoResponse	0	n/a	n/a	14	56	Target	Neutral	False
536.099	0.43	Control	0.6315999999999999	n/a	No	2.831	n/a	n/a	NoResponse	0	n/a	n/a	14	56	Blank	Neutral	False
536.517	1.45	Control	0.6315999999999999	n/a	No	2.831	n/a	5.0	NoResponse	0	0.04	535.557	14	56	Feedback	Neutral	False
537.971	2.831	Control	0.6315999999999999	n/a	No	2.831	n/a	n/a	NoResponse	0	0.0	n/a	14	56	ISIslide	Neutral	False
540.83	0.25	Control	0.6207	0.0	No	3.47	0.03	n/a	NoResponse	0	n/a	n/a	14	57	Cue	Neutral	False
541.081	4.0	Control	0.6207	0.0	No	3.47	0.001	n/a	NoResponse	0	n/a	n/a	14	57	Fixation	Neutral	False
545.076	0.28	Control	0.6207	0.004	No	3.47	-0.004	n/a	NoResponse	0	n/a	n/a	14	57	Target	Neutral	False
545.36	0.42	Control	0.6207	n/a	No	3.47	n/a	n/a	NoResponse	0	n/a	n/a	14	57	Blank	Neutral	False
545.778	1.45	Control	0.6207	n/a	No	3.47	n/a	5.0	NoResponse	0	0.046	544.824	14	57	Feedback	Neutral	False
547.232	3.47	Control	0.6207	n/a	No	3.47	n/a	n/a	NoResponse	0	0.0	n/a	14	57	ISIslide	Neutral	False
550.726	0.25	Win2	0.6271	0.0	Yes	2.724	0.026	n/a	GoodResponse	1	n/a	n/a	15	58	Cue	Win	True
550.977	4.05	Win2	0.6271	0.0	Yes	2.724	0.001	n/a	GoodResponse	1	n/a	n/a	15	58	Fixation	Win	True
555.022	0.29	Win2	0.6271	0.004	Yes	2.724	-0.004	2.0	GoodResponse	1	0.237	554.259	15	58	Target	Win	True
555.259	0.3	Win2	0.6271	0.004	Yes	2.724	-0.004	2.0	GoodResponse	1	0.237	n/a	15	58	ButtonPress	Win	True
555.323	0.41	Win2	0.6271	n/a	Yes	2.724	n/a	n/a	GoodResponse	1	n/a	n/a	15	58	Blank	Win	True
555.724	1.45	Win2	0.6271	n/a	Yes	2.724	n/a	5.0	GoodResponse	1	0.008	554.732	15	58	Feedback	Win	True
557.179	2.724	Win2	0.6271	n/a	Yes	2.724	n/a	n/a	GoodResponse	1	0.0	n/a	15	58	ISIslide	Win	True
559.92	0.25	Lose2	0.6333	0.0	Yes	2.68	0.02	n/a	GoodResponse	0	n/a	n/a	15	59	Cue	AvoidedLoss	True
560.171	4.0	Lose2	0.6333	0.0	Yes	2.68	0.001	n/a	GoodResponse	0	n/a	n/a	15	59	Fixation	AvoidedLoss	True
564.166	0.3	Lose2	0.6333	0.004	Yes	2.68	-0.004	2.0	GoodResponse	0	0.217	563.383	15	59	Target	AvoidedLoss	True
564.383	0.3	Lose2	0.6333	0.004	Yes	2.68	-0.004	2.0	GoodResponse	0	0.217	n/a	15	59	ButtonPress	AvoidedLoss	True
564.467	0.4	Lose2	0.6333	n/a	Yes	2.68	n/a	n/a	GoodResponse	0	n/a	n/a	15	59	Blank	AvoidedLoss	True
564.868	1.45	Lose2	0.6333	n/a	Yes	2.68	n/a	5.0	GoodResponse	0	0.03	563.898	15	59	Feedback	AvoidedLoss	True
566.323	2.68	Lose2	0.6333	n/a	Yes	2.68	n/a	n/a	GoodResponse	0	0.0	n/a	15	59	ISIslide	AvoidedLoss	True
569.031	0.25	Control	0.623	0.0	No	2.669	0.031	n/a	NoResponse	0	n/a	n/a	15	60	Cue	Neutral	False
569.282	4.0	Control	0.623	0.0	No	2.669	0.001	n/a	NoResponse	0	n/a	n/a	15	60	Fixation	Neutral	False
573.277	0.31	Control	0.623	0.004	No	2.669	-0.004	n/a	NoResponse	0	n/a	n/a	15	60	Target	Neutral	False
573.595	0.39	Control	0.623	n/a	No	2.669	n/a	n/a	NoResponse	0	n/a	n/a	15	60	Blank	Neutral	False
573.979	1.45	Control	0.623	n/a	No	2.669	n/a	5.0	NoResponse	0	0.041	573.02	15	60	Feedback	Neutral	False
575.433	2.669	Control	0.623	n/a	No	2.669	n/a	n/a	NoResponse	0	0.0	n/a	15	60	ISIslide	Neutral	False
578.125	0.25	Lose2	0.629	0.0	Yes	2.975	0.025	n/a	GoodResponse	0	n/a	n/a	15	61	Cue	AvoidedLoss	True
578.376	4.0	Lose2	0.629	0.0	Yes	2.975	0.001	n/a	GoodResponse	0	n/a	n/a	15	61	Fixation	AvoidedLoss	True
582.371	0.32	Lose2	0.629	0.004	Yes	2.975	-0.004	2.0	GoodResponse	0	0.3	581.671	15	61	Target	AvoidedLoss	True
582.671	0.3	Lose2	0.629	0.004	Yes	2.975	-0.004	2.0	GoodResponse	0	0.3	n/a	15	61	ButtonPress	AvoidedLoss	True
582.705	0.38	Lose2	0.629	n/a	Yes	2.975	n/a	n/a	GoodResponse	0	n/a	n/a	15	61	Blank	AvoidedLoss	True
583.073	1.45	Lose2	0.629	n/a	Yes	2.975	n/a	5.0	GoodResponse	0	0.02	582.093	15	61	Feedback	AvoidedLoss	True
584.527	2.975	Lose2	0.629	n/a	Yes	2.975	n/a	n/a	GoodResponse	0	0.0	n/a	15	61	ISIslide	AvoidedLoss	True
587.52	0.25	Lose2	0.6349	0.0	Yes	2.88	0.02	n/a	GoodResponse	0	n/a	n/a	15	62	Cue	AvoidedLoss	True
587.77	3.9	Lose2	0.6349	0.0	Yes	2.88	0.0	n/a	GoodResponse	0	n/a	n/a	15	62	Fixation	AvoidedLoss	True
591.682	0.33	Lose2	0.6349	0.0	Yes	2.88	0.012	2.0	GoodResponse	0	0.207	590.889	15	62	Target	AvoidedLoss	True
591.889	0.3	Lose2	0.6349	0.0	Yes	2.88	0.012	2.0	GoodResponse	0	0.207	n/a	15	62	ButtonPress	AvoidedLoss	True
592	0.37	Lose2	0.6349	n/a	Yes	2.88	n/a	n/a	GoodResponse	0	n/a	n/a	15	62	Blank	AvoidedLoss	True
592.367	1.45	Lose2	0.6349	n/a	Yes	2.88	n/a	5.0	GoodResponse	0	0.042	591.409	15	62	Feedback	AvoidedLoss	True
593.822	2.88	Lose2	0.6349	n/a	Yes	2.88	n/a	n/a	GoodResponse	0	0.0	n/a	15	62	ISIslide	AvoidedLoss	True
596.731	0.25	Lose2	0.6406000000000001	0.0	Yes	2.619	0.031	n/a	GoodResponse	0	n/a	n/a	15	63	Cue	AvoidedLoss	True
596.981	4.05	Lose2	0.6406000000000001	0.0	Yes	2.619	0.0	n/a	GoodResponse	0	n/a	n/a	15	63	Fixation	AvoidedLoss	True
601.027	0.34	Lose2	0.6406000000000001	0.004	Yes	2.619	-0.004	2.0	GoodResponse	0	0.218	600.245	15	63	Target	AvoidedLoss	True
601.245	0.3	Lose2	0.6406000000000001	0.004	Yes	2.619	-0.004	2.0	GoodResponse	0	0.218	n/a	15	63	ButtonPress	AvoidedLoss	True
601.378	0.36	Lose2	0.6406000000000001	n/a	Yes	2.619	n/a	n/a	GoodResponse	0	n/a	n/a	15	63	Blank	AvoidedLoss	True
601.729	1.45	Lose2	0.6406000000000001	n/a	Yes	2.619	n/a	5.0	GoodResponse	0	0.046	600.775	15	63	Feedback	AvoidedLoss	True
603.183	2.619	Lose2	0.6406000000000001	n/a	Yes	2.619	n/a	n/a	GoodResponse	0	0.0	n/a	15	63	ISIslide	AvoidedLoss	True
605.824	0.25	Win2	0.6462	0.001	Yes	3.126	0.024	n/a	GoodResponse	1	n/a	n/a	16	64	Cue	Win	True
606.075	4.15	Win2	0.6462	0.0	Yes	3.126	0.001	n/a	GoodResponse	1	n/a	n/a	16	64	Fixation	Win	True
610.221	0.35	Win2	0.6462	0.003	Yes	3.126	-0.003	2.0	GoodResponse	1	0.2	609.421	16	64	Target	Win	True
610.421	0.3	Win2	0.6462	0.003	Yes	3.126	-0.003	2.0	GoodResponse	1	0.2	n/a	16	64	ButtonPress	Win	True
610.572	0.35	Win2	0.6462	n/a	Yes	3.126	n/a	n/a	GoodResponse	1	n/a	n/a	16	64	Blank	Win	True
610.923	1.45	Win2	0.6462	n/a	Yes	3.126	n/a	5.0	GoodResponse	1	0.023	609.946	16	64	Feedback	Win	True
612.377	3.126	Win2	0.6462	n/a	Yes	3.126	n/a	n/a	GoodResponse	1	0.0	n/a	16	64	ISIslide	Win	True
615.52	0.25	Control	0.6364	0.0	No	2.78	0.02	n/a	NoResponse	0	n/a	n/a	16	65	Cue	Neutral	False
615.771	4.0	Control	0.6364	0.0	No	2.78	0.001	n/a	NoResponse	0	n/a	n/a	16	65	Fixation	Neutral	False
619.766	0.36	Control	0.6364	0.004	No	2.78	-0.004	n/a	NoResponse	0	n/a	n/a	16	65	Target	Neutral	False
620.134	0.34	Control	0.6364	n/a	No	2.78	n/a	n/a	NoResponse	0	n/a	n/a	16	65	Blank	Neutral	False
620.468	1.45	Control	0.6364	n/a	No	2.78	n/a	5.0	NoResponse	0	0.039	619.507	16	65	Feedback	Neutral	False
621.923	2.78	Control	0.6364	n/a	No	2.78	n/a	n/a	NoResponse	0	0.0	n/a	16	65	ISIslide	Neutral	False
624.714	0.25	Win2	0.6418	0.0	Yes	2.786	0.014	n/a	GoodResponse	1	n/a	n/a	17	66	Cue	Win	True
624.965	3.9	Win2	0.6418	0.0	Yes	2.786	0.001	n/a	GoodResponse	1	n/a	n/a	17	66	Fixation	Win	True
628.86	0.37	Win2	0.6418	0.004	Yes	2.786	-0.004	2.0	GoodResponse	1	0.201	628.061	17	66	Target	Win	True
629.061	0.3	Win2	0.6418	0.004	Yes	2.786	-0.004	2.0	GoodResponse	1	0.201	n/a	17	66	ButtonPress	Win	True
629.245	0.33	Win2	0.6418	n/a	Yes	2.786	n/a	n/a	GoodResponse	1	n/a	n/a	17	66	Blank	Win	True
629.562	1.45	Win2	0.6418	n/a	Yes	2.786	n/a	5.0	GoodResponse	1	0.018	628.58	17	66	Feedback	Win	True
631.016	2.786	Win2	0.6418	n/a	Yes	2.786	n/a	n/a	GoodResponse	1	0.0	n/a	17	66	ISIslide	Win	True
633.825	0.25	Control	0.6324000000000001	0.0	No	2.725	0.025	n/a	NoResponse	0	n/a	n/a	17	67	Cue	Neutral	False
634.076	3.95	Control	0.6324000000000001	0.0	No	2.725	0.001	n/a	NoResponse	0	n/a	n/a	17	67	Fixation	Neutral	False
638.021	0.38	Control	0.6324000000000001	0.004	No	2.725	-0.004	n/a	NoResponse	0	n/a	n/a	17	67	Target	Neutral	False
638.405	0.32	Control	0.6324000000000001	n/a	No	2.725	n/a	n/a	NoResponse	0	n/a	n/a	17	67	Blank	Neutral	False
638.723	1.45	Control	0.6324000000000001	n/a	No	2.725	n/a	5.0	NoResponse	0	0.028	637.751	17	67	Feedback	Neutral	False
640.177	2.725	Control	0.6324000000000001	n/a	No	2.725	n/a	n/a	NoResponse	0	0.0	n/a	17	67	ISIslide	Neutral	False
642.919	0.25	Win2	0.6377	0.0	Yes	3.081	0.019	n/a	GoodResponse	1	n/a	n/a	18	68	Cue	Win	True
643.17	4.0	Win2	0.6377	0.0	Yes	3.081	0.001	n/a	GoodResponse	1	n/a	n/a	18	68	Fixation	Win	True
647.165	0.39	Win2	0.6377	0.004	Yes	3.081	-0.004	2.0	GoodResponse	1	0.266	646.431	18	68	Target	Win	True
647.431	0.3	Win2	0.6377	0.004	Yes	3.081	-0.004	2.0	GoodResponse	1	0.266	n/a	18	68	ButtonPress	Win	True
647.566	0.31	Win2	0.6377	n/a	Yes	3.081	n/a	n/a	GoodResponse	1	n/a	n/a	18	68	Blank	Win	True
647.867	1.45	Win2	0.6377	n/a	Yes	3.081	n/a	5.0	GoodResponse	1	0.005	646.872	18	68	Feedback	Win	True
649.321	3.081	Win2	0.6377	n/a	Yes	3.081	n/a	n/a	GoodResponse	1	0.0	n/a	18	68	ISIslide	Win	True
652.414	0.25	Win2	0.6429	0.0	Yes	3.236	0.014	n/a	GoodResponse	1	n/a	n/a	19	69	Cue	Win	True
652.665	3.95	Win2	0.6429	0.0	Yes	3.236	0.001	n/a	GoodResponse	1	n/a	n/a	19	69	Fixation	Win	True
656.61	0.4	Win2	0.6429	0.004	Yes	3.236	-0.004	2.0	GoodResponse	1	0.199	655.809	19	69	Target	Win	True
656.809	0.3	Win2	0.6429	0.004	Yes	3.236	-0.004	2.0	GoodResponse	1	0.199	n/a	19	69	ButtonPress	Win	True
657.011	0.3	Win2	0.6429	n/a	Yes	3.236	n/a	n/a	GoodResponse	1	n/a	n/a	19	69	Blank	Win	True
657.312	1.45	Win2	0.6429	n/a	Yes	3.236	n/a	5.0	GoodResponse	1	0.024	656.336	19	69	Feedback	Win	True
658.766	3.236	Win2	0.6429	n/a	Yes	3.236	n/a	n/a	GoodResponse	1	0.0	n/a	19	69	ISIslide	Win	True
662.026	0.25	Lose2	0.6479	0.0	Yes	3.024	0.026	n/a	GoodResponse	0	n/a	n/a	19	70	Cue	AvoidedLoss	True
662.277	4.05	Lose2	0.6479	0.0	Yes	3.024	0.001	n/a	GoodResponse	0	n/a	n/a	19	70	Fixation	AvoidedLoss	True
666.322	0.41	Lose2	0.6479	0.004	Yes	3.024	-0.004	2.0	GoodResponse	0	0.195	665.517	19	70	Target	AvoidedLoss	True
666.517	0.3	Lose2	0.6479	0.004	Yes	3.024	-0.004	2.0	GoodResponse	0	0.195	n/a	19	70	ButtonPress	AvoidedLoss	True
666.74	0.29	Lose2	0.6479	n/a	Yes	3.024	n/a	n/a	GoodResponse	0	n/a	n/a	19	70	Blank	AvoidedLoss	True
667.024	1.45	Lose2	0.6479	n/a	Yes	3.024	n/a	5.0	GoodResponse	0	0.019	666.043	19	70	Feedback	AvoidedLoss	True
668.479	3.024	Lose2	0.6479	n/a	Yes	3.024	n/a	n/a	GoodResponse	0	0.0	n/a	19	70	ISIslide	AvoidedLoss	True
671.521	0.25	Win2	0.6528	0.0	Yes	2.729	0.021	n/a	GoodResponse	1	n/a	n/a	20	71	Cue	Win	True
671.772	4.05	Win2	0.6528	0.0	Yes	2.729	0.001	n/a	GoodResponse	1	n/a	n/a	20	71	Fixation	Win	True
675.817	0.42	Win2	0.6528	0.004	Yes	2.729	-0.004	2.0	GoodResponse	1	0.205	675.022	20	71	Target	Win	True
676.022	0.3	Win2	0.6528	0.004	Yes	2.729	-0.004	2.0	GoodResponse	1	0.205	n/a	20	71	ButtonPress	Win	True
676.252	0.28	Win2	0.6528	n/a	Yes	2.729	n/a	n/a	GoodResponse	1	n/a	n/a	20	71	Blank	Win	True
676.519	1.45	Win2	0.6528	n/a	Yes	2.729	n/a	5.0	GoodResponse	1	0.037	675.556	20	71	Feedback	Win	True
677.974	2.729	Win2	0.6528	n/a	Yes	2.729	n/a	n/a	GoodResponse	1	0.0	n/a	20	71	ISIslide	Win	True
680.715	0.25	Win2	0.6575	0.0	Yes	2.785	0.015	n/a	GoodResponse	1	n/a	n/a	21	72	Cue	Win	True
680.966	4.1	Win2	0.6575	0.0	Yes	2.785	0.001	n/a	GoodResponse	1	n/a	n/a	21	72	Fixation	Win	True
685.062	0.43	Win2	0.6575	0.003	Yes	2.785	-0.003	2.0	GoodResponse	1	0.181	684.243	21	72	Target	Win	True
685.243	0.3	Win2	0.6575	0.003	Yes	2.785	-0.003	2.0	GoodResponse	1	0.181	n/a	21	72	ButtonPress	Win	True
685.496	0.27	Win2	0.6575	n/a	Yes	2.785	n/a	n/a	GoodResponse	1	n/a	n/a	21	72	Blank	Win	True
685.764	1.45	Win2	0.6575	n/a	Yes	2.785	n/a	5.0	GoodResponse	1	0.011	684.775	21	72	Feedback	Win	True
687.218	2.785	Win2	0.6575	n/a	Yes	2.785	n/a	n/a	GoodResponse	1	0.0	n/a	21	72	ISIslide	Win	True
690.026	0.25	Win2	0.6622	0.001	Yes	2.674	0.026	n/a	GoodResponse	1	n/a	n/a	22	73	Cue	Win	True
690.277	4.0	Win2	0.6622	0.0	Yes	2.674	0.001	n/a	GoodResponse	1	n/a	n/a	22	73	Fixation	Win	True
694.272	0.43	Win2	0.6622	0.004	Yes	2.674	-0.004	2.0	GoodResponse	1	0.23	693.502	22	73	Target	Win	True
694.502	0.3	Win2	0.6622	0.004	Yes	2.674	-0.004	2.0	GoodResponse	1	0.23	n/a	22	73	ButtonPress	Win	True
694.707	0.27	Win2	0.6622	n/a	Yes	2.674	n/a	n/a	GoodResponse	1	n/a	n/a	22	73	Blank	Win	True
694.975	1.45	Win2	0.6622	n/a	Yes	2.674	n/a	5.0	GoodResponse	1	0.019	693.994	22	73	Feedback	Win	True
696.429	2.674	Win2	0.6622	n/a	Yes	2.674	n/a	n/a	GoodResponse	1	0.0	n/a	22	73	ISIslide	Win	True
699.12	0.25	Lose2	0.6667000000000001	0.0	Yes	2.63	0.02	n/a	GoodResponse	0	n/a	n/a	22	74	Cue	AvoidedLoss	True
699.371	4.05	Lose2	0.6667000000000001	0.0	Yes	2.63	0.001	n/a	GoodResponse	0	n/a	n/a	22	74	Fixation	AvoidedLoss	True
703.417	0.43	Lose2	0.6667000000000001	0.003	Yes	2.63	-0.003	2.0	GoodResponse	0	0.255	702.672	22	74	Target	AvoidedLoss	True
703.672	0.3	Lose2	0.6667000000000001	0.003	Yes	2.63	-0.003	2.0	GoodResponse	0	0.255	n/a	22	74	ButtonPress	AvoidedLoss	True
703.851	0.27	Lose2	0.6667000000000001	n/a	Yes	2.63	n/a	n/a	GoodResponse	0	n/a	n/a	22	74	Blank	AvoidedLoss	True
704.119	1.45	Lose2	0.6667000000000001	n/a	Yes	2.63	n/a	5.0	GoodResponse	0	0.046	703.165	22	74	Feedback	AvoidedLoss	True
705.573	2.63	Lose2	0.6667000000000001	n/a	Yes	2.63	n/a	n/a	GoodResponse	0	0.0	n/a	22	74	ISIslide	AvoidedLoss	True
708.214	0.25	Lose2	0.6711	0.0	Yes	2.936	0.014	n/a	GoodResponse	0	n/a	n/a	22	75	Cue	AvoidedLoss	True
708.465	3.95	Lose2	0.6711	0.0	Yes	2.936	0.001	n/a	GoodResponse	0	n/a	n/a	22	75	Fixation	AvoidedLoss	True
712.41	0.42	Lose2	0.6711	0.004	Yes	2.936	-0.004	2.0	GoodResponse	0	0.195	711.605	22	75	Target	AvoidedLoss	True
712.605	0.3	Lose2	0.6711	0.004	Yes	2.936	-0.004	2.0	GoodResponse	0	0.195	n/a	22	75	ButtonPress	AvoidedLoss	True
712.845	0.28	Lose2	0.6711	n/a	Yes	2.936	n/a	n/a	GoodResponse	0	n/a	n/a	22	75	Blank	AvoidedLoss	True
713.112	1.45	Lose2	0.6711	n/a	Yes	2.936	n/a	5.0	GoodResponse	0	0.028	712.14	22	75	Feedback	AvoidedLoss	True
714.567	2.936	Lose2	0.6711	n/a	Yes	2.936	n/a	n/a	GoodResponse	0	0.0	n/a	22	75	ISIslide	AvoidedLoss	True
717.525	0.25	Control	0.6623	0.001	No	3.225	0.025	n/a	NoResponse	0	n/a	n/a	22	76	Cue	Neutral	False
717.776	4.05	Control	0.6623	0.0	No	3.225	0.001	n/a	NoResponse	0	n/a	n/a	22	76	Fixation	Neutral	False
721.822	0.41	Control	0.6623	0.003	No	3.225	-0.003	n/a	NoResponse	0	n/a	n/a	22	76	Target	Neutral	False
722.24	0.29	Control	0.6623	n/a	No	3.225	n/a	n/a	NoResponse	0	n/a	n/a	22	76	Blank	Neutral	False
722.524	1.45	Control	0.6623	n/a	No	3.225	n/a	5.0	NoResponse	0	0.031	721.555	22	76	Feedback	Neutral	False
723.978	3.225	Control	0.6623	n/a	No	3.225	n/a	n/a	NoResponse	0	0.0	n/a	22	76	ISIslide	Neutral	False
727.221	0.25	Lose2	0.6667000000000001	0.0	Yes	2.579	0.021	n/a	GoodResponse	0	n/a	n/a	22	77	Cue	AvoidedLoss	True
727.472	3.95	Lose2	0.6667000000000001	0.0	Yes	2.579	0.001	n/a	GoodResponse	0	n/a	n/a	22	77	Fixation	AvoidedLoss	True
731.417	0.41	Lose2	0.6667000000000001	0.004	Yes	2.579	-0.004	2.0	GoodResponse	0	0.255	730.672	22	77	Target	AvoidedLoss	True
731.672	0.3	Lose2	0.6667000000000001	0.004	Yes	2.579	-0.004	2.0	GoodResponse	0	0.255	n/a	22	77	ButtonPress	AvoidedLoss	True
731.835	0.29	Lose2	0.6667000000000001	n/a	Yes	2.579	n/a	n/a	GoodResponse	0	n/a	n/a	22	77	Blank	AvoidedLoss	True
732.119	1.45	Lose2	0.6667000000000001	n/a	Yes	2.579	n/a	5.0	GoodResponse	0	0.046	731.165	22	77	Feedback	AvoidedLoss	True
733.573	2.579	Lose2	0.6667000000000001	n/a	Yes	2.579	n/a	n/a	GoodResponse	0	0.0	n/a	22	77	ISIslide	AvoidedLoss	True
