onset	duration	cue_type	current_mean_accuracy	duration_error	is_hit	isi_adjusted	onset_delay	response	response_type	reward	rt	rt_time	total_reward	trial_number	trial_phase	trial_type	one_press
11.107	0.25	Control	1.0	0.0	Yes	2.943	0.007	n/a	GoodResponse	0	n/a	n/a	0	0	Cue	Neutral	True
11.358	3.85	Control	1.0	0.0	Yes	2.943	0.001	n/a	GoodResponse	0	n/a	n/a	0	0	Fixation	Neutral	True
15.202	0.4	Control	1.0	0.005	Yes	2.943	-0.005	1.0	GoodResponse	0	0.23	14.431999999999997	0	0	Target	Neutral	True
15.432	0.3	Control	1.0	0.005	Yes	2.943	-0.005	1.0	GoodResponse	0	0.23	n/a	0	0	ButtonPress	Neutral	True
15.604	0.3	Control	1.0	n/a	Yes	2.943	n/a	n/a	GoodResponse	0	n/a	n/a	0	0	Blank	Neutral	True
15.905	1.45	Control	1.0	n/a	Yes	2.943	n/a	5.0	GoodResponse	0	0.021	14.925999999999997	0	0	Feedback	Neutral	True
17.359	2.943	Control	1.0	n/a	Yes	2.943	n/a	n/a	GoodResponse	0	0.0	n/a	0	0	ISIslide	Neutral	True
20.318	0.25	Lose2	1.0	0.0	Yes	2.782	0.018	n/a	GoodResponse	0	n/a	n/a	0	1	Cue	AvoidedLoss	True
20.568	4.0	Lose2	1.0	0.001	Yes	2.782	0.0	n/a	GoodResponse	0	n/a	n/a	0	1	Fixation	AvoidedLoss	True
24.564	0.39	Lose2	1.0	0.004	Yes	2.782	-0.004	1.0	GoodResponse	0	0.221	23.784999999999997	0	1	Target	AvoidedLoss	True
24.785	0.3	Lose2	1.0	0.004	Yes	2.782	-0.004	1.0	GoodResponse	0	0.221	n/a	0	1	ButtonPress	AvoidedLoss	True
24.965	0.31	Lose2	1.0	n/a	Yes	2.782	n/a	n/a	GoodResponse	0	n/a	n/a	0	1	Blank	AvoidedLoss	True
25.266	1.45	Lose2	1.0	n/a	Yes	2.782	n/a	5.0	GoodResponse	0	0.025	24.290999999999997	0	1	Feedback	AvoidedLoss	True
26.72	2.782	Lose2	1.0	n/a	Yes	2.782	n/a	n/a	GoodResponse	0	0.0	n/a	0	1	ISIslide	AvoidedLoss	True
29.529	0.25	Control	0.6667000000000001	0.0	No	2.571	0.029	n/a	NoResponse	0	n/a	n/a	0	2	Cue	Neutral	False
29.779	4.1	Control	0.6667000000000001	0.0	No	2.571	0.0	n/a	NoResponse	0	n/a	n/a	0	2	Fixation	Neutral	False
33.875	0.38	Control	0.6667000000000001	0.004	No	2.571	-0.004	n/a	NoResponse	0	n/a	n/a	0	2	Target	Neutral	False
34.259	0.32	Control	0.6667000000000001	n/a	No	2.571	n/a	n/a	NoResponse	0	n/a	n/a	0	2	Blank	Neutral	False
34.577	1.45	Control	0.6667000000000001	n/a	No	2.571	n/a	5.0	NoResponse	0	0.032	33.609	0	2	Feedback	Neutral	False
36.031	2.571	Control	0.6667000000000001	n/a	No	2.571	n/a	n/a	NoResponse	0	0.0	n/a	0	2	ISIslide	Neutral	False
38.622	0.25	Win2	0.75	0.0	Yes	2.828	0.022	n/a	GoodResponse	1	n/a	n/a	1	3	Cue	Win	True
38.873	3.95	Win2	0.75	0.0	Yes	2.828	0.001	n/a	GoodResponse	1	n/a	n/a	1	3	Fixation	Win	True
42.818	0.37	Win2	0.75	0.004	Yes	2.828	-0.004	1.0	GoodResponse	1	0.204	42.022	1	3	Target	Win	True
43.022	0.3	Win2	0.75	0.004	Yes	2.828	-0.004	1.0	GoodResponse	1	0.204	n/a	1	3	ButtonPress	Win	True
43.203	0.33	Win2	0.75	n/a	Yes	2.828	n/a	n/a	GoodResponse	1	n/a	n/a	1	3	Blank	Win	True
43.52	1.45	Win2	0.75	n/a	Yes	2.828	n/a	5.0	GoodResponse	1	0.015	42.535	1	3	Feedback	Win	True
44.975	2.828	Win2	0.75	n/a	Yes	2.828	n/a	n/a	GoodResponse	1	0.0	n/a	1	3	ISIslide	Win	True
47.817	0.25	Win2	0.6	0.0	No	3.283	0.017	n/a	NoResponse	0	n/a	n/a	1	4	Cue	MissedWin	True
48.067	4.0	Win2	0.6	0.0	No	3.283	0.0	n/a	NoResponse	0	n/a	n/a	1	4	Fixation	MissedWin	True
52.063	0.36	Win2	0.6	0.004	No	3.283	-0.004	1.0	NoResponse	0	0.41	51.473	1	4	Target	MissedWin	True
52.43	0.34	Win2	0.6	n/a	No	3.283	n/a	n/a	NoResponse	0	n/a	n/a	1	4	Blank	MissedWin	True
52.473	0.3	Win2	0.6	0.004	No	3.283	-0.004	1.0	NoResponse	0	0.41	n/a	1	4	ButtonPress	MissedWin	True
52.765	1.45	Win2	0.6	n/a	No	3.283	n/a	5.0	NoResponse	0	0.038	51.803	1	4	Feedback	MissedWin	True
54.219	3.283	Win2	0.6	n/a	No	3.283	n/a	n/a	NoResponse	0	0.0	n/a	1	4	ISIslide	MissedWin	True
57.529	0.25	Win2	0.6667000000000001	0.0	Yes	2.771	0.029	n/a	GoodResponse	1	n/a	n/a	2	5	Cue	Win	True
57.78	4.0	Win2	0.6667000000000001	0.0	Yes	2.771	0.001	n/a	GoodResponse	1	n/a	n/a	2	5	Fixation	Win	True
61.775	0.37	Win2	0.6667000000000001	0.004	Yes	2.771	-0.004	1.0	GoodResponse	1	0.322	61.097	2	5	Target	Win	True
62.097	0.3	Win2	0.6667000000000001	0.004	Yes	2.771	-0.004	1.0	GoodResponse	1	0.322	n/a	2	5	ButtonPress	Win	True
62.159	0.33	Win2	0.6667000000000001	n/a	Yes	2.771	n/a	n/a	GoodResponse	1	n/a	n/a	2	5	Blank	Win	True
62.477	1.45	Win2	0.6667000000000001	n/a	Yes	2.771	n/a	5.0	GoodResponse	1	0.033	61.51	2	5	Feedback	Win	True
63.931	2.771	Win2	0.6667000000000001	n/a	Yes	2.771	n/a	n/a	GoodResponse	1	0.0	n/a	2	5	ISIslide	Win	True
66.723	0.25	Lose2	0.7143	0.0	Yes	2.727	0.023	n/a	GoodResponse	0	n/a	n/a	2	6	Cue	AvoidedLoss	False
66.974	3.95	Lose2	0.7143	0.0	Yes	2.727	0.001	1.0	GoodResponse	0	0.188	66.162	2	6	Fixation	AvoidedLoss	False
67.162	0.3	Lose2	0.7143	0.0	Yes	2.727	0.001	1.0	GoodResponse	0	0.188	n/a	2	6	ButtonPress	AvoidedLoss	False
70.919	0.36	Lose2	0.7143	0.004	Yes	2.727	-0.004	1.0	GoodResponse	0	0.219	70.138	2	6	Target	AvoidedLoss	False
71.138	0.3	Lose2	0.7143	0.004	Yes	2.727	-0.004	1.0	GoodResponse	0	0.219	n/a	2	6	ButtonPress	AvoidedLoss	False
71.287	0.34	Lose2	0.7143	n/a	Yes	2.727	n/a	n/a	GoodResponse	0	n/a	n/a	2	6	Blank	AvoidedLoss	False
71.621	1.45	Lose2	0.7143	n/a	Yes	2.727	n/a	5.0	GoodResponse	0	0.011	70.632	2	6	Feedback	AvoidedLoss	False
73.075	2.727	Lose2	0.7143	n/a	Yes	2.727	n/a	n/a	GoodResponse	0	0.0	n/a	2	6	ISIslide	AvoidedLoss	False
75.817	0.25	Lose2	0.75	0.0	Yes	4.033	0.017	n/a	GoodResponse	0	n/a	n/a	2	7	Cue	AvoidedLoss	True
76.068	4.05	Lose2	0.75	0.0	Yes	4.033	0.001	n/a	GoodResponse	0	n/a	n/a	2	7	Fixation	AvoidedLoss	True
80.113	0.35	Lose2	0.75	0.004	Yes	4.033	-0.004	1.0	GoodResponse	0	0.214	79.327	2	7	Target	AvoidedLoss	True
80.327	0.3	Lose2	0.75	0.004	Yes	4.033	-0.004	1.0	GoodResponse	0	0.214	n/a	2	7	ButtonPress	AvoidedLoss	True
80.464	0.35	Lose2	0.75	n/a	Yes	4.033	n/a	n/a	GoodResponse	0	n/a	n/a	2	7	Blank	AvoidedLoss	True
80.815	1.45	Lose2	0.75	n/a	Yes	4.033	n/a	5.0	GoodResponse	0	0.036	79.851	2	7	Feedback	AvoidedLoss	True
82.269	4.033	Lose2	0.75	n/a	Yes	4.033	n/a	n/a	GoodResponse	0	0.0	n/a	2	7	ISIslide	AvoidedLoss	True
86.315	0.25	Lose2	0.7778	0.0	Yes	3.035	0.015	n/a	GoodResponse	0	n/a	n/a	2	8	Cue	AvoidedLoss	True
86.566	3.95	Lose2	0.7778	0.0	Yes	3.035	0.001	n/a	GoodResponse	0	n/a	n/a	2	8	Fixation	AvoidedLoss	True
90.511	0.34	Lose2	0.7778	0.004	Yes	3.035	-0.004	1.0	GoodResponse	0	0.209	89.72	2	8	Target	AvoidedLoss	True
90.72	0.3	Lose2	0.7778	0.004	Yes	3.035	-0.004	1.0	GoodResponse	0	0.209	n/a	2	8	ButtonPress	AvoidedLoss	True
90.862	0.36	Lose2	0.7778	n/a	Yes	3.035	n/a	n/a	GoodResponse	0	n/a	n/a	2	8	Blank	AvoidedLoss	True
91.213	1.45	Lose2	0.7778	n/a	Yes	3.035	n/a	5.0	GoodResponse	0	0.028	90.241	2	8	Feedback	AvoidedLoss	True
92.667	3.035	Lose2	0.7778	n/a	Yes	3.035	n/a	n/a	GoodResponse	0	0.0	n/a	2	8	ISIslide	AvoidedLoss	True
95.726	0.25	Lose2	0.7	0.0	No	3.124	0.026	n/a	NoResponse	-1	n/a	n/a	1	9	Cue	Loss	True
95.977	3.95	Lose2	0.7	0.0	No	3.124	0.001	n/a	NoResponse	-1	n/a	n/a	1	9	Fixation	Loss	True
99.922	0.33	Lose2	0.7	0.004	No	3.124	-0.004	1.0	NoResponse	-1	0.346	99.268	1	9	Target	Loss	True
100.256	0.37	Lose2	0.7	n/a	No	3.124	n/a	n/a	NoResponse	-1	n/a	n/a	1	9	Blank	Loss	True
100.268	0.3	Lose2	0.7	0.004	No	3.124	-0.004	1.0	NoResponse	-1	0.346	n/a	1	9	ButtonPress	Loss	True
100.624	1.45	Lose2	0.7	n/a	No	3.124	n/a	5.0	NoResponse	-1	0.032	99.656	1	9	Feedback	Loss	True
102.079	3.124	Lose2	0.7	n/a	No	3.124	n/a	n/a	NoResponse	-1	0.0	n/a	1	9	ISIslide	Loss	True
105.221	0.25	Control	0.7273000000000001	0.0	Yes	3.279	0.021	n/a	GoodResponse	0	n/a	n/a	1	10	Cue	Neutral	True
105.472	4.0	Control	0.7273000000000001	0.0	Yes	3.279	0.001	n/a	GoodResponse	0	n/a	n/a	1	10	Fixation	Neutral	True
109.467	0.32	Control	0.7273000000000001	0.004	Yes	3.279	-0.004	1.0	GoodResponse	0	0.254	108.721	1	10	Target	Neutral	True
109.721	0.3	Control	0.7273000000000001	0.004	Yes	3.279	-0.004	1.0	GoodResponse	0	0.254	n/a	1	10	ButtonPress	Neutral	True
109.802	0.38	Control	0.7273000000000001	n/a	Yes	3.279	n/a	n/a	GoodResponse	0	n/a	n/a	1	10	Blank	Neutral	True
110.169	1.45	Control	0.7273000000000001	n/a	Yes	3.279	n/a	5.0	GoodResponse	0	0.048	109.217	1	10	Feedback	Neutral	True
111.624	3.279	Control	0.7273000000000001	n/a	Yes	3.279	n/a	n/a	GoodResponse	0	0.0	n/a	1	10	ISIslide	Neutral	True
114.917	0.25	Lose2	0.75	0.0	Yes	2.733	0.017	n/a	GoodResponse	0	n/a	n/a	1	11	Cue	AvoidedLoss	True
115.168	4.05	Lose2	0.75	0.0	Yes	2.733	0.001	n/a	GoodResponse	0	n/a	n/a	1	11	Fixation	AvoidedLoss	True
119.213	0.31	Lose2	0.75	0.004	Yes	2.733	-0.004	1.0	GoodResponse	0	0.225	118.438	1	11	Target	AvoidedLoss	True
119.438	0.3	Lose2	0.75	0.004	Yes	2.733	-0.004	1.0	GoodResponse	0	0.225	n/a	1	11	ButtonPress	AvoidedLoss	True
119.531	0.39	Lose2	0.75	n/a	Yes	2.733	n/a	n/a	GoodResponse	0	n/a	n/a	1	11	Blank	AvoidedLoss	True
119.915	1.45	Lose2	0.75	n/a	Yes	2.733	n/a	5.0	GoodResponse	0	0.009	118.924	1	11	Feedback	AvoidedLoss	True
121.37	2.733	Lose2	0.75	n/a	Yes	2.733	n/a	n/a	GoodResponse	0	0.0	n/a	1	11	ISIslide	AvoidedLoss	True
124.128	0.25	Control	0.6923	0.0	No	2.972	0.028	n/a	NoResponse	0	n/a	n/a	1	12	Cue	Neutral	True
124.379	3.9	Control	0.6923	0.0	No	2.972	0.001	n/a	NoResponse	0	n/a	n/a	1	12	Fixation	Neutral	True
128.273	0.3	Control	0.6923	0.005	No	2.972	-0.005	1.0	NoResponse	0	0.381	127.654	1	12	Target	Neutral	True
128.574	0.4	Control	0.6923	n/a	No	2.972	n/a	n/a	NoResponse	0	n/a	n/a	1	12	Blank	Neutral	True
128.654	0.3	Control	0.6923	0.005	No	2.972	-0.005	1.0	NoResponse	0	0.381	n/a	1	12	ButtonPress	Neutral	True
128.976	1.45	Control	0.6923	n/a	No	2.972	n/a	5.0	NoResponse	0	0.021	127.997	1	12	Feedback	Neutral	True
130.43	2.972	Control	0.6923	n/a	No	2.972	n/a	n/a	NoResponse	0	0.0	n/a	1	12	ISIslide	Neutral	True
133.422	0.25	Control	0.7143	0.0	Yes	2.778	0.022	n/a	GoodResponse	0	n/a	n/a	1	13	Cue	Neutral	True
133.673	4.0	Control	0.7143	0.0	Yes	2.778	0.001	n/a	GoodResponse	0	n/a	n/a	1	13	Fixation	Neutral	True
137.668	0.29	Control	0.7143	0.004	Yes	2.778	-0.004	1.0	GoodResponse	0	0.248	136.916	1	13	Target	Neutral	True
137.916	0.3	Control	0.7143	0.004	Yes	2.778	-0.004	1.0	GoodResponse	0	0.248	n/a	1	13	ButtonPress	Neutral	True
137.969	0.41	Control	0.7143	n/a	Yes	2.778	n/a	n/a	GoodResponse	0	n/a	n/a	1	13	Blank	Neutral	True
138.37	1.45	Control	0.7143	n/a	Yes	2.778	n/a	5.0	GoodResponse	0	0.042	137.412	1	13	Feedback	Neutral	True
139.825	2.778	Control	0.7143	n/a	Yes	2.778	n/a	n/a	GoodResponse	0	0.0	n/a	1	13	ISIslide	Neutral	True
142.616	0.25	Win2	0.7333	0.0	Yes	2.684	0.016	n/a	GoodResponse	1	n/a	n/a	2	14	Cue	Win	True
142.867	4.1	Win2	0.7333	0.0	Yes	2.684	0.001	n/a	GoodResponse	1	n/a	n/a	2	14	Fixation	Win	True
146.963	0.28	Win2	0.7333	0.003	Yes	2.684	-0.003	1.0	GoodResponse	1	0.216	146.179	2	14	Target	Win	True
147.179	0.3	Win2	0.7333	0.003	Yes	2.684	-0.003	1.0	GoodResponse	1	0.216	n/a	2	14	ButtonPress	Win	True
147.247	0.42	Win2	0.7333	n/a	Yes	2.684	n/a	n/a	GoodResponse	1	n/a	n/a	2	14	Blank	Win	True
147.665	1.45	Win2	0.7333	n/a	Yes	2.684	n/a	5.0	GoodResponse	1	0.015	146.68	2	14	Feedback	Win	True
149.119	2.684	Win2	0.7333	n/a	Yes	2.684	n/a	n/a	GoodResponse	1	0.0	n/a	2	14	ISIslide	Win	True
151.827	0.25	Control	0.6875	0.0	No	2.973	0.027	n/a	NoResponse	0	n/a	n/a	2	15	Cue	Neutral	True
152.078	4.0	Control	0.6875	0.0	No	2.973	0.001	n/a	NoResponse	0	n/a	n/a	2	15	Fixation	Neutral	True
156.073	0.27	Control	0.6875	0.004	No	2.973	-0.004	1.0	NoResponse	0	0.357	155.43	2	15	Target	Neutral	True
156.357	0.43	Control	0.6875	n/a	No	2.973	n/a	n/a	NoResponse	0	n/a	n/a	2	15	Blank	Neutral	True
156.43	0.3	Control	0.6875	0.004	No	2.973	-0.004	1.0	NoResponse	0	0.357	n/a	2	15	ButtonPress	Neutral	True
156.775	1.45	Control	0.6875	n/a	No	2.973	n/a	5.0	NoResponse	0	0.026	155.801	2	15	Feedback	Neutral	True
158.23	2.973	Control	0.6875	n/a	No	2.973	n/a	n/a	NoResponse	0	0.0	n/a	2	15	ISIslide	Neutral	True
161.222	0.25	Win2	0.6470999999999999	0.0	No	2.878	0.022	n/a	LatePress	0	n/a	n/a	2	16	Cue	MissedWin	True
161.473	4.0	Win2	0.6470999999999999	0.0	No	2.878	0.001	n/a	LatePress	0	n/a	n/a	2	16	Fixation	MissedWin	True
165.468	0.26	Win2	0.6470999999999999	0.004	No	2.878	-0.004	1.0	LatePress	0	0.26	164.728	2	16	Target	MissedWin	True
165.728	0.3	Win2	0.6470999999999999	0.004	No	2.878	-0.004	1.0	LatePress	0	0.26	n/a	2	16	ButtonPress	MissedWin	True
165.735	0.44	Win2	0.6470999999999999	n/a	No	2.878	n/a	n/a	LatePress	0	n/a	n/a	2	16	Blank	MissedWin	True
166.17	1.45	Win2	0.6470999999999999	n/a	No	2.878	n/a	5.0	LatePress	0	0.046	165.216	2	16	Feedback	MissedWin	True
167.624	2.878	Win2	0.6470999999999999	n/a	No	2.878	n/a	n/a	LatePress	0	0.0	n/a	2	16	ISIslide	MissedWin	True
170.516	0.25	Lose2	0.6667000000000001	0.0	Yes	2.734	0.016	n/a	GoodResponse	0	n/a	n/a	2	17	Cue	AvoidedLoss	True
170.767	3.95	Lose2	0.6667000000000001	0.0	Yes	2.734	0.001	n/a	GoodResponse	0	n/a	n/a	2	17	Fixation	AvoidedLoss	True
174.712	0.27	Lose2	0.6667000000000001	0.004	Yes	2.734	-0.004	1.0	GoodResponse	0	0.21	173.922	2	17	Target	AvoidedLoss	True
174.922	0.3	Lose2	0.6667000000000001	0.004	Yes	2.734	-0.004	1.0	GoodResponse	0	0.21	n/a	2	17	ButtonPress	AvoidedLoss	True
174.996	0.43	Lose2	0.6667000000000001	n/a	Yes	2.734	n/a	n/a	GoodResponse	0	n/a	n/a	2	17	Blank	AvoidedLoss	True
175.414	1.45	Lose2	0.6667000000000001	n/a	Yes	2.734	n/a	5.0	GoodResponse	0	0.021	174.435	2	17	Feedback	AvoidedLoss	True
176.869	2.734	Lose2	0.6667000000000001	n/a	Yes	2.734	n/a	n/a	GoodResponse	0	0.0	n/a	2	17	ISIslide	AvoidedLoss	True
179.627	0.25	Lose2	0.6842	0.0	Yes	2.723	0.027	n/a	GoodResponse	0	n/a	n/a	2	18	Cue	AvoidedLoss	True
179.878	4.05	Lose2	0.6842	0.0	Yes	2.723	0.001	n/a	GoodResponse	0	n/a	n/a	2	18	Fixation	AvoidedLoss	True
183.923	0.26	Lose2	0.6842	0.004	Yes	2.723	-0.004	1.0	GoodResponse	0	0.216	183.139	2	18	Target	AvoidedLoss	True
184.139	0.3	Lose2	0.6842	0.004	Yes	2.723	-0.004	1.0	GoodResponse	0	0.216	n/a	2	18	ButtonPress	AvoidedLoss	True
184.19	0.44	Lose2	0.6842	n/a	Yes	2.723	n/a	n/a	GoodResponse	0	n/a	n/a	2	18	Blank	AvoidedLoss	True
184.625	1.45	Lose2	0.6842	n/a	Yes	2.723	n/a	5.0	GoodResponse	0	0.03	183.655	2	18	Feedback	AvoidedLoss	True
186.079	2.723	Lose2	0.6842	n/a	Yes	2.723	n/a	n/a	GoodResponse	0	0.0	n/a	2	18	ISIslide	AvoidedLoss	True
188.821	0.25	Control	0.65	0.0	No	2.929	0.021	n/a	NoResponse	0	n/a	n/a	2	19	Cue	Neutral	True
189.072	3.95	Control	0.65	0.0	No	2.929	0.001	n/a	NoResponse	0	n/a	n/a	2	19	Fixation	Neutral	True
193.017	0.25	Control	0.65	0.004	No	2.929	-0.004	1.0	NoResponse	0	0.323	192.34	2	19	Target	Neutral	True
193.268	0.45	Control	0.65	n/a	No	2.929	n/a	n/a	NoResponse	0	n/a	n/a	2	19	Blank	Neutral	True
193.34	0.3	Control	0.65	0.004	No	2.929	-0.004	1.0	NoResponse	0	0.323	n/a	2	19	ButtonPress	Neutral	True
193.719	1.45	Control	0.65	n/a	No	2.929	n/a	5.0	NoResponse	0	0.008	192.727	2	19	Feedback	Neutral	True
195.173	2.929	Control	0.65	n/a	No	2.929	n/a	n/a	NoResponse	0	0.0	n/a	2	19	ISIslide	Neutral	True
198.115	0.25	Control	0.619	0.0	No	2.635	0.015	n/a	NoResponse	0	n/a	n/a	2	20	Cue	Neutral	True
198.366	4.05	Control	0.619	0.0	No	2.635	0.001	n/a	NoResponse	0	n/a	n/a	2	20	Fixation	Neutral	True
202.412	0.26	Control	0.619	0.003	No	2.635	-0.003	1.0	NoResponse	0	0.357	201.769	2	20	Target	Neutral	True
202.679	0.44	Control	0.619	n/a	No	2.635	n/a	n/a	NoResponse	0	n/a	n/a	2	20	Blank	Neutral	True
202.769	0.3	Control	0.619	0.003	No	2.635	-0.003	1.0	NoResponse	0	0.357	n/a	2	20	ButtonPress	Neutral	True
203.114	1.45	Control	0.619	n/a	No	2.635	n/a	5.0	NoResponse	0	0.028	202.142	2	20	Feedback	Neutral	True
204.568	2.635	Control	0.619	n/a	No	2.635	n/a	n/a	NoResponse	0	0.0	n/a	2	20	ISIslide	Neutral	True
207.226	0.25	Control	0.6364	0.0	Yes	2.774	0.026	n/a	GoodResponse	0	n/a	n/a	2	21	Cue	Neutral	True
207.477	4.1	Control	0.6364	0.0	Yes	2.774	0.001	n/a	GoodResponse	0	n/a	n/a	2	21	Fixation	Neutral	True
211.572	0.27	Control	0.6364	0.004	Yes	2.774	-0.004	1.0	GoodResponse	0	0.219	210.791	2	21	Target	Neutral	True
211.791	0.3	Control	0.6364	0.004	Yes	2.774	-0.004	1.0	GoodResponse	0	0.219	n/a	2	21	ButtonPress	Neutral	True
211.856	0.43	Control	0.6364	n/a	Yes	2.774	n/a	n/a	GoodResponse	0	n/a	n/a	2	21	Blank	Neutral	True
212.274	1.45	Control	0.6364	n/a	Yes	2.774	n/a	5.0	GoodResponse	0	0.039	211.313	2	21	Feedback	Neutral	True
213.729	2.774	Control	0.6364	n/a	Yes	2.774	n/a	n/a	GoodResponse	0	0.0	n/a	2	21	ISIslide	Neutral	True
216.52	0.25	Control	0.6522	0.0	Yes	2.78	0.02	n/a	GoodResponse	0	n/a	n/a	2	22	Cue	Neutral	True
216.771	4.0	Control	0.6522	0.0	Yes	2.78	0.001	n/a	GoodResponse	0	n/a	n/a	2	22	Fixation	Neutral	True
220.766	0.28	Control	0.6522	0.004	Yes	2.78	-0.004	1.0	GoodResponse	0	0.238	220.004	2	22	Target	Neutral	True
221.004	0.3	Control	0.6522	0.004	Yes	2.78	-0.004	1.0	GoodResponse	0	0.238	n/a	2	22	ButtonPress	Neutral	True
221.051	0.42	Control	0.6522	n/a	Yes	2.78	n/a	n/a	GoodResponse	0	n/a	n/a	2	22	Blank	Neutral	True
221.468	1.45	Control	0.6522	n/a	Yes	2.78	n/a	5.0	GoodResponse	0	0.016	220.484	2	22	Feedback	Neutral	True
222.923	2.78	Control	0.6522	n/a	Yes	2.78	n/a	n/a	GoodResponse	0	0.0	n/a	2	22	ISIslide	Neutral	True
225.714	0.25	Control	0.625	0.001	No	2.786	0.014	n/a	NoResponse	0	n/a	n/a	2	23	Cue	Neutral	True
225.965	3.9	Control	0.625	0.0	No	2.786	0.001	n/a	NoResponse	0	n/a	n/a	2	23	Fixation	Neutral	True
229.86	0.29	Control	0.625	0.004	No	2.786	-0.004	1.0	NoResponse	0	0.454	229.314	2	23	Target	Neutral	True
230.161	0.41	Control	0.625	n/a	No	2.786	n/a	n/a	NoResponse	0	n/a	n/a	2	23	Blank	Neutral	True
230.314	0.3	Control	0.625	0.004	No	2.786	-0.004	1.0	NoResponse	0	0.454	n/a	2	23	ButtonPress	Neutral	True
230.562	1.45	Control	0.625	n/a	No	2.786	n/a	5.0	NoResponse	0	0.043	229.605	2	23	Feedback	Neutral	True
232.017	2.786	Control	0.625	n/a	No	2.786	n/a	n/a	NoResponse	0	0.0	n/a	2	23	ISIslide	Neutral	True
234.825	0.25	Win2	0.64	0.0	Yes	3.125	0.025	n/a	GoodResponse	1	n/a	n/a	3	24	Cue	Win	True
235.076	3.95	Win2	0.64	0.0	Yes	3.125	0.001	n/a	GoodResponse	1	n/a	n/a	3	24	Fixation	Win	True
239.021	0.3	Win2	0.64	0.004	Yes	3.125	-0.004	1.0	GoodResponse	1	0.212	238.233	3	24	Target	Win	True
239.233	0.3	Win2	0.64	0.004	Yes	3.125	-0.004	1.0	GoodResponse	1	0.212	n/a	3	24	ButtonPress	Win	True
239.322	0.4	Win2	0.64	n/a	Yes	3.125	n/a	n/a	GoodResponse	1	n/a	n/a	3	24	Blank	Win	True
239.723	1.45	Win2	0.64	n/a	Yes	3.125	n/a	5.0	GoodResponse	1	0.007	238.73	3	24	Feedback	Win	True
241.177	3.125	Win2	0.64	n/a	Yes	3.125	n/a	n/a	GoodResponse	1	0.0	n/a	3	24	ISIslide	Win	True
244.32	0.25	Win2	0.6537999999999999	0.0	Yes	3.08	0.02	n/a	GoodResponse	1	n/a	n/a	4	25	Cue	Win	True
244.571	4.0	Win2	0.6537999999999999	0.0	Yes	3.08	0.001	n/a	GoodResponse	1	n/a	n/a	4	25	Fixation	Win	True
248.566	0.31	Win2	0.6537999999999999	0.004	Yes	3.08	-0.004	1.0	GoodResponse	1	0.23	247.796	4	25	Target	Win	True
248.796	0.3	Win2	0.6537999999999999	0.004	Yes	3.08	-0.004	1.0	GoodResponse	1	0.23	n/a	4	25	ButtonPress	Win	True
248.884	0.39	Win2	0.6537999999999999	n/a	Yes	3.08	n/a	n/a	GoodResponse	1	n/a	n/a	4	25	Blank	Win	True
249.268	1.45	Win2	0.6537999999999999	n/a	Yes	3.08	n/a	5.0	GoodResponse	1	0.02	248.288	4	25	Feedback	Win	True
250.723	3.08	Win2	0.6537999999999999	n/a	Yes	3.08	n/a	n/a	GoodResponse	1	0.0	n/a	4	25	ISIslide	Win	True
253.815	0.25	Win2	0.6667000000000001	0.0	Yes	2.935	0.015	n/a	GoodResponse	1	n/a	n/a	5	26	Cue	Win	True
254.066	3.95	Win2	0.6667000000000001	0.0	Yes	2.935	0.001	n/a	GoodResponse	1	n/a	n/a	5	26	Fixation	Win	True
258.011	0.32	Win2	0.6667000000000001	0.004	Yes	2.935	-0.004	1.0	GoodResponse	1	0.229	257.24	5	26	Target	Win	True
258.24	0.3	Win2	0.6667000000000001	0.004	Yes	2.935	-0.004	1.0	GoodResponse	1	0.229	n/a	5	26	ButtonPress	Win	True
258.345	0.38	Win2	0.6667000000000001	n/a	Yes	2.935	n/a	n/a	GoodResponse	1	n/a	n/a	5	26	Blank	Win	True
258.713	1.45	Win2	0.6667000000000001	n/a	Yes	2.935	n/a	5.0	GoodResponse	1	0.038	257.751	5	26	Feedback	Win	True
260.167	2.935	Win2	0.6667000000000001	n/a	Yes	2.935	n/a	n/a	GoodResponse	1	0.0	n/a	5	26	ISIslide	Win	True
263.126	0.25	Lose2	0.6786	0.0	Yes	2.824	0.026	n/a	GoodResponse	0	n/a	n/a	5	27	Cue	AvoidedLoss	True
263.377	4.05	Lose2	0.6786	0.0	Yes	2.824	0.001	n/a	GoodResponse	0	n/a	n/a	5	27	Fixation	AvoidedLoss	True
267.422	0.31	Lose2	0.6786	0.004	Yes	2.824	-0.004	1.0	GoodResponse	0	0.223	266.645	5	27	Target	AvoidedLoss	True
267.645	0.3	Lose2	0.6786	0.004	Yes	2.824	-0.004	1.0	GoodResponse	0	0.223	n/a	5	27	ButtonPress	AvoidedLoss	True
267.74	0.39	Lose2	0.6786	n/a	Yes	2.824	n/a	n/a	GoodResponse	0	n/a	n/a	5	27	Blank	AvoidedLoss	True
268.124	1.45	Lose2	0.6786	n/a	Yes	2.824	n/a	5.0	GoodResponse	0	0.041	267.165	5	27	Feedback	AvoidedLoss	True
269.579	2.824	Lose2	0.6786	n/a	Yes	2.824	n/a	n/a	GoodResponse	0	0.0	n/a	5	27	ISIslide	AvoidedLoss	True
272.421	0.25	Control	0.6552	0.0	No	2.829	0.021	n/a	NoResponse	0	n/a	n/a	5	28	Cue	Neutral	True
272.671	4.05	Control	0.6552	0.0	No	2.829	0.0	n/a	NoResponse	0	n/a	n/a	5	28	Fixation	Neutral	True
276.717	0.3	Control	0.6552	0.004	No	2.829	-0.004	1.0	NoResponse	0	0.32	276.037	5	28	Target	Neutral	True
277.018	0.4	Control	0.6552	n/a	No	2.829	n/a	n/a	NoResponse	0	n/a	n/a	5	28	Blank	Neutral	True
277.037	0.3	Control	0.6552	0.004	No	2.829	-0.004	1.0	NoResponse	0	0.32	n/a	5	28	ButtonPress	Neutral	True
277.419	1.45	Control	0.6552	n/a	No	2.829	n/a	5.0	NoResponse	0	0.014	276.433	5	28	Feedback	Neutral	True
278.873	2.829	Control	0.6552	n/a	No	2.829	n/a	n/a	NoResponse	0	0.0	n/a	5	28	ISIslide	Neutral	True
281.715	0.25	Lose2	0.6667000000000001	0.0	Yes	2.835	0.015	n/a	GoodResponse	0	n/a	n/a	5	29	Cue	AvoidedLoss	True
281.966	3.95	Lose2	0.6667000000000001	0.0	Yes	2.835	0.001	n/a	GoodResponse	0	n/a	n/a	5	29	Fixation	AvoidedLoss	True
285.911	0.3	Lose2	0.6667000000000001	0.004	Yes	2.835	-0.004	1.0	GoodResponse	0	0.199	285.11	5	29	Target	AvoidedLoss	True
286.11	0.3	Lose2	0.6667000000000001	0.004	Yes	2.835	-0.004	1.0	GoodResponse	0	0.199	n/a	5	29	ButtonPress	AvoidedLoss	True
286.212	0.4	Lose2	0.6667000000000001	n/a	Yes	2.835	n/a	n/a	GoodResponse	0	n/a	n/a	5	29	Blank	AvoidedLoss	True
286.613	1.45	Lose2	0.6667000000000001	n/a	Yes	2.835	n/a	5.0	GoodResponse	0	0.04	285.653	5	29	Feedback	AvoidedLoss	True
288.067	2.835	Lose2	0.6667000000000001	n/a	Yes	2.835	n/a	n/a	GoodResponse	0	0.0	n/a	5	29	ISIslide	AvoidedLoss	True
290.926	0.25	Win2	0.6774	0.0	Yes	2.774	0.026	n/a	GoodResponse	1	n/a	n/a	6	30	Cue	Win	True
291.177	3.9	Win2	0.6774	0.0	Yes	2.774	0.001	n/a	GoodResponse	1	n/a	n/a	6	30	Fixation	Win	True
295.072	0.29	Win2	0.6774	0.004	Yes	2.774	-0.004	1.0	GoodResponse	1	0.223	294.295	6	30	Target	Win	True
295.295	0.3	Win2	0.6774	0.004	Yes	2.774	-0.004	1.0	GoodResponse	1	0.223	n/a	6	30	ButtonPress	Win	True
295.373	0.41	Win2	0.6774	n/a	Yes	2.774	n/a	n/a	GoodResponse	1	n/a	n/a	6	30	Blank	Win	True
295.774	1.45	Win2	0.6774	n/a	Yes	2.774	n/a	5.0	GoodResponse	1	0.001	294.775	6	30	Feedback	Win	True
297.228	2.774	Win2	0.6774	n/a	Yes	2.774	n/a	n/a	GoodResponse	1	0.0	n/a	6	30	ISIslide	Win	True
300.02	0.25	Lose2	0.6875	0.0	Yes	2.83	0.02	n/a	GoodResponse	0	n/a	n/a	6	31	Cue	AvoidedLoss	True
300.27	4.05	Lose2	0.6875	0.001	Yes	2.83	0.0	n/a	GoodResponse	0	n/a	n/a	6	31	Fixation	AvoidedLoss	True
304.316	0.28	Lose2	0.6875	0.004	Yes	2.83	-0.004	1.0	GoodResponse	0	0.211	303.527	6	31	Target	AvoidedLoss	True
304.527	0.3	Lose2	0.6875	0.004	Yes	2.83	-0.004	1.0	GoodResponse	0	0.211	n/a	6	31	ButtonPress	AvoidedLoss	True
304.6	0.42	Lose2	0.6875	n/a	Yes	2.83	n/a	n/a	GoodResponse	0	n/a	n/a	6	31	Blank	AvoidedLoss	True
305.018	1.45	Lose2	0.6875	n/a	Yes	2.83	n/a	5.0	GoodResponse	0	0.024	304.042	6	31	Feedback	AvoidedLoss	True
306.472	2.83	Lose2	0.6875	n/a	Yes	2.83	n/a	n/a	GoodResponse	0	0.0	n/a	6	31	ISIslide	AvoidedLoss	True
309.331	0.25	Lose2	0.6970000000000001	0.0	Yes	2.619	0.031	n/a	GoodResponse	0	n/a	n/a	6	32	Cue	AvoidedLoss	True
309.582	4.15	Lose2	0.6970000000000001	0.0	Yes	2.619	0.001	n/a	GoodResponse	0	n/a	n/a	6	32	Fixation	AvoidedLoss	True
313.727	0.27	Lose2	0.6970000000000001	0.004	Yes	2.619	-0.004	1.0	GoodResponse	0	0.218	312.945	6	32	Target	AvoidedLoss	True
313.945	0.3	Lose2	0.6970000000000001	0.004	Yes	2.619	-0.004	1.0	GoodResponse	0	0.218	n/a	6	32	ButtonPress	AvoidedLoss	True
314.012	0.43	Lose2	0.6970000000000001	n/a	Yes	2.619	n/a	n/a	GoodResponse	0	n/a	n/a	6	32	Blank	AvoidedLoss	True
314.429	1.45	Lose2	0.6970000000000001	n/a	Yes	2.619	n/a	5.0	GoodResponse	0	0.028	313.457	6	32	Feedback	AvoidedLoss	True
315.884	2.619	Lose2	0.6970000000000001	n/a	Yes	2.619	n/a	n/a	GoodResponse	0	0.0	n/a	6	32	ISIslide	AvoidedLoss	True
318.525	0.25	Win2	0.7059000000000001	0.0	Yes	2.675	0.025	n/a	GoodResponse	1	n/a	n/a	7	33	Cue	Win	True
318.776	4.0	Win2	0.7059000000000001	0.0	Yes	2.675	0.001	n/a	GoodResponse	1	n/a	n/a	7	33	Fixation	Win	True
322.771	0.26	Win2	0.7059000000000001	0.004	Yes	2.675	-0.004	1.0	GoodResponse	1	0.209	321.98	7	33	Target	Win	True
322.98	0.3	Win2	0.7059000000000001	0.004	Yes	2.675	-0.004	1.0	GoodResponse	1	0.209	n/a	7	33	ButtonPress	Win	True
323.038	0.44	Win2	0.7059000000000001	n/a	Yes	2.675	n/a	n/a	GoodResponse	1	n/a	n/a	7	33	Blank	Win	True
323.473	1.45	Win2	0.7059000000000001	n/a	Yes	2.675	n/a	5.0	GoodResponse	1	0.009	322.482	7	33	Feedback	Win	True
324.927	2.675	Win2	0.7059000000000001	n/a	Yes	2.675	n/a	n/a	GoodResponse	1	0.0	n/a	7	33	ISIslide	Win	True
327.619	0.25	Lose2	0.7143	0.0	Yes	2.631	0.019	n/a	GoodResponse	0	n/a	n/a	7	34	Cue	AvoidedLoss	True
327.87	4.05	Lose2	0.7143	0.0	Yes	2.631	0.001	n/a	GoodResponse	0	n/a	n/a	7	34	Fixation	AvoidedLoss	True
331.915	0.25	Lose2	0.7143	0.004	Yes	2.631	-0.004	1.0	GoodResponse	0	0.207	331.122	7	34	Target	AvoidedLoss	True
332.122	0.3	Lose2	0.7143	0.004	Yes	2.631	-0.004	1.0	GoodResponse	0	0.207	n/a	7	34	ButtonPress	AvoidedLoss	True
332.166	0.45	Lose2	0.7143	n/a	Yes	2.631	n/a	n/a	GoodResponse	0	n/a	n/a	7	34	Blank	AvoidedLoss	True
332.617	1.45	Lose2	0.7143	n/a	Yes	2.631	n/a	5.0	GoodResponse	0	0.035	331.652	7	34	Feedback	AvoidedLoss	True
334.071	2.631	Lose2	0.7143	n/a	Yes	2.631	n/a	n/a	GoodResponse	0	0.0	n/a	7	34	ISIslide	AvoidedLoss	True
336.729	0.25	Lose2	0.7222	0.0	Yes	2.671	0.029	n/a	GoodResponse	0	n/a	n/a	7	35	Cue	AvoidedLoss	True
336.98	4.0	Lose2	0.7222	0.0	Yes	2.671	0.001	n/a	GoodResponse	0	n/a	n/a	7	35	Fixation	AvoidedLoss	True
340.975	0.24	Lose2	0.7222	0.004	Yes	2.671	-0.004	1.0	GoodResponse	0	0.214	340.189	7	35	Target	AvoidedLoss	True
341.189	0.3	Lose2	0.7222	0.004	Yes	2.671	-0.004	1.0	GoodResponse	0	0.214	n/a	7	35	ButtonPress	AvoidedLoss	True
341.226	0.46	Lose2	0.7222	n/a	Yes	2.671	n/a	n/a	GoodResponse	0	n/a	n/a	7	35	Blank	AvoidedLoss	True
341.677	1.45	Lose2	0.7222	n/a	Yes	2.671	n/a	5.0	GoodResponse	0	0.048	340.725	7	35	Feedback	AvoidedLoss	True
343.132	2.671	Lose2	0.7222	n/a	Yes	2.671	n/a	n/a	GoodResponse	0	0.0	n/a	7	35	ISIslide	AvoidedLoss	True
345.823	0.25	Control	0.7027	0.0	No	2.677	0.023	n/a	NoResponse	0	n/a	n/a	7	36	Cue	Neutral	True
346.074	4.0	Control	0.7027	0.0	No	2.677	0.001	n/a	NoResponse	0	n/a	n/a	7	36	Fixation	Neutral	True
350.069	0.23	Control	0.7027	0.004	No	2.677	-0.004	1.0	NoResponse	0	0.249	349.318	7	36	Target	Neutral	True
350.303	0.47	Control	0.7027	n/a	No	2.677	n/a	n/a	NoResponse	0	n/a	n/a	7	36	Blank	Neutral	True
350.318	0.3	Control	0.7027	0.004	No	2.677	-0.004	1.0	NoResponse	0	0.249	n/a	7	36	ButtonPress	Neutral	True
350.771	1.45	Control	0.7027	n/a	No	2.677	n/a	5.0	NoResponse	0	0.027	349.798	7	36	Feedback	Neutral	True
352.226	2.677	Control	0.7027	n/a	No	2.677	n/a	n/a	NoResponse	0	0.0	n/a	7	36	ISIslide	Neutral	True
354.917	0.25	Win2	0.6842	0.0	No	2.883	0.017	n/a	NoResponse	0	n/a	n/a	7	37	Cue	MissedWin	True
355.168	4.0	Win2	0.6842	0.0	No	2.883	0.001	n/a	NoResponse	0	n/a	n/a	7	37	Fixation	MissedWin	True
359.163	0.22	Win2	0.6842	0.004	No	2.883	-0.004	1.0	NoResponse	0	0.243	358.406	7	37	Target	MissedWin	True
359.397	0.48	Win2	0.6842	n/a	No	2.883	n/a	n/a	NoResponse	0	n/a	n/a	7	37	Blank	MissedWin	True
359.406	0.3	Win2	0.6842	0.004	No	2.883	-0.004	1.0	NoResponse	0	0.243	n/a	7	37	ButtonPress	MissedWin	True
359.865	1.45	Win2	0.6842	n/a	No	2.883	n/a	5.0	NoResponse	0	0.007	358.872	7	37	Feedback	MissedWin	True
361.319	2.883	Win2	0.6842	n/a	No	2.883	n/a	n/a	NoResponse	0	0.0	n/a	7	37	ISIslide	MissedWin	True
364.228	0.25	Lose2	0.6923	0.0	Yes	2.822	0.028	n/a	GoodResponse	0	n/a	n/a	7	38	Cue	AvoidedLoss	True
364.479	3.95	Lose2	0.6923	0.0	Yes	2.822	0.001	n/a	GoodResponse	0	n/a	n/a	7	38	Fixation	AvoidedLoss	True
368.424	0.21	Lose2	0.6923	0.004	Yes	2.822	-0.004	1.0	GoodResponse	0	0.201	367.625	7	38	Target	AvoidedLoss	True
368.625	0.3	Lose2	0.6923	0.004	Yes	2.822	-0.004	1.0	GoodResponse	0	0.201	n/a	7	38	ButtonPress	AvoidedLoss	True
368.641	0.49	Lose2	0.6923	n/a	Yes	2.822	n/a	n/a	GoodResponse	0	n/a	n/a	7	38	Blank	AvoidedLoss	True
369.126	1.45	Lose2	0.6923	n/a	Yes	2.822	n/a	5.0	GoodResponse	0	0.014	368.14	7	38	Feedback	AvoidedLoss	True
370.58	2.822	Lose2	0.6923	n/a	Yes	2.822	n/a	n/a	GoodResponse	0	0.0	n/a	7	38	ISIslide	AvoidedLoss	True
373.422	0.25	Win2	0.675	0.0	No	2.978	0.022	n/a	NoResponse	0	n/a	n/a	7	39	Cue	MissedWin	True
373.673	4.1	Win2	0.675	0.0	No	2.978	0.001	n/a	NoResponse	0	n/a	n/a	7	39	Fixation	MissedWin	True
377.769	0.2	Win2	0.675	0.003	No	2.978	-0.003	1.0	NoResponse	0	0.21	376.979	7	39	Target	MissedWin	True
377.969	0.5	Win2	0.675	n/a	No	2.978	n/a	n/a	NoResponse	0	n/a	n/a	7	39	Blank	MissedWin	True
377.979	0.3	Win2	0.675	0.003	No	2.978	-0.003	1.0	NoResponse	0	0.21	n/a	7	39	ButtonPress	MissedWin	True
378.471	1.45	Win2	0.675	n/a	No	2.978	n/a	5.0	NoResponse	0	0.034	377.505	7	39	Feedback	MissedWin	True
379.925	2.978	Win2	0.675	n/a	No	2.978	n/a	n/a	NoResponse	0	0.0	n/a	7	39	ISIslide	MissedWin	True
382.917	0.25	Win2	0.6585	0.0	No	2.733	0.017	n/a	NoResponse	0	n/a	n/a	7	40	Cue	MissedWin	True
383.168	3.95	Win2	0.6585	0.0	No	2.733	0.001	n/a	NoResponse	0	n/a	n/a	7	40	Fixation	MissedWin	True
387.113	0.19	Win2	0.6585	0.004	No	2.733	-0.004	1.0	NoResponse	0	0.211	386.324	7	40	Target	MissedWin	True
387.314	0.51	Win2	0.6585	n/a	No	2.733	n/a	n/a	NoResponse	0	n/a	n/a	7	40	Blank	MissedWin	True
387.324	0.3	Win2	0.6585	0.004	No	2.733	-0.004	1.0	NoResponse	0	0.211	n/a	7	40	ButtonPress	MissedWin	True
387.815	1.45	Win2	0.6585	n/a	No	2.733	n/a	5.0	NoResponse	0	0.007	386.822	7	40	Feedback	MissedWin	True
389.27	2.733	Win2	0.6585	n/a	No	2.733	n/a	n/a	NoResponse	0	0.0	n/a	7	40	ISIslide	MissedWin	True
392.028	0.25	Win2	0.6667000000000001	0.0	Yes	2.772	0.028	n/a	GoodResponse	1	n/a	n/a	8	41	Cue	Win	True
392.279	3.9	Win2	0.6667000000000001	0.0	Yes	2.772	0.001	n/a	GoodResponse	1	n/a	n/a	8	41	Fixation	Win	True
396.174	0.19	Win2	0.6667000000000001	0.004	Yes	2.772	-0.004	1.0	GoodResponse	1	0.189	395.363	8	41	Target	Win	True
396.363	0.3	Win2	0.6667000000000001	0.004	Yes	2.772	-0.004	1.0	GoodResponse	1	0.189	n/a	8	41	ButtonPress	Win	True
396.374	0.51	Win2	0.6667000000000001	n/a	Yes	2.772	n/a	n/a	GoodResponse	1	n/a	n/a	8	41	Blank	Win	True
396.876	1.45	Win2	0.6667000000000001	n/a	Yes	2.772	n/a	5.0	GoodResponse	1	0.019	395.895	8	41	Feedback	Win	True
398.33	2.772	Win2	0.6667000000000001	n/a	Yes	2.772	n/a	n/a	GoodResponse	1	0.0	n/a	8	41	ISIslide	Win	True
401.122	0.25	Control	0.6512	0.0	No	2.928	0.022	n/a	NoResponse	0	n/a	n/a	8	42	Cue	Neutral	False
401.372	3.85	Control	0.6512	0.001	No	2.928	0.0	n/a	NoResponse	0	n/a	n/a	8	42	Fixation	Neutral	False
405.234	0.18	Control	0.6512	0.0	No	2.928	0.012	n/a	NoResponse	0	n/a	n/a	8	42	Target	Neutral	False
405.401	0.52	Control	0.6512	n/a	No	2.928	n/a	n/a	NoResponse	0	n/a	n/a	8	42	Blank	Neutral	False
405.919	1.45	Control	0.6512	n/a	No	2.928	n/a	5.0	NoResponse	0	0.049	404.968	8	42	Feedback	Neutral	False
407.374	2.928	Control	0.6512	n/a	No	2.928	n/a	n/a	NoResponse	0	0.0	n/a	8	42	ISIslide	Neutral	False
410.316	0.25	Win2	0.6591	0.0	Yes	3.184	0.016	n/a	GoodResponse	1	n/a	n/a	9	43	Cue	Win	True
410.567	4.0	Win2	0.6591	0.0	Yes	3.184	0.001	n/a	GoodResponse	1	n/a	n/a	9	43	Fixation	Win	True
414.562	0.19	Win2	0.6591	0.004	Yes	3.184	-0.004	1.0	GoodResponse	1	0.188	413.75	9	43	Target	Win	True
414.75	0.3	Win2	0.6591	0.004	Yes	3.184	-0.004	1.0	GoodResponse	1	0.188	n/a	9	43	ButtonPress	Win	True
414.762	0.51	Win2	0.6591	n/a	Yes	3.184	n/a	n/a	GoodResponse	1	n/a	n/a	9	43	Blank	Win	True
415.264	1.45	Win2	0.6591	n/a	Yes	3.184	n/a	5.0	GoodResponse	1	0.02	414.284	9	43	Feedback	Win	True
416.718	3.184	Win2	0.6591	n/a	Yes	3.184	n/a	n/a	GoodResponse	1	0.0	n/a	9	43	ISIslide	Win	True
419.928	0.25	Win2	0.6444	0.0	No	2.972	0.028	n/a	NoResponse	0	n/a	n/a	9	44	Cue	MissedWin	True
420.179	4.0	Win2	0.6444	0.0	No	2.972	0.001	n/a	NoResponse	0	n/a	n/a	9	44	Fixation	MissedWin	True
424.174	0.19	Win2	0.6444	0.004	No	2.972	-0.004	1.0	NoResponse	0	0.215	423.389	9	44	Target	MissedWin	True
424.374	0.51	Win2	0.6444	n/a	No	2.972	n/a	n/a	NoResponse	0	n/a	n/a	9	44	Blank	MissedWin	True
424.389	0.3	Win2	0.6444	0.004	No	2.972	-0.004	1.0	NoResponse	0	0.215	n/a	9	44	ButtonPress	MissedWin	True
424.876	1.45	Win2	0.6444	n/a	No	2.972	n/a	5.0	NoResponse	0	0.018	423.894	9	44	Feedback	MissedWin	True
426.33	2.972	Win2	0.6444	n/a	No	2.972	n/a	n/a	NoResponse	0	0.0	n/a	9	44	ISIslide	MissedWin	True
429.323	0.25	Control	0.6304	0.0	No	2.877	0.023	n/a	NoResponse	0	n/a	n/a	9	45	Cue	Neutral	True
429.573	4.1	Control	0.6304	0.0	No	2.877	0.0	n/a	NoResponse	0	n/a	n/a	9	45	Fixation	Neutral	True
433.669	0.2	Control	0.6304	0.004	No	2.877	-0.004	1.0	NoResponse	0	0.235	432.904	9	45	Target	Neutral	True
433.869	0.5	Control	0.6304	n/a	No	2.877	n/a	n/a	NoResponse	0	n/a	n/a	9	45	Blank	Neutral	True
433.904	0.3	Control	0.6304	0.004	No	2.877	-0.004	1.0	NoResponse	0	0.235	n/a	9	45	ButtonPress	Neutral	True
434.371	1.45	Control	0.6304	n/a	No	2.877	n/a	5.0	NoResponse	0	0.036	433.407	9	45	Feedback	Neutral	True
435.825	2.877	Control	0.6304	n/a	No	2.877	n/a	n/a	NoResponse	0	0.0	n/a	9	45	ISIslide	Neutral	True
438.717	0.25	Lose2	0.6383	0.0	Yes	3.383	0.017	n/a	GoodResponse	0	n/a	n/a	9	46	Cue	AvoidedLoss	True
438.968	4.0	Lose2	0.6383	0.0	Yes	3.383	0.001	n/a	GoodResponse	0	n/a	n/a	9	46	Fixation	AvoidedLoss	True
442.963	0.21	Lose2	0.6383	0.004	Yes	3.383	-0.004	1.0	GoodResponse	0	0.208	442.171	9	46	Target	AvoidedLoss	True
443.171	0.3	Lose2	0.6383	0.004	Yes	3.383	-0.004	1.0	GoodResponse	0	0.208	n/a	9	46	ButtonPress	AvoidedLoss	True
443.181	0.49	Lose2	0.6383	n/a	Yes	3.383	n/a	n/a	GoodResponse	0	n/a	n/a	9	46	Blank	AvoidedLoss	True
443.665	1.45	Lose2	0.6383	n/a	Yes	3.383	n/a	5.0	GoodResponse	0	0.01	442.675	9	46	Feedback	AvoidedLoss	True
445.12	3.383	Lose2	0.6383	n/a	Yes	3.383	n/a	n/a	GoodResponse	0	0.0	n/a	9	46	ISIslide	AvoidedLoss	True
448.53	0.25	Lose2	0.625	0.0	No	2.67	0.03	n/a	NoResponse	-1	n/a	n/a	8	47	Cue	Loss	True
448.781	4.0	Lose2	0.625	0.0	No	2.67	0.001	n/a	NoResponse	-1	n/a	n/a	8	47	Fixation	Loss	True
452.776	0.22	Lose2	0.625	0.004	No	2.67	-0.004	1.0	NoResponse	-1	0.255	452.031	8	47	Target	Loss	True
453.01	0.48	Lose2	0.625	n/a	No	2.67	n/a	n/a	NoResponse	-1	n/a	n/a	8	47	Blank	Loss	True
453.031	0.3	Lose2	0.625	0.004	No	2.67	-0.004	1.0	NoResponse	-1	0.255	n/a	8	47	ButtonPress	Loss	True
453.478	1.45	Lose2	0.625	n/a	No	2.67	n/a	5.0	NoResponse	-1	0.001	452.479	8	47	Feedback	Loss	True
454.932	2.67	Lose2	0.625	n/a	No	2.67	n/a	n/a	NoResponse	-1	0.0	n/a	8	47	ISIslide	Loss	True
457.624	0.25	Lose2	0.6327	0.0	Yes	3.026	0.024	n/a	GoodResponse	0	n/a	n/a	8	48	Cue	AvoidedLoss	True
457.875	3.95	Lose2	0.6327	0.0	Yes	3.026	0.001	n/a	GoodResponse	0	n/a	n/a	8	48	Fixation	AvoidedLoss	True
461.82	0.23	Lose2	0.6327	0.004	Yes	3.026	-0.004	1.0	GoodResponse	0	0.211	461.031	8	48	Target	AvoidedLoss	True
462.031	0.3	Lose2	0.6327	0.004	Yes	3.026	-0.004	1.0	GoodResponse	0	0.211	n/a	8	48	ButtonPress	AvoidedLoss	True
462.054	0.47	Lose2	0.6327	n/a	Yes	3.026	n/a	n/a	GoodResponse	0	n/a	n/a	8	48	Blank	AvoidedLoss	True
462.522	1.45	Lose2	0.6327	n/a	Yes	3.026	n/a	5.0	GoodResponse	0	0.03	461.552	8	48	Feedback	AvoidedLoss	True
463.976	3.026	Lose2	0.6327	n/a	Yes	3.026	n/a	n/a	GoodResponse	0	0.0	n/a	8	48	ISIslide	AvoidedLoss	True
467.018	0.25	Control	0.64	0.001	Yes	2.882	0.018	n/a	GoodResponse	0	n/a	n/a	8	49	Cue	Neutral	True
467.269	4.0	Control	0.64	0.0	Yes	2.882	0.001	n/a	GoodResponse	0	n/a	n/a	8	49	Fixation	Neutral	True
471.264	0.24	Control	0.64	0.004	Yes	2.882	-0.004	1.0	GoodResponse	0	0.204	470.468	8	49	Target	Neutral	True
471.468	0.3	Control	0.64	0.004	Yes	2.882	-0.004	1.0	GoodResponse	0	0.204	n/a	8	49	ButtonPress	Neutral	True
471.515	0.46	Control	0.64	n/a	Yes	2.882	n/a	n/a	GoodResponse	0	n/a	n/a	8	49	Blank	Neutral	True
471.967	1.45	Control	0.64	n/a	Yes	2.882	n/a	5.0	GoodResponse	0	0.0	470.967	8	49	Feedback	Neutral	True
473.421	2.882	Control	0.64	n/a	Yes	2.882	n/a	n/a	GoodResponse	0	0.0	n/a	8	49	ISIslide	Neutral	True
476.33	0.25	Control	0.6470999999999999	0.0	Yes	2.77	0.03	n/a	GoodResponse	0	n/a	n/a	8	50	Cue	Neutral	True
476.58	4.0	Control	0.6470999999999999	0.0	Yes	2.77	0.0	n/a	GoodResponse	0	n/a	n/a	8	50	Fixation	Neutral	True
480.576	0.25	Control	0.6470999999999999	0.004	Yes	2.77	-0.004	1.0	GoodResponse	0	0.231	479.807	8	50	Target	Neutral	True
480.807	0.3	Control	0.6470999999999999	0.004	Yes	2.77	-0.004	1.0	GoodResponse	0	0.231	n/a	8	50	ButtonPress	Neutral	True
480.826	0.45	Control	0.6470999999999999	n/a	Yes	2.77	n/a	n/a	GoodResponse	0	n/a	n/a	8	50	Blank	Neutral	True
481.278	1.45	Control	0.6470999999999999	n/a	Yes	2.77	n/a	5.0	GoodResponse	0	0.008	480.286	8	50	Feedback	Neutral	True
482.732	2.77	Control	0.6470999999999999	n/a	Yes	2.77	n/a	n/a	GoodResponse	0	0.0	n/a	8	50	ISIslide	Neutral	True
485.524	0.25	Control	0.6346	0.0	No	2.726	0.024	n/a	NoResponse	0	n/a	n/a	8	51	Cue	Neutral	True
485.774	3.95	Control	0.6346	0.001	No	2.726	0.0	n/a	NoResponse	0	n/a	n/a	8	51	Fixation	Neutral	True
489.72	0.26	Control	0.6346	0.004	No	2.726	-0.004	1.0	NoResponse	0	0.297	489.017	8	51	Target	Neutral	True
489.987	0.44	Control	0.6346	n/a	No	2.726	n/a	n/a	NoResponse	0	n/a	n/a	8	51	Blank	Neutral	True
490.017	0.3	Control	0.6346	0.004	No	2.726	-0.004	1.0	NoResponse	0	0.297	n/a	8	51	ButtonPress	Neutral	True
490.422	1.45	Control	0.6346	n/a	No	2.726	n/a	5.0	NoResponse	0	0.032	489.454	8	51	Feedback	Neutral	True
491.876	2.726	Control	0.6346	n/a	No	2.726	n/a	n/a	NoResponse	0	0.0	n/a	8	51	ISIslide	Neutral	True
494.618	0.25	Control	0.6415000000000001	0.0	Yes	2.632	0.018	n/a	GoodResponse	0	n/a	n/a	8	52	Cue	Neutral	True
494.868	4.05	Control	0.6415000000000001	0.0	Yes	2.632	0.0	n/a	GoodResponse	0	n/a	n/a	8	52	Fixation	Neutral	True
498.914	0.27	Control	0.6415000000000001	0.004	Yes	2.632	-0.004	1.0	GoodResponse	0	0.231	498.145	8	52	Target	Neutral	True
499.145	0.3	Control	0.6415000000000001	0.004	Yes	2.632	-0.004	1.0	GoodResponse	0	0.231	n/a	8	52	ButtonPress	Neutral	True
499.198	0.43	Control	0.6415000000000001	n/a	Yes	2.632	n/a	n/a	GoodResponse	0	n/a	n/a	8	52	Blank	Neutral	True
499.616	1.45	Control	0.6415000000000001	n/a	Yes	2.632	n/a	5.0	GoodResponse	0	0.009	498.625	8	52	Feedback	Neutral	True
501.07	2.632	Control	0.6415000000000001	n/a	Yes	2.632	n/a	n/a	GoodResponse	0	0.0	n/a	8	52	ISIslide	Neutral	True
503.728	0.25	Win2	0.6481	0.0	Yes	2.922	0.028	n/a	GoodResponse	1	n/a	n/a	9	53	Cue	Win	True
503.979	4.05	Win2	0.6481	0.0	Yes	2.922	0.001	n/a	GoodResponse	1	n/a	n/a	9	53	Fixation	Win	True
508.024	0.28	Win2	0.6481	0.004	Yes	2.922	-0.004	1.0	GoodResponse	1	0.223	507.247	9	53	Target	Win	True
508.247	0.3	Win2	0.6481	0.004	Yes	2.922	-0.004	1.0	GoodResponse	1	0.223	n/a	9	53	ButtonPress	Win	True
508.308	0.42	Win2	0.6481	n/a	Yes	2.922	n/a	n/a	GoodResponse	1	n/a	n/a	9	53	Blank	Win	True
508.726	1.45	Win2	0.6481	n/a	Yes	2.922	n/a	5.0	GoodResponse	1	0.021	507.747	9	53	Feedback	Win	True
510.181	2.922	Win2	0.6481	n/a	Yes	2.922	n/a	n/a	GoodResponse	1	0.0	n/a	9	53	ISIslide	Win	True
513.123	0.25	Win2	0.6545000000000001	0.0	Yes	2.727	0.023	n/a	GoodResponse	1	n/a	n/a	10	54	Cue	Win	True
513.374	3.95	Win2	0.6545000000000001	0.0	Yes	2.727	0.001	n/a	GoodResponse	1	n/a	n/a	10	54	Fixation	Win	True
517.319	0.29	Win2	0.6545000000000001	0.004	Yes	2.727	-0.004	1.0	GoodResponse	1	0.171	516.49	10	54	Target	Win	True
517.49	0.3	Win2	0.6545000000000001	0.004	Yes	2.727	-0.004	1.0	GoodResponse	1	0.171	n/a	10	54	ButtonPress	Win	True
517.62	0.41	Win2	0.6545000000000001	n/a	Yes	2.727	n/a	n/a	GoodResponse	1	n/a	n/a	10	54	Blank	Win	True
518.021	1.45	Win2	0.6545000000000001	n/a	Yes	2.727	n/a	5.0	GoodResponse	1	0.043	517.064	10	54	Feedback	Win	True
519.475	2.727	Win2	0.6545000000000001	n/a	Yes	2.727	n/a	n/a	GoodResponse	1	0.0	n/a	10	54	ISIslide	Win	True
522.217	0.25	Control	0.6607	0.0	Yes	3.033	0.017	n/a	GoodResponse	0	n/a	n/a	10	55	Cue	Neutral	True
522.467	3.95	Control	0.6607	0.0	Yes	3.033	0.0	n/a	GoodResponse	0	n/a	n/a	10	55	Fixation	Neutral	True
526.413	0.3	Control	0.6607	0.004	Yes	3.033	-0.004	1.0	GoodResponse	0	0.283	525.696	10	55	Target	Neutral	True
526.696	0.3	Control	0.6607	0.004	Yes	3.033	-0.004	1.0	GoodResponse	0	0.283	n/a	10	55	ButtonPress	Neutral	True
526.713	0.4	Control	0.6607	n/a	Yes	3.033	n/a	n/a	GoodResponse	0	n/a	n/a	10	55	Blank	Neutral	True
527.115	1.45	Control	0.6607	n/a	Yes	3.033	n/a	5.0	GoodResponse	0	0.021	526.136	10	55	Feedback	Neutral	True
528.569	3.033	Control	0.6607	n/a	Yes	3.033	n/a	n/a	GoodResponse	0	0.0	n/a	10	55	ISIslide	Neutral	True
531.628	0.25	Control	0.6491	0.0	No	2.822	0.028	n/a	NoResponse	0	n/a	n/a	10	56	Cue	Neutral	False
531.879	3.95	Control	0.6491	0.0	No	2.822	0.001	n/a	NoResponse	0	n/a	n/a	10	56	Fixation	Neutral	False
535.824	0.3	Control	0.6491	0.004	No	2.822	-0.004	n/a	NoResponse	0	n/a	n/a	10	56	Target	Neutral	False
536.125	0.4	Control	0.6491	n/a	No	2.822	n/a	n/a	NoResponse	0	n/a	n/a	10	56	Blank	Neutral	False
536.526	1.45	Control	0.6491	n/a	No	2.822	n/a	5.0	NoResponse	0	0.025	535.551	10	56	Feedback	Neutral	False
537.98	2.822	Control	0.6491	n/a	No	2.822	n/a	n/a	NoResponse	0	0.0	n/a	10	56	ISIslide	Neutral	False
540.822	0.25	Control	0.6379	0.0	No	3.478	0.022	n/a	NoResponse	0	n/a	n/a	10	57	Cue	Neutral	False
541.073	4.0	Control	0.6379	0.0	No	3.478	0.001	n/a	NoResponse	0	n/a	n/a	10	57	Fixation	Neutral	False
545.068	0.31	Control	0.6379	0.004	No	3.478	-0.004	n/a	NoResponse	0	n/a	n/a	10	57	Target	Neutral	False
545.386	0.39	Control	0.6379	n/a	No	3.478	n/a	n/a	NoResponse	0	n/a	n/a	10	57	Blank	Neutral	False
545.77	1.45	Control	0.6379	n/a	No	3.478	n/a	5.0	NoResponse	0	0.001	544.771	10	57	Feedback	Neutral	False
547.225	3.478	Control	0.6379	n/a	No	3.478	n/a	n/a	NoResponse	0	0.0	n/a	10	57	ISIslide	Neutral	False
550.718	0.25	Win2	0.6441	0.001	Yes	2.732	0.018	n/a	GoodResponse	1	n/a	n/a	11	58	Cue	Win	True
550.969	4.05	Win2	0.6441	0.0	Yes	2.732	0.001	n/a	GoodResponse	1	n/a	n/a	11	58	Fixation	Win	True
555.015	0.32	Win2	0.6441	0.003	Yes	2.732	-0.003	1.0	GoodResponse	1	0.196	554.211	11	58	Target	Win	True
555.211	0.3	Win2	0.6441	0.003	Yes	2.732	-0.003	1.0	GoodResponse	1	0.196	n/a	11	58	ButtonPress	Win	True
555.349	0.38	Win2	0.6441	n/a	Yes	2.732	n/a	n/a	GoodResponse	1	n/a	n/a	11	58	Blank	Win	True
555.717	1.45	Win2	0.6441	n/a	Yes	2.732	n/a	5.0	GoodResponse	1	0.006	554.723	11	58	Feedback	Win	True
557.171	2.732	Win2	0.6441	n/a	Yes	2.732	n/a	n/a	GoodResponse	1	0.0	n/a	11	58	ISIslide	Win	True
559.929	0.25	Lose2	0.65	0.0	Yes	2.671	0.029	n/a	GoodResponse	0	n/a	n/a	11	59	Cue	AvoidedLoss	True
560.18	4.0	Lose2	0.65	0.0	Yes	2.671	0.001	n/a	GoodResponse	0	n/a	n/a	11	59	Fixation	AvoidedLoss	True
564.175	0.33	Lose2	0.65	0.004	Yes	2.671	-0.004	1.0	GoodResponse	0	0.241	563.416	11	59	Target	AvoidedLoss	True
564.416	0.3	Lose2	0.65	0.004	Yes	2.671	-0.004	1.0	GoodResponse	0	0.241	n/a	11	59	ButtonPress	AvoidedLoss	True
564.51	0.37	Lose2	0.65	n/a	Yes	2.671	n/a	n/a	GoodResponse	0	n/a	n/a	11	59	Blank	AvoidedLoss	True
564.877	1.45	Lose2	0.65	n/a	Yes	2.671	n/a	5.0	GoodResponse	0	0.015	563.892	11	59	Feedback	AvoidedLoss	True
566.332	2.671	Lose2	0.65	n/a	Yes	2.671	n/a	n/a	GoodResponse	0	0.0	n/a	11	59	ISIslide	AvoidedLoss	True
569.023	0.25	Control	0.6557	0.0	Yes	2.677	0.023	n/a	GoodResponse	0	n/a	n/a	11	60	Cue	Neutral	True
569.274	4.0	Control	0.6557	0.0	Yes	2.677	0.001	n/a	GoodResponse	0	n/a	n/a	11	60	Fixation	Neutral	True
573.269	0.34	Control	0.6557	0.004	Yes	2.677	-0.004	1.0	GoodResponse	0	0.197	572.466	11	60	Target	Neutral	True
573.466	0.3	Control	0.6557	0.004	Yes	2.677	-0.004	1.0	GoodResponse	0	0.197	n/a	11	60	ButtonPress	Neutral	True
573.62	0.36	Control	0.6557	n/a	Yes	2.677	n/a	n/a	GoodResponse	0	n/a	n/a	11	60	Blank	Neutral	True
573.971	1.45	Control	0.6557	n/a	Yes	2.677	n/a	5.0	GoodResponse	0	0.043	573.014	11	60	Feedback	Neutral	True
575.426	2.677	Control	0.6557	n/a	Yes	2.677	n/a	n/a	GoodResponse	0	0.0	n/a	11	60	ISIslide	Neutral	True
578.117	0.25	Lose2	0.6613	0.0	Yes	2.983	0.017	n/a	GoodResponse	0	n/a	n/a	11	61	Cue	AvoidedLoss	True
578.368	4.0	Lose2	0.6613	0.0	Yes	2.983	0.001	n/a	GoodResponse	0	n/a	n/a	11	61	Fixation	AvoidedLoss	True
582.363	0.34	Lose2	0.6613	0.004	Yes	2.983	-0.004	1.0	GoodResponse	0	0.241	581.604	11	61	Target	AvoidedLoss	True
582.604	0.3	Lose2	0.6613	0.004	Yes	2.983	-0.004	1.0	GoodResponse	0	0.241	n/a	11	61	ButtonPress	AvoidedLoss	True
582.714	0.36	Lose2	0.6613	n/a	Yes	2.983	n/a	n/a	GoodResponse	0	n/a	n/a	11	61	Blank	AvoidedLoss	True
583.065	1.45	Lose2	0.6613	n/a	Yes	2.983	n/a	5.0	GoodResponse	0	0.022	582.087	11	61	Feedback	AvoidedLoss	True
584.519	2.983	Lose2	0.6613	n/a	Yes	2.983	n/a	n/a	GoodResponse	0	0.0	n/a	11	61	ISIslide	AvoidedLoss	True
587.528	0.25	Lose2	0.6667000000000001	0.0	Yes	2.872	0.028	n/a	GoodResponse	0	n/a	n/a	11	62	Cue	AvoidedLoss	True
587.779	3.9	Lose2	0.6667000000000001	0.0	Yes	2.872	0.001	n/a	GoodResponse	0	n/a	n/a	11	62	Fixation	AvoidedLoss	True
591.674	0.34	Lose2	0.6667000000000001	0.004	Yes	2.872	-0.004	1.0	GoodResponse	0	0.197	590.871	11	62	Target	AvoidedLoss	True
591.871	0.3	Lose2	0.6667000000000001	0.004	Yes	2.872	-0.004	1.0	GoodResponse	0	0.197	n/a	11	62	ButtonPress	AvoidedLoss	True
592.025	0.36	Lose2	0.6667000000000001	n/a	Yes	2.872	n/a	n/a	GoodResponse	0	n/a	n/a	11	62	Blank	AvoidedLoss	True
592.376	1.45	Lose2	0.6667000000000001	n/a	Yes	2.872	n/a	5.0	GoodResponse	0	0.028	591.404	11	62	Feedback	AvoidedLoss	True
593.831	2.872	Lose2	0.6667000000000001	n/a	Yes	2.872	n/a	n/a	GoodResponse	0	0.0	n/a	11	62	ISIslide	AvoidedLoss	True
596.723	0.25	Lose2	0.6718999999999999	0.0	Yes	2.627	0.023	n/a	GoodResponse	0	n/a	n/a	11	63	Cue	AvoidedLoss	True
596.973	4.05	Lose2	0.6718999999999999	0.0	Yes	2.627	0.0	n/a	GoodResponse	0	n/a	n/a	11	63	Fixation	AvoidedLoss	True
601.019	0.33	Lose2	0.6718999999999999	0.004	Yes	2.627	-0.004	1.0	GoodResponse	0	0.19	600.209	11	63	Target	AvoidedLoss	True
601.209	0.3	Lose2	0.6718999999999999	0.004	Yes	2.627	-0.004	1.0	GoodResponse	0	0.19	n/a	11	63	ButtonPress	AvoidedLoss	True
601.353	0.37	Lose2	0.6718999999999999	n/a	Yes	2.627	n/a	n/a	GoodResponse	0	n/a	n/a	11	63	Blank	AvoidedLoss	True
601.721	1.45	Lose2	0.6718999999999999	n/a	Yes	2.627	n/a	5.0	GoodResponse	0	0.048	600.769	11	63	Feedback	AvoidedLoss	True
603.175	2.627	Lose2	0.6718999999999999	n/a	Yes	2.627	n/a	n/a	GoodResponse	0	0.0	n/a	11	63	ISIslide	AvoidedLoss	True
605.816	0.25	Win2	0.6769	0.0	Yes	3.134	0.016	n/a	GoodResponse	1	n/a	n/a	12	64	Cue	Win	True
606.067	4.15	Win2	0.6769	0.0	Yes	3.134	0.001	n/a	GoodResponse	1	n/a	n/a	12	64	Fixation	Win	True
610.213	0.32	Win2	0.6769	0.003	Yes	3.134	-0.003	1.0	GoodResponse	1	0.192	609.405	12	64	Target	Win	True
610.405	0.3	Win2	0.6769	0.003	Yes	3.134	-0.003	1.0	GoodResponse	1	0.192	n/a	12	64	ButtonPress	Win	True
610.547	0.38	Win2	0.6769	n/a	Yes	3.134	n/a	n/a	GoodResponse	1	n/a	n/a	12	64	Blank	Win	True
610.915	1.45	Win2	0.6769	n/a	Yes	3.134	n/a	5.0	GoodResponse	1	0.025	609.94	12	64	Feedback	Win	True
612.369	3.134	Win2	0.6769	n/a	Yes	3.134	n/a	n/a	GoodResponse	1	0.0	n/a	12	64	ISIslide	Win	True
615.529	0.25	Control	0.6818000000000001	0.0	Yes	2.771	0.029	n/a	GoodResponse	0	n/a	n/a	12	65	Cue	Neutral	True
615.779	4.0	Control	0.6818000000000001	0.0	Yes	2.771	0.0	n/a	GoodResponse	0	n/a	n/a	12	65	Fixation	Neutral	True
619.775	0.31	Control	0.6818000000000001	0.004	Yes	2.771	-0.004	1.0	GoodResponse	0	0.208	618.983	12	65	Target	Neutral	True
619.983	0.3	Control	0.6818000000000001	0.004	Yes	2.771	-0.004	1.0	GoodResponse	0	0.208	n/a	12	65	ButtonPress	Neutral	True
620.092	0.39	Control	0.6818000000000001	n/a	Yes	2.771	n/a	n/a	GoodResponse	0	n/a	n/a	12	65	Blank	Neutral	True
620.477	1.45	Control	0.6818000000000001	n/a	Yes	2.771	n/a	5.0	GoodResponse	0	0.024	619.501	12	65	Feedback	Neutral	True
621.931	2.771	Control	0.6818000000000001	n/a	Yes	2.771	n/a	n/a	GoodResponse	0	0.0	n/a	12	65	ISIslide	Neutral	True
624.723	0.25	Win2	0.6866	0.0	Yes	2.777	0.023	n/a	GoodResponse	1	n/a	n/a	13	66	Cue	Win	True
624.974	3.9	Win2	0.6866	0.0	Yes	2.777	0.001	n/a	GoodResponse	1	n/a	n/a	13	66	Fixation	Win	True
628.869	0.3	Win2	0.6866	0.004	Yes	2.777	-0.004	1.0	GoodResponse	1	0.24	628.109	13	66	Target	Win	True
629.109	0.3	Win2	0.6866	0.004	Yes	2.777	-0.004	1.0	GoodResponse	1	0.24	n/a	13	66	ButtonPress	Win	True
629.169	0.4	Win2	0.6866	n/a	Yes	2.777	n/a	n/a	GoodResponse	1	n/a	n/a	13	66	Blank	Win	True
629.571	1.45	Win2	0.6866	n/a	Yes	2.777	n/a	5.0	GoodResponse	1	0.007	628.578	13	66	Feedback	Win	True
631.025	2.777	Win2	0.6866	n/a	Yes	2.777	n/a	n/a	GoodResponse	1	0.0	n/a	13	66	ISIslide	Win	True
633.817	0.25	Control	0.6765000000000001	0.0	No	2.733	0.017	n/a	NoResponse	0	n/a	n/a	13	67	Cue	Neutral	False
634.067	3.95	Control	0.6765000000000001	0.0	No	2.733	0.0	n/a	NoResponse	0	n/a	n/a	13	67	Fixation	Neutral	False
638.013	0.29	Control	0.6765000000000001	0.004	No	2.733	-0.004	n/a	NoResponse	0	n/a	n/a	13	67	Target	Neutral	False
638.313	0.41	Control	0.6765000000000001	n/a	No	2.733	n/a	n/a	NoResponse	0	n/a	n/a	13	67	Blank	Neutral	False
638.715	1.45	Control	0.6765000000000001	n/a	No	2.733	n/a	5.0	NoResponse	0	0.029	637.744	13	67	Feedback	Neutral	False
640.169	2.733	Control	0.6765000000000001	n/a	No	2.733	n/a	n/a	NoResponse	0	0.0	n/a	13	67	ISIslide	Neutral	False
642.927	0.25	Win2	0.6812	0.0	Yes	3.073	0.027	n/a	GoodResponse	1	n/a	n/a	14	68	Cue	Win	True
643.178	4.0	Win2	0.6812	0.0	Yes	3.073	0.001	n/a	GoodResponse	1	n/a	n/a	14	68	Fixation	Win	True
647.173	0.28	Win2	0.6812	0.004	Yes	3.073	-0.004	1.0	GoodResponse	1	0.184	646.357	14	68	Target	Win	True
647.357	0.3	Win2	0.6812	0.004	Yes	3.073	-0.004	1.0	GoodResponse	1	0.184	n/a	14	68	ButtonPress	Win	True
647.457	0.42	Win2	0.6812	n/a	Yes	3.073	n/a	n/a	GoodResponse	1	n/a	n/a	14	68	Blank	Win	True
647.875	1.45	Win2	0.6812	n/a	Yes	3.073	n/a	5.0	GoodResponse	1	0.04	646.915	14	68	Feedback	Win	True
649.33	3.073	Win2	0.6812	n/a	Yes	3.073	n/a	n/a	GoodResponse	1	0.0	n/a	14	68	ISIslide	Win	True
652.422	0.25	Win2	0.6714	0.0	No	3.228	0.022	n/a	NoResponse	0	n/a	n/a	14	69	Cue	MissedWin	True
652.674	3.95	Win2	0.6714	0.0	No	3.228	0.002	n/a	NoResponse	0	n/a	n/a	14	69	Fixation	MissedWin	True
656.618	0.27	Win2	0.6714	0.004	No	3.228	-0.004	1.0	NoResponse	0	0.299	655.917	14	69	Target	MissedWin	True
656.902	0.43	Win2	0.6714	n/a	No	3.228	n/a	n/a	NoResponse	0	n/a	n/a	14	69	Blank	MissedWin	True
656.917	0.3	Win2	0.6714	0.004	No	3.228	-0.004	1.0	NoResponse	0	0.299	n/a	14	69	ButtonPress	MissedWin	True
657.32	1.45	Win2	0.6714	n/a	No	3.228	n/a	5.0	NoResponse	0	0.01	656.33	14	69	Feedback	MissedWin	True
658.775	3.228	Win2	0.6714	n/a	No	3.228	n/a	n/a	NoResponse	0	0.0	n/a	14	69	ISIslide	MissedWin	True
662.018	0.25	Lose2	0.6761	0.0	Yes	3.032	0.018	n/a	GoodResponse	0	n/a	n/a	14	70	Cue	AvoidedLoss	True
662.268	4.05	Lose2	0.6761	0.001	Yes	3.032	0.0	n/a	GoodResponse	0	n/a	n/a	14	70	Fixation	AvoidedLoss	True
666.314	0.26	Lose2	0.6761	0.004	Yes	3.032	-0.004	1.0	GoodResponse	0	0.193	665.507	14	70	Target	AvoidedLoss	True
666.507	0.3	Lose2	0.6761	0.004	Yes	3.032	-0.004	1.0	GoodResponse	0	0.193	n/a	14	70	ButtonPress	AvoidedLoss	True
666.581	0.44	Lose2	0.6761	n/a	Yes	3.032	n/a	n/a	GoodResponse	0	n/a	n/a	14	70	Blank	AvoidedLoss	True
667.016	1.45	Lose2	0.6761	n/a	Yes	3.032	n/a	5.0	GoodResponse	0	0.021	666.037	14	70	Feedback	AvoidedLoss	True
668.47	3.032	Lose2	0.6761	n/a	Yes	3.032	n/a	n/a	GoodResponse	0	0.0	n/a	14	70	ISIslide	AvoidedLoss	True
671.529	0.25	Win2	0.6667000000000001	0.0	No	2.721	0.029	n/a	NoResponse	0	n/a	n/a	14	71	Cue	MissedWin	True
671.78	4.05	Win2	0.6667000000000001	0.0	No	2.721	0.001	n/a	NoResponse	0	n/a	n/a	14	71	Fixation	MissedWin	True
675.825	0.25	Win2	0.6667000000000001	0.004	No	2.721	-0.004	1.0	NoResponse	0	0.27	675.095	14	71	Target	MissedWin	True
676.076	0.45	Win2	0.6667000000000001	n/a	No	2.721	n/a	n/a	NoResponse	0	n/a	n/a	14	71	Blank	MissedWin	True
676.095	0.3	Win2	0.6667000000000001	0.004	No	2.721	-0.004	1.0	NoResponse	0	0.27	n/a	14	71	ButtonPress	MissedWin	True
676.528	1.45	Win2	0.6667000000000001	n/a	No	2.721	n/a	5.0	NoResponse	0	0.02	675.548	14	71	Feedback	MissedWin	True
677.982	2.721	Win2	0.6667000000000001	n/a	No	2.721	n/a	n/a	NoResponse	0	0.0	n/a	14	71	ISIslide	MissedWin	True
680.723	0.25	Win2	0.6712	0.0	Yes	2.777	0.023	n/a	GoodResponse	1	n/a	n/a	15	72	Cue	Win	True
680.974	4.1	Win2	0.6712	0.0	Yes	2.777	0.001	n/a	GoodResponse	1	n/a	n/a	15	72	Fixation	Win	True
685.07	0.24	Win2	0.6712	0.003	Yes	2.777	-0.003	1.0	GoodResponse	1	0.176	684.246	15	72	Target	Win	True
685.246	0.3	Win2	0.6712	0.003	Yes	2.777	-0.003	1.0	GoodResponse	1	0.176	n/a	15	72	ButtonPress	Win	True
685.32	0.46	Win2	0.6712	n/a	Yes	2.777	n/a	n/a	GoodResponse	1	n/a	n/a	15	72	Blank	Win	True
685.772	1.45	Win2	0.6712	n/a	Yes	2.777	n/a	5.0	GoodResponse	1	0.045	684.817	15	72	Feedback	Win	True
687.226	2.777	Win2	0.6712	n/a	Yes	2.777	n/a	n/a	GoodResponse	1	0.0	n/a	15	72	ISIslide	Win	True
690.018	0.25	Win2	0.6622	0.0	No	2.682	0.018	n/a	NoResponse	0	n/a	n/a	15	73	Cue	MissedWin	True
690.269	4.0	Win2	0.6622	0.0	No	2.682	0.001	n/a	NoResponse	0	n/a	n/a	15	73	Fixation	MissedWin	True
694.264	0.23	Win2	0.6622	0.004	No	2.682	-0.004	1.0	NoResponse	0	0.243	693.507	15	73	Target	MissedWin	True
694.498	0.47	Win2	0.6622	n/a	No	2.682	n/a	n/a	NoResponse	0	n/a	n/a	15	73	Blank	MissedWin	True
694.507	0.3	Win2	0.6622	0.004	No	2.682	-0.004	1.0	NoResponse	0	0.243	n/a	15	73	ButtonPress	MissedWin	True
694.966	1.45	Win2	0.6622	n/a	No	2.682	n/a	5.0	NoResponse	0	0.022	693.988	15	73	Feedback	MissedWin	True
696.42	2.682	Win2	0.6622	n/a	No	2.682	n/a	n/a	NoResponse	0	0.0	n/a	15	73	ISIslide	MissedWin	True
699.128	0.25	Lose2	0.6667000000000001	0.0	Yes	2.622	0.028	n/a	GoodResponse	0	n/a	n/a	15	74	Cue	AvoidedLoss	True
699.379	4.05	Lose2	0.6667000000000001	0.0	Yes	2.622	0.001	n/a	GoodResponse	0	n/a	n/a	15	74	Fixation	AvoidedLoss	True
703.425	0.23	Lose2	0.6667000000000001	0.003	Yes	2.622	-0.003	1.0	GoodResponse	0	0.218	702.643	15	74	Target	AvoidedLoss	True
703.643	0.3	Lose2	0.6667000000000001	0.003	Yes	2.622	-0.003	1.0	GoodResponse	0	0.218	n/a	15	74	ButtonPress	AvoidedLoss	True
703.659	0.47	Lose2	0.6667000000000001	n/a	Yes	2.622	n/a	n/a	GoodResponse	0	n/a	n/a	15	74	Blank	AvoidedLoss	True
704.127	1.45	Lose2	0.6667000000000001	n/a	Yes	2.622	n/a	5.0	GoodResponse	0	0.031	703.158	15	74	Feedback	AvoidedLoss	True
705.581	2.622	Lose2	0.6667000000000001	n/a	Yes	2.622	n/a	n/a	GoodResponse	0	0.0	n/a	15	74	ISIslide	AvoidedLoss	True
708.222	0.25	Lose2	0.6579	0.0	No	2.928	0.022	n/a	NoResponse	-1	n/a	n/a	14	75	Cue	Loss	True
708.473	3.95	Lose2	0.6579	0.0	No	2.928	0.001	n/a	NoResponse	-1	n/a	n/a	14	75	Fixation	Loss	True
712.418	0.22	Lose2	0.6579	0.004	No	2.928	-0.004	1.0	NoResponse	-1	0.329	711.747	14	75	Target	Loss	True
712.652	0.48	Lose2	0.6579	n/a	No	2.928	n/a	n/a	NoResponse	-1	n/a	n/a	14	75	Blank	Loss	True
712.747	0.3	Lose2	0.6579	0.004	No	2.928	-0.004	1.0	NoResponse	-1	0.329	n/a	14	75	ButtonPress	Loss	True
713.12	1.45	Lose2	0.6579	n/a	No	2.928	n/a	5.0	NoResponse	-1	0.013	712.133	14	75	Feedback	Loss	True
714.574	2.928	Lose2	0.6579	n/a	No	2.928	n/a	n/a	NoResponse	-1	0.0	n/a	14	75	ISIslide	Loss	True
717.517	0.25	Control	0.6494	0.0	No	3.233	0.017	n/a	LatePress	0	n/a	n/a	14	76	Cue	Neutral	True
717.767	4.05	Control	0.6494	0.001	No	3.233	0.0	n/a	LatePress	0	n/a	n/a	14	76	Fixation	Neutral	True
721.813	0.22	Control	0.6494	0.004	No	3.233	-0.004	1.0	LatePress	0	0.221	721.034	14	76	Target	Neutral	True
722.034	0.3	Control	0.6494	0.004	No	3.233	-0.004	1.0	LatePress	0	0.221	n/a	14	76	ButtonPress	Neutral	True
722.047	0.48	Control	0.6494	n/a	No	3.233	n/a	n/a	LatePress	0	n/a	n/a	14	76	Blank	Neutral	True
722.515	1.45	Control	0.6494	n/a	No	3.233	n/a	5.0	LatePress	0	0.033	721.548	14	76	Feedback	Neutral	True
723.969	3.233	Control	0.6494	n/a	No	3.233	n/a	n/a	LatePress	0	0.0	n/a	14	76	ISIslide	Neutral	True
727.229	0.25	Lose2	0.6537999999999999	0.0	Yes	2.571	0.029	n/a	GoodResponse	0	n/a	n/a	14	77	Cue	AvoidedLoss	True
727.48	3.95	Lose2	0.6537999999999999	0.0	Yes	2.571	0.001	n/a	GoodResponse	0	n/a	n/a	14	77	Fixation	AvoidedLoss	True
731.425	0.23	Lose2	0.6537999999999999	0.004	Yes	2.571	-0.004	1.0	GoodResponse	0	0.198	730.623	14	77	Target	AvoidedLoss	True
731.623	0.3	Lose2	0.6537999999999999	0.004	Yes	2.571	-0.004	1.0	GoodResponse	0	0.198	n/a	14	77	ButtonPress	AvoidedLoss	True
731.659	0.47	Lose2	0.6537999999999999	n/a	Yes	2.571	n/a	n/a	GoodResponse	0	n/a	n/a	14	77	Blank	AvoidedLoss	True
732.127	1.45	Lose2	0.6537999999999999	n/a	Yes	2.571	n/a	5.0	GoodResponse	0	0.031	731.158	14	77	Feedback	AvoidedLoss	True
733.581	2.571	Lose2	0.6537999999999999	n/a	Yes	2.571	n/a	n/a	GoodResponse	0	0.0	n/a	14	77	ISIslide	AvoidedLoss	True
