onset	duration	cue_type	current_mean_accuracy	duration_error	is_hit	isi_adjusted	onset_delay	response	response_type	reward	rt	rt_time	total_reward	trial_number	trial_phase	trial_type	one_press
11.103	0.25	Control	1.0	0.0	Yes	2.947	0.003	n/a	GoodResponse	0	n/a	n/a	0	0	Cue	Neutral	True
11.354	3.85	Control	1.0	0.0	Yes	2.947	0.001	n/a	GoodResponse	0	n/a	n/a	0	0	Fixation	Neutral	True
15.199	0.4	Control	1.0	0.004	Yes	2.947	-0.004	3.0	GoodResponse	0	0.256	14.455	0	0	Target	Neutral	True
15.455	0.3	Control	1.0	0.004	Yes	2.947	-0.004	3.0	GoodResponse	0	0.256	n/a	0	0	ButtonPress	Neutral	True
15.6	0.3	Control	1.0	n/a	Yes	2.947	n/a	n/a	GoodResponse	0	n/a	n/a	0	0	Blank	Neutral	True
15.901	1.45	Control	1.0	n/a	Yes	2.947	n/a	5.0	GoodResponse	0	0.026	14.927	0	0	Feedback	Neutral	True
17.355	2.947	Control	1.0	n/a	Yes	2.947	n/a	n/a	GoodResponse	0	0.0	n/a	0	0	ISIslide	Neutral	True
20.331	0.25	Lose2	1.0	0.0	Yes	2.769	0.031	n/a	GoodResponse	0	n/a	n/a	0	1	Cue	AvoidedLoss	True
20.582	4.0	Lose2	1.0	0.0	Yes	2.769	0.001	n/a	GoodResponse	0	n/a	n/a	0	1	Fixation	AvoidedLoss	True
24.577	0.39	Lose2	1.0	0.004	Yes	2.769	-0.004	3.0	GoodResponse	0	0.229	23.806	0	1	Target	AvoidedLoss	True
24.806	0.3	Lose2	1.0	0.004	Yes	2.769	-0.004	3.0	GoodResponse	0	0.229	n/a	0	1	ButtonPress	AvoidedLoss	True
24.978	0.31	Lose2	1.0	n/a	Yes	2.769	n/a	n/a	GoodResponse	0	n/a	n/a	0	1	Blank	AvoidedLoss	True
25.279	1.45	Lose2	1.0	n/a	Yes	2.769	n/a	5.0	GoodResponse	0	0.014	24.293	0	1	Feedback	AvoidedLoss	True
26.733	2.769	Lose2	1.0	n/a	Yes	2.769	n/a	n/a	GoodResponse	0	0.0	n/a	0	1	ISIslide	AvoidedLoss	True
29.525	0.25	Control	1.0	0.0	Yes	2.575	0.025	n/a	GoodResponse	0	n/a	n/a	0	2	Cue	Neutral	True
29.776	4.1	Control	1.0	0.0	Yes	2.575	0.001	n/a	GoodResponse	0	n/a	n/a	0	2	Fixation	Neutral	True
33.871	0.38	Control	1.0	0.004	Yes	2.575	-0.004	3.0	GoodResponse	0	0.269	33.14	0	2	Target	Neutral	True
34.14	0.3	Control	1.0	0.004	Yes	2.575	-0.004	3.0	GoodResponse	0	0.269	n/a	0	2	ButtonPress	Neutral	True
34.256	0.32	Control	1.0	n/a	Yes	2.575	n/a	n/a	GoodResponse	0	n/a	n/a	0	2	Blank	Neutral	True
34.573	1.45	Control	1.0	n/a	Yes	2.575	n/a	5.0	GoodResponse	0	0.036	33.609	0	2	Feedback	Neutral	True
36.028	2.575	Control	1.0	n/a	Yes	2.575	n/a	n/a	GoodResponse	0	0.0	n/a	0	2	ISIslide	Neutral	True
38.619	0.25	Win2	0.75	0.0	No	2.831	0.019	n/a	PrematurePress	0	n/a	n/a	0	3	Cue	MissedWin	False
38.87	3.95	Win2	0.75	0.0	No	2.831	0.001	3.0	PrematurePress	0	0.359	38.229	0	3	Fixation	MissedWin	False
39.229	0.3	Win2	0.75	0.0	No	2.831	0.001	3.0	PrematurePress	0	0.359	n/a	0	3	ButtonPress	MissedWin	False
42.815	0.37	Win2	0.75	0.004	No	2.831	-0.004	3.0	PrematurePress	0	0.01	41.825	0	3	Target	MissedWin	False
42.825	0.3	Win2	0.75	0.004	No	2.831	-0.004	3.0	PrematurePress	0	0.01	n/a	0	3	ButtonPress	MissedWin	False
43.199	0.33	Win2	0.75	n/a	No	2.831	n/a	n/a	PrematurePress	0	n/a	n/a	0	3	Blank	MissedWin	False
43.517	1.45	Win2	0.75	n/a	No	2.831	n/a	5.0	PrematurePress	0	0.019	42.536	0	3	Feedback	MissedWin	False
44.971	2.831	Win2	0.75	n/a	No	2.831	n/a	n/a	PrematurePress	0	0.0	n/a	0	3	ISIslide	MissedWin	False
47.83	0.25	Win2	0.8	0.0	Yes	3.27	0.03	n/a	GoodResponse	1	n/a	n/a	1	4	Cue	Win	True
48.08	4.0	Win2	0.8	0.001	Yes	3.27	0.0	n/a	GoodResponse	1	n/a	n/a	1	4	Fixation	Win	True
52.076	0.36	Win2	0.8	0.004	Yes	3.27	-0.004	3.0	GoodResponse	1	0.298	51.374	1	4	Target	Win	True
52.374	0.3	Win2	0.8	0.004	Yes	3.27	-0.004	3.0	GoodResponse	1	0.298	n/a	1	4	ButtonPress	Win	True
52.444	0.34	Win2	0.8	n/a	Yes	3.27	n/a	n/a	GoodResponse	1	n/a	n/a	1	4	Blank	Win	True
52.778	1.45	Win2	0.8	n/a	Yes	3.27	n/a	5.0	GoodResponse	1	0.026	51.804	1	4	Feedback	Win	True
54.232	3.27	Win2	0.8	n/a	Yes	3.27	n/a	n/a	GoodResponse	1	0.0	n/a	1	4	ISIslide	Win	True
57.525	0.25	Win2	0.6667000000000001	0.0	No	2.775	0.025	n/a	NoResponse	0	n/a	n/a	1	5	Cue	MissedWin	True
57.776	4.0	Win2	0.6667000000000001	0.0	No	2.775	0.001	n/a	NoResponse	0	n/a	n/a	1	5	Fixation	MissedWin	True
61.771	0.35	Win2	0.6667000000000001	0.004	No	2.775	-0.004	3.0	NoResponse	0	0.415	61.186	1	5	Target	MissedWin	True
62.122	0.35	Win2	0.6667000000000001	n/a	No	2.775	n/a	n/a	NoResponse	0	n/a	n/a	1	5	Blank	MissedWin	True
62.186	0.3	Win2	0.6667000000000001	0.004	No	2.775	-0.004	3.0	NoResponse	0	0.415	n/a	1	5	ButtonPress	MissedWin	True
62.473	1.45	Win2	0.6667000000000001	n/a	No	2.775	n/a	5.0	NoResponse	0	0.039	61.512	1	5	Feedback	MissedWin	True
63.928	2.775	Win2	0.6667000000000001	n/a	No	2.775	n/a	n/a	NoResponse	0	0.0	n/a	1	5	ISIslide	MissedWin	True
66.719	0.25	Lose2	0.7143	0.001	Yes	2.731	0.019	n/a	GoodResponse	0	n/a	n/a	1	6	Cue	AvoidedLoss	True
66.97	3.95	Lose2	0.7143	0.0	Yes	2.731	0.001	n/a	GoodResponse	0	n/a	n/a	1	6	Fixation	AvoidedLoss	True
70.915	0.34	Lose2	0.7143	0.004	Yes	2.731	-0.004	3.0	GoodResponse	0	0.146	70.061	1	6	Target	AvoidedLoss	True
71.061	0.3	Lose2	0.7143	0.004	Yes	2.731	-0.004	3.0	GoodResponse	0	0.146	n/a	1	6	ButtonPress	AvoidedLoss	True
71.266	0.36	Lose2	0.7143	n/a	Yes	2.731	n/a	n/a	GoodResponse	0	n/a	n/a	1	6	Blank	AvoidedLoss	True
71.617	1.45	Lose2	0.7143	n/a	Yes	2.731	n/a	5.0	GoodResponse	0	0.017	70.634	1	6	Feedback	AvoidedLoss	True
73.072	2.731	Lose2	0.7143	n/a	Yes	2.731	n/a	n/a	GoodResponse	0	0.0	n/a	1	6	ISIslide	AvoidedLoss	True
75.83	0.25	Lose2	0.75	0.0	Yes	4.02	0.03	n/a	GoodResponse	0	n/a	n/a	1	7	Cue	AvoidedLoss	True
76.081	4.05	Lose2	0.75	0.0	Yes	4.02	0.001	n/a	GoodResponse	0	n/a	n/a	1	7	Fixation	AvoidedLoss	True
80.126	0.33	Lose2	0.75	0.004	Yes	4.02	-0.004	3.0	GoodResponse	0	0.283	79.409	1	7	Target	AvoidedLoss	True
80.409	0.3	Lose2	0.75	0.004	Yes	4.02	-0.004	3.0	GoodResponse	0	0.283	n/a	1	7	ButtonPress	AvoidedLoss	True
80.461	0.37	Lose2	0.75	n/a	Yes	4.02	n/a	n/a	GoodResponse	0	n/a	n/a	1	7	Blank	AvoidedLoss	True
80.828	1.45	Lose2	0.75	n/a	Yes	4.02	n/a	5.0	GoodResponse	0	0.024	79.852	1	7	Feedback	AvoidedLoss	True
82.283	4.02	Lose2	0.75	n/a	Yes	4.02	n/a	n/a	GoodResponse	0	0.0	n/a	1	7	ISIslide	AvoidedLoss	True
86.328	0.25	Lose2	0.6667000000000001	0.0	No	3.022	0.028	n/a	NoResponse	-1	n/a	n/a	0	8	Cue	Loss	True
86.579	3.95	Lose2	0.6667000000000001	0.0	No	3.022	0.001	n/a	NoResponse	-1	n/a	n/a	0	8	Fixation	Loss	True
90.524	0.32	Lose2	0.6667000000000001	0.004	No	3.022	-0.004	3.0	NoResponse	-1	0.48	90.004	0	8	Target	Loss	True
90.858	0.38	Lose2	0.6667000000000001	n/a	No	3.022	n/a	n/a	NoResponse	-1	n/a	n/a	0	8	Blank	Loss	True
91.004	0.3	Lose2	0.6667000000000001	0.004	No	3.022	-0.004	3.0	NoResponse	-1	0.48	n/a	0	8	ButtonPress	Loss	True
91.226	1.45	Lose2	0.6667000000000001	n/a	No	3.022	n/a	5.0	NoResponse	-1	0.017	90.243	0	8	Feedback	Loss	True
92.68	3.022	Lose2	0.6667000000000001	n/a	No	3.022	n/a	3.0	NoResponse	-1	2.646	n/a	0	8	ISIslide	Loss	True
95.706	0.25	Lose2	0.7	0.0	Yes	3.144	0.006	n/a	GoodResponse	0	n/a	n/a	0	9	Cue	AvoidedLoss	True
95.957	3.95	Lose2	0.7	0.0	Yes	3.144	0.001	n/a	GoodResponse	0	n/a	n/a	0	9	Fixation	AvoidedLoss	True
99.902	0.31	Lose2	0.7	0.004	Yes	3.144	-0.004	3.0	GoodResponse	0	0.23	99.132	0	9	Target	AvoidedLoss	True
100.132	0.3	Lose2	0.7	0.004	Yes	3.144	-0.004	3.0	GoodResponse	0	0.23	n/a	0	9	ButtonPress	AvoidedLoss	True
100.22	0.39	Lose2	0.7	n/a	Yes	3.144	n/a	n/a	GoodResponse	0	n/a	n/a	0	9	Blank	AvoidedLoss	True
100.604	1.45	Lose2	0.7	n/a	Yes	3.144	n/a	5.0	GoodResponse	0	0.007	99.611	0	9	Feedback	AvoidedLoss	True
102.058	3.144	Lose2	0.7	n/a	Yes	3.144	n/a	n/a	GoodResponse	0	0.0	n/a	0	9	ISIslide	AvoidedLoss	True
105.218	0.25	Control	0.7273000000000001	0.0	Yes	3.282	0.018	n/a	GoodResponse	0	n/a	n/a	0	10	Cue	Neutral	True
105.469	4.0	Control	0.7273000000000001	0.0	Yes	3.282	0.001	n/a	GoodResponse	0	n/a	n/a	0	10	Fixation	Neutral	True
109.464	0.3	Control	0.7273000000000001	0.004	Yes	3.282	-0.004	3.0	GoodResponse	0	0.238	108.702	0	10	Target	Neutral	True
109.702	0.3	Control	0.7273000000000001	0.004	Yes	3.282	-0.004	3.0	GoodResponse	0	0.238	n/a	0	10	ButtonPress	Neutral	True
109.765	0.4	Control	0.7273000000000001	n/a	Yes	3.282	n/a	n/a	GoodResponse	0	n/a	n/a	0	10	Blank	Neutral	True
110.166	1.45	Control	0.7273000000000001	n/a	Yes	3.282	n/a	5.0	GoodResponse	0	0.006	109.172	0	10	Feedback	Neutral	True
111.62	3.282	Control	0.7273000000000001	n/a	Yes	3.282	n/a	n/a	GoodResponse	0	0.0	n/a	0	10	ISIslide	Neutral	True
114.93	0.25	Lose2	0.75	0.0	Yes	2.72	0.03	n/a	GoodResponse	0	n/a	n/a	0	11	Cue	AvoidedLoss	True
115.181	4.05	Lose2	0.75	0.0	Yes	2.72	0.001	n/a	GoodResponse	0	n/a	n/a	0	11	Fixation	AvoidedLoss	True
119.226	0.29	Lose2	0.75	0.004	Yes	2.72	-0.004	3.0	GoodResponse	0	0.283	118.509	0	11	Target	AvoidedLoss	True
119.509	0.3	Lose2	0.75	0.004	Yes	2.72	-0.004	3.0	GoodResponse	0	0.283	n/a	0	11	ButtonPress	AvoidedLoss	True
119.527	0.41	Lose2	0.75	n/a	Yes	2.72	n/a	n/a	GoodResponse	0	n/a	n/a	0	11	Blank	AvoidedLoss	True
119.928	1.45	Lose2	0.75	n/a	Yes	2.72	n/a	5.0	GoodResponse	0	0.046	118.974	0	11	Feedback	AvoidedLoss	True
121.383	2.72	Lose2	0.75	n/a	Yes	2.72	n/a	n/a	GoodResponse	0	0.0	n/a	0	11	ISIslide	AvoidedLoss	True
124.124	0.25	Control	0.7692	0.0	Yes	2.976	0.024	n/a	GoodResponse	0	n/a	n/a	0	12	Cue	Neutral	True
124.375	3.9	Control	0.7692	0.0	Yes	2.976	0.001	n/a	GoodResponse	0	n/a	n/a	0	12	Fixation	Neutral	True
128.27	0.28	Control	0.7692	0.004	Yes	2.976	-0.004	3.0	GoodResponse	0	0.22	127.49	0	12	Target	Neutral	True
128.49	0.3	Control	0.7692	0.004	Yes	2.976	-0.004	3.0	GoodResponse	0	0.22	n/a	0	12	ButtonPress	Neutral	True
128.554	0.42	Control	0.7692	n/a	Yes	2.976	n/a	n/a	GoodResponse	0	n/a	n/a	0	12	Blank	Neutral	True
128.972	1.45	Control	0.7692	n/a	Yes	2.976	n/a	5.0	GoodResponse	0	0.026	127.998	0	12	Feedback	Neutral	True
130.426	2.976	Control	0.7692	n/a	Yes	2.976	n/a	n/a	GoodResponse	0	0.0	n/a	0	12	ISIslide	Neutral	True
133.419	0.25	Control	0.7143	0.0	No	2.781	0.019	n/a	NoResponse	0	n/a	n/a	0	13	Cue	Neutral	True
133.669	4.0	Control	0.7143	0.001	No	2.781	0.0	n/a	NoResponse	0	n/a	n/a	0	13	Fixation	Neutral	True
137.665	0.27	Control	0.7143	0.004	No	2.781	-0.004	3.0	NoResponse	0	0.32	136.985	0	13	Target	Neutral	True
137.949	0.43	Control	0.7143	n/a	No	2.781	n/a	n/a	NoResponse	0	n/a	n/a	0	13	Blank	Neutral	True
137.985	0.3	Control	0.7143	0.004	No	2.781	-0.004	3.0	NoResponse	0	0.32	n/a	0	13	ButtonPress	Neutral	True
138.367	1.45	Control	0.7143	n/a	No	2.781	n/a	5.0	NoResponse	0	0.046	137.413	0	13	Feedback	Neutral	True
139.821	2.781	Control	0.7143	n/a	No	2.781	n/a	n/a	NoResponse	0	0.0	n/a	0	13	ISIslide	Neutral	True
142.63	0.25	Win2	0.7333	0.0	Yes	2.67	0.03	n/a	GoodResponse	1	n/a	n/a	1	14	Cue	Win	False
142.88	4.1	Win2	0.7333	0.0	Yes	2.67	0.0	3.0	GoodResponse	1	0.381	142.261	1	14	Fixation	Win	False
143.261	0.3	Win2	0.7333	0.0	Yes	2.67	0.0	3.0	GoodResponse	1	0.381	n/a	1	14	ButtonPress	Win	False
146.976	0.26	Win2	0.7333	0.004	Yes	2.67	-0.004	3.0	GoodResponse	1	0.224	146.2	1	14	Target	Win	False
147.2	0.3	Win2	0.7333	0.004	Yes	2.67	-0.004	3.0	GoodResponse	1	0.224	n/a	1	14	ButtonPress	Win	False
147.243	0.44	Win2	0.7333	n/a	Yes	2.67	n/a	n/a	GoodResponse	1	n/a	n/a	1	14	Blank	Win	False
147.678	1.45	Win2	0.7333	n/a	Yes	2.67	n/a	5.0	GoodResponse	1	0.006	146.684	1	14	Feedback	Win	False
149.132	2.67	Win2	0.7333	n/a	Yes	2.67	n/a	n/a	GoodResponse	1	0.0	n/a	1	14	ISIslide	Win	False
151.824	0.25	Control	0.6875	0.0	No	2.976	0.024	n/a	NoResponse	0	n/a	n/a	1	15	Cue	Neutral	True
152.074	4.0	Control	0.6875	0.001	No	2.976	0.0	n/a	NoResponse	0	n/a	n/a	1	15	Fixation	Neutral	True
156.07	0.25	Control	0.6875	0.004	No	2.976	-0.004	3.0	NoResponse	0	0.412	155.482	1	15	Target	Neutral	True
156.32	0.45	Control	0.6875	n/a	No	2.976	n/a	n/a	NoResponse	0	n/a	n/a	1	15	Blank	Neutral	True
156.482	0.3	Control	0.6875	0.004	No	2.976	-0.004	3.0	NoResponse	0	0.412	n/a	1	15	ButtonPress	Neutral	True
156.772	1.45	Control	0.6875	n/a	No	2.976	n/a	5.0	NoResponse	0	0.03	155.802	1	15	Feedback	Neutral	True
158.226	2.976	Control	0.6875	n/a	No	2.976	n/a	n/a	NoResponse	0	0.0	n/a	1	15	ISIslide	Neutral	True
161.218	0.25	Win2	0.7059000000000001	0.0	Yes	2.882	0.018	n/a	GoodResponse	1	n/a	n/a	2	16	Cue	Win	True
161.469	4.0	Win2	0.7059000000000001	0.0	Yes	2.882	0.001	n/a	GoodResponse	1	n/a	n/a	2	16	Fixation	Win	True
165.464	0.24	Win2	0.7059000000000001	0.004	Yes	2.882	-0.004	3.0	GoodResponse	1	0.229	164.693	2	16	Target	Win	True
165.693	0.3	Win2	0.7059000000000001	0.004	Yes	2.882	-0.004	3.0	GoodResponse	1	0.229	n/a	2	16	ButtonPress	Win	True
165.715	0.46	Win2	0.7059000000000001	n/a	Yes	2.882	n/a	n/a	GoodResponse	1	n/a	n/a	2	16	Blank	Win	True
166.166	1.45	Win2	0.7059000000000001	n/a	Yes	2.882	n/a	5.0	GoodResponse	1	0.002	165.168	2	16	Feedback	Win	True
167.621	2.882	Win2	0.7059000000000001	n/a	Yes	2.882	n/a	n/a	GoodResponse	1	0.0	n/a	2	16	ISIslide	Win	True
170.53	0.25	Lose2	0.6667000000000001	0.0	No	2.72	0.03	n/a	NoResponse	-1	n/a	n/a	1	17	Cue	Loss	True
170.78	3.95	Lose2	0.6667000000000001	0.0	No	2.72	0.0	n/a	NoResponse	-1	n/a	n/a	1	17	Fixation	Loss	True
174.725	0.23	Lose2	0.6667000000000001	0.005	No	2.72	-0.005	3.0	NoResponse	-1	0.358	174.083	1	17	Target	Loss	True
174.959	0.47	Lose2	0.6667000000000001	n/a	No	2.72	n/a	n/a	NoResponse	-1	n/a	n/a	1	17	Blank	Loss	True
175.083	0.3	Lose2	0.6667000000000001	0.005	No	2.72	-0.005	3.0	NoResponse	-1	0.358	n/a	1	17	ButtonPress	Loss	True
175.427	1.45	Lose2	0.6667000000000001	n/a	No	2.72	n/a	5.0	NoResponse	-1	0.01	174.437	1	17	Feedback	Loss	True
176.882	2.72	Lose2	0.6667000000000001	n/a	No	2.72	n/a	n/a	NoResponse	-1	0.0	n/a	1	17	ISIslide	Loss	True
179.623	0.25	Lose2	0.6315999999999999	0.0	No	2.727	0.023	n/a	LatePress	-1	n/a	n/a	0	18	Cue	Loss	True
179.874	4.05	Lose2	0.6315999999999999	0.0	No	2.727	0.001	n/a	LatePress	-1	n/a	n/a	0	18	Fixation	Loss	True
183.92	0.22	Lose2	0.6315999999999999	0.003	No	2.727	-0.003	3.0	LatePress	-1	0.233	183.153	0	18	Target	Loss	True
184.153	0.3	Lose2	0.6315999999999999	0.003	No	2.727	-0.003	3.0	LatePress	-1	0.233	n/a	0	18	ButtonPress	Loss	True
184.154	0.48	Lose2	0.6315999999999999	n/a	No	2.727	n/a	n/a	LatePress	-1	n/a	n/a	0	18	Blank	Loss	True
184.622	1.45	Lose2	0.6315999999999999	n/a	No	2.727	n/a	5.0	LatePress	-1	0.033	183.655	0	18	Feedback	Loss	True
186.076	2.727	Lose2	0.6315999999999999	n/a	No	2.727	n/a	n/a	LatePress	-1	0.0	n/a	0	18	ISIslide	Loss	True
188.817	0.25	Control	0.6	0.001	No	2.933	0.017	n/a	NoResponse	0	n/a	n/a	0	19	Cue	Neutral	True
189.068	3.95	Control	0.6	0.0	No	2.933	0.001	n/a	NoResponse	0	n/a	n/a	0	19	Fixation	Neutral	True
193.013	0.23	Control	0.6	0.004	No	2.933	-0.004	3.0	NoResponse	0	0.488	192.501	0	19	Target	Neutral	True
193.247	0.47	Control	0.6	n/a	No	2.933	n/a	n/a	NoResponse	0	n/a	n/a	0	19	Blank	Neutral	True
193.501	0.3	Control	0.6	0.004	No	2.933	-0.004	3.0	NoResponse	0	0.488	n/a	0	19	ButtonPress	Neutral	True
193.715	1.45	Control	0.6	n/a	No	2.933	n/a	5.0	NoResponse	0	0.014	192.729	0	19	Feedback	Neutral	True
195.17	2.933	Control	0.6	n/a	No	2.933	n/a	n/a	NoResponse	0	0.0	n/a	0	19	ISIslide	Neutral	True
198.129	0.25	Control	0.619	0.0	Yes	2.621	0.029	n/a	GoodResponse	0	n/a	n/a	0	20	Cue	Neutral	True
198.379	4.05	Control	0.619	0.0	Yes	2.621	0.0	n/a	GoodResponse	0	n/a	n/a	0	20	Fixation	Neutral	True
202.425	0.24	Control	0.619	0.004	Yes	2.621	-0.004	3.0	GoodResponse	0	0.194	201.619	0	20	Target	Neutral	True
202.619	0.3	Control	0.619	0.004	Yes	2.621	-0.004	3.0	GoodResponse	0	0.194	n/a	0	20	ButtonPress	Neutral	True
202.676	0.46	Control	0.619	n/a	Yes	2.621	n/a	n/a	GoodResponse	0	n/a	n/a	0	20	Blank	Neutral	True
203.127	1.45	Control	0.619	n/a	Yes	2.621	n/a	5.0	GoodResponse	0	0.016	202.143	0	20	Feedback	Neutral	True
204.581	2.621	Control	0.619	n/a	Yes	2.621	n/a	n/a	GoodResponse	0	0.0	n/a	0	20	ISIslide	Neutral	True
207.222	0.25	Control	0.5909	0.001	No	2.778	0.022	n/a	NoResponse	0	n/a	n/a	0	21	Cue	Neutral	True
207.473	4.1	Control	0.5909	0.0	No	2.778	0.001	n/a	NoResponse	0	n/a	n/a	0	21	Fixation	Neutral	True
211.569	0.25	Control	0.5909	0.003	No	2.778	-0.003	3.0	NoResponse	0	0.377	210.946	0	21	Target	Neutral	True
211.82	0.45	Control	0.5909	n/a	No	2.778	n/a	n/a	NoResponse	0	n/a	n/a	0	21	Blank	Neutral	True
211.946	0.3	Control	0.5909	0.003	No	2.778	-0.003	3.0	NoResponse	0	0.377	n/a	0	21	ButtonPress	Neutral	True
212.271	1.45	Control	0.5909	n/a	No	2.778	n/a	5.0	NoResponse	0	0.043	211.314	0	21	Feedback	Neutral	True
213.725	2.778	Control	0.5909	n/a	No	2.778	n/a	n/a	NoResponse	0	0.0	n/a	0	21	ISIslide	Neutral	True
216.517	0.25	Control	0.6087	0.0	Yes	2.783	0.017	n/a	GoodResponse	0	n/a	n/a	0	22	Cue	Neutral	True
216.768	4.0	Control	0.6087	0.0	Yes	2.783	0.001	n/a	GoodResponse	0	n/a	n/a	0	22	Fixation	Neutral	True
220.763	0.26	Control	0.6087	0.004	Yes	2.783	-0.004	3.0	GoodResponse	0	0.236	219.999	0	22	Target	Neutral	True
220.999	0.3	Control	0.6087	0.004	Yes	2.783	-0.004	3.0	GoodResponse	0	0.236	n/a	0	22	ButtonPress	Neutral	True
221.03	0.44	Control	0.6087	n/a	Yes	2.783	n/a	n/a	GoodResponse	0	n/a	n/a	0	22	Blank	Neutral	True
221.465	1.45	Control	0.6087	n/a	Yes	2.783	n/a	5.0	GoodResponse	0	0.02	220.485	0	22	Feedback	Neutral	True
222.919	2.783	Control	0.6087	n/a	Yes	2.783	n/a	n/a	GoodResponse	0	0.0	n/a	0	22	ISIslide	Neutral	True
225.728	0.25	Control	0.5832999999999999	0.0	No	2.772	0.028	n/a	NoResponse	0	n/a	n/a	0	23	Cue	Neutral	True
225.978	3.9	Control	0.5832999999999999	0.001	No	2.772	0.0	n/a	NoResponse	0	n/a	n/a	0	23	Fixation	Neutral	True
229.89	0.27	Control	0.5832999999999999	0.0	No	2.772	0.012	3.0	NoResponse	0	0.681	229.571	0	23	Target	Neutral	True
230.158	0.43	Control	0.5832999999999999	n/a	No	2.772	n/a	n/a	NoResponse	0	n/a	n/a	0	23	Blank	Neutral	True
230.571	0.3	Control	0.5832999999999999	0.0	No	2.772	0.012	3.0	NoResponse	0	0.681	n/a	0	23	ButtonPress	Neutral	True
230.576	1.45	Control	0.5832999999999999	n/a	No	2.772	n/a	5.0	NoResponse	0	0.03	229.606	0	23	Feedback	Neutral	True
232.03	2.772	Control	0.5832999999999999	n/a	No	2.772	n/a	n/a	NoResponse	0	0.0	n/a	0	23	ISIslide	Neutral	True
234.822	0.25	Win2	0.6	0.0	Yes	3.128	0.022	n/a	GoodResponse	1	n/a	n/a	1	24	Cue	Win	True
235.072	3.95	Win2	0.6	0.0	Yes	3.128	0.0	n/a	GoodResponse	1	n/a	n/a	1	24	Fixation	Win	True
239.034	0.28	Win2	0.6	0.0	Yes	3.128	0.012	3.0	GoodResponse	1	0.235	238.269	1	24	Target	Win	True
239.269	0.3	Win2	0.6	0.0	Yes	3.128	0.012	3.0	GoodResponse	1	0.235	n/a	1	24	ButtonPress	Win	True
239.302	0.42	Win2	0.6	n/a	Yes	3.128	n/a	n/a	GoodResponse	1	n/a	n/a	1	24	Blank	Win	True
239.719	1.45	Win2	0.6	n/a	Yes	3.128	n/a	5.0	GoodResponse	1	0.009	238.728	1	24	Feedback	Win	True
241.174	3.128	Win2	0.6	n/a	Yes	3.128	n/a	n/a	GoodResponse	1	0.0	n/a	1	24	ISIslide	Win	True
244.317	0.25	Win2	0.6154	0.0	Yes	3.083	0.017	n/a	GoodResponse	1	n/a	n/a	2	25	Cue	Win	True
244.567	4.0	Win2	0.6154	0.0	Yes	3.083	0.0	n/a	GoodResponse	1	n/a	n/a	2	25	Fixation	Win	True
248.563	0.29	Win2	0.6154	0.004	Yes	3.083	-0.004	3.0	GoodResponse	1	0.272	247.835	2	25	Target	Win	True
248.835	0.3	Win2	0.6154	0.004	Yes	3.083	-0.004	3.0	GoodResponse	1	0.272	n/a	2	25	ButtonPress	Win	True
248.863	0.41	Win2	0.6154	n/a	Yes	3.083	n/a	n/a	GoodResponse	1	n/a	n/a	2	25	Blank	Win	True
249.265	1.45	Win2	0.6154	n/a	Yes	3.083	n/a	5.0	GoodResponse	1	0.024	248.289	2	25	Feedback	Win	True
250.719	3.083	Win2	0.6154	n/a	Yes	3.083	n/a	n/a	GoodResponse	1	0.0	n/a	2	25	ISIslide	Win	True
253.828	0.25	Win2	0.5926	0.0	No	2.922	0.028	n/a	NoResponse	0	n/a	n/a	2	26	Cue	MissedWin	True
254.079	3.95	Win2	0.5926	0.0	No	2.922	0.001	n/a	NoResponse	0	n/a	n/a	2	26	Fixation	MissedWin	True
258.024	0.3	Win2	0.5926	0.004	No	2.922	-0.004	3.0	NoResponse	0	0.327	257.351	2	26	Target	MissedWin	True
258.325	0.4	Win2	0.5926	n/a	No	2.922	n/a	n/a	NoResponse	0	n/a	n/a	2	26	Blank	MissedWin	True
258.351	0.3	Win2	0.5926	0.004	No	2.922	-0.004	3.0	NoResponse	0	0.327	n/a	2	26	ButtonPress	MissedWin	True
258.726	1.45	Win2	0.5926	n/a	No	2.922	n/a	5.0	NoResponse	0	0.027	257.753	2	26	Feedback	MissedWin	True
260.181	2.922	Win2	0.5926	n/a	No	2.922	n/a	n/a	NoResponse	0	0.0	n/a	2	26	ISIslide	MissedWin	True
263.123	0.25	Lose2	0.6071	0.0	Yes	2.827	0.023	n/a	GoodResponse	0	n/a	n/a	2	27	Cue	AvoidedLoss	False
263.373	4.05	Lose2	0.6071	0.001	Yes	2.827	0.0	3.0	GoodResponse	0	3.48	265.853	2	27	Fixation	AvoidedLoss	False
266.853	0.3	Lose2	0.6071	0.001	Yes	2.827	0.0	3.0	GoodResponse	0	3.48	n/a	2	27	ButtonPress	AvoidedLoss	False
267.419	0.31	Lose2	0.6071	0.004	Yes	2.827	-0.004	3.0	GoodResponse	0	0.155	266.574	2	27	Target	AvoidedLoss	False
267.574	0.3	Lose2	0.6071	0.004	Yes	2.827	-0.004	3.0	GoodResponse	0	0.155	n/a	2	27	ButtonPress	AvoidedLoss	False
267.736	0.39	Lose2	0.6071	n/a	Yes	2.827	n/a	n/a	GoodResponse	0	n/a	n/a	2	27	Blank	AvoidedLoss	False
268.121	1.45	Lose2	0.6071	n/a	Yes	2.827	n/a	5.0	GoodResponse	0	0.045	267.166	2	27	Feedback	AvoidedLoss	False
269.575	2.827	Lose2	0.6071	n/a	Yes	2.827	n/a	n/a	GoodResponse	0	0.0	n/a	2	27	ISIslide	AvoidedLoss	False
272.417	0.25	Control	0.5861999999999999	0.0	No	2.833	0.017	n/a	NoResponse	0	n/a	n/a	2	28	Cue	Neutral	False
272.668	4.05	Control	0.5861999999999999	0.0	No	2.833	0.001	3.0	NoResponse	0	0.249	271.917	2	28	Fixation	Neutral	False
272.917	0.3	Control	0.5861999999999999	0.0	No	2.833	0.001	3.0	NoResponse	0	0.249	n/a	2	28	ButtonPress	Neutral	False
276.713	0.32	Control	0.5861999999999999	0.004	No	2.833	-0.004	3.0	NoResponse	0	0.385	276.098	2	28	Target	Neutral	False
277.048	0.38	Control	0.5861999999999999	n/a	No	2.833	n/a	n/a	NoResponse	0	n/a	n/a	2	28	Blank	Neutral	False
277.098	0.3	Control	0.5861999999999999	0.004	No	2.833	-0.004	3.0	NoResponse	0	0.385	n/a	2	28	ButtonPress	Neutral	False
277.415	1.45	Control	0.5861999999999999	n/a	No	2.833	n/a	5.0	NoResponse	0	0.02	276.435	2	28	Feedback	Neutral	False
278.87	2.833	Control	0.5861999999999999	n/a	No	2.833	n/a	n/a	NoResponse	0	0.0	n/a	2	28	ISIslide	Neutral	False
281.728	0.25	Lose2	0.6	0.0	Yes	2.822	0.028	n/a	GoodResponse	0	n/a	n/a	2	29	Cue	AvoidedLoss	True
281.979	3.95	Lose2	0.6	0.0	Yes	2.822	0.001	n/a	GoodResponse	0	n/a	n/a	2	29	Fixation	AvoidedLoss	True
285.924	0.33	Lose2	0.6	0.004	Yes	2.822	-0.004	3.0	GoodResponse	0	0.219	285.143	2	29	Target	AvoidedLoss	True
286.143	0.3	Lose2	0.6	0.004	Yes	2.822	-0.004	3.0	GoodResponse	0	0.219	n/a	2	29	ButtonPress	AvoidedLoss	True
286.258	0.37	Lose2	0.6	n/a	Yes	2.822	n/a	n/a	GoodResponse	0	n/a	n/a	2	29	Blank	AvoidedLoss	True
286.626	1.45	Lose2	0.6	n/a	Yes	2.822	n/a	5.0	GoodResponse	0	0.028	285.654	2	29	Feedback	AvoidedLoss	True
288.081	2.822	Lose2	0.6	n/a	Yes	2.822	n/a	n/a	GoodResponse	0	0.0	n/a	2	29	ISIslide	AvoidedLoss	True
290.922	0.25	Win2	0.6129	0.001	Yes	2.778	0.022	n/a	GoodResponse	1	n/a	n/a	3	30	Cue	Win	True
291.173	3.9	Win2	0.6129	0.0	Yes	2.778	0.001	n/a	GoodResponse	1	n/a	n/a	3	30	Fixation	Win	True
295.068	0.34	Win2	0.6129	0.004	Yes	2.778	-0.004	3.0	GoodResponse	1	0.199	294.267	3	30	Target	Win	True
295.267	0.3	Win2	0.6129	0.004	Yes	2.778	-0.004	3.0	GoodResponse	1	0.199	n/a	3	30	ButtonPress	Win	True
295.419	0.36	Win2	0.6129	n/a	Yes	2.778	n/a	n/a	GoodResponse	1	n/a	n/a	3	30	Blank	Win	True
295.77	1.45	Win2	0.6129	n/a	Yes	2.778	n/a	5.0	GoodResponse	1	0.007	294.777	3	30	Feedback	Win	True
297.225	2.778	Win2	0.6129	n/a	Yes	2.778	n/a	n/a	GoodResponse	1	0.0	n/a	3	30	ISIslide	Win	True
300.016	0.25	Lose2	0.5938	0.0	No	2.834	0.016	n/a	NoResponse	-1	n/a	n/a	2	31	Cue	Loss	True
300.267	4.05	Lose2	0.5938	0.0	No	2.834	0.001	n/a	NoResponse	-1	n/a	n/a	2	31	Fixation	Loss	True
304.312	0.35	Lose2	0.5938	0.004	No	2.834	-0.004	3.0	NoResponse	-1	0.381	303.693	2	31	Target	Loss	True
304.663	0.35	Lose2	0.5938	n/a	No	2.834	n/a	n/a	NoResponse	-1	n/a	n/a	2	31	Blank	Loss	True
304.693	0.3	Lose2	0.5938	0.004	No	2.834	-0.004	3.0	NoResponse	-1	0.381	n/a	2	31	ButtonPress	Loss	True
305.014	1.45	Lose2	0.5938	n/a	No	2.834	n/a	5.0	NoResponse	-1	0.03	304.044	2	31	Feedback	Loss	True
306.469	2.834	Lose2	0.5938	n/a	No	2.834	n/a	n/a	NoResponse	-1	0.0	n/a	2	31	ISIslide	Loss	True
309.327	0.25	Lose2	0.6061	0.0	Yes	2.623	0.027	n/a	GoodResponse	0	n/a	n/a	2	32	Cue	AvoidedLoss	True
309.578	4.15	Lose2	0.6061	0.0	Yes	2.623	0.001	n/a	GoodResponse	0	n/a	n/a	2	32	Fixation	AvoidedLoss	True
313.724	0.36	Lose2	0.6061	0.003	Yes	2.623	-0.003	3.0	GoodResponse	0	0.272	312.996	2	32	Target	AvoidedLoss	True
313.996	0.3	Lose2	0.6061	0.003	Yes	2.623	-0.003	3.0	GoodResponse	0	0.272	n/a	2	32	ButtonPress	AvoidedLoss	True
314.092	0.34	Lose2	0.6061	n/a	Yes	2.623	n/a	n/a	GoodResponse	0	n/a	n/a	2	32	Blank	AvoidedLoss	True
314.426	1.45	Lose2	0.6061	n/a	Yes	2.623	n/a	5.0	GoodResponse	0	0.033	313.459	2	32	Feedback	AvoidedLoss	True
315.88	2.623	Lose2	0.6061	n/a	Yes	2.623	n/a	n/a	GoodResponse	0	0.0	n/a	2	32	ISIslide	AvoidedLoss	True
318.522	0.25	Win2	0.6175999999999999	0.0	Yes	2.678	0.022	n/a	GoodResponse	1	n/a	n/a	3	33	Cue	Win	True
318.772	4.0	Win2	0.6175999999999999	0.0	Yes	2.678	0.0	n/a	GoodResponse	1	n/a	n/a	3	33	Fixation	Win	True
322.768	0.37	Win2	0.6175999999999999	0.004	Yes	2.678	-0.004	3.0	GoodResponse	1	0.32	322.088	3	33	Target	Win	True
323.088	0.3	Win2	0.6175999999999999	0.004	Yes	2.678	-0.004	3.0	GoodResponse	1	0.32	n/a	3	33	ButtonPress	Win	True
323.152	0.33	Win2	0.6175999999999999	n/a	Yes	2.678	n/a	n/a	GoodResponse	1	n/a	n/a	3	33	Blank	Win	True
323.47	1.45	Win2	0.6175999999999999	n/a	Yes	2.678	n/a	5.0	GoodResponse	1	0.013	322.483	3	33	Feedback	Win	True
324.924	2.678	Win2	0.6175999999999999	n/a	Yes	2.678	n/a	n/a	GoodResponse	1	0.0	n/a	3	33	ISIslide	Win	True
327.615	0.25	Lose2	0.6286	0.0	Yes	2.635	0.015	n/a	GoodResponse	0	n/a	n/a	3	34	Cue	AvoidedLoss	True
327.866	4.05	Lose2	0.6286	0.0	Yes	2.635	0.001	n/a	GoodResponse	0	n/a	n/a	3	34	Fixation	AvoidedLoss	True
331.911	0.38	Lose2	0.6286	0.004	Yes	2.635	-0.004	3.0	GoodResponse	0	0.208	331.119	3	34	Target	AvoidedLoss	True
332.119	0.3	Lose2	0.6286	0.004	Yes	2.635	-0.004	3.0	GoodResponse	0	0.208	n/a	3	34	ButtonPress	AvoidedLoss	True
332.296	0.32	Lose2	0.6286	n/a	Yes	2.635	n/a	n/a	GoodResponse	0	n/a	n/a	3	34	Blank	AvoidedLoss	True
332.614	1.45	Lose2	0.6286	n/a	Yes	2.635	n/a	5.0	GoodResponse	0	0.04	331.654	3	34	Feedback	AvoidedLoss	True
334.068	2.635	Lose2	0.6286	n/a	Yes	2.635	n/a	n/a	GoodResponse	0	0.0	n/a	3	34	ISIslide	AvoidedLoss	True
336.726	0.25	Lose2	0.6389	0.0	Yes	2.674	0.026	n/a	GoodResponse	0	n/a	n/a	3	35	Cue	AvoidedLoss	True
336.977	4.0	Lose2	0.6389	0.0	Yes	2.674	0.001	n/a	GoodResponse	0	n/a	n/a	3	35	Fixation	AvoidedLoss	True
340.972	0.39	Lose2	0.6389	0.004	Yes	2.674	-0.004	3.0	GoodResponse	0	0.226	340.198	3	35	Target	AvoidedLoss	True
341.198	0.3	Lose2	0.6389	0.004	Yes	2.674	-0.004	3.0	GoodResponse	0	0.226	n/a	3	35	ButtonPress	AvoidedLoss	True
341.373	0.31	Lose2	0.6389	n/a	Yes	2.674	n/a	n/a	GoodResponse	0	n/a	n/a	3	35	Blank	AvoidedLoss	True
341.674	1.45	Lose2	0.6389	n/a	Yes	2.674	n/a	5.0	GoodResponse	0	0.007	340.681	3	35	Feedback	AvoidedLoss	True
343.128	2.674	Lose2	0.6389	n/a	Yes	2.674	n/a	n/a	GoodResponse	0	0.0	n/a	3	35	ISIslide	AvoidedLoss	True
345.82	0.25	Control	0.6215999999999999	0.0	No	2.68	0.02	n/a	NoResponse	0	n/a	n/a	3	36	Cue	Neutral	True
346.07	4.0	Control	0.6215999999999999	0.001	No	2.68	0.0	n/a	NoResponse	0	n/a	n/a	3	36	Fixation	Neutral	True
350.066	0.4	Control	0.6215999999999999	0.004	No	2.68	-0.004	3.0	NoResponse	0	0.505	349.571	3	36	Target	Neutral	True
350.467	0.3	Control	0.6215999999999999	n/a	No	2.68	n/a	n/a	NoResponse	0	n/a	n/a	3	36	Blank	Neutral	True
350.571	0.3	Control	0.6215999999999999	0.004	No	2.68	-0.004	3.0	NoResponse	0	0.505	n/a	3	36	ButtonPress	Neutral	True
350.768	1.45	Control	0.6215999999999999	n/a	No	2.68	n/a	5.0	NoResponse	0	0.032	349.8	3	36	Feedback	Neutral	True
352.222	2.68	Control	0.6215999999999999	n/a	No	2.68	n/a	n/a	NoResponse	0	0.0	n/a	3	36	ISIslide	Neutral	True
354.93	0.25	Win2	0.6315999999999999	0.0	Yes	2.87	0.03	n/a	GoodResponse	1	n/a	n/a	4	37	Cue	Win	True
355.181	4.0	Win2	0.6315999999999999	0.0	Yes	2.87	0.001	n/a	GoodResponse	1	n/a	n/a	4	37	Fixation	Win	True
359.176	0.41	Win2	0.6315999999999999	0.004	Yes	2.87	-0.004	3.0	GoodResponse	1	0.222	358.398	4	37	Target	Win	True
359.398	0.3	Win2	0.6315999999999999	0.004	Yes	2.87	-0.004	3.0	GoodResponse	1	0.222	n/a	4	37	ButtonPress	Win	True
359.594	0.29	Win2	0.6315999999999999	n/a	Yes	2.87	n/a	n/a	GoodResponse	1	n/a	n/a	4	37	Blank	Win	True
359.878	1.45	Win2	0.6315999999999999	n/a	Yes	2.87	n/a	5.0	GoodResponse	1	0.044	358.922	4	37	Feedback	Win	True
361.333	2.87	Win2	0.6315999999999999	n/a	Yes	2.87	n/a	n/a	GoodResponse	1	0.0	n/a	4	37	ISIslide	Win	True
364.225	0.25	Lose2	0.6409999999999999	0.0	Yes	2.825	0.025	n/a	GoodResponse	0	n/a	n/a	4	38	Cue	AvoidedLoss	True
364.475	3.95	Lose2	0.6409999999999999	0.0	Yes	2.825	0.0	n/a	GoodResponse	0	n/a	n/a	4	38	Fixation	AvoidedLoss	True
368.421	0.42	Lose2	0.6409999999999999	0.004	Yes	2.825	-0.004	3.0	GoodResponse	0	0.208	367.629	4	38	Target	AvoidedLoss	True
368.629	0.3	Lose2	0.6409999999999999	0.004	Yes	2.825	-0.004	3.0	GoodResponse	0	0.208	n/a	4	38	ButtonPress	AvoidedLoss	True
368.855	0.28	Lose2	0.6409999999999999	n/a	Yes	2.825	n/a	n/a	GoodResponse	0	n/a	n/a	4	38	Blank	AvoidedLoss	True
369.123	1.45	Lose2	0.6409999999999999	n/a	Yes	2.825	n/a	5.0	GoodResponse	0	0.018	368.141	4	38	Feedback	AvoidedLoss	True
370.577	2.825	Lose2	0.6409999999999999	n/a	Yes	2.825	n/a	n/a	GoodResponse	0	0.0	n/a	4	38	ISIslide	AvoidedLoss	True
373.419	0.25	Win2	0.65	0.0	Yes	2.981	0.019	n/a	GoodResponse	1	n/a	n/a	5	39	Cue	Win	True
373.67	4.1	Win2	0.65	0.0	Yes	2.981	0.001	n/a	GoodResponse	1	n/a	n/a	5	39	Fixation	Win	True
377.765	0.43	Win2	0.65	0.004	Yes	2.981	-0.004	3.0	GoodResponse	1	0.267	377.032	5	39	Target	Win	True
378.032	0.3	Win2	0.65	0.004	Yes	2.981	-0.004	3.0	GoodResponse	1	0.267	n/a	5	39	ButtonPress	Win	True
378.2	0.27	Win2	0.65	n/a	Yes	2.981	n/a	n/a	GoodResponse	1	n/a	n/a	5	39	Blank	Win	True
378.467	1.45	Win2	0.65	n/a	Yes	2.981	n/a	5.0	GoodResponse	1	0.039	377.506	5	39	Feedback	Win	True
379.922	2.981	Win2	0.65	n/a	Yes	2.981	n/a	n/a	GoodResponse	1	0.0	n/a	5	39	ISIslide	Win	True
382.931	0.25	Win2	0.6585	0.0	Yes	2.719	0.031	n/a	GoodResponse	1	n/a	n/a	6	40	Cue	Win	True
383.181	3.95	Win2	0.6585	0.0	Yes	2.719	0.0	n/a	GoodResponse	1	n/a	n/a	6	40	Fixation	Win	True
387.143	0.44	Win2	0.6585	0.0	Yes	2.719	0.012	3.0	GoodResponse	1	0.207	386.35	6	40	Target	Win	True
387.35	0.3	Win2	0.6585	0.0	Yes	2.719	0.012	3.0	GoodResponse	1	0.207	n/a	6	40	ButtonPress	Win	True
387.578	0.26	Win2	0.6585	n/a	Yes	2.719	n/a	n/a	GoodResponse	1	n/a	n/a	6	40	Blank	Win	True
387.828	1.45	Win2	0.6585	n/a	Yes	2.719	n/a	5.0	GoodResponse	1	0.044	386.872	6	40	Feedback	Win	True
389.283	2.719	Win2	0.6585	n/a	Yes	2.719	n/a	n/a	GoodResponse	1	0.0	n/a	6	40	ISIslide	Win	True
392.024	0.25	Win2	0.6429	0.0	No	2.776	0.024	n/a	NoResponse	0	n/a	n/a	6	41	Cue	MissedWin	True
392.275	3.9	Win2	0.6429	0.0	No	2.776	0.001	n/a	NoResponse	0	n/a	n/a	6	41	Fixation	MissedWin	True
396.17	0.44	Win2	0.6429	0.004	No	2.776	-0.004	3.0	NoResponse	0	0.46	395.63	6	41	Target	MissedWin	True
396.621	0.26	Win2	0.6429	n/a	No	2.776	n/a	n/a	NoResponse	0	n/a	n/a	6	41	Blank	MissedWin	True
396.63	0.3	Win2	0.6429	0.004	No	2.776	-0.004	3.0	NoResponse	0	0.46	n/a	6	41	ButtonPress	MissedWin	True
396.872	1.45	Win2	0.6429	n/a	No	2.776	n/a	5.0	NoResponse	0	0.025	395.897	6	41	Feedback	MissedWin	True
398.327	2.776	Win2	0.6429	n/a	No	2.776	n/a	n/a	NoResponse	0	0.0	n/a	6	41	ISIslide	MissedWin	True
401.118	0.25	Control	0.6279	0.0	No	2.932	0.018	n/a	NoResponse	0	n/a	n/a	6	42	Cue	Neutral	True
401.369	3.85	Control	0.6279	0.0	No	2.932	0.001	n/a	NoResponse	0	n/a	n/a	6	42	Fixation	Neutral	True
405.214	0.45	Control	0.6279	0.004	No	2.932	-0.004	3.0	NoResponse	0	0.462	404.676	6	42	Target	Neutral	True
405.665	0.25	Control	0.6279	n/a	No	2.932	n/a	n/a	NoResponse	0	n/a	n/a	6	42	Blank	Neutral	True
405.676	0.3	Control	0.6279	0.004	No	2.932	-0.004	3.0	NoResponse	0	0.462	n/a	6	42	ButtonPress	Neutral	True
405.916	1.45	Control	0.6279	n/a	No	2.932	n/a	5.0	NoResponse	0	0.006	404.922	6	42	Feedback	Neutral	True
407.37	2.932	Control	0.6279	n/a	No	2.932	n/a	n/a	NoResponse	0	0.0	n/a	6	42	ISIslide	Neutral	True
410.329	0.25	Win2	0.6364	0.0	Yes	3.171	0.029	n/a	GoodResponse	1	n/a	n/a	7	43	Cue	Win	False
410.58	4.0	Win2	0.6364	0.0	Yes	3.171	0.001	3.0	GoodResponse	1	0.288	409.868	7	43	Fixation	Win	False
410.868	0.3	Win2	0.6364	0.0	Yes	3.171	0.001	3.0	GoodResponse	1	0.288	n/a	7	43	ButtonPress	Win	False
414.575	0.46	Win2	0.6364	0.004	Yes	3.171	-0.004	3.0	GoodResponse	1	0.231	413.806	7	43	Target	Win	False
414.806	0.3	Win2	0.6364	0.004	Yes	3.171	-0.004	3.0	GoodResponse	1	0.231	n/a	7	43	ButtonPress	Win	False
415.043	0.24	Win2	0.6364	n/a	Yes	3.171	n/a	n/a	GoodResponse	1	n/a	n/a	7	43	Blank	Win	False
415.277	1.45	Win2	0.6364	n/a	Yes	3.171	n/a	5.0	GoodResponse	1	0.009	414.286	7	43	Feedback	Win	False
416.731	3.171	Win2	0.6364	n/a	Yes	3.171	n/a	n/a	GoodResponse	1	0.0	n/a	7	43	ISIslide	Win	False
419.924	0.25	Win2	0.6444	0.0	Yes	2.976	0.024	n/a	GoodResponse	1	n/a	n/a	8	44	Cue	Win	True
420.175	4.0	Win2	0.6444	0.0	Yes	2.976	0.001	n/a	GoodResponse	1	n/a	n/a	8	44	Fixation	Win	True
424.17	0.47	Win2	0.6444	0.004	Yes	2.976	-0.004	3.0	GoodResponse	1	0.241	423.411	8	44	Target	Win	True
424.411	0.3	Win2	0.6444	0.004	Yes	2.976	-0.004	3.0	GoodResponse	1	0.241	n/a	8	44	ButtonPress	Win	True
424.655	0.23	Win2	0.6444	n/a	Yes	2.976	n/a	n/a	GoodResponse	1	n/a	n/a	8	44	Blank	Win	True
424.872	1.45	Win2	0.6444	n/a	Yes	2.976	n/a	5.0	GoodResponse	1	0.024	423.896	8	44	Feedback	Win	True
426.327	2.976	Win2	0.6444	n/a	Yes	2.976	n/a	n/a	GoodResponse	1	0.0	n/a	8	44	ISIslide	Win	True
429.319	0.25	Control	0.6522	0.0	Yes	2.881	0.019	n/a	GoodResponse	0	n/a	n/a	8	45	Cue	Neutral	True
429.57	4.1	Control	0.6522	0.0	Yes	2.881	0.001	n/a	GoodResponse	0	n/a	n/a	8	45	Fixation	Neutral	True
433.665	0.48	Control	0.6522	0.004	Yes	2.881	-0.004	3.0	GoodResponse	0	0.216	432.881	8	45	Target	Neutral	True
433.881	0.3	Control	0.6522	0.004	Yes	2.881	-0.004	3.0	GoodResponse	0	0.216	n/a	8	45	ButtonPress	Neutral	True
434.15	0.22	Control	0.6522	n/a	Yes	2.881	n/a	n/a	GoodResponse	0	n/a	n/a	8	45	Blank	Neutral	True
434.367	1.45	Control	0.6522	n/a	Yes	2.881	n/a	5.0	GoodResponse	0	0.041	433.408	8	45	Feedback	Neutral	True
435.822	2.881	Control	0.6522	n/a	Yes	2.881	n/a	n/a	GoodResponse	0	0.0	n/a	8	45	ISIslide	Neutral	True
438.731	0.25	Lose2	0.6596	0.0	Yes	3.369	0.031	n/a	GoodResponse	0	n/a	n/a	8	46	Cue	AvoidedLoss	True
438.981	4.0	Lose2	0.6596	0.0	Yes	3.369	0.0	n/a	GoodResponse	0	n/a	n/a	8	46	Fixation	AvoidedLoss	True
442.977	0.49	Lose2	0.6596	0.004	Yes	3.369	-0.004	3.0	GoodResponse	0	0.239	442.216	8	46	Target	AvoidedLoss	True
443.216	0.3	Lose2	0.6596	0.004	Yes	3.369	-0.004	3.0	GoodResponse	0	0.239	n/a	8	46	ButtonPress	AvoidedLoss	True
443.478	0.21	Lose2	0.6596	n/a	Yes	3.369	n/a	n/a	GoodResponse	0	n/a	n/a	8	46	Blank	AvoidedLoss	True
443.679	1.45	Lose2	0.6596	n/a	Yes	3.369	n/a	5.0	GoodResponse	0	0.046	442.725	8	46	Feedback	AvoidedLoss	True
445.133	3.369	Lose2	0.6596	n/a	Yes	3.369	n/a	n/a	GoodResponse	0	0.0	n/a	8	46	ISIslide	AvoidedLoss	True
448.526	0.25	Lose2	0.6667000000000001	0.001	Yes	2.674	0.026	n/a	GoodResponse	0	n/a	n/a	8	47	Cue	AvoidedLoss	True
448.777	4.0	Lose2	0.6667000000000001	0.0	Yes	2.674	0.001	n/a	GoodResponse	0	n/a	n/a	8	47	Fixation	AvoidedLoss	True
452.772	0.49	Lose2	0.6667000000000001	0.004	Yes	2.674	-0.004	3.0	GoodResponse	0	0.279	452.051	8	47	Target	AvoidedLoss	True
453.051	0.3	Lose2	0.6667000000000001	0.004	Yes	2.674	-0.004	3.0	GoodResponse	0	0.279	n/a	8	47	ButtonPress	AvoidedLoss	True
453.274	0.21	Lose2	0.6667000000000001	n/a	Yes	2.674	n/a	n/a	GoodResponse	0	n/a	n/a	8	47	Blank	AvoidedLoss	True
453.475	1.45	Lose2	0.6667000000000001	n/a	Yes	2.674	n/a	5.0	GoodResponse	0	0.006	452.481	8	47	Feedback	AvoidedLoss	True
454.929	2.674	Lose2	0.6667000000000001	n/a	Yes	2.674	n/a	n/a	GoodResponse	0	0.0	n/a	8	47	ISIslide	AvoidedLoss	True
457.62	0.25	Lose2	0.6735	0.0	Yes	3.03	0.02	n/a	GoodResponse	0	n/a	n/a	8	48	Cue	AvoidedLoss	True
457.871	3.95	Lose2	0.6735	0.0	Yes	3.03	0.001	n/a	GoodResponse	0	n/a	n/a	8	48	Fixation	AvoidedLoss	True
461.816	0.48	Lose2	0.6735	0.004	Yes	3.03	-0.004	3.0	GoodResponse	0	0.263	461.079	8	48	Target	AvoidedLoss	True
462.079	0.3	Lose2	0.6735	0.004	Yes	3.03	-0.004	3.0	GoodResponse	0	0.263	n/a	8	48	ButtonPress	AvoidedLoss	True
462.301	0.22	Lose2	0.6735	n/a	Yes	3.03	n/a	n/a	GoodResponse	0	n/a	n/a	8	48	Blank	AvoidedLoss	True
462.518	1.45	Lose2	0.6735	n/a	Yes	3.03	n/a	5.0	GoodResponse	0	0.036	461.554	8	48	Feedback	AvoidedLoss	True
463.973	3.03	Lose2	0.6735	n/a	Yes	3.03	n/a	3.0	GoodResponse	0	1.042	n/a	8	48	ISIslide	AvoidedLoss	True
466.998	0.25	Control	0.68	0.0	Yes	2.902	-0.002	n/a	GoodResponse	0	n/a	n/a	8	49	Cue	Neutral	True
467.249	4.0	Control	0.68	0.0	Yes	2.902	0.001	n/a	GoodResponse	0	n/a	n/a	8	49	Fixation	Neutral	True
471.244	0.47	Control	0.68	0.004	Yes	2.902	-0.004	3.0	GoodResponse	0	0.327	470.571	8	49	Target	Neutral	True
471.571	0.3	Control	0.68	0.004	Yes	2.902	-0.004	3.0	GoodResponse	0	0.327	n/a	8	49	ButtonPress	Neutral	True
471.729	0.23	Control	0.68	n/a	Yes	2.902	n/a	n/a	GoodResponse	0	n/a	n/a	8	49	Blank	Neutral	True
471.946	1.45	Control	0.68	n/a	Yes	2.902	n/a	5.0	GoodResponse	0	0.023	470.969	8	49	Feedback	Neutral	True
473.401	2.902	Control	0.68	n/a	Yes	2.902	n/a	n/a	GoodResponse	0	0.0	n/a	8	49	ISIslide	Neutral	True
476.326	0.25	Control	0.6862999999999999	0.0	Yes	2.774	0.026	n/a	GoodResponse	0	n/a	n/a	8	50	Cue	Neutral	True
476.577	4.0	Control	0.6862999999999999	0.0	Yes	2.774	0.001	n/a	GoodResponse	0	n/a	n/a	8	50	Fixation	Neutral	True
480.572	0.46	Control	0.6862999999999999	0.004	Yes	2.774	-0.004	3.0	GoodResponse	0	0.206	479.778	8	50	Target	Neutral	True
480.778	0.3	Control	0.6862999999999999	0.004	Yes	2.774	-0.004	3.0	GoodResponse	0	0.206	n/a	8	50	ButtonPress	Neutral	True
481.04	0.24	Control	0.6862999999999999	n/a	Yes	2.774	n/a	n/a	GoodResponse	0	n/a	n/a	8	50	Blank	Neutral	True
481.274	1.45	Control	0.6862999999999999	n/a	Yes	2.774	n/a	5.0	GoodResponse	0	0.012	480.286	8	50	Feedback	Neutral	True
482.729	2.774	Control	0.6862999999999999	n/a	Yes	2.774	n/a	n/a	GoodResponse	0	0.0	n/a	8	50	ISIslide	Neutral	True
485.52	0.25	Control	0.6923	0.0	Yes	2.73	0.02	n/a	GoodResponse	0	n/a	n/a	8	51	Cue	Neutral	True
485.771	3.95	Control	0.6923	0.0	Yes	2.73	0.001	n/a	GoodResponse	0	n/a	n/a	8	51	Fixation	Neutral	True
489.716	0.45	Control	0.6923	0.004	Yes	2.73	-0.004	3.0	GoodResponse	0	0.25	488.966	8	51	Target	Neutral	True
489.966	0.3	Control	0.6923	0.004	Yes	2.73	-0.004	3.0	GoodResponse	0	0.25	n/a	8	51	ButtonPress	Neutral	True
490.167	0.25	Control	0.6923	n/a	Yes	2.73	n/a	n/a	GoodResponse	0	n/a	n/a	8	51	Blank	Neutral	True
490.418	1.45	Control	0.6923	n/a	Yes	2.73	n/a	5.0	GoodResponse	0	0.038	489.456	8	51	Feedback	Neutral	True
491.873	2.73	Control	0.6923	n/a	Yes	2.73	n/a	n/a	GoodResponse	0	0.0	n/a	8	51	ISIslide	Neutral	True
494.631	0.25	Control	0.6981	0.0	Yes	2.619	0.031	n/a	GoodResponse	0	n/a	n/a	8	52	Cue	Neutral	True
494.882	4.05	Control	0.6981	0.0	Yes	2.619	0.001	n/a	GoodResponse	0	n/a	n/a	8	52	Fixation	Neutral	True
498.927	0.44	Control	0.6981	0.004	Yes	2.619	-0.004	3.0	GoodResponse	0	0.312	498.239	8	52	Target	Neutral	True
499.239	0.3	Control	0.6981	0.004	Yes	2.619	-0.004	3.0	GoodResponse	0	0.312	n/a	8	52	ButtonPress	Neutral	True
499.378	0.26	Control	0.6981	n/a	Yes	2.619	n/a	n/a	GoodResponse	0	n/a	n/a	8	52	Blank	Neutral	True
499.629	1.45	Control	0.6981	n/a	Yes	2.619	n/a	5.0	GoodResponse	0	0.046	498.675	8	52	Feedback	Neutral	True
501.083	2.619	Control	0.6981	n/a	Yes	2.619	n/a	n/a	GoodResponse	0	0.0	n/a	8	52	ISIslide	Neutral	True
503.725	0.25	Win2	0.7037	0.0	Yes	2.925	0.025	n/a	GoodResponse	1	n/a	n/a	9	53	Cue	Win	True
503.975	4.05	Win2	0.7037	0.0	Yes	2.925	0.0	n/a	GoodResponse	1	n/a	n/a	9	53	Fixation	Win	True
508.021	0.43	Win2	0.7037	0.004	Yes	2.925	-0.004	3.0	GoodResponse	1	0.201	507.222	9	53	Target	Win	True
508.222	0.3	Win2	0.7037	0.004	Yes	2.925	-0.004	3.0	GoodResponse	1	0.201	n/a	9	53	ButtonPress	Win	True
508.455	0.27	Win2	0.7037	n/a	Yes	2.925	n/a	n/a	GoodResponse	1	n/a	n/a	9	53	Blank	Win	True
508.723	1.45	Win2	0.7037	n/a	Yes	2.925	n/a	5.0	GoodResponse	1	0.026	507.749	9	53	Feedback	Win	True
510.177	2.925	Win2	0.7037	n/a	Yes	2.925	n/a	n/a	GoodResponse	1	0.0	n/a	9	53	ISIslide	Win	True
513.119	0.25	Win2	0.6909000000000001	0.0	No	2.731	0.019	n/a	NoResponse	0	n/a	n/a	9	54	Cue	MissedWin	True
513.37	3.95	Win2	0.6909000000000001	0.0	No	2.731	0.001	n/a	NoResponse	0	n/a	n/a	9	54	Fixation	MissedWin	True
517.315	0.42	Win2	0.6909000000000001	0.004	No	2.731	-0.004	3.0	NoResponse	0	0.475	516.79	9	54	Target	MissedWin	True
517.75	0.28	Win2	0.6909000000000001	n/a	No	2.731	n/a	n/a	NoResponse	0	n/a	n/a	9	54	Blank	MissedWin	True
517.79	0.3	Win2	0.6909000000000001	0.004	No	2.731	-0.004	3.0	NoResponse	0	0.475	n/a	9	54	ButtonPress	MissedWin	True
518.017	1.45	Win2	0.6909000000000001	n/a	No	2.731	n/a	5.0	NoResponse	0	0.049	517.066	9	54	Feedback	MissedWin	True
519.472	2.731	Win2	0.6909000000000001	n/a	No	2.731	n/a	n/a	NoResponse	0	0.0	n/a	9	54	ISIslide	MissedWin	True
522.23	0.25	Control	0.6786	0.0	No	3.02	0.03	n/a	NoResponse	0	n/a	n/a	9	55	Cue	Neutral	True
522.481	3.95	Control	0.6786	0.0	No	3.02	0.001	n/a	NoResponse	0	n/a	n/a	9	55	Fixation	Neutral	True
526.426	0.41	Control	0.6786	0.004	No	3.02	-0.004	3.0	NoResponse	0	0.697	526.123	9	55	Target	Neutral	True
526.844	0.29	Control	0.6786	n/a	No	3.02	n/a	n/a	NoResponse	0	n/a	n/a	9	55	Blank	Neutral	True
527.123	0.3	Control	0.6786	0.004	No	3.02	-0.004	3.0	NoResponse	0	0.697	n/a	9	55	ButtonPress	Neutral	True
527.128	1.45	Control	0.6786	n/a	No	3.02	n/a	5.0	NoResponse	0	0.01	526.138	9	55	Feedback	Neutral	True
528.582	3.02	Control	0.6786	n/a	No	3.02	n/a	n/a	NoResponse	0	0.0	n/a	9	55	ISIslide	Neutral	True
531.625	0.25	Control	0.6842	0.0	Yes	2.825	0.025	n/a	GoodResponse	0	n/a	n/a	9	56	Cue	Neutral	True
531.875	3.95	Control	0.6842	0.0	Yes	2.825	0.0	n/a	GoodResponse	0	n/a	n/a	9	56	Fixation	Neutral	True
535.82	0.4	Control	0.6842	0.005	Yes	2.825	-0.005	3.0	GoodResponse	0	0.21	535.03	9	56	Target	Neutral	True
536.03	0.3	Control	0.6842	0.005	Yes	2.825	-0.005	3.0	GoodResponse	0	0.21	n/a	9	56	ButtonPress	Neutral	True
536.222	0.3	Control	0.6842	n/a	Yes	2.825	n/a	n/a	GoodResponse	0	n/a	n/a	9	56	Blank	Neutral	True
536.523	1.45	Control	0.6842	n/a	Yes	2.825	n/a	5.0	GoodResponse	0	0.03	535.553	9	56	Feedback	Neutral	True
537.977	2.825	Control	0.6842	n/a	Yes	2.825	n/a	n/a	GoodResponse	0	0.0	n/a	9	56	ISIslide	Neutral	True
540.819	0.25	Control	0.6724	0.0	No	3.481	0.019	n/a	NoResponse	0	n/a	n/a	9	57	Cue	Neutral	True
541.069	4.0	Control	0.6724	0.001	No	3.481	0.0	n/a	NoResponse	0	n/a	n/a	9	57	Fixation	Neutral	True
545.065	0.39	Control	0.6724	0.004	No	3.481	-0.004	3.0	NoResponse	0	0.409	544.474	9	57	Target	Neutral	True
545.466	0.31	Control	0.6724	n/a	No	3.481	n/a	n/a	NoResponse	0	n/a	n/a	9	57	Blank	Neutral	True
545.474	0.3	Control	0.6724	0.004	No	3.481	-0.004	3.0	NoResponse	0	0.409	n/a	9	57	ButtonPress	Neutral	True
545.767	1.45	Control	0.6724	n/a	No	3.481	n/a	5.0	NoResponse	0	0.007	544.774	9	57	Feedback	Neutral	True
547.221	3.481	Control	0.6724	n/a	No	3.481	n/a	n/a	NoResponse	0	0.0	n/a	9	57	ISIslide	Neutral	True
550.715	0.25	Win2	0.6779999999999999	0.0	Yes	2.735	0.015	n/a	GoodResponse	1	n/a	n/a	10	58	Cue	Win	False
550.966	4.05	Win2	0.6779999999999999	0.0	Yes	2.735	0.001	3.0	GoodResponse	1	0.269	550.235	10	58	Fixation	Win	False
551.235	0.3	Win2	0.6779999999999999	0.0	Yes	2.735	0.001	3.0	GoodResponse	1	0.269	n/a	10	58	ButtonPress	Win	False
555.011	0.38	Win2	0.6779999999999999	0.004	Yes	2.735	-0.004	3.0	GoodResponse	1	0.231	554.242	10	58	Target	Win	False
555.242	0.3	Win2	0.6779999999999999	0.004	Yes	2.735	-0.004	3.0	GoodResponse	1	0.231	n/a	10	58	ButtonPress	Win	False
555.396	0.32	Win2	0.6779999999999999	n/a	Yes	2.735	n/a	n/a	GoodResponse	1	n/a	n/a	10	58	Blank	Win	False
555.713	1.45	Win2	0.6779999999999999	n/a	Yes	2.735	n/a	5.0	GoodResponse	1	0.011	554.724	10	58	Feedback	Win	False
557.168	2.735	Win2	0.6779999999999999	n/a	Yes	2.735	n/a	n/a	GoodResponse	1	0.0	n/a	10	58	ISIslide	Win	False
559.926	0.25	Lose2	0.6833	0.0	Yes	2.674	0.026	n/a	GoodResponse	0	n/a	n/a	10	59	Cue	AvoidedLoss	True
560.177	4.0	Lose2	0.6833	0.0	Yes	2.674	0.001	n/a	GoodResponse	0	n/a	n/a	10	59	Fixation	AvoidedLoss	True
564.172	0.37	Lose2	0.6833	0.004	Yes	2.674	-0.004	3.0	GoodResponse	0	0.204	563.376	10	59	Target	AvoidedLoss	True
564.376	0.3	Lose2	0.6833	0.004	Yes	2.674	-0.004	3.0	GoodResponse	0	0.204	n/a	10	59	ButtonPress	AvoidedLoss	True
564.556	0.33	Lose2	0.6833	n/a	Yes	2.674	n/a	n/a	GoodResponse	0	n/a	n/a	10	59	Blank	AvoidedLoss	True
564.874	1.45	Lose2	0.6833	n/a	Yes	2.674	n/a	5.0	GoodResponse	0	0.019	563.893	10	59	Feedback	AvoidedLoss	True
566.328	2.674	Lose2	0.6833	n/a	Yes	2.674	n/a	n/a	GoodResponse	0	0.0	n/a	10	59	ISIslide	AvoidedLoss	True
569.02	0.25	Control	0.6720999999999999	0.0	No	2.68	0.02	n/a	NoResponse	0	n/a	n/a	10	60	Cue	Neutral	False
569.27	4.0	Control	0.6720999999999999	0.0	No	2.68	0.0	n/a	NoResponse	0	n/a	n/a	10	60	Fixation	Neutral	False
573.266	0.36	Control	0.6720999999999999	0.004	No	2.68	-0.004	n/a	NoResponse	0	n/a	n/a	10	60	Target	Neutral	False
573.633	0.34	Control	0.6720999999999999	n/a	No	2.68	n/a	n/a	NoResponse	0	n/a	n/a	10	60	Blank	Neutral	False
573.968	1.45	Control	0.6720999999999999	n/a	No	2.68	n/a	5.0	NoResponse	0	0.048	573.016	10	60	Feedback	Neutral	False
575.422	2.68	Control	0.6720999999999999	n/a	No	2.68	n/a	n/a	NoResponse	0	0.0	n/a	10	60	ISIslide	Neutral	False
578.13	0.25	Lose2	0.6613	0.0	No	2.97	0.03	n/a	NoResponse	-1	n/a	n/a	9	61	Cue	Loss	True
578.381	4.0	Lose2	0.6613	0.0	No	2.97	0.001	n/a	NoResponse	-1	n/a	n/a	9	61	Fixation	Loss	True
582.376	0.35	Lose2	0.6613	0.004	No	2.97	-0.004	3.0	NoResponse	-1	0.405	581.781	9	61	Target	Loss	True
582.727	0.35	Lose2	0.6613	n/a	No	2.97	n/a	n/a	NoResponse	-1	n/a	n/a	9	61	Blank	Loss	True
582.781	0.3	Lose2	0.6613	0.004	No	2.97	-0.004	3.0	NoResponse	-1	0.405	n/a	9	61	ButtonPress	Loss	True
583.078	1.45	Lose2	0.6613	n/a	No	2.97	n/a	5.0	NoResponse	-1	0.011	582.089	9	61	Feedback	Loss	True
584.533	2.97	Lose2	0.6613	n/a	No	2.97	n/a	n/a	NoResponse	-1	0.0	n/a	9	61	ISIslide	Loss	True
587.525	0.25	Lose2	0.6667000000000001	0.0	Yes	2.875	0.025	n/a	GoodResponse	0	n/a	n/a	9	62	Cue	AvoidedLoss	True
587.776	3.9	Lose2	0.6667000000000001	0.0	Yes	2.875	0.001	n/a	GoodResponse	0	n/a	n/a	9	62	Fixation	AvoidedLoss	True
591.671	0.35	Lose2	0.6667000000000001	0.004	Yes	2.875	-0.004	3.0	GoodResponse	0	0.236	590.907	9	62	Target	AvoidedLoss	True
591.907	0.3	Lose2	0.6667000000000001	0.004	Yes	2.875	-0.004	3.0	GoodResponse	0	0.236	n/a	9	62	ButtonPress	AvoidedLoss	True
592.022	0.35	Lose2	0.6667000000000001	n/a	Yes	2.875	n/a	n/a	GoodResponse	0	n/a	n/a	9	62	Blank	AvoidedLoss	True
592.373	1.45	Lose2	0.6667000000000001	n/a	Yes	2.875	n/a	5.0	GoodResponse	0	0.033	591.406	9	62	Feedback	AvoidedLoss	True
593.827	2.875	Lose2	0.6667000000000001	n/a	Yes	2.875	n/a	n/a	GoodResponse	0	0.0	n/a	9	62	ISIslide	AvoidedLoss	True
596.719	0.25	Lose2	0.6718999999999999	0.0	Yes	2.631	0.019	n/a	GoodResponse	0	n/a	n/a	9	63	Cue	AvoidedLoss	False
596.97	4.05	Lose2	0.6718999999999999	0.0	Yes	2.631	0.001	3.0	GoodResponse	0	0.193	596.163	9	63	Fixation	AvoidedLoss	False
597.163	0.3	Lose2	0.6718999999999999	0.0	Yes	2.631	0.001	3.0	GoodResponse	0	0.193	n/a	9	63	ButtonPress	AvoidedLoss	False
601.015	0.34	Lose2	0.6718999999999999	0.004	Yes	2.631	-0.004	3.0	GoodResponse	0	0.215	600.23	9	63	Target	AvoidedLoss	False
601.23	0.3	Lose2	0.6718999999999999	0.004	Yes	2.631	-0.004	3.0	GoodResponse	0	0.215	n/a	9	63	ButtonPress	AvoidedLoss	False
601.366	0.36	Lose2	0.6718999999999999	n/a	Yes	2.631	n/a	n/a	GoodResponse	0	n/a	n/a	9	63	Blank	AvoidedLoss	False
601.717	1.45	Lose2	0.6718999999999999	n/a	Yes	2.631	n/a	5.0	GoodResponse	0	0.007	600.724	9	63	Feedback	AvoidedLoss	False
603.172	2.631	Lose2	0.6718999999999999	n/a	Yes	2.631	n/a	n/a	GoodResponse	0	0.0	n/a	9	63	ISIslide	AvoidedLoss	False
605.83	0.25	Win2	0.6769	0.0	Yes	3.12	0.03	n/a	GoodResponse	1	n/a	n/a	10	64	Cue	Win	False
606.08	4.15	Win2	0.6769	0.0	Yes	3.12	0.0	3.0	GoodResponse	1	0.124	605.204	10	64	Fixation	Win	False
606.204	0.3	Win2	0.6769	0.0	Yes	3.12	0.0	3.0	GoodResponse	1	0.124	n/a	10	64	ButtonPress	Win	False
610.226	0.33	Win2	0.6769	0.004	Yes	3.12	-0.004	3.0	GoodResponse	1	0.288	609.514	10	64	Target	Win	False
610.514	0.3	Win2	0.6769	0.004	Yes	3.12	-0.004	3.0	GoodResponse	1	0.288	n/a	10	64	ButtonPress	Win	False
610.56	0.37	Win2	0.6769	n/a	Yes	3.12	n/a	n/a	GoodResponse	1	n/a	n/a	10	64	Blank	Win	False
610.928	1.45	Win2	0.6769	n/a	Yes	3.12	n/a	5.0	GoodResponse	1	0.014	609.942	10	64	Feedback	Win	False
612.382	3.12	Win2	0.6769	n/a	Yes	3.12	n/a	n/a	GoodResponse	1	0.0	n/a	10	64	ISIslide	Win	False
615.525	0.25	Control	0.6818000000000001	0.0	Yes	2.775	0.025	n/a	GoodResponse	0	n/a	n/a	10	65	Cue	Neutral	True
615.776	4.0	Control	0.6818000000000001	0.0	Yes	2.775	0.001	n/a	GoodResponse	0	n/a	n/a	10	65	Fixation	Neutral	True
619.771	0.32	Control	0.6818000000000001	0.004	Yes	2.775	-0.004	3.0	GoodResponse	0	0.29	619.061	10	65	Target	Neutral	True
620.061	0.3	Control	0.6818000000000001	0.004	Yes	2.775	-0.004	3.0	GoodResponse	0	0.29	n/a	10	65	ButtonPress	Neutral	True
620.106	0.38	Control	0.6818000000000001	n/a	Yes	2.775	n/a	n/a	GoodResponse	0	n/a	n/a	10	65	Blank	Neutral	True
620.473	1.45	Control	0.6818000000000001	n/a	Yes	2.775	n/a	5.0	GoodResponse	0	0.03	619.503	10	65	Feedback	Neutral	True
621.928	2.775	Control	0.6818000000000001	n/a	Yes	2.775	n/a	n/a	GoodResponse	0	0.0	n/a	10	65	ISIslide	Neutral	True
624.719	0.25	Win2	0.6866	0.0	Yes	2.781	0.019	n/a	GoodResponse	1	n/a	n/a	11	66	Cue	Win	True
624.97	3.9	Win2	0.6866	0.0	Yes	2.781	0.001	n/a	GoodResponse	1	n/a	n/a	11	66	Fixation	Win	True
628.865	0.31	Win2	0.6866	0.004	Yes	2.781	-0.004	3.0	GoodResponse	1	0.275	628.14	11	66	Target	Win	True
629.14	0.3	Win2	0.6866	0.004	Yes	2.781	-0.004	3.0	GoodResponse	1	0.275	n/a	11	66	ButtonPress	Win	True
629.183	0.39	Win2	0.6866	n/a	Yes	2.781	n/a	n/a	GoodResponse	1	n/a	n/a	11	66	Blank	Win	True
629.567	1.45	Win2	0.6866	n/a	Yes	2.781	n/a	5.0	GoodResponse	1	0.009	628.576	11	66	Feedback	Win	True
631.021	2.781	Win2	0.6866	n/a	Yes	2.781	n/a	n/a	GoodResponse	1	0.0	n/a	11	66	ISIslide	Win	True
633.83	0.25	Control	0.6912	0.0	Yes	2.72	0.03	n/a	GoodResponse	0	n/a	n/a	11	67	Cue	Neutral	True
634.081	3.95	Control	0.6912	0.0	Yes	2.72	0.001	n/a	GoodResponse	0	n/a	n/a	11	67	Fixation	Neutral	True
638.026	0.3	Control	0.6912	0.004	Yes	2.72	-0.004	3.0	GoodResponse	0	0.299	637.325	11	67	Target	Neutral	True
638.325	0.3	Control	0.6912	0.004	Yes	2.72	-0.004	3.0	GoodResponse	0	0.299	n/a	11	67	ButtonPress	Neutral	True
638.327	0.4	Control	0.6912	n/a	Yes	2.72	n/a	n/a	GoodResponse	0	n/a	n/a	11	67	Blank	Neutral	True
638.728	1.45	Control	0.6912	n/a	Yes	2.72	n/a	5.0	GoodResponse	0	0.018	637.746	11	67	Feedback	Neutral	True
640.182	2.72	Control	0.6912	n/a	Yes	2.72	n/a	n/a	GoodResponse	0	0.0	n/a	11	67	ISIslide	Neutral	True
642.924	0.25	Win2	0.6957	0.0	Yes	3.076	0.024	n/a	GoodResponse	1	n/a	n/a	12	68	Cue	Win	True
643.174	4.0	Win2	0.6957	0.0	Yes	3.076	0.0	n/a	GoodResponse	1	n/a	n/a	12	68	Fixation	Win	True
647.17	0.29	Win2	0.6957	0.004	Yes	3.076	-0.004	3.0	GoodResponse	1	0.216	646.386	12	68	Target	Win	True
647.386	0.3	Win2	0.6957	0.004	Yes	3.076	-0.004	3.0	GoodResponse	1	0.216	n/a	12	68	ButtonPress	Win	True
647.471	0.41	Win2	0.6957	n/a	Yes	3.076	n/a	n/a	GoodResponse	1	n/a	n/a	12	68	Blank	Win	True
647.872	1.45	Win2	0.6957	n/a	Yes	3.076	n/a	5.0	GoodResponse	1	0.045	646.917	12	68	Feedback	Win	True
649.326	3.076	Win2	0.6957	n/a	Yes	3.076	n/a	n/a	GoodResponse	1	0.0	n/a	12	68	ISIslide	Win	True
652.419	0.25	Win2	0.6857	0.0	No	3.231	0.019	n/a	NoResponse	0	n/a	n/a	12	69	Cue	MissedWin	True
652.669	3.95	Win2	0.6857	0.001	No	3.231	0.0	n/a	NoResponse	0	n/a	n/a	12	69	Fixation	MissedWin	True
656.615	0.28	Win2	0.6857	0.004	No	3.231	-0.004	3.0	NoResponse	0	0.333	655.948	12	69	Target	MissedWin	True
656.899	0.42	Win2	0.6857	n/a	No	3.231	n/a	n/a	NoResponse	0	n/a	n/a	12	69	Blank	MissedWin	True
656.948	0.3	Win2	0.6857	0.004	No	3.231	-0.004	3.0	NoResponse	0	0.333	n/a	12	69	ButtonPress	MissedWin	True
657.317	1.45	Win2	0.6857	n/a	No	3.231	n/a	5.0	NoResponse	0	0.015	656.332	12	69	Feedback	MissedWin	True
658.771	3.231	Win2	0.6857	n/a	No	3.231	n/a	n/a	NoResponse	0	0.0	n/a	12	69	ISIslide	MissedWin	True
662.031	0.25	Lose2	0.6901	0.0	Yes	3.019	0.031	n/a	GoodResponse	0	n/a	n/a	12	70	Cue	AvoidedLoss	False
662.281	4.05	Lose2	0.6901	0.001	Yes	3.019	0.0	3.0	GoodResponse	0	2.96	664.241	12	70	Fixation	AvoidedLoss	False
665.241	0.3	Lose2	0.6901	0.001	Yes	3.019	0.0	3.0	GoodResponse	0	2.96	n/a	12	70	ButtonPress	AvoidedLoss	False
666.327	0.27	Lose2	0.6901	0.004	Yes	3.019	-0.004	3.0	GoodResponse	0	0.233	665.56	12	70	Target	AvoidedLoss	False
666.56	0.3	Lose2	0.6901	0.004	Yes	3.019	-0.004	3.0	GoodResponse	0	0.233	n/a	12	70	ButtonPress	AvoidedLoss	False
666.611	0.43	Lose2	0.6901	n/a	Yes	3.019	n/a	n/a	GoodResponse	0	n/a	n/a	12	70	Blank	AvoidedLoss	False
667.029	1.45	Lose2	0.6901	n/a	Yes	3.019	n/a	5.0	GoodResponse	0	0.01	666.039	12	70	Feedback	AvoidedLoss	False
668.483	3.019	Lose2	0.6901	n/a	Yes	3.019	n/a	n/a	GoodResponse	0	0.0	n/a	12	70	ISIslide	AvoidedLoss	False
671.526	0.25	Win2	0.6944	0.0	Yes	2.724	0.026	n/a	GoodResponse	1	n/a	n/a	13	71	Cue	Win	False
671.776	4.05	Win2	0.6944	0.001	Yes	2.724	0.0	3.0	GoodResponse	1	2.811	673.587	13	71	Fixation	Win	False
674.587	0.3	Win2	0.6944	0.001	Yes	2.724	0.0	3.0	GoodResponse	1	2.811	n/a	13	71	ButtonPress	Win	False
675.822	0.26	Win2	0.6944	0.004	Yes	2.724	-0.004	3.0	GoodResponse	1	0.219	675.041	13	71	Target	Win	False
676.041	0.3	Win2	0.6944	0.004	Yes	2.724	-0.004	3.0	GoodResponse	1	0.219	n/a	13	71	ButtonPress	Win	False
676.089	0.44	Win2	0.6944	n/a	Yes	2.724	n/a	n/a	GoodResponse	1	n/a	n/a	13	71	Blank	Win	False
676.524	1.45	Win2	0.6944	n/a	Yes	2.724	n/a	5.0	GoodResponse	1	0.026	675.55	13	71	Feedback	Win	False
677.978	2.724	Win2	0.6944	n/a	Yes	2.724	n/a	n/a	GoodResponse	1	0.0	n/a	13	71	ISIslide	Win	False
680.72	0.25	Win2	0.6986	0.0	Yes	2.78	0.02	n/a	GoodResponse	1	n/a	n/a	14	72	Cue	Win	False
680.971	4.1	Win2	0.6986	0.0	Yes	2.78	0.001	3.0	GoodResponse	1	0.217	680.188	14	72	Fixation	Win	False
681.188	0.3	Win2	0.6986	0.0	Yes	2.78	0.001	3.0	GoodResponse	1	0.217	n/a	14	72	ButtonPress	Win	False
685.066	0.25	Win2	0.6986	0.004	Yes	2.78	-0.004	3.0	GoodResponse	1	0.24	684.306	14	72	Target	Win	False
685.306	0.3	Win2	0.6986	0.004	Yes	2.78	-0.004	3.0	GoodResponse	1	0.24	n/a	14	72	ButtonPress	Win	False
685.317	0.45	Win2	0.6986	n/a	Yes	2.78	n/a	n/a	GoodResponse	1	n/a	n/a	14	72	Blank	Win	False
685.768	1.45	Win2	0.6986	n/a	Yes	2.78	n/a	5.0	GoodResponse	1	0.006	684.774	14	72	Feedback	Win	False
687.223	2.78	Win2	0.6986	n/a	Yes	2.78	n/a	n/a	GoodResponse	1	0.0	n/a	14	72	ISIslide	Win	False
690.031	0.25	Win2	0.7027	0.0	Yes	2.669	0.031	n/a	GoodResponse	1	n/a	n/a	15	73	Cue	Win	True
690.282	4.0	Win2	0.7027	0.0	Yes	2.669	0.001	n/a	GoodResponse	1	n/a	n/a	15	73	Fixation	Win	True
694.277	0.24	Win2	0.7027	0.004	Yes	2.669	-0.004	3.0	GoodResponse	1	0.231	693.508	15	73	Target	Win	True
694.508	0.3	Win2	0.7027	0.004	Yes	2.669	-0.004	3.0	GoodResponse	1	0.231	n/a	15	73	ButtonPress	Win	True
694.528	0.46	Win2	0.7027	n/a	Yes	2.669	n/a	n/a	GoodResponse	1	n/a	n/a	15	73	Blank	Win	True
694.979	1.45	Win2	0.7027	n/a	Yes	2.669	n/a	5.0	GoodResponse	1	0.011	693.99	15	73	Feedback	Win	True
696.433	2.669	Win2	0.7027	n/a	Yes	2.669	n/a	n/a	GoodResponse	1	0.0	n/a	15	73	ISIslide	Win	True
699.125	0.25	Lose2	0.7067	0.0	Yes	2.625	0.025	n/a	GoodResponse	0	n/a	n/a	15	74	Cue	AvoidedLoss	True
699.376	4.05	Lose2	0.7067	0.0	Yes	2.625	0.001	n/a	GoodResponse	0	n/a	n/a	15	74	Fixation	AvoidedLoss	True
703.421	0.23	Lose2	0.7067	0.004	Yes	2.625	-0.004	3.0	GoodResponse	0	0.214	702.635	15	74	Target	AvoidedLoss	True
703.635	0.3	Lose2	0.7067	0.004	Yes	2.625	-0.004	3.0	GoodResponse	0	0.214	n/a	15	74	ButtonPress	AvoidedLoss	True
703.655	0.47	Lose2	0.7067	n/a	Yes	2.625	n/a	n/a	GoodResponse	0	n/a	n/a	15	74	Blank	AvoidedLoss	True
704.123	1.45	Lose2	0.7067	n/a	Yes	2.625	n/a	5.0	GoodResponse	0	0.037	703.16	15	74	Feedback	AvoidedLoss	True
705.577	2.625	Lose2	0.7067	n/a	Yes	2.625	n/a	n/a	GoodResponse	0	0.0	n/a	15	74	ISIslide	AvoidedLoss	True
708.219	0.25	Lose2	0.6973999999999999	0.0	No	2.931	0.019	n/a	LatePress	-1	n/a	n/a	14	75	Cue	Loss	True
708.469	3.95	Lose2	0.6973999999999999	0.0	No	2.931	0.0	n/a	LatePress	-1	n/a	n/a	14	75	Fixation	Loss	True
712.415	0.22	Lose2	0.6973999999999999	0.004	No	2.931	-0.004	3.0	LatePress	-1	0.222	711.637	14	75	Target	Loss	True
712.637	0.3	Lose2	0.6973999999999999	0.004	No	2.931	-0.004	3.0	LatePress	-1	0.222	n/a	14	75	ButtonPress	Loss	True
712.649	0.48	Lose2	0.6973999999999999	n/a	No	2.931	n/a	n/a	LatePress	-1	n/a	n/a	14	75	Blank	Loss	True
713.117	1.45	Lose2	0.6973999999999999	n/a	No	2.931	n/a	5.0	LatePress	-1	0.018	712.135	14	75	Feedback	Loss	True
714.571	2.931	Lose2	0.6973999999999999	n/a	No	2.931	n/a	n/a	LatePress	-1	0.0	n/a	14	75	ISIslide	Loss	True
717.53	0.25	Control	0.6883	0.0	No	3.22	0.03	n/a	NoResponse	0	n/a	n/a	14	76	Cue	Neutral	True
717.781	4.05	Control	0.6883	0.0	No	3.22	0.001	n/a	NoResponse	0	n/a	n/a	14	76	Fixation	Neutral	True
721.826	0.21	Control	0.6883	0.004	No	3.22	-0.004	3.0	NoResponse	0	0.483	721.309	14	76	Target	Neutral	True
722.043	0.49	Control	0.6883	n/a	No	3.22	n/a	n/a	NoResponse	0	n/a	n/a	14	76	Blank	Neutral	True
722.309	0.3	Control	0.6883	0.004	No	3.22	-0.004	3.0	NoResponse	0	0.483	n/a	14	76	ButtonPress	Neutral	True
722.528	1.45	Control	0.6883	n/a	No	3.22	n/a	5.0	NoResponse	0	0.022	721.55	14	76	Feedback	Neutral	True
723.982	3.22	Control	0.6883	n/a	No	3.22	n/a	n/a	NoResponse	0	0.0	n/a	14	76	ISIslide	Neutral	True
727.225	0.25	Lose2	0.6923	0.001	Yes	2.575	0.025	n/a	GoodResponse	0	n/a	n/a	14	77	Cue	AvoidedLoss	True
727.476	3.95	Lose2	0.6923	0.0	Yes	2.575	0.001	n/a	GoodResponse	0	n/a	n/a	14	77	Fixation	AvoidedLoss	True
731.421	0.2	Lose2	0.6923	0.004	Yes	2.575	-0.004	3.0	GoodResponse	0	0.185	730.606	14	77	Target	AvoidedLoss	True
731.606	0.3	Lose2	0.6923	0.004	Yes	2.575	-0.004	3.0	GoodResponse	0	0.185	n/a	14	77	ButtonPress	AvoidedLoss	True
731.622	0.5	Lose2	0.6923	n/a	Yes	2.575	n/a	n/a	GoodResponse	0	n/a	n/a	14	77	Blank	AvoidedLoss	True
732.123	1.45	Lose2	0.6923	n/a	Yes	2.575	n/a	5.0	GoodResponse	0	0.037	731.16	14	77	Feedback	AvoidedLoss	True
733.578	2.575	Lose2	0.6923	n/a	Yes	2.575	n/a	n/a	GoodResponse	0	0.0	n/a	14	77	ISIslide	AvoidedLoss	True
