onset	duration	cue_type	current_mean_accuracy	duration_error	is_hit	isi_adjusted	onset_delay	response	response_type	reward	rt	rt_time	total_reward	trial_number	trial_phase	trial_type	one_press
11.106	0.25	Control	1.0	0.0	Yes	2.944	0.006	n/a	GoodResponse	0	n/a	n/a	0	0	Cue	Neutral	False
11.356	3.85	Control	1.0	0.0	Yes	2.944	0.0	2.0	GoodResponse	0	0.197	10.553	0	0	Fixation	Neutral	False
11.553	0.3	Control	1.0	0.0	Yes	2.944	0.0	2.0	GoodResponse	0	0.197	n/a	0	0	ButtonPress	Neutral	False
15.205	0.4	Control	1.0	0.001	Yes	2.944	-0.001	2.0	GoodResponse	0	0.241	14.446	0	0	Target	Neutral	False
15.446	0.3	Control	1.0	0.001	Yes	2.944	-0.001	2.0	GoodResponse	0	0.241	n/a	0	0	ButtonPress	Neutral	False
15.605	0.3	Control	1.0	n/a	Yes	2.944	n/a	n/a	GoodResponse	0	n/a	n/a	0	0	Blank	Neutral	False
15.905	1.45	Control	1.0	n/a	Yes	2.944	n/a	5.0	GoodResponse	0	0.021	14.926	0	0	Feedback	Neutral	False
17.354	2.944	Control	1.0	n/a	Yes	2.944	n/a	n/a	GoodResponse	0	0.0	n/a	0	0	ISIslide	Neutral	False
20.32	0.25	Lose2	1.0	0.0	Yes	2.78	0.02	2.0	GoodResponse	0	0.238	19.558	0	1	Cue	AvoidedLoss	False
20.558	0.3	Lose2	1.0	0.0	Yes	2.78	0.02	2.0	GoodResponse	0	0.238	n/a	0	1	ButtonPress	AvoidedLoss	False
20.57	4.0	Lose2	1.0	0.0	Yes	2.78	0.0	n/a	GoodResponse	0	n/a	n/a	0	1	Fixation	AvoidedLoss	False
24.568	0.39	Lose2	1.0	0.002	Yes	2.78	-0.002	2.0	GoodResponse	0	0.249	23.817	0	1	Target	AvoidedLoss	False
24.817	0.3	Lose2	1.0	0.002	Yes	2.78	-0.002	2.0	GoodResponse	0	0.249	n/a	0	1	ButtonPress	AvoidedLoss	False
24.968	0.31	Lose2	1.0	n/a	Yes	2.78	n/a	n/a	GoodResponse	0	n/a	n/a	0	1	Blank	AvoidedLoss	False
25.268	1.45	Lose2	1.0	n/a	Yes	2.78	n/a	5.0	GoodResponse	0	0.023	24.291	0	1	Feedback	AvoidedLoss	False
26.717	2.78	Lose2	1.0	n/a	Yes	2.78	n/a	n/a	GoodResponse	0	0.0	n/a	0	1	ISIslide	AvoidedLoss	False
29.517	0.25	Control	1.0	0.0	Yes	2.583	0.017	n/a	GoodResponse	0	n/a	n/a	0	2	Cue	Neutral	False
29.766	4.1	Control	1.0	0.001	Yes	2.583	-0.001	2.0	GoodResponse	0	0.014	28.78	0	2	Fixation	Neutral	False
29.78	0.3	Control	1.0	0.001	Yes	2.583	-0.001	2.0	GoodResponse	0	0.014	n/a	0	2	ButtonPress	Neutral	False
33.865	0.38	Control	1.0	0.002	Yes	2.583	-0.002	2.0	GoodResponse	0	0.271	33.136	0	2	Target	Neutral	False
34.136	0.3	Control	1.0	0.002	Yes	2.583	-0.002	2.0	GoodResponse	0	0.271	n/a	0	2	ButtonPress	Neutral	False
34.248	0.32	Control	1.0	n/a	Yes	2.583	n/a	n/a	GoodResponse	0	n/a	n/a	0	2	Blank	Neutral	False
34.565	1.45	Control	1.0	n/a	Yes	2.583	n/a	5.0	GoodResponse	0	0.043	33.608	0	2	Feedback	Neutral	False
36.014	2.583	Control	1.0	n/a	Yes	2.583	n/a	n/a	GoodResponse	0	0.0	n/a	0	2	ISIslide	Neutral	False
38.613	0.25	Win2	1.0	0.001	Yes	2.837	0.013	2.0	GoodResponse	1	0.205	37.818	1	3	Cue	Win	False
38.818	0.3	Win2	1.0	0.001	Yes	2.837	0.013	2.0	GoodResponse	1	0.205	n/a	1	3	ButtonPress	Win	False
38.863	3.95	Win2	1.0	0.0	Yes	2.837	0.0	n/a	GoodResponse	1	n/a	n/a	1	3	Fixation	Win	False
42.812	0.37	Win2	1.0	0.001	Yes	2.837	-0.001	2.0	GoodResponse	1	0.196	42.008	1	3	Target	Win	False
43.008	0.3	Win2	1.0	0.001	Yes	2.837	-0.001	2.0	GoodResponse	1	0.196	n/a	1	3	ButtonPress	Win	False
43.178	0.33	Win2	1.0	n/a	Yes	2.837	n/a	n/a	GoodResponse	1	n/a	n/a	1	3	Blank	Win	False
43.512	1.45	Win2	1.0	n/a	Yes	2.837	n/a	5.0	GoodResponse	1	0.023	42.535	1	3	Feedback	Win	False
44.961	2.837	Win2	1.0	n/a	Yes	2.837	n/a	n/a	GoodResponse	1	0.0	n/a	1	3	ISIslide	Win	False
47.827	0.25	Win2	0.8	0.0	No	3.273	0.027	2.0	NoResponse	0	0.225	47.052	1	4	Cue	MissedWin	False
48.052	0.3	Win2	0.8	0.0	No	3.273	0.027	2.0	NoResponse	0	0.225	n/a	1	4	ButtonPress	MissedWin	False
48.077	4.0	Win2	0.8	0.0	No	3.273	0.0	2.0	NoResponse	0	3.904	50.981	1	4	Fixation	MissedWin	False
51.981	0.3	Win2	0.8	0.0	No	3.273	0.0	2.0	NoResponse	0	3.904	n/a	1	4	ButtonPress	MissedWin	False
52.075	0.36	Win2	0.8	0.002	No	3.273	-0.002	n/a	NoResponse	0	n/a	n/a	1	4	Target	MissedWin	False
52.442	0.34	Win2	0.8	n/a	No	3.273	n/a	n/a	NoResponse	0	n/a	n/a	1	4	Blank	MissedWin	False
52.775	1.45	Win2	0.8	n/a	No	3.273	n/a	5.0	NoResponse	0	0.029	51.804	1	4	Feedback	MissedWin	False
54.225	3.273	Win2	0.8	n/a	No	3.273	n/a	n/a	NoResponse	0	0.0	n/a	1	4	ISIslide	MissedWin	False
57.524	0.25	Win2	0.8332999999999999	0.0	Yes	2.776	0.024	2.0	GoodResponse	1	0.13	56.654	2	5	Cue	Win	False
57.654	0.3	Win2	0.8332999999999999	0.0	Yes	2.776	0.024	2.0	GoodResponse	1	0.13	n/a	2	5	ButtonPress	Win	False
57.773	4.0	Win2	0.8332999999999999	0.001	Yes	2.776	-0.001	n/a	GoodResponse	1	n/a	n/a	2	5	Fixation	Win	False
61.772	0.35	Win2	0.8332999999999999	0.002	Yes	2.776	-0.002	2.0	GoodResponse	1	0.236	61.008	2	5	Target	Win	False
62.008	0.3	Win2	0.8332999999999999	0.002	Yes	2.776	-0.002	2.0	GoodResponse	1	0.236	n/a	2	5	ButtonPress	Win	False
62.122	0.35	Win2	0.8332999999999999	n/a	Yes	2.776	n/a	n/a	GoodResponse	1	n/a	n/a	2	5	Blank	Win	False
62.472	1.45	Win2	0.8332999999999999	n/a	Yes	2.776	n/a	5.0	GoodResponse	1	0.039	61.511	2	5	Feedback	Win	False
63.921	2.776	Win2	0.8332999999999999	n/a	Yes	2.776	n/a	n/a	GoodResponse	1	0.0	n/a	2	5	ISIslide	Win	False
66.72	0.25	Lose2	0.8571	0.0	Yes	2.73	0.02	2.0	GoodResponse	0	0.235	65.955	2	6	Cue	AvoidedLoss	False
66.955	0.3	Lose2	0.8571	0.0	Yes	2.73	0.02	2.0	GoodResponse	0	0.235	n/a	2	6	ButtonPress	AvoidedLoss	False
66.97	3.95	Lose2	0.8571	0.0	Yes	2.73	0.0	n/a	GoodResponse	0	n/a	n/a	2	6	Fixation	AvoidedLoss	False
70.919	0.34	Lose2	0.8571	0.001	Yes	2.73	-0.001	2.0	GoodResponse	0	0.209	70.128	2	6	Target	AvoidedLoss	False
71.128	0.3	Lose2	0.8571	0.001	Yes	2.73	-0.001	2.0	GoodResponse	0	0.209	n/a	2	6	ButtonPress	AvoidedLoss	False
71.269	0.36	Lose2	0.8571	n/a	Yes	2.73	n/a	n/a	GoodResponse	0	n/a	n/a	2	6	Blank	AvoidedLoss	False
71.619	1.45	Lose2	0.8571	n/a	Yes	2.73	n/a	5.0	GoodResponse	0	0.014	70.633	2	6	Feedback	AvoidedLoss	False
73.068	2.73	Lose2	0.8571	n/a	Yes	2.73	n/a	n/a	GoodResponse	0	0.0	n/a	2	6	ISIslide	AvoidedLoss	False
75.817	0.25	Lose2	0.875	0.0	Yes	4.033	0.017	2.0	GoodResponse	0	0.214	75.031	2	7	Cue	AvoidedLoss	False
76.031	0.3	Lose2	0.875	0.0	Yes	4.033	0.017	2.0	GoodResponse	0	0.214	n/a	2	7	ButtonPress	AvoidedLoss	False
76.067	4.05	Lose2	0.875	0.0	Yes	4.033	0.0	n/a	GoodResponse	0	n/a	n/a	2	7	Fixation	AvoidedLoss	False
80.116	0.33	Lose2	0.875	0.001	Yes	4.033	-0.001	2.0	GoodResponse	0	0.222	79.338	2	7	Target	AvoidedLoss	False
80.338	0.3	Lose2	0.875	0.001	Yes	4.033	-0.001	2.0	GoodResponse	0	0.222	n/a	2	7	ButtonPress	AvoidedLoss	False
80.449	0.37	Lose2	0.875	n/a	Yes	4.033	n/a	n/a	GoodResponse	0	n/a	n/a	2	7	Blank	AvoidedLoss	False
80.815	1.45	Lose2	0.875	n/a	Yes	4.033	n/a	5.0	GoodResponse	0	0.037	79.852	2	7	Feedback	AvoidedLoss	False
82.265	4.033	Lose2	0.875	n/a	Yes	4.033	n/a	n/a	GoodResponse	0	0.0	n/a	2	7	ISIslide	AvoidedLoss	False
86.314	0.25	Lose2	0.7778	0.0	No	3.036	0.014	2.0	NoResponse	-1	0.231	85.545	1	8	Cue	Loss	False
86.545	0.3	Lose2	0.7778	0.0	No	3.036	0.014	2.0	NoResponse	-1	0.231	n/a	1	8	ButtonPress	Loss	False
86.563	3.95	Lose2	0.7778	0.001	No	3.036	-0.001	n/a	NoResponse	-1	n/a	n/a	1	8	Fixation	Loss	False
90.512	0.32	Lose2	0.7778	0.002	No	3.036	-0.002	2.0	NoResponse	-1	0.34	89.852	1	8	Target	Loss	False
90.845	0.38	Lose2	0.7778	n/a	No	3.036	n/a	n/a	NoResponse	-1	n/a	n/a	1	8	Blank	Loss	False
90.852	0.3	Lose2	0.7778	0.002	No	3.036	-0.002	2.0	NoResponse	-1	0.34	n/a	1	8	ButtonPress	Loss	False
91.212	1.45	Lose2	0.7778	n/a	No	3.036	n/a	5.0	NoResponse	-1	0.03	90.242	1	8	Feedback	Loss	False
92.661	3.036	Lose2	0.7778	n/a	No	3.036	n/a	n/a	NoResponse	-1	0.0	n/a	1	8	ISIslide	Loss	False
95.727	0.25	Lose2	0.8	0.0	Yes	3.123	0.027	2.0	GoodResponse	0	0.208	94.935	1	9	Cue	AvoidedLoss	False
95.935	0.3	Lose2	0.8	0.0	Yes	3.123	0.027	2.0	GoodResponse	0	0.208	n/a	1	9	ButtonPress	AvoidedLoss	False
95.977	3.95	Lose2	0.8	0.0	Yes	3.123	0.0	n/a	GoodResponse	0	n/a	n/a	1	9	Fixation	AvoidedLoss	False
99.926	0.31	Lose2	0.8	0.001	Yes	3.123	-0.001	2.0	GoodResponse	0	0.219	99.145	1	9	Target	AvoidedLoss	False
100.145	0.3	Lose2	0.8	0.001	Yes	3.123	-0.001	2.0	GoodResponse	0	0.219	n/a	1	9	ButtonPress	AvoidedLoss	False
100.242	0.39	Lose2	0.8	n/a	Yes	3.123	n/a	n/a	GoodResponse	0	n/a	n/a	1	9	Blank	AvoidedLoss	False
100.625	1.45	Lose2	0.8	n/a	Yes	3.123	n/a	5.0	GoodResponse	0	0.032	99.657	1	9	Feedback	AvoidedLoss	False
102.075	3.123	Lose2	0.8	n/a	Yes	3.123	n/a	n/a	GoodResponse	0	0.0	n/a	1	9	ISIslide	AvoidedLoss	False
105.224	0.25	Control	0.8181999999999999	0.0	Yes	3.276	0.024	2.0	GoodResponse	0	0.2	104.424	1	10	Cue	Neutral	False
105.424	0.3	Control	0.8181999999999999	0.0	Yes	3.276	0.024	2.0	GoodResponse	0	0.2	n/a	1	10	ButtonPress	Neutral	False
105.474	4.0	Control	0.8181999999999999	0.0	Yes	3.276	0.0	n/a	GoodResponse	0	n/a	n/a	1	10	Fixation	Neutral	False
109.472	0.3	Control	0.8181999999999999	0.002	Yes	3.276	-0.002	2.0	GoodResponse	0	0.231	108.703	1	10	Target	Neutral	False
109.703	0.3	Control	0.8181999999999999	0.002	Yes	3.276	-0.002	2.0	GoodResponse	0	0.231	n/a	1	10	ButtonPress	Neutral	False
109.772	0.4	Control	0.8181999999999999	n/a	Yes	3.276	n/a	n/a	GoodResponse	0	n/a	n/a	1	10	Blank	Neutral	False
110.172	1.45	Control	0.8181999999999999	n/a	Yes	3.276	n/a	5.0	GoodResponse	0	0.046	109.218	1	10	Feedback	Neutral	False
111.621	3.276	Control	0.8181999999999999	n/a	Yes	3.276	n/a	n/a	GoodResponse	0	0.0	n/a	1	10	ISIslide	Neutral	False
114.92	0.25	Lose2	0.8332999999999999	0.0	Yes	2.73	0.02	2.0	GoodResponse	0	0.203	114.123	1	11	Cue	AvoidedLoss	False
115.123	0.3	Lose2	0.8332999999999999	0.0	Yes	2.73	0.02	2.0	GoodResponse	0	0.203	n/a	1	11	ButtonPress	AvoidedLoss	False
115.17	4.05	Lose2	0.8332999999999999	0.0	Yes	2.73	0.0	n/a	GoodResponse	0	n/a	n/a	1	11	Fixation	AvoidedLoss	False
119.219	0.29	Lose2	0.8332999999999999	0.001	Yes	2.73	-0.001	2.0	GoodResponse	0	0.218	118.437	1	11	Target	AvoidedLoss	False
119.437	0.3	Lose2	0.8332999999999999	0.001	Yes	2.73	-0.001	2.0	GoodResponse	0	0.218	n/a	1	11	ButtonPress	AvoidedLoss	False
119.519	0.41	Lose2	0.8332999999999999	n/a	Yes	2.73	n/a	n/a	GoodResponse	0	n/a	n/a	1	11	Blank	AvoidedLoss	False
119.919	1.45	Lose2	0.8332999999999999	n/a	Yes	2.73	n/a	5.0	GoodResponse	0	0.007	118.926	1	11	Feedback	AvoidedLoss	False
121.368	2.73	Lose2	0.8332999999999999	n/a	Yes	2.73	n/a	n/a	GoodResponse	0	0.0	n/a	1	11	ISIslide	AvoidedLoss	False
124.117	0.25	Control	0.8462000000000001	0.0	Yes	2.983	0.017	2.0	GoodResponse	0	0.214	123.331	1	12	Cue	Neutral	False
124.331	0.3	Control	0.8462000000000001	0.0	Yes	2.983	0.017	2.0	GoodResponse	0	0.214	n/a	1	12	ButtonPress	Neutral	False
124.367	3.9	Control	0.8462000000000001	0.0	Yes	2.983	0.0	n/a	GoodResponse	0	n/a	n/a	1	12	Fixation	Neutral	False
128.266	0.28	Control	0.8462000000000001	0.001	Yes	2.983	-0.001	2.0	GoodResponse	0	0.266	127.532	1	12	Target	Neutral	False
128.532	0.3	Control	0.8462000000000001	0.001	Yes	2.983	-0.001	2.0	GoodResponse	0	0.266	n/a	1	12	ButtonPress	Neutral	False
128.549	0.42	Control	0.8462000000000001	n/a	Yes	2.983	n/a	n/a	GoodResponse	0	n/a	n/a	1	12	Blank	Neutral	False
128.965	1.45	Control	0.8462000000000001	n/a	Yes	2.983	n/a	5.0	GoodResponse	0	0.034	127.999	1	12	Feedback	Neutral	False
130.415	2.983	Control	0.8462000000000001	n/a	Yes	2.983	n/a	2.0	GoodResponse	0	2.638	n/a	1	12	ISIslide	Neutral	False
133.397	0.25	Control	0.8571	0.0	Yes	2.803	-0.003	2.0	GoodResponse	0	0.217	132.614	1	13	Cue	Neutral	False
133.614	0.3	Control	0.8571	0.0	Yes	2.803	-0.003	2.0	GoodResponse	0	0.217	n/a	1	13	ButtonPress	Neutral	False
133.647	4.0	Control	0.8571	0.0	Yes	2.803	0.0	n/a	GoodResponse	0	n/a	n/a	1	13	Fixation	Neutral	False
137.646	0.27	Control	0.8571	0.001	Yes	2.803	-0.001	2.0	GoodResponse	0	0.265	136.911	1	13	Target	Neutral	False
137.911	0.3	Control	0.8571	0.001	Yes	2.803	-0.001	2.0	GoodResponse	0	0.265	n/a	1	13	ButtonPress	Neutral	False
137.912	0.43	Control	0.8571	n/a	Yes	2.803	n/a	n/a	GoodResponse	0	n/a	n/a	1	13	Blank	Neutral	False
138.346	1.45	Control	0.8571	n/a	Yes	2.803	n/a	5.0	GoodResponse	0	0.018	137.364	1	13	Feedback	Neutral	False
139.795	2.803	Control	0.8571	n/a	Yes	2.803	n/a	n/a	GoodResponse	0	0.0	n/a	1	13	ISIslide	Neutral	False
142.627	0.25	Win2	0.8	0.0	No	2.673	0.027	2.0	LatePress	0	0.218	141.845	1	14	Cue	MissedWin	False
142.845	0.3	Win2	0.8	0.0	No	2.673	0.027	2.0	LatePress	0	0.218	n/a	1	14	ButtonPress	MissedWin	False
142.877	4.1	Win2	0.8	0.0	No	2.673	0.0	n/a	LatePress	0	n/a	n/a	1	14	Fixation	MissedWin	False
146.976	0.26	Win2	0.8	0.001	No	2.673	-0.001	2.0	LatePress	0	0.263	146.239	1	14	Target	MissedWin	False
147.239	0.3	Win2	0.8	0.001	No	2.673	-0.001	2.0	LatePress	0	0.263	n/a	1	14	ButtonPress	MissedWin	False
147.242	0.44	Win2	0.8	n/a	No	2.673	n/a	n/a	LatePress	0	n/a	n/a	1	14	Blank	MissedWin	False
147.676	1.45	Win2	0.8	n/a	No	2.673	n/a	5.0	LatePress	0	0.006	146.682	1	14	Feedback	MissedWin	False
149.125	2.673	Win2	0.8	n/a	No	2.673	n/a	n/a	LatePress	0	0.0	n/a	1	14	ISIslide	MissedWin	False
151.824	0.25	Control	0.8125	0.0	Yes	2.976	0.024	n/a	GoodResponse	0	n/a	n/a	1	15	Cue	Neutral	False
152.074	4.0	Control	0.8125	0.0	Yes	2.976	0.0	2.0	GoodResponse	0	0.023	151.097	1	15	Fixation	Neutral	False
152.097	0.3	Control	0.8125	0.0	Yes	2.976	0.0	2.0	GoodResponse	0	0.023	n/a	1	15	ButtonPress	Neutral	False
156.073	0.25	Control	0.8125	0.001	Yes	2.976	-0.001	2.0	GoodResponse	0	0.203	155.276	1	15	Target	Neutral	False
156.276	0.3	Control	0.8125	0.001	Yes	2.976	-0.001	2.0	GoodResponse	0	0.203	n/a	1	15	ButtonPress	Neutral	False
156.323	0.45	Control	0.8125	n/a	Yes	2.976	n/a	n/a	GoodResponse	0	n/a	n/a	1	15	Blank	Neutral	False
156.773	1.45	Control	0.8125	n/a	Yes	2.976	n/a	5.0	GoodResponse	0	0.03	155.803	1	15	Feedback	Neutral	False
158.222	2.976	Control	0.8125	n/a	Yes	2.976	n/a	n/a	GoodResponse	0	0.0	n/a	1	15	ISIslide	Neutral	False
161.221	0.25	Win2	0.7646999999999999	0.0	No	2.879	0.021	2.0	NoResponse	0	0.203	160.424	1	16	Cue	MissedWin	False
161.424	0.3	Win2	0.7646999999999999	0.0	No	2.879	0.021	2.0	NoResponse	0	0.203	n/a	1	16	ButtonPress	MissedWin	False
161.471	4.0	Win2	0.7646999999999999	0.0	No	2.879	0.0	n/a	NoResponse	0	n/a	n/a	1	16	Fixation	MissedWin	False
165.47	0.24	Win2	0.7646999999999999	0.001	No	2.879	-0.001	2.0	NoResponse	0	0.275	164.745	1	16	Target	MissedWin	False
165.719	0.46	Win2	0.7646999999999999	n/a	No	2.879	n/a	n/a	NoResponse	0	n/a	n/a	1	16	Blank	MissedWin	False
165.745	0.3	Win2	0.7646999999999999	0.001	No	2.879	-0.001	2.0	NoResponse	0	0.275	n/a	1	16	ButtonPress	MissedWin	False
166.169	1.45	Win2	0.7646999999999999	n/a	No	2.879	n/a	5.0	NoResponse	0	0.049	165.218	1	16	Feedback	MissedWin	False
167.619	2.879	Win2	0.7646999999999999	n/a	No	2.879	n/a	n/a	NoResponse	0	0.0	n/a	1	16	ISIslide	MissedWin	False
170.518	0.25	Lose2	0.7778	0.0	Yes	2.732	0.018	n/a	GoodResponse	0	n/a	n/a	1	17	Cue	AvoidedLoss	False
170.768	3.95	Lose2	0.7778	0.0	Yes	2.732	0.0	2.0	GoodResponse	0	0.097	169.865	1	17	Fixation	AvoidedLoss	False
170.865	0.3	Lose2	0.7778	0.0	Yes	2.732	0.0	2.0	GoodResponse	0	0.097	n/a	1	17	ButtonPress	AvoidedLoss	False
174.716	0.23	Lose2	0.7778	0.002	Yes	2.732	-0.002	2.0	GoodResponse	0	0.209	173.925	1	17	Target	AvoidedLoss	False
174.925	0.3	Lose2	0.7778	0.002	Yes	2.732	-0.002	2.0	GoodResponse	0	0.209	n/a	1	17	ButtonPress	AvoidedLoss	False
174.95	0.47	Lose2	0.7778	n/a	Yes	2.732	n/a	n/a	GoodResponse	0	n/a	n/a	1	17	Blank	AvoidedLoss	False
175.416	1.45	Lose2	0.7778	n/a	Yes	2.732	n/a	5.0	GoodResponse	0	0.021	174.437	1	17	Feedback	AvoidedLoss	False
176.866	2.732	Lose2	0.7778	n/a	Yes	2.732	n/a	n/a	GoodResponse	0	0.0	n/a	1	17	ISIslide	AvoidedLoss	False
179.615	0.25	Lose2	0.7368000000000001	0.0	No	2.735	0.015	2.0	LatePress	-1	0.204	178.819	0	18	Cue	Loss	False
179.819	0.3	Lose2	0.7368000000000001	0.0	No	2.735	0.015	2.0	LatePress	-1	0.204	n/a	0	18	ButtonPress	Loss	False
179.865	4.05	Lose2	0.7368000000000001	0.0	No	2.735	0.0	n/a	LatePress	-1	n/a	n/a	0	18	Fixation	Loss	False
183.913	0.22	Lose2	0.7368000000000001	0.002	No	2.735	-0.002	2.0	LatePress	-1	0.22	183.133	0	18	Target	Loss	False
184.133	0.3	Lose2	0.7368000000000001	0.002	No	2.735	-0.002	2.0	LatePress	-1	0.22	n/a	0	18	ButtonPress	Loss	False
184.146	0.48	Lose2	0.7368000000000001	n/a	No	2.735	n/a	n/a	LatePress	-1	n/a	n/a	0	18	Blank	Loss	False
184.613	1.45	Lose2	0.7368000000000001	n/a	No	2.735	n/a	5.0	LatePress	-1	0.044	183.657	0	18	Feedback	Loss	False
186.062	2.735	Lose2	0.7368000000000001	n/a	No	2.735	n/a	n/a	LatePress	-1	0.0	n/a	0	18	ISIslide	Loss	False
188.828	0.25	Control	0.75	0.0	Yes	2.922	0.028	2.0	GoodResponse	0	0.235	188.063	0	19	Cue	Neutral	False
189.063	0.3	Control	0.75	0.0	Yes	2.922	0.028	2.0	GoodResponse	0	0.235	n/a	0	19	ButtonPress	Neutral	False
189.078	3.95	Control	0.75	0.0	Yes	2.922	0.0	n/a	GoodResponse	0	n/a	n/a	0	19	Fixation	Neutral	False
193.027	0.21	Control	0.75	0.001	Yes	2.922	-0.001	2.0	GoodResponse	0	0.196	192.223	0	19	Target	Neutral	False
193.223	0.3	Control	0.75	0.001	Yes	2.922	-0.001	2.0	GoodResponse	0	0.196	n/a	0	19	ButtonPress	Neutral	False
193.243	0.49	Control	0.75	n/a	Yes	2.922	n/a	n/a	GoodResponse	0	n/a	n/a	0	19	Blank	Neutral	False
193.726	1.45	Control	0.75	n/a	Yes	2.922	n/a	5.0	GoodResponse	0	0.007	192.733	0	19	Feedback	Neutral	False
195.176	2.922	Control	0.75	n/a	Yes	2.922	n/a	2.0	GoodResponse	0	2.3	n/a	0	19	ISIslide	Neutral	False
198.108	0.25	Control	0.7143	0.0	No	2.642	0.008	2.0	NoResponse	0	0.214	197.322	0	20	Cue	Neutral	False
198.322	0.3	Control	0.7143	0.0	No	2.642	0.008	2.0	NoResponse	0	0.214	n/a	0	20	ButtonPress	Neutral	False
198.358	4.05	Control	0.7143	0.0	No	2.642	0.0	n/a	NoResponse	0	n/a	n/a	0	20	Fixation	Neutral	False
202.407	0.2	Control	0.7143	0.001	No	2.642	-0.001	2.0	NoResponse	0	0.219	201.626	0	20	Target	Neutral	False
202.607	0.5	Control	0.7143	n/a	No	2.642	n/a	n/a	NoResponse	0	n/a	n/a	0	20	Blank	Neutral	False
202.626	0.3	Control	0.7143	0.001	No	2.642	-0.001	2.0	NoResponse	0	0.219	n/a	0	20	ButtonPress	Neutral	False
203.107	1.45	Control	0.7143	n/a	No	2.642	n/a	5.0	NoResponse	0	0.037	202.144	0	20	Feedback	Neutral	False
204.556	2.642	Control	0.7143	n/a	No	2.642	n/a	n/a	NoResponse	0	0.0	n/a	0	20	ISIslide	Neutral	False
207.222	0.25	Control	0.6818000000000001	0.0	No	2.778	0.022	2.0	NoResponse	0	0.211	206.433	0	21	Cue	Neutral	False
207.433	0.3	Control	0.6818000000000001	0.0	No	2.778	0.022	2.0	NoResponse	0	0.211	n/a	0	21	ButtonPress	Neutral	False
207.472	4.1	Control	0.6818000000000001	0.0	No	2.778	0.0	n/a	NoResponse	0	n/a	n/a	0	21	Fixation	Neutral	False
211.57	0.19	Control	0.6818000000000001	0.002	No	2.778	-0.002	2.0	NoResponse	0	0.214	210.784	0	21	Target	Neutral	False
211.77	0.51	Control	0.6818000000000001	n/a	No	2.778	n/a	n/a	NoResponse	0	n/a	n/a	0	21	Blank	Neutral	False
211.784	0.3	Control	0.6818000000000001	0.002	No	2.778	-0.002	2.0	NoResponse	0	0.214	n/a	0	21	ButtonPress	Neutral	False
212.27	1.45	Control	0.6818000000000001	n/a	No	2.778	n/a	5.0	NoResponse	0	0.045	211.315	0	21	Feedback	Neutral	False
213.72	2.778	Control	0.6818000000000001	n/a	No	2.778	n/a	n/a	NoResponse	0	0.0	n/a	0	21	ISIslide	Neutral	False
216.519	0.25	Control	0.6522	0.0	No	2.781	0.019	2.0	NoResponse	0	0.206	215.725	0	22	Cue	Neutral	False
216.725	0.3	Control	0.6522	0.0	No	2.781	0.019	2.0	NoResponse	0	0.206	n/a	0	22	ButtonPress	Neutral	False
216.768	4.0	Control	0.6522	0.001	No	2.781	-0.001	n/a	NoResponse	0	n/a	n/a	0	22	Fixation	Neutral	False
220.767	0.18	Control	0.6522	0.002	No	2.781	-0.002	2.0	NoResponse	0	0.225	219.992	0	22	Target	Neutral	False
220.95	0.52	Control	0.6522	n/a	No	2.781	n/a	n/a	NoResponse	0	n/a	n/a	0	22	Blank	Neutral	False
220.992	0.3	Control	0.6522	0.002	No	2.781	-0.002	2.0	NoResponse	0	0.225	n/a	0	22	ButtonPress	Neutral	False
221.467	1.45	Control	0.6522	n/a	No	2.781	n/a	5.0	NoResponse	0	0.019	220.486	0	22	Feedback	Neutral	False
222.916	2.781	Control	0.6522	n/a	No	2.781	n/a	2.0	NoResponse	0	2.432	n/a	0	22	ISIslide	Neutral	False
225.699	0.25	Control	0.625	0.0	No	2.801	-0.001	2.0	NoResponse	0	0.214	224.913	0	23	Cue	Neutral	False
225.913	0.3	Control	0.625	0.0	No	2.801	-0.001	2.0	NoResponse	0	0.214	n/a	0	23	ButtonPress	Neutral	False
225.949	3.9	Control	0.625	0.0	No	2.801	0.0	n/a	NoResponse	0	n/a	n/a	0	23	Fixation	Neutral	False
229.847	0.19	Control	0.625	0.002	No	2.801	-0.002	2.0	NoResponse	0	0.239	229.086	0	23	Target	Neutral	False
230.047	0.51	Control	0.625	n/a	No	2.801	n/a	n/a	NoResponse	0	n/a	n/a	0	23	Blank	Neutral	False
230.086	0.3	Control	0.625	0.002	No	2.801	-0.002	2.0	NoResponse	0	0.239	n/a	0	23	ButtonPress	Neutral	False
230.547	1.45	Control	0.625	n/a	No	2.801	n/a	5.0	NoResponse	0	0.012	229.559	0	23	Feedback	Neutral	False
231.997	2.801	Control	0.625	n/a	No	2.801	n/a	n/a	NoResponse	0	0.0	n/a	0	23	ISIslide	Neutral	False
234.812	0.25	Win2	0.6	0.0	No	3.138	0.012	2.0	NoResponse	0	0.173	233.985	0	24	Cue	MissedWin	False
234.985	0.3	Win2	0.6	0.0	No	3.138	0.012	2.0	NoResponse	0	0.173	n/a	0	24	ButtonPress	MissedWin	False
235.062	3.95	Win2	0.6	0.0	No	3.138	0.0	n/a	NoResponse	0	n/a	n/a	0	24	Fixation	MissedWin	False
239.011	0.2	Win2	0.6	0.001	No	3.138	-0.001	2.0	NoResponse	0	0.229	238.24	0	24	Target	MissedWin	False
239.211	0.5	Win2	0.6	n/a	No	3.138	n/a	n/a	NoResponse	0	n/a	n/a	0	24	Blank	MissedWin	False
239.24	0.3	Win2	0.6	0.001	No	3.138	-0.001	2.0	NoResponse	0	0.229	n/a	0	24	ButtonPress	MissedWin	False
239.711	1.45	Win2	0.6	n/a	No	3.138	n/a	5.0	NoResponse	0	0.019	238.73	0	24	Feedback	MissedWin	False
241.16	3.138	Win2	0.6	n/a	No	3.138	n/a	n/a	NoResponse	0	0.0	n/a	0	24	ISIslide	MissedWin	False
244.326	0.25	Win2	0.6154	0.0	Yes	3.074	0.026	2.0	GoodResponse	1	0.191	243.517	1	25	Cue	Win	False
244.517	0.3	Win2	0.6154	0.0	Yes	3.074	0.026	2.0	GoodResponse	1	0.191	n/a	1	25	ButtonPress	Win	False
244.576	4.0	Win2	0.6154	0.0	Yes	3.074	0.0	n/a	GoodResponse	1	n/a	n/a	1	25	Fixation	Win	False
248.574	0.21	Win2	0.6154	0.002	Yes	3.074	-0.002	2.0	GoodResponse	1	0.203	247.777	1	25	Target	Win	False
248.777	0.3	Win2	0.6154	0.002	Yes	3.074	-0.002	2.0	GoodResponse	1	0.203	n/a	1	25	ButtonPress	Win	False
248.791	0.49	Win2	0.6154	n/a	Yes	3.074	n/a	n/a	GoodResponse	1	n/a	n/a	1	25	Blank	Win	False
249.274	1.45	Win2	0.6154	n/a	Yes	3.074	n/a	5.0	GoodResponse	1	0.017	248.291	1	25	Feedback	Win	False
250.723	3.074	Win2	0.6154	n/a	Yes	3.074	n/a	n/a	GoodResponse	1	0.0	n/a	1	25	ISIslide	Win	False
253.822	0.25	Win2	0.6296	0.0	Yes	2.928	0.022	2.0	GoodResponse	1	0.206	253.028	2	26	Cue	Win	False
254.028	0.3	Win2	0.6296	0.0	Yes	2.928	0.022	2.0	GoodResponse	1	0.206	n/a	2	26	ButtonPress	Win	False
254.072	3.95	Win2	0.6296	0.0	Yes	2.928	0.0	n/a	GoodResponse	1	n/a	n/a	2	26	Fixation	Win	False
258.021	0.22	Win2	0.6296	0.001	Yes	2.928	-0.001	2.0	GoodResponse	1	0.219	257.24	2	26	Target	Win	False
258.237	0.48	Win2	0.6296	n/a	Yes	2.928	n/a	n/a	GoodResponse	1	n/a	n/a	2	26	Blank	Win	False
258.24	0.3	Win2	0.6296	0.001	Yes	2.928	-0.001	2.0	GoodResponse	1	0.219	n/a	2	26	ButtonPress	Win	False
258.721	1.45	Win2	0.6296	n/a	Yes	2.928	n/a	5.0	GoodResponse	1	0.033	257.754	2	26	Feedback	Win	False
260.17	2.928	Win2	0.6296	n/a	Yes	2.928	n/a	n/a	GoodResponse	1	0.0	n/a	2	26	ISIslide	Win	False
263.119	0.25	Lose2	0.6429	0.0	Yes	2.831	0.019	2.0	GoodResponse	0	0.206	262.325	2	27	Cue	AvoidedLoss	False
263.325	0.3	Lose2	0.6429	0.0	Yes	2.831	0.019	2.0	GoodResponse	0	0.206	n/a	2	27	ButtonPress	AvoidedLoss	False
263.369	4.05	Lose2	0.6429	0.0	Yes	2.831	0.0	n/a	GoodResponse	0	n/a	n/a	2	27	Fixation	AvoidedLoss	False
267.418	0.23	Lose2	0.6429	0.001	Yes	2.831	-0.001	2.0	GoodResponse	0	0.211	266.629	2	27	Target	AvoidedLoss	False
267.629	0.3	Lose2	0.6429	0.001	Yes	2.831	-0.001	2.0	GoodResponse	0	0.211	n/a	2	27	ButtonPress	AvoidedLoss	False
267.651	0.47	Lose2	0.6429	n/a	Yes	2.831	n/a	n/a	GoodResponse	0	n/a	n/a	2	27	Blank	AvoidedLoss	False
268.117	1.45	Lose2	0.6429	n/a	Yes	2.831	n/a	5.0	GoodResponse	0	0.007	267.124	2	27	Feedback	AvoidedLoss	False
269.567	2.831	Lose2	0.6429	n/a	Yes	2.831	n/a	n/a	GoodResponse	0	0.0	n/a	2	27	ISIslide	AvoidedLoss	False
272.416	0.25	Control	0.6207	0.0	No	2.834	0.016	2.0	LatePress	0	0.247	271.663	2	28	Cue	Neutral	False
272.663	0.3	Control	0.6207	0.0	No	2.834	0.016	2.0	LatePress	0	0.247	n/a	2	28	ButtonPress	Neutral	False
272.666	4.05	Control	0.6207	0.0	No	2.834	0.0	n/a	LatePress	0	n/a	n/a	2	28	Fixation	Neutral	False
276.714	0.24	Control	0.6207	0.002	No	2.834	-0.002	2.0	LatePress	0	0.243	275.957	2	28	Target	Neutral	False
276.957	0.3	Control	0.6207	0.002	No	2.834	-0.002	2.0	LatePress	0	0.243	n/a	2	28	ButtonPress	Neutral	False
276.964	0.46	Control	0.6207	n/a	No	2.834	n/a	n/a	LatePress	0	n/a	n/a	2	28	Blank	Neutral	False
277.414	1.45	Control	0.6207	n/a	No	2.834	n/a	5.0	LatePress	0	0.023	276.437	2	28	Feedback	Neutral	False
278.864	2.834	Control	0.6207	n/a	No	2.834	n/a	n/a	LatePress	0	0.0	n/a	2	28	ISIslide	Neutral	False
281.713	0.25	Lose2	0.6333	0.0	Yes	2.837	0.013	2.0	GoodResponse	0	0.205	280.918	2	29	Cue	AvoidedLoss	False
281.918	0.3	Lose2	0.6333	0.0	Yes	2.837	0.013	2.0	GoodResponse	0	0.205	n/a	2	29	ButtonPress	AvoidedLoss	False
281.963	3.95	Lose2	0.6333	0.0	Yes	2.837	0.0	n/a	GoodResponse	0	n/a	n/a	2	29	Fixation	AvoidedLoss	False
285.911	0.25	Lose2	0.6333	0.002	Yes	2.837	-0.002	2.0	GoodResponse	0	0.199	285.11	2	29	Target	AvoidedLoss	False
286.11	0.3	Lose2	0.6333	0.002	Yes	2.837	-0.002	2.0	GoodResponse	0	0.199	n/a	2	29	ButtonPress	AvoidedLoss	False
286.161	0.45	Lose2	0.6333	n/a	Yes	2.837	n/a	n/a	GoodResponse	0	n/a	n/a	2	29	Blank	AvoidedLoss	False
286.611	1.45	Lose2	0.6333	n/a	Yes	2.837	n/a	5.0	GoodResponse	0	0.045	285.656	2	29	Feedback	AvoidedLoss	False
288.06	2.837	Lose2	0.6333	n/a	Yes	2.837	n/a	n/a	GoodResponse	0	0.0	n/a	2	29	ISIslide	AvoidedLoss	False
290.926	0.25	Win2	0.6452	0.0	Yes	2.774	0.026	2.0	GoodResponse	1	0.189	290.115	3	30	Cue	Win	False
291.115	0.3	Win2	0.6452	0.0	Yes	2.774	0.026	2.0	GoodResponse	1	0.189	n/a	3	30	ButtonPress	Win	False
291.176	3.9	Win2	0.6452	0.0	Yes	2.774	0.0	n/a	GoodResponse	1	n/a	n/a	3	30	Fixation	Win	False
295.075	0.26	Win2	0.6452	0.001	Yes	2.774	-0.001	2.0	GoodResponse	1	0.195	294.27	3	30	Target	Win	False
295.27	0.3	Win2	0.6452	0.001	Yes	2.774	-0.001	2.0	GoodResponse	1	0.195	n/a	3	30	ButtonPress	Win	False
295.341	0.44	Win2	0.6452	n/a	Yes	2.774	n/a	n/a	GoodResponse	1	n/a	n/a	3	30	Blank	Win	False
295.774	1.45	Win2	0.6452	n/a	Yes	2.774	n/a	5.0	GoodResponse	1	0.007	294.781	3	30	Feedback	Win	False
297.224	2.774	Win2	0.6452	n/a	Yes	2.774	n/a	n/a	GoodResponse	1	0.0	n/a	3	30	ISIslide	Win	False
300.023	0.25	Lose2	0.6562	0.0	Yes	2.827	0.023	2.0	GoodResponse	0	0.244	299.267	3	31	Cue	AvoidedLoss	False
300.267	0.3	Lose2	0.6562	0.0	Yes	2.827	0.023	2.0	GoodResponse	0	0.244	n/a	3	31	ButtonPress	AvoidedLoss	False
300.273	4.05	Lose2	0.6562	0.0	Yes	2.827	0.0	n/a	GoodResponse	0	n/a	n/a	3	31	Fixation	AvoidedLoss	False
304.322	0.27	Lose2	0.6562	0.001	Yes	2.827	-0.001	2.0	GoodResponse	0	0.206	303.528	3	31	Target	AvoidedLoss	False
304.528	0.3	Lose2	0.6562	0.001	Yes	2.827	-0.001	2.0	GoodResponse	0	0.206	n/a	3	31	ButtonPress	AvoidedLoss	False
304.605	0.43	Lose2	0.6562	n/a	Yes	2.827	n/a	n/a	GoodResponse	0	n/a	n/a	3	31	Blank	AvoidedLoss	False
305.021	1.45	Lose2	0.6562	n/a	Yes	2.827	n/a	5.0	GoodResponse	0	0.026	304.047	3	31	Feedback	AvoidedLoss	False
306.471	2.827	Lose2	0.6562	n/a	Yes	2.827	n/a	n/a	GoodResponse	0	0.0	n/a	3	31	ISIslide	AvoidedLoss	False
309.32	0.25	Lose2	0.6667000000000001	0.0	Yes	2.63	0.02	2.0	GoodResponse	0	0.198	308.518	3	32	Cue	AvoidedLoss	False
309.518	0.3	Lose2	0.6667000000000001	0.0	Yes	2.63	0.02	2.0	GoodResponse	0	0.198	n/a	3	32	ButtonPress	AvoidedLoss	False
309.57	4.15	Lose2	0.6667000000000001	0.0	Yes	2.63	0.0	n/a	GoodResponse	0	n/a	n/a	3	32	Fixation	AvoidedLoss	False
313.718	0.27	Lose2	0.6667000000000001	0.002	Yes	2.63	-0.002	2.0	GoodResponse	0	0.249	312.967	3	32	Target	AvoidedLoss	False
313.967	0.3	Lose2	0.6667000000000001	0.002	Yes	2.63	-0.002	2.0	GoodResponse	0	0.249	n/a	3	32	ButtonPress	AvoidedLoss	False
314.001	0.43	Lose2	0.6667000000000001	n/a	Yes	2.63	n/a	n/a	GoodResponse	0	n/a	n/a	3	32	Blank	AvoidedLoss	False
314.418	1.45	Lose2	0.6667000000000001	n/a	Yes	2.63	n/a	5.0	GoodResponse	0	0.044	313.462	3	32	Feedback	AvoidedLoss	False
315.868	2.63	Lose2	0.6667000000000001	n/a	Yes	2.63	n/a	n/a	GoodResponse	0	0.0	n/a	3	32	ISIslide	AvoidedLoss	False
318.517	0.25	Win2	0.6765000000000001	0.0	Yes	2.683	0.017	2.0	GoodResponse	1	0.206	317.723	4	33	Cue	Win	False
318.723	0.3	Win2	0.6765000000000001	0.0	Yes	2.683	0.017	2.0	GoodResponse	1	0.206	n/a	4	33	ButtonPress	Win	False
318.767	4.0	Win2	0.6765000000000001	0.0	Yes	2.683	0.0	n/a	GoodResponse	1	n/a	n/a	4	33	Fixation	Win	False
322.765	0.26	Win2	0.6765000000000001	0.002	Yes	2.683	-0.002	2.0	GoodResponse	1	0.165	321.93	4	33	Target	Win	False
322.93	0.3	Win2	0.6765000000000001	0.002	Yes	2.683	-0.002	2.0	GoodResponse	1	0.165	n/a	4	33	ButtonPress	Win	False
323.032	0.44	Win2	0.6765000000000001	n/a	Yes	2.683	n/a	n/a	GoodResponse	1	n/a	n/a	4	33	Blank	Win	False
323.465	1.45	Win2	0.6765000000000001	n/a	Yes	2.683	n/a	5.0	GoodResponse	1	0.02	322.485	4	33	Feedback	Win	False
324.914	2.683	Win2	0.6765000000000001	n/a	Yes	2.683	n/a	n/a	GoodResponse	1	0.0	n/a	4	33	ISIslide	Win	False
327.613	0.25	Lose2	0.6857	0.001	Yes	2.637	0.013	2.0	GoodResponse	0	0.207	326.82	4	34	Cue	AvoidedLoss	False
327.82	0.3	Lose2	0.6857	0.001	Yes	2.637	0.013	2.0	GoodResponse	0	0.207	n/a	4	34	ButtonPress	AvoidedLoss	False
327.863	4.05	Lose2	0.6857	0.0	Yes	2.637	0.0	n/a	GoodResponse	0	n/a	n/a	4	34	Fixation	AvoidedLoss	False
331.912	0.25	Lose2	0.6857	0.001	Yes	2.637	-0.001	2.0	GoodResponse	0	0.236	331.148	4	34	Target	AvoidedLoss	False
332.148	0.3	Lose2	0.6857	0.001	Yes	2.637	-0.001	2.0	GoodResponse	0	0.236	n/a	4	34	ButtonPress	AvoidedLoss	False
332.162	0.45	Lose2	0.6857	n/a	Yes	2.637	n/a	n/a	GoodResponse	0	n/a	n/a	4	34	Blank	AvoidedLoss	False
332.612	1.45	Lose2	0.6857	n/a	Yes	2.637	n/a	5.0	GoodResponse	0	0.044	331.656	4	34	Feedback	AvoidedLoss	False
334.061	2.637	Lose2	0.6857	n/a	Yes	2.637	n/a	n/a	GoodResponse	0	0.0	n/a	4	34	ISIslide	AvoidedLoss	False
336.727	0.25	Lose2	0.6944	0.0	Yes	2.673	0.027	2.0	GoodResponse	0	0.206	335.933	4	35	Cue	AvoidedLoss	False
336.933	0.3	Lose2	0.6944	0.0	Yes	2.673	0.027	2.0	GoodResponse	0	0.206	n/a	4	35	ButtonPress	AvoidedLoss	False
336.977	4.0	Lose2	0.6944	0.0	Yes	2.673	0.0	n/a	GoodResponse	0	n/a	n/a	4	35	Fixation	AvoidedLoss	False
340.976	0.24	Lose2	0.6944	0.001	Yes	2.673	-0.001	2.0	GoodResponse	0	0.199	340.175	4	35	Target	AvoidedLoss	False
341.175	0.3	Lose2	0.6944	0.001	Yes	2.673	-0.001	2.0	GoodResponse	0	0.199	n/a	4	35	ButtonPress	AvoidedLoss	False
341.225	0.46	Lose2	0.6944	n/a	Yes	2.673	n/a	n/a	GoodResponse	0	n/a	n/a	4	35	Blank	AvoidedLoss	False
341.675	1.45	Lose2	0.6944	n/a	Yes	2.673	n/a	5.0	GoodResponse	0	0.008	340.683	4	35	Feedback	AvoidedLoss	False
343.125	2.673	Lose2	0.6944	n/a	Yes	2.673	n/a	n/a	GoodResponse	0	0.0	n/a	4	35	ISIslide	AvoidedLoss	False
345.824	0.25	Control	0.6757	0.0	No	2.676	0.024	2.0	NoResponse	0	0.218	345.042	4	36	Cue	Neutral	False
346.042	0.3	Control	0.6757	0.0	No	2.676	0.024	2.0	NoResponse	0	0.218	n/a	4	36	ButtonPress	Neutral	False
346.074	4.0	Control	0.6757	0.0	No	2.676	0.0	2.0	NoResponse	0	3.874	348.948	4	36	Fixation	Neutral	False
349.948	0.3	Control	0.6757	0.0	No	2.676	0.0	2.0	NoResponse	0	3.874	n/a	4	36	ButtonPress	Neutral	False
350.072	0.23	Control	0.6757	0.002	No	2.676	-0.002	n/a	NoResponse	0	n/a	n/a	4	36	Target	Neutral	False
350.306	0.47	Control	0.6757	n/a	No	2.676	n/a	n/a	NoResponse	0	n/a	n/a	4	36	Blank	Neutral	False
350.772	1.45	Control	0.6757	n/a	No	2.676	n/a	5.0	NoResponse	0	0.031	349.803	4	36	Feedback	Neutral	False
352.222	2.676	Control	0.6757	n/a	No	2.676	n/a	n/a	NoResponse	0	0.0	n/a	4	36	ISIslide	Neutral	False
354.921	0.25	Win2	0.6842	0.0	Yes	2.879	0.021	2.0	GoodResponse	1	0.199	354.12	5	37	Cue	Win	False
355.12	0.3	Win2	0.6842	0.0	Yes	2.879	0.021	2.0	GoodResponse	1	0.199	n/a	5	37	ButtonPress	Win	False
355.171	4.0	Win2	0.6842	0.0	Yes	2.879	0.0	n/a	GoodResponse	1	n/a	n/a	5	37	Fixation	Win	False
359.169	0.22	Win2	0.6842	0.002	Yes	2.879	-0.002	2.0	GoodResponse	1	0.193	358.362	5	37	Target	Win	False
359.362	0.3	Win2	0.6842	0.002	Yes	2.879	-0.002	2.0	GoodResponse	1	0.193	n/a	5	37	ButtonPress	Win	False
359.402	0.48	Win2	0.6842	n/a	Yes	2.879	n/a	n/a	GoodResponse	1	n/a	n/a	5	37	Blank	Win	False
359.869	1.45	Win2	0.6842	n/a	Yes	2.879	n/a	5.0	GoodResponse	1	0.007	358.876	5	37	Feedback	Win	False
361.318	2.879	Win2	0.6842	n/a	Yes	2.879	n/a	n/a	GoodResponse	1	0.0	n/a	5	37	ISIslide	Win	False
364.217	0.25	Lose2	0.6923	0.001	Yes	2.833	0.017	2.0	GoodResponse	0	0.189	363.406	5	38	Cue	AvoidedLoss	False
364.406	0.3	Lose2	0.6923	0.001	Yes	2.833	0.017	2.0	GoodResponse	0	0.189	n/a	5	38	ButtonPress	AvoidedLoss	False
364.467	3.95	Lose2	0.6923	0.001	Yes	2.833	0.0	n/a	GoodResponse	0	n/a	n/a	5	38	Fixation	AvoidedLoss	False
368.416	0.21	Lose2	0.6923	0.001	Yes	2.833	-0.001	2.0	GoodResponse	0	0.203	367.619	5	38	Target	AvoidedLoss	False
368.619	0.3	Lose2	0.6923	0.001	Yes	2.833	-0.001	2.0	GoodResponse	0	0.203	n/a	5	38	ButtonPress	AvoidedLoss	False
368.633	0.49	Lose2	0.6923	n/a	Yes	2.833	n/a	n/a	GoodResponse	0	n/a	n/a	5	38	Blank	AvoidedLoss	False
369.116	1.45	Lose2	0.6923	n/a	Yes	2.833	n/a	5.0	GoodResponse	0	0.028	368.144	5	38	Feedback	AvoidedLoss	False
370.565	2.833	Lose2	0.6923	n/a	Yes	2.833	n/a	n/a	GoodResponse	0	0.0	n/a	5	38	ISIslide	AvoidedLoss	False
373.414	0.25	Win2	0.7	0.0	Yes	2.986	0.014	n/a	GoodResponse	1	n/a	n/a	6	39	Cue	Win	False
373.664	4.1	Win2	0.7	0.0	Yes	2.986	0.0	2.0	GoodResponse	1	0.06	372.724	6	39	Fixation	Win	False
373.724	0.3	Win2	0.7	0.0	Yes	2.986	0.0	2.0	GoodResponse	1	0.06	n/a	6	39	ButtonPress	Win	False
377.763	0.2	Win2	0.7	0.001	Yes	2.986	-0.001	2.0	GoodResponse	1	0.176	376.939	6	39	Target	Win	False
377.939	0.3	Win2	0.7	0.001	Yes	2.986	-0.001	2.0	GoodResponse	1	0.176	n/a	6	39	ButtonPress	Win	False
377.963	0.5	Win2	0.7	n/a	Yes	2.986	n/a	n/a	GoodResponse	1	n/a	n/a	6	39	Blank	Win	False
378.463	1.45	Win2	0.7	n/a	Yes	2.986	n/a	5.0	GoodResponse	1	0.046	377.509	6	39	Feedback	Win	False
379.912	2.986	Win2	0.7	n/a	Yes	2.986	n/a	n/a	GoodResponse	1	0.0	n/a	6	39	ISIslide	Win	False
382.928	0.25	Win2	0.7073	0.0	Yes	2.722	0.028	2.0	GoodResponse	1	0.196	382.124	7	40	Cue	Win	False
383.124	0.3	Win2	0.7073	0.0	Yes	2.722	0.028	2.0	GoodResponse	1	0.196	n/a	7	40	ButtonPress	Win	False
383.178	3.95	Win2	0.7073	0.0	Yes	2.722	0.0	n/a	GoodResponse	1	n/a	n/a	7	40	Fixation	Win	False
387.126	0.19	Win2	0.7073	0.002	Yes	2.722	-0.002	2.0	GoodResponse	1	0.15	386.276	7	40	Target	Win	False
387.276	0.3	Win2	0.7073	0.002	Yes	2.722	-0.002	2.0	GoodResponse	1	0.15	n/a	7	40	ButtonPress	Win	False
387.326	0.51	Win2	0.7073	n/a	Yes	2.722	n/a	n/a	GoodResponse	1	n/a	n/a	7	40	Blank	Win	False
387.826	1.45	Win2	0.7073	n/a	Yes	2.722	n/a	5.0	GoodResponse	1	0.0	386.826	7	40	Feedback	Win	False
389.275	2.722	Win2	0.7073	n/a	Yes	2.722	n/a	n/a	GoodResponse	1	0.0	n/a	7	40	ISIslide	Win	False
392.025	0.25	Win2	0.6905	0.0	No	2.775	0.025	2.0	NoResponse	0	0.224	391.249	7	41	Cue	MissedWin	False
392.249	0.3	Win2	0.6905	0.0	No	2.775	0.025	2.0	NoResponse	0	0.224	n/a	7	41	ButtonPress	MissedWin	False
392.274	3.9	Win2	0.6905	0.001	No	2.775	-0.001	n/a	NoResponse	0	n/a	n/a	7	41	Fixation	MissedWin	False
396.173	0.18	Win2	0.6905	0.002	No	2.775	-0.002	2.0	NoResponse	0	0.191	395.364	7	41	Target	MissedWin	False
396.356	0.52	Win2	0.6905	n/a	No	2.775	n/a	n/a	NoResponse	0	n/a	n/a	7	41	Blank	MissedWin	False
396.364	0.3	Win2	0.6905	0.002	No	2.775	-0.002	2.0	NoResponse	0	0.191	n/a	7	41	ButtonPress	MissedWin	False
396.873	1.45	Win2	0.6905	n/a	No	2.775	n/a	5.0	NoResponse	0	0.027	395.9	7	41	Feedback	MissedWin	False
398.322	2.775	Win2	0.6905	n/a	No	2.775	n/a	n/a	NoResponse	0	0.0	n/a	7	41	ISIslide	MissedWin	False
401.121	0.25	Control	0.6744	0.0	No	2.929	0.021	n/a	NoResponse	0	n/a	n/a	7	42	Cue	Neutral	False
401.371	3.85	Control	0.6744	0.0	No	2.929	0.0	2.0	NoResponse	0	0.011	400.382	7	42	Fixation	Neutral	False
401.382	0.3	Control	0.6744	0.0	No	2.929	0.0	2.0	NoResponse	0	0.011	n/a	7	42	ButtonPress	Neutral	False
405.22	0.17	Control	0.6744	0.001	No	2.929	-0.001	2.0	NoResponse	0	0.202	404.422	7	42	Target	Neutral	False
405.387	0.53	Control	0.6744	n/a	No	2.929	n/a	n/a	NoResponse	0	n/a	n/a	7	42	Blank	Neutral	False
405.422	0.3	Control	0.6744	0.001	No	2.929	-0.001	2.0	NoResponse	0	0.202	n/a	7	42	ButtonPress	Neutral	False
405.92	1.45	Control	0.6744	n/a	No	2.929	n/a	5.0	NoResponse	0	0.006	404.926	7	42	Feedback	Neutral	False
407.369	2.929	Control	0.6744	n/a	No	2.929	n/a	n/a	NoResponse	0	0.0	n/a	7	42	ISIslide	Neutral	False
410.318	0.25	Win2	0.6591	0.0	No	3.182	0.018	2.0	NoResponse	0	0.205	409.523	7	43	Cue	MissedWin	False
410.523	0.3	Win2	0.6591	0.0	No	3.182	0.018	2.0	NoResponse	0	0.205	n/a	7	43	ButtonPress	MissedWin	False
410.568	4.0	Win2	0.6591	0.0	No	3.182	0.0	n/a	NoResponse	0	n/a	n/a	7	43	Fixation	MissedWin	False
414.567	0.16	Win2	0.6591	0.001	No	3.182	-0.001	2.0	NoResponse	0	0.195	413.762	7	43	Target	MissedWin	False
414.733	0.54	Win2	0.6591	n/a	No	3.182	n/a	n/a	NoResponse	0	n/a	n/a	7	43	Blank	MissedWin	False
414.762	0.3	Win2	0.6591	0.001	No	3.182	-0.001	2.0	NoResponse	0	0.195	n/a	7	43	ButtonPress	MissedWin	False
415.266	1.45	Win2	0.6591	n/a	No	3.182	n/a	5.0	NoResponse	0	0.024	414.29	7	43	Feedback	MissedWin	False
416.716	3.182	Win2	0.6591	n/a	No	3.182	n/a	2.0	NoResponse	0	2.329	n/a	7	43	ISIslide	MissedWin	False
419.898	0.25	Win2	0.6444	0.0	No	3.002	-0.002	2.0	NoResponse	0	0.092	418.99	7	44	Cue	MissedWin	False
419.99	0.3	Win2	0.6444	0.0	No	3.002	-0.002	2.0	NoResponse	0	0.092	n/a	7	44	ButtonPress	MissedWin	False
420.148	4.0	Win2	0.6444	0.0	No	3.002	0.0	2.0	NoResponse	0	3.257	422.405	7	44	Fixation	MissedWin	False
423.405	0.3	Win2	0.6444	0.0	No	3.002	0.0	2.0	NoResponse	0	3.257	n/a	7	44	ButtonPress	MissedWin	False
424.147	0.16	Win2	0.6444	0.001	No	3.002	-0.001	2.0	NoResponse	0	0.264	423.411	7	44	Target	MissedWin	False
424.313	0.54	Win2	0.6444	n/a	No	3.002	n/a	n/a	NoResponse	0	n/a	n/a	7	44	Blank	MissedWin	False
424.411	0.3	Win2	0.6444	0.001	No	3.002	-0.001	2.0	NoResponse	0	0.264	n/a	7	44	ButtonPress	MissedWin	False
424.847	1.45	Win2	0.6444	n/a	No	3.002	n/a	5.0	NoResponse	0	0.006	423.853	7	44	Feedback	MissedWin	False
426.296	3.002	Win2	0.6444	n/a	No	3.002	n/a	n/a	NoResponse	0	0.0	n/a	7	44	ISIslide	MissedWin	False
429.328	0.25	Control	0.6304	0.0	No	2.872	0.028	2.0	NoResponse	0	0.24	428.568	7	45	Cue	Neutral	False
429.568	0.3	Control	0.6304	0.0	No	2.872	0.028	2.0	NoResponse	0	0.24	n/a	7	45	ButtonPress	Neutral	False
429.578	4.1	Control	0.6304	0.0	No	2.872	0.0	n/a	NoResponse	0	n/a	n/a	7	45	Fixation	Neutral	False
433.677	0.17	Control	0.6304	0.001	No	2.872	-0.001	2.0	NoResponse	0	0.241	432.918	7	45	Target	Neutral	False
433.843	0.53	Control	0.6304	n/a	No	2.872	n/a	n/a	NoResponse	0	n/a	n/a	7	45	Blank	Neutral	False
433.918	0.3	Control	0.6304	0.001	No	2.872	-0.001	2.0	NoResponse	0	0.241	n/a	7	45	ButtonPress	Neutral	False
434.377	1.45	Control	0.6304	n/a	No	2.872	n/a	5.0	NoResponse	0	0.034	433.411	7	45	Feedback	Neutral	False
435.826	2.872	Control	0.6304	n/a	No	2.872	n/a	n/a	NoResponse	0	0.0	n/a	7	45	ISIslide	Neutral	False
438.725	0.25	Lose2	0.617	0.0	No	3.375	0.025	2.0	NoResponse	-1	0.207	437.932	6	46	Cue	Loss	False
438.932	0.3	Lose2	0.617	0.0	No	3.375	0.025	2.0	NoResponse	-1	0.207	n/a	6	46	ButtonPress	Loss	False
438.975	4.0	Lose2	0.617	0.0	No	3.375	0.0	2.0	NoResponse	-1	3.688	441.663	6	46	Fixation	Loss	False
442.663	0.3	Lose2	0.617	0.0	No	3.375	0.0	2.0	NoResponse	-1	3.688	n/a	6	46	ButtonPress	Loss	False
442.974	0.18	Lose2	0.617	0.001	No	3.375	-0.001	2.0	NoResponse	-1	0.236	442.21	6	46	Target	Loss	False
443.157	0.52	Lose2	0.617	n/a	No	3.375	n/a	n/a	NoResponse	-1	n/a	n/a	6	46	Blank	Loss	False
443.21	0.3	Lose2	0.617	0.001	No	3.375	-0.001	2.0	NoResponse	-1	0.236	n/a	6	46	ButtonPress	Loss	False
443.673	1.45	Lose2	0.617	n/a	No	3.375	n/a	5.0	NoResponse	-1	0.007	442.68	6	46	Feedback	Loss	False
445.123	3.375	Lose2	0.617	n/a	No	3.375	n/a	n/a	NoResponse	-1	0.0	n/a	6	46	ISIslide	Loss	False
448.522	0.25	Lose2	0.6042000000000001	0.0	No	2.678	0.022	n/a	NoResponse	-1	n/a	n/a	5	47	Cue	Loss	False
448.772	4.0	Lose2	0.6042000000000001	0.0	No	2.678	0.0	2.0	NoResponse	-1	0.037	447.809	5	47	Fixation	Loss	False
448.809	0.3	Lose2	0.6042000000000001	0.0	No	2.678	0.0	2.0	NoResponse	-1	0.037	n/a	5	47	ButtonPress	Loss	False
452.77	0.19	Lose2	0.6042000000000001	0.002	No	2.678	-0.002	2.0	NoResponse	-1	0.208	451.978	5	47	Target	Loss	False
452.97	0.51	Lose2	0.6042000000000001	n/a	No	2.678	n/a	n/a	NoResponse	-1	n/a	n/a	5	47	Blank	Loss	False
452.978	0.3	Lose2	0.6042000000000001	0.002	No	2.678	-0.002	2.0	NoResponse	-1	0.208	n/a	5	47	ButtonPress	Loss	False
453.47	1.45	Lose2	0.6042000000000001	n/a	No	2.678	n/a	5.0	NoResponse	-1	0.015	452.485	5	47	Feedback	Loss	False
454.919	2.678	Lose2	0.6042000000000001	n/a	No	2.678	n/a	n/a	NoResponse	-1	0.0	n/a	5	47	ISIslide	Loss	False
457.618	0.25	Lose2	0.6122	0.001	Yes	3.032	0.018	2.0	GoodResponse	0	0.222	456.84	5	48	Cue	AvoidedLoss	False
457.84	0.3	Lose2	0.6122	0.001	Yes	3.032	0.018	2.0	GoodResponse	0	0.222	n/a	5	48	ButtonPress	AvoidedLoss	False
457.868	3.95	Lose2	0.6122	0.0	Yes	3.032	0.0	n/a	GoodResponse	0	n/a	n/a	5	48	Fixation	AvoidedLoss	False
461.817	0.2	Lose2	0.6122	0.001	Yes	3.032	-0.001	2.0	GoodResponse	0	0.194	461.011	5	48	Target	AvoidedLoss	False
462.011	0.3	Lose2	0.6122	0.001	Yes	3.032	-0.001	2.0	GoodResponse	0	0.194	n/a	5	48	ButtonPress	AvoidedLoss	False
462.017	0.5	Lose2	0.6122	n/a	Yes	3.032	n/a	n/a	GoodResponse	0	n/a	n/a	5	48	Blank	AvoidedLoss	False
462.517	1.45	Lose2	0.6122	n/a	Yes	3.032	n/a	5.0	GoodResponse	0	0.041	461.558	5	48	Feedback	AvoidedLoss	False
463.966	3.032	Lose2	0.6122	n/a	Yes	3.032	n/a	n/a	GoodResponse	0	0.0	n/a	5	48	ISIslide	AvoidedLoss	False
467.015	0.25	Control	0.62	0.0	Yes	2.885	0.015	n/a	GoodResponse	0	n/a	n/a	5	49	Cue	Neutral	False
467.265	4.0	Control	0.62	0.0	Yes	2.885	0.0	2.0	GoodResponse	0	0.008	466.273	5	49	Fixation	Neutral	False
467.273	0.3	Control	0.62	0.0	Yes	2.885	0.0	2.0	GoodResponse	0	0.008	n/a	5	49	ButtonPress	Neutral	False
471.264	0.21	Control	0.62	0.001	Yes	2.885	-0.001	2.0	GoodResponse	0	0.161	470.425	5	49	Target	Neutral	False
471.425	0.3	Control	0.62	0.001	Yes	2.885	-0.001	2.0	GoodResponse	0	0.161	n/a	5	49	ButtonPress	Neutral	False
471.48	0.49	Control	0.62	n/a	Yes	2.885	n/a	n/a	GoodResponse	0	n/a	n/a	5	49	Blank	Neutral	False
471.964	1.45	Control	0.62	n/a	Yes	2.885	n/a	5.0	GoodResponse	0	0.009	470.973	5	49	Feedback	Neutral	False
473.413	2.885	Control	0.62	n/a	Yes	2.885	n/a	n/a	GoodResponse	0	0.0	n/a	5	49	ISIslide	Neutral	False
476.329	0.25	Control	0.6275	0.0	Yes	2.771	0.029	2.0	GoodResponse	0	0.206	475.535	5	50	Cue	Neutral	False
476.535	0.3	Control	0.6275	0.0	Yes	2.771	0.029	2.0	GoodResponse	0	0.206	n/a	5	50	ButtonPress	Neutral	False
476.579	4.0	Control	0.6275	0.0	Yes	2.771	0.0	n/a	GoodResponse	0	n/a	n/a	5	50	Fixation	Neutral	False
480.577	0.22	Control	0.6275	0.002	Yes	2.771	-0.002	2.0	GoodResponse	0	0.206	479.783	5	50	Target	Neutral	False
480.783	0.3	Control	0.6275	0.002	Yes	2.771	-0.002	2.0	GoodResponse	0	0.206	n/a	5	50	ButtonPress	Neutral	False
480.81	0.48	Control	0.6275	n/a	Yes	2.771	n/a	n/a	GoodResponse	0	n/a	n/a	5	50	Blank	Neutral	False
481.277	1.45	Control	0.6275	n/a	Yes	2.771	n/a	5.0	GoodResponse	0	0.013	480.29	5	50	Feedback	Neutral	False
482.726	2.771	Control	0.6275	n/a	Yes	2.771	n/a	n/a	GoodResponse	0	0.0	n/a	5	50	ISIslide	Neutral	False
485.526	0.25	Control	0.6154	0.0	No	2.724	0.026	2.0	NoResponse	0	0.246	484.772	5	51	Cue	Neutral	False
485.772	0.3	Control	0.6154	0.0	No	2.724	0.026	2.0	NoResponse	0	0.246	n/a	5	51	ButtonPress	Neutral	False
485.775	3.95	Control	0.6154	0.001	No	2.724	-0.001	n/a	NoResponse	0	n/a	n/a	5	51	Fixation	Neutral	False
489.724	0.23	Control	0.6154	0.002	No	2.724	-0.002	2.0	NoResponse	0	0.305	489.029	5	51	Target	Neutral	False
489.957	0.47	Control	0.6154	n/a	No	2.724	n/a	n/a	NoResponse	0	n/a	n/a	5	51	Blank	Neutral	False
490.029	0.3	Control	0.6154	0.002	No	2.724	-0.002	2.0	NoResponse	0	0.305	n/a	5	51	ButtonPress	Neutral	False
490.424	1.45	Control	0.6154	n/a	No	2.724	n/a	5.0	NoResponse	0	0.037	489.461	5	51	Feedback	Neutral	False
491.873	2.724	Control	0.6154	n/a	No	2.724	n/a	n/a	NoResponse	0	0.0	n/a	5	51	ISIslide	Neutral	False
494.622	0.25	Control	0.6225999999999999	0.0	Yes	2.628	0.022	n/a	GoodResponse	0	n/a	n/a	5	52	Cue	Neutral	False
494.872	4.05	Control	0.6225999999999999	0.0	Yes	2.628	0.0	2.0	GoodResponse	0	0.029	493.901	5	52	Fixation	Neutral	False
494.901	0.3	Control	0.6225999999999999	0.0	Yes	2.628	0.0	2.0	GoodResponse	0	0.029	n/a	5	52	ButtonPress	Neutral	False
498.921	0.24	Control	0.6225999999999999	0.001	Yes	2.628	-0.001	2.0	GoodResponse	0	0.225	498.146	5	52	Target	Neutral	False
499.146	0.3	Control	0.6225999999999999	0.001	Yes	2.628	-0.001	2.0	GoodResponse	0	0.225	n/a	5	52	ButtonPress	Neutral	False
499.171	0.46	Control	0.6225999999999999	n/a	Yes	2.628	n/a	n/a	GoodResponse	0	n/a	n/a	5	52	Blank	Neutral	False
499.621	1.45	Control	0.6225999999999999	n/a	Yes	2.628	n/a	5.0	GoodResponse	0	0.01	498.631	5	52	Feedback	Neutral	False
501.07	2.628	Control	0.6225999999999999	n/a	Yes	2.628	n/a	n/a	GoodResponse	0	0.0	n/a	5	52	ISIslide	Neutral	False
503.719	0.25	Win2	0.6296	0.0	Yes	2.931	0.019	2.0	GoodResponse	1	0.214	502.933	6	53	Cue	Win	False
503.933	0.3	Win2	0.6296	0.0	Yes	2.931	0.019	2.0	GoodResponse	1	0.214	n/a	6	53	ButtonPress	Win	False
503.969	4.05	Win2	0.6296	0.0	Yes	2.931	0.0	n/a	GoodResponse	1	n/a	n/a	6	53	Fixation	Win	False
508.018	0.25	Win2	0.6296	0.001	Yes	2.931	-0.001	2.0	GoodResponse	1	0.175	507.193	6	53	Target	Win	False
508.193	0.3	Win2	0.6296	0.001	Yes	2.931	-0.001	2.0	GoodResponse	1	0.175	n/a	6	53	ButtonPress	Win	False
508.268	0.45	Win2	0.6296	n/a	Yes	2.931	n/a	n/a	GoodResponse	1	n/a	n/a	6	53	Blank	Win	False
508.718	1.45	Win2	0.6296	n/a	Yes	2.931	n/a	5.0	GoodResponse	1	0.035	507.753	6	53	Feedback	Win	False
510.167	2.931	Win2	0.6296	n/a	Yes	2.931	n/a	n/a	GoodResponse	1	0.0	n/a	6	53	ISIslide	Win	False
513.116	0.25	Win2	0.6364	0.0	Yes	2.734	0.016	2.0	GoodResponse	1	0.228	512.344	7	54	Cue	Win	False
513.344	0.3	Win2	0.6364	0.0	Yes	2.734	0.016	2.0	GoodResponse	1	0.228	n/a	7	54	ButtonPress	Win	False
513.366	3.95	Win2	0.6364	0.0	Yes	2.734	0.0	n/a	GoodResponse	1	n/a	n/a	7	54	Fixation	Win	False
517.315	0.26	Win2	0.6364	0.001	Yes	2.734	-0.001	2.0	GoodResponse	1	0.211	516.526	7	54	Target	Win	False
517.526	0.3	Win2	0.6364	0.001	Yes	2.734	-0.001	2.0	GoodResponse	1	0.211	n/a	7	54	ButtonPress	Win	False
517.581	0.44	Win2	0.6364	n/a	Yes	2.734	n/a	n/a	GoodResponse	1	n/a	n/a	7	54	Blank	Win	False
518.014	1.45	Win2	0.6364	n/a	Yes	2.734	n/a	5.0	GoodResponse	1	0.007	517.021	7	54	Feedback	Win	False
519.464	2.734	Win2	0.6364	n/a	Yes	2.734	n/a	n/a	GoodResponse	1	0.0	n/a	7	54	ISIslide	Win	False
522.213	0.25	Control	0.6429	0.0	Yes	3.037	0.013	2.0	GoodResponse	0	0.228	521.441	7	55	Cue	Neutral	False
522.441	0.3	Control	0.6429	0.0	Yes	3.037	0.013	2.0	GoodResponse	0	0.228	n/a	7	55	ButtonPress	Neutral	False
522.463	3.95	Control	0.6429	0.0	Yes	3.037	0.0	n/a	GoodResponse	0	n/a	n/a	7	55	Fixation	Neutral	False
526.411	0.27	Control	0.6429	0.002	Yes	3.037	-0.002	2.0	GoodResponse	0	0.217	525.628	7	55	Target	Neutral	False
526.628	0.3	Control	0.6429	0.002	Yes	3.037	-0.002	2.0	GoodResponse	0	0.217	n/a	7	55	ButtonPress	Neutral	False
526.695	0.43	Control	0.6429	n/a	Yes	3.037	n/a	n/a	GoodResponse	0	n/a	n/a	7	55	Blank	Neutral	False
527.111	1.45	Control	0.6429	n/a	Yes	3.037	n/a	5.0	GoodResponse	0	0.032	526.143	7	55	Feedback	Neutral	False
528.561	3.037	Control	0.6429	n/a	Yes	3.037	n/a	n/a	GoodResponse	0	0.0	n/a	7	55	ISIslide	Neutral	False
531.626	0.25	Control	0.6491	0.0	Yes	2.824	0.026	2.0	GoodResponse	0	0.206	530.832	7	56	Cue	Neutral	False
531.832	0.3	Control	0.6491	0.0	Yes	2.824	0.026	2.0	GoodResponse	0	0.206	n/a	7	56	ButtonPress	Neutral	False
531.876	3.95	Control	0.6491	0.0	Yes	2.824	0.0	n/a	GoodResponse	0	n/a	n/a	7	56	Fixation	Neutral	False
535.825	0.28	Control	0.6491	0.001	Yes	2.824	-0.001	2.0	GoodResponse	0	0.208	535.033	7	56	Target	Neutral	False
536.033	0.3	Control	0.6491	0.001	Yes	2.824	-0.001	2.0	GoodResponse	0	0.208	n/a	7	56	ButtonPress	Neutral	False
536.108	0.42	Control	0.6491	n/a	Yes	2.824	n/a	n/a	GoodResponse	0	n/a	n/a	7	56	Blank	Neutral	False
536.525	1.45	Control	0.6491	n/a	Yes	2.824	n/a	5.0	GoodResponse	0	0.033	535.558	7	56	Feedback	Neutral	False
537.974	2.824	Control	0.6491	n/a	Yes	2.824	n/a	n/a	GoodResponse	0	0.0	n/a	7	56	ISIslide	Neutral	False
540.823	0.25	Control	0.6552	0.0	Yes	3.477	0.023	2.0	GoodResponse	0	0.181	540.004	7	57	Cue	Neutral	False
541.004	0.3	Control	0.6552	0.0	Yes	3.477	0.023	2.0	GoodResponse	0	0.181	n/a	7	57	ButtonPress	Neutral	False
541.073	4.0	Control	0.6552	0.0	Yes	3.477	0.0	n/a	GoodResponse	0	n/a	n/a	7	57	Fixation	Neutral	False
545.072	0.29	Control	0.6552	0.001	Yes	3.477	-0.001	2.0	GoodResponse	0	0.201	544.273	7	57	Target	Neutral	False
545.273	0.3	Control	0.6552	0.001	Yes	3.477	-0.001	2.0	GoodResponse	0	0.201	n/a	7	57	ButtonPress	Neutral	False
545.371	0.41	Control	0.6552	n/a	Yes	3.477	n/a	n/a	GoodResponse	0	n/a	n/a	7	57	Blank	Neutral	False
545.771	1.45	Control	0.6552	n/a	Yes	3.477	n/a	5.0	GoodResponse	0	0.007	544.778	7	57	Feedback	Neutral	False
547.221	3.477	Control	0.6552	n/a	Yes	3.477	n/a	n/a	GoodResponse	0	0.0	n/a	7	57	ISIslide	Neutral	False
550.72	0.25	Win2	0.6609999999999999	0.0	Yes	2.73	0.02	2.0	GoodResponse	1	0.233	549.953	8	58	Cue	Win	False
550.953	0.3	Win2	0.6609999999999999	0.0	Yes	2.73	0.02	2.0	GoodResponse	1	0.233	n/a	8	58	ButtonPress	Win	False
550.97	4.05	Win2	0.6609999999999999	0.0	Yes	2.73	0.0	n/a	GoodResponse	1	n/a	n/a	8	58	Fixation	Win	False
555.018	0.29	Win2	0.6609999999999999	0.002	Yes	2.73	-0.002	2.0	GoodResponse	1	0.194	554.212	8	58	Target	Win	False
555.212	0.3	Win2	0.6609999999999999	0.002	Yes	2.73	-0.002	2.0	GoodResponse	1	0.194	n/a	8	58	ButtonPress	Win	False
555.318	0.41	Win2	0.6609999999999999	n/a	Yes	2.73	n/a	n/a	GoodResponse	1	n/a	n/a	8	58	Blank	Win	False
555.718	1.45	Win2	0.6609999999999999	n/a	Yes	2.73	n/a	5.0	GoodResponse	1	0.01	554.728	8	58	Feedback	Win	False
557.167	2.73	Win2	0.6609999999999999	n/a	Yes	2.73	n/a	n/a	GoodResponse	1	0.0	n/a	8	58	ISIslide	Win	False
559.916	0.25	Lose2	0.6667000000000001	0.001	Yes	2.684	0.016	2.0	GoodResponse	0	0.2	559.116	8	59	Cue	AvoidedLoss	False
560.116	0.3	Lose2	0.6667000000000001	0.001	Yes	2.684	0.016	2.0	GoodResponse	0	0.2	n/a	8	59	ButtonPress	AvoidedLoss	False
560.166	4.0	Lose2	0.6667000000000001	0.0	Yes	2.684	0.0	n/a	GoodResponse	0	n/a	n/a	8	59	Fixation	AvoidedLoss	False
564.165	0.29	Lose2	0.6667000000000001	0.001	Yes	2.684	-0.001	2.0	GoodResponse	0	0.188	563.353	8	59	Target	AvoidedLoss	False
564.353	0.3	Lose2	0.6667000000000001	0.001	Yes	2.684	-0.001	2.0	GoodResponse	0	0.188	n/a	8	59	ButtonPress	AvoidedLoss	False
564.465	0.41	Lose2	0.6667000000000001	n/a	Yes	2.684	n/a	n/a	GoodResponse	0	n/a	n/a	8	59	Blank	AvoidedLoss	False
564.865	1.45	Lose2	0.6667000000000001	n/a	Yes	2.684	n/a	5.0	GoodResponse	0	0.034	563.899	8	59	Feedback	AvoidedLoss	False
566.314	2.684	Lose2	0.6667000000000001	n/a	Yes	2.684	n/a	n/a	GoodResponse	0	0.0	n/a	8	59	ISIslide	AvoidedLoss	False
569.013	0.25	Control	0.6720999999999999	0.0	Yes	2.687	0.013	n/a	GoodResponse	0	n/a	n/a	8	60	Cue	Neutral	False
569.263	4.0	Control	0.6720999999999999	0.0	Yes	2.687	0.0	2.0	GoodResponse	0	0.035	568.298	8	60	Fixation	Neutral	False
569.298	0.3	Control	0.6720999999999999	0.0	Yes	2.687	0.0	2.0	GoodResponse	0	0.035	n/a	8	60	ButtonPress	Neutral	False
573.262	0.28	Control	0.6720999999999999	0.001	Yes	2.687	-0.001	2.0	GoodResponse	0	0.149	572.411	8	60	Target	Neutral	False
573.411	0.3	Control	0.6720999999999999	0.001	Yes	2.687	-0.001	2.0	GoodResponse	0	0.149	n/a	8	60	ButtonPress	Neutral	False
573.545	0.42	Control	0.6720999999999999	n/a	Yes	2.687	n/a	n/a	GoodResponse	0	n/a	n/a	8	60	Blank	Neutral	False
573.962	1.45	Control	0.6720999999999999	n/a	Yes	2.687	n/a	5.0	GoodResponse	0	0.01	572.972	8	60	Feedback	Neutral	False
575.411	2.687	Control	0.6720999999999999	n/a	Yes	2.687	n/a	n/a	GoodResponse	0	0.0	n/a	8	60	ISIslide	Neutral	False
578.127	0.25	Lose2	0.6774	0.0	Yes	2.973	0.027	2.0	GoodResponse	0	0.236	577.363	8	61	Cue	AvoidedLoss	False
578.363	0.3	Lose2	0.6774	0.0	Yes	2.973	0.027	2.0	GoodResponse	0	0.236	n/a	8	61	ButtonPress	AvoidedLoss	False
578.377	4.0	Lose2	0.6774	0.0	Yes	2.973	0.0	n/a	GoodResponse	0	n/a	n/a	8	61	Fixation	AvoidedLoss	False
582.375	0.27	Lose2	0.6774	0.002	Yes	2.973	-0.002	2.0	GoodResponse	0	0.19	581.565	8	61	Target	AvoidedLoss	False
582.565	0.3	Lose2	0.6774	0.002	Yes	2.973	-0.002	2.0	GoodResponse	0	0.19	n/a	8	61	ButtonPress	AvoidedLoss	False
582.659	0.43	Lose2	0.6774	n/a	Yes	2.973	n/a	n/a	GoodResponse	0	n/a	n/a	8	61	Blank	AvoidedLoss	False
583.075	1.45	Lose2	0.6774	n/a	Yes	2.973	n/a	5.0	GoodResponse	0	0.019	582.094	8	61	Feedback	AvoidedLoss	False
584.525	2.973	Lose2	0.6774	n/a	Yes	2.973	n/a	n/a	GoodResponse	0	0.0	n/a	8	61	ISIslide	AvoidedLoss	False
587.524	0.25	Lose2	0.6667000000000001	0.0	No	2.876	0.024	2.0	NoResponse	-1	0.237	586.761	7	62	Cue	Loss	False
587.761	0.3	Lose2	0.6667000000000001	0.0	No	2.876	0.024	2.0	NoResponse	-1	0.237	n/a	7	62	ButtonPress	Loss	False
587.773	3.9	Lose2	0.6667000000000001	0.001	No	2.876	-0.001	2.0	NoResponse	-1	3.771	590.544	7	62	Fixation	Loss	False
591.544	0.3	Lose2	0.6667000000000001	0.001	No	2.876	-0.001	2.0	NoResponse	-1	3.771	n/a	7	62	ButtonPress	Loss	False
591.672	0.26	Lose2	0.6667000000000001	0.002	No	2.876	-0.002	2.0	NoResponse	-1	0.612	591.284	7	62	Target	Loss	False
591.939	0.44	Lose2	0.6667000000000001	n/a	No	2.876	n/a	n/a	NoResponse	-1	n/a	n/a	7	62	Blank	Loss	False
592.284	0.3	Lose2	0.6667000000000001	0.002	No	2.876	-0.002	2.0	NoResponse	-1	0.612	n/a	7	62	ButtonPress	Loss	False
592.372	1.45	Lose2	0.6667000000000001	n/a	No	2.876	n/a	5.0	NoResponse	-1	0.039	591.411	7	62	Feedback	Loss	False
593.821	2.876	Lose2	0.6667000000000001	n/a	No	2.876	n/a	n/a	NoResponse	-1	0.0	n/a	7	62	ISIslide	Loss	False
596.72	0.25	Lose2	0.6718999999999999	0.0	Yes	2.63	0.02	n/a	GoodResponse	0	n/a	n/a	7	63	Cue	AvoidedLoss	False
596.97	4.05	Lose2	0.6718999999999999	0.0	Yes	2.63	0.0	2.0	GoodResponse	0	0.021	595.991	7	63	Fixation	AvoidedLoss	False
596.991	0.3	Lose2	0.6718999999999999	0.0	Yes	2.63	0.0	2.0	GoodResponse	0	0.021	n/a	7	63	ButtonPress	AvoidedLoss	False
601.019	0.25	Lose2	0.6718999999999999	0.001	Yes	2.63	-0.001	2.0	GoodResponse	0	0.182	600.201	7	63	Target	AvoidedLoss	False
601.201	0.3	Lose2	0.6718999999999999	0.001	Yes	2.63	-0.001	2.0	GoodResponse	0	0.182	n/a	7	63	ButtonPress	AvoidedLoss	False
601.269	0.45	Lose2	0.6718999999999999	n/a	Yes	2.63	n/a	n/a	GoodResponse	0	n/a	n/a	7	63	Blank	AvoidedLoss	False
601.719	1.45	Lose2	0.6718999999999999	n/a	Yes	2.63	n/a	5.0	GoodResponse	0	0.01	600.729	7	63	Feedback	AvoidedLoss	False
603.168	2.63	Lose2	0.6718999999999999	n/a	Yes	2.63	n/a	n/a	GoodResponse	0	0.0	n/a	7	63	ISIslide	AvoidedLoss	False
605.817	0.25	Win2	0.6769	0.0	Yes	3.133	0.017	2.0	GoodResponse	1	0.195	605.012	8	64	Cue	Win	False
606.012	0.3	Win2	0.6769	0.0	Yes	3.133	0.017	2.0	GoodResponse	1	0.195	n/a	8	64	ButtonPress	Win	False
606.067	4.15	Win2	0.6769	0.0	Yes	3.133	0.0	2.0	GoodResponse	1	3.671	608.738	8	64	Fixation	Win	False
609.738	0.3	Win2	0.6769	0.0	Yes	3.133	0.0	2.0	GoodResponse	1	3.671	n/a	8	64	ButtonPress	Win	False
610.216	0.24	Win2	0.6769	0.001	Yes	3.133	-0.001	2.0	GoodResponse	1	0.205	609.421	8	64	Target	Win	False
610.421	0.3	Win2	0.6769	0.001	Yes	3.133	-0.001	2.0	GoodResponse	1	0.205	n/a	8	64	ButtonPress	Win	False
610.466	0.46	Win2	0.6769	n/a	Yes	3.133	n/a	n/a	GoodResponse	1	n/a	n/a	8	64	Blank	Win	False
610.915	1.45	Win2	0.6769	n/a	Yes	3.133	n/a	5.0	GoodResponse	1	0.032	609.947	8	64	Feedback	Win	False
612.365	3.133	Win2	0.6769	n/a	Yes	3.133	n/a	n/a	GoodResponse	1	0.0	n/a	8	64	ISIslide	Win	False
615.514	0.25	Control	0.6667000000000001	0.0	No	2.786	0.014	2.0	NoResponse	0	0.232	614.746	8	65	Cue	Neutral	False
615.746	0.3	Control	0.6667000000000001	0.0	No	2.786	0.014	2.0	NoResponse	0	0.232	n/a	8	65	ButtonPress	Neutral	False
615.764	4.0	Control	0.6667000000000001	0.0	No	2.786	0.0	n/a	NoResponse	0	n/a	n/a	8	65	Fixation	Neutral	False
619.762	0.23	Control	0.6667000000000001	0.002	No	2.786	-0.002	2.0	NoResponse	0	0.241	619.003	8	65	Target	Neutral	False
619.996	0.47	Control	0.6667000000000001	n/a	No	2.786	n/a	n/a	NoResponse	0	n/a	n/a	8	65	Blank	Neutral	False
620.003	0.3	Control	0.6667000000000001	0.002	No	2.786	-0.002	2.0	NoResponse	0	0.241	n/a	8	65	ButtonPress	Neutral	False
620.462	1.45	Control	0.6667000000000001	n/a	No	2.786	n/a	5.0	NoResponse	0	0.046	619.508	8	65	Feedback	Neutral	False
621.912	2.786	Control	0.6667000000000001	n/a	No	2.786	n/a	n/a	NoResponse	0	0.0	n/a	8	65	ISIslide	Neutral	False
624.727	0.25	Win2	0.6567000000000001	0.001	No	2.773	0.027	2.0	NoResponse	0	0.19	623.917	8	66	Cue	MissedWin	False
624.917	0.3	Win2	0.6567000000000001	0.001	No	2.773	0.027	2.0	NoResponse	0	0.19	n/a	8	66	ButtonPress	MissedWin	False
624.977	3.9	Win2	0.6567000000000001	0.0	No	2.773	0.0	n/a	NoResponse	0	n/a	n/a	8	66	Fixation	MissedWin	False
628.876	0.22	Win2	0.6567000000000001	0.001	No	2.773	-0.001	2.0	NoResponse	0	0.227	628.103	8	66	Target	MissedWin	False
629.093	0.48	Win2	0.6567000000000001	n/a	No	2.773	n/a	n/a	NoResponse	0	n/a	n/a	8	66	Blank	MissedWin	False
629.103	0.3	Win2	0.6567000000000001	0.001	No	2.773	-0.001	2.0	NoResponse	0	0.227	n/a	8	66	ButtonPress	MissedWin	False
629.576	1.45	Win2	0.6567000000000001	n/a	No	2.773	n/a	5.0	NoResponse	0	0.006	628.582	8	66	Feedback	MissedWin	False
631.025	2.773	Win2	0.6567000000000001	n/a	No	2.773	n/a	n/a	NoResponse	0	0.0	n/a	8	66	ISIslide	MissedWin	False
633.824	0.25	Control	0.6470999999999999	0.0	No	2.726	0.024	2.0	NoResponse	0	0.242	633.066	8	67	Cue	Neutral	False
634.066	0.3	Control	0.6470999999999999	0.0	No	2.726	0.024	2.0	NoResponse	0	0.242	n/a	8	67	ButtonPress	Neutral	False
634.074	3.95	Control	0.6470999999999999	0.0	No	2.726	0.0	n/a	NoResponse	0	n/a	n/a	8	67	Fixation	Neutral	False
638.023	0.22	Control	0.6470999999999999	0.001	No	2.726	-0.001	2.0	NoResponse	0	0.243	637.266	8	67	Target	Neutral	False
638.239	0.48	Control	0.6470999999999999	n/a	No	2.726	n/a	n/a	NoResponse	0	n/a	n/a	8	67	Blank	Neutral	False
638.266	0.3	Control	0.6470999999999999	0.001	No	2.726	-0.001	2.0	NoResponse	0	0.243	n/a	8	67	ButtonPress	Neutral	False
638.723	1.45	Control	0.6470999999999999	n/a	No	2.726	n/a	5.0	NoResponse	0	0.029	637.752	8	67	Feedback	Neutral	False
640.172	2.726	Control	0.6470999999999999	n/a	No	2.726	n/a	n/a	NoResponse	0	0.0	n/a	8	67	ISIslide	Neutral	False
642.921	0.25	Win2	0.6377	0.0	No	3.079	0.021	2.0	NoResponse	0	0.19	642.111	8	68	Cue	MissedWin	False
643.111	0.3	Win2	0.6377	0.0	No	3.079	0.021	2.0	NoResponse	0	0.19	n/a	8	68	ButtonPress	MissedWin	False
643.171	4.0	Win2	0.6377	0.0	No	3.079	0.0	2.0	NoResponse	0	3.949	646.12	8	68	Fixation	MissedWin	False
647.12	0.3	Win2	0.6377	0.0	No	3.079	0.0	2.0	NoResponse	0	3.949	n/a	8	68	ButtonPress	MissedWin	False
647.17	0.23	Win2	0.6377	0.001	No	3.079	-0.001	n/a	NoResponse	0	n/a	n/a	8	68	Target	MissedWin	False
647.403	0.47	Win2	0.6377	n/a	No	3.079	n/a	n/a	NoResponse	0	n/a	n/a	8	68	Blank	MissedWin	False
647.869	1.45	Win2	0.6377	n/a	No	3.079	n/a	5.0	NoResponse	0	0.006	646.875	8	68	Feedback	MissedWin	False
649.319	3.079	Win2	0.6377	n/a	No	3.079	n/a	n/a	NoResponse	0	0.0	n/a	8	68	ISIslide	MissedWin	False
652.418	0.25	Win2	0.6429	0.0	Yes	3.232	0.018	n/a	GoodResponse	1	n/a	n/a	9	69	Cue	Win	False
652.668	3.95	Win2	0.6429	0.0	Yes	3.232	0.0	2.0	GoodResponse	1	0.047	651.715	9	69	Fixation	Win	False
652.715	0.3	Win2	0.6429	0.0	Yes	3.232	0.0	2.0	GoodResponse	1	0.047	n/a	9	69	ButtonPress	Win	False
656.616	0.24	Win2	0.6429	0.002	Yes	3.232	-0.002	2.0	GoodResponse	1	0.205	655.821	9	69	Target	Win	False
656.821	0.3	Win2	0.6429	0.002	Yes	3.232	-0.002	2.0	GoodResponse	1	0.205	n/a	9	69	ButtonPress	Win	False
656.866	0.46	Win2	0.6429	n/a	Yes	3.232	n/a	n/a	GoodResponse	1	n/a	n/a	9	69	Blank	Win	False
657.316	1.45	Win2	0.6429	n/a	Yes	3.232	n/a	5.0	GoodResponse	1	0.022	656.338	9	69	Feedback	Win	False
658.766	3.232	Win2	0.6429	n/a	Yes	3.232	n/a	n/a	GoodResponse	1	0.0	n/a	9	69	ISIslide	Win	False
662.014	0.25	Lose2	0.6479	0.001	Yes	3.036	0.014	2.0	GoodResponse	0	0.23	661.244	9	70	Cue	AvoidedLoss	False
662.244	0.3	Lose2	0.6479	0.001	Yes	3.036	0.014	2.0	GoodResponse	0	0.23	n/a	9	70	ButtonPress	AvoidedLoss	False
662.264	4.05	Lose2	0.6479	0.0	Yes	3.036	0.0	n/a	GoodResponse	0	n/a	n/a	9	70	Fixation	AvoidedLoss	False
666.313	0.25	Lose2	0.6479	0.001	Yes	3.036	-0.001	2.0	GoodResponse	0	0.207	665.52	9	70	Target	AvoidedLoss	False
666.52	0.3	Lose2	0.6479	0.001	Yes	3.036	-0.001	2.0	GoodResponse	0	0.207	n/a	9	70	ButtonPress	AvoidedLoss	False
666.563	0.45	Lose2	0.6479	n/a	Yes	3.036	n/a	n/a	GoodResponse	0	n/a	n/a	9	70	Blank	AvoidedLoss	False
667.013	1.45	Lose2	0.6479	n/a	Yes	3.036	n/a	5.0	GoodResponse	0	0.032	666.045	9	70	Feedback	AvoidedLoss	False
668.462	3.036	Lose2	0.6479	n/a	Yes	3.036	n/a	n/a	GoodResponse	0	0.0	n/a	9	70	ISIslide	AvoidedLoss	False
671.528	0.25	Win2	0.6528	0.0	Yes	2.722	0.028	2.0	GoodResponse	1	0.247	670.775	10	71	Cue	Win	False
671.775	0.3	Win2	0.6528	0.0	Yes	2.722	0.028	2.0	GoodResponse	1	0.247	n/a	10	71	ButtonPress	Win	False
671.778	4.05	Win2	0.6528	0.0	Yes	2.722	0.0	n/a	GoodResponse	1	n/a	n/a	10	71	Fixation	Win	False
675.826	0.26	Win2	0.6528	0.002	Yes	2.722	-0.002	2.0	GoodResponse	1	0.196	675.022	10	71	Target	Win	False
676.022	0.3	Win2	0.6528	0.002	Yes	2.722	-0.002	2.0	GoodResponse	1	0.196	n/a	10	71	ButtonPress	Win	False
676.093	0.44	Win2	0.6528	n/a	Yes	2.722	n/a	n/a	GoodResponse	1	n/a	n/a	10	71	Blank	Win	False
676.526	1.45	Win2	0.6528	n/a	Yes	2.722	n/a	5.0	GoodResponse	1	0.031	675.557	10	71	Feedback	Win	False
677.976	2.722	Win2	0.6528	n/a	Yes	2.722	n/a	n/a	GoodResponse	1	0.0	n/a	10	71	ISIslide	Win	False
680.725	0.25	Win2	0.6575	0.0	Yes	2.775	0.025	n/a	GoodResponse	1	n/a	n/a	11	72	Cue	Win	False
680.975	4.1	Win2	0.6575	0.0	Yes	2.775	0.0	2.0	GoodResponse	1	0.0	679.975	11	72	Fixation	Win	False
680.975	0.3	Win2	0.6575	0.0	Yes	2.775	0.0	2.0	GoodResponse	1	0.0	n/a	11	72	ButtonPress	Win	False
685.073	0.27	Win2	0.6575	0.002	Yes	2.775	-0.002	2.0	GoodResponse	1	0.19	684.263	11	72	Target	Win	False
685.263	0.3	Win2	0.6575	0.002	Yes	2.775	-0.002	2.0	GoodResponse	1	0.19	n/a	11	72	ButtonPress	Win	False
685.356	0.43	Win2	0.6575	n/a	Yes	2.775	n/a	n/a	GoodResponse	1	n/a	n/a	11	72	Blank	Win	False
685.773	1.45	Win2	0.6575	n/a	Yes	2.775	n/a	5.0	GoodResponse	1	0.007	684.78	11	72	Feedback	Win	False
687.222	2.775	Win2	0.6575	n/a	Yes	2.775	n/a	n/a	GoodResponse	1	0.0	n/a	11	72	ISIslide	Win	False
690.021	0.25	Win2	0.6622	0.001	Yes	2.679	0.021	2.0	GoodResponse	1	0.24	689.261	12	73	Cue	Win	False
690.261	0.3	Win2	0.6622	0.001	Yes	2.679	0.021	2.0	GoodResponse	1	0.24	n/a	12	73	ButtonPress	Win	False
690.271	4.0	Win2	0.6622	0.001	Yes	2.679	0.0	n/a	GoodResponse	1	n/a	n/a	12	73	Fixation	Win	False
694.27	0.27	Win2	0.6622	0.001	Yes	2.679	-0.001	2.0	GoodResponse	1	0.196	693.466	12	73	Target	Win	False
694.466	0.3	Win2	0.6622	0.001	Yes	2.679	-0.001	2.0	GoodResponse	1	0.196	n/a	12	73	ButtonPress	Win	False
694.537	0.43	Win2	0.6622	n/a	Yes	2.679	n/a	n/a	GoodResponse	1	n/a	n/a	12	73	Blank	Win	False
694.97	1.45	Win2	0.6622	n/a	Yes	2.679	n/a	5.0	GoodResponse	1	0.026	693.996	12	73	Feedback	Win	False
696.419	2.679	Win2	0.6622	n/a	Yes	2.679	n/a	n/a	GoodResponse	1	0.0	n/a	12	73	ISIslide	Win	False
699.118	0.25	Lose2	0.6667000000000001	0.0	Yes	2.632	0.018	2.0	GoodResponse	0	0.194	698.312	12	74	Cue	AvoidedLoss	False
699.312	0.3	Lose2	0.6667000000000001	0.0	Yes	2.632	0.018	2.0	GoodResponse	0	0.194	n/a	12	74	ButtonPress	AvoidedLoss	False
699.368	4.05	Lose2	0.6667000000000001	0.0	Yes	2.632	0.0	n/a	GoodResponse	0	n/a	n/a	12	74	Fixation	AvoidedLoss	False
703.417	0.27	Lose2	0.6667000000000001	0.001	Yes	2.632	-0.001	2.0	GoodResponse	0	0.224	702.641	12	74	Target	AvoidedLoss	False
703.641	0.3	Lose2	0.6667000000000001	0.001	Yes	2.632	-0.001	2.0	GoodResponse	0	0.224	n/a	12	74	ButtonPress	AvoidedLoss	False
703.683	0.43	Lose2	0.6667000000000001	n/a	Yes	2.632	n/a	n/a	GoodResponse	0	n/a	n/a	12	74	Blank	AvoidedLoss	False
704.117	1.45	Lose2	0.6667000000000001	n/a	Yes	2.632	n/a	5.0	GoodResponse	0	0.001	703.118	12	74	Feedback	AvoidedLoss	False
705.566	2.632	Lose2	0.6667000000000001	n/a	Yes	2.632	n/a	n/a	GoodResponse	0	0.0	n/a	12	74	ISIslide	AvoidedLoss	False
708.215	0.25	Lose2	0.6711	0.0	Yes	2.935	0.015	2.0	GoodResponse	0	0.246	707.461	12	75	Cue	AvoidedLoss	False
708.461	0.3	Lose2	0.6711	0.0	Yes	2.935	0.015	2.0	GoodResponse	0	0.246	n/a	12	75	ButtonPress	AvoidedLoss	False
708.465	3.95	Lose2	0.6711	0.0	Yes	2.935	0.0	n/a	GoodResponse	0	n/a	n/a	12	75	Fixation	AvoidedLoss	False
712.414	0.26	Lose2	0.6711	0.001	Yes	2.935	-0.001	2.0	GoodResponse	0	0.223	711.637	12	75	Target	AvoidedLoss	False
712.637	0.3	Lose2	0.6711	0.001	Yes	2.935	-0.001	2.0	GoodResponse	0	0.223	n/a	12	75	ButtonPress	AvoidedLoss	False
712.68	0.44	Lose2	0.6711	n/a	Yes	2.935	n/a	n/a	GoodResponse	0	n/a	n/a	12	75	Blank	AvoidedLoss	False
713.113	1.45	Lose2	0.6711	n/a	Yes	2.935	n/a	5.0	GoodResponse	0	0.03	712.143	12	75	Feedback	AvoidedLoss	False
714.563	2.935	Lose2	0.6711	n/a	Yes	2.935	n/a	n/a	GoodResponse	0	0.0	n/a	12	75	ISIslide	AvoidedLoss	False
717.512	0.25	Control	0.6753	0.0	Yes	3.238	0.012	n/a	GoodResponse	0	n/a	n/a	12	76	Cue	Neutral	False
717.762	4.05	Control	0.6753	0.0	Yes	3.238	0.0	2.0	GoodResponse	0	0.222	716.984	12	76	Fixation	Neutral	False
717.984	0.3	Control	0.6753	0.0	Yes	3.238	0.0	2.0	GoodResponse	0	0.222	n/a	12	76	ButtonPress	Neutral	False
721.81	0.25	Control	0.6753	0.002	Yes	3.238	-0.002	2.0	GoodResponse	0	0.204	721.014	12	76	Target	Neutral	False
722.014	0.3	Control	0.6753	0.002	Yes	3.238	-0.002	2.0	GoodResponse	0	0.204	n/a	12	76	ButtonPress	Neutral	False
722.06	0.45	Control	0.6753	n/a	Yes	3.238	n/a	n/a	GoodResponse	0	n/a	n/a	12	76	Blank	Neutral	False
722.51	1.45	Control	0.6753	n/a	Yes	3.238	n/a	5.0	GoodResponse	0	0.047	721.557	12	76	Feedback	Neutral	False
723.96	3.238	Control	0.6753	n/a	Yes	3.238	n/a	2.0	GoodResponse	0	2.873	n/a	12	76	ISIslide	Neutral	False
727.209	0.25	Lose2	0.6795	0.0	Yes	2.591	0.009	2.0	GoodResponse	0	0.19	726.399	12	77	Cue	AvoidedLoss	False
727.399	0.3	Lose2	0.6795	0.0	Yes	2.591	0.009	2.0	GoodResponse	0	0.19	n/a	12	77	ButtonPress	AvoidedLoss	False
727.459	3.95	Lose2	0.6795	0.0	Yes	2.591	0.0	n/a	GoodResponse	0	n/a	n/a	12	77	Fixation	AvoidedLoss	False
731.407	0.24	Lose2	0.6795	0.002	Yes	2.591	-0.002	2.0	GoodResponse	0	0.168	730.575	12	77	Target	AvoidedLoss	False
731.575	0.3	Lose2	0.6795	0.002	Yes	2.591	-0.002	2.0	GoodResponse	0	0.168	n/a	12	77	ButtonPress	AvoidedLoss	False
731.657	0.46	Lose2	0.6795	n/a	Yes	2.591	n/a	n/a	GoodResponse	0	n/a	n/a	12	77	Blank	AvoidedLoss	False
732.107	1.45	Lose2	0.6795	n/a	Yes	2.591	n/a	5.0	GoodResponse	0	0.011	731.118	12	77	Feedback	AvoidedLoss	False
733.556	2.591	Lose2	0.6795	n/a	Yes	2.591	n/a	n/a	GoodResponse	0	0.0	n/a	12	77	ISIslide	AvoidedLoss	False
