onset	duration	cue_type	current_mean_accuracy	duration_error	is_hit	isi_adjusted	onset_delay	response	response_type	reward	rt	rt_time	total_reward	trial_number	trial_phase	trial_type	one_press
11.099	0.25	Control	1.0	0.0	Yes	2.951	-0.001	n/a	GoodResponse	0	n/a	n/a	0	0	Cue	Neutral	True
11.349	3.85	Control	1.0	0.0	Yes	2.951	0.0	n/a	GoodResponse	0	n/a	n/a	0	0	Fixation	Neutral	True
15.198	0.4	Control	1.0	0.001	Yes	2.951	-0.001	4.0	GoodResponse	0	0.25	14.448	0	0	Target	Neutral	True
15.448	0.3	Control	1.0	0.001	Yes	2.951	-0.001	4.0	GoodResponse	0	0.25	n/a	0	0	ButtonPress	Neutral	True
15.598	0.3	Control	1.0	n/a	Yes	2.951	n/a	n/a	GoodResponse	0	n/a	n/a	0	0	Blank	Neutral	True
15.898	1.45	Control	1.0	n/a	Yes	2.951	n/a	5.0	GoodResponse	0	0.028	14.926	0	0	Feedback	Neutral	True
17.347	2.951	Control	1.0	n/a	Yes	2.951	n/a	n/a	GoodResponse	0	0.0	n/a	0	0	ISIslide	Neutral	True
20.329	0.25	Lose2	0.5	0.0	No	2.771	0.029	n/a	NoResponse	-1	n/a	n/a	-1	1	Cue	Loss	False
20.579	4.0	Lose2	0.5	0.0	No	2.771	0.0	n/a	NoResponse	-1	n/a	n/a	-1	1	Fixation	Loss	False
24.578	0.39	Lose2	0.5	0.001	No	2.771	-0.001	n/a	NoResponse	-1	n/a	n/a	-1	1	Target	Loss	False
24.978	0.31	Lose2	0.5	n/a	No	2.771	n/a	n/a	NoResponse	-1	n/a	n/a	-1	1	Blank	Loss	False
25.278	1.45	Lose2	0.5	n/a	No	2.771	n/a	5.0	NoResponse	-1	0.013	24.291	-1	1	Feedback	Loss	False
26.727	2.771	Lose2	0.5	n/a	No	2.771	n/a	n/a	NoResponse	-1	0.0	n/a	-1	1	ISIslide	Loss	False
29.526	0.25	Control	0.6667000000000001	0.0	Yes	2.574	0.026	n/a	GoodResponse	0	n/a	n/a	-1	2	Cue	Neutral	True
29.776	4.1	Control	0.6667000000000001	0.0	Yes	2.574	0.0	n/a	GoodResponse	0	n/a	n/a	-1	2	Fixation	Neutral	True
33.875	0.4	Control	0.6667000000000001	0.001	Yes	2.574	-0.001	4.0	GoodResponse	0	0.316	33.191	-1	2	Target	Neutral	True
34.191	0.3	Control	0.6667000000000001	0.001	Yes	2.574	-0.001	4.0	GoodResponse	0	0.316	n/a	-1	2	ButtonPress	Neutral	True
34.274	0.3	Control	0.6667000000000001	n/a	Yes	2.574	n/a	n/a	GoodResponse	0	n/a	n/a	-1	2	Blank	Neutral	True
34.574	1.45	Control	0.6667000000000001	n/a	Yes	2.574	n/a	5.0	GoodResponse	0	0.034	33.608	-1	2	Feedback	Neutral	True
36.024	2.574	Control	0.6667000000000001	n/a	Yes	2.574	n/a	n/a	GoodResponse	0	0.0	n/a	-1	2	ISIslide	Neutral	True
38.623	0.25	Win2	0.75	0.0	Yes	2.827	0.023	n/a	GoodResponse	1	n/a	n/a	0	3	Cue	Win	True
38.873	3.95	Win2	0.75	0.0	Yes	2.827	0.0	n/a	GoodResponse	1	n/a	n/a	0	3	Fixation	Win	True
42.821	0.39	Win2	0.75	0.002	Yes	2.827	-0.002	4.0	GoodResponse	1	0.24	42.061	0	3	Target	Win	True
43.061	0.3	Win2	0.75	0.002	Yes	2.827	-0.002	4.0	GoodResponse	1	0.24	n/a	0	3	ButtonPress	Win	True
43.221	0.31	Win2	0.75	n/a	Yes	2.827	n/a	n/a	GoodResponse	1	n/a	n/a	0	3	Blank	Win	True
43.521	1.45	Win2	0.75	n/a	Yes	2.827	n/a	5.0	GoodResponse	1	0.014	42.535	0	3	Feedback	Win	True
44.971	2.827	Win2	0.75	n/a	Yes	2.827	n/a	n/a	GoodResponse	1	0.0	n/a	0	3	ISIslide	Win	True
47.82	0.25	Win2	0.8	0.0	Yes	3.28	0.02	n/a	GoodResponse	1	n/a	n/a	1	4	Cue	Win	True
48.069	4.0	Win2	0.8	0.001	Yes	3.28	-0.001	n/a	GoodResponse	1	n/a	n/a	1	4	Fixation	Win	True
52.068	0.38	Win2	0.8	0.002	Yes	3.28	-0.002	4.0	GoodResponse	1	0.252	51.32	1	4	Target	Win	True
52.32	0.3	Win2	0.8	0.002	Yes	3.28	-0.002	4.0	GoodResponse	1	0.252	n/a	1	4	ButtonPress	Win	True
52.451	0.32	Win2	0.8	n/a	Yes	3.28	n/a	n/a	GoodResponse	1	n/a	n/a	1	4	Blank	Win	True
52.768	1.45	Win2	0.8	n/a	Yes	3.28	n/a	5.0	GoodResponse	1	0.036	51.804	1	4	Feedback	Win	True
54.217	3.28	Win2	0.8	n/a	Yes	3.28	n/a	n/a	GoodResponse	1	0.0	n/a	1	4	ISIslide	Win	True
57.516	0.25	Win2	0.8332999999999999	0.0	Yes	2.784	0.016	n/a	GoodResponse	1	n/a	n/a	2	5	Cue	Win	True
57.766	4.0	Win2	0.8332999999999999	0.0	Yes	2.784	0.0	n/a	GoodResponse	1	n/a	n/a	2	5	Fixation	Win	True
61.765	0.37	Win2	0.8332999999999999	0.001	Yes	2.784	-0.001	4.0	GoodResponse	1	0.229	60.994	2	5	Target	Win	True
61.994	0.3	Win2	0.8332999999999999	0.001	Yes	2.784	-0.001	4.0	GoodResponse	1	0.229	n/a	2	5	ButtonPress	Win	True
62.148	0.33	Win2	0.8332999999999999	n/a	Yes	2.784	n/a	n/a	GoodResponse	1	n/a	n/a	2	5	Blank	Win	True
62.464	1.45	Win2	0.8332999999999999	n/a	Yes	2.784	n/a	5.0	GoodResponse	1	0.046	61.51	2	5	Feedback	Win	True
63.914	2.784	Win2	0.8332999999999999	n/a	Yes	2.784	n/a	n/a	GoodResponse	1	0.0	n/a	2	5	ISIslide	Win	True
66.73	0.25	Lose2	0.8571	0.0	Yes	2.72	0.03	n/a	GoodResponse	0	n/a	n/a	2	6	Cue	AvoidedLoss	True
66.979	3.95	Lose2	0.8571	0.001	Yes	2.72	-0.001	n/a	GoodResponse	0	n/a	n/a	2	6	Fixation	AvoidedLoss	True
70.928	0.36	Lose2	0.8571	0.002	Yes	2.72	-0.002	4.0	GoodResponse	0	0.282	70.21	2	6	Target	AvoidedLoss	True
71.21	0.3	Lose2	0.8571	0.002	Yes	2.72	-0.002	4.0	GoodResponse	0	0.282	n/a	2	6	ButtonPress	AvoidedLoss	True
71.295	0.34	Lose2	0.8571	n/a	Yes	2.72	n/a	n/a	GoodResponse	0	n/a	n/a	2	6	Blank	AvoidedLoss	True
71.628	1.45	Lose2	0.8571	n/a	Yes	2.72	n/a	5.0	GoodResponse	0	0.007	70.635	2	6	Feedback	AvoidedLoss	True
73.077	2.72	Lose2	0.8571	n/a	Yes	2.72	n/a	n/a	GoodResponse	0	0.0	n/a	2	6	ISIslide	AvoidedLoss	True
75.826	0.25	Lose2	0.875	0.0	Yes	4.024	0.026	n/a	GoodResponse	0	n/a	n/a	2	7	Cue	AvoidedLoss	True
76.076	4.05	Lose2	0.875	0.0	Yes	4.024	0.0	n/a	GoodResponse	0	n/a	n/a	2	7	Fixation	AvoidedLoss	True
80.125	0.35	Lose2	0.875	0.001	Yes	4.024	-0.001	4.0	GoodResponse	0	0.228	79.353	2	7	Target	AvoidedLoss	True
80.353	0.3	Lose2	0.875	0.001	Yes	4.024	-0.001	4.0	GoodResponse	0	0.228	n/a	2	7	ButtonPress	AvoidedLoss	True
80.475	0.35	Lose2	0.875	n/a	Yes	4.024	n/a	n/a	GoodResponse	0	n/a	n/a	2	7	Blank	AvoidedLoss	True
80.825	1.45	Lose2	0.875	n/a	Yes	4.024	n/a	5.0	GoodResponse	0	0.027	79.852	2	7	Feedback	AvoidedLoss	True
82.274	4.024	Lose2	0.875	n/a	Yes	4.024	n/a	n/a	GoodResponse	0	0.0	n/a	2	7	ISIslide	AvoidedLoss	True
86.323	0.25	Lose2	0.8889	0.0	Yes	3.027	0.023	n/a	GoodResponse	0	n/a	n/a	2	8	Cue	AvoidedLoss	True
86.572	3.95	Lose2	0.8889	0.001	Yes	3.027	-0.001	n/a	GoodResponse	0	n/a	n/a	2	8	Fixation	AvoidedLoss	True
90.521	0.34	Lose2	0.8889	0.002	Yes	3.027	-0.002	4.0	GoodResponse	0	0.277	89.798	2	8	Target	AvoidedLoss	True
90.798	0.3	Lose2	0.8889	0.002	Yes	3.027	-0.002	4.0	GoodResponse	0	0.277	n/a	2	8	ButtonPress	AvoidedLoss	True
90.871	0.36	Lose2	0.8889	n/a	Yes	3.027	n/a	n/a	GoodResponse	0	n/a	n/a	2	8	Blank	AvoidedLoss	True
91.221	1.45	Lose2	0.8889	n/a	Yes	3.027	n/a	5.0	GoodResponse	0	0.021	90.242	2	8	Feedback	AvoidedLoss	True
92.67	3.027	Lose2	0.8889	n/a	Yes	3.027	n/a	n/a	GoodResponse	0	0.0	n/a	2	8	ISIslide	AvoidedLoss	True
95.719	0.25	Lose2	0.8	0.0	No	3.131	0.019	n/a	NoResponse	-1	n/a	n/a	1	9	Cue	Loss	False
95.969	3.95	Lose2	0.8	0.0	No	3.131	0.0	n/a	NoResponse	-1	n/a	n/a	1	9	Fixation	Loss	False
99.918	0.33	Lose2	0.8	0.001	No	3.131	-0.001	n/a	NoResponse	-1	n/a	n/a	1	9	Target	Loss	False
100.251	0.37	Lose2	0.8	n/a	No	3.131	n/a	n/a	NoResponse	-1	n/a	n/a	1	9	Blank	Loss	False
100.617	1.45	Lose2	0.8	n/a	No	3.131	n/a	5.0	NoResponse	-1	0.039	99.656	1	9	Feedback	Loss	False
102.067	3.131	Lose2	0.8	n/a	No	3.131	n/a	n/a	NoResponse	-1	0.0	n/a	1	9	ISIslide	Loss	False
105.216	0.25	Control	0.8181999999999999	0.0	Yes	3.284	0.016	n/a	GoodResponse	0	n/a	n/a	1	10	Cue	Neutral	True
105.466	4.0	Control	0.8181999999999999	0.0	Yes	3.284	0.0	n/a	GoodResponse	0	n/a	n/a	1	10	Fixation	Neutral	True
109.464	0.32	Control	0.8181999999999999	0.002	Yes	3.284	-0.002	4.0	GoodResponse	0	0.282	108.746	1	10	Target	Neutral	True
109.746	0.3	Control	0.8181999999999999	0.002	Yes	3.284	-0.002	4.0	GoodResponse	0	0.282	n/a	1	10	ButtonPress	Neutral	True
109.798	0.38	Control	0.8181999999999999	n/a	Yes	3.284	n/a	n/a	GoodResponse	0	n/a	n/a	1	10	Blank	Neutral	True
110.164	1.45	Control	0.8181999999999999	n/a	Yes	3.284	n/a	5.0	GoodResponse	0	0.007	109.171	1	10	Feedback	Neutral	True
111.614	3.284	Control	0.8181999999999999	n/a	Yes	3.284	n/a	n/a	GoodResponse	0	0.0	n/a	1	10	ISIslide	Neutral	True
114.929	0.25	Lose2	0.8332999999999999	0.0	Yes	2.721	0.029	n/a	GoodResponse	0	n/a	n/a	1	11	Cue	AvoidedLoss	False
115.179	4.05	Lose2	0.8332999999999999	0.0	Yes	2.721	0.0	4.0	GoodResponse	0	0.007	114.186	1	11	Fixation	AvoidedLoss	False
115.186	0.3	Lose2	0.8332999999999999	0.0	Yes	2.721	0.0	4.0	GoodResponse	0	0.007	n/a	1	11	ButtonPress	AvoidedLoss	False
119.228	0.31	Lose2	0.8332999999999999	0.001	Yes	2.721	-0.001	4.0	GoodResponse	0	0.248	118.476	1	11	Target	AvoidedLoss	False
119.476	0.3	Lose2	0.8332999999999999	0.001	Yes	2.721	-0.001	4.0	GoodResponse	0	0.248	n/a	1	11	ButtonPress	AvoidedLoss	False
119.544	0.39	Lose2	0.8332999999999999	n/a	Yes	2.721	n/a	n/a	GoodResponse	0	n/a	n/a	1	11	Blank	AvoidedLoss	False
119.927	1.45	Lose2	0.8332999999999999	n/a	Yes	2.721	n/a	5.0	GoodResponse	0	0.046	118.973	1	11	Feedback	AvoidedLoss	False
121.377	2.721	Lose2	0.8332999999999999	n/a	Yes	2.721	n/a	n/a	GoodResponse	0	0.0	n/a	1	11	ISIslide	AvoidedLoss	False
124.126	0.25	Control	0.8462000000000001	0.0	Yes	2.974	0.026	n/a	GoodResponse	0	n/a	n/a	1	12	Cue	Neutral	True
124.376	3.9	Control	0.8462000000000001	0.0	Yes	2.974	0.0	n/a	GoodResponse	0	n/a	n/a	1	12	Fixation	Neutral	True
128.274	0.3	Control	0.8462000000000001	0.002	Yes	2.974	-0.002	4.0	GoodResponse	0	0.23	127.504	1	12	Target	Neutral	True
128.504	0.3	Control	0.8462000000000001	0.002	Yes	2.974	-0.002	4.0	GoodResponse	0	0.23	n/a	1	12	ButtonPress	Neutral	True
128.574	0.4	Control	0.8462000000000001	n/a	Yes	2.974	n/a	n/a	GoodResponse	0	n/a	n/a	1	12	Blank	Neutral	True
128.974	1.45	Control	0.8462000000000001	n/a	Yes	2.974	n/a	5.0	GoodResponse	0	0.024	127.998	1	12	Feedback	Neutral	True
130.424	2.974	Control	0.8462000000000001	n/a	Yes	2.974	n/a	n/a	GoodResponse	0	0.0	n/a	1	12	ISIslide	Neutral	True
133.422	0.25	Control	0.8571	0.001	Yes	2.778	0.022	n/a	GoodResponse	0	n/a	n/a	1	13	Cue	Neutral	True
133.672	4.0	Control	0.8571	0.0	Yes	2.778	0.0	n/a	GoodResponse	0	n/a	n/a	1	13	Fixation	Neutral	True
137.671	0.29	Control	0.8571	0.001	Yes	2.778	-0.001	4.0	GoodResponse	0	0.197	136.868	1	13	Target	Neutral	True
137.868	0.3	Control	0.8571	0.001	Yes	2.778	-0.001	4.0	GoodResponse	0	0.197	n/a	1	13	ButtonPress	Neutral	True
137.971	0.41	Control	0.8571	n/a	Yes	2.778	n/a	n/a	GoodResponse	0	n/a	n/a	1	13	Blank	Neutral	True
138.371	1.45	Control	0.8571	n/a	Yes	2.778	n/a	5.0	GoodResponse	0	0.041	137.412	1	13	Feedback	Neutral	True
139.82	2.778	Control	0.8571	n/a	Yes	2.778	n/a	n/a	GoodResponse	0	0.0	n/a	1	13	ISIslide	Neutral	True
142.619	0.25	Win2	0.8667	0.0	Yes	2.681	0.019	n/a	GoodResponse	1	n/a	n/a	2	14	Cue	Win	True
142.869	4.1	Win2	0.8667	0.0	Yes	2.681	0.0	n/a	GoodResponse	1	n/a	n/a	2	14	Fixation	Win	True
146.968	0.28	Win2	0.8667	0.001	Yes	2.681	-0.001	4.0	GoodResponse	1	0.194	146.162	2	14	Target	Win	True
147.162	0.3	Win2	0.8667	0.001	Yes	2.681	-0.001	4.0	GoodResponse	1	0.194	n/a	2	14	ButtonPress	Win	True
147.251	0.42	Win2	0.8667	n/a	Yes	2.681	n/a	n/a	GoodResponse	1	n/a	n/a	2	14	Blank	Win	True
147.667	1.45	Win2	0.8667	n/a	Yes	2.681	n/a	5.0	GoodResponse	1	0.013	146.68	2	14	Feedback	Win	True
149.117	2.681	Win2	0.8667	n/a	Yes	2.681	n/a	n/a	GoodResponse	1	0.0	n/a	2	14	ISIslide	Win	True
151.816	0.25	Control	0.875	0.0	Yes	2.984	0.016	n/a	GoodResponse	0	n/a	n/a	2	15	Cue	Neutral	False
152.066	4.0	Control	0.875	0.0	Yes	2.984	0.0	4.0	GoodResponse	0	0.014	151.08	2	15	Fixation	Neutral	False
152.08	0.3	Control	0.875	0.0	Yes	2.984	0.0	4.0	GoodResponse	0	0.014	n/a	2	15	ButtonPress	Neutral	False
156.064	0.27	Control	0.875	0.002	Yes	2.984	-0.002	4.0	GoodResponse	0	0.256	155.32	2	15	Target	Neutral	False
156.32	0.3	Control	0.875	0.002	Yes	2.984	-0.002	4.0	GoodResponse	0	0.256	n/a	2	15	ButtonPress	Neutral	False
156.348	0.43	Control	0.875	n/a	Yes	2.984	n/a	n/a	GoodResponse	0	n/a	n/a	2	15	Blank	Neutral	False
156.764	1.45	Control	0.875	n/a	Yes	2.984	n/a	5.0	GoodResponse	0	0.038	155.802	2	15	Feedback	Neutral	False
158.214	2.984	Control	0.875	n/a	Yes	2.984	n/a	n/a	GoodResponse	0	0.0	n/a	2	15	ISIslide	Neutral	False
161.229	0.25	Win2	0.8234999999999999	0.0	No	2.871	0.029	n/a	NoResponse	0	n/a	n/a	2	16	Cue	MissedWin	True
161.479	4.0	Win2	0.8234999999999999	0.0	No	2.871	0.0	n/a	NoResponse	0	n/a	n/a	2	16	Fixation	MissedWin	True
165.478	0.26	Win2	0.8234999999999999	0.001	No	2.871	-0.001	4.0	NoResponse	0	0.323	164.801	2	16	Target	MissedWin	True
165.744	0.44	Win2	0.8234999999999999	n/a	No	2.871	n/a	n/a	NoResponse	0	n/a	n/a	2	16	Blank	MissedWin	True
165.801	0.3	Win2	0.8234999999999999	0.001	No	2.871	-0.001	4.0	NoResponse	0	0.323	n/a	2	16	ButtonPress	MissedWin	True
166.177	1.45	Win2	0.8234999999999999	n/a	No	2.871	n/a	5.0	NoResponse	0	0.04	165.217	2	16	Feedback	MissedWin	True
167.627	2.871	Win2	0.8234999999999999	n/a	No	2.871	n/a	n/a	NoResponse	0	0.0	n/a	2	16	ISIslide	MissedWin	True
170.526	0.25	Lose2	0.8332999999999999	0.0	Yes	2.724	0.026	n/a	GoodResponse	0	n/a	n/a	2	17	Cue	AvoidedLoss	True
170.776	3.95	Lose2	0.8332999999999999	0.0	Yes	2.724	0.0	n/a	GoodResponse	0	n/a	n/a	2	17	Fixation	AvoidedLoss	True
174.724	0.25	Lose2	0.8332999999999999	0.002	Yes	2.724	-0.002	4.0	GoodResponse	0	0.242	173.966	2	17	Target	AvoidedLoss	True
174.966	0.3	Lose2	0.8332999999999999	0.002	Yes	2.724	-0.002	4.0	GoodResponse	0	0.242	n/a	2	17	ButtonPress	AvoidedLoss	True
174.974	0.45	Lose2	0.8332999999999999	n/a	Yes	2.724	n/a	n/a	GoodResponse	0	n/a	n/a	2	17	Blank	AvoidedLoss	True
175.424	1.45	Lose2	0.8332999999999999	n/a	Yes	2.724	n/a	5.0	GoodResponse	0	0.012	174.436	2	17	Feedback	AvoidedLoss	True
176.874	2.724	Lose2	0.8332999999999999	n/a	Yes	2.724	n/a	n/a	GoodResponse	0	0.0	n/a	2	17	ISIslide	AvoidedLoss	True
179.623	0.25	Lose2	0.8421	0.0	Yes	2.727	0.023	n/a	GoodResponse	0	n/a	n/a	2	18	Cue	AvoidedLoss	True
179.873	4.05	Lose2	0.8421	0.0	Yes	2.727	0.0	n/a	GoodResponse	0	n/a	n/a	2	18	Fixation	AvoidedLoss	True
183.921	0.24	Lose2	0.8421	0.002	Yes	2.727	-0.002	4.0	GoodResponse	0	0.228	183.149	2	18	Target	AvoidedLoss	True
184.149	0.3	Lose2	0.8421	0.002	Yes	2.727	-0.002	4.0	GoodResponse	0	0.228	n/a	2	18	ButtonPress	AvoidedLoss	True
184.171	0.46	Lose2	0.8421	n/a	Yes	2.727	n/a	n/a	GoodResponse	0	n/a	n/a	2	18	Blank	AvoidedLoss	True
184.621	1.45	Lose2	0.8421	n/a	Yes	2.727	n/a	5.0	GoodResponse	0	0.034	183.655	2	18	Feedback	AvoidedLoss	True
186.07	2.727	Lose2	0.8421	n/a	Yes	2.727	n/a	n/a	GoodResponse	0	0.0	n/a	2	18	ISIslide	AvoidedLoss	True
188.819	0.25	Control	0.8	0.0	No	2.931	0.019	n/a	NoResponse	0	n/a	n/a	2	19	Cue	Neutral	True
189.069	3.95	Control	0.8	0.0	No	2.931	0.0	n/a	NoResponse	0	n/a	n/a	2	19	Fixation	Neutral	True
193.018	0.23	Control	0.8	0.001	No	2.931	-0.001	4.0	NoResponse	0	0.364	192.382	2	19	Target	Neutral	True
193.251	0.47	Control	0.8	n/a	No	2.931	n/a	n/a	NoResponse	0	n/a	n/a	2	19	Blank	Neutral	True
193.382	0.3	Control	0.8	0.001	No	2.931	-0.001	4.0	NoResponse	0	0.364	n/a	2	19	ButtonPress	Neutral	True
193.718	1.45	Control	0.8	n/a	No	2.931	n/a	5.0	NoResponse	0	0.01	192.728	2	19	Feedback	Neutral	True
195.167	2.931	Control	0.8	n/a	No	2.931	n/a	n/a	NoResponse	0	0.0	n/a	2	19	ISIslide	Neutral	True
198.116	0.25	Control	0.7619	0.0	No	2.634	0.016	n/a	NoResponse	0	n/a	n/a	2	20	Cue	Neutral	True
198.366	4.05	Control	0.7619	0.0	No	2.634	0.0	n/a	NoResponse	0	n/a	n/a	2	20	Fixation	Neutral	True
202.415	0.22	Control	0.7619	0.001	No	2.634	-0.001	4.0	NoResponse	0	0.262	201.677	2	20	Target	Neutral	True
202.648	0.48	Control	0.7619	n/a	No	2.634	n/a	n/a	NoResponse	0	n/a	n/a	2	20	Blank	Neutral	True
202.677	0.3	Control	0.7619	0.001	No	2.634	-0.001	4.0	NoResponse	0	0.262	n/a	2	20	ButtonPress	Neutral	True
203.114	1.45	Control	0.7619	n/a	No	2.634	n/a	5.0	NoResponse	0	0.029	202.143	2	20	Feedback	Neutral	True
204.564	2.634	Control	0.7619	n/a	No	2.634	n/a	n/a	NoResponse	0	0.0	n/a	2	20	ISIslide	Neutral	True
207.23	0.25	Control	0.7273000000000001	0.0	No	2.77	0.03	n/a	NoResponse	0	n/a	n/a	2	21	Cue	Neutral	True
207.479	4.1	Control	0.7273000000000001	0.001	No	2.77	-0.001	n/a	NoResponse	0	n/a	n/a	2	21	Fixation	Neutral	True
211.578	0.21	Control	0.7273000000000001	0.002	No	2.77	-0.002	4.0	NoResponse	0	0.41	210.988	2	21	Target	Neutral	True
211.795	0.49	Control	0.7273000000000001	n/a	No	2.77	n/a	n/a	NoResponse	0	n/a	n/a	2	21	Blank	Neutral	True
211.988	0.3	Control	0.7273000000000001	0.002	No	2.77	-0.002	4.0	NoResponse	0	0.41	n/a	2	21	ButtonPress	Neutral	True
212.278	1.45	Control	0.7273000000000001	n/a	No	2.77	n/a	5.0	NoResponse	0	0.035	211.313	2	21	Feedback	Neutral	True
213.727	2.77	Control	0.7273000000000001	n/a	No	2.77	n/a	n/a	NoResponse	0	0.0	n/a	2	21	ISIslide	Neutral	True
216.526	0.25	Control	0.6957	0.0	No	2.774	0.026	n/a	NoResponse	0	n/a	n/a	2	22	Cue	Neutral	True
216.776	4.0	Control	0.6957	0.0	No	2.774	0.0	n/a	NoResponse	0	n/a	n/a	2	22	Fixation	Neutral	True
220.775	0.2	Control	0.6957	0.001	No	2.774	-0.001	4.0	NoResponse	0	0.241	220.016	2	22	Target	Neutral	True
220.975	0.5	Control	0.6957	n/a	No	2.774	n/a	n/a	NoResponse	0	n/a	n/a	2	22	Blank	Neutral	True
221.016	0.3	Control	0.6957	0.001	No	2.774	-0.001	4.0	NoResponse	0	0.241	n/a	2	22	ButtonPress	Neutral	True
221.474	1.45	Control	0.6957	n/a	No	2.774	n/a	5.0	NoResponse	0	0.01	220.484	2	22	Feedback	Neutral	True
222.924	2.774	Control	0.6957	n/a	No	2.774	n/a	n/a	NoResponse	0	0.0	n/a	2	22	ISIslide	Neutral	True
225.723	0.25	Control	0.6667000000000001	0.0	No	2.777	0.023	n/a	NoResponse	0	n/a	n/a	2	23	Cue	Neutral	True
225.973	3.9	Control	0.6667000000000001	0.0	No	2.777	0.0	n/a	NoResponse	0	n/a	n/a	2	23	Fixation	Neutral	True
229.871	0.19	Control	0.6667000000000001	0.002	No	2.777	-0.002	4.0	NoResponse	0	0.214	229.085	2	23	Target	Neutral	True
230.071	0.51	Control	0.6667000000000001	n/a	No	2.777	n/a	n/a	NoResponse	0	n/a	n/a	2	23	Blank	Neutral	True
230.085	0.3	Control	0.6667000000000001	0.002	No	2.777	-0.002	4.0	NoResponse	0	0.214	n/a	2	23	ButtonPress	Neutral	True
230.571	1.45	Control	0.6667000000000001	n/a	No	2.777	n/a	5.0	NoResponse	0	0.035	229.606	2	23	Feedback	Neutral	True
232.021	2.777	Control	0.6667000000000001	n/a	No	2.777	n/a	n/a	NoResponse	0	0.0	n/a	2	23	ISIslide	Neutral	True
234.82	0.25	Win2	0.64	0.0	No	3.13	0.02	n/a	NoResponse	0	n/a	n/a	2	24	Cue	MissedWin	True
235.07	3.95	Win2	0.64	0.0	No	3.13	0.0	n/a	NoResponse	0	n/a	n/a	2	24	Fixation	MissedWin	True
239.018	0.18	Win2	0.64	0.002	No	3.13	-0.002	4.0	NoResponse	0	0.365	238.383	2	24	Target	MissedWin	True
239.201	0.52	Win2	0.64	n/a	No	3.13	n/a	n/a	NoResponse	0	n/a	n/a	2	24	Blank	MissedWin	True
239.383	0.3	Win2	0.64	0.002	No	3.13	-0.002	4.0	NoResponse	0	0.365	n/a	2	24	ButtonPress	MissedWin	True
239.718	1.45	Win2	0.64	n/a	No	3.13	n/a	5.0	NoResponse	0	0.01	238.728	2	24	Feedback	MissedWin	True
241.167	3.13	Win2	0.64	n/a	No	3.13	n/a	n/a	NoResponse	0	0.0	n/a	2	24	ISIslide	MissedWin	True
244.316	0.25	Win2	0.6154	0.0	No	3.084	0.016	n/a	NoResponse	0	n/a	n/a	2	25	Cue	MissedWin	True
244.566	4.0	Win2	0.6154	0.0	No	3.084	0.0	n/a	NoResponse	0	n/a	n/a	2	25	Fixation	MissedWin	True
248.565	0.19	Win2	0.6154	0.001	No	3.084	-0.001	4.0	NoResponse	0	0.234	247.799	2	25	Target	MissedWin	True
248.765	0.51	Win2	0.6154	n/a	No	3.084	n/a	n/a	NoResponse	0	n/a	n/a	2	25	Blank	MissedWin	True
248.799	0.3	Win2	0.6154	0.001	No	3.084	-0.001	4.0	NoResponse	0	0.234	n/a	2	25	ButtonPress	MissedWin	True
249.265	1.45	Win2	0.6154	n/a	No	3.084	n/a	5.0	NoResponse	0	0.023	248.288	2	25	Feedback	MissedWin	True
250.714	3.084	Win2	0.6154	n/a	No	3.084	n/a	n/a	NoResponse	0	0.0	n/a	2	25	ISIslide	MissedWin	True
253.83	0.25	Win2	0.5926	0.0	No	2.92	0.03	n/a	NoResponse	0	n/a	n/a	2	26	Cue	MissedWin	True
254.08	3.95	Win2	0.5926	0.0	No	2.92	0.0	n/a	NoResponse	0	n/a	n/a	2	26	Fixation	MissedWin	True
258.028	0.2	Win2	0.5926	0.002	No	2.92	-0.002	4.0	NoResponse	0	0.378	257.406	2	26	Target	MissedWin	True
258.228	0.5	Win2	0.5926	n/a	No	2.92	n/a	n/a	NoResponse	0	n/a	n/a	2	26	Blank	MissedWin	True
258.406	0.3	Win2	0.5926	0.002	No	2.92	-0.002	4.0	NoResponse	0	0.378	n/a	2	26	ButtonPress	MissedWin	True
258.728	1.45	Win2	0.5926	n/a	No	2.92	n/a	5.0	NoResponse	0	0.024	257.752	2	26	Feedback	MissedWin	True
260.177	2.92	Win2	0.5926	n/a	No	2.92	n/a	n/a	NoResponse	0	0.0	n/a	2	26	ISIslide	MissedWin	True
263.126	0.25	Lose2	0.6071	0.0	Yes	2.824	0.026	n/a	GoodResponse	0	n/a	n/a	2	27	Cue	AvoidedLoss	True
263.376	4.05	Lose2	0.6071	0.0	Yes	2.824	0.0	n/a	GoodResponse	0	n/a	n/a	2	27	Fixation	AvoidedLoss	True
267.425	0.21	Lose2	0.6071	0.001	Yes	2.824	-0.001	4.0	GoodResponse	0	0.198	266.623	2	27	Target	AvoidedLoss	True
267.623	0.3	Lose2	0.6071	0.001	Yes	2.824	-0.001	4.0	GoodResponse	0	0.198	n/a	2	27	ButtonPress	AvoidedLoss	True
267.641	0.49	Lose2	0.6071	n/a	Yes	2.824	n/a	n/a	GoodResponse	0	n/a	n/a	2	27	Blank	AvoidedLoss	True
268.125	1.45	Lose2	0.6071	n/a	Yes	2.824	n/a	5.0	GoodResponse	0	0.041	267.166	2	27	Feedback	AvoidedLoss	True
269.574	2.824	Lose2	0.6071	n/a	Yes	2.824	n/a	n/a	GoodResponse	0	0.0	n/a	2	27	ISIslide	AvoidedLoss	True
272.423	0.25	Control	0.5861999999999999	0.0	No	2.827	0.023	n/a	LatePress	0	n/a	n/a	2	28	Cue	Neutral	True
272.673	4.05	Control	0.5861999999999999	0.0	No	2.827	0.0	n/a	LatePress	0	n/a	n/a	2	28	Fixation	Neutral	True
276.721	0.22	Control	0.5861999999999999	0.002	No	2.827	-0.002	4.0	LatePress	0	0.225	275.946	2	28	Target	Neutral	True
276.946	0.3	Control	0.5861999999999999	0.002	No	2.827	-0.002	4.0	LatePress	0	0.225	n/a	2	28	ButtonPress	Neutral	True
276.955	0.48	Control	0.5861999999999999	n/a	No	2.827	n/a	n/a	LatePress	0	n/a	n/a	2	28	Blank	Neutral	True
277.421	1.45	Control	0.5861999999999999	n/a	No	2.827	n/a	5.0	LatePress	0	0.014	276.435	2	28	Feedback	Neutral	True
278.871	2.827	Control	0.5861999999999999	n/a	No	2.827	n/a	n/a	LatePress	0	0.0	n/a	2	28	ISIslide	Neutral	True
281.72	0.25	Lose2	0.6	0.0	Yes	2.83	0.02	n/a	GoodResponse	0	n/a	n/a	2	29	Cue	AvoidedLoss	True
281.97	3.95	Lose2	0.6	0.0	Yes	2.83	0.0	n/a	GoodResponse	0	n/a	n/a	2	29	Fixation	AvoidedLoss	True
285.918	0.23	Lose2	0.6	0.002	Yes	2.83	-0.002	4.0	GoodResponse	0	0.199	285.117	2	29	Target	AvoidedLoss	True
286.117	0.3	Lose2	0.6	0.002	Yes	2.83	-0.002	4.0	GoodResponse	0	0.199	n/a	2	29	ButtonPress	AvoidedLoss	True
286.151	0.47	Lose2	0.6	n/a	Yes	2.83	n/a	n/a	GoodResponse	0	n/a	n/a	2	29	Blank	AvoidedLoss	True
286.618	1.45	Lose2	0.6	n/a	Yes	2.83	n/a	5.0	GoodResponse	0	0.036	285.654	2	29	Feedback	AvoidedLoss	True
288.067	2.83	Lose2	0.6	n/a	Yes	2.83	n/a	n/a	GoodResponse	0	0.0	n/a	2	29	ISIslide	AvoidedLoss	True
290.916	0.25	Win2	0.6129	0.001	Yes	2.784	0.016	n/a	GoodResponse	1	n/a	n/a	3	30	Cue	Win	False
291.166	3.9	Win2	0.6129	0.0	Yes	2.784	0.0	4.0	GoodResponse	1	0.077	290.243	3	30	Fixation	Win	False
291.243	0.3	Win2	0.6129	0.0	Yes	2.784	0.0	4.0	GoodResponse	1	0.077	n/a	3	30	ButtonPress	Win	False
295.065	0.24	Win2	0.6129	0.001	Yes	2.784	-0.001	4.0	GoodResponse	1	0.201	294.266	3	30	Target	Win	False
295.266	0.3	Win2	0.6129	0.001	Yes	2.784	-0.001	4.0	GoodResponse	1	0.201	n/a	3	30	ButtonPress	Win	False
295.315	0.46	Win2	0.6129	n/a	Yes	2.784	n/a	n/a	GoodResponse	1	n/a	n/a	3	30	Blank	Win	False
295.765	1.45	Win2	0.6129	n/a	Yes	2.784	n/a	5.0	GoodResponse	1	0.011	294.776	3	30	Feedback	Win	False
297.214	2.784	Win2	0.6129	n/a	Yes	2.784	n/a	n/a	GoodResponse	1	0.0	n/a	3	30	ISIslide	Win	False
300.013	0.25	Lose2	0.5938	0.0	No	2.837	0.013	n/a	NoResponse	-1	n/a	n/a	2	31	Cue	Loss	True
300.263	4.05	Lose2	0.5938	0.0	No	2.837	0.0	n/a	NoResponse	-1	n/a	n/a	2	31	Fixation	Loss	True
304.312	0.25	Lose2	0.5938	0.001	No	2.837	-0.001	4.0	NoResponse	-1	0.545	303.857	2	31	Target	Loss	True
304.562	0.45	Lose2	0.5938	n/a	No	2.837	n/a	n/a	NoResponse	-1	n/a	n/a	2	31	Blank	Loss	True
304.857	0.3	Lose2	0.5938	0.001	No	2.837	-0.001	4.0	NoResponse	-1	0.545	n/a	2	31	ButtonPress	Loss	True
305.011	1.45	Lose2	0.5938	n/a	No	2.837	n/a	5.0	NoResponse	-1	0.033	304.044	2	31	Feedback	Loss	True
306.461	2.837	Lose2	0.5938	n/a	No	2.837	n/a	n/a	NoResponse	-1	0.0	n/a	2	31	ISIslide	Loss	True
309.327	0.25	Lose2	0.6061	0.0	Yes	2.623	0.027	n/a	GoodResponse	0	n/a	n/a	2	32	Cue	AvoidedLoss	True
309.576	4.15	Lose2	0.6061	0.001	Yes	2.623	-0.001	n/a	GoodResponse	0	n/a	n/a	2	32	Fixation	AvoidedLoss	True
313.725	0.26	Lose2	0.6061	0.002	Yes	2.623	-0.002	4.0	GoodResponse	0	0.205	312.93	2	32	Target	AvoidedLoss	True
313.93	0.3	Lose2	0.6061	0.002	Yes	2.623	-0.002	4.0	GoodResponse	0	0.205	n/a	2	32	ButtonPress	AvoidedLoss	True
313.992	0.44	Lose2	0.6061	n/a	Yes	2.623	n/a	n/a	GoodResponse	0	n/a	n/a	2	32	Blank	AvoidedLoss	True
314.425	1.45	Lose2	0.6061	n/a	Yes	2.623	n/a	5.0	GoodResponse	0	0.034	313.459	2	32	Feedback	AvoidedLoss	True
315.874	2.623	Lose2	0.6061	n/a	Yes	2.623	n/a	n/a	GoodResponse	0	0.0	n/a	2	32	ISIslide	AvoidedLoss	True
318.523	0.25	Win2	0.6175999999999999	0.0	Yes	2.677	0.023	n/a	GoodResponse	1	n/a	n/a	3	33	Cue	Win	True
318.773	4.0	Win2	0.6175999999999999	0.0	Yes	2.677	0.0	n/a	GoodResponse	1	n/a	n/a	3	33	Fixation	Win	True
322.772	0.27	Win2	0.6175999999999999	0.001	Yes	2.677	-0.001	4.0	GoodResponse	1	0.186	321.958	3	33	Target	Win	True
322.958	0.3	Win2	0.6175999999999999	0.001	Yes	2.677	-0.001	4.0	GoodResponse	1	0.186	n/a	3	33	ButtonPress	Win	True
323.055	0.43	Win2	0.6175999999999999	n/a	Yes	2.677	n/a	n/a	GoodResponse	1	n/a	n/a	3	33	Blank	Win	True
323.472	1.45	Win2	0.6175999999999999	n/a	Yes	2.677	n/a	5.0	GoodResponse	1	0.011	322.483	3	33	Feedback	Win	True
324.921	2.677	Win2	0.6175999999999999	n/a	Yes	2.677	n/a	n/a	GoodResponse	1	0.0	n/a	3	33	ISIslide	Win	True
327.62	0.25	Lose2	0.6	0.0	No	2.63	0.02	n/a	NoResponse	-1	n/a	n/a	2	34	Cue	Loss	True
327.87	4.05	Lose2	0.6	0.0	No	2.63	0.0	n/a	NoResponse	-1	n/a	n/a	2	34	Fixation	Loss	True
331.919	0.28	Lose2	0.6	0.001	No	2.63	-0.001	4.0	NoResponse	-1	0.329	331.248	2	34	Target	Loss	True
332.202	0.42	Lose2	0.6	n/a	No	2.63	n/a	n/a	NoResponse	-1	n/a	n/a	2	34	Blank	Loss	True
332.248	0.3	Lose2	0.6	0.001	No	2.63	-0.001	4.0	NoResponse	-1	0.329	n/a	2	34	ButtonPress	Loss	True
332.618	1.45	Lose2	0.6	n/a	No	2.63	n/a	5.0	NoResponse	-1	0.035	331.653	2	34	Feedback	Loss	True
334.068	2.63	Lose2	0.6	n/a	No	2.63	n/a	n/a	NoResponse	-1	0.0	n/a	2	34	ISIslide	Loss	True
336.717	0.25	Lose2	0.6111	0.0	Yes	2.683	0.017	n/a	GoodResponse	0	n/a	n/a	2	35	Cue	AvoidedLoss	True
336.967	4.0	Lose2	0.6111	0.0	Yes	2.683	0.0	n/a	GoodResponse	0	n/a	n/a	2	35	Fixation	AvoidedLoss	True
340.965	0.29	Lose2	0.6111	0.002	Yes	2.683	-0.002	4.0	GoodResponse	0	0.203	340.168	2	35	Target	AvoidedLoss	True
341.168	0.3	Lose2	0.6111	0.002	Yes	2.683	-0.002	4.0	GoodResponse	0	0.203	n/a	2	35	ButtonPress	AvoidedLoss	True
341.265	0.41	Lose2	0.6111	n/a	Yes	2.683	n/a	n/a	GoodResponse	0	n/a	n/a	2	35	Blank	AvoidedLoss	True
341.665	1.45	Lose2	0.6111	n/a	Yes	2.683	n/a	5.0	GoodResponse	0	0.013	340.678	2	35	Feedback	AvoidedLoss	True
343.115	2.683	Lose2	0.6111	n/a	Yes	2.683	n/a	n/a	GoodResponse	0	0.0	n/a	2	35	ISIslide	AvoidedLoss	True
345.814	0.25	Control	0.6215999999999999	0.0	Yes	2.686	0.014	n/a	GoodResponse	0	n/a	n/a	2	36	Cue	Neutral	True
346.063	4.0	Control	0.6215999999999999	0.001	Yes	2.686	-0.001	n/a	GoodResponse	0	n/a	n/a	2	36	Fixation	Neutral	True
350.062	0.3	Control	0.6215999999999999	0.002	Yes	2.686	-0.002	4.0	GoodResponse	0	0.263	349.325	2	36	Target	Neutral	True
350.325	0.3	Control	0.6215999999999999	0.002	Yes	2.686	-0.002	4.0	GoodResponse	0	0.263	n/a	2	36	ButtonPress	Neutral	True
350.362	0.4	Control	0.6215999999999999	n/a	Yes	2.686	n/a	n/a	GoodResponse	0	n/a	n/a	2	36	Blank	Neutral	True
350.762	1.45	Control	0.6215999999999999	n/a	Yes	2.686	n/a	5.0	GoodResponse	0	0.038	349.8	2	36	Feedback	Neutral	True
352.211	2.686	Control	0.6215999999999999	n/a	Yes	2.686	n/a	n/a	GoodResponse	0	0.0	n/a	2	36	ISIslide	Neutral	True
354.927	0.25	Win2	0.6315999999999999	0.0	Yes	2.873	0.027	n/a	GoodResponse	1	n/a	n/a	3	37	Cue	Win	True
355.177	4.0	Win2	0.6315999999999999	0.0	Yes	2.873	0.0	n/a	GoodResponse	1	n/a	n/a	3	37	Fixation	Win	True
359.175	0.31	Win2	0.6315999999999999	0.002	Yes	2.873	-0.002	4.0	GoodResponse	1	0.229	358.404	3	37	Target	Win	True
359.404	0.3	Win2	0.6315999999999999	0.002	Yes	2.873	-0.002	4.0	GoodResponse	1	0.229	n/a	3	37	ButtonPress	Win	True
359.492	0.39	Win2	0.6315999999999999	n/a	Yes	2.873	n/a	n/a	GoodResponse	1	n/a	n/a	3	37	Blank	Win	True
359.875	1.45	Win2	0.6315999999999999	n/a	Yes	2.873	n/a	5.0	GoodResponse	1	0.047	358.922	3	37	Feedback	Win	True
361.325	2.873	Win2	0.6315999999999999	n/a	Yes	2.873	n/a	n/a	GoodResponse	1	0.0	n/a	3	37	ISIslide	Win	True
364.224	0.25	Lose2	0.6409999999999999	0.0	Yes	2.826	0.024	n/a	GoodResponse	0	n/a	n/a	3	38	Cue	AvoidedLoss	True
364.474	3.95	Lose2	0.6409999999999999	0.0	Yes	2.826	0.0	n/a	GoodResponse	0	n/a	n/a	3	38	Fixation	AvoidedLoss	True
368.422	0.32	Lose2	0.6409999999999999	0.002	Yes	2.826	-0.002	4.0	GoodResponse	0	0.319	367.741	3	38	Target	AvoidedLoss	True
368.741	0.3	Lose2	0.6409999999999999	0.002	Yes	2.826	-0.002	4.0	GoodResponse	0	0.319	n/a	3	38	ButtonPress	AvoidedLoss	True
368.755	0.38	Lose2	0.6409999999999999	n/a	Yes	2.826	n/a	n/a	GoodResponse	0	n/a	n/a	3	38	Blank	AvoidedLoss	True
369.122	1.45	Lose2	0.6409999999999999	n/a	Yes	2.826	n/a	5.0	GoodResponse	0	0.018	368.14	3	38	Feedback	AvoidedLoss	True
370.571	2.826	Lose2	0.6409999999999999	n/a	Yes	2.826	n/a	n/a	GoodResponse	0	0.0	n/a	3	38	ISIslide	AvoidedLoss	True
373.42	0.25	Win2	0.65	0.0	Yes	2.98	0.02	n/a	GoodResponse	1	n/a	n/a	4	39	Cue	Win	True
373.67	4.1	Win2	0.65	0.0	Yes	2.98	0.0	n/a	GoodResponse	1	n/a	n/a	4	39	Fixation	Win	True
377.769	0.33	Win2	0.65	0.001	Yes	2.98	-0.001	4.0	GoodResponse	1	0.2	376.969	4	39	Target	Win	True
377.969	0.3	Win2	0.65	0.001	Yes	2.98	-0.001	4.0	GoodResponse	1	0.2	n/a	4	39	ButtonPress	Win	True
378.102	0.37	Win2	0.65	n/a	Yes	2.98	n/a	n/a	GoodResponse	1	n/a	n/a	4	39	Blank	Win	True
378.469	1.45	Win2	0.65	n/a	Yes	2.98	n/a	5.0	GoodResponse	1	0.037	377.506	4	39	Feedback	Win	True
379.918	2.98	Win2	0.65	n/a	Yes	2.98	n/a	n/a	GoodResponse	1	0.0	n/a	4	39	ISIslide	Win	True
382.917	0.25	Win2	0.6585	0.0	Yes	2.733	0.017	n/a	GoodResponse	1	n/a	n/a	5	40	Cue	Win	True
383.167	3.95	Win2	0.6585	0.0	Yes	2.733	0.0	n/a	GoodResponse	1	n/a	n/a	5	40	Fixation	Win	True
387.116	0.34	Win2	0.6585	0.001	Yes	2.733	-0.001	4.0	GoodResponse	1	0.184	386.3	5	40	Target	Win	True
387.3	0.3	Win2	0.6585	0.001	Yes	2.733	-0.001	4.0	GoodResponse	1	0.184	n/a	5	40	ButtonPress	Win	True
387.465	0.36	Win2	0.6585	n/a	Yes	2.733	n/a	n/a	GoodResponse	1	n/a	n/a	5	40	Blank	Win	True
387.815	1.45	Win2	0.6585	n/a	Yes	2.733	n/a	5.0	GoodResponse	1	0.009	386.824	5	40	Feedback	Win	True
389.265	2.733	Win2	0.6585	n/a	Yes	2.733	n/a	n/a	GoodResponse	1	0.0	n/a	5	40	ISIslide	Win	True
392.014	0.25	Win2	0.6667000000000001	0.0	Yes	2.786	0.014	n/a	GoodResponse	1	n/a	n/a	6	41	Cue	Win	True
392.264	3.9	Win2	0.6667000000000001	0.0	Yes	2.786	0.0	n/a	GoodResponse	1	n/a	n/a	6	41	Fixation	Win	True
396.162	0.34	Win2	0.6667000000000001	0.002	Yes	2.786	-0.002	4.0	GoodResponse	1	0.187	395.349	6	41	Target	Win	True
396.349	0.3	Win2	0.6667000000000001	0.002	Yes	2.786	-0.002	4.0	GoodResponse	1	0.187	n/a	6	41	ButtonPress	Win	True
396.512	0.36	Win2	0.6667000000000001	n/a	Yes	2.786	n/a	n/a	GoodResponse	1	n/a	n/a	6	41	Blank	Win	True
396.862	1.45	Win2	0.6667000000000001	n/a	Yes	2.786	n/a	5.0	GoodResponse	1	0.035	395.897	6	41	Feedback	Win	True
398.312	2.786	Win2	0.6667000000000001	n/a	Yes	2.786	n/a	n/a	GoodResponse	1	0.0	n/a	6	41	ISIslide	Win	True
401.127	0.25	Control	0.6744	0.0	Yes	2.923	0.027	n/a	GoodResponse	0	n/a	n/a	6	42	Cue	Neutral	True
401.377	3.85	Control	0.6744	0.0	Yes	2.923	0.0	n/a	GoodResponse	0	n/a	n/a	6	42	Fixation	Neutral	True
405.226	0.33	Control	0.6744	0.001	Yes	2.923	-0.001	4.0	GoodResponse	0	0.251	404.477	6	42	Target	Neutral	True
405.477	0.3	Control	0.6744	0.001	Yes	2.923	-0.001	4.0	GoodResponse	0	0.251	n/a	6	42	ButtonPress	Neutral	True
405.559	0.37	Control	0.6744	n/a	Yes	2.923	n/a	n/a	GoodResponse	0	n/a	n/a	6	42	Blank	Neutral	True
405.926	1.45	Control	0.6744	n/a	Yes	2.923	n/a	5.0	GoodResponse	0	0.043	404.969	6	42	Feedback	Neutral	True
407.375	2.923	Control	0.6744	n/a	Yes	2.923	n/a	n/a	GoodResponse	0	0.0	n/a	6	42	ISIslide	Neutral	True
410.324	0.25	Win2	0.6818000000000001	0.0	Yes	3.176	0.024	n/a	GoodResponse	1	n/a	n/a	7	43	Cue	Win	True
410.574	4.0	Win2	0.6818000000000001	0.0	Yes	3.176	0.0	n/a	GoodResponse	1	n/a	n/a	7	43	Fixation	Win	True
414.572	0.32	Win2	0.6818000000000001	0.002	Yes	3.176	-0.002	4.0	GoodResponse	1	0.194	413.766	7	43	Target	Win	True
414.766	0.3	Win2	0.6818000000000001	0.002	Yes	3.176	-0.002	4.0	GoodResponse	1	0.194	n/a	7	43	ButtonPress	Win	True
414.906	0.38	Win2	0.6818000000000001	n/a	Yes	3.176	n/a	n/a	GoodResponse	1	n/a	n/a	7	43	Blank	Win	True
415.272	1.45	Win2	0.6818000000000001	n/a	Yes	3.176	n/a	5.0	GoodResponse	1	0.014	414.286	7	43	Feedback	Win	True
416.722	3.176	Win2	0.6818000000000001	n/a	Yes	3.176	n/a	n/a	GoodResponse	1	0.0	n/a	7	43	ISIslide	Win	True
419.921	0.25	Win2	0.6889	0.0	Yes	2.979	0.021	n/a	GoodResponse	1	n/a	n/a	8	44	Cue	Win	False
420.17	4.0	Win2	0.6889	0.001	Yes	2.979	-0.001	4.0	GoodResponse	1	2.599	421.769	8	44	Fixation	Win	False
422.769	0.3	Win2	0.6889	0.001	Yes	2.979	-0.001	4.0	GoodResponse	1	2.599	n/a	8	44	ButtonPress	Win	False
424.169	0.31	Win2	0.6889	0.002	Yes	2.979	-0.002	4.0	GoodResponse	1	0.182	423.351	8	44	Target	Win	False
424.351	0.3	Win2	0.6889	0.002	Yes	2.979	-0.002	4.0	GoodResponse	1	0.182	n/a	8	44	ButtonPress	Win	False
424.486	0.39	Win2	0.6889	n/a	Yes	2.979	n/a	n/a	GoodResponse	1	n/a	n/a	8	44	Blank	Win	False
424.869	1.45	Win2	0.6889	n/a	Yes	2.979	n/a	5.0	GoodResponse	1	0.027	423.896	8	44	Feedback	Win	False
426.318	2.979	Win2	0.6889	n/a	Yes	2.979	n/a	n/a	GoodResponse	1	0.0	n/a	8	44	ISIslide	Win	False
429.317	0.25	Control	0.6957	0.0	Yes	2.883	0.017	n/a	GoodResponse	0	n/a	n/a	8	45	Cue	Neutral	True
429.567	4.1	Control	0.6957	0.0	Yes	2.883	0.0	n/a	GoodResponse	0	n/a	n/a	8	45	Fixation	Neutral	True
433.666	0.3	Control	0.6957	0.001	Yes	2.883	-0.001	4.0	GoodResponse	0	0.189	432.855	8	45	Target	Neutral	True
433.855	0.3	Control	0.6957	0.001	Yes	2.883	-0.001	4.0	GoodResponse	0	0.189	n/a	8	45	ButtonPress	Neutral	True
433.966	0.4	Control	0.6957	n/a	Yes	2.883	n/a	n/a	GoodResponse	0	n/a	n/a	8	45	Blank	Neutral	True
434.365	1.45	Control	0.6957	n/a	Yes	2.883	n/a	5.0	GoodResponse	0	0.043	433.408	8	45	Feedback	Neutral	True
435.815	2.883	Control	0.6957	n/a	Yes	2.883	n/a	n/a	GoodResponse	0	0.0	n/a	8	45	ISIslide	Neutral	True
438.714	0.25	Lose2	0.7021	0.0	Yes	3.386	0.014	n/a	GoodResponse	0	n/a	n/a	8	46	Cue	AvoidedLoss	True
438.964	4.0	Lose2	0.7021	0.0	Yes	3.386	0.0	n/a	GoodResponse	0	n/a	n/a	8	46	Fixation	AvoidedLoss	True
442.962	0.29	Lose2	0.7021	0.002	Yes	3.386	-0.002	4.0	GoodResponse	0	0.201	442.163	8	46	Target	AvoidedLoss	True
443.163	0.3	Lose2	0.7021	0.002	Yes	3.386	-0.002	4.0	GoodResponse	0	0.201	n/a	8	46	ButtonPress	AvoidedLoss	True
443.262	0.41	Lose2	0.7021	n/a	Yes	3.386	n/a	n/a	GoodResponse	0	n/a	n/a	8	46	Blank	AvoidedLoss	True
443.662	1.45	Lose2	0.7021	n/a	Yes	3.386	n/a	5.0	GoodResponse	0	0.014	442.676	8	46	Feedback	AvoidedLoss	True
445.112	3.386	Lose2	0.7021	n/a	Yes	3.386	n/a	n/a	GoodResponse	0	0.0	n/a	8	46	ISIslide	AvoidedLoss	True
448.527	0.25	Lose2	0.6875	0.0	No	2.673	0.027	n/a	NoResponse	-1	n/a	n/a	7	47	Cue	Loss	False
448.777	4.0	Lose2	0.6875	0.0	No	2.673	0.0	n/a	NoResponse	-1	n/a	n/a	7	47	Fixation	Loss	False
452.776	0.28	Lose2	0.6875	0.001	No	2.673	-0.001	n/a	NoResponse	-1	n/a	n/a	7	47	Target	Loss	False
453.059	0.42	Lose2	0.6875	n/a	No	2.673	n/a	n/a	NoResponse	-1	n/a	n/a	7	47	Blank	Loss	False
453.475	1.45	Lose2	0.6875	n/a	No	2.673	n/a	5.0	NoResponse	-1	0.007	452.482	7	47	Feedback	Loss	False
454.925	2.673	Lose2	0.6875	n/a	No	2.673	n/a	4.0	NoResponse	-1	0.058	n/a	7	47	ISIslide	Loss	False
457.607	0.25	Lose2	0.6939	0.0	Yes	3.043	0.007	n/a	GoodResponse	0	n/a	n/a	7	48	Cue	AvoidedLoss	True
457.857	3.95	Lose2	0.6939	0.0	Yes	3.043	0.0	n/a	GoodResponse	0	n/a	n/a	7	48	Fixation	AvoidedLoss	True
461.806	0.27	Lose2	0.6939	0.001	Yes	3.043	-0.001	4.0	GoodResponse	0	0.194	461.0	7	48	Target	AvoidedLoss	True
462	0.3	Lose2	0.6939	0.001	Yes	3.043	-0.001	4.0	GoodResponse	0	0.194	n/a	7	48	ButtonPress	AvoidedLoss	True
462.089	0.43	Lose2	0.6939	n/a	Yes	3.043	n/a	n/a	GoodResponse	0	n/a	n/a	7	48	Blank	AvoidedLoss	True
462.505	1.45	Lose2	0.6939	n/a	Yes	3.043	n/a	5.0	GoodResponse	0	0.049	461.554	7	48	Feedback	AvoidedLoss	True
463.955	3.043	Lose2	0.6939	n/a	Yes	3.043	n/a	n/a	GoodResponse	0	0.0	n/a	7	48	ISIslide	AvoidedLoss	True
467.02	0.25	Control	0.7	0.001	Yes	2.88	0.02	n/a	GoodResponse	0	n/a	n/a	7	49	Cue	Neutral	True
467.27	4.0	Control	0.7	0.0	Yes	2.88	0.0	n/a	GoodResponse	0	n/a	n/a	7	49	Fixation	Neutral	True
471.269	0.26	Control	0.7	0.001	Yes	2.88	-0.001	4.0	GoodResponse	0	0.191	470.46	7	49	Target	Neutral	True
471.46	0.3	Control	0.7	0.001	Yes	2.88	-0.001	4.0	GoodResponse	0	0.191	n/a	7	49	ButtonPress	Neutral	True
471.536	0.44	Control	0.7	n/a	Yes	2.88	n/a	n/a	GoodResponse	0	n/a	n/a	7	49	Blank	Neutral	True
471.969	1.45	Control	0.7	n/a	Yes	2.88	n/a	5.0	GoodResponse	0	0.049	471.018	7	49	Feedback	Neutral	True
473.418	2.88	Control	0.7	n/a	Yes	2.88	n/a	n/a	GoodResponse	0	0.0	n/a	7	49	ISIslide	Neutral	True
476.317	0.25	Control	0.6862999999999999	0.0	No	2.783	0.017	n/a	NoResponse	0	n/a	n/a	7	50	Cue	Neutral	True
476.567	4.0	Control	0.6862999999999999	0.0	No	2.783	0.0	n/a	NoResponse	0	n/a	n/a	7	50	Fixation	Neutral	True
480.566	0.25	Control	0.6862999999999999	0.001	No	2.783	-0.001	4.0	NoResponse	0	0.258	479.824	7	50	Target	Neutral	True
480.816	0.45	Control	0.6862999999999999	n/a	No	2.783	n/a	n/a	NoResponse	0	n/a	n/a	7	50	Blank	Neutral	True
480.824	0.3	Control	0.6862999999999999	0.001	No	2.783	-0.001	4.0	NoResponse	0	0.258	n/a	7	50	ButtonPress	Neutral	True
481.265	1.45	Control	0.6862999999999999	n/a	No	2.783	n/a	5.0	NoResponse	0	0.02	480.285	7	50	Feedback	Neutral	True
482.715	2.783	Control	0.6862999999999999	n/a	No	2.783	n/a	n/a	NoResponse	0	0.0	n/a	7	50	ISIslide	Neutral	True
485.514	0.25	Control	0.6923	0.0	Yes	2.736	0.014	n/a	GoodResponse	0	n/a	n/a	7	51	Cue	Neutral	True
485.764	3.95	Control	0.6923	0.0	Yes	2.736	0.0	n/a	GoodResponse	0	n/a	n/a	7	51	Fixation	Neutral	True
489.712	0.24	Control	0.6923	0.002	Yes	2.736	-0.002	4.0	GoodResponse	0	0.202	488.914	7	51	Target	Neutral	True
489.914	0.3	Control	0.6923	0.002	Yes	2.736	-0.002	4.0	GoodResponse	0	0.202	n/a	7	51	ButtonPress	Neutral	True
489.962	0.46	Control	0.6923	n/a	Yes	2.736	n/a	n/a	GoodResponse	0	n/a	n/a	7	51	Blank	Neutral	True
490.412	1.45	Control	0.6923	n/a	Yes	2.736	n/a	5.0	GoodResponse	0	0.044	489.456	7	51	Feedback	Neutral	True
491.862	2.736	Control	0.6923	n/a	Yes	2.736	n/a	n/a	GoodResponse	0	0.0	n/a	7	51	ISIslide	Neutral	True
494.627	0.25	Control	0.6981	0.0	Yes	2.623	0.027	n/a	GoodResponse	0	n/a	n/a	7	52	Cue	Neutral	True
494.877	4.05	Control	0.6981	0.0	Yes	2.623	0.0	n/a	GoodResponse	0	n/a	n/a	7	52	Fixation	Neutral	True
498.926	0.23	Control	0.6981	0.001	Yes	2.623	-0.001	4.0	GoodResponse	0	0.222	498.148	7	52	Target	Neutral	True
499.148	0.3	Control	0.6981	0.001	Yes	2.623	-0.001	4.0	GoodResponse	0	0.222	n/a	7	52	ButtonPress	Neutral	True
499.159	0.47	Control	0.6981	n/a	Yes	2.623	n/a	n/a	GoodResponse	0	n/a	n/a	7	52	Blank	Neutral	True
499.626	1.45	Control	0.6981	n/a	Yes	2.623	n/a	5.0	GoodResponse	0	0.001	498.627	7	52	Feedback	Neutral	True
501.075	2.623	Control	0.6981	n/a	Yes	2.623	n/a	n/a	GoodResponse	0	0.0	n/a	7	52	ISIslide	Neutral	True
503.724	0.25	Win2	0.7037	0.0	Yes	2.926	0.024	n/a	GoodResponse	1	n/a	n/a	8	53	Cue	Win	True
503.974	4.05	Win2	0.7037	0.0	Yes	2.926	0.0	n/a	GoodResponse	1	n/a	n/a	8	53	Fixation	Win	True
508.023	0.22	Win2	0.7037	0.001	Yes	2.926	-0.001	4.0	GoodResponse	1	0.187	507.21	8	53	Target	Win	True
508.21	0.3	Win2	0.7037	0.001	Yes	2.926	-0.001	4.0	GoodResponse	1	0.187	n/a	8	53	ButtonPress	Win	True
508.256	0.48	Win2	0.7037	n/a	Yes	2.926	n/a	n/a	GoodResponse	1	n/a	n/a	8	53	Blank	Win	True
508.722	1.45	Win2	0.7037	n/a	Yes	2.926	n/a	5.0	GoodResponse	1	0.027	507.749	8	53	Feedback	Win	True
510.172	2.926	Win2	0.7037	n/a	Yes	2.926	n/a	n/a	GoodResponse	1	0.0	n/a	8	53	ISIslide	Win	True
513.121	0.25	Win2	0.7091	0.0	Yes	2.729	0.021	n/a	GoodResponse	1	n/a	n/a	9	54	Cue	Win	True
513.371	3.95	Win2	0.7091	0.0	Yes	2.729	0.0	n/a	GoodResponse	1	n/a	n/a	9	54	Fixation	Win	True
517.319	0.21	Win2	0.7091	0.002	Yes	2.729	-0.002	4.0	GoodResponse	1	0.209	516.528	9	54	Target	Win	True
517.528	0.3	Win2	0.7091	0.002	Yes	2.729	-0.002	4.0	GoodResponse	1	0.209	n/a	9	54	ButtonPress	Win	True
517.536	0.49	Win2	0.7091	n/a	Yes	2.729	n/a	n/a	GoodResponse	1	n/a	n/a	9	54	Blank	Win	True
518.019	1.45	Win2	0.7091	n/a	Yes	2.729	n/a	5.0	GoodResponse	1	0.046	517.065	9	54	Feedback	Win	True
519.468	2.729	Win2	0.7091	n/a	Yes	2.729	n/a	n/a	GoodResponse	1	0.0	n/a	9	54	ISIslide	Win	True
522.217	0.25	Control	0.7143	0.001	Yes	3.033	0.017	n/a	GoodResponse	0	n/a	n/a	9	55	Cue	Neutral	True
522.467	3.95	Control	0.7143	0.0	Yes	3.033	0.0	n/a	GoodResponse	0	n/a	n/a	9	55	Fixation	Neutral	True
526.416	0.2	Control	0.7143	0.001	Yes	3.033	-0.001	4.0	GoodResponse	0	0.193	525.609	9	55	Target	Neutral	True
526.609	0.3	Control	0.7143	0.001	Yes	3.033	-0.001	4.0	GoodResponse	0	0.193	n/a	9	55	ButtonPress	Neutral	True
526.616	0.5	Control	0.7143	n/a	Yes	3.033	n/a	n/a	GoodResponse	0	n/a	n/a	9	55	Blank	Neutral	True
527.116	1.45	Control	0.7143	n/a	Yes	3.033	n/a	5.0	GoodResponse	0	0.022	526.138	9	55	Feedback	Neutral	True
528.565	3.033	Control	0.7143	n/a	Yes	3.033	n/a	n/a	GoodResponse	0	0.0	n/a	9	55	ISIslide	Neutral	True
531.614	0.25	Control	0.7018000000000001	0.0	No	2.836	0.014	n/a	LatePress	0	n/a	n/a	9	56	Cue	Neutral	True
531.864	3.95	Control	0.7018000000000001	0.0	No	2.836	0.0	n/a	LatePress	0	n/a	n/a	9	56	Fixation	Neutral	True
535.813	0.19	Control	0.7018000000000001	0.001	No	2.836	-0.001	4.0	LatePress	0	0.197	535.01	9	56	Target	Neutral	True
536.01	0.3	Control	0.7018000000000001	0.001	No	2.836	-0.001	4.0	LatePress	0	0.197	n/a	9	56	ButtonPress	Neutral	True
536.013	0.51	Control	0.7018000000000001	n/a	No	2.836	n/a	n/a	LatePress	0	n/a	n/a	9	56	Blank	Neutral	True
536.512	1.45	Control	0.7018000000000001	n/a	No	2.836	n/a	5.0	LatePress	0	0.041	535.553	9	56	Feedback	Neutral	True
537.962	2.836	Control	0.7018000000000001	n/a	No	2.836	n/a	n/a	LatePress	0	0.0	n/a	9	56	ISIslide	Neutral	True
540.828	0.25	Control	0.6897	0.0	No	3.472	0.028	n/a	NoResponse	0	n/a	n/a	9	57	Cue	Neutral	True
541.077	4.0	Control	0.6897	0.001	No	3.472	-0.001	n/a	NoResponse	0	n/a	n/a	9	57	Fixation	Neutral	True
545.076	0.18	Control	0.6897	0.002	No	3.472	-0.002	4.0	NoResponse	0	0.234	544.31	9	57	Target	Neutral	True
545.259	0.52	Control	0.6897	n/a	No	3.472	n/a	n/a	NoResponse	0	n/a	n/a	9	57	Blank	Neutral	True
545.31	0.3	Control	0.6897	0.002	No	3.472	-0.002	4.0	NoResponse	0	0.234	n/a	9	57	ButtonPress	Neutral	True
545.776	1.45	Control	0.6897	n/a	No	3.472	n/a	5.0	NoResponse	0	0.046	544.822	9	57	Feedback	Neutral	True
547.225	3.472	Control	0.6897	n/a	No	3.472	n/a	n/a	NoResponse	0	0.0	n/a	9	57	ISIslide	Neutral	True
550.724	0.25	Win2	0.6779999999999999	0.0	No	2.726	0.024	n/a	NoResponse	0	n/a	n/a	9	58	Cue	MissedWin	False
550.974	4.05	Win2	0.6779999999999999	0.0	No	2.726	0.0	4.0	NoResponse	0	1.195	551.169	9	58	Fixation	MissedWin	False
552.169	0.3	Win2	0.6779999999999999	0.0	No	2.726	0.0	4.0	NoResponse	0	1.195	n/a	9	58	ButtonPress	MissedWin	False
555.023	0.17	Win2	0.6779999999999999	0.001	No	2.726	-0.001	4.0	NoResponse	0	0.221	554.244	9	58	Target	MissedWin	False
555.206	0.53	Win2	0.6779999999999999	n/a	No	2.726	n/a	n/a	NoResponse	0	n/a	n/a	9	58	Blank	MissedWin	False
555.244	0.3	Win2	0.6779999999999999	0.001	No	2.726	-0.001	4.0	NoResponse	0	0.221	n/a	9	58	ButtonPress	MissedWin	False
555.722	1.45	Win2	0.6779999999999999	n/a	No	2.726	n/a	5.0	NoResponse	0	0.001	554.723	9	58	Feedback	MissedWin	False
557.172	2.726	Win2	0.6779999999999999	n/a	No	2.726	n/a	n/a	NoResponse	0	0.0	n/a	9	58	ISIslide	MissedWin	False
559.921	0.25	Lose2	0.6667000000000001	0.0	No	2.679	0.021	n/a	NoResponse	-1	n/a	n/a	8	59	Cue	Loss	True
560.171	4.0	Lose2	0.6667000000000001	0.0	No	2.679	0.0	n/a	NoResponse	-1	n/a	n/a	8	59	Fixation	Loss	True
564.169	0.16	Lose2	0.6667000000000001	0.002	No	2.679	-0.002	4.0	NoResponse	-1	0.258	563.427	8	59	Target	Loss	True
564.336	0.54	Lose2	0.6667000000000001	n/a	No	2.679	n/a	n/a	NoResponse	-1	n/a	n/a	8	59	Blank	Loss	True
564.427	0.3	Lose2	0.6667000000000001	0.002	No	2.679	-0.002	4.0	NoResponse	-1	0.258	n/a	8	59	ButtonPress	Loss	True
564.869	1.45	Lose2	0.6667000000000001	n/a	No	2.679	n/a	5.0	NoResponse	-1	0.025	563.894	8	59	Feedback	Loss	True
566.318	2.679	Lose2	0.6667000000000001	n/a	No	2.679	n/a	n/a	NoResponse	-1	0.0	n/a	8	59	ISIslide	Loss	True
569.018	0.25	Control	0.6720999999999999	0.0	Yes	2.682	0.018	n/a	GoodResponse	0	n/a	n/a	8	60	Cue	Neutral	True
569.267	4.0	Control	0.6720999999999999	0.001	Yes	2.682	-0.001	n/a	GoodResponse	0	n/a	n/a	8	60	Fixation	Neutral	True
573.266	0.15	Control	0.6720999999999999	0.002	Yes	2.682	-0.002	4.0	GoodResponse	0	0.107	572.373	8	60	Target	Neutral	True
573.373	0.3	Control	0.6720999999999999	0.002	Yes	2.682	-0.002	4.0	GoodResponse	0	0.107	n/a	8	60	ButtonPress	Neutral	True
573.416	0.55	Control	0.6720999999999999	n/a	Yes	2.682	n/a	n/a	GoodResponse	0	n/a	n/a	8	60	Blank	Neutral	True
573.966	1.45	Control	0.6720999999999999	n/a	Yes	2.682	n/a	5.0	GoodResponse	0	0.001	572.967	8	60	Feedback	Neutral	True
575.415	2.682	Control	0.6720999999999999	n/a	Yes	2.682	n/a	n/a	GoodResponse	0	0.0	n/a	8	60	ISIslide	Neutral	True
578.114	0.25	Lose2	0.6613	0.0	No	2.986	0.014	n/a	NoResponse	-1	n/a	n/a	7	61	Cue	Loss	True
578.364	4.0	Lose2	0.6613	0.0	No	2.986	0.0	n/a	NoResponse	-1	n/a	n/a	7	61	Fixation	Loss	True
582.363	0.15	Lose2	0.6613	0.001	No	2.986	-0.001	4.0	NoResponse	-1	0.308	581.671	7	61	Target	Loss	True
582.513	0.55	Lose2	0.6613	n/a	No	2.986	n/a	n/a	NoResponse	-1	n/a	n/a	7	61	Blank	Loss	True
582.671	0.3	Lose2	0.6613	0.001	No	2.986	-0.001	4.0	NoResponse	-1	0.308	n/a	7	61	ButtonPress	Loss	True
583.063	1.45	Lose2	0.6613	n/a	No	2.986	n/a	5.0	NoResponse	-1	0.026	582.089	7	61	Feedback	Loss	True
584.512	2.986	Lose2	0.6613	n/a	No	2.986	n/a	n/a	NoResponse	-1	0.0	n/a	7	61	ISIslide	Loss	True
587.528	0.25	Lose2	0.6507999999999999	0.0	No	2.872	0.028	n/a	NoResponse	-1	n/a	n/a	6	62	Cue	Loss	True
587.778	3.9	Lose2	0.6507999999999999	0.0	No	2.872	0.0	n/a	NoResponse	-1	n/a	n/a	6	62	Fixation	Loss	True
591.676	0.15	Lose2	0.6507999999999999	0.002	No	2.872	-0.002	4.0	NoResponse	-1	0.219	590.895	6	62	Target	Loss	True
591.826	0.55	Lose2	0.6507999999999999	n/a	No	2.872	n/a	n/a	NoResponse	-1	n/a	n/a	6	62	Blank	Loss	True
591.895	0.3	Lose2	0.6507999999999999	0.002	No	2.872	-0.002	4.0	NoResponse	-1	0.219	n/a	6	62	ButtonPress	Loss	True
592.376	1.45	Lose2	0.6507999999999999	n/a	No	2.872	n/a	5.0	NoResponse	-1	0.03	591.406	6	62	Feedback	Loss	True
593.825	2.872	Lose2	0.6507999999999999	n/a	No	2.872	n/a	n/a	NoResponse	-1	0.0	n/a	6	62	ISIslide	Loss	True
596.724	0.25	Lose2	0.6406000000000001	0.0	No	2.626	0.024	n/a	NoResponse	-1	n/a	n/a	5	63	Cue	Loss	True
596.974	4.05	Lose2	0.6406000000000001	0.0	No	2.626	0.0	n/a	NoResponse	-1	n/a	n/a	5	63	Fixation	Loss	True
601.023	0.16	Lose2	0.6406000000000001	0.001	No	2.626	-0.001	4.0	NoResponse	-1	0.196	600.219	5	63	Target	Loss	True
601.189	0.54	Lose2	0.6406000000000001	n/a	No	2.626	n/a	n/a	NoResponse	-1	n/a	n/a	5	63	Blank	Loss	True
601.219	0.3	Lose2	0.6406000000000001	0.001	No	2.626	-0.001	4.0	NoResponse	-1	0.196	n/a	5	63	ButtonPress	Loss	True
601.723	1.45	Lose2	0.6406000000000001	n/a	No	2.626	n/a	5.0	NoResponse	-1	0.0	600.723	5	63	Feedback	Loss	True
603.172	2.626	Lose2	0.6406000000000001	n/a	No	2.626	n/a	n/a	NoResponse	-1	0.0	n/a	5	63	ISIslide	Loss	True
605.821	0.25	Win2	0.6308	0.0	No	3.129	0.021	n/a	NoResponse	0	n/a	n/a	5	64	Cue	MissedWin	False
606.071	4.15	Win2	0.6308	0.0	No	3.129	0.0	4.0	NoResponse	0	3.198	608.269	5	64	Fixation	MissedWin	False
609.269	0.3	Win2	0.6308	0.0	No	3.129	0.0	4.0	NoResponse	0	3.198	n/a	5	64	ButtonPress	MissedWin	False
610.22	0.17	Win2	0.6308	0.001	No	3.129	-0.001	4.0	NoResponse	0	0.192	609.412	5	64	Target	MissedWin	False
610.403	0.53	Win2	0.6308	n/a	No	3.129	n/a	n/a	NoResponse	0	n/a	n/a	5	64	Blank	MissedWin	False
610.412	0.3	Win2	0.6308	0.001	No	3.129	-0.001	4.0	NoResponse	0	0.192	n/a	5	64	ButtonPress	MissedWin	False
610.919	1.45	Win2	0.6308	n/a	No	3.129	n/a	5.0	NoResponse	0	0.023	609.942	5	64	Feedback	MissedWin	False
612.369	3.129	Win2	0.6308	n/a	No	3.129	n/a	n/a	NoResponse	0	0.0	n/a	5	64	ISIslide	MissedWin	False
615.518	0.25	Control	0.6212	0.0	No	2.782	0.018	n/a	NoResponse	0	n/a	n/a	5	65	Cue	Neutral	True
615.768	4.0	Control	0.6212	0.0	No	2.782	0.0	n/a	NoResponse	0	n/a	n/a	5	65	Fixation	Neutral	True
619.766	0.18	Control	0.6212	0.002	No	2.782	-0.002	4.0	NoResponse	0	0.379	619.145	5	65	Target	Neutral	True
619.949	0.52	Control	0.6212	n/a	No	2.782	n/a	n/a	NoResponse	0	n/a	n/a	5	65	Blank	Neutral	True
620.145	0.3	Control	0.6212	0.002	No	2.782	-0.002	4.0	NoResponse	0	0.379	n/a	5	65	ButtonPress	Neutral	True
620.466	1.45	Control	0.6212	n/a	No	2.782	n/a	5.0	NoResponse	0	0.037	619.503	5	65	Feedback	Neutral	True
621.915	2.782	Control	0.6212	n/a	No	2.782	n/a	n/a	NoResponse	0	0.0	n/a	5	65	ISIslide	Neutral	True
624.714	0.25	Win2	0.6119	0.0	No	2.786	0.014	n/a	LatePress	0	n/a	n/a	5	66	Cue	MissedWin	True
624.964	3.9	Win2	0.6119	0.0	No	2.786	0.0	n/a	LatePress	0	n/a	n/a	5	66	Fixation	MissedWin	True
628.863	0.19	Win2	0.6119	0.001	No	2.786	-0.001	4.0	LatePress	0	0.191	628.054	5	66	Target	MissedWin	True
629.054	0.3	Win2	0.6119	0.001	No	2.786	-0.001	4.0	LatePress	0	0.191	n/a	5	66	ButtonPress	MissedWin	True
629.063	0.51	Win2	0.6119	n/a	No	2.786	n/a	n/a	LatePress	0	n/a	n/a	5	66	Blank	MissedWin	True
629.563	1.45	Win2	0.6119	n/a	No	2.786	n/a	5.0	LatePress	0	0.013	628.576	5	66	Feedback	MissedWin	True
631.012	2.786	Win2	0.6119	n/a	No	2.786	n/a	n/a	LatePress	0	0.0	n/a	5	66	ISIslide	MissedWin	True
633.828	0.25	Control	0.6029	0.0	No	2.722	0.028	n/a	LatePress	0	n/a	n/a	5	67	Cue	Neutral	True
634.078	3.95	Control	0.6029	0.0	No	2.722	0.0	n/a	LatePress	0	n/a	n/a	5	67	Fixation	Neutral	True
638.026	0.2	Control	0.6029	0.002	No	2.722	-0.002	4.0	LatePress	0	0.201	637.227	5	67	Target	Neutral	True
638.226	0.5	Control	0.6029	n/a	No	2.722	n/a	n/a	LatePress	0	n/a	n/a	5	67	Blank	Neutral	True
638.227	0.3	Control	0.6029	0.002	No	2.722	-0.002	4.0	LatePress	0	0.201	n/a	5	67	ButtonPress	Neutral	True
638.726	1.45	Control	0.6029	n/a	No	2.722	n/a	5.0	LatePress	0	0.021	637.747	5	67	Feedback	Neutral	True
640.176	2.722	Control	0.6029	n/a	No	2.722	n/a	n/a	LatePress	0	0.0	n/a	5	67	ISIslide	Neutral	True
642.925	0.25	Win2	0.6087	0.0	Yes	3.075	0.025	n/a	GoodResponse	1	n/a	n/a	6	68	Cue	Win	False
643.174	4.0	Win2	0.6087	0.001	Yes	3.075	-0.001	4.0	GoodResponse	1	3.662	645.836	6	68	Fixation	Win	False
646.836	0.3	Win2	0.6087	0.001	Yes	3.075	-0.001	4.0	GoodResponse	1	3.662	n/a	6	68	ButtonPress	Win	False
647.173	0.21	Win2	0.6087	0.002	Yes	3.075	-0.002	4.0	GoodResponse	1	0.165	646.338	6	68	Target	Win	False
647.338	0.3	Win2	0.6087	0.002	Yes	3.075	-0.002	4.0	GoodResponse	1	0.165	n/a	6	68	ButtonPress	Win	False
647.39	0.49	Win2	0.6087	n/a	Yes	3.075	n/a	n/a	GoodResponse	1	n/a	n/a	6	68	Blank	Win	False
647.873	1.45	Win2	0.6087	n/a	Yes	3.075	n/a	5.0	GoodResponse	1	0.044	646.917	6	68	Feedback	Win	False
649.322	3.075	Win2	0.6087	n/a	Yes	3.075	n/a	n/a	GoodResponse	1	0.0	n/a	6	68	ISIslide	Win	False
652.421	0.25	Win2	0.6143	0.0	Yes	3.229	0.021	n/a	GoodResponse	1	n/a	n/a	7	69	Cue	Win	True
652.671	3.95	Win2	0.6143	0.0	Yes	3.229	0.0	n/a	GoodResponse	1	n/a	n/a	7	69	Fixation	Win	True
656.62	0.22	Win2	0.6143	0.001	Yes	3.229	-0.001	4.0	GoodResponse	1	0.201	655.821	7	69	Target	Win	True
656.821	0.3	Win2	0.6143	0.001	Yes	3.229	-0.001	4.0	GoodResponse	1	0.201	n/a	7	69	ButtonPress	Win	True
656.853	0.48	Win2	0.6143	n/a	Yes	3.229	n/a	n/a	GoodResponse	1	n/a	n/a	7	69	Blank	Win	True
657.319	1.45	Win2	0.6143	n/a	Yes	3.229	n/a	5.0	GoodResponse	1	0.013	656.332	7	69	Feedback	Win	True
658.769	3.229	Win2	0.6143	n/a	Yes	3.229	n/a	n/a	GoodResponse	1	0.0	n/a	7	69	ISIslide	Win	True
662.018	0.25	Lose2	0.6197	0.0	Yes	3.032	0.018	n/a	GoodResponse	0	n/a	n/a	7	70	Cue	AvoidedLoss	True
662.268	4.05	Lose2	0.6197	0.0	Yes	3.032	0.0	n/a	GoodResponse	0	n/a	n/a	7	70	Fixation	AvoidedLoss	True
666.316	0.23	Lose2	0.6197	0.002	Yes	3.032	-0.002	4.0	GoodResponse	0	0.206	665.522	7	70	Target	AvoidedLoss	True
666.522	0.3	Lose2	0.6197	0.002	Yes	3.032	-0.002	4.0	GoodResponse	0	0.206	n/a	7	70	ButtonPress	AvoidedLoss	True
666.549	0.47	Lose2	0.6197	n/a	Yes	3.032	n/a	n/a	GoodResponse	0	n/a	n/a	7	70	Blank	AvoidedLoss	True
667.016	1.45	Lose2	0.6197	n/a	Yes	3.032	n/a	5.0	GoodResponse	0	0.023	666.039	7	70	Feedback	AvoidedLoss	True
668.465	3.032	Lose2	0.6197	n/a	Yes	3.032	n/a	n/a	GoodResponse	0	0.0	n/a	7	70	ISIslide	AvoidedLoss	True
671.514	0.25	Win2	0.6111	0.0	No	2.736	0.014	n/a	NoResponse	0	n/a	n/a	7	71	Cue	MissedWin	True
671.764	4.05	Win2	0.6111	0.0	No	2.736	0.0	n/a	NoResponse	0	n/a	n/a	7	71	Fixation	MissedWin	True
675.813	0.24	Win2	0.6111	0.001	No	2.736	-0.001	4.0	NoResponse	0	0.61	675.423	7	71	Target	MissedWin	True
676.063	0.46	Win2	0.6111	n/a	No	2.736	n/a	n/a	NoResponse	0	n/a	n/a	7	71	Blank	MissedWin	True
676.423	0.3	Win2	0.6111	0.001	No	2.736	-0.001	4.0	NoResponse	0	0.61	n/a	7	71	ButtonPress	MissedWin	True
676.513	1.45	Win2	0.6111	n/a	No	2.736	n/a	5.0	NoResponse	0	0.038	675.551	7	71	Feedback	MissedWin	True
677.962	2.736	Win2	0.6111	n/a	No	2.736	n/a	n/a	NoResponse	0	0.0	n/a	7	71	ISIslide	MissedWin	True
680.728	0.25	Win2	0.6027	0.0	No	2.772	0.028	n/a	NoResponse	0	n/a	n/a	7	72	Cue	MissedWin	True
680.978	4.1	Win2	0.6027	0.0	No	2.772	0.0	n/a	NoResponse	0	n/a	n/a	7	72	Fixation	MissedWin	True
685.076	0.25	Win2	0.6027	0.002	No	2.772	-0.002	4.0	NoResponse	0	0.563	684.639	7	72	Target	MissedWin	True
685.326	0.45	Win2	0.6027	n/a	No	2.772	n/a	n/a	NoResponse	0	n/a	n/a	7	72	Blank	MissedWin	True
685.639	0.3	Win2	0.6027	0.002	No	2.772	-0.002	4.0	NoResponse	0	0.563	n/a	7	72	ButtonPress	MissedWin	True
685.776	1.45	Win2	0.6027	n/a	No	2.772	n/a	5.0	NoResponse	0	0.043	684.819	7	72	Feedback	MissedWin	True
687.225	2.772	Win2	0.6027	n/a	No	2.772	n/a	n/a	NoResponse	0	0.0	n/a	7	72	ISIslide	MissedWin	True
690.024	0.25	Win2	0.6081	0.001	Yes	2.676	0.024	n/a	GoodResponse	1	n/a	n/a	8	73	Cue	Win	True
690.274	4.0	Win2	0.6081	0.0	Yes	2.676	0.0	n/a	GoodResponse	1	n/a	n/a	8	73	Fixation	Win	True
694.273	0.26	Win2	0.6081	0.001	Yes	2.676	-0.001	4.0	GoodResponse	1	0.168	693.441	8	73	Target	Win	True
694.441	0.3	Win2	0.6081	0.001	Yes	2.676	-0.001	4.0	GoodResponse	1	0.168	n/a	8	73	ButtonPress	Win	True
694.54	0.44	Win2	0.6081	n/a	Yes	2.676	n/a	n/a	GoodResponse	1	n/a	n/a	8	73	Blank	Win	True
694.973	1.45	Win2	0.6081	n/a	Yes	2.676	n/a	5.0	GoodResponse	1	0.017	693.99	8	73	Feedback	Win	True
696.422	2.676	Win2	0.6081	n/a	Yes	2.676	n/a	n/a	GoodResponse	1	0.0	n/a	8	73	ISIslide	Win	True
699.121	0.25	Lose2	0.6133	0.0	Yes	2.629	0.021	n/a	GoodResponse	0	n/a	n/a	8	74	Cue	AvoidedLoss	True
699.371	4.05	Lose2	0.6133	0.0	Yes	2.629	0.0	n/a	GoodResponse	0	n/a	n/a	8	74	Fixation	AvoidedLoss	True
703.42	0.27	Lose2	0.6133	0.001	Yes	2.629	-0.001	4.0	GoodResponse	0	0.201	702.621	8	74	Target	AvoidedLoss	True
703.621	0.3	Lose2	0.6133	0.001	Yes	2.629	-0.001	4.0	GoodResponse	0	0.201	n/a	8	74	ButtonPress	AvoidedLoss	True
703.703	0.43	Lose2	0.6133	n/a	Yes	2.629	n/a	n/a	GoodResponse	0	n/a	n/a	8	74	Blank	AvoidedLoss	True
704.119	1.45	Lose2	0.6133	n/a	Yes	2.629	n/a	5.0	GoodResponse	0	0.041	703.16	8	74	Feedback	AvoidedLoss	True
705.569	2.629	Lose2	0.6133	n/a	Yes	2.629	n/a	n/a	GoodResponse	0	0.0	n/a	8	74	ISIslide	AvoidedLoss	True
708.218	0.25	Lose2	0.6184000000000001	0.0	Yes	2.932	0.018	n/a	GoodResponse	0	n/a	n/a	8	75	Cue	AvoidedLoss	True
708.468	3.95	Lose2	0.6184000000000001	0.0	Yes	2.932	0.0	n/a	GoodResponse	0	n/a	n/a	8	75	Fixation	AvoidedLoss	True
712.417	0.28	Lose2	0.6184000000000001	0.001	Yes	2.932	-0.001	4.0	GoodResponse	0	0.153	711.57	8	75	Target	AvoidedLoss	True
712.57	0.3	Lose2	0.6184000000000001	0.001	Yes	2.932	-0.001	4.0	GoodResponse	0	0.153	n/a	8	75	ButtonPress	AvoidedLoss	True
712.7	0.42	Lose2	0.6184000000000001	n/a	Yes	2.932	n/a	n/a	GoodResponse	0	n/a	n/a	8	75	Blank	AvoidedLoss	True
713.116	1.45	Lose2	0.6184000000000001	n/a	Yes	2.932	n/a	5.0	GoodResponse	0	0.02	712.136	8	75	Feedback	AvoidedLoss	True
714.566	2.932	Lose2	0.6184000000000001	n/a	Yes	2.932	n/a	n/a	GoodResponse	0	0.0	n/a	8	75	ISIslide	AvoidedLoss	True
717.515	0.25	Control	0.6234000000000001	0.0	Yes	3.235	0.015	n/a	GoodResponse	0	n/a	n/a	8	76	Cue	Neutral	True
717.765	4.05	Control	0.6234000000000001	0.0	Yes	3.235	0.0	n/a	GoodResponse	0	n/a	n/a	8	76	Fixation	Neutral	True
721.813	0.29	Control	0.6234000000000001	0.002	Yes	3.235	-0.002	4.0	GoodResponse	0	0.189	721.002	8	76	Target	Neutral	True
722.002	0.3	Control	0.6234000000000001	0.002	Yes	3.235	-0.002	4.0	GoodResponse	0	0.189	n/a	8	76	ButtonPress	Neutral	True
722.113	0.41	Control	0.6234000000000001	n/a	Yes	3.235	n/a	n/a	GoodResponse	0	n/a	n/a	8	76	Blank	Neutral	True
722.513	1.45	Control	0.6234000000000001	n/a	Yes	3.235	n/a	5.0	GoodResponse	0	0.038	721.551	8	76	Feedback	Neutral	True
723.962	3.235	Control	0.6234000000000001	n/a	Yes	3.235	n/a	n/a	GoodResponse	0	0.0	n/a	8	76	ISIslide	Neutral	True
727.228	0.25	Lose2	0.6154	0.0	No	2.572	0.028	n/a	NoResponse	-1	n/a	n/a	7	77	Cue	Loss	True
727.478	3.95	Lose2	0.6154	0.0	No	2.572	0.0	n/a	NoResponse	-1	n/a	n/a	7	77	Fixation	Loss	True
731.426	0.3	Lose2	0.6154	0.002	No	2.572	-0.002	4.0	NoResponse	-1	0.321	730.747	7	77	Target	Loss	True
731.726	0.4	Lose2	0.6154	n/a	No	2.572	n/a	n/a	NoResponse	-1	n/a	n/a	7	77	Blank	Loss	True
731.747	0.3	Lose2	0.6154	0.002	No	2.572	-0.002	4.0	NoResponse	-1	0.321	n/a	7	77	ButtonPress	Loss	True
732.126	1.45	Lose2	0.6154	n/a	No	2.572	n/a	5.0	NoResponse	-1	0.034	731.16	7	77	Feedback	Loss	True
733.576	2.572	Lose2	0.6154	n/a	No	2.572	n/a	n/a	NoResponse	-1	0.0	n/a	7	77	ISIslide	Loss	True
