onset	duration	cue_type	current_mean_accuracy	duration_error	is_hit	isi_adjusted	onset_delay	response	response_type	reward	rt	rt_time	total_reward	trial_number	trial_phase	trial_type	one_press
11.097	0.25	Control	1.0	0.0	Yes	2.953	-0.003	n/a	GoodResponse	0	n/a	n/a	0	0	Cue	Neutral	True
11.348	3.85	Control	1.0	0.0	Yes	2.953	0.001	n/a	GoodResponse	0	n/a	n/a	0	0	Fixation	Neutral	True
15.209	0.4	Control	1.0	0.0	Yes	2.953	0.012	2.0	GoodResponse	0	0.22	14.429	0	0	Target	Neutral	True
15.429	0.3	Control	1.0	0.0	Yes	2.953	0.012	2.0	GoodResponse	0	0.22	n/a	0	0	ButtonPress	Neutral	True
15.594	0.3	Control	1.0	n/a	Yes	2.953	n/a	n/a	GoodResponse	0	n/a	n/a	0	0	Blank	Neutral	True
15.895	1.45	Control	1.0	n/a	Yes	2.953	n/a	5.0	GoodResponse	0	0.032	14.927	0	0	Feedback	Neutral	True
17.349	2.953	Control	1.0	n/a	Yes	2.953	n/a	n/a	GoodResponse	0	0.0	n/a	0	0	ISIslide	Neutral	True
20.325	0.25	Lose2	1.0	0.0	Yes	2.775	0.025	n/a	GoodResponse	0	n/a	n/a	0	1	Cue	AvoidedLoss	True
20.575	4.0	Lose2	1.0	0.0	Yes	2.775	0.0	n/a	GoodResponse	0	n/a	n/a	0	1	Fixation	AvoidedLoss	True
24.571	0.39	Lose2	1.0	0.004	Yes	2.775	-0.004	2.0	GoodResponse	0	0.212	23.783	0	1	Target	AvoidedLoss	True
24.783	0.3	Lose2	1.0	0.004	Yes	2.775	-0.004	2.0	GoodResponse	0	0.212	n/a	0	1	ButtonPress	AvoidedLoss	True
24.972	0.31	Lose2	1.0	n/a	Yes	2.775	n/a	n/a	GoodResponse	0	n/a	n/a	0	1	Blank	AvoidedLoss	True
25.273	1.45	Lose2	1.0	n/a	Yes	2.775	n/a	5.0	GoodResponse	0	0.02	24.293	0	1	Feedback	AvoidedLoss	True
26.727	2.775	Lose2	1.0	n/a	Yes	2.775	n/a	n/a	GoodResponse	0	0.0	n/a	0	1	ISIslide	AvoidedLoss	True
29.519	0.25	Control	1.0	0.0	Yes	2.581	0.019	n/a	GoodResponse	0	n/a	n/a	0	2	Cue	Neutral	True
29.77	4.1	Control	1.0	0.0	Yes	2.581	0.001	n/a	GoodResponse	0	n/a	n/a	0	2	Fixation	Neutral	True
33.865	0.38	Control	1.0	0.004	Yes	2.581	-0.004	2.0	GoodResponse	0	0.263	33.128	0	2	Target	Neutral	True
34.128	0.3	Control	1.0	0.004	Yes	2.581	-0.004	2.0	GoodResponse	0	0.263	n/a	0	2	ButtonPress	Neutral	True
34.25	0.32	Control	1.0	n/a	Yes	2.581	n/a	n/a	GoodResponse	0	n/a	n/a	0	2	Blank	Neutral	True
34.567	1.45	Control	1.0	n/a	Yes	2.581	n/a	5.0	GoodResponse	0	0.043	33.61	0	2	Feedback	Neutral	True
36.022	2.581	Control	1.0	n/a	Yes	2.581	n/a	n/a	GoodResponse	0	0.0	n/a	0	2	ISIslide	Neutral	True
38.629	0.25	Win2	1.0	0.001	Yes	2.821	0.029	n/a	GoodResponse	1	n/a	n/a	1	3	Cue	Win	True
38.88	3.95	Win2	1.0	0.0	Yes	2.821	0.001	n/a	GoodResponse	1	n/a	n/a	1	3	Fixation	Win	True
42.825	0.37	Win2	1.0	0.004	Yes	2.821	-0.004	2.0	GoodResponse	1	0.225	42.05	1	3	Target	Win	True
43.05	0.3	Win2	1.0	0.004	Yes	2.821	-0.004	2.0	GoodResponse	1	0.225	n/a	1	3	ButtonPress	Win	True
43.21	0.33	Win2	1.0	n/a	Yes	2.821	n/a	n/a	GoodResponse	1	n/a	n/a	1	3	Blank	Win	True
43.527	1.45	Win2	1.0	n/a	Yes	2.821	n/a	5.0	GoodResponse	1	0.01	42.537	1	3	Feedback	Win	True
44.982	2.821	Win2	1.0	n/a	Yes	2.821	n/a	n/a	GoodResponse	1	0.0	n/a	1	3	ISIslide	Win	True
47.824	0.25	Win2	1.0	0.0	Yes	3.276	0.024	n/a	GoodResponse	1	n/a	n/a	2	4	Cue	Win	True
48.074	4.0	Win2	1.0	0.001	Yes	3.276	0.0	n/a	GoodResponse	1	n/a	n/a	2	4	Fixation	Win	True
52.07	0.36	Win2	1.0	0.004	Yes	3.276	-0.004	2.0	GoodResponse	1	0.233	51.303	2	4	Target	Win	True
52.303	0.3	Win2	1.0	0.004	Yes	3.276	-0.004	2.0	GoodResponse	1	0.233	n/a	2	4	ButtonPress	Win	True
52.438	0.34	Win2	1.0	n/a	Yes	3.276	n/a	n/a	GoodResponse	1	n/a	n/a	2	4	Blank	Win	True
52.772	1.45	Win2	1.0	n/a	Yes	3.276	n/a	5.0	GoodResponse	1	0.033	51.805	2	4	Feedback	Win	True
54.226	3.276	Win2	1.0	n/a	Yes	3.276	n/a	n/a	GoodResponse	1	0.0	n/a	2	4	ISIslide	Win	True
57.519	0.25	Win2	1.0	0.001	Yes	2.781	0.019	n/a	GoodResponse	1	n/a	n/a	3	5	Cue	Win	True
57.77	4.0	Win2	1.0	0.0	Yes	2.781	0.001	n/a	GoodResponse	1	n/a	n/a	3	5	Fixation	Win	True
61.766	0.35	Win2	1.0	0.003	Yes	2.781	-0.003	2.0	GoodResponse	1	0.232	60.998	3	5	Target	Win	True
61.998	0.3	Win2	1.0	0.003	Yes	2.781	-0.003	2.0	GoodResponse	1	0.232	n/a	3	5	ButtonPress	Win	True
62.117	0.35	Win2	1.0	n/a	Yes	2.781	n/a	n/a	GoodResponse	1	n/a	n/a	3	5	Blank	Win	True
62.468	1.45	Win2	1.0	n/a	Yes	2.781	n/a	5.0	GoodResponse	1	0.044	61.512	3	5	Feedback	Win	True
63.922	2.781	Win2	1.0	n/a	Yes	2.781	n/a	n/a	GoodResponse	1	0.0	n/a	3	5	ISIslide	Win	True
66.73	0.25	Lose2	1.0	0.001	Yes	2.72	0.03	n/a	GoodResponse	0	n/a	n/a	3	6	Cue	AvoidedLoss	True
66.981	3.95	Lose2	1.0	0.0	Yes	2.72	0.001	n/a	GoodResponse	0	n/a	n/a	3	6	Fixation	AvoidedLoss	True
70.926	0.34	Lose2	1.0	0.004	Yes	2.72	-0.004	2.0	GoodResponse	0	0.224	70.15	3	6	Target	AvoidedLoss	True
71.15	0.3	Lose2	1.0	0.004	Yes	2.72	-0.004	2.0	GoodResponse	0	0.224	n/a	3	6	ButtonPress	AvoidedLoss	True
71.277	0.36	Lose2	1.0	n/a	Yes	2.72	n/a	n/a	GoodResponse	0	n/a	n/a	3	6	Blank	AvoidedLoss	True
71.628	1.45	Lose2	1.0	n/a	Yes	2.72	n/a	5.0	GoodResponse	0	0.008	70.636	3	6	Feedback	AvoidedLoss	True
73.083	2.72	Lose2	1.0	n/a	Yes	2.72	n/a	n/a	GoodResponse	0	0.0	n/a	3	6	ISIslide	AvoidedLoss	True
75.824	0.25	Lose2	1.0	0.0	Yes	4.026	0.024	n/a	GoodResponse	0	n/a	n/a	3	7	Cue	AvoidedLoss	True
76.075	4.05	Lose2	1.0	0.0	Yes	4.026	0.001	n/a	GoodResponse	0	n/a	n/a	3	7	Fixation	AvoidedLoss	True
80.121	0.33	Lose2	1.0	0.003	Yes	4.026	-0.003	2.0	GoodResponse	0	0.247	79.368	3	7	Target	AvoidedLoss	True
80.368	0.3	Lose2	1.0	0.003	Yes	4.026	-0.003	2.0	GoodResponse	0	0.247	n/a	3	7	ButtonPress	AvoidedLoss	True
80.455	0.37	Lose2	1.0	n/a	Yes	4.026	n/a	n/a	GoodResponse	0	n/a	n/a	3	7	Blank	AvoidedLoss	True
80.823	1.45	Lose2	1.0	n/a	Yes	4.026	n/a	5.0	GoodResponse	0	0.031	79.854	3	7	Feedback	AvoidedLoss	True
82.277	4.026	Lose2	1.0	n/a	Yes	4.026	n/a	n/a	GoodResponse	0	0.0	n/a	3	7	ISIslide	AvoidedLoss	True
86.323	0.25	Lose2	1.0	0.0	Yes	3.027	0.023	n/a	GoodResponse	0	n/a	n/a	3	8	Cue	AvoidedLoss	True
86.573	3.95	Lose2	1.0	0.0	Yes	3.027	0.0	n/a	GoodResponse	0	n/a	n/a	3	8	Fixation	AvoidedLoss	True
90.535	0.32	Lose2	1.0	0.0	Yes	3.027	0.012	2.0	GoodResponse	0	0.285	89.82	3	8	Target	AvoidedLoss	True
90.82	0.3	Lose2	1.0	0.0	Yes	3.027	0.012	2.0	GoodResponse	0	0.285	n/a	3	8	ButtonPress	AvoidedLoss	True
90.853	0.38	Lose2	1.0	n/a	Yes	3.027	n/a	n/a	GoodResponse	0	n/a	n/a	3	8	Blank	AvoidedLoss	True
91.221	1.45	Lose2	1.0	n/a	Yes	3.027	n/a	5.0	GoodResponse	0	0.023	90.244	3	8	Feedback	AvoidedLoss	True
92.675	3.027	Lose2	1.0	n/a	Yes	3.027	n/a	n/a	GoodResponse	0	0.0	n/a	3	8	ISIslide	AvoidedLoss	True
95.717	0.25	Lose2	1.0	0.0	Yes	3.133	0.017	n/a	GoodResponse	0	n/a	n/a	3	9	Cue	AvoidedLoss	True
95.968	3.95	Lose2	1.0	0.0	Yes	3.133	0.001	n/a	GoodResponse	0	n/a	n/a	3	9	Fixation	AvoidedLoss	True
99.913	0.31	Lose2	1.0	0.004	Yes	3.133	-0.004	2.0	GoodResponse	0	0.282	99.195	3	9	Target	AvoidedLoss	True
100.195	0.3	Lose2	1.0	0.004	Yes	3.133	-0.004	2.0	GoodResponse	0	0.282	n/a	3	9	ButtonPress	AvoidedLoss	True
100.231	0.39	Lose2	1.0	n/a	Yes	3.133	n/a	n/a	GoodResponse	0	n/a	n/a	3	9	Blank	AvoidedLoss	True
100.615	1.45	Lose2	1.0	n/a	Yes	3.133	n/a	5.0	GoodResponse	0	0.044	99.659	3	9	Feedback	AvoidedLoss	True
102.07	3.133	Lose2	1.0	n/a	Yes	3.133	n/a	n/a	GoodResponse	0	0.0	n/a	3	9	ISIslide	AvoidedLoss	True
105.229	0.25	Control	1.0	0.0	Yes	3.271	0.029	n/a	GoodResponse	0	n/a	n/a	3	10	Cue	Neutral	True
105.48	4.0	Control	1.0	0.0	Yes	3.271	0.001	n/a	GoodResponse	0	n/a	n/a	3	10	Fixation	Neutral	True
109.475	0.3	Control	1.0	0.004	Yes	3.271	-0.004	2.0	GoodResponse	0	0.225	108.7	3	10	Target	Neutral	True
109.7	0.3	Control	1.0	0.004	Yes	3.271	-0.004	2.0	GoodResponse	0	0.225	n/a	3	10	ButtonPress	Neutral	True
109.776	0.4	Control	1.0	n/a	Yes	3.271	n/a	n/a	GoodResponse	0	n/a	n/a	3	10	Blank	Neutral	True
110.177	1.45	Control	1.0	n/a	Yes	3.271	n/a	5.0	GoodResponse	0	0.043	109.22	3	10	Feedback	Neutral	True
111.632	3.271	Control	1.0	n/a	Yes	3.271	n/a	n/a	GoodResponse	0	0.0	n/a	3	10	ISIslide	Neutral	True
114.925	0.25	Lose2	1.0	0.0	Yes	2.725	0.025	n/a	GoodResponse	0	n/a	n/a	3	11	Cue	AvoidedLoss	True
115.176	4.05	Lose2	1.0	0.0	Yes	2.725	0.001	n/a	GoodResponse	0	n/a	n/a	3	11	Fixation	AvoidedLoss	True
119.221	0.29	Lose2	1.0	0.004	Yes	2.725	-0.004	2.0	GoodResponse	0	0.223	118.444	3	11	Target	AvoidedLoss	True
119.444	0.3	Lose2	1.0	0.004	Yes	2.725	-0.004	2.0	GoodResponse	0	0.223	n/a	3	11	ButtonPress	AvoidedLoss	True
119.522	0.41	Lose2	1.0	n/a	Yes	2.725	n/a	n/a	GoodResponse	0	n/a	n/a	3	11	Blank	AvoidedLoss	True
119.923	1.45	Lose2	1.0	n/a	Yes	2.725	n/a	5.0	GoodResponse	0	0.007	118.93	3	11	Feedback	AvoidedLoss	True
121.378	2.725	Lose2	1.0	n/a	Yes	2.725	n/a	n/a	GoodResponse	0	0.0	n/a	3	11	ISIslide	AvoidedLoss	True
124.119	0.25	Control	1.0	0.0	Yes	2.981	0.019	n/a	GoodResponse	0	n/a	n/a	3	12	Cue	Neutral	True
124.37	3.9	Control	1.0	0.0	Yes	2.981	0.001	n/a	GoodResponse	0	n/a	n/a	3	12	Fixation	Neutral	True
128.265	0.28	Control	1.0	0.004	Yes	2.981	-0.004	2.0	GoodResponse	0	0.245	127.51	3	12	Target	Neutral	True
128.51	0.3	Control	1.0	0.004	Yes	2.981	-0.004	2.0	GoodResponse	0	0.245	n/a	3	12	ButtonPress	Neutral	True
128.549	0.42	Control	1.0	n/a	Yes	2.981	n/a	n/a	GoodResponse	0	n/a	n/a	3	12	Blank	Neutral	True
128.967	1.45	Control	1.0	n/a	Yes	2.981	n/a	5.0	GoodResponse	0	0.033	128.0	3	12	Feedback	Neutral	True
130.421	2.981	Control	1.0	n/a	Yes	2.981	n/a	n/a	GoodResponse	0	0.0	n/a	3	12	ISIslide	Neutral	True
133.414	0.25	Control	1.0	0.0	Yes	2.786	0.014	n/a	GoodResponse	0	n/a	n/a	3	13	Cue	Neutral	True
133.665	4.0	Control	1.0	0.0	Yes	2.786	0.001	n/a	GoodResponse	0	n/a	n/a	3	13	Fixation	Neutral	True
137.66	0.27	Control	1.0	0.004	Yes	2.786	-0.004	2.0	GoodResponse	0	0.229	136.889	3	13	Target	Neutral	True
137.889	0.3	Control	1.0	0.004	Yes	2.786	-0.004	2.0	GoodResponse	0	0.229	n/a	3	13	ButtonPress	Neutral	True
137.944	0.43	Control	1.0	n/a	Yes	2.786	n/a	n/a	GoodResponse	0	n/a	n/a	3	13	Blank	Neutral	True
138.362	1.45	Control	1.0	n/a	Yes	2.786	n/a	5.0	GoodResponse	0	0.008	137.37	3	13	Feedback	Neutral	True
139.816	2.786	Control	1.0	n/a	Yes	2.786	n/a	n/a	GoodResponse	0	0.0	n/a	3	13	ISIslide	Neutral	True
142.625	0.25	Win2	1.0	0.0	Yes	2.675	0.025	n/a	GoodResponse	1	n/a	n/a	4	14	Cue	Win	True
142.876	4.1	Win2	1.0	0.0	Yes	2.675	0.001	n/a	GoodResponse	1	n/a	n/a	4	14	Fixation	Win	True
146.971	0.26	Win2	1.0	0.004	Yes	2.675	-0.004	2.0	GoodResponse	1	0.237	146.208	4	14	Target	Win	True
147.208	0.3	Win2	1.0	0.004	Yes	2.675	-0.004	2.0	GoodResponse	1	0.237	n/a	4	14	ButtonPress	Win	True
147.239	0.44	Win2	1.0	n/a	Yes	2.675	n/a	n/a	GoodResponse	1	n/a	n/a	4	14	Blank	Win	True
147.673	1.45	Win2	1.0	n/a	Yes	2.675	n/a	5.0	GoodResponse	1	0.01	146.683	4	14	Feedback	Win	True
149.128	2.675	Win2	1.0	n/a	Yes	2.675	n/a	n/a	GoodResponse	1	0.0	n/a	4	14	ISIslide	Win	True
151.819	0.25	Control	1.0	0.0	Yes	2.981	0.019	n/a	GoodResponse	0	n/a	n/a	4	15	Cue	Neutral	True
152.07	4.0	Control	1.0	0.0	Yes	2.981	0.001	n/a	GoodResponse	0	n/a	n/a	4	15	Fixation	Neutral	True
156.065	0.25	Control	1.0	0.004	Yes	2.981	-0.004	2.0	GoodResponse	0	0.244	155.309	4	15	Target	Neutral	True
156.309	0.3	Control	1.0	0.004	Yes	2.981	-0.004	2.0	GoodResponse	0	0.244	n/a	4	15	ButtonPress	Neutral	True
156.316	0.45	Control	1.0	n/a	Yes	2.981	n/a	n/a	GoodResponse	0	n/a	n/a	4	15	Blank	Neutral	True
156.767	1.45	Control	1.0	n/a	Yes	2.981	n/a	5.0	GoodResponse	0	0.038	155.805	4	15	Feedback	Neutral	True
158.222	2.981	Control	1.0	n/a	Yes	2.981	n/a	n/a	GoodResponse	0	0.0	n/a	4	15	ISIslide	Neutral	True
161.231	0.25	Win2	1.0	0.0	Yes	2.869	0.031	n/a	GoodResponse	1	n/a	n/a	5	16	Cue	Win	True
161.481	4.0	Win2	1.0	0.0	Yes	2.869	0.0	n/a	GoodResponse	1	n/a	n/a	5	16	Fixation	Win	True
165.477	0.24	Win2	1.0	0.004	Yes	2.869	-0.004	2.0	GoodResponse	1	0.238	164.715	5	16	Target	Win	True
165.715	0.3	Win2	1.0	0.004	Yes	2.869	-0.004	2.0	GoodResponse	1	0.238	n/a	5	16	ButtonPress	Win	True
165.727	0.46	Win2	1.0	n/a	Yes	2.869	n/a	n/a	GoodResponse	1	n/a	n/a	5	16	Blank	Win	True
166.179	1.45	Win2	1.0	n/a	Yes	2.869	n/a	5.0	GoodResponse	1	0.041	165.22	5	16	Feedback	Win	True
167.633	2.869	Win2	1.0	n/a	Yes	2.869	n/a	n/a	GoodResponse	1	0.0	n/a	5	16	ISIslide	Win	True
170.525	0.25	Lose2	1.0	0.0	Yes	2.725	0.025	n/a	GoodResponse	0	n/a	n/a	5	17	Cue	AvoidedLoss	True
170.776	3.95	Lose2	1.0	0.0	Yes	2.725	0.001	n/a	GoodResponse	0	n/a	n/a	5	17	Fixation	AvoidedLoss	True
174.721	0.23	Lose2	1.0	0.004	Yes	2.725	-0.004	2.0	GoodResponse	0	0.196	173.917	5	17	Target	AvoidedLoss	True
174.917	0.3	Lose2	1.0	0.004	Yes	2.725	-0.004	2.0	GoodResponse	0	0.196	n/a	5	17	ButtonPress	AvoidedLoss	True
174.955	0.47	Lose2	1.0	n/a	Yes	2.725	n/a	n/a	GoodResponse	0	n/a	n/a	5	17	Blank	AvoidedLoss	True
175.423	1.45	Lose2	1.0	n/a	Yes	2.725	n/a	5.0	GoodResponse	0	0.016	174.439	5	17	Feedback	AvoidedLoss	True
176.877	2.725	Lose2	1.0	n/a	Yes	2.725	n/a	n/a	GoodResponse	0	0.0	n/a	5	17	ISIslide	AvoidedLoss	True
179.619	0.25	Lose2	0.9473999999999999	0.0	No	2.731	0.019	n/a	LatePress	-1	n/a	n/a	4	18	Cue	Loss	True
179.87	4.05	Lose2	0.9473999999999999	0.0	No	2.731	0.001	n/a	LatePress	-1	n/a	n/a	4	18	Fixation	Loss	True
183.915	0.22	Lose2	0.9473999999999999	0.004	No	2.731	-0.004	2.0	LatePress	-1	0.231	183.146	4	18	Target	Loss	True
184.146	0.3	Lose2	0.9473999999999999	0.004	No	2.731	-0.004	2.0	LatePress	-1	0.231	n/a	4	18	ButtonPress	Loss	True
184.149	0.48	Lose2	0.9473999999999999	n/a	No	2.731	n/a	n/a	LatePress	-1	n/a	n/a	4	18	Blank	Loss	True
184.617	1.45	Lose2	0.9473999999999999	n/a	No	2.731	n/a	5.0	LatePress	-1	0.042	183.659	4	18	Feedback	Loss	True
186.072	2.731	Lose2	0.9473999999999999	n/a	No	2.731	n/a	n/a	LatePress	-1	0.0	n/a	4	18	ISIslide	Loss	True
188.83	0.25	Control	0.9	0.0	No	2.92	0.03	n/a	NoResponse	0	n/a	n/a	4	19	Cue	Neutral	True
189.081	3.95	Control	0.9	0.0	No	2.92	0.001	n/a	NoResponse	0	n/a	n/a	4	19	Fixation	Neutral	True
193.026	0.21	Control	0.9	0.004	No	2.92	-0.004	2.0	NoResponse	0	0.265	192.291	4	19	Target	Neutral	True
193.243	0.49	Control	0.9	n/a	No	2.92	n/a	n/a	NoResponse	0	n/a	n/a	4	19	Blank	Neutral	True
193.291	0.3	Control	0.9	0.004	No	2.92	-0.004	2.0	NoResponse	0	0.265	n/a	4	19	ButtonPress	Neutral	True
193.728	1.45	Control	0.9	n/a	No	2.92	n/a	5.0	NoResponse	0	0.006	192.734	4	19	Feedback	Neutral	True
195.182	2.92	Control	0.9	n/a	No	2.92	n/a	n/a	NoResponse	0	0.0	n/a	4	19	ISIslide	Neutral	True
198.125	0.25	Control	0.8571	0.0	No	2.625	0.025	n/a	NoResponse	0	n/a	n/a	4	20	Cue	Neutral	True
198.375	4.05	Control	0.8571	0.0	No	2.625	0.0	n/a	NoResponse	0	n/a	n/a	4	20	Fixation	Neutral	True
202.421	0.2	Control	0.8571	0.004	No	2.625	-0.004	2.0	NoResponse	0	0.274	201.695	4	20	Target	Neutral	True
202.621	0.5	Control	0.8571	n/a	No	2.625	n/a	n/a	NoResponse	0	n/a	n/a	4	20	Blank	Neutral	True
202.695	0.3	Control	0.8571	0.004	No	2.625	-0.004	2.0	NoResponse	0	0.274	n/a	4	20	ButtonPress	Neutral	True
203.123	1.45	Control	0.8571	n/a	No	2.625	n/a	5.0	NoResponse	0	0.023	202.146	4	20	Feedback	Neutral	True
204.577	2.625	Control	0.8571	n/a	No	2.625	n/a	n/a	NoResponse	0	0.0	n/a	4	20	ISIslide	Neutral	True
207.219	0.25	Control	0.8181999999999999	0.0	No	2.781	0.019	n/a	NoResponse	0	n/a	n/a	4	21	Cue	Neutral	True
207.469	4.1	Control	0.8181999999999999	0.0	No	2.781	0.0	n/a	NoResponse	0	n/a	n/a	4	21	Fixation	Neutral	True
211.565	0.19	Control	0.8181999999999999	0.004	No	2.781	-0.004	2.0	NoResponse	0	0.229	210.794	4	21	Target	Neutral	True
211.765	0.51	Control	0.8181999999999999	n/a	No	2.781	n/a	n/a	NoResponse	0	n/a	n/a	4	21	Blank	Neutral	True
211.794	0.3	Control	0.8181999999999999	0.004	No	2.781	-0.004	2.0	NoResponse	0	0.229	n/a	4	21	ButtonPress	Neutral	True
212.267	1.45	Control	0.8181999999999999	n/a	No	2.781	n/a	5.0	NoResponse	0	0.001	211.268	4	21	Feedback	Neutral	True
213.721	2.781	Control	0.8181999999999999	n/a	No	2.781	n/a	n/a	NoResponse	0	0.0	n/a	4	21	ISIslide	Neutral	True
216.53	0.25	Control	0.7826000000000001	0.0	No	2.77	0.03	n/a	NoResponse	0	n/a	n/a	4	22	Cue	Neutral	True
216.781	4.0	Control	0.7826000000000001	0.0	No	2.77	0.001	n/a	NoResponse	0	n/a	n/a	4	22	Fixation	Neutral	True
220.776	0.18	Control	0.7826000000000001	0.004	No	2.77	-0.004	2.0	NoResponse	0	0.193	219.969	4	22	Target	Neutral	True
220.96	0.52	Control	0.7826000000000001	n/a	No	2.77	n/a	n/a	NoResponse	0	n/a	n/a	4	22	Blank	Neutral	True
220.969	0.3	Control	0.7826000000000001	0.004	No	2.77	-0.004	2.0	NoResponse	0	0.193	n/a	4	22	ButtonPress	Neutral	True
221.478	1.45	Control	0.7826000000000001	n/a	No	2.77	n/a	5.0	NoResponse	0	0.009	220.487	4	22	Feedback	Neutral	True
222.932	2.77	Control	0.7826000000000001	n/a	No	2.77	n/a	n/a	NoResponse	0	0.0	n/a	4	22	ISIslide	Neutral	True
225.724	0.25	Control	0.75	0.0	No	2.776	0.024	n/a	NoResponse	0	n/a	n/a	4	23	Cue	Neutral	True
225.975	3.9	Control	0.75	0.0	No	2.776	0.001	n/a	NoResponse	0	n/a	n/a	4	23	Fixation	Neutral	True
229.87	0.17	Control	0.75	0.004	No	2.776	-0.004	2.0	NoResponse	0	0.215	229.085	4	23	Target	Neutral	True
230.054	0.53	Control	0.75	n/a	No	2.776	n/a	n/a	NoResponse	0	n/a	n/a	4	23	Blank	Neutral	True
230.085	0.3	Control	0.75	0.004	No	2.776	-0.004	2.0	NoResponse	0	0.215	n/a	4	23	ButtonPress	Neutral	True
230.572	1.45	Control	0.75	n/a	No	2.776	n/a	5.0	NoResponse	0	0.037	229.609	4	23	Feedback	Neutral	True
232.026	2.776	Control	0.75	n/a	No	2.776	n/a	n/a	NoResponse	0	0.0	n/a	4	23	ISIslide	Neutral	True
234.818	0.25	Win2	0.72	0.0	No	3.132	0.018	n/a	NoResponse	0	n/a	n/a	4	24	Cue	MissedWin	True
235.069	3.95	Win2	0.72	0.0	No	3.132	0.001	n/a	NoResponse	0	n/a	n/a	4	24	Fixation	MissedWin	True
239.014	0.16	Win2	0.72	0.004	No	3.132	-0.004	2.0	NoResponse	0	0.185	238.199	4	24	Target	MissedWin	True
239.181	0.54	Win2	0.72	n/a	No	3.132	n/a	n/a	NoResponse	0	n/a	n/a	4	24	Blank	MissedWin	True
239.199	0.3	Win2	0.72	0.004	No	3.132	-0.004	2.0	NoResponse	0	0.185	n/a	4	24	ButtonPress	MissedWin	True
239.716	1.45	Win2	0.72	n/a	No	3.132	n/a	5.0	NoResponse	0	0.016	238.732	4	24	Feedback	MissedWin	True
241.17	3.132	Win2	0.72	n/a	No	3.132	n/a	n/a	NoResponse	0	0.0	n/a	4	24	ISIslide	MissedWin	True
244.33	0.25	Win2	0.6923	0.0	No	3.07	0.03	n/a	NoResponse	0	n/a	n/a	4	25	Cue	MissedWin	True
244.581	4.0	Win2	0.6923	0.0	No	3.07	0.001	n/a	NoResponse	0	n/a	n/a	4	25	Fixation	MissedWin	True
248.576	0.15	Win2	0.6923	0.004	No	3.07	-0.004	2.0	NoResponse	0	0.243	247.819	4	25	Target	MissedWin	True
248.726	0.55	Win2	0.6923	n/a	No	3.07	n/a	n/a	NoResponse	0	n/a	n/a	4	25	Blank	MissedWin	True
248.819	0.3	Win2	0.6923	0.004	No	3.07	-0.004	2.0	NoResponse	0	0.243	n/a	4	25	ButtonPress	MissedWin	True
249.278	1.45	Win2	0.6923	n/a	No	3.07	n/a	5.0	NoResponse	0	0.015	248.293	4	25	Feedback	MissedWin	True
250.732	3.07	Win2	0.6923	n/a	No	3.07	n/a	n/a	NoResponse	0	0.0	n/a	4	25	ISIslide	MissedWin	True
253.825	0.25	Win2	0.6667000000000001	0.0	No	2.925	0.025	n/a	NoResponse	0	n/a	n/a	4	26	Cue	MissedWin	True
254.076	3.95	Win2	0.6667000000000001	0.0	No	2.925	0.001	n/a	NoResponse	0	n/a	n/a	4	26	Fixation	MissedWin	True
258.021	0.15	Win2	0.6667000000000001	0.004	No	2.925	-0.004	2.0	NoResponse	0	0.243	257.264	4	26	Target	MissedWin	True
258.171	0.55	Win2	0.6667000000000001	n/a	No	2.925	n/a	n/a	NoResponse	0	n/a	n/a	4	26	Blank	MissedWin	True
258.264	0.3	Win2	0.6667000000000001	0.004	No	2.925	-0.004	2.0	NoResponse	0	0.243	n/a	4	26	ButtonPress	MissedWin	True
258.723	1.45	Win2	0.6667000000000001	n/a	No	2.925	n/a	5.0	NoResponse	0	0.033	257.756	4	26	Feedback	MissedWin	True
260.177	2.925	Win2	0.6667000000000001	n/a	No	2.925	n/a	n/a	NoResponse	0	0.0	n/a	4	26	ISIslide	MissedWin	True
263.12	0.25	Lose2	0.6429	0.0	No	2.83	0.02	n/a	NoResponse	-1	n/a	n/a	3	27	Cue	Loss	True
263.37	4.05	Lose2	0.6429	0.0	No	2.83	0.0	n/a	NoResponse	-1	n/a	n/a	3	27	Fixation	Loss	True
267.416	0.15	Lose2	0.6429	0.004	No	2.83	-0.004	2.0	NoResponse	-1	0.185	266.601	3	27	Target	Loss	True
267.566	0.55	Lose2	0.6429	n/a	No	2.83	n/a	n/a	NoResponse	-1	n/a	n/a	3	27	Blank	Loss	True
267.601	0.3	Lose2	0.6429	0.004	No	2.83	-0.004	2.0	NoResponse	-1	0.185	n/a	3	27	ButtonPress	Loss	True
268.118	1.45	Lose2	0.6429	n/a	No	2.83	n/a	5.0	NoResponse	-1	0.008	267.126	3	27	Feedback	Loss	True
269.572	2.83	Lose2	0.6429	n/a	No	2.83	n/a	n/a	NoResponse	-1	0.0	n/a	3	27	ISIslide	Loss	True
272.431	0.25	Control	0.6207	0.0	No	2.819	0.031	n/a	NoResponse	0	n/a	n/a	3	28	Cue	Neutral	True
272.682	4.05	Control	0.6207	0.0	No	2.819	0.001	n/a	NoResponse	0	n/a	n/a	3	28	Fixation	Neutral	True
276.727	0.16	Control	0.6207	0.004	No	2.819	-0.004	2.0	NoResponse	0	0.246	275.973	3	28	Target	Neutral	True
276.894	0.54	Control	0.6207	n/a	No	2.819	n/a	n/a	NoResponse	0	n/a	n/a	3	28	Blank	Neutral	True
276.973	0.3	Control	0.6207	0.004	No	2.819	-0.004	2.0	NoResponse	0	0.246	n/a	3	28	ButtonPress	Neutral	True
277.429	1.45	Control	0.6207	n/a	No	2.819	n/a	5.0	NoResponse	0	0.009	276.438	3	28	Feedback	Neutral	True
278.884	2.819	Control	0.6207	n/a	No	2.819	n/a	n/a	NoResponse	0	0.0	n/a	3	28	ISIslide	Neutral	True
281.725	0.25	Lose2	0.6	0.0	No	2.825	0.025	n/a	NoResponse	-1	n/a	n/a	2	29	Cue	Loss	True
281.976	3.95	Lose2	0.6	0.0	No	2.825	0.001	n/a	NoResponse	-1	n/a	n/a	2	29	Fixation	Loss	True
285.921	0.17	Lose2	0.6	0.004	No	2.825	-0.004	2.0	NoResponse	-1	0.196	285.117	2	29	Target	Loss	True
286.105	0.53	Lose2	0.6	n/a	No	2.825	n/a	n/a	NoResponse	-1	n/a	n/a	2	29	Blank	Loss	True
286.117	0.3	Lose2	0.6	0.004	No	2.825	-0.004	2.0	NoResponse	-1	0.196	n/a	2	29	ButtonPress	Loss	True
286.623	1.45	Lose2	0.6	n/a	No	2.825	n/a	5.0	NoResponse	-1	0.035	285.658	2	29	Feedback	Loss	True
288.078	2.825	Lose2	0.6	n/a	No	2.825	n/a	n/a	NoResponse	-1	0.0	n/a	2	29	ISIslide	Loss	True
290.92	0.25	Win2	0.5806	0.0	No	2.78	0.02	n/a	NoResponse	0	n/a	n/a	2	30	Cue	MissedWin	True
291.17	3.9	Win2	0.5806	0.0	No	2.78	0.0	n/a	NoResponse	0	n/a	n/a	2	30	Fixation	MissedWin	True
295.082	0.18	Win2	0.5806	0.0	No	2.78	0.012	2.0	NoResponse	0	0.182	294.264	2	30	Target	MissedWin	True
295.249	0.52	Win2	0.5806	n/a	No	2.78	n/a	n/a	NoResponse	0	n/a	n/a	2	30	Blank	MissedWin	True
295.264	0.3	Win2	0.5806	0.0	No	2.78	0.012	2.0	NoResponse	0	0.182	n/a	2	30	ButtonPress	MissedWin	True
295.767	1.45	Win2	0.5806	n/a	No	2.78	n/a	5.0	NoResponse	0	0.013	294.78	2	30	Feedback	MissedWin	True
297.222	2.78	Win2	0.5806	n/a	No	2.78	n/a	n/a	NoResponse	0	0.0	n/a	2	30	ISIslide	MissedWin	True
300.03	0.25	Lose2	0.5625	0.0	No	2.82	0.03	n/a	NoResponse	-1	n/a	n/a	1	31	Cue	Loss	False
300.281	4.05	Lose2	0.5625	0.0	No	2.82	0.001	2.0	NoResponse	-1	3.707	302.988	1	31	Fixation	Loss	False
303.988	0.3	Lose2	0.5625	0.0	No	2.82	0.001	2.0	NoResponse	-1	3.707	n/a	1	31	ButtonPress	Loss	False
304.326	0.19	Lose2	0.5625	0.004	No	2.82	-0.004	2.0	NoResponse	-1	0.324	303.65	1	31	Target	Loss	False
304.527	0.51	Lose2	0.5625	n/a	No	2.82	n/a	n/a	NoResponse	-1	n/a	n/a	1	31	Blank	Loss	False
304.65	0.3	Lose2	0.5625	0.004	No	2.82	-0.004	2.0	NoResponse	-1	0.324	n/a	1	31	ButtonPress	Loss	False
305.029	1.45	Lose2	0.5625	n/a	No	2.82	n/a	5.0	NoResponse	-1	0.019	304.048	1	31	Feedback	Loss	False
306.483	2.82	Lose2	0.5625	n/a	No	2.82	n/a	n/a	NoResponse	-1	0.0	n/a	1	31	ISIslide	Loss	False
309.325	0.25	Lose2	0.5455	0.0	No	2.625	0.025	n/a	NoResponse	-1	n/a	n/a	0	32	Cue	Loss	True
309.576	4.15	Lose2	0.5455	0.0	No	2.625	0.001	n/a	NoResponse	-1	n/a	n/a	0	32	Fixation	Loss	True
313.721	0.2	Lose2	0.5455	0.004	No	2.625	-0.004	2.0	NoResponse	-1	0.232	312.953	0	32	Target	Loss	True
313.922	0.5	Lose2	0.5455	n/a	No	2.625	n/a	n/a	NoResponse	-1	n/a	n/a	0	32	Blank	Loss	True
313.953	0.3	Lose2	0.5455	0.004	No	2.625	-0.004	2.0	NoResponse	-1	0.232	n/a	0	32	ButtonPress	Loss	True
314.423	1.45	Lose2	0.5455	n/a	No	2.625	n/a	5.0	NoResponse	-1	0.04	313.463	0	32	Feedback	Loss	True
315.878	2.625	Lose2	0.5455	n/a	No	2.625	n/a	n/a	NoResponse	-1	0.0	n/a	0	32	ISIslide	Loss	True
318.519	0.25	Win2	0.5588000000000001	0.0	Yes	2.681	0.019	n/a	GoodResponse	1	n/a	n/a	1	33	Cue	Win	True
318.77	4.0	Win2	0.5588000000000001	0.0	Yes	2.681	0.001	n/a	GoodResponse	1	n/a	n/a	1	33	Fixation	Win	True
322.765	0.21	Win2	0.5588000000000001	0.004	Yes	2.681	-0.004	2.0	GoodResponse	1	0.209	321.974	1	33	Target	Win	True
322.974	0.3	Win2	0.5588000000000001	0.004	Yes	2.681	-0.004	2.0	GoodResponse	1	0.209	n/a	1	33	ButtonPress	Win	True
322.982	0.49	Win2	0.5588000000000001	n/a	Yes	2.681	n/a	n/a	GoodResponse	1	n/a	n/a	1	33	Blank	Win	True
323.467	1.45	Win2	0.5588000000000001	n/a	Yes	2.681	n/a	5.0	GoodResponse	1	0.021	322.488	1	33	Feedback	Win	True
324.922	2.681	Win2	0.5588000000000001	n/a	Yes	2.681	n/a	n/a	GoodResponse	1	0.0	n/a	1	33	ISIslide	Win	True
327.63	0.25	Lose2	0.5428999999999999	0.0	No	2.62	0.03	n/a	LatePress	-1	n/a	n/a	0	34	Cue	Loss	True
327.88	4.05	Lose2	0.5428999999999999	0.001	No	2.62	0.0	n/a	LatePress	-1	n/a	n/a	0	34	Fixation	Loss	True
331.926	0.22	Lose2	0.5428999999999999	0.004	No	2.62	-0.004	2.0	LatePress	-1	0.222	331.148	0	34	Target	Loss	True
332.148	0.3	Lose2	0.5428999999999999	0.004	No	2.62	-0.004	2.0	LatePress	-1	0.222	n/a	0	34	ButtonPress	Loss	True
332.16	0.48	Lose2	0.5428999999999999	n/a	No	2.62	n/a	n/a	LatePress	-1	n/a	n/a	0	34	Blank	Loss	True
332.628	1.45	Lose2	0.5428999999999999	n/a	No	2.62	n/a	5.0	LatePress	-1	0.03	331.658	0	34	Feedback	Loss	True
334.082	2.62	Lose2	0.5428999999999999	n/a	No	2.62	n/a	n/a	LatePress	-1	0.0	n/a	0	34	ISIslide	Loss	True
336.724	0.25	Lose2	0.5556	0.0	Yes	2.676	0.024	n/a	GoodResponse	0	n/a	n/a	0	35	Cue	AvoidedLoss	True
336.974	4.0	Lose2	0.5556	0.001	Yes	2.676	0.0	n/a	GoodResponse	0	n/a	n/a	0	35	Fixation	AvoidedLoss	True
340.97	0.23	Lose2	0.5556	0.004	Yes	2.676	-0.004	2.0	GoodResponse	0	0.19	340.16	0	35	Target	AvoidedLoss	True
341.16	0.3	Lose2	0.5556	0.004	Yes	2.676	-0.004	2.0	GoodResponse	0	0.19	n/a	0	35	ButtonPress	AvoidedLoss	True
341.204	0.47	Lose2	0.5556	n/a	Yes	2.676	n/a	n/a	GoodResponse	0	n/a	n/a	0	35	Blank	AvoidedLoss	True
341.672	1.45	Lose2	0.5556	n/a	Yes	2.676	n/a	5.0	GoodResponse	0	0.011	340.683	0	35	Feedback	AvoidedLoss	True
343.126	2.676	Lose2	0.5556	n/a	Yes	2.676	n/a	n/a	GoodResponse	0	0.0	n/a	0	35	ISIslide	AvoidedLoss	True
345.818	0.25	Control	0.5676	0.0	Yes	2.682	0.018	n/a	GoodResponse	0	n/a	n/a	0	36	Cue	Neutral	True
346.068	4.0	Control	0.5676	0.0	Yes	2.682	0.0	n/a	GoodResponse	0	n/a	n/a	0	36	Fixation	Neutral	True
350.064	0.24	Control	0.5676	0.004	Yes	2.682	-0.004	2.0	GoodResponse	0	0.151	349.215	0	36	Target	Neutral	True
350.215	0.3	Control	0.5676	0.004	Yes	2.682	-0.004	2.0	GoodResponse	0	0.151	n/a	0	36	ButtonPress	Neutral	True
350.314	0.46	Control	0.5676	n/a	Yes	2.682	n/a	n/a	GoodResponse	0	n/a	n/a	0	36	Blank	Neutral	True
350.766	1.45	Control	0.5676	n/a	Yes	2.682	n/a	5.0	GoodResponse	0	0.038	349.804	0	36	Feedback	Neutral	True
352.22	2.682	Control	0.5676	n/a	Yes	2.682	n/a	n/a	GoodResponse	0	0.0	n/a	0	36	ISIslide	Neutral	True
354.928	0.25	Win2	0.5789	0.0	Yes	2.872	0.028	n/a	GoodResponse	1	n/a	n/a	1	37	Cue	Win	True
355.179	4.0	Win2	0.5789	0.0	Yes	2.872	0.001	n/a	GoodResponse	1	n/a	n/a	1	37	Fixation	Win	True
359.174	0.25	Win2	0.5789	0.004	Yes	2.872	-0.004	2.0	GoodResponse	1	0.228	358.402	1	37	Target	Win	True
359.402	0.3	Win2	0.5789	0.004	Yes	2.872	-0.004	2.0	GoodResponse	1	0.228	n/a	1	37	ButtonPress	Win	True
359.425	0.45	Win2	0.5789	n/a	Yes	2.872	n/a	n/a	GoodResponse	1	n/a	n/a	1	37	Blank	Win	True
359.876	1.45	Win2	0.5789	n/a	Yes	2.872	n/a	5.0	GoodResponse	1	0.001	358.877	1	37	Feedback	Win	True
361.331	2.872	Win2	0.5789	n/a	Yes	2.872	n/a	n/a	GoodResponse	1	0.0	n/a	1	37	ISIslide	Win	True
364.223	0.25	Lose2	0.5897	0.0	Yes	2.827	0.023	n/a	GoodResponse	0	n/a	n/a	1	38	Cue	AvoidedLoss	True
364.474	3.95	Lose2	0.5897	0.0	Yes	2.827	0.001	n/a	GoodResponse	0	n/a	n/a	1	38	Fixation	AvoidedLoss	True
368.419	0.26	Lose2	0.5897	0.004	Yes	2.827	-0.004	2.0	GoodResponse	0	0.23	367.649	1	38	Target	AvoidedLoss	True
368.649	0.3	Lose2	0.5897	0.004	Yes	2.827	-0.004	2.0	GoodResponse	0	0.23	n/a	1	38	ButtonPress	AvoidedLoss	True
368.686	0.44	Lose2	0.5897	n/a	Yes	2.827	n/a	n/a	GoodResponse	0	n/a	n/a	1	38	Blank	AvoidedLoss	True
369.121	1.45	Lose2	0.5897	n/a	Yes	2.827	n/a	5.0	GoodResponse	0	0.025	368.146	1	38	Feedback	AvoidedLoss	True
370.575	2.827	Lose2	0.5897	n/a	Yes	2.827	n/a	n/a	GoodResponse	0	0.0	n/a	1	38	ISIslide	AvoidedLoss	True
373.417	0.25	Win2	0.6	0.0	Yes	2.983	0.017	n/a	GoodResponse	1	n/a	n/a	2	39	Cue	Win	True
373.668	4.1	Win2	0.6	0.0	Yes	2.983	0.001	n/a	GoodResponse	1	n/a	n/a	2	39	Fixation	Win	True
377.763	0.27	Win2	0.6	0.004	Yes	2.983	-0.004	2.0	GoodResponse	1	0.196	376.959	2	39	Target	Win	True
377.959	0.3	Win2	0.6	0.004	Yes	2.983	-0.004	2.0	GoodResponse	1	0.196	n/a	2	39	ButtonPress	Win	True
378.048	0.43	Win2	0.6	n/a	Yes	2.983	n/a	n/a	GoodResponse	1	n/a	n/a	2	39	Blank	Win	True
378.466	1.45	Win2	0.6	n/a	Yes	2.983	n/a	5.0	GoodResponse	1	0.046	377.512	2	39	Feedback	Win	True
379.92	2.983	Win2	0.6	n/a	Yes	2.983	n/a	n/a	GoodResponse	1	0.0	n/a	2	39	ISIslide	Win	True
382.929	0.25	Win2	0.6098	0.0	Yes	2.721	0.029	n/a	GoodResponse	1	n/a	n/a	3	40	Cue	Win	True
383.18	3.95	Win2	0.6098	0.0	Yes	2.721	0.001	n/a	GoodResponse	1	n/a	n/a	3	40	Fixation	Win	True
387.125	0.28	Win2	0.6098	0.004	Yes	2.721	-0.004	2.0	GoodResponse	1	0.196	386.321	3	40	Target	Win	True
387.321	0.3	Win2	0.6098	0.004	Yes	2.721	-0.004	2.0	GoodResponse	1	0.196	n/a	3	40	ButtonPress	Win	True
387.409	0.42	Win2	0.6098	n/a	Yes	2.721	n/a	n/a	GoodResponse	1	n/a	n/a	3	40	Blank	Win	True
387.827	1.45	Win2	0.6098	n/a	Yes	2.721	n/a	5.0	GoodResponse	1	0.002	386.829	3	40	Feedback	Win	True
389.281	2.721	Win2	0.6098	n/a	Yes	2.721	n/a	n/a	GoodResponse	1	0.0	n/a	3	40	ISIslide	Win	True
392.023	0.25	Win2	0.619	0.0	Yes	2.777	0.023	n/a	GoodResponse	1	n/a	n/a	4	41	Cue	Win	True
392.274	3.9	Win2	0.619	0.0	Yes	2.777	0.001	n/a	GoodResponse	1	n/a	n/a	4	41	Fixation	Win	True
396.169	0.29	Win2	0.619	0.004	Yes	2.777	-0.004	2.0	GoodResponse	1	0.228	395.397	4	41	Target	Win	True
396.397	0.3	Win2	0.619	0.004	Yes	2.777	-0.004	2.0	GoodResponse	1	0.228	n/a	4	41	ButtonPress	Win	True
396.47	0.41	Win2	0.619	n/a	Yes	2.777	n/a	n/a	GoodResponse	1	n/a	n/a	4	41	Blank	Win	True
396.871	1.45	Win2	0.619	n/a	Yes	2.777	n/a	5.0	GoodResponse	1	0.031	395.902	4	41	Feedback	Win	True
398.325	2.777	Win2	0.619	n/a	Yes	2.777	n/a	n/a	GoodResponse	1	0.0	n/a	4	41	ISIslide	Win	True
401.117	0.25	Control	0.6279	0.0	Yes	2.933	0.017	n/a	GoodResponse	0	n/a	n/a	4	42	Cue	Neutral	True
401.368	3.85	Control	0.6279	0.0	Yes	2.933	0.001	n/a	GoodResponse	0	n/a	n/a	4	42	Fixation	Neutral	True
405.229	0.3	Control	0.6279	0.0	Yes	2.933	0.012	2.0	GoodResponse	0	0.194	404.423	4	42	Target	Neutral	True
405.423	0.3	Control	0.6279	0.0	Yes	2.933	0.012	2.0	GoodResponse	0	0.194	n/a	4	42	ButtonPress	Neutral	True
405.513	0.4	Control	0.6279	n/a	Yes	2.933	n/a	n/a	GoodResponse	0	n/a	n/a	4	42	Blank	Neutral	True
405.915	1.45	Control	0.6279	n/a	Yes	2.933	n/a	5.0	GoodResponse	0	0.011	404.926	4	42	Feedback	Neutral	True
407.369	2.933	Control	0.6279	n/a	Yes	2.933	n/a	n/a	GoodResponse	0	0.0	n/a	4	42	ISIslide	Neutral	True
410.328	0.25	Win2	0.6364	0.0	Yes	3.172	0.028	n/a	GoodResponse	1	n/a	n/a	5	43	Cue	Win	True
410.579	4.0	Win2	0.6364	0.0	Yes	3.172	0.001	n/a	GoodResponse	1	n/a	n/a	5	43	Fixation	Win	True
414.574	0.31	Win2	0.6364	0.004	Yes	3.172	-0.004	2.0	GoodResponse	1	0.163	413.737	5	43	Target	Win	True
414.737	0.3	Win2	0.6364	0.004	Yes	3.172	-0.004	2.0	GoodResponse	1	0.163	n/a	5	43	ButtonPress	Win	True
414.891	0.39	Win2	0.6364	n/a	Yes	3.172	n/a	n/a	GoodResponse	1	n/a	n/a	5	43	Blank	Win	True
415.276	1.45	Win2	0.6364	n/a	Yes	3.172	n/a	5.0	GoodResponse	1	0.016	414.292	5	43	Feedback	Win	True
416.73	3.172	Win2	0.6364	n/a	Yes	3.172	n/a	n/a	GoodResponse	1	0.0	n/a	5	43	ISIslide	Win	True
419.923	0.25	Win2	0.6444	0.0	Yes	2.977	0.023	n/a	GoodResponse	1	n/a	n/a	6	44	Cue	Win	True
420.174	4.0	Win2	0.6444	0.0	Yes	2.977	0.001	n/a	GoodResponse	1	n/a	n/a	6	44	Fixation	Win	True
424.169	0.32	Win2	0.6444	0.004	Yes	2.977	-0.004	2.0	GoodResponse	1	0.208	423.377	6	44	Target	Win	True
424.377	0.3	Win2	0.6444	0.004	Yes	2.977	-0.004	2.0	GoodResponse	1	0.208	n/a	6	44	ButtonPress	Win	True
424.504	0.38	Win2	0.6444	n/a	Yes	2.977	n/a	n/a	GoodResponse	1	n/a	n/a	6	44	Blank	Win	True
424.871	1.45	Win2	0.6444	n/a	Yes	2.977	n/a	5.0	GoodResponse	1	0.03	423.901	6	44	Feedback	Win	True
426.326	2.977	Win2	0.6444	n/a	Yes	2.977	n/a	n/a	GoodResponse	1	0.0	n/a	6	44	ISIslide	Win	True
429.318	0.25	Control	0.6522	0.0	Yes	2.882	0.018	n/a	GoodResponse	0	n/a	n/a	6	45	Cue	Neutral	True
429.569	4.1	Control	0.6522	0.0	Yes	2.882	0.001	n/a	GoodResponse	0	n/a	n/a	6	45	Fixation	Neutral	True
433.664	0.33	Control	0.6522	0.004	Yes	2.882	-0.004	2.0	GoodResponse	0	0.212	432.876	6	45	Target	Neutral	True
433.876	0.3	Control	0.6522	0.004	Yes	2.882	-0.004	2.0	GoodResponse	0	0.212	n/a	6	45	ButtonPress	Neutral	True
433.999	0.37	Control	0.6522	n/a	Yes	2.882	n/a	n/a	GoodResponse	0	n/a	n/a	6	45	Blank	Neutral	True
434.367	1.45	Control	0.6522	n/a	Yes	2.882	n/a	5.0	GoodResponse	0	0.047	433.414	6	45	Feedback	Neutral	True
435.821	2.882	Control	0.6522	n/a	Yes	2.882	n/a	n/a	GoodResponse	0	0.0	n/a	6	45	ISIslide	Neutral	True
438.73	0.25	Lose2	0.6596	0.0	Yes	3.37	0.03	n/a	GoodResponse	0	n/a	n/a	6	46	Cue	AvoidedLoss	True
438.98	4.0	Lose2	0.6596	0.0	Yes	3.37	0.0	n/a	GoodResponse	0	n/a	n/a	6	46	Fixation	AvoidedLoss	True
442.976	0.34	Lose2	0.6596	0.004	Yes	3.37	-0.004	2.0	GoodResponse	0	0.236	442.212	6	46	Target	AvoidedLoss	True
443.212	0.3	Lose2	0.6596	0.004	Yes	3.37	-0.004	2.0	GoodResponse	0	0.236	n/a	6	46	ButtonPress	AvoidedLoss	True
443.327	0.36	Lose2	0.6596	n/a	Yes	3.37	n/a	n/a	GoodResponse	0	n/a	n/a	6	46	Blank	AvoidedLoss	True
443.678	1.45	Lose2	0.6596	n/a	Yes	3.37	n/a	5.0	GoodResponse	0	0.006	442.684	6	46	Feedback	AvoidedLoss	True
445.132	3.37	Lose2	0.6596	n/a	Yes	3.37	n/a	n/a	GoodResponse	0	0.0	n/a	6	46	ISIslide	AvoidedLoss	True
448.526	0.25	Lose2	0.6667000000000001	0.0	Yes	2.674	0.026	n/a	GoodResponse	0	n/a	n/a	6	47	Cue	AvoidedLoss	True
448.776	4.0	Lose2	0.6667000000000001	0.001	Yes	2.674	0.0	n/a	GoodResponse	0	n/a	n/a	6	47	Fixation	AvoidedLoss	True
452.772	0.34	Lose2	0.6667000000000001	0.004	Yes	2.674	-0.004	2.0	GoodResponse	0	0.205	451.977	6	47	Target	AvoidedLoss	True
452.977	0.3	Lose2	0.6667000000000001	0.004	Yes	2.674	-0.004	2.0	GoodResponse	0	0.205	n/a	6	47	ButtonPress	AvoidedLoss	True
453.123	0.36	Lose2	0.6667000000000001	n/a	Yes	2.674	n/a	n/a	GoodResponse	0	n/a	n/a	6	47	Blank	AvoidedLoss	True
453.474	1.45	Lose2	0.6667000000000001	n/a	Yes	2.674	n/a	5.0	GoodResponse	0	0.013	452.487	6	47	Feedback	AvoidedLoss	True
454.928	2.674	Lose2	0.6667000000000001	n/a	Yes	2.674	n/a	n/a	GoodResponse	0	0.0	n/a	6	47	ISIslide	AvoidedLoss	True
457.62	0.25	Lose2	0.6735	0.0	Yes	3.03	0.02	n/a	GoodResponse	0	n/a	n/a	6	48	Cue	AvoidedLoss	True
457.87	3.95	Lose2	0.6735	0.0	Yes	3.03	0.0	n/a	GoodResponse	0	n/a	n/a	6	48	Fixation	AvoidedLoss	True
461.816	0.33	Lose2	0.6735	0.004	Yes	3.03	-0.004	2.0	GoodResponse	0	0.23	461.046	6	48	Target	AvoidedLoss	True
462.046	0.3	Lose2	0.6735	0.004	Yes	3.03	-0.004	2.0	GoodResponse	0	0.23	n/a	6	48	ButtonPress	AvoidedLoss	True
462.15	0.37	Lose2	0.6735	n/a	Yes	3.03	n/a	n/a	GoodResponse	0	n/a	n/a	6	48	Blank	AvoidedLoss	True
462.518	1.45	Lose2	0.6735	n/a	Yes	3.03	n/a	5.0	GoodResponse	0	0.042	461.56	6	48	Feedback	AvoidedLoss	True
463.972	3.03	Lose2	0.6735	n/a	Yes	3.03	n/a	n/a	GoodResponse	0	0.0	n/a	6	48	ISIslide	AvoidedLoss	True
467.015	0.25	Control	0.68	0.0	Yes	2.885	0.015	n/a	GoodResponse	0	n/a	n/a	6	49	Cue	Neutral	True
467.265	4.0	Control	0.68	0.0	Yes	2.885	0.0	n/a	GoodResponse	0	n/a	n/a	6	49	Fixation	Neutral	True
471.261	0.32	Control	0.68	0.004	Yes	2.885	-0.004	2.0	GoodResponse	0	0.226	470.487	6	49	Target	Neutral	True
471.487	0.3	Control	0.68	0.004	Yes	2.885	-0.004	2.0	GoodResponse	0	0.226	n/a	6	49	ButtonPress	Neutral	True
471.595	0.38	Control	0.68	n/a	Yes	2.885	n/a	n/a	GoodResponse	0	n/a	n/a	6	49	Blank	Neutral	True
471.963	1.45	Control	0.68	n/a	Yes	2.885	n/a	5.0	GoodResponse	0	0.012	470.975	6	49	Feedback	Neutral	True
473.417	2.885	Control	0.68	n/a	Yes	2.885	n/a	n/a	GoodResponse	0	0.0	n/a	6	49	ISIslide	Neutral	True
476.326	0.25	Control	0.6862999999999999	0.0	Yes	2.774	0.026	n/a	GoodResponse	0	n/a	n/a	6	50	Cue	Neutral	True
476.577	4.0	Control	0.6862999999999999	0.0	Yes	2.774	0.001	n/a	GoodResponse	0	n/a	n/a	6	50	Fixation	Neutral	True
480.572	0.31	Control	0.6862999999999999	0.004	Yes	2.774	-0.004	2.0	GoodResponse	0	0.213	479.785	6	50	Target	Neutral	True
480.785	0.3	Control	0.6862999999999999	0.004	Yes	2.774	-0.004	2.0	GoodResponse	0	0.213	n/a	6	50	ButtonPress	Neutral	True
480.889	0.39	Control	0.6862999999999999	n/a	Yes	2.774	n/a	n/a	GoodResponse	0	n/a	n/a	6	50	Blank	Neutral	True
481.274	1.45	Control	0.6862999999999999	n/a	Yes	2.774	n/a	5.0	GoodResponse	0	0.018	480.292	6	50	Feedback	Neutral	True
482.728	2.774	Control	0.6862999999999999	n/a	Yes	2.774	n/a	n/a	GoodResponse	0	0.0	n/a	6	50	ISIslide	Neutral	True
485.52	0.25	Control	0.6923	0.0	Yes	2.73	0.02	n/a	GoodResponse	0	n/a	n/a	6	51	Cue	Neutral	True
485.771	3.95	Control	0.6923	0.0	Yes	2.73	0.001	n/a	GoodResponse	0	n/a	n/a	6	51	Fixation	Neutral	True
489.716	0.3	Control	0.6923	0.004	Yes	2.73	-0.004	2.0	GoodResponse	0	0.226	488.942	6	51	Target	Neutral	True
489.942	0.3	Control	0.6923	0.004	Yes	2.73	-0.004	2.0	GoodResponse	0	0.226	n/a	6	51	ButtonPress	Neutral	True
490.017	0.4	Control	0.6923	n/a	Yes	2.73	n/a	n/a	GoodResponse	0	n/a	n/a	6	51	Blank	Neutral	True
490.418	1.45	Control	0.6923	n/a	Yes	2.73	n/a	5.0	GoodResponse	0	0.045	489.463	6	51	Feedback	Neutral	True
491.872	2.73	Control	0.6923	n/a	Yes	2.73	n/a	n/a	GoodResponse	0	0.0	n/a	6	51	ISIslide	Neutral	True
494.614	0.25	Control	0.6981	0.0	Yes	2.636	0.014	n/a	GoodResponse	0	n/a	n/a	6	52	Cue	Neutral	True
494.865	4.05	Control	0.6981	0.0	Yes	2.636	0.001	n/a	GoodResponse	0	n/a	n/a	6	52	Fixation	Neutral	True
498.91	0.29	Control	0.6981	0.004	Yes	2.636	-0.004	2.0	GoodResponse	0	0.183	498.093	6	52	Target	Neutral	True
499.093	0.3	Control	0.6981	0.004	Yes	2.636	-0.004	2.0	GoodResponse	0	0.183	n/a	6	52	ButtonPress	Neutral	True
499.211	0.41	Control	0.6981	n/a	Yes	2.636	n/a	n/a	GoodResponse	0	n/a	n/a	6	52	Blank	Neutral	True
499.612	1.45	Control	0.6981	n/a	Yes	2.636	n/a	5.0	GoodResponse	0	0.021	498.633	6	52	Feedback	Neutral	True
501.067	2.636	Control	0.6981	n/a	Yes	2.636	n/a	n/a	GoodResponse	0	0.0	n/a	6	52	ISIslide	Neutral	True
503.725	0.25	Win2	0.7037	0.0	Yes	2.925	0.025	n/a	GoodResponse	1	n/a	n/a	7	53	Cue	Win	True
503.975	4.05	Win2	0.7037	0.0	Yes	2.925	0.0	n/a	GoodResponse	1	n/a	n/a	7	53	Fixation	Win	True
508.021	0.28	Win2	0.7037	0.004	Yes	2.925	-0.004	2.0	GoodResponse	1	0.209	507.23	7	53	Target	Win	True
508.23	0.3	Win2	0.7037	0.004	Yes	2.925	-0.004	2.0	GoodResponse	1	0.209	n/a	7	53	ButtonPress	Win	True
508.305	0.42	Win2	0.7037	n/a	Yes	2.925	n/a	n/a	GoodResponse	1	n/a	n/a	7	53	Blank	Win	True
508.723	1.45	Win2	0.7037	n/a	Yes	2.925	n/a	5.0	GoodResponse	1	0.032	507.755	7	53	Feedback	Win	True
510.177	2.925	Win2	0.7037	n/a	Yes	2.925	n/a	n/a	GoodResponse	1	0.0	n/a	7	53	ISIslide	Win	True
513.119	0.25	Win2	0.7091	0.001	Yes	2.731	0.019	n/a	GoodResponse	1	n/a	n/a	8	54	Cue	Win	True
513.37	3.95	Win2	0.7091	0.0	Yes	2.731	0.001	n/a	GoodResponse	1	n/a	n/a	8	54	Fixation	Win	True
517.315	0.27	Win2	0.7091	0.004	Yes	2.731	-0.004	2.0	GoodResponse	1	0.231	516.546	8	54	Target	Win	True
517.546	0.3	Win2	0.7091	0.004	Yes	2.731	-0.004	2.0	GoodResponse	1	0.231	n/a	8	54	ButtonPress	Win	True
517.6	0.43	Win2	0.7091	n/a	Yes	2.731	n/a	n/a	GoodResponse	1	n/a	n/a	8	54	Blank	Win	True
518.018	1.45	Win2	0.7091	n/a	Yes	2.731	n/a	5.0	GoodResponse	1	0.005	517.023	8	54	Feedback	Win	True
519.472	2.731	Win2	0.7091	n/a	Yes	2.731	n/a	n/a	GoodResponse	1	0.0	n/a	8	54	ISIslide	Win	True
522.213	0.25	Control	0.7143	0.001	Yes	3.037	0.013	n/a	GoodResponse	0	n/a	n/a	8	55	Cue	Neutral	True
522.464	3.95	Control	0.7143	0.0	Yes	3.037	0.001	n/a	GoodResponse	0	n/a	n/a	8	55	Fixation	Neutral	True
526.409	0.26	Control	0.7143	0.004	Yes	3.037	-0.004	2.0	GoodResponse	0	0.246	525.655	8	55	Target	Neutral	True
526.655	0.3	Control	0.7143	0.004	Yes	3.037	-0.004	2.0	GoodResponse	0	0.246	n/a	8	55	ButtonPress	Neutral	True
526.677	0.44	Control	0.7143	n/a	Yes	3.037	n/a	n/a	GoodResponse	0	n/a	n/a	8	55	Blank	Neutral	True
527.111	1.45	Control	0.7143	n/a	Yes	3.037	n/a	5.0	GoodResponse	0	0.034	526.145	8	55	Feedback	Neutral	True
528.566	3.037	Control	0.7143	n/a	Yes	3.037	n/a	n/a	GoodResponse	0	0.0	n/a	8	55	ISIslide	Neutral	True
531.625	0.25	Control	0.7193	0.0	Yes	2.825	0.025	n/a	GoodResponse	0	n/a	n/a	8	56	Cue	Neutral	True
531.876	3.95	Control	0.7193	0.0	Yes	2.825	0.001	n/a	GoodResponse	0	n/a	n/a	8	56	Fixation	Neutral	True
535.821	0.25	Control	0.7193	0.004	Yes	2.825	-0.004	2.0	GoodResponse	0	0.177	534.998	8	56	Target	Neutral	True
535.998	0.3	Control	0.7193	0.004	Yes	2.825	-0.004	2.0	GoodResponse	0	0.177	n/a	8	56	ButtonPress	Neutral	True
536.072	0.45	Control	0.7193	n/a	Yes	2.825	n/a	n/a	GoodResponse	0	n/a	n/a	8	56	Blank	Neutral	True
536.523	1.45	Control	0.7193	n/a	Yes	2.825	n/a	5.0	GoodResponse	0	0.037	535.56	8	56	Feedback	Neutral	True
537.977	2.825	Control	0.7193	n/a	Yes	2.825	n/a	n/a	GoodResponse	0	0.0	n/a	8	56	ISIslide	Neutral	True
540.819	0.25	Control	0.7241	0.0	Yes	3.481	0.019	n/a	GoodResponse	0	n/a	n/a	8	57	Cue	Neutral	True
541.07	4.0	Control	0.7241	0.0	Yes	3.481	0.001	n/a	GoodResponse	0	n/a	n/a	8	57	Fixation	Neutral	True
545.065	0.24	Control	0.7241	0.004	Yes	3.481	-0.004	2.0	GoodResponse	0	0.211	544.276	8	57	Target	Neutral	True
545.276	0.3	Control	0.7241	0.004	Yes	3.481	-0.004	2.0	GoodResponse	0	0.211	n/a	8	57	ButtonPress	Neutral	True
545.316	0.46	Control	0.7241	n/a	Yes	3.481	n/a	n/a	GoodResponse	0	n/a	n/a	8	57	Blank	Neutral	True
545.767	1.45	Control	0.7241	n/a	Yes	3.481	n/a	5.0	GoodResponse	0	0.013	544.78	8	57	Feedback	Neutral	True
547.222	3.481	Control	0.7241	n/a	Yes	3.481	n/a	n/a	GoodResponse	0	0.0	n/a	8	57	ISIslide	Neutral	True
550.716	0.25	Win2	0.7288	0.0	Yes	2.734	0.016	n/a	GoodResponse	1	n/a	n/a	9	58	Cue	Win	True
550.966	4.05	Win2	0.7288	0.0	Yes	2.734	0.0	n/a	GoodResponse	1	n/a	n/a	9	58	Fixation	Win	True
555.012	0.23	Win2	0.7288	0.004	Yes	2.734	-0.004	2.0	GoodResponse	1	0.191	554.203	9	58	Target	Win	True
555.203	0.3	Win2	0.7288	0.004	Yes	2.734	-0.004	2.0	GoodResponse	1	0.191	n/a	9	58	ButtonPress	Win	True
555.246	0.47	Win2	0.7288	n/a	Yes	2.734	n/a	n/a	GoodResponse	1	n/a	n/a	9	58	Blank	Win	True
555.714	1.45	Win2	0.7288	n/a	Yes	2.734	n/a	5.0	GoodResponse	1	0.017	554.731	9	58	Feedback	Win	True
557.168	2.734	Win2	0.7288	n/a	Yes	2.734	n/a	n/a	GoodResponse	1	0.0	n/a	9	58	ISIslide	Win	True
559.927	0.25	Lose2	0.7333	0.0	Yes	2.673	0.027	n/a	GoodResponse	0	n/a	n/a	9	59	Cue	AvoidedLoss	True
560.177	4.0	Lose2	0.7333	0.0	Yes	2.673	0.0	n/a	GoodResponse	0	n/a	n/a	9	59	Fixation	AvoidedLoss	True
564.173	0.22	Lose2	0.7333	0.004	Yes	2.673	-0.004	2.0	GoodResponse	0	0.171	563.344	9	59	Target	AvoidedLoss	True
564.344	0.3	Lose2	0.7333	0.004	Yes	2.673	-0.004	2.0	GoodResponse	0	0.171	n/a	9	59	ButtonPress	AvoidedLoss	True
564.407	0.48	Lose2	0.7333	n/a	Yes	2.673	n/a	n/a	GoodResponse	0	n/a	n/a	9	59	Blank	AvoidedLoss	True
564.875	1.45	Lose2	0.7333	n/a	Yes	2.673	n/a	5.0	GoodResponse	0	0.027	563.902	9	59	Feedback	AvoidedLoss	True
566.329	2.673	Lose2	0.7333	n/a	Yes	2.673	n/a	n/a	GoodResponse	0	0.0	n/a	9	59	ISIslide	AvoidedLoss	True
569.021	0.25	Control	0.7212999999999999	0.0	No	2.679	0.021	n/a	NoResponse	0	n/a	n/a	9	60	Cue	Neutral	True
569.271	4.0	Control	0.7212999999999999	0.0	No	2.679	0.0	n/a	NoResponse	0	n/a	n/a	9	60	Fixation	Neutral	True
573.267	0.21	Control	0.7212999999999999	0.004	No	2.679	-0.004	2.0	NoResponse	0	0.313	572.58	9	60	Target	Neutral	True
573.484	0.49	Control	0.7212999999999999	n/a	No	2.679	n/a	n/a	NoResponse	0	n/a	n/a	9	60	Blank	Neutral	True
573.58	0.3	Control	0.7212999999999999	0.004	No	2.679	-0.004	2.0	NoResponse	0	0.313	n/a	9	60	ButtonPress	Neutral	True
573.969	1.45	Control	0.7212999999999999	n/a	No	2.679	n/a	5.0	NoResponse	0	0.005	572.974	9	60	Feedback	Neutral	True
575.423	2.679	Control	0.7212999999999999	n/a	No	2.679	n/a	n/a	NoResponse	0	0.0	n/a	9	60	ISIslide	Neutral	True
578.114	0.25	Lose2	0.7258	0.001	Yes	2.986	0.014	n/a	GoodResponse	0	n/a	n/a	9	61	Cue	AvoidedLoss	True
578.365	4.0	Lose2	0.7258	0.0	Yes	2.986	0.001	n/a	GoodResponse	0	n/a	n/a	9	61	Fixation	AvoidedLoss	True
582.361	0.2	Lose2	0.7258	0.003	Yes	2.986	-0.003	2.0	GoodResponse	0	0.191	581.552	9	61	Target	AvoidedLoss	True
582.552	0.3	Lose2	0.7258	0.003	Yes	2.986	-0.003	2.0	GoodResponse	0	0.191	n/a	9	61	ButtonPress	AvoidedLoss	True
582.561	0.5	Lose2	0.7258	n/a	Yes	2.986	n/a	n/a	GoodResponse	0	n/a	n/a	9	61	Blank	AvoidedLoss	True
583.063	1.45	Lose2	0.7258	n/a	Yes	2.986	n/a	5.0	GoodResponse	0	0.033	582.096	9	61	Feedback	AvoidedLoss	True
584.517	2.986	Lose2	0.7258	n/a	Yes	2.986	n/a	n/a	GoodResponse	0	0.0	n/a	9	61	ISIslide	AvoidedLoss	True
587.526	0.25	Lose2	0.7143	0.0	No	2.874	0.026	n/a	NoResponse	-1	n/a	n/a	8	62	Cue	Loss	True
587.777	3.9	Lose2	0.7143	0.0	No	2.874	0.001	n/a	NoResponse	-1	n/a	n/a	8	62	Fixation	Loss	True
591.672	0.19	Lose2	0.7143	0.004	No	2.874	-0.004	2.0	NoResponse	-1	0.206	590.878	8	62	Target	Loss	True
591.872	0.51	Lose2	0.7143	n/a	No	2.874	n/a	n/a	NoResponse	-1	n/a	n/a	8	62	Blank	Loss	True
591.878	0.3	Lose2	0.7143	0.004	No	2.874	-0.004	2.0	NoResponse	-1	0.206	n/a	8	62	ButtonPress	Loss	True
592.374	1.45	Lose2	0.7143	n/a	No	2.874	n/a	5.0	NoResponse	-1	0.039	591.413	8	62	Feedback	Loss	True
593.828	2.874	Lose2	0.7143	n/a	No	2.874	n/a	n/a	NoResponse	-1	0.0	n/a	8	62	ISIslide	Loss	True
596.72	0.25	Lose2	0.7031000000000001	0.0	No	2.63	0.02	n/a	LatePress	-1	n/a	n/a	7	63	Cue	Loss	True
596.971	4.05	Lose2	0.7031000000000001	0.0	No	2.63	0.001	n/a	LatePress	-1	n/a	n/a	7	63	Fixation	Loss	True
601.016	0.18	Lose2	0.7031000000000001	0.004	No	2.63	-0.004	2.0	LatePress	-1	0.18	600.196	7	63	Target	Loss	True
601.196	0.3	Lose2	0.7031000000000001	0.004	No	2.63	-0.004	2.0	LatePress	-1	0.18	n/a	7	63	ButtonPress	Loss	True
601.2	0.52	Lose2	0.7031000000000001	n/a	No	2.63	n/a	n/a	LatePress	-1	n/a	n/a	7	63	Blank	Loss	True
601.719	1.45	Lose2	0.7031000000000001	n/a	No	2.63	n/a	5.0	LatePress	-1	0.011	600.73	7	63	Feedback	Loss	True
603.173	2.63	Lose2	0.7031000000000001	n/a	No	2.63	n/a	n/a	LatePress	-1	0.0	n/a	7	63	ISIslide	Loss	True
605.814	0.25	Win2	0.6923	0.0	No	3.136	0.014	n/a	LatePress	0	n/a	n/a	7	64	Cue	MissedWin	True
606.065	4.15	Win2	0.6923	0.0	No	3.136	0.001	n/a	LatePress	0	n/a	n/a	7	64	Fixation	MissedWin	True
610.211	0.17	Win2	0.6923	0.003	No	3.136	-0.003	2.0	LatePress	0	0.18	609.391	7	64	Target	MissedWin	True
610.391	0.3	Win2	0.6923	0.003	No	3.136	-0.003	2.0	LatePress	0	0.18	n/a	7	64	ButtonPress	MissedWin	True
610.395	0.53	Win2	0.6923	n/a	No	3.136	n/a	n/a	LatePress	0	n/a	n/a	7	64	Blank	MissedWin	True
610.913	1.45	Win2	0.6923	n/a	No	3.136	n/a	5.0	LatePress	0	0.037	609.95	7	64	Feedback	MissedWin	True
612.367	3.136	Win2	0.6923	n/a	No	3.136	n/a	n/a	LatePress	0	0.0	n/a	7	64	ISIslide	MissedWin	True
615.527	0.25	Control	0.6970000000000001	0.0	Yes	2.773	0.027	n/a	GoodResponse	0	n/a	n/a	7	65	Cue	Neutral	True
615.777	4.0	Control	0.6970000000000001	0.001	Yes	2.773	0.0	n/a	GoodResponse	0	n/a	n/a	7	65	Fixation	Neutral	True
619.773	0.16	Control	0.6970000000000001	0.004	Yes	2.773	-0.004	2.0	GoodResponse	0	0.155	618.928	7	65	Target	Neutral	True
619.928	0.3	Control	0.6970000000000001	0.004	Yes	2.773	-0.004	2.0	GoodResponse	0	0.155	n/a	7	65	ButtonPress	Neutral	True
619.94	0.54	Control	0.6970000000000001	n/a	Yes	2.773	n/a	n/a	GoodResponse	0	n/a	n/a	7	65	Blank	Neutral	True
620.475	1.45	Control	0.6970000000000001	n/a	Yes	2.773	n/a	5.0	GoodResponse	0	0.036	619.511	7	65	Feedback	Neutral	True
621.929	2.773	Control	0.6970000000000001	n/a	Yes	2.773	n/a	n/a	GoodResponse	0	0.0	n/a	7	65	ISIslide	Neutral	True
624.721	0.25	Win2	0.6866	0.0	No	2.779	0.021	n/a	NoResponse	0	n/a	n/a	7	66	Cue	MissedWin	True
624.972	3.9	Win2	0.6866	0.0	No	2.779	0.001	n/a	NoResponse	0	n/a	n/a	7	66	Fixation	MissedWin	True
628.867	0.15	Win2	0.6866	0.004	No	2.779	-0.004	2.0	NoResponse	0	0.165	628.032	7	66	Target	MissedWin	True
629.017	0.55	Win2	0.6866	n/a	No	2.779	n/a	n/a	NoResponse	0	n/a	n/a	7	66	Blank	MissedWin	True
629.032	0.3	Win2	0.6866	0.004	No	2.779	-0.004	2.0	NoResponse	0	0.165	n/a	7	66	ButtonPress	MissedWin	True
629.569	1.45	Win2	0.6866	n/a	No	2.779	n/a	5.0	NoResponse	0	0.015	628.584	7	66	Feedback	MissedWin	True
631.023	2.779	Win2	0.6866	n/a	No	2.779	n/a	n/a	NoResponse	0	0.0	n/a	7	66	ISIslide	MissedWin	True
633.815	0.25	Control	0.6765000000000001	0.0	No	2.735	0.015	n/a	NoResponse	0	n/a	n/a	7	67	Cue	Neutral	True
634.066	3.95	Control	0.6765000000000001	0.0	No	2.735	0.001	n/a	NoResponse	0	n/a	n/a	7	67	Fixation	Neutral	True
638.011	0.15	Control	0.6765000000000001	0.004	No	2.735	-0.004	2.0	NoResponse	0	0.202	637.213	7	67	Target	Neutral	True
638.161	0.55	Control	0.6765000000000001	n/a	No	2.735	n/a	n/a	NoResponse	0	n/a	n/a	7	67	Blank	Neutral	True
638.213	0.3	Control	0.6765000000000001	0.004	No	2.735	-0.004	2.0	NoResponse	0	0.202	n/a	7	67	ButtonPress	Neutral	True
638.713	1.45	Control	0.6765000000000001	n/a	No	2.735	n/a	5.0	NoResponse	0	0.042	637.755	7	67	Feedback	Neutral	True
640.167	2.735	Control	0.6765000000000001	n/a	No	2.735	n/a	n/a	NoResponse	0	0.0	n/a	7	67	ISIslide	Neutral	True
642.926	0.25	Win2	0.6667000000000001	0.0	No	3.074	0.026	n/a	NoResponse	0	n/a	n/a	7	68	Cue	MissedWin	True
643.176	4.0	Win2	0.6667000000000001	0.0	No	3.074	0.0	n/a	NoResponse	0	n/a	n/a	7	68	Fixation	MissedWin	True
647.172	0.15	Win2	0.6667000000000001	0.004	No	3.074	-0.004	2.0	NoResponse	0	0.185	646.357	7	68	Target	MissedWin	True
647.322	0.55	Win2	0.6667000000000001	n/a	No	3.074	n/a	n/a	NoResponse	0	n/a	n/a	7	68	Blank	MissedWin	True
647.357	0.3	Win2	0.6667000000000001	0.004	No	3.074	-0.004	2.0	NoResponse	0	0.185	n/a	7	68	ButtonPress	MissedWin	True
647.874	1.45	Win2	0.6667000000000001	n/a	No	3.074	n/a	5.0	NoResponse	0	0.005	646.879	7	68	Feedback	MissedWin	True
649.328	3.074	Win2	0.6667000000000001	n/a	No	3.074	n/a	n/a	NoResponse	0	0.0	n/a	7	68	ISIslide	MissedWin	True
652.421	0.25	Win2	0.6570999999999999	0.0	No	3.229	0.021	n/a	NoResponse	0	n/a	n/a	7	69	Cue	MissedWin	True
652.671	3.95	Win2	0.6570999999999999	0.001	No	3.229	0.0	n/a	NoResponse	0	n/a	n/a	7	69	Fixation	MissedWin	True
656.617	0.15	Win2	0.6570999999999999	0.004	No	3.229	-0.004	2.0	NoResponse	0	0.271	655.888	7	69	Target	MissedWin	True
656.767	0.55	Win2	0.6570999999999999	n/a	No	3.229	n/a	n/a	NoResponse	0	n/a	n/a	7	69	Blank	MissedWin	True
656.888	0.3	Win2	0.6570999999999999	0.004	No	3.229	-0.004	2.0	NoResponse	0	0.271	n/a	7	69	ButtonPress	MissedWin	True
657.319	1.45	Win2	0.6570999999999999	n/a	No	3.229	n/a	5.0	NoResponse	0	0.021	656.34	7	69	Feedback	MissedWin	True
658.773	3.229	Win2	0.6570999999999999	n/a	No	3.229	n/a	n/a	NoResponse	0	0.0	n/a	7	69	ISIslide	MissedWin	True
662.016	0.25	Lose2	0.6479	0.0	No	3.034	0.016	n/a	NoResponse	-1	n/a	n/a	6	70	Cue	Loss	True
662.267	4.05	Lose2	0.6479	0.0	No	3.034	0.001	n/a	NoResponse	-1	n/a	n/a	6	70	Fixation	Loss	True
666.312	0.15	Lose2	0.6479	0.004	No	3.034	-0.004	2.0	NoResponse	-1	0.19	665.502	6	70	Target	Loss	True
666.463	0.55	Lose2	0.6479	n/a	No	3.034	n/a	n/a	NoResponse	-1	n/a	n/a	6	70	Blank	Loss	True
666.502	0.3	Lose2	0.6479	0.004	No	3.034	-0.004	2.0	NoResponse	-1	0.19	n/a	6	70	ButtonPress	Loss	True
667.014	1.45	Lose2	0.6479	n/a	No	3.034	n/a	5.0	NoResponse	-1	0.033	666.047	6	70	Feedback	Loss	True
668.469	3.034	Lose2	0.6479	n/a	No	3.034	n/a	n/a	NoResponse	-1	0.0	n/a	6	70	ISIslide	Loss	True
671.528	0.25	Win2	0.6389	0.0	No	2.722	0.028	n/a	NoResponse	0	n/a	n/a	6	71	Cue	MissedWin	True
671.779	4.05	Win2	0.6389	0.0	No	2.722	0.001	n/a	NoResponse	0	n/a	n/a	6	71	Fixation	MissedWin	True
675.824	0.16	Win2	0.6389	0.004	No	2.722	-0.004	2.0	NoResponse	0	0.194	675.018	6	71	Target	MissedWin	True
675.991	0.54	Win2	0.6389	n/a	No	2.722	n/a	n/a	NoResponse	0	n/a	n/a	6	71	Blank	MissedWin	True
676.018	0.3	Win2	0.6389	0.004	No	2.722	-0.004	2.0	NoResponse	0	0.194	n/a	6	71	ButtonPress	MissedWin	True
676.526	1.45	Win2	0.6389	n/a	No	2.722	n/a	5.0	NoResponse	0	0.034	675.56	6	71	Feedback	MissedWin	True
677.981	2.722	Win2	0.6389	n/a	No	2.722	n/a	n/a	NoResponse	0	0.0	n/a	6	71	ISIslide	MissedWin	True
680.722	0.25	Win2	0.6301	0.0	No	2.778	0.022	n/a	NoResponse	0	n/a	n/a	6	72	Cue	MissedWin	True
680.973	4.1	Win2	0.6301	0.0	No	2.778	0.001	2.0	NoResponse	0	3.917	683.89	6	72	Fixation	MissedWin	True
684.89	0.3	Win2	0.6301	0.0	No	2.778	0.001	2.0	NoResponse	0	3.917	n/a	6	72	ButtonPress	MissedWin	True
685.069	0.17	Win2	0.6301	0.003	No	2.778	-0.003	n/a	NoResponse	0	n/a	n/a	6	72	Target	MissedWin	True
685.253	0.53	Win2	0.6301	n/a	No	2.778	n/a	n/a	NoResponse	0	n/a	n/a	6	72	Blank	MissedWin	True
685.771	1.45	Win2	0.6301	n/a	No	2.778	n/a	5.0	NoResponse	0	0.008	684.779	6	72	Feedback	MissedWin	True
687.225	2.778	Win2	0.6301	n/a	No	2.778	n/a	n/a	NoResponse	0	0.0	n/a	6	72	ISIslide	MissedWin	True
690.017	0.25	Win2	0.6215999999999999	0.0	No	2.683	0.017	n/a	NoResponse	0	n/a	n/a	6	73	Cue	MissedWin	True
690.268	4.0	Win2	0.6215999999999999	0.0	No	2.683	0.001	n/a	NoResponse	0	n/a	n/a	6	73	Fixation	MissedWin	True
694.263	0.18	Win2	0.6215999999999999	0.004	No	2.683	-0.004	2.0	NoResponse	0	0.225	693.488	6	73	Target	MissedWin	True
694.447	0.52	Win2	0.6215999999999999	n/a	No	2.683	n/a	n/a	NoResponse	0	n/a	n/a	6	73	Blank	MissedWin	True
694.488	0.3	Win2	0.6215999999999999	0.004	No	2.683	-0.004	2.0	NoResponse	0	0.225	n/a	6	73	ButtonPress	MissedWin	True
694.965	1.45	Win2	0.6215999999999999	n/a	No	2.683	n/a	5.0	NoResponse	0	0.034	693.999	6	73	Feedback	MissedWin	True
696.419	2.683	Win2	0.6215999999999999	n/a	No	2.683	n/a	n/a	NoResponse	0	0.0	n/a	6	73	ISIslide	MissedWin	True
699.127	0.25	Lose2	0.6133	0.001	No	2.623	0.027	n/a	LatePress	-1	n/a	n/a	5	74	Cue	Loss	True
699.378	4.05	Lose2	0.6133	0.0	No	2.623	0.001	n/a	LatePress	-1	n/a	n/a	5	74	Fixation	Loss	True
703.424	0.19	Lose2	0.6133	0.003	No	2.623	-0.003	2.0	LatePress	-1	0.191	702.615	5	74	Target	Loss	True
703.615	0.3	Lose2	0.6133	0.003	No	2.623	-0.003	2.0	LatePress	-1	0.191	n/a	5	74	ButtonPress	Loss	True
703.624	0.51	Lose2	0.6133	n/a	No	2.623	n/a	n/a	LatePress	-1	n/a	n/a	5	74	Blank	Loss	True
704.126	1.45	Lose2	0.6133	n/a	No	2.623	n/a	5.0	LatePress	-1	0.044	703.17	5	74	Feedback	Loss	True
705.58	2.623	Lose2	0.6133	n/a	No	2.623	n/a	n/a	LatePress	-1	0.0	n/a	5	74	ISIslide	Loss	True
708.221	0.25	Lose2	0.6053000000000001	0.001	No	2.929	0.021	n/a	LatePress	-1	n/a	n/a	4	75	Cue	Loss	True
708.472	3.95	Lose2	0.6053000000000001	0.0	No	2.929	0.001	n/a	LatePress	-1	n/a	n/a	4	75	Fixation	Loss	True
712.417	0.2	Lose2	0.6053000000000001	0.004	No	2.929	-0.004	2.0	LatePress	-1	0.2	711.617	4	75	Target	Loss	True
712.617	0.3	Lose2	0.6053000000000001	0.004	No	2.929	-0.004	2.0	LatePress	-1	0.2	n/a	4	75	ButtonPress	Loss	True
712.618	0.5	Lose2	0.6053000000000001	n/a	No	2.929	n/a	n/a	LatePress	-1	n/a	n/a	4	75	Blank	Loss	True
713.119	1.45	Lose2	0.6053000000000001	n/a	No	2.929	n/a	5.0	LatePress	-1	0.026	712.145	4	75	Feedback	Loss	True
714.574	2.929	Lose2	0.6053000000000001	n/a	No	2.929	n/a	n/a	LatePress	-1	0.0	n/a	4	75	ISIslide	Loss	True
717.516	0.25	Control	0.5974	0.0	No	3.234	0.016	n/a	NoResponse	0	n/a	n/a	4	76	Cue	Neutral	True
717.767	4.05	Control	0.5974	0.0	No	3.234	0.001	n/a	NoResponse	0	n/a	n/a	4	76	Fixation	Neutral	True
721.812	0.21	Control	0.5974	0.004	No	3.234	-0.004	2.0	NoResponse	0	0.244	721.056	4	76	Target	Neutral	True
722.03	0.49	Control	0.5974	n/a	No	3.234	n/a	n/a	NoResponse	0	n/a	n/a	4	76	Blank	Neutral	True
722.056	0.3	Control	0.5974	0.004	No	3.234	-0.004	2.0	NoResponse	0	0.244	n/a	4	76	ButtonPress	Neutral	True
722.514	1.45	Control	0.5974	n/a	No	3.234	n/a	5.0	NoResponse	0	0.045	721.559	4	76	Feedback	Neutral	True
723.969	3.234	Control	0.5974	n/a	No	3.234	n/a	n/a	NoResponse	0	0.0	n/a	4	76	ISIslide	Neutral	True
727.228	0.25	Lose2	0.6026	0.001	Yes	2.572	0.028	n/a	GoodResponse	0	n/a	n/a	4	77	Cue	AvoidedLoss	True
727.479	3.95	Lose2	0.6026	0.0	Yes	2.572	0.001	n/a	GoodResponse	0	n/a	n/a	4	77	Fixation	AvoidedLoss	True
731.424	0.22	Lose2	0.6026	0.004	Yes	2.572	-0.004	2.0	GoodResponse	0	0.187	730.611	4	77	Target	AvoidedLoss	True
731.611	0.3	Lose2	0.6026	0.004	Yes	2.572	-0.004	2.0	GoodResponse	0	0.187	n/a	4	77	ButtonPress	AvoidedLoss	True
731.658	0.48	Lose2	0.6026	n/a	Yes	2.572	n/a	n/a	GoodResponse	0	n/a	n/a	4	77	Blank	AvoidedLoss	True
732.126	1.45	Lose2	0.6026	n/a	Yes	2.572	n/a	5.0	GoodResponse	0	0.043	731.169	4	77	Feedback	AvoidedLoss	True
733.581	2.572	Lose2	0.6026	n/a	Yes	2.572	n/a	n/a	GoodResponse	0	0.0	n/a	4	77	ISIslide	AvoidedLoss	True
