onset	duration	cue_type	current_mean_accuracy	duration_error	is_hit	isi_adjusted	onset_delay	response	response_type	reward	rt	rt_time	total_reward	trial_number	trial_phase	trial_type	one_press
11.106	0.25	Control	1.0	0.0	Yes	2.944	0.006	n/a	GoodResponse	0	n/a	n/a	0	0	Cue	Neutral	True
11.357	3.85	Control	1.0	0.0	Yes	2.944	0.001	n/a	GoodResponse	0	n/a	n/a	0	0	Fixation	Neutral	True
15.202	0.4	Control	1.0	0.004	Yes	2.944	-0.004	4.0	GoodResponse	0	0.234	14.436	0	0	Target	Neutral	True
15.436	0.3	Control	1.0	0.004	Yes	2.944	-0.004	4.0	GoodResponse	0	0.234	n/a	0	0	ButtonPress	Neutral	True
15.603	0.3	Control	1.0	n/a	Yes	2.944	n/a	n/a	GoodResponse	0	n/a	n/a	0	0	Blank	Neutral	True
15.904	1.45	Control	1.0	n/a	Yes	2.944	n/a	5.0	GoodResponse	0	0.023	14.927	0	0	Feedback	Neutral	True
17.358	2.944	Control	1.0	n/a	Yes	2.944	n/a	n/a	GoodResponse	0	0.0	n/a	0	0	ISIslide	Neutral	True
20.334	0.25	Lose2	1.0	0.0	Yes	2.766	0.034	n/a	GoodResponse	0	n/a	n/a	0	1	Cue	AvoidedLoss	True
20.585	4.0	Lose2	1.0	0.0	Yes	2.766	0.001	n/a	GoodResponse	0	n/a	n/a	0	1	Fixation	AvoidedLoss	True
24.58	0.39	Lose2	1.0	0.004	Yes	2.766	-0.004	4.0	GoodResponse	0	0.239	23.819	0	1	Target	AvoidedLoss	True
24.819	0.3	Lose2	1.0	0.004	Yes	2.766	-0.004	4.0	GoodResponse	0	0.239	n/a	0	1	ButtonPress	AvoidedLoss	True
24.981	0.31	Lose2	1.0	n/a	Yes	2.766	n/a	n/a	GoodResponse	0	n/a	n/a	0	1	Blank	AvoidedLoss	True
25.282	1.45	Lose2	1.0	n/a	Yes	2.766	n/a	5.0	GoodResponse	0	0.011	24.293	0	1	Feedback	AvoidedLoss	True
26.736	2.766	Lose2	1.0	n/a	Yes	2.766	n/a	n/a	GoodResponse	0	0.0	n/a	0	1	ISIslide	AvoidedLoss	True
29.528	0.25	Control	1.0	0.0	Yes	2.572	0.028	n/a	GoodResponse	0	n/a	n/a	0	2	Cue	Neutral	True
29.779	4.1	Control	1.0	0.0	Yes	2.572	0.001	n/a	GoodResponse	0	n/a	n/a	0	2	Fixation	Neutral	True
33.874	0.38	Control	1.0	0.004	Yes	2.572	-0.004	4.0	GoodResponse	0	0.219	33.093	0	2	Target	Neutral	True
34.093	0.3	Control	1.0	0.004	Yes	2.572	-0.004	4.0	GoodResponse	0	0.219	n/a	0	2	ButtonPress	Neutral	True
34.259	0.32	Control	1.0	n/a	Yes	2.572	n/a	n/a	GoodResponse	0	n/a	n/a	0	2	Blank	Neutral	True
34.576	1.45	Control	1.0	n/a	Yes	2.572	n/a	5.0	GoodResponse	0	0.034	33.61	0	2	Feedback	Neutral	True
36.031	2.572	Control	1.0	n/a	Yes	2.572	n/a	n/a	GoodResponse	0	0.0	n/a	0	2	ISIslide	Neutral	True
38.622	0.25	Win2	1.0	0.0	Yes	2.828	0.022	n/a	GoodResponse	1	n/a	n/a	1	3	Cue	Win	True
38.873	3.95	Win2	1.0	0.0	Yes	2.828	0.001	n/a	GoodResponse	1	n/a	n/a	1	3	Fixation	Win	True
42.818	0.37	Win2	1.0	0.004	Yes	2.828	-0.004	4.0	GoodResponse	1	0.214	42.032	1	3	Target	Win	True
43.032	0.3	Win2	1.0	0.004	Yes	2.828	-0.004	4.0	GoodResponse	1	0.214	n/a	1	3	ButtonPress	Win	True
43.202	0.33	Win2	1.0	n/a	Yes	2.828	n/a	n/a	GoodResponse	1	n/a	n/a	1	3	Blank	Win	True
43.52	1.45	Win2	1.0	n/a	Yes	2.828	n/a	5.0	GoodResponse	1	0.016	42.536	1	3	Feedback	Win	True
44.974	2.828	Win2	1.0	n/a	Yes	2.828	n/a	n/a	GoodResponse	1	0.0	n/a	1	3	ISIslide	Win	True
47.816	0.25	Win2	1.0	0.0	Yes	3.284	0.016	n/a	GoodResponse	1	n/a	n/a	2	4	Cue	Win	True
48.067	4.0	Win2	1.0	0.0	Yes	3.284	0.001	n/a	GoodResponse	1	n/a	n/a	2	4	Fixation	Win	True
52.062	0.36	Win2	1.0	0.004	Yes	3.284	-0.004	4.0	GoodResponse	1	0.204	51.266	2	4	Target	Win	True
52.266	0.3	Win2	1.0	0.004	Yes	3.284	-0.004	4.0	GoodResponse	1	0.204	n/a	2	4	ButtonPress	Win	True
52.43	0.34	Win2	1.0	n/a	Yes	3.284	n/a	n/a	GoodResponse	1	n/a	n/a	2	4	Blank	Win	True
52.764	1.45	Win2	1.0	n/a	Yes	3.284	n/a	5.0	GoodResponse	1	0.04	51.804	2	4	Feedback	Win	True
54.218	3.284	Win2	1.0	n/a	Yes	3.284	n/a	n/a	GoodResponse	1	0.0	n/a	2	4	ISIslide	Win	True
57.528	0.25	Win2	1.0	0.0	Yes	2.772	0.028	n/a	GoodResponse	1	n/a	n/a	3	5	Cue	Win	True
57.779	4.0	Win2	1.0	0.0	Yes	2.772	0.001	n/a	GoodResponse	1	n/a	n/a	3	5	Fixation	Win	True
61.774	0.35	Win2	1.0	0.004	Yes	2.772	-0.004	4.0	GoodResponse	1	0.187	60.961	3	5	Target	Win	True
61.961	0.3	Win2	1.0	0.004	Yes	2.772	-0.004	4.0	GoodResponse	1	0.187	n/a	3	5	ButtonPress	Win	True
62.125	0.35	Win2	1.0	n/a	Yes	2.772	n/a	n/a	GoodResponse	1	n/a	n/a	3	5	Blank	Win	True
62.476	1.45	Win2	1.0	n/a	Yes	2.772	n/a	5.0	GoodResponse	1	0.036	61.512	3	5	Feedback	Win	True
63.931	2.772	Win2	1.0	n/a	Yes	2.772	n/a	n/a	GoodResponse	1	0.0	n/a	3	5	ISIslide	Win	True
66.722	0.25	Lose2	1.0	0.0	Yes	2.728	0.022	n/a	GoodResponse	0	n/a	n/a	3	6	Cue	AvoidedLoss	True
66.973	3.95	Lose2	1.0	0.0	Yes	2.728	0.001	n/a	GoodResponse	0	n/a	n/a	3	6	Fixation	AvoidedLoss	True
70.918	0.34	Lose2	1.0	0.004	Yes	2.728	-0.004	4.0	GoodResponse	0	0.198	70.116	3	6	Target	AvoidedLoss	True
71.116	0.3	Lose2	1.0	0.004	Yes	2.728	-0.004	4.0	GoodResponse	0	0.198	n/a	3	6	ButtonPress	AvoidedLoss	True
71.269	0.36	Lose2	1.0	n/a	Yes	2.728	n/a	n/a	GoodResponse	0	n/a	n/a	3	6	Blank	AvoidedLoss	True
71.62	1.45	Lose2	1.0	n/a	Yes	2.728	n/a	5.0	GoodResponse	0	0.014	70.634	3	6	Feedback	AvoidedLoss	True
73.075	2.728	Lose2	1.0	n/a	Yes	2.728	n/a	n/a	GoodResponse	0	0.0	n/a	3	6	ISIslide	AvoidedLoss	True
75.816	0.25	Lose2	1.0	0.0	Yes	4.034	0.016	n/a	GoodResponse	0	n/a	n/a	3	7	Cue	AvoidedLoss	True
76.067	4.05	Lose2	1.0	0.0	Yes	4.034	0.001	n/a	GoodResponse	0	n/a	n/a	3	7	Fixation	AvoidedLoss	True
80.112	0.33	Lose2	1.0	0.004	Yes	4.034	-0.004	4.0	GoodResponse	0	0.197	79.309	3	7	Target	AvoidedLoss	True
80.309	0.3	Lose2	1.0	0.004	Yes	4.034	-0.004	4.0	GoodResponse	0	0.197	n/a	3	7	ButtonPress	AvoidedLoss	True
80.447	0.37	Lose2	1.0	n/a	Yes	4.034	n/a	n/a	GoodResponse	0	n/a	n/a	3	7	Blank	AvoidedLoss	True
80.814	1.45	Lose2	1.0	n/a	Yes	4.034	n/a	5.0	GoodResponse	0	0.038	79.852	3	7	Feedback	AvoidedLoss	True
82.269	4.034	Lose2	1.0	n/a	Yes	4.034	n/a	n/a	GoodResponse	0	0.0	n/a	3	7	ISIslide	AvoidedLoss	True
86.331	0.25	Lose2	1.0	0.0	Yes	3.019	0.031	n/a	GoodResponse	0	n/a	n/a	3	8	Cue	AvoidedLoss	True
86.582	3.95	Lose2	1.0	0.0	Yes	3.019	0.001	n/a	GoodResponse	0	n/a	n/a	3	8	Fixation	AvoidedLoss	True
90.527	0.32	Lose2	1.0	0.004	Yes	3.019	-0.004	4.0	GoodResponse	0	0.214	89.741	3	8	Target	AvoidedLoss	True
90.741	0.3	Lose2	1.0	0.004	Yes	3.019	-0.004	4.0	GoodResponse	0	0.214	n/a	3	8	ButtonPress	AvoidedLoss	True
90.861	0.38	Lose2	1.0	n/a	Yes	3.019	n/a	n/a	GoodResponse	0	n/a	n/a	3	8	Blank	AvoidedLoss	True
91.229	1.45	Lose2	1.0	n/a	Yes	3.019	n/a	5.0	GoodResponse	0	0.014	90.243	3	8	Feedback	AvoidedLoss	True
92.683	3.019	Lose2	1.0	n/a	Yes	3.019	n/a	n/a	GoodResponse	0	0.0	n/a	3	8	ISIslide	AvoidedLoss	True
95.726	0.25	Lose2	1.0	0.0	Yes	3.124	0.026	n/a	GoodResponse	0	n/a	n/a	3	9	Cue	AvoidedLoss	True
95.976	3.95	Lose2	1.0	0.0	Yes	3.124	0.0	n/a	GoodResponse	0	n/a	n/a	3	9	Fixation	AvoidedLoss	True
99.922	0.31	Lose2	1.0	0.004	Yes	3.124	-0.004	4.0	GoodResponse	0	0.182	99.104	3	9	Target	AvoidedLoss	True
100.104	0.3	Lose2	1.0	0.004	Yes	3.124	-0.004	4.0	GoodResponse	0	0.182	n/a	3	9	ButtonPress	AvoidedLoss	True
100.239	0.39	Lose2	1.0	n/a	Yes	3.124	n/a	n/a	GoodResponse	0	n/a	n/a	3	9	Blank	AvoidedLoss	True
100.624	1.45	Lose2	1.0	n/a	Yes	3.124	n/a	5.0	GoodResponse	0	0.033	99.657	3	9	Feedback	AvoidedLoss	True
102.078	3.124	Lose2	1.0	n/a	Yes	3.124	n/a	n/a	GoodResponse	0	0.0	n/a	3	9	ISIslide	AvoidedLoss	True
105.221	0.25	Control	1.0	0.0	Yes	3.279	0.021	n/a	GoodResponse	0	n/a	n/a	3	10	Cue	Neutral	True
105.471	4.0	Control	1.0	0.0	Yes	3.279	0.0	n/a	GoodResponse	0	n/a	n/a	3	10	Fixation	Neutral	True
109.467	0.3	Control	1.0	0.004	Yes	3.279	-0.004	4.0	GoodResponse	0	0.184	108.651	3	10	Target	Neutral	True
109.651	0.3	Control	1.0	0.004	Yes	3.279	-0.004	4.0	GoodResponse	0	0.184	n/a	3	10	ButtonPress	Neutral	True
109.768	0.4	Control	1.0	n/a	Yes	3.279	n/a	n/a	GoodResponse	0	n/a	n/a	3	10	Blank	Neutral	True
110.169	1.45	Control	1.0	n/a	Yes	3.279	n/a	5.0	GoodResponse	0	0.0	109.169	3	10	Feedback	Neutral	True
111.623	3.279	Control	1.0	n/a	Yes	3.279	n/a	n/a	GoodResponse	0	0.0	n/a	3	10	ISIslide	Neutral	True
114.916	0.25	Lose2	1.0	0.0	Yes	2.734	0.016	n/a	GoodResponse	0	n/a	n/a	3	11	Cue	AvoidedLoss	True
115.167	4.05	Lose2	1.0	0.0	Yes	2.734	0.001	n/a	GoodResponse	0	n/a	n/a	3	11	Fixation	AvoidedLoss	True
119.212	0.29	Lose2	1.0	0.004	Yes	2.734	-0.004	4.0	GoodResponse	0	0.209	118.421	3	11	Target	AvoidedLoss	True
119.421	0.3	Lose2	1.0	0.004	Yes	2.734	-0.004	4.0	GoodResponse	0	0.209	n/a	3	11	ButtonPress	AvoidedLoss	True
119.513	0.41	Lose2	1.0	n/a	Yes	2.734	n/a	n/a	GoodResponse	0	n/a	n/a	3	11	Blank	AvoidedLoss	True
119.915	1.45	Lose2	1.0	n/a	Yes	2.734	n/a	5.0	GoodResponse	0	0.01	118.925	3	11	Feedback	AvoidedLoss	True
121.369	2.734	Lose2	1.0	n/a	Yes	2.734	n/a	n/a	GoodResponse	0	0.0	n/a	3	11	ISIslide	AvoidedLoss	True
124.127	0.25	Control	1.0	0.0	Yes	2.973	0.027	n/a	GoodResponse	0	n/a	n/a	3	12	Cue	Neutral	True
124.378	3.9	Control	1.0	0.0	Yes	2.973	0.001	n/a	GoodResponse	0	n/a	n/a	3	12	Fixation	Neutral	True
128.273	0.28	Control	1.0	0.004	Yes	2.973	-0.004	4.0	GoodResponse	0	0.19	127.463	3	12	Target	Neutral	True
128.463	0.3	Control	1.0	0.004	Yes	2.973	-0.004	4.0	GoodResponse	0	0.19	n/a	3	12	ButtonPress	Neutral	True
128.557	0.42	Control	1.0	n/a	Yes	2.973	n/a	n/a	GoodResponse	0	n/a	n/a	3	12	Blank	Neutral	True
128.975	1.45	Control	1.0	n/a	Yes	2.973	n/a	5.0	GoodResponse	0	0.023	127.998	3	12	Feedback	Neutral	True
130.429	2.973	Control	1.0	n/a	Yes	2.973	n/a	n/a	GoodResponse	0	0.0	n/a	3	12	ISIslide	Neutral	True
133.422	0.25	Control	1.0	0.0	Yes	2.778	0.022	n/a	GoodResponse	0	n/a	n/a	3	13	Cue	Neutral	True
133.672	4.0	Control	1.0	0.0	Yes	2.778	0.0	n/a	GoodResponse	0	n/a	n/a	3	13	Fixation	Neutral	True
137.668	0.27	Control	1.0	0.004	Yes	2.778	-0.004	4.0	GoodResponse	0	0.23	136.898	3	13	Target	Neutral	True
137.898	0.3	Control	1.0	0.004	Yes	2.778	-0.004	4.0	GoodResponse	0	0.23	n/a	3	13	ButtonPress	Neutral	True
137.952	0.43	Control	1.0	n/a	Yes	2.778	n/a	n/a	GoodResponse	0	n/a	n/a	3	13	Blank	Neutral	True
138.37	1.45	Control	1.0	n/a	Yes	2.778	n/a	5.0	GoodResponse	0	0.043	137.413	3	13	Feedback	Neutral	True
139.824	2.778	Control	1.0	n/a	Yes	2.778	n/a	n/a	GoodResponse	0	0.0	n/a	3	13	ISIslide	Neutral	True
142.616	0.25	Win2	1.0	0.0	Yes	2.684	0.016	n/a	GoodResponse	1	n/a	n/a	4	14	Cue	Win	True
142.866	4.1	Win2	1.0	0.0	Yes	2.684	0.0	n/a	GoodResponse	1	n/a	n/a	4	14	Fixation	Win	True
146.962	0.26	Win2	1.0	0.004	Yes	2.684	-0.004	4.0	GoodResponse	1	0.186	146.148	4	14	Target	Win	True
147.148	0.3	Win2	1.0	0.004	Yes	2.684	-0.004	4.0	GoodResponse	1	0.186	n/a	4	14	ButtonPress	Win	True
147.229	0.44	Win2	1.0	n/a	Yes	2.684	n/a	n/a	GoodResponse	1	n/a	n/a	4	14	Blank	Win	True
147.664	1.45	Win2	1.0	n/a	Yes	2.684	n/a	5.0	GoodResponse	1	0.018	146.682	4	14	Feedback	Win	True
149.118	2.684	Win2	1.0	n/a	Yes	2.684	n/a	n/a	GoodResponse	1	0.0	n/a	4	14	ISIslide	Win	True
151.827	0.25	Control	1.0	0.0	Yes	2.973	0.027	n/a	GoodResponse	0	n/a	n/a	4	15	Cue	Neutral	True
152.077	4.0	Control	1.0	0.0	Yes	2.973	0.0	n/a	GoodResponse	0	n/a	n/a	4	15	Fixation	Neutral	True
156.073	0.25	Control	1.0	0.004	Yes	2.973	-0.004	4.0	GoodResponse	0	0.215	155.288	4	15	Target	Neutral	True
156.288	0.3	Control	1.0	0.004	Yes	2.973	-0.004	4.0	GoodResponse	0	0.215	n/a	4	15	ButtonPress	Neutral	True
156.323	0.45	Control	1.0	n/a	Yes	2.973	n/a	n/a	GoodResponse	0	n/a	n/a	4	15	Blank	Neutral	True
156.775	1.45	Control	1.0	n/a	Yes	2.973	n/a	5.0	GoodResponse	0	0.028	155.803	4	15	Feedback	Neutral	True
158.229	2.973	Control	1.0	n/a	Yes	2.973	n/a	n/a	GoodResponse	0	0.0	n/a	4	15	ISIslide	Neutral	True
161.221	0.25	Win2	1.0	0.0	Yes	2.879	0.021	n/a	GoodResponse	1	n/a	n/a	5	16	Cue	Win	True
161.472	4.0	Win2	1.0	0.0	Yes	2.879	0.001	n/a	GoodResponse	1	n/a	n/a	5	16	Fixation	Win	True
165.467	0.24	Win2	1.0	0.004	Yes	2.879	-0.004	4.0	GoodResponse	1	0.205	164.672	5	16	Target	Win	True
165.672	0.3	Win2	1.0	0.004	Yes	2.879	-0.004	4.0	GoodResponse	1	0.205	n/a	5	16	ButtonPress	Win	True
165.718	0.46	Win2	1.0	n/a	Yes	2.879	n/a	n/a	GoodResponse	1	n/a	n/a	5	16	Blank	Win	True
166.169	1.45	Win2	1.0	n/a	Yes	2.879	n/a	5.0	GoodResponse	1	0.048	165.217	5	16	Feedback	Win	True
167.624	2.879	Win2	1.0	n/a	Yes	2.879	n/a	n/a	GoodResponse	1	0.0	n/a	5	16	ISIslide	Win	True
170.532	0.25	Lose2	1.0	0.0	Yes	2.718	0.032	n/a	GoodResponse	0	n/a	n/a	5	17	Cue	AvoidedLoss	True
170.783	3.95	Lose2	1.0	0.0	Yes	2.718	0.001	n/a	GoodResponse	0	n/a	n/a	5	17	Fixation	AvoidedLoss	True
174.728	0.23	Lose2	1.0	0.004	Yes	2.718	-0.004	4.0	GoodResponse	0	0.213	173.941	5	17	Target	AvoidedLoss	True
174.941	0.3	Lose2	1.0	0.004	Yes	2.718	-0.004	4.0	GoodResponse	0	0.213	n/a	5	17	ButtonPress	AvoidedLoss	True
174.962	0.47	Lose2	1.0	n/a	Yes	2.718	n/a	n/a	GoodResponse	0	n/a	n/a	5	17	Blank	AvoidedLoss	True
175.43	1.45	Lose2	1.0	n/a	Yes	2.718	n/a	5.0	GoodResponse	0	0.007	174.437	5	17	Feedback	AvoidedLoss	True
176.885	2.718	Lose2	1.0	n/a	Yes	2.718	n/a	n/a	GoodResponse	0	0.0	n/a	5	17	ISIslide	AvoidedLoss	True
179.626	0.25	Lose2	1.0	0.0	Yes	2.724	0.026	n/a	GoodResponse	0	n/a	n/a	5	18	Cue	AvoidedLoss	True
179.877	4.05	Lose2	1.0	0.0	Yes	2.724	0.001	n/a	GoodResponse	0	n/a	n/a	5	18	Fixation	AvoidedLoss	True
183.922	0.22	Lose2	1.0	0.004	Yes	2.724	-0.004	4.0	GoodResponse	0	0.206	183.128	5	18	Target	AvoidedLoss	True
184.128	0.3	Lose2	1.0	0.004	Yes	2.724	-0.004	4.0	GoodResponse	0	0.206	n/a	5	18	ButtonPress	AvoidedLoss	True
184.156	0.48	Lose2	1.0	n/a	Yes	2.724	n/a	n/a	GoodResponse	0	n/a	n/a	5	18	Blank	AvoidedLoss	True
184.624	1.45	Lose2	1.0	n/a	Yes	2.724	n/a	5.0	GoodResponse	0	0.033	183.657	5	18	Feedback	AvoidedLoss	True
186.079	2.724	Lose2	1.0	n/a	Yes	2.724	n/a	n/a	GoodResponse	0	0.0	n/a	5	18	ISIslide	AvoidedLoss	True
188.82	0.25	Control	0.95	0.0	No	2.93	0.02	n/a	NoResponse	0	n/a	n/a	5	19	Cue	Neutral	True
189.071	3.95	Control	0.95	0.0	No	2.93	0.001	n/a	NoResponse	0	n/a	n/a	5	19	Fixation	Neutral	True
193.016	0.21	Control	0.95	0.004	No	2.93	-0.004	4.0	NoResponse	0	0.219	192.235	5	19	Target	Neutral	True
193.234	0.49	Control	0.95	n/a	No	2.93	n/a	n/a	NoResponse	0	n/a	n/a	5	19	Blank	Neutral	True
193.235	0.3	Control	0.95	0.004	No	2.93	-0.004	4.0	NoResponse	0	0.219	n/a	5	19	ButtonPress	Neutral	True
193.718	1.45	Control	0.95	n/a	No	2.93	n/a	5.0	NoResponse	0	0.011	192.729	5	19	Feedback	Neutral	True
195.173	2.93	Control	0.95	n/a	No	2.93	n/a	n/a	NoResponse	0	0.0	n/a	5	19	ISIslide	Neutral	True
198.115	0.25	Control	0.9048	0.0	No	2.635	0.015	n/a	NoResponse	0	n/a	n/a	5	20	Cue	Neutral	True
198.366	4.05	Control	0.9048	0.0	No	2.635	0.001	n/a	NoResponse	0	n/a	n/a	5	20	Fixation	Neutral	True
202.411	0.2	Control	0.9048	0.004	No	2.635	-0.004	4.0	NoResponse	0	0.217	201.628	5	20	Target	Neutral	True
202.612	0.5	Control	0.9048	n/a	No	2.635	n/a	n/a	NoResponse	0	n/a	n/a	5	20	Blank	Neutral	True
202.628	0.3	Control	0.9048	0.004	No	2.635	-0.004	4.0	NoResponse	0	0.217	n/a	5	20	ButtonPress	Neutral	True
203.113	1.45	Control	0.9048	n/a	No	2.635	n/a	5.0	NoResponse	0	0.031	202.144	5	20	Feedback	Neutral	True
204.567	2.635	Control	0.9048	n/a	No	2.635	n/a	n/a	NoResponse	0	0.0	n/a	5	20	ISIslide	Neutral	True
207.225	0.25	Control	0.8636	0.0	No	2.775	0.025	n/a	PrematurePress	0	n/a	n/a	5	21	Cue	Neutral	True
207.476	4.1	Control	0.8636	0.0	No	2.775	0.001	n/a	PrematurePress	0	n/a	n/a	5	21	Fixation	Neutral	True
211.572	0.19	Control	0.8636	0.003	No	2.775	-0.003	4.0	PrematurePress	0	0.009	210.581	5	21	Target	Neutral	True
211.581	0.3	Control	0.8636	0.003	No	2.775	-0.003	4.0	PrematurePress	0	0.009	n/a	5	21	ButtonPress	Neutral	True
211.772	0.51	Control	0.8636	n/a	No	2.775	n/a	n/a	PrematurePress	0	n/a	n/a	5	21	Blank	Neutral	True
212.274	1.45	Control	0.8636	n/a	No	2.775	n/a	5.0	PrematurePress	0	0.041	211.315	5	21	Feedback	Neutral	True
213.728	2.775	Control	0.8636	n/a	No	2.775	n/a	n/a	PrematurePress	0	0.0	n/a	5	21	ISIslide	Neutral	True
216.52	0.25	Control	0.8261	0.0	No	2.78	0.02	n/a	NoResponse	0	n/a	n/a	5	22	Cue	Neutral	True
216.77	4.0	Control	0.8261	0.001	No	2.78	0.0	n/a	NoResponse	0	n/a	n/a	5	22	Fixation	Neutral	True
220.766	0.18	Control	0.8261	0.004	No	2.78	-0.004	4.0	NoResponse	0	0.253	220.019	5	22	Target	Neutral	True
220.95	0.52	Control	0.8261	n/a	No	2.78	n/a	n/a	NoResponse	0	n/a	n/a	5	22	Blank	Neutral	True
221.019	0.3	Control	0.8261	0.004	No	2.78	-0.004	4.0	NoResponse	0	0.253	n/a	5	22	ButtonPress	Neutral	True
221.468	1.45	Control	0.8261	n/a	No	2.78	n/a	5.0	NoResponse	0	0.017	220.485	5	22	Feedback	Neutral	True
222.922	2.78	Control	0.8261	n/a	No	2.78	n/a	n/a	NoResponse	0	0.0	n/a	5	22	ISIslide	Neutral	True
225.731	0.25	Control	0.7917000000000001	0.0	No	2.769	0.031	n/a	NoResponse	0	n/a	n/a	5	23	Cue	Neutral	True
225.981	3.9	Control	0.7917000000000001	0.0	No	2.769	0.0	n/a	NoResponse	0	n/a	n/a	5	23	Fixation	Neutral	True
229.893	0.17	Control	0.7917000000000001	0.0	No	2.769	0.012	4.0	NoResponse	0	0.277	229.17	5	23	Target	Neutral	True
230.06	0.53	Control	0.7917000000000001	n/a	No	2.769	n/a	n/a	NoResponse	0	n/a	n/a	5	23	Blank	Neutral	True
230.17	0.3	Control	0.7917000000000001	0.0	No	2.769	0.012	4.0	NoResponse	0	0.277	n/a	5	23	ButtonPress	Neutral	True
230.578	1.45	Control	0.7917000000000001	n/a	No	2.769	n/a	5.0	NoResponse	0	0.028	229.606	5	23	Feedback	Neutral	True
232.033	2.769	Control	0.7917000000000001	n/a	No	2.769	n/a	n/a	NoResponse	0	0.0	n/a	5	23	ISIslide	Neutral	True
234.824	0.25	Win2	0.76	0.001	No	3.126	0.024	n/a	NoResponse	0	n/a	n/a	5	24	Cue	MissedWin	True
235.075	3.95	Win2	0.76	0.0	No	3.126	0.001	n/a	NoResponse	0	n/a	n/a	5	24	Fixation	MissedWin	True
239.02	0.16	Win2	0.76	0.004	No	3.126	-0.004	4.0	NoResponse	0	0.211	238.231	5	24	Target	MissedWin	True
239.187	0.54	Win2	0.76	n/a	No	3.126	n/a	n/a	NoResponse	0	n/a	n/a	5	24	Blank	MissedWin	True
239.231	0.3	Win2	0.76	0.004	No	3.126	-0.004	4.0	NoResponse	0	0.211	n/a	5	24	ButtonPress	MissedWin	True
239.722	1.45	Win2	0.76	n/a	No	3.126	n/a	5.0	NoResponse	0	0.007	238.729	5	24	Feedback	MissedWin	True
241.177	3.126	Win2	0.76	n/a	No	3.126	n/a	n/a	NoResponse	0	0.0	n/a	5	24	ISIslide	MissedWin	True
244.319	0.25	Win2	0.7308	0.001	No	3.081	0.019	n/a	NoResponse	0	n/a	n/a	5	25	Cue	MissedWin	True
244.57	4.0	Win2	0.7308	0.0	No	3.081	0.001	n/a	NoResponse	0	n/a	n/a	5	25	Fixation	MissedWin	True
248.565	0.15	Win2	0.7308	0.004	No	3.081	-0.004	4.0	NoResponse	0	0.207	247.772	5	25	Target	MissedWin	True
248.716	0.55	Win2	0.7308	n/a	No	3.081	n/a	n/a	NoResponse	0	n/a	n/a	5	25	Blank	MissedWin	True
248.772	0.3	Win2	0.7308	0.004	No	3.081	-0.004	4.0	NoResponse	0	0.207	n/a	5	25	ButtonPress	MissedWin	True
249.268	1.45	Win2	0.7308	n/a	No	3.081	n/a	5.0	NoResponse	0	0.022	248.29	5	25	Feedback	MissedWin	True
250.722	3.081	Win2	0.7308	n/a	No	3.081	n/a	n/a	NoResponse	0	0.0	n/a	5	25	ISIslide	MissedWin	True
253.831	0.25	Win2	0.7037	0.0	No	2.919	0.031	n/a	PrematurePress	0	n/a	n/a	5	26	Cue	MissedWin	True
254.082	3.95	Win2	0.7037	0.0	No	2.919	0.001	n/a	PrematurePress	0	n/a	n/a	5	26	Fixation	MissedWin	True
258.027	0.15	Win2	0.7037	0.004	No	2.919	-0.004	4.0	PrematurePress	0	0.06	257.087	5	26	Target	MissedWin	True
258.087	0.3	Win2	0.7037	0.004	No	2.919	-0.004	4.0	PrematurePress	0	0.06	n/a	5	26	ButtonPress	MissedWin	True
258.177	0.55	Win2	0.7037	n/a	No	2.919	n/a	n/a	PrematurePress	0	n/a	n/a	5	26	Blank	MissedWin	True
258.729	1.45	Win2	0.7037	n/a	No	2.919	n/a	5.0	PrematurePress	0	0.024	257.753	5	26	Feedback	MissedWin	True
260.183	2.919	Win2	0.7037	n/a	No	2.919	n/a	n/a	PrematurePress	0	0.0	n/a	5	26	ISIslide	MissedWin	True
263.126	0.25	Lose2	0.6786	0.0	No	2.824	0.026	n/a	NoResponse	-1	n/a	n/a	4	27	Cue	Loss	True
263.376	4.05	Lose2	0.6786	0.0	No	2.824	0.0	n/a	NoResponse	-1	n/a	n/a	4	27	Fixation	Loss	True
267.422	0.15	Lose2	0.6786	0.004	No	2.824	-0.004	4.0	NoResponse	-1	0.208	266.63	4	27	Target	Loss	True
267.572	0.55	Lose2	0.6786	n/a	No	2.824	n/a	n/a	NoResponse	-1	n/a	n/a	4	27	Blank	Loss	True
267.63	0.3	Lose2	0.6786	0.004	No	2.824	-0.004	4.0	NoResponse	-1	0.208	n/a	4	27	ButtonPress	Loss	True
268.124	1.45	Lose2	0.6786	n/a	No	2.824	n/a	5.0	NoResponse	-1	0.043	267.167	4	27	Feedback	Loss	True
269.578	2.824	Lose2	0.6786	n/a	No	2.824	n/a	n/a	NoResponse	-1	0.0	n/a	4	27	ISIslide	Loss	True
272.42	0.25	Control	0.6552	0.0	No	2.83	0.02	n/a	LatePress	0	n/a	n/a	4	28	Cue	Neutral	True
272.671	4.05	Control	0.6552	0.0	No	2.83	0.001	n/a	LatePress	0	n/a	n/a	4	28	Fixation	Neutral	True
276.716	0.15	Control	0.6552	0.004	No	2.83	-0.004	4.0	LatePress	0	0.152	275.868	4	28	Target	Neutral	True
276.867	0.55	Control	0.6552	n/a	No	2.83	n/a	n/a	LatePress	0	n/a	n/a	4	28	Blank	Neutral	True
276.868	0.3	Control	0.6552	0.004	No	2.83	-0.004	4.0	LatePress	0	0.152	n/a	4	28	ButtonPress	Neutral	True
277.418	1.45	Control	0.6552	n/a	No	2.83	n/a	5.0	LatePress	0	0.017	276.435	4	28	Feedback	Neutral	True
278.873	2.83	Control	0.6552	n/a	No	2.83	n/a	n/a	LatePress	0	0.0	n/a	4	28	ISIslide	Neutral	True
281.731	0.25	Lose2	0.6667000000000001	0.0	Yes	2.819	0.031	n/a	GoodResponse	0	n/a	n/a	4	29	Cue	AvoidedLoss	True
281.982	3.95	Lose2	0.6667000000000001	0.0	Yes	2.819	0.001	n/a	GoodResponse	0	n/a	n/a	4	29	Fixation	AvoidedLoss	True
285.927	0.15	Lose2	0.6667000000000001	0.004	Yes	2.819	-0.004	4.0	GoodResponse	0	0.146	285.073	4	29	Target	AvoidedLoss	True
286.073	0.3	Lose2	0.6667000000000001	0.004	Yes	2.819	-0.004	4.0	GoodResponse	0	0.146	n/a	4	29	ButtonPress	AvoidedLoss	True
286.077	0.55	Lose2	0.6667000000000001	n/a	Yes	2.819	n/a	n/a	GoodResponse	0	n/a	n/a	4	29	Blank	AvoidedLoss	True
286.629	1.45	Lose2	0.6667000000000001	n/a	Yes	2.819	n/a	5.0	GoodResponse	0	0.026	285.655	4	29	Feedback	AvoidedLoss	True
288.083	2.819	Lose2	0.6667000000000001	n/a	Yes	2.819	n/a	n/a	GoodResponse	0	0.0	n/a	4	29	ISIslide	AvoidedLoss	True
290.925	0.25	Win2	0.6452	0.0	No	2.775	0.025	n/a	NoResponse	0	n/a	n/a	4	30	Cue	MissedWin	True
291.176	3.9	Win2	0.6452	0.0	No	2.775	0.001	n/a	NoResponse	0	n/a	n/a	4	30	Fixation	MissedWin	True
295.071	0.15	Win2	0.6452	0.004	No	2.775	-0.004	4.0	NoResponse	0	0.215	294.286	4	30	Target	MissedWin	True
295.221	0.55	Win2	0.6452	n/a	No	2.775	n/a	n/a	NoResponse	0	n/a	n/a	4	30	Blank	MissedWin	True
295.286	0.3	Win2	0.6452	0.004	No	2.775	-0.004	4.0	NoResponse	0	0.215	n/a	4	30	ButtonPress	MissedWin	True
295.773	1.45	Win2	0.6452	n/a	No	2.775	n/a	5.0	NoResponse	0	0.007	294.78	4	30	Feedback	MissedWin	True
297.227	2.775	Win2	0.6452	n/a	No	2.775	n/a	n/a	NoResponse	0	0.0	n/a	4	30	ISIslide	MissedWin	True
300.019	0.25	Lose2	0.625	0.0	No	2.831	0.019	n/a	NoResponse	-1	n/a	n/a	3	31	Cue	Loss	True
300.27	4.05	Lose2	0.625	0.0	No	2.831	0.001	n/a	NoResponse	-1	n/a	n/a	3	31	Fixation	Loss	True
304.315	0.16	Lose2	0.625	0.004	No	2.831	-0.004	4.0	NoResponse	-1	0.222	303.537	3	31	Target	Loss	True
304.482	0.54	Lose2	0.625	n/a	No	2.831	n/a	n/a	NoResponse	-1	n/a	n/a	3	31	Blank	Loss	True
304.537	0.3	Lose2	0.625	0.004	No	2.831	-0.004	4.0	NoResponse	-1	0.222	n/a	3	31	ButtonPress	Loss	True
305.017	1.45	Lose2	0.625	n/a	No	2.831	n/a	5.0	NoResponse	-1	0.027	304.044	3	31	Feedback	Loss	True
306.472	2.831	Lose2	0.625	n/a	No	2.831	n/a	n/a	NoResponse	-1	0.0	n/a	3	31	ISIslide	Loss	True
309.33	0.25	Lose2	0.6061	0.0	No	2.62	0.03	n/a	NoResponse	-1	n/a	n/a	2	32	Cue	Loss	True
309.581	4.15	Lose2	0.6061	0.0	No	2.62	0.001	n/a	NoResponse	-1	n/a	n/a	2	32	Fixation	Loss	True
313.727	0.17	Lose2	0.6061	0.003	No	2.62	-0.003	4.0	NoResponse	-1	0.202	312.929	2	32	Target	Loss	True
313.911	0.53	Lose2	0.6061	n/a	No	2.62	n/a	n/a	NoResponse	-1	n/a	n/a	2	32	Blank	Loss	True
313.929	0.3	Lose2	0.6061	0.003	No	2.62	-0.003	4.0	NoResponse	-1	0.202	n/a	2	32	ButtonPress	Loss	True
314.429	1.45	Lose2	0.6061	n/a	No	2.62	n/a	5.0	NoResponse	-1	0.03	313.459	2	32	Feedback	Loss	True
315.883	2.62	Lose2	0.6061	n/a	No	2.62	n/a	n/a	NoResponse	-1	0.0	n/a	2	32	ISIslide	Loss	True
318.524	0.25	Win2	0.5882000000000001	0.0	No	2.676	0.024	n/a	NoResponse	0	n/a	n/a	2	33	Cue	MissedWin	True
318.775	4.0	Win2	0.5882000000000001	0.0	No	2.676	0.001	n/a	NoResponse	0	n/a	n/a	2	33	Fixation	MissedWin	True
322.77	0.18	Win2	0.5882000000000001	0.004	No	2.676	-0.004	4.0	NoResponse	0	0.249	322.019	2	33	Target	MissedWin	True
322.954	0.52	Win2	0.5882000000000001	n/a	No	2.676	n/a	n/a	NoResponse	0	n/a	n/a	2	33	Blank	MissedWin	True
323.019	0.3	Win2	0.5882000000000001	0.004	No	2.676	-0.004	4.0	NoResponse	0	0.249	n/a	2	33	ButtonPress	MissedWin	True
323.472	1.45	Win2	0.5882000000000001	n/a	No	2.676	n/a	5.0	NoResponse	0	0.012	322.484	2	33	Feedback	MissedWin	True
324.927	2.676	Win2	0.5882000000000001	n/a	No	2.676	n/a	n/a	NoResponse	0	0.0	n/a	2	33	ISIslide	MissedWin	True
327.618	0.25	Lose2	0.5714	0.0	No	2.632	0.018	n/a	LatePress	-1	n/a	n/a	1	34	Cue	Loss	True
327.869	4.05	Lose2	0.5714	0.0	No	2.632	0.001	n/a	LatePress	-1	n/a	n/a	1	34	Fixation	Loss	True
331.914	0.19	Lose2	0.5714	0.004	No	2.632	-0.004	4.0	LatePress	-1	0.19	331.104	1	34	Target	Loss	True
332.104	0.3	Lose2	0.5714	0.004	No	2.632	-0.004	4.0	LatePress	-1	0.19	n/a	1	34	ButtonPress	Loss	True
332.115	0.51	Lose2	0.5714	n/a	No	2.632	n/a	n/a	LatePress	-1	n/a	n/a	1	34	Blank	Loss	True
332.616	1.45	Lose2	0.5714	n/a	No	2.632	n/a	5.0	LatePress	-1	0.039	331.655	1	34	Feedback	Loss	True
334.071	2.632	Lose2	0.5714	n/a	No	2.632	n/a	n/a	LatePress	-1	0.0	n/a	1	34	ISIslide	Loss	True
336.729	0.25	Lose2	0.5832999999999999	0.0	Yes	2.671	0.029	n/a	GoodResponse	0	n/a	n/a	1	35	Cue	AvoidedLoss	True
336.979	4.0	Lose2	0.5832999999999999	0.001	Yes	2.671	0.0	n/a	GoodResponse	0	n/a	n/a	1	35	Fixation	AvoidedLoss	True
340.975	0.2	Lose2	0.5832999999999999	0.004	Yes	2.671	-0.004	4.0	GoodResponse	0	0.199	340.174	1	35	Target	AvoidedLoss	True
341.174	0.3	Lose2	0.5832999999999999	0.004	Yes	2.671	-0.004	4.0	GoodResponse	0	0.199	n/a	1	35	ButtonPress	AvoidedLoss	True
341.175	0.5	Lose2	0.5832999999999999	n/a	Yes	2.671	n/a	n/a	GoodResponse	0	n/a	n/a	1	35	Blank	AvoidedLoss	True
341.677	1.45	Lose2	0.5832999999999999	n/a	Yes	2.671	n/a	5.0	GoodResponse	0	0.001	340.678	1	35	Feedback	AvoidedLoss	True
343.131	2.671	Lose2	0.5832999999999999	n/a	Yes	2.671	n/a	n/a	GoodResponse	0	0.0	n/a	1	35	ISIslide	AvoidedLoss	True
345.823	0.25	Control	0.5676	0.0	No	2.677	0.023	n/a	NoResponse	0	n/a	n/a	1	36	Cue	Neutral	True
346.073	4.0	Control	0.5676	0.0	No	2.677	0.0	n/a	NoResponse	0	n/a	n/a	1	36	Fixation	Neutral	True
350.069	0.21	Control	0.5676	0.004	No	2.677	-0.004	4.0	NoResponse	0	0.23	349.299	1	36	Target	Neutral	True
350.286	0.49	Control	0.5676	n/a	No	2.677	n/a	n/a	NoResponse	0	n/a	n/a	1	36	Blank	Neutral	True
350.299	0.3	Control	0.5676	0.004	No	2.677	-0.004	4.0	NoResponse	0	0.23	n/a	1	36	ButtonPress	Neutral	True
350.771	1.45	Control	0.5676	n/a	No	2.677	n/a	5.0	NoResponse	0	0.029	349.8	1	36	Feedback	Neutral	True
352.225	2.677	Control	0.5676	n/a	No	2.677	n/a	n/a	NoResponse	0	0.0	n/a	1	36	ISIslide	Neutral	True
354.916	0.25	Win2	0.5789	0.0	Yes	2.884	0.016	n/a	GoodResponse	1	n/a	n/a	2	37	Cue	Win	True
355.167	4.0	Win2	0.5789	0.0	Yes	2.884	0.001	n/a	GoodResponse	1	n/a	n/a	2	37	Fixation	Win	True
359.162	0.22	Win2	0.5789	0.004	Yes	2.884	-0.004	4.0	GoodResponse	1	0.215	358.377	2	37	Target	Win	True
359.377	0.3	Win2	0.5789	0.004	Yes	2.884	-0.004	4.0	GoodResponse	1	0.215	n/a	2	37	ButtonPress	Win	True
359.396	0.48	Win2	0.5789	n/a	Yes	2.884	n/a	n/a	GoodResponse	1	n/a	n/a	2	37	Blank	Win	True
359.864	1.45	Win2	0.5789	n/a	Yes	2.884	n/a	5.0	GoodResponse	1	0.009	358.873	2	37	Feedback	Win	True
361.319	2.884	Win2	0.5789	n/a	Yes	2.884	n/a	n/a	GoodResponse	1	0.0	n/a	2	37	ISIslide	Win	True
364.228	0.25	Lose2	0.5897	0.0	Yes	2.822	0.028	n/a	GoodResponse	0	n/a	n/a	2	38	Cue	AvoidedLoss	True
364.478	3.95	Lose2	0.5897	0.0	Yes	2.822	0.0	n/a	GoodResponse	0	n/a	n/a	2	38	Fixation	AvoidedLoss	True
368.44	0.23	Lose2	0.5897	0.0	Yes	2.822	0.012	4.0	GoodResponse	0	0.205	367.645	2	38	Target	AvoidedLoss	True
368.645	0.3	Lose2	0.5897	0.0	Yes	2.822	0.012	4.0	GoodResponse	0	0.205	n/a	2	38	ButtonPress	AvoidedLoss	True
368.657	0.47	Lose2	0.5897	n/a	Yes	2.822	n/a	n/a	GoodResponse	0	n/a	n/a	2	38	Blank	AvoidedLoss	True
369.125	1.45	Lose2	0.5897	n/a	Yes	2.822	n/a	5.0	GoodResponse	0	0.017	368.142	2	38	Feedback	AvoidedLoss	True
370.58	2.822	Lose2	0.5897	n/a	Yes	2.822	n/a	n/a	GoodResponse	0	0.0	n/a	2	38	ISIslide	AvoidedLoss	True
373.422	0.25	Win2	0.575	0.0	No	2.978	0.022	n/a	LatePress	0	n/a	n/a	2	39	Cue	MissedWin	True
373.672	4.1	Win2	0.575	0.0	No	2.978	0.0	n/a	LatePress	0	n/a	n/a	2	39	Fixation	MissedWin	True
377.768	0.24	Win2	0.575	0.004	No	2.978	-0.004	4.0	LatePress	0	0.245	377.013	2	39	Target	MissedWin	True
378.013	0.3	Win2	0.575	0.004	No	2.978	-0.004	4.0	LatePress	0	0.245	n/a	2	39	ButtonPress	MissedWin	True
378.019	0.46	Win2	0.575	n/a	No	2.978	n/a	n/a	LatePress	0	n/a	n/a	2	39	Blank	MissedWin	True
378.47	1.45	Win2	0.575	n/a	No	2.978	n/a	5.0	LatePress	0	0.037	377.507	2	39	Feedback	MissedWin	True
379.924	2.978	Win2	0.575	n/a	No	2.978	n/a	n/a	LatePress	0	0.0	n/a	2	39	ISIslide	MissedWin	True
382.917	0.25	Win2	0.5854	0.0	Yes	2.733	0.017	n/a	GoodResponse	1	n/a	n/a	3	40	Cue	Win	True
383.167	3.95	Win2	0.5854	0.001	Yes	2.733	0.0	n/a	GoodResponse	1	n/a	n/a	3	40	Fixation	Win	True
387.113	0.25	Win2	0.5854	0.004	Yes	2.733	-0.004	4.0	GoodResponse	1	0.197	386.31	3	40	Target	Win	True
387.31	0.3	Win2	0.5854	0.004	Yes	2.733	-0.004	4.0	GoodResponse	1	0.197	n/a	3	40	ButtonPress	Win	True
387.363	0.45	Win2	0.5854	n/a	Yes	2.733	n/a	n/a	GoodResponse	1	n/a	n/a	3	40	Blank	Win	True
387.815	1.45	Win2	0.5854	n/a	Yes	2.733	n/a	5.0	GoodResponse	1	0.009	386.824	3	40	Feedback	Win	True
389.269	2.733	Win2	0.5854	n/a	Yes	2.733	n/a	n/a	GoodResponse	1	0.0	n/a	3	40	ISIslide	Win	True
392.027	0.25	Win2	0.5952000000000001	0.0	Yes	2.773	0.027	n/a	GoodResponse	1	n/a	n/a	4	41	Cue	Win	True
392.278	3.9	Win2	0.5952000000000001	0.0	Yes	2.773	0.001	n/a	GoodResponse	1	n/a	n/a	4	41	Fixation	Win	True
396.173	0.26	Win2	0.5952000000000001	0.004	Yes	2.773	-0.004	4.0	GoodResponse	1	0.228	395.401	4	41	Target	Win	True
396.401	0.3	Win2	0.5952000000000001	0.004	Yes	2.773	-0.004	4.0	GoodResponse	1	0.228	n/a	4	41	ButtonPress	Win	True
396.44	0.44	Win2	0.5952000000000001	n/a	Yes	2.773	n/a	n/a	GoodResponse	1	n/a	n/a	4	41	Blank	Win	True
396.875	1.45	Win2	0.5952000000000001	n/a	Yes	2.773	n/a	5.0	GoodResponse	1	0.022	395.897	4	41	Feedback	Win	True
398.329	2.773	Win2	0.5952000000000001	n/a	Yes	2.773	n/a	n/a	GoodResponse	1	0.0	n/a	4	41	ISIslide	Win	True
401.121	0.25	Control	0.6047	0.0	Yes	2.929	0.021	n/a	GoodResponse	0	n/a	n/a	4	42	Cue	Neutral	True
401.372	3.85	Control	0.6047	0.0	Yes	2.929	0.001	n/a	GoodResponse	0	n/a	n/a	4	42	Fixation	Neutral	True
405.217	0.27	Control	0.6047	0.004	Yes	2.929	-0.004	4.0	GoodResponse	0	0.207	404.424	4	42	Target	Neutral	True
405.424	0.3	Control	0.6047	0.004	Yes	2.929	-0.004	4.0	GoodResponse	0	0.207	n/a	4	42	ButtonPress	Neutral	True
405.501	0.43	Control	0.6047	n/a	Yes	2.929	n/a	n/a	GoodResponse	0	n/a	n/a	4	42	Blank	Neutral	True
405.919	1.45	Control	0.6047	n/a	Yes	2.929	n/a	5.0	GoodResponse	0	0.007	404.926	4	42	Feedback	Neutral	True
407.373	2.929	Control	0.6047	n/a	Yes	2.929	n/a	n/a	GoodResponse	0	0.0	n/a	4	42	ISIslide	Neutral	True
410.332	0.25	Win2	0.6136	0.0	Yes	3.168	0.032	n/a	GoodResponse	1	n/a	n/a	5	43	Cue	Win	True
410.583	4.0	Win2	0.6136	0.0	Yes	3.168	0.001	n/a	GoodResponse	1	n/a	n/a	5	43	Fixation	Win	True
414.578	0.28	Win2	0.6136	0.004	Yes	3.168	-0.004	4.0	GoodResponse	1	0.194	413.772	5	43	Target	Win	True
414.772	0.3	Win2	0.6136	0.004	Yes	3.168	-0.004	4.0	GoodResponse	1	0.194	n/a	5	43	ButtonPress	Win	True
414.862	0.42	Win2	0.6136	n/a	Yes	3.168	n/a	n/a	GoodResponse	1	n/a	n/a	5	43	Blank	Win	True
415.28	1.45	Win2	0.6136	n/a	Yes	3.168	n/a	5.0	GoodResponse	1	0.007	414.287	5	43	Feedback	Win	True
416.734	3.168	Win2	0.6136	n/a	Yes	3.168	n/a	n/a	GoodResponse	1	0.0	n/a	5	43	ISIslide	Win	True
419.927	0.25	Win2	0.6222	0.0	Yes	2.973	0.027	n/a	GoodResponse	1	n/a	n/a	6	44	Cue	Win	True
420.178	4.0	Win2	0.6222	0.0	Yes	2.973	0.001	n/a	GoodResponse	1	n/a	n/a	6	44	Fixation	Win	True
424.173	0.29	Win2	0.6222	0.004	Yes	2.973	-0.004	4.0	GoodResponse	1	0.222	423.395	6	44	Target	Win	True
424.395	0.3	Win2	0.6222	0.004	Yes	2.973	-0.004	4.0	GoodResponse	1	0.222	n/a	6	44	ButtonPress	Win	True
424.474	0.41	Win2	0.6222	n/a	Yes	2.973	n/a	n/a	GoodResponse	1	n/a	n/a	6	44	Blank	Win	True
424.875	1.45	Win2	0.6222	n/a	Yes	2.973	n/a	5.0	GoodResponse	1	0.022	423.897	6	44	Feedback	Win	True
426.33	2.973	Win2	0.6222	n/a	Yes	2.973	n/a	n/a	GoodResponse	1	0.0	n/a	6	44	ISIslide	Win	True
429.322	0.25	Control	0.6304	0.0	Yes	2.878	0.022	n/a	GoodResponse	0	n/a	n/a	6	45	Cue	Neutral	True
429.573	4.1	Control	0.6304	0.0	Yes	2.878	0.001	n/a	GoodResponse	0	n/a	n/a	6	45	Fixation	Neutral	True
433.668	0.3	Control	0.6304	0.004	Yes	2.878	-0.004	4.0	GoodResponse	0	0.232	432.9	6	45	Target	Neutral	True
433.9	0.3	Control	0.6304	0.004	Yes	2.878	-0.004	4.0	GoodResponse	0	0.232	n/a	6	45	ButtonPress	Neutral	True
433.969	0.4	Control	0.6304	n/a	Yes	2.878	n/a	n/a	GoodResponse	0	n/a	n/a	6	45	Blank	Neutral	True
434.37	1.45	Control	0.6304	n/a	Yes	2.878	n/a	5.0	GoodResponse	0	0.039	433.409	6	45	Feedback	Neutral	True
435.825	2.878	Control	0.6304	n/a	Yes	2.878	n/a	n/a	GoodResponse	0	0.0	n/a	6	45	ISIslide	Neutral	True
438.717	0.25	Lose2	0.6383	0.0	Yes	3.383	0.017	n/a	GoodResponse	0	n/a	n/a	6	46	Cue	AvoidedLoss	True
438.967	4.0	Lose2	0.6383	0.0	Yes	3.383	0.0	n/a	GoodResponse	0	n/a	n/a	6	46	Fixation	AvoidedLoss	True
442.963	0.31	Lose2	0.6383	0.004	Yes	3.383	-0.004	4.0	GoodResponse	0	0.211	442.174	6	46	Target	AvoidedLoss	True
443.174	0.3	Lose2	0.6383	0.004	Yes	3.383	-0.004	4.0	GoodResponse	0	0.211	n/a	6	46	ButtonPress	AvoidedLoss	True
443.28	0.39	Lose2	0.6383	n/a	Yes	3.383	n/a	n/a	GoodResponse	0	n/a	n/a	6	46	Blank	AvoidedLoss	True
443.665	1.45	Lose2	0.6383	n/a	Yes	3.383	n/a	5.0	GoodResponse	0	0.012	442.677	6	46	Feedback	AvoidedLoss	True
445.119	3.383	Lose2	0.6383	n/a	Yes	3.383	n/a	n/a	GoodResponse	0	0.0	n/a	6	46	ISIslide	AvoidedLoss	True
448.529	0.25	Lose2	0.6457999999999999	0.0	Yes	2.671	0.029	n/a	GoodResponse	0	n/a	n/a	6	47	Cue	AvoidedLoss	True
448.78	4.0	Lose2	0.6457999999999999	0.0	Yes	2.671	0.001	n/a	GoodResponse	0	n/a	n/a	6	47	Fixation	AvoidedLoss	True
452.775	0.32	Lose2	0.6457999999999999	0.004	Yes	2.671	-0.004	4.0	GoodResponse	0	0.222	451.997	6	47	Target	AvoidedLoss	True
452.997	0.3	Lose2	0.6457999999999999	0.004	Yes	2.671	-0.004	4.0	GoodResponse	0	0.222	n/a	6	47	ButtonPress	AvoidedLoss	True
453.11	0.38	Lose2	0.6457999999999999	n/a	Yes	2.671	n/a	n/a	GoodResponse	0	n/a	n/a	6	47	Blank	AvoidedLoss	True
453.477	1.45	Lose2	0.6457999999999999	n/a	Yes	2.671	n/a	5.0	GoodResponse	0	0.007	452.484	6	47	Feedback	AvoidedLoss	True
454.932	2.671	Lose2	0.6457999999999999	n/a	Yes	2.671	n/a	n/a	GoodResponse	0	0.0	n/a	6	47	ISIslide	AvoidedLoss	True
457.623	0.25	Lose2	0.6531	0.0	Yes	3.027	0.023	n/a	GoodResponse	0	n/a	n/a	6	48	Cue	AvoidedLoss	True
457.874	3.95	Lose2	0.6531	0.0	Yes	3.027	0.001	n/a	GoodResponse	0	n/a	n/a	6	48	Fixation	AvoidedLoss	True
461.819	0.33	Lose2	0.6531	0.004	Yes	3.027	-0.004	4.0	GoodResponse	0	0.231	461.05	6	48	Target	AvoidedLoss	True
462.05	0.3	Lose2	0.6531	0.004	Yes	3.027	-0.004	4.0	GoodResponse	0	0.231	n/a	6	48	ButtonPress	AvoidedLoss	True
462.153	0.37	Lose2	0.6531	n/a	Yes	3.027	n/a	n/a	GoodResponse	0	n/a	n/a	6	48	Blank	AvoidedLoss	True
462.521	1.45	Lose2	0.6531	n/a	Yes	3.027	n/a	5.0	GoodResponse	0	0.034	461.555	6	48	Feedback	AvoidedLoss	True
463.975	3.027	Lose2	0.6531	n/a	Yes	3.027	n/a	n/a	GoodResponse	0	0.0	n/a	6	48	ISIslide	AvoidedLoss	True
467.018	0.25	Control	0.66	0.0	Yes	2.882	0.018	n/a	GoodResponse	0	n/a	n/a	6	49	Cue	Neutral	True
467.269	4.0	Control	0.66	0.0	Yes	2.882	0.001	n/a	GoodResponse	0	n/a	n/a	6	49	Fixation	Neutral	True
471.264	0.34	Control	0.66	0.004	Yes	2.882	-0.004	4.0	GoodResponse	0	0.214	470.478	6	49	Target	Neutral	True
471.478	0.3	Control	0.66	0.004	Yes	2.882	-0.004	4.0	GoodResponse	0	0.214	n/a	6	49	ButtonPress	Neutral	True
471.615	0.36	Control	0.66	n/a	Yes	2.882	n/a	n/a	GoodResponse	0	n/a	n/a	6	49	Blank	Neutral	True
471.966	1.45	Control	0.66	n/a	Yes	2.882	n/a	5.0	GoodResponse	0	0.007	470.973	6	49	Feedback	Neutral	True
473.42	2.882	Control	0.66	n/a	Yes	2.882	n/a	n/a	GoodResponse	0	0.0	n/a	6	49	ISIslide	Neutral	True
476.329	0.25	Control	0.6667000000000001	0.0	Yes	2.771	0.029	n/a	GoodResponse	0	n/a	n/a	6	50	Cue	Neutral	True
476.58	4.0	Control	0.6667000000000001	0.0	Yes	2.771	0.001	n/a	GoodResponse	0	n/a	n/a	6	50	Fixation	Neutral	True
480.575	0.34	Control	0.6667000000000001	0.004	Yes	2.771	-0.004	4.0	GoodResponse	0	0.201	479.776	6	50	Target	Neutral	True
480.776	0.3	Control	0.6667000000000001	0.004	Yes	2.771	-0.004	4.0	GoodResponse	0	0.201	n/a	6	50	ButtonPress	Neutral	True
480.926	0.36	Control	0.6667000000000001	n/a	Yes	2.771	n/a	n/a	GoodResponse	0	n/a	n/a	6	50	Blank	Neutral	True
481.277	1.45	Control	0.6667000000000001	n/a	Yes	2.771	n/a	5.0	GoodResponse	0	0.01	480.287	6	50	Feedback	Neutral	True
482.731	2.771	Control	0.6667000000000001	n/a	Yes	2.771	n/a	n/a	GoodResponse	0	0.0	n/a	6	50	ISIslide	Neutral	True
485.523	0.25	Control	0.6731	0.0	Yes	2.727	0.023	n/a	GoodResponse	0	n/a	n/a	6	51	Cue	Neutral	True
485.774	3.95	Control	0.6731	0.0	Yes	2.727	0.001	n/a	GoodResponse	0	n/a	n/a	6	51	Fixation	Neutral	True
489.719	0.33	Control	0.6731	0.004	Yes	2.727	-0.004	4.0	GoodResponse	0	0.197	488.916	6	51	Target	Neutral	True
489.916	0.3	Control	0.6731	0.004	Yes	2.727	-0.004	4.0	GoodResponse	0	0.197	n/a	6	51	ButtonPress	Neutral	True
490.053	0.37	Control	0.6731	n/a	Yes	2.727	n/a	n/a	GoodResponse	0	n/a	n/a	6	51	Blank	Neutral	True
490.421	1.45	Control	0.6731	n/a	Yes	2.727	n/a	5.0	GoodResponse	0	0.036	489.457	6	51	Feedback	Neutral	True
491.875	2.727	Control	0.6731	n/a	Yes	2.727	n/a	n/a	GoodResponse	0	0.0	n/a	6	51	ISIslide	Neutral	True
494.617	0.25	Control	0.6792	0.0	Yes	2.633	0.017	n/a	GoodResponse	0	n/a	n/a	6	52	Cue	Neutral	True
494.868	4.05	Control	0.6792	0.0	Yes	2.633	0.001	n/a	GoodResponse	0	n/a	n/a	6	52	Fixation	Neutral	True
498.913	0.32	Control	0.6792	0.004	Yes	2.633	-0.004	4.0	GoodResponse	0	0.254	498.167	6	52	Target	Neutral	True
499.167	0.3	Control	0.6792	0.004	Yes	2.633	-0.004	4.0	GoodResponse	0	0.254	n/a	6	52	ButtonPress	Neutral	True
499.247	0.38	Control	0.6792	n/a	Yes	2.633	n/a	n/a	GoodResponse	0	n/a	n/a	6	52	Blank	Neutral	True
499.615	1.45	Control	0.6792	n/a	Yes	2.633	n/a	5.0	GoodResponse	0	0.012	498.627	6	52	Feedback	Neutral	True
501.07	2.633	Control	0.6792	n/a	Yes	2.633	n/a	n/a	GoodResponse	0	0.0	n/a	6	52	ISIslide	Neutral	True
503.727	0.25	Win2	0.6851999999999999	0.001	Yes	2.923	0.027	n/a	GoodResponse	1	n/a	n/a	7	53	Cue	Win	True
503.978	4.05	Win2	0.6851999999999999	0.0	Yes	2.923	0.001	n/a	GoodResponse	1	n/a	n/a	7	53	Fixation	Win	True
508.024	0.31	Win2	0.6851999999999999	0.003	Yes	2.923	-0.003	4.0	GoodResponse	1	0.182	507.206	7	53	Target	Win	True
508.206	0.3	Win2	0.6851999999999999	0.003	Yes	2.923	-0.003	4.0	GoodResponse	1	0.182	n/a	7	53	ButtonPress	Win	True
508.341	0.39	Win2	0.6851999999999999	n/a	Yes	2.923	n/a	n/a	GoodResponse	1	n/a	n/a	7	53	Blank	Win	True
508.726	1.45	Win2	0.6851999999999999	n/a	Yes	2.923	n/a	5.0	GoodResponse	1	0.023	507.749	7	53	Feedback	Win	True
510.18	2.923	Win2	0.6851999999999999	n/a	Yes	2.923	n/a	n/a	GoodResponse	1	0.0	n/a	7	53	ISIslide	Win	True
513.122	0.25	Win2	0.6909000000000001	0.0	Yes	2.728	0.022	n/a	GoodResponse	1	n/a	n/a	8	54	Cue	Win	True
513.373	3.95	Win2	0.6909000000000001	0.0	Yes	2.728	0.001	n/a	GoodResponse	1	n/a	n/a	8	54	Fixation	Win	True
517.318	0.3	Win2	0.6909000000000001	0.004	Yes	2.728	-0.004	4.0	GoodResponse	1	0.213	516.531	8	54	Target	Win	True
517.531	0.3	Win2	0.6909000000000001	0.004	Yes	2.728	-0.004	4.0	GoodResponse	1	0.213	n/a	8	54	ButtonPress	Win	True
517.619	0.4	Win2	0.6909000000000001	n/a	Yes	2.728	n/a	n/a	GoodResponse	1	n/a	n/a	8	54	Blank	Win	True
518.02	1.45	Win2	0.6909000000000001	n/a	Yes	2.728	n/a	5.0	GoodResponse	1	0.047	517.067	8	54	Feedback	Win	True
519.474	2.728	Win2	0.6909000000000001	n/a	Yes	2.728	n/a	n/a	GoodResponse	1	0.0	n/a	8	54	ISIslide	Win	True
522.216	0.25	Control	0.6964	0.0	Yes	3.034	0.016	n/a	GoodResponse	0	n/a	n/a	8	55	Cue	Neutral	True
522.467	3.95	Control	0.6964	0.0	Yes	3.034	0.001	n/a	GoodResponse	0	n/a	n/a	8	55	Fixation	Neutral	True
526.412	0.29	Control	0.6964	0.004	Yes	3.034	-0.004	4.0	GoodResponse	0	0.279	525.691	8	55	Target	Neutral	True
526.691	0.3	Control	0.6964	0.004	Yes	3.034	-0.004	4.0	GoodResponse	0	0.279	n/a	8	55	ButtonPress	Neutral	True
526.713	0.41	Control	0.6964	n/a	Yes	3.034	n/a	n/a	GoodResponse	0	n/a	n/a	8	55	Blank	Neutral	True
527.114	1.45	Control	0.6964	n/a	Yes	3.034	n/a	5.0	GoodResponse	0	0.025	526.139	8	55	Feedback	Neutral	True
528.568	3.034	Control	0.6964	n/a	Yes	3.034	n/a	n/a	GoodResponse	0	0.0	n/a	8	55	ISIslide	Neutral	True
531.627	0.25	Control	0.7018000000000001	0.001	Yes	2.823	0.027	n/a	GoodResponse	0	n/a	n/a	8	56	Cue	Neutral	True
531.878	3.95	Control	0.7018000000000001	0.0	Yes	2.823	0.001	n/a	GoodResponse	0	n/a	n/a	8	56	Fixation	Neutral	True
535.823	0.28	Control	0.7018000000000001	0.004	Yes	2.823	-0.004	4.0	GoodResponse	0	0.199	535.022	8	56	Target	Neutral	True
536.022	0.3	Control	0.7018000000000001	0.004	Yes	2.823	-0.004	4.0	GoodResponse	0	0.199	n/a	8	56	ButtonPress	Neutral	True
536.108	0.42	Control	0.7018000000000001	n/a	Yes	2.823	n/a	n/a	GoodResponse	0	n/a	n/a	8	56	Blank	Neutral	True
536.525	1.45	Control	0.7018000000000001	n/a	Yes	2.823	n/a	5.0	GoodResponse	0	0.029	535.554	8	56	Feedback	Neutral	True
537.98	2.823	Control	0.7018000000000001	n/a	Yes	2.823	n/a	n/a	GoodResponse	0	0.0	n/a	8	56	ISIslide	Neutral	True
540.822	0.25	Control	0.7069	0.0	Yes	3.478	0.022	n/a	GoodResponse	0	n/a	n/a	8	57	Cue	Neutral	True
541.072	4.0	Control	0.7069	0.0	Yes	3.478	0.0	n/a	GoodResponse	0	n/a	n/a	8	57	Fixation	Neutral	True
545.068	0.27	Control	0.7069	0.004	Yes	3.478	-0.004	4.0	GoodResponse	0	0.202	544.27	8	57	Target	Neutral	True
545.27	0.3	Control	0.7069	0.004	Yes	3.478	-0.004	4.0	GoodResponse	0	0.202	n/a	8	57	ButtonPress	Neutral	True
545.352	0.43	Control	0.7069	n/a	Yes	3.478	n/a	n/a	GoodResponse	0	n/a	n/a	8	57	Blank	Neutral	True
545.77	1.45	Control	0.7069	n/a	Yes	3.478	n/a	5.0	GoodResponse	0	0.007	544.777	8	57	Feedback	Neutral	True
547.224	3.478	Control	0.7069	n/a	Yes	3.478	n/a	n/a	GoodResponse	0	0.0	n/a	8	57	ISIslide	Neutral	True
550.718	0.25	Win2	0.7119	0.0	Yes	2.732	0.018	n/a	GoodResponse	1	n/a	n/a	9	58	Cue	Win	True
550.969	4.05	Win2	0.7119	0.0	Yes	2.732	0.001	n/a	GoodResponse	1	n/a	n/a	9	58	Fixation	Win	True
555.014	0.26	Win2	0.7119	0.004	Yes	2.732	-0.004	4.0	GoodResponse	1	0.181	554.195	9	58	Target	Win	True
555.195	0.3	Win2	0.7119	0.004	Yes	2.732	-0.004	4.0	GoodResponse	1	0.181	n/a	9	58	ButtonPress	Win	True
555.281	0.44	Win2	0.7119	n/a	Yes	2.732	n/a	n/a	GoodResponse	1	n/a	n/a	9	58	Blank	Win	True
555.716	1.45	Win2	0.7119	n/a	Yes	2.732	n/a	5.0	GoodResponse	1	0.009	554.725	9	58	Feedback	Win	True
557.17	2.732	Win2	0.7119	n/a	Yes	2.732	n/a	n/a	GoodResponse	1	0.0	n/a	9	58	ISIslide	Win	True
559.929	0.25	Lose2	0.7167	0.0	Yes	2.671	0.029	n/a	GoodResponse	0	n/a	n/a	9	59	Cue	AvoidedLoss	True
560.179	4.0	Lose2	0.7167	0.0	Yes	2.671	0.0	n/a	GoodResponse	0	n/a	n/a	9	59	Fixation	AvoidedLoss	True
564.175	0.25	Lose2	0.7167	0.004	Yes	2.671	-0.004	4.0	GoodResponse	0	0.2	563.375	9	59	Target	AvoidedLoss	True
564.375	0.3	Lose2	0.7167	0.004	Yes	2.671	-0.004	4.0	GoodResponse	0	0.2	n/a	9	59	ButtonPress	AvoidedLoss	True
564.425	0.45	Lose2	0.7167	n/a	Yes	2.671	n/a	n/a	GoodResponse	0	n/a	n/a	9	59	Blank	AvoidedLoss	True
564.877	1.45	Lose2	0.7167	n/a	Yes	2.671	n/a	5.0	GoodResponse	0	0.017	563.894	9	59	Feedback	AvoidedLoss	True
566.331	2.671	Lose2	0.7167	n/a	Yes	2.671	n/a	n/a	GoodResponse	0	0.0	n/a	9	59	ISIslide	AvoidedLoss	True
569.022	0.25	Control	0.7212999999999999	0.001	Yes	2.678	0.022	n/a	GoodResponse	0	n/a	n/a	9	60	Cue	Neutral	True
569.273	4.0	Control	0.7212999999999999	0.0	Yes	2.678	0.001	n/a	GoodResponse	0	n/a	n/a	9	60	Fixation	Neutral	True
573.268	0.24	Control	0.7212999999999999	0.004	Yes	2.678	-0.004	4.0	GoodResponse	0	0.216	572.484	9	60	Target	Neutral	True
573.484	0.3	Control	0.7212999999999999	0.004	Yes	2.678	-0.004	4.0	GoodResponse	0	0.216	n/a	9	60	ButtonPress	Neutral	True
573.519	0.46	Control	0.7212999999999999	n/a	Yes	2.678	n/a	n/a	GoodResponse	0	n/a	n/a	9	60	Blank	Neutral	True
573.971	1.45	Control	0.7212999999999999	n/a	Yes	2.678	n/a	5.0	GoodResponse	0	0.046	573.017	9	60	Feedback	Neutral	True
575.425	2.678	Control	0.7212999999999999	n/a	Yes	2.678	n/a	n/a	GoodResponse	0	0.0	n/a	9	60	ISIslide	Neutral	True
578.116	0.25	Lose2	0.7258	0.0	Yes	2.984	0.016	n/a	GoodResponse	0	n/a	n/a	9	61	Cue	AvoidedLoss	True
578.367	4.0	Lose2	0.7258	0.0	Yes	2.984	0.001	n/a	GoodResponse	0	n/a	n/a	9	61	Fixation	AvoidedLoss	True
582.362	0.23	Lose2	0.7258	0.004	Yes	2.984	-0.004	4.0	GoodResponse	0	0.198	581.56	9	61	Target	AvoidedLoss	True
582.56	0.3	Lose2	0.7258	0.004	Yes	2.984	-0.004	4.0	GoodResponse	0	0.198	n/a	9	61	ButtonPress	AvoidedLoss	True
582.596	0.47	Lose2	0.7258	n/a	Yes	2.984	n/a	n/a	GoodResponse	0	n/a	n/a	9	61	Blank	AvoidedLoss	True
583.064	1.45	Lose2	0.7258	n/a	Yes	2.984	n/a	5.0	GoodResponse	0	0.026	582.09	9	61	Feedback	AvoidedLoss	True
584.519	2.984	Lose2	0.7258	n/a	Yes	2.984	n/a	n/a	GoodResponse	0	0.0	n/a	9	61	ISIslide	AvoidedLoss	True
587.528	0.25	Lose2	0.7302	0.0	Yes	2.872	0.028	n/a	GoodResponse	0	n/a	n/a	9	62	Cue	AvoidedLoss	True
587.778	3.9	Lose2	0.7302	0.001	Yes	2.872	0.0	n/a	GoodResponse	0	n/a	n/a	9	62	Fixation	AvoidedLoss	True
591.69	0.22	Lose2	0.7302	0.0	Yes	2.872	0.012	4.0	GoodResponse	0	0.205	590.895	9	62	Target	AvoidedLoss	True
591.895	0.3	Lose2	0.7302	0.0	Yes	2.872	0.012	4.0	GoodResponse	0	0.205	n/a	9	62	ButtonPress	AvoidedLoss	True
591.907	0.48	Lose2	0.7302	n/a	Yes	2.872	n/a	n/a	GoodResponse	0	n/a	n/a	9	62	Blank	AvoidedLoss	True
592.376	1.45	Lose2	0.7302	n/a	Yes	2.872	n/a	5.0	GoodResponse	0	0.031	591.407	9	62	Feedback	AvoidedLoss	True
593.83	2.872	Lose2	0.7302	n/a	Yes	2.872	n/a	n/a	GoodResponse	0	0.0	n/a	9	62	ISIslide	AvoidedLoss	True
596.722	0.25	Lose2	0.7188	0.0	No	2.628	0.022	n/a	NoResponse	-1	n/a	n/a	8	63	Cue	Loss	True
596.973	4.05	Lose2	0.7188	0.0	No	2.628	0.001	n/a	NoResponse	-1	n/a	n/a	8	63	Fixation	Loss	True
601.018	0.21	Lose2	0.7188	0.004	No	2.628	-0.004	4.0	NoResponse	-1	0.252	600.27	8	63	Target	Loss	True
601.235	0.49	Lose2	0.7188	n/a	No	2.628	n/a	n/a	NoResponse	-1	n/a	n/a	8	63	Blank	Loss	True
601.27	0.3	Lose2	0.7188	0.004	No	2.628	-0.004	4.0	NoResponse	-1	0.252	n/a	8	63	ButtonPress	Loss	True
601.72	1.45	Lose2	0.7188	n/a	No	2.628	n/a	5.0	NoResponse	-1	0.007	600.727	8	63	Feedback	Loss	True
603.174	2.628	Lose2	0.7188	n/a	No	2.628	n/a	n/a	NoResponse	-1	0.0	n/a	8	63	ISIslide	Loss	True
605.816	0.25	Win2	0.7077	0.0	No	3.134	0.016	n/a	NoResponse	0	n/a	n/a	8	64	Cue	MissedWin	True
606.066	4.15	Win2	0.7077	0.001	No	3.134	0.0	n/a	NoResponse	0	n/a	n/a	8	64	Fixation	MissedWin	True
610.212	0.2	Win2	0.7077	0.004	No	3.134	-0.004	4.0	NoResponse	0	0.212	609.424	8	64	Target	MissedWin	True
610.413	0.5	Win2	0.7077	n/a	No	3.134	n/a	n/a	NoResponse	0	n/a	n/a	8	64	Blank	MissedWin	True
610.424	0.3	Win2	0.7077	0.004	No	3.134	-0.004	4.0	NoResponse	0	0.212	n/a	8	64	ButtonPress	MissedWin	True
610.914	1.45	Win2	0.7077	n/a	No	3.134	n/a	5.0	NoResponse	0	0.029	609.943	8	64	Feedback	MissedWin	True
612.369	3.134	Win2	0.7077	n/a	No	3.134	n/a	n/a	NoResponse	0	0.0	n/a	8	64	ISIslide	MissedWin	True
615.528	0.25	Control	0.7121	0.0	Yes	2.772	0.028	n/a	GoodResponse	0	n/a	n/a	8	65	Cue	Neutral	True
615.779	4.0	Control	0.7121	0.0	Yes	2.772	0.001	n/a	GoodResponse	0	n/a	n/a	8	65	Fixation	Neutral	True
619.774	0.19	Control	0.7121	0.004	Yes	2.772	-0.004	4.0	GoodResponse	0	0.154	618.928	8	65	Target	Neutral	True
619.928	0.3	Control	0.7121	0.004	Yes	2.772	-0.004	4.0	GoodResponse	0	0.154	n/a	8	65	ButtonPress	Neutral	True
619.975	0.51	Control	0.7121	n/a	Yes	2.772	n/a	n/a	GoodResponse	0	n/a	n/a	8	65	Blank	Neutral	True
620.476	1.45	Control	0.7121	n/a	Yes	2.772	n/a	5.0	GoodResponse	0	0.028	619.504	8	65	Feedback	Neutral	True
621.93	2.772	Control	0.7121	n/a	Yes	2.772	n/a	n/a	GoodResponse	0	0.0	n/a	8	65	ISIslide	Neutral	True
624.722	0.25	Win2	0.7015	0.0	No	2.778	0.022	n/a	LatePress	0	n/a	n/a	8	66	Cue	MissedWin	True
624.973	3.9	Win2	0.7015	0.0	No	2.778	0.001	n/a	LatePress	0	n/a	n/a	8	66	Fixation	MissedWin	True
628.868	0.18	Win2	0.7015	0.004	No	2.778	-0.004	4.0	LatePress	0	0.183	628.051	8	66	Target	MissedWin	True
629.051	0.3	Win2	0.7015	0.004	No	2.778	-0.004	4.0	LatePress	0	0.183	n/a	8	66	ButtonPress	MissedWin	True
629.052	0.52	Win2	0.7015	n/a	No	2.778	n/a	n/a	LatePress	0	n/a	n/a	8	66	Blank	MissedWin	True
629.57	1.45	Win2	0.7015	n/a	No	2.778	n/a	5.0	LatePress	0	0.007	628.577	8	66	Feedback	MissedWin	True
631.024	2.778	Win2	0.7015	n/a	No	2.778	n/a	n/a	LatePress	0	0.0	n/a	8	66	ISIslide	MissedWin	True
633.816	0.25	Control	0.6912	0.0	No	2.734	0.016	n/a	NoResponse	0	n/a	n/a	8	67	Cue	Neutral	True
634.067	3.95	Control	0.6912	0.0	No	2.734	0.001	n/a	NoResponse	0	n/a	n/a	8	67	Fixation	Neutral	True
638.012	0.17	Control	0.6912	0.004	No	2.734	-0.004	4.0	NoResponse	0	0.231	637.243	8	67	Target	Neutral	True
638.196	0.53	Control	0.6912	n/a	No	2.734	n/a	n/a	NoResponse	0	n/a	n/a	8	67	Blank	Neutral	True
638.243	0.3	Control	0.6912	0.004	No	2.734	-0.004	4.0	NoResponse	0	0.231	n/a	8	67	ButtonPress	Neutral	True
638.714	1.45	Control	0.6912	n/a	No	2.734	n/a	5.0	NoResponse	0	0.033	637.747	8	67	Feedback	Neutral	True
640.168	2.734	Control	0.6912	n/a	No	2.734	n/a	n/a	NoResponse	0	0.0	n/a	8	67	ISIslide	Neutral	True
642.927	0.25	Win2	0.6812	0.0	No	3.073	0.027	n/a	NoResponse	0	n/a	n/a	8	68	Cue	MissedWin	True
643.177	4.0	Win2	0.6812	0.0	No	3.073	0.0	n/a	NoResponse	0	n/a	n/a	8	68	Fixation	MissedWin	True
647.173	0.16	Win2	0.6812	0.004	No	3.073	-0.004	4.0	NoResponse	0	0.191	646.364	8	68	Target	MissedWin	True
647.34	0.54	Win2	0.6812	n/a	No	3.073	n/a	n/a	NoResponse	0	n/a	n/a	8	68	Blank	MissedWin	True
647.364	0.3	Win2	0.6812	0.004	No	3.073	-0.004	4.0	NoResponse	0	0.191	n/a	8	68	ButtonPress	MissedWin	True
647.875	1.45	Win2	0.6812	n/a	No	3.073	n/a	5.0	NoResponse	0	0.043	646.918	8	68	Feedback	MissedWin	True
649.329	3.073	Win2	0.6812	n/a	No	3.073	n/a	n/a	NoResponse	0	0.0	n/a	8	68	ISIslide	MissedWin	True
652.422	0.25	Win2	0.6714	0.0	No	3.228	0.022	n/a	NoResponse	0	n/a	n/a	8	69	Cue	MissedWin	True
652.672	3.95	Win2	0.6714	0.0	No	3.228	0.0	n/a	NoResponse	0	n/a	n/a	8	69	Fixation	MissedWin	True
656.634	0.15	Win2	0.6714	0.0	No	3.228	0.012	4.0	NoResponse	0	0.184	655.818	8	69	Target	MissedWin	True
656.768	0.55	Win2	0.6714	n/a	No	3.228	n/a	n/a	NoResponse	0	n/a	n/a	8	69	Blank	MissedWin	True
656.818	0.3	Win2	0.6714	0.0	No	3.228	0.012	4.0	NoResponse	0	0.184	n/a	8	69	ButtonPress	MissedWin	True
657.319	1.45	Win2	0.6714	n/a	No	3.228	n/a	5.0	NoResponse	0	0.014	656.333	8	69	Feedback	MissedWin	True
658.774	3.228	Win2	0.6714	n/a	No	3.228	n/a	n/a	NoResponse	0	0.0	n/a	8	69	ISIslide	MissedWin	True
662.017	0.25	Lose2	0.662	0.0	No	3.033	0.017	n/a	NoResponse	-1	n/a	n/a	7	70	Cue	Loss	False
662.268	4.05	Lose2	0.662	0.0	No	3.033	0.001	4.0	NoResponse	-1	3.55	664.818	7	70	Fixation	Loss	False
665.818	0.3	Lose2	0.662	0.0	No	3.033	0.001	4.0	NoResponse	-1	3.55	n/a	7	70	ButtonPress	Loss	False
666.313	0.15	Lose2	0.662	0.004	No	3.033	-0.004	4.0	NoResponse	-1	0.208	665.521	7	70	Target	Loss	False
666.463	0.55	Lose2	0.662	n/a	No	3.033	n/a	n/a	NoResponse	-1	n/a	n/a	7	70	Blank	Loss	False
666.521	0.3	Lose2	0.662	0.004	No	3.033	-0.004	4.0	NoResponse	-1	0.208	n/a	7	70	ButtonPress	Loss	False
667.015	1.45	Lose2	0.662	n/a	No	3.033	n/a	5.0	NoResponse	-1	0.025	666.04	7	70	Feedback	Loss	False
668.469	3.033	Lose2	0.662	n/a	No	3.033	n/a	n/a	NoResponse	-1	0.0	n/a	7	70	ISIslide	Loss	False
671.529	0.25	Win2	0.6528	0.0	No	2.721	0.029	n/a	NoResponse	0	n/a	n/a	7	71	Cue	MissedWin	True
671.779	4.05	Win2	0.6528	0.0	No	2.721	0.0	n/a	NoResponse	0	n/a	n/a	7	71	Fixation	MissedWin	True
675.825	0.15	Win2	0.6528	0.004	No	2.721	-0.004	4.0	NoResponse	0	0.188	675.013	7	71	Target	MissedWin	True
675.975	0.55	Win2	0.6528	n/a	No	2.721	n/a	n/a	NoResponse	0	n/a	n/a	7	71	Blank	MissedWin	True
676.013	0.3	Win2	0.6528	0.004	No	2.721	-0.004	4.0	NoResponse	0	0.188	n/a	7	71	ButtonPress	MissedWin	True
676.527	1.45	Win2	0.6528	n/a	No	2.721	n/a	5.0	NoResponse	0	0.025	675.552	7	71	Feedback	MissedWin	True
677.981	2.721	Win2	0.6528	n/a	No	2.721	n/a	n/a	NoResponse	0	0.0	n/a	7	71	ISIslide	MissedWin	True
680.723	0.25	Win2	0.6437999999999999	0.0	No	2.777	0.023	n/a	NoResponse	0	n/a	n/a	7	72	Cue	MissedWin	True
680.973	4.1	Win2	0.6437999999999999	0.001	No	2.777	0.0	n/a	NoResponse	0	n/a	n/a	7	72	Fixation	MissedWin	True
685.069	0.16	Win2	0.6437999999999999	0.004	No	2.777	-0.004	4.0	NoResponse	0	0.175	684.244	7	72	Target	MissedWin	True
685.236	0.54	Win2	0.6437999999999999	n/a	No	2.777	n/a	n/a	NoResponse	0	n/a	n/a	7	72	Blank	MissedWin	True
685.244	0.3	Win2	0.6437999999999999	0.004	No	2.777	-0.004	4.0	NoResponse	0	0.175	n/a	7	72	ButtonPress	MissedWin	True
685.771	1.45	Win2	0.6437999999999999	n/a	No	2.777	n/a	5.0	NoResponse	0	0.049	684.82	7	72	Feedback	MissedWin	True
687.225	2.777	Win2	0.6437999999999999	n/a	No	2.777	n/a	n/a	NoResponse	0	0.0	n/a	7	72	ISIslide	MissedWin	True
690.017	0.25	Win2	0.6486	0.0	Yes	2.683	0.017	n/a	GoodResponse	1	n/a	n/a	8	73	Cue	Win	True
690.268	4.0	Win2	0.6486	0.0	Yes	2.683	0.001	n/a	GoodResponse	1	n/a	n/a	8	73	Fixation	Win	True
694.263	0.17	Win2	0.6486	0.004	Yes	2.683	-0.004	4.0	GoodResponse	1	0.161	693.424	8	73	Target	Win	True
694.424	0.3	Win2	0.6486	0.004	Yes	2.683	-0.004	4.0	GoodResponse	1	0.161	n/a	8	73	ButtonPress	Win	True
694.447	0.53	Win2	0.6486	n/a	Yes	2.683	n/a	n/a	GoodResponse	1	n/a	n/a	8	73	Blank	Win	True
694.965	1.45	Win2	0.6486	n/a	Yes	2.683	n/a	5.0	GoodResponse	1	0.026	693.991	8	73	Feedback	Win	True
696.42	2.683	Win2	0.6486	n/a	Yes	2.683	n/a	n/a	GoodResponse	1	0.0	n/a	8	73	ISIslide	Win	True
699.128	0.25	Lose2	0.64	0.0	No	2.622	0.028	n/a	NoResponse	-1	n/a	n/a	7	74	Cue	Loss	True
699.378	4.05	Lose2	0.64	0.001	No	2.622	0.0	n/a	NoResponse	-1	n/a	n/a	7	74	Fixation	Loss	True
703.424	0.18	Lose2	0.64	0.004	No	2.622	-0.004	4.0	NoResponse	-1	0.202	702.626	7	74	Target	Loss	True
703.608	0.52	Lose2	0.64	n/a	No	2.622	n/a	n/a	NoResponse	-1	n/a	n/a	7	74	Blank	Loss	True
703.626	0.3	Lose2	0.64	0.004	No	2.622	-0.004	4.0	NoResponse	-1	0.202	n/a	7	74	ButtonPress	Loss	True
704.126	1.45	Lose2	0.64	n/a	No	2.622	n/a	5.0	NoResponse	-1	0.036	703.162	7	74	Feedback	Loss	True
705.58	2.622	Lose2	0.64	n/a	No	2.622	n/a	n/a	NoResponse	-1	0.0	n/a	7	74	ISIslide	Loss	True
708.222	0.25	Lose2	0.6315999999999999	0.0	No	2.928	0.022	n/a	NoResponse	-1	n/a	n/a	6	75	Cue	Loss	True
708.472	3.95	Lose2	0.6315999999999999	0.0	No	2.928	0.0	n/a	NoResponse	-1	n/a	n/a	6	75	Fixation	Loss	True
712.434	0.19	Lose2	0.6315999999999999	0.0	No	2.928	0.012	4.0	NoResponse	-1	0.202	711.636	6	75	Target	Loss	True
712.618	0.51	Lose2	0.6315999999999999	n/a	No	2.928	n/a	n/a	NoResponse	-1	n/a	n/a	6	75	Blank	Loss	True
712.636	0.3	Lose2	0.6315999999999999	0.0	No	2.928	0.012	4.0	NoResponse	-1	0.202	n/a	6	75	ButtonPress	Loss	True
713.119	1.45	Lose2	0.6315999999999999	n/a	No	2.928	n/a	5.0	NoResponse	-1	0.017	712.136	6	75	Feedback	Loss	True
714.574	2.928	Lose2	0.6315999999999999	n/a	No	2.928	n/a	n/a	NoResponse	-1	0.0	n/a	6	75	ISIslide	Loss	True
717.516	0.25	Control	0.6234000000000001	0.0	No	3.234	0.016	n/a	NoResponse	0	n/a	n/a	6	76	Cue	Neutral	True
717.767	4.05	Control	0.6234000000000001	0.0	No	3.234	0.001	n/a	NoResponse	0	n/a	n/a	6	76	Fixation	Neutral	True
721.812	0.2	Control	0.6234000000000001	0.004	No	3.234	-0.004	4.0	NoResponse	0	0.215	721.027	6	76	Target	Neutral	True
722.013	0.5	Control	0.6234000000000001	n/a	No	3.234	n/a	n/a	NoResponse	0	n/a	n/a	6	76	Blank	Neutral	True
722.027	0.3	Control	0.6234000000000001	0.004	No	3.234	-0.004	4.0	NoResponse	0	0.215	n/a	6	76	ButtonPress	Neutral	True
722.514	1.45	Control	0.6234000000000001	n/a	No	3.234	n/a	5.0	NoResponse	0	0.037	721.551	6	76	Feedback	Neutral	True
723.969	3.234	Control	0.6234000000000001	n/a	No	3.234	n/a	n/a	NoResponse	0	0.0	n/a	6	76	ISIslide	Neutral	True
727.228	0.25	Lose2	0.6282	0.0	Yes	2.572	0.028	n/a	GoodResponse	0	n/a	n/a	6	77	Cue	AvoidedLoss	False
727.479	3.95	Lose2	0.6282	0.0	Yes	2.572	0.001	4.0	GoodResponse	0	3.481	729.96	6	77	Fixation	AvoidedLoss	False
730.96	0.3	Lose2	0.6282	0.0	Yes	2.572	0.001	4.0	GoodResponse	0	3.481	n/a	6	77	ButtonPress	AvoidedLoss	False
731.424	0.21	Lose2	0.6282	0.004	Yes	2.572	-0.004	4.0	GoodResponse	0	0.167	730.591	6	77	Target	AvoidedLoss	False
731.591	0.3	Lose2	0.6282	0.004	Yes	2.572	-0.004	4.0	GoodResponse	0	0.167	n/a	6	77	ButtonPress	AvoidedLoss	False
731.641	0.49	Lose2	0.6282	n/a	Yes	2.572	n/a	n/a	GoodResponse	0	n/a	n/a	6	77	Blank	AvoidedLoss	False
732.126	1.45	Lose2	0.6282	n/a	Yes	2.572	n/a	5.0	GoodResponse	0	0.035	731.161	6	77	Feedback	AvoidedLoss	False
733.581	2.572	Lose2	0.6282	n/a	Yes	2.572	n/a	n/a	GoodResponse	0	0.0	n/a	6	77	ISIslide	AvoidedLoss	False
