onset	duration	cue_type	current_mean_accuracy	duration_error	is_hit	isi_adjusted	onset_delay	response	response_type	reward	rt	rt_time	total_reward	trial_number	trial_phase	trial_type	one_press
11.11	0.25	Control	1.0	0.0	Yes	2.94	0.01	n/a	GoodResponse	0	n/a	n/a	0	0	Cue	Neutral	True
11.361	3.85	Control	1.0	0.0	Yes	2.94	0.001	n/a	GoodResponse	0	n/a	n/a	0	0	Fixation	Neutral	True
15.206	0.4	Control	1.0	0.004	Yes	2.94	-0.004	4.0	GoodResponse	0	0.387	14.593	0	0	Target	Neutral	True
15.593	0.3	Control	1.0	0.004	Yes	2.94	-0.004	4.0	GoodResponse	0	0.387	n/a	0	0	ButtonPress	Neutral	True
15.607	0.3	Control	1.0	n/a	Yes	2.94	n/a	n/a	GoodResponse	0	n/a	n/a	0	0	Blank	Neutral	True
15.908	1.45	Control	1.0	n/a	Yes	2.94	n/a	5.0	GoodResponse	0	0.019	14.927	0	0	Feedback	Neutral	True
17.362	2.94	Control	1.0	n/a	Yes	2.94	n/a	n/a	GoodResponse	0	0.0	n/a	0	0	ISIslide	Neutral	True
20.388	0.25	Lose2	1.0	0.0	Yes	2.712	0.088	n/a	GoodResponse	0	n/a	n/a	0	1	Cue	AvoidedLoss	True
20.638	4.0	Lose2	1.0	0.001	Yes	2.712	0.0	n/a	GoodResponse	0	n/a	n/a	0	1	Fixation	AvoidedLoss	True
24.634	0.39	Lose2	1.0	0.004	Yes	2.712	-0.004	4.0	GoodResponse	0	0.214	23.848	0	1	Target	AvoidedLoss	True
24.848	0.3	Lose2	1.0	0.004	Yes	2.712	-0.004	4.0	GoodResponse	0	0.214	n/a	0	1	ButtonPress	AvoidedLoss	True
25.035	0.31	Lose2	1.0	n/a	Yes	2.712	n/a	n/a	GoodResponse	0	n/a	n/a	0	1	Blank	AvoidedLoss	True
25.336	1.45	Lose2	1.0	n/a	Yes	2.712	n/a	5.0	GoodResponse	0	0.007	24.343	0	1	Feedback	AvoidedLoss	True
26.79	2.712	Lose2	1.0	n/a	Yes	2.712	n/a	n/a	GoodResponse	0	0.0	n/a	0	1	ISIslide	AvoidedLoss	True
29.515	0.25	Control	1.0	0.0	Yes	2.585	0.015	n/a	GoodResponse	0	n/a	n/a	0	2	Cue	Neutral	True
29.766	4.1	Control	1.0	0.0	Yes	2.585	0.001	n/a	GoodResponse	0	n/a	n/a	0	2	Fixation	Neutral	True
33.861	0.38	Control	1.0	0.004	Yes	2.585	-0.004	4.0	GoodResponse	0	0.218	33.079	0	2	Target	Neutral	True
34.079	0.3	Control	1.0	0.004	Yes	2.585	-0.004	4.0	GoodResponse	0	0.218	n/a	0	2	ButtonPress	Neutral	True
34.246	0.32	Control	1.0	n/a	Yes	2.585	n/a	n/a	GoodResponse	0	n/a	n/a	0	2	Blank	Neutral	True
34.563	1.45	Control	1.0	n/a	Yes	2.585	n/a	5.0	GoodResponse	0	0.046	33.609	0	2	Feedback	Neutral	True
36.018	2.585	Control	1.0	n/a	Yes	2.585	n/a	n/a	GoodResponse	0	0.0	n/a	0	2	ISIslide	Neutral	True
38.626	0.25	Win2	1.0	0.0	Yes	2.824	0.026	n/a	GoodResponse	1	n/a	n/a	1	3	Cue	Win	True
38.876	3.95	Win2	1.0	0.0	Yes	2.824	0.0	n/a	GoodResponse	1	n/a	n/a	1	3	Fixation	Win	True
42.838	0.37	Win2	1.0	0.0	Yes	2.824	0.012	4.0	GoodResponse	1	0.209	42.047	1	3	Target	Win	True
43.047	0.3	Win2	1.0	0.0	Yes	2.824	0.012	4.0	GoodResponse	1	0.209	n/a	1	3	ButtonPress	Win	True
43.206	0.33	Win2	1.0	n/a	Yes	2.824	n/a	n/a	GoodResponse	1	n/a	n/a	1	3	Blank	Win	True
43.524	1.45	Win2	1.0	n/a	Yes	2.824	n/a	5.0	GoodResponse	1	0.012	42.536	1	3	Feedback	Win	True
44.978	2.824	Win2	1.0	n/a	Yes	2.824	n/a	n/a	GoodResponse	1	0.0	n/a	1	3	ISIslide	Win	True
47.82	0.25	Win2	1.0	0.0	Yes	3.28	0.02	n/a	GoodResponse	1	n/a	n/a	2	4	Cue	Win	True
48.071	4.0	Win2	1.0	0.0	Yes	3.28	0.001	n/a	GoodResponse	1	n/a	n/a	2	4	Fixation	Win	True
52.066	0.36	Win2	1.0	0.004	Yes	3.28	-0.004	4.0	GoodResponse	1	0.201	51.267	2	4	Target	Win	True
52.267	0.3	Win2	1.0	0.004	Yes	3.28	-0.004	4.0	GoodResponse	1	0.201	n/a	2	4	ButtonPress	Win	True
52.434	0.34	Win2	1.0	n/a	Yes	3.28	n/a	n/a	GoodResponse	1	n/a	n/a	2	4	Blank	Win	True
52.768	1.45	Win2	1.0	n/a	Yes	3.28	n/a	5.0	GoodResponse	1	0.036	51.804	2	4	Feedback	Win	True
54.222	3.28	Win2	1.0	n/a	Yes	3.28	n/a	n/a	GoodResponse	1	0.0	n/a	2	4	ISIslide	Win	True
57.515	0.25	Win2	1.0	0.001	Yes	2.785	0.015	n/a	GoodResponse	1	n/a	n/a	3	5	Cue	Win	True
57.766	4.0	Win2	1.0	0.0	Yes	2.785	0.001	n/a	GoodResponse	1	n/a	n/a	3	5	Fixation	Win	True
61.761	0.35	Win2	1.0	0.004	Yes	2.785	-0.004	4.0	GoodResponse	1	0.241	61.002	3	5	Target	Win	True
62.002	0.3	Win2	1.0	0.004	Yes	2.785	-0.004	4.0	GoodResponse	1	0.241	n/a	3	5	ButtonPress	Win	True
62.112	0.35	Win2	1.0	n/a	Yes	2.785	n/a	n/a	GoodResponse	1	n/a	n/a	3	5	Blank	Win	True
62.464	1.45	Win2	1.0	n/a	Yes	2.785	n/a	5.0	GoodResponse	1	0.047	61.511	3	5	Feedback	Win	True
63.918	2.785	Win2	1.0	n/a	Yes	2.785	n/a	n/a	GoodResponse	1	0.0	n/a	3	5	ISIslide	Win	True
66.726	0.25	Lose2	1.0	0.0	Yes	2.724	0.026	n/a	GoodResponse	0	n/a	n/a	3	6	Cue	AvoidedLoss	True
66.977	3.95	Lose2	1.0	0.0	Yes	2.724	0.001	n/a	GoodResponse	0	n/a	n/a	3	6	Fixation	AvoidedLoss	True
70.922	0.34	Lose2	1.0	0.004	Yes	2.724	-0.004	4.0	GoodResponse	0	0.198	70.12	3	6	Target	AvoidedLoss	True
71.12	0.3	Lose2	1.0	0.004	Yes	2.724	-0.004	4.0	GoodResponse	0	0.198	n/a	3	6	ButtonPress	AvoidedLoss	True
71.273	0.36	Lose2	1.0	n/a	Yes	2.724	n/a	n/a	GoodResponse	0	n/a	n/a	3	6	Blank	AvoidedLoss	True
71.624	1.45	Lose2	1.0	n/a	Yes	2.724	n/a	5.0	GoodResponse	0	0.009	70.633	3	6	Feedback	AvoidedLoss	True
73.079	2.724	Lose2	1.0	n/a	Yes	2.724	n/a	n/a	GoodResponse	0	0.0	n/a	3	6	ISIslide	AvoidedLoss	True
75.82	0.25	Lose2	1.0	0.0	Yes	4.03	0.02	n/a	GoodResponse	0	n/a	n/a	3	7	Cue	AvoidedLoss	True
76.071	4.05	Lose2	1.0	0.0	Yes	4.03	0.001	n/a	GoodResponse	0	n/a	n/a	3	7	Fixation	AvoidedLoss	True
80.116	0.33	Lose2	1.0	0.004	Yes	4.03	-0.004	4.0	GoodResponse	0	0.204	79.32	3	7	Target	AvoidedLoss	True
80.32	0.3	Lose2	1.0	0.004	Yes	4.03	-0.004	4.0	GoodResponse	0	0.204	n/a	3	7	ButtonPress	AvoidedLoss	True
80.451	0.37	Lose2	1.0	n/a	Yes	4.03	n/a	n/a	GoodResponse	0	n/a	n/a	3	7	Blank	AvoidedLoss	True
80.818	1.45	Lose2	1.0	n/a	Yes	4.03	n/a	5.0	GoodResponse	0	0.034	79.852	3	7	Feedback	AvoidedLoss	True
82.273	4.03	Lose2	1.0	n/a	Yes	4.03	n/a	n/a	GoodResponse	0	0.0	n/a	3	7	ISIslide	AvoidedLoss	True
86.318	0.25	Lose2	1.0	0.0	Yes	3.032	0.018	n/a	GoodResponse	0	n/a	n/a	3	8	Cue	AvoidedLoss	True
86.569	3.95	Lose2	1.0	0.0	Yes	3.032	0.001	n/a	GoodResponse	0	n/a	n/a	3	8	Fixation	AvoidedLoss	True
90.514	0.32	Lose2	1.0	0.004	Yes	3.032	-0.004	4.0	GoodResponse	0	0.204	89.718	3	8	Target	AvoidedLoss	True
90.718	0.3	Lose2	1.0	0.004	Yes	3.032	-0.004	4.0	GoodResponse	0	0.204	n/a	3	8	ButtonPress	AvoidedLoss	True
90.848	0.38	Lose2	1.0	n/a	Yes	3.032	n/a	n/a	GoodResponse	0	n/a	n/a	3	8	Blank	AvoidedLoss	True
91.216	1.45	Lose2	1.0	n/a	Yes	3.032	n/a	5.0	GoodResponse	0	0.027	90.243	3	8	Feedback	AvoidedLoss	True
92.671	3.032	Lose2	1.0	n/a	Yes	3.032	n/a	n/a	GoodResponse	0	0.0	n/a	3	8	ISIslide	AvoidedLoss	True
95.73	0.25	Lose2	1.0	0.0	Yes	3.12	0.03	n/a	GoodResponse	0	n/a	n/a	3	9	Cue	AvoidedLoss	True
95.98	3.95	Lose2	1.0	0.001	Yes	3.12	0.0	n/a	GoodResponse	0	n/a	n/a	3	9	Fixation	AvoidedLoss	True
99.926	0.31	Lose2	1.0	0.004	Yes	3.12	-0.004	4.0	GoodResponse	0	0.241	99.167	3	9	Target	AvoidedLoss	True
100.167	0.3	Lose2	1.0	0.004	Yes	3.12	-0.004	4.0	GoodResponse	0	0.241	n/a	3	9	ButtonPress	AvoidedLoss	True
100.243	0.39	Lose2	1.0	n/a	Yes	3.12	n/a	n/a	GoodResponse	0	n/a	n/a	3	9	Blank	AvoidedLoss	True
100.628	1.45	Lose2	1.0	n/a	Yes	3.12	n/a	5.0	GoodResponse	0	0.029	99.657	3	9	Feedback	AvoidedLoss	True
102.082	3.12	Lose2	1.0	n/a	Yes	3.12	n/a	n/a	GoodResponse	0	0.0	n/a	3	9	ISIslide	AvoidedLoss	True
105.225	0.25	Control	1.0	0.0	Yes	3.275	0.025	n/a	GoodResponse	0	n/a	n/a	3	10	Cue	Neutral	True
105.475	4.0	Control	1.0	0.001	Yes	3.275	0.0	n/a	GoodResponse	0	n/a	n/a	3	10	Fixation	Neutral	True
109.471	0.3	Control	1.0	0.004	Yes	3.275	-0.004	4.0	GoodResponse	0	0.24	108.711	3	10	Target	Neutral	True
109.711	0.3	Control	1.0	0.004	Yes	3.275	-0.004	4.0	GoodResponse	0	0.24	n/a	3	10	ButtonPress	Neutral	True
109.772	0.4	Control	1.0	n/a	Yes	3.275	n/a	n/a	GoodResponse	0	n/a	n/a	3	10	Blank	Neutral	True
110.173	1.45	Control	1.0	n/a	Yes	3.275	n/a	5.0	GoodResponse	0	0.045	109.218	3	10	Feedback	Neutral	True
111.627	3.275	Control	1.0	n/a	Yes	3.275	n/a	n/a	GoodResponse	0	0.0	n/a	3	10	ISIslide	Neutral	True
114.92	0.25	Lose2	1.0	0.0	Yes	2.73	0.02	n/a	GoodResponse	0	n/a	n/a	3	11	Cue	AvoidedLoss	True
115.171	4.05	Lose2	1.0	0.0	Yes	2.73	0.001	n/a	GoodResponse	0	n/a	n/a	3	11	Fixation	AvoidedLoss	True
119.217	0.29	Lose2	1.0	0.003	Yes	2.73	-0.003	4.0	GoodResponse	0	0.209	118.426	3	11	Target	AvoidedLoss	True
119.426	0.3	Lose2	1.0	0.003	Yes	2.73	-0.003	4.0	GoodResponse	0	0.209	n/a	3	11	ButtonPress	AvoidedLoss	True
119.517	0.41	Lose2	1.0	n/a	Yes	2.73	n/a	n/a	GoodResponse	0	n/a	n/a	3	11	Blank	AvoidedLoss	True
119.919	1.45	Lose2	1.0	n/a	Yes	2.73	n/a	5.0	GoodResponse	0	0.006	118.925	3	11	Feedback	AvoidedLoss	True
121.373	2.73	Lose2	1.0	n/a	Yes	2.73	n/a	n/a	GoodResponse	0	0.0	n/a	3	11	ISIslide	AvoidedLoss	True
124.131	0.25	Control	1.0	0.0	Yes	2.969	0.031	n/a	GoodResponse	0	n/a	n/a	3	12	Cue	Neutral	True
124.382	3.9	Control	1.0	0.0	Yes	2.969	0.001	n/a	GoodResponse	0	n/a	n/a	3	12	Fixation	Neutral	True
128.277	0.28	Control	1.0	0.004	Yes	2.969	-0.004	4.0	GoodResponse	0	0.241	127.518	3	12	Target	Neutral	True
128.518	0.3	Control	1.0	0.004	Yes	2.969	-0.004	4.0	GoodResponse	0	0.241	n/a	3	12	ButtonPress	Neutral	True
128.561	0.42	Control	1.0	n/a	Yes	2.969	n/a	n/a	GoodResponse	0	n/a	n/a	3	12	Blank	Neutral	True
128.979	1.45	Control	1.0	n/a	Yes	2.969	n/a	5.0	GoodResponse	0	0.019	127.998	3	12	Feedback	Neutral	True
130.433	2.969	Control	1.0	n/a	Yes	2.969	n/a	n/a	GoodResponse	0	0.0	n/a	3	12	ISIslide	Neutral	True
133.426	0.25	Control	1.0	0.0	Yes	2.774	0.026	n/a	GoodResponse	0	n/a	n/a	3	13	Cue	Neutral	True
133.676	4.0	Control	1.0	0.001	Yes	2.774	0.0	n/a	GoodResponse	0	n/a	n/a	3	13	Fixation	Neutral	True
137.672	0.27	Control	1.0	0.004	Yes	2.774	-0.004	4.0	GoodResponse	0	0.218	136.89	3	13	Target	Neutral	True
137.89	0.3	Control	1.0	0.004	Yes	2.774	-0.004	4.0	GoodResponse	0	0.218	n/a	3	13	ButtonPress	Neutral	True
137.956	0.43	Control	1.0	n/a	Yes	2.774	n/a	n/a	GoodResponse	0	n/a	n/a	3	13	Blank	Neutral	True
138.374	1.45	Control	1.0	n/a	Yes	2.774	n/a	5.0	GoodResponse	0	0.039	137.413	3	13	Feedback	Neutral	True
139.828	2.774	Control	1.0	n/a	Yes	2.774	n/a	n/a	GoodResponse	0	0.0	n/a	3	13	ISIslide	Neutral	True
142.62	0.25	Win2	1.0	0.0	Yes	2.68	0.02	n/a	GoodResponse	1	n/a	n/a	4	14	Cue	Win	True
142.871	4.1	Win2	1.0	0.0	Yes	2.68	0.001	n/a	GoodResponse	1	n/a	n/a	4	14	Fixation	Win	True
146.966	0.26	Win2	1.0	0.004	Yes	2.68	-0.004	4.0	GoodResponse	1	0.204	146.17	4	14	Target	Win	True
147.17	0.3	Win2	1.0	0.004	Yes	2.68	-0.004	4.0	GoodResponse	1	0.204	n/a	4	14	ButtonPress	Win	True
147.234	0.44	Win2	1.0	n/a	Yes	2.68	n/a	n/a	GoodResponse	1	n/a	n/a	4	14	Blank	Win	True
147.668	1.45	Win2	1.0	n/a	Yes	2.68	n/a	5.0	GoodResponse	1	0.013	146.681	4	14	Feedback	Win	True
149.123	2.68	Win2	1.0	n/a	Yes	2.68	n/a	n/a	GoodResponse	1	0.0	n/a	4	14	ISIslide	Win	True
151.831	0.25	Control	0.9375	0.0	No	2.969	0.031	n/a	NoResponse	0	n/a	n/a	4	15	Cue	Neutral	True
152.081	4.0	Control	0.9375	0.001	No	2.969	0.0	4.0	NoResponse	0	3.927	155.008	4	15	Fixation	Neutral	True
156.008	0.3	Control	0.9375	0.001	No	2.969	0.0	4.0	NoResponse	0	3.927	n/a	4	15	ButtonPress	Neutral	True
156.077	0.25	Control	0.9375	0.004	No	2.969	-0.004	n/a	NoResponse	0	n/a	n/a	4	15	Target	Neutral	True
156.328	0.45	Control	0.9375	n/a	No	2.969	n/a	n/a	NoResponse	0	n/a	n/a	4	15	Blank	Neutral	True
156.779	1.45	Control	0.9375	n/a	No	2.969	n/a	5.0	NoResponse	0	0.023	155.802	4	15	Feedback	Neutral	True
158.233	2.969	Control	0.9375	n/a	No	2.969	n/a	n/a	NoResponse	0	0.0	n/a	4	15	ISIslide	Neutral	True
161.226	0.25	Win2	0.9412	0.0	Yes	2.874	0.026	n/a	GoodResponse	1	n/a	n/a	5	16	Cue	Win	True
161.476	4.0	Win2	0.9412	0.0	Yes	2.874	0.0	n/a	GoodResponse	1	n/a	n/a	5	16	Fixation	Win	True
165.472	0.24	Win2	0.9412	0.004	Yes	2.874	-0.004	4.0	GoodResponse	1	0.203	164.675	5	16	Target	Win	True
165.675	0.3	Win2	0.9412	0.004	Yes	2.874	-0.004	4.0	GoodResponse	1	0.203	n/a	5	16	ButtonPress	Win	True
165.722	0.46	Win2	0.9412	n/a	Yes	2.874	n/a	n/a	GoodResponse	1	n/a	n/a	5	16	Blank	Win	True
166.174	1.45	Win2	0.9412	n/a	Yes	2.874	n/a	5.0	GoodResponse	1	0.043	165.217	5	16	Feedback	Win	True
167.628	2.874	Win2	0.9412	n/a	Yes	2.874	n/a	n/a	GoodResponse	1	0.0	n/a	5	16	ISIslide	Win	True
170.52	0.25	Lose2	0.9444	0.0	Yes	2.73	0.02	n/a	GoodResponse	0	n/a	n/a	5	17	Cue	AvoidedLoss	True
170.771	3.95	Lose2	0.9444	0.0	Yes	2.73	0.001	n/a	GoodResponse	0	n/a	n/a	5	17	Fixation	AvoidedLoss	True
174.716	0.23	Lose2	0.9444	0.004	Yes	2.73	-0.004	4.0	GoodResponse	0	0.191	173.907	5	17	Target	AvoidedLoss	True
174.907	0.3	Lose2	0.9444	0.004	Yes	2.73	-0.004	4.0	GoodResponse	0	0.191	n/a	5	17	ButtonPress	AvoidedLoss	True
174.95	0.47	Lose2	0.9444	n/a	Yes	2.73	n/a	n/a	GoodResponse	0	n/a	n/a	5	17	Blank	AvoidedLoss	True
175.418	1.45	Lose2	0.9444	n/a	Yes	2.73	n/a	5.0	GoodResponse	0	0.019	174.437	5	17	Feedback	AvoidedLoss	True
176.872	2.73	Lose2	0.9444	n/a	Yes	2.73	n/a	n/a	GoodResponse	0	0.0	n/a	5	17	ISIslide	AvoidedLoss	True
179.631	0.25	Lose2	0.9473999999999999	0.0	Yes	2.719	0.031	n/a	GoodResponse	0	n/a	n/a	5	18	Cue	AvoidedLoss	True
179.881	4.05	Lose2	0.9473999999999999	0.0	Yes	2.719	0.0	n/a	GoodResponse	0	n/a	n/a	5	18	Fixation	AvoidedLoss	True
183.927	0.22	Lose2	0.9473999999999999	0.004	Yes	2.719	-0.004	4.0	GoodResponse	0	0.177	183.104	5	18	Target	AvoidedLoss	True
184.104	0.3	Lose2	0.9473999999999999	0.004	Yes	2.719	-0.004	4.0	GoodResponse	0	0.177	n/a	5	18	ButtonPress	AvoidedLoss	True
184.161	0.48	Lose2	0.9473999999999999	n/a	Yes	2.719	n/a	n/a	GoodResponse	0	n/a	n/a	5	18	Blank	AvoidedLoss	True
184.629	1.45	Lose2	0.9473999999999999	n/a	Yes	2.719	n/a	5.0	GoodResponse	0	0.027	183.656	5	18	Feedback	AvoidedLoss	True
186.083	2.719	Lose2	0.9473999999999999	n/a	Yes	2.719	n/a	n/a	GoodResponse	0	0.0	n/a	5	18	ISIslide	AvoidedLoss	True
188.825	0.25	Control	0.9	0.0	No	2.925	0.025	n/a	NoResponse	0	n/a	n/a	5	19	Cue	Neutral	True
189.075	3.95	Control	0.9	0.001	No	2.925	0.0	n/a	NoResponse	0	n/a	n/a	5	19	Fixation	Neutral	True
193.021	0.21	Control	0.9	0.004	No	2.925	-0.004	4.0	NoResponse	0	0.277	192.298	5	19	Target	Neutral	True
193.238	0.49	Control	0.9	n/a	No	2.925	n/a	n/a	NoResponse	0	n/a	n/a	5	19	Blank	Neutral	True
193.298	0.3	Control	0.9	0.004	No	2.925	-0.004	4.0	NoResponse	0	0.277	n/a	5	19	ButtonPress	Neutral	True
193.723	1.45	Control	0.9	n/a	No	2.925	n/a	5.0	NoResponse	0	0.008	192.731	5	19	Feedback	Neutral	True
195.177	2.925	Control	0.9	n/a	No	2.925	n/a	n/a	NoResponse	0	0.0	n/a	5	19	ISIslide	Neutral	True
198.119	0.25	Control	0.9048	0.0	Yes	2.631	0.019	n/a	GoodResponse	0	n/a	n/a	5	20	Cue	Neutral	True
198.37	4.05	Control	0.9048	0.0	Yes	2.631	0.001	n/a	GoodResponse	0	n/a	n/a	5	20	Fixation	Neutral	True
202.415	0.2	Control	0.9048	0.004	Yes	2.631	-0.004	4.0	GoodResponse	0	0.191	201.606	5	20	Target	Neutral	True
202.606	0.3	Control	0.9048	0.004	Yes	2.631	-0.004	4.0	GoodResponse	0	0.191	n/a	5	20	ButtonPress	Neutral	True
202.616	0.5	Control	0.9048	n/a	Yes	2.631	n/a	n/a	GoodResponse	0	n/a	n/a	5	20	Blank	Neutral	True
203.117	1.45	Control	0.9048	n/a	Yes	2.631	n/a	5.0	GoodResponse	0	0.026	202.143	5	20	Feedback	Neutral	True
204.572	2.631	Control	0.9048	n/a	Yes	2.631	n/a	n/a	GoodResponse	0	0.0	n/a	5	20	ISIslide	Neutral	True
207.23	0.25	Control	0.8636	0.0	No	2.77	0.03	n/a	NoResponse	0	n/a	n/a	5	21	Cue	Neutral	True
207.48	4.1	Control	0.8636	0.001	No	2.77	0.0	n/a	NoResponse	0	n/a	n/a	5	21	Fixation	Neutral	True
211.576	0.19	Control	0.8636	0.004	No	2.77	-0.004	4.0	NoResponse	0	0.211	210.787	5	21	Target	Neutral	True
211.777	0.51	Control	0.8636	n/a	No	2.77	n/a	n/a	NoResponse	0	n/a	n/a	5	21	Blank	Neutral	True
211.787	0.3	Control	0.8636	0.004	No	2.77	-0.004	4.0	NoResponse	0	0.211	n/a	5	21	ButtonPress	Neutral	True
212.278	1.45	Control	0.8636	n/a	No	2.77	n/a	5.0	NoResponse	0	0.036	211.314	5	21	Feedback	Neutral	True
213.732	2.77	Control	0.8636	n/a	No	2.77	n/a	n/a	NoResponse	0	0.0	n/a	5	21	ISIslide	Neutral	True
216.524	0.25	Control	0.8261	0.0	No	2.776	0.024	n/a	PrematurePress	0	n/a	n/a	5	22	Cue	Neutral	True
216.775	4.0	Control	0.8261	0.0	No	2.776	0.001	n/a	PrematurePress	0	n/a	n/a	5	22	Fixation	Neutral	True
220.77	0.18	Control	0.8261	0.004	No	2.776	-0.004	4.0	PrematurePress	0	0.048	219.818	5	22	Target	Neutral	True
220.818	0.3	Control	0.8261	0.004	No	2.776	-0.004	4.0	PrematurePress	0	0.048	n/a	5	22	ButtonPress	Neutral	True
220.954	0.52	Control	0.8261	n/a	No	2.776	n/a	n/a	PrematurePress	0	n/a	n/a	5	22	Blank	Neutral	True
221.472	1.45	Control	0.8261	n/a	No	2.776	n/a	5.0	PrematurePress	0	0.013	220.485	5	22	Feedback	Neutral	True
222.927	2.776	Control	0.8261	n/a	No	2.776	n/a	n/a	PrematurePress	0	0.0	n/a	5	22	ISIslide	Neutral	True
225.718	0.25	Control	0.7917000000000001	0.0	No	2.782	0.018	n/a	NoResponse	0	n/a	n/a	5	23	Cue	Neutral	True
225.969	3.9	Control	0.7917000000000001	0.0	No	2.782	0.001	n/a	NoResponse	0	n/a	n/a	5	23	Fixation	Neutral	True
229.864	0.17	Control	0.7917000000000001	0.004	No	2.782	-0.004	4.0	NoResponse	0	0.272	229.136	5	23	Target	Neutral	True
230.048	0.53	Control	0.7917000000000001	n/a	No	2.782	n/a	n/a	NoResponse	0	n/a	n/a	5	23	Blank	Neutral	True
230.136	0.3	Control	0.7917000000000001	0.004	No	2.782	-0.004	4.0	NoResponse	0	0.272	n/a	5	23	ButtonPress	Neutral	True
230.566	1.45	Control	0.7917000000000001	n/a	No	2.782	n/a	5.0	NoResponse	0	0.041	229.607	5	23	Feedback	Neutral	True
232.02	2.782	Control	0.7917000000000001	n/a	No	2.782	n/a	n/a	NoResponse	0	0.0	n/a	5	23	ISIslide	Neutral	True
234.829	0.25	Win2	0.76	0.0	No	3.121	0.029	n/a	NoResponse	0	n/a	n/a	5	24	Cue	MissedWin	True
235.08	3.95	Win2	0.76	0.0	No	3.121	0.001	n/a	NoResponse	0	n/a	n/a	5	24	Fixation	MissedWin	True
239.025	0.16	Win2	0.76	0.004	No	3.121	-0.004	4.0	NoResponse	0	0.195	238.22	5	24	Target	MissedWin	True
239.192	0.54	Win2	0.76	n/a	No	3.121	n/a	n/a	NoResponse	0	n/a	n/a	5	24	Blank	MissedWin	True
239.22	0.3	Win2	0.76	0.004	No	3.121	-0.004	4.0	NoResponse	0	0.195	n/a	5	24	ButtonPress	MissedWin	True
239.727	1.45	Win2	0.76	n/a	No	3.121	n/a	5.0	NoResponse	0	0.002	238.729	5	24	Feedback	MissedWin	True
241.181	3.121	Win2	0.76	n/a	No	3.121	n/a	n/a	NoResponse	0	0.0	n/a	5	24	ISIslide	MissedWin	True
244.324	0.25	Win2	0.7308	0.0	No	3.076	0.024	n/a	NoResponse	0	n/a	n/a	5	25	Cue	MissedWin	True
244.575	4.0	Win2	0.7308	0.0	No	3.076	0.001	n/a	NoResponse	0	n/a	n/a	5	25	Fixation	MissedWin	True
248.57	0.15	Win2	0.7308	0.004	No	3.076	-0.004	4.0	NoResponse	0	0.178	247.748	5	25	Target	MissedWin	True
248.72	0.55	Win2	0.7308	n/a	No	3.076	n/a	n/a	NoResponse	0	n/a	n/a	5	25	Blank	MissedWin	True
248.748	0.3	Win2	0.7308	0.004	No	3.076	-0.004	4.0	NoResponse	0	0.178	n/a	5	25	ButtonPress	MissedWin	True
249.272	1.45	Win2	0.7308	n/a	No	3.076	n/a	5.0	NoResponse	0	0.017	248.289	5	25	Feedback	MissedWin	True
250.726	3.076	Win2	0.7308	n/a	No	3.076	n/a	n/a	NoResponse	0	0.0	n/a	5	25	ISIslide	MissedWin	True
253.819	0.25	Win2	0.7037	0.0	No	2.931	0.019	n/a	PrematurePress	0	n/a	n/a	5	26	Cue	MissedWin	True
254.07	3.95	Win2	0.7037	0.0	No	2.931	0.001	n/a	PrematurePress	0	n/a	n/a	5	26	Fixation	MissedWin	True
258.015	0.15	Win2	0.7037	0.004	No	2.931	-0.004	4.0	PrematurePress	0	0.054	257.069	5	26	Target	MissedWin	True
258.069	0.3	Win2	0.7037	0.004	No	2.931	-0.004	4.0	PrematurePress	0	0.054	n/a	5	26	ButtonPress	MissedWin	True
258.165	0.55	Win2	0.7037	n/a	No	2.931	n/a	n/a	PrematurePress	0	n/a	n/a	5	26	Blank	MissedWin	True
258.717	1.45	Win2	0.7037	n/a	No	2.931	n/a	5.0	PrematurePress	0	0.036	257.753	5	26	Feedback	MissedWin	True
260.171	2.931	Win2	0.7037	n/a	No	2.931	n/a	n/a	PrematurePress	0	0.0	n/a	5	26	ISIslide	MissedWin	True
263.13	0.25	Lose2	0.6786	0.0	No	2.82	0.03	n/a	NoResponse	-1	n/a	n/a	4	27	Cue	Loss	True
263.381	4.05	Lose2	0.6786	0.0	No	2.82	0.001	4.0	NoResponse	-1	3.939	266.32	4	27	Fixation	Loss	True
267.32	0.3	Lose2	0.6786	0.0	No	2.82	0.001	4.0	NoResponse	-1	3.939	n/a	4	27	ButtonPress	Loss	True
267.426	0.15	Lose2	0.6786	0.004	No	2.82	-0.004	n/a	NoResponse	-1	n/a	n/a	4	27	Target	Loss	True
267.577	0.55	Lose2	0.6786	n/a	No	2.82	n/a	n/a	NoResponse	-1	n/a	n/a	4	27	Blank	Loss	True
268.128	1.45	Lose2	0.6786	n/a	No	2.82	n/a	5.0	NoResponse	-1	0.039	267.167	4	27	Feedback	Loss	True
269.583	2.82	Lose2	0.6786	n/a	No	2.82	n/a	n/a	NoResponse	-1	0.0	n/a	4	27	ISIslide	Loss	True
272.425	0.25	Control	0.6552	0.0	No	2.825	0.025	n/a	NoResponse	0	n/a	n/a	4	28	Cue	Neutral	True
272.675	4.05	Control	0.6552	0.0	No	2.825	0.0	n/a	NoResponse	0	n/a	n/a	4	28	Fixation	Neutral	True
276.721	0.15	Control	0.6552	0.004	No	2.825	-0.004	4.0	NoResponse	0	0.268	275.989	4	28	Target	Neutral	True
276.871	0.55	Control	0.6552	n/a	No	2.825	n/a	n/a	NoResponse	0	n/a	n/a	4	28	Blank	Neutral	True
276.989	0.3	Control	0.6552	0.004	No	2.825	-0.004	4.0	NoResponse	0	0.268	n/a	4	28	ButtonPress	Neutral	True
277.423	1.45	Control	0.6552	n/a	No	2.825	n/a	5.0	NoResponse	0	0.013	276.436	4	28	Feedback	Neutral	True
278.877	2.825	Control	0.6552	n/a	No	2.825	n/a	n/a	NoResponse	0	0.0	n/a	4	28	ISIslide	Neutral	True
281.719	0.25	Lose2	0.6333	0.0	No	2.831	0.019	n/a	NoResponse	-1	n/a	n/a	3	29	Cue	Loss	True
281.97	3.95	Lose2	0.6333	0.0	No	2.831	0.001	n/a	NoResponse	-1	n/a	n/a	3	29	Fixation	Loss	True
285.915	0.15	Lose2	0.6333	0.004	No	2.831	-0.004	4.0	NoResponse	-1	0.17	285.085	3	29	Target	Loss	True
286.065	0.55	Lose2	0.6333	n/a	No	2.831	n/a	n/a	NoResponse	-1	n/a	n/a	3	29	Blank	Loss	True
286.085	0.3	Lose2	0.6333	0.004	No	2.831	-0.004	4.0	NoResponse	-1	0.17	n/a	3	29	ButtonPress	Loss	True
286.617	1.45	Lose2	0.6333	n/a	No	2.831	n/a	5.0	NoResponse	-1	0.037	285.654	3	29	Feedback	Loss	True
288.071	2.831	Lose2	0.6333	n/a	No	2.831	n/a	n/a	NoResponse	-1	0.0	n/a	3	29	ISIslide	Loss	True
290.93	0.25	Win2	0.6129	0.0	No	2.77	0.03	n/a	NoResponse	0	n/a	n/a	3	30	Cue	MissedWin	True
291.181	3.9	Win2	0.6129	0.0	No	2.77	0.001	n/a	NoResponse	0	n/a	n/a	3	30	Fixation	MissedWin	True
295.076	0.16	Win2	0.6129	0.004	No	2.77	-0.004	4.0	NoResponse	0	0.214	294.29	3	30	Target	MissedWin	True
295.243	0.54	Win2	0.6129	n/a	No	2.77	n/a	n/a	NoResponse	0	n/a	n/a	3	30	Blank	MissedWin	True
295.29	0.3	Win2	0.6129	0.004	No	2.77	-0.004	4.0	NoResponse	0	0.214	n/a	3	30	ButtonPress	MissedWin	True
295.778	1.45	Win2	0.6129	n/a	No	2.77	n/a	5.0	NoResponse	0	0.047	294.825	3	30	Feedback	MissedWin	True
297.232	2.77	Win2	0.6129	n/a	No	2.77	n/a	n/a	NoResponse	0	0.0	n/a	3	30	ISIslide	MissedWin	True
300.024	0.25	Lose2	0.625	0.0	Yes	2.826	0.024	n/a	GoodResponse	0	n/a	n/a	3	31	Cue	AvoidedLoss	True
300.275	4.05	Lose2	0.625	0.0	Yes	2.826	0.001	n/a	GoodResponse	0	n/a	n/a	3	31	Fixation	AvoidedLoss	True
304.32	0.17	Lose2	0.625	0.004	Yes	2.826	-0.004	4.0	GoodResponse	0	0.169	303.489	3	31	Target	AvoidedLoss	True
304.489	0.3	Lose2	0.625	0.004	Yes	2.826	-0.004	4.0	GoodResponse	0	0.169	n/a	3	31	ButtonPress	AvoidedLoss	True
304.504	0.53	Lose2	0.625	n/a	Yes	2.826	n/a	n/a	GoodResponse	0	n/a	n/a	3	31	Blank	AvoidedLoss	True
305.022	1.45	Lose2	0.625	n/a	Yes	2.826	n/a	5.0	GoodResponse	0	0.023	304.045	3	31	Feedback	AvoidedLoss	True
306.476	2.826	Lose2	0.625	n/a	Yes	2.826	n/a	n/a	GoodResponse	0	0.0	n/a	3	31	ISIslide	AvoidedLoss	True
309.318	0.25	Lose2	0.6364	0.0	Yes	2.632	0.018	n/a	GoodResponse	0	n/a	n/a	3	32	Cue	AvoidedLoss	True
309.569	4.15	Lose2	0.6364	0.0	Yes	2.632	0.001	n/a	GoodResponse	0	n/a	n/a	3	32	Fixation	AvoidedLoss	True
313.715	0.18	Lose2	0.6364	0.003	Yes	2.632	-0.003	4.0	GoodResponse	0	0.174	312.889	3	32	Target	AvoidedLoss	True
313.889	0.3	Lose2	0.6364	0.003	Yes	2.632	-0.003	4.0	GoodResponse	0	0.174	n/a	3	32	ButtonPress	AvoidedLoss	True
313.899	0.52	Lose2	0.6364	n/a	Yes	2.632	n/a	n/a	GoodResponse	0	n/a	n/a	3	32	Blank	AvoidedLoss	True
314.417	1.45	Lose2	0.6364	n/a	Yes	2.632	n/a	5.0	GoodResponse	0	0.042	313.459	3	32	Feedback	AvoidedLoss	True
315.871	2.632	Lose2	0.6364	n/a	Yes	2.632	n/a	n/a	GoodResponse	0	0.0	n/a	3	32	ISIslide	AvoidedLoss	True
318.529	0.25	Win2	0.6175999999999999	0.0	No	2.671	0.029	n/a	NoResponse	0	n/a	n/a	3	33	Cue	MissedWin	True
318.78	4.0	Win2	0.6175999999999999	0.0	No	2.671	0.001	n/a	NoResponse	0	n/a	n/a	3	33	Fixation	MissedWin	True
322.775	0.19	Win2	0.6175999999999999	0.004	No	2.671	-0.004	4.0	NoResponse	0	0.269	322.044	3	33	Target	MissedWin	True
322.976	0.51	Win2	0.6175999999999999	n/a	No	2.671	n/a	n/a	NoResponse	0	n/a	n/a	3	33	Blank	MissedWin	True
323.044	0.3	Win2	0.6175999999999999	0.004	No	2.671	-0.004	4.0	NoResponse	0	0.269	n/a	3	33	ButtonPress	MissedWin	True
323.477	1.45	Win2	0.6175999999999999	n/a	No	2.671	n/a	5.0	NoResponse	0	0.008	322.485	3	33	Feedback	MissedWin	True
324.932	2.671	Win2	0.6175999999999999	n/a	No	2.671	n/a	n/a	NoResponse	0	0.0	n/a	3	33	ISIslide	MissedWin	True
327.623	0.25	Lose2	0.6	0.0	No	2.627	0.023	n/a	NoResponse	-1	n/a	n/a	2	34	Cue	Loss	True
327.874	4.05	Lose2	0.6	0.0	No	2.627	0.001	n/a	NoResponse	-1	n/a	n/a	2	34	Fixation	Loss	True
331.919	0.2	Lose2	0.6	0.004	No	2.627	-0.004	4.0	NoResponse	-1	0.216	331.135	2	34	Target	Loss	True
332.12	0.5	Lose2	0.6	n/a	No	2.627	n/a	n/a	NoResponse	-1	n/a	n/a	2	34	Blank	Loss	True
332.135	0.3	Lose2	0.6	0.004	No	2.627	-0.004	4.0	NoResponse	-1	0.216	n/a	2	34	ButtonPress	Loss	True
332.621	1.45	Lose2	0.6	n/a	No	2.627	n/a	5.0	NoResponse	-1	0.033	331.654	2	34	Feedback	Loss	True
334.076	2.627	Lose2	0.6	n/a	No	2.627	n/a	n/a	NoResponse	-1	0.0	n/a	2	34	ISIslide	Loss	True
336.717	0.25	Lose2	0.5832999999999999	0.0	No	2.683	0.017	n/a	NoResponse	-1	n/a	n/a	1	35	Cue	Loss	True
336.968	4.0	Lose2	0.5832999999999999	0.0	No	2.683	0.001	n/a	NoResponse	-1	n/a	n/a	1	35	Fixation	Loss	True
340.963	0.21	Lose2	0.5832999999999999	0.004	No	2.683	-0.004	4.0	NoResponse	-1	0.253	340.216	1	35	Target	Loss	True
341.18	0.49	Lose2	0.5832999999999999	n/a	No	2.683	n/a	n/a	NoResponse	-1	n/a	n/a	1	35	Blank	Loss	True
341.216	0.3	Lose2	0.5832999999999999	0.004	No	2.683	-0.004	4.0	NoResponse	-1	0.253	n/a	1	35	ButtonPress	Loss	True
341.665	1.45	Lose2	0.5832999999999999	n/a	No	2.683	n/a	5.0	NoResponse	-1	0.013	340.678	1	35	Feedback	Loss	True
343.119	2.683	Lose2	0.5832999999999999	n/a	No	2.683	n/a	n/a	NoResponse	-1	0.0	n/a	1	35	ISIslide	Loss	True
345.827	0.25	Control	0.5946	0.001	Yes	2.673	0.027	n/a	GoodResponse	0	n/a	n/a	1	36	Cue	Neutral	True
346.078	4.0	Control	0.5946	0.0	Yes	2.673	0.001	n/a	GoodResponse	0	n/a	n/a	1	36	Fixation	Neutral	True
350.073	0.22	Control	0.5946	0.004	Yes	2.673	-0.004	4.0	GoodResponse	0	0.214	349.287	1	36	Target	Neutral	True
350.287	0.3	Control	0.5946	0.004	Yes	2.673	-0.004	4.0	GoodResponse	0	0.214	n/a	1	36	ButtonPress	Neutral	True
350.308	0.48	Control	0.5946	n/a	Yes	2.673	n/a	n/a	GoodResponse	0	n/a	n/a	1	36	Blank	Neutral	True
350.776	1.45	Control	0.5946	n/a	Yes	2.673	n/a	5.0	GoodResponse	0	0.024	349.8	1	36	Feedback	Neutral	True
352.23	2.673	Control	0.5946	n/a	Yes	2.673	n/a	n/a	GoodResponse	0	0.0	n/a	1	36	ISIslide	Neutral	True
354.921	0.25	Win2	0.6053000000000001	0.0	Yes	2.879	0.021	n/a	GoodResponse	1	n/a	n/a	2	37	Cue	Win	True
355.172	4.0	Win2	0.6053000000000001	0.0	Yes	2.879	0.001	n/a	GoodResponse	1	n/a	n/a	2	37	Fixation	Win	True
359.167	0.23	Win2	0.6053000000000001	0.004	Yes	2.879	-0.004	4.0	GoodResponse	1	0.181	358.348	2	37	Target	Win	True
359.348	0.3	Win2	0.6053000000000001	0.004	Yes	2.879	-0.004	4.0	GoodResponse	1	0.181	n/a	2	37	ButtonPress	Win	True
359.401	0.47	Win2	0.6053000000000001	n/a	Yes	2.879	n/a	n/a	GoodResponse	1	n/a	n/a	2	37	Blank	Win	True
359.869	1.45	Win2	0.6053000000000001	n/a	Yes	2.879	n/a	5.0	GoodResponse	1	0.006	358.875	2	37	Feedback	Win	True
361.324	2.879	Win2	0.6053000000000001	n/a	Yes	2.879	n/a	n/a	GoodResponse	1	0.0	n/a	2	37	ISIslide	Win	True
364.216	0.25	Lose2	0.6154	0.0	Yes	2.834	0.016	n/a	GoodResponse	0	n/a	n/a	2	38	Cue	AvoidedLoss	True
364.467	3.95	Lose2	0.6154	0.0	Yes	2.834	0.001	n/a	GoodResponse	0	n/a	n/a	2	38	Fixation	AvoidedLoss	True
368.412	0.24	Lose2	0.6154	0.004	Yes	2.834	-0.004	4.0	GoodResponse	0	0.224	367.636	2	38	Target	AvoidedLoss	True
368.636	0.3	Lose2	0.6154	0.004	Yes	2.834	-0.004	4.0	GoodResponse	0	0.224	n/a	2	38	ButtonPress	AvoidedLoss	True
368.662	0.46	Lose2	0.6154	n/a	Yes	2.834	n/a	n/a	GoodResponse	0	n/a	n/a	2	38	Blank	AvoidedLoss	True
369.114	1.45	Lose2	0.6154	n/a	Yes	2.834	n/a	5.0	GoodResponse	0	0.028	368.142	2	38	Feedback	AvoidedLoss	True
370.568	2.834	Lose2	0.6154	n/a	Yes	2.834	n/a	n/a	GoodResponse	0	0.0	n/a	2	38	ISIslide	AvoidedLoss	True
373.427	0.25	Win2	0.625	0.0	Yes	2.973	0.027	n/a	GoodResponse	1	n/a	n/a	3	39	Cue	Win	True
373.677	4.1	Win2	0.625	0.0	Yes	2.973	0.0	n/a	GoodResponse	1	n/a	n/a	3	39	Fixation	Win	True
377.773	0.25	Win2	0.625	0.004	Yes	2.973	-0.004	4.0	GoodResponse	1	0.205	376.978	3	39	Target	Win	True
377.978	0.3	Win2	0.625	0.004	Yes	2.973	-0.004	4.0	GoodResponse	1	0.205	n/a	3	39	ButtonPress	Win	True
378.024	0.45	Win2	0.625	n/a	Yes	2.973	n/a	n/a	GoodResponse	1	n/a	n/a	3	39	Blank	Win	True
378.475	1.45	Win2	0.625	n/a	Yes	2.973	n/a	5.0	GoodResponse	1	0.032	377.507	3	39	Feedback	Win	True
379.929	2.973	Win2	0.625	n/a	Yes	2.973	n/a	n/a	GoodResponse	1	0.0	n/a	3	39	ISIslide	Win	True
382.922	0.25	Win2	0.6341	0.0	Yes	2.728	0.022	n/a	GoodResponse	1	n/a	n/a	4	40	Cue	Win	True
383.172	3.95	Win2	0.6341	0.001	Yes	2.728	0.0	n/a	GoodResponse	1	n/a	n/a	4	40	Fixation	Win	True
387.118	0.26	Win2	0.6341	0.004	Yes	2.728	-0.004	4.0	GoodResponse	1	0.207	386.325	4	40	Target	Win	True
387.325	0.3	Win2	0.6341	0.004	Yes	2.728	-0.004	4.0	GoodResponse	1	0.207	n/a	4	40	ButtonPress	Win	True
387.385	0.44	Win2	0.6341	n/a	Yes	2.728	n/a	n/a	GoodResponse	1	n/a	n/a	4	40	Blank	Win	True
387.82	1.45	Win2	0.6341	n/a	Yes	2.728	n/a	5.0	GoodResponse	1	0.008	386.828	4	40	Feedback	Win	True
389.274	2.728	Win2	0.6341	n/a	Yes	2.728	n/a	n/a	GoodResponse	1	0.0	n/a	4	40	ISIslide	Win	True
392.016	0.25	Win2	0.6429	0.0	Yes	2.784	0.016	n/a	GoodResponse	1	n/a	n/a	5	41	Cue	Win	True
392.266	3.9	Win2	0.6429	0.0	Yes	2.784	0.0	n/a	GoodResponse	1	n/a	n/a	5	41	Fixation	Win	True
396.178	0.27	Win2	0.6429	0.0	Yes	2.784	0.012	4.0	GoodResponse	1	0.207	395.385	5	41	Target	Win	True
396.385	0.3	Win2	0.6429	0.0	Yes	2.784	0.012	4.0	GoodResponse	1	0.207	n/a	5	41	ButtonPress	Win	True
396.445	0.43	Win2	0.6429	n/a	Yes	2.784	n/a	n/a	GoodResponse	1	n/a	n/a	5	41	Blank	Win	True
396.863	1.45	Win2	0.6429	n/a	Yes	2.784	n/a	5.0	GoodResponse	1	0.034	395.897	5	41	Feedback	Win	True
398.318	2.784	Win2	0.6429	n/a	Yes	2.784	n/a	n/a	GoodResponse	1	0.0	n/a	5	41	ISIslide	Win	True
401.126	0.25	Control	0.6279	0.0	No	2.924	0.026	n/a	NoResponse	0	n/a	n/a	5	42	Cue	Neutral	True
401.377	3.85	Control	0.6279	0.0	No	2.924	0.001	n/a	NoResponse	0	n/a	n/a	5	42	Fixation	Neutral	True
405.222	0.28	Control	0.6279	0.004	No	2.924	-0.004	4.0	NoResponse	0	0.298	404.52	5	42	Target	Neutral	True
405.506	0.42	Control	0.6279	n/a	No	2.924	n/a	n/a	NoResponse	0	n/a	n/a	5	42	Blank	Neutral	True
405.52	0.3	Control	0.6279	0.004	No	2.924	-0.004	4.0	NoResponse	0	0.298	n/a	5	42	ButtonPress	Neutral	True
405.924	1.45	Control	0.6279	n/a	No	2.924	n/a	5.0	NoResponse	0	0.047	404.971	5	42	Feedback	Neutral	True
407.378	2.924	Control	0.6279	n/a	No	2.924	n/a	n/a	NoResponse	0	0.0	n/a	5	42	ISIslide	Neutral	True
410.32	0.25	Win2	0.6364	0.0	Yes	3.18	0.02	n/a	GoodResponse	1	n/a	n/a	6	43	Cue	Win	True
410.571	4.0	Win2	0.6364	0.0	Yes	3.18	0.001	n/a	GoodResponse	1	n/a	n/a	6	43	Fixation	Win	True
414.566	0.29	Win2	0.6364	0.004	Yes	3.18	-0.004	4.0	GoodResponse	1	0.207	413.773	6	43	Target	Win	True
414.773	0.3	Win2	0.6364	0.004	Yes	3.18	-0.004	4.0	GoodResponse	1	0.207	n/a	6	43	ButtonPress	Win	True
414.867	0.41	Win2	0.6364	n/a	Yes	3.18	n/a	n/a	GoodResponse	1	n/a	n/a	6	43	Blank	Win	True
415.268	1.45	Win2	0.6364	n/a	Yes	3.18	n/a	5.0	GoodResponse	1	0.019	414.287	6	43	Feedback	Win	True
416.723	3.18	Win2	0.6364	n/a	Yes	3.18	n/a	n/a	GoodResponse	1	0.0	n/a	6	43	ISIslide	Win	True
419.916	0.25	Win2	0.6444	0.0	Yes	2.984	0.016	n/a	GoodResponse	1	n/a	n/a	7	44	Cue	Win	True
420.166	4.0	Win2	0.6444	0.0	Yes	2.984	0.0	n/a	GoodResponse	1	n/a	n/a	7	44	Fixation	Win	True
424.162	0.3	Win2	0.6444	0.004	Yes	2.984	-0.004	4.0	GoodResponse	1	0.262	423.424	7	44	Target	Win	True
424.424	0.3	Win2	0.6444	0.004	Yes	2.984	-0.004	4.0	GoodResponse	1	0.262	n/a	7	44	ButtonPress	Win	True
424.463	0.4	Win2	0.6444	n/a	Yes	2.984	n/a	n/a	GoodResponse	1	n/a	n/a	7	44	Blank	Win	True
424.864	1.45	Win2	0.6444	n/a	Yes	2.984	n/a	5.0	GoodResponse	1	0.033	423.897	7	44	Feedback	Win	True
426.318	2.984	Win2	0.6444	n/a	Yes	2.984	n/a	n/a	GoodResponse	1	0.0	n/a	7	44	ISIslide	Win	True
429.327	0.25	Control	0.6522	0.0	Yes	2.873	0.027	n/a	GoodResponse	0	n/a	n/a	7	45	Cue	Neutral	True
429.578	4.1	Control	0.6522	0.0	Yes	2.873	0.001	n/a	GoodResponse	0	n/a	n/a	7	45	Fixation	Neutral	True
433.673	0.31	Control	0.6522	0.004	Yes	2.873	-0.004	4.0	GoodResponse	0	0.258	432.931	7	45	Target	Neutral	True
433.931	0.3	Control	0.6522	0.004	Yes	2.873	-0.004	4.0	GoodResponse	0	0.258	n/a	7	45	ButtonPress	Neutral	True
433.991	0.39	Control	0.6522	n/a	Yes	2.873	n/a	n/a	GoodResponse	0	n/a	n/a	7	45	Blank	Neutral	True
434.376	1.45	Control	0.6522	n/a	Yes	2.873	n/a	5.0	GoodResponse	0	0.033	433.409	7	45	Feedback	Neutral	True
435.83	2.873	Control	0.6522	n/a	Yes	2.873	n/a	n/a	GoodResponse	0	0.0	n/a	7	45	ISIslide	Neutral	True
438.722	0.25	Lose2	0.6596	0.0	Yes	3.378	0.022	n/a	GoodResponse	0	n/a	n/a	7	46	Cue	AvoidedLoss	True
438.973	4.0	Lose2	0.6596	0.0	Yes	3.378	0.001	n/a	GoodResponse	0	n/a	n/a	7	46	Fixation	AvoidedLoss	True
442.968	0.32	Lose2	0.6596	0.004	Yes	3.378	-0.004	4.0	GoodResponse	0	0.191	442.159	7	46	Target	AvoidedLoss	True
443.159	0.3	Lose2	0.6596	0.004	Yes	3.378	-0.004	4.0	GoodResponse	0	0.191	n/a	7	46	ButtonPress	AvoidedLoss	True
443.302	0.38	Lose2	0.6596	n/a	Yes	3.378	n/a	n/a	GoodResponse	0	n/a	n/a	7	46	Blank	AvoidedLoss	True
443.67	1.45	Lose2	0.6596	n/a	Yes	3.378	n/a	5.0	GoodResponse	0	0.008	442.678	7	46	Feedback	AvoidedLoss	True
445.124	3.378	Lose2	0.6596	n/a	Yes	3.378	n/a	n/a	GoodResponse	0	0.0	n/a	7	46	ISIslide	AvoidedLoss	True
448.518	0.25	Lose2	0.6667000000000001	0.0	Yes	2.682	0.018	n/a	GoodResponse	0	n/a	n/a	7	47	Cue	AvoidedLoss	True
448.769	4.0	Lose2	0.6667000000000001	0.0	Yes	2.682	0.001	n/a	GoodResponse	0	n/a	n/a	7	47	Fixation	AvoidedLoss	True
452.764	0.32	Lose2	0.6667000000000001	0.004	Yes	2.682	-0.004	4.0	GoodResponse	0	0.234	451.998	7	47	Target	AvoidedLoss	True
452.998	0.3	Lose2	0.6667000000000001	0.004	Yes	2.682	-0.004	4.0	GoodResponse	0	0.234	n/a	7	47	ButtonPress	AvoidedLoss	True
453.098	0.38	Lose2	0.6667000000000001	n/a	Yes	2.682	n/a	n/a	GoodResponse	0	n/a	n/a	7	47	Blank	AvoidedLoss	True
453.466	1.45	Lose2	0.6667000000000001	n/a	Yes	2.682	n/a	5.0	GoodResponse	0	0.016	452.482	7	47	Feedback	AvoidedLoss	True
454.92	2.682	Lose2	0.6667000000000001	n/a	Yes	2.682	n/a	n/a	GoodResponse	0	0.0	n/a	7	47	ISIslide	AvoidedLoss	True
457.628	0.25	Lose2	0.6735	0.001	Yes	3.022	0.028	n/a	GoodResponse	0	n/a	n/a	7	48	Cue	AvoidedLoss	True
457.879	3.95	Lose2	0.6735	0.0	Yes	3.022	0.001	n/a	GoodResponse	0	n/a	n/a	7	48	Fixation	AvoidedLoss	True
461.824	0.31	Lose2	0.6735	0.004	Yes	3.022	-0.004	4.0	GoodResponse	0	0.211	461.035	7	48	Target	AvoidedLoss	True
462.035	0.3	Lose2	0.6735	0.004	Yes	3.022	-0.004	4.0	GoodResponse	0	0.211	n/a	7	48	ButtonPress	AvoidedLoss	True
462.142	0.39	Lose2	0.6735	n/a	Yes	3.022	n/a	n/a	GoodResponse	0	n/a	n/a	7	48	Blank	AvoidedLoss	True
462.526	1.45	Lose2	0.6735	n/a	Yes	3.022	n/a	5.0	GoodResponse	0	0.029	461.555	7	48	Feedback	AvoidedLoss	True
463.981	3.022	Lose2	0.6735	n/a	Yes	3.022	n/a	n/a	GoodResponse	0	0.0	n/a	7	48	ISIslide	AvoidedLoss	True
467.023	0.25	Control	0.68	0.0	Yes	2.877	0.023	n/a	GoodResponse	0	n/a	n/a	7	49	Cue	Neutral	True
467.274	4.0	Control	0.68	0.0	Yes	2.877	0.001	n/a	GoodResponse	0	n/a	n/a	7	49	Fixation	Neutral	True
471.269	0.3	Control	0.68	0.004	Yes	2.877	-0.004	4.0	GoodResponse	0	0.232	470.501	7	49	Target	Neutral	True
471.501	0.3	Control	0.68	0.004	Yes	2.877	-0.004	4.0	GoodResponse	0	0.232	n/a	7	49	ButtonPress	Neutral	True
471.57	0.4	Control	0.68	n/a	Yes	2.877	n/a	n/a	GoodResponse	0	n/a	n/a	7	49	Blank	Neutral	True
471.971	1.45	Control	0.68	n/a	Yes	2.877	n/a	5.0	GoodResponse	0	0.047	471.018	7	49	Feedback	Neutral	True
473.426	2.877	Control	0.68	n/a	Yes	2.877	n/a	n/a	GoodResponse	0	0.0	n/a	7	49	ISIslide	Neutral	True
476.318	0.25	Control	0.6862999999999999	0.0	Yes	2.782	0.018	n/a	GoodResponse	0	n/a	n/a	7	50	Cue	Neutral	True
476.568	4.0	Control	0.6862999999999999	0.0	Yes	2.782	0.0	n/a	GoodResponse	0	n/a	n/a	7	50	Fixation	Neutral	True
480.564	0.29	Control	0.6862999999999999	0.004	Yes	2.782	-0.004	4.0	GoodResponse	0	0.209	479.773	7	50	Target	Neutral	True
480.773	0.3	Control	0.6862999999999999	0.004	Yes	2.782	-0.004	4.0	GoodResponse	0	0.209	n/a	7	50	ButtonPress	Neutral	True
480.865	0.41	Control	0.6862999999999999	n/a	Yes	2.782	n/a	n/a	GoodResponse	0	n/a	n/a	7	50	Blank	Neutral	True
481.266	1.45	Control	0.6862999999999999	n/a	Yes	2.782	n/a	5.0	GoodResponse	0	0.021	480.287	7	50	Feedback	Neutral	True
482.72	2.782	Control	0.6862999999999999	n/a	Yes	2.782	n/a	n/a	GoodResponse	0	0.0	n/a	7	50	ISIslide	Neutral	True
485.528	0.25	Control	0.6731	0.001	No	2.722	0.028	n/a	LatePress	0	n/a	n/a	7	51	Cue	Neutral	True
485.779	3.95	Control	0.6731	0.0	No	2.722	0.001	n/a	LatePress	0	n/a	n/a	7	51	Fixation	Neutral	True
489.724	0.28	Control	0.6731	0.004	No	2.722	-0.004	4.0	LatePress	0	0.285	489.009	7	51	Target	Neutral	True
490.009	0.42	Control	0.6731	n/a	No	2.722	n/a	n/a	LatePress	0	n/a	n/a	7	51	Blank	Neutral	True
490.009	0.3	Control	0.6731	0.004	No	2.722	-0.004	4.0	LatePress	0	0.285	n/a	7	51	ButtonPress	Neutral	True
490.426	1.45	Control	0.6731	n/a	No	2.722	n/a	5.0	LatePress	0	0.031	489.457	7	51	Feedback	Neutral	True
491.881	2.722	Control	0.6731	n/a	No	2.722	n/a	n/a	LatePress	0	0.0	n/a	7	51	ISIslide	Neutral	True
494.622	0.25	Control	0.6792	0.0	Yes	2.628	0.022	n/a	GoodResponse	0	n/a	n/a	7	52	Cue	Neutral	True
494.873	4.05	Control	0.6792	0.0	Yes	2.628	0.001	n/a	GoodResponse	0	n/a	n/a	7	52	Fixation	Neutral	True
498.919	0.27	Control	0.6792	0.003	Yes	2.628	-0.003	4.0	GoodResponse	0	0.228	498.147	7	52	Target	Neutral	True
499.147	0.3	Control	0.6792	0.003	Yes	2.628	-0.003	4.0	GoodResponse	0	0.228	n/a	7	52	ButtonPress	Neutral	True
499.203	0.43	Control	0.6792	n/a	Yes	2.628	n/a	n/a	GoodResponse	0	n/a	n/a	7	52	Blank	Neutral	True
499.621	1.45	Control	0.6792	n/a	Yes	2.628	n/a	5.0	GoodResponse	0	0.006	498.627	7	52	Feedback	Neutral	True
501.075	2.628	Control	0.6792	n/a	Yes	2.628	n/a	n/a	GoodResponse	0	0.0	n/a	7	52	ISIslide	Neutral	True
503.716	0.25	Win2	0.6851999999999999	0.0	Yes	2.934	0.016	n/a	GoodResponse	1	n/a	n/a	8	53	Cue	Win	True
503.967	4.05	Win2	0.6851999999999999	0.0	Yes	2.934	0.001	n/a	GoodResponse	1	n/a	n/a	8	53	Fixation	Win	True
508.012	0.26	Win2	0.6851999999999999	0.004	Yes	2.934	-0.004	4.0	GoodResponse	1	0.232	507.244	8	53	Target	Win	True
508.244	0.3	Win2	0.6851999999999999	0.004	Yes	2.934	-0.004	4.0	GoodResponse	1	0.232	n/a	8	53	ButtonPress	Win	True
508.28	0.44	Win2	0.6851999999999999	n/a	Yes	2.934	n/a	n/a	GoodResponse	1	n/a	n/a	8	53	Blank	Win	True
508.714	1.45	Win2	0.6851999999999999	n/a	Yes	2.934	n/a	5.0	GoodResponse	1	0.035	507.749	8	53	Feedback	Win	True
510.169	2.934	Win2	0.6851999999999999	n/a	Yes	2.934	n/a	n/a	GoodResponse	1	0.0	n/a	8	53	ISIslide	Win	True
513.128	0.25	Win2	0.6909000000000001	0.0	Yes	2.722	0.028	n/a	GoodResponse	1	n/a	n/a	9	54	Cue	Win	True
513.378	3.95	Win2	0.6909000000000001	0.0	Yes	2.722	0.0	n/a	GoodResponse	1	n/a	n/a	9	54	Fixation	Win	True
517.324	0.25	Win2	0.6909000000000001	0.004	Yes	2.722	-0.004	4.0	GoodResponse	1	0.209	516.533	9	54	Target	Win	True
517.533	0.3	Win2	0.6909000000000001	0.004	Yes	2.722	-0.004	4.0	GoodResponse	1	0.209	n/a	9	54	ButtonPress	Win	True
517.574	0.45	Win2	0.6909000000000001	n/a	Yes	2.722	n/a	n/a	GoodResponse	1	n/a	n/a	9	54	Blank	Win	True
518.026	1.45	Win2	0.6909000000000001	n/a	Yes	2.722	n/a	5.0	GoodResponse	1	0.04	517.066	9	54	Feedback	Win	True
519.48	2.722	Win2	0.6909000000000001	n/a	Yes	2.722	n/a	n/a	GoodResponse	1	0.0	n/a	9	54	ISIslide	Win	True
522.222	0.25	Control	0.6786	0.0	No	3.028	0.022	n/a	NoResponse	0	n/a	n/a	9	55	Cue	Neutral	True
522.472	3.95	Control	0.6786	0.0	No	3.028	0.0	n/a	NoResponse	0	n/a	n/a	9	55	Fixation	Neutral	True
526.434	0.24	Control	0.6786	0.0	No	3.028	0.012	4.0	NoResponse	0	0.292	525.726	9	55	Target	Neutral	True
526.668	0.46	Control	0.6786	n/a	No	3.028	n/a	n/a	NoResponse	0	n/a	n/a	9	55	Blank	Neutral	True
526.726	0.3	Control	0.6786	0.0	No	3.028	0.012	4.0	NoResponse	0	0.292	n/a	9	55	ButtonPress	Neutral	True
527.119	1.45	Control	0.6786	n/a	No	3.028	n/a	5.0	NoResponse	0	0.021	526.14	9	55	Feedback	Neutral	True
528.574	3.028	Control	0.6786	n/a	No	3.028	n/a	n/a	NoResponse	0	0.0	n/a	9	55	ISIslide	Neutral	True
531.616	0.25	Control	0.6842	0.0	Yes	2.834	0.016	n/a	GoodResponse	0	n/a	n/a	9	56	Cue	Neutral	True
531.867	3.95	Control	0.6842	0.0	Yes	2.834	0.001	n/a	GoodResponse	0	n/a	n/a	9	56	Fixation	Neutral	True
535.812	0.23	Control	0.6842	0.004	Yes	2.834	-0.004	4.0	GoodResponse	0	0.218	535.03	9	56	Target	Neutral	True
536.03	0.3	Control	0.6842	0.004	Yes	2.834	-0.004	4.0	GoodResponse	0	0.218	n/a	9	56	ButtonPress	Neutral	True
536.046	0.47	Control	0.6842	n/a	Yes	2.834	n/a	n/a	GoodResponse	0	n/a	n/a	9	56	Blank	Neutral	True
536.514	1.45	Control	0.6842	n/a	Yes	2.834	n/a	5.0	GoodResponse	0	0.04	535.554	9	56	Feedback	Neutral	True
537.969	2.834	Control	0.6842	n/a	Yes	2.834	n/a	n/a	GoodResponse	0	0.0	n/a	9	56	ISIslide	Neutral	True
540.827	0.25	Control	0.6897	0.0	Yes	3.473	0.027	n/a	GoodResponse	0	n/a	n/a	9	57	Cue	Neutral	True
541.078	4.0	Control	0.6897	0.0	Yes	3.473	0.001	n/a	GoodResponse	0	n/a	n/a	9	57	Fixation	Neutral	True
545.073	0.22	Control	0.6897	0.004	Yes	3.473	-0.004	4.0	GoodResponse	0	0.204	544.277	9	57	Target	Neutral	True
545.277	0.3	Control	0.6897	0.004	Yes	3.473	-0.004	4.0	GoodResponse	0	0.204	n/a	9	57	ButtonPress	Neutral	True
545.307	0.48	Control	0.6897	n/a	Yes	3.473	n/a	n/a	GoodResponse	0	n/a	n/a	9	57	Blank	Neutral	True
545.775	1.45	Control	0.6897	n/a	Yes	3.473	n/a	5.0	GoodResponse	0	0.047	544.822	9	57	Feedback	Neutral	True
547.23	3.473	Control	0.6897	n/a	Yes	3.473	n/a	n/a	GoodResponse	0	0.0	n/a	9	57	ISIslide	Neutral	True
550.723	0.25	Win2	0.6779999999999999	0.001	No	2.727	0.023	n/a	NoResponse	0	n/a	n/a	9	58	Cue	MissedWin	False
550.974	4.05	Win2	0.6779999999999999	0.0	No	2.727	0.001	4.0	NoResponse	0	0.268	550.242	9	58	Fixation	MissedWin	False
551.242	0.3	Win2	0.6779999999999999	0.0	No	2.727	0.001	4.0	NoResponse	0	0.268	n/a	9	58	ButtonPress	MissedWin	False
555.02	0.21	Win2	0.6779999999999999	0.003	No	2.727	-0.003	4.0	NoResponse	0	0.284	554.304	9	58	Target	MissedWin	False
555.237	0.49	Win2	0.6779999999999999	n/a	No	2.727	n/a	n/a	NoResponse	0	n/a	n/a	9	58	Blank	MissedWin	False
555.304	0.3	Win2	0.6779999999999999	0.003	No	2.727	-0.003	4.0	NoResponse	0	0.284	n/a	9	58	ButtonPress	MissedWin	False
555.722	1.45	Win2	0.6779999999999999	n/a	No	2.727	n/a	5.0	NoResponse	0	0.006	554.728	9	58	Feedback	MissedWin	False
557.176	2.727	Win2	0.6779999999999999	n/a	No	2.727	n/a	n/a	NoResponse	0	0.0	n/a	9	58	ISIslide	MissedWin	False
559.918	0.25	Lose2	0.6667000000000001	0.0	No	2.682	0.018	n/a	NoResponse	-1	n/a	n/a	8	59	Cue	Loss	True
560.168	4.0	Lose2	0.6667000000000001	0.0	No	2.682	0.0	n/a	NoResponse	-1	n/a	n/a	8	59	Fixation	Loss	True
564.164	0.2	Lose2	0.6667000000000001	0.004	No	2.682	-0.004	4.0	NoResponse	-1	0.229	563.393	8	59	Target	Loss	True
564.364	0.5	Lose2	0.6667000000000001	n/a	No	2.682	n/a	n/a	NoResponse	-1	n/a	n/a	8	59	Blank	Loss	True
564.393	0.3	Lose2	0.6667000000000001	0.004	No	2.682	-0.004	4.0	NoResponse	-1	0.229	n/a	8	59	ButtonPress	Loss	True
564.866	1.45	Lose2	0.6667000000000001	n/a	No	2.682	n/a	5.0	NoResponse	-1	0.029	563.895	8	59	Feedback	Loss	True
566.32	2.682	Lose2	0.6667000000000001	n/a	No	2.682	n/a	n/a	NoResponse	-1	0.0	n/a	8	59	ISIslide	Loss	True
569.028	0.25	Control	0.6557	0.0	No	2.672	0.028	n/a	NoResponse	0	n/a	n/a	8	60	Cue	Neutral	True
569.279	4.0	Control	0.6557	0.0	No	2.672	0.001	n/a	NoResponse	0	n/a	n/a	8	60	Fixation	Neutral	True
573.274	0.19	Control	0.6557	0.004	No	2.672	-0.004	4.0	NoResponse	0	0.244	572.518	8	60	Target	Neutral	True
573.475	0.51	Control	0.6557	n/a	No	2.672	n/a	n/a	NoResponse	0	n/a	n/a	8	60	Blank	Neutral	True
573.518	0.3	Control	0.6557	0.004	No	2.672	-0.004	4.0	NoResponse	0	0.244	n/a	8	60	ButtonPress	Neutral	True
573.976	1.45	Control	0.6557	n/a	No	2.672	n/a	5.0	NoResponse	0	0.041	573.017	8	60	Feedback	Neutral	True
575.431	2.672	Control	0.6557	n/a	No	2.672	n/a	n/a	NoResponse	0	0.0	n/a	8	60	ISIslide	Neutral	True
578.122	0.25	Lose2	0.6452	0.0	No	2.978	0.022	n/a	NoResponse	-1	n/a	n/a	7	61	Cue	Loss	True
578.373	4.0	Lose2	0.6452	0.0	No	2.978	0.001	n/a	NoResponse	-1	n/a	n/a	7	61	Fixation	Loss	True
582.368	0.19	Lose2	0.6452	0.004	No	2.978	-0.004	4.0	NoResponse	-1	0.209	581.577	7	61	Target	Loss	True
582.569	0.51	Lose2	0.6452	n/a	No	2.978	n/a	n/a	NoResponse	-1	n/a	n/a	7	61	Blank	Loss	True
582.577	0.3	Lose2	0.6452	0.004	No	2.978	-0.004	4.0	NoResponse	-1	0.209	n/a	7	61	ButtonPress	Loss	True
583.07	1.45	Lose2	0.6452	n/a	No	2.978	n/a	5.0	NoResponse	-1	0.021	582.091	7	61	Feedback	Loss	True
584.525	2.978	Lose2	0.6452	n/a	No	2.978	n/a	n/a	NoResponse	-1	0.0	n/a	7	61	ISIslide	Loss	True
587.517	0.25	Lose2	0.6507999999999999	0.0	Yes	2.883	0.017	n/a	GoodResponse	0	n/a	n/a	7	62	Cue	AvoidedLoss	True
587.767	3.9	Lose2	0.6507999999999999	0.001	Yes	2.883	0.0	n/a	GoodResponse	0	n/a	n/a	7	62	Fixation	AvoidedLoss	True
591.662	0.2	Lose2	0.6507999999999999	0.005	Yes	2.883	-0.005	4.0	GoodResponse	0	0.187	590.849	7	62	Target	AvoidedLoss	True
591.849	0.3	Lose2	0.6507999999999999	0.005	Yes	2.883	-0.005	4.0	GoodResponse	0	0.187	n/a	7	62	ButtonPress	AvoidedLoss	True
591.863	0.5	Lose2	0.6507999999999999	n/a	Yes	2.883	n/a	n/a	GoodResponse	0	n/a	n/a	7	62	Blank	AvoidedLoss	True
592.365	1.45	Lose2	0.6507999999999999	n/a	Yes	2.883	n/a	5.0	GoodResponse	0	0.042	591.407	7	62	Feedback	AvoidedLoss	True
593.819	2.883	Lose2	0.6507999999999999	n/a	Yes	2.883	n/a	n/a	GoodResponse	0	0.0	n/a	7	62	ISIslide	AvoidedLoss	True
596.728	0.25	Lose2	0.6562	0.0	Yes	2.622	0.028	n/a	GoodResponse	0	n/a	n/a	7	63	Cue	AvoidedLoss	True
596.978	4.05	Lose2	0.6562	0.0	Yes	2.622	0.0	n/a	GoodResponse	0	n/a	n/a	7	63	Fixation	AvoidedLoss	True
601.024	0.21	Lose2	0.6562	0.004	Yes	2.622	-0.004	4.0	GoodResponse	0	0.191	600.215	7	63	Target	AvoidedLoss	True
601.215	0.3	Lose2	0.6562	0.004	Yes	2.622	-0.004	4.0	GoodResponse	0	0.191	n/a	7	63	ButtonPress	AvoidedLoss	True
601.241	0.49	Lose2	0.6562	n/a	Yes	2.622	n/a	n/a	GoodResponse	0	n/a	n/a	7	63	Blank	AvoidedLoss	True
601.726	1.45	Lose2	0.6562	n/a	Yes	2.622	n/a	5.0	GoodResponse	0	0.047	600.773	7	63	Feedback	AvoidedLoss	True
603.18	2.622	Lose2	0.6562	n/a	Yes	2.622	n/a	n/a	GoodResponse	0	0.0	n/a	7	63	ISIslide	AvoidedLoss	True
605.821	0.25	Win2	0.6462	0.001	No	3.129	0.021	n/a	LatePress	0	n/a	n/a	7	64	Cue	MissedWin	True
606.072	4.15	Win2	0.6462	0.0	No	3.129	0.001	n/a	LatePress	0	n/a	n/a	7	64	Fixation	MissedWin	True
610.218	0.21	Win2	0.6462	0.003	No	3.129	-0.003	4.0	LatePress	0	0.211	609.429	7	64	Target	MissedWin	True
610.429	0.3	Win2	0.6462	0.003	No	3.129	-0.003	4.0	LatePress	0	0.211	n/a	7	64	ButtonPress	MissedWin	True
610.435	0.49	Win2	0.6462	n/a	No	3.129	n/a	n/a	LatePress	0	n/a	n/a	7	64	Blank	MissedWin	True
610.92	1.45	Win2	0.6462	n/a	No	3.129	n/a	5.0	LatePress	0	0.023	609.943	7	64	Feedback	MissedWin	True
612.374	3.129	Win2	0.6462	n/a	No	3.129	n/a	n/a	LatePress	0	0.0	n/a	7	64	ISIslide	MissedWin	True
615.517	0.25	Control	0.6364	0.0	No	2.783	0.017	n/a	NoResponse	0	n/a	n/a	7	65	Cue	Neutral	True
615.768	4.0	Control	0.6364	0.0	No	2.783	0.001	n/a	NoResponse	0	n/a	n/a	7	65	Fixation	Neutral	True
619.763	0.22	Control	0.6364	0.004	No	2.783	-0.004	4.0	NoResponse	0	0.344	619.107	7	65	Target	Neutral	True
619.997	0.48	Control	0.6364	n/a	No	2.783	n/a	n/a	NoResponse	0	n/a	n/a	7	65	Blank	Neutral	True
620.107	0.3	Control	0.6364	0.004	No	2.783	-0.004	4.0	NoResponse	0	0.344	n/a	7	65	ButtonPress	Neutral	True
620.465	1.45	Control	0.6364	n/a	No	2.783	n/a	5.0	NoResponse	0	0.04	619.505	7	65	Feedback	Neutral	True
621.92	2.783	Control	0.6364	n/a	No	2.783	n/a	n/a	NoResponse	0	0.0	n/a	7	65	ISIslide	Neutral	True
624.728	0.25	Win2	0.6418	0.0	Yes	2.772	0.028	n/a	GoodResponse	1	n/a	n/a	8	66	Cue	Win	True
624.979	3.9	Win2	0.6418	0.0	Yes	2.772	0.001	n/a	GoodResponse	1	n/a	n/a	8	66	Fixation	Win	True
628.874	0.23	Win2	0.6418	0.004	Yes	2.772	-0.004	4.0	GoodResponse	1	0.219	628.093	8	66	Target	Win	True
629.093	0.3	Win2	0.6418	0.004	Yes	2.772	-0.004	4.0	GoodResponse	1	0.219	n/a	8	66	ButtonPress	Win	True
629.108	0.47	Win2	0.6418	n/a	Yes	2.772	n/a	n/a	GoodResponse	1	n/a	n/a	8	66	Blank	Win	True
629.576	1.45	Win2	0.6418	n/a	Yes	2.772	n/a	5.0	GoodResponse	1	0.001	628.577	8	66	Feedback	Win	True
631.03	2.772	Win2	0.6418	n/a	Yes	2.772	n/a	n/a	GoodResponse	1	0.0	n/a	8	66	ISIslide	Win	True
633.822	0.25	Control	0.6324000000000001	0.0	No	2.728	0.022	n/a	NoResponse	0	n/a	n/a	8	67	Cue	Neutral	True
634.073	3.95	Control	0.6324000000000001	0.0	No	2.728	0.001	n/a	NoResponse	0	n/a	n/a	8	67	Fixation	Neutral	True
638.018	0.24	Control	0.6324000000000001	0.004	No	2.728	-0.004	4.0	NoResponse	0	0.325	637.343	8	67	Target	Neutral	True
638.268	0.46	Control	0.6324000000000001	n/a	No	2.728	n/a	n/a	NoResponse	0	n/a	n/a	8	67	Blank	Neutral	True
638.343	0.3	Control	0.6324000000000001	0.004	No	2.728	-0.004	4.0	NoResponse	0	0.325	n/a	8	67	ButtonPress	Neutral	True
638.72	1.45	Control	0.6324000000000001	n/a	No	2.728	n/a	5.0	NoResponse	0	0.028	637.748	8	67	Feedback	Neutral	True
640.174	2.728	Control	0.6324000000000001	n/a	No	2.728	n/a	n/a	NoResponse	0	0.0	n/a	8	67	ISIslide	Neutral	True
642.916	0.25	Win2	0.6377	0.0	Yes	3.084	0.016	n/a	GoodResponse	1	n/a	n/a	9	68	Cue	Win	True
643.166	4.0	Win2	0.6377	0.001	Yes	3.084	0.0	n/a	GoodResponse	1	n/a	n/a	9	68	Fixation	Win	True
647.162	0.25	Win2	0.6377	0.004	Yes	3.084	-0.004	4.0	GoodResponse	1	0.198	646.36	9	68	Target	Win	True
647.36	0.3	Win2	0.6377	0.004	Yes	3.084	-0.004	4.0	GoodResponse	1	0.198	n/a	9	68	ButtonPress	Win	True
647.412	0.45	Win2	0.6377	n/a	Yes	3.084	n/a	n/a	GoodResponse	1	n/a	n/a	9	68	Blank	Win	True
647.864	1.45	Win2	0.6377	n/a	Yes	3.084	n/a	5.0	GoodResponse	1	0.008	646.872	9	68	Feedback	Win	True
649.318	3.084	Win2	0.6377	n/a	Yes	3.084	n/a	n/a	GoodResponse	1	0.0	n/a	9	68	ISIslide	Win	True
652.427	0.25	Win2	0.6429	0.001	Yes	3.223	0.027	n/a	GoodResponse	1	n/a	n/a	10	69	Cue	Win	True
652.678	3.95	Win2	0.6429	0.0	Yes	3.223	0.001	n/a	GoodResponse	1	n/a	n/a	10	69	Fixation	Win	True
656.623	0.26	Win2	0.6429	0.004	Yes	3.223	-0.004	4.0	GoodResponse	1	0.21	655.833	10	69	Target	Win	True
656.833	0.3	Win2	0.6429	0.004	Yes	3.223	-0.004	4.0	GoodResponse	1	0.21	n/a	10	69	ButtonPress	Win	True
656.891	0.44	Win2	0.6429	n/a	Yes	3.223	n/a	n/a	GoodResponse	1	n/a	n/a	10	69	Blank	Win	True
657.325	1.45	Win2	0.6429	n/a	Yes	3.223	n/a	5.0	GoodResponse	1	0.008	656.333	10	69	Feedback	Win	True
658.78	3.223	Win2	0.6429	n/a	Yes	3.223	n/a	n/a	GoodResponse	1	0.0	n/a	10	69	ISIslide	Win	True
662.023	0.25	Lose2	0.6479	0.0	Yes	3.027	0.023	n/a	GoodResponse	0	n/a	n/a	10	70	Cue	AvoidedLoss	True
662.274	4.05	Lose2	0.6479	0.0	Yes	3.027	0.001	n/a	GoodResponse	0	n/a	n/a	10	70	Fixation	AvoidedLoss	True
666.319	0.27	Lose2	0.6479	0.004	Yes	3.027	-0.004	4.0	GoodResponse	0	0.233	665.552	10	70	Target	AvoidedLoss	True
666.552	0.3	Lose2	0.6479	0.004	Yes	3.027	-0.004	4.0	GoodResponse	0	0.233	n/a	10	70	ButtonPress	AvoidedLoss	True
666.603	0.43	Lose2	0.6479	n/a	Yes	3.027	n/a	n/a	GoodResponse	0	n/a	n/a	10	70	Blank	AvoidedLoss	True
667.021	1.45	Lose2	0.6479	n/a	Yes	3.027	n/a	5.0	GoodResponse	0	0.02	666.041	10	70	Feedback	AvoidedLoss	True
668.475	3.027	Lose2	0.6479	n/a	Yes	3.027	n/a	n/a	GoodResponse	0	0.0	n/a	10	70	ISIslide	AvoidedLoss	True
671.518	0.25	Win2	0.6528	0.0	Yes	2.732	0.018	n/a	GoodResponse	1	n/a	n/a	11	71	Cue	Win	True
671.769	4.05	Win2	0.6528	0.0	Yes	2.732	0.001	n/a	GoodResponse	1	n/a	n/a	11	71	Fixation	Win	True
675.814	0.28	Win2	0.6528	0.004	Yes	2.732	-0.004	4.0	GoodResponse	1	0.222	675.036	11	71	Target	Win	True
676.036	0.3	Win2	0.6528	0.004	Yes	2.732	-0.004	4.0	GoodResponse	1	0.222	n/a	11	71	ButtonPress	Win	True
676.098	0.42	Win2	0.6528	n/a	Yes	2.732	n/a	n/a	GoodResponse	1	n/a	n/a	11	71	Blank	Win	True
676.516	1.45	Win2	0.6528	n/a	Yes	2.732	n/a	5.0	GoodResponse	1	0.036	675.552	11	71	Feedback	Win	True
677.971	2.732	Win2	0.6528	n/a	Yes	2.732	n/a	n/a	GoodResponse	1	0.0	n/a	11	71	ISIslide	Win	True
680.729	0.25	Win2	0.6575	0.0	Yes	2.771	0.029	n/a	GoodResponse	1	n/a	n/a	12	72	Cue	Win	True
680.98	4.1	Win2	0.6575	0.0	Yes	2.771	0.001	n/a	GoodResponse	1	n/a	n/a	12	72	Fixation	Win	True
685.075	0.29	Win2	0.6575	0.004	Yes	2.771	-0.004	4.0	GoodResponse	1	0.207	684.282	12	72	Target	Win	True
685.282	0.3	Win2	0.6575	0.004	Yes	2.771	-0.004	4.0	GoodResponse	1	0.207	n/a	12	72	ButtonPress	Win	True
685.376	0.41	Win2	0.6575	n/a	Yes	2.771	n/a	n/a	GoodResponse	1	n/a	n/a	12	72	Blank	Win	True
685.777	1.45	Win2	0.6575	n/a	Yes	2.771	n/a	5.0	GoodResponse	1	0.043	684.82	12	72	Feedback	Win	True
687.232	2.771	Win2	0.6575	n/a	Yes	2.771	n/a	n/a	GoodResponse	1	0.0	n/a	12	72	ISIslide	Win	True
690.023	0.25	Win2	0.6622	0.0	Yes	2.677	0.023	n/a	GoodResponse	1	n/a	n/a	13	73	Cue	Win	True
690.274	4.0	Win2	0.6622	0.0	Yes	2.677	0.001	n/a	GoodResponse	1	n/a	n/a	13	73	Fixation	Win	True
694.269	0.29	Win2	0.6622	0.004	Yes	2.677	-0.004	4.0	GoodResponse	1	0.243	693.512	13	73	Target	Win	True
694.512	0.3	Win2	0.6622	0.004	Yes	2.677	-0.004	4.0	GoodResponse	1	0.243	n/a	13	73	ButtonPress	Win	True
694.57	0.41	Win2	0.6622	n/a	Yes	2.677	n/a	n/a	GoodResponse	1	n/a	n/a	13	73	Blank	Win	True
694.971	1.45	Win2	0.6622	n/a	Yes	2.677	n/a	5.0	GoodResponse	1	0.02	693.991	13	73	Feedback	Win	True
696.426	2.677	Win2	0.6622	n/a	Yes	2.677	n/a	n/a	GoodResponse	1	0.0	n/a	13	73	ISIslide	Win	True
699.117	0.25	Lose2	0.6667000000000001	0.0	Yes	2.633	0.017	n/a	GoodResponse	0	n/a	n/a	13	74	Cue	AvoidedLoss	True
699.368	4.05	Lose2	0.6667000000000001	0.0	Yes	2.633	0.001	n/a	GoodResponse	0	n/a	n/a	13	74	Fixation	AvoidedLoss	True
703.413	0.29	Lose2	0.6667000000000001	0.004	Yes	2.633	-0.004	4.0	GoodResponse	0	0.211	702.624	13	74	Target	AvoidedLoss	True
703.624	0.3	Lose2	0.6667000000000001	0.004	Yes	2.633	-0.004	4.0	GoodResponse	0	0.211	n/a	13	74	ButtonPress	AvoidedLoss	True
703.714	0.41	Lose2	0.6667000000000001	n/a	Yes	2.633	n/a	n/a	GoodResponse	0	n/a	n/a	13	74	Blank	AvoidedLoss	True
704.115	1.45	Lose2	0.6667000000000001	n/a	Yes	2.633	n/a	5.0	GoodResponse	0	0.047	703.162	13	74	Feedback	AvoidedLoss	True
705.57	2.633	Lose2	0.6667000000000001	n/a	Yes	2.633	n/a	n/a	GoodResponse	0	0.0	n/a	13	74	ISIslide	AvoidedLoss	True
708.228	0.25	Lose2	0.6711	0.0	Yes	2.922	0.028	n/a	GoodResponse	0	n/a	n/a	13	75	Cue	AvoidedLoss	True
708.478	3.95	Lose2	0.6711	0.0	Yes	2.922	0.0	n/a	GoodResponse	0	n/a	n/a	13	75	Fixation	AvoidedLoss	True
712.424	0.28	Lose2	0.6711	0.004	Yes	2.922	-0.004	4.0	GoodResponse	0	0.277	711.701	13	75	Target	AvoidedLoss	True
712.701	0.3	Lose2	0.6711	0.004	Yes	2.922	-0.004	4.0	GoodResponse	0	0.277	n/a	13	75	ButtonPress	AvoidedLoss	True
712.708	0.42	Lose2	0.6711	n/a	Yes	2.922	n/a	n/a	GoodResponse	0	n/a	n/a	13	75	Blank	AvoidedLoss	True
713.126	1.45	Lose2	0.6711	n/a	Yes	2.922	n/a	5.0	GoodResponse	0	0.012	712.138	13	75	Feedback	AvoidedLoss	True
714.58	2.922	Lose2	0.6711	n/a	Yes	2.922	n/a	n/a	GoodResponse	0	0.0	n/a	13	75	ISIslide	AvoidedLoss	True
717.522	0.25	Control	0.6623	0.0	No	3.228	0.022	n/a	NoResponse	0	n/a	n/a	13	76	Cue	Neutral	True
717.773	4.05	Control	0.6623	0.0	No	3.228	0.001	n/a	NoResponse	0	n/a	n/a	13	76	Fixation	Neutral	True
721.818	0.27	Control	0.6623	0.004	No	3.228	-0.004	4.0	NoResponse	0	0.324	721.142	13	76	Target	Neutral	True
722.102	0.43	Control	0.6623	n/a	No	3.228	n/a	n/a	NoResponse	0	n/a	n/a	13	76	Blank	Neutral	True
722.142	0.3	Control	0.6623	0.004	No	3.228	-0.004	4.0	NoResponse	0	0.324	n/a	13	76	ButtonPress	Neutral	True
722.52	1.45	Control	0.6623	n/a	No	3.228	n/a	5.0	NoResponse	0	0.031	721.551	13	76	Feedback	Neutral	True
723.975	3.228	Control	0.6623	n/a	No	3.228	n/a	n/a	NoResponse	0	0.0	n/a	13	76	ISIslide	Neutral	True
727.218	0.25	Lose2	0.6667000000000001	0.0	Yes	2.582	0.018	n/a	GoodResponse	0	n/a	n/a	13	77	Cue	AvoidedLoss	True
727.469	3.95	Lose2	0.6667000000000001	0.0	Yes	2.582	0.001	n/a	GoodResponse	0	n/a	n/a	13	77	Fixation	AvoidedLoss	True
731.414	0.27	Lose2	0.6667000000000001	0.004	Yes	2.582	-0.004	4.0	GoodResponse	0	0.19	730.604	13	77	Target	AvoidedLoss	True
731.604	0.3	Lose2	0.6667000000000001	0.004	Yes	2.582	-0.004	4.0	GoodResponse	0	0.19	n/a	13	77	ButtonPress	AvoidedLoss	True
731.698	0.43	Lose2	0.6667000000000001	n/a	Yes	2.582	n/a	n/a	GoodResponse	0	n/a	n/a	13	77	Blank	AvoidedLoss	True
732.116	1.45	Lose2	0.6667000000000001	n/a	Yes	2.582	n/a	5.0	GoodResponse	0	0.045	731.161	13	77	Feedback	AvoidedLoss	True
733.57	2.582	Lose2	0.6667000000000001	n/a	Yes	2.582	n/a	n/a	GoodResponse	0	0.0	n/a	13	77	ISIslide	AvoidedLoss	True
