onset	duration	cue_type	current_mean_accuracy	duration_error	is_hit	isi_adjusted	onset_delay	response	response_type	reward	rt	rt_time	total_reward	trial_number	trial_phase	trial_type	one_press
11.1	0.25	Control	1.0	0.0	Yes	2.95	0.0	n/a	GoodResponse	0	n/a	n/a	0	0	Cue	Neutral	True
11.351	3.85	Control	1.0	0.0	Yes	2.95	0.001	n/a	GoodResponse	0	n/a	n/a	0	0	Fixation	Neutral	True
15.196	0.4	Control	1.0	0.004	Yes	2.95	-0.004	1.0	GoodResponse	0	0.215	14.411	0	0	Target	Neutral	True
15.411	0.3	Control	1.0	0.004	Yes	2.95	-0.004	1.0	GoodResponse	0	0.215	n/a	0	0	ButtonPress	Neutral	True
15.597	0.3	Control	1.0	n/a	Yes	2.95	n/a	n/a	GoodResponse	0	n/a	n/a	0	0	Blank	Neutral	True
15.898	1.45	Control	1.0	n/a	Yes	2.95	n/a	5.0	GoodResponse	0	0.039	14.937	0	0	Feedback	Neutral	True
17.352	2.95	Control	1.0	n/a	Yes	2.95	n/a	n/a	GoodResponse	0	0.0	n/a	0	0	ISIslide	Neutral	True
20.328	0.25	Lose2	1.0	0.0	Yes	2.772	0.028	n/a	GoodResponse	0	n/a	n/a	0	1	Cue	AvoidedLoss	True
20.578	4.0	Lose2	1.0	0.0	Yes	2.772	0.0	n/a	GoodResponse	0	n/a	n/a	0	1	Fixation	AvoidedLoss	True
24.574	0.39	Lose2	1.0	0.004	Yes	2.772	-0.004	1.0	GoodResponse	0	0.223	23.797	0	1	Target	AvoidedLoss	True
24.797	0.3	Lose2	1.0	0.004	Yes	2.772	-0.004	1.0	GoodResponse	0	0.223	n/a	0	1	ButtonPress	AvoidedLoss	True
24.975	0.31	Lose2	1.0	n/a	Yes	2.772	n/a	n/a	GoodResponse	0	n/a	n/a	0	1	Blank	AvoidedLoss	True
25.276	1.45	Lose2	1.0	n/a	Yes	2.772	n/a	5.0	GoodResponse	0	0.036	24.312	0	1	Feedback	AvoidedLoss	True
26.73	2.772	Lose2	1.0	n/a	Yes	2.772	n/a	n/a	GoodResponse	0	0.0	n/a	0	1	ISIslide	AvoidedLoss	True
29.522	0.25	Control	1.0	0.0	Yes	2.578	0.022	n/a	GoodResponse	0	n/a	n/a	0	2	Cue	Neutral	True
29.772	4.1	Control	1.0	0.001	Yes	2.578	0.0	n/a	GoodResponse	0	n/a	n/a	0	2	Fixation	Neutral	True
33.868	0.38	Control	1.0	0.004	Yes	2.578	-0.004	1.0	GoodResponse	0	0.225	33.093	0	2	Target	Neutral	True
34.093	0.3	Control	1.0	0.004	Yes	2.578	-0.004	1.0	GoodResponse	0	0.225	n/a	0	2	ButtonPress	Neutral	True
34.253	0.32	Control	1.0	n/a	Yes	2.578	n/a	n/a	GoodResponse	0	n/a	n/a	0	2	Blank	Neutral	True
34.57	1.45	Control	1.0	n/a	Yes	2.578	n/a	5.0	GoodResponse	0	0.054	33.624	0	2	Feedback	Neutral	True
36.025	2.578	Control	1.0	n/a	Yes	2.578	n/a	n/a	GoodResponse	0	0.0	n/a	0	2	ISIslide	Neutral	True
38.632	0.25	Win2	1.0	0.0	Yes	2.818	0.032	n/a	GoodResponse	1	n/a	n/a	1	3	Cue	Win	True
38.883	3.95	Win2	1.0	0.0	Yes	2.818	0.001	n/a	GoodResponse	1	n/a	n/a	1	3	Fixation	Win	True
42.828	0.37	Win2	1.0	0.004	Yes	2.818	-0.004	1.0	GoodResponse	1	0.241	42.069	1	3	Target	Win	True
43.069	0.3	Win2	1.0	0.004	Yes	2.818	-0.004	1.0	GoodResponse	1	0.241	n/a	1	3	ButtonPress	Win	True
43.213	0.33	Win2	1.0	n/a	Yes	2.818	n/a	n/a	GoodResponse	1	n/a	n/a	1	3	Blank	Win	True
43.53	1.45	Win2	1.0	n/a	Yes	2.818	n/a	5.0	GoodResponse	1	0.032	42.562	1	3	Feedback	Win	True
44.985	2.818	Win2	1.0	n/a	Yes	2.818	n/a	n/a	GoodResponse	1	0.0	n/a	1	3	ISIslide	Win	True
47.826	0.25	Win2	1.0	0.001	Yes	3.274	0.026	n/a	GoodResponse	1	n/a	n/a	2	4	Cue	Win	True
48.077	4.0	Win2	1.0	0.0	Yes	3.274	0.001	n/a	GoodResponse	1	n/a	n/a	2	4	Fixation	Win	True
52.072	0.36	Win2	1.0	0.004	Yes	3.274	-0.004	1.0	GoodResponse	1	0.205	51.277	2	4	Target	Win	True
52.277	0.3	Win2	1.0	0.004	Yes	3.274	-0.004	1.0	GoodResponse	1	0.205	n/a	2	4	ButtonPress	Win	True
52.44	0.34	Win2	1.0	n/a	Yes	3.274	n/a	n/a	GoodResponse	1	n/a	n/a	2	4	Blank	Win	True
52.775	1.45	Win2	1.0	n/a	Yes	3.274	n/a	5.0	GoodResponse	1	0.037	51.812	2	4	Feedback	Win	True
54.229	3.274	Win2	1.0	n/a	Yes	3.274	n/a	n/a	GoodResponse	1	0.0	n/a	2	4	ISIslide	Win	True
57.522	0.25	Win2	1.0	0.0	Yes	2.778	0.022	n/a	GoodResponse	1	n/a	n/a	3	5	Cue	Win	True
57.773	4.0	Win2	1.0	0.0	Yes	2.778	0.001	n/a	GoodResponse	1	n/a	n/a	3	5	Fixation	Win	True
61.768	0.35	Win2	1.0	0.004	Yes	2.778	-0.004	1.0	GoodResponse	1	0.214	60.982	3	5	Target	Win	True
61.982	0.3	Win2	1.0	0.004	Yes	2.778	-0.004	1.0	GoodResponse	1	0.214	n/a	3	5	ButtonPress	Win	True
62.119	0.35	Win2	1.0	n/a	Yes	2.778	n/a	n/a	GoodResponse	1	n/a	n/a	3	5	Blank	Win	True
62.47	1.45	Win2	1.0	n/a	Yes	2.778	n/a	5.0	GoodResponse	1	0.029	61.499	3	5	Feedback	Win	True
63.925	2.778	Win2	1.0	n/a	Yes	2.778	n/a	n/a	GoodResponse	1	0.0	n/a	3	5	ISIslide	Win	True
66.716	0.25	Lose2	1.0	0.0	Yes	2.734	0.016	n/a	GoodResponse	0	n/a	n/a	3	6	Cue	AvoidedLoss	True
66.967	3.95	Lose2	1.0	0.0	Yes	2.734	0.001	n/a	GoodResponse	0	n/a	n/a	3	6	Fixation	AvoidedLoss	True
70.912	0.34	Lose2	1.0	0.004	Yes	2.734	-0.004	1.0	GoodResponse	0	0.287	70.199	3	6	Target	AvoidedLoss	True
71.199	0.3	Lose2	1.0	0.004	Yes	2.734	-0.004	1.0	GoodResponse	0	0.287	n/a	3	6	ButtonPress	AvoidedLoss	True
71.263	0.36	Lose2	1.0	n/a	Yes	2.734	n/a	n/a	GoodResponse	0	n/a	n/a	3	6	Blank	AvoidedLoss	True
71.614	1.45	Lose2	1.0	n/a	Yes	2.734	n/a	5.0	GoodResponse	0	0.01	70.624	3	6	Feedback	AvoidedLoss	True
73.069	2.734	Lose2	1.0	n/a	Yes	2.734	n/a	n/a	GoodResponse	0	0.0	n/a	3	6	ISIslide	AvoidedLoss	True
75.827	0.25	Lose2	1.0	0.0	Yes	4.023	0.027	n/a	GoodResponse	0	n/a	n/a	3	7	Cue	AvoidedLoss	True
76.078	4.05	Lose2	1.0	0.0	Yes	4.023	0.001	n/a	GoodResponse	0	n/a	n/a	3	7	Fixation	AvoidedLoss	True
80.123	0.33	Lose2	1.0	0.004	Yes	4.023	-0.004	1.0	GoodResponse	0	0.151	79.274	3	7	Target	AvoidedLoss	True
80.274	0.3	Lose2	1.0	0.004	Yes	4.023	-0.004	1.0	GoodResponse	0	0.151	n/a	3	7	ButtonPress	AvoidedLoss	True
80.457	0.37	Lose2	1.0	n/a	Yes	4.023	n/a	n/a	GoodResponse	0	n/a	n/a	3	7	Blank	AvoidedLoss	True
80.825	1.45	Lose2	1.0	n/a	Yes	4.023	n/a	5.0	GoodResponse	0	0.049	79.874	3	7	Feedback	AvoidedLoss	True
82.279	4.023	Lose2	1.0	n/a	Yes	4.023	n/a	n/a	GoodResponse	0	0.0	n/a	3	7	ISIslide	AvoidedLoss	True
86.325	0.25	Lose2	0.8889	0.0	No	3.025	0.025	n/a	NoResponse	-1	n/a	n/a	2	8	Cue	Loss	True
86.576	3.95	Lose2	0.8889	0.0	No	3.025	0.001	1.0	NoResponse	-1	3.779	89.355	2	8	Fixation	Loss	True
90.355	0.3	Lose2	0.8889	0.0	No	3.025	0.001	1.0	NoResponse	-1	3.779	n/a	2	8	ButtonPress	Loss	True
90.521	0.32	Lose2	0.8889	0.004	No	3.025	-0.004	n/a	NoResponse	-1	n/a	n/a	2	8	Target	Loss	True
90.855	0.38	Lose2	0.8889	n/a	No	3.025	n/a	n/a	NoResponse	-1	n/a	n/a	2	8	Blank	Loss	True
91.223	1.45	Lose2	0.8889	n/a	No	3.025	n/a	5.0	NoResponse	-1	0.026	90.249	2	8	Feedback	Loss	True
92.677	3.025	Lose2	0.8889	n/a	No	3.025	n/a	n/a	NoResponse	-1	0.0	n/a	2	8	ISIslide	Loss	True
95.72	0.25	Lose2	0.9	0.0	Yes	3.13	0.02	n/a	GoodResponse	0	n/a	n/a	2	9	Cue	AvoidedLoss	True
95.97	3.95	Lose2	0.9	0.0	Yes	3.13	0.0	n/a	GoodResponse	0	n/a	n/a	2	9	Fixation	AvoidedLoss	True
99.916	0.31	Lose2	0.9	0.004	Yes	3.13	-0.004	1.0	GoodResponse	0	0.226	99.142	2	9	Target	AvoidedLoss	True
100.142	0.3	Lose2	0.9	0.004	Yes	3.13	-0.004	1.0	GoodResponse	0	0.226	n/a	2	9	ButtonPress	AvoidedLoss	True
100.233	0.39	Lose2	0.9	n/a	Yes	3.13	n/a	n/a	GoodResponse	0	n/a	n/a	2	9	Blank	AvoidedLoss	True
100.618	1.45	Lose2	0.9	n/a	Yes	3.13	n/a	5.0	GoodResponse	0	0.007	99.625	2	9	Feedback	AvoidedLoss	True
102.072	3.13	Lose2	0.9	n/a	Yes	3.13	n/a	n/a	GoodResponse	0	0.0	n/a	2	9	ISIslide	AvoidedLoss	True
105.215	0.25	Control	0.9091	0.0	Yes	3.285	0.015	n/a	GoodResponse	0	n/a	n/a	2	10	Cue	Neutral	True
105.465	4.0	Control	0.9091	0.001	Yes	3.285	0.0	n/a	GoodResponse	0	n/a	n/a	2	10	Fixation	Neutral	True
109.461	0.3	Control	0.9091	0.004	Yes	3.285	-0.004	1.0	GoodResponse	0	0.23	108.691	2	10	Target	Neutral	True
109.691	0.3	Control	0.9091	0.004	Yes	3.285	-0.004	1.0	GoodResponse	0	0.23	n/a	2	10	ButtonPress	Neutral	True
109.762	0.4	Control	0.9091	n/a	Yes	3.285	n/a	n/a	GoodResponse	0	n/a	n/a	2	10	Blank	Neutral	True
110.163	1.45	Control	0.9091	n/a	Yes	3.285	n/a	5.0	GoodResponse	0	0.023	109.186	2	10	Feedback	Neutral	True
111.617	3.285	Control	0.9091	n/a	Yes	3.285	n/a	n/a	GoodResponse	0	0.0	n/a	2	10	ISIslide	Neutral	True
114.927	0.25	Lose2	0.9167000000000001	0.0	Yes	2.723	0.027	n/a	GoodResponse	0	n/a	n/a	2	11	Cue	AvoidedLoss	True
115.178	4.05	Lose2	0.9167000000000001	0.0	Yes	2.723	0.001	n/a	GoodResponse	0	n/a	n/a	2	11	Fixation	AvoidedLoss	True
119.223	0.29	Lose2	0.9167000000000001	0.004	Yes	2.723	-0.004	1.0	GoodResponse	0	0.201	118.424	2	11	Target	AvoidedLoss	True
119.424	0.3	Lose2	0.9167000000000001	0.004	Yes	2.723	-0.004	1.0	GoodResponse	0	0.201	n/a	2	11	ButtonPress	AvoidedLoss	True
119.524	0.41	Lose2	0.9167000000000001	n/a	Yes	2.723	n/a	n/a	GoodResponse	0	n/a	n/a	2	11	Blank	AvoidedLoss	True
119.925	1.45	Lose2	0.9167000000000001	n/a	Yes	2.723	n/a	5.0	GoodResponse	0	0.011	118.936	2	11	Feedback	AvoidedLoss	True
121.38	2.723	Lose2	0.9167000000000001	n/a	Yes	2.723	n/a	n/a	GoodResponse	0	0.0	n/a	2	11	ISIslide	AvoidedLoss	True
124.121	0.25	Control	0.8462000000000001	0.0	No	2.979	0.021	n/a	NoResponse	0	n/a	n/a	2	12	Cue	Neutral	True
124.372	3.9	Control	0.8462000000000001	0.0	No	2.979	0.001	n/a	NoResponse	0	n/a	n/a	2	12	Fixation	Neutral	True
128.267	0.28	Control	0.8462000000000001	0.004	No	2.979	-0.004	1.0	NoResponse	0	0.552	127.819	2	12	Target	Neutral	True
128.551	0.42	Control	0.8462000000000001	n/a	No	2.979	n/a	n/a	NoResponse	0	n/a	n/a	2	12	Blank	Neutral	True
128.819	0.3	Control	0.8462000000000001	0.004	No	2.979	-0.004	1.0	NoResponse	0	0.552	n/a	2	12	ButtonPress	Neutral	True
128.969	1.45	Control	0.8462000000000001	n/a	No	2.979	n/a	5.0	NoResponse	0	0.029	127.998	2	12	Feedback	Neutral	True
130.423	2.979	Control	0.8462000000000001	n/a	No	2.979	n/a	n/a	NoResponse	0	0.0	n/a	2	12	ISIslide	Neutral	True
133.416	0.25	Control	0.8571	0.0	Yes	2.784	0.016	n/a	GoodResponse	0	n/a	n/a	2	13	Cue	Neutral	True
133.666	4.0	Control	0.8571	0.001	Yes	2.784	0.0	n/a	GoodResponse	0	n/a	n/a	2	13	Fixation	Neutral	True
137.662	0.27	Control	0.8571	0.004	Yes	2.784	-0.004	1.0	GoodResponse	0	0.231	136.893	2	13	Target	Neutral	True
137.893	0.3	Control	0.8571	0.004	Yes	2.784	-0.004	1.0	GoodResponse	0	0.231	n/a	2	13	ButtonPress	Neutral	True
137.946	0.43	Control	0.8571	n/a	Yes	2.784	n/a	n/a	GoodResponse	0	n/a	n/a	2	13	Blank	Neutral	True
138.364	1.45	Control	0.8571	n/a	Yes	2.784	n/a	5.0	GoodResponse	0	0.009	137.373	2	13	Feedback	Neutral	True
139.818	2.784	Control	0.8571	n/a	Yes	2.784	n/a	n/a	GoodResponse	0	0.0	n/a	2	13	ISIslide	Neutral	True
142.627	0.25	Win2	0.8	0.0	No	2.673	0.027	n/a	NoResponse	0	n/a	n/a	2	14	Cue	MissedWin	False
142.877	4.1	Win2	0.8	0.0	No	2.673	0.0	1.0	NoResponse	0	3.72	145.597	2	14	Fixation	MissedWin	False
146.597	0.3	Win2	0.8	0.0	No	2.673	0.0	1.0	NoResponse	0	3.72	n/a	2	14	ButtonPress	MissedWin	False
146.973	0.26	Win2	0.8	0.004	No	2.673	-0.004	1.0	NoResponse	0	0.418	146.391	2	14	Target	MissedWin	False
147.24	0.44	Win2	0.8	n/a	No	2.673	n/a	n/a	NoResponse	0	n/a	n/a	2	14	Blank	MissedWin	False
147.391	0.3	Win2	0.8	0.004	No	2.673	-0.004	1.0	NoResponse	0	0.418	n/a	2	14	ButtonPress	MissedWin	False
147.675	1.45	Win2	0.8	n/a	No	2.673	n/a	5.0	NoResponse	0	0.01	146.685	2	14	Feedback	MissedWin	False
149.129	2.673	Win2	0.8	n/a	No	2.673	n/a	n/a	NoResponse	0	0.0	n/a	2	14	ISIslide	MissedWin	False
151.821	0.25	Control	0.75	0.0	No	2.979	0.021	n/a	NoResponse	0	n/a	n/a	2	15	Cue	Neutral	True
152.071	4.0	Control	0.75	0.001	No	2.979	0.0	n/a	NoResponse	0	n/a	n/a	2	15	Fixation	Neutral	True
156.067	0.25	Control	0.75	0.004	No	2.979	-0.004	1.0	NoResponse	0	0.325	155.392	2	15	Target	Neutral	True
156.317	0.45	Control	0.75	n/a	No	2.979	n/a	n/a	NoResponse	0	n/a	n/a	2	15	Blank	Neutral	True
156.392	0.3	Control	0.75	0.004	No	2.979	-0.004	1.0	NoResponse	0	0.325	n/a	2	15	ButtonPress	Neutral	True
156.769	1.45	Control	0.75	n/a	No	2.979	n/a	5.0	NoResponse	0	0.041	155.81	2	15	Feedback	Neutral	True
158.223	2.979	Control	0.75	n/a	No	2.979	n/a	n/a	NoResponse	0	0.0	n/a	2	15	ISIslide	Neutral	True
161.215	0.25	Win2	0.7646999999999999	0.001	Yes	2.885	0.015	n/a	GoodResponse	1	n/a	n/a	3	16	Cue	Win	True
161.466	4.0	Win2	0.7646999999999999	0.0	Yes	2.885	0.001	n/a	GoodResponse	1	n/a	n/a	3	16	Fixation	Win	True
165.462	0.24	Win2	0.7646999999999999	0.003	Yes	2.885	-0.003	1.0	GoodResponse	1	0.197	164.659	3	16	Target	Win	True
165.659	0.3	Win2	0.7646999999999999	0.003	Yes	2.885	-0.003	1.0	GoodResponse	1	0.197	n/a	3	16	ButtonPress	Win	True
165.712	0.46	Win2	0.7646999999999999	n/a	Yes	2.885	n/a	n/a	GoodResponse	1	n/a	n/a	3	16	Blank	Win	True
166.164	1.45	Win2	0.7646999999999999	n/a	Yes	2.885	n/a	5.0	GoodResponse	1	0.021	165.185	3	16	Feedback	Win	True
167.618	2.885	Win2	0.7646999999999999	n/a	Yes	2.885	n/a	n/a	GoodResponse	1	0.0	n/a	3	16	ISIslide	Win	True
170.527	0.25	Lose2	0.7778	0.0	Yes	2.723	0.027	n/a	GoodResponse	0	n/a	n/a	3	17	Cue	AvoidedLoss	True
170.777	3.95	Lose2	0.7778	0.0	Yes	2.723	0.0	n/a	GoodResponse	0	n/a	n/a	3	17	Fixation	AvoidedLoss	True
174.723	0.23	Lose2	0.7778	0.004	Yes	2.723	-0.004	1.0	GoodResponse	0	0.207	173.93	3	17	Target	AvoidedLoss	True
174.93	0.3	Lose2	0.7778	0.004	Yes	2.723	-0.004	1.0	GoodResponse	0	0.207	n/a	3	17	ButtonPress	AvoidedLoss	True
174.957	0.47	Lose2	0.7778	n/a	Yes	2.723	n/a	n/a	GoodResponse	0	n/a	n/a	3	17	Blank	AvoidedLoss	True
175.425	1.45	Lose2	0.7778	n/a	Yes	2.723	n/a	5.0	GoodResponse	0	0.01	174.435	3	17	Feedback	AvoidedLoss	True
176.879	2.723	Lose2	0.7778	n/a	Yes	2.723	n/a	n/a	GoodResponse	0	0.0	n/a	3	17	ISIslide	AvoidedLoss	True
179.621	0.25	Lose2	0.7368000000000001	0.0	No	2.729	0.021	n/a	LatePress	-1	n/a	n/a	2	18	Cue	Loss	True
179.871	4.05	Lose2	0.7368000000000001	0.0	No	2.729	0.0	n/a	LatePress	-1	n/a	n/a	2	18	Fixation	Loss	True
183.917	0.22	Lose2	0.7368000000000001	0.004	No	2.729	-0.004	1.0	LatePress	-1	0.23	183.147	2	18	Target	Loss	True
184.147	0.3	Lose2	0.7368000000000001	0.004	No	2.729	-0.004	1.0	LatePress	-1	0.23	n/a	2	18	ButtonPress	Loss	True
184.151	0.48	Lose2	0.7368000000000001	n/a	No	2.729	n/a	n/a	LatePress	-1	n/a	n/a	2	18	Blank	Loss	True
184.619	1.45	Lose2	0.7368000000000001	n/a	No	2.729	n/a	5.0	LatePress	-1	0.006	183.625	2	18	Feedback	Loss	True
186.073	2.729	Lose2	0.7368000000000001	n/a	No	2.729	n/a	n/a	LatePress	-1	0.0	n/a	2	18	ISIslide	Loss	True
188.831	0.25	Control	0.7	0.0	No	2.919	0.031	n/a	NoResponse	0	n/a	n/a	2	19	Cue	Neutral	True
189.082	3.95	Control	0.7	0.0	No	2.919	0.001	n/a	NoResponse	0	n/a	n/a	2	19	Fixation	Neutral	True
193.027	0.21	Control	0.7	0.004	No	2.919	-0.004	1.0	NoResponse	0	0.255	192.282	2	19	Target	Neutral	True
193.245	0.49	Control	0.7	n/a	No	2.919	n/a	n/a	NoResponse	0	n/a	n/a	2	19	Blank	Neutral	True
193.282	0.3	Control	0.7	0.004	No	2.919	-0.004	1.0	NoResponse	0	0.255	n/a	2	19	ButtonPress	Neutral	True
193.729	1.45	Control	0.7	n/a	No	2.919	n/a	5.0	NoResponse	0	0.018	192.747	2	19	Feedback	Neutral	True
195.184	2.919	Control	0.7	n/a	No	2.919	n/a	n/a	NoResponse	0	0.0	n/a	2	19	ISIslide	Neutral	True
198.126	0.25	Control	0.6667000000000001	0.0	No	2.624	0.026	n/a	NoResponse	0	n/a	n/a	2	20	Cue	Neutral	True
198.377	4.05	Control	0.6667000000000001	0.0	No	2.624	0.001	n/a	NoResponse	0	n/a	n/a	2	20	Fixation	Neutral	True
202.422	0.2	Control	0.6667000000000001	0.004	No	2.624	-0.004	1.0	NoResponse	0	0.336	201.758	2	20	Target	Neutral	True
202.623	0.5	Control	0.6667000000000001	n/a	No	2.624	n/a	n/a	NoResponse	0	n/a	n/a	2	20	Blank	Neutral	True
202.758	0.3	Control	0.6667000000000001	0.004	No	2.624	-0.004	1.0	NoResponse	0	0.336	n/a	2	20	ButtonPress	Neutral	True
203.124	1.45	Control	0.6667000000000001	n/a	No	2.624	n/a	5.0	NoResponse	0	0.061	202.185	2	20	Feedback	Neutral	True
204.578	2.624	Control	0.6667000000000001	n/a	No	2.624	n/a	n/a	NoResponse	0	0.0	n/a	2	20	ISIslide	Neutral	True
207.22	0.25	Control	0.6364	0.0	No	2.78	0.02	n/a	NoResponse	0	n/a	n/a	2	21	Cue	Neutral	True
207.47	4.1	Control	0.6364	0.001	No	2.78	0.0	1.0	NoResponse	0	3.998	210.468	2	21	Fixation	Neutral	True
211.468	0.3	Control	0.6364	0.001	No	2.78	0.0	1.0	NoResponse	0	3.998	n/a	2	21	ButtonPress	Neutral	True
211.566	0.19	Control	0.6364	0.004	No	2.78	-0.004	n/a	NoResponse	0	n/a	n/a	2	21	Target	Neutral	True
211.767	0.51	Control	0.6364	n/a	No	2.78	n/a	n/a	NoResponse	0	n/a	n/a	2	21	Blank	Neutral	True
212.268	1.45	Control	0.6364	n/a	No	2.78	n/a	5.0	NoResponse	0	0.042	211.31	2	21	Feedback	Neutral	True
213.722	2.78	Control	0.6364	n/a	No	2.78	n/a	n/a	NoResponse	0	0.0	n/a	2	21	ISIslide	Neutral	True
216.531	0.25	Control	0.6087	0.0	No	2.769	0.031	n/a	NoResponse	0	n/a	n/a	2	22	Cue	Neutral	True
216.782	4.0	Control	0.6087	0.0	No	2.769	0.001	n/a	NoResponse	0	n/a	n/a	2	22	Fixation	Neutral	True
220.777	0.2	Control	0.6087	0.004	No	2.769	-0.004	1.0	NoResponse	0	0.212	219.989	2	22	Target	Neutral	True
220.977	0.5	Control	0.6087	n/a	No	2.769	n/a	n/a	NoResponse	0	n/a	n/a	2	22	Blank	Neutral	True
220.989	0.3	Control	0.6087	0.004	No	2.769	-0.004	1.0	NoResponse	0	0.212	n/a	2	22	ButtonPress	Neutral	True
221.479	1.45	Control	0.6087	n/a	No	2.769	n/a	5.0	NoResponse	0	0.018	220.497	2	22	Feedback	Neutral	True
222.933	2.769	Control	0.6087	n/a	No	2.769	n/a	n/a	NoResponse	0	0.0	n/a	2	22	ISIslide	Neutral	True
225.725	0.25	Control	0.5832999999999999	0.0	No	2.775	0.025	n/a	NoResponse	0	n/a	n/a	2	23	Cue	Neutral	True
225.976	3.9	Control	0.5832999999999999	0.0	No	2.775	0.001	n/a	NoResponse	0	n/a	n/a	2	23	Fixation	Neutral	True
229.871	0.21	Control	0.5832999999999999	0.004	No	2.775	-0.004	1.0	NoResponse	0	0.248	229.119	2	23	Target	Neutral	True
230.088	0.49	Control	0.5832999999999999	n/a	No	2.775	n/a	n/a	NoResponse	0	n/a	n/a	2	23	Blank	Neutral	True
230.119	0.3	Control	0.5832999999999999	0.004	No	2.775	-0.004	1.0	NoResponse	0	0.248	n/a	2	23	ButtonPress	Neutral	True
230.573	1.45	Control	0.5832999999999999	n/a	No	2.775	n/a	5.0	NoResponse	0	0.048	229.621	2	23	Feedback	Neutral	True
232.027	2.775	Control	0.5832999999999999	n/a	No	2.775	n/a	n/a	NoResponse	0	0.0	n/a	2	23	ISIslide	Neutral	True
234.819	0.25	Win2	0.56	0.0	No	3.131	0.019	n/a	NoResponse	0	n/a	n/a	2	24	Cue	MissedWin	True
235.07	3.95	Win2	0.56	0.0	No	3.131	0.001	n/a	NoResponse	0	n/a	n/a	2	24	Fixation	MissedWin	True
239.015	0.22	Win2	0.56	0.004	No	3.131	-0.004	1.0	NoResponse	0	0.249	238.264	2	24	Target	MissedWin	True
239.249	0.48	Win2	0.56	n/a	No	3.131	n/a	n/a	NoResponse	0	n/a	n/a	2	24	Blank	MissedWin	True
239.264	0.3	Win2	0.56	0.004	No	3.131	-0.004	1.0	NoResponse	0	0.249	n/a	2	24	ButtonPress	MissedWin	True
239.717	1.45	Win2	0.56	n/a	No	3.131	n/a	5.0	NoResponse	0	0.03	238.747	2	24	Feedback	MissedWin	True
241.171	3.131	Win2	0.56	n/a	No	3.131	n/a	n/a	NoResponse	0	0.0	n/a	2	24	ISIslide	MissedWin	True
244.331	0.25	Win2	0.5385	0.0	No	3.069	0.031	n/a	PrematurePress	0	n/a	n/a	2	25	Cue	MissedWin	False
244.581	4.0	Win2	0.5385	0.0	No	3.069	0.0	1.0	PrematurePress	0	3.373	246.954	2	25	Fixation	MissedWin	False
247.954	0.3	Win2	0.5385	0.0	No	3.069	0.0	1.0	PrematurePress	0	3.373	n/a	2	25	ButtonPress	MissedWin	False
248.577	0.23	Win2	0.5385	0.004	No	3.069	-0.004	1.0	PrematurePress	0	0.023	247.6	2	25	Target	MissedWin	False
248.6	0.3	Win2	0.5385	0.004	No	3.069	-0.004	1.0	PrematurePress	0	0.023	n/a	2	25	ButtonPress	MissedWin	False
248.811	0.47	Win2	0.5385	n/a	No	3.069	n/a	n/a	PrematurePress	0	n/a	n/a	2	25	Blank	MissedWin	False
249.279	1.45	Win2	0.5385	n/a	No	3.069	n/a	5.0	PrematurePress	0	0.03	248.309	2	25	Feedback	MissedWin	False
250.733	3.069	Win2	0.5385	n/a	No	3.069	n/a	n/a	PrematurePress	0	0.0	n/a	2	25	ISIslide	MissedWin	False
253.826	0.25	Win2	0.5185	0.0	No	2.924	0.026	n/a	NoResponse	0	n/a	n/a	2	26	Cue	MissedWin	True
254.076	3.95	Win2	0.5185	0.001	No	2.924	0.0	n/a	NoResponse	0	n/a	n/a	2	26	Fixation	MissedWin	True
258.022	0.24	Win2	0.5185	0.004	No	2.924	-0.004	1.0	NoResponse	0	0.331	257.353	2	26	Target	MissedWin	True
258.272	0.46	Win2	0.5185	n/a	No	2.924	n/a	n/a	NoResponse	0	n/a	n/a	2	26	Blank	MissedWin	True
258.353	0.3	Win2	0.5185	0.004	No	2.924	-0.004	1.0	NoResponse	0	0.331	n/a	2	26	ButtonPress	MissedWin	True
258.724	1.45	Win2	0.5185	n/a	No	2.924	n/a	5.0	NoResponse	0	0.023	257.747	2	26	Feedback	MissedWin	True
260.178	2.924	Win2	0.5185	n/a	No	2.924	n/a	n/a	NoResponse	0	0.0	n/a	2	26	ISIslide	MissedWin	True
263.12	0.25	Lose2	0.5357	0.0	Yes	2.83	0.02	n/a	GoodResponse	0	n/a	n/a	2	27	Cue	AvoidedLoss	True
263.371	4.05	Lose2	0.5357	0.0	Yes	2.83	0.001	n/a	GoodResponse	0	n/a	n/a	2	27	Fixation	AvoidedLoss	True
267.416	0.25	Lose2	0.5357	0.004	Yes	2.83	-0.004	1.0	GoodResponse	0	0.213	266.629	2	27	Target	AvoidedLoss	True
267.629	0.3	Lose2	0.5357	0.004	Yes	2.83	-0.004	1.0	GoodResponse	0	0.213	n/a	2	27	ButtonPress	AvoidedLoss	True
267.667	0.45	Lose2	0.5357	n/a	Yes	2.83	n/a	n/a	GoodResponse	0	n/a	n/a	2	27	Blank	AvoidedLoss	True
268.118	1.45	Lose2	0.5357	n/a	Yes	2.83	n/a	5.0	GoodResponse	0	0.006	267.124	2	27	Feedback	AvoidedLoss	True
269.573	2.83	Lose2	0.5357	n/a	Yes	2.83	n/a	n/a	GoodResponse	0	0.0	n/a	2	27	ISIslide	AvoidedLoss	True
272.415	0.25	Control	0.5517	0.0	Yes	2.835	0.015	n/a	GoodResponse	0	n/a	n/a	2	28	Cue	Neutral	True
272.665	4.05	Control	0.5517	0.0	Yes	2.835	0.0	n/a	GoodResponse	0	n/a	n/a	2	28	Fixation	Neutral	True
276.711	0.26	Control	0.5517	0.004	Yes	2.835	-0.004	1.0	GoodResponse	0	0.229	275.94	2	28	Target	Neutral	True
276.94	0.3	Control	0.5517	0.004	Yes	2.835	-0.004	1.0	GoodResponse	0	0.229	n/a	2	28	ButtonPress	Neutral	True
276.978	0.44	Control	0.5517	n/a	Yes	2.835	n/a	n/a	GoodResponse	0	n/a	n/a	2	28	Blank	Neutral	True
277.413	1.45	Control	0.5517	n/a	Yes	2.835	n/a	5.0	GoodResponse	0	0.02	276.433	2	28	Feedback	Neutral	True
278.867	2.835	Control	0.5517	n/a	Yes	2.835	n/a	n/a	GoodResponse	0	0.0	n/a	2	28	ISIslide	Neutral	True
281.726	0.25	Lose2	0.5667	0.0	Yes	2.824	0.026	n/a	GoodResponse	0	n/a	n/a	2	29	Cue	AvoidedLoss	True
281.977	3.95	Lose2	0.5667	0.0	Yes	2.824	0.001	n/a	GoodResponse	0	n/a	n/a	2	29	Fixation	AvoidedLoss	True
285.922	0.27	Lose2	0.5667	0.004	Yes	2.824	-0.004	1.0	GoodResponse	0	0.197	285.119	2	29	Target	AvoidedLoss	True
286.119	0.3	Lose2	0.5667	0.004	Yes	2.824	-0.004	1.0	GoodResponse	0	0.197	n/a	2	29	ButtonPress	AvoidedLoss	True
286.206	0.43	Lose2	0.5667	n/a	Yes	2.824	n/a	n/a	GoodResponse	0	n/a	n/a	2	29	Blank	AvoidedLoss	True
286.624	1.45	Lose2	0.5667	n/a	Yes	2.824	n/a	5.0	GoodResponse	0	0.06	285.684	2	29	Feedback	AvoidedLoss	True
288.078	2.824	Lose2	0.5667	n/a	Yes	2.824	n/a	n/a	GoodResponse	0	0.0	n/a	2	29	ISIslide	AvoidedLoss	True
290.92	0.25	Win2	0.5806	0.0	Yes	2.78	0.02	n/a	GoodResponse	1	n/a	n/a	3	30	Cue	Win	True
291.171	3.9	Win2	0.5806	0.0	Yes	2.78	0.001	n/a	GoodResponse	1	n/a	n/a	3	30	Fixation	Win	True
295.066	0.28	Win2	0.5806	0.004	Yes	2.78	-0.004	1.0	GoodResponse	1	0.205	294.271	3	30	Target	Win	True
295.271	0.3	Win2	0.5806	0.004	Yes	2.78	-0.004	1.0	GoodResponse	1	0.205	n/a	3	30	ButtonPress	Win	True
295.35	0.42	Win2	0.5806	n/a	Yes	2.78	n/a	n/a	GoodResponse	1	n/a	n/a	3	30	Blank	Win	True
295.768	1.45	Win2	0.5806	n/a	Yes	2.78	n/a	5.0	GoodResponse	1	0.041	294.809	3	30	Feedback	Win	True
297.222	2.78	Win2	0.5806	n/a	Yes	2.78	n/a	n/a	GoodResponse	1	0.0	n/a	3	30	ISIslide	Win	True
300.031	0.25	Lose2	0.5938	0.0	Yes	2.819	0.031	n/a	GoodResponse	0	n/a	n/a	3	31	Cue	AvoidedLoss	True
300.281	4.05	Lose2	0.5938	0.0	Yes	2.819	0.0	n/a	GoodResponse	0	n/a	n/a	3	31	Fixation	AvoidedLoss	True
304.327	0.29	Lose2	0.5938	0.004	Yes	2.819	-0.004	1.0	GoodResponse	0	0.284	303.611	3	31	Target	AvoidedLoss	True
304.611	0.3	Lose2	0.5938	0.004	Yes	2.819	-0.004	1.0	GoodResponse	0	0.284	n/a	3	31	ButtonPress	AvoidedLoss	True
304.628	0.41	Lose2	0.5938	n/a	Yes	2.819	n/a	n/a	GoodResponse	0	n/a	n/a	3	31	Blank	AvoidedLoss	True
305.029	1.45	Lose2	0.5938	n/a	Yes	2.819	n/a	5.0	GoodResponse	0	0.03	304.059	3	31	Feedback	AvoidedLoss	True
306.483	2.819	Lose2	0.5938	n/a	Yes	2.819	n/a	n/a	GoodResponse	0	0.0	n/a	3	31	ISIslide	AvoidedLoss	True
309.325	0.25	Lose2	0.5758	0.0	No	2.625	0.025	n/a	NoResponse	-1	n/a	n/a	2	32	Cue	Loss	True
309.576	4.15	Lose2	0.5758	0.0	No	2.625	0.001	n/a	NoResponse	-1	n/a	n/a	2	32	Fixation	Loss	True
313.721	0.3	Lose2	0.5758	0.004	No	2.625	-0.004	1.0	NoResponse	-1	0.356	313.077	2	32	Target	Loss	True
314.022	0.4	Lose2	0.5758	n/a	No	2.625	n/a	n/a	NoResponse	-1	n/a	n/a	2	32	Blank	Loss	True
314.077	0.3	Lose2	0.5758	0.004	No	2.625	-0.004	1.0	NoResponse	-1	0.356	n/a	2	32	ButtonPress	Loss	True
314.424	1.45	Lose2	0.5758	n/a	No	2.625	n/a	5.0	NoResponse	-1	0.009	313.433	2	32	Feedback	Loss	True
315.878	2.625	Lose2	0.5758	n/a	No	2.625	n/a	n/a	NoResponse	-1	0.0	n/a	2	32	ISIslide	Loss	True
318.519	0.25	Win2	0.5588000000000001	0.0	No	2.681	0.019	n/a	NoResponse	0	n/a	n/a	2	33	Cue	MissedWin	True
318.77	4.0	Win2	0.5588000000000001	0.0	No	2.681	0.001	n/a	NoResponse	0	n/a	n/a	2	33	Fixation	MissedWin	True
322.765	0.31	Win2	0.5588000000000001	0.004	No	2.681	-0.004	1.0	NoResponse	0	0.383	322.148	2	33	Target	MissedWin	True
323.083	0.39	Win2	0.5588000000000001	n/a	No	2.681	n/a	n/a	NoResponse	0	n/a	n/a	2	33	Blank	MissedWin	True
323.148	0.3	Win2	0.5588000000000001	0.004	No	2.681	-0.004	1.0	NoResponse	0	0.383	n/a	2	33	ButtonPress	MissedWin	True
323.467	1.45	Win2	0.5588000000000001	n/a	No	2.681	n/a	5.0	NoResponse	0	0.029	322.496	2	33	Feedback	MissedWin	True
324.922	2.681	Win2	0.5588000000000001	n/a	No	2.681	n/a	n/a	NoResponse	0	0.0	n/a	2	33	ISIslide	MissedWin	True
327.63	0.25	Lose2	0.5714	0.0	Yes	2.62	0.03	n/a	GoodResponse	0	n/a	n/a	2	34	Cue	AvoidedLoss	True
327.88	4.05	Lose2	0.5714	0.001	Yes	2.62	0.0	n/a	GoodResponse	0	n/a	n/a	2	34	Fixation	AvoidedLoss	True
331.926	0.32	Lose2	0.5714	0.004	Yes	2.62	-0.004	1.0	GoodResponse	0	0.203	331.129	2	34	Target	AvoidedLoss	True
332.129	0.3	Lose2	0.5714	0.004	Yes	2.62	-0.004	1.0	GoodResponse	0	0.203	n/a	2	34	ButtonPress	AvoidedLoss	True
332.26	0.38	Lose2	0.5714	n/a	Yes	2.62	n/a	n/a	GoodResponse	0	n/a	n/a	2	34	Blank	AvoidedLoss	True
332.628	1.45	Lose2	0.5714	n/a	Yes	2.62	n/a	5.0	GoodResponse	0	0.055	331.683	2	34	Feedback	AvoidedLoss	True
334.082	2.62	Lose2	0.5714	n/a	Yes	2.62	n/a	n/a	GoodResponse	0	0.0	n/a	2	34	ISIslide	AvoidedLoss	True
336.724	0.25	Lose2	0.5556	0.0	No	2.676	0.024	n/a	NoResponse	-1	n/a	n/a	1	35	Cue	Loss	True
336.974	4.0	Lose2	0.5556	0.0	No	2.676	0.0	n/a	NoResponse	-1	n/a	n/a	1	35	Fixation	Loss	True
340.97	0.33	Lose2	0.5556	0.004	No	2.676	-0.004	1.0	NoResponse	-1	0.378	340.348	1	35	Target	Loss	True
341.304	0.37	Lose2	0.5556	n/a	No	2.676	n/a	n/a	NoResponse	-1	n/a	n/a	1	35	Blank	Loss	True
341.348	0.3	Lose2	0.5556	0.004	No	2.676	-0.004	1.0	NoResponse	-1	0.378	n/a	1	35	ButtonPress	Loss	True
341.672	1.45	Lose2	0.5556	n/a	No	2.676	n/a	5.0	NoResponse	-1	0.011	340.683	1	35	Feedback	Loss	True
343.126	2.676	Lose2	0.5556	n/a	No	2.676	n/a	n/a	NoResponse	-1	0.0	n/a	1	35	ISIslide	Loss	True
345.817	0.25	Control	0.5676	0.001	Yes	2.683	0.017	n/a	GoodResponse	0	n/a	n/a	1	36	Cue	Neutral	True
346.068	4.0	Control	0.5676	0.0	Yes	2.683	0.001	n/a	GoodResponse	0	n/a	n/a	1	36	Fixation	Neutral	True
350.063	0.34	Control	0.5676	0.004	Yes	2.683	-0.004	1.0	GoodResponse	0	0.198	349.261	1	36	Target	Neutral	True
350.261	0.3	Control	0.5676	0.004	Yes	2.683	-0.004	1.0	GoodResponse	0	0.198	n/a	1	36	ButtonPress	Neutral	True
350.414	0.36	Control	0.5676	n/a	Yes	2.683	n/a	n/a	GoodResponse	0	n/a	n/a	1	36	Blank	Neutral	True
350.766	1.45	Control	0.5676	n/a	Yes	2.683	n/a	5.0	GoodResponse	0	0.042	349.808	1	36	Feedback	Neutral	True
352.22	2.683	Control	0.5676	n/a	Yes	2.683	n/a	n/a	GoodResponse	0	0.0	n/a	1	36	ISIslide	Neutral	True
354.928	0.25	Win2	0.5789	0.0	Yes	2.872	0.028	n/a	GoodResponse	1	n/a	n/a	2	37	Cue	Win	True
355.179	4.0	Win2	0.5789	0.0	Yes	2.872	0.001	n/a	GoodResponse	1	n/a	n/a	2	37	Fixation	Win	True
359.174	0.35	Win2	0.5789	0.004	Yes	2.872	-0.004	1.0	GoodResponse	1	0.189	358.363	2	37	Target	Win	True
359.363	0.3	Win2	0.5789	0.004	Yes	2.872	-0.004	1.0	GoodResponse	1	0.189	n/a	2	37	ButtonPress	Win	True
359.525	0.35	Win2	0.5789	n/a	Yes	2.872	n/a	n/a	GoodResponse	1	n/a	n/a	2	37	Blank	Win	True
359.876	1.45	Win2	0.5789	n/a	Yes	2.872	n/a	5.0	GoodResponse	1	0.056	358.932	2	37	Feedback	Win	True
361.33	2.872	Win2	0.5789	n/a	Yes	2.872	n/a	n/a	GoodResponse	1	0.0	n/a	2	37	ISIslide	Win	True
364.222	0.25	Lose2	0.5897	0.001	Yes	2.828	0.022	n/a	GoodResponse	0	n/a	n/a	2	38	Cue	AvoidedLoss	True
364.473	3.95	Lose2	0.5897	0.0	Yes	2.828	0.001	n/a	GoodResponse	0	n/a	n/a	2	38	Fixation	AvoidedLoss	True
368.418	0.36	Lose2	0.5897	0.004	Yes	2.828	-0.004	1.0	GoodResponse	0	0.241	367.659	2	38	Target	AvoidedLoss	True
368.659	0.3	Lose2	0.5897	0.004	Yes	2.828	-0.004	1.0	GoodResponse	0	0.241	n/a	2	38	ButtonPress	AvoidedLoss	True
368.786	0.34	Lose2	0.5897	n/a	Yes	2.828	n/a	n/a	GoodResponse	0	n/a	n/a	2	38	Blank	AvoidedLoss	True
369.12	1.45	Lose2	0.5897	n/a	Yes	2.828	n/a	5.0	GoodResponse	0	0.062	368.182	2	38	Feedback	AvoidedLoss	True
370.575	2.828	Lose2	0.5897	n/a	Yes	2.828	n/a	n/a	GoodResponse	0	0.0	n/a	2	38	ISIslide	AvoidedLoss	True
373.417	0.25	Win2	0.6	0.0	Yes	2.983	0.017	n/a	GoodResponse	1	n/a	n/a	3	39	Cue	Win	True
373.667	4.1	Win2	0.6	0.0	Yes	2.983	0.0	n/a	GoodResponse	1	n/a	n/a	3	39	Fixation	Win	True
377.763	0.37	Win2	0.6	0.004	Yes	2.983	-0.004	1.0	GoodResponse	1	0.248	377.011	3	39	Target	Win	True
378.011	0.3	Win2	0.6	0.004	Yes	2.983	-0.004	1.0	GoodResponse	1	0.248	n/a	3	39	ButtonPress	Win	True
378.147	0.33	Win2	0.6	n/a	Yes	2.983	n/a	n/a	GoodResponse	1	n/a	n/a	3	39	Blank	Win	True
378.465	1.45	Win2	0.6	n/a	Yes	2.983	n/a	5.0	GoodResponse	1	0.03	377.495	3	39	Feedback	Win	True
379.919	2.983	Win2	0.6	n/a	Yes	2.983	n/a	n/a	GoodResponse	1	0.0	n/a	3	39	ISIslide	Win	True
382.928	0.25	Win2	0.6098	0.0	Yes	2.722	0.028	n/a	GoodResponse	1	n/a	n/a	4	40	Cue	Win	True
383.179	3.95	Win2	0.6098	0.0	Yes	2.722	0.001	n/a	GoodResponse	1	n/a	n/a	4	40	Fixation	Win	True
387.124	0.38	Win2	0.6098	0.004	Yes	2.722	-0.004	1.0	GoodResponse	1	0.244	386.368	4	40	Target	Win	True
387.368	0.3	Win2	0.6098	0.004	Yes	2.722	-0.004	1.0	GoodResponse	1	0.244	n/a	4	40	ButtonPress	Win	True
387.509	0.32	Win2	0.6098	n/a	Yes	2.722	n/a	n/a	GoodResponse	1	n/a	n/a	4	40	Blank	Win	True
387.826	1.45	Win2	0.6098	n/a	Yes	2.722	n/a	5.0	GoodResponse	1	0.044	386.87	4	40	Feedback	Win	True
389.281	2.722	Win2	0.6098	n/a	Yes	2.722	n/a	n/a	GoodResponse	1	0.0	n/a	4	40	ISIslide	Win	True
392.022	0.25	Win2	0.619	0.0	Yes	2.778	0.022	n/a	GoodResponse	1	n/a	n/a	5	41	Cue	Win	True
392.273	3.9	Win2	0.619	0.0	Yes	2.778	0.001	n/a	GoodResponse	1	n/a	n/a	5	41	Fixation	Win	True
396.168	0.39	Win2	0.619	0.004	Yes	2.778	-0.004	1.0	GoodResponse	1	0.277	395.445	5	41	Target	Win	True
396.445	0.3	Win2	0.619	0.004	Yes	2.778	-0.004	1.0	GoodResponse	1	0.277	n/a	5	41	ButtonPress	Win	True
396.569	0.31	Win2	0.619	n/a	Yes	2.778	n/a	n/a	GoodResponse	1	n/a	n/a	5	41	Blank	Win	True
396.87	1.45	Win2	0.619	n/a	Yes	2.778	n/a	5.0	GoodResponse	1	0.063	395.933	5	41	Feedback	Win	True
398.324	2.778	Win2	0.619	n/a	Yes	2.778	n/a	n/a	GoodResponse	1	0.0	n/a	5	41	ISIslide	Win	True
401.116	0.25	Control	0.6279	0.0	Yes	2.934	0.016	n/a	GoodResponse	0	n/a	n/a	5	42	Cue	Neutral	True
401.367	3.85	Control	0.6279	0.0	Yes	2.934	0.001	n/a	GoodResponse	0	n/a	n/a	5	42	Fixation	Neutral	True
405.212	0.4	Control	0.6279	0.004	Yes	2.934	-0.004	1.0	GoodResponse	0	0.171	404.383	5	42	Target	Neutral	True
405.383	0.3	Control	0.6279	0.004	Yes	2.934	-0.004	1.0	GoodResponse	0	0.171	n/a	5	42	ButtonPress	Neutral	True
405.613	0.3	Control	0.6279	n/a	Yes	2.934	n/a	n/a	GoodResponse	0	n/a	n/a	5	42	Blank	Neutral	True
405.914	1.45	Control	0.6279	n/a	Yes	2.934	n/a	5.0	GoodResponse	0	0.018	404.932	5	42	Feedback	Neutral	True
407.368	2.934	Control	0.6279	n/a	Yes	2.934	n/a	n/a	GoodResponse	0	0.0	n/a	5	42	ISIslide	Neutral	True
410.327	0.25	Win2	0.6364	0.0	Yes	3.173	0.027	n/a	GoodResponse	1	n/a	n/a	6	43	Cue	Win	True
410.578	4.0	Win2	0.6364	0.0	Yes	3.173	0.001	n/a	GoodResponse	1	n/a	n/a	6	43	Fixation	Win	True
414.573	0.41	Win2	0.6364	0.004	Yes	3.173	-0.004	1.0	GoodResponse	1	0.203	413.776	6	43	Target	Win	True
414.776	0.3	Win2	0.6364	0.004	Yes	3.173	-0.004	1.0	GoodResponse	1	0.203	n/a	6	43	ButtonPress	Win	True
414.991	0.29	Win2	0.6364	n/a	Yes	3.173	n/a	n/a	GoodResponse	1	n/a	n/a	6	43	Blank	Win	True
415.275	1.45	Win2	0.6364	n/a	Yes	3.173	n/a	5.0	GoodResponse	1	0.032	414.307	6	43	Feedback	Win	True
416.729	3.173	Win2	0.6364	n/a	Yes	3.173	n/a	n/a	GoodResponse	1	0.0	n/a	6	43	ISIslide	Win	True
419.922	0.25	Win2	0.6444	0.0	Yes	2.978	0.022	n/a	GoodResponse	1	n/a	n/a	7	44	Cue	Win	True
420.173	4.0	Win2	0.6444	0.0	Yes	2.978	0.001	n/a	GoodResponse	1	n/a	n/a	7	44	Fixation	Win	True
424.168	0.42	Win2	0.6444	0.004	Yes	2.978	-0.004	1.0	GoodResponse	1	0.397	423.565	7	44	Target	Win	True
424.565	0.3	Win2	0.6444	0.004	Yes	2.978	-0.004	1.0	GoodResponse	1	0.397	n/a	7	44	ButtonPress	Win	True
424.603	0.28	Win2	0.6444	n/a	Yes	2.978	n/a	n/a	GoodResponse	1	n/a	n/a	7	44	Blank	Win	True
424.87	1.45	Win2	0.6444	n/a	Yes	2.978	n/a	5.0	GoodResponse	1	0.062	423.932	7	44	Feedback	Win	True
426.325	2.978	Win2	0.6444	n/a	Yes	2.978	n/a	n/a	GoodResponse	1	0.0	n/a	7	44	ISIslide	Win	True
429.317	0.25	Control	0.6522	0.0	Yes	2.883	0.017	n/a	GoodResponse	0	n/a	n/a	7	45	Cue	Neutral	True
429.568	4.1	Control	0.6522	0.0	Yes	2.883	0.001	n/a	GoodResponse	0	n/a	n/a	7	45	Fixation	Neutral	True
433.663	0.43	Control	0.6522	0.004	Yes	2.883	-0.004	1.0	GoodResponse	0	0.304	432.967	7	45	Target	Neutral	True
433.967	0.3	Control	0.6522	0.004	Yes	2.883	-0.004	1.0	GoodResponse	0	0.304	n/a	7	45	ButtonPress	Neutral	True
434.098	0.27	Control	0.6522	n/a	Yes	2.883	n/a	n/a	GoodResponse	0	n/a	n/a	7	45	Blank	Neutral	True
434.366	1.45	Control	0.6522	n/a	Yes	2.883	n/a	5.0	GoodResponse	0	0.006	433.372	7	45	Feedback	Neutral	True
435.82	2.883	Control	0.6522	n/a	Yes	2.883	n/a	n/a	GoodResponse	0	0.0	n/a	7	45	ISIslide	Neutral	True
438.729	0.25	Lose2	0.6596	0.0	Yes	3.371	0.029	n/a	GoodResponse	0	n/a	n/a	7	46	Cue	AvoidedLoss	True
438.979	4.0	Lose2	0.6596	0.0	Yes	3.371	0.0	n/a	GoodResponse	0	n/a	n/a	7	46	Fixation	AvoidedLoss	True
442.975	0.44	Lose2	0.6596	0.004	Yes	3.371	-0.004	1.0	GoodResponse	0	0.244	442.219	7	46	Target	AvoidedLoss	True
443.219	0.3	Lose2	0.6596	0.004	Yes	3.371	-0.004	1.0	GoodResponse	0	0.244	n/a	7	46	ButtonPress	AvoidedLoss	True
443.426	0.26	Lose2	0.6596	n/a	Yes	3.371	n/a	n/a	GoodResponse	0	n/a	n/a	7	46	Blank	AvoidedLoss	True
443.677	1.45	Lose2	0.6596	n/a	Yes	3.371	n/a	5.0	GoodResponse	0	0.007	442.684	7	46	Feedback	AvoidedLoss	True
445.131	3.371	Lose2	0.6596	n/a	Yes	3.371	n/a	n/a	GoodResponse	0	0.0	n/a	7	46	ISIslide	AvoidedLoss	True
448.524	0.25	Lose2	0.6457999999999999	0.001	No	2.676	0.024	n/a	NoResponse	-1	n/a	n/a	6	47	Cue	Loss	False
448.775	4.0	Lose2	0.6457999999999999	0.0	No	2.676	0.001	n/a	NoResponse	-1	n/a	n/a	6	47	Fixation	Loss	False
452.771	0.44	Lose2	0.6457999999999999	0.003	No	2.676	-0.003	n/a	NoResponse	-1	n/a	n/a	6	47	Target	Loss	False
453.222	0.26	Lose2	0.6457999999999999	n/a	No	2.676	n/a	n/a	NoResponse	-1	n/a	n/a	6	47	Blank	Loss	False
453.473	1.45	Lose2	0.6457999999999999	n/a	No	2.676	n/a	5.0	NoResponse	-1	0.021	452.494	6	47	Feedback	Loss	False
454.927	2.676	Lose2	0.6457999999999999	n/a	No	2.676	n/a	n/a	NoResponse	-1	0.0	n/a	6	47	ISIslide	Loss	False
457.618	0.25	Lose2	0.6531	0.0	Yes	3.032	0.018	n/a	GoodResponse	0	n/a	n/a	6	48	Cue	AvoidedLoss	True
457.869	3.95	Lose2	0.6531	0.0	Yes	3.032	0.001	n/a	GoodResponse	0	n/a	n/a	6	48	Fixation	AvoidedLoss	True
461.814	0.45	Lose2	0.6531	0.004	Yes	3.032	-0.004	1.0	GoodResponse	0	0.417	461.231	6	48	Target	AvoidedLoss	True
462.231	0.3	Lose2	0.6531	0.004	Yes	3.032	-0.004	1.0	GoodResponse	0	0.417	n/a	6	48	ButtonPress	AvoidedLoss	True
462.266	0.25	Lose2	0.6531	n/a	Yes	3.032	n/a	n/a	GoodResponse	0	n/a	n/a	6	48	Blank	AvoidedLoss	True
462.516	1.45	Lose2	0.6531	n/a	Yes	3.032	n/a	5.0	GoodResponse	0	0.041	461.557	6	48	Feedback	AvoidedLoss	True
463.971	3.032	Lose2	0.6531	n/a	Yes	3.032	n/a	n/a	GoodResponse	0	0.0	n/a	6	48	ISIslide	AvoidedLoss	True
467.03	0.25	Control	0.66	0.0	Yes	2.87	0.03	n/a	GoodResponse	0	n/a	n/a	6	49	Cue	Neutral	True
467.281	4.0	Control	0.66	0.0	Yes	2.87	0.001	n/a	GoodResponse	0	n/a	n/a	6	49	Fixation	Neutral	True
471.276	0.46	Control	0.66	0.004	Yes	2.87	-0.004	1.0	GoodResponse	0	0.222	470.498	6	49	Target	Neutral	True
471.498	0.3	Control	0.66	0.004	Yes	2.87	-0.004	1.0	GoodResponse	0	0.222	n/a	6	49	ButtonPress	Neutral	True
471.744	0.24	Control	0.66	n/a	Yes	2.87	n/a	n/a	GoodResponse	0	n/a	n/a	6	49	Blank	Neutral	True
471.978	1.45	Control	0.66	n/a	Yes	2.87	n/a	5.0	GoodResponse	0	0.016	470.994	6	49	Feedback	Neutral	True
473.432	2.87	Control	0.66	n/a	Yes	2.87	n/a	n/a	GoodResponse	0	0.0	n/a	6	49	ISIslide	Neutral	True
476.324	0.25	Control	0.6667000000000001	0.0	Yes	2.776	0.024	n/a	GoodResponse	0	n/a	n/a	6	50	Cue	Neutral	True
476.575	4.0	Control	0.6667000000000001	0.0	Yes	2.776	0.001	n/a	GoodResponse	0	n/a	n/a	6	50	Fixation	Neutral	True
480.57	0.46	Control	0.6667000000000001	0.004	Yes	2.776	-0.004	1.0	GoodResponse	0	0.28	479.85	6	50	Target	Neutral	True
480.85	0.3	Control	0.6667000000000001	0.004	Yes	2.776	-0.004	1.0	GoodResponse	0	0.28	n/a	6	50	ButtonPress	Neutral	True
481.038	0.24	Control	0.6667000000000001	n/a	Yes	2.776	n/a	n/a	GoodResponse	0	n/a	n/a	6	50	Blank	Neutral	True
481.272	1.45	Control	0.6667000000000001	n/a	Yes	2.776	n/a	5.0	GoodResponse	0	0.035	480.307	6	50	Feedback	Neutral	True
482.727	2.776	Control	0.6667000000000001	n/a	Yes	2.776	n/a	n/a	GoodResponse	0	0.0	n/a	6	50	ISIslide	Neutral	True
485.518	0.25	Control	0.6731	0.001	Yes	2.732	0.018	n/a	GoodResponse	0	n/a	n/a	6	51	Cue	Neutral	True
485.769	3.95	Control	0.6731	0.0	Yes	2.732	0.001	n/a	GoodResponse	0	n/a	n/a	6	51	Fixation	Neutral	True
489.714	0.45	Control	0.6731	0.004	Yes	2.732	-0.004	1.0	GoodResponse	0	0.188	488.902	6	51	Target	Neutral	True
489.902	0.3	Control	0.6731	0.004	Yes	2.732	-0.004	1.0	GoodResponse	0	0.188	n/a	6	51	ButtonPress	Neutral	True
490.166	0.25	Control	0.6731	n/a	Yes	2.732	n/a	n/a	GoodResponse	0	n/a	n/a	6	51	Blank	Neutral	True
490.416	1.45	Control	0.6731	n/a	Yes	2.732	n/a	5.0	GoodResponse	0	0.015	489.431	6	51	Feedback	Neutral	True
491.871	2.732	Control	0.6731	n/a	Yes	2.732	n/a	n/a	GoodResponse	0	0.0	n/a	6	51	ISIslide	Neutral	True
494.629	0.25	Control	0.6792	0.0	Yes	2.621	0.029	n/a	GoodResponse	0	n/a	n/a	6	52	Cue	Neutral	True
494.88	4.05	Control	0.6792	0.0	Yes	2.621	0.001	n/a	GoodResponse	0	n/a	n/a	6	52	Fixation	Neutral	True
498.925	0.44	Control	0.6792	0.004	Yes	2.621	-0.004	1.0	GoodResponse	0	0.236	498.161	6	52	Target	Neutral	True
499.161	0.3	Control	0.6792	0.004	Yes	2.621	-0.004	1.0	GoodResponse	0	0.236	n/a	6	52	ButtonPress	Neutral	True
499.377	0.26	Control	0.6792	n/a	Yes	2.621	n/a	n/a	GoodResponse	0	n/a	n/a	6	52	Blank	Neutral	True
499.627	1.45	Control	0.6792	n/a	Yes	2.621	n/a	5.0	GoodResponse	0	0.054	498.681	6	52	Feedback	Neutral	True
501.082	2.621	Control	0.6792	n/a	Yes	2.621	n/a	n/a	GoodResponse	0	0.0	n/a	6	52	ISIslide	Neutral	True
503.723	0.25	Win2	0.6851999999999999	0.0	Yes	2.927	0.023	n/a	GoodResponse	1	n/a	n/a	7	53	Cue	Win	True
503.974	4.05	Win2	0.6851999999999999	0.0	Yes	2.927	0.001	n/a	GoodResponse	1	n/a	n/a	7	53	Fixation	Win	True
508.019	0.43	Win2	0.6851999999999999	0.004	Yes	2.927	-0.004	1.0	GoodResponse	1	0.342	507.361	7	53	Target	Win	True
508.361	0.3	Win2	0.6851999999999999	0.004	Yes	2.927	-0.004	1.0	GoodResponse	1	0.342	n/a	7	53	ButtonPress	Win	True
508.454	0.27	Win2	0.6851999999999999	n/a	Yes	2.927	n/a	n/a	GoodResponse	1	n/a	n/a	7	53	Blank	Win	True
508.721	1.45	Win2	0.6851999999999999	n/a	Yes	2.927	n/a	5.0	GoodResponse	1	0.023	507.744	7	53	Feedback	Win	True
510.175	2.927	Win2	0.6851999999999999	n/a	Yes	2.927	n/a	n/a	GoodResponse	1	0.0	n/a	7	53	ISIslide	Win	True
513.118	0.25	Win2	0.6909000000000001	0.0	Yes	2.732	0.018	n/a	GoodResponse	1	n/a	n/a	8	54	Cue	Win	True
513.368	3.95	Win2	0.6909000000000001	0.0	Yes	2.732	0.0	n/a	GoodResponse	1	n/a	n/a	8	54	Fixation	Win	True
517.314	0.42	Win2	0.6909000000000001	0.004	Yes	2.732	-0.004	1.0	GoodResponse	1	0.279	516.593	8	54	Target	Win	True
517.593	0.3	Win2	0.6909000000000001	0.004	Yes	2.732	-0.004	1.0	GoodResponse	1	0.279	n/a	8	54	ButtonPress	Win	True
517.748	0.28	Win2	0.6909000000000001	n/a	Yes	2.732	n/a	n/a	GoodResponse	1	n/a	n/a	8	54	Blank	Win	True
518.016	1.45	Win2	0.6909000000000001	n/a	Yes	2.732	n/a	5.0	GoodResponse	1	0.04	517.056	8	54	Feedback	Win	True
519.47	2.732	Win2	0.6909000000000001	n/a	Yes	2.732	n/a	n/a	GoodResponse	1	0.0	n/a	8	54	ISIslide	Win	True
522.228	0.25	Control	0.6964	0.0	Yes	3.022	0.028	n/a	GoodResponse	0	n/a	n/a	8	55	Cue	Neutral	True
522.479	3.95	Control	0.6964	0.0	Yes	3.022	0.001	n/a	GoodResponse	0	n/a	n/a	8	55	Fixation	Neutral	True
526.424	0.41	Control	0.6964	0.004	Yes	3.022	-0.004	1.0	GoodResponse	0	0.281	525.705	8	55	Target	Neutral	True
526.705	0.3	Control	0.6964	0.004	Yes	3.022	-0.004	1.0	GoodResponse	0	0.281	n/a	8	55	ButtonPress	Neutral	True
526.842	0.29	Control	0.6964	n/a	Yes	3.022	n/a	n/a	GoodResponse	0	n/a	n/a	8	55	Blank	Neutral	True
527.126	1.45	Control	0.6964	n/a	Yes	3.022	n/a	5.0	GoodResponse	0	0.055	526.181	8	55	Feedback	Neutral	True
528.581	3.022	Control	0.6964	n/a	Yes	3.022	n/a	n/a	GoodResponse	0	0.0	n/a	8	55	ISIslide	Neutral	True
531.623	0.25	Control	0.7018000000000001	0.0	Yes	2.827	0.023	n/a	GoodResponse	0	n/a	n/a	8	56	Cue	Neutral	True
531.874	3.95	Control	0.7018000000000001	0.0	Yes	2.827	0.001	n/a	GoodResponse	0	n/a	n/a	8	56	Fixation	Neutral	True
535.819	0.4	Control	0.7018000000000001	0.004	Yes	2.827	-0.004	1.0	GoodResponse	0	0.267	535.086	8	56	Target	Neutral	True
536.086	0.3	Control	0.7018000000000001	0.004	Yes	2.827	-0.004	1.0	GoodResponse	0	0.267	n/a	8	56	ButtonPress	Neutral	True
536.22	0.3	Control	0.7018000000000001	n/a	Yes	2.827	n/a	n/a	GoodResponse	0	n/a	n/a	8	56	Blank	Neutral	True
536.521	1.45	Control	0.7018000000000001	n/a	Yes	2.827	n/a	5.0	GoodResponse	0	0.034	535.555	8	56	Feedback	Neutral	True
537.975	2.827	Control	0.7018000000000001	n/a	Yes	2.827	n/a	n/a	GoodResponse	0	0.0	n/a	8	56	ISIslide	Neutral	True
540.817	0.25	Control	0.7069	0.0	Yes	3.483	0.017	n/a	GoodResponse	0	n/a	n/a	8	57	Cue	Neutral	True
541.068	4.0	Control	0.7069	0.0	Yes	3.483	0.001	n/a	GoodResponse	0	n/a	n/a	8	57	Fixation	Neutral	True
545.063	0.39	Control	0.7069	0.004	Yes	3.483	-0.004	1.0	GoodResponse	0	0.358	544.421	8	57	Target	Neutral	True
545.421	0.3	Control	0.7069	0.004	Yes	3.483	-0.004	1.0	GoodResponse	0	0.358	n/a	8	57	ButtonPress	Neutral	True
545.464	0.31	Control	0.7069	n/a	Yes	3.483	n/a	n/a	GoodResponse	0	n/a	n/a	8	57	Blank	Neutral	True
545.765	1.45	Control	0.7069	n/a	Yes	3.483	n/a	5.0	GoodResponse	0	0.04	544.805	8	57	Feedback	Neutral	True
547.22	3.483	Control	0.7069	n/a	Yes	3.483	n/a	n/a	GoodResponse	0	0.0	n/a	8	57	ISIslide	Neutral	True
550.73	0.25	Win2	0.7119	0.0	Yes	2.72	0.03	n/a	GoodResponse	1	n/a	n/a	9	58	Cue	Win	True
550.981	4.05	Win2	0.7119	0.0	Yes	2.72	0.001	n/a	GoodResponse	1	n/a	n/a	9	58	Fixation	Win	True
555.026	0.38	Win2	0.7119	0.004	Yes	2.72	-0.004	1.0	GoodResponse	1	0.267	554.293	9	58	Target	Win	True
555.293	0.3	Win2	0.7119	0.004	Yes	2.72	-0.004	1.0	GoodResponse	1	0.267	n/a	9	58	ButtonPress	Win	True
555.411	0.32	Win2	0.7119	n/a	Yes	2.72	n/a	n/a	GoodResponse	1	n/a	n/a	9	58	Blank	Win	True
555.728	1.45	Win2	0.7119	n/a	Yes	2.72	n/a	5.0	GoodResponse	1	0.015	554.743	9	58	Feedback	Win	True
557.183	2.72	Win2	0.7119	n/a	Yes	2.72	n/a	n/a	GoodResponse	1	0.0	n/a	9	58	ISIslide	Win	True
559.924	0.25	Lose2	0.7167	0.0	Yes	2.676	0.024	n/a	GoodResponse	0	n/a	n/a	9	59	Cue	AvoidedLoss	True
560.175	4.0	Lose2	0.7167	0.0	Yes	2.676	0.001	n/a	GoodResponse	0	n/a	n/a	9	59	Fixation	AvoidedLoss	True
564.17	0.37	Lose2	0.7167	0.004	Yes	2.676	-0.004	1.0	GoodResponse	0	0.298	563.468	9	59	Target	AvoidedLoss	True
564.468	0.3	Lose2	0.7167	0.004	Yes	2.676	-0.004	1.0	GoodResponse	0	0.298	n/a	9	59	ButtonPress	AvoidedLoss	True
564.555	0.33	Lose2	0.7167	n/a	Yes	2.676	n/a	n/a	GoodResponse	0	n/a	n/a	9	59	Blank	AvoidedLoss	True
564.872	1.45	Lose2	0.7167	n/a	Yes	2.676	n/a	5.0	GoodResponse	0	0.059	563.931	9	59	Feedback	AvoidedLoss	True
566.327	2.676	Lose2	0.7167	n/a	Yes	2.676	n/a	n/a	GoodResponse	0	0.0	n/a	9	59	ISIslide	AvoidedLoss	True
569.018	0.25	Control	0.7049	0.0	No	2.682	0.018	n/a	NoResponse	0	n/a	n/a	9	60	Cue	Neutral	True
569.269	4.0	Control	0.7049	0.0	No	2.682	0.001	n/a	NoResponse	0	n/a	n/a	9	60	Fixation	Neutral	True
573.264	0.36	Control	0.7049	0.004	No	2.682	-0.004	1.0	NoResponse	0	0.383	572.647	9	60	Target	Neutral	True
573.632	0.34	Control	0.7049	n/a	No	2.682	n/a	n/a	NoResponse	0	n/a	n/a	9	60	Blank	Neutral	True
573.647	0.3	Control	0.7049	0.004	No	2.682	-0.004	1.0	NoResponse	0	0.383	n/a	9	60	ButtonPress	Neutral	True
573.966	1.45	Control	0.7049	n/a	No	2.682	n/a	5.0	NoResponse	0	0.026	572.992	9	60	Feedback	Neutral	True
575.421	2.682	Control	0.7049	n/a	No	2.682	n/a	n/a	NoResponse	0	0.0	n/a	9	60	ISIslide	Neutral	True
578.129	0.25	Lose2	0.7097	0.0	Yes	2.971	0.029	n/a	GoodResponse	0	n/a	n/a	9	61	Cue	AvoidedLoss	True
578.379	4.0	Lose2	0.7097	0.0	Yes	2.971	0.0	n/a	GoodResponse	0	n/a	n/a	9	61	Fixation	AvoidedLoss	True
582.375	0.35	Lose2	0.7097	0.004	Yes	2.971	-0.004	1.0	GoodResponse	0	0.313	581.688	9	61	Target	AvoidedLoss	True
582.688	0.3	Lose2	0.7097	0.004	Yes	2.971	-0.004	1.0	GoodResponse	0	0.313	n/a	9	61	ButtonPress	AvoidedLoss	True
582.726	0.35	Lose2	0.7097	n/a	Yes	2.971	n/a	n/a	GoodResponse	0	n/a	n/a	9	61	Blank	AvoidedLoss	True
583.077	1.45	Lose2	0.7097	n/a	Yes	2.971	n/a	5.0	GoodResponse	0	0.04	582.117	9	61	Feedback	AvoidedLoss	True
584.531	2.971	Lose2	0.7097	n/a	Yes	2.971	n/a	n/a	GoodResponse	0	0.0	n/a	9	61	ISIslide	AvoidedLoss	True
587.523	0.25	Lose2	0.6984	0.001	No	2.877	0.023	n/a	NoResponse	-1	n/a	n/a	8	62	Cue	Loss	False
587.774	3.9	Lose2	0.6984	0.0	No	2.877	0.001	n/a	NoResponse	-1	n/a	n/a	8	62	Fixation	Loss	False
591.669	0.34	Lose2	0.6984	0.004	No	2.877	-0.004	n/a	NoResponse	-1	n/a	n/a	8	62	Target	Loss	False
592.02	0.36	Lose2	0.6984	n/a	No	2.877	n/a	n/a	NoResponse	-1	n/a	n/a	8	62	Blank	Loss	False
592.371	1.45	Lose2	0.6984	n/a	No	2.877	n/a	n/a	NoResponse	-1	n/a	n/a	8	62	Feedback	Loss	False
593.826	2.877	Lose2	0.6984	n/a	No	2.877	n/a	n/a	NoResponse	-1	0.0	n/a	8	62	ISIslide	Loss	False
596.718	0.25	Lose2	0.7031000000000001	0.0	Yes	2.632	0.018	n/a	GoodResponse	0	n/a	n/a	8	63	Cue	AvoidedLoss	False
596.968	4.05	Lose2	0.7031000000000001	0.0	Yes	2.632	0.0	n/a	GoodResponse	0	n/a	n/a	8	63	Fixation	AvoidedLoss	False
601.014	0.33	Lose2	0.7031000000000001	0.004	Yes	2.632	-0.004	n/a	GoodResponse	0	n/a	n/a	8	63	Target	AvoidedLoss	False
601.348	0.37	Lose2	0.7031000000000001	n/a	Yes	2.632	n/a	n/a	GoodResponse	0	n/a	n/a	8	63	Blank	AvoidedLoss	False
601.716	1.45	Lose2	0.7031000000000001	n/a	Yes	2.632	n/a	n/a	GoodResponse	0	n/a	n/a	8	63	Feedback	AvoidedLoss	False
603.17	2.632	Lose2	0.7031000000000001	n/a	Yes	2.632	n/a	n/a	GoodResponse	0	0.0	n/a	8	63	ISIslide	AvoidedLoss	False
