onset	duration	cue_type	current_mean_accuracy	duration_error	is_hit	isi_adjusted	onset_delay	response	response_type	reward	rt	rt_time	total_reward	trial_number	trial_phase	trial_type	one_press
11.101	0.25	Control	1.0	0.0	Yes	2.949	0.001	n/a	GoodResponse	0	n/a	n/a	0	0	Cue	Neutral	True
11.351	3.85	Control	1.0	0.0	Yes	2.949	0.0	n/a	GoodResponse	0	n/a	n/a	0	0	Fixation	Neutral	True
15.213	0.4	Control	1.0	0.0	Yes	2.949	0.012	1.0	GoodResponse	0	0.231	14.444	0	0	Target	Neutral	True
15.444	0.3	Control	1.0	0.0	Yes	2.949	0.012	1.0	GoodResponse	0	0.231	n/a	0	0	ButtonPress	Neutral	True
15.597	0.3	Control	1.0	n/a	Yes	2.949	n/a	n/a	GoodResponse	0	n/a	n/a	0	0	Blank	Neutral	True
15.898	1.45	Control	1.0	n/a	Yes	2.949	n/a	5.0	GoodResponse	0	0.029	14.927	0	0	Feedback	Neutral	True
17.353	2.949	Control	1.0	n/a	Yes	2.949	n/a	n/a	GoodResponse	0	0.0	n/a	0	0	ISIslide	Neutral	True
20.328	0.25	Lose2	1.0	0.0	Yes	2.772	0.028	n/a	GoodResponse	0	n/a	n/a	0	1	Cue	AvoidedLoss	True
20.579	4.0	Lose2	1.0	0.0	Yes	2.772	0.001	n/a	GoodResponse	0	n/a	n/a	0	1	Fixation	AvoidedLoss	True
24.574	0.39	Lose2	1.0	0.004	Yes	2.772	-0.004	1.0	GoodResponse	0	0.195	23.769	0	1	Target	AvoidedLoss	True
24.769	0.3	Lose2	1.0	0.004	Yes	2.772	-0.004	1.0	GoodResponse	0	0.195	n/a	0	1	ButtonPress	AvoidedLoss	True
24.975	0.31	Lose2	1.0	n/a	Yes	2.772	n/a	n/a	GoodResponse	0	n/a	n/a	0	1	Blank	AvoidedLoss	True
25.276	1.45	Lose2	1.0	n/a	Yes	2.772	n/a	5.0	GoodResponse	0	0.017	24.293	0	1	Feedback	AvoidedLoss	True
26.731	2.772	Lose2	1.0	n/a	Yes	2.772	n/a	n/a	GoodResponse	0	0.0	n/a	0	1	ISIslide	AvoidedLoss	True
29.522	0.25	Control	1.0	0.0	Yes	2.578	0.022	n/a	GoodResponse	0	n/a	n/a	0	2	Cue	Neutral	True
29.773	4.1	Control	1.0	0.0	Yes	2.578	0.001	n/a	GoodResponse	0	n/a	n/a	0	2	Fixation	Neutral	True
33.869	0.38	Control	1.0	0.003	Yes	2.578	-0.003	1.0	GoodResponse	0	0.193	33.062	0	2	Target	Neutral	True
34.062	0.3	Control	1.0	0.003	Yes	2.578	-0.003	1.0	GoodResponse	0	0.193	n/a	0	2	ButtonPress	Neutral	True
34.253	0.32	Control	1.0	n/a	Yes	2.578	n/a	n/a	GoodResponse	0	n/a	n/a	0	2	Blank	Neutral	True
34.571	1.45	Control	1.0	n/a	Yes	2.578	n/a	5.0	GoodResponse	0	0.038	33.609	0	2	Feedback	Neutral	True
36.025	2.578	Control	1.0	n/a	Yes	2.578	n/a	n/a	GoodResponse	0	0.0	n/a	0	2	ISIslide	Neutral	True
38.616	0.25	Win2	1.0	0.0	Yes	2.834	0.016	n/a	GoodResponse	1	n/a	n/a	1	3	Cue	Win	True
38.867	3.95	Win2	1.0	0.0	Yes	2.834	0.001	n/a	GoodResponse	1	n/a	n/a	1	3	Fixation	Win	True
42.812	0.37	Win2	1.0	0.004	Yes	2.834	-0.004	1.0	GoodResponse	1	0.228	42.04	1	3	Target	Win	True
43.04	0.3	Win2	1.0	0.004	Yes	2.834	-0.004	1.0	GoodResponse	1	0.228	n/a	1	3	ButtonPress	Win	True
43.197	0.33	Win2	1.0	n/a	Yes	2.834	n/a	n/a	GoodResponse	1	n/a	n/a	1	3	Blank	Win	True
43.514	1.45	Win2	1.0	n/a	Yes	2.834	n/a	5.0	GoodResponse	1	0.022	42.536	1	3	Feedback	Win	True
44.968	2.834	Win2	1.0	n/a	Yes	2.834	n/a	n/a	GoodResponse	1	0.0	n/a	1	3	ISIslide	Win	True
47.827	0.25	Win2	1.0	0.0	Yes	3.273	0.027	n/a	GoodResponse	1	n/a	n/a	2	4	Cue	Win	True
48.078	4.0	Win2	1.0	0.0	Yes	3.273	0.001	n/a	GoodResponse	1	n/a	n/a	2	4	Fixation	Win	True
52.073	0.36	Win2	1.0	0.004	Yes	3.273	-0.004	1.0	GoodResponse	1	0.206	51.279	2	4	Target	Win	True
52.279	0.3	Win2	1.0	0.004	Yes	3.273	-0.004	1.0	GoodResponse	1	0.206	n/a	2	4	ButtonPress	Win	True
52.441	0.34	Win2	1.0	n/a	Yes	3.273	n/a	n/a	GoodResponse	1	n/a	n/a	2	4	Blank	Win	True
52.775	1.45	Win2	1.0	n/a	Yes	3.273	n/a	5.0	GoodResponse	1	0.029	51.804	2	4	Feedback	Win	True
54.229	3.273	Win2	1.0	n/a	Yes	3.273	n/a	n/a	GoodResponse	1	0.0	n/a	2	4	ISIslide	Win	True
57.523	0.25	Win2	1.0	0.0	Yes	2.777	0.023	n/a	GoodResponse	1	n/a	n/a	3	5	Cue	Win	True
57.773	4.0	Win2	1.0	0.0	Yes	2.777	0.0	n/a	GoodResponse	1	n/a	n/a	3	5	Fixation	Win	True
61.769	0.35	Win2	1.0	0.004	Yes	2.777	-0.004	1.0	GoodResponse	1	0.219	60.988	3	5	Target	Win	True
61.988	0.3	Win2	1.0	0.004	Yes	2.777	-0.004	1.0	GoodResponse	1	0.219	n/a	3	5	ButtonPress	Win	True
62.12	0.35	Win2	1.0	n/a	Yes	2.777	n/a	n/a	GoodResponse	1	n/a	n/a	3	5	Blank	Win	True
62.471	1.45	Win2	1.0	n/a	Yes	2.777	n/a	5.0	GoodResponse	1	0.041	61.512	3	5	Feedback	Win	True
63.925	2.777	Win2	1.0	n/a	Yes	2.777	n/a	n/a	GoodResponse	1	0.0	n/a	3	5	ISIslide	Win	True
66.717	0.25	Lose2	1.0	0.0	Yes	2.733	0.017	n/a	GoodResponse	0	n/a	n/a	3	6	Cue	AvoidedLoss	True
66.968	3.95	Lose2	1.0	0.0	Yes	2.733	0.001	n/a	GoodResponse	0	n/a	n/a	3	6	Fixation	AvoidedLoss	True
70.913	0.34	Lose2	1.0	0.004	Yes	2.733	-0.004	1.0	GoodResponse	0	0.198	70.111	3	6	Target	AvoidedLoss	True
71.111	0.3	Lose2	1.0	0.004	Yes	2.733	-0.004	1.0	GoodResponse	0	0.198	n/a	3	6	ButtonPress	AvoidedLoss	True
71.264	0.36	Lose2	1.0	n/a	Yes	2.733	n/a	n/a	GoodResponse	0	n/a	n/a	3	6	Blank	AvoidedLoss	True
71.615	1.45	Lose2	1.0	n/a	Yes	2.733	n/a	5.0	GoodResponse	0	0.019	70.634	3	6	Feedback	AvoidedLoss	True
73.069	2.733	Lose2	1.0	n/a	Yes	2.733	n/a	n/a	GoodResponse	0	0.0	n/a	3	6	ISIslide	AvoidedLoss	True
75.827	0.25	Lose2	1.0	0.0	Yes	4.023	0.027	n/a	GoodResponse	0	n/a	n/a	3	7	Cue	AvoidedLoss	True
76.078	4.05	Lose2	1.0	0.0	Yes	4.023	0.001	n/a	GoodResponse	0	n/a	n/a	3	7	Fixation	AvoidedLoss	True
80.124	0.33	Lose2	1.0	0.003	Yes	4.023	-0.003	1.0	GoodResponse	0	0.242	79.366	3	7	Target	AvoidedLoss	True
80.366	0.3	Lose2	1.0	0.003	Yes	4.023	-0.003	1.0	GoodResponse	0	0.242	n/a	3	7	ButtonPress	AvoidedLoss	True
80.458	0.37	Lose2	1.0	n/a	Yes	4.023	n/a	n/a	GoodResponse	0	n/a	n/a	3	7	Blank	AvoidedLoss	True
80.826	1.45	Lose2	1.0	n/a	Yes	4.023	n/a	5.0	GoodResponse	0	0.026	79.852	3	7	Feedback	AvoidedLoss	True
82.28	4.023	Lose2	1.0	n/a	Yes	4.023	n/a	n/a	GoodResponse	0	0.0	n/a	3	7	ISIslide	AvoidedLoss	True
86.325	0.25	Lose2	1.0	0.001	Yes	3.025	0.025	n/a	GoodResponse	0	n/a	n/a	3	8	Cue	AvoidedLoss	True
86.576	3.95	Lose2	1.0	0.0	Yes	3.025	0.001	n/a	GoodResponse	0	n/a	n/a	3	8	Fixation	AvoidedLoss	True
90.521	0.32	Lose2	1.0	0.004	Yes	3.025	-0.004	1.0	GoodResponse	0	0.204	89.725	3	8	Target	AvoidedLoss	True
90.725	0.3	Lose2	1.0	0.004	Yes	3.025	-0.004	1.0	GoodResponse	0	0.204	n/a	3	8	ButtonPress	AvoidedLoss	True
90.856	0.38	Lose2	1.0	n/a	Yes	3.025	n/a	n/a	GoodResponse	0	n/a	n/a	3	8	Blank	AvoidedLoss	True
91.223	1.45	Lose2	1.0	n/a	Yes	3.025	n/a	5.0	GoodResponse	0	0.02	90.243	3	8	Feedback	AvoidedLoss	True
92.678	3.025	Lose2	1.0	n/a	Yes	3.025	n/a	n/a	GoodResponse	0	0.0	n/a	3	8	ISIslide	AvoidedLoss	True
95.72	0.25	Lose2	1.0	0.0	Yes	3.13	0.02	n/a	GoodResponse	0	n/a	n/a	3	9	Cue	AvoidedLoss	True
95.971	3.95	Lose2	1.0	0.0	Yes	3.13	0.001	n/a	GoodResponse	0	n/a	n/a	3	9	Fixation	AvoidedLoss	True
99.916	0.31	Lose2	1.0	0.004	Yes	3.13	-0.004	1.0	GoodResponse	0	0.223	99.139	3	9	Target	AvoidedLoss	True
100.139	0.3	Lose2	1.0	0.004	Yes	3.13	-0.004	1.0	GoodResponse	0	0.223	n/a	3	9	ButtonPress	AvoidedLoss	True
100.234	0.39	Lose2	1.0	n/a	Yes	3.13	n/a	n/a	GoodResponse	0	n/a	n/a	3	9	Blank	AvoidedLoss	True
100.618	1.45	Lose2	1.0	n/a	Yes	3.13	n/a	5.0	GoodResponse	0	0.04	99.658	3	9	Feedback	AvoidedLoss	True
102.073	3.13	Lose2	1.0	n/a	Yes	3.13	n/a	n/a	GoodResponse	0	0.0	n/a	3	9	ISIslide	AvoidedLoss	True
105.215	0.25	Control	0.9091	0.0	No	3.285	0.015	n/a	NoResponse	0	n/a	n/a	3	10	Cue	Neutral	True
105.466	4.0	Control	0.9091	0.0	No	3.285	0.001	1.0	NoResponse	0	3.857	108.323	3	10	Fixation	Neutral	True
109.323	0.3	Control	0.9091	0.0	No	3.285	0.001	1.0	NoResponse	0	3.857	n/a	3	10	ButtonPress	Neutral	True
109.461	0.3	Control	0.9091	0.004	No	3.285	-0.004	n/a	NoResponse	0	n/a	n/a	3	10	Target	Neutral	True
109.762	0.4	Control	0.9091	n/a	No	3.285	n/a	n/a	NoResponse	0	n/a	n/a	3	10	Blank	Neutral	True
110.163	1.45	Control	0.9091	n/a	No	3.285	n/a	5.0	NoResponse	0	0.007	109.17	3	10	Feedback	Neutral	True
111.618	3.285	Control	0.9091	n/a	No	3.285	n/a	n/a	NoResponse	0	0.0	n/a	3	10	ISIslide	Neutral	True
114.928	0.25	Lose2	0.9167000000000001	0.0	Yes	2.722	0.028	n/a	GoodResponse	0	n/a	n/a	3	11	Cue	AvoidedLoss	True
115.178	4.05	Lose2	0.9167000000000001	0.0	Yes	2.722	0.0	n/a	GoodResponse	0	n/a	n/a	3	11	Fixation	AvoidedLoss	True
119.224	0.29	Lose2	0.9167000000000001	0.004	Yes	2.722	-0.004	1.0	GoodResponse	0	0.216	118.44	3	11	Target	AvoidedLoss	True
119.44	0.3	Lose2	0.9167000000000001	0.004	Yes	2.722	-0.004	1.0	GoodResponse	0	0.216	n/a	3	11	ButtonPress	AvoidedLoss	True
119.525	0.41	Lose2	0.9167000000000001	n/a	Yes	2.722	n/a	n/a	GoodResponse	0	n/a	n/a	3	11	Blank	AvoidedLoss	True
119.926	1.45	Lose2	0.9167000000000001	n/a	Yes	2.722	n/a	5.0	GoodResponse	0	0.048	118.974	3	11	Feedback	AvoidedLoss	True
121.38	2.722	Lose2	0.9167000000000001	n/a	Yes	2.722	n/a	n/a	GoodResponse	0	0.0	n/a	3	11	ISIslide	AvoidedLoss	True
124.122	0.25	Control	0.9231	0.0	Yes	2.978	0.022	n/a	GoodResponse	0	n/a	n/a	3	12	Cue	Neutral	True
124.373	3.9	Control	0.9231	0.0	Yes	2.978	0.001	n/a	GoodResponse	0	n/a	n/a	3	12	Fixation	Neutral	True
128.268	0.28	Control	0.9231	0.004	Yes	2.978	-0.004	1.0	GoodResponse	0	0.202	127.47	3	12	Target	Neutral	True
128.47	0.3	Control	0.9231	0.004	Yes	2.978	-0.004	1.0	GoodResponse	0	0.202	n/a	3	12	ButtonPress	Neutral	True
128.552	0.42	Control	0.9231	n/a	Yes	2.978	n/a	n/a	GoodResponse	0	n/a	n/a	3	12	Blank	Neutral	True
128.97	1.45	Control	0.9231	n/a	Yes	2.978	n/a	5.0	GoodResponse	0	0.028	127.998	3	12	Feedback	Neutral	True
130.424	2.978	Control	0.9231	n/a	Yes	2.978	n/a	n/a	GoodResponse	0	0.0	n/a	3	12	ISIslide	Neutral	True
133.416	0.25	Control	0.9286	0.0	Yes	2.784	0.016	n/a	GoodResponse	0	n/a	n/a	3	13	Cue	Neutral	True
133.667	4.0	Control	0.9286	0.0	Yes	2.784	0.001	n/a	GoodResponse	0	n/a	n/a	3	13	Fixation	Neutral	True
137.662	0.27	Control	0.9286	0.004	Yes	2.784	-0.004	1.0	GoodResponse	0	0.266	136.928	3	13	Target	Neutral	True
137.928	0.3	Control	0.9286	0.004	Yes	2.784	-0.004	1.0	GoodResponse	0	0.266	n/a	3	13	ButtonPress	Neutral	True
137.946	0.43	Control	0.9286	n/a	Yes	2.784	n/a	n/a	GoodResponse	0	n/a	n/a	3	13	Blank	Neutral	True
138.364	1.45	Control	0.9286	n/a	Yes	2.784	n/a	5.0	GoodResponse	0	0.049	137.413	3	13	Feedback	Neutral	True
139.819	2.784	Control	0.9286	n/a	Yes	2.784	n/a	n/a	GoodResponse	0	0.0	n/a	3	13	ISIslide	Neutral	True
142.627	0.25	Win2	0.8667	0.0	No	2.673	0.027	n/a	PrematurePress	0	n/a	n/a	3	14	Cue	MissedWin	True
142.878	4.1	Win2	0.8667	0.0	No	2.673	0.001	n/a	PrematurePress	0	n/a	n/a	3	14	Fixation	MissedWin	True
146.973	0.26	Win2	0.8667	0.004	No	2.673	-0.004	1.0	PrematurePress	0	0.016	145.989	3	14	Target	MissedWin	True
146.989	0.3	Win2	0.8667	0.004	No	2.673	-0.004	1.0	PrematurePress	0	0.016	n/a	3	14	ButtonPress	MissedWin	True
147.241	0.44	Win2	0.8667	n/a	No	2.673	n/a	n/a	PrematurePress	0	n/a	n/a	3	14	Blank	MissedWin	True
147.676	1.45	Win2	0.8667	n/a	No	2.673	n/a	5.0	PrematurePress	0	0.006	146.682	3	14	Feedback	MissedWin	True
149.13	2.673	Win2	0.8667	n/a	No	2.673	n/a	n/a	PrematurePress	0	0.0	n/a	3	14	ISIslide	MissedWin	True
151.821	0.25	Control	0.8125	0.0	No	2.979	0.021	n/a	NoResponse	0	n/a	n/a	3	15	Cue	Neutral	True
152.072	4.0	Control	0.8125	0.0	No	2.979	0.001	n/a	NoResponse	0	n/a	n/a	3	15	Fixation	Neutral	True
156.067	0.25	Control	0.8125	0.004	No	2.979	-0.004	1.0	NoResponse	0	0.392	155.459	3	15	Target	Neutral	True
156.318	0.45	Control	0.8125	n/a	No	2.979	n/a	n/a	NoResponse	0	n/a	n/a	3	15	Blank	Neutral	True
156.459	0.3	Control	0.8125	0.004	No	2.979	-0.004	1.0	NoResponse	0	0.392	n/a	3	15	ButtonPress	Neutral	True
156.769	1.45	Control	0.8125	n/a	No	2.979	n/a	5.0	NoResponse	0	0.034	155.803	3	15	Feedback	Neutral	True
158.224	2.979	Control	0.8125	n/a	No	2.979	n/a	n/a	NoResponse	0	0.0	n/a	3	15	ISIslide	Neutral	True
161.216	0.25	Win2	0.8234999999999999	0.0	Yes	2.884	0.016	n/a	GoodResponse	1	n/a	n/a	4	16	Cue	Win	True
161.467	4.0	Win2	0.8234999999999999	0.0	Yes	2.884	0.001	n/a	GoodResponse	1	n/a	n/a	4	16	Fixation	Win	True
165.462	0.24	Win2	0.8234999999999999	0.004	Yes	2.884	-0.004	1.0	GoodResponse	1	0.202	164.664	4	16	Target	Win	True
165.664	0.3	Win2	0.8234999999999999	0.004	Yes	2.884	-0.004	1.0	GoodResponse	1	0.202	n/a	4	16	ButtonPress	Win	True
165.713	0.46	Win2	0.8234999999999999	n/a	Yes	2.884	n/a	n/a	GoodResponse	1	n/a	n/a	4	16	Blank	Win	True
166.164	1.45	Win2	0.8234999999999999	n/a	Yes	2.884	n/a	5.0	GoodResponse	1	0.007	165.171	4	16	Feedback	Win	True
167.619	2.884	Win2	0.8234999999999999	n/a	Yes	2.884	n/a	n/a	GoodResponse	1	0.0	n/a	4	16	ISIslide	Win	True
170.527	0.25	Lose2	0.8332999999999999	0.0	Yes	2.723	0.027	n/a	GoodResponse	0	n/a	n/a	4	17	Cue	AvoidedLoss	True
170.778	3.95	Lose2	0.8332999999999999	0.0	Yes	2.723	0.001	n/a	GoodResponse	0	n/a	n/a	4	17	Fixation	AvoidedLoss	True
174.723	0.23	Lose2	0.8332999999999999	0.004	Yes	2.723	-0.004	1.0	GoodResponse	0	0.213	173.936	4	17	Target	AvoidedLoss	True
174.936	0.3	Lose2	0.8332999999999999	0.004	Yes	2.723	-0.004	1.0	GoodResponse	0	0.213	n/a	4	17	ButtonPress	AvoidedLoss	True
174.957	0.47	Lose2	0.8332999999999999	n/a	Yes	2.723	n/a	n/a	GoodResponse	0	n/a	n/a	4	17	Blank	AvoidedLoss	True
175.425	1.45	Lose2	0.8332999999999999	n/a	Yes	2.723	n/a	5.0	GoodResponse	0	0.012	174.437	4	17	Feedback	AvoidedLoss	True
176.88	2.723	Lose2	0.8332999999999999	n/a	Yes	2.723	n/a	n/a	GoodResponse	0	0.0	n/a	4	17	ISIslide	AvoidedLoss	True
179.621	0.25	Lose2	0.8421	0.0	Yes	2.729	0.021	n/a	GoodResponse	0	n/a	n/a	4	18	Cue	AvoidedLoss	True
179.872	4.05	Lose2	0.8421	0.0	Yes	2.729	0.001	n/a	GoodResponse	0	n/a	n/a	4	18	Fixation	AvoidedLoss	True
183.917	0.22	Lose2	0.8421	0.004	Yes	2.729	-0.004	1.0	GoodResponse	0	0.162	183.079	4	18	Target	AvoidedLoss	True
184.079	0.3	Lose2	0.8421	0.004	Yes	2.729	-0.004	1.0	GoodResponse	0	0.162	n/a	4	18	ButtonPress	AvoidedLoss	True
184.151	0.48	Lose2	0.8421	n/a	Yes	2.729	n/a	n/a	GoodResponse	0	n/a	n/a	4	18	Blank	AvoidedLoss	True
184.619	1.45	Lose2	0.8421	n/a	Yes	2.729	n/a	5.0	GoodResponse	0	0.037	183.656	4	18	Feedback	AvoidedLoss	True
186.074	2.729	Lose2	0.8421	n/a	Yes	2.729	n/a	n/a	GoodResponse	0	0.0	n/a	4	18	ISIslide	AvoidedLoss	True
188.815	0.25	Control	0.8	0.0	No	2.935	0.015	n/a	NoResponse	0	n/a	n/a	4	19	Cue	Neutral	True
189.066	3.95	Control	0.8	0.0	No	2.935	0.001	n/a	NoResponse	0	n/a	n/a	4	19	Fixation	Neutral	True
193.011	0.21	Control	0.8	0.004	No	2.935	-0.004	1.0	NoResponse	0	0.327	192.338	4	19	Target	Neutral	True
193.228	0.49	Control	0.8	n/a	No	2.935	n/a	n/a	NoResponse	0	n/a	n/a	4	19	Blank	Neutral	True
193.338	0.3	Control	0.8	0.004	No	2.935	-0.004	1.0	NoResponse	0	0.327	n/a	4	19	ButtonPress	Neutral	True
193.713	1.45	Control	0.8	n/a	No	2.935	n/a	5.0	NoResponse	0	0.017	192.73	4	19	Feedback	Neutral	True
195.168	2.935	Control	0.8	n/a	No	2.935	n/a	n/a	NoResponse	0	0.0	n/a	4	19	ISIslide	Neutral	True
198.126	0.25	Control	0.7619	0.001	No	2.624	0.026	n/a	LatePress	0	n/a	n/a	4	20	Cue	Neutral	True
198.377	4.05	Control	0.7619	0.0	No	2.624	0.001	n/a	LatePress	0	n/a	n/a	4	20	Fixation	Neutral	True
202.423	0.2	Control	0.7619	0.003	No	2.624	-0.003	1.0	LatePress	0	0.203	201.626	4	20	Target	Neutral	True
202.623	0.5	Control	0.7619	n/a	No	2.624	n/a	n/a	LatePress	0	n/a	n/a	4	20	Blank	Neutral	True
202.626	0.3	Control	0.7619	0.003	No	2.624	-0.003	1.0	LatePress	0	0.203	n/a	4	20	ButtonPress	Neutral	True
203.125	1.45	Control	0.7619	n/a	No	2.624	n/a	5.0	LatePress	0	0.019	202.144	4	20	Feedback	Neutral	True
204.579	2.624	Control	0.7619	n/a	No	2.624	n/a	n/a	LatePress	0	0.0	n/a	4	20	ISIslide	Neutral	True
207.22	0.25	Control	0.7273000000000001	0.0	No	2.78	0.02	n/a	NoResponse	0	n/a	n/a	4	21	Cue	Neutral	True
207.471	4.1	Control	0.7273000000000001	0.0	No	2.78	0.001	n/a	NoResponse	0	n/a	n/a	4	21	Fixation	Neutral	True
211.567	0.19	Control	0.7273000000000001	0.003	No	2.78	-0.003	1.0	NoResponse	0	0.324	210.891	4	21	Target	Neutral	True
211.767	0.51	Control	0.7273000000000001	n/a	No	2.78	n/a	n/a	NoResponse	0	n/a	n/a	4	21	Blank	Neutral	True
211.891	0.3	Control	0.7273000000000001	0.003	No	2.78	-0.003	1.0	NoResponse	0	0.324	n/a	4	21	ButtonPress	Neutral	True
212.269	1.45	Control	0.7273000000000001	n/a	No	2.78	n/a	5.0	NoResponse	0	0.045	211.314	4	21	Feedback	Neutral	True
213.723	2.78	Control	0.7273000000000001	n/a	No	2.78	n/a	n/a	NoResponse	0	0.0	n/a	4	21	ISIslide	Neutral	True
216.515	0.25	Control	0.6957	0.0	No	2.785	0.015	n/a	NoResponse	0	n/a	n/a	4	22	Cue	Neutral	True
216.765	4.0	Control	0.6957	0.001	No	2.785	0.0	n/a	NoResponse	0	n/a	n/a	4	22	Fixation	Neutral	True
220.761	0.18	Control	0.6957	0.004	No	2.785	-0.004	1.0	NoResponse	0	0.209	219.97	4	22	Target	Neutral	True
220.945	0.52	Control	0.6957	n/a	No	2.785	n/a	n/a	NoResponse	0	n/a	n/a	4	22	Blank	Neutral	True
220.97	0.3	Control	0.6957	0.004	No	2.785	-0.004	1.0	NoResponse	0	0.209	n/a	4	22	ButtonPress	Neutral	True
221.463	1.45	Control	0.6957	n/a	No	2.785	n/a	5.0	NoResponse	0	0.022	220.485	4	22	Feedback	Neutral	True
222.917	2.785	Control	0.6957	n/a	No	2.785	n/a	n/a	NoResponse	0	0.0	n/a	4	22	ISIslide	Neutral	True
225.726	0.25	Control	0.6667000000000001	0.0	No	2.774	0.026	n/a	NoResponse	0	n/a	n/a	4	23	Cue	Neutral	True
225.976	3.9	Control	0.6667000000000001	0.0	No	2.774	0.0	n/a	NoResponse	0	n/a	n/a	4	23	Fixation	Neutral	True
229.888	0.17	Control	0.6667000000000001	0.0	No	2.774	0.012	1.0	NoResponse	0	0.248	229.136	4	23	Target	Neutral	True
230.055	0.53	Control	0.6667000000000001	n/a	No	2.774	n/a	n/a	NoResponse	0	n/a	n/a	4	23	Blank	Neutral	True
230.136	0.3	Control	0.6667000000000001	0.0	No	2.774	0.012	1.0	NoResponse	0	0.248	n/a	4	23	ButtonPress	Neutral	True
230.573	1.45	Control	0.6667000000000001	n/a	No	2.774	n/a	5.0	NoResponse	0	0.034	229.607	4	23	Feedback	Neutral	True
232.028	2.774	Control	0.6667000000000001	n/a	No	2.774	n/a	n/a	NoResponse	0	0.0	n/a	4	23	ISIslide	Neutral	True
234.819	0.25	Win2	0.64	0.001	No	3.131	0.019	n/a	NoResponse	0	n/a	n/a	4	24	Cue	MissedWin	True
235.07	3.95	Win2	0.64	0.0	No	3.131	0.001	n/a	NoResponse	0	n/a	n/a	4	24	Fixation	MissedWin	True
239.015	0.16	Win2	0.64	0.004	No	3.131	-0.004	1.0	NoResponse	0	0.199	238.214	4	24	Target	MissedWin	True
239.182	0.54	Win2	0.64	n/a	No	3.131	n/a	n/a	NoResponse	0	n/a	n/a	4	24	Blank	MissedWin	True
239.214	0.3	Win2	0.64	0.004	No	3.131	-0.004	1.0	NoResponse	0	0.199	n/a	4	24	ButtonPress	MissedWin	True
239.717	1.45	Win2	0.64	n/a	No	3.131	n/a	5.0	NoResponse	0	0.012	238.729	4	24	Feedback	MissedWin	True
241.172	3.131	Win2	0.64	n/a	No	3.131	n/a	n/a	NoResponse	0	0.0	n/a	4	24	ISIslide	MissedWin	True
244.331	0.25	Win2	0.6154	0.0	No	3.069	0.031	n/a	NoResponse	0	n/a	n/a	4	25	Cue	MissedWin	True
244.582	4.0	Win2	0.6154	0.0	No	3.069	0.001	n/a	NoResponse	0	n/a	n/a	4	25	Fixation	MissedWin	True
248.577	0.17	Win2	0.6154	0.004	No	3.069	-0.004	1.0	NoResponse	0	0.199	247.776	4	25	Target	MissedWin	True
248.761	0.53	Win2	0.6154	n/a	No	3.069	n/a	n/a	NoResponse	0	n/a	n/a	4	25	Blank	MissedWin	True
248.776	0.3	Win2	0.6154	0.004	No	3.069	-0.004	1.0	NoResponse	0	0.199	n/a	4	25	ButtonPress	MissedWin	True
249.279	1.45	Win2	0.6154	n/a	No	3.069	n/a	5.0	NoResponse	0	0.01	248.289	4	25	Feedback	MissedWin	True
250.734	3.069	Win2	0.6154	n/a	No	3.069	n/a	n/a	NoResponse	0	0.0	n/a	4	25	ISIslide	MissedWin	True
253.826	0.25	Win2	0.5926	0.0	No	2.924	0.026	n/a	LatePress	0	n/a	n/a	4	26	Cue	MissedWin	False
254.077	3.95	Win2	0.5926	0.0	No	2.924	0.001	1.0	LatePress	0	3.31	256.387	4	26	Fixation	MissedWin	False
257.387	0.3	Win2	0.5926	0.0	No	2.924	0.001	1.0	LatePress	0	3.31	n/a	4	26	ButtonPress	MissedWin	False
258.022	0.18	Win2	0.5926	0.004	No	2.924	-0.004	1.0	LatePress	0	0.183	257.205	4	26	Target	MissedWin	False
258.205	0.3	Win2	0.5926	0.004	No	2.924	-0.004	1.0	LatePress	0	0.183	n/a	4	26	ButtonPress	MissedWin	False
258.206	0.52	Win2	0.5926	n/a	No	2.924	n/a	n/a	LatePress	0	n/a	n/a	4	26	Blank	MissedWin	False
258.724	1.45	Win2	0.5926	n/a	No	2.924	n/a	5.0	LatePress	0	0.029	257.753	4	26	Feedback	MissedWin	False
260.179	2.924	Win2	0.5926	n/a	No	2.924	n/a	n/a	LatePress	0	0.0	n/a	4	26	ISIslide	MissedWin	False
263.121	0.25	Lose2	0.6071	0.0	Yes	2.829	0.021	n/a	GoodResponse	0	n/a	n/a	4	27	Cue	AvoidedLoss	True
263.371	4.05	Lose2	0.6071	0.001	Yes	2.829	0.0	n/a	GoodResponse	0	n/a	n/a	4	27	Fixation	AvoidedLoss	True
267.417	0.19	Lose2	0.6071	0.004	Yes	2.829	-0.004	1.0	GoodResponse	0	0.154	266.571	4	27	Target	AvoidedLoss	True
267.571	0.3	Lose2	0.6071	0.004	Yes	2.829	-0.004	1.0	GoodResponse	0	0.154	n/a	4	27	ButtonPress	AvoidedLoss	True
267.618	0.51	Lose2	0.6071	n/a	Yes	2.829	n/a	n/a	GoodResponse	0	n/a	n/a	4	27	Blank	AvoidedLoss	True
268.119	1.45	Lose2	0.6071	n/a	Yes	2.829	n/a	5.0	GoodResponse	0	0.049	267.168	4	27	Feedback	AvoidedLoss	True
269.573	2.829	Lose2	0.6071	n/a	Yes	2.829	n/a	n/a	GoodResponse	0	0.0	n/a	4	27	ISIslide	AvoidedLoss	True
272.415	0.25	Control	0.5861999999999999	0.0	No	2.835	0.015	n/a	NoResponse	0	n/a	n/a	4	28	Cue	Neutral	True
272.666	4.05	Control	0.5861999999999999	0.0	No	2.835	0.001	n/a	NoResponse	0	n/a	n/a	4	28	Fixation	Neutral	True
276.711	0.2	Control	0.5861999999999999	0.004	No	2.835	-0.004	1.0	NoResponse	0	0.24	275.951	4	28	Target	Neutral	True
276.912	0.5	Control	0.5861999999999999	n/a	No	2.835	n/a	n/a	NoResponse	0	n/a	n/a	4	28	Blank	Neutral	True
276.951	0.3	Control	0.5861999999999999	0.004	No	2.835	-0.004	1.0	NoResponse	0	0.24	n/a	4	28	ButtonPress	Neutral	True
277.413	1.45	Control	0.5861999999999999	n/a	No	2.835	n/a	5.0	NoResponse	0	0.023	276.436	4	28	Feedback	Neutral	True
278.868	2.835	Control	0.5861999999999999	n/a	No	2.835	n/a	n/a	NoResponse	0	0.0	n/a	4	28	ISIslide	Neutral	True
281.726	0.25	Lose2	0.5667	0.0	No	2.824	0.026	n/a	PrematurePress	-1	n/a	n/a	3	29	Cue	Loss	True
281.977	3.95	Lose2	0.5667	0.0	No	2.824	0.001	n/a	PrematurePress	-1	n/a	n/a	3	29	Fixation	Loss	True
285.922	0.21	Lose2	0.5667	0.004	No	2.824	-0.004	1.0	PrematurePress	-1	0.099	285.021	3	29	Target	Loss	True
286.021	0.3	Lose2	0.5667	0.004	No	2.824	-0.004	1.0	PrematurePress	-1	0.099	n/a	3	29	ButtonPress	Loss	True
286.14	0.49	Lose2	0.5667	n/a	No	2.824	n/a	n/a	PrematurePress	-1	n/a	n/a	3	29	Blank	Loss	True
286.624	1.45	Lose2	0.5667	n/a	No	2.824	n/a	5.0	PrematurePress	-1	0.032	285.656	3	29	Feedback	Loss	True
288.079	2.824	Lose2	0.5667	n/a	No	2.824	n/a	n/a	PrematurePress	-1	0.0	n/a	3	29	ISIslide	Loss	True
290.921	0.25	Win2	0.5484	0.0	No	2.779	0.021	n/a	NoResponse	0	n/a	n/a	3	30	Cue	MissedWin	True
291.171	3.9	Win2	0.5484	0.0	No	2.779	0.0	1.0	NoResponse	0	3.673	293.844	3	30	Fixation	MissedWin	True
294.844	0.3	Win2	0.5484	0.0	No	2.779	0.0	1.0	NoResponse	0	3.673	n/a	3	30	ButtonPress	MissedWin	True
295.083	0.22	Win2	0.5484	0.0	No	2.779	0.012	n/a	NoResponse	0	n/a	n/a	3	30	Target	MissedWin	True
295.3	0.48	Win2	0.5484	n/a	No	2.779	n/a	n/a	NoResponse	0	n/a	n/a	3	30	Blank	MissedWin	True
295.768	1.45	Win2	0.5484	n/a	No	2.779	n/a	5.0	NoResponse	0	0.009	294.777	3	30	Feedback	MissedWin	True
297.223	2.779	Win2	0.5484	n/a	No	2.779	n/a	n/a	NoResponse	0	0.0	n/a	3	30	ISIslide	MissedWin	True
300.031	0.25	Lose2	0.5312	0.0	No	2.819	0.031	n/a	NoResponse	-1	n/a	n/a	2	31	Cue	Loss	True
300.282	4.05	Lose2	0.5312	0.0	No	2.819	0.001	1.0	NoResponse	-1	3.14	302.422	2	31	Fixation	Loss	True
303.422	0.3	Lose2	0.5312	0.0	No	2.819	0.001	1.0	NoResponse	-1	3.14	n/a	2	31	ButtonPress	Loss	True
304.327	0.23	Lose2	0.5312	0.004	No	2.819	-0.004	n/a	NoResponse	-1	n/a	n/a	2	31	Target	Loss	True
304.561	0.47	Lose2	0.5312	n/a	No	2.819	n/a	n/a	NoResponse	-1	n/a	n/a	2	31	Blank	Loss	True
305.029	1.45	Lose2	0.5312	n/a	No	2.819	n/a	5.0	NoResponse	-1	0.016	304.045	2	31	Feedback	Loss	True
306.484	2.819	Lose2	0.5312	n/a	No	2.819	n/a	n/a	NoResponse	-1	0.0	n/a	2	31	ISIslide	Loss	True
309.326	0.25	Lose2	0.5455	0.0	Yes	2.624	0.026	n/a	GoodResponse	0	n/a	n/a	2	32	Cue	AvoidedLoss	True
309.576	4.15	Lose2	0.5455	0.0	Yes	2.624	0.0	n/a	GoodResponse	0	n/a	n/a	2	32	Fixation	AvoidedLoss	True
313.722	0.24	Lose2	0.5455	0.004	Yes	2.624	-0.004	1.0	GoodResponse	0	0.232	312.954	2	32	Target	AvoidedLoss	True
313.954	0.3	Lose2	0.5455	0.004	Yes	2.624	-0.004	1.0	GoodResponse	0	0.232	n/a	2	32	ButtonPress	AvoidedLoss	True
313.973	0.46	Lose2	0.5455	n/a	Yes	2.624	n/a	n/a	GoodResponse	0	n/a	n/a	2	32	Blank	AvoidedLoss	True
314.424	1.45	Lose2	0.5455	n/a	Yes	2.624	n/a	5.0	GoodResponse	0	0.036	313.46	2	32	Feedback	AvoidedLoss	True
315.878	2.624	Lose2	0.5455	n/a	Yes	2.624	n/a	n/a	GoodResponse	0	0.0	n/a	2	32	ISIslide	AvoidedLoss	True
318.52	0.25	Win2	0.5588000000000001	0.0	Yes	2.68	0.02	n/a	GoodResponse	1	n/a	n/a	3	33	Cue	Win	False
318.77	4.0	Win2	0.5588000000000001	0.001	Yes	2.68	0.0	1.0	GoodResponse	1	3.34	321.11	3	33	Fixation	Win	False
322.11	0.3	Win2	0.5588000000000001	0.001	Yes	2.68	0.0	1.0	GoodResponse	1	3.34	n/a	3	33	ButtonPress	Win	False
322.766	0.25	Win2	0.5588000000000001	0.004	Yes	2.68	-0.004	1.0	GoodResponse	1	0.217	321.983	3	33	Target	Win	False
322.983	0.3	Win2	0.5588000000000001	0.004	Yes	2.68	-0.004	1.0	GoodResponse	1	0.217	n/a	3	33	ButtonPress	Win	False
323.016	0.45	Win2	0.5588000000000001	n/a	Yes	2.68	n/a	n/a	GoodResponse	1	n/a	n/a	3	33	Blank	Win	False
323.468	1.45	Win2	0.5588000000000001	n/a	Yes	2.68	n/a	5.0	GoodResponse	1	0.016	322.484	3	33	Feedback	Win	False
324.922	2.68	Win2	0.5588000000000001	n/a	Yes	2.68	n/a	n/a	GoodResponse	1	0.0	n/a	3	33	ISIslide	Win	False
327.63	0.25	Lose2	0.5714	0.0	Yes	2.62	0.03	n/a	GoodResponse	0	n/a	n/a	3	34	Cue	AvoidedLoss	True
327.881	4.05	Lose2	0.5714	0.0	Yes	2.62	0.001	n/a	GoodResponse	0	n/a	n/a	3	34	Fixation	AvoidedLoss	True
331.926	0.26	Lose2	0.5714	0.004	Yes	2.62	-0.004	1.0	GoodResponse	0	0.159	331.085	3	34	Target	AvoidedLoss	True
332.085	0.3	Lose2	0.5714	0.004	Yes	2.62	-0.004	1.0	GoodResponse	0	0.159	n/a	3	34	ButtonPress	AvoidedLoss	True
332.194	0.44	Lose2	0.5714	n/a	Yes	2.62	n/a	n/a	GoodResponse	0	n/a	n/a	3	34	Blank	AvoidedLoss	True
332.629	1.45	Lose2	0.5714	n/a	Yes	2.62	n/a	5.0	GoodResponse	0	0.026	331.655	3	34	Feedback	AvoidedLoss	True
334.083	2.62	Lose2	0.5714	n/a	Yes	2.62	n/a	n/a	GoodResponse	0	0.0	n/a	3	34	ISIslide	AvoidedLoss	True
336.724	0.25	Lose2	0.5556	0.0	No	2.676	0.024	n/a	NoResponse	-1	n/a	n/a	2	35	Cue	Loss	True
336.975	4.0	Lose2	0.5556	0.0	No	2.676	0.001	n/a	NoResponse	-1	n/a	n/a	2	35	Fixation	Loss	True
340.97	0.27	Lose2	0.5556	0.004	No	2.676	-0.004	1.0	NoResponse	-1	0.318	340.288	2	35	Target	Loss	True
341.254	0.43	Lose2	0.5556	n/a	No	2.676	n/a	n/a	NoResponse	-1	n/a	n/a	2	35	Blank	Loss	True
341.288	0.3	Lose2	0.5556	0.004	No	2.676	-0.004	1.0	NoResponse	-1	0.318	n/a	2	35	ButtonPress	Loss	True
341.672	1.45	Lose2	0.5556	n/a	No	2.676	n/a	5.0	NoResponse	-1	0.007	340.679	2	35	Feedback	Loss	True
343.127	2.676	Lose2	0.5556	n/a	No	2.676	n/a	n/a	NoResponse	-1	0.0	n/a	2	35	ISIslide	Loss	True
345.818	0.25	Control	0.5405	0.0	No	2.682	0.018	n/a	NoResponse	0	n/a	n/a	2	36	Cue	Neutral	True
346.069	4.0	Control	0.5405	0.0	No	2.682	0.001	n/a	NoResponse	0	n/a	n/a	2	36	Fixation	Neutral	True
350.064	0.28	Control	0.5405	0.004	No	2.682	-0.004	1.0	NoResponse	0	0.396	349.46	2	36	Target	Neutral	True
350.348	0.42	Control	0.5405	n/a	No	2.682	n/a	n/a	NoResponse	0	n/a	n/a	2	36	Blank	Neutral	True
350.46	0.3	Control	0.5405	0.004	No	2.682	-0.004	1.0	NoResponse	0	0.396	n/a	2	36	ButtonPress	Neutral	True
350.766	1.45	Control	0.5405	n/a	No	2.682	n/a	5.0	NoResponse	0	0.035	349.801	2	36	Feedback	Neutral	True
352.22	2.682	Control	0.5405	n/a	No	2.682	n/a	n/a	NoResponse	0	0.0	n/a	2	36	ISIslide	Neutral	True
354.929	0.25	Win2	0.5263	0.0	No	2.871	0.029	n/a	NoResponse	0	n/a	n/a	2	37	Cue	MissedWin	True
355.179	4.0	Win2	0.5263	0.0	No	2.871	0.0	1.0	NoResponse	0	3.755	357.934	2	37	Fixation	MissedWin	True
358.934	0.3	Win2	0.5263	0.0	No	2.871	0.0	1.0	NoResponse	0	3.755	n/a	2	37	ButtonPress	MissedWin	True
359.175	0.29	Win2	0.5263	0.004	No	2.871	-0.004	n/a	NoResponse	0	n/a	n/a	2	37	Target	MissedWin	True
359.475	0.41	Win2	0.5263	n/a	No	2.871	n/a	n/a	NoResponse	0	n/a	n/a	2	37	Blank	MissedWin	True
359.877	1.45	Win2	0.5263	n/a	No	2.871	n/a	5.0	NoResponse	0	0.046	358.923	2	37	Feedback	MissedWin	True
361.331	2.871	Win2	0.5263	n/a	No	2.871	n/a	n/a	NoResponse	0	0.0	n/a	2	37	ISIslide	MissedWin	True
364.223	0.25	Lose2	0.5128	0.0	No	2.827	0.023	n/a	LatePress	-1	n/a	n/a	1	38	Cue	Loss	True
364.474	3.95	Lose2	0.5128	0.0	No	2.827	0.001	n/a	LatePress	-1	n/a	n/a	1	38	Fixation	Loss	True
368.419	0.3	Lose2	0.5128	0.004	No	2.827	-0.004	1.0	LatePress	-1	0.303	367.722	1	38	Target	Loss	True
368.72	0.4	Lose2	0.5128	n/a	No	2.827	n/a	n/a	LatePress	-1	n/a	n/a	1	38	Blank	Loss	True
368.722	0.3	Lose2	0.5128	0.004	No	2.827	-0.004	1.0	LatePress	-1	0.303	n/a	1	38	ButtonPress	Loss	True
369.121	1.45	Lose2	0.5128	n/a	No	2.827	n/a	5.0	LatePress	-1	0.021	368.142	1	38	Feedback	Loss	True
370.575	2.827	Lose2	0.5128	n/a	No	2.827	n/a	n/a	LatePress	-1	0.0	n/a	1	38	ISIslide	Loss	True
373.417	0.25	Win2	0.525	0.0	Yes	2.983	0.017	n/a	GoodResponse	1	n/a	n/a	2	39	Cue	Win	True
373.668	4.1	Win2	0.525	0.0	Yes	2.983	0.001	n/a	GoodResponse	1	n/a	n/a	2	39	Fixation	Win	True
377.763	0.31	Win2	0.525	0.004	Yes	2.983	-0.004	1.0	GoodResponse	1	0.173	376.936	2	39	Target	Win	True
377.936	0.3	Win2	0.525	0.004	Yes	2.983	-0.004	1.0	GoodResponse	1	0.173	n/a	2	39	ButtonPress	Win	True
378.081	0.39	Win2	0.525	n/a	Yes	2.983	n/a	n/a	GoodResponse	1	n/a	n/a	2	39	Blank	Win	True
378.466	1.45	Win2	0.525	n/a	Yes	2.983	n/a	5.0	GoodResponse	1	0.041	377.507	2	39	Feedback	Win	True
379.92	2.983	Win2	0.525	n/a	Yes	2.983	n/a	n/a	GoodResponse	1	0.0	n/a	2	39	ISIslide	Win	True
382.929	0.25	Win2	0.5366	0.0	Yes	2.721	0.029	n/a	GoodResponse	1	n/a	n/a	3	40	Cue	Win	True
383.18	3.95	Win2	0.5366	0.0	Yes	2.721	0.001	n/a	GoodResponse	1	n/a	n/a	3	40	Fixation	Win	True
387.125	0.32	Win2	0.5366	0.004	Yes	2.721	-0.004	1.0	GoodResponse	1	0.203	386.328	3	40	Target	Win	True
387.328	0.3	Win2	0.5366	0.004	Yes	2.721	-0.004	1.0	GoodResponse	1	0.203	n/a	3	40	ButtonPress	Win	True
387.459	0.38	Win2	0.5366	n/a	Yes	2.721	n/a	n/a	GoodResponse	1	n/a	n/a	3	40	Blank	Win	True
387.827	1.45	Win2	0.5366	n/a	Yes	2.721	n/a	5.0	GoodResponse	1	0.046	386.873	3	40	Feedback	Win	True
389.281	2.721	Win2	0.5366	n/a	Yes	2.721	n/a	n/a	GoodResponse	1	0.0	n/a	3	40	ISIslide	Win	True
392.023	0.25	Win2	0.5476	0.0	Yes	2.777	0.023	n/a	GoodResponse	1	n/a	n/a	4	41	Cue	Win	True
392.274	3.9	Win2	0.5476	0.0	Yes	2.777	0.001	n/a	GoodResponse	1	n/a	n/a	4	41	Fixation	Win	True
396.169	0.33	Win2	0.5476	0.004	Yes	2.777	-0.004	1.0	GoodResponse	1	0.204	395.373	4	41	Target	Win	True
396.373	0.3	Win2	0.5476	0.004	Yes	2.777	-0.004	1.0	GoodResponse	1	0.204	n/a	4	41	ButtonPress	Win	True
396.503	0.37	Win2	0.5476	n/a	Yes	2.777	n/a	n/a	GoodResponse	1	n/a	n/a	4	41	Blank	Win	True
396.871	1.45	Win2	0.5476	n/a	Yes	2.777	n/a	5.0	GoodResponse	1	0.027	395.898	4	41	Feedback	Win	True
398.325	2.777	Win2	0.5476	n/a	Yes	2.777	n/a	n/a	GoodResponse	1	0.0	n/a	4	41	ISIslide	Win	True
401.117	0.25	Control	0.5581	0.0	Yes	2.933	0.017	n/a	GoodResponse	0	n/a	n/a	4	42	Cue	Neutral	True
401.367	3.85	Control	0.5581	0.0	Yes	2.933	0.0	n/a	GoodResponse	0	n/a	n/a	4	42	Fixation	Neutral	True
405.229	0.34	Control	0.5581	0.0	Yes	2.933	0.012	1.0	GoodResponse	0	0.224	404.453	4	42	Target	Neutral	True
405.453	0.3	Control	0.5581	0.0	Yes	2.933	0.012	1.0	GoodResponse	0	0.224	n/a	4	42	ButtonPress	Neutral	True
405.563	0.36	Control	0.5581	n/a	Yes	2.933	n/a	n/a	GoodResponse	0	n/a	n/a	4	42	Blank	Neutral	True
405.914	1.45	Control	0.5581	n/a	Yes	2.933	n/a	5.0	GoodResponse	0	0.008	404.922	4	42	Feedback	Neutral	True
407.369	2.933	Control	0.5581	n/a	Yes	2.933	n/a	n/a	GoodResponse	0	0.0	n/a	4	42	ISIslide	Neutral	True
410.328	0.25	Win2	0.5682	0.0	Yes	3.172	0.028	n/a	GoodResponse	1	n/a	n/a	5	43	Cue	Win	True
410.578	4.0	Win2	0.5682	0.0	Yes	3.172	0.0	n/a	GoodResponse	1	n/a	n/a	5	43	Fixation	Win	True
414.574	0.35	Win2	0.5682	0.004	Yes	3.172	-0.004	1.0	GoodResponse	1	0.197	413.771	5	43	Target	Win	True
414.771	0.3	Win2	0.5682	0.004	Yes	3.172	-0.004	1.0	GoodResponse	1	0.197	n/a	5	43	ButtonPress	Win	True
414.925	0.35	Win2	0.5682	n/a	Yes	3.172	n/a	n/a	GoodResponse	1	n/a	n/a	5	43	Blank	Win	True
415.276	1.45	Win2	0.5682	n/a	Yes	3.172	n/a	5.0	GoodResponse	1	0.012	414.288	5	43	Feedback	Win	True
416.73	3.172	Win2	0.5682	n/a	Yes	3.172	n/a	n/a	GoodResponse	1	0.0	n/a	5	43	ISIslide	Win	True
419.923	0.25	Win2	0.5778	0.0	Yes	2.977	0.023	n/a	GoodResponse	1	n/a	n/a	6	44	Cue	Win	True
420.174	4.0	Win2	0.5778	0.0	Yes	2.977	0.001	n/a	GoodResponse	1	n/a	n/a	6	44	Fixation	Win	True
424.169	0.36	Win2	0.5778	0.004	Yes	2.977	-0.004	1.0	GoodResponse	1	0.198	423.367	6	44	Target	Win	True
424.367	0.3	Win2	0.5778	0.004	Yes	2.977	-0.004	1.0	GoodResponse	1	0.198	n/a	6	44	ButtonPress	Win	True
424.537	0.34	Win2	0.5778	n/a	Yes	2.977	n/a	n/a	GoodResponse	1	n/a	n/a	6	44	Blank	Win	True
424.871	1.45	Win2	0.5778	n/a	Yes	2.977	n/a	5.0	GoodResponse	1	0.026	423.897	6	44	Feedback	Win	True
426.325	2.977	Win2	0.5778	n/a	Yes	2.977	n/a	n/a	GoodResponse	1	0.0	n/a	6	44	ISIslide	Win	True
429.318	0.25	Control	0.5870000000000001	0.0	Yes	2.882	0.018	n/a	GoodResponse	0	n/a	n/a	6	45	Cue	Neutral	True
429.568	4.1	Control	0.5870000000000001	0.0	Yes	2.882	0.0	n/a	GoodResponse	0	n/a	n/a	6	45	Fixation	Neutral	True
433.664	0.37	Control	0.5870000000000001	0.004	Yes	2.882	-0.004	1.0	GoodResponse	0	0.322	432.986	6	45	Target	Neutral	True
433.986	0.3	Control	0.5870000000000001	0.004	Yes	2.882	-0.004	1.0	GoodResponse	0	0.322	n/a	6	45	ButtonPress	Neutral	True
434.048	0.33	Control	0.5870000000000001	n/a	Yes	2.882	n/a	n/a	GoodResponse	0	n/a	n/a	6	45	Blank	Neutral	True
434.366	1.45	Control	0.5870000000000001	n/a	Yes	2.882	n/a	5.0	GoodResponse	0	0.043	433.409	6	45	Feedback	Neutral	True
435.82	2.882	Control	0.5870000000000001	n/a	Yes	2.882	n/a	n/a	GoodResponse	0	0.0	n/a	6	45	ISIslide	Neutral	True
438.729	0.25	Lose2	0.5957	0.0	Yes	3.371	0.029	n/a	GoodResponse	0	n/a	n/a	6	46	Cue	AvoidedLoss	True
438.98	4.0	Lose2	0.5957	0.0	Yes	3.371	0.001	n/a	GoodResponse	0	n/a	n/a	6	46	Fixation	AvoidedLoss	True
442.975	0.38	Lose2	0.5957	0.004	Yes	3.371	-0.004	1.0	GoodResponse	0	0.211	442.186	6	46	Target	AvoidedLoss	True
443.186	0.3	Lose2	0.5957	0.004	Yes	3.371	-0.004	1.0	GoodResponse	0	0.211	n/a	6	46	ButtonPress	AvoidedLoss	True
443.36	0.32	Lose2	0.5957	n/a	Yes	3.371	n/a	n/a	GoodResponse	0	n/a	n/a	6	46	Blank	AvoidedLoss	True
443.677	1.45	Lose2	0.5957	n/a	Yes	3.371	n/a	5.0	GoodResponse	0	0.001	442.678	6	46	Feedback	AvoidedLoss	True
445.132	3.371	Lose2	0.5957	n/a	Yes	3.371	n/a	n/a	GoodResponse	0	0.0	n/a	6	46	ISIslide	AvoidedLoss	True
448.525	0.25	Lose2	0.6042000000000001	0.0	Yes	2.675	0.025	n/a	GoodResponse	0	n/a	n/a	6	47	Cue	AvoidedLoss	True
448.776	4.0	Lose2	0.6042000000000001	0.0	Yes	2.675	0.001	n/a	GoodResponse	0	n/a	n/a	6	47	Fixation	AvoidedLoss	True
452.771	0.39	Lose2	0.6042000000000001	0.004	Yes	2.675	-0.004	1.0	GoodResponse	0	0.237	452.008	6	47	Target	AvoidedLoss	True
453.008	0.3	Lose2	0.6042000000000001	0.004	Yes	2.675	-0.004	1.0	GoodResponse	0	0.237	n/a	6	47	ButtonPress	AvoidedLoss	True
453.172	0.31	Lose2	0.6042000000000001	n/a	Yes	2.675	n/a	n/a	GoodResponse	0	n/a	n/a	6	47	Blank	AvoidedLoss	True
453.473	1.45	Lose2	0.6042000000000001	n/a	Yes	2.675	n/a	5.0	GoodResponse	0	0.01	452.483	6	47	Feedback	AvoidedLoss	True
454.928	2.675	Lose2	0.6042000000000001	n/a	Yes	2.675	n/a	n/a	GoodResponse	0	0.0	n/a	6	47	ISIslide	AvoidedLoss	True
457.619	0.25	Lose2	0.6122	0.0	Yes	3.031	0.019	n/a	GoodResponse	0	n/a	n/a	6	48	Cue	AvoidedLoss	True
457.87	3.95	Lose2	0.6122	0.0	Yes	3.031	0.001	n/a	GoodResponse	0	n/a	n/a	6	48	Fixation	AvoidedLoss	True
461.815	0.4	Lose2	0.6122	0.004	Yes	3.031	-0.004	1.0	GoodResponse	0	0.206	461.021	6	48	Target	AvoidedLoss	True
462.021	0.3	Lose2	0.6122	0.004	Yes	3.031	-0.004	1.0	GoodResponse	0	0.206	n/a	6	48	ButtonPress	AvoidedLoss	True
462.216	0.3	Lose2	0.6122	n/a	Yes	3.031	n/a	n/a	GoodResponse	0	n/a	n/a	6	48	Blank	AvoidedLoss	True
462.517	1.45	Lose2	0.6122	n/a	Yes	3.031	n/a	5.0	GoodResponse	0	0.038	461.555	6	48	Feedback	AvoidedLoss	True
463.971	3.031	Lose2	0.6122	n/a	Yes	3.031	n/a	n/a	GoodResponse	0	0.0	n/a	6	48	ISIslide	AvoidedLoss	True
467.03	0.25	Control	0.62	0.0	Yes	2.87	0.03	n/a	GoodResponse	0	n/a	n/a	6	49	Cue	Neutral	True
467.281	4.0	Control	0.62	0.0	Yes	2.87	0.001	n/a	GoodResponse	0	n/a	n/a	6	49	Fixation	Neutral	True
471.276	0.41	Control	0.62	0.004	Yes	2.87	-0.004	1.0	GoodResponse	0	0.256	470.532	6	49	Target	Neutral	True
471.532	0.3	Control	0.62	0.004	Yes	2.87	-0.004	1.0	GoodResponse	0	0.256	n/a	6	49	ButtonPress	Neutral	True
471.694	0.29	Control	0.62	n/a	Yes	2.87	n/a	n/a	GoodResponse	0	n/a	n/a	6	49	Blank	Neutral	True
471.979	1.45	Control	0.62	n/a	Yes	2.87	n/a	5.0	GoodResponse	0	0.039	471.018	6	49	Feedback	Neutral	True
473.433	2.87	Control	0.62	n/a	Yes	2.87	n/a	n/a	GoodResponse	0	0.0	n/a	6	49	ISIslide	Neutral	True
476.325	0.25	Control	0.6275	0.0	Yes	2.775	0.025	n/a	GoodResponse	0	n/a	n/a	6	50	Cue	Neutral	True
476.576	4.0	Control	0.6275	0.0	Yes	2.775	0.001	n/a	GoodResponse	0	n/a	n/a	6	50	Fixation	Neutral	True
480.571	0.42	Control	0.6275	0.004	Yes	2.775	-0.004	1.0	GoodResponse	0	0.208	479.779	6	50	Target	Neutral	True
480.779	0.3	Control	0.6275	0.004	Yes	2.775	-0.004	1.0	GoodResponse	0	0.208	n/a	6	50	ButtonPress	Neutral	True
481.006	0.28	Control	0.6275	n/a	Yes	2.775	n/a	n/a	GoodResponse	0	n/a	n/a	6	50	Blank	Neutral	True
481.273	1.45	Control	0.6275	n/a	Yes	2.775	n/a	5.0	GoodResponse	0	0.014	480.287	6	50	Feedback	Neutral	True
482.727	2.775	Control	0.6275	n/a	Yes	2.775	n/a	n/a	GoodResponse	0	0.0	n/a	6	50	ISIslide	Neutral	True
485.519	0.25	Control	0.6346	0.0	Yes	2.731	0.019	n/a	GoodResponse	0	n/a	n/a	6	51	Cue	Neutral	True
485.77	3.95	Control	0.6346	0.0	Yes	2.731	0.001	n/a	GoodResponse	0	n/a	n/a	6	51	Fixation	Neutral	True
489.715	0.43	Control	0.6346	0.004	Yes	2.731	-0.004	1.0	GoodResponse	0	0.237	488.952	6	51	Target	Neutral	True
489.952	0.3	Control	0.6346	0.004	Yes	2.731	-0.004	1.0	GoodResponse	0	0.237	n/a	6	51	ButtonPress	Neutral	True
490.15	0.27	Control	0.6346	n/a	Yes	2.731	n/a	n/a	GoodResponse	0	n/a	n/a	6	51	Blank	Neutral	True
490.417	1.45	Control	0.6346	n/a	Yes	2.731	n/a	5.0	GoodResponse	0	0.041	489.458	6	51	Feedback	Neutral	True
491.871	2.731	Control	0.6346	n/a	Yes	2.731	n/a	n/a	GoodResponse	0	0.0	n/a	6	51	ISIslide	Neutral	True
494.63	0.25	Control	0.6415000000000001	0.0	Yes	2.62	0.03	n/a	GoodResponse	0	n/a	n/a	6	52	Cue	Neutral	True
494.88	4.05	Control	0.6415000000000001	0.0	Yes	2.62	0.0	n/a	GoodResponse	0	n/a	n/a	6	52	Fixation	Neutral	True
498.926	0.44	Control	0.6415000000000001	0.004	Yes	2.62	-0.004	1.0	GoodResponse	0	0.32	498.246	6	52	Target	Neutral	True
499.246	0.3	Control	0.6415000000000001	0.004	Yes	2.62	-0.004	1.0	GoodResponse	0	0.32	n/a	6	52	ButtonPress	Neutral	True
499.377	0.26	Control	0.6415000000000001	n/a	Yes	2.62	n/a	n/a	GoodResponse	0	n/a	n/a	6	52	Blank	Neutral	True
499.628	1.45	Control	0.6415000000000001	n/a	Yes	2.62	n/a	5.0	GoodResponse	0	0.001	498.629	6	52	Feedback	Neutral	True
501.082	2.62	Control	0.6415000000000001	n/a	Yes	2.62	n/a	n/a	GoodResponse	0	0.0	n/a	6	52	ISIslide	Neutral	True
503.723	0.25	Win2	0.6481	0.001	Yes	2.927	0.023	n/a	GoodResponse	1	n/a	n/a	7	53	Cue	Win	True
503.974	4.05	Win2	0.6481	0.0	Yes	2.927	0.001	n/a	GoodResponse	1	n/a	n/a	7	53	Fixation	Win	True
508.02	0.45	Win2	0.6481	0.003	Yes	2.927	-0.003	1.0	GoodResponse	1	0.167	507.187	7	53	Target	Win	True
508.187	0.3	Win2	0.6481	0.003	Yes	2.927	-0.003	1.0	GoodResponse	1	0.167	n/a	7	53	ButtonPress	Win	True
508.471	0.25	Win2	0.6481	n/a	Yes	2.927	n/a	n/a	GoodResponse	1	n/a	n/a	7	53	Blank	Win	True
508.722	1.45	Win2	0.6481	n/a	Yes	2.927	n/a	5.0	GoodResponse	1	0.029	507.751	7	53	Feedback	Win	True
510.176	2.927	Win2	0.6481	n/a	Yes	2.927	n/a	n/a	GoodResponse	1	0.0	n/a	7	53	ISIslide	Win	True
513.118	0.25	Win2	0.6545000000000001	0.0	Yes	2.732	0.018	n/a	GoodResponse	1	n/a	n/a	8	54	Cue	Win	True
513.369	3.95	Win2	0.6545000000000001	0.0	Yes	2.732	0.001	n/a	GoodResponse	1	n/a	n/a	8	54	Fixation	Win	True
517.314	0.46	Win2	0.6545000000000001	0.004	Yes	2.732	-0.004	1.0	GoodResponse	1	0.315	516.629	8	54	Target	Win	True
517.629	0.3	Win2	0.6545000000000001	0.004	Yes	2.732	-0.004	1.0	GoodResponse	1	0.315	n/a	8	54	ButtonPress	Win	True
517.782	0.24	Win2	0.6545000000000001	n/a	Yes	2.732	n/a	n/a	GoodResponse	1	n/a	n/a	8	54	Blank	Win	True
518.016	1.45	Win2	0.6545000000000001	n/a	Yes	2.732	n/a	5.0	GoodResponse	1	0.007	517.023	8	54	Feedback	Win	True
519.471	2.732	Win2	0.6545000000000001	n/a	Yes	2.732	n/a	n/a	GoodResponse	1	0.0	n/a	8	54	ISIslide	Win	True
522.229	0.25	Control	0.6607	0.0	Yes	3.021	0.029	n/a	GoodResponse	0	n/a	n/a	8	55	Cue	Neutral	True
522.48	3.95	Control	0.6607	0.0	Yes	3.021	0.001	n/a	GoodResponse	0	n/a	n/a	8	55	Fixation	Neutral	True
526.425	0.47	Control	0.6607	0.004	Yes	3.021	-0.004	1.0	GoodResponse	0	0.352	525.777	8	55	Target	Neutral	True
526.777	0.3	Control	0.6607	0.004	Yes	3.021	-0.004	1.0	GoodResponse	0	0.352	n/a	8	55	ButtonPress	Neutral	True
526.909	0.23	Control	0.6607	n/a	Yes	3.021	n/a	n/a	GoodResponse	0	n/a	n/a	8	55	Blank	Neutral	True
527.127	1.45	Control	0.6607	n/a	Yes	3.021	n/a	5.0	GoodResponse	0	0.013	526.14	8	55	Feedback	Neutral	True
528.581	3.021	Control	0.6607	n/a	Yes	3.021	n/a	n/a	GoodResponse	0	0.0	n/a	8	55	ISIslide	Neutral	True
531.624	0.25	Control	0.6667000000000001	0.0	Yes	2.826	0.024	n/a	GoodResponse	0	n/a	n/a	8	56	Cue	Neutral	True
531.874	3.95	Control	0.6667000000000001	0.0	Yes	2.826	0.0	n/a	GoodResponse	0	n/a	n/a	8	56	Fixation	Neutral	True
535.836	0.47	Control	0.6667000000000001	0.0	Yes	2.826	0.012	1.0	GoodResponse	0	0.232	535.068	8	56	Target	Neutral	True
536.068	0.3	Control	0.6667000000000001	0.0	Yes	2.826	0.012	1.0	GoodResponse	0	0.232	n/a	8	56	ButtonPress	Neutral	True
536.304	0.23	Control	0.6667000000000001	n/a	Yes	2.826	n/a	n/a	GoodResponse	0	n/a	n/a	8	56	Blank	Neutral	True
536.521	1.45	Control	0.6667000000000001	n/a	Yes	2.826	n/a	5.0	GoodResponse	0	0.034	535.555	8	56	Feedback	Neutral	True
537.976	2.826	Control	0.6667000000000001	n/a	Yes	2.826	n/a	n/a	GoodResponse	0	0.0	n/a	8	56	ISIslide	Neutral	True
540.818	0.25	Control	0.6724	0.0	Yes	3.482	0.018	n/a	GoodResponse	0	n/a	n/a	8	57	Cue	Neutral	True
541.068	4.0	Control	0.6724	0.001	Yes	3.482	0.0	n/a	GoodResponse	0	n/a	n/a	8	57	Fixation	Neutral	True
545.064	0.46	Control	0.6724	0.004	Yes	3.482	-0.004	1.0	GoodResponse	0	0.218	544.282	8	57	Target	Neutral	True
545.282	0.3	Control	0.6724	0.004	Yes	3.482	-0.004	1.0	GoodResponse	0	0.218	n/a	8	57	ButtonPress	Neutral	True
545.532	0.24	Control	0.6724	n/a	Yes	3.482	n/a	n/a	GoodResponse	0	n/a	n/a	8	57	Blank	Neutral	True
545.766	1.45	Control	0.6724	n/a	Yes	3.482	n/a	5.0	GoodResponse	0	0.008	544.774	8	57	Feedback	Neutral	True
547.22	3.482	Control	0.6724	n/a	Yes	3.482	n/a	n/a	GoodResponse	0	0.0	n/a	8	57	ISIslide	Neutral	True
550.714	0.25	Win2	0.6779999999999999	0.0	Yes	2.736	0.014	n/a	GoodResponse	1	n/a	n/a	9	58	Cue	Win	True
550.965	4.05	Win2	0.6779999999999999	0.0	Yes	2.736	0.001	n/a	GoodResponse	1	n/a	n/a	9	58	Fixation	Win	True
555.01	0.45	Win2	0.6779999999999999	0.004	Yes	2.736	-0.004	1.0	GoodResponse	1	0.211	554.221	9	58	Target	Win	True
555.221	0.3	Win2	0.6779999999999999	0.004	Yes	2.736	-0.004	1.0	GoodResponse	1	0.211	n/a	9	58	ButtonPress	Win	True
555.461	0.25	Win2	0.6779999999999999	n/a	Yes	2.736	n/a	n/a	GoodResponse	1	n/a	n/a	9	58	Blank	Win	True
555.712	1.45	Win2	0.6779999999999999	n/a	Yes	2.736	n/a	5.0	GoodResponse	1	0.013	554.725	9	58	Feedback	Win	True
557.167	2.736	Win2	0.6779999999999999	n/a	Yes	2.736	n/a	n/a	GoodResponse	1	0.0	n/a	9	58	ISIslide	Win	True
559.925	0.25	Lose2	0.6833	0.0	Yes	2.675	0.025	n/a	GoodResponse	0	n/a	n/a	9	59	Cue	AvoidedLoss	True
560.176	4.0	Lose2	0.6833	0.0	Yes	2.675	0.001	n/a	GoodResponse	0	n/a	n/a	9	59	Fixation	AvoidedLoss	True
564.171	0.44	Lose2	0.6833	0.004	Yes	2.675	-0.004	1.0	GoodResponse	0	0.361	563.532	9	59	Target	AvoidedLoss	True
564.532	0.3	Lose2	0.6833	0.004	Yes	2.675	-0.004	1.0	GoodResponse	0	0.361	n/a	9	59	ButtonPress	AvoidedLoss	True
564.622	0.26	Lose2	0.6833	n/a	Yes	2.675	n/a	n/a	GoodResponse	0	n/a	n/a	9	59	Blank	AvoidedLoss	True
564.873	1.45	Lose2	0.6833	n/a	Yes	2.675	n/a	5.0	GoodResponse	0	0.023	563.896	9	59	Feedback	AvoidedLoss	True
566.327	2.675	Lose2	0.6833	n/a	Yes	2.675	n/a	n/a	GoodResponse	0	0.0	n/a	9	59	ISIslide	AvoidedLoss	True
569.019	0.25	Control	0.6884999999999999	0.0	Yes	2.681	0.019	n/a	GoodResponse	0	n/a	n/a	9	60	Cue	Neutral	True
569.269	4.0	Control	0.6884999999999999	0.0	Yes	2.681	0.0	n/a	GoodResponse	0	n/a	n/a	9	60	Fixation	Neutral	True
573.265	0.43	Control	0.6884999999999999	0.004	Yes	2.681	-0.004	1.0	GoodResponse	0	0.318	572.583	9	60	Target	Neutral	True
573.583	0.3	Control	0.6884999999999999	0.004	Yes	2.681	-0.004	1.0	GoodResponse	0	0.318	n/a	9	60	ButtonPress	Neutral	True
573.699	0.27	Control	0.6884999999999999	n/a	Yes	2.681	n/a	n/a	GoodResponse	0	n/a	n/a	9	60	Blank	Neutral	True
573.967	1.45	Control	0.6884999999999999	n/a	Yes	2.681	n/a	5.0	GoodResponse	0	0.002	572.969	9	60	Feedback	Neutral	True
575.421	2.681	Control	0.6884999999999999	n/a	Yes	2.681	n/a	n/a	GoodResponse	0	0.0	n/a	9	60	ISIslide	Neutral	True
578.129	0.25	Lose2	0.6934999999999999	0.0	Yes	2.971	0.029	n/a	GoodResponse	0	n/a	n/a	9	61	Cue	AvoidedLoss	True
578.38	4.0	Lose2	0.6934999999999999	0.0	Yes	2.971	0.001	n/a	GoodResponse	0	n/a	n/a	9	61	Fixation	AvoidedLoss	True
582.375	0.42	Lose2	0.6934999999999999	0.004	Yes	2.971	-0.004	1.0	GoodResponse	0	0.279	581.654	9	61	Target	AvoidedLoss	True
582.654	0.3	Lose2	0.6934999999999999	0.004	Yes	2.971	-0.004	1.0	GoodResponse	0	0.279	n/a	9	61	ButtonPress	AvoidedLoss	True
582.81	0.28	Lose2	0.6934999999999999	n/a	Yes	2.971	n/a	n/a	GoodResponse	0	n/a	n/a	9	61	Blank	AvoidedLoss	True
583.077	1.45	Lose2	0.6934999999999999	n/a	Yes	2.971	n/a	5.0	GoodResponse	0	0.014	582.091	9	61	Feedback	AvoidedLoss	True
584.532	2.971	Lose2	0.6934999999999999	n/a	Yes	2.971	n/a	n/a	GoodResponse	0	0.0	n/a	9	61	ISIslide	AvoidedLoss	True
587.524	0.25	Lose2	0.6984	0.0	Yes	2.876	0.024	n/a	GoodResponse	0	n/a	n/a	9	62	Cue	AvoidedLoss	True
587.775	3.9	Lose2	0.6984	0.0	Yes	2.876	0.001	n/a	GoodResponse	0	n/a	n/a	9	62	Fixation	AvoidedLoss	True
591.67	0.41	Lose2	0.6984	0.004	Yes	2.876	-0.004	1.0	GoodResponse	0	0.198	590.868	9	62	Target	AvoidedLoss	True
591.868	0.3	Lose2	0.6984	0.004	Yes	2.876	-0.004	1.0	GoodResponse	0	0.198	n/a	9	62	ButtonPress	AvoidedLoss	True
592.088	0.29	Lose2	0.6984	n/a	Yes	2.876	n/a	n/a	GoodResponse	0	n/a	n/a	9	62	Blank	AvoidedLoss	True
592.372	1.45	Lose2	0.6984	n/a	Yes	2.876	n/a	5.0	GoodResponse	0	0.035	591.407	9	62	Feedback	AvoidedLoss	True
593.826	2.876	Lose2	0.6984	n/a	Yes	2.876	n/a	n/a	GoodResponse	0	0.0	n/a	9	62	ISIslide	AvoidedLoss	True
596.718	0.25	Lose2	0.7031000000000001	0.0	Yes	2.632	0.018	n/a	GoodResponse	0	n/a	n/a	9	63	Cue	AvoidedLoss	True
596.969	4.05	Lose2	0.7031000000000001	0.0	Yes	2.632	0.001	n/a	GoodResponse	0	n/a	n/a	9	63	Fixation	AvoidedLoss	True
601.014	0.4	Lose2	0.7031000000000001	0.004	Yes	2.632	-0.004	1.0	GoodResponse	0	0.292	600.306	9	63	Target	AvoidedLoss	True
601.306	0.3	Lose2	0.7031000000000001	0.004	Yes	2.632	-0.004	1.0	GoodResponse	0	0.292	n/a	9	63	ButtonPress	AvoidedLoss	True
601.416	0.3	Lose2	0.7031000000000001	n/a	Yes	2.632	n/a	n/a	GoodResponse	0	n/a	n/a	9	63	Blank	AvoidedLoss	True
601.716	1.45	Lose2	0.7031000000000001	n/a	Yes	2.632	n/a	5.0	GoodResponse	0	0.008	600.724	9	63	Feedback	AvoidedLoss	True
603.171	2.632	Lose2	0.7031000000000001	n/a	Yes	2.632	n/a	n/a	GoodResponse	0	0.0	n/a	9	63	ISIslide	AvoidedLoss	True
605.829	0.25	Win2	0.7077	0.0	Yes	3.121	0.029	n/a	GoodResponse	1	n/a	n/a	10	64	Cue	Win	True
606.079	4.15	Win2	0.7077	0.001	Yes	3.121	0.0	n/a	GoodResponse	1	n/a	n/a	10	64	Fixation	Win	True
610.225	0.39	Win2	0.7077	0.004	Yes	3.121	-0.004	1.0	GoodResponse	1	0.214	609.439	10	64	Target	Win	True
610.439	0.3	Win2	0.7077	0.004	Yes	3.121	-0.004	1.0	GoodResponse	1	0.214	n/a	10	64	ButtonPress	Win	True
610.626	0.31	Win2	0.7077	n/a	Yes	3.121	n/a	n/a	GoodResponse	1	n/a	n/a	10	64	Blank	Win	True
610.927	1.45	Win2	0.7077	n/a	Yes	3.121	n/a	5.0	GoodResponse	1	0.017	609.944	10	64	Feedback	Win	True
612.382	3.121	Win2	0.7077	n/a	Yes	3.121	n/a	n/a	GoodResponse	1	0.0	n/a	10	64	ISIslide	Win	True
615.524	0.25	Control	0.7121	0.0	Yes	2.776	0.024	n/a	GoodResponse	0	n/a	n/a	10	65	Cue	Neutral	True
615.775	4.0	Control	0.7121	0.0	Yes	2.776	0.001	n/a	GoodResponse	0	n/a	n/a	10	65	Fixation	Neutral	True
619.77	0.38	Control	0.7121	0.004	Yes	2.776	-0.004	1.0	GoodResponse	0	0.243	619.013	10	65	Target	Neutral	True
620.013	0.3	Control	0.7121	0.004	Yes	2.776	-0.004	1.0	GoodResponse	0	0.243	n/a	10	65	ButtonPress	Neutral	True
620.155	0.32	Control	0.7121	n/a	Yes	2.776	n/a	n/a	GoodResponse	0	n/a	n/a	10	65	Blank	Neutral	True
620.473	1.45	Control	0.7121	n/a	Yes	2.776	n/a	5.0	GoodResponse	0	0.032	619.505	10	65	Feedback	Neutral	True
621.927	2.776	Control	0.7121	n/a	Yes	2.776	n/a	n/a	GoodResponse	0	0.0	n/a	10	65	ISIslide	Neutral	True
624.719	0.25	Win2	0.7164	0.0	Yes	2.781	0.019	n/a	GoodResponse	1	n/a	n/a	11	66	Cue	Win	True
624.969	3.9	Win2	0.7164	0.0	Yes	2.781	0.0	n/a	GoodResponse	1	n/a	n/a	11	66	Fixation	Win	True
628.881	0.37	Win2	0.7164	0.0	Yes	2.781	0.012	1.0	GoodResponse	1	0.189	628.07	11	66	Target	Win	True
629.07	0.3	Win2	0.7164	0.0	Yes	2.781	0.012	1.0	GoodResponse	1	0.189	n/a	11	66	ButtonPress	Win	True
629.249	0.33	Win2	0.7164	n/a	Yes	2.781	n/a	n/a	GoodResponse	1	n/a	n/a	11	66	Blank	Win	True
629.566	1.45	Win2	0.7164	n/a	Yes	2.781	n/a	5.0	GoodResponse	1	0.012	628.578	11	66	Feedback	Win	True
631.021	2.781	Win2	0.7164	n/a	Yes	2.781	n/a	n/a	GoodResponse	1	0.0	n/a	11	66	ISIslide	Win	True
633.812	0.25	Control	0.7206	0.0	Yes	2.738	0.012	n/a	GoodResponse	0	n/a	n/a	11	67	Cue	Neutral	True
634.063	3.95	Control	0.7206	0.0	Yes	2.738	0.001	n/a	GoodResponse	0	n/a	n/a	11	67	Fixation	Neutral	True
638.008	0.36	Control	0.7206	0.004	Yes	2.738	-0.004	1.0	GoodResponse	0	0.288	637.296	11	67	Target	Neutral	True
638.296	0.3	Control	0.7206	0.004	Yes	2.738	-0.004	1.0	GoodResponse	0	0.288	n/a	11	67	ButtonPress	Neutral	True
638.376	0.34	Control	0.7206	n/a	Yes	2.738	n/a	n/a	GoodResponse	0	n/a	n/a	11	67	Blank	Neutral	True
638.71	1.45	Control	0.7206	n/a	Yes	2.738	n/a	5.0	GoodResponse	0	0.038	637.748	11	67	Feedback	Neutral	True
640.165	2.738	Control	0.7206	n/a	Yes	2.738	n/a	n/a	GoodResponse	0	0.0	n/a	11	67	ISIslide	Neutral	True
642.923	0.25	Win2	0.7245999999999999	0.0	Yes	3.077	0.023	n/a	GoodResponse	1	n/a	n/a	12	68	Cue	Win	True
643.174	4.0	Win2	0.7245999999999999	0.0	Yes	3.077	0.001	n/a	GoodResponse	1	n/a	n/a	12	68	Fixation	Win	True
647.169	0.35	Win2	0.7245999999999999	0.004	Yes	3.077	-0.004	1.0	GoodResponse	1	0.209	646.378	12	68	Target	Win	True
647.378	0.3	Win2	0.7245999999999999	0.004	Yes	3.077	-0.004	1.0	GoodResponse	1	0.209	n/a	12	68	ButtonPress	Win	True
647.52	0.35	Win2	0.7245999999999999	n/a	Yes	3.077	n/a	n/a	GoodResponse	1	n/a	n/a	12	68	Blank	Win	True
647.871	1.45	Win2	0.7245999999999999	n/a	Yes	3.077	n/a	5.0	GoodResponse	1	0.048	646.919	12	68	Feedback	Win	True
649.325	3.077	Win2	0.7245999999999999	n/a	Yes	3.077	n/a	n/a	GoodResponse	1	0.0	n/a	12	68	ISIslide	Win	True
652.418	0.25	Win2	0.7286	0.0	Yes	3.232	0.018	n/a	GoodResponse	1	n/a	n/a	13	69	Cue	Win	True
652.669	3.95	Win2	0.7286	0.0	Yes	3.232	0.001	n/a	GoodResponse	1	n/a	n/a	13	69	Fixation	Win	True
656.614	0.34	Win2	0.7286	0.004	Yes	3.232	-0.004	1.0	GoodResponse	1	0.254	655.868	13	69	Target	Win	True
656.868	0.3	Win2	0.7286	0.004	Yes	3.232	-0.004	1.0	GoodResponse	1	0.254	n/a	13	69	ButtonPress	Win	True
656.965	0.36	Win2	0.7286	n/a	Yes	3.232	n/a	n/a	GoodResponse	1	n/a	n/a	13	69	Blank	Win	True
657.316	1.45	Win2	0.7286	n/a	Yes	3.232	n/a	5.0	GoodResponse	1	0.018	656.334	13	69	Feedback	Win	True
658.77	3.232	Win2	0.7286	n/a	Yes	3.232	n/a	n/a	GoodResponse	1	0.0	n/a	13	69	ISIslide	Win	True
662.013	0.25	Lose2	0.7323999999999999	0.0	Yes	3.037	0.013	n/a	GoodResponse	0	n/a	n/a	13	70	Cue	AvoidedLoss	True
662.264	4.05	Lose2	0.7323999999999999	0.0	Yes	3.037	0.001	n/a	GoodResponse	0	n/a	n/a	13	70	Fixation	AvoidedLoss	True
666.31	0.33	Lose2	0.7323999999999999	0.003	Yes	3.037	-0.003	1.0	GoodResponse	0	0.289	665.599	13	70	Target	AvoidedLoss	True
666.599	0.3	Lose2	0.7323999999999999	0.003	Yes	3.037	-0.003	1.0	GoodResponse	0	0.289	n/a	13	70	ButtonPress	AvoidedLoss	True
666.644	0.37	Lose2	0.7323999999999999	n/a	Yes	3.037	n/a	n/a	GoodResponse	0	n/a	n/a	13	70	Blank	AvoidedLoss	True
667.012	1.45	Lose2	0.7323999999999999	n/a	Yes	3.037	n/a	5.0	GoodResponse	0	0.029	666.041	13	70	Feedback	AvoidedLoss	True
668.466	3.037	Lose2	0.7323999999999999	n/a	Yes	3.037	n/a	n/a	GoodResponse	0	0.0	n/a	13	70	ISIslide	AvoidedLoss	True
671.525	0.25	Win2	0.7361	0.0	Yes	2.725	0.025	n/a	GoodResponse	1	n/a	n/a	14	71	Cue	Win	True
671.776	4.05	Win2	0.7361	0.0	Yes	2.725	0.001	n/a	GoodResponse	1	n/a	n/a	14	71	Fixation	Win	True
675.821	0.32	Win2	0.7361	0.004	Yes	2.725	-0.004	1.0	GoodResponse	1	0.192	675.013	14	71	Target	Win	True
676.013	0.3	Win2	0.7361	0.004	Yes	2.725	-0.004	1.0	GoodResponse	1	0.192	n/a	14	71	ButtonPress	Win	True
676.156	0.38	Win2	0.7361	n/a	Yes	2.725	n/a	n/a	GoodResponse	1	n/a	n/a	14	71	Blank	Win	True
676.523	1.45	Win2	0.7361	n/a	Yes	2.725	n/a	5.0	GoodResponse	1	0.03	675.553	14	71	Feedback	Win	True
677.978	2.725	Win2	0.7361	n/a	Yes	2.725	n/a	n/a	GoodResponse	1	0.0	n/a	14	71	ISIslide	Win	True
680.719	0.25	Win2	0.7397	0.0	Yes	2.781	0.019	n/a	GoodResponse	1	n/a	n/a	15	72	Cue	Win	True
680.97	4.1	Win2	0.7397	0.0	Yes	2.781	0.001	n/a	GoodResponse	1	n/a	n/a	15	72	Fixation	Win	True
685.066	0.31	Win2	0.7397	0.003	Yes	2.781	-0.003	1.0	GoodResponse	1	0.204	684.27	15	72	Target	Win	True
685.27	0.3	Win2	0.7397	0.003	Yes	2.781	-0.003	1.0	GoodResponse	1	0.204	n/a	15	72	ButtonPress	Win	True
685.383	0.39	Win2	0.7397	n/a	Yes	2.781	n/a	n/a	GoodResponse	1	n/a	n/a	15	72	Blank	Win	True
685.768	1.45	Win2	0.7397	n/a	Yes	2.781	n/a	5.0	GoodResponse	1	0.004	684.772	15	72	Feedback	Win	True
687.222	2.781	Win2	0.7397	n/a	Yes	2.781	n/a	n/a	GoodResponse	1	0.0	n/a	15	72	ISIslide	Win	True
690.014	0.25	Win2	0.7432	0.0	Yes	2.686	0.014	n/a	GoodResponse	1	n/a	n/a	16	73	Cue	Win	True
690.265	4.0	Win2	0.7432	0.0	Yes	2.686	0.001	n/a	GoodResponse	1	n/a	n/a	16	73	Fixation	Win	True
694.26	0.3	Win2	0.7432	0.004	Yes	2.686	-0.004	1.0	GoodResponse	1	0.219	693.479	16	73	Target	Win	True
694.479	0.3	Win2	0.7432	0.004	Yes	2.686	-0.004	1.0	GoodResponse	1	0.219	n/a	16	73	ButtonPress	Win	True
694.561	0.4	Win2	0.7432	n/a	Yes	2.686	n/a	n/a	GoodResponse	1	n/a	n/a	16	73	Blank	Win	True
694.962	1.45	Win2	0.7432	n/a	Yes	2.686	n/a	5.0	GoodResponse	1	0.03	693.992	16	73	Feedback	Win	True
696.416	2.686	Win2	0.7432	n/a	Yes	2.686	n/a	n/a	GoodResponse	1	0.0	n/a	16	73	ISIslide	Win	True
699.124	0.25	Lose2	0.7467	0.0	Yes	2.626	0.024	n/a	GoodResponse	0	n/a	n/a	16	74	Cue	AvoidedLoss	True
699.375	4.05	Lose2	0.7467	0.0	Yes	2.626	0.001	n/a	GoodResponse	0	n/a	n/a	16	74	Fixation	AvoidedLoss	True
703.421	0.29	Lose2	0.7467	0.003	Yes	2.626	-0.003	1.0	GoodResponse	0	0.199	702.62	16	74	Target	AvoidedLoss	True
703.62	0.3	Lose2	0.7467	0.003	Yes	2.626	-0.003	1.0	GoodResponse	0	0.199	n/a	16	74	ButtonPress	AvoidedLoss	True
703.721	0.41	Lose2	0.7467	n/a	Yes	2.626	n/a	n/a	GoodResponse	0	n/a	n/a	16	74	Blank	AvoidedLoss	True
704.123	1.45	Lose2	0.7467	n/a	Yes	2.626	n/a	5.0	GoodResponse	0	0.039	703.162	16	74	Feedback	AvoidedLoss	True
705.577	2.626	Lose2	0.7467	n/a	Yes	2.626	n/a	n/a	GoodResponse	0	0.0	n/a	16	74	ISIslide	AvoidedLoss	True
708.218	0.25	Lose2	0.75	0.0	Yes	2.932	0.018	n/a	GoodResponse	0	n/a	n/a	16	75	Cue	AvoidedLoss	True
708.469	3.95	Lose2	0.75	0.0	Yes	2.932	0.001	n/a	GoodResponse	0	n/a	n/a	16	75	Fixation	AvoidedLoss	True
712.414	0.28	Lose2	0.75	0.004	Yes	2.932	-0.004	1.0	GoodResponse	0	0.209	711.623	16	75	Target	AvoidedLoss	True
712.623	0.3	Lose2	0.75	0.004	Yes	2.932	-0.004	1.0	GoodResponse	0	0.209	n/a	16	75	ButtonPress	AvoidedLoss	True
712.698	0.42	Lose2	0.75	n/a	Yes	2.932	n/a	n/a	GoodResponse	0	n/a	n/a	16	75	Blank	AvoidedLoss	True
713.116	1.45	Lose2	0.75	n/a	Yes	2.932	n/a	5.0	GoodResponse	0	0.022	712.138	16	75	Feedback	AvoidedLoss	True
714.571	2.932	Lose2	0.75	n/a	Yes	2.932	n/a	n/a	GoodResponse	0	0.0	n/a	16	75	ISIslide	AvoidedLoss	True
717.513	0.25	Control	0.7532	0.0	Yes	3.237	0.013	n/a	GoodResponse	0	n/a	n/a	16	76	Cue	Neutral	True
717.763	4.05	Control	0.7532	0.0	Yes	3.237	0.0	n/a	GoodResponse	0	n/a	n/a	16	76	Fixation	Neutral	True
721.809	0.27	Control	0.7532	0.004	Yes	3.237	-0.004	1.0	GoodResponse	0	0.212	721.021	16	76	Target	Neutral	True
722.021	0.3	Control	0.7532	0.004	Yes	3.237	-0.004	1.0	GoodResponse	0	0.212	n/a	16	76	ButtonPress	Neutral	True
722.093	0.43	Control	0.7532	n/a	Yes	3.237	n/a	n/a	GoodResponse	0	n/a	n/a	16	76	Blank	Neutral	True
722.511	1.45	Control	0.7532	n/a	Yes	3.237	n/a	5.0	GoodResponse	0	0.041	721.552	16	76	Feedback	Neutral	True
723.965	3.237	Control	0.7532	n/a	Yes	3.237	n/a	n/a	GoodResponse	0	0.0	n/a	16	76	ISIslide	Neutral	True
727.225	0.25	Lose2	0.7436	0.0	No	2.575	0.025	n/a	NoResponse	-1	n/a	n/a	15	77	Cue	Loss	True
727.476	3.95	Lose2	0.7436	0.0	No	2.575	0.001	1.0	NoResponse	-1	3.867	730.343	15	77	Fixation	Loss	True
731.343	0.3	Lose2	0.7436	0.0	No	2.575	0.001	1.0	NoResponse	-1	3.867	n/a	15	77	ButtonPress	Loss	True
731.421	0.26	Lose2	0.7436	0.004	No	2.575	-0.004	n/a	NoResponse	-1	n/a	n/a	15	77	Target	Loss	True
731.688	0.44	Lose2	0.7436	n/a	No	2.575	n/a	n/a	NoResponse	-1	n/a	n/a	15	77	Blank	Loss	True
732.123	1.45	Lose2	0.7436	n/a	No	2.575	n/a	5.0	NoResponse	-1	0.039	731.162	15	77	Feedback	Loss	True
733.577	2.575	Lose2	0.7436	n/a	No	2.575	n/a	n/a	NoResponse	-1	0.0	n/a	15	77	ISIslide	Loss	True
