onset	duration	cue_type	current_mean_accuracy	duration_error	is_hit	isi_adjusted	onset_delay	response	response_type	reward	rt	rt_time	total_reward	trial_number	trial_phase	trial_type	one_press
11.103	0.25	Control	1.0	0.001	Yes	2.947	0.003	n/a	GoodResponse	0	n/a	n/a	0	0	Cue	Neutral	True
11.354	3.85	Control	1.0	0.0	Yes	2.947	0.001	n/a	GoodResponse	0	n/a	n/a	0	0	Fixation	Neutral	True
15.199	0.4	Control	1.0	0.004	Yes	2.947	-0.004	2.0	GoodResponse	0	0.204	14.403	0	0	Target	Neutral	True
15.403	0.3	Control	1.0	0.004	Yes	2.947	-0.004	2.0	GoodResponse	0	0.204	n/a	0	0	ButtonPress	Neutral	True
15.6	0.3	Control	1.0	n/a	Yes	2.947	n/a	n/a	GoodResponse	0	n/a	n/a	0	0	Blank	Neutral	True
15.901	1.45	Control	1.0	n/a	Yes	2.947	n/a	5.0	GoodResponse	0	0.026	14.927	0	0	Feedback	Neutral	True
17.356	2.947	Control	1.0	n/a	Yes	2.947	n/a	n/a	GoodResponse	0	0.0	n/a	0	0	ISIslide	Neutral	True
20.331	0.25	Lose2	1.0	0.0	Yes	2.769	0.031	n/a	GoodResponse	0	n/a	n/a	0	1	Cue	AvoidedLoss	True
20.582	4.0	Lose2	1.0	0.0	Yes	2.769	0.001	n/a	GoodResponse	0	n/a	n/a	0	1	Fixation	AvoidedLoss	True
24.577	0.39	Lose2	1.0	0.004	Yes	2.769	-0.004	2.0	GoodResponse	0	0.187	23.764	0	1	Target	AvoidedLoss	True
24.764	0.3	Lose2	1.0	0.004	Yes	2.769	-0.004	2.0	GoodResponse	0	0.187	n/a	0	1	ButtonPress	AvoidedLoss	True
24.978	0.31	Lose2	1.0	n/a	Yes	2.769	n/a	n/a	GoodResponse	0	n/a	n/a	0	1	Blank	AvoidedLoss	True
25.279	1.45	Lose2	1.0	n/a	Yes	2.769	n/a	5.0	GoodResponse	0	0.013	24.292	0	1	Feedback	AvoidedLoss	True
26.734	2.769	Lose2	1.0	n/a	Yes	2.769	n/a	n/a	GoodResponse	0	0.0	n/a	0	1	ISIslide	AvoidedLoss	True
29.525	0.25	Control	1.0	0.0	Yes	2.575	0.025	n/a	GoodResponse	0	n/a	n/a	0	2	Cue	Neutral	True
29.776	4.1	Control	1.0	0.0	Yes	2.575	0.001	n/a	GoodResponse	0	n/a	n/a	0	2	Fixation	Neutral	True
33.872	0.38	Control	1.0	0.003	Yes	2.575	-0.003	2.0	GoodResponse	0	0.228	33.1	0	2	Target	Neutral	True
34.1	0.3	Control	1.0	0.003	Yes	2.575	-0.003	2.0	GoodResponse	0	0.228	n/a	0	2	ButtonPress	Neutral	True
34.256	0.32	Control	1.0	n/a	Yes	2.575	n/a	n/a	GoodResponse	0	n/a	n/a	0	2	Blank	Neutral	True
34.574	1.45	Control	1.0	n/a	Yes	2.575	n/a	5.0	GoodResponse	0	0.035	33.609	0	2	Feedback	Neutral	True
36.028	2.575	Control	1.0	n/a	Yes	2.575	n/a	n/a	GoodResponse	0	0.0	n/a	0	2	ISIslide	Neutral	True
38.619	0.25	Win2	1.0	0.0	Yes	2.831	0.019	n/a	GoodResponse	1	n/a	n/a	1	3	Cue	Win	True
38.87	3.95	Win2	1.0	0.0	Yes	2.831	0.001	n/a	GoodResponse	1	n/a	n/a	1	3	Fixation	Win	True
42.815	0.37	Win2	1.0	0.004	Yes	2.831	-0.004	2.0	GoodResponse	1	0.188	42.003	1	3	Target	Win	True
43.003	0.3	Win2	1.0	0.004	Yes	2.831	-0.004	2.0	GoodResponse	1	0.188	n/a	1	3	ButtonPress	Win	True
43.2	0.33	Win2	1.0	n/a	Yes	2.831	n/a	n/a	GoodResponse	1	n/a	n/a	1	3	Blank	Win	True
43.517	1.45	Win2	1.0	n/a	Yes	2.831	n/a	5.0	GoodResponse	1	0.019	42.536	1	3	Feedback	Win	True
44.972	2.831	Win2	1.0	n/a	Yes	2.831	n/a	n/a	GoodResponse	1	0.0	n/a	1	3	ISIslide	Win	True
47.83	0.25	Win2	1.0	0.0	Yes	3.27	0.03	n/a	GoodResponse	1	n/a	n/a	2	4	Cue	Win	True
48.081	4.0	Win2	1.0	0.0	Yes	3.27	0.001	n/a	GoodResponse	1	n/a	n/a	2	4	Fixation	Win	True
52.076	0.36	Win2	1.0	0.004	Yes	3.27	-0.004	2.0	GoodResponse	1	0.163	51.239	2	4	Target	Win	True
52.239	0.3	Win2	1.0	0.004	Yes	3.27	-0.004	2.0	GoodResponse	1	0.163	n/a	2	4	ButtonPress	Win	True
52.444	0.34	Win2	1.0	n/a	Yes	3.27	n/a	n/a	GoodResponse	1	n/a	n/a	2	4	Blank	Win	True
52.778	1.45	Win2	1.0	n/a	Yes	3.27	n/a	5.0	GoodResponse	1	0.026	51.804	2	4	Feedback	Win	True
54.233	3.27	Win2	1.0	n/a	Yes	3.27	n/a	n/a	GoodResponse	1	0.0	n/a	2	4	ISIslide	Win	True
57.526	0.25	Win2	1.0	0.0	Yes	2.774	0.026	n/a	GoodResponse	1	n/a	n/a	3	5	Cue	Win	True
57.777	4.0	Win2	1.0	0.0	Yes	2.774	0.001	n/a	GoodResponse	1	n/a	n/a	3	5	Fixation	Win	True
61.772	0.35	Win2	1.0	0.004	Yes	2.774	-0.004	2.0	GoodResponse	1	0.182	60.954	3	5	Target	Win	True
61.954	0.3	Win2	1.0	0.004	Yes	2.774	-0.004	2.0	GoodResponse	1	0.182	n/a	3	5	ButtonPress	Win	True
62.123	0.35	Win2	1.0	n/a	Yes	2.774	n/a	n/a	GoodResponse	1	n/a	n/a	3	5	Blank	Win	True
62.474	1.45	Win2	1.0	n/a	Yes	2.774	n/a	5.0	GoodResponse	1	0.038	61.512	3	5	Feedback	Win	True
63.929	2.774	Win2	1.0	n/a	Yes	2.774	n/a	n/a	GoodResponse	1	0.0	n/a	3	5	ISIslide	Win	True
66.72	0.25	Lose2	1.0	0.0	Yes	2.73	0.02	n/a	GoodResponse	0	n/a	n/a	3	6	Cue	AvoidedLoss	True
66.971	3.95	Lose2	1.0	0.0	Yes	2.73	0.001	n/a	GoodResponse	0	n/a	n/a	3	6	Fixation	AvoidedLoss	True
70.916	0.34	Lose2	1.0	0.004	Yes	2.73	-0.004	2.0	GoodResponse	0	0.167	70.083	3	6	Target	AvoidedLoss	True
71.083	0.3	Lose2	1.0	0.004	Yes	2.73	-0.004	2.0	GoodResponse	0	0.167	n/a	3	6	ButtonPress	AvoidedLoss	True
71.267	0.36	Lose2	1.0	n/a	Yes	2.73	n/a	n/a	GoodResponse	0	n/a	n/a	3	6	Blank	AvoidedLoss	True
71.618	1.45	Lose2	1.0	n/a	Yes	2.73	n/a	5.0	GoodResponse	0	0.016	70.634	3	6	Feedback	AvoidedLoss	True
73.073	2.73	Lose2	1.0	n/a	Yes	2.73	n/a	n/a	GoodResponse	0	0.0	n/a	3	6	ISIslide	AvoidedLoss	True
75.831	0.25	Lose2	1.0	0.0	Yes	4.019	0.031	n/a	GoodResponse	0	n/a	n/a	3	7	Cue	AvoidedLoss	False
76.082	4.05	Lose2	1.0	0.0	Yes	4.019	0.001	2.0	GoodResponse	0	3.443	78.525	3	7	Fixation	AvoidedLoss	False
79.525	0.3	Lose2	1.0	0.0	Yes	4.019	0.001	2.0	GoodResponse	0	3.443	n/a	3	7	ButtonPress	AvoidedLoss	False
80.127	0.33	Lose2	1.0	0.004	Yes	4.019	-0.004	2.0	GoodResponse	0	0.168	79.295	3	7	Target	AvoidedLoss	False
80.295	0.3	Lose2	1.0	0.004	Yes	4.019	-0.004	2.0	GoodResponse	0	0.168	n/a	3	7	ButtonPress	AvoidedLoss	False
80.461	0.37	Lose2	1.0	n/a	Yes	4.019	n/a	n/a	GoodResponse	0	n/a	n/a	3	7	Blank	AvoidedLoss	False
80.829	1.45	Lose2	1.0	n/a	Yes	4.019	n/a	5.0	GoodResponse	0	0.025	79.854	3	7	Feedback	AvoidedLoss	False
82.284	4.019	Lose2	1.0	n/a	Yes	4.019	n/a	n/a	GoodResponse	0	0.0	n/a	3	7	ISIslide	AvoidedLoss	False
86.329	0.25	Lose2	1.0	0.0	Yes	3.021	0.029	n/a	GoodResponse	0	n/a	n/a	3	8	Cue	AvoidedLoss	True
86.58	3.95	Lose2	1.0	0.0	Yes	3.021	0.001	n/a	GoodResponse	0	n/a	n/a	3	8	Fixation	AvoidedLoss	True
90.525	0.32	Lose2	1.0	0.004	Yes	3.021	-0.004	2.0	GoodResponse	0	0.189	89.714	3	8	Target	AvoidedLoss	True
90.714	0.3	Lose2	1.0	0.004	Yes	3.021	-0.004	2.0	GoodResponse	0	0.189	n/a	3	8	ButtonPress	AvoidedLoss	True
90.859	0.38	Lose2	1.0	n/a	Yes	3.021	n/a	n/a	GoodResponse	0	n/a	n/a	3	8	Blank	AvoidedLoss	True
91.227	1.45	Lose2	1.0	n/a	Yes	3.021	n/a	5.0	GoodResponse	0	0.017	90.244	3	8	Feedback	AvoidedLoss	True
92.681	3.021	Lose2	1.0	n/a	Yes	3.021	n/a	n/a	GoodResponse	0	0.0	n/a	3	8	ISIslide	AvoidedLoss	True
95.724	0.25	Lose2	1.0	0.0	Yes	3.126	0.024	n/a	GoodResponse	0	n/a	n/a	3	9	Cue	AvoidedLoss	True
95.975	3.95	Lose2	1.0	0.0	Yes	3.126	0.001	n/a	GoodResponse	0	n/a	n/a	3	9	Fixation	AvoidedLoss	True
99.92	0.31	Lose2	1.0	0.004	Yes	3.126	-0.004	2.0	GoodResponse	0	0.183	99.103	3	9	Target	AvoidedLoss	True
100.103	0.3	Lose2	1.0	0.004	Yes	3.126	-0.004	2.0	GoodResponse	0	0.183	n/a	3	9	ButtonPress	AvoidedLoss	True
100.237	0.39	Lose2	1.0	n/a	Yes	3.126	n/a	n/a	GoodResponse	0	n/a	n/a	3	9	Blank	AvoidedLoss	True
100.622	1.45	Lose2	1.0	n/a	Yes	3.126	n/a	5.0	GoodResponse	0	0.036	99.658	3	9	Feedback	AvoidedLoss	True
102.076	3.126	Lose2	1.0	n/a	Yes	3.126	n/a	n/a	GoodResponse	0	0.0	n/a	3	9	ISIslide	AvoidedLoss	True
105.219	0.25	Control	1.0	0.0	Yes	3.281	0.019	n/a	GoodResponse	0	n/a	n/a	3	10	Cue	Neutral	True
105.47	4.0	Control	1.0	0.0	Yes	3.281	0.001	n/a	GoodResponse	0	n/a	n/a	3	10	Fixation	Neutral	True
109.465	0.3	Control	1.0	0.004	Yes	3.281	-0.004	2.0	GoodResponse	0	0.19	108.655	3	10	Target	Neutral	True
109.655	0.3	Control	1.0	0.004	Yes	3.281	-0.004	2.0	GoodResponse	0	0.19	n/a	3	10	ButtonPress	Neutral	True
109.766	0.4	Control	1.0	n/a	Yes	3.281	n/a	n/a	GoodResponse	0	n/a	n/a	3	10	Blank	Neutral	True
110.167	1.45	Control	1.0	n/a	Yes	3.281	n/a	5.0	GoodResponse	0	0.008	109.175	3	10	Feedback	Neutral	True
111.622	3.281	Control	1.0	n/a	Yes	3.281	n/a	n/a	GoodResponse	0	0.0	n/a	3	10	ISIslide	Neutral	True
114.915	0.25	Lose2	1.0	0.0	Yes	2.735	0.015	n/a	GoodResponse	0	n/a	n/a	3	11	Cue	AvoidedLoss	True
115.166	4.05	Lose2	1.0	0.0	Yes	2.735	0.001	n/a	GoodResponse	0	n/a	n/a	3	11	Fixation	AvoidedLoss	True
119.211	0.29	Lose2	1.0	0.004	Yes	2.735	-0.004	2.0	GoodResponse	0	0.172	118.383	3	11	Target	AvoidedLoss	True
119.383	0.3	Lose2	1.0	0.004	Yes	2.735	-0.004	2.0	GoodResponse	0	0.172	n/a	3	11	ButtonPress	AvoidedLoss	True
119.512	0.41	Lose2	1.0	n/a	Yes	2.735	n/a	n/a	GoodResponse	0	n/a	n/a	3	11	Blank	AvoidedLoss	True
119.913	1.45	Lose2	1.0	n/a	Yes	2.735	n/a	5.0	GoodResponse	0	0.013	118.926	3	11	Feedback	AvoidedLoss	True
121.368	2.735	Lose2	1.0	n/a	Yes	2.735	n/a	n/a	GoodResponse	0	0.0	n/a	3	11	ISIslide	AvoidedLoss	True
124.126	0.25	Control	1.0	0.0	Yes	2.974	0.026	n/a	GoodResponse	0	n/a	n/a	3	12	Cue	Neutral	True
124.377	3.9	Control	1.0	0.0	Yes	2.974	0.001	n/a	GoodResponse	0	n/a	n/a	3	12	Fixation	Neutral	True
128.272	0.28	Control	1.0	0.004	Yes	2.974	-0.004	2.0	GoodResponse	0	0.228	127.5	3	12	Target	Neutral	True
128.5	0.3	Control	1.0	0.004	Yes	2.974	-0.004	2.0	GoodResponse	0	0.228	n/a	3	12	ButtonPress	Neutral	True
128.556	0.42	Control	1.0	n/a	Yes	2.974	n/a	n/a	GoodResponse	0	n/a	n/a	3	12	Blank	Neutral	True
128.974	1.45	Control	1.0	n/a	Yes	2.974	n/a	5.0	GoodResponse	0	0.025	127.999	3	12	Feedback	Neutral	True
130.428	2.974	Control	1.0	n/a	Yes	2.974	n/a	n/a	GoodResponse	0	0.0	n/a	3	12	ISIslide	Neutral	True
133.42	0.25	Control	1.0	0.0	Yes	2.78	0.02	n/a	GoodResponse	0	n/a	n/a	3	13	Cue	Neutral	True
133.671	4.0	Control	1.0	0.0	Yes	2.78	0.001	n/a	GoodResponse	0	n/a	n/a	3	13	Fixation	Neutral	True
137.666	0.27	Control	1.0	0.004	Yes	2.78	-0.004	2.0	GoodResponse	0	0.184	136.85	3	13	Target	Neutral	True
137.85	0.3	Control	1.0	0.004	Yes	2.78	-0.004	2.0	GoodResponse	0	0.184	n/a	3	13	ButtonPress	Neutral	True
137.951	0.43	Control	1.0	n/a	Yes	2.78	n/a	n/a	GoodResponse	0	n/a	n/a	3	13	Blank	Neutral	True
138.369	1.45	Control	1.0	n/a	Yes	2.78	n/a	5.0	GoodResponse	0	0.045	137.414	3	13	Feedback	Neutral	True
139.823	2.78	Control	1.0	n/a	Yes	2.78	n/a	n/a	GoodResponse	0	0.0	n/a	3	13	ISIslide	Neutral	True
142.631	0.25	Win2	1.0	0.0	Yes	2.669	0.031	n/a	GoodResponse	1	n/a	n/a	4	14	Cue	Win	True
142.882	4.1	Win2	1.0	0.0	Yes	2.669	0.001	n/a	GoodResponse	1	n/a	n/a	4	14	Fixation	Win	True
146.978	0.26	Win2	1.0	0.003	Yes	2.669	-0.003	2.0	GoodResponse	1	0.165	146.143	4	14	Target	Win	True
147.143	0.3	Win2	1.0	0.003	Yes	2.669	-0.003	2.0	GoodResponse	1	0.165	n/a	4	14	ButtonPress	Win	True
147.245	0.44	Win2	1.0	n/a	Yes	2.669	n/a	n/a	GoodResponse	1	n/a	n/a	4	14	Blank	Win	True
147.68	1.45	Win2	1.0	n/a	Yes	2.669	n/a	5.0	GoodResponse	1	0.007	146.687	4	14	Feedback	Win	True
149.134	2.669	Win2	1.0	n/a	Yes	2.669	n/a	n/a	GoodResponse	1	0.0	n/a	4	14	ISIslide	Win	True
151.826	0.25	Control	1.0	0.0	Yes	2.974	0.026	n/a	GoodResponse	0	n/a	n/a	4	15	Cue	Neutral	True
152.076	4.0	Control	1.0	0.0	Yes	2.974	0.0	n/a	GoodResponse	0	n/a	n/a	4	15	Fixation	Neutral	True
156.072	0.25	Control	1.0	0.004	Yes	2.974	-0.004	2.0	GoodResponse	0	0.207	155.279	4	15	Target	Neutral	True
156.279	0.3	Control	1.0	0.004	Yes	2.974	-0.004	2.0	GoodResponse	0	0.207	n/a	4	15	ButtonPress	Neutral	True
156.322	0.45	Control	1.0	n/a	Yes	2.974	n/a	n/a	GoodResponse	0	n/a	n/a	4	15	Blank	Neutral	True
156.774	1.45	Control	1.0	n/a	Yes	2.974	n/a	5.0	GoodResponse	0	0.031	155.805	4	15	Feedback	Neutral	True
158.228	2.974	Control	1.0	n/a	Yes	2.974	n/a	n/a	GoodResponse	0	0.0	n/a	4	15	ISIslide	Neutral	True
161.22	0.25	Win2	1.0	0.001	Yes	2.88	0.02	n/a	GoodResponse	1	n/a	n/a	5	16	Cue	Win	True
161.471	4.0	Win2	1.0	0.0	Yes	2.88	0.001	n/a	GoodResponse	1	n/a	n/a	5	16	Fixation	Win	True
165.467	0.24	Win2	1.0	0.003	Yes	2.88	-0.003	2.0	GoodResponse	1	0.172	164.639	5	16	Target	Win	True
165.639	0.3	Win2	1.0	0.003	Yes	2.88	-0.003	2.0	GoodResponse	1	0.172	n/a	5	16	ButtonPress	Win	True
165.717	0.46	Win2	1.0	n/a	Yes	2.88	n/a	n/a	GoodResponse	1	n/a	n/a	5	16	Blank	Win	True
166.169	1.45	Win2	1.0	n/a	Yes	2.88	n/a	5.0	GoodResponse	1	0.007	165.176	5	16	Feedback	Win	True
167.623	2.88	Win2	1.0	n/a	Yes	2.88	n/a	n/a	GoodResponse	1	0.0	n/a	5	16	ISIslide	Win	True
170.515	0.25	Lose2	1.0	0.0	Yes	2.735	0.015	n/a	GoodResponse	0	n/a	n/a	5	17	Cue	AvoidedLoss	True
170.766	3.95	Lose2	1.0	0.0	Yes	2.735	0.001	n/a	GoodResponse	0	n/a	n/a	5	17	Fixation	AvoidedLoss	True
174.711	0.23	Lose2	1.0	0.004	Yes	2.735	-0.004	2.0	GoodResponse	0	0.165	173.876	5	17	Target	AvoidedLoss	True
174.876	0.3	Lose2	1.0	0.004	Yes	2.735	-0.004	2.0	GoodResponse	0	0.165	n/a	5	17	ButtonPress	AvoidedLoss	True
174.945	0.47	Lose2	1.0	n/a	Yes	2.735	n/a	n/a	GoodResponse	0	n/a	n/a	5	17	Blank	AvoidedLoss	True
175.413	1.45	Lose2	1.0	n/a	Yes	2.735	n/a	5.0	GoodResponse	0	0.026	174.439	5	17	Feedback	AvoidedLoss	True
176.867	2.735	Lose2	1.0	n/a	Yes	2.735	n/a	n/a	GoodResponse	0	0.0	n/a	5	17	ISIslide	AvoidedLoss	True
179.626	0.25	Lose2	1.0	0.0	Yes	2.724	0.026	n/a	GoodResponse	0	n/a	n/a	5	18	Cue	AvoidedLoss	True
179.876	4.05	Lose2	1.0	0.0	Yes	2.724	0.0	n/a	GoodResponse	0	n/a	n/a	5	18	Fixation	AvoidedLoss	True
183.922	0.22	Lose2	1.0	0.004	Yes	2.724	-0.004	2.0	GoodResponse	0	0.171	183.093	5	18	Target	AvoidedLoss	True
184.093	0.3	Lose2	1.0	0.004	Yes	2.724	-0.004	2.0	GoodResponse	0	0.171	n/a	5	18	ButtonPress	AvoidedLoss	True
184.156	0.48	Lose2	1.0	n/a	Yes	2.724	n/a	n/a	GoodResponse	0	n/a	n/a	5	18	Blank	AvoidedLoss	True
184.624	1.45	Lose2	1.0	n/a	Yes	2.724	n/a	5.0	GoodResponse	0	0.033	183.657	5	18	Feedback	AvoidedLoss	True
186.078	2.724	Lose2	1.0	n/a	Yes	2.724	n/a	n/a	GoodResponse	0	0.0	n/a	5	18	ISIslide	AvoidedLoss	True
188.82	0.25	Control	1.0	0.0	Yes	2.93	0.02	n/a	GoodResponse	0	n/a	n/a	5	19	Cue	Neutral	True
189.071	3.95	Control	1.0	0.0	Yes	2.93	0.001	n/a	GoodResponse	0	n/a	n/a	5	19	Fixation	Neutral	True
193.016	0.21	Control	1.0	0.004	Yes	2.93	-0.004	2.0	GoodResponse	0	0.17	192.186	5	19	Target	Neutral	True
193.186	0.3	Control	1.0	0.004	Yes	2.93	-0.004	2.0	GoodResponse	0	0.17	n/a	5	19	ButtonPress	Neutral	True
193.233	0.49	Control	1.0	n/a	Yes	2.93	n/a	n/a	GoodResponse	0	n/a	n/a	5	19	Blank	Neutral	True
193.718	1.45	Control	1.0	n/a	Yes	2.93	n/a	5.0	GoodResponse	0	0.013	192.731	5	19	Feedback	Neutral	True
195.172	2.93	Control	1.0	n/a	Yes	2.93	n/a	n/a	GoodResponse	0	0.0	n/a	5	19	ISIslide	Neutral	True
198.114	0.25	Control	1.0	0.001	Yes	2.636	0.014	n/a	GoodResponse	0	n/a	n/a	5	20	Cue	Neutral	True
198.365	4.05	Control	1.0	0.0	Yes	2.636	0.001	n/a	GoodResponse	0	n/a	n/a	5	20	Fixation	Neutral	True
202.411	0.2	Control	1.0	0.003	Yes	2.636	-0.003	2.0	GoodResponse	0	0.194	201.605	5	20	Target	Neutral	True
202.605	0.3	Control	1.0	0.003	Yes	2.636	-0.003	2.0	GoodResponse	0	0.194	n/a	5	20	ButtonPress	Neutral	True
202.611	0.5	Control	1.0	n/a	Yes	2.636	n/a	n/a	GoodResponse	0	n/a	n/a	5	20	Blank	Neutral	True
203.113	1.45	Control	1.0	n/a	Yes	2.636	n/a	5.0	GoodResponse	0	0.032	202.145	5	20	Feedback	Neutral	True
204.567	2.636	Control	1.0	n/a	Yes	2.636	n/a	n/a	GoodResponse	0	0.0	n/a	5	20	ISIslide	Neutral	True
207.225	0.25	Control	1.0	0.0	Yes	2.775	0.025	n/a	GoodResponse	0	n/a	n/a	5	21	Cue	Neutral	True
207.476	4.1	Control	1.0	0.0	Yes	2.775	0.001	n/a	GoodResponse	0	n/a	n/a	5	21	Fixation	Neutral	True
211.571	0.19	Control	1.0	0.004	Yes	2.775	-0.004	2.0	GoodResponse	0	0.171	210.742	5	21	Target	Neutral	True
211.742	0.3	Control	1.0	0.004	Yes	2.775	-0.004	2.0	GoodResponse	0	0.171	n/a	5	21	ButtonPress	Neutral	True
211.772	0.51	Control	1.0	n/a	Yes	2.775	n/a	n/a	GoodResponse	0	n/a	n/a	5	21	Blank	Neutral	True
212.274	1.45	Control	1.0	n/a	Yes	2.775	n/a	5.0	GoodResponse	0	0.042	211.316	5	21	Feedback	Neutral	True
213.728	2.775	Control	1.0	n/a	Yes	2.775	n/a	n/a	GoodResponse	0	0.0	n/a	5	21	ISIslide	Neutral	True
216.52	0.25	Control	1.0	0.0	Yes	2.78	0.02	n/a	GoodResponse	0	n/a	n/a	5	22	Cue	Neutral	False
216.77	4.0	Control	1.0	0.0	Yes	2.78	0.0	2.0	GoodResponse	0	3.462	219.232	5	22	Fixation	Neutral	False
220.232	0.3	Control	1.0	0.0	Yes	2.78	0.0	2.0	GoodResponse	0	3.462	n/a	5	22	ButtonPress	Neutral	False
220.766	0.18	Control	1.0	0.004	Yes	2.78	-0.004	2.0	GoodResponse	0	0.17	219.936	5	22	Target	Neutral	False
220.936	0.3	Control	1.0	0.004	Yes	2.78	-0.004	2.0	GoodResponse	0	0.17	n/a	5	22	ButtonPress	Neutral	False
220.95	0.52	Control	1.0	n/a	Yes	2.78	n/a	n/a	GoodResponse	0	n/a	n/a	5	22	Blank	Neutral	False
221.468	1.45	Control	1.0	n/a	Yes	2.78	n/a	5.0	GoodResponse	0	0.019	220.487	5	22	Feedback	Neutral	False
222.922	2.78	Control	1.0	n/a	Yes	2.78	n/a	n/a	GoodResponse	0	0.0	n/a	5	22	ISIslide	Neutral	False
225.731	0.25	Control	0.9582999999999999	0.0	No	2.769	0.031	n/a	NoResponse	0	n/a	n/a	5	23	Cue	Neutral	False
225.981	3.9	Control	0.9582999999999999	0.0	No	2.769	0.0	n/a	NoResponse	0	n/a	n/a	5	23	Fixation	Neutral	False
229.893	0.17	Control	0.9582999999999999	0.0	No	2.769	0.012	n/a	NoResponse	0	n/a	n/a	5	23	Target	Neutral	False
230.06	0.53	Control	0.9582999999999999	n/a	No	2.769	n/a	n/a	NoResponse	0	n/a	n/a	5	23	Blank	Neutral	False
230.578	1.45	Control	0.9582999999999999	n/a	No	2.769	n/a	5.0	NoResponse	0	0.031	229.609	5	23	Feedback	Neutral	False
232.033	2.769	Control	0.9582999999999999	n/a	No	2.769	n/a	n/a	NoResponse	0	0.0	n/a	5	23	ISIslide	Neutral	False
234.825	0.25	Win2	0.92	0.0	No	3.125	0.025	n/a	NoResponse	0	n/a	n/a	5	24	Cue	MissedWin	True
235.075	3.95	Win2	0.92	0.0	No	3.125	0.0	n/a	NoResponse	0	n/a	n/a	5	24	Fixation	MissedWin	True
239.037	0.16	Win2	0.92	0.0	No	3.125	0.012	2.0	NoResponse	0	0.18	238.217	5	24	Target	MissedWin	True
239.188	0.54	Win2	0.92	n/a	No	3.125	n/a	n/a	NoResponse	0	n/a	n/a	5	24	Blank	MissedWin	True
239.217	0.3	Win2	0.92	0.0	No	3.125	0.012	2.0	NoResponse	0	0.18	n/a	5	24	ButtonPress	MissedWin	True
239.723	1.45	Win2	0.92	n/a	No	3.125	n/a	5.0	NoResponse	0	0.008	238.731	5	24	Feedback	MissedWin	True
241.177	3.125	Win2	0.92	n/a	No	3.125	n/a	n/a	NoResponse	0	0.0	n/a	5	24	ISIslide	MissedWin	True
244.32	0.25	Win2	0.8845999999999999	0.0	No	3.08	0.02	n/a	NoResponse	0	n/a	n/a	5	25	Cue	MissedWin	True
244.57	4.0	Win2	0.8845999999999999	0.001	No	3.08	0.0	2.0	NoResponse	0	3.931	247.501	5	25	Fixation	MissedWin	True
248.501	0.3	Win2	0.8845999999999999	0.001	No	3.08	0.0	2.0	NoResponse	0	3.931	n/a	5	25	ButtonPress	MissedWin	True
248.566	0.15	Win2	0.8845999999999999	0.004	No	3.08	-0.004	n/a	NoResponse	0	n/a	n/a	5	25	Target	MissedWin	True
248.716	0.55	Win2	0.8845999999999999	n/a	No	3.08	n/a	n/a	NoResponse	0	n/a	n/a	5	25	Blank	MissedWin	True
249.268	1.45	Win2	0.8845999999999999	n/a	No	3.08	n/a	5.0	NoResponse	0	0.023	248.291	5	25	Feedback	MissedWin	True
250.722	3.08	Win2	0.8845999999999999	n/a	No	3.08	n/a	n/a	NoResponse	0	0.0	n/a	5	25	ISIslide	MissedWin	True
253.832	0.25	Win2	0.8519	0.0	No	2.918	0.032	n/a	NoResponse	0	n/a	n/a	5	26	Cue	MissedWin	True
254.082	3.95	Win2	0.8519	0.0	No	2.918	0.0	n/a	NoResponse	0	n/a	n/a	5	26	Fixation	MissedWin	True
258.028	0.15	Win2	0.8519	0.004	No	2.918	-0.004	2.0	NoResponse	0	0.163	257.191	5	26	Target	MissedWin	True
258.178	0.55	Win2	0.8519	n/a	No	2.918	n/a	n/a	NoResponse	0	n/a	n/a	5	26	Blank	MissedWin	True
258.191	0.3	Win2	0.8519	0.004	No	2.918	-0.004	2.0	NoResponse	0	0.163	n/a	5	26	ButtonPress	MissedWin	True
258.73	1.45	Win2	0.8519	n/a	No	2.918	n/a	5.0	NoResponse	0	0.025	257.755	5	26	Feedback	MissedWin	True
260.184	2.918	Win2	0.8519	n/a	No	2.918	n/a	n/a	NoResponse	0	0.0	n/a	5	26	ISIslide	MissedWin	True
263.126	0.25	Lose2	0.8214	0.0	No	2.824	0.026	n/a	NoResponse	-1	n/a	n/a	4	27	Cue	Loss	False
263.377	4.05	Lose2	0.8214	0.0	No	2.824	0.001	2.0	NoResponse	-1	3.933	266.31	4	27	Fixation	Loss	False
267.31	0.3	Lose2	0.8214	0.0	No	2.824	0.001	2.0	NoResponse	-1	3.933	n/a	4	27	ButtonPress	Loss	False
267.422	0.15	Lose2	0.8214	0.004	No	2.824	-0.004	2.0	NoResponse	-1	0.259	266.681	4	27	Target	Loss	False
267.573	0.55	Lose2	0.8214	n/a	No	2.824	n/a	n/a	NoResponse	-1	n/a	n/a	4	27	Blank	Loss	False
267.681	0.3	Lose2	0.8214	0.004	No	2.824	-0.004	2.0	NoResponse	-1	0.259	n/a	4	27	ButtonPress	Loss	False
268.124	1.45	Lose2	0.8214	n/a	No	2.824	n/a	5.0	NoResponse	-1	0.046	267.17	4	27	Feedback	Loss	False
269.579	2.824	Lose2	0.8214	n/a	No	2.824	n/a	n/a	NoResponse	-1	0.0	n/a	4	27	ISIslide	Loss	False
272.421	0.25	Control	0.7931	0.0	No	2.829	0.021	n/a	NoResponse	0	n/a	n/a	4	28	Cue	Neutral	True
272.671	4.05	Control	0.7931	0.0	No	2.829	0.0	n/a	NoResponse	0	n/a	n/a	4	28	Fixation	Neutral	True
276.717	0.15	Control	0.7931	0.004	No	2.829	-0.004	2.0	NoResponse	0	0.179	275.896	4	28	Target	Neutral	True
276.867	0.55	Control	0.7931	n/a	No	2.829	n/a	n/a	NoResponse	0	n/a	n/a	4	28	Blank	Neutral	True
276.896	0.3	Control	0.7931	0.004	No	2.829	-0.004	2.0	NoResponse	0	0.179	n/a	4	28	ButtonPress	Neutral	True
277.419	1.45	Control	0.7931	n/a	No	2.829	n/a	5.0	NoResponse	0	0.019	276.438	4	28	Feedback	Neutral	True
278.873	2.829	Control	0.7931	n/a	No	2.829	n/a	n/a	NoResponse	0	0.0	n/a	4	28	ISIslide	Neutral	True
281.715	0.25	Lose2	0.7667	0.0	No	2.835	0.015	n/a	NoResponse	-1	n/a	n/a	3	29	Cue	Loss	True
281.966	3.95	Lose2	0.7667	0.0	No	2.835	0.001	2.0	NoResponse	-1	3.941	284.907	3	29	Fixation	Loss	True
285.907	0.3	Lose2	0.7667	0.0	No	2.835	0.001	2.0	NoResponse	-1	3.941	n/a	3	29	ButtonPress	Loss	True
285.911	0.15	Lose2	0.7667	0.004	No	2.835	-0.004	n/a	NoResponse	-1	n/a	n/a	3	29	Target	Loss	True
286.062	0.55	Lose2	0.7667	n/a	No	2.835	n/a	n/a	NoResponse	-1	n/a	n/a	3	29	Blank	Loss	True
286.613	1.45	Lose2	0.7667	n/a	No	2.835	n/a	5.0	NoResponse	-1	0.045	285.658	3	29	Feedback	Loss	True
288.068	2.835	Lose2	0.7667	n/a	No	2.835	n/a	n/a	NoResponse	-1	0.0	n/a	3	29	ISIslide	Loss	True
290.926	0.25	Win2	0.7419	0.0	No	2.774	0.026	n/a	NoResponse	0	n/a	n/a	3	30	Cue	MissedWin	True
291.177	3.9	Win2	0.7419	0.0	No	2.774	0.001	n/a	NoResponse	0	n/a	n/a	3	30	Fixation	MissedWin	True
295.072	0.15	Win2	0.7419	0.004	No	2.774	-0.004	2.0	NoResponse	0	0.173	294.245	3	30	Target	MissedWin	True
295.222	0.55	Win2	0.7419	n/a	No	2.774	n/a	n/a	NoResponse	0	n/a	n/a	3	30	Blank	MissedWin	True
295.245	0.3	Win2	0.7419	0.004	No	2.774	-0.004	2.0	NoResponse	0	0.173	n/a	3	30	ButtonPress	MissedWin	True
295.774	1.45	Win2	0.7419	n/a	No	2.774	n/a	5.0	NoResponse	0	0.008	294.782	3	30	Feedback	MissedWin	True
297.228	2.774	Win2	0.7419	n/a	No	2.774	n/a	n/a	NoResponse	0	0.0	n/a	3	30	ISIslide	MissedWin	True
300.02	0.25	Lose2	0.7188	0.0	No	2.83	0.02	n/a	NoResponse	-1	n/a	n/a	2	31	Cue	Loss	True
300.271	4.05	Lose2	0.7188	0.0	No	2.83	0.001	n/a	NoResponse	-1	n/a	n/a	2	31	Fixation	Loss	True
304.316	0.15	Lose2	0.7188	0.004	No	2.83	-0.004	2.0	NoResponse	-1	0.185	303.501	2	31	Target	Loss	True
304.467	0.55	Lose2	0.7188	n/a	No	2.83	n/a	n/a	NoResponse	-1	n/a	n/a	2	31	Blank	Loss	True
304.501	0.3	Lose2	0.7188	0.004	No	2.83	-0.004	2.0	NoResponse	-1	0.185	n/a	2	31	ButtonPress	Loss	True
305.018	1.45	Lose2	0.7188	n/a	No	2.83	n/a	5.0	NoResponse	-1	0.03	304.048	2	31	Feedback	Loss	True
306.473	2.83	Lose2	0.7188	n/a	No	2.83	n/a	n/a	NoResponse	-1	0.0	n/a	2	31	ISIslide	Loss	True
309.331	0.25	Lose2	0.6970000000000001	0.0	No	2.619	0.031	n/a	NoResponse	-1	n/a	n/a	1	32	Cue	Loss	True
309.582	4.15	Lose2	0.6970000000000001	0.0	No	2.619	0.001	n/a	NoResponse	-1	n/a	n/a	1	32	Fixation	Loss	True
313.728	0.15	Lose2	0.6970000000000001	0.003	No	2.619	-0.003	2.0	NoResponse	-1	0.168	312.896	1	32	Target	Loss	True
313.878	0.55	Lose2	0.6970000000000001	n/a	No	2.619	n/a	n/a	NoResponse	-1	n/a	n/a	1	32	Blank	Loss	True
313.896	0.3	Lose2	0.6970000000000001	0.003	No	2.619	-0.003	2.0	NoResponse	-1	0.168	n/a	1	32	ButtonPress	Loss	True
314.43	1.45	Lose2	0.6970000000000001	n/a	No	2.619	n/a	5.0	NoResponse	-1	0.033	313.463	1	32	Feedback	Loss	True
315.884	2.619	Lose2	0.6970000000000001	n/a	No	2.619	n/a	n/a	NoResponse	-1	0.0	n/a	1	32	ISIslide	Loss	True
318.526	0.25	Win2	0.6765000000000001	0.0	No	2.674	0.026	n/a	NoResponse	0	n/a	n/a	1	33	Cue	MissedWin	True
318.776	4.0	Win2	0.6765000000000001	0.0	No	2.674	0.0	n/a	NoResponse	0	n/a	n/a	1	33	Fixation	MissedWin	True
322.772	0.15	Win2	0.6765000000000001	0.004	No	2.674	-0.004	2.0	NoResponse	0	0.176	321.948	1	33	Target	MissedWin	True
322.922	0.55	Win2	0.6765000000000001	n/a	No	2.674	n/a	n/a	NoResponse	0	n/a	n/a	1	33	Blank	MissedWin	True
322.948	0.3	Win2	0.6765000000000001	0.004	No	2.674	-0.004	2.0	NoResponse	0	0.176	n/a	1	33	ButtonPress	MissedWin	True
323.474	1.45	Win2	0.6765000000000001	n/a	No	2.674	n/a	5.0	NoResponse	0	0.013	322.487	1	33	Feedback	MissedWin	True
324.928	2.674	Win2	0.6765000000000001	n/a	No	2.674	n/a	n/a	NoResponse	0	0.0	n/a	1	33	ISIslide	MissedWin	True
327.62	0.25	Lose2	0.6570999999999999	0.0	No	2.63	0.02	n/a	PrematurePress	-1	n/a	n/a	0	34	Cue	Loss	True
327.87	4.05	Lose2	0.6570999999999999	0.0	No	2.63	0.0	n/a	PrematurePress	-1	n/a	n/a	0	34	Fixation	Loss	True
331.916	0.15	Lose2	0.6570999999999999	0.004	No	2.63	-0.004	2.0	PrematurePress	-1	0.049	330.965	0	34	Target	Loss	True
331.965	0.3	Lose2	0.6570999999999999	0.004	No	2.63	-0.004	2.0	PrematurePress	-1	0.049	n/a	0	34	ButtonPress	Loss	True
332.066	0.55	Lose2	0.6570999999999999	n/a	No	2.63	n/a	n/a	PrematurePress	-1	n/a	n/a	0	34	Blank	Loss	True
332.618	1.45	Lose2	0.6570999999999999	n/a	No	2.63	n/a	5.0	PrematurePress	-1	0.039	331.657	0	34	Feedback	Loss	True
334.072	2.63	Lose2	0.6570999999999999	n/a	No	2.63	n/a	n/a	PrematurePress	-1	0.0	n/a	0	34	ISIslide	Loss	True
336.73	0.25	Lose2	0.6389	0.0	No	2.67	0.03	n/a	NoResponse	-1	n/a	n/a	-1	35	Cue	Loss	True
336.981	4.0	Lose2	0.6389	0.0	No	2.67	0.001	n/a	NoResponse	-1	n/a	n/a	-1	35	Fixation	Loss	True
340.976	0.15	Lose2	0.6389	0.004	No	2.67	-0.004	2.0	NoResponse	-1	0.183	340.159	-1	35	Target	Loss	True
341.127	0.55	Lose2	0.6389	n/a	No	2.67	n/a	n/a	NoResponse	-1	n/a	n/a	-1	35	Blank	Loss	True
341.159	0.3	Lose2	0.6389	0.004	No	2.67	-0.004	2.0	NoResponse	-1	0.183	n/a	-1	35	ButtonPress	Loss	True
341.678	1.45	Lose2	0.6389	n/a	No	2.67	n/a	5.0	NoResponse	-1	0.007	340.685	-1	35	Feedback	Loss	True
343.133	2.67	Lose2	0.6389	n/a	No	2.67	n/a	n/a	NoResponse	-1	0.0	n/a	-1	35	ISIslide	Loss	True
345.824	0.25	Control	0.6486	0.0	Yes	2.676	0.024	n/a	GoodResponse	0	n/a	n/a	-1	36	Cue	Neutral	True
346.075	4.0	Control	0.6486	0.0	Yes	2.676	0.001	n/a	GoodResponse	0	n/a	n/a	-1	36	Fixation	Neutral	True
350.07	0.16	Control	0.6486	0.004	Yes	2.676	-0.004	2.0	GoodResponse	0	0.139	349.209	-1	36	Target	Neutral	True
350.209	0.3	Control	0.6486	0.004	Yes	2.676	-0.004	2.0	GoodResponse	0	0.139	n/a	-1	36	ButtonPress	Neutral	True
350.237	0.54	Control	0.6486	n/a	Yes	2.676	n/a	n/a	GoodResponse	0	n/a	n/a	-1	36	Blank	Neutral	True
350.772	1.45	Control	0.6486	n/a	Yes	2.676	n/a	5.0	GoodResponse	0	0.032	349.804	-1	36	Feedback	Neutral	True
352.227	2.676	Control	0.6486	n/a	Yes	2.676	n/a	n/a	GoodResponse	0	0.0	n/a	-1	36	ISIslide	Neutral	True
354.918	0.25	Win2	0.6315999999999999	0.0	No	2.882	0.018	n/a	PrematurePress	0	n/a	n/a	-1	37	Cue	MissedWin	False
355.169	4.0	Win2	0.6315999999999999	0.0	No	2.882	0.001	2.0	PrematurePress	0	3.137	357.306	-1	37	Fixation	MissedWin	False
358.306	0.3	Win2	0.6315999999999999	0.0	No	2.882	0.001	2.0	PrematurePress	0	3.137	n/a	-1	37	ButtonPress	MissedWin	False
359.164	0.17	Win2	0.6315999999999999	0.004	No	2.882	-0.004	2.0	PrematurePress	0	0.078	358.242	-1	37	Target	MissedWin	False
359.242	0.3	Win2	0.6315999999999999	0.004	No	2.882	-0.004	2.0	PrematurePress	0	0.078	n/a	-1	37	ButtonPress	MissedWin	False
359.348	0.53	Win2	0.6315999999999999	n/a	No	2.882	n/a	n/a	PrematurePress	0	n/a	n/a	-1	37	Blank	MissedWin	False
359.866	1.45	Win2	0.6315999999999999	n/a	No	2.882	n/a	5.0	PrematurePress	0	0.011	358.877	-1	37	Feedback	MissedWin	False
361.321	2.882	Win2	0.6315999999999999	n/a	No	2.882	n/a	n/a	PrematurePress	0	0.0	n/a	-1	37	ISIslide	MissedWin	False
364.229	0.25	Lose2	0.6409999999999999	0.0	Yes	2.821	0.029	n/a	GoodResponse	0	n/a	n/a	-1	38	Cue	AvoidedLoss	True
364.48	3.95	Lose2	0.6409999999999999	0.0	Yes	2.821	0.001	n/a	GoodResponse	0	n/a	n/a	-1	38	Fixation	AvoidedLoss	True
368.425	0.18	Lose2	0.6409999999999999	0.004	Yes	2.821	-0.004	2.0	GoodResponse	0	0.161	367.586	-1	38	Target	AvoidedLoss	True
368.586	0.3	Lose2	0.6409999999999999	0.004	Yes	2.821	-0.004	2.0	GoodResponse	0	0.161	n/a	-1	38	ButtonPress	AvoidedLoss	True
368.609	0.52	Lose2	0.6409999999999999	n/a	Yes	2.821	n/a	n/a	GoodResponse	0	n/a	n/a	-1	38	Blank	AvoidedLoss	True
369.127	1.45	Lose2	0.6409999999999999	n/a	Yes	2.821	n/a	5.0	GoodResponse	0	0.018	368.145	-1	38	Feedback	AvoidedLoss	True
370.582	2.821	Lose2	0.6409999999999999	n/a	Yes	2.821	n/a	n/a	GoodResponse	0	0.0	n/a	-1	38	ISIslide	AvoidedLoss	True
373.424	0.25	Win2	0.65	0.0	Yes	2.976	0.024	n/a	GoodResponse	1	n/a	n/a	0	39	Cue	Win	False
373.674	4.1	Win2	0.65	0.0	Yes	2.976	0.0	2.0	GoodResponse	1	3.889	376.563	0	39	Fixation	Win	False
377.563	0.3	Win2	0.65	0.0	Yes	2.976	0.0	2.0	GoodResponse	1	3.889	n/a	0	39	ButtonPress	Win	False
377.77	0.19	Win2	0.65	0.004	Yes	2.976	-0.004	2.0	GoodResponse	1	0.179	376.949	0	39	Target	Win	False
377.949	0.3	Win2	0.65	0.004	Yes	2.976	-0.004	2.0	GoodResponse	1	0.179	n/a	0	39	ButtonPress	Win	False
377.971	0.51	Win2	0.65	n/a	Yes	2.976	n/a	n/a	GoodResponse	1	n/a	n/a	0	39	Blank	Win	False
378.472	1.45	Win2	0.65	n/a	Yes	2.976	n/a	5.0	GoodResponse	1	0.039	377.511	0	39	Feedback	Win	False
379.927	2.976	Win2	0.65	n/a	Yes	2.976	n/a	n/a	GoodResponse	1	0.0	n/a	0	39	ISIslide	Win	False
382.919	0.25	Win2	0.6585	0.0	Yes	2.731	0.019	n/a	GoodResponse	1	n/a	n/a	1	40	Cue	Win	True
383.17	3.95	Win2	0.6585	0.0	Yes	2.731	0.001	n/a	GoodResponse	1	n/a	n/a	1	40	Fixation	Win	True
387.115	0.2	Win2	0.6585	0.004	Yes	2.731	-0.004	2.0	GoodResponse	1	0.181	386.296	1	40	Target	Win	True
387.296	0.3	Win2	0.6585	0.004	Yes	2.731	-0.004	2.0	GoodResponse	1	0.181	n/a	1	40	ButtonPress	Win	True
387.315	0.5	Win2	0.6585	n/a	Yes	2.731	n/a	n/a	GoodResponse	1	n/a	n/a	1	40	Blank	Win	True
387.817	1.45	Win2	0.6585	n/a	Yes	2.731	n/a	5.0	GoodResponse	1	0.011	386.828	1	40	Feedback	Win	True
389.271	2.731	Win2	0.6585	n/a	Yes	2.731	n/a	n/a	GoodResponse	1	0.0	n/a	1	40	ISIslide	Win	True
392.029	0.25	Win2	0.6429	0.001	No	2.771	0.029	n/a	NoResponse	0	n/a	n/a	1	41	Cue	MissedWin	True
392.28	3.9	Win2	0.6429	0.0	No	2.771	0.001	n/a	NoResponse	0	n/a	n/a	1	41	Fixation	MissedWin	True
396.175	0.2	Win2	0.6429	0.004	No	2.771	-0.004	2.0	NoResponse	0	0.59	395.765	1	41	Target	MissedWin	True
396.376	0.5	Win2	0.6429	n/a	No	2.771	n/a	n/a	NoResponse	0	n/a	n/a	1	41	Blank	MissedWin	True
396.765	0.3	Win2	0.6429	0.004	No	2.771	-0.004	2.0	NoResponse	0	0.59	n/a	1	41	ButtonPress	MissedWin	True
396.877	1.45	Win2	0.6429	n/a	No	2.771	n/a	5.0	NoResponse	0	0.025	395.902	1	41	Feedback	MissedWin	True
398.332	2.771	Win2	0.6429	n/a	No	2.771	n/a	n/a	NoResponse	0	0.0	n/a	1	41	ISIslide	MissedWin	True
401.123	0.25	Control	0.6279	0.001	No	2.927	0.023	n/a	NoResponse	0	n/a	n/a	1	42	Cue	Neutral	True
401.374	3.85	Control	0.6279	0.0	No	2.927	0.001	n/a	NoResponse	0	n/a	n/a	1	42	Fixation	Neutral	True
405.219	0.21	Control	0.6279	0.004	No	2.927	-0.004	2.0	NoResponse	0	0.37	404.589	1	42	Target	Neutral	True
405.436	0.49	Control	0.6279	n/a	No	2.927	n/a	n/a	NoResponse	0	n/a	n/a	1	42	Blank	Neutral	True
405.589	0.3	Control	0.6279	0.004	No	2.927	-0.004	2.0	NoResponse	0	0.37	n/a	1	42	ButtonPress	Neutral	True
405.921	1.45	Control	0.6279	n/a	No	2.927	n/a	5.0	NoResponse	0	0.007	404.928	1	42	Feedback	Neutral	True
407.376	2.927	Control	0.6279	n/a	No	2.927	n/a	n/a	NoResponse	0	0.0	n/a	1	42	ISIslide	Neutral	True
410.318	0.25	Win2	0.6364	0.0	Yes	3.182	0.018	2.0	GoodResponse	1	0.179	409.497	2	43	Cue	Win	False
410.497	0.3	Win2	0.6364	0.0	Yes	3.182	0.018	2.0	GoodResponse	1	0.179	n/a	2	43	ButtonPress	Win	False
410.568	4.0	Win2	0.6364	0.001	Yes	3.182	0.0	n/a	GoodResponse	1	n/a	n/a	2	43	Fixation	Win	False
414.564	0.22	Win2	0.6364	0.004	Yes	3.182	-0.004	2.0	GoodResponse	1	0.173	413.737	2	43	Target	Win	False
414.737	0.3	Win2	0.6364	0.004	Yes	3.182	-0.004	2.0	GoodResponse	1	0.173	n/a	2	43	ButtonPress	Win	False
414.798	0.48	Win2	0.6364	n/a	Yes	3.182	n/a	n/a	GoodResponse	1	n/a	n/a	2	43	Blank	Win	False
415.266	1.45	Win2	0.6364	n/a	Yes	3.182	n/a	5.0	GoodResponse	1	0.025	414.291	2	43	Feedback	Win	False
416.72	3.182	Win2	0.6364	n/a	Yes	3.182	n/a	n/a	GoodResponse	1	0.0	n/a	2	43	ISIslide	Win	False
419.93	0.25	Win2	0.6444	0.0	Yes	2.97	0.03	n/a	GoodResponse	1	n/a	n/a	3	44	Cue	Win	True
420.181	4.0	Win2	0.6444	0.0	Yes	2.97	0.001	n/a	GoodResponse	1	n/a	n/a	3	44	Fixation	Win	True
424.176	0.23	Win2	0.6444	0.004	Yes	2.97	-0.004	2.0	GoodResponse	1	0.147	423.323	3	44	Target	Win	True
424.323	0.3	Win2	0.6444	0.004	Yes	2.97	-0.004	2.0	GoodResponse	1	0.147	n/a	3	44	ButtonPress	Win	True
424.41	0.47	Win2	0.6444	n/a	Yes	2.97	n/a	n/a	GoodResponse	1	n/a	n/a	3	44	Blank	Win	True
424.878	1.45	Win2	0.6444	n/a	Yes	2.97	n/a	5.0	GoodResponse	1	0.023	423.901	3	44	Feedback	Win	True
426.332	2.97	Win2	0.6444	n/a	Yes	2.97	n/a	n/a	GoodResponse	1	0.0	n/a	3	44	ISIslide	Win	True
429.325	0.25	Control	0.6522	0.0	Yes	2.875	0.025	n/a	GoodResponse	0	n/a	n/a	3	45	Cue	Neutral	False
429.575	4.1	Control	0.6522	0.001	Yes	2.875	0.0	2.0	GoodResponse	0	0.466	429.041	3	45	Fixation	Neutral	False
430.041	0.3	Control	0.6522	0.001	Yes	2.875	0.0	2.0	GoodResponse	0	0.466	n/a	3	45	ButtonPress	Neutral	False
433.671	0.24	Control	0.6522	0.004	Yes	2.875	-0.004	2.0	GoodResponse	0	0.172	432.843	3	45	Target	Neutral	False
433.843	0.3	Control	0.6522	0.004	Yes	2.875	-0.004	2.0	GoodResponse	0	0.172	n/a	3	45	ButtonPress	Neutral	False
433.922	0.46	Control	0.6522	n/a	Yes	2.875	n/a	n/a	GoodResponse	0	n/a	n/a	3	45	Blank	Neutral	False
434.373	1.45	Control	0.6522	n/a	Yes	2.875	n/a	5.0	GoodResponse	0	0.04	433.413	3	45	Feedback	Neutral	False
435.828	2.875	Control	0.6522	n/a	Yes	2.875	n/a	n/a	GoodResponse	0	0.0	n/a	3	45	ISIslide	Neutral	False
438.72	0.25	Lose2	0.6596	0.0	Yes	3.38	0.02	n/a	GoodResponse	0	n/a	n/a	3	46	Cue	AvoidedLoss	True
438.97	4.0	Lose2	0.6596	0.0	Yes	3.38	0.0	n/a	GoodResponse	0	n/a	n/a	3	46	Fixation	AvoidedLoss	True
442.966	0.25	Lose2	0.6596	0.004	Yes	3.38	-0.004	2.0	GoodResponse	0	0.174	442.14	3	46	Target	AvoidedLoss	True
443.14	0.3	Lose2	0.6596	0.004	Yes	3.38	-0.004	2.0	GoodResponse	0	0.174	n/a	3	46	ButtonPress	AvoidedLoss	True
443.216	0.45	Lose2	0.6596	n/a	Yes	3.38	n/a	n/a	GoodResponse	0	n/a	n/a	3	46	Blank	AvoidedLoss	True
443.668	1.45	Lose2	0.6596	n/a	Yes	3.38	n/a	5.0	GoodResponse	0	0.014	442.682	3	46	Feedback	AvoidedLoss	True
445.122	3.38	Lose2	0.6596	n/a	Yes	3.38	n/a	n/a	GoodResponse	0	0.0	n/a	3	46	ISIslide	AvoidedLoss	True
448.516	0.25	Lose2	0.6667000000000001	0.0	Yes	2.684	0.016	n/a	GoodResponse	0	n/a	n/a	3	47	Cue	AvoidedLoss	False
448.766	4.0	Lose2	0.6667000000000001	0.0	Yes	2.684	0.0	2.0	GoodResponse	0	3.796	451.562	3	47	Fixation	AvoidedLoss	False
452.562	0.3	Lose2	0.6667000000000001	0.0	Yes	2.684	0.0	2.0	GoodResponse	0	3.796	n/a	3	47	ButtonPress	AvoidedLoss	False
452.762	0.25	Lose2	0.6667000000000001	0.004	Yes	2.684	-0.004	2.0	GoodResponse	0	0.193	451.955	3	47	Target	AvoidedLoss	False
452.955	0.3	Lose2	0.6667000000000001	0.004	Yes	2.684	-0.004	2.0	GoodResponse	0	0.193	n/a	3	47	ButtonPress	AvoidedLoss	False
453.012	0.45	Lose2	0.6667000000000001	n/a	Yes	2.684	n/a	n/a	GoodResponse	0	n/a	n/a	3	47	Blank	AvoidedLoss	False
453.464	1.45	Lose2	0.6667000000000001	n/a	Yes	2.684	n/a	5.0	GoodResponse	0	0.023	452.487	3	47	Feedback	AvoidedLoss	False
454.918	2.684	Lose2	0.6667000000000001	n/a	Yes	2.684	n/a	n/a	GoodResponse	0	0.0	n/a	3	47	ISIslide	AvoidedLoss	False
457.626	0.25	Lose2	0.6735	0.0	Yes	3.024	0.026	n/a	GoodResponse	0	n/a	n/a	3	48	Cue	AvoidedLoss	True
457.877	3.95	Lose2	0.6735	0.0	Yes	3.024	0.001	n/a	GoodResponse	0	n/a	n/a	3	48	Fixation	AvoidedLoss	True
461.822	0.24	Lose2	0.6735	0.004	Yes	3.024	-0.004	2.0	GoodResponse	0	0.18	461.002	3	48	Target	AvoidedLoss	True
462.002	0.3	Lose2	0.6735	0.004	Yes	3.024	-0.004	2.0	GoodResponse	0	0.18	n/a	3	48	ButtonPress	AvoidedLoss	True
462.073	0.46	Lose2	0.6735	n/a	Yes	3.024	n/a	n/a	GoodResponse	0	n/a	n/a	3	48	Blank	AvoidedLoss	True
462.524	1.45	Lose2	0.6735	n/a	Yes	3.024	n/a	5.0	GoodResponse	0	0.036	461.56	3	48	Feedback	AvoidedLoss	True
463.979	3.024	Lose2	0.6735	n/a	Yes	3.024	n/a	n/a	GoodResponse	0	0.0	n/a	3	48	ISIslide	AvoidedLoss	True
467.021	0.25	Control	0.68	0.0	Yes	2.879	0.021	n/a	GoodResponse	0	n/a	n/a	3	49	Cue	Neutral	True
467.272	4.0	Control	0.68	0.0	Yes	2.879	0.001	n/a	GoodResponse	0	n/a	n/a	3	49	Fixation	Neutral	True
471.267	0.23	Control	0.68	0.004	Yes	2.879	-0.004	2.0	GoodResponse	0	0.186	470.453	3	49	Target	Neutral	True
471.453	0.3	Control	0.68	0.004	Yes	2.879	-0.004	2.0	GoodResponse	0	0.186	n/a	3	49	ButtonPress	Neutral	True
471.501	0.47	Control	0.68	n/a	Yes	2.879	n/a	n/a	GoodResponse	0	n/a	n/a	3	49	Blank	Neutral	True
471.969	1.45	Control	0.68	n/a	Yes	2.879	n/a	5.0	GoodResponse	0	0.008	470.977	3	49	Feedback	Neutral	True
473.424	2.879	Control	0.68	n/a	Yes	2.879	n/a	n/a	GoodResponse	0	0.0	n/a	3	49	ISIslide	Neutral	True
476.316	0.25	Control	0.6862999999999999	0.0	Yes	2.784	0.016	n/a	GoodResponse	0	n/a	n/a	3	50	Cue	Neutral	True
476.566	4.0	Control	0.6862999999999999	0.0	Yes	2.784	0.0	n/a	GoodResponse	0	n/a	n/a	3	50	Fixation	Neutral	True
480.562	0.22	Control	0.6862999999999999	0.004	Yes	2.784	-0.004	2.0	GoodResponse	0	0.171	479.733	3	50	Target	Neutral	True
480.733	0.3	Control	0.6862999999999999	0.004	Yes	2.784	-0.004	2.0	GoodResponse	0	0.171	n/a	3	50	ButtonPress	Neutral	True
480.796	0.48	Control	0.6862999999999999	n/a	Yes	2.784	n/a	n/a	GoodResponse	0	n/a	n/a	3	50	Blank	Neutral	True
481.264	1.45	Control	0.6862999999999999	n/a	Yes	2.784	n/a	5.0	GoodResponse	0	0.027	480.291	3	50	Feedback	Neutral	True
482.718	2.784	Control	0.6862999999999999	n/a	Yes	2.784	n/a	n/a	GoodResponse	0	0.0	n/a	3	50	ISIslide	Neutral	True
485.527	0.25	Control	0.6923	0.0	Yes	2.723	0.027	n/a	GoodResponse	0	n/a	n/a	3	51	Cue	Neutral	True
485.777	3.95	Control	0.6923	0.0	Yes	2.723	0.0	n/a	GoodResponse	0	n/a	n/a	3	51	Fixation	Neutral	True
489.723	0.21	Control	0.6923	0.004	Yes	2.723	-0.004	2.0	GoodResponse	0	0.185	488.908	3	51	Target	Neutral	True
489.908	0.3	Control	0.6923	0.004	Yes	2.723	-0.004	2.0	GoodResponse	0	0.185	n/a	3	51	ButtonPress	Neutral	True
489.94	0.49	Control	0.6923	n/a	Yes	2.723	n/a	n/a	GoodResponse	0	n/a	n/a	3	51	Blank	Neutral	True
490.425	1.45	Control	0.6923	n/a	Yes	2.723	n/a	5.0	GoodResponse	0	0.037	489.462	3	51	Feedback	Neutral	True
491.879	2.723	Control	0.6923	n/a	Yes	2.723	n/a	n/a	GoodResponse	0	0.0	n/a	3	51	ISIslide	Neutral	True
494.621	0.25	Control	0.6981	0.0	Yes	2.629	0.021	n/a	GoodResponse	0	n/a	n/a	3	52	Cue	Neutral	True
494.871	4.05	Control	0.6981	0.0	Yes	2.629	0.0	n/a	GoodResponse	0	n/a	n/a	3	52	Fixation	Neutral	True
498.917	0.2	Control	0.6981	0.004	Yes	2.629	-0.004	2.0	GoodResponse	0	0.178	498.095	3	52	Target	Neutral	True
499.095	0.3	Control	0.6981	0.004	Yes	2.629	-0.004	2.0	GoodResponse	0	0.178	n/a	3	52	ButtonPress	Neutral	True
499.117	0.5	Control	0.6981	n/a	Yes	2.629	n/a	n/a	GoodResponse	0	n/a	n/a	3	52	Blank	Neutral	True
499.619	1.45	Control	0.6981	n/a	Yes	2.629	n/a	5.0	GoodResponse	0	0.013	498.632	3	52	Feedback	Neutral	True
501.073	2.629	Control	0.6981	n/a	Yes	2.629	n/a	n/a	GoodResponse	0	0.0	n/a	3	52	ISIslide	Neutral	True
503.731	0.25	Win2	0.7037	0.0	Yes	2.919	0.031	n/a	GoodResponse	1	n/a	n/a	4	53	Cue	Win	True
503.982	4.05	Win2	0.7037	0.0	Yes	2.919	0.001	n/a	GoodResponse	1	n/a	n/a	4	53	Fixation	Win	True
508.027	0.19	Win2	0.7037	0.004	Yes	2.919	-0.004	2.0	GoodResponse	1	0.179	507.206	4	53	Target	Win	True
508.206	0.3	Win2	0.7037	0.004	Yes	2.919	-0.004	2.0	GoodResponse	1	0.179	n/a	4	53	ButtonPress	Win	True
508.228	0.51	Win2	0.7037	n/a	Yes	2.919	n/a	n/a	GoodResponse	1	n/a	n/a	4	53	Blank	Win	True
508.73	1.45	Win2	0.7037	n/a	Yes	2.919	n/a	5.0	GoodResponse	1	0.024	507.754	4	53	Feedback	Win	True
510.184	2.919	Win2	0.7037	n/a	Yes	2.919	n/a	n/a	GoodResponse	1	0.0	n/a	4	53	ISIslide	Win	True
513.126	0.25	Win2	0.6909000000000001	0.0	No	2.724	0.026	n/a	NoResponse	0	n/a	n/a	4	54	Cue	MissedWin	True
513.377	3.95	Win2	0.6909000000000001	0.0	No	2.724	0.001	2.0	NoResponse	0	3.912	516.289	4	54	Fixation	MissedWin	True
517.289	0.3	Win2	0.6909000000000001	0.0	No	2.724	0.001	2.0	NoResponse	0	3.912	n/a	4	54	ButtonPress	MissedWin	True
517.322	0.18	Win2	0.6909000000000001	0.004	No	2.724	-0.004	n/a	NoResponse	0	n/a	n/a	4	54	Target	MissedWin	True
517.506	0.52	Win2	0.6909000000000001	n/a	No	2.724	n/a	n/a	NoResponse	0	n/a	n/a	4	54	Blank	MissedWin	True
518.024	1.45	Win2	0.6909000000000001	n/a	No	2.724	n/a	5.0	NoResponse	0	0.048	517.072	4	54	Feedback	MissedWin	True
519.478	2.724	Win2	0.6909000000000001	n/a	No	2.724	n/a	n/a	NoResponse	0	0.0	n/a	4	54	ISIslide	MissedWin	True
522.22	0.25	Control	0.6964	0.0	Yes	3.03	0.02	n/a	GoodResponse	0	n/a	n/a	4	55	Cue	Neutral	True
522.471	3.95	Control	0.6964	0.0	Yes	3.03	0.001	n/a	GoodResponse	0	n/a	n/a	4	55	Fixation	Neutral	True
526.416	0.17	Control	0.6964	0.004	Yes	3.03	-0.004	2.0	GoodResponse	0	0.166	525.582	4	55	Target	Neutral	True
526.582	0.3	Control	0.6964	0.004	Yes	3.03	-0.004	2.0	GoodResponse	0	0.166	n/a	4	55	ButtonPress	Neutral	True
526.6	0.53	Control	0.6964	n/a	Yes	3.03	n/a	n/a	GoodResponse	0	n/a	n/a	4	55	Blank	Neutral	True
527.118	1.45	Control	0.6964	n/a	Yes	3.03	n/a	5.0	GoodResponse	0	0.027	526.145	4	55	Feedback	Neutral	True
528.572	3.03	Control	0.6964	n/a	Yes	3.03	n/a	n/a	GoodResponse	0	0.0	n/a	4	55	ISIslide	Neutral	True
531.615	0.25	Control	0.6842	0.0	No	2.835	0.015	n/a	NoResponse	0	n/a	n/a	4	56	Cue	Neutral	True
531.866	3.95	Control	0.6842	0.0	No	2.835	0.001	n/a	NoResponse	0	n/a	n/a	4	56	Fixation	Neutral	True
535.811	0.16	Control	0.6842	0.004	No	2.835	-0.004	2.0	NoResponse	0	0.194	535.005	4	56	Target	Neutral	True
535.978	0.54	Control	0.6842	n/a	No	2.835	n/a	n/a	NoResponse	0	n/a	n/a	4	56	Blank	Neutral	True
536.005	0.3	Control	0.6842	0.004	No	2.835	-0.004	2.0	NoResponse	0	0.194	n/a	4	56	ButtonPress	Neutral	True
536.513	1.45	Control	0.6842	n/a	No	2.835	n/a	5.0	NoResponse	0	0.047	535.56	4	56	Feedback	Neutral	True
537.967	2.835	Control	0.6842	n/a	No	2.835	n/a	n/a	NoResponse	0	0.0	n/a	4	56	ISIslide	Neutral	True
540.826	0.25	Control	0.6724	0.0	No	3.474	0.026	n/a	LatePress	0	n/a	n/a	4	57	Cue	Neutral	True
541.077	4.0	Control	0.6724	0.0	No	3.474	0.001	n/a	LatePress	0	n/a	n/a	4	57	Fixation	Neutral	True
545.072	0.15	Control	0.6724	0.004	No	3.474	-0.004	2.0	LatePress	0	0.153	544.225	4	57	Target	Neutral	True
545.222	0.55	Control	0.6724	n/a	No	3.474	n/a	n/a	LatePress	0	n/a	n/a	4	57	Blank	Neutral	True
545.225	0.3	Control	0.6724	0.004	No	3.474	-0.004	2.0	LatePress	0	0.153	n/a	4	57	ButtonPress	Neutral	True
545.774	1.45	Control	0.6724	n/a	No	3.474	n/a	5.0	LatePress	0	0.008	544.782	4	57	Feedback	Neutral	True
547.228	3.474	Control	0.6724	n/a	No	3.474	n/a	n/a	LatePress	0	0.0	n/a	4	57	ISIslide	Neutral	True
550.722	0.25	Win2	0.6609999999999999	0.0	No	2.728	0.022	n/a	NoResponse	0	n/a	n/a	4	58	Cue	MissedWin	True
550.973	4.05	Win2	0.6609999999999999	0.0	No	2.728	0.001	n/a	NoResponse	0	n/a	n/a	4	58	Fixation	MissedWin	True
555.018	0.15	Win2	0.6609999999999999	0.004	No	2.728	-0.004	2.0	NoResponse	0	0.178	554.196	4	58	Target	MissedWin	True
555.169	0.55	Win2	0.6609999999999999	n/a	No	2.728	n/a	n/a	NoResponse	0	n/a	n/a	4	58	Blank	MissedWin	True
555.196	0.3	Win2	0.6609999999999999	0.004	No	2.728	-0.004	2.0	NoResponse	0	0.178	n/a	4	58	ButtonPress	MissedWin	True
555.721	1.45	Win2	0.6609999999999999	n/a	No	2.728	n/a	5.0	NoResponse	0	0.009	554.73	4	58	Feedback	MissedWin	True
557.175	2.728	Win2	0.6609999999999999	n/a	No	2.728	n/a	n/a	NoResponse	0	0.0	n/a	4	58	ISIslide	MissedWin	True
559.916	0.25	Lose2	0.65	0.001	No	2.684	0.016	n/a	NoResponse	-1	n/a	n/a	3	59	Cue	Loss	True
560.167	4.0	Lose2	0.65	0.0	No	2.684	0.001	n/a	NoResponse	-1	n/a	n/a	3	59	Fixation	Loss	True
564.163	0.15	Lose2	0.65	0.003	No	2.684	-0.003	2.0	NoResponse	-1	0.175	563.338	3	59	Target	Loss	True
564.313	0.55	Lose2	0.65	n/a	No	2.684	n/a	n/a	NoResponse	-1	n/a	n/a	3	59	Blank	Loss	True
564.338	0.3	Lose2	0.65	0.003	No	2.684	-0.003	2.0	NoResponse	-1	0.175	n/a	3	59	ButtonPress	Loss	True
564.865	1.45	Lose2	0.65	n/a	No	2.684	n/a	5.0	NoResponse	-1	0.035	563.9	3	59	Feedback	Loss	True
566.319	2.684	Lose2	0.65	n/a	No	2.684	n/a	n/a	NoResponse	-1	0.0	n/a	3	59	ISIslide	Loss	True
569.027	0.25	Control	0.6393	0.0	No	2.673	0.027	n/a	NoResponse	0	n/a	n/a	3	60	Cue	Neutral	False
569.278	4.0	Control	0.6393	0.0	No	2.673	0.001	2.0	NoResponse	0	3.794	572.072	3	60	Fixation	Neutral	False
573.072	0.3	Control	0.6393	0.0	No	2.673	0.001	2.0	NoResponse	0	3.794	n/a	3	60	ButtonPress	Neutral	False
573.273	0.16	Control	0.6393	0.004	No	2.673	-0.004	2.0	NoResponse	0	0.22	572.493	3	60	Target	Neutral	False
573.44	0.54	Control	0.6393	n/a	No	2.673	n/a	n/a	NoResponse	0	n/a	n/a	3	60	Blank	Neutral	False
573.493	0.3	Control	0.6393	0.004	No	2.673	-0.004	2.0	NoResponse	0	0.22	n/a	3	60	ButtonPress	Neutral	False
573.975	1.45	Control	0.6393	n/a	No	2.673	n/a	5.0	NoResponse	0	0.047	573.022	3	60	Feedback	Neutral	False
575.43	2.673	Control	0.6393	n/a	No	2.673	n/a	n/a	NoResponse	0	0.0	n/a	3	60	ISIslide	Neutral	False
578.121	0.25	Lose2	0.6452	0.0	Yes	2.979	0.021	n/a	GoodResponse	0	n/a	n/a	3	61	Cue	AvoidedLoss	False
578.372	4.0	Lose2	0.6452	0.0	Yes	2.979	0.001	2.0	GoodResponse	0	0.91	578.282	3	61	Fixation	AvoidedLoss	False
579.282	0.3	Lose2	0.6452	0.0	Yes	2.979	0.001	2.0	GoodResponse	0	0.91	n/a	3	61	ButtonPress	AvoidedLoss	False
582.367	0.17	Lose2	0.6452	0.004	Yes	2.979	-0.004	2.0	GoodResponse	0	0.116	581.483	3	61	Target	AvoidedLoss	False
582.483	0.3	Lose2	0.6452	0.004	Yes	2.979	-0.004	2.0	GoodResponse	0	0.116	n/a	3	61	ButtonPress	AvoidedLoss	False
582.551	0.53	Lose2	0.6452	n/a	Yes	2.979	n/a	n/a	GoodResponse	0	n/a	n/a	3	61	Blank	AvoidedLoss	False
583.069	1.45	Lose2	0.6452	n/a	Yes	2.979	n/a	5.0	GoodResponse	0	0.027	582.096	3	61	Feedback	AvoidedLoss	False
584.524	2.979	Lose2	0.6452	n/a	Yes	2.979	n/a	n/a	GoodResponse	0	0.0	n/a	3	61	ISIslide	AvoidedLoss	False
587.516	0.25	Lose2	0.6507999999999999	0.0	Yes	2.884	0.016	n/a	GoodResponse	0	n/a	n/a	3	62	Cue	AvoidedLoss	False
587.767	3.9	Lose2	0.6507999999999999	0.0	Yes	2.884	0.001	2.0	GoodResponse	0	3.879	590.646	3	62	Fixation	AvoidedLoss	False
591.646	0.3	Lose2	0.6507999999999999	0.0	Yes	2.884	0.001	2.0	GoodResponse	0	3.879	n/a	3	62	ButtonPress	AvoidedLoss	False
591.662	0.18	Lose2	0.6507999999999999	0.004	Yes	2.884	-0.004	2.0	GoodResponse	0	0.168	590.83	3	62	Target	AvoidedLoss	False
591.83	0.3	Lose2	0.6507999999999999	0.004	Yes	2.884	-0.004	2.0	GoodResponse	0	0.168	n/a	3	62	ButtonPress	AvoidedLoss	False
591.846	0.52	Lose2	0.6507999999999999	n/a	Yes	2.884	n/a	n/a	GoodResponse	0	n/a	n/a	3	62	Blank	AvoidedLoss	False
592.364	1.45	Lose2	0.6507999999999999	n/a	Yes	2.884	n/a	5.0	GoodResponse	0	0.0	591.364	3	62	Feedback	AvoidedLoss	False
593.818	2.884	Lose2	0.6507999999999999	n/a	Yes	2.884	n/a	n/a	GoodResponse	0	0.0	n/a	3	62	ISIslide	AvoidedLoss	False
596.727	0.25	Lose2	0.6562	0.0	Yes	2.623	0.027	n/a	GoodResponse	0	n/a	n/a	3	63	Cue	AvoidedLoss	False
596.978	4.05	Lose2	0.6562	0.0	Yes	2.623	0.001	2.0	GoodResponse	0	1.572	597.55	3	63	Fixation	AvoidedLoss	False
598.55	0.3	Lose2	0.6562	0.0	Yes	2.623	0.001	2.0	GoodResponse	0	1.572	n/a	3	63	ButtonPress	AvoidedLoss	False
601.023	0.19	Lose2	0.6562	0.004	Yes	2.623	-0.004	2.0	GoodResponse	0	0.146	600.169	3	63	Target	AvoidedLoss	False
601.169	0.3	Lose2	0.6562	0.004	Yes	2.623	-0.004	2.0	GoodResponse	0	0.146	n/a	3	63	ButtonPress	AvoidedLoss	False
601.224	0.51	Lose2	0.6562	n/a	Yes	2.623	n/a	n/a	GoodResponse	0	n/a	n/a	3	63	Blank	AvoidedLoss	False
601.725	1.45	Lose2	0.6562	n/a	Yes	2.623	n/a	5.0	GoodResponse	0	0.008	600.733	3	63	Feedback	AvoidedLoss	False
603.18	2.623	Lose2	0.6562	n/a	Yes	2.623	n/a	n/a	GoodResponse	0	0.0	n/a	3	63	ISIslide	AvoidedLoss	False
605.821	0.25	Win2	0.6462	0.0	No	3.129	0.021	n/a	NoResponse	0	n/a	n/a	3	64	Cue	MissedWin	True
606.072	4.15	Win2	0.6462	0.0	No	3.129	0.001	2.0	NoResponse	0	2.557	607.629	3	64	Fixation	MissedWin	True
608.629	0.3	Win2	0.6462	0.0	No	3.129	0.001	2.0	NoResponse	0	2.557	n/a	3	64	ButtonPress	MissedWin	True
610.217	0.19	Win2	0.6462	0.004	No	3.129	-0.004	n/a	NoResponse	0	n/a	n/a	3	64	Target	MissedWin	True
610.418	0.51	Win2	0.6462	n/a	No	3.129	n/a	n/a	NoResponse	0	n/a	n/a	3	64	Blank	MissedWin	True
610.919	1.45	Win2	0.6462	n/a	No	3.129	n/a	5.0	NoResponse	0	0.031	609.95	3	64	Feedback	MissedWin	True
612.374	3.129	Win2	0.6462	n/a	No	3.129	n/a	n/a	NoResponse	0	0.0	n/a	3	64	ISIslide	MissedWin	True
615.517	0.25	Control	0.6515000000000001	0.0	Yes	2.783	0.017	n/a	GoodResponse	0	n/a	n/a	3	65	Cue	Neutral	True
615.767	4.0	Control	0.6515000000000001	0.0	Yes	2.783	0.0	n/a	GoodResponse	0	n/a	n/a	3	65	Fixation	Neutral	True
619.763	0.2	Control	0.6515000000000001	0.004	Yes	2.783	-0.004	2.0	GoodResponse	0	0.174	618.937	3	65	Target	Neutral	True
619.937	0.3	Control	0.6515000000000001	0.004	Yes	2.783	-0.004	2.0	GoodResponse	0	0.174	n/a	3	65	ButtonPress	Neutral	True
619.963	0.5	Control	0.6515000000000001	n/a	Yes	2.783	n/a	n/a	GoodResponse	0	n/a	n/a	3	65	Blank	Neutral	True
620.465	1.45	Control	0.6515000000000001	n/a	Yes	2.783	n/a	5.0	GoodResponse	0	0.046	619.511	3	65	Feedback	Neutral	True
621.919	2.783	Control	0.6515000000000001	n/a	Yes	2.783	n/a	n/a	GoodResponse	0	0.0	n/a	3	65	ISIslide	Neutral	True
624.728	0.25	Win2	0.6567000000000001	0.0	Yes	2.772	0.028	n/a	GoodResponse	1	n/a	n/a	4	66	Cue	Win	False
624.978	3.9	Win2	0.6567000000000001	0.0	Yes	2.772	0.0	2.0	GoodResponse	1	3.869	627.847	4	66	Fixation	Win	False
628.847	0.3	Win2	0.6567000000000001	0.0	Yes	2.772	0.0	2.0	GoodResponse	1	3.869	n/a	4	66	ButtonPress	Win	False
628.89	0.21	Win2	0.6567000000000001	0.0	Yes	2.772	0.012	2.0	GoodResponse	1	0.138	628.028	4	66	Target	Win	False
629.028	0.3	Win2	0.6567000000000001	0.0	Yes	2.772	0.012	2.0	GoodResponse	1	0.138	n/a	4	66	ButtonPress	Win	False
629.091	0.49	Win2	0.6567000000000001	n/a	Yes	2.772	n/a	n/a	GoodResponse	1	n/a	n/a	4	66	Blank	Win	False
629.575	1.45	Win2	0.6567000000000001	n/a	Yes	2.772	n/a	5.0	GoodResponse	1	0.009	628.584	4	66	Feedback	Win	False
631.03	2.772	Win2	0.6567000000000001	n/a	Yes	2.772	n/a	n/a	GoodResponse	1	0.0	n/a	4	66	ISIslide	Win	False
633.821	0.25	Control	0.6470999999999999	0.001	No	2.729	0.021	n/a	NoResponse	0	n/a	n/a	4	67	Cue	Neutral	True
634.072	3.95	Control	0.6470999999999999	0.0	No	2.729	0.001	n/a	NoResponse	0	n/a	n/a	4	67	Fixation	Neutral	True
638.017	0.21	Control	0.6470999999999999	0.004	No	2.729	-0.004	2.0	NoResponse	0	0.249	637.266	4	67	Target	Neutral	True
638.235	0.49	Control	0.6470999999999999	n/a	No	2.729	n/a	n/a	NoResponse	0	n/a	n/a	4	67	Blank	Neutral	True
638.266	0.3	Control	0.6470999999999999	0.004	No	2.729	-0.004	2.0	NoResponse	0	0.249	n/a	4	67	ButtonPress	Neutral	True
638.719	1.45	Control	0.6470999999999999	n/a	No	2.729	n/a	5.0	NoResponse	0	0.035	637.754	4	67	Feedback	Neutral	True
640.174	2.729	Control	0.6470999999999999	n/a	No	2.729	n/a	n/a	NoResponse	0	0.0	n/a	4	67	ISIslide	Neutral	True
642.915	0.25	Win2	0.6522	0.0	Yes	3.085	0.015	n/a	GoodResponse	1	n/a	n/a	5	68	Cue	Win	False
643.166	4.0	Win2	0.6522	0.0	Yes	3.085	0.001	2.0	GoodResponse	1	2.879	645.045	5	68	Fixation	Win	False
646.045	0.3	Win2	0.6522	0.0	Yes	3.085	0.001	2.0	GoodResponse	1	2.879	n/a	5	68	ButtonPress	Win	False
647.161	0.22	Win2	0.6522	0.004	Yes	3.085	-0.004	2.0	GoodResponse	1	0.108	646.269	5	68	Target	Win	False
647.269	0.3	Win2	0.6522	0.004	Yes	3.085	-0.004	2.0	GoodResponse	1	0.108	n/a	5	68	ButtonPress	Win	False
647.396	0.48	Win2	0.6522	n/a	Yes	3.085	n/a	n/a	GoodResponse	1	n/a	n/a	5	68	Blank	Win	False
647.864	1.45	Win2	0.6522	n/a	Yes	3.085	n/a	5.0	GoodResponse	1	0.012	646.876	5	68	Feedback	Win	False
649.318	3.085	Win2	0.6522	n/a	Yes	3.085	n/a	n/a	GoodResponse	1	0.0	n/a	5	68	ISIslide	Win	False
652.427	0.25	Win2	0.6429	0.0	No	3.223	0.027	n/a	PrematurePress	0	n/a	n/a	5	69	Cue	MissedWin	False
652.678	3.95	Win2	0.6429	0.0	No	3.223	0.001	2.0	PrematurePress	0	1.152	652.83	5	69	Fixation	MissedWin	False
653.83	0.3	Win2	0.6429	0.0	No	3.223	0.001	2.0	PrematurePress	0	1.152	n/a	5	69	ButtonPress	MissedWin	False
656.623	0.23	Win2	0.6429	0.004	No	3.223	-0.004	2.0	PrematurePress	0	0.096	655.719	5	69	Target	MissedWin	False
656.719	0.3	Win2	0.6429	0.004	No	3.223	-0.004	2.0	PrematurePress	0	0.096	n/a	5	69	ButtonPress	MissedWin	False
656.857	0.47	Win2	0.6429	n/a	No	3.223	n/a	n/a	PrematurePress	0	n/a	n/a	5	69	Blank	MissedWin	False
657.325	1.45	Win2	0.6429	n/a	No	3.223	n/a	5.0	PrematurePress	0	0.014	656.339	5	69	Feedback	MissedWin	False
658.78	3.223	Win2	0.6429	n/a	No	3.223	n/a	n/a	PrematurePress	0	0.0	n/a	5	69	ISIslide	MissedWin	False
662.023	0.25	Lose2	0.6479	0.0	Yes	3.027	0.023	n/a	GoodResponse	0	n/a	n/a	5	70	Cue	AvoidedLoss	False
662.273	4.05	Lose2	0.6479	0.001	Yes	3.027	0.0	2.0	GoodResponse	0	2.962	664.235	5	70	Fixation	AvoidedLoss	False
665.235	0.3	Lose2	0.6479	0.001	Yes	3.027	0.0	2.0	GoodResponse	0	2.962	n/a	5	70	ButtonPress	AvoidedLoss	False
666.319	0.24	Lose2	0.6479	0.004	Yes	3.027	-0.004	2.0	GoodResponse	0	0.155	665.474	5	70	Target	AvoidedLoss	False
666.474	0.3	Lose2	0.6479	0.004	Yes	3.027	-0.004	2.0	GoodResponse	0	0.155	n/a	5	70	ButtonPress	AvoidedLoss	False
666.57	0.46	Lose2	0.6479	n/a	Yes	3.027	n/a	n/a	GoodResponse	0	n/a	n/a	5	70	Blank	AvoidedLoss	False
667.021	1.45	Lose2	0.6479	n/a	Yes	3.027	n/a	5.0	GoodResponse	0	0.026	666.047	5	70	Feedback	AvoidedLoss	False
668.475	3.027	Lose2	0.6479	n/a	Yes	3.027	n/a	n/a	GoodResponse	0	0.0	n/a	5	70	ISIslide	AvoidedLoss	False
671.518	0.25	Win2	0.6389	0.0	No	2.732	0.018	n/a	PrematurePress	0	n/a	n/a	5	71	Cue	MissedWin	False
671.769	4.05	Win2	0.6389	0.0	No	2.732	0.001	2.0	PrematurePress	0	3.248	674.017	5	71	Fixation	MissedWin	False
675.017	0.3	Win2	0.6389	0.0	No	2.732	0.001	2.0	PrematurePress	0	3.248	n/a	5	71	ButtonPress	MissedWin	False
675.814	0.25	Win2	0.6389	0.004	No	2.732	-0.004	2.0	PrematurePress	0	0.091	674.905	5	71	Target	MissedWin	False
675.905	0.3	Win2	0.6389	0.004	No	2.732	-0.004	2.0	PrematurePress	0	0.091	n/a	5	71	ButtonPress	MissedWin	False
676.065	0.45	Win2	0.6389	n/a	No	2.732	n/a	n/a	PrematurePress	0	n/a	n/a	5	71	Blank	MissedWin	False
676.516	1.45	Win2	0.6389	n/a	No	2.732	n/a	5.0	PrematurePress	0	0.043	675.559	5	71	Feedback	MissedWin	False
677.971	2.732	Win2	0.6389	n/a	No	2.732	n/a	n/a	PrematurePress	0	0.0	n/a	5	71	ISIslide	MissedWin	False
680.729	0.25	Win2	0.6301	0.0	No	2.771	0.029	n/a	NoResponse	0	n/a	n/a	5	72	Cue	MissedWin	True
680.98	4.1	Win2	0.6301	0.0	No	2.771	0.001	n/a	NoResponse	0	n/a	n/a	5	72	Fixation	MissedWin	True
685.075	0.26	Win2	0.6301	0.004	No	2.771	-0.004	2.0	NoResponse	0	0.269	684.344	5	72	Target	MissedWin	True
685.343	0.44	Win2	0.6301	n/a	No	2.771	n/a	n/a	NoResponse	0	n/a	n/a	5	72	Blank	MissedWin	True
685.344	0.3	Win2	0.6301	0.004	No	2.771	-0.004	2.0	NoResponse	0	0.269	n/a	5	72	ButtonPress	MissedWin	True
685.777	1.45	Win2	0.6301	n/a	No	2.771	n/a	5.0	NoResponse	0	0.002	684.779	5	72	Feedback	MissedWin	True
687.232	2.771	Win2	0.6301	n/a	No	2.771	n/a	n/a	NoResponse	0	0.0	n/a	5	72	ISIslide	MissedWin	True
690.023	0.25	Win2	0.6351	0.001	Yes	2.677	0.023	n/a	GoodResponse	1	n/a	n/a	6	73	Cue	Win	False
690.274	4.0	Win2	0.6351	0.0	Yes	2.677	0.001	2.0	GoodResponse	1	3.501	692.775	6	73	Fixation	Win	False
693.775	0.3	Win2	0.6351	0.0	Yes	2.677	0.001	2.0	GoodResponse	1	3.501	n/a	6	73	ButtonPress	Win	False
694.269	0.27	Win2	0.6351	0.004	Yes	2.677	-0.004	2.0	GoodResponse	1	0.141	693.41	6	73	Target	Win	False
694.41	0.3	Win2	0.6351	0.004	Yes	2.677	-0.004	2.0	GoodResponse	1	0.141	n/a	6	73	ButtonPress	Win	False
694.554	0.43	Win2	0.6351	n/a	Yes	2.677	n/a	n/a	GoodResponse	1	n/a	n/a	6	73	Blank	Win	False
694.972	1.45	Win2	0.6351	n/a	Yes	2.677	n/a	5.0	GoodResponse	1	0.026	693.998	6	73	Feedback	Win	False
696.426	2.677	Win2	0.6351	n/a	Yes	2.677	n/a	n/a	GoodResponse	1	0.0	n/a	6	73	ISIslide	Win	False
699.117	0.25	Lose2	0.6267	0.0	No	2.633	0.017	n/a	NoResponse	-1	n/a	n/a	5	74	Cue	Loss	False
699.368	4.05	Lose2	0.6267	0.0	No	2.633	0.001	2.0	NoResponse	-1	3.944	702.312	5	74	Fixation	Loss	False
703.312	0.3	Lose2	0.6267	0.0	No	2.633	0.001	2.0	NoResponse	-1	3.944	n/a	5	74	ButtonPress	Loss	False
703.414	0.28	Lose2	0.6267	0.003	No	2.633	-0.003	2.0	NoResponse	-1	0.385	702.799	5	74	Target	Loss	False
703.698	0.42	Lose2	0.6267	n/a	No	2.633	n/a	n/a	NoResponse	-1	n/a	n/a	5	74	Blank	Loss	False
703.799	0.3	Lose2	0.6267	0.003	No	2.633	-0.003	2.0	NoResponse	-1	0.385	n/a	5	74	ButtonPress	Loss	False
704.116	1.45	Lose2	0.6267	n/a	No	2.633	n/a	5.0	NoResponse	-1	0.007	703.123	5	74	Feedback	Loss	False
705.57	2.633	Lose2	0.6267	n/a	No	2.633	n/a	n/a	NoResponse	-1	0.0	n/a	5	74	ISIslide	Loss	False
708.228	0.25	Lose2	0.6315999999999999	0.0	Yes	2.922	0.028	n/a	GoodResponse	0	n/a	n/a	5	75	Cue	AvoidedLoss	True
708.479	3.95	Lose2	0.6315999999999999	0.0	Yes	2.922	0.001	n/a	GoodResponse	0	n/a	n/a	5	75	Fixation	AvoidedLoss	True
712.424	0.29	Lose2	0.6315999999999999	0.004	Yes	2.922	-0.004	2.0	GoodResponse	0	0.173	711.597	5	75	Target	AvoidedLoss	True
712.597	0.3	Lose2	0.6315999999999999	0.004	Yes	2.922	-0.004	2.0	GoodResponse	0	0.173	n/a	5	75	ButtonPress	AvoidedLoss	True
712.725	0.41	Lose2	0.6315999999999999	n/a	Yes	2.922	n/a	n/a	GoodResponse	0	n/a	n/a	5	75	Blank	AvoidedLoss	True
713.126	1.45	Lose2	0.6315999999999999	n/a	Yes	2.922	n/a	5.0	GoodResponse	0	0.018	712.144	5	75	Feedback	AvoidedLoss	True
714.58	2.922	Lose2	0.6315999999999999	n/a	Yes	2.922	n/a	n/a	GoodResponse	0	0.0	n/a	5	75	ISIslide	AvoidedLoss	True
717.523	0.25	Control	0.6364	0.0	Yes	3.227	0.023	n/a	GoodResponse	0	n/a	n/a	5	76	Cue	Neutral	True
717.773	4.05	Control	0.6364	0.0	Yes	3.227	0.0	n/a	GoodResponse	0	n/a	n/a	5	76	Fixation	Neutral	True
721.819	0.3	Control	0.6364	0.004	Yes	3.227	-0.004	2.0	GoodResponse	0	0.168	720.987	5	76	Target	Neutral	True
721.987	0.3	Control	0.6364	0.004	Yes	3.227	-0.004	2.0	GoodResponse	0	0.168	n/a	5	76	ButtonPress	Neutral	True
722.12	0.4	Control	0.6364	n/a	Yes	3.227	n/a	n/a	GoodResponse	0	n/a	n/a	5	76	Blank	Neutral	True
722.521	1.45	Control	0.6364	n/a	Yes	3.227	n/a	5.0	GoodResponse	0	0.038	721.559	5	76	Feedback	Neutral	True
723.975	3.227	Control	0.6364	n/a	Yes	3.227	n/a	n/a	GoodResponse	0	0.0	n/a	5	76	ISIslide	Neutral	True
727.218	0.25	Lose2	0.6409999999999999	0.0	Yes	2.582	0.018	n/a	GoodResponse	0	n/a	n/a	5	77	Cue	AvoidedLoss	True
727.469	3.95	Lose2	0.6409999999999999	0.0	Yes	2.582	0.001	n/a	GoodResponse	0	n/a	n/a	5	77	Fixation	AvoidedLoss	True
731.414	0.31	Lose2	0.6409999999999999	0.004	Yes	2.582	-0.004	2.0	GoodResponse	0	0.17	730.584	5	77	Target	AvoidedLoss	True
731.584	0.3	Lose2	0.6409999999999999	0.004	Yes	2.582	-0.004	2.0	GoodResponse	0	0.17	n/a	5	77	ButtonPress	AvoidedLoss	True
731.732	0.39	Lose2	0.6409999999999999	n/a	Yes	2.582	n/a	n/a	GoodResponse	0	n/a	n/a	5	77	Blank	AvoidedLoss	True
732.116	1.45	Lose2	0.6409999999999999	n/a	Yes	2.582	n/a	5.0	GoodResponse	0	0.008	731.124	5	77	Feedback	AvoidedLoss	True
733.571	2.582	Lose2	0.6409999999999999	n/a	Yes	2.582	n/a	n/a	GoodResponse	0	0.0	n/a	5	77	ISIslide	AvoidedLoss	True
