onset	duration	cue_type	current_mean_accuracy	duration_error	is_hit	isi_adjusted	onset_delay	response	response_type	reward	rt	rt_time	total_reward	trial_number	trial_phase	trial_type	one_press
11.109	0.25	Control	1.0	0.0	Yes	2.941	0.009	n/a	GoodResponse	0	n/a	n/a	0	0	Cue	Neutral	True
11.359	3.85	Control	1.0	0.0	Yes	2.941	0.0	n/a	GoodResponse	0	n/a	n/a	0	0	Fixation	Neutral	True
15.208	0.4	Control	1.0	0.001	Yes	2.941	-0.001	4.0	GoodResponse	0	0.318	14.526	0	0	Target	Neutral	True
15.526	0.3	Control	1.0	0.001	Yes	2.941	-0.001	4.0	GoodResponse	0	0.318	n/a	0	0	ButtonPress	Neutral	True
15.607	0.3	Control	1.0	n/a	Yes	2.941	n/a	n/a	GoodResponse	0	n/a	n/a	0	0	Blank	Neutral	True
15.907	1.45	Control	1.0	n/a	Yes	2.941	n/a	5.0	GoodResponse	0	0.022	14.929	0	0	Feedback	Neutral	True
17.357	2.941	Control	1.0	n/a	Yes	2.941	n/a	n/a	GoodResponse	0	0.0	n/a	0	0	ISIslide	Neutral	True
20.323	0.25	Lose2	1.0	0.0	Yes	2.777	0.023	n/a	GoodResponse	0	n/a	n/a	0	1	Cue	AvoidedLoss	True
20.572	4.0	Lose2	1.0	0.001	Yes	2.777	-0.001	n/a	GoodResponse	0	n/a	n/a	0	1	Fixation	AvoidedLoss	True
24.571	0.39	Lose2	1.0	0.002	Yes	2.777	-0.002	4.0	GoodResponse	0	0.237	23.808	0	1	Target	AvoidedLoss	True
24.808	0.3	Lose2	1.0	0.002	Yes	2.777	-0.002	4.0	GoodResponse	0	0.237	n/a	0	1	ButtonPress	AvoidedLoss	True
24.971	0.31	Lose2	1.0	n/a	Yes	2.777	n/a	n/a	GoodResponse	0	n/a	n/a	0	1	Blank	AvoidedLoss	True
25.271	1.45	Lose2	1.0	n/a	Yes	2.777	n/a	5.0	GoodResponse	0	0.024	24.295	0	1	Feedback	AvoidedLoss	True
26.72	2.777	Lose2	1.0	n/a	Yes	2.777	n/a	n/a	GoodResponse	0	0.0	n/a	0	1	ISIslide	AvoidedLoss	True
29.519	0.25	Control	1.0	0.0	Yes	2.581	0.019	n/a	GoodResponse	0	n/a	n/a	0	2	Cue	Neutral	False
29.769	4.1	Control	1.0	0.0	Yes	2.581	0.0	4.0	GoodResponse	0	3.912	32.681	0	2	Fixation	Neutral	False
33.681	0.3	Control	1.0	0.0	Yes	2.581	0.0	4.0	GoodResponse	0	3.912	n/a	0	2	ButtonPress	Neutral	False
33.868	0.38	Control	1.0	0.001	Yes	2.581	-0.001	4.0	GoodResponse	0	0.241	33.109	0	2	Target	Neutral	False
34.109	0.3	Control	1.0	0.001	Yes	2.581	-0.001	4.0	GoodResponse	0	0.241	n/a	0	2	ButtonPress	Neutral	False
34.251	0.32	Control	1.0	n/a	Yes	2.581	n/a	n/a	GoodResponse	0	n/a	n/a	0	2	Blank	Neutral	False
34.568	1.45	Control	1.0	n/a	Yes	2.581	n/a	5.0	GoodResponse	0	0.044	33.612	0	2	Feedback	Neutral	False
36.017	2.581	Control	1.0	n/a	Yes	2.581	n/a	n/a	GoodResponse	0	0.0	n/a	0	2	ISIslide	Neutral	False
38.616	0.25	Win2	1.0	0.0	Yes	2.834	0.016	n/a	GoodResponse	1	n/a	n/a	1	3	Cue	Win	True
38.866	3.95	Win2	1.0	0.0	Yes	2.834	0.0	n/a	GoodResponse	1	n/a	n/a	1	3	Fixation	Win	True
42.815	0.37	Win2	1.0	0.001	Yes	2.834	-0.001	4.0	GoodResponse	1	0.235	42.05	1	3	Target	Win	True
43.05	0.3	Win2	1.0	0.001	Yes	2.834	-0.001	4.0	GoodResponse	1	0.235	n/a	1	3	ButtonPress	Win	True
43.181	0.33	Win2	1.0	n/a	Yes	2.834	n/a	n/a	GoodResponse	1	n/a	n/a	1	3	Blank	Win	True
43.515	1.45	Win2	1.0	n/a	Yes	2.834	n/a	5.0	GoodResponse	1	0.024	42.539	1	3	Feedback	Win	True
44.964	2.834	Win2	1.0	n/a	Yes	2.834	n/a	n/a	GoodResponse	1	0.0	n/a	1	3	ISIslide	Win	True
47.813	0.25	Win2	1.0	0.0	Yes	3.287	0.013	n/a	GoodResponse	1	n/a	n/a	2	4	Cue	Win	True
48.063	4.0	Win2	1.0	0.0	Yes	3.287	0.0	n/a	GoodResponse	1	n/a	n/a	2	4	Fixation	Win	True
52.062	0.36	Win2	1.0	0.001	Yes	3.287	-0.001	4.0	GoodResponse	1	0.258	51.32	2	4	Target	Win	True
52.32	0.3	Win2	1.0	0.001	Yes	3.287	-0.001	4.0	GoodResponse	1	0.258	n/a	2	4	ButtonPress	Win	True
52.428	0.34	Win2	1.0	n/a	Yes	3.287	n/a	n/a	GoodResponse	1	n/a	n/a	2	4	Blank	Win	True
52.761	1.45	Win2	1.0	n/a	Yes	3.287	n/a	5.0	GoodResponse	1	0.047	51.808	2	4	Feedback	Win	True
54.211	3.287	Win2	1.0	n/a	Yes	3.287	n/a	n/a	GoodResponse	1	0.0	n/a	2	4	ISIslide	Win	True
57.526	0.25	Win2	1.0	0.001	Yes	2.774	0.026	n/a	GoodResponse	1	n/a	n/a	3	5	Cue	Win	True
57.776	4.0	Win2	1.0	0.0	Yes	2.774	0.0	n/a	GoodResponse	1	n/a	n/a	3	5	Fixation	Win	True
61.775	0.35	Win2	1.0	0.001	Yes	2.774	-0.001	4.0	GoodResponse	1	0.244	61.019	3	5	Target	Win	True
62.019	0.3	Win2	1.0	0.001	Yes	2.774	-0.001	4.0	GoodResponse	1	0.244	n/a	3	5	ButtonPress	Win	True
62.125	0.35	Win2	1.0	n/a	Yes	2.774	n/a	n/a	GoodResponse	1	n/a	n/a	3	5	Blank	Win	True
62.475	1.45	Win2	1.0	n/a	Yes	2.774	n/a	5.0	GoodResponse	1	0.04	61.515	3	5	Feedback	Win	True
63.924	2.774	Win2	1.0	n/a	Yes	2.774	n/a	n/a	GoodResponse	1	0.0	n/a	3	5	ISIslide	Win	True
66.723	0.25	Lose2	1.0	0.0	Yes	2.727	0.023	n/a	GoodResponse	0	n/a	n/a	3	6	Cue	AvoidedLoss	True
66.973	3.95	Lose2	1.0	0.0	Yes	2.727	0.0	n/a	GoodResponse	0	n/a	n/a	3	6	Fixation	AvoidedLoss	True
70.922	0.34	Lose2	1.0	0.001	Yes	2.727	-0.001	4.0	GoodResponse	0	0.237	70.159	3	6	Target	AvoidedLoss	True
71.159	0.3	Lose2	1.0	0.001	Yes	2.727	-0.001	4.0	GoodResponse	0	0.237	n/a	3	6	ButtonPress	AvoidedLoss	True
71.272	0.36	Lose2	1.0	n/a	Yes	2.727	n/a	n/a	GoodResponse	0	n/a	n/a	3	6	Blank	AvoidedLoss	True
71.622	1.45	Lose2	1.0	n/a	Yes	2.727	n/a	5.0	GoodResponse	0	0.014	70.636	3	6	Feedback	AvoidedLoss	True
73.071	2.727	Lose2	1.0	n/a	Yes	2.727	n/a	n/a	GoodResponse	0	0.0	n/a	3	6	ISIslide	AvoidedLoss	True
75.82	0.25	Lose2	0.875	0.0	No	4.03	0.02	n/a	NoResponse	-1	n/a	n/a	2	7	Cue	Loss	False
76.07	4.05	Lose2	0.875	0.0	No	4.03	0.0	n/a	NoResponse	-1	n/a	n/a	2	7	Fixation	Loss	False
80.119	0.33	Lose2	0.875	0.001	No	4.03	-0.001	n/a	NoResponse	-1	n/a	n/a	2	7	Target	Loss	False
80.452	0.37	Lose2	0.875	n/a	No	4.03	n/a	n/a	NoResponse	-1	n/a	n/a	2	7	Blank	Loss	False
80.819	1.45	Lose2	0.875	n/a	No	4.03	n/a	5.0	NoResponse	-1	0.037	79.856	2	7	Feedback	Loss	False
82.268	4.03	Lose2	0.875	n/a	No	4.03	n/a	n/a	NoResponse	-1	0.0	n/a	2	7	ISIslide	Loss	False
86.317	0.25	Lose2	0.8889	0.0	Yes	3.033	0.017	n/a	GoodResponse	0	n/a	n/a	2	8	Cue	AvoidedLoss	True
86.567	3.95	Lose2	0.8889	0.0	Yes	3.033	0.0	n/a	GoodResponse	0	n/a	n/a	2	8	Fixation	AvoidedLoss	True
90.515	0.32	Lose2	0.8889	0.002	Yes	3.033	-0.002	4.0	GoodResponse	0	0.223	89.738	2	8	Target	AvoidedLoss	True
90.738	0.3	Lose2	0.8889	0.002	Yes	3.033	-0.002	4.0	GoodResponse	0	0.223	n/a	2	8	ButtonPress	AvoidedLoss	True
90.848	0.38	Lose2	0.8889	n/a	Yes	3.033	n/a	n/a	GoodResponse	0	n/a	n/a	2	8	Blank	AvoidedLoss	True
91.215	1.45	Lose2	0.8889	n/a	Yes	3.033	n/a	5.0	GoodResponse	0	0.031	90.246	2	8	Feedback	AvoidedLoss	True
92.664	3.033	Lose2	0.8889	n/a	Yes	3.033	n/a	n/a	GoodResponse	0	0.0	n/a	2	8	ISIslide	AvoidedLoss	True
95.713	0.25	Lose2	0.9	0.001	Yes	3.137	0.013	n/a	GoodResponse	0	n/a	n/a	2	9	Cue	AvoidedLoss	True
95.963	3.95	Lose2	0.9	0.0	Yes	3.137	0.0	n/a	GoodResponse	0	n/a	n/a	2	9	Fixation	AvoidedLoss	True
99.912	0.31	Lose2	0.9	0.001	Yes	3.137	-0.001	4.0	GoodResponse	0	0.233	99.145	2	9	Target	AvoidedLoss	True
100.145	0.3	Lose2	0.9	0.001	Yes	3.137	-0.001	4.0	GoodResponse	0	0.233	n/a	2	9	ButtonPress	AvoidedLoss	True
100.229	0.39	Lose2	0.9	n/a	Yes	3.137	n/a	n/a	GoodResponse	0	n/a	n/a	2	9	Blank	AvoidedLoss	True
100.612	1.45	Lose2	0.9	n/a	Yes	3.137	n/a	5.0	GoodResponse	0	0.0	99.612	2	9	Feedback	AvoidedLoss	True
102.061	3.137	Lose2	0.9	n/a	Yes	3.137	n/a	n/a	GoodResponse	0	0.0	n/a	2	9	ISIslide	AvoidedLoss	True
105.227	0.25	Control	0.9091	0.0	Yes	3.273	0.027	n/a	GoodResponse	0	n/a	n/a	2	10	Cue	Neutral	True
105.477	4.0	Control	0.9091	0.0	Yes	3.273	0.0	n/a	GoodResponse	0	n/a	n/a	2	10	Fixation	Neutral	True
109.475	0.3	Control	0.9091	0.002	Yes	3.273	-0.002	4.0	GoodResponse	0	0.255	108.73	2	10	Target	Neutral	True
109.73	0.3	Control	0.9091	0.002	Yes	3.273	-0.002	4.0	GoodResponse	0	0.255	n/a	2	10	ButtonPress	Neutral	True
109.775	0.4	Control	0.9091	n/a	Yes	3.273	n/a	n/a	GoodResponse	0	n/a	n/a	2	10	Blank	Neutral	True
110.175	1.45	Control	0.9091	n/a	Yes	3.273	n/a	5.0	GoodResponse	0	0.047	109.222	2	10	Feedback	Neutral	True
111.625	3.273	Control	0.9091	n/a	Yes	3.273	n/a	n/a	GoodResponse	0	0.0	n/a	2	10	ISIslide	Neutral	True
114.923	0.25	Lose2	0.9167000000000001	0.001	Yes	2.727	0.023	n/a	GoodResponse	0	n/a	n/a	2	11	Cue	AvoidedLoss	True
115.173	4.05	Lose2	0.9167000000000001	0.0	Yes	2.727	0.0	n/a	GoodResponse	0	n/a	n/a	2	11	Fixation	AvoidedLoss	True
119.222	0.29	Lose2	0.9167000000000001	0.001	Yes	2.727	-0.001	4.0	GoodResponse	0	0.233	118.455	2	11	Target	AvoidedLoss	True
119.455	0.3	Lose2	0.9167000000000001	0.001	Yes	2.727	-0.001	4.0	GoodResponse	0	0.233	n/a	2	11	ButtonPress	AvoidedLoss	True
119.522	0.41	Lose2	0.9167000000000001	n/a	Yes	2.727	n/a	n/a	GoodResponse	0	n/a	n/a	2	11	Blank	AvoidedLoss	True
119.922	1.45	Lose2	0.9167000000000001	n/a	Yes	2.727	n/a	5.0	GoodResponse	0	0.007	118.929	2	11	Feedback	AvoidedLoss	True
121.371	2.727	Lose2	0.9167000000000001	n/a	Yes	2.727	n/a	n/a	GoodResponse	0	0.0	n/a	2	11	ISIslide	AvoidedLoss	True
124.12	0.25	Control	0.9231	0.0	Yes	2.98	0.02	n/a	GoodResponse	0	n/a	n/a	2	12	Cue	Neutral	True
124.37	3.9	Control	0.9231	0.0	Yes	2.98	0.0	n/a	GoodResponse	0	n/a	n/a	2	12	Fixation	Neutral	True
128.269	0.28	Control	0.9231	0.001	Yes	2.98	-0.001	4.0	GoodResponse	0	0.269	127.538	2	12	Target	Neutral	True
128.538	0.3	Control	0.9231	0.001	Yes	2.98	-0.001	4.0	GoodResponse	0	0.269	n/a	2	12	ButtonPress	Neutral	True
128.552	0.42	Control	0.9231	n/a	Yes	2.98	n/a	n/a	GoodResponse	0	n/a	n/a	2	12	Blank	Neutral	True
128.969	1.45	Control	0.9231	n/a	Yes	2.98	n/a	5.0	GoodResponse	0	0.034	128.003	2	12	Feedback	Neutral	True
130.418	2.98	Control	0.9231	n/a	Yes	2.98	n/a	n/a	GoodResponse	0	0.0	n/a	2	12	ISIslide	Neutral	True
133.417	0.25	Control	0.9286	0.0	Yes	2.783	0.017	n/a	GoodResponse	0	n/a	n/a	2	13	Cue	Neutral	True
133.667	4.0	Control	0.9286	0.0	Yes	2.783	0.0	n/a	GoodResponse	0	n/a	n/a	2	13	Fixation	Neutral	True
137.666	0.27	Control	0.9286	0.001	Yes	2.783	-0.001	4.0	GoodResponse	0	0.251	136.917	2	13	Target	Neutral	True
137.917	0.3	Control	0.9286	0.001	Yes	2.783	-0.001	4.0	GoodResponse	0	0.251	n/a	2	13	ButtonPress	Neutral	True
137.949	0.43	Control	0.9286	n/a	Yes	2.783	n/a	n/a	GoodResponse	0	n/a	n/a	2	13	Blank	Neutral	True
138.365	1.45	Control	0.9286	n/a	Yes	2.783	n/a	5.0	GoodResponse	0	0.006	137.371	2	13	Feedback	Neutral	True
139.815	2.783	Control	0.9286	n/a	Yes	2.783	n/a	n/a	GoodResponse	0	0.0	n/a	2	13	ISIslide	Neutral	True
142.614	0.25	Win2	0.9333	0.0	Yes	2.686	0.014	n/a	GoodResponse	1	n/a	n/a	3	14	Cue	Win	True
142.864	4.1	Win2	0.9333	0.0	Yes	2.686	0.0	n/a	GoodResponse	1	n/a	n/a	3	14	Fixation	Win	True
146.963	0.26	Win2	0.9333	0.001	Yes	2.686	-0.001	4.0	GoodResponse	1	0.229	146.192	3	14	Target	Win	True
147.192	0.3	Win2	0.9333	0.001	Yes	2.686	-0.001	4.0	GoodResponse	1	0.229	n/a	3	14	ButtonPress	Win	True
147.229	0.44	Win2	0.9333	n/a	Yes	2.686	n/a	n/a	GoodResponse	1	n/a	n/a	3	14	Blank	Win	True
147.662	1.45	Win2	0.9333	n/a	Yes	2.686	n/a	5.0	GoodResponse	1	0.023	146.685	3	14	Feedback	Win	True
149.112	2.686	Win2	0.9333	n/a	Yes	2.686	n/a	n/a	GoodResponse	1	0.0	n/a	3	14	ISIslide	Win	True
151.828	0.25	Control	0.875	0.0	No	2.972	0.028	n/a	NoResponse	0	n/a	n/a	3	15	Cue	Neutral	True
152.077	4.0	Control	0.875	0.001	No	2.972	-0.001	n/a	NoResponse	0	n/a	n/a	3	15	Fixation	Neutral	True
156.076	0.25	Control	0.875	0.002	No	2.972	-0.002	4.0	NoResponse	0	0.269	155.345	3	15	Target	Neutral	True
156.326	0.45	Control	0.875	n/a	No	2.972	n/a	n/a	NoResponse	0	n/a	n/a	3	15	Blank	Neutral	True
156.345	0.3	Control	0.875	0.002	No	2.972	-0.002	4.0	NoResponse	0	0.269	n/a	3	15	ButtonPress	Neutral	True
156.776	1.45	Control	0.875	n/a	No	2.972	n/a	5.0	NoResponse	0	0.031	155.807	3	15	Feedback	Neutral	True
158.225	2.972	Control	0.875	n/a	No	2.972	n/a	n/a	NoResponse	0	0.0	n/a	3	15	ISIslide	Neutral	True
161.224	0.25	Win2	0.8824	0.0	Yes	2.876	0.024	n/a	GoodResponse	1	n/a	n/a	4	16	Cue	Win	True
161.474	4.0	Win2	0.8824	0.0	Yes	2.876	0.0	n/a	GoodResponse	1	n/a	n/a	4	16	Fixation	Win	True
165.473	0.24	Win2	0.8824	0.001	Yes	2.876	-0.001	4.0	GoodResponse	1	0.237	164.71	4	16	Target	Win	True
165.71	0.3	Win2	0.8824	0.001	Yes	2.876	-0.001	4.0	GoodResponse	1	0.237	n/a	4	16	ButtonPress	Win	True
165.723	0.46	Win2	0.8824	n/a	Yes	2.876	n/a	n/a	GoodResponse	1	n/a	n/a	4	16	Blank	Win	True
166.173	1.45	Win2	0.8824	n/a	Yes	2.876	n/a	5.0	GoodResponse	1	0.0	165.173	4	16	Feedback	Win	True
167.622	2.876	Win2	0.8824	n/a	Yes	2.876	n/a	n/a	GoodResponse	1	0.0	n/a	4	16	ISIslide	Win	True
170.521	0.25	Lose2	0.8332999999999999	0.0	No	2.729	0.021	n/a	NoResponse	-1	n/a	n/a	3	17	Cue	Loss	True
170.771	3.95	Lose2	0.8332999999999999	0.0	No	2.729	0.0	n/a	NoResponse	-1	n/a	n/a	3	17	Fixation	Loss	True
174.72	0.23	Lose2	0.8332999999999999	0.001	No	2.729	-0.001	4.0	NoResponse	-1	0.246	173.966	3	17	Target	Loss	True
174.953	0.47	Lose2	0.8332999999999999	n/a	No	2.729	n/a	n/a	NoResponse	-1	n/a	n/a	3	17	Blank	Loss	True
174.966	0.3	Lose2	0.8332999999999999	0.001	No	2.729	-0.001	4.0	NoResponse	-1	0.246	n/a	3	17	ButtonPress	Loss	True
175.419	1.45	Lose2	0.8332999999999999	n/a	No	2.729	n/a	5.0	NoResponse	-1	0.022	174.441	3	17	Feedback	Loss	True
176.869	2.729	Lose2	0.8332999999999999	n/a	No	2.729	n/a	n/a	NoResponse	-1	0.0	n/a	3	17	ISIslide	Loss	True
179.618	0.25	Lose2	0.8421	0.0	Yes	2.732	0.018	n/a	GoodResponse	0	n/a	n/a	3	18	Cue	AvoidedLoss	True
179.868	4.05	Lose2	0.8421	0.0	Yes	2.732	0.0	n/a	GoodResponse	0	n/a	n/a	3	18	Fixation	AvoidedLoss	True
183.917	0.22	Lose2	0.8421	0.001	Yes	2.732	-0.001	4.0	GoodResponse	0	0.108	183.025	3	18	Target	AvoidedLoss	True
184.025	0.3	Lose2	0.8421	0.001	Yes	2.732	-0.001	4.0	GoodResponse	0	0.108	n/a	3	18	ButtonPress	AvoidedLoss	True
184.15	0.48	Lose2	0.8421	n/a	Yes	2.732	n/a	n/a	GoodResponse	0	n/a	n/a	3	18	Blank	AvoidedLoss	True
184.616	1.45	Lose2	0.8421	n/a	Yes	2.732	n/a	5.0	GoodResponse	0	0.045	183.661	3	18	Feedback	AvoidedLoss	True
186.066	2.732	Lose2	0.8421	n/a	Yes	2.732	n/a	n/a	GoodResponse	0	0.0	n/a	3	18	ISIslide	AvoidedLoss	True
188.815	0.25	Control	0.8	0.0	No	2.935	0.015	n/a	NoResponse	0	n/a	n/a	3	19	Cue	Neutral	True
189.065	3.95	Control	0.8	0.0	No	2.935	0.0	n/a	NoResponse	0	n/a	n/a	3	19	Fixation	Neutral	True
193.013	0.21	Control	0.8	0.002	No	2.935	-0.002	4.0	NoResponse	0	0.226	192.239	3	19	Target	Neutral	True
193.23	0.49	Control	0.8	n/a	No	2.935	n/a	n/a	NoResponse	0	n/a	n/a	3	19	Blank	Neutral	True
193.239	0.3	Control	0.8	0.002	No	2.935	-0.002	4.0	NoResponse	0	0.226	n/a	3	19	ButtonPress	Neutral	True
193.713	1.45	Control	0.8	n/a	No	2.935	n/a	5.0	NoResponse	0	0.021	192.734	3	19	Feedback	Neutral	True
195.163	2.935	Control	0.8	n/a	No	2.935	n/a	n/a	NoResponse	0	0.0	n/a	3	19	ISIslide	Neutral	True
198.128	0.25	Control	0.7619	0.0	No	2.622	0.028	n/a	NoResponse	0	n/a	n/a	3	20	Cue	Neutral	True
198.378	4.05	Control	0.7619	0.0	No	2.622	0.0	n/a	NoResponse	0	n/a	n/a	3	20	Fixation	Neutral	True
202.427	0.2	Control	0.7619	0.001	No	2.622	-0.001	4.0	NoResponse	0	0.246	201.673	3	20	Target	Neutral	True
202.627	0.5	Control	0.7619	n/a	No	2.622	n/a	n/a	NoResponse	0	n/a	n/a	3	20	Blank	Neutral	True
202.673	0.3	Control	0.7619	0.001	No	2.622	-0.001	4.0	NoResponse	0	0.246	n/a	3	20	ButtonPress	Neutral	True
203.127	1.45	Control	0.7619	n/a	No	2.622	n/a	5.0	NoResponse	0	0.022	202.149	3	20	Feedback	Neutral	True
204.576	2.622	Control	0.7619	n/a	No	2.622	n/a	n/a	NoResponse	0	0.0	n/a	3	20	ISIslide	Neutral	True
207.225	0.25	Control	0.7273000000000001	0.0	No	2.775	0.025	n/a	NoResponse	0	n/a	n/a	3	21	Cue	Neutral	True
207.475	4.1	Control	0.7273000000000001	0.0	No	2.775	0.0	n/a	NoResponse	0	n/a	n/a	3	21	Fixation	Neutral	True
211.574	0.19	Control	0.7273000000000001	0.001	No	2.775	-0.001	4.0	NoResponse	0	0.251	210.825	3	21	Target	Neutral	True
211.774	0.51	Control	0.7273000000000001	n/a	No	2.775	n/a	n/a	NoResponse	0	n/a	n/a	3	21	Blank	Neutral	True
211.825	0.3	Control	0.7273000000000001	0.001	No	2.775	-0.001	4.0	NoResponse	0	0.251	n/a	3	21	ButtonPress	Neutral	True
212.273	1.45	Control	0.7273000000000001	n/a	No	2.775	n/a	5.0	NoResponse	0	0.047	211.32	3	21	Feedback	Neutral	True
213.723	2.775	Control	0.7273000000000001	n/a	No	2.775	n/a	n/a	NoResponse	0	0.0	n/a	3	21	ISIslide	Neutral	True
216.522	0.25	Control	0.6957	0.0	No	2.778	0.022	n/a	NoResponse	0	n/a	n/a	3	22	Cue	Neutral	True
216.772	4.0	Control	0.6957	0.0	No	2.778	0.0	n/a	NoResponse	0	n/a	n/a	3	22	Fixation	Neutral	True
220.771	0.18	Control	0.6957	0.001	No	2.778	-0.001	4.0	NoResponse	0	0.243	220.014	3	22	Target	Neutral	True
220.954	0.52	Control	0.6957	n/a	No	2.778	n/a	n/a	NoResponse	0	n/a	n/a	3	22	Blank	Neutral	True
221.014	0.3	Control	0.6957	0.001	No	2.778	-0.001	4.0	NoResponse	0	0.243	n/a	3	22	ButtonPress	Neutral	True
221.47	1.45	Control	0.6957	n/a	No	2.778	n/a	5.0	NoResponse	0	0.02	220.49	3	22	Feedback	Neutral	True
222.92	2.778	Control	0.6957	n/a	No	2.778	n/a	n/a	NoResponse	0	0.0	n/a	3	22	ISIslide	Neutral	True
225.719	0.25	Control	0.6667000000000001	0.0	No	2.781	0.019	n/a	NoResponse	0	n/a	n/a	3	23	Cue	Neutral	True
225.969	3.9	Control	0.6667000000000001	0.0	No	2.781	0.0	n/a	NoResponse	0	n/a	n/a	3	23	Fixation	Neutral	True
229.867	0.17	Control	0.6667000000000001	0.002	No	2.781	-0.002	4.0	NoResponse	0	0.264	229.131	3	23	Target	Neutral	True
230.051	0.53	Control	0.6667000000000001	n/a	No	2.781	n/a	n/a	NoResponse	0	n/a	n/a	3	23	Blank	Neutral	True
230.131	0.3	Control	0.6667000000000001	0.002	No	2.781	-0.002	4.0	NoResponse	0	0.264	n/a	3	23	ButtonPress	Neutral	True
230.567	1.45	Control	0.6667000000000001	n/a	No	2.781	n/a	5.0	NoResponse	0	0.045	229.612	3	23	Feedback	Neutral	True
232.017	2.781	Control	0.6667000000000001	n/a	No	2.781	n/a	n/a	NoResponse	0	0.0	n/a	3	23	ISIslide	Neutral	True
234.816	0.25	Win2	0.64	0.0	No	3.134	0.016	n/a	NoResponse	0	n/a	n/a	3	24	Cue	MissedWin	True
235.066	3.95	Win2	0.64	0.0	No	3.134	0.0	n/a	NoResponse	0	n/a	n/a	3	24	Fixation	MissedWin	True
239.014	0.16	Win2	0.64	0.002	No	3.134	-0.002	4.0	NoResponse	0	0.251	238.265	3	24	Target	MissedWin	True
239.181	0.54	Win2	0.64	n/a	No	3.134	n/a	n/a	NoResponse	0	n/a	n/a	3	24	Blank	MissedWin	True
239.265	0.3	Win2	0.64	0.002	No	3.134	-0.002	4.0	NoResponse	0	0.251	n/a	3	24	ButtonPress	MissedWin	True
239.714	1.45	Win2	0.64	n/a	No	3.134	n/a	5.0	NoResponse	0	0.02	238.734	3	24	Feedback	MissedWin	True
241.164	3.134	Win2	0.64	n/a	No	3.134	n/a	n/a	NoResponse	0	0.0	n/a	3	24	ISIslide	MissedWin	True
244.329	0.25	Win2	0.6154	0.0	No	3.071	0.029	n/a	NoResponse	0	n/a	n/a	3	25	Cue	MissedWin	True
244.579	4.0	Win2	0.6154	0.0	No	3.071	0.0	n/a	NoResponse	0	n/a	n/a	3	25	Fixation	MissedWin	True
248.578	0.17	Win2	0.6154	0.001	No	3.071	-0.001	4.0	NoResponse	0	0.193	247.771	3	25	Target	MissedWin	True
248.761	0.53	Win2	0.6154	n/a	No	3.071	n/a	n/a	NoResponse	0	n/a	n/a	3	25	Blank	MissedWin	True
248.771	0.3	Win2	0.6154	0.001	No	3.071	-0.001	4.0	NoResponse	0	0.193	n/a	3	25	ButtonPress	MissedWin	True
249.277	1.45	Win2	0.6154	n/a	No	3.071	n/a	5.0	NoResponse	0	0.018	248.295	3	25	Feedback	MissedWin	True
250.727	3.071	Win2	0.6154	n/a	No	3.071	n/a	n/a	NoResponse	0	0.0	n/a	3	25	ISIslide	MissedWin	True
253.826	0.25	Win2	0.6296	0.0	Yes	2.924	0.026	n/a	GoodResponse	1	n/a	n/a	4	26	Cue	Win	True
254.076	3.95	Win2	0.6296	0.0	Yes	2.924	0.0	n/a	GoodResponse	1	n/a	n/a	4	26	Fixation	Win	True
258.025	0.18	Win2	0.6296	0.001	Yes	2.924	-0.001	4.0	GoodResponse	1	0.159	257.184	4	26	Target	Win	True
258.184	0.3	Win2	0.6296	0.001	Yes	2.924	-0.001	4.0	GoodResponse	1	0.159	n/a	4	26	ButtonPress	Win	True
258.208	0.52	Win2	0.6296	n/a	Yes	2.924	n/a	n/a	GoodResponse	1	n/a	n/a	4	26	Blank	Win	True
258.724	1.45	Win2	0.6296	n/a	Yes	2.924	n/a	5.0	GoodResponse	1	0.034	257.758	4	26	Feedback	Win	True
260.174	2.924	Win2	0.6296	n/a	Yes	2.924	n/a	n/a	GoodResponse	1	0.0	n/a	4	26	ISIslide	Win	True
263.123	0.25	Lose2	0.6071	0.0	No	2.827	0.023	n/a	NoResponse	-1	n/a	n/a	3	27	Cue	Loss	True
263.373	4.05	Lose2	0.6071	0.0	No	2.827	0.0	n/a	NoResponse	-1	n/a	n/a	3	27	Fixation	Loss	True
267.421	0.19	Lose2	0.6071	0.002	No	2.827	-0.002	4.0	NoResponse	-1	0.231	266.652	3	27	Target	Loss	True
267.621	0.51	Lose2	0.6071	n/a	No	2.827	n/a	n/a	NoResponse	-1	n/a	n/a	3	27	Blank	Loss	True
267.652	0.3	Lose2	0.6071	0.002	No	2.827	-0.002	4.0	NoResponse	-1	0.231	n/a	3	27	ButtonPress	Loss	True
268.121	1.45	Lose2	0.6071	n/a	No	2.827	n/a	5.0	NoResponse	-1	0.006	267.127	3	27	Feedback	Loss	True
269.571	2.827	Lose2	0.6071	n/a	No	2.827	n/a	n/a	NoResponse	-1	0.0	n/a	3	27	ISIslide	Loss	True
272.42	0.25	Control	0.5861999999999999	0.0	No	2.83	0.02	n/a	NoResponse	0	n/a	n/a	3	28	Cue	Neutral	True
272.669	4.05	Control	0.5861999999999999	0.001	No	2.83	-0.001	n/a	NoResponse	0	n/a	n/a	3	28	Fixation	Neutral	True
276.718	0.2	Control	0.5861999999999999	0.002	No	2.83	-0.002	4.0	NoResponse	0	0.223	275.941	3	28	Target	Neutral	True
276.918	0.5	Control	0.5861999999999999	n/a	No	2.83	n/a	n/a	NoResponse	0	n/a	n/a	3	28	Blank	Neutral	True
276.941	0.3	Control	0.5861999999999999	0.002	No	2.83	-0.002	4.0	NoResponse	0	0.223	n/a	3	28	ButtonPress	Neutral	True
277.418	1.45	Control	0.5861999999999999	n/a	No	2.83	n/a	5.0	NoResponse	0	0.024	276.442	3	28	Feedback	Neutral	True
278.867	2.83	Control	0.5861999999999999	n/a	No	2.83	n/a	n/a	NoResponse	0	0.0	n/a	3	28	ISIslide	Neutral	True
281.716	0.25	Lose2	0.5667	0.0	No	2.834	0.016	n/a	NoResponse	-1	n/a	n/a	2	29	Cue	Loss	True
281.966	3.95	Lose2	0.5667	0.0	No	2.834	0.0	n/a	NoResponse	-1	n/a	n/a	2	29	Fixation	Loss	True
285.915	0.21	Lose2	0.5667	0.001	No	2.834	-0.001	4.0	NoResponse	-1	0.235	285.15	2	29	Target	Loss	True
286.132	0.49	Lose2	0.5667	n/a	No	2.834	n/a	n/a	NoResponse	-1	n/a	n/a	2	29	Blank	Loss	True
286.15	0.3	Lose2	0.5667	0.001	No	2.834	-0.001	4.0	NoResponse	-1	0.235	n/a	2	29	ButtonPress	Loss	True
286.615	1.45	Lose2	0.5667	n/a	No	2.834	n/a	5.0	NoResponse	-1	0.046	285.661	2	29	Feedback	Loss	True
288.064	2.834	Lose2	0.5667	n/a	No	2.834	n/a	n/a	NoResponse	-1	0.0	n/a	2	29	ISIslide	Loss	True
290.913	0.25	Win2	0.5806	0.0	Yes	2.787	0.013	n/a	GoodResponse	1	n/a	n/a	3	30	Cue	Win	True
291.163	3.9	Win2	0.5806	0.0	Yes	2.787	0.0	n/a	GoodResponse	1	n/a	n/a	3	30	Fixation	Win	True
295.062	0.22	Win2	0.5806	0.001	Yes	2.787	-0.001	4.0	GoodResponse	1	0.15	294.212	3	30	Target	Win	True
295.212	0.3	Win2	0.5806	0.001	Yes	2.787	-0.001	4.0	GoodResponse	1	0.15	n/a	3	30	ButtonPress	Win	True
295.278	0.48	Win2	0.5806	n/a	Yes	2.787	n/a	n/a	GoodResponse	1	n/a	n/a	3	30	Blank	Win	True
295.762	1.45	Win2	0.5806	n/a	Yes	2.787	n/a	5.0	GoodResponse	1	0.02	294.782	3	30	Feedback	Win	True
297.211	2.787	Win2	0.5806	n/a	Yes	2.787	n/a	n/a	GoodResponse	1	0.0	n/a	3	30	ISIslide	Win	True
300.027	0.25	Lose2	0.5625	0.0	No	2.823	0.027	n/a	NoResponse	-1	n/a	n/a	2	31	Cue	Loss	True
300.277	4.05	Lose2	0.5625	0.0	No	2.823	0.0	n/a	NoResponse	-1	n/a	n/a	2	31	Fixation	Loss	True
304.325	0.23	Lose2	0.5625	0.002	No	2.823	-0.002	4.0	NoResponse	-1	0.246	303.571	2	31	Target	Loss	True
304.559	0.47	Lose2	0.5625	n/a	No	2.823	n/a	n/a	NoResponse	-1	n/a	n/a	2	31	Blank	Loss	True
304.571	0.3	Lose2	0.5625	0.002	No	2.823	-0.002	4.0	NoResponse	-1	0.246	n/a	2	31	ButtonPress	Loss	True
305.025	1.45	Lose2	0.5625	n/a	No	2.823	n/a	5.0	NoResponse	-1	0.026	304.051	2	31	Feedback	Loss	True
306.475	2.823	Lose2	0.5625	n/a	No	2.823	n/a	n/a	NoResponse	-1	0.0	n/a	2	31	ISIslide	Loss	True
309.324	0.25	Lose2	0.5758	0.0	Yes	2.626	0.024	n/a	GoodResponse	0	n/a	n/a	2	32	Cue	AvoidedLoss	True
309.574	4.15	Lose2	0.5758	0.0	Yes	2.626	0.0	n/a	GoodResponse	0	n/a	n/a	2	32	Fixation	AvoidedLoss	True
313.722	0.24	Lose2	0.5758	0.002	Yes	2.626	-0.002	4.0	GoodResponse	0	0.206	312.928	2	32	Target	AvoidedLoss	True
313.928	0.3	Lose2	0.5758	0.002	Yes	2.626	-0.002	4.0	GoodResponse	0	0.206	n/a	2	32	ButtonPress	AvoidedLoss	True
313.972	0.46	Lose2	0.5758	n/a	Yes	2.626	n/a	n/a	GoodResponse	0	n/a	n/a	2	32	Blank	AvoidedLoss	True
314.422	1.45	Lose2	0.5758	n/a	Yes	2.626	n/a	5.0	GoodResponse	0	0.043	313.465	2	32	Feedback	AvoidedLoss	True
315.871	2.626	Lose2	0.5758	n/a	Yes	2.626	n/a	n/a	GoodResponse	0	0.0	n/a	2	32	ISIslide	AvoidedLoss	True
318.52	0.25	Win2	0.5882000000000001	0.001	Yes	2.68	0.02	n/a	GoodResponse	1	n/a	n/a	3	33	Cue	Win	True
318.77	4.0	Win2	0.5882000000000001	0.0	Yes	2.68	0.0	n/a	GoodResponse	1	n/a	n/a	3	33	Fixation	Win	True
322.769	0.25	Win2	0.5882000000000001	0.001	Yes	2.68	-0.001	4.0	GoodResponse	1	0.206	321.975	3	33	Target	Win	True
322.975	0.3	Win2	0.5882000000000001	0.001	Yes	2.68	-0.001	4.0	GoodResponse	1	0.206	n/a	3	33	ButtonPress	Win	True
323.019	0.45	Win2	0.5882000000000001	n/a	Yes	2.68	n/a	n/a	GoodResponse	1	n/a	n/a	3	33	Blank	Win	True
323.469	1.45	Win2	0.5882000000000001	n/a	Yes	2.68	n/a	5.0	GoodResponse	1	0.021	322.49	3	33	Feedback	Win	True
324.918	2.68	Win2	0.5882000000000001	n/a	Yes	2.68	n/a	n/a	GoodResponse	1	0.0	n/a	3	33	ISIslide	Win	True
327.617	0.25	Lose2	0.6	0.0	Yes	2.633	0.017	n/a	GoodResponse	0	n/a	n/a	3	34	Cue	AvoidedLoss	True
327.867	4.05	Lose2	0.6	0.0	Yes	2.633	0.0	n/a	GoodResponse	0	n/a	n/a	3	34	Fixation	AvoidedLoss	True
331.916	0.26	Lose2	0.6	0.001	Yes	2.633	-0.001	4.0	GoodResponse	0	0.217	331.133	3	34	Target	AvoidedLoss	True
332.133	0.3	Lose2	0.6	0.001	Yes	2.633	-0.001	4.0	GoodResponse	0	0.217	n/a	3	34	ButtonPress	AvoidedLoss	True
332.182	0.44	Lose2	0.6	n/a	Yes	2.633	n/a	n/a	GoodResponse	0	n/a	n/a	3	34	Blank	AvoidedLoss	True
332.616	1.45	Lose2	0.6	n/a	Yes	2.633	n/a	5.0	GoodResponse	0	0.045	331.661	3	34	Feedback	AvoidedLoss	True
334.065	2.633	Lose2	0.6	n/a	Yes	2.633	n/a	n/a	GoodResponse	0	0.0	n/a	3	34	ISIslide	AvoidedLoss	True
336.714	0.25	Lose2	0.6111	0.0	Yes	2.686	0.014	n/a	GoodResponse	0	n/a	n/a	3	35	Cue	AvoidedLoss	True
336.964	4.0	Lose2	0.6111	0.0	Yes	2.686	0.0	n/a	GoodResponse	0	n/a	n/a	3	35	Fixation	AvoidedLoss	True
340.963	0.27	Lose2	0.6111	0.001	Yes	2.686	-0.001	4.0	GoodResponse	0	0.255	340.218	3	35	Target	AvoidedLoss	True
341.218	0.3	Lose2	0.6111	0.001	Yes	2.686	-0.001	4.0	GoodResponse	0	0.255	n/a	3	35	ButtonPress	AvoidedLoss	True
341.246	0.43	Lose2	0.6111	n/a	Yes	2.686	n/a	n/a	GoodResponse	0	n/a	n/a	3	35	Blank	AvoidedLoss	True
341.663	1.45	Lose2	0.6111	n/a	Yes	2.686	n/a	5.0	GoodResponse	0	0.022	340.685	3	35	Feedback	AvoidedLoss	True
343.112	2.686	Lose2	0.6111	n/a	Yes	2.686	n/a	n/a	GoodResponse	0	0.0	n/a	3	35	ISIslide	AvoidedLoss	True
345.828	0.25	Control	0.6215999999999999	0.0	Yes	2.672	0.028	n/a	GoodResponse	0	n/a	n/a	3	36	Cue	Neutral	False
346.078	4.0	Control	0.6215999999999999	0.0	Yes	2.672	0.0	4.0	GoodResponse	0	3.374	348.452	3	36	Fixation	Neutral	False
349.452	0.3	Control	0.6215999999999999	0.0	Yes	2.672	0.0	4.0	GoodResponse	0	3.374	n/a	3	36	ButtonPress	Neutral	False
350.076	0.28	Control	0.6215999999999999	0.002	Yes	2.672	-0.002	4.0	GoodResponse	0	0.201	349.277	3	36	Target	Neutral	False
350.277	0.3	Control	0.6215999999999999	0.002	Yes	2.672	-0.002	4.0	GoodResponse	0	0.201	n/a	3	36	ButtonPress	Neutral	False
350.36	0.42	Control	0.6215999999999999	n/a	Yes	2.672	n/a	n/a	GoodResponse	0	n/a	n/a	3	36	Blank	Neutral	False
350.776	1.45	Control	0.6215999999999999	n/a	Yes	2.672	n/a	5.0	GoodResponse	0	0.031	349.807	3	36	Feedback	Neutral	False
352.226	2.672	Control	0.6215999999999999	n/a	Yes	2.672	n/a	n/a	GoodResponse	0	0.0	n/a	3	36	ISIslide	Neutral	False
354.925	0.25	Win2	0.6315999999999999	0.0	Yes	2.875	0.025	n/a	GoodResponse	1	n/a	n/a	4	37	Cue	Win	True
355.175	4.0	Win2	0.6315999999999999	0.0	Yes	2.875	0.0	n/a	GoodResponse	1	n/a	n/a	4	37	Fixation	Win	True
359.173	0.29	Win2	0.6315999999999999	0.002	Yes	2.875	-0.002	4.0	GoodResponse	1	0.241	358.414	4	37	Target	Win	True
359.414	0.3	Win2	0.6315999999999999	0.002	Yes	2.875	-0.002	4.0	GoodResponse	1	0.241	n/a	4	37	ButtonPress	Win	True
359.473	0.41	Win2	0.6315999999999999	n/a	Yes	2.875	n/a	n/a	GoodResponse	1	n/a	n/a	4	37	Blank	Win	True
359.873	1.45	Win2	0.6315999999999999	n/a	Yes	2.875	n/a	5.0	GoodResponse	1	0.008	358.881	4	37	Feedback	Win	True
361.322	2.875	Win2	0.6315999999999999	n/a	Yes	2.875	n/a	n/a	GoodResponse	1	0.0	n/a	4	37	ISIslide	Win	True
364.221	0.25	Lose2	0.6409999999999999	0.001	Yes	2.829	0.021	n/a	GoodResponse	0	n/a	n/a	4	38	Cue	AvoidedLoss	True
364.471	3.95	Lose2	0.6409999999999999	0.0	Yes	2.829	0.0	n/a	GoodResponse	0	n/a	n/a	4	38	Fixation	AvoidedLoss	True
368.42	0.3	Lose2	0.6409999999999999	0.001	Yes	2.829	-0.001	4.0	GoodResponse	0	0.262	367.682	4	38	Target	AvoidedLoss	True
368.682	0.3	Lose2	0.6409999999999999	0.001	Yes	2.829	-0.001	4.0	GoodResponse	0	0.262	n/a	4	38	ButtonPress	AvoidedLoss	True
368.72	0.4	Lose2	0.6409999999999999	n/a	Yes	2.829	n/a	n/a	GoodResponse	0	n/a	n/a	4	38	Blank	AvoidedLoss	True
369.12	1.45	Lose2	0.6409999999999999	n/a	Yes	2.829	n/a	5.0	GoodResponse	0	0.028	368.148	4	38	Feedback	AvoidedLoss	True
370.569	2.829	Lose2	0.6409999999999999	n/a	Yes	2.829	n/a	n/a	GoodResponse	0	0.0	n/a	4	38	ISIslide	AvoidedLoss	True
373.418	0.25	Win2	0.65	0.0	Yes	2.982	0.018	n/a	GoodResponse	1	n/a	n/a	5	39	Cue	Win	True
373.668	4.1	Win2	0.65	0.0	Yes	2.982	0.0	n/a	GoodResponse	1	n/a	n/a	5	39	Fixation	Win	True
377.767	0.31	Win2	0.65	0.001	Yes	2.982	-0.001	4.0	GoodResponse	1	0.238	377.005	5	39	Target	Win	True
378.005	0.3	Win2	0.65	0.001	Yes	2.982	-0.001	4.0	GoodResponse	1	0.238	n/a	5	39	ButtonPress	Win	True
378.083	0.39	Win2	0.65	n/a	Yes	2.982	n/a	n/a	GoodResponse	1	n/a	n/a	5	39	Blank	Win	True
378.467	1.45	Win2	0.65	n/a	Yes	2.982	n/a	5.0	GoodResponse	1	0.047	377.514	5	39	Feedback	Win	True
379.916	2.982	Win2	0.65	n/a	Yes	2.982	n/a	n/a	GoodResponse	1	0.0	n/a	5	39	ISIslide	Win	True
382.915	0.25	Win2	0.6585	0.0	Yes	2.735	0.015	n/a	GoodResponse	1	n/a	n/a	6	40	Cue	Win	True
383.165	3.95	Win2	0.6585	0.0	Yes	2.735	0.0	n/a	GoodResponse	1	n/a	n/a	6	40	Fixation	Win	True
387.114	0.32	Win2	0.6585	0.001	Yes	2.735	-0.001	4.0	GoodResponse	1	0.186	386.3	6	40	Target	Win	True
387.3	0.3	Win2	0.6585	0.001	Yes	2.735	-0.001	4.0	GoodResponse	1	0.186	n/a	6	40	ButtonPress	Win	True
387.447	0.38	Win2	0.6585	n/a	Yes	2.735	n/a	n/a	GoodResponse	1	n/a	n/a	6	40	Blank	Win	True
387.813	1.45	Win2	0.6585	n/a	Yes	2.735	n/a	5.0	GoodResponse	1	0.018	386.831	6	40	Feedback	Win	True
389.263	2.735	Win2	0.6585	n/a	Yes	2.735	n/a	n/a	GoodResponse	1	0.0	n/a	6	40	ISIslide	Win	True
392.029	0.25	Win2	0.6667000000000001	0.0	Yes	2.771	0.029	n/a	GoodResponse	1	n/a	n/a	7	41	Cue	Win	True
392.279	3.9	Win2	0.6667000000000001	0.0	Yes	2.771	0.0	n/a	GoodResponse	1	n/a	n/a	7	41	Fixation	Win	True
396.177	0.32	Win2	0.6667000000000001	0.002	Yes	2.771	-0.002	4.0	GoodResponse	1	0.213	395.39	7	41	Target	Win	True
396.39	0.3	Win2	0.6667000000000001	0.002	Yes	2.771	-0.002	4.0	GoodResponse	1	0.213	n/a	7	41	ButtonPress	Win	True
396.51	0.38	Win2	0.6667000000000001	n/a	Yes	2.771	n/a	n/a	GoodResponse	1	n/a	n/a	7	41	Blank	Win	True
396.877	1.45	Win2	0.6667000000000001	n/a	Yes	2.771	n/a	5.0	GoodResponse	1	0.027	395.904	7	41	Feedback	Win	True
398.326	2.771	Win2	0.6667000000000001	n/a	Yes	2.771	n/a	n/a	GoodResponse	1	0.0	n/a	7	41	ISIslide	Win	True
401.126	0.25	Control	0.6744	0.0	Yes	2.924	0.026	n/a	GoodResponse	0	n/a	n/a	7	42	Cue	Neutral	True
401.375	3.85	Control	0.6744	0.001	Yes	2.924	-0.001	n/a	GoodResponse	0	n/a	n/a	7	42	Fixation	Neutral	True
405.224	0.31	Control	0.6744	0.002	Yes	2.924	-0.002	4.0	GoodResponse	0	0.225	404.449	7	42	Target	Neutral	True
405.449	0.3	Control	0.6744	0.002	Yes	2.924	-0.002	4.0	GoodResponse	0	0.225	n/a	7	42	ButtonPress	Neutral	True
405.541	0.39	Control	0.6744	n/a	Yes	2.924	n/a	n/a	GoodResponse	0	n/a	n/a	7	42	Blank	Neutral	True
405.924	1.45	Control	0.6744	n/a	Yes	2.924	n/a	5.0	GoodResponse	0	0.007	404.931	7	42	Feedback	Neutral	True
407.373	2.924	Control	0.6744	n/a	Yes	2.924	n/a	n/a	GoodResponse	0	0.0	n/a	7	42	ISIslide	Neutral	True
410.322	0.25	Win2	0.6818000000000001	0.0	Yes	3.178	0.022	n/a	GoodResponse	1	n/a	n/a	8	43	Cue	Win	True
410.572	4.0	Win2	0.6818000000000001	0.0	Yes	3.178	0.0	n/a	GoodResponse	1	n/a	n/a	8	43	Fixation	Win	True
414.571	0.3	Win2	0.6818000000000001	0.001	Yes	3.178	-0.001	4.0	GoodResponse	1	0.238	413.809	8	43	Target	Win	True
414.809	0.3	Win2	0.6818000000000001	0.001	Yes	3.178	-0.001	4.0	GoodResponse	1	0.238	n/a	8	43	ButtonPress	Win	True
414.871	0.4	Win2	0.6818000000000001	n/a	Yes	3.178	n/a	n/a	GoodResponse	1	n/a	n/a	8	43	Blank	Win	True
415.271	1.45	Win2	0.6818000000000001	n/a	Yes	3.178	n/a	5.0	GoodResponse	1	0.024	414.295	8	43	Feedback	Win	True
416.72	3.178	Win2	0.6818000000000001	n/a	Yes	3.178	n/a	n/a	GoodResponse	1	0.0	n/a	8	43	ISIslide	Win	True
419.919	0.25	Win2	0.6889	0.0	Yes	2.981	0.019	n/a	GoodResponse	1	n/a	n/a	9	44	Cue	Win	True
420.169	4.0	Win2	0.6889	0.0	Yes	2.981	0.0	n/a	GoodResponse	1	n/a	n/a	9	44	Fixation	Win	True
424.168	0.29	Win2	0.6889	0.001	Yes	2.981	-0.001	4.0	GoodResponse	1	0.24	423.408	9	44	Target	Win	True
424.408	0.3	Win2	0.6889	0.001	Yes	2.981	-0.001	4.0	GoodResponse	1	0.24	n/a	9	44	ButtonPress	Win	True
424.468	0.41	Win2	0.6889	n/a	Yes	2.981	n/a	n/a	GoodResponse	1	n/a	n/a	9	44	Blank	Win	True
424.867	1.45	Win2	0.6889	n/a	Yes	2.981	n/a	5.0	GoodResponse	1	0.038	423.905	9	44	Feedback	Win	True
426.317	2.981	Win2	0.6889	n/a	Yes	2.981	n/a	n/a	GoodResponse	1	0.0	n/a	9	44	ISIslide	Win	True
429.316	0.25	Control	0.6739	0.0	No	2.884	0.016	n/a	NoResponse	0	n/a	n/a	9	45	Cue	Neutral	True
429.566	4.1	Control	0.6739	0.0	No	2.884	0.0	n/a	NoResponse	0	n/a	n/a	9	45	Fixation	Neutral	True
433.664	0.28	Control	0.6739	0.002	No	2.884	-0.002	4.0	NoResponse	0	0.293	432.957	9	45	Target	Neutral	True
433.948	0.42	Control	0.6739	n/a	No	2.884	n/a	n/a	NoResponse	0	n/a	n/a	9	45	Blank	Neutral	True
433.957	0.3	Control	0.6739	0.002	No	2.884	-0.002	4.0	NoResponse	0	0.293	n/a	9	45	ButtonPress	Neutral	True
434.364	1.45	Control	0.6739	n/a	No	2.884	n/a	5.0	NoResponse	0	0.006	433.37	9	45	Feedback	Neutral	True
435.814	2.884	Control	0.6739	n/a	No	2.884	n/a	n/a	NoResponse	0	0.0	n/a	9	45	ISIslide	Neutral	True
438.729	0.25	Lose2	0.6809000000000001	0.0	Yes	3.371	0.029	n/a	GoodResponse	0	n/a	n/a	9	46	Cue	AvoidedLoss	True
438.979	4.0	Lose2	0.6809000000000001	0.0	Yes	3.371	0.0	n/a	GoodResponse	0	n/a	n/a	9	46	Fixation	AvoidedLoss	True
442.978	0.27	Lose2	0.6809000000000001	0.001	Yes	3.371	-0.001	4.0	GoodResponse	0	0.255	442.233	9	46	Target	AvoidedLoss	True
443.233	0.3	Lose2	0.6809000000000001	0.001	Yes	3.371	-0.001	4.0	GoodResponse	0	0.255	n/a	9	46	ButtonPress	AvoidedLoss	True
443.244	0.43	Lose2	0.6809000000000001	n/a	Yes	3.371	n/a	n/a	GoodResponse	0	n/a	n/a	9	46	Blank	AvoidedLoss	True
443.678	1.45	Lose2	0.6809000000000001	n/a	Yes	3.371	n/a	5.0	GoodResponse	0	0.007	442.685	9	46	Feedback	AvoidedLoss	True
445.127	3.371	Lose2	0.6809000000000001	n/a	Yes	3.371	n/a	n/a	GoodResponse	0	0.0	n/a	9	46	ISIslide	AvoidedLoss	True
448.526	0.25	Lose2	0.6875	0.0	Yes	2.674	0.026	n/a	GoodResponse	0	n/a	n/a	9	47	Cue	AvoidedLoss	True
448.776	4.0	Lose2	0.6875	0.0	Yes	2.674	0.0	n/a	GoodResponse	0	n/a	n/a	9	47	Fixation	AvoidedLoss	True
452.774	0.26	Lose2	0.6875	0.002	Yes	2.674	-0.002	4.0	GoodResponse	0	0.252	452.026	9	47	Target	AvoidedLoss	True
453.026	0.3	Lose2	0.6875	0.002	Yes	2.674	-0.002	4.0	GoodResponse	0	0.252	n/a	9	47	ButtonPress	AvoidedLoss	True
453.041	0.44	Lose2	0.6875	n/a	Yes	2.674	n/a	n/a	GoodResponse	0	n/a	n/a	9	47	Blank	AvoidedLoss	True
453.474	1.45	Lose2	0.6875	n/a	Yes	2.674	n/a	5.0	GoodResponse	0	0.016	452.49	9	47	Feedback	AvoidedLoss	True
454.924	2.674	Lose2	0.6875	n/a	Yes	2.674	n/a	n/a	GoodResponse	0	0.0	n/a	9	47	ISIslide	AvoidedLoss	True
457.623	0.25	Lose2	0.6939	0.0	Yes	3.027	0.023	n/a	GoodResponse	0	n/a	n/a	9	48	Cue	AvoidedLoss	True
457.873	3.95	Lose2	0.6939	0.0	Yes	3.027	0.0	n/a	GoodResponse	0	n/a	n/a	9	48	Fixation	AvoidedLoss	True
461.821	0.25	Lose2	0.6939	0.002	Yes	3.027	-0.002	4.0	GoodResponse	0	0.222	461.043	9	48	Target	AvoidedLoss	True
462.043	0.3	Lose2	0.6939	0.002	Yes	3.027	-0.002	4.0	GoodResponse	0	0.222	n/a	9	48	ButtonPress	AvoidedLoss	True
462.071	0.45	Lose2	0.6939	n/a	Yes	3.027	n/a	n/a	GoodResponse	0	n/a	n/a	9	48	Blank	AvoidedLoss	True
462.521	1.45	Lose2	0.6939	n/a	Yes	3.027	n/a	5.0	GoodResponse	0	0.042	461.563	9	48	Feedback	AvoidedLoss	True
463.971	3.027	Lose2	0.6939	n/a	Yes	3.027	n/a	n/a	GoodResponse	0	0.0	n/a	9	48	ISIslide	AvoidedLoss	True
467.02	0.25	Control	0.68	0.0	No	2.88	0.02	n/a	NoResponse	0	n/a	n/a	9	49	Cue	Neutral	True
467.27	4.0	Control	0.68	0.0	No	2.88	0.0	n/a	NoResponse	0	n/a	n/a	9	49	Fixation	Neutral	True
471.268	0.24	Control	0.68	0.002	No	2.88	-0.002	4.0	NoResponse	0	0.285	470.553	9	49	Target	Neutral	True
471.518	0.46	Control	0.68	n/a	No	2.88	n/a	n/a	NoResponse	0	n/a	n/a	9	49	Blank	Neutral	True
471.553	0.3	Control	0.68	0.002	No	2.88	-0.002	4.0	NoResponse	0	0.285	n/a	9	49	ButtonPress	Neutral	True
471.968	1.45	Control	0.68	n/a	No	2.88	n/a	5.0	NoResponse	0	0.01	470.978	9	49	Feedback	Neutral	True
473.417	2.88	Control	0.68	n/a	No	2.88	n/a	n/a	NoResponse	0	0.0	n/a	9	49	ISIslide	Neutral	True
476.316	0.25	Control	0.6667000000000001	0.001	No	2.784	0.016	n/a	NoResponse	0	n/a	n/a	9	50	Cue	Neutral	False
476.566	4.0	Control	0.6667000000000001	0.0	No	2.784	0.0	n/a	NoResponse	0	n/a	n/a	9	50	Fixation	Neutral	False
480.565	0.23	Control	0.6667000000000001	0.001	No	2.784	-0.001	n/a	NoResponse	0	n/a	n/a	9	50	Target	Neutral	False
480.798	0.47	Control	0.6667000000000001	n/a	No	2.784	n/a	n/a	NoResponse	0	n/a	n/a	9	50	Blank	Neutral	False
481.265	1.45	Control	0.6667000000000001	n/a	No	2.784	n/a	5.0	NoResponse	0	0.03	480.295	9	50	Feedback	Neutral	False
482.714	2.784	Control	0.6667000000000001	n/a	No	2.784	n/a	n/a	NoResponse	0	0.0	n/a	9	50	ISIslide	Neutral	False
485.513	0.25	Control	0.6537999999999999	0.0	No	2.737	0.013	n/a	NoResponse	0	n/a	n/a	9	51	Cue	Neutral	True
485.763	3.95	Control	0.6537999999999999	0.0	No	2.737	0.0	n/a	NoResponse	0	n/a	n/a	9	51	Fixation	Neutral	True
489.712	0.22	Control	0.6537999999999999	0.001	No	2.737	-0.001	4.0	NoResponse	0	0.246	488.958	9	51	Target	Neutral	True
489.928	0.48	Control	0.6537999999999999	n/a	No	2.737	n/a	n/a	NoResponse	0	n/a	n/a	9	51	Blank	Neutral	True
489.958	0.3	Control	0.6537999999999999	0.001	No	2.737	-0.001	4.0	NoResponse	0	0.246	n/a	9	51	ButtonPress	Neutral	True
490.412	1.45	Control	0.6537999999999999	n/a	No	2.737	n/a	5.0	NoResponse	0	0.005	489.417	9	51	Feedback	Neutral	True
491.861	2.737	Control	0.6537999999999999	n/a	No	2.737	n/a	n/a	NoResponse	0	0.0	n/a	9	51	ISIslide	Neutral	True
494.627	0.25	Control	0.6604000000000001	0.0	Yes	2.623	0.027	n/a	GoodResponse	0	n/a	n/a	9	52	Cue	Neutral	True
494.877	4.05	Control	0.6604000000000001	0.0	Yes	2.623	0.0	n/a	GoodResponse	0	n/a	n/a	9	52	Fixation	Neutral	True
498.925	0.23	Control	0.6604000000000001	0.002	Yes	2.623	-0.002	4.0	GoodResponse	0	0.208	498.133	9	52	Target	Neutral	True
499.133	0.3	Control	0.6604000000000001	0.002	Yes	2.623	-0.002	4.0	GoodResponse	0	0.208	n/a	9	52	ButtonPress	Neutral	True
499.159	0.47	Control	0.6604000000000001	n/a	Yes	2.623	n/a	n/a	GoodResponse	0	n/a	n/a	9	52	Blank	Neutral	True
499.625	1.45	Control	0.6604000000000001	n/a	Yes	2.623	n/a	5.0	GoodResponse	0	0.012	498.637	9	52	Feedback	Neutral	True
501.075	2.623	Control	0.6604000000000001	n/a	Yes	2.623	n/a	n/a	GoodResponse	0	0.0	n/a	9	52	ISIslide	Neutral	True
503.724	0.25	Win2	0.6667000000000001	0.0	Yes	2.926	0.024	n/a	GoodResponse	1	n/a	n/a	10	53	Cue	Win	True
503.974	4.05	Win2	0.6667000000000001	0.0	Yes	2.926	0.0	n/a	GoodResponse	1	n/a	n/a	10	53	Fixation	Win	True
508.022	0.23	Win2	0.6667000000000001	0.002	Yes	2.926	-0.002	4.0	GoodResponse	1	0.212	507.234	10	53	Target	Win	True
508.234	0.3	Win2	0.6667000000000001	0.002	Yes	2.926	-0.002	4.0	GoodResponse	1	0.212	n/a	10	53	ButtonPress	Win	True
508.255	0.47	Win2	0.6667000000000001	n/a	Yes	2.926	n/a	n/a	GoodResponse	1	n/a	n/a	10	53	Blank	Win	True
508.722	1.45	Win2	0.6667000000000001	n/a	Yes	2.926	n/a	5.0	GoodResponse	1	0.037	507.759	10	53	Feedback	Win	True
510.171	2.926	Win2	0.6667000000000001	n/a	Yes	2.926	n/a	n/a	GoodResponse	1	0.0	n/a	10	53	ISIslide	Win	True
513.12	0.25	Win2	0.6545000000000001	0.001	No	2.73	0.02	n/a	NoResponse	0	n/a	n/a	10	54	Cue	MissedWin	True
513.37	3.95	Win2	0.6545000000000001	0.001	No	2.73	0.0	n/a	NoResponse	0	n/a	n/a	10	54	Fixation	MissedWin	True
517.319	0.22	Win2	0.6545000000000001	0.001	No	2.73	-0.001	4.0	NoResponse	0	0.269	516.588	10	54	Target	MissedWin	True
517.536	0.48	Win2	0.6545000000000001	n/a	No	2.73	n/a	n/a	NoResponse	0	n/a	n/a	10	54	Blank	MissedWin	True
517.588	0.3	Win2	0.6545000000000001	0.001	No	2.73	-0.001	4.0	NoResponse	0	0.269	n/a	10	54	ButtonPress	MissedWin	True
518.019	1.45	Win2	0.6545000000000001	n/a	No	2.73	n/a	5.0	NoResponse	0	0.007	517.026	10	54	Feedback	MissedWin	True
519.468	2.73	Win2	0.6545000000000001	n/a	No	2.73	n/a	n/a	NoResponse	0	0.0	n/a	10	54	ISIslide	MissedWin	True
522.217	0.25	Control	0.6429	0.0	No	3.033	0.017	n/a	NoResponse	0	n/a	n/a	10	55	Cue	Neutral	True
522.467	3.95	Control	0.6429	0.0	No	3.033	0.0	n/a	NoResponse	0	n/a	n/a	10	55	Fixation	Neutral	True
526.416	0.23	Control	0.6429	0.001	No	3.033	-0.001	4.0	NoResponse	0	0.257	525.673	10	55	Target	Neutral	True
526.649	0.47	Control	0.6429	n/a	No	3.033	n/a	n/a	NoResponse	0	n/a	n/a	10	55	Blank	Neutral	True
526.673	0.3	Control	0.6429	0.001	No	3.033	-0.001	4.0	NoResponse	0	0.257	n/a	10	55	ButtonPress	Neutral	True
527.116	1.45	Control	0.6429	n/a	No	3.033	n/a	5.0	NoResponse	0	0.032	526.148	10	55	Feedback	Neutral	True
528.565	3.033	Control	0.6429	n/a	No	3.033	n/a	n/a	NoResponse	0	0.0	n/a	10	55	ISIslide	Neutral	True
531.614	0.25	Control	0.6315999999999999	0.0	No	2.836	0.014	n/a	NoResponse	0	n/a	n/a	10	56	Cue	Neutral	True
531.864	3.95	Control	0.6315999999999999	0.0	No	2.836	0.0	n/a	NoResponse	0	n/a	n/a	10	56	Fixation	Neutral	True
535.813	0.24	Control	0.6315999999999999	0.001	No	2.836	-0.001	4.0	NoResponse	0	0.302	535.115	10	56	Target	Neutral	True
536.063	0.46	Control	0.6315999999999999	n/a	No	2.836	n/a	n/a	NoResponse	0	n/a	n/a	10	56	Blank	Neutral	True
536.115	0.3	Control	0.6315999999999999	0.001	No	2.836	-0.001	4.0	NoResponse	0	0.302	n/a	10	56	ButtonPress	Neutral	True
536.512	1.45	Control	0.6315999999999999	n/a	No	2.836	n/a	5.0	NoResponse	0	0.006	535.518	10	56	Feedback	Neutral	True
537.962	2.836	Control	0.6315999999999999	n/a	No	2.836	n/a	n/a	NoResponse	0	0.0	n/a	10	56	ISIslide	Neutral	True
540.828	0.25	Control	0.6379	0.0	Yes	3.472	0.028	n/a	GoodResponse	0	n/a	n/a	10	57	Cue	Neutral	True
541.078	4.0	Control	0.6379	0.0	Yes	3.472	0.0	n/a	GoodResponse	0	n/a	n/a	10	57	Fixation	Neutral	True
545.076	0.25	Control	0.6379	0.002	Yes	3.472	-0.002	4.0	GoodResponse	0	0.225	544.301	10	57	Target	Neutral	True
545.301	0.3	Control	0.6379	0.002	Yes	3.472	-0.002	4.0	GoodResponse	0	0.225	n/a	10	57	ButtonPress	Neutral	True
545.326	0.45	Control	0.6379	n/a	Yes	3.472	n/a	n/a	GoodResponse	0	n/a	n/a	10	57	Blank	Neutral	True
545.776	1.45	Control	0.6379	n/a	Yes	3.472	n/a	5.0	GoodResponse	0	0.006	544.782	10	57	Feedback	Neutral	True
547.225	3.472	Control	0.6379	n/a	Yes	3.472	n/a	n/a	GoodResponse	0	0.0	n/a	10	57	ISIslide	Neutral	True
550.724	0.25	Win2	0.6441	0.0	Yes	2.726	0.024	n/a	GoodResponse	1	n/a	n/a	11	58	Cue	Win	True
550.974	4.05	Win2	0.6441	0.0	Yes	2.726	0.0	n/a	GoodResponse	1	n/a	n/a	11	58	Fixation	Win	True
555.023	0.26	Win2	0.6441	0.001	Yes	2.726	-0.001	4.0	GoodResponse	1	0.236	554.259	11	58	Target	Win	True
555.259	0.3	Win2	0.6441	0.001	Yes	2.726	-0.001	4.0	GoodResponse	1	0.236	n/a	11	58	ButtonPress	Win	True
555.289	0.44	Win2	0.6441	n/a	Yes	2.726	n/a	n/a	GoodResponse	1	n/a	n/a	11	58	Blank	Win	True
555.723	1.45	Win2	0.6441	n/a	Yes	2.726	n/a	5.0	GoodResponse	1	0.011	554.734	11	58	Feedback	Win	True
557.172	2.726	Win2	0.6441	n/a	Yes	2.726	n/a	n/a	GoodResponse	1	0.0	n/a	11	58	ISIslide	Win	True
559.921	0.25	Lose2	0.6333	0.0	No	2.679	0.021	n/a	NoResponse	-1	n/a	n/a	10	59	Cue	Loss	True
560.171	4.0	Lose2	0.6333	0.0	No	2.679	0.0	n/a	NoResponse	-1	n/a	n/a	10	59	Fixation	Loss	True
564.17	0.27	Lose2	0.6333	0.001	No	2.679	-0.001	4.0	NoResponse	-1	0.37	563.54	10	59	Target	Loss	True
564.453	0.43	Lose2	0.6333	n/a	No	2.679	n/a	n/a	NoResponse	-1	n/a	n/a	10	59	Blank	Loss	True
564.54	0.3	Lose2	0.6333	0.001	No	2.679	-0.001	4.0	NoResponse	-1	0.37	n/a	10	59	ButtonPress	Loss	True
564.869	1.45	Lose2	0.6333	n/a	No	2.679	n/a	5.0	NoResponse	-1	0.036	563.905	10	59	Feedback	Loss	True
566.319	2.679	Lose2	0.6333	n/a	No	2.679	n/a	n/a	NoResponse	-1	0.0	n/a	10	59	ISIslide	Loss	True
569.018	0.25	Control	0.6393	0.0	Yes	2.682	0.018	n/a	GoodResponse	0	n/a	n/a	10	60	Cue	Neutral	True
569.268	4.0	Control	0.6393	0.0	Yes	2.682	0.0	n/a	GoodResponse	0	n/a	n/a	10	60	Fixation	Neutral	True
573.267	0.28	Control	0.6393	0.001	Yes	2.682	-0.001	4.0	GoodResponse	0	0.224	572.491	10	60	Target	Neutral	True
573.491	0.3	Control	0.6393	0.001	Yes	2.682	-0.001	4.0	GoodResponse	0	0.224	n/a	10	60	ButtonPress	Neutral	True
573.55	0.42	Control	0.6393	n/a	Yes	2.682	n/a	n/a	GoodResponse	0	n/a	n/a	10	60	Blank	Neutral	True
573.966	1.45	Control	0.6393	n/a	Yes	2.682	n/a	5.0	GoodResponse	0	0.012	572.978	10	60	Feedback	Neutral	True
575.416	2.682	Control	0.6393	n/a	Yes	2.682	n/a	n/a	GoodResponse	0	0.0	n/a	10	60	ISIslide	Neutral	True
578.115	0.25	Lose2	0.6452	0.0	Yes	2.985	0.015	n/a	GoodResponse	0	n/a	n/a	10	61	Cue	AvoidedLoss	True
578.365	4.0	Lose2	0.6452	0.0	Yes	2.985	0.0	n/a	GoodResponse	0	n/a	n/a	10	61	Fixation	AvoidedLoss	True
582.363	0.29	Lose2	0.6452	0.002	Yes	2.985	-0.002	4.0	GoodResponse	0	0.256	581.619	10	61	Target	AvoidedLoss	True
582.619	0.3	Lose2	0.6452	0.002	Yes	2.985	-0.002	4.0	GoodResponse	0	0.256	n/a	10	61	ButtonPress	AvoidedLoss	True
582.663	0.41	Lose2	0.6452	n/a	Yes	2.985	n/a	n/a	GoodResponse	0	n/a	n/a	10	61	Blank	AvoidedLoss	True
583.063	1.45	Lose2	0.6452	n/a	Yes	2.985	n/a	5.0	GoodResponse	0	0.037	582.1	10	61	Feedback	AvoidedLoss	True
584.513	2.985	Lose2	0.6452	n/a	Yes	2.985	n/a	n/a	GoodResponse	0	0.0	n/a	10	61	ISIslide	AvoidedLoss	True
587.528	0.25	Lose2	0.6507999999999999	0.0	Yes	2.872	0.028	n/a	GoodResponse	0	n/a	n/a	10	62	Cue	AvoidedLoss	True
587.778	3.9	Lose2	0.6507999999999999	0.0	Yes	2.872	0.0	n/a	GoodResponse	0	n/a	n/a	10	62	Fixation	AvoidedLoss	True
591.677	0.3	Lose2	0.6507999999999999	0.001	Yes	2.872	-0.001	4.0	GoodResponse	0	0.241	590.918	10	62	Target	AvoidedLoss	True
591.918	0.3	Lose2	0.6507999999999999	0.001	Yes	2.872	-0.001	4.0	GoodResponse	0	0.241	n/a	10	62	ButtonPress	AvoidedLoss	True
591.977	0.4	Lose2	0.6507999999999999	n/a	Yes	2.872	n/a	n/a	GoodResponse	0	n/a	n/a	10	62	Blank	AvoidedLoss	True
592.377	1.45	Lose2	0.6507999999999999	n/a	Yes	2.872	n/a	5.0	GoodResponse	0	0.039	591.416	10	62	Feedback	AvoidedLoss	True
593.826	2.872	Lose2	0.6507999999999999	n/a	Yes	2.872	n/a	n/a	GoodResponse	0	0.0	n/a	10	62	ISIslide	AvoidedLoss	True
596.725	0.25	Lose2	0.6562	0.0	Yes	2.625	0.025	n/a	GoodResponse	0	n/a	n/a	10	63	Cue	AvoidedLoss	True
596.975	4.05	Lose2	0.6562	0.0	Yes	2.625	0.0	n/a	GoodResponse	0	n/a	n/a	10	63	Fixation	AvoidedLoss	True
601.024	0.31	Lose2	0.6562	0.001	Yes	2.625	-0.001	4.0	GoodResponse	0	0.288	600.312	10	63	Target	AvoidedLoss	True
601.312	0.3	Lose2	0.6562	0.001	Yes	2.625	-0.001	4.0	GoodResponse	0	0.288	n/a	10	63	ButtonPress	AvoidedLoss	True
601.34	0.39	Lose2	0.6562	n/a	Yes	2.625	n/a	n/a	GoodResponse	0	n/a	n/a	10	63	Blank	AvoidedLoss	True
601.724	1.45	Lose2	0.6562	n/a	Yes	2.625	n/a	5.0	GoodResponse	0	0.009	600.733	10	63	Feedback	AvoidedLoss	True
603.173	2.625	Lose2	0.6562	n/a	Yes	2.625	n/a	n/a	GoodResponse	0	0.0	n/a	10	63	ISIslide	AvoidedLoss	True
605.822	0.25	Win2	0.6615000000000001	0.0	Yes	3.128	0.022	n/a	GoodResponse	1	n/a	n/a	11	64	Cue	Win	True
606.072	4.15	Win2	0.6615000000000001	0.0	Yes	3.128	0.0	n/a	GoodResponse	1	n/a	n/a	11	64	Fixation	Win	True
610.221	0.31	Win2	0.6615000000000001	0.001	Yes	3.128	-0.001	4.0	GoodResponse	1	0.189	609.41	11	64	Target	Win	True
610.41	0.3	Win2	0.6615000000000001	0.001	Yes	3.128	-0.001	4.0	GoodResponse	1	0.189	n/a	11	64	ButtonPress	Win	True
610.537	0.39	Win2	0.6615000000000001	n/a	Yes	3.128	n/a	n/a	GoodResponse	1	n/a	n/a	11	64	Blank	Win	True
610.92	1.45	Win2	0.6615000000000001	n/a	Yes	3.128	n/a	5.0	GoodResponse	1	0.033	609.953	11	64	Feedback	Win	True
612.37	3.128	Win2	0.6615000000000001	n/a	Yes	3.128	n/a	n/a	GoodResponse	1	0.0	n/a	11	64	ISIslide	Win	True
615.519	0.25	Control	0.6667000000000001	0.0	Yes	2.781	0.019	n/a	GoodResponse	0	n/a	n/a	11	65	Cue	Neutral	True
615.769	4.0	Control	0.6667000000000001	0.0	Yes	2.781	0.0	n/a	GoodResponse	0	n/a	n/a	11	65	Fixation	Neutral	True
619.767	0.31	Control	0.6667000000000001	0.002	Yes	2.781	-0.002	4.0	GoodResponse	0	0.259	619.026	11	65	Target	Neutral	True
620.026	0.3	Control	0.6667000000000001	0.002	Yes	2.781	-0.002	4.0	GoodResponse	0	0.259	n/a	11	65	ButtonPress	Neutral	True
620.084	0.39	Control	0.6667000000000001	n/a	Yes	2.781	n/a	n/a	GoodResponse	0	n/a	n/a	11	65	Blank	Neutral	True
620.467	1.45	Control	0.6667000000000001	n/a	Yes	2.781	n/a	5.0	GoodResponse	0	0.047	619.514	11	65	Feedback	Neutral	True
621.917	2.781	Control	0.6667000000000001	n/a	Yes	2.781	n/a	n/a	GoodResponse	0	0.0	n/a	11	65	ISIslide	Neutral	True
624.716	0.25	Win2	0.6716	0.0	Yes	2.784	0.016	n/a	GoodResponse	1	n/a	n/a	12	66	Cue	Win	True
624.966	3.9	Win2	0.6716	0.0	Yes	2.784	0.0	n/a	GoodResponse	1	n/a	n/a	12	66	Fixation	Win	True
628.864	0.3	Win2	0.6716	0.002	Yes	2.784	-0.002	4.0	GoodResponse	1	0.232	628.096	12	66	Target	Win	True
629.096	0.3	Win2	0.6716	0.002	Yes	2.784	-0.002	4.0	GoodResponse	1	0.232	n/a	12	66	ButtonPress	Win	True
629.164	0.4	Win2	0.6716	n/a	Yes	2.784	n/a	n/a	GoodResponse	1	n/a	n/a	12	66	Blank	Win	True
629.564	1.45	Win2	0.6716	n/a	Yes	2.784	n/a	5.0	GoodResponse	1	0.023	628.587	12	66	Feedback	Win	True
631.013	2.784	Win2	0.6716	n/a	Yes	2.784	n/a	n/a	GoodResponse	1	0.0	n/a	12	66	ISIslide	Win	True
633.813	0.25	Control	0.6765000000000001	0.0	Yes	2.737	0.013	n/a	GoodResponse	0	n/a	n/a	12	67	Cue	Neutral	True
634.062	3.95	Control	0.6765000000000001	0.001	Yes	2.737	-0.001	n/a	GoodResponse	0	n/a	n/a	12	67	Fixation	Neutral	True
638.011	0.29	Control	0.6765000000000001	0.002	Yes	2.737	-0.002	4.0	GoodResponse	0	0.252	637.263	12	67	Target	Neutral	True
638.263	0.3	Control	0.6765000000000001	0.002	Yes	2.737	-0.002	4.0	GoodResponse	0	0.252	n/a	12	67	ButtonPress	Neutral	True
638.311	0.41	Control	0.6765000000000001	n/a	Yes	2.737	n/a	n/a	GoodResponse	0	n/a	n/a	12	67	Blank	Neutral	True
638.711	1.45	Control	0.6765000000000001	n/a	Yes	2.737	n/a	5.0	GoodResponse	0	0.047	637.758	12	67	Feedback	Neutral	True
640.16	2.737	Control	0.6765000000000001	n/a	Yes	2.737	n/a	n/a	GoodResponse	0	0.0	n/a	12	67	ISIslide	Neutral	True
642.926	0.25	Win2	0.6812	0.0	Yes	3.074	0.026	n/a	GoodResponse	1	n/a	n/a	13	68	Cue	Win	True
643.176	4.0	Win2	0.6812	0.0	Yes	3.074	0.0	n/a	GoodResponse	1	n/a	n/a	13	68	Fixation	Win	True
647.175	0.28	Win2	0.6812	0.001	Yes	3.074	-0.001	4.0	GoodResponse	1	0.241	646.416	13	68	Target	Win	True
647.416	0.3	Win2	0.6812	0.001	Yes	3.074	-0.001	4.0	GoodResponse	1	0.241	n/a	13	68	ButtonPress	Win	True
647.458	0.42	Win2	0.6812	n/a	Yes	3.074	n/a	n/a	GoodResponse	1	n/a	n/a	13	68	Blank	Win	True
647.874	1.45	Win2	0.6812	n/a	Yes	3.074	n/a	5.0	GoodResponse	1	0.007	646.881	13	68	Feedback	Win	True
649.324	3.074	Win2	0.6812	n/a	Yes	3.074	n/a	n/a	GoodResponse	1	0.0	n/a	13	68	ISIslide	Win	True
652.423	0.25	Win2	0.6857	0.0	Yes	3.227	0.023	n/a	GoodResponse	1	n/a	n/a	14	69	Cue	Win	True
652.673	3.95	Win2	0.6857	0.0	Yes	3.227	0.0	n/a	GoodResponse	1	n/a	n/a	14	69	Fixation	Win	True
656.621	0.27	Win2	0.6857	0.002	Yes	3.227	-0.002	4.0	GoodResponse	1	0.223	655.844	14	69	Target	Win	True
656.844	0.3	Win2	0.6857	0.002	Yes	3.227	-0.002	4.0	GoodResponse	1	0.223	n/a	14	69	ButtonPress	Win	True
656.905	0.43	Win2	0.6857	n/a	Yes	3.227	n/a	n/a	GoodResponse	1	n/a	n/a	14	69	Blank	Win	True
657.321	1.45	Win2	0.6857	n/a	Yes	3.227	n/a	5.0	GoodResponse	1	0.023	656.344	14	69	Feedback	Win	True
658.771	3.227	Win2	0.6857	n/a	Yes	3.227	n/a	n/a	GoodResponse	1	0.0	n/a	14	69	ISIslide	Win	True
662.02	0.25	Lose2	0.6901	0.0	Yes	3.03	0.02	n/a	GoodResponse	0	n/a	n/a	14	70	Cue	AvoidedLoss	True
662.269	4.05	Lose2	0.6901	0.001	Yes	3.03	-0.001	n/a	GoodResponse	0	n/a	n/a	14	70	Fixation	AvoidedLoss	True
666.318	0.26	Lose2	0.6901	0.002	Yes	3.03	-0.002	4.0	GoodResponse	0	0.238	665.556	14	70	Target	AvoidedLoss	True
666.556	0.3	Lose2	0.6901	0.002	Yes	3.03	-0.002	4.0	GoodResponse	0	0.238	n/a	14	70	ButtonPress	AvoidedLoss	True
666.585	0.44	Lose2	0.6901	n/a	Yes	3.03	n/a	n/a	GoodResponse	0	n/a	n/a	14	70	Blank	AvoidedLoss	True
667.018	1.45	Lose2	0.6901	n/a	Yes	3.03	n/a	5.0	GoodResponse	0	0.032	666.05	14	70	Feedback	AvoidedLoss	True
668.467	3.03	Lose2	0.6901	n/a	Yes	3.03	n/a	n/a	GoodResponse	0	0.0	n/a	14	70	ISIslide	AvoidedLoss	True
671.516	0.25	Win2	0.6806	0.0	No	2.734	0.016	n/a	NoResponse	0	n/a	n/a	14	71	Cue	MissedWin	True
671.766	4.05	Win2	0.6806	0.0	No	2.734	0.0	n/a	NoResponse	0	n/a	n/a	14	71	Fixation	MissedWin	True
675.815	0.25	Win2	0.6806	0.001	No	2.734	-0.001	4.0	NoResponse	0	0.261	675.076	14	71	Target	MissedWin	True
676.065	0.45	Win2	0.6806	n/a	No	2.734	n/a	n/a	NoResponse	0	n/a	n/a	14	71	Blank	MissedWin	True
676.076	0.3	Win2	0.6806	0.001	No	2.734	-0.001	4.0	NoResponse	0	0.261	n/a	14	71	ButtonPress	MissedWin	True
676.515	1.45	Win2	0.6806	n/a	No	2.734	n/a	5.0	NoResponse	0	0.048	675.563	14	71	Feedback	MissedWin	True
677.964	2.734	Win2	0.6806	n/a	No	2.734	n/a	n/a	NoResponse	0	0.0	n/a	14	71	ISIslide	MissedWin	True
680.73	0.25	Win2	0.6712	0.0	No	2.77	0.03	n/a	NoResponse	0	n/a	n/a	14	72	Cue	MissedWin	True
680.98	4.1	Win2	0.6712	0.0	No	2.77	0.0	n/a	NoResponse	0	n/a	n/a	14	72	Fixation	MissedWin	True
685.078	0.24	Win2	0.6712	0.002	No	2.77	-0.002	4.0	NoResponse	0	0.271	684.349	14	72	Target	MissedWin	True
685.328	0.46	Win2	0.6712	n/a	No	2.77	n/a	n/a	NoResponse	0	n/a	n/a	14	72	Blank	MissedWin	True
685.349	0.3	Win2	0.6712	0.002	No	2.77	-0.002	4.0	NoResponse	0	0.271	n/a	14	72	ButtonPress	MissedWin	True
685.778	1.45	Win2	0.6712	n/a	No	2.77	n/a	5.0	NoResponse	0	0.006	684.784	14	72	Feedback	MissedWin	True
687.228	2.77	Win2	0.6712	n/a	No	2.77	n/a	n/a	NoResponse	0	0.0	n/a	14	72	ISIslide	MissedWin	True
690.027	0.25	Win2	0.6757	0.0	Yes	2.673	0.027	n/a	GoodResponse	1	n/a	n/a	15	73	Cue	Win	True
690.277	4.0	Win2	0.6757	0.0	Yes	2.673	0.0	n/a	GoodResponse	1	n/a	n/a	15	73	Fixation	Win	True
694.275	0.23	Win2	0.6757	0.002	Yes	2.673	-0.002	4.0	GoodResponse	1	0.228	693.503	15	73	Target	Win	True
694.503	0.3	Win2	0.6757	0.002	Yes	2.673	-0.002	4.0	GoodResponse	1	0.228	n/a	15	73	ButtonPress	Win	True
694.508	0.47	Win2	0.6757	n/a	Yes	2.673	n/a	n/a	GoodResponse	1	n/a	n/a	15	73	Blank	Win	True
694.975	1.45	Win2	0.6757	n/a	Yes	2.673	n/a	5.0	GoodResponse	1	0.027	694.002	15	73	Feedback	Win	True
696.424	2.673	Win2	0.6757	n/a	Yes	2.673	n/a	n/a	GoodResponse	1	0.0	n/a	15	73	ISIslide	Win	True
699.123	0.25	Lose2	0.6667000000000001	0.001	No	2.627	0.023	n/a	NoResponse	-1	n/a	n/a	14	74	Cue	Loss	True
699.373	4.05	Lose2	0.6667000000000001	0.0	No	2.627	0.0	n/a	NoResponse	-1	n/a	n/a	14	74	Fixation	Loss	True
703.422	0.22	Lose2	0.6667000000000001	0.001	No	2.627	-0.001	4.0	NoResponse	-1	0.229	702.651	14	74	Target	Loss	True
703.639	0.48	Lose2	0.6667000000000001	n/a	No	2.627	n/a	n/a	NoResponse	-1	n/a	n/a	14	74	Blank	Loss	True
703.651	0.3	Lose2	0.6667000000000001	0.001	No	2.627	-0.001	4.0	NoResponse	-1	0.229	n/a	14	74	ButtonPress	Loss	True
704.122	1.45	Lose2	0.6667000000000001	n/a	No	2.627	n/a	5.0	NoResponse	-1	0.006	703.128	14	74	Feedback	Loss	True
705.571	2.627	Lose2	0.6667000000000001	n/a	No	2.627	n/a	n/a	NoResponse	-1	0.0	n/a	14	74	ISIslide	Loss	True
708.22	0.25	Lose2	0.6579	0.0	No	2.93	0.02	n/a	LatePress	-1	n/a	n/a	13	75	Cue	Loss	True
708.47	3.95	Lose2	0.6579	0.0	No	2.93	0.0	n/a	LatePress	-1	n/a	n/a	13	75	Fixation	Loss	True
712.419	0.21	Lose2	0.6579	0.001	No	2.93	-0.001	4.0	LatePress	-1	0.212	711.631	13	75	Target	Loss	True
712.631	0.3	Lose2	0.6579	0.001	No	2.93	-0.001	4.0	LatePress	-1	0.212	n/a	13	75	ButtonPress	Loss	True
712.636	0.49	Lose2	0.6579	n/a	No	2.93	n/a	n/a	LatePress	-1	n/a	n/a	13	75	Blank	Loss	True
713.119	1.45	Lose2	0.6579	n/a	No	2.93	n/a	5.0	LatePress	-1	0.029	712.148	13	75	Feedback	Loss	True
714.568	2.93	Lose2	0.6579	n/a	No	2.93	n/a	n/a	LatePress	-1	0.0	n/a	13	75	ISIslide	Loss	True
717.517	0.25	Control	0.6494	0.0	No	3.233	0.017	n/a	NoResponse	0	n/a	n/a	13	76	Cue	Neutral	True
717.767	4.05	Control	0.6494	0.0	No	3.233	0.0	n/a	NoResponse	0	n/a	n/a	13	76	Fixation	Neutral	True
721.816	0.21	Control	0.6494	0.001	No	3.233	-0.001	4.0	NoResponse	0	0.229	721.045	13	76	Target	Neutral	True
722.032	0.49	Control	0.6494	n/a	No	3.233	n/a	n/a	NoResponse	0	n/a	n/a	13	76	Blank	Neutral	True
722.045	0.3	Control	0.6494	0.001	No	3.233	-0.001	4.0	NoResponse	0	0.229	n/a	13	76	ButtonPress	Neutral	True
722.515	1.45	Control	0.6494	n/a	No	3.233	n/a	5.0	NoResponse	0	0.048	721.563	13	76	Feedback	Neutral	True
723.965	3.233	Control	0.6494	n/a	No	3.233	n/a	n/a	NoResponse	0	0.0	n/a	13	76	ISIslide	Neutral	True
727.214	0.25	Lose2	0.6537999999999999	0.0	Yes	2.586	0.014	n/a	GoodResponse	0	n/a	n/a	13	77	Cue	AvoidedLoss	True
727.464	3.95	Lose2	0.6537999999999999	0.0	Yes	2.586	0.0	n/a	GoodResponse	0	n/a	n/a	13	77	Fixation	AvoidedLoss	True
731.412	0.22	Lose2	0.6537999999999999	0.002	Yes	2.586	-0.002	4.0	GoodResponse	0	0.209	730.621	13	77	Target	AvoidedLoss	True
731.621	0.3	Lose2	0.6537999999999999	0.002	Yes	2.586	-0.002	4.0	GoodResponse	0	0.209	n/a	13	77	ButtonPress	AvoidedLoss	True
731.646	0.48	Lose2	0.6537999999999999	n/a	Yes	2.586	n/a	n/a	GoodResponse	0	n/a	n/a	13	77	Blank	AvoidedLoss	True
732.112	1.45	Lose2	0.6537999999999999	n/a	Yes	2.586	n/a	5.0	GoodResponse	0	0.012	731.124	13	77	Feedback	AvoidedLoss	True
733.562	2.586	Lose2	0.6537999999999999	n/a	Yes	2.586	n/a	n/a	GoodResponse	0	0.0	n/a	13	77	ISIslide	AvoidedLoss	True
