onset	duration	cue_type	current_mean_accuracy	duration_error	is_hit	isi_adjusted	onset_delay	response	response_type	reward	rt	rt_time	total_reward	trial_number	trial_phase	trial_type	one_press
11.104	0.25	Control	1.0	0.0	Yes	2.946	0.004	n/a	GoodResponse	0	n/a	n/a	0	0	Cue	Neutral	True
11.355	3.85	Control	1.0	0.0	Yes	2.946	0.001	n/a	GoodResponse	0	n/a	n/a	0	0	Fixation	Neutral	True
15.2	0.4	Control	1.0	0.004	Yes	2.946	-0.004	2.0	GoodResponse	0	0.274	14.474	0	0	Target	Neutral	True
15.474	0.3	Control	1.0	0.004	Yes	2.946	-0.004	2.0	GoodResponse	0	0.274	n/a	0	0	ButtonPress	Neutral	True
15.601	0.3	Control	1.0	n/a	Yes	2.946	n/a	n/a	GoodResponse	0	n/a	n/a	0	0	Blank	Neutral	True
15.902	1.45	Control	1.0	n/a	Yes	2.946	n/a	5.0	GoodResponse	0	0.028	14.93	0	0	Feedback	Neutral	True
17.356	2.946	Control	1.0	n/a	Yes	2.946	n/a	n/a	GoodResponse	0	0.0	n/a	0	0	ISIslide	Neutral	True
20.332	0.25	Lose2	1.0	0.0	Yes	2.768	0.032	n/a	GoodResponse	0	n/a	n/a	0	1	Cue	AvoidedLoss	True
20.582	4.0	Lose2	1.0	0.0	Yes	2.768	0.0	n/a	GoodResponse	0	n/a	n/a	0	1	Fixation	AvoidedLoss	True
24.578	0.39	Lose2	1.0	0.004	Yes	2.768	-0.004	2.0	GoodResponse	0	0.242	23.82	0	1	Target	AvoidedLoss	True
24.82	0.3	Lose2	1.0	0.004	Yes	2.768	-0.004	2.0	GoodResponse	0	0.242	n/a	0	1	ButtonPress	AvoidedLoss	True
24.979	0.31	Lose2	1.0	n/a	Yes	2.768	n/a	n/a	GoodResponse	0	n/a	n/a	0	1	Blank	AvoidedLoss	True
25.28	1.45	Lose2	1.0	n/a	Yes	2.768	n/a	5.0	GoodResponse	0	0.015	24.295	0	1	Feedback	AvoidedLoss	True
26.734	2.768	Lose2	1.0	n/a	Yes	2.768	n/a	n/a	GoodResponse	0	0.0	n/a	0	1	ISIslide	AvoidedLoss	True
29.526	0.25	Control	1.0	0.0	Yes	2.574	0.026	n/a	GoodResponse	0	n/a	n/a	0	2	Cue	Neutral	True
29.777	4.1	Control	1.0	0.0	Yes	2.574	0.001	n/a	GoodResponse	0	n/a	n/a	0	2	Fixation	Neutral	True
33.872	0.38	Control	1.0	0.004	Yes	2.574	-0.004	2.0	GoodResponse	0	0.211	33.083	0	2	Target	Neutral	True
34.083	0.3	Control	1.0	0.004	Yes	2.574	-0.004	2.0	GoodResponse	0	0.211	n/a	0	2	ButtonPress	Neutral	True
34.257	0.32	Control	1.0	n/a	Yes	2.574	n/a	n/a	GoodResponse	0	n/a	n/a	0	2	Blank	Neutral	True
34.574	1.45	Control	1.0	n/a	Yes	2.574	n/a	5.0	GoodResponse	0	0.038	33.612	0	2	Feedback	Neutral	True
36.029	2.574	Control	1.0	n/a	Yes	2.574	n/a	n/a	GoodResponse	0	0.0	n/a	0	2	ISIslide	Neutral	True
38.62	0.25	Win2	1.0	0.0	Yes	2.83	0.02	n/a	GoodResponse	1	n/a	n/a	1	3	Cue	Win	True
38.871	3.95	Win2	1.0	0.0	Yes	2.83	0.001	n/a	GoodResponse	1	n/a	n/a	1	3	Fixation	Win	True
42.816	0.37	Win2	1.0	0.004	Yes	2.83	-0.004	2.0	GoodResponse	1	0.225	42.041	1	3	Target	Win	True
43.041	0.3	Win2	1.0	0.004	Yes	2.83	-0.004	2.0	GoodResponse	1	0.225	n/a	1	3	ButtonPress	Win	True
43.2	0.33	Win2	1.0	n/a	Yes	2.83	n/a	n/a	GoodResponse	1	n/a	n/a	1	3	Blank	Win	True
43.518	1.45	Win2	1.0	n/a	Yes	2.83	n/a	5.0	GoodResponse	1	0.021	42.539	1	3	Feedback	Win	True
44.972	2.83	Win2	1.0	n/a	Yes	2.83	n/a	n/a	GoodResponse	1	0.0	n/a	1	3	ISIslide	Win	True
47.831	0.25	Win2	1.0	0.0	Yes	3.269	0.031	n/a	GoodResponse	1	n/a	n/a	2	4	Cue	Win	True
48.082	4.0	Win2	1.0	0.0	Yes	3.269	0.001	n/a	GoodResponse	1	n/a	n/a	2	4	Fixation	Win	True
52.077	0.36	Win2	1.0	0.004	Yes	3.269	-0.004	2.0	GoodResponse	1	0.275	51.352	2	4	Target	Win	True
52.352	0.3	Win2	1.0	0.004	Yes	3.269	-0.004	2.0	GoodResponse	1	0.275	n/a	2	4	ButtonPress	Win	True
52.445	0.34	Win2	1.0	n/a	Yes	3.269	n/a	n/a	GoodResponse	1	n/a	n/a	2	4	Blank	Win	True
52.779	1.45	Win2	1.0	n/a	Yes	3.269	n/a	5.0	GoodResponse	1	0.028	51.807	2	4	Feedback	Win	True
54.233	3.269	Win2	1.0	n/a	Yes	3.269	n/a	n/a	GoodResponse	1	0.0	n/a	2	4	ISIslide	Win	True
57.527	0.25	Win2	1.0	0.0	Yes	2.773	0.027	n/a	GoodResponse	1	n/a	n/a	3	5	Cue	Win	True
57.777	4.0	Win2	1.0	0.0	Yes	2.773	0.0	n/a	GoodResponse	1	n/a	n/a	3	5	Fixation	Win	True
61.773	0.35	Win2	1.0	0.004	Yes	2.773	-0.004	2.0	GoodResponse	1	0.221	60.994	3	5	Target	Win	True
61.994	0.3	Win2	1.0	0.004	Yes	2.773	-0.004	2.0	GoodResponse	1	0.221	n/a	3	5	ButtonPress	Win	True
62.124	0.35	Win2	1.0	n/a	Yes	2.773	n/a	n/a	GoodResponse	1	n/a	n/a	3	5	Blank	Win	True
62.475	1.45	Win2	1.0	n/a	Yes	2.773	n/a	5.0	GoodResponse	1	0.04	61.515	3	5	Feedback	Win	True
63.929	2.773	Win2	1.0	n/a	Yes	2.773	n/a	n/a	GoodResponse	1	0.0	n/a	3	5	ISIslide	Win	True
66.721	0.25	Lose2	1.0	0.0	Yes	2.729	0.021	n/a	GoodResponse	0	n/a	n/a	3	6	Cue	AvoidedLoss	True
66.972	3.95	Lose2	1.0	0.0	Yes	2.729	0.001	n/a	GoodResponse	0	n/a	n/a	3	6	Fixation	AvoidedLoss	True
70.917	0.34	Lose2	1.0	0.004	Yes	2.729	-0.004	2.0	GoodResponse	0	0.257	70.174	3	6	Target	AvoidedLoss	True
71.174	0.3	Lose2	1.0	0.004	Yes	2.729	-0.004	2.0	GoodResponse	0	0.257	n/a	3	6	ButtonPress	AvoidedLoss	True
71.268	0.36	Lose2	1.0	n/a	Yes	2.729	n/a	n/a	GoodResponse	0	n/a	n/a	3	6	Blank	AvoidedLoss	True
71.619	1.45	Lose2	1.0	n/a	Yes	2.729	n/a	5.0	GoodResponse	0	0.018	70.637	3	6	Feedback	AvoidedLoss	True
73.073	2.729	Lose2	1.0	n/a	Yes	2.729	n/a	n/a	GoodResponse	0	0.0	n/a	3	6	ISIslide	AvoidedLoss	True
75.831	0.25	Lose2	1.0	0.001	Yes	4.019	0.031	n/a	GoodResponse	0	n/a	n/a	3	7	Cue	AvoidedLoss	True
76.082	4.05	Lose2	1.0	0.0	Yes	4.019	0.001	n/a	GoodResponse	0	n/a	n/a	3	7	Fixation	AvoidedLoss	True
80.128	0.33	Lose2	1.0	0.003	Yes	4.019	-0.003	2.0	GoodResponse	0	0.212	79.34	3	7	Target	AvoidedLoss	True
80.34	0.3	Lose2	1.0	0.003	Yes	4.019	-0.003	2.0	GoodResponse	0	0.212	n/a	3	7	ButtonPress	AvoidedLoss	True
80.462	0.37	Lose2	1.0	n/a	Yes	4.019	n/a	n/a	GoodResponse	0	n/a	n/a	3	7	Blank	AvoidedLoss	True
80.83	1.45	Lose2	1.0	n/a	Yes	4.019	n/a	5.0	GoodResponse	0	0.026	79.856	3	7	Feedback	AvoidedLoss	True
82.284	4.019	Lose2	1.0	n/a	Yes	4.019	n/a	n/a	GoodResponse	0	0.0	n/a	3	7	ISIslide	AvoidedLoss	True
86.33	0.25	Lose2	1.0	0.0	Yes	3.02	0.03	n/a	GoodResponse	0	n/a	n/a	3	8	Cue	AvoidedLoss	True
86.58	3.95	Lose2	1.0	0.0	Yes	3.02	0.0	n/a	GoodResponse	0	n/a	n/a	3	8	Fixation	AvoidedLoss	True
90.526	0.32	Lose2	1.0	0.004	Yes	3.02	-0.004	2.0	GoodResponse	0	0.233	89.759	3	8	Target	AvoidedLoss	True
90.759	0.3	Lose2	1.0	0.004	Yes	3.02	-0.004	2.0	GoodResponse	0	0.233	n/a	3	8	ButtonPress	AvoidedLoss	True
90.86	0.38	Lose2	1.0	n/a	Yes	3.02	n/a	n/a	GoodResponse	0	n/a	n/a	3	8	Blank	AvoidedLoss	True
91.228	1.45	Lose2	1.0	n/a	Yes	3.02	n/a	5.0	GoodResponse	0	0.019	90.247	3	8	Feedback	AvoidedLoss	True
92.682	3.02	Lose2	1.0	n/a	Yes	3.02	n/a	n/a	GoodResponse	0	0.0	n/a	3	8	ISIslide	AvoidedLoss	True
95.724	0.25	Lose2	1.0	0.001	Yes	3.126	0.024	n/a	GoodResponse	0	n/a	n/a	3	9	Cue	AvoidedLoss	True
95.975	3.95	Lose2	1.0	0.0	Yes	3.126	0.001	n/a	GoodResponse	0	n/a	n/a	3	9	Fixation	AvoidedLoss	True
99.92	0.31	Lose2	1.0	0.004	Yes	3.126	-0.004	2.0	GoodResponse	0	0.272	99.192	3	9	Target	AvoidedLoss	True
100.192	0.3	Lose2	1.0	0.004	Yes	3.126	-0.004	2.0	GoodResponse	0	0.272	n/a	3	9	ButtonPress	AvoidedLoss	True
100.238	0.39	Lose2	1.0	n/a	Yes	3.126	n/a	n/a	GoodResponse	0	n/a	n/a	3	9	Blank	AvoidedLoss	True
100.622	1.45	Lose2	1.0	n/a	Yes	3.126	n/a	5.0	GoodResponse	0	0.039	99.661	3	9	Feedback	AvoidedLoss	True
102.077	3.126	Lose2	1.0	n/a	Yes	3.126	n/a	n/a	GoodResponse	0	0.0	n/a	3	9	ISIslide	AvoidedLoss	True
105.22	0.25	Control	1.0	0.0	Yes	3.28	0.02	n/a	GoodResponse	0	n/a	n/a	3	10	Cue	Neutral	True
105.47	4.0	Control	1.0	0.0	Yes	3.28	0.0	n/a	GoodResponse	0	n/a	n/a	3	10	Fixation	Neutral	True
109.466	0.3	Control	1.0	0.004	Yes	3.28	-0.004	2.0	GoodResponse	0	0.204	108.67	3	10	Target	Neutral	True
109.67	0.3	Control	1.0	0.004	Yes	3.28	-0.004	2.0	GoodResponse	0	0.204	n/a	3	10	ButtonPress	Neutral	True
109.767	0.4	Control	1.0	n/a	Yes	3.28	n/a	n/a	GoodResponse	0	n/a	n/a	3	10	Blank	Neutral	True
110.168	1.45	Control	1.0	n/a	Yes	3.28	n/a	5.0	GoodResponse	0	0.008	109.176	3	10	Feedback	Neutral	True
111.622	3.28	Control	1.0	n/a	Yes	3.28	n/a	n/a	GoodResponse	0	0.0	n/a	3	10	ISIslide	Neutral	True
114.932	0.25	Lose2	1.0	0.0	Yes	2.718	0.032	n/a	GoodResponse	0	n/a	n/a	3	11	Cue	AvoidedLoss	True
115.183	4.05	Lose2	1.0	0.0	Yes	2.718	0.001	n/a	GoodResponse	0	n/a	n/a	3	11	Fixation	AvoidedLoss	True
119.228	0.29	Lose2	1.0	0.004	Yes	2.718	-0.004	2.0	GoodResponse	0	0.219	118.447	3	11	Target	AvoidedLoss	True
119.447	0.3	Lose2	1.0	0.004	Yes	2.718	-0.004	2.0	GoodResponse	0	0.219	n/a	3	11	ButtonPress	AvoidedLoss	True
119.529	0.41	Lose2	1.0	n/a	Yes	2.718	n/a	n/a	GoodResponse	0	n/a	n/a	3	11	Blank	AvoidedLoss	True
119.93	1.45	Lose2	1.0	n/a	Yes	2.718	n/a	5.0	GoodResponse	0	0.048	118.978	3	11	Feedback	AvoidedLoss	True
121.385	2.718	Lose2	1.0	n/a	Yes	2.718	n/a	n/a	GoodResponse	0	0.0	n/a	3	11	ISIslide	AvoidedLoss	True
124.126	0.25	Control	1.0	0.0	Yes	2.974	0.026	n/a	GoodResponse	0	n/a	n/a	3	12	Cue	Neutral	True
124.377	3.9	Control	1.0	0.0	Yes	2.974	0.001	n/a	GoodResponse	0	n/a	n/a	3	12	Fixation	Neutral	True
128.272	0.28	Control	1.0	0.004	Yes	2.974	-0.004	2.0	GoodResponse	0	0.248	127.52	3	12	Target	Neutral	True
128.52	0.3	Control	1.0	0.004	Yes	2.974	-0.004	2.0	GoodResponse	0	0.248	n/a	3	12	ButtonPress	Neutral	True
128.556	0.42	Control	1.0	n/a	Yes	2.974	n/a	n/a	GoodResponse	0	n/a	n/a	3	12	Blank	Neutral	True
128.974	1.45	Control	1.0	n/a	Yes	2.974	n/a	5.0	GoodResponse	0	0.028	128.002	3	12	Feedback	Neutral	True
130.429	2.974	Control	1.0	n/a	Yes	2.974	n/a	n/a	GoodResponse	0	0.0	n/a	3	12	ISIslide	Neutral	True
133.421	0.25	Control	1.0	0.0	Yes	2.779	0.021	n/a	GoodResponse	0	n/a	n/a	3	13	Cue	Neutral	True
133.672	4.0	Control	1.0	0.0	Yes	2.779	0.001	n/a	GoodResponse	0	n/a	n/a	3	13	Fixation	Neutral	True
137.667	0.27	Control	1.0	0.004	Yes	2.779	-0.004	2.0	GoodResponse	0	0.208	136.875	3	13	Target	Neutral	True
137.875	0.3	Control	1.0	0.004	Yes	2.779	-0.004	2.0	GoodResponse	0	0.208	n/a	3	13	ButtonPress	Neutral	True
137.951	0.43	Control	1.0	n/a	Yes	2.779	n/a	n/a	GoodResponse	0	n/a	n/a	3	13	Blank	Neutral	True
138.369	1.45	Control	1.0	n/a	Yes	2.779	n/a	5.0	GoodResponse	0	0.048	137.417	3	13	Feedback	Neutral	True
139.823	2.779	Control	1.0	n/a	Yes	2.779	n/a	n/a	GoodResponse	0	0.0	n/a	3	13	ISIslide	Neutral	True
142.632	0.25	Win2	1.0	0.0	Yes	2.668	0.032	n/a	GoodResponse	1	n/a	n/a	4	14	Cue	Win	True
142.883	4.1	Win2	1.0	0.0	Yes	2.668	0.001	n/a	GoodResponse	1	n/a	n/a	4	14	Fixation	Win	True
146.978	0.26	Win2	1.0	0.004	Yes	2.668	-0.004	2.0	GoodResponse	1	0.201	146.179	4	14	Target	Win	True
147.179	0.3	Win2	1.0	0.004	Yes	2.668	-0.004	2.0	GoodResponse	1	0.201	n/a	4	14	ButtonPress	Win	True
147.246	0.44	Win2	1.0	n/a	Yes	2.668	n/a	n/a	GoodResponse	1	n/a	n/a	4	14	Blank	Win	True
147.68	1.45	Win2	1.0	n/a	Yes	2.668	n/a	5.0	GoodResponse	1	0.008	146.688	4	14	Feedback	Win	True
149.135	2.668	Win2	1.0	n/a	Yes	2.668	n/a	n/a	GoodResponse	1	0.0	n/a	4	14	ISIslide	Win	True
151.826	0.25	Control	0.9375	0.0	No	2.974	0.026	n/a	NoResponse	0	n/a	n/a	4	15	Cue	Neutral	True
152.077	4.0	Control	0.9375	0.0	No	2.974	0.001	n/a	NoResponse	0	n/a	n/a	4	15	Fixation	Neutral	True
156.072	0.25	Control	0.9375	0.004	No	2.974	-0.004	2.0	NoResponse	0	0.318	155.39	4	15	Target	Neutral	True
156.323	0.45	Control	0.9375	n/a	No	2.974	n/a	n/a	NoResponse	0	n/a	n/a	4	15	Blank	Neutral	True
156.39	0.3	Control	0.9375	0.004	No	2.974	-0.004	2.0	NoResponse	0	0.318	n/a	4	15	ButtonPress	Neutral	True
156.774	1.45	Control	0.9375	n/a	No	2.974	n/a	5.0	NoResponse	0	0.034	155.808	4	15	Feedback	Neutral	True
158.229	2.974	Control	0.9375	n/a	No	2.974	n/a	n/a	NoResponse	0	0.0	n/a	4	15	ISIslide	Neutral	True
161.221	0.25	Win2	0.9412	0.0	Yes	2.879	0.021	n/a	GoodResponse	1	n/a	n/a	5	16	Cue	Win	True
161.472	4.0	Win2	0.9412	0.0	Yes	2.879	0.001	n/a	GoodResponse	1	n/a	n/a	5	16	Fixation	Win	True
165.467	0.24	Win2	0.9412	0.004	Yes	2.879	-0.004	2.0	GoodResponse	1	0.209	164.676	5	16	Target	Win	True
165.676	0.3	Win2	0.9412	0.004	Yes	2.879	-0.004	2.0	GoodResponse	1	0.209	n/a	5	16	ButtonPress	Win	True
165.718	0.46	Win2	0.9412	n/a	Yes	2.879	n/a	n/a	GoodResponse	1	n/a	n/a	5	16	Blank	Win	True
166.169	1.45	Win2	0.9412	n/a	Yes	2.879	n/a	5.0	GoodResponse	1	0.007	165.176	5	16	Feedback	Win	True
167.623	2.879	Win2	0.9412	n/a	Yes	2.879	n/a	n/a	GoodResponse	1	0.0	n/a	5	16	ISIslide	Win	True
170.515	0.25	Lose2	0.8889	0.001	No	2.735	0.015	n/a	LatePress	-1	n/a	n/a	4	17	Cue	Loss	True
170.766	3.95	Lose2	0.8889	0.0	No	2.735	0.001	n/a	LatePress	-1	n/a	n/a	4	17	Fixation	Loss	True
174.711	0.23	Lose2	0.8889	0.004	No	2.735	-0.004	2.0	LatePress	-1	0.232	173.943	4	17	Target	Loss	True
174.943	0.3	Lose2	0.8889	0.004	No	2.735	-0.004	2.0	LatePress	-1	0.232	n/a	4	17	ButtonPress	Loss	True
174.945	0.47	Lose2	0.8889	n/a	No	2.735	n/a	n/a	LatePress	-1	n/a	n/a	4	17	Blank	Loss	True
175.413	1.45	Lose2	0.8889	n/a	No	2.735	n/a	5.0	LatePress	-1	0.028	174.441	4	17	Feedback	Loss	True
176.868	2.735	Lose2	0.8889	n/a	No	2.735	n/a	n/a	LatePress	-1	0.0	n/a	4	17	ISIslide	Loss	True
179.626	0.25	Lose2	0.8946999999999999	0.0	Yes	2.724	0.026	n/a	GoodResponse	0	n/a	n/a	4	18	Cue	AvoidedLoss	True
179.877	4.05	Lose2	0.8946999999999999	0.0	Yes	2.724	0.001	n/a	GoodResponse	0	n/a	n/a	4	18	Fixation	AvoidedLoss	True
183.922	0.22	Lose2	0.8946999999999999	0.004	Yes	2.724	-0.004	2.0	GoodResponse	0	0.205	183.127	4	18	Target	AvoidedLoss	True
184.127	0.3	Lose2	0.8946999999999999	0.004	Yes	2.724	-0.004	2.0	GoodResponse	0	0.205	n/a	4	18	ButtonPress	AvoidedLoss	True
184.156	0.48	Lose2	0.8946999999999999	n/a	Yes	2.724	n/a	n/a	GoodResponse	0	n/a	n/a	4	18	Blank	AvoidedLoss	True
184.624	1.45	Lose2	0.8946999999999999	n/a	Yes	2.724	n/a	5.0	GoodResponse	0	0.037	183.661	4	18	Feedback	AvoidedLoss	True
186.079	2.724	Lose2	0.8946999999999999	n/a	Yes	2.724	n/a	n/a	GoodResponse	0	0.0	n/a	4	18	ISIslide	AvoidedLoss	True
188.82	0.25	Control	0.85	0.0	No	2.93	0.02	n/a	NoResponse	0	n/a	n/a	4	19	Cue	Neutral	True
189.071	3.95	Control	0.85	0.0	No	2.93	0.001	n/a	NoResponse	0	n/a	n/a	4	19	Fixation	Neutral	True
193.016	0.21	Control	0.85	0.004	No	2.93	-0.004	2.0	NoResponse	0	0.3	192.316	4	19	Target	Neutral	True
193.234	0.49	Control	0.85	n/a	No	2.93	n/a	n/a	NoResponse	0	n/a	n/a	4	19	Blank	Neutral	True
193.316	0.3	Control	0.85	0.004	No	2.93	-0.004	2.0	NoResponse	0	0.3	n/a	4	19	ButtonPress	Neutral	True
193.718	1.45	Control	0.85	n/a	No	2.93	n/a	5.0	NoResponse	0	0.016	192.734	4	19	Feedback	Neutral	True
195.173	2.93	Control	0.85	n/a	No	2.93	n/a	n/a	NoResponse	0	0.0	n/a	4	19	ISIslide	Neutral	True
198.115	0.25	Control	0.8571	0.0	Yes	2.635	0.015	n/a	GoodResponse	0	n/a	n/a	4	20	Cue	Neutral	True
198.366	4.05	Control	0.8571	0.0	Yes	2.635	0.001	n/a	GoodResponse	0	n/a	n/a	4	20	Fixation	Neutral	True
202.411	0.2	Control	0.8571	0.004	Yes	2.635	-0.004	2.0	GoodResponse	0	0.188	201.599	4	20	Target	Neutral	True
202.599	0.3	Control	0.8571	0.004	Yes	2.635	-0.004	2.0	GoodResponse	0	0.188	n/a	4	20	ButtonPress	Neutral	True
202.612	0.5	Control	0.8571	n/a	Yes	2.635	n/a	n/a	GoodResponse	0	n/a	n/a	4	20	Blank	Neutral	True
203.113	1.45	Control	0.8571	n/a	Yes	2.635	n/a	5.0	GoodResponse	0	0.036	202.149	4	20	Feedback	Neutral	True
204.568	2.635	Control	0.8571	n/a	Yes	2.635	n/a	n/a	GoodResponse	0	0.0	n/a	4	20	ISIslide	Neutral	True
207.226	0.25	Control	0.8181999999999999	0.0	No	2.774	0.026	n/a	NoResponse	0	n/a	n/a	4	21	Cue	Neutral	False
207.476	4.1	Control	0.8181999999999999	0.0	No	2.774	0.0	2.0	NoResponse	0	3.298	209.774	4	21	Fixation	Neutral	False
210.774	0.3	Control	0.8181999999999999	0.0	No	2.774	0.0	2.0	NoResponse	0	3.298	n/a	4	21	ButtonPress	Neutral	False
211.572	0.19	Control	0.8181999999999999	0.004	No	2.774	-0.004	2.0	NoResponse	0	0.255	210.827	4	21	Target	Neutral	False
211.773	0.51	Control	0.8181999999999999	n/a	No	2.774	n/a	n/a	NoResponse	0	n/a	n/a	4	21	Blank	Neutral	False
211.827	0.3	Control	0.8181999999999999	0.004	No	2.774	-0.004	2.0	NoResponse	0	0.255	n/a	4	21	ButtonPress	Neutral	False
212.274	1.45	Control	0.8181999999999999	n/a	No	2.774	n/a	5.0	NoResponse	0	0.046	211.32	4	21	Feedback	Neutral	False
213.728	2.774	Control	0.8181999999999999	n/a	No	2.774	n/a	n/a	NoResponse	0	0.0	n/a	4	21	ISIslide	Neutral	False
216.52	0.25	Control	0.7826000000000001	0.0	No	2.78	0.02	n/a	NoResponse	0	n/a	n/a	4	22	Cue	Neutral	True
216.771	4.0	Control	0.7826000000000001	0.0	No	2.78	0.001	n/a	NoResponse	0	n/a	n/a	4	22	Fixation	Neutral	True
220.766	0.18	Control	0.7826000000000001	0.004	No	2.78	-0.004	2.0	NoResponse	0	0.258	220.024	4	22	Target	Neutral	True
220.95	0.52	Control	0.7826000000000001	n/a	No	2.78	n/a	n/a	NoResponse	0	n/a	n/a	4	22	Blank	Neutral	True
221.024	0.3	Control	0.7826000000000001	0.004	No	2.78	-0.004	2.0	NoResponse	0	0.258	n/a	4	22	ButtonPress	Neutral	True
221.468	1.45	Control	0.7826000000000001	n/a	No	2.78	n/a	5.0	NoResponse	0	0.022	220.49	4	22	Feedback	Neutral	True
222.923	2.78	Control	0.7826000000000001	n/a	No	2.78	n/a	n/a	NoResponse	0	0.0	n/a	4	22	ISIslide	Neutral	True
225.714	0.25	Control	0.75	0.001	No	2.786	0.014	n/a	NoResponse	0	n/a	n/a	4	23	Cue	Neutral	True
225.965	3.9	Control	0.75	0.0	No	2.786	0.001	n/a	NoResponse	0	n/a	n/a	4	23	Fixation	Neutral	True
229.86	0.17	Control	0.75	0.004	No	2.786	-0.004	2.0	NoResponse	0	0.248	229.108	4	23	Target	Neutral	True
230.044	0.53	Control	0.75	n/a	No	2.786	n/a	n/a	NoResponse	0	n/a	n/a	4	23	Blank	Neutral	True
230.108	0.3	Control	0.75	0.004	No	2.786	-0.004	2.0	NoResponse	0	0.248	n/a	4	23	ButtonPress	Neutral	True
230.562	1.45	Control	0.75	n/a	No	2.786	n/a	5.0	NoResponse	0	0.002	229.564	4	23	Feedback	Neutral	True
232.017	2.786	Control	0.75	n/a	No	2.786	n/a	n/a	NoResponse	0	0.0	n/a	4	23	ISIslide	Neutral	True
234.825	0.25	Win2	0.72	0.0	No	3.125	0.025	n/a	NoResponse	0	n/a	n/a	4	24	Cue	MissedWin	True
235.076	3.95	Win2	0.72	0.0	No	3.125	0.001	n/a	NoResponse	0	n/a	n/a	4	24	Fixation	MissedWin	True
239.021	0.16	Win2	0.72	0.004	No	3.125	-0.004	2.0	NoResponse	0	0.21	238.231	4	24	Target	MissedWin	True
239.188	0.54	Win2	0.72	n/a	No	3.125	n/a	n/a	NoResponse	0	n/a	n/a	4	24	Blank	MissedWin	True
239.231	0.3	Win2	0.72	0.004	No	3.125	-0.004	2.0	NoResponse	0	0.21	n/a	4	24	ButtonPress	MissedWin	True
239.723	1.45	Win2	0.72	n/a	No	3.125	n/a	5.0	NoResponse	0	0.012	238.735	4	24	Feedback	MissedWin	True
241.177	3.125	Win2	0.72	n/a	No	3.125	n/a	n/a	NoResponse	0	0.0	n/a	4	24	ISIslide	MissedWin	True
244.32	0.25	Win2	0.6923	0.0	No	3.08	0.02	n/a	NoResponse	0	n/a	n/a	4	25	Cue	MissedWin	True
244.571	4.0	Win2	0.6923	0.0	No	3.08	0.001	n/a	NoResponse	0	n/a	n/a	4	25	Fixation	MissedWin	True
248.566	0.15	Win2	0.6923	0.004	No	3.08	-0.004	2.0	NoResponse	0	0.2	247.766	4	25	Target	MissedWin	True
248.717	0.55	Win2	0.6923	n/a	No	3.08	n/a	n/a	NoResponse	0	n/a	n/a	4	25	Blank	MissedWin	True
248.766	0.3	Win2	0.6923	0.004	No	3.08	-0.004	2.0	NoResponse	0	0.2	n/a	4	25	ButtonPress	MissedWin	True
249.268	1.45	Win2	0.6923	n/a	No	3.08	n/a	5.0	NoResponse	0	0.027	248.295	4	25	Feedback	MissedWin	True
250.723	3.08	Win2	0.6923	n/a	No	3.08	n/a	n/a	NoResponse	0	0.0	n/a	4	25	ISIslide	MissedWin	True
253.815	0.25	Win2	0.6667000000000001	0.0	No	2.935	0.015	n/a	NoResponse	0	n/a	n/a	4	26	Cue	MissedWin	True
254.066	3.95	Win2	0.6667000000000001	0.0	No	2.935	0.001	n/a	NoResponse	0	n/a	n/a	4	26	Fixation	MissedWin	True
258.011	0.15	Win2	0.6667000000000001	0.004	No	2.935	-0.004	2.0	NoResponse	0	0.204	257.215	4	26	Target	MissedWin	True
258.162	0.55	Win2	0.6667000000000001	n/a	No	2.935	n/a	n/a	NoResponse	0	n/a	n/a	4	26	Blank	MissedWin	True
258.215	0.3	Win2	0.6667000000000001	0.004	No	2.935	-0.004	2.0	NoResponse	0	0.204	n/a	4	26	ButtonPress	MissedWin	True
258.713	1.45	Win2	0.6667000000000001	n/a	No	2.935	n/a	5.0	NoResponse	0	0.045	257.758	4	26	Feedback	MissedWin	True
260.168	2.935	Win2	0.6667000000000001	n/a	No	2.935	n/a	n/a	NoResponse	0	0.0	n/a	4	26	ISIslide	MissedWin	True
263.127	0.25	Lose2	0.6429	0.0	No	2.823	0.027	n/a	NoResponse	-1	n/a	n/a	3	27	Cue	Loss	True
263.377	4.05	Lose2	0.6429	0.0	No	2.823	0.0	n/a	NoResponse	-1	n/a	n/a	3	27	Fixation	Loss	True
267.423	0.15	Lose2	0.6429	0.004	No	2.823	-0.004	2.0	NoResponse	-1	0.213	266.636	3	27	Target	Loss	True
267.573	0.55	Lose2	0.6429	n/a	No	2.823	n/a	n/a	NoResponse	-1	n/a	n/a	3	27	Blank	Loss	True
267.636	0.3	Lose2	0.6429	0.004	No	2.823	-0.004	2.0	NoResponse	-1	0.213	n/a	3	27	ButtonPress	Loss	True
268.125	1.45	Lose2	0.6429	n/a	No	2.823	n/a	5.0	NoResponse	-1	0.048	267.173	3	27	Feedback	Loss	True
269.579	2.823	Lose2	0.6429	n/a	No	2.823	n/a	n/a	NoResponse	-1	0.0	n/a	3	27	ISIslide	Loss	True
272.421	0.25	Control	0.6207	0.0	No	2.829	0.021	n/a	NoResponse	0	n/a	n/a	3	28	Cue	Neutral	True
272.672	4.05	Control	0.6207	0.0	No	2.829	0.001	n/a	NoResponse	0	n/a	n/a	3	28	Fixation	Neutral	True
276.717	0.16	Control	0.6207	0.004	No	2.829	-0.004	2.0	NoResponse	0	0.21	275.927	3	28	Target	Neutral	True
276.885	0.54	Control	0.6207	n/a	No	2.829	n/a	n/a	NoResponse	0	n/a	n/a	3	28	Blank	Neutral	True
276.927	0.3	Control	0.6207	0.004	No	2.829	-0.004	2.0	NoResponse	0	0.21	n/a	3	28	ButtonPress	Neutral	True
277.42	1.45	Control	0.6207	n/a	No	2.829	n/a	5.0	NoResponse	0	0.021	276.441	3	28	Feedback	Neutral	True
278.874	2.829	Control	0.6207	n/a	No	2.829	n/a	n/a	NoResponse	0	0.0	n/a	3	28	ISIslide	Neutral	True
281.716	0.25	Lose2	0.6	0.0	No	2.834	0.016	n/a	NoResponse	-1	n/a	n/a	2	29	Cue	Loss	True
281.966	3.95	Lose2	0.6	0.001	No	2.834	0.0	n/a	NoResponse	-1	n/a	n/a	2	29	Fixation	Loss	True
285.912	0.17	Lose2	0.6	0.004	No	2.834	-0.004	2.0	NoResponse	-1	0.204	285.116	2	29	Target	Loss	True
286.096	0.53	Lose2	0.6	n/a	No	2.834	n/a	n/a	NoResponse	-1	n/a	n/a	2	29	Blank	Loss	True
286.116	0.3	Lose2	0.6	0.004	No	2.834	-0.004	2.0	NoResponse	-1	0.204	n/a	2	29	ButtonPress	Loss	True
286.614	1.45	Lose2	0.6	n/a	No	2.834	n/a	5.0	NoResponse	-1	0.047	285.661	2	29	Feedback	Loss	True
288.068	2.834	Lose2	0.6	n/a	No	2.834	n/a	n/a	NoResponse	-1	0.0	n/a	2	29	ISIslide	Loss	True
290.927	0.25	Win2	0.5806	0.0	No	2.773	0.027	n/a	NoResponse	0	n/a	n/a	2	30	Cue	MissedWin	True
291.177	3.9	Win2	0.5806	0.001	No	2.773	0.0	n/a	NoResponse	0	n/a	n/a	2	30	Fixation	MissedWin	True
295.089	0.18	Win2	0.5806	0.0	No	2.773	0.012	2.0	NoResponse	0	0.206	294.295	2	30	Target	MissedWin	True
295.256	0.52	Win2	0.5806	n/a	No	2.773	n/a	n/a	NoResponse	0	n/a	n/a	2	30	Blank	MissedWin	True
295.295	0.3	Win2	0.5806	0.0	No	2.773	0.012	2.0	NoResponse	0	0.206	n/a	2	30	ButtonPress	MissedWin	True
295.775	1.45	Win2	0.5806	n/a	No	2.773	n/a	5.0	NoResponse	0	0.008	294.783	2	30	Feedback	MissedWin	True
297.229	2.773	Win2	0.5806	n/a	No	2.773	n/a	n/a	NoResponse	0	0.0	n/a	2	30	ISIslide	MissedWin	True
300.021	0.25	Lose2	0.5625	0.0	No	2.829	0.021	n/a	NoResponse	-1	n/a	n/a	1	31	Cue	Loss	True
300.271	4.05	Lose2	0.5625	0.0	No	2.829	0.0	n/a	NoResponse	-1	n/a	n/a	1	31	Fixation	Loss	True
304.317	0.19	Lose2	0.5625	0.004	No	2.829	-0.004	2.0	NoResponse	-1	0.277	303.594	1	31	Target	Loss	True
304.517	0.51	Lose2	0.5625	n/a	No	2.829	n/a	n/a	NoResponse	-1	n/a	n/a	1	31	Blank	Loss	True
304.594	0.3	Lose2	0.5625	0.004	No	2.829	-0.004	2.0	NoResponse	-1	0.277	n/a	1	31	ButtonPress	Loss	True
305.019	1.45	Lose2	0.5625	n/a	No	2.829	n/a	5.0	NoResponse	-1	0.032	304.051	1	31	Feedback	Loss	True
306.473	2.829	Lose2	0.5625	n/a	No	2.829	n/a	n/a	NoResponse	-1	0.0	n/a	1	31	ISIslide	Loss	True
309.315	0.25	Lose2	0.5455	0.0	No	2.635	0.015	n/a	NoResponse	-1	n/a	n/a	0	32	Cue	Loss	True
309.566	4.15	Lose2	0.5455	0.0	No	2.635	0.001	n/a	NoResponse	-1	n/a	n/a	0	32	Fixation	Loss	True
313.712	0.2	Lose2	0.5455	0.003	No	2.635	-0.003	2.0	NoResponse	-1	0.21	312.922	0	32	Target	Loss	True
313.912	0.5	Lose2	0.5455	n/a	No	2.635	n/a	n/a	NoResponse	-1	n/a	n/a	0	32	Blank	Loss	True
313.922	0.3	Lose2	0.5455	0.003	No	2.635	-0.003	2.0	NoResponse	-1	0.21	n/a	0	32	ButtonPress	Loss	True
314.414	1.45	Lose2	0.5455	n/a	No	2.635	n/a	5.0	NoResponse	-1	0.006	313.42	0	32	Feedback	Loss	True
315.868	2.635	Lose2	0.5455	n/a	No	2.635	n/a	n/a	NoResponse	-1	0.0	n/a	0	32	ISIslide	Loss	True
318.526	0.25	Win2	0.5588000000000001	0.0	Yes	2.674	0.026	n/a	GoodResponse	1	n/a	n/a	1	33	Cue	Win	True
318.777	4.0	Win2	0.5588000000000001	0.0	Yes	2.674	0.001	n/a	GoodResponse	1	n/a	n/a	1	33	Fixation	Win	True
322.772	0.21	Win2	0.5588000000000001	0.004	Yes	2.674	-0.004	2.0	GoodResponse	1	0.199	321.971	1	33	Target	Win	True
322.971	0.3	Win2	0.5588000000000001	0.004	Yes	2.674	-0.004	2.0	GoodResponse	1	0.199	n/a	1	33	ButtonPress	Win	True
322.99	0.49	Win2	0.5588000000000001	n/a	Yes	2.674	n/a	n/a	GoodResponse	1	n/a	n/a	1	33	Blank	Win	True
323.474	1.45	Win2	0.5588000000000001	n/a	Yes	2.674	n/a	5.0	GoodResponse	1	0.016	322.49	1	33	Feedback	Win	True
324.929	2.674	Win2	0.5588000000000001	n/a	Yes	2.674	n/a	n/a	GoodResponse	1	0.0	n/a	1	33	ISIslide	Win	True
327.62	0.25	Lose2	0.5714	0.0	Yes	2.63	0.02	n/a	GoodResponse	0	n/a	n/a	1	34	Cue	AvoidedLoss	True
327.871	4.05	Lose2	0.5714	0.0	Yes	2.63	0.001	n/a	GoodResponse	0	n/a	n/a	1	34	Fixation	AvoidedLoss	True
331.916	0.22	Lose2	0.5714	0.004	Yes	2.63	-0.004	2.0	GoodResponse	0	0.19	331.106	1	34	Target	AvoidedLoss	True
332.106	0.3	Lose2	0.5714	0.004	Yes	2.63	-0.004	2.0	GoodResponse	0	0.19	n/a	1	34	ButtonPress	AvoidedLoss	True
332.15	0.48	Lose2	0.5714	n/a	Yes	2.63	n/a	n/a	GoodResponse	0	n/a	n/a	1	34	Blank	AvoidedLoss	True
332.618	1.45	Lose2	0.5714	n/a	Yes	2.63	n/a	5.0	GoodResponse	0	0.043	331.661	1	34	Feedback	AvoidedLoss	True
334.073	2.63	Lose2	0.5714	n/a	Yes	2.63	n/a	n/a	GoodResponse	0	0.0	n/a	1	34	ISIslide	AvoidedLoss	True
336.731	0.25	Lose2	0.5832999999999999	0.0	Yes	2.669	0.031	n/a	GoodResponse	0	n/a	n/a	1	35	Cue	AvoidedLoss	True
336.982	4.0	Lose2	0.5832999999999999	0.0	Yes	2.669	0.001	n/a	GoodResponse	0	n/a	n/a	1	35	Fixation	AvoidedLoss	True
340.977	0.23	Lose2	0.5832999999999999	0.004	Yes	2.669	-0.004	2.0	GoodResponse	0	0.207	340.184	1	35	Target	AvoidedLoss	True
341.184	0.3	Lose2	0.5832999999999999	0.004	Yes	2.669	-0.004	2.0	GoodResponse	0	0.207	n/a	1	35	ButtonPress	AvoidedLoss	True
341.211	0.47	Lose2	0.5832999999999999	n/a	Yes	2.669	n/a	n/a	GoodResponse	0	n/a	n/a	1	35	Blank	AvoidedLoss	True
341.679	1.45	Lose2	0.5832999999999999	n/a	Yes	2.669	n/a	5.0	GoodResponse	0	0.008	340.687	1	35	Feedback	AvoidedLoss	True
343.133	2.669	Lose2	0.5832999999999999	n/a	Yes	2.669	n/a	n/a	GoodResponse	0	0.0	n/a	1	35	ISIslide	AvoidedLoss	True
345.825	0.25	Control	0.5676	0.0	No	2.675	0.025	n/a	PrematurePress	0	n/a	n/a	1	36	Cue	Neutral	True
346.075	4.0	Control	0.5676	0.001	No	2.675	0.0	n/a	PrematurePress	0	n/a	n/a	1	36	Fixation	Neutral	True
350.071	0.24	Control	0.5676	0.004	No	2.675	-0.004	2.0	PrematurePress	0	0.099	349.17	1	36	Target	Neutral	True
350.17	0.3	Control	0.5676	0.004	No	2.675	-0.004	2.0	PrematurePress	0	0.099	n/a	1	36	ButtonPress	Neutral	True
350.322	0.46	Control	0.5676	n/a	No	2.675	n/a	n/a	PrematurePress	0	n/a	n/a	1	36	Blank	Neutral	True
350.773	1.45	Control	0.5676	n/a	No	2.675	n/a	5.0	PrematurePress	0	0.034	349.807	1	36	Feedback	Neutral	True
352.227	2.675	Control	0.5676	n/a	No	2.675	n/a	n/a	PrematurePress	0	0.0	n/a	1	36	ISIslide	Neutral	True
354.919	0.25	Win2	0.5789	0.0	Yes	2.881	0.019	n/a	GoodResponse	1	n/a	n/a	2	37	Cue	Win	True
355.169	4.0	Win2	0.5789	0.0	Yes	2.881	0.0	n/a	GoodResponse	1	n/a	n/a	2	37	Fixation	Win	True
359.165	0.25	Win2	0.5789	0.004	Yes	2.881	-0.004	2.0	GoodResponse	1	0.203	358.368	2	37	Target	Win	True
359.368	0.3	Win2	0.5789	0.004	Yes	2.881	-0.004	2.0	GoodResponse	1	0.203	n/a	2	37	ButtonPress	Win	True
359.415	0.45	Win2	0.5789	n/a	Yes	2.881	n/a	n/a	GoodResponse	1	n/a	n/a	2	37	Blank	Win	True
359.867	1.45	Win2	0.5789	n/a	Yes	2.881	n/a	5.0	GoodResponse	1	0.013	358.88	2	37	Feedback	Win	True
361.321	2.881	Win2	0.5789	n/a	Yes	2.881	n/a	n/a	GoodResponse	1	0.0	n/a	2	37	ISIslide	Win	True
364.23	0.25	Lose2	0.5897	0.0	Yes	2.82	0.03	n/a	GoodResponse	0	n/a	n/a	2	38	Cue	AvoidedLoss	True
364.481	3.95	Lose2	0.5897	0.0	Yes	2.82	0.001	n/a	GoodResponse	0	n/a	n/a	2	38	Fixation	AvoidedLoss	True
368.426	0.26	Lose2	0.5897	0.004	Yes	2.82	-0.004	2.0	GoodResponse	0	0.216	367.642	2	38	Target	AvoidedLoss	True
368.642	0.3	Lose2	0.5897	0.004	Yes	2.82	-0.004	2.0	GoodResponse	0	0.216	n/a	2	38	ButtonPress	AvoidedLoss	True
368.693	0.44	Lose2	0.5897	n/a	Yes	2.82	n/a	n/a	GoodResponse	0	n/a	n/a	2	38	Blank	AvoidedLoss	True
369.128	1.45	Lose2	0.5897	n/a	Yes	2.82	n/a	5.0	GoodResponse	0	0.021	368.149	2	38	Feedback	AvoidedLoss	True
370.582	2.82	Lose2	0.5897	n/a	Yes	2.82	n/a	n/a	GoodResponse	0	0.0	n/a	2	38	ISIslide	AvoidedLoss	True
373.424	0.25	Win2	0.6	0.0	Yes	2.976	0.024	n/a	GoodResponse	1	n/a	n/a	3	39	Cue	Win	True
373.675	4.1	Win2	0.6	0.0	Yes	2.976	0.001	n/a	GoodResponse	1	n/a	n/a	3	39	Fixation	Win	True
377.771	0.27	Win2	0.6	0.003	Yes	2.976	-0.003	2.0	GoodResponse	1	0.206	376.977	3	39	Target	Win	True
377.977	0.3	Win2	0.6	0.003	Yes	2.976	-0.003	2.0	GoodResponse	1	0.206	n/a	3	39	ButtonPress	Win	True
378.055	0.43	Win2	0.6	n/a	Yes	2.976	n/a	n/a	GoodResponse	1	n/a	n/a	3	39	Blank	Win	True
378.473	1.45	Win2	0.6	n/a	Yes	2.976	n/a	5.0	GoodResponse	1	0.042	377.515	3	39	Feedback	Win	True
379.927	2.976	Win2	0.6	n/a	Yes	2.976	n/a	n/a	GoodResponse	1	0.0	n/a	3	39	ISIslide	Win	True
382.919	0.25	Win2	0.5854	0.0	No	2.731	0.019	n/a	NoResponse	0	n/a	n/a	3	40	Cue	MissedWin	False
383.17	3.95	Win2	0.5854	0.0	No	2.731	0.001	n/a	NoResponse	0	n/a	n/a	3	40	Fixation	MissedWin	False
387.115	0.28	Win2	0.5854	0.004	No	2.731	-0.004	n/a	NoResponse	0	n/a	n/a	3	40	Target	MissedWin	False
387.399	0.42	Win2	0.5854	n/a	No	2.731	n/a	n/a	NoResponse	0	n/a	n/a	3	40	Blank	MissedWin	False
387.817	1.45	Win2	0.5854	n/a	No	2.731	n/a	5.0	NoResponse	0	0.015	386.832	3	40	Feedback	MissedWin	False
389.272	2.731	Win2	0.5854	n/a	No	2.731	n/a	n/a	NoResponse	0	0.0	n/a	3	40	ISIslide	MissedWin	False
392.03	0.25	Win2	0.5952000000000001	0.0	Yes	2.77	0.03	n/a	GoodResponse	1	n/a	n/a	4	41	Cue	Win	True
392.281	3.9	Win2	0.5952000000000001	0.0	Yes	2.77	0.001	n/a	GoodResponse	1	n/a	n/a	4	41	Fixation	Win	True
396.176	0.29	Win2	0.5952000000000001	0.004	Yes	2.77	-0.004	2.0	GoodResponse	1	0.247	395.423	4	41	Target	Win	True
396.423	0.3	Win2	0.5952000000000001	0.004	Yes	2.77	-0.004	2.0	GoodResponse	1	0.247	n/a	4	41	ButtonPress	Win	True
396.477	0.41	Win2	0.5952000000000001	n/a	Yes	2.77	n/a	n/a	GoodResponse	1	n/a	n/a	4	41	Blank	Win	True
396.878	1.45	Win2	0.5952000000000001	n/a	Yes	2.77	n/a	5.0	GoodResponse	1	0.026	395.904	4	41	Feedback	Win	True
398.332	2.77	Win2	0.5952000000000001	n/a	Yes	2.77	n/a	n/a	GoodResponse	1	0.0	n/a	4	41	ISIslide	Win	True
401.124	0.25	Control	0.6047	0.0	Yes	2.926	0.024	n/a	GoodResponse	0	n/a	n/a	4	42	Cue	Neutral	True
401.375	3.85	Control	0.6047	0.0	Yes	2.926	0.001	n/a	GoodResponse	0	n/a	n/a	4	42	Fixation	Neutral	True
405.22	0.3	Control	0.6047	0.004	Yes	2.926	-0.004	2.0	GoodResponse	0	0.207	404.427	4	42	Target	Neutral	True
405.427	0.3	Control	0.6047	0.004	Yes	2.926	-0.004	2.0	GoodResponse	0	0.207	n/a	4	42	ButtonPress	Neutral	True
405.52	0.4	Control	0.6047	n/a	Yes	2.926	n/a	n/a	GoodResponse	0	n/a	n/a	4	42	Blank	Neutral	True
405.922	1.45	Control	0.6047	n/a	Yes	2.926	n/a	5.0	GoodResponse	0	0.007	404.929	4	42	Feedback	Neutral	True
407.376	2.926	Control	0.6047	n/a	Yes	2.926	n/a	n/a	GoodResponse	0	0.0	n/a	4	42	ISIslide	Neutral	True
410.318	0.25	Win2	0.6136	0.0	Yes	3.182	0.018	n/a	GoodResponse	1	n/a	n/a	5	43	Cue	Win	True
410.569	4.0	Win2	0.6136	0.0	Yes	3.182	0.001	n/a	GoodResponse	1	n/a	n/a	5	43	Fixation	Win	True
414.564	0.31	Win2	0.6136	0.004	Yes	3.182	-0.004	2.0	GoodResponse	1	0.214	413.778	5	43	Target	Win	True
414.778	0.3	Win2	0.6136	0.004	Yes	3.182	-0.004	2.0	GoodResponse	1	0.214	n/a	5	43	ButtonPress	Win	True
414.882	0.39	Win2	0.6136	n/a	Yes	3.182	n/a	n/a	GoodResponse	1	n/a	n/a	5	43	Blank	Win	True
415.266	1.45	Win2	0.6136	n/a	Yes	3.182	n/a	5.0	GoodResponse	1	0.029	414.295	5	43	Feedback	Win	True
416.721	3.182	Win2	0.6136	n/a	Yes	3.182	n/a	n/a	GoodResponse	1	0.0	n/a	5	43	ISIslide	Win	True
419.93	0.25	Win2	0.6222	0.0	Yes	2.97	0.03	n/a	GoodResponse	1	n/a	n/a	6	44	Cue	Win	True
420.181	4.0	Win2	0.6222	0.0	Yes	2.97	0.001	n/a	GoodResponse	1	n/a	n/a	6	44	Fixation	Win	True
424.176	0.32	Win2	0.6222	0.004	Yes	2.97	-0.004	2.0	GoodResponse	1	0.216	423.392	6	44	Target	Win	True
424.392	0.3	Win2	0.6222	0.004	Yes	2.97	-0.004	2.0	GoodResponse	1	0.216	n/a	6	44	ButtonPress	Win	True
424.511	0.38	Win2	0.6222	n/a	Yes	2.97	n/a	n/a	GoodResponse	1	n/a	n/a	6	44	Blank	Win	True
424.879	1.45	Win2	0.6222	n/a	Yes	2.97	n/a	5.0	GoodResponse	1	0.026	423.905	6	44	Feedback	Win	True
426.333	2.97	Win2	0.6222	n/a	Yes	2.97	n/a	n/a	GoodResponse	1	0.0	n/a	6	44	ISIslide	Win	True
429.325	0.25	Control	0.6304	0.0	Yes	2.875	0.025	n/a	GoodResponse	0	n/a	n/a	6	45	Cue	Neutral	True
429.576	4.1	Control	0.6304	0.0	Yes	2.875	0.001	n/a	GoodResponse	0	n/a	n/a	6	45	Fixation	Neutral	True
433.672	0.33	Control	0.6304	0.003	Yes	2.875	-0.003	2.0	GoodResponse	0	0.258	432.93	6	45	Target	Neutral	True
433.93	0.3	Control	0.6304	0.003	Yes	2.875	-0.003	2.0	GoodResponse	0	0.258	n/a	6	45	ButtonPress	Neutral	True
434.006	0.37	Control	0.6304	n/a	Yes	2.875	n/a	n/a	GoodResponse	0	n/a	n/a	6	45	Blank	Neutral	True
434.374	1.45	Control	0.6304	n/a	Yes	2.875	n/a	5.0	GoodResponse	0	0.043	433.417	6	45	Feedback	Neutral	True
435.828	2.875	Control	0.6304	n/a	Yes	2.875	n/a	n/a	GoodResponse	0	0.0	n/a	6	45	ISIslide	Neutral	True
438.72	0.25	Lose2	0.6383	0.0	Yes	3.38	0.02	n/a	GoodResponse	0	n/a	n/a	6	46	Cue	AvoidedLoss	True
438.971	4.0	Lose2	0.6383	0.0	Yes	3.38	0.001	n/a	GoodResponse	0	n/a	n/a	6	46	Fixation	AvoidedLoss	True
442.966	0.34	Lose2	0.6383	0.004	Yes	3.38	-0.004	2.0	GoodResponse	0	0.209	442.175	6	46	Target	AvoidedLoss	True
443.175	0.3	Lose2	0.6383	0.004	Yes	3.38	-0.004	2.0	GoodResponse	0	0.209	n/a	6	46	ButtonPress	AvoidedLoss	True
443.317	0.36	Lose2	0.6383	n/a	Yes	3.38	n/a	n/a	GoodResponse	0	n/a	n/a	6	46	Blank	AvoidedLoss	True
443.668	1.45	Lose2	0.6383	n/a	Yes	3.38	n/a	5.0	GoodResponse	0	0.017	442.685	6	46	Feedback	AvoidedLoss	True
445.123	3.38	Lose2	0.6383	n/a	Yes	3.38	n/a	n/a	GoodResponse	0	0.0	n/a	6	46	ISIslide	AvoidedLoss	True
448.516	0.25	Lose2	0.6457999999999999	0.0	Yes	2.684	0.016	n/a	GoodResponse	0	n/a	n/a	6	47	Cue	AvoidedLoss	True
448.767	4.0	Lose2	0.6457999999999999	0.0	Yes	2.684	0.001	n/a	GoodResponse	0	n/a	n/a	6	47	Fixation	AvoidedLoss	True
452.762	0.35	Lose2	0.6457999999999999	0.004	Yes	2.684	-0.004	2.0	GoodResponse	0	0.226	451.988	6	47	Target	AvoidedLoss	True
452.988	0.3	Lose2	0.6457999999999999	0.004	Yes	2.684	-0.004	2.0	GoodResponse	0	0.226	n/a	6	47	ButtonPress	AvoidedLoss	True
453.113	0.35	Lose2	0.6457999999999999	n/a	Yes	2.684	n/a	n/a	GoodResponse	0	n/a	n/a	6	47	Blank	AvoidedLoss	True
453.464	1.45	Lose2	0.6457999999999999	n/a	Yes	2.684	n/a	5.0	GoodResponse	0	0.026	452.49	6	47	Feedback	AvoidedLoss	True
454.919	2.684	Lose2	0.6457999999999999	n/a	Yes	2.684	n/a	n/a	GoodResponse	0	0.0	n/a	6	47	ISIslide	AvoidedLoss	True
457.627	0.25	Lose2	0.6531	0.0	Yes	3.023	0.027	n/a	GoodResponse	0	n/a	n/a	6	48	Cue	AvoidedLoss	True
457.877	3.95	Lose2	0.6531	0.001	Yes	3.023	0.0	n/a	GoodResponse	0	n/a	n/a	6	48	Fixation	AvoidedLoss	True
461.823	0.36	Lose2	0.6531	0.004	Yes	3.023	-0.004	2.0	GoodResponse	0	0.252	461.075	6	48	Target	AvoidedLoss	True
462.075	0.3	Lose2	0.6531	0.004	Yes	3.023	-0.004	2.0	GoodResponse	0	0.252	n/a	6	48	ButtonPress	AvoidedLoss	True
462.19	0.34	Lose2	0.6531	n/a	Yes	3.023	n/a	n/a	GoodResponse	0	n/a	n/a	6	48	Blank	AvoidedLoss	True
462.525	1.45	Lose2	0.6531	n/a	Yes	3.023	n/a	5.0	GoodResponse	0	0.039	461.564	6	48	Feedback	AvoidedLoss	True
463.979	3.023	Lose2	0.6531	n/a	Yes	3.023	n/a	n/a	GoodResponse	0	0.0	n/a	6	48	ISIslide	AvoidedLoss	True
467.022	0.25	Control	0.66	0.0	Yes	2.878	0.022	n/a	GoodResponse	0	n/a	n/a	6	49	Cue	Neutral	True
467.272	4.0	Control	0.66	0.0	Yes	2.878	0.0	n/a	GoodResponse	0	n/a	n/a	6	49	Fixation	Neutral	True
471.268	0.37	Control	0.66	0.004	Yes	2.878	-0.004	2.0	GoodResponse	0	0.265	470.533	6	49	Target	Neutral	True
471.533	0.3	Control	0.66	0.004	Yes	2.878	-0.004	2.0	GoodResponse	0	0.265	n/a	6	49	ButtonPress	Neutral	True
471.652	0.33	Control	0.66	n/a	Yes	2.878	n/a	n/a	GoodResponse	0	n/a	n/a	6	49	Blank	Neutral	True
471.97	1.45	Control	0.66	n/a	Yes	2.878	n/a	5.0	GoodResponse	0	0.008	470.978	6	49	Feedback	Neutral	True
473.424	2.878	Control	0.66	n/a	Yes	2.878	n/a	n/a	GoodResponse	0	0.0	n/a	6	49	ISIslide	Neutral	True
476.316	0.25	Control	0.6667000000000001	0.0	Yes	2.784	0.016	n/a	GoodResponse	0	n/a	n/a	6	50	Cue	Neutral	True
476.567	4.0	Control	0.6667000000000001	0.0	Yes	2.784	0.001	n/a	GoodResponse	0	n/a	n/a	6	50	Fixation	Neutral	True
480.562	0.37	Control	0.6667000000000001	0.004	Yes	2.784	-0.004	2.0	GoodResponse	0	0.227	479.789	6	50	Target	Neutral	True
480.789	0.3	Control	0.6667000000000001	0.004	Yes	2.784	-0.004	2.0	GoodResponse	0	0.227	n/a	6	50	ButtonPress	Neutral	True
480.947	0.33	Control	0.6667000000000001	n/a	Yes	2.784	n/a	n/a	GoodResponse	0	n/a	n/a	6	50	Blank	Neutral	True
481.264	1.45	Control	0.6667000000000001	n/a	Yes	2.784	n/a	5.0	GoodResponse	0	0.031	480.295	6	50	Feedback	Neutral	True
482.719	2.784	Control	0.6667000000000001	n/a	Yes	2.784	n/a	n/a	GoodResponse	0	0.0	n/a	6	50	ISIslide	Neutral	True
485.527	0.25	Control	0.6731	0.0	Yes	2.723	0.027	n/a	GoodResponse	0	n/a	n/a	6	51	Cue	Neutral	True
485.778	3.95	Control	0.6731	0.0	Yes	2.723	0.001	n/a	GoodResponse	0	n/a	n/a	6	51	Fixation	Neutral	True
489.723	0.36	Control	0.6731	0.004	Yes	2.723	-0.004	2.0	GoodResponse	0	0.235	488.958	6	51	Target	Neutral	True
489.958	0.3	Control	0.6731	0.004	Yes	2.723	-0.004	2.0	GoodResponse	0	0.235	n/a	6	51	ButtonPress	Neutral	True
490.091	0.34	Control	0.6731	n/a	Yes	2.723	n/a	n/a	GoodResponse	0	n/a	n/a	6	51	Blank	Neutral	True
490.425	1.45	Control	0.6731	n/a	Yes	2.723	n/a	5.0	GoodResponse	0	0.041	489.466	6	51	Feedback	Neutral	True
491.879	2.723	Control	0.6731	n/a	Yes	2.723	n/a	n/a	GoodResponse	0	0.0	n/a	6	51	ISIslide	Neutral	True
494.621	0.25	Control	0.6792	0.0	Yes	2.629	0.021	n/a	GoodResponse	0	n/a	n/a	6	52	Cue	Neutral	True
494.872	4.05	Control	0.6792	0.0	Yes	2.629	0.001	n/a	GoodResponse	0	n/a	n/a	6	52	Fixation	Neutral	True
498.917	0.35	Control	0.6792	0.004	Yes	2.629	-0.004	2.0	GoodResponse	0	0.228	498.145	6	52	Target	Neutral	True
499.145	0.3	Control	0.6792	0.004	Yes	2.629	-0.004	2.0	GoodResponse	0	0.228	n/a	6	52	ButtonPress	Neutral	True
499.268	0.35	Control	0.6792	n/a	Yes	2.629	n/a	n/a	GoodResponse	0	n/a	n/a	6	52	Blank	Neutral	True
499.619	1.45	Control	0.6792	n/a	Yes	2.629	n/a	5.0	GoodResponse	0	0.017	498.636	6	52	Feedback	Neutral	True
501.074	2.629	Control	0.6792	n/a	Yes	2.629	n/a	n/a	GoodResponse	0	0.0	n/a	6	52	ISIslide	Neutral	True
503.732	0.25	Win2	0.6851999999999999	0.0	Yes	2.918	0.032	n/a	GoodResponse	1	n/a	n/a	7	53	Cue	Win	True
503.982	4.05	Win2	0.6851999999999999	0.001	Yes	2.918	0.0	n/a	GoodResponse	1	n/a	n/a	7	53	Fixation	Win	True
508.028	0.34	Win2	0.6851999999999999	0.004	Yes	2.918	-0.004	2.0	GoodResponse	1	0.222	507.25	7	53	Target	Win	True
508.25	0.3	Win2	0.6851999999999999	0.004	Yes	2.918	-0.004	2.0	GoodResponse	1	0.222	n/a	7	53	ButtonPress	Win	True
508.379	0.36	Win2	0.6851999999999999	n/a	Yes	2.918	n/a	n/a	GoodResponse	1	n/a	n/a	7	53	Blank	Win	True
508.73	1.45	Win2	0.6851999999999999	n/a	Yes	2.918	n/a	5.0	GoodResponse	1	0.028	507.758	7	53	Feedback	Win	True
510.184	2.918	Win2	0.6851999999999999	n/a	Yes	2.918	n/a	n/a	GoodResponse	1	0.0	n/a	7	53	ISIslide	Win	True
513.127	0.25	Win2	0.6909000000000001	0.0	Yes	2.723	0.027	n/a	GoodResponse	1	n/a	n/a	8	54	Cue	Win	True
513.377	3.95	Win2	0.6909000000000001	0.0	Yes	2.723	0.0	n/a	GoodResponse	1	n/a	n/a	8	54	Fixation	Win	True
517.339	0.33	Win2	0.6909000000000001	0.0	Yes	2.723	0.012	2.0	GoodResponse	1	0.202	516.541	8	54	Target	Win	True
517.541	0.3	Win2	0.6909000000000001	0.0	Yes	2.723	0.012	2.0	GoodResponse	1	0.202	n/a	8	54	ButtonPress	Win	True
517.657	0.37	Win2	0.6909000000000001	n/a	Yes	2.723	n/a	n/a	GoodResponse	1	n/a	n/a	8	54	Blank	Win	True
518.025	1.45	Win2	0.6909000000000001	n/a	Yes	2.723	n/a	5.0	GoodResponse	1	0.002	517.027	8	54	Feedback	Win	True
519.479	2.723	Win2	0.6909000000000001	n/a	Yes	2.723	n/a	n/a	GoodResponse	1	0.0	n/a	8	54	ISIslide	Win	True
522.221	0.25	Control	0.6964	0.0	Yes	3.029	0.021	n/a	GoodResponse	0	n/a	n/a	8	55	Cue	Neutral	True
522.471	3.95	Control	0.6964	0.0	Yes	3.029	0.0	n/a	GoodResponse	0	n/a	n/a	8	55	Fixation	Neutral	True
526.433	0.32	Control	0.6964	0.0	Yes	3.029	0.012	2.0	GoodResponse	0	0.279	525.712	8	55	Target	Neutral	True
526.712	0.3	Control	0.6964	0.0	Yes	3.029	0.012	2.0	GoodResponse	0	0.279	n/a	8	55	ButtonPress	Neutral	True
526.751	0.38	Control	0.6964	n/a	Yes	3.029	n/a	n/a	GoodResponse	0	n/a	n/a	8	55	Blank	Neutral	True
527.119	1.45	Control	0.6964	n/a	Yes	3.029	n/a	5.0	GoodResponse	0	0.03	526.149	8	55	Feedback	Neutral	True
528.573	3.029	Control	0.6964	n/a	Yes	3.029	n/a	n/a	GoodResponse	0	0.0	n/a	8	55	ISIslide	Neutral	True
531.615	0.25	Control	0.7018000000000001	0.0	Yes	2.835	0.015	n/a	GoodResponse	0	n/a	n/a	8	56	Cue	Neutral	True
531.866	3.95	Control	0.7018000000000001	0.0	Yes	2.835	0.001	n/a	GoodResponse	0	n/a	n/a	8	56	Fixation	Neutral	True
535.811	0.31	Control	0.7018000000000001	0.004	Yes	2.835	-0.004	2.0	GoodResponse	0	0.21	535.021	8	56	Target	Neutral	True
536.021	0.3	Control	0.7018000000000001	0.004	Yes	2.835	-0.004	2.0	GoodResponse	0	0.21	n/a	8	56	ButtonPress	Neutral	True
536.129	0.39	Control	0.7018000000000001	n/a	Yes	2.835	n/a	n/a	GoodResponse	0	n/a	n/a	8	56	Blank	Neutral	True
536.513	1.45	Control	0.7018000000000001	n/a	Yes	2.835	n/a	5.0	GoodResponse	0	0.002	535.515	8	56	Feedback	Neutral	True
537.968	2.835	Control	0.7018000000000001	n/a	Yes	2.835	n/a	n/a	GoodResponse	0	0.0	n/a	8	56	ISIslide	Neutral	True
540.826	0.25	Control	0.6897	0.0	No	3.474	0.026	n/a	NoResponse	0	n/a	n/a	8	57	Cue	Neutral	False
541.077	4.0	Control	0.6897	0.0	No	3.474	0.001	n/a	NoResponse	0	n/a	n/a	8	57	Fixation	Neutral	False
545.072	0.3	Control	0.6897	0.004	No	3.474	-0.004	n/a	NoResponse	0	n/a	n/a	8	57	Target	Neutral	False
545.373	0.4	Control	0.6897	n/a	No	3.474	n/a	n/a	NoResponse	0	n/a	n/a	8	57	Blank	Neutral	False
545.775	1.45	Control	0.6897	n/a	No	3.474	n/a	5.0	NoResponse	0	0.007	544.782	8	57	Feedback	Neutral	False
547.229	3.474	Control	0.6897	n/a	No	3.474	n/a	n/a	NoResponse	0	0.0	n/a	8	57	ISIslide	Neutral	False
550.723	0.25	Win2	0.6949	0.0	Yes	2.727	0.023	n/a	GoodResponse	1	n/a	n/a	9	58	Cue	Win	True
550.973	4.05	Win2	0.6949	0.001	Yes	2.727	0.0	n/a	GoodResponse	1	n/a	n/a	9	58	Fixation	Win	True
555.019	0.29	Win2	0.6949	0.004	Yes	2.727	-0.004	2.0	GoodResponse	1	0.264	554.283	9	58	Target	Win	True
555.283	0.3	Win2	0.6949	0.004	Yes	2.727	-0.004	2.0	GoodResponse	1	0.264	n/a	9	58	ButtonPress	Win	True
555.32	0.41	Win2	0.6949	n/a	Yes	2.727	n/a	n/a	GoodResponse	1	n/a	n/a	9	58	Blank	Win	True
555.721	1.45	Win2	0.6949	n/a	Yes	2.727	n/a	5.0	GoodResponse	1	0.013	554.734	9	58	Feedback	Win	True
557.175	2.727	Win2	0.6949	n/a	Yes	2.727	n/a	n/a	GoodResponse	1	0.0	n/a	9	58	ISIslide	Win	True
559.917	0.25	Lose2	0.7	0.0	Yes	2.683	0.017	n/a	GoodResponse	0	n/a	n/a	9	59	Cue	AvoidedLoss	True
560.168	4.0	Lose2	0.7	0.0	Yes	2.683	0.001	n/a	GoodResponse	0	n/a	n/a	9	59	Fixation	AvoidedLoss	True
564.163	0.28	Lose2	0.7	0.004	Yes	2.683	-0.004	2.0	GoodResponse	0	0.188	563.351	9	59	Target	AvoidedLoss	True
564.351	0.3	Lose2	0.7	0.004	Yes	2.683	-0.004	2.0	GoodResponse	0	0.188	n/a	9	59	ButtonPress	AvoidedLoss	True
564.447	0.42	Lose2	0.7	n/a	Yes	2.683	n/a	n/a	GoodResponse	0	n/a	n/a	9	59	Blank	AvoidedLoss	True
564.865	1.45	Lose2	0.7	n/a	Yes	2.683	n/a	5.0	GoodResponse	0	0.04	563.905	9	59	Feedback	AvoidedLoss	True
566.319	2.683	Lose2	0.7	n/a	Yes	2.683	n/a	n/a	GoodResponse	0	0.0	n/a	9	59	ISIslide	AvoidedLoss	True
569.028	0.25	Control	0.7049	0.0	Yes	2.672	0.028	n/a	GoodResponse	0	n/a	n/a	9	60	Cue	Neutral	True
569.278	4.0	Control	0.7049	0.0	Yes	2.672	0.0	n/a	GoodResponse	0	n/a	n/a	9	60	Fixation	Neutral	True
573.274	0.27	Control	0.7049	0.004	Yes	2.672	-0.004	2.0	GoodResponse	0	0.197	572.471	9	60	Target	Neutral	True
573.471	0.3	Control	0.7049	0.004	Yes	2.672	-0.004	2.0	GoodResponse	0	0.197	n/a	9	60	ButtonPress	Neutral	True
573.558	0.43	Control	0.7049	n/a	Yes	2.672	n/a	n/a	GoodResponse	0	n/a	n/a	9	60	Blank	Neutral	True
573.976	1.45	Control	0.7049	n/a	Yes	2.672	n/a	5.0	GoodResponse	0	0.002	572.978	9	60	Feedback	Neutral	True
575.43	2.672	Control	0.7049	n/a	Yes	2.672	n/a	n/a	GoodResponse	0	0.0	n/a	9	60	ISIslide	Neutral	True
578.122	0.25	Lose2	0.6934999999999999	0.0	No	2.978	0.022	n/a	NoResponse	-1	n/a	n/a	8	61	Cue	Loss	True
578.372	4.0	Lose2	0.6934999999999999	0.0	No	2.978	0.0	2.0	NoResponse	-1	3.949	581.321	8	61	Fixation	Loss	True
582.321	0.3	Lose2	0.6934999999999999	0.0	No	2.978	0.0	2.0	NoResponse	-1	3.949	n/a	8	61	ButtonPress	Loss	True
582.368	0.26	Lose2	0.6934999999999999	0.004	No	2.978	-0.004	n/a	NoResponse	-1	n/a	n/a	8	61	Target	Loss	True
582.635	0.44	Lose2	0.6934999999999999	n/a	No	2.978	n/a	n/a	NoResponse	-1	n/a	n/a	8	61	Blank	Loss	True
583.07	1.45	Lose2	0.6934999999999999	n/a	No	2.978	n/a	5.0	NoResponse	-1	0.03	582.1	8	61	Feedback	Loss	True
584.524	2.978	Lose2	0.6934999999999999	n/a	No	2.978	n/a	n/a	NoResponse	-1	0.0	n/a	8	61	ISIslide	Loss	True
587.516	0.25	Lose2	0.6984	0.001	Yes	2.884	0.016	n/a	GoodResponse	0	n/a	n/a	8	62	Cue	AvoidedLoss	True
587.767	3.9	Lose2	0.6984	0.0	Yes	2.884	0.001	n/a	GoodResponse	0	n/a	n/a	8	62	Fixation	AvoidedLoss	True
591.662	0.25	Lose2	0.6984	0.004	Yes	2.884	-0.004	2.0	GoodResponse	0	0.243	590.905	8	62	Target	AvoidedLoss	True
591.905	0.3	Lose2	0.6984	0.004	Yes	2.884	-0.004	2.0	GoodResponse	0	0.243	n/a	8	62	ButtonPress	AvoidedLoss	True
591.913	0.45	Lose2	0.6984	n/a	Yes	2.884	n/a	n/a	GoodResponse	0	n/a	n/a	8	62	Blank	AvoidedLoss	True
592.364	1.45	Lose2	0.6984	n/a	Yes	2.884	n/a	5.0	GoodResponse	0	0.004	591.368	8	62	Feedback	AvoidedLoss	True
593.819	2.884	Lose2	0.6984	n/a	Yes	2.884	n/a	n/a	GoodResponse	0	0.0	n/a	8	62	ISIslide	AvoidedLoss	True
596.727	0.25	Lose2	0.6875	0.0	No	2.623	0.027	n/a	NoResponse	-1	n/a	n/a	7	63	Cue	Loss	True
596.978	4.05	Lose2	0.6875	0.0	No	2.623	0.001	n/a	NoResponse	-1	n/a	n/a	7	63	Fixation	Loss	True
601.024	0.24	Lose2	0.6875	0.003	No	2.623	-0.003	2.0	NoResponse	-1	0.27	600.294	7	63	Target	Loss	True
601.274	0.46	Lose2	0.6875	n/a	No	2.623	n/a	n/a	NoResponse	-1	n/a	n/a	7	63	Blank	Loss	True
601.294	0.3	Lose2	0.6875	0.003	No	2.623	-0.003	2.0	NoResponse	-1	0.27	n/a	7	63	ButtonPress	Loss	True
601.726	1.45	Lose2	0.6875	n/a	No	2.623	n/a	5.0	NoResponse	-1	0.008	600.734	7	63	Feedback	Loss	True
603.18	2.623	Lose2	0.6875	n/a	No	2.623	n/a	n/a	NoResponse	-1	0.0	n/a	7	63	ISIslide	Loss	True
605.821	0.25	Win2	0.6923	0.0	Yes	3.129	0.021	n/a	GoodResponse	1	n/a	n/a	8	64	Cue	Win	True
606.072	4.15	Win2	0.6923	0.0	Yes	3.129	0.001	n/a	GoodResponse	1	n/a	n/a	8	64	Fixation	Win	True
610.218	0.23	Win2	0.6923	0.003	Yes	3.129	-0.003	2.0	GoodResponse	1	0.214	609.432	8	64	Target	Win	True
610.432	0.3	Win2	0.6923	0.003	Yes	3.129	-0.003	2.0	GoodResponse	1	0.214	n/a	8	64	ButtonPress	Win	True
610.452	0.47	Win2	0.6923	n/a	Yes	3.129	n/a	n/a	GoodResponse	1	n/a	n/a	8	64	Blank	Win	True
610.92	1.45	Win2	0.6923	n/a	Yes	3.129	n/a	5.0	GoodResponse	1	0.034	609.954	8	64	Feedback	Win	True
612.374	3.129	Win2	0.6923	n/a	Yes	3.129	n/a	n/a	GoodResponse	1	0.0	n/a	8	64	ISIslide	Win	True
615.517	0.25	Control	0.6818000000000001	0.0	No	2.783	0.017	n/a	NoResponse	0	n/a	n/a	8	65	Cue	Neutral	False
615.768	4.0	Control	0.6818000000000001	0.0	No	2.783	0.001	n/a	NoResponse	0	n/a	n/a	8	65	Fixation	Neutral	False
619.763	0.22	Control	0.6818000000000001	0.004	No	2.783	-0.004	n/a	NoResponse	0	n/a	n/a	8	65	Target	Neutral	False
619.997	0.48	Control	0.6818000000000001	n/a	No	2.783	n/a	n/a	NoResponse	0	n/a	n/a	8	65	Blank	Neutral	False
620.465	1.45	Control	0.6818000000000001	n/a	No	2.783	n/a	5.0	NoResponse	0	0.0	619.465	8	65	Feedback	Neutral	False
621.92	2.783	Control	0.6818000000000001	n/a	No	2.783	n/a	n/a	NoResponse	0	0.0	n/a	8	65	ISIslide	Neutral	False
624.728	0.25	Win2	0.6716	0.0	No	2.772	0.028	n/a	LatePress	0	n/a	n/a	8	66	Cue	MissedWin	True
624.979	3.9	Win2	0.6716	0.0	No	2.772	0.001	n/a	LatePress	0	n/a	n/a	8	66	Fixation	MissedWin	True
628.874	0.21	Win2	0.6716	0.004	No	2.772	-0.004	2.0	LatePress	0	0.213	628.087	8	66	Target	MissedWin	True
629.087	0.3	Win2	0.6716	0.004	No	2.772	-0.004	2.0	LatePress	0	0.213	n/a	8	66	ButtonPress	MissedWin	True
629.091	0.49	Win2	0.6716	n/a	No	2.772	n/a	n/a	LatePress	0	n/a	n/a	8	66	Blank	MissedWin	True
629.576	1.45	Win2	0.6716	n/a	No	2.772	n/a	5.0	LatePress	0	0.011	628.587	8	66	Feedback	MissedWin	True
631.03	2.772	Win2	0.6716	n/a	No	2.772	n/a	n/a	LatePress	0	0.0	n/a	8	66	ISIslide	MissedWin	True
633.822	0.25	Control	0.6618	0.0	No	2.728	0.022	n/a	NoResponse	0	n/a	n/a	8	67	Cue	Neutral	True
634.073	3.95	Control	0.6618	0.0	No	2.728	0.001	n/a	NoResponse	0	n/a	n/a	8	67	Fixation	Neutral	True
638.018	0.2	Control	0.6618	0.004	No	2.728	-0.004	2.0	NoResponse	0	0.209	637.227	8	67	Target	Neutral	True
638.218	0.5	Control	0.6618	n/a	No	2.728	n/a	n/a	NoResponse	0	n/a	n/a	8	67	Blank	Neutral	True
638.227	0.3	Control	0.6618	0.004	No	2.728	-0.004	2.0	NoResponse	0	0.209	n/a	8	67	ButtonPress	Neutral	True
638.72	1.45	Control	0.6618	n/a	No	2.728	n/a	5.0	NoResponse	0	0.038	637.758	8	67	Feedback	Neutral	True
640.174	2.728	Control	0.6618	n/a	No	2.728	n/a	n/a	NoResponse	0	0.0	n/a	8	67	ISIslide	Neutral	True
642.916	0.25	Win2	0.6667000000000001	0.0	Yes	3.084	0.016	n/a	GoodResponse	1	n/a	n/a	9	68	Cue	Win	True
643.167	4.0	Win2	0.6667000000000001	0.0	Yes	3.084	0.001	n/a	GoodResponse	1	n/a	n/a	9	68	Fixation	Win	True
647.162	0.2	Win2	0.6667000000000001	0.004	Yes	3.084	-0.004	2.0	GoodResponse	1	0.166	646.328	9	68	Target	Win	True
647.328	0.3	Win2	0.6667000000000001	0.004	Yes	3.084	-0.004	2.0	GoodResponse	1	0.166	n/a	9	68	ButtonPress	Win	True
647.363	0.5	Win2	0.6667000000000001	n/a	Yes	3.084	n/a	n/a	GoodResponse	1	n/a	n/a	9	68	Blank	Win	True
647.864	1.45	Win2	0.6667000000000001	n/a	Yes	3.084	n/a	5.0	GoodResponse	1	0.016	646.88	9	68	Feedback	Win	True
649.318	3.084	Win2	0.6667000000000001	n/a	Yes	3.084	n/a	n/a	GoodResponse	1	0.0	n/a	9	68	ISIslide	Win	True
652.428	0.25	Win2	0.6570999999999999	0.0	No	3.222	0.028	n/a	NoResponse	0	n/a	n/a	9	69	Cue	MissedWin	True
652.679	3.95	Win2	0.6570999999999999	0.0	No	3.222	0.001	n/a	NoResponse	0	n/a	n/a	9	69	Fixation	MissedWin	True
656.624	0.19	Win2	0.6570999999999999	0.004	No	3.222	-0.004	2.0	NoResponse	0	0.212	655.836	9	69	Target	MissedWin	True
656.824	0.51	Win2	0.6570999999999999	n/a	No	3.222	n/a	n/a	NoResponse	0	n/a	n/a	9	69	Blank	MissedWin	True
656.836	0.3	Win2	0.6570999999999999	0.004	No	3.222	-0.004	2.0	NoResponse	0	0.212	n/a	9	69	ButtonPress	MissedWin	True
657.326	1.45	Win2	0.6570999999999999	n/a	No	3.222	n/a	5.0	NoResponse	0	0.018	656.344	9	69	Feedback	MissedWin	True
658.78	3.222	Win2	0.6570999999999999	n/a	No	3.222	n/a	n/a	NoResponse	0	0.0	n/a	9	69	ISIslide	MissedWin	True
662.023	0.25	Lose2	0.6479	0.0	No	3.027	0.023	n/a	NoResponse	-1	n/a	n/a	8	70	Cue	Loss	True
662.274	4.05	Lose2	0.6479	0.0	No	3.027	0.001	n/a	NoResponse	-1	n/a	n/a	8	70	Fixation	Loss	True
666.319	0.19	Lose2	0.6479	0.004	No	3.027	-0.004	2.0	NoResponse	-1	0.278	665.597	8	70	Target	Loss	True
666.52	0.51	Lose2	0.6479	n/a	No	3.027	n/a	n/a	NoResponse	-1	n/a	n/a	8	70	Blank	Loss	True
666.597	0.3	Lose2	0.6479	0.004	No	3.027	-0.004	2.0	NoResponse	-1	0.278	n/a	8	70	ButtonPress	Loss	True
667.022	1.45	Lose2	0.6479	n/a	No	3.027	n/a	5.0	NoResponse	-1	0.029	666.051	8	70	Feedback	Loss	True
668.476	3.027	Lose2	0.6479	n/a	No	3.027	n/a	n/a	NoResponse	-1	0.0	n/a	8	70	ISIslide	Loss	True
671.518	0.25	Win2	0.6389	0.0	No	2.732	0.018	n/a	NoResponse	0	n/a	n/a	8	71	Cue	MissedWin	True
671.769	4.05	Win2	0.6389	0.0	No	2.732	0.001	n/a	NoResponse	0	n/a	n/a	8	71	Fixation	MissedWin	True
675.815	0.2	Win2	0.6389	0.003	No	2.732	-0.003	2.0	NoResponse	0	0.221	675.036	8	71	Target	MissedWin	True
676.015	0.5	Win2	0.6389	n/a	No	2.732	n/a	n/a	NoResponse	0	n/a	n/a	8	71	Blank	MissedWin	True
676.036	0.3	Win2	0.6389	0.003	No	2.732	-0.003	2.0	NoResponse	0	0.221	n/a	8	71	ButtonPress	MissedWin	True
676.517	1.45	Win2	0.6389	n/a	No	2.732	n/a	5.0	NoResponse	0	0.047	675.564	8	71	Feedback	MissedWin	True
677.971	2.732	Win2	0.6389	n/a	No	2.732	n/a	n/a	NoResponse	0	0.0	n/a	8	71	ISIslide	MissedWin	True
680.729	0.25	Win2	0.6301	0.0	No	2.771	0.029	n/a	NoResponse	0	n/a	n/a	8	72	Cue	MissedWin	True
680.98	4.1	Win2	0.6301	0.0	No	2.771	0.001	n/a	NoResponse	0	n/a	n/a	8	72	Fixation	MissedWin	True
685.076	0.21	Win2	0.6301	0.003	No	2.771	-0.003	2.0	NoResponse	0	0.245	684.321	8	72	Target	MissedWin	True
685.293	0.49	Win2	0.6301	n/a	No	2.771	n/a	n/a	NoResponse	0	n/a	n/a	8	72	Blank	MissedWin	True
685.321	0.3	Win2	0.6301	0.003	No	2.771	-0.003	2.0	NoResponse	0	0.245	n/a	8	72	ButtonPress	MissedWin	True
685.778	1.45	Win2	0.6301	n/a	No	2.771	n/a	5.0	NoResponse	0	0.005	684.783	8	72	Feedback	MissedWin	True
687.232	2.771	Win2	0.6301	n/a	No	2.771	n/a	n/a	NoResponse	0	0.0	n/a	8	72	ISIslide	MissedWin	True
690.024	0.25	Win2	0.6215999999999999	0.0	No	2.676	0.024	n/a	LatePress	0	n/a	n/a	8	73	Cue	MissedWin	True
690.275	4.0	Win2	0.6215999999999999	0.0	No	2.676	0.001	n/a	LatePress	0	n/a	n/a	8	73	Fixation	MissedWin	True
694.27	0.22	Win2	0.6215999999999999	0.004	No	2.676	-0.004	2.0	LatePress	0	0.225	693.495	8	73	Target	MissedWin	True
694.495	0.3	Win2	0.6215999999999999	0.004	No	2.676	-0.004	2.0	LatePress	0	0.225	n/a	8	73	ButtonPress	MissedWin	True
694.504	0.48	Win2	0.6215999999999999	n/a	No	2.676	n/a	n/a	LatePress	0	n/a	n/a	8	73	Blank	MissedWin	True
694.972	1.45	Win2	0.6215999999999999	n/a	No	2.676	n/a	5.0	LatePress	0	0.03	694.002	8	73	Feedback	MissedWin	True
696.426	2.676	Win2	0.6215999999999999	n/a	No	2.676	n/a	n/a	LatePress	0	0.0	n/a	8	73	ISIslide	MissedWin	True
699.118	0.25	Lose2	0.6133	0.0	No	2.632	0.018	n/a	LatePress	-1	n/a	n/a	7	74	Cue	Loss	True
699.369	4.05	Lose2	0.6133	0.0	No	2.632	0.001	n/a	LatePress	-1	n/a	n/a	7	74	Fixation	Loss	True
703.414	0.23	Lose2	0.6133	0.004	No	2.632	-0.004	2.0	LatePress	-1	0.231	702.645	7	74	Target	Loss	True
703.645	0.3	Lose2	0.6133	0.004	No	2.632	-0.004	2.0	LatePress	-1	0.231	n/a	7	74	ButtonPress	Loss	True
703.648	0.47	Lose2	0.6133	n/a	No	2.632	n/a	n/a	LatePress	-1	n/a	n/a	7	74	Blank	Loss	True
704.116	1.45	Lose2	0.6133	n/a	No	2.632	n/a	5.0	LatePress	-1	0.008	703.124	7	74	Feedback	Loss	True
705.571	2.632	Lose2	0.6133	n/a	No	2.632	n/a	n/a	LatePress	-1	0.0	n/a	7	74	ISIslide	Loss	True
708.228	0.25	Lose2	0.6184000000000001	0.001	Yes	2.922	0.028	n/a	GoodResponse	0	n/a	n/a	7	75	Cue	AvoidedLoss	True
708.479	3.95	Lose2	0.6184000000000001	0.0	Yes	2.922	0.001	n/a	GoodResponse	0	n/a	n/a	7	75	Fixation	AvoidedLoss	True
712.424	0.24	Lose2	0.6184000000000001	0.004	Yes	2.922	-0.004	2.0	GoodResponse	0	0.214	711.638	7	75	Target	AvoidedLoss	True
712.638	0.3	Lose2	0.6184000000000001	0.004	Yes	2.922	-0.004	2.0	GoodResponse	0	0.214	n/a	7	75	ButtonPress	AvoidedLoss	True
712.675	0.46	Lose2	0.6184000000000001	n/a	Yes	2.922	n/a	n/a	GoodResponse	0	n/a	n/a	7	75	Blank	AvoidedLoss	True
713.127	1.45	Lose2	0.6184000000000001	n/a	Yes	2.922	n/a	5.0	GoodResponse	0	0.021	712.148	7	75	Feedback	AvoidedLoss	True
714.581	2.922	Lose2	0.6184000000000001	n/a	Yes	2.922	n/a	n/a	GoodResponse	0	0.0	n/a	7	75	ISIslide	AvoidedLoss	True
717.523	0.25	Control	0.6234000000000001	0.0	Yes	3.227	0.023	n/a	GoodResponse	0	n/a	n/a	7	76	Cue	Neutral	True
717.774	4.05	Control	0.6234000000000001	0.0	Yes	3.227	0.001	n/a	GoodResponse	0	n/a	n/a	7	76	Fixation	Neutral	True
721.819	0.25	Control	0.6234000000000001	0.004	Yes	3.227	-0.004	2.0	GoodResponse	0	0.191	721.01	7	76	Target	Neutral	True
722.01	0.3	Control	0.6234000000000001	0.004	Yes	3.227	-0.004	2.0	GoodResponse	0	0.191	n/a	7	76	ButtonPress	Neutral	True
722.07	0.45	Control	0.6234000000000001	n/a	Yes	3.227	n/a	n/a	GoodResponse	0	n/a	n/a	7	76	Blank	Neutral	True
722.521	1.45	Control	0.6234000000000001	n/a	Yes	3.227	n/a	5.0	GoodResponse	0	0.042	721.563	7	76	Feedback	Neutral	True
723.976	3.227	Control	0.6234000000000001	n/a	Yes	3.227	n/a	n/a	GoodResponse	0	0.0	n/a	7	76	ISIslide	Neutral	True
727.219	0.25	Lose2	0.6282	0.0	Yes	2.581	0.019	n/a	GoodResponse	0	n/a	n/a	7	77	Cue	AvoidedLoss	True
727.47	3.95	Lose2	0.6282	0.0	Yes	2.581	0.001	n/a	GoodResponse	0	n/a	n/a	7	77	Fixation	AvoidedLoss	True
731.415	0.26	Lose2	0.6282	0.004	Yes	2.581	-0.004	2.0	GoodResponse	0	0.199	730.614	7	77	Target	AvoidedLoss	True
731.614	0.3	Lose2	0.6282	0.004	Yes	2.581	-0.004	2.0	GoodResponse	0	0.199	n/a	7	77	ButtonPress	AvoidedLoss	True
731.682	0.44	Lose2	0.6282	n/a	Yes	2.581	n/a	n/a	GoodResponse	0	n/a	n/a	7	77	Blank	AvoidedLoss	True
732.117	1.45	Lose2	0.6282	n/a	Yes	2.581	n/a	5.0	GoodResponse	0	0.007	731.124	7	77	Feedback	AvoidedLoss	True
733.571	2.581	Lose2	0.6282	n/a	Yes	2.581	n/a	n/a	GoodResponse	0	0.0	n/a	7	77	ISIslide	AvoidedLoss	True
