onset	duration	cue_type	current_mean_accuracy	duration_error	is_hit	isi_adjusted	onset_delay	response	response_type	reward	rt	rt_time	total_reward	trial_number	trial_phase	trial_type	one_press
11.108	0.25	Control	1.0	0.0	Yes	2.942	0.008	n/a	GoodResponse	0	n/a	n/a	0	0	Cue	Neutral	True
11.359	3.85	Control	1.0	0.0	Yes	2.942	0.001	n/a	GoodResponse	0	n/a	n/a	0	0	Fixation	Neutral	True
15.22	0.4	Control	1.0	0.0	Yes	2.942	0.012	1.0	GoodResponse	0	0.205	14.425	0	0	Target	Neutral	True
15.425	0.3	Control	1.0	0.0	Yes	2.942	0.012	1.0	GoodResponse	0	0.205	n/a	0	0	ButtonPress	Neutral	True
15.605	0.3	Control	1.0	n/a	Yes	2.942	n/a	n/a	GoodResponse	0	n/a	n/a	0	0	Blank	Neutral	True
15.905	1.45	Control	1.0	n/a	Yes	2.942	n/a	5.0	GoodResponse	0	0.021	14.926	0	0	Feedback	Neutral	True
17.36	2.942	Control	1.0	n/a	Yes	2.942	n/a	n/a	GoodResponse	0	0.0	n/a	0	0	ISIslide	Neutral	True
20.319	0.25	Lose2	1.0	0.0	Yes	2.781	0.019	n/a	GoodResponse	0	n/a	n/a	0	1	Cue	AvoidedLoss	True
20.569	4.0	Lose2	1.0	0.001	Yes	2.781	0.0	n/a	GoodResponse	0	n/a	n/a	0	1	Fixation	AvoidedLoss	True
24.565	0.39	Lose2	1.0	0.004	Yes	2.781	-0.004	1.0	GoodResponse	0	0.198	23.763	0	1	Target	AvoidedLoss	True
24.763	0.3	Lose2	1.0	0.004	Yes	2.781	-0.004	1.0	GoodResponse	0	0.198	n/a	0	1	ButtonPress	AvoidedLoss	True
24.966	0.31	Lose2	1.0	n/a	Yes	2.781	n/a	n/a	GoodResponse	0	n/a	n/a	0	1	Blank	AvoidedLoss	True
25.267	1.45	Lose2	1.0	n/a	Yes	2.781	n/a	5.0	GoodResponse	0	0.025	24.292	0	1	Feedback	AvoidedLoss	True
26.721	2.781	Lose2	1.0	n/a	Yes	2.781	n/a	n/a	GoodResponse	0	0.0	n/a	0	1	ISIslide	AvoidedLoss	True
29.53	0.25	Control	1.0	0.0	Yes	2.57	0.03	n/a	GoodResponse	0	n/a	n/a	0	2	Cue	Neutral	True
29.78	4.1	Control	1.0	0.0	Yes	2.57	0.0	n/a	GoodResponse	0	n/a	n/a	0	2	Fixation	Neutral	True
33.876	0.38	Control	1.0	0.004	Yes	2.57	-0.004	1.0	GoodResponse	0	0.225	33.101	0	2	Target	Neutral	True
34.101	0.3	Control	1.0	0.004	Yes	2.57	-0.004	1.0	GoodResponse	0	0.225	n/a	0	2	ButtonPress	Neutral	True
34.26	0.32	Control	1.0	n/a	Yes	2.57	n/a	n/a	GoodResponse	0	n/a	n/a	0	2	Blank	Neutral	True
34.578	1.45	Control	1.0	n/a	Yes	2.57	n/a	5.0	GoodResponse	0	0.031	33.609	0	2	Feedback	Neutral	True
36.032	2.57	Control	1.0	n/a	Yes	2.57	n/a	n/a	GoodResponse	0	0.0	n/a	0	2	ISIslide	Neutral	True
38.623	0.25	Win2	1.0	0.001	Yes	2.827	0.023	n/a	GoodResponse	1	n/a	n/a	1	3	Cue	Win	True
38.874	3.95	Win2	1.0	0.0	Yes	2.827	0.001	n/a	GoodResponse	1	n/a	n/a	1	3	Fixation	Win	True
42.819	0.37	Win2	1.0	0.004	Yes	2.827	-0.004	1.0	GoodResponse	1	0.177	41.996	1	3	Target	Win	True
42.996	0.3	Win2	1.0	0.004	Yes	2.827	-0.004	1.0	GoodResponse	1	0.177	n/a	1	3	ButtonPress	Win	True
43.204	0.33	Win2	1.0	n/a	Yes	2.827	n/a	n/a	GoodResponse	1	n/a	n/a	1	3	Blank	Win	True
43.521	1.45	Win2	1.0	n/a	Yes	2.827	n/a	5.0	GoodResponse	1	0.015	42.536	1	3	Feedback	Win	True
44.976	2.827	Win2	1.0	n/a	Yes	2.827	n/a	n/a	GoodResponse	1	0.0	n/a	1	3	ISIslide	Win	True
47.818	0.25	Win2	1.0	0.0	Yes	3.282	0.018	n/a	GoodResponse	1	n/a	n/a	2	4	Cue	Win	True
48.068	4.0	Win2	1.0	0.0	Yes	3.282	0.0	n/a	GoodResponse	1	n/a	n/a	2	4	Fixation	Win	True
52.064	0.36	Win2	1.0	0.004	Yes	3.282	-0.004	1.0	GoodResponse	1	0.212	51.276	2	4	Target	Win	True
52.276	0.3	Win2	1.0	0.004	Yes	3.282	-0.004	1.0	GoodResponse	1	0.212	n/a	2	4	ButtonPress	Win	True
52.431	0.34	Win2	1.0	n/a	Yes	3.282	n/a	n/a	GoodResponse	1	n/a	n/a	2	4	Blank	Win	True
52.766	1.45	Win2	1.0	n/a	Yes	3.282	n/a	5.0	GoodResponse	1	0.039	51.805	2	4	Feedback	Win	True
54.22	3.282	Win2	1.0	n/a	Yes	3.282	n/a	n/a	GoodResponse	1	0.0	n/a	2	4	ISIslide	Win	True
57.53	0.25	Win2	1.0	0.0	Yes	2.77	0.03	n/a	GoodResponse	1	n/a	n/a	3	5	Cue	Win	True
57.781	4.0	Win2	1.0	0.0	Yes	2.77	0.001	n/a	GoodResponse	1	n/a	n/a	3	5	Fixation	Win	True
61.776	0.35	Win2	1.0	0.004	Yes	2.77	-0.004	1.0	GoodResponse	1	0.195	60.971	3	5	Target	Win	True
61.971	0.3	Win2	1.0	0.004	Yes	2.77	-0.004	1.0	GoodResponse	1	0.195	n/a	3	5	ButtonPress	Win	True
62.127	0.35	Win2	1.0	n/a	Yes	2.77	n/a	n/a	GoodResponse	1	n/a	n/a	3	5	Blank	Win	True
62.478	1.45	Win2	1.0	n/a	Yes	2.77	n/a	5.0	GoodResponse	1	0.033	61.511	3	5	Feedback	Win	True
63.933	2.77	Win2	1.0	n/a	Yes	2.77	n/a	n/a	GoodResponse	1	0.0	n/a	3	5	ISIslide	Win	True
66.724	0.25	Lose2	1.0	0.0	Yes	2.726	0.024	n/a	GoodResponse	0	n/a	n/a	3	6	Cue	AvoidedLoss	True
66.975	3.95	Lose2	1.0	0.0	Yes	2.726	0.001	n/a	GoodResponse	0	n/a	n/a	3	6	Fixation	AvoidedLoss	True
70.92	0.34	Lose2	1.0	0.004	Yes	2.726	-0.004	1.0	GoodResponse	0	0.188	70.108	3	6	Target	AvoidedLoss	True
71.108	0.3	Lose2	1.0	0.004	Yes	2.726	-0.004	1.0	GoodResponse	0	0.188	n/a	3	6	ButtonPress	AvoidedLoss	True
71.271	0.36	Lose2	1.0	n/a	Yes	2.726	n/a	n/a	GoodResponse	0	n/a	n/a	3	6	Blank	AvoidedLoss	True
71.622	1.45	Lose2	1.0	n/a	Yes	2.726	n/a	5.0	GoodResponse	0	0.011	70.633	3	6	Feedback	AvoidedLoss	True
73.077	2.726	Lose2	1.0	n/a	Yes	2.726	n/a	n/a	GoodResponse	0	0.0	n/a	3	6	ISIslide	AvoidedLoss	True
75.818	0.25	Lose2	1.0	0.0	Yes	4.032	0.018	n/a	GoodResponse	0	n/a	n/a	3	7	Cue	AvoidedLoss	True
76.069	4.05	Lose2	1.0	0.0	Yes	4.032	0.001	n/a	GoodResponse	0	n/a	n/a	3	7	Fixation	AvoidedLoss	True
80.114	0.33	Lose2	1.0	0.004	Yes	4.032	-0.004	1.0	GoodResponse	0	0.206	79.32	3	7	Target	AvoidedLoss	True
80.32	0.3	Lose2	1.0	0.004	Yes	4.032	-0.004	1.0	GoodResponse	0	0.206	n/a	3	7	ButtonPress	AvoidedLoss	True
80.449	0.37	Lose2	1.0	n/a	Yes	4.032	n/a	n/a	GoodResponse	0	n/a	n/a	3	7	Blank	AvoidedLoss	True
80.816	1.45	Lose2	1.0	n/a	Yes	4.032	n/a	5.0	GoodResponse	0	0.037	79.853	3	7	Feedback	AvoidedLoss	True
82.271	4.032	Lose2	1.0	n/a	Yes	4.032	n/a	n/a	GoodResponse	0	0.0	n/a	3	7	ISIslide	AvoidedLoss	True
86.316	0.25	Lose2	0.8889	0.0	No	3.034	0.016	n/a	NoResponse	-1	n/a	n/a	2	8	Cue	Loss	False
86.567	3.95	Lose2	0.8889	0.0	No	3.034	0.001	n/a	NoResponse	-1	n/a	n/a	2	8	Fixation	Loss	False
90.512	0.32	Lose2	0.8889	0.004	No	3.034	-0.004	n/a	NoResponse	-1	n/a	n/a	2	8	Target	Loss	False
90.846	0.38	Lose2	0.8889	n/a	No	3.034	n/a	n/a	NoResponse	-1	n/a	n/a	2	8	Blank	Loss	False
91.214	1.45	Lose2	0.8889	n/a	No	3.034	n/a	5.0	NoResponse	-1	0.029	90.243	2	8	Feedback	Loss	False
92.669	3.034	Lose2	0.8889	n/a	No	3.034	n/a	n/a	NoResponse	-1	0.0	n/a	2	8	ISIslide	Loss	False
95.728	0.25	Lose2	0.9	0.0	Yes	3.122	0.028	n/a	GoodResponse	0	n/a	n/a	2	9	Cue	AvoidedLoss	True
95.979	3.95	Lose2	0.9	0.0	Yes	3.122	0.001	n/a	GoodResponse	0	n/a	n/a	2	9	Fixation	AvoidedLoss	True
99.924	0.31	Lose2	0.9	0.004	Yes	3.122	-0.004	1.0	GoodResponse	0	0.278	99.202	2	9	Target	AvoidedLoss	True
100.202	0.3	Lose2	0.9	0.004	Yes	3.122	-0.004	1.0	GoodResponse	0	0.278	n/a	2	9	ButtonPress	AvoidedLoss	True
100.241	0.39	Lose2	0.9	n/a	Yes	3.122	n/a	n/a	GoodResponse	0	n/a	n/a	2	9	Blank	AvoidedLoss	True
100.626	1.45	Lose2	0.9	n/a	Yes	3.122	n/a	5.0	GoodResponse	0	0.032	99.658	2	9	Feedback	AvoidedLoss	True
102.08	3.122	Lose2	0.9	n/a	Yes	3.122	n/a	n/a	GoodResponse	0	0.0	n/a	2	9	ISIslide	AvoidedLoss	True
105.223	0.25	Control	0.9091	0.0	Yes	3.277	0.023	n/a	GoodResponse	0	n/a	n/a	2	10	Cue	Neutral	True
105.474	4.0	Control	0.9091	0.0	Yes	3.277	0.001	n/a	GoodResponse	0	n/a	n/a	2	10	Fixation	Neutral	True
109.469	0.3	Control	0.9091	0.004	Yes	3.277	-0.004	1.0	GoodResponse	0	0.224	108.693	2	10	Target	Neutral	True
109.693	0.3	Control	0.9091	0.004	Yes	3.277	-0.004	1.0	GoodResponse	0	0.224	n/a	2	10	ButtonPress	Neutral	True
109.77	0.4	Control	0.9091	n/a	Yes	3.277	n/a	n/a	GoodResponse	0	n/a	n/a	2	10	Blank	Neutral	True
110.171	1.45	Control	0.9091	n/a	Yes	3.277	n/a	5.0	GoodResponse	0	0.047	109.218	2	10	Feedback	Neutral	True
111.625	3.277	Control	0.9091	n/a	Yes	3.277	n/a	n/a	GoodResponse	0	0.0	n/a	2	10	ISIslide	Neutral	True
114.919	0.25	Lose2	0.9167000000000001	0.0	Yes	2.731	0.019	n/a	GoodResponse	0	n/a	n/a	2	11	Cue	AvoidedLoss	True
115.169	4.05	Lose2	0.9167000000000001	0.0	Yes	2.731	0.0	n/a	GoodResponse	0	n/a	n/a	2	11	Fixation	AvoidedLoss	True
119.215	0.29	Lose2	0.9167000000000001	0.004	Yes	2.731	-0.004	1.0	GoodResponse	0	0.195	118.41	2	11	Target	AvoidedLoss	True
119.41	0.3	Lose2	0.9167000000000001	0.004	Yes	2.731	-0.004	1.0	GoodResponse	0	0.195	n/a	2	11	ButtonPress	AvoidedLoss	True
119.516	0.41	Lose2	0.9167000000000001	n/a	Yes	2.731	n/a	n/a	GoodResponse	0	n/a	n/a	2	11	Blank	AvoidedLoss	True
119.917	1.45	Lose2	0.9167000000000001	n/a	Yes	2.731	n/a	5.0	GoodResponse	0	0.008	118.925	2	11	Feedback	AvoidedLoss	True
121.371	2.731	Lose2	0.9167000000000001	n/a	Yes	2.731	n/a	n/a	GoodResponse	0	0.0	n/a	2	11	ISIslide	AvoidedLoss	True
124.129	0.25	Control	0.9231	0.001	Yes	2.971	0.029	n/a	GoodResponse	0	n/a	n/a	2	12	Cue	Neutral	True
124.38	3.9	Control	0.9231	0.0	Yes	2.971	0.001	n/a	GoodResponse	0	n/a	n/a	2	12	Fixation	Neutral	True
128.275	0.28	Control	0.9231	0.004	Yes	2.971	-0.004	1.0	GoodResponse	0	0.161	127.436	2	12	Target	Neutral	True
128.436	0.3	Control	0.9231	0.004	Yes	2.971	-0.004	1.0	GoodResponse	0	0.161	n/a	2	12	ButtonPress	Neutral	True
128.559	0.42	Control	0.9231	n/a	Yes	2.971	n/a	n/a	GoodResponse	0	n/a	n/a	2	12	Blank	Neutral	True
128.977	1.45	Control	0.9231	n/a	Yes	2.971	n/a	5.0	GoodResponse	0	0.022	127.999	2	12	Feedback	Neutral	True
130.432	2.971	Control	0.9231	n/a	Yes	2.971	n/a	n/a	GoodResponse	0	0.0	n/a	2	12	ISIslide	Neutral	True
133.424	0.25	Control	0.9286	0.0	Yes	2.776	0.024	n/a	GoodResponse	0	n/a	n/a	2	13	Cue	Neutral	False
133.675	4.0	Control	0.9286	0.0	Yes	2.776	0.001	1.0	GoodResponse	0	3.907	136.582	2	13	Fixation	Neutral	False
137.582	0.3	Control	0.9286	0.0	Yes	2.776	0.001	1.0	GoodResponse	0	3.907	n/a	2	13	ButtonPress	Neutral	False
137.67	0.27	Control	0.9286	0.004	Yes	2.776	-0.004	1.0	GoodResponse	0	0.229	136.899	2	13	Target	Neutral	False
137.899	0.3	Control	0.9286	0.004	Yes	2.776	-0.004	1.0	GoodResponse	0	0.229	n/a	2	13	ButtonPress	Neutral	False
137.954	0.43	Control	0.9286	n/a	Yes	2.776	n/a	n/a	GoodResponse	0	n/a	n/a	2	13	Blank	Neutral	False
138.372	1.45	Control	0.9286	n/a	Yes	2.776	n/a	5.0	GoodResponse	0	0.041	137.413	2	13	Feedback	Neutral	False
139.826	2.776	Control	0.9286	n/a	Yes	2.776	n/a	n/a	GoodResponse	0	0.0	n/a	2	13	ISIslide	Neutral	False
142.618	0.25	Win2	0.9333	0.0	Yes	2.682	0.018	n/a	GoodResponse	1	n/a	n/a	3	14	Cue	Win	True
142.869	4.1	Win2	0.9333	0.0	Yes	2.682	0.001	n/a	GoodResponse	1	n/a	n/a	3	14	Fixation	Win	True
146.964	0.26	Win2	0.9333	0.004	Yes	2.682	-0.004	1.0	GoodResponse	1	0.177	146.141	3	14	Target	Win	True
147.141	0.3	Win2	0.9333	0.004	Yes	2.682	-0.004	1.0	GoodResponse	1	0.177	n/a	3	14	ButtonPress	Win	True
147.232	0.44	Win2	0.9333	n/a	Yes	2.682	n/a	n/a	GoodResponse	1	n/a	n/a	3	14	Blank	Win	True
147.667	1.45	Win2	0.9333	n/a	Yes	2.682	n/a	5.0	GoodResponse	1	0.015	146.682	3	14	Feedback	Win	True
149.121	2.682	Win2	0.9333	n/a	Yes	2.682	n/a	n/a	GoodResponse	1	0.0	n/a	3	14	ISIslide	Win	True
151.829	0.25	Control	0.9375	0.0	Yes	2.971	0.029	n/a	GoodResponse	0	n/a	n/a	3	15	Cue	Neutral	True
152.08	4.0	Control	0.9375	0.0	Yes	2.971	0.001	n/a	GoodResponse	0	n/a	n/a	3	15	Fixation	Neutral	True
156.075	0.25	Control	0.9375	0.004	Yes	2.971	-0.004	1.0	GoodResponse	0	0.189	155.264	3	15	Target	Neutral	True
156.264	0.3	Control	0.9375	0.004	Yes	2.971	-0.004	1.0	GoodResponse	0	0.189	n/a	3	15	ButtonPress	Neutral	True
156.326	0.45	Control	0.9375	n/a	Yes	2.971	n/a	n/a	GoodResponse	0	n/a	n/a	3	15	Blank	Neutral	True
156.777	1.45	Control	0.9375	n/a	Yes	2.971	n/a	5.0	GoodResponse	0	0.027	155.804	3	15	Feedback	Neutral	True
158.232	2.971	Control	0.9375	n/a	Yes	2.971	n/a	n/a	GoodResponse	0	0.0	n/a	3	15	ISIslide	Neutral	True
161.224	0.25	Win2	0.9412	0.0	Yes	2.876	0.024	n/a	GoodResponse	1	n/a	n/a	4	16	Cue	Win	True
161.475	4.0	Win2	0.9412	0.0	Yes	2.876	0.001	n/a	GoodResponse	1	n/a	n/a	4	16	Fixation	Win	True
165.47	0.24	Win2	0.9412	0.004	Yes	2.876	-0.004	1.0	GoodResponse	1	0.189	164.659	4	16	Target	Win	True
165.659	0.3	Win2	0.9412	0.004	Yes	2.876	-0.004	1.0	GoodResponse	1	0.189	n/a	4	16	ButtonPress	Win	True
165.721	0.46	Win2	0.9412	n/a	Yes	2.876	n/a	n/a	GoodResponse	1	n/a	n/a	4	16	Blank	Win	True
166.172	1.45	Win2	0.9412	n/a	Yes	2.876	n/a	5.0	GoodResponse	1	0.046	165.218	4	16	Feedback	Win	True
167.626	2.876	Win2	0.9412	n/a	Yes	2.876	n/a	n/a	GoodResponse	1	0.0	n/a	4	16	ISIslide	Win	True
170.518	0.25	Lose2	0.9444	0.0	Yes	2.732	0.018	n/a	GoodResponse	0	n/a	n/a	4	17	Cue	AvoidedLoss	True
170.769	3.95	Lose2	0.9444	0.0	Yes	2.732	0.001	n/a	GoodResponse	0	n/a	n/a	4	17	Fixation	AvoidedLoss	True
174.714	0.23	Lose2	0.9444	0.004	Yes	2.732	-0.004	1.0	GoodResponse	0	0.166	173.88	4	17	Target	AvoidedLoss	True
174.88	0.3	Lose2	0.9444	0.004	Yes	2.732	-0.004	1.0	GoodResponse	0	0.166	n/a	4	17	ButtonPress	AvoidedLoss	True
174.948	0.47	Lose2	0.9444	n/a	Yes	2.732	n/a	n/a	GoodResponse	0	n/a	n/a	4	17	Blank	AvoidedLoss	True
175.416	1.45	Lose2	0.9444	n/a	Yes	2.732	n/a	5.0	GoodResponse	0	0.021	174.437	4	17	Feedback	AvoidedLoss	True
176.871	2.732	Lose2	0.9444	n/a	Yes	2.732	n/a	n/a	GoodResponse	0	0.0	n/a	4	17	ISIslide	AvoidedLoss	True
179.629	0.25	Lose2	0.8946999999999999	0.0	No	2.721	0.029	n/a	NoResponse	-1	n/a	n/a	3	18	Cue	Loss	True
179.88	4.05	Lose2	0.8946999999999999	0.0	No	2.721	0.001	n/a	NoResponse	-1	n/a	n/a	3	18	Fixation	Loss	True
183.925	0.22	Lose2	0.8946999999999999	0.004	No	2.721	-0.004	1.0	NoResponse	-1	0.293	183.218	3	18	Target	Loss	True
184.159	0.48	Lose2	0.8946999999999999	n/a	No	2.721	n/a	n/a	NoResponse	-1	n/a	n/a	3	18	Blank	Loss	True
184.218	0.3	Lose2	0.8946999999999999	0.004	No	2.721	-0.004	1.0	NoResponse	-1	0.293	n/a	3	18	ButtonPress	Loss	True
184.627	1.45	Lose2	0.8946999999999999	n/a	No	2.721	n/a	5.0	NoResponse	-1	0.03	183.657	3	18	Feedback	Loss	True
186.082	2.721	Lose2	0.8946999999999999	n/a	No	2.721	n/a	n/a	NoResponse	-1	0.0	n/a	3	18	ISIslide	Loss	True
188.823	0.25	Control	0.85	0.0	No	2.927	0.023	n/a	NoResponse	0	n/a	n/a	3	19	Cue	Neutral	True
189.074	3.95	Control	0.85	0.0	No	2.927	0.001	n/a	NoResponse	0	n/a	n/a	3	19	Fixation	Neutral	True
193.019	0.21	Control	0.85	0.004	No	2.927	-0.004	1.0	NoResponse	0	0.218	192.237	3	19	Target	Neutral	True
193.236	0.49	Control	0.85	n/a	No	2.927	n/a	n/a	NoResponse	0	n/a	n/a	3	19	Blank	Neutral	True
193.237	0.3	Control	0.85	0.004	No	2.927	-0.004	1.0	NoResponse	0	0.218	n/a	3	19	ButtonPress	Neutral	True
193.721	1.45	Control	0.85	n/a	No	2.927	n/a	5.0	NoResponse	0	0.009	192.73	3	19	Feedback	Neutral	True
195.175	2.927	Control	0.85	n/a	No	2.927	n/a	n/a	NoResponse	0	0.0	n/a	3	19	ISIslide	Neutral	True
198.118	0.25	Control	0.8095	0.0	No	2.632	0.018	n/a	NoResponse	0	n/a	n/a	3	20	Cue	Neutral	True
198.368	4.05	Control	0.8095	0.0	No	2.632	0.0	n/a	NoResponse	0	n/a	n/a	3	20	Fixation	Neutral	True
202.414	0.2	Control	0.8095	0.004	No	2.632	-0.004	1.0	NoResponse	0	0.22	201.634	3	20	Target	Neutral	True
202.614	0.5	Control	0.8095	n/a	No	2.632	n/a	n/a	NoResponse	0	n/a	n/a	3	20	Blank	Neutral	True
202.634	0.3	Control	0.8095	0.004	No	2.632	-0.004	1.0	NoResponse	0	0.22	n/a	3	20	ButtonPress	Neutral	True
203.116	1.45	Control	0.8095	n/a	No	2.632	n/a	5.0	NoResponse	0	0.029	202.145	3	20	Feedback	Neutral	True
204.57	2.632	Control	0.8095	n/a	No	2.632	n/a	n/a	NoResponse	0	0.0	n/a	3	20	ISIslide	Neutral	True
207.228	0.25	Control	0.8181999999999999	0.0	Yes	2.772	0.028	n/a	GoodResponse	0	n/a	n/a	3	21	Cue	Neutral	True
207.479	4.1	Control	0.8181999999999999	0.0	Yes	2.772	0.001	n/a	GoodResponse	0	n/a	n/a	3	21	Fixation	Neutral	True
211.575	0.19	Control	0.8181999999999999	0.003	Yes	2.772	-0.003	1.0	GoodResponse	0	0.163	210.738	3	21	Target	Neutral	True
211.738	0.3	Control	0.8181999999999999	0.003	Yes	2.772	-0.003	1.0	GoodResponse	0	0.163	n/a	3	21	ButtonPress	Neutral	True
211.775	0.51	Control	0.8181999999999999	n/a	Yes	2.772	n/a	n/a	GoodResponse	0	n/a	n/a	3	21	Blank	Neutral	True
212.277	1.45	Control	0.8181999999999999	n/a	Yes	2.772	n/a	5.0	GoodResponse	0	0.038	211.315	3	21	Feedback	Neutral	True
213.731	2.772	Control	0.8181999999999999	n/a	Yes	2.772	n/a	n/a	GoodResponse	0	0.0	n/a	3	21	ISIslide	Neutral	True
216.523	0.25	Control	0.7826000000000001	0.0	No	2.777	0.023	n/a	NoResponse	0	n/a	n/a	3	22	Cue	Neutral	True
216.773	4.0	Control	0.7826000000000001	0.0	No	2.777	0.0	n/a	NoResponse	0	n/a	n/a	3	22	Fixation	Neutral	True
220.769	0.18	Control	0.7826000000000001	0.004	No	2.777	-0.004	1.0	NoResponse	0	0.192	219.961	3	22	Target	Neutral	True
220.953	0.52	Control	0.7826000000000001	n/a	No	2.777	n/a	n/a	NoResponse	0	n/a	n/a	3	22	Blank	Neutral	True
220.961	0.3	Control	0.7826000000000001	0.004	No	2.777	-0.004	1.0	NoResponse	0	0.192	n/a	3	22	ButtonPress	Neutral	True
221.471	1.45	Control	0.7826000000000001	n/a	No	2.777	n/a	5.0	NoResponse	0	0.015	220.486	3	22	Feedback	Neutral	True
222.925	2.777	Control	0.7826000000000001	n/a	No	2.777	n/a	n/a	NoResponse	0	0.0	n/a	3	22	ISIslide	Neutral	True
225.717	0.25	Control	0.75	0.0	No	2.783	0.017	n/a	LatePress	0	n/a	n/a	3	23	Cue	Neutral	True
225.968	3.9	Control	0.75	0.0	No	2.783	0.001	n/a	LatePress	0	n/a	n/a	3	23	Fixation	Neutral	True
229.863	0.17	Control	0.75	0.004	No	2.783	-0.004	1.0	LatePress	0	0.175	229.038	3	23	Target	Neutral	True
230.038	0.3	Control	0.75	0.004	No	2.783	-0.004	1.0	LatePress	0	0.175	n/a	3	23	ButtonPress	Neutral	True
230.046	0.53	Control	0.75	n/a	No	2.783	n/a	n/a	LatePress	0	n/a	n/a	3	23	Blank	Neutral	True
230.565	1.45	Control	0.75	n/a	No	2.783	n/a	5.0	LatePress	0	0.043	229.608	3	23	Feedback	Neutral	True
232.019	2.783	Control	0.75	n/a	No	2.783	n/a	n/a	LatePress	0	0.0	n/a	3	23	ISIslide	Neutral	True
234.827	0.25	Win2	0.72	0.001	No	3.123	0.027	n/a	NoResponse	0	n/a	n/a	3	24	Cue	MissedWin	True
235.078	3.95	Win2	0.72	0.0	No	3.123	0.001	n/a	NoResponse	0	n/a	n/a	3	24	Fixation	MissedWin	True
239.023	0.16	Win2	0.72	0.004	No	3.123	-0.004	1.0	NoResponse	0	0.186	238.209	3	24	Target	MissedWin	True
239.191	0.54	Win2	0.72	n/a	No	3.123	n/a	n/a	NoResponse	0	n/a	n/a	3	24	Blank	MissedWin	True
239.209	0.3	Win2	0.72	0.004	No	3.123	-0.004	1.0	NoResponse	0	0.186	n/a	3	24	ButtonPress	MissedWin	True
239.725	1.45	Win2	0.72	n/a	No	3.123	n/a	5.0	NoResponse	0	0.008	238.733	3	24	Feedback	MissedWin	True
241.18	3.123	Win2	0.72	n/a	No	3.123	n/a	n/a	NoResponse	0	0.0	n/a	3	24	ISIslide	MissedWin	True
244.323	0.25	Win2	0.6923	0.0	No	3.077	0.023	n/a	NoResponse	0	n/a	n/a	3	25	Cue	MissedWin	True
244.573	4.0	Win2	0.6923	0.0	No	3.077	0.0	n/a	NoResponse	0	n/a	n/a	3	25	Fixation	MissedWin	True
248.569	0.15	Win2	0.6923	0.004	No	3.077	-0.004	1.0	NoResponse	0	0.181	247.75	3	25	Target	MissedWin	True
248.719	0.55	Win2	0.6923	n/a	No	3.077	n/a	n/a	NoResponse	0	n/a	n/a	3	25	Blank	MissedWin	True
248.75	0.3	Win2	0.6923	0.004	No	3.077	-0.004	1.0	NoResponse	0	0.181	n/a	3	25	ButtonPress	MissedWin	True
249.271	1.45	Win2	0.6923	n/a	No	3.077	n/a	5.0	NoResponse	0	0.02	248.291	3	25	Feedback	MissedWin	True
250.725	3.077	Win2	0.6923	n/a	No	3.077	n/a	n/a	NoResponse	0	0.0	n/a	3	25	ISIslide	MissedWin	True
253.818	0.25	Win2	0.6667000000000001	0.0	No	2.932	0.018	n/a	NoResponse	0	n/a	n/a	3	26	Cue	MissedWin	True
254.068	3.95	Win2	0.6667000000000001	0.0	No	2.932	0.0	n/a	NoResponse	0	n/a	n/a	3	26	Fixation	MissedWin	True
258.014	0.15	Win2	0.6667000000000001	0.004	No	2.932	-0.004	1.0	NoResponse	0	0.18	257.194	3	26	Target	MissedWin	True
258.164	0.55	Win2	0.6667000000000001	n/a	No	2.932	n/a	n/a	NoResponse	0	n/a	n/a	3	26	Blank	MissedWin	True
258.194	0.3	Win2	0.6667000000000001	0.004	No	2.932	-0.004	1.0	NoResponse	0	0.18	n/a	3	26	ButtonPress	MissedWin	True
258.716	1.45	Win2	0.6667000000000001	n/a	No	2.932	n/a	5.0	NoResponse	0	0.038	257.754	3	26	Feedback	MissedWin	True
260.17	2.932	Win2	0.6667000000000001	n/a	No	2.932	n/a	n/a	NoResponse	0	0.0	n/a	3	26	ISIslide	MissedWin	True
263.129	0.25	Lose2	0.6429	0.0	No	2.821	0.029	n/a	NoResponse	-1	n/a	n/a	2	27	Cue	Loss	True
263.38	4.05	Lose2	0.6429	0.0	No	2.821	0.001	n/a	NoResponse	-1	n/a	n/a	2	27	Fixation	Loss	True
267.425	0.15	Lose2	0.6429	0.004	No	2.821	-0.004	1.0	NoResponse	-1	0.169	266.594	2	27	Target	Loss	True
267.575	0.55	Lose2	0.6429	n/a	No	2.821	n/a	n/a	NoResponse	-1	n/a	n/a	2	27	Blank	Loss	True
267.594	0.3	Lose2	0.6429	0.004	No	2.821	-0.004	1.0	NoResponse	-1	0.169	n/a	2	27	ButtonPress	Loss	True
268.127	1.45	Lose2	0.6429	n/a	No	2.821	n/a	5.0	NoResponse	-1	0.041	267.168	2	27	Feedback	Loss	True
269.581	2.821	Lose2	0.6429	n/a	No	2.821	n/a	n/a	NoResponse	-1	0.0	n/a	2	27	ISIslide	Loss	True
272.423	0.25	Control	0.6207	0.0	No	2.827	0.023	n/a	NoResponse	0	n/a	n/a	2	28	Cue	Neutral	True
272.674	4.05	Control	0.6207	0.0	No	2.827	0.001	n/a	NoResponse	0	n/a	n/a	2	28	Fixation	Neutral	True
276.72	0.16	Control	0.6207	0.003	No	2.827	-0.003	1.0	NoResponse	0	0.176	275.896	2	28	Target	Neutral	True
276.887	0.54	Control	0.6207	n/a	No	2.827	n/a	n/a	NoResponse	0	n/a	n/a	2	28	Blank	Neutral	True
276.896	0.3	Control	0.6207	0.003	No	2.827	-0.003	1.0	NoResponse	0	0.176	n/a	2	28	ButtonPress	Neutral	True
277.422	1.45	Control	0.6207	n/a	No	2.827	n/a	5.0	NoResponse	0	0.014	276.436	2	28	Feedback	Neutral	True
278.876	2.827	Control	0.6207	n/a	No	2.827	n/a	n/a	NoResponse	0	0.0	n/a	2	28	ISIslide	Neutral	True
281.718	0.25	Lose2	0.6	0.0	No	2.832	0.018	n/a	PrematurePress	-1	n/a	n/a	1	29	Cue	Loss	True
281.969	3.95	Lose2	0.6	0.0	No	2.832	0.001	n/a	PrematurePress	-1	n/a	n/a	1	29	Fixation	Loss	True
285.914	0.17	Lose2	0.6	0.004	No	2.832	-0.004	1.0	PrematurePress	-1	0.036	284.95	1	29	Target	Loss	True
285.95	0.3	Lose2	0.6	0.004	No	2.832	-0.004	1.0	PrematurePress	-1	0.036	n/a	1	29	ButtonPress	Loss	True
286.098	0.53	Lose2	0.6	n/a	No	2.832	n/a	n/a	PrematurePress	-1	n/a	n/a	1	29	Blank	Loss	True
286.616	1.45	Lose2	0.6	n/a	No	2.832	n/a	5.0	PrematurePress	-1	0.04	285.656	1	29	Feedback	Loss	True
288.07	2.832	Lose2	0.6	n/a	No	2.832	n/a	n/a	PrematurePress	-1	0.0	n/a	1	29	ISIslide	Loss	True
290.929	0.25	Win2	0.5806	0.0	No	2.771	0.029	n/a	NoResponse	0	n/a	n/a	1	30	Cue	MissedWin	True
291.179	3.9	Win2	0.5806	0.001	No	2.771	0.0	n/a	NoResponse	0	n/a	n/a	1	30	Fixation	MissedWin	True
295.091	0.18	Win2	0.5806	0.0	No	2.771	0.012	1.0	NoResponse	0	0.175	294.266	1	30	Target	MissedWin	True
295.258	0.52	Win2	0.5806	n/a	No	2.771	n/a	n/a	NoResponse	0	n/a	n/a	1	30	Blank	MissedWin	True
295.266	0.3	Win2	0.5806	0.0	No	2.771	0.012	1.0	NoResponse	0	0.175	n/a	1	30	ButtonPress	MissedWin	True
295.777	1.45	Win2	0.5806	n/a	No	2.771	n/a	5.0	NoResponse	0	0.001	294.778	1	30	Feedback	MissedWin	True
297.231	2.771	Win2	0.5806	n/a	No	2.771	n/a	n/a	NoResponse	0	0.0	n/a	1	30	ISIslide	MissedWin	True
300.023	0.25	Lose2	0.5938	0.0	Yes	2.827	0.023	n/a	GoodResponse	0	n/a	n/a	1	31	Cue	AvoidedLoss	True
300.273	4.05	Lose2	0.5938	0.0	Yes	2.827	0.0	n/a	GoodResponse	0	n/a	n/a	1	31	Fixation	AvoidedLoss	True
304.319	0.19	Lose2	0.5938	0.004	Yes	2.827	-0.004	1.0	GoodResponse	0	0.146	303.465	1	31	Target	AvoidedLoss	True
304.465	0.3	Lose2	0.5938	0.004	Yes	2.827	-0.004	1.0	GoodResponse	0	0.146	n/a	1	31	ButtonPress	AvoidedLoss	True
304.519	0.51	Lose2	0.5938	n/a	Yes	2.827	n/a	n/a	GoodResponse	0	n/a	n/a	1	31	Blank	AvoidedLoss	True
305.021	1.45	Lose2	0.5938	n/a	Yes	2.827	n/a	5.0	GoodResponse	0	0.025	304.046	1	31	Feedback	AvoidedLoss	True
306.475	2.827	Lose2	0.5938	n/a	Yes	2.827	n/a	n/a	GoodResponse	0	0.0	n/a	1	31	ISIslide	AvoidedLoss	True
309.317	0.25	Lose2	0.5758	0.0	No	2.633	0.017	n/a	NoResponse	-1	n/a	n/a	0	32	Cue	Loss	False
309.568	4.15	Lose2	0.5758	0.0	No	2.633	0.001	1.0	NoResponse	-1	4.096	312.664	0	32	Fixation	Loss	False
313.664	0.3	Lose2	0.5758	0.0	No	2.633	0.001	1.0	NoResponse	-1	4.096	n/a	0	32	ButtonPress	Loss	False
313.714	0.2	Lose2	0.5758	0.003	No	2.633	-0.003	1.0	NoResponse	-1	0.265	312.979	0	32	Target	Loss	False
313.914	0.5	Lose2	0.5758	n/a	No	2.633	n/a	n/a	NoResponse	-1	n/a	n/a	0	32	Blank	Loss	False
313.979	0.3	Lose2	0.5758	0.003	No	2.633	-0.003	1.0	NoResponse	-1	0.265	n/a	0	32	ButtonPress	Loss	False
314.416	1.45	Lose2	0.5758	n/a	No	2.633	n/a	5.0	NoResponse	-1	0.044	313.46	0	32	Feedback	Loss	False
315.87	2.633	Lose2	0.5758	n/a	No	2.633	n/a	n/a	NoResponse	-1	0.0	n/a	0	32	ISIslide	Loss	False
318.528	0.25	Win2	0.5882000000000001	0.0	Yes	2.672	0.028	n/a	GoodResponse	1	n/a	n/a	1	33	Cue	Win	True
318.779	4.0	Win2	0.5882000000000001	0.0	Yes	2.672	0.001	n/a	GoodResponse	1	n/a	n/a	1	33	Fixation	Win	True
322.774	0.21	Win2	0.5882000000000001	0.004	Yes	2.672	-0.004	1.0	GoodResponse	1	0.188	321.962	1	33	Target	Win	True
322.962	0.3	Win2	0.5882000000000001	0.004	Yes	2.672	-0.004	1.0	GoodResponse	1	0.188	n/a	1	33	ButtonPress	Win	True
322.991	0.49	Win2	0.5882000000000001	n/a	Yes	2.672	n/a	n/a	GoodResponse	1	n/a	n/a	1	33	Blank	Win	True
323.476	1.45	Win2	0.5882000000000001	n/a	Yes	2.672	n/a	5.0	GoodResponse	1	0.009	322.485	1	33	Feedback	Win	True
324.93	2.672	Win2	0.5882000000000001	n/a	Yes	2.672	n/a	n/a	GoodResponse	1	0.0	n/a	1	33	ISIslide	Win	True
327.622	0.25	Lose2	0.6	0.0	Yes	2.628	0.022	n/a	GoodResponse	0	n/a	n/a	1	34	Cue	AvoidedLoss	True
327.873	4.05	Lose2	0.6	0.0	Yes	2.628	0.001	n/a	GoodResponse	0	n/a	n/a	1	34	Fixation	AvoidedLoss	True
331.918	0.22	Lose2	0.6	0.004	Yes	2.628	-0.004	1.0	GoodResponse	0	0.18	331.098	1	34	Target	AvoidedLoss	True
332.098	0.3	Lose2	0.6	0.004	Yes	2.628	-0.004	1.0	GoodResponse	0	0.18	n/a	1	34	ButtonPress	AvoidedLoss	True
332.152	0.48	Lose2	0.6	n/a	Yes	2.628	n/a	n/a	GoodResponse	0	n/a	n/a	1	34	Blank	AvoidedLoss	True
332.62	1.45	Lose2	0.6	n/a	Yes	2.628	n/a	5.0	GoodResponse	0	0.036	331.656	1	34	Feedback	AvoidedLoss	True
334.075	2.628	Lose2	0.6	n/a	Yes	2.628	n/a	n/a	GoodResponse	0	0.0	n/a	1	34	ISIslide	AvoidedLoss	True
336.716	0.25	Lose2	0.6111	0.0	Yes	2.684	0.016	n/a	GoodResponse	0	n/a	n/a	1	35	Cue	AvoidedLoss	True
336.967	4.0	Lose2	0.6111	0.0	Yes	2.684	0.001	n/a	GoodResponse	0	n/a	n/a	1	35	Fixation	AvoidedLoss	True
340.962	0.23	Lose2	0.6111	0.004	Yes	2.684	-0.004	1.0	GoodResponse	0	0.186	340.148	1	35	Target	AvoidedLoss	True
341.148	0.3	Lose2	0.6111	0.004	Yes	2.684	-0.004	1.0	GoodResponse	0	0.186	n/a	1	35	ButtonPress	AvoidedLoss	True
341.196	0.47	Lose2	0.6111	n/a	Yes	2.684	n/a	n/a	GoodResponse	0	n/a	n/a	1	35	Blank	AvoidedLoss	True
341.664	1.45	Lose2	0.6111	n/a	Yes	2.684	n/a	5.0	GoodResponse	0	0.016	340.68	1	35	Feedback	AvoidedLoss	True
343.118	2.684	Lose2	0.6111	n/a	Yes	2.684	n/a	n/a	GoodResponse	0	0.0	n/a	1	35	ISIslide	AvoidedLoss	True
345.826	0.25	Control	0.6215999999999999	0.0	Yes	2.674	0.026	n/a	GoodResponse	0	n/a	n/a	1	36	Cue	Neutral	True
346.077	4.0	Control	0.6215999999999999	0.0	Yes	2.674	0.001	n/a	GoodResponse	0	n/a	n/a	1	36	Fixation	Neutral	True
350.072	0.24	Control	0.6215999999999999	0.004	Yes	2.674	-0.004	1.0	GoodResponse	0	0.189	349.261	1	36	Target	Neutral	True
350.261	0.3	Control	0.6215999999999999	0.004	Yes	2.674	-0.004	1.0	GoodResponse	0	0.189	n/a	1	36	ButtonPress	Neutral	True
350.323	0.46	Control	0.6215999999999999	n/a	Yes	2.674	n/a	n/a	GoodResponse	0	n/a	n/a	1	36	Blank	Neutral	True
350.775	1.45	Control	0.6215999999999999	n/a	Yes	2.674	n/a	5.0	GoodResponse	0	0.027	349.802	1	36	Feedback	Neutral	True
352.229	2.674	Control	0.6215999999999999	n/a	Yes	2.674	n/a	n/a	GoodResponse	0	0.0	n/a	1	36	ISIslide	Neutral	True
354.92	0.25	Win2	0.6315999999999999	0.0	Yes	2.88	0.02	n/a	GoodResponse	1	n/a	n/a	2	37	Cue	Win	True
355.171	4.0	Win2	0.6315999999999999	0.0	Yes	2.88	0.001	n/a	GoodResponse	1	n/a	n/a	2	37	Fixation	Win	True
359.166	0.25	Win2	0.6315999999999999	0.004	Yes	2.88	-0.004	1.0	GoodResponse	1	0.182	358.348	2	37	Target	Win	True
359.348	0.3	Win2	0.6315999999999999	0.004	Yes	2.88	-0.004	1.0	GoodResponse	1	0.182	n/a	2	37	ButtonPress	Win	True
359.417	0.45	Win2	0.6315999999999999	n/a	Yes	2.88	n/a	n/a	GoodResponse	1	n/a	n/a	2	37	Blank	Win	True
359.868	1.45	Win2	0.6315999999999999	n/a	Yes	2.88	n/a	5.0	GoodResponse	1	0.008	358.876	2	37	Feedback	Win	True
361.323	2.88	Win2	0.6315999999999999	n/a	Yes	2.88	n/a	n/a	GoodResponse	1	0.0	n/a	2	37	ISIslide	Win	True
364.215	0.25	Lose2	0.6409999999999999	0.0	Yes	2.835	0.015	n/a	GoodResponse	0	n/a	n/a	2	38	Cue	AvoidedLoss	True
364.465	3.95	Lose2	0.6409999999999999	0.001	Yes	2.835	0.0	n/a	GoodResponse	0	n/a	n/a	2	38	Fixation	AvoidedLoss	True
368.411	0.26	Lose2	0.6409999999999999	0.004	Yes	2.835	-0.004	1.0	GoodResponse	0	0.203	367.614	2	38	Target	AvoidedLoss	True
368.614	0.3	Lose2	0.6409999999999999	0.004	Yes	2.835	-0.004	1.0	GoodResponse	0	0.203	n/a	2	38	ButtonPress	AvoidedLoss	True
368.678	0.44	Lose2	0.6409999999999999	n/a	Yes	2.835	n/a	n/a	GoodResponse	0	n/a	n/a	2	38	Blank	AvoidedLoss	True
369.113	1.45	Lose2	0.6409999999999999	n/a	Yes	2.835	n/a	5.0	GoodResponse	0	0.03	368.143	2	38	Feedback	AvoidedLoss	True
370.567	2.835	Lose2	0.6409999999999999	n/a	Yes	2.835	n/a	n/a	GoodResponse	0	0.0	n/a	2	38	ISIslide	AvoidedLoss	True
373.426	0.25	Win2	0.65	0.0	Yes	2.974	0.026	n/a	GoodResponse	1	n/a	n/a	3	39	Cue	Win	True
373.676	4.1	Win2	0.65	0.0	Yes	2.974	0.0	n/a	GoodResponse	1	n/a	n/a	3	39	Fixation	Win	True
377.772	0.27	Win2	0.65	0.004	Yes	2.974	-0.004	1.0	GoodResponse	1	0.182	376.954	3	39	Target	Win	True
377.954	0.3	Win2	0.65	0.004	Yes	2.974	-0.004	1.0	GoodResponse	1	0.182	n/a	3	39	ButtonPress	Win	True
378.056	0.43	Win2	0.65	n/a	Yes	2.974	n/a	n/a	GoodResponse	1	n/a	n/a	3	39	Blank	Win	True
378.474	1.45	Win2	0.65	n/a	Yes	2.974	n/a	5.0	GoodResponse	1	0.035	377.509	3	39	Feedback	Win	True
379.928	2.974	Win2	0.65	n/a	Yes	2.974	n/a	n/a	GoodResponse	1	0.0	n/a	3	39	ISIslide	Win	True
382.921	0.25	Win2	0.6585	0.0	Yes	2.729	0.021	n/a	GoodResponse	1	n/a	n/a	4	40	Cue	Win	True
383.172	3.95	Win2	0.6585	0.0	Yes	2.729	0.001	n/a	GoodResponse	1	n/a	n/a	4	40	Fixation	Win	True
387.117	0.28	Win2	0.6585	0.004	Yes	2.729	-0.004	1.0	GoodResponse	1	0.186	386.303	4	40	Target	Win	True
387.303	0.3	Win2	0.6585	0.004	Yes	2.729	-0.004	1.0	GoodResponse	1	0.186	n/a	4	40	ButtonPress	Win	True
387.401	0.42	Win2	0.6585	n/a	Yes	2.729	n/a	n/a	GoodResponse	1	n/a	n/a	4	40	Blank	Win	True
387.819	1.45	Win2	0.6585	n/a	Yes	2.729	n/a	5.0	GoodResponse	1	0.008	386.827	4	40	Feedback	Win	True
389.273	2.729	Win2	0.6585	n/a	Yes	2.729	n/a	n/a	GoodResponse	1	0.0	n/a	4	40	ISIslide	Win	True
392.031	0.25	Win2	0.6667000000000001	0.0	Yes	2.769	0.031	n/a	GoodResponse	1	n/a	n/a	5	41	Cue	Win	True
392.282	3.9	Win2	0.6667000000000001	0.0	Yes	2.769	0.001	n/a	GoodResponse	1	n/a	n/a	5	41	Fixation	Win	True
396.177	0.28	Win2	0.6667000000000001	0.004	Yes	2.769	-0.004	1.0	GoodResponse	1	0.187	395.364	5	41	Target	Win	True
396.364	0.3	Win2	0.6667000000000001	0.004	Yes	2.769	-0.004	1.0	GoodResponse	1	0.187	n/a	5	41	ButtonPress	Win	True
396.461	0.42	Win2	0.6667000000000001	n/a	Yes	2.769	n/a	n/a	GoodResponse	1	n/a	n/a	5	41	Blank	Win	True
396.879	1.45	Win2	0.6667000000000001	n/a	Yes	2.769	n/a	5.0	GoodResponse	1	0.02	395.899	5	41	Feedback	Win	True
398.334	2.769	Win2	0.6667000000000001	n/a	Yes	2.769	n/a	n/a	GoodResponse	1	0.0	n/a	5	41	ISIslide	Win	True
401.125	0.25	Control	0.6744	0.0	Yes	2.925	0.025	n/a	GoodResponse	0	n/a	n/a	5	42	Cue	Neutral	True
401.376	3.85	Control	0.6744	0.0	Yes	2.925	0.001	n/a	GoodResponse	0	n/a	n/a	5	42	Fixation	Neutral	True
405.221	0.27	Control	0.6744	0.004	Yes	2.925	-0.004	1.0	GoodResponse	0	0.205	404.426	5	42	Target	Neutral	True
405.426	0.3	Control	0.6744	0.004	Yes	2.925	-0.004	1.0	GoodResponse	0	0.205	n/a	5	42	ButtonPress	Neutral	True
405.505	0.43	Control	0.6744	n/a	Yes	2.925	n/a	n/a	GoodResponse	0	n/a	n/a	5	42	Blank	Neutral	True
405.923	1.45	Control	0.6744	n/a	Yes	2.925	n/a	5.0	GoodResponse	0	0.001	404.924	5	42	Feedback	Neutral	True
407.377	2.925	Control	0.6744	n/a	Yes	2.925	n/a	n/a	GoodResponse	0	0.0	n/a	5	42	ISIslide	Neutral	True
410.319	0.25	Win2	0.6818000000000001	0.001	Yes	3.181	0.019	n/a	GoodResponse	1	n/a	n/a	6	43	Cue	Win	True
410.57	4.0	Win2	0.6818000000000001	0.0	Yes	3.181	0.001	n/a	GoodResponse	1	n/a	n/a	6	43	Fixation	Win	True
414.565	0.26	Win2	0.6818000000000001	0.004	Yes	3.181	-0.004	1.0	GoodResponse	1	0.175	413.74	6	43	Target	Win	True
414.74	0.3	Win2	0.6818000000000001	0.004	Yes	3.181	-0.004	1.0	GoodResponse	1	0.175	n/a	6	43	ButtonPress	Win	True
414.833	0.44	Win2	0.6818000000000001	n/a	Yes	3.181	n/a	n/a	GoodResponse	1	n/a	n/a	6	43	Blank	Win	True
415.268	1.45	Win2	0.6818000000000001	n/a	Yes	3.181	n/a	5.0	GoodResponse	1	0.021	414.289	6	43	Feedback	Win	True
416.722	3.181	Win2	0.6818000000000001	n/a	Yes	3.181	n/a	n/a	GoodResponse	1	0.0	n/a	6	43	ISIslide	Win	True
419.932	0.25	Win2	0.6889	0.0	Yes	2.968	0.032	n/a	GoodResponse	1	n/a	n/a	7	44	Cue	Win	True
420.182	4.0	Win2	0.6889	0.0	Yes	2.968	0.0	n/a	GoodResponse	1	n/a	n/a	7	44	Fixation	Win	True
424.178	0.25	Win2	0.6889	0.004	Yes	2.968	-0.004	1.0	GoodResponse	1	0.201	423.379	7	44	Target	Win	True
424.379	0.3	Win2	0.6889	0.004	Yes	2.968	-0.004	1.0	GoodResponse	1	0.201	n/a	7	44	ButtonPress	Win	True
424.428	0.45	Win2	0.6889	n/a	Yes	2.968	n/a	n/a	GoodResponse	1	n/a	n/a	7	44	Blank	Win	True
424.88	1.45	Win2	0.6889	n/a	Yes	2.968	n/a	5.0	GoodResponse	1	0.018	423.898	7	44	Feedback	Win	True
426.334	2.968	Win2	0.6889	n/a	Yes	2.968	n/a	n/a	GoodResponse	1	0.0	n/a	7	44	ISIslide	Win	True
429.326	0.25	Control	0.6739	0.0	No	2.874	0.026	n/a	NoResponse	0	n/a	n/a	7	45	Cue	Neutral	True
429.577	4.1	Control	0.6739	0.0	No	2.874	0.001	1.0	NoResponse	0	4.082	432.659	7	45	Fixation	Neutral	True
433.659	0.3	Control	0.6739	0.0	No	2.874	0.001	1.0	NoResponse	0	4.082	n/a	7	45	ButtonPress	Neutral	True
433.673	0.24	Control	0.6739	0.003	No	2.874	-0.003	n/a	NoResponse	0	n/a	n/a	7	45	Target	Neutral	True
433.923	0.46	Control	0.6739	n/a	No	2.874	n/a	n/a	NoResponse	0	n/a	n/a	7	45	Blank	Neutral	True
434.375	1.45	Control	0.6739	n/a	No	2.874	n/a	5.0	NoResponse	0	0.036	433.411	7	45	Feedback	Neutral	True
435.829	2.874	Control	0.6739	n/a	No	2.874	n/a	n/a	NoResponse	0	0.0	n/a	7	45	ISIslide	Neutral	True
438.721	0.25	Lose2	0.6809000000000001	0.0	Yes	3.379	0.021	n/a	GoodResponse	0	n/a	n/a	7	46	Cue	AvoidedLoss	True
438.972	4.0	Lose2	0.6809000000000001	0.0	Yes	3.379	0.001	n/a	GoodResponse	0	n/a	n/a	7	46	Fixation	AvoidedLoss	True
442.967	0.23	Lose2	0.6809000000000001	0.004	Yes	3.379	-0.004	1.0	GoodResponse	0	0.183	442.15	7	46	Target	AvoidedLoss	True
443.15	0.3	Lose2	0.6809000000000001	0.004	Yes	3.379	-0.004	1.0	GoodResponse	0	0.183	n/a	7	46	ButtonPress	AvoidedLoss	True
443.201	0.47	Lose2	0.6809000000000001	n/a	Yes	3.379	n/a	n/a	GoodResponse	0	n/a	n/a	7	46	Blank	AvoidedLoss	True
443.669	1.45	Lose2	0.6809000000000001	n/a	Yes	3.379	n/a	5.0	GoodResponse	0	0.01	442.679	7	46	Feedback	AvoidedLoss	True
445.124	3.379	Lose2	0.6809000000000001	n/a	Yes	3.379	n/a	n/a	GoodResponse	0	0.0	n/a	7	46	ISIslide	AvoidedLoss	True
448.517	0.25	Lose2	0.6875	0.0	Yes	2.683	0.017	n/a	GoodResponse	0	n/a	n/a	7	47	Cue	AvoidedLoss	True
448.768	4.0	Lose2	0.6875	0.0	Yes	2.683	0.001	n/a	GoodResponse	0	n/a	n/a	7	47	Fixation	AvoidedLoss	True
452.763	0.22	Lose2	0.6875	0.004	Yes	2.683	-0.004	1.0	GoodResponse	0	0.178	451.941	7	47	Target	AvoidedLoss	True
452.941	0.3	Lose2	0.6875	0.004	Yes	2.683	-0.004	1.0	GoodResponse	0	0.178	n/a	7	47	ButtonPress	AvoidedLoss	True
452.997	0.48	Lose2	0.6875	n/a	Yes	2.683	n/a	n/a	GoodResponse	0	n/a	n/a	7	47	Blank	AvoidedLoss	True
453.465	1.45	Lose2	0.6875	n/a	Yes	2.683	n/a	5.0	GoodResponse	0	0.019	452.484	7	47	Feedback	AvoidedLoss	True
454.92	2.683	Lose2	0.6875	n/a	Yes	2.683	n/a	n/a	GoodResponse	0	0.0	n/a	7	47	ISIslide	AvoidedLoss	True
457.628	0.25	Lose2	0.6939	0.0	Yes	3.022	0.028	n/a	GoodResponse	0	n/a	n/a	7	48	Cue	AvoidedLoss	True
457.878	3.95	Lose2	0.6939	0.001	Yes	3.022	0.0	n/a	GoodResponse	0	n/a	n/a	7	48	Fixation	AvoidedLoss	True
461.824	0.21	Lose2	0.6939	0.004	Yes	3.022	-0.004	1.0	GoodResponse	0	0.189	461.013	7	48	Target	AvoidedLoss	True
462.013	0.3	Lose2	0.6939	0.004	Yes	3.022	-0.004	1.0	GoodResponse	0	0.189	n/a	7	48	ButtonPress	AvoidedLoss	True
462.041	0.49	Lose2	0.6939	n/a	Yes	3.022	n/a	n/a	GoodResponse	0	n/a	n/a	7	48	Blank	AvoidedLoss	True
462.526	1.45	Lose2	0.6939	n/a	Yes	3.022	n/a	5.0	GoodResponse	0	0.03	461.556	7	48	Feedback	AvoidedLoss	True
463.98	3.022	Lose2	0.6939	n/a	Yes	3.022	n/a	n/a	GoodResponse	0	0.0	n/a	7	48	ISIslide	AvoidedLoss	True
467.022	0.25	Control	0.7	0.001	Yes	2.878	0.022	n/a	GoodResponse	0	n/a	n/a	7	49	Cue	Neutral	True
467.273	4.0	Control	0.7	0.0	Yes	2.878	0.001	n/a	GoodResponse	0	n/a	n/a	7	49	Fixation	Neutral	True
471.269	0.2	Control	0.7	0.003	Yes	2.878	-0.003	1.0	GoodResponse	0	0.183	470.452	7	49	Target	Neutral	True
471.452	0.3	Control	0.7	0.003	Yes	2.878	-0.003	1.0	GoodResponse	0	0.183	n/a	7	49	ButtonPress	Neutral	True
471.469	0.5	Control	0.7	n/a	Yes	2.878	n/a	n/a	GoodResponse	0	n/a	n/a	7	49	Blank	Neutral	True
471.971	1.45	Control	0.7	n/a	Yes	2.878	n/a	5.0	GoodResponse	0	0.0	470.971	7	49	Feedback	Neutral	True
473.425	2.878	Control	0.7	n/a	Yes	2.878	n/a	n/a	GoodResponse	0	0.0	n/a	7	49	ISIslide	Neutral	True
476.317	0.25	Control	0.6862999999999999	0.0	No	2.783	0.017	n/a	LatePress	0	n/a	n/a	7	50	Cue	Neutral	True
476.568	4.0	Control	0.6862999999999999	0.0	No	2.783	0.001	n/a	LatePress	0	n/a	n/a	7	50	Fixation	Neutral	True
480.563	0.19	Control	0.6862999999999999	0.004	No	2.783	-0.004	1.0	LatePress	0	0.193	479.756	7	50	Target	Neutral	True
480.756	0.3	Control	0.6862999999999999	0.004	No	2.783	-0.004	1.0	LatePress	0	0.193	n/a	7	50	ButtonPress	Neutral	True
480.764	0.51	Control	0.6862999999999999	n/a	No	2.783	n/a	n/a	LatePress	0	n/a	n/a	7	50	Blank	Neutral	True
481.265	1.45	Control	0.6862999999999999	n/a	No	2.783	n/a	5.0	LatePress	0	0.023	480.288	7	50	Feedback	Neutral	True
482.719	2.783	Control	0.6862999999999999	n/a	No	2.783	n/a	n/a	LatePress	0	0.0	n/a	7	50	ISIslide	Neutral	True
485.528	0.25	Control	0.6731	0.0	No	2.722	0.028	n/a	NoResponse	0	n/a	n/a	7	51	Cue	Neutral	True
485.779	3.95	Control	0.6731	0.0	No	2.722	0.001	n/a	NoResponse	0	n/a	n/a	7	51	Fixation	Neutral	True
489.724	0.18	Control	0.6731	0.004	No	2.722	-0.004	1.0	NoResponse	0	0.223	488.947	7	51	Target	Neutral	True
489.908	0.52	Control	0.6731	n/a	No	2.722	n/a	n/a	NoResponse	0	n/a	n/a	7	51	Blank	Neutral	True
489.947	0.3	Control	0.6731	0.004	No	2.722	-0.004	1.0	NoResponse	0	0.223	n/a	7	51	ButtonPress	Neutral	True
490.426	1.45	Control	0.6731	n/a	No	2.722	n/a	5.0	NoResponse	0	0.033	489.459	7	51	Feedback	Neutral	True
491.88	2.722	Control	0.6731	n/a	No	2.722	n/a	n/a	NoResponse	0	0.0	n/a	7	51	ISIslide	Neutral	True
494.622	0.25	Control	0.6604000000000001	0.0	No	2.628	0.022	n/a	NoResponse	0	n/a	n/a	7	52	Cue	Neutral	True
494.873	4.05	Control	0.6604000000000001	0.0	No	2.628	0.001	n/a	NoResponse	0	n/a	n/a	7	52	Fixation	Neutral	True
498.918	0.17	Control	0.6604000000000001	0.004	No	2.628	-0.004	1.0	NoResponse	0	0.192	498.11	7	52	Target	Neutral	True
499.102	0.53	Control	0.6604000000000001	n/a	No	2.628	n/a	n/a	NoResponse	0	n/a	n/a	7	52	Blank	Neutral	True
499.11	0.3	Control	0.6604000000000001	0.004	No	2.628	-0.004	1.0	NoResponse	0	0.192	n/a	7	52	ButtonPress	Neutral	True
499.62	1.45	Control	0.6604000000000001	n/a	No	2.628	n/a	5.0	NoResponse	0	0.01	498.63	7	52	Feedback	Neutral	True
501.074	2.628	Control	0.6604000000000001	n/a	No	2.628	n/a	n/a	NoResponse	0	0.0	n/a	7	52	ISIslide	Neutral	True
503.716	0.25	Win2	0.6481	0.0	No	2.934	0.016	n/a	PrematurePress	0	n/a	n/a	7	53	Cue	MissedWin	True
503.966	4.05	Win2	0.6481	0.0	No	2.934	0.0	n/a	PrematurePress	0	n/a	n/a	7	53	Fixation	MissedWin	True
508.012	0.17	Win2	0.6481	0.004	No	2.934	-0.004	1.0	PrematurePress	0	0.033	507.045	7	53	Target	MissedWin	True
508.045	0.3	Win2	0.6481	0.004	No	2.934	-0.004	1.0	PrematurePress	0	0.033	n/a	7	53	ButtonPress	MissedWin	True
508.196	0.53	Win2	0.6481	n/a	No	2.934	n/a	n/a	PrematurePress	0	n/a	n/a	7	53	Blank	MissedWin	True
508.714	1.45	Win2	0.6481	n/a	No	2.934	n/a	5.0	PrematurePress	0	0.038	507.752	7	53	Feedback	MissedWin	True
510.168	2.934	Win2	0.6481	n/a	No	2.934	n/a	n/a	PrematurePress	0	0.0	n/a	7	53	ISIslide	MissedWin	True
513.127	0.25	Win2	0.6545000000000001	0.0	Yes	2.723	0.027	n/a	GoodResponse	1	n/a	n/a	8	54	Cue	Win	True
513.378	3.95	Win2	0.6545000000000001	0.0	Yes	2.723	0.001	n/a	GoodResponse	1	n/a	n/a	8	54	Fixation	Win	True
517.323	0.18	Win2	0.6545000000000001	0.004	Yes	2.723	-0.004	1.0	GoodResponse	1	0.178	516.501	8	54	Target	Win	True
517.501	0.3	Win2	0.6545000000000001	0.004	Yes	2.723	-0.004	1.0	GoodResponse	1	0.178	n/a	8	54	ButtonPress	Win	True
517.507	0.52	Win2	0.6545000000000001	n/a	Yes	2.723	n/a	n/a	GoodResponse	1	n/a	n/a	8	54	Blank	Win	True
518.025	1.45	Win2	0.6545000000000001	n/a	Yes	2.723	n/a	5.0	GoodResponse	1	0.043	517.068	8	54	Feedback	Win	True
519.48	2.723	Win2	0.6545000000000001	n/a	Yes	2.723	n/a	n/a	GoodResponse	1	0.0	n/a	8	54	ISIslide	Win	True
522.221	0.25	Control	0.6429	0.0	No	3.029	0.021	n/a	LatePress	0	n/a	n/a	8	55	Cue	Neutral	True
522.472	3.95	Control	0.6429	0.0	No	3.029	0.001	n/a	LatePress	0	n/a	n/a	8	55	Fixation	Neutral	True
526.417	0.19	Control	0.6429	0.004	No	3.029	-0.004	1.0	LatePress	0	0.194	525.611	8	55	Target	Neutral	True
526.611	0.3	Control	0.6429	0.004	No	3.029	-0.004	1.0	LatePress	0	0.194	n/a	8	55	ButtonPress	Neutral	True
526.618	0.51	Control	0.6429	n/a	No	3.029	n/a	n/a	LatePress	0	n/a	n/a	8	55	Blank	Neutral	True
527.119	1.45	Control	0.6429	n/a	No	3.029	n/a	5.0	LatePress	0	0.023	526.142	8	55	Feedback	Neutral	True
528.573	3.029	Control	0.6429	n/a	No	3.029	n/a	n/a	LatePress	0	0.0	n/a	8	55	ISIslide	Neutral	True
531.616	0.25	Control	0.6315999999999999	0.0	No	2.834	0.016	n/a	NoResponse	0	n/a	n/a	8	56	Cue	Neutral	True
531.867	3.95	Control	0.6315999999999999	0.0	No	2.834	0.001	n/a	NoResponse	0	n/a	n/a	8	56	Fixation	Neutral	True
535.812	0.2	Control	0.6315999999999999	0.004	No	2.834	-0.004	1.0	NoResponse	0	0.235	535.047	8	56	Target	Neutral	True
536.012	0.5	Control	0.6315999999999999	n/a	No	2.834	n/a	n/a	NoResponse	0	n/a	n/a	8	56	Blank	Neutral	True
536.047	0.3	Control	0.6315999999999999	0.004	No	2.834	-0.004	1.0	NoResponse	0	0.235	n/a	8	56	ButtonPress	Neutral	True
536.514	1.45	Control	0.6315999999999999	n/a	No	2.834	n/a	5.0	NoResponse	0	0.042	535.556	8	56	Feedback	Neutral	True
537.968	2.834	Control	0.6315999999999999	n/a	No	2.834	n/a	n/a	NoResponse	0	0.0	n/a	8	56	ISIslide	Neutral	True
540.827	0.25	Control	0.6379	0.0	Yes	3.473	0.027	n/a	GoodResponse	0	n/a	n/a	8	57	Cue	Neutral	True
541.077	4.0	Control	0.6379	0.001	Yes	3.473	0.0	n/a	GoodResponse	0	n/a	n/a	8	57	Fixation	Neutral	True
545.073	0.21	Control	0.6379	0.004	Yes	3.473	-0.004	1.0	GoodResponse	0	0.179	544.252	8	57	Target	Neutral	True
545.252	0.3	Control	0.6379	0.004	Yes	3.473	-0.004	1.0	GoodResponse	0	0.179	n/a	8	57	ButtonPress	Neutral	True
545.29	0.49	Control	0.6379	n/a	Yes	3.473	n/a	n/a	GoodResponse	0	n/a	n/a	8	57	Blank	Neutral	True
545.775	1.45	Control	0.6379	n/a	Yes	3.473	n/a	5.0	GoodResponse	0	0.001	544.776	8	57	Feedback	Neutral	True
547.229	3.473	Control	0.6379	n/a	Yes	3.473	n/a	n/a	GoodResponse	0	0.0	n/a	8	57	ISIslide	Neutral	True
550.723	0.25	Win2	0.6441	0.0	Yes	2.727	0.023	n/a	GoodResponse	1	n/a	n/a	9	58	Cue	Win	True
550.974	4.05	Win2	0.6441	0.0	Yes	2.727	0.001	n/a	GoodResponse	1	n/a	n/a	9	58	Fixation	Win	True
555.019	0.22	Win2	0.6441	0.004	Yes	2.727	-0.004	1.0	GoodResponse	1	0.173	554.192	9	58	Target	Win	True
555.192	0.3	Win2	0.6441	0.004	Yes	2.727	-0.004	1.0	GoodResponse	1	0.173	n/a	9	58	ButtonPress	Win	True
555.253	0.48	Win2	0.6441	n/a	Yes	2.727	n/a	n/a	GoodResponse	1	n/a	n/a	9	58	Blank	Win	True
555.721	1.45	Win2	0.6441	n/a	Yes	2.727	n/a	5.0	GoodResponse	1	0.008	554.729	9	58	Feedback	Win	True
557.176	2.727	Win2	0.6441	n/a	Yes	2.727	n/a	n/a	GoodResponse	1	0.0	n/a	9	58	ISIslide	Win	True
559.917	0.25	Lose2	0.65	0.0	Yes	2.683	0.017	n/a	GoodResponse	0	n/a	n/a	9	59	Cue	AvoidedLoss	True
560.168	4.0	Lose2	0.65	0.0	Yes	2.683	0.001	n/a	GoodResponse	0	n/a	n/a	9	59	Fixation	AvoidedLoss	True
564.163	0.23	Lose2	0.65	0.004	Yes	2.683	-0.004	1.0	GoodResponse	0	0.184	563.347	9	59	Target	AvoidedLoss	True
564.347	0.3	Lose2	0.65	0.004	Yes	2.683	-0.004	1.0	GoodResponse	0	0.184	n/a	9	59	ButtonPress	AvoidedLoss	True
564.397	0.47	Lose2	0.65	n/a	Yes	2.683	n/a	n/a	GoodResponse	0	n/a	n/a	9	59	Blank	AvoidedLoss	True
564.865	1.45	Lose2	0.65	n/a	Yes	2.683	n/a	5.0	GoodResponse	0	0.032	563.897	9	59	Feedback	AvoidedLoss	True
566.32	2.683	Lose2	0.65	n/a	Yes	2.683	n/a	n/a	GoodResponse	0	0.0	n/a	9	59	ISIslide	AvoidedLoss	True
569.028	0.25	Control	0.6557	0.0	Yes	2.672	0.028	n/a	GoodResponse	0	n/a	n/a	9	60	Cue	Neutral	True
569.279	4.0	Control	0.6557	0.0	Yes	2.672	0.001	n/a	GoodResponse	0	n/a	n/a	9	60	Fixation	Neutral	True
573.274	0.24	Control	0.6557	0.004	Yes	2.672	-0.004	1.0	GoodResponse	0	0.19	572.464	9	60	Target	Neutral	True
573.464	0.3	Control	0.6557	0.004	Yes	2.672	-0.004	1.0	GoodResponse	0	0.19	n/a	9	60	ButtonPress	Neutral	True
573.525	0.46	Control	0.6557	n/a	Yes	2.672	n/a	n/a	GoodResponse	0	n/a	n/a	9	60	Blank	Neutral	True
573.976	1.45	Control	0.6557	n/a	Yes	2.672	n/a	5.0	GoodResponse	0	0.043	573.019	9	60	Feedback	Neutral	True
575.43	2.672	Control	0.6557	n/a	Yes	2.672	n/a	n/a	GoodResponse	0	0.0	n/a	9	60	ISIslide	Neutral	True
578.122	0.25	Lose2	0.6613	0.0	Yes	2.978	0.022	n/a	GoodResponse	0	n/a	n/a	9	61	Cue	AvoidedLoss	True
578.372	4.0	Lose2	0.6613	0.001	Yes	2.978	0.0	n/a	GoodResponse	0	n/a	n/a	9	61	Fixation	AvoidedLoss	True
582.368	0.24	Lose2	0.6613	0.004	Yes	2.978	-0.004	1.0	GoodResponse	0	0.172	581.54	9	61	Target	AvoidedLoss	True
582.54	0.3	Lose2	0.6613	0.004	Yes	2.978	-0.004	1.0	GoodResponse	0	0.172	n/a	9	61	ButtonPress	AvoidedLoss	True
582.619	0.46	Lose2	0.6613	n/a	Yes	2.978	n/a	n/a	GoodResponse	0	n/a	n/a	9	61	Blank	AvoidedLoss	True
583.07	1.45	Lose2	0.6613	n/a	Yes	2.978	n/a	5.0	GoodResponse	0	0.022	582.092	9	61	Feedback	AvoidedLoss	True
584.524	2.978	Lose2	0.6613	n/a	Yes	2.978	n/a	n/a	GoodResponse	0	0.0	n/a	9	61	ISIslide	AvoidedLoss	True
587.517	0.25	Lose2	0.6667000000000001	0.0	Yes	2.883	0.017	n/a	GoodResponse	0	n/a	n/a	9	62	Cue	AvoidedLoss	True
587.767	3.9	Lose2	0.6667000000000001	0.0	Yes	2.883	0.0	n/a	GoodResponse	0	n/a	n/a	9	62	Fixation	AvoidedLoss	True
591.679	0.24	Lose2	0.6667000000000001	0.0	Yes	2.883	0.012	1.0	GoodResponse	0	0.184	590.863	9	62	Target	AvoidedLoss	True
591.863	0.3	Lose2	0.6667000000000001	0.0	Yes	2.883	0.012	1.0	GoodResponse	0	0.184	n/a	9	62	ButtonPress	AvoidedLoss	True
591.913	0.46	Lose2	0.6667000000000001	n/a	Yes	2.883	n/a	n/a	GoodResponse	0	n/a	n/a	9	62	Blank	AvoidedLoss	True
592.364	1.45	Lose2	0.6667000000000001	n/a	Yes	2.883	n/a	5.0	GoodResponse	0	0.046	591.41	9	62	Feedback	AvoidedLoss	True
593.819	2.883	Lose2	0.6667000000000001	n/a	Yes	2.883	n/a	n/a	GoodResponse	0	0.0	n/a	9	62	ISIslide	AvoidedLoss	True
596.727	0.25	Lose2	0.6718999999999999	0.001	Yes	2.623	0.027	n/a	GoodResponse	0	n/a	n/a	9	63	Cue	AvoidedLoss	True
596.978	4.05	Lose2	0.6718999999999999	0.0	Yes	2.623	0.001	n/a	GoodResponse	0	n/a	n/a	9	63	Fixation	AvoidedLoss	True
601.024	0.23	Lose2	0.6718999999999999	0.003	Yes	2.623	-0.003	1.0	GoodResponse	0	0.167	600.191	9	63	Target	AvoidedLoss	True
601.191	0.3	Lose2	0.6718999999999999	0.003	Yes	2.623	-0.003	1.0	GoodResponse	0	0.167	n/a	9	63	ButtonPress	AvoidedLoss	True
601.258	0.47	Lose2	0.6718999999999999	n/a	Yes	2.623	n/a	n/a	GoodResponse	0	n/a	n/a	9	63	Blank	AvoidedLoss	True
601.726	1.45	Lose2	0.6718999999999999	n/a	Yes	2.623	n/a	5.0	GoodResponse	0	0.001	600.727	9	63	Feedback	AvoidedLoss	True
603.18	2.623	Lose2	0.6718999999999999	n/a	Yes	2.623	n/a	n/a	GoodResponse	0	0.0	n/a	9	63	ISIslide	AvoidedLoss	True
605.821	0.25	Win2	0.6769	0.0	Yes	3.129	0.021	n/a	GoodResponse	1	n/a	n/a	10	64	Cue	Win	True
606.072	4.15	Win2	0.6769	0.0	Yes	3.129	0.001	n/a	GoodResponse	1	n/a	n/a	10	64	Fixation	Win	True
610.218	0.22	Win2	0.6769	0.003	Yes	3.129	-0.003	1.0	GoodResponse	1	0.178	609.396	10	64	Target	Win	True
610.396	0.3	Win2	0.6769	0.003	Yes	3.129	-0.003	1.0	GoodResponse	1	0.178	n/a	10	64	ButtonPress	Win	True
610.452	0.48	Win2	0.6769	n/a	Yes	3.129	n/a	n/a	GoodResponse	1	n/a	n/a	10	64	Blank	Win	True
610.92	1.45	Win2	0.6769	n/a	Yes	3.129	n/a	5.0	GoodResponse	1	0.026	609.946	10	64	Feedback	Win	True
612.374	3.129	Win2	0.6769	n/a	Yes	3.129	n/a	n/a	GoodResponse	1	0.0	n/a	10	64	ISIslide	Win	True
615.517	0.25	Control	0.6818000000000001	0.0	Yes	2.783	0.017	n/a	GoodResponse	0	n/a	n/a	10	65	Cue	Neutral	False
615.768	4.0	Control	0.6818000000000001	0.0	Yes	2.783	0.001	1.0	GoodResponse	0	3.821	618.589	10	65	Fixation	Neutral	False
619.589	0.3	Control	0.6818000000000001	0.0	Yes	2.783	0.001	1.0	GoodResponse	0	3.821	n/a	10	65	ButtonPress	Neutral	False
619.763	0.21	Control	0.6818000000000001	0.004	Yes	2.783	-0.004	1.0	GoodResponse	0	0.152	618.915	10	65	Target	Neutral	False
619.915	0.3	Control	0.6818000000000001	0.004	Yes	2.783	-0.004	1.0	GoodResponse	0	0.152	n/a	10	65	ButtonPress	Neutral	False
619.98	0.49	Control	0.6818000000000001	n/a	Yes	2.783	n/a	n/a	GoodResponse	0	n/a	n/a	10	65	Blank	Neutral	False
620.465	1.45	Control	0.6818000000000001	n/a	Yes	2.783	n/a	5.0	GoodResponse	0	0.041	619.506	10	65	Feedback	Neutral	False
621.919	2.783	Control	0.6818000000000001	n/a	Yes	2.783	n/a	n/a	GoodResponse	0	0.0	n/a	10	65	ISIslide	Neutral	False
624.728	0.25	Win2	0.6866	0.0	Yes	2.772	0.028	n/a	GoodResponse	1	n/a	n/a	11	66	Cue	Win	True
624.979	3.9	Win2	0.6866	0.0	Yes	2.772	0.001	n/a	GoodResponse	1	n/a	n/a	11	66	Fixation	Win	True
628.874	0.2	Win2	0.6866	0.004	Yes	2.772	-0.004	1.0	GoodResponse	1	0.187	628.061	11	66	Target	Win	True
629.061	0.3	Win2	0.6866	0.004	Yes	2.772	-0.004	1.0	GoodResponse	1	0.187	n/a	11	66	ButtonPress	Win	True
629.074	0.5	Win2	0.6866	n/a	Yes	2.772	n/a	n/a	GoodResponse	1	n/a	n/a	11	66	Blank	Win	True
629.576	1.45	Win2	0.6866	n/a	Yes	2.772	n/a	5.0	GoodResponse	1	0.007	628.583	11	66	Feedback	Win	True
631.03	2.772	Win2	0.6866	n/a	Yes	2.772	n/a	n/a	GoodResponse	1	0.0	n/a	11	66	ISIslide	Win	True
633.822	0.25	Control	0.6912	0.0	Yes	2.728	0.022	n/a	GoodResponse	0	n/a	n/a	11	67	Cue	Neutral	True
634.073	3.95	Control	0.6912	0.0	Yes	2.728	0.001	n/a	GoodResponse	0	n/a	n/a	11	67	Fixation	Neutral	True
638.018	0.19	Control	0.6912	0.004	Yes	2.728	-0.004	1.0	GoodResponse	0	0.183	637.201	11	67	Target	Neutral	True
638.201	0.3	Control	0.6912	0.004	Yes	2.728	-0.004	1.0	GoodResponse	0	0.183	n/a	11	67	ButtonPress	Neutral	True
638.218	0.51	Control	0.6912	n/a	Yes	2.728	n/a	n/a	GoodResponse	0	n/a	n/a	11	67	Blank	Neutral	True
638.72	1.45	Control	0.6912	n/a	Yes	2.728	n/a	5.0	GoodResponse	0	0.031	637.751	11	67	Feedback	Neutral	True
640.174	2.728	Control	0.6912	n/a	Yes	2.728	n/a	n/a	GoodResponse	0	0.0	n/a	11	67	ISIslide	Neutral	True
642.916	0.25	Win2	0.6812	0.0	No	3.084	0.016	n/a	LatePress	0	n/a	n/a	11	68	Cue	MissedWin	True
643.166	4.0	Win2	0.6812	0.001	No	3.084	0.0	n/a	LatePress	0	n/a	n/a	11	68	Fixation	MissedWin	True
647.162	0.18	Win2	0.6812	0.004	No	3.084	-0.004	1.0	LatePress	0	0.18	646.342	11	68	Target	MissedWin	True
647.342	0.3	Win2	0.6812	0.004	No	3.084	-0.004	1.0	LatePress	0	0.18	n/a	11	68	ButtonPress	MissedWin	True
647.346	0.52	Win2	0.6812	n/a	No	3.084	n/a	n/a	LatePress	0	n/a	n/a	11	68	Blank	MissedWin	True
647.864	1.45	Win2	0.6812	n/a	No	3.084	n/a	5.0	LatePress	0	0.009	646.873	11	68	Feedback	MissedWin	True
649.318	3.084	Win2	0.6812	n/a	No	3.084	n/a	n/a	LatePress	0	0.0	n/a	11	68	ISIslide	MissedWin	True
652.427	0.25	Win2	0.6714	0.001	No	3.223	0.027	n/a	NoResponse	0	n/a	n/a	11	69	Cue	MissedWin	True
652.678	3.95	Win2	0.6714	0.0	No	3.223	0.001	n/a	NoResponse	0	n/a	n/a	11	69	Fixation	MissedWin	True
656.623	0.17	Win2	0.6714	0.004	No	3.223	-0.004	1.0	NoResponse	0	0.192	655.815	11	69	Target	MissedWin	True
656.807	0.53	Win2	0.6714	n/a	No	3.223	n/a	n/a	NoResponse	0	n/a	n/a	11	69	Blank	MissedWin	True
656.815	0.3	Win2	0.6714	0.004	No	3.223	-0.004	1.0	NoResponse	0	0.192	n/a	11	69	ButtonPress	MissedWin	True
657.325	1.45	Win2	0.6714	n/a	No	3.223	n/a	5.0	NoResponse	0	0.011	656.336	11	69	Feedback	MissedWin	True
658.78	3.223	Win2	0.6714	n/a	No	3.223	n/a	n/a	NoResponse	0	0.0	n/a	11	69	ISIslide	MissedWin	True
662.023	0.25	Lose2	0.662	0.0	No	3.027	0.023	n/a	LatePress	-1	n/a	n/a	10	70	Cue	Loss	True
662.274	4.05	Lose2	0.662	0.0	No	3.027	0.001	n/a	LatePress	-1	n/a	n/a	10	70	Fixation	Loss	True
666.319	0.16	Lose2	0.662	0.004	No	3.027	-0.004	1.0	LatePress	-1	0.166	665.485	10	70	Target	Loss	True
666.485	0.3	Lose2	0.662	0.004	No	3.027	-0.004	1.0	LatePress	-1	0.166	n/a	10	70	ButtonPress	Loss	True
666.486	0.54	Lose2	0.662	n/a	No	3.027	n/a	n/a	LatePress	-1	n/a	n/a	10	70	Blank	Loss	True
667.021	1.45	Lose2	0.662	n/a	No	3.027	n/a	5.0	LatePress	-1	0.022	666.043	10	70	Feedback	Loss	True
668.476	3.027	Lose2	0.662	n/a	No	3.027	n/a	n/a	LatePress	-1	0.0	n/a	10	70	ISIslide	Loss	True
671.518	0.25	Win2	0.6528	0.0	No	2.732	0.018	n/a	NoResponse	0	n/a	n/a	10	71	Cue	MissedWin	True
671.769	4.05	Win2	0.6528	0.0	No	2.732	0.001	n/a	NoResponse	0	n/a	n/a	10	71	Fixation	MissedWin	True
675.814	0.16	Win2	0.6528	0.004	No	2.732	-0.004	1.0	NoResponse	0	0.177	674.991	10	71	Target	MissedWin	True
675.981	0.54	Win2	0.6528	n/a	No	2.732	n/a	n/a	NoResponse	0	n/a	n/a	10	71	Blank	MissedWin	True
675.991	0.3	Win2	0.6528	0.004	No	2.732	-0.004	1.0	NoResponse	0	0.177	n/a	10	71	ButtonPress	MissedWin	True
676.516	1.45	Win2	0.6528	n/a	No	2.732	n/a	5.0	NoResponse	0	0.039	675.555	10	71	Feedback	MissedWin	True
677.971	2.732	Win2	0.6528	n/a	No	2.732	n/a	n/a	NoResponse	0	0.0	n/a	10	71	ISIslide	MissedWin	True
680.729	0.25	Win2	0.6437999999999999	0.0	No	2.771	0.029	n/a	PrematurePress	0	n/a	n/a	10	72	Cue	MissedWin	False
680.98	4.1	Win2	0.6437999999999999	0.0	No	2.771	0.001	1.0	PrematurePress	0	3.886	683.866	10	72	Fixation	MissedWin	False
684.866	0.3	Win2	0.6437999999999999	0.0	No	2.771	0.001	1.0	PrematurePress	0	3.886	n/a	10	72	ButtonPress	MissedWin	False
685.075	0.17	Win2	0.6437999999999999	0.004	No	2.771	-0.004	1.0	PrematurePress	0	0.041	684.116	10	72	Target	MissedWin	False
685.116	0.3	Win2	0.6437999999999999	0.004	No	2.771	-0.004	1.0	PrematurePress	0	0.041	n/a	10	72	ButtonPress	MissedWin	False
685.259	0.53	Win2	0.6437999999999999	n/a	No	2.771	n/a	n/a	PrematurePress	0	n/a	n/a	10	72	Blank	MissedWin	False
685.777	1.45	Win2	0.6437999999999999	n/a	No	2.771	n/a	5.0	PrematurePress	0	0.046	684.823	10	72	Feedback	MissedWin	False
687.232	2.771	Win2	0.6437999999999999	n/a	No	2.771	n/a	n/a	PrematurePress	0	0.0	n/a	10	72	ISIslide	MissedWin	False
690.023	0.25	Win2	0.6351	0.0	No	2.677	0.023	n/a	NoResponse	0	n/a	n/a	10	73	Cue	MissedWin	True
690.274	4.0	Win2	0.6351	0.0	No	2.677	0.001	n/a	NoResponse	0	n/a	n/a	10	73	Fixation	MissedWin	True
694.269	0.18	Win2	0.6351	0.004	No	2.677	-0.004	1.0	NoResponse	0	0.194	693.463	10	73	Target	MissedWin	True
694.453	0.52	Win2	0.6351	n/a	No	2.677	n/a	n/a	NoResponse	0	n/a	n/a	10	73	Blank	MissedWin	True
694.463	0.3	Win2	0.6351	0.004	No	2.677	-0.004	1.0	NoResponse	0	0.194	n/a	10	73	ButtonPress	MissedWin	True
694.971	1.45	Win2	0.6351	n/a	No	2.677	n/a	5.0	NoResponse	0	0.023	693.994	10	73	Feedback	MissedWin	True
696.426	2.677	Win2	0.6351	n/a	No	2.677	n/a	n/a	NoResponse	0	0.0	n/a	10	73	ISIslide	MissedWin	True
699.117	0.25	Lose2	0.64	0.0	Yes	2.633	0.017	n/a	GoodResponse	0	n/a	n/a	10	74	Cue	AvoidedLoss	True
699.368	4.05	Lose2	0.64	0.0	Yes	2.633	0.001	n/a	GoodResponse	0	n/a	n/a	10	74	Fixation	AvoidedLoss	True
703.413	0.19	Lose2	0.64	0.004	Yes	2.633	-0.004	1.0	GoodResponse	0	0.185	702.598	10	74	Target	AvoidedLoss	True
703.598	0.3	Lose2	0.64	0.004	Yes	2.633	-0.004	1.0	GoodResponse	0	0.185	n/a	10	74	ButtonPress	AvoidedLoss	True
703.614	0.51	Lose2	0.64	n/a	Yes	2.633	n/a	n/a	GoodResponse	0	n/a	n/a	10	74	Blank	AvoidedLoss	True
704.116	1.45	Lose2	0.64	n/a	Yes	2.633	n/a	5.0	GoodResponse	0	0.0	703.116	10	74	Feedback	AvoidedLoss	True
705.57	2.633	Lose2	0.64	n/a	Yes	2.633	n/a	n/a	GoodResponse	0	0.0	n/a	10	74	ISIslide	AvoidedLoss	True
708.228	0.25	Lose2	0.6446999999999999	0.0	Yes	2.922	0.028	n/a	GoodResponse	0	n/a	n/a	10	75	Cue	AvoidedLoss	True
708.479	3.95	Lose2	0.6446999999999999	0.0	Yes	2.922	0.001	n/a	GoodResponse	0	n/a	n/a	10	75	Fixation	AvoidedLoss	True
712.424	0.2	Lose2	0.6446999999999999	0.004	Yes	2.922	-0.004	1.0	GoodResponse	0	0.187	711.611	10	75	Target	AvoidedLoss	True
712.611	0.3	Lose2	0.6446999999999999	0.004	Yes	2.922	-0.004	1.0	GoodResponse	0	0.187	n/a	10	75	ButtonPress	AvoidedLoss	True
712.624	0.5	Lose2	0.6446999999999999	n/a	Yes	2.922	n/a	n/a	GoodResponse	0	n/a	n/a	10	75	Blank	AvoidedLoss	True
713.126	1.45	Lose2	0.6446999999999999	n/a	Yes	2.922	n/a	5.0	GoodResponse	0	0.015	712.141	10	75	Feedback	AvoidedLoss	True
714.58	2.922	Lose2	0.6446999999999999	n/a	Yes	2.922	n/a	n/a	GoodResponse	0	0.0	n/a	10	75	ISIslide	AvoidedLoss	True
717.522	0.25	Control	0.6494	0.0	Yes	3.228	0.022	n/a	GoodResponse	0	n/a	n/a	10	76	Cue	Neutral	True
717.773	4.05	Control	0.6494	0.0	Yes	3.228	0.001	n/a	GoodResponse	0	n/a	n/a	10	76	Fixation	Neutral	True
721.819	0.21	Control	0.6494	0.003	Yes	3.228	-0.003	1.0	GoodResponse	0	0.197	721.016	10	76	Target	Neutral	True
722.016	0.3	Control	0.6494	0.003	Yes	3.228	-0.003	1.0	GoodResponse	0	0.197	n/a	10	76	ButtonPress	Neutral	True
722.036	0.49	Control	0.6494	n/a	Yes	3.228	n/a	n/a	GoodResponse	0	n/a	n/a	10	76	Blank	Neutral	True
722.521	1.45	Control	0.6494	n/a	Yes	3.228	n/a	5.0	GoodResponse	0	0.033	721.554	10	76	Feedback	Neutral	True
723.975	3.228	Control	0.6494	n/a	Yes	3.228	n/a	n/a	GoodResponse	0	0.0	n/a	10	76	ISIslide	Neutral	True
727.218	0.25	Lose2	0.6537999999999999	0.0	Yes	2.582	0.018	n/a	GoodResponse	0	n/a	n/a	10	77	Cue	AvoidedLoss	True
727.469	3.95	Lose2	0.6537999999999999	0.0	Yes	2.582	0.001	n/a	GoodResponse	0	n/a	n/a	10	77	Fixation	AvoidedLoss	True
731.414	0.22	Lose2	0.6537999999999999	0.004	Yes	2.582	-0.004	1.0	GoodResponse	0	0.19	730.604	10	77	Target	AvoidedLoss	True
731.604	0.3	Lose2	0.6537999999999999	0.004	Yes	2.582	-0.004	1.0	GoodResponse	0	0.19	n/a	10	77	ButtonPress	AvoidedLoss	True
731.648	0.48	Lose2	0.6537999999999999	n/a	Yes	2.582	n/a	n/a	GoodResponse	0	n/a	n/a	10	77	Blank	AvoidedLoss	True
732.116	1.45	Lose2	0.6537999999999999	n/a	Yes	2.582	n/a	5.0	GoodResponse	0	0.048	731.164	10	77	Feedback	AvoidedLoss	True
733.57	2.582	Lose2	0.6537999999999999	n/a	Yes	2.582	n/a	n/a	GoodResponse	0	0.0	n/a	10	77	ISIslide	AvoidedLoss	True
