onset	duration	cue_type	current_mean_accuracy	duration_error	is_hit	isi_adjusted	onset_delay	response	response_type	reward	rt	rt_time	total_reward	trial_number	trial_phase	trial_type	one_press
11.097	0.25	Control	1.0	0.0	Yes	2.953	-0.003	n/a	GoodResponse	0	n/a	n/a	0	0	Cue	Neutral	False
11.348	3.85	Control	1.0	0.0	Yes	2.953	0.001	4.0	GoodResponse	0	0.023	10.371	0	0	Fixation	Neutral	False
11.371	0.3	Control	1.0	0.0	Yes	2.953	0.001	4.0	GoodResponse	0	0.023	n/a	0	0	ButtonPress	Neutral	False
15.193	0.4	Control	1.0	0.004	Yes	2.953	-0.004	4.0	GoodResponse	0	0.262	14.455	0	0	Target	Neutral	False
15.455	0.3	Control	1.0	0.004	Yes	2.953	-0.004	4.0	GoodResponse	0	0.262	n/a	0	0	ButtonPress	Neutral	False
15.594	0.3	Control	1.0	n/a	Yes	2.953	n/a	n/a	GoodResponse	0	n/a	n/a	0	0	Blank	Neutral	False
15.895	1.45	Control	1.0	n/a	Yes	2.953	n/a	5.0	GoodResponse	0	0.031	14.926	0	0	Feedback	Neutral	False
17.349	2.953	Control	1.0	n/a	Yes	2.953	n/a	n/a	GoodResponse	0	0.0	n/a	0	0	ISIslide	Neutral	False
20.325	0.25	Lose2	1.0	0.0	Yes	2.775	0.025	n/a	GoodResponse	0	n/a	n/a	0	1	Cue	AvoidedLoss	True
20.576	4.0	Lose2	1.0	0.0	Yes	2.775	0.001	n/a	GoodResponse	0	n/a	n/a	0	1	Fixation	AvoidedLoss	True
24.571	0.39	Lose2	1.0	0.004	Yes	2.775	-0.004	4.0	GoodResponse	0	0.209	23.78	0	1	Target	AvoidedLoss	True
24.78	0.3	Lose2	1.0	0.004	Yes	2.775	-0.004	4.0	GoodResponse	0	0.209	n/a	0	1	ButtonPress	AvoidedLoss	True
24.972	0.31	Lose2	1.0	n/a	Yes	2.775	n/a	n/a	GoodResponse	0	n/a	n/a	0	1	Blank	AvoidedLoss	True
25.273	1.45	Lose2	1.0	n/a	Yes	2.775	n/a	5.0	GoodResponse	0	0.019	24.292	0	1	Feedback	AvoidedLoss	True
26.728	2.775	Lose2	1.0	n/a	Yes	2.775	n/a	n/a	GoodResponse	0	0.0	n/a	0	1	ISIslide	AvoidedLoss	True
29.519	0.25	Control	1.0	0.0	Yes	2.581	0.019	n/a	GoodResponse	0	n/a	n/a	0	2	Cue	Neutral	True
29.77	4.1	Control	1.0	0.0	Yes	2.581	0.001	n/a	GoodResponse	0	n/a	n/a	0	2	Fixation	Neutral	True
33.866	0.38	Control	1.0	0.003	Yes	2.581	-0.003	4.0	GoodResponse	0	0.243	33.109	0	2	Target	Neutral	True
34.109	0.3	Control	1.0	0.003	Yes	2.581	-0.003	4.0	GoodResponse	0	0.243	n/a	0	2	ButtonPress	Neutral	True
34.25	0.32	Control	1.0	n/a	Yes	2.581	n/a	n/a	GoodResponse	0	n/a	n/a	0	2	Blank	Neutral	True
34.568	1.45	Control	1.0	n/a	Yes	2.581	n/a	5.0	GoodResponse	0	0.041	33.609	0	2	Feedback	Neutral	True
36.022	2.581	Control	1.0	n/a	Yes	2.581	n/a	n/a	GoodResponse	0	0.0	n/a	0	2	ISIslide	Neutral	True
38.63	0.25	Win2	1.0	0.0	Yes	2.82	0.03	n/a	GoodResponse	1	n/a	n/a	1	3	Cue	Win	True
38.881	3.95	Win2	1.0	0.0	Yes	2.82	0.001	n/a	GoodResponse	1	n/a	n/a	1	3	Fixation	Win	True
42.826	0.37	Win2	1.0	0.004	Yes	2.82	-0.004	4.0	GoodResponse	1	0.213	42.039	1	3	Target	Win	True
43.039	0.3	Win2	1.0	0.004	Yes	2.82	-0.004	4.0	GoodResponse	1	0.213	n/a	1	3	ButtonPress	Win	True
43.21	0.33	Win2	1.0	n/a	Yes	2.82	n/a	n/a	GoodResponse	1	n/a	n/a	1	3	Blank	Win	True
43.528	1.45	Win2	1.0	n/a	Yes	2.82	n/a	5.0	GoodResponse	1	0.008	42.536	1	3	Feedback	Win	True
44.982	2.82	Win2	1.0	n/a	Yes	2.82	n/a	n/a	GoodResponse	1	0.0	n/a	1	3	ISIslide	Win	True
47.824	0.25	Win2	1.0	0.0	Yes	3.276	0.024	n/a	GoodResponse	1	n/a	n/a	2	4	Cue	Win	True
48.075	4.0	Win2	1.0	0.0	Yes	3.276	0.001	n/a	GoodResponse	1	n/a	n/a	2	4	Fixation	Win	True
52.07	0.36	Win2	1.0	0.004	Yes	3.276	-0.004	4.0	GoodResponse	1	0.222	51.292	2	4	Target	Win	True
52.292	0.3	Win2	1.0	0.004	Yes	3.276	-0.004	4.0	GoodResponse	1	0.222	n/a	2	4	ButtonPress	Win	True
52.438	0.34	Win2	1.0	n/a	Yes	3.276	n/a	n/a	GoodResponse	1	n/a	n/a	2	4	Blank	Win	True
52.772	1.45	Win2	1.0	n/a	Yes	3.276	n/a	5.0	GoodResponse	1	0.033	51.805	2	4	Feedback	Win	True
54.227	3.276	Win2	1.0	n/a	Yes	3.276	n/a	n/a	GoodResponse	1	0.0	n/a	2	4	ISIslide	Win	True
57.52	0.25	Win2	1.0	0.0	Yes	2.78	0.02	n/a	GoodResponse	1	n/a	n/a	3	5	Cue	Win	True
57.771	4.0	Win2	1.0	0.0	Yes	2.78	0.001	n/a	GoodResponse	1	n/a	n/a	3	5	Fixation	Win	True
61.766	0.35	Win2	1.0	0.004	Yes	2.78	-0.004	4.0	GoodResponse	1	0.214	60.98	3	5	Target	Win	True
61.98	0.3	Win2	1.0	0.004	Yes	2.78	-0.004	4.0	GoodResponse	1	0.214	n/a	3	5	ButtonPress	Win	True
62.117	0.35	Win2	1.0	n/a	Yes	2.78	n/a	n/a	GoodResponse	1	n/a	n/a	3	5	Blank	Win	True
62.468	1.45	Win2	1.0	n/a	Yes	2.78	n/a	5.0	GoodResponse	1	0.044	61.512	3	5	Feedback	Win	True
63.922	2.78	Win2	1.0	n/a	Yes	2.78	n/a	n/a	GoodResponse	1	0.0	n/a	3	5	ISIslide	Win	True
66.731	0.25	Lose2	1.0	0.0	Yes	2.719	0.031	n/a	GoodResponse	0	n/a	n/a	3	6	Cue	AvoidedLoss	True
66.981	3.95	Lose2	1.0	0.001	Yes	2.719	0.0	n/a	GoodResponse	0	n/a	n/a	3	6	Fixation	AvoidedLoss	True
70.927	0.34	Lose2	1.0	0.004	Yes	2.719	-0.004	4.0	GoodResponse	0	0.164	70.091	3	6	Target	AvoidedLoss	True
71.091	0.3	Lose2	1.0	0.004	Yes	2.719	-0.004	4.0	GoodResponse	0	0.164	n/a	3	6	ButtonPress	AvoidedLoss	True
71.278	0.36	Lose2	1.0	n/a	Yes	2.719	n/a	n/a	GoodResponse	0	n/a	n/a	3	6	Blank	AvoidedLoss	True
71.629	1.45	Lose2	1.0	n/a	Yes	2.719	n/a	5.0	GoodResponse	0	0.007	70.636	3	6	Feedback	AvoidedLoss	True
73.083	2.719	Lose2	1.0	n/a	Yes	2.719	n/a	n/a	GoodResponse	0	0.0	n/a	3	6	ISIslide	AvoidedLoss	True
75.825	0.25	Lose2	1.0	0.0	Yes	4.025	0.025	n/a	GoodResponse	0	n/a	n/a	3	7	Cue	AvoidedLoss	True
76.075	4.05	Lose2	1.0	0.0	Yes	4.025	0.0	n/a	GoodResponse	0	n/a	n/a	3	7	Fixation	AvoidedLoss	True
80.121	0.33	Lose2	1.0	0.004	Yes	4.025	-0.004	4.0	GoodResponse	0	0.216	79.337	3	7	Target	AvoidedLoss	True
80.337	0.3	Lose2	1.0	0.004	Yes	4.025	-0.004	4.0	GoodResponse	0	0.216	n/a	3	7	ButtonPress	AvoidedLoss	True
80.455	0.37	Lose2	1.0	n/a	Yes	4.025	n/a	n/a	GoodResponse	0	n/a	n/a	3	7	Blank	AvoidedLoss	True
80.823	1.45	Lose2	1.0	n/a	Yes	4.025	n/a	5.0	GoodResponse	0	0.03	79.853	3	7	Feedback	AvoidedLoss	True
82.277	4.025	Lose2	1.0	n/a	Yes	4.025	n/a	n/a	GoodResponse	0	0.0	n/a	3	7	ISIslide	AvoidedLoss	True
86.323	0.25	Lose2	1.0	0.0	Yes	3.027	0.023	n/a	GoodResponse	0	n/a	n/a	3	8	Cue	AvoidedLoss	True
86.574	3.95	Lose2	1.0	0.0	Yes	3.027	0.001	n/a	GoodResponse	0	n/a	n/a	3	8	Fixation	AvoidedLoss	True
90.519	0.32	Lose2	1.0	0.004	Yes	3.027	-0.004	4.0	GoodResponse	0	0.249	89.768	3	8	Target	AvoidedLoss	True
90.768	0.3	Lose2	1.0	0.004	Yes	3.027	-0.004	4.0	GoodResponse	0	0.249	n/a	3	8	ButtonPress	AvoidedLoss	True
90.853	0.38	Lose2	1.0	n/a	Yes	3.027	n/a	n/a	GoodResponse	0	n/a	n/a	3	8	Blank	AvoidedLoss	True
91.221	1.45	Lose2	1.0	n/a	Yes	3.027	n/a	5.0	GoodResponse	0	0.022	90.243	3	8	Feedback	AvoidedLoss	True
92.675	3.027	Lose2	1.0	n/a	Yes	3.027	n/a	n/a	GoodResponse	0	0.0	n/a	3	8	ISIslide	AvoidedLoss	True
95.718	0.25	Lose2	1.0	0.0	Yes	3.132	0.018	n/a	GoodResponse	0	n/a	n/a	3	9	Cue	AvoidedLoss	True
95.968	3.95	Lose2	1.0	0.0	Yes	3.132	0.0	n/a	GoodResponse	0	n/a	n/a	3	9	Fixation	AvoidedLoss	True
99.914	0.31	Lose2	1.0	0.004	Yes	3.132	-0.004	4.0	GoodResponse	0	0.194	99.108	3	9	Target	AvoidedLoss	True
100.108	0.3	Lose2	1.0	0.004	Yes	3.132	-0.004	4.0	GoodResponse	0	0.194	n/a	3	9	ButtonPress	AvoidedLoss	True
100.231	0.39	Lose2	1.0	n/a	Yes	3.132	n/a	n/a	GoodResponse	0	n/a	n/a	3	9	Blank	AvoidedLoss	True
100.616	1.45	Lose2	1.0	n/a	Yes	3.132	n/a	5.0	GoodResponse	0	0.042	99.658	3	9	Feedback	AvoidedLoss	True
102.07	3.132	Lose2	1.0	n/a	Yes	3.132	n/a	n/a	GoodResponse	0	0.0	n/a	3	9	ISIslide	AvoidedLoss	True
105.229	0.25	Control	1.0	0.0	Yes	3.271	0.029	n/a	GoodResponse	0	n/a	n/a	3	10	Cue	Neutral	True
105.48	4.0	Control	1.0	0.0	Yes	3.271	0.001	n/a	GoodResponse	0	n/a	n/a	3	10	Fixation	Neutral	True
109.475	0.3	Control	1.0	0.004	Yes	3.271	-0.004	4.0	GoodResponse	0	0.189	108.664	3	10	Target	Neutral	True
109.664	0.3	Control	1.0	0.004	Yes	3.271	-0.004	4.0	GoodResponse	0	0.189	n/a	3	10	ButtonPress	Neutral	True
109.776	0.4	Control	1.0	n/a	Yes	3.271	n/a	n/a	GoodResponse	0	n/a	n/a	3	10	Blank	Neutral	True
110.178	1.45	Control	1.0	n/a	Yes	3.271	n/a	5.0	GoodResponse	0	0.041	109.219	3	10	Feedback	Neutral	True
111.632	3.271	Control	1.0	n/a	Yes	3.271	n/a	n/a	GoodResponse	0	0.0	n/a	3	10	ISIslide	Neutral	True
114.925	0.25	Lose2	1.0	0.0	Yes	2.725	0.025	n/a	GoodResponse	0	n/a	n/a	3	11	Cue	AvoidedLoss	True
115.176	4.05	Lose2	1.0	0.0	Yes	2.725	0.001	n/a	GoodResponse	0	n/a	n/a	3	11	Fixation	AvoidedLoss	True
119.221	0.29	Lose2	1.0	0.004	Yes	2.725	-0.004	4.0	GoodResponse	0	0.191	118.412	3	11	Target	AvoidedLoss	True
119.412	0.3	Lose2	1.0	0.004	Yes	2.725	-0.004	4.0	GoodResponse	0	0.191	n/a	3	11	ButtonPress	AvoidedLoss	True
119.522	0.41	Lose2	1.0	n/a	Yes	2.725	n/a	n/a	GoodResponse	0	n/a	n/a	3	11	Blank	AvoidedLoss	True
119.923	1.45	Lose2	1.0	n/a	Yes	2.725	n/a	5.0	GoodResponse	0	0.007	118.93	3	11	Feedback	AvoidedLoss	True
121.378	2.725	Lose2	1.0	n/a	Yes	2.725	n/a	n/a	GoodResponse	0	0.0	n/a	3	11	ISIslide	AvoidedLoss	True
124.119	0.25	Control	1.0	0.0	Yes	2.981	0.019	n/a	GoodResponse	0	n/a	n/a	3	12	Cue	Neutral	False
124.37	3.9	Control	1.0	0.0	Yes	2.981	0.001	4.0	GoodResponse	0	3.816	127.186	3	12	Fixation	Neutral	False
128.186	0.3	Control	1.0	0.0	Yes	2.981	0.001	4.0	GoodResponse	0	3.816	n/a	3	12	ButtonPress	Neutral	False
128.265	0.28	Control	1.0	0.004	Yes	2.981	-0.004	4.0	GoodResponse	0	0.228	127.493	3	12	Target	Neutral	False
128.493	0.3	Control	1.0	0.004	Yes	2.981	-0.004	4.0	GoodResponse	0	0.228	n/a	3	12	ButtonPress	Neutral	False
128.549	0.42	Control	1.0	n/a	Yes	2.981	n/a	n/a	GoodResponse	0	n/a	n/a	3	12	Blank	Neutral	False
128.967	1.45	Control	1.0	n/a	Yes	2.981	n/a	5.0	GoodResponse	0	0.033	128.0	3	12	Feedback	Neutral	False
130.422	2.981	Control	1.0	n/a	Yes	2.981	n/a	n/a	GoodResponse	0	0.0	n/a	3	12	ISIslide	Neutral	False
133.431	0.25	Control	0.9286	0.0	No	2.769	0.031	n/a	NoResponse	0	n/a	n/a	3	13	Cue	Neutral	True
133.681	4.0	Control	0.9286	0.0	No	2.769	0.0	n/a	NoResponse	0	n/a	n/a	3	13	Fixation	Neutral	True
137.677	0.27	Control	0.9286	0.004	No	2.769	-0.004	4.0	NoResponse	0	0.642	137.319	3	13	Target	Neutral	True
137.961	0.43	Control	0.9286	n/a	No	2.769	n/a	n/a	NoResponse	0	n/a	n/a	3	13	Blank	Neutral	True
138.319	0.3	Control	0.9286	0.004	No	2.769	-0.004	4.0	NoResponse	0	0.642	n/a	3	13	ButtonPress	Neutral	True
138.379	1.45	Control	0.9286	n/a	No	2.769	n/a	5.0	NoResponse	0	0.034	137.413	3	13	Feedback	Neutral	True
139.833	2.769	Control	0.9286	n/a	No	2.769	n/a	n/a	NoResponse	0	0.0	n/a	3	13	ISIslide	Neutral	True
142.625	0.25	Win2	0.9333	0.0	Yes	2.675	0.025	n/a	GoodResponse	1	n/a	n/a	4	14	Cue	Win	True
142.876	4.1	Win2	0.9333	0.0	Yes	2.675	0.001	n/a	GoodResponse	1	n/a	n/a	4	14	Fixation	Win	True
146.971	0.26	Win2	0.9333	0.004	Yes	2.675	-0.004	4.0	GoodResponse	1	0.205	146.176	4	14	Target	Win	True
147.176	0.3	Win2	0.9333	0.004	Yes	2.675	-0.004	4.0	GoodResponse	1	0.205	n/a	4	14	ButtonPress	Win	True
147.239	0.44	Win2	0.9333	n/a	Yes	2.675	n/a	n/a	GoodResponse	1	n/a	n/a	4	14	Blank	Win	True
147.673	1.45	Win2	0.9333	n/a	Yes	2.675	n/a	5.0	GoodResponse	1	0.009	146.682	4	14	Feedback	Win	True
149.128	2.675	Win2	0.9333	n/a	Yes	2.675	n/a	n/a	GoodResponse	1	0.0	n/a	4	14	ISIslide	Win	True
151.819	0.25	Control	0.9375	0.0	Yes	2.981	0.019	n/a	GoodResponse	0	n/a	n/a	4	15	Cue	Neutral	True
152.07	4.0	Control	0.9375	0.0	Yes	2.981	0.001	n/a	GoodResponse	0	n/a	n/a	4	15	Fixation	Neutral	True
156.065	0.25	Control	0.9375	0.004	Yes	2.981	-0.004	4.0	GoodResponse	0	0.206	155.271	4	15	Target	Neutral	True
156.271	0.3	Control	0.9375	0.004	Yes	2.981	-0.004	4.0	GoodResponse	0	0.206	n/a	4	15	ButtonPress	Neutral	True
156.316	0.45	Control	0.9375	n/a	Yes	2.981	n/a	n/a	GoodResponse	0	n/a	n/a	4	15	Blank	Neutral	True
156.767	1.45	Control	0.9375	n/a	Yes	2.981	n/a	5.0	GoodResponse	0	0.037	155.804	4	15	Feedback	Neutral	True
158.222	2.981	Control	0.9375	n/a	Yes	2.981	n/a	n/a	GoodResponse	0	0.0	n/a	4	15	ISIslide	Neutral	True
161.231	0.25	Win2	0.9412	0.0	Yes	2.869	0.031	n/a	GoodResponse	1	n/a	n/a	5	16	Cue	Win	True
161.481	4.0	Win2	0.9412	0.0	Yes	2.869	0.0	n/a	GoodResponse	1	n/a	n/a	5	16	Fixation	Win	True
165.477	0.24	Win2	0.9412	0.004	Yes	2.869	-0.004	4.0	GoodResponse	1	0.175	164.652	5	16	Target	Win	True
165.652	0.3	Win2	0.9412	0.004	Yes	2.869	-0.004	4.0	GoodResponse	1	0.175	n/a	5	16	ButtonPress	Win	True
165.727	0.46	Win2	0.9412	n/a	Yes	2.869	n/a	n/a	GoodResponse	1	n/a	n/a	5	16	Blank	Win	True
166.179	1.45	Win2	0.9412	n/a	Yes	2.869	n/a	5.0	GoodResponse	1	0.039	165.218	5	16	Feedback	Win	True
167.633	2.869	Win2	0.9412	n/a	Yes	2.869	n/a	n/a	GoodResponse	1	0.0	n/a	5	16	ISIslide	Win	True
170.525	0.25	Lose2	0.9444	0.0	Yes	2.725	0.025	n/a	GoodResponse	0	n/a	n/a	5	17	Cue	AvoidedLoss	True
170.776	3.95	Lose2	0.9444	0.0	Yes	2.725	0.001	n/a	GoodResponse	0	n/a	n/a	5	17	Fixation	AvoidedLoss	True
174.721	0.23	Lose2	0.9444	0.004	Yes	2.725	-0.004	4.0	GoodResponse	0	0.196	173.917	5	17	Target	AvoidedLoss	True
174.917	0.3	Lose2	0.9444	0.004	Yes	2.725	-0.004	4.0	GoodResponse	0	0.196	n/a	5	17	ButtonPress	AvoidedLoss	True
174.955	0.47	Lose2	0.9444	n/a	Yes	2.725	n/a	n/a	GoodResponse	0	n/a	n/a	5	17	Blank	AvoidedLoss	True
175.423	1.45	Lose2	0.9444	n/a	Yes	2.725	n/a	5.0	GoodResponse	0	0.015	174.438	5	17	Feedback	AvoidedLoss	True
176.877	2.725	Lose2	0.9444	n/a	Yes	2.725	n/a	n/a	GoodResponse	0	0.0	n/a	5	17	ISIslide	AvoidedLoss	True
179.619	0.25	Lose2	0.9473999999999999	0.0	Yes	2.731	0.019	n/a	GoodResponse	0	n/a	n/a	5	18	Cue	AvoidedLoss	True
179.87	4.05	Lose2	0.9473999999999999	0.0	Yes	2.731	0.001	n/a	GoodResponse	0	n/a	n/a	5	18	Fixation	AvoidedLoss	True
183.915	0.22	Lose2	0.9473999999999999	0.004	Yes	2.731	-0.004	4.0	GoodResponse	0	0.187	183.102	5	18	Target	AvoidedLoss	True
184.102	0.3	Lose2	0.9473999999999999	0.004	Yes	2.731	-0.004	4.0	GoodResponse	0	0.187	n/a	5	18	ButtonPress	AvoidedLoss	True
184.149	0.48	Lose2	0.9473999999999999	n/a	Yes	2.731	n/a	n/a	GoodResponse	0	n/a	n/a	5	18	Blank	AvoidedLoss	True
184.617	1.45	Lose2	0.9473999999999999	n/a	Yes	2.731	n/a	5.0	GoodResponse	0	0.041	183.658	5	18	Feedback	AvoidedLoss	True
186.072	2.731	Lose2	0.9473999999999999	n/a	Yes	2.731	n/a	n/a	GoodResponse	0	0.0	n/a	5	18	ISIslide	AvoidedLoss	True
188.83	0.25	Control	0.95	0.0	Yes	2.92	0.03	n/a	GoodResponse	0	n/a	n/a	5	19	Cue	Neutral	True
189.081	3.95	Control	0.95	0.0	Yes	2.92	0.001	n/a	GoodResponse	0	n/a	n/a	5	19	Fixation	Neutral	True
193.026	0.21	Control	0.95	0.004	Yes	2.92	-0.004	4.0	GoodResponse	0	0.208	192.234	5	19	Target	Neutral	True
193.234	0.3	Control	0.95	0.004	Yes	2.92	-0.004	4.0	GoodResponse	0	0.208	n/a	5	19	ButtonPress	Neutral	True
193.243	0.49	Control	0.95	n/a	Yes	2.92	n/a	n/a	GoodResponse	0	n/a	n/a	5	19	Blank	Neutral	True
193.728	1.45	Control	0.95	n/a	Yes	2.92	n/a	5.0	GoodResponse	0	0.005	192.733	5	19	Feedback	Neutral	True
195.182	2.92	Control	0.95	n/a	Yes	2.92	n/a	n/a	GoodResponse	0	0.0	n/a	5	19	ISIslide	Neutral	True
198.124	0.25	Control	0.9048	0.001	No	2.626	0.024	n/a	NoResponse	0	n/a	n/a	5	20	Cue	Neutral	True
198.375	4.05	Control	0.9048	0.0	No	2.626	0.001	n/a	NoResponse	0	n/a	n/a	5	20	Fixation	Neutral	True
202.421	0.2	Control	0.9048	0.003	No	2.626	-0.003	4.0	NoResponse	0	0.217	201.638	5	20	Target	Neutral	True
202.621	0.5	Control	0.9048	n/a	No	2.626	n/a	n/a	NoResponse	0	n/a	n/a	5	20	Blank	Neutral	True
202.638	0.3	Control	0.9048	0.003	No	2.626	-0.003	4.0	NoResponse	0	0.217	n/a	5	20	ButtonPress	Neutral	True
203.123	1.45	Control	0.9048	n/a	No	2.626	n/a	5.0	NoResponse	0	0.022	202.145	5	20	Feedback	Neutral	True
204.577	2.626	Control	0.9048	n/a	No	2.626	n/a	n/a	NoResponse	0	0.0	n/a	5	20	ISIslide	Neutral	True
207.218	0.25	Control	0.9091	0.0	Yes	2.782	0.018	n/a	GoodResponse	0	n/a	n/a	5	21	Cue	Neutral	True
207.469	4.1	Control	0.9091	0.0	Yes	2.782	0.001	n/a	GoodResponse	0	n/a	n/a	5	21	Fixation	Neutral	True
211.565	0.19	Control	0.9091	0.003	Yes	2.782	-0.003	4.0	GoodResponse	0	0.181	210.746	5	21	Target	Neutral	True
211.746	0.3	Control	0.9091	0.003	Yes	2.782	-0.003	4.0	GoodResponse	0	0.181	n/a	5	21	ButtonPress	Neutral	True
211.765	0.51	Control	0.9091	n/a	Yes	2.782	n/a	n/a	GoodResponse	0	n/a	n/a	5	21	Blank	Neutral	True
212.267	1.45	Control	0.9091	n/a	Yes	2.782	n/a	5.0	GoodResponse	0	0.0	211.267	5	21	Feedback	Neutral	True
213.721	2.782	Control	0.9091	n/a	Yes	2.782	n/a	n/a	GoodResponse	0	0.0	n/a	5	21	ISIslide	Neutral	True
216.513	0.25	Control	0.8695999999999999	0.0	No	2.787	0.013	n/a	NoResponse	0	n/a	n/a	5	22	Cue	Neutral	True
216.764	4.0	Control	0.8695999999999999	0.0	No	2.787	0.001	n/a	NoResponse	0	n/a	n/a	5	22	Fixation	Neutral	True
220.759	0.18	Control	0.8695999999999999	0.004	No	2.787	-0.004	4.0	NoResponse	0	0.213	219.972	5	22	Target	Neutral	True
220.943	0.52	Control	0.8695999999999999	n/a	No	2.787	n/a	n/a	NoResponse	0	n/a	n/a	5	22	Blank	Neutral	True
220.972	0.3	Control	0.8695999999999999	0.004	No	2.787	-0.004	4.0	NoResponse	0	0.213	n/a	5	22	ButtonPress	Neutral	True
221.461	1.45	Control	0.8695999999999999	n/a	No	2.787	n/a	5.0	NoResponse	0	0.025	220.486	5	22	Feedback	Neutral	True
222.915	2.787	Control	0.8695999999999999	n/a	No	2.787	n/a	n/a	NoResponse	0	0.0	n/a	5	22	ISIslide	Neutral	True
225.724	0.25	Control	0.8332999999999999	0.0	No	2.776	0.024	n/a	NoResponse	0	n/a	n/a	5	23	Cue	Neutral	True
225.975	3.9	Control	0.8332999999999999	0.0	No	2.776	0.001	n/a	NoResponse	0	n/a	n/a	5	23	Fixation	Neutral	True
229.87	0.17	Control	0.8332999999999999	0.004	No	2.776	-0.004	4.0	NoResponse	0	0.204	229.074	5	23	Target	Neutral	True
230.053	0.53	Control	0.8332999999999999	n/a	No	2.776	n/a	n/a	NoResponse	0	n/a	n/a	5	23	Blank	Neutral	True
230.074	0.3	Control	0.8332999999999999	0.004	No	2.776	-0.004	4.0	NoResponse	0	0.204	n/a	5	23	ButtonPress	Neutral	True
230.572	1.45	Control	0.8332999999999999	n/a	No	2.776	n/a	5.0	NoResponse	0	0.036	229.608	5	23	Feedback	Neutral	True
232.026	2.776	Control	0.8332999999999999	n/a	No	2.776	n/a	n/a	NoResponse	0	0.0	n/a	5	23	ISIslide	Neutral	True
234.818	0.25	Win2	0.8	0.0	No	3.132	0.018	n/a	NoResponse	0	n/a	n/a	5	24	Cue	MissedWin	False
235.068	3.95	Win2	0.8	0.001	No	3.132	0.0	4.0	NoResponse	0	3.48	237.548	5	24	Fixation	MissedWin	False
238.548	0.3	Win2	0.8	0.001	No	3.132	0.0	4.0	NoResponse	0	3.48	n/a	5	24	ButtonPress	MissedWin	False
239.014	0.16	Win2	0.8	0.004	No	3.132	-0.004	4.0	NoResponse	0	0.179	238.193	5	24	Target	MissedWin	False
239.181	0.54	Win2	0.8	n/a	No	3.132	n/a	n/a	NoResponse	0	n/a	n/a	5	24	Blank	MissedWin	False
239.193	0.3	Win2	0.8	0.004	No	3.132	-0.004	4.0	NoResponse	0	0.179	n/a	5	24	ButtonPress	MissedWin	False
239.716	1.45	Win2	0.8	n/a	No	3.132	n/a	5.0	NoResponse	0	0.014	238.73	5	24	Feedback	MissedWin	False
241.17	3.132	Win2	0.8	n/a	No	3.132	n/a	n/a	NoResponse	0	0.0	n/a	5	24	ISIslide	MissedWin	False
244.33	0.25	Win2	0.8077	0.0	Yes	3.07	0.03	n/a	GoodResponse	1	n/a	n/a	6	25	Cue	Win	True
244.58	4.0	Win2	0.8077	0.0	Yes	3.07	0.0	n/a	GoodResponse	1	n/a	n/a	6	25	Fixation	Win	True
248.576	0.15	Win2	0.8077	0.004	Yes	3.07	-0.004	4.0	GoodResponse	1	0.131	247.707	6	25	Target	Win	True
248.707	0.3	Win2	0.8077	0.004	Yes	3.07	-0.004	4.0	GoodResponse	1	0.131	n/a	6	25	ButtonPress	Win	True
248.726	0.55	Win2	0.8077	n/a	Yes	3.07	n/a	n/a	GoodResponse	1	n/a	n/a	6	25	Blank	Win	True
249.278	1.45	Win2	0.8077	n/a	Yes	3.07	n/a	5.0	GoodResponse	1	0.014	248.292	6	25	Feedback	Win	True
250.732	3.07	Win2	0.8077	n/a	Yes	3.07	n/a	n/a	GoodResponse	1	0.0	n/a	6	25	ISIslide	Win	True
253.825	0.25	Win2	0.7778	0.0	No	2.925	0.025	n/a	NoResponse	0	n/a	n/a	6	26	Cue	MissedWin	True
254.075	3.95	Win2	0.7778	0.001	No	2.925	0.0	n/a	NoResponse	0	n/a	n/a	6	26	Fixation	MissedWin	True
258.021	0.15	Win2	0.7778	0.004	No	2.925	-0.004	4.0	NoResponse	0	0.191	257.212	6	26	Target	MissedWin	True
258.171	0.55	Win2	0.7778	n/a	No	2.925	n/a	n/a	NoResponse	0	n/a	n/a	6	26	Blank	MissedWin	True
258.212	0.3	Win2	0.7778	0.004	No	2.925	-0.004	4.0	NoResponse	0	0.191	n/a	6	26	ButtonPress	MissedWin	True
258.723	1.45	Win2	0.7778	n/a	No	2.925	n/a	5.0	NoResponse	0	0.031	257.754	6	26	Feedback	MissedWin	True
260.177	2.925	Win2	0.7778	n/a	No	2.925	n/a	n/a	NoResponse	0	0.0	n/a	6	26	ISIslide	MissedWin	True
263.119	0.25	Lose2	0.75	0.0	No	2.831	0.019	n/a	NoResponse	-1	n/a	n/a	5	27	Cue	Loss	True
263.37	4.05	Lose2	0.75	0.0	No	2.831	0.001	n/a	NoResponse	-1	n/a	n/a	5	27	Fixation	Loss	True
267.415	0.15	Lose2	0.75	0.004	No	2.831	-0.004	4.0	NoResponse	-1	0.189	266.604	5	27	Target	Loss	True
267.566	0.55	Lose2	0.75	n/a	No	2.831	n/a	n/a	NoResponse	-1	n/a	n/a	5	27	Blank	Loss	True
267.604	0.3	Lose2	0.75	0.004	No	2.831	-0.004	4.0	NoResponse	-1	0.189	n/a	5	27	ButtonPress	Loss	True
268.117	1.45	Lose2	0.75	n/a	No	2.831	n/a	5.0	NoResponse	-1	0.005	267.122	5	27	Feedback	Loss	True
269.572	2.831	Lose2	0.75	n/a	No	2.831	n/a	n/a	NoResponse	-1	0.0	n/a	5	27	ISIslide	Loss	True
272.414	0.25	Control	0.7241	0.0	No	2.836	0.014	n/a	NoResponse	0	n/a	n/a	5	28	Cue	Neutral	True
272.664	4.05	Control	0.7241	0.001	No	2.836	0.0	n/a	NoResponse	0	n/a	n/a	5	28	Fixation	Neutral	True
276.71	0.15	Control	0.7241	0.004	No	2.836	-0.004	4.0	NoResponse	0	0.196	275.906	5	28	Target	Neutral	True
276.86	0.55	Control	0.7241	n/a	No	2.836	n/a	n/a	NoResponse	0	n/a	n/a	5	28	Blank	Neutral	True
276.906	0.3	Control	0.7241	0.004	No	2.836	-0.004	4.0	NoResponse	0	0.196	n/a	5	28	ButtonPress	Neutral	True
277.412	1.45	Control	0.7241	n/a	No	2.836	n/a	5.0	NoResponse	0	0.025	276.437	5	28	Feedback	Neutral	True
278.866	2.836	Control	0.7241	n/a	No	2.836	n/a	n/a	NoResponse	0	0.0	n/a	5	28	ISIslide	Neutral	True
281.725	0.25	Lose2	0.7	0.0	No	2.825	0.025	n/a	NoResponse	-1	n/a	n/a	4	29	Cue	Loss	False
281.976	3.95	Lose2	0.7	0.0	No	2.825	0.001	4.0	NoResponse	-1	3.403	284.379	4	29	Fixation	Loss	False
285.379	0.3	Lose2	0.7	0.0	No	2.825	0.001	4.0	NoResponse	-1	3.403	n/a	4	29	ButtonPress	Loss	False
285.921	0.15	Lose2	0.7	0.004	No	2.825	-0.004	4.0	NoResponse	-1	0.199	285.12	4	29	Target	Loss	False
286.071	0.55	Lose2	0.7	n/a	No	2.825	n/a	n/a	NoResponse	-1	n/a	n/a	4	29	Blank	Loss	False
286.12	0.3	Lose2	0.7	0.004	No	2.825	-0.004	4.0	NoResponse	-1	0.199	n/a	4	29	ButtonPress	Loss	False
286.623	1.45	Lose2	0.7	n/a	No	2.825	n/a	5.0	NoResponse	-1	0.034	285.657	4	29	Feedback	Loss	False
288.077	2.825	Lose2	0.7	n/a	No	2.825	n/a	n/a	NoResponse	-1	0.0	n/a	4	29	ISIslide	Loss	False
290.919	0.25	Win2	0.6774	0.0	No	2.781	0.019	n/a	NoResponse	0	n/a	n/a	4	30	Cue	MissedWin	True
291.17	3.9	Win2	0.6774	0.0	No	2.781	0.001	n/a	NoResponse	0	n/a	n/a	4	30	Fixation	MissedWin	True
295.065	0.15	Win2	0.6774	0.004	No	2.781	-0.004	4.0	NoResponse	0	0.195	294.26	4	30	Target	MissedWin	True
295.215	0.55	Win2	0.6774	n/a	No	2.781	n/a	n/a	NoResponse	0	n/a	n/a	4	30	Blank	MissedWin	True
295.26	0.3	Win2	0.6774	0.004	No	2.781	-0.004	4.0	NoResponse	0	0.195	n/a	4	30	ButtonPress	MissedWin	True
295.767	1.45	Win2	0.6774	n/a	No	2.781	n/a	5.0	NoResponse	0	0.012	294.779	4	30	Feedback	MissedWin	True
297.221	2.781	Win2	0.6774	n/a	No	2.781	n/a	n/a	NoResponse	0	0.0	n/a	4	30	ISIslide	MissedWin	True
300.013	0.25	Lose2	0.6562	0.0	No	2.837	0.013	n/a	NoResponse	-1	n/a	n/a	3	31	Cue	Loss	True
300.264	4.05	Lose2	0.6562	0.0	No	2.837	0.001	n/a	NoResponse	-1	n/a	n/a	3	31	Fixation	Loss	True
304.309	0.15	Lose2	0.6562	0.004	No	2.837	-0.004	4.0	NoResponse	-1	0.177	303.486	3	31	Target	Loss	True
304.46	0.55	Lose2	0.6562	n/a	No	2.837	n/a	n/a	NoResponse	-1	n/a	n/a	3	31	Blank	Loss	True
304.486	0.3	Lose2	0.6562	0.004	No	2.837	-0.004	4.0	NoResponse	-1	0.177	n/a	3	31	ButtonPress	Loss	True
305.011	1.45	Lose2	0.6562	n/a	No	2.837	n/a	5.0	NoResponse	-1	0.036	304.047	3	31	Feedback	Loss	True
306.466	2.837	Lose2	0.6562	n/a	No	2.837	n/a	n/a	NoResponse	-1	0.0	n/a	3	31	ISIslide	Loss	True
309.324	0.25	Lose2	0.6364	0.0	No	2.626	0.024	n/a	NoResponse	-1	n/a	n/a	2	32	Cue	Loss	False
309.575	4.15	Lose2	0.6364	0.0	No	2.626	0.001	4.0	NoResponse	-1	3.198	311.773	2	32	Fixation	Loss	False
312.773	0.3	Lose2	0.6364	0.0	No	2.626	0.001	4.0	NoResponse	-1	3.198	n/a	2	32	ButtonPress	Loss	False
313.721	0.15	Lose2	0.6364	0.003	No	2.626	-0.003	4.0	NoResponse	-1	0.166	312.887	2	32	Target	Loss	False
313.871	0.55	Lose2	0.6364	n/a	No	2.626	n/a	n/a	NoResponse	-1	n/a	n/a	2	32	Blank	Loss	False
313.887	0.3	Lose2	0.6364	0.003	No	2.626	-0.003	4.0	NoResponse	-1	0.166	n/a	2	32	ButtonPress	Loss	False
314.423	1.45	Lose2	0.6364	n/a	No	2.626	n/a	5.0	NoResponse	-1	0.038	313.461	2	32	Feedback	Loss	False
315.877	2.626	Lose2	0.6364	n/a	No	2.626	n/a	n/a	NoResponse	-1	0.0	n/a	2	32	ISIslide	Loss	False
318.519	0.25	Win2	0.6175999999999999	0.0	No	2.681	0.019	n/a	NoResponse	0	n/a	n/a	2	33	Cue	MissedWin	True
318.769	4.0	Win2	0.6175999999999999	0.0	No	2.681	0.0	n/a	NoResponse	0	n/a	n/a	2	33	Fixation	MissedWin	True
322.765	0.16	Win2	0.6175999999999999	0.004	No	2.681	-0.004	4.0	NoResponse	0	0.175	321.94	2	33	Target	MissedWin	True
322.932	0.54	Win2	0.6175999999999999	n/a	No	2.681	n/a	n/a	NoResponse	0	n/a	n/a	2	33	Blank	MissedWin	True
322.94	0.3	Win2	0.6175999999999999	0.004	No	2.681	-0.004	4.0	NoResponse	0	0.175	n/a	2	33	ButtonPress	MissedWin	True
323.467	1.45	Win2	0.6175999999999999	n/a	No	2.681	n/a	5.0	NoResponse	0	0.018	322.485	2	33	Feedback	MissedWin	True
324.921	2.681	Win2	0.6175999999999999	n/a	No	2.681	n/a	n/a	NoResponse	0	0.0	n/a	2	33	ISIslide	MissedWin	True
327.629	0.25	Lose2	0.6	0.0	No	2.621	0.029	n/a	LatePress	-1	n/a	n/a	1	34	Cue	Loss	True
327.88	4.05	Lose2	0.6	0.0	No	2.621	0.001	n/a	LatePress	-1	n/a	n/a	1	34	Fixation	Loss	True
331.925	0.17	Lose2	0.6	0.004	No	2.621	-0.004	4.0	LatePress	-1	0.175	331.1	1	34	Target	Loss	True
332.1	0.3	Lose2	0.6	0.004	No	2.621	-0.004	4.0	LatePress	-1	0.175	n/a	1	34	ButtonPress	Loss	True
332.109	0.53	Lose2	0.6	n/a	No	2.621	n/a	n/a	LatePress	-1	n/a	n/a	1	34	Blank	Loss	True
332.627	1.45	Lose2	0.6	n/a	No	2.621	n/a	5.0	LatePress	-1	0.029	331.656	1	34	Feedback	Loss	True
334.082	2.621	Lose2	0.6	n/a	No	2.621	n/a	n/a	LatePress	-1	0.0	n/a	1	34	ISIslide	Loss	True
336.723	0.25	Lose2	0.6111	0.0	Yes	2.677	0.023	n/a	GoodResponse	0	n/a	n/a	1	35	Cue	AvoidedLoss	True
336.974	4.0	Lose2	0.6111	0.0	Yes	2.677	0.001	n/a	GoodResponse	0	n/a	n/a	1	35	Fixation	AvoidedLoss	True
340.969	0.18	Lose2	0.6111	0.004	Yes	2.677	-0.004	4.0	GoodResponse	0	0.171	340.14	1	35	Target	AvoidedLoss	True
341.14	0.3	Lose2	0.6111	0.004	Yes	2.677	-0.004	4.0	GoodResponse	0	0.171	n/a	1	35	ButtonPress	AvoidedLoss	True
341.153	0.52	Lose2	0.6111	n/a	Yes	2.677	n/a	n/a	GoodResponse	0	n/a	n/a	1	35	Blank	AvoidedLoss	True
341.671	1.45	Lose2	0.6111	n/a	Yes	2.677	n/a	5.0	GoodResponse	0	0.01	340.681	1	35	Feedback	AvoidedLoss	True
343.126	2.677	Lose2	0.6111	n/a	Yes	2.677	n/a	n/a	GoodResponse	0	0.0	n/a	1	35	ISIslide	AvoidedLoss	True
345.817	0.25	Control	0.5946	0.0	No	2.683	0.017	n/a	NoResponse	0	n/a	n/a	1	36	Cue	Neutral	True
346.068	4.0	Control	0.5946	0.0	No	2.683	0.001	n/a	NoResponse	0	n/a	n/a	1	36	Fixation	Neutral	True
350.063	0.19	Control	0.5946	0.004	No	2.683	-0.004	4.0	NoResponse	0	0.206	349.269	1	36	Target	Neutral	True
350.264	0.51	Control	0.5946	n/a	No	2.683	n/a	n/a	NoResponse	0	n/a	n/a	1	36	Blank	Neutral	True
350.269	0.3	Control	0.5946	0.004	No	2.683	-0.004	4.0	NoResponse	0	0.206	n/a	1	36	ButtonPress	Neutral	True
350.765	1.45	Control	0.5946	n/a	No	2.683	n/a	5.0	NoResponse	0	0.038	349.803	1	36	Feedback	Neutral	True
352.219	2.683	Control	0.5946	n/a	No	2.683	n/a	n/a	NoResponse	0	0.0	n/a	1	36	ISIslide	Neutral	True
354.928	0.25	Win2	0.5789	0.0	No	2.872	0.028	n/a	LatePress	0	n/a	n/a	1	37	Cue	MissedWin	True
355.178	4.0	Win2	0.5789	0.0	No	2.872	0.0	n/a	LatePress	0	n/a	n/a	1	37	Fixation	MissedWin	True
359.174	0.2	Win2	0.5789	0.004	No	2.872	-0.004	4.0	LatePress	0	0.201	358.375	1	37	Target	MissedWin	True
359.374	0.5	Win2	0.5789	n/a	No	2.872	n/a	n/a	LatePress	0	n/a	n/a	1	37	Blank	MissedWin	True
359.375	0.3	Win2	0.5789	0.004	No	2.872	-0.004	4.0	LatePress	0	0.201	n/a	1	37	ButtonPress	MissedWin	True
359.876	1.45	Win2	0.5789	n/a	No	2.872	n/a	5.0	LatePress	0	0.049	358.925	1	37	Feedback	MissedWin	True
361.33	2.872	Win2	0.5789	n/a	No	2.872	n/a	n/a	LatePress	0	0.0	n/a	1	37	ISIslide	MissedWin	True
364.222	0.25	Lose2	0.5640999999999999	0.0	No	2.828	0.022	n/a	LatePress	-1	n/a	n/a	0	38	Cue	Loss	True
364.473	3.95	Lose2	0.5640999999999999	0.0	No	2.828	0.001	n/a	LatePress	-1	n/a	n/a	0	38	Fixation	Loss	True
368.418	0.21	Lose2	0.5640999999999999	0.004	No	2.828	-0.004	4.0	LatePress	-1	0.218	367.636	0	38	Target	Loss	True
368.635	0.49	Lose2	0.5640999999999999	n/a	No	2.828	n/a	n/a	LatePress	-1	n/a	n/a	0	38	Blank	Loss	True
368.636	0.3	Lose2	0.5640999999999999	0.004	No	2.828	-0.004	4.0	LatePress	-1	0.218	n/a	0	38	ButtonPress	Loss	True
369.12	1.45	Lose2	0.5640999999999999	n/a	No	2.828	n/a	5.0	LatePress	-1	0.024	368.144	0	38	Feedback	Loss	True
370.574	2.828	Lose2	0.5640999999999999	n/a	No	2.828	n/a	n/a	LatePress	-1	0.0	n/a	0	38	ISIslide	Loss	True
373.416	0.25	Win2	0.575	0.0	Yes	2.984	0.016	n/a	GoodResponse	1	n/a	n/a	1	39	Cue	Win	False
373.667	4.1	Win2	0.575	0.0	Yes	2.984	0.001	4.0	GoodResponse	1	3.616	376.283	1	39	Fixation	Win	False
377.283	0.3	Win2	0.575	0.0	Yes	2.984	0.001	4.0	GoodResponse	1	3.616	n/a	1	39	ButtonPress	Win	False
377.763	0.22	Win2	0.575	0.003	Yes	2.984	-0.003	4.0	GoodResponse	1	0.162	376.925	1	39	Target	Win	False
377.925	0.3	Win2	0.575	0.003	Yes	2.984	-0.003	4.0	GoodResponse	1	0.162	n/a	1	39	ButtonPress	Win	False
377.997	0.48	Win2	0.575	n/a	Yes	2.984	n/a	n/a	GoodResponse	1	n/a	n/a	1	39	Blank	Win	False
378.465	1.45	Win2	0.575	n/a	Yes	2.984	n/a	5.0	GoodResponse	1	0.044	377.509	1	39	Feedback	Win	False
379.919	2.984	Win2	0.575	n/a	Yes	2.984	n/a	n/a	GoodResponse	1	0.0	n/a	1	39	ISIslide	Win	False
382.928	0.25	Win2	0.5854	0.0	Yes	2.722	0.028	n/a	GoodResponse	1	n/a	n/a	2	40	Cue	Win	True
383.179	3.95	Win2	0.5854	0.0	Yes	2.722	0.001	n/a	GoodResponse	1	n/a	n/a	2	40	Fixation	Win	True
387.124	0.23	Win2	0.5854	0.004	Yes	2.722	-0.004	4.0	GoodResponse	1	0.176	386.3	2	40	Target	Win	True
387.3	0.3	Win2	0.5854	0.004	Yes	2.722	-0.004	4.0	GoodResponse	1	0.176	n/a	2	40	ButtonPress	Win	True
387.358	0.47	Win2	0.5854	n/a	Yes	2.722	n/a	n/a	GoodResponse	1	n/a	n/a	2	40	Blank	Win	True
387.826	1.45	Win2	0.5854	n/a	Yes	2.722	n/a	5.0	GoodResponse	1	0.001	386.827	2	40	Feedback	Win	True
389.281	2.722	Win2	0.5854	n/a	Yes	2.722	n/a	n/a	GoodResponse	1	0.0	n/a	2	40	ISIslide	Win	True
392.022	0.25	Win2	0.5952000000000001	0.0	Yes	2.778	0.022	n/a	GoodResponse	1	n/a	n/a	3	41	Cue	Win	False
392.273	3.9	Win2	0.5952000000000001	0.0	Yes	2.778	0.001	4.0	GoodResponse	1	3.618	394.891	3	41	Fixation	Win	False
395.891	0.3	Win2	0.5952000000000001	0.0	Yes	2.778	0.001	4.0	GoodResponse	1	3.618	n/a	3	41	ButtonPress	Win	False
396.168	0.24	Win2	0.5952000000000001	0.004	Yes	2.778	-0.004	4.0	GoodResponse	1	0.1	395.268	3	41	Target	Win	False
396.268	0.3	Win2	0.5952000000000001	0.004	Yes	2.778	-0.004	4.0	GoodResponse	1	0.1	n/a	3	41	ButtonPress	Win	False
396.419	0.46	Win2	0.5952000000000001	n/a	Yes	2.778	n/a	n/a	GoodResponse	1	n/a	n/a	3	41	Blank	Win	False
396.87	1.45	Win2	0.5952000000000001	n/a	Yes	2.778	n/a	5.0	GoodResponse	1	0.03	395.9	3	41	Feedback	Win	False
398.324	2.778	Win2	0.5952000000000001	n/a	Yes	2.778	n/a	n/a	GoodResponse	1	0.0	n/a	3	41	ISIslide	Win	False
401.116	0.25	Control	0.6047	0.0	Yes	2.934	0.016	n/a	GoodResponse	0	n/a	n/a	3	42	Cue	Neutral	True
401.367	3.85	Control	0.6047	0.0	Yes	2.934	0.001	n/a	GoodResponse	0	n/a	n/a	3	42	Fixation	Neutral	True
405.212	0.25	Control	0.6047	0.004	Yes	2.934	-0.004	4.0	GoodResponse	0	0.171	404.383	3	42	Target	Neutral	True
405.383	0.3	Control	0.6047	0.004	Yes	2.934	-0.004	4.0	GoodResponse	0	0.171	n/a	3	42	ButtonPress	Neutral	True
405.462	0.45	Control	0.6047	n/a	Yes	2.934	n/a	n/a	GoodResponse	0	n/a	n/a	3	42	Blank	Neutral	True
405.914	1.45	Control	0.6047	n/a	Yes	2.934	n/a	5.0	GoodResponse	0	0.01	404.924	3	42	Feedback	Neutral	True
407.368	2.934	Control	0.6047	n/a	Yes	2.934	n/a	n/a	GoodResponse	0	0.0	n/a	3	42	ISIslide	Neutral	True
410.327	0.25	Win2	0.6136	0.0	Yes	3.173	0.027	n/a	GoodResponse	1	n/a	n/a	4	43	Cue	Win	True
410.578	4.0	Win2	0.6136	0.0	Yes	3.173	0.001	n/a	GoodResponse	1	n/a	n/a	4	43	Fixation	Win	True
414.573	0.26	Win2	0.6136	0.004	Yes	3.173	-0.004	4.0	GoodResponse	1	0.194	413.767	4	43	Target	Win	True
414.767	0.3	Win2	0.6136	0.004	Yes	3.173	-0.004	4.0	GoodResponse	1	0.194	n/a	4	43	ButtonPress	Win	True
414.84	0.44	Win2	0.6136	n/a	Yes	3.173	n/a	n/a	GoodResponse	1	n/a	n/a	4	43	Blank	Win	True
415.275	1.45	Win2	0.6136	n/a	Yes	3.173	n/a	5.0	GoodResponse	1	0.015	414.29	4	43	Feedback	Win	True
416.729	3.173	Win2	0.6136	n/a	Yes	3.173	n/a	n/a	GoodResponse	1	0.0	n/a	4	43	ISIslide	Win	True
419.922	0.25	Win2	0.6222	0.0	Yes	2.978	0.022	n/a	GoodResponse	1	n/a	n/a	5	44	Cue	Win	True
420.173	4.0	Win2	0.6222	0.0	Yes	2.978	0.001	n/a	GoodResponse	1	n/a	n/a	5	44	Fixation	Win	True
424.168	0.27	Win2	0.6222	0.004	Yes	2.978	-0.004	4.0	GoodResponse	1	0.21	423.378	5	44	Target	Win	True
424.378	0.3	Win2	0.6222	0.004	Yes	2.978	-0.004	4.0	GoodResponse	1	0.21	n/a	5	44	ButtonPress	Win	True
424.453	0.43	Win2	0.6222	n/a	Yes	2.978	n/a	n/a	GoodResponse	1	n/a	n/a	5	44	Blank	Win	True
424.871	1.45	Win2	0.6222	n/a	Yes	2.978	n/a	5.0	GoodResponse	1	0.029	423.9	5	44	Feedback	Win	True
426.325	2.978	Win2	0.6222	n/a	Yes	2.978	n/a	n/a	GoodResponse	1	0.0	n/a	5	44	ISIslide	Win	True
429.317	0.25	Control	0.6304	0.0	Yes	2.883	0.017	n/a	GoodResponse	0	n/a	n/a	5	45	Cue	Neutral	True
429.568	4.1	Control	0.6304	0.0	Yes	2.883	0.001	n/a	GoodResponse	0	n/a	n/a	5	45	Fixation	Neutral	True
433.664	0.28	Control	0.6304	0.003	Yes	2.883	-0.003	4.0	GoodResponse	0	0.213	432.877	5	45	Target	Neutral	True
433.877	0.3	Control	0.6304	0.003	Yes	2.883	-0.003	4.0	GoodResponse	0	0.213	n/a	5	45	ButtonPress	Neutral	True
433.948	0.42	Control	0.6304	n/a	Yes	2.883	n/a	n/a	GoodResponse	0	n/a	n/a	5	45	Blank	Neutral	True
434.366	1.45	Control	0.6304	n/a	Yes	2.883	n/a	5.0	GoodResponse	0	0.045	433.411	5	45	Feedback	Neutral	True
435.82	2.883	Control	0.6304	n/a	Yes	2.883	n/a	n/a	GoodResponse	0	0.0	n/a	5	45	ISIslide	Neutral	True
438.729	0.25	Lose2	0.617	0.0	No	3.371	0.029	n/a	PrematurePress	-1	n/a	n/a	4	46	Cue	Loss	False
438.979	4.0	Lose2	0.617	0.001	No	3.371	0.0	4.0	PrematurePress	-1	3.41	441.389	4	46	Fixation	Loss	False
442.389	0.3	Lose2	0.617	0.001	No	3.371	0.0	4.0	PrematurePress	-1	3.41	n/a	4	46	ButtonPress	Loss	False
442.975	0.29	Lose2	0.617	0.004	No	3.371	-0.004	4.0	PrematurePress	-1	0.015	441.99	4	46	Target	Loss	False
442.99	0.3	Lose2	0.617	0.004	No	3.371	-0.004	4.0	PrematurePress	-1	0.015	n/a	4	46	ButtonPress	Loss	False
443.276	0.41	Lose2	0.617	n/a	No	3.371	n/a	n/a	PrematurePress	-1	n/a	n/a	4	46	Blank	Loss	False
443.677	1.45	Lose2	0.617	n/a	No	3.371	n/a	5.0	PrematurePress	-1	0.005	442.682	4	46	Feedback	Loss	False
445.131	3.371	Lose2	0.617	n/a	No	3.371	n/a	n/a	PrematurePress	-1	0.0	n/a	4	46	ISIslide	Loss	False
448.525	0.25	Lose2	0.625	0.0	Yes	2.675	0.025	n/a	GoodResponse	0	n/a	n/a	4	47	Cue	AvoidedLoss	True
448.775	4.0	Lose2	0.625	0.001	Yes	2.675	0.0	n/a	GoodResponse	0	n/a	n/a	4	47	Fixation	AvoidedLoss	True
452.771	0.3	Lose2	0.625	0.004	Yes	2.675	-0.004	4.0	GoodResponse	0	0.18	451.951	4	47	Target	AvoidedLoss	True
452.951	0.3	Lose2	0.625	0.004	Yes	2.675	-0.004	4.0	GoodResponse	0	0.18	n/a	4	47	ButtonPress	AvoidedLoss	True
453.072	0.4	Lose2	0.625	n/a	Yes	2.675	n/a	n/a	GoodResponse	0	n/a	n/a	4	47	Blank	AvoidedLoss	True
453.473	1.45	Lose2	0.625	n/a	Yes	2.675	n/a	5.0	GoodResponse	0	0.012	452.485	4	47	Feedback	AvoidedLoss	True
454.927	2.675	Lose2	0.625	n/a	Yes	2.675	n/a	n/a	GoodResponse	0	0.0	n/a	4	47	ISIslide	AvoidedLoss	True
457.619	0.25	Lose2	0.6327	0.0	Yes	3.031	0.019	n/a	GoodResponse	0	n/a	n/a	4	48	Cue	AvoidedLoss	True
457.869	3.95	Lose2	0.6327	0.0	Yes	3.031	0.0	n/a	GoodResponse	0	n/a	n/a	4	48	Fixation	AvoidedLoss	True
461.815	0.31	Lose2	0.6327	0.004	Yes	3.031	-0.004	4.0	GoodResponse	0	0.202	461.017	4	48	Target	AvoidedLoss	True
462.017	0.3	Lose2	0.6327	0.004	Yes	3.031	-0.004	4.0	GoodResponse	0	0.202	n/a	4	48	ButtonPress	AvoidedLoss	True
462.132	0.39	Lose2	0.6327	n/a	Yes	3.031	n/a	n/a	GoodResponse	0	n/a	n/a	4	48	Blank	AvoidedLoss	True
462.517	1.45	Lose2	0.6327	n/a	Yes	3.031	n/a	5.0	GoodResponse	0	0.041	461.558	4	48	Feedback	AvoidedLoss	True
463.971	3.031	Lose2	0.6327	n/a	Yes	3.031	n/a	n/a	GoodResponse	0	0.0	n/a	4	48	ISIslide	AvoidedLoss	True
467.013	0.25	Control	0.64	0.001	Yes	2.887	0.013	n/a	GoodResponse	0	n/a	n/a	4	49	Cue	Neutral	True
467.264	4.0	Control	0.64	0.0	Yes	2.887	0.001	n/a	GoodResponse	0	n/a	n/a	4	49	Fixation	Neutral	True
471.26	0.32	Control	0.64	0.003	Yes	2.887	-0.003	4.0	GoodResponse	0	0.221	470.481	4	49	Target	Neutral	True
471.481	0.3	Control	0.64	0.003	Yes	2.887	-0.003	4.0	GoodResponse	0	0.221	n/a	4	49	ButtonPress	Neutral	True
471.594	0.38	Control	0.64	n/a	Yes	2.887	n/a	n/a	GoodResponse	0	n/a	n/a	4	49	Blank	Neutral	True
471.962	1.45	Control	0.64	n/a	Yes	2.887	n/a	5.0	GoodResponse	0	0.011	470.973	4	49	Feedback	Neutral	True
473.416	2.887	Control	0.64	n/a	Yes	2.887	n/a	n/a	GoodResponse	0	0.0	n/a	4	49	ISIslide	Neutral	True
476.325	0.25	Control	0.6470999999999999	0.0	Yes	2.775	0.025	n/a	GoodResponse	0	n/a	n/a	4	50	Cue	Neutral	True
476.575	4.0	Control	0.6470999999999999	0.001	Yes	2.775	0.0	n/a	GoodResponse	0	n/a	n/a	4	50	Fixation	Neutral	True
480.571	0.33	Control	0.6470999999999999	0.004	Yes	2.775	-0.004	4.0	GoodResponse	0	0.204	479.775	4	50	Target	Neutral	True
480.775	0.3	Control	0.6470999999999999	0.004	Yes	2.775	-0.004	4.0	GoodResponse	0	0.204	n/a	4	50	ButtonPress	Neutral	True
480.905	0.37	Control	0.6470999999999999	n/a	Yes	2.775	n/a	n/a	GoodResponse	0	n/a	n/a	4	50	Blank	Neutral	True
481.273	1.45	Control	0.6470999999999999	n/a	Yes	2.775	n/a	5.0	GoodResponse	0	0.017	480.29	4	50	Feedback	Neutral	True
482.727	2.775	Control	0.6470999999999999	n/a	Yes	2.775	n/a	n/a	GoodResponse	0	0.0	n/a	4	50	ISIslide	Neutral	True
485.519	0.25	Control	0.6537999999999999	0.0	Yes	2.731	0.019	n/a	GoodResponse	0	n/a	n/a	4	51	Cue	Neutral	True
485.77	3.95	Control	0.6537999999999999	0.0	Yes	2.731	0.001	n/a	GoodResponse	0	n/a	n/a	4	51	Fixation	Neutral	True
489.715	0.34	Control	0.6537999999999999	0.004	Yes	2.731	-0.004	4.0	GoodResponse	0	0.202	488.917	4	51	Target	Neutral	True
489.917	0.3	Control	0.6537999999999999	0.004	Yes	2.731	-0.004	4.0	GoodResponse	0	0.202	n/a	4	51	ButtonPress	Neutral	True
490.066	0.36	Control	0.6537999999999999	n/a	Yes	2.731	n/a	n/a	GoodResponse	0	n/a	n/a	4	51	Blank	Neutral	True
490.417	1.45	Control	0.6537999999999999	n/a	Yes	2.731	n/a	5.0	GoodResponse	0	0.043	489.46	4	51	Feedback	Neutral	True
491.871	2.731	Control	0.6537999999999999	n/a	Yes	2.731	n/a	n/a	GoodResponse	0	0.0	n/a	4	51	ISIslide	Neutral	True
494.613	0.25	Control	0.6604000000000001	0.0	Yes	2.637	0.013	n/a	GoodResponse	0	n/a	n/a	4	52	Cue	Neutral	True
494.864	4.05	Control	0.6604000000000001	0.0	Yes	2.637	0.001	n/a	GoodResponse	0	n/a	n/a	4	52	Fixation	Neutral	True
498.909	0.35	Control	0.6604000000000001	0.004	Yes	2.637	-0.004	4.0	GoodResponse	0	0.188	498.097	4	52	Target	Neutral	True
499.097	0.3	Control	0.6604000000000001	0.004	Yes	2.637	-0.004	4.0	GoodResponse	0	0.188	n/a	4	52	ButtonPress	Neutral	True
499.26	0.35	Control	0.6604000000000001	n/a	Yes	2.637	n/a	n/a	GoodResponse	0	n/a	n/a	4	52	Blank	Neutral	True
499.611	1.45	Control	0.6604000000000001	n/a	Yes	2.637	n/a	5.0	GoodResponse	0	0.02	498.631	4	52	Feedback	Neutral	True
501.066	2.637	Control	0.6604000000000001	n/a	Yes	2.637	n/a	n/a	GoodResponse	0	0.0	n/a	4	52	ISIslide	Neutral	True
503.723	0.25	Win2	0.6667000000000001	0.001	Yes	2.927	0.023	n/a	GoodResponse	1	n/a	n/a	5	53	Cue	Win	True
503.974	4.05	Win2	0.6667000000000001	0.0	Yes	2.927	0.001	n/a	GoodResponse	1	n/a	n/a	5	53	Fixation	Win	True
508.02	0.35	Win2	0.6667000000000001	0.003	Yes	2.927	-0.003	4.0	GoodResponse	1	0.176	507.196	5	53	Target	Win	True
508.196	0.3	Win2	0.6667000000000001	0.003	Yes	2.927	-0.003	4.0	GoodResponse	1	0.176	n/a	5	53	ButtonPress	Win	True
508.371	0.35	Win2	0.6667000000000001	n/a	Yes	2.927	n/a	n/a	GoodResponse	1	n/a	n/a	5	53	Blank	Win	True
508.722	1.45	Win2	0.6667000000000001	n/a	Yes	2.927	n/a	5.0	GoodResponse	1	0.031	507.753	5	53	Feedback	Win	True
510.176	2.927	Win2	0.6667000000000001	n/a	Yes	2.927	n/a	n/a	GoodResponse	1	0.0	n/a	5	53	ISIslide	Win	True
513.118	0.25	Win2	0.6727	0.0	Yes	2.732	0.018	n/a	GoodResponse	1	n/a	n/a	6	54	Cue	Win	True
513.369	3.95	Win2	0.6727	0.0	Yes	2.732	0.001	n/a	GoodResponse	1	n/a	n/a	6	54	Fixation	Win	True
517.314	0.34	Win2	0.6727	0.004	Yes	2.732	-0.004	4.0	GoodResponse	1	0.189	516.503	6	54	Target	Win	True
517.503	0.3	Win2	0.6727	0.004	Yes	2.732	-0.004	4.0	GoodResponse	1	0.189	n/a	6	54	ButtonPress	Win	True
517.665	0.36	Win2	0.6727	n/a	Yes	2.732	n/a	n/a	GoodResponse	1	n/a	n/a	6	54	Blank	Win	True
518.016	1.45	Win2	0.6727	n/a	Yes	2.732	n/a	5.0	GoodResponse	1	0.005	517.021	6	54	Feedback	Win	True
519.471	2.732	Win2	0.6727	n/a	Yes	2.732	n/a	n/a	GoodResponse	1	0.0	n/a	6	54	ISIslide	Win	True
522.229	0.25	Control	0.6786	0.0	Yes	3.021	0.029	n/a	GoodResponse	0	n/a	n/a	6	55	Cue	Neutral	True
522.48	3.95	Control	0.6786	0.0	Yes	3.021	0.001	n/a	GoodResponse	0	n/a	n/a	6	55	Fixation	Neutral	True
526.425	0.33	Control	0.6786	0.004	Yes	3.021	-0.004	4.0	GoodResponse	0	0.225	525.65	6	55	Target	Neutral	True
526.65	0.3	Control	0.6786	0.004	Yes	3.021	-0.004	4.0	GoodResponse	0	0.225	n/a	6	55	ButtonPress	Neutral	True
526.759	0.37	Control	0.6786	n/a	Yes	3.021	n/a	n/a	GoodResponse	0	n/a	n/a	6	55	Blank	Neutral	True
527.127	1.45	Control	0.6786	n/a	Yes	3.021	n/a	5.0	GoodResponse	0	0.016	526.143	6	55	Feedback	Neutral	True
528.581	3.021	Control	0.6786	n/a	Yes	3.021	n/a	n/a	GoodResponse	0	0.0	n/a	6	55	ISIslide	Neutral	True
531.624	0.25	Control	0.6842	0.0	Yes	2.826	0.024	n/a	GoodResponse	0	n/a	n/a	6	56	Cue	Neutral	True
531.874	3.95	Control	0.6842	0.001	Yes	2.826	0.0	n/a	GoodResponse	0	n/a	n/a	6	56	Fixation	Neutral	True
535.82	0.32	Control	0.6842	0.004	Yes	2.826	-0.004	4.0	GoodResponse	0	0.221	535.041	6	56	Target	Neutral	True
536.041	0.3	Control	0.6842	0.004	Yes	2.826	-0.004	4.0	GoodResponse	0	0.221	n/a	6	56	ButtonPress	Neutral	True
536.154	0.38	Control	0.6842	n/a	Yes	2.826	n/a	n/a	GoodResponse	0	n/a	n/a	6	56	Blank	Neutral	True
536.522	1.45	Control	0.6842	n/a	Yes	2.826	n/a	5.0	GoodResponse	0	0.036	535.558	6	56	Feedback	Neutral	True
537.976	2.826	Control	0.6842	n/a	Yes	2.826	n/a	n/a	GoodResponse	0	0.0	n/a	6	56	ISIslide	Neutral	True
540.818	0.25	Control	0.6897	0.0	Yes	3.482	0.018	n/a	GoodResponse	0	n/a	n/a	6	57	Cue	Neutral	True
541.069	4.0	Control	0.6897	0.0	Yes	3.482	0.001	n/a	GoodResponse	0	n/a	n/a	6	57	Fixation	Neutral	True
545.064	0.31	Control	0.6897	0.004	Yes	3.482	-0.004	4.0	GoodResponse	0	0.203	544.267	6	57	Target	Neutral	True
545.267	0.3	Control	0.6897	0.004	Yes	3.482	-0.004	4.0	GoodResponse	0	0.203	n/a	6	57	ButtonPress	Neutral	True
545.382	0.39	Control	0.6897	n/a	Yes	3.482	n/a	n/a	GoodResponse	0	n/a	n/a	6	57	Blank	Neutral	True
545.766	1.45	Control	0.6897	n/a	Yes	3.482	n/a	5.0	GoodResponse	0	0.011	544.777	6	57	Feedback	Neutral	True
547.22	3.482	Control	0.6897	n/a	Yes	3.482	n/a	n/a	GoodResponse	0	0.0	n/a	6	57	ISIslide	Neutral	True
550.714	0.25	Win2	0.6949	0.0	Yes	2.736	0.014	n/a	GoodResponse	1	n/a	n/a	7	58	Cue	Win	True
550.965	4.05	Win2	0.6949	0.0	Yes	2.736	0.001	n/a	GoodResponse	1	n/a	n/a	7	58	Fixation	Win	True
555.01	0.3	Win2	0.6949	0.004	Yes	2.736	-0.004	4.0	GoodResponse	1	0.193	554.203	7	58	Target	Win	True
555.203	0.3	Win2	0.6949	0.004	Yes	2.736	-0.004	4.0	GoodResponse	1	0.193	n/a	7	58	ButtonPress	Win	True
555.311	0.4	Win2	0.6949	n/a	Yes	2.736	n/a	n/a	GoodResponse	1	n/a	n/a	7	58	Blank	Win	True
555.713	1.45	Win2	0.6949	n/a	Yes	2.736	n/a	5.0	GoodResponse	1	0.015	554.728	7	58	Feedback	Win	True
557.167	2.736	Win2	0.6949	n/a	Yes	2.736	n/a	n/a	GoodResponse	1	0.0	n/a	7	58	ISIslide	Win	True
559.925	0.25	Lose2	0.7	0.0	Yes	2.675	0.025	n/a	GoodResponse	0	n/a	n/a	7	59	Cue	AvoidedLoss	False
560.176	4.0	Lose2	0.7	0.0	Yes	2.675	0.001	4.0	GoodResponse	0	3.1	562.276	7	59	Fixation	AvoidedLoss	False
563.276	0.3	Lose2	0.7	0.0	Yes	2.675	0.001	4.0	GoodResponse	0	3.1	n/a	7	59	ButtonPress	AvoidedLoss	False
564.171	0.29	Lose2	0.7	0.004	Yes	2.675	-0.004	4.0	GoodResponse	0	0.192	563.363	7	59	Target	AvoidedLoss	False
564.363	0.3	Lose2	0.7	0.004	Yes	2.675	-0.004	4.0	GoodResponse	0	0.192	n/a	7	59	ButtonPress	AvoidedLoss	False
564.472	0.41	Lose2	0.7	n/a	Yes	2.675	n/a	n/a	GoodResponse	0	n/a	n/a	7	59	Blank	AvoidedLoss	False
564.873	1.45	Lose2	0.7	n/a	Yes	2.675	n/a	5.0	GoodResponse	0	0.026	563.899	7	59	Feedback	AvoidedLoss	False
566.328	2.675	Lose2	0.7	n/a	Yes	2.675	n/a	n/a	GoodResponse	0	0.0	n/a	7	59	ISIslide	AvoidedLoss	False
569.019	0.25	Control	0.7049	0.0	Yes	2.681	0.019	n/a	GoodResponse	0	n/a	n/a	7	60	Cue	Neutral	True
569.27	4.0	Control	0.7049	0.0	Yes	2.681	0.001	n/a	GoodResponse	0	n/a	n/a	7	60	Fixation	Neutral	True
573.265	0.28	Control	0.7049	0.004	Yes	2.681	-0.004	4.0	GoodResponse	0	0.221	572.486	7	60	Target	Neutral	True
573.486	0.3	Control	0.7049	0.004	Yes	2.681	-0.004	4.0	GoodResponse	0	0.221	n/a	7	60	ButtonPress	Neutral	True
573.549	0.42	Control	0.7049	n/a	Yes	2.681	n/a	n/a	GoodResponse	0	n/a	n/a	7	60	Blank	Neutral	True
573.967	1.45	Control	0.7049	n/a	Yes	2.681	n/a	5.0	GoodResponse	0	0.005	572.972	7	60	Feedback	Neutral	True
575.422	2.681	Control	0.7049	n/a	Yes	2.681	n/a	n/a	GoodResponse	0	0.0	n/a	7	60	ISIslide	Neutral	True
578.13	0.25	Lose2	0.7097	0.0	Yes	2.97	0.03	n/a	GoodResponse	0	n/a	n/a	7	61	Cue	AvoidedLoss	True
578.381	4.0	Lose2	0.7097	0.0	Yes	2.97	0.001	n/a	GoodResponse	0	n/a	n/a	7	61	Fixation	AvoidedLoss	True
582.376	0.27	Lose2	0.7097	0.004	Yes	2.97	-0.004	4.0	GoodResponse	0	0.209	581.585	7	61	Target	AvoidedLoss	True
582.585	0.3	Lose2	0.7097	0.004	Yes	2.97	-0.004	4.0	GoodResponse	0	0.209	n/a	7	61	ButtonPress	AvoidedLoss	True
582.66	0.43	Lose2	0.7097	n/a	Yes	2.97	n/a	n/a	GoodResponse	0	n/a	n/a	7	61	Blank	AvoidedLoss	True
583.078	1.45	Lose2	0.7097	n/a	Yes	2.97	n/a	5.0	GoodResponse	0	0.016	582.094	7	61	Feedback	AvoidedLoss	True
584.532	2.97	Lose2	0.7097	n/a	Yes	2.97	n/a	n/a	GoodResponse	0	0.0	n/a	7	61	ISIslide	AvoidedLoss	True
587.525	0.25	Lose2	0.7143	0.0	Yes	2.875	0.025	n/a	GoodResponse	0	n/a	n/a	7	62	Cue	AvoidedLoss	True
587.775	3.9	Lose2	0.7143	0.0	Yes	2.875	0.0	n/a	GoodResponse	0	n/a	n/a	7	62	Fixation	AvoidedLoss	True
591.687	0.26	Lose2	0.7143	0.0	Yes	2.875	0.012	4.0	GoodResponse	0	0.209	590.896	7	62	Target	AvoidedLoss	True
591.896	0.3	Lose2	0.7143	0.0	Yes	2.875	0.012	4.0	GoodResponse	0	0.209	n/a	7	62	ButtonPress	AvoidedLoss	True
591.938	0.44	Lose2	0.7143	n/a	Yes	2.875	n/a	n/a	GoodResponse	0	n/a	n/a	7	62	Blank	AvoidedLoss	True
592.372	1.45	Lose2	0.7143	n/a	Yes	2.875	n/a	5.0	GoodResponse	0	0.039	591.411	7	62	Feedback	AvoidedLoss	True
593.827	2.875	Lose2	0.7143	n/a	Yes	2.875	n/a	n/a	GoodResponse	0	0.0	n/a	7	62	ISIslide	AvoidedLoss	True
596.719	0.25	Lose2	0.7188	0.0	Yes	2.631	0.019	n/a	GoodResponse	0	n/a	n/a	7	63	Cue	AvoidedLoss	True
596.97	4.05	Lose2	0.7188	0.0	Yes	2.631	0.001	n/a	GoodResponse	0	n/a	n/a	7	63	Fixation	AvoidedLoss	True
601.015	0.25	Lose2	0.7188	0.004	Yes	2.631	-0.004	4.0	GoodResponse	0	0.247	600.262	7	63	Target	AvoidedLoss	True
601.262	0.3	Lose2	0.7188	0.004	Yes	2.631	-0.004	4.0	GoodResponse	0	0.247	n/a	7	63	ButtonPress	AvoidedLoss	True
601.266	0.45	Lose2	0.7188	n/a	Yes	2.631	n/a	n/a	GoodResponse	0	n/a	n/a	7	63	Blank	AvoidedLoss	True
601.717	1.45	Lose2	0.7188	n/a	Yes	2.631	n/a	5.0	GoodResponse	0	0.011	600.728	7	63	Feedback	AvoidedLoss	True
603.171	2.631	Lose2	0.7188	n/a	Yes	2.631	n/a	n/a	GoodResponse	0	0.0	n/a	7	63	ISIslide	AvoidedLoss	True
605.829	0.25	Win2	0.7231000000000001	0.001	Yes	3.121	0.029	n/a	GoodResponse	1	n/a	n/a	8	64	Cue	Win	True
606.08	4.15	Win2	0.7231000000000001	0.0	Yes	3.121	0.001	n/a	GoodResponse	1	n/a	n/a	8	64	Fixation	Win	True
610.226	0.24	Win2	0.7231000000000001	0.003	Yes	3.121	-0.003	4.0	GoodResponse	1	0.197	609.423	8	64	Target	Win	True
610.423	0.3	Win2	0.7231000000000001	0.003	Yes	3.121	-0.003	4.0	GoodResponse	1	0.197	n/a	8	64	ButtonPress	Win	True
610.477	0.46	Win2	0.7231000000000001	n/a	Yes	3.121	n/a	n/a	GoodResponse	1	n/a	n/a	8	64	Blank	Win	True
610.928	1.45	Win2	0.7231000000000001	n/a	Yes	3.121	n/a	5.0	GoodResponse	1	0.019	609.947	8	64	Feedback	Win	True
612.382	3.121	Win2	0.7231000000000001	n/a	Yes	3.121	n/a	n/a	GoodResponse	1	0.0	n/a	8	64	ISIslide	Win	True
615.525	0.25	Control	0.7273000000000001	0.0	Yes	2.775	0.025	n/a	GoodResponse	0	n/a	n/a	8	65	Cue	Neutral	True
615.776	4.0	Control	0.7273000000000001	0.0	Yes	2.775	0.001	n/a	GoodResponse	0	n/a	n/a	8	65	Fixation	Neutral	True
619.771	0.23	Control	0.7273000000000001	0.004	Yes	2.775	-0.004	4.0	GoodResponse	0	0.213	618.984	8	65	Target	Neutral	True
619.984	0.3	Control	0.7273000000000001	0.004	Yes	2.775	-0.004	4.0	GoodResponse	0	0.213	n/a	8	65	ButtonPress	Neutral	True
620.005	0.47	Control	0.7273000000000001	n/a	Yes	2.775	n/a	n/a	GoodResponse	0	n/a	n/a	8	65	Blank	Neutral	True
620.473	1.45	Control	0.7273000000000001	n/a	Yes	2.775	n/a	5.0	GoodResponse	0	0.035	619.508	8	65	Feedback	Neutral	True
621.928	2.775	Control	0.7273000000000001	n/a	Yes	2.775	n/a	n/a	GoodResponse	0	0.0	n/a	8	65	ISIslide	Neutral	True
624.719	0.25	Win2	0.7313	0.0	Yes	2.781	0.019	n/a	GoodResponse	1	n/a	n/a	9	66	Cue	Win	True
624.97	3.9	Win2	0.7313	0.0	Yes	2.781	0.001	n/a	GoodResponse	1	n/a	n/a	9	66	Fixation	Win	True
628.865	0.22	Win2	0.7313	0.004	Yes	2.781	-0.004	4.0	GoodResponse	1	0.21	628.075	9	66	Target	Win	True
629.075	0.3	Win2	0.7313	0.004	Yes	2.781	-0.004	4.0	GoodResponse	1	0.21	n/a	9	66	ButtonPress	Win	True
629.099	0.48	Win2	0.7313	n/a	Yes	2.781	n/a	n/a	GoodResponse	1	n/a	n/a	9	66	Blank	Win	True
629.567	1.45	Win2	0.7313	n/a	Yes	2.781	n/a	5.0	GoodResponse	1	0.014	628.581	9	66	Feedback	Win	True
631.022	2.781	Win2	0.7313	n/a	Yes	2.781	n/a	n/a	GoodResponse	1	0.0	n/a	9	66	ISIslide	Win	True
633.813	0.25	Control	0.7206	0.0	No	2.737	0.013	n/a	NoResponse	0	n/a	n/a	9	67	Cue	Neutral	True
634.064	3.95	Control	0.7206	0.0	No	2.737	0.001	n/a	NoResponse	0	n/a	n/a	9	67	Fixation	Neutral	True
638.009	0.21	Control	0.7206	0.004	No	2.737	-0.004	4.0	NoResponse	0	0.325	637.334	9	67	Target	Neutral	True
638.226	0.49	Control	0.7206	n/a	No	2.737	n/a	n/a	NoResponse	0	n/a	n/a	9	67	Blank	Neutral	True
638.334	0.3	Control	0.7206	0.004	No	2.737	-0.004	4.0	NoResponse	0	0.325	n/a	9	67	ButtonPress	Neutral	True
638.711	1.45	Control	0.7206	n/a	No	2.737	n/a	5.0	NoResponse	0	0.041	637.752	9	67	Feedback	Neutral	True
640.166	2.737	Control	0.7206	n/a	No	2.737	n/a	n/a	NoResponse	0	0.0	n/a	9	67	ISIslide	Neutral	True
642.924	0.25	Win2	0.7101000000000001	0.0	No	3.076	0.024	n/a	NoResponse	0	n/a	n/a	9	68	Cue	MissedWin	False
643.175	4.0	Win2	0.7101000000000001	0.0	No	3.076	0.001	4.0	NoResponse	0	3.831	646.006	9	68	Fixation	MissedWin	False
647.006	0.3	Win2	0.7101000000000001	0.0	No	3.076	0.001	4.0	NoResponse	0	3.831	n/a	9	68	ButtonPress	MissedWin	False
647.17	0.2	Win2	0.7101000000000001	0.004	No	3.076	-0.004	4.0	NoResponse	0	0.209	646.379	9	68	Target	MissedWin	False
647.371	0.5	Win2	0.7101000000000001	n/a	No	3.076	n/a	n/a	NoResponse	0	n/a	n/a	9	68	Blank	MissedWin	False
647.379	0.3	Win2	0.7101000000000001	0.004	No	3.076	-0.004	4.0	NoResponse	0	0.209	n/a	9	68	ButtonPress	MissedWin	False
647.872	1.45	Win2	0.7101000000000001	n/a	No	3.076	n/a	5.0	NoResponse	0	0.002	646.874	9	68	Feedback	MissedWin	False
649.326	3.076	Win2	0.7101000000000001	n/a	No	3.076	n/a	n/a	NoResponse	0	0.0	n/a	9	68	ISIslide	MissedWin	False
652.419	0.25	Win2	0.7	0.0	No	3.231	0.019	n/a	NoResponse	0	n/a	n/a	9	69	Cue	MissedWin	False
652.67	3.95	Win2	0.7	0.0	No	3.231	0.001	4.0	NoResponse	0	0.19	651.86	9	69	Fixation	MissedWin	False
652.86	0.3	Win2	0.7	0.0	No	3.231	0.001	4.0	NoResponse	0	0.19	n/a	9	69	ButtonPress	MissedWin	False
656.615	0.19	Win2	0.7	0.004	No	3.231	-0.004	4.0	NoResponse	0	0.307	655.922	9	69	Target	MissedWin	False
656.816	0.51	Win2	0.7	n/a	No	3.231	n/a	n/a	NoResponse	0	n/a	n/a	9	69	Blank	MissedWin	False
656.922	0.3	Win2	0.7	0.004	No	3.231	-0.004	4.0	NoResponse	0	0.307	n/a	9	69	ButtonPress	MissedWin	False
657.317	1.45	Win2	0.7	n/a	No	3.231	n/a	5.0	NoResponse	0	0.021	656.338	9	69	Feedback	MissedWin	False
658.771	3.231	Win2	0.7	n/a	No	3.231	n/a	n/a	NoResponse	0	0.0	n/a	9	69	ISIslide	MissedWin	False
662.014	0.25	Lose2	0.6901	0.001	No	3.036	0.014	n/a	NoResponse	-1	n/a	n/a	8	70	Cue	Loss	True
662.265	4.05	Lose2	0.6901	0.0	No	3.036	0.001	n/a	NoResponse	-1	n/a	n/a	8	70	Fixation	Loss	True
666.311	0.18	Lose2	0.6901	0.003	No	3.036	-0.003	4.0	NoResponse	-1	0.193	665.504	8	70	Target	Loss	True
666.495	0.52	Lose2	0.6901	n/a	No	3.036	n/a	n/a	NoResponse	-1	n/a	n/a	8	70	Blank	Loss	True
666.504	0.3	Lose2	0.6901	0.003	No	3.036	-0.003	4.0	NoResponse	-1	0.193	n/a	8	70	ButtonPress	Loss	True
667.013	1.45	Lose2	0.6901	n/a	No	3.036	n/a	5.0	NoResponse	-1	0.032	666.045	8	70	Feedback	Loss	True
668.467	3.036	Lose2	0.6901	n/a	No	3.036	n/a	n/a	NoResponse	-1	0.0	n/a	8	70	ISIslide	Loss	True
671.526	0.25	Win2	0.6806	0.0	No	2.724	0.026	n/a	NoResponse	0	n/a	n/a	8	71	Cue	MissedWin	True
671.777	4.05	Win2	0.6806	0.0	No	2.724	0.001	n/a	NoResponse	0	n/a	n/a	8	71	Fixation	MissedWin	True
675.822	0.17	Win2	0.6806	0.004	No	2.724	-0.004	4.0	NoResponse	0	0.211	675.033	8	71	Target	MissedWin	True
676.006	0.53	Win2	0.6806	n/a	No	2.724	n/a	n/a	NoResponse	0	n/a	n/a	8	71	Blank	MissedWin	True
676.033	0.3	Win2	0.6806	0.004	No	2.724	-0.004	4.0	NoResponse	0	0.211	n/a	8	71	ButtonPress	MissedWin	True
676.525	1.45	Win2	0.6806	n/a	No	2.724	n/a	5.0	NoResponse	0	0.031	675.556	8	71	Feedback	MissedWin	True
677.979	2.724	Win2	0.6806	n/a	No	2.724	n/a	n/a	NoResponse	0	0.0	n/a	8	71	ISIslide	MissedWin	True
680.72	0.25	Win2	0.6712	0.001	No	2.78	0.02	n/a	NoResponse	0	n/a	n/a	8	72	Cue	MissedWin	True
680.971	4.1	Win2	0.6712	0.0	No	2.78	0.001	n/a	NoResponse	0	n/a	n/a	8	72	Fixation	MissedWin	True
685.067	0.16	Win2	0.6712	0.003	No	2.78	-0.003	4.0	NoResponse	0	0.2	684.267	8	72	Target	MissedWin	True
685.234	0.54	Win2	0.6712	n/a	No	2.78	n/a	n/a	NoResponse	0	n/a	n/a	8	72	Blank	MissedWin	True
685.267	0.3	Win2	0.6712	0.003	No	2.78	-0.003	4.0	NoResponse	0	0.2	n/a	8	72	ButtonPress	MissedWin	True
685.769	1.45	Win2	0.6712	n/a	No	2.78	n/a	5.0	NoResponse	0	0.007	684.776	8	72	Feedback	MissedWin	True
687.223	2.78	Win2	0.6712	n/a	No	2.78	n/a	n/a	NoResponse	0	0.0	n/a	8	72	ISIslide	MissedWin	True
690.015	0.25	Win2	0.6622	0.0	No	2.685	0.015	n/a	NoResponse	0	n/a	n/a	8	73	Cue	MissedWin	False
690.266	4.0	Win2	0.6622	0.0	No	2.685	0.001	4.0	NoResponse	0	3.891	693.157	8	73	Fixation	MissedWin	False
694.157	0.3	Win2	0.6622	0.0	No	2.685	0.001	4.0	NoResponse	0	3.891	n/a	8	73	ButtonPress	MissedWin	False
694.261	0.15	Win2	0.6622	0.004	No	2.685	-0.004	4.0	NoResponse	0	0.232	693.493	8	73	Target	MissedWin	False
694.411	0.55	Win2	0.6622	n/a	No	2.685	n/a	n/a	NoResponse	0	n/a	n/a	8	73	Blank	MissedWin	False
694.493	0.3	Win2	0.6622	0.004	No	2.685	-0.004	4.0	NoResponse	0	0.232	n/a	8	73	ButtonPress	MissedWin	False
694.963	1.45	Win2	0.6622	n/a	No	2.685	n/a	5.0	NoResponse	0	0.033	693.996	8	73	Feedback	MissedWin	False
696.418	2.685	Win2	0.6622	n/a	No	2.685	n/a	n/a	NoResponse	0	0.0	n/a	8	73	ISIslide	MissedWin	False
699.126	0.25	Lose2	0.6533	0.0	No	2.624	0.026	n/a	NoResponse	-1	n/a	n/a	7	74	Cue	Loss	True
699.376	4.05	Lose2	0.6533	0.0	No	2.624	0.0	n/a	NoResponse	-1	n/a	n/a	7	74	Fixation	Loss	True
703.422	0.15	Lose2	0.6533	0.004	No	2.624	-0.004	4.0	NoResponse	-1	0.209	702.631	7	74	Target	Loss	True
703.572	0.55	Lose2	0.6533	n/a	No	2.624	n/a	n/a	NoResponse	-1	n/a	n/a	7	74	Blank	Loss	True
703.631	0.3	Lose2	0.6533	0.004	No	2.624	-0.004	4.0	NoResponse	-1	0.209	n/a	7	74	ButtonPress	Loss	True
704.124	1.45	Lose2	0.6533	n/a	No	2.624	n/a	5.0	NoResponse	-1	0.042	703.166	7	74	Feedback	Loss	True
705.578	2.624	Lose2	0.6533	n/a	No	2.624	n/a	n/a	NoResponse	-1	0.0	n/a	7	74	ISIslide	Loss	True
708.22	0.25	Lose2	0.6446999999999999	0.0	No	2.93	0.02	n/a	NoResponse	-1	n/a	n/a	6	75	Cue	Loss	True
708.47	3.95	Lose2	0.6446999999999999	0.0	No	2.93	0.0	n/a	NoResponse	-1	n/a	n/a	6	75	Fixation	Loss	True
712.432	0.16	Lose2	0.6446999999999999	0.0	No	2.93	0.012	4.0	NoResponse	-1	0.166	711.598	6	75	Target	Loss	True
712.583	0.54	Lose2	0.6446999999999999	n/a	No	2.93	n/a	n/a	NoResponse	-1	n/a	n/a	6	75	Blank	Loss	True
712.598	0.3	Lose2	0.6446999999999999	0.0	No	2.93	0.012	4.0	NoResponse	-1	0.166	n/a	6	75	ButtonPress	Loss	True
713.118	1.45	Lose2	0.6446999999999999	n/a	No	2.93	n/a	5.0	NoResponse	-1	0.024	712.142	6	75	Feedback	Loss	True
714.572	2.93	Lose2	0.6446999999999999	n/a	No	2.93	n/a	n/a	NoResponse	-1	0.0	n/a	6	75	ISIslide	Loss	True
717.514	0.25	Control	0.6364	0.0	No	3.236	0.014	n/a	NoResponse	0	n/a	n/a	6	76	Cue	Neutral	True
717.765	4.05	Control	0.6364	0.0	No	3.236	0.001	n/a	NoResponse	0	n/a	n/a	6	76	Fixation	Neutral	True
721.81	0.17	Control	0.6364	0.004	No	3.236	-0.004	4.0	NoResponse	0	0.207	721.017	6	76	Target	Neutral	True
721.994	0.53	Control	0.6364	n/a	No	3.236	n/a	n/a	NoResponse	0	n/a	n/a	6	76	Blank	Neutral	True
722.017	0.3	Control	0.6364	0.004	No	3.236	-0.004	4.0	NoResponse	0	0.207	n/a	6	76	ButtonPress	Neutral	True
722.512	1.45	Control	0.6364	n/a	No	3.236	n/a	5.0	NoResponse	0	0.045	721.557	6	76	Feedback	Neutral	True
723.967	3.236	Control	0.6364	n/a	No	3.236	n/a	n/a	NoResponse	0	0.0	n/a	6	76	ISIslide	Neutral	True
727.227	0.25	Lose2	0.6282	0.0	No	2.573	0.027	n/a	NoResponse	-1	n/a	n/a	5	77	Cue	Loss	True
727.477	3.95	Lose2	0.6282	0.0	No	2.573	0.0	n/a	NoResponse	-1	n/a	n/a	5	77	Fixation	Loss	True
731.439	0.18	Lose2	0.6282	0.0	No	2.573	0.012	4.0	NoResponse	-1	0.191	730.63	5	77	Target	Loss	True
731.606	0.52	Lose2	0.6282	n/a	No	2.573	n/a	n/a	NoResponse	-1	n/a	n/a	5	77	Blank	Loss	True
731.63	0.3	Lose2	0.6282	0.0	No	2.573	0.012	4.0	NoResponse	-1	0.191	n/a	5	77	ButtonPress	Loss	True
732.125	1.45	Lose2	0.6282	n/a	No	2.573	n/a	5.0	NoResponse	-1	0.041	731.166	5	77	Feedback	Loss	True
733.579	2.573	Lose2	0.6282	n/a	No	2.573	n/a	n/a	NoResponse	-1	0.0	n/a	5	77	ISIslide	Loss	True
