onset	duration	cue_type	current_mean_accuracy	duration_error	is_hit	isi_adjusted	onset_delay	response	response_type	reward	rt	rt_time	total_reward	trial_number	trial_phase	trial_type	one_press
11.098	0.25	Control	1.0	0.0	Yes	2.952	-0.002	n/a	GoodResponse	0	n/a	n/a	0	0	Cue	Neutral	True
11.349	3.85	Control	1.0	0.0	Yes	2.952	0.001	n/a	GoodResponse	0	n/a	n/a	0	0	Fixation	Neutral	True
15.21	0.4	Control	1.0	0.0	Yes	2.952	0.012	2.0	GoodResponse	0	0.246	14.456	0	0	Target	Neutral	True
15.456	0.3	Control	1.0	0.0	Yes	2.952	0.012	2.0	GoodResponse	0	0.246	n/a	0	0	ButtonPress	Neutral	True
15.595	0.3	Control	1.0	n/a	Yes	2.952	n/a	n/a	GoodResponse	0	n/a	n/a	0	0	Blank	Neutral	True
15.896	1.45	Control	1.0	n/a	Yes	2.952	n/a	5.0	GoodResponse	0	0.029	14.925	0	0	Feedback	Neutral	True
17.35	2.952	Control	1.0	n/a	Yes	2.952	n/a	n/a	GoodResponse	0	0.0	n/a	0	0	ISIslide	Neutral	True
20.325	0.25	Lose2	1.0	0.001	Yes	2.775	0.025	n/a	GoodResponse	0	n/a	n/a	0	1	Cue	AvoidedLoss	True
20.576	4.0	Lose2	1.0	0.0	Yes	2.775	0.001	n/a	GoodResponse	0	n/a	n/a	0	1	Fixation	AvoidedLoss	True
24.572	0.39	Lose2	1.0	0.003	Yes	2.775	-0.003	2.0	GoodResponse	0	0.229	23.801	0	1	Target	AvoidedLoss	True
24.801	0.3	Lose2	1.0	0.003	Yes	2.775	-0.003	2.0	GoodResponse	0	0.229	n/a	0	1	ButtonPress	AvoidedLoss	True
24.973	0.31	Lose2	1.0	n/a	Yes	2.775	n/a	n/a	GoodResponse	0	n/a	n/a	0	1	Blank	AvoidedLoss	True
25.274	1.45	Lose2	1.0	n/a	Yes	2.775	n/a	5.0	GoodResponse	0	0.017	24.291	0	1	Feedback	AvoidedLoss	True
26.728	2.775	Lose2	1.0	n/a	Yes	2.775	n/a	n/a	GoodResponse	0	0.0	n/a	0	1	ISIslide	AvoidedLoss	True
29.52	0.25	Control	1.0	0.0	Yes	2.58	0.02	n/a	GoodResponse	0	n/a	n/a	0	2	Cue	Neutral	True
29.77	4.1	Control	1.0	0.0	Yes	2.58	0.0	n/a	GoodResponse	0	n/a	n/a	0	2	Fixation	Neutral	True
33.866	0.38	Control	1.0	0.004	Yes	2.58	-0.004	2.0	GoodResponse	0	0.189	33.055	0	2	Target	Neutral	True
34.055	0.3	Control	1.0	0.004	Yes	2.58	-0.004	2.0	GoodResponse	0	0.189	n/a	0	2	ButtonPress	Neutral	True
34.25	0.32	Control	1.0	n/a	Yes	2.58	n/a	n/a	GoodResponse	0	n/a	n/a	0	2	Blank	Neutral	True
34.568	1.45	Control	1.0	n/a	Yes	2.58	n/a	5.0	GoodResponse	0	0.04	33.608	0	2	Feedback	Neutral	True
36.022	2.58	Control	1.0	n/a	Yes	2.58	n/a	n/a	GoodResponse	0	0.0	n/a	0	2	ISIslide	Neutral	True
38.63	0.25	Win2	1.0	0.0	Yes	2.82	0.03	n/a	GoodResponse	1	n/a	n/a	1	3	Cue	Win	True
38.881	3.95	Win2	1.0	0.0	Yes	2.82	0.001	n/a	GoodResponse	1	n/a	n/a	1	3	Fixation	Win	True
42.826	0.37	Win2	1.0	0.004	Yes	2.82	-0.004	2.0	GoodResponse	1	0.22	42.046	1	3	Target	Win	True
43.046	0.3	Win2	1.0	0.004	Yes	2.82	-0.004	2.0	GoodResponse	1	0.22	n/a	1	3	ButtonPress	Win	True
43.211	0.33	Win2	1.0	n/a	Yes	2.82	n/a	n/a	GoodResponse	1	n/a	n/a	1	3	Blank	Win	True
43.528	1.45	Win2	1.0	n/a	Yes	2.82	n/a	5.0	GoodResponse	1	0.007	42.535	1	3	Feedback	Win	True
44.983	2.82	Win2	1.0	n/a	Yes	2.82	n/a	n/a	GoodResponse	1	0.0	n/a	1	3	ISIslide	Win	True
47.824	0.25	Win2	1.0	0.0	Yes	3.276	0.024	n/a	GoodResponse	1	n/a	n/a	2	4	Cue	Win	True
48.075	4.0	Win2	1.0	0.0	Yes	3.276	0.001	n/a	GoodResponse	1	n/a	n/a	2	4	Fixation	Win	True
52.07	0.36	Win2	1.0	0.004	Yes	3.276	-0.004	2.0	GoodResponse	1	0.26	51.33	2	4	Target	Win	True
52.33	0.3	Win2	1.0	0.004	Yes	3.276	-0.004	2.0	GoodResponse	1	0.26	n/a	2	4	ButtonPress	Win	True
52.438	0.34	Win2	1.0	n/a	Yes	3.276	n/a	n/a	GoodResponse	1	n/a	n/a	2	4	Blank	Win	True
52.772	1.45	Win2	1.0	n/a	Yes	3.276	n/a	5.0	GoodResponse	1	0.031	51.803	2	4	Feedback	Win	True
54.227	3.276	Win2	1.0	n/a	Yes	3.276	n/a	n/a	GoodResponse	1	0.0	n/a	2	4	ISIslide	Win	True
57.52	0.25	Win2	1.0	0.0	Yes	2.78	0.02	n/a	GoodResponse	1	n/a	n/a	3	5	Cue	Win	True
57.771	4.0	Win2	1.0	0.0	Yes	2.78	0.001	n/a	GoodResponse	1	n/a	n/a	3	5	Fixation	Win	True
61.766	0.35	Win2	1.0	0.004	Yes	2.78	-0.004	2.0	GoodResponse	1	0.243	61.009	3	5	Target	Win	True
62.009	0.3	Win2	1.0	0.004	Yes	2.78	-0.004	2.0	GoodResponse	1	0.243	n/a	3	5	ButtonPress	Win	True
62.117	0.35	Win2	1.0	n/a	Yes	2.78	n/a	n/a	GoodResponse	1	n/a	n/a	3	5	Blank	Win	True
62.468	1.45	Win2	1.0	n/a	Yes	2.78	n/a	5.0	GoodResponse	1	0.042	61.51	3	5	Feedback	Win	True
63.922	2.78	Win2	1.0	n/a	Yes	2.78	n/a	n/a	GoodResponse	1	0.0	n/a	3	5	ISIslide	Win	True
66.731	0.25	Lose2	1.0	0.0	Yes	2.719	0.031	n/a	GoodResponse	0	n/a	n/a	3	6	Cue	AvoidedLoss	True
66.982	3.95	Lose2	1.0	0.0	Yes	2.719	0.001	n/a	GoodResponse	0	n/a	n/a	3	6	Fixation	AvoidedLoss	True
70.927	0.34	Lose2	1.0	0.004	Yes	2.719	-0.004	2.0	GoodResponse	0	0.215	70.142	3	6	Target	AvoidedLoss	True
71.142	0.3	Lose2	1.0	0.004	Yes	2.719	-0.004	2.0	GoodResponse	0	0.215	n/a	3	6	ButtonPress	AvoidedLoss	True
71.278	0.36	Lose2	1.0	n/a	Yes	2.719	n/a	n/a	GoodResponse	0	n/a	n/a	3	6	Blank	AvoidedLoss	True
71.629	1.45	Lose2	1.0	n/a	Yes	2.719	n/a	5.0	GoodResponse	0	0.006	70.635	3	6	Feedback	AvoidedLoss	True
73.083	2.719	Lose2	1.0	n/a	Yes	2.719	n/a	n/a	GoodResponse	0	0.0	n/a	3	6	ISIslide	AvoidedLoss	True
75.825	0.25	Lose2	1.0	0.0	Yes	4.025	0.025	n/a	GoodResponse	0	n/a	n/a	3	7	Cue	AvoidedLoss	True
76.075	4.05	Lose2	1.0	0.001	Yes	4.025	0.0	n/a	GoodResponse	0	n/a	n/a	3	7	Fixation	AvoidedLoss	True
80.121	0.33	Lose2	1.0	0.004	Yes	4.025	-0.004	2.0	GoodResponse	0	0.201	79.322	3	7	Target	AvoidedLoss	True
80.322	0.3	Lose2	1.0	0.004	Yes	4.025	-0.004	2.0	GoodResponse	0	0.201	n/a	3	7	ButtonPress	AvoidedLoss	True
80.455	0.37	Lose2	1.0	n/a	Yes	4.025	n/a	n/a	GoodResponse	0	n/a	n/a	3	7	Blank	AvoidedLoss	True
80.823	1.45	Lose2	1.0	n/a	Yes	4.025	n/a	5.0	GoodResponse	0	0.029	79.852	3	7	Feedback	AvoidedLoss	True
82.277	4.025	Lose2	1.0	n/a	Yes	4.025	n/a	n/a	GoodResponse	0	0.0	n/a	3	7	ISIslide	AvoidedLoss	True
86.323	0.25	Lose2	1.0	0.0	Yes	3.027	0.023	n/a	GoodResponse	0	n/a	n/a	3	8	Cue	AvoidedLoss	True
86.574	3.95	Lose2	1.0	0.0	Yes	3.027	0.001	n/a	GoodResponse	0	n/a	n/a	3	8	Fixation	AvoidedLoss	True
90.519	0.32	Lose2	1.0	0.004	Yes	3.027	-0.004	2.0	GoodResponse	0	0.288	89.807	3	8	Target	AvoidedLoss	True
90.807	0.3	Lose2	1.0	0.004	Yes	3.027	-0.004	2.0	GoodResponse	0	0.288	n/a	3	8	ButtonPress	AvoidedLoss	True
90.853	0.38	Lose2	1.0	n/a	Yes	3.027	n/a	n/a	GoodResponse	0	n/a	n/a	3	8	Blank	AvoidedLoss	True
91.221	1.45	Lose2	1.0	n/a	Yes	3.027	n/a	5.0	GoodResponse	0	0.02	90.241	3	8	Feedback	AvoidedLoss	True
92.675	3.027	Lose2	1.0	n/a	Yes	3.027	n/a	n/a	GoodResponse	0	0.0	n/a	3	8	ISIslide	AvoidedLoss	True
95.718	0.25	Lose2	1.0	0.0	Yes	3.132	0.018	n/a	GoodResponse	0	n/a	n/a	3	9	Cue	AvoidedLoss	True
95.968	3.95	Lose2	1.0	0.0	Yes	3.132	0.0	n/a	GoodResponse	0	n/a	n/a	3	9	Fixation	AvoidedLoss	True
99.93	0.31	Lose2	1.0	0.0	Yes	3.132	0.012	2.0	GoodResponse	0	0.231	99.161	3	9	Target	AvoidedLoss	True
100.161	0.3	Lose2	1.0	0.0	Yes	3.132	0.012	2.0	GoodResponse	0	0.231	n/a	3	9	ButtonPress	AvoidedLoss	True
100.231	0.39	Lose2	1.0	n/a	Yes	3.132	n/a	n/a	GoodResponse	0	n/a	n/a	3	9	Blank	AvoidedLoss	True
100.616	1.45	Lose2	1.0	n/a	Yes	3.132	n/a	5.0	GoodResponse	0	0.04	99.656	3	9	Feedback	AvoidedLoss	True
102.07	3.132	Lose2	1.0	n/a	Yes	3.132	n/a	n/a	GoodResponse	0	0.0	n/a	3	9	ISIslide	AvoidedLoss	True
105.229	0.25	Control	1.0	0.0	Yes	3.271	0.029	n/a	GoodResponse	0	n/a	n/a	3	10	Cue	Neutral	True
105.48	4.0	Control	1.0	0.0	Yes	3.271	0.001	n/a	GoodResponse	0	n/a	n/a	3	10	Fixation	Neutral	True
109.475	0.3	Control	1.0	0.004	Yes	3.271	-0.004	2.0	GoodResponse	0	0.211	108.686	3	10	Target	Neutral	True
109.686	0.3	Control	1.0	0.004	Yes	3.271	-0.004	2.0	GoodResponse	0	0.211	n/a	3	10	ButtonPress	Neutral	True
109.776	0.4	Control	1.0	n/a	Yes	3.271	n/a	n/a	GoodResponse	0	n/a	n/a	3	10	Blank	Neutral	True
110.177	1.45	Control	1.0	n/a	Yes	3.271	n/a	5.0	GoodResponse	0	0.04	109.217	3	10	Feedback	Neutral	True
111.632	3.271	Control	1.0	n/a	Yes	3.271	n/a	n/a	GoodResponse	0	0.0	n/a	3	10	ISIslide	Neutral	True
114.925	0.25	Lose2	1.0	0.0	Yes	2.725	0.025	n/a	GoodResponse	0	n/a	n/a	3	11	Cue	AvoidedLoss	True
115.176	4.05	Lose2	1.0	0.0	Yes	2.725	0.001	n/a	GoodResponse	0	n/a	n/a	3	11	Fixation	AvoidedLoss	True
119.221	0.29	Lose2	1.0	0.004	Yes	2.725	-0.004	2.0	GoodResponse	0	0.182	118.403	3	11	Target	AvoidedLoss	True
119.403	0.3	Lose2	1.0	0.004	Yes	2.725	-0.004	2.0	GoodResponse	0	0.182	n/a	3	11	ButtonPress	AvoidedLoss	True
119.522	0.41	Lose2	1.0	n/a	Yes	2.725	n/a	n/a	GoodResponse	0	n/a	n/a	3	11	Blank	AvoidedLoss	True
119.923	1.45	Lose2	1.0	n/a	Yes	2.725	n/a	5.0	GoodResponse	0	0.001	118.924	3	11	Feedback	AvoidedLoss	True
121.378	2.725	Lose2	1.0	n/a	Yes	2.725	n/a	n/a	GoodResponse	0	0.0	n/a	3	11	ISIslide	AvoidedLoss	True
124.119	0.25	Control	1.0	0.0	Yes	2.981	0.019	n/a	GoodResponse	0	n/a	n/a	3	12	Cue	Neutral	True
124.37	3.9	Control	1.0	0.0	Yes	2.981	0.001	n/a	GoodResponse	0	n/a	n/a	3	12	Fixation	Neutral	True
128.265	0.28	Control	1.0	0.004	Yes	2.981	-0.004	2.0	GoodResponse	0	0.267	127.532	3	12	Target	Neutral	True
128.532	0.3	Control	1.0	0.004	Yes	2.981	-0.004	2.0	GoodResponse	0	0.267	n/a	3	12	ButtonPress	Neutral	True
128.549	0.42	Control	1.0	n/a	Yes	2.981	n/a	n/a	GoodResponse	0	n/a	n/a	3	12	Blank	Neutral	True
128.967	1.45	Control	1.0	n/a	Yes	2.981	n/a	5.0	GoodResponse	0	0.031	127.998	3	12	Feedback	Neutral	True
130.421	2.981	Control	1.0	n/a	Yes	2.981	n/a	n/a	GoodResponse	0	0.0	n/a	3	12	ISIslide	Neutral	True
133.43	0.25	Control	1.0	0.0	Yes	2.77	0.03	n/a	GoodResponse	0	n/a	n/a	3	13	Cue	Neutral	True
133.681	4.0	Control	1.0	0.0	Yes	2.77	0.001	n/a	GoodResponse	0	n/a	n/a	3	13	Fixation	Neutral	True
137.676	0.27	Control	1.0	0.004	Yes	2.77	-0.004	2.0	GoodResponse	0	0.246	136.922	3	13	Target	Neutral	True
137.922	0.3	Control	1.0	0.004	Yes	2.77	-0.004	2.0	GoodResponse	0	0.246	n/a	3	13	ButtonPress	Neutral	True
137.961	0.43	Control	1.0	n/a	Yes	2.77	n/a	n/a	GoodResponse	0	n/a	n/a	3	13	Blank	Neutral	True
138.378	1.45	Control	1.0	n/a	Yes	2.77	n/a	5.0	GoodResponse	0	0.034	137.412	3	13	Feedback	Neutral	True
139.833	2.77	Control	1.0	n/a	Yes	2.77	n/a	n/a	GoodResponse	0	0.0	n/a	3	13	ISIslide	Neutral	True
142.624	0.25	Win2	1.0	0.001	Yes	2.676	0.024	n/a	GoodResponse	1	n/a	n/a	4	14	Cue	Win	True
142.875	4.1	Win2	1.0	0.0	Yes	2.676	0.001	n/a	GoodResponse	1	n/a	n/a	4	14	Fixation	Win	True
146.971	0.26	Win2	1.0	0.003	Yes	2.676	-0.003	2.0	GoodResponse	1	0.217	146.188	4	14	Target	Win	True
147.188	0.3	Win2	1.0	0.003	Yes	2.676	-0.003	2.0	GoodResponse	1	0.217	n/a	4	14	ButtonPress	Win	True
147.238	0.44	Win2	1.0	n/a	Yes	2.676	n/a	n/a	GoodResponse	1	n/a	n/a	4	14	Blank	Win	True
147.673	1.45	Win2	1.0	n/a	Yes	2.676	n/a	5.0	GoodResponse	1	0.007	146.68	4	14	Feedback	Win	True
149.127	2.676	Win2	1.0	n/a	Yes	2.676	n/a	n/a	GoodResponse	1	0.0	n/a	4	14	ISIslide	Win	True
151.819	0.25	Control	1.0	0.0	Yes	2.981	0.019	n/a	GoodResponse	0	n/a	n/a	4	15	Cue	Neutral	True
152.069	4.0	Control	1.0	0.0	Yes	2.981	0.0	n/a	GoodResponse	0	n/a	n/a	4	15	Fixation	Neutral	True
156.065	0.25	Control	1.0	0.004	Yes	2.981	-0.004	2.0	GoodResponse	0	0.247	155.312	4	15	Target	Neutral	True
156.312	0.3	Control	1.0	0.004	Yes	2.981	-0.004	2.0	GoodResponse	0	0.247	n/a	4	15	ButtonPress	Neutral	True
156.315	0.45	Control	1.0	n/a	Yes	2.981	n/a	n/a	GoodResponse	0	n/a	n/a	4	15	Blank	Neutral	True
156.767	1.45	Control	1.0	n/a	Yes	2.981	n/a	5.0	GoodResponse	0	0.035	155.802	4	15	Feedback	Neutral	True
158.221	2.981	Control	1.0	n/a	Yes	2.981	n/a	n/a	GoodResponse	0	0.0	n/a	4	15	ISIslide	Neutral	True
161.23	0.25	Win2	1.0	0.0	Yes	2.87	0.03	n/a	GoodResponse	1	n/a	n/a	5	16	Cue	Win	True
161.481	4.0	Win2	1.0	0.0	Yes	2.87	0.001	n/a	GoodResponse	1	n/a	n/a	5	16	Fixation	Win	True
165.476	0.24	Win2	1.0	0.004	Yes	2.87	-0.004	2.0	GoodResponse	1	0.145	164.621	5	16	Target	Win	True
165.621	0.3	Win2	1.0	0.004	Yes	2.87	-0.004	2.0	GoodResponse	1	0.145	n/a	5	16	ButtonPress	Win	True
165.727	0.46	Win2	1.0	n/a	Yes	2.87	n/a	n/a	GoodResponse	1	n/a	n/a	5	16	Blank	Win	True
166.178	1.45	Win2	1.0	n/a	Yes	2.87	n/a	5.0	GoodResponse	1	0.039	165.217	5	16	Feedback	Win	True
167.633	2.87	Win2	1.0	n/a	Yes	2.87	n/a	n/a	GoodResponse	1	0.0	n/a	5	16	ISIslide	Win	True
170.525	0.25	Lose2	0.9444	0.0	No	2.725	0.025	n/a	NoResponse	-1	n/a	n/a	4	17	Cue	Loss	True
170.775	3.95	Lose2	0.9444	0.0	No	2.725	0.0	n/a	NoResponse	-1	n/a	n/a	4	17	Fixation	Loss	True
174.737	0.23	Lose2	0.9444	0.0	No	2.725	0.012	2.0	NoResponse	-1	0.24	173.977	4	17	Target	Loss	True
174.954	0.47	Lose2	0.9444	n/a	No	2.725	n/a	n/a	NoResponse	-1	n/a	n/a	4	17	Blank	Loss	True
174.977	0.3	Lose2	0.9444	0.0	No	2.725	0.012	2.0	NoResponse	-1	0.24	n/a	4	17	ButtonPress	Loss	True
175.423	1.45	Lose2	0.9444	n/a	No	2.725	n/a	5.0	NoResponse	-1	0.012	174.435	4	17	Feedback	Loss	True
176.877	2.725	Lose2	0.9444	n/a	No	2.725	n/a	n/a	NoResponse	-1	0.0	n/a	4	17	ISIslide	Loss	True
179.618	0.25	Lose2	0.9473999999999999	0.0	Yes	2.732	0.018	n/a	GoodResponse	0	n/a	n/a	4	18	Cue	AvoidedLoss	True
179.869	4.05	Lose2	0.9473999999999999	0.0	Yes	2.732	0.001	n/a	GoodResponse	0	n/a	n/a	4	18	Fixation	AvoidedLoss	True
183.915	0.22	Lose2	0.9473999999999999	0.003	Yes	2.732	-0.003	2.0	GoodResponse	0	0.145	183.06	4	18	Target	AvoidedLoss	True
184.06	0.3	Lose2	0.9473999999999999	0.003	Yes	2.732	-0.003	2.0	GoodResponse	0	0.145	n/a	4	18	ButtonPress	AvoidedLoss	True
184.149	0.48	Lose2	0.9473999999999999	n/a	Yes	2.732	n/a	n/a	GoodResponse	0	n/a	n/a	4	18	Blank	AvoidedLoss	True
184.617	1.45	Lose2	0.9473999999999999	n/a	Yes	2.732	n/a	5.0	GoodResponse	0	0.038	183.655	4	18	Feedback	AvoidedLoss	True
186.071	2.732	Lose2	0.9473999999999999	n/a	Yes	2.732	n/a	n/a	GoodResponse	0	0.0	n/a	4	18	ISIslide	AvoidedLoss	True
188.829	0.25	Control	0.9	0.0	No	2.921	0.029	n/a	NoResponse	0	n/a	n/a	4	19	Cue	Neutral	True
189.08	3.95	Control	0.9	0.0	No	2.921	0.001	n/a	NoResponse	0	n/a	n/a	4	19	Fixation	Neutral	True
193.025	0.21	Control	0.9	0.004	No	2.921	-0.004	2.0	NoResponse	0	0.234	192.259	4	19	Target	Neutral	True
193.242	0.49	Control	0.9	n/a	No	2.921	n/a	n/a	NoResponse	0	n/a	n/a	4	19	Blank	Neutral	True
193.259	0.3	Control	0.9	0.004	No	2.921	-0.004	2.0	NoResponse	0	0.234	n/a	4	19	ButtonPress	Neutral	True
193.727	1.45	Control	0.9	n/a	No	2.921	n/a	5.0	NoResponse	0	0.001	192.728	4	19	Feedback	Neutral	True
195.182	2.921	Control	0.9	n/a	No	2.921	n/a	n/a	NoResponse	0	0.0	n/a	4	19	ISIslide	Neutral	True
198.124	0.25	Control	0.8571	0.0	No	2.626	0.024	n/a	PrematurePress	0	n/a	n/a	4	20	Cue	Neutral	True
198.374	4.05	Control	0.8571	0.001	No	2.626	0.0	n/a	PrematurePress	0	n/a	n/a	4	20	Fixation	Neutral	True
202.42	0.2	Control	0.8571	0.004	No	2.626	-0.004	2.0	PrematurePress	0	0.037	201.457	4	20	Target	Neutral	True
202.457	0.3	Control	0.8571	0.004	No	2.626	-0.004	2.0	PrematurePress	0	0.037	n/a	4	20	ButtonPress	Neutral	True
202.621	0.5	Control	0.8571	n/a	No	2.626	n/a	n/a	PrematurePress	0	n/a	n/a	4	20	Blank	Neutral	True
203.122	1.45	Control	0.8571	n/a	No	2.626	n/a	5.0	PrematurePress	0	0.021	202.143	4	20	Feedback	Neutral	True
204.576	2.626	Control	0.8571	n/a	No	2.626	n/a	n/a	PrematurePress	0	0.0	n/a	4	20	ISIslide	Neutral	True
207.218	0.25	Control	0.8181999999999999	0.0	No	2.782	0.018	n/a	NoResponse	0	n/a	n/a	4	21	Cue	Neutral	True
207.468	4.1	Control	0.8181999999999999	0.0	No	2.782	0.0	n/a	NoResponse	0	n/a	n/a	4	21	Fixation	Neutral	True
211.564	0.19	Control	0.8181999999999999	0.004	No	2.782	-0.004	2.0	NoResponse	0	0.325	210.889	4	21	Target	Neutral	True
211.765	0.51	Control	0.8181999999999999	n/a	No	2.782	n/a	n/a	NoResponse	0	n/a	n/a	4	21	Blank	Neutral	True
211.889	0.3	Control	0.8181999999999999	0.004	No	2.782	-0.004	2.0	NoResponse	0	0.325	n/a	4	21	ButtonPress	Neutral	True
212.266	1.45	Control	0.8181999999999999	n/a	No	2.782	n/a	5.0	NoResponse	0	0.048	211.314	4	21	Feedback	Neutral	True
213.72	2.782	Control	0.8181999999999999	n/a	No	2.782	n/a	n/a	NoResponse	0	0.0	n/a	4	21	ISIslide	Neutral	True
216.529	0.25	Control	0.7826000000000001	0.0	No	2.771	0.029	n/a	NoResponse	0	n/a	n/a	4	22	Cue	Neutral	True
216.78	4.0	Control	0.7826000000000001	0.0	No	2.771	0.001	n/a	NoResponse	0	n/a	n/a	4	22	Fixation	Neutral	True
220.775	0.18	Control	0.7826000000000001	0.004	No	2.771	-0.004	2.0	NoResponse	0	0.282	220.057	4	22	Target	Neutral	True
220.959	0.52	Control	0.7826000000000001	n/a	No	2.771	n/a	n/a	NoResponse	0	n/a	n/a	4	22	Blank	Neutral	True
221.057	0.3	Control	0.7826000000000001	0.004	No	2.771	-0.004	2.0	NoResponse	0	0.282	n/a	4	22	ButtonPress	Neutral	True
221.477	1.45	Control	0.7826000000000001	n/a	No	2.771	n/a	5.0	NoResponse	0	0.007	220.484	4	22	Feedback	Neutral	True
222.931	2.771	Control	0.7826000000000001	n/a	No	2.771	n/a	n/a	NoResponse	0	0.0	n/a	4	22	ISIslide	Neutral	True
225.723	0.25	Control	0.75	0.0	No	2.777	0.023	n/a	NoResponse	0	n/a	n/a	4	23	Cue	Neutral	True
225.974	3.9	Control	0.75	0.0	No	2.777	0.001	n/a	NoResponse	0	n/a	n/a	4	23	Fixation	Neutral	True
229.869	0.17	Control	0.75	0.004	No	2.777	-0.004	2.0	NoResponse	0	0.234	229.103	4	23	Target	Neutral	True
230.053	0.53	Control	0.75	n/a	No	2.777	n/a	n/a	NoResponse	0	n/a	n/a	4	23	Blank	Neutral	True
230.103	0.3	Control	0.75	0.004	No	2.777	-0.004	2.0	NoResponse	0	0.234	n/a	4	23	ButtonPress	Neutral	True
230.571	1.45	Control	0.75	n/a	No	2.777	n/a	5.0	NoResponse	0	0.035	229.606	4	23	Feedback	Neutral	True
232.025	2.777	Control	0.75	n/a	No	2.777	n/a	n/a	NoResponse	0	0.0	n/a	4	23	ISIslide	Neutral	True
234.817	0.25	Win2	0.72	0.0	No	3.133	0.017	n/a	NoResponse	0	n/a	n/a	4	24	Cue	MissedWin	True
235.068	3.95	Win2	0.72	0.0	No	3.133	0.001	n/a	NoResponse	0	n/a	n/a	4	24	Fixation	MissedWin	True
239.013	0.16	Win2	0.72	0.004	No	3.133	-0.004	2.0	NoResponse	0	0.175	238.188	4	24	Target	MissedWin	True
239.18	0.54	Win2	0.72	n/a	No	3.133	n/a	n/a	NoResponse	0	n/a	n/a	4	24	Blank	MissedWin	True
239.188	0.3	Win2	0.72	0.004	No	3.133	-0.004	2.0	NoResponse	0	0.175	n/a	4	24	ButtonPress	MissedWin	True
239.715	1.45	Win2	0.72	n/a	No	3.133	n/a	5.0	NoResponse	0	0.013	238.728	4	24	Feedback	MissedWin	True
241.169	3.133	Win2	0.72	n/a	No	3.133	n/a	n/a	NoResponse	0	0.0	n/a	4	24	ISIslide	MissedWin	True
244.329	0.25	Win2	0.6923	0.0	No	3.071	0.029	n/a	NoResponse	0	n/a	n/a	4	25	Cue	MissedWin	True
244.579	4.0	Win2	0.6923	0.0	No	3.071	0.0	n/a	NoResponse	0	n/a	n/a	4	25	Fixation	MissedWin	True
248.575	0.15	Win2	0.6923	0.004	No	3.071	-0.004	2.0	NoResponse	0	0.201	247.776	4	25	Target	MissedWin	True
248.725	0.55	Win2	0.6923	n/a	No	3.071	n/a	n/a	NoResponse	0	n/a	n/a	4	25	Blank	MissedWin	True
248.776	0.3	Win2	0.6923	0.004	No	3.071	-0.004	2.0	NoResponse	0	0.201	n/a	4	25	ButtonPress	MissedWin	True
249.277	1.45	Win2	0.6923	n/a	No	3.071	n/a	5.0	NoResponse	0	0.012	248.289	4	25	Feedback	MissedWin	True
250.731	3.071	Win2	0.6923	n/a	No	3.071	n/a	n/a	NoResponse	0	0.0	n/a	4	25	ISIslide	MissedWin	True
253.824	0.25	Win2	0.6667000000000001	0.0	No	2.926	0.024	n/a	NoResponse	0	n/a	n/a	4	26	Cue	MissedWin	True
254.074	3.95	Win2	0.6667000000000001	0.0	No	2.926	0.0	n/a	NoResponse	0	n/a	n/a	4	26	Fixation	MissedWin	True
258.019	0.15	Win2	0.6667000000000001	0.005	No	2.926	-0.005	2.0	NoResponse	0	0.303	257.322	4	26	Target	MissedWin	True
258.17	0.55	Win2	0.6667000000000001	n/a	No	2.926	n/a	n/a	NoResponse	0	n/a	n/a	4	26	Blank	MissedWin	True
258.322	0.3	Win2	0.6667000000000001	0.005	No	2.926	-0.005	2.0	NoResponse	0	0.303	n/a	4	26	ButtonPress	MissedWin	True
258.722	1.45	Win2	0.6667000000000001	n/a	No	2.926	n/a	5.0	NoResponse	0	0.03	257.752	4	26	Feedback	MissedWin	True
260.176	2.926	Win2	0.6667000000000001	n/a	No	2.926	n/a	n/a	NoResponse	0	0.0	n/a	4	26	ISIslide	MissedWin	True
263.118	0.25	Lose2	0.6429	0.0	No	2.832	0.018	n/a	NoResponse	-1	n/a	n/a	3	27	Cue	Loss	True
263.369	4.05	Lose2	0.6429	0.0	No	2.832	0.001	n/a	NoResponse	-1	n/a	n/a	3	27	Fixation	Loss	True
267.414	0.15	Lose2	0.6429	0.004	No	2.832	-0.004	2.0	NoResponse	-1	0.224	266.638	3	27	Target	Loss	True
267.565	0.55	Lose2	0.6429	n/a	No	2.832	n/a	n/a	NoResponse	-1	n/a	n/a	3	27	Blank	Loss	True
267.638	0.3	Lose2	0.6429	0.004	No	2.832	-0.004	2.0	NoResponse	-1	0.224	n/a	3	27	ButtonPress	Loss	True
268.116	1.45	Lose2	0.6429	n/a	No	2.832	n/a	5.0	NoResponse	-1	0.001	267.117	3	27	Feedback	Loss	True
269.571	2.832	Lose2	0.6429	n/a	No	2.832	n/a	n/a	NoResponse	-1	0.0	n/a	3	27	ISIslide	Loss	True
272.429	0.25	Control	0.6207	0.0	No	2.821	0.029	n/a	NoResponse	0	n/a	n/a	3	28	Cue	Neutral	True
272.68	4.05	Control	0.6207	0.0	No	2.821	0.001	n/a	NoResponse	0	n/a	n/a	3	28	Fixation	Neutral	True
276.725	0.16	Control	0.6207	0.004	No	2.821	-0.004	2.0	NoResponse	0	0.376	276.101	3	28	Target	Neutral	True
276.893	0.54	Control	0.6207	n/a	No	2.821	n/a	n/a	NoResponse	0	n/a	n/a	3	28	Blank	Neutral	True
277.101	0.3	Control	0.6207	0.004	No	2.821	-0.004	2.0	NoResponse	0	0.376	n/a	3	28	ButtonPress	Neutral	True
277.428	1.45	Control	0.6207	n/a	No	2.821	n/a	5.0	NoResponse	0	0.006	276.434	3	28	Feedback	Neutral	True
278.882	2.821	Control	0.6207	n/a	No	2.821	n/a	n/a	NoResponse	0	0.0	n/a	3	28	ISIslide	Neutral	True
281.724	0.25	Lose2	0.6	0.0	No	2.826	0.024	n/a	NoResponse	-1	n/a	n/a	2	29	Cue	Loss	True
281.974	3.95	Lose2	0.6	0.001	No	2.826	0.0	n/a	NoResponse	-1	n/a	n/a	2	29	Fixation	Loss	True
285.92	0.17	Lose2	0.6	0.004	No	2.826	-0.004	2.0	NoResponse	-1	0.197	285.117	2	29	Target	Loss	True
286.103	0.53	Lose2	0.6	n/a	No	2.826	n/a	n/a	NoResponse	-1	n/a	n/a	2	29	Blank	Loss	True
286.117	0.3	Lose2	0.6	0.004	No	2.826	-0.004	2.0	NoResponse	-1	0.197	n/a	2	29	ButtonPress	Loss	True
286.622	1.45	Lose2	0.6	n/a	No	2.826	n/a	5.0	NoResponse	-1	0.032	285.654	2	29	Feedback	Loss	True
288.076	2.826	Lose2	0.6	n/a	No	2.826	n/a	n/a	NoResponse	-1	0.0	n/a	2	29	ISIslide	Loss	True
290.918	0.25	Win2	0.5806	0.0	No	2.782	0.018	n/a	NoResponse	0	n/a	n/a	2	30	Cue	MissedWin	False
291.169	3.9	Win2	0.5806	0.0	No	2.782	0.001	2.0	NoResponse	0	3.67	293.839	2	30	Fixation	MissedWin	False
294.839	0.3	Win2	0.5806	0.0	No	2.782	0.001	2.0	NoResponse	0	3.67	n/a	2	30	ButtonPress	MissedWin	False
295.064	0.18	Win2	0.5806	0.004	No	2.782	-0.004	2.0	NoResponse	0	0.192	294.256	2	30	Target	MissedWin	False
295.247	0.52	Win2	0.5806	n/a	No	2.782	n/a	n/a	NoResponse	0	n/a	n/a	2	30	Blank	MissedWin	False
295.256	0.3	Win2	0.5806	0.004	No	2.782	-0.004	2.0	NoResponse	0	0.192	n/a	2	30	ButtonPress	MissedWin	False
295.766	1.45	Win2	0.5806	n/a	No	2.782	n/a	5.0	NoResponse	0	0.01	294.776	2	30	Feedback	MissedWin	False
297.22	2.782	Win2	0.5806	n/a	No	2.782	n/a	n/a	NoResponse	0	0.0	n/a	2	30	ISIslide	MissedWin	False
300.028	0.25	Lose2	0.5938	0.0	Yes	2.822	0.028	n/a	GoodResponse	0	n/a	n/a	2	31	Cue	AvoidedLoss	True
300.279	4.05	Lose2	0.5938	0.0	Yes	2.822	0.001	n/a	GoodResponse	0	n/a	n/a	2	31	Fixation	AvoidedLoss	True
304.325	0.19	Lose2	0.5938	0.003	Yes	2.822	-0.003	2.0	GoodResponse	0	0.184	303.509	2	31	Target	AvoidedLoss	True
304.509	0.3	Lose2	0.5938	0.003	Yes	2.822	-0.003	2.0	GoodResponse	0	0.184	n/a	2	31	ButtonPress	AvoidedLoss	True
304.525	0.51	Lose2	0.5938	n/a	Yes	2.822	n/a	n/a	GoodResponse	0	n/a	n/a	2	31	Blank	AvoidedLoss	True
305.027	1.45	Lose2	0.5938	n/a	Yes	2.822	n/a	5.0	GoodResponse	0	0.017	304.044	2	31	Feedback	AvoidedLoss	True
306.481	2.822	Lose2	0.5938	n/a	Yes	2.822	n/a	n/a	GoodResponse	0	0.0	n/a	2	31	ISIslide	AvoidedLoss	True
309.323	0.25	Lose2	0.5758	0.0	No	2.627	0.023	n/a	PrematurePress	-1	n/a	n/a	1	32	Cue	Loss	True
309.574	4.15	Lose2	0.5758	0.0	No	2.627	0.001	n/a	PrematurePress	-1	n/a	n/a	1	32	Fixation	Loss	True
313.719	0.2	Lose2	0.5758	0.004	No	2.627	-0.004	2.0	PrematurePress	-1	0.082	312.801	1	32	Target	Loss	True
313.801	0.3	Lose2	0.5758	0.004	No	2.627	-0.004	2.0	PrematurePress	-1	0.082	n/a	1	32	ButtonPress	Loss	True
313.92	0.5	Lose2	0.5758	n/a	No	2.627	n/a	n/a	PrematurePress	-1	n/a	n/a	1	32	Blank	Loss	True
314.421	1.45	Lose2	0.5758	n/a	No	2.627	n/a	5.0	PrematurePress	-1	0.037	313.458	1	32	Feedback	Loss	True
315.876	2.627	Lose2	0.5758	n/a	No	2.627	n/a	n/a	PrematurePress	-1	0.0	n/a	1	32	ISIslide	Loss	True
318.517	0.25	Win2	0.5882000000000001	0.0	Yes	2.683	0.017	n/a	GoodResponse	1	n/a	n/a	2	33	Cue	Win	True
318.768	4.0	Win2	0.5882000000000001	0.0	Yes	2.683	0.001	n/a	GoodResponse	1	n/a	n/a	2	33	Fixation	Win	True
322.763	0.21	Win2	0.5882000000000001	0.004	Yes	2.683	-0.004	2.0	GoodResponse	1	0.205	321.968	2	33	Target	Win	True
322.968	0.3	Win2	0.5882000000000001	0.004	Yes	2.683	-0.004	2.0	GoodResponse	1	0.205	n/a	2	33	ButtonPress	Win	True
322.98	0.49	Win2	0.5882000000000001	n/a	Yes	2.683	n/a	n/a	GoodResponse	1	n/a	n/a	2	33	Blank	Win	True
323.465	1.45	Win2	0.5882000000000001	n/a	Yes	2.683	n/a	5.0	GoodResponse	1	0.018	322.483	2	33	Feedback	Win	True
324.92	2.683	Win2	0.5882000000000001	n/a	Yes	2.683	n/a	n/a	GoodResponse	1	0.0	n/a	2	33	ISIslide	Win	True
327.628	0.25	Lose2	0.6	0.0	Yes	2.622	0.028	n/a	GoodResponse	0	n/a	n/a	2	34	Cue	AvoidedLoss	True
327.878	4.05	Lose2	0.6	0.0	Yes	2.622	0.0	n/a	GoodResponse	0	n/a	n/a	2	34	Fixation	AvoidedLoss	True
331.924	0.22	Lose2	0.6	0.004	Yes	2.622	-0.004	2.0	GoodResponse	0	0.196	331.12	2	34	Target	AvoidedLoss	True
332.12	0.3	Lose2	0.6	0.004	Yes	2.622	-0.004	2.0	GoodResponse	0	0.196	n/a	2	34	ButtonPress	AvoidedLoss	True
332.158	0.48	Lose2	0.6	n/a	Yes	2.622	n/a	n/a	GoodResponse	0	n/a	n/a	2	34	Blank	AvoidedLoss	True
332.626	1.45	Lose2	0.6	n/a	Yes	2.622	n/a	5.0	GoodResponse	0	0.028	331.654	2	34	Feedback	AvoidedLoss	True
334.08	2.622	Lose2	0.6	n/a	Yes	2.622	n/a	n/a	GoodResponse	0	0.0	n/a	2	34	ISIslide	AvoidedLoss	True
336.721	0.25	Lose2	0.6111	0.001	Yes	2.679	0.021	n/a	GoodResponse	0	n/a	n/a	2	35	Cue	AvoidedLoss	True
336.972	4.0	Lose2	0.6111	0.0	Yes	2.679	0.001	n/a	GoodResponse	0	n/a	n/a	2	35	Fixation	AvoidedLoss	True
340.967	0.23	Lose2	0.6111	0.004	Yes	2.679	-0.004	2.0	GoodResponse	0	0.195	340.162	2	35	Target	AvoidedLoss	True
341.162	0.3	Lose2	0.6111	0.004	Yes	2.679	-0.004	2.0	GoodResponse	0	0.195	n/a	2	35	ButtonPress	AvoidedLoss	True
341.202	0.47	Lose2	0.6111	n/a	Yes	2.679	n/a	n/a	GoodResponse	0	n/a	n/a	2	35	Blank	AvoidedLoss	True
341.67	1.45	Lose2	0.6111	n/a	Yes	2.679	n/a	5.0	GoodResponse	0	0.008	340.678	2	35	Feedback	AvoidedLoss	True
343.124	2.679	Lose2	0.6111	n/a	Yes	2.679	n/a	n/a	GoodResponse	0	0.0	n/a	2	35	ISIslide	AvoidedLoss	True
345.815	0.25	Control	0.6215999999999999	0.0	Yes	2.685	0.015	n/a	GoodResponse	0	n/a	n/a	2	36	Cue	Neutral	True
346.066	4.0	Control	0.6215999999999999	0.0	Yes	2.685	0.001	n/a	GoodResponse	0	n/a	n/a	2	36	Fixation	Neutral	True
350.061	0.24	Control	0.6215999999999999	0.004	Yes	2.685	-0.004	2.0	GoodResponse	0	0.214	349.275	2	36	Target	Neutral	True
350.275	0.3	Control	0.6215999999999999	0.004	Yes	2.685	-0.004	2.0	GoodResponse	0	0.214	n/a	2	36	ButtonPress	Neutral	True
350.312	0.46	Control	0.6215999999999999	n/a	Yes	2.685	n/a	n/a	GoodResponse	0	n/a	n/a	2	36	Blank	Neutral	True
350.763	1.45	Control	0.6215999999999999	n/a	Yes	2.685	n/a	5.0	GoodResponse	0	0.036	349.799	2	36	Feedback	Neutral	True
352.218	2.685	Control	0.6215999999999999	n/a	Yes	2.685	n/a	n/a	GoodResponse	0	0.0	n/a	2	36	ISIslide	Neutral	True
354.926	0.25	Win2	0.6315999999999999	0.0	Yes	2.874	0.026	n/a	GoodResponse	1	n/a	n/a	3	37	Cue	Win	True
355.177	4.0	Win2	0.6315999999999999	0.0	Yes	2.874	0.001	n/a	GoodResponse	1	n/a	n/a	3	37	Fixation	Win	True
359.172	0.25	Win2	0.6315999999999999	0.004	Yes	2.874	-0.004	2.0	GoodResponse	1	0.219	358.391	3	37	Target	Win	True
359.391	0.3	Win2	0.6315999999999999	0.004	Yes	2.874	-0.004	2.0	GoodResponse	1	0.219	n/a	3	37	ButtonPress	Win	True
359.423	0.45	Win2	0.6315999999999999	n/a	Yes	2.874	n/a	n/a	GoodResponse	1	n/a	n/a	3	37	Blank	Win	True
359.874	1.45	Win2	0.6315999999999999	n/a	Yes	2.874	n/a	5.0	GoodResponse	1	0.047	358.921	3	37	Feedback	Win	True
361.328	2.874	Win2	0.6315999999999999	n/a	Yes	2.874	n/a	n/a	GoodResponse	1	0.0	n/a	3	37	ISIslide	Win	True
364.22	0.25	Lose2	0.6154	0.0	No	2.83	0.02	n/a	NoResponse	-1	n/a	n/a	2	38	Cue	Loss	True
364.471	3.95	Lose2	0.6154	0.0	No	2.83	0.001	n/a	NoResponse	-1	n/a	n/a	2	38	Fixation	Loss	True
368.416	0.26	Lose2	0.6154	0.004	No	2.83	-0.004	2.0	NoResponse	-1	0.282	367.698	2	38	Target	Loss	True
368.684	0.44	Lose2	0.6154	n/a	No	2.83	n/a	n/a	NoResponse	-1	n/a	n/a	2	38	Blank	Loss	True
368.698	0.3	Lose2	0.6154	0.004	No	2.83	-0.004	2.0	NoResponse	-1	0.282	n/a	2	38	ButtonPress	Loss	True
369.118	1.45	Lose2	0.6154	n/a	No	2.83	n/a	5.0	NoResponse	-1	0.023	368.141	2	38	Feedback	Loss	True
370.573	2.83	Lose2	0.6154	n/a	No	2.83	n/a	n/a	NoResponse	-1	0.0	n/a	2	38	ISIslide	Loss	True
373.431	0.25	Win2	0.625	0.0	Yes	2.969	0.031	n/a	GoodResponse	1	n/a	n/a	3	39	Cue	Win	True
373.682	4.1	Win2	0.625	0.0	Yes	2.969	0.001	n/a	GoodResponse	1	n/a	n/a	3	39	Fixation	Win	True
377.778	0.27	Win2	0.625	0.003	Yes	2.969	-0.003	2.0	GoodResponse	1	0.117	376.895	3	39	Target	Win	True
377.895	0.3	Win2	0.625	0.003	Yes	2.969	-0.003	2.0	GoodResponse	1	0.117	n/a	3	39	ButtonPress	Win	True
378.062	0.43	Win2	0.625	n/a	Yes	2.969	n/a	n/a	GoodResponse	1	n/a	n/a	3	39	Blank	Win	True
378.48	1.45	Win2	0.625	n/a	Yes	2.969	n/a	5.0	GoodResponse	1	0.027	377.507	3	39	Feedback	Win	True
379.934	2.969	Win2	0.625	n/a	Yes	2.969	n/a	n/a	GoodResponse	1	0.0	n/a	3	39	ISIslide	Win	True
382.926	0.25	Win2	0.6341	0.0	Yes	2.724	0.026	n/a	GoodResponse	1	n/a	n/a	4	40	Cue	Win	True
383.177	3.95	Win2	0.6341	0.0	Yes	2.724	0.001	n/a	GoodResponse	1	n/a	n/a	4	40	Fixation	Win	True
387.122	0.28	Win2	0.6341	0.004	Yes	2.724	-0.004	2.0	GoodResponse	1	0.194	386.316	4	40	Target	Win	True
387.316	0.3	Win2	0.6341	0.004	Yes	2.724	-0.004	2.0	GoodResponse	1	0.194	n/a	4	40	ButtonPress	Win	True
387.406	0.42	Win2	0.6341	n/a	Yes	2.724	n/a	n/a	GoodResponse	1	n/a	n/a	4	40	Blank	Win	True
387.824	1.45	Win2	0.6341	n/a	Yes	2.724	n/a	5.0	GoodResponse	1	0.048	386.872	4	40	Feedback	Win	True
389.279	2.724	Win2	0.6341	n/a	Yes	2.724	n/a	n/a	GoodResponse	1	0.0	n/a	4	40	ISIslide	Win	True
392.02	0.25	Win2	0.6429	0.0	Yes	2.78	0.02	n/a	GoodResponse	1	n/a	n/a	5	41	Cue	Win	True
392.271	3.9	Win2	0.6429	0.0	Yes	2.78	0.001	n/a	GoodResponse	1	n/a	n/a	5	41	Fixation	Win	True
396.166	0.29	Win2	0.6429	0.004	Yes	2.78	-0.004	2.0	GoodResponse	1	0.229	395.395	5	41	Target	Win	True
396.395	0.3	Win2	0.6429	0.004	Yes	2.78	-0.004	2.0	GoodResponse	1	0.229	n/a	5	41	ButtonPress	Win	True
396.467	0.41	Win2	0.6429	n/a	Yes	2.78	n/a	n/a	GoodResponse	1	n/a	n/a	5	41	Blank	Win	True
396.868	1.45	Win2	0.6429	n/a	Yes	2.78	n/a	5.0	GoodResponse	1	0.028	395.896	5	41	Feedback	Win	True
398.322	2.78	Win2	0.6429	n/a	Yes	2.78	n/a	n/a	GoodResponse	1	0.0	n/a	5	41	ISIslide	Win	True
401.114	0.25	Control	0.6512	0.0	Yes	2.936	0.014	n/a	GoodResponse	0	n/a	n/a	5	42	Cue	Neutral	True
401.365	3.85	Control	0.6512	0.0	Yes	2.936	0.001	n/a	GoodResponse	0	n/a	n/a	5	42	Fixation	Neutral	True
405.21	0.3	Control	0.6512	0.004	Yes	2.936	-0.004	2.0	GoodResponse	0	0.284	404.494	5	42	Target	Neutral	True
405.494	0.3	Control	0.6512	0.004	Yes	2.936	-0.004	2.0	GoodResponse	0	0.284	n/a	5	42	ButtonPress	Neutral	True
405.51	0.4	Control	0.6512	n/a	Yes	2.936	n/a	n/a	GoodResponse	0	n/a	n/a	5	42	Blank	Neutral	True
405.912	1.45	Control	0.6512	n/a	Yes	2.936	n/a	5.0	GoodResponse	0	0.009	404.921	5	42	Feedback	Neutral	True
407.366	2.936	Control	0.6512	n/a	Yes	2.936	n/a	n/a	GoodResponse	0	0.0	n/a	5	42	ISIslide	Neutral	True
410.325	0.25	Win2	0.6591	0.0	Yes	3.175	0.025	n/a	GoodResponse	1	n/a	n/a	6	43	Cue	Win	True
410.576	4.0	Win2	0.6591	0.0	Yes	3.175	0.001	n/a	GoodResponse	1	n/a	n/a	6	43	Fixation	Win	True
414.571	0.31	Win2	0.6591	0.004	Yes	3.175	-0.004	2.0	GoodResponse	1	0.181	413.752	6	43	Target	Win	True
414.752	0.3	Win2	0.6591	0.004	Yes	3.175	-0.004	2.0	GoodResponse	1	0.181	n/a	6	43	ButtonPress	Win	True
414.889	0.39	Win2	0.6591	n/a	Yes	3.175	n/a	n/a	GoodResponse	1	n/a	n/a	6	43	Blank	Win	True
415.273	1.45	Win2	0.6591	n/a	Yes	3.175	n/a	5.0	GoodResponse	1	0.014	414.287	6	43	Feedback	Win	True
416.727	3.175	Win2	0.6591	n/a	Yes	3.175	n/a	n/a	GoodResponse	1	0.0	n/a	6	43	ISIslide	Win	True
419.92	0.25	Win2	0.6667000000000001	0.0	Yes	2.98	0.02	n/a	GoodResponse	1	n/a	n/a	7	44	Cue	Win	True
420.171	4.0	Win2	0.6667000000000001	0.0	Yes	2.98	0.001	n/a	GoodResponse	1	n/a	n/a	7	44	Fixation	Win	True
424.166	0.31	Win2	0.6667000000000001	0.004	Yes	2.98	-0.004	2.0	GoodResponse	1	0.2	423.366	7	44	Target	Win	True
424.366	0.3	Win2	0.6667000000000001	0.004	Yes	2.98	-0.004	2.0	GoodResponse	1	0.2	n/a	7	44	ButtonPress	Win	True
424.484	0.39	Win2	0.6667000000000001	n/a	Yes	2.98	n/a	n/a	GoodResponse	1	n/a	n/a	7	44	Blank	Win	True
424.868	1.45	Win2	0.6667000000000001	n/a	Yes	2.98	n/a	5.0	GoodResponse	1	0.029	423.897	7	44	Feedback	Win	True
426.323	2.98	Win2	0.6667000000000001	n/a	Yes	2.98	n/a	n/a	GoodResponse	1	0.0	n/a	7	44	ISIslide	Win	True
429.315	0.25	Control	0.6739	0.0	Yes	2.885	0.015	n/a	GoodResponse	0	n/a	n/a	7	45	Cue	Neutral	True
429.566	4.1	Control	0.6739	0.0	Yes	2.885	0.001	n/a	GoodResponse	0	n/a	n/a	7	45	Fixation	Neutral	True
433.661	0.3	Control	0.6739	0.004	Yes	2.885	-0.004	2.0	GoodResponse	0	0.273	432.934	7	45	Target	Neutral	True
433.934	0.3	Control	0.6739	0.004	Yes	2.885	-0.004	2.0	GoodResponse	0	0.273	n/a	7	45	ButtonPress	Neutral	True
433.962	0.4	Control	0.6739	n/a	Yes	2.885	n/a	n/a	GoodResponse	0	n/a	n/a	7	45	Blank	Neutral	True
434.363	1.45	Control	0.6739	n/a	Yes	2.885	n/a	5.0	GoodResponse	0	0.045	433.408	7	45	Feedback	Neutral	True
435.818	2.885	Control	0.6739	n/a	Yes	2.885	n/a	n/a	GoodResponse	0	0.0	n/a	7	45	ISIslide	Neutral	True
438.726	0.25	Lose2	0.6809000000000001	0.001	Yes	3.374	0.026	n/a	GoodResponse	0	n/a	n/a	7	46	Cue	AvoidedLoss	False
438.977	4.0	Lose2	0.6809000000000001	0.0	Yes	3.374	0.001	2.0	GoodResponse	0	3.192	441.169	7	46	Fixation	AvoidedLoss	False
442.169	0.3	Lose2	0.6809000000000001	0.0	Yes	3.374	0.001	2.0	GoodResponse	0	3.192	n/a	7	46	ButtonPress	AvoidedLoss	False
442.972	0.29	Lose2	0.6809000000000001	0.004	Yes	3.374	-0.004	2.0	GoodResponse	0	0.264	442.236	7	46	Target	AvoidedLoss	False
443.236	0.3	Lose2	0.6809000000000001	0.004	Yes	3.374	-0.004	2.0	GoodResponse	0	0.264	n/a	7	46	ButtonPress	AvoidedLoss	False
443.273	0.41	Lose2	0.6809000000000001	n/a	Yes	3.374	n/a	n/a	GoodResponse	0	n/a	n/a	7	46	Blank	AvoidedLoss	False
443.675	1.45	Lose2	0.6809000000000001	n/a	Yes	3.374	n/a	5.0	GoodResponse	0	0.007	442.682	7	46	Feedback	AvoidedLoss	False
445.129	3.374	Lose2	0.6809000000000001	n/a	Yes	3.374	n/a	n/a	GoodResponse	0	0.0	n/a	7	46	ISIslide	AvoidedLoss	False
448.522	0.25	Lose2	0.6875	0.0	Yes	2.678	0.022	n/a	GoodResponse	0	n/a	n/a	7	47	Cue	AvoidedLoss	True
448.773	4.0	Lose2	0.6875	0.0	Yes	2.678	0.001	n/a	GoodResponse	0	n/a	n/a	7	47	Fixation	AvoidedLoss	True
452.768	0.28	Lose2	0.6875	0.004	Yes	2.678	-0.004	2.0	GoodResponse	0	0.271	452.039	7	47	Target	AvoidedLoss	True
453.039	0.3	Lose2	0.6875	0.004	Yes	2.678	-0.004	2.0	GoodResponse	0	0.271	n/a	7	47	ButtonPress	AvoidedLoss	True
453.053	0.42	Lose2	0.6875	n/a	Yes	2.678	n/a	n/a	GoodResponse	0	n/a	n/a	7	47	Blank	AvoidedLoss	True
453.471	1.45	Lose2	0.6875	n/a	Yes	2.678	n/a	5.0	GoodResponse	0	0.01	452.481	7	47	Feedback	AvoidedLoss	True
454.925	2.678	Lose2	0.6875	n/a	Yes	2.678	n/a	n/a	GoodResponse	0	0.0	n/a	7	47	ISIslide	AvoidedLoss	True
457.616	0.25	Lose2	0.6939	0.0	Yes	3.034	0.016	n/a	GoodResponse	0	n/a	n/a	7	48	Cue	AvoidedLoss	True
457.867	3.95	Lose2	0.6939	0.0	Yes	3.034	0.001	n/a	GoodResponse	0	n/a	n/a	7	48	Fixation	AvoidedLoss	True
461.812	0.27	Lose2	0.6939	0.004	Yes	3.034	-0.004	2.0	GoodResponse	0	0.22	461.032	7	48	Target	AvoidedLoss	True
462.032	0.3	Lose2	0.6939	0.004	Yes	3.034	-0.004	2.0	GoodResponse	0	0.22	n/a	7	48	ButtonPress	AvoidedLoss	True
462.096	0.43	Lose2	0.6939	n/a	Yes	3.034	n/a	n/a	GoodResponse	0	n/a	n/a	7	48	Blank	AvoidedLoss	True
462.514	1.45	Lose2	0.6939	n/a	Yes	3.034	n/a	5.0	GoodResponse	0	0.04	461.554	7	48	Feedback	AvoidedLoss	True
463.969	3.034	Lose2	0.6939	n/a	Yes	3.034	n/a	n/a	GoodResponse	0	0.0	n/a	7	48	ISIslide	AvoidedLoss	True
467.028	0.25	Control	0.7	0.0	Yes	2.872	0.028	n/a	GoodResponse	0	n/a	n/a	7	49	Cue	Neutral	True
467.278	4.0	Control	0.7	0.001	Yes	2.872	0.0	n/a	GoodResponse	0	n/a	n/a	7	49	Fixation	Neutral	True
471.274	0.26	Control	0.7	0.004	Yes	2.872	-0.004	2.0	GoodResponse	0	0.208	470.482	7	49	Target	Neutral	True
471.482	0.3	Control	0.7	0.004	Yes	2.872	-0.004	2.0	GoodResponse	0	0.208	n/a	7	49	ButtonPress	Neutral	True
471.541	0.44	Control	0.7	n/a	Yes	2.872	n/a	n/a	GoodResponse	0	n/a	n/a	7	49	Blank	Neutral	True
471.976	1.45	Control	0.7	n/a	Yes	2.872	n/a	5.0	GoodResponse	0	0.042	471.018	7	49	Feedback	Neutral	True
473.43	2.872	Control	0.7	n/a	Yes	2.872	n/a	n/a	GoodResponse	0	0.0	n/a	7	49	ISIslide	Neutral	True
476.322	0.25	Control	0.6862999999999999	0.0	No	2.778	0.022	n/a	NoResponse	0	n/a	n/a	7	50	Cue	Neutral	True
476.573	4.0	Control	0.6862999999999999	0.0	No	2.778	0.001	n/a	NoResponse	0	n/a	n/a	7	50	Fixation	Neutral	True
480.568	0.25	Control	0.6862999999999999	0.004	No	2.778	-0.004	2.0	NoResponse	0	0.262	479.83	7	50	Target	Neutral	True
480.819	0.45	Control	0.6862999999999999	n/a	No	2.778	n/a	n/a	NoResponse	0	n/a	n/a	7	50	Blank	Neutral	True
480.83	0.3	Control	0.6862999999999999	0.004	No	2.778	-0.004	2.0	NoResponse	0	0.262	n/a	7	50	ButtonPress	Neutral	True
481.27	1.45	Control	0.6862999999999999	n/a	No	2.778	n/a	5.0	NoResponse	0	0.015	480.285	7	50	Feedback	Neutral	True
482.725	2.778	Control	0.6862999999999999	n/a	No	2.778	n/a	n/a	NoResponse	0	0.0	n/a	7	50	ISIslide	Neutral	True
485.516	0.25	Control	0.6731	0.0	No	2.734	0.016	n/a	PrematurePress	0	n/a	n/a	7	51	Cue	Neutral	True
485.767	3.95	Control	0.6731	0.0	No	2.734	0.001	n/a	PrematurePress	0	n/a	n/a	7	51	Fixation	Neutral	True
489.712	0.24	Control	0.6731	0.004	No	2.734	-0.004	2.0	PrematurePress	0	0.016	488.728	7	51	Target	Neutral	True
489.728	0.3	Control	0.6731	0.004	No	2.734	-0.004	2.0	PrematurePress	0	0.016	n/a	7	51	ButtonPress	Neutral	True
489.963	0.46	Control	0.6731	n/a	No	2.734	n/a	n/a	PrematurePress	0	n/a	n/a	7	51	Blank	Neutral	True
490.414	1.45	Control	0.6731	n/a	No	2.734	n/a	5.0	PrematurePress	0	0.042	489.456	7	51	Feedback	Neutral	True
491.869	2.734	Control	0.6731	n/a	No	2.734	n/a	n/a	PrematurePress	0	0.0	n/a	7	51	ISIslide	Neutral	True
494.627	0.25	Control	0.6604000000000001	0.0	No	2.623	0.027	n/a	NoResponse	0	n/a	n/a	7	52	Cue	Neutral	True
494.878	4.05	Control	0.6604000000000001	0.0	No	2.623	0.001	n/a	NoResponse	0	n/a	n/a	7	52	Fixation	Neutral	True
498.923	0.23	Control	0.6604000000000001	0.004	No	2.623	-0.004	2.0	NoResponse	0	0.25	498.173	7	52	Target	Neutral	True
499.157	0.47	Control	0.6604000000000001	n/a	No	2.623	n/a	n/a	NoResponse	0	n/a	n/a	7	52	Blank	Neutral	True
499.173	0.3	Control	0.6604000000000001	0.004	No	2.623	-0.004	2.0	NoResponse	0	0.25	n/a	7	52	ButtonPress	Neutral	True
499.625	1.45	Control	0.6604000000000001	n/a	No	2.623	n/a	5.0	NoResponse	0	0.002	498.627	7	52	Feedback	Neutral	True
501.08	2.623	Control	0.6604000000000001	n/a	No	2.623	n/a	n/a	NoResponse	0	0.0	n/a	7	52	ISIslide	Neutral	True
503.721	0.25	Win2	0.6667000000000001	0.0	Yes	2.929	0.021	n/a	GoodResponse	1	n/a	n/a	8	53	Cue	Win	True
503.972	4.05	Win2	0.6667000000000001	0.0	Yes	2.929	0.001	n/a	GoodResponse	1	n/a	n/a	8	53	Fixation	Win	True
508.017	0.23	Win2	0.6667000000000001	0.004	Yes	2.929	-0.004	2.0	GoodResponse	1	0.202	507.219	8	53	Target	Win	True
508.219	0.3	Win2	0.6667000000000001	0.004	Yes	2.929	-0.004	2.0	GoodResponse	1	0.202	n/a	8	53	ButtonPress	Win	True
508.251	0.47	Win2	0.6667000000000001	n/a	Yes	2.929	n/a	n/a	GoodResponse	1	n/a	n/a	8	53	Blank	Win	True
508.719	1.45	Win2	0.6667000000000001	n/a	Yes	2.929	n/a	5.0	GoodResponse	1	0.03	507.749	8	53	Feedback	Win	True
510.173	2.929	Win2	0.6667000000000001	n/a	Yes	2.929	n/a	n/a	GoodResponse	1	0.0	n/a	8	53	ISIslide	Win	True
513.116	0.25	Win2	0.6545000000000001	0.0	No	2.734	0.016	n/a	NoResponse	0	n/a	n/a	8	54	Cue	MissedWin	True
513.366	3.95	Win2	0.6545000000000001	0.0	No	2.734	0.0	n/a	NoResponse	0	n/a	n/a	8	54	Fixation	MissedWin	True
517.328	0.22	Win2	0.6545000000000001	0.0	No	2.734	0.012	2.0	NoResponse	0	0.226	516.554	8	54	Target	MissedWin	True
517.545	0.48	Win2	0.6545000000000001	n/a	No	2.734	n/a	n/a	NoResponse	0	n/a	n/a	8	54	Blank	MissedWin	True
517.554	0.3	Win2	0.6545000000000001	0.0	No	2.734	0.012	2.0	NoResponse	0	0.226	n/a	8	54	ButtonPress	MissedWin	True
518.014	1.45	Win2	0.6545000000000001	n/a	No	2.734	n/a	5.0	NoResponse	0	0.007	517.021	8	54	Feedback	MissedWin	True
519.468	2.734	Win2	0.6545000000000001	n/a	No	2.734	n/a	n/a	NoResponse	0	0.0	n/a	8	54	ISIslide	MissedWin	True
522.226	0.25	Control	0.6607	0.0	Yes	3.024	0.026	n/a	GoodResponse	0	n/a	n/a	8	55	Cue	Neutral	True
522.477	3.95	Control	0.6607	0.0	Yes	3.024	0.001	n/a	GoodResponse	0	n/a	n/a	8	55	Fixation	Neutral	True
526.422	0.23	Control	0.6607	0.004	Yes	3.024	-0.004	2.0	GoodResponse	0	0.217	525.639	8	55	Target	Neutral	True
526.639	0.3	Control	0.6607	0.004	Yes	3.024	-0.004	2.0	GoodResponse	0	0.217	n/a	8	55	ButtonPress	Neutral	True
526.656	0.47	Control	0.6607	n/a	Yes	3.024	n/a	n/a	GoodResponse	0	n/a	n/a	8	55	Blank	Neutral	True
527.124	1.45	Control	0.6607	n/a	Yes	3.024	n/a	5.0	GoodResponse	0	0.015	526.139	8	55	Feedback	Neutral	True
528.578	3.024	Control	0.6607	n/a	Yes	3.024	n/a	n/a	GoodResponse	0	0.0	n/a	8	55	ISIslide	Neutral	True
531.621	0.25	Control	0.6491	0.0	No	2.829	0.021	n/a	NoResponse	0	n/a	n/a	8	56	Cue	Neutral	True
531.872	3.95	Control	0.6491	0.0	No	2.829	0.001	n/a	NoResponse	0	n/a	n/a	8	56	Fixation	Neutral	True
535.817	0.23	Control	0.6491	0.004	No	2.829	-0.004	2.0	NoResponse	0	0.272	535.089	8	56	Target	Neutral	True
536.051	0.47	Control	0.6491	n/a	No	2.829	n/a	n/a	NoResponse	0	n/a	n/a	8	56	Blank	Neutral	True
536.089	0.3	Control	0.6491	0.004	No	2.829	-0.004	2.0	NoResponse	0	0.272	n/a	8	56	ButtonPress	Neutral	True
536.519	1.45	Control	0.6491	n/a	No	2.829	n/a	5.0	NoResponse	0	0.034	535.553	8	56	Feedback	Neutral	True
537.973	2.829	Control	0.6491	n/a	No	2.829	n/a	n/a	NoResponse	0	0.0	n/a	8	56	ISIslide	Neutral	True
540.815	0.25	Control	0.6552	0.0	Yes	3.485	0.015	n/a	GoodResponse	0	n/a	n/a	8	57	Cue	Neutral	True
541.066	4.0	Control	0.6552	0.0	Yes	3.485	0.001	n/a	GoodResponse	0	n/a	n/a	8	57	Fixation	Neutral	True
545.061	0.24	Control	0.6552	0.004	Yes	3.485	-0.004	2.0	GoodResponse	0	0.211	544.272	8	57	Target	Neutral	True
545.272	0.3	Control	0.6552	0.004	Yes	3.485	-0.004	2.0	GoodResponse	0	0.211	n/a	8	57	ButtonPress	Neutral	True
545.312	0.46	Control	0.6552	n/a	Yes	3.485	n/a	n/a	GoodResponse	0	n/a	n/a	8	57	Blank	Neutral	True
545.763	1.45	Control	0.6552	n/a	Yes	3.485	n/a	5.0	GoodResponse	0	0.01	544.773	8	57	Feedback	Neutral	True
547.218	3.485	Control	0.6552	n/a	Yes	3.485	n/a	n/a	GoodResponse	0	0.0	n/a	8	57	ISIslide	Neutral	True
550.728	0.25	Win2	0.6609999999999999	0.0	Yes	2.722	0.028	n/a	GoodResponse	1	n/a	n/a	9	58	Cue	Win	True
550.979	4.05	Win2	0.6609999999999999	0.0	Yes	2.722	0.001	n/a	GoodResponse	1	n/a	n/a	9	58	Fixation	Win	True
555.024	0.24	Win2	0.6609999999999999	0.004	Yes	2.722	-0.004	2.0	GoodResponse	1	0.214	554.238	9	58	Target	Win	True
555.238	0.3	Win2	0.6609999999999999	0.004	Yes	2.722	-0.004	2.0	GoodResponse	1	0.214	n/a	9	58	ButtonPress	Win	True
555.275	0.46	Win2	0.6609999999999999	n/a	Yes	2.722	n/a	n/a	GoodResponse	1	n/a	n/a	9	58	Blank	Win	True
555.726	1.45	Win2	0.6609999999999999	n/a	Yes	2.722	n/a	5.0	GoodResponse	1	0.047	554.773	9	58	Feedback	Win	True
557.181	2.722	Win2	0.6609999999999999	n/a	Yes	2.722	n/a	n/a	GoodResponse	1	0.0	n/a	9	58	ISIslide	Win	True
559.922	0.25	Lose2	0.65	0.0	No	2.678	0.022	n/a	NoResponse	-1	n/a	n/a	8	59	Cue	Loss	False
560.173	4.0	Lose2	0.65	0.0	No	2.678	0.001	n/a	NoResponse	-1	n/a	n/a	8	59	Fixation	Loss	False
564.168	0.24	Lose2	0.65	0.004	No	2.678	-0.004	n/a	NoResponse	-1	n/a	n/a	8	59	Target	Loss	False
564.419	0.46	Lose2	0.65	n/a	No	2.678	n/a	n/a	NoResponse	-1	n/a	n/a	8	59	Blank	Loss	False
564.87	1.45	Lose2	0.65	n/a	No	2.678	n/a	5.0	NoResponse	-1	0.024	563.894	8	59	Feedback	Loss	False
566.325	2.678	Lose2	0.65	n/a	No	2.678	n/a	n/a	NoResponse	-1	0.0	n/a	8	59	ISIslide	Loss	False
569.016	0.25	Control	0.6557	0.0	Yes	2.684	0.016	n/a	GoodResponse	0	n/a	n/a	8	60	Cue	Neutral	True
569.267	4.0	Control	0.6557	0.0	Yes	2.684	0.001	n/a	GoodResponse	0	n/a	n/a	8	60	Fixation	Neutral	True
573.262	0.25	Control	0.6557	0.004	Yes	2.684	-0.004	2.0	GoodResponse	0	0.212	572.474	8	60	Target	Neutral	True
573.474	0.3	Control	0.6557	0.004	Yes	2.684	-0.004	2.0	GoodResponse	0	0.212	n/a	8	60	ButtonPress	Neutral	True
573.513	0.45	Control	0.6557	n/a	Yes	2.684	n/a	n/a	GoodResponse	0	n/a	n/a	8	60	Blank	Neutral	True
573.964	1.45	Control	0.6557	n/a	Yes	2.684	n/a	5.0	GoodResponse	0	0.007	572.971	8	60	Feedback	Neutral	True
575.418	2.684	Control	0.6557	n/a	Yes	2.684	n/a	n/a	GoodResponse	0	0.0	n/a	8	60	ISIslide	Neutral	True
578.127	0.25	Lose2	0.6613	0.0	Yes	2.973	0.027	n/a	GoodResponse	0	n/a	n/a	8	61	Cue	AvoidedLoss	True
578.377	4.0	Lose2	0.6613	0.0	Yes	2.973	0.0	n/a	GoodResponse	0	n/a	n/a	8	61	Fixation	AvoidedLoss	True
582.373	0.25	Lose2	0.6613	0.004	Yes	2.973	-0.004	2.0	GoodResponse	0	0.184	581.557	8	61	Target	AvoidedLoss	True
582.557	0.3	Lose2	0.6613	0.004	Yes	2.973	-0.004	2.0	GoodResponse	0	0.184	n/a	8	61	ButtonPress	AvoidedLoss	True
582.623	0.45	Lose2	0.6613	n/a	Yes	2.973	n/a	n/a	GoodResponse	0	n/a	n/a	8	61	Blank	AvoidedLoss	True
583.075	1.45	Lose2	0.6613	n/a	Yes	2.973	n/a	5.0	GoodResponse	0	0.014	582.089	8	61	Feedback	AvoidedLoss	True
584.529	2.973	Lose2	0.6613	n/a	Yes	2.973	n/a	n/a	GoodResponse	0	0.0	n/a	8	61	ISIslide	AvoidedLoss	True
587.521	0.25	Lose2	0.6667000000000001	0.0	Yes	2.879	0.021	n/a	GoodResponse	0	n/a	n/a	8	62	Cue	AvoidedLoss	False
587.772	3.9	Lose2	0.6667000000000001	0.0	Yes	2.879	0.001	2.0	GoodResponse	0	3.624	590.396	8	62	Fixation	AvoidedLoss	False
591.396	0.3	Lose2	0.6667000000000001	0.0	Yes	2.879	0.001	2.0	GoodResponse	0	3.624	n/a	8	62	ButtonPress	AvoidedLoss	False
591.667	0.25	Lose2	0.6667000000000001	0.004	Yes	2.879	-0.004	2.0	GoodResponse	0	0.138	590.805	8	62	Target	AvoidedLoss	False
591.805	0.3	Lose2	0.6667000000000001	0.004	Yes	2.879	-0.004	2.0	GoodResponse	0	0.138	n/a	8	62	ButtonPress	AvoidedLoss	False
591.918	0.45	Lose2	0.6667000000000001	n/a	Yes	2.879	n/a	n/a	GoodResponse	0	n/a	n/a	8	62	Blank	AvoidedLoss	False
592.369	1.45	Lose2	0.6667000000000001	n/a	Yes	2.879	n/a	5.0	GoodResponse	0	0.038	591.407	8	62	Feedback	AvoidedLoss	False
593.824	2.879	Lose2	0.6667000000000001	n/a	Yes	2.879	n/a	n/a	GoodResponse	0	0.0	n/a	8	62	ISIslide	AvoidedLoss	False
596.715	0.25	Lose2	0.6718999999999999	0.001	Yes	2.635	0.015	n/a	GoodResponse	0	n/a	n/a	8	63	Cue	AvoidedLoss	True
596.966	4.05	Lose2	0.6718999999999999	0.0	Yes	2.635	0.001	n/a	GoodResponse	0	n/a	n/a	8	63	Fixation	AvoidedLoss	True
601.012	0.24	Lose2	0.6718999999999999	0.003	Yes	2.635	-0.003	2.0	GoodResponse	0	0.192	600.204	8	63	Target	AvoidedLoss	True
601.204	0.3	Lose2	0.6718999999999999	0.003	Yes	2.635	-0.003	2.0	GoodResponse	0	0.192	n/a	8	63	ButtonPress	AvoidedLoss	True
601.262	0.46	Lose2	0.6718999999999999	n/a	Yes	2.635	n/a	n/a	GoodResponse	0	n/a	n/a	8	63	Blank	AvoidedLoss	True
601.714	1.45	Lose2	0.6718999999999999	n/a	Yes	2.635	n/a	5.0	GoodResponse	0	0.01	600.724	8	63	Feedback	AvoidedLoss	True
603.168	2.635	Lose2	0.6718999999999999	n/a	Yes	2.635	n/a	n/a	GoodResponse	0	0.0	n/a	8	63	ISIslide	AvoidedLoss	True
605.826	0.25	Win2	0.6769	0.0	Yes	3.124	0.026	n/a	GoodResponse	1	n/a	n/a	9	64	Cue	Win	True
606.077	4.15	Win2	0.6769	0.0	Yes	3.124	0.001	n/a	GoodResponse	1	n/a	n/a	9	64	Fixation	Win	True
610.223	0.23	Win2	0.6769	0.003	Yes	3.124	-0.003	2.0	GoodResponse	1	0.202	609.425	9	64	Target	Win	True
610.425	0.3	Win2	0.6769	0.003	Yes	3.124	-0.003	2.0	GoodResponse	1	0.202	n/a	9	64	ButtonPress	Win	True
610.457	0.47	Win2	0.6769	n/a	Yes	3.124	n/a	n/a	GoodResponse	1	n/a	n/a	9	64	Blank	Win	True
610.925	1.45	Win2	0.6769	n/a	Yes	3.124	n/a	5.0	GoodResponse	1	0.017	609.942	9	64	Feedback	Win	True
612.379	3.124	Win2	0.6769	n/a	Yes	3.124	n/a	n/a	GoodResponse	1	0.0	n/a	9	64	ISIslide	Win	True
615.522	0.25	Control	0.6667000000000001	0.0	No	2.778	0.022	n/a	LatePress	0	n/a	n/a	9	65	Cue	Neutral	True
615.772	4.0	Control	0.6667000000000001	0.001	No	2.778	0.0	n/a	LatePress	0	n/a	n/a	9	65	Fixation	Neutral	True
619.768	0.22	Control	0.6667000000000001	0.004	No	2.778	-0.004	2.0	LatePress	0	0.225	618.993	9	65	Target	Neutral	True
619.993	0.3	Control	0.6667000000000001	0.004	No	2.778	-0.004	2.0	LatePress	0	0.225	n/a	9	65	ButtonPress	Neutral	True
620.002	0.48	Control	0.6667000000000001	n/a	No	2.778	n/a	n/a	LatePress	0	n/a	n/a	9	65	Blank	Neutral	True
620.47	1.45	Control	0.6667000000000001	n/a	No	2.778	n/a	5.0	LatePress	0	0.033	619.503	9	65	Feedback	Neutral	True
621.924	2.778	Control	0.6667000000000001	n/a	No	2.778	n/a	n/a	LatePress	0	0.0	n/a	9	65	ISIslide	Neutral	True
624.716	0.25	Win2	0.6567000000000001	0.0	No	2.784	0.016	n/a	LatePress	0	n/a	n/a	9	66	Cue	MissedWin	True
624.967	3.9	Win2	0.6567000000000001	0.0	No	2.784	0.001	n/a	LatePress	0	n/a	n/a	9	66	Fixation	MissedWin	True
628.862	0.21	Win2	0.6567000000000001	0.004	No	2.784	-0.004	2.0	LatePress	0	0.211	628.073	9	66	Target	MissedWin	True
629.073	0.3	Win2	0.6567000000000001	0.004	No	2.784	-0.004	2.0	LatePress	0	0.211	n/a	9	66	ButtonPress	MissedWin	True
629.079	0.49	Win2	0.6567000000000001	n/a	No	2.784	n/a	n/a	LatePress	0	n/a	n/a	9	66	Blank	MissedWin	True
629.564	1.45	Win2	0.6567000000000001	n/a	No	2.784	n/a	5.0	LatePress	0	0.013	628.577	9	66	Feedback	MissedWin	True
631.018	2.784	Win2	0.6567000000000001	n/a	No	2.784	n/a	n/a	LatePress	0	0.0	n/a	9	66	ISIslide	MissedWin	True
633.826	0.25	Control	0.6470999999999999	0.001	No	2.724	0.026	n/a	NoResponse	0	n/a	n/a	9	67	Cue	Neutral	True
634.077	3.95	Control	0.6470999999999999	0.0	No	2.724	0.001	n/a	NoResponse	0	n/a	n/a	9	67	Fixation	Neutral	True
638.022	0.21	Control	0.6470999999999999	0.004	No	2.724	-0.004	2.0	NoResponse	0	0.239	637.261	9	67	Target	Neutral	True
638.24	0.49	Control	0.6470999999999999	n/a	No	2.724	n/a	n/a	NoResponse	0	n/a	n/a	9	67	Blank	Neutral	True
638.261	0.3	Control	0.6470999999999999	0.004	No	2.724	-0.004	2.0	NoResponse	0	0.239	n/a	9	67	ButtonPress	Neutral	True
638.724	1.45	Control	0.6470999999999999	n/a	No	2.724	n/a	5.0	NoResponse	0	0.024	637.748	9	67	Feedback	Neutral	True
640.179	2.724	Control	0.6470999999999999	n/a	No	2.724	n/a	n/a	NoResponse	0	0.0	n/a	9	67	ISIslide	Neutral	True
642.92	0.25	Win2	0.6377	0.0	No	3.08	0.02	n/a	NoResponse	0	n/a	n/a	9	68	Cue	MissedWin	False
643.171	4.0	Win2	0.6377	0.0	No	3.08	0.001	n/a	NoResponse	0	n/a	n/a	9	68	Fixation	MissedWin	False
647.166	0.22	Win2	0.6377	0.004	No	3.08	-0.004	n/a	NoResponse	0	n/a	n/a	9	68	Target	MissedWin	False
647.4	0.48	Win2	0.6377	n/a	No	3.08	n/a	n/a	NoResponse	0	n/a	n/a	9	68	Blank	MissedWin	False
647.868	1.45	Win2	0.6377	n/a	No	3.08	n/a	5.0	NoResponse	0	0.001	646.869	9	68	Feedback	MissedWin	False
649.323	3.08	Win2	0.6377	n/a	No	3.08	n/a	n/a	NoResponse	0	0.0	n/a	9	68	ISIslide	MissedWin	False
652.415	0.25	Win2	0.6429	0.0	Yes	3.235	0.015	n/a	GoodResponse	1	n/a	n/a	10	69	Cue	Win	True
652.666	3.95	Win2	0.6429	0.0	Yes	3.235	0.001	n/a	GoodResponse	1	n/a	n/a	10	69	Fixation	Win	True
656.611	0.23	Win2	0.6429	0.004	Yes	3.235	-0.004	2.0	GoodResponse	1	0.22	655.831	10	69	Target	Win	True
656.831	0.3	Win2	0.6429	0.004	Yes	3.235	-0.004	2.0	GoodResponse	1	0.22	n/a	10	69	ButtonPress	Win	True
656.845	0.47	Win2	0.6429	n/a	Yes	3.235	n/a	n/a	GoodResponse	1	n/a	n/a	10	69	Blank	Win	True
657.313	1.45	Win2	0.6429	n/a	Yes	3.235	n/a	5.0	GoodResponse	1	0.019	656.332	10	69	Feedback	Win	True
658.768	3.235	Win2	0.6429	n/a	Yes	3.235	n/a	n/a	GoodResponse	1	0.0	n/a	10	69	ISIslide	Win	True
662.027	0.25	Lose2	0.6479	0.001	Yes	3.023	0.027	n/a	GoodResponse	0	n/a	n/a	10	70	Cue	AvoidedLoss	True
662.278	4.05	Lose2	0.6479	0.0	Yes	3.023	0.001	n/a	GoodResponse	0	n/a	n/a	10	70	Fixation	AvoidedLoss	True
666.324	0.24	Lose2	0.6479	0.003	Yes	3.023	-0.003	2.0	GoodResponse	0	0.194	665.518	10	70	Target	AvoidedLoss	True
666.518	0.3	Lose2	0.6479	0.003	Yes	3.023	-0.003	2.0	GoodResponse	0	0.194	n/a	10	70	ButtonPress	AvoidedLoss	True
666.574	0.46	Lose2	0.6479	n/a	Yes	3.023	n/a	n/a	GoodResponse	0	n/a	n/a	10	70	Blank	AvoidedLoss	True
667.026	1.45	Lose2	0.6479	n/a	Yes	3.023	n/a	5.0	GoodResponse	0	0.014	666.04	10	70	Feedback	AvoidedLoss	True
668.48	3.023	Lose2	0.6479	n/a	Yes	3.023	n/a	n/a	GoodResponse	0	0.0	n/a	10	70	ISIslide	AvoidedLoss	True
671.522	0.25	Win2	0.6528	0.001	Yes	2.728	0.022	n/a	GoodResponse	1	n/a	n/a	11	71	Cue	Win	True
671.773	4.05	Win2	0.6528	0.0	Yes	2.728	0.001	n/a	GoodResponse	1	n/a	n/a	11	71	Fixation	Win	True
675.819	0.25	Win2	0.6528	0.003	Yes	2.728	-0.003	2.0	GoodResponse	1	0.183	675.002	11	71	Target	Win	True
676.002	0.3	Win2	0.6528	0.003	Yes	2.728	-0.003	2.0	GoodResponse	1	0.183	n/a	11	71	ButtonPress	Win	True
676.069	0.45	Win2	0.6528	n/a	Yes	2.728	n/a	n/a	GoodResponse	1	n/a	n/a	11	71	Blank	Win	True
676.521	1.45	Win2	0.6528	n/a	Yes	2.728	n/a	5.0	GoodResponse	1	0.031	675.552	11	71	Feedback	Win	True
677.975	2.728	Win2	0.6528	n/a	Yes	2.728	n/a	n/a	GoodResponse	1	0.0	n/a	11	71	ISIslide	Win	True
680.717	0.25	Win2	0.6575	0.0	Yes	2.783	0.017	n/a	GoodResponse	1	n/a	n/a	12	72	Cue	Win	True
680.967	4.1	Win2	0.6575	0.0	Yes	2.783	0.0	n/a	GoodResponse	1	n/a	n/a	12	72	Fixation	Win	True
685.063	0.26	Win2	0.6575	0.004	Yes	2.783	-0.004	2.0	GoodResponse	1	0.186	684.249	12	72	Target	Win	True
685.249	0.3	Win2	0.6575	0.004	Yes	2.783	-0.004	2.0	GoodResponse	1	0.186	n/a	12	72	ButtonPress	Win	True
685.33	0.44	Win2	0.6575	n/a	Yes	2.783	n/a	n/a	GoodResponse	1	n/a	n/a	12	72	Blank	Win	True
685.765	1.45	Win2	0.6575	n/a	Yes	2.783	n/a	5.0	GoodResponse	1	0.007	684.772	12	72	Feedback	Win	True
687.219	2.783	Win2	0.6575	n/a	Yes	2.783	n/a	n/a	GoodResponse	1	0.0	n/a	12	72	ISIslide	Win	True
690.028	0.25	Win2	0.6622	0.0	Yes	2.672	0.028	n/a	GoodResponse	1	n/a	n/a	13	73	Cue	Win	True
690.279	4.0	Win2	0.6622	0.0	Yes	2.672	0.001	n/a	GoodResponse	1	n/a	n/a	13	73	Fixation	Win	True
694.274	0.26	Win2	0.6622	0.004	Yes	2.672	-0.004	2.0	GoodResponse	1	0.204	693.478	13	73	Target	Win	True
694.478	0.3	Win2	0.6622	0.004	Yes	2.672	-0.004	2.0	GoodResponse	1	0.204	n/a	13	73	ButtonPress	Win	True
694.541	0.44	Win2	0.6622	n/a	Yes	2.672	n/a	n/a	GoodResponse	1	n/a	n/a	13	73	Blank	Win	True
694.976	1.45	Win2	0.6622	n/a	Yes	2.672	n/a	5.0	GoodResponse	1	0.014	693.99	13	73	Feedback	Win	True
696.43	2.672	Win2	0.6622	n/a	Yes	2.672	n/a	n/a	GoodResponse	1	0.0	n/a	13	73	ISIslide	Win	True
699.122	0.25	Lose2	0.6667000000000001	0.0	Yes	2.628	0.022	n/a	GoodResponse	0	n/a	n/a	13	74	Cue	AvoidedLoss	True
699.372	4.05	Lose2	0.6667000000000001	0.001	Yes	2.628	0.0	n/a	GoodResponse	0	n/a	n/a	13	74	Fixation	AvoidedLoss	True
703.418	0.26	Lose2	0.6667000000000001	0.004	Yes	2.628	-0.004	2.0	GoodResponse	0	0.17	702.588	13	74	Target	AvoidedLoss	True
703.588	0.3	Lose2	0.6667000000000001	0.004	Yes	2.628	-0.004	2.0	GoodResponse	0	0.17	n/a	13	74	ButtonPress	AvoidedLoss	True
703.685	0.44	Lose2	0.6667000000000001	n/a	Yes	2.628	n/a	n/a	GoodResponse	0	n/a	n/a	13	74	Blank	AvoidedLoss	True
704.12	1.45	Lose2	0.6667000000000001	n/a	Yes	2.628	n/a	5.0	GoodResponse	0	0.041	703.161	13	74	Feedback	AvoidedLoss	True
705.574	2.628	Lose2	0.6667000000000001	n/a	Yes	2.628	n/a	n/a	GoodResponse	0	0.0	n/a	13	74	ISIslide	AvoidedLoss	True
708.216	0.25	Lose2	0.6711	0.0	Yes	2.934	0.016	n/a	GoodResponse	0	n/a	n/a	13	75	Cue	AvoidedLoss	True
708.466	3.95	Lose2	0.6711	0.0	Yes	2.934	0.0	n/a	GoodResponse	0	n/a	n/a	13	75	Fixation	AvoidedLoss	True
712.428	0.25	Lose2	0.6711	0.0	Yes	2.934	0.012	2.0	GoodResponse	0	0.215	711.643	13	75	Target	AvoidedLoss	True
712.643	0.3	Lose2	0.6711	0.0	Yes	2.934	0.012	2.0	GoodResponse	0	0.215	n/a	13	75	ButtonPress	AvoidedLoss	True
712.662	0.45	Lose2	0.6711	n/a	Yes	2.934	n/a	n/a	GoodResponse	0	n/a	n/a	13	75	Blank	AvoidedLoss	True
713.114	1.45	Lose2	0.6711	n/a	Yes	2.934	n/a	5.0	GoodResponse	0	0.023	712.137	13	75	Feedback	AvoidedLoss	True
714.568	2.934	Lose2	0.6711	n/a	Yes	2.934	n/a	n/a	GoodResponse	0	0.0	n/a	13	75	ISIslide	AvoidedLoss	True
717.527	0.25	Control	0.6753	0.0	Yes	3.223	0.027	n/a	GoodResponse	0	n/a	n/a	13	76	Cue	Neutral	True
717.777	4.05	Control	0.6753	0.001	Yes	3.223	0.0	n/a	GoodResponse	0	n/a	n/a	13	76	Fixation	Neutral	True
721.823	0.24	Control	0.6753	0.004	Yes	3.223	-0.004	2.0	GoodResponse	0	0.222	721.045	13	76	Target	Neutral	True
722.045	0.3	Control	0.6753	0.004	Yes	3.223	-0.004	2.0	GoodResponse	0	0.222	n/a	13	76	ButtonPress	Neutral	True
722.074	0.46	Control	0.6753	n/a	Yes	3.223	n/a	n/a	GoodResponse	0	n/a	n/a	13	76	Blank	Neutral	True
722.525	1.45	Control	0.6753	n/a	Yes	3.223	n/a	5.0	GoodResponse	0	0.026	721.551	13	76	Feedback	Neutral	True
723.979	3.223	Control	0.6753	n/a	Yes	3.223	n/a	n/a	GoodResponse	0	0.0	n/a	13	76	ISIslide	Neutral	True
727.222	0.25	Lose2	0.6795	0.0	Yes	2.578	0.022	n/a	GoodResponse	0	n/a	n/a	13	77	Cue	AvoidedLoss	True
727.473	3.95	Lose2	0.6795	0.0	Yes	2.578	0.001	n/a	GoodResponse	0	n/a	n/a	13	77	Fixation	AvoidedLoss	True
731.418	0.23	Lose2	0.6795	0.004	Yes	2.578	-0.004	2.0	GoodResponse	0	0.203	730.621	13	77	Target	AvoidedLoss	True
731.621	0.3	Lose2	0.6795	0.004	Yes	2.578	-0.004	2.0	GoodResponse	0	0.203	n/a	13	77	ButtonPress	AvoidedLoss	True
731.652	0.47	Lose2	0.6795	n/a	Yes	2.578	n/a	n/a	GoodResponse	0	n/a	n/a	13	77	Blank	AvoidedLoss	True
732.12	1.45	Lose2	0.6795	n/a	Yes	2.578	n/a	5.0	GoodResponse	0	0.04	731.16	13	77	Feedback	AvoidedLoss	True
733.575	2.578	Lose2	0.6795	n/a	Yes	2.578	n/a	n/a	GoodResponse	0	0.0	n/a	13	77	ISIslide	AvoidedLoss	True
