onset	duration	cue_type	current_mean_accuracy	duration_error	is_hit	isi_adjusted	onset_delay	response	response_type	reward	rt	rt_time	total_reward	trial_number	trial_phase	trial_type	one_press
11.1	0.25	Control	1.0	0.0	Yes	2.95	0.0	n/a	GoodResponse	0	n/a	n/a	0	0	Cue	Neutral	True
11.351	3.85	Control	1.0	0.0	Yes	2.95	0.001	n/a	GoodResponse	0	n/a	n/a	0	0	Fixation	Neutral	True
15.212	0.4	Control	1.0	0.0	Yes	2.95	0.012	3.0	GoodResponse	0	0.228	14.44	0	0	Target	Neutral	True
15.44	0.3	Control	1.0	0.0	Yes	2.95	0.012	3.0	GoodResponse	0	0.228	n/a	0	0	ButtonPress	Neutral	True
15.597	0.3	Control	1.0	n/a	Yes	2.95	n/a	n/a	GoodResponse	0	n/a	n/a	0	0	Blank	Neutral	True
15.898	1.45	Control	1.0	n/a	Yes	2.95	n/a	5.0	GoodResponse	0	0.029	14.927	0	0	Feedback	Neutral	True
17.352	2.95	Control	1.0	n/a	Yes	2.95	n/a	n/a	GoodResponse	0	0.0	n/a	0	0	ISIslide	Neutral	True
20.327	0.25	Lose2	1.0	0.001	Yes	2.773	0.027	n/a	GoodResponse	0	n/a	n/a	0	1	Cue	AvoidedLoss	True
20.578	4.0	Lose2	1.0	0.0	Yes	2.773	0.001	n/a	GoodResponse	0	n/a	n/a	0	1	Fixation	AvoidedLoss	True
24.574	0.39	Lose2	1.0	0.003	Yes	2.773	-0.003	3.0	GoodResponse	0	0.206	23.78	0	1	Target	AvoidedLoss	True
24.78	0.3	Lose2	1.0	0.003	Yes	2.773	-0.003	3.0	GoodResponse	0	0.206	n/a	0	1	ButtonPress	AvoidedLoss	True
24.975	0.31	Lose2	1.0	n/a	Yes	2.773	n/a	n/a	GoodResponse	0	n/a	n/a	0	1	Blank	AvoidedLoss	True
25.276	1.45	Lose2	1.0	n/a	Yes	2.773	n/a	5.0	GoodResponse	0	0.015	24.291	0	1	Feedback	AvoidedLoss	True
26.73	2.773	Lose2	1.0	n/a	Yes	2.773	n/a	n/a	GoodResponse	0	0.0	n/a	0	1	ISIslide	AvoidedLoss	True
29.522	0.25	Control	1.0	0.0	Yes	2.578	0.022	n/a	GoodResponse	0	n/a	n/a	0	2	Cue	Neutral	True
29.772	4.1	Control	1.0	0.0	Yes	2.578	0.0	n/a	GoodResponse	0	n/a	n/a	0	2	Fixation	Neutral	True
33.868	0.38	Control	1.0	0.004	Yes	2.578	-0.004	3.0	GoodResponse	0	0.21	33.078	0	2	Target	Neutral	True
34.078	0.3	Control	1.0	0.004	Yes	2.578	-0.004	3.0	GoodResponse	0	0.21	n/a	0	2	ButtonPress	Neutral	True
34.253	0.32	Control	1.0	n/a	Yes	2.578	n/a	n/a	GoodResponse	0	n/a	n/a	0	2	Blank	Neutral	True
34.57	1.45	Control	1.0	n/a	Yes	2.578	n/a	5.0	GoodResponse	0	0.039	33.609	0	2	Feedback	Neutral	True
36.024	2.578	Control	1.0	n/a	Yes	2.578	n/a	n/a	GoodResponse	0	0.0	n/a	0	2	ISIslide	Neutral	True
38.616	0.25	Win2	1.0	0.0	Yes	2.834	0.016	n/a	GoodResponse	1	n/a	n/a	1	3	Cue	Win	False
38.866	3.95	Win2	1.0	0.0	Yes	2.834	0.0	3.0	GoodResponse	1	3.832	41.698	1	3	Fixation	Win	False
42.698	0.3	Win2	1.0	0.0	Yes	2.834	0.0	3.0	GoodResponse	1	3.832	n/a	1	3	ButtonPress	Win	False
42.811	0.37	Win2	1.0	0.005	Yes	2.834	-0.005	3.0	GoodResponse	1	0.268	42.079	1	3	Target	Win	False
43.079	0.3	Win2	1.0	0.005	Yes	2.834	-0.005	3.0	GoodResponse	1	0.268	n/a	1	3	ButtonPress	Win	False
43.196	0.33	Win2	1.0	n/a	Yes	2.834	n/a	n/a	GoodResponse	1	n/a	n/a	1	3	Blank	Win	False
43.514	1.45	Win2	1.0	n/a	Yes	2.834	n/a	5.0	GoodResponse	1	0.022	42.536	1	3	Feedback	Win	False
44.968	2.834	Win2	1.0	n/a	Yes	2.834	n/a	n/a	GoodResponse	1	0.0	n/a	1	3	ISIslide	Win	False
47.826	0.25	Win2	1.0	0.001	Yes	3.274	0.026	n/a	GoodResponse	1	n/a	n/a	2	4	Cue	Win	True
48.077	4.0	Win2	1.0	0.0	Yes	3.274	0.001	n/a	GoodResponse	1	n/a	n/a	2	4	Fixation	Win	True
52.073	0.36	Win2	1.0	0.003	Yes	3.274	-0.003	3.0	GoodResponse	1	0.211	51.284	2	4	Target	Win	True
52.284	0.3	Win2	1.0	0.003	Yes	3.274	-0.003	3.0	GoodResponse	1	0.211	n/a	2	4	ButtonPress	Win	True
52.44	0.34	Win2	1.0	n/a	Yes	3.274	n/a	n/a	GoodResponse	1	n/a	n/a	2	4	Blank	Win	True
52.775	1.45	Win2	1.0	n/a	Yes	3.274	n/a	5.0	GoodResponse	1	0.029	51.804	2	4	Feedback	Win	True
54.229	3.274	Win2	1.0	n/a	Yes	3.274	n/a	n/a	GoodResponse	1	0.0	n/a	2	4	ISIslide	Win	True
57.522	0.25	Win2	1.0	0.0	Yes	2.778	0.022	n/a	GoodResponse	1	n/a	n/a	3	5	Cue	Win	True
57.773	4.0	Win2	1.0	0.0	Yes	2.778	0.001	n/a	GoodResponse	1	n/a	n/a	3	5	Fixation	Win	True
61.768	0.35	Win2	1.0	0.004	Yes	2.778	-0.004	3.0	GoodResponse	1	0.197	60.965	3	5	Target	Win	True
61.965	0.3	Win2	1.0	0.004	Yes	2.778	-0.004	3.0	GoodResponse	1	0.197	n/a	3	5	ButtonPress	Win	True
62.119	0.35	Win2	1.0	n/a	Yes	2.778	n/a	n/a	GoodResponse	1	n/a	n/a	3	5	Blank	Win	True
62.47	1.45	Win2	1.0	n/a	Yes	2.778	n/a	5.0	GoodResponse	1	0.041	61.511	3	5	Feedback	Win	True
63.925	2.778	Win2	1.0	n/a	Yes	2.778	n/a	n/a	GoodResponse	1	0.0	n/a	3	5	ISIslide	Win	True
66.716	0.25	Lose2	1.0	0.0	Yes	2.734	0.016	n/a	GoodResponse	0	n/a	n/a	3	6	Cue	AvoidedLoss	True
66.967	3.95	Lose2	1.0	0.0	Yes	2.734	0.001	n/a	GoodResponse	0	n/a	n/a	3	6	Fixation	AvoidedLoss	True
70.912	0.34	Lose2	1.0	0.004	Yes	2.734	-0.004	3.0	GoodResponse	0	0.244	70.156	3	6	Target	AvoidedLoss	True
71.156	0.3	Lose2	1.0	0.004	Yes	2.734	-0.004	3.0	GoodResponse	0	0.244	n/a	3	6	ButtonPress	AvoidedLoss	True
71.263	0.36	Lose2	1.0	n/a	Yes	2.734	n/a	n/a	GoodResponse	0	n/a	n/a	3	6	Blank	AvoidedLoss	True
71.614	1.45	Lose2	1.0	n/a	Yes	2.734	n/a	5.0	GoodResponse	0	0.019	70.633	3	6	Feedback	AvoidedLoss	True
73.069	2.734	Lose2	1.0	n/a	Yes	2.734	n/a	n/a	GoodResponse	0	0.0	n/a	3	6	ISIslide	AvoidedLoss	True
75.827	0.25	Lose2	1.0	0.0	Yes	4.023	0.027	n/a	GoodResponse	0	n/a	n/a	3	7	Cue	AvoidedLoss	True
76.078	4.05	Lose2	1.0	0.0	Yes	4.023	0.001	n/a	GoodResponse	0	n/a	n/a	3	7	Fixation	AvoidedLoss	True
80.123	0.33	Lose2	1.0	0.004	Yes	4.023	-0.004	3.0	GoodResponse	0	0.2	79.323	3	7	Target	AvoidedLoss	True
80.323	0.3	Lose2	1.0	0.004	Yes	4.023	-0.004	3.0	GoodResponse	0	0.2	n/a	3	7	ButtonPress	AvoidedLoss	True
80.457	0.37	Lose2	1.0	n/a	Yes	4.023	n/a	n/a	GoodResponse	0	n/a	n/a	3	7	Blank	AvoidedLoss	True
80.825	1.45	Lose2	1.0	n/a	Yes	4.023	n/a	5.0	GoodResponse	0	0.027	79.852	3	7	Feedback	AvoidedLoss	True
82.28	4.023	Lose2	1.0	n/a	Yes	4.023	n/a	n/a	GoodResponse	0	0.0	n/a	3	7	ISIslide	AvoidedLoss	True
86.325	0.25	Lose2	1.0	0.0	Yes	3.025	0.025	n/a	GoodResponse	0	n/a	n/a	3	8	Cue	AvoidedLoss	True
86.576	3.95	Lose2	1.0	0.0	Yes	3.025	0.001	n/a	GoodResponse	0	n/a	n/a	3	8	Fixation	AvoidedLoss	True
90.521	0.32	Lose2	1.0	0.004	Yes	3.025	-0.004	3.0	GoodResponse	0	0.198	89.719	3	8	Target	AvoidedLoss	True
90.719	0.3	Lose2	1.0	0.004	Yes	3.025	-0.004	3.0	GoodResponse	0	0.198	n/a	3	8	ButtonPress	AvoidedLoss	True
90.855	0.38	Lose2	1.0	n/a	Yes	3.025	n/a	n/a	GoodResponse	0	n/a	n/a	3	8	Blank	AvoidedLoss	True
91.223	1.45	Lose2	1.0	n/a	Yes	3.025	n/a	5.0	GoodResponse	0	0.019	90.242	3	8	Feedback	AvoidedLoss	True
92.677	3.025	Lose2	1.0	n/a	Yes	3.025	n/a	n/a	GoodResponse	0	0.0	n/a	3	8	ISIslide	AvoidedLoss	True
95.72	0.25	Lose2	1.0	0.0	Yes	3.13	0.02	n/a	GoodResponse	0	n/a	n/a	3	9	Cue	AvoidedLoss	True
95.971	3.95	Lose2	1.0	0.0	Yes	3.13	0.001	n/a	GoodResponse	0	n/a	n/a	3	9	Fixation	AvoidedLoss	True
99.916	0.31	Lose2	1.0	0.004	Yes	3.13	-0.004	3.0	GoodResponse	0	0.179	99.095	3	9	Target	AvoidedLoss	True
100.095	0.3	Lose2	1.0	0.004	Yes	3.13	-0.004	3.0	GoodResponse	0	0.179	n/a	3	9	ButtonPress	AvoidedLoss	True
100.233	0.39	Lose2	1.0	n/a	Yes	3.13	n/a	n/a	GoodResponse	0	n/a	n/a	3	9	Blank	AvoidedLoss	True
100.618	1.45	Lose2	1.0	n/a	Yes	3.13	n/a	5.0	GoodResponse	0	0.039	99.657	3	9	Feedback	AvoidedLoss	True
102.072	3.13	Lose2	1.0	n/a	Yes	3.13	n/a	n/a	GoodResponse	0	0.0	n/a	3	9	ISIslide	AvoidedLoss	True
105.215	0.25	Control	1.0	0.0	Yes	3.285	0.015	n/a	GoodResponse	0	n/a	n/a	3	10	Cue	Neutral	True
105.466	4.0	Control	1.0	0.0	Yes	3.285	0.001	n/a	GoodResponse	0	n/a	n/a	3	10	Fixation	Neutral	True
109.461	0.3	Control	1.0	0.004	Yes	3.285	-0.004	3.0	GoodResponse	0	0.224	108.685	3	10	Target	Neutral	True
109.685	0.3	Control	1.0	0.004	Yes	3.285	-0.004	3.0	GoodResponse	0	0.224	n/a	3	10	ButtonPress	Neutral	True
109.762	0.4	Control	1.0	n/a	Yes	3.285	n/a	n/a	GoodResponse	0	n/a	n/a	3	10	Blank	Neutral	True
110.163	1.45	Control	1.0	n/a	Yes	3.285	n/a	5.0	GoodResponse	0	0.008	109.171	3	10	Feedback	Neutral	True
111.617	3.285	Control	1.0	n/a	Yes	3.285	n/a	n/a	GoodResponse	0	0.0	n/a	3	10	ISIslide	Neutral	True
114.927	0.25	Lose2	1.0	0.0	Yes	2.723	0.027	n/a	GoodResponse	0	n/a	n/a	3	11	Cue	AvoidedLoss	True
115.178	4.05	Lose2	1.0	0.0	Yes	2.723	0.001	n/a	GoodResponse	0	n/a	n/a	3	11	Fixation	AvoidedLoss	True
119.224	0.29	Lose2	1.0	0.003	Yes	2.723	-0.003	3.0	GoodResponse	0	0.19	118.414	3	11	Target	AvoidedLoss	True
119.414	0.3	Lose2	1.0	0.003	Yes	2.723	-0.003	3.0	GoodResponse	0	0.19	n/a	3	11	ButtonPress	AvoidedLoss	True
119.524	0.41	Lose2	1.0	n/a	Yes	2.723	n/a	n/a	GoodResponse	0	n/a	n/a	3	11	Blank	AvoidedLoss	True
119.926	1.45	Lose2	1.0	n/a	Yes	2.723	n/a	5.0	GoodResponse	0	0.049	118.975	3	11	Feedback	AvoidedLoss	True
121.38	2.723	Lose2	1.0	n/a	Yes	2.723	n/a	n/a	GoodResponse	0	0.0	n/a	3	11	ISIslide	AvoidedLoss	True
124.121	0.25	Control	1.0	0.001	Yes	2.979	0.021	n/a	GoodResponse	0	n/a	n/a	3	12	Cue	Neutral	True
124.372	3.9	Control	1.0	0.0	Yes	2.979	0.001	n/a	GoodResponse	0	n/a	n/a	3	12	Fixation	Neutral	True
128.267	0.28	Control	1.0	0.004	Yes	2.979	-0.004	3.0	GoodResponse	0	0.198	127.465	3	12	Target	Neutral	True
128.465	0.3	Control	1.0	0.004	Yes	2.979	-0.004	3.0	GoodResponse	0	0.198	n/a	3	12	ButtonPress	Neutral	True
128.551	0.42	Control	1.0	n/a	Yes	2.979	n/a	n/a	GoodResponse	0	n/a	n/a	3	12	Blank	Neutral	True
128.969	1.45	Control	1.0	n/a	Yes	2.979	n/a	5.0	GoodResponse	0	0.029	127.998	3	12	Feedback	Neutral	True
130.424	2.979	Control	1.0	n/a	Yes	2.979	n/a	n/a	GoodResponse	0	0.0	n/a	3	12	ISIslide	Neutral	True
133.416	0.25	Control	1.0	0.0	Yes	2.784	0.016	n/a	GoodResponse	0	n/a	n/a	3	13	Cue	Neutral	False
133.667	4.0	Control	1.0	0.0	Yes	2.784	0.001	3.0	GoodResponse	0	3.994	136.661	3	13	Fixation	Neutral	False
137.661	0.3	Control	1.0	0.0	Yes	2.784	0.001	3.0	GoodResponse	0	3.994	n/a	3	13	ButtonPress	Neutral	False
137.662	0.27	Control	1.0	0.004	Yes	2.784	-0.004	3.0	GoodResponse	0	0.264	136.926	3	13	Target	Neutral	False
137.926	0.3	Control	1.0	0.004	Yes	2.784	-0.004	3.0	GoodResponse	0	0.264	n/a	3	13	ButtonPress	Neutral	False
137.946	0.43	Control	1.0	n/a	Yes	2.784	n/a	n/a	GoodResponse	0	n/a	n/a	3	13	Blank	Neutral	False
138.364	1.45	Control	1.0	n/a	Yes	2.784	n/a	5.0	GoodResponse	0	0.049	137.413	3	13	Feedback	Neutral	False
139.818	2.784	Control	1.0	n/a	Yes	2.784	n/a	n/a	GoodResponse	0	0.0	n/a	3	13	ISIslide	Neutral	False
142.627	0.25	Win2	1.0	0.0	Yes	2.673	0.027	n/a	GoodResponse	1	n/a	n/a	4	14	Cue	Win	True
142.878	4.1	Win2	1.0	0.0	Yes	2.673	0.001	n/a	GoodResponse	1	n/a	n/a	4	14	Fixation	Win	True
146.973	0.26	Win2	1.0	0.004	Yes	2.673	-0.004	3.0	GoodResponse	1	0.166	146.139	4	14	Target	Win	True
147.139	0.3	Win2	1.0	0.004	Yes	2.673	-0.004	3.0	GoodResponse	1	0.166	n/a	4	14	ButtonPress	Win	True
147.241	0.44	Win2	1.0	n/a	Yes	2.673	n/a	n/a	GoodResponse	1	n/a	n/a	4	14	Blank	Win	True
147.675	1.45	Win2	1.0	n/a	Yes	2.673	n/a	5.0	GoodResponse	1	0.008	146.683	4	14	Feedback	Win	True
149.13	2.673	Win2	1.0	n/a	Yes	2.673	n/a	n/a	GoodResponse	1	0.0	n/a	4	14	ISIslide	Win	True
151.821	0.25	Control	0.9375	0.0	No	2.979	0.021	n/a	NoResponse	0	n/a	n/a	4	15	Cue	Neutral	True
152.072	4.0	Control	0.9375	0.0	No	2.979	0.001	n/a	NoResponse	0	n/a	n/a	4	15	Fixation	Neutral	True
156.067	0.25	Control	0.9375	0.004	No	2.979	-0.004	3.0	NoResponse	0	0.277	155.344	4	15	Target	Neutral	True
156.318	0.45	Control	0.9375	n/a	No	2.979	n/a	n/a	NoResponse	0	n/a	n/a	4	15	Blank	Neutral	True
156.344	0.3	Control	0.9375	0.004	No	2.979	-0.004	3.0	NoResponse	0	0.277	n/a	4	15	ButtonPress	Neutral	True
156.769	1.45	Control	0.9375	n/a	No	2.979	n/a	5.0	NoResponse	0	0.034	155.803	4	15	Feedback	Neutral	True
158.224	2.979	Control	0.9375	n/a	No	2.979	n/a	n/a	NoResponse	0	0.0	n/a	4	15	ISIslide	Neutral	True
161.216	0.25	Win2	0.8824	0.0	No	2.884	0.016	n/a	PrematurePress	0	n/a	n/a	4	16	Cue	MissedWin	True
161.467	4.0	Win2	0.8824	0.0	No	2.884	0.001	n/a	PrematurePress	0	n/a	n/a	4	16	Fixation	MissedWin	True
165.462	0.24	Win2	0.8824	0.004	No	2.884	-0.004	3.0	PrematurePress	0	0.068	164.53	4	16	Target	MissedWin	True
165.53	0.3	Win2	0.8824	0.004	No	2.884	-0.004	3.0	PrematurePress	0	0.068	n/a	4	16	ButtonPress	MissedWin	True
165.713	0.46	Win2	0.8824	n/a	No	2.884	n/a	n/a	PrematurePress	0	n/a	n/a	4	16	Blank	MissedWin	True
166.164	1.45	Win2	0.8824	n/a	No	2.884	n/a	5.0	PrematurePress	0	0.008	165.172	4	16	Feedback	MissedWin	True
167.618	2.884	Win2	0.8824	n/a	No	2.884	n/a	n/a	PrematurePress	0	0.0	n/a	4	16	ISIslide	MissedWin	True
170.527	0.25	Lose2	0.8889	0.0	Yes	2.723	0.027	n/a	GoodResponse	0	n/a	n/a	4	17	Cue	AvoidedLoss	True
170.778	3.95	Lose2	0.8889	0.0	Yes	2.723	0.001	n/a	GoodResponse	0	n/a	n/a	4	17	Fixation	AvoidedLoss	True
174.723	0.23	Lose2	0.8889	0.004	Yes	2.723	-0.004	3.0	GoodResponse	0	0.189	173.912	4	17	Target	AvoidedLoss	True
174.912	0.3	Lose2	0.8889	0.004	Yes	2.723	-0.004	3.0	GoodResponse	0	0.189	n/a	4	17	ButtonPress	AvoidedLoss	True
174.957	0.47	Lose2	0.8889	n/a	Yes	2.723	n/a	n/a	GoodResponse	0	n/a	n/a	4	17	Blank	AvoidedLoss	True
175.425	1.45	Lose2	0.8889	n/a	Yes	2.723	n/a	5.0	GoodResponse	0	0.013	174.438	4	17	Feedback	AvoidedLoss	True
176.879	2.723	Lose2	0.8889	n/a	Yes	2.723	n/a	n/a	GoodResponse	0	0.0	n/a	4	17	ISIslide	AvoidedLoss	True
179.621	0.25	Lose2	0.8946999999999999	0.0	Yes	2.729	0.021	n/a	GoodResponse	0	n/a	n/a	4	18	Cue	AvoidedLoss	True
179.872	4.05	Lose2	0.8946999999999999	0.0	Yes	2.729	0.001	n/a	GoodResponse	0	n/a	n/a	4	18	Fixation	AvoidedLoss	True
183.917	0.22	Lose2	0.8946999999999999	0.004	Yes	2.729	-0.004	3.0	GoodResponse	0	0.193	183.11	4	18	Target	AvoidedLoss	True
184.11	0.3	Lose2	0.8946999999999999	0.004	Yes	2.729	-0.004	3.0	GoodResponse	0	0.193	n/a	4	18	ButtonPress	AvoidedLoss	True
184.151	0.48	Lose2	0.8946999999999999	n/a	Yes	2.729	n/a	n/a	GoodResponse	0	n/a	n/a	4	18	Blank	AvoidedLoss	True
184.619	1.45	Lose2	0.8946999999999999	n/a	Yes	2.729	n/a	5.0	GoodResponse	0	0.037	183.656	4	18	Feedback	AvoidedLoss	True
186.074	2.729	Lose2	0.8946999999999999	n/a	Yes	2.729	n/a	n/a	GoodResponse	0	0.0	n/a	4	18	ISIslide	AvoidedLoss	True
188.815	0.25	Control	0.9	0.0	Yes	2.935	0.015	n/a	GoodResponse	0	n/a	n/a	4	19	Cue	Neutral	True
189.066	3.95	Control	0.9	0.0	Yes	2.935	0.001	n/a	GoodResponse	0	n/a	n/a	4	19	Fixation	Neutral	True
193.011	0.21	Control	0.9	0.004	Yes	2.935	-0.004	3.0	GoodResponse	0	0.194	192.205	4	19	Target	Neutral	True
193.205	0.3	Control	0.9	0.004	Yes	2.935	-0.004	3.0	GoodResponse	0	0.194	n/a	4	19	ButtonPress	Neutral	True
193.228	0.49	Control	0.9	n/a	Yes	2.935	n/a	n/a	GoodResponse	0	n/a	n/a	4	19	Blank	Neutral	True
193.713	1.45	Control	0.9	n/a	Yes	2.935	n/a	5.0	GoodResponse	0	0.016	192.729	4	19	Feedback	Neutral	True
195.167	2.935	Control	0.9	n/a	Yes	2.935	n/a	n/a	GoodResponse	0	0.0	n/a	4	19	ISIslide	Neutral	True
198.126	0.25	Control	0.8571	0.0	No	2.624	0.026	n/a	PrematurePress	0	n/a	n/a	4	20	Cue	Neutral	False
198.377	4.05	Control	0.8571	0.0	No	2.624	0.001	3.0	PrematurePress	0	3.85	201.227	4	20	Fixation	Neutral	False
202.227	0.3	Control	0.8571	0.0	No	2.624	0.001	3.0	PrematurePress	0	3.85	n/a	4	20	ButtonPress	Neutral	False
202.423	0.2	Control	0.8571	0.003	No	2.624	-0.003	3.0	PrematurePress	0	0.049	201.472	4	20	Target	Neutral	False
202.472	0.3	Control	0.8571	0.003	No	2.624	-0.003	3.0	PrematurePress	0	0.049	n/a	4	20	ButtonPress	Neutral	False
202.623	0.5	Control	0.8571	n/a	No	2.624	n/a	n/a	PrematurePress	0	n/a	n/a	4	20	Blank	Neutral	False
203.125	1.45	Control	0.8571	n/a	No	2.624	n/a	5.0	PrematurePress	0	0.019	202.144	4	20	Feedback	Neutral	False
204.579	2.624	Control	0.8571	n/a	No	2.624	n/a	n/a	PrematurePress	0	0.0	n/a	4	20	ISIslide	Neutral	False
207.22	0.25	Control	0.8181999999999999	0.0	No	2.78	0.02	n/a	NoResponse	0	n/a	n/a	4	21	Cue	Neutral	False
207.471	4.1	Control	0.8181999999999999	0.0	No	2.78	0.001	3.0	NoResponse	0	4.089	210.56	4	21	Fixation	Neutral	False
211.56	0.3	Control	0.8181999999999999	0.0	No	2.78	0.001	3.0	NoResponse	0	4.089	n/a	4	21	ButtonPress	Neutral	False
211.567	0.19	Control	0.8181999999999999	0.003	No	2.78	-0.003	3.0	NoResponse	0	0.216	210.783	4	21	Target	Neutral	False
211.767	0.51	Control	0.8181999999999999	n/a	No	2.78	n/a	n/a	NoResponse	0	n/a	n/a	4	21	Blank	Neutral	False
211.783	0.3	Control	0.8181999999999999	0.003	No	2.78	-0.003	3.0	NoResponse	0	0.216	n/a	4	21	ButtonPress	Neutral	False
212.269	1.45	Control	0.8181999999999999	n/a	No	2.78	n/a	5.0	NoResponse	0	0.046	211.315	4	21	Feedback	Neutral	False
213.723	2.78	Control	0.8181999999999999	n/a	No	2.78	n/a	n/a	NoResponse	0	0.0	n/a	4	21	ISIslide	Neutral	False
216.515	0.25	Control	0.7826000000000001	0.0	No	2.785	0.015	n/a	NoResponse	0	n/a	n/a	4	22	Cue	Neutral	True
216.765	4.0	Control	0.7826000000000001	0.001	No	2.785	0.0	n/a	NoResponse	0	n/a	n/a	4	22	Fixation	Neutral	True
220.761	0.18	Control	0.7826000000000001	0.004	No	2.785	-0.004	3.0	NoResponse	0	0.241	220.002	4	22	Target	Neutral	True
220.945	0.52	Control	0.7826000000000001	n/a	No	2.785	n/a	n/a	NoResponse	0	n/a	n/a	4	22	Blank	Neutral	True
221.002	0.3	Control	0.7826000000000001	0.004	No	2.785	-0.004	3.0	NoResponse	0	0.241	n/a	4	22	ButtonPress	Neutral	True
221.463	1.45	Control	0.7826000000000001	n/a	No	2.785	n/a	5.0	NoResponse	0	0.023	220.486	4	22	Feedback	Neutral	True
222.917	2.785	Control	0.7826000000000001	n/a	No	2.785	n/a	n/a	NoResponse	0	0.0	n/a	4	22	ISIslide	Neutral	True
225.726	0.25	Control	0.75	0.0	No	2.774	0.026	n/a	NoResponse	0	n/a	n/a	4	23	Cue	Neutral	True
225.976	3.9	Control	0.75	0.0	No	2.774	0.0	n/a	NoResponse	0	n/a	n/a	4	23	Fixation	Neutral	True
229.888	0.17	Control	0.75	0.0	No	2.774	0.012	3.0	NoResponse	0	0.268	229.156	4	23	Target	Neutral	True
230.055	0.53	Control	0.75	n/a	No	2.774	n/a	n/a	NoResponse	0	n/a	n/a	4	23	Blank	Neutral	True
230.156	0.3	Control	0.75	0.0	No	2.774	0.012	3.0	NoResponse	0	0.268	n/a	4	23	ButtonPress	Neutral	True
230.573	1.45	Control	0.75	n/a	No	2.774	n/a	5.0	NoResponse	0	0.034	229.607	4	23	Feedback	Neutral	True
232.028	2.774	Control	0.75	n/a	No	2.774	n/a	n/a	NoResponse	0	0.0	n/a	4	23	ISIslide	Neutral	True
234.82	0.25	Win2	0.72	0.0	No	3.13	0.02	n/a	PrematurePress	0	n/a	n/a	4	24	Cue	MissedWin	False
235.07	3.95	Win2	0.72	0.0	No	3.13	0.0	3.0	PrematurePress	0	3.727	237.797	4	24	Fixation	MissedWin	False
238.797	0.3	Win2	0.72	0.0	No	3.13	0.0	3.0	PrematurePress	0	3.727	n/a	4	24	ButtonPress	MissedWin	False
239.032	0.16	Win2	0.72	0.0	No	3.13	0.012	3.0	PrematurePress	0	0.023	238.055	4	24	Target	MissedWin	False
239.055	0.3	Win2	0.72	0.0	No	3.13	0.012	3.0	PrematurePress	0	0.023	n/a	4	24	ButtonPress	MissedWin	False
239.183	0.54	Win2	0.72	n/a	No	3.13	n/a	n/a	PrematurePress	0	n/a	n/a	4	24	Blank	MissedWin	False
239.718	1.45	Win2	0.72	n/a	No	3.13	n/a	5.0	PrematurePress	0	0.011	238.729	4	24	Feedback	MissedWin	False
241.172	3.13	Win2	0.72	n/a	No	3.13	n/a	n/a	PrematurePress	0	0.0	n/a	4	24	ISIslide	MissedWin	False
244.331	0.25	Win2	0.6923	0.0	No	3.069	0.031	n/a	NoResponse	0	n/a	n/a	4	25	Cue	MissedWin	True
244.582	4.0	Win2	0.6923	0.0	No	3.069	0.001	n/a	NoResponse	0	n/a	n/a	4	25	Fixation	MissedWin	True
248.577	0.15	Win2	0.6923	0.004	No	3.069	-0.004	3.0	NoResponse	0	0.203	247.78	4	25	Target	MissedWin	True
248.728	0.55	Win2	0.6923	n/a	No	3.069	n/a	n/a	NoResponse	0	n/a	n/a	4	25	Blank	MissedWin	True
248.78	0.3	Win2	0.6923	0.004	No	3.069	-0.004	3.0	NoResponse	0	0.203	n/a	4	25	ButtonPress	MissedWin	True
249.279	1.45	Win2	0.6923	n/a	No	3.069	n/a	5.0	NoResponse	0	0.011	248.29	4	25	Feedback	MissedWin	True
250.734	3.069	Win2	0.6923	n/a	No	3.069	n/a	n/a	NoResponse	0	0.0	n/a	4	25	ISIslide	MissedWin	True
253.826	0.25	Win2	0.6667000000000001	0.0	No	2.924	0.026	n/a	NoResponse	0	n/a	n/a	4	26	Cue	MissedWin	True
254.077	3.95	Win2	0.6667000000000001	0.0	No	2.924	0.001	n/a	NoResponse	0	n/a	n/a	4	26	Fixation	MissedWin	True
258.022	0.15	Win2	0.6667000000000001	0.004	No	2.924	-0.004	3.0	NoResponse	0	0.178	257.2	4	26	Target	MissedWin	True
258.173	0.55	Win2	0.6667000000000001	n/a	No	2.924	n/a	n/a	NoResponse	0	n/a	n/a	4	26	Blank	MissedWin	True
258.2	0.3	Win2	0.6667000000000001	0.004	No	2.924	-0.004	3.0	NoResponse	0	0.178	n/a	4	26	ButtonPress	MissedWin	True
258.724	1.45	Win2	0.6667000000000001	n/a	No	2.924	n/a	5.0	NoResponse	0	0.03	257.754	4	26	Feedback	MissedWin	True
260.179	2.924	Win2	0.6667000000000001	n/a	No	2.924	n/a	n/a	NoResponse	0	0.0	n/a	4	26	ISIslide	MissedWin	True
263.121	0.25	Lose2	0.6429	0.0	No	2.829	0.021	n/a	NoResponse	-1	n/a	n/a	3	27	Cue	Loss	True
263.372	4.05	Lose2	0.6429	0.0	No	2.829	0.001	n/a	NoResponse	-1	n/a	n/a	3	27	Fixation	Loss	True
267.417	0.15	Lose2	0.6429	0.004	No	2.829	-0.004	3.0	NoResponse	-1	0.167	266.584	3	27	Target	Loss	True
267.568	0.55	Lose2	0.6429	n/a	No	2.829	n/a	n/a	NoResponse	-1	n/a	n/a	3	27	Blank	Loss	True
267.584	0.3	Lose2	0.6429	0.004	No	2.829	-0.004	3.0	NoResponse	-1	0.167	n/a	3	27	ButtonPress	Loss	True
268.119	1.45	Lose2	0.6429	n/a	No	2.829	n/a	5.0	NoResponse	-1	0.001	267.12	3	27	Feedback	Loss	True
269.574	2.829	Lose2	0.6429	n/a	No	2.829	n/a	n/a	NoResponse	-1	0.0	n/a	3	27	ISIslide	Loss	True
272.415	0.25	Control	0.6207	0.001	No	2.835	0.015	n/a	NoResponse	0	n/a	n/a	3	28	Cue	Neutral	True
272.666	4.05	Control	0.6207	0.0	No	2.835	0.001	n/a	NoResponse	0	n/a	n/a	3	28	Fixation	Neutral	True
276.712	0.16	Control	0.6207	0.003	No	2.835	-0.003	3.0	NoResponse	0	0.339	276.051	3	28	Target	Neutral	True
276.879	0.54	Control	0.6207	n/a	No	2.835	n/a	n/a	NoResponse	0	n/a	n/a	3	28	Blank	Neutral	True
277.051	0.3	Control	0.6207	0.003	No	2.835	-0.003	3.0	NoResponse	0	0.339	n/a	3	28	ButtonPress	Neutral	True
277.414	1.45	Control	0.6207	n/a	No	2.835	n/a	5.0	NoResponse	0	0.022	276.436	3	28	Feedback	Neutral	True
278.868	2.835	Control	0.6207	n/a	No	2.835	n/a	3.0	NoResponse	0	0.959	n/a	3	28	ISIslide	Neutral	True
281.71	0.25	Lose2	0.6	0.0	No	2.84	0.01	n/a	LatePress	-1	n/a	n/a	2	29	Cue	Loss	True
281.961	3.95	Lose2	0.6	0.0	No	2.84	0.001	n/a	LatePress	-1	n/a	n/a	2	29	Fixation	Loss	True
285.906	0.17	Lose2	0.6	0.004	No	2.84	-0.004	3.0	LatePress	-1	0.176	285.082	2	29	Target	Loss	True
286.082	0.3	Lose2	0.6	0.004	No	2.84	-0.004	3.0	LatePress	-1	0.176	n/a	2	29	ButtonPress	Loss	True
286.09	0.53	Lose2	0.6	n/a	No	2.84	n/a	n/a	LatePress	-1	n/a	n/a	2	29	Blank	Loss	True
286.608	1.45	Lose2	0.6	n/a	No	2.84	n/a	5.0	LatePress	-1	0.047	285.655	2	29	Feedback	Loss	True
288.062	2.84	Lose2	0.6	n/a	No	2.84	n/a	n/a	LatePress	-1	0.0	n/a	2	29	ISIslide	Loss	True
290.921	0.25	Win2	0.6129	0.0	Yes	2.779	0.021	n/a	GoodResponse	1	n/a	n/a	3	30	Cue	Win	True
291.172	3.9	Win2	0.6129	0.0	Yes	2.779	0.001	n/a	GoodResponse	1	n/a	n/a	3	30	Fixation	Win	True
295.067	0.18	Win2	0.6129	0.004	Yes	2.779	-0.004	3.0	GoodResponse	1	0.159	294.226	3	30	Target	Win	True
295.226	0.3	Win2	0.6129	0.004	Yes	2.779	-0.004	3.0	GoodResponse	1	0.159	n/a	3	30	ButtonPress	Win	True
295.25	0.52	Win2	0.6129	n/a	Yes	2.779	n/a	n/a	GoodResponse	1	n/a	n/a	3	30	Blank	Win	True
295.769	1.45	Win2	0.6129	n/a	Yes	2.779	n/a	5.0	GoodResponse	1	0.008	294.777	3	30	Feedback	Win	True
297.223	2.779	Win2	0.6129	n/a	Yes	2.779	n/a	n/a	GoodResponse	1	0.0	n/a	3	30	ISIslide	Win	True
300.015	0.25	Lose2	0.5938	0.0	No	2.835	0.015	n/a	NoResponse	-1	n/a	n/a	2	31	Cue	Loss	True
300.265	4.05	Lose2	0.5938	0.001	No	2.835	0.0	n/a	NoResponse	-1	n/a	n/a	2	31	Fixation	Loss	True
304.311	0.19	Lose2	0.5938	0.004	No	2.835	-0.004	3.0	NoResponse	-1	0.209	303.52	2	31	Target	Loss	True
304.511	0.51	Lose2	0.5938	n/a	No	2.835	n/a	n/a	NoResponse	-1	n/a	n/a	2	31	Blank	Loss	True
304.52	0.3	Lose2	0.5938	0.004	No	2.835	-0.004	3.0	NoResponse	-1	0.209	n/a	2	31	ButtonPress	Loss	True
305.013	1.45	Lose2	0.5938	n/a	No	2.835	n/a	5.0	NoResponse	-1	0.033	304.046	2	31	Feedback	Loss	True
306.467	2.835	Lose2	0.5938	n/a	No	2.835	n/a	n/a	NoResponse	-1	0.0	n/a	2	31	ISIslide	Loss	True
309.326	0.25	Lose2	0.6061	0.0	Yes	2.624	0.026	n/a	GoodResponse	0	n/a	n/a	2	32	Cue	AvoidedLoss	True
309.577	4.15	Lose2	0.6061	0.0	Yes	2.624	0.001	n/a	GoodResponse	0	n/a	n/a	2	32	Fixation	AvoidedLoss	True
313.722	0.2	Lose2	0.6061	0.004	Yes	2.624	-0.004	3.0	GoodResponse	0	0.174	312.896	2	32	Target	AvoidedLoss	True
313.896	0.3	Lose2	0.6061	0.004	Yes	2.624	-0.004	3.0	GoodResponse	0	0.174	n/a	2	32	ButtonPress	AvoidedLoss	True
313.923	0.5	Lose2	0.6061	n/a	Yes	2.624	n/a	n/a	GoodResponse	0	n/a	n/a	2	32	Blank	AvoidedLoss	True
314.424	1.45	Lose2	0.6061	n/a	Yes	2.624	n/a	5.0	GoodResponse	0	0.036	313.46	2	32	Feedback	AvoidedLoss	True
315.879	2.624	Lose2	0.6061	n/a	Yes	2.624	n/a	n/a	GoodResponse	0	0.0	n/a	2	32	ISIslide	AvoidedLoss	True
318.52	0.25	Win2	0.6175999999999999	0.0	Yes	2.68	0.02	n/a	GoodResponse	1	n/a	n/a	3	33	Cue	Win	True
318.771	4.0	Win2	0.6175999999999999	0.0	Yes	2.68	0.001	n/a	GoodResponse	1	n/a	n/a	3	33	Fixation	Win	True
322.766	0.21	Win2	0.6175999999999999	0.004	Yes	2.68	-0.004	3.0	GoodResponse	1	0.167	321.933	3	33	Target	Win	True
322.933	0.3	Win2	0.6175999999999999	0.004	Yes	2.68	-0.004	3.0	GoodResponse	1	0.167	n/a	3	33	ButtonPress	Win	True
322.983	0.49	Win2	0.6175999999999999	n/a	Yes	2.68	n/a	n/a	GoodResponse	1	n/a	n/a	3	33	Blank	Win	True
323.468	1.45	Win2	0.6175999999999999	n/a	Yes	2.68	n/a	5.0	GoodResponse	1	0.017	322.485	3	33	Feedback	Win	True
324.923	2.68	Win2	0.6175999999999999	n/a	Yes	2.68	n/a	n/a	GoodResponse	1	0.0	n/a	3	33	ISIslide	Win	True
327.614	0.25	Lose2	0.6	0.0	No	2.636	0.014	n/a	NoResponse	-1	n/a	n/a	2	34	Cue	Loss	True
327.865	4.05	Lose2	0.6	0.0	No	2.636	0.001	n/a	NoResponse	-1	n/a	n/a	2	34	Fixation	Loss	True
331.91	0.22	Lose2	0.6	0.004	No	2.636	-0.004	3.0	NoResponse	-1	0.257	331.167	2	34	Target	Loss	True
332.144	0.48	Lose2	0.6	n/a	No	2.636	n/a	n/a	NoResponse	-1	n/a	n/a	2	34	Blank	Loss	True
332.167	0.3	Lose2	0.6	0.004	No	2.636	-0.004	3.0	NoResponse	-1	0.257	n/a	2	34	ButtonPress	Loss	True
332.612	1.45	Lose2	0.6	n/a	No	2.636	n/a	5.0	NoResponse	-1	0.043	331.655	2	34	Feedback	Loss	True
334.067	2.636	Lose2	0.6	n/a	No	2.636	n/a	n/a	NoResponse	-1	0.0	n/a	2	34	ISIslide	Loss	True
336.725	0.25	Lose2	0.6111	0.0	Yes	2.675	0.025	n/a	GoodResponse	0	n/a	n/a	2	35	Cue	AvoidedLoss	True
336.975	4.0	Lose2	0.6111	0.0	Yes	2.675	0.0	n/a	GoodResponse	0	n/a	n/a	2	35	Fixation	AvoidedLoss	True
340.971	0.23	Lose2	0.6111	0.004	Yes	2.675	-0.004	3.0	GoodResponse	0	0.159	340.13	2	35	Target	AvoidedLoss	True
341.13	0.3	Lose2	0.6111	0.004	Yes	2.675	-0.004	3.0	GoodResponse	0	0.159	n/a	2	35	ButtonPress	AvoidedLoss	True
341.205	0.47	Lose2	0.6111	n/a	Yes	2.675	n/a	n/a	GoodResponse	0	n/a	n/a	2	35	Blank	AvoidedLoss	True
341.673	1.45	Lose2	0.6111	n/a	Yes	2.675	n/a	5.0	GoodResponse	0	0.008	340.681	2	35	Feedback	AvoidedLoss	True
343.127	2.675	Lose2	0.6111	n/a	Yes	2.675	n/a	n/a	GoodResponse	0	0.0	n/a	2	35	ISIslide	AvoidedLoss	True
345.818	0.25	Control	0.5946	0.001	No	2.682	0.018	n/a	PrematurePress	0	n/a	n/a	2	36	Cue	Neutral	False
346.069	4.0	Control	0.5946	0.0	No	2.682	0.001	3.0	PrematurePress	0	3.812	348.881	2	36	Fixation	Neutral	False
349.881	0.3	Control	0.5946	0.0	No	2.682	0.001	3.0	PrematurePress	0	3.812	n/a	2	36	ButtonPress	Neutral	False
350.064	0.24	Control	0.5946	0.004	No	2.682	-0.004	3.0	PrematurePress	0	0.062	349.126	2	36	Target	Neutral	False
350.126	0.3	Control	0.5946	0.004	No	2.682	-0.004	3.0	PrematurePress	0	0.062	n/a	2	36	ButtonPress	Neutral	False
350.315	0.46	Control	0.5946	n/a	No	2.682	n/a	n/a	PrematurePress	0	n/a	n/a	2	36	Blank	Neutral	False
350.767	1.45	Control	0.5946	n/a	No	2.682	n/a	5.0	PrematurePress	0	0.034	349.801	2	36	Feedback	Neutral	False
352.221	2.682	Control	0.5946	n/a	No	2.682	n/a	n/a	PrematurePress	0	0.0	n/a	2	36	ISIslide	Neutral	False
354.929	0.25	Win2	0.6053000000000001	0.0	Yes	2.871	0.029	n/a	GoodResponse	1	n/a	n/a	3	37	Cue	Win	True
355.18	4.0	Win2	0.6053000000000001	0.0	Yes	2.871	0.001	n/a	GoodResponse	1	n/a	n/a	3	37	Fixation	Win	True
359.175	0.25	Win2	0.6053000000000001	0.004	Yes	2.871	-0.004	3.0	GoodResponse	1	0.103	358.278	3	37	Target	Win	True
359.278	0.3	Win2	0.6053000000000001	0.004	Yes	2.871	-0.004	3.0	GoodResponse	1	0.103	n/a	3	37	ButtonPress	Win	True
359.426	0.45	Win2	0.6053000000000001	n/a	Yes	2.871	n/a	n/a	GoodResponse	1	n/a	n/a	3	37	Blank	Win	True
359.877	1.45	Win2	0.6053000000000001	n/a	Yes	2.871	n/a	5.0	GoodResponse	1	0.046	358.923	3	37	Feedback	Win	True
361.332	2.871	Win2	0.6053000000000001	n/a	Yes	2.871	n/a	n/a	GoodResponse	1	0.0	n/a	3	37	ISIslide	Win	True
364.224	0.25	Lose2	0.6154	0.0	Yes	2.826	0.024	n/a	GoodResponse	0	n/a	n/a	3	38	Cue	AvoidedLoss	True
364.474	3.95	Lose2	0.6154	0.0	Yes	2.826	0.0	n/a	GoodResponse	0	n/a	n/a	3	38	Fixation	AvoidedLoss	True
368.436	0.26	Lose2	0.6154	0.0	Yes	2.826	0.012	3.0	GoodResponse	0	0.21	367.646	3	38	Target	AvoidedLoss	True
368.646	0.3	Lose2	0.6154	0.0	Yes	2.826	0.012	3.0	GoodResponse	0	0.21	n/a	3	38	ButtonPress	AvoidedLoss	True
368.687	0.44	Lose2	0.6154	n/a	Yes	2.826	n/a	n/a	GoodResponse	0	n/a	n/a	3	38	Blank	AvoidedLoss	True
369.122	1.45	Lose2	0.6154	n/a	Yes	2.826	n/a	5.0	GoodResponse	0	0.021	368.143	3	38	Feedback	AvoidedLoss	True
370.576	2.826	Lose2	0.6154	n/a	Yes	2.826	n/a	n/a	GoodResponse	0	0.0	n/a	3	38	ISIslide	AvoidedLoss	True
373.418	0.25	Win2	0.625	0.0	Yes	2.982	0.018	n/a	GoodResponse	1	n/a	n/a	4	39	Cue	Win	True
373.668	4.1	Win2	0.625	0.001	Yes	2.982	0.0	n/a	GoodResponse	1	n/a	n/a	4	39	Fixation	Win	True
377.764	0.27	Win2	0.625	0.004	Yes	2.982	-0.004	3.0	GoodResponse	1	0.178	376.942	4	39	Target	Win	True
377.942	0.3	Win2	0.625	0.004	Yes	2.982	-0.004	3.0	GoodResponse	1	0.178	n/a	4	39	ButtonPress	Win	True
378.048	0.43	Win2	0.625	n/a	Yes	2.982	n/a	n/a	GoodResponse	1	n/a	n/a	4	39	Blank	Win	True
378.466	1.45	Win2	0.625	n/a	Yes	2.982	n/a	5.0	GoodResponse	1	0.042	377.508	4	39	Feedback	Win	True
379.921	2.982	Win2	0.625	n/a	Yes	2.982	n/a	n/a	GoodResponse	1	0.0	n/a	4	39	ISIslide	Win	True
382.93	0.25	Win2	0.6341	0.0	Yes	2.72	0.03	n/a	GoodResponse	1	n/a	n/a	5	40	Cue	Win	True
383.18	3.95	Win2	0.6341	0.0	Yes	2.72	0.0	n/a	GoodResponse	1	n/a	n/a	5	40	Fixation	Win	True
387.142	0.28	Win2	0.6341	0.0	Yes	2.72	0.012	3.0	GoodResponse	1	0.203	386.345	5	40	Target	Win	True
387.345	0.3	Win2	0.6341	0.0	Yes	2.72	0.012	3.0	GoodResponse	1	0.203	n/a	5	40	ButtonPress	Win	True
387.41	0.42	Win2	0.6341	n/a	Yes	2.72	n/a	n/a	GoodResponse	1	n/a	n/a	5	40	Blank	Win	True
387.828	1.45	Win2	0.6341	n/a	Yes	2.72	n/a	5.0	GoodResponse	1	0.046	386.874	5	40	Feedback	Win	True
389.282	2.72	Win2	0.6341	n/a	Yes	2.72	n/a	n/a	GoodResponse	1	0.0	n/a	5	40	ISIslide	Win	True
392.023	0.25	Win2	0.619	0.001	No	2.777	0.023	n/a	NoResponse	0	n/a	n/a	5	41	Cue	MissedWin	True
392.274	3.9	Win2	0.619	0.0	No	2.777	0.001	3.0	NoResponse	0	3.574	394.848	5	41	Fixation	MissedWin	True
395.848	0.3	Win2	0.619	0.0	No	2.777	0.001	3.0	NoResponse	0	3.574	n/a	5	41	ButtonPress	MissedWin	True
396.169	0.29	Win2	0.619	0.004	No	2.777	-0.004	n/a	NoResponse	0	n/a	n/a	5	41	Target	MissedWin	True
396.47	0.41	Win2	0.619	n/a	No	2.777	n/a	n/a	NoResponse	0	n/a	n/a	5	41	Blank	MissedWin	True
396.871	1.45	Win2	0.619	n/a	No	2.777	n/a	5.0	NoResponse	0	0.027	395.898	5	41	Feedback	MissedWin	True
398.326	2.777	Win2	0.619	n/a	No	2.777	n/a	n/a	NoResponse	0	0.0	n/a	5	41	ISIslide	MissedWin	True
401.117	0.25	Control	0.6279	0.0	Yes	2.933	0.017	n/a	GoodResponse	0	n/a	n/a	5	42	Cue	Neutral	True
401.368	3.85	Control	0.6279	0.0	Yes	2.933	0.001	n/a	GoodResponse	0	n/a	n/a	5	42	Fixation	Neutral	True
405.213	0.3	Control	0.6279	0.004	Yes	2.933	-0.004	3.0	GoodResponse	0	0.223	404.436	5	42	Target	Neutral	True
405.436	0.3	Control	0.6279	0.004	Yes	2.933	-0.004	3.0	GoodResponse	0	0.223	n/a	5	42	ButtonPress	Neutral	True
405.514	0.4	Control	0.6279	n/a	Yes	2.933	n/a	n/a	GoodResponse	0	n/a	n/a	5	42	Blank	Neutral	True
405.915	1.45	Control	0.6279	n/a	Yes	2.933	n/a	5.0	GoodResponse	0	0.008	404.923	5	42	Feedback	Neutral	True
407.369	2.933	Control	0.6279	n/a	Yes	2.933	n/a	n/a	GoodResponse	0	0.0	n/a	5	42	ISIslide	Neutral	True
410.328	0.25	Win2	0.6364	0.0	Yes	3.172	0.028	n/a	GoodResponse	1	n/a	n/a	6	43	Cue	Win	True
410.579	4.0	Win2	0.6364	0.0	Yes	3.172	0.001	n/a	GoodResponse	1	n/a	n/a	6	43	Fixation	Win	True
414.574	0.31	Win2	0.6364	0.004	Yes	3.172	-0.004	3.0	GoodResponse	1	0.201	413.775	6	43	Target	Win	True
414.775	0.3	Win2	0.6364	0.004	Yes	3.172	-0.004	3.0	GoodResponse	1	0.201	n/a	6	43	ButtonPress	Win	True
414.892	0.39	Win2	0.6364	n/a	Yes	3.172	n/a	n/a	GoodResponse	1	n/a	n/a	6	43	Blank	Win	True
415.276	1.45	Win2	0.6364	n/a	Yes	3.172	n/a	5.0	GoodResponse	1	0.013	414.289	6	43	Feedback	Win	True
416.731	3.172	Win2	0.6364	n/a	Yes	3.172	n/a	n/a	GoodResponse	1	0.0	n/a	6	43	ISIslide	Win	True
419.924	0.25	Win2	0.6444	0.0	Yes	2.976	0.024	n/a	GoodResponse	1	n/a	n/a	7	44	Cue	Win	False
420.174	4.0	Win2	0.6444	0.0	Yes	2.976	0.0	3.0	GoodResponse	1	3.888	423.062	7	44	Fixation	Win	False
424.062	0.3	Win2	0.6444	0.0	Yes	2.976	0.0	3.0	GoodResponse	1	3.888	n/a	7	44	ButtonPress	Win	False
424.17	0.32	Win2	0.6444	0.004	Yes	2.976	-0.004	3.0	GoodResponse	1	0.113	423.283	7	44	Target	Win	False
424.283	0.3	Win2	0.6444	0.004	Yes	2.976	-0.004	3.0	GoodResponse	1	0.113	n/a	7	44	ButtonPress	Win	False
424.504	0.38	Win2	0.6444	n/a	Yes	2.976	n/a	n/a	GoodResponse	1	n/a	n/a	7	44	Blank	Win	False
424.872	1.45	Win2	0.6444	n/a	Yes	2.976	n/a	5.0	GoodResponse	1	0.027	423.899	7	44	Feedback	Win	False
426.326	2.976	Win2	0.6444	n/a	Yes	2.976	n/a	n/a	GoodResponse	1	0.0	n/a	7	44	ISIslide	Win	False
429.318	0.25	Control	0.6522	0.0	Yes	2.882	0.018	n/a	GoodResponse	0	n/a	n/a	7	45	Cue	Neutral	True
429.569	4.1	Control	0.6522	0.0	Yes	2.882	0.001	n/a	GoodResponse	0	n/a	n/a	7	45	Fixation	Neutral	True
433.665	0.33	Control	0.6522	0.003	Yes	2.882	-0.003	3.0	GoodResponse	0	0.223	432.888	7	45	Target	Neutral	True
433.888	0.3	Control	0.6522	0.003	Yes	2.882	-0.003	3.0	GoodResponse	0	0.223	n/a	7	45	ButtonPress	Neutral	True
433.999	0.37	Control	0.6522	n/a	Yes	2.882	n/a	n/a	GoodResponse	0	n/a	n/a	7	45	Blank	Neutral	True
434.367	1.45	Control	0.6522	n/a	Yes	2.882	n/a	5.0	GoodResponse	0	0.043	433.41	7	45	Feedback	Neutral	True
435.821	2.882	Control	0.6522	n/a	Yes	2.882	n/a	n/a	GoodResponse	0	0.0	n/a	7	45	ISIslide	Neutral	True
438.73	0.25	Lose2	0.6596	0.0	Yes	3.37	0.03	n/a	GoodResponse	0	n/a	n/a	7	46	Cue	AvoidedLoss	True
438.981	4.0	Lose2	0.6596	0.0	Yes	3.37	0.001	n/a	GoodResponse	0	n/a	n/a	7	46	Fixation	AvoidedLoss	True
442.976	0.34	Lose2	0.6596	0.004	Yes	3.37	-0.004	3.0	GoodResponse	0	0.17	442.146	7	46	Target	AvoidedLoss	True
443.146	0.3	Lose2	0.6596	0.004	Yes	3.37	-0.004	3.0	GoodResponse	0	0.17	n/a	7	46	ButtonPress	AvoidedLoss	True
443.327	0.36	Lose2	0.6596	n/a	Yes	3.37	n/a	n/a	GoodResponse	0	n/a	n/a	7	46	Blank	AvoidedLoss	True
443.678	1.45	Lose2	0.6596	n/a	Yes	3.37	n/a	5.0	GoodResponse	0	0.0	442.678	7	46	Feedback	AvoidedLoss	True
445.132	3.37	Lose2	0.6596	n/a	Yes	3.37	n/a	n/a	GoodResponse	0	0.0	n/a	7	46	ISIslide	AvoidedLoss	True
448.526	0.25	Lose2	0.6667000000000001	0.0	Yes	2.674	0.026	n/a	GoodResponse	0	n/a	n/a	7	47	Cue	AvoidedLoss	True
448.777	4.0	Lose2	0.6667000000000001	0.0	Yes	2.674	0.001	n/a	GoodResponse	0	n/a	n/a	7	47	Fixation	AvoidedLoss	True
452.772	0.34	Lose2	0.6667000000000001	0.004	Yes	2.674	-0.004	3.0	GoodResponse	0	0.174	451.946	7	47	Target	AvoidedLoss	True
452.946	0.3	Lose2	0.6667000000000001	0.004	Yes	2.674	-0.004	3.0	GoodResponse	0	0.174	n/a	7	47	ButtonPress	AvoidedLoss	True
453.123	0.36	Lose2	0.6667000000000001	n/a	Yes	2.674	n/a	n/a	GoodResponse	0	n/a	n/a	7	47	Blank	AvoidedLoss	True
453.474	1.45	Lose2	0.6667000000000001	n/a	Yes	2.674	n/a	5.0	GoodResponse	0	0.009	452.483	7	47	Feedback	AvoidedLoss	True
454.928	2.674	Lose2	0.6667000000000001	n/a	Yes	2.674	n/a	n/a	GoodResponse	0	0.0	n/a	7	47	ISIslide	AvoidedLoss	True
457.62	0.25	Lose2	0.6735	0.0	Yes	3.03	0.02	n/a	GoodResponse	0	n/a	n/a	7	48	Cue	AvoidedLoss	True
457.871	3.95	Lose2	0.6735	0.0	Yes	3.03	0.001	n/a	GoodResponse	0	n/a	n/a	7	48	Fixation	AvoidedLoss	True
461.816	0.33	Lose2	0.6735	0.004	Yes	3.03	-0.004	3.0	GoodResponse	0	0.183	460.999	7	48	Target	AvoidedLoss	True
461.999	0.3	Lose2	0.6735	0.004	Yes	3.03	-0.004	3.0	GoodResponse	0	0.183	n/a	7	48	ButtonPress	AvoidedLoss	True
462.15	0.37	Lose2	0.6735	n/a	Yes	3.03	n/a	n/a	GoodResponse	0	n/a	n/a	7	48	Blank	AvoidedLoss	True
462.518	1.45	Lose2	0.6735	n/a	Yes	3.03	n/a	5.0	GoodResponse	0	0.039	461.557	7	48	Feedback	AvoidedLoss	True
463.972	3.03	Lose2	0.6735	n/a	Yes	3.03	n/a	n/a	GoodResponse	0	0.0	n/a	7	48	ISIslide	AvoidedLoss	True
467.015	0.25	Control	0.68	0.0	Yes	2.885	0.015	n/a	GoodResponse	0	n/a	n/a	7	49	Cue	Neutral	True
467.265	4.0	Control	0.68	0.0	Yes	2.885	0.0	n/a	GoodResponse	0	n/a	n/a	7	49	Fixation	Neutral	True
471.261	0.32	Control	0.68	0.004	Yes	2.885	-0.004	3.0	GoodResponse	0	0.154	470.415	7	49	Target	Neutral	True
471.415	0.3	Control	0.68	0.004	Yes	2.885	-0.004	3.0	GoodResponse	0	0.154	n/a	7	49	ButtonPress	Neutral	True
471.595	0.38	Control	0.68	n/a	Yes	2.885	n/a	n/a	GoodResponse	0	n/a	n/a	7	49	Blank	Neutral	True
471.963	1.45	Control	0.68	n/a	Yes	2.885	n/a	5.0	GoodResponse	0	0.008	470.971	7	49	Feedback	Neutral	True
473.417	2.885	Control	0.68	n/a	Yes	2.885	n/a	n/a	GoodResponse	0	0.0	n/a	7	49	ISIslide	Neutral	True
476.326	0.25	Control	0.6862999999999999	0.0	Yes	2.774	0.026	n/a	GoodResponse	0	n/a	n/a	7	50	Cue	Neutral	True
476.577	4.0	Control	0.6862999999999999	0.0	Yes	2.774	0.001	n/a	GoodResponse	0	n/a	n/a	7	50	Fixation	Neutral	True
480.572	0.31	Control	0.6862999999999999	0.004	Yes	2.774	-0.004	3.0	GoodResponse	0	0.195	479.767	7	50	Target	Neutral	True
480.767	0.3	Control	0.6862999999999999	0.004	Yes	2.774	-0.004	3.0	GoodResponse	0	0.195	n/a	7	50	ButtonPress	Neutral	True
480.889	0.39	Control	0.6862999999999999	n/a	Yes	2.774	n/a	n/a	GoodResponse	0	n/a	n/a	7	50	Blank	Neutral	True
481.274	1.45	Control	0.6862999999999999	n/a	Yes	2.774	n/a	5.0	GoodResponse	0	0.014	480.288	7	50	Feedback	Neutral	True
482.728	2.774	Control	0.6862999999999999	n/a	Yes	2.774	n/a	n/a	GoodResponse	0	0.0	n/a	7	50	ISIslide	Neutral	True
485.52	0.25	Control	0.6923	0.0	Yes	2.73	0.02	n/a	GoodResponse	0	n/a	n/a	7	51	Cue	Neutral	True
485.771	3.95	Control	0.6923	0.0	Yes	2.73	0.001	n/a	GoodResponse	0	n/a	n/a	7	51	Fixation	Neutral	True
489.716	0.3	Control	0.6923	0.004	Yes	2.73	-0.004	3.0	GoodResponse	0	0.215	488.931	7	51	Target	Neutral	True
489.931	0.3	Control	0.6923	0.004	Yes	2.73	-0.004	3.0	GoodResponse	0	0.215	n/a	7	51	ButtonPress	Neutral	True
490.017	0.4	Control	0.6923	n/a	Yes	2.73	n/a	n/a	GoodResponse	0	n/a	n/a	7	51	Blank	Neutral	True
490.418	1.45	Control	0.6923	n/a	Yes	2.73	n/a	5.0	GoodResponse	0	0.04	489.458	7	51	Feedback	Neutral	True
491.872	2.73	Control	0.6923	n/a	Yes	2.73	n/a	n/a	GoodResponse	0	0.0	n/a	7	51	ISIslide	Neutral	True
494.631	0.25	Control	0.6981	0.0	Yes	2.619	0.031	n/a	GoodResponse	0	n/a	n/a	7	52	Cue	Neutral	True
494.881	4.05	Control	0.6981	0.0	Yes	2.619	0.0	n/a	GoodResponse	0	n/a	n/a	7	52	Fixation	Neutral	True
498.927	0.29	Control	0.6981	0.004	Yes	2.619	-0.004	3.0	GoodResponse	0	0.181	498.108	7	52	Target	Neutral	True
499.108	0.3	Control	0.6981	0.004	Yes	2.619	-0.004	3.0	GoodResponse	0	0.181	n/a	7	52	ButtonPress	Neutral	True
499.228	0.41	Control	0.6981	n/a	Yes	2.619	n/a	n/a	GoodResponse	0	n/a	n/a	7	52	Blank	Neutral	True
499.629	1.45	Control	0.6981	n/a	Yes	2.619	n/a	5.0	GoodResponse	0	0.0	498.629	7	52	Feedback	Neutral	True
501.083	2.619	Control	0.6981	n/a	Yes	2.619	n/a	n/a	GoodResponse	0	0.0	n/a	7	52	ISIslide	Neutral	True
503.724	0.25	Win2	0.7037	0.001	Yes	2.926	0.024	n/a	GoodResponse	1	n/a	n/a	8	53	Cue	Win	True
503.975	4.05	Win2	0.7037	0.0	Yes	2.926	0.001	n/a	GoodResponse	1	n/a	n/a	8	53	Fixation	Win	True
508.021	0.28	Win2	0.7037	0.003	Yes	2.926	-0.003	3.0	GoodResponse	1	0.185	507.206	8	53	Target	Win	True
508.206	0.3	Win2	0.7037	0.003	Yes	2.926	-0.003	3.0	GoodResponse	1	0.185	n/a	8	53	ButtonPress	Win	True
508.305	0.42	Win2	0.7037	n/a	Yes	2.926	n/a	n/a	GoodResponse	1	n/a	n/a	8	53	Blank	Win	True
508.723	1.45	Win2	0.7037	n/a	Yes	2.926	n/a	5.0	GoodResponse	1	0.028	507.751	8	53	Feedback	Win	True
510.177	2.926	Win2	0.7037	n/a	Yes	2.926	n/a	n/a	GoodResponse	1	0.0	n/a	8	53	ISIslide	Win	True
513.119	0.25	Win2	0.7091	0.0	Yes	2.731	0.019	n/a	GoodResponse	1	n/a	n/a	9	54	Cue	Win	True
513.37	3.95	Win2	0.7091	0.0	Yes	2.731	0.001	n/a	GoodResponse	1	n/a	n/a	9	54	Fixation	Win	True
517.315	0.27	Win2	0.7091	0.004	Yes	2.731	-0.004	3.0	GoodResponse	1	0.178	516.493	9	54	Target	Win	True
517.493	0.3	Win2	0.7091	0.004	Yes	2.731	-0.004	3.0	GoodResponse	1	0.178	n/a	9	54	ButtonPress	Win	True
517.599	0.43	Win2	0.7091	n/a	Yes	2.731	n/a	n/a	GoodResponse	1	n/a	n/a	9	54	Blank	Win	True
518.017	1.45	Win2	0.7091	n/a	Yes	2.731	n/a	5.0	GoodResponse	1	0.008	517.025	9	54	Feedback	Win	True
519.472	2.731	Win2	0.7091	n/a	Yes	2.731	n/a	n/a	GoodResponse	1	0.0	n/a	9	54	ISIslide	Win	True
522.23	0.25	Control	0.7143	0.0	Yes	3.02	0.03	n/a	GoodResponse	0	n/a	n/a	9	55	Cue	Neutral	True
522.481	3.95	Control	0.7143	0.0	Yes	3.02	0.001	n/a	GoodResponse	0	n/a	n/a	9	55	Fixation	Neutral	True
526.426	0.26	Control	0.7143	0.004	Yes	3.02	-0.004	3.0	GoodResponse	0	0.198	525.624	9	55	Target	Neutral	True
526.624	0.3	Control	0.7143	0.004	Yes	3.02	-0.004	3.0	GoodResponse	0	0.198	n/a	9	55	ButtonPress	Neutral	True
526.693	0.44	Control	0.7143	n/a	Yes	3.02	n/a	n/a	GoodResponse	0	n/a	n/a	9	55	Blank	Neutral	True
527.128	1.45	Control	0.7143	n/a	Yes	3.02	n/a	5.0	GoodResponse	0	0.014	526.142	9	55	Feedback	Neutral	True
528.582	3.02	Control	0.7143	n/a	Yes	3.02	n/a	n/a	GoodResponse	0	0.0	n/a	9	55	ISIslide	Neutral	True
531.625	0.25	Control	0.7018000000000001	0.0	No	2.825	0.025	n/a	PrematurePress	0	n/a	n/a	9	56	Cue	Neutral	False
531.875	3.95	Control	0.7018000000000001	0.0	No	2.825	0.0	3.0	PrematurePress	0	3.239	534.114	9	56	Fixation	Neutral	False
535.114	0.3	Control	0.7018000000000001	0.0	No	2.825	0.0	3.0	PrematurePress	0	3.239	n/a	9	56	ButtonPress	Neutral	False
535.821	0.25	Control	0.7018000000000001	0.004	No	2.825	-0.004	3.0	PrematurePress	0	0.018	534.839	9	56	Target	Neutral	False
535.839	0.3	Control	0.7018000000000001	0.004	No	2.825	-0.004	3.0	PrematurePress	0	0.018	n/a	9	56	ButtonPress	Neutral	False
536.071	0.45	Control	0.7018000000000001	n/a	No	2.825	n/a	n/a	PrematurePress	0	n/a	n/a	9	56	Blank	Neutral	False
536.523	1.45	Control	0.7018000000000001	n/a	No	2.825	n/a	5.0	PrematurePress	0	0.033	535.556	9	56	Feedback	Neutral	False
537.977	2.825	Control	0.7018000000000001	n/a	No	2.825	n/a	n/a	PrematurePress	0	0.0	n/a	9	56	ISIslide	Neutral	False
540.819	0.25	Control	0.7069	0.0	Yes	3.481	0.019	n/a	GoodResponse	0	n/a	n/a	9	57	Cue	Neutral	True
541.07	4.0	Control	0.7069	0.0	Yes	3.481	0.001	n/a	GoodResponse	0	n/a	n/a	9	57	Fixation	Neutral	True
545.065	0.24	Control	0.7069	0.004	Yes	3.481	-0.004	3.0	GoodResponse	0	0.168	544.233	9	57	Target	Neutral	True
545.233	0.3	Control	0.7069	0.004	Yes	3.481	-0.004	3.0	GoodResponse	0	0.168	n/a	9	57	ButtonPress	Neutral	True
545.316	0.46	Control	0.7069	n/a	Yes	3.481	n/a	n/a	GoodResponse	0	n/a	n/a	9	57	Blank	Neutral	True
545.767	1.45	Control	0.7069	n/a	Yes	3.481	n/a	5.0	GoodResponse	0	0.008	544.775	9	57	Feedback	Neutral	True
547.221	3.481	Control	0.7069	n/a	Yes	3.481	n/a	n/a	GoodResponse	0	0.0	n/a	9	57	ISIslide	Neutral	True
550.732	0.25	Win2	0.7119	0.0	Yes	2.718	0.032	n/a	GoodResponse	1	n/a	n/a	10	58	Cue	Win	True
550.983	4.05	Win2	0.7119	0.0	Yes	2.718	0.001	n/a	GoodResponse	1	n/a	n/a	10	58	Fixation	Win	True
555.028	0.23	Win2	0.7119	0.004	Yes	2.718	-0.004	3.0	GoodResponse	1	0.161	554.189	10	58	Target	Win	True
555.189	0.3	Win2	0.7119	0.004	Yes	2.718	-0.004	3.0	GoodResponse	1	0.161	n/a	10	58	ButtonPress	Win	True
555.262	0.47	Win2	0.7119	n/a	Yes	2.718	n/a	n/a	GoodResponse	1	n/a	n/a	10	58	Blank	Win	True
555.73	1.45	Win2	0.7119	n/a	Yes	2.718	n/a	5.0	GoodResponse	1	0.045	554.775	10	58	Feedback	Win	True
557.184	2.718	Win2	0.7119	n/a	Yes	2.718	n/a	n/a	GoodResponse	1	0.0	n/a	10	58	ISIslide	Win	True
559.926	0.25	Lose2	0.7167	0.0	Yes	2.674	0.026	n/a	GoodResponse	0	n/a	n/a	10	59	Cue	AvoidedLoss	True
560.177	4.0	Lose2	0.7167	0.0	Yes	2.674	0.001	n/a	GoodResponse	0	n/a	n/a	10	59	Fixation	AvoidedLoss	True
564.172	0.22	Lose2	0.7167	0.004	Yes	2.674	-0.004	3.0	GoodResponse	0	0.186	563.358	10	59	Target	AvoidedLoss	True
564.358	0.3	Lose2	0.7167	0.004	Yes	2.674	-0.004	3.0	GoodResponse	0	0.186	n/a	10	59	ButtonPress	AvoidedLoss	True
564.406	0.48	Lose2	0.7167	n/a	Yes	2.674	n/a	n/a	GoodResponse	0	n/a	n/a	10	59	Blank	AvoidedLoss	True
564.874	1.45	Lose2	0.7167	n/a	Yes	2.674	n/a	5.0	GoodResponse	0	0.023	563.897	10	59	Feedback	AvoidedLoss	True
566.329	2.674	Lose2	0.7167	n/a	Yes	2.674	n/a	n/a	GoodResponse	0	0.0	n/a	10	59	ISIslide	AvoidedLoss	True
569.02	0.25	Control	0.7049	0.0	No	2.68	0.02	n/a	NoResponse	0	n/a	n/a	10	60	Cue	Neutral	True
569.271	4.0	Control	0.7049	0.0	No	2.68	0.001	n/a	NoResponse	0	n/a	n/a	10	60	Fixation	Neutral	True
573.266	0.21	Control	0.7049	0.004	No	2.68	-0.004	3.0	NoResponse	0	0.244	572.51	10	60	Target	Neutral	True
573.483	0.49	Control	0.7049	n/a	No	2.68	n/a	n/a	NoResponse	0	n/a	n/a	10	60	Blank	Neutral	True
573.51	0.3	Control	0.7049	0.004	No	2.68	-0.004	3.0	NoResponse	0	0.244	n/a	10	60	ButtonPress	Neutral	True
573.968	1.45	Control	0.7049	n/a	No	2.68	n/a	5.0	NoResponse	0	0.008	572.976	10	60	Feedback	Neutral	True
575.422	2.68	Control	0.7049	n/a	No	2.68	n/a	n/a	NoResponse	0	0.0	n/a	10	60	ISIslide	Neutral	True
578.13	0.25	Lose2	0.6934999999999999	0.001	No	2.97	0.03	n/a	PrematurePress	-1	n/a	n/a	9	61	Cue	Loss	False
578.381	4.0	Lose2	0.6934999999999999	0.0	No	2.97	0.001	3.0	PrematurePress	-1	3.456	580.837	9	61	Fixation	Loss	False
581.837	0.3	Lose2	0.6934999999999999	0.0	No	2.97	0.001	3.0	PrematurePress	-1	3.456	n/a	9	61	ButtonPress	Loss	False
582.377	0.2	Lose2	0.6934999999999999	0.003	No	2.97	-0.003	3.0	PrematurePress	-1	0.063	581.44	9	61	Target	Loss	False
582.44	0.3	Lose2	0.6934999999999999	0.003	No	2.97	-0.003	3.0	PrematurePress	-1	0.063	n/a	9	61	ButtonPress	Loss	False
582.577	0.5	Lose2	0.6934999999999999	n/a	No	2.97	n/a	n/a	PrematurePress	-1	n/a	n/a	9	61	Blank	Loss	False
583.079	1.45	Lose2	0.6934999999999999	n/a	No	2.97	n/a	5.0	PrematurePress	-1	0.013	582.092	9	61	Feedback	Loss	False
584.533	2.97	Lose2	0.6934999999999999	n/a	No	2.97	n/a	n/a	PrematurePress	-1	0.0	n/a	9	61	ISIslide	Loss	False
587.525	0.25	Lose2	0.6825	0.0	No	2.875	0.025	n/a	NoResponse	-1	n/a	n/a	8	62	Cue	Loss	True
587.776	3.9	Lose2	0.6825	0.0	No	2.875	0.001	n/a	NoResponse	-1	n/a	n/a	8	62	Fixation	Loss	True
591.671	0.19	Lose2	0.6825	0.004	No	2.875	-0.004	3.0	NoResponse	-1	0.214	590.885	8	62	Target	Loss	True
591.872	0.51	Lose2	0.6825	n/a	No	2.875	n/a	n/a	NoResponse	-1	n/a	n/a	8	62	Blank	Loss	True
591.885	0.3	Lose2	0.6825	0.004	No	2.875	-0.004	3.0	NoResponse	-1	0.214	n/a	8	62	ButtonPress	Loss	True
592.373	1.45	Lose2	0.6825	n/a	No	2.875	n/a	5.0	NoResponse	-1	0.036	591.409	8	62	Feedback	Loss	True
593.827	2.875	Lose2	0.6825	n/a	No	2.875	n/a	n/a	NoResponse	-1	0.0	n/a	8	62	ISIslide	Loss	True
596.719	0.25	Lose2	0.6875	0.001	Yes	2.631	0.019	n/a	GoodResponse	0	n/a	n/a	8	63	Cue	AvoidedLoss	False
596.97	4.05	Lose2	0.6875	0.0	Yes	2.631	0.001	3.0	GoodResponse	0	3.681	599.651	8	63	Fixation	AvoidedLoss	False
600.651	0.3	Lose2	0.6875	0.0	Yes	2.631	0.001	3.0	GoodResponse	0	3.681	n/a	8	63	ButtonPress	AvoidedLoss	False
601.016	0.18	Lose2	0.6875	0.003	Yes	2.631	-0.003	3.0	GoodResponse	0	0.101	600.117	8	63	Target	AvoidedLoss	False
601.117	0.3	Lose2	0.6875	0.003	Yes	2.631	-0.003	3.0	GoodResponse	0	0.101	n/a	8	63	ButtonPress	AvoidedLoss	False
601.2	0.52	Lose2	0.6875	n/a	Yes	2.631	n/a	n/a	GoodResponse	0	n/a	n/a	8	63	Blank	AvoidedLoss	False
601.718	1.45	Lose2	0.6875	n/a	Yes	2.631	n/a	5.0	GoodResponse	0	0.008	600.726	8	63	Feedback	AvoidedLoss	False
603.172	2.631	Lose2	0.6875	n/a	Yes	2.631	n/a	n/a	GoodResponse	0	0.0	n/a	8	63	ISIslide	AvoidedLoss	False
605.83	0.25	Win2	0.6769	0.0	No	3.12	0.03	n/a	NoResponse	0	n/a	n/a	8	64	Cue	MissedWin	True
606.081	4.15	Win2	0.6769	0.0	No	3.12	0.001	n/a	NoResponse	0	n/a	n/a	8	64	Fixation	MissedWin	True
610.227	0.17	Win2	0.6769	0.003	No	3.12	-0.003	3.0	NoResponse	0	0.192	609.419	8	64	Target	MissedWin	True
610.41	0.53	Win2	0.6769	n/a	No	3.12	n/a	n/a	NoResponse	0	n/a	n/a	8	64	Blank	MissedWin	True
610.419	0.3	Win2	0.6769	0.003	No	3.12	-0.003	3.0	NoResponse	0	0.192	n/a	8	64	ButtonPress	MissedWin	True
610.929	1.45	Win2	0.6769	n/a	No	3.12	n/a	5.0	NoResponse	0	0.017	609.946	8	64	Feedback	MissedWin	True
612.383	3.12	Win2	0.6769	n/a	No	3.12	n/a	n/a	NoResponse	0	0.0	n/a	8	64	ISIslide	MissedWin	True
615.526	0.25	Control	0.6667000000000001	0.0	No	2.774	0.026	n/a	PrematurePress	0	n/a	n/a	8	65	Cue	Neutral	False
615.777	4.0	Control	0.6667000000000001	0.0	No	2.774	0.001	3.0	PrematurePress	0	1.887	616.664	8	65	Fixation	Neutral	False
617.664	0.3	Control	0.6667000000000001	0.0	No	2.774	0.001	3.0	PrematurePress	0	1.887	n/a	8	65	ButtonPress	Neutral	False
619.772	0.16	Control	0.6667000000000001	0.004	No	2.774	-0.004	3.0	PrematurePress	0	0.019	618.791	8	65	Target	Neutral	False
619.791	0.3	Control	0.6667000000000001	0.004	No	2.774	-0.004	3.0	PrematurePress	0	0.019	n/a	8	65	ButtonPress	Neutral	False
619.939	0.54	Control	0.6667000000000001	n/a	No	2.774	n/a	n/a	PrematurePress	0	n/a	n/a	8	65	Blank	Neutral	False
620.474	1.45	Control	0.6667000000000001	n/a	No	2.774	n/a	5.0	PrematurePress	0	0.033	619.507	8	65	Feedback	Neutral	False
621.928	2.774	Control	0.6667000000000001	n/a	No	2.774	n/a	n/a	PrematurePress	0	0.0	n/a	8	65	ISIslide	Neutral	False
624.72	0.25	Win2	0.6567000000000001	0.0	No	2.78	0.02	n/a	NoResponse	0	n/a	n/a	8	66	Cue	MissedWin	True
624.971	3.9	Win2	0.6567000000000001	0.0	No	2.78	0.001	n/a	NoResponse	0	n/a	n/a	8	66	Fixation	MissedWin	True
628.866	0.15	Win2	0.6567000000000001	0.004	No	2.78	-0.004	3.0	NoResponse	0	0.177	628.043	8	66	Target	MissedWin	True
629.016	0.55	Win2	0.6567000000000001	n/a	No	2.78	n/a	n/a	NoResponse	0	n/a	n/a	8	66	Blank	MissedWin	True
629.043	0.3	Win2	0.6567000000000001	0.004	No	2.78	-0.004	3.0	NoResponse	0	0.177	n/a	8	66	ButtonPress	MissedWin	True
629.568	1.45	Win2	0.6567000000000001	n/a	No	2.78	n/a	5.0	NoResponse	0	0.011	628.579	8	66	Feedback	MissedWin	True
631.022	2.78	Win2	0.6567000000000001	n/a	No	2.78	n/a	n/a	NoResponse	0	0.0	n/a	8	66	ISIslide	MissedWin	True
633.831	0.25	Control	0.6470999999999999	0.0	No	2.719	0.031	n/a	NoResponse	0	n/a	n/a	8	67	Cue	Neutral	True
634.081	3.95	Control	0.6470999999999999	0.0	No	2.719	0.0	n/a	NoResponse	0	n/a	n/a	8	67	Fixation	Neutral	True
638.043	0.15	Control	0.6470999999999999	0.0	No	2.719	0.012	3.0	NoResponse	0	0.177	637.22	8	67	Target	Neutral	True
638.177	0.55	Control	0.6470999999999999	n/a	No	2.719	n/a	n/a	NoResponse	0	n/a	n/a	8	67	Blank	Neutral	True
638.22	0.3	Control	0.6470999999999999	0.0	No	2.719	0.012	3.0	NoResponse	0	0.177	n/a	8	67	ButtonPress	Neutral	True
638.729	1.45	Control	0.6470999999999999	n/a	No	2.719	n/a	5.0	NoResponse	0	0.021	637.75	8	67	Feedback	Neutral	True
640.183	2.719	Control	0.6470999999999999	n/a	No	2.719	n/a	n/a	NoResponse	0	0.0	n/a	8	67	ISIslide	Neutral	True
642.924	0.25	Win2	0.6377	0.001	No	3.076	0.024	n/a	NoResponse	0	n/a	n/a	8	68	Cue	MissedWin	True
643.175	4.0	Win2	0.6377	0.0	No	3.076	0.001	n/a	NoResponse	0	n/a	n/a	8	68	Fixation	MissedWin	True
647.17	0.16	Win2	0.6377	0.004	No	3.076	-0.004	3.0	NoResponse	0	0.182	646.352	8	68	Target	MissedWin	True
647.338	0.54	Win2	0.6377	n/a	No	3.076	n/a	n/a	NoResponse	0	n/a	n/a	8	68	Blank	MissedWin	True
647.352	0.3	Win2	0.6377	0.004	No	3.076	-0.004	3.0	NoResponse	0	0.182	n/a	8	68	ButtonPress	MissedWin	True
647.873	1.45	Win2	0.6377	n/a	No	3.076	n/a	5.0	NoResponse	0	0.048	646.921	8	68	Feedback	MissedWin	True
649.327	3.076	Win2	0.6377	n/a	No	3.076	n/a	n/a	NoResponse	0	0.0	n/a	8	68	ISIslide	MissedWin	True
652.42	0.25	Win2	0.6286	0.0	No	3.23	0.02	n/a	PrematurePress	0	n/a	n/a	8	69	Cue	MissedWin	False
652.67	3.95	Win2	0.6286	0.0	No	3.23	0.0	3.0	PrematurePress	0	3.586	655.256	8	69	Fixation	MissedWin	False
656.256	0.3	Win2	0.6286	0.0	No	3.23	0.0	3.0	PrematurePress	0	3.586	n/a	8	69	ButtonPress	MissedWin	False
656.632	0.17	Win2	0.6286	0.0	No	3.23	0.012	3.0	PrematurePress	0	0.058	655.69	8	69	Target	MissedWin	False
656.69	0.3	Win2	0.6286	0.0	No	3.23	0.012	3.0	PrematurePress	0	0.058	n/a	8	69	ButtonPress	MissedWin	False
656.799	0.53	Win2	0.6286	n/a	No	3.23	n/a	n/a	PrematurePress	0	n/a	n/a	8	69	Blank	MissedWin	False
657.318	1.45	Win2	0.6286	n/a	No	3.23	n/a	5.0	PrematurePress	0	0.017	656.335	8	69	Feedback	MissedWin	False
658.772	3.23	Win2	0.6286	n/a	No	3.23	n/a	n/a	PrematurePress	0	0.0	n/a	8	69	ISIslide	MissedWin	False
662.015	0.25	Lose2	0.6197	0.0	No	3.035	0.015	n/a	PrematurePress	-1	n/a	n/a	7	70	Cue	Loss	True
662.266	4.05	Lose2	0.6197	0.0	No	3.035	0.001	n/a	PrematurePress	-1	n/a	n/a	7	70	Fixation	Loss	True
666.311	0.18	Lose2	0.6197	0.004	No	3.035	-0.004	3.0	PrematurePress	-1	0.024	665.335	7	70	Target	Loss	True
666.335	0.3	Lose2	0.6197	0.004	No	3.035	-0.004	3.0	PrematurePress	-1	0.024	n/a	7	70	ButtonPress	Loss	True
666.495	0.52	Lose2	0.6197	n/a	No	3.035	n/a	n/a	PrematurePress	-1	n/a	n/a	7	70	Blank	Loss	True
667.013	1.45	Lose2	0.6197	n/a	No	3.035	n/a	5.0	PrematurePress	-1	0.03	666.043	7	70	Feedback	Loss	True
668.468	3.035	Lose2	0.6197	n/a	No	3.035	n/a	n/a	PrematurePress	-1	0.0	n/a	7	70	ISIslide	Loss	True
671.527	0.25	Win2	0.6111	0.0	No	2.723	0.027	n/a	NoResponse	0	n/a	n/a	7	71	Cue	MissedWin	True
671.777	4.05	Win2	0.6111	0.001	No	2.723	0.0	n/a	NoResponse	0	n/a	n/a	7	71	Fixation	MissedWin	True
675.823	0.19	Win2	0.6111	0.004	No	2.723	-0.004	3.0	NoResponse	0	0.242	675.065	7	71	Target	MissedWin	True
676.024	0.51	Win2	0.6111	n/a	No	2.723	n/a	n/a	NoResponse	0	n/a	n/a	7	71	Blank	MissedWin	True
676.065	0.3	Win2	0.6111	0.004	No	2.723	-0.004	3.0	NoResponse	0	0.242	n/a	7	71	ButtonPress	MissedWin	True
676.525	1.45	Win2	0.6111	n/a	No	2.723	n/a	5.0	NoResponse	0	0.03	675.555	7	71	Feedback	MissedWin	True
677.979	2.723	Win2	0.6111	n/a	No	2.723	n/a	n/a	NoResponse	0	0.0	n/a	7	71	ISIslide	MissedWin	True
680.721	0.25	Win2	0.6027	0.0	No	2.779	0.021	n/a	NoResponse	0	n/a	n/a	7	72	Cue	MissedWin	True
680.972	4.1	Win2	0.6027	0.0	No	2.779	0.001	n/a	NoResponse	0	n/a	n/a	7	72	Fixation	MissedWin	True
685.067	0.2	Win2	0.6027	0.004	No	2.779	-0.004	3.0	NoResponse	0	0.212	684.279	7	72	Target	MissedWin	True
685.268	0.5	Win2	0.6027	n/a	No	2.779	n/a	n/a	NoResponse	0	n/a	n/a	7	72	Blank	MissedWin	True
685.279	0.3	Win2	0.6027	0.004	No	2.779	-0.004	3.0	NoResponse	0	0.212	n/a	7	72	ButtonPress	MissedWin	True
685.769	1.45	Win2	0.6027	n/a	No	2.779	n/a	5.0	NoResponse	0	0.008	684.777	7	72	Feedback	MissedWin	True
687.224	2.779	Win2	0.6027	n/a	No	2.779	n/a	n/a	NoResponse	0	0.0	n/a	7	72	ISIslide	MissedWin	True
690.015	0.25	Win2	0.6081	0.0	Yes	2.685	0.015	n/a	GoodResponse	1	n/a	n/a	8	73	Cue	Win	True
690.266	4.0	Win2	0.6081	0.0	Yes	2.685	0.001	n/a	GoodResponse	1	n/a	n/a	8	73	Fixation	Win	True
694.261	0.21	Win2	0.6081	0.004	Yes	2.685	-0.004	3.0	GoodResponse	1	0.168	693.429	8	73	Target	Win	True
694.429	0.3	Win2	0.6081	0.004	Yes	2.685	-0.004	3.0	GoodResponse	1	0.168	n/a	8	73	ButtonPress	Win	True
694.479	0.49	Win2	0.6081	n/a	Yes	2.685	n/a	n/a	GoodResponse	1	n/a	n/a	8	73	Blank	Win	True
694.964	1.45	Win2	0.6081	n/a	Yes	2.685	n/a	5.0	GoodResponse	1	0.029	693.993	8	73	Feedback	Win	True
696.418	2.685	Win2	0.6081	n/a	Yes	2.685	n/a	n/a	GoodResponse	1	0.0	n/a	8	73	ISIslide	Win	True
699.126	0.25	Lose2	0.6	0.0	No	2.624	0.026	n/a	LatePress	-1	n/a	n/a	7	74	Cue	Loss	True
699.377	4.05	Lose2	0.6	0.0	No	2.624	0.001	n/a	LatePress	-1	n/a	n/a	7	74	Fixation	Loss	True
703.422	0.22	Lose2	0.6	0.004	No	2.624	-0.004	3.0	LatePress	-1	0.231	702.653	7	74	Target	Loss	True
703.653	0.3	Lose2	0.6	0.004	No	2.624	-0.004	3.0	LatePress	-1	0.231	n/a	7	74	ButtonPress	Loss	True
703.656	0.48	Lose2	0.6	n/a	No	2.624	n/a	n/a	LatePress	-1	n/a	n/a	7	74	Blank	Loss	True
704.124	1.45	Lose2	0.6	n/a	No	2.624	n/a	5.0	LatePress	-1	0.04	703.164	7	74	Feedback	Loss	True
705.579	2.624	Lose2	0.6	n/a	No	2.624	n/a	n/a	LatePress	-1	0.0	n/a	7	74	ISIslide	Loss	True
708.22	0.25	Lose2	0.6053000000000001	0.0	Yes	2.93	0.02	n/a	GoodResponse	0	n/a	n/a	7	75	Cue	AvoidedLoss	True
708.471	3.95	Lose2	0.6053000000000001	0.0	Yes	2.93	0.001	n/a	GoodResponse	0	n/a	n/a	7	75	Fixation	AvoidedLoss	True
712.416	0.23	Lose2	0.6053000000000001	0.004	Yes	2.93	-0.004	3.0	GoodResponse	0	0.163	711.579	7	75	Target	AvoidedLoss	True
712.579	0.3	Lose2	0.6053000000000001	0.004	Yes	2.93	-0.004	3.0	GoodResponse	0	0.163	n/a	7	75	ButtonPress	AvoidedLoss	True
712.65	0.47	Lose2	0.6053000000000001	n/a	Yes	2.93	n/a	n/a	GoodResponse	0	n/a	n/a	7	75	Blank	AvoidedLoss	True
713.118	1.45	Lose2	0.6053000000000001	n/a	Yes	2.93	n/a	5.0	GoodResponse	0	0.022	712.14	7	75	Feedback	AvoidedLoss	True
714.572	2.93	Lose2	0.6053000000000001	n/a	Yes	2.93	n/a	n/a	GoodResponse	0	0.0	n/a	7	75	ISIslide	AvoidedLoss	True
717.514	0.25	Control	0.6103999999999999	0.0	Yes	3.236	0.014	n/a	GoodResponse	0	n/a	n/a	7	76	Cue	Neutral	True
717.765	4.05	Control	0.6103999999999999	0.0	Yes	3.236	0.001	n/a	GoodResponse	0	n/a	n/a	7	76	Fixation	Neutral	True
721.811	0.24	Control	0.6103999999999999	0.003	Yes	3.236	-0.003	3.0	GoodResponse	0	0.201	721.012	7	76	Target	Neutral	True
722.012	0.3	Control	0.6103999999999999	0.003	Yes	3.236	-0.003	3.0	GoodResponse	0	0.201	n/a	7	76	ButtonPress	Neutral	True
722.061	0.46	Control	0.6103999999999999	n/a	Yes	3.236	n/a	n/a	GoodResponse	0	n/a	n/a	7	76	Blank	Neutral	True
722.513	1.45	Control	0.6103999999999999	n/a	Yes	3.236	n/a	5.0	GoodResponse	0	0.042	721.555	7	76	Feedback	Neutral	True
723.967	3.236	Control	0.6103999999999999	n/a	Yes	3.236	n/a	n/a	GoodResponse	0	0.0	n/a	7	76	ISIslide	Neutral	True
727.227	0.25	Lose2	0.6026	0.0	No	2.573	0.027	n/a	PrematurePress	-1	n/a	n/a	6	77	Cue	Loss	False
727.478	3.95	Lose2	0.6026	0.0	No	2.573	0.001	3.0	PrematurePress	-1	3.786	730.264	6	77	Fixation	Loss	False
731.264	0.3	Lose2	0.6026	0.0	No	2.573	0.001	3.0	PrematurePress	-1	3.786	n/a	6	77	ButtonPress	Loss	False
731.423	0.25	Lose2	0.6026	0.004	No	2.573	-0.004	3.0	PrematurePress	-1	0.06	730.483	6	77	Target	Loss	False
731.483	0.3	Lose2	0.6026	0.004	No	2.573	-0.004	3.0	PrematurePress	-1	0.06	n/a	6	77	ButtonPress	Loss	False
731.673	0.45	Lose2	0.6026	n/a	No	2.573	n/a	n/a	PrematurePress	-1	n/a	n/a	6	77	Blank	Loss	False
732.125	1.45	Lose2	0.6026	n/a	No	2.573	n/a	5.0	PrematurePress	-1	0.039	731.164	6	77	Feedback	Loss	False
733.579	2.573	Lose2	0.6026	n/a	No	2.573	n/a	n/a	PrematurePress	-1	0.0	n/a	6	77	ISIslide	Loss	False
