onset	duration	cue_type	current_mean_accuracy	duration_error	is_hit	isi_adjusted	onset_delay	response	response_type	reward	rt	rt_time	total_reward	trial_number	trial_phase	trial_type	one_press
11.111	0.25	Control	1.0	0.0	Yes	2.939	0.011	n/a	GoodResponse	0	n/a	n/a	0	0	Cue	Neutral	True
11.361	3.85	Control	1.0	0.001	Yes	2.939	0.0	n/a	GoodResponse	0	n/a	n/a	0	0	Fixation	Neutral	True
15.223	0.4	Control	1.0	0.0	Yes	2.939	0.012	2.0	GoodResponse	0	0.224	14.447	0	0	Target	Neutral	True
15.447	0.3	Control	1.0	0.0	Yes	2.939	0.012	2.0	GoodResponse	0	0.224	n/a	0	0	ButtonPress	Neutral	True
15.607	0.3	Control	1.0	n/a	Yes	2.939	n/a	n/a	GoodResponse	0	n/a	n/a	0	0	Blank	Neutral	True
15.908	1.45	Control	1.0	n/a	Yes	2.939	n/a	5.0	GoodResponse	0	0.019	14.927	0	0	Feedback	Neutral	True
17.363	2.939	Control	1.0	n/a	Yes	2.939	n/a	n/a	GoodResponse	0	0.0	n/a	0	0	ISIslide	Neutral	True
20.322	0.25	Lose2	1.0	0.0	Yes	2.778	0.022	n/a	GoodResponse	0	n/a	n/a	0	1	Cue	AvoidedLoss	True
20.572	4.0	Lose2	1.0	0.0	Yes	2.778	0.0	n/a	GoodResponse	0	n/a	n/a	0	1	Fixation	AvoidedLoss	True
24.568	0.39	Lose2	1.0	0.004	Yes	2.778	-0.004	2.0	GoodResponse	0	0.204	23.772	0	1	Target	AvoidedLoss	True
24.772	0.3	Lose2	1.0	0.004	Yes	2.778	-0.004	2.0	GoodResponse	0	0.204	n/a	0	1	ButtonPress	AvoidedLoss	True
24.969	0.31	Lose2	1.0	n/a	Yes	2.778	n/a	n/a	GoodResponse	0	n/a	n/a	0	1	Blank	AvoidedLoss	True
25.27	1.45	Lose2	1.0	n/a	Yes	2.778	n/a	5.0	GoodResponse	0	0.023	24.293	0	1	Feedback	AvoidedLoss	True
26.724	2.778	Lose2	1.0	n/a	Yes	2.778	n/a	n/a	GoodResponse	0	0.0	n/a	0	1	ISIslide	AvoidedLoss	True
29.516	0.25	Control	0.6667000000000001	0.0	No	2.584	0.016	n/a	NoResponse	0	n/a	n/a	0	2	Cue	Neutral	True
29.766	4.1	Control	0.6667000000000001	0.001	No	2.584	0.0	n/a	NoResponse	0	n/a	n/a	0	2	Fixation	Neutral	True
33.862	0.38	Control	0.6667000000000001	0.004	No	2.584	-0.004	2.0	NoResponse	0	0.397	33.259	0	2	Target	Neutral	True
34.247	0.32	Control	0.6667000000000001	n/a	No	2.584	n/a	n/a	NoResponse	0	n/a	n/a	0	2	Blank	Neutral	True
34.259	0.3	Control	0.6667000000000001	0.004	No	2.584	-0.004	2.0	NoResponse	0	0.397	n/a	0	2	ButtonPress	Neutral	True
34.564	1.45	Control	0.6667000000000001	n/a	No	2.584	n/a	5.0	NoResponse	0	0.046	33.61	0	2	Feedback	Neutral	True
36.019	2.584	Control	0.6667000000000001	n/a	No	2.584	n/a	n/a	NoResponse	0	0.0	n/a	0	2	ISIslide	Neutral	True
38.626	0.25	Win2	0.75	0.0	Yes	2.824	0.026	n/a	GoodResponse	1	n/a	n/a	1	3	Cue	Win	True
38.877	3.95	Win2	0.75	0.0	Yes	2.824	0.001	n/a	GoodResponse	1	n/a	n/a	1	3	Fixation	Win	True
42.822	0.37	Win2	0.75	0.004	Yes	2.824	-0.004	2.0	GoodResponse	1	0.244	42.066	1	3	Target	Win	True
43.066	0.3	Win2	0.75	0.004	Yes	2.824	-0.004	2.0	GoodResponse	1	0.244	n/a	1	3	ButtonPress	Win	True
43.207	0.33	Win2	0.75	n/a	Yes	2.824	n/a	n/a	GoodResponse	1	n/a	n/a	1	3	Blank	Win	True
43.524	1.45	Win2	0.75	n/a	Yes	2.824	n/a	5.0	GoodResponse	1	0.012	42.536	1	3	Feedback	Win	True
44.979	2.824	Win2	0.75	n/a	Yes	2.824	n/a	n/a	GoodResponse	1	0.0	n/a	1	3	ISIslide	Win	True
47.82	0.25	Win2	0.8	0.001	Yes	3.28	0.02	n/a	GoodResponse	1	n/a	n/a	2	4	Cue	Win	False
48.071	4.0	Win2	0.8	0.0	Yes	3.28	0.001	2.0	GoodResponse	1	3.73	50.801	2	4	Fixation	Win	False
51.801	0.3	Win2	0.8	0.0	Yes	3.28	0.001	2.0	GoodResponse	1	3.73	n/a	2	4	ButtonPress	Win	False
52.066	0.36	Win2	0.8	0.004	Yes	3.28	-0.004	2.0	GoodResponse	1	0.332	51.398	2	4	Target	Win	False
52.398	0.3	Win2	0.8	0.004	Yes	3.28	-0.004	2.0	GoodResponse	1	0.332	n/a	2	4	ButtonPress	Win	False
52.434	0.34	Win2	0.8	n/a	Yes	3.28	n/a	n/a	GoodResponse	1	n/a	n/a	2	4	Blank	Win	False
52.769	1.45	Win2	0.8	n/a	Yes	3.28	n/a	5.0	GoodResponse	1	0.036	51.805	2	4	Feedback	Win	False
54.223	3.28	Win2	0.8	n/a	Yes	3.28	n/a	n/a	GoodResponse	1	0.0	n/a	2	4	ISIslide	Win	False
57.516	0.25	Win2	0.6667000000000001	0.0	No	2.784	0.016	n/a	NoResponse	0	n/a	n/a	2	5	Cue	MissedWin	True
57.767	4.0	Win2	0.6667000000000001	0.0	No	2.784	0.001	n/a	NoResponse	0	n/a	n/a	2	5	Fixation	MissedWin	True
61.762	0.35	Win2	0.6667000000000001	0.004	No	2.784	-0.004	2.0	NoResponse	0	0.402	61.164	2	5	Target	MissedWin	True
62.113	0.35	Win2	0.6667000000000001	n/a	No	2.784	n/a	n/a	NoResponse	0	n/a	n/a	2	5	Blank	MissedWin	True
62.164	0.3	Win2	0.6667000000000001	0.004	No	2.784	-0.004	2.0	NoResponse	0	0.402	n/a	2	5	ButtonPress	MissedWin	True
62.464	1.45	Win2	0.6667000000000001	n/a	No	2.784	n/a	5.0	NoResponse	0	0.048	61.512	2	5	Feedback	MissedWin	True
63.919	2.784	Win2	0.6667000000000001	n/a	No	2.784	n/a	n/a	NoResponse	0	0.0	n/a	2	5	ISIslide	MissedWin	True
66.727	0.25	Lose2	0.7143	0.0	Yes	2.723	0.027	n/a	GoodResponse	0	n/a	n/a	2	6	Cue	AvoidedLoss	True
66.978	3.95	Lose2	0.7143	0.0	Yes	2.723	0.001	n/a	GoodResponse	0	n/a	n/a	2	6	Fixation	AvoidedLoss	True
70.923	0.34	Lose2	0.7143	0.004	Yes	2.723	-0.004	2.0	GoodResponse	0	0.226	70.149	2	6	Target	AvoidedLoss	True
71.149	0.3	Lose2	0.7143	0.004	Yes	2.723	-0.004	2.0	GoodResponse	0	0.226	n/a	2	6	ButtonPress	AvoidedLoss	True
71.274	0.36	Lose2	0.7143	n/a	Yes	2.723	n/a	n/a	GoodResponse	0	n/a	n/a	2	6	Blank	AvoidedLoss	True
71.625	1.45	Lose2	0.7143	n/a	Yes	2.723	n/a	5.0	GoodResponse	0	0.009	70.634	2	6	Feedback	AvoidedLoss	True
73.079	2.723	Lose2	0.7143	n/a	Yes	2.723	n/a	n/a	GoodResponse	0	0.0	n/a	2	6	ISIslide	AvoidedLoss	True
75.821	0.25	Lose2	0.75	0.0	Yes	4.029	0.021	n/a	GoodResponse	0	n/a	n/a	2	7	Cue	AvoidedLoss	True
76.072	4.05	Lose2	0.75	0.0	Yes	4.029	0.001	n/a	GoodResponse	0	n/a	n/a	2	7	Fixation	AvoidedLoss	True
80.117	0.33	Lose2	0.75	0.004	Yes	4.029	-0.004	2.0	GoodResponse	0	0.193	79.31	2	7	Target	AvoidedLoss	True
80.31	0.3	Lose2	0.75	0.004	Yes	4.029	-0.004	2.0	GoodResponse	0	0.193	n/a	2	7	ButtonPress	AvoidedLoss	True
80.451	0.37	Lose2	0.75	n/a	Yes	4.029	n/a	n/a	GoodResponse	0	n/a	n/a	2	7	Blank	AvoidedLoss	True
80.819	1.45	Lose2	0.75	n/a	Yes	4.029	n/a	5.0	GoodResponse	0	0.035	79.854	2	7	Feedback	AvoidedLoss	True
82.273	4.029	Lose2	0.75	n/a	Yes	4.029	n/a	n/a	GoodResponse	0	0.0	n/a	2	7	ISIslide	AvoidedLoss	True
86.319	0.25	Lose2	0.7778	0.0	Yes	3.031	0.019	n/a	GoodResponse	0	n/a	n/a	2	8	Cue	AvoidedLoss	True
86.57	3.95	Lose2	0.7778	0.0	Yes	3.031	0.001	n/a	GoodResponse	0	n/a	n/a	2	8	Fixation	AvoidedLoss	True
90.515	0.32	Lose2	0.7778	0.004	Yes	3.031	-0.004	2.0	GoodResponse	0	0.286	89.801	2	8	Target	AvoidedLoss	True
90.801	0.3	Lose2	0.7778	0.004	Yes	3.031	-0.004	2.0	GoodResponse	0	0.286	n/a	2	8	ButtonPress	AvoidedLoss	True
90.849	0.38	Lose2	0.7778	n/a	Yes	3.031	n/a	n/a	GoodResponse	0	n/a	n/a	2	8	Blank	AvoidedLoss	True
91.217	1.45	Lose2	0.7778	n/a	Yes	3.031	n/a	5.0	GoodResponse	0	0.026	90.243	2	8	Feedback	AvoidedLoss	True
92.671	3.031	Lose2	0.7778	n/a	Yes	3.031	n/a	n/a	GoodResponse	0	0.0	n/a	2	8	ISIslide	AvoidedLoss	True
95.714	0.25	Lose2	0.8	0.0	Yes	3.136	0.014	n/a	GoodResponse	0	n/a	n/a	2	9	Cue	AvoidedLoss	True
95.964	3.95	Lose2	0.8	0.0	Yes	3.136	0.0	n/a	GoodResponse	0	n/a	n/a	2	9	Fixation	AvoidedLoss	True
99.91	0.31	Lose2	0.8	0.004	Yes	3.136	-0.004	2.0	GoodResponse	0	0.232	99.142	2	9	Target	AvoidedLoss	True
100.142	0.3	Lose2	0.8	0.004	Yes	3.136	-0.004	2.0	GoodResponse	0	0.232	n/a	2	9	ButtonPress	AvoidedLoss	True
100.227	0.39	Lose2	0.8	n/a	Yes	3.136	n/a	n/a	GoodResponse	0	n/a	n/a	2	9	Blank	AvoidedLoss	True
100.612	1.45	Lose2	0.8	n/a	Yes	3.136	n/a	5.0	GoodResponse	0	0.046	99.658	2	9	Feedback	AvoidedLoss	True
102.066	3.136	Lose2	0.8	n/a	Yes	3.136	n/a	n/a	GoodResponse	0	0.0	n/a	2	9	ISIslide	AvoidedLoss	True
105.225	0.25	Control	0.7273000000000001	0.001	No	3.275	0.025	n/a	NoResponse	0	n/a	n/a	2	10	Cue	Neutral	True
105.476	4.0	Control	0.7273000000000001	0.0	No	3.275	0.001	n/a	NoResponse	0	n/a	n/a	2	10	Fixation	Neutral	True
109.471	0.3	Control	0.7273000000000001	0.004	No	3.275	-0.004	2.0	NoResponse	0	0.309	108.78	2	10	Target	Neutral	True
109.772	0.4	Control	0.7273000000000001	n/a	No	3.275	n/a	n/a	NoResponse	0	n/a	n/a	2	10	Blank	Neutral	True
109.78	0.3	Control	0.7273000000000001	0.004	No	3.275	-0.004	2.0	NoResponse	0	0.309	n/a	2	10	ButtonPress	Neutral	True
110.174	1.45	Control	0.7273000000000001	n/a	No	3.275	n/a	5.0	NoResponse	0	0.045	109.219	2	10	Feedback	Neutral	True
111.628	3.275	Control	0.7273000000000001	n/a	No	3.275	n/a	n/a	NoResponse	0	0.0	n/a	2	10	ISIslide	Neutral	True
114.921	0.25	Lose2	0.6667000000000001	0.0	No	2.729	0.021	n/a	NoResponse	-1	n/a	n/a	1	11	Cue	Loss	True
115.172	4.05	Lose2	0.6667000000000001	0.0	No	2.729	0.001	n/a	NoResponse	-1	n/a	n/a	1	11	Fixation	Loss	True
119.217	0.29	Lose2	0.6667000000000001	0.004	No	2.729	-0.004	2.0	NoResponse	-1	0.344	118.561	1	11	Target	Loss	True
119.518	0.41	Lose2	0.6667000000000001	n/a	No	2.729	n/a	n/a	NoResponse	-1	n/a	n/a	1	11	Blank	Loss	True
119.561	0.3	Lose2	0.6667000000000001	0.004	No	2.729	-0.004	2.0	NoResponse	-1	0.344	n/a	1	11	ButtonPress	Loss	True
119.919	1.45	Lose2	0.6667000000000001	n/a	No	2.729	n/a	5.0	NoResponse	-1	0.007	118.926	1	11	Feedback	Loss	True
121.374	2.729	Lose2	0.6667000000000001	n/a	No	2.729	n/a	n/a	NoResponse	-1	0.0	n/a	1	11	ISIslide	Loss	True
124.115	0.25	Control	0.6923	0.0	Yes	2.985	0.015	n/a	GoodResponse	0	n/a	n/a	1	12	Cue	Neutral	True
124.366	3.9	Control	0.6923	0.0	Yes	2.985	0.001	n/a	GoodResponse	0	n/a	n/a	1	12	Fixation	Neutral	True
128.261	0.28	Control	0.6923	0.004	Yes	2.985	-0.004	2.0	GoodResponse	0	0.211	127.472	1	12	Target	Neutral	True
128.472	0.3	Control	0.6923	0.004	Yes	2.985	-0.004	2.0	GoodResponse	0	0.211	n/a	1	12	ButtonPress	Neutral	True
128.545	0.42	Control	0.6923	n/a	Yes	2.985	n/a	n/a	GoodResponse	0	n/a	n/a	1	12	Blank	Neutral	True
128.963	1.45	Control	0.6923	n/a	Yes	2.985	n/a	5.0	GoodResponse	0	0.036	127.999	1	12	Feedback	Neutral	True
130.417	2.985	Control	0.6923	n/a	Yes	2.985	n/a	n/a	GoodResponse	0	0.0	n/a	1	12	ISIslide	Neutral	True
133.426	0.25	Control	0.6429	0.001	No	2.774	0.026	n/a	NoResponse	0	n/a	n/a	1	13	Cue	Neutral	True
133.677	4.0	Control	0.6429	0.0	No	2.774	0.001	n/a	NoResponse	0	n/a	n/a	1	13	Fixation	Neutral	True
137.672	0.27	Control	0.6429	0.004	No	2.774	-0.004	2.0	NoResponse	0	0.292	136.964	1	13	Target	Neutral	True
137.957	0.43	Control	0.6429	n/a	No	2.774	n/a	n/a	NoResponse	0	n/a	n/a	1	13	Blank	Neutral	True
137.964	0.3	Control	0.6429	0.004	No	2.774	-0.004	2.0	NoResponse	0	0.292	n/a	1	13	ButtonPress	Neutral	True
138.375	1.45	Control	0.6429	n/a	No	2.774	n/a	5.0	NoResponse	0	0.038	137.413	1	13	Feedback	Neutral	True
139.829	2.774	Control	0.6429	n/a	No	2.774	n/a	n/a	NoResponse	0	0.0	n/a	1	13	ISIslide	Neutral	True
142.621	0.25	Win2	0.6667000000000001	0.0	Yes	2.679	0.021	n/a	GoodResponse	1	n/a	n/a	2	14	Cue	Win	True
142.871	4.1	Win2	0.6667000000000001	0.0	Yes	2.679	0.0	n/a	GoodResponse	1	n/a	n/a	2	14	Fixation	Win	True
146.967	0.28	Win2	0.6667000000000001	0.004	Yes	2.679	-0.004	2.0	GoodResponse	1	0.262	146.229	2	14	Target	Win	True
147.229	0.3	Win2	0.6667000000000001	0.004	Yes	2.679	-0.004	2.0	GoodResponse	1	0.262	n/a	2	14	ButtonPress	Win	True
147.251	0.42	Win2	0.6667000000000001	n/a	Yes	2.679	n/a	n/a	GoodResponse	1	n/a	n/a	2	14	Blank	Win	True
147.669	1.45	Win2	0.6667000000000001	n/a	Yes	2.679	n/a	5.0	GoodResponse	1	0.013	146.682	2	14	Feedback	Win	True
149.123	2.679	Win2	0.6667000000000001	n/a	Yes	2.679	n/a	n/a	GoodResponse	1	0.0	n/a	2	14	ISIslide	Win	True
151.815	0.25	Control	0.6875	0.0	Yes	2.985	0.015	n/a	GoodResponse	0	n/a	n/a	2	15	Cue	Neutral	True
152.065	4.0	Control	0.6875	0.001	Yes	2.985	0.0	n/a	GoodResponse	0	n/a	n/a	2	15	Fixation	Neutral	True
156.061	0.27	Control	0.6875	0.004	Yes	2.985	-0.004	2.0	GoodResponse	0	0.23	155.291	2	15	Target	Neutral	True
156.291	0.3	Control	0.6875	0.004	Yes	2.985	-0.004	2.0	GoodResponse	0	0.23	n/a	2	15	ButtonPress	Neutral	True
156.345	0.43	Control	0.6875	n/a	Yes	2.985	n/a	n/a	GoodResponse	0	n/a	n/a	2	15	Blank	Neutral	True
156.763	1.45	Control	0.6875	n/a	Yes	2.985	n/a	5.0	GoodResponse	0	0.041	155.804	2	15	Feedback	Neutral	True
158.217	2.985	Control	0.6875	n/a	Yes	2.985	n/a	n/a	GoodResponse	0	0.0	n/a	2	15	ISIslide	Neutral	True
161.226	0.25	Win2	0.7059000000000001	0.0	Yes	2.874	0.026	n/a	GoodResponse	1	n/a	n/a	3	16	Cue	Win	True
161.477	4.0	Win2	0.7059000000000001	0.0	Yes	2.874	0.001	n/a	GoodResponse	1	n/a	n/a	3	16	Fixation	Win	True
165.472	0.26	Win2	0.7059000000000001	0.004	Yes	2.874	-0.004	2.0	GoodResponse	1	0.223	164.695	3	16	Target	Win	True
165.695	0.3	Win2	0.7059000000000001	0.004	Yes	2.874	-0.004	2.0	GoodResponse	1	0.223	n/a	3	16	ButtonPress	Win	True
165.74	0.44	Win2	0.7059000000000001	n/a	Yes	2.874	n/a	n/a	GoodResponse	1	n/a	n/a	3	16	Blank	Win	True
166.174	1.45	Win2	0.7059000000000001	n/a	Yes	2.874	n/a	5.0	GoodResponse	1	0.044	165.218	3	16	Feedback	Win	True
167.629	2.874	Win2	0.7059000000000001	n/a	Yes	2.874	n/a	n/a	GoodResponse	1	0.0	n/a	3	16	ISIslide	Win	True
170.521	0.25	Lose2	0.7222	0.0	Yes	2.729	0.021	n/a	GoodResponse	0	n/a	n/a	3	17	Cue	AvoidedLoss	True
170.771	3.95	Lose2	0.7222	0.0	Yes	2.729	0.0	n/a	GoodResponse	0	n/a	n/a	3	17	Fixation	AvoidedLoss	True
174.717	0.25	Lose2	0.7222	0.004	Yes	2.729	-0.004	2.0	GoodResponse	0	0.231	173.948	3	17	Target	AvoidedLoss	True
174.948	0.3	Lose2	0.7222	0.004	Yes	2.729	-0.004	2.0	GoodResponse	0	0.231	n/a	3	17	ButtonPress	AvoidedLoss	True
174.967	0.45	Lose2	0.7222	n/a	Yes	2.729	n/a	n/a	GoodResponse	0	n/a	n/a	3	17	Blank	AvoidedLoss	True
175.419	1.45	Lose2	0.7222	n/a	Yes	2.729	n/a	5.0	GoodResponse	0	0.018	174.437	3	17	Feedback	AvoidedLoss	True
176.873	2.729	Lose2	0.7222	n/a	Yes	2.729	n/a	n/a	GoodResponse	0	0.0	n/a	3	17	ISIslide	AvoidedLoss	True
179.615	0.25	Lose2	0.7368000000000001	0.0	Yes	2.735	0.015	n/a	GoodResponse	0	n/a	n/a	3	18	Cue	AvoidedLoss	True
179.865	4.05	Lose2	0.7368000000000001	0.0	Yes	2.735	0.0	n/a	GoodResponse	0	n/a	n/a	3	18	Fixation	AvoidedLoss	True
183.911	0.24	Lose2	0.7368000000000001	0.004	Yes	2.735	-0.004	2.0	GoodResponse	0	0.234	183.145	3	18	Target	AvoidedLoss	True
184.145	0.3	Lose2	0.7368000000000001	0.004	Yes	2.735	-0.004	2.0	GoodResponse	0	0.234	n/a	3	18	ButtonPress	AvoidedLoss	True
184.161	0.46	Lose2	0.7368000000000001	n/a	Yes	2.735	n/a	n/a	GoodResponse	0	n/a	n/a	3	18	Blank	AvoidedLoss	True
184.613	1.45	Lose2	0.7368000000000001	n/a	Yes	2.735	n/a	5.0	GoodResponse	0	0.044	183.657	3	18	Feedback	AvoidedLoss	True
186.067	2.735	Lose2	0.7368000000000001	n/a	Yes	2.735	n/a	n/a	GoodResponse	0	0.0	n/a	3	18	ISIslide	AvoidedLoss	True
188.825	0.25	Control	0.7	0.001	No	2.925	0.025	n/a	NoResponse	0	n/a	n/a	3	19	Cue	Neutral	False
189.076	3.95	Control	0.7	0.0	No	2.925	0.001	2.0	NoResponse	0	2.964	191.04	3	19	Fixation	Neutral	False
192.04	0.3	Control	0.7	0.0	No	2.925	0.001	2.0	NoResponse	0	2.964	n/a	3	19	ButtonPress	Neutral	False
193.021	0.23	Control	0.7	0.004	No	2.925	-0.004	2.0	NoResponse	0	0.24	192.261	3	19	Target	Neutral	False
193.255	0.47	Control	0.7	n/a	No	2.925	n/a	n/a	NoResponse	0	n/a	n/a	3	19	Blank	Neutral	False
193.261	0.3	Control	0.7	0.004	No	2.925	-0.004	2.0	NoResponse	0	0.24	n/a	3	19	ButtonPress	Neutral	False
193.723	1.45	Control	0.7	n/a	No	2.925	n/a	5.0	NoResponse	0	0.007	192.73	3	19	Feedback	Neutral	False
195.178	2.925	Control	0.7	n/a	No	2.925	n/a	n/a	NoResponse	0	0.0	n/a	3	19	ISIslide	Neutral	False
198.12	0.25	Control	0.6667000000000001	0.0	No	2.63	0.02	n/a	NoResponse	0	n/a	n/a	3	20	Cue	Neutral	True
198.371	4.05	Control	0.6667000000000001	0.0	No	2.63	0.001	n/a	NoResponse	0	n/a	n/a	3	20	Fixation	Neutral	True
202.416	0.22	Control	0.6667000000000001	0.004	No	2.63	-0.004	2.0	NoResponse	0	0.374	201.79	3	20	Target	Neutral	True
202.65	0.48	Control	0.6667000000000001	n/a	No	2.63	n/a	n/a	NoResponse	0	n/a	n/a	3	20	Blank	Neutral	True
202.79	0.3	Control	0.6667000000000001	0.004	No	2.63	-0.004	2.0	NoResponse	0	0.374	n/a	3	20	ButtonPress	Neutral	True
203.118	1.45	Control	0.6667000000000001	n/a	No	2.63	n/a	5.0	NoResponse	0	0.027	202.145	3	20	Feedback	Neutral	True
204.572	2.63	Control	0.6667000000000001	n/a	No	2.63	n/a	n/a	NoResponse	0	0.0	n/a	3	20	ISIslide	Neutral	True
207.214	0.25	Control	0.6818000000000001	0.0	Yes	2.786	0.014	n/a	GoodResponse	0	n/a	n/a	3	21	Cue	Neutral	True
207.464	4.1	Control	0.6818000000000001	0.001	Yes	2.786	0.0	n/a	GoodResponse	0	n/a	n/a	3	21	Fixation	Neutral	True
211.56	0.21	Control	0.6818000000000001	0.004	Yes	2.786	-0.004	2.0	GoodResponse	0	0.191	210.751	3	21	Target	Neutral	True
211.751	0.3	Control	0.6818000000000001	0.004	Yes	2.786	-0.004	2.0	GoodResponse	0	0.191	n/a	3	21	ButtonPress	Neutral	True
211.777	0.49	Control	0.6818000000000001	n/a	Yes	2.786	n/a	n/a	GoodResponse	0	n/a	n/a	3	21	Blank	Neutral	True
212.262	1.45	Control	0.6818000000000001	n/a	Yes	2.786	n/a	5.0	GoodResponse	0	0.005	211.267	3	21	Feedback	Neutral	True
213.716	2.786	Control	0.6818000000000001	n/a	Yes	2.786	n/a	n/a	GoodResponse	0	0.0	n/a	3	21	ISIslide	Neutral	True
216.525	0.25	Control	0.6522	0.0	No	2.775	0.025	n/a	NoResponse	0	n/a	n/a	3	22	Cue	Neutral	True
216.776	4.0	Control	0.6522	0.0	No	2.775	0.001	n/a	NoResponse	0	n/a	n/a	3	22	Fixation	Neutral	True
220.771	0.2	Control	0.6522	0.004	No	2.775	-0.004	2.0	NoResponse	0	0.307	220.078	3	22	Target	Neutral	True
220.972	0.5	Control	0.6522	n/a	No	2.775	n/a	n/a	NoResponse	0	n/a	n/a	3	22	Blank	Neutral	True
221.078	0.3	Control	0.6522	0.004	No	2.775	-0.004	2.0	NoResponse	0	0.307	n/a	3	22	ButtonPress	Neutral	True
221.473	1.45	Control	0.6522	n/a	No	2.775	n/a	5.0	NoResponse	0	0.012	220.485	3	22	Feedback	Neutral	True
222.927	2.775	Control	0.6522	n/a	No	2.775	n/a	n/a	NoResponse	0	0.0	n/a	3	22	ISIslide	Neutral	True
225.719	0.25	Control	0.6667000000000001	0.0	Yes	2.781	0.019	n/a	GoodResponse	0	n/a	n/a	3	23	Cue	Neutral	True
225.97	3.9	Control	0.6667000000000001	0.0	Yes	2.781	0.001	n/a	GoodResponse	0	n/a	n/a	3	23	Fixation	Neutral	True
229.865	0.21	Control	0.6667000000000001	0.004	Yes	2.781	-0.004	2.0	GoodResponse	0	0.204	229.069	3	23	Target	Neutral	True
230.069	0.3	Control	0.6667000000000001	0.004	Yes	2.781	-0.004	2.0	GoodResponse	0	0.204	n/a	3	23	ButtonPress	Neutral	True
230.082	0.49	Control	0.6667000000000001	n/a	Yes	2.781	n/a	n/a	GoodResponse	0	n/a	n/a	3	23	Blank	Neutral	True
230.567	1.45	Control	0.6667000000000001	n/a	Yes	2.781	n/a	5.0	GoodResponse	0	0.04	229.607	3	23	Feedback	Neutral	True
232.021	2.781	Control	0.6667000000000001	n/a	Yes	2.781	n/a	n/a	GoodResponse	0	0.0	n/a	3	23	ISIslide	Neutral	True
234.83	0.25	Win2	0.68	0.0	Yes	3.12	0.03	n/a	GoodResponse	1	n/a	n/a	4	24	Cue	Win	True
235.08	3.95	Win2	0.68	0.0	Yes	3.12	0.0	n/a	GoodResponse	1	n/a	n/a	4	24	Fixation	Win	True
239.025	0.2	Win2	0.68	0.005	Yes	3.12	-0.005	2.0	GoodResponse	1	0.186	238.211	4	24	Target	Win	True
239.211	0.3	Win2	0.68	0.005	Yes	3.12	-0.005	2.0	GoodResponse	1	0.186	n/a	4	24	ButtonPress	Win	True
239.226	0.5	Win2	0.68	n/a	Yes	3.12	n/a	n/a	GoodResponse	1	n/a	n/a	4	24	Blank	Win	True
239.728	1.45	Win2	0.68	n/a	Yes	3.12	n/a	5.0	GoodResponse	1	0.002	238.73	4	24	Feedback	Win	True
241.182	3.12	Win2	0.68	n/a	Yes	3.12	n/a	n/a	GoodResponse	1	0.0	n/a	4	24	ISIslide	Win	True
244.325	0.25	Win2	0.6537999999999999	0.0	No	3.075	0.025	n/a	NoResponse	0	n/a	n/a	4	25	Cue	MissedWin	True
244.575	4.0	Win2	0.6537999999999999	0.0	No	3.075	0.0	n/a	NoResponse	0	n/a	n/a	4	25	Fixation	MissedWin	True
248.571	0.19	Win2	0.6537999999999999	0.004	No	3.075	-0.004	2.0	NoResponse	0	0.222	247.793	4	25	Target	MissedWin	True
248.771	0.51	Win2	0.6537999999999999	n/a	No	3.075	n/a	n/a	NoResponse	0	n/a	n/a	4	25	Blank	MissedWin	True
248.793	0.3	Win2	0.6537999999999999	0.004	No	3.075	-0.004	2.0	NoResponse	0	0.222	n/a	4	25	ButtonPress	MissedWin	True
249.273	1.45	Win2	0.6537999999999999	n/a	No	3.075	n/a	5.0	NoResponse	0	0.018	248.291	4	25	Feedback	MissedWin	True
250.727	3.075	Win2	0.6537999999999999	n/a	No	3.075	n/a	n/a	NoResponse	0	0.0	n/a	4	25	ISIslide	MissedWin	True
253.82	0.25	Win2	0.6296	0.0	No	2.93	0.02	n/a	NoResponse	0	n/a	n/a	4	26	Cue	MissedWin	True
254.071	3.95	Win2	0.6296	0.0	No	2.93	0.001	n/a	NoResponse	0	n/a	n/a	4	26	Fixation	MissedWin	True
258.016	0.2	Win2	0.6296	0.004	No	2.93	-0.004	2.0	NoResponse	0	0.309	257.325	4	26	Target	MissedWin	True
258.216	0.5	Win2	0.6296	n/a	No	2.93	n/a	n/a	NoResponse	0	n/a	n/a	4	26	Blank	MissedWin	True
258.325	0.3	Win2	0.6296	0.004	No	2.93	-0.004	2.0	NoResponse	0	0.309	n/a	4	26	ButtonPress	MissedWin	True
258.718	1.45	Win2	0.6296	n/a	No	2.93	n/a	5.0	NoResponse	0	0.035	257.753	4	26	Feedback	MissedWin	True
260.172	2.93	Win2	0.6296	n/a	No	2.93	n/a	n/a	NoResponse	0	0.0	n/a	4	26	ISIslide	MissedWin	True
263.114	0.25	Lose2	0.6429	0.0	Yes	2.836	0.014	n/a	GoodResponse	0	n/a	n/a	4	27	Cue	AvoidedLoss	True
263.365	4.05	Lose2	0.6429	0.0	Yes	2.836	0.001	n/a	GoodResponse	0	n/a	n/a	4	27	Fixation	AvoidedLoss	True
267.41	0.21	Lose2	0.6429	0.004	Yes	2.836	-0.004	2.0	GoodResponse	0	0.172	266.582	4	27	Target	AvoidedLoss	True
267.582	0.3	Lose2	0.6429	0.004	Yes	2.836	-0.004	2.0	GoodResponse	0	0.172	n/a	4	27	ButtonPress	AvoidedLoss	True
267.628	0.49	Lose2	0.6429	n/a	Yes	2.836	n/a	n/a	GoodResponse	0	n/a	n/a	4	27	Blank	AvoidedLoss	True
268.112	1.45	Lose2	0.6429	n/a	Yes	2.836	n/a	5.0	GoodResponse	0	0.007	267.119	4	27	Feedback	AvoidedLoss	True
269.567	2.836	Lose2	0.6429	n/a	Yes	2.836	n/a	n/a	GoodResponse	0	0.0	n/a	4	27	ISIslide	AvoidedLoss	True
272.425	0.25	Control	0.6207	0.0	No	2.825	0.025	n/a	NoResponse	0	n/a	n/a	4	28	Cue	Neutral	True
272.676	4.05	Control	0.6207	0.0	No	2.825	0.001	n/a	NoResponse	0	n/a	n/a	4	28	Fixation	Neutral	True
276.722	0.22	Control	0.6207	0.003	No	2.825	-0.003	2.0	NoResponse	0	0.241	275.963	4	28	Target	Neutral	True
276.956	0.48	Control	0.6207	n/a	No	2.825	n/a	n/a	NoResponse	0	n/a	n/a	4	28	Blank	Neutral	True
276.963	0.3	Control	0.6207	0.003	No	2.825	-0.003	2.0	NoResponse	0	0.241	n/a	4	28	ButtonPress	Neutral	True
277.424	1.45	Control	0.6207	n/a	No	2.825	n/a	5.0	NoResponse	0	0.012	276.436	4	28	Feedback	Neutral	True
278.878	2.825	Control	0.6207	n/a	No	2.825	n/a	n/a	NoResponse	0	0.0	n/a	4	28	ISIslide	Neutral	True
281.72	0.25	Lose2	0.6333	0.0	Yes	2.83	0.02	n/a	GoodResponse	0	n/a	n/a	4	29	Cue	AvoidedLoss	True
281.971	3.95	Lose2	0.6333	0.0	Yes	2.83	0.001	n/a	GoodResponse	0	n/a	n/a	4	29	Fixation	AvoidedLoss	True
285.916	0.23	Lose2	0.6333	0.004	Yes	2.83	-0.004	2.0	GoodResponse	0	0.204	285.12	4	29	Target	AvoidedLoss	True
286.12	0.3	Lose2	0.6333	0.004	Yes	2.83	-0.004	2.0	GoodResponse	0	0.204	n/a	4	29	ButtonPress	AvoidedLoss	True
286.15	0.47	Lose2	0.6333	n/a	Yes	2.83	n/a	n/a	GoodResponse	0	n/a	n/a	4	29	Blank	AvoidedLoss	True
286.618	1.45	Lose2	0.6333	n/a	Yes	2.83	n/a	5.0	GoodResponse	0	0.038	285.656	4	29	Feedback	AvoidedLoss	True
288.072	2.83	Lose2	0.6333	n/a	Yes	2.83	n/a	n/a	GoodResponse	0	0.0	n/a	4	29	ISIslide	AvoidedLoss	True
290.914	0.25	Win2	0.6129	0.0	No	2.786	0.014	n/a	NoResponse	0	n/a	n/a	4	30	Cue	MissedWin	True
291.165	3.9	Win2	0.6129	0.0	No	2.786	0.001	n/a	NoResponse	0	n/a	n/a	4	30	Fixation	MissedWin	True
295.06	0.24	Win2	0.6129	0.004	No	2.786	-0.004	2.0	NoResponse	0	0.335	294.395	4	30	Target	MissedWin	True
295.31	0.46	Win2	0.6129	n/a	No	2.786	n/a	n/a	NoResponse	0	n/a	n/a	4	30	Blank	MissedWin	True
295.395	0.3	Win2	0.6129	0.004	No	2.786	-0.004	2.0	NoResponse	0	0.335	n/a	4	30	ButtonPress	MissedWin	True
295.762	1.45	Win2	0.6129	n/a	No	2.786	n/a	5.0	NoResponse	0	0.016	294.778	4	30	Feedback	MissedWin	True
297.216	2.786	Win2	0.6129	n/a	No	2.786	n/a	n/a	NoResponse	0	0.0	n/a	4	30	ISIslide	MissedWin	True
300.025	0.25	Lose2	0.625	0.0	Yes	2.825	0.025	n/a	GoodResponse	0	n/a	n/a	4	31	Cue	AvoidedLoss	True
300.275	4.05	Lose2	0.625	0.0	Yes	2.825	0.0	n/a	GoodResponse	0	n/a	n/a	4	31	Fixation	AvoidedLoss	True
304.321	0.25	Lose2	0.625	0.004	Yes	2.825	-0.004	2.0	GoodResponse	0	0.243	303.564	4	31	Target	AvoidedLoss	True
304.564	0.3	Lose2	0.625	0.004	Yes	2.825	-0.004	2.0	GoodResponse	0	0.243	n/a	4	31	ButtonPress	AvoidedLoss	True
304.571	0.45	Lose2	0.625	n/a	Yes	2.825	n/a	n/a	GoodResponse	0	n/a	n/a	4	31	Blank	AvoidedLoss	True
305.023	1.45	Lose2	0.625	n/a	Yes	2.825	n/a	5.0	GoodResponse	0	0.022	304.045	4	31	Feedback	AvoidedLoss	True
306.477	2.825	Lose2	0.625	n/a	Yes	2.825	n/a	n/a	GoodResponse	0	0.0	n/a	4	31	ISIslide	AvoidedLoss	True
309.319	0.25	Lose2	0.6364	0.0	Yes	2.631	0.019	n/a	GoodResponse	0	n/a	n/a	4	32	Cue	AvoidedLoss	True
309.57	4.15	Lose2	0.6364	0.0	Yes	2.631	0.001	n/a	GoodResponse	0	n/a	n/a	4	32	Fixation	AvoidedLoss	True
313.715	0.26	Lose2	0.6364	0.004	Yes	2.631	-0.004	2.0	GoodResponse	0	0.198	312.913	4	32	Target	AvoidedLoss	True
313.913	0.3	Lose2	0.6364	0.004	Yes	2.631	-0.004	2.0	GoodResponse	0	0.198	n/a	4	32	ButtonPress	AvoidedLoss	True
313.983	0.44	Lose2	0.6364	n/a	Yes	2.631	n/a	n/a	GoodResponse	0	n/a	n/a	4	32	Blank	AvoidedLoss	True
314.418	1.45	Lose2	0.6364	n/a	Yes	2.631	n/a	5.0	GoodResponse	0	0.042	313.46	4	32	Feedback	AvoidedLoss	True
315.872	2.631	Lose2	0.6364	n/a	Yes	2.631	n/a	n/a	GoodResponse	0	0.0	n/a	4	32	ISIslide	AvoidedLoss	True
318.53	0.25	Win2	0.6470999999999999	0.0	Yes	2.67	0.03	n/a	GoodResponse	1	n/a	n/a	5	33	Cue	Win	True
318.781	4.0	Win2	0.6470999999999999	0.0	Yes	2.67	0.001	n/a	GoodResponse	1	n/a	n/a	5	33	Fixation	Win	True
322.776	0.27	Win2	0.6470999999999999	0.004	Yes	2.67	-0.004	2.0	GoodResponse	1	0.209	321.985	5	33	Target	Win	True
322.985	0.3	Win2	0.6470999999999999	0.004	Yes	2.67	-0.004	2.0	GoodResponse	1	0.209	n/a	5	33	ButtonPress	Win	True
323.06	0.43	Win2	0.6470999999999999	n/a	Yes	2.67	n/a	n/a	GoodResponse	1	n/a	n/a	5	33	Blank	Win	True
323.478	1.45	Win2	0.6470999999999999	n/a	Yes	2.67	n/a	5.0	GoodResponse	1	0.007	322.485	5	33	Feedback	Win	True
324.932	2.67	Win2	0.6470999999999999	n/a	Yes	2.67	n/a	n/a	GoodResponse	1	0.0	n/a	5	33	ISIslide	Win	True
327.624	0.25	Lose2	0.6570999999999999	0.0	Yes	2.626	0.024	n/a	GoodResponse	0	n/a	n/a	5	34	Cue	AvoidedLoss	True
327.874	4.05	Lose2	0.6570999999999999	0.001	Yes	2.626	0.0	n/a	GoodResponse	0	n/a	n/a	5	34	Fixation	AvoidedLoss	True
331.92	0.28	Lose2	0.6570999999999999	0.004	Yes	2.626	-0.004	2.0	GoodResponse	0	0.171	331.091	5	34	Target	AvoidedLoss	True
332.091	0.3	Lose2	0.6570999999999999	0.004	Yes	2.626	-0.004	2.0	GoodResponse	0	0.171	n/a	5	34	ButtonPress	AvoidedLoss	True
332.204	0.42	Lose2	0.6570999999999999	n/a	Yes	2.626	n/a	n/a	GoodResponse	0	n/a	n/a	5	34	Blank	AvoidedLoss	True
332.622	1.45	Lose2	0.6570999999999999	n/a	Yes	2.626	n/a	5.0	GoodResponse	0	0.033	331.655	5	34	Feedback	AvoidedLoss	True
334.076	2.626	Lose2	0.6570999999999999	n/a	Yes	2.626	n/a	n/a	GoodResponse	0	0.0	n/a	5	34	ISIslide	AvoidedLoss	True
336.718	0.25	Lose2	0.6389	0.0	No	2.682	0.018	n/a	NoResponse	-1	n/a	n/a	4	35	Cue	Loss	True
336.968	4.0	Lose2	0.6389	0.0	No	2.682	0.0	n/a	NoResponse	-1	n/a	n/a	4	35	Fixation	Loss	True
340.964	0.28	Lose2	0.6389	0.004	No	2.682	-0.004	2.0	NoResponse	-1	0.688	340.652	4	35	Target	Loss	True
341.248	0.42	Lose2	0.6389	n/a	No	2.682	n/a	n/a	NoResponse	-1	n/a	n/a	4	35	Blank	Loss	True
341.652	0.3	Lose2	0.6389	0.004	No	2.682	-0.004	2.0	NoResponse	-1	0.688	n/a	4	35	ButtonPress	Loss	True
341.666	1.45	Lose2	0.6389	n/a	No	2.682	n/a	5.0	NoResponse	-1	0.013	340.679	4	35	Feedback	Loss	True
343.12	2.682	Lose2	0.6389	n/a	No	2.682	n/a	n/a	NoResponse	-1	0.0	n/a	4	35	ISIslide	Loss	True
345.828	0.25	Control	0.6486	0.0	Yes	2.672	0.028	n/a	GoodResponse	0	n/a	n/a	4	36	Cue	Neutral	True
346.079	4.0	Control	0.6486	0.0	Yes	2.672	0.001	n/a	GoodResponse	0	n/a	n/a	4	36	Fixation	Neutral	True
350.074	0.29	Control	0.6486	0.004	Yes	2.672	-0.004	2.0	GoodResponse	0	0.206	349.28	4	36	Target	Neutral	True
350.28	0.3	Control	0.6486	0.004	Yes	2.672	-0.004	2.0	GoodResponse	0	0.206	n/a	4	36	ButtonPress	Neutral	True
350.375	0.41	Control	0.6486	n/a	Yes	2.672	n/a	n/a	GoodResponse	0	n/a	n/a	4	36	Blank	Neutral	True
350.776	1.45	Control	0.6486	n/a	Yes	2.672	n/a	5.0	GoodResponse	0	0.025	349.801	4	36	Feedback	Neutral	True
352.231	2.672	Control	0.6486	n/a	Yes	2.672	n/a	n/a	GoodResponse	0	0.0	n/a	4	36	ISIslide	Neutral	True
354.922	0.25	Win2	0.6579	0.0	Yes	2.878	0.022	n/a	GoodResponse	1	n/a	n/a	5	37	Cue	Win	True
355.173	4.0	Win2	0.6579	0.0	Yes	2.878	0.001	n/a	GoodResponse	1	n/a	n/a	5	37	Fixation	Win	True
359.168	0.3	Win2	0.6579	0.004	Yes	2.878	-0.004	2.0	GoodResponse	1	0.236	358.404	5	37	Target	Win	True
359.404	0.3	Win2	0.6579	0.004	Yes	2.878	-0.004	2.0	GoodResponse	1	0.236	n/a	5	37	ButtonPress	Win	True
359.469	0.4	Win2	0.6579	n/a	Yes	2.878	n/a	n/a	GoodResponse	1	n/a	n/a	5	37	Blank	Win	True
359.87	1.45	Win2	0.6579	n/a	Yes	2.878	n/a	5.0	GoodResponse	1	0.005	358.875	5	37	Feedback	Win	True
361.324	2.878	Win2	0.6579	n/a	Yes	2.878	n/a	n/a	GoodResponse	1	0.0	n/a	5	37	ISIslide	Win	True
364.216	0.25	Lose2	0.6667000000000001	0.001	Yes	2.834	0.016	n/a	GoodResponse	0	n/a	n/a	5	38	Cue	AvoidedLoss	True
364.467	3.95	Lose2	0.6667000000000001	0.0	Yes	2.834	0.001	n/a	GoodResponse	0	n/a	n/a	5	38	Fixation	AvoidedLoss	True
368.412	0.3	Lose2	0.6667000000000001	0.004	Yes	2.834	-0.004	2.0	GoodResponse	0	0.219	367.631	5	38	Target	AvoidedLoss	True
368.631	0.3	Lose2	0.6667000000000001	0.004	Yes	2.834	-0.004	2.0	GoodResponse	0	0.219	n/a	5	38	ButtonPress	AvoidedLoss	True
368.713	0.4	Lose2	0.6667000000000001	n/a	Yes	2.834	n/a	n/a	GoodResponse	0	n/a	n/a	5	38	Blank	AvoidedLoss	True
369.114	1.45	Lose2	0.6667000000000001	n/a	Yes	2.834	n/a	5.0	GoodResponse	0	0.029	368.143	5	38	Feedback	AvoidedLoss	True
370.569	2.834	Lose2	0.6667000000000001	n/a	Yes	2.834	n/a	n/a	GoodResponse	0	0.0	n/a	5	38	ISIslide	AvoidedLoss	True
373.427	0.25	Win2	0.675	0.0	Yes	2.973	0.027	n/a	GoodResponse	1	n/a	n/a	6	39	Cue	Win	True
373.678	4.1	Win2	0.675	0.0	Yes	2.973	0.001	n/a	GoodResponse	1	n/a	n/a	6	39	Fixation	Win	True
377.774	0.29	Win2	0.675	0.003	Yes	2.973	-0.003	2.0	GoodResponse	1	0.233	377.007	6	39	Target	Win	True
378.007	0.3	Win2	0.675	0.003	Yes	2.973	-0.003	2.0	GoodResponse	1	0.233	n/a	6	39	ButtonPress	Win	True
378.075	0.41	Win2	0.675	n/a	Yes	2.973	n/a	n/a	GoodResponse	1	n/a	n/a	6	39	Blank	Win	True
378.476	1.45	Win2	0.675	n/a	Yes	2.973	n/a	5.0	GoodResponse	1	0.032	377.508	6	39	Feedback	Win	True
379.93	2.973	Win2	0.675	n/a	Yes	2.973	n/a	n/a	GoodResponse	1	0.0	n/a	6	39	ISIslide	Win	True
382.922	0.25	Win2	0.6829000000000001	0.0	Yes	2.728	0.022	n/a	GoodResponse	1	n/a	n/a	7	40	Cue	Win	True
383.173	3.95	Win2	0.6829000000000001	0.0	Yes	2.728	0.001	n/a	GoodResponse	1	n/a	n/a	7	40	Fixation	Win	True
387.118	0.28	Win2	0.6829000000000001	0.004	Yes	2.728	-0.004	2.0	GoodResponse	1	0.197	386.315	7	40	Target	Win	True
387.315	0.3	Win2	0.6829000000000001	0.004	Yes	2.728	-0.004	2.0	GoodResponse	1	0.197	n/a	7	40	ButtonPress	Win	True
387.402	0.42	Win2	0.6829000000000001	n/a	Yes	2.728	n/a	n/a	GoodResponse	1	n/a	n/a	7	40	Blank	Win	True
387.82	1.45	Win2	0.6829000000000001	n/a	Yes	2.728	n/a	5.0	GoodResponse	1	0.007	386.827	7	40	Feedback	Win	True
389.275	2.728	Win2	0.6829000000000001	n/a	Yes	2.728	n/a	n/a	GoodResponse	1	0.0	n/a	7	40	ISIslide	Win	True
392.016	0.25	Win2	0.6905	0.0	Yes	2.784	0.016	n/a	GoodResponse	1	n/a	n/a	8	41	Cue	Win	True
392.267	3.9	Win2	0.6905	0.0	Yes	2.784	0.001	n/a	GoodResponse	1	n/a	n/a	8	41	Fixation	Win	True
396.162	0.27	Win2	0.6905	0.004	Yes	2.784	-0.004	2.0	GoodResponse	1	0.236	395.398	8	41	Target	Win	True
396.398	0.3	Win2	0.6905	0.004	Yes	2.784	-0.004	2.0	GoodResponse	1	0.236	n/a	8	41	ButtonPress	Win	True
396.446	0.43	Win2	0.6905	n/a	Yes	2.784	n/a	n/a	GoodResponse	1	n/a	n/a	8	41	Blank	Win	True
396.864	1.45	Win2	0.6905	n/a	Yes	2.784	n/a	5.0	GoodResponse	1	0.034	395.898	8	41	Feedback	Win	True
398.318	2.784	Win2	0.6905	n/a	Yes	2.784	n/a	n/a	GoodResponse	1	0.0	n/a	8	41	ISIslide	Win	True
401.127	0.25	Control	0.6977	0.0	Yes	2.923	0.027	n/a	GoodResponse	0	n/a	n/a	8	42	Cue	Neutral	True
401.378	3.85	Control	0.6977	0.0	Yes	2.923	0.001	n/a	GoodResponse	0	n/a	n/a	8	42	Fixation	Neutral	True
405.239	0.26	Control	0.6977	0.0	Yes	2.923	0.012	2.0	GoodResponse	0	0.231	404.47	8	42	Target	Neutral	True
405.47	0.3	Control	0.6977	0.0	Yes	2.923	0.012	2.0	GoodResponse	0	0.231	n/a	8	42	ButtonPress	Neutral	True
405.49	0.44	Control	0.6977	n/a	Yes	2.923	n/a	n/a	GoodResponse	0	n/a	n/a	8	42	Blank	Neutral	True
405.924	1.45	Control	0.6977	n/a	Yes	2.923	n/a	5.0	GoodResponse	0	0.047	404.971	8	42	Feedback	Neutral	True
407.379	2.923	Control	0.6977	n/a	Yes	2.923	n/a	n/a	GoodResponse	0	0.0	n/a	8	42	ISIslide	Neutral	True
410.321	0.25	Win2	0.7045	0.0	Yes	3.179	0.021	n/a	GoodResponse	1	n/a	n/a	9	43	Cue	Win	True
410.572	4.0	Win2	0.7045	0.0	Yes	3.179	0.001	n/a	GoodResponse	1	n/a	n/a	9	43	Fixation	Win	True
414.567	0.25	Win2	0.7045	0.004	Yes	3.179	-0.004	2.0	GoodResponse	1	0.199	413.766	9	43	Target	Win	True
414.766	0.3	Win2	0.7045	0.004	Yes	3.179	-0.004	2.0	GoodResponse	1	0.199	n/a	9	43	ButtonPress	Win	True
414.818	0.45	Win2	0.7045	n/a	Yes	3.179	n/a	n/a	GoodResponse	1	n/a	n/a	9	43	Blank	Win	True
415.269	1.45	Win2	0.7045	n/a	Yes	3.179	n/a	5.0	GoodResponse	1	0.019	414.288	9	43	Feedback	Win	True
416.723	3.179	Win2	0.7045	n/a	Yes	3.179	n/a	n/a	GoodResponse	1	0.0	n/a	9	43	ISIslide	Win	True
419.916	0.25	Win2	0.6889	0.0	No	2.984	0.016	n/a	NoResponse	0	n/a	n/a	9	44	Cue	MissedWin	True
420.167	4.0	Win2	0.6889	0.0	No	2.984	0.001	n/a	NoResponse	0	n/a	n/a	9	44	Fixation	MissedWin	True
424.162	0.24	Win2	0.6889	0.004	No	2.984	-0.004	2.0	NoResponse	0	0.462	423.624	9	44	Target	MissedWin	True
424.413	0.46	Win2	0.6889	n/a	No	2.984	n/a	n/a	NoResponse	0	n/a	n/a	9	44	Blank	MissedWin	True
424.624	0.3	Win2	0.6889	0.004	No	2.984	-0.004	2.0	NoResponse	0	0.462	n/a	9	44	ButtonPress	MissedWin	True
424.864	1.45	Win2	0.6889	n/a	No	2.984	n/a	5.0	NoResponse	0	0.034	423.898	9	44	Feedback	MissedWin	True
426.319	2.984	Win2	0.6889	n/a	No	2.984	n/a	n/a	NoResponse	0	0.0	n/a	9	44	ISIslide	MissedWin	True
429.328	0.25	Control	0.6739	0.0	No	2.872	0.028	n/a	PrematurePress	0	n/a	n/a	9	45	Cue	Neutral	False
429.579	4.1	Control	0.6739	0.0	No	2.872	0.001	2.0	PrematurePress	0	3.567	432.146	9	45	Fixation	Neutral	False
433.146	0.3	Control	0.6739	0.0	No	2.872	0.001	2.0	PrematurePress	0	3.567	n/a	9	45	ButtonPress	Neutral	False
433.674	0.23	Control	0.6739	0.004	No	2.872	-0.004	2.0	PrematurePress	0	0.048	432.722	9	45	Target	Neutral	False
433.722	0.3	Control	0.6739	0.004	No	2.872	-0.004	2.0	PrematurePress	0	0.048	n/a	9	45	ButtonPress	Neutral	False
433.908	0.47	Control	0.6739	n/a	No	2.872	n/a	n/a	PrematurePress	0	n/a	n/a	9	45	Blank	Neutral	False
434.376	1.45	Control	0.6739	n/a	No	2.872	n/a	5.0	PrematurePress	0	0.034	433.41	9	45	Feedback	Neutral	False
435.831	2.872	Control	0.6739	n/a	No	2.872	n/a	n/a	PrematurePress	0	0.0	n/a	9	45	ISIslide	Neutral	False
438.723	0.25	Lose2	0.6809000000000001	0.0	Yes	3.377	0.023	n/a	GoodResponse	0	n/a	n/a	9	46	Cue	AvoidedLoss	True
438.973	4.0	Lose2	0.6809000000000001	0.0	Yes	3.377	0.0	n/a	GoodResponse	0	n/a	n/a	9	46	Fixation	AvoidedLoss	True
442.969	0.22	Lose2	0.6809000000000001	0.004	Yes	3.377	-0.004	2.0	GoodResponse	0	0.199	442.168	9	46	Target	AvoidedLoss	True
443.168	0.3	Lose2	0.6809000000000001	0.004	Yes	3.377	-0.004	2.0	GoodResponse	0	0.199	n/a	9	46	ButtonPress	AvoidedLoss	True
443.203	0.48	Lose2	0.6809000000000001	n/a	Yes	3.377	n/a	n/a	GoodResponse	0	n/a	n/a	9	46	Blank	AvoidedLoss	True
443.671	1.45	Lose2	0.6809000000000001	n/a	Yes	3.377	n/a	5.0	GoodResponse	0	0.008	442.679	9	46	Feedback	AvoidedLoss	True
445.125	3.377	Lose2	0.6809000000000001	n/a	Yes	3.377	n/a	n/a	GoodResponse	0	0.0	n/a	9	46	ISIslide	AvoidedLoss	True
448.519	0.25	Lose2	0.6667000000000001	0.0	No	2.681	0.019	n/a	NoResponse	-1	n/a	n/a	8	47	Cue	Loss	True
448.769	4.0	Lose2	0.6667000000000001	0.0	No	2.681	0.0	n/a	NoResponse	-1	n/a	n/a	8	47	Fixation	Loss	True
452.765	0.21	Lose2	0.6667000000000001	0.004	No	2.681	-0.004	2.0	NoResponse	-1	0.266	452.031	8	47	Target	Loss	True
452.982	0.49	Lose2	0.6667000000000001	n/a	No	2.681	n/a	n/a	NoResponse	-1	n/a	n/a	8	47	Blank	Loss	True
453.031	0.3	Lose2	0.6667000000000001	0.004	No	2.681	-0.004	2.0	NoResponse	-1	0.266	n/a	8	47	ButtonPress	Loss	True
453.467	1.45	Lose2	0.6667000000000001	n/a	No	2.681	n/a	5.0	NoResponse	-1	0.016	452.483	8	47	Feedback	Loss	True
454.921	2.681	Lose2	0.6667000000000001	n/a	No	2.681	n/a	n/a	NoResponse	-1	0.0	n/a	8	47	ISIslide	Loss	True
457.629	0.25	Lose2	0.6735	0.0	Yes	3.021	0.029	n/a	GoodResponse	0	n/a	n/a	8	48	Cue	AvoidedLoss	True
457.88	3.95	Lose2	0.6735	0.0	Yes	3.021	0.001	n/a	GoodResponse	0	n/a	n/a	8	48	Fixation	AvoidedLoss	True
461.825	0.2	Lose2	0.6735	0.004	Yes	3.021	-0.004	2.0	GoodResponse	0	0.184	461.009	8	48	Target	AvoidedLoss	True
462.009	0.3	Lose2	0.6735	0.004	Yes	3.021	-0.004	2.0	GoodResponse	0	0.184	n/a	8	48	ButtonPress	AvoidedLoss	True
462.026	0.5	Lose2	0.6735	n/a	Yes	3.021	n/a	n/a	GoodResponse	0	n/a	n/a	8	48	Blank	AvoidedLoss	True
462.527	1.45	Lose2	0.6735	n/a	Yes	3.021	n/a	5.0	GoodResponse	0	0.029	461.556	8	48	Feedback	AvoidedLoss	True
463.981	3.021	Lose2	0.6735	n/a	Yes	3.021	n/a	n/a	GoodResponse	0	0.0	n/a	8	48	ISIslide	AvoidedLoss	True
467.024	0.25	Control	0.66	0.0	No	2.876	0.024	n/a	NoResponse	0	n/a	n/a	8	49	Cue	Neutral	False
467.275	4.0	Control	0.66	0.0	No	2.876	0.001	2.0	NoResponse	0	3.899	470.174	8	49	Fixation	Neutral	False
471.174	0.3	Control	0.66	0.0	No	2.876	0.001	2.0	NoResponse	0	3.899	n/a	8	49	ButtonPress	Neutral	False
471.27	0.19	Control	0.66	0.004	No	2.876	-0.004	2.0	NoResponse	0	0.253	470.523	8	49	Target	Neutral	False
471.47	0.51	Control	0.66	n/a	No	2.876	n/a	n/a	NoResponse	0	n/a	n/a	8	49	Blank	Neutral	False
471.523	0.3	Control	0.66	0.004	No	2.876	-0.004	2.0	NoResponse	0	0.253	n/a	8	49	ButtonPress	Neutral	False
471.972	1.45	Control	0.66	n/a	No	2.876	n/a	5.0	NoResponse	0	0.047	471.019	8	49	Feedback	Neutral	False
473.426	2.876	Control	0.66	n/a	No	2.876	n/a	n/a	NoResponse	0	0.0	n/a	8	49	ISIslide	Neutral	False
476.318	0.25	Control	0.6470999999999999	0.0	No	2.782	0.018	n/a	NoResponse	0	n/a	n/a	8	50	Cue	Neutral	True
476.569	4.0	Control	0.6470999999999999	0.0	No	2.782	0.001	n/a	NoResponse	0	n/a	n/a	8	50	Fixation	Neutral	True
480.564	0.19	Control	0.6470999999999999	0.004	No	2.782	-0.004	2.0	NoResponse	0	0.21	479.774	8	50	Target	Neutral	True
480.765	0.51	Control	0.6470999999999999	n/a	No	2.782	n/a	n/a	NoResponse	0	n/a	n/a	8	50	Blank	Neutral	True
480.774	0.3	Control	0.6470999999999999	0.004	No	2.782	-0.004	2.0	NoResponse	0	0.21	n/a	8	50	ButtonPress	Neutral	True
481.266	1.45	Control	0.6470999999999999	n/a	No	2.782	n/a	5.0	NoResponse	0	0.021	480.287	8	50	Feedback	Neutral	True
482.721	2.782	Control	0.6470999999999999	n/a	No	2.782	n/a	n/a	NoResponse	0	0.0	n/a	8	50	ISIslide	Neutral	True
485.529	0.25	Control	0.6346	0.0	No	2.721	0.029	n/a	NoResponse	0	n/a	n/a	8	51	Cue	Neutral	True
485.78	3.95	Control	0.6346	0.0	No	2.721	0.001	n/a	NoResponse	0	n/a	n/a	8	51	Fixation	Neutral	True
489.725	0.2	Control	0.6346	0.004	No	2.721	-0.004	2.0	NoResponse	0	0.253	488.978	8	51	Target	Neutral	True
489.926	0.5	Control	0.6346	n/a	No	2.721	n/a	n/a	NoResponse	0	n/a	n/a	8	51	Blank	Neutral	True
489.978	0.3	Control	0.6346	0.004	No	2.721	-0.004	2.0	NoResponse	0	0.253	n/a	8	51	ButtonPress	Neutral	True
490.427	1.45	Control	0.6346	n/a	No	2.721	n/a	5.0	NoResponse	0	0.031	489.458	8	51	Feedback	Neutral	True
491.882	2.721	Control	0.6346	n/a	No	2.721	n/a	n/a	NoResponse	0	0.0	n/a	8	51	ISIslide	Neutral	True
494.623	0.25	Control	0.6225999999999999	0.0	No	2.627	0.023	n/a	NoResponse	0	n/a	n/a	8	52	Cue	Neutral	True
494.874	4.05	Control	0.6225999999999999	0.0	No	2.627	0.001	n/a	NoResponse	0	n/a	n/a	8	52	Fixation	Neutral	True
498.919	0.21	Control	0.6225999999999999	0.004	No	2.627	-0.004	2.0	NoResponse	0	0.244	498.163	8	52	Target	Neutral	True
499.137	0.49	Control	0.6225999999999999	n/a	No	2.627	n/a	n/a	NoResponse	0	n/a	n/a	8	52	Blank	Neutral	True
499.163	0.3	Control	0.6225999999999999	0.004	No	2.627	-0.004	2.0	NoResponse	0	0.244	n/a	8	52	ButtonPress	Neutral	True
499.621	1.45	Control	0.6225999999999999	n/a	No	2.627	n/a	5.0	NoResponse	0	0.008	498.629	8	52	Feedback	Neutral	True
501.076	2.627	Control	0.6225999999999999	n/a	No	2.627	n/a	n/a	NoResponse	0	0.0	n/a	8	52	ISIslide	Neutral	True
503.717	0.25	Win2	0.6111	0.0	No	2.933	0.017	n/a	LatePress	0	n/a	n/a	8	53	Cue	MissedWin	True
503.968	4.05	Win2	0.6111	0.0	No	2.933	0.001	n/a	LatePress	0	n/a	n/a	8	53	Fixation	MissedWin	True
508.013	0.22	Win2	0.6111	0.004	No	2.933	-0.004	2.0	LatePress	0	0.229	507.242	8	53	Target	MissedWin	True
508.242	0.3	Win2	0.6111	0.004	No	2.933	-0.004	2.0	LatePress	0	0.229	n/a	8	53	ButtonPress	MissedWin	True
508.247	0.48	Win2	0.6111	n/a	No	2.933	n/a	n/a	LatePress	0	n/a	n/a	8	53	Blank	MissedWin	True
508.715	1.45	Win2	0.6111	n/a	No	2.933	n/a	5.0	LatePress	0	0.036	507.751	8	53	Feedback	MissedWin	True
510.17	2.933	Win2	0.6111	n/a	No	2.933	n/a	n/a	LatePress	0	0.0	n/a	8	53	ISIslide	MissedWin	True
513.128	0.25	Win2	0.6182	0.0	Yes	2.722	0.028	n/a	GoodResponse	1	n/a	n/a	9	54	Cue	Win	True
513.379	3.95	Win2	0.6182	0.0	Yes	2.722	0.001	n/a	GoodResponse	1	n/a	n/a	9	54	Fixation	Win	True
517.324	0.23	Win2	0.6182	0.004	Yes	2.722	-0.004	2.0	GoodResponse	1	0.197	516.521	9	54	Target	Win	True
517.521	0.3	Win2	0.6182	0.004	Yes	2.722	-0.004	2.0	GoodResponse	1	0.197	n/a	9	54	ButtonPress	Win	True
517.558	0.47	Win2	0.6182	n/a	Yes	2.722	n/a	n/a	GoodResponse	1	n/a	n/a	9	54	Blank	Win	True
518.026	1.45	Win2	0.6182	n/a	Yes	2.722	n/a	5.0	GoodResponse	1	0.041	517.067	9	54	Feedback	Win	True
519.481	2.722	Win2	0.6182	n/a	Yes	2.722	n/a	n/a	GoodResponse	1	0.0	n/a	9	54	ISIslide	Win	True
522.222	0.25	Control	0.625	0.0	Yes	3.028	0.022	n/a	GoodResponse	0	n/a	n/a	9	55	Cue	Neutral	True
522.473	3.95	Control	0.625	0.0	Yes	3.028	0.001	n/a	GoodResponse	0	n/a	n/a	9	55	Fixation	Neutral	True
526.418	0.24	Control	0.625	0.004	Yes	3.028	-0.004	2.0	GoodResponse	0	0.216	525.634	9	55	Target	Neutral	True
526.634	0.3	Control	0.625	0.004	Yes	3.028	-0.004	2.0	GoodResponse	0	0.216	n/a	9	55	ButtonPress	Neutral	True
526.669	0.46	Control	0.625	n/a	Yes	3.028	n/a	n/a	GoodResponse	0	n/a	n/a	9	55	Blank	Neutral	True
527.12	1.45	Control	0.625	n/a	Yes	3.028	n/a	5.0	GoodResponse	0	0.02	526.14	9	55	Feedback	Neutral	True
528.575	3.028	Control	0.625	n/a	Yes	3.028	n/a	n/a	GoodResponse	0	0.0	n/a	9	55	ISIslide	Neutral	True
531.617	0.25	Control	0.614	0.0	No	2.833	0.017	n/a	NoResponse	0	n/a	n/a	9	56	Cue	Neutral	True
531.868	3.95	Control	0.614	0.0	No	2.833	0.001	n/a	NoResponse	0	n/a	n/a	9	56	Fixation	Neutral	True
535.813	0.25	Control	0.614	0.004	No	2.833	-0.004	2.0	NoResponse	0	0.298	535.111	9	56	Target	Neutral	True
536.064	0.45	Control	0.614	n/a	No	2.833	n/a	n/a	NoResponse	0	n/a	n/a	9	56	Blank	Neutral	True
536.111	0.3	Control	0.614	0.004	No	2.833	-0.004	2.0	NoResponse	0	0.298	n/a	9	56	ButtonPress	Neutral	True
536.515	1.45	Control	0.614	n/a	No	2.833	n/a	5.0	NoResponse	0	0.04	535.555	9	56	Feedback	Neutral	True
537.969	2.833	Control	0.614	n/a	No	2.833	n/a	n/a	NoResponse	0	0.0	n/a	9	56	ISIslide	Neutral	True
540.828	0.25	Control	0.6034	0.0	No	3.472	0.028	n/a	NoResponse	0	n/a	n/a	9	57	Cue	Neutral	False
541.079	4.0	Control	0.6034	0.0	No	3.472	0.001	2.0	NoResponse	0	3.635	543.714	9	57	Fixation	Neutral	False
544.714	0.3	Control	0.6034	0.0	No	3.472	0.001	2.0	NoResponse	0	3.635	n/a	9	57	ButtonPress	Neutral	False
545.074	0.26	Control	0.6034	0.004	No	3.472	-0.004	2.0	NoResponse	0	0.326	544.4	9	57	Target	Neutral	False
545.341	0.44	Control	0.6034	n/a	No	3.472	n/a	n/a	NoResponse	0	n/a	n/a	9	57	Blank	Neutral	False
545.4	0.3	Control	0.6034	0.004	No	3.472	-0.004	2.0	NoResponse	0	0.326	n/a	9	57	ButtonPress	Neutral	False
545.776	1.45	Control	0.6034	n/a	No	3.472	n/a	5.0	NoResponse	0	0.047	544.823	9	57	Feedback	Neutral	False
547.23	3.472	Control	0.6034	n/a	No	3.472	n/a	n/a	NoResponse	0	0.0	n/a	9	57	ISIslide	Neutral	False
550.724	0.25	Win2	0.6102000000000001	0.0	Yes	2.726	0.024	n/a	GoodResponse	1	n/a	n/a	10	58	Cue	Win	True
550.975	4.05	Win2	0.6102000000000001	0.0	Yes	2.726	0.001	n/a	GoodResponse	1	n/a	n/a	10	58	Fixation	Win	True
555.02	0.27	Win2	0.6102000000000001	0.004	Yes	2.726	-0.004	2.0	GoodResponse	1	0.187	554.207	10	58	Target	Win	True
555.207	0.3	Win2	0.6102000000000001	0.004	Yes	2.726	-0.004	2.0	GoodResponse	1	0.187	n/a	10	58	ButtonPress	Win	True
555.304	0.43	Win2	0.6102000000000001	n/a	Yes	2.726	n/a	n/a	GoodResponse	1	n/a	n/a	10	58	Blank	Win	True
555.722	1.45	Win2	0.6102000000000001	n/a	Yes	2.726	n/a	5.0	GoodResponse	1	0.007	554.729	10	58	Feedback	Win	True
557.177	2.726	Win2	0.6102000000000001	n/a	Yes	2.726	n/a	n/a	GoodResponse	1	0.0	n/a	10	58	ISIslide	Win	True
559.918	0.25	Lose2	0.6	0.0	No	2.682	0.018	n/a	NoResponse	-1	n/a	n/a	9	59	Cue	Loss	True
560.169	4.0	Lose2	0.6	0.0	No	2.682	0.001	n/a	NoResponse	-1	n/a	n/a	9	59	Fixation	Loss	True
564.164	0.28	Lose2	0.6	0.004	No	2.682	-0.004	2.0	NoResponse	-1	0.374	563.538	9	59	Target	Loss	True
564.448	0.42	Lose2	0.6	n/a	No	2.682	n/a	n/a	NoResponse	-1	n/a	n/a	9	59	Blank	Loss	True
564.538	0.3	Lose2	0.6	0.004	No	2.682	-0.004	2.0	NoResponse	-1	0.374	n/a	9	59	ButtonPress	Loss	True
564.866	1.45	Lose2	0.6	n/a	No	2.682	n/a	5.0	NoResponse	-1	0.03	563.896	9	59	Feedback	Loss	True
566.321	2.682	Lose2	0.6	n/a	No	2.682	n/a	n/a	NoResponse	-1	0.0	n/a	9	59	ISIslide	Loss	True
569.029	0.25	Control	0.6065999999999999	0.0	Yes	2.671	0.029	n/a	GoodResponse	0	n/a	n/a	9	60	Cue	Neutral	True
569.28	4.0	Control	0.6065999999999999	0.0	Yes	2.671	0.001	n/a	GoodResponse	0	n/a	n/a	9	60	Fixation	Neutral	True
573.275	0.29	Control	0.6065999999999999	0.004	Yes	2.671	-0.004	2.0	GoodResponse	0	0.201	572.476	9	60	Target	Neutral	True
573.476	0.3	Control	0.6065999999999999	0.004	Yes	2.671	-0.004	2.0	GoodResponse	0	0.201	n/a	9	60	ButtonPress	Neutral	True
573.576	0.41	Control	0.6065999999999999	n/a	Yes	2.671	n/a	n/a	GoodResponse	0	n/a	n/a	9	60	Blank	Neutral	True
573.977	1.45	Control	0.6065999999999999	n/a	Yes	2.671	n/a	5.0	GoodResponse	0	0.041	573.018	9	60	Feedback	Neutral	True
575.431	2.671	Control	0.6065999999999999	n/a	Yes	2.671	n/a	n/a	GoodResponse	0	0.0	n/a	9	60	ISIslide	Neutral	True
578.123	0.25	Lose2	0.6129	0.0	Yes	2.977	0.023	n/a	GoodResponse	0	n/a	n/a	9	61	Cue	AvoidedLoss	True
578.373	4.0	Lose2	0.6129	0.001	Yes	2.977	0.0	n/a	GoodResponse	0	n/a	n/a	9	61	Fixation	AvoidedLoss	True
582.369	0.3	Lose2	0.6129	0.004	Yes	2.977	-0.004	2.0	GoodResponse	0	0.213	581.582	9	61	Target	AvoidedLoss	True
582.582	0.3	Lose2	0.6129	0.004	Yes	2.977	-0.004	2.0	GoodResponse	0	0.213	n/a	9	61	ButtonPress	AvoidedLoss	True
582.67	0.4	Lose2	0.6129	n/a	Yes	2.977	n/a	n/a	GoodResponse	0	n/a	n/a	9	61	Blank	AvoidedLoss	True
583.071	1.45	Lose2	0.6129	n/a	Yes	2.977	n/a	5.0	GoodResponse	0	0.02	582.091	9	61	Feedback	AvoidedLoss	True
584.525	2.977	Lose2	0.6129	n/a	Yes	2.977	n/a	n/a	GoodResponse	0	0.0	n/a	9	61	ISIslide	AvoidedLoss	True
587.517	0.25	Lose2	0.6032	0.001	No	2.883	0.017	n/a	NoResponse	-1	n/a	n/a	8	62	Cue	Loss	True
587.768	3.9	Lose2	0.6032	0.0	No	2.883	0.001	n/a	NoResponse	-1	n/a	n/a	8	62	Fixation	Loss	True
591.663	0.31	Lose2	0.6032	0.004	No	2.883	-0.004	2.0	NoResponse	-1	0.328	590.991	8	62	Target	Loss	True
591.981	0.39	Lose2	0.6032	n/a	No	2.883	n/a	n/a	NoResponse	-1	n/a	n/a	8	62	Blank	Loss	True
591.991	0.3	Lose2	0.6032	0.004	No	2.883	-0.004	2.0	NoResponse	-1	0.328	n/a	8	62	ButtonPress	Loss	True
592.365	1.45	Lose2	0.6032	n/a	No	2.883	n/a	5.0	NoResponse	-1	0.043	591.408	8	62	Feedback	Loss	True
593.82	2.883	Lose2	0.6032	n/a	No	2.883	n/a	n/a	NoResponse	-1	0.0	n/a	8	62	ISIslide	Loss	True
596.728	0.25	Lose2	0.6093999999999999	0.0	Yes	2.622	0.028	n/a	GoodResponse	0	n/a	n/a	8	63	Cue	AvoidedLoss	True
596.979	4.05	Lose2	0.6093999999999999	0.0	Yes	2.622	0.001	n/a	GoodResponse	0	n/a	n/a	8	63	Fixation	AvoidedLoss	True
601.025	0.32	Lose2	0.6093999999999999	0.003	Yes	2.622	-0.003	2.0	GoodResponse	0	0.215	600.24	8	63	Target	AvoidedLoss	True
601.24	0.3	Lose2	0.6093999999999999	0.003	Yes	2.622	-0.003	2.0	GoodResponse	0	0.215	n/a	8	63	ButtonPress	AvoidedLoss	True
601.359	0.38	Lose2	0.6093999999999999	n/a	Yes	2.622	n/a	n/a	GoodResponse	0	n/a	n/a	8	63	Blank	AvoidedLoss	True
601.727	1.45	Lose2	0.6093999999999999	n/a	Yes	2.622	n/a	5.0	GoodResponse	0	0.046	600.773	8	63	Feedback	AvoidedLoss	True
603.181	2.622	Lose2	0.6093999999999999	n/a	Yes	2.622	n/a	n/a	GoodResponse	0	0.0	n/a	8	63	ISIslide	AvoidedLoss	True
605.822	0.25	Win2	0.6154	0.0	Yes	3.128	0.022	n/a	GoodResponse	1	n/a	n/a	9	64	Cue	Win	True
606.073	4.15	Win2	0.6154	0.0	Yes	3.128	0.001	n/a	GoodResponse	1	n/a	n/a	9	64	Fixation	Win	True
610.219	0.33	Win2	0.6154	0.003	Yes	3.128	-0.003	2.0	GoodResponse	1	0.203	609.422	9	64	Target	Win	True
610.422	0.3	Win2	0.6154	0.003	Yes	3.128	-0.003	2.0	GoodResponse	1	0.203	n/a	9	64	ButtonPress	Win	True
610.553	0.37	Win2	0.6154	n/a	Yes	3.128	n/a	n/a	GoodResponse	1	n/a	n/a	9	64	Blank	Win	True
610.921	1.45	Win2	0.6154	n/a	Yes	3.128	n/a	5.0	GoodResponse	1	0.023	609.944	9	64	Feedback	Win	True
612.375	3.128	Win2	0.6154	n/a	Yes	3.128	n/a	n/a	GoodResponse	1	0.0	n/a	9	64	ISIslide	Win	True
615.518	0.25	Control	0.6212	0.0	Yes	2.782	0.018	n/a	GoodResponse	0	n/a	n/a	9	65	Cue	Neutral	True
615.769	4.0	Control	0.6212	0.0	Yes	2.782	0.001	n/a	GoodResponse	0	n/a	n/a	9	65	Fixation	Neutral	True
619.764	0.34	Control	0.6212	0.004	Yes	2.782	-0.004	2.0	GoodResponse	0	0.27	619.034	9	65	Target	Neutral	True
620.034	0.3	Control	0.6212	0.004	Yes	2.782	-0.004	2.0	GoodResponse	0	0.27	n/a	9	65	ButtonPress	Neutral	True
620.115	0.36	Control	0.6212	n/a	Yes	2.782	n/a	n/a	GoodResponse	0	n/a	n/a	9	65	Blank	Neutral	True
620.466	1.45	Control	0.6212	n/a	Yes	2.782	n/a	5.0	GoodResponse	0	0.039	619.505	9	65	Feedback	Neutral	True
621.92	2.782	Control	0.6212	n/a	Yes	2.782	n/a	n/a	GoodResponse	0	0.0	n/a	9	65	ISIslide	Neutral	True
624.729	0.25	Win2	0.6119	0.0	No	2.771	0.029	n/a	NoResponse	0	n/a	n/a	9	66	Cue	MissedWin	True
624.979	3.9	Win2	0.6119	0.001	No	2.771	0.0	n/a	NoResponse	0	n/a	n/a	9	66	Fixation	MissedWin	True
628.891	0.35	Win2	0.6119	0.0	No	2.771	0.012	2.0	NoResponse	0	0.41	628.301	9	66	Target	MissedWin	True
629.225	0.35	Win2	0.6119	n/a	No	2.771	n/a	n/a	NoResponse	0	n/a	n/a	9	66	Blank	MissedWin	True
629.301	0.3	Win2	0.6119	0.0	No	2.771	0.012	2.0	NoResponse	0	0.41	n/a	9	66	ButtonPress	MissedWin	True
629.577	1.45	Win2	0.6119	n/a	No	2.771	n/a	5.0	NoResponse	0	0.001	628.578	9	66	Feedback	MissedWin	True
631.031	2.771	Win2	0.6119	n/a	No	2.771	n/a	n/a	NoResponse	0	0.0	n/a	9	66	ISIslide	MissedWin	True
633.823	0.25	Control	0.6175999999999999	0.0	Yes	2.727	0.023	n/a	GoodResponse	0	n/a	n/a	9	67	Cue	Neutral	True
634.073	3.95	Control	0.6175999999999999	0.0	Yes	2.727	0.0	n/a	GoodResponse	0	n/a	n/a	9	67	Fixation	Neutral	True
638.035	0.36	Control	0.6175999999999999	0.0	Yes	2.727	0.012	2.0	GoodResponse	0	0.213	637.248	9	67	Target	Neutral	True
638.248	0.3	Control	0.6175999999999999	0.0	Yes	2.727	0.012	2.0	GoodResponse	0	0.213	n/a	9	67	ButtonPress	Neutral	True
638.386	0.34	Control	0.6175999999999999	n/a	Yes	2.727	n/a	n/a	GoodResponse	0	n/a	n/a	9	67	Blank	Neutral	True
638.721	1.45	Control	0.6175999999999999	n/a	Yes	2.727	n/a	5.0	GoodResponse	0	0.028	637.749	9	67	Feedback	Neutral	True
640.175	2.727	Control	0.6175999999999999	n/a	Yes	2.727	n/a	n/a	GoodResponse	0	0.0	n/a	9	67	ISIslide	Neutral	True
642.916	0.25	Win2	0.6232	0.001	Yes	3.084	0.016	n/a	GoodResponse	1	n/a	n/a	10	68	Cue	Win	True
643.167	4.0	Win2	0.6232	0.0	Yes	3.084	0.001	n/a	GoodResponse	1	n/a	n/a	10	68	Fixation	Win	True
647.162	0.37	Win2	0.6232	0.004	Yes	3.084	-0.004	2.0	GoodResponse	1	0.212	646.374	10	68	Target	Win	True
647.374	0.3	Win2	0.6232	0.004	Yes	3.084	-0.004	2.0	GoodResponse	1	0.212	n/a	10	68	ButtonPress	Win	True
647.547	0.33	Win2	0.6232	n/a	Yes	3.084	n/a	n/a	GoodResponse	1	n/a	n/a	10	68	Blank	Win	True
647.865	1.45	Win2	0.6232	n/a	Yes	3.084	n/a	5.0	GoodResponse	1	0.005	646.87	10	68	Feedback	Win	True
649.319	3.084	Win2	0.6232	n/a	Yes	3.084	n/a	n/a	GoodResponse	1	0.0	n/a	10	68	ISIslide	Win	True
652.428	0.25	Win2	0.6286	0.0	Yes	3.222	0.028	n/a	GoodResponse	1	n/a	n/a	11	69	Cue	Win	True
652.679	3.95	Win2	0.6286	0.0	Yes	3.222	0.001	n/a	GoodResponse	1	n/a	n/a	11	69	Fixation	Win	True
656.624	0.38	Win2	0.6286	0.004	Yes	3.222	-0.004	2.0	GoodResponse	1	0.198	655.822	11	69	Target	Win	True
656.822	0.3	Win2	0.6286	0.004	Yes	3.222	-0.004	2.0	GoodResponse	1	0.198	n/a	11	69	ButtonPress	Win	True
657.009	0.32	Win2	0.6286	n/a	Yes	3.222	n/a	n/a	GoodResponse	1	n/a	n/a	11	69	Blank	Win	True
657.326	1.45	Win2	0.6286	n/a	Yes	3.222	n/a	5.0	GoodResponse	1	0.008	656.334	11	69	Feedback	Win	True
658.781	3.222	Win2	0.6286	n/a	Yes	3.222	n/a	n/a	GoodResponse	1	0.0	n/a	11	69	ISIslide	Win	True
662.024	0.25	Lose2	0.6197	0.0	No	3.026	0.024	n/a	NoResponse	-1	n/a	n/a	10	70	Cue	Loss	False
662.274	4.05	Lose2	0.6197	0.0	No	3.026	0.0	n/a	NoResponse	-1	n/a	n/a	10	70	Fixation	Loss	False
666.32	0.39	Lose2	0.6197	0.004	No	3.026	-0.004	n/a	NoResponse	-1	n/a	n/a	10	70	Target	Loss	False
666.721	0.31	Lose2	0.6197	n/a	No	3.026	n/a	n/a	NoResponse	-1	n/a	n/a	10	70	Blank	Loss	False
667.022	1.45	Lose2	0.6197	n/a	No	3.026	n/a	5.0	NoResponse	-1	0.019	666.041	10	70	Feedback	Loss	False
668.476	3.026	Lose2	0.6197	n/a	No	3.026	n/a	n/a	NoResponse	-1	0.0	n/a	10	70	ISIslide	Loss	False
671.519	0.25	Win2	0.625	0.0	Yes	2.731	0.019	n/a	GoodResponse	1	n/a	n/a	11	71	Cue	Win	True
671.769	4.05	Win2	0.625	0.0	Yes	2.731	0.0	n/a	GoodResponse	1	n/a	n/a	11	71	Fixation	Win	True
675.815	0.4	Win2	0.625	0.004	Yes	2.731	-0.004	2.0	GoodResponse	1	0.201	675.016	11	71	Target	Win	True
676.016	0.3	Win2	0.625	0.004	Yes	2.731	-0.004	2.0	GoodResponse	1	0.201	n/a	11	71	ButtonPress	Win	True
676.216	0.3	Win2	0.625	n/a	Yes	2.731	n/a	n/a	GoodResponse	1	n/a	n/a	11	71	Blank	Win	True
676.517	1.45	Win2	0.625	n/a	Yes	2.731	n/a	5.0	GoodResponse	1	0.037	675.554	11	71	Feedback	Win	True
677.971	2.731	Win2	0.625	n/a	Yes	2.731	n/a	n/a	GoodResponse	1	0.0	n/a	11	71	ISIslide	Win	True
680.729	0.25	Win2	0.6301	0.001	Yes	2.771	0.029	n/a	GoodResponse	1	n/a	n/a	12	72	Cue	Win	True
680.98	4.1	Win2	0.6301	0.0	Yes	2.771	0.001	n/a	GoodResponse	1	n/a	n/a	12	72	Fixation	Win	True
685.076	0.41	Win2	0.6301	0.003	Yes	2.771	-0.003	2.0	GoodResponse	1	0.202	684.278	12	72	Target	Win	True
685.278	0.3	Win2	0.6301	0.003	Yes	2.771	-0.003	2.0	GoodResponse	1	0.202	n/a	12	72	ButtonPress	Win	True
685.494	0.29	Win2	0.6301	n/a	Yes	2.771	n/a	n/a	GoodResponse	1	n/a	n/a	12	72	Blank	Win	True
685.778	1.45	Win2	0.6301	n/a	Yes	2.771	n/a	5.0	GoodResponse	1	0.043	684.821	12	72	Feedback	Win	True
687.232	2.771	Win2	0.6301	n/a	Yes	2.771	n/a	n/a	GoodResponse	1	0.0	n/a	12	72	ISIslide	Win	True
690.024	0.25	Win2	0.6351	0.0	Yes	2.676	0.024	n/a	GoodResponse	1	n/a	n/a	13	73	Cue	Win	True
690.275	4.0	Win2	0.6351	0.0	Yes	2.676	0.001	n/a	GoodResponse	1	n/a	n/a	13	73	Fixation	Win	True
694.27	0.42	Win2	0.6351	0.004	Yes	2.676	-0.004	2.0	GoodResponse	1	0.24	693.51	13	73	Target	Win	True
694.51	0.3	Win2	0.6351	0.004	Yes	2.676	-0.004	2.0	GoodResponse	1	0.24	n/a	13	73	ButtonPress	Win	True
694.705	0.28	Win2	0.6351	n/a	Yes	2.676	n/a	n/a	GoodResponse	1	n/a	n/a	13	73	Blank	Win	True
694.972	1.45	Win2	0.6351	n/a	Yes	2.676	n/a	5.0	GoodResponse	1	0.02	693.992	13	73	Feedback	Win	True
696.426	2.676	Win2	0.6351	n/a	Yes	2.676	n/a	n/a	GoodResponse	1	0.0	n/a	13	73	ISIslide	Win	True
699.118	0.25	Lose2	0.64	0.0	Yes	2.632	0.018	n/a	GoodResponse	0	n/a	n/a	13	74	Cue	AvoidedLoss	True
699.369	4.05	Lose2	0.64	0.0	Yes	2.632	0.001	n/a	GoodResponse	0	n/a	n/a	13	74	Fixation	AvoidedLoss	True
703.414	0.43	Lose2	0.64	0.004	Yes	2.632	-0.004	2.0	GoodResponse	0	0.185	702.599	13	74	Target	AvoidedLoss	True
703.599	0.3	Lose2	0.64	0.004	Yes	2.632	-0.004	2.0	GoodResponse	0	0.185	n/a	13	74	ButtonPress	AvoidedLoss	True
703.849	0.27	Lose2	0.64	n/a	Yes	2.632	n/a	n/a	GoodResponse	0	n/a	n/a	13	74	Blank	AvoidedLoss	True
704.116	1.45	Lose2	0.64	n/a	Yes	2.632	n/a	5.0	GoodResponse	0	0.047	703.163	13	74	Feedback	AvoidedLoss	True
705.57	2.632	Lose2	0.64	n/a	Yes	2.632	n/a	n/a	GoodResponse	0	0.0	n/a	13	74	ISIslide	AvoidedLoss	True
708.228	0.25	Lose2	0.6446999999999999	0.0	Yes	2.922	0.028	n/a	GoodResponse	0	n/a	n/a	13	75	Cue	AvoidedLoss	True
708.479	3.95	Lose2	0.6446999999999999	0.0	Yes	2.922	0.001	n/a	GoodResponse	0	n/a	n/a	13	75	Fixation	AvoidedLoss	True
712.424	0.44	Lose2	0.6446999999999999	0.004	Yes	2.922	-0.004	2.0	GoodResponse	0	0.21	711.634	13	75	Target	AvoidedLoss	True
712.634	0.3	Lose2	0.6446999999999999	0.004	Yes	2.922	-0.004	2.0	GoodResponse	0	0.21	n/a	13	75	ButtonPress	AvoidedLoss	True
712.876	0.26	Lose2	0.6446999999999999	n/a	Yes	2.922	n/a	n/a	GoodResponse	0	n/a	n/a	13	75	Blank	AvoidedLoss	True
713.126	1.45	Lose2	0.6446999999999999	n/a	Yes	2.922	n/a	5.0	GoodResponse	0	0.012	712.138	13	75	Feedback	AvoidedLoss	True
714.581	2.922	Lose2	0.6446999999999999	n/a	Yes	2.922	n/a	n/a	GoodResponse	0	0.0	n/a	13	75	ISIslide	AvoidedLoss	True
717.523	0.25	Control	0.6494	0.0	Yes	3.227	0.023	n/a	GoodResponse	0	n/a	n/a	13	76	Cue	Neutral	True
717.774	4.05	Control	0.6494	0.0	Yes	3.227	0.001	n/a	GoodResponse	0	n/a	n/a	13	76	Fixation	Neutral	True
721.819	0.45	Control	0.6494	0.004	Yes	3.227	-0.004	2.0	GoodResponse	0	0.246	721.065	13	76	Target	Neutral	True
722.065	0.3	Control	0.6494	0.004	Yes	3.227	-0.004	2.0	GoodResponse	0	0.246	n/a	13	76	ButtonPress	Neutral	True
722.27	0.25	Control	0.6494	n/a	Yes	3.227	n/a	n/a	GoodResponse	0	n/a	n/a	13	76	Blank	Neutral	True
722.521	1.45	Control	0.6494	n/a	Yes	3.227	n/a	5.0	GoodResponse	0	0.032	721.553	13	76	Feedback	Neutral	True
723.975	3.227	Control	0.6494	n/a	Yes	3.227	n/a	n/a	GoodResponse	0	0.0	n/a	13	76	ISIslide	Neutral	True
727.218	0.25	Lose2	0.6537999999999999	0.001	Yes	2.582	0.018	n/a	GoodResponse	0	n/a	n/a	13	77	Cue	AvoidedLoss	True
727.469	3.95	Lose2	0.6537999999999999	0.0	Yes	2.582	0.001	n/a	GoodResponse	0	n/a	n/a	13	77	Fixation	AvoidedLoss	True
731.414	0.46	Lose2	0.6537999999999999	0.004	Yes	2.582	-0.004	2.0	GoodResponse	0	0.227	730.641	13	77	Target	AvoidedLoss	True
731.641	0.3	Lose2	0.6537999999999999	0.004	Yes	2.582	-0.004	2.0	GoodResponse	0	0.227	n/a	13	77	ButtonPress	AvoidedLoss	True
731.882	0.24	Lose2	0.6537999999999999	n/a	Yes	2.582	n/a	n/a	GoodResponse	0	n/a	n/a	13	77	Blank	AvoidedLoss	True
732.116	1.45	Lose2	0.6537999999999999	n/a	Yes	2.582	n/a	5.0	GoodResponse	0	0.046	731.162	13	77	Feedback	AvoidedLoss	True
733.571	2.582	Lose2	0.6537999999999999	n/a	Yes	2.582	n/a	n/a	GoodResponse	0	0.0	n/a	13	77	ISIslide	AvoidedLoss	True
