onset	duration	cue_type	current_mean_accuracy	duration_error	is_hit	isi_adjusted	onset_delay	response	response_type	reward	rt	rt_time	total_reward	trial_number	trial_phase	trial_type	one_press
11.101	0.25	Control	1.0	0.001	Yes	2.949	0.001	n/a	GoodResponse	0	n/a	n/a	0	0	Cue	Neutral	True
11.352	3.85	Control	1.0	0.0	Yes	2.949	0.001	n/a	GoodResponse	0	n/a	n/a	0	0	Fixation	Neutral	True
15.197	0.4	Control	1.0	0.004	Yes	2.949	-0.004	2.0	GoodResponse	0	0.202	14.399	0	0	Target	Neutral	True
15.399	0.3	Control	1.0	0.004	Yes	2.949	-0.004	2.0	GoodResponse	0	0.202	n/a	0	0	ButtonPress	Neutral	True
15.598	0.3	Control	1.0	n/a	Yes	2.949	n/a	n/a	GoodResponse	0	n/a	n/a	0	0	Blank	Neutral	True
15.899	1.45	Control	1.0	n/a	Yes	2.949	n/a	5.0	GoodResponse	0	0.027	14.926	0	0	Feedback	Neutral	True
17.353	2.949	Control	1.0	n/a	Yes	2.949	n/a	n/a	GoodResponse	0	0.0	n/a	0	0	ISIslide	Neutral	True
20.329	0.25	Lose2	1.0	0.0	Yes	2.771	0.029	n/a	GoodResponse	0	n/a	n/a	0	1	Cue	AvoidedLoss	True
20.58	4.0	Lose2	1.0	0.0	Yes	2.771	0.001	n/a	GoodResponse	0	n/a	n/a	0	1	Fixation	AvoidedLoss	True
24.575	0.39	Lose2	1.0	0.004	Yes	2.771	-0.004	2.0	GoodResponse	0	0.22	23.795	0	1	Target	AvoidedLoss	True
24.795	0.3	Lose2	1.0	0.004	Yes	2.771	-0.004	2.0	GoodResponse	0	0.22	n/a	0	1	ButtonPress	AvoidedLoss	True
24.976	0.31	Lose2	1.0	n/a	Yes	2.771	n/a	n/a	GoodResponse	0	n/a	n/a	0	1	Blank	AvoidedLoss	True
25.277	1.45	Lose2	1.0	n/a	Yes	2.771	n/a	5.0	GoodResponse	0	0.014	24.291	0	1	Feedback	AvoidedLoss	True
26.731	2.771	Lose2	1.0	n/a	Yes	2.771	n/a	n/a	GoodResponse	0	0.0	n/a	0	1	ISIslide	AvoidedLoss	True
29.523	0.25	Control	1.0	0.0	Yes	2.577	0.023	n/a	GoodResponse	0	n/a	n/a	0	2	Cue	Neutral	True
29.774	4.1	Control	1.0	0.0	Yes	2.577	0.001	n/a	GoodResponse	0	n/a	n/a	0	2	Fixation	Neutral	True
33.869	0.38	Control	1.0	0.004	Yes	2.577	-0.004	2.0	GoodResponse	0	0.175	33.044	0	2	Target	Neutral	True
34.044	0.3	Control	1.0	0.004	Yes	2.577	-0.004	2.0	GoodResponse	0	0.175	n/a	0	2	ButtonPress	Neutral	True
34.254	0.32	Control	1.0	n/a	Yes	2.577	n/a	n/a	GoodResponse	0	n/a	n/a	0	2	Blank	Neutral	True
34.572	1.45	Control	1.0	n/a	Yes	2.577	n/a	5.0	GoodResponse	0	0.036	33.608	0	2	Feedback	Neutral	True
36.026	2.577	Control	1.0	n/a	Yes	2.577	n/a	n/a	GoodResponse	0	0.0	n/a	0	2	ISIslide	Neutral	True
38.617	0.25	Win2	1.0	0.0	Yes	2.833	0.017	n/a	GoodResponse	1	n/a	n/a	1	3	Cue	Win	False
38.868	3.95	Win2	1.0	0.0	Yes	2.833	0.001	2.0	GoodResponse	1	0.904	38.772	1	3	Fixation	Win	False
39.772	0.3	Win2	1.0	0.0	Yes	2.833	0.001	2.0	GoodResponse	1	0.904	n/a	1	3	ButtonPress	Win	False
42.813	0.37	Win2	1.0	0.004	Yes	2.833	-0.004	2.0	GoodResponse	1	0.217	42.03	1	3	Target	Win	False
43.03	0.3	Win2	1.0	0.004	Yes	2.833	-0.004	2.0	GoodResponse	1	0.217	n/a	1	3	ButtonPress	Win	False
43.197	0.33	Win2	1.0	n/a	Yes	2.833	n/a	n/a	GoodResponse	1	n/a	n/a	1	3	Blank	Win	False
43.515	1.45	Win2	1.0	n/a	Yes	2.833	n/a	5.0	GoodResponse	1	0.02	42.535	1	3	Feedback	Win	False
44.969	2.833	Win2	1.0	n/a	Yes	2.833	n/a	n/a	GoodResponse	1	0.0	n/a	1	3	ISIslide	Win	False
47.828	0.25	Win2	1.0	0.0	Yes	3.272	0.028	n/a	GoodResponse	1	n/a	n/a	2	4	Cue	Win	True
48.079	4.0	Win2	1.0	0.0	Yes	3.272	0.001	n/a	GoodResponse	1	n/a	n/a	2	4	Fixation	Win	True
52.074	0.36	Win2	1.0	0.004	Yes	3.272	-0.004	2.0	GoodResponse	1	0.19	51.264	2	4	Target	Win	True
52.264	0.3	Win2	1.0	0.004	Yes	3.272	-0.004	2.0	GoodResponse	1	0.19	n/a	2	4	ButtonPress	Win	True
52.442	0.34	Win2	1.0	n/a	Yes	3.272	n/a	n/a	GoodResponse	1	n/a	n/a	2	4	Blank	Win	True
52.776	1.45	Win2	1.0	n/a	Yes	3.272	n/a	5.0	GoodResponse	1	0.028	51.804	2	4	Feedback	Win	True
54.23	3.272	Win2	1.0	n/a	Yes	3.272	n/a	n/a	GoodResponse	1	0.0	n/a	2	4	ISIslide	Win	True
57.523	0.25	Win2	1.0	0.0	Yes	2.777	0.023	n/a	GoodResponse	1	n/a	n/a	3	5	Cue	Win	True
57.774	4.0	Win2	1.0	0.0	Yes	2.777	0.001	n/a	GoodResponse	1	n/a	n/a	3	5	Fixation	Win	True
61.769	0.35	Win2	1.0	0.004	Yes	2.777	-0.004	2.0	GoodResponse	1	0.277	61.046	3	5	Target	Win	True
62.046	0.3	Win2	1.0	0.004	Yes	2.777	-0.004	2.0	GoodResponse	1	0.277	n/a	3	5	ButtonPress	Win	True
62.12	0.35	Win2	1.0	n/a	Yes	2.777	n/a	n/a	GoodResponse	1	n/a	n/a	3	5	Blank	Win	True
62.471	1.45	Win2	1.0	n/a	Yes	2.777	n/a	5.0	GoodResponse	1	0.039	61.51	3	5	Feedback	Win	True
63.926	2.777	Win2	1.0	n/a	Yes	2.777	n/a	n/a	GoodResponse	1	0.0	n/a	3	5	ISIslide	Win	True
66.718	0.25	Lose2	1.0	0.0	Yes	2.732	0.018	n/a	GoodResponse	0	n/a	n/a	3	6	Cue	AvoidedLoss	True
66.968	3.95	Lose2	1.0	0.0	Yes	2.732	0.0	n/a	GoodResponse	0	n/a	n/a	3	6	Fixation	AvoidedLoss	True
70.93	0.34	Lose2	1.0	0.0	Yes	2.732	0.012	2.0	GoodResponse	0	0.207	70.137	3	6	Target	AvoidedLoss	True
71.137	0.3	Lose2	1.0	0.0	Yes	2.732	0.012	2.0	GoodResponse	0	0.207	n/a	3	6	ButtonPress	AvoidedLoss	True
71.264	0.36	Lose2	1.0	n/a	Yes	2.732	n/a	n/a	GoodResponse	0	n/a	n/a	3	6	Blank	AvoidedLoss	True
71.615	1.45	Lose2	1.0	n/a	Yes	2.732	n/a	5.0	GoodResponse	0	0.017	70.632	3	6	Feedback	AvoidedLoss	True
73.07	2.732	Lose2	1.0	n/a	Yes	2.732	n/a	n/a	GoodResponse	0	0.0	n/a	3	6	ISIslide	AvoidedLoss	True
75.828	0.25	Lose2	1.0	0.0	Yes	4.022	0.028	n/a	GoodResponse	0	n/a	n/a	3	7	Cue	AvoidedLoss	True
76.079	4.05	Lose2	1.0	0.0	Yes	4.022	0.001	n/a	GoodResponse	0	n/a	n/a	3	7	Fixation	AvoidedLoss	True
80.124	0.33	Lose2	1.0	0.004	Yes	4.022	-0.004	2.0	GoodResponse	0	0.166	79.29	3	7	Target	AvoidedLoss	True
80.29	0.3	Lose2	1.0	0.004	Yes	4.022	-0.004	2.0	GoodResponse	0	0.166	n/a	3	7	ButtonPress	AvoidedLoss	True
80.459	0.37	Lose2	1.0	n/a	Yes	4.022	n/a	n/a	GoodResponse	0	n/a	n/a	3	7	Blank	AvoidedLoss	True
80.826	1.45	Lose2	1.0	n/a	Yes	4.022	n/a	5.0	GoodResponse	0	0.026	79.852	3	7	Feedback	AvoidedLoss	True
82.281	4.022	Lose2	1.0	n/a	Yes	4.022	n/a	n/a	GoodResponse	0	0.0	n/a	3	7	ISIslide	AvoidedLoss	True
86.326	0.25	Lose2	1.0	0.0	Yes	3.024	0.026	n/a	GoodResponse	0	n/a	n/a	3	8	Cue	AvoidedLoss	True
86.577	3.95	Lose2	1.0	0.0	Yes	3.024	0.001	n/a	GoodResponse	0	n/a	n/a	3	8	Fixation	AvoidedLoss	True
90.522	0.32	Lose2	1.0	0.004	Yes	3.024	-0.004	2.0	GoodResponse	0	0.197	89.719	3	8	Target	AvoidedLoss	True
90.719	0.3	Lose2	1.0	0.004	Yes	3.024	-0.004	2.0	GoodResponse	0	0.197	n/a	3	8	ButtonPress	AvoidedLoss	True
90.856	0.38	Lose2	1.0	n/a	Yes	3.024	n/a	n/a	GoodResponse	0	n/a	n/a	3	8	Blank	AvoidedLoss	True
91.224	1.45	Lose2	1.0	n/a	Yes	3.024	n/a	5.0	GoodResponse	0	0.018	90.242	3	8	Feedback	AvoidedLoss	True
92.678	3.024	Lose2	1.0	n/a	Yes	3.024	n/a	n/a	GoodResponse	0	0.0	n/a	3	8	ISIslide	AvoidedLoss	True
95.721	0.25	Lose2	1.0	0.0	Yes	3.129	0.021	n/a	GoodResponse	0	n/a	n/a	3	9	Cue	AvoidedLoss	True
95.972	3.95	Lose2	1.0	0.0	Yes	3.129	0.001	n/a	GoodResponse	0	n/a	n/a	3	9	Fixation	AvoidedLoss	True
99.917	0.31	Lose2	1.0	0.004	Yes	3.129	-0.004	2.0	GoodResponse	0	0.204	99.121	3	9	Target	AvoidedLoss	True
100.121	0.3	Lose2	1.0	0.004	Yes	3.129	-0.004	2.0	GoodResponse	0	0.204	n/a	3	9	ButtonPress	AvoidedLoss	True
100.234	0.39	Lose2	1.0	n/a	Yes	3.129	n/a	n/a	GoodResponse	0	n/a	n/a	3	9	Blank	AvoidedLoss	True
100.619	1.45	Lose2	1.0	n/a	Yes	3.129	n/a	5.0	GoodResponse	0	0.037	99.656	3	9	Feedback	AvoidedLoss	True
102.073	3.129	Lose2	1.0	n/a	Yes	3.129	n/a	n/a	GoodResponse	0	0.0	n/a	3	9	ISIslide	AvoidedLoss	True
105.216	0.25	Control	1.0	0.0	Yes	3.284	0.016	n/a	GoodResponse	0	n/a	n/a	3	10	Cue	Neutral	True
105.467	4.0	Control	1.0	0.0	Yes	3.284	0.001	n/a	GoodResponse	0	n/a	n/a	3	10	Fixation	Neutral	True
109.462	0.3	Control	1.0	0.004	Yes	3.284	-0.004	2.0	GoodResponse	0	0.268	108.73	3	10	Target	Neutral	True
109.73	0.3	Control	1.0	0.004	Yes	3.284	-0.004	2.0	GoodResponse	0	0.268	n/a	3	10	ButtonPress	Neutral	True
109.763	0.4	Control	1.0	n/a	Yes	3.284	n/a	n/a	GoodResponse	0	n/a	n/a	3	10	Blank	Neutral	True
110.164	1.45	Control	1.0	n/a	Yes	3.284	n/a	5.0	GoodResponse	0	0.007	109.171	3	10	Feedback	Neutral	True
111.618	3.284	Control	1.0	n/a	Yes	3.284	n/a	n/a	GoodResponse	0	0.0	n/a	3	10	ISIslide	Neutral	True
114.928	0.25	Lose2	1.0	0.0	Yes	2.722	0.028	n/a	GoodResponse	0	n/a	n/a	3	11	Cue	AvoidedLoss	True
115.179	4.05	Lose2	1.0	0.0	Yes	2.722	0.001	n/a	GoodResponse	0	n/a	n/a	3	11	Fixation	AvoidedLoss	True
119.224	0.29	Lose2	1.0	0.004	Yes	2.722	-0.004	2.0	GoodResponse	0	0.194	118.418	3	11	Target	AvoidedLoss	True
119.418	0.3	Lose2	1.0	0.004	Yes	2.722	-0.004	2.0	GoodResponse	0	0.194	n/a	3	11	ButtonPress	AvoidedLoss	True
119.525	0.41	Lose2	1.0	n/a	Yes	2.722	n/a	n/a	GoodResponse	0	n/a	n/a	3	11	Blank	AvoidedLoss	True
119.926	1.45	Lose2	1.0	n/a	Yes	2.722	n/a	5.0	GoodResponse	0	0.047	118.973	3	11	Feedback	AvoidedLoss	True
121.381	2.722	Lose2	1.0	n/a	Yes	2.722	n/a	n/a	GoodResponse	0	0.0	n/a	3	11	ISIslide	AvoidedLoss	True
124.122	0.25	Control	0.9231	0.0	No	2.978	0.022	n/a	LatePress	0	n/a	n/a	3	12	Cue	Neutral	True
124.373	3.9	Control	0.9231	0.0	No	2.978	0.001	n/a	LatePress	0	n/a	n/a	3	12	Fixation	Neutral	True
128.268	0.28	Control	0.9231	0.004	No	2.978	-0.004	2.0	LatePress	0	0.284	127.552	3	12	Target	Neutral	True
128.552	0.42	Control	0.9231	n/a	No	2.978	n/a	n/a	LatePress	0	n/a	n/a	3	12	Blank	Neutral	True
128.552	0.3	Control	0.9231	0.004	No	2.978	-0.004	2.0	LatePress	0	0.284	n/a	3	12	ButtonPress	Neutral	True
128.97	1.45	Control	0.9231	n/a	No	2.978	n/a	5.0	LatePress	0	0.028	127.998	3	12	Feedback	Neutral	True
130.424	2.978	Control	0.9231	n/a	No	2.978	n/a	n/a	LatePress	0	0.0	n/a	3	12	ISIslide	Neutral	True
133.417	0.25	Control	0.8571	0.0	No	2.783	0.017	n/a	NoResponse	0	n/a	n/a	3	13	Cue	Neutral	True
133.667	4.0	Control	0.8571	0.001	No	2.783	0.0	2.0	NoResponse	0	3.929	136.596	3	13	Fixation	Neutral	True
137.596	0.3	Control	0.8571	0.001	No	2.783	0.0	2.0	NoResponse	0	3.929	n/a	3	13	ButtonPress	Neutral	True
137.663	0.27	Control	0.8571	0.004	No	2.783	-0.004	n/a	NoResponse	0	n/a	n/a	3	13	Target	Neutral	True
137.947	0.43	Control	0.8571	n/a	No	2.783	n/a	n/a	NoResponse	0	n/a	n/a	3	13	Blank	Neutral	True
138.365	1.45	Control	0.8571	n/a	No	2.783	n/a	5.0	NoResponse	0	0.047	137.412	3	13	Feedback	Neutral	True
139.819	2.783	Control	0.8571	n/a	No	2.783	n/a	n/a	NoResponse	0	0.0	n/a	3	13	ISIslide	Neutral	True
142.628	0.25	Win2	0.8	0.0	No	2.672	0.028	n/a	NoResponse	0	n/a	n/a	3	14	Cue	MissedWin	True
142.878	4.1	Win2	0.8	0.0	No	2.672	0.0	2.0	NoResponse	0	3.99	145.868	3	14	Fixation	MissedWin	True
146.868	0.3	Win2	0.8	0.0	No	2.672	0.0	2.0	NoResponse	0	3.99	n/a	3	14	ButtonPress	MissedWin	True
146.974	0.26	Win2	0.8	0.004	No	2.672	-0.004	n/a	NoResponse	0	n/a	n/a	3	14	Target	MissedWin	True
147.241	0.44	Win2	0.8	n/a	No	2.672	n/a	n/a	NoResponse	0	n/a	n/a	3	14	Blank	MissedWin	True
147.676	1.45	Win2	0.8	n/a	No	2.672	n/a	5.0	NoResponse	0	0.006	146.682	3	14	Feedback	MissedWin	True
149.13	2.672	Win2	0.8	n/a	No	2.672	n/a	n/a	NoResponse	0	0.0	n/a	3	14	ISIslide	MissedWin	True
151.822	0.25	Control	0.8125	0.0	Yes	2.978	0.022	n/a	GoodResponse	0	n/a	n/a	3	15	Cue	Neutral	True
152.072	4.0	Control	0.8125	0.001	Yes	2.978	0.0	n/a	GoodResponse	0	n/a	n/a	3	15	Fixation	Neutral	True
156.068	0.25	Control	0.8125	0.004	Yes	2.978	-0.004	2.0	GoodResponse	0	0.221	155.289	3	15	Target	Neutral	True
156.289	0.3	Control	0.8125	0.004	Yes	2.978	-0.004	2.0	GoodResponse	0	0.221	n/a	3	15	ButtonPress	Neutral	True
156.318	0.45	Control	0.8125	n/a	Yes	2.978	n/a	n/a	GoodResponse	0	n/a	n/a	3	15	Blank	Neutral	True
156.77	1.45	Control	0.8125	n/a	Yes	2.978	n/a	5.0	GoodResponse	0	0.032	155.802	3	15	Feedback	Neutral	True
158.224	2.978	Control	0.8125	n/a	Yes	2.978	n/a	n/a	GoodResponse	0	0.0	n/a	3	15	ISIslide	Neutral	True
161.216	0.25	Win2	0.8234999999999999	0.0	Yes	2.884	0.016	n/a	GoodResponse	1	n/a	n/a	4	16	Cue	Win	True
161.467	4.0	Win2	0.8234999999999999	0.0	Yes	2.884	0.001	n/a	GoodResponse	1	n/a	n/a	4	16	Fixation	Win	True
165.462	0.24	Win2	0.8234999999999999	0.004	Yes	2.884	-0.004	2.0	GoodResponse	1	0.202	164.664	4	16	Target	Win	True
165.664	0.3	Win2	0.8234999999999999	0.004	Yes	2.884	-0.004	2.0	GoodResponse	1	0.202	n/a	4	16	ButtonPress	Win	True
165.713	0.46	Win2	0.8234999999999999	n/a	Yes	2.884	n/a	n/a	GoodResponse	1	n/a	n/a	4	16	Blank	Win	True
166.164	1.45	Win2	0.8234999999999999	n/a	Yes	2.884	n/a	5.0	GoodResponse	1	0.006	165.17	4	16	Feedback	Win	True
167.619	2.884	Win2	0.8234999999999999	n/a	Yes	2.884	n/a	n/a	GoodResponse	1	0.0	n/a	4	16	ISIslide	Win	True
170.528	0.25	Lose2	0.7778	0.0	No	2.722	0.028	n/a	NoResponse	-1	n/a	n/a	3	17	Cue	Loss	True
170.778	3.95	Lose2	0.7778	0.0	No	2.722	0.0	n/a	NoResponse	-1	n/a	n/a	3	17	Fixation	Loss	True
174.723	0.23	Lose2	0.7778	0.005	No	2.722	-0.005	2.0	NoResponse	-1	0.353	174.076	3	17	Target	Loss	True
174.957	0.47	Lose2	0.7778	n/a	No	2.722	n/a	n/a	NoResponse	-1	n/a	n/a	3	17	Blank	Loss	True
175.076	0.3	Lose2	0.7778	0.005	No	2.722	-0.005	2.0	NoResponse	-1	0.353	n/a	3	17	ButtonPress	Loss	True
175.425	1.45	Lose2	0.7778	n/a	No	2.722	n/a	5.0	NoResponse	-1	0.01	174.435	3	17	Feedback	Loss	True
176.88	2.722	Lose2	0.7778	n/a	No	2.722	n/a	n/a	NoResponse	-1	0.0	n/a	3	17	ISIslide	Loss	True
179.621	0.25	Lose2	0.7368000000000001	0.0	No	2.729	0.021	n/a	NoResponse	-1	n/a	n/a	2	18	Cue	Loss	True
179.872	4.05	Lose2	0.7368000000000001	0.0	No	2.729	0.001	n/a	NoResponse	-1	n/a	n/a	2	18	Fixation	Loss	True
183.918	0.22	Lose2	0.7368000000000001	0.003	No	2.729	-0.003	2.0	NoResponse	-1	0.261	183.179	2	18	Target	Loss	True
184.152	0.48	Lose2	0.7368000000000001	n/a	No	2.729	n/a	n/a	NoResponse	-1	n/a	n/a	2	18	Blank	Loss	True
184.179	0.3	Lose2	0.7368000000000001	0.003	No	2.729	-0.003	2.0	NoResponse	-1	0.261	n/a	2	18	ButtonPress	Loss	True
184.62	1.45	Lose2	0.7368000000000001	n/a	No	2.729	n/a	5.0	NoResponse	-1	0.035	183.655	2	18	Feedback	Loss	True
186.074	2.729	Lose2	0.7368000000000001	n/a	No	2.729	n/a	n/a	NoResponse	-1	0.0	n/a	2	18	ISIslide	Loss	True
188.815	0.25	Control	0.7	0.001	No	2.935	0.015	n/a	LatePress	0	n/a	n/a	2	19	Cue	Neutral	True
189.066	3.95	Control	0.7	0.0	No	2.935	0.001	n/a	LatePress	0	n/a	n/a	2	19	Fixation	Neutral	True
193.011	0.21	Control	0.7	0.004	No	2.935	-0.004	2.0	LatePress	0	0.21	192.221	2	19	Target	Neutral	True
193.221	0.3	Control	0.7	0.004	No	2.935	-0.004	2.0	LatePress	0	0.21	n/a	2	19	ButtonPress	Neutral	True
193.229	0.49	Control	0.7	n/a	No	2.935	n/a	n/a	LatePress	0	n/a	n/a	2	19	Blank	Neutral	True
193.713	1.45	Control	0.7	n/a	No	2.935	n/a	5.0	LatePress	0	0.015	192.728	2	19	Feedback	Neutral	True
195.168	2.935	Control	0.7	n/a	No	2.935	n/a	n/a	LatePress	0	0.0	n/a	2	19	ISIslide	Neutral	True
198.127	0.25	Control	0.6667000000000001	0.0	No	2.623	0.027	n/a	NoResponse	0	n/a	n/a	2	20	Cue	Neutral	True
198.377	4.05	Control	0.6667000000000001	0.0	No	2.623	0.0	2.0	NoResponse	0	3.9	201.277	2	20	Fixation	Neutral	True
202.277	0.3	Control	0.6667000000000001	0.0	No	2.623	0.0	2.0	NoResponse	0	3.9	n/a	2	20	ButtonPress	Neutral	True
202.423	0.2	Control	0.6667000000000001	0.004	No	2.623	-0.004	n/a	NoResponse	0	n/a	n/a	2	20	Target	Neutral	True
202.623	0.5	Control	0.6667000000000001	n/a	No	2.623	n/a	n/a	NoResponse	0	n/a	n/a	2	20	Blank	Neutral	True
203.125	1.45	Control	0.6667000000000001	n/a	No	2.623	n/a	5.0	NoResponse	0	0.018	202.143	2	20	Feedback	Neutral	True
204.579	2.623	Control	0.6667000000000001	n/a	No	2.623	n/a	n/a	NoResponse	0	0.0	n/a	2	20	ISIslide	Neutral	True
207.22	0.25	Control	0.6364	0.001	No	2.78	0.02	n/a	NoResponse	0	n/a	n/a	2	21	Cue	Neutral	True
207.471	4.1	Control	0.6364	0.0	No	2.78	0.001	n/a	NoResponse	0	n/a	n/a	2	21	Fixation	Neutral	True
211.567	0.19	Control	0.6364	0.003	No	2.78	-0.003	2.0	NoResponse	0	0.268	210.835	2	21	Target	Neutral	True
211.767	0.51	Control	0.6364	n/a	No	2.78	n/a	n/a	NoResponse	0	n/a	n/a	2	21	Blank	Neutral	True
211.835	0.3	Control	0.6364	0.003	No	2.78	-0.003	2.0	NoResponse	0	0.268	n/a	2	21	ButtonPress	Neutral	True
212.269	1.45	Control	0.6364	n/a	No	2.78	n/a	5.0	NoResponse	0	0.044	211.313	2	21	Feedback	Neutral	True
213.723	2.78	Control	0.6364	n/a	No	2.78	n/a	n/a	NoResponse	0	0.0	n/a	2	21	ISIslide	Neutral	True
216.515	0.25	Control	0.6087	0.0	No	2.785	0.015	n/a	NoResponse	0	n/a	n/a	2	22	Cue	Neutral	True
216.766	4.0	Control	0.6087	0.0	No	2.785	0.001	n/a	NoResponse	0	n/a	n/a	2	22	Fixation	Neutral	True
220.761	0.2	Control	0.6087	0.004	No	2.785	-0.004	2.0	NoResponse	0	0.219	219.98	2	22	Target	Neutral	True
220.961	0.5	Control	0.6087	n/a	No	2.785	n/a	n/a	NoResponse	0	n/a	n/a	2	22	Blank	Neutral	True
220.98	0.3	Control	0.6087	0.004	No	2.785	-0.004	2.0	NoResponse	0	0.219	n/a	2	22	ButtonPress	Neutral	True
221.463	1.45	Control	0.6087	n/a	No	2.785	n/a	5.0	NoResponse	0	0.021	220.484	2	22	Feedback	Neutral	True
222.917	2.785	Control	0.6087	n/a	No	2.785	n/a	n/a	NoResponse	0	0.0	n/a	2	22	ISIslide	Neutral	True
225.726	0.25	Control	0.5832999999999999	0.0	No	2.774	0.026	n/a	NoResponse	0	n/a	n/a	2	23	Cue	Neutral	True
225.976	3.9	Control	0.5832999999999999	0.001	No	2.774	0.0	n/a	NoResponse	0	n/a	n/a	2	23	Fixation	Neutral	True
229.888	0.21	Control	0.5832999999999999	0.0	No	2.774	0.012	2.0	NoResponse	0	0.25	229.138	2	23	Target	Neutral	True
230.089	0.49	Control	0.5832999999999999	n/a	No	2.774	n/a	n/a	NoResponse	0	n/a	n/a	2	23	Blank	Neutral	True
230.138	0.3	Control	0.5832999999999999	0.0	No	2.774	0.012	2.0	NoResponse	0	0.25	n/a	2	23	ButtonPress	Neutral	True
230.574	1.45	Control	0.5832999999999999	n/a	No	2.774	n/a	5.0	NoResponse	0	0.032	229.606	2	23	Feedback	Neutral	True
232.028	2.774	Control	0.5832999999999999	n/a	No	2.774	n/a	n/a	NoResponse	0	0.0	n/a	2	23	ISIslide	Neutral	True
234.82	0.25	Win2	0.6	0.0	Yes	3.13	0.02	n/a	GoodResponse	1	n/a	n/a	3	24	Cue	Win	True
235.07	3.95	Win2	0.6	0.0	Yes	3.13	0.0	n/a	GoodResponse	1	n/a	n/a	3	24	Fixation	Win	True
239.032	0.22	Win2	0.6	0.0	Yes	3.13	0.012	2.0	GoodResponse	1	0.218	238.25	3	24	Target	Win	True
239.249	0.48	Win2	0.6	n/a	Yes	3.13	n/a	n/a	GoodResponse	1	n/a	n/a	3	24	Blank	Win	True
239.25	0.3	Win2	0.6	0.0	Yes	3.13	0.012	2.0	GoodResponse	1	0.218	n/a	3	24	ButtonPress	Win	True
239.718	1.45	Win2	0.6	n/a	Yes	3.13	n/a	5.0	GoodResponse	1	0.01	238.728	3	24	Feedback	Win	True
241.172	3.13	Win2	0.6	n/a	Yes	3.13	n/a	n/a	GoodResponse	1	0.0	n/a	3	24	ISIslide	Win	True
244.331	0.25	Win2	0.5769	0.0	No	3.069	0.031	n/a	LatePress	0	n/a	n/a	3	25	Cue	MissedWin	True
244.582	4.0	Win2	0.5769	0.0	No	3.069	0.001	n/a	LatePress	0	n/a	n/a	3	25	Fixation	MissedWin	True
248.577	0.23	Win2	0.5769	0.004	No	3.069	-0.004	2.0	LatePress	0	0.234	247.811	3	25	Target	MissedWin	True
248.811	0.47	Win2	0.5769	n/a	No	3.069	n/a	n/a	LatePress	0	n/a	n/a	3	25	Blank	MissedWin	True
248.811	0.3	Win2	0.5769	0.004	No	3.069	-0.004	2.0	LatePress	0	0.234	n/a	3	25	ButtonPress	MissedWin	True
249.279	1.45	Win2	0.5769	n/a	No	3.069	n/a	5.0	LatePress	0	0.009	248.288	3	25	Feedback	MissedWin	True
250.734	3.069	Win2	0.5769	n/a	No	3.069	n/a	n/a	LatePress	0	0.0	n/a	3	25	ISIslide	MissedWin	True
253.826	0.25	Win2	0.5926	0.0	Yes	2.924	0.026	n/a	GoodResponse	1	n/a	n/a	4	26	Cue	Win	True
254.077	3.95	Win2	0.5926	0.0	Yes	2.924	0.001	n/a	GoodResponse	1	n/a	n/a	4	26	Fixation	Win	True
258.022	0.24	Win2	0.5926	0.004	Yes	2.924	-0.004	2.0	GoodResponse	1	0.18	257.202	4	26	Target	Win	True
258.202	0.3	Win2	0.5926	0.004	Yes	2.924	-0.004	2.0	GoodResponse	1	0.18	n/a	4	26	ButtonPress	Win	True
258.273	0.46	Win2	0.5926	n/a	Yes	2.924	n/a	n/a	GoodResponse	1	n/a	n/a	4	26	Blank	Win	True
258.724	1.45	Win2	0.5926	n/a	Yes	2.924	n/a	5.0	GoodResponse	1	0.027	257.751	4	26	Feedback	Win	True
260.179	2.924	Win2	0.5926	n/a	Yes	2.924	n/a	n/a	GoodResponse	1	0.0	n/a	4	26	ISIslide	Win	True
263.121	0.25	Lose2	0.6071	0.0	Yes	2.829	0.021	n/a	GoodResponse	0	n/a	n/a	4	27	Cue	AvoidedLoss	True
263.371	4.05	Lose2	0.6071	0.001	Yes	2.829	0.0	n/a	GoodResponse	0	n/a	n/a	4	27	Fixation	AvoidedLoss	True
267.417	0.25	Lose2	0.6071	0.004	Yes	2.829	-0.004	2.0	GoodResponse	0	0.198	266.615	4	27	Target	AvoidedLoss	True
267.615	0.3	Lose2	0.6071	0.004	Yes	2.829	-0.004	2.0	GoodResponse	0	0.198	n/a	4	27	ButtonPress	AvoidedLoss	True
267.668	0.45	Lose2	0.6071	n/a	Yes	2.829	n/a	n/a	GoodResponse	0	n/a	n/a	4	27	Blank	AvoidedLoss	True
268.119	1.45	Lose2	0.6071	n/a	Yes	2.829	n/a	5.0	GoodResponse	0	0.047	267.166	4	27	Feedback	AvoidedLoss	True
269.573	2.829	Lose2	0.6071	n/a	Yes	2.829	n/a	n/a	GoodResponse	0	0.0	n/a	4	27	ISIslide	AvoidedLoss	True
272.415	0.25	Control	0.6207	0.0	Yes	2.835	0.015	n/a	GoodResponse	0	n/a	n/a	4	28	Cue	Neutral	True
272.666	4.05	Control	0.6207	0.0	Yes	2.835	0.001	n/a	GoodResponse	0	n/a	n/a	4	28	Fixation	Neutral	True
276.711	0.26	Control	0.6207	0.004	Yes	2.835	-0.004	2.0	GoodResponse	0	0.192	275.903	4	28	Target	Neutral	True
276.903	0.3	Control	0.6207	0.004	Yes	2.835	-0.004	2.0	GoodResponse	0	0.192	n/a	4	28	ButtonPress	Neutral	True
276.979	0.44	Control	0.6207	n/a	Yes	2.835	n/a	n/a	GoodResponse	0	n/a	n/a	4	28	Blank	Neutral	True
277.413	1.45	Control	0.6207	n/a	Yes	2.835	n/a	5.0	GoodResponse	0	0.021	276.434	4	28	Feedback	Neutral	True
278.868	2.835	Control	0.6207	n/a	Yes	2.835	n/a	n/a	GoodResponse	0	0.0	n/a	4	28	ISIslide	Neutral	True
281.726	0.25	Lose2	0.6	0.0	No	2.824	0.026	n/a	PrematurePress	-1	n/a	n/a	3	29	Cue	Loss	True
281.977	3.95	Lose2	0.6	0.0	No	2.824	0.001	n/a	PrematurePress	-1	n/a	n/a	3	29	Fixation	Loss	True
285.922	0.27	Lose2	0.6	0.004	No	2.824	-0.004	2.0	PrematurePress	-1	0.035	284.957	3	29	Target	Loss	True
285.957	0.3	Lose2	0.6	0.004	No	2.824	-0.004	2.0	PrematurePress	-1	0.035	n/a	3	29	ButtonPress	Loss	True
286.206	0.43	Lose2	0.6	n/a	No	2.824	n/a	n/a	PrematurePress	-1	n/a	n/a	3	29	Blank	Loss	True
286.624	1.45	Lose2	0.6	n/a	No	2.824	n/a	5.0	PrematurePress	-1	0.029	285.653	3	29	Feedback	Loss	True
288.079	2.824	Lose2	0.6	n/a	No	2.824	n/a	n/a	PrematurePress	-1	0.0	n/a	3	29	ISIslide	Loss	True
290.92	0.25	Win2	0.6129	0.001	Yes	2.78	0.02	n/a	GoodResponse	1	n/a	n/a	4	30	Cue	Win	True
291.171	3.9	Win2	0.6129	0.0	Yes	2.78	0.001	n/a	GoodResponse	1	n/a	n/a	4	30	Fixation	Win	True
295.066	0.28	Win2	0.6129	0.004	Yes	2.78	-0.004	2.0	GoodResponse	1	0.225	294.291	4	30	Target	Win	True
295.291	0.3	Win2	0.6129	0.004	Yes	2.78	-0.004	2.0	GoodResponse	1	0.225	n/a	4	30	ButtonPress	Win	True
295.35	0.42	Win2	0.6129	n/a	Yes	2.78	n/a	n/a	GoodResponse	1	n/a	n/a	4	30	Blank	Win	True
295.768	1.45	Win2	0.6129	n/a	Yes	2.78	n/a	5.0	GoodResponse	1	0.007	294.775	4	30	Feedback	Win	True
297.223	2.78	Win2	0.6129	n/a	Yes	2.78	n/a	n/a	GoodResponse	1	0.0	n/a	4	30	ISIslide	Win	True
300.031	0.25	Lose2	0.625	0.0	Yes	2.819	0.031	n/a	GoodResponse	0	n/a	n/a	4	31	Cue	AvoidedLoss	True
300.282	4.05	Lose2	0.625	0.0	Yes	2.819	0.001	n/a	GoodResponse	0	n/a	n/a	4	31	Fixation	AvoidedLoss	True
304.327	0.29	Lose2	0.625	0.004	Yes	2.819	-0.004	2.0	GoodResponse	0	0.217	303.544	4	31	Target	AvoidedLoss	True
304.544	0.3	Lose2	0.625	0.004	Yes	2.819	-0.004	2.0	GoodResponse	0	0.217	n/a	4	31	ButtonPress	AvoidedLoss	True
304.628	0.41	Lose2	0.625	n/a	Yes	2.819	n/a	n/a	GoodResponse	0	n/a	n/a	4	31	Blank	AvoidedLoss	True
305.029	1.45	Lose2	0.625	n/a	Yes	2.819	n/a	5.0	GoodResponse	0	0.015	304.044	4	31	Feedback	AvoidedLoss	True
306.484	2.819	Lose2	0.625	n/a	Yes	2.819	n/a	n/a	GoodResponse	0	0.0	n/a	4	31	ISIslide	AvoidedLoss	True
309.325	0.25	Lose2	0.6364	0.0	Yes	2.625	0.025	n/a	GoodResponse	0	n/a	n/a	4	32	Cue	AvoidedLoss	True
309.576	4.15	Lose2	0.6364	0.0	Yes	2.625	0.001	n/a	GoodResponse	0	n/a	n/a	4	32	Fixation	AvoidedLoss	True
313.722	0.3	Lose2	0.6364	0.003	Yes	2.625	-0.003	2.0	GoodResponse	0	0.246	312.968	4	32	Target	AvoidedLoss	True
313.968	0.3	Lose2	0.6364	0.003	Yes	2.625	-0.003	2.0	GoodResponse	0	0.246	n/a	4	32	ButtonPress	AvoidedLoss	True
314.023	0.4	Lose2	0.6364	n/a	Yes	2.625	n/a	n/a	GoodResponse	0	n/a	n/a	4	32	Blank	AvoidedLoss	True
314.424	1.45	Lose2	0.6364	n/a	Yes	2.625	n/a	5.0	GoodResponse	0	0.034	313.458	4	32	Feedback	AvoidedLoss	True
315.878	2.625	Lose2	0.6364	n/a	Yes	2.625	n/a	n/a	GoodResponse	0	0.0	n/a	4	32	ISIslide	AvoidedLoss	True
318.52	0.25	Win2	0.6470999999999999	0.0	Yes	2.68	0.02	n/a	GoodResponse	1	n/a	n/a	5	33	Cue	Win	True
318.77	4.0	Win2	0.6470999999999999	0.0	Yes	2.68	0.0	n/a	GoodResponse	1	n/a	n/a	5	33	Fixation	Win	True
322.766	0.31	Win2	0.6470999999999999	0.004	Yes	2.68	-0.004	2.0	GoodResponse	1	0.263	322.029	5	33	Target	Win	True
323.029	0.3	Win2	0.6470999999999999	0.004	Yes	2.68	-0.004	2.0	GoodResponse	1	0.263	n/a	5	33	ButtonPress	Win	True
323.083	0.39	Win2	0.6470999999999999	n/a	Yes	2.68	n/a	n/a	GoodResponse	1	n/a	n/a	5	33	Blank	Win	True
323.468	1.45	Win2	0.6470999999999999	n/a	Yes	2.68	n/a	5.0	GoodResponse	1	0.014	322.482	5	33	Feedback	Win	True
324.922	2.68	Win2	0.6470999999999999	n/a	Yes	2.68	n/a	n/a	GoodResponse	1	0.0	n/a	5	33	ISIslide	Win	True
327.63	0.25	Lose2	0.6570999999999999	0.0	Yes	2.62	0.03	n/a	GoodResponse	0	n/a	n/a	5	34	Cue	AvoidedLoss	True
327.881	4.05	Lose2	0.6570999999999999	0.0	Yes	2.62	0.001	n/a	GoodResponse	0	n/a	n/a	5	34	Fixation	AvoidedLoss	True
331.926	0.32	Lose2	0.6570999999999999	0.004	Yes	2.62	-0.004	2.0	GoodResponse	0	0.193	331.119	5	34	Target	AvoidedLoss	True
332.119	0.3	Lose2	0.6570999999999999	0.004	Yes	2.62	-0.004	2.0	GoodResponse	0	0.193	n/a	5	34	ButtonPress	AvoidedLoss	True
332.261	0.38	Lose2	0.6570999999999999	n/a	Yes	2.62	n/a	n/a	GoodResponse	0	n/a	n/a	5	34	Blank	AvoidedLoss	True
332.628	1.45	Lose2	0.6570999999999999	n/a	Yes	2.62	n/a	5.0	GoodResponse	0	0.025	331.653	5	34	Feedback	AvoidedLoss	True
334.083	2.62	Lose2	0.6570999999999999	n/a	Yes	2.62	n/a	n/a	GoodResponse	0	0.0	n/a	5	34	ISIslide	AvoidedLoss	True
336.724	0.25	Lose2	0.6667000000000001	0.0	Yes	2.676	0.024	n/a	GoodResponse	0	n/a	n/a	5	35	Cue	AvoidedLoss	True
336.975	4.0	Lose2	0.6667000000000001	0.0	Yes	2.676	0.001	n/a	GoodResponse	0	n/a	n/a	5	35	Fixation	AvoidedLoss	True
340.97	0.32	Lose2	0.6667000000000001	0.004	Yes	2.676	-0.004	2.0	GoodResponse	0	0.21	340.18	5	35	Target	AvoidedLoss	True
341.18	0.3	Lose2	0.6667000000000001	0.004	Yes	2.676	-0.004	2.0	GoodResponse	0	0.21	n/a	5	35	ButtonPress	AvoidedLoss	True
341.304	0.38	Lose2	0.6667000000000001	n/a	Yes	2.676	n/a	n/a	GoodResponse	0	n/a	n/a	5	35	Blank	AvoidedLoss	True
341.672	1.45	Lose2	0.6667000000000001	n/a	Yes	2.676	n/a	5.0	GoodResponse	0	0.008	340.68	5	35	Feedback	AvoidedLoss	True
343.126	2.676	Lose2	0.6667000000000001	n/a	Yes	2.676	n/a	n/a	GoodResponse	0	0.0	n/a	5	35	ISIslide	AvoidedLoss	True
345.818	0.25	Control	0.6757	0.0	Yes	2.682	0.018	n/a	GoodResponse	0	n/a	n/a	5	36	Cue	Neutral	True
346.068	4.0	Control	0.6757	0.001	Yes	2.682	0.0	n/a	GoodResponse	0	n/a	n/a	5	36	Fixation	Neutral	True
350.064	0.31	Control	0.6757	0.004	Yes	2.682	-0.004	2.0	GoodResponse	0	0.193	349.257	5	36	Target	Neutral	True
350.257	0.3	Control	0.6757	0.004	Yes	2.682	-0.004	2.0	GoodResponse	0	0.193	n/a	5	36	ButtonPress	Neutral	True
350.381	0.39	Control	0.6757	n/a	Yes	2.682	n/a	n/a	GoodResponse	0	n/a	n/a	5	36	Blank	Neutral	True
350.766	1.45	Control	0.6757	n/a	Yes	2.682	n/a	5.0	GoodResponse	0	0.033	349.799	5	36	Feedback	Neutral	True
352.22	2.682	Control	0.6757	n/a	Yes	2.682	n/a	n/a	GoodResponse	0	0.0	n/a	5	36	ISIslide	Neutral	True
354.928	0.25	Win2	0.6842	0.0	Yes	2.872	0.028	n/a	GoodResponse	1	n/a	n/a	6	37	Cue	Win	True
355.179	4.0	Win2	0.6842	0.0	Yes	2.872	0.001	n/a	GoodResponse	1	n/a	n/a	6	37	Fixation	Win	True
359.174	0.3	Win2	0.6842	0.004	Yes	2.872	-0.004	2.0	GoodResponse	1	0.238	358.412	6	37	Target	Win	True
359.412	0.3	Win2	0.6842	0.004	Yes	2.872	-0.004	2.0	GoodResponse	1	0.238	n/a	6	37	ButtonPress	Win	True
359.475	0.4	Win2	0.6842	n/a	Yes	2.872	n/a	n/a	GoodResponse	1	n/a	n/a	6	37	Blank	Win	True
359.876	1.45	Win2	0.6842	n/a	Yes	2.872	n/a	5.0	GoodResponse	1	0.044	358.92	6	37	Feedback	Win	True
361.331	2.872	Win2	0.6842	n/a	Yes	2.872	n/a	n/a	GoodResponse	1	0.0	n/a	6	37	ISIslide	Win	True
364.223	0.25	Lose2	0.6923	0.0	Yes	2.827	0.023	n/a	GoodResponse	0	n/a	n/a	6	38	Cue	AvoidedLoss	True
364.473	3.95	Lose2	0.6923	0.0	Yes	2.827	0.0	n/a	GoodResponse	0	n/a	n/a	6	38	Fixation	AvoidedLoss	True
368.419	0.29	Lose2	0.6923	0.004	Yes	2.827	-0.004	2.0	GoodResponse	0	0.237	367.656	6	38	Target	AvoidedLoss	True
368.656	0.3	Lose2	0.6923	0.004	Yes	2.827	-0.004	2.0	GoodResponse	0	0.237	n/a	6	38	ButtonPress	AvoidedLoss	True
368.719	0.41	Lose2	0.6923	n/a	Yes	2.827	n/a	n/a	GoodResponse	0	n/a	n/a	6	38	Blank	AvoidedLoss	True
369.121	1.45	Lose2	0.6923	n/a	Yes	2.827	n/a	5.0	GoodResponse	0	0.019	368.14	6	38	Feedback	AvoidedLoss	True
370.575	2.827	Lose2	0.6923	n/a	Yes	2.827	n/a	n/a	GoodResponse	0	0.0	n/a	6	38	ISIslide	AvoidedLoss	True
373.417	0.25	Win2	0.7	0.0	Yes	2.983	0.017	n/a	GoodResponse	1	n/a	n/a	7	39	Cue	Win	True
373.668	4.1	Win2	0.7	0.0	Yes	2.983	0.001	n/a	GoodResponse	1	n/a	n/a	7	39	Fixation	Win	True
377.763	0.28	Win2	0.7	0.004	Yes	2.983	-0.004	2.0	GoodResponse	1	0.175	376.938	7	39	Target	Win	True
377.938	0.3	Win2	0.7	0.004	Yes	2.983	-0.004	2.0	GoodResponse	1	0.175	n/a	7	39	ButtonPress	Win	True
378.047	0.42	Win2	0.7	n/a	Yes	2.983	n/a	n/a	GoodResponse	1	n/a	n/a	7	39	Blank	Win	True
378.465	1.45	Win2	0.7	n/a	Yes	2.983	n/a	5.0	GoodResponse	1	0.041	377.506	7	39	Feedback	Win	True
379.92	2.983	Win2	0.7	n/a	Yes	2.983	n/a	n/a	GoodResponse	1	0.0	n/a	7	39	ISIslide	Win	True
382.929	0.25	Win2	0.7073	0.0	Yes	2.721	0.029	n/a	GoodResponse	1	n/a	n/a	8	40	Cue	Win	True
383.179	3.95	Win2	0.7073	0.0	Yes	2.721	0.0	n/a	GoodResponse	1	n/a	n/a	8	40	Fixation	Win	True
387.141	0.27	Win2	0.7073	0.0	Yes	2.721	0.012	2.0	GoodResponse	1	0.225	386.366	8	40	Target	Win	True
387.366	0.3	Win2	0.7073	0.0	Yes	2.721	0.012	2.0	GoodResponse	1	0.225	n/a	8	40	ButtonPress	Win	True
387.409	0.43	Win2	0.7073	n/a	Yes	2.721	n/a	n/a	GoodResponse	1	n/a	n/a	8	40	Blank	Win	True
387.827	1.45	Win2	0.7073	n/a	Yes	2.721	n/a	5.0	GoodResponse	1	0.045	386.872	8	40	Feedback	Win	True
389.281	2.721	Win2	0.7073	n/a	Yes	2.721	n/a	n/a	GoodResponse	1	0.0	n/a	8	40	ISIslide	Win	True
392.022	0.25	Win2	0.7143	0.0	Yes	2.778	0.022	n/a	GoodResponse	1	n/a	n/a	9	41	Cue	Win	True
392.273	3.9	Win2	0.7143	0.0	Yes	2.778	0.001	n/a	GoodResponse	1	n/a	n/a	9	41	Fixation	Win	True
396.168	0.26	Win2	0.7143	0.004	Yes	2.778	-0.004	2.0	GoodResponse	1	0.198	395.366	9	41	Target	Win	True
396.366	0.3	Win2	0.7143	0.004	Yes	2.778	-0.004	2.0	GoodResponse	1	0.198	n/a	9	41	ButtonPress	Win	True
396.436	0.44	Win2	0.7143	n/a	Yes	2.778	n/a	n/a	GoodResponse	1	n/a	n/a	9	41	Blank	Win	True
396.87	1.45	Win2	0.7143	n/a	Yes	2.778	n/a	5.0	GoodResponse	1	0.025	395.895	9	41	Feedback	Win	True
398.325	2.778	Win2	0.7143	n/a	Yes	2.778	n/a	n/a	GoodResponse	1	0.0	n/a	9	41	ISIslide	Win	True
401.116	0.25	Control	0.7209	0.0	Yes	2.934	0.016	n/a	GoodResponse	0	n/a	n/a	9	42	Cue	Neutral	True
401.367	3.85	Control	0.7209	0.0	Yes	2.934	0.001	n/a	GoodResponse	0	n/a	n/a	9	42	Fixation	Neutral	True
405.212	0.25	Control	0.7209	0.004	Yes	2.934	-0.004	2.0	GoodResponse	0	0.232	404.444	9	42	Target	Neutral	True
405.444	0.3	Control	0.7209	0.004	Yes	2.934	-0.004	2.0	GoodResponse	0	0.232	n/a	9	42	ButtonPress	Neutral	True
405.462	0.45	Control	0.7209	n/a	Yes	2.934	n/a	n/a	GoodResponse	0	n/a	n/a	9	42	Blank	Neutral	True
405.914	1.45	Control	0.7209	n/a	Yes	2.934	n/a	5.0	GoodResponse	0	0.008	404.922	9	42	Feedback	Neutral	True
407.368	2.934	Control	0.7209	n/a	Yes	2.934	n/a	n/a	GoodResponse	0	0.0	n/a	9	42	ISIslide	Neutral	True
410.327	0.25	Win2	0.7273000000000001	0.0	Yes	3.173	0.027	n/a	GoodResponse	1	n/a	n/a	10	43	Cue	Win	True
410.578	4.0	Win2	0.7273000000000001	0.0	Yes	3.173	0.001	n/a	GoodResponse	1	n/a	n/a	10	43	Fixation	Win	True
414.573	0.24	Win2	0.7273000000000001	0.004	Yes	3.173	-0.004	2.0	GoodResponse	1	0.101	413.674	10	43	Target	Win	True
414.674	0.3	Win2	0.7273000000000001	0.004	Yes	3.173	-0.004	2.0	GoodResponse	1	0.101	n/a	10	43	ButtonPress	Win	True
414.824	0.46	Win2	0.7273000000000001	n/a	Yes	3.173	n/a	n/a	GoodResponse	1	n/a	n/a	10	43	Blank	Win	True
415.275	1.45	Win2	0.7273000000000001	n/a	Yes	3.173	n/a	5.0	GoodResponse	1	0.011	414.286	10	43	Feedback	Win	True
416.729	3.173	Win2	0.7273000000000001	n/a	Yes	3.173	n/a	n/a	GoodResponse	1	0.0	n/a	10	43	ISIslide	Win	True
419.922	0.25	Win2	0.7111	0.0	No	2.978	0.022	n/a	LatePress	0	n/a	n/a	10	44	Cue	MissedWin	True
420.173	4.0	Win2	0.7111	0.0	No	2.978	0.001	n/a	LatePress	0	n/a	n/a	10	44	Fixation	MissedWin	True
424.168	0.23	Win2	0.7111	0.004	No	2.978	-0.004	2.0	LatePress	0	0.235	423.403	10	44	Target	MissedWin	True
424.402	0.47	Win2	0.7111	n/a	No	2.978	n/a	n/a	LatePress	0	n/a	n/a	10	44	Blank	MissedWin	True
424.403	0.3	Win2	0.7111	0.004	No	2.978	-0.004	2.0	LatePress	0	0.235	n/a	10	44	ButtonPress	MissedWin	True
424.87	1.45	Win2	0.7111	n/a	No	2.978	n/a	5.0	LatePress	0	0.025	423.895	10	44	Feedback	MissedWin	True
426.325	2.978	Win2	0.7111	n/a	No	2.978	n/a	n/a	LatePress	0	0.0	n/a	10	44	ISIslide	MissedWin	True
429.317	0.25	Control	0.6957	0.0	No	2.883	0.017	n/a	NoResponse	0	n/a	n/a	10	45	Cue	Neutral	True
429.568	4.1	Control	0.6957	0.0	No	2.883	0.001	n/a	NoResponse	0	n/a	n/a	10	45	Fixation	Neutral	True
433.663	0.22	Control	0.6957	0.004	No	2.883	-0.004	2.0	NoResponse	0	0.242	432.905	10	45	Target	Neutral	True
433.897	0.48	Control	0.6957	n/a	No	2.883	n/a	n/a	NoResponse	0	n/a	n/a	10	45	Blank	Neutral	True
433.905	0.3	Control	0.6957	0.004	No	2.883	-0.004	2.0	NoResponse	0	0.242	n/a	10	45	ButtonPress	Neutral	True
434.365	1.45	Control	0.6957	n/a	No	2.883	n/a	5.0	NoResponse	0	0.042	433.407	10	45	Feedback	Neutral	True
435.82	2.883	Control	0.6957	n/a	No	2.883	n/a	n/a	NoResponse	0	0.0	n/a	10	45	ISIslide	Neutral	True
438.729	0.25	Lose2	0.6809000000000001	0.0	No	3.371	0.029	n/a	NoResponse	-1	n/a	n/a	9	46	Cue	Loss	True
438.979	4.0	Lose2	0.6809000000000001	0.0	No	3.371	0.0	n/a	NoResponse	-1	n/a	n/a	9	46	Fixation	Loss	True
442.975	0.21	Lose2	0.6809000000000001	0.004	No	3.371	-0.004	2.0	NoResponse	-1	0.274	442.249	9	46	Target	Loss	True
443.192	0.49	Lose2	0.6809000000000001	n/a	No	3.371	n/a	n/a	NoResponse	-1	n/a	n/a	9	46	Blank	Loss	True
443.249	0.3	Lose2	0.6809000000000001	0.004	No	3.371	-0.004	2.0	NoResponse	-1	0.274	n/a	9	46	ButtonPress	Loss	True
443.677	1.45	Lose2	0.6809000000000001	n/a	No	3.371	n/a	5.0	NoResponse	-1	0.047	442.724	9	46	Feedback	Loss	True
445.131	3.371	Lose2	0.6809000000000001	n/a	No	3.371	n/a	n/a	NoResponse	-1	0.0	n/a	9	46	ISIslide	Loss	True
448.524	0.25	Lose2	0.6667000000000001	0.001	No	2.676	0.024	n/a	NoResponse	-1	n/a	n/a	8	47	Cue	Loss	True
448.775	4.0	Lose2	0.6667000000000001	0.0	No	2.676	0.001	n/a	NoResponse	-1	n/a	n/a	8	47	Fixation	Loss	True
452.77	0.2	Lose2	0.6667000000000001	0.004	No	2.676	-0.004	2.0	NoResponse	-1	0.237	452.007	8	47	Target	Loss	True
452.971	0.5	Lose2	0.6667000000000001	n/a	No	2.676	n/a	n/a	NoResponse	-1	n/a	n/a	8	47	Blank	Loss	True
453.007	0.3	Lose2	0.6667000000000001	0.004	No	2.676	-0.004	2.0	NoResponse	-1	0.237	n/a	8	47	ButtonPress	Loss	True
453.473	1.45	Lose2	0.6667000000000001	n/a	No	2.676	n/a	5.0	NoResponse	-1	0.007	452.48	8	47	Feedback	Loss	True
454.927	2.676	Lose2	0.6667000000000001	n/a	No	2.676	n/a	n/a	NoResponse	-1	0.0	n/a	8	47	ISIslide	Loss	True
457.618	0.25	Lose2	0.6531	0.0	No	3.032	0.018	n/a	NoResponse	-1	n/a	n/a	7	48	Cue	Loss	True
457.869	3.95	Lose2	0.6531	0.0	No	3.032	0.001	n/a	NoResponse	-1	n/a	n/a	7	48	Fixation	Loss	True
461.814	0.19	Lose2	0.6531	0.004	No	3.032	-0.004	2.0	NoResponse	-1	0.227	461.041	7	48	Target	Loss	True
462.015	0.51	Lose2	0.6531	n/a	No	3.032	n/a	n/a	NoResponse	-1	n/a	n/a	7	48	Blank	Loss	True
462.041	0.3	Lose2	0.6531	0.004	No	3.032	-0.004	2.0	NoResponse	-1	0.227	n/a	7	48	ButtonPress	Loss	True
462.516	1.45	Lose2	0.6531	n/a	No	3.032	n/a	5.0	NoResponse	-1	0.037	461.553	7	48	Feedback	Loss	True
463.971	3.032	Lose2	0.6531	n/a	No	3.032	n/a	n/a	NoResponse	-1	0.0	n/a	7	48	ISIslide	Loss	True
467.03	0.25	Control	0.66	0.0	Yes	2.87	0.03	n/a	GoodResponse	0	n/a	n/a	7	49	Cue	Neutral	False
467.28	4.0	Control	0.66	0.001	Yes	2.87	0.0	2.0	GoodResponse	0	2.456	468.736	7	49	Fixation	Neutral	False
469.736	0.3	Control	0.66	0.001	Yes	2.87	0.0	2.0	GoodResponse	0	2.456	n/a	7	49	ButtonPress	Neutral	False
471.276	0.2	Control	0.66	0.004	Yes	2.87	-0.004	2.0	GoodResponse	0	0.177	470.453	7	49	Target	Neutral	False
471.453	0.3	Control	0.66	0.004	Yes	2.87	-0.004	2.0	GoodResponse	0	0.177	n/a	7	49	ButtonPress	Neutral	False
471.476	0.5	Control	0.66	n/a	Yes	2.87	n/a	n/a	GoodResponse	0	n/a	n/a	7	49	Blank	Neutral	False
471.978	1.45	Control	0.66	n/a	Yes	2.87	n/a	5.0	GoodResponse	0	0.038	471.016	7	49	Feedback	Neutral	False
473.432	2.87	Control	0.66	n/a	Yes	2.87	n/a	n/a	GoodResponse	0	0.0	n/a	7	49	ISIslide	Neutral	False
476.324	0.25	Control	0.6470999999999999	0.0	No	2.776	0.024	n/a	NoResponse	0	n/a	n/a	7	50	Cue	Neutral	True
476.575	4.0	Control	0.6470999999999999	0.0	No	2.776	0.001	n/a	NoResponse	0	n/a	n/a	7	50	Fixation	Neutral	True
480.57	0.2	Control	0.6470999999999999	0.004	No	2.776	-0.004	2.0	NoResponse	0	0.228	479.798	7	50	Target	Neutral	True
480.771	0.5	Control	0.6470999999999999	n/a	No	2.776	n/a	n/a	NoResponse	0	n/a	n/a	7	50	Blank	Neutral	True
480.798	0.3	Control	0.6470999999999999	0.004	No	2.776	-0.004	2.0	NoResponse	0	0.228	n/a	7	50	ButtonPress	Neutral	True
481.272	1.45	Control	0.6470999999999999	n/a	No	2.776	n/a	5.0	NoResponse	0	0.012	480.284	7	50	Feedback	Neutral	True
482.727	2.776	Control	0.6470999999999999	n/a	No	2.776	n/a	n/a	NoResponse	0	0.0	n/a	7	50	ISIslide	Neutral	True
485.518	0.25	Control	0.6346	0.0	No	2.732	0.018	n/a	NoResponse	0	n/a	n/a	7	51	Cue	Neutral	False
485.769	3.95	Control	0.6346	0.0	No	2.732	0.001	2.0	NoResponse	0	0.056	484.825	7	51	Fixation	Neutral	False
485.825	0.3	Control	0.6346	0.0	No	2.732	0.001	2.0	NoResponse	0	0.056	n/a	7	51	ButtonPress	Neutral	False
489.714	0.21	Control	0.6346	0.004	No	2.732	-0.004	2.0	NoResponse	0	0.264	488.978	7	51	Target	Neutral	False
489.931	0.49	Control	0.6346	n/a	No	2.732	n/a	n/a	NoResponse	0	n/a	n/a	7	51	Blank	Neutral	False
489.978	0.3	Control	0.6346	0.004	No	2.732	-0.004	2.0	NoResponse	0	0.264	n/a	7	51	ButtonPress	Neutral	False
490.416	1.45	Control	0.6346	n/a	No	2.732	n/a	5.0	NoResponse	0	0.039	489.455	7	51	Feedback	Neutral	False
491.871	2.732	Control	0.6346	n/a	No	2.732	n/a	n/a	NoResponse	0	0.0	n/a	7	51	ISIslide	Neutral	False
494.629	0.25	Control	0.6415000000000001	0.0	Yes	2.621	0.029	n/a	GoodResponse	0	n/a	n/a	7	52	Cue	Neutral	False
494.88	4.05	Control	0.6415000000000001	0.0	Yes	2.621	0.001	2.0	GoodResponse	0	0.079	493.959	7	52	Fixation	Neutral	False
494.959	0.3	Control	0.6415000000000001	0.0	Yes	2.621	0.001	2.0	GoodResponse	0	0.079	n/a	7	52	ButtonPress	Neutral	False
498.925	0.22	Control	0.6415000000000001	0.004	Yes	2.621	-0.004	2.0	GoodResponse	0	0.197	498.122	7	52	Target	Neutral	False
499.122	0.3	Control	0.6415000000000001	0.004	Yes	2.621	-0.004	2.0	GoodResponse	0	0.197	n/a	7	52	ButtonPress	Neutral	False
499.159	0.48	Control	0.6415000000000001	n/a	Yes	2.621	n/a	n/a	GoodResponse	0	n/a	n/a	7	52	Blank	Neutral	False
499.627	1.45	Control	0.6415000000000001	n/a	Yes	2.621	n/a	5.0	GoodResponse	0	0.048	498.675	7	52	Feedback	Neutral	False
501.081	2.621	Control	0.6415000000000001	n/a	Yes	2.621	n/a	n/a	GoodResponse	0	0.0	n/a	7	52	ISIslide	Neutral	False
503.723	0.25	Win2	0.6296	0.0	No	2.927	0.023	n/a	NoResponse	0	n/a	n/a	7	53	Cue	MissedWin	True
503.973	4.05	Win2	0.6296	0.0	No	2.927	0.0	n/a	NoResponse	0	n/a	n/a	7	53	Fixation	MissedWin	True
508.019	0.23	Win2	0.6296	0.004	No	2.927	-0.004	2.0	NoResponse	0	0.241	507.26	7	53	Target	MissedWin	True
508.253	0.47	Win2	0.6296	n/a	No	2.927	n/a	n/a	NoResponse	0	n/a	n/a	7	53	Blank	MissedWin	True
508.26	0.3	Win2	0.6296	0.004	No	2.927	-0.004	2.0	NoResponse	0	0.241	n/a	7	53	ButtonPress	MissedWin	True
508.721	1.45	Win2	0.6296	n/a	No	2.927	n/a	5.0	NoResponse	0	0.026	507.747	7	53	Feedback	MissedWin	True
510.175	2.927	Win2	0.6296	n/a	No	2.927	n/a	n/a	NoResponse	0	0.0	n/a	7	53	ISIslide	MissedWin	True
513.117	0.25	Win2	0.6364	0.0	Yes	2.733	0.017	n/a	GoodResponse	1	n/a	n/a	8	54	Cue	Win	False
513.368	3.95	Win2	0.6364	0.0	Yes	2.733	0.001	2.0	GoodResponse	1	0.067	512.435	8	54	Fixation	Win	False
513.435	0.3	Win2	0.6364	0.0	Yes	2.733	0.001	2.0	GoodResponse	1	0.067	n/a	8	54	ButtonPress	Win	False
517.313	0.24	Win2	0.6364	0.004	Yes	2.733	-0.004	2.0	GoodResponse	1	0.173	516.486	8	54	Target	Win	False
517.486	0.3	Win2	0.6364	0.004	Yes	2.733	-0.004	2.0	GoodResponse	1	0.173	n/a	8	54	ButtonPress	Win	False
517.564	0.46	Win2	0.6364	n/a	Yes	2.733	n/a	n/a	GoodResponse	1	n/a	n/a	8	54	Blank	Win	False
518.015	1.45	Win2	0.6364	n/a	Yes	2.733	n/a	5.0	GoodResponse	1	0.049	517.064	8	54	Feedback	Win	False
519.47	2.733	Win2	0.6364	n/a	Yes	2.733	n/a	n/a	GoodResponse	1	0.0	n/a	8	54	ISIslide	Win	False
522.228	0.25	Control	0.6429	0.0	Yes	3.022	0.028	n/a	GoodResponse	0	n/a	n/a	8	55	Cue	Neutral	True
522.479	3.95	Control	0.6429	0.0	Yes	3.022	0.001	n/a	GoodResponse	0	n/a	n/a	8	55	Fixation	Neutral	True
526.424	0.25	Control	0.6429	0.004	Yes	3.022	-0.004	2.0	GoodResponse	0	0.211	525.635	8	55	Target	Neutral	True
526.635	0.3	Control	0.6429	0.004	Yes	3.022	-0.004	2.0	GoodResponse	0	0.211	n/a	8	55	ButtonPress	Neutral	True
526.674	0.45	Control	0.6429	n/a	Yes	3.022	n/a	n/a	GoodResponse	0	n/a	n/a	8	55	Blank	Neutral	True
527.126	1.45	Control	0.6429	n/a	Yes	3.022	n/a	5.0	GoodResponse	0	0.011	526.137	8	55	Feedback	Neutral	True
528.58	3.022	Control	0.6429	n/a	Yes	3.022	n/a	n/a	GoodResponse	0	0.0	n/a	8	55	ISIslide	Neutral	True
531.623	0.25	Control	0.6491	0.0	Yes	2.827	0.023	n/a	GoodResponse	0	n/a	n/a	8	56	Cue	Neutral	True
531.873	3.95	Control	0.6491	0.0	Yes	2.827	0.0	n/a	GoodResponse	0	n/a	n/a	8	56	Fixation	Neutral	True
535.818	0.26	Control	0.6491	0.005	Yes	2.827	-0.005	2.0	GoodResponse	0	0.243	535.061	8	56	Target	Neutral	True
536.061	0.3	Control	0.6491	0.005	Yes	2.827	-0.005	2.0	GoodResponse	0	0.243	n/a	8	56	ButtonPress	Neutral	True
536.086	0.44	Control	0.6491	n/a	Yes	2.827	n/a	n/a	GoodResponse	0	n/a	n/a	8	56	Blank	Neutral	True
536.521	1.45	Control	0.6491	n/a	Yes	2.827	n/a	5.0	GoodResponse	0	0.031	535.552	8	56	Feedback	Neutral	True
537.975	2.827	Control	0.6491	n/a	Yes	2.827	n/a	n/a	GoodResponse	0	0.0	n/a	8	56	ISIslide	Neutral	True
540.817	0.25	Control	0.6552	0.0	Yes	3.483	0.017	n/a	GoodResponse	0	n/a	n/a	8	57	Cue	Neutral	True
541.067	4.0	Control	0.6552	0.001	Yes	3.483	0.0	n/a	GoodResponse	0	n/a	n/a	8	57	Fixation	Neutral	True
545.063	0.27	Control	0.6552	0.004	Yes	3.483	-0.004	2.0	GoodResponse	0	0.189	544.252	8	57	Target	Neutral	True
545.252	0.3	Control	0.6552	0.004	Yes	3.483	-0.004	2.0	GoodResponse	0	0.189	n/a	8	57	ButtonPress	Neutral	True
545.347	0.43	Control	0.6552	n/a	Yes	3.483	n/a	n/a	GoodResponse	0	n/a	n/a	8	57	Blank	Neutral	True
545.765	1.45	Control	0.6552	n/a	Yes	3.483	n/a	5.0	GoodResponse	0	0.008	544.773	8	57	Feedback	Neutral	True
547.219	3.483	Control	0.6552	n/a	Yes	3.483	n/a	n/a	GoodResponse	0	0.0	n/a	8	57	ISIslide	Neutral	True
550.73	0.25	Win2	0.6609999999999999	0.0	Yes	2.72	0.03	n/a	GoodResponse	1	n/a	n/a	9	58	Cue	Win	True
550.98	4.05	Win2	0.6609999999999999	0.0	Yes	2.72	0.0	n/a	GoodResponse	1	n/a	n/a	9	58	Fixation	Win	True
555.026	0.27	Win2	0.6609999999999999	0.004	Yes	2.72	-0.004	2.0	GoodResponse	1	0.239	554.265	9	58	Target	Win	True
555.265	0.3	Win2	0.6609999999999999	0.004	Yes	2.72	-0.004	2.0	GoodResponse	1	0.239	n/a	9	58	ButtonPress	Win	True
555.31	0.43	Win2	0.6609999999999999	n/a	Yes	2.72	n/a	n/a	GoodResponse	1	n/a	n/a	9	58	Blank	Win	True
555.728	1.45	Win2	0.6609999999999999	n/a	Yes	2.72	n/a	5.0	GoodResponse	1	0.043	554.771	9	58	Feedback	Win	True
557.182	2.72	Win2	0.6609999999999999	n/a	Yes	2.72	n/a	n/a	GoodResponse	1	0.0	n/a	9	58	ISIslide	Win	True
559.924	0.25	Lose2	0.6667000000000001	0.0	Yes	2.676	0.024	n/a	GoodResponse	0	n/a	n/a	9	59	Cue	AvoidedLoss	True
560.175	4.0	Lose2	0.6667000000000001	0.0	Yes	2.676	0.001	n/a	GoodResponse	0	n/a	n/a	9	59	Fixation	AvoidedLoss	True
564.17	0.27	Lose2	0.6667000000000001	0.004	Yes	2.676	-0.004	2.0	GoodResponse	0	0.187	563.357	9	59	Target	AvoidedLoss	True
564.357	0.3	Lose2	0.6667000000000001	0.004	Yes	2.676	-0.004	2.0	GoodResponse	0	0.187	n/a	9	59	ButtonPress	AvoidedLoss	True
564.454	0.43	Lose2	0.6667000000000001	n/a	Yes	2.676	n/a	n/a	GoodResponse	0	n/a	n/a	9	59	Blank	AvoidedLoss	True
564.872	1.45	Lose2	0.6667000000000001	n/a	Yes	2.676	n/a	5.0	GoodResponse	0	0.021	563.893	9	59	Feedback	AvoidedLoss	True
566.326	2.676	Lose2	0.6667000000000001	n/a	Yes	2.676	n/a	n/a	GoodResponse	0	0.0	n/a	9	59	ISIslide	AvoidedLoss	True
569.018	0.25	Control	0.6720999999999999	0.0	Yes	2.682	0.018	n/a	GoodResponse	0	n/a	n/a	9	60	Cue	Neutral	True
569.268	4.0	Control	0.6720999999999999	0.0	Yes	2.682	0.0	n/a	GoodResponse	0	n/a	n/a	9	60	Fixation	Neutral	True
573.264	0.26	Control	0.6720999999999999	0.004	Yes	2.682	-0.004	2.0	GoodResponse	0	0.231	572.495	9	60	Target	Neutral	True
573.495	0.3	Control	0.6720999999999999	0.004	Yes	2.682	-0.004	2.0	GoodResponse	0	0.231	n/a	9	60	ButtonPress	Neutral	True
573.531	0.44	Control	0.6720999999999999	n/a	Yes	2.682	n/a	n/a	GoodResponse	0	n/a	n/a	9	60	Blank	Neutral	True
573.966	1.45	Control	0.6720999999999999	n/a	Yes	2.682	n/a	5.0	GoodResponse	0	0.049	573.015	9	60	Feedback	Neutral	True
575.42	2.682	Control	0.6720999999999999	n/a	Yes	2.682	n/a	n/a	GoodResponse	0	0.0	n/a	9	60	ISIslide	Neutral	True
578.128	0.25	Lose2	0.6774	0.0	Yes	2.972	0.028	n/a	GoodResponse	0	n/a	n/a	9	61	Cue	AvoidedLoss	True
578.379	4.0	Lose2	0.6774	0.0	Yes	2.972	0.001	n/a	GoodResponse	0	n/a	n/a	9	61	Fixation	AvoidedLoss	True
582.374	0.25	Lose2	0.6774	0.004	Yes	2.972	-0.004	2.0	GoodResponse	0	0.196	581.57	9	61	Target	AvoidedLoss	True
582.57	0.3	Lose2	0.6774	0.004	Yes	2.972	-0.004	2.0	GoodResponse	0	0.196	n/a	9	61	ButtonPress	AvoidedLoss	True
582.625	0.45	Lose2	0.6774	n/a	Yes	2.972	n/a	n/a	GoodResponse	0	n/a	n/a	9	61	Blank	AvoidedLoss	True
583.076	1.45	Lose2	0.6774	n/a	Yes	2.972	n/a	5.0	GoodResponse	0	0.011	582.087	9	61	Feedback	AvoidedLoss	True
584.531	2.972	Lose2	0.6774	n/a	Yes	2.972	n/a	n/a	GoodResponse	0	0.0	n/a	9	61	ISIslide	AvoidedLoss	True
587.523	0.25	Lose2	0.6825	0.0	Yes	2.877	0.023	n/a	GoodResponse	0	n/a	n/a	9	62	Cue	AvoidedLoss	True
587.774	3.9	Lose2	0.6825	0.0	Yes	2.877	0.001	n/a	GoodResponse	0	n/a	n/a	9	62	Fixation	AvoidedLoss	True
591.669	0.24	Lose2	0.6825	0.004	Yes	2.877	-0.004	2.0	GoodResponse	0	0.21	590.879	9	62	Target	AvoidedLoss	True
591.879	0.3	Lose2	0.6825	0.004	Yes	2.877	-0.004	2.0	GoodResponse	0	0.21	n/a	9	62	ButtonPress	AvoidedLoss	True
591.919	0.46	Lose2	0.6825	n/a	Yes	2.877	n/a	n/a	GoodResponse	0	n/a	n/a	9	62	Blank	AvoidedLoss	True
592.371	1.45	Lose2	0.6825	n/a	Yes	2.877	n/a	5.0	GoodResponse	0	0.034	591.405	9	62	Feedback	AvoidedLoss	True
593.825	2.877	Lose2	0.6825	n/a	Yes	2.877	n/a	n/a	GoodResponse	0	0.0	n/a	9	62	ISIslide	AvoidedLoss	True
596.717	0.25	Lose2	0.6875	0.0	Yes	2.633	0.017	n/a	GoodResponse	0	n/a	n/a	9	63	Cue	AvoidedLoss	True
596.968	4.05	Lose2	0.6875	0.0	Yes	2.633	0.001	n/a	GoodResponse	0	n/a	n/a	9	63	Fixation	AvoidedLoss	True
601.013	0.23	Lose2	0.6875	0.004	Yes	2.633	-0.004	2.0	GoodResponse	0	0.19	600.203	9	63	Target	AvoidedLoss	True
601.203	0.3	Lose2	0.6875	0.004	Yes	2.633	-0.004	2.0	GoodResponse	0	0.19	n/a	9	63	ButtonPress	AvoidedLoss	True
601.247	0.47	Lose2	0.6875	n/a	Yes	2.633	n/a	n/a	GoodResponse	0	n/a	n/a	9	63	Blank	AvoidedLoss	True
601.715	1.45	Lose2	0.6875	n/a	Yes	2.633	n/a	5.0	GoodResponse	0	0.008	600.723	9	63	Feedback	AvoidedLoss	True
603.17	2.633	Lose2	0.6875	n/a	Yes	2.633	n/a	n/a	GoodResponse	0	0.0	n/a	9	63	ISIslide	AvoidedLoss	True
605.828	0.25	Win2	0.6769	0.0	No	3.122	0.028	n/a	NoResponse	0	n/a	n/a	9	64	Cue	MissedWin	True
606.078	4.15	Win2	0.6769	0.0	No	3.122	0.0	n/a	NoResponse	0	n/a	n/a	9	64	Fixation	MissedWin	True
610.224	0.22	Win2	0.6769	0.004	No	3.122	-0.004	2.0	NoResponse	0	0.357	609.581	9	64	Target	MissedWin	True
610.458	0.48	Win2	0.6769	n/a	No	3.122	n/a	n/a	NoResponse	0	n/a	n/a	9	64	Blank	MissedWin	True
610.581	0.3	Win2	0.6769	0.004	No	3.122	-0.004	2.0	NoResponse	0	0.357	n/a	9	64	ButtonPress	MissedWin	True
610.926	1.45	Win2	0.6769	n/a	No	3.122	n/a	5.0	NoResponse	0	0.015	609.941	9	64	Feedback	MissedWin	True
612.38	3.122	Win2	0.6769	n/a	No	3.122	n/a	n/a	NoResponse	0	0.0	n/a	9	64	ISIslide	MissedWin	True
615.523	0.25	Control	0.6818000000000001	0.0	Yes	2.777	0.023	n/a	GoodResponse	0	n/a	n/a	9	65	Cue	Neutral	True
615.774	4.0	Control	0.6818000000000001	0.0	Yes	2.777	0.001	n/a	GoodResponse	0	n/a	n/a	9	65	Fixation	Neutral	True
619.769	0.21	Control	0.6818000000000001	0.004	Yes	2.777	-0.004	2.0	GoodResponse	0	0.206	618.975	9	65	Target	Neutral	True
619.975	0.3	Control	0.6818000000000001	0.004	Yes	2.777	-0.004	2.0	GoodResponse	0	0.206	n/a	9	65	ButtonPress	Neutral	True
619.987	0.49	Control	0.6818000000000001	n/a	Yes	2.777	n/a	n/a	GoodResponse	0	n/a	n/a	9	65	Blank	Neutral	True
620.471	1.45	Control	0.6818000000000001	n/a	Yes	2.777	n/a	5.0	GoodResponse	0	0.03	619.501	9	65	Feedback	Neutral	True
621.926	2.777	Control	0.6818000000000001	n/a	Yes	2.777	n/a	n/a	GoodResponse	0	0.0	n/a	9	65	ISIslide	Neutral	True
624.717	0.25	Win2	0.6716	0.0	No	2.783	0.017	n/a	NoResponse	0	n/a	n/a	9	66	Cue	MissedWin	True
624.968	3.9	Win2	0.6716	0.0	No	2.783	0.001	n/a	NoResponse	0	n/a	n/a	9	66	Fixation	MissedWin	True
628.863	0.2	Win2	0.6716	0.004	No	2.783	-0.004	2.0	NoResponse	0	0.231	628.094	9	66	Target	MissedWin	True
629.064	0.5	Win2	0.6716	n/a	No	2.783	n/a	n/a	NoResponse	0	n/a	n/a	9	66	Blank	MissedWin	True
629.094	0.3	Win2	0.6716	0.004	No	2.783	-0.004	2.0	NoResponse	0	0.231	n/a	9	66	ButtonPress	MissedWin	True
629.565	1.45	Win2	0.6716	n/a	No	2.783	n/a	5.0	NoResponse	0	0.01	628.575	9	66	Feedback	MissedWin	True
631.019	2.783	Win2	0.6716	n/a	No	2.783	n/a	n/a	NoResponse	0	0.0	n/a	9	66	ISIslide	MissedWin	True
633.828	0.25	Control	0.6618	0.0	No	2.722	0.028	n/a	NoResponse	0	n/a	n/a	9	67	Cue	Neutral	True
634.079	3.95	Control	0.6618	0.0	No	2.722	0.001	n/a	NoResponse	0	n/a	n/a	9	67	Fixation	Neutral	True
638.024	0.19	Control	0.6618	0.004	No	2.722	-0.004	2.0	NoResponse	0	0.261	637.285	9	67	Target	Neutral	True
638.224	0.51	Control	0.6618	n/a	No	2.722	n/a	n/a	NoResponse	0	n/a	n/a	9	67	Blank	Neutral	True
638.285	0.3	Control	0.6618	0.004	No	2.722	-0.004	2.0	NoResponse	0	0.261	n/a	9	67	ButtonPress	Neutral	True
638.726	1.45	Control	0.6618	n/a	No	2.722	n/a	5.0	NoResponse	0	0.02	637.746	9	67	Feedback	Neutral	True
640.18	2.722	Control	0.6618	n/a	No	2.722	n/a	n/a	NoResponse	0	0.0	n/a	9	67	ISIslide	Neutral	True
642.922	0.25	Win2	0.6522	0.0	No	3.078	0.022	n/a	NoResponse	0	n/a	n/a	9	68	Cue	MissedWin	True
643.172	4.0	Win2	0.6522	0.0	No	3.078	0.0	n/a	NoResponse	0	n/a	n/a	9	68	Fixation	MissedWin	True
647.168	0.19	Win2	0.6522	0.004	No	3.078	-0.004	2.0	NoResponse	0	0.236	646.404	9	68	Target	MissedWin	True
647.368	0.51	Win2	0.6522	n/a	No	3.078	n/a	n/a	NoResponse	0	n/a	n/a	9	68	Blank	MissedWin	True
647.404	0.3	Win2	0.6522	0.004	No	3.078	-0.004	2.0	NoResponse	0	0.236	n/a	9	68	ButtonPress	MissedWin	True
647.87	1.45	Win2	0.6522	n/a	No	3.078	n/a	5.0	NoResponse	0	0.046	646.916	9	68	Feedback	MissedWin	True
649.324	3.078	Win2	0.6522	n/a	No	3.078	n/a	n/a	NoResponse	0	0.0	n/a	9	68	ISIslide	MissedWin	True
652.417	0.25	Win2	0.6429	0.0	No	3.233	0.017	n/a	LatePress	0	n/a	n/a	9	69	Cue	MissedWin	True
652.667	3.95	Win2	0.6429	0.001	No	3.233	0.0	n/a	LatePress	0	n/a	n/a	9	69	Fixation	MissedWin	True
656.613	0.2	Win2	0.6429	0.004	No	3.233	-0.004	2.0	LatePress	0	0.203	655.816	9	69	Target	MissedWin	True
656.813	0.5	Win2	0.6429	n/a	No	3.233	n/a	n/a	LatePress	0	n/a	n/a	9	69	Blank	MissedWin	True
656.816	0.3	Win2	0.6429	0.004	No	3.233	-0.004	2.0	LatePress	0	0.203	n/a	9	69	ButtonPress	MissedWin	True
657.315	1.45	Win2	0.6429	n/a	No	3.233	n/a	5.0	LatePress	0	0.016	656.331	9	69	Feedback	MissedWin	True
658.769	3.233	Win2	0.6429	n/a	No	3.233	n/a	n/a	LatePress	0	0.0	n/a	9	69	ISIslide	MissedWin	True
662.029	0.25	Lose2	0.6479	0.0	Yes	3.021	0.029	n/a	GoodResponse	0	n/a	n/a	9	70	Cue	AvoidedLoss	True
662.279	4.05	Lose2	0.6479	0.001	Yes	3.021	0.0	n/a	GoodResponse	0	n/a	n/a	9	70	Fixation	AvoidedLoss	True
666.325	0.21	Lose2	0.6479	0.004	Yes	3.021	-0.004	2.0	GoodResponse	0	0.198	665.523	9	70	Target	AvoidedLoss	True
666.523	0.3	Lose2	0.6479	0.004	Yes	3.021	-0.004	2.0	GoodResponse	0	0.198	n/a	9	70	ButtonPress	AvoidedLoss	True
666.542	0.49	Lose2	0.6479	n/a	Yes	3.021	n/a	n/a	GoodResponse	0	n/a	n/a	9	70	Blank	AvoidedLoss	True
667.027	1.45	Lose2	0.6479	n/a	Yes	3.021	n/a	5.0	GoodResponse	0	0.01	666.037	9	70	Feedback	AvoidedLoss	True
668.481	3.021	Lose2	0.6479	n/a	Yes	3.021	n/a	n/a	GoodResponse	0	0.0	n/a	9	70	ISIslide	AvoidedLoss	True
671.524	0.25	Win2	0.6389	0.0	No	2.726	0.024	n/a	NoResponse	0	n/a	n/a	9	71	Cue	MissedWin	True
671.775	4.05	Win2	0.6389	0.0	No	2.726	0.001	n/a	NoResponse	0	n/a	n/a	9	71	Fixation	MissedWin	True
675.82	0.22	Win2	0.6389	0.004	No	2.726	-0.004	2.0	NoResponse	0	0.422	675.242	9	71	Target	MissedWin	True
676.054	0.48	Win2	0.6389	n/a	No	2.726	n/a	n/a	NoResponse	0	n/a	n/a	9	71	Blank	MissedWin	True
676.242	0.3	Win2	0.6389	0.004	No	2.726	-0.004	2.0	NoResponse	0	0.422	n/a	9	71	ButtonPress	MissedWin	True
676.522	1.45	Win2	0.6389	n/a	No	2.726	n/a	5.0	NoResponse	0	0.028	675.55	9	71	Feedback	MissedWin	True
677.976	2.726	Win2	0.6389	n/a	No	2.726	n/a	n/a	NoResponse	0	0.0	n/a	9	71	ISIslide	MissedWin	True
680.718	0.25	Win2	0.6437999999999999	0.0	Yes	2.782	0.018	n/a	GoodResponse	1	n/a	n/a	10	72	Cue	Win	True
680.969	4.1	Win2	0.6437999999999999	0.0	Yes	2.782	0.001	n/a	GoodResponse	1	n/a	n/a	10	72	Fixation	Win	True
685.064	0.23	Win2	0.6437999999999999	0.004	Yes	2.782	-0.004	2.0	GoodResponse	1	0.152	684.216	10	72	Target	Win	True
685.216	0.3	Win2	0.6437999999999999	0.004	Yes	2.782	-0.004	2.0	GoodResponse	1	0.152	n/a	10	72	ButtonPress	Win	True
685.298	0.47	Win2	0.6437999999999999	n/a	Yes	2.782	n/a	n/a	GoodResponse	1	n/a	n/a	10	72	Blank	Win	True
685.766	1.45	Win2	0.6437999999999999	n/a	Yes	2.782	n/a	5.0	GoodResponse	1	0.006	684.772	10	72	Feedback	Win	True
687.221	2.782	Win2	0.6437999999999999	n/a	Yes	2.782	n/a	n/a	GoodResponse	1	0.0	n/a	10	72	ISIslide	Win	True
690.029	0.25	Win2	0.6351	0.0	No	2.671	0.029	n/a	NoResponse	0	n/a	n/a	10	73	Cue	MissedWin	True
690.28	4.0	Win2	0.6351	0.0	No	2.671	0.001	n/a	NoResponse	0	n/a	n/a	10	73	Fixation	MissedWin	True
694.275	0.24	Win2	0.6351	0.004	No	2.671	-0.004	2.0	NoResponse	0	0.35	693.625	10	73	Target	MissedWin	True
694.526	0.46	Win2	0.6351	n/a	No	2.671	n/a	n/a	NoResponse	0	n/a	n/a	10	73	Blank	MissedWin	True
694.625	0.3	Win2	0.6351	0.004	No	2.671	-0.004	2.0	NoResponse	0	0.35	n/a	10	73	ButtonPress	MissedWin	True
694.977	1.45	Win2	0.6351	n/a	No	2.671	n/a	5.0	NoResponse	0	0.011	693.988	10	73	Feedback	MissedWin	True
696.431	2.671	Win2	0.6351	n/a	No	2.671	n/a	n/a	NoResponse	0	0.0	n/a	10	73	ISIslide	MissedWin	True
699.123	0.25	Lose2	0.64	0.0	Yes	2.627	0.023	n/a	GoodResponse	0	n/a	n/a	10	74	Cue	AvoidedLoss	True
699.374	4.05	Lose2	0.64	0.0	Yes	2.627	0.001	n/a	GoodResponse	0	n/a	n/a	10	74	Fixation	AvoidedLoss	True
703.419	0.25	Lose2	0.64	0.004	Yes	2.627	-0.004	2.0	GoodResponse	0	0.197	702.616	10	74	Target	AvoidedLoss	True
703.616	0.3	Lose2	0.64	0.004	Yes	2.627	-0.004	2.0	GoodResponse	0	0.197	n/a	10	74	ButtonPress	AvoidedLoss	True
703.67	0.45	Lose2	0.64	n/a	Yes	2.627	n/a	n/a	GoodResponse	0	n/a	n/a	10	74	Blank	AvoidedLoss	True
704.121	1.45	Lose2	0.64	n/a	Yes	2.627	n/a	5.0	GoodResponse	0	0.038	703.159	10	74	Feedback	AvoidedLoss	True
705.575	2.627	Lose2	0.64	n/a	Yes	2.627	n/a	n/a	GoodResponse	0	0.0	n/a	10	74	ISIslide	AvoidedLoss	True
708.217	0.25	Lose2	0.6446999999999999	0.0	Yes	2.933	0.017	n/a	GoodResponse	0	n/a	n/a	10	75	Cue	AvoidedLoss	True
708.467	3.95	Lose2	0.6446999999999999	0.0	Yes	2.933	0.0	n/a	GoodResponse	0	n/a	n/a	10	75	Fixation	AvoidedLoss	True
712.413	0.26	Lose2	0.6446999999999999	0.004	Yes	2.933	-0.004	2.0	GoodResponse	0	0.239	711.652	10	75	Target	AvoidedLoss	True
712.652	0.3	Lose2	0.6446999999999999	0.004	Yes	2.933	-0.004	2.0	GoodResponse	0	0.239	n/a	10	75	ButtonPress	AvoidedLoss	True
712.68	0.44	Lose2	0.6446999999999999	n/a	Yes	2.933	n/a	n/a	GoodResponse	0	n/a	n/a	10	75	Blank	AvoidedLoss	True
713.115	1.45	Lose2	0.6446999999999999	n/a	Yes	2.933	n/a	5.0	GoodResponse	0	0.02	712.135	10	75	Feedback	AvoidedLoss	True
714.569	2.933	Lose2	0.6446999999999999	n/a	Yes	2.933	n/a	n/a	GoodResponse	0	0.0	n/a	10	75	ISIslide	AvoidedLoss	True
717.528	0.25	Control	0.6494	0.0	Yes	3.222	0.028	n/a	GoodResponse	0	n/a	n/a	10	76	Cue	Neutral	True
717.779	4.05	Control	0.6494	0.0	Yes	3.222	0.001	n/a	GoodResponse	0	n/a	n/a	10	76	Fixation	Neutral	True
721.824	0.27	Control	0.6494	0.004	Yes	3.222	-0.004	2.0	GoodResponse	0	0.191	721.015	10	76	Target	Neutral	True
722.015	0.3	Control	0.6494	0.004	Yes	3.222	-0.004	2.0	GoodResponse	0	0.191	n/a	10	76	ButtonPress	Neutral	True
722.108	0.43	Control	0.6494	n/a	Yes	3.222	n/a	n/a	GoodResponse	0	n/a	n/a	10	76	Blank	Neutral	True
722.526	1.45	Control	0.6494	n/a	Yes	3.222	n/a	5.0	GoodResponse	0	0.023	721.549	10	76	Feedback	Neutral	True
723.98	3.222	Control	0.6494	n/a	Yes	3.222	n/a	n/a	GoodResponse	0	0.0	n/a	10	76	ISIslide	Neutral	True
727.223	0.25	Lose2	0.6409999999999999	0.001	No	2.577	0.023	n/a	NoResponse	-1	n/a	n/a	9	77	Cue	Loss	True
727.474	3.95	Lose2	0.6409999999999999	0.0	No	2.577	0.001	n/a	NoResponse	-1	n/a	n/a	9	77	Fixation	Loss	True
731.419	0.28	Lose2	0.6409999999999999	0.004	No	2.577	-0.004	2.0	NoResponse	-1	0.383	730.802	9	77	Target	Loss	True
731.703	0.42	Lose2	0.6409999999999999	n/a	No	2.577	n/a	n/a	NoResponse	-1	n/a	n/a	9	77	Blank	Loss	True
731.802	0.3	Lose2	0.6409999999999999	0.004	No	2.577	-0.004	2.0	NoResponse	-1	0.383	n/a	9	77	ButtonPress	Loss	True
732.121	1.45	Lose2	0.6409999999999999	n/a	No	2.577	n/a	5.0	NoResponse	-1	0.037	731.158	9	77	Feedback	Loss	True
733.576	2.577	Lose2	0.6409999999999999	n/a	No	2.577	n/a	n/a	NoResponse	-1	0.0	n/a	9	77	ISIslide	Loss	True
