onset	duration	cue_type	current_mean_accuracy	duration_error	is_hit	isi_adjusted	onset_delay	response	response_type	reward	rt	rt_time	total_reward	trial_number	trial_phase	trial_type	one_press
11.11	0.25	Control	1.0	0.0	Yes	2.94	0.01	n/a	GoodResponse	0	n/a	n/a	0	0	Cue	Neutral	True
11.359	3.85	Control	1.0	0.001	Yes	2.94	-0.001	n/a	GoodResponse	0	n/a	n/a	0	0	Fixation	Neutral	True
15.208	0.4	Control	1.0	0.002	Yes	2.94	-0.002	2.0	GoodResponse	0	0.308	14.516	0	0	Target	Neutral	True
15.516	0.3	Control	1.0	0.002	Yes	2.94	-0.002	2.0	GoodResponse	0	0.308	n/a	0	0	ButtonPress	Neutral	True
15.608	0.3	Control	1.0	n/a	Yes	2.94	n/a	n/a	GoodResponse	0	n/a	n/a	0	0	Blank	Neutral	True
15.908	1.45	Control	1.0	n/a	Yes	2.94	n/a	5.0	GoodResponse	0	0.021	14.929	0	0	Feedback	Neutral	True
17.357	2.94	Control	1.0	n/a	Yes	2.94	n/a	n/a	GoodResponse	0	0.0	n/a	0	0	ISIslide	Neutral	True
20.323	0.25	Lose2	1.0	0.0	Yes	2.777	0.023	n/a	GoodResponse	0	n/a	n/a	0	1	Cue	AvoidedLoss	True
20.573	4.0	Lose2	1.0	0.0	Yes	2.777	0.0	n/a	GoodResponse	0	n/a	n/a	0	1	Fixation	AvoidedLoss	True
24.572	0.39	Lose2	1.0	0.001	Yes	2.777	-0.001	2.0	GoodResponse	0	0.324	23.896	0	1	Target	AvoidedLoss	True
24.896	0.3	Lose2	1.0	0.001	Yes	2.777	-0.001	2.0	GoodResponse	0	0.324	n/a	0	1	ButtonPress	AvoidedLoss	True
24.971	0.31	Lose2	1.0	n/a	Yes	2.777	n/a	n/a	GoodResponse	0	n/a	n/a	0	1	Blank	AvoidedLoss	True
25.271	1.45	Lose2	1.0	n/a	Yes	2.777	n/a	5.0	GoodResponse	0	0.024	24.295	0	1	Feedback	AvoidedLoss	True
26.721	2.777	Lose2	1.0	n/a	Yes	2.777	n/a	n/a	GoodResponse	0	0.0	n/a	0	1	ISIslide	AvoidedLoss	True
29.52	0.25	Control	1.0	0.0	Yes	2.58	0.02	n/a	GoodResponse	0	n/a	n/a	0	2	Cue	Neutral	True
29.77	4.1	Control	1.0	0.0	Yes	2.58	0.0	n/a	GoodResponse	0	n/a	n/a	0	2	Fixation	Neutral	True
33.868	0.38	Control	1.0	0.002	Yes	2.58	-0.002	2.0	GoodResponse	0	0.319	33.187	0	2	Target	Neutral	True
34.187	0.3	Control	1.0	0.002	Yes	2.58	-0.002	2.0	GoodResponse	0	0.319	n/a	0	2	ButtonPress	Neutral	True
34.252	0.32	Control	1.0	n/a	Yes	2.58	n/a	n/a	GoodResponse	0	n/a	n/a	0	2	Blank	Neutral	True
34.568	1.45	Control	1.0	n/a	Yes	2.58	n/a	5.0	GoodResponse	0	0.044	33.612	0	2	Feedback	Neutral	True
36.018	2.58	Control	1.0	n/a	Yes	2.58	n/a	n/a	GoodResponse	0	0.0	n/a	0	2	ISIslide	Neutral	True
38.633	0.25	Win2	1.0	0.0	Yes	2.817	0.033	n/a	GoodResponse	1	n/a	n/a	1	3	Cue	Win	True
38.883	3.95	Win2	1.0	0.0	Yes	2.817	0.0	n/a	GoodResponse	1	n/a	n/a	1	3	Fixation	Win	True
42.832	0.37	Win2	1.0	0.001	Yes	2.817	-0.001	2.0	GoodResponse	1	0.294	42.126	1	3	Target	Win	True
43.126	0.3	Win2	1.0	0.001	Yes	2.817	-0.001	2.0	GoodResponse	1	0.294	n/a	1	3	ButtonPress	Win	True
43.198	0.33	Win2	1.0	n/a	Yes	2.817	n/a	n/a	GoodResponse	1	n/a	n/a	1	3	Blank	Win	True
43.532	1.45	Win2	1.0	n/a	Yes	2.817	n/a	5.0	GoodResponse	1	0.007	42.539	1	3	Feedback	Win	True
44.981	2.817	Win2	1.0	n/a	Yes	2.817	n/a	n/a	GoodResponse	1	0.0	n/a	1	3	ISIslide	Win	True
47.814	0.25	Win2	1.0	0.0	Yes	3.286	0.014	n/a	GoodResponse	1	n/a	n/a	2	4	Cue	Win	True
48.063	4.0	Win2	1.0	0.001	Yes	3.286	-0.001	n/a	GoodResponse	1	n/a	n/a	2	4	Fixation	Win	True
52.062	0.36	Win2	1.0	0.002	Yes	3.286	-0.002	2.0	GoodResponse	1	0.327	51.389	2	4	Target	Win	True
52.389	0.3	Win2	1.0	0.002	Yes	3.286	-0.002	2.0	GoodResponse	1	0.327	n/a	2	4	ButtonPress	Win	True
52.429	0.34	Win2	1.0	n/a	Yes	3.286	n/a	n/a	GoodResponse	1	n/a	n/a	2	4	Blank	Win	True
52.762	1.45	Win2	1.0	n/a	Yes	3.286	n/a	5.0	GoodResponse	1	0.045	51.807	2	4	Feedback	Win	True
54.211	3.286	Win2	1.0	n/a	Yes	3.286	n/a	n/a	GoodResponse	1	0.0	n/a	2	4	ISIslide	Win	True
57.527	0.25	Win2	1.0	0.0	Yes	2.773	0.027	n/a	GoodResponse	1	n/a	n/a	3	5	Cue	Win	True
57.777	4.0	Win2	1.0	0.0	Yes	2.773	0.0	n/a	GoodResponse	1	n/a	n/a	3	5	Fixation	Win	True
61.775	0.35	Win2	1.0	0.002	Yes	2.773	-0.002	2.0	GoodResponse	1	0.29	61.065	3	5	Target	Win	True
62.065	0.3	Win2	1.0	0.002	Yes	2.773	-0.002	2.0	GoodResponse	1	0.29	n/a	3	5	ButtonPress	Win	True
62.125	0.35	Win2	1.0	n/a	Yes	2.773	n/a	n/a	GoodResponse	1	n/a	n/a	3	5	Blank	Win	True
62.475	1.45	Win2	1.0	n/a	Yes	2.773	n/a	5.0	GoodResponse	1	0.039	61.514	3	5	Feedback	Win	True
63.925	2.773	Win2	1.0	n/a	Yes	2.773	n/a	n/a	GoodResponse	1	0.0	n/a	3	5	ISIslide	Win	True
66.724	0.25	Lose2	1.0	0.0	Yes	2.726	0.024	n/a	GoodResponse	0	n/a	n/a	3	6	Cue	AvoidedLoss	True
66.974	3.95	Lose2	1.0	0.0	Yes	2.726	0.0	n/a	GoodResponse	0	n/a	n/a	3	6	Fixation	AvoidedLoss	True
70.922	0.34	Lose2	1.0	0.002	Yes	2.726	-0.002	2.0	GoodResponse	0	0.294	70.216	3	6	Target	AvoidedLoss	True
71.216	0.3	Lose2	1.0	0.002	Yes	2.726	-0.002	2.0	GoodResponse	0	0.294	n/a	3	6	ButtonPress	AvoidedLoss	True
71.272	0.36	Lose2	1.0	n/a	Yes	2.726	n/a	n/a	GoodResponse	0	n/a	n/a	3	6	Blank	AvoidedLoss	True
71.622	1.45	Lose2	1.0	n/a	Yes	2.726	n/a	5.0	GoodResponse	0	0.014	70.636	3	6	Feedback	AvoidedLoss	True
73.071	2.726	Lose2	1.0	n/a	Yes	2.726	n/a	n/a	GoodResponse	0	0.0	n/a	3	6	ISIslide	AvoidedLoss	True
75.821	0.25	Lose2	1.0	0.0	Yes	4.029	0.021	n/a	GoodResponse	0	n/a	n/a	3	7	Cue	AvoidedLoss	True
76.07	4.05	Lose2	1.0	0.001	Yes	4.029	-0.001	n/a	GoodResponse	0	n/a	n/a	3	7	Fixation	AvoidedLoss	True
80.119	0.33	Lose2	1.0	0.002	Yes	4.029	-0.002	2.0	GoodResponse	0	0.293	79.412	3	7	Target	AvoidedLoss	True
80.412	0.3	Lose2	1.0	0.002	Yes	4.029	-0.002	2.0	GoodResponse	0	0.293	n/a	3	7	ButtonPress	AvoidedLoss	True
80.452	0.37	Lose2	1.0	n/a	Yes	4.029	n/a	n/a	GoodResponse	0	n/a	n/a	3	7	Blank	AvoidedLoss	True
80.819	1.45	Lose2	1.0	n/a	Yes	4.029	n/a	5.0	GoodResponse	0	0.036	79.855	3	7	Feedback	AvoidedLoss	True
82.268	4.029	Lose2	1.0	n/a	Yes	4.029	n/a	n/a	GoodResponse	0	0.0	n/a	3	7	ISIslide	AvoidedLoss	True
86.317	0.25	Lose2	1.0	0.0	Yes	3.033	0.017	n/a	GoodResponse	0	n/a	n/a	3	8	Cue	AvoidedLoss	True
86.567	3.95	Lose2	1.0	0.0	Yes	3.033	0.0	n/a	GoodResponse	0	n/a	n/a	3	8	Fixation	AvoidedLoss	True
90.515	0.32	Lose2	1.0	0.002	Yes	3.033	-0.002	2.0	GoodResponse	0	0.286	89.801	3	8	Target	AvoidedLoss	True
90.801	0.3	Lose2	1.0	0.002	Yes	3.033	-0.002	2.0	GoodResponse	0	0.286	n/a	3	8	ButtonPress	AvoidedLoss	True
90.849	0.38	Lose2	1.0	n/a	Yes	3.033	n/a	n/a	GoodResponse	0	n/a	n/a	3	8	Blank	AvoidedLoss	True
91.215	1.45	Lose2	1.0	n/a	Yes	3.033	n/a	5.0	GoodResponse	0	0.031	90.246	3	8	Feedback	AvoidedLoss	True
92.665	3.033	Lose2	1.0	n/a	Yes	3.033	n/a	n/a	GoodResponse	0	0.0	n/a	3	8	ISIslide	AvoidedLoss	True
95.714	0.25	Lose2	1.0	0.0	Yes	3.136	0.014	n/a	GoodResponse	0	n/a	n/a	3	9	Cue	AvoidedLoss	True
95.964	3.95	Lose2	1.0	0.0	Yes	3.136	0.0	n/a	GoodResponse	0	n/a	n/a	3	9	Fixation	AvoidedLoss	True
99.912	0.31	Lose2	1.0	0.002	Yes	3.136	-0.002	2.0	GoodResponse	0	0.25	99.162	3	9	Target	AvoidedLoss	True
100.162	0.3	Lose2	1.0	0.002	Yes	3.136	-0.002	2.0	GoodResponse	0	0.25	n/a	3	9	ButtonPress	AvoidedLoss	True
100.229	0.39	Lose2	1.0	n/a	Yes	3.136	n/a	n/a	GoodResponse	0	n/a	n/a	3	9	Blank	AvoidedLoss	True
100.612	1.45	Lose2	1.0	n/a	Yes	3.136	n/a	5.0	GoodResponse	0	0.049	99.661	3	9	Feedback	AvoidedLoss	True
102.061	3.136	Lose2	1.0	n/a	Yes	3.136	n/a	n/a	GoodResponse	0	0.0	n/a	3	9	ISIslide	AvoidedLoss	True
105.227	0.25	Control	0.9091	0.0	No	3.273	0.027	n/a	NoResponse	0	n/a	n/a	3	10	Cue	Neutral	True
105.477	4.0	Control	0.9091	0.0	No	3.273	0.0	n/a	NoResponse	0	n/a	n/a	3	10	Fixation	Neutral	True
109.476	0.3	Control	0.9091	0.001	No	3.273	-0.001	2.0	NoResponse	0	0.494	108.97	3	10	Target	Neutral	True
109.775	0.4	Control	0.9091	n/a	No	3.273	n/a	n/a	NoResponse	0	n/a	n/a	3	10	Blank	Neutral	True
109.97	0.3	Control	0.9091	0.001	No	3.273	-0.001	2.0	NoResponse	0	0.494	n/a	3	10	ButtonPress	Neutral	True
110.175	1.45	Control	0.9091	n/a	No	3.273	n/a	5.0	NoResponse	0	0.047	109.222	3	10	Feedback	Neutral	True
111.625	3.273	Control	0.9091	n/a	No	3.273	n/a	n/a	NoResponse	0	0.0	n/a	3	10	ISIslide	Neutral	True
114.924	0.25	Lose2	0.8332999999999999	0.0	No	2.726	0.024	n/a	NoResponse	-1	n/a	n/a	2	11	Cue	Loss	True
115.174	4.05	Lose2	0.8332999999999999	0.0	No	2.726	0.0	n/a	NoResponse	-1	n/a	n/a	2	11	Fixation	Loss	True
119.222	0.29	Lose2	0.8332999999999999	0.002	No	2.726	-0.002	2.0	NoResponse	-1	0.345	118.567	2	11	Target	Loss	True
119.522	0.41	Lose2	0.8332999999999999	n/a	No	2.726	n/a	n/a	NoResponse	-1	n/a	n/a	2	11	Blank	Loss	True
119.567	0.3	Lose2	0.8332999999999999	0.002	No	2.726	-0.002	2.0	NoResponse	-1	0.345	n/a	2	11	ButtonPress	Loss	True
119.922	1.45	Lose2	0.8332999999999999	n/a	No	2.726	n/a	5.0	NoResponse	-1	0.008	118.93	2	11	Feedback	Loss	True
121.371	2.726	Lose2	0.8332999999999999	n/a	No	2.726	n/a	n/a	NoResponse	-1	0.0	n/a	2	11	ISIslide	Loss	True
124.12	0.25	Control	0.7692	0.001	No	2.98	0.02	n/a	NoResponse	0	n/a	n/a	2	12	Cue	Neutral	True
124.37	3.9	Control	0.7692	0.0	No	2.98	0.0	n/a	NoResponse	0	n/a	n/a	2	12	Fixation	Neutral	True
128.269	0.28	Control	0.7692	0.001	No	2.98	-0.001	2.0	NoResponse	0	0.292	127.561	2	12	Target	Neutral	True
128.552	0.42	Control	0.7692	n/a	No	2.98	n/a	n/a	NoResponse	0	n/a	n/a	2	12	Blank	Neutral	True
128.561	0.3	Control	0.7692	0.001	No	2.98	-0.001	2.0	NoResponse	0	0.292	n/a	2	12	ButtonPress	Neutral	True
128.969	1.45	Control	0.7692	n/a	No	2.98	n/a	5.0	NoResponse	0	0.032	128.001	2	12	Feedback	Neutral	True
130.418	2.98	Control	0.7692	n/a	No	2.98	n/a	n/a	NoResponse	0	0.0	n/a	2	12	ISIslide	Neutral	True
133.417	0.25	Control	0.7857	0.0	Yes	2.783	0.017	n/a	GoodResponse	0	n/a	n/a	2	13	Cue	Neutral	True
133.667	4.0	Control	0.7857	0.0	Yes	2.783	0.0	n/a	GoodResponse	0	n/a	n/a	2	13	Fixation	Neutral	True
137.666	0.27	Control	0.7857	0.001	Yes	2.783	-0.001	2.0	GoodResponse	0	0.22	136.886	2	13	Target	Neutral	True
137.886	0.3	Control	0.7857	0.001	Yes	2.783	-0.001	2.0	GoodResponse	0	0.22	n/a	2	13	ButtonPress	Neutral	True
137.932	0.43	Control	0.7857	n/a	Yes	2.783	n/a	n/a	GoodResponse	0	n/a	n/a	2	13	Blank	Neutral	True
138.366	1.45	Control	0.7857	n/a	Yes	2.783	n/a	5.0	GoodResponse	0	0.006	137.372	2	13	Feedback	Neutral	True
139.815	2.783	Control	0.7857	n/a	Yes	2.783	n/a	n/a	GoodResponse	0	0.0	n/a	2	13	ISIslide	Neutral	True
142.614	0.25	Win2	0.8	0.0	Yes	2.686	0.014	n/a	GoodResponse	1	n/a	n/a	3	14	Cue	Win	True
142.864	4.1	Win2	0.8	0.0	Yes	2.686	0.0	n/a	GoodResponse	1	n/a	n/a	3	14	Fixation	Win	True
146.963	0.26	Win2	0.8	0.001	Yes	2.686	-0.001	2.0	GoodResponse	1	0.232	146.195	3	14	Target	Win	True
147.195	0.3	Win2	0.8	0.001	Yes	2.686	-0.001	2.0	GoodResponse	1	0.232	n/a	3	14	ButtonPress	Win	True
147.229	0.44	Win2	0.8	n/a	Yes	2.686	n/a	n/a	GoodResponse	1	n/a	n/a	3	14	Blank	Win	True
147.662	1.45	Win2	0.8	n/a	Yes	2.686	n/a	5.0	GoodResponse	1	0.023	146.685	3	14	Feedback	Win	True
149.112	2.686	Win2	0.8	n/a	Yes	2.686	n/a	n/a	GoodResponse	1	0.0	n/a	3	14	ISIslide	Win	True
151.828	0.25	Control	0.75	0.0	No	2.972	0.028	n/a	LatePress	0	n/a	n/a	3	15	Cue	Neutral	True
152.077	4.0	Control	0.75	0.001	No	2.972	-0.001	n/a	LatePress	0	n/a	n/a	3	15	Fixation	Neutral	True
156.076	0.25	Control	0.75	0.002	No	2.972	-0.002	2.0	LatePress	0	0.25	155.326	3	15	Target	Neutral	True
156.326	0.45	Control	0.75	n/a	No	2.972	n/a	n/a	LatePress	0	n/a	n/a	3	15	Blank	Neutral	True
156.326	0.3	Control	0.75	0.002	No	2.972	-0.002	2.0	LatePress	0	0.25	n/a	3	15	ButtonPress	Neutral	True
156.776	1.45	Control	0.75	n/a	No	2.972	n/a	5.0	LatePress	0	0.031	155.807	3	15	Feedback	Neutral	True
158.225	2.972	Control	0.75	n/a	No	2.972	n/a	n/a	LatePress	0	0.0	n/a	3	15	ISIslide	Neutral	True
161.224	0.25	Win2	0.7059000000000001	0.0	No	2.876	0.024	n/a	LatePress	0	n/a	n/a	3	16	Cue	MissedWin	True
161.474	4.0	Win2	0.7059000000000001	0.0	No	2.876	0.0	n/a	LatePress	0	n/a	n/a	3	16	Fixation	MissedWin	True
165.473	0.24	Win2	0.7059000000000001	0.001	No	2.876	-0.001	2.0	LatePress	0	0.241	164.714	3	16	Target	MissedWin	True
165.714	0.3	Win2	0.7059000000000001	0.001	No	2.876	-0.001	2.0	LatePress	0	0.241	n/a	3	16	ButtonPress	MissedWin	True
165.723	0.46	Win2	0.7059000000000001	n/a	No	2.876	n/a	n/a	LatePress	0	n/a	n/a	3	16	Blank	MissedWin	True
166.173	1.45	Win2	0.7059000000000001	n/a	No	2.876	n/a	5.0	LatePress	0	0.0	165.173	3	16	Feedback	MissedWin	True
167.622	2.876	Win2	0.7059000000000001	n/a	No	2.876	n/a	n/a	LatePress	0	0.0	n/a	3	16	ISIslide	MissedWin	True
170.521	0.25	Lose2	0.7222	0.0	Yes	2.729	0.021	n/a	GoodResponse	0	n/a	n/a	3	17	Cue	AvoidedLoss	False
170.771	3.95	Lose2	0.7222	0.0	Yes	2.729	0.0	2.0	GoodResponse	0	0.084	169.855	3	17	Fixation	AvoidedLoss	False
170.855	0.3	Lose2	0.7222	0.0	Yes	2.729	0.0	2.0	GoodResponse	0	0.084	n/a	3	17	ButtonPress	AvoidedLoss	False
174.72	0.23	Lose2	0.7222	0.001	Yes	2.729	-0.001	2.0	GoodResponse	0	0.224	173.944	3	17	Target	AvoidedLoss	False
174.944	0.3	Lose2	0.7222	0.001	Yes	2.729	-0.001	2.0	GoodResponse	0	0.224	n/a	3	17	ButtonPress	AvoidedLoss	False
174.953	0.47	Lose2	0.7222	n/a	Yes	2.729	n/a	n/a	GoodResponse	0	n/a	n/a	3	17	Blank	AvoidedLoss	False
175.419	1.45	Lose2	0.7222	n/a	Yes	2.729	n/a	5.0	GoodResponse	0	0.022	174.441	3	17	Feedback	AvoidedLoss	False
176.869	2.729	Lose2	0.7222	n/a	Yes	2.729	n/a	n/a	GoodResponse	0	0.0	n/a	3	17	ISIslide	AvoidedLoss	False
179.618	0.25	Lose2	0.6842	0.0	No	2.732	0.018	n/a	NoResponse	-1	n/a	n/a	2	18	Cue	Loss	True
179.868	4.05	Lose2	0.6842	0.0	No	2.732	0.0	n/a	NoResponse	-1	n/a	n/a	2	18	Fixation	Loss	True
183.916	0.22	Lose2	0.6842	0.002	No	2.732	-0.002	2.0	NoResponse	-1	0.612	183.528	2	18	Target	Loss	True
184.15	0.48	Lose2	0.6842	n/a	No	2.732	n/a	n/a	NoResponse	-1	n/a	n/a	2	18	Blank	Loss	True
184.528	0.3	Lose2	0.6842	0.002	No	2.732	-0.002	2.0	NoResponse	-1	0.612	n/a	2	18	ButtonPress	Loss	True
184.616	1.45	Lose2	0.6842	n/a	No	2.732	n/a	5.0	NoResponse	-1	0.044	183.66	2	18	Feedback	Loss	True
186.066	2.732	Lose2	0.6842	n/a	No	2.732	n/a	n/a	NoResponse	-1	0.0	n/a	2	18	ISIslide	Loss	True
188.815	0.25	Control	0.65	0.0	No	2.935	0.015	n/a	NoResponse	0	n/a	n/a	2	19	Cue	Neutral	True
189.065	3.95	Control	0.65	0.0	No	2.935	0.0	n/a	NoResponse	0	n/a	n/a	2	19	Fixation	Neutral	True
193.013	0.21	Control	0.65	0.002	No	2.935	-0.002	2.0	NoResponse	0	0.361	192.374	2	19	Target	Neutral	True
193.23	0.49	Control	0.65	n/a	No	2.935	n/a	n/a	NoResponse	0	n/a	n/a	2	19	Blank	Neutral	True
193.374	0.3	Control	0.65	0.002	No	2.935	-0.002	2.0	NoResponse	0	0.361	n/a	2	19	ButtonPress	Neutral	True
193.713	1.45	Control	0.65	n/a	No	2.935	n/a	5.0	NoResponse	0	0.02	192.733	2	19	Feedback	Neutral	True
195.163	2.935	Control	0.65	n/a	No	2.935	n/a	n/a	NoResponse	0	0.0	n/a	2	19	ISIslide	Neutral	True
198.128	0.25	Control	0.619	0.0	No	2.622	0.028	n/a	NoResponse	0	n/a	n/a	2	20	Cue	Neutral	True
198.378	4.05	Control	0.619	0.0	No	2.622	0.0	n/a	NoResponse	0	n/a	n/a	2	20	Fixation	Neutral	True
202.427	0.22	Control	0.619	0.001	No	2.622	-0.001	2.0	NoResponse	0	0.277	201.704	2	20	Target	Neutral	True
202.66	0.48	Control	0.619	n/a	No	2.622	n/a	n/a	NoResponse	0	n/a	n/a	2	20	Blank	Neutral	True
202.704	0.3	Control	0.619	0.001	No	2.622	-0.001	2.0	NoResponse	0	0.277	n/a	2	20	ButtonPress	Neutral	True
203.126	1.45	Control	0.619	n/a	No	2.622	n/a	5.0	NoResponse	0	0.022	202.148	2	20	Feedback	Neutral	True
204.576	2.622	Control	0.619	n/a	No	2.622	n/a	n/a	NoResponse	0	0.0	n/a	2	20	ISIslide	Neutral	True
207.225	0.25	Control	0.5909	0.0	No	2.775	0.025	n/a	NoResponse	0	n/a	n/a	2	21	Cue	Neutral	True
207.475	4.1	Control	0.5909	0.0	No	2.775	0.0	n/a	NoResponse	0	n/a	n/a	2	21	Fixation	Neutral	True
211.574	0.23	Control	0.5909	0.001	No	2.775	-0.001	2.0	NoResponse	0	0.269	210.843	2	21	Target	Neutral	True
211.807	0.47	Control	0.5909	n/a	No	2.775	n/a	n/a	NoResponse	0	n/a	n/a	2	21	Blank	Neutral	True
211.843	0.3	Control	0.5909	0.001	No	2.775	-0.001	2.0	NoResponse	0	0.269	n/a	2	21	ButtonPress	Neutral	True
212.273	1.45	Control	0.5909	n/a	No	2.775	n/a	5.0	NoResponse	0	0.046	211.319	2	21	Feedback	Neutral	True
213.723	2.775	Control	0.5909	n/a	No	2.775	n/a	n/a	NoResponse	0	0.0	n/a	2	21	ISIslide	Neutral	True
216.522	0.25	Control	0.5652	0.0	No	2.778	0.022	n/a	NoResponse	0	n/a	n/a	2	22	Cue	Neutral	True
216.772	4.0	Control	0.5652	0.0	No	2.778	0.0	n/a	NoResponse	0	n/a	n/a	2	22	Fixation	Neutral	True
220.77	0.24	Control	0.5652	0.002	No	2.778	-0.002	2.0	NoResponse	0	0.266	220.036	2	22	Target	Neutral	True
221.02	0.46	Control	0.5652	n/a	No	2.778	n/a	n/a	NoResponse	0	n/a	n/a	2	22	Blank	Neutral	True
221.036	0.3	Control	0.5652	0.002	No	2.778	-0.002	2.0	NoResponse	0	0.266	n/a	2	22	ButtonPress	Neutral	True
221.47	1.45	Control	0.5652	n/a	No	2.778	n/a	5.0	NoResponse	0	0.019	220.489	2	22	Feedback	Neutral	True
222.92	2.778	Control	0.5652	n/a	No	2.778	n/a	n/a	NoResponse	0	0.0	n/a	2	22	ISIslide	Neutral	True
225.719	0.25	Control	0.5832999999999999	0.0	Yes	2.781	0.019	n/a	GoodResponse	0	n/a	n/a	2	23	Cue	Neutral	True
225.969	3.9	Control	0.5832999999999999	0.0	Yes	2.781	0.0	n/a	GoodResponse	0	n/a	n/a	2	23	Fixation	Neutral	True
229.867	0.25	Control	0.5832999999999999	0.002	Yes	2.781	-0.002	2.0	GoodResponse	0	0.223	229.09	2	23	Target	Neutral	True
230.09	0.3	Control	0.5832999999999999	0.002	Yes	2.781	-0.002	2.0	GoodResponse	0	0.223	n/a	2	23	ButtonPress	Neutral	True
230.117	0.45	Control	0.5832999999999999	n/a	Yes	2.781	n/a	n/a	GoodResponse	0	n/a	n/a	2	23	Blank	Neutral	True
230.567	1.45	Control	0.5832999999999999	n/a	Yes	2.781	n/a	5.0	GoodResponse	0	0.044	229.611	2	23	Feedback	Neutral	True
232.017	2.781	Control	0.5832999999999999	n/a	Yes	2.781	n/a	n/a	GoodResponse	0	0.0	n/a	2	23	ISIslide	Neutral	True
234.816	0.25	Win2	0.56	0.0	No	3.134	0.016	n/a	NoResponse	0	n/a	n/a	2	24	Cue	MissedWin	True
235.065	3.95	Win2	0.56	0.001	No	3.134	-0.001	n/a	NoResponse	0	n/a	n/a	2	24	Fixation	MissedWin	True
239.014	0.26	Win2	0.56	0.002	No	3.134	-0.002	2.0	NoResponse	0	0.343	238.357	2	24	Target	MissedWin	True
239.281	0.44	Win2	0.56	n/a	No	3.134	n/a	n/a	NoResponse	0	n/a	n/a	2	24	Blank	MissedWin	True
239.357	0.3	Win2	0.56	0.002	No	3.134	-0.002	2.0	NoResponse	0	0.343	n/a	2	24	ButtonPress	MissedWin	True
239.714	1.45	Win2	0.56	n/a	No	3.134	n/a	5.0	NoResponse	0	0.02	238.734	2	24	Feedback	MissedWin	True
241.163	3.134	Win2	0.56	n/a	No	3.134	n/a	n/a	NoResponse	0	0.0	n/a	2	24	ISIslide	MissedWin	True
244.329	0.25	Win2	0.5769	0.0	Yes	3.071	0.029	n/a	GoodResponse	1	n/a	n/a	3	25	Cue	Win	True
244.579	4.0	Win2	0.5769	0.0	Yes	3.071	0.0	n/a	GoodResponse	1	n/a	n/a	3	25	Fixation	Win	True
248.577	0.27	Win2	0.5769	0.002	Yes	3.071	-0.002	2.0	GoodResponse	1	0.22	247.797	3	25	Target	Win	True
248.797	0.3	Win2	0.5769	0.002	Yes	3.071	-0.002	2.0	GoodResponse	1	0.22	n/a	3	25	ButtonPress	Win	True
248.861	0.43	Win2	0.5769	n/a	Yes	3.071	n/a	n/a	GoodResponse	1	n/a	n/a	3	25	Blank	Win	True
249.277	1.45	Win2	0.5769	n/a	Yes	3.071	n/a	5.0	GoodResponse	1	0.017	248.294	3	25	Feedback	Win	True
250.727	3.071	Win2	0.5769	n/a	Yes	3.071	n/a	n/a	GoodResponse	1	0.0	n/a	3	25	ISIslide	Win	True
253.826	0.25	Win2	0.5926	0.0	Yes	2.924	0.026	n/a	GoodResponse	1	n/a	n/a	4	26	Cue	Win	True
254.076	3.95	Win2	0.5926	0.0	Yes	2.924	0.0	n/a	GoodResponse	1	n/a	n/a	4	26	Fixation	Win	True
258.024	0.28	Win2	0.5926	0.002	Yes	2.924	-0.002	2.0	GoodResponse	1	0.183	257.207	4	26	Target	Win	True
258.207	0.3	Win2	0.5926	0.002	Yes	2.924	-0.002	2.0	GoodResponse	1	0.183	n/a	4	26	ButtonPress	Win	True
258.307	0.42	Win2	0.5926	n/a	Yes	2.924	n/a	n/a	GoodResponse	1	n/a	n/a	4	26	Blank	Win	True
258.724	1.45	Win2	0.5926	n/a	Yes	2.924	n/a	5.0	GoodResponse	1	0.033	257.757	4	26	Feedback	Win	True
260.173	2.924	Win2	0.5926	n/a	Yes	2.924	n/a	n/a	GoodResponse	1	0.0	n/a	4	26	ISIslide	Win	True
263.122	0.25	Lose2	0.6071	0.001	Yes	2.828	0.022	n/a	GoodResponse	0	n/a	n/a	4	27	Cue	AvoidedLoss	True
263.372	4.05	Lose2	0.6071	0.0	Yes	2.828	0.0	n/a	GoodResponse	0	n/a	n/a	4	27	Fixation	AvoidedLoss	True
267.421	0.29	Lose2	0.6071	0.001	Yes	2.828	-0.001	2.0	GoodResponse	0	0.237	266.658	4	27	Target	AvoidedLoss	True
267.658	0.3	Lose2	0.6071	0.001	Yes	2.828	-0.001	2.0	GoodResponse	0	0.237	n/a	4	27	ButtonPress	AvoidedLoss	True
267.721	0.41	Lose2	0.6071	n/a	Yes	2.828	n/a	n/a	GoodResponse	0	n/a	n/a	4	27	Blank	AvoidedLoss	True
268.121	1.45	Lose2	0.6071	n/a	Yes	2.828	n/a	5.0	GoodResponse	0	0.005	267.126	4	27	Feedback	AvoidedLoss	True
269.57	2.828	Lose2	0.6071	n/a	Yes	2.828	n/a	n/a	GoodResponse	0	0.0	n/a	4	27	ISIslide	AvoidedLoss	True
272.419	0.25	Control	0.5861999999999999	0.0	No	2.831	0.019	n/a	NoResponse	0	n/a	n/a	4	28	Cue	Neutral	True
272.669	4.05	Control	0.5861999999999999	0.0	No	2.831	0.0	n/a	NoResponse	0	n/a	n/a	4	28	Fixation	Neutral	True
276.718	0.3	Control	0.5861999999999999	0.001	No	2.831	-0.001	2.0	NoResponse	0	0.321	276.039	4	28	Target	Neutral	True
277.018	0.4	Control	0.5861999999999999	n/a	No	2.831	n/a	n/a	NoResponse	0	n/a	n/a	4	28	Blank	Neutral	True
277.039	0.3	Control	0.5861999999999999	0.001	No	2.831	-0.001	2.0	NoResponse	0	0.321	n/a	4	28	ButtonPress	Neutral	True
277.417	1.45	Control	0.5861999999999999	n/a	No	2.831	n/a	5.0	NoResponse	0	0.023	276.44	4	28	Feedback	Neutral	True
278.867	2.831	Control	0.5861999999999999	n/a	No	2.831	n/a	n/a	NoResponse	0	0.0	n/a	4	28	ISIslide	Neutral	True
281.716	0.25	Lose2	0.5667	0.0	No	2.834	0.016	n/a	NoResponse	-1	n/a	n/a	3	29	Cue	Loss	True
281.966	3.95	Lose2	0.5667	0.0	No	2.834	0.0	n/a	NoResponse	-1	n/a	n/a	3	29	Fixation	Loss	True
285.915	0.31	Lose2	0.5667	0.001	No	2.834	-0.001	2.0	NoResponse	-1	0.326	285.241	3	29	Target	Loss	True
286.231	0.39	Lose2	0.5667	n/a	No	2.834	n/a	n/a	NoResponse	-1	n/a	n/a	3	29	Blank	Loss	True
286.241	0.3	Lose2	0.5667	0.001	No	2.834	-0.001	2.0	NoResponse	-1	0.326	n/a	3	29	ButtonPress	Loss	True
286.614	1.45	Lose2	0.5667	n/a	No	2.834	n/a	5.0	NoResponse	-1	0.046	285.66	3	29	Feedback	Loss	True
288.064	2.834	Lose2	0.5667	n/a	No	2.834	n/a	n/a	NoResponse	-1	0.0	n/a	3	29	ISIslide	Loss	True
290.913	0.25	Win2	0.5806	0.0	Yes	2.787	0.013	n/a	GoodResponse	1	n/a	n/a	4	30	Cue	Win	True
291.163	3.9	Win2	0.5806	0.0	Yes	2.787	0.0	n/a	GoodResponse	1	n/a	n/a	4	30	Fixation	Win	True
295.061	0.32	Win2	0.5806	0.002	Yes	2.787	-0.002	2.0	GoodResponse	1	0.215	294.276	4	30	Target	Win	True
295.276	0.3	Win2	0.5806	0.002	Yes	2.787	-0.002	2.0	GoodResponse	1	0.215	n/a	4	30	ButtonPress	Win	True
295.395	0.38	Win2	0.5806	n/a	Yes	2.787	n/a	n/a	GoodResponse	1	n/a	n/a	4	30	Blank	Win	True
295.761	1.45	Win2	0.5806	n/a	Yes	2.787	n/a	5.0	GoodResponse	1	0.021	294.782	4	30	Feedback	Win	True
297.211	2.787	Win2	0.5806	n/a	Yes	2.787	n/a	n/a	GoodResponse	1	0.0	n/a	4	30	ISIslide	Win	True
300.026	0.25	Lose2	0.5938	0.0	Yes	2.824	0.026	n/a	GoodResponse	0	n/a	n/a	4	31	Cue	AvoidedLoss	True
300.276	4.05	Lose2	0.5938	0.0	Yes	2.824	0.0	n/a	GoodResponse	0	n/a	n/a	4	31	Fixation	AvoidedLoss	True
304.325	0.33	Lose2	0.5938	0.001	Yes	2.824	-0.001	2.0	GoodResponse	0	0.27	303.595	4	31	Target	AvoidedLoss	True
304.595	0.3	Lose2	0.5938	0.001	Yes	2.824	-0.001	2.0	GoodResponse	0	0.27	n/a	4	31	ButtonPress	AvoidedLoss	True
304.658	0.37	Lose2	0.5938	n/a	Yes	2.824	n/a	n/a	GoodResponse	0	n/a	n/a	4	31	Blank	AvoidedLoss	True
305.025	1.45	Lose2	0.5938	n/a	Yes	2.824	n/a	5.0	GoodResponse	0	0.024	304.049	4	31	Feedback	AvoidedLoss	True
306.474	2.824	Lose2	0.5938	n/a	Yes	2.824	n/a	n/a	GoodResponse	0	0.0	n/a	4	31	ISIslide	AvoidedLoss	True
309.323	0.25	Lose2	0.5758	0.0	No	2.627	0.023	n/a	NoResponse	-1	n/a	n/a	3	32	Cue	Loss	True
309.573	4.15	Lose2	0.5758	0.0	No	2.627	0.0	n/a	NoResponse	-1	n/a	n/a	3	32	Fixation	Loss	True
313.722	0.34	Lose2	0.5758	0.001	No	2.627	-0.001	2.0	NoResponse	-1	0.357	313.079	3	32	Target	Loss	True
314.071	0.36	Lose2	0.5758	n/a	No	2.627	n/a	n/a	NoResponse	-1	n/a	n/a	3	32	Blank	Loss	True
314.079	0.3	Lose2	0.5758	0.001	No	2.627	-0.001	2.0	NoResponse	-1	0.357	n/a	3	32	ButtonPress	Loss	True
314.421	1.45	Lose2	0.5758	n/a	No	2.627	n/a	5.0	NoResponse	-1	0.043	313.464	3	32	Feedback	Loss	True
315.871	2.627	Lose2	0.5758	n/a	No	2.627	n/a	n/a	NoResponse	-1	0.0	n/a	3	32	ISIslide	Loss	True
318.52	0.25	Win2	0.5882000000000001	0.0	Yes	2.68	0.02	n/a	GoodResponse	1	n/a	n/a	4	33	Cue	Win	True
318.77	4.0	Win2	0.5882000000000001	0.0	Yes	2.68	0.0	n/a	GoodResponse	1	n/a	n/a	4	33	Fixation	Win	True
322.768	0.35	Win2	0.5882000000000001	0.002	Yes	2.68	-0.002	2.0	GoodResponse	1	0.298	322.066	4	33	Target	Win	True
323.066	0.3	Win2	0.5882000000000001	0.002	Yes	2.68	-0.002	2.0	GoodResponse	1	0.298	n/a	4	33	ButtonPress	Win	True
323.118	0.35	Win2	0.5882000000000001	n/a	Yes	2.68	n/a	n/a	GoodResponse	1	n/a	n/a	4	33	Blank	Win	True
323.468	1.45	Win2	0.5882000000000001	n/a	Yes	2.68	n/a	5.0	GoodResponse	1	0.021	322.489	4	33	Feedback	Win	True
324.918	2.68	Win2	0.5882000000000001	n/a	Yes	2.68	n/a	n/a	GoodResponse	1	0.0	n/a	4	33	ISIslide	Win	True
327.617	0.25	Lose2	0.6	0.0	Yes	2.633	0.017	n/a	GoodResponse	0	n/a	n/a	4	34	Cue	AvoidedLoss	True
327.867	4.05	Lose2	0.6	0.0	Yes	2.633	0.0	n/a	GoodResponse	0	n/a	n/a	4	34	Fixation	AvoidedLoss	True
331.915	0.36	Lose2	0.6	0.002	Yes	2.633	-0.002	2.0	GoodResponse	0	0.198	331.113	4	34	Target	AvoidedLoss	True
332.113	0.3	Lose2	0.6	0.002	Yes	2.633	-0.002	2.0	GoodResponse	0	0.198	n/a	4	34	ButtonPress	AvoidedLoss	True
332.282	0.34	Lose2	0.6	n/a	Yes	2.633	n/a	n/a	GoodResponse	0	n/a	n/a	4	34	Blank	AvoidedLoss	True
332.615	1.45	Lose2	0.6	n/a	Yes	2.633	n/a	5.0	GoodResponse	0	0.045	331.66	4	34	Feedback	AvoidedLoss	True
334.065	2.633	Lose2	0.6	n/a	Yes	2.633	n/a	n/a	GoodResponse	0	0.0	n/a	4	34	ISIslide	AvoidedLoss	True
336.714	0.25	Lose2	0.6111	0.0	Yes	2.686	0.014	n/a	GoodResponse	0	n/a	n/a	4	35	Cue	AvoidedLoss	True
336.964	4.0	Lose2	0.6111	0.0	Yes	2.686	0.0	n/a	GoodResponse	0	n/a	n/a	4	35	Fixation	AvoidedLoss	True
340.962	0.37	Lose2	0.6111	0.002	Yes	2.686	-0.002	2.0	GoodResponse	0	0.255	340.217	4	35	Target	AvoidedLoss	True
341.217	0.3	Lose2	0.6111	0.002	Yes	2.686	-0.002	2.0	GoodResponse	0	0.255	n/a	4	35	ButtonPress	AvoidedLoss	True
341.345	0.33	Lose2	0.6111	n/a	Yes	2.686	n/a	n/a	GoodResponse	0	n/a	n/a	4	35	Blank	AvoidedLoss	True
341.662	1.45	Lose2	0.6111	n/a	Yes	2.686	n/a	5.0	GoodResponse	0	0.022	340.684	4	35	Feedback	AvoidedLoss	True
343.111	2.686	Lose2	0.6111	n/a	Yes	2.686	n/a	n/a	GoodResponse	0	0.0	n/a	4	35	ISIslide	AvoidedLoss	True
345.827	0.25	Control	0.6215999999999999	0.0	Yes	2.673	0.027	n/a	GoodResponse	0	n/a	n/a	4	36	Cue	Neutral	True
346.077	4.0	Control	0.6215999999999999	0.0	Yes	2.673	0.0	n/a	GoodResponse	0	n/a	n/a	4	36	Fixation	Neutral	True
350.076	0.38	Control	0.6215999999999999	0.001	Yes	2.673	-0.001	2.0	GoodResponse	0	0.204	349.28	4	36	Target	Neutral	True
350.28	0.3	Control	0.6215999999999999	0.001	Yes	2.673	-0.001	2.0	GoodResponse	0	0.204	n/a	4	36	ButtonPress	Neutral	True
350.459	0.32	Control	0.6215999999999999	n/a	Yes	2.673	n/a	n/a	GoodResponse	0	n/a	n/a	4	36	Blank	Neutral	True
350.775	1.45	Control	0.6215999999999999	n/a	Yes	2.673	n/a	5.0	GoodResponse	0	0.031	349.806	4	36	Feedback	Neutral	True
352.225	2.673	Control	0.6215999999999999	n/a	Yes	2.673	n/a	n/a	GoodResponse	0	0.0	n/a	4	36	ISIslide	Neutral	True
354.924	0.25	Win2	0.6315999999999999	0.0	Yes	2.876	0.024	n/a	GoodResponse	1	n/a	n/a	5	37	Cue	Win	True
355.174	4.0	Win2	0.6315999999999999	0.0	Yes	2.876	0.0	n/a	GoodResponse	1	n/a	n/a	5	37	Fixation	Win	True
359.173	0.39	Win2	0.6315999999999999	0.001	Yes	2.876	-0.001	2.0	GoodResponse	1	0.291	358.464	5	37	Target	Win	True
359.464	0.3	Win2	0.6315999999999999	0.001	Yes	2.876	-0.001	2.0	GoodResponse	1	0.291	n/a	5	37	ButtonPress	Win	True
359.572	0.31	Win2	0.6315999999999999	n/a	Yes	2.876	n/a	n/a	GoodResponse	1	n/a	n/a	5	37	Blank	Win	True
359.872	1.45	Win2	0.6315999999999999	n/a	Yes	2.876	n/a	5.0	GoodResponse	1	0.007	358.879	5	37	Feedback	Win	True
361.322	2.876	Win2	0.6315999999999999	n/a	Yes	2.876	n/a	n/a	GoodResponse	1	0.0	n/a	5	37	ISIslide	Win	True
364.221	0.25	Lose2	0.6409999999999999	0.0	Yes	2.829	0.021	n/a	GoodResponse	0	n/a	n/a	5	38	Cue	AvoidedLoss	True
364.471	3.95	Lose2	0.6409999999999999	0.0	Yes	2.829	0.0	n/a	GoodResponse	0	n/a	n/a	5	38	Fixation	AvoidedLoss	True
368.419	0.4	Lose2	0.6409999999999999	0.002	Yes	2.829	-0.002	2.0	GoodResponse	0	0.255	367.674	5	38	Target	AvoidedLoss	True
368.674	0.3	Lose2	0.6409999999999999	0.002	Yes	2.829	-0.002	2.0	GoodResponse	0	0.255	n/a	5	38	ButtonPress	AvoidedLoss	True
368.819	0.3	Lose2	0.6409999999999999	n/a	Yes	2.829	n/a	n/a	GoodResponse	0	n/a	n/a	5	38	Blank	AvoidedLoss	True
369.119	1.45	Lose2	0.6409999999999999	n/a	Yes	2.829	n/a	5.0	GoodResponse	0	0.028	368.147	5	38	Feedback	AvoidedLoss	True
370.569	2.829	Lose2	0.6409999999999999	n/a	Yes	2.829	n/a	n/a	GoodResponse	0	0.0	n/a	5	38	ISIslide	AvoidedLoss	True
373.418	0.25	Win2	0.65	0.0	Yes	2.982	0.018	n/a	GoodResponse	1	n/a	n/a	6	39	Cue	Win	True
373.668	4.1	Win2	0.65	0.0	Yes	2.982	0.0	n/a	GoodResponse	1	n/a	n/a	6	39	Fixation	Win	True
377.766	0.41	Win2	0.65	0.002	Yes	2.982	-0.002	2.0	GoodResponse	1	0.221	376.987	6	39	Target	Win	True
377.987	0.3	Win2	0.65	0.002	Yes	2.982	-0.002	2.0	GoodResponse	1	0.221	n/a	6	39	ButtonPress	Win	True
378.183	0.29	Win2	0.65	n/a	Yes	2.982	n/a	n/a	GoodResponse	1	n/a	n/a	6	39	Blank	Win	True
378.466	1.45	Win2	0.65	n/a	Yes	2.982	n/a	5.0	GoodResponse	1	0.047	377.513	6	39	Feedback	Win	True
379.915	2.982	Win2	0.65	n/a	Yes	2.982	n/a	n/a	GoodResponse	1	0.0	n/a	6	39	ISIslide	Win	True
382.914	0.25	Win2	0.6585	0.0	Yes	2.736	0.014	n/a	GoodResponse	1	n/a	n/a	7	40	Cue	Win	True
383.164	3.95	Win2	0.6585	0.0	Yes	2.736	0.0	n/a	GoodResponse	1	n/a	n/a	7	40	Fixation	Win	True
387.113	0.42	Win2	0.6585	0.001	Yes	2.736	-0.001	2.0	GoodResponse	1	0.221	386.334	7	40	Target	Win	True
387.334	0.3	Win2	0.6585	0.001	Yes	2.736	-0.001	2.0	GoodResponse	1	0.221	n/a	7	40	ButtonPress	Win	True
387.529	0.28	Win2	0.6585	n/a	Yes	2.736	n/a	n/a	GoodResponse	1	n/a	n/a	7	40	Blank	Win	True
387.813	1.45	Win2	0.6585	n/a	Yes	2.736	n/a	5.0	GoodResponse	1	0.017	386.83	7	40	Feedback	Win	True
389.262	2.736	Win2	0.6585	n/a	Yes	2.736	n/a	n/a	GoodResponse	1	0.0	n/a	7	40	ISIslide	Win	True
392.028	0.25	Win2	0.6667000000000001	0.0	Yes	2.772	0.028	n/a	GoodResponse	1	n/a	n/a	8	41	Cue	Win	True
392.278	3.9	Win2	0.6667000000000001	0.0	Yes	2.772	0.0	n/a	GoodResponse	1	n/a	n/a	8	41	Fixation	Win	True
396.176	0.42	Win2	0.6667000000000001	0.002	Yes	2.772	-0.002	2.0	GoodResponse	1	0.352	395.528	8	41	Target	Win	True
396.528	0.3	Win2	0.6667000000000001	0.002	Yes	2.772	-0.002	2.0	GoodResponse	1	0.352	n/a	8	41	ButtonPress	Win	True
396.61	0.28	Win2	0.6667000000000001	n/a	Yes	2.772	n/a	n/a	GoodResponse	1	n/a	n/a	8	41	Blank	Win	True
396.876	1.45	Win2	0.6667000000000001	n/a	Yes	2.772	n/a	5.0	GoodResponse	1	0.027	395.903	8	41	Feedback	Win	True
398.326	2.772	Win2	0.6667000000000001	n/a	Yes	2.772	n/a	n/a	GoodResponse	1	0.0	n/a	8	41	ISIslide	Win	True
401.125	0.25	Control	0.6744	0.0	Yes	2.925	0.025	n/a	GoodResponse	0	n/a	n/a	8	42	Cue	Neutral	False
401.375	3.85	Control	0.6744	0.0	Yes	2.925	0.0	2.0	GoodResponse	0	0.11	400.485	8	42	Fixation	Neutral	False
401.485	0.3	Control	0.6744	0.0	Yes	2.925	0.0	2.0	GoodResponse	0	0.11	n/a	8	42	ButtonPress	Neutral	False
405.223	0.41	Control	0.6744	0.002	Yes	2.925	-0.002	2.0	GoodResponse	0	0.233	404.456	8	42	Target	Neutral	False
405.456	0.3	Control	0.6744	0.002	Yes	2.925	-0.002	2.0	GoodResponse	0	0.233	n/a	8	42	ButtonPress	Neutral	False
405.64	0.29	Control	0.6744	n/a	Yes	2.925	n/a	n/a	GoodResponse	0	n/a	n/a	8	42	Blank	Neutral	False
405.923	1.45	Control	0.6744	n/a	Yes	2.925	n/a	5.0	GoodResponse	0	0.007	404.93	8	42	Feedback	Neutral	False
407.373	2.925	Control	0.6744	n/a	Yes	2.925	n/a	n/a	GoodResponse	0	0.0	n/a	8	42	ISIslide	Neutral	False
410.322	0.25	Win2	0.6818000000000001	0.0	Yes	3.178	0.022	n/a	GoodResponse	1	n/a	n/a	9	43	Cue	Win	True
410.571	4.0	Win2	0.6818000000000001	0.001	Yes	3.178	-0.001	n/a	GoodResponse	1	n/a	n/a	9	43	Fixation	Win	True
414.57	0.4	Win2	0.6818000000000001	0.002	Yes	3.178	-0.002	2.0	GoodResponse	1	0.308	413.878	9	43	Target	Win	True
414.878	0.3	Win2	0.6818000000000001	0.002	Yes	3.178	-0.002	2.0	GoodResponse	1	0.308	n/a	9	43	ButtonPress	Win	True
414.97	0.3	Win2	0.6818000000000001	n/a	Yes	3.178	n/a	n/a	GoodResponse	1	n/a	n/a	9	43	Blank	Win	True
415.27	1.45	Win2	0.6818000000000001	n/a	Yes	3.178	n/a	5.0	GoodResponse	1	0.024	414.294	9	43	Feedback	Win	True
416.719	3.178	Win2	0.6818000000000001	n/a	Yes	3.178	n/a	n/a	GoodResponse	1	0.0	n/a	9	43	ISIslide	Win	True
419.918	0.25	Win2	0.6889	0.0	Yes	2.982	0.018	n/a	GoodResponse	1	n/a	n/a	10	44	Cue	Win	True
420.168	4.0	Win2	0.6889	0.0	Yes	2.982	0.0	n/a	GoodResponse	1	n/a	n/a	10	44	Fixation	Win	True
424.167	0.39	Win2	0.6889	0.001	Yes	2.982	-0.001	2.0	GoodResponse	1	0.33	423.497	10	44	Target	Win	True
424.497	0.3	Win2	0.6889	0.001	Yes	2.982	-0.001	2.0	GoodResponse	1	0.33	n/a	10	44	ButtonPress	Win	True
424.567	0.31	Win2	0.6889	n/a	Yes	2.982	n/a	n/a	GoodResponse	1	n/a	n/a	10	44	Blank	Win	True
424.866	1.45	Win2	0.6889	n/a	Yes	2.982	n/a	5.0	GoodResponse	1	0.037	423.903	10	44	Feedback	Win	True
426.316	2.982	Win2	0.6889	n/a	Yes	2.982	n/a	n/a	GoodResponse	1	0.0	n/a	10	44	ISIslide	Win	True
429.315	0.25	Control	0.6957	0.0	Yes	2.885	0.015	n/a	GoodResponse	0	n/a	n/a	10	45	Cue	Neutral	True
429.565	4.1	Control	0.6957	0.0	Yes	2.885	0.0	n/a	GoodResponse	0	n/a	n/a	10	45	Fixation	Neutral	True
433.663	0.38	Control	0.6957	0.002	Yes	2.885	-0.002	2.0	GoodResponse	0	0.378	433.041	10	45	Target	Neutral	True
434.041	0.3	Control	0.6957	0.002	Yes	2.885	-0.002	2.0	GoodResponse	0	0.378	n/a	10	45	ButtonPress	Neutral	True
434.047	0.32	Control	0.6957	n/a	Yes	2.885	n/a	n/a	GoodResponse	0	n/a	n/a	10	45	Blank	Neutral	True
434.363	1.45	Control	0.6957	n/a	Yes	2.885	n/a	5.0	GoodResponse	0	0.007	433.37	10	45	Feedback	Neutral	True
435.813	2.885	Control	0.6957	n/a	Yes	2.885	n/a	n/a	GoodResponse	0	0.0	n/a	10	45	ISIslide	Neutral	True
438.728	0.25	Lose2	0.7021	0.001	Yes	3.372	0.028	n/a	GoodResponse	0	n/a	n/a	10	46	Cue	AvoidedLoss	True
438.978	4.0	Lose2	0.7021	0.0	Yes	3.372	0.0	n/a	GoodResponse	0	n/a	n/a	10	46	Fixation	AvoidedLoss	True
442.977	0.37	Lose2	0.7021	0.001	Yes	3.372	-0.001	2.0	GoodResponse	0	0.324	442.301	10	46	Target	AvoidedLoss	True
443.301	0.3	Lose2	0.7021	0.001	Yes	3.372	-0.001	2.0	GoodResponse	0	0.324	n/a	10	46	ButtonPress	AvoidedLoss	True
443.343	0.33	Lose2	0.7021	n/a	Yes	3.372	n/a	n/a	GoodResponse	0	n/a	n/a	10	46	Blank	AvoidedLoss	True
443.677	1.45	Lose2	0.7021	n/a	Yes	3.372	n/a	5.0	GoodResponse	0	0.006	442.683	10	46	Feedback	AvoidedLoss	True
445.126	3.372	Lose2	0.7021	n/a	Yes	3.372	n/a	n/a	GoodResponse	0	0.0	n/a	10	46	ISIslide	AvoidedLoss	True
448.525	0.25	Lose2	0.7082999999999999	0.0	Yes	2.675	0.025	n/a	GoodResponse	0	n/a	n/a	10	47	Cue	AvoidedLoss	True
448.775	4.0	Lose2	0.7082999999999999	0.0	Yes	2.675	0.0	n/a	GoodResponse	0	n/a	n/a	10	47	Fixation	AvoidedLoss	True
452.774	0.36	Lose2	0.7082999999999999	0.001	Yes	2.675	-0.001	2.0	GoodResponse	0	0.291	452.065	10	47	Target	AvoidedLoss	True
453.065	0.3	Lose2	0.7082999999999999	0.001	Yes	2.675	-0.001	2.0	GoodResponse	0	0.291	n/a	10	47	ButtonPress	AvoidedLoss	True
453.14	0.34	Lose2	0.7082999999999999	n/a	Yes	2.675	n/a	n/a	GoodResponse	0	n/a	n/a	10	47	Blank	AvoidedLoss	True
453.473	1.45	Lose2	0.7082999999999999	n/a	Yes	2.675	n/a	5.0	GoodResponse	0	0.015	452.488	10	47	Feedback	AvoidedLoss	True
454.923	2.675	Lose2	0.7082999999999999	n/a	Yes	2.675	n/a	n/a	GoodResponse	0	0.0	n/a	10	47	ISIslide	AvoidedLoss	True
457.622	0.25	Lose2	0.7143	0.0	Yes	3.028	0.022	n/a	GoodResponse	0	n/a	n/a	10	48	Cue	AvoidedLoss	True
457.872	3.95	Lose2	0.7143	0.0	Yes	3.028	0.0	n/a	GoodResponse	0	n/a	n/a	10	48	Fixation	AvoidedLoss	True
461.82	0.35	Lose2	0.7143	0.002	Yes	3.028	-0.002	2.0	GoodResponse	0	0.237	461.057	10	48	Target	AvoidedLoss	True
462.057	0.3	Lose2	0.7143	0.002	Yes	3.028	-0.002	2.0	GoodResponse	0	0.237	n/a	10	48	ButtonPress	AvoidedLoss	True
462.17	0.35	Lose2	0.7143	n/a	Yes	3.028	n/a	n/a	GoodResponse	0	n/a	n/a	10	48	Blank	AvoidedLoss	True
462.52	1.45	Lose2	0.7143	n/a	Yes	3.028	n/a	5.0	GoodResponse	0	0.042	461.562	10	48	Feedback	AvoidedLoss	True
463.97	3.028	Lose2	0.7143	n/a	Yes	3.028	n/a	n/a	GoodResponse	0	0.0	n/a	10	48	ISIslide	AvoidedLoss	True
467.019	0.25	Control	0.72	0.0	Yes	2.881	0.019	n/a	GoodResponse	0	n/a	n/a	10	49	Cue	Neutral	True
467.268	4.0	Control	0.72	0.001	Yes	2.881	-0.001	n/a	GoodResponse	0	n/a	n/a	10	49	Fixation	Neutral	True
471.267	0.34	Control	0.72	0.002	Yes	2.881	-0.002	2.0	GoodResponse	0	0.282	470.549	10	49	Target	Neutral	True
471.549	0.3	Control	0.72	0.002	Yes	2.881	-0.002	2.0	GoodResponse	0	0.282	n/a	10	49	ButtonPress	Neutral	True
471.617	0.36	Control	0.72	n/a	Yes	2.881	n/a	n/a	GoodResponse	0	n/a	n/a	10	49	Blank	Neutral	True
471.967	1.45	Control	0.72	n/a	Yes	2.881	n/a	5.0	GoodResponse	0	0.009	470.976	10	49	Feedback	Neutral	True
473.416	2.881	Control	0.72	n/a	Yes	2.881	n/a	n/a	GoodResponse	0	0.0	n/a	10	49	ISIslide	Neutral	True
476.315	0.25	Control	0.7254999999999999	0.0	Yes	2.785	0.015	n/a	GoodResponse	0	n/a	n/a	10	50	Cue	Neutral	True
476.565	4.0	Control	0.7254999999999999	0.0	Yes	2.785	0.0	n/a	GoodResponse	0	n/a	n/a	10	50	Fixation	Neutral	True
480.564	0.33	Control	0.7254999999999999	0.001	Yes	2.785	-0.001	2.0	GoodResponse	0	0.246	479.81	10	50	Target	Neutral	True
480.81	0.3	Control	0.7254999999999999	0.001	Yes	2.785	-0.001	2.0	GoodResponse	0	0.246	n/a	10	50	ButtonPress	Neutral	True
480.897	0.37	Control	0.7254999999999999	n/a	Yes	2.785	n/a	n/a	GoodResponse	0	n/a	n/a	10	50	Blank	Neutral	True
481.264	1.45	Control	0.7254999999999999	n/a	Yes	2.785	n/a	5.0	GoodResponse	0	0.03	480.294	10	50	Feedback	Neutral	True
482.713	2.785	Control	0.7254999999999999	n/a	Yes	2.785	n/a	n/a	GoodResponse	0	0.0	n/a	10	50	ISIslide	Neutral	True
485.529	0.25	Control	0.7308	0.0	Yes	2.721	0.029	n/a	GoodResponse	0	n/a	n/a	10	51	Cue	Neutral	True
485.779	3.95	Control	0.7308	0.0	Yes	2.721	0.0	n/a	GoodResponse	0	n/a	n/a	10	51	Fixation	Neutral	True
489.727	0.32	Control	0.7308	0.002	Yes	2.721	-0.002	2.0	GoodResponse	0	0.252	488.979	10	51	Target	Neutral	True
489.979	0.3	Control	0.7308	0.002	Yes	2.721	-0.002	2.0	GoodResponse	0	0.252	n/a	10	51	ButtonPress	Neutral	True
490.061	0.38	Control	0.7308	n/a	Yes	2.721	n/a	n/a	GoodResponse	0	n/a	n/a	10	51	Blank	Neutral	True
490.427	1.45	Control	0.7308	n/a	Yes	2.721	n/a	5.0	GoodResponse	0	0.036	489.463	10	51	Feedback	Neutral	True
491.877	2.721	Control	0.7308	n/a	Yes	2.721	n/a	n/a	GoodResponse	0	0.0	n/a	10	51	ISIslide	Neutral	True
494.626	0.25	Control	0.7170000000000001	0.0	No	2.624	0.026	n/a	NoResponse	0	n/a	n/a	10	52	Cue	Neutral	True
494.876	4.05	Control	0.7170000000000001	0.0	No	2.624	0.0	n/a	NoResponse	0	n/a	n/a	10	52	Fixation	Neutral	True
498.924	0.31	Control	0.7170000000000001	0.002	No	2.624	-0.002	2.0	NoResponse	0	0.38	498.304	10	52	Target	Neutral	True
499.241	0.39	Control	0.7170000000000001	n/a	No	2.624	n/a	n/a	NoResponse	0	n/a	n/a	10	52	Blank	Neutral	True
499.304	0.3	Control	0.7170000000000001	0.002	No	2.624	-0.002	2.0	NoResponse	0	0.38	n/a	10	52	ButtonPress	Neutral	True
499.624	1.45	Control	0.7170000000000001	n/a	No	2.624	n/a	5.0	NoResponse	0	0.01	498.634	10	52	Feedback	Neutral	True
501.073	2.624	Control	0.7170000000000001	n/a	No	2.624	n/a	n/a	NoResponse	0	0.0	n/a	10	52	ISIslide	Neutral	True
503.723	0.25	Win2	0.7037	0.0	No	2.927	0.023	n/a	NoResponse	0	n/a	n/a	10	53	Cue	MissedWin	True
503.972	4.05	Win2	0.7037	0.001	No	2.927	-0.001	n/a	NoResponse	0	n/a	n/a	10	53	Fixation	MissedWin	True
508.021	0.3	Win2	0.7037	0.002	No	2.927	-0.002	2.0	NoResponse	0	0.412	507.433	10	53	Target	MissedWin	True
508.321	0.4	Win2	0.7037	n/a	No	2.927	n/a	n/a	NoResponse	0	n/a	n/a	10	53	Blank	MissedWin	True
508.433	0.3	Win2	0.7037	0.002	No	2.927	-0.002	2.0	NoResponse	0	0.412	n/a	10	53	ButtonPress	MissedWin	True
508.721	1.45	Win2	0.7037	n/a	No	2.927	n/a	5.0	NoResponse	0	0.035	507.756	10	53	Feedback	MissedWin	True
510.17	2.927	Win2	0.7037	n/a	No	2.927	n/a	n/a	NoResponse	0	0.0	n/a	10	53	ISIslide	MissedWin	True
513.119	0.25	Win2	0.6909000000000001	0.0	No	2.731	0.019	n/a	NoResponse	0	n/a	n/a	10	54	Cue	MissedWin	True
513.369	3.95	Win2	0.6909000000000001	0.0	No	2.731	0.0	n/a	NoResponse	0	n/a	n/a	10	54	Fixation	MissedWin	True
517.318	0.29	Win2	0.6909000000000001	0.001	No	2.731	-0.001	2.0	NoResponse	0	0.438	516.756	10	54	Target	MissedWin	True
517.618	0.41	Win2	0.6909000000000001	n/a	No	2.731	n/a	n/a	NoResponse	0	n/a	n/a	10	54	Blank	MissedWin	True
517.756	0.3	Win2	0.6909000000000001	0.001	No	2.731	-0.001	2.0	NoResponse	0	0.438	n/a	10	54	ButtonPress	MissedWin	True
518.018	1.45	Win2	0.6909000000000001	n/a	No	2.731	n/a	5.0	NoResponse	0	0.007	517.025	10	54	Feedback	MissedWin	True
519.467	2.731	Win2	0.6909000000000001	n/a	No	2.731	n/a	n/a	NoResponse	0	0.0	n/a	10	54	ISIslide	MissedWin	True
522.216	0.25	Control	0.6964	0.0	Yes	3.034	0.016	n/a	GoodResponse	0	n/a	n/a	10	55	Cue	Neutral	True
522.466	3.95	Control	0.6964	0.0	Yes	3.034	0.0	n/a	GoodResponse	0	n/a	n/a	10	55	Fixation	Neutral	True
526.415	0.28	Control	0.6964	0.001	Yes	3.034	-0.001	2.0	GoodResponse	0	0.233	525.648	10	55	Target	Neutral	True
526.648	0.3	Control	0.6964	0.001	Yes	3.034	-0.001	2.0	GoodResponse	0	0.233	n/a	10	55	ButtonPress	Neutral	True
526.698	0.42	Control	0.6964	n/a	Yes	3.034	n/a	n/a	GoodResponse	0	n/a	n/a	10	55	Blank	Neutral	True
527.114	1.45	Control	0.6964	n/a	Yes	3.034	n/a	5.0	GoodResponse	0	0.033	526.147	10	55	Feedback	Neutral	True
528.564	3.034	Control	0.6964	n/a	Yes	3.034	n/a	n/a	GoodResponse	0	0.0	n/a	10	55	ISIslide	Neutral	True
531.63	0.25	Control	0.7018000000000001	0.0	Yes	2.82	0.03	n/a	GoodResponse	0	n/a	n/a	10	56	Cue	Neutral	True
531.879	3.95	Control	0.7018000000000001	0.001	Yes	2.82	-0.001	n/a	GoodResponse	0	n/a	n/a	10	56	Fixation	Neutral	True
535.828	0.27	Control	0.7018000000000001	0.002	Yes	2.82	-0.002	2.0	GoodResponse	0	0.209	535.037	10	56	Target	Neutral	True
536.037	0.3	Control	0.7018000000000001	0.002	Yes	2.82	-0.002	2.0	GoodResponse	0	0.209	n/a	10	56	ButtonPress	Neutral	True
536.111	0.43	Control	0.7018000000000001	n/a	Yes	2.82	n/a	n/a	GoodResponse	0	n/a	n/a	10	56	Blank	Neutral	True
536.528	1.45	Control	0.7018000000000001	n/a	Yes	2.82	n/a	5.0	GoodResponse	0	0.034	535.562	10	56	Feedback	Neutral	True
537.977	2.82	Control	0.7018000000000001	n/a	Yes	2.82	n/a	n/a	GoodResponse	0	0.0	n/a	10	56	ISIslide	Neutral	True
540.826	0.25	Control	0.7069	0.0	Yes	3.474	0.026	n/a	GoodResponse	0	n/a	n/a	10	57	Cue	Neutral	True
541.076	4.0	Control	0.7069	0.0	Yes	3.474	0.0	n/a	GoodResponse	0	n/a	n/a	10	57	Fixation	Neutral	True
545.075	0.26	Control	0.7069	0.001	Yes	3.474	-0.001	2.0	GoodResponse	0	0.247	544.322	10	57	Target	Neutral	True
545.322	0.3	Control	0.7069	0.001	Yes	3.474	-0.001	2.0	GoodResponse	0	0.247	n/a	10	57	ButtonPress	Neutral	True
545.341	0.44	Control	0.7069	n/a	Yes	3.474	n/a	n/a	GoodResponse	0	n/a	n/a	10	57	Blank	Neutral	True
545.775	1.45	Control	0.7069	n/a	Yes	3.474	n/a	5.0	GoodResponse	0	0.006	544.781	10	57	Feedback	Neutral	True
547.224	3.474	Control	0.7069	n/a	Yes	3.474	n/a	n/a	GoodResponse	0	0.0	n/a	10	57	ISIslide	Neutral	True
550.723	0.25	Win2	0.7119	0.0	Yes	2.727	0.023	n/a	GoodResponse	1	n/a	n/a	11	58	Cue	Win	True
550.973	4.05	Win2	0.7119	0.0	Yes	2.727	0.0	n/a	GoodResponse	1	n/a	n/a	11	58	Fixation	Win	True
555.021	0.25	Win2	0.7119	0.002	Yes	2.727	-0.002	2.0	GoodResponse	1	0.238	554.259	11	58	Target	Win	True
555.259	0.3	Win2	0.7119	0.002	Yes	2.727	-0.002	2.0	GoodResponse	1	0.238	n/a	11	58	ButtonPress	Win	True
555.271	0.45	Win2	0.7119	n/a	Yes	2.727	n/a	n/a	GoodResponse	1	n/a	n/a	11	58	Blank	Win	True
555.721	1.45	Win2	0.7119	n/a	Yes	2.727	n/a	5.0	GoodResponse	1	0.011	554.732	11	58	Feedback	Win	True
557.171	2.727	Win2	0.7119	n/a	Yes	2.727	n/a	n/a	GoodResponse	1	0.0	n/a	11	58	ISIslide	Win	True
559.92	0.25	Lose2	0.7	0.0	No	2.68	0.02	n/a	NoResponse	-1	n/a	n/a	10	59	Cue	Loss	True
560.17	4.0	Lose2	0.7	0.0	No	2.68	0.0	n/a	NoResponse	-1	n/a	n/a	10	59	Fixation	Loss	True
564.168	0.24	Lose2	0.7	0.002	No	2.68	-0.002	2.0	NoResponse	-1	0.275	563.443	10	59	Target	Loss	True
564.418	0.46	Lose2	0.7	n/a	No	2.68	n/a	n/a	NoResponse	-1	n/a	n/a	10	59	Blank	Loss	True
564.443	0.3	Lose2	0.7	0.002	No	2.68	-0.002	2.0	NoResponse	-1	0.275	n/a	10	59	ButtonPress	Loss	True
564.868	1.45	Lose2	0.7	n/a	No	2.68	n/a	5.0	NoResponse	-1	0.034	563.902	10	59	Feedback	Loss	True
566.318	2.68	Lose2	0.7	n/a	No	2.68	n/a	n/a	NoResponse	-1	0.0	n/a	10	59	ISIslide	Loss	True
569.017	0.25	Control	0.6884999999999999	0.0	No	2.683	0.017	n/a	NoResponse	0	n/a	n/a	10	60	Cue	Neutral	True
569.267	4.0	Control	0.6884999999999999	0.0	No	2.683	0.0	n/a	NoResponse	0	n/a	n/a	10	60	Fixation	Neutral	True
573.265	0.23	Control	0.6884999999999999	0.002	No	2.683	-0.002	2.0	NoResponse	0	0.263	572.528	10	60	Target	Neutral	True
573.498	0.47	Control	0.6884999999999999	n/a	No	2.683	n/a	n/a	NoResponse	0	n/a	n/a	10	60	Blank	Neutral	True
573.528	0.3	Control	0.6884999999999999	0.002	No	2.683	-0.002	2.0	NoResponse	0	0.263	n/a	10	60	ButtonPress	Neutral	True
573.965	1.45	Control	0.6884999999999999	n/a	No	2.683	n/a	5.0	NoResponse	0	0.011	572.976	10	60	Feedback	Neutral	True
575.414	2.683	Control	0.6884999999999999	n/a	No	2.683	n/a	n/a	NoResponse	0	0.0	n/a	10	60	ISIslide	Neutral	True
578.13	0.25	Lose2	0.6774	0.0	No	2.97	0.03	n/a	NoResponse	-1	n/a	n/a	9	61	Cue	Loss	True
578.38	4.0	Lose2	0.6774	0.0	No	2.97	0.0	n/a	NoResponse	-1	n/a	n/a	9	61	Fixation	Loss	True
582.379	0.22	Lose2	0.6774	0.001	No	2.97	-0.001	2.0	NoResponse	-1	0.249	581.628	9	61	Target	Loss	True
582.612	0.48	Lose2	0.6774	n/a	No	2.97	n/a	n/a	NoResponse	-1	n/a	n/a	9	61	Blank	Loss	True
582.628	0.3	Lose2	0.6774	0.001	No	2.97	-0.001	2.0	NoResponse	-1	0.249	n/a	9	61	ButtonPress	Loss	True
583.078	1.45	Lose2	0.6774	n/a	No	2.97	n/a	5.0	NoResponse	-1	0.02	582.098	9	61	Feedback	Loss	True
584.528	2.97	Lose2	0.6774	n/a	No	2.97	n/a	n/a	NoResponse	-1	0.0	n/a	9	61	ISIslide	Loss	True
587.527	0.25	Lose2	0.6667000000000001	0.0	No	2.873	0.027	n/a	NoResponse	-1	n/a	n/a	8	62	Cue	Loss	True
587.777	3.9	Lose2	0.6667000000000001	0.0	No	2.873	0.0	n/a	NoResponse	-1	n/a	n/a	8	62	Fixation	Loss	True
591.675	0.21	Lose2	0.6667000000000001	0.002	No	2.873	-0.002	2.0	NoResponse	-1	0.473	591.148	8	62	Target	Loss	True
591.892	0.49	Lose2	0.6667000000000001	n/a	No	2.873	n/a	n/a	NoResponse	-1	n/a	n/a	8	62	Blank	Loss	True
592.148	0.3	Lose2	0.6667000000000001	0.002	No	2.873	-0.002	2.0	NoResponse	-1	0.473	n/a	8	62	ButtonPress	Loss	True
592.375	1.45	Lose2	0.6667000000000001	n/a	No	2.873	n/a	5.0	NoResponse	-1	0.04	591.415	8	62	Feedback	Loss	True
593.825	2.873	Lose2	0.6667000000000001	n/a	No	2.873	n/a	n/a	NoResponse	-1	0.0	n/a	8	62	ISIslide	Loss	True
596.724	0.25	Lose2	0.6562	0.0	No	2.626	0.024	n/a	NoResponse	-1	n/a	n/a	7	63	Cue	Loss	True
596.974	4.05	Lose2	0.6562	0.0	No	2.626	0.0	n/a	NoResponse	-1	n/a	n/a	7	63	Fixation	Loss	True
601.022	0.2	Lose2	0.6562	0.002	No	2.626	-0.002	2.0	NoResponse	-1	0.308	600.33	7	63	Target	Loss	True
601.222	0.5	Lose2	0.6562	n/a	No	2.626	n/a	n/a	NoResponse	-1	n/a	n/a	7	63	Blank	Loss	True
601.33	0.3	Lose2	0.6562	0.002	No	2.626	-0.002	2.0	NoResponse	-1	0.308	n/a	7	63	ButtonPress	Loss	True
601.722	1.45	Lose2	0.6562	n/a	No	2.626	n/a	5.0	NoResponse	-1	0.009	600.731	7	63	Feedback	Loss	True
603.172	2.626	Lose2	0.6562	n/a	No	2.626	n/a	n/a	NoResponse	-1	0.0	n/a	7	63	ISIslide	Loss	True
605.821	0.25	Win2	0.6462	0.0	No	3.129	0.021	n/a	NoResponse	0	n/a	n/a	7	64	Cue	MissedWin	True
606.07	4.15	Win2	0.6462	0.001	No	3.129	-0.001	n/a	NoResponse	0	n/a	n/a	7	64	Fixation	MissedWin	True
610.219	0.2	Win2	0.6462	0.002	No	3.129	-0.002	2.0	NoResponse	0	0.273	609.492	7	64	Target	MissedWin	True
610.419	0.5	Win2	0.6462	n/a	No	3.129	n/a	n/a	NoResponse	0	n/a	n/a	7	64	Blank	MissedWin	True
610.492	0.3	Win2	0.6462	0.002	No	3.129	-0.002	2.0	NoResponse	0	0.273	n/a	7	64	ButtonPress	MissedWin	True
610.919	1.45	Win2	0.6462	n/a	No	3.129	n/a	5.0	NoResponse	0	0.032	609.951	7	64	Feedback	MissedWin	True
612.368	3.129	Win2	0.6462	n/a	No	3.129	n/a	n/a	NoResponse	0	0.0	n/a	7	64	ISIslide	MissedWin	True
615.517	0.25	Control	0.6515000000000001	0.0	Yes	2.783	0.017	n/a	GoodResponse	0	n/a	n/a	7	65	Cue	Neutral	True
615.767	4.0	Control	0.6515000000000001	0.0	Yes	2.783	0.0	n/a	GoodResponse	0	n/a	n/a	7	65	Fixation	Neutral	True
619.766	0.21	Control	0.6515000000000001	0.001	Yes	2.783	-0.001	2.0	GoodResponse	0	0.199	618.965	7	65	Target	Neutral	True
619.965	0.3	Control	0.6515000000000001	0.001	Yes	2.783	-0.001	2.0	GoodResponse	0	0.199	n/a	7	65	ButtonPress	Neutral	True
619.982	0.49	Control	0.6515000000000001	n/a	Yes	2.783	n/a	n/a	GoodResponse	0	n/a	n/a	7	65	Blank	Neutral	True
620.466	1.45	Control	0.6515000000000001	n/a	Yes	2.783	n/a	5.0	GoodResponse	0	0.046	619.512	7	65	Feedback	Neutral	True
621.915	2.783	Control	0.6515000000000001	n/a	Yes	2.783	n/a	n/a	GoodResponse	0	0.0	n/a	7	65	ISIslide	Neutral	True
624.714	0.25	Win2	0.6418	0.0	No	2.786	0.014	n/a	NoResponse	0	n/a	n/a	7	66	Cue	MissedWin	True
624.964	3.9	Win2	0.6418	0.0	No	2.786	0.0	n/a	NoResponse	0	n/a	n/a	7	66	Fixation	MissedWin	True
628.863	0.22	Win2	0.6418	0.001	No	2.786	-0.001	2.0	NoResponse	0	0.246	628.109	7	66	Target	MissedWin	True
629.096	0.48	Win2	0.6418	n/a	No	2.786	n/a	n/a	NoResponse	0	n/a	n/a	7	66	Blank	MissedWin	True
629.109	0.3	Win2	0.6418	0.001	No	2.786	-0.001	2.0	NoResponse	0	0.246	n/a	7	66	ButtonPress	MissedWin	True
629.562	1.45	Win2	0.6418	n/a	No	2.786	n/a	5.0	NoResponse	0	0.023	628.585	7	66	Feedback	MissedWin	True
631.012	2.786	Win2	0.6418	n/a	No	2.786	n/a	n/a	NoResponse	0	0.0	n/a	7	66	ISIslide	MissedWin	True
633.828	0.25	Control	0.6324000000000001	0.0	No	2.722	0.028	n/a	NoResponse	0	n/a	n/a	7	67	Cue	Neutral	True
634.077	3.95	Control	0.6324000000000001	0.001	No	2.722	-0.001	n/a	NoResponse	0	n/a	n/a	7	67	Fixation	Neutral	True
638.026	0.23	Control	0.6324000000000001	0.002	No	2.722	-0.002	2.0	NoResponse	0	0.281	637.307	7	67	Target	Neutral	True
638.259	0.47	Control	0.6324000000000001	n/a	No	2.722	n/a	n/a	NoResponse	0	n/a	n/a	7	67	Blank	Neutral	True
638.307	0.3	Control	0.6324000000000001	0.002	No	2.722	-0.002	2.0	NoResponse	0	0.281	n/a	7	67	ButtonPress	Neutral	True
638.726	1.45	Control	0.6324000000000001	n/a	No	2.722	n/a	5.0	NoResponse	0	0.03	637.756	7	67	Feedback	Neutral	True
640.175	2.722	Control	0.6324000000000001	n/a	No	2.722	n/a	n/a	NoResponse	0	0.0	n/a	7	67	ISIslide	Neutral	True
642.924	0.25	Win2	0.6232	0.001	No	3.076	0.024	n/a	NoResponse	0	n/a	n/a	7	68	Cue	MissedWin	True
643.174	4.0	Win2	0.6232	0.0	No	3.076	0.0	n/a	NoResponse	0	n/a	n/a	7	68	Fixation	MissedWin	True
647.173	0.24	Win2	0.6232	0.001	No	3.076	-0.001	2.0	NoResponse	0	0.285	646.458	7	68	Target	MissedWin	True
647.423	0.46	Win2	0.6232	n/a	No	3.076	n/a	n/a	NoResponse	0	n/a	n/a	7	68	Blank	MissedWin	True
647.458	0.3	Win2	0.6232	0.001	No	3.076	-0.001	2.0	NoResponse	0	0.285	n/a	7	68	ButtonPress	MissedWin	True
647.873	1.45	Win2	0.6232	n/a	No	3.076	n/a	5.0	NoResponse	0	0.006	646.879	7	68	Feedback	MissedWin	True
649.322	3.076	Win2	0.6232	n/a	No	3.076	n/a	n/a	NoResponse	0	0.0	n/a	7	68	ISIslide	MissedWin	True
652.421	0.25	Win2	0.6286	0.0	Yes	3.229	0.021	n/a	GoodResponse	1	n/a	n/a	8	69	Cue	Win	True
652.671	3.95	Win2	0.6286	0.0	Yes	3.229	0.0	n/a	GoodResponse	1	n/a	n/a	8	69	Fixation	Win	True
656.62	0.25	Win2	0.6286	0.001	Yes	3.229	-0.001	2.0	GoodResponse	1	0.229	655.849	8	69	Target	Win	True
656.849	0.3	Win2	0.6286	0.001	Yes	3.229	-0.001	2.0	GoodResponse	1	0.229	n/a	8	69	ButtonPress	Win	True
656.87	0.45	Win2	0.6286	n/a	Yes	3.229	n/a	n/a	GoodResponse	1	n/a	n/a	8	69	Blank	Win	True
657.319	1.45	Win2	0.6286	n/a	Yes	3.229	n/a	5.0	GoodResponse	1	0.023	656.342	8	69	Feedback	Win	True
658.769	3.229	Win2	0.6286	n/a	Yes	3.229	n/a	n/a	GoodResponse	1	0.0	n/a	8	69	ISIslide	Win	True
662.018	0.25	Lose2	0.6197	0.0	No	3.032	0.018	n/a	NoResponse	-1	n/a	n/a	7	70	Cue	Loss	True
662.268	4.05	Lose2	0.6197	0.0	No	3.032	0.0	n/a	NoResponse	-1	n/a	n/a	7	70	Fixation	Loss	True
666.316	0.26	Lose2	0.6197	0.002	No	3.032	-0.002	2.0	NoResponse	-1	0.267	665.583	7	70	Target	Loss	True
666.583	0.44	Lose2	0.6197	n/a	No	3.032	n/a	n/a	NoResponse	-1	n/a	n/a	7	70	Blank	Loss	True
666.583	0.3	Lose2	0.6197	0.002	No	3.032	-0.002	2.0	NoResponse	-1	0.267	n/a	7	70	ButtonPress	Loss	True
667.016	1.45	Lose2	0.6197	n/a	No	3.032	n/a	5.0	NoResponse	-1	0.032	666.048	7	70	Feedback	Loss	True
668.466	3.032	Lose2	0.6197	n/a	No	3.032	n/a	n/a	NoResponse	-1	0.0	n/a	7	70	ISIslide	Loss	True
671.515	0.25	Win2	0.6111	0.0	No	2.735	0.015	n/a	NoResponse	0	n/a	n/a	7	71	Cue	MissedWin	False
671.764	4.05	Win2	0.6111	0.001	No	2.735	-0.001	n/a	NoResponse	0	n/a	n/a	7	71	Fixation	MissedWin	False
675.813	0.27	Win2	0.6111	0.002	No	2.735	-0.002	n/a	NoResponse	0	n/a	n/a	7	71	Target	MissedWin	False
676.096	0.43	Win2	0.6111	n/a	No	2.735	n/a	n/a	NoResponse	0	n/a	n/a	7	71	Blank	MissedWin	False
676.513	1.45	Win2	0.6111	n/a	No	2.735	n/a	5.0	NoResponse	0	0.047	675.56	7	71	Feedback	MissedWin	False
677.962	2.735	Win2	0.6111	n/a	No	2.735	n/a	n/a	NoResponse	0	0.0	n/a	7	71	ISIslide	MissedWin	False
680.728	0.25	Win2	0.6164000000000001	0.0	Yes	2.772	0.028	n/a	GoodResponse	1	n/a	n/a	8	72	Cue	Win	True
680.978	4.1	Win2	0.6164000000000001	0.0	Yes	2.772	0.0	n/a	GoodResponse	1	n/a	n/a	8	72	Fixation	Win	True
685.077	0.28	Win2	0.6164000000000001	0.001	Yes	2.772	-0.001	2.0	GoodResponse	1	0.252	684.329	8	72	Target	Win	True
685.329	0.3	Win2	0.6164000000000001	0.001	Yes	2.772	-0.001	2.0	GoodResponse	1	0.252	n/a	8	72	ButtonPress	Win	True
685.36	0.42	Win2	0.6164000000000001	n/a	Yes	2.772	n/a	n/a	GoodResponse	1	n/a	n/a	8	72	Blank	Win	True
685.776	1.45	Win2	0.6164000000000001	n/a	Yes	2.772	n/a	5.0	GoodResponse	1	0.004	684.78	8	72	Feedback	Win	True
687.226	2.772	Win2	0.6164000000000001	n/a	Yes	2.772	n/a	n/a	GoodResponse	1	0.0	n/a	8	72	ISIslide	Win	True
690.025	0.25	Win2	0.6081	0.0	No	2.675	0.025	n/a	NoResponse	0	n/a	n/a	8	73	Cue	MissedWin	True
690.275	4.0	Win2	0.6081	0.0	No	2.675	0.0	n/a	NoResponse	0	n/a	n/a	8	73	Fixation	MissedWin	True
694.273	0.29	Win2	0.6081	0.002	No	2.675	-0.002	2.0	NoResponse	0	0.342	693.615	8	73	Target	MissedWin	True
694.573	0.41	Win2	0.6081	n/a	No	2.675	n/a	n/a	NoResponse	0	n/a	n/a	8	73	Blank	MissedWin	True
694.615	0.3	Win2	0.6081	0.002	No	2.675	-0.002	2.0	NoResponse	0	0.342	n/a	8	73	ButtonPress	MissedWin	True
694.973	1.45	Win2	0.6081	n/a	No	2.675	n/a	5.0	NoResponse	0	0.027	694.0	8	73	Feedback	MissedWin	True
696.423	2.675	Win2	0.6081	n/a	No	2.675	n/a	n/a	NoResponse	0	0.0	n/a	8	73	ISIslide	MissedWin	True
699.122	0.25	Lose2	0.6	0.0	No	2.628	0.022	n/a	NoResponse	-1	n/a	n/a	7	74	Cue	Loss	True
699.372	4.05	Lose2	0.6	0.0	No	2.628	0.0	n/a	NoResponse	-1	n/a	n/a	7	74	Fixation	Loss	True
703.42	0.3	Lose2	0.6	0.002	No	2.628	-0.002	2.0	NoResponse	-1	0.375	702.795	7	74	Target	Loss	True
703.72	0.4	Lose2	0.6	n/a	No	2.628	n/a	n/a	NoResponse	-1	n/a	n/a	7	74	Blank	Loss	True
703.795	0.3	Lose2	0.6	0.002	No	2.628	-0.002	2.0	NoResponse	-1	0.375	n/a	7	74	ButtonPress	Loss	True
704.12	1.45	Lose2	0.6	n/a	No	2.628	n/a	5.0	NoResponse	-1	0.002	703.122	7	74	Feedback	Loss	True
705.569	2.628	Lose2	0.6	n/a	No	2.628	n/a	n/a	NoResponse	-1	0.0	n/a	7	74	ISIslide	Loss	True
708.219	0.25	Lose2	0.6053000000000001	0.0	Yes	2.931	0.019	n/a	GoodResponse	0	n/a	n/a	7	75	Cue	AvoidedLoss	True
708.468	3.95	Lose2	0.6053000000000001	0.001	Yes	2.931	-0.001	n/a	GoodResponse	0	n/a	n/a	7	75	Fixation	AvoidedLoss	True
712.417	0.31	Lose2	0.6053000000000001	0.002	Yes	2.931	-0.002	2.0	GoodResponse	0	0.214	711.631	7	75	Target	AvoidedLoss	True
712.631	0.3	Lose2	0.6053000000000001	0.002	Yes	2.931	-0.002	2.0	GoodResponse	0	0.214	n/a	7	75	ButtonPress	AvoidedLoss	True
712.734	0.39	Lose2	0.6053000000000001	n/a	Yes	2.931	n/a	n/a	GoodResponse	0	n/a	n/a	7	75	Blank	AvoidedLoss	True
713.117	1.45	Lose2	0.6053000000000001	n/a	Yes	2.931	n/a	5.0	GoodResponse	0	0.029	712.146	7	75	Feedback	AvoidedLoss	True
714.566	2.931	Lose2	0.6053000000000001	n/a	Yes	2.931	n/a	n/a	GoodResponse	0	0.0	n/a	7	75	ISIslide	AvoidedLoss	True
717.515	0.25	Control	0.6103999999999999	0.0	Yes	3.235	0.015	n/a	GoodResponse	0	n/a	n/a	7	76	Cue	Neutral	True
717.765	4.05	Control	0.6103999999999999	0.0	Yes	3.235	0.0	n/a	GoodResponse	0	n/a	n/a	7	76	Fixation	Neutral	True
721.814	0.32	Control	0.6103999999999999	0.001	Yes	3.235	-0.001	2.0	GoodResponse	0	0.231	721.045	7	76	Target	Neutral	True
722.045	0.3	Control	0.6103999999999999	0.001	Yes	3.235	-0.001	2.0	GoodResponse	0	0.231	n/a	7	76	ButtonPress	Neutral	True
722.147	0.38	Control	0.6103999999999999	n/a	Yes	3.235	n/a	n/a	GoodResponse	0	n/a	n/a	7	76	Blank	Neutral	True
722.514	1.45	Control	0.6103999999999999	n/a	Yes	3.235	n/a	5.0	GoodResponse	0	0.046	721.56	7	76	Feedback	Neutral	True
723.963	3.235	Control	0.6103999999999999	n/a	Yes	3.235	n/a	n/a	GoodResponse	0	0.0	n/a	7	76	ISIslide	Neutral	True
727.212	0.25	Lose2	0.6154	0.0	Yes	2.588	0.012	n/a	GoodResponse	0	n/a	n/a	7	77	Cue	AvoidedLoss	False
727.462	3.95	Lose2	0.6154	0.0	Yes	2.588	0.0	2.0	GoodResponse	0	0.056	726.518	7	77	Fixation	AvoidedLoss	False
727.518	0.3	Lose2	0.6154	0.0	Yes	2.588	0.0	2.0	GoodResponse	0	0.056	n/a	7	77	ButtonPress	AvoidedLoss	False
731.41	0.33	Lose2	0.6154	0.002	Yes	2.588	-0.002	2.0	GoodResponse	0	0.205	730.615	7	77	Target	AvoidedLoss	False
731.615	0.3	Lose2	0.6154	0.002	Yes	2.588	-0.002	2.0	GoodResponse	0	0.205	n/a	7	77	ButtonPress	AvoidedLoss	False
731.744	0.37	Lose2	0.6154	n/a	Yes	2.588	n/a	n/a	GoodResponse	0	n/a	n/a	7	77	Blank	AvoidedLoss	False
732.11	1.45	Lose2	0.6154	n/a	Yes	2.588	n/a	5.0	GoodResponse	0	0.011	731.121	7	77	Feedback	AvoidedLoss	False
733.56	2.588	Lose2	0.6154	n/a	Yes	2.588	n/a	n/a	GoodResponse	0	0.0	n/a	7	77	ISIslide	AvoidedLoss	False
