onset	duration	cue_type	current_mean_accuracy	duration_error	is_hit	isi_adjusted	onset_delay	response	response_type	reward	rt	rt_time	total_reward	trial_number	trial_phase	trial_type	one_press
11.105	0.25	Control	1.0	0.0	Yes	2.945	0.005	n/a	GoodResponse	0	n/a	n/a	0	0	Cue	Neutral	True
11.356	3.85	Control	1.0	0.0	Yes	2.945	0.001	n/a	GoodResponse	0	n/a	n/a	0	0	Fixation	Neutral	True
15.201	0.4	Control	1.0	0.004	Yes	2.945	-0.004	2.0	GoodResponse	0	0.214	14.415	0	0	Target	Neutral	True
15.415	0.3	Control	1.0	0.004	Yes	2.945	-0.004	2.0	GoodResponse	0	0.214	n/a	0	0	ButtonPress	Neutral	True
15.602	0.3	Control	1.0	n/a	Yes	2.945	n/a	n/a	GoodResponse	0	n/a	n/a	0	0	Blank	Neutral	True
15.903	1.45	Control	1.0	n/a	Yes	2.945	n/a	5.0	GoodResponse	0	0.024	14.927	0	0	Feedback	Neutral	True
17.357	2.945	Control	1.0	n/a	Yes	2.945	n/a	n/a	GoodResponse	0	0.0	n/a	0	0	ISIslide	Neutral	True
20.316	0.25	Lose2	1.0	0.0	Yes	2.784	0.016	n/a	GoodResponse	0	n/a	n/a	0	1	Cue	AvoidedLoss	True
20.567	4.0	Lose2	1.0	0.0	Yes	2.784	0.001	n/a	GoodResponse	0	n/a	n/a	0	1	Fixation	AvoidedLoss	True
24.562	0.39	Lose2	1.0	0.004	Yes	2.784	-0.004	2.0	GoodResponse	0	0.183	23.745	0	1	Target	AvoidedLoss	True
24.745	0.3	Lose2	1.0	0.004	Yes	2.784	-0.004	2.0	GoodResponse	0	0.183	n/a	0	1	ButtonPress	AvoidedLoss	True
24.963	0.31	Lose2	1.0	n/a	Yes	2.784	n/a	n/a	GoodResponse	0	n/a	n/a	0	1	Blank	AvoidedLoss	True
25.264	1.45	Lose2	1.0	n/a	Yes	2.784	n/a	5.0	GoodResponse	0	0.028	24.292	0	1	Feedback	AvoidedLoss	True
26.719	2.784	Lose2	1.0	n/a	Yes	2.784	n/a	n/a	GoodResponse	0	0.0	n/a	0	1	ISIslide	AvoidedLoss	True
29.527	0.25	Control	0.6667000000000001	0.0	No	2.573	0.027	n/a	NoResponse	0	n/a	n/a	0	2	Cue	Neutral	True
29.778	4.1	Control	0.6667000000000001	0.0	No	2.573	0.001	2.0	NoResponse	0	3.878	32.656	0	2	Fixation	Neutral	True
33.656	0.3	Control	0.6667000000000001	0.0	No	2.573	0.001	2.0	NoResponse	0	3.878	n/a	0	2	ButtonPress	Neutral	True
33.873	0.38	Control	0.6667000000000001	0.004	No	2.573	-0.004	n/a	NoResponse	0	n/a	n/a	0	2	Target	Neutral	True
34.258	0.32	Control	0.6667000000000001	n/a	No	2.573	n/a	n/a	NoResponse	0	n/a	n/a	0	2	Blank	Neutral	True
34.576	1.45	Control	0.6667000000000001	n/a	No	2.573	n/a	5.0	NoResponse	0	0.033	33.609	0	2	Feedback	Neutral	True
36.03	2.573	Control	0.6667000000000001	n/a	No	2.573	n/a	n/a	NoResponse	0	0.0	n/a	0	2	ISIslide	Neutral	True
38.621	0.25	Win2	0.75	0.0	Yes	2.829	0.021	n/a	GoodResponse	1	n/a	n/a	1	3	Cue	Win	True
38.872	3.95	Win2	0.75	0.0	Yes	2.829	0.001	n/a	GoodResponse	1	n/a	n/a	1	3	Fixation	Win	True
42.817	0.37	Win2	0.75	0.004	Yes	2.829	-0.004	2.0	GoodResponse	1	0.238	42.055	1	3	Target	Win	True
43.055	0.3	Win2	0.75	0.004	Yes	2.829	-0.004	2.0	GoodResponse	1	0.238	n/a	1	3	ButtonPress	Win	True
43.201	0.33	Win2	0.75	n/a	Yes	2.829	n/a	n/a	GoodResponse	1	n/a	n/a	1	3	Blank	Win	True
43.519	1.45	Win2	0.75	n/a	Yes	2.829	n/a	5.0	GoodResponse	1	0.017	42.536	1	3	Feedback	Win	True
44.973	2.829	Win2	0.75	n/a	Yes	2.829	n/a	n/a	GoodResponse	1	0.0	n/a	1	3	ISIslide	Win	True
47.815	0.25	Win2	0.8	0.0	Yes	3.285	0.015	n/a	GoodResponse	1	n/a	n/a	2	4	Cue	Win	True
48.066	4.0	Win2	0.8	0.0	Yes	3.285	0.001	n/a	GoodResponse	1	n/a	n/a	2	4	Fixation	Win	True
52.061	0.36	Win2	0.8	0.004	Yes	3.285	-0.004	2.0	GoodResponse	1	0.218	51.279	2	4	Target	Win	True
52.279	0.3	Win2	0.8	0.004	Yes	3.285	-0.004	2.0	GoodResponse	1	0.218	n/a	2	4	ButtonPress	Win	True
52.429	0.34	Win2	0.8	n/a	Yes	3.285	n/a	n/a	GoodResponse	1	n/a	n/a	2	4	Blank	Win	True
52.763	1.45	Win2	0.8	n/a	Yes	3.285	n/a	5.0	GoodResponse	1	0.041	51.804	2	4	Feedback	Win	True
54.218	3.285	Win2	0.8	n/a	Yes	3.285	n/a	n/a	GoodResponse	1	0.0	n/a	2	4	ISIslide	Win	True
57.528	0.25	Win2	0.8332999999999999	0.0	Yes	2.772	0.028	n/a	GoodResponse	1	n/a	n/a	3	5	Cue	Win	True
57.778	4.0	Win2	0.8332999999999999	0.0	Yes	2.772	0.0	n/a	GoodResponse	1	n/a	n/a	3	5	Fixation	Win	True
61.774	0.35	Win2	0.8332999999999999	0.004	Yes	2.772	-0.004	2.0	GoodResponse	1	0.226	61.0	3	5	Target	Win	True
62	0.3	Win2	0.8332999999999999	0.004	Yes	2.772	-0.004	2.0	GoodResponse	1	0.226	n/a	3	5	ButtonPress	Win	True
62.125	0.35	Win2	0.8332999999999999	n/a	Yes	2.772	n/a	n/a	GoodResponse	1	n/a	n/a	3	5	Blank	Win	True
62.476	1.45	Win2	0.8332999999999999	n/a	Yes	2.772	n/a	5.0	GoodResponse	1	0.036	61.512	3	5	Feedback	Win	True
63.93	2.772	Win2	0.8332999999999999	n/a	Yes	2.772	n/a	n/a	GoodResponse	1	0.0	n/a	3	5	ISIslide	Win	True
66.722	0.25	Lose2	0.8571	0.0	Yes	2.728	0.022	n/a	GoodResponse	0	n/a	n/a	3	6	Cue	AvoidedLoss	True
66.973	3.95	Lose2	0.8571	0.0	Yes	2.728	0.001	n/a	GoodResponse	0	n/a	n/a	3	6	Fixation	AvoidedLoss	True
70.918	0.34	Lose2	0.8571	0.004	Yes	2.728	-0.004	2.0	GoodResponse	0	0.224	70.142	3	6	Target	AvoidedLoss	True
71.142	0.3	Lose2	0.8571	0.004	Yes	2.728	-0.004	2.0	GoodResponse	0	0.224	n/a	3	6	ButtonPress	AvoidedLoss	True
71.269	0.36	Lose2	0.8571	n/a	Yes	2.728	n/a	n/a	GoodResponse	0	n/a	n/a	3	6	Blank	AvoidedLoss	True
71.62	1.45	Lose2	0.8571	n/a	Yes	2.728	n/a	5.0	GoodResponse	0	0.014	70.634	3	6	Feedback	AvoidedLoss	True
73.074	2.728	Lose2	0.8571	n/a	Yes	2.728	n/a	n/a	GoodResponse	0	0.0	n/a	3	6	ISIslide	AvoidedLoss	True
75.816	0.25	Lose2	0.875	0.0	Yes	4.034	0.016	n/a	GoodResponse	0	n/a	n/a	3	7	Cue	AvoidedLoss	True
76.066	4.05	Lose2	0.875	0.001	Yes	4.034	0.0	n/a	GoodResponse	0	n/a	n/a	3	7	Fixation	AvoidedLoss	True
80.112	0.33	Lose2	0.875	0.004	Yes	4.034	-0.004	2.0	GoodResponse	0	0.233	79.345	3	7	Target	AvoidedLoss	True
80.345	0.3	Lose2	0.875	0.004	Yes	4.034	-0.004	2.0	GoodResponse	0	0.233	n/a	3	7	ButtonPress	AvoidedLoss	True
80.446	0.37	Lose2	0.875	n/a	Yes	4.034	n/a	n/a	GoodResponse	0	n/a	n/a	3	7	Blank	AvoidedLoss	True
80.814	1.45	Lose2	0.875	n/a	Yes	4.034	n/a	5.0	GoodResponse	0	0.038	79.852	3	7	Feedback	AvoidedLoss	True
82.268	4.034	Lose2	0.875	n/a	Yes	4.034	n/a	n/a	GoodResponse	0	0.0	n/a	3	7	ISIslide	AvoidedLoss	True
86.331	0.25	Lose2	0.8889	0.0	Yes	3.019	0.031	n/a	GoodResponse	0	n/a	n/a	3	8	Cue	AvoidedLoss	True
86.581	3.95	Lose2	0.8889	0.0	Yes	3.019	0.0	n/a	GoodResponse	0	n/a	n/a	3	8	Fixation	AvoidedLoss	True
90.543	0.32	Lose2	0.8889	0.0	Yes	3.019	0.012	2.0	GoodResponse	0	0.171	89.714	3	8	Target	AvoidedLoss	True
90.714	0.3	Lose2	0.8889	0.0	Yes	3.019	0.012	2.0	GoodResponse	0	0.171	n/a	3	8	ButtonPress	AvoidedLoss	True
90.861	0.38	Lose2	0.8889	n/a	Yes	3.019	n/a	n/a	GoodResponse	0	n/a	n/a	3	8	Blank	AvoidedLoss	True
91.228	1.45	Lose2	0.8889	n/a	Yes	3.019	n/a	5.0	GoodResponse	0	0.015	90.243	3	8	Feedback	AvoidedLoss	True
92.683	3.019	Lose2	0.8889	n/a	Yes	3.019	n/a	n/a	GoodResponse	0	0.0	n/a	3	8	ISIslide	AvoidedLoss	True
95.725	0.25	Lose2	0.9	0.0	Yes	3.125	0.025	n/a	GoodResponse	0	n/a	n/a	3	9	Cue	AvoidedLoss	True
95.976	3.95	Lose2	0.9	0.0	Yes	3.125	0.001	n/a	GoodResponse	0	n/a	n/a	3	9	Fixation	AvoidedLoss	True
99.921	0.31	Lose2	0.9	0.004	Yes	3.125	-0.004	2.0	GoodResponse	0	0.272	99.193	3	9	Target	AvoidedLoss	True
100.193	0.3	Lose2	0.9	0.004	Yes	3.125	-0.004	2.0	GoodResponse	0	0.272	n/a	3	9	ButtonPress	AvoidedLoss	True
100.239	0.39	Lose2	0.9	n/a	Yes	3.125	n/a	n/a	GoodResponse	0	n/a	n/a	3	9	Blank	AvoidedLoss	True
100.623	1.45	Lose2	0.9	n/a	Yes	3.125	n/a	5.0	GoodResponse	0	0.035	99.658	3	9	Feedback	AvoidedLoss	True
102.078	3.125	Lose2	0.9	n/a	Yes	3.125	n/a	n/a	GoodResponse	0	0.0	n/a	3	9	ISIslide	AvoidedLoss	True
105.22	0.25	Control	0.9091	0.0	Yes	3.28	0.02	n/a	GoodResponse	0	n/a	n/a	3	10	Cue	Neutral	True
105.471	4.0	Control	0.9091	0.0	Yes	3.28	0.001	n/a	GoodResponse	0	n/a	n/a	3	10	Fixation	Neutral	True
109.466	0.3	Control	0.9091	0.004	Yes	3.28	-0.004	2.0	GoodResponse	0	0.229	108.695	3	10	Target	Neutral	True
109.695	0.3	Control	0.9091	0.004	Yes	3.28	-0.004	2.0	GoodResponse	0	0.229	n/a	3	10	ButtonPress	Neutral	True
109.767	0.4	Control	0.9091	n/a	Yes	3.28	n/a	n/a	GoodResponse	0	n/a	n/a	3	10	Blank	Neutral	True
110.169	1.45	Control	0.9091	n/a	Yes	3.28	n/a	5.0	GoodResponse	0	0.001	109.17	3	10	Feedback	Neutral	True
111.623	3.28	Control	0.9091	n/a	Yes	3.28	n/a	n/a	GoodResponse	0	0.0	n/a	3	10	ISIslide	Neutral	True
114.916	0.25	Lose2	0.9167000000000001	0.0	Yes	2.734	0.016	n/a	GoodResponse	0	n/a	n/a	3	11	Cue	AvoidedLoss	True
115.167	4.05	Lose2	0.9167000000000001	0.0	Yes	2.734	0.001	n/a	GoodResponse	0	n/a	n/a	3	11	Fixation	AvoidedLoss	True
119.212	0.29	Lose2	0.9167000000000001	0.004	Yes	2.734	-0.004	2.0	GoodResponse	0	0.228	118.44	3	11	Target	AvoidedLoss	True
119.44	0.3	Lose2	0.9167000000000001	0.004	Yes	2.734	-0.004	2.0	GoodResponse	0	0.228	n/a	3	11	ButtonPress	AvoidedLoss	True
119.513	0.41	Lose2	0.9167000000000001	n/a	Yes	2.734	n/a	n/a	GoodResponse	0	n/a	n/a	3	11	Blank	AvoidedLoss	True
119.914	1.45	Lose2	0.9167000000000001	n/a	Yes	2.734	n/a	5.0	GoodResponse	0	0.012	118.926	3	11	Feedback	AvoidedLoss	True
121.369	2.734	Lose2	0.9167000000000001	n/a	Yes	2.734	n/a	n/a	GoodResponse	0	0.0	n/a	3	11	ISIslide	AvoidedLoss	True
124.127	0.25	Control	0.8462000000000001	0.0	No	2.973	0.027	n/a	NoResponse	0	n/a	n/a	3	12	Cue	Neutral	True
124.378	3.9	Control	0.8462000000000001	0.0	No	2.973	0.001	n/a	NoResponse	0	n/a	n/a	3	12	Fixation	Neutral	True
128.273	0.28	Control	0.8462000000000001	0.004	No	2.973	-0.004	2.0	NoResponse	0	0.405	127.678	3	12	Target	Neutral	True
128.557	0.42	Control	0.8462000000000001	n/a	No	2.973	n/a	n/a	NoResponse	0	n/a	n/a	3	12	Blank	Neutral	True
128.678	0.3	Control	0.8462000000000001	0.004	No	2.973	-0.004	2.0	NoResponse	0	0.405	n/a	3	12	ButtonPress	Neutral	True
128.975	1.45	Control	0.8462000000000001	n/a	No	2.973	n/a	5.0	NoResponse	0	0.023	127.998	3	12	Feedback	Neutral	True
130.429	2.973	Control	0.8462000000000001	n/a	No	2.973	n/a	n/a	NoResponse	0	0.0	n/a	3	12	ISIslide	Neutral	True
133.421	0.25	Control	0.8571	0.001	Yes	2.779	0.021	n/a	GoodResponse	0	n/a	n/a	3	13	Cue	Neutral	True
133.672	4.0	Control	0.8571	0.0	Yes	2.779	0.001	n/a	GoodResponse	0	n/a	n/a	3	13	Fixation	Neutral	True
137.668	0.27	Control	0.8571	0.003	Yes	2.779	-0.003	2.0	GoodResponse	0	0.267	136.935	3	13	Target	Neutral	True
137.935	0.3	Control	0.8571	0.003	Yes	2.779	-0.003	2.0	GoodResponse	0	0.267	n/a	3	13	ButtonPress	Neutral	True
137.952	0.43	Control	0.8571	n/a	Yes	2.779	n/a	n/a	GoodResponse	0	n/a	n/a	3	13	Blank	Neutral	True
138.37	1.45	Control	0.8571	n/a	Yes	2.779	n/a	5.0	GoodResponse	0	0.043	137.413	3	13	Feedback	Neutral	True
139.824	2.779	Control	0.8571	n/a	Yes	2.779	n/a	n/a	GoodResponse	0	0.0	n/a	3	13	ISIslide	Neutral	True
142.616	0.25	Win2	0.8667	0.0	Yes	2.684	0.016	n/a	GoodResponse	1	n/a	n/a	4	14	Cue	Win	True
142.866	4.1	Win2	0.8667	0.0	Yes	2.684	0.0	n/a	GoodResponse	1	n/a	n/a	4	14	Fixation	Win	True
146.962	0.26	Win2	0.8667	0.004	Yes	2.684	-0.004	2.0	GoodResponse	1	0.185	146.147	4	14	Target	Win	True
147.147	0.3	Win2	0.8667	0.004	Yes	2.684	-0.004	2.0	GoodResponse	1	0.185	n/a	4	14	ButtonPress	Win	True
147.229	0.44	Win2	0.8667	n/a	Yes	2.684	n/a	n/a	GoodResponse	1	n/a	n/a	4	14	Blank	Win	True
147.664	1.45	Win2	0.8667	n/a	Yes	2.684	n/a	5.0	GoodResponse	1	0.018	146.682	4	14	Feedback	Win	True
149.118	2.684	Win2	0.8667	n/a	Yes	2.684	n/a	n/a	GoodResponse	1	0.0	n/a	4	14	ISIslide	Win	True
151.827	0.25	Control	0.875	0.0	Yes	2.973	0.027	n/a	GoodResponse	0	n/a	n/a	4	15	Cue	Neutral	True
152.077	4.0	Control	0.875	0.0	Yes	2.973	0.0	n/a	GoodResponse	0	n/a	n/a	4	15	Fixation	Neutral	True
156.073	0.25	Control	0.875	0.004	Yes	2.973	-0.004	2.0	GoodResponse	0	0.182	155.255	4	15	Target	Neutral	True
156.255	0.3	Control	0.875	0.004	Yes	2.973	-0.004	2.0	GoodResponse	0	0.182	n/a	4	15	ButtonPress	Neutral	True
156.323	0.45	Control	0.875	n/a	Yes	2.973	n/a	n/a	GoodResponse	0	n/a	n/a	4	15	Blank	Neutral	True
156.775	1.45	Control	0.875	n/a	Yes	2.973	n/a	5.0	GoodResponse	0	0.029	155.804	4	15	Feedback	Neutral	True
158.229	2.973	Control	0.875	n/a	Yes	2.973	n/a	n/a	GoodResponse	0	0.0	n/a	4	15	ISIslide	Neutral	True
161.221	0.25	Win2	0.8824	0.0	Yes	2.879	0.021	n/a	GoodResponse	1	n/a	n/a	5	16	Cue	Win	True
161.472	4.0	Win2	0.8824	0.0	Yes	2.879	0.001	n/a	GoodResponse	1	n/a	n/a	5	16	Fixation	Win	True
165.467	0.24	Win2	0.8824	0.004	Yes	2.879	-0.004	2.0	GoodResponse	1	0.191	164.658	5	16	Target	Win	True
165.658	0.3	Win2	0.8824	0.004	Yes	2.879	-0.004	2.0	GoodResponse	1	0.191	n/a	5	16	ButtonPress	Win	True
165.718	0.46	Win2	0.8824	n/a	Yes	2.879	n/a	n/a	GoodResponse	1	n/a	n/a	5	16	Blank	Win	True
166.169	1.45	Win2	0.8824	n/a	Yes	2.879	n/a	5.0	GoodResponse	1	0.001	165.17	5	16	Feedback	Win	True
167.624	2.879	Win2	0.8824	n/a	Yes	2.879	n/a	n/a	GoodResponse	1	0.0	n/a	5	16	ISIslide	Win	True
170.516	0.25	Lose2	0.8889	0.0	Yes	2.734	0.016	n/a	GoodResponse	0	n/a	n/a	5	17	Cue	AvoidedLoss	True
170.767	3.95	Lose2	0.8889	0.0	Yes	2.734	0.001	n/a	GoodResponse	0	n/a	n/a	5	17	Fixation	AvoidedLoss	True
174.712	0.23	Lose2	0.8889	0.004	Yes	2.734	-0.004	2.0	GoodResponse	0	0.222	173.934	5	17	Target	AvoidedLoss	True
174.934	0.3	Lose2	0.8889	0.004	Yes	2.734	-0.004	2.0	GoodResponse	0	0.222	n/a	5	17	ButtonPress	AvoidedLoss	True
174.946	0.47	Lose2	0.8889	n/a	Yes	2.734	n/a	n/a	GoodResponse	0	n/a	n/a	5	17	Blank	AvoidedLoss	True
175.414	1.45	Lose2	0.8889	n/a	Yes	2.734	n/a	5.0	GoodResponse	0	0.024	174.438	5	17	Feedback	AvoidedLoss	True
176.868	2.734	Lose2	0.8889	n/a	Yes	2.734	n/a	n/a	GoodResponse	0	0.0	n/a	5	17	ISIslide	AvoidedLoss	True
179.626	0.25	Lose2	0.8421	0.001	No	2.724	0.026	n/a	NoResponse	-1	n/a	n/a	4	18	Cue	Loss	True
179.877	4.05	Lose2	0.8421	0.0	No	2.724	0.001	n/a	NoResponse	-1	n/a	n/a	4	18	Fixation	Loss	True
183.923	0.22	Lose2	0.8421	0.003	No	2.724	-0.003	2.0	NoResponse	-1	0.241	183.164	4	18	Target	Loss	True
184.157	0.48	Lose2	0.8421	n/a	No	2.724	n/a	n/a	NoResponse	-1	n/a	n/a	4	18	Blank	Loss	True
184.164	0.3	Lose2	0.8421	0.003	No	2.724	-0.003	2.0	NoResponse	-1	0.241	n/a	4	18	ButtonPress	Loss	True
184.625	1.45	Lose2	0.8421	n/a	No	2.724	n/a	5.0	NoResponse	-1	0.032	183.657	4	18	Feedback	Loss	True
186.079	2.724	Lose2	0.8421	n/a	No	2.724	n/a	n/a	NoResponse	-1	0.0	n/a	4	18	ISIslide	Loss	True
188.821	0.25	Control	0.8	0.0	No	2.929	0.021	n/a	NoResponse	0	n/a	n/a	4	19	Cue	Neutral	True
189.071	3.95	Control	0.8	0.0	No	2.929	0.0	n/a	NoResponse	0	n/a	n/a	4	19	Fixation	Neutral	True
193.017	0.21	Control	0.8	0.004	No	2.929	-0.004	2.0	NoResponse	0	0.261	192.278	4	19	Target	Neutral	True
193.234	0.49	Control	0.8	n/a	No	2.929	n/a	n/a	NoResponse	0	n/a	n/a	4	19	Blank	Neutral	True
193.278	0.3	Control	0.8	0.004	No	2.929	-0.004	2.0	NoResponse	0	0.261	n/a	4	19	ButtonPress	Neutral	True
193.719	1.45	Control	0.8	n/a	No	2.929	n/a	5.0	NoResponse	0	0.011	192.73	4	19	Feedback	Neutral	True
195.173	2.929	Control	0.8	n/a	No	2.929	n/a	n/a	NoResponse	0	0.0	n/a	4	19	ISIslide	Neutral	True
198.115	0.25	Control	0.8095	0.0	Yes	2.635	0.015	n/a	GoodResponse	0	n/a	n/a	4	20	Cue	Neutral	True
198.366	4.05	Control	0.8095	0.0	Yes	2.635	0.001	n/a	GoodResponse	0	n/a	n/a	4	20	Fixation	Neutral	True
202.411	0.2	Control	0.8095	0.004	Yes	2.635	-0.004	2.0	GoodResponse	0	0.178	201.589	4	20	Target	Neutral	True
202.589	0.3	Control	0.8095	0.004	Yes	2.635	-0.004	2.0	GoodResponse	0	0.178	n/a	4	20	ButtonPress	Neutral	True
202.612	0.5	Control	0.8095	n/a	Yes	2.635	n/a	n/a	GoodResponse	0	n/a	n/a	4	20	Blank	Neutral	True
203.113	1.45	Control	0.8095	n/a	Yes	2.635	n/a	5.0	GoodResponse	0	0.032	202.145	4	20	Feedback	Neutral	True
204.568	2.635	Control	0.8095	n/a	Yes	2.635	n/a	n/a	GoodResponse	0	0.0	n/a	4	20	ISIslide	Neutral	True
207.226	0.25	Control	0.7726999999999999	0.0	No	2.774	0.026	n/a	NoResponse	0	n/a	n/a	4	21	Cue	Neutral	True
207.476	4.1	Control	0.7726999999999999	0.001	No	2.774	0.0	n/a	NoResponse	0	n/a	n/a	4	21	Fixation	Neutral	True
211.572	0.19	Control	0.7726999999999999	0.004	No	2.774	-0.004	2.0	NoResponse	0	0.213	210.785	4	21	Target	Neutral	True
211.773	0.51	Control	0.7726999999999999	n/a	No	2.774	n/a	n/a	NoResponse	0	n/a	n/a	4	21	Blank	Neutral	True
211.785	0.3	Control	0.7726999999999999	0.004	No	2.774	-0.004	2.0	NoResponse	0	0.213	n/a	4	21	ButtonPress	Neutral	True
212.274	1.45	Control	0.7726999999999999	n/a	No	2.774	n/a	5.0	NoResponse	0	0.041	211.315	4	21	Feedback	Neutral	True
213.729	2.774	Control	0.7726999999999999	n/a	No	2.774	n/a	n/a	NoResponse	0	0.0	n/a	4	21	ISIslide	Neutral	True
216.52	0.25	Control	0.7391	0.0	No	2.78	0.02	n/a	NoResponse	0	n/a	n/a	4	22	Cue	Neutral	True
216.771	4.0	Control	0.7391	0.0	No	2.78	0.001	n/a	NoResponse	0	n/a	n/a	4	22	Fixation	Neutral	True
220.766	0.18	Control	0.7391	0.004	No	2.78	-0.004	2.0	NoResponse	0	0.205	219.971	4	22	Target	Neutral	True
220.95	0.52	Control	0.7391	n/a	No	2.78	n/a	n/a	NoResponse	0	n/a	n/a	4	22	Blank	Neutral	True
220.971	0.3	Control	0.7391	0.004	No	2.78	-0.004	2.0	NoResponse	0	0.205	n/a	4	22	ButtonPress	Neutral	True
221.468	1.45	Control	0.7391	n/a	No	2.78	n/a	5.0	NoResponse	0	0.018	220.486	4	22	Feedback	Neutral	True
222.923	2.78	Control	0.7391	n/a	No	2.78	n/a	n/a	NoResponse	0	0.0	n/a	4	22	ISIslide	Neutral	True
225.731	0.25	Control	0.7082999999999999	0.0	No	2.769	0.031	n/a	NoResponse	0	n/a	n/a	4	23	Cue	Neutral	True
225.982	3.9	Control	0.7082999999999999	0.0	No	2.769	0.001	n/a	NoResponse	0	n/a	n/a	4	23	Fixation	Neutral	True
229.877	0.17	Control	0.7082999999999999	0.004	No	2.769	-0.004	2.0	NoResponse	0	0.206	229.083	4	23	Target	Neutral	True
230.061	0.53	Control	0.7082999999999999	n/a	No	2.769	n/a	n/a	NoResponse	0	n/a	n/a	4	23	Blank	Neutral	True
230.083	0.3	Control	0.7082999999999999	0.004	No	2.769	-0.004	2.0	NoResponse	0	0.206	n/a	4	23	ButtonPress	Neutral	True
230.579	1.45	Control	0.7082999999999999	n/a	No	2.769	n/a	5.0	NoResponse	0	0.028	229.607	4	23	Feedback	Neutral	True
232.033	2.769	Control	0.7082999999999999	n/a	No	2.769	n/a	n/a	NoResponse	0	0.0	n/a	4	23	ISIslide	Neutral	True
234.825	0.25	Win2	0.68	0.0	No	3.125	0.025	n/a	NoResponse	0	n/a	n/a	4	24	Cue	MissedWin	True
235.076	3.95	Win2	0.68	0.0	No	3.125	0.001	n/a	NoResponse	0	n/a	n/a	4	24	Fixation	MissedWin	True
239.021	0.16	Win2	0.68	0.004	No	3.125	-0.004	2.0	NoResponse	0	0.194	238.215	4	24	Target	MissedWin	True
239.188	0.54	Win2	0.68	n/a	No	3.125	n/a	n/a	NoResponse	0	n/a	n/a	4	24	Blank	MissedWin	True
239.215	0.3	Win2	0.68	0.004	No	3.125	-0.004	2.0	NoResponse	0	0.194	n/a	4	24	ButtonPress	MissedWin	True
239.723	1.45	Win2	0.68	n/a	No	3.125	n/a	5.0	NoResponse	0	0.006	238.729	4	24	Feedback	MissedWin	True
241.177	3.125	Win2	0.68	n/a	No	3.125	n/a	n/a	NoResponse	0	0.0	n/a	4	24	ISIslide	MissedWin	True
244.32	0.25	Win2	0.6537999999999999	0.0	No	3.08	0.02	n/a	NoResponse	0	n/a	n/a	4	25	Cue	MissedWin	True
244.571	4.0	Win2	0.6537999999999999	0.0	No	3.08	0.001	n/a	NoResponse	0	n/a	n/a	4	25	Fixation	MissedWin	True
248.566	0.15	Win2	0.6537999999999999	0.004	No	3.08	-0.004	2.0	NoResponse	0	0.196	247.762	4	25	Target	MissedWin	True
248.717	0.55	Win2	0.6537999999999999	n/a	No	3.08	n/a	n/a	NoResponse	0	n/a	n/a	4	25	Blank	MissedWin	True
248.762	0.3	Win2	0.6537999999999999	0.004	No	3.08	-0.004	2.0	NoResponse	0	0.196	n/a	4	25	ButtonPress	MissedWin	True
249.268	1.45	Win2	0.6537999999999999	n/a	No	3.08	n/a	5.0	NoResponse	0	0.022	248.29	4	25	Feedback	MissedWin	True
250.723	3.08	Win2	0.6537999999999999	n/a	No	3.08	n/a	n/a	NoResponse	0	0.0	n/a	4	25	ISIslide	MissedWin	True
253.832	0.25	Win2	0.6296	0.0	No	2.918	0.032	n/a	NoResponse	0	n/a	n/a	4	26	Cue	MissedWin	True
254.083	3.95	Win2	0.6296	0.0	No	2.918	0.001	n/a	NoResponse	0	n/a	n/a	4	26	Fixation	MissedWin	True
258.028	0.16	Win2	0.6296	0.004	No	2.918	-0.004	2.0	NoResponse	0	0.205	257.233	4	26	Target	MissedWin	True
258.195	0.54	Win2	0.6296	n/a	No	2.918	n/a	n/a	NoResponse	0	n/a	n/a	4	26	Blank	MissedWin	True
258.233	0.3	Win2	0.6296	0.004	No	2.918	-0.004	2.0	NoResponse	0	0.205	n/a	4	26	ButtonPress	MissedWin	True
258.73	1.45	Win2	0.6296	n/a	No	2.918	n/a	5.0	NoResponse	0	0.024	257.754	4	26	Feedback	MissedWin	True
260.184	2.918	Win2	0.6296	n/a	No	2.918	n/a	2.0	NoResponse	0	0.48	n/a	4	26	ISIslide	MissedWin	True
263.11	0.25	Lose2	0.6071	0.0	No	2.84	0.01	n/a	NoResponse	-1	n/a	n/a	3	27	Cue	Loss	True
263.36	4.05	Lose2	0.6071	0.0	No	2.84	0.0	n/a	NoResponse	-1	n/a	n/a	3	27	Fixation	Loss	True
267.406	0.17	Lose2	0.6071	0.004	No	2.84	-0.004	2.0	NoResponse	-1	0.206	266.612	3	27	Target	Loss	True
267.59	0.53	Lose2	0.6071	n/a	No	2.84	n/a	n/a	NoResponse	-1	n/a	n/a	3	27	Blank	Loss	True
267.612	0.3	Lose2	0.6071	0.004	No	2.84	-0.004	2.0	NoResponse	-1	0.206	n/a	3	27	ButtonPress	Loss	True
268.108	1.45	Lose2	0.6071	n/a	No	2.84	n/a	5.0	NoResponse	-1	0.012	267.12	3	27	Feedback	Loss	True
269.562	2.84	Lose2	0.6071	n/a	No	2.84	n/a	n/a	NoResponse	-1	0.0	n/a	3	27	ISIslide	Loss	True
272.421	0.25	Control	0.5861999999999999	0.0	No	2.829	0.021	n/a	NoResponse	0	n/a	n/a	3	28	Cue	Neutral	True
272.672	4.05	Control	0.5861999999999999	0.0	No	2.829	0.001	n/a	NoResponse	0	n/a	n/a	3	28	Fixation	Neutral	True
276.717	0.18	Control	0.5861999999999999	0.004	No	2.829	-0.004	2.0	NoResponse	0	0.191	275.908	3	28	Target	Neutral	True
276.901	0.52	Control	0.5861999999999999	n/a	No	2.829	n/a	n/a	NoResponse	0	n/a	n/a	3	28	Blank	Neutral	True
276.908	0.3	Control	0.5861999999999999	0.004	No	2.829	-0.004	2.0	NoResponse	0	0.191	n/a	3	28	ButtonPress	Neutral	True
277.419	1.45	Control	0.5861999999999999	n/a	No	2.829	n/a	5.0	NoResponse	0	0.017	276.436	3	28	Feedback	Neutral	True
278.874	2.829	Control	0.5861999999999999	n/a	No	2.829	n/a	n/a	NoResponse	0	0.0	n/a	3	28	ISIslide	Neutral	True
281.715	0.25	Lose2	0.5667	0.0	No	2.835	0.015	n/a	LatePress	-1	n/a	n/a	2	29	Cue	Loss	True
281.966	3.95	Lose2	0.5667	0.0	No	2.835	0.001	n/a	LatePress	-1	n/a	n/a	2	29	Fixation	Loss	True
285.911	0.19	Lose2	0.5667	0.004	No	2.835	-0.004	2.0	LatePress	-1	0.193	285.104	2	29	Target	Loss	True
286.104	0.3	Lose2	0.5667	0.004	No	2.835	-0.004	2.0	LatePress	-1	0.193	n/a	2	29	ButtonPress	Loss	True
286.112	0.51	Lose2	0.5667	n/a	No	2.835	n/a	n/a	LatePress	-1	n/a	n/a	2	29	Blank	Loss	True
286.613	1.45	Lose2	0.5667	n/a	No	2.835	n/a	5.0	LatePress	-1	0.043	285.656	2	29	Feedback	Loss	True
288.068	2.835	Lose2	0.5667	n/a	No	2.835	n/a	n/a	LatePress	-1	0.0	n/a	2	29	ISIslide	Loss	True
290.926	0.25	Win2	0.5484	0.0	No	2.774	0.026	n/a	NoResponse	0	n/a	n/a	2	30	Cue	MissedWin	True
291.177	3.9	Win2	0.5484	0.0	No	2.774	0.001	n/a	NoResponse	0	n/a	n/a	2	30	Fixation	MissedWin	True
295.072	0.2	Win2	0.5484	0.004	No	2.774	-0.004	2.0	NoResponse	0	0.228	294.3	2	30	Target	MissedWin	True
295.273	0.5	Win2	0.5484	n/a	No	2.774	n/a	n/a	NoResponse	0	n/a	n/a	2	30	Blank	MissedWin	True
295.3	0.3	Win2	0.5484	0.004	No	2.774	-0.004	2.0	NoResponse	0	0.228	n/a	2	30	ButtonPress	MissedWin	True
295.774	1.45	Win2	0.5484	n/a	No	2.774	n/a	5.0	NoResponse	0	0.007	294.781	2	30	Feedback	MissedWin	True
297.228	2.774	Win2	0.5484	n/a	No	2.774	n/a	n/a	NoResponse	0	0.0	n/a	2	30	ISIslide	MissedWin	True
300.02	0.25	Lose2	0.5625	0.0	Yes	2.83	0.02	n/a	GoodResponse	0	n/a	n/a	2	31	Cue	AvoidedLoss	True
300.271	4.05	Lose2	0.5625	0.0	Yes	2.83	0.001	n/a	GoodResponse	0	n/a	n/a	2	31	Fixation	AvoidedLoss	True
304.316	0.21	Lose2	0.5625	0.004	Yes	2.83	-0.004	2.0	GoodResponse	0	0.19	303.506	2	31	Target	AvoidedLoss	True
304.506	0.3	Lose2	0.5625	0.004	Yes	2.83	-0.004	2.0	GoodResponse	0	0.19	n/a	2	31	ButtonPress	AvoidedLoss	True
304.534	0.49	Lose2	0.5625	n/a	Yes	2.83	n/a	n/a	GoodResponse	0	n/a	n/a	2	31	Blank	AvoidedLoss	True
305.018	1.45	Lose2	0.5625	n/a	Yes	2.83	n/a	5.0	GoodResponse	0	0.028	304.046	2	31	Feedback	AvoidedLoss	True
306.473	2.83	Lose2	0.5625	n/a	Yes	2.83	n/a	n/a	GoodResponse	0	0.0	n/a	2	31	ISIslide	AvoidedLoss	True
309.331	0.25	Lose2	0.5758	0.0	Yes	2.619	0.031	n/a	GoodResponse	0	n/a	n/a	2	32	Cue	AvoidedLoss	True
309.582	4.15	Lose2	0.5758	0.0	Yes	2.619	0.001	n/a	GoodResponse	0	n/a	n/a	2	32	Fixation	AvoidedLoss	True
313.728	0.22	Lose2	0.5758	0.003	Yes	2.619	-0.003	2.0	GoodResponse	0	0.178	312.906	2	32	Target	AvoidedLoss	True
313.906	0.3	Lose2	0.5758	0.003	Yes	2.619	-0.003	2.0	GoodResponse	0	0.178	n/a	2	32	ButtonPress	AvoidedLoss	True
313.962	0.48	Lose2	0.5758	n/a	Yes	2.619	n/a	n/a	GoodResponse	0	n/a	n/a	2	32	Blank	AvoidedLoss	True
314.43	1.45	Lose2	0.5758	n/a	Yes	2.619	n/a	5.0	GoodResponse	0	0.031	313.461	2	32	Feedback	AvoidedLoss	True
315.884	2.619	Lose2	0.5758	n/a	Yes	2.619	n/a	n/a	GoodResponse	0	0.0	n/a	2	32	ISIslide	AvoidedLoss	True
318.526	0.25	Win2	0.5882000000000001	0.0	Yes	2.674	0.026	n/a	GoodResponse	1	n/a	n/a	3	33	Cue	Win	True
318.776	4.0	Win2	0.5882000000000001	0.0	Yes	2.674	0.0	n/a	GoodResponse	1	n/a	n/a	3	33	Fixation	Win	True
322.772	0.23	Win2	0.5882000000000001	0.004	Yes	2.674	-0.004	2.0	GoodResponse	1	0.187	321.959	3	33	Target	Win	True
322.959	0.3	Win2	0.5882000000000001	0.004	Yes	2.674	-0.004	2.0	GoodResponse	1	0.187	n/a	3	33	ButtonPress	Win	True
323.006	0.47	Win2	0.5882000000000001	n/a	Yes	2.674	n/a	n/a	GoodResponse	1	n/a	n/a	3	33	Blank	Win	True
323.474	1.45	Win2	0.5882000000000001	n/a	Yes	2.674	n/a	5.0	GoodResponse	1	0.011	322.485	3	33	Feedback	Win	True
324.928	2.674	Win2	0.5882000000000001	n/a	Yes	2.674	n/a	n/a	GoodResponse	1	0.0	n/a	3	33	ISIslide	Win	True
327.619	0.25	Lose2	0.6	0.001	Yes	2.631	0.019	n/a	GoodResponse	0	n/a	n/a	3	34	Cue	AvoidedLoss	True
327.87	4.05	Lose2	0.6	0.0	Yes	2.631	0.001	n/a	GoodResponse	0	n/a	n/a	3	34	Fixation	AvoidedLoss	True
331.916	0.24	Lose2	0.6	0.003	Yes	2.631	-0.003	2.0	GoodResponse	0	0.233	331.149	3	34	Target	AvoidedLoss	True
332.149	0.3	Lose2	0.6	0.003	Yes	2.631	-0.003	2.0	GoodResponse	0	0.233	n/a	3	34	ButtonPress	AvoidedLoss	True
332.166	0.46	Lose2	0.6	n/a	Yes	2.631	n/a	n/a	GoodResponse	0	n/a	n/a	3	34	Blank	AvoidedLoss	True
332.618	1.45	Lose2	0.6	n/a	Yes	2.631	n/a	5.0	GoodResponse	0	0.037	331.655	3	34	Feedback	AvoidedLoss	True
334.072	2.631	Lose2	0.6	n/a	Yes	2.631	n/a	n/a	GoodResponse	0	0.0	n/a	3	34	ISIslide	AvoidedLoss	True
336.73	0.25	Lose2	0.5832999999999999	0.0	No	2.67	0.03	n/a	LatePress	-1	n/a	n/a	2	35	Cue	Loss	True
336.981	4.0	Lose2	0.5832999999999999	0.0	No	2.67	0.001	n/a	LatePress	-1	n/a	n/a	2	35	Fixation	Loss	True
340.976	0.25	Lose2	0.5832999999999999	0.004	No	2.67	-0.004	2.0	LatePress	-1	0.25	340.226	2	35	Target	Loss	True
341.226	0.3	Lose2	0.5832999999999999	0.004	No	2.67	-0.004	2.0	LatePress	-1	0.25	n/a	2	35	ButtonPress	Loss	True
341.227	0.45	Lose2	0.5832999999999999	n/a	No	2.67	n/a	n/a	LatePress	-1	n/a	n/a	2	35	Blank	Loss	True
341.678	1.45	Lose2	0.5832999999999999	n/a	No	2.67	n/a	5.0	LatePress	-1	0.008	340.686	2	35	Feedback	Loss	True
343.133	2.67	Lose2	0.5832999999999999	n/a	No	2.67	n/a	n/a	LatePress	-1	0.0	n/a	2	35	ISIslide	Loss	True
345.824	0.25	Control	0.5676	0.0	No	2.676	0.024	n/a	NoResponse	0	n/a	n/a	2	36	Cue	Neutral	True
346.075	4.0	Control	0.5676	0.0	No	2.676	0.001	n/a	NoResponse	0	n/a	n/a	2	36	Fixation	Neutral	True
350.07	0.26	Control	0.5676	0.004	No	2.676	-0.004	2.0	NoResponse	0	0.268	349.338	2	36	Target	Neutral	True
350.337	0.44	Control	0.5676	n/a	No	2.676	n/a	n/a	NoResponse	0	n/a	n/a	2	36	Blank	Neutral	True
350.338	0.3	Control	0.5676	0.004	No	2.676	-0.004	2.0	NoResponse	0	0.268	n/a	2	36	ButtonPress	Neutral	True
350.772	1.45	Control	0.5676	n/a	No	2.676	n/a	5.0	NoResponse	0	0.03	349.802	2	36	Feedback	Neutral	True
352.226	2.676	Control	0.5676	n/a	No	2.676	n/a	n/a	NoResponse	0	0.0	n/a	2	36	ISIslide	Neutral	True
354.918	0.25	Win2	0.5789	0.0	Yes	2.882	0.018	n/a	GoodResponse	1	n/a	n/a	3	37	Cue	Win	True
355.169	4.0	Win2	0.5789	0.0	Yes	2.882	0.001	n/a	GoodResponse	1	n/a	n/a	3	37	Fixation	Win	True
359.164	0.27	Win2	0.5789	0.004	Yes	2.882	-0.004	2.0	GoodResponse	1	0.201	358.365	3	37	Target	Win	True
359.365	0.3	Win2	0.5789	0.004	Yes	2.882	-0.004	2.0	GoodResponse	1	0.201	n/a	3	37	ButtonPress	Win	True
359.448	0.43	Win2	0.5789	n/a	Yes	2.882	n/a	n/a	GoodResponse	1	n/a	n/a	3	37	Blank	Win	True
359.866	1.45	Win2	0.5789	n/a	Yes	2.882	n/a	5.0	GoodResponse	1	0.009	358.875	3	37	Feedback	Win	True
361.32	2.882	Win2	0.5789	n/a	Yes	2.882	n/a	n/a	GoodResponse	1	0.0	n/a	3	37	ISIslide	Win	True
364.229	0.25	Lose2	0.5897	0.0	Yes	2.821	0.029	n/a	GoodResponse	0	n/a	n/a	3	38	Cue	AvoidedLoss	True
364.48	3.95	Lose2	0.5897	0.0	Yes	2.821	0.001	n/a	GoodResponse	0	n/a	n/a	3	38	Fixation	AvoidedLoss	True
368.425	0.28	Lose2	0.5897	0.004	Yes	2.821	-0.004	2.0	GoodResponse	0	0.215	367.64	3	38	Target	AvoidedLoss	True
368.64	0.3	Lose2	0.5897	0.004	Yes	2.821	-0.004	2.0	GoodResponse	0	0.215	n/a	3	38	ButtonPress	AvoidedLoss	True
368.709	0.42	Lose2	0.5897	n/a	Yes	2.821	n/a	n/a	GoodResponse	0	n/a	n/a	3	38	Blank	AvoidedLoss	True
369.127	1.45	Lose2	0.5897	n/a	Yes	2.821	n/a	5.0	GoodResponse	0	0.017	368.144	3	38	Feedback	AvoidedLoss	True
370.581	2.821	Lose2	0.5897	n/a	Yes	2.821	n/a	n/a	GoodResponse	0	0.0	n/a	3	38	ISIslide	AvoidedLoss	True
373.423	0.25	Win2	0.6	0.0	Yes	2.977	0.023	n/a	GoodResponse	1	n/a	n/a	4	39	Cue	Win	True
373.674	4.1	Win2	0.6	0.0	Yes	2.977	0.001	n/a	GoodResponse	1	n/a	n/a	4	39	Fixation	Win	True
377.77	0.29	Win2	0.6	0.003	Yes	2.977	-0.003	2.0	GoodResponse	1	0.211	376.981	4	39	Target	Win	True
377.981	0.3	Win2	0.6	0.003	Yes	2.977	-0.003	2.0	GoodResponse	1	0.211	n/a	4	39	ButtonPress	Win	True
378.07	0.41	Win2	0.6	n/a	Yes	2.977	n/a	n/a	GoodResponse	1	n/a	n/a	4	39	Blank	Win	True
378.472	1.45	Win2	0.6	n/a	Yes	2.977	n/a	5.0	GoodResponse	1	0.036	377.508	4	39	Feedback	Win	True
379.926	2.977	Win2	0.6	n/a	Yes	2.977	n/a	n/a	GoodResponse	1	0.0	n/a	4	39	ISIslide	Win	True
382.918	0.25	Win2	0.6098	0.0	Yes	2.732	0.018	n/a	GoodResponse	1	n/a	n/a	5	40	Cue	Win	True
383.169	3.95	Win2	0.6098	0.0	Yes	2.732	0.001	n/a	GoodResponse	1	n/a	n/a	5	40	Fixation	Win	True
387.114	0.3	Win2	0.6098	0.004	Yes	2.732	-0.004	2.0	GoodResponse	1	0.186	386.3	5	40	Target	Win	True
387.3	0.3	Win2	0.6098	0.004	Yes	2.732	-0.004	2.0	GoodResponse	1	0.186	n/a	5	40	ButtonPress	Win	True
387.415	0.4	Win2	0.6098	n/a	Yes	2.732	n/a	n/a	GoodResponse	1	n/a	n/a	5	40	Blank	Win	True
387.816	1.45	Win2	0.6098	n/a	Yes	2.732	n/a	5.0	GoodResponse	1	0.01	386.826	5	40	Feedback	Win	True
389.271	2.732	Win2	0.6098	n/a	Yes	2.732	n/a	n/a	GoodResponse	1	0.0	n/a	5	40	ISIslide	Win	True
392.029	0.25	Win2	0.619	0.0	Yes	2.771	0.029	n/a	GoodResponse	1	n/a	n/a	6	41	Cue	Win	True
392.28	3.9	Win2	0.619	0.0	Yes	2.771	0.001	n/a	GoodResponse	1	n/a	n/a	6	41	Fixation	Win	True
396.175	0.31	Win2	0.619	0.004	Yes	2.771	-0.004	2.0	GoodResponse	1	0.232	395.407	6	41	Target	Win	True
396.407	0.3	Win2	0.619	0.004	Yes	2.771	-0.004	2.0	GoodResponse	1	0.232	n/a	6	41	ButtonPress	Win	True
396.492	0.39	Win2	0.619	n/a	Yes	2.771	n/a	n/a	GoodResponse	1	n/a	n/a	6	41	Blank	Win	True
396.877	1.45	Win2	0.619	n/a	Yes	2.771	n/a	5.0	GoodResponse	1	0.022	395.899	6	41	Feedback	Win	True
398.331	2.771	Win2	0.619	n/a	Yes	2.771	n/a	n/a	GoodResponse	1	0.0	n/a	6	41	ISIslide	Win	True
401.123	0.25	Control	0.6047	0.0	No	2.927	0.023	n/a	NoResponse	0	n/a	n/a	6	42	Cue	Neutral	True
401.374	3.85	Control	0.6047	0.0	No	2.927	0.001	n/a	NoResponse	0	n/a	n/a	6	42	Fixation	Neutral	True
405.235	0.32	Control	0.6047	0.0	No	2.927	0.012	2.0	NoResponse	0	0.571	404.806	6	42	Target	Neutral	True
405.553	0.38	Control	0.6047	n/a	No	2.927	n/a	n/a	NoResponse	0	n/a	n/a	6	42	Blank	Neutral	True
405.806	0.3	Control	0.6047	0.0	No	2.927	0.012	2.0	NoResponse	0	0.571	n/a	6	42	ButtonPress	Neutral	True
405.92	1.45	Control	0.6047	n/a	No	2.927	n/a	5.0	NoResponse	0	0.003	404.923	6	42	Feedback	Neutral	True
407.375	2.927	Control	0.6047	n/a	No	2.927	n/a	n/a	NoResponse	0	0.0	n/a	6	42	ISIslide	Neutral	True
410.317	0.25	Win2	0.6136	0.0	Yes	3.183	0.017	n/a	GoodResponse	1	n/a	n/a	7	43	Cue	Win	True
410.568	4.0	Win2	0.6136	0.0	Yes	3.183	0.001	n/a	GoodResponse	1	n/a	n/a	7	43	Fixation	Win	True
414.563	0.33	Win2	0.6136	0.004	Yes	3.183	-0.004	2.0	GoodResponse	1	0.193	413.756	7	43	Target	Win	True
414.756	0.3	Win2	0.6136	0.004	Yes	3.183	-0.004	2.0	GoodResponse	1	0.193	n/a	7	43	ButtonPress	Win	True
414.897	0.37	Win2	0.6136	n/a	Yes	3.183	n/a	n/a	GoodResponse	1	n/a	n/a	7	43	Blank	Win	True
415.265	1.45	Win2	0.6136	n/a	Yes	3.183	n/a	5.0	GoodResponse	1	0.024	414.289	7	43	Feedback	Win	True
416.719	3.183	Win2	0.6136	n/a	Yes	3.183	n/a	n/a	GoodResponse	1	0.0	n/a	7	43	ISIslide	Win	True
419.929	0.25	Win2	0.6222	0.0	Yes	2.971	0.029	n/a	GoodResponse	1	n/a	n/a	8	44	Cue	Win	True
420.18	4.0	Win2	0.6222	0.0	Yes	2.971	0.001	n/a	GoodResponse	1	n/a	n/a	8	44	Fixation	Win	True
424.175	0.34	Win2	0.6222	0.004	Yes	2.971	-0.004	2.0	GoodResponse	1	0.199	423.374	8	44	Target	Win	True
424.374	0.3	Win2	0.6222	0.004	Yes	2.971	-0.004	2.0	GoodResponse	1	0.199	n/a	8	44	ButtonPress	Win	True
424.526	0.36	Win2	0.6222	n/a	Yes	2.971	n/a	n/a	GoodResponse	1	n/a	n/a	8	44	Blank	Win	True
424.877	1.45	Win2	0.6222	n/a	Yes	2.971	n/a	5.0	GoodResponse	1	0.022	423.899	8	44	Feedback	Win	True
426.332	2.971	Win2	0.6222	n/a	Yes	2.971	n/a	n/a	GoodResponse	1	0.0	n/a	8	44	ISIslide	Win	True
429.324	0.25	Control	0.6304	0.0	Yes	2.876	0.024	n/a	GoodResponse	0	n/a	n/a	8	45	Cue	Neutral	True
429.575	4.1	Control	0.6304	0.0	Yes	2.876	0.001	n/a	GoodResponse	0	n/a	n/a	8	45	Fixation	Neutral	True
433.67	0.35	Control	0.6304	0.004	Yes	2.876	-0.004	2.0	GoodResponse	0	0.208	432.878	8	45	Target	Neutral	True
433.878	0.3	Control	0.6304	0.004	Yes	2.876	-0.004	2.0	GoodResponse	0	0.208	n/a	8	45	ButtonPress	Neutral	True
434.021	0.35	Control	0.6304	n/a	Yes	2.876	n/a	n/a	GoodResponse	0	n/a	n/a	8	45	Blank	Neutral	True
434.372	1.45	Control	0.6304	n/a	Yes	2.876	n/a	5.0	GoodResponse	0	0.039	433.411	8	45	Feedback	Neutral	True
435.827	2.876	Control	0.6304	n/a	Yes	2.876	n/a	n/a	GoodResponse	0	0.0	n/a	8	45	ISIslide	Neutral	True
438.719	0.25	Lose2	0.6383	0.0	Yes	3.381	0.019	n/a	GoodResponse	0	n/a	n/a	8	46	Cue	AvoidedLoss	True
438.969	4.0	Lose2	0.6383	0.0	Yes	3.381	0.0	n/a	GoodResponse	0	n/a	n/a	8	46	Fixation	AvoidedLoss	True
442.965	0.36	Lose2	0.6383	0.004	Yes	3.381	-0.004	2.0	GoodResponse	0	0.19	442.155	8	46	Target	AvoidedLoss	True
443.155	0.3	Lose2	0.6383	0.004	Yes	3.381	-0.004	2.0	GoodResponse	0	0.19	n/a	8	46	ButtonPress	AvoidedLoss	True
443.332	0.34	Lose2	0.6383	n/a	Yes	3.381	n/a	n/a	GoodResponse	0	n/a	n/a	8	46	Blank	AvoidedLoss	True
443.667	1.45	Lose2	0.6383	n/a	Yes	3.381	n/a	5.0	GoodResponse	0	0.012	442.679	8	46	Feedback	AvoidedLoss	True
445.121	3.381	Lose2	0.6383	n/a	Yes	3.381	n/a	n/a	GoodResponse	0	0.0	n/a	8	46	ISIslide	AvoidedLoss	True
448.531	0.25	Lose2	0.6457999999999999	0.0	Yes	2.669	0.031	n/a	GoodResponse	0	n/a	n/a	8	47	Cue	AvoidedLoss	True
448.782	4.0	Lose2	0.6457999999999999	0.0	Yes	2.669	0.001	n/a	GoodResponse	0	n/a	n/a	8	47	Fixation	AvoidedLoss	True
452.777	0.37	Lose2	0.6457999999999999	0.004	Yes	2.669	-0.004	2.0	GoodResponse	0	0.203	451.98	8	47	Target	AvoidedLoss	True
452.98	0.3	Lose2	0.6457999999999999	0.004	Yes	2.669	-0.004	2.0	GoodResponse	0	0.203	n/a	8	47	ButtonPress	AvoidedLoss	True
453.162	0.33	Lose2	0.6457999999999999	n/a	Yes	2.669	n/a	n/a	GoodResponse	0	n/a	n/a	8	47	Blank	AvoidedLoss	True
453.48	1.45	Lose2	0.6457999999999999	n/a	Yes	2.669	n/a	5.0	GoodResponse	0	0.006	452.486	8	47	Feedback	AvoidedLoss	True
454.934	2.669	Lose2	0.6457999999999999	n/a	Yes	2.669	n/a	n/a	GoodResponse	0	0.0	n/a	8	47	ISIslide	AvoidedLoss	True
457.625	0.25	Lose2	0.6531	0.0	Yes	3.025	0.025	n/a	GoodResponse	0	n/a	n/a	8	48	Cue	AvoidedLoss	True
457.876	3.95	Lose2	0.6531	0.0	Yes	3.025	0.001	n/a	GoodResponse	0	n/a	n/a	8	48	Fixation	AvoidedLoss	True
461.821	0.38	Lose2	0.6531	0.004	Yes	3.025	-0.004	2.0	GoodResponse	0	0.195	461.016	8	48	Target	AvoidedLoss	True
462.016	0.3	Lose2	0.6531	0.004	Yes	3.025	-0.004	2.0	GoodResponse	0	0.195	n/a	8	48	ButtonPress	AvoidedLoss	True
462.206	0.32	Lose2	0.6531	n/a	Yes	3.025	n/a	n/a	GoodResponse	0	n/a	n/a	8	48	Blank	AvoidedLoss	True
462.523	1.45	Lose2	0.6531	n/a	Yes	3.025	n/a	5.0	GoodResponse	0	0.034	461.557	8	48	Feedback	AvoidedLoss	True
463.978	3.025	Lose2	0.6531	n/a	Yes	3.025	n/a	n/a	GoodResponse	0	0.0	n/a	8	48	ISIslide	AvoidedLoss	True
467.02	0.25	Control	0.66	0.0	Yes	2.88	0.02	n/a	GoodResponse	0	n/a	n/a	8	49	Cue	Neutral	True
467.271	4.0	Control	0.66	0.0	Yes	2.88	0.001	n/a	GoodResponse	0	n/a	n/a	8	49	Fixation	Neutral	True
471.266	0.39	Control	0.66	0.004	Yes	2.88	-0.004	2.0	GoodResponse	0	0.243	470.509	8	49	Target	Neutral	True
471.509	0.3	Control	0.66	0.004	Yes	2.88	-0.004	2.0	GoodResponse	0	0.243	n/a	8	49	ButtonPress	Neutral	True
471.667	0.31	Control	0.66	n/a	Yes	2.88	n/a	n/a	GoodResponse	0	n/a	n/a	8	49	Blank	Neutral	True
471.968	1.45	Control	0.66	n/a	Yes	2.88	n/a	5.0	GoodResponse	0	0.007	470.975	8	49	Feedback	Neutral	True
473.423	2.88	Control	0.66	n/a	Yes	2.88	n/a	n/a	GoodResponse	0	0.0	n/a	8	49	ISIslide	Neutral	True
476.331	0.25	Control	0.6667000000000001	0.0	Yes	2.769	0.031	n/a	GoodResponse	0	n/a	n/a	8	50	Cue	Neutral	True
476.582	4.0	Control	0.6667000000000001	0.0	Yes	2.769	0.001	n/a	GoodResponse	0	n/a	n/a	8	50	Fixation	Neutral	True
480.577	0.39	Control	0.6667000000000001	0.004	Yes	2.769	-0.004	2.0	GoodResponse	0	0.21	479.787	8	50	Target	Neutral	True
480.787	0.3	Control	0.6667000000000001	0.004	Yes	2.769	-0.004	2.0	GoodResponse	0	0.21	n/a	8	50	ButtonPress	Neutral	True
480.978	0.31	Control	0.6667000000000001	n/a	Yes	2.769	n/a	n/a	GoodResponse	0	n/a	n/a	8	50	Blank	Neutral	True
481.279	1.45	Control	0.6667000000000001	n/a	Yes	2.769	n/a	5.0	GoodResponse	0	0.009	480.288	8	50	Feedback	Neutral	True
482.734	2.769	Control	0.6667000000000001	n/a	Yes	2.769	n/a	n/a	GoodResponse	0	0.0	n/a	8	50	ISIslide	Neutral	True
485.525	0.25	Control	0.6731	0.0	Yes	2.725	0.025	n/a	GoodResponse	0	n/a	n/a	8	51	Cue	Neutral	True
485.776	3.95	Control	0.6731	0.0	Yes	2.725	0.001	n/a	GoodResponse	0	n/a	n/a	8	51	Fixation	Neutral	True
489.721	0.38	Control	0.6731	0.004	Yes	2.725	-0.004	2.0	GoodResponse	0	0.183	488.904	8	51	Target	Neutral	True
489.904	0.3	Control	0.6731	0.004	Yes	2.725	-0.004	2.0	GoodResponse	0	0.183	n/a	8	51	ButtonPress	Neutral	True
490.106	0.32	Control	0.6731	n/a	Yes	2.725	n/a	n/a	GoodResponse	0	n/a	n/a	8	51	Blank	Neutral	True
490.423	1.45	Control	0.6731	n/a	Yes	2.725	n/a	5.0	GoodResponse	0	0.036	489.459	8	51	Feedback	Neutral	True
491.878	2.725	Control	0.6731	n/a	Yes	2.725	n/a	n/a	GoodResponse	0	0.0	n/a	8	51	ISIslide	Neutral	True
494.619	0.25	Control	0.6792	0.0	Yes	2.631	0.019	n/a	GoodResponse	0	n/a	n/a	8	52	Cue	Neutral	True
494.87	4.05	Control	0.6792	0.0	Yes	2.631	0.001	n/a	GoodResponse	0	n/a	n/a	8	52	Fixation	Neutral	True
498.916	0.37	Control	0.6792	0.003	Yes	2.631	-0.003	2.0	GoodResponse	0	0.22	498.136	8	52	Target	Neutral	True
499.136	0.3	Control	0.6792	0.003	Yes	2.631	-0.003	2.0	GoodResponse	0	0.22	n/a	8	52	ButtonPress	Neutral	True
499.3	0.33	Control	0.6792	n/a	Yes	2.631	n/a	n/a	GoodResponse	0	n/a	n/a	8	52	Blank	Neutral	True
499.618	1.45	Control	0.6792	n/a	Yes	2.631	n/a	5.0	GoodResponse	0	0.012	498.63	8	52	Feedback	Neutral	True
501.072	2.631	Control	0.6792	n/a	Yes	2.631	n/a	n/a	GoodResponse	0	0.0	n/a	8	52	ISIslide	Neutral	True
503.73	0.25	Win2	0.6851999999999999	0.0	Yes	2.92	0.03	n/a	GoodResponse	1	n/a	n/a	9	53	Cue	Win	True
503.981	4.05	Win2	0.6851999999999999	0.0	Yes	2.92	0.001	n/a	GoodResponse	1	n/a	n/a	9	53	Fixation	Win	True
508.026	0.36	Win2	0.6851999999999999	0.004	Yes	2.92	-0.004	2.0	GoodResponse	1	0.199	507.225	9	53	Target	Win	True
508.225	0.3	Win2	0.6851999999999999	0.004	Yes	2.92	-0.004	2.0	GoodResponse	1	0.199	n/a	9	53	ButtonPress	Win	True
508.394	0.34	Win2	0.6851999999999999	n/a	Yes	2.92	n/a	n/a	GoodResponse	1	n/a	n/a	9	53	Blank	Win	True
508.728	1.45	Win2	0.6851999999999999	n/a	Yes	2.92	n/a	5.0	GoodResponse	1	0.024	507.752	9	53	Feedback	Win	True
510.183	2.92	Win2	0.6851999999999999	n/a	Yes	2.92	n/a	n/a	GoodResponse	1	0.0	n/a	9	53	ISIslide	Win	True
513.125	0.25	Win2	0.6909000000000001	0.0	Yes	2.725	0.025	n/a	GoodResponse	1	n/a	n/a	10	54	Cue	Win	True
513.375	3.95	Win2	0.6909000000000001	0.001	Yes	2.725	0.0	n/a	GoodResponse	1	n/a	n/a	10	54	Fixation	Win	True
517.321	0.35	Win2	0.6909000000000001	0.004	Yes	2.725	-0.004	2.0	GoodResponse	1	0.207	516.528	10	54	Target	Win	True
517.528	0.3	Win2	0.6909000000000001	0.004	Yes	2.725	-0.004	2.0	GoodResponse	1	0.207	n/a	10	54	ButtonPress	Win	True
517.672	0.35	Win2	0.6909000000000001	n/a	Yes	2.725	n/a	n/a	GoodResponse	1	n/a	n/a	10	54	Blank	Win	True
518.023	1.45	Win2	0.6909000000000001	n/a	Yes	2.725	n/a	5.0	GoodResponse	1	0.046	517.069	10	54	Feedback	Win	True
519.477	2.725	Win2	0.6909000000000001	n/a	Yes	2.725	n/a	n/a	GoodResponse	1	0.0	n/a	10	54	ISIslide	Win	True
522.219	0.25	Control	0.6964	0.0	Yes	3.031	0.019	n/a	GoodResponse	0	n/a	n/a	10	55	Cue	Neutral	True
522.469	3.95	Control	0.6964	0.0	Yes	3.031	0.0	n/a	GoodResponse	0	n/a	n/a	10	55	Fixation	Neutral	True
526.431	0.34	Control	0.6964	0.0	Yes	3.031	0.012	2.0	GoodResponse	0	0.181	525.612	10	55	Target	Neutral	True
526.612	0.3	Control	0.6964	0.0	Yes	3.031	0.012	2.0	GoodResponse	0	0.181	n/a	10	55	ButtonPress	Neutral	True
526.766	0.36	Control	0.6964	n/a	Yes	3.031	n/a	n/a	GoodResponse	0	n/a	n/a	10	55	Blank	Neutral	True
527.117	1.45	Control	0.6964	n/a	Yes	3.031	n/a	5.0	GoodResponse	0	0.025	526.142	10	55	Feedback	Neutral	True
528.571	3.031	Control	0.6964	n/a	Yes	3.031	n/a	n/a	GoodResponse	0	0.0	n/a	10	55	ISIslide	Neutral	True
531.63	0.25	Control	0.7018000000000001	0.0	Yes	2.82	0.03	n/a	GoodResponse	0	n/a	n/a	10	56	Cue	Neutral	True
531.881	3.95	Control	0.7018000000000001	0.0	Yes	2.82	0.001	n/a	GoodResponse	0	n/a	n/a	10	56	Fixation	Neutral	True
535.826	0.33	Control	0.7018000000000001	0.004	Yes	2.82	-0.004	2.0	GoodResponse	0	0.229	535.055	10	56	Target	Neutral	True
536.055	0.3	Control	0.7018000000000001	0.004	Yes	2.82	-0.004	2.0	GoodResponse	0	0.229	n/a	10	56	ButtonPress	Neutral	True
536.16	0.37	Control	0.7018000000000001	n/a	Yes	2.82	n/a	n/a	GoodResponse	0	n/a	n/a	10	56	Blank	Neutral	True
536.528	1.45	Control	0.7018000000000001	n/a	Yes	2.82	n/a	5.0	GoodResponse	0	0.028	535.556	10	56	Feedback	Neutral	True
537.982	2.82	Control	0.7018000000000001	n/a	Yes	2.82	n/a	n/a	GoodResponse	0	0.0	n/a	10	56	ISIslide	Neutral	True
540.824	0.25	Control	0.7069	0.0	Yes	3.476	0.024	n/a	GoodResponse	0	n/a	n/a	10	57	Cue	Neutral	True
541.075	4.0	Control	0.7069	0.0	Yes	3.476	0.001	n/a	GoodResponse	0	n/a	n/a	10	57	Fixation	Neutral	True
545.07	0.32	Control	0.7069	0.004	Yes	3.476	-0.004	2.0	GoodResponse	0	0.246	544.316	10	57	Target	Neutral	True
545.316	0.3	Control	0.7069	0.004	Yes	3.476	-0.004	2.0	GoodResponse	0	0.246	n/a	10	57	ButtonPress	Neutral	True
545.405	0.38	Control	0.7069	n/a	Yes	3.476	n/a	n/a	GoodResponse	0	n/a	n/a	10	57	Blank	Neutral	True
545.772	1.45	Control	0.7069	n/a	Yes	3.476	n/a	5.0	GoodResponse	0	0.008	544.78	10	57	Feedback	Neutral	True
547.227	3.476	Control	0.7069	n/a	Yes	3.476	n/a	n/a	GoodResponse	0	0.0	n/a	10	57	ISIslide	Neutral	True
550.721	0.25	Win2	0.7119	0.0	Yes	2.729	0.021	n/a	GoodResponse	1	n/a	n/a	11	58	Cue	Win	True
550.971	4.05	Win2	0.7119	0.0	Yes	2.729	0.0	n/a	GoodResponse	1	n/a	n/a	11	58	Fixation	Win	True
555.017	0.31	Win2	0.7119	0.004	Yes	2.729	-0.004	2.0	GoodResponse	1	0.181	554.198	11	58	Target	Win	True
555.198	0.3	Win2	0.7119	0.004	Yes	2.729	-0.004	2.0	GoodResponse	1	0.181	n/a	11	58	ButtonPress	Win	True
555.334	0.39	Win2	0.7119	n/a	Yes	2.729	n/a	n/a	GoodResponse	1	n/a	n/a	11	58	Blank	Win	True
555.719	1.45	Win2	0.7119	n/a	Yes	2.729	n/a	5.0	GoodResponse	1	0.008	554.727	11	58	Feedback	Win	True
557.173	2.729	Win2	0.7119	n/a	Yes	2.729	n/a	n/a	GoodResponse	1	0.0	n/a	11	58	ISIslide	Win	True
559.931	0.25	Lose2	0.7167	0.001	Yes	2.669	0.031	n/a	GoodResponse	0	n/a	n/a	11	59	Cue	AvoidedLoss	True
560.182	4.0	Lose2	0.7167	0.0	Yes	2.669	0.001	n/a	GoodResponse	0	n/a	n/a	11	59	Fixation	AvoidedLoss	True
564.178	0.3	Lose2	0.7167	0.003	Yes	2.669	-0.003	2.0	GoodResponse	0	0.227	563.405	11	59	Target	AvoidedLoss	True
564.405	0.3	Lose2	0.7167	0.003	Yes	2.669	-0.003	2.0	GoodResponse	0	0.227	n/a	11	59	ButtonPress	AvoidedLoss	True
564.478	0.4	Lose2	0.7167	n/a	Yes	2.669	n/a	n/a	GoodResponse	0	n/a	n/a	11	59	Blank	AvoidedLoss	True
564.88	1.45	Lose2	0.7167	n/a	Yes	2.669	n/a	5.0	GoodResponse	0	0.018	563.898	11	59	Feedback	AvoidedLoss	True
566.334	2.669	Lose2	0.7167	n/a	Yes	2.669	n/a	n/a	GoodResponse	0	0.0	n/a	11	59	ISIslide	AvoidedLoss	True
569.025	0.25	Control	0.7212999999999999	0.0	Yes	2.675	0.025	n/a	GoodResponse	0	n/a	n/a	11	60	Cue	Neutral	True
569.276	4.0	Control	0.7212999999999999	0.0	Yes	2.675	0.001	n/a	GoodResponse	0	n/a	n/a	11	60	Fixation	Neutral	True
573.271	0.29	Control	0.7212999999999999	0.004	Yes	2.675	-0.004	2.0	GoodResponse	0	0.21	572.481	11	60	Target	Neutral	True
573.481	0.3	Control	0.7212999999999999	0.004	Yes	2.675	-0.004	2.0	GoodResponse	0	0.21	n/a	11	60	ButtonPress	Neutral	True
573.572	0.41	Control	0.7212999999999999	n/a	Yes	2.675	n/a	n/a	GoodResponse	0	n/a	n/a	11	60	Blank	Neutral	True
573.974	1.45	Control	0.7212999999999999	n/a	Yes	2.675	n/a	5.0	GoodResponse	0	0.046	573.02	11	60	Feedback	Neutral	True
575.428	2.675	Control	0.7212999999999999	n/a	Yes	2.675	n/a	n/a	GoodResponse	0	0.0	n/a	11	60	ISIslide	Neutral	True
578.119	0.25	Lose2	0.7258	0.0	Yes	2.981	0.019	n/a	GoodResponse	0	n/a	n/a	11	61	Cue	AvoidedLoss	True
578.37	4.0	Lose2	0.7258	0.0	Yes	2.981	0.001	n/a	GoodResponse	0	n/a	n/a	11	61	Fixation	AvoidedLoss	True
582.365	0.28	Lose2	0.7258	0.004	Yes	2.981	-0.004	2.0	GoodResponse	0	0.188	581.553	11	61	Target	AvoidedLoss	True
582.553	0.3	Lose2	0.7258	0.004	Yes	2.981	-0.004	2.0	GoodResponse	0	0.188	n/a	11	61	ButtonPress	AvoidedLoss	True
582.649	0.42	Lose2	0.7258	n/a	Yes	2.981	n/a	n/a	GoodResponse	0	n/a	n/a	11	61	Blank	AvoidedLoss	True
583.067	1.45	Lose2	0.7258	n/a	Yes	2.981	n/a	5.0	GoodResponse	0	0.025	582.092	11	61	Feedback	AvoidedLoss	True
584.522	2.981	Lose2	0.7258	n/a	Yes	2.981	n/a	n/a	GoodResponse	0	0.0	n/a	11	61	ISIslide	AvoidedLoss	True
587.531	0.25	Lose2	0.7302	0.0	Yes	2.869	0.031	n/a	GoodResponse	0	n/a	n/a	11	62	Cue	AvoidedLoss	True
587.781	3.9	Lose2	0.7302	0.001	Yes	2.869	0.0	n/a	GoodResponse	0	n/a	n/a	11	62	Fixation	AvoidedLoss	True
591.677	0.27	Lose2	0.7302	0.004	Yes	2.869	-0.004	2.0	GoodResponse	0	0.233	590.91	11	62	Target	AvoidedLoss	True
591.91	0.3	Lose2	0.7302	0.004	Yes	2.869	-0.004	2.0	GoodResponse	0	0.233	n/a	11	62	ButtonPress	AvoidedLoss	True
591.961	0.43	Lose2	0.7302	n/a	Yes	2.869	n/a	n/a	GoodResponse	0	n/a	n/a	11	62	Blank	AvoidedLoss	True
592.379	1.45	Lose2	0.7302	n/a	Yes	2.869	n/a	5.0	GoodResponse	0	0.03	591.409	11	62	Feedback	AvoidedLoss	True
593.833	2.869	Lose2	0.7302	n/a	Yes	2.869	n/a	n/a	GoodResponse	0	0.0	n/a	11	62	ISIslide	AvoidedLoss	True
596.725	0.25	Lose2	0.7343999999999999	0.0	Yes	2.625	0.025	n/a	GoodResponse	0	n/a	n/a	11	63	Cue	AvoidedLoss	True
596.976	4.05	Lose2	0.7343999999999999	0.0	Yes	2.625	0.001	n/a	GoodResponse	0	n/a	n/a	11	63	Fixation	AvoidedLoss	True
601.021	0.26	Lose2	0.7343999999999999	0.004	Yes	2.625	-0.004	2.0	GoodResponse	0	0.227	600.248	11	63	Target	AvoidedLoss	True
601.248	0.3	Lose2	0.7343999999999999	0.004	Yes	2.625	-0.004	2.0	GoodResponse	0	0.227	n/a	11	63	ButtonPress	AvoidedLoss	True
601.289	0.44	Lose2	0.7343999999999999	n/a	Yes	2.625	n/a	n/a	GoodResponse	0	n/a	n/a	11	63	Blank	AvoidedLoss	True
601.723	1.45	Lose2	0.7343999999999999	n/a	Yes	2.625	n/a	5.0	GoodResponse	0	0.006	600.729	11	63	Feedback	AvoidedLoss	True
603.178	2.625	Lose2	0.7343999999999999	n/a	Yes	2.625	n/a	n/a	GoodResponse	0	0.0	n/a	11	63	ISIslide	AvoidedLoss	True
605.819	0.25	Win2	0.7384999999999999	0.0	Yes	3.131	0.019	n/a	GoodResponse	1	n/a	n/a	12	64	Cue	Win	True
606.07	4.15	Win2	0.7384999999999999	0.0	Yes	3.131	0.001	n/a	GoodResponse	1	n/a	n/a	12	64	Fixation	Win	True
610.215	0.25	Win2	0.7384999999999999	0.004	Yes	3.131	-0.004	2.0	GoodResponse	1	0.216	609.431	12	64	Target	Win	True
610.431	0.3	Win2	0.7384999999999999	0.004	Yes	3.131	-0.004	2.0	GoodResponse	1	0.216	n/a	12	64	ButtonPress	Win	True
610.466	0.45	Win2	0.7384999999999999	n/a	Yes	3.131	n/a	n/a	GoodResponse	1	n/a	n/a	12	64	Blank	Win	True
610.917	1.45	Win2	0.7384999999999999	n/a	Yes	3.131	n/a	5.0	GoodResponse	1	0.029	609.946	12	64	Feedback	Win	True
612.372	3.131	Win2	0.7384999999999999	n/a	Yes	3.131	n/a	n/a	GoodResponse	1	0.0	n/a	12	64	ISIslide	Win	True
615.515	0.25	Control	0.7273000000000001	0.0	No	2.785	0.015	n/a	LatePress	0	n/a	n/a	12	65	Cue	Neutral	True
615.765	4.0	Control	0.7273000000000001	0.0	No	2.785	0.0	n/a	LatePress	0	n/a	n/a	12	65	Fixation	Neutral	True
619.761	0.24	Control	0.7273000000000001	0.004	No	2.785	-0.004	2.0	LatePress	0	0.249	619.01	12	65	Target	Neutral	True
620.01	0.3	Control	0.7273000000000001	0.004	No	2.785	-0.004	2.0	LatePress	0	0.249	n/a	12	65	ButtonPress	Neutral	True
620.011	0.46	Control	0.7273000000000001	n/a	No	2.785	n/a	n/a	LatePress	0	n/a	n/a	12	65	Blank	Neutral	True
620.463	1.45	Control	0.7273000000000001	n/a	No	2.785	n/a	5.0	LatePress	0	0.044	619.507	12	65	Feedback	Neutral	True
621.917	2.785	Control	0.7273000000000001	n/a	No	2.785	n/a	n/a	LatePress	0	0.0	n/a	12	65	ISIslide	Neutral	True
624.725	0.25	Win2	0.7313	0.001	Yes	2.775	0.025	n/a	GoodResponse	1	n/a	n/a	13	66	Cue	Win	True
624.976	3.9	Win2	0.7313	0.0	Yes	2.775	0.001	n/a	GoodResponse	1	n/a	n/a	13	66	Fixation	Win	True
628.871	0.23	Win2	0.7313	0.004	Yes	2.775	-0.004	2.0	GoodResponse	1	0.19	628.061	13	66	Target	Win	True
629.061	0.3	Win2	0.7313	0.004	Yes	2.775	-0.004	2.0	GoodResponse	1	0.19	n/a	13	66	ButtonPress	Win	True
629.105	0.47	Win2	0.7313	n/a	Yes	2.775	n/a	n/a	GoodResponse	1	n/a	n/a	13	66	Blank	Win	True
629.573	1.45	Win2	0.7313	n/a	Yes	2.775	n/a	5.0	GoodResponse	1	0.008	628.581	13	66	Feedback	Win	True
631.028	2.775	Win2	0.7313	n/a	Yes	2.775	n/a	n/a	GoodResponse	1	0.0	n/a	13	66	ISIslide	Win	True
633.819	0.25	Control	0.7353000000000001	0.0	Yes	2.731	0.019	n/a	GoodResponse	0	n/a	n/a	13	67	Cue	Neutral	True
634.07	3.95	Control	0.7353000000000001	0.0	Yes	2.731	0.001	n/a	GoodResponse	0	n/a	n/a	13	67	Fixation	Neutral	True
638.015	0.22	Control	0.7353000000000001	0.004	Yes	2.731	-0.004	2.0	GoodResponse	0	0.203	637.218	13	67	Target	Neutral	True
638.218	0.3	Control	0.7353000000000001	0.004	Yes	2.731	-0.004	2.0	GoodResponse	0	0.203	n/a	13	67	ButtonPress	Neutral	True
638.249	0.48	Control	0.7353000000000001	n/a	Yes	2.731	n/a	n/a	GoodResponse	0	n/a	n/a	13	67	Blank	Neutral	True
638.717	1.45	Control	0.7353000000000001	n/a	Yes	2.731	n/a	5.0	GoodResponse	0	0.033	637.75	13	67	Feedback	Neutral	True
640.172	2.731	Control	0.7353000000000001	n/a	Yes	2.731	n/a	n/a	GoodResponse	0	0.0	n/a	13	67	ISIslide	Neutral	True
642.93	0.25	Win2	0.7391	0.0	Yes	3.07	0.03	n/a	GoodResponse	1	n/a	n/a	14	68	Cue	Win	True
643.181	4.0	Win2	0.7391	0.0	Yes	3.07	0.001	n/a	GoodResponse	1	n/a	n/a	14	68	Fixation	Win	True
647.176	0.21	Win2	0.7391	0.004	Yes	3.07	-0.004	2.0	GoodResponse	1	0.203	646.379	14	68	Target	Win	True
647.379	0.3	Win2	0.7391	0.004	Yes	3.07	-0.004	2.0	GoodResponse	1	0.203	n/a	14	68	ButtonPress	Win	True
647.393	0.49	Win2	0.7391	n/a	Yes	3.07	n/a	n/a	GoodResponse	1	n/a	n/a	14	68	Blank	Win	True
647.878	1.45	Win2	0.7391	n/a	Yes	3.07	n/a	5.0	GoodResponse	1	0.043	646.921	14	68	Feedback	Win	True
649.332	3.07	Win2	0.7391	n/a	Yes	3.07	n/a	n/a	GoodResponse	1	0.0	n/a	14	68	ISIslide	Win	True
652.425	0.25	Win2	0.7286	0.0	No	3.225	0.025	n/a	NoResponse	0	n/a	n/a	14	69	Cue	MissedWin	True
652.676	3.95	Win2	0.7286	0.0	No	3.225	0.001	n/a	NoResponse	0	n/a	n/a	14	69	Fixation	MissedWin	True
656.621	0.2	Win2	0.7286	0.004	No	3.225	-0.004	2.0	NoResponse	0	0.233	655.854	14	69	Target	MissedWin	True
656.822	0.5	Win2	0.7286	n/a	No	3.225	n/a	n/a	NoResponse	0	n/a	n/a	14	69	Blank	MissedWin	True
656.854	0.3	Win2	0.7286	0.004	No	3.225	-0.004	2.0	NoResponse	0	0.233	n/a	14	69	ButtonPress	MissedWin	True
657.323	1.45	Win2	0.7286	n/a	No	3.225	n/a	5.0	NoResponse	0	0.013	656.336	14	69	Feedback	MissedWin	True
658.777	3.225	Win2	0.7286	n/a	No	3.225	n/a	n/a	NoResponse	0	0.0	n/a	14	69	ISIslide	MissedWin	True
662.02	0.25	Lose2	0.7323999999999999	0.001	Yes	3.03	0.02	n/a	GoodResponse	0	n/a	n/a	14	70	Cue	AvoidedLoss	True
662.271	4.05	Lose2	0.7323999999999999	0.0	Yes	3.03	0.001	n/a	GoodResponse	0	n/a	n/a	14	70	Fixation	AvoidedLoss	True
666.317	0.19	Lose2	0.7323999999999999	0.003	Yes	3.03	-0.003	2.0	GoodResponse	0	0.168	665.485	14	70	Target	AvoidedLoss	True
666.485	0.3	Lose2	0.7323999999999999	0.003	Yes	3.03	-0.003	2.0	GoodResponse	0	0.168	n/a	14	70	ButtonPress	AvoidedLoss	True
666.517	0.51	Lose2	0.7323999999999999	n/a	Yes	3.03	n/a	n/a	GoodResponse	0	n/a	n/a	14	70	Blank	AvoidedLoss	True
667.019	1.45	Lose2	0.7323999999999999	n/a	Yes	3.03	n/a	5.0	GoodResponse	0	0.024	666.043	14	70	Feedback	AvoidedLoss	True
668.473	3.03	Lose2	0.7323999999999999	n/a	Yes	3.03	n/a	n/a	GoodResponse	0	0.0	n/a	14	70	ISIslide	AvoidedLoss	True
671.515	0.25	Win2	0.7222	0.001	No	2.735	0.015	n/a	NoResponse	0	n/a	n/a	14	71	Cue	MissedWin	False
671.766	4.05	Win2	0.7222	0.0	No	2.735	0.001	2.0	NoResponse	0	0.043	670.809	14	71	Fixation	MissedWin	False
671.809	0.3	Win2	0.7222	0.0	No	2.735	0.001	2.0	NoResponse	0	0.043	n/a	14	71	ButtonPress	MissedWin	False
675.812	0.18	Win2	0.7222	0.003	No	2.735	-0.003	2.0	NoResponse	0	0.218	675.03	14	71	Target	MissedWin	False
675.996	0.52	Win2	0.7222	n/a	No	2.735	n/a	n/a	NoResponse	0	n/a	n/a	14	71	Blank	MissedWin	False
676.03	0.3	Win2	0.7222	0.003	No	2.735	-0.003	2.0	NoResponse	0	0.218	n/a	14	71	ButtonPress	MissedWin	False
676.514	1.45	Win2	0.7222	n/a	No	2.735	n/a	5.0	NoResponse	0	0.042	675.556	14	71	Feedback	MissedWin	False
677.968	2.735	Win2	0.7222	n/a	No	2.735	n/a	n/a	NoResponse	0	0.0	n/a	14	71	ISIslide	MissedWin	False
680.726	0.25	Win2	0.7123	0.0	No	2.774	0.026	n/a	NoResponse	0	n/a	n/a	14	72	Cue	MissedWin	True
680.977	4.1	Win2	0.7123	0.0	No	2.774	0.001	n/a	NoResponse	0	n/a	n/a	14	72	Fixation	MissedWin	True
685.073	0.17	Win2	0.7123	0.003	No	2.774	-0.003	2.0	NoResponse	0	0.198	684.271	14	72	Target	MissedWin	True
685.257	0.53	Win2	0.7123	n/a	No	2.774	n/a	n/a	NoResponse	0	n/a	n/a	14	72	Blank	MissedWin	True
685.271	0.3	Win2	0.7123	0.003	No	2.774	-0.003	2.0	NoResponse	0	0.198	n/a	14	72	ButtonPress	MissedWin	True
685.775	1.45	Win2	0.7123	n/a	No	2.774	n/a	5.0	NoResponse	0	0.048	684.823	14	72	Feedback	MissedWin	True
687.229	2.774	Win2	0.7123	n/a	No	2.774	n/a	n/a	NoResponse	0	0.0	n/a	14	72	ISIslide	MissedWin	True
690.021	0.25	Win2	0.7027	0.0	No	2.679	0.021	n/a	NoResponse	0	n/a	n/a	14	73	Cue	MissedWin	True
690.272	4.0	Win2	0.7027	0.0	No	2.679	0.001	n/a	NoResponse	0	n/a	n/a	14	73	Fixation	MissedWin	True
694.267	0.16	Win2	0.7027	0.004	No	2.679	-0.004	2.0	NoResponse	0	0.209	693.476	14	73	Target	MissedWin	True
694.434	0.54	Win2	0.7027	n/a	No	2.679	n/a	n/a	NoResponse	0	n/a	n/a	14	73	Blank	MissedWin	True
694.476	0.3	Win2	0.7027	0.004	No	2.679	-0.004	2.0	NoResponse	0	0.209	n/a	14	73	ButtonPress	MissedWin	True
694.969	1.45	Win2	0.7027	n/a	No	2.679	n/a	5.0	NoResponse	0	0.025	693.994	14	73	Feedback	MissedWin	True
696.423	2.679	Win2	0.7027	n/a	No	2.679	n/a	n/a	NoResponse	0	0.0	n/a	14	73	ISIslide	MissedWin	True
699.131	0.25	Lose2	0.6933	0.001	No	2.619	0.031	n/a	PrematurePress	-1	n/a	n/a	13	74	Cue	Loss	True
699.382	4.05	Lose2	0.6933	0.0	No	2.619	0.001	n/a	PrematurePress	-1	n/a	n/a	13	74	Fixation	Loss	True
703.428	0.15	Lose2	0.6933	0.003	No	2.619	-0.003	2.0	PrematurePress	-1	0.067	702.495	13	74	Target	Loss	True
703.495	0.3	Lose2	0.6933	0.003	No	2.619	-0.003	2.0	PrematurePress	-1	0.067	n/a	13	74	ButtonPress	Loss	True
703.578	0.55	Lose2	0.6933	n/a	No	2.619	n/a	n/a	PrematurePress	-1	n/a	n/a	13	74	Blank	Loss	True
704.13	1.45	Lose2	0.6933	n/a	No	2.619	n/a	5.0	PrematurePress	-1	0.035	703.165	13	74	Feedback	Loss	True
705.584	2.619	Lose2	0.6933	n/a	No	2.619	n/a	n/a	PrematurePress	-1	0.0	n/a	13	74	ISIslide	Loss	True
708.225	0.25	Lose2	0.6842	0.0	No	2.925	0.025	n/a	NoResponse	-1	n/a	n/a	12	75	Cue	Loss	True
708.476	3.95	Lose2	0.6842	0.0	No	2.925	0.001	n/a	NoResponse	-1	n/a	n/a	12	75	Fixation	Loss	True
712.421	0.15	Lose2	0.6842	0.004	No	2.925	-0.004	2.0	NoResponse	-1	0.186	711.607	12	75	Target	Loss	True
712.572	0.55	Lose2	0.6842	n/a	No	2.925	n/a	n/a	NoResponse	-1	n/a	n/a	12	75	Blank	Loss	True
712.607	0.3	Lose2	0.6842	0.004	No	2.925	-0.004	2.0	NoResponse	-1	0.186	n/a	12	75	ButtonPress	Loss	True
713.123	1.45	Lose2	0.6842	n/a	No	2.925	n/a	5.0	NoResponse	-1	0.017	712.14	12	75	Feedback	Loss	True
714.578	2.925	Lose2	0.6842	n/a	No	2.925	n/a	n/a	NoResponse	-1	0.0	n/a	12	75	ISIslide	Loss	True
717.52	0.25	Control	0.6753	0.0	No	3.23	0.02	n/a	NoResponse	0	n/a	n/a	12	76	Cue	Neutral	True
717.771	4.05	Control	0.6753	0.0	No	3.23	0.001	n/a	NoResponse	0	n/a	n/a	12	76	Fixation	Neutral	True
721.816	0.15	Control	0.6753	0.004	No	3.23	-0.004	2.0	NoResponse	0	0.204	721.02	12	76	Target	Neutral	True
721.966	0.55	Control	0.6753	n/a	No	3.23	n/a	n/a	NoResponse	0	n/a	n/a	12	76	Blank	Neutral	True
722.02	0.3	Control	0.6753	0.004	No	3.23	-0.004	2.0	NoResponse	0	0.204	n/a	12	76	ButtonPress	Neutral	True
722.518	1.45	Control	0.6753	n/a	No	3.23	n/a	5.0	NoResponse	0	0.037	721.555	12	76	Feedback	Neutral	True
723.973	3.23	Control	0.6753	n/a	No	3.23	n/a	n/a	NoResponse	0	0.0	n/a	12	76	ISIslide	Neutral	True
727.216	0.25	Lose2	0.6667000000000001	0.0	No	2.584	0.016	n/a	NoResponse	-1	n/a	n/a	11	77	Cue	Loss	True
727.466	3.95	Lose2	0.6667000000000001	0.0	No	2.584	0.0	n/a	NoResponse	-1	n/a	n/a	11	77	Fixation	Loss	True
731.428	0.15	Lose2	0.6667000000000001	0.0	No	2.584	0.012	2.0	NoResponse	-1	0.169	730.597	11	77	Target	Loss	True
731.562	0.55	Lose2	0.6667000000000001	n/a	No	2.584	n/a	n/a	NoResponse	-1	n/a	n/a	11	77	Blank	Loss	True
731.597	0.3	Lose2	0.6667000000000001	0.0	No	2.584	0.012	2.0	NoResponse	-1	0.169	n/a	11	77	ButtonPress	Loss	True
732.114	1.45	Lose2	0.6667000000000001	n/a	No	2.584	n/a	5.0	NoResponse	-1	0.001	731.115	11	77	Feedback	Loss	True
733.568	2.584	Lose2	0.6667000000000001	n/a	No	2.584	n/a	n/a	NoResponse	-1	0.0	n/a	11	77	ISIslide	Loss	True
