onset	duration	cue_type	current_mean_accuracy	duration_error	is_hit	isi_adjusted	onset_delay	response	response_type	reward	rt	rt_time	total_reward	trial_number	trial_phase	trial_type	one_press
11.097	0.25	Control	0.0	0.0	No	2.953	-0.003	n/a	NoResponse	0	n/a	n/a	0	0	Cue	Neutral	True
11.348	3.85	Control	0.0	0.0	No	2.953	0.001	2.0	NoResponse	0	0.006	10.354	0	0	Fixation	Neutral	True
11.354	0.3	Control	0.0	0.0	No	2.953	0.001	2.0	NoResponse	0	0.006	n/a	0	0	ButtonPress	Neutral	True
15.193	0.4	Control	0.0	0.004	No	2.953	-0.004	n/a	NoResponse	0	n/a	n/a	0	0	Target	Neutral	True
15.594	0.3	Control	0.0	n/a	No	2.953	n/a	n/a	NoResponse	0	n/a	n/a	0	0	Blank	Neutral	True
15.895	1.45	Control	0.0	n/a	No	2.953	n/a	5.0	NoResponse	0	0.03	14.925	0	0	Feedback	Neutral	True
17.349	2.953	Control	0.0	n/a	No	2.953	n/a	n/a	NoResponse	0	0.0	n/a	0	0	ISIslide	Neutral	True
20.325	0.25	Lose2	0.5	0.0	Yes	2.775	0.025	n/a	GoodResponse	0	n/a	n/a	0	1	Cue	AvoidedLoss	True
20.575	4.0	Lose2	0.5	0.0	Yes	2.775	0.0	n/a	GoodResponse	0	n/a	n/a	0	1	Fixation	AvoidedLoss	True
24.571	0.41	Lose2	0.5	0.004	Yes	2.775	-0.004	2.0	GoodResponse	0	0.177	23.748	0	1	Target	AvoidedLoss	True
24.748	0.3	Lose2	0.5	0.004	Yes	2.775	-0.004	2.0	GoodResponse	0	0.177	n/a	0	1	ButtonPress	AvoidedLoss	True
24.989	0.29	Lose2	0.5	n/a	Yes	2.775	n/a	n/a	GoodResponse	0	n/a	n/a	0	1	Blank	AvoidedLoss	True
25.273	1.45	Lose2	0.5	n/a	Yes	2.775	n/a	5.0	GoodResponse	0	0.018	24.291	0	1	Feedback	AvoidedLoss	True
26.727	2.775	Lose2	0.5	n/a	Yes	2.775	n/a	n/a	GoodResponse	0	0.0	n/a	0	1	ISIslide	AvoidedLoss	True
29.519	0.25	Control	0.6667000000000001	0.0	Yes	2.581	0.019	n/a	GoodResponse	0	n/a	n/a	0	2	Cue	Neutral	True
29.77	4.1	Control	0.6667000000000001	0.0	Yes	2.581	0.001	n/a	GoodResponse	0	n/a	n/a	0	2	Fixation	Neutral	True
33.865	0.42	Control	0.6667000000000001	0.004	Yes	2.581	-0.004	2.0	GoodResponse	0	0.169	33.034	0	2	Target	Neutral	True
34.034	0.3	Control	0.6667000000000001	0.004	Yes	2.581	-0.004	2.0	GoodResponse	0	0.169	n/a	0	2	ButtonPress	Neutral	True
34.3	0.28	Control	0.6667000000000001	n/a	Yes	2.581	n/a	n/a	GoodResponse	0	n/a	n/a	0	2	Blank	Neutral	True
34.567	1.45	Control	0.6667000000000001	n/a	Yes	2.581	n/a	5.0	GoodResponse	0	0.042	33.609	0	2	Feedback	Neutral	True
36.022	2.581	Control	0.6667000000000001	n/a	Yes	2.581	n/a	n/a	GoodResponse	0	0.0	n/a	0	2	ISIslide	Neutral	True
38.629	0.25	Win2	0.75	0.001	Yes	2.821	0.029	n/a	GoodResponse	1	n/a	n/a	1	3	Cue	Win	True
38.88	3.95	Win2	0.75	0.0	Yes	2.821	0.001	n/a	GoodResponse	1	n/a	n/a	1	3	Fixation	Win	True
42.825	0.41	Win2	0.75	0.004	Yes	2.821	-0.004	2.0	GoodResponse	1	0.179	42.004	1	3	Target	Win	True
43.004	0.3	Win2	0.75	0.004	Yes	2.821	-0.004	2.0	GoodResponse	1	0.179	n/a	1	3	ButtonPress	Win	True
43.243	0.29	Win2	0.75	n/a	Yes	2.821	n/a	n/a	GoodResponse	1	n/a	n/a	1	3	Blank	Win	True
43.527	1.45	Win2	0.75	n/a	Yes	2.821	n/a	5.0	GoodResponse	1	0.008	42.535	1	3	Feedback	Win	True
44.982	2.821	Win2	0.75	n/a	Yes	2.821	n/a	n/a	GoodResponse	1	0.0	n/a	1	3	ISIslide	Win	True
47.824	0.25	Win2	0.8	0.0	Yes	3.276	0.024	n/a	GoodResponse	1	n/a	n/a	2	4	Cue	Win	True
48.074	4.0	Win2	0.8	0.0	Yes	3.276	0.0	n/a	GoodResponse	1	n/a	n/a	2	4	Fixation	Win	True
52.07	0.4	Win2	0.8	0.004	Yes	3.276	-0.004	2.0	GoodResponse	1	0.194	51.264	2	4	Target	Win	True
52.264	0.3	Win2	0.8	0.004	Yes	3.276	-0.004	2.0	GoodResponse	1	0.194	n/a	2	4	ButtonPress	Win	True
52.471	0.3	Win2	0.8	n/a	Yes	3.276	n/a	n/a	GoodResponse	1	n/a	n/a	2	4	Blank	Win	True
52.772	1.45	Win2	0.8	n/a	Yes	3.276	n/a	5.0	GoodResponse	1	0.031	51.803	2	4	Feedback	Win	True
54.226	3.276	Win2	0.8	n/a	Yes	3.276	n/a	n/a	GoodResponse	1	0.0	n/a	2	4	ISIslide	Win	True
57.519	0.25	Win2	0.8332999999999999	0.0	Yes	2.781	0.019	n/a	GoodResponse	1	n/a	n/a	3	5	Cue	Win	True
57.77	4.0	Win2	0.8332999999999999	0.0	Yes	2.781	0.001	n/a	GoodResponse	1	n/a	n/a	3	5	Fixation	Win	True
61.765	0.39	Win2	0.8332999999999999	0.004	Yes	2.781	-0.004	2.0	GoodResponse	1	0.189	60.954	3	5	Target	Win	True
61.954	0.3	Win2	0.8332999999999999	0.004	Yes	2.781	-0.004	2.0	GoodResponse	1	0.189	n/a	3	5	ButtonPress	Win	True
62.167	0.31	Win2	0.8332999999999999	n/a	Yes	2.781	n/a	n/a	GoodResponse	1	n/a	n/a	3	5	Blank	Win	True
62.467	1.45	Win2	0.8332999999999999	n/a	Yes	2.781	n/a	5.0	GoodResponse	1	0.043	61.51	3	5	Feedback	Win	True
63.922	2.781	Win2	0.8332999999999999	n/a	Yes	2.781	n/a	n/a	GoodResponse	1	0.0	n/a	3	5	ISIslide	Win	True
66.73	0.25	Lose2	0.8571	0.0	Yes	2.72	0.03	n/a	GoodResponse	0	n/a	n/a	3	6	Cue	AvoidedLoss	True
66.981	3.95	Lose2	0.8571	0.0	Yes	2.72	0.001	n/a	GoodResponse	0	n/a	n/a	3	6	Fixation	AvoidedLoss	True
70.926	0.38	Lose2	0.8571	0.004	Yes	2.72	-0.004	2.0	GoodResponse	0	0.191	70.117	3	6	Target	AvoidedLoss	True
71.117	0.3	Lose2	0.8571	0.004	Yes	2.72	-0.004	2.0	GoodResponse	0	0.191	n/a	3	6	ButtonPress	AvoidedLoss	True
71.311	0.32	Lose2	0.8571	n/a	Yes	2.72	n/a	n/a	GoodResponse	0	n/a	n/a	3	6	Blank	AvoidedLoss	True
71.628	1.45	Lose2	0.8571	n/a	Yes	2.72	n/a	5.0	GoodResponse	0	0.006	70.634	3	6	Feedback	AvoidedLoss	True
73.083	2.72	Lose2	0.8571	n/a	Yes	2.72	n/a	n/a	GoodResponse	0	0.0	n/a	3	6	ISIslide	AvoidedLoss	True
75.824	0.25	Lose2	0.875	0.0	Yes	4.026	0.024	n/a	GoodResponse	0	n/a	n/a	3	7	Cue	AvoidedLoss	True
76.075	4.05	Lose2	0.875	0.0	Yes	4.026	0.001	n/a	GoodResponse	0	n/a	n/a	3	7	Fixation	AvoidedLoss	True
80.12	0.37	Lose2	0.875	0.004	Yes	4.026	-0.004	2.0	GoodResponse	0	0.187	79.307	3	7	Target	AvoidedLoss	True
80.307	0.3	Lose2	0.875	0.004	Yes	4.026	-0.004	2.0	GoodResponse	0	0.187	n/a	3	7	ButtonPress	AvoidedLoss	True
80.505	0.33	Lose2	0.875	n/a	Yes	4.026	n/a	n/a	GoodResponse	0	n/a	n/a	3	7	Blank	AvoidedLoss	True
80.822	1.45	Lose2	0.875	n/a	Yes	4.026	n/a	5.0	GoodResponse	0	0.03	79.852	3	7	Feedback	AvoidedLoss	True
82.277	4.026	Lose2	0.875	n/a	Yes	4.026	n/a	n/a	GoodResponse	0	0.0	n/a	3	7	ISIslide	AvoidedLoss	True
86.322	0.25	Lose2	0.8889	0.0	Yes	3.028	0.022	n/a	GoodResponse	0	n/a	n/a	3	8	Cue	AvoidedLoss	True
86.573	3.95	Lose2	0.8889	0.0	Yes	3.028	0.001	n/a	GoodResponse	0	n/a	n/a	3	8	Fixation	AvoidedLoss	True
90.518	0.36	Lose2	0.8889	0.004	Yes	3.028	-0.004	2.0	GoodResponse	0	0.209	89.727	3	8	Target	AvoidedLoss	True
90.727	0.3	Lose2	0.8889	0.004	Yes	3.028	-0.004	2.0	GoodResponse	0	0.209	n/a	3	8	ButtonPress	AvoidedLoss	True
90.886	0.34	Lose2	0.8889	n/a	Yes	3.028	n/a	n/a	GoodResponse	0	n/a	n/a	3	8	Blank	AvoidedLoss	True
91.22	1.45	Lose2	0.8889	n/a	Yes	3.028	n/a	5.0	GoodResponse	0	0.022	90.242	3	8	Feedback	AvoidedLoss	True
92.675	3.028	Lose2	0.8889	n/a	Yes	3.028	n/a	n/a	GoodResponse	0	0.0	n/a	3	8	ISIslide	AvoidedLoss	True
95.717	0.25	Lose2	0.9	0.0	Yes	3.133	0.017	n/a	GoodResponse	0	n/a	n/a	3	9	Cue	AvoidedLoss	True
95.968	3.95	Lose2	0.9	0.0	Yes	3.133	0.001	n/a	GoodResponse	0	n/a	n/a	3	9	Fixation	AvoidedLoss	True
99.913	0.35	Lose2	0.9	0.004	Yes	3.133	-0.004	2.0	GoodResponse	0	0.189	99.102	3	9	Target	AvoidedLoss	True
100.102	0.3	Lose2	0.9	0.004	Yes	3.133	-0.004	2.0	GoodResponse	0	0.189	n/a	3	9	ButtonPress	AvoidedLoss	True
100.264	0.35	Lose2	0.9	n/a	Yes	3.133	n/a	n/a	GoodResponse	0	n/a	n/a	3	9	Blank	AvoidedLoss	True
100.615	1.45	Lose2	0.9	n/a	Yes	3.133	n/a	5.0	GoodResponse	0	0.042	99.657	3	9	Feedback	AvoidedLoss	True
102.069	3.133	Lose2	0.9	n/a	Yes	3.133	n/a	n/a	GoodResponse	0	0.0	n/a	3	9	ISIslide	AvoidedLoss	True
105.229	0.25	Control	0.9091	0.0	Yes	3.271	0.029	n/a	GoodResponse	0	n/a	n/a	3	10	Cue	Neutral	True
105.48	4.0	Control	0.9091	0.0	Yes	3.271	0.001	n/a	GoodResponse	0	n/a	n/a	3	10	Fixation	Neutral	True
109.475	0.34	Control	0.9091	0.004	Yes	3.271	-0.004	2.0	GoodResponse	0	0.19	108.665	3	10	Target	Neutral	True
109.665	0.3	Control	0.9091	0.004	Yes	3.271	-0.004	2.0	GoodResponse	0	0.19	n/a	3	10	ButtonPress	Neutral	True
109.826	0.36	Control	0.9091	n/a	Yes	3.271	n/a	n/a	GoodResponse	0	n/a	n/a	3	10	Blank	Neutral	True
110.177	1.45	Control	0.9091	n/a	Yes	3.271	n/a	5.0	GoodResponse	0	0.04	109.217	3	10	Feedback	Neutral	True
111.631	3.271	Control	0.9091	n/a	Yes	3.271	n/a	n/a	GoodResponse	0	0.0	n/a	3	10	ISIslide	Neutral	True
114.925	0.25	Lose2	0.9167000000000001	0.0	Yes	2.725	0.025	n/a	GoodResponse	0	n/a	n/a	3	11	Cue	AvoidedLoss	True
115.175	4.05	Lose2	0.9167000000000001	0.0	Yes	2.725	0.0	n/a	GoodResponse	0	n/a	n/a	3	11	Fixation	AvoidedLoss	True
119.221	0.33	Lose2	0.9167000000000001	0.004	Yes	2.725	-0.004	2.0	GoodResponse	0	0.183	118.404	3	11	Target	AvoidedLoss	True
119.404	0.3	Lose2	0.9167000000000001	0.004	Yes	2.725	-0.004	2.0	GoodResponse	0	0.183	n/a	3	11	ButtonPress	AvoidedLoss	True
119.555	0.37	Lose2	0.9167000000000001	n/a	Yes	2.725	n/a	n/a	GoodResponse	0	n/a	n/a	3	11	Blank	AvoidedLoss	True
119.923	1.45	Lose2	0.9167000000000001	n/a	Yes	2.725	n/a	5.0	GoodResponse	0	0.001	118.924	3	11	Feedback	AvoidedLoss	True
121.377	2.725	Lose2	0.9167000000000001	n/a	Yes	2.725	n/a	n/a	GoodResponse	0	0.0	n/a	3	11	ISIslide	AvoidedLoss	True
124.119	0.25	Control	0.9231	0.0	Yes	2.981	0.019	n/a	GoodResponse	0	n/a	n/a	3	12	Cue	Neutral	True
124.369	3.9	Control	0.9231	0.001	Yes	2.981	0.0	n/a	GoodResponse	0	n/a	n/a	3	12	Fixation	Neutral	True
128.281	0.32	Control	0.9231	0.0	Yes	2.981	0.012	2.0	GoodResponse	0	0.199	127.48	3	12	Target	Neutral	True
128.48	0.3	Control	0.9231	0.0	Yes	2.981	0.012	2.0	GoodResponse	0	0.199	n/a	3	12	ButtonPress	Neutral	True
128.599	0.38	Control	0.9231	n/a	Yes	2.981	n/a	n/a	GoodResponse	0	n/a	n/a	3	12	Blank	Neutral	True
128.967	1.45	Control	0.9231	n/a	Yes	2.981	n/a	5.0	GoodResponse	0	0.031	127.998	3	12	Feedback	Neutral	True
130.421	2.981	Control	0.9231	n/a	Yes	2.981	n/a	n/a	GoodResponse	0	0.0	n/a	3	12	ISIslide	Neutral	True
133.43	0.25	Control	0.9286	0.0	Yes	2.77	0.03	n/a	GoodResponse	0	n/a	n/a	3	13	Cue	Neutral	True
133.681	4.0	Control	0.9286	0.0	Yes	2.77	0.001	n/a	GoodResponse	0	n/a	n/a	3	13	Fixation	Neutral	True
137.676	0.31	Control	0.9286	0.004	Yes	2.77	-0.004	2.0	GoodResponse	0	0.187	136.863	3	13	Target	Neutral	True
137.863	0.3	Control	0.9286	0.004	Yes	2.77	-0.004	2.0	GoodResponse	0	0.187	n/a	3	13	ButtonPress	Neutral	True
137.994	0.39	Control	0.9286	n/a	Yes	2.77	n/a	n/a	GoodResponse	0	n/a	n/a	3	13	Blank	Neutral	True
138.378	1.45	Control	0.9286	n/a	Yes	2.77	n/a	5.0	GoodResponse	0	0.035	137.413	3	13	Feedback	Neutral	True
139.832	2.77	Control	0.9286	n/a	Yes	2.77	n/a	n/a	GoodResponse	0	0.0	n/a	3	13	ISIslide	Neutral	True
142.624	0.25	Win2	0.9333	0.0	Yes	2.676	0.024	n/a	GoodResponse	1	n/a	n/a	4	14	Cue	Win	True
142.875	4.1	Win2	0.9333	0.0	Yes	2.676	0.001	n/a	GoodResponse	1	n/a	n/a	4	14	Fixation	Win	True
146.97	0.3	Win2	0.9333	0.004	Yes	2.676	-0.004	2.0	GoodResponse	1	0.191	146.161	4	14	Target	Win	True
147.161	0.3	Win2	0.9333	0.004	Yes	2.676	-0.004	2.0	GoodResponse	1	0.191	n/a	4	14	ButtonPress	Win	True
147.271	0.4	Win2	0.9333	n/a	Yes	2.676	n/a	n/a	GoodResponse	1	n/a	n/a	4	14	Blank	Win	True
147.673	1.45	Win2	0.9333	n/a	Yes	2.676	n/a	5.0	GoodResponse	1	0.008	146.681	4	14	Feedback	Win	True
149.127	2.676	Win2	0.9333	n/a	Yes	2.676	n/a	n/a	GoodResponse	1	0.0	n/a	4	14	ISIslide	Win	True
151.818	0.25	Control	0.9375	0.0	Yes	2.982	0.018	n/a	GoodResponse	0	n/a	n/a	4	15	Cue	Neutral	True
152.069	4.0	Control	0.9375	0.0	Yes	2.982	0.001	n/a	GoodResponse	0	n/a	n/a	4	15	Fixation	Neutral	True
156.064	0.29	Control	0.9375	0.004	Yes	2.982	-0.004	2.0	GoodResponse	0	0.265	155.329	4	15	Target	Neutral	True
156.329	0.3	Control	0.9375	0.004	Yes	2.982	-0.004	2.0	GoodResponse	0	0.265	n/a	4	15	ButtonPress	Neutral	True
156.365	0.41	Control	0.9375	n/a	Yes	2.982	n/a	n/a	GoodResponse	0	n/a	n/a	4	15	Blank	Neutral	True
156.766	1.45	Control	0.9375	n/a	Yes	2.982	n/a	5.0	GoodResponse	0	0.036	155.802	4	15	Feedback	Neutral	True
158.221	2.982	Control	0.9375	n/a	Yes	2.982	n/a	n/a	GoodResponse	0	0.0	n/a	4	15	ISIslide	Neutral	True
161.23	0.25	Win2	0.9412	0.0	Yes	2.87	0.03	n/a	GoodResponse	1	n/a	n/a	5	16	Cue	Win	True
161.481	4.0	Win2	0.9412	0.0	Yes	2.87	0.001	n/a	GoodResponse	1	n/a	n/a	5	16	Fixation	Win	True
165.476	0.28	Win2	0.9412	0.004	Yes	2.87	-0.004	2.0	GoodResponse	1	0.195	164.671	5	16	Target	Win	True
165.671	0.3	Win2	0.9412	0.004	Yes	2.87	-0.004	2.0	GoodResponse	1	0.195	n/a	5	16	ButtonPress	Win	True
165.76	0.42	Win2	0.9412	n/a	Yes	2.87	n/a	n/a	GoodResponse	1	n/a	n/a	5	16	Blank	Win	True
166.178	1.45	Win2	0.9412	n/a	Yes	2.87	n/a	5.0	GoodResponse	1	0.039	165.217	5	16	Feedback	Win	True
167.632	2.87	Win2	0.9412	n/a	Yes	2.87	n/a	n/a	GoodResponse	1	0.0	n/a	5	16	ISIslide	Win	True
170.524	0.25	Lose2	0.9444	0.0	Yes	2.726	0.024	n/a	GoodResponse	0	n/a	n/a	5	17	Cue	AvoidedLoss	True
170.775	3.95	Lose2	0.9444	0.0	Yes	2.726	0.001	n/a	GoodResponse	0	n/a	n/a	5	17	Fixation	AvoidedLoss	True
174.72	0.27	Lose2	0.9444	0.004	Yes	2.726	-0.004	2.0	GoodResponse	0	0.205	173.925	5	17	Target	AvoidedLoss	True
174.925	0.3	Lose2	0.9444	0.004	Yes	2.726	-0.004	2.0	GoodResponse	0	0.205	n/a	5	17	ButtonPress	AvoidedLoss	True
175.004	0.43	Lose2	0.9444	n/a	Yes	2.726	n/a	n/a	GoodResponse	0	n/a	n/a	5	17	Blank	AvoidedLoss	True
175.422	1.45	Lose2	0.9444	n/a	Yes	2.726	n/a	5.0	GoodResponse	0	0.014	174.436	5	17	Feedback	AvoidedLoss	True
176.877	2.726	Lose2	0.9444	n/a	Yes	2.726	n/a	n/a	GoodResponse	0	0.0	n/a	5	17	ISIslide	AvoidedLoss	True
179.618	0.25	Lose2	0.9473999999999999	0.0	Yes	2.732	0.018	n/a	GoodResponse	0	n/a	n/a	5	18	Cue	AvoidedLoss	True
179.869	4.05	Lose2	0.9473999999999999	0.0	Yes	2.732	0.001	n/a	GoodResponse	0	n/a	n/a	5	18	Fixation	AvoidedLoss	True
183.914	0.26	Lose2	0.9473999999999999	0.004	Yes	2.732	-0.004	2.0	GoodResponse	0	0.187	183.101	5	18	Target	AvoidedLoss	True
184.101	0.3	Lose2	0.9473999999999999	0.004	Yes	2.732	-0.004	2.0	GoodResponse	0	0.187	n/a	5	18	ButtonPress	AvoidedLoss	True
184.182	0.44	Lose2	0.9473999999999999	n/a	Yes	2.732	n/a	n/a	GoodResponse	0	n/a	n/a	5	18	Blank	AvoidedLoss	True
184.616	1.45	Lose2	0.9473999999999999	n/a	Yes	2.732	n/a	5.0	GoodResponse	0	0.04	183.656	5	18	Feedback	AvoidedLoss	True
186.071	2.732	Lose2	0.9473999999999999	n/a	Yes	2.732	n/a	n/a	GoodResponse	0	0.0	n/a	5	18	ISIslide	AvoidedLoss	True
188.829	0.25	Control	0.95	0.0	Yes	2.921	0.029	n/a	GoodResponse	0	n/a	n/a	5	19	Cue	Neutral	True
189.08	3.95	Control	0.95	0.0	Yes	2.921	0.001	n/a	GoodResponse	0	n/a	n/a	5	19	Fixation	Neutral	True
193.025	0.25	Control	0.95	0.004	Yes	2.921	-0.004	2.0	GoodResponse	0	0.164	192.189	5	19	Target	Neutral	True
193.189	0.3	Control	0.95	0.004	Yes	2.921	-0.004	2.0	GoodResponse	0	0.164	n/a	5	19	ButtonPress	Neutral	True
193.276	0.45	Control	0.95	n/a	Yes	2.921	n/a	n/a	GoodResponse	0	n/a	n/a	5	19	Blank	Neutral	True
193.727	1.45	Control	0.95	n/a	Yes	2.921	n/a	5.0	GoodResponse	0	0.002	192.729	5	19	Feedback	Neutral	True
195.181	2.921	Control	0.95	n/a	Yes	2.921	n/a	n/a	GoodResponse	0	0.0	n/a	5	19	ISIslide	Neutral	True
198.124	0.25	Control	0.9523999999999999	0.0	Yes	2.626	0.024	n/a	GoodResponse	0	n/a	n/a	5	20	Cue	Neutral	True
198.374	4.05	Control	0.9523999999999999	0.0	Yes	2.626	0.0	n/a	GoodResponse	0	n/a	n/a	5	20	Fixation	Neutral	True
202.42	0.24	Control	0.9523999999999999	0.004	Yes	2.626	-0.004	2.0	GoodResponse	0	0.178	201.598	5	20	Target	Neutral	True
202.598	0.3	Control	0.9523999999999999	0.004	Yes	2.626	-0.004	2.0	GoodResponse	0	0.178	n/a	5	20	ButtonPress	Neutral	True
202.67	0.46	Control	0.9523999999999999	n/a	Yes	2.626	n/a	n/a	GoodResponse	0	n/a	n/a	5	20	Blank	Neutral	True
203.122	1.45	Control	0.9523999999999999	n/a	Yes	2.626	n/a	5.0	GoodResponse	0	0.022	202.144	5	20	Feedback	Neutral	True
204.576	2.626	Control	0.9523999999999999	n/a	Yes	2.626	n/a	n/a	GoodResponse	0	0.0	n/a	5	20	ISIslide	Neutral	True
207.217	0.25	Control	0.9545	0.001	Yes	2.783	0.017	n/a	GoodResponse	0	n/a	n/a	5	21	Cue	Neutral	True
207.468	4.1	Control	0.9545	0.0	Yes	2.783	0.001	n/a	GoodResponse	0	n/a	n/a	5	21	Fixation	Neutral	True
211.564	0.23	Control	0.9545	0.003	Yes	2.783	-0.003	2.0	GoodResponse	0	0.177	210.741	5	21	Target	Neutral	True
211.741	0.3	Control	0.9545	0.003	Yes	2.783	-0.003	2.0	GoodResponse	0	0.177	n/a	5	21	ButtonPress	Neutral	True
211.798	0.47	Control	0.9545	n/a	Yes	2.783	n/a	n/a	GoodResponse	0	n/a	n/a	5	21	Blank	Neutral	True
212.266	1.45	Control	0.9545	n/a	Yes	2.783	n/a	5.0	GoodResponse	0	0.048	211.314	5	21	Feedback	Neutral	True
213.72	2.783	Control	0.9545	n/a	Yes	2.783	n/a	n/a	GoodResponse	0	0.0	n/a	5	21	ISIslide	Neutral	True
216.529	0.25	Control	0.9565	0.0	Yes	2.771	0.029	n/a	GoodResponse	0	n/a	n/a	5	22	Cue	Neutral	True
216.779	4.0	Control	0.9565	0.0	Yes	2.771	0.0	n/a	GoodResponse	0	n/a	n/a	5	22	Fixation	Neutral	True
220.775	0.22	Control	0.9565	0.004	Yes	2.771	-0.004	2.0	GoodResponse	0	0.215	219.99	5	22	Target	Neutral	True
220.99	0.3	Control	0.9565	0.004	Yes	2.771	-0.004	2.0	GoodResponse	0	0.215	n/a	5	22	ButtonPress	Neutral	True
221.009	0.48	Control	0.9565	n/a	Yes	2.771	n/a	n/a	GoodResponse	0	n/a	n/a	5	22	Blank	Neutral	True
221.477	1.45	Control	0.9565	n/a	Yes	2.771	n/a	5.0	GoodResponse	0	0.008	220.485	5	22	Feedback	Neutral	True
222.931	2.771	Control	0.9565	n/a	Yes	2.771	n/a	n/a	GoodResponse	0	0.0	n/a	5	22	ISIslide	Neutral	True
225.723	0.25	Control	0.9582999999999999	0.0	Yes	2.777	0.023	n/a	GoodResponse	0	n/a	n/a	5	23	Cue	Neutral	True
225.974	3.9	Control	0.9582999999999999	0.0	Yes	2.777	0.001	n/a	GoodResponse	0	n/a	n/a	5	23	Fixation	Neutral	True
229.869	0.21	Control	0.9582999999999999	0.004	Yes	2.777	-0.004	2.0	GoodResponse	0	0.202	229.071	5	23	Target	Neutral	True
230.071	0.3	Control	0.9582999999999999	0.004	Yes	2.777	-0.004	2.0	GoodResponse	0	0.202	n/a	5	23	ButtonPress	Neutral	True
230.086	0.49	Control	0.9582999999999999	n/a	Yes	2.777	n/a	n/a	GoodResponse	0	n/a	n/a	5	23	Blank	Neutral	True
230.571	1.45	Control	0.9582999999999999	n/a	Yes	2.777	n/a	5.0	GoodResponse	0	0.036	229.607	5	23	Feedback	Neutral	True
232.025	2.777	Control	0.9582999999999999	n/a	Yes	2.777	n/a	n/a	GoodResponse	0	0.0	n/a	5	23	ISIslide	Neutral	True
234.817	0.25	Win2	0.96	0.0	Yes	3.133	0.017	n/a	GoodResponse	1	n/a	n/a	6	24	Cue	Win	True
235.067	3.95	Win2	0.96	0.001	Yes	3.133	0.0	n/a	GoodResponse	1	n/a	n/a	6	24	Fixation	Win	True
239.013	0.2	Win2	0.96	0.004	Yes	3.133	-0.004	2.0	GoodResponse	1	0.188	238.201	6	24	Target	Win	True
239.201	0.3	Win2	0.96	0.004	Yes	3.133	-0.004	2.0	GoodResponse	1	0.188	n/a	6	24	ButtonPress	Win	True
239.213	0.5	Win2	0.96	n/a	Yes	3.133	n/a	n/a	GoodResponse	1	n/a	n/a	6	24	Blank	Win	True
239.715	1.45	Win2	0.96	n/a	Yes	3.133	n/a	5.0	GoodResponse	1	0.014	238.729	6	24	Feedback	Win	True
241.169	3.133	Win2	0.96	n/a	Yes	3.133	n/a	n/a	GoodResponse	1	0.0	n/a	6	24	ISIslide	Win	True
244.329	0.25	Win2	0.9231	0.0	No	3.071	0.029	n/a	LatePress	0	n/a	n/a	6	25	Cue	MissedWin	True
244.579	4.0	Win2	0.9231	0.0	No	3.071	0.0	n/a	LatePress	0	n/a	n/a	6	25	Fixation	MissedWin	True
248.575	0.19	Win2	0.9231	0.004	No	3.071	-0.004	2.0	LatePress	0	0.199	247.774	6	25	Target	MissedWin	True
248.774	0.3	Win2	0.9231	0.004	No	3.071	-0.004	2.0	LatePress	0	0.199	n/a	6	25	ButtonPress	MissedWin	True
248.775	0.51	Win2	0.9231	n/a	No	3.071	n/a	n/a	LatePress	0	n/a	n/a	6	25	Blank	MissedWin	True
249.277	1.45	Win2	0.9231	n/a	No	3.071	n/a	5.0	LatePress	0	0.013	248.29	6	25	Feedback	MissedWin	True
250.731	3.071	Win2	0.9231	n/a	No	3.071	n/a	n/a	LatePress	0	0.0	n/a	6	25	ISIslide	MissedWin	True
253.824	0.25	Win2	0.8889	0.0	No	2.926	0.024	n/a	NoResponse	0	n/a	n/a	6	26	Cue	MissedWin	True
254.074	3.95	Win2	0.8889	0.0	No	2.926	0.0	n/a	NoResponse	0	n/a	n/a	6	26	Fixation	MissedWin	True
258.019	0.18	Win2	0.8889	0.005	No	2.926	-0.005	2.0	NoResponse	0	0.191	257.21	6	26	Target	MissedWin	True
258.203	0.52	Win2	0.8889	n/a	No	2.926	n/a	n/a	NoResponse	0	n/a	n/a	6	26	Blank	MissedWin	True
258.21	0.3	Win2	0.8889	0.005	No	2.926	-0.005	2.0	NoResponse	0	0.191	n/a	6	26	ButtonPress	MissedWin	True
258.722	1.45	Win2	0.8889	n/a	No	2.926	n/a	5.0	NoResponse	0	0.03	257.752	6	26	Feedback	MissedWin	True
260.176	2.926	Win2	0.8889	n/a	No	2.926	n/a	n/a	NoResponse	0	0.0	n/a	6	26	ISIslide	MissedWin	True
263.118	0.25	Lose2	0.8571	0.0	No	2.832	0.018	n/a	NoResponse	-1	n/a	n/a	5	27	Cue	Loss	True
263.369	4.05	Lose2	0.8571	0.0	No	2.832	0.001	n/a	NoResponse	-1	n/a	n/a	5	27	Fixation	Loss	True
267.414	0.17	Lose2	0.8571	0.004	No	2.832	-0.004	2.0	NoResponse	-1	0.209	266.623	5	27	Target	Loss	True
267.598	0.53	Lose2	0.8571	n/a	No	2.832	n/a	n/a	NoResponse	-1	n/a	n/a	5	27	Blank	Loss	True
267.623	0.3	Lose2	0.8571	0.004	No	2.832	-0.004	2.0	NoResponse	-1	0.209	n/a	5	27	ButtonPress	Loss	True
268.116	1.45	Lose2	0.8571	n/a	No	2.832	n/a	5.0	NoResponse	-1	0.006	267.122	5	27	Feedback	Loss	True
269.571	2.832	Lose2	0.8571	n/a	No	2.832	n/a	n/a	NoResponse	-1	0.0	n/a	5	27	ISIslide	Loss	True
272.429	0.25	Control	0.8276	0.0	No	2.821	0.029	n/a	NoResponse	0	n/a	n/a	5	28	Cue	Neutral	True
272.68	4.05	Control	0.8276	0.0	No	2.821	0.001	n/a	NoResponse	0	n/a	n/a	5	28	Fixation	Neutral	True
276.726	0.16	Control	0.8276	0.003	No	2.821	-0.003	2.0	NoResponse	0	0.188	275.914	5	28	Target	Neutral	True
276.893	0.54	Control	0.8276	n/a	No	2.821	n/a	n/a	NoResponse	0	n/a	n/a	5	28	Blank	Neutral	True
276.914	0.3	Control	0.8276	0.003	No	2.821	-0.003	2.0	NoResponse	0	0.188	n/a	5	28	ButtonPress	Neutral	True
277.428	1.45	Control	0.8276	n/a	No	2.821	n/a	5.0	NoResponse	0	0.007	276.435	5	28	Feedback	Neutral	True
278.882	2.821	Control	0.8276	n/a	No	2.821	n/a	n/a	NoResponse	0	0.0	n/a	5	28	ISIslide	Neutral	True
281.724	0.25	Lose2	0.8	0.0	No	2.826	0.024	n/a	NoResponse	-1	n/a	n/a	4	29	Cue	Loss	True
281.975	3.95	Lose2	0.8	0.0	No	2.826	0.001	n/a	NoResponse	-1	n/a	n/a	4	29	Fixation	Loss	True
285.92	0.15	Lose2	0.8	0.004	No	2.826	-0.004	2.0	NoResponse	-1	0.218	285.138	4	29	Target	Loss	True
286.07	0.55	Lose2	0.8	n/a	No	2.826	n/a	n/a	NoResponse	-1	n/a	n/a	4	29	Blank	Loss	True
286.138	0.3	Lose2	0.8	0.004	No	2.826	-0.004	2.0	NoResponse	-1	0.218	n/a	4	29	ButtonPress	Loss	True
286.622	1.45	Lose2	0.8	n/a	No	2.826	n/a	5.0	NoResponse	-1	0.033	285.655	4	29	Feedback	Loss	True
288.076	2.826	Lose2	0.8	n/a	No	2.826	n/a	n/a	NoResponse	-1	0.0	n/a	4	29	ISIslide	Loss	True
290.918	0.25	Win2	0.7742	0.0	No	2.782	0.018	n/a	NoResponse	0	n/a	n/a	4	30	Cue	MissedWin	True
291.169	3.9	Win2	0.7742	0.0	No	2.782	0.001	n/a	NoResponse	0	n/a	n/a	4	30	Fixation	MissedWin	True
295.064	0.15	Win2	0.7742	0.004	No	2.782	-0.004	2.0	NoResponse	0	0.214	294.278	4	30	Target	MissedWin	True
295.214	0.55	Win2	0.7742	n/a	No	2.782	n/a	n/a	NoResponse	0	n/a	n/a	4	30	Blank	MissedWin	True
295.278	0.3	Win2	0.7742	0.004	No	2.782	-0.004	2.0	NoResponse	0	0.214	n/a	4	30	ButtonPress	MissedWin	True
295.766	1.45	Win2	0.7742	n/a	No	2.782	n/a	5.0	NoResponse	0	0.011	294.777	4	30	Feedback	MissedWin	True
297.22	2.782	Win2	0.7742	n/a	No	2.782	n/a	n/a	NoResponse	0	0.0	n/a	4	30	ISIslide	MissedWin	True
300.029	0.25	Lose2	0.75	0.0	No	2.821	0.029	n/a	NoResponse	-1	n/a	n/a	3	31	Cue	Loss	True
300.279	4.05	Lose2	0.75	0.0	No	2.821	0.0	n/a	NoResponse	-1	n/a	n/a	3	31	Fixation	Loss	True
304.325	0.15	Lose2	0.75	0.004	No	2.821	-0.004	2.0	NoResponse	-1	0.179	303.504	3	31	Target	Loss	True
304.475	0.55	Lose2	0.75	n/a	No	2.821	n/a	n/a	NoResponse	-1	n/a	n/a	3	31	Blank	Loss	True
304.504	0.3	Lose2	0.75	0.004	No	2.821	-0.004	2.0	NoResponse	-1	0.179	n/a	3	31	ButtonPress	Loss	True
305.027	1.45	Lose2	0.75	n/a	No	2.821	n/a	5.0	NoResponse	-1	0.018	304.045	3	31	Feedback	Loss	True
306.481	2.821	Lose2	0.75	n/a	No	2.821	n/a	n/a	NoResponse	-1	0.0	n/a	3	31	ISIslide	Loss	True
309.323	0.25	Lose2	0.7273000000000001	0.0	No	2.627	0.023	n/a	NoResponse	-1	n/a	n/a	2	32	Cue	Loss	True
309.574	4.15	Lose2	0.7273000000000001	0.0	No	2.627	0.001	n/a	NoResponse	-1	n/a	n/a	2	32	Fixation	Loss	True
313.72	0.15	Lose2	0.7273000000000001	0.003	No	2.627	-0.003	2.0	NoResponse	-1	0.187	312.907	2	32	Target	Loss	True
313.87	0.55	Lose2	0.7273000000000001	n/a	No	2.627	n/a	n/a	NoResponse	-1	n/a	n/a	2	32	Blank	Loss	True
313.907	0.3	Lose2	0.7273000000000001	0.003	No	2.627	-0.003	2.0	NoResponse	-1	0.187	n/a	2	32	ButtonPress	Loss	True
314.422	1.45	Lose2	0.7273000000000001	n/a	No	2.627	n/a	5.0	NoResponse	-1	0.037	313.459	2	32	Feedback	Loss	True
315.876	2.627	Lose2	0.7273000000000001	n/a	No	2.627	n/a	n/a	NoResponse	-1	0.0	n/a	2	32	ISIslide	Loss	True
318.517	0.25	Win2	0.7059000000000001	0.0	No	2.683	0.017	n/a	NoResponse	0	n/a	n/a	2	33	Cue	MissedWin	True
318.768	4.0	Win2	0.7059000000000001	0.0	No	2.683	0.001	n/a	NoResponse	0	n/a	n/a	2	33	Fixation	MissedWin	True
322.763	0.15	Win2	0.7059000000000001	0.004	No	2.683	-0.004	2.0	NoResponse	0	0.181	321.944	2	33	Target	MissedWin	True
322.914	0.55	Win2	0.7059000000000001	n/a	No	2.683	n/a	n/a	NoResponse	0	n/a	n/a	2	33	Blank	MissedWin	True
322.944	0.3	Win2	0.7059000000000001	0.004	No	2.683	-0.004	2.0	NoResponse	0	0.181	n/a	2	33	ButtonPress	MissedWin	True
323.465	1.45	Win2	0.7059000000000001	n/a	No	2.683	n/a	5.0	NoResponse	0	0.019	322.484	2	33	Feedback	MissedWin	True
324.92	2.683	Win2	0.7059000000000001	n/a	No	2.683	n/a	n/a	NoResponse	0	0.0	n/a	2	33	ISIslide	MissedWin	True
327.628	0.25	Lose2	0.6857	0.0	No	2.622	0.028	n/a	PrematurePress	-1	n/a	n/a	1	34	Cue	Loss	True
327.879	4.05	Lose2	0.6857	0.0	No	2.622	0.001	n/a	PrematurePress	-1	n/a	n/a	1	34	Fixation	Loss	True
331.924	0.15	Lose2	0.6857	0.004	No	2.622	-0.004	2.0	PrematurePress	-1	0.076	331.0	1	34	Target	Loss	True
332	0.3	Lose2	0.6857	0.004	No	2.622	-0.004	2.0	PrematurePress	-1	0.076	n/a	1	34	ButtonPress	Loss	True
332.075	0.55	Lose2	0.6857	n/a	No	2.622	n/a	n/a	PrematurePress	-1	n/a	n/a	1	34	Blank	Loss	True
332.626	1.45	Lose2	0.6857	n/a	No	2.622	n/a	5.0	PrematurePress	-1	0.029	331.655	1	34	Feedback	Loss	True
334.081	2.622	Lose2	0.6857	n/a	No	2.622	n/a	n/a	PrematurePress	-1	0.0	n/a	1	34	ISIslide	Loss	True
336.722	0.25	Lose2	0.6667000000000001	0.0	No	2.678	0.022	n/a	NoResponse	-1	n/a	n/a	0	35	Cue	Loss	True
336.973	4.0	Lose2	0.6667000000000001	0.0	No	2.678	0.001	n/a	NoResponse	-1	n/a	n/a	0	35	Fixation	Loss	True
340.968	0.15	Lose2	0.6667000000000001	0.004	No	2.678	-0.004	2.0	NoResponse	-1	0.213	340.181	0	35	Target	Loss	True
341.118	0.55	Lose2	0.6667000000000001	n/a	No	2.678	n/a	n/a	NoResponse	-1	n/a	n/a	0	35	Blank	Loss	True
341.181	0.3	Lose2	0.6667000000000001	0.004	No	2.678	-0.004	2.0	NoResponse	-1	0.213	n/a	0	35	ButtonPress	Loss	True
341.67	1.45	Lose2	0.6667000000000001	n/a	No	2.678	n/a	5.0	NoResponse	-1	0.009	340.679	0	35	Feedback	Loss	True
343.124	2.678	Lose2	0.6667000000000001	n/a	No	2.678	n/a	n/a	NoResponse	-1	0.0	n/a	0	35	ISIslide	Loss	True
345.816	0.25	Control	0.6486	0.0	No	2.684	0.016	n/a	NoResponse	0	n/a	n/a	0	36	Cue	Neutral	True
346.066	4.0	Control	0.6486	0.0	No	2.684	0.0	n/a	NoResponse	0	n/a	n/a	0	36	Fixation	Neutral	True
350.062	0.15	Control	0.6486	0.004	No	2.684	-0.004	2.0	NoResponse	0	0.166	349.228	0	36	Target	Neutral	True
350.212	0.55	Control	0.6486	n/a	No	2.684	n/a	n/a	NoResponse	0	n/a	n/a	0	36	Blank	Neutral	True
350.228	0.3	Control	0.6486	0.004	No	2.684	-0.004	2.0	NoResponse	0	0.166	n/a	0	36	ButtonPress	Neutral	True
350.764	1.45	Control	0.6486	n/a	No	2.684	n/a	5.0	NoResponse	0	0.037	349.801	0	36	Feedback	Neutral	True
352.218	2.684	Control	0.6486	n/a	No	2.684	n/a	n/a	NoResponse	0	0.0	n/a	0	36	ISIslide	Neutral	True
354.926	0.25	Win2	0.6315999999999999	0.0	No	2.874	0.026	n/a	NoResponse	0	n/a	n/a	0	37	Cue	MissedWin	True
355.177	4.0	Win2	0.6315999999999999	0.0	No	2.874	0.001	n/a	NoResponse	0	n/a	n/a	0	37	Fixation	MissedWin	True
359.172	0.16	Win2	0.6315999999999999	0.004	No	2.874	-0.004	2.0	NoResponse	0	0.194	358.366	0	37	Target	MissedWin	True
359.339	0.54	Win2	0.6315999999999999	n/a	No	2.874	n/a	n/a	NoResponse	0	n/a	n/a	0	37	Blank	MissedWin	True
359.366	0.3	Win2	0.6315999999999999	0.004	No	2.874	-0.004	2.0	NoResponse	0	0.194	n/a	0	37	ButtonPress	MissedWin	True
359.874	1.45	Win2	0.6315999999999999	n/a	No	2.874	n/a	5.0	NoResponse	0	0.048	358.922	0	37	Feedback	MissedWin	True
361.329	2.874	Win2	0.6315999999999999	n/a	No	2.874	n/a	n/a	NoResponse	0	0.0	n/a	0	37	ISIslide	MissedWin	True
364.221	0.25	Lose2	0.6409999999999999	0.0	Yes	2.829	0.021	n/a	GoodResponse	0	n/a	n/a	0	38	Cue	AvoidedLoss	True
364.471	3.95	Lose2	0.6409999999999999	0.001	Yes	2.829	0.0	n/a	GoodResponse	0	n/a	n/a	0	38	Fixation	AvoidedLoss	True
368.417	0.17	Lose2	0.6409999999999999	0.004	Yes	2.829	-0.004	2.0	GoodResponse	0	0.149	367.566	0	38	Target	AvoidedLoss	True
368.566	0.3	Lose2	0.6409999999999999	0.004	Yes	2.829	-0.004	2.0	GoodResponse	0	0.149	n/a	0	38	ButtonPress	AvoidedLoss	True
368.601	0.53	Lose2	0.6409999999999999	n/a	Yes	2.829	n/a	n/a	GoodResponse	0	n/a	n/a	0	38	Blank	AvoidedLoss	True
369.119	1.45	Lose2	0.6409999999999999	n/a	Yes	2.829	n/a	5.0	GoodResponse	0	0.023	368.142	0	38	Feedback	AvoidedLoss	True
370.573	2.829	Lose2	0.6409999999999999	n/a	Yes	2.829	n/a	n/a	GoodResponse	0	0.0	n/a	0	38	ISIslide	AvoidedLoss	True
373.415	0.25	Win2	0.625	0.0	No	2.985	0.015	n/a	NoResponse	0	n/a	n/a	0	39	Cue	MissedWin	True
373.666	4.1	Win2	0.625	0.0	No	2.985	0.001	n/a	NoResponse	0	n/a	n/a	0	39	Fixation	MissedWin	True
377.761	0.18	Win2	0.625	0.004	No	2.985	-0.004	2.0	NoResponse	0	0.204	376.965	0	39	Target	MissedWin	True
377.945	0.52	Win2	0.625	n/a	No	2.985	n/a	n/a	NoResponse	0	n/a	n/a	0	39	Blank	MissedWin	True
377.965	0.3	Win2	0.625	0.004	No	2.985	-0.004	2.0	NoResponse	0	0.204	n/a	0	39	ButtonPress	MissedWin	True
378.463	1.45	Win2	0.625	n/a	No	2.985	n/a	5.0	NoResponse	0	0.045	377.508	0	39	Feedback	MissedWin	True
379.918	2.985	Win2	0.625	n/a	No	2.985	n/a	n/a	NoResponse	0	0.0	n/a	0	39	ISIslide	MissedWin	True
382.927	0.25	Win2	0.6098	0.0	No	2.723	0.027	n/a	LatePress	0	n/a	n/a	0	40	Cue	MissedWin	True
383.177	3.95	Win2	0.6098	0.001	No	2.723	0.0	n/a	LatePress	0	n/a	n/a	0	40	Fixation	MissedWin	True
387.123	0.19	Win2	0.6098	0.004	No	2.723	-0.004	2.0	LatePress	0	0.193	386.316	0	40	Target	MissedWin	True
387.316	0.3	Win2	0.6098	0.004	No	2.723	-0.004	2.0	LatePress	0	0.193	n/a	0	40	ButtonPress	MissedWin	True
387.323	0.51	Win2	0.6098	n/a	No	2.723	n/a	n/a	LatePress	0	n/a	n/a	0	40	Blank	MissedWin	True
387.825	1.45	Win2	0.6098	n/a	No	2.723	n/a	5.0	LatePress	0	0.0	386.825	0	40	Feedback	MissedWin	True
389.279	2.723	Win2	0.6098	n/a	No	2.723	n/a	n/a	LatePress	0	0.0	n/a	0	40	ISIslide	MissedWin	True
392.021	0.25	Win2	0.5952000000000001	0.0	No	2.779	0.021	n/a	NoResponse	0	n/a	n/a	0	41	Cue	MissedWin	True
392.271	3.9	Win2	0.5952000000000001	0.0	No	2.779	0.0	n/a	NoResponse	0	n/a	n/a	0	41	Fixation	MissedWin	True
396.183	0.2	Win2	0.5952000000000001	0.0	No	2.779	0.012	2.0	NoResponse	0	0.194	395.377	0	41	Target	MissedWin	True
396.367	0.5	Win2	0.5952000000000001	n/a	No	2.779	n/a	n/a	NoResponse	0	n/a	n/a	0	41	Blank	MissedWin	True
396.377	0.3	Win2	0.5952000000000001	0.0	No	2.779	0.012	2.0	NoResponse	0	0.194	n/a	0	41	ButtonPress	MissedWin	True
396.868	1.45	Win2	0.5952000000000001	n/a	No	2.779	n/a	5.0	NoResponse	0	0.03	395.898	0	41	Feedback	MissedWin	True
398.323	2.779	Win2	0.5952000000000001	n/a	No	2.779	n/a	n/a	NoResponse	0	0.0	n/a	0	41	ISIslide	MissedWin	True
401.115	0.25	Control	0.6047	0.0	Yes	2.935	0.015	n/a	GoodResponse	0	n/a	n/a	0	42	Cue	Neutral	True
401.365	3.85	Control	0.6047	0.0	Yes	2.935	0.0	n/a	GoodResponse	0	n/a	n/a	0	42	Fixation	Neutral	True
405.227	0.21	Control	0.6047	0.0	Yes	2.935	0.012	2.0	GoodResponse	0	0.182	404.409	0	42	Target	Neutral	True
405.409	0.3	Control	0.6047	0.0	Yes	2.935	0.012	2.0	GoodResponse	0	0.182	n/a	0	42	ButtonPress	Neutral	True
405.427	0.49	Control	0.6047	n/a	Yes	2.935	n/a	n/a	GoodResponse	0	n/a	n/a	0	42	Blank	Neutral	True
405.912	1.45	Control	0.6047	n/a	Yes	2.935	n/a	5.0	GoodResponse	0	0.01	404.922	0	42	Feedback	Neutral	True
407.367	2.935	Control	0.6047	n/a	Yes	2.935	n/a	n/a	GoodResponse	0	0.0	n/a	0	42	ISIslide	Neutral	True
410.325	0.25	Win2	0.6136	0.001	Yes	3.175	0.025	n/a	GoodResponse	1	n/a	n/a	1	43	Cue	Win	True
410.576	4.0	Win2	0.6136	0.0	Yes	3.175	0.001	n/a	GoodResponse	1	n/a	n/a	1	43	Fixation	Win	True
414.571	0.22	Win2	0.6136	0.004	Yes	3.175	-0.004	2.0	GoodResponse	1	0.17	413.741	1	43	Target	Win	True
414.741	0.3	Win2	0.6136	0.004	Yes	3.175	-0.004	2.0	GoodResponse	1	0.17	n/a	1	43	ButtonPress	Win	True
414.805	0.48	Win2	0.6136	n/a	Yes	3.175	n/a	n/a	GoodResponse	1	n/a	n/a	1	43	Blank	Win	True
415.274	1.45	Win2	0.6136	n/a	Yes	3.175	n/a	5.0	GoodResponse	1	0.014	414.288	1	43	Feedback	Win	True
416.728	3.175	Win2	0.6136	n/a	Yes	3.175	n/a	n/a	GoodResponse	1	0.0	n/a	1	43	ISIslide	Win	True
419.921	0.25	Win2	0.6222	0.0	Yes	2.979	0.021	n/a	GoodResponse	1	n/a	n/a	2	44	Cue	Win	False
420.172	4.0	Win2	0.6222	0.0	Yes	2.979	0.001	2.0	GoodResponse	1	3.772	422.944	2	44	Fixation	Win	False
423.944	0.3	Win2	0.6222	0.0	Yes	2.979	0.001	2.0	GoodResponse	1	3.772	n/a	2	44	ButtonPress	Win	False
424.167	0.23	Win2	0.6222	0.004	Yes	2.979	-0.004	2.0	GoodResponse	1	0.225	423.392	2	44	Target	Win	False
424.392	0.3	Win2	0.6222	0.004	Yes	2.979	-0.004	2.0	GoodResponse	1	0.225	n/a	2	44	ButtonPress	Win	False
424.401	0.47	Win2	0.6222	n/a	Yes	2.979	n/a	n/a	GoodResponse	1	n/a	n/a	2	44	Blank	Win	False
424.869	1.45	Win2	0.6222	n/a	Yes	2.979	n/a	5.0	GoodResponse	1	0.028	423.897	2	44	Feedback	Win	False
426.323	2.979	Win2	0.6222	n/a	Yes	2.979	n/a	n/a	GoodResponse	1	0.0	n/a	2	44	ISIslide	Win	False
429.316	0.25	Control	0.6304	0.0	Yes	2.884	0.016	n/a	GoodResponse	0	n/a	n/a	2	45	Cue	Neutral	True
429.566	4.1	Control	0.6304	0.0	Yes	2.884	0.0	n/a	GoodResponse	0	n/a	n/a	2	45	Fixation	Neutral	True
433.662	0.24	Control	0.6304	0.004	Yes	2.884	-0.004	2.0	GoodResponse	0	0.198	432.86	2	45	Target	Neutral	True
433.86	0.3	Control	0.6304	0.004	Yes	2.884	-0.004	2.0	GoodResponse	0	0.198	n/a	2	45	ButtonPress	Neutral	True
433.913	0.46	Control	0.6304	n/a	Yes	2.884	n/a	n/a	GoodResponse	0	n/a	n/a	2	45	Blank	Neutral	True
434.364	1.45	Control	0.6304	n/a	Yes	2.884	n/a	5.0	GoodResponse	0	0.046	433.41	2	45	Feedback	Neutral	True
435.818	2.884	Control	0.6304	n/a	Yes	2.884	n/a	n/a	GoodResponse	0	0.0	n/a	2	45	ISIslide	Neutral	True
438.727	0.25	Lose2	0.617	0.0	No	3.373	0.027	n/a	NoResponse	-1	n/a	n/a	1	46	Cue	Loss	True
438.978	4.0	Lose2	0.617	0.0	No	3.373	0.001	n/a	NoResponse	-1	n/a	n/a	1	46	Fixation	Loss	True
442.973	0.25	Lose2	0.617	0.004	No	3.373	-0.004	2.0	NoResponse	-1	0.371	442.344	1	46	Target	Loss	True
443.224	0.45	Lose2	0.617	n/a	No	3.373	n/a	n/a	NoResponse	-1	n/a	n/a	1	46	Blank	Loss	True
443.344	0.3	Lose2	0.617	0.004	No	3.373	-0.004	2.0	NoResponse	-1	0.371	n/a	1	46	ButtonPress	Loss	True
443.675	1.45	Lose2	0.617	n/a	No	3.373	n/a	5.0	NoResponse	-1	0.006	442.681	1	46	Feedback	Loss	True
445.13	3.373	Lose2	0.617	n/a	No	3.373	n/a	n/a	NoResponse	-1	0.0	n/a	1	46	ISIslide	Loss	True
448.523	0.25	Lose2	0.625	0.0	Yes	2.677	0.023	n/a	GoodResponse	0	n/a	n/a	1	47	Cue	AvoidedLoss	True
448.774	4.0	Lose2	0.625	0.0	Yes	2.677	0.001	n/a	GoodResponse	0	n/a	n/a	1	47	Fixation	AvoidedLoss	True
452.769	0.26	Lose2	0.625	0.004	Yes	2.677	-0.004	2.0	GoodResponse	0	0.196	451.965	1	47	Target	AvoidedLoss	True
452.965	0.3	Lose2	0.625	0.004	Yes	2.677	-0.004	2.0	GoodResponse	0	0.196	n/a	1	47	ButtonPress	AvoidedLoss	True
453.037	0.44	Lose2	0.625	n/a	Yes	2.677	n/a	n/a	GoodResponse	0	n/a	n/a	1	47	Blank	AvoidedLoss	True
453.471	1.45	Lose2	0.625	n/a	Yes	2.677	n/a	5.0	GoodResponse	0	0.012	452.483	1	47	Feedback	AvoidedLoss	True
454.926	2.677	Lose2	0.625	n/a	Yes	2.677	n/a	n/a	GoodResponse	0	0.0	n/a	1	47	ISIslide	AvoidedLoss	True
457.617	0.25	Lose2	0.6327	0.0	Yes	3.033	0.017	n/a	GoodResponse	0	n/a	n/a	1	48	Cue	AvoidedLoss	True
457.868	3.95	Lose2	0.6327	0.0	Yes	3.033	0.001	n/a	GoodResponse	0	n/a	n/a	1	48	Fixation	AvoidedLoss	True
461.813	0.27	Lose2	0.6327	0.004	Yes	3.033	-0.004	2.0	GoodResponse	0	0.185	460.998	1	48	Target	AvoidedLoss	True
461.998	0.3	Lose2	0.6327	0.004	Yes	3.033	-0.004	2.0	GoodResponse	0	0.185	n/a	1	48	ButtonPress	AvoidedLoss	True
462.097	0.43	Lose2	0.6327	n/a	Yes	3.033	n/a	n/a	GoodResponse	0	n/a	n/a	1	48	Blank	AvoidedLoss	True
462.515	1.45	Lose2	0.6327	n/a	Yes	3.033	n/a	5.0	GoodResponse	0	0.04	461.555	1	48	Feedback	AvoidedLoss	True
463.969	3.033	Lose2	0.6327	n/a	Yes	3.033	n/a	n/a	GoodResponse	0	0.0	n/a	1	48	ISIslide	AvoidedLoss	True
467.028	0.25	Control	0.64	0.001	Yes	2.872	0.028	n/a	GoodResponse	0	n/a	n/a	1	49	Cue	Neutral	True
467.279	4.0	Control	0.64	0.0	Yes	2.872	0.001	n/a	GoodResponse	0	n/a	n/a	1	49	Fixation	Neutral	True
471.275	0.28	Control	0.64	0.003	Yes	2.872	-0.003	2.0	GoodResponse	0	0.173	470.448	1	49	Target	Neutral	True
471.448	0.3	Control	0.64	0.003	Yes	2.872	-0.003	2.0	GoodResponse	0	0.173	n/a	1	49	ButtonPress	Neutral	True
471.559	0.42	Control	0.64	n/a	Yes	2.872	n/a	n/a	GoodResponse	0	n/a	n/a	1	49	Blank	Neutral	True
471.977	1.45	Control	0.64	n/a	Yes	2.872	n/a	5.0	GoodResponse	0	0.042	471.019	1	49	Feedback	Neutral	True
473.431	2.872	Control	0.64	n/a	Yes	2.872	n/a	n/a	GoodResponse	0	0.0	n/a	1	49	ISIslide	Neutral	True
476.323	0.25	Control	0.6275	0.0	No	2.777	0.023	n/a	NoResponse	0	n/a	n/a	1	50	Cue	Neutral	False
476.574	4.0	Control	0.6275	0.0	No	2.777	0.001	2.0	NoResponse	0	3.485	479.059	1	50	Fixation	Neutral	False
480.059	0.3	Control	0.6275	0.0	No	2.777	0.001	2.0	NoResponse	0	3.485	n/a	1	50	ButtonPress	Neutral	False
480.569	0.29	Control	0.6275	0.004	No	2.777	-0.004	2.0	NoResponse	0	0.41	479.979	1	50	Target	Neutral	False
480.87	0.41	Control	0.6275	n/a	No	2.777	n/a	n/a	NoResponse	0	n/a	n/a	1	50	Blank	Neutral	False
480.979	0.3	Control	0.6275	0.004	No	2.777	-0.004	2.0	NoResponse	0	0.41	n/a	1	50	ButtonPress	Neutral	False
481.271	1.45	Control	0.6275	n/a	No	2.777	n/a	5.0	NoResponse	0	0.016	480.287	1	50	Feedback	Neutral	False
482.725	2.777	Control	0.6275	n/a	No	2.777	n/a	n/a	NoResponse	0	0.0	n/a	1	50	ISIslide	Neutral	False
485.517	0.25	Control	0.6154	0.0	No	2.733	0.017	n/a	NoResponse	0	n/a	n/a	1	51	Cue	Neutral	True
485.768	3.95	Control	0.6154	0.0	No	2.733	0.001	n/a	NoResponse	0	n/a	n/a	1	51	Fixation	Neutral	True
489.713	0.3	Control	0.6154	0.004	No	2.733	-0.004	2.0	NoResponse	0	0.321	489.034	1	51	Target	Neutral	True
490.014	0.4	Control	0.6154	n/a	No	2.733	n/a	n/a	NoResponse	0	n/a	n/a	1	51	Blank	Neutral	True
490.034	0.3	Control	0.6154	0.004	No	2.733	-0.004	2.0	NoResponse	0	0.321	n/a	1	51	ButtonPress	Neutral	True
490.415	1.45	Control	0.6154	n/a	No	2.733	n/a	5.0	NoResponse	0	0.043	489.458	1	51	Feedback	Neutral	True
491.869	2.733	Control	0.6154	n/a	No	2.733	n/a	n/a	NoResponse	0	0.0	n/a	1	51	ISIslide	Neutral	True
494.628	0.25	Control	0.6225999999999999	0.0	Yes	2.622	0.028	n/a	GoodResponse	0	n/a	n/a	1	52	Cue	Neutral	True
494.878	4.05	Control	0.6225999999999999	0.001	Yes	2.622	0.0	n/a	GoodResponse	0	n/a	n/a	1	52	Fixation	Neutral	True
498.924	0.31	Control	0.6225999999999999	0.004	Yes	2.622	-0.004	2.0	GoodResponse	0	0.205	498.129	1	52	Target	Neutral	True
499.129	0.3	Control	0.6225999999999999	0.004	Yes	2.622	-0.004	2.0	GoodResponse	0	0.205	n/a	1	52	ButtonPress	Neutral	True
499.242	0.39	Control	0.6225999999999999	n/a	Yes	2.622	n/a	n/a	GoodResponse	0	n/a	n/a	1	52	Blank	Neutral	True
499.626	1.45	Control	0.6225999999999999	n/a	Yes	2.622	n/a	5.0	GoodResponse	0	0.005	498.631	1	52	Feedback	Neutral	True
501.08	2.622	Control	0.6225999999999999	n/a	Yes	2.622	n/a	n/a	GoodResponse	0	0.0	n/a	1	52	ISIslide	Neutral	True
503.722	0.25	Win2	0.6296	0.0	Yes	2.928	0.022	n/a	GoodResponse	1	n/a	n/a	2	53	Cue	Win	True
503.972	4.05	Win2	0.6296	0.0	Yes	2.928	0.0	n/a	GoodResponse	1	n/a	n/a	2	53	Fixation	Win	True
508.018	0.32	Win2	0.6296	0.004	Yes	2.928	-0.004	2.0	GoodResponse	1	0.215	507.233	2	53	Target	Win	True
508.233	0.3	Win2	0.6296	0.004	Yes	2.928	-0.004	2.0	GoodResponse	1	0.215	n/a	2	53	ButtonPress	Win	True
508.352	0.38	Win2	0.6296	n/a	Yes	2.928	n/a	n/a	GoodResponse	1	n/a	n/a	2	53	Blank	Win	True
508.72	1.45	Win2	0.6296	n/a	Yes	2.928	n/a	5.0	GoodResponse	1	0.03	507.75	2	53	Feedback	Win	True
510.174	2.928	Win2	0.6296	n/a	Yes	2.928	n/a	n/a	GoodResponse	1	0.0	n/a	2	53	ISIslide	Win	True
513.116	0.25	Win2	0.6364	0.001	Yes	2.734	0.016	n/a	GoodResponse	1	n/a	n/a	3	54	Cue	Win	True
513.367	3.95	Win2	0.6364	0.0	Yes	2.734	0.001	n/a	GoodResponse	1	n/a	n/a	3	54	Fixation	Win	True
517.312	0.33	Win2	0.6364	0.004	Yes	2.734	-0.004	2.0	GoodResponse	1	0.202	516.514	3	54	Target	Win	True
517.514	0.3	Win2	0.6364	0.004	Yes	2.734	-0.004	2.0	GoodResponse	1	0.202	n/a	3	54	ButtonPress	Win	True
517.647	0.37	Win2	0.6364	n/a	Yes	2.734	n/a	n/a	GoodResponse	1	n/a	n/a	3	54	Blank	Win	True
518.014	1.45	Win2	0.6364	n/a	Yes	2.734	n/a	5.0	GoodResponse	1	0.006	517.02	3	54	Feedback	Win	True
519.469	2.734	Win2	0.6364	n/a	Yes	2.734	n/a	n/a	GoodResponse	1	0.0	n/a	3	54	ISIslide	Win	True
522.227	0.25	Control	0.6429	0.0	Yes	3.023	0.027	n/a	GoodResponse	0	n/a	n/a	3	55	Cue	Neutral	True
522.478	3.95	Control	0.6429	0.0	Yes	3.023	0.001	n/a	GoodResponse	0	n/a	n/a	3	55	Fixation	Neutral	True
526.423	0.34	Control	0.6429	0.004	Yes	3.023	-0.004	2.0	GoodResponse	0	0.18	525.603	3	55	Target	Neutral	True
526.603	0.3	Control	0.6429	0.004	Yes	3.023	-0.004	2.0	GoodResponse	0	0.18	n/a	3	55	ButtonPress	Neutral	True
526.774	0.36	Control	0.6429	n/a	Yes	3.023	n/a	n/a	GoodResponse	0	n/a	n/a	3	55	Blank	Neutral	True
527.125	1.45	Control	0.6429	n/a	Yes	3.023	n/a	5.0	GoodResponse	0	0.016	526.141	3	55	Feedback	Neutral	True
528.579	3.023	Control	0.6429	n/a	Yes	3.023	n/a	n/a	GoodResponse	0	0.0	n/a	3	55	ISIslide	Neutral	True
531.622	0.25	Control	0.6491	0.0	Yes	2.828	0.022	n/a	GoodResponse	0	n/a	n/a	3	56	Cue	Neutral	True
531.873	3.95	Control	0.6491	0.0	Yes	2.828	0.001	n/a	GoodResponse	0	n/a	n/a	3	56	Fixation	Neutral	True
535.818	0.35	Control	0.6491	0.004	Yes	2.828	-0.004	2.0	GoodResponse	0	0.23	535.048	3	56	Target	Neutral	True
536.048	0.3	Control	0.6491	0.004	Yes	2.828	-0.004	2.0	GoodResponse	0	0.23	n/a	3	56	ButtonPress	Neutral	True
536.169	0.35	Control	0.6491	n/a	Yes	2.828	n/a	n/a	GoodResponse	0	n/a	n/a	3	56	Blank	Neutral	True
536.52	1.45	Control	0.6491	n/a	Yes	2.828	n/a	5.0	GoodResponse	0	0.035	535.555	3	56	Feedback	Neutral	True
537.974	2.828	Control	0.6491	n/a	Yes	2.828	n/a	n/a	GoodResponse	0	0.0	n/a	3	56	ISIslide	Neutral	True
540.816	0.25	Control	0.6552	0.0	Yes	3.484	0.016	n/a	GoodResponse	0	n/a	n/a	3	57	Cue	Neutral	True
541.067	4.0	Control	0.6552	0.0	Yes	3.484	0.001	n/a	GoodResponse	0	n/a	n/a	3	57	Fixation	Neutral	True
545.062	0.36	Control	0.6552	0.004	Yes	3.484	-0.004	2.0	GoodResponse	0	0.193	544.255	3	57	Target	Neutral	True
545.255	0.3	Control	0.6552	0.004	Yes	3.484	-0.004	2.0	GoodResponse	0	0.193	n/a	3	57	ButtonPress	Neutral	True
545.43	0.34	Control	0.6552	n/a	Yes	3.484	n/a	n/a	GoodResponse	0	n/a	n/a	3	57	Blank	Neutral	True
545.764	1.45	Control	0.6552	n/a	Yes	3.484	n/a	5.0	GoodResponse	0	0.011	544.775	3	57	Feedback	Neutral	True
547.218	3.484	Control	0.6552	n/a	Yes	3.484	n/a	n/a	GoodResponse	0	0.0	n/a	3	57	ISIslide	Neutral	True
550.729	0.25	Win2	0.6609999999999999	0.0	Yes	2.721	0.029	n/a	GoodResponse	1	n/a	n/a	4	58	Cue	Win	True
550.98	4.05	Win2	0.6609999999999999	0.0	Yes	2.721	0.001	n/a	GoodResponse	1	n/a	n/a	4	58	Fixation	Win	True
555.025	0.36	Win2	0.6609999999999999	0.004	Yes	2.721	-0.004	2.0	GoodResponse	1	0.186	554.211	4	58	Target	Win	True
555.211	0.3	Win2	0.6609999999999999	0.004	Yes	2.721	-0.004	2.0	GoodResponse	1	0.186	n/a	4	58	ButtonPress	Win	True
555.393	0.34	Win2	0.6609999999999999	n/a	Yes	2.721	n/a	n/a	GoodResponse	1	n/a	n/a	4	58	Blank	Win	True
555.727	1.45	Win2	0.6609999999999999	n/a	Yes	2.721	n/a	5.0	GoodResponse	1	0.048	554.775	4	58	Feedback	Win	True
557.182	2.721	Win2	0.6609999999999999	n/a	Yes	2.721	n/a	n/a	GoodResponse	1	0.0	n/a	4	58	ISIslide	Win	True
559.923	0.25	Lose2	0.6667000000000001	0.0	Yes	2.677	0.023	n/a	GoodResponse	0	n/a	n/a	4	59	Cue	AvoidedLoss	True
560.174	4.0	Lose2	0.6667000000000001	0.0	Yes	2.677	0.001	n/a	GoodResponse	0	n/a	n/a	4	59	Fixation	AvoidedLoss	True
564.169	0.36	Lose2	0.6667000000000001	0.004	Yes	2.677	-0.004	2.0	GoodResponse	0	0.19	563.359	4	59	Target	AvoidedLoss	True
564.359	0.3	Lose2	0.6667000000000001	0.004	Yes	2.677	-0.004	2.0	GoodResponse	0	0.19	n/a	4	59	ButtonPress	AvoidedLoss	True
564.537	0.34	Lose2	0.6667000000000001	n/a	Yes	2.677	n/a	n/a	GoodResponse	0	n/a	n/a	4	59	Blank	AvoidedLoss	True
564.871	1.45	Lose2	0.6667000000000001	n/a	Yes	2.677	n/a	5.0	GoodResponse	0	0.025	563.896	4	59	Feedback	AvoidedLoss	True
566.326	2.677	Lose2	0.6667000000000001	n/a	Yes	2.677	n/a	n/a	GoodResponse	0	0.0	n/a	4	59	ISIslide	AvoidedLoss	True
569.017	0.25	Control	0.6720999999999999	0.0	Yes	2.683	0.017	n/a	GoodResponse	0	n/a	n/a	4	60	Cue	Neutral	True
569.268	4.0	Control	0.6720999999999999	0.0	Yes	2.683	0.001	n/a	GoodResponse	0	n/a	n/a	4	60	Fixation	Neutral	True
573.263	0.35	Control	0.6720999999999999	0.004	Yes	2.683	-0.004	2.0	GoodResponse	0	0.179	572.442	4	60	Target	Neutral	True
573.442	0.3	Control	0.6720999999999999	0.004	Yes	2.683	-0.004	2.0	GoodResponse	0	0.179	n/a	4	60	ButtonPress	Neutral	True
573.614	0.35	Control	0.6720999999999999	n/a	Yes	2.683	n/a	n/a	GoodResponse	0	n/a	n/a	4	60	Blank	Neutral	True
573.965	1.45	Control	0.6720999999999999	n/a	Yes	2.683	n/a	5.0	GoodResponse	0	0.005	572.97	4	60	Feedback	Neutral	True
575.42	2.683	Control	0.6720999999999999	n/a	Yes	2.683	n/a	n/a	GoodResponse	0	0.0	n/a	4	60	ISIslide	Neutral	True
578.128	0.25	Lose2	0.6774	0.0	Yes	2.972	0.028	n/a	GoodResponse	0	n/a	n/a	4	61	Cue	AvoidedLoss	True
578.378	4.0	Lose2	0.6774	0.001	Yes	2.972	0.0	n/a	GoodResponse	0	n/a	n/a	4	61	Fixation	AvoidedLoss	True
582.374	0.34	Lose2	0.6774	0.004	Yes	2.972	-0.004	2.0	GoodResponse	0	0.193	581.567	4	61	Target	AvoidedLoss	True
582.567	0.3	Lose2	0.6774	0.004	Yes	2.972	-0.004	2.0	GoodResponse	0	0.193	n/a	4	61	ButtonPress	AvoidedLoss	True
582.725	0.36	Lose2	0.6774	n/a	Yes	2.972	n/a	n/a	GoodResponse	0	n/a	n/a	4	61	Blank	AvoidedLoss	True
583.076	1.45	Lose2	0.6774	n/a	Yes	2.972	n/a	5.0	GoodResponse	0	0.015	582.091	4	61	Feedback	AvoidedLoss	True
584.53	2.972	Lose2	0.6774	n/a	Yes	2.972	n/a	n/a	GoodResponse	0	0.0	n/a	4	61	ISIslide	AvoidedLoss	True
587.522	0.25	Lose2	0.6825	0.001	Yes	2.878	0.022	n/a	GoodResponse	0	n/a	n/a	4	62	Cue	AvoidedLoss	True
587.773	3.9	Lose2	0.6825	0.0	Yes	2.878	0.001	n/a	GoodResponse	0	n/a	n/a	4	62	Fixation	AvoidedLoss	True
591.668	0.33	Lose2	0.6825	0.004	Yes	2.878	-0.004	2.0	GoodResponse	0	0.202	590.87	4	62	Target	AvoidedLoss	True
591.87	0.3	Lose2	0.6825	0.004	Yes	2.878	-0.004	2.0	GoodResponse	0	0.202	n/a	4	62	ButtonPress	AvoidedLoss	True
592.003	0.37	Lose2	0.6825	n/a	Yes	2.878	n/a	n/a	GoodResponse	0	n/a	n/a	4	62	Blank	AvoidedLoss	True
592.37	1.45	Lose2	0.6825	n/a	Yes	2.878	n/a	5.0	GoodResponse	0	0.039	591.409	4	62	Feedback	AvoidedLoss	True
593.825	2.878	Lose2	0.6825	n/a	Yes	2.878	n/a	n/a	GoodResponse	0	0.0	n/a	4	62	ISIslide	AvoidedLoss	True
596.717	0.25	Lose2	0.6875	0.0	Yes	2.633	0.017	n/a	GoodResponse	0	n/a	n/a	4	63	Cue	AvoidedLoss	True
596.967	4.05	Lose2	0.6875	0.001	Yes	2.633	0.0	n/a	GoodResponse	0	n/a	n/a	4	63	Fixation	AvoidedLoss	True
601.013	0.32	Lose2	0.6875	0.004	Yes	2.633	-0.004	2.0	GoodResponse	0	0.195	600.208	4	63	Target	AvoidedLoss	True
601.208	0.3	Lose2	0.6875	0.004	Yes	2.633	-0.004	2.0	GoodResponse	0	0.195	n/a	4	63	ButtonPress	AvoidedLoss	True
601.347	0.38	Lose2	0.6875	n/a	Yes	2.633	n/a	n/a	GoodResponse	0	n/a	n/a	4	63	Blank	AvoidedLoss	True
601.715	1.45	Lose2	0.6875	n/a	Yes	2.633	n/a	5.0	GoodResponse	0	0.011	600.726	4	63	Feedback	AvoidedLoss	True
603.169	2.633	Lose2	0.6875	n/a	Yes	2.633	n/a	n/a	GoodResponse	0	0.0	n/a	4	63	ISIslide	AvoidedLoss	True
605.827	0.25	Win2	0.6923	0.0	Yes	3.123	0.027	n/a	GoodResponse	1	n/a	n/a	5	64	Cue	Win	True
606.078	4.15	Win2	0.6923	0.0	Yes	3.123	0.001	n/a	GoodResponse	1	n/a	n/a	5	64	Fixation	Win	True
610.224	0.31	Win2	0.6923	0.003	Yes	3.123	-0.003	2.0	GoodResponse	1	0.201	609.425	5	64	Target	Win	True
610.425	0.3	Win2	0.6923	0.003	Yes	3.123	-0.003	2.0	GoodResponse	1	0.201	n/a	5	64	ButtonPress	Win	True
610.541	0.39	Win2	0.6923	n/a	Yes	3.123	n/a	n/a	GoodResponse	1	n/a	n/a	5	64	Blank	Win	True
610.926	1.45	Win2	0.6923	n/a	Yes	3.123	n/a	5.0	GoodResponse	1	0.018	609.944	5	64	Feedback	Win	True
612.38	3.123	Win2	0.6923	n/a	Yes	3.123	n/a	n/a	GoodResponse	1	0.0	n/a	5	64	ISIslide	Win	True
615.523	0.25	Control	0.6970000000000001	0.0	Yes	2.777	0.023	n/a	GoodResponse	0	n/a	n/a	5	65	Cue	Neutral	True
615.774	4.0	Control	0.6970000000000001	0.0	Yes	2.777	0.001	n/a	GoodResponse	0	n/a	n/a	5	65	Fixation	Neutral	True
619.769	0.3	Control	0.6970000000000001	0.004	Yes	2.777	-0.004	2.0	GoodResponse	0	0.183	618.952	5	65	Target	Neutral	True
619.952	0.3	Control	0.6970000000000001	0.004	Yes	2.777	-0.004	2.0	GoodResponse	0	0.183	n/a	5	65	ButtonPress	Neutral	True
620.07	0.4	Control	0.6970000000000001	n/a	Yes	2.777	n/a	n/a	GoodResponse	0	n/a	n/a	5	65	Blank	Neutral	True
620.471	1.45	Control	0.6970000000000001	n/a	Yes	2.777	n/a	5.0	GoodResponse	0	0.034	619.505	5	65	Feedback	Neutral	True
621.925	2.777	Control	0.6970000000000001	n/a	Yes	2.777	n/a	n/a	GoodResponse	0	0.0	n/a	5	65	ISIslide	Neutral	True
624.717	0.25	Win2	0.7015	0.0	Yes	2.783	0.017	n/a	GoodResponse	1	n/a	n/a	6	66	Cue	Win	True
624.968	3.9	Win2	0.7015	0.0	Yes	2.783	0.001	n/a	GoodResponse	1	n/a	n/a	6	66	Fixation	Win	True
628.863	0.29	Win2	0.7015	0.004	Yes	2.783	-0.004	2.0	GoodResponse	1	0.199	628.062	6	66	Target	Win	True
629.062	0.3	Win2	0.7015	0.004	Yes	2.783	-0.004	2.0	GoodResponse	1	0.199	n/a	6	66	ButtonPress	Win	True
629.164	0.41	Win2	0.7015	n/a	Yes	2.783	n/a	n/a	GoodResponse	1	n/a	n/a	6	66	Blank	Win	True
629.565	1.45	Win2	0.7015	n/a	Yes	2.783	n/a	5.0	GoodResponse	1	0.014	628.579	6	66	Feedback	Win	True
631.019	2.783	Win2	0.7015	n/a	Yes	2.783	n/a	n/a	GoodResponse	1	0.0	n/a	6	66	ISIslide	Win	True
633.828	0.25	Control	0.7059000000000001	0.0	Yes	2.722	0.028	n/a	GoodResponse	0	n/a	n/a	6	67	Cue	Neutral	True
634.078	3.95	Control	0.7059000000000001	0.001	Yes	2.722	0.0	n/a	GoodResponse	0	n/a	n/a	6	67	Fixation	Neutral	True
638.024	0.28	Control	0.7059000000000001	0.004	Yes	2.722	-0.004	2.0	GoodResponse	0	0.183	637.207	6	67	Target	Neutral	True
638.207	0.3	Control	0.7059000000000001	0.004	Yes	2.722	-0.004	2.0	GoodResponse	0	0.183	n/a	6	67	ButtonPress	Neutral	True
638.308	0.42	Control	0.7059000000000001	n/a	Yes	2.722	n/a	n/a	GoodResponse	0	n/a	n/a	6	67	Blank	Neutral	True
638.726	1.45	Control	0.7059000000000001	n/a	Yes	2.722	n/a	5.0	GoodResponse	0	0.024	637.75	6	67	Feedback	Neutral	True
640.18	2.722	Control	0.7059000000000001	n/a	Yes	2.722	n/a	n/a	GoodResponse	0	0.0	n/a	6	67	ISIslide	Neutral	True
642.922	0.25	Win2	0.7101000000000001	0.0	Yes	3.078	0.022	n/a	GoodResponse	1	n/a	n/a	7	68	Cue	Win	True
643.172	4.0	Win2	0.7101000000000001	0.0	Yes	3.078	0.0	n/a	GoodResponse	1	n/a	n/a	7	68	Fixation	Win	True
647.168	0.27	Win2	0.7101000000000001	0.004	Yes	3.078	-0.004	2.0	GoodResponse	1	0.181	646.349	7	68	Target	Win	True
647.349	0.3	Win2	0.7101000000000001	0.004	Yes	3.078	-0.004	2.0	GoodResponse	1	0.181	n/a	7	68	ButtonPress	Win	True
647.452	0.43	Win2	0.7101000000000001	n/a	Yes	3.078	n/a	n/a	GoodResponse	1	n/a	n/a	7	68	Blank	Win	True
647.87	1.45	Win2	0.7101000000000001	n/a	Yes	3.078	n/a	5.0	GoodResponse	1	0.002	646.872	7	68	Feedback	Win	True
649.324	3.078	Win2	0.7101000000000001	n/a	Yes	3.078	n/a	n/a	GoodResponse	1	0.0	n/a	7	68	ISIslide	Win	True
652.417	0.25	Win2	0.7143	0.0	Yes	3.233	0.017	n/a	GoodResponse	1	n/a	n/a	8	69	Cue	Win	True
652.667	3.95	Win2	0.7143	0.001	Yes	3.233	0.0	n/a	GoodResponse	1	n/a	n/a	8	69	Fixation	Win	True
656.613	0.26	Win2	0.7143	0.004	Yes	3.233	-0.004	2.0	GoodResponse	1	0.191	655.804	8	69	Target	Win	True
656.804	0.3	Win2	0.7143	0.004	Yes	3.233	-0.004	2.0	GoodResponse	1	0.191	n/a	8	69	ButtonPress	Win	True
656.88	0.44	Win2	0.7143	n/a	Yes	3.233	n/a	n/a	GoodResponse	1	n/a	n/a	8	69	Blank	Win	True
657.315	1.45	Win2	0.7143	n/a	Yes	3.233	n/a	5.0	GoodResponse	1	0.02	656.335	8	69	Feedback	Win	True
658.769	3.233	Win2	0.7143	n/a	Yes	3.233	n/a	n/a	GoodResponse	1	0.0	n/a	8	69	ISIslide	Win	True
662.029	0.25	Lose2	0.7182999999999999	0.0	Yes	3.021	0.029	n/a	GoodResponse	0	n/a	n/a	8	70	Cue	AvoidedLoss	True
662.28	4.05	Lose2	0.7182999999999999	0.0	Yes	3.021	0.001	n/a	GoodResponse	0	n/a	n/a	8	70	Fixation	AvoidedLoss	True
666.325	0.25	Lose2	0.7182999999999999	0.004	Yes	3.021	-0.004	2.0	GoodResponse	0	0.184	665.509	8	70	Target	AvoidedLoss	True
666.509	0.3	Lose2	0.7182999999999999	0.004	Yes	3.021	-0.004	2.0	GoodResponse	0	0.184	n/a	8	70	ButtonPress	AvoidedLoss	True
666.576	0.45	Lose2	0.7182999999999999	n/a	Yes	3.021	n/a	n/a	GoodResponse	0	n/a	n/a	8	70	Blank	AvoidedLoss	True
667.027	1.45	Lose2	0.7182999999999999	n/a	Yes	3.021	n/a	5.0	GoodResponse	0	0.014	666.041	8	70	Feedback	AvoidedLoss	True
668.481	3.021	Lose2	0.7182999999999999	n/a	Yes	3.021	n/a	n/a	GoodResponse	0	0.0	n/a	8	70	ISIslide	AvoidedLoss	True
671.524	0.25	Win2	0.7222	0.0	Yes	2.726	0.024	n/a	GoodResponse	1	n/a	n/a	9	71	Cue	Win	True
671.775	4.05	Win2	0.7222	0.0	Yes	2.726	0.001	n/a	GoodResponse	1	n/a	n/a	9	71	Fixation	Win	True
675.82	0.24	Win2	0.7222	0.004	Yes	2.726	-0.004	2.0	GoodResponse	1	0.198	675.018	9	71	Target	Win	True
676.018	0.3	Win2	0.7222	0.004	Yes	2.726	-0.004	2.0	GoodResponse	1	0.198	n/a	9	71	ButtonPress	Win	True
676.071	0.46	Win2	0.7222	n/a	Yes	2.726	n/a	n/a	GoodResponse	1	n/a	n/a	9	71	Blank	Win	True
676.522	1.45	Win2	0.7222	n/a	Yes	2.726	n/a	5.0	GoodResponse	1	0.032	675.554	9	71	Feedback	Win	True
677.977	2.726	Win2	0.7222	n/a	Yes	2.726	n/a	n/a	GoodResponse	1	0.0	n/a	9	71	ISIslide	Win	True
680.718	0.25	Win2	0.726	0.0	Yes	2.782	0.018	n/a	GoodResponse	1	n/a	n/a	10	72	Cue	Win	True
680.969	4.1	Win2	0.726	0.0	Yes	2.782	0.001	n/a	GoodResponse	1	n/a	n/a	10	72	Fixation	Win	True
685.064	0.23	Win2	0.726	0.004	Yes	2.782	-0.004	2.0	GoodResponse	1	0.169	684.233	10	72	Target	Win	True
685.233	0.3	Win2	0.726	0.004	Yes	2.782	-0.004	2.0	GoodResponse	1	0.169	n/a	10	72	ButtonPress	Win	True
685.298	0.47	Win2	0.726	n/a	Yes	2.782	n/a	n/a	GoodResponse	1	n/a	n/a	10	72	Blank	Win	True
685.767	1.45	Win2	0.726	n/a	Yes	2.782	n/a	5.0	GoodResponse	1	0.006	684.773	10	72	Feedback	Win	True
687.221	2.782	Win2	0.726	n/a	Yes	2.782	n/a	n/a	GoodResponse	1	0.0	n/a	10	72	ISIslide	Win	True
690.029	0.25	Win2	0.7297	0.0	Yes	2.671	0.029	n/a	GoodResponse	1	n/a	n/a	11	73	Cue	Win	True
690.28	4.0	Win2	0.7297	0.0	Yes	2.671	0.001	n/a	GoodResponse	1	n/a	n/a	11	73	Fixation	Win	True
694.275	0.22	Win2	0.7297	0.004	Yes	2.671	-0.004	2.0	GoodResponse	1	0.187	693.462	11	73	Target	Win	True
694.462	0.3	Win2	0.7297	0.004	Yes	2.671	-0.004	2.0	GoodResponse	1	0.187	n/a	11	73	ButtonPress	Win	True
694.509	0.48	Win2	0.7297	n/a	Yes	2.671	n/a	n/a	GoodResponse	1	n/a	n/a	11	73	Blank	Win	True
694.977	1.45	Win2	0.7297	n/a	Yes	2.671	n/a	5.0	GoodResponse	1	0.016	693.993	11	73	Feedback	Win	True
696.432	2.671	Win2	0.7297	n/a	Yes	2.671	n/a	n/a	GoodResponse	1	0.0	n/a	11	73	ISIslide	Win	True
699.123	0.25	Lose2	0.7333	0.0	Yes	2.627	0.023	n/a	GoodResponse	0	n/a	n/a	11	74	Cue	AvoidedLoss	True
699.374	4.05	Lose2	0.7333	0.0	Yes	2.627	0.001	n/a	GoodResponse	0	n/a	n/a	11	74	Fixation	AvoidedLoss	True
703.419	0.21	Lose2	0.7333	0.004	Yes	2.627	-0.004	2.0	GoodResponse	0	0.195	702.614	11	74	Target	AvoidedLoss	True
703.614	0.3	Lose2	0.7333	0.004	Yes	2.627	-0.004	2.0	GoodResponse	0	0.195	n/a	11	74	ButtonPress	AvoidedLoss	True
703.637	0.49	Lose2	0.7333	n/a	Yes	2.627	n/a	n/a	GoodResponse	0	n/a	n/a	11	74	Blank	AvoidedLoss	True
704.121	1.45	Lose2	0.7333	n/a	Yes	2.627	n/a	5.0	GoodResponse	0	0.043	703.164	11	74	Feedback	AvoidedLoss	True
705.576	2.627	Lose2	0.7333	n/a	Yes	2.627	n/a	n/a	GoodResponse	0	0.0	n/a	11	74	ISIslide	AvoidedLoss	True
708.217	0.25	Lose2	0.7368000000000001	0.0	Yes	2.933	0.017	n/a	GoodResponse	0	n/a	n/a	11	75	Cue	AvoidedLoss	True
708.468	3.95	Lose2	0.7368000000000001	0.0	Yes	2.933	0.001	n/a	GoodResponse	0	n/a	n/a	11	75	Fixation	AvoidedLoss	True
712.413	0.2	Lose2	0.7368000000000001	0.004	Yes	2.933	-0.004	2.0	GoodResponse	0	0.175	711.588	11	75	Target	AvoidedLoss	True
712.588	0.3	Lose2	0.7368000000000001	0.004	Yes	2.933	-0.004	2.0	GoodResponse	0	0.175	n/a	11	75	ButtonPress	AvoidedLoss	True
712.614	0.5	Lose2	0.7368000000000001	n/a	Yes	2.933	n/a	n/a	GoodResponse	0	n/a	n/a	11	75	Blank	AvoidedLoss	True
713.115	1.45	Lose2	0.7368000000000001	n/a	Yes	2.933	n/a	5.0	GoodResponse	0	0.024	712.139	11	75	Feedback	AvoidedLoss	True
714.569	2.933	Lose2	0.7368000000000001	n/a	Yes	2.933	n/a	n/a	GoodResponse	0	0.0	n/a	11	75	ISIslide	AvoidedLoss	True
717.528	0.25	Control	0.7403	0.0	Yes	3.222	0.028	n/a	GoodResponse	0	n/a	n/a	11	76	Cue	Neutral	True
717.779	4.05	Control	0.7403	0.0	Yes	3.222	0.001	n/a	GoodResponse	0	n/a	n/a	11	76	Fixation	Neutral	True
721.824	0.19	Control	0.7403	0.004	Yes	3.222	-0.004	2.0	GoodResponse	0	0.175	720.999	11	76	Target	Neutral	True
721.999	0.3	Control	0.7403	0.004	Yes	3.222	-0.004	2.0	GoodResponse	0	0.175	n/a	11	76	ButtonPress	Neutral	True
722.025	0.51	Control	0.7403	n/a	Yes	3.222	n/a	n/a	GoodResponse	0	n/a	n/a	11	76	Blank	Neutral	True
722.527	1.45	Control	0.7403	n/a	Yes	3.222	n/a	5.0	GoodResponse	0	0.026	721.553	11	76	Feedback	Neutral	True
723.981	3.222	Control	0.7403	n/a	Yes	3.222	n/a	n/a	GoodResponse	0	0.0	n/a	11	76	ISIslide	Neutral	True
727.224	0.25	Lose2	0.7308	0.0	No	2.576	0.024	n/a	LatePress	-1	n/a	n/a	10	77	Cue	Loss	True
727.475	3.95	Lose2	0.7308	0.0	No	2.576	0.001	n/a	LatePress	-1	n/a	n/a	10	77	Fixation	Loss	True
731.42	0.18	Lose2	0.7308	0.004	No	2.576	-0.004	2.0	LatePress	-1	0.184	730.604	10	77	Target	Loss	True
731.604	0.52	Lose2	0.7308	n/a	No	2.576	n/a	n/a	LatePress	-1	n/a	n/a	10	77	Blank	Loss	True
731.604	0.3	Lose2	0.7308	0.004	No	2.576	-0.004	2.0	LatePress	-1	0.184	n/a	10	77	ButtonPress	Loss	True
732.122	1.45	Lose2	0.7308	n/a	No	2.576	n/a	5.0	LatePress	-1	0.041	731.163	10	77	Feedback	Loss	True
733.576	2.576	Lose2	0.7308	n/a	No	2.576	n/a	n/a	LatePress	-1	0.0	n/a	10	77	ISIslide	Loss	True
