onset	duration	cue_type	current_mean_accuracy	duration_error	is_hit	isi_adjusted	onset_delay	response	response_type	reward	rt	rt_time	total_reward	trial_number	trial_phase	trial_type	one_press
11.108	0.25	Control	1.0	0.0	Yes	2.942	0.008	n/a	GoodResponse	0	n/a	n/a	0	0	Cue	Neutral	True
11.358	3.85	Control	1.0	0.0	Yes	2.942	0.0	n/a	GoodResponse	0	n/a	n/a	0	0	Fixation	Neutral	True
15.22	0.4	Control	1.0	0.0	Yes	2.942	0.012	3.0	GoodResponse	0	0.276	14.496	0	0	Target	Neutral	True
15.496	0.3	Control	1.0	0.0	Yes	2.942	0.012	3.0	GoodResponse	0	0.276	n/a	0	0	ButtonPress	Neutral	True
15.604	0.3	Control	1.0	n/a	Yes	2.942	n/a	n/a	GoodResponse	0	n/a	n/a	0	0	Blank	Neutral	True
15.905	1.45	Control	1.0	n/a	Yes	2.942	n/a	5.0	GoodResponse	0	0.022	14.927	0	0	Feedback	Neutral	True
17.36	2.942	Control	1.0	n/a	Yes	2.942	n/a	n/a	GoodResponse	0	0.0	n/a	0	0	ISIslide	Neutral	True
20.385	0.25	Lose2	1.0	0.0	Yes	2.715	0.085	n/a	GoodResponse	0	n/a	n/a	0	1	Cue	AvoidedLoss	True
20.636	4.0	Lose2	1.0	0.0	Yes	2.715	0.001	n/a	GoodResponse	0	n/a	n/a	0	1	Fixation	AvoidedLoss	True
24.631	0.39	Lose2	1.0	0.004	Yes	2.715	-0.004	3.0	GoodResponse	0	0.196	23.827	0	1	Target	AvoidedLoss	True
24.827	0.3	Lose2	1.0	0.004	Yes	2.715	-0.004	3.0	GoodResponse	0	0.196	n/a	0	1	ButtonPress	AvoidedLoss	True
25.033	0.31	Lose2	1.0	n/a	Yes	2.715	n/a	n/a	GoodResponse	0	n/a	n/a	0	1	Blank	AvoidedLoss	True
25.333	1.45	Lose2	1.0	n/a	Yes	2.715	n/a	5.0	GoodResponse	0	0.009	24.342	0	1	Feedback	AvoidedLoss	True
26.788	2.715	Lose2	1.0	n/a	Yes	2.715	n/a	n/a	GoodResponse	0	0.0	n/a	0	1	ISIslide	AvoidedLoss	True
29.529	0.25	Control	1.0	0.0	Yes	2.571	0.029	n/a	GoodResponse	0	n/a	n/a	0	2	Cue	Neutral	True
29.78	4.1	Control	1.0	0.0	Yes	2.571	0.001	n/a	GoodResponse	0	n/a	n/a	0	2	Fixation	Neutral	True
33.876	0.38	Control	1.0	0.003	Yes	2.571	-0.003	3.0	GoodResponse	0	0.188	33.064	0	2	Target	Neutral	True
34.064	0.3	Control	1.0	0.003	Yes	2.571	-0.003	3.0	GoodResponse	0	0.188	n/a	0	2	ButtonPress	Neutral	True
34.26	0.32	Control	1.0	n/a	Yes	2.571	n/a	n/a	GoodResponse	0	n/a	n/a	0	2	Blank	Neutral	True
34.578	1.45	Control	1.0	n/a	Yes	2.571	n/a	5.0	GoodResponse	0	0.031	33.609	0	2	Feedback	Neutral	True
36.032	2.571	Control	1.0	n/a	Yes	2.571	n/a	n/a	GoodResponse	0	0.0	n/a	0	2	ISIslide	Neutral	True
38.673	0.25	Win2	1.0	0.0	Yes	2.777	0.073	n/a	GoodResponse	1	n/a	n/a	1	3	Cue	Win	True
38.924	3.95	Win2	1.0	0.0	Yes	2.777	0.001	n/a	GoodResponse	1	n/a	n/a	1	3	Fixation	Win	True
42.869	0.37	Win2	1.0	0.004	Yes	2.777	-0.004	3.0	GoodResponse	1	0.177	42.046	1	3	Target	Win	True
43.046	0.3	Win2	1.0	0.004	Yes	2.777	-0.004	3.0	GoodResponse	1	0.177	n/a	1	3	ButtonPress	Win	True
43.254	0.33	Win2	1.0	n/a	Yes	2.777	n/a	n/a	GoodResponse	1	n/a	n/a	1	3	Blank	Win	True
43.571	1.45	Win2	1.0	n/a	Yes	2.777	n/a	5.0	GoodResponse	1	0.014	42.585	1	3	Feedback	Win	True
45.026	2.777	Win2	1.0	n/a	Yes	2.777	n/a	n/a	GoodResponse	1	0.0	n/a	1	3	ISIslide	Win	True
47.817	0.25	Win2	1.0	0.0	Yes	3.283	0.017	n/a	GoodResponse	1	n/a	n/a	2	4	Cue	Win	True
48.068	4.0	Win2	1.0	0.0	Yes	3.283	0.001	n/a	GoodResponse	1	n/a	n/a	2	4	Fixation	Win	True
52.063	0.36	Win2	1.0	0.004	Yes	3.283	-0.004	3.0	GoodResponse	1	0.162	51.225	2	4	Target	Win	True
52.225	0.3	Win2	1.0	0.004	Yes	3.283	-0.004	3.0	GoodResponse	1	0.162	n/a	2	4	ButtonPress	Win	True
52.431	0.34	Win2	1.0	n/a	Yes	3.283	n/a	n/a	GoodResponse	1	n/a	n/a	2	4	Blank	Win	True
52.766	1.45	Win2	1.0	n/a	Yes	3.283	n/a	5.0	GoodResponse	1	0.038	51.804	2	4	Feedback	Win	True
54.22	3.283	Win2	1.0	n/a	Yes	3.283	n/a	n/a	GoodResponse	1	0.0	n/a	2	4	ISIslide	Win	True
57.53	0.25	Win2	1.0	0.0	Yes	2.77	0.03	n/a	GoodResponse	1	n/a	n/a	3	5	Cue	Win	True
57.781	4.0	Win2	1.0	0.0	Yes	2.77	0.001	n/a	GoodResponse	1	n/a	n/a	3	5	Fixation	Win	True
61.776	0.35	Win2	1.0	0.004	Yes	2.77	-0.004	3.0	GoodResponse	1	0.187	60.963	3	5	Target	Win	True
61.963	0.3	Win2	1.0	0.004	Yes	2.77	-0.004	3.0	GoodResponse	1	0.187	n/a	3	5	ButtonPress	Win	True
62.127	0.35	Win2	1.0	n/a	Yes	2.77	n/a	n/a	GoodResponse	1	n/a	n/a	3	5	Blank	Win	True
62.478	1.45	Win2	1.0	n/a	Yes	2.77	n/a	5.0	GoodResponse	1	0.034	61.512	3	5	Feedback	Win	True
63.932	2.77	Win2	1.0	n/a	Yes	2.77	n/a	n/a	GoodResponse	1	0.0	n/a	3	5	ISIslide	Win	True
66.724	0.25	Lose2	1.0	0.0	Yes	2.726	0.024	n/a	GoodResponse	0	n/a	n/a	3	6	Cue	AvoidedLoss	True
66.975	3.95	Lose2	1.0	0.0	Yes	2.726	0.001	n/a	GoodResponse	0	n/a	n/a	3	6	Fixation	AvoidedLoss	True
70.92	0.34	Lose2	1.0	0.004	Yes	2.726	-0.004	3.0	GoodResponse	0	0.193	70.113	3	6	Target	AvoidedLoss	True
71.113	0.3	Lose2	1.0	0.004	Yes	2.726	-0.004	3.0	GoodResponse	0	0.193	n/a	3	6	ButtonPress	AvoidedLoss	True
71.271	0.36	Lose2	1.0	n/a	Yes	2.726	n/a	n/a	GoodResponse	0	n/a	n/a	3	6	Blank	AvoidedLoss	True
71.622	1.45	Lose2	1.0	n/a	Yes	2.726	n/a	5.0	GoodResponse	0	0.012	70.634	3	6	Feedback	AvoidedLoss	True
73.076	2.726	Lose2	1.0	n/a	Yes	2.726	n/a	3.0	GoodResponse	0	2.355	n/a	3	6	ISIslide	AvoidedLoss	True
75.801	0.25	Lose2	1.0	0.0	Yes	4.049	0.001	n/a	GoodResponse	0	n/a	n/a	3	7	Cue	AvoidedLoss	True
76.052	4.05	Lose2	1.0	0.0	Yes	4.049	0.001	n/a	GoodResponse	0	n/a	n/a	3	7	Fixation	AvoidedLoss	True
80.097	0.33	Lose2	1.0	0.004	Yes	4.049	-0.004	3.0	GoodResponse	0	0.188	79.285	3	7	Target	AvoidedLoss	True
80.285	0.3	Lose2	1.0	0.004	Yes	4.049	-0.004	3.0	GoodResponse	0	0.188	n/a	3	7	ButtonPress	AvoidedLoss	True
80.432	0.37	Lose2	1.0	n/a	Yes	4.049	n/a	n/a	GoodResponse	0	n/a	n/a	3	7	Blank	AvoidedLoss	True
80.799	1.45	Lose2	1.0	n/a	Yes	4.049	n/a	5.0	GoodResponse	0	0.007	79.806	3	7	Feedback	AvoidedLoss	True
82.254	4.049	Lose2	1.0	n/a	Yes	4.049	n/a	n/a	GoodResponse	0	0.0	n/a	3	7	ISIslide	AvoidedLoss	True
86.316	0.25	Lose2	1.0	0.0	Yes	3.034	0.016	n/a	GoodResponse	0	n/a	n/a	3	8	Cue	AvoidedLoss	True
86.567	3.95	Lose2	1.0	0.0	Yes	3.034	0.001	n/a	GoodResponse	0	n/a	n/a	3	8	Fixation	AvoidedLoss	True
90.512	0.32	Lose2	1.0	0.004	Yes	3.034	-0.004	3.0	GoodResponse	0	0.174	89.686	3	8	Target	AvoidedLoss	True
90.686	0.3	Lose2	1.0	0.004	Yes	3.034	-0.004	3.0	GoodResponse	0	0.174	n/a	3	8	ButtonPress	AvoidedLoss	True
90.846	0.38	Lose2	1.0	n/a	Yes	3.034	n/a	n/a	GoodResponse	0	n/a	n/a	3	8	Blank	AvoidedLoss	True
91.214	1.45	Lose2	1.0	n/a	Yes	3.034	n/a	5.0	GoodResponse	0	0.029	90.243	3	8	Feedback	AvoidedLoss	True
92.668	3.034	Lose2	1.0	n/a	Yes	3.034	n/a	n/a	GoodResponse	0	0.0	n/a	3	8	ISIslide	AvoidedLoss	True
95.727	0.25	Lose2	1.0	0.001	Yes	3.123	0.027	n/a	GoodResponse	0	n/a	n/a	3	9	Cue	AvoidedLoss	True
95.978	3.95	Lose2	1.0	0.0	Yes	3.123	0.001	n/a	GoodResponse	0	n/a	n/a	3	9	Fixation	AvoidedLoss	True
99.923	0.31	Lose2	1.0	0.004	Yes	3.123	-0.004	3.0	GoodResponse	0	0.169	99.092	3	9	Target	AvoidedLoss	True
100.092	0.3	Lose2	1.0	0.004	Yes	3.123	-0.004	3.0	GoodResponse	0	0.169	n/a	3	9	ButtonPress	AvoidedLoss	True
100.241	0.39	Lose2	1.0	n/a	Yes	3.123	n/a	n/a	GoodResponse	0	n/a	n/a	3	9	Blank	AvoidedLoss	True
100.625	1.45	Lose2	1.0	n/a	Yes	3.123	n/a	5.0	GoodResponse	0	0.032	99.657	3	9	Feedback	AvoidedLoss	True
102.08	3.123	Lose2	1.0	n/a	Yes	3.123	n/a	n/a	GoodResponse	0	0.0	n/a	3	9	ISIslide	AvoidedLoss	True
105.223	0.25	Control	1.0	0.0	Yes	3.277	0.023	n/a	GoodResponse	0	n/a	n/a	3	10	Cue	Neutral	True
105.473	4.0	Control	1.0	0.0	Yes	3.277	0.0	n/a	GoodResponse	0	n/a	n/a	3	10	Fixation	Neutral	True
109.469	0.3	Control	1.0	0.004	Yes	3.277	-0.004	3.0	GoodResponse	0	0.172	108.641	3	10	Target	Neutral	True
109.641	0.3	Control	1.0	0.004	Yes	3.277	-0.004	3.0	GoodResponse	0	0.172	n/a	3	10	ButtonPress	Neutral	True
109.77	0.4	Control	1.0	n/a	Yes	3.277	n/a	n/a	GoodResponse	0	n/a	n/a	3	10	Blank	Neutral	True
110.171	1.45	Control	1.0	n/a	Yes	3.277	n/a	5.0	GoodResponse	0	0.048	109.219	3	10	Feedback	Neutral	True
111.625	3.277	Control	1.0	n/a	Yes	3.277	n/a	n/a	GoodResponse	0	0.0	n/a	3	10	ISIslide	Neutral	True
114.918	0.25	Lose2	1.0	0.0	Yes	2.732	0.018	n/a	GoodResponse	0	n/a	n/a	3	11	Cue	AvoidedLoss	True
115.169	4.05	Lose2	1.0	0.0	Yes	2.732	0.001	n/a	GoodResponse	0	n/a	n/a	3	11	Fixation	AvoidedLoss	True
119.214	0.29	Lose2	1.0	0.004	Yes	2.732	-0.004	3.0	GoodResponse	0	0.182	118.396	3	11	Target	AvoidedLoss	True
119.396	0.3	Lose2	1.0	0.004	Yes	2.732	-0.004	3.0	GoodResponse	0	0.182	n/a	3	11	ButtonPress	AvoidedLoss	True
119.515	0.41	Lose2	1.0	n/a	Yes	2.732	n/a	n/a	GoodResponse	0	n/a	n/a	3	11	Blank	AvoidedLoss	True
119.917	1.45	Lose2	1.0	n/a	Yes	2.732	n/a	5.0	GoodResponse	0	0.009	118.926	3	11	Feedback	AvoidedLoss	True
121.371	2.732	Lose2	1.0	n/a	Yes	2.732	n/a	n/a	GoodResponse	0	0.0	n/a	3	11	ISIslide	AvoidedLoss	True
124.129	0.25	Control	1.0	0.0	Yes	2.971	0.029	n/a	GoodResponse	0	n/a	n/a	3	12	Cue	Neutral	True
124.38	3.9	Control	1.0	0.0	Yes	2.971	0.001	n/a	GoodResponse	0	n/a	n/a	3	12	Fixation	Neutral	True
128.275	0.28	Control	1.0	0.004	Yes	2.971	-0.004	3.0	GoodResponse	0	0.184	127.459	3	12	Target	Neutral	True
128.459	0.3	Control	1.0	0.004	Yes	2.971	-0.004	3.0	GoodResponse	0	0.184	n/a	3	12	ButtonPress	Neutral	True
128.559	0.42	Control	1.0	n/a	Yes	2.971	n/a	n/a	GoodResponse	0	n/a	n/a	3	12	Blank	Neutral	True
128.977	1.45	Control	1.0	n/a	Yes	2.971	n/a	5.0	GoodResponse	0	0.021	127.998	3	12	Feedback	Neutral	True
130.431	2.971	Control	1.0	n/a	Yes	2.971	n/a	n/a	GoodResponse	0	0.0	n/a	3	12	ISIslide	Neutral	True
133.424	0.25	Control	1.0	0.0	Yes	2.776	0.024	n/a	GoodResponse	0	n/a	n/a	3	13	Cue	Neutral	True
133.674	4.0	Control	1.0	0.0	Yes	2.776	0.0	n/a	GoodResponse	0	n/a	n/a	3	13	Fixation	Neutral	True
137.67	0.27	Control	1.0	0.004	Yes	2.776	-0.004	3.0	GoodResponse	0	0.17	136.84	3	13	Target	Neutral	True
137.84	0.3	Control	1.0	0.004	Yes	2.776	-0.004	3.0	GoodResponse	0	0.17	n/a	3	13	ButtonPress	Neutral	True
137.954	0.43	Control	1.0	n/a	Yes	2.776	n/a	n/a	GoodResponse	0	n/a	n/a	3	13	Blank	Neutral	True
138.372	1.45	Control	1.0	n/a	Yes	2.776	n/a	5.0	GoodResponse	0	0.041	137.413	3	13	Feedback	Neutral	True
139.826	2.776	Control	1.0	n/a	Yes	2.776	n/a	n/a	GoodResponse	0	0.0	n/a	3	13	ISIslide	Neutral	True
142.618	0.25	Win2	1.0	0.0	Yes	2.682	0.018	n/a	GoodResponse	1	n/a	n/a	4	14	Cue	Win	True
142.869	4.1	Win2	1.0	0.0	Yes	2.682	0.001	n/a	GoodResponse	1	n/a	n/a	4	14	Fixation	Win	True
146.964	0.26	Win2	1.0	0.004	Yes	2.682	-0.004	3.0	GoodResponse	1	0.178	146.142	4	14	Target	Win	True
147.142	0.3	Win2	1.0	0.004	Yes	2.682	-0.004	3.0	GoodResponse	1	0.178	n/a	4	14	ButtonPress	Win	True
147.232	0.44	Win2	1.0	n/a	Yes	2.682	n/a	n/a	GoodResponse	1	n/a	n/a	4	14	Blank	Win	True
147.666	1.45	Win2	1.0	n/a	Yes	2.682	n/a	5.0	GoodResponse	1	0.015	146.681	4	14	Feedback	Win	True
149.121	2.682	Win2	1.0	n/a	Yes	2.682	n/a	n/a	GoodResponse	1	0.0	n/a	4	14	ISIslide	Win	True
151.829	0.25	Control	1.0	0.0	Yes	2.971	0.029	n/a	GoodResponse	0	n/a	n/a	4	15	Cue	Neutral	True
152.079	4.0	Control	1.0	0.001	Yes	2.971	0.0	n/a	GoodResponse	0	n/a	n/a	4	15	Fixation	Neutral	True
156.075	0.25	Control	1.0	0.004	Yes	2.971	-0.004	3.0	GoodResponse	0	0.169	155.244	4	15	Target	Neutral	True
156.244	0.3	Control	1.0	0.004	Yes	2.971	-0.004	3.0	GoodResponse	0	0.169	n/a	4	15	ButtonPress	Neutral	True
156.326	0.45	Control	1.0	n/a	Yes	2.971	n/a	n/a	GoodResponse	0	n/a	n/a	4	15	Blank	Neutral	True
156.777	1.45	Control	1.0	n/a	Yes	2.971	n/a	5.0	GoodResponse	0	0.026	155.803	4	15	Feedback	Neutral	True
158.231	2.971	Control	1.0	n/a	Yes	2.971	n/a	n/a	GoodResponse	0	0.0	n/a	4	15	ISIslide	Neutral	True
161.224	0.25	Win2	1.0	0.0	Yes	2.876	0.024	n/a	GoodResponse	1	n/a	n/a	5	16	Cue	Win	True
161.474	4.0	Win2	1.0	0.0	Yes	2.876	0.0	n/a	GoodResponse	1	n/a	n/a	5	16	Fixation	Win	True
165.47	0.24	Win2	1.0	0.004	Yes	2.876	-0.004	3.0	GoodResponse	1	0.165	164.635	5	16	Target	Win	True
165.635	0.3	Win2	1.0	0.004	Yes	2.876	-0.004	3.0	GoodResponse	1	0.165	n/a	5	16	ButtonPress	Win	True
165.72	0.46	Win2	1.0	n/a	Yes	2.876	n/a	n/a	GoodResponse	1	n/a	n/a	5	16	Blank	Win	True
166.172	1.45	Win2	1.0	n/a	Yes	2.876	n/a	5.0	GoodResponse	1	0.046	165.218	5	16	Feedback	Win	True
167.626	2.876	Win2	1.0	n/a	Yes	2.876	n/a	n/a	GoodResponse	1	0.0	n/a	5	16	ISIslide	Win	True
170.518	0.25	Lose2	1.0	0.0	Yes	2.732	0.018	n/a	GoodResponse	0	n/a	n/a	5	17	Cue	AvoidedLoss	True
170.769	3.95	Lose2	1.0	0.0	Yes	2.732	0.001	n/a	GoodResponse	0	n/a	n/a	5	17	Fixation	AvoidedLoss	True
174.714	0.23	Lose2	1.0	0.004	Yes	2.732	-0.004	3.0	GoodResponse	0	0.209	173.923	5	17	Target	AvoidedLoss	True
174.923	0.3	Lose2	1.0	0.004	Yes	2.732	-0.004	3.0	GoodResponse	0	0.209	n/a	5	17	ButtonPress	AvoidedLoss	True
174.948	0.47	Lose2	1.0	n/a	Yes	2.732	n/a	n/a	GoodResponse	0	n/a	n/a	5	17	Blank	AvoidedLoss	True
175.416	1.45	Lose2	1.0	n/a	Yes	2.732	n/a	5.0	GoodResponse	0	0.022	174.438	5	17	Feedback	AvoidedLoss	True
176.87	2.732	Lose2	1.0	n/a	Yes	2.732	n/a	n/a	GoodResponse	0	0.0	n/a	5	17	ISIslide	AvoidedLoss	True
179.629	0.25	Lose2	1.0	0.0	Yes	2.721	0.029	n/a	GoodResponse	0	n/a	n/a	5	18	Cue	AvoidedLoss	True
179.879	4.05	Lose2	1.0	0.0	Yes	2.721	0.0	n/a	GoodResponse	0	n/a	n/a	5	18	Fixation	AvoidedLoss	True
183.925	0.22	Lose2	1.0	0.004	Yes	2.721	-0.004	3.0	GoodResponse	0	0.152	183.077	5	18	Target	AvoidedLoss	True
184.077	0.3	Lose2	1.0	0.004	Yes	2.721	-0.004	3.0	GoodResponse	0	0.152	n/a	5	18	ButtonPress	AvoidedLoss	True
184.159	0.48	Lose2	1.0	n/a	Yes	2.721	n/a	n/a	GoodResponse	0	n/a	n/a	5	18	Blank	AvoidedLoss	True
184.627	1.45	Lose2	1.0	n/a	Yes	2.721	n/a	5.0	GoodResponse	0	0.029	183.656	5	18	Feedback	AvoidedLoss	True
186.081	2.721	Lose2	1.0	n/a	Yes	2.721	n/a	n/a	GoodResponse	0	0.0	n/a	5	18	ISIslide	AvoidedLoss	True
188.823	0.25	Control	1.0	0.0	Yes	2.927	0.023	n/a	GoodResponse	0	n/a	n/a	5	19	Cue	Neutral	True
189.074	3.95	Control	1.0	0.0	Yes	2.927	0.001	n/a	GoodResponse	0	n/a	n/a	5	19	Fixation	Neutral	True
193.019	0.21	Control	1.0	0.004	Yes	2.927	-0.004	3.0	GoodResponse	0	0.193	192.212	5	19	Target	Neutral	True
193.212	0.3	Control	1.0	0.004	Yes	2.927	-0.004	3.0	GoodResponse	0	0.193	n/a	5	19	ButtonPress	Neutral	True
193.236	0.49	Control	1.0	n/a	Yes	2.927	n/a	n/a	GoodResponse	0	n/a	n/a	5	19	Blank	Neutral	True
193.721	1.45	Control	1.0	n/a	Yes	2.927	n/a	5.0	GoodResponse	0	0.009	192.73	5	19	Feedback	Neutral	True
195.175	2.927	Control	1.0	n/a	Yes	2.927	n/a	n/a	GoodResponse	0	0.0	n/a	5	19	ISIslide	Neutral	True
198.117	0.25	Control	0.9523999999999999	0.0	No	2.633	0.017	n/a	NoResponse	0	n/a	n/a	5	20	Cue	Neutral	True
198.368	4.05	Control	0.9523999999999999	0.0	No	2.633	0.001	3.0	NoResponse	0	3.998	201.366	5	20	Fixation	Neutral	True
202.366	0.3	Control	0.9523999999999999	0.0	No	2.633	0.001	3.0	NoResponse	0	3.998	n/a	5	20	ButtonPress	Neutral	True
202.413	0.2	Control	0.9523999999999999	0.004	No	2.633	-0.004	n/a	NoResponse	0	n/a	n/a	5	20	Target	Neutral	True
202.614	0.5	Control	0.9523999999999999	n/a	No	2.633	n/a	n/a	NoResponse	0	n/a	n/a	5	20	Blank	Neutral	True
203.116	1.45	Control	0.9523999999999999	n/a	No	2.633	n/a	5.0	NoResponse	0	0.028	202.144	5	20	Feedback	Neutral	True
204.57	2.633	Control	0.9523999999999999	n/a	No	2.633	n/a	n/a	NoResponse	0	0.0	n/a	5	20	ISIslide	Neutral	True
207.228	0.25	Control	0.9545	0.0	Yes	2.772	0.028	n/a	GoodResponse	0	n/a	n/a	5	21	Cue	Neutral	True
207.479	4.1	Control	0.9545	0.0	Yes	2.772	0.001	n/a	GoodResponse	0	n/a	n/a	5	21	Fixation	Neutral	True
211.574	0.19	Control	0.9545	0.004	Yes	2.772	-0.004	3.0	GoodResponse	0	0.171	210.745	5	21	Target	Neutral	True
211.745	0.3	Control	0.9545	0.004	Yes	2.772	-0.004	3.0	GoodResponse	0	0.171	n/a	5	21	ButtonPress	Neutral	True
211.775	0.51	Control	0.9545	n/a	Yes	2.772	n/a	n/a	GoodResponse	0	n/a	n/a	5	21	Blank	Neutral	True
212.276	1.45	Control	0.9545	n/a	Yes	2.772	n/a	5.0	GoodResponse	0	0.039	211.315	5	21	Feedback	Neutral	True
213.731	2.772	Control	0.9545	n/a	Yes	2.772	n/a	n/a	GoodResponse	0	0.0	n/a	5	21	ISIslide	Neutral	True
216.522	0.25	Control	0.9565	0.0	Yes	2.778	0.022	n/a	GoodResponse	0	n/a	n/a	5	22	Cue	Neutral	True
216.773	4.0	Control	0.9565	0.0	Yes	2.778	0.001	n/a	GoodResponse	0	n/a	n/a	5	22	Fixation	Neutral	True
220.768	0.18	Control	0.9565	0.004	Yes	2.778	-0.004	3.0	GoodResponse	0	0.16	219.928	5	22	Target	Neutral	True
220.928	0.3	Control	0.9565	0.004	Yes	2.778	-0.004	3.0	GoodResponse	0	0.16	n/a	5	22	ButtonPress	Neutral	True
220.952	0.52	Control	0.9565	n/a	Yes	2.778	n/a	n/a	GoodResponse	0	n/a	n/a	5	22	Blank	Neutral	True
221.471	1.45	Control	0.9565	n/a	Yes	2.778	n/a	5.0	GoodResponse	0	0.015	220.486	5	22	Feedback	Neutral	True
222.925	2.778	Control	0.9565	n/a	Yes	2.778	n/a	n/a	GoodResponse	0	0.0	n/a	5	22	ISIslide	Neutral	True
225.717	0.25	Control	0.9582999999999999	0.0	Yes	2.783	0.017	n/a	GoodResponse	0	n/a	n/a	5	23	Cue	Neutral	True
225.967	3.9	Control	0.9582999999999999	0.0	Yes	2.783	0.0	n/a	GoodResponse	0	n/a	n/a	5	23	Fixation	Neutral	True
229.879	0.17	Control	0.9582999999999999	0.0	Yes	2.783	0.012	3.0	GoodResponse	0	0.145	229.024	5	23	Target	Neutral	True
230.024	0.3	Control	0.9582999999999999	0.0	Yes	2.783	0.012	3.0	GoodResponse	0	0.145	n/a	5	23	ButtonPress	Neutral	True
230.046	0.53	Control	0.9582999999999999	n/a	Yes	2.783	n/a	n/a	GoodResponse	0	n/a	n/a	5	23	Blank	Neutral	True
230.564	1.45	Control	0.9582999999999999	n/a	Yes	2.783	n/a	5.0	GoodResponse	0	0.043	229.607	5	23	Feedback	Neutral	True
232.019	2.783	Control	0.9582999999999999	n/a	Yes	2.783	n/a	n/a	GoodResponse	0	0.0	n/a	5	23	ISIslide	Neutral	True
234.827	0.25	Win2	0.92	0.0	No	3.123	0.027	n/a	NoResponse	0	n/a	n/a	5	24	Cue	MissedWin	False
235.078	3.95	Win2	0.92	0.0	No	3.123	0.001	3.0	NoResponse	0	3.154	237.232	5	24	Fixation	MissedWin	False
238.232	0.3	Win2	0.92	0.0	No	3.123	0.001	3.0	NoResponse	0	3.154	n/a	5	24	ButtonPress	MissedWin	False
239.023	0.16	Win2	0.92	0.004	No	3.123	-0.004	3.0	NoResponse	0	0.281	238.304	5	24	Target	MissedWin	False
239.19	0.54	Win2	0.92	n/a	No	3.123	n/a	n/a	NoResponse	0	n/a	n/a	5	24	Blank	MissedWin	False
239.304	0.3	Win2	0.92	0.004	No	3.123	-0.004	3.0	NoResponse	0	0.281	n/a	5	24	ButtonPress	MissedWin	False
239.725	1.45	Win2	0.92	n/a	No	3.123	n/a	5.0	NoResponse	0	0.008	238.733	5	24	Feedback	MissedWin	False
241.18	3.123	Win2	0.92	n/a	No	3.123	n/a	n/a	NoResponse	0	0.0	n/a	5	24	ISIslide	MissedWin	False
244.322	0.25	Win2	0.8845999999999999	0.0	No	3.078	0.022	n/a	NoResponse	0	n/a	n/a	5	25	Cue	MissedWin	True
244.573	4.0	Win2	0.8845999999999999	0.0	No	3.078	0.001	n/a	NoResponse	0	n/a	n/a	5	25	Fixation	MissedWin	True
248.568	0.15	Win2	0.8845999999999999	0.004	No	3.078	-0.004	3.0	NoResponse	0	0.246	247.814	5	25	Target	MissedWin	True
248.719	0.55	Win2	0.8845999999999999	n/a	No	3.078	n/a	n/a	NoResponse	0	n/a	n/a	5	25	Blank	MissedWin	True
248.814	0.3	Win2	0.8845999999999999	0.004	No	3.078	-0.004	3.0	NoResponse	0	0.246	n/a	5	25	ButtonPress	MissedWin	True
249.27	1.45	Win2	0.8845999999999999	n/a	No	3.078	n/a	5.0	NoResponse	0	0.02	248.29	5	25	Feedback	MissedWin	True
250.725	3.078	Win2	0.8845999999999999	n/a	No	3.078	n/a	n/a	NoResponse	0	0.0	n/a	5	25	ISIslide	MissedWin	True
253.817	0.25	Win2	0.8519	0.0	No	2.933	0.017	n/a	NoResponse	0	n/a	n/a	5	26	Cue	MissedWin	True
254.068	3.95	Win2	0.8519	0.0	No	2.933	0.001	n/a	NoResponse	0	n/a	n/a	5	26	Fixation	MissedWin	True
258.013	0.15	Win2	0.8519	0.004	No	2.933	-0.004	3.0	NoResponse	0	0.17	257.183	5	26	Target	MissedWin	True
258.164	0.55	Win2	0.8519	n/a	No	2.933	n/a	n/a	NoResponse	0	n/a	n/a	5	26	Blank	MissedWin	True
258.183	0.3	Win2	0.8519	0.004	No	2.933	-0.004	3.0	NoResponse	0	0.17	n/a	5	26	ButtonPress	MissedWin	True
258.715	1.45	Win2	0.8519	n/a	No	2.933	n/a	5.0	NoResponse	0	0.039	257.754	5	26	Feedback	MissedWin	True
260.17	2.933	Win2	0.8519	n/a	No	2.933	n/a	n/a	NoResponse	0	0.0	n/a	5	26	ISIslide	MissedWin	True
263.129	0.25	Lose2	0.8214	0.0	No	2.821	0.029	n/a	NoResponse	-1	n/a	n/a	4	27	Cue	Loss	True
263.379	4.05	Lose2	0.8214	0.0	No	2.821	0.0	n/a	NoResponse	-1	n/a	n/a	4	27	Fixation	Loss	True
267.425	0.15	Lose2	0.8214	0.004	No	2.821	-0.004	3.0	NoResponse	-1	0.168	266.593	4	27	Target	Loss	True
267.575	0.55	Lose2	0.8214	n/a	No	2.821	n/a	n/a	NoResponse	-1	n/a	n/a	4	27	Blank	Loss	True
267.593	0.3	Lose2	0.8214	0.004	No	2.821	-0.004	3.0	NoResponse	-1	0.168	n/a	4	27	ButtonPress	Loss	True
268.127	1.45	Lose2	0.8214	n/a	No	2.821	n/a	5.0	NoResponse	-1	0.041	267.168	4	27	Feedback	Loss	True
269.581	2.821	Lose2	0.8214	n/a	No	2.821	n/a	n/a	NoResponse	-1	0.0	n/a	4	27	ISIslide	Loss	True
272.423	0.25	Control	0.7931	0.0	No	2.827	0.023	n/a	NoResponse	0	n/a	n/a	4	28	Cue	Neutral	True
272.674	4.05	Control	0.7931	0.0	No	2.827	0.001	n/a	NoResponse	0	n/a	n/a	4	28	Fixation	Neutral	True
276.719	0.15	Control	0.7931	0.004	No	2.827	-0.004	3.0	NoResponse	0	0.175	275.894	4	28	Target	Neutral	True
276.87	0.55	Control	0.7931	n/a	No	2.827	n/a	n/a	NoResponse	0	n/a	n/a	4	28	Blank	Neutral	True
276.894	0.3	Control	0.7931	0.004	No	2.827	-0.004	3.0	NoResponse	0	0.175	n/a	4	28	ButtonPress	Neutral	True
277.421	1.45	Control	0.7931	n/a	No	2.827	n/a	5.0	NoResponse	0	0.016	276.437	4	28	Feedback	Neutral	True
278.876	2.827	Control	0.7931	n/a	No	2.827	n/a	n/a	NoResponse	0	0.0	n/a	4	28	ISIslide	Neutral	True
281.718	0.25	Lose2	0.7667	0.0	No	2.832	0.018	n/a	NoResponse	-1	n/a	n/a	3	29	Cue	Loss	True
281.968	3.95	Lose2	0.7667	0.0	No	2.832	0.0	n/a	NoResponse	-1	n/a	n/a	3	29	Fixation	Loss	True
285.93	0.15	Lose2	0.7667	0.0	No	2.832	0.012	3.0	NoResponse	-1	0.161	285.091	3	29	Target	Loss	True
286.064	0.55	Lose2	0.7667	n/a	No	2.832	n/a	n/a	NoResponse	-1	n/a	n/a	3	29	Blank	Loss	True
286.091	0.3	Lose2	0.7667	0.0	No	2.832	0.012	3.0	NoResponse	-1	0.161	n/a	3	29	ButtonPress	Loss	True
286.616	1.45	Lose2	0.7667	n/a	No	2.832	n/a	5.0	NoResponse	-1	0.039	285.655	3	29	Feedback	Loss	True
288.07	2.832	Lose2	0.7667	n/a	No	2.832	n/a	n/a	NoResponse	-1	0.0	n/a	3	29	ISIslide	Loss	True
290.928	0.25	Win2	0.7419	0.001	No	2.772	0.028	n/a	NoResponse	0	n/a	n/a	3	30	Cue	MissedWin	True
291.179	3.9	Win2	0.7419	0.0	No	2.772	0.001	n/a	NoResponse	0	n/a	n/a	3	30	Fixation	MissedWin	True
295.074	0.15	Win2	0.7419	0.004	No	2.772	-0.004	3.0	NoResponse	0	0.169	294.243	3	30	Target	MissedWin	True
295.225	0.55	Win2	0.7419	n/a	No	2.772	n/a	n/a	NoResponse	0	n/a	n/a	3	30	Blank	MissedWin	True
295.243	0.3	Win2	0.7419	0.004	No	2.772	-0.004	3.0	NoResponse	0	0.169	n/a	3	30	ButtonPress	MissedWin	True
295.776	1.45	Win2	0.7419	n/a	No	2.772	n/a	5.0	NoResponse	0	0.002	294.778	3	30	Feedback	MissedWin	True
297.231	2.772	Win2	0.7419	n/a	No	2.772	n/a	n/a	NoResponse	0	0.0	n/a	3	30	ISIslide	MissedWin	True
300.022	0.25	Lose2	0.7188	0.0	No	2.828	0.022	n/a	NoResponse	-1	n/a	n/a	2	31	Cue	Loss	True
300.273	4.05	Lose2	0.7188	0.0	No	2.828	0.001	n/a	NoResponse	-1	n/a	n/a	2	31	Fixation	Loss	True
304.319	0.15	Lose2	0.7188	0.003	No	2.828	-0.003	3.0	NoResponse	-1	0.163	303.482	2	31	Target	Loss	True
304.469	0.55	Lose2	0.7188	n/a	No	2.828	n/a	n/a	NoResponse	-1	n/a	n/a	2	31	Blank	Loss	True
304.482	0.3	Lose2	0.7188	0.003	No	2.828	-0.003	3.0	NoResponse	-1	0.163	n/a	2	31	ButtonPress	Loss	True
305.021	1.45	Lose2	0.7188	n/a	No	2.828	n/a	5.0	NoResponse	-1	0.025	304.046	2	31	Feedback	Loss	True
306.475	2.828	Lose2	0.7188	n/a	No	2.828	n/a	n/a	NoResponse	-1	0.0	n/a	2	31	ISIslide	Loss	True
309.317	0.25	Lose2	0.7273000000000001	0.0	Yes	2.633	0.017	n/a	GoodResponse	0	n/a	n/a	2	32	Cue	AvoidedLoss	True
309.568	4.15	Lose2	0.7273000000000001	0.0	Yes	2.633	0.001	n/a	GoodResponse	0	n/a	n/a	2	32	Fixation	AvoidedLoss	True
313.713	0.15	Lose2	0.7273000000000001	0.004	Yes	2.633	-0.004	3.0	GoodResponse	0	0.147	312.86	2	32	Target	AvoidedLoss	True
313.86	0.3	Lose2	0.7273000000000001	0.004	Yes	2.633	-0.004	3.0	GoodResponse	0	0.147	n/a	2	32	ButtonPress	AvoidedLoss	True
313.864	0.55	Lose2	0.7273000000000001	n/a	Yes	2.633	n/a	n/a	GoodResponse	0	n/a	n/a	2	32	Blank	AvoidedLoss	True
314.415	1.45	Lose2	0.7273000000000001	n/a	Yes	2.633	n/a	5.0	GoodResponse	0	0.046	313.461	2	32	Feedback	AvoidedLoss	True
315.87	2.633	Lose2	0.7273000000000001	n/a	Yes	2.633	n/a	n/a	GoodResponse	0	0.0	n/a	2	32	ISIslide	AvoidedLoss	True
318.528	0.25	Win2	0.7059000000000001	0.0	No	2.672	0.028	n/a	NoResponse	0	n/a	n/a	2	33	Cue	MissedWin	True
318.778	4.0	Win2	0.7059000000000001	0.001	No	2.672	0.0	n/a	NoResponse	0	n/a	n/a	2	33	Fixation	MissedWin	True
322.774	0.15	Win2	0.7059000000000001	0.004	No	2.672	-0.004	3.0	NoResponse	0	0.168	321.942	2	33	Target	MissedWin	True
322.924	0.55	Win2	0.7059000000000001	n/a	No	2.672	n/a	n/a	NoResponse	0	n/a	n/a	2	33	Blank	MissedWin	True
322.942	0.3	Win2	0.7059000000000001	0.004	No	2.672	-0.004	3.0	NoResponse	0	0.168	n/a	2	33	ButtonPress	MissedWin	True
323.476	1.45	Win2	0.7059000000000001	n/a	No	2.672	n/a	5.0	NoResponse	0	0.009	322.485	2	33	Feedback	MissedWin	True
324.93	2.672	Win2	0.7059000000000001	n/a	No	2.672	n/a	n/a	NoResponse	0	0.0	n/a	2	33	ISIslide	MissedWin	True
327.622	0.25	Lose2	0.6857	0.0	No	2.628	0.022	3.0	NoResponse	-1	0.221	326.843	1	34	Cue	Loss	False
327.843	0.3	Lose2	0.6857	0.0	No	2.628	0.022	3.0	NoResponse	-1	0.221	n/a	1	34	ButtonPress	Loss	False
327.872	4.05	Lose2	0.6857	0.0	No	2.628	0.0	n/a	NoResponse	-1	n/a	n/a	1	34	Fixation	Loss	False
331.918	0.15	Lose2	0.6857	0.004	No	2.628	-0.004	3.0	NoResponse	-1	0.182	331.1	1	34	Target	Loss	False
332.068	0.55	Lose2	0.6857	n/a	No	2.628	n/a	n/a	NoResponse	-1	n/a	n/a	1	34	Blank	Loss	False
332.1	0.3	Lose2	0.6857	0.004	No	2.628	-0.004	3.0	NoResponse	-1	0.182	n/a	1	34	ButtonPress	Loss	False
332.62	1.45	Lose2	0.6857	n/a	No	2.628	n/a	5.0	NoResponse	-1	0.035	331.655	1	34	Feedback	Loss	False
334.074	2.628	Lose2	0.6857	n/a	No	2.628	n/a	n/a	NoResponse	-1	0.0	n/a	1	34	ISIslide	Loss	False
336.715	0.25	Lose2	0.6667000000000001	0.001	No	2.685	0.015	n/a	NoResponse	-1	n/a	n/a	0	35	Cue	Loss	True
336.966	4.0	Lose2	0.6667000000000001	0.0	No	2.685	0.001	n/a	NoResponse	-1	n/a	n/a	0	35	Fixation	Loss	True
340.962	0.15	Lose2	0.6667000000000001	0.003	No	2.685	-0.003	3.0	NoResponse	-1	0.294	340.256	0	35	Target	Loss	True
341.112	0.55	Lose2	0.6667000000000001	n/a	No	2.685	n/a	n/a	NoResponse	-1	n/a	n/a	0	35	Blank	Loss	True
341.256	0.3	Lose2	0.6667000000000001	0.003	No	2.685	-0.003	3.0	NoResponse	-1	0.294	n/a	0	35	ButtonPress	Loss	True
341.664	1.45	Lose2	0.6667000000000001	n/a	No	2.685	n/a	5.0	NoResponse	-1	0.015	340.679	0	35	Feedback	Loss	True
343.118	2.685	Lose2	0.6667000000000001	n/a	No	2.685	n/a	n/a	NoResponse	-1	0.0	n/a	0	35	ISIslide	Loss	True
345.826	0.25	Control	0.6486	0.0	No	2.674	0.026	n/a	NoResponse	0	n/a	n/a	0	36	Cue	Neutral	False
346.077	4.0	Control	0.6486	0.0	No	2.674	0.001	3.0	NoResponse	0	3.575	348.652	0	36	Fixation	Neutral	False
349.652	0.3	Control	0.6486	0.0	No	2.674	0.001	3.0	NoResponse	0	3.575	n/a	0	36	ButtonPress	Neutral	False
350.072	0.15	Control	0.6486	0.004	No	2.674	-0.004	3.0	NoResponse	0	0.245	349.317	0	36	Target	Neutral	False
350.223	0.55	Control	0.6486	n/a	No	2.674	n/a	n/a	NoResponse	0	n/a	n/a	0	36	Blank	Neutral	False
350.317	0.3	Control	0.6486	0.004	No	2.674	-0.004	3.0	NoResponse	0	0.245	n/a	0	36	ButtonPress	Neutral	False
350.774	1.45	Control	0.6486	n/a	No	2.674	n/a	5.0	NoResponse	0	0.028	349.802	0	36	Feedback	Neutral	False
352.229	2.674	Control	0.6486	n/a	No	2.674	n/a	n/a	NoResponse	0	0.0	n/a	0	36	ISIslide	Neutral	False
354.92	0.25	Win2	0.6315999999999999	0.0	No	2.88	0.02	n/a	NoResponse	0	n/a	n/a	0	37	Cue	MissedWin	False
355.171	4.0	Win2	0.6315999999999999	0.0	No	2.88	0.001	3.0	NoResponse	0	3.863	358.034	0	37	Fixation	MissedWin	False
359.034	0.3	Win2	0.6315999999999999	0.0	No	2.88	0.001	3.0	NoResponse	0	3.863	n/a	0	37	ButtonPress	MissedWin	False
359.166	0.16	Win2	0.6315999999999999	0.004	No	2.88	-0.004	3.0	NoResponse	0	0.191	358.357	0	37	Target	MissedWin	False
359.333	0.54	Win2	0.6315999999999999	n/a	No	2.88	n/a	n/a	NoResponse	0	n/a	n/a	0	37	Blank	MissedWin	False
359.357	0.3	Win2	0.6315999999999999	0.004	No	2.88	-0.004	3.0	NoResponse	0	0.191	n/a	0	37	ButtonPress	MissedWin	False
359.868	1.45	Win2	0.6315999999999999	n/a	No	2.88	n/a	5.0	NoResponse	0	0.007	358.875	0	37	Feedback	MissedWin	False
361.322	2.88	Win2	0.6315999999999999	n/a	No	2.88	n/a	n/a	NoResponse	0	0.0	n/a	0	37	ISIslide	MissedWin	False
364.231	0.25	Lose2	0.6154	0.0	No	2.819	0.031	n/a	LatePress	-1	n/a	n/a	-1	38	Cue	Loss	True
364.482	3.95	Lose2	0.6154	0.0	No	2.819	0.001	n/a	LatePress	-1	n/a	n/a	-1	38	Fixation	Loss	True
368.427	0.17	Lose2	0.6154	0.004	No	2.819	-0.004	3.0	LatePress	-1	0.172	367.599	-1	38	Target	Loss	True
368.599	0.3	Lose2	0.6154	0.004	No	2.819	-0.004	3.0	LatePress	-1	0.172	n/a	-1	38	ButtonPress	Loss	True
368.611	0.53	Lose2	0.6154	n/a	No	2.819	n/a	n/a	LatePress	-1	n/a	n/a	-1	38	Blank	Loss	True
369.129	1.45	Lose2	0.6154	n/a	No	2.819	n/a	5.0	LatePress	-1	0.014	368.143	-1	38	Feedback	Loss	True
370.584	2.819	Lose2	0.6154	n/a	No	2.819	n/a	n/a	LatePress	-1	0.0	n/a	-1	38	ISIslide	Loss	True
373.425	0.25	Win2	0.625	0.0	Yes	2.975	0.025	n/a	GoodResponse	1	n/a	n/a	0	39	Cue	Win	True
373.676	4.1	Win2	0.625	0.0	Yes	2.975	0.001	n/a	GoodResponse	1	n/a	n/a	0	39	Fixation	Win	True
377.772	0.18	Win2	0.625	0.003	Yes	2.975	-0.003	3.0	GoodResponse	1	0.164	376.936	0	39	Target	Win	True
377.936	0.3	Win2	0.625	0.003	Yes	2.975	-0.003	3.0	GoodResponse	1	0.164	n/a	0	39	ButtonPress	Win	True
377.956	0.52	Win2	0.625	n/a	Yes	2.975	n/a	n/a	GoodResponse	1	n/a	n/a	0	39	Blank	Win	True
378.474	1.45	Win2	0.625	n/a	Yes	2.975	n/a	5.0	GoodResponse	1	0.035	377.509	0	39	Feedback	Win	True
379.928	2.975	Win2	0.625	n/a	Yes	2.975	n/a	n/a	GoodResponse	1	0.0	n/a	0	39	ISIslide	Win	True
382.92	0.25	Win2	0.6098	0.001	No	2.73	0.02	n/a	LatePress	0	n/a	n/a	0	40	Cue	MissedWin	True
383.171	3.95	Win2	0.6098	0.0	No	2.73	0.001	n/a	LatePress	0	n/a	n/a	0	40	Fixation	MissedWin	True
387.116	0.19	Win2	0.6098	0.004	No	2.73	-0.004	3.0	LatePress	0	0.2	386.316	0	40	Target	MissedWin	True
387.316	0.3	Win2	0.6098	0.004	No	2.73	-0.004	3.0	LatePress	0	0.2	n/a	0	40	ButtonPress	MissedWin	True
387.317	0.51	Win2	0.6098	n/a	No	2.73	n/a	n/a	LatePress	0	n/a	n/a	0	40	Blank	MissedWin	True
387.818	1.45	Win2	0.6098	n/a	No	2.73	n/a	5.0	LatePress	0	0.008	386.826	0	40	Feedback	MissedWin	True
389.273	2.73	Win2	0.6098	n/a	No	2.73	n/a	n/a	LatePress	0	0.0	n/a	0	40	ISIslide	MissedWin	True
392.031	0.25	Win2	0.5952000000000001	0.0	No	2.769	0.031	n/a	PrematurePress	0	n/a	n/a	0	41	Cue	MissedWin	True
392.282	3.9	Win2	0.5952000000000001	0.0	No	2.769	0.001	n/a	PrematurePress	0	n/a	n/a	0	41	Fixation	MissedWin	True
396.177	0.2	Win2	0.5952000000000001	0.004	No	2.769	-0.004	3.0	PrematurePress	0	0.063	395.24	0	41	Target	MissedWin	True
396.24	0.3	Win2	0.5952000000000001	0.004	No	2.769	-0.004	3.0	PrematurePress	0	0.063	n/a	0	41	ButtonPress	MissedWin	True
396.377	0.5	Win2	0.5952000000000001	n/a	No	2.769	n/a	n/a	PrematurePress	0	n/a	n/a	0	41	Blank	MissedWin	True
396.879	1.45	Win2	0.5952000000000001	n/a	No	2.769	n/a	5.0	PrematurePress	0	0.02	395.899	0	41	Feedback	MissedWin	True
398.333	2.769	Win2	0.5952000000000001	n/a	No	2.769	n/a	n/a	PrematurePress	0	0.0	n/a	0	41	ISIslide	MissedWin	True
401.125	0.25	Control	0.6047	0.0	Yes	2.925	0.025	n/a	GoodResponse	0	n/a	n/a	0	42	Cue	Neutral	True
401.376	3.85	Control	0.6047	0.0	Yes	2.925	0.001	n/a	GoodResponse	0	n/a	n/a	0	42	Fixation	Neutral	True
405.221	0.21	Control	0.6047	0.004	Yes	2.925	-0.004	3.0	GoodResponse	0	0.164	404.385	0	42	Target	Neutral	True
405.385	0.3	Control	0.6047	0.004	Yes	2.925	-0.004	3.0	GoodResponse	0	0.164	n/a	0	42	ButtonPress	Neutral	True
405.438	0.49	Control	0.6047	n/a	Yes	2.925	n/a	n/a	GoodResponse	0	n/a	n/a	0	42	Blank	Neutral	True
405.923	1.45	Control	0.6047	n/a	Yes	2.925	n/a	5.0	GoodResponse	0	0.0	404.923	0	42	Feedback	Neutral	True
407.377	2.925	Control	0.6047	n/a	Yes	2.925	n/a	n/a	GoodResponse	0	0.0	n/a	0	42	ISIslide	Neutral	True
410.319	0.25	Win2	0.5909	0.0	No	3.181	0.019	n/a	NoResponse	0	n/a	n/a	0	43	Cue	MissedWin	True
410.57	4.0	Win2	0.5909	0.0	No	3.181	0.001	n/a	NoResponse	0	n/a	n/a	0	43	Fixation	MissedWin	True
414.565	0.22	Win2	0.5909	0.004	No	3.181	-0.004	3.0	NoResponse	0	0.242	413.807	0	43	Target	MissedWin	True
414.799	0.48	Win2	0.5909	n/a	No	3.181	n/a	n/a	NoResponse	0	n/a	n/a	0	43	Blank	MissedWin	True
414.807	0.3	Win2	0.5909	0.004	No	3.181	-0.004	3.0	NoResponse	0	0.242	n/a	0	43	ButtonPress	MissedWin	True
415.267	1.45	Win2	0.5909	n/a	No	3.181	n/a	5.0	NoResponse	0	0.022	414.289	0	43	Feedback	MissedWin	True
416.722	3.181	Win2	0.5909	n/a	No	3.181	n/a	n/a	NoResponse	0	0.0	n/a	0	43	ISIslide	MissedWin	True
419.931	0.25	Win2	0.6	0.0	Yes	2.969	0.031	n/a	GoodResponse	1	n/a	n/a	1	44	Cue	Win	False
420.182	4.0	Win2	0.6	0.0	Yes	2.969	0.001	3.0	GoodResponse	1	3.768	422.95	1	44	Fixation	Win	False
423.95	0.3	Win2	0.6	0.0	Yes	2.969	0.001	3.0	GoodResponse	1	3.768	n/a	1	44	ButtonPress	Win	False
424.177	0.23	Win2	0.6	0.004	Yes	2.969	-0.004	3.0	GoodResponse	1	0.191	423.368	1	44	Target	Win	False
424.368	0.3	Win2	0.6	0.004	Yes	2.969	-0.004	3.0	GoodResponse	1	0.191	n/a	1	44	ButtonPress	Win	False
424.411	0.47	Win2	0.6	n/a	Yes	2.969	n/a	n/a	GoodResponse	1	n/a	n/a	1	44	Blank	Win	False
424.879	1.45	Win2	0.6	n/a	Yes	2.969	n/a	5.0	GoodResponse	1	0.02	423.899	1	44	Feedback	Win	False
426.334	2.969	Win2	0.6	n/a	Yes	2.969	n/a	n/a	GoodResponse	1	0.0	n/a	1	44	ISIslide	Win	False
429.326	0.25	Control	0.6087	0.0	Yes	2.874	0.026	n/a	GoodResponse	0	n/a	n/a	1	45	Cue	Neutral	True
429.577	4.1	Control	0.6087	0.0	Yes	2.874	0.001	n/a	GoodResponse	0	n/a	n/a	1	45	Fixation	Neutral	True
433.672	0.24	Control	0.6087	0.004	Yes	2.874	-0.004	3.0	GoodResponse	0	0.176	432.848	1	45	Target	Neutral	True
433.848	0.3	Control	0.6087	0.004	Yes	2.874	-0.004	3.0	GoodResponse	0	0.176	n/a	1	45	ButtonPress	Neutral	True
433.923	0.46	Control	0.6087	n/a	Yes	2.874	n/a	n/a	GoodResponse	0	n/a	n/a	1	45	Blank	Neutral	True
434.374	1.45	Control	0.6087	n/a	Yes	2.874	n/a	5.0	GoodResponse	0	0.036	433.41	1	45	Feedback	Neutral	True
435.829	2.874	Control	0.6087	n/a	Yes	2.874	n/a	n/a	GoodResponse	0	0.0	n/a	1	45	ISIslide	Neutral	True
438.721	0.25	Lose2	0.617	0.0	Yes	3.379	0.021	n/a	GoodResponse	0	n/a	n/a	1	46	Cue	AvoidedLoss	True
438.972	4.0	Lose2	0.617	0.0	Yes	3.379	0.001	n/a	GoodResponse	0	n/a	n/a	1	46	Fixation	AvoidedLoss	True
442.967	0.25	Lose2	0.617	0.004	Yes	3.379	-0.004	3.0	GoodResponse	0	0.196	442.163	1	46	Target	AvoidedLoss	True
443.163	0.3	Lose2	0.617	0.004	Yes	3.379	-0.004	3.0	GoodResponse	0	0.196	n/a	1	46	ButtonPress	AvoidedLoss	True
443.218	0.45	Lose2	0.617	n/a	Yes	3.379	n/a	n/a	GoodResponse	0	n/a	n/a	1	46	Blank	AvoidedLoss	True
443.669	1.45	Lose2	0.617	n/a	Yes	3.379	n/a	5.0	GoodResponse	0	0.01	442.679	1	46	Feedback	AvoidedLoss	True
445.123	3.379	Lose2	0.617	n/a	Yes	3.379	n/a	n/a	GoodResponse	0	0.0	n/a	1	46	ISIslide	AvoidedLoss	True
448.517	0.25	Lose2	0.625	0.0	Yes	2.683	0.017	n/a	GoodResponse	0	n/a	n/a	1	47	Cue	AvoidedLoss	True
448.768	4.0	Lose2	0.625	0.0	Yes	2.683	0.001	n/a	GoodResponse	0	n/a	n/a	1	47	Fixation	AvoidedLoss	True
452.763	0.26	Lose2	0.625	0.004	Yes	2.683	-0.004	3.0	GoodResponse	0	0.172	451.935	1	47	Target	AvoidedLoss	True
452.935	0.3	Lose2	0.625	0.004	Yes	2.683	-0.004	3.0	GoodResponse	0	0.172	n/a	1	47	ButtonPress	AvoidedLoss	True
453.03	0.44	Lose2	0.625	n/a	Yes	2.683	n/a	n/a	GoodResponse	0	n/a	n/a	1	47	Blank	AvoidedLoss	True
453.465	1.45	Lose2	0.625	n/a	Yes	2.683	n/a	5.0	GoodResponse	0	0.019	452.484	1	47	Feedback	AvoidedLoss	True
454.919	2.683	Lose2	0.625	n/a	Yes	2.683	n/a	n/a	GoodResponse	0	0.0	n/a	1	47	ISIslide	AvoidedLoss	True
457.627	0.25	Lose2	0.6327	0.001	Yes	3.023	0.027	n/a	GoodResponse	0	n/a	n/a	1	48	Cue	AvoidedLoss	True
457.878	3.95	Lose2	0.6327	0.0	Yes	3.023	0.001	n/a	GoodResponse	0	n/a	n/a	1	48	Fixation	AvoidedLoss	True
461.823	0.27	Lose2	0.6327	0.004	Yes	3.023	-0.004	3.0	GoodResponse	0	0.165	460.988	1	48	Target	AvoidedLoss	True
461.988	0.3	Lose2	0.6327	0.004	Yes	3.023	-0.004	3.0	GoodResponse	0	0.165	n/a	1	48	ButtonPress	AvoidedLoss	True
462.108	0.43	Lose2	0.6327	n/a	Yes	3.023	n/a	n/a	GoodResponse	0	n/a	n/a	1	48	Blank	AvoidedLoss	True
462.525	1.45	Lose2	0.6327	n/a	Yes	3.023	n/a	5.0	GoodResponse	0	0.032	461.557	1	48	Feedback	AvoidedLoss	True
463.98	3.023	Lose2	0.6327	n/a	Yes	3.023	n/a	n/a	GoodResponse	0	0.0	n/a	1	48	ISIslide	AvoidedLoss	True
467.022	0.25	Control	0.64	0.0	Yes	2.878	0.022	n/a	GoodResponse	0	n/a	n/a	1	49	Cue	Neutral	True
467.273	4.0	Control	0.64	0.0	Yes	2.878	0.001	n/a	GoodResponse	0	n/a	n/a	1	49	Fixation	Neutral	True
471.268	0.28	Control	0.64	0.004	Yes	2.878	-0.004	3.0	GoodResponse	0	0.177	470.445	1	49	Target	Neutral	True
471.445	0.3	Control	0.64	0.004	Yes	2.878	-0.004	3.0	GoodResponse	0	0.177	n/a	1	49	ButtonPress	Neutral	True
471.552	0.42	Control	0.64	n/a	Yes	2.878	n/a	n/a	GoodResponse	0	n/a	n/a	1	49	Blank	Neutral	True
471.97	1.45	Control	0.64	n/a	Yes	2.878	n/a	5.0	GoodResponse	0	0.002	470.972	1	49	Feedback	Neutral	True
473.425	2.878	Control	0.64	n/a	Yes	2.878	n/a	n/a	GoodResponse	0	0.0	n/a	1	49	ISIslide	Neutral	True
476.317	0.25	Control	0.6470999999999999	0.0	Yes	2.783	0.017	n/a	GoodResponse	0	n/a	n/a	1	50	Cue	Neutral	True
476.567	4.0	Control	0.6470999999999999	0.001	Yes	2.783	0.0	n/a	GoodResponse	0	n/a	n/a	1	50	Fixation	Neutral	True
480.563	0.29	Control	0.6470999999999999	0.004	Yes	2.783	-0.004	3.0	GoodResponse	0	0.177	479.74	1	50	Target	Neutral	True
480.74	0.3	Control	0.6470999999999999	0.004	Yes	2.783	-0.004	3.0	GoodResponse	0	0.177	n/a	1	50	ButtonPress	Neutral	True
480.864	0.41	Control	0.6470999999999999	n/a	Yes	2.783	n/a	n/a	GoodResponse	0	n/a	n/a	1	50	Blank	Neutral	True
481.265	1.45	Control	0.6470999999999999	n/a	Yes	2.783	n/a	5.0	GoodResponse	0	0.024	480.289	1	50	Feedback	Neutral	True
482.719	2.783	Control	0.6470999999999999	n/a	Yes	2.783	n/a	n/a	GoodResponse	0	0.0	n/a	1	50	ISIslide	Neutral	True
485.528	0.25	Control	0.6346	0.0	No	2.722	0.028	n/a	PrematurePress	0	n/a	n/a	1	51	Cue	Neutral	True
485.778	3.95	Control	0.6346	0.0	No	2.722	0.0	n/a	PrematurePress	0	n/a	n/a	1	51	Fixation	Neutral	True
489.723	0.3	Control	0.6346	0.005	No	2.722	-0.005	3.0	PrematurePress	0	0.015	488.738	1	51	Target	Neutral	True
489.738	0.3	Control	0.6346	0.005	No	2.722	-0.005	3.0	PrematurePress	0	0.015	n/a	1	51	ButtonPress	Neutral	True
490.024	0.4	Control	0.6346	n/a	No	2.722	n/a	n/a	PrematurePress	0	n/a	n/a	1	51	Blank	Neutral	True
490.426	1.45	Control	0.6346	n/a	No	2.722	n/a	5.0	PrematurePress	0	0.033	489.459	1	51	Feedback	Neutral	True
491.88	2.722	Control	0.6346	n/a	No	2.722	n/a	n/a	PrematurePress	0	0.0	n/a	1	51	ISIslide	Neutral	True
494.621	0.25	Control	0.6415000000000001	0.001	Yes	2.629	0.021	n/a	GoodResponse	0	n/a	n/a	1	52	Cue	Neutral	True
494.872	4.05	Control	0.6415000000000001	0.0	Yes	2.629	0.001	n/a	GoodResponse	0	n/a	n/a	1	52	Fixation	Neutral	True
498.918	0.31	Control	0.6415000000000001	0.003	Yes	2.629	-0.003	3.0	GoodResponse	0	0.164	498.082	1	52	Target	Neutral	True
499.082	0.3	Control	0.6415000000000001	0.003	Yes	2.629	-0.003	3.0	GoodResponse	0	0.164	n/a	1	52	ButtonPress	Neutral	True
499.235	0.39	Control	0.6415000000000001	n/a	Yes	2.629	n/a	n/a	GoodResponse	0	n/a	n/a	1	52	Blank	Neutral	True
499.62	1.45	Control	0.6415000000000001	n/a	Yes	2.629	n/a	5.0	GoodResponse	0	0.009	498.629	1	52	Feedback	Neutral	True
501.074	2.629	Control	0.6415000000000001	n/a	Yes	2.629	n/a	n/a	GoodResponse	0	0.0	n/a	1	52	ISIslide	Neutral	True
503.715	0.25	Win2	0.6481	0.0	Yes	2.935	0.015	n/a	GoodResponse	1	n/a	n/a	2	53	Cue	Win	True
503.966	4.05	Win2	0.6481	0.0	Yes	2.935	0.001	n/a	GoodResponse	1	n/a	n/a	2	53	Fixation	Win	True
508.012	0.32	Win2	0.6481	0.003	Yes	2.935	-0.003	3.0	GoodResponse	1	0.259	507.271	2	53	Target	Win	True
508.271	0.3	Win2	0.6481	0.003	Yes	2.935	-0.003	3.0	GoodResponse	1	0.259	n/a	2	53	ButtonPress	Win	True
508.346	0.38	Win2	0.6481	n/a	Yes	2.935	n/a	n/a	GoodResponse	1	n/a	n/a	2	53	Blank	Win	True
508.714	1.45	Win2	0.6481	n/a	Yes	2.935	n/a	5.0	GoodResponse	1	0.038	507.752	2	53	Feedback	Win	True
510.168	2.935	Win2	0.6481	n/a	Yes	2.935	n/a	n/a	GoodResponse	1	0.0	n/a	2	53	ISIslide	Win	True
513.127	0.25	Win2	0.6545000000000001	0.0	Yes	2.723	0.027	n/a	GoodResponse	1	n/a	n/a	3	54	Cue	Win	True
513.378	3.95	Win2	0.6545000000000001	0.0	Yes	2.723	0.001	n/a	GoodResponse	1	n/a	n/a	3	54	Fixation	Win	True
517.323	0.33	Win2	0.6545000000000001	0.004	Yes	2.723	-0.004	3.0	GoodResponse	1	0.316	516.639	3	54	Target	Win	True
517.639	0.3	Win2	0.6545000000000001	0.004	Yes	2.723	-0.004	3.0	GoodResponse	1	0.316	n/a	3	54	ButtonPress	Win	True
517.657	0.37	Win2	0.6545000000000001	n/a	Yes	2.723	n/a	n/a	GoodResponse	1	n/a	n/a	3	54	Blank	Win	True
518.025	1.45	Win2	0.6545000000000001	n/a	Yes	2.723	n/a	5.0	GoodResponse	1	0.044	517.069	3	54	Feedback	Win	True
519.479	2.723	Win2	0.6545000000000001	n/a	Yes	2.723	n/a	n/a	GoodResponse	1	0.0	n/a	3	54	ISIslide	Win	True
522.221	0.25	Control	0.6607	0.0	Yes	3.029	0.021	n/a	GoodResponse	0	n/a	n/a	3	55	Cue	Neutral	True
522.472	3.95	Control	0.6607	0.0	Yes	3.029	0.001	n/a	GoodResponse	0	n/a	n/a	3	55	Fixation	Neutral	True
526.417	0.34	Control	0.6607	0.004	Yes	3.029	-0.004	3.0	GoodResponse	0	0.177	525.594	3	55	Target	Neutral	True
526.594	0.3	Control	0.6607	0.004	Yes	3.029	-0.004	3.0	GoodResponse	0	0.177	n/a	3	55	ButtonPress	Neutral	True
526.768	0.36	Control	0.6607	n/a	Yes	3.029	n/a	n/a	GoodResponse	0	n/a	n/a	3	55	Blank	Neutral	True
527.119	1.45	Control	0.6607	n/a	Yes	3.029	n/a	5.0	GoodResponse	0	0.023	526.142	3	55	Feedback	Neutral	True
528.573	3.029	Control	0.6607	n/a	Yes	3.029	n/a	n/a	GoodResponse	0	0.0	n/a	3	55	ISIslide	Neutral	True
531.616	0.25	Control	0.6667000000000001	0.0	Yes	2.834	0.016	n/a	GoodResponse	0	n/a	n/a	3	56	Cue	Neutral	True
531.866	3.95	Control	0.6667000000000001	0.0	Yes	2.834	0.0	n/a	GoodResponse	0	n/a	n/a	3	56	Fixation	Neutral	True
535.811	0.34	Control	0.6667000000000001	0.005	Yes	2.834	-0.005	3.0	GoodResponse	0	0.182	534.993	3	56	Target	Neutral	True
535.993	0.3	Control	0.6667000000000001	0.005	Yes	2.834	-0.005	3.0	GoodResponse	0	0.182	n/a	3	56	ButtonPress	Neutral	True
536.163	0.36	Control	0.6667000000000001	n/a	Yes	2.834	n/a	n/a	GoodResponse	0	n/a	n/a	3	56	Blank	Neutral	True
536.514	1.45	Control	0.6667000000000001	n/a	Yes	2.834	n/a	5.0	GoodResponse	0	0.042	535.556	3	56	Feedback	Neutral	True
537.968	2.834	Control	0.6667000000000001	n/a	Yes	2.834	n/a	n/a	GoodResponse	0	0.0	n/a	3	56	ISIslide	Neutral	True
540.826	0.25	Control	0.6724	0.001	Yes	3.474	0.026	n/a	GoodResponse	0	n/a	n/a	3	57	Cue	Neutral	True
541.077	4.0	Control	0.6724	0.0	Yes	3.474	0.001	n/a	GoodResponse	0	n/a	n/a	3	57	Fixation	Neutral	True
545.073	0.33	Control	0.6724	0.003	Yes	3.474	-0.003	3.0	GoodResponse	0	0.157	544.23	3	57	Target	Neutral	True
545.23	0.3	Control	0.6724	0.003	Yes	3.474	-0.003	3.0	GoodResponse	0	0.157	n/a	3	57	ButtonPress	Neutral	True
545.407	0.37	Control	0.6724	n/a	Yes	3.474	n/a	n/a	GoodResponse	0	n/a	n/a	3	57	Blank	Neutral	True
545.775	1.45	Control	0.6724	n/a	Yes	3.474	n/a	5.0	GoodResponse	0	0.0	544.775	3	57	Feedback	Neutral	True
547.229	3.474	Control	0.6724	n/a	Yes	3.474	n/a	n/a	GoodResponse	0	0.0	n/a	3	57	ISIslide	Neutral	True
550.723	0.25	Win2	0.6779999999999999	0.0	Yes	2.727	0.023	n/a	GoodResponse	1	n/a	n/a	4	58	Cue	Win	True
550.974	4.05	Win2	0.6779999999999999	0.0	Yes	2.727	0.001	n/a	GoodResponse	1	n/a	n/a	4	58	Fixation	Win	True
555.019	0.32	Win2	0.6779999999999999	0.004	Yes	2.727	-0.004	3.0	GoodResponse	1	0.14	554.159	4	58	Target	Win	True
555.159	0.3	Win2	0.6779999999999999	0.004	Yes	2.727	-0.004	3.0	GoodResponse	1	0.14	n/a	4	58	ButtonPress	Win	True
555.353	0.38	Win2	0.6779999999999999	n/a	Yes	2.727	n/a	n/a	GoodResponse	1	n/a	n/a	4	58	Blank	Win	True
555.721	1.45	Win2	0.6779999999999999	n/a	Yes	2.727	n/a	5.0	GoodResponse	1	0.006	554.727	4	58	Feedback	Win	True
557.175	2.727	Win2	0.6779999999999999	n/a	Yes	2.727	n/a	n/a	GoodResponse	1	0.0	n/a	4	58	ISIslide	Win	True
559.917	0.25	Lose2	0.6833	0.0	Yes	2.683	0.017	n/a	GoodResponse	0	n/a	n/a	4	59	Cue	AvoidedLoss	True
560.168	4.0	Lose2	0.6833	0.0	Yes	2.683	0.001	n/a	GoodResponse	0	n/a	n/a	4	59	Fixation	AvoidedLoss	True
564.163	0.31	Lose2	0.6833	0.004	Yes	2.683	-0.004	3.0	GoodResponse	0	0.197	563.36	4	59	Target	AvoidedLoss	True
564.36	0.3	Lose2	0.6833	0.004	Yes	2.683	-0.004	3.0	GoodResponse	0	0.197	n/a	4	59	ButtonPress	AvoidedLoss	True
564.481	0.39	Lose2	0.6833	n/a	Yes	2.683	n/a	n/a	GoodResponse	0	n/a	n/a	4	59	Blank	AvoidedLoss	True
564.865	1.45	Lose2	0.6833	n/a	Yes	2.683	n/a	5.0	GoodResponse	0	0.032	563.897	4	59	Feedback	AvoidedLoss	True
566.319	2.683	Lose2	0.6833	n/a	Yes	2.683	n/a	n/a	GoodResponse	0	0.0	n/a	4	59	ISIslide	AvoidedLoss	True
569.028	0.25	Control	0.6884999999999999	0.0	Yes	2.672	0.028	n/a	GoodResponse	0	n/a	n/a	4	60	Cue	Neutral	True
569.278	4.0	Control	0.6884999999999999	0.0	Yes	2.672	0.0	n/a	GoodResponse	0	n/a	n/a	4	60	Fixation	Neutral	True
573.274	0.3	Control	0.6884999999999999	0.004	Yes	2.672	-0.004	3.0	GoodResponse	0	0.175	572.449	4	60	Target	Neutral	True
573.449	0.3	Control	0.6884999999999999	0.004	Yes	2.672	-0.004	3.0	GoodResponse	0	0.175	n/a	4	60	ButtonPress	Neutral	True
573.574	0.4	Control	0.6884999999999999	n/a	Yes	2.672	n/a	n/a	GoodResponse	0	n/a	n/a	4	60	Blank	Neutral	True
573.976	1.45	Control	0.6884999999999999	n/a	Yes	2.672	n/a	5.0	GoodResponse	0	0.043	573.019	4	60	Feedback	Neutral	True
575.43	2.672	Control	0.6884999999999999	n/a	Yes	2.672	n/a	n/a	GoodResponse	0	0.0	n/a	4	60	ISIslide	Neutral	True
578.121	0.25	Lose2	0.6934999999999999	0.001	Yes	2.979	0.021	n/a	GoodResponse	0	n/a	n/a	4	61	Cue	AvoidedLoss	False
578.372	4.0	Lose2	0.6934999999999999	0.0	Yes	2.979	0.001	3.0	GoodResponse	0	3.251	580.623	4	61	Fixation	AvoidedLoss	False
581.623	0.3	Lose2	0.6934999999999999	0.0	Yes	2.979	0.001	3.0	GoodResponse	0	3.251	n/a	4	61	ButtonPress	AvoidedLoss	False
582.367	0.29	Lose2	0.6934999999999999	0.004	Yes	2.979	-0.004	3.0	GoodResponse	0	0.169	581.536	4	61	Target	AvoidedLoss	False
582.536	0.3	Lose2	0.6934999999999999	0.004	Yes	2.979	-0.004	3.0	GoodResponse	0	0.169	n/a	4	61	ButtonPress	AvoidedLoss	False
582.668	0.41	Lose2	0.6934999999999999	n/a	Yes	2.979	n/a	n/a	GoodResponse	0	n/a	n/a	4	61	Blank	AvoidedLoss	False
583.07	1.45	Lose2	0.6934999999999999	n/a	Yes	2.979	n/a	5.0	GoodResponse	0	0.022	582.092	4	61	Feedback	AvoidedLoss	False
584.524	2.979	Lose2	0.6934999999999999	n/a	Yes	2.979	n/a	n/a	GoodResponse	0	0.0	n/a	4	61	ISIslide	AvoidedLoss	False
587.516	0.25	Lose2	0.6984	0.0	Yes	2.884	0.016	n/a	GoodResponse	0	n/a	n/a	4	62	Cue	AvoidedLoss	True
587.767	3.9	Lose2	0.6984	0.0	Yes	2.884	0.001	n/a	GoodResponse	0	n/a	n/a	4	62	Fixation	AvoidedLoss	True
591.662	0.28	Lose2	0.6984	0.004	Yes	2.884	-0.004	3.0	GoodResponse	0	0.191	590.853	4	62	Target	AvoidedLoss	True
591.853	0.3	Lose2	0.6984	0.004	Yes	2.884	-0.004	3.0	GoodResponse	0	0.191	n/a	4	62	ButtonPress	AvoidedLoss	True
591.946	0.42	Lose2	0.6984	n/a	Yes	2.884	n/a	n/a	GoodResponse	0	n/a	n/a	4	62	Blank	AvoidedLoss	True
592.364	1.45	Lose2	0.6984	n/a	Yes	2.884	n/a	5.0	GoodResponse	0	0.0	591.364	4	62	Feedback	AvoidedLoss	True
593.818	2.884	Lose2	0.6984	n/a	Yes	2.884	n/a	n/a	GoodResponse	0	0.0	n/a	4	62	ISIslide	AvoidedLoss	True
596.727	0.25	Lose2	0.7031000000000001	0.0	Yes	2.623	0.027	n/a	GoodResponse	0	n/a	n/a	4	63	Cue	AvoidedLoss	True
596.978	4.05	Lose2	0.7031000000000001	0.0	Yes	2.623	0.001	n/a	GoodResponse	0	n/a	n/a	4	63	Fixation	AvoidedLoss	True
601.023	0.27	Lose2	0.7031000000000001	0.004	Yes	2.623	-0.004	3.0	GoodResponse	0	0.186	600.209	4	63	Target	AvoidedLoss	True
601.209	0.3	Lose2	0.7031000000000001	0.004	Yes	2.623	-0.004	3.0	GoodResponse	0	0.186	n/a	4	63	ButtonPress	AvoidedLoss	True
601.308	0.43	Lose2	0.7031000000000001	n/a	Yes	2.623	n/a	n/a	GoodResponse	0	n/a	n/a	4	63	Blank	AvoidedLoss	True
601.725	1.45	Lose2	0.7031000000000001	n/a	Yes	2.623	n/a	5.0	GoodResponse	0	0.001	600.726	4	63	Feedback	AvoidedLoss	True
603.18	2.623	Lose2	0.7031000000000001	n/a	Yes	2.623	n/a	n/a	GoodResponse	0	0.0	n/a	4	63	ISIslide	AvoidedLoss	True
605.821	0.25	Win2	0.7077	0.0	Yes	3.129	0.021	n/a	GoodResponse	1	n/a	n/a	5	64	Cue	Win	True
606.072	4.15	Win2	0.7077	0.0	Yes	3.129	0.001	n/a	GoodResponse	1	n/a	n/a	5	64	Fixation	Win	True
610.218	0.26	Win2	0.7077	0.003	Yes	3.129	-0.003	3.0	GoodResponse	1	0.182	609.4	5	64	Target	Win	True
610.4	0.3	Win2	0.7077	0.003	Yes	3.129	-0.003	3.0	GoodResponse	1	0.182	n/a	5	64	ButtonPress	Win	True
610.485	0.44	Win2	0.7077	n/a	Yes	3.129	n/a	n/a	GoodResponse	1	n/a	n/a	5	64	Blank	Win	True
610.92	1.45	Win2	0.7077	n/a	Yes	3.129	n/a	5.0	GoodResponse	1	0.026	609.946	5	64	Feedback	Win	True
612.374	3.129	Win2	0.7077	n/a	Yes	3.129	n/a	n/a	GoodResponse	1	0.0	n/a	5	64	ISIslide	Win	True
615.517	0.25	Control	0.7121	0.0	Yes	2.783	0.017	n/a	GoodResponse	0	n/a	n/a	5	65	Cue	Neutral	True
615.767	4.0	Control	0.7121	0.001	Yes	2.783	0.0	n/a	GoodResponse	0	n/a	n/a	5	65	Fixation	Neutral	True
619.763	0.25	Control	0.7121	0.004	Yes	2.783	-0.004	3.0	GoodResponse	0	0.206	618.969	5	65	Target	Neutral	True
619.969	0.3	Control	0.7121	0.004	Yes	2.783	-0.004	3.0	GoodResponse	0	0.206	n/a	5	65	ButtonPress	Neutral	True
620.014	0.45	Control	0.7121	n/a	Yes	2.783	n/a	n/a	GoodResponse	0	n/a	n/a	5	65	Blank	Neutral	True
620.465	1.45	Control	0.7121	n/a	Yes	2.783	n/a	5.0	GoodResponse	0	0.042	619.507	5	65	Feedback	Neutral	True
621.919	2.783	Control	0.7121	n/a	Yes	2.783	n/a	n/a	GoodResponse	0	0.0	n/a	5	65	ISIslide	Neutral	True
624.728	0.25	Win2	0.7164	0.0	Yes	2.772	0.028	n/a	GoodResponse	1	n/a	n/a	6	66	Cue	Win	True
624.978	3.9	Win2	0.7164	0.0	Yes	2.772	0.0	n/a	GoodResponse	1	n/a	n/a	6	66	Fixation	Win	True
628.89	0.24	Win2	0.7164	0.0	Yes	2.772	0.012	3.0	GoodResponse	1	0.173	628.063	6	66	Target	Win	True
629.063	0.3	Win2	0.7164	0.0	Yes	2.772	0.012	3.0	GoodResponse	1	0.173	n/a	6	66	ButtonPress	Win	True
629.124	0.46	Win2	0.7164	n/a	Yes	2.772	n/a	n/a	GoodResponse	1	n/a	n/a	6	66	Blank	Win	True
629.575	1.45	Win2	0.7164	n/a	Yes	2.772	n/a	5.0	GoodResponse	1	0.007	628.582	6	66	Feedback	Win	True
631.03	2.772	Win2	0.7164	n/a	Yes	2.772	n/a	n/a	GoodResponse	1	0.0	n/a	6	66	ISIslide	Win	True
633.822	0.25	Control	0.7206	0.0	Yes	2.728	0.022	n/a	GoodResponse	0	n/a	n/a	6	67	Cue	Neutral	True
634.072	3.95	Control	0.7206	0.0	Yes	2.728	0.0	n/a	GoodResponse	0	n/a	n/a	6	67	Fixation	Neutral	True
638.034	0.23	Control	0.7206	0.0	Yes	2.728	0.012	3.0	GoodResponse	0	0.168	637.202	6	67	Target	Neutral	True
638.202	0.3	Control	0.7206	0.0	Yes	2.728	0.012	3.0	GoodResponse	0	0.168	n/a	6	67	ButtonPress	Neutral	True
638.251	0.47	Control	0.7206	n/a	Yes	2.728	n/a	n/a	GoodResponse	0	n/a	n/a	6	67	Blank	Neutral	True
638.719	1.45	Control	0.7206	n/a	Yes	2.728	n/a	5.0	GoodResponse	0	0.031	637.75	6	67	Feedback	Neutral	True
640.174	2.728	Control	0.7206	n/a	Yes	2.728	n/a	n/a	GoodResponse	0	0.0	n/a	6	67	ISIslide	Neutral	True
642.915	0.25	Win2	0.7245999999999999	0.0	Yes	3.085	0.015	n/a	GoodResponse	1	n/a	n/a	7	68	Cue	Win	True
643.166	4.0	Win2	0.7245999999999999	0.0	Yes	3.085	0.001	n/a	GoodResponse	1	n/a	n/a	7	68	Fixation	Win	True
647.161	0.22	Win2	0.7245999999999999	0.004	Yes	3.085	-0.004	3.0	GoodResponse	1	0.17	646.331	7	68	Target	Win	True
647.331	0.3	Win2	0.7245999999999999	0.004	Yes	3.085	-0.004	3.0	GoodResponse	1	0.17	n/a	7	68	ButtonPress	Win	True
647.395	0.48	Win2	0.7245999999999999	n/a	Yes	3.085	n/a	n/a	GoodResponse	1	n/a	n/a	7	68	Blank	Win	True
647.864	1.45	Win2	0.7245999999999999	n/a	Yes	3.085	n/a	5.0	GoodResponse	1	0.008	646.872	7	68	Feedback	Win	True
649.318	3.085	Win2	0.7245999999999999	n/a	Yes	3.085	n/a	n/a	GoodResponse	1	0.0	n/a	7	68	ISIslide	Win	True
652.427	0.25	Win2	0.7286	0.0	Yes	3.223	0.027	n/a	GoodResponse	1	n/a	n/a	8	69	Cue	Win	True
652.678	3.95	Win2	0.7286	0.0	Yes	3.223	0.001	n/a	GoodResponse	1	n/a	n/a	8	69	Fixation	Win	True
656.623	0.21	Win2	0.7286	0.004	Yes	3.223	-0.004	3.0	GoodResponse	1	0.173	655.796	8	69	Target	Win	True
656.796	0.3	Win2	0.7286	0.004	Yes	3.223	-0.004	3.0	GoodResponse	1	0.173	n/a	8	69	ButtonPress	Win	True
656.84	0.49	Win2	0.7286	n/a	Yes	3.223	n/a	n/a	GoodResponse	1	n/a	n/a	8	69	Blank	Win	True
657.325	1.45	Win2	0.7286	n/a	Yes	3.223	n/a	5.0	GoodResponse	1	0.01	656.335	8	69	Feedback	Win	True
658.78	3.223	Win2	0.7286	n/a	Yes	3.223	n/a	n/a	GoodResponse	1	0.0	n/a	8	69	ISIslide	Win	True
662.023	0.25	Lose2	0.7323999999999999	0.0	Yes	3.027	0.023	n/a	GoodResponse	0	n/a	n/a	8	70	Cue	AvoidedLoss	True
662.273	4.05	Lose2	0.7323999999999999	0.0	Yes	3.027	0.0	n/a	GoodResponse	0	n/a	n/a	8	70	Fixation	AvoidedLoss	True
666.319	0.2	Lose2	0.7323999999999999	0.004	Yes	3.027	-0.004	3.0	GoodResponse	0	0.163	665.482	8	70	Target	AvoidedLoss	True
666.482	0.3	Lose2	0.7323999999999999	0.004	Yes	3.027	-0.004	3.0	GoodResponse	0	0.163	n/a	8	70	ButtonPress	AvoidedLoss	True
666.519	0.5	Lose2	0.7323999999999999	n/a	Yes	3.027	n/a	n/a	GoodResponse	0	n/a	n/a	8	70	Blank	AvoidedLoss	True
667.021	1.45	Lose2	0.7323999999999999	n/a	Yes	3.027	n/a	5.0	GoodResponse	0	0.022	666.043	8	70	Feedback	AvoidedLoss	True
668.475	3.027	Lose2	0.7323999999999999	n/a	Yes	3.027	n/a	n/a	GoodResponse	0	0.0	n/a	8	70	ISIslide	AvoidedLoss	True
671.518	0.25	Win2	0.7361	0.0	Yes	2.732	0.018	n/a	GoodResponse	1	n/a	n/a	9	71	Cue	Win	False
671.768	4.05	Win2	0.7361	0.0	Yes	2.732	0.0	3.0	GoodResponse	1	3.767	674.535	9	71	Fixation	Win	False
675.535	0.3	Win2	0.7361	0.0	Yes	2.732	0.0	3.0	GoodResponse	1	3.767	n/a	9	71	ButtonPress	Win	False
675.814	0.19	Win2	0.7361	0.004	Yes	2.732	-0.004	3.0	GoodResponse	1	0.163	674.977	9	71	Target	Win	False
675.977	0.3	Win2	0.7361	0.004	Yes	2.732	-0.004	3.0	GoodResponse	1	0.163	n/a	9	71	ButtonPress	Win	False
676.014	0.51	Win2	0.7361	n/a	Yes	2.732	n/a	n/a	GoodResponse	1	n/a	n/a	9	71	Blank	Win	False
676.516	1.45	Win2	0.7361	n/a	Yes	2.732	n/a	5.0	GoodResponse	1	0.039	675.555	9	71	Feedback	Win	False
677.97	2.732	Win2	0.7361	n/a	Yes	2.732	n/a	n/a	GoodResponse	1	0.0	n/a	9	71	ISIslide	Win	False
680.729	0.25	Win2	0.7397	0.0	Yes	2.771	0.029	n/a	GoodResponse	1	n/a	n/a	10	72	Cue	Win	True
680.979	4.1	Win2	0.7397	0.0	Yes	2.771	0.0	n/a	GoodResponse	1	n/a	n/a	10	72	Fixation	Win	True
685.075	0.18	Win2	0.7397	0.004	Yes	2.771	-0.004	3.0	GoodResponse	1	0.165	684.24	10	72	Target	Win	True
685.24	0.3	Win2	0.7397	0.004	Yes	2.771	-0.004	3.0	GoodResponse	1	0.165	n/a	10	72	ButtonPress	Win	True
685.259	0.52	Win2	0.7397	n/a	Yes	2.771	n/a	n/a	GoodResponse	1	n/a	n/a	10	72	Blank	Win	True
685.777	1.45	Win2	0.7397	n/a	Yes	2.771	n/a	5.0	GoodResponse	1	0.046	684.823	10	72	Feedback	Win	True
687.231	2.771	Win2	0.7397	n/a	Yes	2.771	n/a	n/a	GoodResponse	1	0.0	n/a	10	72	ISIslide	Win	True
690.023	0.25	Win2	0.7297	0.0	No	2.677	0.023	n/a	LatePress	0	n/a	n/a	10	73	Cue	MissedWin	True
690.274	4.0	Win2	0.7297	0.0	No	2.677	0.001	n/a	LatePress	0	n/a	n/a	10	73	Fixation	MissedWin	True
694.269	0.17	Win2	0.7297	0.004	No	2.677	-0.004	3.0	LatePress	0	0.171	693.44	10	73	Target	MissedWin	True
694.44	0.3	Win2	0.7297	0.004	No	2.677	-0.004	3.0	LatePress	0	0.171	n/a	10	73	ButtonPress	MissedWin	True
694.453	0.53	Win2	0.7297	n/a	No	2.677	n/a	n/a	LatePress	0	n/a	n/a	10	73	Blank	MissedWin	True
694.971	1.45	Win2	0.7297	n/a	No	2.677	n/a	5.0	LatePress	0	0.022	693.993	10	73	Feedback	MissedWin	True
696.426	2.677	Win2	0.7297	n/a	No	2.677	n/a	n/a	LatePress	0	0.0	n/a	10	73	ISIslide	MissedWin	True
699.117	0.25	Lose2	0.72	0.0	No	2.633	0.017	n/a	NoResponse	-1	n/a	n/a	9	74	Cue	Loss	True
699.368	4.05	Lose2	0.72	0.0	No	2.633	0.001	n/a	NoResponse	-1	n/a	n/a	9	74	Fixation	Loss	True
703.413	0.16	Lose2	0.72	0.004	No	2.633	-0.004	3.0	NoResponse	-1	0.181	702.594	9	74	Target	Loss	True
703.58	0.54	Lose2	0.72	n/a	No	2.633	n/a	n/a	NoResponse	-1	n/a	n/a	9	74	Blank	Loss	True
703.594	0.3	Lose2	0.72	0.004	No	2.633	-0.004	3.0	NoResponse	-1	0.181	n/a	9	74	ButtonPress	Loss	True
704.115	1.45	Lose2	0.72	n/a	No	2.633	n/a	5.0	NoResponse	-1	0.001	703.116	9	74	Feedback	Loss	True
705.57	2.633	Lose2	0.72	n/a	No	2.633	n/a	n/a	NoResponse	-1	0.0	n/a	9	74	ISIslide	Loss	True
708.228	0.25	Lose2	0.7105	0.0	No	2.922	0.028	n/a	NoResponse	-1	n/a	n/a	8	75	Cue	Loss	True
708.478	3.95	Lose2	0.7105	0.0	No	2.922	0.0	n/a	NoResponse	-1	n/a	n/a	8	75	Fixation	Loss	True
712.44	0.15	Lose2	0.7105	0.0	No	2.922	0.012	3.0	NoResponse	-1	0.167	711.607	8	75	Target	Loss	True
712.574	0.55	Lose2	0.7105	n/a	No	2.922	n/a	n/a	NoResponse	-1	n/a	n/a	8	75	Blank	Loss	True
712.607	0.3	Lose2	0.7105	0.0	No	2.922	0.012	3.0	NoResponse	-1	0.167	n/a	8	75	ButtonPress	Loss	True
713.126	1.45	Lose2	0.7105	n/a	No	2.922	n/a	5.0	NoResponse	-1	0.014	712.14	8	75	Feedback	Loss	True
714.58	2.922	Lose2	0.7105	n/a	No	2.922	n/a	n/a	NoResponse	-1	0.0	n/a	8	75	ISIslide	Loss	True
717.522	0.25	Control	0.7012999999999999	0.0	No	3.228	0.022	n/a	NoResponse	0	n/a	n/a	8	76	Cue	Neutral	True
717.773	4.05	Control	0.7012999999999999	0.0	No	3.228	0.001	n/a	NoResponse	0	n/a	n/a	8	76	Fixation	Neutral	True
721.818	0.15	Control	0.7012999999999999	0.004	No	3.228	-0.004	3.0	NoResponse	0	0.16	720.978	8	76	Target	Neutral	True
721.969	0.55	Control	0.7012999999999999	n/a	No	3.228	n/a	n/a	NoResponse	0	n/a	n/a	8	76	Blank	Neutral	True
721.978	0.3	Control	0.7012999999999999	0.004	No	3.228	-0.004	3.0	NoResponse	0	0.16	n/a	8	76	ButtonPress	Neutral	True
722.52	1.45	Control	0.7012999999999999	n/a	No	3.228	n/a	5.0	NoResponse	0	0.035	721.555	8	76	Feedback	Neutral	True
723.975	3.228	Control	0.7012999999999999	n/a	No	3.228	n/a	n/a	NoResponse	0	0.0	n/a	8	76	ISIslide	Neutral	True
727.218	0.25	Lose2	0.6923	0.0	No	2.582	0.018	n/a	NoResponse	-1	n/a	n/a	7	77	Cue	Loss	True
727.468	3.95	Lose2	0.6923	0.001	No	2.582	0.0	n/a	NoResponse	-1	n/a	n/a	7	77	Fixation	Loss	True
731.414	0.15	Lose2	0.6923	0.004	No	2.582	-0.004	3.0	NoResponse	-1	0.177	730.591	7	77	Target	Loss	True
731.564	0.55	Lose2	0.6923	n/a	No	2.582	n/a	n/a	NoResponse	-1	n/a	n/a	7	77	Blank	Loss	True
731.591	0.3	Lose2	0.6923	0.004	No	2.582	-0.004	3.0	NoResponse	-1	0.177	n/a	7	77	ButtonPress	Loss	True
732.116	1.45	Lose2	0.6923	n/a	No	2.582	n/a	5.0	NoResponse	-1	0.048	731.164	7	77	Feedback	Loss	True
733.57	2.582	Lose2	0.6923	n/a	No	2.582	n/a	n/a	NoResponse	-1	0.0	n/a	7	77	ISIslide	Loss	True
