onset	duration	cue_type	current_mean_accuracy	duration_error	is_hit	isi_adjusted	onset_delay	response	response_type	reward	rt	rt_time	total_reward	trial_number	trial_phase	trial_type	one_press
11.109	0.25	Control	1.0	0.0	Yes	2.941	0.009	n/a	GoodResponse	0	n/a	n/a	0	0	Cue	Neutral	True
11.36	3.85	Control	1.0	0.0	Yes	2.941	0.001	n/a	GoodResponse	0	n/a	n/a	0	0	Fixation	Neutral	True
15.205	0.4	Control	1.0	0.004	Yes	2.941	-0.004	1.0	GoodResponse	0	0.282	14.487	0	0	Target	Neutral	True
15.487	0.3	Control	1.0	0.004	Yes	2.941	-0.004	1.0	GoodResponse	0	0.282	n/a	0	0	ButtonPress	Neutral	True
15.606	0.3	Control	1.0	n/a	Yes	2.941	n/a	n/a	GoodResponse	0	n/a	n/a	0	0	Blank	Neutral	True
15.907	1.45	Control	1.0	n/a	Yes	2.941	n/a	5.0	GoodResponse	0	0.023	14.93	0	0	Feedback	Neutral	True
17.361	2.941	Control	1.0	n/a	Yes	2.941	n/a	n/a	GoodResponse	0	0.0	n/a	0	0	ISIslide	Neutral	True
20.32	0.25	Lose2	1.0	0.0	Yes	2.78	0.02	n/a	GoodResponse	0	n/a	n/a	0	1	Cue	AvoidedLoss	True
20.571	4.0	Lose2	1.0	0.0	Yes	2.78	0.001	n/a	GoodResponse	0	n/a	n/a	0	1	Fixation	AvoidedLoss	True
24.566	0.39	Lose2	1.0	0.004	Yes	2.78	-0.004	1.0	GoodResponse	0	0.239	23.805	0	1	Target	AvoidedLoss	True
24.805	0.3	Lose2	1.0	0.004	Yes	2.78	-0.004	1.0	GoodResponse	0	0.239	n/a	0	1	ButtonPress	AvoidedLoss	True
24.967	0.31	Lose2	1.0	n/a	Yes	2.78	n/a	n/a	GoodResponse	0	n/a	n/a	0	1	Blank	AvoidedLoss	True
25.268	1.45	Lose2	1.0	n/a	Yes	2.78	n/a	5.0	GoodResponse	0	0.028	24.296	0	1	Feedback	AvoidedLoss	True
26.722	2.78	Lose2	1.0	n/a	Yes	2.78	n/a	n/a	GoodResponse	0	0.0	n/a	0	1	ISIslide	AvoidedLoss	True
29.531	0.25	Control	1.0	0.0	Yes	2.569	0.031	n/a	GoodResponse	0	n/a	n/a	0	2	Cue	Neutral	True
29.782	4.1	Control	1.0	0.0	Yes	2.569	0.001	n/a	GoodResponse	0	n/a	n/a	0	2	Fixation	Neutral	True
33.877	0.38	Control	1.0	0.004	Yes	2.569	-0.004	1.0	GoodResponse	0	0.25	33.127	0	2	Target	Neutral	True
34.127	0.3	Control	1.0	0.004	Yes	2.569	-0.004	1.0	GoodResponse	0	0.25	n/a	0	2	ButtonPress	Neutral	True
34.262	0.32	Control	1.0	n/a	Yes	2.569	n/a	n/a	GoodResponse	0	n/a	n/a	0	2	Blank	Neutral	True
34.579	1.45	Control	1.0	n/a	Yes	2.569	n/a	5.0	GoodResponse	0	0.034	33.613	0	2	Feedback	Neutral	True
36.034	2.569	Control	1.0	n/a	Yes	2.569	n/a	n/a	GoodResponse	0	0.0	n/a	0	2	ISIslide	Neutral	True
38.625	0.25	Win2	1.0	0.0	Yes	2.825	0.025	n/a	GoodResponse	1	n/a	n/a	1	3	Cue	Win	True
38.875	3.95	Win2	1.0	0.0	Yes	2.825	0.0	n/a	GoodResponse	1	n/a	n/a	1	3	Fixation	Win	True
42.821	0.37	Win2	1.0	0.004	Yes	2.825	-0.004	1.0	GoodResponse	1	0.302	42.123	1	3	Target	Win	True
43.123	0.3	Win2	1.0	0.004	Yes	2.825	-0.004	1.0	GoodResponse	1	0.302	n/a	1	3	ButtonPress	Win	True
43.205	0.33	Win2	1.0	n/a	Yes	2.825	n/a	n/a	GoodResponse	1	n/a	n/a	1	3	Blank	Win	True
43.523	1.45	Win2	1.0	n/a	Yes	2.825	n/a	5.0	GoodResponse	1	0.016	42.539	1	3	Feedback	Win	True
44.977	2.825	Win2	1.0	n/a	Yes	2.825	n/a	n/a	GoodResponse	1	0.0	n/a	1	3	ISIslide	Win	True
47.819	0.25	Win2	1.0	0.0	Yes	3.281	0.019	n/a	GoodResponse	1	n/a	n/a	2	4	Cue	Win	True
48.07	4.0	Win2	1.0	0.0	Yes	3.281	0.001	n/a	GoodResponse	1	n/a	n/a	2	4	Fixation	Win	True
52.065	0.36	Win2	1.0	0.004	Yes	3.281	-0.004	1.0	GoodResponse	1	0.262	51.327	2	4	Target	Win	True
52.327	0.3	Win2	1.0	0.004	Yes	3.281	-0.004	1.0	GoodResponse	1	0.262	n/a	2	4	ButtonPress	Win	True
52.433	0.34	Win2	1.0	n/a	Yes	3.281	n/a	n/a	GoodResponse	1	n/a	n/a	2	4	Blank	Win	True
52.767	1.45	Win2	1.0	n/a	Yes	3.281	n/a	5.0	GoodResponse	1	0.04	51.807	2	4	Feedback	Win	True
54.221	3.281	Win2	1.0	n/a	Yes	3.281	n/a	n/a	GoodResponse	1	0.0	n/a	2	4	ISIslide	Win	True
57.531	0.25	Win2	1.0	0.0	Yes	2.769	0.031	n/a	GoodResponse	1	n/a	n/a	3	5	Cue	Win	True
57.782	4.0	Win2	1.0	0.0	Yes	2.769	0.001	n/a	GoodResponse	1	n/a	n/a	3	5	Fixation	Win	True
61.777	0.35	Win2	1.0	0.004	Yes	2.769	-0.004	1.0	GoodResponse	1	0.247	61.024	3	5	Target	Win	True
62.024	0.3	Win2	1.0	0.004	Yes	2.769	-0.004	1.0	GoodResponse	1	0.247	n/a	3	5	ButtonPress	Win	True
62.128	0.35	Win2	1.0	n/a	Yes	2.769	n/a	n/a	GoodResponse	1	n/a	n/a	3	5	Blank	Win	True
62.479	1.45	Win2	1.0	n/a	Yes	2.769	n/a	5.0	GoodResponse	1	0.036	61.515	3	5	Feedback	Win	True
63.934	2.769	Win2	1.0	n/a	Yes	2.769	n/a	n/a	GoodResponse	1	0.0	n/a	3	5	ISIslide	Win	True
66.725	0.25	Lose2	1.0	0.001	Yes	2.725	0.025	n/a	GoodResponse	0	n/a	n/a	3	6	Cue	AvoidedLoss	True
66.976	3.95	Lose2	1.0	0.0	Yes	2.725	0.001	n/a	GoodResponse	0	n/a	n/a	3	6	Fixation	AvoidedLoss	True
70.921	0.34	Lose2	1.0	0.004	Yes	2.725	-0.004	1.0	GoodResponse	0	0.245	70.166	3	6	Target	AvoidedLoss	True
71.166	0.3	Lose2	1.0	0.004	Yes	2.725	-0.004	1.0	GoodResponse	0	0.245	n/a	3	6	ButtonPress	AvoidedLoss	True
71.272	0.36	Lose2	1.0	n/a	Yes	2.725	n/a	n/a	GoodResponse	0	n/a	n/a	3	6	Blank	AvoidedLoss	True
71.623	1.45	Lose2	1.0	n/a	Yes	2.725	n/a	5.0	GoodResponse	0	0.014	70.637	3	6	Feedback	AvoidedLoss	True
73.078	2.725	Lose2	1.0	n/a	Yes	2.725	n/a	n/a	GoodResponse	0	0.0	n/a	3	6	ISIslide	AvoidedLoss	True
75.819	0.25	Lose2	0.875	0.0	No	4.031	0.019	n/a	NoResponse	-1	n/a	n/a	2	7	Cue	Loss	True
76.07	4.05	Lose2	0.875	0.0	No	4.031	0.001	n/a	NoResponse	-1	n/a	n/a	2	7	Fixation	Loss	True
80.116	0.33	Lose2	0.875	0.003	No	4.031	-0.003	1.0	NoResponse	-1	0.355	79.471	2	7	Target	Loss	True
80.45	0.37	Lose2	0.875	n/a	No	4.031	n/a	n/a	NoResponse	-1	n/a	n/a	2	7	Blank	Loss	True
80.471	0.3	Lose2	0.875	0.003	No	4.031	-0.003	1.0	NoResponse	-1	0.355	n/a	2	7	ButtonPress	Loss	True
80.818	1.45	Lose2	0.875	n/a	No	4.031	n/a	5.0	NoResponse	-1	0.038	79.856	2	7	Feedback	Loss	True
82.272	4.031	Lose2	0.875	n/a	No	4.031	n/a	n/a	NoResponse	-1	0.0	n/a	2	7	ISIslide	Loss	True
86.317	0.25	Lose2	0.8889	0.0	Yes	3.033	0.017	n/a	GoodResponse	0	n/a	n/a	2	8	Cue	AvoidedLoss	True
86.568	3.95	Lose2	0.8889	0.0	Yes	3.033	0.001	n/a	GoodResponse	0	n/a	n/a	2	8	Fixation	AvoidedLoss	True
90.513	0.32	Lose2	0.8889	0.004	Yes	3.033	-0.004	1.0	GoodResponse	0	0.213	89.726	2	8	Target	AvoidedLoss	True
90.726	0.3	Lose2	0.8889	0.004	Yes	3.033	-0.004	1.0	GoodResponse	0	0.213	n/a	2	8	ButtonPress	AvoidedLoss	True
90.848	0.38	Lose2	0.8889	n/a	Yes	3.033	n/a	n/a	GoodResponse	0	n/a	n/a	2	8	Blank	AvoidedLoss	True
91.215	1.45	Lose2	0.8889	n/a	Yes	3.033	n/a	5.0	GoodResponse	0	0.032	90.247	2	8	Feedback	AvoidedLoss	True
92.67	3.033	Lose2	0.8889	n/a	Yes	3.033	n/a	n/a	GoodResponse	0	0.0	n/a	2	8	ISIslide	AvoidedLoss	True
95.729	0.25	Lose2	0.9	0.0	Yes	3.121	0.029	n/a	GoodResponse	0	n/a	n/a	2	9	Cue	AvoidedLoss	True
95.98	3.95	Lose2	0.9	0.0	Yes	3.121	0.001	n/a	GoodResponse	0	n/a	n/a	2	9	Fixation	AvoidedLoss	True
99.925	0.31	Lose2	0.9	0.004	Yes	3.121	-0.004	1.0	GoodResponse	0	0.244	99.169	2	9	Target	AvoidedLoss	True
100.169	0.3	Lose2	0.9	0.004	Yes	3.121	-0.004	1.0	GoodResponse	0	0.244	n/a	2	9	ButtonPress	AvoidedLoss	True
100.242	0.39	Lose2	0.9	n/a	Yes	3.121	n/a	n/a	GoodResponse	0	n/a	n/a	2	9	Blank	AvoidedLoss	True
100.627	1.45	Lose2	0.9	n/a	Yes	3.121	n/a	5.0	GoodResponse	0	0.034	99.661	2	9	Feedback	AvoidedLoss	True
102.081	3.121	Lose2	0.9	n/a	Yes	3.121	n/a	n/a	GoodResponse	0	0.0	n/a	2	9	ISIslide	AvoidedLoss	True
105.224	0.25	Control	0.8181999999999999	0.0	No	3.276	0.024	n/a	NoResponse	0	n/a	n/a	2	10	Cue	Neutral	True
105.475	4.0	Control	0.8181999999999999	0.0	No	3.276	0.001	n/a	NoResponse	0	n/a	n/a	2	10	Fixation	Neutral	True
109.47	0.3	Control	0.8181999999999999	0.004	No	3.276	-0.004	1.0	NoResponse	0	0.317	108.787	2	10	Target	Neutral	True
109.771	0.4	Control	0.8181999999999999	n/a	No	3.276	n/a	n/a	NoResponse	0	n/a	n/a	2	10	Blank	Neutral	True
109.787	0.3	Control	0.8181999999999999	0.004	No	3.276	-0.004	1.0	NoResponse	0	0.317	n/a	2	10	ButtonPress	Neutral	True
110.172	1.45	Control	0.8181999999999999	n/a	No	3.276	n/a	5.0	NoResponse	0	0.001	109.173	2	10	Feedback	Neutral	True
111.627	3.276	Control	0.8181999999999999	n/a	No	3.276	n/a	n/a	NoResponse	0	0.0	n/a	2	10	ISIslide	Neutral	True
114.92	0.25	Lose2	0.8332999999999999	0.0	Yes	2.73	0.02	n/a	GoodResponse	0	n/a	n/a	2	11	Cue	AvoidedLoss	True
115.17	4.05	Lose2	0.8332999999999999	0.001	Yes	2.73	0.0	n/a	GoodResponse	0	n/a	n/a	2	11	Fixation	AvoidedLoss	True
119.216	0.29	Lose2	0.8332999999999999	0.004	Yes	2.73	-0.004	1.0	GoodResponse	0	0.25	118.466	2	11	Target	AvoidedLoss	True
119.466	0.3	Lose2	0.8332999999999999	0.004	Yes	2.73	-0.004	1.0	GoodResponse	0	0.25	n/a	2	11	ButtonPress	AvoidedLoss	True
119.517	0.41	Lose2	0.8332999999999999	n/a	Yes	2.73	n/a	n/a	GoodResponse	0	n/a	n/a	2	11	Blank	AvoidedLoss	True
119.918	1.45	Lose2	0.8332999999999999	n/a	Yes	2.73	n/a	5.0	GoodResponse	0	0.011	118.929	2	11	Feedback	AvoidedLoss	True
121.372	2.73	Lose2	0.8332999999999999	n/a	Yes	2.73	n/a	n/a	GoodResponse	0	0.0	n/a	2	11	ISIslide	AvoidedLoss	True
124.131	0.25	Control	0.8462000000000001	0.0	Yes	2.969	0.031	n/a	GoodResponse	0	n/a	n/a	2	12	Cue	Neutral	True
124.381	3.9	Control	0.8462000000000001	0.0	Yes	2.969	0.0	n/a	GoodResponse	0	n/a	n/a	2	12	Fixation	Neutral	True
128.293	0.28	Control	0.8462000000000001	0.0	Yes	2.969	0.012	1.0	GoodResponse	0	0.231	127.524	2	12	Target	Neutral	True
128.524	0.3	Control	0.8462000000000001	0.0	Yes	2.969	0.012	1.0	GoodResponse	0	0.231	n/a	2	12	ButtonPress	Neutral	True
128.561	0.42	Control	0.8462000000000001	n/a	Yes	2.969	n/a	n/a	GoodResponse	0	n/a	n/a	2	12	Blank	Neutral	True
128.978	1.45	Control	0.8462000000000001	n/a	Yes	2.969	n/a	5.0	GoodResponse	0	0.024	128.002	2	12	Feedback	Neutral	True
130.433	2.969	Control	0.8462000000000001	n/a	Yes	2.969	n/a	n/a	GoodResponse	0	0.0	n/a	2	12	ISIslide	Neutral	True
133.425	0.25	Control	0.8571	0.0	Yes	2.775	0.025	n/a	GoodResponse	0	n/a	n/a	2	13	Cue	Neutral	True
133.676	4.0	Control	0.8571	0.0	Yes	2.775	0.001	n/a	GoodResponse	0	n/a	n/a	2	13	Fixation	Neutral	True
137.671	0.27	Control	0.8571	0.004	Yes	2.775	-0.004	1.0	GoodResponse	0	0.239	136.91	2	13	Target	Neutral	True
137.91	0.3	Control	0.8571	0.004	Yes	2.775	-0.004	1.0	GoodResponse	0	0.239	n/a	2	13	ButtonPress	Neutral	True
137.955	0.43	Control	0.8571	n/a	Yes	2.775	n/a	n/a	GoodResponse	0	n/a	n/a	2	13	Blank	Neutral	True
138.373	1.45	Control	0.8571	n/a	Yes	2.775	n/a	5.0	GoodResponse	0	0.044	137.417	2	13	Feedback	Neutral	True
139.828	2.775	Control	0.8571	n/a	Yes	2.775	n/a	n/a	GoodResponse	0	0.0	n/a	2	13	ISIslide	Neutral	True
142.619	0.25	Win2	0.8667	0.0	Yes	2.681	0.019	n/a	GoodResponse	1	n/a	n/a	3	14	Cue	Win	True
142.87	4.1	Win2	0.8667	0.0	Yes	2.681	0.001	n/a	GoodResponse	1	n/a	n/a	3	14	Fixation	Win	True
146.966	0.26	Win2	0.8667	0.003	Yes	2.681	-0.003	1.0	GoodResponse	1	0.221	146.187	3	14	Target	Win	True
147.187	0.3	Win2	0.8667	0.003	Yes	2.681	-0.003	1.0	GoodResponse	1	0.221	n/a	3	14	ButtonPress	Win	True
147.233	0.44	Win2	0.8667	n/a	Yes	2.681	n/a	n/a	GoodResponse	1	n/a	n/a	3	14	Blank	Win	True
147.668	1.45	Win2	0.8667	n/a	Yes	2.681	n/a	5.0	GoodResponse	1	0.017	146.685	3	14	Feedback	Win	True
149.122	2.681	Win2	0.8667	n/a	Yes	2.681	n/a	n/a	GoodResponse	1	0.0	n/a	3	14	ISIslide	Win	True
151.83	0.25	Control	0.8125	0.0	No	2.97	0.03	n/a	NoResponse	0	n/a	n/a	3	15	Cue	Neutral	True
152.081	4.0	Control	0.8125	0.0	No	2.97	0.001	n/a	NoResponse	0	n/a	n/a	3	15	Fixation	Neutral	True
156.076	0.25	Control	0.8125	0.004	No	2.97	-0.004	1.0	NoResponse	0	0.315	155.391	3	15	Target	Neutral	True
156.327	0.45	Control	0.8125	n/a	No	2.97	n/a	n/a	NoResponse	0	n/a	n/a	3	15	Blank	Neutral	True
156.391	0.3	Control	0.8125	0.004	No	2.97	-0.004	1.0	NoResponse	0	0.315	n/a	3	15	ButtonPress	Neutral	True
156.778	1.45	Control	0.8125	n/a	No	2.97	n/a	5.0	NoResponse	0	0.029	155.807	3	15	Feedback	Neutral	True
158.233	2.97	Control	0.8125	n/a	No	2.97	n/a	n/a	NoResponse	0	0.0	n/a	3	15	ISIslide	Neutral	True
161.225	0.25	Win2	0.8234999999999999	0.0	Yes	2.875	0.025	n/a	GoodResponse	1	n/a	n/a	4	16	Cue	Win	True
161.476	4.0	Win2	0.8234999999999999	0.0	Yes	2.875	0.001	n/a	GoodResponse	1	n/a	n/a	4	16	Fixation	Win	True
165.471	0.24	Win2	0.8234999999999999	0.004	Yes	2.875	-0.004	1.0	GoodResponse	1	0.199	164.67	4	16	Target	Win	True
165.67	0.3	Win2	0.8234999999999999	0.004	Yes	2.875	-0.004	1.0	GoodResponse	1	0.199	n/a	4	16	ButtonPress	Win	True
165.722	0.46	Win2	0.8234999999999999	n/a	Yes	2.875	n/a	n/a	GoodResponse	1	n/a	n/a	4	16	Blank	Win	True
166.173	1.45	Win2	0.8234999999999999	n/a	Yes	2.875	n/a	5.0	GoodResponse	1	0.048	165.221	4	16	Feedback	Win	True
167.627	2.875	Win2	0.8234999999999999	n/a	Yes	2.875	n/a	n/a	GoodResponse	1	0.0	n/a	4	16	ISIslide	Win	True
170.519	0.25	Lose2	0.8332999999999999	0.001	Yes	2.731	0.019	n/a	GoodResponse	0	n/a	n/a	4	17	Cue	AvoidedLoss	True
170.77	3.95	Lose2	0.8332999999999999	0.0	Yes	2.731	0.001	n/a	GoodResponse	0	n/a	n/a	4	17	Fixation	AvoidedLoss	True
174.715	0.23	Lose2	0.8332999999999999	0.004	Yes	2.731	-0.004	1.0	GoodResponse	0	0.219	173.934	4	17	Target	AvoidedLoss	True
174.934	0.3	Lose2	0.8332999999999999	0.004	Yes	2.731	-0.004	1.0	GoodResponse	0	0.219	n/a	4	17	ButtonPress	AvoidedLoss	True
174.949	0.47	Lose2	0.8332999999999999	n/a	Yes	2.731	n/a	n/a	GoodResponse	0	n/a	n/a	4	17	Blank	AvoidedLoss	True
175.417	1.45	Lose2	0.8332999999999999	n/a	Yes	2.731	n/a	5.0	GoodResponse	0	0.024	174.441	4	17	Feedback	AvoidedLoss	True
176.872	2.731	Lose2	0.8332999999999999	n/a	Yes	2.731	n/a	n/a	GoodResponse	0	0.0	n/a	4	17	ISIslide	AvoidedLoss	True
179.63	0.25	Lose2	0.8421	0.0	Yes	2.72	0.03	n/a	GoodResponse	0	n/a	n/a	4	18	Cue	AvoidedLoss	True
179.881	4.05	Lose2	0.8421	0.0	Yes	2.72	0.001	n/a	GoodResponse	0	n/a	n/a	4	18	Fixation	AvoidedLoss	True
183.926	0.22	Lose2	0.8421	0.004	Yes	2.72	-0.004	1.0	GoodResponse	0	0.216	183.142	4	18	Target	AvoidedLoss	True
184.142	0.3	Lose2	0.8421	0.004	Yes	2.72	-0.004	1.0	GoodResponse	0	0.216	n/a	4	18	ButtonPress	AvoidedLoss	True
184.16	0.48	Lose2	0.8421	n/a	Yes	2.72	n/a	n/a	GoodResponse	0	n/a	n/a	4	18	Blank	AvoidedLoss	True
184.628	1.45	Lose2	0.8421	n/a	Yes	2.72	n/a	5.0	GoodResponse	0	0.033	183.661	4	18	Feedback	AvoidedLoss	True
186.083	2.72	Lose2	0.8421	n/a	Yes	2.72	n/a	n/a	GoodResponse	0	0.0	n/a	4	18	ISIslide	AvoidedLoss	True
188.824	0.25	Control	0.8	0.0	No	2.926	0.024	n/a	NoResponse	0	n/a	n/a	4	19	Cue	Neutral	True
189.075	3.95	Control	0.8	0.0	No	2.926	0.001	n/a	NoResponse	0	n/a	n/a	4	19	Fixation	Neutral	True
193.02	0.21	Control	0.8	0.004	No	2.926	-0.004	1.0	NoResponse	0	0.235	192.255	4	19	Target	Neutral	True
193.237	0.49	Control	0.8	n/a	No	2.926	n/a	n/a	NoResponse	0	n/a	n/a	4	19	Blank	Neutral	True
193.255	0.3	Control	0.8	0.004	No	2.926	-0.004	1.0	NoResponse	0	0.235	n/a	4	19	ButtonPress	Neutral	True
193.722	1.45	Control	0.8	n/a	No	2.926	n/a	5.0	NoResponse	0	0.012	192.734	4	19	Feedback	Neutral	True
195.177	2.926	Control	0.8	n/a	No	2.926	n/a	n/a	NoResponse	0	0.0	n/a	4	19	ISIslide	Neutral	True
198.119	0.25	Control	0.7619	0.0	No	2.631	0.019	n/a	NoResponse	0	n/a	n/a	4	20	Cue	Neutral	True
198.369	4.05	Control	0.7619	0.001	No	2.631	0.0	n/a	NoResponse	0	n/a	n/a	4	20	Fixation	Neutral	True
202.415	0.2	Control	0.7619	0.004	No	2.631	-0.004	1.0	NoResponse	0	0.25	201.665	4	20	Target	Neutral	True
202.616	0.5	Control	0.7619	n/a	No	2.631	n/a	n/a	NoResponse	0	n/a	n/a	4	20	Blank	Neutral	True
202.665	0.3	Control	0.7619	0.004	No	2.631	-0.004	1.0	NoResponse	0	0.25	n/a	4	20	ButtonPress	Neutral	True
203.117	1.45	Control	0.7619	n/a	No	2.631	n/a	5.0	NoResponse	0	0.031	202.148	4	20	Feedback	Neutral	True
204.571	2.631	Control	0.7619	n/a	No	2.631	n/a	n/a	NoResponse	0	0.0	n/a	4	20	ISIslide	Neutral	True
207.229	0.25	Control	0.7273000000000001	0.0	No	2.771	0.029	n/a	NoResponse	0	n/a	n/a	4	21	Cue	Neutral	True
207.48	4.1	Control	0.7273000000000001	0.0	No	2.771	0.001	n/a	NoResponse	0	n/a	n/a	4	21	Fixation	Neutral	True
211.576	0.19	Control	0.7273000000000001	0.003	No	2.771	-0.003	1.0	NoResponse	0	0.268	210.844	4	21	Target	Neutral	True
211.776	0.51	Control	0.7273000000000001	n/a	No	2.771	n/a	n/a	NoResponse	0	n/a	n/a	4	21	Blank	Neutral	True
211.844	0.3	Control	0.7273000000000001	0.003	No	2.771	-0.003	1.0	NoResponse	0	0.268	n/a	4	21	ButtonPress	Neutral	True
212.278	1.45	Control	0.7273000000000001	n/a	No	2.771	n/a	5.0	NoResponse	0	0.041	211.319	4	21	Feedback	Neutral	True
213.732	2.771	Control	0.7273000000000001	n/a	No	2.771	n/a	n/a	NoResponse	0	0.0	n/a	4	21	ISIslide	Neutral	True
216.524	0.25	Control	0.6957	0.0	No	2.776	0.024	n/a	NoResponse	0	n/a	n/a	4	22	Cue	Neutral	True
216.775	4.0	Control	0.6957	0.0	No	2.776	0.001	n/a	NoResponse	0	n/a	n/a	4	22	Fixation	Neutral	True
220.77	0.18	Control	0.6957	0.004	No	2.776	-0.004	1.0	NoResponse	0	0.306	220.076	4	22	Target	Neutral	True
220.954	0.52	Control	0.6957	n/a	No	2.776	n/a	n/a	NoResponse	0	n/a	n/a	4	22	Blank	Neutral	True
221.076	0.3	Control	0.6957	0.004	No	2.776	-0.004	1.0	NoResponse	0	0.306	n/a	4	22	ButtonPress	Neutral	True
221.472	1.45	Control	0.6957	n/a	No	2.776	n/a	5.0	NoResponse	0	0.017	220.489	4	22	Feedback	Neutral	True
222.926	2.776	Control	0.6957	n/a	No	2.776	n/a	n/a	NoResponse	0	0.0	n/a	4	22	ISIslide	Neutral	True
225.718	0.25	Control	0.6667000000000001	0.0	No	2.782	0.018	n/a	NoResponse	0	n/a	n/a	4	23	Cue	Neutral	True
225.969	3.9	Control	0.6667000000000001	0.0	No	2.782	0.001	n/a	NoResponse	0	n/a	n/a	4	23	Fixation	Neutral	True
229.864	0.17	Control	0.6667000000000001	0.004	No	2.782	-0.004	1.0	NoResponse	0	0.242	229.106	4	23	Target	Neutral	True
230.048	0.53	Control	0.6667000000000001	n/a	No	2.782	n/a	n/a	NoResponse	0	n/a	n/a	4	23	Blank	Neutral	True
230.106	0.3	Control	0.6667000000000001	0.004	No	2.782	-0.004	1.0	NoResponse	0	0.242	n/a	4	23	ButtonPress	Neutral	True
230.566	1.45	Control	0.6667000000000001	n/a	No	2.782	n/a	5.0	NoResponse	0	0.045	229.611	4	23	Feedback	Neutral	True
232.02	2.782	Control	0.6667000000000001	n/a	No	2.782	n/a	n/a	NoResponse	0	0.0	n/a	4	23	ISIslide	Neutral	True
234.829	0.25	Win2	0.64	0.0	No	3.121	0.029	n/a	NoResponse	0	n/a	n/a	4	24	Cue	MissedWin	True
235.079	3.95	Win2	0.64	0.0	No	3.121	0.0	n/a	NoResponse	0	n/a	n/a	4	24	Fixation	MissedWin	True
239.025	0.16	Win2	0.64	0.004	No	3.121	-0.004	1.0	NoResponse	0	0.182	238.207	4	24	Target	MissedWin	True
239.192	0.54	Win2	0.64	n/a	No	3.121	n/a	n/a	NoResponse	0	n/a	n/a	4	24	Blank	MissedWin	True
239.207	0.3	Win2	0.64	0.004	No	3.121	-0.004	1.0	NoResponse	0	0.182	n/a	4	24	ButtonPress	MissedWin	True
239.727	1.45	Win2	0.64	n/a	No	3.121	n/a	5.0	NoResponse	0	0.007	238.734	4	24	Feedback	MissedWin	True
241.181	3.121	Win2	0.64	n/a	No	3.121	n/a	n/a	NoResponse	0	0.0	n/a	4	24	ISIslide	MissedWin	True
244.324	0.25	Win2	0.6154	0.0	No	3.076	0.024	n/a	NoResponse	0	n/a	n/a	4	25	Cue	MissedWin	True
244.574	4.0	Win2	0.6154	0.001	No	3.076	0.0	n/a	NoResponse	0	n/a	n/a	4	25	Fixation	MissedWin	True
248.57	0.17	Win2	0.6154	0.004	No	3.076	-0.004	1.0	NoResponse	0	0.228	247.798	4	25	Target	MissedWin	True
248.754	0.53	Win2	0.6154	n/a	No	3.076	n/a	n/a	NoResponse	0	n/a	n/a	4	25	Blank	MissedWin	True
248.798	0.3	Win2	0.6154	0.004	No	3.076	-0.004	1.0	NoResponse	0	0.228	n/a	4	25	ButtonPress	MissedWin	True
249.272	1.45	Win2	0.6154	n/a	No	3.076	n/a	5.0	NoResponse	0	0.022	248.294	4	25	Feedback	MissedWin	True
250.726	3.076	Win2	0.6154	n/a	No	3.076	n/a	n/a	NoResponse	0	0.0	n/a	4	25	ISIslide	MissedWin	True
253.819	0.25	Win2	0.5926	0.0	No	2.931	0.019	n/a	NoResponse	0	n/a	n/a	4	26	Cue	MissedWin	True
254.07	3.95	Win2	0.5926	0.0	No	2.931	0.001	n/a	NoResponse	0	n/a	n/a	4	26	Fixation	MissedWin	True
258.015	0.18	Win2	0.5926	0.004	No	2.931	-0.004	1.0	NoResponse	0	0.224	257.239	4	26	Target	MissedWin	True
258.199	0.52	Win2	0.5926	n/a	No	2.931	n/a	n/a	NoResponse	0	n/a	n/a	4	26	Blank	MissedWin	True
258.239	0.3	Win2	0.5926	0.004	No	2.931	-0.004	1.0	NoResponse	0	0.224	n/a	4	26	ButtonPress	MissedWin	True
258.717	1.45	Win2	0.5926	n/a	No	2.931	n/a	5.0	NoResponse	0	0.04	257.757	4	26	Feedback	MissedWin	True
260.171	2.931	Win2	0.5926	n/a	No	2.931	n/a	n/a	NoResponse	0	0.0	n/a	4	26	ISIslide	MissedWin	True
263.13	0.25	Lose2	0.5714	0.0	No	2.82	0.03	n/a	NoResponse	-1	n/a	n/a	3	27	Cue	Loss	True
263.381	4.05	Lose2	0.5714	0.0	No	2.82	0.001	n/a	NoResponse	-1	n/a	n/a	3	27	Fixation	Loss	True
267.426	0.19	Lose2	0.5714	0.004	No	2.82	-0.004	1.0	NoResponse	-1	0.215	266.641	3	27	Target	Loss	True
267.627	0.51	Lose2	0.5714	n/a	No	2.82	n/a	n/a	NoResponse	-1	n/a	n/a	3	27	Blank	Loss	True
267.641	0.3	Lose2	0.5714	0.004	No	2.82	-0.004	1.0	NoResponse	-1	0.215	n/a	3	27	ButtonPress	Loss	True
268.128	1.45	Lose2	0.5714	n/a	No	2.82	n/a	5.0	NoResponse	-1	0.044	267.172	3	27	Feedback	Loss	True
269.583	2.82	Lose2	0.5714	n/a	No	2.82	n/a	n/a	NoResponse	-1	0.0	n/a	3	27	ISIslide	Loss	True
272.424	0.25	Control	0.5517	0.001	No	2.826	0.024	n/a	NoResponse	0	n/a	n/a	3	28	Cue	Neutral	True
272.675	4.05	Control	0.5517	0.0	No	2.826	0.001	n/a	NoResponse	0	n/a	n/a	3	28	Fixation	Neutral	True
276.721	0.2	Control	0.5517	0.003	No	2.826	-0.003	1.0	NoResponse	0	0.265	275.986	3	28	Target	Neutral	True
276.921	0.5	Control	0.5517	n/a	No	2.826	n/a	n/a	NoResponse	0	n/a	n/a	3	28	Blank	Neutral	True
276.986	0.3	Control	0.5517	0.003	No	2.826	-0.003	1.0	NoResponse	0	0.265	n/a	3	28	ButtonPress	Neutral	True
277.423	1.45	Control	0.5517	n/a	No	2.826	n/a	5.0	NoResponse	0	0.017	276.44	3	28	Feedback	Neutral	True
278.877	2.826	Control	0.5517	n/a	No	2.826	n/a	n/a	NoResponse	0	0.0	n/a	3	28	ISIslide	Neutral	True
281.719	0.25	Lose2	0.5333	0.0	No	2.831	0.019	n/a	NoResponse	-1	n/a	n/a	2	29	Cue	Loss	True
281.97	3.95	Lose2	0.5333	0.0	No	2.831	0.001	n/a	NoResponse	-1	n/a	n/a	2	29	Fixation	Loss	True
285.915	0.21	Lose2	0.5333	0.004	No	2.831	-0.004	1.0	NoResponse	-1	0.226	285.141	2	29	Target	Loss	True
286.132	0.49	Lose2	0.5333	n/a	No	2.831	n/a	n/a	NoResponse	-1	n/a	n/a	2	29	Blank	Loss	True
286.141	0.3	Lose2	0.5333	0.004	No	2.831	-0.004	1.0	NoResponse	-1	0.226	n/a	2	29	ButtonPress	Loss	True
286.617	1.45	Lose2	0.5333	n/a	No	2.831	n/a	5.0	NoResponse	-1	0.043	285.66	2	29	Feedback	Loss	True
288.071	2.831	Lose2	0.5333	n/a	No	2.831	n/a	n/a	NoResponse	-1	0.0	n/a	2	29	ISIslide	Loss	True
290.93	0.25	Win2	0.5161	0.0	No	2.77	0.03	n/a	NoResponse	0	n/a	n/a	2	30	Cue	MissedWin	True
291.181	3.9	Win2	0.5161	0.0	No	2.77	0.001	n/a	NoResponse	0	n/a	n/a	2	30	Fixation	MissedWin	True
295.076	0.22	Win2	0.5161	0.004	No	2.77	-0.004	1.0	NoResponse	0	0.246	294.322	2	30	Target	MissedWin	True
295.31	0.48	Win2	0.5161	n/a	No	2.77	n/a	n/a	NoResponse	0	n/a	n/a	2	30	Blank	MissedWin	True
295.322	0.3	Win2	0.5161	0.004	No	2.77	-0.004	1.0	NoResponse	0	0.246	n/a	2	30	ButtonPress	MissedWin	True
295.778	1.45	Win2	0.5161	n/a	No	2.77	n/a	5.0	NoResponse	0	0.007	294.785	2	30	Feedback	MissedWin	True
297.232	2.77	Win2	0.5161	n/a	No	2.77	n/a	n/a	NoResponse	0	0.0	n/a	2	30	ISIslide	MissedWin	True
300.024	0.25	Lose2	0.5	0.0	No	2.826	0.024	n/a	NoResponse	-1	n/a	n/a	1	31	Cue	Loss	True
300.275	4.05	Lose2	0.5	0.0	No	2.826	0.001	n/a	NoResponse	-1	n/a	n/a	1	31	Fixation	Loss	True
304.32	0.23	Lose2	0.5	0.004	No	2.826	-0.004	1.0	NoResponse	-1	0.274	303.594	1	31	Target	Loss	True
304.554	0.47	Lose2	0.5	n/a	No	2.826	n/a	n/a	NoResponse	-1	n/a	n/a	1	31	Blank	Loss	True
304.594	0.3	Lose2	0.5	0.004	No	2.826	-0.004	1.0	NoResponse	-1	0.274	n/a	1	31	ButtonPress	Loss	True
305.022	1.45	Lose2	0.5	n/a	No	2.826	n/a	5.0	NoResponse	-1	0.027	304.049	1	31	Feedback	Loss	True
306.476	2.826	Lose2	0.5	n/a	No	2.826	n/a	n/a	NoResponse	-1	0.0	n/a	1	31	ISIslide	Loss	True
309.318	0.25	Lose2	0.48479999999999995	0.0	No	2.632	0.018	n/a	NoResponse	-1	n/a	n/a	0	32	Cue	Loss	True
309.569	4.15	Lose2	0.48479999999999995	0.0	No	2.632	0.001	n/a	NoResponse	-1	n/a	n/a	0	32	Fixation	Loss	True
313.715	0.24	Lose2	0.48479999999999995	0.003	No	2.632	-0.003	1.0	NoResponse	-1	0.278	312.993	0	32	Target	Loss	True
313.966	0.46	Lose2	0.48479999999999995	n/a	No	2.632	n/a	n/a	NoResponse	-1	n/a	n/a	0	32	Blank	Loss	True
313.993	0.3	Lose2	0.48479999999999995	0.003	No	2.632	-0.003	1.0	NoResponse	-1	0.278	n/a	0	32	ButtonPress	Loss	True
314.417	1.45	Lose2	0.48479999999999995	n/a	No	2.632	n/a	5.0	NoResponse	-1	0.047	313.464	0	32	Feedback	Loss	True
315.871	2.632	Lose2	0.48479999999999995	n/a	No	2.632	n/a	n/a	NoResponse	-1	0.0	n/a	0	32	ISIslide	Loss	True
318.529	0.25	Win2	0.5	0.0	Yes	2.671	0.029	n/a	GoodResponse	1	n/a	n/a	1	33	Cue	Win	True
318.78	4.0	Win2	0.5	0.0	Yes	2.671	0.001	n/a	GoodResponse	1	n/a	n/a	1	33	Fixation	Win	True
322.775	0.25	Win2	0.5	0.004	Yes	2.671	-0.004	1.0	GoodResponse	1	0.21	321.985	1	33	Target	Win	True
322.985	0.3	Win2	0.5	0.004	Yes	2.671	-0.004	1.0	GoodResponse	1	0.21	n/a	1	33	ButtonPress	Win	True
323.026	0.45	Win2	0.5	n/a	Yes	2.671	n/a	n/a	GoodResponse	1	n/a	n/a	1	33	Blank	Win	True
323.477	1.45	Win2	0.5	n/a	Yes	2.671	n/a	5.0	GoodResponse	1	0.012	322.489	1	33	Feedback	Win	True
324.932	2.671	Win2	0.5	n/a	Yes	2.671	n/a	n/a	GoodResponse	1	0.0	n/a	1	33	ISIslide	Win	True
327.623	0.25	Lose2	0.5143	0.0	Yes	2.627	0.023	n/a	GoodResponse	0	n/a	n/a	1	34	Cue	AvoidedLoss	True
327.874	4.05	Lose2	0.5143	0.0	Yes	2.627	0.001	n/a	GoodResponse	0	n/a	n/a	1	34	Fixation	AvoidedLoss	True
331.919	0.26	Lose2	0.5143	0.004	Yes	2.627	-0.004	1.0	GoodResponse	0	0.258	331.177	1	34	Target	AvoidedLoss	True
332.177	0.3	Lose2	0.5143	0.004	Yes	2.627	-0.004	1.0	GoodResponse	0	0.258	n/a	1	34	ButtonPress	AvoidedLoss	True
332.187	0.44	Lose2	0.5143	n/a	Yes	2.627	n/a	n/a	GoodResponse	0	n/a	n/a	1	34	Blank	AvoidedLoss	True
332.621	1.45	Lose2	0.5143	n/a	Yes	2.627	n/a	5.0	GoodResponse	0	0.039	331.66	1	34	Feedback	AvoidedLoss	True
334.076	2.627	Lose2	0.5143	n/a	Yes	2.627	n/a	n/a	GoodResponse	0	0.0	n/a	1	34	ISIslide	AvoidedLoss	True
336.717	0.25	Lose2	0.5278	0.0	Yes	2.683	0.017	n/a	GoodResponse	0	n/a	n/a	1	35	Cue	AvoidedLoss	True
336.968	4.0	Lose2	0.5278	0.0	Yes	2.683	0.001	n/a	GoodResponse	0	n/a	n/a	1	35	Fixation	AvoidedLoss	True
340.963	0.27	Lose2	0.5278	0.004	Yes	2.683	-0.004	1.0	GoodResponse	0	0.248	340.211	1	35	Target	AvoidedLoss	True
341.211	0.3	Lose2	0.5278	0.004	Yes	2.683	-0.004	1.0	GoodResponse	0	0.248	n/a	1	35	ButtonPress	AvoidedLoss	True
341.247	0.43	Lose2	0.5278	n/a	Yes	2.683	n/a	n/a	GoodResponse	0	n/a	n/a	1	35	Blank	AvoidedLoss	True
341.665	1.45	Lose2	0.5278	n/a	Yes	2.683	n/a	5.0	GoodResponse	0	0.019	340.684	1	35	Feedback	AvoidedLoss	True
343.119	2.683	Lose2	0.5278	n/a	Yes	2.683	n/a	n/a	GoodResponse	0	0.0	n/a	1	35	ISIslide	AvoidedLoss	True
345.828	0.25	Control	0.5135000000000001	0.0	No	2.672	0.028	n/a	NoResponse	0	n/a	n/a	1	36	Cue	Neutral	True
346.078	4.0	Control	0.5135000000000001	0.0	No	2.672	0.0	n/a	NoResponse	0	n/a	n/a	1	36	Fixation	Neutral	True
350.074	0.28	Control	0.5135000000000001	0.004	No	2.672	-0.004	1.0	NoResponse	0	0.308	349.382	1	36	Target	Neutral	True
350.358	0.42	Control	0.5135000000000001	n/a	No	2.672	n/a	n/a	NoResponse	0	n/a	n/a	1	36	Blank	Neutral	True
350.382	0.3	Control	0.5135000000000001	0.004	No	2.672	-0.004	1.0	NoResponse	0	0.308	n/a	1	36	ButtonPress	Neutral	True
350.776	1.45	Control	0.5135000000000001	n/a	No	2.672	n/a	5.0	NoResponse	0	0.029	349.805	1	36	Feedback	Neutral	True
352.23	2.672	Control	0.5135000000000001	n/a	No	2.672	n/a	n/a	NoResponse	0	0.0	n/a	1	36	ISIslide	Neutral	True
354.921	0.25	Win2	0.5263	0.001	Yes	2.879	0.021	n/a	GoodResponse	1	n/a	n/a	2	37	Cue	Win	True
355.172	4.0	Win2	0.5263	0.0	Yes	2.879	0.001	n/a	GoodResponse	1	n/a	n/a	2	37	Fixation	Win	True
359.167	0.29	Win2	0.5263	0.004	Yes	2.879	-0.004	1.0	GoodResponse	1	0.2	358.367	2	37	Target	Win	True
359.367	0.3	Win2	0.5263	0.004	Yes	2.879	-0.004	1.0	GoodResponse	1	0.2	n/a	2	37	ButtonPress	Win	True
359.468	0.41	Win2	0.5263	n/a	Yes	2.879	n/a	n/a	GoodResponse	1	n/a	n/a	2	37	Blank	Win	True
359.87	1.45	Win2	0.5263	n/a	Yes	2.879	n/a	5.0	GoodResponse	1	0.009	358.879	2	37	Feedback	Win	True
361.324	2.879	Win2	0.5263	n/a	Yes	2.879	n/a	n/a	GoodResponse	1	0.0	n/a	2	37	ISIslide	Win	True
364.216	0.25	Lose2	0.5385	0.0	Yes	2.834	0.016	n/a	GoodResponse	0	n/a	n/a	2	38	Cue	AvoidedLoss	True
364.467	3.95	Lose2	0.5385	0.0	Yes	2.834	0.001	n/a	GoodResponse	0	n/a	n/a	2	38	Fixation	AvoidedLoss	True
368.412	0.3	Lose2	0.5385	0.004	Yes	2.834	-0.004	1.0	GoodResponse	0	0.219	367.631	2	38	Target	AvoidedLoss	True
368.631	0.3	Lose2	0.5385	0.004	Yes	2.834	-0.004	1.0	GoodResponse	0	0.219	n/a	2	38	ButtonPress	AvoidedLoss	True
368.713	0.4	Lose2	0.5385	n/a	Yes	2.834	n/a	n/a	GoodResponse	0	n/a	n/a	2	38	Blank	AvoidedLoss	True
369.114	1.45	Lose2	0.5385	n/a	Yes	2.834	n/a	5.0	GoodResponse	0	0.033	368.147	2	38	Feedback	AvoidedLoss	True
370.568	2.834	Lose2	0.5385	n/a	Yes	2.834	n/a	n/a	GoodResponse	0	0.0	n/a	2	38	ISIslide	AvoidedLoss	True
373.427	0.25	Win2	0.55	0.0	Yes	2.973	0.027	n/a	GoodResponse	1	n/a	n/a	3	39	Cue	Win	True
373.678	4.1	Win2	0.55	0.0	Yes	2.973	0.001	n/a	GoodResponse	1	n/a	n/a	3	39	Fixation	Win	True
377.773	0.31	Win2	0.55	0.004	Yes	2.973	-0.004	1.0	GoodResponse	1	0.239	377.012	3	39	Target	Win	True
378.012	0.3	Win2	0.55	0.004	Yes	2.973	-0.004	1.0	GoodResponse	1	0.239	n/a	3	39	ButtonPress	Win	True
378.091	0.39	Win2	0.55	n/a	Yes	2.973	n/a	n/a	GoodResponse	1	n/a	n/a	3	39	Blank	Win	True
378.475	1.45	Win2	0.55	n/a	Yes	2.973	n/a	5.0	GoodResponse	1	0.038	377.513	3	39	Feedback	Win	True
379.93	2.973	Win2	0.55	n/a	Yes	2.973	n/a	n/a	GoodResponse	1	0.0	n/a	3	39	ISIslide	Win	True
382.922	0.25	Win2	0.561	0.0	Yes	2.728	0.022	n/a	GoodResponse	1	n/a	n/a	4	40	Cue	Win	True
383.173	3.95	Win2	0.561	0.0	Yes	2.728	0.001	n/a	GoodResponse	1	n/a	n/a	4	40	Fixation	Win	True
387.118	0.32	Win2	0.561	0.004	Yes	2.728	-0.004	1.0	GoodResponse	1	0.266	386.384	4	40	Target	Win	True
387.384	0.3	Win2	0.561	0.004	Yes	2.728	-0.004	1.0	GoodResponse	1	0.266	n/a	4	40	ButtonPress	Win	True
387.452	0.38	Win2	0.561	n/a	Yes	2.728	n/a	n/a	GoodResponse	1	n/a	n/a	4	40	Blank	Win	True
387.82	1.45	Win2	0.561	n/a	Yes	2.728	n/a	5.0	GoodResponse	1	0.01	386.83	4	40	Feedback	Win	True
389.274	2.728	Win2	0.561	n/a	Yes	2.728	n/a	n/a	GoodResponse	1	0.0	n/a	4	40	ISIslide	Win	True
392.016	0.25	Win2	0.5714	0.0	Yes	2.784	0.016	n/a	GoodResponse	1	n/a	n/a	5	41	Cue	Win	True
392.267	3.9	Win2	0.5714	0.0	Yes	2.784	0.001	n/a	GoodResponse	1	n/a	n/a	5	41	Fixation	Win	True
396.162	0.33	Win2	0.5714	0.004	Yes	2.784	-0.004	1.0	GoodResponse	1	0.274	395.436	5	41	Target	Win	True
396.436	0.3	Win2	0.5714	0.004	Yes	2.784	-0.004	1.0	GoodResponse	1	0.274	n/a	5	41	ButtonPress	Win	True
396.496	0.37	Win2	0.5714	n/a	Yes	2.784	n/a	n/a	GoodResponse	1	n/a	n/a	5	41	Blank	Win	True
396.864	1.45	Win2	0.5714	n/a	Yes	2.784	n/a	5.0	GoodResponse	1	0.038	395.902	5	41	Feedback	Win	True
398.318	2.784	Win2	0.5714	n/a	Yes	2.784	n/a	n/a	GoodResponse	1	0.0	n/a	5	41	ISIslide	Win	True
401.126	0.25	Control	0.5814	0.001	Yes	2.924	0.026	n/a	GoodResponse	0	n/a	n/a	5	42	Cue	Neutral	True
401.377	3.85	Control	0.5814	0.0	Yes	2.924	0.001	n/a	GoodResponse	0	n/a	n/a	5	42	Fixation	Neutral	True
405.222	0.34	Control	0.5814	0.004	Yes	2.924	-0.004	1.0	GoodResponse	0	0.258	404.48	5	42	Target	Neutral	True
405.48	0.3	Control	0.5814	0.004	Yes	2.924	-0.004	1.0	GoodResponse	0	0.258	n/a	5	42	ButtonPress	Neutral	True
405.573	0.36	Control	0.5814	n/a	Yes	2.924	n/a	n/a	GoodResponse	0	n/a	n/a	5	42	Blank	Neutral	True
405.924	1.45	Control	0.5814	n/a	Yes	2.924	n/a	5.0	GoodResponse	0	0.007	404.931	5	42	Feedback	Neutral	True
407.378	2.924	Control	0.5814	n/a	Yes	2.924	n/a	n/a	GoodResponse	0	0.0	n/a	5	42	ISIslide	Neutral	True
410.321	0.25	Win2	0.5909	0.0	Yes	3.179	0.021	n/a	GoodResponse	1	n/a	n/a	6	43	Cue	Win	True
410.571	4.0	Win2	0.5909	0.0	Yes	3.179	0.0	n/a	GoodResponse	1	n/a	n/a	6	43	Fixation	Win	True
414.567	0.35	Win2	0.5909	0.004	Yes	3.179	-0.004	1.0	GoodResponse	1	0.215	413.782	6	43	Target	Win	True
414.782	0.3	Win2	0.5909	0.004	Yes	3.179	-0.004	1.0	GoodResponse	1	0.215	n/a	6	43	ButtonPress	Win	True
414.918	0.35	Win2	0.5909	n/a	Yes	3.179	n/a	n/a	GoodResponse	1	n/a	n/a	6	43	Blank	Win	True
415.269	1.45	Win2	0.5909	n/a	Yes	3.179	n/a	5.0	GoodResponse	1	0.024	414.293	6	43	Feedback	Win	True
416.723	3.179	Win2	0.5909	n/a	Yes	3.179	n/a	n/a	GoodResponse	1	0.0	n/a	6	43	ISIslide	Win	True
419.916	0.25	Win2	0.6	0.0	Yes	2.984	0.016	n/a	GoodResponse	1	n/a	n/a	7	44	Cue	Win	True
420.167	4.0	Win2	0.6	0.0	Yes	2.984	0.001	n/a	GoodResponse	1	n/a	n/a	7	44	Fixation	Win	True
424.162	0.36	Win2	0.6	0.004	Yes	2.984	-0.004	1.0	GoodResponse	1	0.276	423.438	7	44	Target	Win	True
424.438	0.3	Win2	0.6	0.004	Yes	2.984	-0.004	1.0	GoodResponse	1	0.276	n/a	7	44	ButtonPress	Win	True
424.53	0.34	Win2	0.6	n/a	Yes	2.984	n/a	n/a	GoodResponse	1	n/a	n/a	7	44	Blank	Win	True
424.864	1.45	Win2	0.6	n/a	Yes	2.984	n/a	5.0	GoodResponse	1	0.039	423.903	7	44	Feedback	Win	True
426.318	2.984	Win2	0.6	n/a	Yes	2.984	n/a	n/a	GoodResponse	1	0.0	n/a	7	44	ISIslide	Win	True
429.327	0.25	Control	0.6087	0.001	Yes	2.873	0.027	n/a	GoodResponse	0	n/a	n/a	7	45	Cue	Neutral	True
429.578	4.1	Control	0.6087	0.0	Yes	2.873	0.001	n/a	GoodResponse	0	n/a	n/a	7	45	Fixation	Neutral	True
433.674	0.37	Control	0.6087	0.003	Yes	2.873	-0.003	1.0	GoodResponse	0	0.229	432.903	7	45	Target	Neutral	True
433.903	0.3	Control	0.6087	0.003	Yes	2.873	-0.003	1.0	GoodResponse	0	0.229	n/a	7	45	ButtonPress	Neutral	True
434.058	0.33	Control	0.6087	n/a	Yes	2.873	n/a	n/a	GoodResponse	0	n/a	n/a	7	45	Blank	Neutral	True
434.376	1.45	Control	0.6087	n/a	Yes	2.873	n/a	5.0	GoodResponse	0	0.039	433.415	7	45	Feedback	Neutral	True
435.83	2.873	Control	0.6087	n/a	Yes	2.873	n/a	n/a	GoodResponse	0	0.0	n/a	7	45	ISIslide	Neutral	True
438.722	0.25	Lose2	0.617	0.0	Yes	3.378	0.022	n/a	GoodResponse	0	n/a	n/a	7	46	Cue	AvoidedLoss	True
438.973	4.0	Lose2	0.617	0.0	Yes	3.378	0.001	n/a	GoodResponse	0	n/a	n/a	7	46	Fixation	AvoidedLoss	True
442.968	0.38	Lose2	0.617	0.004	Yes	3.378	-0.004	1.0	GoodResponse	0	0.245	442.213	7	46	Target	AvoidedLoss	True
443.213	0.3	Lose2	0.617	0.004	Yes	3.378	-0.004	1.0	GoodResponse	0	0.245	n/a	7	46	ButtonPress	AvoidedLoss	True
443.353	0.32	Lose2	0.617	n/a	Yes	3.378	n/a	n/a	GoodResponse	0	n/a	n/a	7	46	Blank	AvoidedLoss	True
443.67	1.45	Lose2	0.617	n/a	Yes	3.378	n/a	5.0	GoodResponse	0	0.014	442.684	7	46	Feedback	AvoidedLoss	True
445.125	3.378	Lose2	0.617	n/a	Yes	3.378	n/a	n/a	GoodResponse	0	0.0	n/a	7	46	ISIslide	AvoidedLoss	True
448.518	0.25	Lose2	0.625	0.0	Yes	2.682	0.018	n/a	GoodResponse	0	n/a	n/a	7	47	Cue	AvoidedLoss	True
448.769	4.0	Lose2	0.625	0.0	Yes	2.682	0.001	n/a	GoodResponse	0	n/a	n/a	7	47	Fixation	AvoidedLoss	True
452.764	0.39	Lose2	0.625	0.004	Yes	2.682	-0.004	1.0	GoodResponse	0	0.214	451.978	7	47	Target	AvoidedLoss	True
452.978	0.3	Lose2	0.625	0.004	Yes	2.682	-0.004	1.0	GoodResponse	0	0.214	n/a	7	47	ButtonPress	AvoidedLoss	True
453.166	0.31	Lose2	0.625	n/a	Yes	2.682	n/a	n/a	GoodResponse	0	n/a	n/a	7	47	Blank	AvoidedLoss	True
453.466	1.45	Lose2	0.625	n/a	Yes	2.682	n/a	5.0	GoodResponse	0	0.022	452.488	7	47	Feedback	AvoidedLoss	True
454.921	2.682	Lose2	0.625	n/a	Yes	2.682	n/a	n/a	GoodResponse	0	0.0	n/a	7	47	ISIslide	AvoidedLoss	True
457.629	0.25	Lose2	0.6327	0.0	Yes	3.021	0.029	n/a	GoodResponse	0	n/a	n/a	7	48	Cue	AvoidedLoss	True
457.88	3.95	Lose2	0.6327	0.0	Yes	3.021	0.001	n/a	GoodResponse	0	n/a	n/a	7	48	Fixation	AvoidedLoss	True
461.825	0.4	Lose2	0.6327	0.004	Yes	3.021	-0.004	1.0	GoodResponse	0	0.319	461.144	7	48	Target	AvoidedLoss	True
462.144	0.3	Lose2	0.6327	0.004	Yes	3.021	-0.004	1.0	GoodResponse	0	0.319	n/a	7	48	ButtonPress	AvoidedLoss	True
462.226	0.3	Lose2	0.6327	n/a	Yes	3.021	n/a	n/a	GoodResponse	0	n/a	n/a	7	48	Blank	AvoidedLoss	True
462.527	1.45	Lose2	0.6327	n/a	Yes	3.021	n/a	5.0	GoodResponse	0	0.034	461.561	7	48	Feedback	AvoidedLoss	True
463.981	3.021	Lose2	0.6327	n/a	Yes	3.021	n/a	n/a	GoodResponse	0	0.0	n/a	7	48	ISIslide	AvoidedLoss	True
467.024	0.25	Control	0.64	0.0	Yes	2.876	0.024	n/a	GoodResponse	0	n/a	n/a	7	49	Cue	Neutral	True
467.274	4.0	Control	0.64	0.0	Yes	2.876	0.0	n/a	GoodResponse	0	n/a	n/a	7	49	Fixation	Neutral	True
471.27	0.41	Control	0.64	0.004	Yes	2.876	-0.004	1.0	GoodResponse	0	0.259	470.529	7	49	Target	Neutral	True
471.529	0.3	Control	0.64	0.004	Yes	2.876	-0.004	1.0	GoodResponse	0	0.259	n/a	7	49	ButtonPress	Neutral	True
471.688	0.29	Control	0.64	n/a	Yes	2.876	n/a	n/a	GoodResponse	0	n/a	n/a	7	49	Blank	Neutral	True
471.972	1.45	Control	0.64	n/a	Yes	2.876	n/a	5.0	GoodResponse	0	0.007	470.979	7	49	Feedback	Neutral	True
473.426	2.876	Control	0.64	n/a	Yes	2.876	n/a	n/a	GoodResponse	0	0.0	n/a	7	49	ISIslide	Neutral	True
476.318	0.25	Control	0.6470999999999999	0.0	Yes	2.782	0.018	n/a	GoodResponse	0	n/a	n/a	7	50	Cue	Neutral	True
476.569	4.0	Control	0.6470999999999999	0.0	Yes	2.782	0.001	n/a	GoodResponse	0	n/a	n/a	7	50	Fixation	Neutral	True
480.564	0.42	Control	0.6470999999999999	0.004	Yes	2.782	-0.004	1.0	GoodResponse	0	0.274	479.838	7	50	Target	Neutral	True
480.838	0.3	Control	0.6470999999999999	0.004	Yes	2.782	-0.004	1.0	GoodResponse	0	0.274	n/a	7	50	ButtonPress	Neutral	True
480.999	0.28	Control	0.6470999999999999	n/a	Yes	2.782	n/a	n/a	GoodResponse	0	n/a	n/a	7	50	Blank	Neutral	True
481.266	1.45	Control	0.6470999999999999	n/a	Yes	2.782	n/a	5.0	GoodResponse	0	0.027	480.293	7	50	Feedback	Neutral	True
482.721	2.782	Control	0.6470999999999999	n/a	Yes	2.782	n/a	n/a	GoodResponse	0	0.0	n/a	7	50	ISIslide	Neutral	True
485.529	0.25	Control	0.6537999999999999	0.0	Yes	2.721	0.029	n/a	GoodResponse	0	n/a	n/a	7	51	Cue	Neutral	True
485.78	3.95	Control	0.6537999999999999	0.0	Yes	2.721	0.001	n/a	GoodResponse	0	n/a	n/a	7	51	Fixation	Neutral	True
489.725	0.43	Control	0.6537999999999999	0.004	Yes	2.721	-0.004	1.0	GoodResponse	0	0.224	488.949	7	51	Target	Neutral	True
489.949	0.3	Control	0.6537999999999999	0.004	Yes	2.721	-0.004	1.0	GoodResponse	0	0.224	n/a	7	51	ButtonPress	Neutral	True
490.16	0.27	Control	0.6537999999999999	n/a	Yes	2.721	n/a	n/a	GoodResponse	0	n/a	n/a	7	51	Blank	Neutral	True
490.427	1.45	Control	0.6537999999999999	n/a	Yes	2.721	n/a	5.0	GoodResponse	0	0.037	489.464	7	51	Feedback	Neutral	True
491.881	2.721	Control	0.6537999999999999	n/a	Yes	2.721	n/a	n/a	GoodResponse	0	0.0	n/a	7	51	ISIslide	Neutral	True
494.623	0.25	Control	0.6604000000000001	0.0	Yes	2.627	0.023	n/a	GoodResponse	0	n/a	n/a	7	52	Cue	Neutral	True
494.874	4.05	Control	0.6604000000000001	0.0	Yes	2.627	0.001	n/a	GoodResponse	0	n/a	n/a	7	52	Fixation	Neutral	True
498.919	0.44	Control	0.6604000000000001	0.004	Yes	2.627	-0.004	1.0	GoodResponse	0	0.262	498.181	7	52	Target	Neutral	True
499.181	0.3	Control	0.6604000000000001	0.004	Yes	2.627	-0.004	1.0	GoodResponse	0	0.262	n/a	7	52	ButtonPress	Neutral	True
499.37	0.26	Control	0.6604000000000001	n/a	Yes	2.627	n/a	n/a	GoodResponse	0	n/a	n/a	7	52	Blank	Neutral	True
499.621	1.45	Control	0.6604000000000001	n/a	Yes	2.627	n/a	5.0	GoodResponse	0	0.013	498.634	7	52	Feedback	Neutral	True
501.076	2.627	Control	0.6604000000000001	n/a	Yes	2.627	n/a	n/a	GoodResponse	0	0.0	n/a	7	52	ISIslide	Neutral	True
503.717	0.25	Win2	0.6667000000000001	0.0	Yes	2.933	0.017	n/a	GoodResponse	1	n/a	n/a	8	53	Cue	Win	True
503.968	4.05	Win2	0.6667000000000001	0.0	Yes	2.933	0.001	n/a	GoodResponse	1	n/a	n/a	8	53	Fixation	Win	True
508.013	0.44	Win2	0.6667000000000001	0.004	Yes	2.933	-0.004	1.0	GoodResponse	1	0.283	507.296	8	53	Target	Win	True
508.296	0.3	Win2	0.6667000000000001	0.004	Yes	2.933	-0.004	1.0	GoodResponse	1	0.283	n/a	8	53	ButtonPress	Win	True
508.464	0.26	Win2	0.6667000000000001	n/a	Yes	2.933	n/a	n/a	GoodResponse	1	n/a	n/a	8	53	Blank	Win	True
508.715	1.45	Win2	0.6667000000000001	n/a	Yes	2.933	n/a	5.0	GoodResponse	1	0.041	507.756	8	53	Feedback	Win	True
510.169	2.933	Win2	0.6667000000000001	n/a	Yes	2.933	n/a	n/a	GoodResponse	1	0.0	n/a	8	53	ISIslide	Win	True
513.128	0.25	Win2	0.6727	0.0	Yes	2.722	0.028	n/a	GoodResponse	1	n/a	n/a	9	54	Cue	Win	True
513.379	3.95	Win2	0.6727	0.0	Yes	2.722	0.001	n/a	GoodResponse	1	n/a	n/a	9	54	Fixation	Win	True
517.324	0.43	Win2	0.6727	0.004	Yes	2.722	-0.004	1.0	GoodResponse	1	0.245	516.569	9	54	Target	Win	True
517.569	0.3	Win2	0.6727	0.004	Yes	2.722	-0.004	1.0	GoodResponse	1	0.245	n/a	9	54	ButtonPress	Win	True
517.759	0.27	Win2	0.6727	n/a	Yes	2.722	n/a	n/a	GoodResponse	1	n/a	n/a	9	54	Blank	Win	True
518.026	1.45	Win2	0.6727	n/a	Yes	2.722	n/a	5.0	GoodResponse	1	0.047	517.073	9	54	Feedback	Win	True
519.481	2.722	Win2	0.6727	n/a	Yes	2.722	n/a	n/a	GoodResponse	1	0.0	n/a	9	54	ISIslide	Win	True
522.222	0.25	Control	0.6786	0.0	Yes	3.028	0.022	n/a	GoodResponse	0	n/a	n/a	9	55	Cue	Neutral	True
522.473	3.95	Control	0.6786	0.0	Yes	3.028	0.001	n/a	GoodResponse	0	n/a	n/a	9	55	Fixation	Neutral	True
526.418	0.42	Control	0.6786	0.004	Yes	3.028	-0.004	1.0	GoodResponse	0	0.332	525.75	9	55	Target	Neutral	True
526.75	0.3	Control	0.6786	0.004	Yes	3.028	-0.004	1.0	GoodResponse	0	0.332	n/a	9	55	ButtonPress	Neutral	True
526.853	0.28	Control	0.6786	n/a	Yes	3.028	n/a	n/a	GoodResponse	0	n/a	n/a	9	55	Blank	Neutral	True
527.12	1.45	Control	0.6786	n/a	Yes	3.028	n/a	5.0	GoodResponse	0	0.026	526.146	9	55	Feedback	Neutral	True
528.575	3.028	Control	0.6786	n/a	Yes	3.028	n/a	n/a	GoodResponse	0	0.0	n/a	9	55	ISIslide	Neutral	True
531.617	0.25	Control	0.6842	0.0	Yes	2.833	0.017	n/a	GoodResponse	0	n/a	n/a	9	56	Cue	Neutral	True
531.868	3.95	Control	0.6842	0.0	Yes	2.833	0.001	n/a	GoodResponse	0	n/a	n/a	9	56	Fixation	Neutral	True
535.813	0.41	Control	0.6842	0.004	Yes	2.833	-0.004	1.0	GoodResponse	0	0.24	535.053	9	56	Target	Neutral	True
536.053	0.3	Control	0.6842	0.004	Yes	2.833	-0.004	1.0	GoodResponse	0	0.24	n/a	9	56	ButtonPress	Neutral	True
536.231	0.29	Control	0.6842	n/a	Yes	2.833	n/a	n/a	GoodResponse	0	n/a	n/a	9	56	Blank	Neutral	True
536.515	1.45	Control	0.6842	n/a	Yes	2.833	n/a	5.0	GoodResponse	0	0.046	535.561	9	56	Feedback	Neutral	True
537.969	2.833	Control	0.6842	n/a	Yes	2.833	n/a	n/a	GoodResponse	0	0.0	n/a	9	56	ISIslide	Neutral	True
540.828	0.25	Control	0.6897	0.0	Yes	3.472	0.028	n/a	GoodResponse	0	n/a	n/a	9	57	Cue	Neutral	True
541.079	4.0	Control	0.6897	0.0	Yes	3.472	0.001	n/a	GoodResponse	0	n/a	n/a	9	57	Fixation	Neutral	True
545.074	0.4	Control	0.6897	0.004	Yes	3.472	-0.004	1.0	GoodResponse	0	0.29	544.364	9	57	Target	Neutral	True
545.364	0.3	Control	0.6897	0.004	Yes	3.472	-0.004	1.0	GoodResponse	0	0.29	n/a	9	57	ButtonPress	Neutral	True
545.475	0.3	Control	0.6897	n/a	Yes	3.472	n/a	n/a	GoodResponse	0	n/a	n/a	9	57	Blank	Neutral	True
545.776	1.45	Control	0.6897	n/a	Yes	3.472	n/a	5.0	GoodResponse	0	0.007	544.783	9	57	Feedback	Neutral	True
547.23	3.472	Control	0.6897	n/a	Yes	3.472	n/a	n/a	GoodResponse	0	0.0	n/a	9	57	ISIslide	Neutral	True
550.724	0.25	Win2	0.6949	0.0	Yes	2.726	0.024	n/a	GoodResponse	1	n/a	n/a	10	58	Cue	Win	True
550.975	4.05	Win2	0.6949	0.0	Yes	2.726	0.001	n/a	GoodResponse	1	n/a	n/a	10	58	Fixation	Win	True
555.02	0.39	Win2	0.6949	0.004	Yes	2.726	-0.004	1.0	GoodResponse	1	0.244	554.264	10	58	Target	Win	True
555.264	0.3	Win2	0.6949	0.004	Yes	2.726	-0.004	1.0	GoodResponse	1	0.244	n/a	10	58	ButtonPress	Win	True
555.422	0.31	Win2	0.6949	n/a	Yes	2.726	n/a	n/a	GoodResponse	1	n/a	n/a	10	58	Blank	Win	True
555.723	1.45	Win2	0.6949	n/a	Yes	2.726	n/a	5.0	GoodResponse	1	0.008	554.731	10	58	Feedback	Win	True
557.177	2.726	Win2	0.6949	n/a	Yes	2.726	n/a	n/a	GoodResponse	1	0.0	n/a	10	58	ISIslide	Win	True
559.918	0.25	Lose2	0.7	0.0	Yes	2.682	0.018	n/a	GoodResponse	0	n/a	n/a	10	59	Cue	AvoidedLoss	True
560.169	4.0	Lose2	0.7	0.0	Yes	2.682	0.001	n/a	GoodResponse	0	n/a	n/a	10	59	Fixation	AvoidedLoss	True
564.164	0.38	Lose2	0.7	0.004	Yes	2.682	-0.004	1.0	GoodResponse	0	0.232	563.396	10	59	Target	AvoidedLoss	True
564.396	0.3	Lose2	0.7	0.004	Yes	2.682	-0.004	1.0	GoodResponse	0	0.232	n/a	10	59	ButtonPress	AvoidedLoss	True
564.549	0.32	Lose2	0.7	n/a	Yes	2.682	n/a	n/a	GoodResponse	0	n/a	n/a	10	59	Blank	AvoidedLoss	True
564.867	1.45	Lose2	0.7	n/a	Yes	2.682	n/a	5.0	GoodResponse	0	0.035	563.902	10	59	Feedback	AvoidedLoss	True
566.321	2.682	Lose2	0.7	n/a	Yes	2.682	n/a	n/a	GoodResponse	0	0.0	n/a	10	59	ISIslide	AvoidedLoss	True
569.029	0.25	Control	0.6884999999999999	0.0	No	2.671	0.029	n/a	NoResponse	0	n/a	n/a	10	60	Cue	Neutral	True
569.28	4.0	Control	0.6884999999999999	0.0	No	2.671	0.001	n/a	NoResponse	0	n/a	n/a	10	60	Fixation	Neutral	True
573.275	0.37	Control	0.6884999999999999	0.004	No	2.671	-0.004	1.0	NoResponse	0	0.438	572.713	10	60	Target	Neutral	True
573.66	0.33	Control	0.6884999999999999	n/a	No	2.671	n/a	n/a	NoResponse	0	n/a	n/a	10	60	Blank	Neutral	True
573.713	0.3	Control	0.6884999999999999	0.004	No	2.671	-0.004	1.0	NoResponse	0	0.438	n/a	10	60	ButtonPress	Neutral	True
573.977	1.45	Control	0.6884999999999999	n/a	No	2.671	n/a	5.0	NoResponse	0	0.047	573.024	10	60	Feedback	Neutral	True
575.432	2.671	Control	0.6884999999999999	n/a	No	2.671	n/a	n/a	NoResponse	0	0.0	n/a	10	60	ISIslide	Neutral	True
578.123	0.25	Lose2	0.6934999999999999	0.0	Yes	2.977	0.023	n/a	GoodResponse	0	n/a	n/a	10	61	Cue	AvoidedLoss	True
578.374	4.0	Lose2	0.6934999999999999	0.0	Yes	2.977	0.001	n/a	GoodResponse	0	n/a	n/a	10	61	Fixation	AvoidedLoss	True
582.369	0.36	Lose2	0.6934999999999999	0.004	Yes	2.977	-0.004	1.0	GoodResponse	0	0.278	581.647	10	61	Target	AvoidedLoss	True
582.647	0.3	Lose2	0.6934999999999999	0.004	Yes	2.977	-0.004	1.0	GoodResponse	0	0.278	n/a	10	61	ButtonPress	AvoidedLoss	True
582.737	0.34	Lose2	0.6934999999999999	n/a	Yes	2.977	n/a	n/a	GoodResponse	0	n/a	n/a	10	61	Blank	AvoidedLoss	True
583.071	1.45	Lose2	0.6934999999999999	n/a	Yes	2.977	n/a	5.0	GoodResponse	0	0.026	582.097	10	61	Feedback	AvoidedLoss	True
584.525	2.977	Lose2	0.6934999999999999	n/a	Yes	2.977	n/a	n/a	GoodResponse	0	0.0	n/a	10	61	ISIslide	AvoidedLoss	True
587.518	0.25	Lose2	0.6984	0.0	Yes	2.882	0.018	n/a	GoodResponse	0	n/a	n/a	10	62	Cue	AvoidedLoss	True
587.768	3.9	Lose2	0.6984	0.0	Yes	2.882	0.0	n/a	GoodResponse	0	n/a	n/a	10	62	Fixation	AvoidedLoss	True
591.68	0.35	Lose2	0.6984	0.0	Yes	2.882	0.012	1.0	GoodResponse	0	0.228	590.908	10	62	Target	AvoidedLoss	True
591.908	0.3	Lose2	0.6984	0.0	Yes	2.882	0.012	1.0	GoodResponse	0	0.228	n/a	10	62	ButtonPress	AvoidedLoss	True
592.014	0.35	Lose2	0.6984	n/a	Yes	2.882	n/a	n/a	GoodResponse	0	n/a	n/a	10	62	Blank	AvoidedLoss	True
592.366	1.45	Lose2	0.6984	n/a	Yes	2.882	n/a	5.0	GoodResponse	0	0.048	591.414	10	62	Feedback	AvoidedLoss	True
593.82	2.882	Lose2	0.6984	n/a	Yes	2.882	n/a	n/a	GoodResponse	0	0.0	n/a	10	62	ISIslide	AvoidedLoss	True
596.729	0.25	Lose2	0.7031000000000001	0.0	Yes	2.621	0.029	n/a	GoodResponse	0	n/a	n/a	10	63	Cue	AvoidedLoss	True
596.979	4.05	Lose2	0.7031000000000001	0.0	Yes	2.621	0.0	n/a	GoodResponse	0	n/a	n/a	10	63	Fixation	AvoidedLoss	True
601.025	0.34	Lose2	0.7031000000000001	0.004	Yes	2.621	-0.004	1.0	GoodResponse	0	0.26	600.285	10	63	Target	AvoidedLoss	True
601.285	0.3	Lose2	0.7031000000000001	0.004	Yes	2.621	-0.004	1.0	GoodResponse	0	0.26	n/a	10	63	ButtonPress	AvoidedLoss	True
601.376	0.36	Lose2	0.7031000000000001	n/a	Yes	2.621	n/a	n/a	GoodResponse	0	n/a	n/a	10	63	Blank	AvoidedLoss	True
601.727	1.45	Lose2	0.7031000000000001	n/a	Yes	2.621	n/a	5.0	GoodResponse	0	0.006	600.733	10	63	Feedback	AvoidedLoss	True
603.181	2.621	Lose2	0.7031000000000001	n/a	Yes	2.621	n/a	n/a	GoodResponse	0	0.0	n/a	10	63	ISIslide	AvoidedLoss	True
605.822	0.25	Win2	0.7077	0.001	Yes	3.128	0.022	n/a	GoodResponse	1	n/a	n/a	11	64	Cue	Win	True
606.073	4.15	Win2	0.7077	0.0	Yes	3.128	0.001	n/a	GoodResponse	1	n/a	n/a	11	64	Fixation	Win	True
610.219	0.33	Win2	0.7077	0.003	Yes	3.128	-0.003	1.0	GoodResponse	1	0.239	609.458	11	64	Target	Win	True
610.458	0.3	Win2	0.7077	0.003	Yes	3.128	-0.003	1.0	GoodResponse	1	0.239	n/a	11	64	ButtonPress	Win	True
610.553	0.37	Win2	0.7077	n/a	Yes	3.128	n/a	n/a	GoodResponse	1	n/a	n/a	11	64	Blank	Win	True
610.921	1.45	Win2	0.7077	n/a	Yes	3.128	n/a	5.0	GoodResponse	1	0.029	609.95	11	64	Feedback	Win	True
612.375	3.128	Win2	0.7077	n/a	Yes	3.128	n/a	n/a	GoodResponse	1	0.0	n/a	11	64	ISIslide	Win	True
615.518	0.25	Control	0.7121	0.0	Yes	2.782	0.018	n/a	GoodResponse	0	n/a	n/a	11	65	Cue	Neutral	True
615.769	4.0	Control	0.7121	0.0	Yes	2.782	0.001	n/a	GoodResponse	0	n/a	n/a	11	65	Fixation	Neutral	True
619.764	0.32	Control	0.7121	0.004	Yes	2.782	-0.004	1.0	GoodResponse	0	0.242	619.006	11	65	Target	Neutral	True
620.006	0.3	Control	0.7121	0.004	Yes	2.782	-0.004	1.0	GoodResponse	0	0.242	n/a	11	65	ButtonPress	Neutral	True
620.099	0.38	Control	0.7121	n/a	Yes	2.782	n/a	n/a	GoodResponse	0	n/a	n/a	11	65	Blank	Neutral	True
620.466	1.45	Control	0.7121	n/a	Yes	2.782	n/a	5.0	GoodResponse	0	0.045	619.511	11	65	Feedback	Neutral	True
621.921	2.782	Control	0.7121	n/a	Yes	2.782	n/a	n/a	GoodResponse	0	0.0	n/a	11	65	ISIslide	Neutral	True
624.729	0.25	Win2	0.7015	0.0	No	2.771	0.029	n/a	NoResponse	0	n/a	n/a	11	66	Cue	MissedWin	True
624.98	3.9	Win2	0.7015	0.0	No	2.771	0.001	n/a	NoResponse	0	n/a	n/a	11	66	Fixation	MissedWin	True
628.875	0.31	Win2	0.7015	0.004	No	2.771	-0.004	1.0	NoResponse	0	0.323	628.198	11	66	Target	MissedWin	True
629.192	0.39	Win2	0.7015	n/a	No	2.771	n/a	n/a	NoResponse	0	n/a	n/a	11	66	Blank	MissedWin	True
629.198	0.3	Win2	0.7015	0.004	No	2.771	-0.004	1.0	NoResponse	0	0.323	n/a	11	66	ButtonPress	MissedWin	True
629.577	1.45	Win2	0.7015	n/a	No	2.771	n/a	5.0	NoResponse	0	0.007	628.584	11	66	Feedback	MissedWin	True
631.031	2.771	Win2	0.7015	n/a	No	2.771	n/a	n/a	NoResponse	0	0.0	n/a	11	66	ISIslide	MissedWin	True
633.823	0.25	Control	0.7059000000000001	0.0	Yes	2.727	0.023	n/a	GoodResponse	0	n/a	n/a	11	67	Cue	Neutral	True
634.074	3.95	Control	0.7059000000000001	0.0	Yes	2.727	0.001	n/a	GoodResponse	0	n/a	n/a	11	67	Fixation	Neutral	True
638.019	0.3	Control	0.7059000000000001	0.004	Yes	2.727	-0.004	1.0	GoodResponse	0	0.25	637.269	11	67	Target	Neutral	True
638.269	0.3	Control	0.7059000000000001	0.004	Yes	2.727	-0.004	1.0	GoodResponse	0	0.25	n/a	11	67	ButtonPress	Neutral	True
638.32	0.4	Control	0.7059000000000001	n/a	Yes	2.727	n/a	n/a	GoodResponse	0	n/a	n/a	11	67	Blank	Neutral	True
638.721	1.45	Control	0.7059000000000001	n/a	Yes	2.727	n/a	5.0	GoodResponse	0	0.034	637.755	11	67	Feedback	Neutral	True
640.175	2.727	Control	0.7059000000000001	n/a	Yes	2.727	n/a	n/a	GoodResponse	0	0.0	n/a	11	67	ISIslide	Neutral	True
642.917	0.25	Win2	0.7101000000000001	0.0	Yes	3.083	0.017	n/a	GoodResponse	1	n/a	n/a	12	68	Cue	Win	True
643.168	4.0	Win2	0.7101000000000001	0.0	Yes	3.083	0.001	n/a	GoodResponse	1	n/a	n/a	12	68	Fixation	Win	True
647.163	0.29	Win2	0.7101000000000001	0.004	Yes	3.083	-0.004	1.0	GoodResponse	1	0.198	646.361	12	68	Target	Win	True
647.361	0.3	Win2	0.7101000000000001	0.004	Yes	3.083	-0.004	1.0	GoodResponse	1	0.198	n/a	12	68	ButtonPress	Win	True
647.464	0.41	Win2	0.7101000000000001	n/a	Yes	3.083	n/a	n/a	GoodResponse	1	n/a	n/a	12	68	Blank	Win	True
647.865	1.45	Win2	0.7101000000000001	n/a	Yes	3.083	n/a	5.0	GoodResponse	1	0.011	646.876	12	68	Feedback	Win	True
649.319	3.083	Win2	0.7101000000000001	n/a	Yes	3.083	n/a	n/a	GoodResponse	1	0.0	n/a	12	68	ISIslide	Win	True
652.429	0.25	Win2	0.7	0.0	No	3.221	0.029	n/a	NoResponse	0	n/a	n/a	12	69	Cue	MissedWin	False
652.679	3.95	Win2	0.7	0.001	No	3.221	0.0	n/a	NoResponse	0	n/a	n/a	12	69	Fixation	MissedWin	False
656.625	0.28	Win2	0.7	0.004	No	3.221	-0.004	n/a	NoResponse	0	n/a	n/a	12	69	Target	MissedWin	False
656.909	0.42	Win2	0.7	n/a	No	3.221	n/a	n/a	NoResponse	0	n/a	n/a	12	69	Blank	MissedWin	False
657.327	1.45	Win2	0.7	n/a	No	3.221	n/a	5.0	NoResponse	0	0.013	656.34	12	69	Feedback	MissedWin	False
658.781	3.221	Win2	0.7	n/a	No	3.221	n/a	n/a	NoResponse	0	0.0	n/a	12	69	ISIslide	MissedWin	False
662.024	0.25	Lose2	0.7042	0.0	Yes	3.026	0.024	n/a	GoodResponse	0	n/a	n/a	12	70	Cue	AvoidedLoss	True
662.275	4.05	Lose2	0.7042	0.0	Yes	3.026	0.001	n/a	GoodResponse	0	n/a	n/a	12	70	Fixation	AvoidedLoss	True
666.32	0.27	Lose2	0.7042	0.004	Yes	3.026	-0.004	1.0	GoodResponse	0	0.22	665.54	12	70	Target	AvoidedLoss	True
666.54	0.3	Lose2	0.7042	0.004	Yes	3.026	-0.004	1.0	GoodResponse	0	0.22	n/a	12	70	ButtonPress	AvoidedLoss	True
666.604	0.43	Lose2	0.7042	n/a	Yes	3.026	n/a	n/a	GoodResponse	0	n/a	n/a	12	70	Blank	AvoidedLoss	True
667.022	1.45	Lose2	0.7042	n/a	Yes	3.026	n/a	5.0	GoodResponse	0	0.025	666.047	12	70	Feedback	AvoidedLoss	True
668.477	3.026	Lose2	0.7042	n/a	Yes	3.026	n/a	n/a	GoodResponse	0	0.0	n/a	12	70	ISIslide	AvoidedLoss	True
671.519	0.25	Win2	0.7082999999999999	0.0	Yes	2.731	0.019	n/a	GoodResponse	1	n/a	n/a	13	71	Cue	Win	True
671.77	4.05	Win2	0.7082999999999999	0.0	Yes	2.731	0.001	n/a	GoodResponse	1	n/a	n/a	13	71	Fixation	Win	True
675.815	0.26	Win2	0.7082999999999999	0.004	Yes	2.731	-0.004	1.0	GoodResponse	1	0.221	675.036	13	71	Target	Win	True
676.036	0.3	Win2	0.7082999999999999	0.004	Yes	2.731	-0.004	1.0	GoodResponse	1	0.221	n/a	13	71	ButtonPress	Win	True
676.083	0.44	Win2	0.7082999999999999	n/a	Yes	2.731	n/a	n/a	GoodResponse	1	n/a	n/a	13	71	Blank	Win	True
676.517	1.45	Win2	0.7082999999999999	n/a	Yes	2.731	n/a	5.0	GoodResponse	1	0.043	675.56	13	71	Feedback	Win	True
677.972	2.731	Win2	0.7082999999999999	n/a	Yes	2.731	n/a	n/a	GoodResponse	1	0.0	n/a	13	71	ISIslide	Win	True
680.73	0.25	Win2	0.7123	0.0	Yes	2.77	0.03	n/a	GoodResponse	1	n/a	n/a	14	72	Cue	Win	True
680.981	4.1	Win2	0.7123	0.0	Yes	2.77	0.001	n/a	GoodResponse	1	n/a	n/a	14	72	Fixation	Win	True
685.076	0.25	Win2	0.7123	0.004	Yes	2.77	-0.004	1.0	GoodResponse	1	0.232	684.308	14	72	Target	Win	True
685.308	0.3	Win2	0.7123	0.004	Yes	2.77	-0.004	1.0	GoodResponse	1	0.232	n/a	14	72	ButtonPress	Win	True
685.327	0.45	Win2	0.7123	n/a	Yes	2.77	n/a	n/a	GoodResponse	1	n/a	n/a	14	72	Blank	Win	True
685.778	1.45	Win2	0.7123	n/a	Yes	2.77	n/a	5.0	GoodResponse	1	0.001	684.779	14	72	Feedback	Win	True
687.233	2.77	Win2	0.7123	n/a	Yes	2.77	n/a	n/a	GoodResponse	1	0.0	n/a	14	72	ISIslide	Win	True
690.025	0.25	Win2	0.7162000000000001	0.0	Yes	2.675	0.025	n/a	GoodResponse	1	n/a	n/a	15	73	Cue	Win	True
690.275	4.0	Win2	0.7162000000000001	0.0	Yes	2.675	0.0	n/a	GoodResponse	1	n/a	n/a	15	73	Fixation	Win	True
694.271	0.24	Win2	0.7162000000000001	0.004	Yes	2.675	-0.004	1.0	GoodResponse	1	0.235	693.506	15	73	Target	Win	True
694.506	0.3	Win2	0.7162000000000001	0.004	Yes	2.675	-0.004	1.0	GoodResponse	1	0.235	n/a	15	73	ButtonPress	Win	True
694.521	0.46	Win2	0.7162000000000001	n/a	Yes	2.675	n/a	n/a	GoodResponse	1	n/a	n/a	15	73	Blank	Win	True
694.973	1.45	Win2	0.7162000000000001	n/a	Yes	2.675	n/a	5.0	GoodResponse	1	0.026	693.999	15	73	Feedback	Win	True
696.427	2.675	Win2	0.7162000000000001	n/a	Yes	2.675	n/a	n/a	GoodResponse	1	0.0	n/a	15	73	ISIslide	Win	True
699.118	0.25	Lose2	0.7067	0.001	No	2.632	0.018	n/a	NoResponse	-1	n/a	n/a	14	74	Cue	Loss	True
699.369	4.05	Lose2	0.7067	0.0	No	2.632	0.001	n/a	NoResponse	-1	n/a	n/a	14	74	Fixation	Loss	True
703.415	0.23	Lose2	0.7067	0.003	No	2.632	-0.003	1.0	NoResponse	-1	0.263	702.678	14	74	Target	Loss	True
703.649	0.47	Lose2	0.7067	n/a	No	2.632	n/a	n/a	NoResponse	-1	n/a	n/a	14	74	Blank	Loss	True
703.678	0.3	Lose2	0.7067	0.003	No	2.632	-0.003	1.0	NoResponse	-1	0.263	n/a	14	74	ButtonPress	Loss	True
704.117	1.45	Lose2	0.7067	n/a	No	2.632	n/a	5.0	NoResponse	-1	0.004	703.121	14	74	Feedback	Loss	True
705.571	2.632	Lose2	0.7067	n/a	No	2.632	n/a	n/a	NoResponse	-1	0.0	n/a	14	74	ISIslide	Loss	True
708.229	0.25	Lose2	0.6973999999999999	0.0	No	2.921	0.029	n/a	NoResponse	-1	n/a	n/a	13	75	Cue	Loss	True
708.48	3.95	Lose2	0.6973999999999999	0.0	No	2.921	0.001	n/a	NoResponse	-1	n/a	n/a	13	75	Fixation	Loss	True
712.425	0.22	Lose2	0.6973999999999999	0.004	No	2.921	-0.004	1.0	NoResponse	-1	0.277	711.702	13	75	Target	Loss	True
712.659	0.48	Lose2	0.6973999999999999	n/a	No	2.921	n/a	n/a	NoResponse	-1	n/a	n/a	13	75	Blank	Loss	True
712.702	0.3	Lose2	0.6973999999999999	0.004	No	2.921	-0.004	1.0	NoResponse	-1	0.277	n/a	13	75	ButtonPress	Loss	True
713.127	1.45	Lose2	0.6973999999999999	n/a	No	2.921	n/a	5.0	NoResponse	-1	0.017	712.144	13	75	Feedback	Loss	True
714.581	2.921	Lose2	0.6973999999999999	n/a	No	2.921	n/a	n/a	NoResponse	-1	0.0	n/a	13	75	ISIslide	Loss	True
717.523	0.25	Control	0.6883	0.001	No	3.227	0.023	n/a	NoResponse	0	n/a	n/a	13	76	Cue	Neutral	True
717.774	4.05	Control	0.6883	0.0	No	3.227	0.001	n/a	NoResponse	0	n/a	n/a	13	76	Fixation	Neutral	True
721.82	0.21	Control	0.6883	0.003	No	3.227	-0.003	1.0	NoResponse	0	0.41	721.23	13	76	Target	Neutral	True
722.037	0.49	Control	0.6883	n/a	No	3.227	n/a	n/a	NoResponse	0	n/a	n/a	13	76	Blank	Neutral	True
722.23	0.3	Control	0.6883	0.003	No	3.227	-0.003	1.0	NoResponse	0	0.41	n/a	13	76	ButtonPress	Neutral	True
722.522	1.45	Control	0.6883	n/a	No	3.227	n/a	5.0	NoResponse	0	0.037	721.559	13	76	Feedback	Neutral	True
723.976	3.227	Control	0.6883	n/a	No	3.227	n/a	n/a	NoResponse	0	0.0	n/a	13	76	ISIslide	Neutral	True
727.219	0.25	Lose2	0.6795	0.0	No	2.581	0.019	n/a	NoResponse	-1	n/a	n/a	12	77	Cue	Loss	True
727.47	3.95	Lose2	0.6795	0.0	No	2.581	0.001	n/a	NoResponse	-1	n/a	n/a	12	77	Fixation	Loss	True
731.415	0.2	Lose2	0.6795	0.004	No	2.581	-0.004	1.0	NoResponse	-1	0.21	730.625	12	77	Target	Loss	True
731.616	0.5	Lose2	0.6795	n/a	No	2.581	n/a	n/a	NoResponse	-1	n/a	n/a	12	77	Blank	Loss	True
731.625	0.3	Lose2	0.6795	0.004	No	2.581	-0.004	1.0	NoResponse	-1	0.21	n/a	12	77	ButtonPress	Loss	True
732.117	1.45	Lose2	0.6795	n/a	No	2.581	n/a	5.0	NoResponse	-1	0.005	731.122	12	77	Feedback	Loss	True
733.572	2.581	Lose2	0.6795	n/a	No	2.581	n/a	n/a	NoResponse	-1	0.0	n/a	12	77	ISIslide	Loss	True
