onset	duration	cue_type	current_mean_accuracy	duration_error	is_hit	isi_adjusted	onset_delay	response	response_type	reward	rt	rt_time	total_reward	trial_number	trial_phase	trial_type	one_press
11.101	0.25	Control	1.0	0.0	Yes	2.949	0.001	n/a	GoodResponse	0	n/a	n/a	0	0	Cue	Neutral	True
11.351	3.85	Control	1.0	0.0	Yes	2.949	0.0	n/a	GoodResponse	0	n/a	n/a	0	0	Fixation	Neutral	True
15.213	0.4	Control	1.0	0.0	Yes	2.949	0.012	4.0	GoodResponse	0	0.201	14.414	0	0	Target	Neutral	True
15.414	0.3	Control	1.0	0.0	Yes	2.949	0.012	4.0	GoodResponse	0	0.201	n/a	0	0	ButtonPress	Neutral	True
15.597	0.3	Control	1.0	n/a	Yes	2.949	n/a	n/a	GoodResponse	0	n/a	n/a	0	0	Blank	Neutral	True
15.898	1.45	Control	1.0	n/a	Yes	2.949	n/a	5.0	GoodResponse	0	0.028	14.926	0	0	Feedback	Neutral	True
17.353	2.949	Control	1.0	n/a	Yes	2.949	n/a	n/a	GoodResponse	0	0.0	n/a	0	0	ISIslide	Neutral	True
20.328	0.25	Lose2	1.0	0.0	Yes	2.772	0.028	n/a	GoodResponse	0	n/a	n/a	0	1	Cue	AvoidedLoss	True
20.579	4.0	Lose2	1.0	0.0	Yes	2.772	0.001	n/a	GoodResponse	0	n/a	n/a	0	1	Fixation	AvoidedLoss	True
24.574	0.39	Lose2	1.0	0.004	Yes	2.772	-0.004	4.0	GoodResponse	0	0.191	23.765	0	1	Target	AvoidedLoss	True
24.765	0.3	Lose2	1.0	0.004	Yes	2.772	-0.004	4.0	GoodResponse	0	0.191	n/a	0	1	ButtonPress	AvoidedLoss	True
24.975	0.31	Lose2	1.0	n/a	Yes	2.772	n/a	n/a	GoodResponse	0	n/a	n/a	0	1	Blank	AvoidedLoss	True
25.276	1.45	Lose2	1.0	n/a	Yes	2.772	n/a	5.0	GoodResponse	0	0.016	24.292	0	1	Feedback	AvoidedLoss	True
26.731	2.772	Lose2	1.0	n/a	Yes	2.772	n/a	n/a	GoodResponse	0	0.0	n/a	0	1	ISIslide	AvoidedLoss	True
29.522	0.25	Control	1.0	0.0	Yes	2.578	0.022	n/a	GoodResponse	0	n/a	n/a	0	2	Cue	Neutral	False
29.773	4.1	Control	1.0	0.0	Yes	2.578	0.001	4.0	GoodResponse	0	3.673	32.446	0	2	Fixation	Neutral	False
33.446	0.3	Control	1.0	0.0	Yes	2.578	0.001	4.0	GoodResponse	0	3.673	n/a	0	2	ButtonPress	Neutral	False
33.869	0.38	Control	1.0	0.003	Yes	2.578	-0.003	4.0	GoodResponse	0	0.227	33.096	0	2	Target	Neutral	False
34.096	0.3	Control	1.0	0.003	Yes	2.578	-0.003	4.0	GoodResponse	0	0.227	n/a	0	2	ButtonPress	Neutral	False
34.253	0.32	Control	1.0	n/a	Yes	2.578	n/a	n/a	GoodResponse	0	n/a	n/a	0	2	Blank	Neutral	False
34.571	1.45	Control	1.0	n/a	Yes	2.578	n/a	5.0	GoodResponse	0	0.038	33.609	0	2	Feedback	Neutral	False
36.025	2.578	Control	1.0	n/a	Yes	2.578	n/a	n/a	GoodResponse	0	0.0	n/a	0	2	ISIslide	Neutral	False
38.616	0.25	Win2	1.0	0.0	Yes	2.834	0.016	n/a	GoodResponse	1	n/a	n/a	1	3	Cue	Win	True
38.867	3.95	Win2	1.0	0.0	Yes	2.834	0.001	n/a	GoodResponse	1	n/a	n/a	1	3	Fixation	Win	True
42.812	0.37	Win2	1.0	0.004	Yes	2.834	-0.004	4.0	GoodResponse	1	0.171	41.983	1	3	Target	Win	True
42.983	0.3	Win2	1.0	0.004	Yes	2.834	-0.004	4.0	GoodResponse	1	0.171	n/a	1	3	ButtonPress	Win	True
43.196	0.33	Win2	1.0	n/a	Yes	2.834	n/a	n/a	GoodResponse	1	n/a	n/a	1	3	Blank	Win	True
43.514	1.45	Win2	1.0	n/a	Yes	2.834	n/a	5.0	GoodResponse	1	0.022	42.536	1	3	Feedback	Win	True
44.968	2.834	Win2	1.0	n/a	Yes	2.834	n/a	n/a	GoodResponse	1	0.0	n/a	1	3	ISIslide	Win	True
47.827	0.25	Win2	1.0	0.0	Yes	3.273	0.027	n/a	GoodResponse	1	n/a	n/a	2	4	Cue	Win	False
48.078	4.0	Win2	1.0	0.0	Yes	3.273	0.001	4.0	GoodResponse	1	3.779	50.857	2	4	Fixation	Win	False
51.857	0.3	Win2	1.0	0.0	Yes	3.273	0.001	4.0	GoodResponse	1	3.779	n/a	2	4	ButtonPress	Win	False
52.073	0.36	Win2	1.0	0.004	Yes	3.273	-0.004	4.0	GoodResponse	1	0.11	51.183	2	4	Target	Win	False
52.183	0.3	Win2	1.0	0.004	Yes	3.273	-0.004	4.0	GoodResponse	1	0.11	n/a	2	4	ButtonPress	Win	False
52.441	0.34	Win2	1.0	n/a	Yes	3.273	n/a	n/a	GoodResponse	1	n/a	n/a	2	4	Blank	Win	False
52.775	1.45	Win2	1.0	n/a	Yes	3.273	n/a	5.0	GoodResponse	1	0.029	51.804	2	4	Feedback	Win	False
54.229	3.273	Win2	1.0	n/a	Yes	3.273	n/a	n/a	GoodResponse	1	0.0	n/a	2	4	ISIslide	Win	False
57.523	0.25	Win2	1.0	0.0	Yes	2.777	0.023	n/a	GoodResponse	1	n/a	n/a	3	5	Cue	Win	True
57.773	4.0	Win2	1.0	0.0	Yes	2.777	0.0	n/a	GoodResponse	1	n/a	n/a	3	5	Fixation	Win	True
61.769	0.35	Win2	1.0	0.004	Yes	2.777	-0.004	4.0	GoodResponse	1	0.183	60.952	3	5	Target	Win	True
61.952	0.3	Win2	1.0	0.004	Yes	2.777	-0.004	4.0	GoodResponse	1	0.183	n/a	3	5	ButtonPress	Win	True
62.12	0.35	Win2	1.0	n/a	Yes	2.777	n/a	n/a	GoodResponse	1	n/a	n/a	3	5	Blank	Win	True
62.471	1.45	Win2	1.0	n/a	Yes	2.777	n/a	5.0	GoodResponse	1	0.04	61.511	3	5	Feedback	Win	True
63.925	2.777	Win2	1.0	n/a	Yes	2.777	n/a	n/a	GoodResponse	1	0.0	n/a	3	5	ISIslide	Win	True
66.717	0.25	Lose2	1.0	0.0	Yes	2.733	0.017	n/a	GoodResponse	0	n/a	n/a	3	6	Cue	AvoidedLoss	True
66.967	3.95	Lose2	1.0	0.0	Yes	2.733	0.0	n/a	GoodResponse	0	n/a	n/a	3	6	Fixation	AvoidedLoss	True
70.913	0.34	Lose2	1.0	0.004	Yes	2.733	-0.004	4.0	GoodResponse	0	0.18	70.093	3	6	Target	AvoidedLoss	True
71.093	0.3	Lose2	1.0	0.004	Yes	2.733	-0.004	4.0	GoodResponse	0	0.18	n/a	3	6	ButtonPress	AvoidedLoss	True
71.264	0.36	Lose2	1.0	n/a	Yes	2.733	n/a	n/a	GoodResponse	0	n/a	n/a	3	6	Blank	AvoidedLoss	True
71.615	1.45	Lose2	1.0	n/a	Yes	2.733	n/a	5.0	GoodResponse	0	0.018	70.633	3	6	Feedback	AvoidedLoss	True
73.069	2.733	Lose2	1.0	n/a	Yes	2.733	n/a	n/a	GoodResponse	0	0.0	n/a	3	6	ISIslide	AvoidedLoss	True
75.827	0.25	Lose2	1.0	0.0	Yes	4.023	0.027	n/a	GoodResponse	0	n/a	n/a	3	7	Cue	AvoidedLoss	True
76.078	4.05	Lose2	1.0	0.0	Yes	4.023	0.001	n/a	GoodResponse	0	n/a	n/a	3	7	Fixation	AvoidedLoss	True
80.123	0.33	Lose2	1.0	0.004	Yes	4.023	-0.004	4.0	GoodResponse	0	0.188	79.311	3	7	Target	AvoidedLoss	True
80.311	0.3	Lose2	1.0	0.004	Yes	4.023	-0.004	4.0	GoodResponse	0	0.188	n/a	3	7	ButtonPress	AvoidedLoss	True
80.458	0.37	Lose2	1.0	n/a	Yes	4.023	n/a	n/a	GoodResponse	0	n/a	n/a	3	7	Blank	AvoidedLoss	True
80.825	1.45	Lose2	1.0	n/a	Yes	4.023	n/a	5.0	GoodResponse	0	0.028	79.853	3	7	Feedback	AvoidedLoss	True
82.28	4.023	Lose2	1.0	n/a	Yes	4.023	n/a	n/a	GoodResponse	0	0.0	n/a	3	7	ISIslide	AvoidedLoss	True
86.325	0.25	Lose2	1.0	0.0	Yes	3.025	0.025	n/a	GoodResponse	0	n/a	n/a	3	8	Cue	AvoidedLoss	True
86.576	3.95	Lose2	1.0	0.0	Yes	3.025	0.001	n/a	GoodResponse	0	n/a	n/a	3	8	Fixation	AvoidedLoss	True
90.521	0.32	Lose2	1.0	0.004	Yes	3.025	-0.004	4.0	GoodResponse	0	0.203	89.724	3	8	Target	AvoidedLoss	True
90.724	0.3	Lose2	1.0	0.004	Yes	3.025	-0.004	4.0	GoodResponse	0	0.203	n/a	3	8	ButtonPress	AvoidedLoss	True
90.855	0.38	Lose2	1.0	n/a	Yes	3.025	n/a	n/a	GoodResponse	0	n/a	n/a	3	8	Blank	AvoidedLoss	True
91.223	1.45	Lose2	1.0	n/a	Yes	3.025	n/a	5.0	GoodResponse	0	0.019	90.242	3	8	Feedback	AvoidedLoss	True
92.678	3.025	Lose2	1.0	n/a	Yes	3.025	n/a	n/a	GoodResponse	0	0.0	n/a	3	8	ISIslide	AvoidedLoss	True
95.72	0.25	Lose2	1.0	0.0	Yes	3.13	0.02	n/a	GoodResponse	0	n/a	n/a	3	9	Cue	AvoidedLoss	True
95.971	3.95	Lose2	1.0	0.0	Yes	3.13	0.001	n/a	GoodResponse	0	n/a	n/a	3	9	Fixation	AvoidedLoss	True
99.916	0.31	Lose2	1.0	0.004	Yes	3.13	-0.004	4.0	GoodResponse	0	0.185	99.101	3	9	Target	AvoidedLoss	True
100.101	0.3	Lose2	1.0	0.004	Yes	3.13	-0.004	4.0	GoodResponse	0	0.185	n/a	3	9	ButtonPress	AvoidedLoss	True
100.233	0.39	Lose2	1.0	n/a	Yes	3.13	n/a	n/a	GoodResponse	0	n/a	n/a	3	9	Blank	AvoidedLoss	True
100.618	1.45	Lose2	1.0	n/a	Yes	3.13	n/a	5.0	GoodResponse	0	0.039	99.657	3	9	Feedback	AvoidedLoss	True
102.072	3.13	Lose2	1.0	n/a	Yes	3.13	n/a	n/a	GoodResponse	0	0.0	n/a	3	9	ISIslide	AvoidedLoss	True
105.215	0.25	Control	1.0	0.0	Yes	3.285	0.015	n/a	GoodResponse	0	n/a	n/a	3	10	Cue	Neutral	False
105.466	4.0	Control	1.0	0.0	Yes	3.285	0.001	4.0	GoodResponse	0	3.932	108.398	3	10	Fixation	Neutral	False
109.398	0.3	Control	1.0	0.0	Yes	3.285	0.001	4.0	GoodResponse	0	3.932	n/a	3	10	ButtonPress	Neutral	False
109.461	0.3	Control	1.0	0.004	Yes	3.285	-0.004	4.0	GoodResponse	0	0.217	108.678	3	10	Target	Neutral	False
109.678	0.3	Control	1.0	0.004	Yes	3.285	-0.004	4.0	GoodResponse	0	0.217	n/a	3	10	ButtonPress	Neutral	False
109.762	0.4	Control	1.0	n/a	Yes	3.285	n/a	n/a	GoodResponse	0	n/a	n/a	3	10	Blank	Neutral	False
110.163	1.45	Control	1.0	n/a	Yes	3.285	n/a	5.0	GoodResponse	0	0.006	109.169	3	10	Feedback	Neutral	False
111.617	3.285	Control	1.0	n/a	Yes	3.285	n/a	n/a	GoodResponse	0	0.0	n/a	3	10	ISIslide	Neutral	False
114.927	0.25	Lose2	1.0	0.0	Yes	2.723	0.027	n/a	GoodResponse	0	n/a	n/a	3	11	Cue	AvoidedLoss	True
115.178	4.05	Lose2	1.0	0.0	Yes	2.723	0.001	n/a	GoodResponse	0	n/a	n/a	3	11	Fixation	AvoidedLoss	True
119.224	0.29	Lose2	1.0	0.003	Yes	2.723	-0.003	4.0	GoodResponse	0	0.174	118.398	3	11	Target	AvoidedLoss	True
119.398	0.3	Lose2	1.0	0.003	Yes	2.723	-0.003	4.0	GoodResponse	0	0.174	n/a	3	11	ButtonPress	AvoidedLoss	True
119.524	0.41	Lose2	1.0	n/a	Yes	2.723	n/a	n/a	GoodResponse	0	n/a	n/a	3	11	Blank	AvoidedLoss	True
119.926	1.45	Lose2	1.0	n/a	Yes	2.723	n/a	5.0	GoodResponse	0	0.048	118.974	3	11	Feedback	AvoidedLoss	True
121.38	2.723	Lose2	1.0	n/a	Yes	2.723	n/a	n/a	GoodResponse	0	0.0	n/a	3	11	ISIslide	AvoidedLoss	True
124.121	0.25	Control	1.0	0.001	Yes	2.979	0.021	n/a	GoodResponse	0	n/a	n/a	3	12	Cue	Neutral	True
124.372	3.9	Control	1.0	0.0	Yes	2.979	0.001	n/a	GoodResponse	0	n/a	n/a	3	12	Fixation	Neutral	True
128.267	0.28	Control	1.0	0.004	Yes	2.979	-0.004	4.0	GoodResponse	0	0.18	127.447	3	12	Target	Neutral	True
128.447	0.3	Control	1.0	0.004	Yes	2.979	-0.004	4.0	GoodResponse	0	0.18	n/a	3	12	ButtonPress	Neutral	True
128.551	0.42	Control	1.0	n/a	Yes	2.979	n/a	n/a	GoodResponse	0	n/a	n/a	3	12	Blank	Neutral	True
128.969	1.45	Control	1.0	n/a	Yes	2.979	n/a	5.0	GoodResponse	0	0.029	127.998	3	12	Feedback	Neutral	True
130.424	2.979	Control	1.0	n/a	Yes	2.979	n/a	n/a	GoodResponse	0	0.0	n/a	3	12	ISIslide	Neutral	True
133.416	0.25	Control	1.0	0.0	Yes	2.784	0.016	n/a	GoodResponse	0	n/a	n/a	3	13	Cue	Neutral	True
133.667	4.0	Control	1.0	0.0	Yes	2.784	0.001	n/a	GoodResponse	0	n/a	n/a	3	13	Fixation	Neutral	True
137.662	0.27	Control	1.0	0.004	Yes	2.784	-0.004	4.0	GoodResponse	0	0.177	136.839	3	13	Target	Neutral	True
137.839	0.3	Control	1.0	0.004	Yes	2.784	-0.004	4.0	GoodResponse	0	0.177	n/a	3	13	ButtonPress	Neutral	True
137.946	0.43	Control	1.0	n/a	Yes	2.784	n/a	n/a	GoodResponse	0	n/a	n/a	3	13	Blank	Neutral	True
138.364	1.45	Control	1.0	n/a	Yes	2.784	n/a	5.0	GoodResponse	0	0.048	137.412	3	13	Feedback	Neutral	True
139.818	2.784	Control	1.0	n/a	Yes	2.784	n/a	n/a	GoodResponse	0	0.0	n/a	3	13	ISIslide	Neutral	True
142.627	0.25	Win2	1.0	0.0	Yes	2.673	0.027	n/a	GoodResponse	1	n/a	n/a	4	14	Cue	Win	True
142.877	4.1	Win2	1.0	0.001	Yes	2.673	0.0	n/a	GoodResponse	1	n/a	n/a	4	14	Fixation	Win	True
146.973	0.26	Win2	1.0	0.004	Yes	2.673	-0.004	4.0	GoodResponse	1	0.172	146.145	4	14	Target	Win	True
147.145	0.3	Win2	1.0	0.004	Yes	2.673	-0.004	4.0	GoodResponse	1	0.172	n/a	4	14	ButtonPress	Win	True
147.24	0.44	Win2	1.0	n/a	Yes	2.673	n/a	n/a	GoodResponse	1	n/a	n/a	4	14	Blank	Win	True
147.675	1.45	Win2	1.0	n/a	Yes	2.673	n/a	5.0	GoodResponse	1	0.006	146.681	4	14	Feedback	Win	True
149.129	2.673	Win2	1.0	n/a	Yes	2.673	n/a	n/a	GoodResponse	1	0.0	n/a	4	14	ISIslide	Win	True
151.821	0.25	Control	1.0	0.0	Yes	2.979	0.021	n/a	GoodResponse	0	n/a	n/a	4	15	Cue	Neutral	True
152.072	4.0	Control	1.0	0.0	Yes	2.979	0.001	n/a	GoodResponse	0	n/a	n/a	4	15	Fixation	Neutral	True
156.067	0.25	Control	1.0	0.004	Yes	2.979	-0.004	4.0	GoodResponse	0	0.194	155.261	4	15	Target	Neutral	True
156.261	0.3	Control	1.0	0.004	Yes	2.979	-0.004	4.0	GoodResponse	0	0.194	n/a	4	15	ButtonPress	Neutral	True
156.318	0.45	Control	1.0	n/a	Yes	2.979	n/a	n/a	GoodResponse	0	n/a	n/a	4	15	Blank	Neutral	True
156.769	1.45	Control	1.0	n/a	Yes	2.979	n/a	5.0	GoodResponse	0	0.034	155.803	4	15	Feedback	Neutral	True
158.223	2.979	Control	1.0	n/a	Yes	2.979	n/a	n/a	GoodResponse	0	0.0	n/a	4	15	ISIslide	Neutral	True
161.216	0.25	Win2	1.0	0.0	Yes	2.884	0.016	n/a	GoodResponse	1	n/a	n/a	5	16	Cue	Win	True
161.466	4.0	Win2	1.0	0.0	Yes	2.884	0.0	n/a	GoodResponse	1	n/a	n/a	5	16	Fixation	Win	True
165.462	0.24	Win2	1.0	0.004	Yes	2.884	-0.004	4.0	GoodResponse	1	0.14	164.602	5	16	Target	Win	True
165.602	0.3	Win2	1.0	0.004	Yes	2.884	-0.004	4.0	GoodResponse	1	0.14	n/a	5	16	ButtonPress	Win	True
165.712	0.46	Win2	1.0	n/a	Yes	2.884	n/a	n/a	GoodResponse	1	n/a	n/a	5	16	Blank	Win	True
166.164	1.45	Win2	1.0	n/a	Yes	2.884	n/a	5.0	GoodResponse	1	0.004	165.168	5	16	Feedback	Win	True
167.618	2.884	Win2	1.0	n/a	Yes	2.884	n/a	n/a	GoodResponse	1	0.0	n/a	5	16	ISIslide	Win	True
170.527	0.25	Lose2	1.0	0.0	Yes	2.723	0.027	n/a	GoodResponse	0	n/a	n/a	5	17	Cue	AvoidedLoss	False
170.777	3.95	Lose2	1.0	0.001	Yes	2.723	0.0	4.0	GoodResponse	0	3.504	173.281	5	17	Fixation	AvoidedLoss	False
174.281	0.3	Lose2	1.0	0.001	Yes	2.723	0.0	4.0	GoodResponse	0	3.504	n/a	5	17	ButtonPress	AvoidedLoss	False
174.723	0.23	Lose2	1.0	0.004	Yes	2.723	-0.004	4.0	GoodResponse	0	0.2	173.923	5	17	Target	AvoidedLoss	False
174.923	0.3	Lose2	1.0	0.004	Yes	2.723	-0.004	4.0	GoodResponse	0	0.2	n/a	5	17	ButtonPress	AvoidedLoss	False
174.957	0.47	Lose2	1.0	n/a	Yes	2.723	n/a	n/a	GoodResponse	0	n/a	n/a	5	17	Blank	AvoidedLoss	False
175.425	1.45	Lose2	1.0	n/a	Yes	2.723	n/a	5.0	GoodResponse	0	0.011	174.436	5	17	Feedback	AvoidedLoss	False
176.879	2.723	Lose2	1.0	n/a	Yes	2.723	n/a	n/a	GoodResponse	0	0.0	n/a	5	17	ISIslide	AvoidedLoss	False
179.621	0.25	Lose2	1.0	0.0	Yes	2.729	0.021	n/a	GoodResponse	0	n/a	n/a	5	18	Cue	AvoidedLoss	True
179.871	4.05	Lose2	1.0	0.0	Yes	2.729	0.0	n/a	GoodResponse	0	n/a	n/a	5	18	Fixation	AvoidedLoss	True
183.917	0.22	Lose2	1.0	0.004	Yes	2.729	-0.004	4.0	GoodResponse	0	0.182	183.099	5	18	Target	AvoidedLoss	True
184.099	0.3	Lose2	1.0	0.004	Yes	2.729	-0.004	4.0	GoodResponse	0	0.182	n/a	5	18	ButtonPress	AvoidedLoss	True
184.151	0.48	Lose2	1.0	n/a	Yes	2.729	n/a	n/a	GoodResponse	0	n/a	n/a	5	18	Blank	AvoidedLoss	True
184.619	1.45	Lose2	1.0	n/a	Yes	2.729	n/a	5.0	GoodResponse	0	0.037	183.656	5	18	Feedback	AvoidedLoss	True
186.073	2.729	Lose2	1.0	n/a	Yes	2.729	n/a	n/a	GoodResponse	0	0.0	n/a	5	18	ISIslide	AvoidedLoss	True
188.815	0.25	Control	0.95	0.0	No	2.935	0.015	n/a	NoResponse	0	n/a	n/a	5	19	Cue	Neutral	True
189.065	3.95	Control	0.95	0.0	No	2.935	0.0	n/a	NoResponse	0	n/a	n/a	5	19	Fixation	Neutral	True
193.011	0.21	Control	0.95	0.004	No	2.935	-0.004	4.0	NoResponse	0	0.231	192.242	5	19	Target	Neutral	True
193.228	0.49	Control	0.95	n/a	No	2.935	n/a	n/a	NoResponse	0	n/a	n/a	5	19	Blank	Neutral	True
193.242	0.3	Control	0.95	0.004	No	2.935	-0.004	4.0	NoResponse	0	0.231	n/a	5	19	ButtonPress	Neutral	True
193.713	1.45	Control	0.95	n/a	No	2.935	n/a	5.0	NoResponse	0	0.016	192.729	5	19	Feedback	Neutral	True
195.167	2.935	Control	0.95	n/a	No	2.935	n/a	n/a	NoResponse	0	0.0	n/a	5	19	ISIslide	Neutral	True
198.126	0.25	Control	0.9048	0.0	No	2.624	0.026	n/a	PrematurePress	0	n/a	n/a	5	20	Cue	Neutral	True
198.377	4.05	Control	0.9048	0.0	No	2.624	0.001	n/a	PrematurePress	0	n/a	n/a	5	20	Fixation	Neutral	True
202.422	0.2	Control	0.9048	0.004	No	2.624	-0.004	4.0	PrematurePress	0	0.043	201.465	5	20	Target	Neutral	True
202.465	0.3	Control	0.9048	0.004	No	2.624	-0.004	4.0	PrematurePress	0	0.043	n/a	5	20	ButtonPress	Neutral	True
202.623	0.5	Control	0.9048	n/a	No	2.624	n/a	n/a	PrematurePress	0	n/a	n/a	5	20	Blank	Neutral	True
203.124	1.45	Control	0.9048	n/a	No	2.624	n/a	5.0	PrematurePress	0	0.019	202.143	5	20	Feedback	Neutral	True
204.578	2.624	Control	0.9048	n/a	No	2.624	n/a	n/a	PrematurePress	0	0.0	n/a	5	20	ISIslide	Neutral	True
207.22	0.25	Control	0.9091	0.0	Yes	2.78	0.02	n/a	GoodResponse	0	n/a	n/a	5	21	Cue	Neutral	True
207.47	4.1	Control	0.9091	0.0	Yes	2.78	0.0	n/a	GoodResponse	0	n/a	n/a	5	21	Fixation	Neutral	True
211.566	0.19	Control	0.9091	0.004	Yes	2.78	-0.004	4.0	GoodResponse	0	0.178	210.744	5	21	Target	Neutral	True
211.744	0.3	Control	0.9091	0.004	Yes	2.78	-0.004	4.0	GoodResponse	0	0.178	n/a	5	21	ButtonPress	Neutral	True
211.767	0.51	Control	0.9091	n/a	Yes	2.78	n/a	n/a	GoodResponse	0	n/a	n/a	5	21	Blank	Neutral	True
212.268	1.45	Control	0.9091	n/a	Yes	2.78	n/a	5.0	GoodResponse	0	0.046	211.314	5	21	Feedback	Neutral	True
213.722	2.78	Control	0.9091	n/a	Yes	2.78	n/a	n/a	GoodResponse	0	0.0	n/a	5	21	ISIslide	Neutral	True
216.514	0.25	Control	0.8695999999999999	0.0	No	2.786	0.014	n/a	NoResponse	0	n/a	n/a	5	22	Cue	Neutral	True
216.765	4.0	Control	0.8695999999999999	0.0	No	2.786	0.001	n/a	NoResponse	0	n/a	n/a	5	22	Fixation	Neutral	True
220.76	0.18	Control	0.8695999999999999	0.004	No	2.786	-0.004	4.0	NoResponse	0	0.189	219.949	5	22	Target	Neutral	True
220.944	0.52	Control	0.8695999999999999	n/a	No	2.786	n/a	n/a	NoResponse	0	n/a	n/a	5	22	Blank	Neutral	True
220.949	0.3	Control	0.8695999999999999	0.004	No	2.786	-0.004	4.0	NoResponse	0	0.189	n/a	5	22	ButtonPress	Neutral	True
221.462	1.45	Control	0.8695999999999999	n/a	No	2.786	n/a	5.0	NoResponse	0	0.023	220.485	5	22	Feedback	Neutral	True
222.916	2.786	Control	0.8695999999999999	n/a	No	2.786	n/a	n/a	NoResponse	0	0.0	n/a	5	22	ISIslide	Neutral	True
225.725	0.25	Control	0.8332999999999999	0.0	No	2.775	0.025	n/a	NoResponse	0	n/a	n/a	5	23	Cue	Neutral	False
225.976	3.9	Control	0.8332999999999999	0.0	No	2.775	0.001	4.0	NoResponse	0	3.657	228.633	5	23	Fixation	Neutral	False
229.633	0.3	Control	0.8332999999999999	0.0	No	2.775	0.001	4.0	NoResponse	0	3.657	n/a	5	23	ButtonPress	Neutral	False
229.871	0.17	Control	0.8332999999999999	0.004	No	2.775	-0.004	4.0	NoResponse	0	0.199	229.07	5	23	Target	Neutral	False
230.054	0.53	Control	0.8332999999999999	n/a	No	2.775	n/a	n/a	NoResponse	0	n/a	n/a	5	23	Blank	Neutral	False
230.07	0.3	Control	0.8332999999999999	0.004	No	2.775	-0.004	4.0	NoResponse	0	0.199	n/a	5	23	ButtonPress	Neutral	False
230.573	1.45	Control	0.8332999999999999	n/a	No	2.775	n/a	5.0	NoResponse	0	0.034	229.607	5	23	Feedback	Neutral	False
232.027	2.775	Control	0.8332999999999999	n/a	No	2.775	n/a	n/a	NoResponse	0	0.0	n/a	5	23	ISIslide	Neutral	False
234.819	0.25	Win2	0.8	0.0	No	3.131	0.019	n/a	NoResponse	0	n/a	n/a	5	24	Cue	MissedWin	True
235.069	3.95	Win2	0.8	0.001	No	3.131	0.0	n/a	NoResponse	0	n/a	n/a	5	24	Fixation	MissedWin	True
239.015	0.16	Win2	0.8	0.004	No	3.131	-0.004	4.0	NoResponse	0	0.189	238.204	5	24	Target	MissedWin	True
239.182	0.54	Win2	0.8	n/a	No	3.131	n/a	n/a	NoResponse	0	n/a	n/a	5	24	Blank	MissedWin	True
239.204	0.3	Win2	0.8	0.004	No	3.131	-0.004	4.0	NoResponse	0	0.189	n/a	5	24	ButtonPress	MissedWin	True
239.717	1.45	Win2	0.8	n/a	No	3.131	n/a	5.0	NoResponse	0	0.011	238.728	5	24	Feedback	MissedWin	True
241.171	3.131	Win2	0.8	n/a	No	3.131	n/a	n/a	NoResponse	0	0.0	n/a	5	24	ISIslide	MissedWin	True
244.314	0.25	Win2	0.7692	0.0	No	3.086	0.014	n/a	NoResponse	0	n/a	n/a	5	25	Cue	MissedWin	False
244.564	4.0	Win2	0.7692	0.001	No	3.086	0.0	4.0	NoResponse	0	3.591	247.155	5	25	Fixation	MissedWin	False
248.155	0.3	Win2	0.7692	0.001	No	3.086	0.0	4.0	NoResponse	0	3.591	n/a	5	25	ButtonPress	MissedWin	False
248.56	0.15	Win2	0.7692	0.004	No	3.086	-0.004	4.0	NoResponse	0	0.171	247.731	5	25	Target	MissedWin	False
248.71	0.55	Win2	0.7692	n/a	No	3.086	n/a	n/a	NoResponse	0	n/a	n/a	5	25	Blank	MissedWin	False
248.731	0.3	Win2	0.7692	0.004	No	3.086	-0.004	4.0	NoResponse	0	0.171	n/a	5	25	ButtonPress	MissedWin	False
249.262	1.45	Win2	0.7692	n/a	No	3.086	n/a	5.0	NoResponse	0	0.027	248.289	5	25	Feedback	MissedWin	False
250.716	3.086	Win2	0.7692	n/a	No	3.086	n/a	n/a	NoResponse	0	0.0	n/a	5	25	ISIslide	MissedWin	False
253.825	0.25	Win2	0.7406999999999999	0.001	No	2.925	0.025	n/a	NoResponse	0	n/a	n/a	5	26	Cue	MissedWin	True
254.076	3.95	Win2	0.7406999999999999	0.0	No	2.925	0.001	n/a	NoResponse	0	n/a	n/a	5	26	Fixation	MissedWin	True
258.021	0.15	Win2	0.7406999999999999	0.004	No	2.925	-0.004	4.0	NoResponse	0	0.159	257.18	5	26	Target	MissedWin	True
258.172	0.55	Win2	0.7406999999999999	n/a	No	2.925	n/a	n/a	NoResponse	0	n/a	n/a	5	26	Blank	MissedWin	True
258.18	0.3	Win2	0.7406999999999999	0.004	No	2.925	-0.004	4.0	NoResponse	0	0.159	n/a	5	26	ButtonPress	MissedWin	True
258.723	1.45	Win2	0.7406999999999999	n/a	No	2.925	n/a	5.0	NoResponse	0	0.029	257.752	5	26	Feedback	MissedWin	True
260.178	2.925	Win2	0.7406999999999999	n/a	No	2.925	n/a	n/a	NoResponse	0	0.0	n/a	5	26	ISIslide	MissedWin	True
263.12	0.25	Lose2	0.7143	0.0	No	2.83	0.02	n/a	NoResponse	-1	n/a	n/a	4	27	Cue	Loss	True
263.371	4.05	Lose2	0.7143	0.0	No	2.83	0.001	n/a	NoResponse	-1	n/a	n/a	4	27	Fixation	Loss	True
267.416	0.15	Lose2	0.7143	0.004	No	2.83	-0.004	4.0	NoResponse	-1	0.18	266.596	4	27	Target	Loss	True
267.567	0.55	Lose2	0.7143	n/a	No	2.83	n/a	n/a	NoResponse	-1	n/a	n/a	4	27	Blank	Loss	True
267.596	0.3	Lose2	0.7143	0.004	No	2.83	-0.004	4.0	NoResponse	-1	0.18	n/a	4	27	ButtonPress	Loss	True
268.118	1.45	Lose2	0.7143	n/a	No	2.83	n/a	5.0	NoResponse	-1	0.049	267.167	4	27	Feedback	Loss	True
269.572	2.83	Lose2	0.7143	n/a	No	2.83	n/a	n/a	NoResponse	-1	0.0	n/a	4	27	ISIslide	Loss	True
272.414	0.25	Control	0.6897	0.0	No	2.836	0.014	n/a	NoResponse	0	n/a	n/a	4	28	Cue	Neutral	True
272.665	4.05	Control	0.6897	0.0	No	2.836	0.001	4.0	NoResponse	0	3.966	275.631	4	28	Fixation	Neutral	True
276.631	0.3	Control	0.6897	0.0	No	2.836	0.001	4.0	NoResponse	0	3.966	n/a	4	28	ButtonPress	Neutral	True
276.71	0.15	Control	0.6897	0.004	No	2.836	-0.004	n/a	NoResponse	0	n/a	n/a	4	28	Target	Neutral	True
276.861	0.55	Control	0.6897	n/a	No	2.836	n/a	n/a	NoResponse	0	n/a	n/a	4	28	Blank	Neutral	True
277.413	1.45	Control	0.6897	n/a	No	2.836	n/a	5.0	NoResponse	0	0.022	276.435	4	28	Feedback	Neutral	True
278.867	2.836	Control	0.6897	n/a	No	2.836	n/a	n/a	NoResponse	0	0.0	n/a	4	28	ISIslide	Neutral	True
281.725	0.25	Lose2	0.6667000000000001	0.001	No	2.825	0.025	n/a	NoResponse	-1	n/a	n/a	3	29	Cue	Loss	True
281.976	3.95	Lose2	0.6667000000000001	0.0	No	2.825	0.001	n/a	NoResponse	-1	n/a	n/a	3	29	Fixation	Loss	True
285.921	0.15	Lose2	0.6667000000000001	0.004	No	2.825	-0.004	4.0	NoResponse	-1	0.182	285.103	3	29	Target	Loss	True
286.072	0.55	Lose2	0.6667000000000001	n/a	No	2.825	n/a	n/a	NoResponse	-1	n/a	n/a	3	29	Blank	Loss	True
286.103	0.3	Lose2	0.6667000000000001	0.004	No	2.825	-0.004	4.0	NoResponse	-1	0.182	n/a	3	29	ButtonPress	Loss	True
286.623	1.45	Lose2	0.6667000000000001	n/a	No	2.825	n/a	5.0	NoResponse	-1	0.031	285.654	3	29	Feedback	Loss	True
288.078	2.825	Lose2	0.6667000000000001	n/a	No	2.825	n/a	n/a	NoResponse	-1	0.0	n/a	3	29	ISIslide	Loss	True
290.92	0.25	Win2	0.6452	0.0	No	2.78	0.02	n/a	PrematurePress	0	n/a	n/a	3	30	Cue	MissedWin	False
291.17	3.9	Win2	0.6452	0.0	No	2.78	0.0	4.0	PrematurePress	0	3.63	293.8	3	30	Fixation	MissedWin	False
294.8	0.3	Win2	0.6452	0.0	No	2.78	0.0	4.0	PrematurePress	0	3.63	n/a	3	30	ButtonPress	MissedWin	False
295.082	0.15	Win2	0.6452	0.0	No	2.78	0.012	4.0	PrematurePress	0	0.091	294.173	3	30	Target	MissedWin	False
295.173	0.3	Win2	0.6452	0.0	No	2.78	0.012	4.0	PrematurePress	0	0.091	n/a	3	30	ButtonPress	MissedWin	False
295.216	0.55	Win2	0.6452	n/a	No	2.78	n/a	n/a	PrematurePress	0	n/a	n/a	3	30	Blank	MissedWin	False
295.767	1.45	Win2	0.6452	n/a	No	2.78	n/a	5.0	PrematurePress	0	0.009	294.776	3	30	Feedback	MissedWin	False
297.222	2.78	Win2	0.6452	n/a	No	2.78	n/a	n/a	PrematurePress	0	0.0	n/a	3	30	ISIslide	MissedWin	False
300.013	0.25	Lose2	0.625	0.0	No	2.837	0.013	n/a	NoResponse	-1	n/a	n/a	2	31	Cue	Loss	True
300.264	4.05	Lose2	0.625	0.0	No	2.837	0.001	n/a	NoResponse	-1	n/a	n/a	2	31	Fixation	Loss	True
304.31	0.16	Lose2	0.625	0.003	No	2.837	-0.003	4.0	NoResponse	-1	0.182	303.492	2	31	Target	Loss	True
304.477	0.54	Lose2	0.625	n/a	No	2.837	n/a	n/a	NoResponse	-1	n/a	n/a	2	31	Blank	Loss	True
304.492	0.3	Lose2	0.625	0.003	No	2.837	-0.003	4.0	NoResponse	-1	0.182	n/a	2	31	ButtonPress	Loss	True
305.012	1.45	Lose2	0.625	n/a	No	2.837	n/a	5.0	NoResponse	-1	0.033	304.045	2	31	Feedback	Loss	True
306.466	2.837	Lose2	0.625	n/a	No	2.837	n/a	n/a	NoResponse	-1	0.0	n/a	2	31	ISIslide	Loss	True
309.325	0.25	Lose2	0.6364	0.0	Yes	2.625	0.025	n/a	GoodResponse	0	n/a	n/a	2	32	Cue	AvoidedLoss	True
309.575	4.15	Lose2	0.6364	0.0	Yes	2.625	0.0	n/a	GoodResponse	0	n/a	n/a	2	32	Fixation	AvoidedLoss	True
313.721	0.17	Lose2	0.6364	0.004	Yes	2.625	-0.004	4.0	GoodResponse	0	0.136	312.857	2	32	Target	AvoidedLoss	True
313.857	0.3	Lose2	0.6364	0.004	Yes	2.625	-0.004	4.0	GoodResponse	0	0.136	n/a	2	32	ButtonPress	AvoidedLoss	True
313.905	0.53	Lose2	0.6364	n/a	Yes	2.625	n/a	n/a	GoodResponse	0	n/a	n/a	2	32	Blank	AvoidedLoss	True
314.423	1.45	Lose2	0.6364	n/a	Yes	2.625	n/a	5.0	GoodResponse	0	0.035	313.458	2	32	Feedback	AvoidedLoss	True
315.877	2.625	Lose2	0.6364	n/a	Yes	2.625	n/a	n/a	GoodResponse	0	0.0	n/a	2	32	ISIslide	AvoidedLoss	True
318.519	0.25	Win2	0.6175999999999999	0.0	No	2.681	0.019	n/a	NoResponse	0	n/a	n/a	2	33	Cue	MissedWin	True
318.769	4.0	Win2	0.6175999999999999	0.0	No	2.681	0.0	n/a	NoResponse	0	n/a	n/a	2	33	Fixation	MissedWin	True
322.765	0.18	Win2	0.6175999999999999	0.004	No	2.681	-0.004	4.0	NoResponse	0	0.203	321.968	2	33	Target	MissedWin	True
322.949	0.52	Win2	0.6175999999999999	n/a	No	2.681	n/a	n/a	NoResponse	0	n/a	n/a	2	33	Blank	MissedWin	True
322.968	0.3	Win2	0.6175999999999999	0.004	No	2.681	-0.004	4.0	NoResponse	0	0.203	n/a	2	33	ButtonPress	MissedWin	True
323.467	1.45	Win2	0.6175999999999999	n/a	No	2.681	n/a	5.0	NoResponse	0	0.016	322.483	2	33	Feedback	MissedWin	True
324.921	2.681	Win2	0.6175999999999999	n/a	No	2.681	n/a	n/a	NoResponse	0	0.0	n/a	2	33	ISIslide	MissedWin	True
327.629	0.25	Lose2	0.6	0.0	No	2.621	0.029	n/a	PrematurePress	-1	n/a	n/a	1	34	Cue	Loss	False
327.88	4.05	Lose2	0.6	0.0	No	2.621	0.001	4.0	PrematurePress	-1	3.479	330.359	1	34	Fixation	Loss	False
331.359	0.3	Lose2	0.6	0.0	No	2.621	0.001	4.0	PrematurePress	-1	3.479	n/a	1	34	ButtonPress	Loss	False
331.925	0.19	Lose2	0.6	0.004	No	2.621	-0.004	4.0	PrematurePress	-1	0.053	330.978	1	34	Target	Loss	False
331.978	0.3	Lose2	0.6	0.004	No	2.621	-0.004	4.0	PrematurePress	-1	0.053	n/a	1	34	ButtonPress	Loss	False
332.126	0.51	Lose2	0.6	n/a	No	2.621	n/a	n/a	PrematurePress	-1	n/a	n/a	1	34	Blank	Loss	False
332.627	1.45	Lose2	0.6	n/a	No	2.621	n/a	5.0	PrematurePress	-1	0.027	331.654	1	34	Feedback	Loss	False
334.082	2.621	Lose2	0.6	n/a	No	2.621	n/a	n/a	PrematurePress	-1	0.0	n/a	1	34	ISIslide	Loss	False
336.723	0.25	Lose2	0.6111	0.0	Yes	2.677	0.023	n/a	GoodResponse	0	n/a	n/a	1	35	Cue	AvoidedLoss	True
336.974	4.0	Lose2	0.6111	0.0	Yes	2.677	0.001	n/a	GoodResponse	0	n/a	n/a	1	35	Fixation	AvoidedLoss	True
340.969	0.2	Lose2	0.6111	0.004	Yes	2.677	-0.004	4.0	GoodResponse	0	0.176	340.145	1	35	Target	AvoidedLoss	True
341.145	0.3	Lose2	0.6111	0.004	Yes	2.677	-0.004	4.0	GoodResponse	0	0.176	n/a	1	35	ButtonPress	AvoidedLoss	True
341.17	0.5	Lose2	0.6111	n/a	Yes	2.677	n/a	n/a	GoodResponse	0	n/a	n/a	1	35	Blank	AvoidedLoss	True
341.671	1.45	Lose2	0.6111	n/a	Yes	2.677	n/a	5.0	GoodResponse	0	0.007	340.678	1	35	Feedback	AvoidedLoss	True
343.125	2.677	Lose2	0.6111	n/a	Yes	2.677	n/a	n/a	GoodResponse	0	0.0	n/a	1	35	ISIslide	AvoidedLoss	True
345.817	0.25	Control	0.6215999999999999	0.0	Yes	2.683	0.017	n/a	GoodResponse	0	n/a	n/a	1	36	Cue	Neutral	True
346.068	4.0	Control	0.6215999999999999	0.0	Yes	2.683	0.001	n/a	GoodResponse	0	n/a	n/a	1	36	Fixation	Neutral	True
350.063	0.21	Control	0.6215999999999999	0.004	Yes	2.683	-0.004	4.0	GoodResponse	0	0.175	349.238	1	36	Target	Neutral	True
350.238	0.3	Control	0.6215999999999999	0.004	Yes	2.683	-0.004	4.0	GoodResponse	0	0.175	n/a	1	36	ButtonPress	Neutral	True
350.28	0.49	Control	0.6215999999999999	n/a	Yes	2.683	n/a	n/a	GoodResponse	0	n/a	n/a	1	36	Blank	Neutral	True
350.765	1.45	Control	0.6215999999999999	n/a	Yes	2.683	n/a	5.0	GoodResponse	0	0.034	349.799	1	36	Feedback	Neutral	True
352.219	2.683	Control	0.6215999999999999	n/a	Yes	2.683	n/a	n/a	GoodResponse	0	0.0	n/a	1	36	ISIslide	Neutral	True
354.927	0.25	Win2	0.6053000000000001	0.0	No	2.873	0.027	n/a	PrematurePress	0	n/a	n/a	1	37	Cue	MissedWin	True
355.178	4.0	Win2	0.6053000000000001	0.0	No	2.873	0.001	n/a	PrematurePress	0	n/a	n/a	1	37	Fixation	MissedWin	True
359.173	0.22	Win2	0.6053000000000001	0.004	No	2.873	-0.004	4.0	PrematurePress	0	0.025	358.198	1	37	Target	MissedWin	True
359.198	0.3	Win2	0.6053000000000001	0.004	No	2.873	-0.004	4.0	PrematurePress	0	0.025	n/a	1	37	ButtonPress	MissedWin	True
359.407	0.48	Win2	0.6053000000000001	n/a	No	2.873	n/a	n/a	PrematurePress	0	n/a	n/a	1	37	Blank	MissedWin	True
359.876	1.45	Win2	0.6053000000000001	n/a	No	2.873	n/a	5.0	PrematurePress	0	0.045	358.921	1	37	Feedback	MissedWin	True
361.33	2.873	Win2	0.6053000000000001	n/a	No	2.873	n/a	n/a	PrematurePress	0	0.0	n/a	1	37	ISIslide	MissedWin	True
364.222	0.25	Lose2	0.6154	0.0	Yes	2.828	0.022	n/a	GoodResponse	0	n/a	n/a	1	38	Cue	AvoidedLoss	False
364.473	3.95	Lose2	0.6154	0.0	Yes	2.828	0.001	4.0	GoodResponse	0	3.598	367.071	1	38	Fixation	AvoidedLoss	False
368.071	0.3	Lose2	0.6154	0.0	Yes	2.828	0.001	4.0	GoodResponse	0	3.598	n/a	1	38	ButtonPress	AvoidedLoss	False
368.418	0.23	Lose2	0.6154	0.004	Yes	2.828	-0.004	4.0	GoodResponse	0	0.162	367.58	1	38	Target	AvoidedLoss	False
368.58	0.3	Lose2	0.6154	0.004	Yes	2.828	-0.004	4.0	GoodResponse	0	0.162	n/a	1	38	ButtonPress	AvoidedLoss	False
368.652	0.47	Lose2	0.6154	n/a	Yes	2.828	n/a	n/a	GoodResponse	0	n/a	n/a	1	38	Blank	AvoidedLoss	False
369.12	1.45	Lose2	0.6154	n/a	Yes	2.828	n/a	5.0	GoodResponse	0	0.021	368.141	1	38	Feedback	AvoidedLoss	False
370.574	2.828	Lose2	0.6154	n/a	Yes	2.828	n/a	n/a	GoodResponse	0	0.0	n/a	1	38	ISIslide	AvoidedLoss	False
373.416	0.25	Win2	0.625	0.0	Yes	2.984	0.016	n/a	GoodResponse	1	n/a	n/a	2	39	Cue	Win	False
373.667	4.1	Win2	0.625	0.0	Yes	2.984	0.001	4.0	GoodResponse	1	3.934	376.601	2	39	Fixation	Win	False
377.601	0.3	Win2	0.625	0.0	Yes	2.984	0.001	4.0	GoodResponse	1	3.934	n/a	2	39	ButtonPress	Win	False
377.762	0.24	Win2	0.625	0.004	Yes	2.984	-0.004	4.0	GoodResponse	1	0.182	376.944	2	39	Target	Win	False
377.944	0.3	Win2	0.625	0.004	Yes	2.984	-0.004	4.0	GoodResponse	1	0.182	n/a	2	39	ButtonPress	Win	False
378.013	0.46	Win2	0.625	n/a	Yes	2.984	n/a	n/a	GoodResponse	1	n/a	n/a	2	39	Blank	Win	False
378.464	1.45	Win2	0.625	n/a	Yes	2.984	n/a	5.0	GoodResponse	1	0.043	377.507	2	39	Feedback	Win	False
379.919	2.984	Win2	0.625	n/a	Yes	2.984	n/a	n/a	GoodResponse	1	0.0	n/a	2	39	ISIslide	Win	False
382.928	0.25	Win2	0.6341	0.0	Yes	2.722	0.028	n/a	GoodResponse	1	n/a	n/a	3	40	Cue	Win	True
383.178	3.95	Win2	0.6341	0.001	Yes	2.722	0.0	n/a	GoodResponse	1	n/a	n/a	3	40	Fixation	Win	True
387.124	0.25	Win2	0.6341	0.004	Yes	2.722	-0.004	4.0	GoodResponse	1	0.18	386.304	3	40	Target	Win	True
387.304	0.3	Win2	0.6341	0.004	Yes	2.722	-0.004	4.0	GoodResponse	1	0.18	n/a	3	40	ButtonPress	Win	True
387.374	0.45	Win2	0.6341	n/a	Yes	2.722	n/a	n/a	GoodResponse	1	n/a	n/a	3	40	Blank	Win	True
387.826	1.45	Win2	0.6341	n/a	Yes	2.722	n/a	5.0	GoodResponse	1	0.046	386.872	3	40	Feedback	Win	True
389.28	2.722	Win2	0.6341	n/a	Yes	2.722	n/a	n/a	GoodResponse	1	0.0	n/a	3	40	ISIslide	Win	True
392.022	0.25	Win2	0.6429	0.0	Yes	2.778	0.022	n/a	GoodResponse	1	n/a	n/a	4	41	Cue	Win	True
392.272	3.9	Win2	0.6429	0.0	Yes	2.778	0.0	n/a	GoodResponse	1	n/a	n/a	4	41	Fixation	Win	True
396.184	0.26	Win2	0.6429	0.0	Yes	2.778	0.012	4.0	GoodResponse	1	0.196	395.38	4	41	Target	Win	True
396.38	0.3	Win2	0.6429	0.0	Yes	2.778	0.012	4.0	GoodResponse	1	0.196	n/a	4	41	ButtonPress	Win	True
396.435	0.44	Win2	0.6429	n/a	Yes	2.778	n/a	n/a	GoodResponse	1	n/a	n/a	4	41	Blank	Win	True
396.869	1.45	Win2	0.6429	n/a	Yes	2.778	n/a	5.0	GoodResponse	1	0.028	395.897	4	41	Feedback	Win	True
398.324	2.778	Win2	0.6429	n/a	Yes	2.778	n/a	n/a	GoodResponse	1	0.0	n/a	4	41	ISIslide	Win	True
401.115	0.25	Control	0.6279	0.0	No	2.935	0.015	n/a	PrematurePress	0	n/a	n/a	4	42	Cue	Neutral	False
401.366	3.85	Control	0.6279	0.0	No	2.935	0.001	4.0	PrematurePress	0	3.475	403.841	4	42	Fixation	Neutral	False
404.841	0.3	Control	0.6279	0.0	No	2.935	0.001	4.0	PrematurePress	0	3.475	n/a	4	42	ButtonPress	Neutral	False
405.211	0.27	Control	0.6279	0.004	No	2.935	-0.004	4.0	PrematurePress	0	0.053	404.264	4	42	Target	Neutral	False
405.264	0.3	Control	0.6279	0.004	No	2.935	-0.004	4.0	PrematurePress	0	0.053	n/a	4	42	ButtonPress	Neutral	False
405.495	0.43	Control	0.6279	n/a	No	2.935	n/a	n/a	PrematurePress	0	n/a	n/a	4	42	Blank	Neutral	False
405.913	1.45	Control	0.6279	n/a	No	2.935	n/a	5.0	PrematurePress	0	0.008	404.921	4	42	Feedback	Neutral	False
407.367	2.935	Control	0.6279	n/a	No	2.935	n/a	n/a	PrematurePress	0	0.0	n/a	4	42	ISIslide	Neutral	False
410.326	0.25	Win2	0.6136	0.0	No	3.174	0.026	n/a	PrematurePress	0	n/a	n/a	4	43	Cue	MissedWin	True
410.577	4.0	Win2	0.6136	0.0	No	3.174	0.001	n/a	PrematurePress	0	n/a	n/a	4	43	Fixation	MissedWin	True
414.572	0.28	Win2	0.6136	0.004	No	3.174	-0.004	4.0	PrematurePress	0	0.069	413.641	4	43	Target	MissedWin	True
414.641	0.3	Win2	0.6136	0.004	No	3.174	-0.004	4.0	PrematurePress	0	0.069	n/a	4	43	ButtonPress	MissedWin	True
414.856	0.42	Win2	0.6136	n/a	No	3.174	n/a	n/a	PrematurePress	0	n/a	n/a	4	43	Blank	MissedWin	True
415.274	1.45	Win2	0.6136	n/a	No	3.174	n/a	5.0	PrematurePress	0	0.013	414.287	4	43	Feedback	MissedWin	True
416.729	3.174	Win2	0.6136	n/a	No	3.174	n/a	n/a	PrematurePress	0	0.0	n/a	4	43	ISIslide	MissedWin	True
419.922	0.25	Win2	0.6222	0.0	Yes	2.978	0.022	n/a	GoodResponse	1	n/a	n/a	5	44	Cue	Win	True
420.172	4.0	Win2	0.6222	0.0	Yes	2.978	0.0	n/a	GoodResponse	1	n/a	n/a	5	44	Fixation	Win	True
424.168	0.29	Win2	0.6222	0.004	Yes	2.978	-0.004	4.0	GoodResponse	1	0.216	423.384	5	44	Target	Win	True
424.384	0.3	Win2	0.6222	0.004	Yes	2.978	-0.004	4.0	GoodResponse	1	0.216	n/a	5	44	ButtonPress	Win	True
424.468	0.41	Win2	0.6222	n/a	Yes	2.978	n/a	n/a	GoodResponse	1	n/a	n/a	5	44	Blank	Win	True
424.87	1.45	Win2	0.6222	n/a	Yes	2.978	n/a	5.0	GoodResponse	1	0.026	423.896	5	44	Feedback	Win	True
426.324	2.978	Win2	0.6222	n/a	Yes	2.978	n/a	n/a	GoodResponse	1	0.0	n/a	5	44	ISIslide	Win	True
429.316	0.25	Control	0.6304	0.0	Yes	2.884	0.016	n/a	GoodResponse	0	n/a	n/a	5	45	Cue	Neutral	False
429.567	4.1	Control	0.6304	0.0	Yes	2.884	0.001	4.0	GoodResponse	0	3.945	432.512	5	45	Fixation	Neutral	False
433.512	0.3	Control	0.6304	0.0	Yes	2.884	0.001	4.0	GoodResponse	0	3.945	n/a	5	45	ButtonPress	Neutral	False
433.663	0.3	Control	0.6304	0.003	Yes	2.884	-0.003	4.0	GoodResponse	0	0.204	432.867	5	45	Target	Neutral	False
433.867	0.3	Control	0.6304	0.003	Yes	2.884	-0.003	4.0	GoodResponse	0	0.204	n/a	5	45	ButtonPress	Neutral	False
433.963	0.4	Control	0.6304	n/a	Yes	2.884	n/a	n/a	GoodResponse	0	n/a	n/a	5	45	Blank	Neutral	False
434.365	1.45	Control	0.6304	n/a	Yes	2.884	n/a	5.0	GoodResponse	0	0.043	433.408	5	45	Feedback	Neutral	False
435.819	2.884	Control	0.6304	n/a	Yes	2.884	n/a	n/a	GoodResponse	0	0.0	n/a	5	45	ISIslide	Neutral	False
438.728	0.25	Lose2	0.6383	0.0	Yes	3.372	0.028	n/a	GoodResponse	0	n/a	n/a	5	46	Cue	AvoidedLoss	True
438.978	4.0	Lose2	0.6383	0.001	Yes	3.372	0.0	n/a	GoodResponse	0	n/a	n/a	5	46	Fixation	AvoidedLoss	True
442.974	0.31	Lose2	0.6383	0.004	Yes	3.372	-0.004	4.0	GoodResponse	0	0.158	442.132	5	46	Target	AvoidedLoss	True
443.132	0.3	Lose2	0.6383	0.004	Yes	3.372	-0.004	4.0	GoodResponse	0	0.158	n/a	5	46	ButtonPress	AvoidedLoss	True
443.291	0.39	Lose2	0.6383	n/a	Yes	3.372	n/a	n/a	GoodResponse	0	n/a	n/a	5	46	Blank	AvoidedLoss	True
443.676	1.45	Lose2	0.6383	n/a	Yes	3.372	n/a	5.0	GoodResponse	0	0.001	442.677	5	46	Feedback	AvoidedLoss	True
445.13	3.372	Lose2	0.6383	n/a	Yes	3.372	n/a	n/a	GoodResponse	0	0.0	n/a	5	46	ISIslide	AvoidedLoss	True
448.524	0.25	Lose2	0.625	0.0	No	2.676	0.024	n/a	NoResponse	-1	n/a	n/a	4	47	Cue	Loss	True
448.774	4.0	Lose2	0.625	0.0	No	2.676	0.0	4.0	NoResponse	-1	3.919	451.693	4	47	Fixation	Loss	True
452.693	0.3	Lose2	0.625	0.0	No	2.676	0.0	4.0	NoResponse	-1	3.919	n/a	4	47	ButtonPress	Loss	True
452.77	0.32	Lose2	0.625	0.004	No	2.676	-0.004	n/a	NoResponse	-1	n/a	n/a	4	47	Target	Loss	True
453.104	0.38	Lose2	0.625	n/a	No	2.676	n/a	n/a	NoResponse	-1	n/a	n/a	4	47	Blank	Loss	True
453.472	1.45	Lose2	0.625	n/a	No	2.676	n/a	5.0	NoResponse	-1	0.01	452.482	4	47	Feedback	Loss	True
454.926	2.676	Lose2	0.625	n/a	No	2.676	n/a	n/a	NoResponse	-1	0.0	n/a	4	47	ISIslide	Loss	True
457.617	0.25	Lose2	0.6327	0.0	Yes	3.033	0.017	n/a	GoodResponse	0	n/a	n/a	4	48	Cue	AvoidedLoss	True
457.868	3.95	Lose2	0.6327	0.0	Yes	3.033	0.001	n/a	GoodResponse	0	n/a	n/a	4	48	Fixation	AvoidedLoss	True
461.813	0.33	Lose2	0.6327	0.004	Yes	3.033	-0.004	4.0	GoodResponse	0	0.202	461.015	4	48	Target	AvoidedLoss	True
462.015	0.3	Lose2	0.6327	0.004	Yes	3.033	-0.004	4.0	GoodResponse	0	0.202	n/a	4	48	ButtonPress	AvoidedLoss	True
462.148	0.37	Lose2	0.6327	n/a	Yes	3.033	n/a	n/a	GoodResponse	0	n/a	n/a	4	48	Blank	AvoidedLoss	True
462.515	1.45	Lose2	0.6327	n/a	Yes	3.033	n/a	5.0	GoodResponse	0	0.039	461.554	4	48	Feedback	AvoidedLoss	True
463.97	3.033	Lose2	0.6327	n/a	Yes	3.033	n/a	n/a	GoodResponse	0	0.0	n/a	4	48	ISIslide	AvoidedLoss	True
467.029	0.25	Control	0.64	0.0	Yes	2.871	0.029	n/a	GoodResponse	0	n/a	n/a	4	49	Cue	Neutral	True
467.28	4.0	Control	0.64	0.0	Yes	2.871	0.001	n/a	GoodResponse	0	n/a	n/a	4	49	Fixation	Neutral	True
471.275	0.34	Control	0.64	0.004	Yes	2.871	-0.004	4.0	GoodResponse	0	0.131	470.406	4	49	Target	Neutral	True
471.406	0.3	Control	0.64	0.004	Yes	2.871	-0.004	4.0	GoodResponse	0	0.131	n/a	4	49	ButtonPress	Neutral	True
471.626	0.36	Control	0.64	n/a	Yes	2.871	n/a	n/a	GoodResponse	0	n/a	n/a	4	49	Blank	Neutral	True
471.977	1.45	Control	0.64	n/a	Yes	2.871	n/a	5.0	GoodResponse	0	0.04	471.017	4	49	Feedback	Neutral	True
473.431	2.871	Control	0.64	n/a	Yes	2.871	n/a	n/a	GoodResponse	0	0.0	n/a	4	49	ISIslide	Neutral	True
476.323	0.25	Control	0.6470999999999999	0.0	Yes	2.777	0.023	n/a	GoodResponse	0	n/a	n/a	4	50	Cue	Neutral	True
476.574	4.0	Control	0.6470999999999999	0.0	Yes	2.777	0.001	n/a	GoodResponse	0	n/a	n/a	4	50	Fixation	Neutral	True
480.569	0.35	Control	0.6470999999999999	0.004	Yes	2.777	-0.004	4.0	GoodResponse	0	0.251	479.82	4	50	Target	Neutral	True
480.82	0.3	Control	0.6470999999999999	0.004	Yes	2.777	-0.004	4.0	GoodResponse	0	0.251	n/a	4	50	ButtonPress	Neutral	True
480.92	0.35	Control	0.6470999999999999	n/a	Yes	2.777	n/a	n/a	GoodResponse	0	n/a	n/a	4	50	Blank	Neutral	True
481.271	1.45	Control	0.6470999999999999	n/a	Yes	2.777	n/a	5.0	GoodResponse	0	0.015	480.286	4	50	Feedback	Neutral	True
482.726	2.777	Control	0.6470999999999999	n/a	Yes	2.777	n/a	4.0	GoodResponse	0	1.02	n/a	4	50	ISIslide	Neutral	True
485.501	0.25	Control	0.6537999999999999	0.0	Yes	2.749	0.001	n/a	GoodResponse	0	n/a	n/a	4	51	Cue	Neutral	True
485.751	3.95	Control	0.6537999999999999	0.001	Yes	2.749	0.0	n/a	GoodResponse	0	n/a	n/a	4	51	Fixation	Neutral	True
489.697	0.36	Control	0.6537999999999999	0.004	Yes	2.749	-0.004	4.0	GoodResponse	0	0.165	488.862	4	51	Target	Neutral	True
489.862	0.3	Control	0.6537999999999999	0.004	Yes	2.749	-0.004	4.0	GoodResponse	0	0.165	n/a	4	51	ButtonPress	Neutral	True
490.064	0.34	Control	0.6537999999999999	n/a	Yes	2.749	n/a	n/a	GoodResponse	0	n/a	n/a	4	51	Blank	Neutral	True
490.399	1.45	Control	0.6537999999999999	n/a	Yes	2.749	n/a	5.0	GoodResponse	0	0.009	489.408	4	51	Feedback	Neutral	True
491.853	2.749	Control	0.6537999999999999	n/a	Yes	2.749	n/a	n/a	GoodResponse	0	0.0	n/a	4	51	ISIslide	Neutral	True
494.628	0.25	Control	0.6604000000000001	0.0	Yes	2.622	0.028	n/a	GoodResponse	0	n/a	n/a	4	52	Cue	Neutral	False
494.879	4.05	Control	0.6604000000000001	0.0	Yes	2.622	0.001	4.0	GoodResponse	0	3.653	497.532	4	52	Fixation	Neutral	False
498.532	0.3	Control	0.6604000000000001	0.0	Yes	2.622	0.001	4.0	GoodResponse	0	3.653	n/a	4	52	ButtonPress	Neutral	False
498.924	0.37	Control	0.6604000000000001	0.004	Yes	2.622	-0.004	4.0	GoodResponse	0	0.126	498.05	4	52	Target	Neutral	False
499.05	0.3	Control	0.6604000000000001	0.004	Yes	2.622	-0.004	4.0	GoodResponse	0	0.126	n/a	4	52	ButtonPress	Neutral	False
499.309	0.33	Control	0.6604000000000001	n/a	Yes	2.622	n/a	n/a	GoodResponse	0	n/a	n/a	4	52	Blank	Neutral	False
499.626	1.45	Control	0.6604000000000001	n/a	Yes	2.622	n/a	5.0	GoodResponse	0	0.001	498.627	4	52	Feedback	Neutral	False
501.081	2.622	Control	0.6604000000000001	n/a	Yes	2.622	n/a	n/a	GoodResponse	0	0.0	n/a	4	52	ISIslide	Neutral	False
503.722	0.25	Win2	0.6667000000000001	0.0	Yes	2.928	0.022	n/a	GoodResponse	1	n/a	n/a	5	53	Cue	Win	True
503.973	4.05	Win2	0.6667000000000001	0.0	Yes	2.928	0.001	n/a	GoodResponse	1	n/a	n/a	5	53	Fixation	Win	True
508.018	0.37	Win2	0.6667000000000001	0.004	Yes	2.928	-0.004	4.0	GoodResponse	1	0.195	507.213	5	53	Target	Win	True
508.213	0.3	Win2	0.6667000000000001	0.004	Yes	2.928	-0.004	4.0	GoodResponse	1	0.195	n/a	5	53	ButtonPress	Win	True
508.402	0.33	Win2	0.6667000000000001	n/a	Yes	2.928	n/a	n/a	GoodResponse	1	n/a	n/a	5	53	Blank	Win	True
508.72	1.45	Win2	0.6667000000000001	n/a	Yes	2.928	n/a	5.0	GoodResponse	1	0.029	507.749	5	53	Feedback	Win	True
510.174	2.928	Win2	0.6667000000000001	n/a	Yes	2.928	n/a	n/a	GoodResponse	1	0.0	n/a	5	53	ISIslide	Win	True
513.117	0.25	Win2	0.6727	0.0	Yes	2.733	0.017	n/a	GoodResponse	1	n/a	n/a	6	54	Cue	Win	True
513.367	3.95	Win2	0.6727	0.0	Yes	2.733	0.0	n/a	GoodResponse	1	n/a	n/a	6	54	Fixation	Win	True
517.329	0.36	Win2	0.6727	0.0	Yes	2.733	0.012	4.0	GoodResponse	1	0.194	516.523	6	54	Target	Win	True
517.523	0.3	Win2	0.6727	0.0	Yes	2.733	0.012	4.0	GoodResponse	1	0.194	n/a	6	54	ButtonPress	Win	True
517.68	0.34	Win2	0.6727	n/a	Yes	2.733	n/a	n/a	GoodResponse	1	n/a	n/a	6	54	Blank	Win	True
518.014	1.45	Win2	0.6727	n/a	Yes	2.733	n/a	5.0	GoodResponse	1	0.003	517.017	6	54	Feedback	Win	True
519.469	2.733	Win2	0.6727	n/a	Yes	2.733	n/a	n/a	GoodResponse	1	0.0	n/a	6	54	ISIslide	Win	True
522.227	0.25	Control	0.6786	0.0	Yes	3.023	0.027	n/a	GoodResponse	0	n/a	n/a	6	55	Cue	Neutral	True
522.478	3.95	Control	0.6786	0.0	Yes	3.023	0.001	n/a	GoodResponse	0	n/a	n/a	6	55	Fixation	Neutral	True
526.423	0.35	Control	0.6786	0.004	Yes	3.023	-0.004	4.0	GoodResponse	0	0.142	525.565	6	55	Target	Neutral	True
526.565	0.3	Control	0.6786	0.004	Yes	3.023	-0.004	4.0	GoodResponse	0	0.142	n/a	6	55	ButtonPress	Neutral	True
526.774	0.35	Control	0.6786	n/a	Yes	3.023	n/a	n/a	GoodResponse	0	n/a	n/a	6	55	Blank	Neutral	True
527.125	1.45	Control	0.6786	n/a	Yes	3.023	n/a	5.0	GoodResponse	0	0.014	526.139	6	55	Feedback	Neutral	True
528.579	3.023	Control	0.6786	n/a	Yes	3.023	n/a	n/a	GoodResponse	0	0.0	n/a	6	55	ISIslide	Neutral	True
531.622	0.25	Control	0.6667000000000001	0.0	No	2.828	0.022	n/a	NoResponse	0	n/a	n/a	6	56	Cue	Neutral	True
531.873	3.95	Control	0.6667000000000001	0.0	No	2.828	0.001	n/a	NoResponse	0	n/a	n/a	6	56	Fixation	Neutral	True
535.818	0.34	Control	0.6667000000000001	0.004	No	2.828	-0.004	4.0	NoResponse	0	0.408	535.226	6	56	Target	Neutral	True
536.169	0.36	Control	0.6667000000000001	n/a	No	2.828	n/a	n/a	NoResponse	0	n/a	n/a	6	56	Blank	Neutral	True
536.226	0.3	Control	0.6667000000000001	0.004	No	2.828	-0.004	4.0	NoResponse	0	0.408	n/a	6	56	ButtonPress	Neutral	True
536.52	1.45	Control	0.6667000000000001	n/a	No	2.828	n/a	5.0	NoResponse	0	0.033	535.553	6	56	Feedback	Neutral	True
537.974	2.828	Control	0.6667000000000001	n/a	No	2.828	n/a	n/a	NoResponse	0	0.0	n/a	6	56	ISIslide	Neutral	True
540.816	0.25	Control	0.6724	0.0	Yes	3.484	0.016	n/a	GoodResponse	0	n/a	n/a	6	57	Cue	Neutral	True
541.067	4.0	Control	0.6724	0.0	Yes	3.484	0.001	n/a	GoodResponse	0	n/a	n/a	6	57	Fixation	Neutral	True
545.062	0.33	Control	0.6724	0.004	Yes	3.484	-0.004	4.0	GoodResponse	0	0.178	544.24	6	57	Target	Neutral	True
545.24	0.3	Control	0.6724	0.004	Yes	3.484	-0.004	4.0	GoodResponse	0	0.178	n/a	6	57	ButtonPress	Neutral	True
545.396	0.37	Control	0.6724	n/a	Yes	3.484	n/a	n/a	GoodResponse	0	n/a	n/a	6	57	Blank	Neutral	True
545.764	1.45	Control	0.6724	n/a	Yes	3.484	n/a	5.0	GoodResponse	0	0.009	544.773	6	57	Feedback	Neutral	True
547.218	3.484	Control	0.6724	n/a	Yes	3.484	n/a	n/a	GoodResponse	0	0.0	n/a	6	57	ISIslide	Neutral	True
550.729	0.25	Win2	0.6779999999999999	0.0	Yes	2.721	0.029	n/a	GoodResponse	1	n/a	n/a	7	58	Cue	Win	True
550.98	4.05	Win2	0.6779999999999999	0.0	Yes	2.721	0.001	n/a	GoodResponse	1	n/a	n/a	7	58	Fixation	Win	True
555.025	0.32	Win2	0.6779999999999999	0.004	Yes	2.721	-0.004	4.0	GoodResponse	1	0.192	554.217	7	58	Target	Win	True
555.217	0.3	Win2	0.6779999999999999	0.004	Yes	2.721	-0.004	4.0	GoodResponse	1	0.192	n/a	7	58	ButtonPress	Win	True
555.359	0.38	Win2	0.6779999999999999	n/a	Yes	2.721	n/a	n/a	GoodResponse	1	n/a	n/a	7	58	Blank	Win	True
555.727	1.45	Win2	0.6779999999999999	n/a	Yes	2.721	n/a	5.0	GoodResponse	1	0.046	554.773	7	58	Feedback	Win	True
557.181	2.721	Win2	0.6779999999999999	n/a	Yes	2.721	n/a	n/a	GoodResponse	1	0.0	n/a	7	58	ISIslide	Win	True
559.923	0.25	Lose2	0.6833	0.0	Yes	2.677	0.023	n/a	GoodResponse	0	n/a	n/a	7	59	Cue	AvoidedLoss	True
560.174	4.0	Lose2	0.6833	0.0	Yes	2.677	0.001	n/a	GoodResponse	0	n/a	n/a	7	59	Fixation	AvoidedLoss	True
564.169	0.31	Lose2	0.6833	0.004	Yes	2.677	-0.004	4.0	GoodResponse	0	0.163	563.332	7	59	Target	AvoidedLoss	True
564.332	0.3	Lose2	0.6833	0.004	Yes	2.677	-0.004	4.0	GoodResponse	0	0.163	n/a	7	59	ButtonPress	AvoidedLoss	True
564.487	0.39	Lose2	0.6833	n/a	Yes	2.677	n/a	n/a	GoodResponse	0	n/a	n/a	7	59	Blank	AvoidedLoss	True
564.871	1.45	Lose2	0.6833	n/a	Yes	2.677	n/a	5.0	GoodResponse	0	0.024	563.895	7	59	Feedback	AvoidedLoss	True
566.325	2.677	Lose2	0.6833	n/a	Yes	2.677	n/a	n/a	GoodResponse	0	0.0	n/a	7	59	ISIslide	AvoidedLoss	True
569.017	0.25	Control	0.6884999999999999	0.0	Yes	2.683	0.017	n/a	GoodResponse	0	n/a	n/a	7	60	Cue	Neutral	True
569.268	4.0	Control	0.6884999999999999	0.0	Yes	2.683	0.001	n/a	GoodResponse	0	n/a	n/a	7	60	Fixation	Neutral	True
573.263	0.3	Control	0.6884999999999999	0.004	Yes	2.683	-0.004	4.0	GoodResponse	0	0.192	572.455	7	60	Target	Neutral	True
573.455	0.3	Control	0.6884999999999999	0.004	Yes	2.683	-0.004	4.0	GoodResponse	0	0.192	n/a	7	60	ButtonPress	Neutral	True
573.564	0.4	Control	0.6884999999999999	n/a	Yes	2.683	n/a	n/a	GoodResponse	0	n/a	n/a	7	60	Blank	Neutral	True
573.965	1.45	Control	0.6884999999999999	n/a	Yes	2.683	n/a	5.0	GoodResponse	0	0.007	572.972	7	60	Feedback	Neutral	True
575.419	2.683	Control	0.6884999999999999	n/a	Yes	2.683	n/a	n/a	GoodResponse	0	0.0	n/a	7	60	ISIslide	Neutral	True
578.127	0.25	Lose2	0.6934999999999999	0.0	Yes	2.973	0.027	n/a	GoodResponse	0	n/a	n/a	7	61	Cue	AvoidedLoss	True
578.378	4.0	Lose2	0.6934999999999999	0.0	Yes	2.973	0.001	n/a	GoodResponse	0	n/a	n/a	7	61	Fixation	AvoidedLoss	True
582.373	0.29	Lose2	0.6934999999999999	0.004	Yes	2.973	-0.004	4.0	GoodResponse	0	0.188	581.561	7	61	Target	AvoidedLoss	True
582.561	0.3	Lose2	0.6934999999999999	0.004	Yes	2.973	-0.004	4.0	GoodResponse	0	0.188	n/a	7	61	ButtonPress	AvoidedLoss	True
582.674	0.41	Lose2	0.6934999999999999	n/a	Yes	2.973	n/a	n/a	GoodResponse	0	n/a	n/a	7	61	Blank	AvoidedLoss	True
583.075	1.45	Lose2	0.6934999999999999	n/a	Yes	2.973	n/a	5.0	GoodResponse	0	0.014	582.089	7	61	Feedback	AvoidedLoss	True
584.53	2.973	Lose2	0.6934999999999999	n/a	Yes	2.973	n/a	n/a	GoodResponse	0	0.0	n/a	7	61	ISIslide	AvoidedLoss	True
587.522	0.25	Lose2	0.6984	0.0	Yes	2.878	0.022	n/a	GoodResponse	0	n/a	n/a	7	62	Cue	AvoidedLoss	True
587.773	3.9	Lose2	0.6984	0.0	Yes	2.878	0.001	n/a	GoodResponse	0	n/a	n/a	7	62	Fixation	AvoidedLoss	True
591.668	0.28	Lose2	0.6984	0.004	Yes	2.878	-0.004	4.0	GoodResponse	0	0.208	590.876	7	62	Target	AvoidedLoss	True
591.876	0.3	Lose2	0.6984	0.004	Yes	2.878	-0.004	4.0	GoodResponse	0	0.208	n/a	7	62	ButtonPress	AvoidedLoss	True
591.952	0.42	Lose2	0.6984	n/a	Yes	2.878	n/a	n/a	GoodResponse	0	n/a	n/a	7	62	Blank	AvoidedLoss	True
592.37	1.45	Lose2	0.6984	n/a	Yes	2.878	n/a	5.0	GoodResponse	0	0.036	591.406	7	62	Feedback	AvoidedLoss	True
593.824	2.878	Lose2	0.6984	n/a	Yes	2.878	n/a	n/a	GoodResponse	0	0.0	n/a	7	62	ISIslide	AvoidedLoss	True
596.716	0.25	Lose2	0.7031000000000001	0.0	Yes	2.634	0.016	n/a	GoodResponse	0	n/a	n/a	7	63	Cue	AvoidedLoss	True
596.967	4.05	Lose2	0.7031000000000001	0.0	Yes	2.634	0.001	n/a	GoodResponse	0	n/a	n/a	7	63	Fixation	AvoidedLoss	True
601.012	0.27	Lose2	0.7031000000000001	0.004	Yes	2.634	-0.004	4.0	GoodResponse	0	0.196	600.208	7	63	Target	AvoidedLoss	True
601.208	0.3	Lose2	0.7031000000000001	0.004	Yes	2.634	-0.004	4.0	GoodResponse	0	0.196	n/a	7	63	ButtonPress	AvoidedLoss	True
601.297	0.43	Lose2	0.7031000000000001	n/a	Yes	2.634	n/a	n/a	GoodResponse	0	n/a	n/a	7	63	Blank	AvoidedLoss	True
601.714	1.45	Lose2	0.7031000000000001	n/a	Yes	2.634	n/a	5.0	GoodResponse	0	0.009	600.723	7	63	Feedback	AvoidedLoss	True
603.169	2.634	Lose2	0.7031000000000001	n/a	Yes	2.634	n/a	n/a	GoodResponse	0	0.0	n/a	7	63	ISIslide	AvoidedLoss	True
605.827	0.25	Win2	0.7077	0.0	Yes	3.123	0.027	n/a	GoodResponse	1	n/a	n/a	8	64	Cue	Win	False
606.077	4.15	Win2	0.7077	0.001	Yes	3.123	0.0	4.0	GoodResponse	1	3.85	608.927	8	64	Fixation	Win	False
609.927	0.3	Win2	0.7077	0.001	Yes	3.123	0.0	4.0	GoodResponse	1	3.85	n/a	8	64	ButtonPress	Win	False
610.223	0.26	Win2	0.7077	0.004	Yes	3.123	-0.004	4.0	GoodResponse	1	0.179	609.402	8	64	Target	Win	False
610.402	0.3	Win2	0.7077	0.004	Yes	3.123	-0.004	4.0	GoodResponse	1	0.179	n/a	8	64	ButtonPress	Win	False
610.491	0.44	Win2	0.7077	n/a	Yes	3.123	n/a	n/a	GoodResponse	1	n/a	n/a	8	64	Blank	Win	False
610.925	1.45	Win2	0.7077	n/a	Yes	3.123	n/a	5.0	GoodResponse	1	0.017	609.942	8	64	Feedback	Win	False
612.38	3.123	Win2	0.7077	n/a	Yes	3.123	n/a	n/a	GoodResponse	1	0.0	n/a	8	64	ISIslide	Win	False
615.522	0.25	Control	0.6970000000000001	0.0	No	2.778	0.022	n/a	PrematurePress	0	n/a	n/a	8	65	Cue	Neutral	True
615.773	4.0	Control	0.6970000000000001	0.0	No	2.778	0.001	n/a	PrematurePress	0	n/a	n/a	8	65	Fixation	Neutral	True
619.768	0.25	Control	0.6970000000000001	0.004	No	2.778	-0.004	4.0	PrematurePress	0	0.032	618.8	8	65	Target	Neutral	True
619.8	0.3	Control	0.6970000000000001	0.004	No	2.778	-0.004	4.0	PrematurePress	0	0.032	n/a	8	65	ButtonPress	Neutral	True
620.019	0.45	Control	0.6970000000000001	n/a	No	2.778	n/a	n/a	PrematurePress	0	n/a	n/a	8	65	Blank	Neutral	True
620.47	1.45	Control	0.6970000000000001	n/a	No	2.778	n/a	5.0	PrematurePress	0	0.033	619.503	8	65	Feedback	Neutral	True
621.925	2.778	Control	0.6970000000000001	n/a	No	2.778	n/a	n/a	PrematurePress	0	0.0	n/a	8	65	ISIslide	Neutral	True
624.716	0.25	Win2	0.7015	0.001	Yes	2.784	0.016	n/a	GoodResponse	1	n/a	n/a	9	66	Cue	Win	True
624.967	3.9	Win2	0.7015	0.0	Yes	2.784	0.001	n/a	GoodResponse	1	n/a	n/a	9	66	Fixation	Win	True
628.862	0.24	Win2	0.7015	0.004	Yes	2.784	-0.004	4.0	GoodResponse	1	0.164	628.026	9	66	Target	Win	True
629.026	0.3	Win2	0.7015	0.004	Yes	2.784	-0.004	4.0	GoodResponse	1	0.164	n/a	9	66	ButtonPress	Win	True
629.113	0.46	Win2	0.7015	n/a	Yes	2.784	n/a	n/a	GoodResponse	1	n/a	n/a	9	66	Blank	Win	True
629.564	1.45	Win2	0.7015	n/a	Yes	2.784	n/a	5.0	GoodResponse	1	0.012	628.576	9	66	Feedback	Win	True
631.019	2.784	Win2	0.7015	n/a	Yes	2.784	n/a	n/a	GoodResponse	1	0.0	n/a	9	66	ISIslide	Win	True
633.827	0.25	Control	0.7059000000000001	0.0	Yes	2.723	0.027	n/a	GoodResponse	0	n/a	n/a	9	67	Cue	Neutral	True
634.078	3.95	Control	0.7059000000000001	0.0	Yes	2.723	0.001	n/a	GoodResponse	0	n/a	n/a	9	67	Fixation	Neutral	True
638.023	0.23	Control	0.7059000000000001	0.004	Yes	2.723	-0.004	4.0	GoodResponse	0	0.169	637.192	9	67	Target	Neutral	True
638.192	0.3	Control	0.7059000000000001	0.004	Yes	2.723	-0.004	4.0	GoodResponse	0	0.169	n/a	9	67	ButtonPress	Neutral	True
638.257	0.47	Control	0.7059000000000001	n/a	Yes	2.723	n/a	n/a	GoodResponse	0	n/a	n/a	9	67	Blank	Neutral	True
638.725	1.45	Control	0.7059000000000001	n/a	Yes	2.723	n/a	5.0	GoodResponse	0	0.022	637.747	9	67	Feedback	Neutral	True
640.179	2.723	Control	0.7059000000000001	n/a	Yes	2.723	n/a	n/a	GoodResponse	0	0.0	n/a	9	67	ISIslide	Neutral	True
642.921	0.25	Win2	0.6957	0.0	No	3.079	0.021	n/a	PrematurePress	0	n/a	n/a	9	68	Cue	MissedWin	True
643.172	4.0	Win2	0.6957	0.0	No	3.079	0.001	n/a	PrematurePress	0	n/a	n/a	9	68	Fixation	MissedWin	True
647.167	0.22	Win2	0.6957	0.004	No	3.079	-0.004	4.0	PrematurePress	0	0.033	646.2	9	68	Target	MissedWin	True
647.2	0.3	Win2	0.6957	0.004	No	3.079	-0.004	4.0	PrematurePress	0	0.033	n/a	9	68	ButtonPress	MissedWin	True
647.401	0.48	Win2	0.6957	n/a	No	3.079	n/a	n/a	PrematurePress	0	n/a	n/a	9	68	Blank	MissedWin	True
647.869	1.45	Win2	0.6957	n/a	No	3.079	n/a	5.0	PrematurePress	0	0.048	646.917	9	68	Feedback	MissedWin	True
649.323	3.079	Win2	0.6957	n/a	No	3.079	n/a	n/a	PrematurePress	0	0.0	n/a	9	68	ISIslide	MissedWin	True
652.416	0.25	Win2	0.6857	0.0	No	3.234	0.016	n/a	NoResponse	0	n/a	n/a	9	69	Cue	MissedWin	True
652.667	3.95	Win2	0.6857	0.0	No	3.234	0.001	n/a	NoResponse	0	n/a	n/a	9	69	Fixation	MissedWin	True
656.612	0.21	Win2	0.6857	0.004	No	3.234	-0.004	4.0	NoResponse	0	0.313	655.925	9	69	Target	MissedWin	True
656.829	0.49	Win2	0.6857	n/a	No	3.234	n/a	n/a	NoResponse	0	n/a	n/a	9	69	Blank	MissedWin	True
656.925	0.3	Win2	0.6857	0.004	No	3.234	-0.004	4.0	NoResponse	0	0.313	n/a	9	69	ButtonPress	MissedWin	True
657.314	1.45	Win2	0.6857	n/a	No	3.234	n/a	5.0	NoResponse	0	0.018	656.332	9	69	Feedback	MissedWin	True
658.768	3.234	Win2	0.6857	n/a	No	3.234	n/a	n/a	NoResponse	0	0.0	n/a	9	69	ISIslide	MissedWin	True
662.028	0.25	Lose2	0.6761	0.0	No	3.022	0.028	n/a	PrematurePress	-1	n/a	n/a	8	70	Cue	Loss	False
662.279	4.05	Lose2	0.6761	0.0	No	3.022	0.001	4.0	PrematurePress	-1	3.773	665.052	8	70	Fixation	Loss	False
666.052	0.3	Lose2	0.6761	0.0	No	3.022	0.001	4.0	PrematurePress	-1	3.773	n/a	8	70	ButtonPress	Loss	False
666.324	0.2	Lose2	0.6761	0.004	No	3.022	-0.004	4.0	PrematurePress	-1	0.055	665.379	8	70	Target	Loss	False
666.379	0.3	Lose2	0.6761	0.004	No	3.022	-0.004	4.0	PrematurePress	-1	0.055	n/a	8	70	ButtonPress	Loss	False
666.525	0.5	Lose2	0.6761	n/a	No	3.022	n/a	n/a	PrematurePress	-1	n/a	n/a	8	70	Blank	Loss	False
667.026	1.45	Lose2	0.6761	n/a	No	3.022	n/a	5.0	PrematurePress	-1	0.013	666.039	8	70	Feedback	Loss	False
668.481	3.022	Lose2	0.6761	n/a	No	3.022	n/a	n/a	PrematurePress	-1	0.0	n/a	8	70	ISIslide	Loss	False
671.523	0.25	Win2	0.6667000000000001	0.0	No	2.727	0.023	n/a	NoResponse	0	n/a	n/a	8	71	Cue	MissedWin	True
671.774	4.05	Win2	0.6667000000000001	0.0	No	2.727	0.001	n/a	NoResponse	0	n/a	n/a	8	71	Fixation	MissedWin	True
675.819	0.19	Win2	0.6667000000000001	0.004	No	2.727	-0.004	4.0	NoResponse	0	0.235	675.054	8	71	Target	MissedWin	True
676.02	0.51	Win2	0.6667000000000001	n/a	No	2.727	n/a	n/a	NoResponse	0	n/a	n/a	8	71	Blank	MissedWin	True
676.054	0.3	Win2	0.6667000000000001	0.004	No	2.727	-0.004	4.0	NoResponse	0	0.235	n/a	8	71	ButtonPress	MissedWin	True
676.521	1.45	Win2	0.6667000000000001	n/a	No	2.727	n/a	5.0	NoResponse	0	0.031	675.552	8	71	Feedback	MissedWin	True
677.976	2.727	Win2	0.6667000000000001	n/a	No	2.727	n/a	n/a	NoResponse	0	0.0	n/a	8	71	ISIslide	MissedWin	True
680.717	0.25	Win2	0.6712	0.0	Yes	2.783	0.017	n/a	GoodResponse	1	n/a	n/a	9	72	Cue	Win	True
680.968	4.1	Win2	0.6712	0.0	Yes	2.783	0.001	n/a	GoodResponse	1	n/a	n/a	9	72	Fixation	Win	True
685.063	0.18	Win2	0.6712	0.004	Yes	2.783	-0.004	4.0	GoodResponse	1	0.15	684.213	9	72	Target	Win	True
685.213	0.3	Win2	0.6712	0.004	Yes	2.783	-0.004	4.0	GoodResponse	1	0.15	n/a	9	72	ButtonPress	Win	True
685.247	0.52	Win2	0.6712	n/a	Yes	2.783	n/a	n/a	GoodResponse	1	n/a	n/a	9	72	Blank	Win	True
685.765	1.45	Win2	0.6712	n/a	Yes	2.783	n/a	5.0	GoodResponse	1	0.007	684.772	9	72	Feedback	Win	True
687.22	2.783	Win2	0.6712	n/a	Yes	2.783	n/a	n/a	GoodResponse	1	0.0	n/a	9	72	ISIslide	Win	True
690.028	0.25	Win2	0.6622	0.0	No	2.672	0.028	n/a	NoResponse	0	n/a	n/a	9	73	Cue	MissedWin	True
690.279	4.0	Win2	0.6622	0.0	No	2.672	0.001	n/a	NoResponse	0	n/a	n/a	9	73	Fixation	MissedWin	True
694.274	0.17	Win2	0.6622	0.004	No	2.672	-0.004	4.0	NoResponse	0	0.193	693.467	9	73	Target	MissedWin	True
694.458	0.53	Win2	0.6622	n/a	No	2.672	n/a	n/a	NoResponse	0	n/a	n/a	9	73	Blank	MissedWin	True
694.467	0.3	Win2	0.6622	0.004	No	2.672	-0.004	4.0	NoResponse	0	0.193	n/a	9	73	ButtonPress	MissedWin	True
694.976	1.45	Win2	0.6622	n/a	No	2.672	n/a	5.0	NoResponse	0	0.014	693.99	9	73	Feedback	MissedWin	True
696.431	2.672	Win2	0.6622	n/a	No	2.672	n/a	n/a	NoResponse	0	0.0	n/a	9	73	ISIslide	MissedWin	True
699.122	0.25	Lose2	0.6533	0.0	No	2.628	0.022	n/a	NoResponse	-1	n/a	n/a	8	74	Cue	Loss	False
699.373	4.05	Lose2	0.6533	0.0	No	2.628	0.001	4.0	NoResponse	-1	3.73	702.103	8	74	Fixation	Loss	False
703.103	0.3	Lose2	0.6533	0.0	No	2.628	0.001	4.0	NoResponse	-1	3.73	n/a	8	74	ButtonPress	Loss	False
703.418	0.17	Lose2	0.6533	0.004	No	2.628	-0.004	4.0	NoResponse	-1	0.195	702.613	8	74	Target	Loss	False
703.602	0.53	Lose2	0.6533	n/a	No	2.628	n/a	n/a	NoResponse	-1	n/a	n/a	8	74	Blank	Loss	False
703.613	0.3	Lose2	0.6533	0.004	No	2.628	-0.004	4.0	NoResponse	-1	0.195	n/a	8	74	ButtonPress	Loss	False
704.12	1.45	Lose2	0.6533	n/a	No	2.628	n/a	5.0	NoResponse	-1	0.041	703.161	8	74	Feedback	Loss	False
705.575	2.628	Lose2	0.6533	n/a	No	2.628	n/a	n/a	NoResponse	-1	0.0	n/a	8	74	ISIslide	Loss	False
708.216	0.25	Lose2	0.6446999999999999	0.0	No	2.934	0.016	n/a	NoResponse	-1	n/a	n/a	7	75	Cue	Loss	True
708.467	3.95	Lose2	0.6446999999999999	0.0	No	2.934	0.001	n/a	NoResponse	-1	n/a	n/a	7	75	Fixation	Loss	True
712.412	0.18	Lose2	0.6446999999999999	0.004	No	2.934	-0.004	4.0	NoResponse	-1	0.191	711.603	7	75	Target	Loss	True
712.596	0.52	Lose2	0.6446999999999999	n/a	No	2.934	n/a	n/a	NoResponse	-1	n/a	n/a	7	75	Blank	Loss	True
712.603	0.3	Lose2	0.6446999999999999	0.004	No	2.934	-0.004	4.0	NoResponse	-1	0.191	n/a	7	75	ButtonPress	Loss	True
713.114	1.45	Lose2	0.6446999999999999	n/a	No	2.934	n/a	5.0	NoResponse	-1	0.022	712.136	7	75	Feedback	Loss	True
714.568	2.934	Lose2	0.6446999999999999	n/a	No	2.934	n/a	n/a	NoResponse	-1	0.0	n/a	7	75	ISIslide	Loss	True
717.527	0.25	Control	0.6494	0.0	Yes	3.223	0.027	n/a	GoodResponse	0	n/a	n/a	7	76	Cue	Neutral	True
717.778	4.05	Control	0.6494	0.0	Yes	3.223	0.001	n/a	GoodResponse	0	n/a	n/a	7	76	Fixation	Neutral	True
721.823	0.19	Control	0.6494	0.004	Yes	3.223	-0.004	4.0	GoodResponse	0	0.172	720.995	7	76	Target	Neutral	True
721.995	0.3	Control	0.6494	0.004	Yes	3.223	-0.004	4.0	GoodResponse	0	0.172	n/a	7	76	ButtonPress	Neutral	True
722.024	0.51	Control	0.6494	n/a	Yes	3.223	n/a	n/a	GoodResponse	0	n/a	n/a	7	76	Blank	Neutral	True
722.525	1.45	Control	0.6494	n/a	Yes	3.223	n/a	5.0	GoodResponse	0	0.025	721.55	7	76	Feedback	Neutral	True
723.98	3.223	Control	0.6494	n/a	Yes	3.223	n/a	n/a	GoodResponse	0	0.0	n/a	7	76	ISIslide	Neutral	True
727.223	0.25	Lose2	0.6537999999999999	0.0	Yes	2.577	0.023	n/a	GoodResponse	0	n/a	n/a	7	77	Cue	AvoidedLoss	True
727.473	3.95	Lose2	0.6537999999999999	0.0	Yes	2.577	0.0	n/a	GoodResponse	0	n/a	n/a	7	77	Fixation	AvoidedLoss	True
731.435	0.2	Lose2	0.6537999999999999	0.0	Yes	2.577	0.012	4.0	GoodResponse	0	0.153	730.588	7	77	Target	AvoidedLoss	True
731.588	0.3	Lose2	0.6537999999999999	0.0	Yes	2.577	0.012	4.0	GoodResponse	0	0.153	n/a	7	77	ButtonPress	AvoidedLoss	True
731.619	0.5	Lose2	0.6537999999999999	n/a	Yes	2.577	n/a	n/a	GoodResponse	0	n/a	n/a	7	77	Blank	AvoidedLoss	True
732.121	1.45	Lose2	0.6537999999999999	n/a	Yes	2.577	n/a	5.0	GoodResponse	0	0.039	731.16	7	77	Feedback	AvoidedLoss	True
733.575	2.577	Lose2	0.6537999999999999	n/a	Yes	2.577	n/a	n/a	GoodResponse	0	0.0	n/a	7	77	ISIslide	AvoidedLoss	True
