onset	duration	cue_type	current_mean_accuracy	duration_error	is_hit	isi_adjusted	onset_delay	response	response_type	reward	rt	rt_time	total_reward	trial_number	trial_phase	trial_type	one_press
11.107	0.25	Control	1.0	0.0	Yes	2.943	0.007	n/a	GoodResponse	0	n/a	n/a	0	0	Cue	Neutral	False
11.357	3.85	Control	1.0	0.0	Yes	2.943	0.0	4.0	GoodResponse	0	0.22	10.577	0	0	Fixation	Neutral	False
11.577	0.3	Control	1.0	0.0	Yes	2.943	0.0	4.0	GoodResponse	0	0.22	n/a	0	0	ButtonPress	Neutral	False
15.219	0.4	Control	1.0	0.0	Yes	2.943	0.012	4.0	GoodResponse	0	0.262	14.481	0	0	Target	Neutral	False
15.481	0.3	Control	1.0	0.0	Yes	2.943	0.012	4.0	GoodResponse	0	0.262	n/a	0	0	ButtonPress	Neutral	False
15.603	0.3	Control	1.0	n/a	Yes	2.943	n/a	n/a	GoodResponse	0	n/a	n/a	0	0	Blank	Neutral	False
15.904	1.45	Control	1.0	n/a	Yes	2.943	n/a	5.0	GoodResponse	0	0.022	14.926	0	0	Feedback	Neutral	False
17.359	2.943	Control	1.0	n/a	Yes	2.943	n/a	n/a	GoodResponse	0	0.0	n/a	0	0	ISIslide	Neutral	False
20.317	0.25	Lose2	1.0	0.001	Yes	2.783	0.017	n/a	GoodResponse	0	n/a	n/a	0	1	Cue	AvoidedLoss	True
20.568	4.0	Lose2	1.0	0.0	Yes	2.783	0.001	n/a	GoodResponse	0	n/a	n/a	0	1	Fixation	AvoidedLoss	True
24.563	0.39	Lose2	1.0	0.004	Yes	2.783	-0.004	4.0	GoodResponse	0	0.242	23.805	0	1	Target	AvoidedLoss	True
24.805	0.3	Lose2	1.0	0.004	Yes	2.783	-0.004	4.0	GoodResponse	0	0.242	n/a	0	1	ButtonPress	AvoidedLoss	True
24.965	0.31	Lose2	1.0	n/a	Yes	2.783	n/a	n/a	GoodResponse	0	n/a	n/a	0	1	Blank	AvoidedLoss	True
25.266	1.45	Lose2	1.0	n/a	Yes	2.783	n/a	5.0	GoodResponse	0	0.026	24.292	0	1	Feedback	AvoidedLoss	True
26.72	2.783	Lose2	1.0	n/a	Yes	2.783	n/a	n/a	GoodResponse	0	0.0	n/a	0	1	ISIslide	AvoidedLoss	True
29.528	0.25	Control	1.0	0.0	Yes	2.572	0.028	n/a	GoodResponse	0	n/a	n/a	0	2	Cue	Neutral	True
29.779	4.1	Control	1.0	0.0	Yes	2.572	0.001	n/a	GoodResponse	0	n/a	n/a	0	2	Fixation	Neutral	True
33.875	0.38	Control	1.0	0.003	Yes	2.572	-0.003	4.0	GoodResponse	0	0.262	33.137	0	2	Target	Neutral	True
34.137	0.3	Control	1.0	0.003	Yes	2.572	-0.003	4.0	GoodResponse	0	0.262	n/a	0	2	ButtonPress	Neutral	True
34.259	0.32	Control	1.0	n/a	Yes	2.572	n/a	n/a	GoodResponse	0	n/a	n/a	0	2	Blank	Neutral	True
34.577	1.45	Control	1.0	n/a	Yes	2.572	n/a	5.0	GoodResponse	0	0.032	33.609	0	2	Feedback	Neutral	True
36.031	2.572	Control	1.0	n/a	Yes	2.572	n/a	n/a	GoodResponse	0	0.0	n/a	0	2	ISIslide	Neutral	True
38.622	0.25	Win2	1.0	0.0	Yes	2.828	0.022	n/a	GoodResponse	1	n/a	n/a	1	3	Cue	Win	True
38.873	3.95	Win2	1.0	0.0	Yes	2.828	0.001	n/a	GoodResponse	1	n/a	n/a	1	3	Fixation	Win	True
42.818	0.37	Win2	1.0	0.004	Yes	2.828	-0.004	4.0	GoodResponse	1	0.23	42.048	1	3	Target	Win	True
43.048	0.3	Win2	1.0	0.004	Yes	2.828	-0.004	4.0	GoodResponse	1	0.23	n/a	1	3	ButtonPress	Win	True
43.202	0.33	Win2	1.0	n/a	Yes	2.828	n/a	n/a	GoodResponse	1	n/a	n/a	1	3	Blank	Win	True
43.52	1.45	Win2	1.0	n/a	Yes	2.828	n/a	5.0	GoodResponse	1	0.015	42.535	1	3	Feedback	Win	True
44.974	2.828	Win2	1.0	n/a	Yes	2.828	n/a	n/a	GoodResponse	1	0.0	n/a	1	3	ISIslide	Win	True
47.816	0.25	Win2	1.0	0.0	Yes	3.284	0.016	n/a	GoodResponse	1	n/a	n/a	2	4	Cue	Win	True
48.067	4.0	Win2	1.0	0.0	Yes	3.284	0.001	n/a	GoodResponse	1	n/a	n/a	2	4	Fixation	Win	True
52.062	0.36	Win2	1.0	0.004	Yes	3.284	-0.004	4.0	GoodResponse	1	0.255	51.317	2	4	Target	Win	True
52.317	0.3	Win2	1.0	0.004	Yes	3.284	-0.004	4.0	GoodResponse	1	0.255	n/a	2	4	ButtonPress	Win	True
52.43	0.34	Win2	1.0	n/a	Yes	3.284	n/a	n/a	GoodResponse	1	n/a	n/a	2	4	Blank	Win	True
52.764	1.45	Win2	1.0	n/a	Yes	3.284	n/a	5.0	GoodResponse	1	0.039	51.803	2	4	Feedback	Win	True
54.219	3.284	Win2	1.0	n/a	Yes	3.284	n/a	n/a	GoodResponse	1	0.0	n/a	2	4	ISIslide	Win	True
57.529	0.25	Win2	1.0	0.0	Yes	2.771	0.029	n/a	GoodResponse	1	n/a	n/a	3	5	Cue	Win	True
57.779	4.0	Win2	1.0	0.0	Yes	2.771	0.0	n/a	GoodResponse	1	n/a	n/a	3	5	Fixation	Win	True
61.775	0.35	Win2	1.0	0.004	Yes	2.771	-0.004	4.0	GoodResponse	1	0.314	61.089	3	5	Target	Win	True
62.089	0.3	Win2	1.0	0.004	Yes	2.771	-0.004	4.0	GoodResponse	1	0.314	n/a	3	5	ButtonPress	Win	True
62.126	0.35	Win2	1.0	n/a	Yes	2.771	n/a	n/a	GoodResponse	1	n/a	n/a	3	5	Blank	Win	True
62.477	1.45	Win2	1.0	n/a	Yes	2.771	n/a	5.0	GoodResponse	1	0.034	61.511	3	5	Feedback	Win	True
63.931	2.771	Win2	1.0	n/a	Yes	2.771	n/a	n/a	GoodResponse	1	0.0	n/a	3	5	ISIslide	Win	True
66.723	0.25	Lose2	1.0	0.0	Yes	2.727	0.023	n/a	GoodResponse	0	n/a	n/a	3	6	Cue	AvoidedLoss	True
66.973	3.95	Lose2	1.0	0.001	Yes	2.727	0.0	n/a	GoodResponse	0	n/a	n/a	3	6	Fixation	AvoidedLoss	True
70.919	0.34	Lose2	1.0	0.004	Yes	2.727	-0.004	4.0	GoodResponse	0	0.23	70.149	3	6	Target	AvoidedLoss	True
71.149	0.3	Lose2	1.0	0.004	Yes	2.727	-0.004	4.0	GoodResponse	0	0.23	n/a	3	6	ButtonPress	AvoidedLoss	True
71.27	0.36	Lose2	1.0	n/a	Yes	2.727	n/a	n/a	GoodResponse	0	n/a	n/a	3	6	Blank	AvoidedLoss	True
71.621	1.45	Lose2	1.0	n/a	Yes	2.727	n/a	5.0	GoodResponse	0	0.012	70.633	3	6	Feedback	AvoidedLoss	True
73.075	2.727	Lose2	1.0	n/a	Yes	2.727	n/a	n/a	GoodResponse	0	0.0	n/a	3	6	ISIslide	AvoidedLoss	True
75.817	0.25	Lose2	1.0	0.0	Yes	4.033	0.017	n/a	GoodResponse	0	n/a	n/a	3	7	Cue	AvoidedLoss	True
76.067	4.05	Lose2	1.0	0.0	Yes	4.033	0.0	n/a	GoodResponse	0	n/a	n/a	3	7	Fixation	AvoidedLoss	True
80.113	0.33	Lose2	1.0	0.004	Yes	4.033	-0.004	4.0	GoodResponse	0	0.291	79.404	3	7	Target	AvoidedLoss	True
80.404	0.3	Lose2	1.0	0.004	Yes	4.033	-0.004	4.0	GoodResponse	0	0.291	n/a	3	7	ButtonPress	AvoidedLoss	True
80.447	0.37	Lose2	1.0	n/a	Yes	4.033	n/a	n/a	GoodResponse	0	n/a	n/a	3	7	Blank	AvoidedLoss	True
80.815	1.45	Lose2	1.0	n/a	Yes	4.033	n/a	5.0	GoodResponse	0	0.036	79.851	3	7	Feedback	AvoidedLoss	True
82.269	4.033	Lose2	1.0	n/a	Yes	4.033	n/a	n/a	GoodResponse	0	0.0	n/a	3	7	ISIslide	AvoidedLoss	True
86.315	0.25	Lose2	1.0	0.0	Yes	3.035	0.015	n/a	GoodResponse	0	n/a	n/a	3	8	Cue	AvoidedLoss	True
86.565	3.95	Lose2	1.0	0.0	Yes	3.035	0.0	n/a	GoodResponse	0	n/a	n/a	3	8	Fixation	AvoidedLoss	True
90.527	0.32	Lose2	1.0	0.0	Yes	3.035	0.012	4.0	GoodResponse	0	0.245	89.772	3	8	Target	AvoidedLoss	True
90.772	0.3	Lose2	1.0	0.0	Yes	3.035	0.012	4.0	GoodResponse	0	0.245	n/a	3	8	ButtonPress	AvoidedLoss	True
90.845	0.38	Lose2	1.0	n/a	Yes	3.035	n/a	n/a	GoodResponse	0	n/a	n/a	3	8	Blank	AvoidedLoss	True
91.212	1.45	Lose2	1.0	n/a	Yes	3.035	n/a	5.0	GoodResponse	0	0.03	90.242	3	8	Feedback	AvoidedLoss	True
92.667	3.035	Lose2	1.0	n/a	Yes	3.035	n/a	n/a	GoodResponse	0	0.0	n/a	3	8	ISIslide	AvoidedLoss	True
95.726	0.25	Lose2	1.0	0.0	Yes	3.124	0.026	n/a	GoodResponse	0	n/a	n/a	3	9	Cue	AvoidedLoss	True
95.977	3.95	Lose2	1.0	0.0	Yes	3.124	0.001	n/a	GoodResponse	0	n/a	n/a	3	9	Fixation	AvoidedLoss	True
99.922	0.31	Lose2	1.0	0.004	Yes	3.124	-0.004	4.0	GoodResponse	0	0.256	99.178	3	9	Target	AvoidedLoss	True
100.178	0.3	Lose2	1.0	0.004	Yes	3.124	-0.004	4.0	GoodResponse	0	0.256	n/a	3	9	ButtonPress	AvoidedLoss	True
100.239	0.39	Lose2	1.0	n/a	Yes	3.124	n/a	n/a	GoodResponse	0	n/a	n/a	3	9	Blank	AvoidedLoss	True
100.624	1.45	Lose2	1.0	n/a	Yes	3.124	n/a	5.0	GoodResponse	0	0.032	99.656	3	9	Feedback	AvoidedLoss	True
102.078	3.124	Lose2	1.0	n/a	Yes	3.124	n/a	n/a	GoodResponse	0	0.0	n/a	3	9	ISIslide	AvoidedLoss	True
105.221	0.25	Control	1.0	0.0	Yes	3.279	0.021	n/a	GoodResponse	0	n/a	n/a	3	10	Cue	Neutral	True
105.472	4.0	Control	1.0	0.0	Yes	3.279	0.001	n/a	GoodResponse	0	n/a	n/a	3	10	Fixation	Neutral	True
109.467	0.3	Control	1.0	0.004	Yes	3.279	-0.004	4.0	GoodResponse	0	0.277	108.744	3	10	Target	Neutral	True
109.744	0.3	Control	1.0	0.004	Yes	3.279	-0.004	4.0	GoodResponse	0	0.277	n/a	3	10	ButtonPress	Neutral	True
109.768	0.4	Control	1.0	n/a	Yes	3.279	n/a	n/a	GoodResponse	0	n/a	n/a	3	10	Blank	Neutral	True
110.169	1.45	Control	1.0	n/a	Yes	3.279	n/a	5.0	GoodResponse	0	0.048	109.217	3	10	Feedback	Neutral	True
111.623	3.279	Control	1.0	n/a	Yes	3.279	n/a	n/a	GoodResponse	0	0.0	n/a	3	10	ISIslide	Neutral	True
114.917	0.25	Lose2	0.9167000000000001	0.0	No	2.733	0.017	n/a	LatePress	-1	n/a	n/a	2	11	Cue	Loss	True
115.167	4.05	Lose2	0.9167000000000001	0.0	No	2.733	0.0	n/a	LatePress	-1	n/a	n/a	2	11	Fixation	Loss	True
119.213	0.29	Lose2	0.9167000000000001	0.004	No	2.733	-0.004	4.0	LatePress	-1	0.29	118.503	2	11	Target	Loss	True
119.503	0.3	Lose2	0.9167000000000001	0.004	No	2.733	-0.004	4.0	LatePress	-1	0.29	n/a	2	11	ButtonPress	Loss	True
119.514	0.41	Lose2	0.9167000000000001	n/a	No	2.733	n/a	n/a	LatePress	-1	n/a	n/a	2	11	Blank	Loss	True
119.915	1.45	Lose2	0.9167000000000001	n/a	No	2.733	n/a	5.0	LatePress	-1	0.009	118.924	2	11	Feedback	Loss	True
121.369	2.733	Lose2	0.9167000000000001	n/a	No	2.733	n/a	n/a	LatePress	-1	0.0	n/a	2	11	ISIslide	Loss	True
124.127	0.25	Control	0.9231	0.001	Yes	2.973	0.027	n/a	GoodResponse	0	n/a	n/a	2	12	Cue	Neutral	True
124.378	3.9	Control	0.9231	0.0	Yes	2.973	0.001	n/a	GoodResponse	0	n/a	n/a	2	12	Fixation	Neutral	True
128.273	0.28	Control	0.9231	0.004	Yes	2.973	-0.004	4.0	GoodResponse	0	0.258	127.531	2	12	Target	Neutral	True
128.531	0.3	Control	0.9231	0.004	Yes	2.973	-0.004	4.0	GoodResponse	0	0.258	n/a	2	12	ButtonPress	Neutral	True
128.557	0.42	Control	0.9231	n/a	Yes	2.973	n/a	n/a	GoodResponse	0	n/a	n/a	2	12	Blank	Neutral	True
128.975	1.45	Control	0.9231	n/a	Yes	2.973	n/a	5.0	GoodResponse	0	0.022	127.997	2	12	Feedback	Neutral	True
130.43	2.973	Control	0.9231	n/a	Yes	2.973	n/a	n/a	GoodResponse	0	0.0	n/a	2	12	ISIslide	Neutral	True
133.422	0.25	Control	0.8571	0.0	No	2.778	0.022	n/a	NoResponse	0	n/a	n/a	2	13	Cue	Neutral	False
133.673	4.0	Control	0.8571	0.0	No	2.778	0.001	n/a	NoResponse	0	n/a	n/a	2	13	Fixation	Neutral	False
137.668	0.27	Control	0.8571	0.004	No	2.778	-0.004	n/a	NoResponse	0	n/a	n/a	2	13	Target	Neutral	False
137.952	0.43	Control	0.8571	n/a	No	2.778	n/a	n/a	NoResponse	0	n/a	n/a	2	13	Blank	Neutral	False
138.37	1.45	Control	0.8571	n/a	No	2.778	n/a	5.0	NoResponse	0	0.042	137.412	2	13	Feedback	Neutral	False
139.824	2.778	Control	0.8571	n/a	No	2.778	n/a	n/a	NoResponse	0	0.0	n/a	2	13	ISIslide	Neutral	False
142.616	0.25	Win2	0.8	0.0	No	2.684	0.016	n/a	NoResponse	0	n/a	n/a	2	14	Cue	MissedWin	True
142.867	4.1	Win2	0.8	0.0	No	2.684	0.001	n/a	NoResponse	0	n/a	n/a	2	14	Fixation	MissedWin	True
146.962	0.26	Win2	0.8	0.004	No	2.684	-0.004	4.0	NoResponse	0	0.354	146.316	2	14	Target	MissedWin	True
147.23	0.44	Win2	0.8	n/a	No	2.684	n/a	n/a	NoResponse	0	n/a	n/a	2	14	Blank	MissedWin	True
147.316	0.3	Win2	0.8	0.004	No	2.684	-0.004	4.0	NoResponse	0	0.354	n/a	2	14	ButtonPress	MissedWin	True
147.664	1.45	Win2	0.8	n/a	No	2.684	n/a	5.0	NoResponse	0	0.016	146.68	2	14	Feedback	MissedWin	True
149.119	2.684	Win2	0.8	n/a	No	2.684	n/a	n/a	NoResponse	0	0.0	n/a	2	14	ISIslide	MissedWin	True
151.827	0.25	Control	0.8125	0.0	Yes	2.973	0.027	n/a	GoodResponse	0	n/a	n/a	2	15	Cue	Neutral	True
152.078	4.0	Control	0.8125	0.0	Yes	2.973	0.001	n/a	GoodResponse	0	n/a	n/a	2	15	Fixation	Neutral	True
156.073	0.25	Control	0.8125	0.004	Yes	2.973	-0.004	4.0	GoodResponse	0	0.243	155.316	2	15	Target	Neutral	True
156.316	0.3	Control	0.8125	0.004	Yes	2.973	-0.004	4.0	GoodResponse	0	0.243	n/a	2	15	ButtonPress	Neutral	True
156.324	0.45	Control	0.8125	n/a	Yes	2.973	n/a	n/a	GoodResponse	0	n/a	n/a	2	15	Blank	Neutral	True
156.775	1.45	Control	0.8125	n/a	Yes	2.973	n/a	5.0	GoodResponse	0	0.026	155.801	2	15	Feedback	Neutral	True
158.229	2.973	Control	0.8125	n/a	Yes	2.973	n/a	n/a	GoodResponse	0	0.0	n/a	2	15	ISIslide	Neutral	True
161.222	0.25	Win2	0.7646999999999999	0.0	No	2.878	0.022	n/a	LatePress	0	n/a	n/a	2	16	Cue	MissedWin	True
161.472	4.0	Win2	0.7646999999999999	0.0	No	2.878	0.0	n/a	LatePress	0	n/a	n/a	2	16	Fixation	MissedWin	True
165.468	0.24	Win2	0.7646999999999999	0.004	No	2.878	-0.004	4.0	LatePress	0	0.243	164.711	2	16	Target	MissedWin	True
165.711	0.3	Win2	0.7646999999999999	0.004	No	2.878	-0.004	4.0	LatePress	0	0.243	n/a	2	16	ButtonPress	MissedWin	True
165.718	0.46	Win2	0.7646999999999999	n/a	No	2.878	n/a	n/a	LatePress	0	n/a	n/a	2	16	Blank	MissedWin	True
166.17	1.45	Win2	0.7646999999999999	n/a	No	2.878	n/a	5.0	LatePress	0	0.046	165.216	2	16	Feedback	MissedWin	True
167.624	2.878	Win2	0.7646999999999999	n/a	No	2.878	n/a	n/a	LatePress	0	0.0	n/a	2	16	ISIslide	MissedWin	True
170.516	0.25	Lose2	0.7222	0.0	No	2.734	0.016	n/a	NoResponse	-1	n/a	n/a	1	17	Cue	Loss	True
170.767	3.95	Lose2	0.7222	0.0	No	2.734	0.001	n/a	NoResponse	-1	n/a	n/a	1	17	Fixation	Loss	True
174.712	0.23	Lose2	0.7222	0.004	No	2.734	-0.004	3.0	NoResponse	-1	0.49	174.202	1	17	Target	Loss	True
174.946	0.47	Lose2	0.7222	n/a	No	2.734	n/a	n/a	NoResponse	-1	n/a	n/a	1	17	Blank	Loss	True
175.202	0.3	Lose2	0.7222	0.004	No	2.734	-0.004	3.0	NoResponse	-1	0.49	n/a	1	17	ButtonPress	Loss	True
175.414	1.45	Lose2	0.7222	n/a	No	2.734	n/a	5.0	NoResponse	-1	0.022	174.436	1	17	Feedback	Loss	True
176.868	2.734	Lose2	0.7222	n/a	No	2.734	n/a	n/a	NoResponse	-1	0.0	n/a	1	17	ISIslide	Loss	True
179.627	0.25	Lose2	0.6842	0.0	No	2.723	0.027	n/a	NoResponse	-1	n/a	n/a	0	18	Cue	Loss	True
179.877	4.05	Lose2	0.6842	0.0	No	2.723	0.0	n/a	NoResponse	-1	n/a	n/a	0	18	Fixation	Loss	True
183.923	0.22	Lose2	0.6842	0.004	No	2.723	-0.004	3.0	NoResponse	-1	0.241	183.164	0	18	Target	Loss	True
184.157	0.48	Lose2	0.6842	n/a	No	2.723	n/a	n/a	NoResponse	-1	n/a	n/a	0	18	Blank	Loss	True
184.164	0.3	Lose2	0.6842	0.004	No	2.723	-0.004	3.0	NoResponse	-1	0.241	n/a	0	18	ButtonPress	Loss	True
184.625	1.45	Lose2	0.6842	n/a	No	2.723	n/a	5.0	NoResponse	-1	0.03	183.655	0	18	Feedback	Loss	True
186.079	2.723	Lose2	0.6842	n/a	No	2.723	n/a	n/a	NoResponse	-1	0.0	n/a	0	18	ISIslide	Loss	True
188.821	0.25	Control	0.65	0.0	No	2.929	0.021	n/a	NoResponse	0	n/a	n/a	0	19	Cue	Neutral	True
189.071	3.95	Control	0.65	0.0	No	2.929	0.0	n/a	NoResponse	0	n/a	n/a	0	19	Fixation	Neutral	True
193.017	0.21	Control	0.65	0.004	No	2.929	-0.004	3.0	NoResponse	0	0.252	192.269	0	19	Target	Neutral	True
193.234	0.49	Control	0.65	n/a	No	2.929	n/a	n/a	NoResponse	0	n/a	n/a	0	19	Blank	Neutral	True
193.269	0.3	Control	0.65	0.004	No	2.929	-0.004	3.0	NoResponse	0	0.252	n/a	0	19	ButtonPress	Neutral	True
193.719	1.45	Control	0.65	n/a	No	2.929	n/a	5.0	NoResponse	0	0.008	192.727	0	19	Feedback	Neutral	True
195.173	2.929	Control	0.65	n/a	No	2.929	n/a	n/a	NoResponse	0	0.0	n/a	0	19	ISIslide	Neutral	True
198.115	0.25	Control	0.619	0.0	No	2.635	0.015	n/a	NoResponse	0	n/a	n/a	0	20	Cue	Neutral	True
198.366	4.05	Control	0.619	0.0	No	2.635	0.001	n/a	NoResponse	0	n/a	n/a	0	20	Fixation	Neutral	True
202.411	0.22	Control	0.619	0.004	No	2.635	-0.004	3.0	NoResponse	0	0.242	201.653	0	20	Target	Neutral	True
202.645	0.48	Control	0.619	n/a	No	2.635	n/a	n/a	NoResponse	0	n/a	n/a	0	20	Blank	Neutral	True
202.653	0.3	Control	0.619	0.004	No	2.635	-0.004	3.0	NoResponse	0	0.242	n/a	0	20	ButtonPress	Neutral	True
203.113	1.45	Control	0.619	n/a	No	2.635	n/a	5.0	NoResponse	0	0.029	202.142	0	20	Feedback	Neutral	True
204.568	2.635	Control	0.619	n/a	No	2.635	n/a	n/a	NoResponse	0	0.0	n/a	0	20	ISIslide	Neutral	True
207.226	0.25	Control	0.5909	0.0	No	2.774	0.026	n/a	NoResponse	0	n/a	n/a	0	21	Cue	Neutral	True
207.476	4.1	Control	0.5909	0.0	No	2.774	0.0	n/a	NoResponse	0	n/a	n/a	0	21	Fixation	Neutral	True
211.572	0.23	Control	0.5909	0.004	No	2.774	-0.004	3.0	NoResponse	0	0.261	210.833	0	21	Target	Neutral	True
211.806	0.47	Control	0.5909	n/a	No	2.774	n/a	n/a	NoResponse	0	n/a	n/a	0	21	Blank	Neutral	True
211.833	0.3	Control	0.5909	0.004	No	2.774	-0.004	3.0	NoResponse	0	0.261	n/a	0	21	ButtonPress	Neutral	True
212.274	1.45	Control	0.5909	n/a	No	2.774	n/a	5.0	NoResponse	0	0.039	211.313	0	21	Feedback	Neutral	True
213.728	2.774	Control	0.5909	n/a	No	2.774	n/a	n/a	NoResponse	0	0.0	n/a	0	21	ISIslide	Neutral	True
216.52	0.25	Control	0.5652	0.0	No	2.78	0.02	n/a	NoResponse	0	n/a	n/a	0	22	Cue	Neutral	True
216.771	4.0	Control	0.5652	0.0	No	2.78	0.001	n/a	NoResponse	0	n/a	n/a	0	22	Fixation	Neutral	True
220.766	0.24	Control	0.5652	0.004	No	2.78	-0.004	3.0	NoResponse	0	0.398	220.164	0	22	Target	Neutral	True
221.017	0.46	Control	0.5652	n/a	No	2.78	n/a	n/a	NoResponse	0	n/a	n/a	0	22	Blank	Neutral	True
221.164	0.3	Control	0.5652	0.004	No	2.78	-0.004	3.0	NoResponse	0	0.398	n/a	0	22	ButtonPress	Neutral	True
221.468	1.45	Control	0.5652	n/a	No	2.78	n/a	5.0	NoResponse	0	0.016	220.484	0	22	Feedback	Neutral	True
222.922	2.78	Control	0.5652	n/a	No	2.78	n/a	n/a	NoResponse	0	0.0	n/a	0	22	ISIslide	Neutral	True
225.714	0.25	Control	0.5832999999999999	0.0	Yes	2.786	0.014	n/a	GoodResponse	0	n/a	n/a	0	23	Cue	Neutral	True
225.965	3.9	Control	0.5832999999999999	0.0	Yes	2.786	0.001	n/a	GoodResponse	0	n/a	n/a	0	23	Fixation	Neutral	True
229.86	0.25	Control	0.5832999999999999	0.004	Yes	2.786	-0.004	1.0	GoodResponse	0	0.243	229.103	0	23	Target	Neutral	True
230.103	0.3	Control	0.5832999999999999	0.004	Yes	2.786	-0.004	1.0	GoodResponse	0	0.243	n/a	0	23	ButtonPress	Neutral	True
230.111	0.45	Control	0.5832999999999999	n/a	Yes	2.786	n/a	n/a	GoodResponse	0	n/a	n/a	0	23	Blank	Neutral	True
230.562	1.45	Control	0.5832999999999999	n/a	Yes	2.786	n/a	5.0	GoodResponse	0	0.043	229.605	0	23	Feedback	Neutral	True
232.016	2.786	Control	0.5832999999999999	n/a	Yes	2.786	n/a	n/a	GoodResponse	0	0.0	n/a	0	23	ISIslide	Neutral	True
234.825	0.25	Win2	0.6	0.0	Yes	3.125	0.025	n/a	GoodResponse	1	n/a	n/a	1	24	Cue	Win	True
235.075	3.95	Win2	0.6	0.001	Yes	3.125	0.0	n/a	GoodResponse	1	n/a	n/a	1	24	Fixation	Win	True
239.021	0.26	Win2	0.6	0.004	Yes	3.125	-0.004	1.0	GoodResponse	1	0.258	238.279	1	24	Target	Win	True
239.279	0.3	Win2	0.6	0.004	Yes	3.125	-0.004	1.0	GoodResponse	1	0.258	n/a	1	24	ButtonPress	Win	True
239.288	0.44	Win2	0.6	n/a	Yes	3.125	n/a	n/a	GoodResponse	1	n/a	n/a	1	24	Blank	Win	True
239.723	1.45	Win2	0.6	n/a	Yes	3.125	n/a	5.0	GoodResponse	1	0.007	238.73	1	24	Feedback	Win	True
241.177	3.125	Win2	0.6	n/a	Yes	3.125	n/a	n/a	GoodResponse	1	0.0	n/a	1	24	ISIslide	Win	True
244.32	0.25	Win2	0.6154	0.0	Yes	3.08	0.02	n/a	GoodResponse	1	n/a	n/a	2	25	Cue	Win	True
244.57	4.0	Win2	0.6154	0.001	Yes	3.08	0.0	n/a	GoodResponse	1	n/a	n/a	2	25	Fixation	Win	True
248.566	0.27	Win2	0.6154	0.004	Yes	3.08	-0.004	1.0	GoodResponse	1	0.248	247.814	2	25	Target	Win	True
248.814	0.3	Win2	0.6154	0.004	Yes	3.08	-0.004	1.0	GoodResponse	1	0.248	n/a	2	25	ButtonPress	Win	True
248.85	0.43	Win2	0.6154	n/a	Yes	3.08	n/a	n/a	GoodResponse	1	n/a	n/a	2	25	Blank	Win	True
249.268	1.45	Win2	0.6154	n/a	Yes	3.08	n/a	5.0	GoodResponse	1	0.02	248.288	2	25	Feedback	Win	True
250.722	3.08	Win2	0.6154	n/a	Yes	3.08	n/a	n/a	GoodResponse	1	0.0	n/a	2	25	ISIslide	Win	True
253.815	0.25	Win2	0.6296	0.0	Yes	2.935	0.015	n/a	GoodResponse	1	n/a	n/a	3	26	Cue	Win	True
254.066	3.95	Win2	0.6296	0.0	Yes	2.935	0.001	n/a	GoodResponse	1	n/a	n/a	3	26	Fixation	Win	True
258.011	0.28	Win2	0.6296	0.004	Yes	2.935	-0.004	1.0	GoodResponse	1	0.275	257.286	3	26	Target	Win	True
258.286	0.3	Win2	0.6296	0.004	Yes	2.935	-0.004	1.0	GoodResponse	1	0.275	n/a	3	26	ButtonPress	Win	True
258.295	0.42	Win2	0.6296	n/a	Yes	2.935	n/a	n/a	GoodResponse	1	n/a	n/a	3	26	Blank	Win	True
258.713	1.45	Win2	0.6296	n/a	Yes	2.935	n/a	5.0	GoodResponse	1	0.039	257.752	3	26	Feedback	Win	True
260.167	2.935	Win2	0.6296	n/a	Yes	2.935	n/a	n/a	GoodResponse	1	0.0	n/a	3	26	ISIslide	Win	True
263.126	0.25	Lose2	0.6429	0.0	Yes	2.824	0.026	n/a	GoodResponse	0	n/a	n/a	3	27	Cue	AvoidedLoss	True
263.377	4.05	Lose2	0.6429	0.0	Yes	2.824	0.001	n/a	GoodResponse	0	n/a	n/a	3	27	Fixation	AvoidedLoss	True
267.422	0.29	Lose2	0.6429	0.004	Yes	2.824	-0.004	1.0	GoodResponse	0	0.279	266.701	3	27	Target	AvoidedLoss	True
267.701	0.3	Lose2	0.6429	0.004	Yes	2.824	-0.004	1.0	GoodResponse	0	0.279	n/a	3	27	ButtonPress	AvoidedLoss	True
267.723	0.41	Lose2	0.6429	n/a	Yes	2.824	n/a	n/a	GoodResponse	0	n/a	n/a	3	27	Blank	AvoidedLoss	True
268.124	1.45	Lose2	0.6429	n/a	Yes	2.824	n/a	5.0	GoodResponse	0	0.041	267.165	3	27	Feedback	AvoidedLoss	True
269.579	2.824	Lose2	0.6429	n/a	Yes	2.824	n/a	n/a	GoodResponse	0	0.0	n/a	3	27	ISIslide	AvoidedLoss	True
272.42	0.25	Control	0.6552	0.0	Yes	2.83	0.02	n/a	GoodResponse	0	n/a	n/a	3	28	Cue	Neutral	True
272.671	4.05	Control	0.6552	0.0	Yes	2.83	0.001	n/a	GoodResponse	0	n/a	n/a	3	28	Fixation	Neutral	True
276.716	0.3	Control	0.6552	0.004	Yes	2.83	-0.004	1.0	GoodResponse	0	0.251	275.967	3	28	Target	Neutral	True
276.967	0.3	Control	0.6552	0.004	Yes	2.83	-0.004	1.0	GoodResponse	0	0.251	n/a	3	28	ButtonPress	Neutral	True
277.017	0.4	Control	0.6552	n/a	Yes	2.83	n/a	n/a	GoodResponse	0	n/a	n/a	3	28	Blank	Neutral	True
277.419	1.45	Control	0.6552	n/a	Yes	2.83	n/a	5.0	GoodResponse	0	0.015	276.434	3	28	Feedback	Neutral	True
278.873	2.83	Control	0.6552	n/a	Yes	2.83	n/a	n/a	GoodResponse	0	0.0	n/a	3	28	ISIslide	Neutral	True
281.731	0.25	Lose2	0.6667000000000001	0.001	Yes	2.819	0.031	n/a	GoodResponse	0	n/a	n/a	3	29	Cue	AvoidedLoss	True
281.982	3.95	Lose2	0.6667000000000001	0.0	Yes	2.819	0.001	n/a	GoodResponse	0	n/a	n/a	3	29	Fixation	AvoidedLoss	True
285.927	0.3	Lose2	0.6667000000000001	0.004	Yes	2.819	-0.004	1.0	GoodResponse	0	0.242	285.169	3	29	Target	AvoidedLoss	True
286.169	0.3	Lose2	0.6667000000000001	0.004	Yes	2.819	-0.004	1.0	GoodResponse	0	0.242	n/a	3	29	ButtonPress	AvoidedLoss	True
286.228	0.4	Lose2	0.6667000000000001	n/a	Yes	2.819	n/a	n/a	GoodResponse	0	n/a	n/a	3	29	Blank	AvoidedLoss	True
286.629	1.45	Lose2	0.6667000000000001	n/a	Yes	2.819	n/a	5.0	GoodResponse	0	0.024	285.653	3	29	Feedback	AvoidedLoss	True
288.084	2.819	Lose2	0.6667000000000001	n/a	Yes	2.819	n/a	n/a	GoodResponse	0	0.0	n/a	3	29	ISIslide	AvoidedLoss	True
290.926	0.25	Win2	0.6774	0.0	Yes	2.774	0.026	n/a	GoodResponse	1	n/a	n/a	4	30	Cue	Win	True
291.176	3.9	Win2	0.6774	0.0	Yes	2.774	0.0	n/a	GoodResponse	1	n/a	n/a	4	30	Fixation	Win	True
295.088	0.29	Win2	0.6774	0.0	Yes	2.774	0.012	1.0	GoodResponse	1	0.264	294.352	4	30	Target	Win	True
295.352	0.3	Win2	0.6774	0.0	Yes	2.774	0.012	1.0	GoodResponse	1	0.264	n/a	4	30	ButtonPress	Win	True
295.372	0.41	Win2	0.6774	n/a	Yes	2.774	n/a	n/a	GoodResponse	1	n/a	n/a	4	30	Blank	Win	True
295.773	1.45	Win2	0.6774	n/a	Yes	2.774	n/a	5.0	GoodResponse	1	0.002	294.775	4	30	Feedback	Win	True
297.228	2.774	Win2	0.6774	n/a	Yes	2.774	n/a	n/a	GoodResponse	1	0.0	n/a	4	30	ISIslide	Win	True
300.019	0.25	Lose2	0.6875	0.001	Yes	2.831	0.019	n/a	GoodResponse	0	n/a	n/a	4	31	Cue	AvoidedLoss	True
300.27	4.05	Lose2	0.6875	0.0	Yes	2.831	0.001	n/a	GoodResponse	0	n/a	n/a	4	31	Fixation	AvoidedLoss	True
304.316	0.28	Lose2	0.6875	0.003	Yes	2.831	-0.003	1.0	GoodResponse	0	0.253	303.569	4	31	Target	AvoidedLoss	True
304.569	0.3	Lose2	0.6875	0.003	Yes	2.831	-0.003	1.0	GoodResponse	0	0.253	n/a	4	31	ButtonPress	AvoidedLoss	True
304.6	0.42	Lose2	0.6875	n/a	Yes	2.831	n/a	n/a	GoodResponse	0	n/a	n/a	4	31	Blank	AvoidedLoss	True
305.018	1.45	Lose2	0.6875	n/a	Yes	2.831	n/a	5.0	GoodResponse	0	0.025	304.043	4	31	Feedback	AvoidedLoss	True
306.472	2.831	Lose2	0.6875	n/a	Yes	2.831	n/a	n/a	GoodResponse	0	0.0	n/a	4	31	ISIslide	AvoidedLoss	True
309.331	0.25	Lose2	0.6667000000000001	0.0	No	2.619	0.031	n/a	LatePress	-1	n/a	n/a	3	32	Cue	Loss	True
309.581	4.15	Lose2	0.6667000000000001	0.0	No	2.619	0.0	n/a	LatePress	-1	n/a	n/a	3	32	Fixation	Loss	True
313.727	0.27	Lose2	0.6667000000000001	0.004	No	2.619	-0.004	1.0	LatePress	-1	0.275	313.002	3	32	Target	Loss	True
314.002	0.3	Lose2	0.6667000000000001	0.004	No	2.619	-0.004	1.0	LatePress	-1	0.275	n/a	3	32	ButtonPress	Loss	True
314.011	0.43	Lose2	0.6667000000000001	n/a	No	2.619	n/a	n/a	LatePress	-1	n/a	n/a	3	32	Blank	Loss	True
314.429	1.45	Lose2	0.6667000000000001	n/a	No	2.619	n/a	5.0	LatePress	-1	0.028	313.457	3	32	Feedback	Loss	True
315.883	2.619	Lose2	0.6667000000000001	n/a	No	2.619	n/a	n/a	LatePress	-1	0.0	n/a	3	32	ISIslide	Loss	True
318.525	0.25	Win2	0.6765000000000001	0.0	Yes	2.675	0.025	n/a	GoodResponse	1	n/a	n/a	4	33	Cue	Win	True
318.775	4.0	Win2	0.6765000000000001	0.001	Yes	2.675	0.0	n/a	GoodResponse	1	n/a	n/a	4	33	Fixation	Win	True
322.771	0.26	Win2	0.6765000000000001	0.004	Yes	2.675	-0.004	1.0	GoodResponse	1	0.228	321.999	4	33	Target	Win	True
322.999	0.3	Win2	0.6765000000000001	0.004	Yes	2.675	-0.004	1.0	GoodResponse	1	0.228	n/a	4	33	ButtonPress	Win	True
323.038	0.44	Win2	0.6765000000000001	n/a	Yes	2.675	n/a	n/a	GoodResponse	1	n/a	n/a	4	33	Blank	Win	True
323.473	1.45	Win2	0.6765000000000001	n/a	Yes	2.675	n/a	5.0	GoodResponse	1	0.009	322.482	4	33	Feedback	Win	True
324.927	2.675	Win2	0.6765000000000001	n/a	Yes	2.675	n/a	n/a	GoodResponse	1	0.0	n/a	4	33	ISIslide	Win	True
327.619	0.25	Lose2	0.6857	0.0	Yes	2.631	0.019	n/a	GoodResponse	0	n/a	n/a	4	34	Cue	AvoidedLoss	True
327.869	4.05	Lose2	0.6857	0.0	Yes	2.631	0.0	n/a	GoodResponse	0	n/a	n/a	4	34	Fixation	AvoidedLoss	True
331.915	0.25	Lose2	0.6857	0.004	Yes	2.631	-0.004	1.0	GoodResponse	0	0.249	331.164	4	34	Target	AvoidedLoss	True
332.164	0.3	Lose2	0.6857	0.004	Yes	2.631	-0.004	1.0	GoodResponse	0	0.249	n/a	4	34	ButtonPress	AvoidedLoss	True
332.165	0.45	Lose2	0.6857	n/a	Yes	2.631	n/a	n/a	GoodResponse	0	n/a	n/a	4	34	Blank	AvoidedLoss	True
332.617	1.45	Lose2	0.6857	n/a	Yes	2.631	n/a	5.0	GoodResponse	0	0.036	331.653	4	34	Feedback	AvoidedLoss	True
334.071	2.631	Lose2	0.6857	n/a	Yes	2.631	n/a	n/a	GoodResponse	0	0.0	n/a	4	34	ISIslide	AvoidedLoss	True
336.729	0.25	Lose2	0.6667000000000001	0.0	No	2.671	0.029	n/a	NoResponse	-1	n/a	n/a	3	35	Cue	Loss	True
336.98	4.0	Lose2	0.6667000000000001	0.0	No	2.671	0.001	n/a	NoResponse	-1	n/a	n/a	3	35	Fixation	Loss	True
340.975	0.24	Lose2	0.6667000000000001	0.004	No	2.671	-0.004	1.0	NoResponse	-1	0.251	340.226	3	35	Target	Loss	True
341.226	0.46	Lose2	0.6667000000000001	n/a	No	2.671	n/a	n/a	NoResponse	-1	n/a	n/a	3	35	Blank	Loss	True
341.226	0.3	Lose2	0.6667000000000001	0.004	No	2.671	-0.004	1.0	NoResponse	-1	0.251	n/a	3	35	ButtonPress	Loss	True
341.677	1.45	Lose2	0.6667000000000001	n/a	No	2.671	n/a	5.0	NoResponse	-1	0.048	340.725	3	35	Feedback	Loss	True
343.132	2.671	Lose2	0.6667000000000001	n/a	No	2.671	n/a	n/a	NoResponse	-1	0.0	n/a	3	35	ISIslide	Loss	True
345.823	0.25	Control	0.6486	0.0	No	2.677	0.023	n/a	NoResponse	0	n/a	n/a	3	36	Cue	Neutral	True
346.074	4.0	Control	0.6486	0.0	No	2.677	0.001	n/a	NoResponse	0	n/a	n/a	3	36	Fixation	Neutral	True
350.069	0.23	Control	0.6486	0.004	No	2.677	-0.004	1.0	NoResponse	0	0.409	349.478	3	36	Target	Neutral	True
350.303	0.47	Control	0.6486	n/a	No	2.677	n/a	n/a	NoResponse	0	n/a	n/a	3	36	Blank	Neutral	True
350.478	0.3	Control	0.6486	0.004	No	2.677	-0.004	1.0	NoResponse	0	0.409	n/a	3	36	ButtonPress	Neutral	True
350.771	1.45	Control	0.6486	n/a	No	2.677	n/a	5.0	NoResponse	0	0.027	349.798	3	36	Feedback	Neutral	True
352.225	2.677	Control	0.6486	n/a	No	2.677	n/a	n/a	NoResponse	0	0.0	n/a	3	36	ISIslide	Neutral	True
354.917	0.25	Win2	0.6579	0.0	Yes	2.883	0.017	n/a	GoodResponse	1	n/a	n/a	4	37	Cue	Win	True
355.167	4.0	Win2	0.6579	0.001	Yes	2.883	0.0	n/a	GoodResponse	1	n/a	n/a	4	37	Fixation	Win	True
359.163	0.24	Win2	0.6579	0.004	Yes	2.883	-0.004	1.0	GoodResponse	1	0.218	358.381	4	37	Target	Win	True
359.381	0.3	Win2	0.6579	0.004	Yes	2.883	-0.004	1.0	GoodResponse	1	0.218	n/a	4	37	ButtonPress	Win	True
359.413	0.46	Win2	0.6579	n/a	Yes	2.883	n/a	n/a	GoodResponse	1	n/a	n/a	4	37	Blank	Win	True
359.865	1.45	Win2	0.6579	n/a	Yes	2.883	n/a	5.0	GoodResponse	1	0.008	358.873	4	37	Feedback	Win	True
361.319	2.883	Win2	0.6579	n/a	Yes	2.883	n/a	n/a	GoodResponse	1	0.0	n/a	4	37	ISIslide	Win	True
364.228	0.25	Lose2	0.6667000000000001	0.0	Yes	2.822	0.028	n/a	GoodResponse	0	n/a	n/a	4	38	Cue	AvoidedLoss	True
364.479	3.95	Lose2	0.6667000000000001	0.0	Yes	2.822	0.001	n/a	GoodResponse	0	n/a	n/a	4	38	Fixation	AvoidedLoss	True
368.424	0.24	Lose2	0.6667000000000001	0.004	Yes	2.822	-0.004	1.0	GoodResponse	0	0.239	367.663	4	38	Target	AvoidedLoss	True
368.663	0.3	Lose2	0.6667000000000001	0.004	Yes	2.822	-0.004	1.0	GoodResponse	0	0.239	n/a	4	38	ButtonPress	AvoidedLoss	True
368.674	0.46	Lose2	0.6667000000000001	n/a	Yes	2.822	n/a	n/a	GoodResponse	0	n/a	n/a	4	38	Blank	AvoidedLoss	True
369.126	1.45	Lose2	0.6667000000000001	n/a	Yes	2.822	n/a	5.0	GoodResponse	0	0.014	368.14	4	38	Feedback	AvoidedLoss	True
370.58	2.822	Lose2	0.6667000000000001	n/a	Yes	2.822	n/a	n/a	GoodResponse	0	0.0	n/a	4	38	ISIslide	AvoidedLoss	True
373.422	0.25	Win2	0.675	0.0	Yes	2.978	0.022	n/a	GoodResponse	1	n/a	n/a	5	39	Cue	Win	True
373.673	4.1	Win2	0.675	0.0	Yes	2.978	0.001	n/a	GoodResponse	1	n/a	n/a	5	39	Fixation	Win	True
377.768	0.23	Win2	0.675	0.004	Yes	2.978	-0.004	1.0	GoodResponse	1	0.214	376.982	5	39	Target	Win	True
377.982	0.3	Win2	0.675	0.004	Yes	2.978	-0.004	1.0	GoodResponse	1	0.214	n/a	5	39	ButtonPress	Win	True
378.002	0.47	Win2	0.675	n/a	Yes	2.978	n/a	n/a	GoodResponse	1	n/a	n/a	5	39	Blank	Win	True
378.47	1.45	Win2	0.675	n/a	Yes	2.978	n/a	5.0	GoodResponse	1	0.035	377.505	5	39	Feedback	Win	True
379.925	2.978	Win2	0.675	n/a	Yes	2.978	n/a	n/a	GoodResponse	1	0.0	n/a	5	39	ISIslide	Win	True
382.917	0.25	Win2	0.6585	0.0	No	2.733	0.017	n/a	NoResponse	0	n/a	n/a	5	40	Cue	MissedWin	True
383.168	3.95	Win2	0.6585	0.0	No	2.733	0.001	n/a	NoResponse	0	n/a	n/a	5	40	Fixation	MissedWin	True
387.113	0.22	Win2	0.6585	0.004	No	2.733	-0.004	1.0	NoResponse	0	0.317	386.43	5	40	Target	MissedWin	True
387.347	0.48	Win2	0.6585	n/a	No	2.733	n/a	n/a	NoResponse	0	n/a	n/a	5	40	Blank	MissedWin	True
387.43	0.3	Win2	0.6585	0.004	No	2.733	-0.004	1.0	NoResponse	0	0.317	n/a	5	40	ButtonPress	MissedWin	True
387.815	1.45	Win2	0.6585	n/a	No	2.733	n/a	5.0	NoResponse	0	0.008	386.823	5	40	Feedback	MissedWin	True
389.269	2.733	Win2	0.6585	n/a	No	2.733	n/a	n/a	NoResponse	0	0.0	n/a	5	40	ISIslide	MissedWin	True
392.028	0.25	Win2	0.6429	0.0	No	2.772	0.028	n/a	NoResponse	0	n/a	n/a	5	41	Cue	MissedWin	True
392.278	3.9	Win2	0.6429	0.0	No	2.772	0.0	n/a	NoResponse	0	n/a	n/a	5	41	Fixation	MissedWin	True
396.19	0.22	Win2	0.6429	0.0	No	2.772	0.012	1.0	NoResponse	0	0.227	395.417	5	41	Target	MissedWin	True
396.407	0.48	Win2	0.6429	n/a	No	2.772	n/a	n/a	NoResponse	0	n/a	n/a	5	41	Blank	MissedWin	True
396.417	0.3	Win2	0.6429	0.0	No	2.772	0.012	1.0	NoResponse	0	0.227	n/a	5	41	ButtonPress	MissedWin	True
396.875	1.45	Win2	0.6429	n/a	No	2.772	n/a	5.0	NoResponse	0	0.02	395.895	5	41	Feedback	MissedWin	True
398.33	2.772	Win2	0.6429	n/a	No	2.772	n/a	n/a	NoResponse	0	0.0	n/a	5	41	ISIslide	MissedWin	True
401.121	0.25	Control	0.6279	0.0	No	2.929	0.021	n/a	NoResponse	0	n/a	n/a	5	42	Cue	Neutral	True
401.372	3.85	Control	0.6279	0.0	No	2.929	0.001	n/a	NoResponse	0	n/a	n/a	5	42	Fixation	Neutral	True
405.217	0.23	Control	0.6279	0.004	No	2.929	-0.004	1.0	NoResponse	0	0.307	404.524	5	42	Target	Neutral	True
405.451	0.47	Control	0.6279	n/a	No	2.929	n/a	n/a	NoResponse	0	n/a	n/a	5	42	Blank	Neutral	True
405.524	0.3	Control	0.6279	0.004	No	2.929	-0.004	1.0	NoResponse	0	0.307	n/a	5	42	ButtonPress	Neutral	True
405.919	1.45	Control	0.6279	n/a	No	2.929	n/a	5.0	NoResponse	0	0.001	404.92	5	42	Feedback	Neutral	True
407.373	2.929	Control	0.6279	n/a	No	2.929	n/a	n/a	NoResponse	0	0.0	n/a	5	42	ISIslide	Neutral	True
410.315	0.25	Win2	0.6364	0.001	Yes	3.185	0.015	n/a	GoodResponse	1	n/a	n/a	6	43	Cue	Win	True
410.566	4.0	Win2	0.6364	0.0	Yes	3.185	0.001	n/a	GoodResponse	1	n/a	n/a	6	43	Fixation	Win	True
414.561	0.24	Win2	0.6364	0.004	Yes	3.185	-0.004	1.0	GoodResponse	1	0.211	413.772	6	43	Target	Win	True
414.772	0.3	Win2	0.6364	0.004	Yes	3.185	-0.004	1.0	GoodResponse	1	0.211	n/a	6	43	ButtonPress	Win	True
414.812	0.46	Win2	0.6364	n/a	Yes	3.185	n/a	n/a	GoodResponse	1	n/a	n/a	6	43	Blank	Win	True
415.264	1.45	Win2	0.6364	n/a	Yes	3.185	n/a	5.0	GoodResponse	1	0.021	414.285	6	43	Feedback	Win	True
416.718	3.185	Win2	0.6364	n/a	Yes	3.185	n/a	n/a	GoodResponse	1	0.0	n/a	6	43	ISIslide	Win	True
419.928	0.25	Win2	0.6222	0.0	No	2.972	0.028	n/a	NoResponse	0	n/a	n/a	6	44	Cue	MissedWin	True
420.178	4.0	Win2	0.6222	0.0	No	2.972	0.0	n/a	NoResponse	0	n/a	n/a	6	44	Fixation	MissedWin	True
424.174	0.25	Win2	0.6222	0.004	No	2.972	-0.004	1.0	NoResponse	0	0.298	423.472	6	44	Target	MissedWin	True
424.424	0.45	Win2	0.6222	n/a	No	2.972	n/a	n/a	NoResponse	0	n/a	n/a	6	44	Blank	MissedWin	True
424.472	0.3	Win2	0.6222	0.004	No	2.972	-0.004	1.0	NoResponse	0	0.298	n/a	6	44	ButtonPress	MissedWin	True
424.876	1.45	Win2	0.6222	n/a	No	2.972	n/a	5.0	NoResponse	0	0.019	423.895	6	44	Feedback	MissedWin	True
426.33	2.972	Win2	0.6222	n/a	No	2.972	n/a	n/a	NoResponse	0	0.0	n/a	6	44	ISIslide	MissedWin	True
429.322	0.25	Control	0.6304	0.0	Yes	2.878	0.022	n/a	GoodResponse	0	n/a	n/a	6	45	Cue	Neutral	True
429.573	4.1	Control	0.6304	0.0	Yes	2.878	0.001	n/a	GoodResponse	0	n/a	n/a	6	45	Fixation	Neutral	True
433.669	0.26	Control	0.6304	0.003	Yes	2.878	-0.003	1.0	GoodResponse	0	0.251	432.92	6	45	Target	Neutral	True
433.92	0.3	Control	0.6304	0.003	Yes	2.878	-0.003	1.0	GoodResponse	0	0.251	n/a	6	45	ButtonPress	Neutral	True
433.936	0.44	Control	0.6304	n/a	Yes	2.878	n/a	n/a	GoodResponse	0	n/a	n/a	6	45	Blank	Neutral	True
434.371	1.45	Control	0.6304	n/a	Yes	2.878	n/a	5.0	GoodResponse	0	0.036	433.407	6	45	Feedback	Neutral	True
435.825	2.878	Control	0.6304	n/a	Yes	2.878	n/a	n/a	GoodResponse	0	0.0	n/a	6	45	ISIslide	Neutral	True
438.717	0.25	Lose2	0.6383	0.0	Yes	3.383	0.017	n/a	GoodResponse	0	n/a	n/a	6	46	Cue	AvoidedLoss	True
438.968	4.0	Lose2	0.6383	0.0	Yes	3.383	0.001	n/a	GoodResponse	0	n/a	n/a	6	46	Fixation	AvoidedLoss	True
442.963	0.27	Lose2	0.6383	0.004	Yes	3.383	-0.004	1.0	GoodResponse	0	0.227	442.19	6	46	Target	AvoidedLoss	True
443.19	0.3	Lose2	0.6383	0.004	Yes	3.383	-0.004	1.0	GoodResponse	0	0.227	n/a	6	46	ButtonPress	AvoidedLoss	True
443.247	0.43	Lose2	0.6383	n/a	Yes	3.383	n/a	n/a	GoodResponse	0	n/a	n/a	6	46	Blank	AvoidedLoss	True
443.665	1.45	Lose2	0.6383	n/a	Yes	3.383	n/a	5.0	GoodResponse	0	0.01	442.675	6	46	Feedback	AvoidedLoss	True
445.119	3.383	Lose2	0.6383	n/a	Yes	3.383	n/a	n/a	GoodResponse	0	0.0	n/a	6	46	ISIslide	AvoidedLoss	True
448.53	0.25	Lose2	0.6457999999999999	0.0	Yes	2.67	0.03	n/a	GoodResponse	0	n/a	n/a	6	47	Cue	AvoidedLoss	False
448.78	4.0	Lose2	0.6457999999999999	0.0	Yes	2.67	0.0	1.0	GoodResponse	0	0.125	447.905	6	47	Fixation	AvoidedLoss	False
448.905	0.3	Lose2	0.6457999999999999	0.0	Yes	2.67	0.0	1.0	GoodResponse	0	0.125	n/a	6	47	ButtonPress	AvoidedLoss	False
452.776	0.28	Lose2	0.6457999999999999	0.004	Yes	2.67	-0.004	1.0	GoodResponse	0	0.228	452.004	6	47	Target	AvoidedLoss	False
453.004	0.3	Lose2	0.6457999999999999	0.004	Yes	2.67	-0.004	1.0	GoodResponse	0	0.228	n/a	6	47	ButtonPress	AvoidedLoss	False
453.06	0.42	Lose2	0.6457999999999999	n/a	Yes	2.67	n/a	n/a	GoodResponse	0	n/a	n/a	6	47	Blank	AvoidedLoss	False
453.478	1.45	Lose2	0.6457999999999999	n/a	Yes	2.67	n/a	5.0	GoodResponse	0	0.001	452.479	6	47	Feedback	AvoidedLoss	False
454.932	2.67	Lose2	0.6457999999999999	n/a	Yes	2.67	n/a	n/a	GoodResponse	0	0.0	n/a	6	47	ISIslide	AvoidedLoss	False
457.623	0.25	Lose2	0.6531	0.001	Yes	3.027	0.023	n/a	GoodResponse	0	n/a	n/a	6	48	Cue	AvoidedLoss	True
457.874	3.95	Lose2	0.6531	0.0	Yes	3.027	0.001	n/a	GoodResponse	0	n/a	n/a	6	48	Fixation	AvoidedLoss	True
461.819	0.29	Lose2	0.6531	0.004	Yes	3.027	-0.004	1.0	GoodResponse	0	0.251	461.07	6	48	Target	AvoidedLoss	True
462.07	0.3	Lose2	0.6531	0.004	Yes	3.027	-0.004	1.0	GoodResponse	0	0.251	n/a	6	48	ButtonPress	AvoidedLoss	True
462.12	0.41	Lose2	0.6531	n/a	Yes	3.027	n/a	n/a	GoodResponse	0	n/a	n/a	6	48	Blank	AvoidedLoss	True
462.521	1.45	Lose2	0.6531	n/a	Yes	3.027	n/a	5.0	GoodResponse	0	0.032	461.553	6	48	Feedback	AvoidedLoss	True
463.976	3.027	Lose2	0.6531	n/a	Yes	3.027	n/a	n/a	GoodResponse	0	0.0	n/a	6	48	ISIslide	AvoidedLoss	True
467.018	0.25	Control	0.66	0.0	Yes	2.882	0.018	n/a	GoodResponse	0	n/a	n/a	6	49	Cue	Neutral	True
467.269	4.0	Control	0.66	0.0	Yes	2.882	0.001	n/a	GoodResponse	0	n/a	n/a	6	49	Fixation	Neutral	True
471.264	0.3	Control	0.66	0.004	Yes	2.882	-0.004	1.0	GoodResponse	0	0.225	470.489	6	49	Target	Neutral	True
471.489	0.3	Control	0.66	0.004	Yes	2.882	-0.004	1.0	GoodResponse	0	0.225	n/a	6	49	ButtonPress	Neutral	True
471.565	0.4	Control	0.66	n/a	Yes	2.882	n/a	n/a	GoodResponse	0	n/a	n/a	6	49	Blank	Neutral	True
471.966	1.45	Control	0.66	n/a	Yes	2.882	n/a	5.0	GoodResponse	0	0.001	470.967	6	49	Feedback	Neutral	True
473.421	2.882	Control	0.66	n/a	Yes	2.882	n/a	n/a	GoodResponse	0	0.0	n/a	6	49	ISIslide	Neutral	True
476.329	0.25	Control	0.6667000000000001	0.0	Yes	2.771	0.029	n/a	GoodResponse	0	n/a	n/a	6	50	Cue	Neutral	True
476.58	4.0	Control	0.6667000000000001	0.0	Yes	2.771	0.001	n/a	GoodResponse	0	n/a	n/a	6	50	Fixation	Neutral	True
480.575	0.3	Control	0.6667000000000001	0.004	Yes	2.771	-0.004	1.0	GoodResponse	0	0.241	479.816	6	50	Target	Neutral	True
480.816	0.3	Control	0.6667000000000001	0.004	Yes	2.771	-0.004	1.0	GoodResponse	0	0.241	n/a	6	50	ButtonPress	Neutral	True
480.876	0.4	Control	0.6667000000000001	n/a	Yes	2.771	n/a	n/a	GoodResponse	0	n/a	n/a	6	50	Blank	Neutral	True
481.277	1.45	Control	0.6667000000000001	n/a	Yes	2.771	n/a	5.0	GoodResponse	0	0.008	480.285	6	50	Feedback	Neutral	True
482.732	2.771	Control	0.6667000000000001	n/a	Yes	2.771	n/a	n/a	GoodResponse	0	0.0	n/a	6	50	ISIslide	Neutral	True
485.523	0.25	Control	0.6537999999999999	0.0	No	2.727	0.023	n/a	NoResponse	0	n/a	n/a	6	51	Cue	Neutral	False
485.774	3.95	Control	0.6537999999999999	0.0	No	2.727	0.001	1.0	NoResponse	0	1.197	485.971	6	51	Fixation	Neutral	False
486.971	0.3	Control	0.6537999999999999	0.0	No	2.727	0.001	1.0	NoResponse	0	1.197	n/a	6	51	ButtonPress	Neutral	False
489.719	0.29	Control	0.6537999999999999	0.004	No	2.727	-0.004	1.0	NoResponse	0	0.31	489.029	6	51	Target	Neutral	False
490.02	0.41	Control	0.6537999999999999	n/a	No	2.727	n/a	n/a	NoResponse	0	n/a	n/a	6	51	Blank	Neutral	False
490.029	0.3	Control	0.6537999999999999	0.004	No	2.727	-0.004	1.0	NoResponse	0	0.31	n/a	6	51	ButtonPress	Neutral	False
490.421	1.45	Control	0.6537999999999999	n/a	No	2.727	n/a	5.0	NoResponse	0	0.033	489.454	6	51	Feedback	Neutral	False
491.876	2.727	Control	0.6537999999999999	n/a	No	2.727	n/a	n/a	NoResponse	0	0.0	n/a	6	51	ISIslide	Neutral	False
494.617	0.25	Control	0.6604000000000001	0.0	Yes	2.633	0.017	n/a	GoodResponse	0	n/a	n/a	6	52	Cue	Neutral	True
494.868	4.05	Control	0.6604000000000001	0.0	Yes	2.633	0.001	n/a	GoodResponse	0	n/a	n/a	6	52	Fixation	Neutral	True
498.913	0.3	Control	0.6604000000000001	0.004	Yes	2.633	-0.004	1.0	GoodResponse	0	0.274	498.187	6	52	Target	Neutral	True
499.187	0.3	Control	0.6604000000000001	0.004	Yes	2.633	-0.004	1.0	GoodResponse	0	0.274	n/a	6	52	ButtonPress	Neutral	True
499.214	0.4	Control	0.6604000000000001	n/a	Yes	2.633	n/a	n/a	GoodResponse	0	n/a	n/a	6	52	Blank	Neutral	True
499.616	1.45	Control	0.6604000000000001	n/a	Yes	2.633	n/a	5.0	GoodResponse	0	0.009	498.625	6	52	Feedback	Neutral	True
501.07	2.633	Control	0.6604000000000001	n/a	Yes	2.633	n/a	n/a	GoodResponse	0	0.0	n/a	6	52	ISIslide	Neutral	True
503.728	0.25	Win2	0.6667000000000001	0.0	Yes	2.922	0.028	n/a	GoodResponse	1	n/a	n/a	7	53	Cue	Win	True
503.979	4.05	Win2	0.6667000000000001	0.0	Yes	2.922	0.001	n/a	GoodResponse	1	n/a	n/a	7	53	Fixation	Win	True
508.024	0.3	Win2	0.6667000000000001	0.004	Yes	2.922	-0.004	1.0	GoodResponse	1	0.232	507.256	7	53	Target	Win	True
508.256	0.3	Win2	0.6667000000000001	0.004	Yes	2.922	-0.004	1.0	GoodResponse	1	0.232	n/a	7	53	ButtonPress	Win	True
508.325	0.4	Win2	0.6667000000000001	n/a	Yes	2.922	n/a	n/a	GoodResponse	1	n/a	n/a	7	53	Blank	Win	True
508.726	1.45	Win2	0.6667000000000001	n/a	Yes	2.922	n/a	5.0	GoodResponse	1	0.021	507.747	7	53	Feedback	Win	True
510.18	2.922	Win2	0.6667000000000001	n/a	Yes	2.922	n/a	n/a	GoodResponse	1	0.0	n/a	7	53	ISIslide	Win	True
513.123	0.25	Win2	0.6727	0.0	Yes	2.727	0.023	n/a	GoodResponse	1	n/a	n/a	8	54	Cue	Win	True
513.373	3.95	Win2	0.6727	0.0	Yes	2.727	0.0	n/a	GoodResponse	1	n/a	n/a	8	54	Fixation	Win	True
517.335	0.29	Win2	0.6727	0.0	Yes	2.727	0.012	1.0	GoodResponse	1	0.254	516.589	8	54	Target	Win	True
517.589	0.3	Win2	0.6727	0.0	Yes	2.727	0.012	1.0	GoodResponse	1	0.254	n/a	8	54	ButtonPress	Win	True
517.619	0.41	Win2	0.6727	n/a	Yes	2.727	n/a	n/a	GoodResponse	1	n/a	n/a	8	54	Blank	Win	True
518.02	1.45	Win2	0.6727	n/a	Yes	2.727	n/a	5.0	GoodResponse	1	0.044	517.064	8	54	Feedback	Win	True
519.475	2.727	Win2	0.6727	n/a	Yes	2.727	n/a	n/a	GoodResponse	1	0.0	n/a	8	54	ISIslide	Win	True
522.216	0.25	Control	0.6786	0.0	Yes	3.034	0.016	n/a	GoodResponse	0	n/a	n/a	8	55	Cue	Neutral	True
522.467	3.95	Control	0.6786	0.0	Yes	3.034	0.001	n/a	GoodResponse	0	n/a	n/a	8	55	Fixation	Neutral	True
526.412	0.28	Control	0.6786	0.004	Yes	3.034	-0.004	1.0	GoodResponse	0	0.205	525.617	8	55	Target	Neutral	True
526.617	0.3	Control	0.6786	0.004	Yes	3.034	-0.004	1.0	GoodResponse	0	0.205	n/a	8	55	ButtonPress	Neutral	True
526.696	0.42	Control	0.6786	n/a	Yes	3.034	n/a	n/a	GoodResponse	0	n/a	n/a	8	55	Blank	Neutral	True
527.114	1.45	Control	0.6786	n/a	Yes	3.034	n/a	5.0	GoodResponse	0	0.023	526.137	8	55	Feedback	Neutral	True
528.569	3.034	Control	0.6786	n/a	Yes	3.034	n/a	n/a	GoodResponse	0	0.0	n/a	8	55	ISIslide	Neutral	True
531.628	0.25	Control	0.6667000000000001	0.0	No	2.822	0.028	n/a	LatePress	0	n/a	n/a	8	56	Cue	Neutral	True
531.879	3.95	Control	0.6667000000000001	0.0	No	2.822	0.001	n/a	LatePress	0	n/a	n/a	8	56	Fixation	Neutral	True
535.824	0.27	Control	0.6667000000000001	0.004	No	2.822	-0.004	1.0	LatePress	0	0.274	535.098	8	56	Target	Neutral	True
536.098	0.3	Control	0.6667000000000001	0.004	No	2.822	-0.004	1.0	LatePress	0	0.274	n/a	8	56	ButtonPress	Neutral	True
536.108	0.43	Control	0.6667000000000001	n/a	No	2.822	n/a	n/a	LatePress	0	n/a	n/a	8	56	Blank	Neutral	True
536.526	1.45	Control	0.6667000000000001	n/a	No	2.822	n/a	5.0	LatePress	0	0.025	535.551	8	56	Feedback	Neutral	True
537.98	2.822	Control	0.6667000000000001	n/a	No	2.822	n/a	n/a	LatePress	0	0.0	n/a	8	56	ISIslide	Neutral	True
540.822	0.25	Control	0.6552	0.0	No	3.478	0.022	n/a	NoResponse	0	n/a	n/a	8	57	Cue	Neutral	True
541.073	4.0	Control	0.6552	0.0	No	3.478	0.001	n/a	NoResponse	0	n/a	n/a	8	57	Fixation	Neutral	True
545.068	0.26	Control	0.6552	0.004	No	3.478	-0.004	1.0	NoResponse	0	0.301	544.369	8	57	Target	Neutral	True
545.335	0.44	Control	0.6552	n/a	No	3.478	n/a	n/a	NoResponse	0	n/a	n/a	8	57	Blank	Neutral	True
545.369	0.3	Control	0.6552	0.004	No	3.478	-0.004	1.0	NoResponse	0	0.301	n/a	8	57	ButtonPress	Neutral	True
545.77	1.45	Control	0.6552	n/a	No	3.478	n/a	5.0	NoResponse	0	0.001	544.771	8	57	Feedback	Neutral	True
547.224	3.478	Control	0.6552	n/a	No	3.478	n/a	n/a	NoResponse	0	0.0	n/a	8	57	ISIslide	Neutral	True
550.718	0.25	Win2	0.6609999999999999	0.0	Yes	2.732	0.018	n/a	GoodResponse	1	n/a	n/a	9	58	Cue	Win	True
550.969	4.05	Win2	0.6609999999999999	0.0	Yes	2.732	0.001	n/a	GoodResponse	1	n/a	n/a	9	58	Fixation	Win	True
555.014	0.26	Win2	0.6609999999999999	0.004	Yes	2.732	-0.004	1.0	GoodResponse	1	0.254	554.268	9	58	Target	Win	True
555.268	0.3	Win2	0.6609999999999999	0.004	Yes	2.732	-0.004	1.0	GoodResponse	1	0.254	n/a	9	58	ButtonPress	Win	True
555.282	0.44	Win2	0.6609999999999999	n/a	Yes	2.732	n/a	n/a	GoodResponse	1	n/a	n/a	9	58	Blank	Win	True
555.716	1.45	Win2	0.6609999999999999	n/a	Yes	2.732	n/a	5.0	GoodResponse	1	0.008	554.724	9	58	Feedback	Win	True
557.171	2.732	Win2	0.6609999999999999	n/a	Yes	2.732	n/a	n/a	GoodResponse	1	0.0	n/a	9	58	ISIslide	Win	True
559.929	0.25	Lose2	0.65	0.0	No	2.671	0.029	n/a	NoResponse	-1	n/a	n/a	8	59	Cue	Loss	True
560.18	4.0	Lose2	0.65	0.0	No	2.671	0.001	n/a	NoResponse	-1	n/a	n/a	8	59	Fixation	Loss	True
564.175	0.26	Lose2	0.65	0.004	No	2.671	-0.004	1.0	NoResponse	-1	0.322	563.497	8	59	Target	Loss	True
564.442	0.44	Lose2	0.65	n/a	No	2.671	n/a	n/a	NoResponse	-1	n/a	n/a	8	59	Blank	Loss	True
564.497	0.3	Lose2	0.65	0.004	No	2.671	-0.004	1.0	NoResponse	-1	0.322	n/a	8	59	ButtonPress	Loss	True
564.877	1.45	Lose2	0.65	n/a	No	2.671	n/a	5.0	NoResponse	-1	0.015	563.892	8	59	Feedback	Loss	True
566.331	2.671	Lose2	0.65	n/a	No	2.671	n/a	n/a	NoResponse	-1	0.0	n/a	8	59	ISIslide	Loss	True
569.023	0.25	Control	0.6557	0.0	Yes	2.677	0.023	n/a	GoodResponse	0	n/a	n/a	8	60	Cue	Neutral	True
569.274	4.0	Control	0.6557	0.0	Yes	2.677	0.001	n/a	GoodResponse	0	n/a	n/a	8	60	Fixation	Neutral	True
573.269	0.27	Control	0.6557	0.004	Yes	2.677	-0.004	1.0	GoodResponse	0	0.206	572.475	8	60	Target	Neutral	True
573.475	0.3	Control	0.6557	0.004	Yes	2.677	-0.004	1.0	GoodResponse	0	0.206	n/a	8	60	ButtonPress	Neutral	True
573.553	0.43	Control	0.6557	n/a	Yes	2.677	n/a	n/a	GoodResponse	0	n/a	n/a	8	60	Blank	Neutral	True
573.971	1.45	Control	0.6557	n/a	Yes	2.677	n/a	5.0	GoodResponse	0	0.043	573.014	8	60	Feedback	Neutral	True
575.425	2.677	Control	0.6557	n/a	Yes	2.677	n/a	n/a	GoodResponse	0	0.0	n/a	8	60	ISIslide	Neutral	True
578.117	0.25	Lose2	0.6613	0.0	Yes	2.983	0.017	n/a	GoodResponse	0	n/a	n/a	8	61	Cue	AvoidedLoss	True
578.367	4.0	Lose2	0.6613	0.0	Yes	2.983	0.0	n/a	GoodResponse	0	n/a	n/a	8	61	Fixation	AvoidedLoss	True
582.363	0.27	Lose2	0.6613	0.004	Yes	2.983	-0.004	1.0	GoodResponse	0	0.234	581.597	8	61	Target	AvoidedLoss	True
582.597	0.3	Lose2	0.6613	0.004	Yes	2.983	-0.004	1.0	GoodResponse	0	0.234	n/a	8	61	ButtonPress	AvoidedLoss	True
582.647	0.43	Lose2	0.6613	n/a	Yes	2.983	n/a	n/a	GoodResponse	0	n/a	n/a	8	61	Blank	AvoidedLoss	True
583.065	1.45	Lose2	0.6613	n/a	Yes	2.983	n/a	5.0	GoodResponse	0	0.022	582.087	8	61	Feedback	AvoidedLoss	True
584.519	2.983	Lose2	0.6613	n/a	Yes	2.983	n/a	n/a	GoodResponse	0	0.0	n/a	8	61	ISIslide	AvoidedLoss	True
587.528	0.25	Lose2	0.6667000000000001	0.0	Yes	2.872	0.028	n/a	GoodResponse	0	n/a	n/a	8	62	Cue	AvoidedLoss	True
587.779	3.9	Lose2	0.6667000000000001	0.0	Yes	2.872	0.001	n/a	GoodResponse	0	n/a	n/a	8	62	Fixation	AvoidedLoss	True
591.674	0.27	Lose2	0.6667000000000001	0.004	Yes	2.872	-0.004	1.0	GoodResponse	0	0.228	590.902	8	62	Target	AvoidedLoss	True
591.902	0.3	Lose2	0.6667000000000001	0.004	Yes	2.872	-0.004	1.0	GoodResponse	0	0.228	n/a	8	62	ButtonPress	AvoidedLoss	True
591.958	0.43	Lose2	0.6667000000000001	n/a	Yes	2.872	n/a	n/a	GoodResponse	0	n/a	n/a	8	62	Blank	AvoidedLoss	True
592.376	1.45	Lose2	0.6667000000000001	n/a	Yes	2.872	n/a	5.0	GoodResponse	0	0.029	591.405	8	62	Feedback	AvoidedLoss	True
593.83	2.872	Lose2	0.6667000000000001	n/a	Yes	2.872	n/a	n/a	GoodResponse	0	0.0	n/a	8	62	ISIslide	AvoidedLoss	True
596.722	0.25	Lose2	0.6718999999999999	0.0	Yes	2.628	0.022	n/a	GoodResponse	0	n/a	n/a	8	63	Cue	AvoidedLoss	False
596.973	4.05	Lose2	0.6718999999999999	0.0	Yes	2.628	0.001	1.0	GoodResponse	0	3.57	599.543	8	63	Fixation	AvoidedLoss	False
600.543	0.3	Lose2	0.6718999999999999	0.0	Yes	2.628	0.001	1.0	GoodResponse	0	3.57	n/a	8	63	ButtonPress	AvoidedLoss	False
601.018	0.26	Lose2	0.6718999999999999	0.004	Yes	2.628	-0.004	1.0	GoodResponse	0	0.223	600.241	8	63	Target	AvoidedLoss	False
601.241	0.3	Lose2	0.6718999999999999	0.004	Yes	2.628	-0.004	1.0	GoodResponse	0	0.223	n/a	8	63	ButtonPress	AvoidedLoss	False
601.286	0.44	Lose2	0.6718999999999999	n/a	Yes	2.628	n/a	n/a	GoodResponse	0	n/a	n/a	8	63	Blank	AvoidedLoss	False
601.72	1.45	Lose2	0.6718999999999999	n/a	Yes	2.628	n/a	5.0	GoodResponse	0	0.001	600.721	8	63	Feedback	AvoidedLoss	False
603.175	2.628	Lose2	0.6718999999999999	n/a	Yes	2.628	n/a	n/a	GoodResponse	0	0.0	n/a	8	63	ISIslide	AvoidedLoss	False
605.816	0.25	Win2	0.6615000000000001	0.0	No	3.134	0.016	n/a	NoResponse	0	n/a	n/a	8	64	Cue	MissedWin	True
606.067	4.15	Win2	0.6615000000000001	0.0	No	3.134	0.001	n/a	NoResponse	0	n/a	n/a	8	64	Fixation	MissedWin	True
610.212	0.25	Win2	0.6615000000000001	0.004	No	3.134	-0.004	1.0	NoResponse	0	0.267	609.479	8	64	Target	MissedWin	True
610.463	0.45	Win2	0.6615000000000001	n/a	No	3.134	n/a	n/a	NoResponse	0	n/a	n/a	8	64	Blank	MissedWin	True
610.479	0.3	Win2	0.6615000000000001	0.004	No	3.134	-0.004	1.0	NoResponse	0	0.267	n/a	8	64	ButtonPress	MissedWin	True
610.915	1.45	Win2	0.6615000000000001	n/a	No	3.134	n/a	5.0	NoResponse	0	0.025	609.94	8	64	Feedback	MissedWin	True
612.369	3.134	Win2	0.6615000000000001	n/a	No	3.134	n/a	n/a	NoResponse	0	0.0	n/a	8	64	ISIslide	MissedWin	True
615.528	0.25	Control	0.6515000000000001	0.0	No	2.772	0.028	n/a	NoResponse	0	n/a	n/a	8	65	Cue	Neutral	False
615.779	4.0	Control	0.6515000000000001	0.0	No	2.772	0.001	1.0	NoResponse	0	0.065	614.844	8	65	Fixation	Neutral	False
615.844	0.3	Control	0.6515000000000001	0.0	No	2.772	0.001	1.0	NoResponse	0	0.065	n/a	8	65	ButtonPress	Neutral	False
619.774	0.25	Control	0.6515000000000001	0.004	No	2.772	-0.004	1.0	NoResponse	0	0.328	619.102	8	65	Target	Neutral	False
620.025	0.45	Control	0.6515000000000001	n/a	No	2.772	n/a	n/a	NoResponse	0	n/a	n/a	8	65	Blank	Neutral	False
620.102	0.3	Control	0.6515000000000001	0.004	No	2.772	-0.004	1.0	NoResponse	0	0.328	n/a	8	65	ButtonPress	Neutral	False
620.476	1.45	Control	0.6515000000000001	n/a	No	2.772	n/a	5.0	NoResponse	0	0.025	619.501	8	65	Feedback	Neutral	False
621.931	2.772	Control	0.6515000000000001	n/a	No	2.772	n/a	n/a	NoResponse	0	0.0	n/a	8	65	ISIslide	Neutral	False
624.722	0.25	Win2	0.6567000000000001	0.001	Yes	2.778	0.022	n/a	GoodResponse	1	n/a	n/a	9	66	Cue	Win	True
624.973	3.9	Win2	0.6567000000000001	0.0	Yes	2.778	0.001	n/a	GoodResponse	1	n/a	n/a	9	66	Fixation	Win	True
628.868	0.26	Win2	0.6567000000000001	0.004	Yes	2.778	-0.004	1.0	GoodResponse	1	0.221	628.089	9	66	Target	Win	True
629.089	0.3	Win2	0.6567000000000001	0.004	Yes	2.778	-0.004	1.0	GoodResponse	1	0.221	n/a	9	66	ButtonPress	Win	True
629.136	0.44	Win2	0.6567000000000001	n/a	Yes	2.778	n/a	n/a	GoodResponse	1	n/a	n/a	9	66	Blank	Win	True
629.57	1.45	Win2	0.6567000000000001	n/a	Yes	2.778	n/a	5.0	GoodResponse	1	0.008	628.578	9	66	Feedback	Win	True
631.025	2.778	Win2	0.6567000000000001	n/a	Yes	2.778	n/a	n/a	GoodResponse	1	0.0	n/a	9	66	ISIslide	Win	True
633.816	0.25	Control	0.6470999999999999	0.0	No	2.734	0.016	n/a	NoResponse	0	n/a	n/a	9	67	Cue	Neutral	True
634.067	3.95	Control	0.6470999999999999	0.0	No	2.734	0.001	n/a	NoResponse	0	n/a	n/a	9	67	Fixation	Neutral	True
638.012	0.26	Control	0.6470999999999999	0.004	No	2.734	-0.004	1.0	NoResponse	0	0.297	637.309	9	67	Target	Neutral	True
638.28	0.44	Control	0.6470999999999999	n/a	No	2.734	n/a	n/a	NoResponse	0	n/a	n/a	9	67	Blank	Neutral	True
638.309	0.3	Control	0.6470999999999999	0.004	No	2.734	-0.004	1.0	NoResponse	0	0.297	n/a	9	67	ButtonPress	Neutral	True
638.714	1.45	Control	0.6470999999999999	n/a	No	2.734	n/a	5.0	NoResponse	0	0.03	637.744	9	67	Feedback	Neutral	True
640.169	2.734	Control	0.6470999999999999	n/a	No	2.734	n/a	n/a	NoResponse	0	0.0	n/a	9	67	ISIslide	Neutral	True
642.927	0.25	Win2	0.6522	0.0	Yes	3.073	0.027	n/a	GoodResponse	1	n/a	n/a	10	68	Cue	Win	True
643.178	4.0	Win2	0.6522	0.0	Yes	3.073	0.001	n/a	GoodResponse	1	n/a	n/a	10	68	Fixation	Win	True
647.173	0.27	Win2	0.6522	0.004	Yes	3.073	-0.004	1.0	GoodResponse	1	0.23	646.403	10	68	Target	Win	True
647.403	0.3	Win2	0.6522	0.004	Yes	3.073	-0.004	1.0	GoodResponse	1	0.23	n/a	10	68	ButtonPress	Win	True
647.457	0.43	Win2	0.6522	n/a	Yes	3.073	n/a	n/a	GoodResponse	1	n/a	n/a	10	68	Blank	Win	True
647.875	1.45	Win2	0.6522	n/a	Yes	3.073	n/a	5.0	GoodResponse	1	0.04	646.915	10	68	Feedback	Win	True
649.329	3.073	Win2	0.6522	n/a	Yes	3.073	n/a	n/a	GoodResponse	1	0.0	n/a	10	68	ISIslide	Win	True
652.422	0.25	Win2	0.6570999999999999	0.0	Yes	3.228	0.022	n/a	GoodResponse	1	n/a	n/a	11	69	Cue	Win	True
652.673	3.95	Win2	0.6570999999999999	0.0	Yes	3.228	0.001	n/a	GoodResponse	1	n/a	n/a	11	69	Fixation	Win	True
656.618	0.28	Win2	0.6570999999999999	0.004	Yes	3.228	-0.004	1.0	GoodResponse	1	0.267	655.885	11	69	Target	Win	True
656.885	0.3	Win2	0.6570999999999999	0.004	Yes	3.228	-0.004	1.0	GoodResponse	1	0.267	n/a	11	69	ButtonPress	Win	True
656.902	0.42	Win2	0.6570999999999999	n/a	Yes	3.228	n/a	n/a	GoodResponse	1	n/a	n/a	11	69	Blank	Win	True
657.32	1.45	Win2	0.6570999999999999	n/a	Yes	3.228	n/a	5.0	GoodResponse	1	0.01	656.33	11	69	Feedback	Win	True
658.774	3.228	Win2	0.6570999999999999	n/a	Yes	3.228	n/a	n/a	GoodResponse	1	0.0	n/a	11	69	ISIslide	Win	True
662.017	0.25	Lose2	0.662	0.0	Yes	3.033	0.017	n/a	GoodResponse	0	n/a	n/a	11	70	Cue	AvoidedLoss	True
662.268	4.05	Lose2	0.662	0.0	Yes	3.033	0.001	n/a	GoodResponse	0	n/a	n/a	11	70	Fixation	AvoidedLoss	True
666.313	0.28	Lose2	0.662	0.004	Yes	3.033	-0.004	1.0	GoodResponse	0	0.219	665.532	11	70	Target	AvoidedLoss	True
666.532	0.3	Lose2	0.662	0.004	Yes	3.033	-0.004	1.0	GoodResponse	0	0.219	n/a	11	70	ButtonPress	AvoidedLoss	True
666.598	0.42	Lose2	0.662	n/a	Yes	3.033	n/a	n/a	GoodResponse	0	n/a	n/a	11	70	Blank	AvoidedLoss	True
667.015	1.45	Lose2	0.662	n/a	Yes	3.033	n/a	5.0	GoodResponse	0	0.022	666.037	11	70	Feedback	AvoidedLoss	True
668.47	3.033	Lose2	0.662	n/a	Yes	3.033	n/a	n/a	GoodResponse	0	0.0	n/a	11	70	ISIslide	AvoidedLoss	True
671.529	0.25	Win2	0.6667000000000001	0.0	Yes	2.721	0.029	n/a	GoodResponse	1	n/a	n/a	12	71	Cue	Win	True
671.78	4.05	Win2	0.6667000000000001	0.0	Yes	2.721	0.001	n/a	GoodResponse	1	n/a	n/a	12	71	Fixation	Win	True
675.825	0.28	Win2	0.6667000000000001	0.004	Yes	2.721	-0.004	1.0	GoodResponse	1	0.193	675.018	12	71	Target	Win	True
676.018	0.3	Win2	0.6667000000000001	0.004	Yes	2.721	-0.004	1.0	GoodResponse	1	0.193	n/a	12	71	ButtonPress	Win	True
676.109	0.42	Win2	0.6667000000000001	n/a	Yes	2.721	n/a	n/a	GoodResponse	1	n/a	n/a	12	71	Blank	Win	True
676.527	1.45	Win2	0.6667000000000001	n/a	Yes	2.721	n/a	5.0	GoodResponse	1	0.022	675.549	12	71	Feedback	Win	True
677.982	2.721	Win2	0.6667000000000001	n/a	Yes	2.721	n/a	n/a	GoodResponse	1	0.0	n/a	12	71	ISIslide	Win	True
680.723	0.25	Win2	0.6712	0.0	Yes	2.777	0.023	n/a	GoodResponse	1	n/a	n/a	13	72	Cue	Win	True
680.974	4.1	Win2	0.6712	0.0	Yes	2.777	0.001	n/a	GoodResponse	1	n/a	n/a	13	72	Fixation	Win	True
685.069	0.27	Win2	0.6712	0.004	Yes	2.777	-0.004	1.0	GoodResponse	1	0.253	684.322	13	72	Target	Win	True
685.322	0.3	Win2	0.6712	0.004	Yes	2.777	-0.004	1.0	GoodResponse	1	0.253	n/a	13	72	ButtonPress	Win	True
685.354	0.43	Win2	0.6712	n/a	Yes	2.777	n/a	n/a	GoodResponse	1	n/a	n/a	13	72	Blank	Win	True
685.771	1.45	Win2	0.6712	n/a	Yes	2.777	n/a	5.0	GoodResponse	1	0.046	684.817	13	72	Feedback	Win	True
687.226	2.777	Win2	0.6712	n/a	Yes	2.777	n/a	n/a	GoodResponse	1	0.0	n/a	13	72	ISIslide	Win	True
690.017	0.25	Win2	0.6622	0.001	No	2.683	0.017	n/a	NoResponse	0	n/a	n/a	13	73	Cue	MissedWin	True
690.268	4.0	Win2	0.6622	0.0	No	2.683	0.001	n/a	NoResponse	0	n/a	n/a	13	73	Fixation	MissedWin	True
694.263	0.26	Win2	0.6622	0.004	No	2.683	-0.004	1.0	NoResponse	0	0.276	693.539	13	73	Target	MissedWin	True
694.531	0.44	Win2	0.6622	n/a	No	2.683	n/a	n/a	NoResponse	0	n/a	n/a	13	73	Blank	MissedWin	True
694.539	0.3	Win2	0.6622	0.004	No	2.683	-0.004	1.0	NoResponse	0	0.276	n/a	13	73	ButtonPress	MissedWin	True
694.966	1.45	Win2	0.6622	n/a	No	2.683	n/a	5.0	NoResponse	0	0.022	693.988	13	73	Feedback	MissedWin	True
696.42	2.683	Win2	0.6622	n/a	No	2.683	n/a	n/a	NoResponse	0	0.0	n/a	13	73	ISIslide	MissedWin	True
699.128	0.25	Lose2	0.6667000000000001	0.0	Yes	2.622	0.028	n/a	GoodResponse	0	n/a	n/a	13	74	Cue	AvoidedLoss	False
699.379	4.05	Lose2	0.6667000000000001	0.0	Yes	2.622	0.001	1.0	GoodResponse	0	0.747	699.126	13	74	Fixation	AvoidedLoss	False
700.126	0.3	Lose2	0.6667000000000001	0.0	Yes	2.622	0.001	1.0	GoodResponse	0	0.747	n/a	13	74	ButtonPress	AvoidedLoss	False
703.424	0.26	Lose2	0.6667000000000001	0.004	Yes	2.622	-0.004	1.0	GoodResponse	0	0.183	702.607	13	74	Target	AvoidedLoss	False
703.607	0.3	Lose2	0.6667000000000001	0.004	Yes	2.622	-0.004	1.0	GoodResponse	0	0.183	n/a	13	74	ButtonPress	AvoidedLoss	False
703.692	0.44	Lose2	0.6667000000000001	n/a	Yes	2.622	n/a	n/a	GoodResponse	0	n/a	n/a	13	74	Blank	AvoidedLoss	False
704.126	1.45	Lose2	0.6667000000000001	n/a	Yes	2.622	n/a	1.0	GoodResponse	0	0.028	703.154	13	74	Feedback	AvoidedLoss	False
704.154	0.3	Lose2	0.6667000000000001	n/a	Yes	2.622	n/a	1.0	GoodResponse	0	0.028	n/a	13	74	ButtonPress	AvoidedLoss	False
705.581	2.622	Lose2	0.6667000000000001	n/a	Yes	2.622	n/a	1.0	GoodResponse	0	0.181	n/a	13	74	ISIslide	AvoidedLoss	False
708.205	0.25	Lose2	0.6711	0.0	Yes	2.945	0.005	1.0	GoodResponse	0	0.202	707.407	13	75	Cue	AvoidedLoss	False
708.407	0.3	Lose2	0.6711	0.0	Yes	2.945	0.005	1.0	GoodResponse	0	0.202	n/a	13	75	ButtonPress	AvoidedLoss	False
708.456	3.95	Lose2	0.6711	0.0	Yes	2.945	0.001	1.0	GoodResponse	0	0.152	707.608	13	75	Fixation	AvoidedLoss	False
708.608	0.3	Lose2	0.6711	0.0	Yes	2.945	0.001	1.0	GoodResponse	0	0.152	n/a	13	75	ButtonPress	AvoidedLoss	False
712.401	0.25	Lose2	0.6711	0.004	Yes	2.945	-0.004	1.0	GoodResponse	0	0.147	711.548	13	75	Target	AvoidedLoss	False
712.548	0.3	Lose2	0.6711	0.004	Yes	2.945	-0.004	1.0	GoodResponse	0	0.147	n/a	13	75	ButtonPress	AvoidedLoss	False
712.652	0.45	Lose2	0.6711	n/a	Yes	2.945	n/a	n/a	GoodResponse	0	n/a	n/a	13	75	Blank	AvoidedLoss	False
713.103	1.45	Lose2	0.6711	n/a	Yes	2.945	n/a	1.0	GoodResponse	0	0.008	712.111	13	75	Feedback	AvoidedLoss	False
713.111	0.3	Lose2	0.6711	n/a	Yes	2.945	n/a	1.0	GoodResponse	0	0.008	n/a	13	75	ButtonPress	AvoidedLoss	False
714.557	2.945	Lose2	0.6711	n/a	Yes	2.945	n/a	1.0	GoodResponse	0	0.21	n/a	13	75	ISIslide	AvoidedLoss	False
717.5	0.25	Control	0.6753	0.0	Yes	3.25	0.0	1.0	GoodResponse	0	0.231	716.731	13	76	Cue	Neutral	False
717.731	0.3	Control	0.6753	0.0	Yes	3.25	0.0	1.0	GoodResponse	0	0.231	n/a	13	76	ButtonPress	Neutral	False
717.75	4.05	Control	0.6753	0.0	Yes	3.25	0.0	1.0	GoodResponse	0	0.365	717.115	13	76	Fixation	Neutral	False
718.115	0.3	Control	0.6753	0.0	Yes	3.25	0.0	1.0	GoodResponse	0	0.365	n/a	13	76	ButtonPress	Neutral	False
721.796	0.24	Control	0.6753	0.004	Yes	3.25	-0.004	1.0	GoodResponse	0	0.195	720.991	13	76	Target	Neutral	False
721.991	0.3	Control	0.6753	0.004	Yes	3.25	-0.004	1.0	GoodResponse	0	0.195	n/a	13	76	ButtonPress	Neutral	False
722.046	0.46	Control	0.6753	n/a	Yes	3.25	n/a	n/a	GoodResponse	0	n/a	n/a	13	76	Blank	Neutral	False
722.498	1.45	Control	0.6753	n/a	Yes	3.25	n/a	5.0	GoodResponse	0	0.001	721.499	13	76	Feedback	Neutral	False
723.952	3.25	Control	0.6753	n/a	Yes	3.25	n/a	1.0	GoodResponse	0	0.357	n/a	13	76	ISIslide	Neutral	False
727.212	0.25	Lose2	0.6795	0.0	Yes	2.588	0.012	1.0	GoodResponse	0	0.135	726.347	13	77	Cue	AvoidedLoss	False
727.347	0.3	Lose2	0.6795	0.0	Yes	2.588	0.012	1.0	GoodResponse	0	0.135	n/a	13	77	ButtonPress	AvoidedLoss	False
727.463	3.95	Lose2	0.6795	0.0	Yes	2.588	0.001	1.0	GoodResponse	0	0.077	726.54	13	77	Fixation	AvoidedLoss	False
727.54	0.3	Lose2	0.6795	0.0	Yes	2.588	0.001	1.0	GoodResponse	0	0.077	n/a	13	77	ButtonPress	AvoidedLoss	False
731.408	0.23	Lose2	0.6795	0.004	Yes	2.588	-0.004	1.0	GoodResponse	0	0.114	730.522	13	77	Target	AvoidedLoss	False
731.522	0.3	Lose2	0.6795	0.004	Yes	2.588	-0.004	1.0	GoodResponse	0	0.114	n/a	13	77	ButtonPress	AvoidedLoss	False
731.642	0.47	Lose2	0.6795	n/a	Yes	2.588	n/a	n/a	GoodResponse	0	n/a	n/a	13	77	Blank	AvoidedLoss	False
732.11	1.45	Lose2	0.6795	n/a	Yes	2.588	n/a	1.0	GoodResponse	0	0.039	731.149	13	77	Feedback	AvoidedLoss	False
732.149	0.3	Lose2	0.6795	n/a	Yes	2.588	n/a	1.0	GoodResponse	0	0.039	n/a	13	77	ButtonPress	AvoidedLoss	False
733.564	2.588	Lose2	0.6795	n/a	Yes	2.588	n/a	1.0	GoodResponse	0	0.366	n/a	13	77	ISIslide	AvoidedLoss	False
