onset	duration	cue_type	current_mean_accuracy	duration_error	is_hit	isi_adjusted	onset_delay	response	response_type	reward	rt	rt_time	total_reward	trial_number	trial_phase	trial_type	one_press
11.097	0.25	Control	1.0	0.0	Yes	2.953	-0.003	n/a	GoodResponse	0	n/a	n/a	0	0	Cue	Neutral	False
11.347	3.85	Control	1.0	0.0	Yes	2.953	0.0	2.0	GoodResponse	0	0.252	10.599	0	0	Fixation	Neutral	False
11.599	0.3	Control	1.0	0.0	Yes	2.953	0.0	2.0	GoodResponse	0	0.252	n/a	0	0	ButtonPress	Neutral	False
15.209	0.4	Control	1.0	0.0	Yes	2.953	0.012	2.0	GoodResponse	0	0.251	14.46	0	0	Target	Neutral	False
15.46	0.3	Control	1.0	0.0	Yes	2.953	0.012	2.0	GoodResponse	0	0.251	n/a	0	0	ButtonPress	Neutral	False
15.593	0.3	Control	1.0	n/a	Yes	2.953	n/a	n/a	GoodResponse	0	n/a	n/a	0	0	Blank	Neutral	False
15.894	1.45	Control	1.0	n/a	Yes	2.953	n/a	5.0	GoodResponse	0	0.032	14.926	0	0	Feedback	Neutral	False
17.349	2.953	Control	1.0	n/a	Yes	2.953	n/a	n/a	GoodResponse	0	0.0	n/a	0	0	ISIslide	Neutral	False
20.324	0.25	Lose2	1.0	0.0	Yes	2.776	0.024	n/a	GoodResponse	0	n/a	n/a	0	1	Cue	AvoidedLoss	True
20.575	4.0	Lose2	1.0	0.0	Yes	2.776	0.001	n/a	GoodResponse	0	n/a	n/a	0	1	Fixation	AvoidedLoss	True
24.57	0.39	Lose2	1.0	0.004	Yes	2.776	-0.004	2.0	GoodResponse	0	0.232	23.802	0	1	Target	AvoidedLoss	True
24.802	0.3	Lose2	1.0	0.004	Yes	2.776	-0.004	2.0	GoodResponse	0	0.232	n/a	0	1	ButtonPress	AvoidedLoss	True
24.971	0.31	Lose2	1.0	n/a	Yes	2.776	n/a	n/a	GoodResponse	0	n/a	n/a	0	1	Blank	AvoidedLoss	True
25.272	1.45	Lose2	1.0	n/a	Yes	2.776	n/a	5.0	GoodResponse	0	0.02	24.292	0	1	Feedback	AvoidedLoss	True
26.727	2.776	Lose2	1.0	n/a	Yes	2.776	n/a	n/a	GoodResponse	0	0.0	n/a	0	1	ISIslide	AvoidedLoss	True
29.518	0.25	Control	1.0	0.0	Yes	2.582	0.018	n/a	GoodResponse	0	n/a	n/a	0	2	Cue	Neutral	True
29.769	4.1	Control	1.0	0.0	Yes	2.582	0.001	n/a	GoodResponse	0	n/a	n/a	0	2	Fixation	Neutral	True
33.865	0.38	Control	1.0	0.003	Yes	2.582	-0.003	2.0	GoodResponse	0	0.268	33.133	0	2	Target	Neutral	True
34.133	0.3	Control	1.0	0.003	Yes	2.582	-0.003	2.0	GoodResponse	0	0.268	n/a	0	2	ButtonPress	Neutral	True
34.249	0.32	Control	1.0	n/a	Yes	2.582	n/a	n/a	GoodResponse	0	n/a	n/a	0	2	Blank	Neutral	True
34.567	1.45	Control	1.0	n/a	Yes	2.582	n/a	5.0	GoodResponse	0	0.043	33.61	0	2	Feedback	Neutral	True
36.021	2.582	Control	1.0	n/a	Yes	2.582	n/a	n/a	GoodResponse	0	0.0	n/a	0	2	ISIslide	Neutral	True
38.629	0.25	Win2	1.0	0.0	Yes	2.821	0.029	n/a	GoodResponse	1	n/a	n/a	1	3	Cue	Win	True
38.88	3.95	Win2	1.0	0.0	Yes	2.821	0.001	n/a	GoodResponse	1	n/a	n/a	1	3	Fixation	Win	True
42.825	0.37	Win2	1.0	0.004	Yes	2.821	-0.004	2.0	GoodResponse	1	0.204	42.029	1	3	Target	Win	True
43.029	0.3	Win2	1.0	0.004	Yes	2.821	-0.004	2.0	GoodResponse	1	0.204	n/a	1	3	ButtonPress	Win	True
43.209	0.33	Win2	1.0	n/a	Yes	2.821	n/a	n/a	GoodResponse	1	n/a	n/a	1	3	Blank	Win	True
43.527	1.45	Win2	1.0	n/a	Yes	2.821	n/a	5.0	GoodResponse	1	0.01	42.537	1	3	Feedback	Win	True
44.981	2.821	Win2	1.0	n/a	Yes	2.821	n/a	n/a	GoodResponse	1	0.0	n/a	1	3	ISIslide	Win	True
47.823	0.25	Win2	1.0	0.0	Yes	3.277	0.023	n/a	GoodResponse	1	n/a	n/a	2	4	Cue	Win	True
48.074	4.0	Win2	1.0	0.0	Yes	3.277	0.001	n/a	GoodResponse	1	n/a	n/a	2	4	Fixation	Win	True
52.069	0.36	Win2	1.0	0.004	Yes	3.277	-0.004	2.0	GoodResponse	1	0.226	51.295	2	4	Target	Win	True
52.295	0.3	Win2	1.0	0.004	Yes	3.277	-0.004	2.0	GoodResponse	1	0.226	n/a	2	4	ButtonPress	Win	True
52.437	0.34	Win2	1.0	n/a	Yes	3.277	n/a	n/a	GoodResponse	1	n/a	n/a	2	4	Blank	Win	True
52.771	1.45	Win2	1.0	n/a	Yes	3.277	n/a	5.0	GoodResponse	1	0.034	51.805	2	4	Feedback	Win	True
54.226	3.277	Win2	1.0	n/a	Yes	3.277	n/a	n/a	GoodResponse	1	0.0	n/a	2	4	ISIslide	Win	True
57.519	0.25	Win2	1.0	0.0	Yes	2.781	0.019	n/a	GoodResponse	1	n/a	n/a	3	5	Cue	Win	True
57.77	4.0	Win2	1.0	0.0	Yes	2.781	0.001	n/a	GoodResponse	1	n/a	n/a	3	5	Fixation	Win	True
61.765	0.35	Win2	1.0	0.004	Yes	2.781	-0.004	2.0	GoodResponse	1	0.244	61.009	3	5	Target	Win	True
62.009	0.3	Win2	1.0	0.004	Yes	2.781	-0.004	2.0	GoodResponse	1	0.244	n/a	3	5	ButtonPress	Win	True
62.116	0.35	Win2	1.0	n/a	Yes	2.781	n/a	n/a	GoodResponse	1	n/a	n/a	3	5	Blank	Win	True
62.467	1.45	Win2	1.0	n/a	Yes	2.781	n/a	5.0	GoodResponse	1	0.044	61.511	3	5	Feedback	Win	True
63.921	2.781	Win2	1.0	n/a	Yes	2.781	n/a	n/a	GoodResponse	1	0.0	n/a	3	5	ISIslide	Win	True
66.713	0.25	Lose2	1.0	0.0	Yes	2.737	0.013	n/a	GoodResponse	0	n/a	n/a	3	6	Cue	AvoidedLoss	True
66.964	3.95	Lose2	1.0	0.0	Yes	2.737	0.001	n/a	GoodResponse	0	n/a	n/a	3	6	Fixation	AvoidedLoss	True
70.909	0.34	Lose2	1.0	0.004	Yes	2.737	-0.004	2.0	GoodResponse	0	0.238	70.147	3	6	Target	AvoidedLoss	True
71.147	0.3	Lose2	1.0	0.004	Yes	2.737	-0.004	2.0	GoodResponse	0	0.238	n/a	3	6	ButtonPress	AvoidedLoss	True
71.26	0.36	Lose2	1.0	n/a	Yes	2.737	n/a	n/a	GoodResponse	0	n/a	n/a	3	6	Blank	AvoidedLoss	True
71.611	1.45	Lose2	1.0	n/a	Yes	2.737	n/a	5.0	GoodResponse	0	0.022	70.633	3	6	Feedback	AvoidedLoss	True
73.066	2.737	Lose2	1.0	n/a	Yes	2.737	n/a	n/a	GoodResponse	0	0.0	n/a	3	6	ISIslide	AvoidedLoss	True
75.824	0.25	Lose2	1.0	0.0	Yes	4.026	0.024	n/a	GoodResponse	0	n/a	n/a	3	7	Cue	AvoidedLoss	True
76.075	4.05	Lose2	1.0	0.0	Yes	4.026	0.001	n/a	GoodResponse	0	n/a	n/a	3	7	Fixation	AvoidedLoss	True
80.12	0.33	Lose2	1.0	0.004	Yes	4.026	-0.004	2.0	GoodResponse	0	0.233	79.353	3	7	Target	AvoidedLoss	True
80.353	0.3	Lose2	1.0	0.004	Yes	4.026	-0.004	2.0	GoodResponse	0	0.233	n/a	3	7	ButtonPress	AvoidedLoss	True
80.454	0.37	Lose2	1.0	n/a	Yes	4.026	n/a	n/a	GoodResponse	0	n/a	n/a	3	7	Blank	AvoidedLoss	True
80.822	1.45	Lose2	1.0	n/a	Yes	4.026	n/a	5.0	GoodResponse	0	0.031	79.853	3	7	Feedback	AvoidedLoss	True
82.276	4.026	Lose2	1.0	n/a	Yes	4.026	n/a	n/a	GoodResponse	0	0.0	n/a	3	7	ISIslide	AvoidedLoss	True
86.322	0.25	Lose2	1.0	0.0	Yes	3.028	0.022	n/a	GoodResponse	0	n/a	n/a	3	8	Cue	AvoidedLoss	True
86.573	3.95	Lose2	1.0	0.0	Yes	3.028	0.001	n/a	GoodResponse	0	n/a	n/a	3	8	Fixation	AvoidedLoss	True
90.518	0.32	Lose2	1.0	0.004	Yes	3.028	-0.004	2.0	GoodResponse	0	0.273	89.791	3	8	Target	AvoidedLoss	True
90.791	0.3	Lose2	1.0	0.004	Yes	3.028	-0.004	2.0	GoodResponse	0	0.273	n/a	3	8	ButtonPress	AvoidedLoss	True
90.852	0.38	Lose2	1.0	n/a	Yes	3.028	n/a	n/a	GoodResponse	0	n/a	n/a	3	8	Blank	AvoidedLoss	True
91.22	1.45	Lose2	1.0	n/a	Yes	3.028	n/a	5.0	GoodResponse	0	0.023	90.243	3	8	Feedback	AvoidedLoss	True
92.674	3.028	Lose2	1.0	n/a	Yes	3.028	n/a	n/a	GoodResponse	0	0.0	n/a	3	8	ISIslide	AvoidedLoss	True
95.717	0.25	Lose2	1.0	0.0	Yes	3.133	0.017	n/a	GoodResponse	0	n/a	n/a	3	9	Cue	AvoidedLoss	True
95.968	3.95	Lose2	1.0	0.0	Yes	3.133	0.001	n/a	GoodResponse	0	n/a	n/a	3	9	Fixation	AvoidedLoss	True
99.913	0.31	Lose2	1.0	0.004	Yes	3.133	-0.004	2.0	GoodResponse	0	0.231	99.144	3	9	Target	AvoidedLoss	True
100.144	0.3	Lose2	1.0	0.004	Yes	3.133	-0.004	2.0	GoodResponse	0	0.231	n/a	3	9	ButtonPress	AvoidedLoss	True
100.23	0.39	Lose2	1.0	n/a	Yes	3.133	n/a	n/a	GoodResponse	0	n/a	n/a	3	9	Blank	AvoidedLoss	True
100.615	1.45	Lose2	1.0	n/a	Yes	3.133	n/a	5.0	GoodResponse	0	0.043	99.658	3	9	Feedback	AvoidedLoss	True
102.069	3.133	Lose2	1.0	n/a	Yes	3.133	n/a	n/a	GoodResponse	0	0.0	n/a	3	9	ISIslide	AvoidedLoss	True
105.229	0.25	Control	1.0	0.0	Yes	3.271	0.029	n/a	GoodResponse	0	n/a	n/a	3	10	Cue	Neutral	True
105.479	4.0	Control	1.0	0.0	Yes	3.271	0.0	n/a	GoodResponse	0	n/a	n/a	3	10	Fixation	Neutral	True
109.475	0.3	Control	1.0	0.004	Yes	3.271	-0.004	2.0	GoodResponse	0	0.221	108.696	3	10	Target	Neutral	True
109.696	0.3	Control	1.0	0.004	Yes	3.271	-0.004	2.0	GoodResponse	0	0.221	n/a	3	10	ButtonPress	Neutral	True
109.776	0.4	Control	1.0	n/a	Yes	3.271	n/a	n/a	GoodResponse	0	n/a	n/a	3	10	Blank	Neutral	True
110.177	1.45	Control	1.0	n/a	Yes	3.271	n/a	5.0	GoodResponse	0	0.042	109.219	3	10	Feedback	Neutral	True
111.631	3.271	Control	1.0	n/a	Yes	3.271	n/a	n/a	GoodResponse	0	0.0	n/a	3	10	ISIslide	Neutral	True
114.924	0.25	Lose2	0.9167000000000001	0.0	No	2.726	0.024	n/a	NoResponse	-1	n/a	n/a	2	11	Cue	Loss	True
115.175	4.05	Lose2	0.9167000000000001	0.0	No	2.726	0.001	n/a	NoResponse	-1	n/a	n/a	2	11	Fixation	Loss	True
119.221	0.29	Lose2	0.9167000000000001	0.003	No	2.726	-0.003	2.0	NoResponse	-1	0.54	118.761	2	11	Target	Loss	True
119.521	0.41	Lose2	0.9167000000000001	n/a	No	2.726	n/a	n/a	NoResponse	-1	n/a	n/a	2	11	Blank	Loss	True
119.761	0.3	Lose2	0.9167000000000001	0.003	No	2.726	-0.003	2.0	NoResponse	-1	0.54	n/a	2	11	ButtonPress	Loss	True
119.923	1.45	Lose2	0.9167000000000001	n/a	No	2.726	n/a	5.0	NoResponse	-1	0.005	118.928	2	11	Feedback	Loss	True
121.377	2.726	Lose2	0.9167000000000001	n/a	No	2.726	n/a	n/a	NoResponse	-1	0.0	n/a	2	11	ISIslide	Loss	True
124.119	0.25	Control	0.8462000000000001	0.0	No	2.981	0.019	n/a	NoResponse	0	n/a	n/a	2	12	Cue	Neutral	True
124.369	3.9	Control	0.8462000000000001	0.0	No	2.981	0.0	n/a	NoResponse	0	n/a	n/a	2	12	Fixation	Neutral	True
128.281	0.28	Control	0.8462000000000001	0.0	No	2.981	0.012	2.0	NoResponse	0	0.446	127.727	2	12	Target	Neutral	True
128.548	0.42	Control	0.8462000000000001	n/a	No	2.981	n/a	n/a	NoResponse	0	n/a	n/a	2	12	Blank	Neutral	True
128.727	0.3	Control	0.8462000000000001	0.0	No	2.981	0.012	2.0	NoResponse	0	0.446	n/a	2	12	ButtonPress	Neutral	True
128.966	1.45	Control	0.8462000000000001	n/a	No	2.981	n/a	5.0	NoResponse	0	0.033	127.999	2	12	Feedback	Neutral	True
130.421	2.981	Control	0.8462000000000001	n/a	No	2.981	n/a	n/a	NoResponse	0	0.0	n/a	2	12	ISIslide	Neutral	True
133.43	0.25	Control	0.8571	0.0	Yes	2.77	0.03	n/a	GoodResponse	0	n/a	n/a	2	13	Cue	Neutral	True
133.681	4.0	Control	0.8571	0.0	Yes	2.77	0.001	n/a	GoodResponse	0	n/a	n/a	2	13	Fixation	Neutral	True
137.676	0.27	Control	0.8571	0.004	Yes	2.77	-0.004	2.0	GoodResponse	0	0.222	136.898	2	13	Target	Neutral	True
137.898	0.3	Control	0.8571	0.004	Yes	2.77	-0.004	2.0	GoodResponse	0	0.222	n/a	2	13	ButtonPress	Neutral	True
137.96	0.43	Control	0.8571	n/a	Yes	2.77	n/a	n/a	GoodResponse	0	n/a	n/a	2	13	Blank	Neutral	True
138.378	1.45	Control	0.8571	n/a	Yes	2.77	n/a	5.0	GoodResponse	0	0.036	137.414	2	13	Feedback	Neutral	True
139.832	2.77	Control	0.8571	n/a	Yes	2.77	n/a	n/a	GoodResponse	0	0.0	n/a	2	13	ISIslide	Neutral	True
142.624	0.25	Win2	0.8667	0.0	Yes	2.676	0.024	n/a	GoodResponse	1	n/a	n/a	3	14	Cue	Win	True
142.875	4.1	Win2	0.8667	0.0	Yes	2.676	0.001	n/a	GoodResponse	1	n/a	n/a	3	14	Fixation	Win	True
146.97	0.26	Win2	0.8667	0.004	Yes	2.676	-0.004	2.0	GoodResponse	1	0.222	146.192	3	14	Target	Win	True
147.192	0.3	Win2	0.8667	0.004	Yes	2.676	-0.004	2.0	GoodResponse	1	0.222	n/a	3	14	ButtonPress	Win	True
147.238	0.44	Win2	0.8667	n/a	Yes	2.676	n/a	n/a	GoodResponse	1	n/a	n/a	3	14	Blank	Win	True
147.672	1.45	Win2	0.8667	n/a	Yes	2.676	n/a	5.0	GoodResponse	1	0.01	146.682	3	14	Feedback	Win	True
149.127	2.676	Win2	0.8667	n/a	Yes	2.676	n/a	n/a	GoodResponse	1	0.0	n/a	3	14	ISIslide	Win	True
151.818	0.25	Control	0.8125	0.0	No	2.982	0.018	n/a	NoResponse	0	n/a	n/a	3	15	Cue	Neutral	True
152.069	4.0	Control	0.8125	0.0	No	2.982	0.001	n/a	NoResponse	0	n/a	n/a	3	15	Fixation	Neutral	True
156.064	0.25	Control	0.8125	0.004	No	2.982	-0.004	2.0	NoResponse	0	0.28	155.344	3	15	Target	Neutral	True
156.315	0.45	Control	0.8125	n/a	No	2.982	n/a	n/a	NoResponse	0	n/a	n/a	3	15	Blank	Neutral	True
156.344	0.3	Control	0.8125	0.004	No	2.982	-0.004	2.0	NoResponse	0	0.28	n/a	3	15	ButtonPress	Neutral	True
156.766	1.45	Control	0.8125	n/a	No	2.982	n/a	5.0	NoResponse	0	0.038	155.804	3	15	Feedback	Neutral	True
158.221	2.982	Control	0.8125	n/a	No	2.982	n/a	n/a	NoResponse	0	0.0	n/a	3	15	ISIslide	Neutral	True
161.23	0.25	Win2	0.7646999999999999	0.0	No	2.87	0.03	n/a	NoResponse	0	n/a	n/a	3	16	Cue	MissedWin	True
161.48	4.0	Win2	0.7646999999999999	0.001	No	2.87	0.0	n/a	NoResponse	0	n/a	n/a	3	16	Fixation	MissedWin	True
165.476	0.24	Win2	0.7646999999999999	0.004	No	2.87	-0.004	2.0	NoResponse	0	0.273	164.749	3	16	Target	MissedWin	True
165.727	0.46	Win2	0.7646999999999999	n/a	No	2.87	n/a	n/a	NoResponse	0	n/a	n/a	3	16	Blank	MissedWin	True
165.749	0.3	Win2	0.7646999999999999	0.004	No	2.87	-0.004	2.0	NoResponse	0	0.273	n/a	3	16	ButtonPress	MissedWin	True
166.178	1.45	Win2	0.7646999999999999	n/a	No	2.87	n/a	5.0	NoResponse	0	0.041	165.219	3	16	Feedback	MissedWin	True
167.632	2.87	Win2	0.7646999999999999	n/a	No	2.87	n/a	n/a	NoResponse	0	0.0	n/a	3	16	ISIslide	MissedWin	True
170.524	0.25	Lose2	0.7778	0.0	Yes	2.726	0.024	n/a	GoodResponse	0	n/a	n/a	3	17	Cue	AvoidedLoss	True
170.775	3.95	Lose2	0.7778	0.0	Yes	2.726	0.001	n/a	GoodResponse	0	n/a	n/a	3	17	Fixation	AvoidedLoss	True
174.72	0.23	Lose2	0.7778	0.004	Yes	2.726	-0.004	2.0	GoodResponse	0	0.222	173.942	3	17	Target	AvoidedLoss	True
174.942	0.3	Lose2	0.7778	0.004	Yes	2.726	-0.004	2.0	GoodResponse	0	0.222	n/a	3	17	ButtonPress	AvoidedLoss	True
174.954	0.47	Lose2	0.7778	n/a	Yes	2.726	n/a	n/a	GoodResponse	0	n/a	n/a	3	17	Blank	AvoidedLoss	True
175.422	1.45	Lose2	0.7778	n/a	Yes	2.726	n/a	5.0	GoodResponse	0	0.015	174.437	3	17	Feedback	AvoidedLoss	True
176.877	2.726	Lose2	0.7778	n/a	Yes	2.726	n/a	n/a	GoodResponse	0	0.0	n/a	3	17	ISIslide	AvoidedLoss	True
179.618	0.25	Lose2	0.7368000000000001	0.0	No	2.732	0.018	n/a	NoResponse	-1	n/a	n/a	2	18	Cue	Loss	True
179.869	4.05	Lose2	0.7368000000000001	0.0	No	2.732	0.001	n/a	NoResponse	-1	n/a	n/a	2	18	Fixation	Loss	True
183.914	0.22	Lose2	0.7368000000000001	0.004	No	2.732	-0.004	2.0	NoResponse	-1	0.332	183.246	2	18	Target	Loss	True
184.148	0.48	Lose2	0.7368000000000001	n/a	No	2.732	n/a	n/a	NoResponse	-1	n/a	n/a	2	18	Blank	Loss	True
184.246	0.3	Lose2	0.7368000000000001	0.004	No	2.732	-0.004	2.0	NoResponse	-1	0.332	n/a	2	18	ButtonPress	Loss	True
184.616	1.45	Lose2	0.7368000000000001	n/a	No	2.732	n/a	5.0	NoResponse	-1	0.041	183.657	2	18	Feedback	Loss	True
186.071	2.732	Lose2	0.7368000000000001	n/a	No	2.732	n/a	n/a	NoResponse	-1	0.0	n/a	2	18	ISIslide	Loss	True
188.829	0.25	Control	0.7	0.0	No	2.921	0.029	n/a	NoResponse	0	n/a	n/a	2	19	Cue	Neutral	True
189.08	3.95	Control	0.7	0.0	No	2.921	0.001	n/a	NoResponse	0	n/a	n/a	2	19	Fixation	Neutral	True
193.025	0.21	Control	0.7	0.004	No	2.921	-0.004	2.0	NoResponse	0	0.241	192.266	2	19	Target	Neutral	True
193.242	0.49	Control	0.7	n/a	No	2.921	n/a	n/a	NoResponse	0	n/a	n/a	2	19	Blank	Neutral	True
193.266	0.3	Control	0.7	0.004	No	2.921	-0.004	2.0	NoResponse	0	0.241	n/a	2	19	ButtonPress	Neutral	True
193.727	1.45	Control	0.7	n/a	No	2.921	n/a	5.0	NoResponse	0	0.008	192.735	2	19	Feedback	Neutral	True
195.181	2.921	Control	0.7	n/a	No	2.921	n/a	n/a	NoResponse	0	0.0	n/a	2	19	ISIslide	Neutral	True
198.124	0.25	Control	0.6667000000000001	0.0	No	2.626	0.024	n/a	NoResponse	0	n/a	n/a	2	20	Cue	Neutral	True
198.374	4.05	Control	0.6667000000000001	0.0	No	2.626	0.0	n/a	NoResponse	0	n/a	n/a	2	20	Fixation	Neutral	True
202.42	0.2	Control	0.6667000000000001	0.004	No	2.626	-0.004	2.0	NoResponse	0	0.204	201.624	2	20	Target	Neutral	True
202.62	0.5	Control	0.6667000000000001	n/a	No	2.626	n/a	n/a	NoResponse	0	n/a	n/a	2	20	Blank	Neutral	True
202.624	0.3	Control	0.6667000000000001	0.004	No	2.626	-0.004	2.0	NoResponse	0	0.204	n/a	2	20	ButtonPress	Neutral	True
203.122	1.45	Control	0.6667000000000001	n/a	No	2.626	n/a	5.0	NoResponse	0	0.023	202.145	2	20	Feedback	Neutral	True
204.576	2.626	Control	0.6667000000000001	n/a	No	2.626	n/a	n/a	NoResponse	0	0.0	n/a	2	20	ISIslide	Neutral	True
207.218	0.25	Control	0.6364	0.0	No	2.782	0.018	n/a	NoResponse	0	n/a	n/a	2	21	Cue	Neutral	True
207.468	4.1	Control	0.6364	0.0	No	2.782	0.0	n/a	NoResponse	0	n/a	n/a	2	21	Fixation	Neutral	True
211.564	0.19	Control	0.6364	0.004	No	2.782	-0.004	2.0	NoResponse	0	0.219	210.783	2	21	Target	Neutral	True
211.764	0.51	Control	0.6364	n/a	No	2.782	n/a	n/a	NoResponse	0	n/a	n/a	2	21	Blank	Neutral	True
211.783	0.3	Control	0.6364	0.004	No	2.782	-0.004	2.0	NoResponse	0	0.219	n/a	2	21	ButtonPress	Neutral	True
212.266	1.45	Control	0.6364	n/a	No	2.782	n/a	5.0	NoResponse	0	0.001	211.267	2	21	Feedback	Neutral	True
213.72	2.782	Control	0.6364	n/a	No	2.782	n/a	n/a	NoResponse	0	0.0	n/a	2	21	ISIslide	Neutral	True
216.529	0.25	Control	0.6087	0.0	No	2.771	0.029	n/a	NoResponse	0	n/a	n/a	2	22	Cue	Neutral	True
216.78	4.0	Control	0.6087	0.0	No	2.771	0.001	n/a	NoResponse	0	n/a	n/a	2	22	Fixation	Neutral	True
220.775	0.2	Control	0.6087	0.004	No	2.771	-0.004	2.0	NoResponse	0	0.378	220.153	2	22	Target	Neutral	True
220.975	0.5	Control	0.6087	n/a	No	2.771	n/a	n/a	NoResponse	0	n/a	n/a	2	22	Blank	Neutral	True
221.153	0.3	Control	0.6087	0.004	No	2.771	-0.004	2.0	NoResponse	0	0.378	n/a	2	22	ButtonPress	Neutral	True
221.477	1.45	Control	0.6087	n/a	No	2.771	n/a	5.0	NoResponse	0	0.01	220.487	2	22	Feedback	Neutral	True
222.931	2.771	Control	0.6087	n/a	No	2.771	n/a	n/a	NoResponse	0	0.0	n/a	2	22	ISIslide	Neutral	True
225.723	0.25	Control	0.5832999999999999	0.0	No	2.777	0.023	n/a	NoResponse	0	n/a	n/a	2	23	Cue	Neutral	True
225.974	3.9	Control	0.5832999999999999	0.0	No	2.777	0.001	n/a	NoResponse	0	n/a	n/a	2	23	Fixation	Neutral	True
229.869	0.21	Control	0.5832999999999999	0.004	No	2.777	-0.004	2.0	NoResponse	0	0.233	229.102	2	23	Target	Neutral	True
230.086	0.49	Control	0.5832999999999999	n/a	No	2.777	n/a	n/a	NoResponse	0	n/a	n/a	2	23	Blank	Neutral	True
230.102	0.3	Control	0.5832999999999999	0.004	No	2.777	-0.004	2.0	NoResponse	0	0.233	n/a	2	23	ButtonPress	Neutral	True
230.571	1.45	Control	0.5832999999999999	n/a	No	2.777	n/a	5.0	NoResponse	0	0.038	229.609	2	23	Feedback	Neutral	True
232.025	2.777	Control	0.5832999999999999	n/a	No	2.777	n/a	n/a	NoResponse	0	0.0	n/a	2	23	ISIslide	Neutral	True
234.817	0.25	Win2	0.6	0.0	Yes	3.133	0.017	n/a	GoodResponse	1	n/a	n/a	3	24	Cue	Win	True
235.068	3.95	Win2	0.6	0.0	Yes	3.133	0.001	n/a	GoodResponse	1	n/a	n/a	3	24	Fixation	Win	True
239.013	0.22	Win2	0.6	0.004	Yes	3.133	-0.004	2.0	GoodResponse	1	0.211	238.224	3	24	Target	Win	True
239.224	0.3	Win2	0.6	0.004	Yes	3.133	-0.004	2.0	GoodResponse	1	0.211	n/a	3	24	ButtonPress	Win	True
239.247	0.48	Win2	0.6	n/a	Yes	3.133	n/a	n/a	GoodResponse	1	n/a	n/a	3	24	Blank	Win	True
239.715	1.45	Win2	0.6	n/a	Yes	3.133	n/a	5.0	GoodResponse	1	0.015	238.73	3	24	Feedback	Win	True
241.169	3.133	Win2	0.6	n/a	Yes	3.133	n/a	n/a	GoodResponse	1	0.0	n/a	3	24	ISIslide	Win	True
244.329	0.25	Win2	0.6154	0.0	Yes	3.071	0.029	n/a	GoodResponse	1	n/a	n/a	4	25	Cue	Win	True
244.579	4.0	Win2	0.6154	0.001	Yes	3.071	0.0	n/a	GoodResponse	1	n/a	n/a	4	25	Fixation	Win	True
248.575	0.23	Win2	0.6154	0.004	Yes	3.071	-0.004	2.0	GoodResponse	1	0.221	247.796	4	25	Target	Win	True
248.796	0.3	Win2	0.6154	0.004	Yes	3.071	-0.004	2.0	GoodResponse	1	0.221	n/a	4	25	ButtonPress	Win	True
248.809	0.47	Win2	0.6154	n/a	Yes	3.071	n/a	n/a	GoodResponse	1	n/a	n/a	4	25	Blank	Win	True
249.277	1.45	Win2	0.6154	n/a	Yes	3.071	n/a	5.0	GoodResponse	1	0.014	248.291	4	25	Feedback	Win	True
250.731	3.071	Win2	0.6154	n/a	Yes	3.071	n/a	n/a	GoodResponse	1	0.0	n/a	4	25	ISIslide	Win	True
253.824	0.25	Win2	0.5926	0.0	No	2.926	0.024	n/a	NoResponse	0	n/a	n/a	4	26	Cue	MissedWin	True
254.075	3.95	Win2	0.5926	0.0	No	2.926	0.001	n/a	NoResponse	0	n/a	n/a	4	26	Fixation	MissedWin	True
258.02	0.24	Win2	0.5926	0.004	No	2.926	-0.004	2.0	NoResponse	0	0.251	257.271	4	26	Target	MissedWin	True
258.271	0.46	Win2	0.5926	n/a	No	2.926	n/a	n/a	NoResponse	0	n/a	n/a	4	26	Blank	MissedWin	True
258.271	0.3	Win2	0.5926	0.004	No	2.926	-0.004	2.0	NoResponse	0	0.251	n/a	4	26	ButtonPress	MissedWin	True
258.722	1.45	Win2	0.5926	n/a	No	2.926	n/a	5.0	NoResponse	0	0.032	257.754	4	26	Feedback	MissedWin	True
260.176	2.926	Win2	0.5926	n/a	No	2.926	n/a	n/a	NoResponse	0	0.0	n/a	4	26	ISIslide	MissedWin	True
263.118	0.25	Lose2	0.6071	0.0	Yes	2.832	0.018	n/a	GoodResponse	0	n/a	n/a	4	27	Cue	AvoidedLoss	True
263.369	4.05	Lose2	0.6071	0.0	Yes	2.832	0.001	n/a	GoodResponse	0	n/a	n/a	4	27	Fixation	AvoidedLoss	True
267.415	0.25	Lose2	0.6071	0.003	Yes	2.832	-0.003	2.0	GoodResponse	0	0.209	266.624	4	27	Target	AvoidedLoss	True
267.624	0.3	Lose2	0.6071	0.003	Yes	2.832	-0.003	2.0	GoodResponse	0	0.209	n/a	4	27	ButtonPress	AvoidedLoss	True
267.665	0.45	Lose2	0.6071	n/a	Yes	2.832	n/a	n/a	GoodResponse	0	n/a	n/a	4	27	Blank	AvoidedLoss	True
268.117	1.45	Lose2	0.6071	n/a	Yes	2.832	n/a	5.0	GoodResponse	0	0.006	267.123	4	27	Feedback	AvoidedLoss	True
269.571	2.832	Lose2	0.6071	n/a	Yes	2.832	n/a	n/a	GoodResponse	0	0.0	n/a	4	27	ISIslide	AvoidedLoss	True
272.43	0.25	Control	0.6207	0.0	Yes	2.82	0.03	n/a	GoodResponse	0	n/a	n/a	4	28	Cue	Neutral	True
272.68	4.05	Control	0.6207	0.0	Yes	2.82	0.0	n/a	GoodResponse	0	n/a	n/a	4	28	Fixation	Neutral	True
276.726	0.26	Control	0.6207	0.004	Yes	2.82	-0.004	2.0	GoodResponse	0	0.243	275.969	4	28	Target	Neutral	True
276.969	0.3	Control	0.6207	0.004	Yes	2.82	-0.004	2.0	GoodResponse	0	0.243	n/a	4	28	ButtonPress	Neutral	True
276.993	0.44	Control	0.6207	n/a	Yes	2.82	n/a	n/a	GoodResponse	0	n/a	n/a	4	28	Blank	Neutral	True
277.428	1.45	Control	0.6207	n/a	Yes	2.82	n/a	5.0	GoodResponse	0	0.01	276.438	4	28	Feedback	Neutral	True
278.882	2.82	Control	0.6207	n/a	Yes	2.82	n/a	n/a	GoodResponse	0	0.0	n/a	4	28	ISIslide	Neutral	True
281.724	0.25	Lose2	0.6333	0.0	Yes	2.826	0.024	n/a	GoodResponse	0	n/a	n/a	4	29	Cue	AvoidedLoss	True
281.975	3.95	Lose2	0.6333	0.0	Yes	2.826	0.001	n/a	GoodResponse	0	n/a	n/a	4	29	Fixation	AvoidedLoss	True
285.92	0.27	Lose2	0.6333	0.004	Yes	2.826	-0.004	2.0	GoodResponse	0	0.213	285.133	4	29	Target	AvoidedLoss	True
286.133	0.3	Lose2	0.6333	0.004	Yes	2.826	-0.004	2.0	GoodResponse	0	0.213	n/a	4	29	ButtonPress	AvoidedLoss	True
286.204	0.43	Lose2	0.6333	n/a	Yes	2.826	n/a	n/a	GoodResponse	0	n/a	n/a	4	29	Blank	AvoidedLoss	True
286.622	1.45	Lose2	0.6333	n/a	Yes	2.826	n/a	5.0	GoodResponse	0	0.035	285.657	4	29	Feedback	AvoidedLoss	True
288.076	2.826	Lose2	0.6333	n/a	Yes	2.826	n/a	n/a	GoodResponse	0	0.0	n/a	4	29	ISIslide	AvoidedLoss	True
290.918	0.25	Win2	0.6129	0.0	No	2.782	0.018	n/a	NoResponse	0	n/a	n/a	4	30	Cue	MissedWin	True
291.169	3.9	Win2	0.6129	0.0	No	2.782	0.001	n/a	NoResponse	0	n/a	n/a	4	30	Fixation	MissedWin	True
295.064	0.28	Win2	0.6129	0.004	No	2.782	-0.004	2.0	NoResponse	0	0.534	294.598	4	30	Target	MissedWin	True
295.348	0.42	Win2	0.6129	n/a	No	2.782	n/a	n/a	NoResponse	0	n/a	n/a	4	30	Blank	MissedWin	True
295.598	0.3	Win2	0.6129	0.004	No	2.782	-0.004	2.0	NoResponse	0	0.534	n/a	4	30	ButtonPress	MissedWin	True
295.766	1.45	Win2	0.6129	n/a	No	2.782	n/a	5.0	NoResponse	0	0.012	294.778	4	30	Feedback	MissedWin	True
297.221	2.782	Win2	0.6129	n/a	No	2.782	n/a	n/a	NoResponse	0	0.0	n/a	4	30	ISIslide	MissedWin	True
300.029	0.25	Lose2	0.625	0.0	Yes	2.821	0.029	n/a	GoodResponse	0	n/a	n/a	4	31	Cue	AvoidedLoss	True
300.28	4.05	Lose2	0.625	0.0	Yes	2.821	0.001	n/a	GoodResponse	0	n/a	n/a	4	31	Fixation	AvoidedLoss	True
304.325	0.29	Lose2	0.625	0.004	Yes	2.821	-0.004	2.0	GoodResponse	0	0.246	303.571	4	31	Target	AvoidedLoss	True
304.571	0.3	Lose2	0.625	0.004	Yes	2.821	-0.004	2.0	GoodResponse	0	0.246	n/a	4	31	ButtonPress	AvoidedLoss	True
304.626	0.41	Lose2	0.625	n/a	Yes	2.821	n/a	n/a	GoodResponse	0	n/a	n/a	4	31	Blank	AvoidedLoss	True
305.027	1.45	Lose2	0.625	n/a	Yes	2.821	n/a	5.0	GoodResponse	0	0.02	304.047	4	31	Feedback	AvoidedLoss	True
306.482	2.821	Lose2	0.625	n/a	Yes	2.821	n/a	n/a	GoodResponse	0	0.0	n/a	4	31	ISIslide	AvoidedLoss	True
309.323	0.25	Lose2	0.6364	0.001	Yes	2.627	0.023	n/a	GoodResponse	0	n/a	n/a	4	32	Cue	AvoidedLoss	False
309.574	4.15	Lose2	0.6364	0.0	Yes	2.627	0.001	2.0	GoodResponse	0	3.92	312.494	4	32	Fixation	AvoidedLoss	False
313.494	0.3	Lose2	0.6364	0.0	Yes	2.627	0.001	2.0	GoodResponse	0	3.92	n/a	4	32	ButtonPress	AvoidedLoss	False
313.72	0.3	Lose2	0.6364	0.003	Yes	2.627	-0.003	2.0	GoodResponse	0	0.168	312.888	4	32	Target	AvoidedLoss	False
313.888	0.3	Lose2	0.6364	0.003	Yes	2.627	-0.003	2.0	GoodResponse	0	0.168	n/a	4	32	ButtonPress	AvoidedLoss	False
314.021	0.4	Lose2	0.6364	n/a	Yes	2.627	n/a	n/a	GoodResponse	0	n/a	n/a	4	32	Blank	AvoidedLoss	False
314.422	1.45	Lose2	0.6364	n/a	Yes	2.627	n/a	5.0	GoodResponse	0	0.039	313.461	4	32	Feedback	AvoidedLoss	False
315.876	2.627	Lose2	0.6364	n/a	Yes	2.627	n/a	n/a	GoodResponse	0	0.0	n/a	4	32	ISIslide	AvoidedLoss	False
318.518	0.25	Win2	0.6470999999999999	0.0	Yes	2.682	0.018	n/a	GoodResponse	1	n/a	n/a	5	33	Cue	Win	True
318.768	4.0	Win2	0.6470999999999999	0.001	Yes	2.682	0.0	n/a	GoodResponse	1	n/a	n/a	5	33	Fixation	Win	True
322.764	0.31	Win2	0.6470999999999999	0.004	Yes	2.682	-0.004	2.0	GoodResponse	1	0.251	322.015	5	33	Target	Win	True
323.015	0.3	Win2	0.6470999999999999	0.004	Yes	2.682	-0.004	2.0	GoodResponse	1	0.251	n/a	5	33	ButtonPress	Win	True
323.081	0.39	Win2	0.6470999999999999	n/a	Yes	2.682	n/a	n/a	GoodResponse	1	n/a	n/a	5	33	Blank	Win	True
323.466	1.45	Win2	0.6470999999999999	n/a	Yes	2.682	n/a	5.0	GoodResponse	1	0.02	322.486	5	33	Feedback	Win	True
324.92	2.682	Win2	0.6470999999999999	n/a	Yes	2.682	n/a	n/a	GoodResponse	1	0.0	n/a	5	33	ISIslide	Win	True
327.628	0.25	Lose2	0.6286	0.0	No	2.622	0.028	n/a	NoResponse	-1	n/a	n/a	4	34	Cue	Loss	True
327.879	4.05	Lose2	0.6286	0.0	No	2.622	0.001	n/a	NoResponse	-1	n/a	n/a	4	34	Fixation	Loss	True
331.925	0.32	Lose2	0.6286	0.003	No	2.622	-0.003	2.0	NoResponse	-1	0.613	331.538	4	34	Target	Loss	True
332.259	0.38	Lose2	0.6286	n/a	No	2.622	n/a	n/a	NoResponse	-1	n/a	n/a	4	34	Blank	Loss	True
332.538	0.3	Lose2	0.6286	0.003	No	2.622	-0.003	2.0	NoResponse	-1	0.613	n/a	4	34	ButtonPress	Loss	True
332.627	1.45	Lose2	0.6286	n/a	No	2.622	n/a	5.0	NoResponse	-1	0.03	331.657	4	34	Feedback	Loss	True
334.081	2.622	Lose2	0.6286	n/a	No	2.622	n/a	n/a	NoResponse	-1	0.0	n/a	4	34	ISIslide	Loss	True
336.722	0.25	Lose2	0.6389	0.0	Yes	2.678	0.022	n/a	GoodResponse	0	n/a	n/a	4	35	Cue	AvoidedLoss	True
336.973	4.0	Lose2	0.6389	0.0	Yes	2.678	0.001	n/a	GoodResponse	0	n/a	n/a	4	35	Fixation	AvoidedLoss	True
340.968	0.33	Lose2	0.6389	0.004	Yes	2.678	-0.004	2.0	GoodResponse	0	0.218	340.186	4	35	Target	AvoidedLoss	True
341.186	0.3	Lose2	0.6389	0.004	Yes	2.678	-0.004	2.0	GoodResponse	0	0.218	n/a	4	35	ButtonPress	AvoidedLoss	True
341.303	0.37	Lose2	0.6389	n/a	Yes	2.678	n/a	n/a	GoodResponse	0	n/a	n/a	4	35	Blank	AvoidedLoss	True
341.67	1.45	Lose2	0.6389	n/a	Yes	2.678	n/a	5.0	GoodResponse	0	0.011	340.681	4	35	Feedback	AvoidedLoss	True
343.125	2.678	Lose2	0.6389	n/a	Yes	2.678	n/a	n/a	GoodResponse	0	0.0	n/a	4	35	ISIslide	AvoidedLoss	True
345.816	0.25	Control	0.6486	0.0	Yes	2.684	0.016	n/a	GoodResponse	0	n/a	n/a	4	36	Cue	Neutral	True
346.067	4.0	Control	0.6486	0.0	Yes	2.684	0.001	n/a	GoodResponse	0	n/a	n/a	4	36	Fixation	Neutral	True
350.062	0.34	Control	0.6486	0.004	Yes	2.684	-0.004	2.0	GoodResponse	0	0.235	349.297	4	36	Target	Neutral	True
350.297	0.3	Control	0.6486	0.004	Yes	2.684	-0.004	2.0	GoodResponse	0	0.235	n/a	4	36	ButtonPress	Neutral	True
350.413	0.36	Control	0.6486	n/a	Yes	2.684	n/a	n/a	GoodResponse	0	n/a	n/a	4	36	Blank	Neutral	True
350.764	1.45	Control	0.6486	n/a	Yes	2.684	n/a	5.0	GoodResponse	0	0.038	349.802	4	36	Feedback	Neutral	True
352.219	2.684	Control	0.6486	n/a	Yes	2.684	n/a	n/a	GoodResponse	0	0.0	n/a	4	36	ISIslide	Neutral	True
354.927	0.25	Win2	0.6579	0.0	Yes	2.873	0.027	n/a	GoodResponse	1	n/a	n/a	5	37	Cue	Win	True
355.178	4.0	Win2	0.6579	0.0	Yes	2.873	0.001	n/a	GoodResponse	1	n/a	n/a	5	37	Fixation	Win	True
359.173	0.35	Win2	0.6579	0.004	Yes	2.873	-0.004	2.0	GoodResponse	1	0.196	358.369	5	37	Target	Win	True
359.369	0.3	Win2	0.6579	0.004	Yes	2.873	-0.004	2.0	GoodResponse	1	0.196	n/a	5	37	ButtonPress	Win	True
359.524	0.35	Win2	0.6579	n/a	Yes	2.873	n/a	n/a	GoodResponse	1	n/a	n/a	5	37	Blank	Win	True
359.875	1.45	Win2	0.6579	n/a	Yes	2.873	n/a	5.0	GoodResponse	1	0.0	358.875	5	37	Feedback	Win	True
361.329	2.873	Win2	0.6579	n/a	Yes	2.873	n/a	n/a	GoodResponse	1	0.0	n/a	5	37	ISIslide	Win	True
364.221	0.25	Lose2	0.6667000000000001	0.0	Yes	2.829	0.021	n/a	GoodResponse	0	n/a	n/a	5	38	Cue	AvoidedLoss	True
364.472	3.95	Lose2	0.6667000000000001	0.0	Yes	2.829	0.001	n/a	GoodResponse	0	n/a	n/a	5	38	Fixation	AvoidedLoss	True
368.417	0.35	Lose2	0.6667000000000001	0.004	Yes	2.829	-0.004	2.0	GoodResponse	0	0.212	367.629	5	38	Target	AvoidedLoss	True
368.629	0.3	Lose2	0.6667000000000001	0.004	Yes	2.829	-0.004	2.0	GoodResponse	0	0.212	n/a	5	38	ButtonPress	AvoidedLoss	True
368.768	0.35	Lose2	0.6667000000000001	n/a	Yes	2.829	n/a	n/a	GoodResponse	0	n/a	n/a	5	38	Blank	AvoidedLoss	True
369.119	1.45	Lose2	0.6667000000000001	n/a	Yes	2.829	n/a	5.0	GoodResponse	0	0.025	368.144	5	38	Feedback	AvoidedLoss	True
370.574	2.829	Lose2	0.6667000000000001	n/a	Yes	2.829	n/a	n/a	GoodResponse	0	0.0	n/a	5	38	ISIslide	AvoidedLoss	True
373.416	0.25	Win2	0.65	0.0	No	2.984	0.016	n/a	NoResponse	0	n/a	n/a	5	39	Cue	MissedWin	True
373.666	4.1	Win2	0.65	0.0	No	2.984	0.0	n/a	NoResponse	0	n/a	n/a	5	39	Fixation	MissedWin	True
377.762	0.34	Win2	0.65	0.004	No	2.984	-0.004	2.0	NoResponse	0	0.673	377.435	5	39	Target	MissedWin	True
378.113	0.36	Win2	0.65	n/a	No	2.984	n/a	n/a	NoResponse	0	n/a	n/a	5	39	Blank	MissedWin	True
378.435	0.3	Win2	0.65	0.004	No	2.984	-0.004	2.0	NoResponse	0	0.673	n/a	5	39	ButtonPress	MissedWin	True
378.464	1.45	Win2	0.65	n/a	No	2.984	n/a	5.0	NoResponse	0	0.046	377.51	5	39	Feedback	MissedWin	True
379.918	2.984	Win2	0.65	n/a	No	2.984	n/a	n/a	NoResponse	0	0.0	n/a	5	39	ISIslide	MissedWin	True
382.927	0.25	Win2	0.6585	0.0	Yes	2.723	0.027	n/a	GoodResponse	1	n/a	n/a	6	40	Cue	Win	True
383.178	3.95	Win2	0.6585	0.0	Yes	2.723	0.001	n/a	GoodResponse	1	n/a	n/a	6	40	Fixation	Win	True
387.123	0.35	Win2	0.6585	0.004	Yes	2.723	-0.004	2.0	GoodResponse	1	0.251	386.374	6	40	Target	Win	True
387.374	0.3	Win2	0.6585	0.004	Yes	2.723	-0.004	2.0	GoodResponse	1	0.251	n/a	6	40	ButtonPress	Win	True
387.474	0.35	Win2	0.6585	n/a	Yes	2.723	n/a	n/a	GoodResponse	1	n/a	n/a	6	40	Blank	Win	True
387.825	1.45	Win2	0.6585	n/a	Yes	2.723	n/a	5.0	GoodResponse	1	0.002	386.827	6	40	Feedback	Win	True
389.28	2.723	Win2	0.6585	n/a	Yes	2.723	n/a	n/a	GoodResponse	1	0.0	n/a	6	40	ISIslide	Win	True
392.021	0.25	Win2	0.6667000000000001	0.0	Yes	2.779	0.021	n/a	GoodResponse	1	n/a	n/a	7	41	Cue	Win	True
392.272	3.9	Win2	0.6667000000000001	0.0	Yes	2.779	0.001	n/a	GoodResponse	1	n/a	n/a	7	41	Fixation	Win	True
396.167	0.35	Win2	0.6667000000000001	0.004	Yes	2.779	-0.004	2.0	GoodResponse	1	0.22	395.387	7	41	Target	Win	True
396.387	0.3	Win2	0.6667000000000001	0.004	Yes	2.779	-0.004	2.0	GoodResponse	1	0.22	n/a	7	41	ButtonPress	Win	True
396.518	0.35	Win2	0.6667000000000001	n/a	Yes	2.779	n/a	n/a	GoodResponse	1	n/a	n/a	7	41	Blank	Win	True
396.869	1.45	Win2	0.6667000000000001	n/a	Yes	2.779	n/a	5.0	GoodResponse	1	0.031	395.9	7	41	Feedback	Win	True
398.323	2.779	Win2	0.6667000000000001	n/a	Yes	2.779	n/a	n/a	GoodResponse	1	0.0	n/a	7	41	ISIslide	Win	True
401.115	0.25	Control	0.6744	0.0	Yes	2.935	0.015	n/a	GoodResponse	0	n/a	n/a	7	42	Cue	Neutral	True
401.366	3.85	Control	0.6744	0.0	Yes	2.935	0.001	n/a	GoodResponse	0	n/a	n/a	7	42	Fixation	Neutral	True
405.211	0.34	Control	0.6744	0.004	Yes	2.935	-0.004	2.0	GoodResponse	0	0.194	404.405	7	42	Target	Neutral	True
405.405	0.3	Control	0.6744	0.004	Yes	2.935	-0.004	2.0	GoodResponse	0	0.194	n/a	7	42	ButtonPress	Neutral	True
405.562	0.36	Control	0.6744	n/a	Yes	2.935	n/a	n/a	GoodResponse	0	n/a	n/a	7	42	Blank	Neutral	True
405.913	1.45	Control	0.6744	n/a	Yes	2.935	n/a	5.0	GoodResponse	0	0.012	404.925	7	42	Feedback	Neutral	True
407.367	2.935	Control	0.6744	n/a	Yes	2.935	n/a	n/a	GoodResponse	0	0.0	n/a	7	42	ISIslide	Neutral	True
410.326	0.25	Win2	0.6591	0.0	No	3.174	0.026	n/a	PrematurePress	0	n/a	n/a	7	43	Cue	MissedWin	True
410.577	4.0	Win2	0.6591	0.0	No	3.174	0.001	n/a	PrematurePress	0	n/a	n/a	7	43	Fixation	MissedWin	True
414.572	0.33	Win2	0.6591	0.004	No	3.174	-0.004	2.0	PrematurePress	0	0.023	413.595	7	43	Target	MissedWin	True
414.595	0.3	Win2	0.6591	0.004	No	3.174	-0.004	2.0	PrematurePress	0	0.023	n/a	7	43	ButtonPress	MissedWin	True
414.907	0.37	Win2	0.6591	n/a	No	3.174	n/a	n/a	PrematurePress	0	n/a	n/a	7	43	Blank	MissedWin	True
415.274	1.45	Win2	0.6591	n/a	No	3.174	n/a	5.0	PrematurePress	0	0.016	414.29	7	43	Feedback	MissedWin	True
416.729	3.174	Win2	0.6591	n/a	No	3.174	n/a	n/a	PrematurePress	0	0.0	n/a	7	43	ISIslide	MissedWin	True
419.922	0.25	Win2	0.6667000000000001	0.0	Yes	2.978	0.022	n/a	GoodResponse	1	n/a	n/a	8	44	Cue	Win	True
420.172	4.0	Win2	0.6667000000000001	0.0	Yes	2.978	0.0	n/a	GoodResponse	1	n/a	n/a	8	44	Fixation	Win	True
424.168	0.33	Win2	0.6667000000000001	0.004	Yes	2.978	-0.004	2.0	GoodResponse	1	0.21	423.378	8	44	Target	Win	True
424.378	0.3	Win2	0.6667000000000001	0.004	Yes	2.978	-0.004	2.0	GoodResponse	1	0.21	n/a	8	44	ButtonPress	Win	True
424.502	0.37	Win2	0.6667000000000001	n/a	Yes	2.978	n/a	n/a	GoodResponse	1	n/a	n/a	8	44	Blank	Win	True
424.87	1.45	Win2	0.6667000000000001	n/a	Yes	2.978	n/a	5.0	GoodResponse	1	0.03	423.9	8	44	Feedback	Win	True
426.324	2.978	Win2	0.6667000000000001	n/a	Yes	2.978	n/a	n/a	GoodResponse	1	0.0	n/a	8	44	ISIslide	Win	True
429.316	0.25	Control	0.6739	0.0	Yes	2.884	0.016	n/a	GoodResponse	0	n/a	n/a	8	45	Cue	Neutral	True
429.567	4.1	Control	0.6739	0.0	Yes	2.884	0.001	n/a	GoodResponse	0	n/a	n/a	8	45	Fixation	Neutral	True
433.663	0.32	Control	0.6739	0.003	Yes	2.884	-0.003	2.0	GoodResponse	0	0.206	432.869	8	45	Target	Neutral	True
433.869	0.3	Control	0.6739	0.003	Yes	2.884	-0.003	2.0	GoodResponse	0	0.206	n/a	8	45	ButtonPress	Neutral	True
433.997	0.38	Control	0.6739	n/a	Yes	2.884	n/a	n/a	GoodResponse	0	n/a	n/a	8	45	Blank	Neutral	True
434.365	1.45	Control	0.6739	n/a	Yes	2.884	n/a	5.0	GoodResponse	0	0.047	433.412	8	45	Feedback	Neutral	True
435.819	2.884	Control	0.6739	n/a	Yes	2.884	n/a	n/a	GoodResponse	0	0.0	n/a	8	45	ISIslide	Neutral	True
438.728	0.25	Lose2	0.6596	0.0	No	3.372	0.028	n/a	NoResponse	-1	n/a	n/a	7	46	Cue	Loss	False
438.979	4.0	Lose2	0.6596	0.0	No	3.372	0.001	n/a	NoResponse	-1	n/a	n/a	7	46	Fixation	Loss	False
442.974	0.31	Lose2	0.6596	0.004	No	3.372	-0.004	n/a	NoResponse	-1	n/a	n/a	7	46	Target	Loss	False
443.292	0.39	Lose2	0.6596	n/a	No	3.372	n/a	n/a	NoResponse	-1	n/a	n/a	7	46	Blank	Loss	False
443.676	1.45	Lose2	0.6596	n/a	No	3.372	n/a	5.0	NoResponse	-1	0.008	442.684	7	46	Feedback	Loss	False
445.13	3.372	Lose2	0.6596	n/a	No	3.372	n/a	n/a	NoResponse	-1	0.0	n/a	7	46	ISIslide	Loss	False
448.524	0.25	Lose2	0.6457999999999999	0.0	No	2.676	0.024	n/a	NoResponse	-1	n/a	n/a	6	47	Cue	Loss	True
448.775	4.0	Lose2	0.6457999999999999	0.0	No	2.676	0.001	n/a	NoResponse	-1	n/a	n/a	6	47	Fixation	Loss	True
452.77	0.31	Lose2	0.6457999999999999	0.004	No	2.676	-0.004	2.0	NoResponse	-1	0.463	452.233	6	47	Target	Loss	True
453.088	0.39	Lose2	0.6457999999999999	n/a	No	2.676	n/a	n/a	NoResponse	-1	n/a	n/a	6	47	Blank	Loss	True
453.233	0.3	Lose2	0.6457999999999999	0.004	No	2.676	-0.004	2.0	NoResponse	-1	0.463	n/a	6	47	ButtonPress	Loss	True
453.472	1.45	Lose2	0.6457999999999999	n/a	No	2.676	n/a	5.0	NoResponse	-1	0.013	452.485	6	47	Feedback	Loss	True
454.926	2.676	Lose2	0.6457999999999999	n/a	No	2.676	n/a	n/a	NoResponse	-1	0.0	n/a	6	47	ISIslide	Loss	True
457.618	0.25	Lose2	0.6531	0.0	Yes	3.032	0.018	n/a	GoodResponse	0	n/a	n/a	6	48	Cue	AvoidedLoss	True
457.869	3.95	Lose2	0.6531	0.0	Yes	3.032	0.001	n/a	GoodResponse	0	n/a	n/a	6	48	Fixation	AvoidedLoss	True
461.814	0.32	Lose2	0.6531	0.004	Yes	3.032	-0.004	2.0	GoodResponse	0	0.227	461.041	6	48	Target	AvoidedLoss	True
462.041	0.3	Lose2	0.6531	0.004	Yes	3.032	-0.004	2.0	GoodResponse	0	0.227	n/a	6	48	ButtonPress	AvoidedLoss	True
462.148	0.38	Lose2	0.6531	n/a	Yes	3.032	n/a	n/a	GoodResponse	0	n/a	n/a	6	48	Blank	AvoidedLoss	True
462.516	1.45	Lose2	0.6531	n/a	Yes	3.032	n/a	5.0	GoodResponse	0	0.042	461.558	6	48	Feedback	AvoidedLoss	True
463.97	3.032	Lose2	0.6531	n/a	Yes	3.032	n/a	n/a	GoodResponse	0	0.0	n/a	6	48	ISIslide	AvoidedLoss	True
467.029	0.25	Control	0.66	0.0	Yes	2.871	0.029	n/a	GoodResponse	0	n/a	n/a	6	49	Cue	Neutral	True
467.28	4.0	Control	0.66	0.0	Yes	2.871	0.001	n/a	GoodResponse	0	n/a	n/a	6	49	Fixation	Neutral	True
471.275	0.33	Control	0.66	0.004	Yes	2.871	-0.004	2.0	GoodResponse	0	0.222	470.497	6	49	Target	Neutral	True
471.497	0.3	Control	0.66	0.004	Yes	2.871	-0.004	2.0	GoodResponse	0	0.222	n/a	6	49	ButtonPress	Neutral	True
471.61	0.37	Control	0.66	n/a	Yes	2.871	n/a	n/a	GoodResponse	0	n/a	n/a	6	49	Blank	Neutral	True
471.978	1.45	Control	0.66	n/a	Yes	2.871	n/a	5.0	GoodResponse	0	0.043	471.021	6	49	Feedback	Neutral	True
473.432	2.871	Control	0.66	n/a	Yes	2.871	n/a	n/a	GoodResponse	0	0.0	n/a	6	49	ISIslide	Neutral	True
476.324	0.25	Control	0.6667000000000001	0.0	Yes	2.776	0.024	n/a	GoodResponse	0	n/a	n/a	6	50	Cue	Neutral	True
476.575	4.0	Control	0.6667000000000001	0.0	Yes	2.776	0.001	n/a	GoodResponse	0	n/a	n/a	6	50	Fixation	Neutral	True
480.57	0.33	Control	0.6667000000000001	0.004	Yes	2.776	-0.004	2.0	GoodResponse	0	0.188	479.758	6	50	Target	Neutral	True
480.758	0.3	Control	0.6667000000000001	0.004	Yes	2.776	-0.004	2.0	GoodResponse	0	0.188	n/a	6	50	ButtonPress	Neutral	True
480.904	0.37	Control	0.6667000000000001	n/a	Yes	2.776	n/a	n/a	GoodResponse	0	n/a	n/a	6	50	Blank	Neutral	True
481.272	1.45	Control	0.6667000000000001	n/a	Yes	2.776	n/a	5.0	GoodResponse	0	0.017	480.289	6	50	Feedback	Neutral	True
482.726	2.776	Control	0.6667000000000001	n/a	Yes	2.776	n/a	n/a	GoodResponse	0	0.0	n/a	6	50	ISIslide	Neutral	True
485.518	0.25	Control	0.6731	0.0	Yes	2.732	0.018	n/a	GoodResponse	0	n/a	n/a	6	51	Cue	Neutral	True
485.769	3.95	Control	0.6731	0.0	Yes	2.732	0.001	n/a	GoodResponse	0	n/a	n/a	6	51	Fixation	Neutral	True
489.714	0.32	Control	0.6731	0.004	Yes	2.732	-0.004	2.0	GoodResponse	0	0.225	488.939	6	51	Target	Neutral	True
489.939	0.3	Control	0.6731	0.004	Yes	2.732	-0.004	2.0	GoodResponse	0	0.225	n/a	6	51	ButtonPress	Neutral	True
490.048	0.38	Control	0.6731	n/a	Yes	2.732	n/a	n/a	GoodResponse	0	n/a	n/a	6	51	Blank	Neutral	True
490.416	1.45	Control	0.6731	n/a	Yes	2.732	n/a	5.0	GoodResponse	0	0.044	489.46	6	51	Feedback	Neutral	True
491.87	2.732	Control	0.6731	n/a	Yes	2.732	n/a	n/a	GoodResponse	0	0.0	n/a	6	51	ISIslide	Neutral	True
494.629	0.25	Control	0.6792	0.0	Yes	2.621	0.029	n/a	GoodResponse	0	n/a	n/a	6	52	Cue	Neutral	True
494.879	4.05	Control	0.6792	0.001	Yes	2.621	0.0	n/a	GoodResponse	0	n/a	n/a	6	52	Fixation	Neutral	True
498.925	0.31	Control	0.6792	0.004	Yes	2.621	-0.004	2.0	GoodResponse	0	0.279	498.204	6	52	Target	Neutral	True
499.204	0.3	Control	0.6792	0.004	Yes	2.621	-0.004	2.0	GoodResponse	0	0.279	n/a	6	52	ButtonPress	Neutral	True
499.243	0.39	Control	0.6792	n/a	Yes	2.621	n/a	n/a	GoodResponse	0	n/a	n/a	6	52	Blank	Neutral	True
499.627	1.45	Control	0.6792	n/a	Yes	2.621	n/a	5.0	GoodResponse	0	0.008	498.635	6	52	Feedback	Neutral	True
501.081	2.621	Control	0.6792	n/a	Yes	2.621	n/a	n/a	GoodResponse	0	0.0	n/a	6	52	ISIslide	Neutral	True
503.723	0.25	Win2	0.6851999999999999	0.0	Yes	2.927	0.023	n/a	GoodResponse	1	n/a	n/a	7	53	Cue	Win	True
503.973	4.05	Win2	0.6851999999999999	0.0	Yes	2.927	0.0	n/a	GoodResponse	1	n/a	n/a	7	53	Fixation	Win	True
508.019	0.3	Win2	0.6851999999999999	0.004	Yes	2.927	-0.004	2.0	GoodResponse	1	0.256	507.275	7	53	Target	Win	True
508.275	0.3	Win2	0.6851999999999999	0.004	Yes	2.927	-0.004	2.0	GoodResponse	1	0.256	n/a	7	53	ButtonPress	Win	True
508.32	0.4	Win2	0.6851999999999999	n/a	Yes	2.927	n/a	n/a	GoodResponse	1	n/a	n/a	7	53	Blank	Win	True
508.721	1.45	Win2	0.6851999999999999	n/a	Yes	2.927	n/a	5.0	GoodResponse	1	0.032	507.753	7	53	Feedback	Win	True
510.175	2.927	Win2	0.6851999999999999	n/a	Yes	2.927	n/a	n/a	GoodResponse	1	0.0	n/a	7	53	ISIslide	Win	True
513.117	0.25	Win2	0.6909000000000001	0.001	Yes	2.733	0.017	n/a	GoodResponse	1	n/a	n/a	8	54	Cue	Win	True
513.368	3.95	Win2	0.6909000000000001	0.0	Yes	2.733	0.001	n/a	GoodResponse	1	n/a	n/a	8	54	Fixation	Win	True
517.313	0.29	Win2	0.6909000000000001	0.004	Yes	2.733	-0.004	2.0	GoodResponse	1	0.227	516.54	8	54	Target	Win	True
517.54	0.3	Win2	0.6909000000000001	0.004	Yes	2.733	-0.004	2.0	GoodResponse	1	0.227	n/a	8	54	ButtonPress	Win	True
517.614	0.41	Win2	0.6909000000000001	n/a	Yes	2.733	n/a	n/a	GoodResponse	1	n/a	n/a	8	54	Blank	Win	True
518.015	1.45	Win2	0.6909000000000001	n/a	Yes	2.733	n/a	5.0	GoodResponse	1	0.007	517.022	8	54	Feedback	Win	True
519.47	2.733	Win2	0.6909000000000001	n/a	Yes	2.733	n/a	n/a	GoodResponse	1	0.0	n/a	8	54	ISIslide	Win	True
522.228	0.25	Control	0.6964	0.0	Yes	3.022	0.028	n/a	GoodResponse	0	n/a	n/a	8	55	Cue	Neutral	True
522.479	3.95	Control	0.6964	0.0	Yes	3.022	0.001	n/a	GoodResponse	0	n/a	n/a	8	55	Fixation	Neutral	True
526.424	0.28	Control	0.6964	0.004	Yes	3.022	-0.004	2.0	GoodResponse	0	0.216	525.64	8	55	Target	Neutral	True
526.64	0.3	Control	0.6964	0.004	Yes	3.022	-0.004	2.0	GoodResponse	0	0.216	n/a	8	55	ButtonPress	Neutral	True
526.708	0.42	Control	0.6964	n/a	Yes	3.022	n/a	n/a	GoodResponse	0	n/a	n/a	8	55	Blank	Neutral	True
527.126	1.45	Control	0.6964	n/a	Yes	3.022	n/a	5.0	GoodResponse	0	0.018	526.144	8	55	Feedback	Neutral	True
528.58	3.022	Control	0.6964	n/a	Yes	3.022	n/a	n/a	GoodResponse	0	0.0	n/a	8	55	ISIslide	Neutral	True
531.623	0.25	Control	0.7018000000000001	0.0	Yes	2.827	0.023	n/a	GoodResponse	0	n/a	n/a	8	56	Cue	Neutral	True
531.874	3.95	Control	0.7018000000000001	0.0	Yes	2.827	0.001	n/a	GoodResponse	0	n/a	n/a	8	56	Fixation	Neutral	True
535.819	0.27	Control	0.7018000000000001	0.004	Yes	2.827	-0.004	2.0	GoodResponse	0	0.249	535.068	8	56	Target	Neutral	True
536.068	0.3	Control	0.7018000000000001	0.004	Yes	2.827	-0.004	2.0	GoodResponse	0	0.249	n/a	8	56	ButtonPress	Neutral	True
536.103	0.43	Control	0.7018000000000001	n/a	Yes	2.827	n/a	n/a	GoodResponse	0	n/a	n/a	8	56	Blank	Neutral	True
536.521	1.45	Control	0.7018000000000001	n/a	Yes	2.827	n/a	5.0	GoodResponse	0	0.036	535.557	8	56	Feedback	Neutral	True
537.975	2.827	Control	0.7018000000000001	n/a	Yes	2.827	n/a	n/a	GoodResponse	0	0.0	n/a	8	56	ISIslide	Neutral	True
540.817	0.25	Control	0.6897	0.0	No	3.483	0.017	n/a	NoResponse	0	n/a	n/a	8	57	Cue	Neutral	True
541.068	4.0	Control	0.6897	0.0	No	3.483	0.001	n/a	NoResponse	0	n/a	n/a	8	57	Fixation	Neutral	True
545.063	0.26	Control	0.6897	0.004	No	3.483	-0.004	2.0	NoResponse	0	0.333	544.396	8	57	Target	Neutral	True
545.331	0.44	Control	0.6897	n/a	No	3.483	n/a	n/a	NoResponse	0	n/a	n/a	8	57	Blank	Neutral	True
545.396	0.3	Control	0.6897	0.004	No	3.483	-0.004	2.0	NoResponse	0	0.333	n/a	8	57	ButtonPress	Neutral	True
545.765	1.45	Control	0.6897	n/a	No	3.483	n/a	5.0	NoResponse	0	0.012	544.777	8	57	Feedback	Neutral	True
547.22	3.483	Control	0.6897	n/a	No	3.483	n/a	n/a	NoResponse	0	0.0	n/a	8	57	ISIslide	Neutral	True
550.73	0.25	Win2	0.6779999999999999	0.0	No	2.72	0.03	n/a	NoResponse	0	n/a	n/a	8	58	Cue	MissedWin	True
550.981	4.05	Win2	0.6779999999999999	0.0	No	2.72	0.001	n/a	NoResponse	0	n/a	n/a	8	58	Fixation	MissedWin	True
555.026	0.25	Win2	0.6779999999999999	0.004	No	2.72	-0.004	2.0	NoResponse	0	0.336	554.362	8	58	Target	MissedWin	True
555.277	0.45	Win2	0.6779999999999999	n/a	No	2.72	n/a	n/a	NoResponse	0	n/a	n/a	8	58	Blank	MissedWin	True
555.362	0.3	Win2	0.6779999999999999	0.004	No	2.72	-0.004	2.0	NoResponse	0	0.336	n/a	8	58	ButtonPress	MissedWin	True
555.728	1.45	Win2	0.6779999999999999	n/a	No	2.72	n/a	5.0	NoResponse	0	0.049	554.777	8	58	Feedback	MissedWin	True
557.183	2.72	Win2	0.6779999999999999	n/a	No	2.72	n/a	n/a	NoResponse	0	0.0	n/a	8	58	ISIslide	MissedWin	True
559.924	0.25	Lose2	0.6667000000000001	0.0	No	2.676	0.024	n/a	NoResponse	-1	n/a	n/a	7	59	Cue	Loss	True
560.175	4.0	Lose2	0.6667000000000001	0.0	No	2.676	0.001	n/a	NoResponse	-1	n/a	n/a	7	59	Fixation	Loss	True
564.17	0.24	Lose2	0.6667000000000001	0.004	No	2.676	-0.004	2.0	NoResponse	-1	0.666	563.836	7	59	Target	Loss	True
564.421	0.46	Lose2	0.6667000000000001	n/a	No	2.676	n/a	n/a	NoResponse	-1	n/a	n/a	7	59	Blank	Loss	True
564.836	0.3	Lose2	0.6667000000000001	0.004	No	2.676	-0.004	2.0	NoResponse	-1	0.666	n/a	7	59	ButtonPress	Loss	True
564.873	1.45	Lose2	0.6667000000000001	n/a	No	2.676	n/a	5.0	NoResponse	-1	0.026	563.899	7	59	Feedback	Loss	True
566.327	2.676	Lose2	0.6667000000000001	n/a	No	2.676	n/a	n/a	NoResponse	-1	0.0	n/a	7	59	ISIslide	Loss	True
569.018	0.25	Control	0.6720999999999999	0.0	Yes	2.682	0.018	n/a	GoodResponse	0	n/a	n/a	7	60	Cue	Neutral	True
569.269	4.0	Control	0.6720999999999999	0.0	Yes	2.682	0.001	n/a	GoodResponse	0	n/a	n/a	7	60	Fixation	Neutral	True
573.264	0.23	Control	0.6720999999999999	0.004	Yes	2.682	-0.004	2.0	GoodResponse	0	0.212	572.476	7	60	Target	Neutral	True
573.476	0.3	Control	0.6720999999999999	0.004	Yes	2.682	-0.004	2.0	GoodResponse	0	0.212	n/a	7	60	ButtonPress	Neutral	True
573.498	0.47	Control	0.6720999999999999	n/a	Yes	2.682	n/a	n/a	GoodResponse	0	n/a	n/a	7	60	Blank	Neutral	True
573.966	1.45	Control	0.6720999999999999	n/a	Yes	2.682	n/a	5.0	GoodResponse	0	0.008	572.974	7	60	Feedback	Neutral	True
575.421	2.682	Control	0.6720999999999999	n/a	Yes	2.682	n/a	n/a	GoodResponse	0	0.0	n/a	7	60	ISIslide	Neutral	True
578.129	0.25	Lose2	0.6774	0.0	Yes	2.971	0.029	n/a	GoodResponse	0	n/a	n/a	7	61	Cue	AvoidedLoss	True
578.38	4.0	Lose2	0.6774	0.0	Yes	2.971	0.001	n/a	GoodResponse	0	n/a	n/a	7	61	Fixation	AvoidedLoss	True
582.375	0.22	Lose2	0.6774	0.004	Yes	2.971	-0.004	2.0	GoodResponse	0	0.213	581.588	7	61	Target	AvoidedLoss	True
582.588	0.3	Lose2	0.6774	0.004	Yes	2.971	-0.004	2.0	GoodResponse	0	0.213	n/a	7	61	ButtonPress	AvoidedLoss	True
582.609	0.48	Lose2	0.6774	n/a	Yes	2.971	n/a	n/a	GoodResponse	0	n/a	n/a	7	61	Blank	AvoidedLoss	True
583.077	1.45	Lose2	0.6774	n/a	Yes	2.971	n/a	5.0	GoodResponse	0	0.017	582.094	7	61	Feedback	AvoidedLoss	True
584.531	2.971	Lose2	0.6774	n/a	Yes	2.971	n/a	n/a	GoodResponse	0	0.0	n/a	7	61	ISIslide	AvoidedLoss	True
587.524	0.25	Lose2	0.6667000000000001	0.0	No	2.876	0.024	n/a	NoResponse	-1	n/a	n/a	6	62	Cue	Loss	True
587.774	3.9	Lose2	0.6667000000000001	0.001	No	2.876	0.0	n/a	NoResponse	-1	n/a	n/a	6	62	Fixation	Loss	True
591.669	0.21	Lose2	0.6667000000000001	0.005	No	2.876	-0.005	2.0	NoResponse	-1	0.226	590.895	6	62	Target	Loss	True
591.887	0.49	Lose2	0.6667000000000001	n/a	No	2.876	n/a	n/a	NoResponse	-1	n/a	n/a	6	62	Blank	Loss	True
591.895	0.3	Lose2	0.6667000000000001	0.005	No	2.876	-0.005	2.0	NoResponse	-1	0.226	n/a	6	62	ButtonPress	Loss	True
592.372	1.45	Lose2	0.6667000000000001	n/a	No	2.876	n/a	5.0	NoResponse	-1	0.039	591.411	6	62	Feedback	Loss	True
593.826	2.876	Lose2	0.6667000000000001	n/a	No	2.876	n/a	n/a	NoResponse	-1	0.0	n/a	6	62	ISIslide	Loss	True
596.718	0.25	Lose2	0.6562	0.0	No	2.632	0.018	n/a	NoResponse	-1	n/a	n/a	5	63	Cue	Loss	True
596.969	4.05	Lose2	0.6562	0.0	No	2.632	0.001	n/a	NoResponse	-1	n/a	n/a	5	63	Fixation	Loss	True
601.014	0.2	Lose2	0.6562	0.004	No	2.632	-0.004	2.0	NoResponse	-1	0.22	600.234	5	63	Target	Loss	True
601.215	0.5	Lose2	0.6562	n/a	No	2.632	n/a	n/a	NoResponse	-1	n/a	n/a	5	63	Blank	Loss	True
601.234	0.3	Lose2	0.6562	0.004	No	2.632	-0.004	2.0	NoResponse	-1	0.22	n/a	5	63	ButtonPress	Loss	True
601.716	1.45	Lose2	0.6562	n/a	No	2.632	n/a	5.0	NoResponse	-1	0.012	600.728	5	63	Feedback	Loss	True
603.171	2.632	Lose2	0.6562	n/a	No	2.632	n/a	n/a	NoResponse	-1	0.0	n/a	5	63	ISIslide	Loss	True
605.829	0.25	Win2	0.6462	0.0	No	3.121	0.029	n/a	NoResponse	0	n/a	n/a	5	64	Cue	MissedWin	False
606.079	4.15	Win2	0.6462	0.0	No	3.121	0.0	2.0	NoResponse	0	4.071	609.15	5	64	Fixation	MissedWin	False
610.15	0.3	Win2	0.6462	0.0	No	3.121	0.0	2.0	NoResponse	0	4.071	n/a	5	64	ButtonPress	MissedWin	False
610.225	0.2	Win2	0.6462	0.004	No	3.121	-0.004	2.0	NoResponse	0	0.214	609.439	5	64	Target	MissedWin	False
610.426	0.5	Win2	0.6462	n/a	No	3.121	n/a	n/a	NoResponse	0	n/a	n/a	5	64	Blank	MissedWin	False
610.439	0.3	Win2	0.6462	0.004	No	3.121	-0.004	2.0	NoResponse	0	0.214	n/a	5	64	ButtonPress	MissedWin	False
610.927	1.45	Win2	0.6462	n/a	No	3.121	n/a	5.0	NoResponse	0	0.02	609.947	5	64	Feedback	MissedWin	False
612.382	3.121	Win2	0.6462	n/a	No	3.121	n/a	n/a	NoResponse	0	0.0	n/a	5	64	ISIslide	MissedWin	False
615.524	0.25	Control	0.6364	0.0	No	2.776	0.024	n/a	NoResponse	0	n/a	n/a	5	65	Cue	Neutral	True
615.775	4.0	Control	0.6364	0.0	No	2.776	0.001	n/a	NoResponse	0	n/a	n/a	5	65	Fixation	Neutral	True
619.77	0.21	Control	0.6364	0.004	No	2.776	-0.004	2.0	NoResponse	0	0.227	618.997	5	65	Target	Neutral	True
619.988	0.49	Control	0.6364	n/a	No	2.776	n/a	n/a	NoResponse	0	n/a	n/a	5	65	Blank	Neutral	True
619.997	0.3	Control	0.6364	0.004	No	2.776	-0.004	2.0	NoResponse	0	0.227	n/a	5	65	ButtonPress	Neutral	True
620.472	1.45	Control	0.6364	n/a	No	2.776	n/a	5.0	NoResponse	0	0.036	619.508	5	65	Feedback	Neutral	True
621.927	2.776	Control	0.6364	n/a	No	2.776	n/a	n/a	NoResponse	0	0.0	n/a	5	65	ISIslide	Neutral	True
624.719	0.25	Win2	0.6269	0.0	No	2.781	0.019	n/a	NoResponse	0	n/a	n/a	5	66	Cue	MissedWin	True
624.969	3.9	Win2	0.6269	0.0	No	2.781	0.0	n/a	NoResponse	0	n/a	n/a	5	66	Fixation	MissedWin	True
628.881	0.22	Win2	0.6269	0.0	No	2.781	0.012	2.0	NoResponse	0	0.227	628.108	5	66	Target	MissedWin	True
629.098	0.48	Win2	0.6269	n/a	No	2.781	n/a	n/a	NoResponse	0	n/a	n/a	5	66	Blank	MissedWin	True
629.108	0.3	Win2	0.6269	0.0	No	2.781	0.012	2.0	NoResponse	0	0.227	n/a	5	66	ButtonPress	MissedWin	True
629.566	1.45	Win2	0.6269	n/a	No	2.781	n/a	5.0	NoResponse	0	0.016	628.582	5	66	Feedback	MissedWin	True
631.021	2.781	Win2	0.6269	n/a	No	2.781	n/a	n/a	NoResponse	0	0.0	n/a	5	66	ISIslide	MissedWin	True
633.829	0.25	Control	0.6324000000000001	0.0	Yes	2.721	0.029	n/a	GoodResponse	0	n/a	n/a	5	67	Cue	Neutral	True
634.08	3.95	Control	0.6324000000000001	0.0	Yes	2.721	0.001	n/a	GoodResponse	0	n/a	n/a	5	67	Fixation	Neutral	True
638.025	0.23	Control	0.6324000000000001	0.004	Yes	2.721	-0.004	2.0	GoodResponse	0	0.217	637.242	5	67	Target	Neutral	True
638.242	0.3	Control	0.6324000000000001	0.004	Yes	2.721	-0.004	2.0	GoodResponse	0	0.217	n/a	5	67	ButtonPress	Neutral	True
638.259	0.47	Control	0.6324000000000001	n/a	Yes	2.721	n/a	n/a	GoodResponse	0	n/a	n/a	5	67	Blank	Neutral	True
638.727	1.45	Control	0.6324000000000001	n/a	Yes	2.721	n/a	5.0	GoodResponse	0	0.025	637.752	5	67	Feedback	Neutral	True
640.182	2.721	Control	0.6324000000000001	n/a	Yes	2.721	n/a	n/a	GoodResponse	0	0.0	n/a	5	67	ISIslide	Neutral	True
642.923	0.25	Win2	0.6232	0.0	No	3.077	0.023	n/a	LatePress	0	n/a	n/a	5	68	Cue	MissedWin	True
643.174	4.0	Win2	0.6232	0.0	No	3.077	0.001	n/a	LatePress	0	n/a	n/a	5	68	Fixation	MissedWin	True
647.169	0.24	Win2	0.6232	0.004	No	3.077	-0.004	2.0	LatePress	0	0.25	646.419	5	68	Target	MissedWin	True
647.419	0.3	Win2	0.6232	0.004	No	3.077	-0.004	2.0	LatePress	0	0.25	n/a	5	68	ButtonPress	MissedWin	True
647.42	0.46	Win2	0.6232	n/a	No	3.077	n/a	n/a	LatePress	0	n/a	n/a	5	68	Blank	MissedWin	True
647.871	1.45	Win2	0.6232	n/a	No	3.077	n/a	5.0	LatePress	0	0.004	646.875	5	68	Feedback	MissedWin	True
649.326	3.077	Win2	0.6232	n/a	No	3.077	n/a	n/a	LatePress	0	0.0	n/a	5	68	ISIslide	MissedWin	True
652.418	0.25	Win2	0.6286	0.0	Yes	3.232	0.018	n/a	GoodResponse	1	n/a	n/a	6	69	Cue	Win	True
652.669	3.95	Win2	0.6286	0.0	Yes	3.232	0.001	n/a	GoodResponse	1	n/a	n/a	6	69	Fixation	Win	True
656.614	0.25	Win2	0.6286	0.004	Yes	3.232	-0.004	2.0	GoodResponse	1	0.239	655.853	6	69	Target	Win	True
656.853	0.3	Win2	0.6286	0.004	Yes	3.232	-0.004	2.0	GoodResponse	1	0.239	n/a	6	69	ButtonPress	Win	True
656.865	0.45	Win2	0.6286	n/a	Yes	3.232	n/a	n/a	GoodResponse	1	n/a	n/a	6	69	Blank	Win	True
657.316	1.45	Win2	0.6286	n/a	Yes	3.232	n/a	5.0	GoodResponse	1	0.021	656.337	6	69	Feedback	Win	True
658.771	3.232	Win2	0.6286	n/a	Yes	3.232	n/a	n/a	GoodResponse	1	0.0	n/a	6	69	ISIslide	Win	True
662.014	0.25	Lose2	0.6338	0.0	Yes	3.036	0.014	n/a	GoodResponse	0	n/a	n/a	6	70	Cue	AvoidedLoss	True
662.264	4.05	Lose2	0.6338	0.0	Yes	3.036	0.0	n/a	GoodResponse	0	n/a	n/a	6	70	Fixation	AvoidedLoss	True
666.31	0.26	Lose2	0.6338	0.004	Yes	3.036	-0.004	2.0	GoodResponse	0	0.209	665.519	6	70	Target	AvoidedLoss	True
666.519	0.3	Lose2	0.6338	0.004	Yes	3.036	-0.004	2.0	GoodResponse	0	0.209	n/a	6	70	ButtonPress	AvoidedLoss	True
666.577	0.44	Lose2	0.6338	n/a	Yes	3.036	n/a	n/a	GoodResponse	0	n/a	n/a	6	70	Blank	AvoidedLoss	True
667.012	1.45	Lose2	0.6338	n/a	Yes	3.036	n/a	5.0	GoodResponse	0	0.032	666.044	6	70	Feedback	AvoidedLoss	True
668.466	3.036	Lose2	0.6338	n/a	Yes	3.036	n/a	n/a	GoodResponse	0	0.0	n/a	6	70	ISIslide	AvoidedLoss	True
671.525	0.25	Win2	0.6389	0.001	Yes	2.725	0.025	n/a	GoodResponse	1	n/a	n/a	7	71	Cue	Win	True
671.776	4.05	Win2	0.6389	0.0	Yes	2.725	0.001	n/a	GoodResponse	1	n/a	n/a	7	71	Fixation	Win	True
675.822	0.27	Win2	0.6389	0.003	Yes	2.725	-0.003	2.0	GoodResponse	1	0.22	675.042	7	71	Target	Win	True
676.042	0.3	Win2	0.6389	0.003	Yes	2.725	-0.003	2.0	GoodResponse	1	0.22	n/a	7	71	ButtonPress	Win	True
676.106	0.43	Win2	0.6389	n/a	Yes	2.725	n/a	n/a	GoodResponse	1	n/a	n/a	7	71	Blank	Win	True
676.524	1.45	Win2	0.6389	n/a	Yes	2.725	n/a	5.0	GoodResponse	1	0.033	675.557	7	71	Feedback	Win	True
677.978	2.725	Win2	0.6389	n/a	Yes	2.725	n/a	n/a	GoodResponse	1	0.0	n/a	7	71	ISIslide	Win	True
680.72	0.25	Win2	0.6437999999999999	0.0	Yes	2.78	0.02	n/a	GoodResponse	1	n/a	n/a	8	72	Cue	Win	True
680.97	4.1	Win2	0.6437999999999999	0.0	Yes	2.78	0.0	n/a	GoodResponse	1	n/a	n/a	8	72	Fixation	Win	True
685.066	0.28	Win2	0.6437999999999999	0.004	Yes	2.78	-0.004	2.0	GoodResponse	1	0.22	684.286	8	72	Target	Win	True
685.286	0.3	Win2	0.6437999999999999	0.004	Yes	2.78	-0.004	2.0	GoodResponse	1	0.22	n/a	8	72	ButtonPress	Win	True
685.35	0.42	Win2	0.6437999999999999	n/a	Yes	2.78	n/a	n/a	GoodResponse	1	n/a	n/a	8	72	Blank	Win	True
685.768	1.45	Win2	0.6437999999999999	n/a	Yes	2.78	n/a	5.0	GoodResponse	1	0.008	684.776	8	72	Feedback	Win	True
687.222	2.78	Win2	0.6437999999999999	n/a	Yes	2.78	n/a	n/a	GoodResponse	1	0.0	n/a	8	72	ISIslide	Win	True
690.014	0.25	Win2	0.6486	0.0	Yes	2.686	0.014	n/a	GoodResponse	1	n/a	n/a	9	73	Cue	Win	True
690.265	4.0	Win2	0.6486	0.0	Yes	2.686	0.001	n/a	GoodResponse	1	n/a	n/a	9	73	Fixation	Win	True
694.26	0.29	Win2	0.6486	0.004	Yes	2.686	-0.004	2.0	GoodResponse	1	0.24	693.5	9	73	Target	Win	True
694.5	0.3	Win2	0.6486	0.004	Yes	2.686	-0.004	2.0	GoodResponse	1	0.24	n/a	9	73	ButtonPress	Win	True
694.561	0.41	Win2	0.6486	n/a	Yes	2.686	n/a	n/a	GoodResponse	1	n/a	n/a	9	73	Blank	Win	True
694.962	1.45	Win2	0.6486	n/a	Yes	2.686	n/a	5.0	GoodResponse	1	0.034	693.996	9	73	Feedback	Win	True
696.417	2.686	Win2	0.6486	n/a	Yes	2.686	n/a	n/a	GoodResponse	1	0.0	n/a	9	73	ISIslide	Win	True
699.125	0.25	Lose2	0.6533	0.0	Yes	2.625	0.025	n/a	GoodResponse	0	n/a	n/a	9	74	Cue	AvoidedLoss	True
699.376	4.05	Lose2	0.6533	0.0	Yes	2.625	0.001	n/a	GoodResponse	0	n/a	n/a	9	74	Fixation	AvoidedLoss	True
703.421	0.3	Lose2	0.6533	0.004	Yes	2.625	-0.004	2.0	GoodResponse	0	0.206	702.627	9	74	Target	AvoidedLoss	True
703.627	0.3	Lose2	0.6533	0.004	Yes	2.625	-0.004	2.0	GoodResponse	0	0.206	n/a	9	74	ButtonPress	AvoidedLoss	True
703.722	0.4	Lose2	0.6533	n/a	Yes	2.625	n/a	n/a	GoodResponse	0	n/a	n/a	9	74	Blank	AvoidedLoss	True
704.123	1.45	Lose2	0.6533	n/a	Yes	2.625	n/a	5.0	GoodResponse	0	0.044	703.167	9	74	Feedback	AvoidedLoss	True
705.577	2.625	Lose2	0.6533	n/a	Yes	2.625	n/a	n/a	GoodResponse	0	0.0	n/a	9	74	ISIslide	AvoidedLoss	True
708.219	0.25	Lose2	0.6579	0.0	Yes	2.931	0.019	n/a	GoodResponse	0	n/a	n/a	9	75	Cue	AvoidedLoss	True
708.469	3.95	Lose2	0.6579	0.001	Yes	2.931	0.0	n/a	GoodResponse	0	n/a	n/a	9	75	Fixation	AvoidedLoss	True
712.415	0.31	Lose2	0.6579	0.004	Yes	2.931	-0.004	2.0	GoodResponse	0	0.176	711.591	9	75	Target	AvoidedLoss	True
712.591	0.3	Lose2	0.6579	0.004	Yes	2.931	-0.004	2.0	GoodResponse	0	0.176	n/a	9	75	ButtonPress	AvoidedLoss	True
712.732	0.39	Lose2	0.6579	n/a	Yes	2.931	n/a	n/a	GoodResponse	0	n/a	n/a	9	75	Blank	AvoidedLoss	True
713.117	1.45	Lose2	0.6579	n/a	Yes	2.931	n/a	5.0	GoodResponse	0	0.025	712.142	9	75	Feedback	AvoidedLoss	True
714.571	2.931	Lose2	0.6579	n/a	Yes	2.931	n/a	n/a	GoodResponse	0	0.0	n/a	9	75	ISIslide	AvoidedLoss	True
717.513	0.25	Control	0.6623	0.0	Yes	3.237	0.013	n/a	GoodResponse	0	n/a	n/a	9	76	Cue	Neutral	True
717.764	4.05	Control	0.6623	0.0	Yes	3.237	0.001	n/a	GoodResponse	0	n/a	n/a	9	76	Fixation	Neutral	True
721.809	0.31	Control	0.6623	0.004	Yes	3.237	-0.004	2.0	GoodResponse	0	0.232	721.041	9	76	Target	Neutral	True
722.041	0.3	Control	0.6623	0.004	Yes	3.237	-0.004	2.0	GoodResponse	0	0.232	n/a	9	76	ButtonPress	Neutral	True
722.127	0.39	Control	0.6623	n/a	Yes	3.237	n/a	n/a	GoodResponse	0	n/a	n/a	9	76	Blank	Neutral	True
722.512	1.45	Control	0.6623	n/a	Yes	3.237	n/a	5.0	GoodResponse	0	0.044	721.556	9	76	Feedback	Neutral	True
723.966	3.237	Control	0.6623	n/a	Yes	3.237	n/a	n/a	GoodResponse	0	0.0	n/a	9	76	ISIslide	Neutral	True
727.226	0.25	Lose2	0.6667000000000001	0.0	Yes	2.574	0.026	n/a	GoodResponse	0	n/a	n/a	9	77	Cue	AvoidedLoss	True
727.476	3.95	Lose2	0.6667000000000001	0.0	Yes	2.574	0.0	n/a	GoodResponse	0	n/a	n/a	9	77	Fixation	AvoidedLoss	True
731.422	0.31	Lose2	0.6667000000000001	0.004	Yes	2.574	-0.004	2.0	GoodResponse	0	0.241	730.663	9	77	Target	AvoidedLoss	True
731.663	0.3	Lose2	0.6667000000000001	0.004	Yes	2.574	-0.004	2.0	GoodResponse	0	0.241	n/a	9	77	ButtonPress	AvoidedLoss	True
731.739	0.39	Lose2	0.6667000000000001	n/a	Yes	2.574	n/a	n/a	GoodResponse	0	n/a	n/a	9	77	Blank	AvoidedLoss	True
732.124	1.45	Lose2	0.6667000000000001	n/a	Yes	2.574	n/a	5.0	GoodResponse	0	0.042	731.166	9	77	Feedback	AvoidedLoss	True
733.578	2.574	Lose2	0.6667000000000001	n/a	Yes	2.574	n/a	n/a	GoodResponse	0	0.0	n/a	9	77	ISIslide	AvoidedLoss	True
