onset	duration	cue_type	current_mean_accuracy	duration_error	is_hit	isi_adjusted	onset_delay	response	response_type	reward	rt	rt_time	total_reward	trial_number	trial_phase	trial_type	one_press
11.097	0.25	Control	0.0	0.001	No	2.953	-0.003	n/a	NoResponse	0	n/a	n/a	0	0	Cue	Neutral	True
11.347	3.85	Control	0.0	0.001	No	2.953	0.0	n/a	NoResponse	0	n/a	n/a	0	0	Fixation	Neutral	True
15.196	0.4	Control	0.0	0.001	No	2.953	-0.001	2.0	NoResponse	0	0.514	14.71	0	0	Target	Neutral	True
15.596	0.3	Control	0.0	n/a	No	2.953	n/a	n/a	NoResponse	0	n/a	n/a	0	0	Blank	Neutral	True
15.71	0.3	Control	0.0	0.001	No	2.953	-0.001	2.0	NoResponse	0	0.514	n/a	0	0	ButtonPress	Neutral	True
15.896	1.45	Control	0.0	n/a	No	2.953	n/a	5.0	NoResponse	0	0.032	14.928	0	0	Feedback	Neutral	True
17.345	2.953	Control	0.0	n/a	No	2.953	n/a	n/a	NoResponse	0	0.0	n/a	0	0	ISIslide	Neutral	True
20.328	0.25	Lose2	0.5	0.0	Yes	2.772	0.028	n/a	GoodResponse	0	n/a	n/a	0	1	Cue	AvoidedLoss	True
20.578	4.0	Lose2	0.5	0.0	Yes	2.772	0.0	n/a	GoodResponse	0	n/a	n/a	0	1	Fixation	AvoidedLoss	True
24.576	0.41	Lose2	0.5	0.002	Yes	2.772	-0.002	2.0	GoodResponse	0	0.224	23.8	0	1	Target	AvoidedLoss	True
24.8	0.3	Lose2	0.5	0.002	Yes	2.772	-0.002	2.0	GoodResponse	0	0.224	n/a	0	1	ButtonPress	AvoidedLoss	True
24.993	0.29	Lose2	0.5	n/a	Yes	2.772	n/a	n/a	GoodResponse	0	n/a	n/a	0	1	Blank	AvoidedLoss	True
25.276	1.45	Lose2	0.5	n/a	Yes	2.772	n/a	5.0	GoodResponse	0	0.018	24.294	0	1	Feedback	AvoidedLoss	True
26.725	2.772	Lose2	0.5	n/a	Yes	2.772	n/a	n/a	GoodResponse	0	0.0	n/a	0	1	ISIslide	AvoidedLoss	True
29.525	0.25	Control	0.3333	0.0	No	2.575	0.025	n/a	NoResponse	0	n/a	n/a	0	2	Cue	Neutral	True
29.774	4.1	Control	0.3333	0.001	No	2.575	-0.001	2.0	NoResponse	0	3.948	32.722	0	2	Fixation	Neutral	True
33.722	0.3	Control	0.3333	0.001	No	2.575	-0.001	2.0	NoResponse	0	3.948	n/a	0	2	ButtonPress	Neutral	True
33.873	0.42	Control	0.3333	0.002	No	2.575	-0.002	n/a	NoResponse	0	n/a	n/a	0	2	Target	Neutral	True
34.306	0.28	Control	0.3333	n/a	No	2.575	n/a	n/a	NoResponse	0	n/a	n/a	0	2	Blank	Neutral	True
34.573	1.45	Control	0.3333	n/a	No	2.575	n/a	5.0	NoResponse	0	0.038	33.611	0	2	Feedback	Neutral	True
36.022	2.575	Control	0.3333	n/a	No	2.575	n/a	n/a	NoResponse	0	0.0	n/a	0	2	ISIslide	Neutral	True
38.621	0.25	Win2	0.5	0.0	Yes	2.829	0.021	n/a	GoodResponse	1	n/a	n/a	1	3	Cue	Win	True
38.871	3.95	Win2	0.5	0.0	Yes	2.829	0.0	n/a	GoodResponse	1	n/a	n/a	1	3	Fixation	Win	True
42.82	0.43	Win2	0.5	0.001	Yes	2.829	-0.001	2.0	GoodResponse	1	0.274	42.094	1	3	Target	Win	True
43.094	0.3	Win2	0.5	0.001	Yes	2.829	-0.001	2.0	GoodResponse	1	0.274	n/a	1	3	ButtonPress	Win	True
43.253	0.27	Win2	0.5	n/a	Yes	2.829	n/a	n/a	GoodResponse	1	n/a	n/a	1	3	Blank	Win	True
43.52	1.45	Win2	0.5	n/a	Yes	2.829	n/a	5.0	GoodResponse	1	0.018	42.538	1	3	Feedback	Win	True
44.969	2.829	Win2	0.5	n/a	Yes	2.829	n/a	n/a	GoodResponse	1	0.0	n/a	1	3	ISIslide	Win	True
47.818	0.25	Win2	0.6	0.0	Yes	3.282	0.018	n/a	GoodResponse	1	n/a	n/a	2	4	Cue	Win	True
48.068	4.0	Win2	0.6	0.0	Yes	3.282	0.0	n/a	GoodResponse	1	n/a	n/a	2	4	Fixation	Win	True
52.067	0.44	Win2	0.6	0.001	Yes	3.282	-0.001	2.0	GoodResponse	1	0.368	51.435	2	4	Target	Win	True
52.435	0.3	Win2	0.6	0.001	Yes	3.282	-0.001	2.0	GoodResponse	1	0.368	n/a	2	4	ButtonPress	Win	True
52.517	0.26	Win2	0.6	n/a	Yes	3.282	n/a	n/a	GoodResponse	1	n/a	n/a	2	4	Blank	Win	True
52.767	1.45	Win2	0.6	n/a	Yes	3.282	n/a	5.0	GoodResponse	1	0.039	51.806	2	4	Feedback	Win	True
54.216	3.282	Win2	0.6	n/a	Yes	3.282	n/a	n/a	GoodResponse	1	0.0	n/a	2	4	ISIslide	Win	True
57.515	0.25	Win2	0.6667000000000001	0.0	Yes	2.785	0.015	n/a	GoodResponse	1	n/a	n/a	3	5	Cue	Win	True
57.765	4.0	Win2	0.6667000000000001	0.0	Yes	2.785	0.0	n/a	GoodResponse	1	n/a	n/a	3	5	Fixation	Win	True
61.763	0.45	Win2	0.6667000000000001	0.002	Yes	2.785	-0.002	2.0	GoodResponse	1	0.322	61.085	3	5	Target	Win	True
62.085	0.3	Win2	0.6667000000000001	0.002	Yes	2.785	-0.002	2.0	GoodResponse	1	0.322	n/a	3	5	ButtonPress	Win	True
62.213	0.25	Win2	0.6667000000000001	n/a	Yes	2.785	n/a	n/a	GoodResponse	1	n/a	n/a	3	5	Blank	Win	True
62.463	1.45	Win2	0.6667000000000001	n/a	Yes	2.785	n/a	5.0	GoodResponse	1	0.002	61.465	3	5	Feedback	Win	True
63.913	2.785	Win2	0.6667000000000001	n/a	Yes	2.785	n/a	n/a	GoodResponse	1	0.0	n/a	3	5	ISIslide	Win	True
66.728	0.25	Lose2	0.7143	0.001	Yes	2.722	0.028	n/a	GoodResponse	0	n/a	n/a	3	6	Cue	AvoidedLoss	True
66.978	3.95	Lose2	0.7143	0.0	Yes	2.722	0.0	n/a	GoodResponse	0	n/a	n/a	3	6	Fixation	AvoidedLoss	True
70.927	0.44	Lose2	0.7143	0.001	Yes	2.722	-0.001	2.0	GoodResponse	0	0.384	70.311	3	6	Target	AvoidedLoss	True
71.311	0.3	Lose2	0.7143	0.001	Yes	2.722	-0.001	2.0	GoodResponse	0	0.384	n/a	3	6	ButtonPress	AvoidedLoss	True
71.377	0.26	Lose2	0.7143	n/a	Yes	2.722	n/a	n/a	GoodResponse	0	n/a	n/a	3	6	Blank	AvoidedLoss	True
71.627	1.45	Lose2	0.7143	n/a	Yes	2.722	n/a	5.0	GoodResponse	0	0.009	70.636	3	6	Feedback	AvoidedLoss	True
73.076	2.722	Lose2	0.7143	n/a	Yes	2.722	n/a	n/a	GoodResponse	0	0.0	n/a	3	6	ISIslide	AvoidedLoss	True
75.825	0.25	Lose2	0.75	0.0	Yes	4.025	0.025	n/a	GoodResponse	0	n/a	n/a	3	7	Cue	AvoidedLoss	True
76.075	4.05	Lose2	0.75	0.0	Yes	4.025	0.0	n/a	GoodResponse	0	n/a	n/a	3	7	Fixation	AvoidedLoss	True
80.124	0.43	Lose2	0.75	0.001	Yes	4.025	-0.001	2.0	GoodResponse	0	0.32	79.444	3	7	Target	AvoidedLoss	True
80.444	0.3	Lose2	0.75	0.001	Yes	4.025	-0.001	2.0	GoodResponse	0	0.32	n/a	3	7	ButtonPress	AvoidedLoss	True
80.557	0.27	Lose2	0.75	n/a	Yes	4.025	n/a	n/a	GoodResponse	0	n/a	n/a	3	7	Blank	AvoidedLoss	True
80.824	1.45	Lose2	0.75	n/a	Yes	4.025	n/a	5.0	GoodResponse	0	0.031	79.855	3	7	Feedback	AvoidedLoss	True
82.273	4.025	Lose2	0.75	n/a	Yes	4.025	n/a	n/a	GoodResponse	0	0.0	n/a	3	7	ISIslide	AvoidedLoss	True
86.322	0.25	Lose2	0.7778	0.0	Yes	3.028	0.022	n/a	GoodResponse	0	n/a	n/a	3	8	Cue	AvoidedLoss	True
86.572	3.95	Lose2	0.7778	0.0	Yes	3.028	0.0	n/a	GoodResponse	0	n/a	n/a	3	8	Fixation	AvoidedLoss	True
90.52	0.42	Lose2	0.7778	0.002	Yes	3.028	-0.002	2.0	GoodResponse	0	0.397	89.917	3	8	Target	AvoidedLoss	True
90.917	0.3	Lose2	0.7778	0.002	Yes	3.028	-0.002	2.0	GoodResponse	0	0.397	n/a	3	8	ButtonPress	AvoidedLoss	True
90.953	0.28	Lose2	0.7778	n/a	Yes	3.028	n/a	n/a	GoodResponse	0	n/a	n/a	3	8	Blank	AvoidedLoss	True
91.22	1.45	Lose2	0.7778	n/a	Yes	3.028	n/a	5.0	GoodResponse	0	0.025	90.245	3	8	Feedback	AvoidedLoss	True
92.67	3.028	Lose2	0.7778	n/a	Yes	3.028	n/a	n/a	GoodResponse	0	0.0	n/a	3	8	ISIslide	AvoidedLoss	True
95.719	0.25	Lose2	0.8	0.0	Yes	3.131	0.019	n/a	GoodResponse	0	n/a	n/a	3	9	Cue	AvoidedLoss	True
95.968	3.95	Lose2	0.8	0.001	Yes	3.131	-0.001	n/a	GoodResponse	0	n/a	n/a	3	9	Fixation	AvoidedLoss	True
99.917	0.41	Lose2	0.8	0.002	Yes	3.131	-0.002	2.0	GoodResponse	0	0.286	99.203	3	9	Target	AvoidedLoss	True
100.203	0.3	Lose2	0.8	0.002	Yes	3.131	-0.002	2.0	GoodResponse	0	0.286	n/a	3	9	ButtonPress	AvoidedLoss	True
100.334	0.29	Lose2	0.8	n/a	Yes	3.131	n/a	n/a	GoodResponse	0	n/a	n/a	3	9	Blank	AvoidedLoss	True
100.617	1.45	Lose2	0.8	n/a	Yes	3.131	n/a	5.0	GoodResponse	0	0.043	99.66	3	9	Feedback	AvoidedLoss	True
102.066	3.131	Lose2	0.8	n/a	Yes	3.131	n/a	n/a	GoodResponse	0	0.0	n/a	3	9	ISIslide	AvoidedLoss	True
105.215	0.25	Control	0.8181999999999999	0.0	Yes	3.285	0.015	n/a	GoodResponse	0	n/a	n/a	3	10	Cue	Neutral	True
105.465	4.0	Control	0.8181999999999999	0.0	Yes	3.285	0.0	n/a	GoodResponse	0	n/a	n/a	3	10	Fixation	Neutral	True
109.464	0.4	Control	0.8181999999999999	0.001	Yes	3.285	-0.001	2.0	GoodResponse	0	0.232	108.696	3	10	Target	Neutral	True
109.696	0.3	Control	0.8181999999999999	0.001	Yes	3.285	-0.001	2.0	GoodResponse	0	0.232	n/a	3	10	ButtonPress	Neutral	True
109.864	0.3	Control	0.8181999999999999	n/a	Yes	3.285	n/a	n/a	GoodResponse	0	n/a	n/a	3	10	Blank	Neutral	True
110.164	1.45	Control	0.8181999999999999	n/a	Yes	3.285	n/a	5.0	GoodResponse	0	0.008	109.172	3	10	Feedback	Neutral	True
111.613	3.285	Control	0.8181999999999999	n/a	Yes	3.285	n/a	n/a	GoodResponse	0	0.0	n/a	3	10	ISIslide	Neutral	True
114.929	0.25	Lose2	0.8332999999999999	0.0	Yes	2.721	0.029	n/a	GoodResponse	0	n/a	n/a	3	11	Cue	AvoidedLoss	True
115.179	4.05	Lose2	0.8332999999999999	0.0	Yes	2.721	0.0	n/a	GoodResponse	0	n/a	n/a	3	11	Fixation	AvoidedLoss	True
119.227	0.39	Lose2	0.8332999999999999	0.002	Yes	2.721	-0.002	2.0	GoodResponse	0	0.305	118.532	3	11	Target	AvoidedLoss	True
119.532	0.3	Lose2	0.8332999999999999	0.002	Yes	2.721	-0.002	2.0	GoodResponse	0	0.305	n/a	3	11	ButtonPress	AvoidedLoss	True
119.627	0.31	Lose2	0.8332999999999999	n/a	Yes	2.721	n/a	n/a	GoodResponse	0	n/a	n/a	3	11	Blank	AvoidedLoss	True
119.927	1.45	Lose2	0.8332999999999999	n/a	Yes	2.721	n/a	5.0	GoodResponse	0	0.001	118.928	3	11	Feedback	AvoidedLoss	True
121.376	2.721	Lose2	0.8332999999999999	n/a	Yes	2.721	n/a	n/a	GoodResponse	0	0.0	n/a	3	11	ISIslide	AvoidedLoss	True
124.125	0.25	Control	0.8462000000000001	0.001	Yes	2.975	0.025	n/a	GoodResponse	0	n/a	n/a	3	12	Cue	Neutral	False
124.375	3.9	Control	0.8462000000000001	0.0	Yes	2.975	0.0	2.0	GoodResponse	0	0.155	123.53	3	12	Fixation	Neutral	False
124.53	0.3	Control	0.8462000000000001	0.0	Yes	2.975	0.0	2.0	GoodResponse	0	0.155	n/a	3	12	ButtonPress	Neutral	False
128.274	0.38	Control	0.8462000000000001	0.001	Yes	2.975	-0.001	2.0	GoodResponse	0	0.364	127.638	3	12	Target	Neutral	False
128.638	0.3	Control	0.8462000000000001	0.001	Yes	2.975	-0.001	2.0	GoodResponse	0	0.364	n/a	3	12	ButtonPress	Neutral	False
128.657	0.32	Control	0.8462000000000001	n/a	Yes	2.975	n/a	n/a	GoodResponse	0	n/a	n/a	3	12	Blank	Neutral	False
128.974	1.45	Control	0.8462000000000001	n/a	Yes	2.975	n/a	5.0	GoodResponse	0	0.028	128.002	3	12	Feedback	Neutral	False
130.423	2.975	Control	0.8462000000000001	n/a	Yes	2.975	n/a	n/a	GoodResponse	0	0.0	n/a	3	12	ISIslide	Neutral	False
133.422	0.25	Control	0.8571	0.0	Yes	2.778	0.022	n/a	GoodResponse	0	n/a	n/a	3	13	Cue	Neutral	True
133.672	4.0	Control	0.8571	0.0	Yes	2.778	0.0	n/a	GoodResponse	0	n/a	n/a	3	13	Fixation	Neutral	True
137.671	0.37	Control	0.8571	0.001	Yes	2.778	-0.001	2.0	GoodResponse	0	0.314	136.985	3	13	Target	Neutral	True
137.985	0.3	Control	0.8571	0.001	Yes	2.778	-0.001	2.0	GoodResponse	0	0.314	n/a	3	13	ButtonPress	Neutral	True
138.037	0.33	Control	0.8571	n/a	Yes	2.778	n/a	n/a	GoodResponse	0	n/a	n/a	3	13	Blank	Neutral	True
138.371	1.45	Control	0.8571	n/a	Yes	2.778	n/a	5.0	GoodResponse	0	0.0	137.371	3	13	Feedback	Neutral	True
139.82	2.778	Control	0.8571	n/a	Yes	2.778	n/a	n/a	GoodResponse	0	0.0	n/a	3	13	ISIslide	Neutral	True
142.619	0.25	Win2	0.8667	0.0	Yes	2.681	0.019	n/a	GoodResponse	1	n/a	n/a	4	14	Cue	Win	True
142.869	4.1	Win2	0.8667	0.0	Yes	2.681	0.0	n/a	GoodResponse	1	n/a	n/a	4	14	Fixation	Win	True
146.968	0.36	Win2	0.8667	0.001	Yes	2.681	-0.001	2.0	GoodResponse	1	0.266	146.234	4	14	Target	Win	True
147.234	0.3	Win2	0.8667	0.001	Yes	2.681	-0.001	2.0	GoodResponse	1	0.266	n/a	4	14	ButtonPress	Win	True
147.334	0.34	Win2	0.8667	n/a	Yes	2.681	n/a	n/a	GoodResponse	1	n/a	n/a	4	14	Blank	Win	True
147.667	1.45	Win2	0.8667	n/a	Yes	2.681	n/a	5.0	GoodResponse	1	0.018	146.685	4	14	Feedback	Win	True
149.117	2.681	Win2	0.8667	n/a	Yes	2.681	n/a	n/a	GoodResponse	1	0.0	n/a	4	14	ISIslide	Win	True
151.816	0.25	Control	0.875	0.0	Yes	2.984	0.016	n/a	GoodResponse	0	n/a	n/a	4	15	Cue	Neutral	True
152.066	4.0	Control	0.875	0.0	Yes	2.984	0.0	n/a	GoodResponse	0	n/a	n/a	4	15	Fixation	Neutral	True
156.065	0.35	Control	0.875	0.001	Yes	2.984	-0.001	2.0	GoodResponse	0	0.318	155.383	4	15	Target	Neutral	True
156.383	0.3	Control	0.875	0.001	Yes	2.984	-0.001	2.0	GoodResponse	0	0.318	n/a	4	15	ButtonPress	Neutral	True
156.414	0.35	Control	0.875	n/a	Yes	2.984	n/a	n/a	GoodResponse	0	n/a	n/a	4	15	Blank	Neutral	True
156.764	1.45	Control	0.875	n/a	Yes	2.984	n/a	5.0	GoodResponse	0	0.042	155.806	4	15	Feedback	Neutral	True
158.214	2.984	Control	0.875	n/a	Yes	2.984	n/a	n/a	GoodResponse	0	0.0	n/a	4	15	ISIslide	Neutral	True
161.229	0.25	Win2	0.8234999999999999	0.001	No	2.871	0.029	n/a	NoResponse	0	n/a	n/a	4	16	Cue	MissedWin	False
161.479	4.0	Win2	0.8234999999999999	0.0	No	2.871	0.0	n/a	NoResponse	0	n/a	n/a	4	16	Fixation	MissedWin	False
165.478	0.34	Win2	0.8234999999999999	0.001	No	2.871	-0.001	n/a	NoResponse	0	n/a	n/a	4	16	Target	MissedWin	False
165.828	0.36	Win2	0.8234999999999999	n/a	No	2.871	n/a	n/a	NoResponse	0	n/a	n/a	4	16	Blank	MissedWin	False
166.178	1.45	Win2	0.8234999999999999	n/a	No	2.871	n/a	5.0	NoResponse	0	0.042	165.22	4	16	Feedback	MissedWin	False
167.627	2.871	Win2	0.8234999999999999	n/a	No	2.871	n/a	n/a	NoResponse	0	0.0	n/a	4	16	ISIslide	MissedWin	False
170.526	0.25	Lose2	0.7778	0.0	No	2.724	0.026	n/a	NoResponse	-1	n/a	n/a	3	17	Cue	Loss	True
170.776	3.95	Lose2	0.7778	0.0	No	2.724	0.0	n/a	NoResponse	-1	n/a	n/a	3	17	Fixation	Loss	True
174.725	0.33	Lose2	0.7778	0.001	No	2.724	-0.001	2.0	NoResponse	-1	0.355	174.08	3	17	Target	Loss	True
175.058	0.37	Lose2	0.7778	n/a	No	2.724	n/a	n/a	NoResponse	-1	n/a	n/a	3	17	Blank	Loss	True
175.08	0.3	Lose2	0.7778	0.001	No	2.724	-0.001	2.0	NoResponse	-1	0.355	n/a	3	17	ButtonPress	Loss	True
175.425	1.45	Lose2	0.7778	n/a	No	2.724	n/a	5.0	NoResponse	-1	0.015	174.44	3	17	Feedback	Loss	True
176.874	2.724	Lose2	0.7778	n/a	No	2.724	n/a	n/a	NoResponse	-1	0.0	n/a	3	17	ISIslide	Loss	True
179.623	0.25	Lose2	0.7895	0.0	Yes	2.727	0.023	n/a	GoodResponse	0	n/a	n/a	3	18	Cue	AvoidedLoss	True
179.873	4.05	Lose2	0.7895	0.0	Yes	2.727	0.0	n/a	GoodResponse	0	n/a	n/a	3	18	Fixation	AvoidedLoss	True
183.922	0.32	Lose2	0.7895	0.001	Yes	2.727	-0.001	2.0	GoodResponse	0	0.218	183.14	3	18	Target	AvoidedLoss	True
184.14	0.3	Lose2	0.7895	0.001	Yes	2.727	-0.001	2.0	GoodResponse	0	0.218	n/a	3	18	ButtonPress	AvoidedLoss	True
184.255	0.38	Lose2	0.7895	n/a	Yes	2.727	n/a	n/a	GoodResponse	0	n/a	n/a	3	18	Blank	AvoidedLoss	True
184.621	1.45	Lose2	0.7895	n/a	Yes	2.727	n/a	5.0	GoodResponse	0	0.039	183.66	3	18	Feedback	AvoidedLoss	True
186.071	2.727	Lose2	0.7895	n/a	Yes	2.727	n/a	n/a	GoodResponse	0	0.0	n/a	3	18	ISIslide	AvoidedLoss	True
188.82	0.25	Control	0.8	0.0	Yes	2.93	0.02	n/a	GoodResponse	0	n/a	n/a	3	19	Cue	Neutral	True
189.07	3.95	Control	0.8	0.0	Yes	2.93	0.0	n/a	GoodResponse	0	n/a	n/a	3	19	Fixation	Neutral	True
193.019	0.31	Control	0.8	0.001	Yes	2.93	-0.001	2.0	GoodResponse	0	0.285	192.304	3	19	Target	Neutral	True
193.304	0.3	Control	0.8	0.001	Yes	2.93	-0.001	2.0	GoodResponse	0	0.285	n/a	3	19	ButtonPress	Neutral	True
193.335	0.39	Control	0.8	n/a	Yes	2.93	n/a	n/a	GoodResponse	0	n/a	n/a	3	19	Blank	Neutral	True
193.718	1.45	Control	0.8	n/a	Yes	2.93	n/a	5.0	GoodResponse	0	0.015	192.733	3	19	Feedback	Neutral	True
195.168	2.93	Control	0.8	n/a	Yes	2.93	n/a	n/a	GoodResponse	0	0.0	n/a	3	19	ISIslide	Neutral	True
198.117	0.25	Control	0.7619	0.0	No	2.633	0.017	n/a	NoResponse	0	n/a	n/a	3	20	Cue	Neutral	True
198.367	4.05	Control	0.7619	0.0	No	2.633	0.0	n/a	NoResponse	0	n/a	n/a	3	20	Fixation	Neutral	True
202.415	0.3	Control	0.7619	0.002	No	2.633	-0.002	2.0	NoResponse	0	0.418	201.833	3	20	Target	Neutral	True
202.715	0.4	Control	0.7619	n/a	No	2.633	n/a	n/a	NoResponse	0	n/a	n/a	3	20	Blank	Neutral	True
202.833	0.3	Control	0.7619	0.002	No	2.633	-0.002	2.0	NoResponse	0	0.418	n/a	3	20	ButtonPress	Neutral	True
203.115	1.45	Control	0.7619	n/a	No	2.633	n/a	5.0	NoResponse	0	0.033	202.148	3	20	Feedback	Neutral	True
204.565	2.633	Control	0.7619	n/a	No	2.633	n/a	n/a	NoResponse	0	0.0	n/a	3	20	ISIslide	Neutral	True
207.214	0.25	Control	0.7726999999999999	0.0	Yes	2.786	0.014	n/a	GoodResponse	0	n/a	n/a	3	21	Cue	Neutral	True
207.464	4.1	Control	0.7726999999999999	0.0	Yes	2.786	0.0	n/a	GoodResponse	0	n/a	n/a	3	21	Fixation	Neutral	True
211.562	0.29	Control	0.7726999999999999	0.002	Yes	2.786	-0.002	2.0	GoodResponse	0	0.236	210.798	3	21	Target	Neutral	True
211.798	0.3	Control	0.7726999999999999	0.002	Yes	2.786	-0.002	2.0	GoodResponse	0	0.236	n/a	3	21	ButtonPress	Neutral	True
211.862	0.41	Control	0.7726999999999999	n/a	Yes	2.786	n/a	n/a	GoodResponse	0	n/a	n/a	3	21	Blank	Neutral	True
212.262	1.45	Control	0.7726999999999999	n/a	Yes	2.786	n/a	5.0	GoodResponse	0	0.008	211.27	3	21	Feedback	Neutral	True
213.711	2.786	Control	0.7726999999999999	n/a	Yes	2.786	n/a	n/a	GoodResponse	0	0.0	n/a	3	21	ISIslide	Neutral	True
216.527	0.25	Control	0.7826000000000001	0.0	Yes	2.773	0.027	n/a	GoodResponse	0	n/a	n/a	3	22	Cue	Neutral	True
216.777	4.0	Control	0.7826000000000001	0.0	Yes	2.773	0.0	n/a	GoodResponse	0	n/a	n/a	3	22	Fixation	Neutral	True
220.776	0.28	Control	0.7826000000000001	0.001	Yes	2.773	-0.001	2.0	GoodResponse	0	0.27	220.046	3	22	Target	Neutral	True
221.046	0.3	Control	0.7826000000000001	0.001	Yes	2.773	-0.001	2.0	GoodResponse	0	0.27	n/a	3	22	ButtonPress	Neutral	True
221.059	0.42	Control	0.7826000000000001	n/a	Yes	2.773	n/a	n/a	GoodResponse	0	n/a	n/a	3	22	Blank	Neutral	True
221.475	1.45	Control	0.7826000000000001	n/a	Yes	2.773	n/a	5.0	GoodResponse	0	0.014	220.489	3	22	Feedback	Neutral	True
222.925	2.773	Control	0.7826000000000001	n/a	Yes	2.773	n/a	n/a	GoodResponse	0	0.0	n/a	3	22	ISIslide	Neutral	True
225.724	0.25	Control	0.75	0.0	No	2.776	0.024	n/a	NoResponse	0	n/a	n/a	3	23	Cue	Neutral	True
225.974	3.9	Control	0.75	0.0	No	2.776	0.0	n/a	NoResponse	0	n/a	n/a	3	23	Fixation	Neutral	True
229.873	0.27	Control	0.75	0.001	No	2.776	-0.001	2.0	NoResponse	0	0.445	229.318	3	23	Target	Neutral	True
230.156	0.43	Control	0.75	n/a	No	2.776	n/a	n/a	NoResponse	0	n/a	n/a	3	23	Blank	Neutral	True
230.318	0.3	Control	0.75	0.001	No	2.776	-0.001	2.0	NoResponse	0	0.445	n/a	3	23	ButtonPress	Neutral	True
230.572	1.45	Control	0.75	n/a	No	2.776	n/a	5.0	NoResponse	0	0.04	229.612	3	23	Feedback	Neutral	True
232.022	2.776	Control	0.75	n/a	No	2.776	n/a	n/a	NoResponse	0	0.0	n/a	3	23	ISIslide	Neutral	True
234.821	0.25	Win2	0.72	0.0	No	3.129	0.021	n/a	NoResponse	0	n/a	n/a	3	24	Cue	MissedWin	True
235.071	3.95	Win2	0.72	0.0	No	3.129	0.0	n/a	NoResponse	0	n/a	n/a	3	24	Fixation	MissedWin	True
239.019	0.26	Win2	0.72	0.002	No	3.129	-0.002	2.0	NoResponse	0	0.274	238.293	3	24	Target	MissedWin	True
239.286	0.44	Win2	0.72	n/a	No	3.129	n/a	n/a	NoResponse	0	n/a	n/a	3	24	Blank	MissedWin	True
239.293	0.3	Win2	0.72	0.002	No	3.129	-0.002	2.0	NoResponse	0	0.274	n/a	3	24	ButtonPress	MissedWin	True
239.719	1.45	Win2	0.72	n/a	No	3.129	n/a	5.0	NoResponse	0	0.014	238.733	3	24	Feedback	MissedWin	True
241.169	3.129	Win2	0.72	n/a	No	3.129	n/a	n/a	NoResponse	0	0.0	n/a	3	24	ISIslide	MissedWin	True
244.318	0.25	Win2	0.6923	0.0	No	3.082	0.018	n/a	NoResponse	0	n/a	n/a	3	25	Cue	MissedWin	False
244.568	4.0	Win2	0.6923	0.0	No	3.082	0.0	n/a	NoResponse	0	n/a	n/a	3	25	Fixation	MissedWin	False
248.566	0.25	Win2	0.6923	0.002	No	3.082	-0.002	n/a	NoResponse	0	n/a	n/a	3	25	Target	MissedWin	False
248.816	0.45	Win2	0.6923	n/a	No	3.082	n/a	n/a	NoResponse	0	n/a	n/a	3	25	Blank	MissedWin	False
249.266	1.45	Win2	0.6923	n/a	No	3.082	n/a	5.0	NoResponse	0	0.028	248.294	3	25	Feedback	MissedWin	False
250.715	3.082	Win2	0.6923	n/a	No	3.082	n/a	n/a	NoResponse	0	0.0	n/a	3	25	ISIslide	MissedWin	False
253.814	0.25	Win2	0.7037	0.0	Yes	2.936	0.014	n/a	GoodResponse	1	n/a	n/a	4	26	Cue	Win	True
254.064	3.95	Win2	0.7037	0.0	Yes	2.936	0.0	n/a	GoodResponse	1	n/a	n/a	4	26	Fixation	Win	True
258.013	0.24	Win2	0.7037	0.001	Yes	2.936	-0.001	2.0	GoodResponse	1	0.229	257.242	4	26	Target	Win	True
258.242	0.3	Win2	0.7037	0.001	Yes	2.936	-0.001	2.0	GoodResponse	1	0.229	n/a	4	26	ButtonPress	Win	True
258.263	0.46	Win2	0.7037	n/a	Yes	2.936	n/a	n/a	GoodResponse	1	n/a	n/a	4	26	Blank	Win	True
258.713	1.45	Win2	0.7037	n/a	Yes	2.936	n/a	5.0	GoodResponse	1	0.0	257.713	4	26	Feedback	Win	True
260.162	2.936	Win2	0.7037	n/a	Yes	2.936	n/a	n/a	GoodResponse	1	0.0	n/a	4	26	ISIslide	Win	True
263.128	0.25	Lose2	0.6786	0.0	No	2.822	0.028	n/a	PrematurePress	-1	n/a	n/a	3	27	Cue	Loss	False
263.378	4.05	Lose2	0.6786	0.0	No	2.822	0.0	2.0	PrematurePress	-1	3.625	266.003	3	27	Fixation	Loss	False
267.003	0.3	Lose2	0.6786	0.0	No	2.822	0.0	2.0	PrematurePress	-1	3.625	n/a	3	27	ButtonPress	Loss	False
267.426	0.23	Lose2	0.6786	0.002	No	2.822	-0.002	2.0	PrematurePress	-1	0.031	266.457	3	27	Target	Loss	False
267.457	0.3	Lose2	0.6786	0.002	No	2.822	-0.002	2.0	PrematurePress	-1	0.031	n/a	3	27	ButtonPress	Loss	False
267.66	0.47	Lose2	0.6786	n/a	No	2.822	n/a	n/a	PrematurePress	-1	n/a	n/a	3	27	Blank	Loss	False
268.126	1.45	Lose2	0.6786	n/a	No	2.822	n/a	5.0	PrematurePress	-1	0.001	267.127	3	27	Feedback	Loss	False
269.576	2.822	Lose2	0.6786	n/a	No	2.822	n/a	n/a	PrematurePress	-1	0.0	n/a	3	27	ISIslide	Loss	False
272.425	0.25	Control	0.6552	0.0	No	2.825	0.025	n/a	NoResponse	0	n/a	n/a	3	28	Cue	Neutral	True
272.675	4.05	Control	0.6552	0.0	No	2.825	0.0	n/a	NoResponse	0	n/a	n/a	3	28	Fixation	Neutral	True
276.723	0.22	Control	0.6552	0.002	No	2.825	-0.002	2.0	NoResponse	0	0.407	276.13	3	28	Target	Neutral	True
276.956	0.48	Control	0.6552	n/a	No	2.825	n/a	n/a	NoResponse	0	n/a	n/a	3	28	Blank	Neutral	True
277.13	0.3	Control	0.6552	0.002	No	2.825	-0.002	2.0	NoResponse	0	0.407	n/a	3	28	ButtonPress	Neutral	True
277.423	1.45	Control	0.6552	n/a	No	2.825	n/a	5.0	NoResponse	0	0.017	276.44	3	28	Feedback	Neutral	True
278.872	2.825	Control	0.6552	n/a	No	2.825	n/a	n/a	NoResponse	0	0.0	n/a	3	28	ISIslide	Neutral	True
281.722	0.25	Lose2	0.6667000000000001	0.0	Yes	2.828	0.022	n/a	GoodResponse	0	n/a	n/a	3	29	Cue	AvoidedLoss	True
281.971	3.95	Lose2	0.6667000000000001	0.001	Yes	2.828	-0.001	n/a	GoodResponse	0	n/a	n/a	3	29	Fixation	AvoidedLoss	True
285.92	0.22	Lose2	0.6667000000000001	0.002	Yes	2.828	-0.002	2.0	GoodResponse	0	0.143	285.063	3	29	Target	AvoidedLoss	True
286.063	0.3	Lose2	0.6667000000000001	0.002	Yes	2.828	-0.002	2.0	GoodResponse	0	0.143	n/a	3	29	ButtonPress	AvoidedLoss	True
286.153	0.48	Lose2	0.6667000000000001	n/a	Yes	2.828	n/a	n/a	GoodResponse	0	n/a	n/a	3	29	Blank	AvoidedLoss	True
286.62	1.45	Lose2	0.6667000000000001	n/a	Yes	2.828	n/a	5.0	GoodResponse	0	0.04	285.66	3	29	Feedback	AvoidedLoss	True
288.069	2.828	Lose2	0.6667000000000001	n/a	Yes	2.828	n/a	n/a	GoodResponse	0	0.0	n/a	3	29	ISIslide	AvoidedLoss	True
290.918	0.25	Win2	0.6452	0.0	No	2.782	0.018	n/a	NoResponse	0	n/a	n/a	3	30	Cue	MissedWin	True
291.168	3.9	Win2	0.6452	0.0	No	2.782	0.0	n/a	NoResponse	0	n/a	n/a	3	30	Fixation	MissedWin	True
295.067	0.21	Win2	0.6452	0.001	No	2.782	-0.001	2.0	NoResponse	0	0.459	294.526	3	30	Target	MissedWin	True
295.284	0.49	Win2	0.6452	n/a	No	2.782	n/a	n/a	NoResponse	0	n/a	n/a	3	30	Blank	MissedWin	True
295.526	0.3	Win2	0.6452	0.001	No	2.782	-0.001	2.0	NoResponse	0	0.459	n/a	3	30	ButtonPress	MissedWin	True
295.767	1.45	Win2	0.6452	n/a	No	2.782	n/a	5.0	NoResponse	0	0.015	294.782	3	30	Feedback	MissedWin	True
297.216	2.782	Win2	0.6452	n/a	No	2.782	n/a	n/a	NoResponse	0	0.0	n/a	3	30	ISIslide	MissedWin	True
300.015	0.25	Lose2	0.625	0.0	No	2.835	0.015	n/a	NoResponse	-1	n/a	n/a	2	31	Cue	Loss	True
300.265	4.05	Lose2	0.625	0.0	No	2.835	0.0	n/a	NoResponse	-1	n/a	n/a	2	31	Fixation	Loss	True
304.314	0.22	Lose2	0.625	0.001	No	2.835	-0.001	2.0	NoResponse	-1	0.268	303.582	2	31	Target	Loss	True
304.53	0.48	Lose2	0.625	n/a	No	2.835	n/a	n/a	NoResponse	-1	n/a	n/a	2	31	Blank	Loss	True
304.582	0.3	Lose2	0.625	0.001	No	2.835	-0.001	2.0	NoResponse	-1	0.268	n/a	2	31	ButtonPress	Loss	True
305.014	1.45	Lose2	0.625	n/a	No	2.835	n/a	5.0	NoResponse	-1	0.037	304.051	2	31	Feedback	Loss	True
306.463	2.835	Lose2	0.625	n/a	No	2.835	n/a	n/a	NoResponse	-1	0.0	n/a	2	31	ISIslide	Loss	True
309.329	0.25	Lose2	0.6364	0.0	Yes	2.621	0.029	n/a	GoodResponse	0	n/a	n/a	2	32	Cue	AvoidedLoss	True
309.579	4.15	Lose2	0.6364	0.0	Yes	2.621	0.0	n/a	GoodResponse	0	n/a	n/a	2	32	Fixation	AvoidedLoss	True
313.727	0.23	Lose2	0.6364	0.002	Yes	2.621	-0.002	2.0	GoodResponse	0	0.2	312.927	2	32	Target	AvoidedLoss	True
313.927	0.3	Lose2	0.6364	0.002	Yes	2.621	-0.002	2.0	GoodResponse	0	0.2	n/a	2	32	ButtonPress	AvoidedLoss	True
313.96	0.47	Lose2	0.6364	n/a	Yes	2.621	n/a	n/a	GoodResponse	0	n/a	n/a	2	32	Blank	AvoidedLoss	True
314.427	1.45	Lose2	0.6364	n/a	Yes	2.621	n/a	5.0	GoodResponse	0	0.037	313.464	2	32	Feedback	AvoidedLoss	True
315.876	2.621	Lose2	0.6364	n/a	Yes	2.621	n/a	n/a	GoodResponse	0	0.0	n/a	2	32	ISIslide	AvoidedLoss	True
318.526	0.25	Win2	0.6175999999999999	0.0	No	2.674	0.026	n/a	PrematurePress	0	n/a	n/a	2	33	Cue	MissedWin	True
318.775	4.0	Win2	0.6175999999999999	0.001	No	2.674	-0.001	n/a	PrematurePress	0	n/a	n/a	2	33	Fixation	MissedWin	True
322.774	0.24	Win2	0.6175999999999999	0.002	No	2.674	-0.002	2.0	PrematurePress	0	0.094	321.868	2	33	Target	MissedWin	True
322.868	0.3	Win2	0.6175999999999999	0.002	No	2.674	-0.002	2.0	PrematurePress	0	0.094	n/a	2	33	ButtonPress	MissedWin	True
323.024	0.46	Win2	0.6175999999999999	n/a	No	2.674	n/a	n/a	PrematurePress	0	n/a	n/a	2	33	Blank	MissedWin	True
323.474	1.45	Win2	0.6175999999999999	n/a	No	2.674	n/a	5.0	PrematurePress	0	0.015	322.489	2	33	Feedback	MissedWin	True
324.923	2.674	Win2	0.6175999999999999	n/a	No	2.674	n/a	n/a	PrematurePress	0	0.0	n/a	2	33	ISIslide	MissedWin	True
327.622	0.25	Lose2	0.6	0.001	No	2.628	0.022	n/a	NoResponse	-1	n/a	n/a	1	34	Cue	Loss	True
327.872	4.05	Lose2	0.6	0.0	No	2.628	0.0	n/a	NoResponse	-1	n/a	n/a	1	34	Fixation	Loss	True
331.921	0.25	Lose2	0.6	0.001	No	2.628	-0.001	2.0	NoResponse	-1	0.302	331.223	1	34	Target	Loss	True
332.171	0.45	Lose2	0.6	n/a	No	2.628	n/a	n/a	NoResponse	-1	n/a	n/a	1	34	Blank	Loss	True
332.223	0.3	Lose2	0.6	0.001	No	2.628	-0.001	2.0	NoResponse	-1	0.302	n/a	1	34	ButtonPress	Loss	True
332.621	1.45	Lose2	0.6	n/a	No	2.628	n/a	5.0	NoResponse	-1	0.039	331.66	1	34	Feedback	Loss	True
334.07	2.628	Lose2	0.6	n/a	No	2.628	n/a	n/a	NoResponse	-1	0.0	n/a	1	34	ISIslide	Loss	True
336.719	0.25	Lose2	0.5832999999999999	0.0	No	2.681	0.019	n/a	LatePress	-1	n/a	n/a	0	35	Cue	Loss	True
336.969	4.0	Lose2	0.5832999999999999	0.0	No	2.681	0.0	n/a	LatePress	-1	n/a	n/a	0	35	Fixation	Loss	True
340.968	0.26	Lose2	0.5832999999999999	0.001	No	2.681	-0.001	2.0	LatePress	-1	0.265	340.233	0	35	Target	Loss	True
341.233	0.3	Lose2	0.5832999999999999	0.001	No	2.681	-0.001	2.0	LatePress	-1	0.265	n/a	0	35	ButtonPress	Loss	True
341.234	0.44	Lose2	0.5832999999999999	n/a	No	2.681	n/a	n/a	LatePress	-1	n/a	n/a	0	35	Blank	Loss	True
341.668	1.45	Lose2	0.5832999999999999	n/a	No	2.681	n/a	5.0	LatePress	-1	0.016	340.684	0	35	Feedback	Loss	True
343.117	2.681	Lose2	0.5832999999999999	n/a	No	2.681	n/a	n/a	LatePress	-1	0.0	n/a	0	35	ISIslide	Loss	True
345.816	0.25	Control	0.5676	0.0	No	2.684	0.016	n/a	NoResponse	0	n/a	n/a	0	36	Cue	Neutral	True
346.066	4.0	Control	0.5676	0.0	No	2.684	0.0	n/a	NoResponse	0	n/a	n/a	0	36	Fixation	Neutral	True
350.065	0.27	Control	0.5676	0.001	No	2.684	-0.001	2.0	NoResponse	0	0.386	349.451	0	36	Target	Neutral	True
350.348	0.43	Control	0.5676	n/a	No	2.684	n/a	n/a	NoResponse	0	n/a	n/a	0	36	Blank	Neutral	True
350.451	0.3	Control	0.5676	0.001	No	2.684	-0.001	2.0	NoResponse	0	0.386	n/a	0	36	ButtonPress	Neutral	True
350.765	1.45	Control	0.5676	n/a	No	2.684	n/a	5.0	NoResponse	0	0.041	349.806	0	36	Feedback	Neutral	True
352.214	2.684	Control	0.5676	n/a	No	2.684	n/a	n/a	NoResponse	0	0.0	n/a	0	36	ISIslide	Neutral	True
354.93	0.25	Win2	0.5526	0.0	No	2.87	0.03	n/a	NoResponse	0	n/a	n/a	0	37	Cue	MissedWin	True
355.18	4.0	Win2	0.5526	0.0	No	2.87	0.0	2.0	NoResponse	0	3.979	358.159	0	37	Fixation	MissedWin	True
359.159	0.3	Win2	0.5526	0.0	No	2.87	0.0	2.0	NoResponse	0	3.979	n/a	0	37	ButtonPress	MissedWin	True
359.178	0.28	Win2	0.5526	0.002	No	2.87	-0.002	n/a	NoResponse	0	n/a	n/a	0	37	Target	MissedWin	True
359.462	0.42	Win2	0.5526	n/a	No	2.87	n/a	n/a	NoResponse	0	n/a	n/a	0	37	Blank	MissedWin	True
359.878	1.45	Win2	0.5526	n/a	No	2.87	n/a	5.0	NoResponse	0	0.001	358.879	0	37	Feedback	MissedWin	True
361.328	2.87	Win2	0.5526	n/a	No	2.87	n/a	n/a	NoResponse	0	0.0	n/a	0	37	ISIslide	MissedWin	True
364.227	0.25	Lose2	0.5385	0.0	No	2.823	0.027	n/a	NoResponse	-1	n/a	n/a	-1	38	Cue	Loss	True
364.477	3.95	Lose2	0.5385	0.0	No	2.823	0.0	n/a	NoResponse	-1	n/a	n/a	-1	38	Fixation	Loss	True
368.425	0.29	Lose2	0.5385	0.002	No	2.823	-0.002	2.0	NoResponse	-1	0.354	367.779	-1	38	Target	Loss	True
368.725	0.41	Lose2	0.5385	n/a	No	2.823	n/a	n/a	NoResponse	-1	n/a	n/a	-1	38	Blank	Loss	True
368.779	0.3	Lose2	0.5385	0.002	No	2.823	-0.002	2.0	NoResponse	-1	0.354	n/a	-1	38	ButtonPress	Loss	True
369.125	1.45	Lose2	0.5385	n/a	No	2.823	n/a	5.0	NoResponse	-1	0.023	368.148	-1	38	Feedback	Loss	True
370.574	2.823	Lose2	0.5385	n/a	No	2.823	n/a	n/a	NoResponse	-1	0.0	n/a	-1	38	ISIslide	Loss	True
373.423	0.25	Win2	0.525	0.001	No	2.977	0.023	n/a	NoResponse	0	n/a	n/a	-1	39	Cue	MissedWin	True
373.673	4.1	Win2	0.525	0.0	No	2.977	0.0	n/a	NoResponse	0	n/a	n/a	-1	39	Fixation	MissedWin	True
377.772	0.3	Win2	0.525	0.001	No	2.977	-0.001	2.0	NoResponse	0	0.308	377.08	-1	39	Target	MissedWin	True
378.072	0.4	Win2	0.525	n/a	No	2.977	n/a	n/a	NoResponse	0	n/a	n/a	-1	39	Blank	MissedWin	True
378.08	0.3	Win2	0.525	0.001	No	2.977	-0.001	2.0	NoResponse	0	0.308	n/a	-1	39	ButtonPress	MissedWin	True
378.472	1.45	Win2	0.525	n/a	No	2.977	n/a	5.0	NoResponse	0	0.042	377.514	-1	39	Feedback	MissedWin	True
379.921	2.977	Win2	0.525	n/a	No	2.977	n/a	n/a	NoResponse	0	0.0	n/a	-1	39	ISIslide	MissedWin	True
382.92	0.25	Win2	0.5366	0.0	Yes	2.73	0.02	n/a	GoodResponse	1	n/a	n/a	0	40	Cue	Win	True
383.17	3.95	Win2	0.5366	0.0	Yes	2.73	0.0	n/a	GoodResponse	1	n/a	n/a	0	40	Fixation	Win	True
387.119	0.31	Win2	0.5366	0.001	Yes	2.73	-0.001	2.0	GoodResponse	1	0.216	386.335	0	40	Target	Win	True
387.335	0.3	Win2	0.5366	0.001	Yes	2.73	-0.001	2.0	GoodResponse	1	0.216	n/a	0	40	ButtonPress	Win	True
387.435	0.39	Win2	0.5366	n/a	Yes	2.73	n/a	n/a	GoodResponse	1	n/a	n/a	0	40	Blank	Win	True
387.819	1.45	Win2	0.5366	n/a	Yes	2.73	n/a	5.0	GoodResponse	1	0.011	386.83	0	40	Feedback	Win	True
389.268	2.73	Win2	0.5366	n/a	Yes	2.73	n/a	n/a	GoodResponse	1	0.0	n/a	0	40	ISIslide	Win	True
392.017	0.25	Win2	0.5476	0.0	Yes	2.783	0.017	n/a	GoodResponse	1	n/a	n/a	1	41	Cue	Win	True
392.267	3.9	Win2	0.5476	0.0	Yes	2.783	0.0	n/a	GoodResponse	1	n/a	n/a	1	41	Fixation	Win	True
396.166	0.32	Win2	0.5476	0.001	Yes	2.783	-0.001	2.0	GoodResponse	1	0.254	395.42	1	41	Target	Win	True
396.42	0.3	Win2	0.5476	0.001	Yes	2.783	-0.001	2.0	GoodResponse	1	0.254	n/a	1	41	ButtonPress	Win	True
396.499	0.38	Win2	0.5476	n/a	Yes	2.783	n/a	n/a	GoodResponse	1	n/a	n/a	1	41	Blank	Win	True
396.865	1.45	Win2	0.5476	n/a	Yes	2.783	n/a	5.0	GoodResponse	1	0.038	395.903	1	41	Feedback	Win	True
398.315	2.783	Win2	0.5476	n/a	Yes	2.783	n/a	n/a	GoodResponse	1	0.0	n/a	1	41	ISIslide	Win	True
401.114	0.25	Control	0.5349	0.0	No	2.936	0.014	n/a	NoResponse	0	n/a	n/a	1	42	Cue	Neutral	False
401.364	3.85	Control	0.5349	0.0	No	2.936	0.0	n/a	NoResponse	0	n/a	n/a	1	42	Fixation	Neutral	False
405.213	0.33	Control	0.5349	0.001	No	2.936	-0.001	n/a	NoResponse	0	n/a	n/a	1	42	Target	Neutral	False
405.546	0.37	Control	0.5349	n/a	No	2.936	n/a	n/a	NoResponse	0	n/a	n/a	1	42	Blank	Neutral	False
405.912	1.45	Control	0.5349	n/a	No	2.936	n/a	5.0	NoResponse	0	0.016	404.928	1	42	Feedback	Neutral	False
407.362	2.936	Control	0.5349	n/a	No	2.936	n/a	n/a	NoResponse	0	0.0	n/a	1	42	ISIslide	Neutral	False
410.327	0.25	Win2	0.5455	0.001	Yes	3.173	0.027	n/a	GoodResponse	1	n/a	n/a	2	43	Cue	Win	True
410.577	4.0	Win2	0.5455	0.0	Yes	3.173	0.0	n/a	GoodResponse	1	n/a	n/a	2	43	Fixation	Win	True
414.576	0.34	Win2	0.5455	0.001	Yes	3.173	-0.001	2.0	GoodResponse	1	0.283	413.859	2	43	Target	Win	True
414.859	0.3	Win2	0.5455	0.001	Yes	3.173	-0.001	2.0	GoodResponse	1	0.283	n/a	2	43	ButtonPress	Win	True
414.926	0.36	Win2	0.5455	n/a	Yes	3.173	n/a	n/a	GoodResponse	1	n/a	n/a	2	43	Blank	Win	True
415.276	1.45	Win2	0.5455	n/a	Yes	3.173	n/a	5.0	GoodResponse	1	0.018	414.294	2	43	Feedback	Win	True
416.725	3.173	Win2	0.5455	n/a	Yes	3.173	n/a	n/a	GoodResponse	1	0.0	n/a	2	43	ISIslide	Win	True
419.924	0.25	Win2	0.5556	0.0	Yes	2.976	0.024	n/a	GoodResponse	1	n/a	n/a	3	44	Cue	Win	True
420.174	4.0	Win2	0.5556	0.0	Yes	2.976	0.0	n/a	GoodResponse	1	n/a	n/a	3	44	Fixation	Win	True
424.173	0.35	Win2	0.5556	0.001	Yes	2.976	-0.001	2.0	GoodResponse	1	0.215	423.388	3	44	Target	Win	True
424.388	0.3	Win2	0.5556	0.001	Yes	2.976	-0.001	2.0	GoodResponse	1	0.215	n/a	3	44	ButtonPress	Win	True
424.523	0.35	Win2	0.5556	n/a	Yes	2.976	n/a	n/a	GoodResponse	1	n/a	n/a	3	44	Blank	Win	True
424.872	1.45	Win2	0.5556	n/a	Yes	2.976	n/a	5.0	GoodResponse	1	0.032	423.904	3	44	Feedback	Win	True
426.322	2.976	Win2	0.5556	n/a	Yes	2.976	n/a	n/a	GoodResponse	1	0.0	n/a	3	44	ISIslide	Win	True
429.321	0.25	Control	0.5652	0.0	Yes	2.879	0.021	n/a	GoodResponse	0	n/a	n/a	3	45	Cue	Neutral	True
429.571	4.1	Control	0.5652	0.0	Yes	2.879	0.0	n/a	GoodResponse	0	n/a	n/a	3	45	Fixation	Neutral	True
433.669	0.36	Control	0.5652	0.002	Yes	2.879	-0.002	2.0	GoodResponse	0	0.238	432.907	3	45	Target	Neutral	True
433.907	0.3	Control	0.5652	0.002	Yes	2.879	-0.002	2.0	GoodResponse	0	0.238	n/a	3	45	ButtonPress	Neutral	True
434.036	0.34	Control	0.5652	n/a	Yes	2.879	n/a	n/a	GoodResponse	0	n/a	n/a	3	45	Blank	Neutral	True
434.369	1.45	Control	0.5652	n/a	Yes	2.879	n/a	5.0	GoodResponse	0	0.001	433.37	3	45	Feedback	Neutral	True
435.819	2.879	Control	0.5652	n/a	Yes	2.879	n/a	n/a	GoodResponse	0	0.0	n/a	3	45	ISIslide	Neutral	True
438.718	0.25	Lose2	0.5745	0.0	Yes	3.382	0.018	n/a	GoodResponse	0	n/a	n/a	3	46	Cue	AvoidedLoss	True
438.968	4.0	Lose2	0.5745	0.0	Yes	3.382	0.0	n/a	GoodResponse	0	n/a	n/a	3	46	Fixation	AvoidedLoss	True
442.966	0.37	Lose2	0.5745	0.002	Yes	3.382	-0.002	2.0	GoodResponse	0	0.27	442.236	3	46	Target	AvoidedLoss	True
443.236	0.3	Lose2	0.5745	0.002	Yes	3.382	-0.002	2.0	GoodResponse	0	0.27	n/a	3	46	ButtonPress	AvoidedLoss	True
443.35	0.33	Lose2	0.5745	n/a	Yes	3.382	n/a	n/a	GoodResponse	0	n/a	n/a	3	46	Blank	AvoidedLoss	True
443.666	1.45	Lose2	0.5745	n/a	Yes	3.382	n/a	5.0	GoodResponse	0	0.018	442.684	3	46	Feedback	AvoidedLoss	True
445.116	3.382	Lose2	0.5745	n/a	Yes	3.382	n/a	n/a	GoodResponse	0	0.0	n/a	3	46	ISIslide	AvoidedLoss	True
448.514	0.25	Lose2	0.5832999999999999	0.001	Yes	2.686	0.014	n/a	GoodResponse	0	n/a	n/a	3	47	Cue	AvoidedLoss	True
448.764	4.0	Lose2	0.5832999999999999	0.0	Yes	2.686	0.0	n/a	GoodResponse	0	n/a	n/a	3	47	Fixation	AvoidedLoss	True
452.763	0.38	Lose2	0.5832999999999999	0.001	Yes	2.686	-0.001	2.0	GoodResponse	0	0.28	452.043	3	47	Target	AvoidedLoss	True
453.043	0.3	Lose2	0.5832999999999999	0.001	Yes	2.686	-0.001	2.0	GoodResponse	0	0.28	n/a	3	47	ButtonPress	AvoidedLoss	True
453.146	0.32	Lose2	0.5832999999999999	n/a	Yes	2.686	n/a	n/a	GoodResponse	0	n/a	n/a	3	47	Blank	AvoidedLoss	True
453.463	1.45	Lose2	0.5832999999999999	n/a	Yes	2.686	n/a	5.0	GoodResponse	0	0.026	452.489	3	47	Feedback	AvoidedLoss	True
454.912	2.686	Lose2	0.5832999999999999	n/a	Yes	2.686	n/a	n/a	GoodResponse	0	0.0	n/a	3	47	ISIslide	AvoidedLoss	True
457.628	0.25	Lose2	0.5918	0.0	Yes	3.022	0.028	n/a	GoodResponse	0	n/a	n/a	3	48	Cue	AvoidedLoss	True
457.878	3.95	Lose2	0.5918	0.0	Yes	3.022	0.0	n/a	GoodResponse	0	n/a	n/a	3	48	Fixation	AvoidedLoss	True
461.827	0.39	Lose2	0.5918	0.001	Yes	3.022	-0.001	2.0	GoodResponse	0	0.226	461.053	3	48	Target	AvoidedLoss	True
462.053	0.3	Lose2	0.5918	0.001	Yes	3.022	-0.001	2.0	GoodResponse	0	0.226	n/a	3	48	ButtonPress	AvoidedLoss	True
462.226	0.31	Lose2	0.5918	n/a	Yes	3.022	n/a	n/a	GoodResponse	0	n/a	n/a	3	48	Blank	AvoidedLoss	True
462.526	1.45	Lose2	0.5918	n/a	Yes	3.022	n/a	5.0	GoodResponse	0	0.036	461.562	3	48	Feedback	AvoidedLoss	True
463.976	3.022	Lose2	0.5918	n/a	Yes	3.022	n/a	n/a	GoodResponse	0	0.0	n/a	3	48	ISIslide	AvoidedLoss	True
467.025	0.25	Control	0.6	0.0	Yes	2.875	0.025	n/a	GoodResponse	0	n/a	n/a	3	49	Cue	Neutral	False
467.275	4.0	Control	0.6	0.0	Yes	2.875	0.0	2.0	GoodResponse	0	3.374	469.649	3	49	Fixation	Neutral	False
470.649	0.3	Control	0.6	0.0	Yes	2.875	0.0	2.0	GoodResponse	0	3.374	n/a	3	49	ButtonPress	Neutral	False
471.273	0.4	Control	0.6	0.002	Yes	2.875	-0.002	2.0	GoodResponse	0	0.174	470.447	3	49	Target	Neutral	False
471.447	0.3	Control	0.6	0.002	Yes	2.875	-0.002	2.0	GoodResponse	0	0.174	n/a	3	49	ButtonPress	Neutral	False
471.673	0.3	Control	0.6	n/a	Yes	2.875	n/a	n/a	GoodResponse	0	n/a	n/a	3	49	Blank	Neutral	False
471.973	1.45	Control	0.6	n/a	Yes	2.875	n/a	5.0	GoodResponse	0	0.006	470.979	3	49	Feedback	Neutral	False
473.423	2.875	Control	0.6	n/a	Yes	2.875	n/a	n/a	GoodResponse	0	0.0	n/a	3	49	ISIslide	Neutral	False
476.322	0.25	Control	0.5882000000000001	0.0	No	2.778	0.022	n/a	NoResponse	0	n/a	n/a	3	50	Cue	Neutral	True
476.571	4.0	Control	0.5882000000000001	0.001	No	2.778	-0.001	n/a	NoResponse	0	n/a	n/a	3	50	Fixation	Neutral	True
480.57	0.41	Control	0.5882000000000001	0.002	No	2.778	-0.002	2.0	NoResponse	0	0.687	480.257	3	50	Target	Neutral	True
480.987	0.29	Control	0.5882000000000001	n/a	No	2.778	n/a	n/a	NoResponse	0	n/a	n/a	3	50	Blank	Neutral	True
481.257	0.3	Control	0.5882000000000001	0.002	No	2.778	-0.002	2.0	NoResponse	0	0.687	n/a	3	50	ButtonPress	Neutral	True
481.27	1.45	Control	0.5882000000000001	n/a	No	2.778	n/a	5.0	NoResponse	0	0.024	480.294	3	50	Feedback	Neutral	True
482.719	2.778	Control	0.5882000000000001	n/a	No	2.778	n/a	n/a	NoResponse	0	0.0	n/a	3	50	ISIslide	Neutral	True
485.518	0.25	Control	0.5962	0.0	Yes	2.732	0.018	n/a	GoodResponse	0	n/a	n/a	3	51	Cue	Neutral	True
485.768	3.95	Control	0.5962	0.0	Yes	2.732	0.0	n/a	GoodResponse	0	n/a	n/a	3	51	Fixation	Neutral	True
489.717	0.42	Control	0.5962	0.002	Yes	2.732	-0.001	2.0	GoodResponse	0	0.29	489.007	3	51	Target	Neutral	True
490.007	0.3	Control	0.5962	0.002	Yes	2.732	-0.001	2.0	GoodResponse	0	0.29	n/a	3	51	ButtonPress	Neutral	True
490.133	0.28	Control	0.5962	n/a	Yes	2.732	n/a	n/a	GoodResponse	0	n/a	n/a	3	51	Blank	Neutral	True
490.417	1.45	Control	0.5962	n/a	Yes	2.732	n/a	5.0	GoodResponse	0	0.047	489.464	3	51	Feedback	Neutral	True
491.866	2.732	Control	0.5962	n/a	Yes	2.732	n/a	n/a	GoodResponse	0	0.0	n/a	3	51	ISIslide	Neutral	True
494.615	0.25	Control	0.6038	0.0	Yes	2.635	0.015	n/a	GoodResponse	0	n/a	n/a	3	52	Cue	Neutral	True
494.865	4.05	Control	0.6038	0.0	Yes	2.635	0.0	n/a	GoodResponse	0	n/a	n/a	3	52	Fixation	Neutral	True
498.914	0.43	Control	0.6038	0.001	Yes	2.635	-0.001	2.0	GoodResponse	0	0.288	498.202	3	52	Target	Neutral	True
499.202	0.3	Control	0.6038	0.001	Yes	2.635	-0.001	2.0	GoodResponse	0	0.288	n/a	3	52	ButtonPress	Neutral	True
499.347	0.27	Control	0.6038	n/a	Yes	2.635	n/a	n/a	GoodResponse	0	n/a	n/a	3	52	Blank	Neutral	True
499.614	1.45	Control	0.6038	n/a	Yes	2.635	n/a	5.0	GoodResponse	0	0.021	498.635	3	52	Feedback	Neutral	True
501.063	2.635	Control	0.6038	n/a	Yes	2.635	n/a	n/a	GoodResponse	0	0.0	n/a	3	52	ISIslide	Neutral	True
503.729	0.25	Win2	0.6111	0.0	Yes	2.921	0.029	n/a	GoodResponse	1	n/a	n/a	4	53	Cue	Win	True
503.979	4.05	Win2	0.6111	0.0	Yes	2.921	0.0	n/a	GoodResponse	1	n/a	n/a	4	53	Fixation	Win	True
508.027	0.44	Win2	0.6111	0.002	Yes	2.921	-0.002	2.0	GoodResponse	1	0.435	507.462	4	53	Target	Win	True
508.462	0.3	Win2	0.6111	0.002	Yes	2.921	-0.002	2.0	GoodResponse	1	0.435	n/a	4	53	ButtonPress	Win	True
508.477	0.26	Win2	0.6111	n/a	Yes	2.921	n/a	n/a	GoodResponse	1	n/a	n/a	4	53	Blank	Win	True
508.727	1.45	Win2	0.6111	n/a	Yes	2.921	n/a	5.0	GoodResponse	1	0.03	507.757	4	53	Feedback	Win	True
510.177	2.921	Win2	0.6111	n/a	Yes	2.921	n/a	n/a	GoodResponse	1	0.0	n/a	4	53	ISIslide	Win	True
513.126	0.25	Win2	0.6182	0.0	Yes	2.724	0.026	n/a	GoodResponse	1	n/a	n/a	5	54	Cue	Win	True
513.376	3.95	Win2	0.6182	0.0	Yes	2.724	0.0	n/a	GoodResponse	1	n/a	n/a	5	54	Fixation	Win	True
517.324	0.45	Win2	0.6182	0.002	Yes	2.724	-0.002	2.0	GoodResponse	1	0.22	516.544	5	54	Target	Win	True
517.544	0.3	Win2	0.6182	0.002	Yes	2.724	-0.002	2.0	GoodResponse	1	0.22	n/a	5	54	ButtonPress	Win	True
517.774	0.25	Win2	0.6182	n/a	Yes	2.724	n/a	n/a	GoodResponse	1	n/a	n/a	5	54	Blank	Win	True
518.024	1.45	Win2	0.6182	n/a	Yes	2.724	n/a	5.0	GoodResponse	1	0.002	517.026	5	54	Feedback	Win	True
519.473	2.724	Win2	0.6182	n/a	Yes	2.724	n/a	n/a	GoodResponse	1	0.0	n/a	5	54	ISIslide	Win	True
522.223	0.25	Control	0.625	0.0	Yes	3.027	0.023	n/a	GoodResponse	0	n/a	n/a	5	55	Cue	Neutral	True
522.472	3.95	Control	0.625	0.001	Yes	3.027	-0.001	n/a	GoodResponse	0	n/a	n/a	5	55	Fixation	Neutral	True
526.421	0.46	Control	0.625	0.002	Yes	3.027	-0.002	2.0	GoodResponse	0	0.247	525.668	5	55	Target	Neutral	True
526.668	0.3	Control	0.625	0.002	Yes	3.027	-0.002	2.0	GoodResponse	0	0.247	n/a	5	55	ButtonPress	Neutral	True
526.888	0.24	Control	0.625	n/a	Yes	3.027	n/a	n/a	GoodResponse	0	n/a	n/a	5	55	Blank	Neutral	True
527.121	1.45	Control	0.625	n/a	Yes	3.027	n/a	5.0	GoodResponse	0	0.027	526.148	5	55	Feedback	Neutral	True
528.57	3.027	Control	0.625	n/a	Yes	3.027	n/a	n/a	GoodResponse	0	0.0	n/a	5	55	ISIslide	Neutral	True
531.619	0.25	Control	0.6315999999999999	0.0	Yes	2.831	0.019	n/a	GoodResponse	0	n/a	n/a	5	56	Cue	Neutral	True
531.869	3.95	Control	0.6315999999999999	0.0	Yes	2.831	0.0	n/a	GoodResponse	0	n/a	n/a	5	56	Fixation	Neutral	True
535.818	0.47	Control	0.6315999999999999	0.001	Yes	2.831	-0.001	2.0	GoodResponse	0	0.271	535.089	5	56	Target	Neutral	True
536.089	0.3	Control	0.6315999999999999	0.001	Yes	2.831	-0.001	2.0	GoodResponse	0	0.271	n/a	5	56	ButtonPress	Neutral	True
536.301	0.23	Control	0.6315999999999999	n/a	Yes	2.831	n/a	n/a	GoodResponse	0	n/a	n/a	5	56	Blank	Neutral	True
536.518	1.45	Control	0.6315999999999999	n/a	Yes	2.831	n/a	5.0	GoodResponse	0	0.0	535.518	5	56	Feedback	Neutral	True
537.967	2.831	Control	0.6315999999999999	n/a	Yes	2.831	n/a	n/a	GoodResponse	0	0.0	n/a	5	56	ISIslide	Neutral	True
540.816	0.25	Control	0.6379	0.0	Yes	3.484	0.016	n/a	GoodResponse	0	n/a	n/a	5	57	Cue	Neutral	True
541.066	4.0	Control	0.6379	0.0	Yes	3.484	0.0	n/a	GoodResponse	0	n/a	n/a	5	57	Fixation	Neutral	True
545.065	0.48	Control	0.6379	0.001	Yes	3.484	-0.001	2.0	GoodResponse	0	0.438	544.503	5	57	Target	Neutral	True
545.503	0.3	Control	0.6379	0.001	Yes	3.484	-0.001	2.0	GoodResponse	0	0.438	n/a	5	57	ButtonPress	Neutral	True
545.548	0.22	Control	0.6379	n/a	Yes	3.484	n/a	n/a	GoodResponse	0	n/a	n/a	5	57	Blank	Neutral	True
545.764	1.45	Control	0.6379	n/a	Yes	3.484	n/a	5.0	GoodResponse	0	0.017	544.781	5	57	Feedback	Neutral	True
547.214	3.484	Control	0.6379	n/a	Yes	3.484	n/a	n/a	GoodResponse	0	0.0	n/a	5	57	ISIslide	Neutral	True
550.729	0.25	Win2	0.6441	0.0	Yes	2.721	0.029	n/a	GoodResponse	1	n/a	n/a	6	58	Cue	Win	True
550.979	4.05	Win2	0.6441	0.0	Yes	2.721	0.0	n/a	GoodResponse	1	n/a	n/a	6	58	Fixation	Win	True
555.028	0.49	Win2	0.6441	0.001	Yes	2.721	-0.001	2.0	GoodResponse	1	0.243	554.271	6	58	Target	Win	True
555.271	0.3	Win2	0.6441	0.001	Yes	2.721	-0.001	2.0	GoodResponse	1	0.243	n/a	6	58	ButtonPress	Win	True
555.528	0.21	Win2	0.6441	n/a	Yes	2.721	n/a	n/a	GoodResponse	1	n/a	n/a	6	58	Blank	Win	True
555.728	1.45	Win2	0.6441	n/a	Yes	2.721	n/a	5.0	GoodResponse	1	0.005	554.733	6	58	Feedback	Win	True
557.177	2.721	Win2	0.6441	n/a	Yes	2.721	n/a	n/a	GoodResponse	1	0.0	n/a	6	58	ISIslide	Win	True
559.926	0.25	Lose2	0.6333	0.0	No	2.674	0.026	n/a	NoResponse	-1	n/a	n/a	5	59	Cue	Loss	False
560.176	4.0	Lose2	0.6333	0.0	No	2.674	0.0	n/a	NoResponse	-1	n/a	n/a	5	59	Fixation	Loss	False
564.175	0.5	Lose2	0.6333	0.001	No	2.674	-0.001	n/a	NoResponse	-1	n/a	n/a	5	59	Target	Loss	False
564.675	0.2	Lose2	0.6333	n/a	No	2.674	n/a	n/a	NoResponse	-1	n/a	n/a	5	59	Blank	Loss	False
564.875	1.45	Lose2	0.6333	n/a	No	2.674	n/a	5.0	NoResponse	-1	0.028	563.903	5	59	Feedback	Loss	False
566.324	2.674	Lose2	0.6333	n/a	No	2.674	n/a	n/a	NoResponse	-1	0.0	n/a	5	59	ISIslide	Loss	False
569.023	0.25	Control	0.6393	0.0	Yes	2.677	0.023	n/a	GoodResponse	0	n/a	n/a	5	60	Cue	Neutral	True
569.273	4.0	Control	0.6393	0.0	Yes	2.677	0.0	n/a	GoodResponse	0	n/a	n/a	5	60	Fixation	Neutral	True
573.272	0.5	Control	0.6393	0.001	Yes	2.677	-0.001	2.0	GoodResponse	0	0.257	572.529	5	60	Target	Neutral	True
573.529	0.3	Control	0.6393	0.001	Yes	2.677	-0.001	2.0	GoodResponse	0	0.257	n/a	5	60	ButtonPress	Neutral	True
573.772	0.2	Control	0.6393	n/a	Yes	2.677	n/a	n/a	GoodResponse	0	n/a	n/a	5	60	Blank	Neutral	True
573.971	1.45	Control	0.6393	n/a	Yes	2.677	n/a	5.0	GoodResponse	0	0.006	572.977	5	60	Feedback	Neutral	True
575.421	2.677	Control	0.6393	n/a	Yes	2.677	n/a	n/a	GoodResponse	0	0.0	n/a	5	60	ISIslide	Neutral	True
578.12	0.25	Lose2	0.6452	0.0	Yes	2.98	0.02	n/a	GoodResponse	0	n/a	n/a	5	61	Cue	AvoidedLoss	True
578.37	4.0	Lose2	0.6452	0.0	Yes	2.98	0.0	n/a	GoodResponse	0	n/a	n/a	5	61	Fixation	AvoidedLoss	True
582.369	0.5	Lose2	0.6452	0.001	Yes	2.98	-0.001	2.0	GoodResponse	0	0.252	581.621	5	61	Target	AvoidedLoss	True
582.621	0.3	Lose2	0.6452	0.001	Yes	2.98	-0.001	2.0	GoodResponse	0	0.252	n/a	5	61	ButtonPress	AvoidedLoss	True
582.868	0.2	Lose2	0.6452	n/a	Yes	2.98	n/a	n/a	GoodResponse	0	n/a	n/a	5	61	Blank	AvoidedLoss	True
583.068	1.45	Lose2	0.6452	n/a	Yes	2.98	n/a	5.0	GoodResponse	0	0.031	582.099	5	61	Feedback	AvoidedLoss	True
584.518	2.98	Lose2	0.6452	n/a	Yes	2.98	n/a	n/a	GoodResponse	0	0.0	n/a	5	61	ISIslide	AvoidedLoss	True
587.517	0.25	Lose2	0.6507999999999999	0.0	Yes	2.883	0.017	n/a	GoodResponse	0	n/a	n/a	5	62	Cue	AvoidedLoss	True
587.767	3.9	Lose2	0.6507999999999999	0.0	Yes	2.883	0.0	n/a	GoodResponse	0	n/a	n/a	5	62	Fixation	AvoidedLoss	True
591.665	0.5	Lose2	0.6507999999999999	0.002	Yes	2.883	-0.002	2.0	GoodResponse	0	0.261	590.926	5	62	Target	AvoidedLoss	True
591.926	0.3	Lose2	0.6507999999999999	0.002	Yes	2.883	-0.002	2.0	GoodResponse	0	0.261	n/a	5	62	ButtonPress	AvoidedLoss	True
592.165	0.2	Lose2	0.6507999999999999	n/a	Yes	2.883	n/a	n/a	GoodResponse	0	n/a	n/a	5	62	Blank	AvoidedLoss	True
592.365	1.45	Lose2	0.6507999999999999	n/a	Yes	2.883	n/a	5.0	GoodResponse	0	0.002	591.367	5	62	Feedback	AvoidedLoss	True
593.815	2.883	Lose2	0.6507999999999999	n/a	Yes	2.883	n/a	n/a	GoodResponse	0	0.0	n/a	5	62	ISIslide	AvoidedLoss	True
596.73	0.25	Lose2	0.6562	0.0	Yes	2.62	0.03	n/a	GoodResponse	0	n/a	n/a	5	63	Cue	AvoidedLoss	True
596.98	4.05	Lose2	0.6562	0.0	Yes	2.62	0.0	n/a	GoodResponse	0	n/a	n/a	5	63	Fixation	AvoidedLoss	True
601.029	0.5	Lose2	0.6562	0.001	Yes	2.62	-0.001	2.0	GoodResponse	0	0.267	600.296	5	63	Target	AvoidedLoss	True
601.296	0.3	Lose2	0.6562	0.001	Yes	2.62	-0.001	2.0	GoodResponse	0	0.267	n/a	5	63	ButtonPress	AvoidedLoss	True
601.529	0.2	Lose2	0.6562	n/a	Yes	2.62	n/a	n/a	GoodResponse	0	n/a	n/a	5	63	Blank	AvoidedLoss	True
601.729	1.45	Lose2	0.6562	n/a	Yes	2.62	n/a	5.0	GoodResponse	0	0.006	600.735	5	63	Feedback	AvoidedLoss	True
603.178	2.62	Lose2	0.6562	n/a	Yes	2.62	n/a	n/a	GoodResponse	0	0.0	n/a	5	63	ISIslide	AvoidedLoss	True
605.827	0.25	Win2	0.6615000000000001	0.0	Yes	3.123	0.027	n/a	GoodResponse	1	n/a	n/a	6	64	Cue	Win	True
606.077	4.15	Win2	0.6615000000000001	0.0	Yes	3.123	0.0	n/a	GoodResponse	1	n/a	n/a	6	64	Fixation	Win	True
610.226	0.5	Win2	0.6615000000000001	0.001	Yes	3.123	-0.001	2.0	GoodResponse	1	0.459	609.685	6	64	Target	Win	True
610.685	0.3	Win2	0.6615000000000001	0.001	Yes	3.123	-0.001	2.0	GoodResponse	1	0.459	n/a	6	64	ButtonPress	Win	True
610.726	0.2	Win2	0.6615000000000001	n/a	Yes	3.123	n/a	n/a	GoodResponse	1	n/a	n/a	6	64	Blank	Win	True
610.925	1.45	Win2	0.6615000000000001	n/a	Yes	3.123	n/a	5.0	GoodResponse	1	0.027	609.952	6	64	Feedback	Win	True
612.375	3.123	Win2	0.6615000000000001	n/a	Yes	3.123	n/a	n/a	GoodResponse	1	0.0	n/a	6	64	ISIslide	Win	True
615.524	0.25	Control	0.6667000000000001	0.0	Yes	2.776	0.024	n/a	GoodResponse	0	n/a	n/a	6	65	Cue	Neutral	True
615.774	4.0	Control	0.6667000000000001	0.0	Yes	2.776	0.0	n/a	GoodResponse	0	n/a	n/a	6	65	Fixation	Neutral	True
619.772	0.5	Control	0.6667000000000001	0.002	Yes	2.776	-0.002	2.0	GoodResponse	0	0.424	619.196	6	65	Target	Neutral	True
620.196	0.3	Control	0.6667000000000001	0.002	Yes	2.776	-0.002	2.0	GoodResponse	0	0.424	n/a	6	65	ButtonPress	Neutral	True
620.272	0.2	Control	0.6667000000000001	n/a	Yes	2.776	n/a	n/a	GoodResponse	0	n/a	n/a	6	65	Blank	Neutral	True
620.472	1.45	Control	0.6667000000000001	n/a	Yes	2.776	n/a	5.0	GoodResponse	0	0.001	619.473	6	65	Feedback	Neutral	True
621.922	2.776	Control	0.6667000000000001	n/a	Yes	2.776	n/a	n/a	GoodResponse	0	0.0	n/a	6	65	ISIslide	Neutral	True
624.721	0.25	Win2	0.6567000000000001	0.0	No	2.779	0.021	n/a	NoResponse	0	n/a	n/a	6	66	Cue	MissedWin	False
624.971	3.9	Win2	0.6567000000000001	0.0	No	2.779	0.0	n/a	NoResponse	0	n/a	n/a	6	66	Fixation	MissedWin	False
628.869	0.49	Win2	0.6567000000000001	0.002	No	2.779	-0.002	n/a	NoResponse	0	n/a	n/a	6	66	Target	MissedWin	False
629.369	0.21	Win2	0.6567000000000001	n/a	No	2.779	n/a	n/a	NoResponse	0	n/a	n/a	6	66	Blank	MissedWin	False
629.569	1.45	Win2	0.6567000000000001	n/a	No	2.779	n/a	5.0	NoResponse	0	0.017	628.586	6	66	Feedback	MissedWin	False
631.019	2.779	Win2	0.6567000000000001	n/a	No	2.779	n/a	n/a	NoResponse	0	0.0	n/a	6	66	ISIslide	MissedWin	False
633.818	0.25	Control	0.6470999999999999	0.0	No	2.732	0.018	n/a	NoResponse	0	n/a	n/a	6	67	Cue	Neutral	False
634.068	3.95	Control	0.6470999999999999	0.0	No	2.732	0.0	n/a	NoResponse	0	n/a	n/a	6	67	Fixation	Neutral	False
638.016	0.49	Control	0.6470999999999999	0.002	No	2.732	-0.002	n/a	NoResponse	0	n/a	n/a	6	67	Target	Neutral	False
638.516	0.21	Control	0.6470999999999999	n/a	No	2.732	n/a	n/a	NoResponse	0	n/a	n/a	6	67	Blank	Neutral	False
638.716	1.45	Control	0.6470999999999999	n/a	No	2.732	n/a	5.0	NoResponse	0	0.0	637.716	6	67	Feedback	Neutral	False
640.165	2.732	Control	0.6470999999999999	n/a	No	2.732	n/a	n/a	NoResponse	0	0.0	n/a	6	67	ISIslide	Neutral	False
642.931	0.25	Win2	0.6522	0.0	Yes	3.069	0.031	n/a	GoodResponse	1	n/a	n/a	7	68	Cue	Win	True
643.181	4.0	Win2	0.6522	0.0	Yes	3.069	0.0	n/a	GoodResponse	1	n/a	n/a	7	68	Fixation	Win	True
647.18	0.5	Win2	0.6522	0.001	Yes	3.069	-0.001	2.0	GoodResponse	1	0.263	646.443	7	68	Target	Win	True
647.443	0.3	Win2	0.6522	0.001	Yes	3.069	-0.001	2.0	GoodResponse	1	0.263	n/a	7	68	ButtonPress	Win	True
647.68	0.2	Win2	0.6522	n/a	Yes	3.069	n/a	n/a	GoodResponse	1	n/a	n/a	7	68	Blank	Win	True
647.879	1.45	Win2	0.6522	n/a	Yes	3.069	n/a	5.0	GoodResponse	1	0.049	646.928	7	68	Feedback	Win	True
649.329	3.069	Win2	0.6522	n/a	Yes	3.069	n/a	n/a	GoodResponse	1	0.0	n/a	7	68	ISIslide	Win	True
652.428	0.25	Win2	0.6570999999999999	0.0	Yes	3.222	0.028	n/a	GoodResponse	1	n/a	n/a	8	69	Cue	Win	True
652.678	3.95	Win2	0.6570999999999999	0.0	Yes	3.222	0.0	n/a	GoodResponse	1	n/a	n/a	8	69	Fixation	Win	True
656.626	0.5	Win2	0.6570999999999999	0.002	Yes	3.222	-0.002	2.0	GoodResponse	1	0.454	656.08	8	69	Target	Win	True
657.08	0.3	Win2	0.6570999999999999	0.002	Yes	3.222	-0.002	2.0	GoodResponse	1	0.454	n/a	8	69	ButtonPress	Win	True
657.126	0.2	Win2	0.6570999999999999	n/a	Yes	3.222	n/a	n/a	GoodResponse	1	n/a	n/a	8	69	Blank	Win	True
657.326	1.45	Win2	0.6570999999999999	n/a	Yes	3.222	n/a	5.0	GoodResponse	1	0.017	656.343	8	69	Feedback	Win	True
658.776	3.222	Win2	0.6570999999999999	n/a	Yes	3.222	n/a	n/a	GoodResponse	1	0.0	n/a	8	69	ISIslide	Win	True
662.025	0.25	Lose2	0.6479	0.0	No	3.025	0.025	n/a	NoResponse	-1	n/a	n/a	7	70	Cue	Loss	True
662.275	4.05	Lose2	0.6479	0.0	No	3.025	0.0	2.0	NoResponse	-1	4.04	665.315	7	70	Fixation	Loss	True
666.315	0.3	Lose2	0.6479	0.0	No	3.025	0.0	2.0	NoResponse	-1	4.04	n/a	7	70	ButtonPress	Loss	True
666.323	0.5	Lose2	0.6479	0.002	No	3.025	-0.002	n/a	NoResponse	-1	n/a	n/a	7	70	Target	Loss	True
666.823	0.2	Lose2	0.6479	n/a	No	3.025	n/a	n/a	NoResponse	-1	n/a	n/a	7	70	Blank	Loss	True
667.023	1.45	Lose2	0.6479	n/a	No	3.025	n/a	5.0	NoResponse	-1	0.027	666.05	7	70	Feedback	Loss	True
668.472	3.025	Lose2	0.6479	n/a	No	3.025	n/a	n/a	NoResponse	-1	0.0	n/a	7	70	ISIslide	Loss	True
671.521	0.25	Win2	0.6528	0.0	Yes	2.729	0.021	n/a	GoodResponse	1	n/a	n/a	8	71	Cue	Win	False
671.771	4.05	Win2	0.6528	0.0	Yes	2.729	0.0	2.0	GoodResponse	1	3.851	674.622	8	71	Fixation	Win	False
675.622	0.3	Win2	0.6528	0.0	Yes	2.729	0.0	2.0	GoodResponse	1	3.851	n/a	8	71	ButtonPress	Win	False
675.82	0.5	Win2	0.6528	0.001	Yes	2.729	-0.001	2.0	GoodResponse	1	0.262	675.082	8	71	Target	Win	False
676.082	0.3	Win2	0.6528	0.001	Yes	2.729	-0.001	2.0	GoodResponse	1	0.262	n/a	8	71	ButtonPress	Win	False
676.32	0.2	Win2	0.6528	n/a	Yes	2.729	n/a	n/a	GoodResponse	1	n/a	n/a	8	71	Blank	Win	False
676.52	1.45	Win2	0.6528	n/a	Yes	2.729	n/a	5.0	GoodResponse	1	0.042	675.562	8	71	Feedback	Win	False
677.969	2.729	Win2	0.6528	n/a	Yes	2.729	n/a	n/a	GoodResponse	1	0.0	n/a	8	71	ISIslide	Win	False
680.718	0.25	Win2	0.6437999999999999	0.0	No	2.782	0.018	n/a	NoResponse	0	n/a	n/a	8	72	Cue	MissedWin	False
680.968	4.1	Win2	0.6437999999999999	0.0	No	2.782	0.0	n/a	NoResponse	0	n/a	n/a	8	72	Fixation	MissedWin	False
685.067	0.5	Win2	0.6437999999999999	0.001	No	2.782	-0.001	n/a	NoResponse	0	n/a	n/a	8	72	Target	MissedWin	False
685.567	0.2	Win2	0.6437999999999999	n/a	No	2.782	n/a	n/a	NoResponse	0	n/a	n/a	8	72	Blank	MissedWin	False
685.767	1.45	Win2	0.6437999999999999	n/a	No	2.782	n/a	5.0	NoResponse	0	0.014	684.781	8	72	Feedback	MissedWin	False
687.216	2.782	Win2	0.6437999999999999	n/a	No	2.782	n/a	n/a	NoResponse	0	0.0	n/a	8	72	ISIslide	MissedWin	False
690.015	0.25	Win2	0.6486	0.0	Yes	2.685	0.015	n/a	GoodResponse	1	n/a	n/a	9	73	Cue	Win	True
690.265	4.0	Win2	0.6486	0.0	Yes	2.685	0.0	n/a	GoodResponse	1	n/a	n/a	9	73	Fixation	Win	True
694.264	0.5	Win2	0.6486	0.001	Yes	2.685	-0.001	2.0	GoodResponse	1	0.237	693.501	9	73	Target	Win	True
694.501	0.3	Win2	0.6486	0.001	Yes	2.685	-0.001	2.0	GoodResponse	1	0.237	n/a	9	73	ButtonPress	Win	True
694.763	0.2	Win2	0.6486	n/a	Yes	2.685	n/a	n/a	GoodResponse	1	n/a	n/a	9	73	Blank	Win	True
694.963	1.45	Win2	0.6486	n/a	Yes	2.685	n/a	5.0	GoodResponse	1	0.038	694.001	9	73	Feedback	Win	True
696.413	2.685	Win2	0.6486	n/a	Yes	2.685	n/a	n/a	GoodResponse	1	0.0	n/a	9	73	ISIslide	Win	True
699.129	0.25	Lose2	0.64	0.0	No	2.621	0.029	n/a	NoResponse	-1	n/a	n/a	8	74	Cue	Loss	True
699.379	4.05	Lose2	0.64	0.0	No	2.621	0.0	n/a	NoResponse	-1	n/a	n/a	8	74	Fixation	Loss	True
703.427	0.5	Lose2	0.64	0.002	No	2.621	-0.002	2.0	NoResponse	-1	0.575	703.002	8	74	Target	Loss	True
703.927	0.2	Lose2	0.64	n/a	No	2.621	n/a	n/a	NoResponse	-1	n/a	n/a	8	74	Blank	Loss	True
704.002	0.3	Lose2	0.64	0.002	No	2.621	-0.002	2.0	NoResponse	-1	0.575	n/a	8	74	ButtonPress	Loss	True
704.127	1.45	Lose2	0.64	n/a	No	2.621	n/a	5.0	NoResponse	-1	0.044	703.171	8	74	Feedback	Loss	True
705.576	2.621	Lose2	0.64	n/a	No	2.621	n/a	n/a	NoResponse	-1	0.0	n/a	8	74	ISIslide	Loss	True
708.225	0.25	Lose2	0.6315999999999999	0.001	No	2.925	0.025	n/a	NoResponse	-1	n/a	n/a	7	75	Cue	Loss	False
708.475	3.95	Lose2	0.6315999999999999	0.0	No	2.925	0.0	n/a	NoResponse	-1	n/a	n/a	7	75	Fixation	Loss	False
712.424	0.5	Lose2	0.6315999999999999	0.001	No	2.925	-0.001	n/a	NoResponse	-1	n/a	n/a	7	75	Target	Loss	False
712.924	0.2	Lose2	0.6315999999999999	n/a	No	2.925	n/a	n/a	NoResponse	-1	n/a	n/a	7	75	Blank	Loss	False
713.124	1.45	Lose2	0.6315999999999999	n/a	No	2.925	n/a	5.0	NoResponse	-1	0.023	712.147	7	75	Feedback	Loss	False
714.573	2.925	Lose2	0.6315999999999999	n/a	No	2.925	n/a	n/a	NoResponse	-1	0.0	n/a	7	75	ISIslide	Loss	False
717.522	0.25	Control	0.6364	0.0	Yes	3.228	0.022	n/a	GoodResponse	0	n/a	n/a	7	76	Cue	Neutral	True
717.772	4.05	Control	0.6364	0.0	Yes	3.228	0.0	n/a	GoodResponse	0	n/a	n/a	7	76	Fixation	Neutral	True
721.821	0.5	Control	0.6364	0.001	Yes	3.228	-0.001	2.0	GoodResponse	0	0.292	721.113	7	76	Target	Neutral	True
722.113	0.3	Control	0.6364	0.001	Yes	3.228	-0.001	2.0	GoodResponse	0	0.292	n/a	7	76	ButtonPress	Neutral	True
722.321	0.2	Control	0.6364	n/a	Yes	3.228	n/a	n/a	GoodResponse	0	n/a	n/a	7	76	Blank	Neutral	True
722.521	1.45	Control	0.6364	n/a	Yes	3.228	n/a	5.0	GoodResponse	0	0.041	721.562	7	76	Feedback	Neutral	True
723.97	3.228	Control	0.6364	n/a	Yes	3.228	n/a	n/a	GoodResponse	0	0.0	n/a	7	76	ISIslide	Neutral	True
727.219	0.25	Lose2	0.6409999999999999	0.0	Yes	2.581	0.019	n/a	GoodResponse	0	n/a	n/a	7	77	Cue	AvoidedLoss	True
727.469	3.95	Lose2	0.6409999999999999	0.0	Yes	2.581	0.0	n/a	GoodResponse	0	n/a	n/a	7	77	Fixation	AvoidedLoss	True
731.418	0.5	Lose2	0.6409999999999999	0.001	Yes	2.581	-0.001	2.0	GoodResponse	0	0.404	730.822	7	77	Target	AvoidedLoss	True
731.822	0.3	Lose2	0.6409999999999999	0.001	Yes	2.581	-0.001	2.0	GoodResponse	0	0.404	n/a	7	77	ButtonPress	AvoidedLoss	True
731.917	0.2	Lose2	0.6409999999999999	n/a	Yes	2.581	n/a	n/a	GoodResponse	0	n/a	n/a	7	77	Blank	AvoidedLoss	True
732.117	1.45	Lose2	0.6409999999999999	n/a	Yes	2.581	n/a	5.0	GoodResponse	0	0.006	731.123	7	77	Feedback	AvoidedLoss	True
733.567	2.581	Lose2	0.6409999999999999	n/a	Yes	2.581	n/a	n/a	GoodResponse	0	0.0	n/a	7	77	ISIslide	AvoidedLoss	True
