onset	duration	cue_type	current_mean_accuracy	duration_error	is_hit	isi_adjusted	onset_delay	response	response_type	reward	rt	rt_time	total_reward	trial_number	trial_phase	trial_type	one_press
11.098	0.25	Control	1.0	0.0	Yes	2.952	-0.002	n/a	GoodResponse	0	n/a	n/a	0	0	Cue	Neutral	True
11.349	3.85	Control	1.0	0.0	Yes	2.952	0.001	n/a	GoodResponse	0	n/a	n/a	0	0	Fixation	Neutral	True
15.21	0.4	Control	1.0	0.0	Yes	2.952	0.012	2.0	GoodResponse	0	0.203	14.413	0	0	Target	Neutral	True
15.413	0.3	Control	1.0	0.0	Yes	2.952	0.012	2.0	GoodResponse	0	0.203	n/a	0	0	ButtonPress	Neutral	True
15.595	0.3	Control	1.0	n/a	Yes	2.952	n/a	n/a	GoodResponse	0	n/a	n/a	0	0	Blank	Neutral	True
15.895	1.45	Control	1.0	n/a	Yes	2.952	n/a	5.0	GoodResponse	0	0.031	14.926	0	0	Feedback	Neutral	True
17.35	2.952	Control	1.0	n/a	Yes	2.952	n/a	n/a	GoodResponse	0	0.0	n/a	0	0	ISIslide	Neutral	True
20.325	0.25	Lose2	1.0	0.0	Yes	2.775	0.025	n/a	GoodResponse	0	n/a	n/a	0	1	Cue	AvoidedLoss	True
20.576	4.0	Lose2	1.0	0.0	Yes	2.775	0.001	n/a	GoodResponse	0	n/a	n/a	0	1	Fixation	AvoidedLoss	True
24.571	0.39	Lose2	1.0	0.004	Yes	2.775	-0.004	2.0	GoodResponse	0	0.206	23.777	0	1	Target	AvoidedLoss	True
24.777	0.3	Lose2	1.0	0.004	Yes	2.775	-0.004	2.0	GoodResponse	0	0.206	n/a	0	1	ButtonPress	AvoidedLoss	True
24.973	0.31	Lose2	1.0	n/a	Yes	2.775	n/a	n/a	GoodResponse	0	n/a	n/a	0	1	Blank	AvoidedLoss	True
25.273	1.45	Lose2	1.0	n/a	Yes	2.775	n/a	5.0	GoodResponse	0	0.019	24.292	0	1	Feedback	AvoidedLoss	True
26.728	2.775	Lose2	1.0	n/a	Yes	2.775	n/a	n/a	GoodResponse	0	0.0	n/a	0	1	ISIslide	AvoidedLoss	True
29.519	0.25	Control	1.0	0.001	Yes	2.581	0.019	n/a	GoodResponse	0	n/a	n/a	0	2	Cue	Neutral	True
29.77	4.1	Control	1.0	0.0	Yes	2.581	0.001	n/a	GoodResponse	0	n/a	n/a	0	2	Fixation	Neutral	True
33.866	0.38	Control	1.0	0.003	Yes	2.581	-0.003	2.0	GoodResponse	0	0.228	33.094	0	2	Target	Neutral	True
34.094	0.3	Control	1.0	0.003	Yes	2.581	-0.003	2.0	GoodResponse	0	0.228	n/a	0	2	ButtonPress	Neutral	True
34.25	0.32	Control	1.0	n/a	Yes	2.581	n/a	n/a	GoodResponse	0	n/a	n/a	0	2	Blank	Neutral	True
34.568	1.45	Control	1.0	n/a	Yes	2.581	n/a	5.0	GoodResponse	0	0.041	33.609	0	2	Feedback	Neutral	True
36.022	2.581	Control	1.0	n/a	Yes	2.581	n/a	n/a	GoodResponse	0	0.0	n/a	0	2	ISIslide	Neutral	True
38.63	0.25	Win2	1.0	0.0	Yes	2.82	0.03	n/a	GoodResponse	1	n/a	n/a	1	3	Cue	Win	False
38.881	3.95	Win2	1.0	0.0	Yes	2.82	0.001	2.0	GoodResponse	1	0.064	37.945	1	3	Fixation	Win	False
38.945	0.3	Win2	1.0	0.0	Yes	2.82	0.001	2.0	GoodResponse	1	0.064	n/a	1	3	ButtonPress	Win	False
42.826	0.37	Win2	1.0	0.004	Yes	2.82	-0.004	2.0	GoodResponse	1	0.237	42.063	1	3	Target	Win	False
43.063	0.3	Win2	1.0	0.004	Yes	2.82	-0.004	2.0	GoodResponse	1	0.237	n/a	1	3	ButtonPress	Win	False
43.21	0.33	Win2	1.0	n/a	Yes	2.82	n/a	n/a	GoodResponse	1	n/a	n/a	1	3	Blank	Win	False
43.528	1.45	Win2	1.0	n/a	Yes	2.82	n/a	5.0	GoodResponse	1	0.008	42.536	1	3	Feedback	Win	False
44.982	2.82	Win2	1.0	n/a	Yes	2.82	n/a	n/a	GoodResponse	1	0.0	n/a	1	3	ISIslide	Win	False
47.824	0.25	Win2	0.8	0.0	No	3.276	0.024	2.0	NoResponse	0	0.247	47.071	1	4	Cue	MissedWin	False
48.071	0.3	Win2	0.8	0.0	No	3.276	0.024	2.0	NoResponse	0	0.247	n/a	1	4	ButtonPress	MissedWin	False
48.075	4.0	Win2	0.8	0.0	No	3.276	0.001	2.0	NoResponse	0	3.701	50.776	1	4	Fixation	MissedWin	False
51.776	0.3	Win2	0.8	0.0	No	3.276	0.001	2.0	NoResponse	0	3.701	n/a	1	4	ButtonPress	MissedWin	False
52.07	0.36	Win2	0.8	0.004	No	3.276	-0.004	n/a	NoResponse	0	n/a	n/a	1	4	Target	MissedWin	False
52.438	0.34	Win2	0.8	n/a	No	3.276	n/a	n/a	NoResponse	0	n/a	n/a	1	4	Blank	MissedWin	False
52.772	1.45	Win2	0.8	n/a	No	3.276	n/a	5.0	NoResponse	0	0.031	51.803	1	4	Feedback	MissedWin	False
54.227	3.276	Win2	0.8	n/a	No	3.276	n/a	n/a	NoResponse	0	0.0	n/a	1	4	ISIslide	MissedWin	False
57.52	0.25	Win2	0.8332999999999999	0.0	Yes	2.78	0.02	n/a	GoodResponse	1	n/a	n/a	2	5	Cue	Win	False
57.771	4.0	Win2	0.8332999999999999	0.0	Yes	2.78	0.001	2.0	GoodResponse	1	0.114	56.885	2	5	Fixation	Win	False
57.885	0.3	Win2	0.8332999999999999	0.0	Yes	2.78	0.001	2.0	GoodResponse	1	0.114	n/a	2	5	ButtonPress	Win	False
61.766	0.35	Win2	0.8332999999999999	0.004	Yes	2.78	-0.004	2.0	GoodResponse	1	0.243	61.009	2	5	Target	Win	False
62.009	0.3	Win2	0.8332999999999999	0.004	Yes	2.78	-0.004	2.0	GoodResponse	1	0.243	n/a	2	5	ButtonPress	Win	False
62.117	0.35	Win2	0.8332999999999999	n/a	Yes	2.78	n/a	n/a	GoodResponse	1	n/a	n/a	2	5	Blank	Win	False
62.468	1.45	Win2	0.8332999999999999	n/a	Yes	2.78	n/a	5.0	GoodResponse	1	0.042	61.51	2	5	Feedback	Win	False
63.922	2.78	Win2	0.8332999999999999	n/a	Yes	2.78	n/a	n/a	GoodResponse	1	0.0	n/a	2	5	ISIslide	Win	False
66.731	0.25	Lose2	0.8571	0.0	Yes	2.719	0.031	n/a	GoodResponse	0	n/a	n/a	2	6	Cue	AvoidedLoss	False
66.981	3.95	Lose2	0.8571	0.0	Yes	2.719	0.0	2.0	GoodResponse	0	0.011	65.992	2	6	Fixation	AvoidedLoss	False
66.992	0.3	Lose2	0.8571	0.0	Yes	2.719	0.0	2.0	GoodResponse	0	0.011	n/a	2	6	ButtonPress	AvoidedLoss	False
70.926	0.34	Lose2	0.8571	0.005	Yes	2.719	-0.005	2.0	GoodResponse	0	0.228	70.154	2	6	Target	AvoidedLoss	False
71.154	0.3	Lose2	0.8571	0.005	Yes	2.719	-0.005	2.0	GoodResponse	0	0.228	n/a	2	6	ButtonPress	AvoidedLoss	False
71.278	0.36	Lose2	0.8571	n/a	Yes	2.719	n/a	n/a	GoodResponse	0	n/a	n/a	2	6	Blank	AvoidedLoss	False
71.629	1.45	Lose2	0.8571	n/a	Yes	2.719	n/a	5.0	GoodResponse	0	0.007	70.636	2	6	Feedback	AvoidedLoss	False
73.083	2.719	Lose2	0.8571	n/a	Yes	2.719	n/a	n/a	GoodResponse	0	0.0	n/a	2	6	ISIslide	AvoidedLoss	False
75.824	0.25	Lose2	0.875	0.001	Yes	4.026	0.024	n/a	GoodResponse	0	n/a	n/a	2	7	Cue	AvoidedLoss	True
76.075	4.05	Lose2	0.875	0.0	Yes	4.026	0.001	n/a	GoodResponse	0	n/a	n/a	2	7	Fixation	AvoidedLoss	True
80.121	0.33	Lose2	0.875	0.003	Yes	4.026	-0.003	2.0	GoodResponse	0	0.26	79.381	2	7	Target	AvoidedLoss	True
80.381	0.3	Lose2	0.875	0.003	Yes	4.026	-0.003	2.0	GoodResponse	0	0.26	n/a	2	7	ButtonPress	AvoidedLoss	True
80.455	0.37	Lose2	0.875	n/a	Yes	4.026	n/a	n/a	GoodResponse	0	n/a	n/a	2	7	Blank	AvoidedLoss	True
80.823	1.45	Lose2	0.875	n/a	Yes	4.026	n/a	5.0	GoodResponse	0	0.029	79.852	2	7	Feedback	AvoidedLoss	True
82.277	4.026	Lose2	0.875	n/a	Yes	4.026	n/a	n/a	GoodResponse	0	0.0	n/a	2	7	ISIslide	AvoidedLoss	True
86.322	0.25	Lose2	0.8889	0.001	Yes	3.028	0.022	n/a	GoodResponse	0	n/a	n/a	2	8	Cue	AvoidedLoss	True
86.573	3.95	Lose2	0.8889	0.0	Yes	3.028	0.001	n/a	GoodResponse	0	n/a	n/a	2	8	Fixation	AvoidedLoss	True
90.518	0.32	Lose2	0.8889	0.004	Yes	3.028	-0.004	2.0	GoodResponse	0	0.241	89.759	2	8	Target	AvoidedLoss	True
90.759	0.3	Lose2	0.8889	0.004	Yes	3.028	-0.004	2.0	GoodResponse	0	0.241	n/a	2	8	ButtonPress	AvoidedLoss	True
90.853	0.38	Lose2	0.8889	n/a	Yes	3.028	n/a	n/a	GoodResponse	0	n/a	n/a	2	8	Blank	AvoidedLoss	True
91.22	1.45	Lose2	0.8889	n/a	Yes	3.028	n/a	5.0	GoodResponse	0	0.021	90.241	2	8	Feedback	AvoidedLoss	True
92.675	3.028	Lose2	0.8889	n/a	Yes	3.028	n/a	n/a	GoodResponse	0	0.0	n/a	2	8	ISIslide	AvoidedLoss	True
95.717	0.25	Lose2	0.8	0.0	No	3.133	0.017	2.0	LatePress	-1	0.246	94.963	1	9	Cue	Loss	False
95.963	0.3	Lose2	0.8	0.0	No	3.133	0.017	2.0	LatePress	-1	0.246	n/a	1	9	ButtonPress	Loss	False
95.968	3.95	Lose2	0.8	0.0	No	3.133	0.001	n/a	LatePress	-1	n/a	n/a	1	9	Fixation	Loss	False
99.913	0.31	Lose2	0.8	0.004	No	3.133	-0.004	2.0	LatePress	-1	0.316	99.229	1	9	Target	Loss	False
100.229	0.3	Lose2	0.8	0.004	No	3.133	-0.004	2.0	LatePress	-1	0.316	n/a	1	9	ButtonPress	Loss	False
100.231	0.39	Lose2	0.8	n/a	No	3.133	n/a	n/a	LatePress	-1	n/a	n/a	1	9	Blank	Loss	False
100.615	1.45	Lose2	0.8	n/a	No	3.133	n/a	5.0	LatePress	-1	0.041	99.656	1	9	Feedback	Loss	False
102.069	3.133	Lose2	0.8	n/a	No	3.133	n/a	n/a	LatePress	-1	0.0	n/a	1	9	ISIslide	Loss	False
105.229	0.25	Control	0.8181999999999999	0.0	Yes	3.271	0.029	n/a	GoodResponse	0	n/a	n/a	1	10	Cue	Neutral	True
105.48	4.0	Control	0.8181999999999999	0.0	Yes	3.271	0.001	n/a	GoodResponse	0	n/a	n/a	1	10	Fixation	Neutral	True
109.475	0.3	Control	0.8181999999999999	0.004	Yes	3.271	-0.004	2.0	GoodResponse	0	0.222	108.697	1	10	Target	Neutral	True
109.697	0.3	Control	0.8181999999999999	0.004	Yes	3.271	-0.004	2.0	GoodResponse	0	0.222	n/a	1	10	ButtonPress	Neutral	True
109.776	0.4	Control	0.8181999999999999	n/a	Yes	3.271	n/a	n/a	GoodResponse	0	n/a	n/a	1	10	Blank	Neutral	True
110.177	1.45	Control	0.8181999999999999	n/a	Yes	3.271	n/a	5.0	GoodResponse	0	0.04	109.217	1	10	Feedback	Neutral	True
111.631	3.271	Control	0.8181999999999999	n/a	Yes	3.271	n/a	n/a	GoodResponse	0	0.0	n/a	1	10	ISIslide	Neutral	True
114.925	0.25	Lose2	0.8332999999999999	0.0	Yes	2.725	0.025	n/a	GoodResponse	0	n/a	n/a	1	11	Cue	AvoidedLoss	True
115.175	4.05	Lose2	0.8332999999999999	0.0	Yes	2.725	0.0	n/a	GoodResponse	0	n/a	n/a	1	11	Fixation	AvoidedLoss	True
119.221	0.29	Lose2	0.8332999999999999	0.004	Yes	2.725	-0.004	2.0	GoodResponse	0	0.243	118.464	1	11	Target	AvoidedLoss	True
119.464	0.3	Lose2	0.8332999999999999	0.004	Yes	2.725	-0.004	2.0	GoodResponse	0	0.243	n/a	1	11	ButtonPress	AvoidedLoss	True
119.522	0.41	Lose2	0.8332999999999999	n/a	Yes	2.725	n/a	n/a	GoodResponse	0	n/a	n/a	1	11	Blank	AvoidedLoss	True
119.923	1.45	Lose2	0.8332999999999999	n/a	Yes	2.725	n/a	5.0	GoodResponse	0	0.002	118.925	1	11	Feedback	AvoidedLoss	True
121.377	2.725	Lose2	0.8332999999999999	n/a	Yes	2.725	n/a	n/a	GoodResponse	0	0.0	n/a	1	11	ISIslide	AvoidedLoss	True
124.119	0.25	Control	0.7692	0.0	No	2.981	0.019	n/a	NoResponse	0	n/a	n/a	1	12	Cue	Neutral	True
124.369	3.9	Control	0.7692	0.001	No	2.981	0.0	n/a	NoResponse	0	n/a	n/a	1	12	Fixation	Neutral	True
128.281	0.28	Control	0.7692	0.0	No	2.981	0.012	2.0	NoResponse	0	0.338	127.619	1	12	Target	Neutral	True
128.549	0.42	Control	0.7692	n/a	No	2.981	n/a	n/a	NoResponse	0	n/a	n/a	1	12	Blank	Neutral	True
128.619	0.3	Control	0.7692	0.0	No	2.981	0.012	2.0	NoResponse	0	0.338	n/a	1	12	ButtonPress	Neutral	True
128.966	1.45	Control	0.7692	n/a	No	2.981	n/a	5.0	NoResponse	0	0.031	127.997	1	12	Feedback	Neutral	True
130.421	2.981	Control	0.7692	n/a	No	2.981	n/a	n/a	NoResponse	0	0.0	n/a	1	12	ISIslide	Neutral	True
133.43	0.25	Control	0.7857	0.0	Yes	2.77	0.03	n/a	GoodResponse	0	n/a	n/a	1	13	Cue	Neutral	True
133.681	4.0	Control	0.7857	0.0	Yes	2.77	0.001	n/a	GoodResponse	0	n/a	n/a	1	13	Fixation	Neutral	True
137.676	0.27	Control	0.7857	0.004	Yes	2.77	-0.004	2.0	GoodResponse	0	0.218	136.894	1	13	Target	Neutral	True
137.894	0.3	Control	0.7857	0.004	Yes	2.77	-0.004	2.0	GoodResponse	0	0.218	n/a	1	13	ButtonPress	Neutral	True
137.96	0.43	Control	0.7857	n/a	Yes	2.77	n/a	n/a	GoodResponse	0	n/a	n/a	1	13	Blank	Neutral	True
138.378	1.45	Control	0.7857	n/a	Yes	2.77	n/a	5.0	GoodResponse	0	0.034	137.412	1	13	Feedback	Neutral	True
139.832	2.77	Control	0.7857	n/a	Yes	2.77	n/a	n/a	GoodResponse	0	0.0	n/a	1	13	ISIslide	Neutral	True
142.624	0.25	Win2	0.8	0.0	Yes	2.676	0.024	n/a	GoodResponse	1	n/a	n/a	2	14	Cue	Win	True
142.875	4.1	Win2	0.8	0.0	Yes	2.676	0.001	n/a	GoodResponse	1	n/a	n/a	2	14	Fixation	Win	True
146.97	0.26	Win2	0.8	0.004	Yes	2.676	-0.004	2.0	GoodResponse	1	0.23	146.2	2	14	Target	Win	True
147.2	0.3	Win2	0.8	0.004	Yes	2.676	-0.004	2.0	GoodResponse	1	0.23	n/a	2	14	ButtonPress	Win	True
147.238	0.44	Win2	0.8	n/a	Yes	2.676	n/a	n/a	GoodResponse	1	n/a	n/a	2	14	Blank	Win	True
147.672	1.45	Win2	0.8	n/a	Yes	2.676	n/a	5.0	GoodResponse	1	0.008	146.68	2	14	Feedback	Win	True
149.127	2.676	Win2	0.8	n/a	Yes	2.676	n/a	n/a	GoodResponse	1	0.0	n/a	2	14	ISIslide	Win	True
151.818	0.25	Control	0.8125	0.0	Yes	2.982	0.018	n/a	GoodResponse	0	n/a	n/a	2	15	Cue	Neutral	True
152.069	4.0	Control	0.8125	0.0	Yes	2.982	0.001	n/a	GoodResponse	0	n/a	n/a	2	15	Fixation	Neutral	True
156.064	0.25	Control	0.8125	0.004	Yes	2.982	-0.004	2.0	GoodResponse	0	0.223	155.287	2	15	Target	Neutral	True
156.287	0.3	Control	0.8125	0.004	Yes	2.982	-0.004	2.0	GoodResponse	0	0.223	n/a	2	15	ButtonPress	Neutral	True
156.315	0.45	Control	0.8125	n/a	Yes	2.982	n/a	n/a	GoodResponse	0	n/a	n/a	2	15	Blank	Neutral	True
156.766	1.45	Control	0.8125	n/a	Yes	2.982	n/a	5.0	GoodResponse	0	0.036	155.802	2	15	Feedback	Neutral	True
158.221	2.982	Control	0.8125	n/a	Yes	2.982	n/a	n/a	GoodResponse	0	0.0	n/a	2	15	ISIslide	Neutral	True
161.229	0.25	Win2	0.7646999999999999	0.001	No	2.871	0.029	n/a	NoResponse	0	n/a	n/a	2	16	Cue	MissedWin	True
161.48	4.0	Win2	0.7646999999999999	0.0	No	2.871	0.001	n/a	NoResponse	0	n/a	n/a	2	16	Fixation	MissedWin	True
165.476	0.24	Win2	0.7646999999999999	0.003	No	2.871	-0.003	2.0	NoResponse	0	0.259	164.735	2	16	Target	MissedWin	True
165.726	0.46	Win2	0.7646999999999999	n/a	No	2.871	n/a	n/a	NoResponse	0	n/a	n/a	2	16	Blank	MissedWin	True
165.735	0.3	Win2	0.7646999999999999	0.003	No	2.871	-0.003	2.0	NoResponse	0	0.259	n/a	2	16	ButtonPress	MissedWin	True
166.178	1.45	Win2	0.7646999999999999	n/a	No	2.871	n/a	5.0	NoResponse	0	0.038	165.216	2	16	Feedback	MissedWin	True
167.632	2.871	Win2	0.7646999999999999	n/a	No	2.871	n/a	n/a	NoResponse	0	0.0	n/a	2	16	ISIslide	MissedWin	True
170.524	0.25	Lose2	0.7222	0.0	No	2.726	0.024	n/a	NoResponse	-1	n/a	n/a	1	17	Cue	Loss	True
170.775	3.95	Lose2	0.7222	0.0	No	2.726	0.001	n/a	NoResponse	-1	n/a	n/a	1	17	Fixation	Loss	True
174.72	0.23	Lose2	0.7222	0.004	No	2.726	-0.004	2.0	NoResponse	-1	0.25	173.97	1	17	Target	Loss	True
174.954	0.47	Lose2	0.7222	n/a	No	2.726	n/a	n/a	NoResponse	-1	n/a	n/a	1	17	Blank	Loss	True
174.97	0.3	Lose2	0.7222	0.004	No	2.726	-0.004	2.0	NoResponse	-1	0.25	n/a	1	17	ButtonPress	Loss	True
175.422	1.45	Lose2	0.7222	n/a	No	2.726	n/a	5.0	NoResponse	-1	0.013	174.435	1	17	Feedback	Loss	True
176.876	2.726	Lose2	0.7222	n/a	No	2.726	n/a	n/a	NoResponse	-1	0.0	n/a	1	17	ISIslide	Loss	True
179.618	0.25	Lose2	0.7368000000000001	0.0	Yes	2.732	0.018	2.0	GoodResponse	0	0.233	178.851	1	18	Cue	AvoidedLoss	False
179.851	0.3	Lose2	0.7368000000000001	0.0	Yes	2.732	0.018	2.0	GoodResponse	0	0.233	n/a	1	18	ButtonPress	AvoidedLoss	False
179.868	4.05	Lose2	0.7368000000000001	0.001	Yes	2.732	0.0	2.0	GoodResponse	0	2.604	181.472	1	18	Fixation	AvoidedLoss	False
182.472	0.3	Lose2	0.7368000000000001	0.001	Yes	2.732	0.0	2.0	GoodResponse	0	2.604	n/a	1	18	ButtonPress	AvoidedLoss	False
183.914	0.22	Lose2	0.7368000000000001	0.004	Yes	2.732	-0.004	2.0	GoodResponse	0	0.212	183.126	1	18	Target	AvoidedLoss	False
184.126	0.3	Lose2	0.7368000000000001	0.004	Yes	2.732	-0.004	2.0	GoodResponse	0	0.212	n/a	1	18	ButtonPress	AvoidedLoss	False
184.148	0.48	Lose2	0.7368000000000001	n/a	Yes	2.732	n/a	n/a	GoodResponse	0	n/a	n/a	1	18	Blank	AvoidedLoss	False
184.616	1.45	Lose2	0.7368000000000001	n/a	Yes	2.732	n/a	5.0	GoodResponse	0	0.039	183.655	1	18	Feedback	AvoidedLoss	False
186.07	2.732	Lose2	0.7368000000000001	n/a	Yes	2.732	n/a	n/a	GoodResponse	0	0.0	n/a	1	18	ISIslide	AvoidedLoss	False
188.829	0.25	Control	0.7	0.0	No	2.921	0.029	n/a	NoResponse	0	n/a	n/a	1	19	Cue	Neutral	True
189.079	3.95	Control	0.7	0.0	No	2.921	0.0	n/a	NoResponse	0	n/a	n/a	1	19	Fixation	Neutral	True
193.041	0.21	Control	0.7	0.0	No	2.921	0.012	2.0	NoResponse	0	0.211	192.252	1	19	Target	Neutral	True
193.242	0.49	Control	0.7	n/a	No	2.921	n/a	n/a	NoResponse	0	n/a	n/a	1	19	Blank	Neutral	True
193.252	0.3	Control	0.7	0.0	No	2.921	0.012	2.0	NoResponse	0	0.211	n/a	1	19	ButtonPress	Neutral	True
193.727	1.45	Control	0.7	n/a	No	2.921	n/a	5.0	NoResponse	0	0.001	192.728	1	19	Feedback	Neutral	True
195.181	2.921	Control	0.7	n/a	No	2.921	n/a	n/a	NoResponse	0	0.0	n/a	1	19	ISIslide	Neutral	True
198.123	0.25	Control	0.6667000000000001	0.0	No	2.627	0.023	n/a	NoResponse	0	n/a	n/a	1	20	Cue	Neutral	False
198.374	4.05	Control	0.6667000000000001	0.0	No	2.627	0.001	n/a	NoResponse	0	n/a	n/a	1	20	Fixation	Neutral	False
202.419	0.2	Control	0.6667000000000001	0.004	No	2.627	-0.004	n/a	NoResponse	0	n/a	n/a	1	20	Target	Neutral	False
202.62	0.5	Control	0.6667000000000001	n/a	No	2.627	n/a	n/a	NoResponse	0	n/a	n/a	1	20	Blank	Neutral	False
203.121	1.45	Control	0.6667000000000001	n/a	No	2.627	n/a	5.0	NoResponse	0	0.022	202.143	1	20	Feedback	Neutral	False
204.576	2.627	Control	0.6667000000000001	n/a	No	2.627	n/a	n/a	NoResponse	0	0.0	n/a	1	20	ISIslide	Neutral	False
207.217	0.25	Control	0.6364	0.0	No	2.783	0.017	n/a	NoResponse	0	n/a	n/a	1	21	Cue	Neutral	False
207.468	4.1	Control	0.6364	0.0	No	2.783	0.001	n/a	NoResponse	0	n/a	n/a	1	21	Fixation	Neutral	False
211.563	0.19	Control	0.6364	0.004	No	2.783	-0.004	n/a	NoResponse	0	n/a	n/a	1	21	Target	Neutral	False
211.764	0.51	Control	0.6364	n/a	No	2.783	n/a	n/a	NoResponse	0	n/a	n/a	1	21	Blank	Neutral	False
212.265	1.45	Control	0.6364	n/a	No	2.783	n/a	5.0	NoResponse	0	0.048	211.313	1	21	Feedback	Neutral	False
213.72	2.783	Control	0.6364	n/a	No	2.783	n/a	n/a	NoResponse	0	0.0	n/a	1	21	ISIslide	Neutral	False
216.528	0.25	Control	0.6087	0.0	No	2.772	0.028	n/a	NoResponse	0	n/a	n/a	1	22	Cue	Neutral	True
216.779	4.0	Control	0.6087	0.0	No	2.772	0.001	n/a	NoResponse	0	n/a	n/a	1	22	Fixation	Neutral	True
220.774	0.2	Control	0.6087	0.004	No	2.772	-0.004	2.0	NoResponse	0	0.211	219.985	1	22	Target	Neutral	True
220.975	0.5	Control	0.6087	n/a	No	2.772	n/a	n/a	NoResponse	0	n/a	n/a	1	22	Blank	Neutral	True
220.985	0.3	Control	0.6087	0.004	No	2.772	-0.004	2.0	NoResponse	0	0.211	n/a	1	22	ButtonPress	Neutral	True
221.476	1.45	Control	0.6087	n/a	No	2.772	n/a	5.0	NoResponse	0	0.008	220.484	1	22	Feedback	Neutral	True
222.93	2.772	Control	0.6087	n/a	No	2.772	n/a	n/a	NoResponse	0	0.0	n/a	1	22	ISIslide	Neutral	True
225.722	0.25	Control	0.625	0.0	Yes	2.778	0.022	n/a	GoodResponse	0	n/a	n/a	1	23	Cue	Neutral	True
225.973	3.9	Control	0.625	0.0	Yes	2.778	0.001	n/a	GoodResponse	0	n/a	n/a	1	23	Fixation	Neutral	True
229.868	0.21	Control	0.625	0.004	Yes	2.778	-0.004	2.0	GoodResponse	0	0.208	229.076	1	23	Target	Neutral	True
230.076	0.3	Control	0.625	0.004	Yes	2.778	-0.004	2.0	GoodResponse	0	0.208	n/a	1	23	ButtonPress	Neutral	True
230.085	0.49	Control	0.625	n/a	Yes	2.778	n/a	n/a	GoodResponse	0	n/a	n/a	1	23	Blank	Neutral	True
230.57	1.45	Control	0.625	n/a	Yes	2.778	n/a	5.0	GoodResponse	0	0.036	229.606	1	23	Feedback	Neutral	True
232.024	2.778	Control	0.625	n/a	Yes	2.778	n/a	n/a	GoodResponse	0	0.0	n/a	1	23	ISIslide	Neutral	True
234.816	0.25	Win2	0.6	0.0	No	3.134	0.016	n/a	NoResponse	0	n/a	n/a	1	24	Cue	MissedWin	True
235.067	3.95	Win2	0.6	0.0	No	3.134	0.001	n/a	NoResponse	0	n/a	n/a	1	24	Fixation	MissedWin	True
239.012	0.22	Win2	0.6	0.004	No	3.134	-0.004	2.0	NoResponse	0	0.256	238.268	1	24	Target	MissedWin	True
239.246	0.48	Win2	0.6	n/a	No	3.134	n/a	n/a	NoResponse	0	n/a	n/a	1	24	Blank	MissedWin	True
239.268	0.3	Win2	0.6	0.004	No	3.134	-0.004	2.0	NoResponse	0	0.256	n/a	1	24	ButtonPress	MissedWin	True
239.714	1.45	Win2	0.6	n/a	No	3.134	n/a	5.0	NoResponse	0	0.014	238.728	1	24	Feedback	MissedWin	True
241.168	3.134	Win2	0.6	n/a	No	3.134	n/a	n/a	NoResponse	0	0.0	n/a	1	24	ISIslide	MissedWin	True
244.328	0.25	Win2	0.6154	0.0	Yes	3.072	0.028	n/a	GoodResponse	1	n/a	n/a	2	25	Cue	Win	True
244.578	4.0	Win2	0.6154	0.001	Yes	3.072	0.0	n/a	GoodResponse	1	n/a	n/a	2	25	Fixation	Win	True
248.574	0.23	Win2	0.6154	0.004	Yes	3.072	-0.004	2.0	GoodResponse	1	0.205	247.779	2	25	Target	Win	True
248.779	0.3	Win2	0.6154	0.004	Yes	3.072	-0.004	2.0	GoodResponse	1	0.205	n/a	2	25	ButtonPress	Win	True
248.808	0.47	Win2	0.6154	n/a	Yes	3.072	n/a	n/a	GoodResponse	1	n/a	n/a	2	25	Blank	Win	True
249.276	1.45	Win2	0.6154	n/a	Yes	3.072	n/a	5.0	GoodResponse	1	0.012	248.288	2	25	Feedback	Win	True
250.73	3.072	Win2	0.6154	n/a	Yes	3.072	n/a	n/a	GoodResponse	1	0.0	n/a	2	25	ISIslide	Win	True
253.823	0.25	Win2	0.6296	0.0	Yes	2.927	0.023	n/a	GoodResponse	1	n/a	n/a	3	26	Cue	Win	True
254.073	3.95	Win2	0.6296	0.001	Yes	2.927	0.0	n/a	GoodResponse	1	n/a	n/a	3	26	Fixation	Win	True
258.019	0.24	Win2	0.6296	0.004	Yes	2.927	-0.004	2.0	GoodResponse	1	0.222	257.241	3	26	Target	Win	True
258.241	0.3	Win2	0.6296	0.004	Yes	2.927	-0.004	2.0	GoodResponse	1	0.222	n/a	3	26	ButtonPress	Win	True
258.269	0.46	Win2	0.6296	n/a	Yes	2.927	n/a	n/a	GoodResponse	1	n/a	n/a	3	26	Blank	Win	True
258.721	1.45	Win2	0.6296	n/a	Yes	2.927	n/a	5.0	GoodResponse	1	0.03	257.751	3	26	Feedback	Win	True
260.175	2.927	Win2	0.6296	n/a	Yes	2.927	n/a	n/a	GoodResponse	1	0.0	n/a	3	26	ISIslide	Win	True
263.117	0.25	Lose2	0.6429	0.0	Yes	2.833	0.017	n/a	GoodResponse	0	n/a	n/a	3	27	Cue	AvoidedLoss	True
263.368	4.05	Lose2	0.6429	0.0	Yes	2.833	0.001	n/a	GoodResponse	0	n/a	n/a	3	27	Fixation	AvoidedLoss	True
267.413	0.25	Lose2	0.6429	0.004	Yes	2.833	-0.004	2.0	GoodResponse	0	0.214	266.627	3	27	Target	AvoidedLoss	True
267.627	0.3	Lose2	0.6429	0.004	Yes	2.833	-0.004	2.0	GoodResponse	0	0.214	n/a	3	27	ButtonPress	AvoidedLoss	True
267.664	0.45	Lose2	0.6429	n/a	Yes	2.833	n/a	n/a	GoodResponse	0	n/a	n/a	3	27	Blank	AvoidedLoss	True
268.115	1.45	Lose2	0.6429	n/a	Yes	2.833	n/a	5.0	GoodResponse	0	0.002	267.117	3	27	Feedback	AvoidedLoss	True
269.57	2.833	Lose2	0.6429	n/a	Yes	2.833	n/a	n/a	GoodResponse	0	0.0	n/a	3	27	ISIslide	AvoidedLoss	True
272.428	0.25	Control	0.6552	0.0	Yes	2.822	0.028	n/a	GoodResponse	0	n/a	n/a	3	28	Cue	Neutral	True
272.679	4.05	Control	0.6552	0.0	Yes	2.822	0.001	n/a	GoodResponse	0	n/a	n/a	3	28	Fixation	Neutral	True
276.724	0.26	Control	0.6552	0.004	Yes	2.822	-0.004	2.0	GoodResponse	0	0.235	275.959	3	28	Target	Neutral	True
276.959	0.3	Control	0.6552	0.004	Yes	2.822	-0.004	2.0	GoodResponse	0	0.235	n/a	3	28	ButtonPress	Neutral	True
276.992	0.44	Control	0.6552	n/a	Yes	2.822	n/a	n/a	GoodResponse	0	n/a	n/a	3	28	Blank	Neutral	True
277.427	1.45	Control	0.6552	n/a	Yes	2.822	n/a	5.0	GoodResponse	0	0.008	276.435	3	28	Feedback	Neutral	True
278.881	2.822	Control	0.6552	n/a	Yes	2.822	n/a	n/a	GoodResponse	0	0.0	n/a	3	28	ISIslide	Neutral	True
281.723	0.25	Lose2	0.6333	0.0	No	2.827	0.023	n/a	NoResponse	-1	n/a	n/a	2	29	Cue	Loss	True
281.973	3.95	Lose2	0.6333	0.001	No	2.827	0.0	2.0	NoResponse	-1	3.622	284.595	2	29	Fixation	Loss	True
285.595	0.3	Lose2	0.6333	0.001	No	2.827	0.0	2.0	NoResponse	-1	3.622	n/a	2	29	ButtonPress	Loss	True
285.919	0.26	Lose2	0.6333	0.004	No	2.827	-0.004	n/a	NoResponse	-1	n/a	n/a	2	29	Target	Loss	True
286.186	0.44	Lose2	0.6333	n/a	No	2.827	n/a	n/a	NoResponse	-1	n/a	n/a	2	29	Blank	Loss	True
286.621	1.45	Lose2	0.6333	n/a	No	2.827	n/a	5.0	NoResponse	-1	0.032	285.653	2	29	Feedback	Loss	True
288.075	2.827	Lose2	0.6333	n/a	No	2.827	n/a	n/a	NoResponse	-1	0.0	n/a	2	29	ISIslide	Loss	True
290.917	0.25	Win2	0.6452	0.0	Yes	2.783	0.017	n/a	GoodResponse	1	n/a	n/a	3	30	Cue	Win	True
291.168	3.9	Win2	0.6452	0.0	Yes	2.783	0.001	n/a	GoodResponse	1	n/a	n/a	3	30	Fixation	Win	True
295.063	0.27	Win2	0.6452	0.004	Yes	2.783	-0.004	2.0	GoodResponse	1	0.223	294.286	3	30	Target	Win	True
295.286	0.3	Win2	0.6452	0.004	Yes	2.783	-0.004	2.0	GoodResponse	1	0.223	n/a	3	30	ButtonPress	Win	True
295.347	0.43	Win2	0.6452	n/a	Yes	2.783	n/a	n/a	GoodResponse	1	n/a	n/a	3	30	Blank	Win	True
295.765	1.45	Win2	0.6452	n/a	Yes	2.783	n/a	5.0	GoodResponse	1	0.01	294.775	3	30	Feedback	Win	True
297.219	2.783	Win2	0.6452	n/a	Yes	2.783	n/a	n/a	GoodResponse	1	0.0	n/a	3	30	ISIslide	Win	True
300.027	0.25	Lose2	0.6562	0.0	Yes	2.823	0.027	n/a	GoodResponse	0	n/a	n/a	3	31	Cue	AvoidedLoss	True
300.278	4.05	Lose2	0.6562	0.0	Yes	2.823	0.001	n/a	GoodResponse	0	n/a	n/a	3	31	Fixation	AvoidedLoss	True
304.324	0.28	Lose2	0.6562	0.003	Yes	2.823	-0.003	2.0	GoodResponse	0	0.213	303.537	3	31	Target	AvoidedLoss	True
304.537	0.3	Lose2	0.6562	0.003	Yes	2.823	-0.003	2.0	GoodResponse	0	0.213	n/a	3	31	ButtonPress	AvoidedLoss	True
304.608	0.42	Lose2	0.6562	n/a	Yes	2.823	n/a	n/a	GoodResponse	0	n/a	n/a	3	31	Blank	AvoidedLoss	True
305.026	1.45	Lose2	0.6562	n/a	Yes	2.823	n/a	5.0	GoodResponse	0	0.018	304.044	3	31	Feedback	AvoidedLoss	True
306.48	2.823	Lose2	0.6562	n/a	Yes	2.823	n/a	n/a	GoodResponse	0	0.0	n/a	3	31	ISIslide	AvoidedLoss	True
309.322	0.25	Lose2	0.6667000000000001	0.0	Yes	2.628	0.022	n/a	GoodResponse	0	n/a	n/a	3	32	Cue	AvoidedLoss	True
309.573	4.15	Lose2	0.6667000000000001	0.0	Yes	2.628	0.001	n/a	GoodResponse	0	n/a	n/a	3	32	Fixation	AvoidedLoss	True
313.718	0.28	Lose2	0.6667000000000001	0.004	Yes	2.628	-0.004	2.0	GoodResponse	0	0.219	312.937	3	32	Target	AvoidedLoss	True
313.937	0.3	Lose2	0.6667000000000001	0.004	Yes	2.628	-0.004	2.0	GoodResponse	0	0.219	n/a	3	32	ButtonPress	AvoidedLoss	True
314.002	0.42	Lose2	0.6667000000000001	n/a	Yes	2.628	n/a	n/a	GoodResponse	0	n/a	n/a	3	32	Blank	AvoidedLoss	True
314.42	1.45	Lose2	0.6667000000000001	n/a	Yes	2.628	n/a	5.0	GoodResponse	0	0.038	313.458	3	32	Feedback	AvoidedLoss	True
315.875	2.628	Lose2	0.6667000000000001	n/a	Yes	2.628	n/a	n/a	GoodResponse	0	0.0	n/a	3	32	ISIslide	AvoidedLoss	True
318.516	0.25	Win2	0.6470999999999999	0.0	No	2.684	0.016	n/a	NoResponse	0	n/a	n/a	3	33	Cue	MissedWin	True
318.767	4.0	Win2	0.6470999999999999	0.0	No	2.684	0.001	n/a	NoResponse	0	n/a	n/a	3	33	Fixation	MissedWin	True
322.762	0.27	Win2	0.6470999999999999	0.004	No	2.684	-0.004	2.0	NoResponse	0	0.296	322.058	3	33	Target	MissedWin	True
323.046	0.43	Win2	0.6470999999999999	n/a	No	2.684	n/a	n/a	NoResponse	0	n/a	n/a	3	33	Blank	MissedWin	True
323.058	0.3	Win2	0.6470999999999999	0.004	No	2.684	-0.004	2.0	NoResponse	0	0.296	n/a	3	33	ButtonPress	MissedWin	True
323.464	1.45	Win2	0.6470999999999999	n/a	No	2.684	n/a	5.0	NoResponse	0	0.018	322.482	3	33	Feedback	MissedWin	True
324.918	2.684	Win2	0.6470999999999999	n/a	No	2.684	n/a	n/a	NoResponse	0	0.0	n/a	3	33	ISIslide	MissedWin	True
327.626	0.25	Lose2	0.6286	0.001	No	2.624	0.026	n/a	PrematurePress	-1	n/a	n/a	2	34	Cue	Loss	True
327.877	4.05	Lose2	0.6286	0.0	No	2.624	0.001	n/a	PrematurePress	-1	n/a	n/a	2	34	Fixation	Loss	True
331.923	0.28	Lose2	0.6286	0.003	No	2.624	-0.003	2.0	PrematurePress	-1	0.064	330.987	2	34	Target	Loss	True
331.987	0.3	Lose2	0.6286	0.003	No	2.624	-0.003	2.0	PrematurePress	-1	0.064	n/a	2	34	ButtonPress	Loss	True
332.207	0.42	Lose2	0.6286	n/a	No	2.624	n/a	n/a	PrematurePress	-1	n/a	n/a	2	34	Blank	Loss	True
332.625	1.45	Lose2	0.6286	n/a	No	2.624	n/a	5.0	PrematurePress	-1	0.028	331.653	2	34	Feedback	Loss	True
334.079	2.624	Lose2	0.6286	n/a	No	2.624	n/a	n/a	PrematurePress	-1	0.0	n/a	2	34	ISIslide	Loss	True
336.72	0.25	Lose2	0.6389	0.0	Yes	2.68	0.02	n/a	GoodResponse	0	n/a	n/a	2	35	Cue	AvoidedLoss	True
336.971	4.0	Lose2	0.6389	0.0	Yes	2.68	0.001	n/a	GoodResponse	0	n/a	n/a	2	35	Fixation	AvoidedLoss	True
340.966	0.29	Lose2	0.6389	0.004	Yes	2.68	-0.004	2.0	GoodResponse	0	0.237	340.203	2	35	Target	AvoidedLoss	True
341.203	0.3	Lose2	0.6389	0.004	Yes	2.68	-0.004	2.0	GoodResponse	0	0.237	n/a	2	35	ButtonPress	AvoidedLoss	True
341.267	0.41	Lose2	0.6389	n/a	Yes	2.68	n/a	n/a	GoodResponse	0	n/a	n/a	2	35	Blank	AvoidedLoss	True
341.668	1.45	Lose2	0.6389	n/a	Yes	2.68	n/a	5.0	GoodResponse	0	0.009	340.677	2	35	Feedback	AvoidedLoss	True
343.123	2.68	Lose2	0.6389	n/a	Yes	2.68	n/a	n/a	GoodResponse	0	0.0	n/a	2	35	ISIslide	AvoidedLoss	True
345.814	0.25	Control	0.6486	0.0	Yes	2.686	0.014	n/a	GoodResponse	0	n/a	n/a	2	36	Cue	Neutral	True
346.065	4.0	Control	0.6486	0.0	Yes	2.686	0.001	n/a	GoodResponse	0	n/a	n/a	2	36	Fixation	Neutral	True
350.06	0.3	Control	0.6486	0.004	Yes	2.686	-0.004	2.0	GoodResponse	0	0.113	349.173	2	36	Target	Neutral	True
350.173	0.3	Control	0.6486	0.004	Yes	2.686	-0.004	2.0	GoodResponse	0	0.113	n/a	2	36	ButtonPress	Neutral	True
350.361	0.4	Control	0.6486	n/a	Yes	2.686	n/a	n/a	GoodResponse	0	n/a	n/a	2	36	Blank	Neutral	True
350.762	1.45	Control	0.6486	n/a	Yes	2.686	n/a	5.0	GoodResponse	0	0.037	349.799	2	36	Feedback	Neutral	True
352.217	2.686	Control	0.6486	n/a	Yes	2.686	n/a	n/a	GoodResponse	0	0.0	n/a	2	36	ISIslide	Neutral	True
354.925	0.25	Win2	0.6579	0.0	Yes	2.875	0.025	n/a	GoodResponse	1	n/a	n/a	3	37	Cue	Win	True
355.175	4.0	Win2	0.6579	0.0	Yes	2.875	0.0	n/a	GoodResponse	1	n/a	n/a	3	37	Fixation	Win	True
359.171	0.31	Win2	0.6579	0.004	Yes	2.875	-0.004	2.0	GoodResponse	1	0.243	358.414	3	37	Target	Win	True
359.414	0.3	Win2	0.6579	0.004	Yes	2.875	-0.004	2.0	GoodResponse	1	0.243	n/a	3	37	ButtonPress	Win	True
359.488	0.39	Win2	0.6579	n/a	Yes	2.875	n/a	n/a	GoodResponse	1	n/a	n/a	3	37	Blank	Win	True
359.873	1.45	Win2	0.6579	n/a	Yes	2.875	n/a	5.0	GoodResponse	1	0.047	358.92	3	37	Feedback	Win	True
361.327	2.875	Win2	0.6579	n/a	Yes	2.875	n/a	n/a	GoodResponse	1	0.0	n/a	3	37	ISIslide	Win	True
364.219	0.25	Lose2	0.6667000000000001	0.0	Yes	2.831	0.019	n/a	GoodResponse	0	n/a	n/a	3	38	Cue	AvoidedLoss	True
364.47	3.95	Lose2	0.6667000000000001	0.0	Yes	2.831	0.001	n/a	GoodResponse	0	n/a	n/a	3	38	Fixation	AvoidedLoss	True
368.415	0.31	Lose2	0.6667000000000001	0.004	Yes	2.831	-0.004	2.0	GoodResponse	0	0.203	367.618	3	38	Target	AvoidedLoss	True
368.618	0.3	Lose2	0.6667000000000001	0.004	Yes	2.831	-0.004	2.0	GoodResponse	0	0.203	n/a	3	38	ButtonPress	AvoidedLoss	True
368.733	0.39	Lose2	0.6667000000000001	n/a	Yes	2.831	n/a	n/a	GoodResponse	0	n/a	n/a	3	38	Blank	AvoidedLoss	True
369.117	1.45	Lose2	0.6667000000000001	n/a	Yes	2.831	n/a	5.0	GoodResponse	0	0.023	368.14	3	38	Feedback	AvoidedLoss	True
370.571	2.831	Lose2	0.6667000000000001	n/a	Yes	2.831	n/a	n/a	GoodResponse	0	0.0	n/a	3	38	ISIslide	AvoidedLoss	True
373.43	0.25	Win2	0.675	0.0	Yes	2.97	0.03	n/a	GoodResponse	1	n/a	n/a	4	39	Cue	Win	True
373.681	4.1	Win2	0.675	0.0	Yes	2.97	0.001	n/a	GoodResponse	1	n/a	n/a	4	39	Fixation	Win	True
377.776	0.3	Win2	0.675	0.004	Yes	2.97	-0.004	2.0	GoodResponse	1	0.208	376.984	4	39	Target	Win	True
377.984	0.3	Win2	0.675	0.004	Yes	2.97	-0.004	2.0	GoodResponse	1	0.208	n/a	4	39	ButtonPress	Win	True
378.077	0.4	Win2	0.675	n/a	Yes	2.97	n/a	n/a	GoodResponse	1	n/a	n/a	4	39	Blank	Win	True
378.478	1.45	Win2	0.675	n/a	Yes	2.97	n/a	5.0	GoodResponse	1	0.028	377.506	4	39	Feedback	Win	True
379.933	2.97	Win2	0.675	n/a	Yes	2.97	n/a	n/a	GoodResponse	1	0.0	n/a	4	39	ISIslide	Win	True
382.925	0.25	Win2	0.6829000000000001	0.0	Yes	2.725	0.025	n/a	GoodResponse	1	n/a	n/a	5	40	Cue	Win	True
383.176	3.95	Win2	0.6829000000000001	0.0	Yes	2.725	0.001	n/a	GoodResponse	1	n/a	n/a	5	40	Fixation	Win	True
387.121	0.29	Win2	0.6829000000000001	0.004	Yes	2.725	-0.004	2.0	GoodResponse	1	0.236	386.357	5	40	Target	Win	True
387.357	0.3	Win2	0.6829000000000001	0.004	Yes	2.725	-0.004	2.0	GoodResponse	1	0.236	n/a	5	40	ButtonPress	Win	True
387.422	0.41	Win2	0.6829000000000001	n/a	Yes	2.725	n/a	n/a	GoodResponse	1	n/a	n/a	5	40	Blank	Win	True
387.823	1.45	Win2	0.6829000000000001	n/a	Yes	2.725	n/a	5.0	GoodResponse	1	0.049	386.872	5	40	Feedback	Win	True
389.277	2.725	Win2	0.6829000000000001	n/a	Yes	2.725	n/a	n/a	GoodResponse	1	0.0	n/a	5	40	ISIslide	Win	True
392.019	0.25	Win2	0.6905	0.0	Yes	2.781	0.019	n/a	GoodResponse	1	n/a	n/a	6	41	Cue	Win	True
392.27	3.9	Win2	0.6905	0.0	Yes	2.781	0.001	n/a	GoodResponse	1	n/a	n/a	6	41	Fixation	Win	True
396.164	0.28	Win2	0.6905	0.005	Yes	2.781	-0.005	2.0	GoodResponse	1	0.225	395.389	6	41	Target	Win	True
396.389	0.3	Win2	0.6905	0.005	Yes	2.781	-0.005	2.0	GoodResponse	1	0.225	n/a	6	41	ButtonPress	Win	True
396.449	0.42	Win2	0.6905	n/a	Yes	2.781	n/a	n/a	GoodResponse	1	n/a	n/a	6	41	Blank	Win	True
396.867	1.45	Win2	0.6905	n/a	Yes	2.781	n/a	5.0	GoodResponse	1	0.028	395.895	6	41	Feedback	Win	True
398.321	2.781	Win2	0.6905	n/a	Yes	2.781	n/a	n/a	GoodResponse	1	0.0	n/a	6	41	ISIslide	Win	True
401.129	0.25	Control	0.6977	0.0	Yes	2.921	0.029	n/a	GoodResponse	0	n/a	n/a	6	42	Cue	Neutral	True
401.38	3.85	Control	0.6977	0.0	Yes	2.921	0.001	n/a	GoodResponse	0	n/a	n/a	6	42	Fixation	Neutral	True
405.225	0.27	Control	0.6977	0.004	Yes	2.921	-0.004	2.0	GoodResponse	0	0.217	404.442	6	42	Target	Neutral	True
405.442	0.3	Control	0.6977	0.004	Yes	2.921	-0.004	2.0	GoodResponse	0	0.217	n/a	6	42	ButtonPress	Neutral	True
405.509	0.43	Control	0.6977	n/a	Yes	2.921	n/a	n/a	GoodResponse	0	n/a	n/a	6	42	Blank	Neutral	True
405.927	1.45	Control	0.6977	n/a	Yes	2.921	n/a	5.0	GoodResponse	0	0.041	404.968	6	42	Feedback	Neutral	True
407.381	2.921	Control	0.6977	n/a	Yes	2.921	n/a	n/a	GoodResponse	0	0.0	n/a	6	42	ISIslide	Neutral	True
410.323	0.25	Win2	0.7045	0.001	Yes	3.177	0.023	n/a	GoodResponse	1	n/a	n/a	7	43	Cue	Win	True
410.574	4.0	Win2	0.7045	0.0	Yes	3.177	0.001	n/a	GoodResponse	1	n/a	n/a	7	43	Fixation	Win	True
414.569	0.26	Win2	0.7045	0.004	Yes	3.177	-0.004	2.0	GoodResponse	1	0.201	413.77	7	43	Target	Win	True
414.77	0.3	Win2	0.7045	0.004	Yes	3.177	-0.004	2.0	GoodResponse	1	0.201	n/a	7	43	ButtonPress	Win	True
414.837	0.44	Win2	0.7045	n/a	Yes	3.177	n/a	n/a	GoodResponse	1	n/a	n/a	7	43	Blank	Win	True
415.272	1.45	Win2	0.7045	n/a	Yes	3.177	n/a	5.0	GoodResponse	1	0.014	414.286	7	43	Feedback	Win	True
416.726	3.177	Win2	0.7045	n/a	Yes	3.177	n/a	n/a	GoodResponse	1	0.0	n/a	7	43	ISIslide	Win	True
419.919	0.25	Win2	0.7111	0.0	Yes	2.981	0.019	n/a	GoodResponse	1	n/a	n/a	8	44	Cue	Win	True
420.169	4.0	Win2	0.7111	0.001	Yes	2.981	0.0	n/a	GoodResponse	1	n/a	n/a	8	44	Fixation	Win	True
424.165	0.25	Win2	0.7111	0.004	Yes	2.981	-0.004	2.0	GoodResponse	1	0.156	423.321	8	44	Target	Win	True
424.321	0.3	Win2	0.7111	0.004	Yes	2.981	-0.004	2.0	GoodResponse	1	0.156	n/a	8	44	ButtonPress	Win	True
424.416	0.45	Win2	0.7111	n/a	Yes	2.981	n/a	n/a	GoodResponse	1	n/a	n/a	8	44	Blank	Win	True
424.867	1.45	Win2	0.7111	n/a	Yes	2.981	n/a	5.0	GoodResponse	1	0.028	423.895	8	44	Feedback	Win	True
426.321	2.981	Win2	0.7111	n/a	Yes	2.981	n/a	n/a	GoodResponse	1	0.0	n/a	8	44	ISIslide	Win	True
429.33	0.25	Control	0.6957	0.0	No	2.87	0.03	n/a	NoResponse	0	n/a	n/a	8	45	Cue	Neutral	True
429.581	4.1	Control	0.6957	0.0	No	2.87	0.001	2.0	NoResponse	0	4.043	432.624	8	45	Fixation	Neutral	True
433.624	0.3	Control	0.6957	0.0	No	2.87	0.001	2.0	NoResponse	0	4.043	n/a	8	45	ButtonPress	Neutral	True
433.677	0.24	Control	0.6957	0.003	No	2.87	-0.003	n/a	NoResponse	0	n/a	n/a	8	45	Target	Neutral	True
433.927	0.46	Control	0.6957	n/a	No	2.87	n/a	n/a	NoResponse	0	n/a	n/a	8	45	Blank	Neutral	True
434.379	1.45	Control	0.6957	n/a	No	2.87	n/a	5.0	NoResponse	0	0.028	433.407	8	45	Feedback	Neutral	True
435.833	2.87	Control	0.6957	n/a	No	2.87	n/a	n/a	NoResponse	0	0.0	n/a	8	45	ISIslide	Neutral	True
438.725	0.25	Lose2	0.6809000000000001	0.0	No	3.375	0.025	n/a	NoResponse	-1	n/a	n/a	7	46	Cue	Loss	True
438.976	4.0	Lose2	0.6809000000000001	0.0	No	3.375	0.001	2.0	NoResponse	-1	3.069	441.045	7	46	Fixation	Loss	True
442.045	0.3	Lose2	0.6809000000000001	0.0	No	3.375	0.001	2.0	NoResponse	-1	3.069	n/a	7	46	ButtonPress	Loss	True
442.971	0.23	Lose2	0.6809000000000001	0.004	No	3.375	-0.004	n/a	NoResponse	-1	n/a	n/a	7	46	Target	Loss	True
443.205	0.47	Lose2	0.6809000000000001	n/a	No	3.375	n/a	n/a	NoResponse	-1	n/a	n/a	7	46	Blank	Loss	True
443.673	1.45	Lose2	0.6809000000000001	n/a	No	3.375	n/a	5.0	NoResponse	-1	0.002	442.675	7	46	Feedback	Loss	True
445.127	3.375	Lose2	0.6809000000000001	n/a	No	3.375	n/a	n/a	NoResponse	-1	0.0	n/a	7	46	ISIslide	Loss	True
448.521	0.25	Lose2	0.6875	0.0	Yes	2.679	0.021	n/a	GoodResponse	0	n/a	n/a	7	47	Cue	AvoidedLoss	True
448.772	4.0	Lose2	0.6875	0.0	Yes	2.679	0.001	n/a	GoodResponse	0	n/a	n/a	7	47	Fixation	AvoidedLoss	True
452.767	0.22	Lose2	0.6875	0.004	Yes	2.679	-0.004	2.0	GoodResponse	0	0.211	451.978	7	47	Target	AvoidedLoss	True
452.978	0.3	Lose2	0.6875	0.004	Yes	2.679	-0.004	2.0	GoodResponse	0	0.211	n/a	7	47	ButtonPress	AvoidedLoss	True
453.001	0.48	Lose2	0.6875	n/a	Yes	2.679	n/a	n/a	GoodResponse	0	n/a	n/a	7	47	Blank	AvoidedLoss	True
453.469	1.45	Lose2	0.6875	n/a	Yes	2.679	n/a	5.0	GoodResponse	0	0.011	452.48	7	47	Feedback	AvoidedLoss	True
454.923	2.679	Lose2	0.6875	n/a	Yes	2.679	n/a	n/a	GoodResponse	0	0.0	n/a	7	47	ISIslide	AvoidedLoss	True
457.615	0.25	Lose2	0.6939	0.0	Yes	3.035	0.015	n/a	GoodResponse	0	n/a	n/a	7	48	Cue	AvoidedLoss	True
457.865	3.95	Lose2	0.6939	0.0	Yes	3.035	0.0	n/a	GoodResponse	0	n/a	n/a	7	48	Fixation	AvoidedLoss	True
461.811	0.21	Lose2	0.6939	0.004	Yes	3.035	-0.004	2.0	GoodResponse	0	0.199	461.01	7	48	Target	AvoidedLoss	True
462.01	0.3	Lose2	0.6939	0.004	Yes	3.035	-0.004	2.0	GoodResponse	0	0.199	n/a	7	48	ButtonPress	AvoidedLoss	True
462.028	0.49	Lose2	0.6939	n/a	Yes	3.035	n/a	n/a	GoodResponse	0	n/a	n/a	7	48	Blank	AvoidedLoss	True
462.513	1.45	Lose2	0.6939	n/a	Yes	3.035	n/a	5.0	GoodResponse	0	0.04	461.553	7	48	Feedback	AvoidedLoss	True
463.967	3.035	Lose2	0.6939	n/a	Yes	3.035	n/a	n/a	GoodResponse	0	0.0	n/a	7	48	ISIslide	AvoidedLoss	True
467.026	0.25	Control	0.68	0.0	No	2.874	0.026	n/a	NoResponse	0	n/a	n/a	7	49	Cue	Neutral	True
467.277	4.0	Control	0.68	0.0	No	2.874	0.001	n/a	NoResponse	0	n/a	n/a	7	49	Fixation	Neutral	True
471.272	0.2	Control	0.68	0.004	No	2.874	-0.004	2.0	NoResponse	0	0.253	470.525	7	49	Target	Neutral	True
471.473	0.5	Control	0.68	n/a	No	2.874	n/a	n/a	NoResponse	0	n/a	n/a	7	49	Blank	Neutral	True
471.525	0.3	Control	0.68	0.004	No	2.874	-0.004	2.0	NoResponse	0	0.253	n/a	7	49	ButtonPress	Neutral	True
471.974	1.45	Control	0.68	n/a	No	2.874	n/a	5.0	NoResponse	0	0.042	471.016	7	49	Feedback	Neutral	True
473.429	2.874	Control	0.68	n/a	No	2.874	n/a	n/a	NoResponse	0	0.0	n/a	7	49	ISIslide	Neutral	True
476.321	0.25	Control	0.6667000000000001	0.0	No	2.779	0.021	n/a	NoResponse	0	n/a	n/a	7	50	Cue	Neutral	True
476.571	4.0	Control	0.6667000000000001	0.0	No	2.779	0.0	n/a	NoResponse	0	n/a	n/a	7	50	Fixation	Neutral	True
480.567	0.19	Control	0.6667000000000001	0.004	No	2.779	-0.004	2.0	NoResponse	0	0.212	479.779	7	50	Target	Neutral	True
480.767	0.51	Control	0.6667000000000001	n/a	No	2.779	n/a	n/a	NoResponse	0	n/a	n/a	7	50	Blank	Neutral	True
480.779	0.3	Control	0.6667000000000001	0.004	No	2.779	-0.004	2.0	NoResponse	0	0.212	n/a	7	50	ButtonPress	Neutral	True
481.269	1.45	Control	0.6667000000000001	n/a	No	2.779	n/a	5.0	NoResponse	0	0.015	480.284	7	50	Feedback	Neutral	True
482.723	2.779	Control	0.6667000000000001	n/a	No	2.779	n/a	n/a	NoResponse	0	0.0	n/a	7	50	ISIslide	Neutral	True
485.515	0.25	Control	0.6537999999999999	0.0	No	2.735	0.015	n/a	NoResponse	0	n/a	n/a	7	51	Cue	Neutral	True
485.765	3.95	Control	0.6537999999999999	0.0	No	2.735	0.0	n/a	NoResponse	0	n/a	n/a	7	51	Fixation	Neutral	True
489.711	0.18	Control	0.6537999999999999	0.004	No	2.735	-0.004	2.0	NoResponse	0	0.184	488.895	7	51	Target	Neutral	True
489.894	0.52	Control	0.6537999999999999	n/a	No	2.735	n/a	n/a	NoResponse	0	n/a	n/a	7	51	Blank	Neutral	True
489.895	0.3	Control	0.6537999999999999	0.004	No	2.735	-0.004	2.0	NoResponse	0	0.184	n/a	7	51	ButtonPress	Neutral	True
490.413	1.45	Control	0.6537999999999999	n/a	No	2.735	n/a	5.0	NoResponse	0	0.042	489.455	7	51	Feedback	Neutral	True
491.867	2.735	Control	0.6537999999999999	n/a	No	2.735	n/a	n/a	NoResponse	0	0.0	n/a	7	51	ISIslide	Neutral	True
494.625	0.25	Control	0.6415000000000001	0.0	No	2.625	0.025	n/a	NoResponse	0	n/a	n/a	7	52	Cue	Neutral	True
494.876	4.05	Control	0.6415000000000001	0.0	No	2.625	0.001	2.0	NoResponse	0	3.619	497.495	7	52	Fixation	Neutral	True
498.495	0.3	Control	0.6415000000000001	0.0	No	2.625	0.001	2.0	NoResponse	0	3.619	n/a	7	52	ButtonPress	Neutral	True
498.921	0.19	Control	0.6415000000000001	0.004	No	2.625	-0.004	n/a	NoResponse	0	n/a	n/a	7	52	Target	Neutral	True
499.122	0.51	Control	0.6415000000000001	n/a	No	2.625	n/a	n/a	NoResponse	0	n/a	n/a	7	52	Blank	Neutral	True
499.623	1.45	Control	0.6415000000000001	n/a	No	2.625	n/a	5.0	NoResponse	0	0.007	498.63	7	52	Feedback	Neutral	True
501.078	2.625	Control	0.6415000000000001	n/a	No	2.625	n/a	n/a	NoResponse	0	0.0	n/a	7	52	ISIslide	Neutral	True
503.719	0.25	Win2	0.6296	0.0	No	2.931	0.019	n/a	NoResponse	0	n/a	n/a	7	53	Cue	MissedWin	True
503.97	4.05	Win2	0.6296	0.0	No	2.931	0.001	n/a	NoResponse	0	n/a	n/a	7	53	Fixation	MissedWin	True
508.015	0.2	Win2	0.6296	0.004	No	2.931	-0.004	2.0	NoResponse	0	0.211	507.226	7	53	Target	MissedWin	True
508.216	0.5	Win2	0.6296	n/a	No	2.931	n/a	n/a	NoResponse	0	n/a	n/a	7	53	Blank	MissedWin	True
508.226	0.3	Win2	0.6296	0.004	No	2.931	-0.004	2.0	NoResponse	0	0.211	n/a	7	53	ButtonPress	MissedWin	True
508.717	1.45	Win2	0.6296	n/a	No	2.931	n/a	5.0	NoResponse	0	0.03	507.747	7	53	Feedback	MissedWin	True
510.172	2.931	Win2	0.6296	n/a	No	2.931	n/a	n/a	NoResponse	0	0.0	n/a	7	53	ISIslide	MissedWin	True
513.13	0.25	Win2	0.6364	0.001	Yes	2.72	0.03	n/a	GoodResponse	1	n/a	n/a	8	54	Cue	Win	True
513.381	3.95	Win2	0.6364	0.0	Yes	2.72	0.001	n/a	GoodResponse	1	n/a	n/a	8	54	Fixation	Win	True
517.326	0.21	Win2	0.6364	0.004	Yes	2.72	-0.004	2.0	GoodResponse	1	0.194	516.52	8	54	Target	Win	True
517.52	0.3	Win2	0.6364	0.004	Yes	2.72	-0.004	2.0	GoodResponse	1	0.194	n/a	8	54	ButtonPress	Win	True
517.544	0.49	Win2	0.6364	n/a	Yes	2.72	n/a	n/a	GoodResponse	1	n/a	n/a	8	54	Blank	Win	True
518.028	1.45	Win2	0.6364	n/a	Yes	2.72	n/a	5.0	GoodResponse	1	0.036	517.064	8	54	Feedback	Win	True
519.483	2.72	Win2	0.6364	n/a	Yes	2.72	n/a	n/a	GoodResponse	1	0.0	n/a	8	54	ISIslide	Win	True
522.224	0.25	Control	0.6429	0.0	Yes	3.026	0.024	n/a	GoodResponse	0	n/a	n/a	8	55	Cue	Neutral	True
522.475	3.95	Control	0.6429	0.0	Yes	3.026	0.001	n/a	GoodResponse	0	n/a	n/a	8	55	Fixation	Neutral	True
526.42	0.22	Control	0.6429	0.004	Yes	3.026	-0.004	2.0	GoodResponse	0	0.206	525.626	8	55	Target	Neutral	True
526.626	0.3	Control	0.6429	0.004	Yes	3.026	-0.004	2.0	GoodResponse	0	0.206	n/a	8	55	ButtonPress	Neutral	True
526.654	0.48	Control	0.6429	n/a	Yes	3.026	n/a	n/a	GoodResponse	0	n/a	n/a	8	55	Blank	Neutral	True
527.122	1.45	Control	0.6429	n/a	Yes	3.026	n/a	5.0	GoodResponse	0	0.015	526.137	8	55	Feedback	Neutral	True
528.577	3.026	Control	0.6429	n/a	Yes	3.026	n/a	n/a	GoodResponse	0	0.0	n/a	8	55	ISIslide	Neutral	True
531.619	0.25	Control	0.6491	0.0	Yes	2.831	0.019	n/a	GoodResponse	0	n/a	n/a	8	56	Cue	Neutral	True
531.87	3.95	Control	0.6491	0.0	Yes	2.831	0.001	n/a	GoodResponse	0	n/a	n/a	8	56	Fixation	Neutral	True
535.815	0.23	Control	0.6491	0.004	Yes	2.831	-0.004	2.0	GoodResponse	0	0.184	534.999	8	56	Target	Neutral	True
535.999	0.3	Control	0.6491	0.004	Yes	2.831	-0.004	2.0	GoodResponse	0	0.184	n/a	8	56	ButtonPress	Neutral	True
536.049	0.47	Control	0.6491	n/a	Yes	2.831	n/a	n/a	GoodResponse	0	n/a	n/a	8	56	Blank	Neutral	True
536.517	1.45	Control	0.6491	n/a	Yes	2.831	n/a	5.0	GoodResponse	0	0.035	535.552	8	56	Feedback	Neutral	True
537.971	2.831	Control	0.6491	n/a	Yes	2.831	n/a	n/a	GoodResponse	0	0.0	n/a	8	56	ISIslide	Neutral	True
540.83	0.25	Control	0.6379	0.0	No	3.47	0.03	n/a	NoResponse	0	n/a	n/a	8	57	Cue	Neutral	True
541.081	4.0	Control	0.6379	0.0	No	3.47	0.001	n/a	NoResponse	0	n/a	n/a	8	57	Fixation	Neutral	True
545.076	0.24	Control	0.6379	0.004	No	3.47	-0.004	2.0	NoResponse	0	0.38	544.456	8	57	Target	Neutral	True
545.327	0.46	Control	0.6379	n/a	No	3.47	n/a	n/a	NoResponse	0	n/a	n/a	8	57	Blank	Neutral	True
545.456	0.3	Control	0.6379	0.004	No	3.47	-0.004	2.0	NoResponse	0	0.38	n/a	8	57	ButtonPress	Neutral	True
545.778	1.45	Control	0.6379	n/a	No	3.47	n/a	5.0	NoResponse	0	0.042	544.82	8	57	Feedback	Neutral	True
547.232	3.47	Control	0.6379	n/a	No	3.47	n/a	n/a	NoResponse	0	0.0	n/a	8	57	ISIslide	Neutral	True
550.726	0.25	Win2	0.6441	0.0	Yes	2.724	0.026	n/a	GoodResponse	1	n/a	n/a	9	58	Cue	Win	True
550.977	4.05	Win2	0.6441	0.0	Yes	2.724	0.001	n/a	GoodResponse	1	n/a	n/a	9	58	Fixation	Win	True
555.022	0.25	Win2	0.6441	0.004	Yes	2.724	-0.004	2.0	GoodResponse	1	0.197	554.219	9	58	Target	Win	True
555.219	0.3	Win2	0.6441	0.004	Yes	2.724	-0.004	2.0	GoodResponse	1	0.197	n/a	9	58	ButtonPress	Win	True
555.273	0.45	Win2	0.6441	n/a	Yes	2.724	n/a	n/a	GoodResponse	1	n/a	n/a	9	58	Blank	Win	True
555.724	1.45	Win2	0.6441	n/a	Yes	2.724	n/a	5.0	GoodResponse	1	0.047	554.771	9	58	Feedback	Win	True
557.179	2.724	Win2	0.6441	n/a	Yes	2.724	n/a	n/a	GoodResponse	1	0.0	n/a	9	58	ISIslide	Win	True
559.92	0.25	Lose2	0.6333	0.0	No	2.68	0.02	n/a	NoResponse	-1	n/a	n/a	8	59	Cue	Loss	True
560.171	4.0	Lose2	0.6333	0.0	No	2.68	0.001	2.0	NoResponse	-1	3.798	562.969	8	59	Fixation	Loss	True
563.969	0.3	Lose2	0.6333	0.0	No	2.68	0.001	2.0	NoResponse	-1	3.798	n/a	8	59	ButtonPress	Loss	True
564.166	0.26	Lose2	0.6333	0.004	No	2.68	-0.004	n/a	NoResponse	-1	n/a	n/a	8	59	Target	Loss	True
564.434	0.44	Lose2	0.6333	n/a	No	2.68	n/a	n/a	NoResponse	-1	n/a	n/a	8	59	Blank	Loss	True
564.868	1.45	Lose2	0.6333	n/a	No	2.68	n/a	5.0	NoResponse	-1	0.025	563.893	8	59	Feedback	Loss	True
566.323	2.68	Lose2	0.6333	n/a	No	2.68	n/a	n/a	NoResponse	-1	0.0	n/a	8	59	ISIslide	Loss	True
569.031	0.25	Control	0.6393	0.0	Yes	2.669	0.031	n/a	GoodResponse	0	n/a	n/a	8	60	Cue	Neutral	True
569.281	4.0	Control	0.6393	0.001	Yes	2.669	0.0	n/a	GoodResponse	0	n/a	n/a	8	60	Fixation	Neutral	True
573.277	0.27	Control	0.6393	0.004	Yes	2.669	-0.004	2.0	GoodResponse	0	0.203	572.48	8	60	Target	Neutral	True
573.48	0.3	Control	0.6393	0.004	Yes	2.669	-0.004	2.0	GoodResponse	0	0.203	n/a	8	60	ButtonPress	Neutral	True
573.561	0.43	Control	0.6393	n/a	Yes	2.669	n/a	n/a	GoodResponse	0	n/a	n/a	8	60	Blank	Neutral	True
573.979	1.45	Control	0.6393	n/a	Yes	2.669	n/a	5.0	GoodResponse	0	0.036	573.015	8	60	Feedback	Neutral	True
575.433	2.669	Control	0.6393	n/a	Yes	2.669	n/a	n/a	GoodResponse	0	0.0	n/a	8	60	ISIslide	Neutral	True
578.125	0.25	Lose2	0.6452	0.0	Yes	2.975	0.025	n/a	GoodResponse	0	n/a	n/a	8	61	Cue	AvoidedLoss	True
578.375	4.0	Lose2	0.6452	0.0	Yes	2.975	0.0	n/a	GoodResponse	0	n/a	n/a	8	61	Fixation	AvoidedLoss	True
582.371	0.28	Lose2	0.6452	0.004	Yes	2.975	-0.004	2.0	GoodResponse	0	0.153	581.524	8	61	Target	AvoidedLoss	True
582.524	0.3	Lose2	0.6452	0.004	Yes	2.975	-0.004	2.0	GoodResponse	0	0.153	n/a	8	61	ButtonPress	AvoidedLoss	True
582.655	0.42	Lose2	0.6452	n/a	Yes	2.975	n/a	n/a	GoodResponse	0	n/a	n/a	8	61	Blank	AvoidedLoss	True
583.073	1.45	Lose2	0.6452	n/a	Yes	2.975	n/a	5.0	GoodResponse	0	0.014	582.087	8	61	Feedback	AvoidedLoss	True
584.527	2.975	Lose2	0.6452	n/a	Yes	2.975	n/a	n/a	GoodResponse	0	0.0	n/a	8	61	ISIslide	AvoidedLoss	True
587.519	0.25	Lose2	0.6507999999999999	0.0	Yes	2.881	0.019	n/a	GoodResponse	0	n/a	n/a	8	62	Cue	AvoidedLoss	True
587.77	3.9	Lose2	0.6507999999999999	0.0	Yes	2.881	0.001	n/a	GoodResponse	0	n/a	n/a	8	62	Fixation	AvoidedLoss	True
591.665	0.29	Lose2	0.6507999999999999	0.004	Yes	2.881	-0.004	2.0	GoodResponse	0	0.124	590.789	8	62	Target	AvoidedLoss	True
591.789	0.3	Lose2	0.6507999999999999	0.004	Yes	2.881	-0.004	2.0	GoodResponse	0	0.124	n/a	8	62	ButtonPress	AvoidedLoss	True
591.966	0.41	Lose2	0.6507999999999999	n/a	Yes	2.881	n/a	n/a	GoodResponse	0	n/a	n/a	8	62	Blank	AvoidedLoss	True
592.367	1.45	Lose2	0.6507999999999999	n/a	Yes	2.881	n/a	5.0	GoodResponse	0	0.037	591.404	8	62	Feedback	AvoidedLoss	True
593.821	2.881	Lose2	0.6507999999999999	n/a	Yes	2.881	n/a	n/a	GoodResponse	0	0.0	n/a	8	62	ISIslide	AvoidedLoss	True
596.73	0.25	Lose2	0.6406000000000001	0.0	No	2.62	0.03	n/a	NoResponse	-1	n/a	n/a	7	63	Cue	Loss	True
596.981	4.05	Lose2	0.6406000000000001	0.0	No	2.62	0.001	2.0	NoResponse	-1	3.637	599.618	7	63	Fixation	Loss	True
600.618	0.3	Lose2	0.6406000000000001	0.0	No	2.62	0.001	2.0	NoResponse	-1	3.637	n/a	7	63	ButtonPress	Loss	True
601.026	0.3	Lose2	0.6406000000000001	0.004	No	2.62	-0.004	n/a	NoResponse	-1	n/a	n/a	7	63	Target	Loss	True
601.327	0.4	Lose2	0.6406000000000001	n/a	No	2.62	n/a	n/a	NoResponse	-1	n/a	n/a	7	63	Blank	Loss	True
601.728	1.45	Lose2	0.6406000000000001	n/a	No	2.62	n/a	5.0	NoResponse	-1	0.042	600.77	7	63	Feedback	Loss	True
603.183	2.62	Lose2	0.6406000000000001	n/a	No	2.62	n/a	n/a	NoResponse	-1	0.0	n/a	7	63	ISIslide	Loss	True
605.824	0.25	Win2	0.6462	0.0	Yes	3.126	0.024	n/a	GoodResponse	1	n/a	n/a	8	64	Cue	Win	True
606.075	4.15	Win2	0.6462	0.0	Yes	3.126	0.001	n/a	GoodResponse	1	n/a	n/a	8	64	Fixation	Win	True
610.22	0.31	Win2	0.6462	0.004	Yes	3.126	-0.004	2.0	GoodResponse	1	0.17	609.39	8	64	Target	Win	True
610.39	0.3	Win2	0.6462	0.004	Yes	3.126	-0.004	2.0	GoodResponse	1	0.17	n/a	8	64	ButtonPress	Win	True
610.538	0.39	Win2	0.6462	n/a	Yes	3.126	n/a	n/a	GoodResponse	1	n/a	n/a	8	64	Blank	Win	True
610.923	1.45	Win2	0.6462	n/a	Yes	3.126	n/a	5.0	GoodResponse	1	0.018	609.941	8	64	Feedback	Win	True
612.377	3.126	Win2	0.6462	n/a	Yes	3.126	n/a	n/a	GoodResponse	1	0.0	n/a	8	64	ISIslide	Win	True
615.52	0.25	Control	0.6515000000000001	0.0	Yes	2.78	0.02	n/a	GoodResponse	0	n/a	n/a	8	65	Cue	Neutral	True
615.77	4.0	Control	0.6515000000000001	0.0	Yes	2.78	0.0	n/a	GoodResponse	0	n/a	n/a	8	65	Fixation	Neutral	True
619.766	0.32	Control	0.6515000000000001	0.004	Yes	2.78	-0.004	2.0	GoodResponse	0	0.192	618.958	8	65	Target	Neutral	True
619.958	0.3	Control	0.6515000000000001	0.004	Yes	2.78	-0.004	2.0	GoodResponse	0	0.192	n/a	8	65	ButtonPress	Neutral	True
620.1	0.38	Control	0.6515000000000001	n/a	Yes	2.78	n/a	n/a	GoodResponse	0	n/a	n/a	8	65	Blank	Neutral	True
620.468	1.45	Control	0.6515000000000001	n/a	Yes	2.78	n/a	5.0	GoodResponse	0	0.033	619.501	8	65	Feedback	Neutral	True
621.922	2.78	Control	0.6515000000000001	n/a	Yes	2.78	n/a	n/a	GoodResponse	0	0.0	n/a	8	65	ISIslide	Neutral	True
624.73	0.25	Win2	0.6567000000000001	0.0	Yes	2.77	0.03	n/a	GoodResponse	1	n/a	n/a	9	66	Cue	Win	True
624.981	3.9	Win2	0.6567000000000001	0.0	Yes	2.77	0.001	n/a	GoodResponse	1	n/a	n/a	9	66	Fixation	Win	True
628.876	0.33	Win2	0.6567000000000001	0.004	Yes	2.77	-0.004	2.0	GoodResponse	1	0.236	628.112	9	66	Target	Win	True
629.112	0.3	Win2	0.6567000000000001	0.004	Yes	2.77	-0.004	2.0	GoodResponse	1	0.236	n/a	9	66	ButtonPress	Win	True
629.21	0.37	Win2	0.6567000000000001	n/a	Yes	2.77	n/a	n/a	GoodResponse	1	n/a	n/a	9	66	Blank	Win	True
629.578	1.45	Win2	0.6567000000000001	n/a	Yes	2.77	n/a	5.0	GoodResponse	1	0.045	628.623	9	66	Feedback	Win	True
631.033	2.77	Win2	0.6567000000000001	n/a	Yes	2.77	n/a	n/a	GoodResponse	1	0.0	n/a	9	66	ISIslide	Win	True
633.824	0.25	Control	0.6618	0.0	Yes	2.726	0.024	n/a	GoodResponse	0	n/a	n/a	9	67	Cue	Neutral	True
634.075	3.95	Control	0.6618	0.0	Yes	2.726	0.001	n/a	GoodResponse	0	n/a	n/a	9	67	Fixation	Neutral	True
638.02	0.33	Control	0.6618	0.004	Yes	2.726	-0.004	2.0	GoodResponse	0	0.204	637.224	9	67	Target	Neutral	True
638.224	0.3	Control	0.6618	0.004	Yes	2.726	-0.004	2.0	GoodResponse	0	0.204	n/a	9	67	ButtonPress	Neutral	True
638.354	0.37	Control	0.6618	n/a	Yes	2.726	n/a	n/a	GoodResponse	0	n/a	n/a	9	67	Blank	Neutral	True
638.722	1.45	Control	0.6618	n/a	Yes	2.726	n/a	5.0	GoodResponse	0	0.023	637.745	9	67	Feedback	Neutral	True
640.177	2.726	Control	0.6618	n/a	Yes	2.726	n/a	n/a	GoodResponse	0	0.0	n/a	9	67	ISIslide	Neutral	True
642.918	0.25	Win2	0.6667000000000001	0.0	Yes	3.082	0.018	n/a	GoodResponse	1	n/a	n/a	10	68	Cue	Win	True
643.169	4.0	Win2	0.6667000000000001	0.0	Yes	3.082	0.001	n/a	GoodResponse	1	n/a	n/a	10	68	Fixation	Win	True
647.164	0.33	Win2	0.6667000000000001	0.004	Yes	3.082	-0.004	2.0	GoodResponse	1	0.259	646.423	10	68	Target	Win	True
647.423	0.3	Win2	0.6667000000000001	0.004	Yes	3.082	-0.004	2.0	GoodResponse	1	0.259	n/a	10	68	ButtonPress	Win	True
647.498	0.37	Win2	0.6667000000000001	n/a	Yes	3.082	n/a	n/a	GoodResponse	1	n/a	n/a	10	68	Blank	Win	True
647.866	1.45	Win2	0.6667000000000001	n/a	Yes	3.082	n/a	5.0	GoodResponse	1	0.001	646.867	10	68	Feedback	Win	True
649.321	3.082	Win2	0.6667000000000001	n/a	Yes	3.082	n/a	n/a	GoodResponse	1	0.0	n/a	10	68	ISIslide	Win	True
652.43	0.25	Win2	0.6714	0.0	Yes	3.22	0.03	n/a	GoodResponse	1	n/a	n/a	11	69	Cue	Win	True
652.681	3.95	Win2	0.6714	0.0	Yes	3.22	0.001	n/a	GoodResponse	1	n/a	n/a	11	69	Fixation	Win	True
656.626	0.32	Win2	0.6714	0.004	Yes	3.22	-0.004	2.0	GoodResponse	1	0.222	655.848	11	69	Target	Win	True
656.848	0.3	Win2	0.6714	0.004	Yes	3.22	-0.004	2.0	GoodResponse	1	0.222	n/a	11	69	ButtonPress	Win	True
656.96	0.38	Win2	0.6714	n/a	Yes	3.22	n/a	n/a	GoodResponse	1	n/a	n/a	11	69	Blank	Win	True
657.328	1.45	Win2	0.6714	n/a	Yes	3.22	n/a	5.0	GoodResponse	1	0.006	656.334	11	69	Feedback	Win	True
658.782	3.22	Win2	0.6714	n/a	Yes	3.22	n/a	n/a	GoodResponse	1	0.0	n/a	11	69	ISIslide	Win	True
662.025	0.25	Lose2	0.6761	0.0	Yes	3.025	0.025	n/a	GoodResponse	0	n/a	n/a	11	70	Cue	AvoidedLoss	True
662.276	4.05	Lose2	0.6761	0.0	Yes	3.025	0.001	n/a	GoodResponse	0	n/a	n/a	11	70	Fixation	AvoidedLoss	True
666.321	0.31	Lose2	0.6761	0.004	Yes	3.025	-0.004	2.0	GoodResponse	0	0.232	665.553	11	70	Target	AvoidedLoss	True
666.553	0.3	Lose2	0.6761	0.004	Yes	3.025	-0.004	2.0	GoodResponse	0	0.232	n/a	11	70	ButtonPress	AvoidedLoss	True
666.639	0.39	Lose2	0.6761	n/a	Yes	3.025	n/a	n/a	GoodResponse	0	n/a	n/a	11	70	Blank	AvoidedLoss	True
667.023	1.45	Lose2	0.6761	n/a	Yes	3.025	n/a	5.0	GoodResponse	0	0.014	666.037	11	70	Feedback	AvoidedLoss	True
668.478	3.025	Lose2	0.6761	n/a	Yes	3.025	n/a	n/a	GoodResponse	0	0.0	n/a	11	70	ISIslide	AvoidedLoss	True
671.52	0.25	Win2	0.6806	0.0	Yes	2.73	0.02	n/a	GoodResponse	1	n/a	n/a	12	71	Cue	Win	True
671.771	4.05	Win2	0.6806	0.0	Yes	2.73	0.001	n/a	GoodResponse	1	n/a	n/a	12	71	Fixation	Win	True
675.816	0.3	Win2	0.6806	0.004	Yes	2.73	-0.004	2.0	GoodResponse	1	0.176	674.992	12	71	Target	Win	True
675.992	0.3	Win2	0.6806	0.004	Yes	2.73	-0.004	2.0	GoodResponse	1	0.176	n/a	12	71	ButtonPress	Win	True
676.117	0.4	Win2	0.6806	n/a	Yes	2.73	n/a	n/a	GoodResponse	1	n/a	n/a	12	71	Blank	Win	True
676.518	1.45	Win2	0.6806	n/a	Yes	2.73	n/a	5.0	GoodResponse	1	0.032	675.55	12	71	Feedback	Win	True
677.973	2.73	Win2	0.6806	n/a	Yes	2.73	n/a	n/a	GoodResponse	1	0.0	n/a	12	71	ISIslide	Win	True
680.731	0.25	Win2	0.6849	0.0	Yes	2.769	0.031	n/a	GoodResponse	1	n/a	n/a	13	72	Cue	Win	True
680.982	4.1	Win2	0.6849	0.0	Yes	2.769	0.001	n/a	GoodResponse	1	n/a	n/a	13	72	Fixation	Win	True
685.077	0.29	Win2	0.6849	0.004	Yes	2.769	-0.004	2.0	GoodResponse	1	0.242	684.319	13	72	Target	Win	True
685.319	0.3	Win2	0.6849	0.004	Yes	2.769	-0.004	2.0	GoodResponse	1	0.242	n/a	13	72	ButtonPress	Win	True
685.378	0.41	Win2	0.6849	n/a	Yes	2.769	n/a	n/a	GoodResponse	1	n/a	n/a	13	72	Blank	Win	True
685.779	1.45	Win2	0.6849	n/a	Yes	2.769	n/a	5.0	GoodResponse	1	0.039	684.818	13	72	Feedback	Win	True
687.234	2.769	Win2	0.6849	n/a	Yes	2.769	n/a	n/a	GoodResponse	1	0.0	n/a	13	72	ISIslide	Win	True
690.025	0.25	Win2	0.6892	0.001	Yes	2.675	0.025	n/a	GoodResponse	1	n/a	n/a	14	73	Cue	Win	True
690.276	4.0	Win2	0.6892	0.0	Yes	2.675	0.001	n/a	GoodResponse	1	n/a	n/a	14	73	Fixation	Win	True
694.271	0.28	Win2	0.6892	0.004	Yes	2.675	-0.004	2.0	GoodResponse	1	0.272	693.543	14	73	Target	Win	True
694.543	0.3	Win2	0.6892	0.004	Yes	2.675	-0.004	2.0	GoodResponse	1	0.272	n/a	14	73	ButtonPress	Win	True
694.556	0.42	Win2	0.6892	n/a	Yes	2.675	n/a	n/a	GoodResponse	1	n/a	n/a	14	73	Blank	Win	True
694.974	1.45	Win2	0.6892	n/a	Yes	2.675	n/a	5.0	GoodResponse	1	0.014	693.988	14	73	Feedback	Win	True
696.428	2.675	Win2	0.6892	n/a	Yes	2.675	n/a	n/a	GoodResponse	1	0.0	n/a	14	73	ISIslide	Win	True
699.119	0.25	Lose2	0.6933	0.0	Yes	2.631	0.019	n/a	GoodResponse	0	n/a	n/a	14	74	Cue	AvoidedLoss	True
699.37	4.05	Lose2	0.6933	0.0	Yes	2.631	0.001	n/a	GoodResponse	0	n/a	n/a	14	74	Fixation	AvoidedLoss	True
703.415	0.27	Lose2	0.6933	0.004	Yes	2.631	-0.004	2.0	GoodResponse	0	0.189	702.604	14	74	Target	AvoidedLoss	True
703.604	0.3	Lose2	0.6933	0.004	Yes	2.631	-0.004	2.0	GoodResponse	0	0.189	n/a	14	74	ButtonPress	AvoidedLoss	True
703.7	0.43	Lose2	0.6933	n/a	Yes	2.631	n/a	n/a	GoodResponse	0	n/a	n/a	14	74	Blank	AvoidedLoss	True
704.117	1.45	Lose2	0.6933	n/a	Yes	2.631	n/a	5.0	GoodResponse	0	0.042	703.159	14	74	Feedback	AvoidedLoss	True
705.572	2.631	Lose2	0.6933	n/a	Yes	2.631	n/a	n/a	GoodResponse	0	0.0	n/a	14	74	ISIslide	AvoidedLoss	True
708.23	0.25	Lose2	0.6973999999999999	0.0	Yes	2.92	0.03	n/a	GoodResponse	0	n/a	n/a	14	75	Cue	AvoidedLoss	True
708.481	3.95	Lose2	0.6973999999999999	0.0	Yes	2.92	0.001	n/a	GoodResponse	0	n/a	n/a	14	75	Fixation	AvoidedLoss	True
712.426	0.26	Lose2	0.6973999999999999	0.004	Yes	2.92	-0.004	2.0	GoodResponse	0	0.258	711.684	14	75	Target	AvoidedLoss	True
712.684	0.3	Lose2	0.6973999999999999	0.004	Yes	2.92	-0.004	2.0	GoodResponse	0	0.258	n/a	14	75	ButtonPress	AvoidedLoss	True
712.693	0.44	Lose2	0.6973999999999999	n/a	Yes	2.92	n/a	n/a	GoodResponse	0	n/a	n/a	14	75	Blank	AvoidedLoss	True
713.128	1.45	Lose2	0.6973999999999999	n/a	Yes	2.92	n/a	5.0	GoodResponse	0	0.006	712.134	14	75	Feedback	AvoidedLoss	True
714.582	2.92	Lose2	0.6973999999999999	n/a	Yes	2.92	n/a	n/a	GoodResponse	0	0.0	n/a	14	75	ISIslide	AvoidedLoss	True
717.524	0.25	Control	0.7012999999999999	0.0	Yes	3.226	0.024	n/a	GoodResponse	0	n/a	n/a	14	76	Cue	Neutral	True
717.775	4.05	Control	0.7012999999999999	0.0	Yes	3.226	0.001	n/a	GoodResponse	0	n/a	n/a	14	76	Fixation	Neutral	True
721.82	0.25	Control	0.7012999999999999	0.004	Yes	3.226	-0.004	2.0	GoodResponse	0	0.216	721.036	14	76	Target	Neutral	True
722.036	0.3	Control	0.7012999999999999	0.004	Yes	3.226	-0.004	2.0	GoodResponse	0	0.216	n/a	14	76	ButtonPress	Neutral	True
722.071	0.45	Control	0.7012999999999999	n/a	Yes	3.226	n/a	n/a	GoodResponse	0	n/a	n/a	14	76	Blank	Neutral	True
722.522	1.45	Control	0.7012999999999999	n/a	Yes	3.226	n/a	5.0	GoodResponse	0	0.027	721.549	14	76	Feedback	Neutral	True
723.977	3.226	Control	0.7012999999999999	n/a	Yes	3.226	n/a	n/a	GoodResponse	0	0.0	n/a	14	76	ISIslide	Neutral	True
727.22	0.25	Lose2	0.7051000000000001	0.0	Yes	2.58	0.02	n/a	GoodResponse	0	n/a	n/a	14	77	Cue	AvoidedLoss	True
727.471	3.95	Lose2	0.7051000000000001	0.0	Yes	2.58	0.001	n/a	GoodResponse	0	n/a	n/a	14	77	Fixation	AvoidedLoss	True
731.416	0.24	Lose2	0.7051000000000001	0.004	Yes	2.58	-0.004	2.0	GoodResponse	0	0.213	730.629	14	77	Target	AvoidedLoss	True
731.629	0.3	Lose2	0.7051000000000001	0.004	Yes	2.58	-0.004	2.0	GoodResponse	0	0.213	n/a	14	77	ButtonPress	AvoidedLoss	True
731.666	0.46	Lose2	0.7051000000000001	n/a	Yes	2.58	n/a	n/a	GoodResponse	0	n/a	n/a	14	77	Blank	AvoidedLoss	True
732.118	1.45	Lose2	0.7051000000000001	n/a	Yes	2.58	n/a	5.0	GoodResponse	0	0.04	731.158	14	77	Feedback	AvoidedLoss	True
733.572	2.58	Lose2	0.7051000000000001	n/a	Yes	2.58	n/a	n/a	GoodResponse	0	0.0	n/a	14	77	ISIslide	AvoidedLoss	True
