onset	duration	cue_type	current_mean_accuracy	duration_error	is_hit	isi_adjusted	onset_delay	response	response_type	reward	rt	rt_time	total_reward	trial_number	trial_phase	trial_type	one_press
11.109	0.25	Control	1.0	0.0	Yes	2.941	0.009	n/a	GoodResponse	0	n/a	n/a	0	0	Cue	Neutral	True
11.359	3.85	Control	1.0	0.0	Yes	2.941	0.0	n/a	GoodResponse	0	n/a	n/a	0	0	Fixation	Neutral	True
15.221	0.4	Control	1.0	0.0	Yes	2.941	0.012	3.0	GoodResponse	0	0.251	14.472	0	0	Target	Neutral	True
15.472	0.3	Control	1.0	0.0	Yes	2.941	0.012	3.0	GoodResponse	0	0.251	n/a	0	0	ButtonPress	Neutral	True
15.605	0.3	Control	1.0	n/a	Yes	2.941	n/a	n/a	GoodResponse	0	n/a	n/a	0	0	Blank	Neutral	True
15.906	1.45	Control	1.0	n/a	Yes	2.941	n/a	5.0	GoodResponse	0	0.02	14.926	0	0	Feedback	Neutral	True
17.361	2.941	Control	1.0	n/a	Yes	2.941	n/a	n/a	GoodResponse	0	0.0	n/a	0	0	ISIslide	Neutral	True
20.353	0.25	Lose2	1.0	0.0	Yes	2.747	0.053	n/a	GoodResponse	0	n/a	n/a	0	1	Cue	AvoidedLoss	True
20.604	4.0	Lose2	1.0	0.0	Yes	2.747	0.001	n/a	GoodResponse	0	n/a	n/a	0	1	Fixation	AvoidedLoss	True
24.599	0.39	Lose2	1.0	0.004	Yes	2.747	-0.004	3.0	GoodResponse	0	0.2	23.799	0	1	Target	AvoidedLoss	True
24.799	0.3	Lose2	1.0	0.004	Yes	2.747	-0.004	3.0	GoodResponse	0	0.2	n/a	0	1	ButtonPress	AvoidedLoss	True
25	0.31	Lose2	1.0	n/a	Yes	2.747	n/a	n/a	GoodResponse	0	n/a	n/a	0	1	Blank	AvoidedLoss	True
25.301	1.45	Lose2	1.0	n/a	Yes	2.747	n/a	5.0	GoodResponse	0	0.039	24.34	0	1	Feedback	AvoidedLoss	True
26.755	2.747	Lose2	1.0	n/a	Yes	2.747	n/a	n/a	GoodResponse	0	0.0	n/a	0	1	ISIslide	AvoidedLoss	True
29.514	0.25	Control	1.0	0.0	Yes	2.586	0.014	n/a	GoodResponse	0	n/a	n/a	0	2	Cue	Neutral	True
29.764	4.1	Control	1.0	0.0	Yes	2.586	0.0	n/a	GoodResponse	0	n/a	n/a	0	2	Fixation	Neutral	True
33.86	0.38	Control	1.0	0.004	Yes	2.586	-0.004	3.0	GoodResponse	0	0.206	33.066	0	2	Target	Neutral	True
34.066	0.3	Control	1.0	0.004	Yes	2.586	-0.004	3.0	GoodResponse	0	0.206	n/a	0	2	ButtonPress	Neutral	True
34.244	0.32	Control	1.0	n/a	Yes	2.586	n/a	n/a	GoodResponse	0	n/a	n/a	0	2	Blank	Neutral	True
34.562	1.45	Control	1.0	n/a	Yes	2.586	n/a	5.0	GoodResponse	0	0.047	33.609	0	2	Feedback	Neutral	True
36.016	2.586	Control	1.0	n/a	Yes	2.586	n/a	n/a	GoodResponse	0	0.0	n/a	0	2	ISIslide	Neutral	True
38.674	0.25	Win2	1.0	0.0	Yes	2.776	0.074	n/a	GoodResponse	1	n/a	n/a	1	3	Cue	Win	True
38.925	3.95	Win2	1.0	0.0	Yes	2.776	0.001	n/a	GoodResponse	1	n/a	n/a	1	3	Fixation	Win	True
42.87	0.37	Win2	1.0	0.004	Yes	2.776	-0.004	3.0	GoodResponse	1	0.208	42.078	1	3	Target	Win	True
43.078	0.3	Win2	1.0	0.004	Yes	2.776	-0.004	3.0	GoodResponse	1	0.208	n/a	1	3	ButtonPress	Win	True
43.255	0.33	Win2	1.0	n/a	Yes	2.776	n/a	n/a	GoodResponse	1	n/a	n/a	1	3	Blank	Win	True
43.572	1.45	Win2	1.0	n/a	Yes	2.776	n/a	5.0	GoodResponse	1	0.013	42.585	1	3	Feedback	Win	True
45.027	2.776	Win2	1.0	n/a	Yes	2.776	n/a	n/a	GoodResponse	1	0.0	n/a	1	3	ISIslide	Win	True
47.818	0.25	Win2	1.0	0.0	Yes	3.282	0.018	n/a	GoodResponse	1	n/a	n/a	2	4	Cue	Win	True
48.069	4.0	Win2	1.0	0.0	Yes	3.282	0.001	n/a	GoodResponse	1	n/a	n/a	2	4	Fixation	Win	True
52.064	0.36	Win2	1.0	0.004	Yes	3.282	-0.004	3.0	GoodResponse	1	0.301	51.365	2	4	Target	Win	True
52.365	0.3	Win2	1.0	0.004	Yes	3.282	-0.004	3.0	GoodResponse	1	0.301	n/a	2	4	ButtonPress	Win	True
52.432	0.34	Win2	1.0	n/a	Yes	3.282	n/a	n/a	GoodResponse	1	n/a	n/a	2	4	Blank	Win	True
52.766	1.45	Win2	1.0	n/a	Yes	3.282	n/a	5.0	GoodResponse	1	0.037	51.803	2	4	Feedback	Win	True
54.221	3.282	Win2	1.0	n/a	Yes	3.282	n/a	n/a	GoodResponse	1	0.0	n/a	2	4	ISIslide	Win	True
57.514	0.25	Win2	1.0	0.0	Yes	2.786	0.014	n/a	GoodResponse	1	n/a	n/a	3	5	Cue	Win	True
57.765	4.0	Win2	1.0	0.0	Yes	2.786	0.001	n/a	GoodResponse	1	n/a	n/a	3	5	Fixation	Win	True
61.76	0.35	Win2	1.0	0.004	Yes	2.786	-0.004	3.0	GoodResponse	1	0.327	61.087	3	5	Target	Win	True
62.087	0.3	Win2	1.0	0.004	Yes	2.786	-0.004	3.0	GoodResponse	1	0.327	n/a	3	5	ButtonPress	Win	True
62.111	0.35	Win2	1.0	n/a	Yes	2.786	n/a	n/a	GoodResponse	1	n/a	n/a	3	5	Blank	Win	True
62.462	1.45	Win2	1.0	n/a	Yes	2.786	n/a	5.0	GoodResponse	1	0.049	61.511	3	5	Feedback	Win	True
63.916	2.786	Win2	1.0	n/a	Yes	2.786	n/a	n/a	GoodResponse	1	0.0	n/a	3	5	ISIslide	Win	True
66.725	0.25	Lose2	1.0	0.0	Yes	2.725	0.025	n/a	GoodResponse	0	n/a	n/a	3	6	Cue	AvoidedLoss	True
66.975	3.95	Lose2	1.0	0.001	Yes	2.725	0.0	n/a	GoodResponse	0	n/a	n/a	3	6	Fixation	AvoidedLoss	True
70.921	0.34	Lose2	1.0	0.004	Yes	2.725	-0.004	3.0	GoodResponse	0	0.191	70.112	3	6	Target	AvoidedLoss	True
71.112	0.3	Lose2	1.0	0.004	Yes	2.725	-0.004	3.0	GoodResponse	0	0.191	n/a	3	6	ButtonPress	AvoidedLoss	True
71.272	0.36	Lose2	1.0	n/a	Yes	2.725	n/a	n/a	GoodResponse	0	n/a	n/a	3	6	Blank	AvoidedLoss	True
71.623	1.45	Lose2	1.0	n/a	Yes	2.725	n/a	5.0	GoodResponse	0	0.01	70.633	3	6	Feedback	AvoidedLoss	True
73.077	2.725	Lose2	1.0	n/a	Yes	2.725	n/a	n/a	GoodResponse	0	0.0	n/a	3	6	ISIslide	AvoidedLoss	True
75.819	0.25	Lose2	1.0	0.0	Yes	4.031	0.019	n/a	GoodResponse	0	n/a	n/a	3	7	Cue	AvoidedLoss	True
76.069	4.05	Lose2	1.0	0.0	Yes	4.031	0.0	n/a	GoodResponse	0	n/a	n/a	3	7	Fixation	AvoidedLoss	True
80.115	0.33	Lose2	1.0	0.004	Yes	4.031	-0.004	3.0	GoodResponse	0	0.197	79.312	3	7	Target	AvoidedLoss	True
80.312	0.3	Lose2	1.0	0.004	Yes	4.031	-0.004	3.0	GoodResponse	0	0.197	n/a	3	7	ButtonPress	AvoidedLoss	True
80.449	0.37	Lose2	1.0	n/a	Yes	4.031	n/a	n/a	GoodResponse	0	n/a	n/a	3	7	Blank	AvoidedLoss	True
80.817	1.45	Lose2	1.0	n/a	Yes	4.031	n/a	5.0	GoodResponse	0	0.035	79.852	3	7	Feedback	AvoidedLoss	True
82.271	4.031	Lose2	1.0	n/a	Yes	4.031	n/a	n/a	GoodResponse	0	0.0	n/a	3	7	ISIslide	AvoidedLoss	True
86.317	0.25	Lose2	1.0	0.0	Yes	3.033	0.017	n/a	GoodResponse	0	n/a	n/a	3	8	Cue	AvoidedLoss	True
86.567	3.95	Lose2	1.0	0.0	Yes	3.033	0.0	n/a	GoodResponse	0	n/a	n/a	3	8	Fixation	AvoidedLoss	True
90.512	0.32	Lose2	1.0	0.005	Yes	3.033	-0.005	3.0	GoodResponse	0	0.232	89.744	3	8	Target	AvoidedLoss	True
90.744	0.3	Lose2	1.0	0.005	Yes	3.033	-0.005	3.0	GoodResponse	0	0.232	n/a	3	8	ButtonPress	AvoidedLoss	True
90.847	0.38	Lose2	1.0	n/a	Yes	3.033	n/a	n/a	GoodResponse	0	n/a	n/a	3	8	Blank	AvoidedLoss	True
91.215	1.45	Lose2	1.0	n/a	Yes	3.033	n/a	5.0	GoodResponse	0	0.027	90.242	3	8	Feedback	AvoidedLoss	True
92.669	3.033	Lose2	1.0	n/a	Yes	3.033	n/a	n/a	GoodResponse	0	0.0	n/a	3	8	ISIslide	AvoidedLoss	True
95.728	0.25	Lose2	0.9	0.0	No	3.122	0.028	n/a	NoResponse	-1	n/a	n/a	2	9	Cue	Loss	True
95.979	3.95	Lose2	0.9	0.0	No	3.122	0.001	n/a	NoResponse	-1	n/a	n/a	2	9	Fixation	Loss	True
99.924	0.31	Lose2	0.9	0.004	No	3.122	-0.004	3.0	NoResponse	-1	0.474	99.398	2	9	Target	Loss	True
100.242	0.39	Lose2	0.9	n/a	No	3.122	n/a	n/a	NoResponse	-1	n/a	n/a	2	9	Blank	Loss	True
100.398	0.3	Lose2	0.9	0.004	No	3.122	-0.004	3.0	NoResponse	-1	0.474	n/a	2	9	ButtonPress	Loss	True
100.626	1.45	Lose2	0.9	n/a	No	3.122	n/a	5.0	NoResponse	-1	0.03	99.656	2	9	Feedback	Loss	True
102.08	3.122	Lose2	0.9	n/a	No	3.122	n/a	n/a	NoResponse	-1	0.0	n/a	2	9	ISIslide	Loss	True
105.223	0.25	Control	0.9091	0.0	Yes	3.277	0.023	n/a	GoodResponse	0	n/a	n/a	2	10	Cue	Neutral	True
105.474	4.0	Control	0.9091	0.0	Yes	3.277	0.001	n/a	GoodResponse	0	n/a	n/a	2	10	Fixation	Neutral	True
109.469	0.3	Control	0.9091	0.004	Yes	3.277	-0.004	3.0	GoodResponse	0	0.168	108.637	2	10	Target	Neutral	True
109.637	0.3	Control	0.9091	0.004	Yes	3.277	-0.004	3.0	GoodResponse	0	0.168	n/a	2	10	ButtonPress	Neutral	True
109.77	0.4	Control	0.9091	n/a	Yes	3.277	n/a	n/a	GoodResponse	0	n/a	n/a	2	10	Blank	Neutral	True
110.171	1.45	Control	0.9091	n/a	Yes	3.277	n/a	5.0	GoodResponse	0	0.046	109.217	2	10	Feedback	Neutral	True
111.626	3.277	Control	0.9091	n/a	Yes	3.277	n/a	n/a	GoodResponse	0	0.0	n/a	2	10	ISIslide	Neutral	True
114.919	0.25	Lose2	0.9167000000000001	0.0	Yes	2.731	0.019	n/a	GoodResponse	0	n/a	n/a	2	11	Cue	AvoidedLoss	True
115.169	4.05	Lose2	0.9167000000000001	0.001	Yes	2.731	0.0	n/a	GoodResponse	0	n/a	n/a	2	11	Fixation	AvoidedLoss	True
119.215	0.29	Lose2	0.9167000000000001	0.004	Yes	2.731	-0.004	3.0	GoodResponse	0	0.22	118.435	2	11	Target	AvoidedLoss	True
119.435	0.3	Lose2	0.9167000000000001	0.004	Yes	2.731	-0.004	3.0	GoodResponse	0	0.22	n/a	2	11	ButtonPress	AvoidedLoss	True
119.516	0.41	Lose2	0.9167000000000001	n/a	Yes	2.731	n/a	n/a	GoodResponse	0	n/a	n/a	2	11	Blank	AvoidedLoss	True
119.917	1.45	Lose2	0.9167000000000001	n/a	Yes	2.731	n/a	5.0	GoodResponse	0	0.008	118.925	2	11	Feedback	AvoidedLoss	True
121.371	2.731	Lose2	0.9167000000000001	n/a	Yes	2.731	n/a	n/a	GoodResponse	0	0.0	n/a	2	11	ISIslide	AvoidedLoss	True
124.113	0.25	Control	0.9231	0.0	Yes	2.987	0.013	n/a	GoodResponse	0	n/a	n/a	2	12	Cue	Neutral	True
124.364	3.9	Control	0.9231	0.0	Yes	2.987	0.001	n/a	GoodResponse	0	n/a	n/a	2	12	Fixation	Neutral	True
128.259	0.28	Control	0.9231	0.004	Yes	2.987	-0.004	3.0	GoodResponse	0	0.227	127.486	2	12	Target	Neutral	True
128.486	0.3	Control	0.9231	0.004	Yes	2.987	-0.004	3.0	GoodResponse	0	0.227	n/a	2	12	ButtonPress	Neutral	True
128.543	0.42	Control	0.9231	n/a	Yes	2.987	n/a	n/a	GoodResponse	0	n/a	n/a	2	12	Blank	Neutral	True
128.961	1.45	Control	0.9231	n/a	Yes	2.987	n/a	5.0	GoodResponse	0	0.036	127.997	2	12	Feedback	Neutral	True
130.415	2.987	Control	0.9231	n/a	Yes	2.987	n/a	n/a	GoodResponse	0	0.0	n/a	2	12	ISIslide	Neutral	True
133.424	0.25	Control	0.9286	0.0	Yes	2.776	0.024	n/a	GoodResponse	0	n/a	n/a	2	13	Cue	Neutral	True
133.675	4.0	Control	0.9286	0.0	Yes	2.776	0.001	n/a	GoodResponse	0	n/a	n/a	2	13	Fixation	Neutral	True
137.67	0.27	Control	0.9286	0.004	Yes	2.776	-0.004	3.0	GoodResponse	0	0.218	136.888	2	13	Target	Neutral	True
137.888	0.3	Control	0.9286	0.004	Yes	2.776	-0.004	3.0	GoodResponse	0	0.218	n/a	2	13	ButtonPress	Neutral	True
137.954	0.43	Control	0.9286	n/a	Yes	2.776	n/a	n/a	GoodResponse	0	n/a	n/a	2	13	Blank	Neutral	True
138.372	1.45	Control	0.9286	n/a	Yes	2.776	n/a	5.0	GoodResponse	0	0.04	137.412	2	13	Feedback	Neutral	True
139.826	2.776	Control	0.9286	n/a	Yes	2.776	n/a	n/a	GoodResponse	0	0.0	n/a	2	13	ISIslide	Neutral	True
142.618	0.25	Win2	0.9333	0.0	Yes	2.682	0.018	n/a	GoodResponse	1	n/a	n/a	3	14	Cue	Win	True
142.869	4.1	Win2	0.9333	0.0	Yes	2.682	0.001	n/a	GoodResponse	1	n/a	n/a	3	14	Fixation	Win	True
146.964	0.26	Win2	0.9333	0.004	Yes	2.682	-0.004	3.0	GoodResponse	1	0.194	146.158	3	14	Target	Win	True
147.158	0.3	Win2	0.9333	0.004	Yes	2.682	-0.004	3.0	GoodResponse	1	0.194	n/a	3	14	ButtonPress	Win	True
147.232	0.44	Win2	0.9333	n/a	Yes	2.682	n/a	n/a	GoodResponse	1	n/a	n/a	3	14	Blank	Win	True
147.666	1.45	Win2	0.9333	n/a	Yes	2.682	n/a	5.0	GoodResponse	1	0.014	146.68	3	14	Feedback	Win	True
149.121	2.682	Win2	0.9333	n/a	Yes	2.682	n/a	n/a	GoodResponse	1	0.0	n/a	3	14	ISIslide	Win	True
151.812	0.25	Control	0.9375	0.0	Yes	2.988	0.012	n/a	GoodResponse	0	n/a	n/a	3	15	Cue	Neutral	True
152.063	4.0	Control	0.9375	0.0	Yes	2.988	0.001	n/a	GoodResponse	0	n/a	n/a	3	15	Fixation	Neutral	True
156.058	0.25	Control	0.9375	0.004	Yes	2.988	-0.004	3.0	GoodResponse	0	0.213	155.271	3	15	Target	Neutral	True
156.271	0.3	Control	0.9375	0.004	Yes	2.988	-0.004	3.0	GoodResponse	0	0.213	n/a	3	15	ButtonPress	Neutral	True
156.309	0.45	Control	0.9375	n/a	Yes	2.988	n/a	n/a	GoodResponse	0	n/a	n/a	3	15	Blank	Neutral	True
156.76	1.45	Control	0.9375	n/a	Yes	2.988	n/a	5.0	GoodResponse	0	0.041	155.801	3	15	Feedback	Neutral	True
158.215	2.988	Control	0.9375	n/a	Yes	2.988	n/a	n/a	GoodResponse	0	0.0	n/a	3	15	ISIslide	Neutral	True
161.224	0.25	Win2	0.9412	0.0	Yes	2.876	0.024	n/a	GoodResponse	1	n/a	n/a	4	16	Cue	Win	True
161.474	4.0	Win2	0.9412	0.0	Yes	2.876	0.0	n/a	GoodResponse	1	n/a	n/a	4	16	Fixation	Win	True
165.47	0.24	Win2	0.9412	0.004	Yes	2.876	-0.004	3.0	GoodResponse	1	0.188	164.658	4	16	Target	Win	True
165.658	0.3	Win2	0.9412	0.004	Yes	2.876	-0.004	3.0	GoodResponse	1	0.188	n/a	4	16	ButtonPress	Win	True
165.72	0.46	Win2	0.9412	n/a	Yes	2.876	n/a	n/a	GoodResponse	1	n/a	n/a	4	16	Blank	Win	True
166.172	1.45	Win2	0.9412	n/a	Yes	2.876	n/a	5.0	GoodResponse	1	0.044	165.216	4	16	Feedback	Win	True
167.626	2.876	Win2	0.9412	n/a	Yes	2.876	n/a	n/a	GoodResponse	1	0.0	n/a	4	16	ISIslide	Win	True
170.518	0.25	Lose2	0.9444	0.0	Yes	2.732	0.018	n/a	GoodResponse	0	n/a	n/a	4	17	Cue	AvoidedLoss	True
170.769	3.95	Lose2	0.9444	0.0	Yes	2.732	0.001	n/a	GoodResponse	0	n/a	n/a	4	17	Fixation	AvoidedLoss	True
174.714	0.23	Lose2	0.9444	0.004	Yes	2.732	-0.004	3.0	GoodResponse	0	0.215	173.929	4	17	Target	AvoidedLoss	True
174.929	0.3	Lose2	0.9444	0.004	Yes	2.732	-0.004	3.0	GoodResponse	0	0.215	n/a	4	17	ButtonPress	AvoidedLoss	True
174.948	0.47	Lose2	0.9444	n/a	Yes	2.732	n/a	n/a	GoodResponse	0	n/a	n/a	4	17	Blank	AvoidedLoss	True
175.416	1.45	Lose2	0.9444	n/a	Yes	2.732	n/a	5.0	GoodResponse	0	0.02	174.436	4	17	Feedback	AvoidedLoss	True
176.87	2.732	Lose2	0.9444	n/a	Yes	2.732	n/a	n/a	GoodResponse	0	0.0	n/a	4	17	ISIslide	AvoidedLoss	True
179.629	0.25	Lose2	0.8946999999999999	0.0	No	2.721	0.029	n/a	LatePress	-1	n/a	n/a	3	18	Cue	Loss	True
179.879	4.05	Lose2	0.8946999999999999	0.0	No	2.721	0.0	n/a	LatePress	-1	n/a	n/a	3	18	Fixation	Loss	True
183.925	0.22	Lose2	0.8946999999999999	0.004	No	2.721	-0.004	3.0	LatePress	-1	0.22	183.145	3	18	Target	Loss	True
184.145	0.3	Lose2	0.8946999999999999	0.004	No	2.721	-0.004	3.0	LatePress	-1	0.22	n/a	3	18	ButtonPress	Loss	True
184.159	0.48	Lose2	0.8946999999999999	n/a	No	2.721	n/a	n/a	LatePress	-1	n/a	n/a	3	18	Blank	Loss	True
184.627	1.45	Lose2	0.8946999999999999	n/a	No	2.721	n/a	5.0	LatePress	-1	0.028	183.655	3	18	Feedback	Loss	True
186.081	2.721	Lose2	0.8946999999999999	n/a	No	2.721	n/a	n/a	LatePress	-1	0.0	n/a	3	18	ISIslide	Loss	True
188.823	0.25	Control	0.85	0.0	No	2.927	0.023	n/a	LatePress	0	n/a	n/a	3	19	Cue	Neutral	True
189.073	3.95	Control	0.85	0.001	No	2.927	0.0	n/a	LatePress	0	n/a	n/a	3	19	Fixation	Neutral	True
193.019	0.21	Control	0.85	0.004	No	2.927	-0.004	3.0	LatePress	0	0.21	192.229	3	19	Target	Neutral	True
193.229	0.3	Control	0.85	0.004	No	2.927	-0.004	3.0	LatePress	0	0.21	n/a	3	19	ButtonPress	Neutral	True
193.236	0.49	Control	0.85	n/a	No	2.927	n/a	n/a	LatePress	0	n/a	n/a	3	19	Blank	Neutral	True
193.721	1.45	Control	0.85	n/a	No	2.927	n/a	5.0	LatePress	0	0.008	192.729	3	19	Feedback	Neutral	True
195.175	2.927	Control	0.85	n/a	No	2.927	n/a	n/a	LatePress	0	0.0	n/a	3	19	ISIslide	Neutral	True
198.117	0.25	Control	0.8095	0.0	No	2.633	0.017	n/a	NoResponse	0	n/a	n/a	3	20	Cue	Neutral	True
198.368	4.05	Control	0.8095	0.0	No	2.633	0.001	n/a	NoResponse	0	n/a	n/a	3	20	Fixation	Neutral	True
202.413	0.2	Control	0.8095	0.004	No	2.633	-0.004	3.0	NoResponse	0	0.219	201.632	3	20	Target	Neutral	True
202.614	0.5	Control	0.8095	n/a	No	2.633	n/a	n/a	NoResponse	0	n/a	n/a	3	20	Blank	Neutral	True
202.632	0.3	Control	0.8095	0.004	No	2.633	-0.004	3.0	NoResponse	0	0.219	n/a	3	20	ButtonPress	Neutral	True
203.115	1.45	Control	0.8095	n/a	No	2.633	n/a	5.0	NoResponse	0	0.027	202.142	3	20	Feedback	Neutral	True
204.57	2.633	Control	0.8095	n/a	No	2.633	n/a	n/a	NoResponse	0	0.0	n/a	3	20	ISIslide	Neutral	True
207.228	0.25	Control	0.7726999999999999	0.0	No	2.772	0.028	n/a	NoResponse	0	n/a	n/a	3	21	Cue	Neutral	True
207.478	4.1	Control	0.7726999999999999	0.001	No	2.772	0.0	n/a	NoResponse	0	n/a	n/a	3	21	Fixation	Neutral	True
211.574	0.19	Control	0.7726999999999999	0.004	No	2.772	-0.004	3.0	NoResponse	0	0.238	210.812	3	21	Target	Neutral	True
211.775	0.51	Control	0.7726999999999999	n/a	No	2.772	n/a	n/a	NoResponse	0	n/a	n/a	3	21	Blank	Neutral	True
211.812	0.3	Control	0.7726999999999999	0.004	No	2.772	-0.004	3.0	NoResponse	0	0.238	n/a	3	21	ButtonPress	Neutral	True
212.276	1.45	Control	0.7726999999999999	n/a	No	2.772	n/a	5.0	NoResponse	0	0.037	211.313	3	21	Feedback	Neutral	True
213.73	2.772	Control	0.7726999999999999	n/a	No	2.772	n/a	n/a	NoResponse	0	0.0	n/a	3	21	ISIslide	Neutral	True
216.522	0.25	Control	0.7391	0.0	No	2.778	0.022	n/a	NoResponse	0	n/a	n/a	3	22	Cue	Neutral	True
216.773	4.0	Control	0.7391	0.0	No	2.778	0.001	n/a	NoResponse	0	n/a	n/a	3	22	Fixation	Neutral	True
220.768	0.18	Control	0.7391	0.004	No	2.778	-0.004	3.0	NoResponse	0	0.3	220.068	3	22	Target	Neutral	True
220.952	0.52	Control	0.7391	n/a	No	2.778	n/a	n/a	NoResponse	0	n/a	n/a	3	22	Blank	Neutral	True
221.068	0.3	Control	0.7391	0.004	No	2.778	-0.004	3.0	NoResponse	0	0.3	n/a	3	22	ButtonPress	Neutral	True
221.47	1.45	Control	0.7391	n/a	No	2.778	n/a	5.0	NoResponse	0	0.014	220.484	3	22	Feedback	Neutral	True
222.925	2.778	Control	0.7391	n/a	No	2.778	n/a	n/a	NoResponse	0	0.0	n/a	3	22	ISIslide	Neutral	True
225.716	0.25	Control	0.7082999999999999	0.0	No	2.784	0.016	n/a	NoResponse	0	n/a	n/a	3	23	Cue	Neutral	True
225.967	3.9	Control	0.7082999999999999	0.0	No	2.784	0.001	n/a	NoResponse	0	n/a	n/a	3	23	Fixation	Neutral	True
229.862	0.17	Control	0.7082999999999999	0.004	No	2.784	-0.004	3.0	NoResponse	0	0.288	229.15	3	23	Target	Neutral	True
230.046	0.53	Control	0.7082999999999999	n/a	No	2.784	n/a	n/a	NoResponse	0	n/a	n/a	3	23	Blank	Neutral	True
230.15	0.3	Control	0.7082999999999999	0.004	No	2.784	-0.004	3.0	NoResponse	0	0.288	n/a	3	23	ButtonPress	Neutral	True
230.564	1.45	Control	0.7082999999999999	n/a	No	2.784	n/a	5.0	NoResponse	0	0.042	229.606	3	23	Feedback	Neutral	True
232.018	2.784	Control	0.7082999999999999	n/a	No	2.784	n/a	n/a	NoResponse	0	0.0	n/a	3	23	ISIslide	Neutral	True
234.827	0.25	Win2	0.72	0.0	Yes	3.123	0.027	n/a	GoodResponse	1	n/a	n/a	4	24	Cue	Win	True
235.078	3.95	Win2	0.72	0.0	Yes	3.123	0.001	n/a	GoodResponse	1	n/a	n/a	4	24	Fixation	Win	True
239.023	0.16	Win2	0.72	0.004	Yes	3.123	-0.004	3.0	GoodResponse	1	0.158	238.181	4	24	Target	Win	True
239.181	0.3	Win2	0.72	0.004	Yes	3.123	-0.004	3.0	GoodResponse	1	0.158	n/a	4	24	ButtonPress	Win	True
239.19	0.54	Win2	0.72	n/a	Yes	3.123	n/a	n/a	GoodResponse	1	n/a	n/a	4	24	Blank	Win	True
239.725	1.45	Win2	0.72	n/a	Yes	3.123	n/a	5.0	GoodResponse	1	0.004	238.729	4	24	Feedback	Win	True
241.179	3.123	Win2	0.72	n/a	Yes	3.123	n/a	n/a	GoodResponse	1	0.0	n/a	4	24	ISIslide	Win	True
244.322	0.25	Win2	0.6923	0.0	No	3.078	0.022	n/a	NoResponse	0	n/a	n/a	4	25	Cue	MissedWin	True
244.573	4.0	Win2	0.6923	0.0	No	3.078	0.001	n/a	NoResponse	0	n/a	n/a	4	25	Fixation	MissedWin	True
248.568	0.15	Win2	0.6923	0.004	No	3.078	-0.004	3.0	NoResponse	0	0.198	247.766	4	25	Target	MissedWin	True
248.718	0.55	Win2	0.6923	n/a	No	3.078	n/a	n/a	NoResponse	0	n/a	n/a	4	25	Blank	MissedWin	True
248.766	0.3	Win2	0.6923	0.004	No	3.078	-0.004	3.0	NoResponse	0	0.198	n/a	4	25	ButtonPress	MissedWin	True
249.27	1.45	Win2	0.6923	n/a	No	3.078	n/a	5.0	NoResponse	0	0.018	248.288	4	25	Feedback	MissedWin	True
250.724	3.078	Win2	0.6923	n/a	No	3.078	n/a	n/a	NoResponse	0	0.0	n/a	4	25	ISIslide	MissedWin	True
253.817	0.25	Win2	0.6667000000000001	0.0	No	2.933	0.017	n/a	PrematurePress	0	n/a	n/a	4	26	Cue	MissedWin	True
254.068	3.95	Win2	0.6667000000000001	0.0	No	2.933	0.001	n/a	PrematurePress	0	n/a	n/a	4	26	Fixation	MissedWin	True
258.013	0.15	Win2	0.6667000000000001	0.004	No	2.933	-0.004	3.0	PrematurePress	0	0.016	257.029	4	26	Target	MissedWin	True
258.029	0.3	Win2	0.6667000000000001	0.004	No	2.933	-0.004	3.0	PrematurePress	0	0.016	n/a	4	26	ButtonPress	MissedWin	True
258.163	0.55	Win2	0.6667000000000001	n/a	No	2.933	n/a	n/a	PrematurePress	0	n/a	n/a	4	26	Blank	MissedWin	True
258.715	1.45	Win2	0.6667000000000001	n/a	No	2.933	n/a	5.0	PrematurePress	0	0.037	257.752	4	26	Feedback	MissedWin	True
260.169	2.933	Win2	0.6667000000000001	n/a	No	2.933	n/a	n/a	PrematurePress	0	0.0	n/a	4	26	ISIslide	MissedWin	True
263.128	0.25	Lose2	0.6429	0.0	No	2.822	0.028	n/a	NoResponse	-1	n/a	n/a	3	27	Cue	Loss	True
263.379	4.05	Lose2	0.6429	0.0	No	2.822	0.001	n/a	NoResponse	-1	n/a	n/a	3	27	Fixation	Loss	True
267.424	0.15	Lose2	0.6429	0.004	No	2.822	-0.004	3.0	NoResponse	-1	0.181	266.605	3	27	Target	Loss	True
267.575	0.55	Lose2	0.6429	n/a	No	2.822	n/a	n/a	NoResponse	-1	n/a	n/a	3	27	Blank	Loss	True
267.605	0.3	Lose2	0.6429	0.004	No	2.822	-0.004	3.0	NoResponse	-1	0.181	n/a	3	27	ButtonPress	Loss	True
268.126	1.45	Lose2	0.6429	n/a	No	2.822	n/a	5.0	NoResponse	-1	0.04	267.166	3	27	Feedback	Loss	True
269.581	2.822	Lose2	0.6429	n/a	No	2.822	n/a	n/a	NoResponse	-1	0.0	n/a	3	27	ISIslide	Loss	True
272.422	0.25	Control	0.6207	0.0	No	2.828	0.022	n/a	NoResponse	0	n/a	n/a	3	28	Cue	Neutral	True
272.673	4.05	Control	0.6207	0.0	No	2.828	0.001	n/a	NoResponse	0	n/a	n/a	3	28	Fixation	Neutral	True
276.719	0.16	Control	0.6207	0.003	No	2.828	-0.003	3.0	NoResponse	0	0.242	275.961	3	28	Target	Neutral	True
276.886	0.54	Control	0.6207	n/a	No	2.828	n/a	n/a	NoResponse	0	n/a	n/a	3	28	Blank	Neutral	True
276.961	0.3	Control	0.6207	0.003	No	2.828	-0.003	3.0	NoResponse	0	0.242	n/a	3	28	ButtonPress	Neutral	True
277.421	1.45	Control	0.6207	n/a	No	2.828	n/a	5.0	NoResponse	0	0.013	276.434	3	28	Feedback	Neutral	True
278.875	2.828	Control	0.6207	n/a	No	2.828	n/a	n/a	NoResponse	0	0.0	n/a	3	28	ISIslide	Neutral	True
281.717	0.25	Lose2	0.6	0.0	No	2.833	0.017	n/a	PrematurePress	-1	n/a	n/a	2	29	Cue	Loss	True
281.968	3.95	Lose2	0.6	0.0	No	2.833	0.001	n/a	PrematurePress	-1	n/a	n/a	2	29	Fixation	Loss	True
285.913	0.17	Lose2	0.6	0.004	No	2.833	-0.004	3.0	PrematurePress	-1	0.04	284.953	2	29	Target	Loss	True
285.953	0.3	Lose2	0.6	0.004	No	2.833	-0.004	3.0	PrematurePress	-1	0.04	n/a	2	29	ButtonPress	Loss	True
286.097	0.53	Lose2	0.6	n/a	No	2.833	n/a	n/a	PrematurePress	-1	n/a	n/a	2	29	Blank	Loss	True
286.615	1.45	Lose2	0.6	n/a	No	2.833	n/a	5.0	PrematurePress	-1	0.038	285.653	2	29	Feedback	Loss	True
288.069	2.833	Lose2	0.6	n/a	No	2.833	n/a	n/a	PrematurePress	-1	0.0	n/a	2	29	ISIslide	Loss	True
290.928	0.25	Win2	0.5806	0.0	No	2.772	0.028	n/a	NoResponse	0	n/a	n/a	2	30	Cue	MissedWin	True
291.178	3.9	Win2	0.5806	0.0	No	2.772	0.0	n/a	NoResponse	0	n/a	n/a	2	30	Fixation	MissedWin	True
295.09	0.18	Win2	0.5806	0.0	No	2.772	0.012	3.0	NoResponse	0	0.227	294.317	2	30	Target	MissedWin	True
295.257	0.52	Win2	0.5806	n/a	No	2.772	n/a	n/a	NoResponse	0	n/a	n/a	2	30	Blank	MissedWin	True
295.317	0.3	Win2	0.5806	0.0	No	2.772	0.012	3.0	NoResponse	0	0.227	n/a	2	30	ButtonPress	MissedWin	True
295.775	1.45	Win2	0.5806	n/a	No	2.772	n/a	5.0	NoResponse	0	0.049	294.824	2	30	Feedback	MissedWin	True
297.23	2.772	Win2	0.5806	n/a	No	2.772	n/a	n/a	NoResponse	0	0.0	n/a	2	30	ISIslide	MissedWin	True
300.021	0.25	Lose2	0.5625	0.001	No	2.829	0.021	n/a	NoResponse	-1	n/a	n/a	1	31	Cue	Loss	True
300.272	4.05	Lose2	0.5625	0.0	No	2.829	0.001	n/a	NoResponse	-1	n/a	n/a	1	31	Fixation	Loss	True
304.318	0.19	Lose2	0.5625	0.003	No	2.829	-0.003	3.0	NoResponse	-1	0.205	303.523	1	31	Target	Loss	True
304.518	0.51	Lose2	0.5625	n/a	No	2.829	n/a	n/a	NoResponse	-1	n/a	n/a	1	31	Blank	Loss	True
304.523	0.3	Lose2	0.5625	0.003	No	2.829	-0.003	3.0	NoResponse	-1	0.205	n/a	1	31	ButtonPress	Loss	True
305.02	1.45	Lose2	0.5625	n/a	No	2.829	n/a	5.0	NoResponse	-1	0.024	304.044	1	31	Feedback	Loss	True
306.474	2.829	Lose2	0.5625	n/a	No	2.829	n/a	n/a	NoResponse	-1	0.0	n/a	1	31	ISIslide	Loss	True
309.316	0.25	Lose2	0.5455	0.0	No	2.634	0.016	n/a	NoResponse	-1	n/a	n/a	0	32	Cue	Loss	True
309.567	4.15	Lose2	0.5455	0.0	No	2.634	0.001	n/a	NoResponse	-1	n/a	n/a	0	32	Fixation	Loss	True
313.712	0.2	Lose2	0.5455	0.004	No	2.634	-0.004	3.0	NoResponse	-1	0.281	312.993	0	32	Target	Loss	True
313.913	0.5	Lose2	0.5455	n/a	No	2.634	n/a	n/a	NoResponse	-1	n/a	n/a	0	32	Blank	Loss	True
313.993	0.3	Lose2	0.5455	0.004	No	2.634	-0.004	3.0	NoResponse	-1	0.281	n/a	0	32	ButtonPress	Loss	True
314.414	1.45	Lose2	0.5455	n/a	No	2.634	n/a	5.0	NoResponse	-1	0.001	313.415	0	32	Feedback	Loss	True
315.869	2.634	Lose2	0.5455	n/a	No	2.634	n/a	n/a	NoResponse	-1	0.0	n/a	0	32	ISIslide	Loss	True
318.527	0.25	Win2	0.5294	0.0	No	2.673	0.027	n/a	NoResponse	0	n/a	n/a	0	33	Cue	MissedWin	False
318.778	4.0	Win2	0.5294	0.0	No	2.673	0.001	3.0	NoResponse	0	3.571	321.349	0	33	Fixation	MissedWin	False
322.349	0.3	Win2	0.5294	0.0	No	2.673	0.001	3.0	NoResponse	0	3.571	n/a	0	33	ButtonPress	MissedWin	False
322.773	0.21	Win2	0.5294	0.004	No	2.673	-0.004	3.0	NoResponse	0	0.336	322.109	0	33	Target	MissedWin	False
322.99	0.49	Win2	0.5294	n/a	No	2.673	n/a	n/a	NoResponse	0	n/a	n/a	0	33	Blank	MissedWin	False
323.109	0.3	Win2	0.5294	0.004	No	2.673	-0.004	3.0	NoResponse	0	0.336	n/a	0	33	ButtonPress	MissedWin	False
323.475	1.45	Win2	0.5294	n/a	No	2.673	n/a	5.0	NoResponse	0	0.007	322.482	0	33	Feedback	MissedWin	False
324.929	2.673	Win2	0.5294	n/a	No	2.673	n/a	n/a	NoResponse	0	0.0	n/a	0	33	ISIslide	MissedWin	False
327.621	0.25	Lose2	0.5428999999999999	0.0	Yes	2.629	0.021	n/a	GoodResponse	0	n/a	n/a	0	34	Cue	AvoidedLoss	True
327.871	4.05	Lose2	0.5428999999999999	0.0	Yes	2.629	0.0	n/a	GoodResponse	0	n/a	n/a	0	34	Fixation	AvoidedLoss	True
331.917	0.22	Lose2	0.5428999999999999	0.004	Yes	2.629	-0.004	3.0	GoodResponse	0	0.189	331.106	0	34	Target	AvoidedLoss	True
332.106	0.3	Lose2	0.5428999999999999	0.004	Yes	2.629	-0.004	3.0	GoodResponse	0	0.189	n/a	0	34	ButtonPress	AvoidedLoss	True
332.151	0.48	Lose2	0.5428999999999999	n/a	Yes	2.629	n/a	n/a	GoodResponse	0	n/a	n/a	0	34	Blank	AvoidedLoss	True
332.619	1.45	Lose2	0.5428999999999999	n/a	Yes	2.629	n/a	5.0	GoodResponse	0	0.034	331.653	0	34	Feedback	AvoidedLoss	True
334.073	2.629	Lose2	0.5428999999999999	n/a	Yes	2.629	n/a	n/a	GoodResponse	0	0.0	n/a	0	34	ISIslide	AvoidedLoss	True
336.714	0.25	Lose2	0.5556	0.0	Yes	2.686	0.014	n/a	GoodResponse	0	n/a	n/a	0	35	Cue	AvoidedLoss	True
336.965	4.0	Lose2	0.5556	0.0	Yes	2.686	0.001	n/a	GoodResponse	0	n/a	n/a	0	35	Fixation	AvoidedLoss	True
340.96	0.23	Lose2	0.5556	0.004	Yes	2.686	-0.004	3.0	GoodResponse	0	0.225	340.185	0	35	Target	AvoidedLoss	True
341.185	0.3	Lose2	0.5556	0.004	Yes	2.686	-0.004	3.0	GoodResponse	0	0.225	n/a	0	35	ButtonPress	AvoidedLoss	True
341.194	0.47	Lose2	0.5556	n/a	Yes	2.686	n/a	n/a	GoodResponse	0	n/a	n/a	0	35	Blank	AvoidedLoss	True
341.663	1.45	Lose2	0.5556	n/a	Yes	2.686	n/a	5.0	GoodResponse	0	0.014	340.677	0	35	Feedback	AvoidedLoss	True
343.117	2.686	Lose2	0.5556	n/a	Yes	2.686	n/a	n/a	GoodResponse	0	0.0	n/a	0	35	ISIslide	AvoidedLoss	True
345.825	0.25	Control	0.5676	0.0	Yes	2.675	0.025	n/a	GoodResponse	0	n/a	n/a	0	36	Cue	Neutral	True
346.076	4.0	Control	0.5676	0.0	Yes	2.675	0.001	n/a	GoodResponse	0	n/a	n/a	0	36	Fixation	Neutral	True
350.071	0.24	Control	0.5676	0.004	Yes	2.675	-0.004	3.0	GoodResponse	0	0.187	349.258	0	36	Target	Neutral	True
350.258	0.3	Control	0.5676	0.004	Yes	2.675	-0.004	3.0	GoodResponse	0	0.187	n/a	0	36	ButtonPress	Neutral	True
350.322	0.46	Control	0.5676	n/a	Yes	2.675	n/a	n/a	GoodResponse	0	n/a	n/a	0	36	Blank	Neutral	True
350.773	1.45	Control	0.5676	n/a	Yes	2.675	n/a	5.0	GoodResponse	0	0.025	349.798	0	36	Feedback	Neutral	True
352.227	2.675	Control	0.5676	n/a	Yes	2.675	n/a	n/a	GoodResponse	0	0.0	n/a	0	36	ISIslide	Neutral	True
354.919	0.25	Win2	0.5789	0.0	Yes	2.881	0.019	n/a	GoodResponse	1	n/a	n/a	1	37	Cue	Win	True
355.17	4.0	Win2	0.5789	0.0	Yes	2.881	0.001	n/a	GoodResponse	1	n/a	n/a	1	37	Fixation	Win	True
359.165	0.25	Win2	0.5789	0.004	Yes	2.881	-0.004	3.0	GoodResponse	1	0.206	358.371	1	37	Target	Win	True
359.371	0.3	Win2	0.5789	0.004	Yes	2.881	-0.004	3.0	GoodResponse	1	0.206	n/a	1	37	ButtonPress	Win	True
359.416	0.45	Win2	0.5789	n/a	Yes	2.881	n/a	n/a	GoodResponse	1	n/a	n/a	1	37	Blank	Win	True
359.867	1.45	Win2	0.5789	n/a	Yes	2.881	n/a	5.0	GoodResponse	1	0.005	358.872	1	37	Feedback	Win	True
361.321	2.881	Win2	0.5789	n/a	Yes	2.881	n/a	n/a	GoodResponse	1	0.0	n/a	1	37	ISIslide	Win	True
364.213	0.25	Lose2	0.5897	0.0	Yes	2.837	0.013	n/a	GoodResponse	0	n/a	n/a	1	38	Cue	AvoidedLoss	True
364.464	3.95	Lose2	0.5897	0.0	Yes	2.837	0.001	n/a	GoodResponse	0	n/a	n/a	1	38	Fixation	AvoidedLoss	True
368.409	0.26	Lose2	0.5897	0.004	Yes	2.837	-0.004	3.0	GoodResponse	0	0.199	367.608	1	38	Target	AvoidedLoss	True
368.608	0.3	Lose2	0.5897	0.004	Yes	2.837	-0.004	3.0	GoodResponse	0	0.199	n/a	1	38	ButtonPress	AvoidedLoss	True
368.677	0.44	Lose2	0.5897	n/a	Yes	2.837	n/a	n/a	GoodResponse	0	n/a	n/a	1	38	Blank	AvoidedLoss	True
369.111	1.45	Lose2	0.5897	n/a	Yes	2.837	n/a	5.0	GoodResponse	0	0.029	368.14	1	38	Feedback	AvoidedLoss	True
370.565	2.837	Lose2	0.5897	n/a	Yes	2.837	n/a	n/a	GoodResponse	0	0.0	n/a	1	38	ISIslide	AvoidedLoss	True
373.424	0.25	Win2	0.6	0.0	Yes	2.976	0.024	n/a	GoodResponse	1	n/a	n/a	2	39	Cue	Win	True
373.675	4.1	Win2	0.6	0.0	Yes	2.976	0.001	n/a	GoodResponse	1	n/a	n/a	2	39	Fixation	Win	True
377.77	0.27	Win2	0.6	0.004	Yes	2.976	-0.004	3.0	GoodResponse	1	0.207	376.977	2	39	Target	Win	True
377.977	0.3	Win2	0.6	0.004	Yes	2.976	-0.004	3.0	GoodResponse	1	0.207	n/a	2	39	ButtonPress	Win	True
378.055	0.43	Win2	0.6	n/a	Yes	2.976	n/a	n/a	GoodResponse	1	n/a	n/a	2	39	Blank	Win	True
378.472	1.45	Win2	0.6	n/a	Yes	2.976	n/a	5.0	GoodResponse	1	0.034	377.506	2	39	Feedback	Win	True
379.927	2.976	Win2	0.6	n/a	Yes	2.976	n/a	n/a	GoodResponse	1	0.0	n/a	2	39	ISIslide	Win	True
382.919	0.25	Win2	0.6098	0.0	Yes	2.731	0.019	n/a	GoodResponse	1	n/a	n/a	3	40	Cue	Win	True
383.17	3.95	Win2	0.6098	0.0	Yes	2.731	0.001	n/a	GoodResponse	1	n/a	n/a	3	40	Fixation	Win	True
387.115	0.28	Win2	0.6098	0.004	Yes	2.731	-0.004	3.0	GoodResponse	1	0.24	386.355	3	40	Target	Win	True
387.355	0.3	Win2	0.6098	0.004	Yes	2.731	-0.004	3.0	GoodResponse	1	0.24	n/a	3	40	ButtonPress	Win	True
387.399	0.42	Win2	0.6098	n/a	Yes	2.731	n/a	n/a	GoodResponse	1	n/a	n/a	3	40	Blank	Win	True
387.817	1.45	Win2	0.6098	n/a	Yes	2.731	n/a	5.0	GoodResponse	1	0.005	386.822	3	40	Feedback	Win	True
389.271	2.731	Win2	0.6098	n/a	Yes	2.731	n/a	n/a	GoodResponse	1	0.0	n/a	3	40	ISIslide	Win	True
392.013	0.25	Win2	0.619	0.0	Yes	2.787	0.013	n/a	GoodResponse	1	n/a	n/a	4	41	Cue	Win	True
392.264	3.9	Win2	0.619	0.0	Yes	2.787	0.001	n/a	GoodResponse	1	n/a	n/a	4	41	Fixation	Win	True
396.159	0.29	Win2	0.619	0.004	Yes	2.787	-0.004	3.0	GoodResponse	1	0.155	395.314	4	41	Target	Win	True
396.314	0.3	Win2	0.619	0.004	Yes	2.787	-0.004	3.0	GoodResponse	1	0.155	n/a	4	41	ButtonPress	Win	True
396.459	0.41	Win2	0.619	n/a	Yes	2.787	n/a	n/a	GoodResponse	1	n/a	n/a	4	41	Blank	Win	True
396.861	1.45	Win2	0.619	n/a	Yes	2.787	n/a	5.0	GoodResponse	1	0.035	395.896	4	41	Feedback	Win	True
398.315	2.787	Win2	0.619	n/a	Yes	2.787	n/a	n/a	GoodResponse	1	0.0	n/a	4	41	ISIslide	Win	True
401.123	0.25	Control	0.6047	0.0	No	2.927	0.023	n/a	LatePress	0	n/a	n/a	4	42	Cue	Neutral	True
401.374	3.85	Control	0.6047	0.0	No	2.927	0.001	n/a	LatePress	0	n/a	n/a	4	42	Fixation	Neutral	True
405.219	0.3	Control	0.6047	0.004	No	2.927	-0.004	3.0	LatePress	0	0.301	404.52	4	42	Target	Neutral	True
405.52	0.4	Control	0.6047	n/a	No	2.927	n/a	n/a	LatePress	0	n/a	n/a	4	42	Blank	Neutral	True
405.52	0.3	Control	0.6047	0.004	No	2.927	-0.004	3.0	LatePress	0	0.301	n/a	4	42	ButtonPress	Neutral	True
405.921	1.45	Control	0.6047	n/a	No	2.927	n/a	5.0	LatePress	0	0.048	404.969	4	42	Feedback	Neutral	True
407.375	2.927	Control	0.6047	n/a	No	2.927	n/a	n/a	LatePress	0	0.0	n/a	4	42	ISIslide	Neutral	True
410.318	0.25	Win2	0.5909	0.0	No	3.182	0.018	n/a	NoResponse	0	n/a	n/a	4	43	Cue	MissedWin	False
410.568	4.0	Win2	0.5909	0.0	No	3.182	0.0	3.0	NoResponse	0	3.967	413.535	4	43	Fixation	MissedWin	False
414.535	0.3	Win2	0.5909	0.0	No	3.182	0.0	3.0	NoResponse	0	3.967	n/a	4	43	ButtonPress	MissedWin	False
414.564	0.31	Win2	0.5909	0.004	No	3.182	-0.004	3.0	NoResponse	0	0.368	413.932	4	43	Target	MissedWin	False
414.881	0.39	Win2	0.5909	n/a	No	3.182	n/a	n/a	NoResponse	0	n/a	n/a	4	43	Blank	MissedWin	False
414.932	0.3	Win2	0.5909	0.004	No	3.182	-0.004	3.0	NoResponse	0	0.368	n/a	4	43	ButtonPress	MissedWin	False
415.266	1.45	Win2	0.5909	n/a	No	3.182	n/a	5.0	NoResponse	0	0.02	414.286	4	43	Feedback	MissedWin	False
416.72	3.182	Win2	0.5909	n/a	No	3.182	n/a	n/a	NoResponse	0	0.0	n/a	4	43	ISIslide	MissedWin	False
419.93	0.25	Win2	0.6	0.0	Yes	2.97	0.03	n/a	GoodResponse	1	n/a	n/a	5	44	Cue	Win	True
420.18	4.0	Win2	0.6	0.0	Yes	2.97	0.0	n/a	GoodResponse	1	n/a	n/a	5	44	Fixation	Win	True
424.176	0.32	Win2	0.6	0.004	Yes	2.97	-0.004	3.0	GoodResponse	1	0.225	423.401	5	44	Target	Win	True
424.401	0.3	Win2	0.6	0.004	Yes	2.97	-0.004	3.0	GoodResponse	1	0.225	n/a	5	44	ButtonPress	Win	True
424.51	0.38	Win2	0.6	n/a	Yes	2.97	n/a	n/a	GoodResponse	1	n/a	n/a	5	44	Blank	Win	True
424.878	1.45	Win2	0.6	n/a	Yes	2.97	n/a	5.0	GoodResponse	1	0.017	423.895	5	44	Feedback	Win	True
426.332	2.97	Win2	0.6	n/a	Yes	2.97	n/a	n/a	GoodResponse	1	0.0	n/a	5	44	ISIslide	Win	True
429.324	0.25	Control	0.5870000000000001	0.0	No	2.876	0.024	n/a	NoResponse	0	n/a	n/a	5	45	Cue	Neutral	True
429.575	4.1	Control	0.5870000000000001	0.0	No	2.876	0.001	n/a	NoResponse	0	n/a	n/a	5	45	Fixation	Neutral	True
433.671	0.33	Control	0.5870000000000001	0.003	No	2.876	-0.003	3.0	NoResponse	0	0.343	433.014	5	45	Target	Neutral	True
434.005	0.37	Control	0.5870000000000001	n/a	No	2.876	n/a	n/a	NoResponse	0	n/a	n/a	5	45	Blank	Neutral	True
434.014	0.3	Control	0.5870000000000001	0.003	No	2.876	-0.003	3.0	NoResponse	0	0.343	n/a	5	45	ButtonPress	Neutral	True
434.373	1.45	Control	0.5870000000000001	n/a	No	2.876	n/a	5.0	NoResponse	0	0.034	433.407	5	45	Feedback	Neutral	True
435.827	2.876	Control	0.5870000000000001	n/a	No	2.876	n/a	n/a	NoResponse	0	0.0	n/a	5	45	ISIslide	Neutral	True
438.719	0.25	Lose2	0.5957	0.0	Yes	3.381	0.019	n/a	GoodResponse	0	n/a	n/a	5	46	Cue	AvoidedLoss	True
438.97	4.0	Lose2	0.5957	0.0	Yes	3.381	0.001	n/a	GoodResponse	0	n/a	n/a	5	46	Fixation	AvoidedLoss	True
442.965	0.34	Lose2	0.5957	0.004	Yes	3.381	-0.004	3.0	GoodResponse	0	0.196	442.161	5	46	Target	AvoidedLoss	True
443.161	0.3	Lose2	0.5957	0.004	Yes	3.381	-0.004	3.0	GoodResponse	0	0.196	n/a	5	46	ButtonPress	AvoidedLoss	True
443.316	0.36	Lose2	0.5957	n/a	Yes	3.381	n/a	n/a	GoodResponse	0	n/a	n/a	5	46	Blank	AvoidedLoss	True
443.667	1.45	Lose2	0.5957	n/a	Yes	3.381	n/a	5.0	GoodResponse	0	0.009	442.676	5	46	Feedback	AvoidedLoss	True
445.121	3.381	Lose2	0.5957	n/a	Yes	3.381	n/a	n/a	GoodResponse	0	0.0	n/a	5	46	ISIslide	AvoidedLoss	True
448.515	0.25	Lose2	0.6042000000000001	0.0	Yes	2.685	0.015	n/a	GoodResponse	0	n/a	n/a	5	47	Cue	AvoidedLoss	True
448.766	4.0	Lose2	0.6042000000000001	0.0	Yes	2.685	0.001	n/a	GoodResponse	0	n/a	n/a	5	47	Fixation	AvoidedLoss	True
452.761	0.35	Lose2	0.6042000000000001	0.004	Yes	2.685	-0.004	3.0	GoodResponse	0	0.307	452.068	5	47	Target	AvoidedLoss	True
453.068	0.3	Lose2	0.6042000000000001	0.004	Yes	2.685	-0.004	3.0	GoodResponse	0	0.307	n/a	5	47	ButtonPress	AvoidedLoss	True
453.112	0.35	Lose2	0.6042000000000001	n/a	Yes	2.685	n/a	n/a	GoodResponse	0	n/a	n/a	5	47	Blank	AvoidedLoss	True
453.463	1.45	Lose2	0.6042000000000001	n/a	Yes	2.685	n/a	5.0	GoodResponse	0	0.018	452.481	5	47	Feedback	AvoidedLoss	True
454.917	2.685	Lose2	0.6042000000000001	n/a	Yes	2.685	n/a	n/a	GoodResponse	0	0.0	n/a	5	47	ISIslide	AvoidedLoss	True
457.625	0.25	Lose2	0.6122	0.001	Yes	3.025	0.025	n/a	GoodResponse	0	n/a	n/a	5	48	Cue	AvoidedLoss	True
457.876	3.95	Lose2	0.6122	0.0	Yes	3.025	0.001	n/a	GoodResponse	0	n/a	n/a	5	48	Fixation	AvoidedLoss	True
461.821	0.36	Lose2	0.6122	0.004	Yes	3.025	-0.004	3.0	GoodResponse	0	0.195	461.016	5	48	Target	AvoidedLoss	True
462.016	0.3	Lose2	0.6122	0.004	Yes	3.025	-0.004	3.0	GoodResponse	0	0.195	n/a	5	48	ButtonPress	AvoidedLoss	True
462.189	0.34	Lose2	0.6122	n/a	Yes	3.025	n/a	n/a	GoodResponse	0	n/a	n/a	5	48	Blank	AvoidedLoss	True
462.523	1.45	Lose2	0.6122	n/a	Yes	3.025	n/a	5.0	GoodResponse	0	0.03	461.553	5	48	Feedback	AvoidedLoss	True
463.978	3.025	Lose2	0.6122	n/a	Yes	3.025	n/a	n/a	GoodResponse	0	0.0	n/a	5	48	ISIslide	AvoidedLoss	True
467.02	0.25	Control	0.62	0.0	Yes	2.88	0.02	n/a	GoodResponse	0	n/a	n/a	5	49	Cue	Neutral	False
467.271	4.0	Control	0.62	0.0	Yes	2.88	0.001	3.0	GoodResponse	0	0.239	466.51	5	49	Fixation	Neutral	False
467.51	0.3	Control	0.62	0.0	Yes	2.88	0.001	3.0	GoodResponse	0	0.239	n/a	5	49	ButtonPress	Neutral	False
471.266	0.37	Control	0.62	0.004	Yes	2.88	-0.004	3.0	GoodResponse	0	0.299	470.565	5	49	Target	Neutral	False
471.565	0.3	Control	0.62	0.004	Yes	2.88	-0.004	3.0	GoodResponse	0	0.299	n/a	5	49	ButtonPress	Neutral	False
471.651	0.33	Control	0.62	n/a	Yes	2.88	n/a	n/a	GoodResponse	0	n/a	n/a	5	49	Blank	Neutral	False
471.968	1.45	Control	0.62	n/a	Yes	2.88	n/a	5.0	GoodResponse	0	0.048	471.016	5	49	Feedback	Neutral	False
473.423	2.88	Control	0.62	n/a	Yes	2.88	n/a	3.0	GoodResponse	0	2.674	n/a	5	49	ISIslide	Neutral	False
476.298	0.25	Control	0.6275	0.0	Yes	2.802	-0.002	n/a	GoodResponse	0	n/a	n/a	5	50	Cue	Neutral	True
476.549	4.0	Control	0.6275	0.0	Yes	2.802	0.001	n/a	GoodResponse	0	n/a	n/a	5	50	Fixation	Neutral	True
480.544	0.38	Control	0.6275	0.004	Yes	2.802	-0.004	3.0	GoodResponse	0	0.228	479.772	5	50	Target	Neutral	True
480.772	0.3	Control	0.6275	0.004	Yes	2.802	-0.004	3.0	GoodResponse	0	0.228	n/a	5	50	ButtonPress	Neutral	True
480.928	0.32	Control	0.6275	n/a	Yes	2.802	n/a	n/a	GoodResponse	0	n/a	n/a	5	50	Blank	Neutral	True
481.246	1.45	Control	0.6275	n/a	Yes	2.802	n/a	5.0	GoodResponse	0	0.039	480.285	5	50	Feedback	Neutral	True
482.7	2.802	Control	0.6275	n/a	Yes	2.802	n/a	n/a	GoodResponse	0	0.0	n/a	5	50	ISIslide	Neutral	True
485.525	0.25	Control	0.6346	0.001	Yes	2.725	0.025	n/a	GoodResponse	0	n/a	n/a	5	51	Cue	Neutral	True
485.776	3.95	Control	0.6346	0.0	Yes	2.725	0.001	n/a	GoodResponse	0	n/a	n/a	5	51	Fixation	Neutral	True
489.721	0.39	Control	0.6346	0.004	Yes	2.725	-0.004	3.0	GoodResponse	0	0.211	488.932	5	51	Target	Neutral	True
489.932	0.3	Control	0.6346	0.004	Yes	2.725	-0.004	3.0	GoodResponse	0	0.211	n/a	5	51	ButtonPress	Neutral	True
490.123	0.31	Control	0.6346	n/a	Yes	2.725	n/a	n/a	GoodResponse	0	n/a	n/a	5	51	Blank	Neutral	True
490.423	1.45	Control	0.6346	n/a	Yes	2.725	n/a	5.0	GoodResponse	0	0.033	489.456	5	51	Feedback	Neutral	True
491.878	2.725	Control	0.6346	n/a	Yes	2.725	n/a	n/a	GoodResponse	0	0.0	n/a	5	51	ISIslide	Neutral	True
494.619	0.25	Control	0.6415000000000001	0.0	Yes	2.631	0.019	n/a	GoodResponse	0	n/a	n/a	5	52	Cue	Neutral	True
494.87	4.05	Control	0.6415000000000001	0.0	Yes	2.631	0.001	n/a	GoodResponse	0	n/a	n/a	5	52	Fixation	Neutral	True
498.915	0.4	Control	0.6415000000000001	0.004	Yes	2.631	-0.004	3.0	GoodResponse	0	0.198	498.113	5	52	Target	Neutral	True
499.113	0.3	Control	0.6415000000000001	0.004	Yes	2.631	-0.004	3.0	GoodResponse	0	0.198	n/a	5	52	ButtonPress	Neutral	True
499.317	0.3	Control	0.6415000000000001	n/a	Yes	2.631	n/a	n/a	GoodResponse	0	n/a	n/a	5	52	Blank	Neutral	True
499.618	1.45	Control	0.6415000000000001	n/a	Yes	2.631	n/a	5.0	GoodResponse	0	0.007	498.625	5	52	Feedback	Neutral	True
501.072	2.631	Control	0.6415000000000001	n/a	Yes	2.631	n/a	n/a	GoodResponse	0	0.0	n/a	5	52	ISIslide	Neutral	True
503.713	0.25	Win2	0.6481	0.0	Yes	2.937	0.013	n/a	GoodResponse	1	n/a	n/a	6	53	Cue	Win	True
503.964	4.05	Win2	0.6481	0.0	Yes	2.937	0.001	n/a	GoodResponse	1	n/a	n/a	6	53	Fixation	Win	True
508.009	0.41	Win2	0.6481	0.004	Yes	2.937	-0.004	3.0	GoodResponse	1	0.193	507.202	6	53	Target	Win	True
508.202	0.3	Win2	0.6481	0.004	Yes	2.937	-0.004	3.0	GoodResponse	1	0.193	n/a	6	53	ButtonPress	Win	True
508.427	0.29	Win2	0.6481	n/a	Yes	2.937	n/a	n/a	GoodResponse	1	n/a	n/a	6	53	Blank	Win	True
508.711	1.45	Win2	0.6481	n/a	Yes	2.937	n/a	5.0	GoodResponse	1	0.036	507.747	6	53	Feedback	Win	True
510.166	2.937	Win2	0.6481	n/a	Yes	2.937	n/a	n/a	GoodResponse	1	0.0	n/a	6	53	ISIslide	Win	True
513.125	0.25	Win2	0.6545000000000001	0.0	Yes	2.725	0.025	n/a	GoodResponse	1	n/a	n/a	7	54	Cue	Win	True
513.375	3.95	Win2	0.6545000000000001	0.0	Yes	2.725	0.0	n/a	GoodResponse	1	n/a	n/a	7	54	Fixation	Win	True
517.337	0.42	Win2	0.6545000000000001	0.0	Yes	2.725	0.012	3.0	GoodResponse	1	0.256	516.593	7	54	Target	Win	True
517.593	0.3	Win2	0.6545000000000001	0.0	Yes	2.725	0.012	3.0	GoodResponse	1	0.256	n/a	7	54	ButtonPress	Win	True
517.755	0.28	Win2	0.6545000000000001	n/a	Yes	2.725	n/a	n/a	GoodResponse	1	n/a	n/a	7	54	Blank	Win	True
518.023	1.45	Win2	0.6545000000000001	n/a	Yes	2.725	n/a	5.0	GoodResponse	1	0.042	517.065	7	54	Feedback	Win	True
519.477	2.725	Win2	0.6545000000000001	n/a	Yes	2.725	n/a	n/a	GoodResponse	1	0.0	n/a	7	54	ISIslide	Win	True
522.218	0.25	Control	0.6429	0.001	No	3.032	0.018	n/a	NoResponse	0	n/a	n/a	7	55	Cue	Neutral	False
522.469	3.95	Control	0.6429	0.0	No	3.032	0.001	n/a	NoResponse	0	n/a	n/a	7	55	Fixation	Neutral	False
526.414	0.43	Control	0.6429	0.004	No	3.032	-0.004	n/a	NoResponse	0	n/a	n/a	7	55	Target	Neutral	False
526.849	0.27	Control	0.6429	n/a	No	3.032	n/a	n/a	NoResponse	0	n/a	n/a	7	55	Blank	Neutral	False
527.116	1.45	Control	0.6429	n/a	No	3.032	n/a	5.0	NoResponse	0	0.022	526.138	7	55	Feedback	Neutral	False
528.571	3.032	Control	0.6429	n/a	No	3.032	n/a	n/a	NoResponse	0	0.0	n/a	7	55	ISIslide	Neutral	False
531.613	0.25	Control	0.6315999999999999	0.0	No	2.837	0.013	n/a	NoResponse	0	n/a	n/a	7	56	Cue	Neutral	False
531.864	3.95	Control	0.6315999999999999	0.0	No	2.837	0.001	n/a	NoResponse	0	n/a	n/a	7	56	Fixation	Neutral	False
535.809	0.44	Control	0.6315999999999999	0.004	No	2.837	-0.004	n/a	NoResponse	0	n/a	n/a	7	56	Target	Neutral	False
536.26	0.26	Control	0.6315999999999999	n/a	No	2.837	n/a	n/a	NoResponse	0	n/a	n/a	7	56	Blank	Neutral	False
536.511	1.45	Control	0.6315999999999999	n/a	No	2.837	n/a	5.0	NoResponse	0	0.041	535.552	7	56	Feedback	Neutral	False
537.965	2.837	Control	0.6315999999999999	n/a	No	2.837	n/a	n/a	NoResponse	0	0.0	n/a	7	56	ISIslide	Neutral	False
540.824	0.25	Control	0.6207	0.0	No	3.476	0.024	n/a	NoResponse	0	n/a	n/a	7	57	Cue	Neutral	False
541.075	4.0	Control	0.6207	0.0	No	3.476	0.001	n/a	NoResponse	0	n/a	n/a	7	57	Fixation	Neutral	False
545.07	0.45	Control	0.6207	0.004	No	3.476	-0.004	n/a	NoResponse	0	n/a	n/a	7	57	Target	Neutral	False
545.521	0.25	Control	0.6207	n/a	No	3.476	n/a	n/a	NoResponse	0	n/a	n/a	7	57	Blank	Neutral	False
545.772	1.45	Control	0.6207	n/a	No	3.476	n/a	5.0	NoResponse	0	0.048	544.82	7	57	Feedback	Neutral	False
547.226	3.476	Control	0.6207	n/a	No	3.476	n/a	n/a	NoResponse	0	0.0	n/a	7	57	ISIslide	Neutral	False
550.72	0.25	Win2	0.6102000000000001	0.0	No	2.73	0.02	n/a	NoResponse	0	n/a	n/a	7	58	Cue	MissedWin	False
550.971	4.05	Win2	0.6102000000000001	0.0	No	2.73	0.001	n/a	NoResponse	0	n/a	n/a	7	58	Fixation	MissedWin	False
555.016	0.46	Win2	0.6102000000000001	0.004	No	2.73	-0.004	n/a	NoResponse	0	n/a	n/a	7	58	Target	MissedWin	False
555.484	0.24	Win2	0.6102000000000001	n/a	No	2.73	n/a	n/a	NoResponse	0	n/a	n/a	7	58	Blank	MissedWin	False
555.718	1.45	Win2	0.6102000000000001	n/a	No	2.73	n/a	5.0	NoResponse	0	0.005	554.723	7	58	Feedback	MissedWin	False
557.173	2.73	Win2	0.6102000000000001	n/a	No	2.73	n/a	n/a	NoResponse	0	0.0	n/a	7	58	ISIslide	MissedWin	False
559.914	0.25	Lose2	0.6	0.0	No	2.686	0.014	n/a	NoResponse	-1	n/a	n/a	6	59	Cue	Loss	True
560.165	4.0	Lose2	0.6	0.0	No	2.686	0.001	n/a	NoResponse	-1	n/a	n/a	6	59	Fixation	Loss	True
564.16	0.47	Lose2	0.6	0.004	No	2.686	-0.004	3.0	NoResponse	-1	0.664	563.824	6	59	Target	Loss	True
564.645	0.23	Lose2	0.6	n/a	No	2.686	n/a	n/a	NoResponse	-1	n/a	n/a	6	59	Blank	Loss	True
564.824	0.3	Lose2	0.6	0.004	No	2.686	-0.004	3.0	NoResponse	-1	0.664	n/a	6	59	ButtonPress	Loss	True
564.862	1.45	Lose2	0.6	n/a	No	2.686	n/a	5.0	NoResponse	-1	0.031	563.893	6	59	Feedback	Loss	True
566.317	2.686	Lose2	0.6	n/a	No	2.686	n/a	n/a	NoResponse	-1	0.0	n/a	6	59	ISIslide	Loss	True
569.025	0.25	Control	0.6065999999999999	0.0	Yes	2.675	0.025	n/a	GoodResponse	0	n/a	n/a	6	60	Cue	Neutral	True
569.276	4.0	Control	0.6065999999999999	0.0	Yes	2.675	0.001	n/a	GoodResponse	0	n/a	n/a	6	60	Fixation	Neutral	True
573.271	0.48	Control	0.6065999999999999	0.004	Yes	2.675	-0.004	3.0	GoodResponse	0	0.244	572.515	6	60	Target	Neutral	True
573.515	0.3	Control	0.6065999999999999	0.004	Yes	2.675	-0.004	3.0	GoodResponse	0	0.244	n/a	6	60	ButtonPress	Neutral	True
573.756	0.22	Control	0.6065999999999999	n/a	Yes	2.675	n/a	n/a	GoodResponse	0	n/a	n/a	6	60	Blank	Neutral	True
573.973	1.45	Control	0.6065999999999999	n/a	Yes	2.675	n/a	5.0	GoodResponse	0	0.041	573.014	6	60	Feedback	Neutral	True
575.427	2.675	Control	0.6065999999999999	n/a	Yes	2.675	n/a	n/a	GoodResponse	0	0.0	n/a	6	60	ISIslide	Neutral	True
578.119	0.25	Lose2	0.5968	0.0	No	2.981	0.019	n/a	NoResponse	-1	n/a	n/a	5	61	Cue	Loss	False
578.369	4.0	Lose2	0.5968	0.001	No	2.981	0.0	n/a	NoResponse	-1	n/a	n/a	5	61	Fixation	Loss	False
582.365	0.49	Lose2	0.5968	0.004	No	2.981	-0.004	n/a	NoResponse	-1	n/a	n/a	5	61	Target	Loss	False
582.866	0.21	Lose2	0.5968	n/a	No	2.981	n/a	n/a	NoResponse	-1	n/a	n/a	5	61	Blank	Loss	False
583.067	1.45	Lose2	0.5968	n/a	No	2.981	n/a	5.0	NoResponse	-1	0.021	582.088	5	61	Feedback	Loss	False
584.521	2.981	Lose2	0.5968	n/a	No	2.981	n/a	n/a	NoResponse	-1	0.0	n/a	5	61	ISIslide	Loss	False
587.513	0.25	Lose2	0.6032	0.0	Yes	2.887	0.013	n/a	GoodResponse	0	n/a	n/a	5	62	Cue	AvoidedLoss	False
587.764	3.9	Lose2	0.6032	0.0	Yes	2.887	0.001	3.0	GoodResponse	0	3.304	590.068	5	62	Fixation	AvoidedLoss	False
591.068	0.3	Lose2	0.6032	0.0	Yes	2.887	0.001	3.0	GoodResponse	0	3.304	n/a	5	62	ButtonPress	AvoidedLoss	False
591.659	0.5	Lose2	0.6032	0.004	Yes	2.887	-0.004	3.0	GoodResponse	0	0.451	591.11	5	62	Target	AvoidedLoss	False
592.11	0.3	Lose2	0.6032	0.004	Yes	2.887	-0.004	3.0	GoodResponse	0	0.451	n/a	5	62	ButtonPress	AvoidedLoss	False
592.161	0.2	Lose2	0.6032	n/a	Yes	2.887	n/a	n/a	GoodResponse	0	n/a	n/a	5	62	Blank	AvoidedLoss	False
592.361	1.45	Lose2	0.6032	n/a	Yes	2.887	n/a	5.0	GoodResponse	0	0.044	591.405	5	62	Feedback	AvoidedLoss	False
593.816	2.887	Lose2	0.6032	n/a	Yes	2.887	n/a	n/a	GoodResponse	0	0.0	n/a	5	62	ISIslide	AvoidedLoss	False
596.724	0.25	Lose2	0.5938	0.0	No	2.626	0.024	n/a	NoResponse	-1	n/a	n/a	4	63	Cue	Loss	False
596.975	4.05	Lose2	0.5938	0.0	No	2.626	0.001	n/a	NoResponse	-1	n/a	n/a	4	63	Fixation	Loss	False
601.02	0.5	Lose2	0.5938	0.004	No	2.626	-0.004	n/a	NoResponse	-1	n/a	n/a	4	63	Target	Loss	False
601.522	0.2	Lose2	0.5938	n/a	No	2.626	n/a	n/a	NoResponse	-1	n/a	n/a	4	63	Blank	Loss	False
601.723	1.45	Lose2	0.5938	n/a	No	2.626	n/a	5.0	NoResponse	-1	0.048	600.771	4	63	Feedback	Loss	False
603.177	2.626	Lose2	0.5938	n/a	No	2.626	n/a	n/a	NoResponse	-1	0.0	n/a	4	63	ISIslide	Loss	False
605.818	0.25	Win2	0.5846	0.0	No	3.132	0.018	n/a	NoResponse	0	n/a	n/a	4	64	Cue	MissedWin	False
606.069	4.15	Win2	0.5846	0.0	No	3.132	0.001	n/a	NoResponse	0	n/a	n/a	4	64	Fixation	MissedWin	False
610.215	0.5	Win2	0.5846	0.003	No	3.132	-0.003	n/a	NoResponse	0	n/a	n/a	4	64	Target	MissedWin	False
610.716	0.2	Win2	0.5846	n/a	No	3.132	n/a	n/a	NoResponse	0	n/a	n/a	4	64	Blank	MissedWin	False
610.917	1.45	Win2	0.5846	n/a	No	3.132	n/a	5.0	NoResponse	0	0.024	609.941	4	64	Feedback	MissedWin	False
612.371	3.132	Win2	0.5846	n/a	No	3.132	n/a	n/a	NoResponse	0	0.0	n/a	4	64	ISIslide	MissedWin	False
615.514	0.25	Control	0.5909	0.0	Yes	2.786	0.014	n/a	GoodResponse	0	n/a	n/a	4	65	Cue	Neutral	True
615.764	4.0	Control	0.5909	0.001	Yes	2.786	0.0	n/a	GoodResponse	0	n/a	n/a	4	65	Fixation	Neutral	True
619.76	0.5	Control	0.5909	0.004	Yes	2.786	-0.004	3.0	GoodResponse	0	0.261	619.021	4	65	Target	Neutral	True
620.021	0.3	Control	0.5909	0.004	Yes	2.786	-0.004	3.0	GoodResponse	0	0.261	n/a	4	65	ButtonPress	Neutral	True
620.261	0.2	Control	0.5909	n/a	Yes	2.786	n/a	n/a	GoodResponse	0	n/a	n/a	4	65	Blank	Neutral	True
620.462	1.45	Control	0.5909	n/a	Yes	2.786	n/a	5.0	GoodResponse	0	0.04	619.502	4	65	Feedback	Neutral	True
621.916	2.786	Control	0.5909	n/a	Yes	2.786	n/a	n/a	GoodResponse	0	0.0	n/a	4	65	ISIslide	Neutral	True
624.725	0.25	Win2	0.597	0.0	Yes	2.775	0.025	n/a	GoodResponse	1	n/a	n/a	5	66	Cue	Win	False
624.975	3.9	Win2	0.597	0.0	Yes	2.775	0.0	3.0	GoodResponse	1	2.969	626.944	5	66	Fixation	Win	False
627.944	0.3	Win2	0.597	0.0	Yes	2.775	0.0	3.0	GoodResponse	1	2.969	n/a	5	66	ButtonPress	Win	False
628.887	0.5	Win2	0.597	0.0	Yes	2.775	0.012	3.0	GoodResponse	1	0.209	628.096	5	66	Target	Win	False
629.096	0.3	Win2	0.597	0.0	Yes	2.775	0.012	3.0	GoodResponse	1	0.209	n/a	5	66	ButtonPress	Win	False
629.372	0.2	Win2	0.597	n/a	Yes	2.775	n/a	n/a	GoodResponse	1	n/a	n/a	5	66	Blank	Win	False
629.572	1.45	Win2	0.597	n/a	Yes	2.775	n/a	5.0	GoodResponse	1	0.003	628.575	5	66	Feedback	Win	False
631.027	2.775	Win2	0.597	n/a	Yes	2.775	n/a	n/a	GoodResponse	1	0.0	n/a	5	66	ISIslide	Win	False
633.818	0.25	Control	0.6029	0.0	Yes	2.732	0.018	n/a	GoodResponse	0	n/a	n/a	5	67	Cue	Neutral	True
634.069	3.95	Control	0.6029	0.0	Yes	2.732	0.001	n/a	GoodResponse	0	n/a	n/a	5	67	Fixation	Neutral	True
638.014	0.5	Control	0.6029	0.004	Yes	2.732	-0.004	3.0	GoodResponse	0	0.25	637.264	5	67	Target	Neutral	True
638.264	0.3	Control	0.6029	0.004	Yes	2.732	-0.004	3.0	GoodResponse	0	0.25	n/a	5	67	ButtonPress	Neutral	True
638.516	0.2	Control	0.6029	n/a	Yes	2.732	n/a	n/a	GoodResponse	0	n/a	n/a	5	67	Blank	Neutral	True
638.716	1.45	Control	0.6029	n/a	Yes	2.732	n/a	5.0	GoodResponse	0	0.03	637.746	5	67	Feedback	Neutral	True
640.171	2.732	Control	0.6029	n/a	Yes	2.732	n/a	n/a	GoodResponse	0	0.0	n/a	5	67	ISIslide	Neutral	True
642.929	0.25	Win2	0.5942000000000001	0.0	No	3.071	0.029	n/a	NoResponse	0	n/a	n/a	5	68	Cue	MissedWin	False
643.18	4.0	Win2	0.5942000000000001	0.0	No	3.071	0.001	n/a	NoResponse	0	n/a	n/a	5	68	Fixation	MissedWin	False
647.175	0.5	Win2	0.5942000000000001	0.004	No	3.071	-0.004	n/a	NoResponse	0	n/a	n/a	5	68	Target	MissedWin	False
647.676	0.2	Win2	0.5942000000000001	n/a	No	3.071	n/a	n/a	NoResponse	0	n/a	n/a	5	68	Blank	MissedWin	False
647.877	1.45	Win2	0.5942000000000001	n/a	No	3.071	n/a	5.0	NoResponse	0	0.039	646.916	5	68	Feedback	MissedWin	False
649.331	3.071	Win2	0.5942000000000001	n/a	No	3.071	n/a	n/a	NoResponse	0	0.0	n/a	5	68	ISIslide	MissedWin	False
652.424	0.25	Win2	0.6	0.0	Yes	3.226	0.024	n/a	GoodResponse	1	n/a	n/a	6	69	Cue	Win	True
652.675	3.95	Win2	0.6	0.0	Yes	3.226	0.001	n/a	GoodResponse	1	n/a	n/a	6	69	Fixation	Win	True
656.62	0.5	Win2	0.6	0.004	Yes	3.226	-0.004	3.0	GoodResponse	1	0.353	655.973	6	69	Target	Win	True
656.973	0.3	Win2	0.6	0.004	Yes	3.226	-0.004	3.0	GoodResponse	1	0.353	n/a	6	69	ButtonPress	Win	True
657.121	0.2	Win2	0.6	n/a	Yes	3.226	n/a	n/a	GoodResponse	1	n/a	n/a	6	69	Blank	Win	True
657.322	1.45	Win2	0.6	n/a	Yes	3.226	n/a	5.0	GoodResponse	1	0.008	656.33	6	69	Feedback	Win	True
658.776	3.226	Win2	0.6	n/a	Yes	3.226	n/a	n/a	GoodResponse	1	0.0	n/a	6	69	ISIslide	Win	True
662.019	0.25	Lose2	0.5915	0.0	No	3.031	0.019	n/a	NoResponse	-1	n/a	n/a	5	70	Cue	Loss	False
662.27	4.05	Lose2	0.5915	0.0	No	3.031	0.001	n/a	NoResponse	-1	n/a	n/a	5	70	Fixation	Loss	False
666.315	0.5	Lose2	0.5915	0.004	No	3.031	-0.004	n/a	NoResponse	-1	n/a	n/a	5	70	Target	Loss	False
666.817	0.2	Lose2	0.5915	n/a	No	3.031	n/a	n/a	NoResponse	-1	n/a	n/a	5	70	Blank	Loss	False
667.018	1.45	Lose2	0.5915	n/a	No	3.031	n/a	5.0	NoResponse	-1	0.02	666.038	5	70	Feedback	Loss	False
668.472	3.031	Lose2	0.5915	n/a	No	3.031	n/a	n/a	NoResponse	-1	0.0	n/a	5	70	ISIslide	Loss	False
671.514	0.25	Win2	0.5972	0.0	Yes	2.736	0.014	n/a	GoodResponse	1	n/a	n/a	6	71	Cue	Win	False
671.765	4.05	Win2	0.5972	0.0	Yes	2.736	0.001	3.0	GoodResponse	1	0.172	670.937	6	71	Fixation	Win	False
671.937	0.3	Win2	0.5972	0.0	Yes	2.736	0.001	3.0	GoodResponse	1	0.172	n/a	6	71	ButtonPress	Win	False
675.81	0.5	Win2	0.5972	0.004	Yes	2.736	-0.004	3.0	GoodResponse	1	0.182	674.992	6	71	Target	Win	False
675.992	0.3	Win2	0.5972	0.004	Yes	2.736	-0.004	3.0	GoodResponse	1	0.182	n/a	6	71	ButtonPress	Win	False
676.312	0.2	Win2	0.5972	n/a	Yes	2.736	n/a	n/a	GoodResponse	1	n/a	n/a	6	71	Blank	Win	False
676.513	1.45	Win2	0.5972	n/a	Yes	2.736	n/a	5.0	GoodResponse	1	0.037	675.55	6	71	Feedback	Win	False
677.967	2.736	Win2	0.5972	n/a	Yes	2.736	n/a	n/a	GoodResponse	1	0.0	n/a	6	71	ISIslide	Win	False
680.725	0.25	Win2	0.6027	0.0	Yes	2.775	0.025	n/a	GoodResponse	1	n/a	n/a	7	72	Cue	Win	True
680.976	4.1	Win2	0.6027	0.0	Yes	2.775	0.001	n/a	GoodResponse	1	n/a	n/a	7	72	Fixation	Win	True
685.071	0.5	Win2	0.6027	0.004	Yes	2.775	-0.004	3.0	GoodResponse	1	0.235	684.306	7	72	Target	Win	True
685.306	0.3	Win2	0.6027	0.004	Yes	2.775	-0.004	3.0	GoodResponse	1	0.235	n/a	7	72	ButtonPress	Win	True
685.573	0.2	Win2	0.6027	n/a	Yes	2.775	n/a	n/a	GoodResponse	1	n/a	n/a	7	72	Blank	Win	True
685.774	1.45	Win2	0.6027	n/a	Yes	2.775	n/a	5.0	GoodResponse	1	0.044	684.818	7	72	Feedback	Win	True
687.228	2.775	Win2	0.6027	n/a	Yes	2.775	n/a	n/a	GoodResponse	1	0.0	n/a	7	72	ISIslide	Win	True
690.02	0.25	Win2	0.6081	0.0	Yes	2.68	0.02	n/a	GoodResponse	1	n/a	n/a	8	73	Cue	Win	False
690.27	4.0	Win2	0.6081	0.0	Yes	2.68	0.0	3.0	GoodResponse	1	1.681	690.951	8	73	Fixation	Win	False
691.951	0.3	Win2	0.6081	0.0	Yes	2.68	0.0	3.0	GoodResponse	1	1.681	n/a	8	73	ButtonPress	Win	False
694.266	0.5	Win2	0.6081	0.004	Yes	2.68	-0.004	3.0	GoodResponse	1	0.236	693.502	8	73	Target	Win	False
694.502	0.3	Win2	0.6081	0.004	Yes	2.68	-0.004	3.0	GoodResponse	1	0.236	n/a	8	73	ButtonPress	Win	False
694.767	0.2	Win2	0.6081	n/a	Yes	2.68	n/a	n/a	GoodResponse	1	n/a	n/a	8	73	Blank	Win	False
694.968	1.45	Win2	0.6081	n/a	Yes	2.68	n/a	5.0	GoodResponse	1	0.02	693.988	8	73	Feedback	Win	False
696.422	2.68	Win2	0.6081	n/a	Yes	2.68	n/a	n/a	GoodResponse	1	0.0	n/a	8	73	ISIslide	Win	False
699.113	0.25	Lose2	0.6133	0.0	Yes	2.637	0.013	n/a	GoodResponse	0	n/a	n/a	8	74	Cue	AvoidedLoss	True
699.364	4.05	Lose2	0.6133	0.0	Yes	2.637	0.001	n/a	GoodResponse	0	n/a	n/a	8	74	Fixation	AvoidedLoss	True
703.41	0.5	Lose2	0.6133	0.003	Yes	2.637	-0.003	3.0	GoodResponse	0	0.298	702.708	8	74	Target	AvoidedLoss	True
703.708	0.3	Lose2	0.6133	0.003	Yes	2.637	-0.003	3.0	GoodResponse	0	0.298	n/a	8	74	ButtonPress	AvoidedLoss	True
703.911	0.2	Lose2	0.6133	n/a	Yes	2.637	n/a	n/a	GoodResponse	0	n/a	n/a	8	74	Blank	AvoidedLoss	True
704.112	1.45	Lose2	0.6133	n/a	Yes	2.637	n/a	5.0	GoodResponse	0	0.047	703.159	8	74	Feedback	AvoidedLoss	True
705.566	2.637	Lose2	0.6133	n/a	Yes	2.637	n/a	n/a	GoodResponse	0	0.0	n/a	8	74	ISIslide	AvoidedLoss	True
708.224	0.25	Lose2	0.6184000000000001	0.0	Yes	2.926	0.024	n/a	GoodResponse	0	n/a	n/a	8	75	Cue	AvoidedLoss	True
708.475	3.95	Lose2	0.6184000000000001	0.0	Yes	2.926	0.001	n/a	GoodResponse	0	n/a	n/a	8	75	Fixation	AvoidedLoss	True
712.42	0.5	Lose2	0.6184000000000001	0.004	Yes	2.926	-0.004	3.0	GoodResponse	0	0.224	711.644	8	75	Target	AvoidedLoss	True
712.644	0.3	Lose2	0.6184000000000001	0.004	Yes	2.926	-0.004	3.0	GoodResponse	0	0.224	n/a	8	75	ButtonPress	AvoidedLoss	True
712.921	0.2	Lose2	0.6184000000000001	n/a	Yes	2.926	n/a	n/a	GoodResponse	0	n/a	n/a	8	75	Blank	AvoidedLoss	True
713.122	1.45	Lose2	0.6184000000000001	n/a	Yes	2.926	n/a	5.0	GoodResponse	0	0.013	712.135	8	75	Feedback	AvoidedLoss	True
714.576	2.926	Lose2	0.6184000000000001	n/a	Yes	2.926	n/a	n/a	GoodResponse	0	0.0	n/a	8	75	ISIslide	AvoidedLoss	True
717.518	0.25	Control	0.6234000000000001	0.0	Yes	3.232	0.018	n/a	GoodResponse	0	n/a	n/a	8	76	Cue	Neutral	True
717.769	4.05	Control	0.6234000000000001	0.0	Yes	3.232	0.001	n/a	GoodResponse	0	n/a	n/a	8	76	Fixation	Neutral	True
721.814	0.5	Control	0.6234000000000001	0.004	Yes	3.232	-0.004	3.0	GoodResponse	0	0.407	721.221	8	76	Target	Neutral	True
722.221	0.3	Control	0.6234000000000001	0.004	Yes	3.232	-0.004	3.0	GoodResponse	0	0.407	n/a	8	76	ButtonPress	Neutral	True
722.316	0.2	Control	0.6234000000000001	n/a	Yes	3.232	n/a	n/a	GoodResponse	0	n/a	n/a	8	76	Blank	Neutral	True
722.517	1.45	Control	0.6234000000000001	n/a	Yes	3.232	n/a	5.0	GoodResponse	0	0.032	721.549	8	76	Feedback	Neutral	True
723.971	3.232	Control	0.6234000000000001	n/a	Yes	3.232	n/a	n/a	GoodResponse	0	0.0	n/a	8	76	ISIslide	Neutral	True
727.214	0.25	Lose2	0.6154	0.0	No	2.586	0.014	n/a	NoResponse	-1	n/a	n/a	7	77	Cue	Loss	False
727.465	3.95	Lose2	0.6154	0.0	No	2.586	0.001	n/a	NoResponse	-1	n/a	n/a	7	77	Fixation	Loss	False
731.41	0.5	Lose2	0.6154	0.004	No	2.586	-0.004	n/a	NoResponse	-1	n/a	n/a	7	77	Target	Loss	False
731.911	0.2	Lose2	0.6154	n/a	No	2.586	n/a	n/a	NoResponse	-1	n/a	n/a	7	77	Blank	Loss	False
732.112	1.45	Lose2	0.6154	n/a	No	2.586	n/a	5.0	NoResponse	-1	0.047	731.159	7	77	Feedback	Loss	False
733.566	2.586	Lose2	0.6154	n/a	No	2.586	n/a	n/a	NoResponse	-1	0.0	n/a	7	77	ISIslide	Loss	False
