onset	duration	cue_type	current_mean_accuracy	duration_error	is_hit	isi_adjusted	onset_delay	response	response_type	reward	rt	rt_time	total_reward	trial_number	trial_phase	trial_type	one_press
11.101	0.25	Control	1.0	0.0	Yes	2.949	0.001	n/a	GoodResponse	0	n/a	n/a	0	0	Cue	Neutral	True
11.351	3.85	Control	1.0	0.0	Yes	2.949	0.0	n/a	GoodResponse	0	n/a	n/a	0	0	Fixation	Neutral	True
15.2	0.4	Control	1.0	0.001	Yes	2.949	-0.001	2.0	GoodResponse	0	0.275	14.475	0	0	Target	Neutral	True
15.475	0.3	Control	1.0	0.001	Yes	2.949	-0.001	2.0	GoodResponse	0	0.275	n/a	0	0	ButtonPress	Neutral	True
15.6	0.3	Control	1.0	n/a	Yes	2.949	n/a	n/a	GoodResponse	0	n/a	n/a	0	0	Blank	Neutral	True
15.9	1.45	Control	1.0	n/a	Yes	2.949	n/a	5.0	GoodResponse	0	0.029	14.929	0	0	Feedback	Neutral	True
17.349	2.949	Control	1.0	n/a	Yes	2.949	n/a	n/a	GoodResponse	0	0.0	n/a	0	0	ISIslide	Neutral	True
20.315	0.25	Lose2	1.0	0.0	Yes	2.785	0.015	n/a	GoodResponse	0	n/a	n/a	0	1	Cue	AvoidedLoss	True
20.565	4.0	Lose2	1.0	0.0	Yes	2.785	0.0	n/a	GoodResponse	0	n/a	n/a	0	1	Fixation	AvoidedLoss	True
24.563	0.39	Lose2	1.0	0.002	Yes	2.785	-0.002	2.0	GoodResponse	0	0.284	23.847	0	1	Target	AvoidedLoss	True
24.847	0.3	Lose2	1.0	0.002	Yes	2.785	-0.002	2.0	GoodResponse	0	0.284	n/a	0	1	ButtonPress	AvoidedLoss	True
24.963	0.31	Lose2	1.0	n/a	Yes	2.785	n/a	n/a	GoodResponse	0	n/a	n/a	0	1	Blank	AvoidedLoss	True
25.263	1.45	Lose2	1.0	n/a	Yes	2.785	n/a	5.0	GoodResponse	0	0.032	24.295	0	1	Feedback	AvoidedLoss	True
26.712	2.785	Lose2	1.0	n/a	Yes	2.785	n/a	n/a	GoodResponse	0	0.0	n/a	0	1	ISIslide	AvoidedLoss	True
29.511	0.25	Control	1.0	0.0	Yes	2.589	0.011	n/a	GoodResponse	0	n/a	n/a	0	2	Cue	Neutral	True
29.761	4.1	Control	1.0	0.0	Yes	2.589	0.0	n/a	GoodResponse	0	n/a	n/a	0	2	Fixation	Neutral	True
33.86	0.38	Control	1.0	0.001	Yes	2.589	-0.001	2.0	GoodResponse	0	0.312	33.172	0	2	Target	Neutral	True
34.172	0.3	Control	1.0	0.001	Yes	2.589	-0.001	2.0	GoodResponse	0	0.312	n/a	0	2	ButtonPress	Neutral	True
34.243	0.32	Control	1.0	n/a	Yes	2.589	n/a	n/a	GoodResponse	0	n/a	n/a	0	2	Blank	Neutral	True
34.56	1.45	Control	1.0	n/a	Yes	2.589	n/a	5.0	GoodResponse	0	0.006	33.566	0	2	Feedback	Neutral	True
36.009	2.589	Control	1.0	n/a	Yes	2.589	n/a	n/a	GoodResponse	0	0.0	n/a	0	2	ISIslide	Neutral	True
38.625	0.25	Win2	1.0	0.0	Yes	2.825	0.025	n/a	GoodResponse	1	n/a	n/a	1	3	Cue	Win	True
38.875	3.95	Win2	1.0	0.0	Yes	2.825	0.0	n/a	GoodResponse	1	n/a	n/a	1	3	Fixation	Win	True
42.823	0.37	Win2	1.0	0.002	Yes	2.825	-0.002	2.0	GoodResponse	1	0.295	42.118	1	3	Target	Win	True
43.118	0.3	Win2	1.0	0.002	Yes	2.825	-0.002	2.0	GoodResponse	1	0.295	n/a	1	3	ButtonPress	Win	True
43.206	0.33	Win2	1.0	n/a	Yes	2.825	n/a	n/a	GoodResponse	1	n/a	n/a	1	3	Blank	Win	True
43.523	1.45	Win2	1.0	n/a	Yes	2.825	n/a	5.0	GoodResponse	1	0.015	42.538	1	3	Feedback	Win	True
44.973	2.825	Win2	1.0	n/a	Yes	2.825	n/a	n/a	GoodResponse	1	0.0	n/a	1	3	ISIslide	Win	True
47.822	0.25	Win2	1.0	0.0	Yes	3.278	0.022	n/a	GoodResponse	1	n/a	n/a	2	4	Cue	Win	True
48.071	4.0	Win2	1.0	0.001	Yes	3.278	-0.001	n/a	GoodResponse	1	n/a	n/a	2	4	Fixation	Win	True
52.07	0.36	Win2	1.0	0.002	Yes	3.278	-0.002	2.0	GoodResponse	1	0.257	51.327	2	4	Target	Win	True
52.327	0.3	Win2	1.0	0.002	Yes	3.278	-0.002	2.0	GoodResponse	1	0.257	n/a	2	4	ButtonPress	Win	True
52.437	0.34	Win2	1.0	n/a	Yes	3.278	n/a	n/a	GoodResponse	1	n/a	n/a	2	4	Blank	Win	True
52.77	1.45	Win2	1.0	n/a	Yes	3.278	n/a	5.0	GoodResponse	1	0.037	51.807	2	4	Feedback	Win	True
54.219	3.278	Win2	1.0	n/a	Yes	3.278	n/a	n/a	GoodResponse	1	0.0	n/a	2	4	ISIslide	Win	True
57.518	0.25	Win2	1.0	0.0	Yes	2.782	0.018	n/a	GoodResponse	1	n/a	n/a	3	5	Cue	Win	True
57.768	4.0	Win2	1.0	0.0	Yes	2.782	0.0	n/a	GoodResponse	1	n/a	n/a	3	5	Fixation	Win	True
61.767	0.35	Win2	1.0	0.001	Yes	2.782	-0.001	2.0	GoodResponse	1	0.271	61.038	3	5	Target	Win	True
62.038	0.3	Win2	1.0	0.001	Yes	2.782	-0.001	2.0	GoodResponse	1	0.271	n/a	3	5	ButtonPress	Win	True
62.116	0.35	Win2	1.0	n/a	Yes	2.782	n/a	n/a	GoodResponse	1	n/a	n/a	3	5	Blank	Win	True
62.466	1.45	Win2	1.0	n/a	Yes	2.782	n/a	5.0	GoodResponse	1	0.048	61.514	3	5	Feedback	Win	True
63.916	2.782	Win2	1.0	n/a	Yes	2.782	n/a	n/a	GoodResponse	1	0.0	n/a	3	5	ISIslide	Win	True
66.715	0.25	Lose2	1.0	0.0	Yes	2.735	0.015	n/a	GoodResponse	0	n/a	n/a	3	6	Cue	AvoidedLoss	True
66.965	3.95	Lose2	1.0	0.0	Yes	2.735	0.0	n/a	GoodResponse	0	n/a	n/a	3	6	Fixation	AvoidedLoss	True
70.913	0.34	Lose2	1.0	0.002	Yes	2.735	-0.002	2.0	GoodResponse	0	0.286	70.199	3	6	Target	AvoidedLoss	True
71.199	0.3	Lose2	1.0	0.002	Yes	2.735	-0.002	2.0	GoodResponse	0	0.286	n/a	3	6	ButtonPress	AvoidedLoss	True
71.263	0.36	Lose2	1.0	n/a	Yes	2.735	n/a	n/a	GoodResponse	0	n/a	n/a	3	6	Blank	AvoidedLoss	True
71.613	1.45	Lose2	1.0	n/a	Yes	2.735	n/a	5.0	GoodResponse	0	0.023	70.636	3	6	Feedback	AvoidedLoss	True
73.063	2.735	Lose2	1.0	n/a	Yes	2.735	n/a	n/a	GoodResponse	0	0.0	n/a	3	6	ISIslide	AvoidedLoss	True
75.828	0.25	Lose2	1.0	0.0	Yes	4.022	0.028	n/a	GoodResponse	0	n/a	n/a	3	7	Cue	AvoidedLoss	True
76.078	4.05	Lose2	1.0	0.0	Yes	4.022	0.0	n/a	GoodResponse	0	n/a	n/a	3	7	Fixation	AvoidedLoss	True
80.127	0.33	Lose2	1.0	0.001	Yes	4.022	-0.001	2.0	GoodResponse	0	0.305	79.432	3	7	Target	AvoidedLoss	True
80.432	0.3	Lose2	1.0	0.001	Yes	4.022	-0.001	2.0	GoodResponse	0	0.305	n/a	3	7	ButtonPress	AvoidedLoss	True
80.46	0.37	Lose2	1.0	n/a	Yes	4.022	n/a	n/a	GoodResponse	0	n/a	n/a	3	7	Blank	AvoidedLoss	True
80.826	1.45	Lose2	1.0	n/a	Yes	4.022	n/a	5.0	GoodResponse	0	0.029	79.855	3	7	Feedback	AvoidedLoss	True
82.276	4.022	Lose2	1.0	n/a	Yes	4.022	n/a	n/a	GoodResponse	0	0.0	n/a	3	7	ISIslide	AvoidedLoss	True
86.324	0.25	Lose2	0.8889	0.001	No	3.026	0.024	n/a	NoResponse	-1	n/a	n/a	2	8	Cue	Loss	True
86.574	3.95	Lose2	0.8889	0.0	No	3.026	0.0	n/a	NoResponse	-1	n/a	n/a	2	8	Fixation	Loss	True
90.523	0.32	Lose2	0.8889	0.001	No	3.026	-0.001	2.0	NoResponse	-1	0.335	89.858	2	8	Target	Loss	True
90.84	0.38	Lose2	0.8889	n/a	No	3.026	n/a	n/a	NoResponse	-1	n/a	n/a	2	8	Blank	Loss	True
90.858	0.3	Lose2	0.8889	0.001	No	3.026	-0.001	2.0	NoResponse	-1	0.335	n/a	2	8	ButtonPress	Loss	True
91.223	1.45	Lose2	0.8889	n/a	No	3.026	n/a	5.0	NoResponse	-1	0.022	90.245	2	8	Feedback	Loss	True
92.672	3.026	Lose2	0.8889	n/a	No	3.026	n/a	n/a	NoResponse	-1	0.0	n/a	2	8	ISIslide	Loss	True
95.721	0.25	Lose2	0.8	0.0	No	3.129	0.021	n/a	LatePress	-1	n/a	n/a	1	9	Cue	Loss	True
95.971	3.95	Lose2	0.8	0.0	No	3.129	0.0	n/a	LatePress	-1	n/a	n/a	1	9	Fixation	Loss	True
99.92	0.31	Lose2	0.8	0.001	No	3.129	-0.001	2.0	LatePress	-1	0.313	99.233	1	9	Target	Loss	True
100.233	0.3	Lose2	0.8	0.001	No	3.129	-0.001	2.0	LatePress	-1	0.313	n/a	1	9	ButtonPress	Loss	True
100.236	0.39	Lose2	0.8	n/a	No	3.129	n/a	n/a	LatePress	-1	n/a	n/a	1	9	Blank	Loss	True
100.619	1.45	Lose2	0.8	n/a	No	3.129	n/a	5.0	LatePress	-1	0.041	99.66	1	9	Feedback	Loss	True
102.069	3.129	Lose2	0.8	n/a	No	3.129	n/a	n/a	LatePress	-1	0.0	n/a	1	9	ISIslide	Loss	True
105.218	0.25	Control	0.8181999999999999	0.0	Yes	3.282	0.018	n/a	GoodResponse	0	n/a	n/a	1	10	Cue	Neutral	True
105.468	4.0	Control	0.8181999999999999	0.0	Yes	3.282	0.0	n/a	GoodResponse	0	n/a	n/a	1	10	Fixation	Neutral	True
109.466	0.3	Control	0.8181999999999999	0.002	Yes	3.282	-0.002	2.0	GoodResponse	0	0.289	108.755	1	10	Target	Neutral	True
109.755	0.3	Control	0.8181999999999999	0.002	Yes	3.282	-0.002	2.0	GoodResponse	0	0.289	n/a	1	10	ButtonPress	Neutral	True
109.766	0.4	Control	0.8181999999999999	n/a	Yes	3.282	n/a	n/a	GoodResponse	0	n/a	n/a	1	10	Blank	Neutral	True
110.166	1.45	Control	0.8181999999999999	n/a	Yes	3.282	n/a	5.0	GoodResponse	0	0.006	109.172	1	10	Feedback	Neutral	True
111.615	3.282	Control	0.8181999999999999	n/a	Yes	3.282	n/a	n/a	GoodResponse	0	0.0	n/a	1	10	ISIslide	Neutral	True
114.914	0.25	Lose2	0.8332999999999999	0.0	Yes	2.736	0.014	n/a	GoodResponse	0	n/a	n/a	1	11	Cue	AvoidedLoss	True
115.164	4.05	Lose2	0.8332999999999999	0.0	Yes	2.736	0.0	n/a	GoodResponse	0	n/a	n/a	1	11	Fixation	AvoidedLoss	True
119.213	0.29	Lose2	0.8332999999999999	0.001	Yes	2.736	-0.001	2.0	GoodResponse	0	0.275	118.488	1	11	Target	AvoidedLoss	True
119.488	0.3	Lose2	0.8332999999999999	0.001	Yes	2.736	-0.001	2.0	GoodResponse	0	0.275	n/a	1	11	ButtonPress	AvoidedLoss	True
119.513	0.41	Lose2	0.8332999999999999	n/a	Yes	2.736	n/a	n/a	GoodResponse	0	n/a	n/a	1	11	Blank	AvoidedLoss	True
119.913	1.45	Lose2	0.8332999999999999	n/a	Yes	2.736	n/a	5.0	GoodResponse	0	0.015	118.928	1	11	Feedback	AvoidedLoss	True
121.362	2.736	Lose2	0.8332999999999999	n/a	Yes	2.736	n/a	n/a	GoodResponse	0	0.0	n/a	1	11	ISIslide	AvoidedLoss	True
124.128	0.25	Control	0.8462000000000001	0.0	Yes	2.972	0.028	n/a	GoodResponse	0	n/a	n/a	1	12	Cue	Neutral	True
124.378	3.9	Control	0.8462000000000001	0.0	Yes	2.972	0.0	n/a	GoodResponse	0	n/a	n/a	1	12	Fixation	Neutral	True
128.276	0.28	Control	0.8462000000000001	0.002	Yes	2.972	-0.002	2.0	GoodResponse	0	0.252	127.528	1	12	Target	Neutral	True
128.528	0.3	Control	0.8462000000000001	0.002	Yes	2.972	-0.002	2.0	GoodResponse	0	0.252	n/a	1	12	ButtonPress	Neutral	True
128.559	0.42	Control	0.8462000000000001	n/a	Yes	2.972	n/a	n/a	GoodResponse	0	n/a	n/a	1	12	Blank	Neutral	True
128.976	1.45	Control	0.8462000000000001	n/a	Yes	2.972	n/a	5.0	GoodResponse	0	0.025	128.001	1	12	Feedback	Neutral	True
130.425	2.972	Control	0.8462000000000001	n/a	Yes	2.972	n/a	n/a	GoodResponse	0	0.0	n/a	1	12	ISIslide	Neutral	True
133.424	0.25	Control	0.8571	0.0	Yes	2.776	0.024	n/a	GoodResponse	0	n/a	n/a	1	13	Cue	Neutral	True
133.674	4.0	Control	0.8571	0.0	Yes	2.776	0.0	n/a	GoodResponse	0	n/a	n/a	1	13	Fixation	Neutral	True
137.673	0.27	Control	0.8571	0.001	Yes	2.776	-0.001	2.0	GoodResponse	0	0.24	136.913	1	13	Target	Neutral	True
137.913	0.3	Control	0.8571	0.001	Yes	2.776	-0.001	2.0	GoodResponse	0	0.24	n/a	1	13	ButtonPress	Neutral	True
137.939	0.43	Control	0.8571	n/a	Yes	2.776	n/a	n/a	GoodResponse	0	n/a	n/a	1	13	Blank	Neutral	True
138.373	1.45	Control	0.8571	n/a	Yes	2.776	n/a	5.0	GoodResponse	0	0.043	137.416	1	13	Feedback	Neutral	True
139.822	2.776	Control	0.8571	n/a	Yes	2.776	n/a	n/a	GoodResponse	0	0.0	n/a	1	13	ISIslide	Neutral	True
142.621	0.25	Win2	0.8	0.0	No	2.679	0.021	n/a	NoResponse	0	n/a	n/a	1	14	Cue	MissedWin	False
142.871	4.1	Win2	0.8	0.0	No	2.679	0.0	2.0	NoResponse	0	0.24	142.111	1	14	Fixation	MissedWin	False
143.111	0.3	Win2	0.8	0.0	No	2.679	0.0	2.0	NoResponse	0	0.24	n/a	1	14	ButtonPress	MissedWin	False
146.97	0.26	Win2	0.8	0.001	No	2.679	-0.001	2.0	NoResponse	0	0.283	146.253	1	14	Target	MissedWin	False
147.236	0.44	Win2	0.8	n/a	No	2.679	n/a	n/a	NoResponse	0	n/a	n/a	1	14	Blank	MissedWin	False
147.253	0.3	Win2	0.8	0.001	No	2.679	-0.001	2.0	NoResponse	0	0.283	n/a	1	14	ButtonPress	MissedWin	False
147.669	1.45	Win2	0.8	n/a	No	2.679	n/a	5.0	NoResponse	0	0.015	146.684	1	14	Feedback	MissedWin	False
149.119	2.679	Win2	0.8	n/a	No	2.679	n/a	n/a	NoResponse	0	0.0	n/a	1	14	ISIslide	MissedWin	False
151.818	0.25	Control	0.75	0.0	No	2.982	0.018	n/a	NoResponse	0	n/a	n/a	1	15	Cue	Neutral	True
152.068	4.0	Control	0.75	0.0	No	2.982	0.0	n/a	NoResponse	0	n/a	n/a	1	15	Fixation	Neutral	True
156.066	0.25	Control	0.75	0.002	No	2.982	-0.002	2.0	NoResponse	0	0.281	155.347	1	15	Target	Neutral	True
156.316	0.45	Control	0.75	n/a	No	2.982	n/a	n/a	NoResponse	0	n/a	n/a	1	15	Blank	Neutral	True
156.347	0.3	Control	0.75	0.002	No	2.982	-0.002	2.0	NoResponse	0	0.281	n/a	1	15	ButtonPress	Neutral	True
156.766	1.45	Control	0.75	n/a	No	2.982	n/a	5.0	NoResponse	0	0.039	155.805	1	15	Feedback	Neutral	True
158.216	2.982	Control	0.75	n/a	No	2.982	n/a	n/a	NoResponse	0	0.0	n/a	1	15	ISIslide	Neutral	True
161.215	0.25	Win2	0.7646999999999999	0.0	Yes	2.885	0.015	n/a	GoodResponse	1	n/a	n/a	2	16	Cue	Win	True
161.464	4.0	Win2	0.7646999999999999	0.001	Yes	2.885	-0.001	n/a	GoodResponse	1	n/a	n/a	2	16	Fixation	Win	True
165.463	0.24	Win2	0.7646999999999999	0.002	Yes	2.885	-0.002	2.0	GoodResponse	1	0.227	164.69	2	16	Target	Win	True
165.69	0.3	Win2	0.7646999999999999	0.002	Yes	2.885	-0.002	2.0	GoodResponse	1	0.227	n/a	2	16	ButtonPress	Win	True
165.713	0.46	Win2	0.7646999999999999	n/a	Yes	2.885	n/a	n/a	GoodResponse	1	n/a	n/a	2	16	Blank	Win	True
166.163	1.45	Win2	0.7646999999999999	n/a	Yes	2.885	n/a	5.0	GoodResponse	1	0.008	165.171	2	16	Feedback	Win	True
167.612	2.885	Win2	0.7646999999999999	n/a	Yes	2.885	n/a	n/a	GoodResponse	1	0.0	n/a	2	16	ISIslide	Win	True
170.528	0.25	Lose2	0.7778	0.0	Yes	2.722	0.028	n/a	GoodResponse	0	n/a	n/a	2	17	Cue	AvoidedLoss	True
170.778	3.95	Lose2	0.7778	0.0	Yes	2.722	0.0	n/a	GoodResponse	0	n/a	n/a	2	17	Fixation	AvoidedLoss	True
174.726	0.23	Lose2	0.7778	0.002	Yes	2.722	-0.002	2.0	GoodResponse	0	0.219	173.945	2	17	Target	AvoidedLoss	True
174.945	0.3	Lose2	0.7778	0.002	Yes	2.722	-0.002	2.0	GoodResponse	0	0.219	n/a	2	17	ButtonPress	AvoidedLoss	True
174.96	0.47	Lose2	0.7778	n/a	Yes	2.722	n/a	n/a	GoodResponse	0	n/a	n/a	2	17	Blank	AvoidedLoss	True
175.426	1.45	Lose2	0.7778	n/a	Yes	2.722	n/a	5.0	GoodResponse	0	0.013	174.439	2	17	Feedback	AvoidedLoss	True
176.876	2.722	Lose2	0.7778	n/a	Yes	2.722	n/a	n/a	GoodResponse	0	0.0	n/a	2	17	ISIslide	AvoidedLoss	True
179.625	0.25	Lose2	0.7368000000000001	0.0	No	2.725	0.025	n/a	LatePress	-1	n/a	n/a	1	18	Cue	Loss	True
179.875	4.05	Lose2	0.7368000000000001	0.0	No	2.725	0.0	n/a	LatePress	-1	n/a	n/a	1	18	Fixation	Loss	True
183.923	0.22	Lose2	0.7368000000000001	0.002	No	2.725	-0.002	2.0	LatePress	-1	0.221	183.144	1	18	Target	Loss	True
184.144	0.3	Lose2	0.7368000000000001	0.002	No	2.725	-0.002	2.0	LatePress	-1	0.221	n/a	1	18	ButtonPress	Loss	True
184.156	0.48	Lose2	0.7368000000000001	n/a	No	2.725	n/a	n/a	LatePress	-1	n/a	n/a	1	18	Blank	Loss	True
184.623	1.45	Lose2	0.7368000000000001	n/a	No	2.725	n/a	5.0	LatePress	-1	0.035	183.658	1	18	Feedback	Loss	True
186.072	2.725	Lose2	0.7368000000000001	n/a	No	2.725	n/a	n/a	LatePress	-1	0.0	n/a	1	18	ISIslide	Loss	True
188.821	0.25	Control	0.7	0.0	No	2.929	0.021	n/a	NoResponse	0	n/a	n/a	1	19	Cue	Neutral	True
189.071	3.95	Control	0.7	0.0	No	2.929	0.0	n/a	NoResponse	0	n/a	n/a	1	19	Fixation	Neutral	True
193.02	0.21	Control	0.7	0.001	No	2.929	-0.001	2.0	NoResponse	0	0.237	192.257	1	19	Target	Neutral	True
193.236	0.49	Control	0.7	n/a	No	2.929	n/a	n/a	NoResponse	0	n/a	n/a	1	19	Blank	Neutral	True
193.257	0.3	Control	0.7	0.001	No	2.929	-0.001	2.0	NoResponse	0	0.237	n/a	1	19	ButtonPress	Neutral	True
193.72	1.45	Control	0.7	n/a	No	2.929	n/a	5.0	NoResponse	0	0.011	192.731	1	19	Feedback	Neutral	True
195.169	2.929	Control	0.7	n/a	No	2.929	n/a	n/a	NoResponse	0	0.0	n/a	1	19	ISIslide	Neutral	True
198.118	0.25	Control	0.6667000000000001	0.0	No	2.632	0.018	n/a	NoResponse	0	n/a	n/a	1	20	Cue	Neutral	True
198.368	4.05	Control	0.6667000000000001	0.0	No	2.632	0.0	n/a	NoResponse	0	n/a	n/a	1	20	Fixation	Neutral	True
202.417	0.2	Control	0.6667000000000001	0.001	No	2.632	-0.001	2.0	NoResponse	0	0.304	201.721	1	20	Target	Neutral	True
202.616	0.5	Control	0.6667000000000001	n/a	No	2.632	n/a	n/a	NoResponse	0	n/a	n/a	1	20	Blank	Neutral	True
202.721	0.3	Control	0.6667000000000001	0.001	No	2.632	-0.001	2.0	NoResponse	0	0.304	n/a	1	20	ButtonPress	Neutral	True
203.116	1.45	Control	0.6667000000000001	n/a	No	2.632	n/a	5.0	NoResponse	0	0.03	202.146	1	20	Feedback	Neutral	True
204.566	2.632	Control	0.6667000000000001	n/a	No	2.632	n/a	n/a	NoResponse	0	0.0	n/a	1	20	ISIslide	Neutral	True
207.215	0.25	Control	0.6364	0.0	No	2.785	0.015	n/a	NoResponse	0	n/a	n/a	1	21	Cue	Neutral	True
207.465	4.1	Control	0.6364	0.0	No	2.785	0.0	n/a	NoResponse	0	n/a	n/a	1	21	Fixation	Neutral	True
211.563	0.19	Control	0.6364	0.002	No	2.785	-0.002	2.0	NoResponse	0	0.278	210.841	1	21	Target	Neutral	True
211.763	0.51	Control	0.6364	n/a	No	2.785	n/a	n/a	NoResponse	0	n/a	n/a	1	21	Blank	Neutral	True
211.841	0.3	Control	0.6364	0.002	No	2.785	-0.002	2.0	NoResponse	0	0.278	n/a	1	21	ButtonPress	Neutral	True
212.263	1.45	Control	0.6364	n/a	No	2.785	n/a	5.0	NoResponse	0	0.007	211.27	1	21	Feedback	Neutral	True
213.713	2.785	Control	0.6364	n/a	No	2.785	n/a	n/a	NoResponse	0	0.0	n/a	1	21	ISIslide	Neutral	True
216.528	0.25	Control	0.6087	0.0	No	2.772	0.028	n/a	NoResponse	0	n/a	n/a	1	22	Cue	Neutral	True
216.778	4.0	Control	0.6087	0.0	No	2.772	0.0	n/a	NoResponse	0	n/a	n/a	1	22	Fixation	Neutral	True
220.777	0.2	Control	0.6087	0.001	No	2.772	-0.001	2.0	NoResponse	0	0.253	220.03	1	22	Target	Neutral	True
220.977	0.5	Control	0.6087	n/a	No	2.772	n/a	n/a	NoResponse	0	n/a	n/a	1	22	Blank	Neutral	True
221.03	0.3	Control	0.6087	0.001	No	2.772	-0.001	2.0	NoResponse	0	0.253	n/a	1	22	ButtonPress	Neutral	True
221.476	1.45	Control	0.6087	n/a	No	2.772	n/a	5.0	NoResponse	0	0.012	220.488	1	22	Feedback	Neutral	True
222.926	2.772	Control	0.6087	n/a	No	2.772	n/a	n/a	NoResponse	0	0.0	n/a	1	22	ISIslide	Neutral	True
225.725	0.25	Control	0.5832999999999999	0.0	No	2.775	0.025	n/a	NoResponse	0	n/a	n/a	1	23	Cue	Neutral	True
225.975	3.9	Control	0.5832999999999999	0.0	No	2.775	0.0	n/a	NoResponse	0	n/a	n/a	1	23	Fixation	Neutral	True
229.873	0.21	Control	0.5832999999999999	0.002	No	2.775	-0.002	2.0	NoResponse	0	0.244	229.117	1	23	Target	Neutral	True
230.09	0.49	Control	0.5832999999999999	n/a	No	2.775	n/a	n/a	NoResponse	0	n/a	n/a	1	23	Blank	Neutral	True
230.117	0.3	Control	0.5832999999999999	0.002	No	2.775	-0.002	2.0	NoResponse	0	0.244	n/a	1	23	ButtonPress	Neutral	True
230.573	1.45	Control	0.5832999999999999	n/a	No	2.775	n/a	5.0	NoResponse	0	0.036	229.609	1	23	Feedback	Neutral	True
232.023	2.775	Control	0.5832999999999999	n/a	No	2.775	n/a	n/a	NoResponse	0	0.0	n/a	1	23	ISIslide	Neutral	True
234.822	0.25	Win2	0.56	0.0	No	3.128	0.022	n/a	NoResponse	0	n/a	n/a	1	24	Cue	MissedWin	True
235.072	3.95	Win2	0.56	0.0	No	3.128	0.0	n/a	NoResponse	0	n/a	n/a	1	24	Fixation	MissedWin	True
239.02	0.22	Win2	0.56	0.002	No	3.128	-0.002	2.0	NoResponse	0	0.258	238.278	1	24	Target	MissedWin	True
239.253	0.48	Win2	0.56	n/a	No	3.128	n/a	n/a	NoResponse	0	n/a	n/a	1	24	Blank	MissedWin	True
239.278	0.3	Win2	0.56	0.002	No	3.128	-0.002	2.0	NoResponse	0	0.258	n/a	1	24	ButtonPress	MissedWin	True
239.72	1.45	Win2	0.56	n/a	No	3.128	n/a	5.0	NoResponse	0	0.011	238.731	1	24	Feedback	MissedWin	True
241.169	3.128	Win2	0.56	n/a	No	3.128	n/a	n/a	NoResponse	0	0.0	n/a	1	24	ISIslide	MissedWin	True
244.318	0.25	Win2	0.5385	0.0	No	3.082	0.018	n/a	LatePress	0	n/a	n/a	1	25	Cue	MissedWin	True
244.568	4.0	Win2	0.5385	0.0	No	3.082	0.0	n/a	LatePress	0	n/a	n/a	1	25	Fixation	MissedWin	True
248.567	0.23	Win2	0.5385	0.001	No	3.082	-0.001	2.0	LatePress	0	0.232	247.799	1	25	Target	MissedWin	True
248.799	0.3	Win2	0.5385	0.001	No	3.082	-0.001	2.0	LatePress	0	0.232	n/a	1	25	ButtonPress	MissedWin	True
248.8	0.47	Win2	0.5385	n/a	No	3.082	n/a	n/a	LatePress	0	n/a	n/a	1	25	Blank	MissedWin	True
249.267	1.45	Win2	0.5385	n/a	No	3.082	n/a	5.0	LatePress	0	0.025	248.292	1	25	Feedback	MissedWin	True
250.716	3.082	Win2	0.5385	n/a	No	3.082	n/a	n/a	LatePress	0	0.0	n/a	1	25	ISIslide	MissedWin	True
253.815	0.25	Win2	0.5185	0.0	No	2.935	0.015	n/a	NoResponse	0	n/a	n/a	1	26	Cue	MissedWin	False
254.065	3.95	Win2	0.5185	0.0	No	2.935	0.0	2.0	NoResponse	0	3.269	256.334	1	26	Fixation	MissedWin	False
257.334	0.3	Win2	0.5185	0.0	No	2.935	0.0	2.0	NoResponse	0	3.269	n/a	1	26	ButtonPress	MissedWin	False
258.013	0.24	Win2	0.5185	0.002	No	2.935	-0.002	2.0	NoResponse	0	0.382	257.395	1	26	Target	MissedWin	False
258.263	0.46	Win2	0.5185	n/a	No	2.935	n/a	n/a	NoResponse	0	n/a	n/a	1	26	Blank	MissedWin	False
258.395	0.3	Win2	0.5185	0.002	No	2.935	-0.002	2.0	NoResponse	0	0.382	n/a	1	26	ButtonPress	MissedWin	False
258.713	1.45	Win2	0.5185	n/a	No	2.935	n/a	5.0	NoResponse	0	0.043	257.756	1	26	Feedback	MissedWin	False
260.163	2.935	Win2	0.5185	n/a	No	2.935	n/a	n/a	NoResponse	0	0.0	n/a	1	26	ISIslide	MissedWin	False
263.128	0.25	Lose2	0.5	0.0	No	2.822	0.028	n/a	NoResponse	-1	n/a	n/a	0	27	Cue	Loss	True
263.378	4.05	Lose2	0.5	0.0	No	2.822	0.0	n/a	NoResponse	-1	n/a	n/a	0	27	Fixation	Loss	True
267.427	0.25	Lose2	0.5	0.001	No	2.822	-0.001	2.0	NoResponse	-1	0.251	266.678	0	27	Target	Loss	True
267.677	0.45	Lose2	0.5	n/a	No	2.822	n/a	n/a	NoResponse	-1	n/a	n/a	0	27	Blank	Loss	True
267.678	0.3	Lose2	0.5	0.001	No	2.822	-0.001	2.0	NoResponse	-1	0.251	n/a	0	27	ButtonPress	Loss	True
268.126	1.45	Lose2	0.5	n/a	No	2.822	n/a	5.0	NoResponse	-1	0.043	267.169	0	27	Feedback	Loss	True
269.576	2.822	Lose2	0.5	n/a	No	2.822	n/a	n/a	NoResponse	-1	0.0	n/a	0	27	ISIslide	Loss	True
272.425	0.25	Control	0.4828	0.0	No	2.825	0.025	n/a	NoResponse	0	n/a	n/a	0	28	Cue	Neutral	True
272.675	4.05	Control	0.4828	0.0	No	2.825	0.0	n/a	NoResponse	0	n/a	n/a	0	28	Fixation	Neutral	True
276.723	0.26	Control	0.4828	0.002	No	2.825	-0.002	2.0	NoResponse	0	0.276	275.999	0	28	Target	Neutral	True
276.99	0.44	Control	0.4828	n/a	No	2.825	n/a	n/a	NoResponse	0	n/a	n/a	0	28	Blank	Neutral	True
276.999	0.3	Control	0.4828	0.002	No	2.825	-0.002	2.0	NoResponse	0	0.276	n/a	0	28	ButtonPress	Neutral	True
277.423	1.45	Control	0.4828	n/a	No	2.825	n/a	5.0	NoResponse	0	0.015	276.438	0	28	Feedback	Neutral	True
278.873	2.825	Control	0.4828	n/a	No	2.825	n/a	n/a	NoResponse	0	0.0	n/a	0	28	ISIslide	Neutral	True
281.722	0.25	Lose2	0.5	0.0	Yes	2.828	0.022	n/a	GoodResponse	0	n/a	n/a	0	29	Cue	AvoidedLoss	True
281.972	3.95	Lose2	0.5	0.0	Yes	2.828	0.0	n/a	GoodResponse	0	n/a	n/a	0	29	Fixation	AvoidedLoss	True
285.92	0.27	Lose2	0.5	0.002	Yes	2.828	-0.002	2.0	GoodResponse	0	0.23	285.15	0	29	Target	AvoidedLoss	True
286.15	0.3	Lose2	0.5	0.002	Yes	2.828	-0.002	2.0	GoodResponse	0	0.23	n/a	0	29	ButtonPress	AvoidedLoss	True
286.203	0.43	Lose2	0.5	n/a	Yes	2.828	n/a	n/a	GoodResponse	0	n/a	n/a	0	29	Blank	AvoidedLoss	True
286.62	1.45	Lose2	0.5	n/a	Yes	2.828	n/a	5.0	GoodResponse	0	0.038	285.658	0	29	Feedback	AvoidedLoss	True
288.069	2.828	Lose2	0.5	n/a	Yes	2.828	n/a	n/a	GoodResponse	0	0.0	n/a	0	29	ISIslide	AvoidedLoss	True
290.918	0.25	Win2	0.4839	0.0	No	2.782	0.018	n/a	NoResponse	0	n/a	n/a	0	30	Cue	MissedWin	True
291.168	3.9	Win2	0.4839	0.0	No	2.782	0.0	n/a	NoResponse	0	n/a	n/a	0	30	Fixation	MissedWin	True
295.067	0.28	Win2	0.4839	0.001	No	2.782	-0.001	2.0	NoResponse	0	0.295	294.362	0	30	Target	MissedWin	True
295.35	0.42	Win2	0.4839	n/a	No	2.782	n/a	n/a	NoResponse	0	n/a	n/a	0	30	Blank	MissedWin	True
295.362	0.3	Win2	0.4839	0.001	No	2.782	-0.001	2.0	NoResponse	0	0.295	n/a	0	30	ButtonPress	MissedWin	True
295.767	1.45	Win2	0.4839	n/a	No	2.782	n/a	5.0	NoResponse	0	0.013	294.78	0	30	Feedback	MissedWin	True
297.216	2.782	Win2	0.4839	n/a	No	2.782	n/a	n/a	NoResponse	0	0.0	n/a	0	30	ISIslide	MissedWin	True
300.015	0.25	Lose2	0.5	0.0	Yes	2.835	0.015	n/a	GoodResponse	0	n/a	n/a	0	31	Cue	AvoidedLoss	True
300.265	4.05	Lose2	0.5	0.0	Yes	2.835	0.0	n/a	GoodResponse	0	n/a	n/a	0	31	Fixation	AvoidedLoss	True
304.314	0.29	Lose2	0.5	0.001	Yes	2.835	-0.001	2.0	GoodResponse	0	0.233	303.547	0	31	Target	AvoidedLoss	True
304.547	0.3	Lose2	0.5	0.001	Yes	2.835	-0.001	2.0	GoodResponse	0	0.233	n/a	0	31	ButtonPress	AvoidedLoss	True
304.614	0.41	Lose2	0.5	n/a	Yes	2.835	n/a	n/a	GoodResponse	0	n/a	n/a	0	31	Blank	AvoidedLoss	True
305.013	1.45	Lose2	0.5	n/a	Yes	2.835	n/a	5.0	GoodResponse	0	0.034	304.047	0	31	Feedback	AvoidedLoss	True
306.463	2.835	Lose2	0.5	n/a	Yes	2.835	n/a	n/a	GoodResponse	0	0.0	n/a	0	31	ISIslide	AvoidedLoss	True
309.329	0.25	Lose2	0.48479999999999995	0.0	No	2.621	0.029	n/a	NoResponse	-1	n/a	n/a	-1	32	Cue	Loss	True
309.578	4.15	Lose2	0.48479999999999995	0.001	No	2.621	-0.001	n/a	NoResponse	-1	n/a	n/a	-1	32	Fixation	Loss	True
313.727	0.3	Lose2	0.48479999999999995	0.002	No	2.621	-0.002	2.0	NoResponse	-1	0.323	313.05	-1	32	Target	Loss	True
314.027	0.4	Lose2	0.48479999999999995	n/a	No	2.621	n/a	n/a	NoResponse	-1	n/a	n/a	-1	32	Blank	Loss	True
314.05	0.3	Lose2	0.48479999999999995	0.002	No	2.621	-0.002	2.0	NoResponse	-1	0.323	n/a	-1	32	ButtonPress	Loss	True
314.427	1.45	Lose2	0.48479999999999995	n/a	No	2.621	n/a	5.0	NoResponse	-1	0.035	313.462	-1	32	Feedback	Loss	True
315.876	2.621	Lose2	0.48479999999999995	n/a	No	2.621	n/a	n/a	NoResponse	-1	0.0	n/a	-1	32	ISIslide	Loss	True
318.525	0.25	Win2	0.5	0.0	Yes	2.675	0.025	n/a	GoodResponse	1	n/a	n/a	0	33	Cue	Win	True
318.775	4.0	Win2	0.5	0.0	Yes	2.675	0.0	n/a	GoodResponse	1	n/a	n/a	0	33	Fixation	Win	True
322.774	0.31	Win2	0.5	0.001	Yes	2.675	-0.001	2.0	GoodResponse	1	0.231	322.005	0	33	Target	Win	True
323.005	0.3	Win2	0.5	0.001	Yes	2.675	-0.001	2.0	GoodResponse	1	0.231	n/a	0	33	ButtonPress	Win	True
323.09	0.39	Win2	0.5	n/a	Yes	2.675	n/a	n/a	GoodResponse	1	n/a	n/a	0	33	Blank	Win	True
323.473	1.45	Win2	0.5	n/a	Yes	2.675	n/a	5.0	GoodResponse	1	0.013	322.486	0	33	Feedback	Win	True
324.923	2.675	Win2	0.5	n/a	Yes	2.675	n/a	n/a	GoodResponse	1	0.0	n/a	0	33	ISIslide	Win	True
327.622	0.25	Lose2	0.5143	0.0	Yes	2.628	0.022	n/a	GoodResponse	0	n/a	n/a	0	34	Cue	AvoidedLoss	True
327.872	4.05	Lose2	0.5143	0.0	Yes	2.628	0.0	n/a	GoodResponse	0	n/a	n/a	0	34	Fixation	AvoidedLoss	True
331.92	0.32	Lose2	0.5143	0.002	Yes	2.628	-0.002	2.0	GoodResponse	0	0.214	331.134	0	34	Target	AvoidedLoss	True
332.134	0.3	Lose2	0.5143	0.002	Yes	2.628	-0.002	2.0	GoodResponse	0	0.214	n/a	0	34	ButtonPress	AvoidedLoss	True
332.254	0.38	Lose2	0.5143	n/a	Yes	2.628	n/a	n/a	GoodResponse	0	n/a	n/a	0	34	Blank	AvoidedLoss	True
332.62	1.45	Lose2	0.5143	n/a	Yes	2.628	n/a	5.0	GoodResponse	0	0.037	331.657	0	34	Feedback	AvoidedLoss	True
334.07	2.628	Lose2	0.5143	n/a	Yes	2.628	n/a	n/a	GoodResponse	0	0.0	n/a	0	34	ISIslide	AvoidedLoss	True
336.719	0.25	Lose2	0.5278	0.0	Yes	2.681	0.019	n/a	GoodResponse	0	n/a	n/a	0	35	Cue	AvoidedLoss	True
336.969	4.0	Lose2	0.5278	0.0	Yes	2.681	0.0	n/a	GoodResponse	0	n/a	n/a	0	35	Fixation	AvoidedLoss	True
340.967	0.33	Lose2	0.5278	0.002	Yes	2.681	-0.002	2.0	GoodResponse	0	0.264	340.231	0	35	Target	AvoidedLoss	True
341.231	0.3	Lose2	0.5278	0.002	Yes	2.681	-0.002	2.0	GoodResponse	0	0.264	n/a	0	35	ButtonPress	AvoidedLoss	True
341.3	0.37	Lose2	0.5278	n/a	Yes	2.681	n/a	n/a	GoodResponse	0	n/a	n/a	0	35	Blank	AvoidedLoss	True
341.667	1.45	Lose2	0.5278	n/a	Yes	2.681	n/a	5.0	GoodResponse	0	0.014	340.681	0	35	Feedback	AvoidedLoss	True
343.116	2.681	Lose2	0.5278	n/a	Yes	2.681	n/a	n/a	GoodResponse	0	0.0	n/a	0	35	ISIslide	AvoidedLoss	True
345.816	0.25	Control	0.5405	0.0	Yes	2.684	0.016	n/a	GoodResponse	0	n/a	n/a	0	36	Cue	Neutral	True
346.065	4.0	Control	0.5405	0.001	Yes	2.684	-0.001	n/a	GoodResponse	0	n/a	n/a	0	36	Fixation	Neutral	True
350.064	0.34	Control	0.5405	0.002	Yes	2.684	-0.002	2.0	GoodResponse	0	0.223	349.287	0	36	Target	Neutral	True
350.287	0.3	Control	0.5405	0.002	Yes	2.684	-0.002	2.0	GoodResponse	0	0.223	n/a	0	36	ButtonPress	Neutral	True
350.414	0.36	Control	0.5405	n/a	Yes	2.684	n/a	n/a	GoodResponse	0	n/a	n/a	0	36	Blank	Neutral	True
350.764	1.45	Control	0.5405	n/a	Yes	2.684	n/a	5.0	GoodResponse	0	0.039	349.803	0	36	Feedback	Neutral	True
352.213	2.684	Control	0.5405	n/a	Yes	2.684	n/a	n/a	GoodResponse	0	0.0	n/a	0	36	ISIslide	Neutral	True
354.929	0.25	Win2	0.5526	0.0	Yes	2.871	0.029	n/a	GoodResponse	1	n/a	n/a	1	37	Cue	Win	True
355.179	4.0	Win2	0.5526	0.0	Yes	2.871	0.0	n/a	GoodResponse	1	n/a	n/a	1	37	Fixation	Win	True
359.177	0.35	Win2	0.5526	0.002	Yes	2.871	-0.002	2.0	GoodResponse	1	0.26	358.437	1	37	Target	Win	True
359.437	0.3	Win2	0.5526	0.002	Yes	2.871	-0.002	2.0	GoodResponse	1	0.26	n/a	1	37	ButtonPress	Win	True
359.527	0.35	Win2	0.5526	n/a	Yes	2.871	n/a	n/a	GoodResponse	1	n/a	n/a	1	37	Blank	Win	True
359.877	1.45	Win2	0.5526	n/a	Yes	2.871	n/a	5.0	GoodResponse	1	0.048	358.925	1	37	Feedback	Win	True
361.327	2.871	Win2	0.5526	n/a	Yes	2.871	n/a	n/a	GoodResponse	1	0.0	n/a	1	37	ISIslide	Win	True
364.226	0.25	Lose2	0.5640999999999999	0.0	Yes	2.824	0.026	n/a	GoodResponse	0	n/a	n/a	1	38	Cue	AvoidedLoss	True
364.476	3.95	Lose2	0.5640999999999999	0.0	Yes	2.824	0.0	n/a	GoodResponse	0	n/a	n/a	1	38	Fixation	AvoidedLoss	True
368.424	0.36	Lose2	0.5640999999999999	0.002	Yes	2.824	-0.002	2.0	GoodResponse	0	0.224	367.648	1	38	Target	AvoidedLoss	True
368.648	0.3	Lose2	0.5640999999999999	0.002	Yes	2.824	-0.002	2.0	GoodResponse	0	0.224	n/a	1	38	ButtonPress	AvoidedLoss	True
368.791	0.34	Lose2	0.5640999999999999	n/a	Yes	2.824	n/a	n/a	GoodResponse	0	n/a	n/a	1	38	Blank	AvoidedLoss	True
369.124	1.45	Lose2	0.5640999999999999	n/a	Yes	2.824	n/a	5.0	GoodResponse	0	0.02	368.144	1	38	Feedback	AvoidedLoss	True
370.573	2.824	Lose2	0.5640999999999999	n/a	Yes	2.824	n/a	n/a	GoodResponse	0	0.0	n/a	1	38	ISIslide	AvoidedLoss	True
373.422	0.25	Win2	0.575	0.0	Yes	2.978	0.022	n/a	GoodResponse	1	n/a	n/a	2	39	Cue	Win	True
373.672	4.1	Win2	0.575	0.0	Yes	2.978	0.0	n/a	GoodResponse	1	n/a	n/a	2	39	Fixation	Win	True
377.771	0.37	Win2	0.575	0.001	Yes	2.978	-0.001	2.0	GoodResponse	1	0.249	377.02	2	39	Target	Win	True
378.02	0.3	Win2	0.575	0.001	Yes	2.978	-0.001	2.0	GoodResponse	1	0.249	n/a	2	39	ButtonPress	Win	True
378.137	0.33	Win2	0.575	n/a	Yes	2.978	n/a	n/a	GoodResponse	1	n/a	n/a	2	39	Blank	Win	True
378.471	1.45	Win2	0.575	n/a	Yes	2.978	n/a	5.0	GoodResponse	1	0.038	377.509	2	39	Feedback	Win	True
379.92	2.978	Win2	0.575	n/a	Yes	2.978	n/a	n/a	GoodResponse	1	0.0	n/a	2	39	ISIslide	Win	True
382.919	0.25	Win2	0.5854	0.0	Yes	2.731	0.019	n/a	GoodResponse	1	n/a	n/a	3	40	Cue	Win	True
383.169	3.95	Win2	0.5854	0.0	Yes	2.731	0.0	n/a	GoodResponse	1	n/a	n/a	3	40	Fixation	Win	True
387.117	0.38	Win2	0.5854	0.002	Yes	2.731	-0.002	2.0	GoodResponse	1	0.277	386.394	3	40	Target	Win	True
387.394	0.3	Win2	0.5854	0.002	Yes	2.731	-0.002	2.0	GoodResponse	1	0.277	n/a	3	40	ButtonPress	Win	True
387.501	0.32	Win2	0.5854	n/a	Yes	2.731	n/a	n/a	GoodResponse	1	n/a	n/a	3	40	Blank	Win	True
387.817	1.45	Win2	0.5854	n/a	Yes	2.731	n/a	5.0	GoodResponse	1	0.01	386.827	3	40	Feedback	Win	True
389.267	2.731	Win2	0.5854	n/a	Yes	2.731	n/a	n/a	GoodResponse	1	0.0	n/a	3	40	ISIslide	Win	True
392.016	0.25	Win2	0.5952000000000001	0.0	Yes	2.784	0.016	n/a	GoodResponse	1	n/a	n/a	4	41	Cue	Win	True
392.266	3.9	Win2	0.5952000000000001	0.0	Yes	2.784	0.0	n/a	GoodResponse	1	n/a	n/a	4	41	Fixation	Win	True
396.164	0.39	Win2	0.5952000000000001	0.002	Yes	2.784	-0.002	2.0	GoodResponse	1	0.278	395.442	4	41	Target	Win	True
396.442	0.3	Win2	0.5952000000000001	0.002	Yes	2.784	-0.002	2.0	GoodResponse	1	0.278	n/a	4	41	ButtonPress	Win	True
396.564	0.31	Win2	0.5952000000000001	n/a	Yes	2.784	n/a	n/a	GoodResponse	1	n/a	n/a	4	41	Blank	Win	True
396.864	1.45	Win2	0.5952000000000001	n/a	Yes	2.784	n/a	5.0	GoodResponse	1	0.036	395.9	4	41	Feedback	Win	True
398.314	2.784	Win2	0.5952000000000001	n/a	Yes	2.784	n/a	n/a	GoodResponse	1	0.0	n/a	4	41	ISIslide	Win	True
401.113	0.25	Control	0.6047	0.0	Yes	2.937	0.013	n/a	GoodResponse	0	n/a	n/a	4	42	Cue	Neutral	True
401.362	3.85	Control	0.6047	0.001	Yes	2.937	-0.001	n/a	GoodResponse	0	n/a	n/a	4	42	Fixation	Neutral	True
405.211	0.4	Control	0.6047	0.002	Yes	2.937	-0.002	2.0	GoodResponse	0	0.238	404.449	4	42	Target	Neutral	True
405.449	0.3	Control	0.6047	0.002	Yes	2.937	-0.002	2.0	GoodResponse	0	0.238	n/a	4	42	ButtonPress	Neutral	True
405.611	0.3	Control	0.6047	n/a	Yes	2.937	n/a	n/a	GoodResponse	0	n/a	n/a	4	42	Blank	Neutral	True
405.911	1.45	Control	0.6047	n/a	Yes	2.937	n/a	5.0	GoodResponse	0	0.013	404.924	4	42	Feedback	Neutral	True
407.36	2.937	Control	0.6047	n/a	Yes	2.937	n/a	n/a	GoodResponse	0	0.0	n/a	4	42	ISIslide	Neutral	True
410.326	0.25	Win2	0.6136	0.0	Yes	3.174	0.026	n/a	GoodResponse	1	n/a	n/a	5	43	Cue	Win	True
410.576	4.0	Win2	0.6136	0.0	Yes	3.174	0.0	n/a	GoodResponse	1	n/a	n/a	5	43	Fixation	Win	True
414.574	0.41	Win2	0.6136	0.002	Yes	3.174	-0.002	2.0	GoodResponse	1	0.225	413.799	5	43	Target	Win	True
414.799	0.3	Win2	0.6136	0.002	Yes	3.174	-0.002	2.0	GoodResponse	1	0.225	n/a	5	43	ButtonPress	Win	True
414.991	0.29	Win2	0.6136	n/a	Yes	3.174	n/a	n/a	GoodResponse	1	n/a	n/a	5	43	Blank	Win	True
415.274	1.45	Win2	0.6136	n/a	Yes	3.174	n/a	5.0	GoodResponse	1	0.015	414.289	5	43	Feedback	Win	True
416.724	3.174	Win2	0.6136	n/a	Yes	3.174	n/a	n/a	GoodResponse	1	0.0	n/a	5	43	ISIslide	Win	True
419.923	0.25	Win2	0.6222	0.0	Yes	2.977	0.023	n/a	GoodResponse	1	n/a	n/a	6	44	Cue	Win	True
420.172	4.0	Win2	0.6222	0.001	Yes	2.977	-0.001	n/a	GoodResponse	1	n/a	n/a	6	44	Fixation	Win	True
424.171	0.42	Win2	0.6222	0.002	Yes	2.977	-0.002	2.0	GoodResponse	1	0.236	423.407	6	44	Target	Win	True
424.407	0.3	Win2	0.6222	0.002	Yes	2.977	-0.002	2.0	GoodResponse	1	0.236	n/a	6	44	ButtonPress	Win	True
424.604	0.28	Win2	0.6222	n/a	Yes	2.977	n/a	n/a	GoodResponse	1	n/a	n/a	6	44	Blank	Win	True
424.871	1.45	Win2	0.6222	n/a	Yes	2.977	n/a	5.0	GoodResponse	1	0.028	423.899	6	44	Feedback	Win	True
426.32	2.977	Win2	0.6222	n/a	Yes	2.977	n/a	n/a	GoodResponse	1	0.0	n/a	6	44	ISIslide	Win	True
429.319	0.25	Control	0.6304	0.0	Yes	2.881	0.019	n/a	GoodResponse	0	n/a	n/a	6	45	Cue	Neutral	False
429.569	4.1	Control	0.6304	0.0	Yes	2.881	0.0	2.0	GoodResponse	0	3.706	432.275	6	45	Fixation	Neutral	False
433.275	0.3	Control	0.6304	0.0	Yes	2.881	0.0	2.0	GoodResponse	0	3.706	n/a	6	45	ButtonPress	Neutral	False
433.668	0.43	Control	0.6304	0.001	Yes	2.881	-0.001	2.0	GoodResponse	0	0.322	432.99	6	45	Target	Neutral	False
433.99	0.3	Control	0.6304	0.001	Yes	2.881	-0.001	2.0	GoodResponse	0	0.322	n/a	6	45	ButtonPress	Neutral	False
434.101	0.27	Control	0.6304	n/a	Yes	2.881	n/a	n/a	GoodResponse	0	n/a	n/a	6	45	Blank	Neutral	False
434.367	1.45	Control	0.6304	n/a	Yes	2.881	n/a	5.0	GoodResponse	0	0.044	433.411	6	45	Feedback	Neutral	False
435.817	2.881	Control	0.6304	n/a	Yes	2.881	n/a	n/a	GoodResponse	0	0.0	n/a	6	45	ISIslide	Neutral	False
438.716	0.25	Lose2	0.6383	0.0	Yes	3.384	0.016	n/a	GoodResponse	0	n/a	n/a	6	46	Cue	AvoidedLoss	True
438.966	4.0	Lose2	0.6383	0.0	Yes	3.384	0.0	n/a	GoodResponse	0	n/a	n/a	6	46	Fixation	AvoidedLoss	True
442.964	0.44	Lose2	0.6383	0.002	Yes	3.384	-0.002	2.0	GoodResponse	0	0.248	442.212	6	46	Target	AvoidedLoss	True
443.212	0.3	Lose2	0.6383	0.002	Yes	3.384	-0.002	2.0	GoodResponse	0	0.248	n/a	6	46	ButtonPress	AvoidedLoss	True
443.414	0.26	Lose2	0.6383	n/a	Yes	3.384	n/a	n/a	GoodResponse	0	n/a	n/a	6	46	Blank	AvoidedLoss	True
443.664	1.45	Lose2	0.6383	n/a	Yes	3.384	n/a	5.0	GoodResponse	0	0.016	442.68	6	46	Feedback	AvoidedLoss	True
445.114	3.384	Lose2	0.6383	n/a	Yes	3.384	n/a	n/a	GoodResponse	0	0.0	n/a	6	46	ISIslide	AvoidedLoss	True
448.512	0.25	Lose2	0.6457999999999999	0.0	Yes	2.688	0.012	n/a	GoodResponse	0	n/a	n/a	6	47	Cue	AvoidedLoss	True
448.762	4.0	Lose2	0.6457999999999999	0.0	Yes	2.688	0.0	n/a	GoodResponse	0	n/a	n/a	6	47	Fixation	AvoidedLoss	True
452.761	0.45	Lose2	0.6457999999999999	0.001	Yes	2.688	-0.001	2.0	GoodResponse	0	0.309	452.07	6	47	Target	AvoidedLoss	True
453.07	0.3	Lose2	0.6457999999999999	0.001	Yes	2.688	-0.001	2.0	GoodResponse	0	0.309	n/a	6	47	ButtonPress	AvoidedLoss	True
453.211	0.25	Lose2	0.6457999999999999	n/a	Yes	2.688	n/a	n/a	GoodResponse	0	n/a	n/a	6	47	Blank	AvoidedLoss	True
453.461	1.45	Lose2	0.6457999999999999	n/a	Yes	2.688	n/a	5.0	GoodResponse	0	0.023	452.484	6	47	Feedback	AvoidedLoss	True
454.91	2.688	Lose2	0.6457999999999999	n/a	Yes	2.688	n/a	n/a	GoodResponse	0	0.0	n/a	6	47	ISIslide	AvoidedLoss	True
457.626	0.25	Lose2	0.6531	0.0	Yes	3.024	0.026	n/a	GoodResponse	0	n/a	n/a	6	48	Cue	AvoidedLoss	True
457.876	3.95	Lose2	0.6531	0.0	Yes	3.024	0.0	n/a	GoodResponse	0	n/a	n/a	6	48	Fixation	AvoidedLoss	True
461.824	0.46	Lose2	0.6531	0.002	Yes	3.024	-0.002	2.0	GoodResponse	0	0.255	461.079	6	48	Target	AvoidedLoss	True
462.079	0.3	Lose2	0.6531	0.002	Yes	3.024	-0.002	2.0	GoodResponse	0	0.255	n/a	6	48	ButtonPress	AvoidedLoss	True
462.291	0.24	Lose2	0.6531	n/a	Yes	3.024	n/a	n/a	GoodResponse	0	n/a	n/a	6	48	Blank	AvoidedLoss	True
462.524	1.45	Lose2	0.6531	n/a	Yes	3.024	n/a	5.0	GoodResponse	0	0.033	461.557	6	48	Feedback	AvoidedLoss	True
463.973	3.024	Lose2	0.6531	n/a	Yes	3.024	n/a	n/a	GoodResponse	0	0.0	n/a	6	48	ISIslide	AvoidedLoss	True
467.022	0.25	Control	0.66	0.001	Yes	2.878	0.022	n/a	GoodResponse	0	n/a	n/a	6	49	Cue	Neutral	True
467.272	4.0	Control	0.66	0.0	Yes	2.878	0.0	n/a	GoodResponse	0	n/a	n/a	6	49	Fixation	Neutral	True
471.271	0.47	Control	0.66	0.001	Yes	2.878	-0.001	2.0	GoodResponse	0	0.243	470.514	6	49	Target	Neutral	True
471.514	0.3	Control	0.66	0.001	Yes	2.878	-0.001	2.0	GoodResponse	0	0.243	n/a	6	49	ButtonPress	Neutral	True
471.737	0.23	Control	0.66	n/a	Yes	2.878	n/a	n/a	GoodResponse	0	n/a	n/a	6	49	Blank	Neutral	True
471.971	1.45	Control	0.66	n/a	Yes	2.878	n/a	5.0	GoodResponse	0	0.001	470.972	6	49	Feedback	Neutral	True
473.42	2.878	Control	0.66	n/a	Yes	2.878	n/a	n/a	GoodResponse	0	0.0	n/a	6	49	ISIslide	Neutral	True
476.319	0.25	Control	0.6667000000000001	0.0	Yes	2.781	0.019	n/a	GoodResponse	0	n/a	n/a	6	50	Cue	Neutral	True
476.569	4.0	Control	0.6667000000000001	0.0	Yes	2.781	0.0	n/a	GoodResponse	0	n/a	n/a	6	50	Fixation	Neutral	True
480.568	0.47	Control	0.6667000000000001	0.001	Yes	2.781	-0.001	2.0	GoodResponse	0	0.278	479.846	6	50	Target	Neutral	True
480.846	0.3	Control	0.6667000000000001	0.001	Yes	2.781	-0.001	2.0	GoodResponse	0	0.278	n/a	6	50	ButtonPress	Neutral	True
481.051	0.23	Control	0.6667000000000001	n/a	Yes	2.781	n/a	n/a	GoodResponse	0	n/a	n/a	6	50	Blank	Neutral	True
481.267	1.45	Control	0.6667000000000001	n/a	Yes	2.781	n/a	5.0	GoodResponse	0	0.022	480.289	6	50	Feedback	Neutral	True
482.717	2.781	Control	0.6667000000000001	n/a	Yes	2.781	n/a	n/a	GoodResponse	0	0.0	n/a	6	50	ISIslide	Neutral	True
485.516	0.25	Control	0.6731	0.0	Yes	2.734	0.016	n/a	GoodResponse	0	n/a	n/a	6	51	Cue	Neutral	True
485.766	3.95	Control	0.6731	0.0	Yes	2.734	0.0	n/a	GoodResponse	0	n/a	n/a	6	51	Fixation	Neutral	True
489.714	0.46	Control	0.6731	0.002	Yes	2.734	-0.002	2.0	GoodResponse	0	0.35	489.064	6	51	Target	Neutral	True
490.064	0.3	Control	0.6731	0.002	Yes	2.734	-0.002	2.0	GoodResponse	0	0.35	n/a	6	51	ButtonPress	Neutral	True
490.181	0.24	Control	0.6731	n/a	Yes	2.734	n/a	n/a	GoodResponse	0	n/a	n/a	6	51	Blank	Neutral	True
490.414	1.45	Control	0.6731	n/a	Yes	2.734	n/a	5.0	GoodResponse	0	0.045	489.459	6	51	Feedback	Neutral	True
491.864	2.734	Control	0.6731	n/a	Yes	2.734	n/a	n/a	GoodResponse	0	0.0	n/a	6	51	ISIslide	Neutral	True
494.613	0.25	Control	0.6792	0.0	Yes	2.637	0.013	n/a	GoodResponse	0	n/a	n/a	6	52	Cue	Neutral	True
494.863	4.05	Control	0.6792	0.0	Yes	2.637	0.0	n/a	GoodResponse	0	n/a	n/a	6	52	Fixation	Neutral	True
498.911	0.45	Control	0.6792	0.002	Yes	2.637	-0.002	2.0	GoodResponse	0	0.269	498.18	6	52	Target	Neutral	True
499.18	0.3	Control	0.6792	0.002	Yes	2.637	-0.002	2.0	GoodResponse	0	0.269	n/a	6	52	ButtonPress	Neutral	True
499.361	0.25	Control	0.6792	n/a	Yes	2.637	n/a	n/a	GoodResponse	0	n/a	n/a	6	52	Blank	Neutral	True
499.611	1.45	Control	0.6792	n/a	Yes	2.637	n/a	5.0	GoodResponse	0	0.019	498.63	6	52	Feedback	Neutral	True
501.06	2.637	Control	0.6792	n/a	Yes	2.637	n/a	n/a	GoodResponse	0	0.0	n/a	6	52	ISIslide	Neutral	True
503.726	0.25	Win2	0.6851999999999999	0.0	Yes	2.924	0.026	n/a	GoodResponse	1	n/a	n/a	7	53	Cue	Win	True
503.976	4.05	Win2	0.6851999999999999	0.0	Yes	2.924	0.0	n/a	GoodResponse	1	n/a	n/a	7	53	Fixation	Win	True
508.024	0.44	Win2	0.6851999999999999	0.002	Yes	2.924	-0.002	2.0	GoodResponse	1	0.228	507.252	7	53	Target	Win	True
508.252	0.3	Win2	0.6851999999999999	0.002	Yes	2.924	-0.002	2.0	GoodResponse	1	0.228	n/a	7	53	ButtonPress	Win	True
508.474	0.26	Win2	0.6851999999999999	n/a	Yes	2.924	n/a	n/a	GoodResponse	1	n/a	n/a	7	53	Blank	Win	True
508.724	1.45	Win2	0.6851999999999999	n/a	Yes	2.924	n/a	5.0	GoodResponse	1	0.028	507.752	7	53	Feedback	Win	True
510.174	2.924	Win2	0.6851999999999999	n/a	Yes	2.924	n/a	n/a	GoodResponse	1	0.0	n/a	7	53	ISIslide	Win	True
513.123	0.25	Win2	0.6727	0.0	No	2.727	0.023	n/a	NoResponse	0	n/a	n/a	7	54	Cue	MissedWin	True
513.373	3.95	Win2	0.6727	0.0	No	2.727	0.0	n/a	NoResponse	0	n/a	n/a	7	54	Fixation	MissedWin	True
517.321	0.43	Win2	0.6727	0.002	No	2.727	-0.002	2.0	NoResponse	0	0.465	516.786	7	54	Target	MissedWin	True
517.754	0.27	Win2	0.6727	n/a	No	2.727	n/a	n/a	NoResponse	0	n/a	n/a	7	54	Blank	MissedWin	True
517.786	0.3	Win2	0.6727	0.002	No	2.727	-0.002	2.0	NoResponse	0	0.465	n/a	7	54	ButtonPress	MissedWin	True
518.021	1.45	Win2	0.6727	n/a	No	2.727	n/a	5.0	NoResponse	0	0.048	517.069	7	54	Feedback	MissedWin	True
519.47	2.727	Win2	0.6727	n/a	No	2.727	n/a	n/a	NoResponse	0	0.0	n/a	7	54	ISIslide	MissedWin	True
522.219	0.25	Control	0.6786	0.001	Yes	3.031	0.019	n/a	GoodResponse	0	n/a	n/a	7	55	Cue	Neutral	True
522.469	3.95	Control	0.6786	0.0	Yes	3.031	0.0	n/a	GoodResponse	0	n/a	n/a	7	55	Fixation	Neutral	True
526.418	0.42	Control	0.6786	0.001	Yes	3.031	-0.001	2.0	GoodResponse	0	0.262	525.68	7	55	Target	Neutral	True
526.68	0.3	Control	0.6786	0.001	Yes	3.031	-0.001	2.0	GoodResponse	0	0.262	n/a	7	55	ButtonPress	Neutral	True
526.834	0.28	Control	0.6786	n/a	Yes	3.031	n/a	n/a	GoodResponse	0	n/a	n/a	7	55	Blank	Neutral	True
527.118	1.45	Control	0.6786	n/a	Yes	3.031	n/a	5.0	GoodResponse	0	0.023	526.141	7	55	Feedback	Neutral	True
528.567	3.031	Control	0.6786	n/a	Yes	3.031	n/a	n/a	GoodResponse	0	0.0	n/a	7	55	ISIslide	Neutral	True
531.616	0.25	Control	0.6842	0.0	Yes	2.834	0.016	n/a	GoodResponse	0	n/a	n/a	7	56	Cue	Neutral	True
531.866	3.95	Control	0.6842	0.0	Yes	2.834	0.0	n/a	GoodResponse	0	n/a	n/a	7	56	Fixation	Neutral	True
535.815	0.41	Control	0.6842	0.001	Yes	2.834	-0.001	2.0	GoodResponse	0	0.249	535.064	7	56	Target	Neutral	True
536.064	0.3	Control	0.6842	0.001	Yes	2.834	-0.001	2.0	GoodResponse	0	0.249	n/a	7	56	ButtonPress	Neutral	True
536.231	0.29	Control	0.6842	n/a	Yes	2.834	n/a	n/a	GoodResponse	0	n/a	n/a	7	56	Blank	Neutral	True
536.514	1.45	Control	0.6842	n/a	Yes	2.834	n/a	5.0	GoodResponse	0	0.042	535.556	7	56	Feedback	Neutral	True
537.964	2.834	Control	0.6842	n/a	Yes	2.834	n/a	n/a	GoodResponse	0	0.0	n/a	7	56	ISIslide	Neutral	True
540.813	0.25	Control	0.6897	0.0	Yes	3.487	0.013	n/a	GoodResponse	0	n/a	n/a	7	57	Cue	Neutral	True
541.063	4.0	Control	0.6897	0.0	Yes	3.487	0.0	n/a	GoodResponse	0	n/a	n/a	7	57	Fixation	Neutral	True
545.061	0.4	Control	0.6897	0.002	Yes	3.487	-0.002	2.0	GoodResponse	0	0.214	544.275	7	57	Target	Neutral	True
545.275	0.3	Control	0.6897	0.002	Yes	3.487	-0.002	2.0	GoodResponse	0	0.214	n/a	7	57	ButtonPress	Neutral	True
545.461	0.3	Control	0.6897	n/a	Yes	3.487	n/a	n/a	GoodResponse	0	n/a	n/a	7	57	Blank	Neutral	True
545.761	1.45	Control	0.6897	n/a	Yes	3.487	n/a	5.0	GoodResponse	0	0.015	544.776	7	57	Feedback	Neutral	True
547.211	3.487	Control	0.6897	n/a	Yes	3.487	n/a	n/a	GoodResponse	0	0.0	n/a	7	57	ISIslide	Neutral	True
550.726	0.25	Win2	0.6949	0.0	Yes	2.724	0.026	n/a	GoodResponse	1	n/a	n/a	8	58	Cue	Win	True
550.976	4.05	Win2	0.6949	0.0	Yes	2.724	0.0	n/a	GoodResponse	1	n/a	n/a	8	58	Fixation	Win	True
555.024	0.39	Win2	0.6949	0.002	Yes	2.724	-0.002	2.0	GoodResponse	1	0.308	554.332	8	58	Target	Win	True
555.332	0.3	Win2	0.6949	0.002	Yes	2.724	-0.002	2.0	GoodResponse	1	0.308	n/a	8	58	ButtonPress	Win	True
555.424	0.31	Win2	0.6949	n/a	Yes	2.724	n/a	n/a	GoodResponse	1	n/a	n/a	8	58	Blank	Win	True
555.724	1.45	Win2	0.6949	n/a	Yes	2.724	n/a	5.0	GoodResponse	1	0.005	554.729	8	58	Feedback	Win	True
557.174	2.724	Win2	0.6949	n/a	Yes	2.724	n/a	n/a	GoodResponse	1	0.0	n/a	8	58	ISIslide	Win	True
559.923	0.25	Lose2	0.7	0.0	Yes	2.677	0.023	n/a	GoodResponse	0	n/a	n/a	8	59	Cue	AvoidedLoss	True
560.173	4.0	Lose2	0.7	0.0	Yes	2.677	0.0	n/a	GoodResponse	0	n/a	n/a	8	59	Fixation	AvoidedLoss	True
564.171	0.38	Lose2	0.7	0.002	Yes	2.677	-0.002	2.0	GoodResponse	0	0.203	563.374	8	59	Target	AvoidedLoss	True
564.374	0.3	Lose2	0.7	0.002	Yes	2.677	-0.002	2.0	GoodResponse	0	0.203	n/a	8	59	ButtonPress	AvoidedLoss	True
564.554	0.32	Lose2	0.7	n/a	Yes	2.677	n/a	n/a	GoodResponse	0	n/a	n/a	8	59	Blank	AvoidedLoss	True
564.871	1.45	Lose2	0.7	n/a	Yes	2.677	n/a	5.0	GoodResponse	0	0.026	563.897	8	59	Feedback	AvoidedLoss	True
566.32	2.677	Lose2	0.7	n/a	Yes	2.677	n/a	n/a	GoodResponse	0	0.0	n/a	8	59	ISIslide	AvoidedLoss	True
569.019	0.25	Control	0.7049	0.001	Yes	2.681	0.019	n/a	GoodResponse	0	n/a	n/a	8	60	Cue	Neutral	True
569.269	4.0	Control	0.7049	0.0	Yes	2.681	0.0	n/a	GoodResponse	0	n/a	n/a	8	60	Fixation	Neutral	True
573.268	0.37	Control	0.7049	0.001	Yes	2.681	-0.001	2.0	GoodResponse	0	0.291	572.559	8	60	Target	Neutral	True
573.559	0.3	Control	0.7049	0.001	Yes	2.681	-0.001	2.0	GoodResponse	0	0.291	n/a	8	60	ButtonPress	Neutral	True
573.634	0.33	Control	0.7049	n/a	Yes	2.681	n/a	n/a	GoodResponse	0	n/a	n/a	8	60	Blank	Neutral	True
573.968	1.45	Control	0.7049	n/a	Yes	2.681	n/a	5.0	GoodResponse	0	0.004	572.972	8	60	Feedback	Neutral	True
575.417	2.681	Control	0.7049	n/a	Yes	2.681	n/a	n/a	GoodResponse	0	0.0	n/a	8	60	ISIslide	Neutral	True
578.116	0.25	Lose2	0.7097	0.0	Yes	2.984	0.016	n/a	GoodResponse	0	n/a	n/a	8	61	Cue	AvoidedLoss	True
578.366	4.0	Lose2	0.7097	0.0	Yes	2.984	0.0	n/a	GoodResponse	0	n/a	n/a	8	61	Fixation	AvoidedLoss	True
582.365	0.36	Lose2	0.7097	0.001	Yes	2.984	-0.001	2.0	GoodResponse	0	0.255	581.62	8	61	Target	AvoidedLoss	True
582.62	0.3	Lose2	0.7097	0.001	Yes	2.984	-0.001	2.0	GoodResponse	0	0.255	n/a	8	61	ButtonPress	AvoidedLoss	True
582.731	0.34	Lose2	0.7097	n/a	Yes	2.984	n/a	n/a	GoodResponse	0	n/a	n/a	8	61	Blank	AvoidedLoss	True
583.064	1.45	Lose2	0.7097	n/a	Yes	2.984	n/a	5.0	GoodResponse	0	0.028	582.092	8	61	Feedback	AvoidedLoss	True
584.514	2.984	Lose2	0.7097	n/a	Yes	2.984	n/a	n/a	GoodResponse	0	0.0	n/a	8	61	ISIslide	AvoidedLoss	True
587.513	0.25	Lose2	0.7143	0.0	Yes	2.887	0.013	n/a	GoodResponse	0	n/a	n/a	8	62	Cue	AvoidedLoss	True
587.763	3.9	Lose2	0.7143	0.0	Yes	2.887	0.0	n/a	GoodResponse	0	n/a	n/a	8	62	Fixation	AvoidedLoss	True
591.661	0.35	Lose2	0.7143	0.002	Yes	2.887	-0.002	2.0	GoodResponse	0	0.249	590.91	8	62	Target	AvoidedLoss	True
591.91	0.3	Lose2	0.7143	0.002	Yes	2.887	-0.002	2.0	GoodResponse	0	0.249	n/a	8	62	ButtonPress	AvoidedLoss	True
592.011	0.35	Lose2	0.7143	n/a	Yes	2.887	n/a	n/a	GoodResponse	0	n/a	n/a	8	62	Blank	AvoidedLoss	True
592.361	1.45	Lose2	0.7143	n/a	Yes	2.887	n/a	5.0	GoodResponse	0	0.048	591.409	8	62	Feedback	AvoidedLoss	True
593.811	2.887	Lose2	0.7143	n/a	Yes	2.887	n/a	n/a	GoodResponse	0	0.0	n/a	8	62	ISIslide	AvoidedLoss	True
596.726	0.25	Lose2	0.7188	0.0	Yes	2.624	0.026	n/a	GoodResponse	0	n/a	n/a	8	63	Cue	AvoidedLoss	True
596.976	4.05	Lose2	0.7188	0.0	Yes	2.624	0.0	n/a	GoodResponse	0	n/a	n/a	8	63	Fixation	AvoidedLoss	True
601.025	0.34	Lose2	0.7188	0.001	Yes	2.624	-0.001	2.0	GoodResponse	0	0.236	600.261	8	63	Target	AvoidedLoss	True
601.261	0.3	Lose2	0.7188	0.001	Yes	2.624	-0.001	2.0	GoodResponse	0	0.236	n/a	8	63	ButtonPress	AvoidedLoss	True
601.375	0.36	Lose2	0.7188	n/a	Yes	2.624	n/a	n/a	GoodResponse	0	n/a	n/a	8	63	Blank	AvoidedLoss	True
601.724	1.45	Lose2	0.7188	n/a	Yes	2.624	n/a	5.0	GoodResponse	0	0.005	600.729	8	63	Feedback	AvoidedLoss	True
603.174	2.624	Lose2	0.7188	n/a	Yes	2.624	n/a	n/a	GoodResponse	0	0.0	n/a	8	63	ISIslide	AvoidedLoss	True
605.823	0.25	Win2	0.7231000000000001	0.0	Yes	3.127	0.023	n/a	GoodResponse	1	n/a	n/a	9	64	Cue	Win	True
606.073	4.15	Win2	0.7231000000000001	0.0	Yes	3.127	0.0	n/a	GoodResponse	1	n/a	n/a	9	64	Fixation	Win	True
610.221	0.33	Win2	0.7231000000000001	0.002	Yes	3.127	-0.002	2.0	GoodResponse	1	0.259	609.48	9	64	Target	Win	True
610.48	0.3	Win2	0.7231000000000001	0.002	Yes	3.127	-0.002	2.0	GoodResponse	1	0.259	n/a	9	64	ButtonPress	Win	True
610.555	0.37	Win2	0.7231000000000001	n/a	Yes	3.127	n/a	n/a	GoodResponse	1	n/a	n/a	9	64	Blank	Win	True
610.921	1.45	Win2	0.7231000000000001	n/a	Yes	3.127	n/a	5.0	GoodResponse	1	0.024	609.945	9	64	Feedback	Win	True
612.371	3.127	Win2	0.7231000000000001	n/a	Yes	3.127	n/a	n/a	GoodResponse	1	0.0	n/a	9	64	ISIslide	Win	True
615.52	0.25	Control	0.7273000000000001	0.0	Yes	2.78	0.02	n/a	GoodResponse	0	n/a	n/a	9	65	Cue	Neutral	True
615.769	4.0	Control	0.7273000000000001	0.001	Yes	2.78	-0.001	n/a	GoodResponse	0	n/a	n/a	9	65	Fixation	Neutral	True
619.768	0.32	Control	0.7273000000000001	0.002	Yes	2.78	-0.002	2.0	GoodResponse	0	0.261	619.029	9	65	Target	Neutral	True
620.029	0.3	Control	0.7273000000000001	0.002	Yes	2.78	-0.002	2.0	GoodResponse	0	0.261	n/a	9	65	ButtonPress	Neutral	True
620.101	0.38	Control	0.7273000000000001	n/a	Yes	2.78	n/a	n/a	GoodResponse	0	n/a	n/a	9	65	Blank	Neutral	True
620.468	1.45	Control	0.7273000000000001	n/a	Yes	2.78	n/a	5.0	GoodResponse	0	0.038	619.506	9	65	Feedback	Neutral	True
621.917	2.78	Control	0.7273000000000001	n/a	Yes	2.78	n/a	n/a	GoodResponse	0	0.0	n/a	9	65	ISIslide	Neutral	True
624.716	0.25	Win2	0.7313	0.0	Yes	2.784	0.016	n/a	GoodResponse	1	n/a	n/a	10	66	Cue	Win	True
624.966	3.9	Win2	0.7313	0.0	Yes	2.784	0.0	n/a	GoodResponse	1	n/a	n/a	10	66	Fixation	Win	True
628.865	0.31	Win2	0.7313	0.001	Yes	2.784	-0.001	2.0	GoodResponse	1	0.24	628.105	10	66	Target	Win	True
629.105	0.3	Win2	0.7313	0.001	Yes	2.784	-0.001	2.0	GoodResponse	1	0.24	n/a	10	66	ButtonPress	Win	True
629.181	0.39	Win2	0.7313	n/a	Yes	2.784	n/a	n/a	GoodResponse	1	n/a	n/a	10	66	Blank	Win	True
629.565	1.45	Win2	0.7313	n/a	Yes	2.784	n/a	5.0	GoodResponse	1	0.015	628.58	10	66	Feedback	Win	True
631.014	2.784	Win2	0.7313	n/a	Yes	2.784	n/a	n/a	GoodResponse	1	0.0	n/a	10	66	ISIslide	Win	True
633.813	0.25	Control	0.7206	0.0	No	2.737	0.013	n/a	NoResponse	0	n/a	n/a	10	67	Cue	Neutral	True
634.063	3.95	Control	0.7206	0.0	No	2.737	0.0	n/a	NoResponse	0	n/a	n/a	10	67	Fixation	Neutral	True
638.012	0.3	Control	0.7206	0.001	No	2.737	-0.001	2.0	NoResponse	0	0.309	637.321	10	67	Target	Neutral	True
638.311	0.4	Control	0.7206	n/a	No	2.737	n/a	n/a	NoResponse	0	n/a	n/a	10	67	Blank	Neutral	True
638.321	0.3	Control	0.7206	0.001	No	2.737	-0.001	2.0	NoResponse	0	0.309	n/a	10	67	ButtonPress	Neutral	True
638.711	1.45	Control	0.7206	n/a	No	2.737	n/a	5.0	NoResponse	0	0.039	637.75	10	67	Feedback	Neutral	True
640.161	2.737	Control	0.7206	n/a	No	2.737	n/a	n/a	NoResponse	0	0.0	n/a	10	67	ISIslide	Neutral	True
642.927	0.25	Win2	0.7245999999999999	0.0	Yes	3.073	0.027	n/a	GoodResponse	1	n/a	n/a	11	68	Cue	Win	True
643.176	4.0	Win2	0.7245999999999999	0.001	Yes	3.073	-0.001	n/a	GoodResponse	1	n/a	n/a	11	68	Fixation	Win	True
647.175	0.29	Win2	0.7245999999999999	0.002	Yes	3.073	-0.002	2.0	GoodResponse	1	0.276	646.451	11	68	Target	Win	True
647.451	0.3	Win2	0.7245999999999999	0.002	Yes	3.073	-0.002	2.0	GoodResponse	1	0.276	n/a	11	68	ButtonPress	Win	True
647.475	0.41	Win2	0.7245999999999999	n/a	Yes	3.073	n/a	n/a	GoodResponse	1	n/a	n/a	11	68	Blank	Win	True
647.875	1.45	Win2	0.7245999999999999	n/a	Yes	3.073	n/a	5.0	GoodResponse	1	0.045	646.92	11	68	Feedback	Win	True
649.324	3.073	Win2	0.7245999999999999	n/a	Yes	3.073	n/a	n/a	GoodResponse	1	0.0	n/a	11	68	ISIslide	Win	True
652.423	0.25	Win2	0.7143	0.0	No	3.227	0.023	n/a	NoResponse	0	n/a	n/a	11	69	Cue	MissedWin	False
652.673	3.95	Win2	0.7143	0.0	No	3.227	0.0	2.0	NoResponse	0	3.701	655.374	11	69	Fixation	MissedWin	False
656.374	0.3	Win2	0.7143	0.0	No	3.227	0.0	2.0	NoResponse	0	3.701	n/a	11	69	ButtonPress	MissedWin	False
656.622	0.28	Win2	0.7143	0.001	No	3.227	-0.001	2.0	NoResponse	0	0.401	656.023	11	69	Target	MissedWin	False
656.905	0.42	Win2	0.7143	n/a	No	3.227	n/a	n/a	NoResponse	0	n/a	n/a	11	69	Blank	MissedWin	False
657.023	0.3	Win2	0.7143	0.001	No	3.227	-0.001	2.0	NoResponse	0	0.401	n/a	11	69	ButtonPress	MissedWin	False
657.321	1.45	Win2	0.7143	n/a	No	3.227	n/a	5.0	NoResponse	0	0.014	656.335	11	69	Feedback	MissedWin	False
658.771	3.227	Win2	0.7143	n/a	No	3.227	n/a	n/a	NoResponse	0	0.0	n/a	11	69	ISIslide	MissedWin	False
662.02	0.25	Lose2	0.7042	0.0	No	3.03	0.02	n/a	NoResponse	-1	n/a	n/a	10	70	Cue	Loss	True
662.27	4.05	Lose2	0.7042	0.0	No	3.03	0.0	n/a	NoResponse	-1	n/a	n/a	10	70	Fixation	Loss	True
666.318	0.27	Lose2	0.7042	0.002	No	3.03	-0.002	2.0	NoResponse	-1	0.296	665.614	10	70	Target	Loss	True
666.601	0.43	Lose2	0.7042	n/a	No	3.03	n/a	n/a	NoResponse	-1	n/a	n/a	10	70	Blank	Loss	True
666.614	0.3	Lose2	0.7042	0.002	No	3.03	-0.002	2.0	NoResponse	-1	0.296	n/a	10	70	ButtonPress	Loss	True
667.018	1.45	Lose2	0.7042	n/a	No	3.03	n/a	5.0	NoResponse	-1	0.025	666.043	10	70	Feedback	Loss	True
668.467	3.03	Lose2	0.7042	n/a	No	3.03	n/a	n/a	NoResponse	-1	0.0	n/a	10	70	ISIslide	Loss	True
671.516	0.25	Win2	0.7082999999999999	0.0	Yes	2.734	0.016	n/a	GoodResponse	1	n/a	n/a	11	71	Cue	Win	True
671.766	4.05	Win2	0.7082999999999999	0.0	Yes	2.734	0.0	n/a	GoodResponse	1	n/a	n/a	11	71	Fixation	Win	True
675.815	0.26	Win2	0.7082999999999999	0.001	Yes	2.734	-0.001	2.0	GoodResponse	1	0.238	675.053	11	71	Target	Win	True
676.053	0.3	Win2	0.7082999999999999	0.001	Yes	2.734	-0.001	2.0	GoodResponse	1	0.238	n/a	11	71	ButtonPress	Win	True
676.081	0.44	Win2	0.7082999999999999	n/a	Yes	2.734	n/a	n/a	GoodResponse	1	n/a	n/a	11	71	Blank	Win	True
676.515	1.45	Win2	0.7082999999999999	n/a	Yes	2.734	n/a	5.0	GoodResponse	1	0.039	675.554	11	71	Feedback	Win	True
677.964	2.734	Win2	0.7082999999999999	n/a	Yes	2.734	n/a	n/a	GoodResponse	1	0.0	n/a	11	71	ISIslide	Win	True
680.713	0.25	Win2	0.6986	0.0	No	2.787	0.013	n/a	NoResponse	0	n/a	n/a	11	72	Cue	MissedWin	True
680.963	4.1	Win2	0.6986	0.0	No	2.787	0.0	n/a	NoResponse	0	n/a	n/a	11	72	Fixation	MissedWin	True
685.062	0.25	Win2	0.6986	0.001	No	2.787	-0.001	2.0	NoResponse	0	0.279	684.341	11	72	Target	MissedWin	True
685.311	0.45	Win2	0.6986	n/a	No	2.787	n/a	n/a	NoResponse	0	n/a	n/a	11	72	Blank	MissedWin	True
685.341	0.3	Win2	0.6986	0.001	No	2.787	-0.001	2.0	NoResponse	0	0.279	n/a	11	72	ButtonPress	MissedWin	True
685.761	1.45	Win2	0.6986	n/a	No	2.787	n/a	5.0	NoResponse	0	0.013	684.774	11	72	Feedback	MissedWin	True
687.211	2.787	Win2	0.6986	n/a	No	2.787	n/a	n/a	NoResponse	0	0.0	n/a	11	72	ISIslide	MissedWin	True
690.026	0.25	Win2	0.6892	0.0	No	2.674	0.026	n/a	LatePress	0	n/a	n/a	11	73	Cue	MissedWin	True
690.276	4.0	Win2	0.6892	0.0	No	2.674	0.0	n/a	LatePress	0	n/a	n/a	11	73	Fixation	MissedWin	True
694.275	0.24	Win2	0.6892	0.001	No	2.674	-0.001	2.0	LatePress	0	0.249	693.524	11	73	Target	MissedWin	True
694.524	0.3	Win2	0.6892	0.001	No	2.674	-0.001	2.0	LatePress	0	0.249	n/a	11	73	ButtonPress	MissedWin	True
694.525	0.46	Win2	0.6892	n/a	No	2.674	n/a	n/a	LatePress	0	n/a	n/a	11	73	Blank	MissedWin	True
694.975	1.45	Win2	0.6892	n/a	No	2.674	n/a	5.0	LatePress	0	0.018	693.993	11	73	Feedback	MissedWin	True
696.424	2.674	Win2	0.6892	n/a	No	2.674	n/a	n/a	LatePress	0	0.0	n/a	11	73	ISIslide	MissedWin	True
699.123	0.25	Lose2	0.68	0.0	No	2.627	0.023	n/a	NoResponse	-1	n/a	n/a	10	74	Cue	Loss	True
699.373	4.05	Lose2	0.68	0.0	No	2.627	0.0	n/a	NoResponse	-1	n/a	n/a	10	74	Fixation	Loss	True
703.422	0.23	Lose2	0.68	0.001	No	2.627	-0.001	2.0	NoResponse	-1	0.36	702.782	10	74	Target	Loss	True
703.655	0.47	Lose2	0.68	n/a	No	2.627	n/a	n/a	NoResponse	-1	n/a	n/a	10	74	Blank	Loss	True
703.782	0.3	Lose2	0.68	0.001	No	2.627	-0.001	2.0	NoResponse	-1	0.36	n/a	10	74	ButtonPress	Loss	True
704.121	1.45	Lose2	0.68	n/a	No	2.627	n/a	5.0	NoResponse	-1	0.043	703.164	10	74	Feedback	Loss	True
705.571	2.627	Lose2	0.68	n/a	No	2.627	n/a	n/a	NoResponse	-1	0.0	n/a	10	74	ISIslide	Loss	True
708.22	0.25	Lose2	0.6711	0.0	No	2.93	0.02	n/a	NoResponse	-1	n/a	n/a	9	75	Cue	Loss	True
708.47	3.95	Lose2	0.6711	0.0	No	2.93	0.0	n/a	NoResponse	-1	n/a	n/a	9	75	Fixation	Loss	True
712.418	0.22	Lose2	0.6711	0.002	No	2.93	-0.002	2.0	NoResponse	-1	0.259	711.677	9	75	Target	Loss	True
712.652	0.48	Lose2	0.6711	n/a	No	2.93	n/a	n/a	NoResponse	-1	n/a	n/a	9	75	Blank	Loss	True
712.677	0.3	Lose2	0.6711	0.002	No	2.93	-0.002	2.0	NoResponse	-1	0.259	n/a	9	75	ButtonPress	Loss	True
713.118	1.45	Lose2	0.6711	n/a	No	2.93	n/a	5.0	NoResponse	-1	0.021	712.139	9	75	Feedback	Loss	True
714.568	2.93	Lose2	0.6711	n/a	No	2.93	n/a	n/a	NoResponse	-1	0.0	n/a	9	75	ISIslide	Loss	True
717.517	0.25	Control	0.6623	0.0	No	3.233	0.017	n/a	NoResponse	0	n/a	n/a	9	76	Cue	Neutral	True
717.767	4.05	Control	0.6623	0.0	No	3.233	0.0	n/a	NoResponse	0	n/a	n/a	9	76	Fixation	Neutral	True
721.815	0.21	Control	0.6623	0.002	No	3.233	-0.002	2.0	NoResponse	0	0.243	721.058	9	76	Target	Neutral	True
722.032	0.49	Control	0.6623	n/a	No	3.233	n/a	n/a	NoResponse	0	n/a	n/a	9	76	Blank	Neutral	True
722.058	0.3	Control	0.6623	0.002	No	3.233	-0.002	2.0	NoResponse	0	0.243	n/a	9	76	ButtonPress	Neutral	True
722.515	1.45	Control	0.6623	n/a	No	3.233	n/a	5.0	NoResponse	0	0.039	721.554	9	76	Feedback	Neutral	True
723.964	3.233	Control	0.6623	n/a	No	3.233	n/a	n/a	NoResponse	0	0.0	n/a	9	76	ISIslide	Neutral	True
727.213	0.25	Lose2	0.6537999999999999	0.0	No	2.587	0.013	n/a	PrematurePress	-1	n/a	n/a	8	77	Cue	Loss	True
727.463	3.95	Lose2	0.6537999999999999	0.0	No	2.587	0.0	n/a	PrematurePress	-1	n/a	n/a	8	77	Fixation	Loss	True
731.412	0.21	Lose2	0.6537999999999999	0.001	No	2.587	-0.001	2.0	PrematurePress	-1	0.038	730.45	8	77	Target	Loss	True
731.45	0.3	Lose2	0.6537999999999999	0.001	No	2.587	-0.001	2.0	PrematurePress	-1	0.038	n/a	8	77	ButtonPress	Loss	True
731.628	0.49	Lose2	0.6537999999999999	n/a	No	2.587	n/a	n/a	PrematurePress	-1	n/a	n/a	8	77	Blank	Loss	True
732.111	1.45	Lose2	0.6537999999999999	n/a	No	2.587	n/a	5.0	PrematurePress	-1	0.005	731.116	8	77	Feedback	Loss	True
733.561	2.587	Lose2	0.6537999999999999	n/a	No	2.587	n/a	n/a	PrematurePress	-1	0.0	n/a	8	77	ISIslide	Loss	True
