onset	duration	cue_type	current_mean_accuracy	duration_error	is_hit	isi_adjusted	onset_delay	response	response_type	reward	rt	rt_time	total_reward	trial_number	trial_phase	trial_type	one_press
11.104	0.25	Control	1.0	0.0	Yes	2.946	0.004	n/a	GoodResponse	0	n/a	n/a	0	0	Cue	Neutral	True
11.355	3.85	Control	1.0	0.0	Yes	2.946	0.001	n/a	GoodResponse	0	n/a	n/a	0	0	Fixation	Neutral	True
15.2	0.4	Control	1.0	0.004	Yes	2.946	-0.004	2.0	GoodResponse	0	0.351	14.551	0	0	Target	Neutral	True
15.551	0.3	Control	1.0	0.004	Yes	2.946	-0.004	2.0	GoodResponse	0	0.351	n/a	0	0	ButtonPress	Neutral	True
15.601	0.3	Control	1.0	n/a	Yes	2.946	n/a	n/a	GoodResponse	0	n/a	n/a	0	0	Blank	Neutral	True
15.902	1.45	Control	1.0	n/a	Yes	2.946	n/a	5.0	GoodResponse	0	0.027	14.929	0	0	Feedback	Neutral	True
17.356	2.946	Control	1.0	n/a	Yes	2.946	n/a	n/a	GoodResponse	0	0.0	n/a	0	0	ISIslide	Neutral	True
20.332	0.25	Lose2	1.0	0.0	Yes	2.768	0.032	n/a	GoodResponse	0	n/a	n/a	0	1	Cue	AvoidedLoss	True
20.582	4.0	Lose2	1.0	0.0	Yes	2.768	0.0	n/a	GoodResponse	0	n/a	n/a	0	1	Fixation	AvoidedLoss	True
24.578	0.39	Lose2	1.0	0.004	Yes	2.768	-0.004	2.0	GoodResponse	0	0.254	23.832	0	1	Target	AvoidedLoss	True
24.832	0.3	Lose2	1.0	0.004	Yes	2.768	-0.004	2.0	GoodResponse	0	0.254	n/a	0	1	ButtonPress	AvoidedLoss	True
24.979	0.31	Lose2	1.0	n/a	Yes	2.768	n/a	n/a	GoodResponse	0	n/a	n/a	0	1	Blank	AvoidedLoss	True
25.28	1.45	Lose2	1.0	n/a	Yes	2.768	n/a	5.0	GoodResponse	0	0.015	24.295	0	1	Feedback	AvoidedLoss	True
26.734	2.768	Lose2	1.0	n/a	Yes	2.768	n/a	n/a	GoodResponse	0	0.0	n/a	0	1	ISIslide	AvoidedLoss	True
29.526	0.25	Control	1.0	0.0	Yes	2.574	0.026	n/a	GoodResponse	0	n/a	n/a	0	2	Cue	Neutral	True
29.777	4.1	Control	1.0	0.0	Yes	2.574	0.001	n/a	GoodResponse	0	n/a	n/a	0	2	Fixation	Neutral	True
33.872	0.38	Control	1.0	0.004	Yes	2.574	-0.004	2.0	GoodResponse	0	0.265	33.137	0	2	Target	Neutral	True
34.137	0.3	Control	1.0	0.004	Yes	2.574	-0.004	2.0	GoodResponse	0	0.265	n/a	0	2	ButtonPress	Neutral	True
34.257	0.32	Control	1.0	n/a	Yes	2.574	n/a	n/a	GoodResponse	0	n/a	n/a	0	2	Blank	Neutral	True
34.574	1.45	Control	1.0	n/a	Yes	2.574	n/a	5.0	GoodResponse	0	0.038	33.612	0	2	Feedback	Neutral	True
36.029	2.574	Control	1.0	n/a	Yes	2.574	n/a	n/a	GoodResponse	0	0.0	n/a	0	2	ISIslide	Neutral	True
38.687	0.25	Win2	1.0	0.0	Yes	2.763	0.087	n/a	GoodResponse	1	n/a	n/a	1	3	Cue	Win	True
38.937	3.95	Win2	1.0	0.0	Yes	2.763	0.0	n/a	GoodResponse	1	n/a	n/a	1	3	Fixation	Win	True
42.899	0.37	Win2	1.0	0.0	Yes	2.763	0.012	2.0	GoodResponse	1	0.251	42.15	1	3	Target	Win	True
43.15	0.3	Win2	1.0	0.0	Yes	2.763	0.012	2.0	GoodResponse	1	0.251	n/a	1	3	ButtonPress	Win	True
43.267	0.33	Win2	1.0	n/a	Yes	2.763	n/a	n/a	GoodResponse	1	n/a	n/a	1	3	Blank	Win	True
43.585	1.45	Win2	1.0	n/a	Yes	2.763	n/a	5.0	GoodResponse	1	0.005	42.59	1	3	Feedback	Win	True
45.039	2.763	Win2	1.0	n/a	Yes	2.763	n/a	n/a	GoodResponse	1	0.0	n/a	1	3	ISIslide	Win	True
47.831	0.25	Win2	1.0	0.0	Yes	3.269	0.031	n/a	GoodResponse	1	n/a	n/a	2	4	Cue	Win	True
48.081	4.0	Win2	1.0	0.0	Yes	3.269	0.0	n/a	GoodResponse	1	n/a	n/a	2	4	Fixation	Win	True
52.077	0.36	Win2	1.0	0.004	Yes	3.269	-0.004	2.0	GoodResponse	1	0.319	51.396	2	4	Target	Win	True
52.396	0.3	Win2	1.0	0.004	Yes	3.269	-0.004	2.0	GoodResponse	1	0.319	n/a	2	4	ButtonPress	Win	True
52.444	0.34	Win2	1.0	n/a	Yes	3.269	n/a	n/a	GoodResponse	1	n/a	n/a	2	4	Blank	Win	True
52.779	1.45	Win2	1.0	n/a	Yes	3.269	n/a	5.0	GoodResponse	1	0.028	51.807	2	4	Feedback	Win	True
54.233	3.269	Win2	1.0	n/a	Yes	3.269	n/a	n/a	GoodResponse	1	0.0	n/a	2	4	ISIslide	Win	True
57.526	0.25	Win2	1.0	0.0	Yes	2.774	0.026	n/a	GoodResponse	1	n/a	n/a	3	5	Cue	Win	True
57.777	4.0	Win2	1.0	0.0	Yes	2.774	0.001	n/a	GoodResponse	1	n/a	n/a	3	5	Fixation	Win	True
61.772	0.35	Win2	1.0	0.004	Yes	2.774	-0.004	2.0	GoodResponse	1	0.29	61.062	3	5	Target	Win	True
62.062	0.3	Win2	1.0	0.004	Yes	2.774	-0.004	2.0	GoodResponse	1	0.29	n/a	3	5	ButtonPress	Win	True
62.123	0.35	Win2	1.0	n/a	Yes	2.774	n/a	n/a	GoodResponse	1	n/a	n/a	3	5	Blank	Win	True
62.474	1.45	Win2	1.0	n/a	Yes	2.774	n/a	5.0	GoodResponse	1	0.04	61.514	3	5	Feedback	Win	True
63.929	2.774	Win2	1.0	n/a	Yes	2.774	n/a	n/a	GoodResponse	1	0.0	n/a	3	5	ISIslide	Win	True
66.72	0.25	Lose2	1.0	0.001	Yes	2.73	0.02	n/a	GoodResponse	0	n/a	n/a	3	6	Cue	AvoidedLoss	True
66.971	3.95	Lose2	1.0	0.0	Yes	2.73	0.001	n/a	GoodResponse	0	n/a	n/a	3	6	Fixation	AvoidedLoss	True
70.916	0.34	Lose2	1.0	0.004	Yes	2.73	-0.004	2.0	GoodResponse	0	0.263	70.179	3	6	Target	AvoidedLoss	True
71.179	0.3	Lose2	1.0	0.004	Yes	2.73	-0.004	2.0	GoodResponse	0	0.263	n/a	3	6	ButtonPress	AvoidedLoss	True
71.267	0.36	Lose2	1.0	n/a	Yes	2.73	n/a	n/a	GoodResponse	0	n/a	n/a	3	6	Blank	AvoidedLoss	True
71.618	1.45	Lose2	1.0	n/a	Yes	2.73	n/a	5.0	GoodResponse	0	0.018	70.636	3	6	Feedback	AvoidedLoss	True
73.073	2.73	Lose2	1.0	n/a	Yes	2.73	n/a	n/a	GoodResponse	0	0.0	n/a	3	6	ISIslide	AvoidedLoss	True
75.814	0.25	Lose2	1.0	0.0	Yes	4.036	0.014	n/a	GoodResponse	0	n/a	n/a	3	7	Cue	AvoidedLoss	True
76.065	4.05	Lose2	1.0	0.0	Yes	4.036	0.001	n/a	GoodResponse	0	n/a	n/a	3	7	Fixation	AvoidedLoss	True
80.111	0.33	Lose2	1.0	0.003	Yes	4.036	-0.003	2.0	GoodResponse	0	0.241	79.352	3	7	Target	AvoidedLoss	True
80.352	0.3	Lose2	1.0	0.003	Yes	4.036	-0.003	2.0	GoodResponse	0	0.241	n/a	3	7	ButtonPress	AvoidedLoss	True
80.445	0.37	Lose2	1.0	n/a	Yes	4.036	n/a	n/a	GoodResponse	0	n/a	n/a	3	7	Blank	AvoidedLoss	True
80.813	1.45	Lose2	1.0	n/a	Yes	4.036	n/a	5.0	GoodResponse	0	0.043	79.856	3	7	Feedback	AvoidedLoss	True
82.267	4.036	Lose2	1.0	n/a	Yes	4.036	n/a	n/a	GoodResponse	0	0.0	n/a	3	7	ISIslide	AvoidedLoss	True
86.329	0.25	Lose2	1.0	0.0	Yes	3.021	0.029	n/a	GoodResponse	0	n/a	n/a	3	8	Cue	AvoidedLoss	True
86.58	3.95	Lose2	1.0	0.0	Yes	3.021	0.001	n/a	GoodResponse	0	n/a	n/a	3	8	Fixation	AvoidedLoss	True
90.525	0.32	Lose2	1.0	0.004	Yes	3.021	-0.004	2.0	GoodResponse	0	0.262	89.787	3	8	Target	AvoidedLoss	True
90.787	0.3	Lose2	1.0	0.004	Yes	3.021	-0.004	2.0	GoodResponse	0	0.262	n/a	3	8	ButtonPress	AvoidedLoss	True
90.859	0.38	Lose2	1.0	n/a	Yes	3.021	n/a	n/a	GoodResponse	0	n/a	n/a	3	8	Blank	AvoidedLoss	True
91.227	1.45	Lose2	1.0	n/a	Yes	3.021	n/a	5.0	GoodResponse	0	0.019	90.246	3	8	Feedback	AvoidedLoss	True
92.681	3.021	Lose2	1.0	n/a	Yes	3.021	n/a	n/a	GoodResponse	0	0.0	n/a	3	8	ISIslide	AvoidedLoss	True
95.724	0.25	Lose2	0.9	0.0	No	3.126	0.024	n/a	NoResponse	-1	n/a	n/a	2	9	Cue	Loss	True
95.975	3.95	Lose2	0.9	0.0	No	3.126	0.001	n/a	NoResponse	-1	n/a	n/a	2	9	Fixation	Loss	True
99.92	0.31	Lose2	0.9	0.004	No	3.126	-0.004	2.0	NoResponse	-1	0.323	99.243	2	9	Target	Loss	True
100.237	0.39	Lose2	0.9	n/a	No	3.126	n/a	n/a	NoResponse	-1	n/a	n/a	2	9	Blank	Loss	True
100.243	0.3	Lose2	0.9	0.004	No	3.126	-0.004	2.0	NoResponse	-1	0.323	n/a	2	9	ButtonPress	Loss	True
100.622	1.45	Lose2	0.9	n/a	No	3.126	n/a	5.0	NoResponse	-1	0.038	99.66	2	9	Feedback	Loss	True
102.076	3.126	Lose2	0.9	n/a	No	3.126	n/a	n/a	NoResponse	-1	0.0	n/a	2	9	ISIslide	Loss	True
105.219	0.25	Control	0.9091	0.0	Yes	3.281	0.019	n/a	GoodResponse	0	n/a	n/a	2	10	Cue	Neutral	True
105.47	4.0	Control	0.9091	0.0	Yes	3.281	0.001	n/a	GoodResponse	0	n/a	n/a	2	10	Fixation	Neutral	True
109.465	0.3	Control	0.9091	0.004	Yes	3.281	-0.004	2.0	GoodResponse	0	0.252	108.717	2	10	Target	Neutral	True
109.717	0.3	Control	0.9091	0.004	Yes	3.281	-0.004	2.0	GoodResponse	0	0.252	n/a	2	10	ButtonPress	Neutral	True
109.766	0.4	Control	0.9091	n/a	Yes	3.281	n/a	n/a	GoodResponse	0	n/a	n/a	2	10	Blank	Neutral	True
110.167	1.45	Control	0.9091	n/a	Yes	3.281	n/a	5.0	GoodResponse	0	0.006	109.173	2	10	Feedback	Neutral	True
111.622	3.281	Control	0.9091	n/a	Yes	3.281	n/a	n/a	GoodResponse	0	0.0	n/a	2	10	ISIslide	Neutral	True
114.915	0.25	Lose2	0.9167000000000001	0.0	Yes	2.735	0.015	n/a	GoodResponse	0	n/a	n/a	2	11	Cue	AvoidedLoss	True
115.165	4.05	Lose2	0.9167000000000001	0.001	Yes	2.735	0.0	n/a	GoodResponse	0	n/a	n/a	2	11	Fixation	AvoidedLoss	True
119.211	0.29	Lose2	0.9167000000000001	0.004	Yes	2.735	-0.004	2.0	GoodResponse	0	0.248	118.459	2	11	Target	AvoidedLoss	True
119.459	0.3	Lose2	0.9167000000000001	0.004	Yes	2.735	-0.004	2.0	GoodResponse	0	0.248	n/a	2	11	ButtonPress	AvoidedLoss	True
119.512	0.41	Lose2	0.9167000000000001	n/a	Yes	2.735	n/a	n/a	GoodResponse	0	n/a	n/a	2	11	Blank	AvoidedLoss	True
119.913	1.45	Lose2	0.9167000000000001	n/a	Yes	2.735	n/a	5.0	GoodResponse	0	0.015	118.928	2	11	Feedback	AvoidedLoss	True
121.367	2.735	Lose2	0.9167000000000001	n/a	Yes	2.735	n/a	n/a	GoodResponse	0	0.0	n/a	2	11	ISIslide	AvoidedLoss	True
124.126	0.25	Control	0.8462000000000001	0.0	No	2.974	0.026	n/a	NoResponse	0	n/a	n/a	2	12	Cue	Neutral	True
124.376	3.9	Control	0.8462000000000001	0.0	No	2.974	0.0	n/a	NoResponse	0	n/a	n/a	2	12	Fixation	Neutral	True
128.288	0.28	Control	0.8462000000000001	0.0	No	2.974	0.012	2.0	NoResponse	0	0.289	127.577	2	12	Target	Neutral	True
128.556	0.42	Control	0.8462000000000001	n/a	No	2.974	n/a	n/a	NoResponse	0	n/a	n/a	2	12	Blank	Neutral	True
128.577	0.3	Control	0.8462000000000001	0.0	No	2.974	0.012	2.0	NoResponse	0	0.289	n/a	2	12	ButtonPress	Neutral	True
128.973	1.45	Control	0.8462000000000001	n/a	No	2.974	n/a	5.0	NoResponse	0	0.029	128.002	2	12	Feedback	Neutral	True
130.428	2.974	Control	0.8462000000000001	n/a	No	2.974	n/a	n/a	NoResponse	0	0.0	n/a	2	12	ISIslide	Neutral	True
133.42	0.25	Control	0.7857	0.0	No	2.78	0.02	n/a	NoResponse	0	n/a	n/a	2	13	Cue	Neutral	True
133.671	4.0	Control	0.7857	0.0	No	2.78	0.001	n/a	NoResponse	0	n/a	n/a	2	13	Fixation	Neutral	True
137.666	0.27	Control	0.7857	0.004	No	2.78	-0.004	2.0	NoResponse	0	0.393	137.059	2	13	Target	Neutral	True
137.95	0.43	Control	0.7857	n/a	No	2.78	n/a	n/a	NoResponse	0	n/a	n/a	2	13	Blank	Neutral	True
138.059	0.3	Control	0.7857	0.004	No	2.78	-0.004	2.0	NoResponse	0	0.393	n/a	2	13	ButtonPress	Neutral	True
138.368	1.45	Control	0.7857	n/a	No	2.78	n/a	5.0	NoResponse	0	0.048	137.416	2	13	Feedback	Neutral	True
139.823	2.78	Control	0.7857	n/a	No	2.78	n/a	n/a	NoResponse	0	0.0	n/a	2	13	ISIslide	Neutral	True
142.614	0.25	Win2	0.8	0.0	Yes	2.686	0.014	n/a	GoodResponse	1	n/a	n/a	3	14	Cue	Win	True
142.865	4.1	Win2	0.8	0.0	Yes	2.686	0.001	n/a	GoodResponse	1	n/a	n/a	3	14	Fixation	Win	True
146.961	0.26	Win2	0.8	0.003	Yes	2.686	-0.003	2.0	GoodResponse	1	0.253	146.214	3	14	Target	Win	True
147.214	0.3	Win2	0.8	0.003	Yes	2.686	-0.003	2.0	GoodResponse	1	0.253	n/a	3	14	ButtonPress	Win	True
147.228	0.44	Win2	0.8	n/a	Yes	2.686	n/a	n/a	GoodResponse	1	n/a	n/a	3	14	Blank	Win	True
147.663	1.45	Win2	0.8	n/a	Yes	2.686	n/a	5.0	GoodResponse	1	0.021	146.684	3	14	Feedback	Win	True
149.117	2.686	Win2	0.8	n/a	Yes	2.686	n/a	n/a	GoodResponse	1	0.0	n/a	3	14	ISIslide	Win	True
151.825	0.25	Control	0.75	0.0	No	2.975	0.025	n/a	NoResponse	0	n/a	n/a	3	15	Cue	Neutral	True
152.076	4.0	Control	0.75	0.0	No	2.975	0.001	n/a	NoResponse	0	n/a	n/a	3	15	Fixation	Neutral	True
156.071	0.25	Control	0.75	0.004	No	2.975	-0.004	2.0	NoResponse	0	0.26	155.331	3	15	Target	Neutral	True
156.322	0.45	Control	0.75	n/a	No	2.975	n/a	n/a	NoResponse	0	n/a	n/a	3	15	Blank	Neutral	True
156.331	0.3	Control	0.75	0.004	No	2.975	-0.004	2.0	NoResponse	0	0.26	n/a	3	15	ButtonPress	Neutral	True
156.773	1.45	Control	0.75	n/a	No	2.975	n/a	5.0	NoResponse	0	0.033	155.806	3	15	Feedback	Neutral	True
158.228	2.975	Control	0.75	n/a	No	2.975	n/a	n/a	NoResponse	0	0.0	n/a	3	15	ISIslide	Neutral	True
161.22	0.25	Win2	0.7059000000000001	0.0	No	2.88	0.02	n/a	LatePress	0	n/a	n/a	3	16	Cue	MissedWin	True
161.471	4.0	Win2	0.7059000000000001	0.0	No	2.88	0.001	n/a	LatePress	0	n/a	n/a	3	16	Fixation	MissedWin	True
165.466	0.24	Win2	0.7059000000000001	0.004	No	2.88	-0.004	2.0	LatePress	0	0.249	164.715	3	16	Target	MissedWin	True
165.715	0.3	Win2	0.7059000000000001	0.004	No	2.88	-0.004	2.0	LatePress	0	0.249	n/a	3	16	ButtonPress	MissedWin	True
165.717	0.46	Win2	0.7059000000000001	n/a	No	2.88	n/a	n/a	LatePress	0	n/a	n/a	3	16	Blank	MissedWin	True
166.168	1.45	Win2	0.7059000000000001	n/a	No	2.88	n/a	5.0	LatePress	0	0.004	165.172	3	16	Feedback	MissedWin	True
167.622	2.88	Win2	0.7059000000000001	n/a	No	2.88	n/a	n/a	LatePress	0	0.0	n/a	3	16	ISIslide	MissedWin	True
170.514	0.25	Lose2	0.6667000000000001	0.001	No	2.736	0.014	n/a	NoResponse	-1	n/a	n/a	2	17	Cue	Loss	False
170.765	3.95	Lose2	0.6667000000000001	0.0	No	2.736	0.001	n/a	NoResponse	-1	n/a	n/a	2	17	Fixation	Loss	False
174.71	0.23	Lose2	0.6667000000000001	0.004	No	2.736	-0.004	n/a	NoResponse	-1	n/a	n/a	2	17	Target	Loss	False
174.944	0.47	Lose2	0.6667000000000001	n/a	No	2.736	n/a	n/a	NoResponse	-1	n/a	n/a	2	17	Blank	Loss	False
175.412	1.45	Lose2	0.6667000000000001	n/a	No	2.736	n/a	5.0	NoResponse	-1	0.028	174.44	2	17	Feedback	Loss	False
176.867	2.736	Lose2	0.6667000000000001	n/a	No	2.736	n/a	n/a	NoResponse	-1	0.0	n/a	2	17	ISIslide	Loss	False
179.625	0.25	Lose2	0.6315999999999999	0.0	No	2.725	0.025	n/a	NoResponse	-1	n/a	n/a	1	18	Cue	Loss	True
179.876	4.05	Lose2	0.6315999999999999	0.0	No	2.725	0.001	n/a	NoResponse	-1	n/a	n/a	1	18	Fixation	Loss	True
183.921	0.22	Lose2	0.6315999999999999	0.004	No	2.725	-0.004	2.0	NoResponse	-1	0.24	183.161	1	18	Target	Loss	True
184.155	0.48	Lose2	0.6315999999999999	n/a	No	2.725	n/a	n/a	NoResponse	-1	n/a	n/a	1	18	Blank	Loss	True
184.161	0.3	Lose2	0.6315999999999999	0.004	No	2.725	-0.004	2.0	NoResponse	-1	0.24	n/a	1	18	ButtonPress	Loss	True
184.623	1.45	Lose2	0.6315999999999999	n/a	No	2.725	n/a	5.0	NoResponse	-1	0.037	183.66	1	18	Feedback	Loss	True
186.078	2.725	Lose2	0.6315999999999999	n/a	No	2.725	n/a	n/a	NoResponse	-1	0.0	n/a	1	18	ISIslide	Loss	True
188.819	0.25	Control	0.65	0.0	Yes	2.931	0.019	n/a	GoodResponse	0	n/a	n/a	1	19	Cue	Neutral	True
189.07	3.95	Control	0.65	0.0	Yes	2.931	0.001	n/a	GoodResponse	0	n/a	n/a	1	19	Fixation	Neutral	True
193.015	0.23	Control	0.65	0.004	Yes	2.931	-0.004	2.0	GoodResponse	0	0.224	192.239	1	19	Target	Neutral	True
193.239	0.3	Control	0.65	0.004	Yes	2.931	-0.004	2.0	GoodResponse	0	0.224	n/a	1	19	ButtonPress	Neutral	True
193.249	0.47	Control	0.65	n/a	Yes	2.931	n/a	n/a	GoodResponse	0	n/a	n/a	1	19	Blank	Neutral	True
193.717	1.45	Control	0.65	n/a	Yes	2.931	n/a	5.0	GoodResponse	0	0.016	192.733	1	19	Feedback	Neutral	True
195.172	2.931	Control	0.65	n/a	Yes	2.931	n/a	n/a	GoodResponse	0	0.0	n/a	1	19	ISIslide	Neutral	True
198.114	0.25	Control	0.619	0.0	No	2.636	0.014	n/a	LatePress	0	n/a	n/a	1	20	Cue	Neutral	True
198.364	4.05	Control	0.619	0.001	No	2.636	0.0	n/a	LatePress	0	n/a	n/a	1	20	Fixation	Neutral	True
202.41	0.24	Control	0.619	0.004	No	2.636	-0.004	2.0	LatePress	0	0.246	201.656	1	20	Target	Neutral	True
202.656	0.3	Control	0.619	0.004	No	2.636	-0.004	2.0	LatePress	0	0.246	n/a	1	20	ButtonPress	Neutral	True
202.661	0.46	Control	0.619	n/a	No	2.636	n/a	n/a	LatePress	0	n/a	n/a	1	20	Blank	Neutral	True
203.112	1.45	Control	0.619	n/a	No	2.636	n/a	5.0	LatePress	0	0.035	202.147	1	20	Feedback	Neutral	True
204.566	2.636	Control	0.619	n/a	No	2.636	n/a	n/a	LatePress	0	0.0	n/a	1	20	ISIslide	Neutral	True
207.224	0.25	Control	0.6364	0.0	Yes	2.776	0.024	n/a	GoodResponse	0	n/a	n/a	1	21	Cue	Neutral	True
207.475	4.1	Control	0.6364	0.0	Yes	2.776	0.001	n/a	GoodResponse	0	n/a	n/a	1	21	Fixation	Neutral	True
211.571	0.25	Control	0.6364	0.003	Yes	2.776	-0.003	2.0	GoodResponse	0	0.245	210.816	1	21	Target	Neutral	True
211.816	0.3	Control	0.6364	0.003	Yes	2.776	-0.003	2.0	GoodResponse	0	0.245	n/a	1	21	ButtonPress	Neutral	True
211.821	0.45	Control	0.6364	n/a	Yes	2.776	n/a	n/a	GoodResponse	0	n/a	n/a	1	21	Blank	Neutral	True
212.273	1.45	Control	0.6364	n/a	Yes	2.776	n/a	5.0	GoodResponse	0	0.045	211.318	1	21	Feedback	Neutral	True
213.727	2.776	Control	0.6364	n/a	Yes	2.776	n/a	n/a	GoodResponse	0	0.0	n/a	1	21	ISIslide	Neutral	True
216.519	0.25	Control	0.6522	0.0	Yes	2.781	0.019	n/a	GoodResponse	0	n/a	n/a	1	22	Cue	Neutral	True
216.77	4.0	Control	0.6522	0.0	Yes	2.781	0.001	n/a	GoodResponse	0	n/a	n/a	1	22	Fixation	Neutral	True
220.765	0.26	Control	0.6522	0.004	Yes	2.781	-0.004	2.0	GoodResponse	0	0.233	219.998	1	22	Target	Neutral	True
220.998	0.3	Control	0.6522	0.004	Yes	2.781	-0.004	2.0	GoodResponse	0	0.233	n/a	1	22	ButtonPress	Neutral	True
221.032	0.44	Control	0.6522	n/a	Yes	2.781	n/a	n/a	GoodResponse	0	n/a	n/a	1	22	Blank	Neutral	True
221.467	1.45	Control	0.6522	n/a	Yes	2.781	n/a	5.0	GoodResponse	0	0.022	220.489	1	22	Feedback	Neutral	True
222.921	2.781	Control	0.6522	n/a	Yes	2.781	n/a	n/a	GoodResponse	0	0.0	n/a	1	22	ISIslide	Neutral	True
225.73	0.25	Control	0.625	0.0	No	2.77	0.03	n/a	NoResponse	0	n/a	n/a	1	23	Cue	Neutral	True
225.98	3.9	Control	0.625	0.001	No	2.77	0.0	n/a	NoResponse	0	n/a	n/a	1	23	Fixation	Neutral	True
229.892	0.27	Control	0.625	0.0	No	2.77	0.012	2.0	NoResponse	0	0.277	229.169	1	23	Target	Neutral	True
230.16	0.43	Control	0.625	n/a	No	2.77	n/a	n/a	NoResponse	0	n/a	n/a	1	23	Blank	Neutral	True
230.169	0.3	Control	0.625	0.0	No	2.77	0.012	2.0	NoResponse	0	0.277	n/a	1	23	ButtonPress	Neutral	True
230.578	1.45	Control	0.625	n/a	No	2.77	n/a	5.0	NoResponse	0	0.033	229.611	1	23	Feedback	Neutral	True
232.032	2.77	Control	0.625	n/a	No	2.77	n/a	n/a	NoResponse	0	0.0	n/a	1	23	ISIslide	Neutral	True
234.824	0.25	Win2	0.64	0.0	Yes	3.126	0.024	n/a	GoodResponse	1	n/a	n/a	2	24	Cue	Win	True
235.074	3.95	Win2	0.64	0.0	Yes	3.126	0.0	n/a	GoodResponse	1	n/a	n/a	2	24	Fixation	Win	True
239.02	0.28	Win2	0.64	0.004	Yes	3.126	-0.004	2.0	GoodResponse	1	0.235	238.255	2	24	Target	Win	True
239.255	0.3	Win2	0.64	0.004	Yes	3.126	-0.004	2.0	GoodResponse	1	0.235	n/a	2	24	ButtonPress	Win	True
239.304	0.42	Win2	0.64	n/a	Yes	3.126	n/a	n/a	GoodResponse	1	n/a	n/a	2	24	Blank	Win	True
239.722	1.45	Win2	0.64	n/a	Yes	3.126	n/a	5.0	GoodResponse	1	0.011	238.733	2	24	Feedback	Win	True
241.176	3.126	Win2	0.64	n/a	Yes	3.126	n/a	n/a	GoodResponse	1	0.0	n/a	2	24	ISIslide	Win	True
244.319	0.25	Win2	0.6537999999999999	0.0	Yes	3.081	0.019	n/a	GoodResponse	1	n/a	n/a	3	25	Cue	Win	True
244.569	4.0	Win2	0.6537999999999999	0.001	Yes	3.081	0.0	n/a	GoodResponse	1	n/a	n/a	3	25	Fixation	Win	True
248.565	0.29	Win2	0.6537999999999999	0.004	Yes	3.081	-0.004	2.0	GoodResponse	1	0.224	247.789	3	25	Target	Win	True
248.789	0.3	Win2	0.6537999999999999	0.004	Yes	3.081	-0.004	2.0	GoodResponse	1	0.224	n/a	3	25	ButtonPress	Win	True
248.866	0.41	Win2	0.6537999999999999	n/a	Yes	3.081	n/a	n/a	GoodResponse	1	n/a	n/a	3	25	Blank	Win	True
249.267	1.45	Win2	0.6537999999999999	n/a	Yes	3.081	n/a	5.0	GoodResponse	1	0.026	248.293	3	25	Feedback	Win	True
250.721	3.081	Win2	0.6537999999999999	n/a	Yes	3.081	n/a	n/a	GoodResponse	1	0.0	n/a	3	25	ISIslide	Win	True
253.814	0.25	Win2	0.6667000000000001	0.0	Yes	2.936	0.014	n/a	GoodResponse	1	n/a	n/a	4	26	Cue	Win	True
254.065	3.95	Win2	0.6667000000000001	0.0	Yes	2.936	0.001	n/a	GoodResponse	1	n/a	n/a	4	26	Fixation	Win	True
258.01	0.3	Win2	0.6667000000000001	0.004	Yes	2.936	-0.004	2.0	GoodResponse	1	0.294	257.304	4	26	Target	Win	True
258.304	0.3	Win2	0.6667000000000001	0.004	Yes	2.936	-0.004	2.0	GoodResponse	1	0.294	n/a	4	26	ButtonPress	Win	True
258.311	0.4	Win2	0.6667000000000001	n/a	Yes	2.936	n/a	n/a	GoodResponse	1	n/a	n/a	4	26	Blank	Win	True
258.712	1.45	Win2	0.6667000000000001	n/a	Yes	2.936	n/a	5.0	GoodResponse	1	0.044	257.756	4	26	Feedback	Win	True
260.166	2.936	Win2	0.6667000000000001	n/a	Yes	2.936	n/a	n/a	GoodResponse	1	0.0	n/a	4	26	ISIslide	Win	True
263.125	0.25	Lose2	0.6786	0.0	Yes	2.825	0.025	n/a	GoodResponse	0	n/a	n/a	4	27	Cue	AvoidedLoss	True
263.376	4.05	Lose2	0.6786	0.0	Yes	2.825	0.001	n/a	GoodResponse	0	n/a	n/a	4	27	Fixation	AvoidedLoss	True
267.421	0.29	Lose2	0.6786	0.004	Yes	2.825	-0.004	2.0	GoodResponse	0	0.243	266.664	4	27	Target	AvoidedLoss	True
267.664	0.3	Lose2	0.6786	0.004	Yes	2.825	-0.004	2.0	GoodResponse	0	0.243	n/a	4	27	ButtonPress	AvoidedLoss	True
267.722	0.41	Lose2	0.6786	n/a	Yes	2.825	n/a	n/a	GoodResponse	0	n/a	n/a	4	27	Blank	AvoidedLoss	True
268.123	1.45	Lose2	0.6786	n/a	Yes	2.825	n/a	5.0	GoodResponse	0	0.048	267.171	4	27	Feedback	AvoidedLoss	True
269.578	2.825	Lose2	0.6786	n/a	Yes	2.825	n/a	n/a	GoodResponse	0	0.0	n/a	4	27	ISIslide	AvoidedLoss	True
272.419	0.25	Control	0.6897	0.001	Yes	2.831	0.019	n/a	GoodResponse	0	n/a	n/a	4	28	Cue	Neutral	True
272.67	4.05	Control	0.6897	0.0	Yes	2.831	0.001	n/a	GoodResponse	0	n/a	n/a	4	28	Fixation	Neutral	True
276.716	0.28	Control	0.6897	0.003	Yes	2.831	-0.003	2.0	GoodResponse	0	0.248	275.964	4	28	Target	Neutral	True
276.964	0.3	Control	0.6897	0.003	Yes	2.831	-0.003	2.0	GoodResponse	0	0.248	n/a	4	28	ButtonPress	Neutral	True
277	0.42	Control	0.6897	n/a	Yes	2.831	n/a	n/a	GoodResponse	0	n/a	n/a	4	28	Blank	Neutral	True
277.418	1.45	Control	0.6897	n/a	Yes	2.831	n/a	5.0	GoodResponse	0	0.022	276.44	4	28	Feedback	Neutral	True
278.872	2.831	Control	0.6897	n/a	Yes	2.831	n/a	n/a	GoodResponse	0	0.0	n/a	4	28	ISIslide	Neutral	True
281.714	0.25	Lose2	0.6667000000000001	0.0	No	2.836	0.014	n/a	NoResponse	-1	n/a	n/a	3	29	Cue	Loss	True
281.965	3.95	Lose2	0.6667000000000001	0.0	No	2.836	0.001	2.0	NoResponse	-1	3.896	284.861	3	29	Fixation	Loss	True
285.861	0.3	Lose2	0.6667000000000001	0.0	No	2.836	0.001	2.0	NoResponse	-1	3.896	n/a	3	29	ButtonPress	Loss	True
285.91	0.27	Lose2	0.6667000000000001	0.004	No	2.836	-0.004	n/a	NoResponse	-1	n/a	n/a	3	29	Target	Loss	True
286.194	0.43	Lose2	0.6667000000000001	n/a	No	2.836	n/a	n/a	NoResponse	-1	n/a	n/a	3	29	Blank	Loss	True
286.612	1.45	Lose2	0.6667000000000001	n/a	No	2.836	n/a	5.0	NoResponse	-1	0.047	285.659	3	29	Feedback	Loss	True
288.066	2.836	Lose2	0.6667000000000001	n/a	No	2.836	n/a	n/a	NoResponse	-1	0.0	n/a	3	29	ISIslide	Loss	True
290.925	0.25	Win2	0.6774	0.0	Yes	2.775	0.025	n/a	GoodResponse	1	n/a	n/a	4	30	Cue	Win	True
291.176	3.9	Win2	0.6774	0.0	Yes	2.775	0.001	n/a	GoodResponse	1	n/a	n/a	4	30	Fixation	Win	True
295.071	0.26	Win2	0.6774	0.004	Yes	2.775	-0.004	2.0	GoodResponse	1	0.246	294.317	4	30	Target	Win	True
295.317	0.3	Win2	0.6774	0.004	Yes	2.775	-0.004	2.0	GoodResponse	1	0.246	n/a	4	30	ButtonPress	Win	True
295.338	0.44	Win2	0.6774	n/a	Yes	2.775	n/a	n/a	GoodResponse	1	n/a	n/a	4	30	Blank	Win	True
295.773	1.45	Win2	0.6774	n/a	Yes	2.775	n/a	5.0	GoodResponse	1	0.008	294.781	4	30	Feedback	Win	True
297.227	2.775	Win2	0.6774	n/a	Yes	2.775	n/a	n/a	GoodResponse	1	0.0	n/a	4	30	ISIslide	Win	True
300.019	0.25	Lose2	0.6562	0.0	No	2.831	0.019	n/a	NoResponse	-1	n/a	n/a	3	31	Cue	Loss	True
300.27	4.05	Lose2	0.6562	0.0	No	2.831	0.001	n/a	NoResponse	-1	n/a	n/a	3	31	Fixation	Loss	True
304.315	0.25	Lose2	0.6562	0.004	No	2.831	-0.004	2.0	NoResponse	-1	0.262	303.577	3	31	Target	Loss	True
304.566	0.45	Lose2	0.6562	n/a	No	2.831	n/a	n/a	NoResponse	-1	n/a	n/a	3	31	Blank	Loss	True
304.577	0.3	Lose2	0.6562	0.004	No	2.831	-0.004	2.0	NoResponse	-1	0.262	n/a	3	31	ButtonPress	Loss	True
305.017	1.45	Lose2	0.6562	n/a	No	2.831	n/a	5.0	NoResponse	-1	0.032	304.049	3	31	Feedback	Loss	True
306.471	2.831	Lose2	0.6562	n/a	No	2.831	n/a	n/a	NoResponse	-1	0.0	n/a	3	31	ISIslide	Loss	True
309.313	0.25	Lose2	0.6667000000000001	0.0	Yes	2.637	0.013	n/a	GoodResponse	0	n/a	n/a	3	32	Cue	AvoidedLoss	True
309.564	4.15	Lose2	0.6667000000000001	0.0	Yes	2.637	0.001	n/a	GoodResponse	0	n/a	n/a	3	32	Fixation	AvoidedLoss	True
313.71	0.25	Lose2	0.6667000000000001	0.003	Yes	2.637	-0.003	2.0	GoodResponse	0	0.234	312.944	3	32	Target	AvoidedLoss	True
313.944	0.3	Lose2	0.6667000000000001	0.003	Yes	2.637	-0.003	2.0	GoodResponse	0	0.234	n/a	3	32	ButtonPress	AvoidedLoss	True
313.961	0.45	Lose2	0.6667000000000001	n/a	Yes	2.637	n/a	n/a	GoodResponse	0	n/a	n/a	3	32	Blank	AvoidedLoss	True
314.412	1.45	Lose2	0.6667000000000001	n/a	Yes	2.637	n/a	5.0	GoodResponse	0	0.004	313.416	3	32	Feedback	AvoidedLoss	True
315.866	2.637	Lose2	0.6667000000000001	n/a	Yes	2.637	n/a	n/a	GoodResponse	0	0.0	n/a	3	32	ISIslide	AvoidedLoss	True
318.524	0.25	Win2	0.6470999999999999	0.0	No	2.676	0.024	n/a	NoResponse	0	n/a	n/a	3	33	Cue	MissedWin	True
318.775	4.0	Win2	0.6470999999999999	0.0	No	2.676	0.001	n/a	NoResponse	0	n/a	n/a	3	33	Fixation	MissedWin	True
322.77	0.24	Win2	0.6470999999999999	0.004	No	2.676	-0.004	2.0	NoResponse	0	0.284	322.054	3	33	Target	MissedWin	True
323.021	0.46	Win2	0.6470999999999999	n/a	No	2.676	n/a	n/a	NoResponse	0	n/a	n/a	3	33	Blank	MissedWin	True
323.054	0.3	Win2	0.6470999999999999	0.004	No	2.676	-0.004	2.0	NoResponse	0	0.284	n/a	3	33	ButtonPress	MissedWin	True
323.472	1.45	Win2	0.6470999999999999	n/a	No	2.676	n/a	5.0	NoResponse	0	0.016	322.488	3	33	Feedback	MissedWin	True
324.927	2.676	Win2	0.6470999999999999	n/a	No	2.676	n/a	n/a	NoResponse	0	0.0	n/a	3	33	ISIslide	MissedWin	True
327.618	0.25	Lose2	0.6286	0.0	No	2.632	0.018	n/a	LatePress	-1	n/a	n/a	2	34	Cue	Loss	True
327.869	4.05	Lose2	0.6286	0.0	No	2.632	0.001	n/a	LatePress	-1	n/a	n/a	2	34	Fixation	Loss	True
331.914	0.25	Lose2	0.6286	0.004	No	2.632	-0.004	2.0	LatePress	-1	0.251	331.165	2	34	Target	Loss	True
332.165	0.45	Lose2	0.6286	n/a	No	2.632	n/a	n/a	LatePress	-1	n/a	n/a	2	34	Blank	Loss	True
332.165	0.3	Lose2	0.6286	0.004	No	2.632	-0.004	2.0	LatePress	-1	0.251	n/a	2	34	ButtonPress	Loss	True
332.616	1.45	Lose2	0.6286	n/a	No	2.632	n/a	5.0	LatePress	-1	0.043	331.659	2	34	Feedback	Loss	True
334.071	2.632	Lose2	0.6286	n/a	No	2.632	n/a	n/a	LatePress	-1	0.0	n/a	2	34	ISIslide	Loss	True
336.729	0.25	Lose2	0.6111	0.0	No	2.671	0.029	n/a	LatePress	-1	n/a	n/a	1	35	Cue	Loss	True
336.979	4.0	Lose2	0.6111	0.001	No	2.671	0.0	n/a	LatePress	-1	n/a	n/a	1	35	Fixation	Loss	True
340.975	0.26	Lose2	0.6111	0.004	No	2.671	-0.004	2.0	LatePress	-1	0.263	340.238	1	35	Target	Loss	True
341.238	0.3	Lose2	0.6111	0.004	No	2.671	-0.004	2.0	LatePress	-1	0.263	n/a	1	35	ButtonPress	Loss	True
341.242	0.44	Lose2	0.6111	n/a	No	2.671	n/a	n/a	LatePress	-1	n/a	n/a	1	35	Blank	Loss	True
341.677	1.45	Lose2	0.6111	n/a	No	2.671	n/a	5.0	LatePress	-1	0.006	340.683	1	35	Feedback	Loss	True
343.131	2.671	Lose2	0.6111	n/a	No	2.671	n/a	n/a	LatePress	-1	0.0	n/a	1	35	ISIslide	Loss	True
345.823	0.25	Control	0.6215999999999999	0.0	Yes	2.677	0.023	n/a	GoodResponse	0	n/a	n/a	1	36	Cue	Neutral	True
346.073	4.0	Control	0.6215999999999999	0.0	Yes	2.677	0.0	n/a	GoodResponse	0	n/a	n/a	1	36	Fixation	Neutral	True
350.069	0.27	Control	0.6215999999999999	0.004	Yes	2.677	-0.004	2.0	GoodResponse	0	0.243	349.312	1	36	Target	Neutral	True
350.312	0.3	Control	0.6215999999999999	0.004	Yes	2.677	-0.004	2.0	GoodResponse	0	0.243	n/a	1	36	ButtonPress	Neutral	True
350.353	0.43	Control	0.6215999999999999	n/a	Yes	2.677	n/a	n/a	GoodResponse	0	n/a	n/a	1	36	Blank	Neutral	True
350.771	1.45	Control	0.6215999999999999	n/a	Yes	2.677	n/a	5.0	GoodResponse	0	0.033	349.804	1	36	Feedback	Neutral	True
352.225	2.677	Control	0.6215999999999999	n/a	Yes	2.677	n/a	n/a	GoodResponse	0	0.0	n/a	1	36	ISIslide	Neutral	True
354.916	0.25	Win2	0.6315999999999999	0.001	Yes	2.884	0.016	n/a	GoodResponse	1	n/a	n/a	2	37	Cue	Win	True
355.167	4.0	Win2	0.6315999999999999	0.0	Yes	2.884	0.001	n/a	GoodResponse	1	n/a	n/a	2	37	Fixation	Win	True
359.162	0.28	Win2	0.6315999999999999	0.004	Yes	2.884	-0.004	2.0	GoodResponse	1	0.24	358.402	2	37	Target	Win	True
359.402	0.3	Win2	0.6315999999999999	0.004	Yes	2.884	-0.004	2.0	GoodResponse	1	0.24	n/a	2	37	ButtonPress	Win	True
359.447	0.42	Win2	0.6315999999999999	n/a	Yes	2.884	n/a	n/a	GoodResponse	1	n/a	n/a	2	37	Blank	Win	True
359.865	1.45	Win2	0.6315999999999999	n/a	Yes	2.884	n/a	5.0	GoodResponse	1	0.013	358.878	2	37	Feedback	Win	True
361.319	2.884	Win2	0.6315999999999999	n/a	Yes	2.884	n/a	n/a	GoodResponse	1	0.0	n/a	2	37	ISIslide	Win	True
364.228	0.25	Lose2	0.6409999999999999	0.0	Yes	2.822	0.028	n/a	GoodResponse	0	n/a	n/a	2	38	Cue	AvoidedLoss	True
364.478	3.95	Lose2	0.6409999999999999	0.0	Yes	2.822	0.0	n/a	GoodResponse	0	n/a	n/a	2	38	Fixation	AvoidedLoss	True
368.424	0.29	Lose2	0.6409999999999999	0.004	Yes	2.822	-0.004	2.0	GoodResponse	0	0.214	367.638	2	38	Target	AvoidedLoss	True
368.638	0.3	Lose2	0.6409999999999999	0.004	Yes	2.822	-0.004	2.0	GoodResponse	0	0.214	n/a	2	38	ButtonPress	AvoidedLoss	True
368.724	0.41	Lose2	0.6409999999999999	n/a	Yes	2.822	n/a	n/a	GoodResponse	0	n/a	n/a	2	38	Blank	AvoidedLoss	True
369.126	1.45	Lose2	0.6409999999999999	n/a	Yes	2.822	n/a	5.0	GoodResponse	0	0.02	368.146	2	38	Feedback	AvoidedLoss	True
370.58	2.822	Lose2	0.6409999999999999	n/a	Yes	2.822	n/a	n/a	GoodResponse	0	0.0	n/a	2	38	ISIslide	AvoidedLoss	True
373.422	0.25	Win2	0.65	0.0	Yes	2.978	0.022	n/a	GoodResponse	1	n/a	n/a	3	39	Cue	Win	True
373.673	4.1	Win2	0.65	0.0	Yes	2.978	0.001	n/a	GoodResponse	1	n/a	n/a	3	39	Fixation	Win	True
377.768	0.3	Win2	0.65	0.004	Yes	2.978	-0.004	2.0	GoodResponse	1	0.229	376.997	3	39	Target	Win	True
377.997	0.3	Win2	0.65	0.004	Yes	2.978	-0.004	2.0	GoodResponse	1	0.229	n/a	3	39	ButtonPress	Win	True
378.069	0.4	Win2	0.65	n/a	Yes	2.978	n/a	n/a	GoodResponse	1	n/a	n/a	3	39	Blank	Win	True
378.47	1.45	Win2	0.65	n/a	Yes	2.978	n/a	5.0	GoodResponse	1	0.042	377.512	3	39	Feedback	Win	True
379.925	2.978	Win2	0.65	n/a	Yes	2.978	n/a	n/a	GoodResponse	1	0.0	n/a	3	39	ISIslide	Win	True
382.917	0.25	Win2	0.6585	0.0	Yes	2.733	0.017	n/a	GoodResponse	1	n/a	n/a	4	40	Cue	Win	True
383.168	3.95	Win2	0.6585	0.0	Yes	2.733	0.001	n/a	GoodResponse	1	n/a	n/a	4	40	Fixation	Win	True
387.113	0.31	Win2	0.6585	0.004	Yes	2.733	-0.004	2.0	GoodResponse	1	0.276	386.389	4	40	Target	Win	True
387.389	0.3	Win2	0.6585	0.004	Yes	2.733	-0.004	2.0	GoodResponse	1	0.276	n/a	4	40	ButtonPress	Win	True
387.43	0.39	Win2	0.6585	n/a	Yes	2.733	n/a	n/a	GoodResponse	1	n/a	n/a	4	40	Blank	Win	True
387.815	1.45	Win2	0.6585	n/a	Yes	2.733	n/a	5.0	GoodResponse	1	0.014	386.829	4	40	Feedback	Win	True
389.269	2.733	Win2	0.6585	n/a	Yes	2.733	n/a	n/a	GoodResponse	1	0.0	n/a	4	40	ISIslide	Win	True
392.028	0.25	Win2	0.6667000000000001	0.0	Yes	2.772	0.028	n/a	GoodResponse	1	n/a	n/a	5	41	Cue	Win	True
392.278	3.9	Win2	0.6667000000000001	0.0	Yes	2.772	0.0	n/a	GoodResponse	1	n/a	n/a	5	41	Fixation	Win	True
396.19	0.31	Win2	0.6667000000000001	0.0	Yes	2.772	0.012	2.0	GoodResponse	1	0.241	395.431	5	41	Target	Win	True
396.431	0.3	Win2	0.6667000000000001	0.0	Yes	2.772	0.012	2.0	GoodResponse	1	0.241	n/a	5	41	ButtonPress	Win	True
396.491	0.39	Win2	0.6667000000000001	n/a	Yes	2.772	n/a	n/a	GoodResponse	1	n/a	n/a	5	41	Blank	Win	True
396.875	1.45	Win2	0.6667000000000001	n/a	Yes	2.772	n/a	5.0	GoodResponse	1	0.028	395.903	5	41	Feedback	Win	True
398.33	2.772	Win2	0.6667000000000001	n/a	Yes	2.772	n/a	n/a	GoodResponse	1	0.0	n/a	5	41	ISIslide	Win	True
401.121	0.25	Control	0.6512	0.001	No	2.929	0.021	n/a	NoResponse	0	n/a	n/a	5	42	Cue	Neutral	True
401.372	3.85	Control	0.6512	0.0	No	2.929	0.001	n/a	NoResponse	0	n/a	n/a	5	42	Fixation	Neutral	True
405.217	0.3	Control	0.6512	0.004	No	2.929	-0.004	2.0	NoResponse	0	0.331	404.548	5	42	Target	Neutral	True
405.518	0.4	Control	0.6512	n/a	No	2.929	n/a	n/a	NoResponse	0	n/a	n/a	5	42	Blank	Neutral	True
405.548	0.3	Control	0.6512	0.004	No	2.929	-0.004	2.0	NoResponse	0	0.331	n/a	5	42	ButtonPress	Neutral	True
405.919	1.45	Control	0.6512	n/a	No	2.929	n/a	5.0	NoResponse	0	0.007	404.926	5	42	Feedback	Neutral	True
407.373	2.929	Control	0.6512	n/a	No	2.929	n/a	n/a	NoResponse	0	0.0	n/a	5	42	ISIslide	Neutral	True
410.316	0.25	Win2	0.6591	0.0	Yes	3.184	0.016	n/a	GoodResponse	1	n/a	n/a	6	43	Cue	Win	True
410.566	4.0	Win2	0.6591	0.0	Yes	3.184	0.0	n/a	GoodResponse	1	n/a	n/a	6	43	Fixation	Win	True
414.562	0.31	Win2	0.6591	0.004	Yes	3.184	-0.004	2.0	GoodResponse	1	0.261	413.823	6	43	Target	Win	True
414.823	0.3	Win2	0.6591	0.004	Yes	3.184	-0.004	2.0	GoodResponse	1	0.261	n/a	6	43	ButtonPress	Win	True
414.879	0.39	Win2	0.6591	n/a	Yes	3.184	n/a	n/a	GoodResponse	1	n/a	n/a	6	43	Blank	Win	True
415.264	1.45	Win2	0.6591	n/a	Yes	3.184	n/a	5.0	GoodResponse	1	0.028	414.292	6	43	Feedback	Win	True
416.718	3.184	Win2	0.6591	n/a	Yes	3.184	n/a	n/a	GoodResponse	1	0.0	n/a	6	43	ISIslide	Win	True
419.928	0.25	Win2	0.6667000000000001	0.0	Yes	2.972	0.028	n/a	GoodResponse	1	n/a	n/a	7	44	Cue	Win	True
420.178	4.0	Win2	0.6667000000000001	0.001	Yes	2.972	0.0	n/a	GoodResponse	1	n/a	n/a	7	44	Fixation	Win	True
424.174	0.31	Win2	0.6667000000000001	0.004	Yes	2.972	-0.004	2.0	GoodResponse	1	0.243	423.417	7	44	Target	Win	True
424.417	0.3	Win2	0.6667000000000001	0.004	Yes	2.972	-0.004	2.0	GoodResponse	1	0.243	n/a	7	44	ButtonPress	Win	True
424.491	0.39	Win2	0.6667000000000001	n/a	Yes	2.972	n/a	n/a	GoodResponse	1	n/a	n/a	7	44	Blank	Win	True
424.876	1.45	Win2	0.6667000000000001	n/a	Yes	2.972	n/a	5.0	GoodResponse	1	0.026	423.902	7	44	Feedback	Win	True
426.33	2.972	Win2	0.6667000000000001	n/a	Yes	2.972	n/a	n/a	GoodResponse	1	0.0	n/a	7	44	ISIslide	Win	True
429.322	0.25	Control	0.6739	0.001	Yes	2.878	0.022	n/a	GoodResponse	0	n/a	n/a	7	45	Cue	Neutral	True
429.573	4.1	Control	0.6739	0.0	Yes	2.878	0.001	n/a	GoodResponse	0	n/a	n/a	7	45	Fixation	Neutral	True
433.669	0.3	Control	0.6739	0.003	Yes	2.878	-0.003	2.0	GoodResponse	0	0.256	432.925	7	45	Target	Neutral	True
433.925	0.3	Control	0.6739	0.003	Yes	2.878	-0.003	2.0	GoodResponse	0	0.256	n/a	7	45	ButtonPress	Neutral	True
433.97	0.4	Control	0.6739	n/a	Yes	2.878	n/a	n/a	GoodResponse	0	n/a	n/a	7	45	Blank	Neutral	True
434.371	1.45	Control	0.6739	n/a	Yes	2.878	n/a	5.0	GoodResponse	0	0.043	433.414	7	45	Feedback	Neutral	True
435.825	2.878	Control	0.6739	n/a	Yes	2.878	n/a	n/a	GoodResponse	0	0.0	n/a	7	45	ISIslide	Neutral	True
438.717	0.25	Lose2	0.6809000000000001	0.0	Yes	3.383	0.017	n/a	GoodResponse	0	n/a	n/a	7	46	Cue	AvoidedLoss	True
438.968	4.0	Lose2	0.6809000000000001	0.0	Yes	3.383	0.001	n/a	GoodResponse	0	n/a	n/a	7	46	Fixation	AvoidedLoss	True
442.963	0.29	Lose2	0.6809000000000001	0.004	Yes	3.383	-0.004	2.0	GoodResponse	0	0.259	442.222	7	46	Target	AvoidedLoss	True
443.222	0.3	Lose2	0.6809000000000001	0.004	Yes	3.383	-0.004	2.0	GoodResponse	0	0.259	n/a	7	46	ButtonPress	AvoidedLoss	True
443.264	0.41	Lose2	0.6809000000000001	n/a	Yes	3.383	n/a	n/a	GoodResponse	0	n/a	n/a	7	46	Blank	AvoidedLoss	True
443.665	1.45	Lose2	0.6809000000000001	n/a	Yes	3.383	n/a	5.0	GoodResponse	0	0.018	442.683	7	46	Feedback	AvoidedLoss	True
445.12	3.383	Lose2	0.6809000000000001	n/a	Yes	3.383	n/a	n/a	GoodResponse	0	0.0	n/a	7	46	ISIslide	AvoidedLoss	True
448.513	0.25	Lose2	0.6875	0.0	Yes	2.687	0.013	n/a	GoodResponse	0	n/a	n/a	7	47	Cue	AvoidedLoss	True
448.764	4.0	Lose2	0.6875	0.0	Yes	2.687	0.001	n/a	GoodResponse	0	n/a	n/a	7	47	Fixation	AvoidedLoss	True
452.759	0.28	Lose2	0.6875	0.004	Yes	2.687	-0.004	2.0	GoodResponse	0	0.278	452.037	7	47	Target	AvoidedLoss	True
453.037	0.3	Lose2	0.6875	0.004	Yes	2.687	-0.004	2.0	GoodResponse	0	0.278	n/a	7	47	ButtonPress	AvoidedLoss	True
453.043	0.42	Lose2	0.6875	n/a	Yes	2.687	n/a	n/a	GoodResponse	0	n/a	n/a	7	47	Blank	AvoidedLoss	True
453.461	1.45	Lose2	0.6875	n/a	Yes	2.687	n/a	5.0	GoodResponse	0	0.026	452.487	7	47	Feedback	AvoidedLoss	True
454.916	2.687	Lose2	0.6875	n/a	Yes	2.687	n/a	n/a	GoodResponse	0	0.0	n/a	7	47	ISIslide	AvoidedLoss	True
457.624	0.25	Lose2	0.6939	0.0	Yes	3.026	0.024	n/a	GoodResponse	0	n/a	n/a	7	48	Cue	AvoidedLoss	True
457.875	3.95	Lose2	0.6939	0.0	Yes	3.026	0.001	n/a	GoodResponse	0	n/a	n/a	7	48	Fixation	AvoidedLoss	True
461.82	0.27	Lose2	0.6939	0.004	Yes	3.026	-0.004	2.0	GoodResponse	0	0.231	461.051	7	48	Target	AvoidedLoss	True
462.051	0.3	Lose2	0.6939	0.004	Yes	3.026	-0.004	2.0	GoodResponse	0	0.231	n/a	7	48	ButtonPress	AvoidedLoss	True
462.104	0.43	Lose2	0.6939	n/a	Yes	3.026	n/a	n/a	GoodResponse	0	n/a	n/a	7	48	Blank	AvoidedLoss	True
462.522	1.45	Lose2	0.6939	n/a	Yes	3.026	n/a	5.0	GoodResponse	0	0.038	461.56	7	48	Feedback	AvoidedLoss	True
463.976	3.026	Lose2	0.6939	n/a	Yes	3.026	n/a	n/a	GoodResponse	0	0.0	n/a	7	48	ISIslide	AvoidedLoss	True
467.019	0.25	Control	0.68	0.0	No	2.881	0.019	n/a	NoResponse	0	n/a	n/a	7	49	Cue	Neutral	True
467.269	4.0	Control	0.68	0.0	No	2.881	0.0	n/a	NoResponse	0	n/a	n/a	7	49	Fixation	Neutral	True
471.265	0.26	Control	0.68	0.004	No	2.881	-0.004	2.0	NoResponse	0	0.274	470.539	7	49	Target	Neutral	True
471.532	0.44	Control	0.68	n/a	No	2.881	n/a	n/a	NoResponse	0	n/a	n/a	7	49	Blank	Neutral	True
471.539	0.3	Control	0.68	0.004	No	2.881	-0.004	2.0	NoResponse	0	0.274	n/a	7	49	ButtonPress	Neutral	True
471.967	1.45	Control	0.68	n/a	No	2.881	n/a	5.0	NoResponse	0	0.008	470.975	7	49	Feedback	Neutral	True
473.421	2.881	Control	0.68	n/a	No	2.881	n/a	n/a	NoResponse	0	0.0	n/a	7	49	ISIslide	Neutral	True
476.313	0.25	Control	0.6667000000000001	0.0	No	2.787	0.013	n/a	NoResponse	0	n/a	n/a	7	50	Cue	Neutral	True
476.564	4.0	Control	0.6667000000000001	0.0	No	2.787	0.001	n/a	NoResponse	0	n/a	n/a	7	50	Fixation	Neutral	True
480.559	0.25	Control	0.6667000000000001	0.004	No	2.787	-0.004	2.0	NoResponse	0	0.319	479.878	7	50	Target	Neutral	True
480.81	0.45	Control	0.6667000000000001	n/a	No	2.787	n/a	n/a	NoResponse	0	n/a	n/a	7	50	Blank	Neutral	True
480.878	0.3	Control	0.6667000000000001	0.004	No	2.787	-0.004	2.0	NoResponse	0	0.319	n/a	7	50	ButtonPress	Neutral	True
481.261	1.45	Control	0.6667000000000001	n/a	No	2.787	n/a	5.0	NoResponse	0	0.031	480.292	7	50	Feedback	Neutral	True
482.716	2.787	Control	0.6667000000000001	n/a	No	2.787	n/a	n/a	NoResponse	0	0.0	n/a	7	50	ISIslide	Neutral	True
485.524	0.25	Control	0.6537999999999999	0.0	No	2.726	0.024	n/a	NoResponse	0	n/a	n/a	7	51	Cue	Neutral	True
485.775	3.95	Control	0.6537999999999999	0.0	No	2.726	0.001	n/a	NoResponse	0	n/a	n/a	7	51	Fixation	Neutral	True
489.72	0.24	Control	0.6537999999999999	0.004	No	2.726	-0.004	2.0	NoResponse	0	0.284	489.004	7	51	Target	Neutral	True
489.971	0.46	Control	0.6537999999999999	n/a	No	2.726	n/a	n/a	NoResponse	0	n/a	n/a	7	51	Blank	Neutral	True
490.004	0.3	Control	0.6537999999999999	0.004	No	2.726	-0.004	2.0	NoResponse	0	0.284	n/a	7	51	ButtonPress	Neutral	True
490.422	1.45	Control	0.6537999999999999	n/a	No	2.726	n/a	5.0	NoResponse	0	0.041	489.463	7	51	Feedback	Neutral	True
491.876	2.726	Control	0.6537999999999999	n/a	No	2.726	n/a	n/a	NoResponse	0	0.0	n/a	7	51	ISIslide	Neutral	True
494.618	0.25	Control	0.6415000000000001	0.0	No	2.632	0.018	n/a	NoResponse	0	n/a	n/a	7	52	Cue	Neutral	True
494.869	4.05	Control	0.6415000000000001	0.0	No	2.632	0.001	n/a	NoResponse	0	n/a	n/a	7	52	Fixation	Neutral	True
498.914	0.25	Control	0.6415000000000001	0.004	No	2.632	-0.004	2.0	NoResponse	0	0.261	498.175	7	52	Target	Neutral	True
499.165	0.45	Control	0.6415000000000001	n/a	No	2.632	n/a	n/a	NoResponse	0	n/a	n/a	7	52	Blank	Neutral	True
499.175	0.3	Control	0.6415000000000001	0.004	No	2.632	-0.004	2.0	NoResponse	0	0.261	n/a	7	52	ButtonPress	Neutral	True
499.616	1.45	Control	0.6415000000000001	n/a	No	2.632	n/a	5.0	NoResponse	0	0.017	498.633	7	52	Feedback	Neutral	True
501.071	2.632	Control	0.6415000000000001	n/a	No	2.632	n/a	n/a	NoResponse	0	0.0	n/a	7	52	ISIslide	Neutral	True
503.729	0.25	Win2	0.6481	0.0	Yes	2.921	0.029	n/a	GoodResponse	1	n/a	n/a	8	53	Cue	Win	True
503.979	4.05	Win2	0.6481	0.0	Yes	2.921	0.0	n/a	GoodResponse	1	n/a	n/a	8	53	Fixation	Win	True
508.025	0.26	Win2	0.6481	0.004	Yes	2.921	-0.004	2.0	GoodResponse	1	0.229	507.254	8	53	Target	Win	True
508.254	0.3	Win2	0.6481	0.004	Yes	2.921	-0.004	2.0	GoodResponse	1	0.229	n/a	8	53	ButtonPress	Win	True
508.292	0.44	Win2	0.6481	n/a	Yes	2.921	n/a	n/a	GoodResponse	1	n/a	n/a	8	53	Blank	Win	True
508.727	1.45	Win2	0.6481	n/a	Yes	2.921	n/a	5.0	GoodResponse	1	0.028	507.755	8	53	Feedback	Win	True
510.181	2.921	Win2	0.6481	n/a	Yes	2.921	n/a	n/a	GoodResponse	1	0.0	n/a	8	53	ISIslide	Win	True
513.123	0.25	Win2	0.6545000000000001	0.0	Yes	2.727	0.023	n/a	GoodResponse	1	n/a	n/a	9	54	Cue	Win	True
513.374	3.95	Win2	0.6545000000000001	0.0	Yes	2.727	0.001	n/a	GoodResponse	1	n/a	n/a	9	54	Fixation	Win	True
517.319	0.27	Win2	0.6545000000000001	0.004	Yes	2.727	-0.004	2.0	GoodResponse	1	0.231	516.55	9	54	Target	Win	True
517.55	0.3	Win2	0.6545000000000001	0.004	Yes	2.727	-0.004	2.0	GoodResponse	1	0.231	n/a	9	54	ButtonPress	Win	True
517.603	0.43	Win2	0.6545000000000001	n/a	Yes	2.727	n/a	n/a	GoodResponse	1	n/a	n/a	9	54	Blank	Win	True
518.021	1.45	Win2	0.6545000000000001	n/a	Yes	2.727	n/a	5.0	GoodResponse	1	0.002	517.023	9	54	Feedback	Win	True
519.476	2.727	Win2	0.6545000000000001	n/a	Yes	2.727	n/a	n/a	GoodResponse	1	0.0	n/a	9	54	ISIslide	Win	True
522.217	0.25	Control	0.6607	0.0	Yes	3.033	0.017	n/a	GoodResponse	0	n/a	n/a	9	55	Cue	Neutral	True
522.468	3.95	Control	0.6607	0.0	Yes	3.033	0.001	n/a	GoodResponse	0	n/a	n/a	9	55	Fixation	Neutral	True
526.413	0.28	Control	0.6607	0.004	Yes	3.033	-0.004	2.0	GoodResponse	0	0.264	525.677	9	55	Target	Neutral	True
526.677	0.3	Control	0.6607	0.004	Yes	3.033	-0.004	2.0	GoodResponse	0	0.264	n/a	9	55	ButtonPress	Neutral	True
526.697	0.42	Control	0.6607	n/a	Yes	3.033	n/a	n/a	GoodResponse	0	n/a	n/a	9	55	Blank	Neutral	True
527.115	1.45	Control	0.6607	n/a	Yes	3.033	n/a	5.0	GoodResponse	0	0.03	526.145	9	55	Feedback	Neutral	True
528.57	3.033	Control	0.6607	n/a	Yes	3.033	n/a	n/a	GoodResponse	0	0.0	n/a	9	55	ISIslide	Neutral	True
531.629	0.25	Control	0.6491	0.0	No	2.821	0.029	n/a	LatePress	0	n/a	n/a	9	56	Cue	Neutral	True
531.879	3.95	Control	0.6491	0.001	No	2.821	0.0	n/a	LatePress	0	n/a	n/a	9	56	Fixation	Neutral	True
535.825	0.28	Control	0.6491	0.004	No	2.821	-0.004	2.0	LatePress	0	0.28	535.105	9	56	Target	Neutral	True
536.105	0.3	Control	0.6491	0.004	No	2.821	-0.004	2.0	LatePress	0	0.28	n/a	9	56	ButtonPress	Neutral	True
536.109	0.42	Control	0.6491	n/a	No	2.821	n/a	n/a	LatePress	0	n/a	n/a	9	56	Blank	Neutral	True
536.527	1.45	Control	0.6491	n/a	No	2.821	n/a	5.0	LatePress	0	0.033	535.56	9	56	Feedback	Neutral	True
537.981	2.821	Control	0.6491	n/a	No	2.821	n/a	n/a	LatePress	0	0.0	n/a	9	56	ISIslide	Neutral	True
540.823	0.25	Control	0.6552	0.0	Yes	3.477	0.023	n/a	GoodResponse	0	n/a	n/a	9	57	Cue	Neutral	True
541.074	4.0	Control	0.6552	0.0	Yes	3.477	0.001	n/a	GoodResponse	0	n/a	n/a	9	57	Fixation	Neutral	True
545.069	0.29	Control	0.6552	0.004	Yes	3.477	-0.004	2.0	GoodResponse	0	0.245	544.314	9	57	Target	Neutral	True
545.314	0.3	Control	0.6552	0.004	Yes	3.477	-0.004	2.0	GoodResponse	0	0.245	n/a	9	57	ButtonPress	Neutral	True
545.37	0.41	Control	0.6552	n/a	Yes	3.477	n/a	n/a	GoodResponse	0	n/a	n/a	9	57	Blank	Neutral	True
545.771	1.45	Control	0.6552	n/a	Yes	3.477	n/a	5.0	GoodResponse	0	0.009	544.78	9	57	Feedback	Neutral	True
547.225	3.477	Control	0.6552	n/a	Yes	3.477	n/a	n/a	GoodResponse	0	0.0	n/a	9	57	ISIslide	Neutral	True
550.719	0.25	Win2	0.6609999999999999	0.0	Yes	2.731	0.019	n/a	GoodResponse	1	n/a	n/a	10	58	Cue	Win	True
550.97	4.05	Win2	0.6609999999999999	0.0	Yes	2.731	0.001	n/a	GoodResponse	1	n/a	n/a	10	58	Fixation	Win	True
555.015	0.29	Win2	0.6609999999999999	0.004	Yes	2.731	-0.004	2.0	GoodResponse	1	0.242	554.257	10	58	Target	Win	True
555.257	0.3	Win2	0.6609999999999999	0.004	Yes	2.731	-0.004	2.0	GoodResponse	1	0.242	n/a	10	58	ButtonPress	Win	True
555.316	0.41	Win2	0.6609999999999999	n/a	Yes	2.731	n/a	n/a	GoodResponse	1	n/a	n/a	10	58	Blank	Win	True
555.717	1.45	Win2	0.6609999999999999	n/a	Yes	2.731	n/a	5.0	GoodResponse	1	0.013	554.73	10	58	Feedback	Win	True
557.172	2.731	Win2	0.6609999999999999	n/a	Yes	2.731	n/a	n/a	GoodResponse	1	0.0	n/a	10	58	ISIslide	Win	True
559.93	0.25	Lose2	0.6667000000000001	0.0	Yes	2.67	0.03	n/a	GoodResponse	0	n/a	n/a	10	59	Cue	AvoidedLoss	True
560.181	4.0	Lose2	0.6667000000000001	0.0	Yes	2.67	0.001	n/a	GoodResponse	0	n/a	n/a	10	59	Fixation	AvoidedLoss	True
564.176	0.29	Lose2	0.6667000000000001	0.004	Yes	2.67	-0.004	2.0	GoodResponse	0	0.253	563.429	10	59	Target	AvoidedLoss	True
564.429	0.3	Lose2	0.6667000000000001	0.004	Yes	2.67	-0.004	2.0	GoodResponse	0	0.253	n/a	10	59	ButtonPress	AvoidedLoss	True
564.477	0.41	Lose2	0.6667000000000001	n/a	Yes	2.67	n/a	n/a	GoodResponse	0	n/a	n/a	10	59	Blank	AvoidedLoss	True
564.878	1.45	Lose2	0.6667000000000001	n/a	Yes	2.67	n/a	5.0	GoodResponse	0	0.023	563.901	10	59	Feedback	AvoidedLoss	True
566.333	2.67	Lose2	0.6667000000000001	n/a	Yes	2.67	n/a	n/a	GoodResponse	0	0.0	n/a	10	59	ISIslide	AvoidedLoss	True
569.024	0.25	Control	0.6720999999999999	0.0	Yes	2.676	0.024	n/a	GoodResponse	0	n/a	n/a	10	60	Cue	Neutral	True
569.275	4.0	Control	0.6720999999999999	0.0	Yes	2.676	0.001	n/a	GoodResponse	0	n/a	n/a	10	60	Fixation	Neutral	True
573.27	0.28	Control	0.6720999999999999	0.004	Yes	2.676	-0.004	2.0	GoodResponse	0	0.253	572.523	10	60	Target	Neutral	True
573.523	0.3	Control	0.6720999999999999	0.004	Yes	2.676	-0.004	2.0	GoodResponse	0	0.253	n/a	10	60	ButtonPress	Neutral	True
573.554	0.42	Control	0.6720999999999999	n/a	Yes	2.676	n/a	n/a	GoodResponse	0	n/a	n/a	10	60	Blank	Neutral	True
573.972	1.45	Control	0.6720999999999999	n/a	Yes	2.676	n/a	5.0	GoodResponse	0	0.002	572.974	10	60	Feedback	Neutral	True
575.426	2.676	Control	0.6720999999999999	n/a	Yes	2.676	n/a	n/a	GoodResponse	0	0.0	n/a	10	60	ISIslide	Neutral	True
578.118	0.25	Lose2	0.6774	0.0	Yes	2.982	0.018	n/a	GoodResponse	0	n/a	n/a	10	61	Cue	AvoidedLoss	True
578.369	4.0	Lose2	0.6774	0.0	Yes	2.982	0.001	n/a	GoodResponse	0	n/a	n/a	10	61	Fixation	AvoidedLoss	True
582.364	0.27	Lose2	0.6774	0.004	Yes	2.982	-0.004	2.0	GoodResponse	0	0.262	581.626	10	61	Target	AvoidedLoss	True
582.626	0.3	Lose2	0.6774	0.004	Yes	2.982	-0.004	2.0	GoodResponse	0	0.262	n/a	10	61	ButtonPress	AvoidedLoss	True
582.648	0.43	Lose2	0.6774	n/a	Yes	2.982	n/a	n/a	GoodResponse	0	n/a	n/a	10	61	Blank	AvoidedLoss	True
583.066	1.45	Lose2	0.6774	n/a	Yes	2.982	n/a	5.0	GoodResponse	0	0.03	582.096	10	61	Feedback	AvoidedLoss	True
584.52	2.982	Lose2	0.6774	n/a	Yes	2.982	n/a	n/a	GoodResponse	0	0.0	n/a	10	61	ISIslide	AvoidedLoss	True
587.529	0.25	Lose2	0.6825	0.0	Yes	2.871	0.029	n/a	GoodResponse	0	n/a	n/a	10	62	Cue	AvoidedLoss	True
587.78	3.9	Lose2	0.6825	0.0	Yes	2.871	0.001	n/a	GoodResponse	0	n/a	n/a	10	62	Fixation	AvoidedLoss	True
591.675	0.26	Lose2	0.6825	0.004	Yes	2.871	-0.004	2.0	GoodResponse	0	0.226	590.901	10	62	Target	AvoidedLoss	True
591.901	0.3	Lose2	0.6825	0.004	Yes	2.871	-0.004	2.0	GoodResponse	0	0.226	n/a	10	62	ButtonPress	AvoidedLoss	True
591.943	0.44	Lose2	0.6825	n/a	Yes	2.871	n/a	n/a	GoodResponse	0	n/a	n/a	10	62	Blank	AvoidedLoss	True
592.377	1.45	Lose2	0.6825	n/a	Yes	2.871	n/a	5.0	GoodResponse	0	0.036	591.413	10	62	Feedback	AvoidedLoss	True
593.832	2.871	Lose2	0.6825	n/a	Yes	2.871	n/a	n/a	GoodResponse	0	0.0	n/a	10	62	ISIslide	AvoidedLoss	True
596.724	0.25	Lose2	0.6875	0.0	Yes	2.626	0.024	n/a	GoodResponse	0	n/a	n/a	10	63	Cue	AvoidedLoss	True
596.974	4.05	Lose2	0.6875	0.0	Yes	2.626	0.0	n/a	GoodResponse	0	n/a	n/a	10	63	Fixation	AvoidedLoss	True
601.02	0.25	Lose2	0.6875	0.004	Yes	2.626	-0.004	2.0	GoodResponse	0	0.223	600.243	10	63	Target	AvoidedLoss	True
601.243	0.3	Lose2	0.6875	0.004	Yes	2.626	-0.004	2.0	GoodResponse	0	0.223	n/a	10	63	ButtonPress	AvoidedLoss	True
601.271	0.45	Lose2	0.6875	n/a	Yes	2.626	n/a	n/a	GoodResponse	0	n/a	n/a	10	63	Blank	AvoidedLoss	True
601.722	1.45	Lose2	0.6875	n/a	Yes	2.626	n/a	5.0	GoodResponse	0	0.007	600.729	10	63	Feedback	AvoidedLoss	True
603.176	2.626	Lose2	0.6875	n/a	Yes	2.626	n/a	n/a	GoodResponse	0	0.0	n/a	10	63	ISIslide	AvoidedLoss	True
605.817	0.25	Win2	0.6923	0.001	Yes	3.133	0.017	n/a	GoodResponse	1	n/a	n/a	11	64	Cue	Win	True
606.068	4.15	Win2	0.6923	0.0	Yes	3.133	0.001	n/a	GoodResponse	1	n/a	n/a	11	64	Fixation	Win	True
610.214	0.24	Win2	0.6923	0.003	Yes	3.133	-0.003	2.0	GoodResponse	1	0.234	609.448	11	64	Target	Win	True
610.448	0.3	Win2	0.6923	0.003	Yes	3.133	-0.003	2.0	GoodResponse	1	0.234	n/a	11	64	ButtonPress	Win	True
610.465	0.46	Win2	0.6923	n/a	Yes	3.133	n/a	n/a	GoodResponse	1	n/a	n/a	11	64	Blank	Win	True
610.916	1.45	Win2	0.6923	n/a	Yes	3.133	n/a	5.0	GoodResponse	1	0.033	609.949	11	64	Feedback	Win	True
612.37	3.133	Win2	0.6923	n/a	Yes	3.133	n/a	n/a	GoodResponse	1	0.0	n/a	11	64	ISIslide	Win	True
615.513	0.25	Control	0.6818000000000001	0.0	No	2.787	0.013	n/a	NoResponse	0	n/a	n/a	11	65	Cue	Neutral	True
615.764	4.0	Control	0.6818000000000001	0.0	No	2.787	0.001	n/a	NoResponse	0	n/a	n/a	11	65	Fixation	Neutral	True
619.759	0.23	Control	0.6818000000000001	0.004	No	2.787	-0.004	2.0	NoResponse	0	0.278	619.037	11	65	Target	Neutral	True
619.993	0.47	Control	0.6818000000000001	n/a	No	2.787	n/a	n/a	NoResponse	0	n/a	n/a	11	65	Blank	Neutral	True
620.037	0.3	Control	0.6818000000000001	0.004	No	2.787	-0.004	2.0	NoResponse	0	0.278	n/a	11	65	ButtonPress	Neutral	True
620.461	1.45	Control	0.6818000000000001	n/a	No	2.787	n/a	5.0	NoResponse	0	0.049	619.51	11	65	Feedback	Neutral	True
621.916	2.787	Control	0.6818000000000001	n/a	No	2.787	n/a	n/a	NoResponse	0	0.0	n/a	11	65	ISIslide	Neutral	True
624.724	0.25	Win2	0.6716	0.0	No	2.776	0.024	n/a	NoResponse	0	n/a	n/a	11	66	Cue	MissedWin	True
624.975	3.9	Win2	0.6716	0.0	No	2.776	0.001	n/a	NoResponse	0	n/a	n/a	11	66	Fixation	MissedWin	True
628.87	0.22	Win2	0.6716	0.004	No	2.776	-0.004	2.0	NoResponse	0	0.411	628.281	11	66	Target	MissedWin	True
629.104	0.48	Win2	0.6716	n/a	No	2.776	n/a	n/a	NoResponse	0	n/a	n/a	11	66	Blank	MissedWin	True
629.281	0.3	Win2	0.6716	0.004	No	2.776	-0.004	2.0	NoResponse	0	0.411	n/a	11	66	ButtonPress	MissedWin	True
629.572	1.45	Win2	0.6716	n/a	No	2.776	n/a	5.0	NoResponse	0	0.012	628.584	11	66	Feedback	MissedWin	True
631.026	2.776	Win2	0.6716	n/a	No	2.776	n/a	n/a	NoResponse	0	0.0	n/a	11	66	ISIslide	MissedWin	True
633.818	0.25	Control	0.6618	0.0	No	2.732	0.018	n/a	NoResponse	0	n/a	n/a	11	67	Cue	Neutral	True
634.069	3.95	Control	0.6618	0.0	No	2.732	0.001	n/a	NoResponse	0	n/a	n/a	11	67	Fixation	Neutral	True
638.014	0.21	Control	0.6618	0.004	No	2.732	-0.004	2.0	NoResponse	0	0.239	637.253	11	67	Target	Neutral	True
638.231	0.49	Control	0.6618	n/a	No	2.732	n/a	n/a	NoResponse	0	n/a	n/a	11	67	Blank	Neutral	True
638.253	0.3	Control	0.6618	0.004	No	2.732	-0.004	2.0	NoResponse	0	0.239	n/a	11	67	ButtonPress	Neutral	True
638.716	1.45	Control	0.6618	n/a	No	2.732	n/a	5.0	NoResponse	0	0.038	637.754	11	67	Feedback	Neutral	True
640.17	2.732	Control	0.6618	n/a	No	2.732	n/a	n/a	NoResponse	0	0.0	n/a	11	67	ISIslide	Neutral	True
642.929	0.25	Win2	0.6522	0.0	No	3.071	0.029	n/a	NoResponse	0	n/a	n/a	11	68	Cue	MissedWin	True
643.179	4.0	Win2	0.6522	0.0	No	3.071	0.0	n/a	NoResponse	0	n/a	n/a	11	68	Fixation	MissedWin	True
647.175	0.21	Win2	0.6522	0.004	No	3.071	-0.004	2.0	NoResponse	0	0.23	646.405	11	68	Target	MissedWin	True
647.392	0.49	Win2	0.6522	n/a	No	3.071	n/a	n/a	NoResponse	0	n/a	n/a	11	68	Blank	MissedWin	True
647.405	0.3	Win2	0.6522	0.004	No	3.071	-0.004	2.0	NoResponse	0	0.23	n/a	11	68	ButtonPress	MissedWin	True
647.877	1.45	Win2	0.6522	n/a	No	3.071	n/a	5.0	NoResponse	0	0.048	646.925	11	68	Feedback	MissedWin	True
649.331	3.071	Win2	0.6522	n/a	No	3.071	n/a	n/a	NoResponse	0	0.0	n/a	11	68	ISIslide	MissedWin	True
652.424	0.25	Win2	0.6429	0.0	No	3.226	0.024	n/a	NoResponse	0	n/a	n/a	11	69	Cue	MissedWin	True
652.674	3.95	Win2	0.6429	0.0	No	3.226	0.0	n/a	NoResponse	0	n/a	n/a	11	69	Fixation	MissedWin	True
656.62	0.22	Win2	0.6429	0.004	No	3.226	-0.004	2.0	NoResponse	0	0.407	656.027	11	69	Target	MissedWin	True
656.854	0.48	Win2	0.6429	n/a	No	3.226	n/a	n/a	NoResponse	0	n/a	n/a	11	69	Blank	MissedWin	True
657.027	0.3	Win2	0.6429	0.004	No	3.226	-0.004	2.0	NoResponse	0	0.407	n/a	11	69	ButtonPress	MissedWin	True
657.322	1.45	Win2	0.6429	n/a	No	3.226	n/a	5.0	NoResponse	0	0.017	656.339	11	69	Feedback	MissedWin	True
658.776	3.226	Win2	0.6429	n/a	No	3.226	n/a	n/a	NoResponse	0	0.0	n/a	11	69	ISIslide	MissedWin	True
662.019	0.25	Lose2	0.6479	0.0	Yes	3.031	0.019	n/a	GoodResponse	0	n/a	n/a	11	70	Cue	AvoidedLoss	True
662.27	4.05	Lose2	0.6479	0.0	Yes	3.031	0.001	n/a	GoodResponse	0	n/a	n/a	11	70	Fixation	AvoidedLoss	True
666.315	0.23	Lose2	0.6479	0.004	Yes	3.031	-0.004	2.0	GoodResponse	0	0.221	665.536	11	70	Target	AvoidedLoss	True
666.536	0.3	Lose2	0.6479	0.004	Yes	3.031	-0.004	2.0	GoodResponse	0	0.221	n/a	11	70	ButtonPress	AvoidedLoss	True
666.549	0.47	Lose2	0.6479	n/a	Yes	3.031	n/a	n/a	GoodResponse	0	n/a	n/a	11	70	Blank	AvoidedLoss	True
667.017	1.45	Lose2	0.6479	n/a	Yes	3.031	n/a	5.0	GoodResponse	0	0.029	666.046	11	70	Feedback	AvoidedLoss	True
668.472	3.031	Lose2	0.6479	n/a	Yes	3.031	n/a	n/a	GoodResponse	0	0.0	n/a	11	70	ISIslide	AvoidedLoss	True
671.514	0.25	Win2	0.6389	0.0	No	2.736	0.014	n/a	LatePress	0	n/a	n/a	11	71	Cue	MissedWin	True
671.765	4.05	Win2	0.6389	0.0	No	2.736	0.001	n/a	LatePress	0	n/a	n/a	11	71	Fixation	MissedWin	True
675.81	0.24	Win2	0.6389	0.004	No	2.736	-0.004	2.0	LatePress	0	0.251	675.061	11	71	Target	MissedWin	True
676.061	0.46	Win2	0.6389	n/a	No	2.736	n/a	n/a	LatePress	0	n/a	n/a	11	71	Blank	MissedWin	True
676.061	0.3	Win2	0.6389	0.004	No	2.736	-0.004	2.0	LatePress	0	0.251	n/a	11	71	ButtonPress	MissedWin	True
676.512	1.45	Win2	0.6389	n/a	No	2.736	n/a	5.0	LatePress	0	0.047	675.559	11	71	Feedback	MissedWin	True
677.967	2.736	Win2	0.6389	n/a	No	2.736	n/a	n/a	LatePress	0	0.0	n/a	11	71	ISIslide	MissedWin	True
680.725	0.25	Win2	0.6301	0.0	No	2.775	0.025	n/a	NoResponse	0	n/a	n/a	11	72	Cue	MissedWin	True
680.976	4.1	Win2	0.6301	0.0	No	2.775	0.001	n/a	NoResponse	0	n/a	n/a	11	72	Fixation	MissedWin	True
685.071	0.25	Win2	0.6301	0.004	No	2.775	-0.004	2.0	NoResponse	0	0.26	684.331	11	72	Target	MissedWin	True
685.322	0.45	Win2	0.6301	n/a	No	2.775	n/a	n/a	NoResponse	0	n/a	n/a	11	72	Blank	MissedWin	True
685.331	0.3	Win2	0.6301	0.004	No	2.775	-0.004	2.0	NoResponse	0	0.26	n/a	11	72	ButtonPress	MissedWin	True
685.773	1.45	Win2	0.6301	n/a	No	2.775	n/a	5.0	NoResponse	0	0.005	684.778	11	72	Feedback	MissedWin	True
687.228	2.775	Win2	0.6301	n/a	No	2.775	n/a	n/a	NoResponse	0	0.0	n/a	11	72	ISIslide	MissedWin	True
690.02	0.25	Win2	0.6351	0.0	Yes	2.68	0.02	n/a	GoodResponse	1	n/a	n/a	12	73	Cue	Win	True
690.27	4.0	Win2	0.6351	0.0	Yes	2.68	0.0	n/a	GoodResponse	1	n/a	n/a	12	73	Fixation	Win	True
694.266	0.26	Win2	0.6351	0.004	Yes	2.68	-0.004	2.0	GoodResponse	1	0.231	693.497	12	73	Target	Win	True
694.497	0.3	Win2	0.6351	0.004	Yes	2.68	-0.004	2.0	GoodResponse	1	0.231	n/a	12	73	ButtonPress	Win	True
694.533	0.44	Win2	0.6351	n/a	Yes	2.68	n/a	n/a	GoodResponse	1	n/a	n/a	12	73	Blank	Win	True
694.968	1.45	Win2	0.6351	n/a	Yes	2.68	n/a	5.0	GoodResponse	1	0.03	693.998	12	73	Feedback	Win	True
696.422	2.68	Win2	0.6351	n/a	Yes	2.68	n/a	n/a	GoodResponse	1	0.0	n/a	12	73	ISIslide	Win	True
699.13	0.25	Lose2	0.6267	0.0	No	2.62	0.03	n/a	NoResponse	-1	n/a	n/a	11	74	Cue	Loss	False
699.381	4.05	Lose2	0.6267	0.0	No	2.62	0.001	n/a	NoResponse	-1	n/a	n/a	11	74	Fixation	Loss	False
703.426	0.27	Lose2	0.6267	0.004	No	2.62	-0.004	n/a	NoResponse	-1	n/a	n/a	11	74	Target	Loss	False
703.71	0.43	Lose2	0.6267	n/a	No	2.62	n/a	n/a	NoResponse	-1	n/a	n/a	11	74	Blank	Loss	False
704.128	1.45	Lose2	0.6267	n/a	No	2.62	n/a	5.0	NoResponse	-1	0.04	703.168	11	74	Feedback	Loss	False
705.583	2.62	Lose2	0.6267	n/a	No	2.62	n/a	n/a	NoResponse	-1	0.0	n/a	11	74	ISIslide	Loss	False
708.224	0.25	Lose2	0.6315999999999999	0.0	Yes	2.926	0.024	n/a	GoodResponse	0	n/a	n/a	11	75	Cue	AvoidedLoss	True
708.475	3.95	Lose2	0.6315999999999999	0.0	Yes	2.926	0.001	n/a	GoodResponse	0	n/a	n/a	11	75	Fixation	AvoidedLoss	True
712.42	0.28	Lose2	0.6315999999999999	0.004	Yes	2.926	-0.004	2.0	GoodResponse	0	0.215	711.635	11	75	Target	AvoidedLoss	True
712.635	0.3	Lose2	0.6315999999999999	0.004	Yes	2.926	-0.004	2.0	GoodResponse	0	0.215	n/a	11	75	ButtonPress	AvoidedLoss	True
712.704	0.42	Lose2	0.6315999999999999	n/a	Yes	2.926	n/a	n/a	GoodResponse	0	n/a	n/a	11	75	Blank	AvoidedLoss	True
713.122	1.45	Lose2	0.6315999999999999	n/a	Yes	2.926	n/a	5.0	GoodResponse	0	0.022	712.144	11	75	Feedback	AvoidedLoss	True
714.576	2.926	Lose2	0.6315999999999999	n/a	Yes	2.926	n/a	n/a	GoodResponse	0	0.0	n/a	11	75	ISIslide	AvoidedLoss	True
717.518	0.25	Control	0.6364	0.001	Yes	3.232	0.018	n/a	GoodResponse	0	n/a	n/a	11	76	Cue	Neutral	True
717.769	4.05	Control	0.6364	0.0	Yes	3.232	0.001	n/a	GoodResponse	0	n/a	n/a	11	76	Fixation	Neutral	True
721.815	0.29	Control	0.6364	0.003	Yes	3.232	-0.003	2.0	GoodResponse	0	0.236	721.051	11	76	Target	Neutral	True
722.051	0.3	Control	0.6364	0.003	Yes	3.232	-0.003	2.0	GoodResponse	0	0.236	n/a	11	76	ButtonPress	Neutral	True
722.116	0.41	Control	0.6364	n/a	Yes	3.232	n/a	n/a	GoodResponse	0	n/a	n/a	11	76	Blank	Neutral	True
722.517	1.45	Control	0.6364	n/a	Yes	3.232	n/a	5.0	GoodResponse	0	0.041	721.558	11	76	Feedback	Neutral	True
723.971	3.232	Control	0.6364	n/a	Yes	3.232	n/a	n/a	GoodResponse	0	0.0	n/a	11	76	ISIslide	Neutral	True
727.214	0.25	Lose2	0.6409999999999999	0.0	Yes	2.586	0.014	n/a	GoodResponse	0	n/a	n/a	11	77	Cue	AvoidedLoss	True
727.465	3.95	Lose2	0.6409999999999999	0.0	Yes	2.586	0.001	n/a	GoodResponse	0	n/a	n/a	11	77	Fixation	AvoidedLoss	True
731.41	0.3	Lose2	0.6409999999999999	0.004	Yes	2.586	-0.004	2.0	GoodResponse	0	0.222	730.632	11	77	Target	AvoidedLoss	True
731.632	0.3	Lose2	0.6409999999999999	0.004	Yes	2.586	-0.004	2.0	GoodResponse	0	0.222	n/a	11	77	ButtonPress	AvoidedLoss	True
731.711	0.4	Lose2	0.6409999999999999	n/a	Yes	2.586	n/a	n/a	GoodResponse	0	n/a	n/a	11	77	Blank	AvoidedLoss	True
732.112	1.45	Lose2	0.6409999999999999	n/a	Yes	2.586	n/a	5.0	GoodResponse	0	0.007	731.119	11	77	Feedback	AvoidedLoss	True
733.567	2.586	Lose2	0.6409999999999999	n/a	Yes	2.586	n/a	n/a	GoodResponse	0	0.0	n/a	11	77	ISIslide	AvoidedLoss	True
