onset	duration	cue_type	current_mean_accuracy	duration_error	is_hit	isi_adjusted	onset_delay	response	response_type	reward	rt	rt_time	total_reward	trial_number	trial_phase	trial_type	one_press
11.103	0.25	Control	1.0	0.0	Yes	2.947	0.003	n/a	GoodResponse	0	n/a	n/a	0	0	Cue	Neutral	True
11.353	3.85	Control	1.0	0.0	Yes	2.947	0.0	n/a	GoodResponse	0	n/a	n/a	0	0	Fixation	Neutral	True
15.201	0.4	Control	1.0	0.002	Yes	2.947	-0.002	2.0	GoodResponse	0	0.235	14.436	0	0	Target	Neutral	True
15.436	0.3	Control	1.0	0.002	Yes	2.947	-0.002	2.0	GoodResponse	0	0.235	n/a	0	0	ButtonPress	Neutral	True
15.601	0.3	Control	1.0	n/a	Yes	2.947	n/a	n/a	GoodResponse	0	n/a	n/a	0	0	Blank	Neutral	True
15.901	1.45	Control	1.0	n/a	Yes	2.947	n/a	5.0	GoodResponse	0	0.025	14.926	0	0	Feedback	Neutral	True
17.351	2.947	Control	1.0	n/a	Yes	2.947	n/a	n/a	GoodResponse	0	0.0	n/a	0	0	ISIslide	Neutral	True
20.316	0.25	Lose2	1.0	0.0	Yes	2.784	0.016	n/a	GoodResponse	0	n/a	n/a	0	1	Cue	AvoidedLoss	True
20.566	4.0	Lose2	1.0	0.0	Yes	2.784	0.0	n/a	GoodResponse	0	n/a	n/a	0	1	Fixation	AvoidedLoss	True
24.565	0.39	Lose2	1.0	0.001	Yes	2.784	-0.001	2.0	GoodResponse	0	0.212	23.777	0	1	Target	AvoidedLoss	True
24.777	0.3	Lose2	1.0	0.001	Yes	2.784	-0.001	2.0	GoodResponse	0	0.212	n/a	0	1	ButtonPress	AvoidedLoss	True
24.965	0.31	Lose2	1.0	n/a	Yes	2.784	n/a	n/a	GoodResponse	0	n/a	n/a	0	1	Blank	AvoidedLoss	True
25.265	1.45	Lose2	1.0	n/a	Yes	2.784	n/a	5.0	GoodResponse	0	0.027	24.292	0	1	Feedback	AvoidedLoss	True
26.714	2.784	Lose2	1.0	n/a	Yes	2.784	n/a	n/a	GoodResponse	0	0.0	n/a	0	1	ISIslide	AvoidedLoss	True
29.513	0.25	Control	1.0	0.0	Yes	2.587	0.013	n/a	GoodResponse	0	n/a	n/a	0	2	Cue	Neutral	True
29.763	4.1	Control	1.0	0.0	Yes	2.587	0.0	n/a	GoodResponse	0	n/a	n/a	0	2	Fixation	Neutral	True
33.862	0.38	Control	1.0	0.001	Yes	2.587	-0.001	2.0	GoodResponse	0	0.197	33.059	0	2	Target	Neutral	True
34.059	0.3	Control	1.0	0.001	Yes	2.587	-0.001	2.0	GoodResponse	0	0.197	n/a	0	2	ButtonPress	Neutral	True
34.245	0.32	Control	1.0	n/a	Yes	2.587	n/a	n/a	GoodResponse	0	n/a	n/a	0	2	Blank	Neutral	True
34.561	1.45	Control	1.0	n/a	Yes	2.587	n/a	5.0	GoodResponse	0	0.048	33.609	0	2	Feedback	Neutral	True
36.011	2.587	Control	1.0	n/a	Yes	2.587	n/a	n/a	GoodResponse	0	0.0	n/a	0	2	ISIslide	Neutral	True
38.627	0.25	Win2	1.0	0.0	Yes	2.823	0.027	n/a	GoodResponse	1	n/a	n/a	1	3	Cue	Win	True
38.877	3.95	Win2	1.0	0.0	Yes	2.823	0.0	n/a	GoodResponse	1	n/a	n/a	1	3	Fixation	Win	True
42.825	0.37	Win2	1.0	0.002	Yes	2.823	-0.002	2.0	GoodResponse	1	0.202	42.027	1	3	Target	Win	True
43.027	0.3	Win2	1.0	0.002	Yes	2.823	-0.002	2.0	GoodResponse	1	0.202	n/a	1	3	ButtonPress	Win	True
43.208	0.33	Win2	1.0	n/a	Yes	2.823	n/a	n/a	GoodResponse	1	n/a	n/a	1	3	Blank	Win	True
43.525	1.45	Win2	1.0	n/a	Yes	2.823	n/a	5.0	GoodResponse	1	0.01	42.535	1	3	Feedback	Win	True
44.975	2.823	Win2	1.0	n/a	Yes	2.823	n/a	n/a	GoodResponse	1	0.0	n/a	1	3	ISIslide	Win	True
47.824	0.25	Win2	1.0	0.0	Yes	3.276	0.024	n/a	GoodResponse	1	n/a	n/a	2	4	Cue	Win	True
48.073	4.0	Win2	1.0	0.001	Yes	3.276	-0.001	n/a	GoodResponse	1	n/a	n/a	2	4	Fixation	Win	True
52.072	0.36	Win2	1.0	0.002	Yes	3.276	-0.002	2.0	GoodResponse	1	0.278	51.35	2	4	Target	Win	True
52.35	0.3	Win2	1.0	0.002	Yes	3.276	-0.002	2.0	GoodResponse	1	0.278	n/a	2	4	ButtonPress	Win	True
52.439	0.34	Win2	1.0	n/a	Yes	3.276	n/a	n/a	GoodResponse	1	n/a	n/a	2	4	Blank	Win	True
52.772	1.45	Win2	1.0	n/a	Yes	3.276	n/a	5.0	GoodResponse	1	0.032	51.804	2	4	Feedback	Win	True
54.221	3.276	Win2	1.0	n/a	Yes	3.276	n/a	n/a	GoodResponse	1	0.0	n/a	2	4	ISIslide	Win	True
57.52	0.25	Win2	1.0	0.0	Yes	2.78	0.02	n/a	GoodResponse	1	n/a	n/a	3	5	Cue	Win	True
57.77	4.0	Win2	1.0	0.0	Yes	2.78	0.0	n/a	GoodResponse	1	n/a	n/a	3	5	Fixation	Win	True
61.769	0.35	Win2	1.0	0.001	Yes	2.78	-0.001	2.0	GoodResponse	1	0.241	61.01	3	5	Target	Win	True
62.01	0.3	Win2	1.0	0.001	Yes	2.78	-0.001	2.0	GoodResponse	1	0.241	n/a	3	5	ButtonPress	Win	True
62.119	0.35	Win2	1.0	n/a	Yes	2.78	n/a	n/a	GoodResponse	1	n/a	n/a	3	5	Blank	Win	True
62.469	1.45	Win2	1.0	n/a	Yes	2.78	n/a	5.0	GoodResponse	1	0.042	61.511	3	5	Feedback	Win	True
63.918	2.78	Win2	1.0	n/a	Yes	2.78	n/a	n/a	GoodResponse	1	0.0	n/a	3	5	ISIslide	Win	True
66.717	0.25	Lose2	1.0	0.0	Yes	2.733	0.017	n/a	GoodResponse	0	n/a	n/a	3	6	Cue	AvoidedLoss	True
66.967	3.95	Lose2	1.0	0.0	Yes	2.733	0.0	n/a	GoodResponse	0	n/a	n/a	3	6	Fixation	AvoidedLoss	True
70.916	0.34	Lose2	1.0	0.001	Yes	2.733	-0.001	2.0	GoodResponse	0	0.28	70.196	3	6	Target	AvoidedLoss	True
71.196	0.3	Lose2	1.0	0.001	Yes	2.733	-0.001	2.0	GoodResponse	0	0.28	n/a	3	6	ButtonPress	AvoidedLoss	True
71.266	0.36	Lose2	1.0	n/a	Yes	2.733	n/a	n/a	GoodResponse	0	n/a	n/a	3	6	Blank	AvoidedLoss	True
71.615	1.45	Lose2	1.0	n/a	Yes	2.733	n/a	5.0	GoodResponse	0	0.018	70.633	3	6	Feedback	AvoidedLoss	True
73.065	2.733	Lose2	1.0	n/a	Yes	2.733	n/a	n/a	GoodResponse	0	0.0	n/a	3	6	ISIslide	AvoidedLoss	True
75.814	0.25	Lose2	1.0	0.0	Yes	4.036	0.014	n/a	GoodResponse	0	n/a	n/a	3	7	Cue	AvoidedLoss	True
76.064	4.05	Lose2	1.0	0.0	Yes	4.036	0.0	n/a	GoodResponse	0	n/a	n/a	3	7	Fixation	AvoidedLoss	True
80.113	0.33	Lose2	1.0	0.001	Yes	4.036	-0.001	2.0	GoodResponse	0	0.215	79.328	3	7	Target	AvoidedLoss	True
80.328	0.3	Lose2	1.0	0.001	Yes	4.036	-0.001	2.0	GoodResponse	0	0.215	n/a	3	7	ButtonPress	AvoidedLoss	True
80.446	0.37	Lose2	1.0	n/a	Yes	4.036	n/a	n/a	GoodResponse	0	n/a	n/a	3	7	Blank	AvoidedLoss	True
80.812	1.45	Lose2	1.0	n/a	Yes	4.036	n/a	5.0	GoodResponse	0	0.041	79.853	3	7	Feedback	AvoidedLoss	True
82.262	4.036	Lose2	1.0	n/a	Yes	4.036	n/a	n/a	GoodResponse	0	0.0	n/a	3	7	ISIslide	AvoidedLoss	True
86.327	0.25	Lose2	1.0	0.0	Yes	3.023	0.027	n/a	GoodResponse	0	n/a	n/a	3	8	Cue	AvoidedLoss	True
86.577	3.95	Lose2	1.0	0.0	Yes	3.023	0.0	n/a	GoodResponse	0	n/a	n/a	3	8	Fixation	AvoidedLoss	True
90.526	0.32	Lose2	1.0	0.001	Yes	3.023	-0.001	2.0	GoodResponse	0	0.26	89.786	3	8	Target	AvoidedLoss	True
90.786	0.3	Lose2	1.0	0.001	Yes	3.023	-0.001	2.0	GoodResponse	0	0.26	n/a	3	8	ButtonPress	AvoidedLoss	True
90.859	0.38	Lose2	1.0	n/a	Yes	3.023	n/a	n/a	GoodResponse	0	n/a	n/a	3	8	Blank	AvoidedLoss	True
91.225	1.45	Lose2	1.0	n/a	Yes	3.023	n/a	5.0	GoodResponse	0	0.018	90.243	3	8	Feedback	AvoidedLoss	True
92.675	3.023	Lose2	1.0	n/a	Yes	3.023	n/a	n/a	GoodResponse	0	0.0	n/a	3	8	ISIslide	AvoidedLoss	True
95.724	0.25	Lose2	1.0	0.0	Yes	3.126	0.024	n/a	GoodResponse	0	n/a	n/a	3	9	Cue	AvoidedLoss	True
95.974	3.95	Lose2	1.0	0.0	Yes	3.126	0.0	n/a	GoodResponse	0	n/a	n/a	3	9	Fixation	AvoidedLoss	True
99.922	0.31	Lose2	1.0	0.002	Yes	3.126	-0.002	2.0	GoodResponse	0	0.218	99.14	3	9	Target	AvoidedLoss	True
100.14	0.3	Lose2	1.0	0.002	Yes	3.126	-0.002	2.0	GoodResponse	0	0.218	n/a	3	9	ButtonPress	AvoidedLoss	True
100.239	0.39	Lose2	1.0	n/a	Yes	3.126	n/a	n/a	GoodResponse	0	n/a	n/a	3	9	Blank	AvoidedLoss	True
100.622	1.45	Lose2	1.0	n/a	Yes	3.126	n/a	5.0	GoodResponse	0	0.036	99.658	3	9	Feedback	AvoidedLoss	True
102.072	3.126	Lose2	1.0	n/a	Yes	3.126	n/a	n/a	GoodResponse	0	0.0	n/a	3	9	ISIslide	AvoidedLoss	True
105.221	0.25	Control	1.0	0.0	Yes	3.279	0.021	n/a	GoodResponse	0	n/a	n/a	3	10	Cue	Neutral	True
105.471	4.0	Control	1.0	0.0	Yes	3.279	0.0	n/a	GoodResponse	0	n/a	n/a	3	10	Fixation	Neutral	True
109.469	0.3	Control	1.0	0.002	Yes	3.279	-0.002	2.0	GoodResponse	0	0.243	108.712	3	10	Target	Neutral	True
109.712	0.3	Control	1.0	0.002	Yes	3.279	-0.002	2.0	GoodResponse	0	0.243	n/a	3	10	ButtonPress	Neutral	True
109.769	0.4	Control	1.0	n/a	Yes	3.279	n/a	n/a	GoodResponse	0	n/a	n/a	3	10	Blank	Neutral	True
110.169	1.45	Control	1.0	n/a	Yes	3.279	n/a	5.0	GoodResponse	0	0.001	109.17	3	10	Feedback	Neutral	True
111.618	3.279	Control	1.0	n/a	Yes	3.279	n/a	n/a	GoodResponse	0	0.0	n/a	3	10	ISIslide	Neutral	True
114.917	0.25	Lose2	1.0	0.0	Yes	2.733	0.017	n/a	GoodResponse	0	n/a	n/a	3	11	Cue	AvoidedLoss	True
115.167	4.05	Lose2	1.0	0.0	Yes	2.733	0.0	n/a	GoodResponse	0	n/a	n/a	3	11	Fixation	AvoidedLoss	True
119.216	0.29	Lose2	1.0	0.001	Yes	2.733	-0.001	2.0	GoodResponse	0	0.214	118.43	3	11	Target	AvoidedLoss	True
119.43	0.3	Lose2	1.0	0.001	Yes	2.733	-0.001	2.0	GoodResponse	0	0.214	n/a	3	11	ButtonPress	AvoidedLoss	True
119.516	0.41	Lose2	1.0	n/a	Yes	2.733	n/a	n/a	GoodResponse	0	n/a	n/a	3	11	Blank	AvoidedLoss	True
119.916	1.45	Lose2	1.0	n/a	Yes	2.733	n/a	5.0	GoodResponse	0	0.01	118.926	3	11	Feedback	AvoidedLoss	True
121.365	2.733	Lose2	1.0	n/a	Yes	2.733	n/a	n/a	GoodResponse	0	0.0	n/a	3	11	ISIslide	AvoidedLoss	True
124.114	0.25	Control	1.0	0.0	Yes	2.986	0.014	n/a	GoodResponse	0	n/a	n/a	3	12	Cue	Neutral	True
124.364	3.9	Control	1.0	0.0	Yes	2.986	0.0	n/a	GoodResponse	0	n/a	n/a	3	12	Fixation	Neutral	True
128.263	0.28	Control	1.0	0.001	Yes	2.986	-0.001	2.0	GoodResponse	0	0.236	127.499	3	12	Target	Neutral	True
128.499	0.3	Control	1.0	0.001	Yes	2.986	-0.001	2.0	GoodResponse	0	0.236	n/a	3	12	ButtonPress	Neutral	True
128.546	0.42	Control	1.0	n/a	Yes	2.986	n/a	n/a	GoodResponse	0	n/a	n/a	3	12	Blank	Neutral	True
128.962	1.45	Control	1.0	n/a	Yes	2.986	n/a	5.0	GoodResponse	0	0.037	127.999	3	12	Feedback	Neutral	True
130.412	2.986	Control	1.0	n/a	Yes	2.986	n/a	n/a	GoodResponse	0	0.0	n/a	3	12	ISIslide	Neutral	True
133.428	0.25	Control	1.0	0.0	Yes	2.772	0.028	n/a	GoodResponse	0	n/a	n/a	3	13	Cue	Neutral	True
133.678	4.0	Control	1.0	0.0	Yes	2.772	0.0	n/a	GoodResponse	0	n/a	n/a	3	13	Fixation	Neutral	True
137.676	0.27	Control	1.0	0.002	Yes	2.772	-0.002	2.0	GoodResponse	0	0.227	136.903	3	13	Target	Neutral	True
137.903	0.3	Control	1.0	0.002	Yes	2.772	-0.002	2.0	GoodResponse	0	0.227	n/a	3	13	ButtonPress	Neutral	True
137.959	0.43	Control	1.0	n/a	Yes	2.772	n/a	n/a	GoodResponse	0	n/a	n/a	3	13	Blank	Neutral	True
138.376	1.45	Control	1.0	n/a	Yes	2.772	n/a	5.0	GoodResponse	0	0.038	137.414	3	13	Feedback	Neutral	True
139.825	2.772	Control	1.0	n/a	Yes	2.772	n/a	n/a	GoodResponse	0	0.0	n/a	3	13	ISIslide	Neutral	True
142.624	0.25	Win2	1.0	0.001	Yes	2.676	0.024	n/a	GoodResponse	1	n/a	n/a	4	14	Cue	Win	True
142.874	4.1	Win2	1.0	0.0	Yes	2.676	0.0	n/a	GoodResponse	1	n/a	n/a	4	14	Fixation	Win	True
146.973	0.26	Win2	1.0	0.001	Yes	2.676	-0.001	2.0	GoodResponse	1	0.201	146.174	4	14	Target	Win	True
147.174	0.3	Win2	1.0	0.001	Yes	2.676	-0.001	2.0	GoodResponse	1	0.201	n/a	4	14	ButtonPress	Win	True
147.24	0.44	Win2	1.0	n/a	Yes	2.676	n/a	n/a	GoodResponse	1	n/a	n/a	4	14	Blank	Win	True
147.673	1.45	Win2	1.0	n/a	Yes	2.676	n/a	5.0	GoodResponse	1	0.009	146.682	4	14	Feedback	Win	True
149.122	2.676	Win2	1.0	n/a	Yes	2.676	n/a	n/a	GoodResponse	1	0.0	n/a	4	14	ISIslide	Win	True
151.821	0.25	Control	1.0	0.0	Yes	2.979	0.021	n/a	GoodResponse	0	n/a	n/a	4	15	Cue	Neutral	True
152.071	4.0	Control	1.0	0.0	Yes	2.979	0.0	n/a	GoodResponse	0	n/a	n/a	4	15	Fixation	Neutral	True
156.07	0.25	Control	1.0	0.001	Yes	2.979	-0.001	2.0	GoodResponse	0	0.217	155.287	4	15	Target	Neutral	True
156.287	0.3	Control	1.0	0.001	Yes	2.979	-0.001	2.0	GoodResponse	0	0.217	n/a	4	15	ButtonPress	Neutral	True
156.32	0.45	Control	1.0	n/a	Yes	2.979	n/a	n/a	GoodResponse	0	n/a	n/a	4	15	Blank	Neutral	True
156.77	1.45	Control	1.0	n/a	Yes	2.979	n/a	5.0	GoodResponse	0	0.034	155.804	4	15	Feedback	Neutral	True
158.219	2.979	Control	1.0	n/a	Yes	2.979	n/a	n/a	GoodResponse	0	0.0	n/a	4	15	ISIslide	Neutral	True
161.218	0.25	Win2	1.0	0.0	Yes	2.882	0.018	n/a	GoodResponse	1	n/a	n/a	5	16	Cue	Win	True
161.468	4.0	Win2	1.0	0.0	Yes	2.882	0.0	n/a	GoodResponse	1	n/a	n/a	5	16	Fixation	Win	True
165.467	0.24	Win2	1.0	0.001	Yes	2.882	-0.001	2.0	GoodResponse	1	0.215	164.682	5	16	Target	Win	True
165.682	0.3	Win2	1.0	0.001	Yes	2.882	-0.001	2.0	GoodResponse	1	0.215	n/a	5	16	ButtonPress	Win	True
165.717	0.46	Win2	1.0	n/a	Yes	2.882	n/a	n/a	GoodResponse	1	n/a	n/a	5	16	Blank	Win	True
166.166	1.45	Win2	1.0	n/a	Yes	2.882	n/a	5.0	GoodResponse	1	0.008	165.174	5	16	Feedback	Win	True
167.616	2.882	Win2	1.0	n/a	Yes	2.882	n/a	n/a	GoodResponse	1	0.0	n/a	5	16	ISIslide	Win	True
170.515	0.25	Lose2	1.0	0.0	Yes	2.735	0.015	n/a	GoodResponse	0	n/a	n/a	5	17	Cue	AvoidedLoss	True
170.765	3.95	Lose2	1.0	0.0	Yes	2.735	0.0	n/a	GoodResponse	0	n/a	n/a	5	17	Fixation	AvoidedLoss	True
174.713	0.23	Lose2	1.0	0.002	Yes	2.735	-0.002	2.0	GoodResponse	0	0.221	173.934	5	17	Target	AvoidedLoss	True
174.934	0.3	Lose2	1.0	0.002	Yes	2.735	-0.002	2.0	GoodResponse	0	0.221	n/a	5	17	ButtonPress	AvoidedLoss	True
174.947	0.47	Lose2	1.0	n/a	Yes	2.735	n/a	n/a	GoodResponse	0	n/a	n/a	5	17	Blank	AvoidedLoss	True
175.413	1.45	Lose2	1.0	n/a	Yes	2.735	n/a	5.0	GoodResponse	0	0.025	174.438	5	17	Feedback	AvoidedLoss	True
176.863	2.735	Lose2	1.0	n/a	Yes	2.735	n/a	n/a	GoodResponse	0	0.0	n/a	5	17	ISIslide	AvoidedLoss	True
179.628	0.25	Lose2	1.0	0.001	Yes	2.722	0.028	n/a	GoodResponse	0	n/a	n/a	5	18	Cue	AvoidedLoss	True
179.878	4.05	Lose2	1.0	0.0	Yes	2.722	0.0	n/a	GoodResponse	0	n/a	n/a	5	18	Fixation	AvoidedLoss	True
183.927	0.22	Lose2	1.0	0.001	Yes	2.722	-0.001	2.0	GoodResponse	0	0.204	183.131	5	18	Target	AvoidedLoss	True
184.131	0.3	Lose2	1.0	0.001	Yes	2.722	-0.001	2.0	GoodResponse	0	0.204	n/a	5	18	ButtonPress	AvoidedLoss	True
184.144	0.48	Lose2	1.0	n/a	Yes	2.722	n/a	n/a	GoodResponse	0	n/a	n/a	5	18	Blank	AvoidedLoss	True
184.627	1.45	Lose2	1.0	n/a	Yes	2.722	n/a	5.0	GoodResponse	0	0.031	183.658	5	18	Feedback	AvoidedLoss	True
186.076	2.722	Lose2	1.0	n/a	Yes	2.722	n/a	n/a	GoodResponse	0	0.0	n/a	5	18	ISIslide	AvoidedLoss	True
188.825	0.25	Control	0.95	0.0	No	2.925	0.025	n/a	NoResponse	0	n/a	n/a	5	19	Cue	Neutral	True
189.075	3.95	Control	0.95	0.0	No	2.925	0.0	n/a	NoResponse	0	n/a	n/a	5	19	Fixation	Neutral	True
193.024	0.21	Control	0.95	0.001	No	2.925	-0.001	2.0	NoResponse	0	0.24	192.264	5	19	Target	Neutral	True
193.24	0.49	Control	0.95	n/a	No	2.925	n/a	n/a	NoResponse	0	n/a	n/a	5	19	Blank	Neutral	True
193.264	0.3	Control	0.95	0.001	No	2.925	-0.001	2.0	NoResponse	0	0.24	n/a	5	19	ButtonPress	Neutral	True
193.724	1.45	Control	0.95	n/a	No	2.925	n/a	5.0	NoResponse	0	0.007	192.731	5	19	Feedback	Neutral	True
195.173	2.925	Control	0.95	n/a	No	2.925	n/a	n/a	NoResponse	0	0.0	n/a	5	19	ISIslide	Neutral	True
198.122	0.25	Control	0.9048	0.0	No	2.628	0.022	n/a	NoResponse	0	n/a	n/a	5	20	Cue	Neutral	True
198.372	4.05	Control	0.9048	0.0	No	2.628	0.0	n/a	NoResponse	0	n/a	n/a	5	20	Fixation	Neutral	True
202.421	0.2	Control	0.9048	0.001	No	2.628	-0.001	2.0	NoResponse	0	0.217	201.638	5	20	Target	Neutral	True
202.621	0.5	Control	0.9048	n/a	No	2.628	n/a	n/a	NoResponse	0	n/a	n/a	5	20	Blank	Neutral	True
202.638	0.3	Control	0.9048	0.001	No	2.628	-0.001	2.0	NoResponse	0	0.217	n/a	5	20	ButtonPress	Neutral	True
203.12	1.45	Control	0.9048	n/a	No	2.628	n/a	5.0	NoResponse	0	0.025	202.145	5	20	Feedback	Neutral	True
204.57	2.628	Control	0.9048	n/a	No	2.628	n/a	n/a	NoResponse	0	0.0	n/a	5	20	ISIslide	Neutral	True
207.219	0.25	Control	0.8636	0.0	No	2.781	0.019	n/a	NoResponse	0	n/a	n/a	5	21	Cue	Neutral	True
207.469	4.1	Control	0.8636	0.0	No	2.781	0.0	n/a	NoResponse	0	n/a	n/a	5	21	Fixation	Neutral	True
211.568	0.19	Control	0.8636	0.001	No	2.781	-0.001	2.0	NoResponse	0	0.275	210.843	5	21	Target	Neutral	True
211.767	0.51	Control	0.8636	n/a	No	2.781	n/a	n/a	NoResponse	0	n/a	n/a	5	21	Blank	Neutral	True
211.843	0.3	Control	0.8636	0.001	No	2.781	-0.001	2.0	NoResponse	0	0.275	n/a	5	21	ButtonPress	Neutral	True
212.267	1.45	Control	0.8636	n/a	No	2.781	n/a	5.0	NoResponse	0	0.049	211.316	5	21	Feedback	Neutral	True
213.717	2.781	Control	0.8636	n/a	No	2.781	n/a	n/a	NoResponse	0	0.0	n/a	5	21	ISIslide	Neutral	True
216.516	0.25	Control	0.8261	0.0	No	2.784	0.016	n/a	NoResponse	0	n/a	n/a	5	22	Cue	Neutral	True
216.766	4.0	Control	0.8261	0.0	No	2.784	0.0	n/a	NoResponse	0	n/a	n/a	5	22	Fixation	Neutral	True
220.764	0.18	Control	0.8261	0.002	No	2.784	-0.002	2.0	NoResponse	0	0.251	220.015	5	22	Target	Neutral	True
220.948	0.52	Control	0.8261	n/a	No	2.784	n/a	n/a	NoResponse	0	n/a	n/a	5	22	Blank	Neutral	True
221.015	0.3	Control	0.8261	0.002	No	2.784	-0.002	2.0	NoResponse	0	0.251	n/a	5	22	ButtonPress	Neutral	True
221.464	1.45	Control	0.8261	n/a	No	2.784	n/a	5.0	NoResponse	0	0.023	220.487	5	22	Feedback	Neutral	True
222.914	2.784	Control	0.8261	n/a	No	2.784	n/a	n/a	NoResponse	0	0.0	n/a	5	22	ISIslide	Neutral	True
225.729	0.25	Control	0.7917000000000001	0.0	No	2.771	0.029	n/a	NoResponse	0	n/a	n/a	5	23	Cue	Neutral	True
225.979	3.9	Control	0.7917000000000001	0.0	No	2.771	0.0	n/a	NoResponse	0	n/a	n/a	5	23	Fixation	Neutral	True
229.878	0.17	Control	0.7917000000000001	0.001	No	2.771	-0.001	2.0	NoResponse	0	0.487	229.365	5	23	Target	Neutral	True
230.045	0.53	Control	0.7917000000000001	n/a	No	2.771	n/a	n/a	NoResponse	0	n/a	n/a	5	23	Blank	Neutral	True
230.365	0.3	Control	0.7917000000000001	0.001	No	2.771	-0.001	2.0	NoResponse	0	0.487	n/a	5	23	ButtonPress	Neutral	True
230.578	1.45	Control	0.7917000000000001	n/a	No	2.771	n/a	5.0	NoResponse	0	0.031	229.609	5	23	Feedback	Neutral	True
232.027	2.771	Control	0.7917000000000001	n/a	No	2.771	n/a	n/a	NoResponse	0	0.0	n/a	5	23	ISIslide	Neutral	True
234.826	0.25	Win2	0.76	0.0	No	3.124	0.026	n/a	NoResponse	0	n/a	n/a	5	24	Cue	MissedWin	True
235.076	3.95	Win2	0.76	0.0	No	3.124	0.0	n/a	NoResponse	0	n/a	n/a	5	24	Fixation	MissedWin	True
239.025	0.16	Win2	0.76	0.001	No	3.124	-0.001	2.0	NoResponse	0	0.188	238.213	5	24	Target	MissedWin	True
239.191	0.54	Win2	0.76	n/a	No	3.124	n/a	n/a	NoResponse	0	n/a	n/a	5	24	Blank	MissedWin	True
239.213	0.3	Win2	0.76	0.001	No	3.124	-0.001	2.0	NoResponse	0	0.188	n/a	5	24	ButtonPress	MissedWin	True
239.725	1.45	Win2	0.76	n/a	No	3.124	n/a	5.0	NoResponse	0	0.006	238.731	5	24	Feedback	MissedWin	True
241.174	3.124	Win2	0.76	n/a	No	3.124	n/a	n/a	NoResponse	0	0.0	n/a	5	24	ISIslide	MissedWin	True
244.323	0.25	Win2	0.7308	0.0	No	3.077	0.023	n/a	NoResponse	0	n/a	n/a	5	25	Cue	MissedWin	True
244.573	4.0	Win2	0.7308	0.0	No	3.077	0.0	n/a	NoResponse	0	n/a	n/a	5	25	Fixation	MissedWin	True
248.572	0.15	Win2	0.7308	0.001	No	3.077	-0.001	2.0	NoResponse	0	0.206	247.778	5	25	Target	MissedWin	True
248.721	0.55	Win2	0.7308	n/a	No	3.077	n/a	n/a	NoResponse	0	n/a	n/a	5	25	Blank	MissedWin	True
248.778	0.3	Win2	0.7308	0.001	No	3.077	-0.001	2.0	NoResponse	0	0.206	n/a	5	25	ButtonPress	MissedWin	True
249.271	1.45	Win2	0.7308	n/a	No	3.077	n/a	5.0	NoResponse	0	0.021	248.292	5	25	Feedback	MissedWin	True
250.721	3.077	Win2	0.7308	n/a	No	3.077	n/a	n/a	NoResponse	0	0.0	n/a	5	25	ISIslide	MissedWin	True
253.82	0.25	Win2	0.7037	0.0	No	2.93	0.02	n/a	NoResponse	0	n/a	n/a	5	26	Cue	MissedWin	True
254.07	3.95	Win2	0.7037	0.0	No	2.93	0.0	n/a	NoResponse	0	n/a	n/a	5	26	Fixation	MissedWin	True
258.018	0.15	Win2	0.7037	0.002	No	2.93	-0.002	2.0	NoResponse	0	0.207	257.225	5	26	Target	MissedWin	True
258.168	0.55	Win2	0.7037	n/a	No	2.93	n/a	n/a	NoResponse	0	n/a	n/a	5	26	Blank	MissedWin	True
258.225	0.3	Win2	0.7037	0.002	No	2.93	-0.002	2.0	NoResponse	0	0.207	n/a	5	26	ButtonPress	MissedWin	True
258.718	1.45	Win2	0.7037	n/a	No	2.93	n/a	5.0	NoResponse	0	0.038	257.756	5	26	Feedback	MissedWin	True
260.168	2.93	Win2	0.7037	n/a	No	2.93	n/a	n/a	NoResponse	0	0.0	n/a	5	26	ISIslide	MissedWin	True
263.117	0.25	Lose2	0.6786	0.0	No	2.833	0.017	n/a	NoResponse	-1	n/a	n/a	4	27	Cue	Loss	True
263.366	4.05	Lose2	0.6786	0.001	No	2.833	-0.001	2.0	NoResponse	-1	3.079	265.445	4	27	Fixation	Loss	True
266.445	0.3	Lose2	0.6786	0.001	No	2.833	-0.001	2.0	NoResponse	-1	3.079	n/a	4	27	ButtonPress	Loss	True
267.415	0.15	Lose2	0.6786	0.002	No	2.833	-0.002	n/a	NoResponse	-1	n/a	n/a	4	27	Target	Loss	True
267.565	0.55	Lose2	0.6786	n/a	No	2.833	n/a	n/a	NoResponse	-1	n/a	n/a	4	27	Blank	Loss	True
268.115	1.45	Lose2	0.6786	n/a	No	2.833	n/a	5.0	NoResponse	-1	0.007	267.122	4	27	Feedback	Loss	True
269.564	2.833	Lose2	0.6786	n/a	No	2.833	n/a	n/a	NoResponse	-1	0.0	n/a	4	27	ISIslide	Loss	True
272.413	0.25	Control	0.6552	0.0	No	2.837	0.013	n/a	NoResponse	0	n/a	n/a	4	28	Cue	Neutral	True
272.663	4.05	Control	0.6552	0.0	No	2.837	0.0	n/a	NoResponse	0	n/a	n/a	4	28	Fixation	Neutral	True
276.712	0.15	Control	0.6552	0.001	No	2.837	-0.001	2.0	NoResponse	0	0.282	275.994	4	28	Target	Neutral	True
276.862	0.55	Control	0.6552	n/a	No	2.837	n/a	n/a	NoResponse	0	n/a	n/a	4	28	Blank	Neutral	True
276.994	0.3	Control	0.6552	0.001	No	2.837	-0.001	2.0	NoResponse	0	0.282	n/a	4	28	ButtonPress	Neutral	True
277.412	1.45	Control	0.6552	n/a	No	2.837	n/a	5.0	NoResponse	0	0.026	276.438	4	28	Feedback	Neutral	True
278.861	2.837	Control	0.6552	n/a	No	2.837	n/a	n/a	NoResponse	0	0.0	n/a	4	28	ISIslide	Neutral	True
281.727	0.25	Lose2	0.6333	0.0	No	2.823	0.027	n/a	NoResponse	-1	n/a	n/a	3	29	Cue	Loss	True
281.977	3.95	Lose2	0.6333	0.0	No	2.823	0.0	n/a	NoResponse	-1	n/a	n/a	3	29	Fixation	Loss	True
285.925	0.15	Lose2	0.6333	0.002	No	2.823	-0.002	2.0	NoResponse	-1	0.236	285.161	3	29	Target	Loss	True
286.075	0.55	Lose2	0.6333	n/a	No	2.823	n/a	n/a	NoResponse	-1	n/a	n/a	3	29	Blank	Loss	True
286.161	0.3	Lose2	0.6333	0.002	No	2.823	-0.002	2.0	NoResponse	-1	0.236	n/a	3	29	ButtonPress	Loss	True
286.625	1.45	Lose2	0.6333	n/a	No	2.823	n/a	5.0	NoResponse	-1	0.032	285.657	3	29	Feedback	Loss	True
288.075	2.823	Lose2	0.6333	n/a	No	2.823	n/a	n/a	NoResponse	-1	0.0	n/a	3	29	ISIslide	Loss	True
290.924	0.25	Win2	0.6129	0.0	No	2.776	0.024	n/a	NoResponse	0	n/a	n/a	3	30	Cue	MissedWin	True
291.174	3.9	Win2	0.6129	0.0	No	2.776	0.0	n/a	NoResponse	0	n/a	n/a	3	30	Fixation	MissedWin	True
295.072	0.16	Win2	0.6129	0.002	No	2.776	-0.002	2.0	NoResponse	0	0.26	294.332	3	30	Target	MissedWin	True
295.239	0.54	Win2	0.6129	n/a	No	2.776	n/a	n/a	NoResponse	0	n/a	n/a	3	30	Blank	MissedWin	True
295.332	0.3	Win2	0.6129	0.002	No	2.776	-0.002	2.0	NoResponse	0	0.26	n/a	3	30	ButtonPress	MissedWin	True
295.772	1.45	Win2	0.6129	n/a	No	2.776	n/a	5.0	NoResponse	0	0.008	294.78	3	30	Feedback	MissedWin	True
297.222	2.776	Win2	0.6129	n/a	No	2.776	n/a	n/a	NoResponse	0	0.0	n/a	3	30	ISIslide	MissedWin	True
300.021	0.25	Lose2	0.5938	0.0	No	2.829	0.021	n/a	NoResponse	-1	n/a	n/a	2	31	Cue	Loss	True
300.27	4.05	Lose2	0.5938	0.001	No	2.829	-0.001	n/a	NoResponse	-1	n/a	n/a	2	31	Fixation	Loss	True
304.319	0.17	Lose2	0.5938	0.002	No	2.829	-0.002	2.0	NoResponse	-1	0.192	303.511	2	31	Target	Loss	True
304.502	0.53	Lose2	0.5938	n/a	No	2.829	n/a	n/a	NoResponse	-1	n/a	n/a	2	31	Blank	Loss	True
304.511	0.3	Lose2	0.5938	0.002	No	2.829	-0.002	2.0	NoResponse	-1	0.192	n/a	2	31	ButtonPress	Loss	True
305.019	1.45	Lose2	0.5938	n/a	No	2.829	n/a	5.0	NoResponse	-1	0.029	304.048	2	31	Feedback	Loss	True
306.468	2.829	Lose2	0.5938	n/a	No	2.829	n/a	n/a	NoResponse	-1	0.0	n/a	2	31	ISIslide	Loss	True
309.317	0.25	Lose2	0.5758	0.001	No	2.633	0.017	n/a	NoResponse	-1	n/a	n/a	1	32	Cue	Loss	False
309.567	4.15	Lose2	0.5758	0.0	No	2.633	0.0	n/a	NoResponse	-1	n/a	n/a	1	32	Fixation	Loss	False
313.716	0.18	Lose2	0.5758	0.001	No	2.633	-0.001	n/a	NoResponse	-1	n/a	n/a	1	32	Target	Loss	False
313.899	0.52	Lose2	0.5758	n/a	No	2.633	n/a	n/a	NoResponse	-1	n/a	n/a	1	32	Blank	Loss	False
314.416	1.45	Lose2	0.5758	n/a	No	2.633	n/a	5.0	NoResponse	-1	0.047	313.463	1	32	Feedback	Loss	False
315.865	2.633	Lose2	0.5758	n/a	No	2.633	n/a	n/a	NoResponse	-1	0.0	n/a	1	32	ISIslide	Loss	False
318.514	0.25	Win2	0.5588000000000001	0.0	No	2.686	0.014	n/a	LatePress	0	n/a	n/a	1	33	Cue	MissedWin	True
318.764	4.0	Win2	0.5588000000000001	0.0	No	2.686	0.0	n/a	LatePress	0	n/a	n/a	1	33	Fixation	MissedWin	True
322.763	0.19	Win2	0.5588000000000001	0.001	No	2.686	-0.001	2.0	LatePress	0	0.2	321.963	1	33	Target	MissedWin	True
322.963	0.51	Win2	0.5588000000000001	n/a	No	2.686	n/a	n/a	LatePress	0	n/a	n/a	1	33	Blank	MissedWin	True
322.963	0.3	Win2	0.5588000000000001	0.001	No	2.686	-0.001	2.0	LatePress	0	0.2	n/a	1	33	ButtonPress	MissedWin	True
323.463	1.45	Win2	0.5588000000000001	n/a	No	2.686	n/a	5.0	LatePress	0	0.024	322.487	1	33	Feedback	MissedWin	True
324.912	2.686	Win2	0.5588000000000001	n/a	No	2.686	n/a	n/a	LatePress	0	0.0	n/a	1	33	ISIslide	MissedWin	True
327.628	0.25	Lose2	0.5428999999999999	0.0	No	2.622	0.028	n/a	NoResponse	-1	n/a	n/a	0	34	Cue	Loss	True
327.878	4.05	Lose2	0.5428999999999999	0.0	No	2.622	0.0	n/a	NoResponse	-1	n/a	n/a	0	34	Fixation	Loss	True
331.926	0.2	Lose2	0.5428999999999999	0.002	No	2.622	-0.002	2.0	NoResponse	-1	0.252	331.178	0	34	Target	Loss	True
332.126	0.5	Lose2	0.5428999999999999	n/a	No	2.622	n/a	n/a	NoResponse	-1	n/a	n/a	0	34	Blank	Loss	True
332.178	0.3	Lose2	0.5428999999999999	0.002	No	2.622	-0.002	2.0	NoResponse	-1	0.252	n/a	0	34	ButtonPress	Loss	True
332.626	1.45	Lose2	0.5428999999999999	n/a	No	2.622	n/a	5.0	NoResponse	-1	0.032	331.658	0	34	Feedback	Loss	True
334.076	2.622	Lose2	0.5428999999999999	n/a	No	2.622	n/a	n/a	NoResponse	-1	0.0	n/a	0	34	ISIslide	Loss	True
336.725	0.25	Lose2	0.5556	0.0	Yes	2.675	0.025	n/a	GoodResponse	0	n/a	n/a	0	35	Cue	AvoidedLoss	True
336.975	4.0	Lose2	0.5556	0.0	Yes	2.675	0.0	n/a	GoodResponse	0	n/a	n/a	0	35	Fixation	AvoidedLoss	True
340.973	0.21	Lose2	0.5556	0.002	Yes	2.675	-0.002	2.0	GoodResponse	0	0.201	340.174	0	35	Target	AvoidedLoss	True
341.174	0.3	Lose2	0.5556	0.002	Yes	2.675	-0.002	2.0	GoodResponse	0	0.201	n/a	0	35	ButtonPress	AvoidedLoss	True
341.19	0.49	Lose2	0.5556	n/a	Yes	2.675	n/a	n/a	GoodResponse	0	n/a	n/a	0	35	Blank	AvoidedLoss	True
341.673	1.45	Lose2	0.5556	n/a	Yes	2.675	n/a	5.0	GoodResponse	0	0.009	340.682	0	35	Feedback	AvoidedLoss	True
343.122	2.675	Lose2	0.5556	n/a	Yes	2.675	n/a	n/a	GoodResponse	0	0.0	n/a	0	35	ISIslide	AvoidedLoss	True
345.822	0.25	Control	0.5676	0.0	Yes	2.678	0.022	n/a	GoodResponse	0	n/a	n/a	0	36	Cue	Neutral	True
346.071	4.0	Control	0.5676	0.001	Yes	2.678	-0.001	n/a	GoodResponse	0	n/a	n/a	0	36	Fixation	Neutral	True
350.07	0.22	Control	0.5676	0.002	Yes	2.678	-0.002	2.0	GoodResponse	0	0.218	349.288	0	36	Target	Neutral	True
350.288	0.3	Control	0.5676	0.002	Yes	2.678	-0.002	2.0	GoodResponse	0	0.218	n/a	0	36	ButtonPress	Neutral	True
350.303	0.48	Control	0.5676	n/a	Yes	2.678	n/a	n/a	GoodResponse	0	n/a	n/a	0	36	Blank	Neutral	True
350.77	1.45	Control	0.5676	n/a	Yes	2.678	n/a	5.0	GoodResponse	0	0.034	349.804	0	36	Feedback	Neutral	True
352.219	2.678	Control	0.5676	n/a	Yes	2.678	n/a	n/a	GoodResponse	0	0.0	n/a	0	36	ISIslide	Neutral	True
354.918	0.25	Win2	0.5789	0.001	Yes	2.882	0.018	n/a	GoodResponse	1	n/a	n/a	1	37	Cue	Win	True
355.168	4.0	Win2	0.5789	0.0	Yes	2.882	0.0	n/a	GoodResponse	1	n/a	n/a	1	37	Fixation	Win	True
359.167	0.23	Win2	0.5789	0.001	Yes	2.882	-0.001	2.0	GoodResponse	1	0.207	358.374	1	37	Target	Win	True
359.374	0.3	Win2	0.5789	0.001	Yes	2.882	-0.001	2.0	GoodResponse	1	0.207	n/a	1	37	ButtonPress	Win	True
359.4	0.47	Win2	0.5789	n/a	Yes	2.882	n/a	n/a	GoodResponse	1	n/a	n/a	1	37	Blank	Win	True
359.867	1.45	Win2	0.5789	n/a	Yes	2.882	n/a	5.0	GoodResponse	1	0.01	358.877	1	37	Feedback	Win	True
361.316	2.882	Win2	0.5789	n/a	Yes	2.882	n/a	n/a	GoodResponse	1	0.0	n/a	1	37	ISIslide	Win	True
364.215	0.25	Lose2	0.5640999999999999	0.0	No	2.835	0.015	n/a	LatePress	-1	n/a	n/a	0	38	Cue	Loss	True
364.465	3.95	Lose2	0.5640999999999999	0.0	No	2.835	0.0	n/a	LatePress	-1	n/a	n/a	0	38	Fixation	Loss	True
368.414	0.24	Lose2	0.5640999999999999	0.001	No	2.835	-0.001	2.0	LatePress	-1	0.24	367.654	0	38	Target	Loss	True
368.654	0.3	Lose2	0.5640999999999999	0.001	No	2.835	-0.001	2.0	LatePress	-1	0.24	n/a	0	38	ButtonPress	Loss	True
368.664	0.46	Lose2	0.5640999999999999	n/a	No	2.835	n/a	n/a	LatePress	-1	n/a	n/a	0	38	Blank	Loss	True
369.114	1.45	Lose2	0.5640999999999999	n/a	No	2.835	n/a	5.0	LatePress	-1	0.031	368.145	0	38	Feedback	Loss	True
370.563	2.835	Lose2	0.5640999999999999	n/a	No	2.835	n/a	n/a	LatePress	-1	0.0	n/a	0	38	ISIslide	Loss	True
373.429	0.25	Win2	0.575	0.0	Yes	2.971	0.029	n/a	GoodResponse	1	n/a	n/a	1	39	Cue	Win	True
373.679	4.1	Win2	0.575	0.0	Yes	2.971	0.0	n/a	GoodResponse	1	n/a	n/a	1	39	Fixation	Win	True
377.777	0.25	Win2	0.575	0.002	Yes	2.971	-0.002	2.0	GoodResponse	1	0.229	377.006	1	39	Target	Win	True
378.006	0.3	Win2	0.575	0.002	Yes	2.971	-0.002	2.0	GoodResponse	1	0.229	n/a	1	39	ButtonPress	Win	True
378.027	0.45	Win2	0.575	n/a	Yes	2.971	n/a	n/a	GoodResponse	1	n/a	n/a	1	39	Blank	Win	True
378.477	1.45	Win2	0.575	n/a	Yes	2.971	n/a	5.0	GoodResponse	1	0.034	377.511	1	39	Feedback	Win	True
379.927	2.971	Win2	0.575	n/a	Yes	2.971	n/a	n/a	GoodResponse	1	0.0	n/a	1	39	ISIslide	Win	True
382.926	0.25	Win2	0.5854	0.0	Yes	2.724	0.026	n/a	GoodResponse	1	n/a	n/a	2	40	Cue	Win	True
383.175	3.95	Win2	0.5854	0.001	Yes	2.724	-0.001	n/a	GoodResponse	1	n/a	n/a	2	40	Fixation	Win	True
387.124	0.26	Win2	0.5854	0.002	Yes	2.724	-0.002	2.0	GoodResponse	1	0.231	386.355	2	40	Target	Win	True
387.355	0.3	Win2	0.5854	0.002	Yes	2.724	-0.002	2.0	GoodResponse	1	0.231	n/a	2	40	ButtonPress	Win	True
387.391	0.44	Win2	0.5854	n/a	Yes	2.724	n/a	n/a	GoodResponse	1	n/a	n/a	2	40	Blank	Win	True
387.824	1.45	Win2	0.5854	n/a	Yes	2.724	n/a	5.0	GoodResponse	1	0.008	386.832	2	40	Feedback	Win	True
389.273	2.724	Win2	0.5854	n/a	Yes	2.724	n/a	n/a	GoodResponse	1	0.0	n/a	2	40	ISIslide	Win	True
392.022	0.25	Win2	0.5714	0.0	No	2.778	0.022	n/a	NoResponse	0	n/a	n/a	2	41	Cue	MissedWin	True
392.272	3.9	Win2	0.5714	0.0	No	2.778	0.0	n/a	NoResponse	0	n/a	n/a	2	41	Fixation	MissedWin	True
396.171	0.27	Win2	0.5714	0.001	No	2.778	-0.001	2.0	NoResponse	0	0.285	395.456	2	41	Target	MissedWin	True
396.438	0.43	Win2	0.5714	n/a	No	2.778	n/a	n/a	NoResponse	0	n/a	n/a	2	41	Blank	MissedWin	True
396.456	0.3	Win2	0.5714	0.001	No	2.778	-0.001	2.0	NoResponse	0	0.285	n/a	2	41	ButtonPress	MissedWin	True
396.871	1.45	Win2	0.5714	n/a	No	2.778	n/a	5.0	NoResponse	0	0.031	395.902	2	41	Feedback	MissedWin	True
398.32	2.778	Win2	0.5714	n/a	No	2.778	n/a	n/a	NoResponse	0	0.0	n/a	2	41	ISIslide	MissedWin	True
401.119	0.25	Control	0.5581	0.0	No	2.931	0.019	n/a	NoResponse	0	n/a	n/a	2	42	Cue	Neutral	True
401.369	3.85	Control	0.5581	0.0	No	2.931	0.0	n/a	NoResponse	0	n/a	n/a	2	42	Fixation	Neutral	True
405.218	0.28	Control	0.5581	0.001	No	2.931	-0.001	2.0	NoResponse	0	0.561	404.779	2	42	Target	Neutral	True
405.501	0.42	Control	0.5581	n/a	No	2.931	n/a	n/a	NoResponse	0	n/a	n/a	2	42	Blank	Neutral	True
405.779	0.3	Control	0.5581	0.001	No	2.931	-0.001	2.0	NoResponse	0	0.561	n/a	2	42	ButtonPress	Neutral	True
405.918	1.45	Control	0.5581	n/a	No	2.931	n/a	5.0	NoResponse	0	0.008	404.926	2	42	Feedback	Neutral	True
407.367	2.931	Control	0.5581	n/a	No	2.931	n/a	n/a	NoResponse	0	0.0	n/a	2	42	ISIslide	Neutral	True
410.316	0.25	Win2	0.5682	0.0	Yes	3.184	0.016	n/a	GoodResponse	1	n/a	n/a	3	43	Cue	Win	True
410.566	4.0	Win2	0.5682	0.0	Yes	3.184	0.0	n/a	GoodResponse	1	n/a	n/a	3	43	Fixation	Win	True
414.565	0.29	Win2	0.5682	0.001	Yes	3.184	-0.001	2.0	GoodResponse	1	0.163	413.728	3	43	Target	Win	True
414.728	0.3	Win2	0.5682	0.001	Yes	3.184	-0.001	2.0	GoodResponse	1	0.163	n/a	3	43	ButtonPress	Win	True
414.865	0.41	Win2	0.5682	n/a	Yes	3.184	n/a	n/a	GoodResponse	1	n/a	n/a	3	43	Blank	Win	True
415.264	1.45	Win2	0.5682	n/a	Yes	3.184	n/a	5.0	GoodResponse	1	0.028	414.292	3	43	Feedback	Win	True
416.714	3.184	Win2	0.5682	n/a	Yes	3.184	n/a	n/a	GoodResponse	1	0.0	n/a	3	43	ISIslide	Win	True
419.913	0.25	Win2	0.5778	0.0	Yes	2.987	0.013	n/a	GoodResponse	1	n/a	n/a	4	44	Cue	Win	True
420.163	4.0	Win2	0.5778	0.0	Yes	2.987	0.0	n/a	GoodResponse	1	n/a	n/a	4	44	Fixation	Win	True
424.161	0.3	Win2	0.5778	0.002	Yes	2.987	-0.002	2.0	GoodResponse	1	0.201	423.362	4	44	Target	Win	True
424.362	0.3	Win2	0.5778	0.002	Yes	2.987	-0.002	2.0	GoodResponse	1	0.201	n/a	4	44	ButtonPress	Win	True
424.461	0.4	Win2	0.5778	n/a	Yes	2.987	n/a	n/a	GoodResponse	1	n/a	n/a	4	44	Blank	Win	True
424.861	1.45	Win2	0.5778	n/a	Yes	2.987	n/a	5.0	GoodResponse	1	0.04	423.901	4	44	Feedback	Win	True
426.311	2.987	Win2	0.5778	n/a	Yes	2.987	n/a	n/a	GoodResponse	1	0.0	n/a	4	44	ISIslide	Win	True
429.326	0.25	Control	0.5870000000000001	0.0	Yes	2.874	0.026	n/a	GoodResponse	0	n/a	n/a	4	45	Cue	Neutral	True
429.576	4.1	Control	0.5870000000000001	0.0	Yes	2.874	0.0	n/a	GoodResponse	0	n/a	n/a	4	45	Fixation	Neutral	True
433.675	0.31	Control	0.5870000000000001	0.001	Yes	2.874	-0.001	2.0	GoodResponse	0	0.196	432.871	4	45	Target	Neutral	True
433.871	0.3	Control	0.5870000000000001	0.001	Yes	2.874	-0.001	2.0	GoodResponse	0	0.196	n/a	4	45	ButtonPress	Neutral	True
433.991	0.39	Control	0.5870000000000001	n/a	Yes	2.874	n/a	n/a	GoodResponse	0	n/a	n/a	4	45	Blank	Neutral	True
434.375	1.45	Control	0.5870000000000001	n/a	Yes	2.874	n/a	5.0	GoodResponse	0	0.038	433.413	4	45	Feedback	Neutral	True
435.824	2.874	Control	0.5870000000000001	n/a	Yes	2.874	n/a	n/a	GoodResponse	0	0.0	n/a	4	45	ISIslide	Neutral	True
438.723	0.25	Lose2	0.5957	0.0	Yes	3.377	0.023	n/a	GoodResponse	0	n/a	n/a	4	46	Cue	AvoidedLoss	True
438.973	4.0	Lose2	0.5957	0.0	Yes	3.377	0.0	n/a	GoodResponse	0	n/a	n/a	4	46	Fixation	AvoidedLoss	True
442.972	0.32	Lose2	0.5957	0.001	Yes	3.377	-0.001	2.0	GoodResponse	0	0.211	442.183	4	46	Target	AvoidedLoss	True
443.183	0.3	Lose2	0.5957	0.001	Yes	3.377	-0.001	2.0	GoodResponse	0	0.211	n/a	4	46	ButtonPress	AvoidedLoss	True
443.305	0.38	Lose2	0.5957	n/a	Yes	3.377	n/a	n/a	GoodResponse	0	n/a	n/a	4	46	Blank	AvoidedLoss	True
443.671	1.45	Lose2	0.5957	n/a	Yes	3.377	n/a	5.0	GoodResponse	0	0.011	442.682	4	46	Feedback	AvoidedLoss	True
445.121	3.377	Lose2	0.5957	n/a	Yes	3.377	n/a	n/a	GoodResponse	0	0.0	n/a	4	46	ISIslide	AvoidedLoss	True
448.52	0.25	Lose2	0.6042000000000001	0.0	Yes	2.68	0.02	n/a	GoodResponse	0	n/a	n/a	4	47	Cue	AvoidedLoss	True
448.77	4.0	Lose2	0.6042000000000001	0.0	Yes	2.68	0.0	n/a	GoodResponse	0	n/a	n/a	4	47	Fixation	AvoidedLoss	True
452.768	0.33	Lose2	0.6042000000000001	0.002	Yes	2.68	-0.002	2.0	GoodResponse	0	0.22	451.988	4	47	Target	AvoidedLoss	True
452.988	0.3	Lose2	0.6042000000000001	0.002	Yes	2.68	-0.002	2.0	GoodResponse	0	0.22	n/a	4	47	ButtonPress	AvoidedLoss	True
453.102	0.37	Lose2	0.6042000000000001	n/a	Yes	2.68	n/a	n/a	GoodResponse	0	n/a	n/a	4	47	Blank	AvoidedLoss	True
453.468	1.45	Lose2	0.6042000000000001	n/a	Yes	2.68	n/a	5.0	GoodResponse	0	0.019	452.487	4	47	Feedback	AvoidedLoss	True
454.918	2.68	Lose2	0.6042000000000001	n/a	Yes	2.68	n/a	n/a	GoodResponse	0	0.0	n/a	4	47	ISIslide	AvoidedLoss	True
457.617	0.25	Lose2	0.6122	0.0	Yes	3.033	0.017	n/a	GoodResponse	0	n/a	n/a	4	48	Cue	AvoidedLoss	True
457.867	3.95	Lose2	0.6122	0.0	Yes	3.033	0.0	n/a	GoodResponse	0	n/a	n/a	4	48	Fixation	AvoidedLoss	True
461.815	0.34	Lose2	0.6122	0.002	Yes	3.033	-0.002	2.0	GoodResponse	0	0.238	461.053	4	48	Target	AvoidedLoss	True
462.053	0.3	Lose2	0.6122	0.002	Yes	3.033	-0.002	2.0	GoodResponse	0	0.238	n/a	4	48	ButtonPress	AvoidedLoss	True
462.165	0.36	Lose2	0.6122	n/a	Yes	3.033	n/a	n/a	GoodResponse	0	n/a	n/a	4	48	Blank	AvoidedLoss	True
462.515	1.45	Lose2	0.6122	n/a	Yes	3.033	n/a	5.0	GoodResponse	0	0.045	461.56	4	48	Feedback	AvoidedLoss	True
463.964	3.033	Lose2	0.6122	n/a	Yes	3.033	n/a	n/a	GoodResponse	0	0.0	n/a	4	48	ISIslide	AvoidedLoss	True
467.013	0.25	Control	0.6	0.0	No	2.887	0.013	n/a	NoResponse	0	n/a	n/a	4	49	Cue	Neutral	True
467.263	4.0	Control	0.6	0.0	No	2.887	0.0	n/a	NoResponse	0	n/a	n/a	4	49	Fixation	Neutral	True
471.262	0.35	Control	0.6	0.001	No	2.887	-0.001	2.0	NoResponse	0	0.372	470.634	4	49	Target	Neutral	True
471.612	0.35	Control	0.6	n/a	No	2.887	n/a	n/a	NoResponse	0	n/a	n/a	4	49	Blank	Neutral	True
471.634	0.3	Control	0.6	0.001	No	2.887	-0.001	2.0	NoResponse	0	0.372	n/a	4	49	ButtonPress	Neutral	True
471.962	1.45	Control	0.6	n/a	No	2.887	n/a	5.0	NoResponse	0	0.013	470.975	4	49	Feedback	Neutral	True
473.411	2.887	Control	0.6	n/a	No	2.887	n/a	n/a	NoResponse	0	0.0	n/a	4	49	ISIslide	Neutral	True
476.327	0.25	Control	0.6078	0.0	Yes	2.773	0.027	n/a	GoodResponse	0	n/a	n/a	4	50	Cue	Neutral	True
476.577	4.0	Control	0.6078	0.0	Yes	2.773	0.0	n/a	GoodResponse	0	n/a	n/a	4	50	Fixation	Neutral	True
480.575	0.36	Control	0.6078	0.002	Yes	2.773	-0.002	2.0	GoodResponse	0	0.264	479.839	4	50	Target	Neutral	True
480.839	0.3	Control	0.6078	0.002	Yes	2.773	-0.002	2.0	GoodResponse	0	0.264	n/a	4	50	ButtonPress	Neutral	True
480.942	0.34	Control	0.6078	n/a	Yes	2.773	n/a	n/a	GoodResponse	0	n/a	n/a	4	50	Blank	Neutral	True
481.275	1.45	Control	0.6078	n/a	Yes	2.773	n/a	5.0	GoodResponse	0	0.017	480.292	4	50	Feedback	Neutral	True
482.725	2.773	Control	0.6078	n/a	Yes	2.773	n/a	n/a	GoodResponse	0	0.0	n/a	4	50	ISIslide	Neutral	True
485.524	0.25	Control	0.6154	0.0	Yes	2.726	0.024	n/a	GoodResponse	0	n/a	n/a	4	51	Cue	Neutral	True
485.774	3.95	Control	0.6154	0.0	Yes	2.726	0.0	n/a	GoodResponse	0	n/a	n/a	4	51	Fixation	Neutral	True
489.722	0.37	Control	0.6154	0.002	Yes	2.726	-0.002	2.0	GoodResponse	0	0.266	488.988	4	51	Target	Neutral	True
489.988	0.3	Control	0.6154	0.002	Yes	2.726	-0.002	2.0	GoodResponse	0	0.266	n/a	4	51	ButtonPress	Neutral	True
490.106	0.33	Control	0.6154	n/a	Yes	2.726	n/a	n/a	GoodResponse	0	n/a	n/a	4	51	Blank	Neutral	True
490.422	1.45	Control	0.6154	n/a	Yes	2.726	n/a	5.0	GoodResponse	0	0.041	489.463	4	51	Feedback	Neutral	True
491.872	2.726	Control	0.6154	n/a	Yes	2.726	n/a	n/a	GoodResponse	0	0.0	n/a	4	51	ISIslide	Neutral	True
494.621	0.25	Control	0.6038	0.0	No	2.629	0.021	n/a	NoResponse	0	n/a	n/a	4	52	Cue	Neutral	True
494.871	4.05	Control	0.6038	0.0	No	2.629	0.0	n/a	NoResponse	0	n/a	n/a	4	52	Fixation	Neutral	True
498.919	0.38	Control	0.6038	0.002	No	2.629	-0.002	2.0	NoResponse	0	0.463	498.382	4	52	Target	Neutral	True
499.302	0.32	Control	0.6038	n/a	No	2.629	n/a	n/a	NoResponse	0	n/a	n/a	4	52	Blank	Neutral	True
499.382	0.3	Control	0.6038	0.002	No	2.629	-0.002	2.0	NoResponse	0	0.463	n/a	4	52	ButtonPress	Neutral	True
499.619	1.45	Control	0.6038	n/a	No	2.629	n/a	5.0	NoResponse	0	0.014	498.633	4	52	Feedback	Neutral	True
501.068	2.629	Control	0.6038	n/a	No	2.629	n/a	n/a	NoResponse	0	0.0	n/a	4	52	ISIslide	Neutral	True
503.718	0.25	Win2	0.6111	0.0	Yes	2.932	0.018	n/a	GoodResponse	1	n/a	n/a	5	53	Cue	Win	True
503.967	4.05	Win2	0.6111	0.001	Yes	2.932	-0.001	n/a	GoodResponse	1	n/a	n/a	5	53	Fixation	Win	True
508.016	0.39	Win2	0.6111	0.002	Yes	2.932	-0.002	2.0	GoodResponse	1	0.213	507.229	5	53	Target	Win	True
508.229	0.3	Win2	0.6111	0.002	Yes	2.932	-0.002	2.0	GoodResponse	1	0.213	n/a	5	53	ButtonPress	Win	True
508.416	0.31	Win2	0.6111	n/a	Yes	2.932	n/a	n/a	GoodResponse	1	n/a	n/a	5	53	Blank	Win	True
508.716	1.45	Win2	0.6111	n/a	Yes	2.932	n/a	5.0	GoodResponse	1	0.039	507.755	5	53	Feedback	Win	True
510.165	2.932	Win2	0.6111	n/a	Yes	2.932	n/a	n/a	GoodResponse	1	0.0	n/a	5	53	ISIslide	Win	True
513.114	0.25	Win2	0.6182	0.0	Yes	2.736	0.014	n/a	GoodResponse	1	n/a	n/a	6	54	Cue	Win	True
513.364	3.95	Win2	0.6182	0.0	Yes	2.736	0.0	n/a	GoodResponse	1	n/a	n/a	6	54	Fixation	Win	True
517.313	0.4	Win2	0.6182	0.001	Yes	2.736	-0.001	2.0	GoodResponse	1	0.177	516.49	6	54	Target	Win	True
517.49	0.3	Win2	0.6182	0.001	Yes	2.736	-0.001	2.0	GoodResponse	1	0.177	n/a	6	54	ButtonPress	Win	True
517.713	0.3	Win2	0.6182	n/a	Yes	2.736	n/a	n/a	GoodResponse	1	n/a	n/a	6	54	Blank	Win	True
518.013	1.45	Win2	0.6182	n/a	Yes	2.736	n/a	5.0	GoodResponse	1	0.01	517.023	6	54	Feedback	Win	True
519.462	2.736	Win2	0.6182	n/a	Yes	2.736	n/a	n/a	GoodResponse	1	0.0	n/a	6	54	ISIslide	Win	True
522.228	0.25	Control	0.625	0.0	Yes	3.022	0.028	n/a	GoodResponse	0	n/a	n/a	6	55	Cue	Neutral	True
522.478	3.95	Control	0.625	0.0	Yes	3.022	0.0	n/a	GoodResponse	0	n/a	n/a	6	55	Fixation	Neutral	True
526.426	0.41	Control	0.625	0.002	Yes	3.022	-0.002	2.0	GoodResponse	0	0.25	525.676	6	55	Target	Neutral	True
526.676	0.3	Control	0.625	0.002	Yes	3.022	-0.002	2.0	GoodResponse	0	0.25	n/a	6	55	ButtonPress	Neutral	True
526.843	0.29	Control	0.625	n/a	Yes	3.022	n/a	n/a	GoodResponse	0	n/a	n/a	6	55	Blank	Neutral	True
527.126	1.45	Control	0.625	n/a	Yes	3.022	n/a	5.0	GoodResponse	0	0.019	526.145	6	55	Feedback	Neutral	True
528.576	3.022	Control	0.625	n/a	Yes	3.022	n/a	n/a	GoodResponse	0	0.0	n/a	6	55	ISIslide	Neutral	True
531.625	0.25	Control	0.6315999999999999	0.0	Yes	2.825	0.025	n/a	GoodResponse	0	n/a	n/a	6	56	Cue	Neutral	True
531.875	3.95	Control	0.6315999999999999	0.0	Yes	2.825	0.0	n/a	GoodResponse	0	n/a	n/a	6	56	Fixation	Neutral	True
535.823	0.42	Control	0.6315999999999999	0.002	Yes	2.825	-0.002	2.0	GoodResponse	0	0.303	535.126	6	56	Target	Neutral	True
536.126	0.3	Control	0.6315999999999999	0.002	Yes	2.825	-0.002	2.0	GoodResponse	0	0.303	n/a	6	56	ButtonPress	Neutral	True
536.256	0.28	Control	0.6315999999999999	n/a	Yes	2.825	n/a	n/a	GoodResponse	0	n/a	n/a	6	56	Blank	Neutral	True
536.523	1.45	Control	0.6315999999999999	n/a	Yes	2.825	n/a	5.0	GoodResponse	0	0.037	535.56	6	56	Feedback	Neutral	True
537.972	2.825	Control	0.6315999999999999	n/a	Yes	2.825	n/a	n/a	GoodResponse	0	0.0	n/a	6	56	ISIslide	Neutral	True
540.821	0.25	Control	0.6379	0.001	Yes	3.479	0.021	n/a	GoodResponse	0	n/a	n/a	6	57	Cue	Neutral	True
541.071	4.0	Control	0.6379	0.0	Yes	3.479	0.0	n/a	GoodResponse	0	n/a	n/a	6	57	Fixation	Neutral	True
545.07	0.43	Control	0.6379	0.001	Yes	3.479	-0.001	2.0	GoodResponse	0	0.305	544.375	6	57	Target	Neutral	True
545.375	0.3	Control	0.6379	0.001	Yes	3.479	-0.001	2.0	GoodResponse	0	0.305	n/a	6	57	ButtonPress	Neutral	True
545.503	0.27	Control	0.6379	n/a	Yes	3.479	n/a	n/a	GoodResponse	0	n/a	n/a	6	57	Blank	Neutral	True
545.77	1.45	Control	0.6379	n/a	Yes	3.479	n/a	5.0	GoodResponse	0	0.01	544.78	6	57	Feedback	Neutral	True
547.219	3.479	Control	0.6379	n/a	Yes	3.479	n/a	n/a	GoodResponse	0	0.0	n/a	6	57	ISIslide	Neutral	True
550.718	0.25	Win2	0.6441	0.0	Yes	2.732	0.018	n/a	GoodResponse	1	n/a	n/a	7	58	Cue	Win	True
550.968	4.05	Win2	0.6441	0.0	Yes	2.732	0.0	n/a	GoodResponse	1	n/a	n/a	7	58	Fixation	Win	True
555.017	0.44	Win2	0.6441	0.001	Yes	2.732	-0.001	2.0	GoodResponse	1	0.239	554.256	7	58	Target	Win	True
555.256	0.3	Win2	0.6441	0.001	Yes	2.732	-0.001	2.0	GoodResponse	1	0.239	n/a	7	58	ButtonPress	Win	True
555.466	0.26	Win2	0.6441	n/a	Yes	2.732	n/a	n/a	GoodResponse	1	n/a	n/a	7	58	Blank	Win	True
555.716	1.45	Win2	0.6441	n/a	Yes	2.732	n/a	5.0	GoodResponse	1	0.015	554.731	7	58	Feedback	Win	True
557.166	2.732	Win2	0.6441	n/a	Yes	2.732	n/a	n/a	GoodResponse	1	0.0	n/a	7	58	ISIslide	Win	True
559.915	0.25	Lose2	0.65	0.0	Yes	2.685	0.015	n/a	GoodResponse	0	n/a	n/a	7	59	Cue	AvoidedLoss	True
560.165	4.0	Lose2	0.65	0.0	Yes	2.685	0.0	n/a	GoodResponse	0	n/a	n/a	7	59	Fixation	AvoidedLoss	True
564.163	0.45	Lose2	0.65	0.002	Yes	2.685	-0.002	2.0	GoodResponse	0	0.25	563.413	7	59	Target	AvoidedLoss	True
564.413	0.3	Lose2	0.65	0.002	Yes	2.685	-0.002	2.0	GoodResponse	0	0.25	n/a	7	59	ButtonPress	AvoidedLoss	True
564.613	0.25	Lose2	0.65	n/a	Yes	2.685	n/a	n/a	GoodResponse	0	n/a	n/a	7	59	Blank	AvoidedLoss	True
564.863	1.45	Lose2	0.65	n/a	Yes	2.685	n/a	5.0	GoodResponse	0	0.039	563.902	7	59	Feedback	AvoidedLoss	True
566.313	2.685	Lose2	0.65	n/a	Yes	2.685	n/a	n/a	GoodResponse	0	0.0	n/a	7	59	ISIslide	AvoidedLoss	True
569.028	0.25	Control	0.6557	0.001	Yes	2.672	0.028	n/a	GoodResponse	0	n/a	n/a	7	60	Cue	Neutral	True
569.278	4.0	Control	0.6557	0.0	Yes	2.672	0.0	n/a	GoodResponse	0	n/a	n/a	7	60	Fixation	Neutral	True
573.277	0.46	Control	0.6557	0.001	Yes	2.672	-0.001	2.0	GoodResponse	0	0.252	572.529	7	60	Target	Neutral	True
573.529	0.3	Control	0.6557	0.001	Yes	2.672	-0.001	2.0	GoodResponse	0	0.252	n/a	7	60	ButtonPress	Neutral	True
573.744	0.24	Control	0.6557	n/a	Yes	2.672	n/a	n/a	GoodResponse	0	n/a	n/a	7	60	Blank	Neutral	True
573.977	1.45	Control	0.6557	n/a	Yes	2.672	n/a	5.0	GoodResponse	0	0.046	573.023	7	60	Feedback	Neutral	True
575.426	2.672	Control	0.6557	n/a	Yes	2.672	n/a	n/a	GoodResponse	0	0.0	n/a	7	60	ISIslide	Neutral	True
578.125	0.25	Lose2	0.6613	0.0	Yes	2.975	0.025	n/a	GoodResponse	0	n/a	n/a	7	61	Cue	AvoidedLoss	True
578.375	4.0	Lose2	0.6613	0.0	Yes	2.975	0.0	n/a	GoodResponse	0	n/a	n/a	7	61	Fixation	AvoidedLoss	True
582.374	0.46	Lose2	0.6613	0.001	Yes	2.975	-0.001	2.0	GoodResponse	0	0.228	581.602	7	61	Target	AvoidedLoss	True
582.602	0.3	Lose2	0.6613	0.001	Yes	2.975	-0.001	2.0	GoodResponse	0	0.228	n/a	7	61	ButtonPress	AvoidedLoss	True
582.84	0.24	Lose2	0.6613	n/a	Yes	2.975	n/a	n/a	GoodResponse	0	n/a	n/a	7	61	Blank	AvoidedLoss	True
583.074	1.45	Lose2	0.6613	n/a	Yes	2.975	n/a	5.0	GoodResponse	0	0.022	582.096	7	61	Feedback	AvoidedLoss	True
584.523	2.975	Lose2	0.6613	n/a	Yes	2.975	n/a	n/a	GoodResponse	0	0.0	n/a	7	61	ISIslide	AvoidedLoss	True
587.522	0.25	Lose2	0.6667000000000001	0.0	Yes	2.878	0.022	n/a	GoodResponse	0	n/a	n/a	7	62	Cue	AvoidedLoss	True
587.772	3.9	Lose2	0.6667000000000001	0.0	Yes	2.878	0.0	n/a	GoodResponse	0	n/a	n/a	7	62	Fixation	AvoidedLoss	True
591.671	0.46	Lose2	0.6667000000000001	0.001	Yes	2.878	-0.001	2.0	GoodResponse	0	0.209	590.88	7	62	Target	AvoidedLoss	True
591.88	0.3	Lose2	0.6667000000000001	0.001	Yes	2.878	-0.001	2.0	GoodResponse	0	0.209	n/a	7	62	ButtonPress	AvoidedLoss	True
592.137	0.24	Lose2	0.6667000000000001	n/a	Yes	2.878	n/a	n/a	GoodResponse	0	n/a	n/a	7	62	Blank	AvoidedLoss	True
592.37	1.45	Lose2	0.6667000000000001	n/a	Yes	2.878	n/a	5.0	GoodResponse	0	0.043	591.413	7	62	Feedback	AvoidedLoss	True
593.82	2.878	Lose2	0.6667000000000001	n/a	Yes	2.878	n/a	n/a	GoodResponse	0	0.0	n/a	7	62	ISIslide	AvoidedLoss	True
596.719	0.25	Lose2	0.6718999999999999	0.0	Yes	2.631	0.019	n/a	GoodResponse	0	n/a	n/a	7	63	Cue	AvoidedLoss	True
596.969	4.05	Lose2	0.6718999999999999	0.0	Yes	2.631	0.0	n/a	GoodResponse	0	n/a	n/a	7	63	Fixation	AvoidedLoss	True
601.018	0.45	Lose2	0.6718999999999999	0.001	Yes	2.631	-0.001	2.0	GoodResponse	0	0.24	600.258	7	63	Target	AvoidedLoss	True
601.258	0.3	Lose2	0.6718999999999999	0.001	Yes	2.631	-0.001	2.0	GoodResponse	0	0.24	n/a	7	63	ButtonPress	AvoidedLoss	True
601.467	0.25	Lose2	0.6718999999999999	n/a	Yes	2.631	n/a	n/a	GoodResponse	0	n/a	n/a	7	63	Blank	AvoidedLoss	True
601.717	1.45	Lose2	0.6718999999999999	n/a	Yes	2.631	n/a	5.0	GoodResponse	0	0.013	600.73	7	63	Feedback	AvoidedLoss	True
603.167	2.631	Lose2	0.6718999999999999	n/a	Yes	2.631	n/a	n/a	GoodResponse	0	0.0	n/a	7	63	ISIslide	AvoidedLoss	True
605.816	0.25	Win2	0.6769	0.0	Yes	3.134	0.016	n/a	GoodResponse	1	n/a	n/a	8	64	Cue	Win	True
606.066	4.15	Win2	0.6769	0.0	Yes	3.134	0.0	n/a	GoodResponse	1	n/a	n/a	8	64	Fixation	Win	True
610.214	0.44	Win2	0.6769	0.002	Yes	3.134	-0.002	2.0	GoodResponse	1	0.221	609.435	8	64	Target	Win	True
610.435	0.3	Win2	0.6769	0.002	Yes	3.134	-0.002	2.0	GoodResponse	1	0.221	n/a	8	64	ButtonPress	Win	True
610.664	0.26	Win2	0.6769	n/a	Yes	3.134	n/a	n/a	GoodResponse	1	n/a	n/a	8	64	Blank	Win	True
610.914	1.45	Win2	0.6769	n/a	Yes	3.134	n/a	5.0	GoodResponse	1	0.036	609.95	8	64	Feedback	Win	True
612.364	3.134	Win2	0.6769	n/a	Yes	3.134	n/a	n/a	GoodResponse	1	0.0	n/a	8	64	ISIslide	Win	True
615.513	0.25	Control	0.6818000000000001	0.0	Yes	2.787	0.013	n/a	GoodResponse	0	n/a	n/a	8	65	Cue	Neutral	True
615.762	4.0	Control	0.6818000000000001	0.001	Yes	2.787	-0.001	n/a	GoodResponse	0	n/a	n/a	8	65	Fixation	Neutral	True
619.761	0.43	Control	0.6818000000000001	0.002	Yes	2.787	-0.002	2.0	GoodResponse	0	0.413	619.174	8	65	Target	Neutral	True
620.174	0.3	Control	0.6818000000000001	0.002	Yes	2.787	-0.002	2.0	GoodResponse	0	0.413	n/a	8	65	ButtonPress	Neutral	True
620.194	0.27	Control	0.6818000000000001	n/a	Yes	2.787	n/a	n/a	GoodResponse	0	n/a	n/a	8	65	Blank	Neutral	True
620.461	1.45	Control	0.6818000000000001	n/a	Yes	2.787	n/a	5.0	GoodResponse	0	0.001	619.462	8	65	Feedback	Neutral	True
621.91	2.787	Control	0.6818000000000001	n/a	Yes	2.787	n/a	n/a	GoodResponse	0	0.0	n/a	8	65	ISIslide	Neutral	True
624.726	0.25	Win2	0.6866	0.0	Yes	2.774	0.026	n/a	GoodResponse	1	n/a	n/a	9	66	Cue	Win	True
624.976	3.9	Win2	0.6866	0.0	Yes	2.774	0.0	n/a	GoodResponse	1	n/a	n/a	9	66	Fixation	Win	True
628.875	0.42	Win2	0.6866	0.001	Yes	2.774	-0.001	2.0	GoodResponse	1	0.231	628.106	9	66	Target	Win	True
629.106	0.3	Win2	0.6866	0.001	Yes	2.774	-0.001	2.0	GoodResponse	1	0.231	n/a	9	66	ButtonPress	Win	True
629.308	0.28	Win2	0.6866	n/a	Yes	2.774	n/a	n/a	GoodResponse	1	n/a	n/a	9	66	Blank	Win	True
629.574	1.45	Win2	0.6866	n/a	Yes	2.774	n/a	5.0	GoodResponse	1	0.01	628.584	9	66	Feedback	Win	True
631.024	2.774	Win2	0.6866	n/a	Yes	2.774	n/a	n/a	GoodResponse	1	0.0	n/a	9	66	ISIslide	Win	True
633.823	0.25	Control	0.6765000000000001	0.0	No	2.727	0.023	n/a	NoResponse	0	n/a	n/a	9	67	Cue	Neutral	True
634.073	3.95	Control	0.6765000000000001	0.0	No	2.727	0.0	n/a	NoResponse	0	n/a	n/a	9	67	Fixation	Neutral	True
638.022	0.41	Control	0.6765000000000001	0.001	No	2.727	-0.001	2.0	NoResponse	0	0.695	637.717	9	67	Target	Neutral	True
638.438	0.29	Control	0.6765000000000001	n/a	No	2.727	n/a	n/a	NoResponse	0	n/a	n/a	9	67	Blank	Neutral	True
638.717	0.3	Control	0.6765000000000001	0.001	No	2.727	-0.001	2.0	NoResponse	0	0.695	n/a	9	67	ButtonPress	Neutral	True
638.721	1.45	Control	0.6765000000000001	n/a	No	2.727	n/a	5.0	NoResponse	0	0.034	637.755	9	67	Feedback	Neutral	True
640.171	2.727	Control	0.6765000000000001	n/a	No	2.727	n/a	n/a	NoResponse	0	0.0	n/a	9	67	ISIslide	Neutral	True
642.92	0.25	Win2	0.6812	0.0	Yes	3.08	0.02	n/a	GoodResponse	1	n/a	n/a	10	68	Cue	Win	True
643.17	4.0	Win2	0.6812	0.0	Yes	3.08	0.0	n/a	GoodResponse	1	n/a	n/a	10	68	Fixation	Win	True
647.168	0.4	Win2	0.6812	0.002	Yes	3.08	-0.002	2.0	GoodResponse	1	0.269	646.437	10	68	Target	Win	True
647.437	0.3	Win2	0.6812	0.002	Yes	3.08	-0.002	2.0	GoodResponse	1	0.269	n/a	10	68	ButtonPress	Win	True
647.568	0.3	Win2	0.6812	n/a	Yes	3.08	n/a	n/a	GoodResponse	1	n/a	n/a	10	68	Blank	Win	True
647.868	1.45	Win2	0.6812	n/a	Yes	3.08	n/a	5.0	GoodResponse	1	0.008	646.876	10	68	Feedback	Win	True
649.318	3.08	Win2	0.6812	n/a	Yes	3.08	n/a	n/a	GoodResponse	1	0.0	n/a	10	68	ISIslide	Win	True
652.417	0.25	Win2	0.6857	0.0	Yes	3.233	0.017	n/a	GoodResponse	1	n/a	n/a	11	69	Cue	Win	True
652.667	3.95	Win2	0.6857	0.0	Yes	3.233	0.0	n/a	GoodResponse	1	n/a	n/a	11	69	Fixation	Win	True
656.615	0.39	Win2	0.6857	0.002	Yes	3.233	-0.002	2.0	GoodResponse	1	0.223	655.838	11	69	Target	Win	True
656.838	0.3	Win2	0.6857	0.002	Yes	3.233	-0.002	2.0	GoodResponse	1	0.223	n/a	11	69	ButtonPress	Win	True
657.015	0.31	Win2	0.6857	n/a	Yes	3.233	n/a	n/a	GoodResponse	1	n/a	n/a	11	69	Blank	Win	True
657.315	1.45	Win2	0.6857	n/a	Yes	3.233	n/a	5.0	GoodResponse	1	0.025	656.34	11	69	Feedback	Win	True
658.764	3.233	Win2	0.6857	n/a	Yes	3.233	n/a	n/a	GoodResponse	1	0.0	n/a	11	69	ISIslide	Win	True
662.03	0.25	Lose2	0.6901	0.0	Yes	3.02	0.03	n/a	GoodResponse	0	n/a	n/a	11	70	Cue	AvoidedLoss	True
662.28	4.05	Lose2	0.6901	0.0	Yes	3.02	0.0	n/a	GoodResponse	0	n/a	n/a	11	70	Fixation	AvoidedLoss	True
666.328	0.38	Lose2	0.6901	0.002	Yes	3.02	-0.002	2.0	GoodResponse	0	0.268	665.596	11	70	Target	AvoidedLoss	True
666.596	0.3	Lose2	0.6901	0.002	Yes	3.02	-0.002	2.0	GoodResponse	0	0.268	n/a	11	70	ButtonPress	AvoidedLoss	True
666.712	0.32	Lose2	0.6901	n/a	Yes	3.02	n/a	n/a	GoodResponse	0	n/a	n/a	11	70	Blank	AvoidedLoss	True
667.028	1.45	Lose2	0.6901	n/a	Yes	3.02	n/a	5.0	GoodResponse	0	0.019	666.047	11	70	Feedback	AvoidedLoss	True
668.478	3.02	Lose2	0.6901	n/a	Yes	3.02	n/a	n/a	GoodResponse	0	0.0	n/a	11	70	ISIslide	AvoidedLoss	True
671.527	0.25	Win2	0.6944	0.0	Yes	2.723	0.027	n/a	GoodResponse	1	n/a	n/a	12	71	Cue	Win	True
671.777	4.05	Win2	0.6944	0.0	Yes	2.723	0.0	n/a	GoodResponse	1	n/a	n/a	12	71	Fixation	Win	True
675.825	0.37	Win2	0.6944	0.002	Yes	2.723	-0.002	2.0	GoodResponse	1	0.223	675.048	12	71	Target	Win	True
676.048	0.3	Win2	0.6944	0.002	Yes	2.723	-0.002	2.0	GoodResponse	1	0.223	n/a	12	71	ButtonPress	Win	True
676.208	0.33	Win2	0.6944	n/a	Yes	2.723	n/a	n/a	GoodResponse	1	n/a	n/a	12	71	Blank	Win	True
676.525	1.45	Win2	0.6944	n/a	Yes	2.723	n/a	5.0	GoodResponse	1	0.035	675.56	12	71	Feedback	Win	True
677.975	2.723	Win2	0.6944	n/a	Yes	2.723	n/a	n/a	GoodResponse	1	0.0	n/a	12	71	ISIslide	Win	True
680.724	0.25	Win2	0.6986	0.0	Yes	2.776	0.024	n/a	GoodResponse	1	n/a	n/a	13	72	Cue	Win	True
680.973	4.1	Win2	0.6986	0.001	Yes	2.776	-0.001	n/a	GoodResponse	1	n/a	n/a	13	72	Fixation	Win	True
685.072	0.36	Win2	0.6986	0.002	Yes	2.776	-0.002	2.0	GoodResponse	1	0.212	684.284	13	72	Target	Win	True
685.284	0.3	Win2	0.6986	0.002	Yes	2.776	-0.002	2.0	GoodResponse	1	0.212	n/a	13	72	ButtonPress	Win	True
685.439	0.34	Win2	0.6986	n/a	Yes	2.776	n/a	n/a	GoodResponse	1	n/a	n/a	13	72	Blank	Win	True
685.772	1.45	Win2	0.6986	n/a	Yes	2.776	n/a	5.0	GoodResponse	1	0.008	684.78	13	72	Feedback	Win	True
687.221	2.776	Win2	0.6986	n/a	Yes	2.776	n/a	n/a	GoodResponse	1	0.0	n/a	13	72	ISIslide	Win	True
690.02	0.25	Win2	0.7027	0.0	Yes	2.68	0.02	n/a	GoodResponse	1	n/a	n/a	14	73	Cue	Win	True
690.27	4.0	Win2	0.7027	0.0	Yes	2.68	0.0	n/a	GoodResponse	1	n/a	n/a	14	73	Fixation	Win	True
694.269	0.35	Win2	0.7027	0.001	Yes	2.68	-0.001	2.0	GoodResponse	1	0.261	693.53	14	73	Target	Win	True
694.53	0.3	Win2	0.7027	0.001	Yes	2.68	-0.001	2.0	GoodResponse	1	0.261	n/a	14	73	ButtonPress	Win	True
694.619	0.35	Win2	0.7027	n/a	Yes	2.68	n/a	n/a	GoodResponse	1	n/a	n/a	14	73	Blank	Win	True
694.969	1.45	Win2	0.7027	n/a	Yes	2.68	n/a	5.0	GoodResponse	1	0.03	693.999	14	73	Feedback	Win	True
696.418	2.68	Win2	0.7027	n/a	Yes	2.68	n/a	n/a	GoodResponse	1	0.0	n/a	14	73	ISIslide	Win	True
699.117	0.25	Lose2	0.7067	0.0	Yes	2.633	0.017	n/a	GoodResponse	0	n/a	n/a	14	74	Cue	AvoidedLoss	True
699.367	4.05	Lose2	0.7067	0.0	Yes	2.633	0.0	n/a	GoodResponse	0	n/a	n/a	14	74	Fixation	AvoidedLoss	True
703.416	0.34	Lose2	0.7067	0.001	Yes	2.633	-0.001	2.0	GoodResponse	0	0.214	702.63	14	74	Target	AvoidedLoss	True
703.63	0.3	Lose2	0.7067	0.001	Yes	2.633	-0.001	2.0	GoodResponse	0	0.214	n/a	14	74	ButtonPress	AvoidedLoss	True
703.766	0.36	Lose2	0.7067	n/a	Yes	2.633	n/a	n/a	GoodResponse	0	n/a	n/a	14	74	Blank	AvoidedLoss	True
704.116	1.45	Lose2	0.7067	n/a	Yes	2.633	n/a	5.0	GoodResponse	0	0.006	703.122	14	74	Feedback	AvoidedLoss	True
705.565	2.633	Lose2	0.7067	n/a	Yes	2.633	n/a	n/a	GoodResponse	0	0.0	n/a	14	74	ISIslide	AvoidedLoss	True
708.214	0.25	Lose2	0.7105	0.0	Yes	2.936	0.014	n/a	GoodResponse	0	n/a	n/a	14	75	Cue	AvoidedLoss	True
708.464	3.95	Lose2	0.7105	0.0	Yes	2.936	0.0	n/a	GoodResponse	0	n/a	n/a	14	75	Fixation	AvoidedLoss	True
712.413	0.33	Lose2	0.7105	0.001	Yes	2.936	-0.001	2.0	GoodResponse	0	0.226	711.639	14	75	Target	AvoidedLoss	True
712.639	0.3	Lose2	0.7105	0.001	Yes	2.936	-0.001	2.0	GoodResponse	0	0.226	n/a	14	75	ButtonPress	AvoidedLoss	True
712.746	0.37	Lose2	0.7105	n/a	Yes	2.936	n/a	n/a	GoodResponse	0	n/a	n/a	14	75	Blank	AvoidedLoss	True
713.112	1.45	Lose2	0.7105	n/a	Yes	2.936	n/a	5.0	GoodResponse	0	0.034	712.146	14	75	Feedback	AvoidedLoss	True
714.562	2.936	Lose2	0.7105	n/a	Yes	2.936	n/a	n/a	GoodResponse	0	0.0	n/a	14	75	ISIslide	AvoidedLoss	True
717.528	0.25	Control	0.7143	0.0	Yes	3.222	0.028	n/a	GoodResponse	0	n/a	n/a	14	76	Cue	Neutral	True
717.778	4.05	Control	0.7143	0.0	Yes	3.222	0.0	n/a	GoodResponse	0	n/a	n/a	14	76	Fixation	Neutral	True
721.826	0.32	Control	0.7143	0.002	Yes	3.222	-0.002	2.0	GoodResponse	0	0.3	721.126	14	76	Target	Neutral	True
722.126	0.3	Control	0.7143	0.002	Yes	3.222	-0.002	2.0	GoodResponse	0	0.3	n/a	14	76	ButtonPress	Neutral	True
722.159	0.38	Control	0.7143	n/a	Yes	3.222	n/a	n/a	GoodResponse	0	n/a	n/a	14	76	Blank	Neutral	True
722.526	1.45	Control	0.7143	n/a	Yes	3.222	n/a	5.0	GoodResponse	0	0.033	721.559	14	76	Feedback	Neutral	True
723.975	3.222	Control	0.7143	n/a	Yes	3.222	n/a	n/a	GoodResponse	0	0.0	n/a	14	76	ISIslide	Neutral	True
727.224	0.25	Lose2	0.7179000000000001	0.0	Yes	2.576	0.024	n/a	GoodResponse	0	n/a	n/a	14	77	Cue	AvoidedLoss	True
727.474	3.95	Lose2	0.7179000000000001	0.0	Yes	2.576	0.0	n/a	GoodResponse	0	n/a	n/a	14	77	Fixation	AvoidedLoss	True
731.423	0.31	Lose2	0.7179000000000001	0.001	Yes	2.576	-0.001	2.0	GoodResponse	0	0.218	730.641	14	77	Target	AvoidedLoss	True
731.641	0.3	Lose2	0.7179000000000001	0.001	Yes	2.576	-0.001	2.0	GoodResponse	0	0.218	n/a	14	77	ButtonPress	AvoidedLoss	True
731.739	0.39	Lose2	0.7179000000000001	n/a	Yes	2.576	n/a	n/a	GoodResponse	0	n/a	n/a	14	77	Blank	AvoidedLoss	True
732.123	1.45	Lose2	0.7179000000000001	n/a	Yes	2.576	n/a	5.0	GoodResponse	0	0.046	731.169	14	77	Feedback	AvoidedLoss	True
733.572	2.576	Lose2	0.7179000000000001	n/a	Yes	2.576	n/a	n/a	GoodResponse	0	0.0	n/a	14	77	ISIslide	AvoidedLoss	True
