onset	duration	cue_type	current_mean_accuracy	duration_error	is_hit	isi_adjusted	onset_delay	response	response_type	reward	rt	rt_time	total_reward	trial_number	trial_phase	trial_type	one_press
11.105	0.25	Control	0.0	0.0	No	2.945	0.005	n/a	NoResponse	0	n/a	n/a	0	0	Cue	Neutral	False
11.355	3.85	Control	0.0	0.0	No	2.945	0.0	n/a	NoResponse	0	n/a	n/a	0	0	Fixation	Neutral	False
15.203	0.4	Control	0.0	0.002	No	2.945	-0.002	n/a	NoResponse	0	n/a	n/a	0	0	Target	Neutral	False
15.603	0.3	Control	0.0	n/a	No	2.945	n/a	n/a	NoResponse	0	n/a	n/a	0	0	Blank	Neutral	False
15.903	1.45	Control	0.0	n/a	No	2.945	n/a	5.0	NoResponse	0	0.024	14.927	0	0	Feedback	Neutral	False
17.353	2.945	Control	0.0	n/a	No	2.945	n/a	n/a	NoResponse	0	0.0	n/a	0	0	ISIslide	Neutral	False
20.318	0.25	Lose2	0.5	0.0	Yes	2.782	0.018	n/a	GoodResponse	0	n/a	n/a	0	1	Cue	AvoidedLoss	True
20.568	4.0	Lose2	0.5	0.0	Yes	2.782	0.0	n/a	GoodResponse	0	n/a	n/a	0	1	Fixation	AvoidedLoss	True
24.567	0.41	Lose2	0.5	0.001	Yes	2.782	-0.001	4.0	GoodResponse	0	0.228	23.795	0	1	Target	AvoidedLoss	True
24.795	0.3	Lose2	0.5	0.001	Yes	2.782	-0.001	4.0	GoodResponse	0	0.228	n/a	0	1	ButtonPress	AvoidedLoss	True
24.983	0.29	Lose2	0.5	n/a	Yes	2.782	n/a	n/a	GoodResponse	0	n/a	n/a	0	1	Blank	AvoidedLoss	True
25.267	1.45	Lose2	0.5	n/a	Yes	2.782	n/a	5.0	GoodResponse	0	0.026	24.293	0	1	Feedback	AvoidedLoss	True
26.716	2.782	Lose2	0.5	n/a	Yes	2.782	n/a	n/a	GoodResponse	0	0.0	n/a	0	1	ISIslide	AvoidedLoss	True
29.515	0.25	Control	0.3333	0.0	No	2.585	0.015	n/a	NoResponse	0	n/a	n/a	0	2	Cue	Neutral	False
29.765	4.1	Control	0.3333	0.0	No	2.585	0.0	n/a	NoResponse	0	n/a	n/a	0	2	Fixation	Neutral	False
33.864	0.42	Control	0.3333	0.001	No	2.585	-0.001	n/a	NoResponse	0	n/a	n/a	0	2	Target	Neutral	False
34.297	0.28	Control	0.3333	n/a	No	2.585	n/a	n/a	NoResponse	0	n/a	n/a	0	2	Blank	Neutral	False
34.563	1.45	Control	0.3333	n/a	No	2.585	n/a	5.0	NoResponse	0	0.046	33.609	0	2	Feedback	Neutral	False
36.013	2.585	Control	0.3333	n/a	No	2.585	n/a	n/a	NoResponse	0	0.0	n/a	0	2	ISIslide	Neutral	False
38.629	0.25	Win2	0.5	0.0	Yes	2.821	0.029	n/a	GoodResponse	1	n/a	n/a	1	3	Cue	Win	True
38.879	3.95	Win2	0.5	0.0	Yes	2.821	0.0	n/a	GoodResponse	1	n/a	n/a	1	3	Fixation	Win	True
42.827	0.43	Win2	0.5	0.002	Yes	2.821	-0.002	4.0	GoodResponse	1	0.331	42.158	1	3	Target	Win	True
43.158	0.3	Win2	0.5	0.002	Yes	2.821	-0.002	4.0	GoodResponse	1	0.331	n/a	1	3	ButtonPress	Win	True
43.26	0.27	Win2	0.5	n/a	Yes	2.821	n/a	n/a	GoodResponse	1	n/a	n/a	1	3	Blank	Win	True
43.527	1.45	Win2	0.5	n/a	Yes	2.821	n/a	5.0	GoodResponse	1	0.009	42.536	1	3	Feedback	Win	True
44.977	2.821	Win2	0.5	n/a	Yes	2.821	n/a	n/a	GoodResponse	1	0.0	n/a	1	3	ISIslide	Win	True
47.826	0.25	Win2	0.6	0.0	Yes	3.274	0.026	n/a	GoodResponse	1	n/a	n/a	2	4	Cue	Win	False
48.075	4.0	Win2	0.6	0.001	Yes	3.274	-0.001	4.0	GoodResponse	1	0.277	47.352	2	4	Fixation	Win	False
48.352	0.3	Win2	0.6	0.001	Yes	3.274	-0.001	4.0	GoodResponse	1	0.277	n/a	2	4	ButtonPress	Win	False
52.074	0.44	Win2	0.6	0.002	Yes	3.274	-0.002	4.0	GoodResponse	1	0.239	51.313	2	4	Target	Win	False
52.313	0.3	Win2	0.6	0.002	Yes	3.274	-0.002	4.0	GoodResponse	1	0.239	n/a	2	4	ButtonPress	Win	False
52.524	0.26	Win2	0.6	n/a	Yes	3.274	n/a	n/a	GoodResponse	1	n/a	n/a	2	4	Blank	Win	False
52.774	1.45	Win2	0.6	n/a	Yes	3.274	n/a	5.0	GoodResponse	1	0.03	51.804	2	4	Feedback	Win	False
54.223	3.274	Win2	0.6	n/a	Yes	3.274	n/a	n/a	GoodResponse	1	0.0	n/a	2	4	ISIslide	Win	False
57.522	0.25	Win2	0.6667000000000001	0.0	Yes	2.778	0.022	n/a	GoodResponse	1	n/a	n/a	3	5	Cue	Win	True
57.772	4.0	Win2	0.6667000000000001	0.0	Yes	2.778	0.0	n/a	GoodResponse	1	n/a	n/a	3	5	Fixation	Win	True
61.771	0.45	Win2	0.6667000000000001	0.001	Yes	2.778	-0.001	4.0	GoodResponse	1	0.272	61.043	3	5	Target	Win	True
62.043	0.3	Win2	0.6667000000000001	0.001	Yes	2.778	-0.001	4.0	GoodResponse	1	0.272	n/a	3	5	ButtonPress	Win	True
62.221	0.25	Win2	0.6667000000000001	n/a	Yes	2.778	n/a	n/a	GoodResponse	1	n/a	n/a	3	5	Blank	Win	True
62.471	1.45	Win2	0.6667000000000001	n/a	Yes	2.778	n/a	5.0	GoodResponse	1	0.041	61.512	3	5	Feedback	Win	True
63.92	2.778	Win2	0.6667000000000001	n/a	Yes	2.778	n/a	n/a	GoodResponse	1	0.0	n/a	3	5	ISIslide	Win	True
66.719	0.25	Lose2	0.7143	0.0	Yes	2.731	0.019	n/a	GoodResponse	0	n/a	n/a	3	6	Cue	AvoidedLoss	True
66.969	3.95	Lose2	0.7143	0.0	Yes	2.731	0.0	n/a	GoodResponse	0	n/a	n/a	3	6	Fixation	AvoidedLoss	True
70.918	0.44	Lose2	0.7143	0.001	Yes	2.731	-0.001	4.0	GoodResponse	0	0.317	70.235	3	6	Target	AvoidedLoss	True
71.235	0.3	Lose2	0.7143	0.001	Yes	2.731	-0.001	4.0	GoodResponse	0	0.317	n/a	3	6	ButtonPress	AvoidedLoss	True
71.367	0.26	Lose2	0.7143	n/a	Yes	2.731	n/a	n/a	GoodResponse	0	n/a	n/a	3	6	Blank	AvoidedLoss	True
71.617	1.45	Lose2	0.7143	n/a	Yes	2.731	n/a	5.0	GoodResponse	0	0.017	70.634	3	6	Feedback	AvoidedLoss	True
73.067	2.731	Lose2	0.7143	n/a	Yes	2.731	n/a	n/a	GoodResponse	0	0.0	n/a	3	6	ISIslide	AvoidedLoss	True
75.816	0.25	Lose2	0.75	0.0	Yes	4.034	0.016	n/a	GoodResponse	0	n/a	n/a	3	7	Cue	AvoidedLoss	True
76.066	4.05	Lose2	0.75	0.0	Yes	4.034	0.0	n/a	GoodResponse	0	n/a	n/a	3	7	Fixation	AvoidedLoss	True
80.114	0.43	Lose2	0.75	0.002	Yes	4.034	-0.002	4.0	GoodResponse	0	0.323	79.437	3	7	Target	AvoidedLoss	True
80.437	0.3	Lose2	0.75	0.002	Yes	4.034	-0.002	4.0	GoodResponse	0	0.323	n/a	3	7	ButtonPress	AvoidedLoss	True
80.548	0.27	Lose2	0.75	n/a	Yes	4.034	n/a	n/a	GoodResponse	0	n/a	n/a	3	7	Blank	AvoidedLoss	True
80.814	1.45	Lose2	0.75	n/a	Yes	4.034	n/a	5.0	GoodResponse	0	0.04	79.854	3	7	Feedback	AvoidedLoss	True
82.264	4.034	Lose2	0.75	n/a	Yes	4.034	n/a	n/a	GoodResponse	0	0.0	n/a	3	7	ISIslide	AvoidedLoss	True
86.329	0.25	Lose2	0.7778	0.0	Yes	3.021	0.029	n/a	GoodResponse	0	n/a	n/a	3	8	Cue	AvoidedLoss	True
86.579	3.95	Lose2	0.7778	0.0	Yes	3.021	0.0	n/a	GoodResponse	0	n/a	n/a	3	8	Fixation	AvoidedLoss	True
90.528	0.42	Lose2	0.7778	0.001	Yes	3.021	-0.001	4.0	GoodResponse	0	0.294	89.822	3	8	Target	AvoidedLoss	True
90.822	0.3	Lose2	0.7778	0.001	Yes	3.021	-0.001	4.0	GoodResponse	0	0.294	n/a	3	8	ButtonPress	AvoidedLoss	True
90.961	0.28	Lose2	0.7778	n/a	Yes	3.021	n/a	n/a	GoodResponse	0	n/a	n/a	3	8	Blank	AvoidedLoss	True
91.227	1.45	Lose2	0.7778	n/a	Yes	3.021	n/a	5.0	GoodResponse	0	0.017	90.244	3	8	Feedback	AvoidedLoss	True
92.677	3.021	Lose2	0.7778	n/a	Yes	3.021	n/a	n/a	GoodResponse	0	0.0	n/a	3	8	ISIslide	AvoidedLoss	True
95.726	0.25	Lose2	0.8	0.0	Yes	3.124	0.026	n/a	GoodResponse	0	n/a	n/a	3	9	Cue	AvoidedLoss	True
95.976	3.95	Lose2	0.8	0.0	Yes	3.124	0.0	n/a	GoodResponse	0	n/a	n/a	3	9	Fixation	AvoidedLoss	True
99.924	0.41	Lose2	0.8	0.002	Yes	3.124	-0.002	4.0	GoodResponse	0	0.295	99.219	3	9	Target	AvoidedLoss	True
100.219	0.3	Lose2	0.8	0.002	Yes	3.124	-0.002	4.0	GoodResponse	0	0.295	n/a	3	9	ButtonPress	AvoidedLoss	True
100.341	0.29	Lose2	0.8	n/a	Yes	3.124	n/a	n/a	GoodResponse	0	n/a	n/a	3	9	Blank	AvoidedLoss	True
100.624	1.45	Lose2	0.8	n/a	Yes	3.124	n/a	5.0	GoodResponse	0	0.035	99.659	3	9	Feedback	AvoidedLoss	True
102.074	3.124	Lose2	0.8	n/a	Yes	3.124	n/a	n/a	GoodResponse	0	0.0	n/a	3	9	ISIslide	AvoidedLoss	True
105.223	0.25	Control	0.7273000000000001	0.0	No	3.277	0.023	n/a	NoResponse	0	n/a	n/a	3	10	Cue	Neutral	False
105.472	4.0	Control	0.7273000000000001	0.001	No	3.277	-0.001	n/a	NoResponse	0	n/a	n/a	3	10	Fixation	Neutral	False
109.471	0.4	Control	0.7273000000000001	0.002	No	3.277	-0.002	n/a	NoResponse	0	n/a	n/a	3	10	Target	Neutral	False
109.871	0.3	Control	0.7273000000000001	n/a	No	3.277	n/a	n/a	NoResponse	0	n/a	n/a	3	10	Blank	Neutral	False
110.171	1.45	Control	0.7273000000000001	n/a	No	3.277	n/a	5.0	NoResponse	0	0.048	109.219	3	10	Feedback	Neutral	False
111.62	3.277	Control	0.7273000000000001	n/a	No	3.277	n/a	n/a	NoResponse	0	0.0	n/a	3	10	ISIslide	Neutral	False
114.919	0.25	Lose2	0.75	0.0	Yes	2.731	0.019	n/a	GoodResponse	0	n/a	n/a	3	11	Cue	AvoidedLoss	True
115.169	4.05	Lose2	0.75	0.0	Yes	2.731	0.0	n/a	GoodResponse	0	n/a	n/a	3	11	Fixation	AvoidedLoss	True
119.218	0.39	Lose2	0.75	0.001	Yes	2.731	-0.001	4.0	GoodResponse	0	0.237	118.455	3	11	Target	AvoidedLoss	True
119.455	0.3	Lose2	0.75	0.001	Yes	2.731	-0.001	4.0	GoodResponse	0	0.237	n/a	3	11	ButtonPress	AvoidedLoss	True
119.618	0.31	Lose2	0.75	n/a	Yes	2.731	n/a	n/a	GoodResponse	0	n/a	n/a	3	11	Blank	AvoidedLoss	True
119.918	1.45	Lose2	0.75	n/a	Yes	2.731	n/a	5.0	GoodResponse	0	0.008	118.926	3	11	Feedback	AvoidedLoss	True
121.367	2.731	Lose2	0.75	n/a	Yes	2.731	n/a	n/a	GoodResponse	0	0.0	n/a	3	11	ISIslide	AvoidedLoss	True
124.116	0.25	Control	0.6923	0.0	No	2.984	0.016	n/a	NoResponse	0	n/a	n/a	3	12	Cue	Neutral	False
124.366	3.9	Control	0.6923	0.0	No	2.984	0.0	n/a	NoResponse	0	n/a	n/a	3	12	Fixation	Neutral	False
128.265	0.38	Control	0.6923	0.001	No	2.984	-0.001	n/a	NoResponse	0	n/a	n/a	3	12	Target	Neutral	False
128.648	0.32	Control	0.6923	n/a	No	2.984	n/a	n/a	NoResponse	0	n/a	n/a	3	12	Blank	Neutral	False
128.964	1.45	Control	0.6923	n/a	No	2.984	n/a	5.0	NoResponse	0	0.036	128.0	3	12	Feedback	Neutral	False
130.414	2.984	Control	0.6923	n/a	No	2.984	n/a	n/a	NoResponse	0	0.0	n/a	3	12	ISIslide	Neutral	False
133.413	0.25	Control	0.6429	0.0	No	2.787	0.013	n/a	NoResponse	0	n/a	n/a	3	13	Cue	Neutral	False
133.663	4.0	Control	0.6429	0.0	No	2.787	0.0	n/a	NoResponse	0	n/a	n/a	3	13	Fixation	Neutral	False
137.661	0.37	Control	0.6429	0.002	No	2.787	-0.002	n/a	NoResponse	0	n/a	n/a	3	13	Target	Neutral	False
138.045	0.33	Control	0.6429	n/a	No	2.787	n/a	n/a	NoResponse	0	n/a	n/a	3	13	Blank	Neutral	False
138.361	1.45	Control	0.6429	n/a	No	2.787	n/a	5.0	NoResponse	0	0.007	137.368	3	13	Feedback	Neutral	False
139.811	2.787	Control	0.6429	n/a	No	2.787	n/a	n/a	NoResponse	0	0.0	n/a	3	13	ISIslide	Neutral	False
142.626	0.25	Win2	0.6667000000000001	0.0	Yes	2.674	0.026	n/a	GoodResponse	1	n/a	n/a	4	14	Cue	Win	True
142.876	4.1	Win2	0.6667000000000001	0.0	Yes	2.674	0.0	n/a	GoodResponse	1	n/a	n/a	4	14	Fixation	Win	True
146.975	0.38	Win2	0.6667000000000001	0.001	Yes	2.674	-0.001	4.0	GoodResponse	1	0.251	146.226	4	14	Target	Win	True
147.226	0.3	Win2	0.6667000000000001	0.001	Yes	2.674	-0.001	4.0	GoodResponse	1	0.251	n/a	4	14	ButtonPress	Win	True
147.358	0.32	Win2	0.6667000000000001	n/a	Yes	2.674	n/a	n/a	GoodResponse	1	n/a	n/a	4	14	Blank	Win	True
147.675	1.45	Win2	0.6667000000000001	n/a	Yes	2.674	n/a	5.0	GoodResponse	1	0.008	146.683	4	14	Feedback	Win	True
149.124	2.674	Win2	0.6667000000000001	n/a	Yes	2.674	n/a	n/a	GoodResponse	1	0.0	n/a	4	14	ISIslide	Win	True
151.823	0.25	Control	0.625	0.0	No	2.977	0.023	n/a	NoResponse	0	n/a	n/a	4	15	Cue	Neutral	False
152.073	4.0	Control	0.625	0.0	No	2.977	0.0	n/a	NoResponse	0	n/a	n/a	4	15	Fixation	Neutral	False
156.072	0.37	Control	0.625	0.001	No	2.977	-0.001	n/a	NoResponse	0	n/a	n/a	4	15	Target	Neutral	False
156.455	0.33	Control	0.625	n/a	No	2.977	n/a	n/a	NoResponse	0	n/a	n/a	4	15	Blank	Neutral	False
156.772	1.45	Control	0.625	n/a	No	2.977	n/a	5.0	NoResponse	0	0.033	155.805	4	15	Feedback	Neutral	False
158.221	2.977	Control	0.625	n/a	No	2.977	n/a	n/a	NoResponse	0	0.0	n/a	4	15	ISIslide	Neutral	False
161.22	0.25	Win2	0.6470999999999999	0.0	Yes	2.88	0.02	n/a	GoodResponse	1	n/a	n/a	5	16	Cue	Win	True
161.47	4.0	Win2	0.6470999999999999	0.0	Yes	2.88	0.0	n/a	GoodResponse	1	n/a	n/a	5	16	Fixation	Win	True
165.469	0.38	Win2	0.6470999999999999	0.001	Yes	2.88	-0.001	4.0	GoodResponse	1	0.225	164.694	5	16	Target	Win	True
165.694	0.3	Win2	0.6470999999999999	0.001	Yes	2.88	-0.001	4.0	GoodResponse	1	0.225	n/a	5	16	ButtonPress	Win	True
165.852	0.32	Win2	0.6470999999999999	n/a	Yes	2.88	n/a	n/a	GoodResponse	1	n/a	n/a	5	16	Blank	Win	True
166.168	1.45	Win2	0.6470999999999999	n/a	Yes	2.88	n/a	5.0	GoodResponse	1	0.007	165.175	5	16	Feedback	Win	True
167.618	2.88	Win2	0.6470999999999999	n/a	Yes	2.88	n/a	n/a	GoodResponse	1	0.0	n/a	5	16	ISIslide	Win	True
170.517	0.25	Lose2	0.6667000000000001	0.0	Yes	2.733	0.017	n/a	GoodResponse	0	n/a	n/a	5	17	Cue	AvoidedLoss	True
170.767	3.95	Lose2	0.6667000000000001	0.0	Yes	2.733	0.0	n/a	GoodResponse	0	n/a	n/a	5	17	Fixation	AvoidedLoss	True
174.715	0.39	Lose2	0.6667000000000001	0.002	Yes	2.733	-0.002	4.0	GoodResponse	0	0.303	174.018	5	17	Target	AvoidedLoss	True
175.018	0.3	Lose2	0.6667000000000001	0.002	Yes	2.733	-0.002	4.0	GoodResponse	0	0.303	n/a	5	17	ButtonPress	AvoidedLoss	True
175.115	0.31	Lose2	0.6667000000000001	n/a	Yes	2.733	n/a	n/a	GoodResponse	0	n/a	n/a	5	17	Blank	AvoidedLoss	True
175.415	1.45	Lose2	0.6667000000000001	n/a	Yes	2.733	n/a	5.0	GoodResponse	0	0.024	174.439	5	17	Feedback	AvoidedLoss	True
176.865	2.733	Lose2	0.6667000000000001	n/a	Yes	2.733	n/a	n/a	GoodResponse	0	0.0	n/a	5	17	ISIslide	AvoidedLoss	True
179.614	0.25	Lose2	0.6842	0.0	Yes	2.736	0.014	n/a	GoodResponse	0	n/a	n/a	5	18	Cue	AvoidedLoss	True
179.864	4.05	Lose2	0.6842	0.0	Yes	2.736	0.0	n/a	GoodResponse	0	n/a	n/a	5	18	Fixation	AvoidedLoss	True
183.912	0.38	Lose2	0.6842	0.002	Yes	2.736	-0.002	4.0	GoodResponse	0	0.254	183.166	5	18	Target	AvoidedLoss	True
184.166	0.3	Lose2	0.6842	0.002	Yes	2.736	-0.002	4.0	GoodResponse	0	0.254	n/a	5	18	ButtonPress	AvoidedLoss	True
184.295	0.32	Lose2	0.6842	n/a	Yes	2.736	n/a	n/a	GoodResponse	0	n/a	n/a	5	18	Blank	AvoidedLoss	True
184.612	1.45	Lose2	0.6842	n/a	Yes	2.736	n/a	5.0	GoodResponse	0	0.046	183.658	5	18	Feedback	AvoidedLoss	True
186.062	2.736	Lose2	0.6842	n/a	Yes	2.736	n/a	n/a	GoodResponse	0	0.0	n/a	5	18	ISIslide	AvoidedLoss	True
188.827	0.25	Control	0.65	0.0	No	2.923	0.027	n/a	NoResponse	0	n/a	n/a	5	19	Cue	Neutral	False
189.077	3.95	Control	0.65	0.0	No	2.923	0.0	n/a	NoResponse	0	n/a	n/a	5	19	Fixation	Neutral	False
193.026	0.37	Control	0.65	0.001	No	2.923	-0.001	n/a	NoResponse	0	n/a	n/a	5	19	Target	Neutral	False
193.392	0.33	Control	0.65	n/a	No	2.923	n/a	n/a	NoResponse	0	n/a	n/a	5	19	Blank	Neutral	False
193.726	1.45	Control	0.65	n/a	No	2.923	n/a	5.0	NoResponse	0	0.006	192.732	5	19	Feedback	Neutral	False
195.175	2.923	Control	0.65	n/a	No	2.923	n/a	n/a	NoResponse	0	0.0	n/a	5	19	ISIslide	Neutral	False
198.124	0.25	Control	0.619	0.0	No	2.626	0.024	n/a	NoResponse	0	n/a	n/a	5	20	Cue	Neutral	False
198.374	4.05	Control	0.619	0.0	No	2.626	0.0	n/a	NoResponse	0	n/a	n/a	5	20	Fixation	Neutral	False
202.423	0.38	Control	0.619	0.001	No	2.626	-0.001	n/a	NoResponse	0	n/a	n/a	5	20	Target	Neutral	False
202.806	0.32	Control	0.619	n/a	No	2.626	n/a	n/a	NoResponse	0	n/a	n/a	5	20	Blank	Neutral	False
203.122	1.45	Control	0.619	n/a	No	2.626	n/a	5.0	NoResponse	0	0.024	202.146	5	20	Feedback	Neutral	False
204.572	2.626	Control	0.619	n/a	No	2.626	n/a	n/a	NoResponse	0	0.0	n/a	5	20	ISIslide	Neutral	False
207.221	0.25	Control	0.5909	0.0	No	2.779	0.021	n/a	NoResponse	0	n/a	n/a	5	21	Cue	Neutral	False
207.471	4.1	Control	0.5909	0.0	No	2.779	0.0	n/a	NoResponse	0	n/a	n/a	5	21	Fixation	Neutral	False
211.569	0.39	Control	0.5909	0.002	No	2.779	-0.002	n/a	NoResponse	0	n/a	n/a	5	21	Target	Neutral	False
211.969	0.31	Control	0.5909	n/a	No	2.779	n/a	n/a	NoResponse	0	n/a	n/a	5	21	Blank	Neutral	False
212.269	1.45	Control	0.5909	n/a	No	2.779	n/a	5.0	NoResponse	0	0.048	211.317	5	21	Feedback	Neutral	False
213.719	2.779	Control	0.5909	n/a	No	2.779	n/a	n/a	NoResponse	0	0.0	n/a	5	21	ISIslide	Neutral	False
216.518	0.25	Control	0.5652	0.0	No	2.782	0.018	n/a	NoResponse	0	n/a	n/a	5	22	Cue	Neutral	False
216.768	4.0	Control	0.5652	0.0	No	2.782	0.0	n/a	NoResponse	0	n/a	n/a	5	22	Fixation	Neutral	False
220.766	0.4	Control	0.5652	0.002	No	2.782	-0.002	n/a	NoResponse	0	n/a	n/a	5	22	Target	Neutral	False
221.166	0.3	Control	0.5652	n/a	No	2.782	n/a	n/a	NoResponse	0	n/a	n/a	5	22	Blank	Neutral	False
221.466	1.45	Control	0.5652	n/a	No	2.782	n/a	5.0	NoResponse	0	0.022	220.488	5	22	Feedback	Neutral	False
222.916	2.782	Control	0.5652	n/a	No	2.782	n/a	n/a	NoResponse	0	0.0	n/a	5	22	ISIslide	Neutral	False
225.715	0.25	Control	0.5417000000000001	0.0	No	2.785	0.015	n/a	NoResponse	0	n/a	n/a	5	23	Cue	Neutral	False
225.965	3.9	Control	0.5417000000000001	0.0	No	2.785	0.0	n/a	NoResponse	0	n/a	n/a	5	23	Fixation	Neutral	False
229.863	0.41	Control	0.5417000000000001	0.002	No	2.785	-0.002	n/a	NoResponse	0	n/a	n/a	5	23	Target	Neutral	False
230.28	0.29	Control	0.5417000000000001	n/a	No	2.785	n/a	n/a	NoResponse	0	n/a	n/a	5	23	Blank	Neutral	False
230.563	1.45	Control	0.5417000000000001	n/a	No	2.785	n/a	5.0	NoResponse	0	0.047	229.61	5	23	Feedback	Neutral	False
232.012	2.785	Control	0.5417000000000001	n/a	No	2.785	n/a	n/a	NoResponse	0	0.0	n/a	5	23	ISIslide	Neutral	False
234.828	0.25	Win2	0.56	0.0	Yes	3.122	0.028	n/a	GoodResponse	1	n/a	n/a	6	24	Cue	Win	True
235.078	3.95	Win2	0.56	0.0	Yes	3.122	0.0	n/a	GoodResponse	1	n/a	n/a	6	24	Fixation	Win	True
239.027	0.42	Win2	0.56	0.001	Yes	3.122	-0.001	4.0	GoodResponse	1	0.239	238.266	6	24	Target	Win	True
239.266	0.3	Win2	0.56	0.001	Yes	3.122	-0.001	4.0	GoodResponse	1	0.239	n/a	6	24	ButtonPress	Win	True
239.46	0.28	Win2	0.56	n/a	Yes	3.122	n/a	n/a	GoodResponse	1	n/a	n/a	6	24	Blank	Win	True
239.727	1.45	Win2	0.56	n/a	Yes	3.122	n/a	5.0	GoodResponse	1	0.005	238.732	6	24	Feedback	Win	True
241.176	3.122	Win2	0.56	n/a	Yes	3.122	n/a	n/a	GoodResponse	1	0.0	n/a	6	24	ISIslide	Win	True
244.325	0.25	Win2	0.5769	0.0	Yes	3.075	0.025	n/a	GoodResponse	1	n/a	n/a	7	25	Cue	Win	True
244.575	4.0	Win2	0.5769	0.0	Yes	3.075	0.0	n/a	GoodResponse	1	n/a	n/a	7	25	Fixation	Win	True
248.573	0.43	Win2	0.5769	0.002	Yes	3.075	-0.002	4.0	GoodResponse	1	0.28	247.853	7	25	Target	Win	True
248.853	0.3	Win2	0.5769	0.002	Yes	3.075	-0.002	4.0	GoodResponse	1	0.28	n/a	7	25	ButtonPress	Win	True
249.007	0.27	Win2	0.5769	n/a	Yes	3.075	n/a	n/a	GoodResponse	1	n/a	n/a	7	25	Blank	Win	True
249.273	1.45	Win2	0.5769	n/a	Yes	3.075	n/a	5.0	GoodResponse	1	0.02	248.293	7	25	Feedback	Win	True
250.723	3.075	Win2	0.5769	n/a	Yes	3.075	n/a	n/a	GoodResponse	1	0.0	n/a	7	25	ISIslide	Win	True
253.822	0.25	Win2	0.5926	0.0	Yes	2.928	0.022	n/a	GoodResponse	1	n/a	n/a	8	26	Cue	Win	True
254.072	3.95	Win2	0.5926	0.0	Yes	2.928	0.0	n/a	GoodResponse	1	n/a	n/a	8	26	Fixation	Win	True
258.02	0.44	Win2	0.5926	0.002	Yes	2.928	-0.002	4.0	GoodResponse	1	0.313	257.333	8	26	Target	Win	True
258.333	0.3	Win2	0.5926	0.002	Yes	2.928	-0.002	4.0	GoodResponse	1	0.313	n/a	8	26	ButtonPress	Win	True
258.47	0.26	Win2	0.5926	n/a	Yes	2.928	n/a	n/a	GoodResponse	1	n/a	n/a	8	26	Blank	Win	True
258.72	1.45	Win2	0.5926	n/a	Yes	2.928	n/a	5.0	GoodResponse	1	0.035	257.755	8	26	Feedback	Win	True
260.17	2.928	Win2	0.5926	n/a	Yes	2.928	n/a	n/a	GoodResponse	1	0.0	n/a	8	26	ISIslide	Win	True
263.119	0.25	Lose2	0.6071	0.0	Yes	2.831	0.019	n/a	GoodResponse	0	n/a	n/a	8	27	Cue	AvoidedLoss	True
263.368	4.05	Lose2	0.6071	0.001	Yes	2.831	-0.001	n/a	GoodResponse	0	n/a	n/a	8	27	Fixation	AvoidedLoss	True
267.417	0.45	Lose2	0.6071	0.002	Yes	2.831	-0.002	4.0	GoodResponse	0	0.292	266.709	8	27	Target	AvoidedLoss	True
267.709	0.3	Lose2	0.6071	0.002	Yes	2.831	-0.002	4.0	GoodResponse	0	0.292	n/a	8	27	ButtonPress	AvoidedLoss	True
267.867	0.25	Lose2	0.6071	n/a	Yes	2.831	n/a	n/a	GoodResponse	0	n/a	n/a	8	27	Blank	AvoidedLoss	True
268.117	1.45	Lose2	0.6071	n/a	Yes	2.831	n/a	5.0	GoodResponse	0	0.006	267.123	8	27	Feedback	AvoidedLoss	True
269.566	2.831	Lose2	0.6071	n/a	Yes	2.831	n/a	n/a	GoodResponse	0	0.0	n/a	8	27	ISIslide	AvoidedLoss	True
272.415	0.25	Control	0.5861999999999999	0.0	No	2.835	0.015	n/a	NoResponse	0	n/a	n/a	8	28	Cue	Neutral	False
272.665	4.05	Control	0.5861999999999999	0.0	No	2.835	0.0	n/a	NoResponse	0	n/a	n/a	8	28	Fixation	Neutral	False
276.714	0.46	Control	0.5861999999999999	0.001	No	2.835	-0.001	n/a	NoResponse	0	n/a	n/a	8	28	Target	Neutral	False
277.18	0.24	Control	0.5861999999999999	n/a	No	2.835	n/a	n/a	NoResponse	0	n/a	n/a	8	28	Blank	Neutral	False
277.414	1.45	Control	0.5861999999999999	n/a	No	2.835	n/a	5.0	NoResponse	0	0.024	276.438	8	28	Feedback	Neutral	False
278.863	2.835	Control	0.5861999999999999	n/a	No	2.835	n/a	n/a	NoResponse	0	0.0	n/a	8	28	ISIslide	Neutral	False
281.729	0.25	Lose2	0.6	0.0	Yes	2.821	0.029	n/a	GoodResponse	0	n/a	n/a	8	29	Cue	AvoidedLoss	True
281.979	3.95	Lose2	0.6	0.0	Yes	2.821	0.0	n/a	GoodResponse	0	n/a	n/a	8	29	Fixation	AvoidedLoss	True
285.927	0.47	Lose2	0.6	0.002	Yes	2.821	-0.002	4.0	GoodResponse	0	0.255	285.182	8	29	Target	AvoidedLoss	True
286.182	0.3	Lose2	0.6	0.002	Yes	2.821	-0.002	4.0	GoodResponse	0	0.255	n/a	8	29	ButtonPress	AvoidedLoss	True
286.411	0.23	Lose2	0.6	n/a	Yes	2.821	n/a	n/a	GoodResponse	0	n/a	n/a	8	29	Blank	AvoidedLoss	True
286.627	1.45	Lose2	0.6	n/a	Yes	2.821	n/a	5.0	GoodResponse	0	0.031	285.658	8	29	Feedback	AvoidedLoss	True
288.077	2.821	Lose2	0.6	n/a	Yes	2.821	n/a	n/a	GoodResponse	0	0.0	n/a	8	29	ISIslide	AvoidedLoss	True
290.926	0.25	Win2	0.6129	0.0	Yes	2.774	0.026	n/a	GoodResponse	1	n/a	n/a	9	30	Cue	Win	True
291.176	3.9	Win2	0.6129	0.0	Yes	2.774	0.0	n/a	GoodResponse	1	n/a	n/a	9	30	Fixation	Win	True
295.074	0.48	Win2	0.6129	0.002	Yes	2.774	-0.002	4.0	GoodResponse	1	0.217	294.291	9	30	Target	Win	True
295.291	0.3	Win2	0.6129	0.002	Yes	2.774	-0.002	4.0	GoodResponse	1	0.217	n/a	9	30	ButtonPress	Win	True
295.557	0.22	Win2	0.6129	n/a	Yes	2.774	n/a	n/a	GoodResponse	1	n/a	n/a	9	30	Blank	Win	True
295.774	1.45	Win2	0.6129	n/a	Yes	2.774	n/a	5.0	GoodResponse	1	0.007	294.781	9	30	Feedback	Win	True
297.223	2.774	Win2	0.6129	n/a	Yes	2.774	n/a	n/a	GoodResponse	1	0.0	n/a	9	30	ISIslide	Win	True
300.023	0.25	Lose2	0.625	0.0	Yes	2.827	0.023	n/a	GoodResponse	0	n/a	n/a	9	31	Cue	AvoidedLoss	True
300.272	4.05	Lose2	0.625	0.001	Yes	2.827	-0.001	n/a	GoodResponse	0	n/a	n/a	9	31	Fixation	AvoidedLoss	True
304.321	0.49	Lose2	0.625	0.002	Yes	2.827	-0.002	4.0	GoodResponse	0	0.256	303.577	9	31	Target	AvoidedLoss	True
304.577	0.3	Lose2	0.625	0.002	Yes	2.827	-0.002	4.0	GoodResponse	0	0.256	n/a	9	31	ButtonPress	AvoidedLoss	True
304.821	0.21	Lose2	0.625	n/a	Yes	2.827	n/a	n/a	GoodResponse	0	n/a	n/a	9	31	Blank	AvoidedLoss	True
305.021	1.45	Lose2	0.625	n/a	Yes	2.827	n/a	5.0	GoodResponse	0	0.028	304.049	9	31	Feedback	AvoidedLoss	True
306.47	2.827	Lose2	0.625	n/a	Yes	2.827	n/a	n/a	GoodResponse	0	0.0	n/a	9	31	ISIslide	AvoidedLoss	True
309.319	0.25	Lose2	0.6364	0.0	Yes	2.631	0.019	n/a	GoodResponse	0	n/a	n/a	9	32	Cue	AvoidedLoss	True
309.569	4.15	Lose2	0.6364	0.0	Yes	2.631	0.0	n/a	GoodResponse	0	n/a	n/a	9	32	Fixation	AvoidedLoss	True
313.718	0.5	Lose2	0.6364	0.001	Yes	2.631	-0.001	4.0	GoodResponse	0	0.323	313.041	9	32	Target	AvoidedLoss	True
314.041	0.3	Lose2	0.6364	0.001	Yes	2.631	-0.001	4.0	GoodResponse	0	0.323	n/a	9	32	ButtonPress	AvoidedLoss	True
314.218	0.2	Lose2	0.6364	n/a	Yes	2.631	n/a	n/a	GoodResponse	0	n/a	n/a	9	32	Blank	AvoidedLoss	True
314.418	1.45	Lose2	0.6364	n/a	Yes	2.631	n/a	5.0	GoodResponse	0	0.045	313.463	9	32	Feedback	AvoidedLoss	True
315.867	2.631	Lose2	0.6364	n/a	Yes	2.631	n/a	n/a	GoodResponse	0	0.0	n/a	9	32	ISIslide	AvoidedLoss	True
318.516	0.25	Win2	0.6470999999999999	0.0	Yes	2.684	0.016	n/a	GoodResponse	1	n/a	n/a	10	33	Cue	Win	True
318.766	4.0	Win2	0.6470999999999999	0.0	Yes	2.684	0.0	n/a	GoodResponse	1	n/a	n/a	10	33	Fixation	Win	True
322.765	0.5	Win2	0.6470999999999999	0.001	Yes	2.684	-0.001	4.0	GoodResponse	1	0.258	322.023	10	33	Target	Win	True
323.023	0.3	Win2	0.6470999999999999	0.001	Yes	2.684	-0.001	4.0	GoodResponse	1	0.258	n/a	10	33	ButtonPress	Win	True
323.265	0.2	Win2	0.6470999999999999	n/a	Yes	2.684	n/a	n/a	GoodResponse	1	n/a	n/a	10	33	Blank	Win	True
323.465	1.45	Win2	0.6470999999999999	n/a	Yes	2.684	n/a	5.0	GoodResponse	1	0.023	322.488	10	33	Feedback	Win	True
324.914	2.684	Win2	0.6470999999999999	n/a	Yes	2.684	n/a	n/a	GoodResponse	1	0.0	n/a	10	33	ISIslide	Win	True
327.613	0.25	Lose2	0.6570999999999999	0.0	Yes	2.637	0.013	n/a	GoodResponse	0	n/a	n/a	10	34	Cue	AvoidedLoss	True
327.863	4.05	Lose2	0.6570999999999999	0.0	Yes	2.637	0.0	n/a	GoodResponse	0	n/a	n/a	10	34	Fixation	AvoidedLoss	True
331.912	0.5	Lose2	0.6570999999999999	0.001	Yes	2.637	-0.001	4.0	GoodResponse	0	0.268	331.18	10	34	Target	AvoidedLoss	True
332.18	0.3	Lose2	0.6570999999999999	0.001	Yes	2.637	-0.001	4.0	GoodResponse	0	0.268	n/a	10	34	ButtonPress	AvoidedLoss	True
332.411	0.2	Lose2	0.6570999999999999	n/a	Yes	2.637	n/a	n/a	GoodResponse	0	n/a	n/a	10	34	Blank	AvoidedLoss	True
332.611	1.45	Lose2	0.6570999999999999	n/a	Yes	2.637	n/a	5.0	GoodResponse	0	0.047	331.658	10	34	Feedback	AvoidedLoss	True
334.061	2.637	Lose2	0.6570999999999999	n/a	Yes	2.637	n/a	n/a	GoodResponse	0	0.0	n/a	10	34	ISIslide	AvoidedLoss	True
336.727	0.25	Lose2	0.6667000000000001	0.0	Yes	2.673	0.027	n/a	GoodResponse	0	n/a	n/a	10	35	Cue	AvoidedLoss	True
336.977	4.0	Lose2	0.6667000000000001	0.0	Yes	2.673	0.0	n/a	GoodResponse	0	n/a	n/a	10	35	Fixation	AvoidedLoss	True
340.975	0.5	Lose2	0.6667000000000001	0.002	Yes	2.673	-0.002	4.0	GoodResponse	0	0.269	340.244	10	35	Target	AvoidedLoss	True
341.244	0.3	Lose2	0.6667000000000001	0.002	Yes	2.673	-0.002	4.0	GoodResponse	0	0.269	n/a	10	35	ButtonPress	AvoidedLoss	True
341.475	0.2	Lose2	0.6667000000000001	n/a	Yes	2.673	n/a	n/a	GoodResponse	0	n/a	n/a	10	35	Blank	AvoidedLoss	True
341.675	1.45	Lose2	0.6667000000000001	n/a	Yes	2.673	n/a	5.0	GoodResponse	0	0.007	340.682	10	35	Feedback	AvoidedLoss	True
343.124	2.673	Lose2	0.6667000000000001	n/a	Yes	2.673	n/a	n/a	GoodResponse	0	0.0	n/a	10	35	ISIslide	AvoidedLoss	True
345.824	0.25	Control	0.6486	0.0	No	2.676	0.024	n/a	NoResponse	0	n/a	n/a	10	36	Cue	Neutral	False
346.073	4.0	Control	0.6486	0.001	No	2.676	-0.001	n/a	NoResponse	0	n/a	n/a	10	36	Fixation	Neutral	False
350.072	0.49	Control	0.6486	0.002	No	2.676	-0.002	n/a	NoResponse	0	n/a	n/a	10	36	Target	Neutral	False
350.572	0.21	Control	0.6486	n/a	No	2.676	n/a	n/a	NoResponse	0	n/a	n/a	10	36	Blank	Neutral	False
350.772	1.45	Control	0.6486	n/a	No	2.676	n/a	5.0	NoResponse	0	0.032	349.804	10	36	Feedback	Neutral	False
352.221	2.676	Control	0.6486	n/a	No	2.676	n/a	n/a	NoResponse	0	0.0	n/a	10	36	ISIslide	Neutral	False
354.92	0.25	Win2	0.6579	0.0	Yes	2.88	0.02	n/a	GoodResponse	1	n/a	n/a	11	37	Cue	Win	True
355.17	4.0	Win2	0.6579	0.0	Yes	2.88	0.0	n/a	GoodResponse	1	n/a	n/a	11	37	Fixation	Win	True
359.169	0.5	Win2	0.6579	0.001	Yes	2.88	-0.001	4.0	GoodResponse	1	0.245	358.414	11	37	Target	Win	True
359.414	0.3	Win2	0.6579	0.001	Yes	2.88	-0.001	4.0	GoodResponse	1	0.245	n/a	11	37	ButtonPress	Win	True
359.669	0.2	Win2	0.6579	n/a	Yes	2.88	n/a	n/a	GoodResponse	1	n/a	n/a	11	37	Blank	Win	True
359.869	1.45	Win2	0.6579	n/a	Yes	2.88	n/a	5.0	GoodResponse	1	0.008	358.877	11	37	Feedback	Win	True
361.318	2.88	Win2	0.6579	n/a	Yes	2.88	n/a	n/a	GoodResponse	1	0.0	n/a	11	37	ISIslide	Win	True
364.217	0.25	Lose2	0.6667000000000001	0.0	Yes	2.833	0.017	n/a	GoodResponse	0	n/a	n/a	11	38	Cue	AvoidedLoss	True
364.467	3.95	Lose2	0.6667000000000001	0.0	Yes	2.833	0.0	n/a	GoodResponse	0	n/a	n/a	11	38	Fixation	AvoidedLoss	True
368.416	0.5	Lose2	0.6667000000000001	0.001	Yes	2.833	-0.001	4.0	GoodResponse	0	0.325	367.741	11	38	Target	AvoidedLoss	True
368.741	0.3	Lose2	0.6667000000000001	0.001	Yes	2.833	-0.001	4.0	GoodResponse	0	0.325	n/a	11	38	ButtonPress	AvoidedLoss	True
368.916	0.2	Lose2	0.6667000000000001	n/a	Yes	2.833	n/a	n/a	GoodResponse	0	n/a	n/a	11	38	Blank	AvoidedLoss	True
369.116	1.45	Lose2	0.6667000000000001	n/a	Yes	2.833	n/a	5.0	GoodResponse	0	0.03	368.146	11	38	Feedback	AvoidedLoss	True
370.565	2.833	Lose2	0.6667000000000001	n/a	Yes	2.833	n/a	n/a	GoodResponse	0	0.0	n/a	11	38	ISIslide	AvoidedLoss	True
373.414	0.25	Win2	0.675	0.0	Yes	2.986	0.014	n/a	GoodResponse	1	n/a	n/a	12	39	Cue	Win	True
373.664	4.1	Win2	0.675	0.0	Yes	2.986	0.0	n/a	GoodResponse	1	n/a	n/a	12	39	Fixation	Win	True
377.763	0.49	Win2	0.675	0.001	Yes	2.986	-0.001	4.0	GoodResponse	1	0.39	377.153	12	39	Target	Win	True
378.153	0.3	Win2	0.675	0.001	Yes	2.986	-0.001	4.0	GoodResponse	1	0.39	n/a	12	39	ButtonPress	Win	True
378.262	0.21	Win2	0.675	n/a	Yes	2.986	n/a	n/a	GoodResponse	1	n/a	n/a	12	39	Blank	Win	True
378.462	1.45	Win2	0.675	n/a	Yes	2.986	n/a	5.0	GoodResponse	1	0.001	377.463	12	39	Feedback	Win	True
379.912	2.986	Win2	0.675	n/a	Yes	2.986	n/a	n/a	GoodResponse	1	0.0	n/a	12	39	ISIslide	Win	True
382.927	0.25	Win2	0.6829000000000001	0.001	Yes	2.723	0.027	n/a	GoodResponse	1	n/a	n/a	13	40	Cue	Win	True
383.177	3.95	Win2	0.6829000000000001	0.0	Yes	2.723	0.0	n/a	GoodResponse	1	n/a	n/a	13	40	Fixation	Win	True
387.126	0.48	Win2	0.6829000000000001	0.001	Yes	2.723	-0.001	4.0	GoodResponse	1	0.257	386.383	13	40	Target	Win	True
387.383	0.3	Win2	0.6829000000000001	0.001	Yes	2.723	-0.001	4.0	GoodResponse	1	0.257	n/a	13	40	ButtonPress	Win	True
387.609	0.22	Win2	0.6829000000000001	n/a	Yes	2.723	n/a	n/a	GoodResponse	1	n/a	n/a	13	40	Blank	Win	True
387.826	1.45	Win2	0.6829000000000001	n/a	Yes	2.723	n/a	5.0	GoodResponse	1	0.006	386.832	13	40	Feedback	Win	True
389.275	2.723	Win2	0.6829000000000001	n/a	Yes	2.723	n/a	n/a	GoodResponse	1	0.0	n/a	13	40	ISIslide	Win	True
392.024	0.25	Win2	0.6905	0.0	Yes	2.776	0.024	n/a	GoodResponse	1	n/a	n/a	14	41	Cue	Win	True
392.274	3.9	Win2	0.6905	0.0	Yes	2.776	0.0	n/a	GoodResponse	1	n/a	n/a	14	41	Fixation	Win	True
396.173	0.47	Win2	0.6905	0.001	Yes	2.776	-0.001	4.0	GoodResponse	1	0.257	395.43	14	41	Target	Win	True
396.43	0.3	Win2	0.6905	0.001	Yes	2.776	-0.001	4.0	GoodResponse	1	0.257	n/a	14	41	ButtonPress	Win	True
396.639	0.23	Win2	0.6905	n/a	Yes	2.776	n/a	n/a	GoodResponse	1	n/a	n/a	14	41	Blank	Win	True
396.873	1.45	Win2	0.6905	n/a	Yes	2.776	n/a	5.0	GoodResponse	1	0.029	395.902	14	41	Feedback	Win	True
398.322	2.776	Win2	0.6905	n/a	Yes	2.776	n/a	n/a	GoodResponse	1	0.0	n/a	14	41	ISIslide	Win	True
401.121	0.25	Control	0.6744	0.0	No	2.929	0.021	n/a	NoResponse	0	n/a	n/a	14	42	Cue	Neutral	False
401.371	3.85	Control	0.6744	0.0	No	2.929	0.0	n/a	NoResponse	0	n/a	n/a	14	42	Fixation	Neutral	False
405.22	0.46	Control	0.6744	0.001	No	2.929	-0.001	n/a	NoResponse	0	n/a	n/a	14	42	Target	Neutral	False
405.686	0.24	Control	0.6744	n/a	No	2.929	n/a	n/a	NoResponse	0	n/a	n/a	14	42	Blank	Neutral	False
405.92	1.45	Control	0.6744	n/a	No	2.929	n/a	5.0	NoResponse	0	0.006	404.926	14	42	Feedback	Neutral	False
407.369	2.929	Control	0.6744	n/a	No	2.929	n/a	n/a	NoResponse	0	0.0	n/a	14	42	ISIslide	Neutral	False
410.318	0.25	Win2	0.6818000000000001	0.0	Yes	3.182	0.018	n/a	GoodResponse	1	n/a	n/a	15	43	Cue	Win	True
410.568	4.0	Win2	0.6818000000000001	0.0	Yes	3.182	0.0	n/a	GoodResponse	1	n/a	n/a	15	43	Fixation	Win	True
414.567	0.45	Win2	0.6818000000000001	0.001	Yes	3.182	-0.001	4.0	GoodResponse	1	0.238	413.805	15	43	Target	Win	True
414.805	0.3	Win2	0.6818000000000001	0.001	Yes	3.182	-0.001	4.0	GoodResponse	1	0.238	n/a	15	43	ButtonPress	Win	True
415.016	0.25	Win2	0.6818000000000001	n/a	Yes	3.182	n/a	n/a	GoodResponse	1	n/a	n/a	15	43	Blank	Win	True
415.266	1.45	Win2	0.6818000000000001	n/a	Yes	3.182	n/a	5.0	GoodResponse	1	0.026	414.292	15	43	Feedback	Win	True
416.716	3.182	Win2	0.6818000000000001	n/a	Yes	3.182	n/a	n/a	GoodResponse	1	0.0	n/a	15	43	ISIslide	Win	True
419.915	0.25	Win2	0.6889	0.0	Yes	2.985	0.015	n/a	GoodResponse	1	n/a	n/a	16	44	Cue	Win	True
420.165	4.0	Win2	0.6889	0.0	Yes	2.985	0.0	n/a	GoodResponse	1	n/a	n/a	16	44	Fixation	Win	True
424.163	0.44	Win2	0.6889	0.002	Yes	2.985	-0.002	4.0	GoodResponse	1	0.24	423.403	16	44	Target	Win	True
424.403	0.3	Win2	0.6889	0.002	Yes	2.985	-0.002	4.0	GoodResponse	1	0.24	n/a	16	44	ButtonPress	Win	True
424.613	0.26	Win2	0.6889	n/a	Yes	2.985	n/a	n/a	GoodResponse	1	n/a	n/a	16	44	Blank	Win	True
424.863	1.45	Win2	0.6889	n/a	Yes	2.985	n/a	5.0	GoodResponse	1	0.039	423.902	16	44	Feedback	Win	True
426.313	2.985	Win2	0.6889	n/a	Yes	2.985	n/a	n/a	GoodResponse	1	0.0	n/a	16	44	ISIslide	Win	True
429.328	0.25	Control	0.6739	0.0	No	2.872	0.028	n/a	NoResponse	0	n/a	n/a	16	45	Cue	Neutral	False
429.578	4.1	Control	0.6739	0.0	No	2.872	0.0	n/a	NoResponse	0	n/a	n/a	16	45	Fixation	Neutral	False
433.677	0.43	Control	0.6739	0.001	No	2.872	-0.001	n/a	NoResponse	0	n/a	n/a	16	45	Target	Neutral	False
434.11	0.27	Control	0.6739	n/a	No	2.872	n/a	n/a	NoResponse	0	n/a	n/a	16	45	Blank	Neutral	False
434.377	1.45	Control	0.6739	n/a	No	2.872	n/a	5.0	NoResponse	0	0.037	433.414	16	45	Feedback	Neutral	False
435.826	2.872	Control	0.6739	n/a	No	2.872	n/a	n/a	NoResponse	0	0.0	n/a	16	45	ISIslide	Neutral	False
438.725	0.25	Lose2	0.6809000000000001	0.0	Yes	3.375	0.025	n/a	GoodResponse	0	n/a	n/a	16	46	Cue	AvoidedLoss	True
438.975	4.0	Lose2	0.6809000000000001	0.0	Yes	3.375	0.0	n/a	GoodResponse	0	n/a	n/a	16	46	Fixation	AvoidedLoss	True
442.974	0.42	Lose2	0.6809000000000001	0.001	Yes	3.375	-0.001	4.0	GoodResponse	0	0.328	442.302	16	46	Target	AvoidedLoss	True
443.302	0.3	Lose2	0.6809000000000001	0.001	Yes	3.375	-0.001	4.0	GoodResponse	0	0.328	n/a	16	46	ButtonPress	AvoidedLoss	True
443.407	0.28	Lose2	0.6809000000000001	n/a	Yes	3.375	n/a	n/a	GoodResponse	0	n/a	n/a	16	46	Blank	AvoidedLoss	True
443.673	1.45	Lose2	0.6809000000000001	n/a	Yes	3.375	n/a	5.0	GoodResponse	0	0.009	442.682	16	46	Feedback	AvoidedLoss	True
445.123	3.375	Lose2	0.6809000000000001	n/a	Yes	3.375	n/a	n/a	GoodResponse	0	0.0	n/a	16	46	ISIslide	AvoidedLoss	True
448.522	0.25	Lose2	0.6875	0.0	Yes	2.678	0.022	n/a	GoodResponse	0	n/a	n/a	16	47	Cue	AvoidedLoss	True
448.772	4.0	Lose2	0.6875	0.0	Yes	2.678	0.0	n/a	GoodResponse	0	n/a	n/a	16	47	Fixation	AvoidedLoss	True
452.77	0.41	Lose2	0.6875	0.002	Yes	2.678	-0.002	4.0	GoodResponse	0	0.306	452.076	16	47	Target	AvoidedLoss	True
453.076	0.3	Lose2	0.6875	0.002	Yes	2.678	-0.002	4.0	GoodResponse	0	0.306	n/a	16	47	ButtonPress	AvoidedLoss	True
453.187	0.29	Lose2	0.6875	n/a	Yes	2.678	n/a	n/a	GoodResponse	0	n/a	n/a	16	47	Blank	AvoidedLoss	True
453.47	1.45	Lose2	0.6875	n/a	Yes	2.678	n/a	5.0	GoodResponse	0	0.017	452.487	16	47	Feedback	AvoidedLoss	True
454.92	2.678	Lose2	0.6875	n/a	Yes	2.678	n/a	n/a	GoodResponse	0	0.0	n/a	16	47	ISIslide	AvoidedLoss	True
457.619	0.25	Lose2	0.6939	0.0	Yes	3.031	0.019	n/a	GoodResponse	0	n/a	n/a	16	48	Cue	AvoidedLoss	True
457.868	3.95	Lose2	0.6939	0.001	Yes	3.031	-0.001	n/a	GoodResponse	0	n/a	n/a	16	48	Fixation	AvoidedLoss	True
461.817	0.4	Lose2	0.6939	0.002	Yes	3.031	-0.002	4.0	GoodResponse	0	0.255	461.072	16	48	Target	AvoidedLoss	True
462.072	0.3	Lose2	0.6939	0.002	Yes	3.031	-0.002	4.0	GoodResponse	0	0.255	n/a	16	48	ButtonPress	AvoidedLoss	True
462.217	0.3	Lose2	0.6939	n/a	Yes	3.031	n/a	n/a	GoodResponse	0	n/a	n/a	16	48	Blank	AvoidedLoss	True
462.517	1.45	Lose2	0.6939	n/a	Yes	3.031	n/a	5.0	GoodResponse	0	0.044	461.561	16	48	Feedback	AvoidedLoss	True
463.966	3.031	Lose2	0.6939	n/a	Yes	3.031	n/a	n/a	GoodResponse	0	0.0	n/a	16	48	ISIslide	AvoidedLoss	True
467.015	0.25	Control	0.68	0.0	No	2.885	0.015	n/a	NoResponse	0	n/a	n/a	16	49	Cue	Neutral	False
467.265	4.0	Control	0.68	0.0	No	2.885	0.0	n/a	NoResponse	0	n/a	n/a	16	49	Fixation	Neutral	False
471.264	0.39	Control	0.68	0.001	No	2.885	-0.001	n/a	NoResponse	0	n/a	n/a	16	49	Target	Neutral	False
471.664	0.31	Control	0.68	n/a	No	2.885	n/a	n/a	NoResponse	0	n/a	n/a	16	49	Blank	Neutral	False
471.964	1.45	Control	0.68	n/a	No	2.885	n/a	5.0	NoResponse	0	0.011	470.975	16	49	Feedback	Neutral	False
473.413	2.885	Control	0.68	n/a	No	2.885	n/a	n/a	NoResponse	0	0.0	n/a	16	49	ISIslide	Neutral	False
476.329	0.25	Control	0.6667000000000001	0.0	No	2.771	0.029	n/a	NoResponse	0	n/a	n/a	16	50	Cue	Neutral	False
476.579	4.0	Control	0.6667000000000001	0.0	No	2.771	0.0	n/a	NoResponse	0	n/a	n/a	16	50	Fixation	Neutral	False
480.577	0.38	Control	0.6667000000000001	0.002	No	2.771	-0.002	n/a	NoResponse	0	n/a	n/a	16	50	Target	Neutral	False
480.961	0.32	Control	0.6667000000000001	n/a	No	2.771	n/a	n/a	NoResponse	0	n/a	n/a	16	50	Blank	Neutral	False
481.277	1.45	Control	0.6667000000000001	n/a	No	2.771	n/a	5.0	NoResponse	0	0.015	480.292	16	50	Feedback	Neutral	False
482.727	2.771	Control	0.6667000000000001	n/a	No	2.771	n/a	n/a	NoResponse	0	0.0	n/a	16	50	ISIslide	Neutral	False
485.526	0.25	Control	0.6537999999999999	0.0	No	2.724	0.026	n/a	NoResponse	0	n/a	n/a	16	51	Cue	Neutral	False
485.776	3.95	Control	0.6537999999999999	0.0	No	2.724	0.0	n/a	NoResponse	0	n/a	n/a	16	51	Fixation	Neutral	False
489.724	0.37	Control	0.6537999999999999	0.002	No	2.724	-0.002	n/a	NoResponse	0	n/a	n/a	16	51	Target	Neutral	False
490.107	0.33	Control	0.6537999999999999	n/a	No	2.724	n/a	n/a	NoResponse	0	n/a	n/a	16	51	Blank	Neutral	False
490.424	1.45	Control	0.6537999999999999	n/a	No	2.724	n/a	5.0	NoResponse	0	0.039	489.463	16	51	Feedback	Neutral	False
491.874	2.724	Control	0.6537999999999999	n/a	No	2.724	n/a	n/a	NoResponse	0	0.0	n/a	16	51	ISIslide	Neutral	False
494.623	0.25	Control	0.6415000000000001	0.0	No	2.627	0.023	n/a	NoResponse	0	n/a	n/a	16	52	Cue	Neutral	False
494.872	4.05	Control	0.6415000000000001	0.001	No	2.627	-0.001	n/a	NoResponse	0	n/a	n/a	16	52	Fixation	Neutral	False
498.921	0.38	Control	0.6415000000000001	0.002	No	2.627	-0.002	n/a	NoResponse	0	n/a	n/a	16	52	Target	Neutral	False
499.304	0.32	Control	0.6415000000000001	n/a	No	2.627	n/a	n/a	NoResponse	0	n/a	n/a	16	52	Blank	Neutral	False
499.621	1.45	Control	0.6415000000000001	n/a	No	2.627	n/a	5.0	NoResponse	0	0.012	498.633	16	52	Feedback	Neutral	False
501.07	2.627	Control	0.6415000000000001	n/a	No	2.627	n/a	n/a	NoResponse	0	0.0	n/a	16	52	ISIslide	Neutral	False
503.719	0.25	Win2	0.6481	0.001	Yes	2.931	0.019	n/a	GoodResponse	1	n/a	n/a	17	53	Cue	Win	True
503.969	4.05	Win2	0.6481	0.0	Yes	2.931	0.0	n/a	GoodResponse	1	n/a	n/a	17	53	Fixation	Win	True
508.018	0.39	Win2	0.6481	0.001	Yes	2.931	-0.001	4.0	GoodResponse	1	0.263	507.281	17	53	Target	Win	True
508.281	0.3	Win2	0.6481	0.001	Yes	2.931	-0.001	4.0	GoodResponse	1	0.263	n/a	17	53	ButtonPress	Win	True
508.418	0.31	Win2	0.6481	n/a	Yes	2.931	n/a	n/a	GoodResponse	1	n/a	n/a	17	53	Blank	Win	True
508.718	1.45	Win2	0.6481	n/a	Yes	2.931	n/a	5.0	GoodResponse	1	0.037	507.755	17	53	Feedback	Win	True
510.167	2.931	Win2	0.6481	n/a	Yes	2.931	n/a	n/a	GoodResponse	1	0.0	n/a	17	53	ISIslide	Win	True
513.116	0.25	Win2	0.6545000000000001	0.0	Yes	2.734	0.016	n/a	GoodResponse	1	n/a	n/a	18	54	Cue	Win	True
513.366	3.95	Win2	0.6545000000000001	0.0	Yes	2.734	0.0	n/a	GoodResponse	1	n/a	n/a	18	54	Fixation	Win	True
517.315	0.4	Win2	0.6545000000000001	0.001	Yes	2.734	-0.001	4.0	GoodResponse	1	0.222	516.537	18	54	Target	Win	True
517.537	0.3	Win2	0.6545000000000001	0.001	Yes	2.734	-0.001	4.0	GoodResponse	1	0.222	n/a	18	54	ButtonPress	Win	True
517.715	0.3	Win2	0.6545000000000001	n/a	Yes	2.734	n/a	n/a	GoodResponse	1	n/a	n/a	18	54	Blank	Win	True
518.015	1.45	Win2	0.6545000000000001	n/a	Yes	2.734	n/a	5.0	GoodResponse	1	0.009	517.024	18	54	Feedback	Win	True
519.464	2.734	Win2	0.6545000000000001	n/a	Yes	2.734	n/a	n/a	GoodResponse	1	0.0	n/a	18	54	ISIslide	Win	True
522.213	0.25	Control	0.6429	0.0	No	3.037	0.013	n/a	NoResponse	0	n/a	n/a	18	55	Cue	Neutral	False
522.463	3.95	Control	0.6429	0.0	No	3.037	0.0	n/a	NoResponse	0	n/a	n/a	18	55	Fixation	Neutral	False
526.412	0.41	Control	0.6429	0.001	No	3.037	-0.001	n/a	NoResponse	0	n/a	n/a	18	55	Target	Neutral	False
526.828	0.29	Control	0.6429	n/a	No	3.037	n/a	n/a	NoResponse	0	n/a	n/a	18	55	Blank	Neutral	False
527.111	1.45	Control	0.6429	n/a	No	3.037	n/a	5.0	NoResponse	0	0.035	526.146	18	55	Feedback	Neutral	False
528.561	3.037	Control	0.6429	n/a	No	3.037	n/a	n/a	NoResponse	0	0.0	n/a	18	55	ISIslide	Neutral	False
531.627	0.25	Control	0.6315999999999999	0.0	No	2.823	0.027	n/a	NoResponse	0	n/a	n/a	18	56	Cue	Neutral	False
531.876	3.95	Control	0.6315999999999999	0.001	No	2.823	-0.001	n/a	NoResponse	0	n/a	n/a	18	56	Fixation	Neutral	False
535.825	0.42	Control	0.6315999999999999	0.002	No	2.823	-0.002	n/a	NoResponse	0	n/a	n/a	18	56	Target	Neutral	False
536.258	0.28	Control	0.6315999999999999	n/a	No	2.823	n/a	n/a	NoResponse	0	n/a	n/a	18	56	Blank	Neutral	False
536.525	1.45	Control	0.6315999999999999	n/a	No	2.823	n/a	5.0	NoResponse	0	0.036	535.561	18	56	Feedback	Neutral	False
537.974	2.823	Control	0.6315999999999999	n/a	No	2.823	n/a	n/a	NoResponse	0	0.0	n/a	18	56	ISIslide	Neutral	False
540.823	0.25	Control	0.6207	0.001	No	3.477	0.023	n/a	NoResponse	0	n/a	n/a	18	57	Cue	Neutral	False
541.073	4.0	Control	0.6207	0.0	No	3.477	0.0	n/a	NoResponse	0	n/a	n/a	18	57	Fixation	Neutral	False
545.072	0.43	Control	0.6207	0.001	No	3.477	-0.001	n/a	NoResponse	0	n/a	n/a	18	57	Target	Neutral	False
545.505	0.27	Control	0.6207	n/a	No	3.477	n/a	n/a	NoResponse	0	n/a	n/a	18	57	Blank	Neutral	False
545.772	1.45	Control	0.6207	n/a	No	3.477	n/a	5.0	NoResponse	0	0.008	544.78	18	57	Feedback	Neutral	False
547.221	3.477	Control	0.6207	n/a	No	3.477	n/a	n/a	NoResponse	0	0.0	n/a	18	57	ISIslide	Neutral	False
550.72	0.25	Win2	0.6271	0.0	Yes	2.73	0.02	n/a	GoodResponse	1	n/a	n/a	19	58	Cue	Win	True
550.97	4.05	Win2	0.6271	0.0	Yes	2.73	0.0	n/a	GoodResponse	1	n/a	n/a	19	58	Fixation	Win	True
555.019	0.44	Win2	0.6271	0.001	Yes	2.73	-0.001	4.0	GoodResponse	1	0.256	554.275	19	58	Target	Win	True
555.275	0.3	Win2	0.6271	0.001	Yes	2.73	-0.001	4.0	GoodResponse	1	0.256	n/a	19	58	ButtonPress	Win	True
555.468	0.26	Win2	0.6271	n/a	Yes	2.73	n/a	n/a	GoodResponse	1	n/a	n/a	19	58	Blank	Win	True
555.718	1.45	Win2	0.6271	n/a	Yes	2.73	n/a	5.0	GoodResponse	1	0.013	554.731	19	58	Feedback	Win	True
557.168	2.73	Win2	0.6271	n/a	Yes	2.73	n/a	n/a	GoodResponse	1	0.0	n/a	19	58	ISIslide	Win	True
559.917	0.25	Lose2	0.6333	0.0	Yes	2.683	0.017	n/a	GoodResponse	0	n/a	n/a	19	59	Cue	AvoidedLoss	True
560.167	4.0	Lose2	0.6333	0.0	Yes	2.683	0.0	n/a	GoodResponse	0	n/a	n/a	19	59	Fixation	AvoidedLoss	True
564.165	0.45	Lose2	0.6333	0.002	Yes	2.683	-0.002	4.0	GoodResponse	0	0.272	563.437	19	59	Target	AvoidedLoss	True
564.437	0.3	Lose2	0.6333	0.002	Yes	2.683	-0.002	4.0	GoodResponse	0	0.272	n/a	19	59	ButtonPress	AvoidedLoss	True
564.615	0.25	Lose2	0.6333	n/a	Yes	2.683	n/a	n/a	GoodResponse	0	n/a	n/a	19	59	Blank	AvoidedLoss	True
564.865	1.45	Lose2	0.6333	n/a	Yes	2.683	n/a	5.0	GoodResponse	0	0.036	563.901	19	59	Feedback	AvoidedLoss	True
566.315	2.683	Lose2	0.6333	n/a	Yes	2.683	n/a	n/a	GoodResponse	0	0.0	n/a	19	59	ISIslide	AvoidedLoss	True
569.014	0.25	Control	0.623	0.0	No	2.686	0.014	n/a	NoResponse	0	n/a	n/a	19	60	Cue	Neutral	False
569.264	4.0	Control	0.623	0.0	No	2.686	0.0	n/a	NoResponse	0	n/a	n/a	19	60	Fixation	Neutral	False
573.262	0.46	Control	0.623	0.002	No	2.686	-0.002	n/a	NoResponse	0	n/a	n/a	19	60	Target	Neutral	False
573.729	0.24	Control	0.623	n/a	No	2.686	n/a	n/a	NoResponse	0	n/a	n/a	19	60	Blank	Neutral	False
573.962	1.45	Control	0.623	n/a	No	2.686	n/a	5.0	NoResponse	0	0.013	572.975	19	60	Feedback	Neutral	False
575.412	2.686	Control	0.623	n/a	No	2.686	n/a	n/a	NoResponse	0	0.0	n/a	19	60	ISIslide	Neutral	False
578.127	0.25	Lose2	0.629	0.0	Yes	2.973	0.027	n/a	GoodResponse	0	n/a	n/a	19	61	Cue	AvoidedLoss	True
578.377	4.0	Lose2	0.629	0.0	Yes	2.973	0.0	n/a	GoodResponse	0	n/a	n/a	19	61	Fixation	AvoidedLoss	True
582.376	0.47	Lose2	0.629	0.001	Yes	2.973	-0.001	4.0	GoodResponse	0	0.306	581.682	19	61	Target	AvoidedLoss	True
582.682	0.3	Lose2	0.629	0.001	Yes	2.973	-0.001	4.0	GoodResponse	0	0.306	n/a	19	61	ButtonPress	AvoidedLoss	True
582.842	0.23	Lose2	0.629	n/a	Yes	2.973	n/a	n/a	GoodResponse	0	n/a	n/a	19	61	Blank	AvoidedLoss	True
583.076	1.45	Lose2	0.629	n/a	Yes	2.973	n/a	5.0	GoodResponse	0	0.021	582.097	19	61	Feedback	AvoidedLoss	True
584.525	2.973	Lose2	0.629	n/a	Yes	2.973	n/a	n/a	GoodResponse	0	0.0	n/a	19	61	ISIslide	AvoidedLoss	True
587.524	0.25	Lose2	0.6349	0.0	Yes	2.876	0.024	n/a	GoodResponse	0	n/a	n/a	19	62	Cue	AvoidedLoss	True
587.774	3.9	Lose2	0.6349	0.0	Yes	2.876	0.0	n/a	GoodResponse	0	n/a	n/a	19	62	Fixation	AvoidedLoss	True
591.673	0.48	Lose2	0.6349	0.001	Yes	2.876	-0.001	4.0	GoodResponse	0	0.3	590.973	19	62	Target	AvoidedLoss	True
591.973	0.3	Lose2	0.6349	0.001	Yes	2.876	-0.001	4.0	GoodResponse	0	0.3	n/a	19	62	ButtonPress	AvoidedLoss	True
592.156	0.22	Lose2	0.6349	n/a	Yes	2.876	n/a	n/a	GoodResponse	0	n/a	n/a	19	62	Blank	AvoidedLoss	True
592.372	1.45	Lose2	0.6349	n/a	Yes	2.876	n/a	5.0	GoodResponse	0	0.042	591.414	19	62	Feedback	AvoidedLoss	True
593.822	2.876	Lose2	0.6349	n/a	Yes	2.876	n/a	n/a	GoodResponse	0	0.0	n/a	19	62	ISIslide	AvoidedLoss	True
596.721	0.25	Lose2	0.6406000000000001	0.0	Yes	2.629	0.021	n/a	GoodResponse	0	n/a	n/a	19	63	Cue	AvoidedLoss	True
596.971	4.05	Lose2	0.6406000000000001	0.0	Yes	2.629	0.0	n/a	GoodResponse	0	n/a	n/a	19	63	Fixation	AvoidedLoss	True
601.019	0.49	Lose2	0.6406000000000001	0.002	Yes	2.629	-0.002	4.0	GoodResponse	0	0.233	600.252	19	63	Target	AvoidedLoss	True
601.252	0.3	Lose2	0.6406000000000001	0.002	Yes	2.629	-0.002	4.0	GoodResponse	0	0.233	n/a	19	63	ButtonPress	AvoidedLoss	True
601.519	0.21	Lose2	0.6406000000000001	n/a	Yes	2.629	n/a	n/a	GoodResponse	0	n/a	n/a	19	63	Blank	AvoidedLoss	True
601.719	1.45	Lose2	0.6406000000000001	n/a	Yes	2.629	n/a	5.0	GoodResponse	0	0.012	600.731	19	63	Feedback	AvoidedLoss	True
603.169	2.629	Lose2	0.6406000000000001	n/a	Yes	2.629	n/a	n/a	GoodResponse	0	0.0	n/a	19	63	ISIslide	AvoidedLoss	True
605.818	0.25	Win2	0.6462	0.0	Yes	3.132	0.018	n/a	GoodResponse	1	n/a	n/a	20	64	Cue	Win	False
606.068	4.15	Win2	0.6462	0.0	Yes	3.132	0.0	4.0	GoodResponse	1	0.29	605.358	20	64	Fixation	Win	False
606.358	0.3	Win2	0.6462	0.0	Yes	3.132	0.0	4.0	GoodResponse	1	0.29	n/a	20	64	ButtonPress	Win	False
610.216	0.5	Win2	0.6462	0.002	Yes	3.132	-0.002	4.0	GoodResponse	1	0.244	609.46	20	64	Target	Win	False
610.46	0.3	Win2	0.6462	0.002	Yes	3.132	-0.002	4.0	GoodResponse	1	0.244	n/a	20	64	ButtonPress	Win	False
610.716	0.2	Win2	0.6462	n/a	Yes	3.132	n/a	n/a	GoodResponse	1	n/a	n/a	20	64	Blank	Win	False
610.916	1.45	Win2	0.6462	n/a	Yes	3.132	n/a	5.0	GoodResponse	1	0.035	609.951	20	64	Feedback	Win	False
612.366	3.132	Win2	0.6462	n/a	Yes	3.132	n/a	n/a	GoodResponse	1	0.0	n/a	20	64	ISIslide	Win	False
615.515	0.25	Control	0.6364	0.0	No	2.785	0.015	n/a	NoResponse	0	n/a	n/a	20	65	Cue	Neutral	False
615.764	4.0	Control	0.6364	0.001	No	2.785	-0.001	n/a	NoResponse	0	n/a	n/a	20	65	Fixation	Neutral	False
619.763	0.5	Control	0.6364	0.002	No	2.785	-0.002	n/a	NoResponse	0	n/a	n/a	20	65	Target	Neutral	False
620.263	0.2	Control	0.6364	n/a	No	2.785	n/a	n/a	NoResponse	0	n/a	n/a	20	65	Blank	Neutral	False
620.463	1.45	Control	0.6364	n/a	No	2.785	n/a	5.0	NoResponse	0	0.049	619.512	20	65	Feedback	Neutral	False
621.912	2.785	Control	0.6364	n/a	No	2.785	n/a	n/a	NoResponse	0	0.0	n/a	20	65	ISIslide	Neutral	False
624.728	0.25	Win2	0.6418	0.0	Yes	2.772	0.028	n/a	GoodResponse	1	n/a	n/a	21	66	Cue	Win	True
624.978	3.9	Win2	0.6418	0.0	Yes	2.772	0.0	n/a	GoodResponse	1	n/a	n/a	21	66	Fixation	Win	True
628.877	0.5	Win2	0.6418	0.001	Yes	2.772	-0.001	4.0	GoodResponse	1	0.298	628.175	21	66	Target	Win	True
629.175	0.3	Win2	0.6418	0.001	Yes	2.772	-0.001	4.0	GoodResponse	1	0.298	n/a	21	66	ButtonPress	Win	True
629.376	0.2	Win2	0.6418	n/a	Yes	2.772	n/a	n/a	GoodResponse	1	n/a	n/a	21	66	Blank	Win	True
629.576	1.45	Win2	0.6418	n/a	Yes	2.772	n/a	5.0	GoodResponse	1	0.008	628.584	21	66	Feedback	Win	True
631.026	2.772	Win2	0.6418	n/a	Yes	2.772	n/a	n/a	GoodResponse	1	0.0	n/a	21	66	ISIslide	Win	True
633.825	0.25	Control	0.6324000000000001	0.0	No	2.725	0.025	n/a	NoResponse	0	n/a	n/a	21	67	Cue	Neutral	False
634.075	3.95	Control	0.6324000000000001	0.0	No	2.725	0.0	n/a	NoResponse	0	n/a	n/a	21	67	Fixation	Neutral	False
638.023	0.5	Control	0.6324000000000001	0.002	No	2.725	-0.002	n/a	NoResponse	0	n/a	n/a	21	67	Target	Neutral	False
638.523	0.2	Control	0.6324000000000001	n/a	No	2.725	n/a	n/a	NoResponse	0	n/a	n/a	21	67	Blank	Neutral	False
638.723	1.45	Control	0.6324000000000001	n/a	No	2.725	n/a	5.0	NoResponse	0	0.032	637.755	21	67	Feedback	Neutral	False
640.173	2.725	Control	0.6324000000000001	n/a	No	2.725	n/a	n/a	NoResponse	0	0.0	n/a	21	67	ISIslide	Neutral	False
642.922	0.25	Win2	0.6377	0.0	Yes	3.078	0.022	n/a	GoodResponse	1	n/a	n/a	22	68	Cue	Win	True
643.172	4.0	Win2	0.6377	0.0	Yes	3.078	0.0	n/a	GoodResponse	1	n/a	n/a	22	68	Fixation	Win	True
647.17	0.5	Win2	0.6377	0.002	Yes	3.078	-0.002	4.0	GoodResponse	1	0.368	646.538	22	68	Target	Win	True
647.538	0.3	Win2	0.6377	0.002	Yes	3.078	-0.002	4.0	GoodResponse	1	0.368	n/a	22	68	ButtonPress	Win	True
647.67	0.2	Win2	0.6377	n/a	Yes	3.078	n/a	n/a	GoodResponse	1	n/a	n/a	22	68	Blank	Win	True
647.87	1.45	Win2	0.6377	n/a	Yes	3.078	n/a	5.0	GoodResponse	1	0.007	646.877	22	68	Feedback	Win	True
649.32	3.078	Win2	0.6377	n/a	Yes	3.078	n/a	n/a	GoodResponse	1	0.0	n/a	22	68	ISIslide	Win	True
652.419	0.25	Win2	0.6429	0.0	Yes	3.231	0.019	n/a	GoodResponse	1	n/a	n/a	23	69	Cue	Win	True
652.668	3.95	Win2	0.6429	0.001	Yes	3.231	-0.001	n/a	GoodResponse	1	n/a	n/a	23	69	Fixation	Win	True
656.617	0.5	Win2	0.6429	0.002	Yes	3.231	-0.002	4.0	GoodResponse	1	0.304	655.921	23	69	Target	Win	True
656.921	0.3	Win2	0.6429	0.002	Yes	3.231	-0.002	4.0	GoodResponse	1	0.304	n/a	23	69	ButtonPress	Win	True
657.117	0.2	Win2	0.6429	n/a	Yes	3.231	n/a	n/a	GoodResponse	1	n/a	n/a	23	69	Blank	Win	True
657.317	1.45	Win2	0.6429	n/a	Yes	3.231	n/a	5.0	GoodResponse	1	0.024	656.341	23	69	Feedback	Win	True
658.766	3.231	Win2	0.6429	n/a	Yes	3.231	n/a	n/a	GoodResponse	1	0.0	n/a	23	69	ISIslide	Win	True
662.015	0.25	Lose2	0.6479	0.0	Yes	3.035	0.015	n/a	GoodResponse	0	n/a	n/a	23	70	Cue	AvoidedLoss	True
662.265	4.05	Lose2	0.6479	0.0	Yes	3.035	0.0	n/a	GoodResponse	0	n/a	n/a	23	70	Fixation	AvoidedLoss	True
666.314	0.5	Lose2	0.6479	0.001	Yes	3.035	-0.001	4.0	GoodResponse	0	0.276	665.59	23	70	Target	AvoidedLoss	True
666.59	0.3	Lose2	0.6479	0.001	Yes	3.035	-0.001	4.0	GoodResponse	0	0.276	n/a	23	70	ButtonPress	AvoidedLoss	True
666.814	0.2	Lose2	0.6479	n/a	Yes	3.035	n/a	n/a	GoodResponse	0	n/a	n/a	23	70	Blank	AvoidedLoss	True
667.014	1.45	Lose2	0.6479	n/a	Yes	3.035	n/a	5.0	GoodResponse	0	0.034	666.048	23	70	Feedback	AvoidedLoss	True
668.463	3.035	Lose2	0.6479	n/a	Yes	3.035	n/a	n/a	GoodResponse	0	0.0	n/a	23	70	ISIslide	AvoidedLoss	True
671.529	0.25	Win2	0.6528	0.0	Yes	2.721	0.029	n/a	GoodResponse	1	n/a	n/a	24	71	Cue	Win	True
671.779	4.05	Win2	0.6528	0.0	Yes	2.721	0.0	n/a	GoodResponse	1	n/a	n/a	24	71	Fixation	Win	True
675.827	0.5	Win2	0.6528	0.002	Yes	2.721	-0.002	4.0	GoodResponse	1	0.218	675.045	24	71	Target	Win	True
676.045	0.3	Win2	0.6528	0.002	Yes	2.721	-0.002	4.0	GoodResponse	1	0.218	n/a	24	71	ButtonPress	Win	True
676.327	0.2	Win2	0.6528	n/a	Yes	2.721	n/a	n/a	GoodResponse	1	n/a	n/a	24	71	Blank	Win	True
676.527	1.45	Win2	0.6528	n/a	Yes	2.721	n/a	5.0	GoodResponse	1	0.033	675.56	24	71	Feedback	Win	True
677.976	2.721	Win2	0.6528	n/a	Yes	2.721	n/a	n/a	GoodResponse	1	0.0	n/a	24	71	ISIslide	Win	True
680.726	0.25	Win2	0.6575	0.0	Yes	2.774	0.026	n/a	GoodResponse	1	n/a	n/a	25	72	Cue	Win	True
680.975	4.1	Win2	0.6575	0.001	Yes	2.774	-0.001	n/a	GoodResponse	1	n/a	n/a	25	72	Fixation	Win	True
685.074	0.5	Win2	0.6575	0.002	Yes	2.774	-0.002	4.0	GoodResponse	1	0.297	684.371	25	72	Target	Win	True
685.371	0.3	Win2	0.6575	0.002	Yes	2.774	-0.002	4.0	GoodResponse	1	0.297	n/a	25	72	ButtonPress	Win	True
685.574	0.2	Win2	0.6575	n/a	Yes	2.774	n/a	n/a	GoodResponse	1	n/a	n/a	25	72	Blank	Win	True
685.774	1.45	Win2	0.6575	n/a	Yes	2.774	n/a	5.0	GoodResponse	1	0.007	684.781	25	72	Feedback	Win	True
687.223	2.774	Win2	0.6575	n/a	Yes	2.774	n/a	n/a	GoodResponse	1	0.0	n/a	25	72	ISIslide	Win	True
690.022	0.25	Win2	0.6622	0.0	Yes	2.678	0.022	n/a	GoodResponse	1	n/a	n/a	26	73	Cue	Win	True
690.272	4.0	Win2	0.6622	0.0	Yes	2.678	0.0	n/a	GoodResponse	1	n/a	n/a	26	73	Fixation	Win	True
694.271	0.5	Win2	0.6622	0.001	Yes	2.678	-0.001	4.0	GoodResponse	1	0.345	693.616	26	73	Target	Win	True
694.616	0.3	Win2	0.6622	0.001	Yes	2.678	-0.001	4.0	GoodResponse	1	0.345	n/a	26	73	ButtonPress	Win	True
694.771	0.2	Win2	0.6622	n/a	Yes	2.678	n/a	n/a	GoodResponse	1	n/a	n/a	26	73	Blank	Win	True
694.971	1.45	Win2	0.6622	n/a	Yes	2.678	n/a	5.0	GoodResponse	1	0.029	694.0	26	73	Feedback	Win	True
696.42	2.678	Win2	0.6622	n/a	Yes	2.678	n/a	n/a	GoodResponse	1	0.0	n/a	26	73	ISIslide	Win	True
699.119	0.25	Lose2	0.6667000000000001	0.0	Yes	2.631	0.019	n/a	GoodResponse	0	n/a	n/a	26	74	Cue	AvoidedLoss	True
699.369	4.05	Lose2	0.6667000000000001	0.0	Yes	2.631	0.0	n/a	GoodResponse	0	n/a	n/a	26	74	Fixation	AvoidedLoss	True
703.418	0.5	Lose2	0.6667000000000001	0.001	Yes	2.631	-0.001	4.0	GoodResponse	0	0.344	702.762	26	74	Target	AvoidedLoss	True
703.762	0.3	Lose2	0.6667000000000001	0.001	Yes	2.631	-0.001	4.0	GoodResponse	0	0.344	n/a	26	74	ButtonPress	AvoidedLoss	True
703.918	0.2	Lose2	0.6667000000000001	n/a	Yes	2.631	n/a	n/a	GoodResponse	0	n/a	n/a	26	74	Blank	AvoidedLoss	True
704.118	1.45	Lose2	0.6667000000000001	n/a	Yes	2.631	n/a	5.0	GoodResponse	0	0.006	703.124	26	74	Feedback	AvoidedLoss	True
705.567	2.631	Lose2	0.6667000000000001	n/a	Yes	2.631	n/a	n/a	GoodResponse	0	0.0	n/a	26	74	ISIslide	AvoidedLoss	True
708.216	0.25	Lose2	0.6711	0.0	Yes	2.934	0.016	n/a	GoodResponse	0	n/a	n/a	26	75	Cue	AvoidedLoss	True
708.466	3.95	Lose2	0.6711	0.0	Yes	2.934	0.0	n/a	GoodResponse	0	n/a	n/a	26	75	Fixation	AvoidedLoss	True
712.415	0.49	Lose2	0.6711	0.001	Yes	2.934	-0.001	4.0	GoodResponse	0	0.252	711.667	26	75	Target	AvoidedLoss	True
712.667	0.3	Lose2	0.6711	0.001	Yes	2.934	-0.001	4.0	GoodResponse	0	0.252	n/a	26	75	ButtonPress	AvoidedLoss	True
712.915	0.21	Lose2	0.6711	n/a	Yes	2.934	n/a	n/a	GoodResponse	0	n/a	n/a	26	75	Blank	AvoidedLoss	True
713.114	1.45	Lose2	0.6711	n/a	Yes	2.934	n/a	5.0	GoodResponse	0	0.031	712.145	26	75	Feedback	AvoidedLoss	True
714.564	2.934	Lose2	0.6711	n/a	Yes	2.934	n/a	n/a	GoodResponse	0	0.0	n/a	26	75	ISIslide	AvoidedLoss	True
717.513	0.25	Control	0.6623	0.0	No	3.237	0.013	n/a	NoResponse	0	n/a	n/a	26	76	Cue	Neutral	False
717.763	4.05	Control	0.6623	0.0	No	3.237	0.0	n/a	NoResponse	0	n/a	n/a	26	76	Fixation	Neutral	False
721.811	0.48	Control	0.6623	0.002	No	3.237	-0.002	n/a	NoResponse	0	n/a	n/a	26	76	Target	Neutral	False
722.295	0.22	Control	0.6623	n/a	No	3.237	n/a	n/a	NoResponse	0	n/a	n/a	26	76	Blank	Neutral	False
722.511	1.45	Control	0.6623	n/a	No	3.237	n/a	5.0	NoResponse	0	0.049	721.56	26	76	Feedback	Neutral	False
723.961	3.237	Control	0.6623	n/a	No	3.237	n/a	n/a	NoResponse	0	0.0	n/a	26	76	ISIslide	Neutral	False
727.226	0.25	Lose2	0.6667000000000001	0.0	Yes	2.574	0.026	n/a	GoodResponse	0	n/a	n/a	26	77	Cue	AvoidedLoss	True
727.476	3.95	Lose2	0.6667000000000001	0.0	Yes	2.574	0.0	n/a	GoodResponse	0	n/a	n/a	26	77	Fixation	AvoidedLoss	True
731.425	0.48	Lose2	0.6667000000000001	0.001	Yes	2.574	-0.001	4.0	GoodResponse	0	0.268	730.693	26	77	Target	AvoidedLoss	True
731.693	0.3	Lose2	0.6667000000000001	0.001	Yes	2.574	-0.001	4.0	GoodResponse	0	0.268	n/a	26	77	ButtonPress	AvoidedLoss	True
731.908	0.22	Lose2	0.6667000000000001	n/a	Yes	2.574	n/a	n/a	GoodResponse	0	n/a	n/a	26	77	Blank	AvoidedLoss	True
732.125	1.45	Lose2	0.6667000000000001	n/a	Yes	2.574	n/a	5.0	GoodResponse	0	0.045	731.17	26	77	Feedback	AvoidedLoss	True
733.574	2.574	Lose2	0.6667000000000001	n/a	Yes	2.574	n/a	n/a	GoodResponse	0	0.0	n/a	26	77	ISIslide	AvoidedLoss	True
