onset	duration	cue_type	current_mean_accuracy	duration_error	is_hit	isi_adjusted	onset_delay	response	response_type	reward	rt	rt_time	total_reward	trial_number	trial_phase	trial_type	one_press
11.099	0.25	Control	1.0	0.0	Yes	2.951	-0.001	n/a	GoodResponse	0	n/a	n/a	0	0	Cue	Neutral	True
11.35	3.85	Control	1.0	0.0	Yes	2.951	0.001	n/a	GoodResponse	0	n/a	n/a	0	0	Fixation	Neutral	True
15.195	0.4	Control	1.0	0.004	Yes	2.951	-0.004	1.0	GoodResponse	0	0.191	14.386	0	0	Target	Neutral	True
15.386	0.3	Control	1.0	0.004	Yes	2.951	-0.004	1.0	GoodResponse	0	0.191	n/a	0	0	ButtonPress	Neutral	True
15.596	0.3	Control	1.0	n/a	Yes	2.951	n/a	n/a	GoodResponse	0	n/a	n/a	0	0	Blank	Neutral	True
15.897	1.45	Control	1.0	n/a	Yes	2.951	n/a	5.0	GoodResponse	0	0.029	14.926	0	0	Feedback	Neutral	True
17.351	2.951	Control	1.0	n/a	Yes	2.951	n/a	n/a	GoodResponse	0	0.0	n/a	0	0	ISIslide	Neutral	True
20.327	0.25	Lose2	1.0	0.0	Yes	2.773	0.027	n/a	GoodResponse	0	n/a	n/a	0	1	Cue	AvoidedLoss	True
20.578	4.0	Lose2	1.0	0.0	Yes	2.773	0.001	n/a	GoodResponse	0	n/a	n/a	0	1	Fixation	AvoidedLoss	True
24.573	0.39	Lose2	1.0	0.004	Yes	2.773	-0.004	1.0	GoodResponse	0	0.17	23.743	0	1	Target	AvoidedLoss	True
24.743	0.3	Lose2	1.0	0.004	Yes	2.773	-0.004	1.0	GoodResponse	0	0.17	n/a	0	1	ButtonPress	AvoidedLoss	True
24.974	0.31	Lose2	1.0	n/a	Yes	2.773	n/a	n/a	GoodResponse	0	n/a	n/a	0	1	Blank	AvoidedLoss	True
25.275	1.45	Lose2	1.0	n/a	Yes	2.773	n/a	5.0	GoodResponse	0	0.017	24.292	0	1	Feedback	AvoidedLoss	True
26.729	2.773	Lose2	1.0	n/a	Yes	2.773	n/a	n/a	GoodResponse	0	0.0	n/a	0	1	ISIslide	AvoidedLoss	True
29.521	0.25	Control	1.0	0.0	Yes	2.579	0.021	n/a	GoodResponse	0	n/a	n/a	0	2	Cue	Neutral	True
29.772	4.1	Control	1.0	0.0	Yes	2.579	0.001	n/a	GoodResponse	0	n/a	n/a	0	2	Fixation	Neutral	True
33.867	0.38	Control	1.0	0.004	Yes	2.579	-0.004	1.0	GoodResponse	0	0.205	33.072	0	2	Target	Neutral	True
34.072	0.3	Control	1.0	0.004	Yes	2.579	-0.004	1.0	GoodResponse	0	0.205	n/a	0	2	ButtonPress	Neutral	True
34.252	0.32	Control	1.0	n/a	Yes	2.579	n/a	n/a	GoodResponse	0	n/a	n/a	0	2	Blank	Neutral	True
34.569	1.45	Control	1.0	n/a	Yes	2.579	n/a	5.0	GoodResponse	0	0.04	33.609	0	2	Feedback	Neutral	True
36.024	2.579	Control	1.0	n/a	Yes	2.579	n/a	n/a	GoodResponse	0	0.0	n/a	0	2	ISIslide	Neutral	True
38.615	0.25	Win2	1.0	0.0	Yes	2.835	0.015	n/a	GoodResponse	1	n/a	n/a	1	3	Cue	Win	True
38.866	3.95	Win2	1.0	0.0	Yes	2.835	0.001	n/a	GoodResponse	1	n/a	n/a	1	3	Fixation	Win	True
42.811	0.37	Win2	1.0	0.004	Yes	2.835	-0.004	1.0	GoodResponse	1	0.192	42.003	1	3	Target	Win	True
43.003	0.3	Win2	1.0	0.004	Yes	2.835	-0.004	1.0	GoodResponse	1	0.192	n/a	1	3	ButtonPress	Win	True
43.195	0.33	Win2	1.0	n/a	Yes	2.835	n/a	n/a	GoodResponse	1	n/a	n/a	1	3	Blank	Win	True
43.513	1.45	Win2	1.0	n/a	Yes	2.835	n/a	5.0	GoodResponse	1	0.022	42.535	1	3	Feedback	Win	True
44.967	2.835	Win2	1.0	n/a	Yes	2.835	n/a	n/a	GoodResponse	1	0.0	n/a	1	3	ISIslide	Win	True
47.826	0.25	Win2	1.0	0.0	Yes	3.274	0.026	n/a	GoodResponse	1	n/a	n/a	2	4	Cue	Win	True
48.076	4.0	Win2	1.0	0.0	Yes	3.274	0.0	n/a	GoodResponse	1	n/a	n/a	2	4	Fixation	Win	True
52.072	0.36	Win2	1.0	0.004	Yes	3.274	-0.004	1.0	GoodResponse	1	0.196	51.268	2	4	Target	Win	True
52.268	0.3	Win2	1.0	0.004	Yes	3.274	-0.004	1.0	GoodResponse	1	0.196	n/a	2	4	ButtonPress	Win	True
52.439	0.34	Win2	1.0	n/a	Yes	3.274	n/a	n/a	GoodResponse	1	n/a	n/a	2	4	Blank	Win	True
52.774	1.45	Win2	1.0	n/a	Yes	3.274	n/a	5.0	GoodResponse	1	0.029	51.803	2	4	Feedback	Win	True
54.228	3.274	Win2	1.0	n/a	Yes	3.274	n/a	n/a	GoodResponse	1	0.0	n/a	2	4	ISIslide	Win	True
57.521	0.25	Win2	1.0	0.0	Yes	2.779	0.021	n/a	GoodResponse	1	n/a	n/a	3	5	Cue	Win	True
57.772	4.0	Win2	1.0	0.0	Yes	2.779	0.001	n/a	GoodResponse	1	n/a	n/a	3	5	Fixation	Win	True
61.767	0.35	Win2	1.0	0.004	Yes	2.779	-0.004	1.0	GoodResponse	1	0.185	60.952	3	5	Target	Win	True
61.952	0.3	Win2	1.0	0.004	Yes	2.779	-0.004	1.0	GoodResponse	1	0.185	n/a	3	5	ButtonPress	Win	True
62.118	0.35	Win2	1.0	n/a	Yes	2.779	n/a	n/a	GoodResponse	1	n/a	n/a	3	5	Blank	Win	True
62.469	1.45	Win2	1.0	n/a	Yes	2.779	n/a	5.0	GoodResponse	1	0.042	61.511	3	5	Feedback	Win	True
63.924	2.779	Win2	1.0	n/a	Yes	2.779	n/a	n/a	GoodResponse	1	0.0	n/a	3	5	ISIslide	Win	True
66.715	0.25	Lose2	1.0	0.0	Yes	2.735	0.015	n/a	GoodResponse	0	n/a	n/a	3	6	Cue	AvoidedLoss	True
66.966	3.95	Lose2	1.0	0.0	Yes	2.735	0.001	n/a	GoodResponse	0	n/a	n/a	3	6	Fixation	AvoidedLoss	True
70.911	0.34	Lose2	1.0	0.004	Yes	2.735	-0.004	1.0	GoodResponse	0	0.24	70.151	3	6	Target	AvoidedLoss	True
71.151	0.3	Lose2	1.0	0.004	Yes	2.735	-0.004	1.0	GoodResponse	0	0.24	n/a	3	6	ButtonPress	AvoidedLoss	True
71.262	0.36	Lose2	1.0	n/a	Yes	2.735	n/a	n/a	GoodResponse	0	n/a	n/a	3	6	Blank	AvoidedLoss	True
71.613	1.45	Lose2	1.0	n/a	Yes	2.735	n/a	5.0	GoodResponse	0	0.02	70.633	3	6	Feedback	AvoidedLoss	True
73.068	2.735	Lose2	1.0	n/a	Yes	2.735	n/a	n/a	GoodResponse	0	0.0	n/a	3	6	ISIslide	AvoidedLoss	True
75.826	0.25	Lose2	1.0	0.0	Yes	4.024	0.026	n/a	GoodResponse	0	n/a	n/a	3	7	Cue	AvoidedLoss	True
76.077	4.05	Lose2	1.0	0.0	Yes	4.024	0.001	n/a	GoodResponse	0	n/a	n/a	3	7	Fixation	AvoidedLoss	True
80.122	0.33	Lose2	1.0	0.004	Yes	4.024	-0.004	1.0	GoodResponse	0	0.211	79.333	3	7	Target	AvoidedLoss	True
80.333	0.3	Lose2	1.0	0.004	Yes	4.024	-0.004	1.0	GoodResponse	0	0.211	n/a	3	7	ButtonPress	AvoidedLoss	True
80.456	0.37	Lose2	1.0	n/a	Yes	4.024	n/a	n/a	GoodResponse	0	n/a	n/a	3	7	Blank	AvoidedLoss	True
80.824	1.45	Lose2	1.0	n/a	Yes	4.024	n/a	5.0	GoodResponse	0	0.027	79.851	3	7	Feedback	AvoidedLoss	True
82.279	4.024	Lose2	1.0	n/a	Yes	4.024	n/a	n/a	GoodResponse	0	0.0	n/a	3	7	ISIslide	AvoidedLoss	True
86.324	0.25	Lose2	1.0	0.0	Yes	3.026	0.024	n/a	GoodResponse	0	n/a	n/a	3	8	Cue	AvoidedLoss	True
86.575	3.95	Lose2	1.0	0.0	Yes	3.026	0.001	n/a	GoodResponse	0	n/a	n/a	3	8	Fixation	AvoidedLoss	True
90.52	0.32	Lose2	1.0	0.004	Yes	3.026	-0.004	1.0	GoodResponse	0	0.2	89.72	3	8	Target	AvoidedLoss	True
90.72	0.3	Lose2	1.0	0.004	Yes	3.026	-0.004	1.0	GoodResponse	0	0.2	n/a	3	8	ButtonPress	AvoidedLoss	True
90.854	0.38	Lose2	1.0	n/a	Yes	3.026	n/a	n/a	GoodResponse	0	n/a	n/a	3	8	Blank	AvoidedLoss	True
91.222	1.45	Lose2	1.0	n/a	Yes	3.026	n/a	5.0	GoodResponse	0	0.02	90.242	3	8	Feedback	AvoidedLoss	True
92.676	3.026	Lose2	1.0	n/a	Yes	3.026	n/a	n/a	GoodResponse	0	0.0	n/a	3	8	ISIslide	AvoidedLoss	True
95.719	0.25	Lose2	1.0	0.0	Yes	3.131	0.019	n/a	GoodResponse	0	n/a	n/a	3	9	Cue	AvoidedLoss	True
95.969	3.95	Lose2	1.0	0.0	Yes	3.131	0.0	n/a	GoodResponse	0	n/a	n/a	3	9	Fixation	AvoidedLoss	True
99.915	0.31	Lose2	1.0	0.004	Yes	3.131	-0.004	1.0	GoodResponse	0	0.206	99.121	3	9	Target	AvoidedLoss	True
100.121	0.3	Lose2	1.0	0.004	Yes	3.131	-0.004	1.0	GoodResponse	0	0.206	n/a	3	9	ButtonPress	AvoidedLoss	True
100.232	0.39	Lose2	1.0	n/a	Yes	3.131	n/a	n/a	GoodResponse	0	n/a	n/a	3	9	Blank	AvoidedLoss	True
100.617	1.45	Lose2	1.0	n/a	Yes	3.131	n/a	5.0	GoodResponse	0	0.039	99.656	3	9	Feedback	AvoidedLoss	True
102.071	3.131	Lose2	1.0	n/a	Yes	3.131	n/a	n/a	GoodResponse	0	0.0	n/a	3	9	ISIslide	AvoidedLoss	True
105.214	0.25	Control	1.0	0.0	Yes	3.286	0.014	n/a	GoodResponse	0	n/a	n/a	3	10	Cue	Neutral	True
105.464	4.0	Control	1.0	0.001	Yes	3.286	0.0	n/a	GoodResponse	0	n/a	n/a	3	10	Fixation	Neutral	True
109.46	0.3	Control	1.0	0.004	Yes	3.286	-0.004	1.0	GoodResponse	0	0.209	108.669	3	10	Target	Neutral	True
109.669	0.3	Control	1.0	0.004	Yes	3.286	-0.004	1.0	GoodResponse	0	0.209	n/a	3	10	ButtonPress	Neutral	True
109.761	0.4	Control	1.0	n/a	Yes	3.286	n/a	n/a	GoodResponse	0	n/a	n/a	3	10	Blank	Neutral	True
110.162	1.45	Control	1.0	n/a	Yes	3.286	n/a	5.0	GoodResponse	0	0.007	109.169	3	10	Feedback	Neutral	True
111.616	3.286	Control	1.0	n/a	Yes	3.286	n/a	n/a	GoodResponse	0	0.0	n/a	3	10	ISIslide	Neutral	True
114.926	0.25	Lose2	1.0	0.0	Yes	2.724	0.026	n/a	GoodResponse	0	n/a	n/a	3	11	Cue	AvoidedLoss	True
115.177	4.05	Lose2	1.0	0.0	Yes	2.724	0.001	n/a	GoodResponse	0	n/a	n/a	3	11	Fixation	AvoidedLoss	True
119.222	0.29	Lose2	1.0	0.004	Yes	2.724	-0.004	1.0	GoodResponse	0	0.188	118.41	3	11	Target	AvoidedLoss	True
119.41	0.3	Lose2	1.0	0.004	Yes	2.724	-0.004	1.0	GoodResponse	0	0.188	n/a	3	11	ButtonPress	AvoidedLoss	True
119.523	0.41	Lose2	1.0	n/a	Yes	2.724	n/a	n/a	GoodResponse	0	n/a	n/a	3	11	Blank	AvoidedLoss	True
119.924	1.45	Lose2	1.0	n/a	Yes	2.724	n/a	5.0	GoodResponse	0	0.049	118.973	3	11	Feedback	AvoidedLoss	True
121.379	2.724	Lose2	1.0	n/a	Yes	2.724	n/a	n/a	GoodResponse	0	0.0	n/a	3	11	ISIslide	AvoidedLoss	True
124.12	0.25	Control	0.9231	0.0	No	2.98	0.02	n/a	NoResponse	0	n/a	n/a	3	12	Cue	Neutral	True
124.371	3.9	Control	0.9231	0.0	No	2.98	0.001	n/a	NoResponse	0	n/a	n/a	3	12	Fixation	Neutral	True
128.266	0.28	Control	0.9231	0.004	No	2.98	-0.004	1.0	NoResponse	0	0.291	127.557	3	12	Target	Neutral	True
128.55	0.42	Control	0.9231	n/a	No	2.98	n/a	n/a	NoResponse	0	n/a	n/a	3	12	Blank	Neutral	True
128.557	0.3	Control	0.9231	0.004	No	2.98	-0.004	1.0	NoResponse	0	0.291	n/a	3	12	ButtonPress	Neutral	True
128.968	1.45	Control	0.9231	n/a	No	2.98	n/a	5.0	NoResponse	0	0.029	127.997	3	12	Feedback	Neutral	True
130.422	2.98	Control	0.9231	n/a	No	2.98	n/a	n/a	NoResponse	0	0.0	n/a	3	12	ISIslide	Neutral	True
133.415	0.25	Control	0.9286	0.0	Yes	2.785	0.015	n/a	GoodResponse	0	n/a	n/a	3	13	Cue	Neutral	True
133.665	4.0	Control	0.9286	0.0	Yes	2.785	0.0	n/a	GoodResponse	0	n/a	n/a	3	13	Fixation	Neutral	True
137.661	0.27	Control	0.9286	0.004	Yes	2.785	-0.004	1.0	GoodResponse	0	0.161	136.822	3	13	Target	Neutral	True
137.822	0.3	Control	0.9286	0.004	Yes	2.785	-0.004	1.0	GoodResponse	0	0.161	n/a	3	13	ButtonPress	Neutral	True
137.945	0.43	Control	0.9286	n/a	Yes	2.785	n/a	n/a	GoodResponse	0	n/a	n/a	3	13	Blank	Neutral	True
138.363	1.45	Control	0.9286	n/a	Yes	2.785	n/a	5.0	GoodResponse	0	0.0	137.363	3	13	Feedback	Neutral	True
139.817	2.785	Control	0.9286	n/a	Yes	2.785	n/a	n/a	GoodResponse	0	0.0	n/a	3	13	ISIslide	Neutral	True
142.625	0.25	Win2	0.9333	0.0	Yes	2.675	0.025	n/a	GoodResponse	1	n/a	n/a	4	14	Cue	Win	True
142.876	4.1	Win2	0.9333	0.0	Yes	2.675	0.001	n/a	GoodResponse	1	n/a	n/a	4	14	Fixation	Win	True
146.972	0.26	Win2	0.9333	0.003	Yes	2.675	-0.003	1.0	GoodResponse	1	0.173	146.145	4	14	Target	Win	True
147.145	0.3	Win2	0.9333	0.003	Yes	2.675	-0.003	1.0	GoodResponse	1	0.173	n/a	4	14	ButtonPress	Win	True
147.239	0.44	Win2	0.9333	n/a	Yes	2.675	n/a	n/a	GoodResponse	1	n/a	n/a	4	14	Blank	Win	True
147.674	1.45	Win2	0.9333	n/a	Yes	2.675	n/a	5.0	GoodResponse	1	0.006	146.68	4	14	Feedback	Win	True
149.128	2.675	Win2	0.9333	n/a	Yes	2.675	n/a	n/a	GoodResponse	1	0.0	n/a	4	14	ISIslide	Win	True
151.82	0.25	Control	0.9375	0.0	Yes	2.98	0.02	n/a	GoodResponse	0	n/a	n/a	4	15	Cue	Neutral	True
152.07	4.0	Control	0.9375	0.0	Yes	2.98	0.0	n/a	GoodResponse	0	n/a	n/a	4	15	Fixation	Neutral	True
156.066	0.25	Control	0.9375	0.004	Yes	2.98	-0.004	1.0	GoodResponse	0	0.201	155.267	4	15	Target	Neutral	True
156.267	0.3	Control	0.9375	0.004	Yes	2.98	-0.004	1.0	GoodResponse	0	0.201	n/a	4	15	ButtonPress	Neutral	True
156.316	0.45	Control	0.9375	n/a	Yes	2.98	n/a	n/a	GoodResponse	0	n/a	n/a	4	15	Blank	Neutral	True
156.768	1.45	Control	0.9375	n/a	Yes	2.98	n/a	5.0	GoodResponse	0	0.033	155.801	4	15	Feedback	Neutral	True
158.222	2.98	Control	0.9375	n/a	Yes	2.98	n/a	n/a	GoodResponse	0	0.0	n/a	4	15	ISIslide	Neutral	True
161.214	0.25	Win2	0.9412	0.0	Yes	2.886	0.014	n/a	GoodResponse	1	n/a	n/a	5	16	Cue	Win	True
161.465	4.0	Win2	0.9412	0.0	Yes	2.886	0.001	n/a	GoodResponse	1	n/a	n/a	5	16	Fixation	Win	True
165.46	0.24	Win2	0.9412	0.004	Yes	2.886	-0.004	1.0	GoodResponse	1	0.221	164.681	5	16	Target	Win	True
165.681	0.3	Win2	0.9412	0.004	Yes	2.886	-0.004	1.0	GoodResponse	1	0.221	n/a	5	16	ButtonPress	Win	True
165.711	0.46	Win2	0.9412	n/a	Yes	2.886	n/a	n/a	GoodResponse	1	n/a	n/a	5	16	Blank	Win	True
166.162	1.45	Win2	0.9412	n/a	Yes	2.886	n/a	5.0	GoodResponse	1	0.006	165.168	5	16	Feedback	Win	True
167.617	2.886	Win2	0.9412	n/a	Yes	2.886	n/a	n/a	GoodResponse	1	0.0	n/a	5	16	ISIslide	Win	True
170.525	0.25	Lose2	0.9444	0.0	Yes	2.725	0.025	n/a	GoodResponse	0	n/a	n/a	5	17	Cue	AvoidedLoss	True
170.776	3.95	Lose2	0.9444	0.0	Yes	2.725	0.001	n/a	GoodResponse	0	n/a	n/a	5	17	Fixation	AvoidedLoss	True
174.721	0.23	Lose2	0.9444	0.004	Yes	2.725	-0.004	1.0	GoodResponse	0	0.212	173.933	5	17	Target	AvoidedLoss	True
174.933	0.3	Lose2	0.9444	0.004	Yes	2.725	-0.004	1.0	GoodResponse	0	0.212	n/a	5	17	ButtonPress	AvoidedLoss	True
174.955	0.47	Lose2	0.9444	n/a	Yes	2.725	n/a	n/a	GoodResponse	0	n/a	n/a	5	17	Blank	AvoidedLoss	True
175.423	1.45	Lose2	0.9444	n/a	Yes	2.725	n/a	5.0	GoodResponse	0	0.013	174.436	5	17	Feedback	AvoidedLoss	True
176.878	2.725	Lose2	0.9444	n/a	Yes	2.725	n/a	n/a	GoodResponse	0	0.0	n/a	5	17	ISIslide	AvoidedLoss	True
179.619	0.25	Lose2	0.9473999999999999	0.0	Yes	2.731	0.019	n/a	GoodResponse	0	n/a	n/a	5	18	Cue	AvoidedLoss	True
179.87	4.05	Lose2	0.9473999999999999	0.0	Yes	2.731	0.001	n/a	GoodResponse	0	n/a	n/a	5	18	Fixation	AvoidedLoss	True
183.915	0.22	Lose2	0.9473999999999999	0.004	Yes	2.731	-0.004	1.0	GoodResponse	0	0.169	183.084	5	18	Target	AvoidedLoss	True
184.084	0.3	Lose2	0.9473999999999999	0.004	Yes	2.731	-0.004	1.0	GoodResponse	0	0.169	n/a	5	18	ButtonPress	AvoidedLoss	True
184.149	0.48	Lose2	0.9473999999999999	n/a	Yes	2.731	n/a	n/a	GoodResponse	0	n/a	n/a	5	18	Blank	AvoidedLoss	True
184.617	1.45	Lose2	0.9473999999999999	n/a	Yes	2.731	n/a	5.0	GoodResponse	0	0.038	183.655	5	18	Feedback	AvoidedLoss	True
186.072	2.731	Lose2	0.9473999999999999	n/a	Yes	2.731	n/a	n/a	GoodResponse	0	0.0	n/a	5	18	ISIslide	AvoidedLoss	True
188.83	0.25	Control	0.9	0.0	No	2.92	0.03	n/a	LatePress	0	n/a	n/a	5	19	Cue	Neutral	True
189.081	3.95	Control	0.9	0.0	No	2.92	0.001	n/a	LatePress	0	n/a	n/a	5	19	Fixation	Neutral	True
193.026	0.21	Control	0.9	0.004	No	2.92	-0.004	1.0	LatePress	0	0.21	192.236	5	19	Target	Neutral	True
193.236	0.3	Control	0.9	0.004	No	2.92	-0.004	1.0	LatePress	0	0.21	n/a	5	19	ButtonPress	Neutral	True
193.243	0.49	Control	0.9	n/a	No	2.92	n/a	n/a	LatePress	0	n/a	n/a	5	19	Blank	Neutral	True
193.728	1.45	Control	0.9	n/a	No	2.92	n/a	5.0	LatePress	0	0.0	192.728	5	19	Feedback	Neutral	True
195.182	2.92	Control	0.9	n/a	No	2.92	n/a	n/a	LatePress	0	0.0	n/a	5	19	ISIslide	Neutral	True
198.124	0.25	Control	0.9048	0.001	Yes	2.626	0.024	n/a	GoodResponse	0	n/a	n/a	5	20	Cue	Neutral	True
198.375	4.05	Control	0.9048	0.0	Yes	2.626	0.001	n/a	GoodResponse	0	n/a	n/a	5	20	Fixation	Neutral	True
202.421	0.2	Control	0.9048	0.003	Yes	2.626	-0.003	1.0	GoodResponse	0	0.193	201.614	5	20	Target	Neutral	True
202.614	0.3	Control	0.9048	0.003	Yes	2.626	-0.003	1.0	GoodResponse	0	0.193	n/a	5	20	ButtonPress	Neutral	True
202.621	0.5	Control	0.9048	n/a	Yes	2.626	n/a	n/a	GoodResponse	0	n/a	n/a	5	20	Blank	Neutral	True
203.123	1.45	Control	0.9048	n/a	Yes	2.626	n/a	5.0	GoodResponse	0	0.019	202.142	5	20	Feedback	Neutral	True
204.577	2.626	Control	0.9048	n/a	Yes	2.626	n/a	n/a	GoodResponse	0	0.0	n/a	5	20	ISIslide	Neutral	True
207.218	0.25	Control	0.9091	0.0	Yes	2.782	0.018	n/a	GoodResponse	0	n/a	n/a	5	21	Cue	Neutral	True
207.469	4.1	Control	0.9091	0.0	Yes	2.782	0.001	n/a	GoodResponse	0	n/a	n/a	5	21	Fixation	Neutral	True
211.565	0.19	Control	0.9091	0.003	Yes	2.782	-0.003	1.0	GoodResponse	0	0.185	210.75	5	21	Target	Neutral	True
211.75	0.3	Control	0.9091	0.003	Yes	2.782	-0.003	1.0	GoodResponse	0	0.185	n/a	5	21	ButtonPress	Neutral	True
211.765	0.51	Control	0.9091	n/a	Yes	2.782	n/a	n/a	GoodResponse	0	n/a	n/a	5	21	Blank	Neutral	True
212.267	1.45	Control	0.9091	n/a	Yes	2.782	n/a	5.0	GoodResponse	0	0.046	211.313	5	21	Feedback	Neutral	True
213.721	2.782	Control	0.9091	n/a	Yes	2.782	n/a	n/a	GoodResponse	0	0.0	n/a	5	21	ISIslide	Neutral	True
216.529	0.25	Control	0.8695999999999999	0.001	No	2.771	0.029	n/a	NoResponse	0	n/a	n/a	5	22	Cue	Neutral	True
216.78	4.0	Control	0.8695999999999999	0.0	No	2.771	0.001	n/a	NoResponse	0	n/a	n/a	5	22	Fixation	Neutral	True
220.775	0.18	Control	0.8695999999999999	0.004	No	2.771	-0.004	1.0	NoResponse	0	0.191	219.966	5	22	Target	Neutral	True
220.959	0.52	Control	0.8695999999999999	n/a	No	2.771	n/a	n/a	NoResponse	0	n/a	n/a	5	22	Blank	Neutral	True
220.966	0.3	Control	0.8695999999999999	0.004	No	2.771	-0.004	1.0	NoResponse	0	0.191	n/a	5	22	ButtonPress	Neutral	True
221.478	1.45	Control	0.8695999999999999	n/a	No	2.771	n/a	5.0	NoResponse	0	0.006	220.484	5	22	Feedback	Neutral	True
222.932	2.771	Control	0.8695999999999999	n/a	No	2.771	n/a	n/a	NoResponse	0	0.0	n/a	5	22	ISIslide	Neutral	True
225.724	0.25	Control	0.8332999999999999	0.0	No	2.776	0.024	n/a	NoResponse	0	n/a	n/a	5	23	Cue	Neutral	True
225.974	3.9	Control	0.8332999999999999	0.0	No	2.776	0.0	n/a	NoResponse	0	n/a	n/a	5	23	Fixation	Neutral	True
229.886	0.17	Control	0.8332999999999999	0.0	No	2.776	0.012	1.0	NoResponse	0	0.201	229.087	5	23	Target	Neutral	True
230.053	0.53	Control	0.8332999999999999	n/a	No	2.776	n/a	n/a	NoResponse	0	n/a	n/a	5	23	Blank	Neutral	True
230.087	0.3	Control	0.8332999999999999	0.0	No	2.776	0.012	1.0	NoResponse	0	0.201	n/a	5	23	ButtonPress	Neutral	True
230.571	1.45	Control	0.8332999999999999	n/a	No	2.776	n/a	5.0	NoResponse	0	0.034	229.605	5	23	Feedback	Neutral	True
232.026	2.776	Control	0.8332999999999999	n/a	No	2.776	n/a	n/a	NoResponse	0	0.0	n/a	5	23	ISIslide	Neutral	True
234.817	0.25	Win2	0.8	0.0	No	3.133	0.017	n/a	NoResponse	0	n/a	n/a	5	24	Cue	MissedWin	True
235.068	3.95	Win2	0.8	0.0	No	3.133	0.001	n/a	NoResponse	0	n/a	n/a	5	24	Fixation	MissedWin	True
239.013	0.16	Win2	0.8	0.004	No	3.133	-0.004	1.0	NoResponse	0	0.185	238.198	5	24	Target	MissedWin	True
239.18	0.54	Win2	0.8	n/a	No	3.133	n/a	n/a	NoResponse	0	n/a	n/a	5	24	Blank	MissedWin	True
239.198	0.3	Win2	0.8	0.004	No	3.133	-0.004	1.0	NoResponse	0	0.185	n/a	5	24	ButtonPress	MissedWin	True
239.715	1.45	Win2	0.8	n/a	No	3.133	n/a	5.0	NoResponse	0	0.012	238.727	5	24	Feedback	MissedWin	True
241.17	3.133	Win2	0.8	n/a	No	3.133	n/a	n/a	NoResponse	0	0.0	n/a	5	24	ISIslide	MissedWin	True
244.329	0.25	Win2	0.7692	0.0	No	3.071	0.029	n/a	NoResponse	0	n/a	n/a	5	25	Cue	MissedWin	True
244.58	4.0	Win2	0.7692	0.0	No	3.071	0.001	n/a	NoResponse	0	n/a	n/a	5	25	Fixation	MissedWin	True
248.575	0.15	Win2	0.7692	0.004	No	3.071	-0.004	1.0	NoResponse	0	0.176	247.751	5	25	Target	MissedWin	True
248.726	0.55	Win2	0.7692	n/a	No	3.071	n/a	n/a	NoResponse	0	n/a	n/a	5	25	Blank	MissedWin	True
248.751	0.3	Win2	0.7692	0.004	No	3.071	-0.004	1.0	NoResponse	0	0.176	n/a	5	25	ButtonPress	MissedWin	True
249.277	1.45	Win2	0.7692	n/a	No	3.071	n/a	5.0	NoResponse	0	0.011	248.288	5	25	Feedback	MissedWin	True
250.732	3.071	Win2	0.7692	n/a	No	3.071	n/a	n/a	NoResponse	0	0.0	n/a	5	25	ISIslide	MissedWin	True
253.824	0.25	Win2	0.7406999999999999	0.0	No	2.926	0.024	n/a	NoResponse	0	n/a	n/a	5	26	Cue	MissedWin	True
254.075	3.95	Win2	0.7406999999999999	0.0	No	2.926	0.001	n/a	NoResponse	0	n/a	n/a	5	26	Fixation	MissedWin	True
258.02	0.15	Win2	0.7406999999999999	0.004	No	2.926	-0.004	1.0	NoResponse	0	0.192	257.212	5	26	Target	MissedWin	True
258.17	0.55	Win2	0.7406999999999999	n/a	No	2.926	n/a	n/a	NoResponse	0	n/a	n/a	5	26	Blank	MissedWin	True
258.212	0.3	Win2	0.7406999999999999	0.004	No	2.926	-0.004	1.0	NoResponse	0	0.192	n/a	5	26	ButtonPress	MissedWin	True
258.722	1.45	Win2	0.7406999999999999	n/a	No	2.926	n/a	5.0	NoResponse	0	0.03	257.752	5	26	Feedback	MissedWin	True
260.176	2.926	Win2	0.7406999999999999	n/a	No	2.926	n/a	n/a	NoResponse	0	0.0	n/a	5	26	ISIslide	MissedWin	True
263.119	0.25	Lose2	0.7143	0.0	No	2.831	0.019	n/a	NoResponse	-1	n/a	n/a	4	27	Cue	Loss	True
263.369	4.05	Lose2	0.7143	0.0	No	2.831	0.0	n/a	NoResponse	-1	n/a	n/a	4	27	Fixation	Loss	True
267.415	0.15	Lose2	0.7143	0.004	No	2.831	-0.004	1.0	NoResponse	-1	0.172	266.587	4	27	Target	Loss	True
267.565	0.55	Lose2	0.7143	n/a	No	2.831	n/a	n/a	NoResponse	-1	n/a	n/a	4	27	Blank	Loss	True
267.587	0.3	Lose2	0.7143	0.004	No	2.831	-0.004	1.0	NoResponse	-1	0.172	n/a	4	27	ButtonPress	Loss	True
268.117	1.45	Lose2	0.7143	n/a	No	2.831	n/a	5.0	NoResponse	-1	0.0	267.117	4	27	Feedback	Loss	True
269.571	2.831	Lose2	0.7143	n/a	No	2.831	n/a	n/a	NoResponse	-1	0.0	n/a	4	27	ISIslide	Loss	True
272.43	0.25	Control	0.6897	0.0	No	2.82	0.03	n/a	NoResponse	0	n/a	n/a	4	28	Cue	Neutral	True
272.68	4.05	Control	0.6897	0.001	No	2.82	0.0	n/a	NoResponse	0	n/a	n/a	4	28	Fixation	Neutral	True
276.726	0.15	Control	0.6897	0.004	No	2.82	-0.004	1.0	NoResponse	0	0.195	275.921	4	28	Target	Neutral	True
276.876	0.55	Control	0.6897	n/a	No	2.82	n/a	n/a	NoResponse	0	n/a	n/a	4	28	Blank	Neutral	True
276.921	0.3	Control	0.6897	0.004	No	2.82	-0.004	1.0	NoResponse	0	0.195	n/a	4	28	ButtonPress	Neutral	True
277.428	1.45	Control	0.6897	n/a	No	2.82	n/a	5.0	NoResponse	0	0.006	276.434	4	28	Feedback	Neutral	True
278.882	2.82	Control	0.6897	n/a	No	2.82	n/a	n/a	NoResponse	0	0.0	n/a	4	28	ISIslide	Neutral	True
281.724	0.25	Lose2	0.6667000000000001	0.0	No	2.826	0.024	n/a	NoResponse	-1	n/a	n/a	3	29	Cue	Loss	True
281.975	3.95	Lose2	0.6667000000000001	0.0	No	2.826	0.001	n/a	NoResponse	-1	n/a	n/a	3	29	Fixation	Loss	True
285.92	0.15	Lose2	0.6667000000000001	0.004	No	2.826	-0.004	1.0	NoResponse	-1	0.166	285.086	3	29	Target	Loss	True
286.07	0.55	Lose2	0.6667000000000001	n/a	No	2.826	n/a	n/a	NoResponse	-1	n/a	n/a	3	29	Blank	Loss	True
286.086	0.3	Lose2	0.6667000000000001	0.004	No	2.826	-0.004	1.0	NoResponse	-1	0.166	n/a	3	29	ButtonPress	Loss	True
286.622	1.45	Lose2	0.6667000000000001	n/a	No	2.826	n/a	5.0	NoResponse	-1	0.031	285.653	3	29	Feedback	Loss	True
288.076	2.826	Lose2	0.6667000000000001	n/a	No	2.826	n/a	n/a	NoResponse	-1	0.0	n/a	3	29	ISIslide	Loss	True
290.918	0.25	Win2	0.6452	0.0	No	2.782	0.018	n/a	NoResponse	0	n/a	n/a	3	30	Cue	MissedWin	True
291.169	3.9	Win2	0.6452	0.0	No	2.782	0.001	n/a	NoResponse	0	n/a	n/a	3	30	Fixation	MissedWin	True
295.064	0.15	Win2	0.6452	0.004	No	2.782	-0.004	1.0	NoResponse	0	0.191	294.255	3	30	Target	MissedWin	True
295.214	0.55	Win2	0.6452	n/a	No	2.782	n/a	n/a	NoResponse	0	n/a	n/a	3	30	Blank	MissedWin	True
295.255	0.3	Win2	0.6452	0.004	No	2.782	-0.004	1.0	NoResponse	0	0.191	n/a	3	30	ButtonPress	MissedWin	True
295.766	1.45	Win2	0.6452	n/a	No	2.782	n/a	5.0	NoResponse	0	0.009	294.775	3	30	Feedback	MissedWin	True
297.22	2.782	Win2	0.6452	n/a	No	2.782	n/a	n/a	NoResponse	0	0.0	n/a	3	30	ISIslide	MissedWin	True
300.029	0.25	Lose2	0.625	0.0	No	2.821	0.029	n/a	NoResponse	-1	n/a	n/a	2	31	Cue	Loss	True
300.28	4.05	Lose2	0.625	0.0	No	2.821	0.001	n/a	NoResponse	-1	n/a	n/a	2	31	Fixation	Loss	True
304.325	0.16	Lose2	0.625	0.004	No	2.821	-0.004	1.0	NoResponse	-1	0.174	303.499	2	31	Target	Loss	True
304.492	0.54	Lose2	0.625	n/a	No	2.821	n/a	n/a	NoResponse	-1	n/a	n/a	2	31	Blank	Loss	True
304.499	0.3	Lose2	0.625	0.004	No	2.821	-0.004	1.0	NoResponse	-1	0.174	n/a	2	31	ButtonPress	Loss	True
305.027	1.45	Lose2	0.625	n/a	No	2.821	n/a	5.0	NoResponse	-1	0.016	304.043	2	31	Feedback	Loss	True
306.481	2.821	Lose2	0.625	n/a	No	2.821	n/a	n/a	NoResponse	-1	0.0	n/a	2	31	ISIslide	Loss	True
309.323	0.25	Lose2	0.6364	0.0	Yes	2.627	0.023	n/a	GoodResponse	0	n/a	n/a	2	32	Cue	AvoidedLoss	True
309.574	4.15	Lose2	0.6364	0.0	Yes	2.627	0.001	n/a	GoodResponse	0	n/a	n/a	2	32	Fixation	AvoidedLoss	True
313.72	0.17	Lose2	0.6364	0.003	Yes	2.627	-0.003	1.0	GoodResponse	0	0.164	312.884	2	32	Target	AvoidedLoss	True
313.884	0.3	Lose2	0.6364	0.003	Yes	2.627	-0.003	1.0	GoodResponse	0	0.164	n/a	2	32	ButtonPress	AvoidedLoss	True
313.904	0.53	Lose2	0.6364	n/a	Yes	2.627	n/a	n/a	GoodResponse	0	n/a	n/a	2	32	Blank	AvoidedLoss	True
314.422	1.45	Lose2	0.6364	n/a	Yes	2.627	n/a	5.0	GoodResponse	0	0.036	313.458	2	32	Feedback	AvoidedLoss	True
315.876	2.627	Lose2	0.6364	n/a	Yes	2.627	n/a	n/a	GoodResponse	0	0.0	n/a	2	32	ISIslide	AvoidedLoss	True
318.517	0.25	Win2	0.6470999999999999	0.0	Yes	2.683	0.017	n/a	GoodResponse	1	n/a	n/a	3	33	Cue	Win	True
318.768	4.0	Win2	0.6470999999999999	0.0	Yes	2.683	0.001	n/a	GoodResponse	1	n/a	n/a	3	33	Fixation	Win	True
322.763	0.18	Win2	0.6470999999999999	0.004	Yes	2.683	-0.004	1.0	GoodResponse	1	0.176	321.939	3	33	Target	Win	True
322.939	0.3	Win2	0.6470999999999999	0.004	Yes	2.683	-0.004	1.0	GoodResponse	1	0.176	n/a	3	33	ButtonPress	Win	True
322.947	0.52	Win2	0.6470999999999999	n/a	Yes	2.683	n/a	n/a	GoodResponse	1	n/a	n/a	3	33	Blank	Win	True
323.465	1.45	Win2	0.6470999999999999	n/a	Yes	2.683	n/a	5.0	GoodResponse	1	0.017	322.482	3	33	Feedback	Win	True
324.92	2.683	Win2	0.6470999999999999	n/a	Yes	2.683	n/a	n/a	GoodResponse	1	0.0	n/a	3	33	ISIslide	Win	True
327.628	0.25	Lose2	0.6570999999999999	0.0	Yes	2.622	0.028	n/a	GoodResponse	0	n/a	n/a	3	34	Cue	AvoidedLoss	True
327.879	4.05	Lose2	0.6570999999999999	0.0	Yes	2.622	0.001	n/a	GoodResponse	0	n/a	n/a	3	34	Fixation	AvoidedLoss	True
331.924	0.19	Lose2	0.6570999999999999	0.004	Yes	2.622	-0.004	1.0	GoodResponse	0	0.174	331.098	3	34	Target	AvoidedLoss	True
332.098	0.3	Lose2	0.6570999999999999	0.004	Yes	2.622	-0.004	1.0	GoodResponse	0	0.174	n/a	3	34	ButtonPress	AvoidedLoss	True
332.125	0.51	Lose2	0.6570999999999999	n/a	Yes	2.622	n/a	n/a	GoodResponse	0	n/a	n/a	3	34	Blank	AvoidedLoss	True
332.626	1.45	Lose2	0.6570999999999999	n/a	Yes	2.622	n/a	5.0	GoodResponse	0	0.027	331.653	3	34	Feedback	AvoidedLoss	True
334.081	2.622	Lose2	0.6570999999999999	n/a	Yes	2.622	n/a	n/a	GoodResponse	0	0.0	n/a	3	34	ISIslide	AvoidedLoss	True
336.722	0.25	Lose2	0.6667000000000001	0.0	Yes	2.678	0.022	n/a	GoodResponse	0	n/a	n/a	3	35	Cue	AvoidedLoss	True
336.972	4.0	Lose2	0.6667000000000001	0.001	Yes	2.678	0.0	n/a	GoodResponse	0	n/a	n/a	3	35	Fixation	AvoidedLoss	True
340.968	0.19	Lose2	0.6667000000000001	0.004	Yes	2.678	-0.004	1.0	GoodResponse	0	0.177	340.145	3	35	Target	AvoidedLoss	True
341.145	0.3	Lose2	0.6667000000000001	0.004	Yes	2.678	-0.004	1.0	GoodResponse	0	0.177	n/a	3	35	ButtonPress	AvoidedLoss	True
341.168	0.51	Lose2	0.6667000000000001	n/a	Yes	2.678	n/a	n/a	GoodResponse	0	n/a	n/a	3	35	Blank	AvoidedLoss	True
341.67	1.45	Lose2	0.6667000000000001	n/a	Yes	2.678	n/a	5.0	GoodResponse	0	0.006	340.676	3	35	Feedback	AvoidedLoss	True
343.124	2.678	Lose2	0.6667000000000001	n/a	Yes	2.678	n/a	n/a	GoodResponse	0	0.0	n/a	3	35	ISIslide	AvoidedLoss	True
345.816	0.25	Control	0.6486	0.0	No	2.684	0.016	n/a	LatePress	0	n/a	n/a	3	36	Cue	Neutral	True
346.066	4.0	Control	0.6486	0.0	No	2.684	0.0	n/a	LatePress	0	n/a	n/a	3	36	Fixation	Neutral	True
350.062	0.18	Control	0.6486	0.004	No	2.684	-0.004	1.0	LatePress	0	0.183	349.245	3	36	Target	Neutral	True
350.245	0.52	Control	0.6486	n/a	No	2.684	n/a	n/a	LatePress	0	n/a	n/a	3	36	Blank	Neutral	True
350.245	0.3	Control	0.6486	0.004	No	2.684	-0.004	1.0	LatePress	0	0.183	n/a	3	36	ButtonPress	Neutral	True
350.764	1.45	Control	0.6486	n/a	No	2.684	n/a	5.0	LatePress	0	0.034	349.798	3	36	Feedback	Neutral	True
352.218	2.684	Control	0.6486	n/a	No	2.684	n/a	n/a	LatePress	0	0.0	n/a	3	36	ISIslide	Neutral	True
354.926	0.25	Win2	0.6315999999999999	0.0	No	2.874	0.026	n/a	LatePress	0	n/a	n/a	3	37	Cue	MissedWin	True
355.177	4.0	Win2	0.6315999999999999	0.0	No	2.874	0.001	n/a	LatePress	0	n/a	n/a	3	37	Fixation	MissedWin	True
359.172	0.19	Win2	0.6315999999999999	0.004	No	2.874	-0.004	1.0	LatePress	0	0.196	358.368	3	37	Target	MissedWin	True
359.368	0.3	Win2	0.6315999999999999	0.004	No	2.874	-0.004	1.0	LatePress	0	0.196	n/a	3	37	ButtonPress	MissedWin	True
359.373	0.51	Win2	0.6315999999999999	n/a	No	2.874	n/a	n/a	LatePress	0	n/a	n/a	3	37	Blank	MissedWin	True
359.874	1.45	Win2	0.6315999999999999	n/a	No	2.874	n/a	5.0	LatePress	0	0.047	358.921	3	37	Feedback	MissedWin	True
361.329	2.874	Win2	0.6315999999999999	n/a	No	2.874	n/a	n/a	LatePress	0	0.0	n/a	3	37	ISIslide	MissedWin	True
364.221	0.25	Lose2	0.6154	0.0	No	2.829	0.021	n/a	NoResponse	-1	n/a	n/a	2	38	Cue	Loss	True
364.471	3.95	Lose2	0.6154	0.0	No	2.829	0.0	n/a	NoResponse	-1	n/a	n/a	2	38	Fixation	Loss	True
368.433	0.2	Lose2	0.6154	0.0	No	2.829	0.012	1.0	NoResponse	-1	0.194	367.627	2	38	Target	Loss	True
368.617	0.5	Lose2	0.6154	n/a	No	2.829	n/a	n/a	NoResponse	-1	n/a	n/a	2	38	Blank	Loss	True
368.627	0.3	Lose2	0.6154	0.0	No	2.829	0.012	1.0	NoResponse	-1	0.194	n/a	2	38	ButtonPress	Loss	True
369.118	1.45	Lose2	0.6154	n/a	No	2.829	n/a	5.0	NoResponse	-1	0.022	368.14	2	38	Feedback	Loss	True
370.573	2.829	Lose2	0.6154	n/a	No	2.829	n/a	n/a	NoResponse	-1	0.0	n/a	2	38	ISIslide	Loss	True
373.415	0.25	Win2	0.625	0.0	Yes	2.985	0.015	n/a	GoodResponse	1	n/a	n/a	3	39	Cue	Win	True
373.665	4.1	Win2	0.625	0.0	Yes	2.985	0.0	n/a	GoodResponse	1	n/a	n/a	3	39	Fixation	Win	True
377.761	0.21	Win2	0.625	0.004	Yes	2.985	-0.004	1.0	GoodResponse	1	0.18	376.941	3	39	Target	Win	True
377.941	0.3	Win2	0.625	0.004	Yes	2.985	-0.004	1.0	GoodResponse	1	0.18	n/a	3	39	ButtonPress	Win	True
377.978	0.49	Win2	0.625	n/a	Yes	2.985	n/a	n/a	GoodResponse	1	n/a	n/a	3	39	Blank	Win	True
378.463	1.45	Win2	0.625	n/a	Yes	2.985	n/a	5.0	GoodResponse	1	0.042	377.505	3	39	Feedback	Win	True
379.917	2.985	Win2	0.625	n/a	Yes	2.985	n/a	n/a	GoodResponse	1	0.0	n/a	3	39	ISIslide	Win	True
382.926	0.25	Win2	0.6341	0.0	Yes	2.724	0.026	n/a	GoodResponse	1	n/a	n/a	4	40	Cue	Win	True
383.177	3.95	Win2	0.6341	0.0	Yes	2.724	0.001	n/a	GoodResponse	1	n/a	n/a	4	40	Fixation	Win	True
387.122	0.22	Win2	0.6341	0.004	Yes	2.724	-0.004	1.0	GoodResponse	1	0.178	386.3	4	40	Target	Win	True
387.3	0.3	Win2	0.6341	0.004	Yes	2.724	-0.004	1.0	GoodResponse	1	0.178	n/a	4	40	ButtonPress	Win	True
387.356	0.48	Win2	0.6341	n/a	Yes	2.724	n/a	n/a	GoodResponse	1	n/a	n/a	4	40	Blank	Win	True
387.824	1.45	Win2	0.6341	n/a	Yes	2.724	n/a	5.0	GoodResponse	1	0.047	386.871	4	40	Feedback	Win	True
389.279	2.724	Win2	0.6341	n/a	Yes	2.724	n/a	n/a	GoodResponse	1	0.0	n/a	4	40	ISIslide	Win	True
392.02	0.25	Win2	0.6429	0.0	Yes	2.78	0.02	n/a	GoodResponse	1	n/a	n/a	5	41	Cue	Win	True
392.271	3.9	Win2	0.6429	0.0	Yes	2.78	0.001	n/a	GoodResponse	1	n/a	n/a	5	41	Fixation	Win	True
396.166	0.23	Win2	0.6429	0.004	Yes	2.78	-0.004	1.0	GoodResponse	1	0.161	395.327	5	41	Target	Win	True
396.327	0.3	Win2	0.6429	0.004	Yes	2.78	-0.004	1.0	GoodResponse	1	0.161	n/a	5	41	ButtonPress	Win	True
396.4	0.47	Win2	0.6429	n/a	Yes	2.78	n/a	n/a	GoodResponse	1	n/a	n/a	5	41	Blank	Win	True
396.868	1.45	Win2	0.6429	n/a	Yes	2.78	n/a	5.0	GoodResponse	1	0.028	395.896	5	41	Feedback	Win	True
398.322	2.78	Win2	0.6429	n/a	Yes	2.78	n/a	n/a	GoodResponse	1	0.0	n/a	5	41	ISIslide	Win	True
401.114	0.25	Control	0.6512	0.0	Yes	2.936	0.014	n/a	GoodResponse	0	n/a	n/a	5	42	Cue	Neutral	True
401.365	3.85	Control	0.6512	0.0	Yes	2.936	0.001	n/a	GoodResponse	0	n/a	n/a	5	42	Fixation	Neutral	True
405.21	0.24	Control	0.6512	0.004	Yes	2.936	-0.004	1.0	GoodResponse	0	0.176	404.386	5	42	Target	Neutral	True
405.386	0.3	Control	0.6512	0.004	Yes	2.936	-0.004	1.0	GoodResponse	0	0.176	n/a	5	42	ButtonPress	Neutral	True
405.46	0.46	Control	0.6512	n/a	Yes	2.936	n/a	n/a	GoodResponse	0	n/a	n/a	5	42	Blank	Neutral	True
405.912	1.45	Control	0.6512	n/a	Yes	2.936	n/a	5.0	GoodResponse	0	0.008	404.92	5	42	Feedback	Neutral	True
407.366	2.936	Control	0.6512	n/a	Yes	2.936	n/a	n/a	GoodResponse	0	0.0	n/a	5	42	ISIslide	Neutral	True
410.325	0.25	Win2	0.6591	0.0	Yes	3.175	0.025	n/a	GoodResponse	1	n/a	n/a	6	43	Cue	Win	True
410.576	4.0	Win2	0.6591	0.0	Yes	3.175	0.001	n/a	GoodResponse	1	n/a	n/a	6	43	Fixation	Win	True
414.571	0.25	Win2	0.6591	0.004	Yes	3.175	-0.004	1.0	GoodResponse	1	0.175	413.746	6	43	Target	Win	True
414.746	0.3	Win2	0.6591	0.004	Yes	3.175	-0.004	1.0	GoodResponse	1	0.175	n/a	6	43	ButtonPress	Win	True
414.822	0.45	Win2	0.6591	n/a	Yes	3.175	n/a	n/a	GoodResponse	1	n/a	n/a	6	43	Blank	Win	True
415.273	1.45	Win2	0.6591	n/a	Yes	3.175	n/a	5.0	GoodResponse	1	0.012	414.285	6	43	Feedback	Win	True
416.727	3.175	Win2	0.6591	n/a	Yes	3.175	n/a	n/a	GoodResponse	1	0.0	n/a	6	43	ISIslide	Win	True
419.92	0.25	Win2	0.6667000000000001	0.0	Yes	2.98	0.02	n/a	GoodResponse	1	n/a	n/a	7	44	Cue	Win	True
420.171	4.0	Win2	0.6667000000000001	0.0	Yes	2.98	0.001	n/a	GoodResponse	1	n/a	n/a	7	44	Fixation	Win	True
424.166	0.25	Win2	0.6667000000000001	0.004	Yes	2.98	-0.004	1.0	GoodResponse	1	0.169	423.335	7	44	Target	Win	True
424.335	0.3	Win2	0.6667000000000001	0.004	Yes	2.98	-0.004	1.0	GoodResponse	1	0.169	n/a	7	44	ButtonPress	Win	True
424.417	0.45	Win2	0.6667000000000001	n/a	Yes	2.98	n/a	n/a	GoodResponse	1	n/a	n/a	7	44	Blank	Win	True
424.868	1.45	Win2	0.6667000000000001	n/a	Yes	2.98	n/a	5.0	GoodResponse	1	0.027	423.895	7	44	Feedback	Win	True
426.323	2.98	Win2	0.6667000000000001	n/a	Yes	2.98	n/a	n/a	GoodResponse	1	0.0	n/a	7	44	ISIslide	Win	True
429.315	0.25	Control	0.6739	0.0	Yes	2.885	0.015	n/a	GoodResponse	0	n/a	n/a	7	45	Cue	Neutral	True
429.566	4.1	Control	0.6739	0.0	Yes	2.885	0.001	n/a	GoodResponse	0	n/a	n/a	7	45	Fixation	Neutral	True
433.661	0.24	Control	0.6739	0.004	Yes	2.885	-0.004	1.0	GoodResponse	0	0.189	432.85	7	45	Target	Neutral	True
433.85	0.3	Control	0.6739	0.004	Yes	2.885	-0.004	1.0	GoodResponse	0	0.189	n/a	7	45	ButtonPress	Neutral	True
433.912	0.46	Control	0.6739	n/a	Yes	2.885	n/a	n/a	GoodResponse	0	n/a	n/a	7	45	Blank	Neutral	True
434.363	1.45	Control	0.6739	n/a	Yes	2.885	n/a	5.0	GoodResponse	0	0.044	433.407	7	45	Feedback	Neutral	True
435.818	2.885	Control	0.6739	n/a	Yes	2.885	n/a	n/a	GoodResponse	0	0.0	n/a	7	45	ISIslide	Neutral	True
438.726	0.25	Lose2	0.6809000000000001	0.0	Yes	3.374	0.026	n/a	GoodResponse	0	n/a	n/a	7	46	Cue	AvoidedLoss	True
438.977	4.0	Lose2	0.6809000000000001	0.0	Yes	3.374	0.001	n/a	GoodResponse	0	n/a	n/a	7	46	Fixation	AvoidedLoss	True
442.972	0.23	Lose2	0.6809000000000001	0.004	Yes	3.374	-0.004	1.0	GoodResponse	0	0.184	442.156	7	46	Target	AvoidedLoss	True
443.156	0.3	Lose2	0.6809000000000001	0.004	Yes	3.374	-0.004	1.0	GoodResponse	0	0.184	n/a	7	46	ButtonPress	AvoidedLoss	True
443.206	0.47	Lose2	0.6809000000000001	n/a	Yes	3.374	n/a	n/a	GoodResponse	0	n/a	n/a	7	46	Blank	AvoidedLoss	True
443.674	1.45	Lose2	0.6809000000000001	n/a	Yes	3.374	n/a	5.0	GoodResponse	0	0.002	442.676	7	46	Feedback	AvoidedLoss	True
445.129	3.374	Lose2	0.6809000000000001	n/a	Yes	3.374	n/a	n/a	GoodResponse	0	0.0	n/a	7	46	ISIslide	AvoidedLoss	True
448.522	0.25	Lose2	0.6875	0.0	Yes	2.678	0.022	n/a	GoodResponse	0	n/a	n/a	7	47	Cue	AvoidedLoss	True
448.773	4.0	Lose2	0.6875	0.0	Yes	2.678	0.001	n/a	GoodResponse	0	n/a	n/a	7	47	Fixation	AvoidedLoss	True
452.768	0.22	Lose2	0.6875	0.004	Yes	2.678	-0.004	1.0	GoodResponse	0	0.169	451.937	7	47	Target	AvoidedLoss	True
452.937	0.3	Lose2	0.6875	0.004	Yes	2.678	-0.004	1.0	GoodResponse	0	0.169	n/a	7	47	ButtonPress	AvoidedLoss	True
453.002	0.48	Lose2	0.6875	n/a	Yes	2.678	n/a	n/a	GoodResponse	0	n/a	n/a	7	47	Blank	AvoidedLoss	True
453.47	1.45	Lose2	0.6875	n/a	Yes	2.678	n/a	5.0	GoodResponse	0	0.01	452.48	7	47	Feedback	AvoidedLoss	True
454.925	2.678	Lose2	0.6875	n/a	Yes	2.678	n/a	n/a	GoodResponse	0	0.0	n/a	7	47	ISIslide	AvoidedLoss	True
457.616	0.25	Lose2	0.6939	0.0	Yes	3.034	0.016	n/a	GoodResponse	0	n/a	n/a	7	48	Cue	AvoidedLoss	True
457.867	3.95	Lose2	0.6939	0.0	Yes	3.034	0.001	n/a	GoodResponse	0	n/a	n/a	7	48	Fixation	AvoidedLoss	True
461.812	0.21	Lose2	0.6939	0.004	Yes	3.034	-0.004	1.0	GoodResponse	0	0.19	461.002	7	48	Target	AvoidedLoss	True
462.002	0.3	Lose2	0.6939	0.004	Yes	3.034	-0.004	1.0	GoodResponse	0	0.19	n/a	7	48	ButtonPress	AvoidedLoss	True
462.029	0.49	Lose2	0.6939	n/a	Yes	3.034	n/a	n/a	GoodResponse	0	n/a	n/a	7	48	Blank	AvoidedLoss	True
462.514	1.45	Lose2	0.6939	n/a	Yes	3.034	n/a	5.0	GoodResponse	0	0.039	461.553	7	48	Feedback	AvoidedLoss	True
463.968	3.034	Lose2	0.6939	n/a	Yes	3.034	n/a	n/a	GoodResponse	0	0.0	n/a	7	48	ISIslide	AvoidedLoss	True
467.028	0.25	Control	0.68	0.0	No	2.872	0.028	n/a	LatePress	0	n/a	n/a	7	49	Cue	Neutral	True
467.278	4.0	Control	0.68	0.0	No	2.872	0.0	n/a	LatePress	0	n/a	n/a	7	49	Fixation	Neutral	True
471.274	0.2	Control	0.68	0.004	No	2.872	-0.004	1.0	LatePress	0	0.202	470.476	7	49	Target	Neutral	True
471.474	0.5	Control	0.68	n/a	No	2.872	n/a	n/a	LatePress	0	n/a	n/a	7	49	Blank	Neutral	True
471.476	0.3	Control	0.68	0.004	No	2.872	-0.004	1.0	LatePress	0	0.202	n/a	7	49	ButtonPress	Neutral	True
471.976	1.45	Control	0.68	n/a	No	2.872	n/a	5.0	LatePress	0	0.04	471.016	7	49	Feedback	Neutral	True
473.43	2.872	Control	0.68	n/a	No	2.872	n/a	n/a	LatePress	0	0.0	n/a	7	49	ISIslide	Neutral	True
476.322	0.25	Control	0.6862999999999999	0.0	Yes	2.778	0.022	n/a	GoodResponse	0	n/a	n/a	7	50	Cue	Neutral	True
476.573	4.0	Control	0.6862999999999999	0.0	Yes	2.778	0.001	n/a	GoodResponse	0	n/a	n/a	7	50	Fixation	Neutral	True
480.568	0.19	Control	0.6862999999999999	0.004	Yes	2.778	-0.004	1.0	GoodResponse	0	0.171	479.739	7	50	Target	Neutral	True
480.739	0.3	Control	0.6862999999999999	0.004	Yes	2.778	-0.004	1.0	GoodResponse	0	0.171	n/a	7	50	ButtonPress	Neutral	True
480.769	0.51	Control	0.6862999999999999	n/a	Yes	2.778	n/a	n/a	GoodResponse	0	n/a	n/a	7	50	Blank	Neutral	True
481.27	1.45	Control	0.6862999999999999	n/a	Yes	2.778	n/a	5.0	GoodResponse	0	0.015	480.285	7	50	Feedback	Neutral	True
482.724	2.778	Control	0.6862999999999999	n/a	Yes	2.778	n/a	n/a	GoodResponse	0	0.0	n/a	7	50	ISIslide	Neutral	True
485.516	0.25	Control	0.6731	0.0	No	2.734	0.016	n/a	NoResponse	0	n/a	n/a	7	51	Cue	Neutral	True
485.767	3.95	Control	0.6731	0.0	No	2.734	0.001	n/a	NoResponse	0	n/a	n/a	7	51	Fixation	Neutral	True
489.712	0.18	Control	0.6731	0.004	No	2.734	-0.004	1.0	NoResponse	0	0.191	488.903	7	51	Target	Neutral	True
489.896	0.52	Control	0.6731	n/a	No	2.734	n/a	n/a	NoResponse	0	n/a	n/a	7	51	Blank	Neutral	True
489.903	0.3	Control	0.6731	0.004	No	2.734	-0.004	1.0	NoResponse	0	0.191	n/a	7	51	ButtonPress	Neutral	True
490.414	1.45	Control	0.6731	n/a	No	2.734	n/a	5.0	NoResponse	0	0.041	489.455	7	51	Feedback	Neutral	True
491.868	2.734	Control	0.6731	n/a	No	2.734	n/a	n/a	NoResponse	0	0.0	n/a	7	51	ISIslide	Neutral	True
494.627	0.25	Control	0.6604000000000001	0.0	No	2.623	0.027	n/a	NoResponse	0	n/a	n/a	7	52	Cue	Neutral	True
494.877	4.05	Control	0.6604000000000001	0.0	No	2.623	0.0	n/a	NoResponse	0	n/a	n/a	7	52	Fixation	Neutral	True
498.923	0.17	Control	0.6604000000000001	0.004	No	2.623	-0.004	1.0	NoResponse	0	0.217	498.14	7	52	Target	Neutral	True
499.107	0.53	Control	0.6604000000000001	n/a	No	2.623	n/a	n/a	NoResponse	0	n/a	n/a	7	52	Blank	Neutral	True
499.14	0.3	Control	0.6604000000000001	0.004	No	2.623	-0.004	1.0	NoResponse	0	0.217	n/a	7	52	ButtonPress	Neutral	True
499.625	1.45	Control	0.6604000000000001	n/a	No	2.623	n/a	5.0	NoResponse	0	0.0	498.625	7	52	Feedback	Neutral	True
501.079	2.623	Control	0.6604000000000001	n/a	No	2.623	n/a	n/a	NoResponse	0	0.0	n/a	7	52	ISIslide	Neutral	True
503.72	0.25	Win2	0.6481	0.001	No	2.93	0.02	n/a	LatePress	0	n/a	n/a	7	53	Cue	MissedWin	True
503.971	4.05	Win2	0.6481	0.0	No	2.93	0.001	n/a	LatePress	0	n/a	n/a	7	53	Fixation	MissedWin	True
508.017	0.17	Win2	0.6481	0.003	No	2.93	-0.003	1.0	LatePress	0	0.177	507.194	7	53	Target	MissedWin	True
508.194	0.3	Win2	0.6481	0.003	No	2.93	-0.003	1.0	LatePress	0	0.177	n/a	7	53	ButtonPress	MissedWin	True
508.201	0.53	Win2	0.6481	n/a	No	2.93	n/a	n/a	LatePress	0	n/a	n/a	7	53	Blank	MissedWin	True
508.719	1.45	Win2	0.6481	n/a	No	2.93	n/a	5.0	LatePress	0	0.028	507.747	7	53	Feedback	MissedWin	True
510.173	2.93	Win2	0.6481	n/a	No	2.93	n/a	n/a	LatePress	0	0.0	n/a	7	53	ISIslide	MissedWin	True
513.115	0.25	Win2	0.6364	0.0	No	2.735	0.015	n/a	LatePress	0	n/a	n/a	7	54	Cue	MissedWin	True
513.366	3.95	Win2	0.6364	0.0	No	2.735	0.001	n/a	LatePress	0	n/a	n/a	7	54	Fixation	MissedWin	True
517.311	0.18	Win2	0.6364	0.004	No	2.735	-0.004	1.0	LatePress	0	0.183	516.494	7	54	Target	MissedWin	True
517.494	0.3	Win2	0.6364	0.004	No	2.735	-0.004	1.0	LatePress	0	0.183	n/a	7	54	ButtonPress	MissedWin	True
517.495	0.52	Win2	0.6364	n/a	No	2.735	n/a	n/a	LatePress	0	n/a	n/a	7	54	Blank	MissedWin	True
518.013	1.45	Win2	0.6364	n/a	No	2.735	n/a	5.0	LatePress	0	0.005	517.018	7	54	Feedback	MissedWin	True
519.468	2.735	Win2	0.6364	n/a	No	2.735	n/a	n/a	LatePress	0	0.0	n/a	7	54	ISIslide	MissedWin	True
522.226	0.25	Control	0.625	0.0	No	3.024	0.026	n/a	NoResponse	0	n/a	n/a	7	55	Cue	Neutral	True
522.476	3.95	Control	0.625	0.001	No	3.024	0.0	n/a	NoResponse	0	n/a	n/a	7	55	Fixation	Neutral	True
526.422	0.19	Control	0.625	0.004	No	3.024	-0.004	1.0	NoResponse	0	0.208	525.63	7	55	Target	Neutral	True
526.622	0.51	Control	0.625	n/a	No	3.024	n/a	n/a	NoResponse	0	n/a	n/a	7	55	Blank	Neutral	True
526.63	0.3	Control	0.625	0.004	No	3.024	-0.004	1.0	NoResponse	0	0.208	n/a	7	55	ButtonPress	Neutral	True
527.124	1.45	Control	0.625	n/a	No	3.024	n/a	5.0	NoResponse	0	0.013	526.137	7	55	Feedback	Neutral	True
528.578	3.024	Control	0.625	n/a	No	3.024	n/a	n/a	NoResponse	0	0.0	n/a	7	55	ISIslide	Neutral	True
531.62	0.25	Control	0.6315999999999999	0.001	Yes	2.83	0.02	n/a	GoodResponse	0	n/a	n/a	7	56	Cue	Neutral	True
531.871	3.95	Control	0.6315999999999999	0.0	Yes	2.83	0.001	n/a	GoodResponse	0	n/a	n/a	7	56	Fixation	Neutral	True
535.816	0.2	Control	0.6315999999999999	0.004	Yes	2.83	-0.004	1.0	GoodResponse	0	0.192	535.008	7	56	Target	Neutral	True
536.008	0.3	Control	0.6315999999999999	0.004	Yes	2.83	-0.004	1.0	GoodResponse	0	0.192	n/a	7	56	ButtonPress	Neutral	True
536.017	0.5	Control	0.6315999999999999	n/a	Yes	2.83	n/a	n/a	GoodResponse	0	n/a	n/a	7	56	Blank	Neutral	True
536.518	1.45	Control	0.6315999999999999	n/a	Yes	2.83	n/a	5.0	GoodResponse	0	0.034	535.552	7	56	Feedback	Neutral	True
537.973	2.83	Control	0.6315999999999999	n/a	Yes	2.83	n/a	n/a	GoodResponse	0	0.0	n/a	7	56	ISIslide	Neutral	True
540.815	0.25	Control	0.6379	0.0	Yes	3.485	0.015	n/a	GoodResponse	0	n/a	n/a	7	57	Cue	Neutral	True
541.065	4.0	Control	0.6379	0.0	Yes	3.485	0.0	n/a	GoodResponse	0	n/a	n/a	7	57	Fixation	Neutral	True
545.061	0.21	Control	0.6379	0.004	Yes	3.485	-0.004	1.0	GoodResponse	0	0.192	544.253	7	57	Target	Neutral	True
545.253	0.3	Control	0.6379	0.004	Yes	3.485	-0.004	1.0	GoodResponse	0	0.192	n/a	7	57	ButtonPress	Neutral	True
545.278	0.49	Control	0.6379	n/a	Yes	3.485	n/a	n/a	GoodResponse	0	n/a	n/a	7	57	Blank	Neutral	True
545.763	1.45	Control	0.6379	n/a	Yes	3.485	n/a	5.0	GoodResponse	0	0.008	544.771	7	57	Feedback	Neutral	True
547.217	3.485	Control	0.6379	n/a	Yes	3.485	n/a	n/a	GoodResponse	0	0.0	n/a	7	57	ISIslide	Neutral	True
550.728	0.25	Win2	0.6441	0.0	Yes	2.722	0.028	n/a	GoodResponse	1	n/a	n/a	8	58	Cue	Win	True
550.978	4.05	Win2	0.6441	0.0	Yes	2.722	0.0	n/a	GoodResponse	1	n/a	n/a	8	58	Fixation	Win	True
555.024	0.22	Win2	0.6441	0.004	Yes	2.722	-0.004	1.0	GoodResponse	1	0.172	554.196	8	58	Target	Win	True
555.196	0.3	Win2	0.6441	0.004	Yes	2.722	-0.004	1.0	GoodResponse	1	0.172	n/a	8	58	ButtonPress	Win	True
555.258	0.48	Win2	0.6441	n/a	Yes	2.722	n/a	n/a	GoodResponse	1	n/a	n/a	8	58	Blank	Win	True
555.726	1.45	Win2	0.6441	n/a	Yes	2.722	n/a	5.0	GoodResponse	1	0.045	554.771	8	58	Feedback	Win	True
557.18	2.722	Win2	0.6441	n/a	Yes	2.722	n/a	n/a	GoodResponse	1	0.0	n/a	8	58	ISIslide	Win	True
559.922	0.25	Lose2	0.65	0.0	Yes	2.678	0.022	n/a	GoodResponse	0	n/a	n/a	8	59	Cue	AvoidedLoss	True
560.172	4.0	Lose2	0.65	0.0	Yes	2.678	0.0	n/a	GoodResponse	0	n/a	n/a	8	59	Fixation	AvoidedLoss	True
564.168	0.23	Lose2	0.65	0.004	Yes	2.678	-0.004	1.0	GoodResponse	0	0.176	563.344	8	59	Target	AvoidedLoss	True
564.344	0.3	Lose2	0.65	0.004	Yes	2.678	-0.004	1.0	GoodResponse	0	0.176	n/a	8	59	ButtonPress	AvoidedLoss	True
564.402	0.47	Lose2	0.65	n/a	Yes	2.678	n/a	n/a	GoodResponse	0	n/a	n/a	8	59	Blank	AvoidedLoss	True
564.87	1.45	Lose2	0.65	n/a	Yes	2.678	n/a	5.0	GoodResponse	0	0.022	563.892	8	59	Feedback	AvoidedLoss	True
566.324	2.678	Lose2	0.65	n/a	Yes	2.678	n/a	n/a	GoodResponse	0	0.0	n/a	8	59	ISIslide	AvoidedLoss	True
569.015	0.25	Control	0.6557	0.001	Yes	2.685	0.015	n/a	GoodResponse	0	n/a	n/a	8	60	Cue	Neutral	True
569.266	4.0	Control	0.6557	0.0	Yes	2.685	0.001	n/a	GoodResponse	0	n/a	n/a	8	60	Fixation	Neutral	True
573.262	0.24	Control	0.6557	0.003	Yes	2.685	-0.003	1.0	GoodResponse	0	0.158	572.42	8	60	Target	Neutral	True
573.42	0.3	Control	0.6557	0.003	Yes	2.685	-0.003	1.0	GoodResponse	0	0.158	n/a	8	60	ButtonPress	Neutral	True
573.512	0.46	Control	0.6557	n/a	Yes	2.685	n/a	n/a	GoodResponse	0	n/a	n/a	8	60	Blank	Neutral	True
573.964	1.45	Control	0.6557	n/a	Yes	2.685	n/a	5.0	GoodResponse	0	0.005	572.969	8	60	Feedback	Neutral	True
575.418	2.685	Control	0.6557	n/a	Yes	2.685	n/a	n/a	GoodResponse	0	0.0	n/a	8	60	ISIslide	Neutral	True
578.126	0.25	Lose2	0.6613	0.0	Yes	2.974	0.026	n/a	GoodResponse	0	n/a	n/a	8	61	Cue	AvoidedLoss	True
578.377	4.0	Lose2	0.6613	0.0	Yes	2.974	0.001	n/a	GoodResponse	0	n/a	n/a	8	61	Fixation	AvoidedLoss	True
582.372	0.24	Lose2	0.6613	0.004	Yes	2.974	-0.004	1.0	GoodResponse	0	0.167	581.539	8	61	Target	AvoidedLoss	True
582.539	0.3	Lose2	0.6613	0.004	Yes	2.974	-0.004	1.0	GoodResponse	0	0.167	n/a	8	61	ButtonPress	AvoidedLoss	True
582.623	0.46	Lose2	0.6613	n/a	Yes	2.974	n/a	n/a	GoodResponse	0	n/a	n/a	8	61	Blank	AvoidedLoss	True
583.074	1.45	Lose2	0.6613	n/a	Yes	2.974	n/a	5.0	GoodResponse	0	0.014	582.088	8	61	Feedback	AvoidedLoss	True
584.528	2.974	Lose2	0.6613	n/a	Yes	2.974	n/a	n/a	GoodResponse	0	0.0	n/a	8	61	ISIslide	AvoidedLoss	True
587.521	0.25	Lose2	0.6667000000000001	0.0	Yes	2.879	0.021	n/a	GoodResponse	0	n/a	n/a	8	62	Cue	AvoidedLoss	True
587.772	3.9	Lose2	0.6667000000000001	0.0	Yes	2.879	0.001	n/a	GoodResponse	0	n/a	n/a	8	62	Fixation	AvoidedLoss	True
591.683	0.24	Lose2	0.6667000000000001	0.0	Yes	2.879	0.012	1.0	GoodResponse	0	0.168	590.851	8	62	Target	AvoidedLoss	True
591.851	0.3	Lose2	0.6667000000000001	0.0	Yes	2.879	0.012	1.0	GoodResponse	0	0.168	n/a	8	62	ButtonPress	AvoidedLoss	True
591.917	0.46	Lose2	0.6667000000000001	n/a	Yes	2.879	n/a	n/a	GoodResponse	0	n/a	n/a	8	62	Blank	AvoidedLoss	True
592.369	1.45	Lose2	0.6667000000000001	n/a	Yes	2.879	n/a	5.0	GoodResponse	0	0.036	591.405	8	62	Feedback	AvoidedLoss	True
593.823	2.879	Lose2	0.6667000000000001	n/a	Yes	2.879	n/a	n/a	GoodResponse	0	0.0	n/a	8	62	ISIslide	AvoidedLoss	True
596.715	0.25	Lose2	0.6718999999999999	0.0	Yes	2.635	0.015	n/a	GoodResponse	0	n/a	n/a	8	63	Cue	AvoidedLoss	True
596.966	4.05	Lose2	0.6718999999999999	0.0	Yes	2.635	0.001	n/a	GoodResponse	0	n/a	n/a	8	63	Fixation	AvoidedLoss	True
601.011	0.23	Lose2	0.6718999999999999	0.004	Yes	2.635	-0.004	1.0	GoodResponse	0	0.174	600.185	8	63	Target	AvoidedLoss	True
601.185	0.3	Lose2	0.6718999999999999	0.004	Yes	2.635	-0.004	1.0	GoodResponse	0	0.174	n/a	8	63	ButtonPress	AvoidedLoss	True
601.245	0.47	Lose2	0.6718999999999999	n/a	Yes	2.635	n/a	n/a	GoodResponse	0	n/a	n/a	8	63	Blank	AvoidedLoss	True
601.713	1.45	Lose2	0.6718999999999999	n/a	Yes	2.635	n/a	5.0	GoodResponse	0	0.008	600.721	8	63	Feedback	AvoidedLoss	True
603.167	2.635	Lose2	0.6718999999999999	n/a	Yes	2.635	n/a	n/a	GoodResponse	0	0.0	n/a	8	63	ISIslide	AvoidedLoss	True
605.825	0.25	Win2	0.6769	0.001	Yes	3.125	0.025	n/a	GoodResponse	1	n/a	n/a	9	64	Cue	Win	True
606.076	4.15	Win2	0.6769	0.0	Yes	3.125	0.001	n/a	GoodResponse	1	n/a	n/a	9	64	Fixation	Win	True
610.222	0.22	Win2	0.6769	0.003	Yes	3.125	-0.003	1.0	GoodResponse	1	0.189	609.411	9	64	Target	Win	True
610.411	0.3	Win2	0.6769	0.003	Yes	3.125	-0.003	1.0	GoodResponse	1	0.189	n/a	9	64	ButtonPress	Win	True
610.456	0.48	Win2	0.6769	n/a	Yes	3.125	n/a	n/a	GoodResponse	1	n/a	n/a	9	64	Blank	Win	True
610.924	1.45	Win2	0.6769	n/a	Yes	3.125	n/a	5.0	GoodResponse	1	0.017	609.941	9	64	Feedback	Win	True
612.378	3.125	Win2	0.6769	n/a	Yes	3.125	n/a	n/a	GoodResponse	1	0.0	n/a	9	64	ISIslide	Win	True
615.521	0.25	Control	0.6818000000000001	0.0	Yes	2.779	0.021	n/a	GoodResponse	0	n/a	n/a	9	65	Cue	Neutral	True
615.772	4.0	Control	0.6818000000000001	0.0	Yes	2.779	0.001	n/a	GoodResponse	0	n/a	n/a	9	65	Fixation	Neutral	True
619.767	0.21	Control	0.6818000000000001	0.004	Yes	2.779	-0.004	1.0	GoodResponse	0	0.187	618.954	9	65	Target	Neutral	True
619.954	0.3	Control	0.6818000000000001	0.004	Yes	2.779	-0.004	1.0	GoodResponse	0	0.187	n/a	9	65	ButtonPress	Neutral	True
619.984	0.49	Control	0.6818000000000001	n/a	Yes	2.779	n/a	n/a	GoodResponse	0	n/a	n/a	9	65	Blank	Neutral	True
620.469	1.45	Control	0.6818000000000001	n/a	Yes	2.779	n/a	5.0	GoodResponse	0	0.033	619.502	9	65	Feedback	Neutral	True
621.923	2.779	Control	0.6818000000000001	n/a	Yes	2.779	n/a	n/a	GoodResponse	0	0.0	n/a	9	65	ISIslide	Neutral	True
624.715	0.25	Win2	0.6866	0.0	Yes	2.785	0.015	n/a	GoodResponse	1	n/a	n/a	10	66	Cue	Win	True
624.966	3.9	Win2	0.6866	0.0	Yes	2.785	0.001	n/a	GoodResponse	1	n/a	n/a	10	66	Fixation	Win	True
628.861	0.2	Win2	0.6866	0.004	Yes	2.785	-0.004	1.0	GoodResponse	1	0.188	628.049	10	66	Target	Win	True
629.049	0.3	Win2	0.6866	0.004	Yes	2.785	-0.004	1.0	GoodResponse	1	0.188	n/a	10	66	ButtonPress	Win	True
629.061	0.5	Win2	0.6866	n/a	Yes	2.785	n/a	n/a	GoodResponse	1	n/a	n/a	10	66	Blank	Win	True
629.563	1.45	Win2	0.6866	n/a	Yes	2.785	n/a	5.0	GoodResponse	1	0.012	628.575	10	66	Feedback	Win	True
631.017	2.785	Win2	0.6866	n/a	Yes	2.785	n/a	n/a	GoodResponse	1	0.0	n/a	10	66	ISIslide	Win	True
633.826	0.25	Control	0.6912	0.0	Yes	2.724	0.026	n/a	GoodResponse	0	n/a	n/a	10	67	Cue	Neutral	True
634.076	3.95	Control	0.6912	0.001	Yes	2.724	0.0	n/a	GoodResponse	0	n/a	n/a	10	67	Fixation	Neutral	True
638.022	0.19	Control	0.6912	0.004	Yes	2.724	-0.004	1.0	GoodResponse	0	0.17	637.192	10	67	Target	Neutral	True
638.192	0.3	Control	0.6912	0.004	Yes	2.724	-0.004	1.0	GoodResponse	0	0.17	n/a	10	67	ButtonPress	Neutral	True
638.222	0.51	Control	0.6912	n/a	Yes	2.724	n/a	n/a	GoodResponse	0	n/a	n/a	10	67	Blank	Neutral	True
638.724	1.45	Control	0.6912	n/a	Yes	2.724	n/a	5.0	GoodResponse	0	0.021	637.745	10	67	Feedback	Neutral	True
640.178	2.724	Control	0.6912	n/a	Yes	2.724	n/a	n/a	GoodResponse	0	0.0	n/a	10	67	ISIslide	Neutral	True
642.92	0.25	Win2	0.6957	0.0	Yes	3.08	0.02	n/a	GoodResponse	1	n/a	n/a	11	68	Cue	Win	True
643.17	4.0	Win2	0.6957	0.0	Yes	3.08	0.0	n/a	GoodResponse	1	n/a	n/a	11	68	Fixation	Win	True
647.166	0.18	Win2	0.6957	0.004	Yes	3.08	-0.004	1.0	GoodResponse	1	0.169	646.335	11	68	Target	Win	True
647.335	0.3	Win2	0.6957	0.004	Yes	3.08	-0.004	1.0	GoodResponse	1	0.169	n/a	11	68	ButtonPress	Win	True
647.349	0.52	Win2	0.6957	n/a	Yes	3.08	n/a	n/a	GoodResponse	1	n/a	n/a	11	68	Blank	Win	True
647.868	1.45	Win2	0.6957	n/a	Yes	3.08	n/a	5.0	GoodResponse	1	0.048	646.916	11	68	Feedback	Win	True
649.322	3.08	Win2	0.6957	n/a	Yes	3.08	n/a	n/a	GoodResponse	1	0.0	n/a	11	68	ISIslide	Win	True
652.415	0.25	Win2	0.6857	0.0	No	3.235	0.015	n/a	NoResponse	0	n/a	n/a	11	69	Cue	MissedWin	True
652.665	3.95	Win2	0.6857	0.0	No	3.235	0.0	n/a	NoResponse	0	n/a	n/a	11	69	Fixation	MissedWin	True
656.627	0.17	Win2	0.6857	0.0	No	3.235	0.012	1.0	NoResponse	0	0.182	655.809	11	69	Target	MissedWin	True
656.794	0.53	Win2	0.6857	n/a	No	3.235	n/a	n/a	NoResponse	0	n/a	n/a	11	69	Blank	MissedWin	True
656.809	0.3	Win2	0.6857	0.0	No	3.235	0.012	1.0	NoResponse	0	0.182	n/a	11	69	ButtonPress	MissedWin	True
657.313	1.45	Win2	0.6857	n/a	No	3.235	n/a	5.0	NoResponse	0	0.017	656.33	11	69	Feedback	MissedWin	True
658.767	3.235	Win2	0.6857	n/a	No	3.235	n/a	n/a	NoResponse	0	0.0	n/a	11	69	ISIslide	MissedWin	True
662.027	0.25	Lose2	0.6761	0.0	No	3.023	0.027	n/a	NoResponse	-1	n/a	n/a	10	70	Cue	Loss	True
662.277	4.05	Lose2	0.6761	0.0	No	3.023	0.0	n/a	NoResponse	-1	n/a	n/a	10	70	Fixation	Loss	True
666.323	0.16	Lose2	0.6761	0.004	No	3.023	-0.004	1.0	NoResponse	-1	0.188	665.511	10	70	Target	Loss	True
666.49	0.54	Lose2	0.6761	n/a	No	3.023	n/a	n/a	NoResponse	-1	n/a	n/a	10	70	Blank	Loss	True
666.511	0.3	Lose2	0.6761	0.004	No	3.023	-0.004	1.0	NoResponse	-1	0.188	n/a	10	70	ButtonPress	Loss	True
667.025	1.45	Lose2	0.6761	n/a	No	3.023	n/a	5.0	NoResponse	-1	0.013	666.038	10	70	Feedback	Loss	True
668.479	3.023	Lose2	0.6761	n/a	No	3.023	n/a	n/a	NoResponse	-1	0.0	n/a	10	70	ISIslide	Loss	True
671.522	0.25	Win2	0.6667000000000001	0.0	No	2.728	0.022	n/a	NoResponse	0	n/a	n/a	10	71	Cue	MissedWin	True
671.772	4.05	Win2	0.6667000000000001	0.0	No	2.728	0.0	n/a	NoResponse	0	n/a	n/a	10	71	Fixation	MissedWin	True
675.818	0.15	Win2	0.6667000000000001	0.004	No	2.728	-0.004	1.0	NoResponse	0	0.192	675.01	10	71	Target	MissedWin	True
675.968	0.55	Win2	0.6667000000000001	n/a	No	2.728	n/a	n/a	NoResponse	0	n/a	n/a	10	71	Blank	MissedWin	True
676.01	0.3	Win2	0.6667000000000001	0.004	No	2.728	-0.004	1.0	NoResponse	0	0.192	n/a	10	71	ButtonPress	MissedWin	True
676.52	1.45	Win2	0.6667000000000001	n/a	No	2.728	n/a	5.0	NoResponse	0	0.029	675.549	10	71	Feedback	MissedWin	True
677.974	2.728	Win2	0.6667000000000001	n/a	No	2.728	n/a	n/a	NoResponse	0	0.0	n/a	10	71	ISIslide	MissedWin	True
680.716	0.25	Win2	0.6575	0.0	No	2.784	0.016	n/a	NoResponse	0	n/a	n/a	10	72	Cue	MissedWin	True
680.966	4.1	Win2	0.6575	0.001	No	2.784	0.0	n/a	NoResponse	0	n/a	n/a	10	72	Fixation	MissedWin	True
685.062	0.15	Win2	0.6575	0.004	No	2.784	-0.004	1.0	NoResponse	0	0.187	684.249	10	72	Target	MissedWin	True
685.213	0.55	Win2	0.6575	n/a	No	2.784	n/a	n/a	NoResponse	0	n/a	n/a	10	72	Blank	MissedWin	True
685.249	0.3	Win2	0.6575	0.004	No	2.784	-0.004	1.0	NoResponse	0	0.187	n/a	10	72	ButtonPress	MissedWin	True
685.764	1.45	Win2	0.6575	n/a	No	2.784	n/a	5.0	NoResponse	0	0.005	684.769	10	72	Feedback	MissedWin	True
687.218	2.784	Win2	0.6575	n/a	No	2.784	n/a	n/a	NoResponse	0	0.0	n/a	10	72	ISIslide	MissedWin	True
690.027	0.25	Win2	0.6486	0.0	No	2.673	0.027	n/a	NoResponse	0	n/a	n/a	10	73	Cue	MissedWin	True
690.278	4.0	Win2	0.6486	0.0	No	2.673	0.001	n/a	NoResponse	0	n/a	n/a	10	73	Fixation	MissedWin	True
694.273	0.15	Win2	0.6486	0.004	No	2.673	-0.004	1.0	NoResponse	0	0.184	693.457	10	73	Target	MissedWin	True
694.423	0.55	Win2	0.6486	n/a	No	2.673	n/a	n/a	NoResponse	0	n/a	n/a	10	73	Blank	MissedWin	True
694.457	0.3	Win2	0.6486	0.004	No	2.673	-0.004	1.0	NoResponse	0	0.184	n/a	10	73	ButtonPress	MissedWin	True
694.975	1.45	Win2	0.6486	n/a	No	2.673	n/a	5.0	NoResponse	0	0.013	693.988	10	73	Feedback	MissedWin	True
696.429	2.673	Win2	0.6486	n/a	No	2.673	n/a	n/a	NoResponse	0	0.0	n/a	10	73	ISIslide	MissedWin	True
699.121	0.25	Lose2	0.64	0.0	No	2.629	0.021	n/a	NoResponse	-1	n/a	n/a	9	74	Cue	Loss	True
699.371	4.05	Lose2	0.64	0.001	No	2.629	0.0	n/a	NoResponse	-1	n/a	n/a	9	74	Fixation	Loss	True
703.417	0.16	Lose2	0.64	0.004	No	2.629	-0.004	1.0	NoResponse	-1	0.173	702.59	9	74	Target	Loss	True
703.584	0.54	Lose2	0.64	n/a	No	2.629	n/a	n/a	NoResponse	-1	n/a	n/a	9	74	Blank	Loss	True
703.59	0.3	Lose2	0.64	0.004	No	2.629	-0.004	1.0	NoResponse	-1	0.173	n/a	9	74	ButtonPress	Loss	True
704.119	1.45	Lose2	0.64	n/a	No	2.629	n/a	5.0	NoResponse	-1	0.04	703.159	9	74	Feedback	Loss	True
705.573	2.629	Lose2	0.64	n/a	No	2.629	n/a	n/a	NoResponse	-1	0.0	n/a	9	74	ISIslide	Loss	True
708.215	0.25	Lose2	0.6315999999999999	0.0	No	2.935	0.015	n/a	NoResponse	-1	n/a	n/a	8	75	Cue	Loss	True
708.465	3.95	Lose2	0.6315999999999999	0.0	No	2.935	0.0	n/a	NoResponse	-1	n/a	n/a	8	75	Fixation	Loss	True
712.427	0.17	Lose2	0.6315999999999999	0.0	No	2.935	0.012	1.0	NoResponse	-1	0.21	711.637	8	75	Target	Loss	True
712.594	0.53	Lose2	0.6315999999999999	n/a	No	2.935	n/a	n/a	NoResponse	-1	n/a	n/a	8	75	Blank	Loss	True
712.637	0.3	Lose2	0.6315999999999999	0.0	No	2.935	0.012	1.0	NoResponse	-1	0.21	n/a	8	75	ButtonPress	Loss	True
713.112	1.45	Lose2	0.6315999999999999	n/a	No	2.935	n/a	5.0	NoResponse	-1	0.022	712.134	8	75	Feedback	Loss	True
714.567	2.935	Lose2	0.6315999999999999	n/a	No	2.935	n/a	n/a	NoResponse	-1	0.0	n/a	8	75	ISIslide	Loss	True
717.526	0.25	Control	0.6234000000000001	0.0	No	3.224	0.026	n/a	LatePress	0	n/a	n/a	8	76	Cue	Neutral	True
717.776	4.05	Control	0.6234000000000001	0.001	No	3.224	0.0	n/a	LatePress	0	n/a	n/a	8	76	Fixation	Neutral	True
721.822	0.18	Control	0.6234000000000001	0.004	No	3.224	-0.004	1.0	LatePress	0	0.18	721.002	8	76	Target	Neutral	True
722.002	0.3	Control	0.6234000000000001	0.004	No	3.224	-0.004	1.0	LatePress	0	0.18	n/a	8	76	ButtonPress	Neutral	True
722.006	0.52	Control	0.6234000000000001	n/a	No	3.224	n/a	n/a	LatePress	0	n/a	n/a	8	76	Blank	Neutral	True
722.524	1.45	Control	0.6234000000000001	n/a	No	3.224	n/a	5.0	LatePress	0	0.025	721.549	8	76	Feedback	Neutral	True
723.978	3.224	Control	0.6234000000000001	n/a	No	3.224	n/a	n/a	LatePress	0	0.0	n/a	8	76	ISIslide	Neutral	True
727.221	0.25	Lose2	0.6282	0.0	Yes	2.579	0.021	n/a	GoodResponse	0	n/a	n/a	8	77	Cue	AvoidedLoss	True
727.472	3.95	Lose2	0.6282	0.0	Yes	2.579	0.001	n/a	GoodResponse	0	n/a	n/a	8	77	Fixation	AvoidedLoss	True
731.417	0.19	Lose2	0.6282	0.004	Yes	2.579	-0.004	1.0	GoodResponse	0	0.172	730.589	8	77	Target	AvoidedLoss	True
731.589	0.3	Lose2	0.6282	0.004	Yes	2.579	-0.004	1.0	GoodResponse	0	0.172	n/a	8	77	ButtonPress	AvoidedLoss	True
731.618	0.51	Lose2	0.6282	n/a	Yes	2.579	n/a	n/a	GoodResponse	0	n/a	n/a	8	77	Blank	AvoidedLoss	True
732.119	1.45	Lose2	0.6282	n/a	Yes	2.579	n/a	5.0	GoodResponse	0	0.04	731.159	8	77	Feedback	AvoidedLoss	True
733.574	2.579	Lose2	0.6282	n/a	Yes	2.579	n/a	n/a	GoodResponse	0	0.0	n/a	8	77	ISIslide	AvoidedLoss	True
