onset	duration	cue_type	current_mean_accuracy	duration_error	is_hit	isi_adjusted	onset_delay	response	response_type	reward	rt	rt_time	total_reward	trial_number	trial_phase	trial_type	one_press
11.108	0.25	Control	1.0	0.0	Yes	2.942	0.008	n/a	GoodResponse	0	n/a	n/a	0	0	Cue	Neutral	True
11.359	3.85	Control	1.0	0.0	Yes	2.942	0.001	n/a	GoodResponse	0	n/a	n/a	0	0	Fixation	Neutral	True
15.203	0.4	Control	1.0	0.005	Yes	2.942	-0.005	4.0	GoodResponse	0	0.282	14.485	0	0	Target	Neutral	True
15.485	0.3	Control	1.0	0.005	Yes	2.942	-0.005	4.0	GoodResponse	0	0.282	n/a	0	0	ButtonPress	Neutral	True
15.605	0.3	Control	1.0	n/a	Yes	2.942	n/a	n/a	GoodResponse	0	n/a	n/a	0	0	Blank	Neutral	True
15.906	1.45	Control	1.0	n/a	Yes	2.942	n/a	5.0	GoodResponse	0	0.021	14.927	0	0	Feedback	Neutral	True
17.36	2.942	Control	1.0	n/a	Yes	2.942	n/a	n/a	GoodResponse	0	0.0	n/a	0	0	ISIslide	Neutral	True
20.319	0.25	Lose2	1.0	0.0	Yes	2.781	0.019	n/a	GoodResponse	0	n/a	n/a	0	1	Cue	AvoidedLoss	True
20.57	4.0	Lose2	1.0	0.0	Yes	2.781	0.001	n/a	GoodResponse	0	n/a	n/a	0	1	Fixation	AvoidedLoss	True
24.565	0.39	Lose2	1.0	0.004	Yes	2.781	-0.004	4.0	GoodResponse	0	0.257	23.822	0	1	Target	AvoidedLoss	True
24.822	0.3	Lose2	1.0	0.004	Yes	2.781	-0.004	4.0	GoodResponse	0	0.257	n/a	0	1	ButtonPress	AvoidedLoss	True
24.966	0.31	Lose2	1.0	n/a	Yes	2.781	n/a	n/a	GoodResponse	0	n/a	n/a	0	1	Blank	AvoidedLoss	True
25.267	1.45	Lose2	1.0	n/a	Yes	2.781	n/a	5.0	GoodResponse	0	0.026	24.293	0	1	Feedback	AvoidedLoss	True
26.721	2.781	Lose2	1.0	n/a	Yes	2.781	n/a	n/a	GoodResponse	0	0.0	n/a	0	1	ISIslide	AvoidedLoss	True
29.513	0.25	Control	0.6667000000000001	0.0	No	2.587	0.013	n/a	NoResponse	0	n/a	n/a	0	2	Cue	Neutral	True
29.764	4.1	Control	0.6667000000000001	0.0	No	2.587	0.001	n/a	NoResponse	0	n/a	n/a	0	2	Fixation	Neutral	True
33.859	0.38	Control	0.6667000000000001	0.004	No	2.587	-0.004	4.0	NoResponse	0	0.57	33.429	0	2	Target	Neutral	True
34.244	0.32	Control	0.6667000000000001	n/a	No	2.587	n/a	n/a	NoResponse	0	n/a	n/a	0	2	Blank	Neutral	True
34.429	0.3	Control	0.6667000000000001	0.004	No	2.587	-0.004	4.0	NoResponse	0	0.57	n/a	0	2	ButtonPress	Neutral	True
34.561	1.45	Control	0.6667000000000001	n/a	No	2.587	n/a	5.0	NoResponse	0	0.049	33.61	0	2	Feedback	Neutral	True
36.016	2.587	Control	0.6667000000000001	n/a	No	2.587	n/a	n/a	NoResponse	0	0.0	n/a	0	2	ISIslide	Neutral	True
38.624	0.25	Win2	0.75	0.0	Yes	2.826	0.024	n/a	GoodResponse	1	n/a	n/a	1	3	Cue	Win	True
38.874	3.95	Win2	0.75	0.0	Yes	2.826	0.0	n/a	GoodResponse	1	n/a	n/a	1	3	Fixation	Win	True
42.819	0.37	Win2	0.75	0.005	Yes	2.826	-0.005	4.0	GoodResponse	1	0.219	42.038	1	3	Target	Win	True
43.038	0.3	Win2	0.75	0.005	Yes	2.826	-0.005	4.0	GoodResponse	1	0.219	n/a	1	3	ButtonPress	Win	True
43.204	0.33	Win2	0.75	n/a	Yes	2.826	n/a	n/a	GoodResponse	1	n/a	n/a	1	3	Blank	Win	True
43.521	1.45	Win2	0.75	n/a	Yes	2.826	n/a	5.0	GoodResponse	1	0.015	42.536	1	3	Feedback	Win	True
44.976	2.826	Win2	0.75	n/a	Yes	2.826	n/a	n/a	GoodResponse	1	0.0	n/a	1	3	ISIslide	Win	True
47.818	0.25	Win2	0.8	0.0	Yes	3.282	0.018	n/a	GoodResponse	1	n/a	n/a	2	4	Cue	Win	True
48.068	4.0	Win2	0.8	0.0	Yes	3.282	0.0	n/a	GoodResponse	1	n/a	n/a	2	4	Fixation	Win	True
52.064	0.36	Win2	0.8	0.004	Yes	3.282	-0.004	4.0	GoodResponse	1	0.235	51.299	2	4	Target	Win	True
52.299	0.3	Win2	0.8	0.004	Yes	3.282	-0.004	4.0	GoodResponse	1	0.235	n/a	2	4	ButtonPress	Win	True
52.431	0.34	Win2	0.8	n/a	Yes	3.282	n/a	n/a	GoodResponse	1	n/a	n/a	2	4	Blank	Win	True
52.766	1.45	Win2	0.8	n/a	Yes	3.282	n/a	5.0	GoodResponse	1	0.038	51.804	2	4	Feedback	Win	True
54.22	3.282	Win2	0.8	n/a	Yes	3.282	n/a	n/a	GoodResponse	1	0.0	n/a	2	4	ISIslide	Win	True
57.513	0.25	Win2	0.8332999999999999	0.0	Yes	2.787	0.013	n/a	GoodResponse	1	n/a	n/a	3	5	Cue	Win	True
57.764	4.0	Win2	0.8332999999999999	0.0	Yes	2.787	0.001	n/a	GoodResponse	1	n/a	n/a	3	5	Fixation	Win	True
61.759	0.35	Win2	0.8332999999999999	0.004	Yes	2.787	-0.004	4.0	GoodResponse	1	0.232	60.991	3	5	Target	Win	True
61.991	0.3	Win2	0.8332999999999999	0.004	Yes	2.787	-0.004	4.0	GoodResponse	1	0.232	n/a	3	5	ButtonPress	Win	True
62.11	0.35	Win2	0.8332999999999999	n/a	Yes	2.787	n/a	n/a	GoodResponse	1	n/a	n/a	3	5	Blank	Win	True
62.461	1.45	Win2	0.8332999999999999	n/a	Yes	2.787	n/a	5.0	GoodResponse	1	0.002	61.463	3	5	Feedback	Win	True
63.916	2.787	Win2	0.8332999999999999	n/a	Yes	2.787	n/a	n/a	GoodResponse	1	0.0	n/a	3	5	ISIslide	Win	True
66.724	0.25	Lose2	0.8571	0.0	Yes	2.726	0.024	n/a	GoodResponse	0	n/a	n/a	3	6	Cue	AvoidedLoss	True
66.975	3.95	Lose2	0.8571	0.0	Yes	2.726	0.001	n/a	GoodResponse	0	n/a	n/a	3	6	Fixation	AvoidedLoss	True
70.92	0.34	Lose2	0.8571	0.004	Yes	2.726	-0.004	4.0	GoodResponse	0	0.232	70.152	3	6	Target	AvoidedLoss	True
71.152	0.3	Lose2	0.8571	0.004	Yes	2.726	-0.004	4.0	GoodResponse	0	0.232	n/a	3	6	ButtonPress	AvoidedLoss	True
71.271	0.36	Lose2	0.8571	n/a	Yes	2.726	n/a	n/a	GoodResponse	0	n/a	n/a	3	6	Blank	AvoidedLoss	True
71.622	1.45	Lose2	0.8571	n/a	Yes	2.726	n/a	5.0	GoodResponse	0	0.012	70.634	3	6	Feedback	AvoidedLoss	True
73.077	2.726	Lose2	0.8571	n/a	Yes	2.726	n/a	n/a	GoodResponse	0	0.0	n/a	3	6	ISIslide	AvoidedLoss	True
75.818	0.25	Lose2	0.875	0.0	Yes	4.032	0.018	n/a	GoodResponse	0	n/a	n/a	3	7	Cue	AvoidedLoss	True
76.069	4.05	Lose2	0.875	0.0	Yes	4.032	0.001	n/a	GoodResponse	0	n/a	n/a	3	7	Fixation	AvoidedLoss	True
80.114	0.33	Lose2	0.875	0.004	Yes	4.032	-0.004	4.0	GoodResponse	0	0.252	79.366	3	7	Target	AvoidedLoss	True
80.366	0.3	Lose2	0.875	0.004	Yes	4.032	-0.004	4.0	GoodResponse	0	0.252	n/a	3	7	ButtonPress	AvoidedLoss	True
80.449	0.37	Lose2	0.875	n/a	Yes	4.032	n/a	n/a	GoodResponse	0	n/a	n/a	3	7	Blank	AvoidedLoss	True
80.816	1.45	Lose2	0.875	n/a	Yes	4.032	n/a	5.0	GoodResponse	0	0.037	79.853	3	7	Feedback	AvoidedLoss	True
82.271	4.032	Lose2	0.875	n/a	Yes	4.032	n/a	n/a	GoodResponse	0	0.0	n/a	3	7	ISIslide	AvoidedLoss	True
86.316	0.25	Lose2	0.8889	0.0	Yes	3.034	0.016	n/a	GoodResponse	0	n/a	n/a	3	8	Cue	AvoidedLoss	True
86.567	3.95	Lose2	0.8889	0.0	Yes	3.034	0.001	n/a	GoodResponse	0	n/a	n/a	3	8	Fixation	AvoidedLoss	True
90.512	0.32	Lose2	0.8889	0.004	Yes	3.034	-0.004	4.0	GoodResponse	0	0.231	89.743	3	8	Target	AvoidedLoss	True
90.743	0.3	Lose2	0.8889	0.004	Yes	3.034	-0.004	4.0	GoodResponse	0	0.231	n/a	3	8	ButtonPress	AvoidedLoss	True
90.846	0.38	Lose2	0.8889	n/a	Yes	3.034	n/a	n/a	GoodResponse	0	n/a	n/a	3	8	Blank	AvoidedLoss	True
91.214	1.45	Lose2	0.8889	n/a	Yes	3.034	n/a	5.0	GoodResponse	0	0.029	90.243	3	8	Feedback	AvoidedLoss	True
92.668	3.034	Lose2	0.8889	n/a	Yes	3.034	n/a	n/a	GoodResponse	0	0.0	n/a	3	8	ISIslide	AvoidedLoss	True
95.728	0.25	Lose2	0.9	0.0	Yes	3.122	0.028	n/a	GoodResponse	0	n/a	n/a	3	9	Cue	AvoidedLoss	False
95.978	3.95	Lose2	0.9	0.0	Yes	3.122	0.0	4.0	GoodResponse	0	0.167	95.145	3	9	Fixation	AvoidedLoss	False
96.145	0.3	Lose2	0.9	0.0	Yes	3.122	0.0	4.0	GoodResponse	0	0.167	n/a	3	9	ButtonPress	AvoidedLoss	False
99.94	0.31	Lose2	0.9	0.0	Yes	3.122	0.012	4.0	GoodResponse	0	0.22	99.16	3	9	Target	AvoidedLoss	False
100.16	0.3	Lose2	0.9	0.0	Yes	3.122	0.012	4.0	GoodResponse	0	0.22	n/a	3	9	ButtonPress	AvoidedLoss	False
100.241	0.39	Lose2	0.9	n/a	Yes	3.122	n/a	n/a	GoodResponse	0	n/a	n/a	3	9	Blank	AvoidedLoss	False
100.626	1.45	Lose2	0.9	n/a	Yes	3.122	n/a	5.0	GoodResponse	0	0.031	99.657	3	9	Feedback	AvoidedLoss	False
102.08	3.122	Lose2	0.9	n/a	Yes	3.122	n/a	n/a	GoodResponse	0	0.0	n/a	3	9	ISIslide	AvoidedLoss	False
105.223	0.25	Control	0.9091	0.0	Yes	3.277	0.023	n/a	GoodResponse	0	n/a	n/a	3	10	Cue	Neutral	True
105.473	4.0	Control	0.9091	0.0	Yes	3.277	0.0	n/a	GoodResponse	0	n/a	n/a	3	10	Fixation	Neutral	True
109.469	0.3	Control	0.9091	0.004	Yes	3.277	-0.004	4.0	GoodResponse	0	0.278	108.747	3	10	Target	Neutral	True
109.747	0.3	Control	0.9091	0.004	Yes	3.277	-0.004	4.0	GoodResponse	0	0.278	n/a	3	10	ButtonPress	Neutral	True
109.77	0.4	Control	0.9091	n/a	Yes	3.277	n/a	n/a	GoodResponse	0	n/a	n/a	3	10	Blank	Neutral	True
110.171	1.45	Control	0.9091	n/a	Yes	3.277	n/a	5.0	GoodResponse	0	0.047	109.218	3	10	Feedback	Neutral	True
111.625	3.277	Control	0.9091	n/a	Yes	3.277	n/a	n/a	GoodResponse	0	0.0	n/a	3	10	ISIslide	Neutral	True
114.918	0.25	Lose2	0.9167000000000001	0.0	Yes	2.732	0.018	n/a	GoodResponse	0	n/a	n/a	3	11	Cue	AvoidedLoss	True
115.169	4.05	Lose2	0.9167000000000001	0.0	Yes	2.732	0.001	n/a	GoodResponse	0	n/a	n/a	3	11	Fixation	AvoidedLoss	True
119.214	0.29	Lose2	0.9167000000000001	0.004	Yes	2.732	-0.004	4.0	GoodResponse	0	0.226	118.44	3	11	Target	AvoidedLoss	True
119.44	0.3	Lose2	0.9167000000000001	0.004	Yes	2.732	-0.004	4.0	GoodResponse	0	0.226	n/a	3	11	ButtonPress	AvoidedLoss	True
119.515	0.41	Lose2	0.9167000000000001	n/a	Yes	2.732	n/a	n/a	GoodResponse	0	n/a	n/a	3	11	Blank	AvoidedLoss	True
119.917	1.45	Lose2	0.9167000000000001	n/a	Yes	2.732	n/a	5.0	GoodResponse	0	0.009	118.926	3	11	Feedback	AvoidedLoss	True
121.371	2.732	Lose2	0.9167000000000001	n/a	Yes	2.732	n/a	n/a	GoodResponse	0	0.0	n/a	3	11	ISIslide	AvoidedLoss	True
124.129	0.25	Control	0.9231	0.0	Yes	2.971	0.029	n/a	GoodResponse	0	n/a	n/a	3	12	Cue	Neutral	True
124.38	3.9	Control	0.9231	0.0	Yes	2.971	0.001	n/a	GoodResponse	0	n/a	n/a	3	12	Fixation	Neutral	True
128.275	0.28	Control	0.9231	0.004	Yes	2.971	-0.004	4.0	GoodResponse	0	0.208	127.483	3	12	Target	Neutral	True
128.483	0.3	Control	0.9231	0.004	Yes	2.971	-0.004	4.0	GoodResponse	0	0.208	n/a	3	12	ButtonPress	Neutral	True
128.559	0.42	Control	0.9231	n/a	Yes	2.971	n/a	n/a	GoodResponse	0	n/a	n/a	3	12	Blank	Neutral	True
128.977	1.45	Control	0.9231	n/a	Yes	2.971	n/a	5.0	GoodResponse	0	0.021	127.998	3	12	Feedback	Neutral	True
130.431	2.971	Control	0.9231	n/a	Yes	2.971	n/a	n/a	GoodResponse	0	0.0	n/a	3	12	ISIslide	Neutral	True
133.424	0.25	Control	0.8571	0.0	No	2.776	0.024	n/a	NoResponse	0	n/a	n/a	3	13	Cue	Neutral	False
133.674	4.0	Control	0.8571	0.0	No	2.776	0.0	4.0	NoResponse	0	3.852	136.526	3	13	Fixation	Neutral	False
137.526	0.3	Control	0.8571	0.0	No	2.776	0.0	4.0	NoResponse	0	3.852	n/a	3	13	ButtonPress	Neutral	False
137.67	0.27	Control	0.8571	0.004	No	2.776	-0.004	4.0	NoResponse	0	0.61	137.28	3	13	Target	Neutral	False
137.954	0.43	Control	0.8571	n/a	No	2.776	n/a	n/a	NoResponse	0	n/a	n/a	3	13	Blank	Neutral	False
138.28	0.3	Control	0.8571	0.004	No	2.776	-0.004	4.0	NoResponse	0	0.61	n/a	3	13	ButtonPress	Neutral	False
138.372	1.45	Control	0.8571	n/a	No	2.776	n/a	5.0	NoResponse	0	0.041	137.413	3	13	Feedback	Neutral	False
139.826	2.776	Control	0.8571	n/a	No	2.776	n/a	n/a	NoResponse	0	0.0	n/a	3	13	ISIslide	Neutral	False
142.618	0.25	Win2	0.8667	0.0	Yes	2.682	0.018	n/a	GoodResponse	1	n/a	n/a	4	14	Cue	Win	True
142.869	4.1	Win2	0.8667	0.0	Yes	2.682	0.001	n/a	GoodResponse	1	n/a	n/a	4	14	Fixation	Win	True
146.964	0.26	Win2	0.8667	0.004	Yes	2.682	-0.004	4.0	GoodResponse	1	0.225	146.189	4	14	Target	Win	True
147.189	0.3	Win2	0.8667	0.004	Yes	2.682	-0.004	4.0	GoodResponse	1	0.225	n/a	4	14	ButtonPress	Win	True
147.232	0.44	Win2	0.8667	n/a	Yes	2.682	n/a	n/a	GoodResponse	1	n/a	n/a	4	14	Blank	Win	True
147.666	1.45	Win2	0.8667	n/a	Yes	2.682	n/a	5.0	GoodResponse	1	0.015	146.681	4	14	Feedback	Win	True
149.121	2.682	Win2	0.8667	n/a	Yes	2.682	n/a	n/a	GoodResponse	1	0.0	n/a	4	14	ISIslide	Win	True
151.829	0.25	Control	0.8125	0.0	No	2.971	0.029	n/a	NoResponse	0	n/a	n/a	4	15	Cue	Neutral	False
152.079	4.0	Control	0.8125	0.001	No	2.971	0.0	n/a	NoResponse	0	n/a	n/a	4	15	Fixation	Neutral	False
156.075	0.25	Control	0.8125	0.004	No	2.971	-0.004	n/a	NoResponse	0	n/a	n/a	4	15	Target	Neutral	False
156.325	0.45	Control	0.8125	n/a	No	2.971	n/a	n/a	NoResponse	0	n/a	n/a	4	15	Blank	Neutral	False
156.777	1.45	Control	0.8125	n/a	No	2.971	n/a	5.0	NoResponse	0	0.026	155.803	4	15	Feedback	Neutral	False
158.231	2.971	Control	0.8125	n/a	No	2.971	n/a	n/a	NoResponse	0	0.0	n/a	4	15	ISIslide	Neutral	False
161.223	0.25	Win2	0.7646999999999999	0.0	No	2.877	0.023	n/a	NoResponse	0	n/a	n/a	4	16	Cue	MissedWin	False
161.474	4.0	Win2	0.7646999999999999	0.0	No	2.877	0.001	n/a	NoResponse	0	n/a	n/a	4	16	Fixation	MissedWin	False
165.469	0.24	Win2	0.7646999999999999	0.004	No	2.877	-0.004	n/a	NoResponse	0	n/a	n/a	4	16	Target	MissedWin	False
165.72	0.46	Win2	0.7646999999999999	n/a	No	2.877	n/a	n/a	NoResponse	0	n/a	n/a	4	16	Blank	MissedWin	False
166.172	1.45	Win2	0.7646999999999999	n/a	No	2.877	n/a	5.0	NoResponse	0	0.046	165.218	4	16	Feedback	MissedWin	False
167.626	2.877	Win2	0.7646999999999999	n/a	No	2.877	n/a	n/a	NoResponse	0	0.0	n/a	4	16	ISIslide	MissedWin	False
170.518	0.25	Lose2	0.7222	0.0	No	2.732	0.018	n/a	NoResponse	-1	n/a	n/a	3	17	Cue	Loss	True
170.769	3.95	Lose2	0.7222	0.0	No	2.732	0.001	n/a	NoResponse	-1	n/a	n/a	3	17	Fixation	Loss	True
174.714	0.23	Lose2	0.7222	0.004	No	2.732	-0.004	4.0	NoResponse	-1	0.249	173.963	3	17	Target	Loss	True
174.948	0.47	Lose2	0.7222	n/a	No	2.732	n/a	n/a	NoResponse	-1	n/a	n/a	3	17	Blank	Loss	True
174.963	0.3	Lose2	0.7222	0.004	No	2.732	-0.004	4.0	NoResponse	-1	0.249	n/a	3	17	ButtonPress	Loss	True
175.416	1.45	Lose2	0.7222	n/a	No	2.732	n/a	5.0	NoResponse	-1	0.021	174.437	3	17	Feedback	Loss	True
176.87	2.732	Lose2	0.7222	n/a	No	2.732	n/a	n/a	NoResponse	-1	0.0	n/a	3	17	ISIslide	Loss	True
179.628	0.25	Lose2	0.7368000000000001	0.001	Yes	2.722	0.028	n/a	GoodResponse	0	n/a	n/a	3	18	Cue	AvoidedLoss	True
179.879	4.05	Lose2	0.7368000000000001	0.0	Yes	2.722	0.001	n/a	GoodResponse	0	n/a	n/a	3	18	Fixation	AvoidedLoss	True
183.925	0.22	Lose2	0.7368000000000001	0.003	Yes	2.722	-0.003	4.0	GoodResponse	0	0.209	183.134	3	18	Target	AvoidedLoss	True
184.134	0.3	Lose2	0.7368000000000001	0.003	Yes	2.722	-0.003	4.0	GoodResponse	0	0.209	n/a	3	18	ButtonPress	AvoidedLoss	True
184.159	0.48	Lose2	0.7368000000000001	n/a	Yes	2.722	n/a	n/a	GoodResponse	0	n/a	n/a	3	18	Blank	AvoidedLoss	True
184.627	1.45	Lose2	0.7368000000000001	n/a	Yes	2.722	n/a	5.0	GoodResponse	0	0.029	183.656	3	18	Feedback	AvoidedLoss	True
186.081	2.722	Lose2	0.7368000000000001	n/a	Yes	2.722	n/a	n/a	GoodResponse	0	0.0	n/a	3	18	ISIslide	AvoidedLoss	True
188.823	0.25	Control	0.7	0.0	No	2.927	0.023	n/a	NoResponse	0	n/a	n/a	3	19	Cue	Neutral	True
189.073	3.95	Control	0.7	0.0	No	2.927	0.0	n/a	NoResponse	0	n/a	n/a	3	19	Fixation	Neutral	True
193.035	0.21	Control	0.7	0.0	No	2.927	0.012	4.0	NoResponse	0	0.329	192.364	3	19	Target	Neutral	True
193.236	0.49	Control	0.7	n/a	No	2.927	n/a	n/a	NoResponse	0	n/a	n/a	3	19	Blank	Neutral	True
193.364	0.3	Control	0.7	0.0	No	2.927	0.012	4.0	NoResponse	0	0.329	n/a	3	19	ButtonPress	Neutral	True
193.721	1.45	Control	0.7	n/a	No	2.927	n/a	5.0	NoResponse	0	0.009	192.73	3	19	Feedback	Neutral	True
195.175	2.927	Control	0.7	n/a	No	2.927	n/a	n/a	NoResponse	0	0.0	n/a	3	19	ISIslide	Neutral	True
198.117	0.25	Control	0.6667000000000001	0.0	No	2.633	0.017	n/a	NoResponse	0	n/a	n/a	3	20	Cue	Neutral	False
198.368	4.05	Control	0.6667000000000001	0.0	No	2.633	0.001	4.0	NoResponse	0	0.077	197.445	3	20	Fixation	Neutral	False
198.445	0.3	Control	0.6667000000000001	0.0	No	2.633	0.001	4.0	NoResponse	0	0.077	n/a	3	20	ButtonPress	Neutral	False
202.413	0.2	Control	0.6667000000000001	0.004	No	2.633	-0.004	4.0	NoResponse	0	0.241	201.654	3	20	Target	Neutral	False
202.614	0.5	Control	0.6667000000000001	n/a	No	2.633	n/a	n/a	NoResponse	0	n/a	n/a	3	20	Blank	Neutral	False
202.654	0.3	Control	0.6667000000000001	0.004	No	2.633	-0.004	4.0	NoResponse	0	0.241	n/a	3	20	ButtonPress	Neutral	False
203.115	1.45	Control	0.6667000000000001	n/a	No	2.633	n/a	5.0	NoResponse	0	0.029	202.144	3	20	Feedback	Neutral	False
204.57	2.633	Control	0.6667000000000001	n/a	No	2.633	n/a	n/a	NoResponse	0	0.0	n/a	3	20	ISIslide	Neutral	False
207.228	0.25	Control	0.6364	0.0	No	2.772	0.028	n/a	NoResponse	0	n/a	n/a	3	21	Cue	Neutral	True
207.478	4.1	Control	0.6364	0.0	No	2.772	0.0	n/a	NoResponse	0	n/a	n/a	3	21	Fixation	Neutral	True
211.574	0.19	Control	0.6364	0.004	No	2.772	-0.004	4.0	NoResponse	0	0.283	210.857	3	21	Target	Neutral	True
211.775	0.51	Control	0.6364	n/a	No	2.772	n/a	n/a	NoResponse	0	n/a	n/a	3	21	Blank	Neutral	True
211.857	0.3	Control	0.6364	0.004	No	2.772	-0.004	4.0	NoResponse	0	0.283	n/a	3	21	ButtonPress	Neutral	True
212.276	1.45	Control	0.6364	n/a	No	2.772	n/a	5.0	NoResponse	0	0.038	211.314	3	21	Feedback	Neutral	True
213.73	2.772	Control	0.6364	n/a	No	2.772	n/a	n/a	NoResponse	0	0.0	n/a	3	21	ISIslide	Neutral	True
216.522	0.25	Control	0.6087	0.0	No	2.778	0.022	n/a	NoResponse	0	n/a	n/a	3	22	Cue	Neutral	True
216.773	4.0	Control	0.6087	0.0	No	2.778	0.001	n/a	NoResponse	0	n/a	n/a	3	22	Fixation	Neutral	True
220.768	0.2	Control	0.6087	0.004	No	2.778	-0.004	4.0	NoResponse	0	0.282	220.05	3	22	Target	Neutral	True
220.969	0.5	Control	0.6087	n/a	No	2.778	n/a	n/a	NoResponse	0	n/a	n/a	3	22	Blank	Neutral	True
221.05	0.3	Control	0.6087	0.004	No	2.778	-0.004	4.0	NoResponse	0	0.282	n/a	3	22	ButtonPress	Neutral	True
221.47	1.45	Control	0.6087	n/a	No	2.778	n/a	5.0	NoResponse	0	0.015	220.485	3	22	Feedback	Neutral	True
222.925	2.778	Control	0.6087	n/a	No	2.778	n/a	n/a	NoResponse	0	0.0	n/a	3	22	ISIslide	Neutral	True
225.716	0.25	Control	0.625	0.0	Yes	2.784	0.016	n/a	GoodResponse	0	n/a	n/a	3	23	Cue	Neutral	False
225.967	3.9	Control	0.625	0.0	Yes	2.784	0.001	4.0	GoodResponse	0	0.03	224.997	3	23	Fixation	Neutral	False
225.997	0.3	Control	0.625	0.0	Yes	2.784	0.001	4.0	GoodResponse	0	0.03	n/a	3	23	ButtonPress	Neutral	False
229.862	0.21	Control	0.625	0.004	Yes	2.784	-0.004	4.0	GoodResponse	0	0.183	229.045	3	23	Target	Neutral	False
230.045	0.3	Control	0.625	0.004	Yes	2.784	-0.004	4.0	GoodResponse	0	0.183	n/a	3	23	ButtonPress	Neutral	False
230.079	0.49	Control	0.625	n/a	Yes	2.784	n/a	n/a	GoodResponse	0	n/a	n/a	3	23	Blank	Neutral	False
230.564	1.45	Control	0.625	n/a	Yes	2.784	n/a	5.0	GoodResponse	0	0.043	229.607	3	23	Feedback	Neutral	False
232.018	2.784	Control	0.625	n/a	Yes	2.784	n/a	n/a	GoodResponse	0	0.0	n/a	3	23	ISIslide	Neutral	False
234.827	0.25	Win2	0.64	0.0	Yes	3.123	0.027	n/a	GoodResponse	1	n/a	n/a	4	24	Cue	Win	True
235.078	3.95	Win2	0.64	0.0	Yes	3.123	0.001	n/a	GoodResponse	1	n/a	n/a	4	24	Fixation	Win	True
239.023	0.22	Win2	0.64	0.004	Yes	3.123	-0.004	4.0	GoodResponse	1	0.215	238.238	4	24	Target	Win	True
239.238	0.3	Win2	0.64	0.004	Yes	3.123	-0.004	4.0	GoodResponse	1	0.215	n/a	4	24	ButtonPress	Win	True
239.257	0.48	Win2	0.64	n/a	Yes	3.123	n/a	n/a	GoodResponse	1	n/a	n/a	4	24	Blank	Win	True
239.725	1.45	Win2	0.64	n/a	Yes	3.123	n/a	5.0	GoodResponse	1	0.004	238.729	4	24	Feedback	Win	True
241.179	3.123	Win2	0.64	n/a	Yes	3.123	n/a	n/a	GoodResponse	1	0.0	n/a	4	24	ISIslide	Win	True
244.322	0.25	Win2	0.6154	0.0	No	3.078	0.022	n/a	NoResponse	0	n/a	n/a	4	25	Cue	MissedWin	False
244.573	4.0	Win2	0.6154	0.0	No	3.078	0.001	n/a	NoResponse	0	n/a	n/a	4	25	Fixation	MissedWin	False
248.568	0.23	Win2	0.6154	0.004	No	3.078	-0.004	n/a	NoResponse	0	n/a	n/a	4	25	Target	MissedWin	False
248.802	0.47	Win2	0.6154	n/a	No	3.078	n/a	n/a	NoResponse	0	n/a	n/a	4	25	Blank	MissedWin	False
249.27	1.45	Win2	0.6154	n/a	No	3.078	n/a	5.0	NoResponse	0	0.02	248.29	4	25	Feedback	MissedWin	False
250.724	3.078	Win2	0.6154	n/a	No	3.078	n/a	n/a	NoResponse	0	0.0	n/a	4	25	ISIslide	MissedWin	False
253.817	0.25	Win2	0.6296	0.0	Yes	2.933	0.017	n/a	GoodResponse	1	n/a	n/a	5	26	Cue	Win	True
254.068	3.95	Win2	0.6296	0.0	Yes	2.933	0.001	n/a	GoodResponse	1	n/a	n/a	5	26	Fixation	Win	True
258.013	0.24	Win2	0.6296	0.004	Yes	2.933	-0.004	4.0	GoodResponse	1	0.219	257.232	5	26	Target	Win	True
258.232	0.3	Win2	0.6296	0.004	Yes	2.933	-0.004	4.0	GoodResponse	1	0.219	n/a	5	26	ButtonPress	Win	True
258.264	0.46	Win2	0.6296	n/a	Yes	2.933	n/a	n/a	GoodResponse	1	n/a	n/a	5	26	Blank	Win	True
258.715	1.45	Win2	0.6296	n/a	Yes	2.933	n/a	5.0	GoodResponse	1	0.038	257.753	5	26	Feedback	Win	True
260.169	2.933	Win2	0.6296	n/a	Yes	2.933	n/a	n/a	GoodResponse	1	0.0	n/a	5	26	ISIslide	Win	True
263.128	0.25	Lose2	0.6429	0.0	Yes	2.822	0.028	n/a	GoodResponse	0	n/a	n/a	5	27	Cue	AvoidedLoss	True
263.379	4.05	Lose2	0.6429	0.0	Yes	2.822	0.001	n/a	GoodResponse	0	n/a	n/a	5	27	Fixation	AvoidedLoss	True
267.424	0.25	Lose2	0.6429	0.004	Yes	2.822	-0.004	4.0	GoodResponse	0	0.202	266.626	5	27	Target	AvoidedLoss	True
267.626	0.3	Lose2	0.6429	0.004	Yes	2.822	-0.004	4.0	GoodResponse	0	0.202	n/a	5	27	ButtonPress	AvoidedLoss	True
267.675	0.45	Lose2	0.6429	n/a	Yes	2.822	n/a	n/a	GoodResponse	0	n/a	n/a	5	27	Blank	AvoidedLoss	True
268.126	1.45	Lose2	0.6429	n/a	Yes	2.822	n/a	5.0	GoodResponse	0	0.041	267.167	5	27	Feedback	AvoidedLoss	True
269.581	2.822	Lose2	0.6429	n/a	Yes	2.822	n/a	n/a	GoodResponse	0	0.0	n/a	5	27	ISIslide	AvoidedLoss	True
272.423	0.25	Control	0.6552	0.0	Yes	2.827	0.023	n/a	GoodResponse	0	n/a	n/a	5	28	Cue	Neutral	True
272.673	4.05	Control	0.6552	0.0	Yes	2.827	0.0	n/a	GoodResponse	0	n/a	n/a	5	28	Fixation	Neutral	True
276.719	0.26	Control	0.6552	0.004	Yes	2.827	-0.004	4.0	GoodResponse	0	0.248	275.967	5	28	Target	Neutral	True
276.967	0.3	Control	0.6552	0.004	Yes	2.827	-0.004	4.0	GoodResponse	0	0.248	n/a	5	28	ButtonPress	Neutral	True
276.986	0.44	Control	0.6552	n/a	Yes	2.827	n/a	n/a	GoodResponse	0	n/a	n/a	5	28	Blank	Neutral	True
277.421	1.45	Control	0.6552	n/a	Yes	2.827	n/a	5.0	GoodResponse	0	0.015	276.436	5	28	Feedback	Neutral	True
278.875	2.827	Control	0.6552	n/a	Yes	2.827	n/a	n/a	GoodResponse	0	0.0	n/a	5	28	ISIslide	Neutral	True
281.717	0.25	Lose2	0.6333	0.0	No	2.833	0.017	n/a	NoResponse	-1	n/a	n/a	4	29	Cue	Loss	True
281.968	3.95	Lose2	0.6333	0.0	No	2.833	0.001	n/a	NoResponse	-1	n/a	n/a	4	29	Fixation	Loss	True
285.913	0.26	Lose2	0.6333	0.004	No	2.833	-0.004	4.0	NoResponse	-1	0.548	285.461	4	29	Target	Loss	True
286.18	0.44	Lose2	0.6333	n/a	No	2.833	n/a	n/a	NoResponse	-1	n/a	n/a	4	29	Blank	Loss	True
286.461	0.3	Lose2	0.6333	0.004	No	2.833	-0.004	4.0	NoResponse	-1	0.548	n/a	4	29	ButtonPress	Loss	True
286.615	1.45	Lose2	0.6333	n/a	No	2.833	n/a	5.0	NoResponse	-1	0.04	285.655	4	29	Feedback	Loss	True
288.069	2.833	Lose2	0.6333	n/a	No	2.833	n/a	n/a	NoResponse	-1	0.0	n/a	4	29	ISIslide	Loss	True
290.928	0.25	Win2	0.6452	0.0	Yes	2.772	0.028	n/a	GoodResponse	1	n/a	n/a	5	30	Cue	Win	True
291.179	3.9	Win2	0.6452	0.0	Yes	2.772	0.001	n/a	GoodResponse	1	n/a	n/a	5	30	Fixation	Win	True
295.074	0.27	Win2	0.6452	0.004	Yes	2.772	-0.004	4.0	GoodResponse	1	0.252	294.326	5	30	Target	Win	True
295.326	0.3	Win2	0.6452	0.004	Yes	2.772	-0.004	4.0	GoodResponse	1	0.252	n/a	5	30	ButtonPress	Win	True
295.358	0.43	Win2	0.6452	n/a	Yes	2.772	n/a	n/a	GoodResponse	1	n/a	n/a	5	30	Blank	Win	True
295.776	1.45	Win2	0.6452	n/a	Yes	2.772	n/a	5.0	GoodResponse	1	0.002	294.778	5	30	Feedback	Win	True
297.23	2.772	Win2	0.6452	n/a	Yes	2.772	n/a	n/a	GoodResponse	1	0.0	n/a	5	30	ISIslide	Win	True
300.022	0.25	Lose2	0.6562	0.0	Yes	2.828	0.022	n/a	GoodResponse	0	n/a	n/a	5	31	Cue	AvoidedLoss	True
300.272	4.05	Lose2	0.6562	0.001	Yes	2.828	0.0	n/a	GoodResponse	0	n/a	n/a	5	31	Fixation	AvoidedLoss	True
304.318	0.28	Lose2	0.6562	0.004	Yes	2.828	-0.004	4.0	GoodResponse	0	0.194	303.512	5	31	Target	AvoidedLoss	True
304.512	0.3	Lose2	0.6562	0.004	Yes	2.828	-0.004	4.0	GoodResponse	0	0.194	n/a	5	31	ButtonPress	AvoidedLoss	True
304.602	0.42	Lose2	0.6562	n/a	Yes	2.828	n/a	n/a	GoodResponse	0	n/a	n/a	5	31	Blank	AvoidedLoss	True
305.02	1.45	Lose2	0.6562	n/a	Yes	2.828	n/a	5.0	GoodResponse	0	0.025	304.045	5	31	Feedback	AvoidedLoss	True
306.474	2.828	Lose2	0.6562	n/a	Yes	2.828	n/a	n/a	GoodResponse	0	0.0	n/a	5	31	ISIslide	AvoidedLoss	True
309.316	0.25	Lose2	0.6667000000000001	0.0	Yes	2.634	0.016	n/a	GoodResponse	0	n/a	n/a	5	32	Cue	AvoidedLoss	True
309.567	4.15	Lose2	0.6667000000000001	0.0	Yes	2.634	0.001	n/a	GoodResponse	0	n/a	n/a	5	32	Fixation	AvoidedLoss	True
313.713	0.28	Lose2	0.6667000000000001	0.003	Yes	2.634	-0.003	4.0	GoodResponse	0	0.233	312.946	5	32	Target	AvoidedLoss	True
313.946	0.3	Lose2	0.6667000000000001	0.003	Yes	2.634	-0.003	4.0	GoodResponse	0	0.233	n/a	5	32	ButtonPress	AvoidedLoss	True
313.997	0.42	Lose2	0.6667000000000001	n/a	Yes	2.634	n/a	n/a	GoodResponse	0	n/a	n/a	5	32	Blank	AvoidedLoss	True
314.415	1.45	Lose2	0.6667000000000001	n/a	Yes	2.634	n/a	5.0	GoodResponse	0	0.045	313.46	5	32	Feedback	AvoidedLoss	True
315.869	2.634	Lose2	0.6667000000000001	n/a	Yes	2.634	n/a	n/a	GoodResponse	0	0.0	n/a	5	32	ISIslide	AvoidedLoss	True
318.527	0.25	Win2	0.6470999999999999	0.0	No	2.673	0.027	n/a	LatePress	0	n/a	n/a	5	33	Cue	MissedWin	True
318.778	4.0	Win2	0.6470999999999999	0.0	No	2.673	0.001	n/a	LatePress	0	n/a	n/a	5	33	Fixation	MissedWin	True
322.773	0.27	Win2	0.6470999999999999	0.004	No	2.673	-0.004	4.0	LatePress	0	0.272	322.045	5	33	Target	MissedWin	True
323.045	0.3	Win2	0.6470999999999999	0.004	No	2.673	-0.004	4.0	LatePress	0	0.272	n/a	5	33	ButtonPress	MissedWin	True
323.057	0.43	Win2	0.6470999999999999	n/a	No	2.673	n/a	n/a	LatePress	0	n/a	n/a	5	33	Blank	MissedWin	True
323.475	1.45	Win2	0.6470999999999999	n/a	No	2.673	n/a	5.0	LatePress	0	0.009	322.484	5	33	Feedback	MissedWin	True
324.93	2.673	Win2	0.6470999999999999	n/a	No	2.673	n/a	n/a	LatePress	0	0.0	n/a	5	33	ISIslide	MissedWin	True
327.621	0.25	Lose2	0.6286	0.0	No	2.629	0.021	n/a	NoResponse	-1	n/a	n/a	4	34	Cue	Loss	True
327.872	4.05	Lose2	0.6286	0.0	No	2.629	0.001	n/a	NoResponse	-1	n/a	n/a	4	34	Fixation	Loss	True
331.917	0.28	Lose2	0.6286	0.004	No	2.629	-0.004	4.0	NoResponse	-1	0.528	331.445	4	34	Target	Loss	True
332.201	0.42	Lose2	0.6286	n/a	No	2.629	n/a	n/a	NoResponse	-1	n/a	n/a	4	34	Blank	Loss	True
332.445	0.3	Lose2	0.6286	0.004	No	2.629	-0.004	4.0	NoResponse	-1	0.528	n/a	4	34	ButtonPress	Loss	True
332.619	1.45	Lose2	0.6286	n/a	No	2.629	n/a	5.0	NoResponse	-1	0.036	331.655	4	34	Feedback	Loss	True
334.074	2.629	Lose2	0.6286	n/a	No	2.629	n/a	n/a	NoResponse	-1	0.0	n/a	4	34	ISIslide	Loss	True
336.715	0.25	Lose2	0.6389	0.0	Yes	2.685	0.015	n/a	GoodResponse	0	n/a	n/a	4	35	Cue	AvoidedLoss	True
336.966	4.0	Lose2	0.6389	0.0	Yes	2.685	0.001	n/a	GoodResponse	0	n/a	n/a	4	35	Fixation	AvoidedLoss	True
340.961	0.29	Lose2	0.6389	0.004	Yes	2.685	-0.004	4.0	GoodResponse	0	0.17	340.131	4	35	Target	AvoidedLoss	True
341.131	0.3	Lose2	0.6389	0.004	Yes	2.685	-0.004	4.0	GoodResponse	0	0.17	n/a	4	35	ButtonPress	AvoidedLoss	True
341.262	0.41	Lose2	0.6389	n/a	Yes	2.685	n/a	n/a	GoodResponse	0	n/a	n/a	4	35	Blank	AvoidedLoss	True
341.663	1.45	Lose2	0.6389	n/a	Yes	2.685	n/a	5.0	GoodResponse	0	0.016	340.679	4	35	Feedback	AvoidedLoss	True
343.117	2.685	Lose2	0.6389	n/a	Yes	2.685	n/a	n/a	GoodResponse	0	0.0	n/a	4	35	ISIslide	AvoidedLoss	True
345.825	0.25	Control	0.6215999999999999	0.0	No	2.675	0.025	n/a	NoResponse	0	n/a	n/a	4	36	Cue	Neutral	False
346.076	4.0	Control	0.6215999999999999	0.0	No	2.675	0.001	n/a	NoResponse	0	n/a	n/a	4	36	Fixation	Neutral	False
350.071	0.3	Control	0.6215999999999999	0.004	No	2.675	-0.004	n/a	NoResponse	0	n/a	n/a	4	36	Target	Neutral	False
350.372	0.4	Control	0.6215999999999999	n/a	No	2.675	n/a	n/a	NoResponse	0	n/a	n/a	4	36	Blank	Neutral	False
350.773	1.45	Control	0.6215999999999999	n/a	No	2.675	n/a	5.0	NoResponse	0	0.027	349.8	4	36	Feedback	Neutral	False
352.228	2.675	Control	0.6215999999999999	n/a	No	2.675	n/a	n/a	NoResponse	0	0.0	n/a	4	36	ISIslide	Neutral	False
354.919	0.25	Win2	0.6315999999999999	0.0	Yes	2.881	0.019	n/a	GoodResponse	1	n/a	n/a	5	37	Cue	Win	True
355.17	4.0	Win2	0.6315999999999999	0.0	Yes	2.881	0.001	n/a	GoodResponse	1	n/a	n/a	5	37	Fixation	Win	True
359.165	0.31	Win2	0.6315999999999999	0.004	Yes	2.881	-0.004	4.0	GoodResponse	1	0.203	358.368	5	37	Target	Win	True
359.368	0.3	Win2	0.6315999999999999	0.004	Yes	2.881	-0.004	4.0	GoodResponse	1	0.203	n/a	5	37	ButtonPress	Win	True
359.483	0.39	Win2	0.6315999999999999	n/a	Yes	2.881	n/a	n/a	GoodResponse	1	n/a	n/a	5	37	Blank	Win	True
359.867	1.45	Win2	0.6315999999999999	n/a	Yes	2.881	n/a	5.0	GoodResponse	1	0.007	358.874	5	37	Feedback	Win	True
361.322	2.881	Win2	0.6315999999999999	n/a	Yes	2.881	n/a	n/a	GoodResponse	1	0.0	n/a	5	37	ISIslide	Win	True
364.214	0.25	Lose2	0.6409999999999999	0.0	Yes	2.836	0.014	n/a	GoodResponse	0	n/a	n/a	5	38	Cue	AvoidedLoss	False
364.464	3.95	Lose2	0.6409999999999999	0.001	Yes	2.836	0.0	4.0	GoodResponse	0	3.004	366.468	5	38	Fixation	AvoidedLoss	False
367.468	0.3	Lose2	0.6409999999999999	0.001	Yes	2.836	0.0	4.0	GoodResponse	0	3.004	n/a	5	38	ButtonPress	AvoidedLoss	False
368.41	0.32	Lose2	0.6409999999999999	0.004	Yes	2.836	-0.004	4.0	GoodResponse	0	0.168	367.578	5	38	Target	AvoidedLoss	False
368.578	0.3	Lose2	0.6409999999999999	0.004	Yes	2.836	-0.004	4.0	GoodResponse	0	0.168	n/a	5	38	ButtonPress	AvoidedLoss	False
368.744	0.38	Lose2	0.6409999999999999	n/a	Yes	2.836	n/a	n/a	GoodResponse	0	n/a	n/a	5	38	Blank	AvoidedLoss	False
369.112	1.45	Lose2	0.6409999999999999	n/a	Yes	2.836	n/a	5.0	GoodResponse	0	0.03	368.142	5	38	Feedback	AvoidedLoss	False
370.566	2.836	Lose2	0.6409999999999999	n/a	Yes	2.836	n/a	n/a	GoodResponse	0	0.0	n/a	5	38	ISIslide	AvoidedLoss	False
373.425	0.25	Win2	0.65	0.0	Yes	2.975	0.025	n/a	GoodResponse	1	n/a	n/a	6	39	Cue	Win	True
373.675	4.1	Win2	0.65	0.0	Yes	2.975	0.0	n/a	GoodResponse	1	n/a	n/a	6	39	Fixation	Win	True
377.771	0.33	Win2	0.65	0.004	Yes	2.975	-0.004	4.0	GoodResponse	1	0.215	376.986	6	39	Target	Win	True
377.986	0.3	Win2	0.65	0.004	Yes	2.975	-0.004	4.0	GoodResponse	1	0.215	n/a	6	39	ButtonPress	Win	True
378.105	0.37	Win2	0.65	n/a	Yes	2.975	n/a	n/a	GoodResponse	1	n/a	n/a	6	39	Blank	Win	True
378.473	1.45	Win2	0.65	n/a	Yes	2.975	n/a	5.0	GoodResponse	1	0.035	377.508	6	39	Feedback	Win	True
379.927	2.975	Win2	0.65	n/a	Yes	2.975	n/a	n/a	GoodResponse	1	0.0	n/a	6	39	ISIslide	Win	True
382.92	0.25	Win2	0.6585	0.0	Yes	2.73	0.02	n/a	GoodResponse	1	n/a	n/a	7	40	Cue	Win	True
383.17	3.95	Win2	0.6585	0.0	Yes	2.73	0.0	n/a	GoodResponse	1	n/a	n/a	7	40	Fixation	Win	True
387.132	0.34	Win2	0.6585	0.0	Yes	2.73	0.012	4.0	GoodResponse	1	0.216	386.348	7	40	Target	Win	True
387.348	0.3	Win2	0.6585	0.0	Yes	2.73	0.012	4.0	GoodResponse	1	0.216	n/a	7	40	ButtonPress	Win	True
387.467	0.36	Win2	0.6585	n/a	Yes	2.73	n/a	n/a	GoodResponse	1	n/a	n/a	7	40	Blank	Win	True
387.818	1.45	Win2	0.6585	n/a	Yes	2.73	n/a	5.0	GoodResponse	1	0.006	386.824	7	40	Feedback	Win	True
389.272	2.73	Win2	0.6585	n/a	Yes	2.73	n/a	n/a	GoodResponse	1	0.0	n/a	7	40	ISIslide	Win	True
392.03	0.25	Win2	0.6667000000000001	0.0	Yes	2.77	0.03	n/a	GoodResponse	1	n/a	n/a	8	41	Cue	Win	True
392.281	3.9	Win2	0.6667000000000001	0.0	Yes	2.77	0.001	n/a	GoodResponse	1	n/a	n/a	8	41	Fixation	Win	True
396.176	0.34	Win2	0.6667000000000001	0.004	Yes	2.77	-0.004	4.0	GoodResponse	1	0.185	395.361	8	41	Target	Win	True
396.361	0.3	Win2	0.6667000000000001	0.004	Yes	2.77	-0.004	4.0	GoodResponse	1	0.185	n/a	8	41	ButtonPress	Win	True
396.527	0.36	Win2	0.6667000000000001	n/a	Yes	2.77	n/a	n/a	GoodResponse	1	n/a	n/a	8	41	Blank	Win	True
396.878	1.45	Win2	0.6667000000000001	n/a	Yes	2.77	n/a	5.0	GoodResponse	1	0.02	395.898	8	41	Feedback	Win	True
398.332	2.77	Win2	0.6667000000000001	n/a	Yes	2.77	n/a	n/a	GoodResponse	1	0.0	n/a	8	41	ISIslide	Win	True
401.124	0.25	Control	0.6512	0.0	No	2.926	0.024	n/a	NoResponse	0	n/a	n/a	8	42	Cue	Neutral	True
401.375	3.85	Control	0.6512	0.0	No	2.926	0.001	n/a	NoResponse	0	n/a	n/a	8	42	Fixation	Neutral	True
405.22	0.33	Control	0.6512	0.004	No	2.926	-0.004	4.0	NoResponse	0	0.346	404.566	8	42	Target	Neutral	True
405.554	0.37	Control	0.6512	n/a	No	2.926	n/a	n/a	NoResponse	0	n/a	n/a	8	42	Blank	Neutral	True
405.566	0.3	Control	0.6512	0.004	No	2.926	-0.004	4.0	NoResponse	0	0.346	n/a	8	42	ButtonPress	Neutral	True
405.922	1.45	Control	0.6512	n/a	No	2.926	n/a	5.0	NoResponse	0	0.0	404.922	8	42	Feedback	Neutral	True
407.376	2.926	Control	0.6512	n/a	No	2.926	n/a	n/a	NoResponse	0	0.0	n/a	8	42	ISIslide	Neutral	True
410.318	0.25	Win2	0.6591	0.0	Yes	3.182	0.018	n/a	GoodResponse	1	n/a	n/a	9	43	Cue	Win	True
410.569	4.0	Win2	0.6591	0.0	Yes	3.182	0.001	n/a	GoodResponse	1	n/a	n/a	9	43	Fixation	Win	True
414.564	0.34	Win2	0.6591	0.004	Yes	3.182	-0.004	4.0	GoodResponse	1	0.28	413.844	9	43	Target	Win	True
414.844	0.3	Win2	0.6591	0.004	Yes	3.182	-0.004	4.0	GoodResponse	1	0.28	n/a	9	43	ButtonPress	Win	True
414.915	0.36	Win2	0.6591	n/a	Yes	3.182	n/a	n/a	GoodResponse	1	n/a	n/a	9	43	Blank	Win	True
415.266	1.45	Win2	0.6591	n/a	Yes	3.182	n/a	5.0	GoodResponse	1	0.022	414.288	9	43	Feedback	Win	True
416.721	3.182	Win2	0.6591	n/a	Yes	3.182	n/a	n/a	GoodResponse	1	0.0	n/a	9	43	ISIslide	Win	True
419.93	0.25	Win2	0.6667000000000001	0.0	Yes	2.97	0.03	n/a	GoodResponse	1	n/a	n/a	10	44	Cue	Win	True
420.181	4.0	Win2	0.6667000000000001	0.0	Yes	2.97	0.001	n/a	GoodResponse	1	n/a	n/a	10	44	Fixation	Win	True
424.176	0.34	Win2	0.6667000000000001	0.004	Yes	2.97	-0.004	4.0	GoodResponse	1	0.178	423.354	10	44	Target	Win	True
424.354	0.3	Win2	0.6667000000000001	0.004	Yes	2.97	-0.004	4.0	GoodResponse	1	0.178	n/a	10	44	ButtonPress	Win	True
424.527	0.36	Win2	0.6667000000000001	n/a	Yes	2.97	n/a	n/a	GoodResponse	1	n/a	n/a	10	44	Blank	Win	True
424.878	1.45	Win2	0.6667000000000001	n/a	Yes	2.97	n/a	5.0	GoodResponse	1	0.02	423.898	10	44	Feedback	Win	True
426.333	2.97	Win2	0.6667000000000001	n/a	Yes	2.97	n/a	n/a	GoodResponse	1	0.0	n/a	10	44	ISIslide	Win	True
429.325	0.25	Control	0.6522	0.0	No	2.875	0.025	n/a	NoResponse	0	n/a	n/a	10	45	Cue	Neutral	False
429.576	4.1	Control	0.6522	0.0	No	2.875	0.001	n/a	NoResponse	0	n/a	n/a	10	45	Fixation	Neutral	False
433.671	0.33	Control	0.6522	0.004	No	2.875	-0.004	n/a	NoResponse	0	n/a	n/a	10	45	Target	Neutral	False
434.006	0.37	Control	0.6522	n/a	No	2.875	n/a	n/a	NoResponse	0	n/a	n/a	10	45	Blank	Neutral	False
434.373	1.45	Control	0.6522	n/a	No	2.875	n/a	5.0	NoResponse	0	0.036	433.409	10	45	Feedback	Neutral	False
435.828	2.875	Control	0.6522	n/a	No	2.875	n/a	n/a	NoResponse	0	0.0	n/a	10	45	ISIslide	Neutral	False
438.72	0.25	Lose2	0.6596	0.0	Yes	3.38	0.02	n/a	GoodResponse	0	n/a	n/a	10	46	Cue	AvoidedLoss	False
438.971	4.0	Lose2	0.6596	0.0	Yes	3.38	0.001	4.0	GoodResponse	0	3.581	441.552	10	46	Fixation	AvoidedLoss	False
442.552	0.3	Lose2	0.6596	0.0	Yes	3.38	0.001	4.0	GoodResponse	0	3.581	n/a	10	46	ButtonPress	AvoidedLoss	False
442.966	0.34	Lose2	0.6596	0.004	Yes	3.38	-0.004	4.0	GoodResponse	0	0.261	442.227	10	46	Target	AvoidedLoss	False
443.227	0.3	Lose2	0.6596	0.004	Yes	3.38	-0.004	4.0	GoodResponse	0	0.261	n/a	10	46	ButtonPress	AvoidedLoss	False
443.317	0.36	Lose2	0.6596	n/a	Yes	3.38	n/a	n/a	GoodResponse	0	n/a	n/a	10	46	Blank	AvoidedLoss	False
443.668	1.45	Lose2	0.6596	n/a	Yes	3.38	n/a	5.0	GoodResponse	0	0.01	442.678	10	46	Feedback	AvoidedLoss	False
445.122	3.38	Lose2	0.6596	n/a	Yes	3.38	n/a	n/a	GoodResponse	0	0.0	n/a	10	46	ISIslide	AvoidedLoss	False
448.516	0.25	Lose2	0.6667000000000001	0.0	Yes	2.684	0.016	n/a	GoodResponse	0	n/a	n/a	10	47	Cue	AvoidedLoss	True
448.766	4.0	Lose2	0.6667000000000001	0.001	Yes	2.684	0.0	n/a	GoodResponse	0	n/a	n/a	10	47	Fixation	AvoidedLoss	True
452.762	0.34	Lose2	0.6667000000000001	0.004	Yes	2.684	-0.004	4.0	GoodResponse	0	0.261	452.023	10	47	Target	AvoidedLoss	True
453.023	0.3	Lose2	0.6667000000000001	0.004	Yes	2.684	-0.004	4.0	GoodResponse	0	0.261	n/a	10	47	ButtonPress	AvoidedLoss	True
453.113	0.36	Lose2	0.6667000000000001	n/a	Yes	2.684	n/a	n/a	GoodResponse	0	n/a	n/a	10	47	Blank	AvoidedLoss	True
453.464	1.45	Lose2	0.6667000000000001	n/a	Yes	2.684	n/a	5.0	GoodResponse	0	0.019	452.483	10	47	Feedback	AvoidedLoss	True
454.918	2.684	Lose2	0.6667000000000001	n/a	Yes	2.684	n/a	n/a	GoodResponse	0	0.0	n/a	10	47	ISIslide	AvoidedLoss	True
457.626	0.25	Lose2	0.6735	0.0	Yes	3.024	0.026	n/a	GoodResponse	0	n/a	n/a	10	48	Cue	AvoidedLoss	True
457.877	3.95	Lose2	0.6735	0.0	Yes	3.024	0.001	n/a	GoodResponse	0	n/a	n/a	10	48	Fixation	AvoidedLoss	True
461.822	0.33	Lose2	0.6735	0.004	Yes	3.024	-0.004	4.0	GoodResponse	0	0.265	461.087	10	48	Target	AvoidedLoss	True
462.087	0.3	Lose2	0.6735	0.004	Yes	3.024	-0.004	4.0	GoodResponse	0	0.265	n/a	10	48	ButtonPress	AvoidedLoss	True
462.157	0.37	Lose2	0.6735	n/a	Yes	3.024	n/a	n/a	GoodResponse	0	n/a	n/a	10	48	Blank	AvoidedLoss	True
462.524	1.45	Lose2	0.6735	n/a	Yes	3.024	n/a	5.0	GoodResponse	0	0.032	461.556	10	48	Feedback	AvoidedLoss	True
463.979	3.024	Lose2	0.6735	n/a	Yes	3.024	n/a	n/a	GoodResponse	0	0.0	n/a	10	48	ISIslide	AvoidedLoss	True
467.021	0.25	Control	0.68	0.0	Yes	2.879	0.021	n/a	GoodResponse	0	n/a	n/a	10	49	Cue	Neutral	True
467.272	4.0	Control	0.68	0.0	Yes	2.879	0.001	n/a	GoodResponse	0	n/a	n/a	10	49	Fixation	Neutral	True
471.267	0.32	Control	0.68	0.004	Yes	2.879	-0.004	4.0	GoodResponse	0	0.194	470.461	10	49	Target	Neutral	True
471.461	0.3	Control	0.68	0.004	Yes	2.879	-0.004	4.0	GoodResponse	0	0.194	n/a	10	49	ButtonPress	Neutral	True
471.601	0.38	Control	0.68	n/a	Yes	2.879	n/a	n/a	GoodResponse	0	n/a	n/a	10	49	Blank	Neutral	True
471.969	1.45	Control	0.68	n/a	Yes	2.879	n/a	5.0	GoodResponse	0	0.001	470.97	10	49	Feedback	Neutral	True
473.424	2.879	Control	0.68	n/a	Yes	2.879	n/a	n/a	GoodResponse	0	0.0	n/a	10	49	ISIslide	Neutral	True
476.316	0.25	Control	0.6667000000000001	0.0	No	2.784	0.016	n/a	NoResponse	0	n/a	n/a	10	50	Cue	Neutral	True
476.566	4.0	Control	0.6667000000000001	0.0	No	2.784	0.0	n/a	NoResponse	0	n/a	n/a	10	50	Fixation	Neutral	True
480.562	0.31	Control	0.6667000000000001	0.004	No	2.784	-0.004	4.0	NoResponse	0	0.663	480.225	10	50	Target	Neutral	True
480.879	0.39	Control	0.6667000000000001	n/a	No	2.784	n/a	n/a	NoResponse	0	n/a	n/a	10	50	Blank	Neutral	True
481.225	0.3	Control	0.6667000000000001	0.004	No	2.784	-0.004	4.0	NoResponse	0	0.663	n/a	10	50	ButtonPress	Neutral	True
481.264	1.45	Control	0.6667000000000001	n/a	No	2.784	n/a	5.0	NoResponse	0	0.023	480.287	10	50	Feedback	Neutral	True
482.718	2.784	Control	0.6667000000000001	n/a	No	2.784	n/a	n/a	NoResponse	0	0.0	n/a	10	50	ISIslide	Neutral	True
485.526	0.25	Control	0.6731	0.0	Yes	2.724	0.026	n/a	GoodResponse	0	n/a	n/a	10	51	Cue	Neutral	True
485.777	3.95	Control	0.6731	0.0	Yes	2.724	0.001	n/a	GoodResponse	0	n/a	n/a	10	51	Fixation	Neutral	True
489.722	0.3	Control	0.6731	0.004	Yes	2.724	-0.004	4.0	GoodResponse	0	0.169	488.891	10	51	Target	Neutral	True
489.891	0.3	Control	0.6731	0.004	Yes	2.724	-0.004	4.0	GoodResponse	0	0.169	n/a	10	51	ButtonPress	Neutral	True
490.023	0.4	Control	0.6731	n/a	Yes	2.724	n/a	n/a	GoodResponse	0	n/a	n/a	10	51	Blank	Neutral	True
490.424	1.45	Control	0.6731	n/a	Yes	2.724	n/a	5.0	GoodResponse	0	0.034	489.458	10	51	Feedback	Neutral	True
491.879	2.724	Control	0.6731	n/a	Yes	2.724	n/a	n/a	GoodResponse	0	0.0	n/a	10	51	ISIslide	Neutral	True
494.62	0.25	Control	0.6792	0.0	Yes	2.63	0.02	n/a	GoodResponse	0	n/a	n/a	10	52	Cue	Neutral	True
494.871	4.05	Control	0.6792	0.0	Yes	2.63	0.001	n/a	GoodResponse	0	n/a	n/a	10	52	Fixation	Neutral	True
498.916	0.29	Control	0.6792	0.004	Yes	2.63	-0.004	4.0	GoodResponse	0	0.252	498.168	10	52	Target	Neutral	True
499.168	0.3	Control	0.6792	0.004	Yes	2.63	-0.004	4.0	GoodResponse	0	0.252	n/a	10	52	ButtonPress	Neutral	True
499.217	0.41	Control	0.6792	n/a	Yes	2.63	n/a	n/a	GoodResponse	0	n/a	n/a	10	52	Blank	Neutral	True
499.619	1.45	Control	0.6792	n/a	Yes	2.63	n/a	5.0	GoodResponse	0	0.009	498.628	10	52	Feedback	Neutral	True
501.073	2.63	Control	0.6792	n/a	Yes	2.63	n/a	n/a	GoodResponse	0	0.0	n/a	10	52	ISIslide	Neutral	True
503.714	0.25	Win2	0.6851999999999999	0.0	Yes	2.936	0.014	n/a	GoodResponse	1	n/a	n/a	11	53	Cue	Win	True
503.965	4.05	Win2	0.6851999999999999	0.0	Yes	2.936	0.001	n/a	GoodResponse	1	n/a	n/a	11	53	Fixation	Win	True
508.01	0.28	Win2	0.6851999999999999	0.004	Yes	2.936	-0.004	4.0	GoodResponse	1	0.241	507.251	11	53	Target	Win	True
508.251	0.3	Win2	0.6851999999999999	0.004	Yes	2.936	-0.004	4.0	GoodResponse	1	0.241	n/a	11	53	ButtonPress	Win	True
508.294	0.42	Win2	0.6851999999999999	n/a	Yes	2.936	n/a	n/a	GoodResponse	1	n/a	n/a	11	53	Blank	Win	True
508.712	1.45	Win2	0.6851999999999999	n/a	Yes	2.936	n/a	5.0	GoodResponse	1	0.038	507.75	11	53	Feedback	Win	True
510.167	2.936	Win2	0.6851999999999999	n/a	Yes	2.936	n/a	n/a	GoodResponse	1	0.0	n/a	11	53	ISIslide	Win	True
513.126	0.25	Win2	0.6727	0.0	No	2.724	0.026	n/a	NoResponse	0	n/a	n/a	11	54	Cue	MissedWin	False
513.376	3.95	Win2	0.6727	0.0	No	2.724	0.0	n/a	NoResponse	0	n/a	n/a	11	54	Fixation	MissedWin	False
517.338	0.27	Win2	0.6727	0.0	No	2.724	0.012	n/a	NoResponse	0	n/a	n/a	11	54	Target	MissedWin	False
517.606	0.43	Win2	0.6727	n/a	No	2.724	n/a	n/a	NoResponse	0	n/a	n/a	11	54	Blank	MissedWin	False
518.024	1.45	Win2	0.6727	n/a	No	2.724	n/a	5.0	NoResponse	0	0.043	517.067	11	54	Feedback	MissedWin	False
519.478	2.724	Win2	0.6727	n/a	No	2.724	n/a	n/a	NoResponse	0	0.0	n/a	11	54	ISIslide	MissedWin	False
522.219	0.25	Control	0.6607	0.001	No	3.031	0.019	n/a	NoResponse	0	n/a	n/a	11	55	Cue	Neutral	True
522.47	3.95	Control	0.6607	0.0	No	3.031	0.001	n/a	NoResponse	0	n/a	n/a	11	55	Fixation	Neutral	True
526.415	0.26	Control	0.6607	0.004	No	3.031	-0.004	4.0	NoResponse	0	0.274	525.689	11	55	Target	Neutral	True
526.683	0.44	Control	0.6607	n/a	No	3.031	n/a	n/a	NoResponse	0	n/a	n/a	11	55	Blank	Neutral	True
526.689	0.3	Control	0.6607	0.004	No	3.031	-0.004	4.0	NoResponse	0	0.274	n/a	11	55	ButtonPress	Neutral	True
527.117	1.45	Control	0.6607	n/a	No	3.031	n/a	5.0	NoResponse	0	0.023	526.14	11	55	Feedback	Neutral	True
528.572	3.031	Control	0.6607	n/a	No	3.031	n/a	n/a	NoResponse	0	0.0	n/a	11	55	ISIslide	Neutral	True
531.614	0.25	Control	0.6491	0.0	No	2.836	0.014	n/a	NoResponse	0	n/a	n/a	11	56	Cue	Neutral	True
531.865	3.95	Control	0.6491	0.0	No	2.836	0.001	n/a	NoResponse	0	n/a	n/a	11	56	Fixation	Neutral	True
535.81	0.26	Control	0.6491	0.004	No	2.836	-0.004	4.0	NoResponse	0	0.415	535.225	11	56	Target	Neutral	True
536.078	0.44	Control	0.6491	n/a	No	2.836	n/a	n/a	NoResponse	0	n/a	n/a	11	56	Blank	Neutral	True
536.225	0.3	Control	0.6491	0.004	No	2.836	-0.004	4.0	NoResponse	0	0.415	n/a	11	56	ButtonPress	Neutral	True
536.512	1.45	Control	0.6491	n/a	No	2.836	n/a	5.0	NoResponse	0	0.043	535.555	11	56	Feedback	Neutral	True
537.967	2.836	Control	0.6491	n/a	No	2.836	n/a	n/a	NoResponse	0	0.0	n/a	11	56	ISIslide	Neutral	True
540.825	0.25	Control	0.6379	0.0	No	3.475	0.025	n/a	NoResponse	0	n/a	n/a	11	57	Cue	Neutral	False
541.076	4.0	Control	0.6379	0.0	No	3.475	0.001	4.0	NoResponse	0	0.102	540.178	11	57	Fixation	Neutral	False
541.178	0.3	Control	0.6379	0.0	No	3.475	0.001	4.0	NoResponse	0	0.102	n/a	11	57	ButtonPress	Neutral	False
545.071	0.27	Control	0.6379	0.004	No	3.475	-0.004	4.0	NoResponse	0	0.419	544.49	11	57	Target	Neutral	False
545.355	0.43	Control	0.6379	n/a	No	3.475	n/a	n/a	NoResponse	0	n/a	n/a	11	57	Blank	Neutral	False
545.49	0.3	Control	0.6379	0.004	No	3.475	-0.004	4.0	NoResponse	0	0.419	n/a	11	57	ButtonPress	Neutral	False
545.773	1.45	Control	0.6379	n/a	No	3.475	n/a	5.0	NoResponse	0	0.001	544.774	11	57	Feedback	Neutral	False
547.228	3.475	Control	0.6379	n/a	No	3.475	n/a	n/a	NoResponse	0	0.0	n/a	11	57	ISIslide	Neutral	False
550.721	0.25	Win2	0.6271	0.0	No	2.729	0.021	n/a	NoResponse	0	n/a	n/a	11	58	Cue	MissedWin	False
550.972	4.05	Win2	0.6271	0.0	No	2.729	0.001	4.0	NoResponse	0	4.009	553.981	11	58	Fixation	MissedWin	False
554.981	0.3	Win2	0.6271	0.0	No	2.729	0.001	4.0	NoResponse	0	4.009	n/a	11	58	ButtonPress	MissedWin	False
555.017	0.28	Win2	0.6271	0.004	No	2.729	-0.004	4.0	NoResponse	0	0.529	554.546	11	58	Target	MissedWin	False
555.302	0.42	Win2	0.6271	n/a	No	2.729	n/a	n/a	NoResponse	0	n/a	n/a	11	58	Blank	MissedWin	False
555.546	0.3	Win2	0.6271	0.004	No	2.729	-0.004	4.0	NoResponse	0	0.529	n/a	11	58	ButtonPress	MissedWin	False
555.72	1.45	Win2	0.6271	n/a	No	2.729	n/a	5.0	NoResponse	0	0.006	554.726	11	58	Feedback	MissedWin	False
557.174	2.729	Win2	0.6271	n/a	No	2.729	n/a	n/a	NoResponse	0	0.0	n/a	11	58	ISIslide	MissedWin	False
559.915	0.25	Lose2	0.6333	0.001	Yes	2.685	0.015	n/a	GoodResponse	0	n/a	n/a	11	59	Cue	AvoidedLoss	True
560.166	4.0	Lose2	0.6333	0.0	Yes	2.685	0.001	n/a	GoodResponse	0	n/a	n/a	11	59	Fixation	AvoidedLoss	True
564.161	0.29	Lose2	0.6333	0.004	Yes	2.685	-0.004	4.0	GoodResponse	0	0.241	563.402	11	59	Target	AvoidedLoss	True
564.402	0.3	Lose2	0.6333	0.004	Yes	2.685	-0.004	4.0	GoodResponse	0	0.241	n/a	11	59	ButtonPress	AvoidedLoss	True
564.462	0.41	Lose2	0.6333	n/a	Yes	2.685	n/a	n/a	GoodResponse	0	n/a	n/a	11	59	Blank	AvoidedLoss	True
564.864	1.45	Lose2	0.6333	n/a	Yes	2.685	n/a	5.0	GoodResponse	0	0.031	563.895	11	59	Feedback	AvoidedLoss	True
566.318	2.685	Lose2	0.6333	n/a	Yes	2.685	n/a	n/a	GoodResponse	0	0.0	n/a	11	59	ISIslide	AvoidedLoss	True
569.026	0.25	Control	0.623	0.0	No	2.674	0.026	n/a	NoResponse	0	n/a	n/a	11	60	Cue	Neutral	False
569.277	4.0	Control	0.623	0.0	No	2.674	0.001	n/a	NoResponse	0	n/a	n/a	11	60	Fixation	Neutral	False
573.272	0.3	Control	0.623	0.004	No	2.674	-0.004	n/a	NoResponse	0	n/a	n/a	11	60	Target	Neutral	False
573.573	0.4	Control	0.623	n/a	No	2.674	n/a	n/a	NoResponse	0	n/a	n/a	11	60	Blank	Neutral	False
573.974	1.45	Control	0.623	n/a	No	2.674	n/a	5.0	NoResponse	0	0.044	573.018	11	60	Feedback	Neutral	False
575.429	2.674	Control	0.623	n/a	No	2.674	n/a	n/a	NoResponse	0	0.0	n/a	11	60	ISIslide	Neutral	False
578.12	0.25	Lose2	0.6129	0.0	No	2.98	0.02	n/a	NoResponse	-1	n/a	n/a	10	61	Cue	Loss	False
578.371	4.0	Lose2	0.6129	0.0	No	2.98	0.001	n/a	NoResponse	-1	n/a	n/a	10	61	Fixation	Loss	False
582.366	0.31	Lose2	0.6129	0.004	No	2.98	-0.004	n/a	NoResponse	-1	n/a	n/a	10	61	Target	Loss	False
582.684	0.39	Lose2	0.6129	n/a	No	2.98	n/a	n/a	NoResponse	-1	n/a	n/a	10	61	Blank	Loss	False
583.068	1.45	Lose2	0.6129	n/a	No	2.98	n/a	5.0	NoResponse	-1	0.023	582.091	10	61	Feedback	Loss	False
584.522	2.98	Lose2	0.6129	n/a	No	2.98	n/a	n/a	NoResponse	-1	0.0	n/a	10	61	ISIslide	Loss	False
587.515	0.25	Lose2	0.619	0.0	Yes	2.885	0.015	n/a	GoodResponse	0	n/a	n/a	10	62	Cue	AvoidedLoss	True
587.765	3.9	Lose2	0.619	0.0	Yes	2.885	0.0	n/a	GoodResponse	0	n/a	n/a	10	62	Fixation	AvoidedLoss	True
591.677	0.32	Lose2	0.619	0.0	Yes	2.885	0.012	4.0	GoodResponse	0	0.122	590.799	10	62	Target	AvoidedLoss	True
591.799	0.3	Lose2	0.619	0.0	Yes	2.885	0.012	4.0	GoodResponse	0	0.122	n/a	10	62	ButtonPress	AvoidedLoss	True
591.995	0.38	Lose2	0.619	n/a	Yes	2.885	n/a	n/a	GoodResponse	0	n/a	n/a	10	62	Blank	AvoidedLoss	True
592.362	1.45	Lose2	0.619	n/a	Yes	2.885	n/a	5.0	GoodResponse	0	0.046	591.408	10	62	Feedback	AvoidedLoss	True
593.817	2.885	Lose2	0.619	n/a	Yes	2.885	n/a	n/a	GoodResponse	0	0.0	n/a	10	62	ISIslide	AvoidedLoss	True
596.726	0.25	Lose2	0.625	0.0	Yes	2.624	0.026	n/a	GoodResponse	0	n/a	n/a	10	63	Cue	AvoidedLoss	True
596.976	4.05	Lose2	0.625	0.0	Yes	2.624	0.0	n/a	GoodResponse	0	n/a	n/a	10	63	Fixation	AvoidedLoss	True
601.022	0.33	Lose2	0.625	0.004	Yes	2.624	-0.004	4.0	GoodResponse	0	0.235	600.257	10	63	Target	AvoidedLoss	True
601.257	0.3	Lose2	0.625	0.004	Yes	2.624	-0.004	4.0	GoodResponse	0	0.235	n/a	10	63	ButtonPress	AvoidedLoss	True
601.356	0.37	Lose2	0.625	n/a	Yes	2.624	n/a	n/a	GoodResponse	0	n/a	n/a	10	63	Blank	AvoidedLoss	True
601.724	1.45	Lose2	0.625	n/a	Yes	2.624	n/a	5.0	GoodResponse	0	0.0	600.724	10	63	Feedback	AvoidedLoss	True
603.178	2.624	Lose2	0.625	n/a	Yes	2.624	n/a	n/a	GoodResponse	0	0.0	n/a	10	63	ISIslide	AvoidedLoss	True
605.819	0.25	Win2	0.6308	0.0	Yes	3.131	0.019	n/a	GoodResponse	1	n/a	n/a	11	64	Cue	Win	True
606.07	4.15	Win2	0.6308	0.0	Yes	3.131	0.001	n/a	GoodResponse	1	n/a	n/a	11	64	Fixation	Win	True
610.216	0.34	Win2	0.6308	0.003	Yes	3.131	-0.003	4.0	GoodResponse	1	0.244	609.46	11	64	Target	Win	True
610.46	0.3	Win2	0.6308	0.003	Yes	3.131	-0.003	4.0	GoodResponse	1	0.244	n/a	11	64	ButtonPress	Win	True
610.567	0.36	Win2	0.6308	n/a	Yes	3.131	n/a	n/a	GoodResponse	1	n/a	n/a	11	64	Blank	Win	True
610.918	1.45	Win2	0.6308	n/a	Yes	3.131	n/a	5.0	GoodResponse	1	0.026	609.944	11	64	Feedback	Win	True
612.372	3.131	Win2	0.6308	n/a	Yes	3.131	n/a	n/a	GoodResponse	1	0.0	n/a	11	64	ISIslide	Win	True
615.515	0.25	Control	0.6364	0.0	Yes	2.785	0.015	n/a	GoodResponse	0	n/a	n/a	11	65	Cue	Neutral	True
615.766	4.0	Control	0.6364	0.0	Yes	2.785	0.001	n/a	GoodResponse	0	n/a	n/a	11	65	Fixation	Neutral	True
619.761	0.35	Control	0.6364	0.004	Yes	2.785	-0.004	4.0	GoodResponse	0	0.183	618.944	11	65	Target	Neutral	True
619.944	0.3	Control	0.6364	0.004	Yes	2.785	-0.004	4.0	GoodResponse	0	0.183	n/a	11	65	ButtonPress	Neutral	True
620.112	0.35	Control	0.6364	n/a	Yes	2.785	n/a	n/a	GoodResponse	0	n/a	n/a	11	65	Blank	Neutral	True
620.463	1.45	Control	0.6364	n/a	Yes	2.785	n/a	5.0	GoodResponse	0	0.042	619.505	11	65	Feedback	Neutral	True
621.918	2.785	Control	0.6364	n/a	Yes	2.785	n/a	n/a	GoodResponse	0	0.0	n/a	11	65	ISIslide	Neutral	True
624.726	0.25	Win2	0.6418	0.0	Yes	2.774	0.026	n/a	GoodResponse	1	n/a	n/a	12	66	Cue	Win	True
624.977	3.9	Win2	0.6418	0.0	Yes	2.774	0.001	n/a	GoodResponse	1	n/a	n/a	12	66	Fixation	Win	True
628.872	0.36	Win2	0.6418	0.004	Yes	2.774	-0.004	4.0	GoodResponse	1	0.226	628.098	12	66	Target	Win	True
629.098	0.3	Win2	0.6418	0.004	Yes	2.774	-0.004	4.0	GoodResponse	1	0.226	n/a	12	66	ButtonPress	Win	True
629.239	0.34	Win2	0.6418	n/a	Yes	2.774	n/a	n/a	GoodResponse	1	n/a	n/a	12	66	Blank	Win	True
629.574	1.45	Win2	0.6418	n/a	Yes	2.774	n/a	5.0	GoodResponse	1	0.005	628.579	12	66	Feedback	Win	True
631.028	2.774	Win2	0.6418	n/a	Yes	2.774	n/a	n/a	GoodResponse	1	0.0	n/a	12	66	ISIslide	Win	True
633.82	0.25	Control	0.6324000000000001	0.0	No	2.73	0.02	n/a	NoResponse	0	n/a	n/a	12	67	Cue	Neutral	False
634.071	3.95	Control	0.6324000000000001	0.0	No	2.73	0.001	n/a	NoResponse	0	n/a	n/a	12	67	Fixation	Neutral	False
638.016	0.37	Control	0.6324000000000001	0.004	No	2.73	-0.004	n/a	NoResponse	0	n/a	n/a	12	67	Target	Neutral	False
638.4	0.33	Control	0.6324000000000001	n/a	No	2.73	n/a	n/a	NoResponse	0	n/a	n/a	12	67	Blank	Neutral	False
638.718	1.45	Control	0.6324000000000001	n/a	No	2.73	n/a	5.0	NoResponse	0	0.031	637.749	12	67	Feedback	Neutral	False
640.172	2.73	Control	0.6324000000000001	n/a	No	2.73	n/a	n/a	NoResponse	0	0.0	n/a	12	67	ISIslide	Neutral	False
642.93	0.25	Win2	0.6377	0.0	Yes	3.07	0.03	n/a	GoodResponse	1	n/a	n/a	13	68	Cue	Win	False
643.181	4.0	Win2	0.6377	0.0	Yes	3.07	0.001	4.0	GoodResponse	1	3.638	645.819	13	68	Fixation	Win	False
646.819	0.3	Win2	0.6377	0.0	Yes	3.07	0.001	4.0	GoodResponse	1	3.638	n/a	13	68	ButtonPress	Win	False
647.176	0.38	Win2	0.6377	0.004	Yes	3.07	-0.004	4.0	GoodResponse	1	0.242	646.418	13	68	Target	Win	False
647.418	0.3	Win2	0.6377	0.004	Yes	3.07	-0.004	4.0	GoodResponse	1	0.242	n/a	13	68	ButtonPress	Win	False
647.561	0.32	Win2	0.6377	n/a	Yes	3.07	n/a	n/a	GoodResponse	1	n/a	n/a	13	68	Blank	Win	False
647.878	1.45	Win2	0.6377	n/a	Yes	3.07	n/a	5.0	GoodResponse	1	0.041	646.919	13	68	Feedback	Win	False
649.333	3.07	Win2	0.6377	n/a	Yes	3.07	n/a	n/a	GoodResponse	1	0.0	n/a	13	68	ISIslide	Win	False
652.425	0.25	Win2	0.6429	0.0	Yes	3.225	0.025	n/a	GoodResponse	1	n/a	n/a	14	69	Cue	Win	True
652.676	3.95	Win2	0.6429	0.0	Yes	3.225	0.001	n/a	GoodResponse	1	n/a	n/a	14	69	Fixation	Win	True
656.621	0.39	Win2	0.6429	0.004	Yes	3.225	-0.004	4.0	GoodResponse	1	0.223	655.844	14	69	Target	Win	True
656.844	0.3	Win2	0.6429	0.004	Yes	3.225	-0.004	4.0	GoodResponse	1	0.223	n/a	14	69	ButtonPress	Win	True
657.022	0.31	Win2	0.6429	n/a	Yes	3.225	n/a	n/a	GoodResponse	1	n/a	n/a	14	69	Blank	Win	True
657.323	1.45	Win2	0.6429	n/a	Yes	3.225	n/a	5.0	GoodResponse	1	0.011	656.334	14	69	Feedback	Win	True
658.778	3.225	Win2	0.6429	n/a	Yes	3.225	n/a	n/a	GoodResponse	1	0.0	n/a	14	69	ISIslide	Win	True
662.021	0.25	Lose2	0.6338	0.0	No	3.029	0.021	n/a	NoResponse	-1	n/a	n/a	13	70	Cue	Loss	True
662.271	4.05	Lose2	0.6338	0.001	No	3.029	0.0	n/a	NoResponse	-1	n/a	n/a	13	70	Fixation	Loss	True
666.317	0.4	Lose2	0.6338	0.004	No	3.029	-0.004	4.0	NoResponse	-1	0.5	665.817	13	70	Target	Loss	True
666.718	0.3	Lose2	0.6338	n/a	No	3.029	n/a	n/a	NoResponse	-1	n/a	n/a	13	70	Blank	Loss	True
666.817	0.3	Lose2	0.6338	0.004	No	3.029	-0.004	4.0	NoResponse	-1	0.5	n/a	13	70	ButtonPress	Loss	True
667.019	1.45	Lose2	0.6338	n/a	No	3.029	n/a	5.0	NoResponse	-1	0.022	666.041	13	70	Feedback	Loss	True
668.473	3.029	Lose2	0.6338	n/a	No	3.029	n/a	n/a	NoResponse	-1	0.0	n/a	13	70	ISIslide	Loss	True
671.516	0.25	Win2	0.6389	0.0	Yes	2.734	0.016	n/a	GoodResponse	1	n/a	n/a	14	71	Cue	Win	True
671.767	4.05	Win2	0.6389	0.0	Yes	2.734	0.001	n/a	GoodResponse	1	n/a	n/a	14	71	Fixation	Win	True
675.812	0.41	Win2	0.6389	0.004	Yes	2.734	-0.004	4.0	GoodResponse	1	0.215	675.027	14	71	Target	Win	True
676.027	0.3	Win2	0.6389	0.004	Yes	2.734	-0.004	4.0	GoodResponse	1	0.215	n/a	14	71	ButtonPress	Win	True
676.23	0.29	Win2	0.6389	n/a	Yes	2.734	n/a	n/a	GoodResponse	1	n/a	n/a	14	71	Blank	Win	True
676.514	1.45	Win2	0.6389	n/a	Yes	2.734	n/a	5.0	GoodResponse	1	0.039	675.553	14	71	Feedback	Win	True
677.968	2.734	Win2	0.6389	n/a	Yes	2.734	n/a	n/a	GoodResponse	1	0.0	n/a	14	71	ISIslide	Win	True
680.727	0.25	Win2	0.6437999999999999	0.0	Yes	2.773	0.027	n/a	GoodResponse	1	n/a	n/a	15	72	Cue	Win	True
680.977	4.1	Win2	0.6437999999999999	0.001	Yes	2.773	0.0	n/a	GoodResponse	1	n/a	n/a	15	72	Fixation	Win	True
685.073	0.42	Win2	0.6437999999999999	0.004	Yes	2.773	-0.004	4.0	GoodResponse	1	0.356	684.429	15	72	Target	Win	True
685.429	0.3	Win2	0.6437999999999999	0.004	Yes	2.773	-0.004	4.0	GoodResponse	1	0.356	n/a	15	72	ButtonPress	Win	True
685.508	0.28	Win2	0.6437999999999999	n/a	Yes	2.773	n/a	n/a	GoodResponse	1	n/a	n/a	15	72	Blank	Win	True
685.775	1.45	Win2	0.6437999999999999	n/a	Yes	2.773	n/a	5.0	GoodResponse	1	0.046	684.821	15	72	Feedback	Win	True
687.229	2.773	Win2	0.6437999999999999	n/a	Yes	2.773	n/a	n/a	GoodResponse	1	0.0	n/a	15	72	ISIslide	Win	True
690.021	0.25	Win2	0.6486	0.0	Yes	2.679	0.021	n/a	GoodResponse	1	n/a	n/a	16	73	Cue	Win	True
690.272	4.0	Win2	0.6486	0.0	Yes	2.679	0.001	n/a	GoodResponse	1	n/a	n/a	16	73	Fixation	Win	True
694.267	0.43	Win2	0.6486	0.004	Yes	2.679	-0.004	4.0	GoodResponse	1	0.276	693.543	16	73	Target	Win	True
694.543	0.3	Win2	0.6486	0.004	Yes	2.679	-0.004	4.0	GoodResponse	1	0.276	n/a	16	73	ButtonPress	Win	True
694.702	0.27	Win2	0.6486	n/a	Yes	2.679	n/a	n/a	GoodResponse	1	n/a	n/a	16	73	Blank	Win	True
694.969	1.45	Win2	0.6486	n/a	Yes	2.679	n/a	5.0	GoodResponse	1	0.023	693.992	16	73	Feedback	Win	True
696.424	2.679	Win2	0.6486	n/a	Yes	2.679	n/a	n/a	GoodResponse	1	0.0	n/a	16	73	ISIslide	Win	True
699.115	0.25	Lose2	0.6533	0.0	Yes	2.635	0.015	n/a	GoodResponse	0	n/a	n/a	16	74	Cue	AvoidedLoss	True
699.366	4.05	Lose2	0.6533	0.0	Yes	2.635	0.001	n/a	GoodResponse	0	n/a	n/a	16	74	Fixation	AvoidedLoss	True
703.411	0.44	Lose2	0.6533	0.004	Yes	2.635	-0.004	4.0	GoodResponse	0	0.213	702.624	16	74	Target	AvoidedLoss	True
703.624	0.3	Lose2	0.6533	0.004	Yes	2.635	-0.004	4.0	GoodResponse	0	0.213	n/a	16	74	ButtonPress	AvoidedLoss	True
703.863	0.26	Lose2	0.6533	n/a	Yes	2.635	n/a	n/a	GoodResponse	0	n/a	n/a	16	74	Blank	AvoidedLoss	True
704.113	1.45	Lose2	0.6533	n/a	Yes	2.635	n/a	5.0	GoodResponse	0	0.001	703.114	16	74	Feedback	AvoidedLoss	True
705.568	2.635	Lose2	0.6533	n/a	Yes	2.635	n/a	n/a	GoodResponse	0	0.0	n/a	16	74	ISIslide	AvoidedLoss	True
708.226	0.25	Lose2	0.6579	0.0	Yes	2.924	0.026	n/a	GoodResponse	0	n/a	n/a	16	75	Cue	AvoidedLoss	True
708.476	3.95	Lose2	0.6579	0.0	Yes	2.924	0.0	n/a	GoodResponse	0	n/a	n/a	16	75	Fixation	AvoidedLoss	True
712.438	0.45	Lose2	0.6579	0.0	Yes	2.924	0.012	4.0	GoodResponse	0	0.348	711.786	16	75	Target	AvoidedLoss	True
712.786	0.3	Lose2	0.6579	0.0	Yes	2.924	0.012	4.0	GoodResponse	0	0.348	n/a	16	75	ButtonPress	AvoidedLoss	True
712.873	0.25	Lose2	0.6579	n/a	Yes	2.924	n/a	n/a	GoodResponse	0	n/a	n/a	16	75	Blank	AvoidedLoss	True
713.124	1.45	Lose2	0.6579	n/a	Yes	2.924	n/a	5.0	GoodResponse	0	0.014	712.138	16	75	Feedback	AvoidedLoss	True
714.578	2.924	Lose2	0.6579	n/a	Yes	2.924	n/a	n/a	GoodResponse	0	0.0	n/a	16	75	ISIslide	AvoidedLoss	True
717.52	0.25	Control	0.6623	0.0	Yes	3.23	0.02	n/a	GoodResponse	0	n/a	n/a	16	76	Cue	Neutral	True
717.771	4.05	Control	0.6623	0.0	Yes	3.23	0.001	n/a	GoodResponse	0	n/a	n/a	16	76	Fixation	Neutral	True
721.816	0.45	Control	0.6623	0.004	Yes	3.23	-0.004	4.0	GoodResponse	0	0.296	721.112	16	76	Target	Neutral	True
722.112	0.3	Control	0.6623	0.004	Yes	3.23	-0.004	4.0	GoodResponse	0	0.296	n/a	16	76	ButtonPress	Neutral	True
722.268	0.25	Control	0.6623	n/a	Yes	3.23	n/a	n/a	GoodResponse	0	n/a	n/a	16	76	Blank	Neutral	True
722.518	1.45	Control	0.6623	n/a	Yes	3.23	n/a	5.0	GoodResponse	0	0.035	721.553	16	76	Feedback	Neutral	True
723.973	3.23	Control	0.6623	n/a	Yes	3.23	n/a	n/a	GoodResponse	0	0.0	n/a	16	76	ISIslide	Neutral	True
727.216	0.25	Lose2	0.6667000000000001	0.0	Yes	2.584	0.016	n/a	GoodResponse	0	n/a	n/a	16	77	Cue	AvoidedLoss	True
727.466	3.95	Lose2	0.6667000000000001	0.0	Yes	2.584	0.0	n/a	GoodResponse	0	n/a	n/a	16	77	Fixation	AvoidedLoss	True
731.412	0.45	Lose2	0.6667000000000001	0.004	Yes	2.584	-0.004	4.0	GoodResponse	0	0.203	730.615	16	77	Target	AvoidedLoss	True
731.615	0.3	Lose2	0.6667000000000001	0.004	Yes	2.584	-0.004	4.0	GoodResponse	0	0.203	n/a	16	77	ButtonPress	AvoidedLoss	True
731.863	0.25	Lose2	0.6667000000000001	n/a	Yes	2.584	n/a	n/a	GoodResponse	0	n/a	n/a	16	77	Blank	AvoidedLoss	True
732.114	1.45	Lose2	0.6667000000000001	n/a	Yes	2.584	n/a	5.0	GoodResponse	0	0.048	731.162	16	77	Feedback	AvoidedLoss	True
733.568	2.584	Lose2	0.6667000000000001	n/a	Yes	2.584	n/a	n/a	GoodResponse	0	0.0	n/a	16	77	ISIslide	AvoidedLoss	True
