onset	duration	cue_type	current_mean_accuracy	duration_error	is_hit	isi_adjusted	onset_delay	response	response_type	reward	rt	rt_time	total_reward	trial_number	trial_phase	trial_type	one_press
11.105	0.25	Control	1.0	0.0	Yes	2.945	0.005	n/a	GoodResponse	0	n/a	n/a	0	0	Cue	Neutral	True
11.355	3.85	Control	1.0	0.0	Yes	2.945	0.0	n/a	GoodResponse	0	n/a	n/a	0	0	Fixation	Neutral	True
15.204	0.4	Control	1.0	0.001	Yes	2.945	-0.001	2.0	GoodResponse	0	0.207	14.411	0	0	Target	Neutral	True
15.411	0.3	Control	1.0	0.001	Yes	2.945	-0.001	2.0	GoodResponse	0	0.207	n/a	0	0	ButtonPress	Neutral	True
15.604	0.3	Control	1.0	n/a	Yes	2.945	n/a	n/a	GoodResponse	0	n/a	n/a	0	0	Blank	Neutral	True
15.903	1.45	Control	1.0	n/a	Yes	2.945	n/a	5.0	GoodResponse	0	0.025	14.928	0	0	Feedback	Neutral	True
17.353	2.945	Control	1.0	n/a	Yes	2.945	n/a	n/a	GoodResponse	0	0.0	n/a	0	0	ISIslide	Neutral	True
20.385	0.25	Lose2	1.0	0.0	Yes	2.715	0.085	n/a	GoodResponse	0	n/a	n/a	0	1	Cue	AvoidedLoss	True
20.635	4.0	Lose2	1.0	0.0	Yes	2.715	0.0	n/a	GoodResponse	0	n/a	n/a	0	1	Fixation	AvoidedLoss	True
24.634	0.39	Lose2	1.0	0.001	Yes	2.715	-0.001	2.0	GoodResponse	0	0.197	23.831	0	1	Target	AvoidedLoss	True
24.831	0.3	Lose2	1.0	0.001	Yes	2.715	-0.001	2.0	GoodResponse	0	0.197	n/a	0	1	ButtonPress	AvoidedLoss	True
25.034	0.31	Lose2	1.0	n/a	Yes	2.715	n/a	n/a	GoodResponse	0	n/a	n/a	0	1	Blank	AvoidedLoss	True
25.333	1.45	Lose2	1.0	n/a	Yes	2.715	n/a	5.0	GoodResponse	0	0.01	24.343	0	1	Feedback	AvoidedLoss	True
26.783	2.715	Lose2	1.0	n/a	Yes	2.715	n/a	n/a	GoodResponse	0	0.0	n/a	0	1	ISIslide	AvoidedLoss	True
29.515	0.25	Control	1.0	0.0	Yes	2.585	0.015	n/a	GoodResponse	0	n/a	n/a	0	2	Cue	Neutral	True
29.765	4.1	Control	1.0	0.0	Yes	2.585	0.0	n/a	GoodResponse	0	n/a	n/a	0	2	Fixation	Neutral	True
33.864	0.38	Control	1.0	0.001	Yes	2.585	-0.001	2.0	GoodResponse	0	0.206	33.07	0	2	Target	Neutral	True
34.07	0.3	Control	1.0	0.001	Yes	2.585	-0.001	2.0	GoodResponse	0	0.206	n/a	0	2	ButtonPress	Neutral	True
34.247	0.32	Control	1.0	n/a	Yes	2.585	n/a	n/a	GoodResponse	0	n/a	n/a	0	2	Blank	Neutral	True
34.564	1.45	Control	1.0	n/a	Yes	2.585	n/a	5.0	GoodResponse	0	0.047	33.611	0	2	Feedback	Neutral	True
36.013	2.585	Control	1.0	n/a	Yes	2.585	n/a	n/a	GoodResponse	0	0.0	n/a	0	2	ISIslide	Neutral	True
38.629	0.25	Win2	1.0	0.0	Yes	2.821	0.029	n/a	GoodResponse	1	n/a	n/a	1	3	Cue	Win	True
38.879	3.95	Win2	1.0	0.0	Yes	2.821	0.0	n/a	GoodResponse	1	n/a	n/a	1	3	Fixation	Win	True
42.827	0.37	Win2	1.0	0.002	Yes	2.821	-0.002	2.0	GoodResponse	1	0.207	42.034	1	3	Target	Win	True
43.034	0.3	Win2	1.0	0.002	Yes	2.821	-0.002	2.0	GoodResponse	1	0.207	n/a	1	3	ButtonPress	Win	True
43.211	0.33	Win2	1.0	n/a	Yes	2.821	n/a	n/a	GoodResponse	1	n/a	n/a	1	3	Blank	Win	True
43.527	1.45	Win2	1.0	n/a	Yes	2.821	n/a	5.0	GoodResponse	1	0.011	42.538	1	3	Feedback	Win	True
44.977	2.821	Win2	1.0	n/a	Yes	2.821	n/a	n/a	GoodResponse	1	0.0	n/a	1	3	ISIslide	Win	True
47.826	0.25	Win2	1.0	0.0	Yes	3.274	0.026	n/a	GoodResponse	1	n/a	n/a	2	4	Cue	Win	False
48.076	4.0	Win2	1.0	0.0	Yes	3.274	0.0	2.0	GoodResponse	1	3.381	50.457	2	4	Fixation	Win	False
51.457	0.3	Win2	1.0	0.0	Yes	3.274	0.0	2.0	GoodResponse	1	3.381	n/a	2	4	ButtonPress	Win	False
52.074	0.36	Win2	1.0	0.002	Yes	3.274	-0.002	2.0	GoodResponse	1	0.232	51.306	2	4	Target	Win	False
52.306	0.3	Win2	1.0	0.002	Yes	3.274	-0.002	2.0	GoodResponse	1	0.232	n/a	2	4	ButtonPress	Win	False
52.441	0.34	Win2	1.0	n/a	Yes	3.274	n/a	n/a	GoodResponse	1	n/a	n/a	2	4	Blank	Win	False
52.774	1.45	Win2	1.0	n/a	Yes	3.274	n/a	5.0	GoodResponse	1	0.032	51.806	2	4	Feedback	Win	False
54.223	3.274	Win2	1.0	n/a	Yes	3.274	n/a	n/a	GoodResponse	1	0.0	n/a	2	4	ISIslide	Win	False
57.522	0.25	Win2	1.0	0.0	Yes	2.778	0.022	n/a	GoodResponse	1	n/a	n/a	3	5	Cue	Win	True
57.772	4.0	Win2	1.0	0.0	Yes	2.778	0.0	n/a	GoodResponse	1	n/a	n/a	3	5	Fixation	Win	True
61.771	0.35	Win2	1.0	0.001	Yes	2.778	-0.001	2.0	GoodResponse	1	0.194	60.965	3	5	Target	Win	True
61.965	0.3	Win2	1.0	0.001	Yes	2.778	-0.001	2.0	GoodResponse	1	0.194	n/a	3	5	ButtonPress	Win	True
62.121	0.35	Win2	1.0	n/a	Yes	2.778	n/a	n/a	GoodResponse	1	n/a	n/a	3	5	Blank	Win	True
62.471	1.45	Win2	1.0	n/a	Yes	2.778	n/a	5.0	GoodResponse	1	0.042	61.513	3	5	Feedback	Win	True
63.92	2.778	Win2	1.0	n/a	Yes	2.778	n/a	n/a	GoodResponse	1	0.0	n/a	3	5	ISIslide	Win	True
66.719	0.25	Lose2	1.0	0.0	Yes	2.731	0.019	n/a	GoodResponse	0	n/a	n/a	3	6	Cue	AvoidedLoss	True
66.969	3.95	Lose2	1.0	0.0	Yes	2.731	0.0	n/a	GoodResponse	0	n/a	n/a	3	6	Fixation	AvoidedLoss	True
70.918	0.34	Lose2	1.0	0.001	Yes	2.731	-0.001	2.0	GoodResponse	0	0.216	70.134	3	6	Target	AvoidedLoss	True
71.134	0.3	Lose2	1.0	0.001	Yes	2.731	-0.001	2.0	GoodResponse	0	0.216	n/a	3	6	ButtonPress	AvoidedLoss	True
71.267	0.36	Lose2	1.0	n/a	Yes	2.731	n/a	n/a	GoodResponse	0	n/a	n/a	3	6	Blank	AvoidedLoss	True
71.617	1.45	Lose2	1.0	n/a	Yes	2.731	n/a	5.0	GoodResponse	0	0.018	70.635	3	6	Feedback	AvoidedLoss	True
73.067	2.731	Lose2	1.0	n/a	Yes	2.731	n/a	n/a	GoodResponse	0	0.0	n/a	3	6	ISIslide	AvoidedLoss	True
75.816	0.25	Lose2	1.0	0.0	Yes	4.034	0.016	n/a	GoodResponse	0	n/a	n/a	3	7	Cue	AvoidedLoss	True
76.066	4.05	Lose2	1.0	0.0	Yes	4.034	0.0	n/a	GoodResponse	0	n/a	n/a	3	7	Fixation	AvoidedLoss	True
80.114	0.33	Lose2	1.0	0.002	Yes	4.034	-0.002	2.0	GoodResponse	0	0.205	79.319	3	7	Target	AvoidedLoss	True
80.319	0.3	Lose2	1.0	0.002	Yes	4.034	-0.002	2.0	GoodResponse	0	0.205	n/a	3	7	ButtonPress	AvoidedLoss	True
80.448	0.37	Lose2	1.0	n/a	Yes	4.034	n/a	n/a	GoodResponse	0	n/a	n/a	3	7	Blank	AvoidedLoss	True
80.814	1.45	Lose2	1.0	n/a	Yes	4.034	n/a	5.0	GoodResponse	0	0.041	79.855	3	7	Feedback	AvoidedLoss	True
82.264	4.034	Lose2	1.0	n/a	Yes	4.034	n/a	n/a	GoodResponse	0	0.0	n/a	3	7	ISIslide	AvoidedLoss	True
86.329	0.25	Lose2	1.0	0.0	Yes	3.021	0.029	n/a	GoodResponse	0	n/a	n/a	3	8	Cue	AvoidedLoss	True
86.579	3.95	Lose2	1.0	0.0	Yes	3.021	0.0	n/a	GoodResponse	0	n/a	n/a	3	8	Fixation	AvoidedLoss	True
90.527	0.32	Lose2	1.0	0.002	Yes	3.021	-0.002	2.0	GoodResponse	0	0.187	89.714	3	8	Target	AvoidedLoss	True
90.714	0.3	Lose2	1.0	0.002	Yes	3.021	-0.002	2.0	GoodResponse	0	0.187	n/a	3	8	ButtonPress	AvoidedLoss	True
90.861	0.38	Lose2	1.0	n/a	Yes	3.021	n/a	n/a	GoodResponse	0	n/a	n/a	3	8	Blank	AvoidedLoss	True
91.227	1.45	Lose2	1.0	n/a	Yes	3.021	n/a	5.0	GoodResponse	0	0.018	90.245	3	8	Feedback	AvoidedLoss	True
92.677	3.021	Lose2	1.0	n/a	Yes	3.021	n/a	n/a	GoodResponse	0	0.0	n/a	3	8	ISIslide	AvoidedLoss	True
95.726	0.25	Lose2	1.0	0.0	Yes	3.124	0.026	n/a	GoodResponse	0	n/a	n/a	3	9	Cue	AvoidedLoss	True
95.975	3.95	Lose2	1.0	0.001	Yes	3.124	-0.001	n/a	GoodResponse	0	n/a	n/a	3	9	Fixation	AvoidedLoss	True
99.924	0.31	Lose2	1.0	0.002	Yes	3.124	-0.002	2.0	GoodResponse	0	0.199	99.123	3	9	Target	AvoidedLoss	True
100.123	0.3	Lose2	1.0	0.002	Yes	3.124	-0.002	2.0	GoodResponse	0	0.199	n/a	3	9	ButtonPress	AvoidedLoss	True
100.241	0.39	Lose2	1.0	n/a	Yes	3.124	n/a	n/a	GoodResponse	0	n/a	n/a	3	9	Blank	AvoidedLoss	True
100.624	1.45	Lose2	1.0	n/a	Yes	3.124	n/a	5.0	GoodResponse	0	0.035	99.659	3	9	Feedback	AvoidedLoss	True
102.073	3.124	Lose2	1.0	n/a	Yes	3.124	n/a	n/a	GoodResponse	0	0.0	n/a	3	9	ISIslide	AvoidedLoss	True
105.222	0.25	Control	1.0	0.0	Yes	3.278	0.022	n/a	GoodResponse	0	n/a	n/a	3	10	Cue	Neutral	True
105.472	4.0	Control	1.0	0.0	Yes	3.278	0.0	n/a	GoodResponse	0	n/a	n/a	3	10	Fixation	Neutral	True
109.471	0.3	Control	1.0	0.001	Yes	3.278	-0.001	2.0	GoodResponse	0	0.175	108.646	3	10	Target	Neutral	True
109.646	0.3	Control	1.0	0.001	Yes	3.278	-0.001	2.0	GoodResponse	0	0.175	n/a	3	10	ButtonPress	Neutral	True
109.771	0.4	Control	1.0	n/a	Yes	3.278	n/a	n/a	GoodResponse	0	n/a	n/a	3	10	Blank	Neutral	True
110.171	1.45	Control	1.0	n/a	Yes	3.278	n/a	5.0	GoodResponse	0	0.0	109.171	3	10	Feedback	Neutral	True
111.62	3.278	Control	1.0	n/a	Yes	3.278	n/a	n/a	GoodResponse	0	0.0	n/a	3	10	ISIslide	Neutral	True
114.919	0.25	Lose2	1.0	0.0	Yes	2.731	0.019	n/a	GoodResponse	0	n/a	n/a	3	11	Cue	AvoidedLoss	True
115.169	4.05	Lose2	1.0	0.0	Yes	2.731	0.0	n/a	GoodResponse	0	n/a	n/a	3	11	Fixation	AvoidedLoss	True
119.217	0.29	Lose2	1.0	0.002	Yes	2.731	-0.002	2.0	GoodResponse	0	0.189	118.406	3	11	Target	AvoidedLoss	True
119.406	0.3	Lose2	1.0	0.002	Yes	2.731	-0.002	2.0	GoodResponse	0	0.189	n/a	3	11	ButtonPress	AvoidedLoss	True
119.517	0.41	Lose2	1.0	n/a	Yes	2.731	n/a	n/a	GoodResponse	0	n/a	n/a	3	11	Blank	AvoidedLoss	True
119.917	1.45	Lose2	1.0	n/a	Yes	2.731	n/a	5.0	GoodResponse	0	0.01	118.927	3	11	Feedback	AvoidedLoss	True
121.367	2.731	Lose2	1.0	n/a	Yes	2.731	n/a	n/a	GoodResponse	0	0.0	n/a	3	11	ISIslide	AvoidedLoss	True
124.116	0.25	Control	1.0	0.0	Yes	2.984	0.016	n/a	GoodResponse	0	n/a	n/a	3	12	Cue	Neutral	True
124.366	3.9	Control	1.0	0.0	Yes	2.984	0.0	n/a	GoodResponse	0	n/a	n/a	3	12	Fixation	Neutral	True
128.264	0.28	Control	1.0	0.002	Yes	2.984	-0.002	2.0	GoodResponse	0	0.19	127.454	3	12	Target	Neutral	True
128.454	0.3	Control	1.0	0.002	Yes	2.984	-0.002	2.0	GoodResponse	0	0.19	n/a	3	12	ButtonPress	Neutral	True
128.547	0.42	Control	1.0	n/a	Yes	2.984	n/a	n/a	GoodResponse	0	n/a	n/a	3	12	Blank	Neutral	True
128.964	1.45	Control	1.0	n/a	Yes	2.984	n/a	5.0	GoodResponse	0	0.037	128.001	3	12	Feedback	Neutral	True
130.413	2.984	Control	1.0	n/a	Yes	2.984	n/a	n/a	GoodResponse	0	0.0	n/a	3	12	ISIslide	Neutral	True
133.429	0.25	Control	1.0	0.0	Yes	2.771	0.029	n/a	GoodResponse	0	n/a	n/a	3	13	Cue	Neutral	True
133.679	4.0	Control	1.0	0.0	Yes	2.771	0.0	n/a	GoodResponse	0	n/a	n/a	3	13	Fixation	Neutral	True
137.678	0.27	Control	1.0	0.001	Yes	2.771	-0.001	2.0	GoodResponse	0	0.186	136.864	3	13	Target	Neutral	True
137.864	0.3	Control	1.0	0.001	Yes	2.771	-0.001	2.0	GoodResponse	0	0.186	n/a	3	13	ButtonPress	Neutral	True
137.961	0.43	Control	1.0	n/a	Yes	2.771	n/a	n/a	GoodResponse	0	n/a	n/a	3	13	Blank	Neutral	True
138.377	1.45	Control	1.0	n/a	Yes	2.771	n/a	5.0	GoodResponse	0	0.038	137.415	3	13	Feedback	Neutral	True
139.827	2.771	Control	1.0	n/a	Yes	2.771	n/a	n/a	GoodResponse	0	0.0	n/a	3	13	ISIslide	Neutral	True
142.626	0.25	Win2	1.0	0.0	Yes	2.674	0.026	n/a	GoodResponse	1	n/a	n/a	4	14	Cue	Win	True
142.876	4.1	Win2	1.0	0.0	Yes	2.674	0.0	n/a	GoodResponse	1	n/a	n/a	4	14	Fixation	Win	True
146.974	0.26	Win2	1.0	0.002	Yes	2.674	-0.002	2.0	GoodResponse	1	0.186	146.16	4	14	Target	Win	True
147.16	0.3	Win2	1.0	0.002	Yes	2.674	-0.002	2.0	GoodResponse	1	0.186	n/a	4	14	ButtonPress	Win	True
147.241	0.44	Win2	1.0	n/a	Yes	2.674	n/a	n/a	GoodResponse	1	n/a	n/a	4	14	Blank	Win	True
147.674	1.45	Win2	1.0	n/a	Yes	2.674	n/a	5.0	GoodResponse	1	0.01	146.684	4	14	Feedback	Win	True
149.124	2.674	Win2	1.0	n/a	Yes	2.674	n/a	n/a	GoodResponse	1	0.0	n/a	4	14	ISIslide	Win	True
151.823	0.25	Control	1.0	0.0	Yes	2.977	0.023	n/a	GoodResponse	0	n/a	n/a	4	15	Cue	Neutral	True
152.073	4.0	Control	1.0	0.0	Yes	2.977	0.0	n/a	GoodResponse	0	n/a	n/a	4	15	Fixation	Neutral	True
156.071	0.25	Control	1.0	0.002	Yes	2.977	-0.002	2.0	GoodResponse	0	0.192	155.263	4	15	Target	Neutral	True
156.263	0.3	Control	1.0	0.002	Yes	2.977	-0.002	2.0	GoodResponse	0	0.192	n/a	4	15	ButtonPress	Neutral	True
156.321	0.45	Control	1.0	n/a	Yes	2.977	n/a	n/a	GoodResponse	0	n/a	n/a	4	15	Blank	Neutral	True
156.771	1.45	Control	1.0	n/a	Yes	2.977	n/a	5.0	GoodResponse	0	0.034	155.805	4	15	Feedback	Neutral	True
158.22	2.977	Control	1.0	n/a	Yes	2.977	n/a	n/a	GoodResponse	0	0.0	n/a	4	15	ISIslide	Neutral	True
161.219	0.25	Win2	1.0	0.001	Yes	2.881	0.019	n/a	GoodResponse	1	n/a	n/a	5	16	Cue	Win	True
161.469	4.0	Win2	1.0	0.0	Yes	2.881	0.0	n/a	GoodResponse	1	n/a	n/a	5	16	Fixation	Win	True
165.468	0.24	Win2	1.0	0.001	Yes	2.881	-0.001	2.0	GoodResponse	1	0.184	164.652	5	16	Target	Win	True
165.652	0.3	Win2	1.0	0.001	Yes	2.881	-0.001	2.0	GoodResponse	1	0.184	n/a	5	16	ButtonPress	Win	True
165.718	0.46	Win2	1.0	n/a	Yes	2.881	n/a	n/a	GoodResponse	1	n/a	n/a	5	16	Blank	Win	True
166.168	1.45	Win2	1.0	n/a	Yes	2.881	n/a	5.0	GoodResponse	1	0.006	165.174	5	16	Feedback	Win	True
167.617	2.881	Win2	1.0	n/a	Yes	2.881	n/a	n/a	GoodResponse	1	0.0	n/a	5	16	ISIslide	Win	True
170.516	0.25	Lose2	1.0	0.0	Yes	2.734	0.016	n/a	GoodResponse	0	n/a	n/a	5	17	Cue	AvoidedLoss	True
170.766	3.95	Lose2	1.0	0.0	Yes	2.734	0.0	n/a	GoodResponse	0	n/a	n/a	5	17	Fixation	AvoidedLoss	True
174.715	0.23	Lose2	1.0	0.001	Yes	2.734	-0.001	2.0	GoodResponse	0	0.159	173.874	5	17	Target	AvoidedLoss	True
174.874	0.3	Lose2	1.0	0.001	Yes	2.734	-0.001	2.0	GoodResponse	0	0.159	n/a	5	17	ButtonPress	AvoidedLoss	True
174.948	0.47	Lose2	1.0	n/a	Yes	2.734	n/a	n/a	GoodResponse	0	n/a	n/a	5	17	Blank	AvoidedLoss	True
175.414	1.45	Lose2	1.0	n/a	Yes	2.734	n/a	5.0	GoodResponse	0	0.025	174.439	5	17	Feedback	AvoidedLoss	True
176.864	2.734	Lose2	1.0	n/a	Yes	2.734	n/a	n/a	GoodResponse	0	0.0	n/a	5	17	ISIslide	AvoidedLoss	True
179.63	0.25	Lose2	0.9473999999999999	0.0	No	2.72	0.03	n/a	PrematurePress	-1	n/a	n/a	4	18	Cue	Loss	True
179.88	4.05	Lose2	0.9473999999999999	0.0	No	2.72	0.0	n/a	PrematurePress	-1	n/a	n/a	4	18	Fixation	Loss	True
183.928	0.22	Lose2	0.9473999999999999	0.002	No	2.72	-0.002	2.0	PrematurePress	-1	0.022	182.95	4	18	Target	Loss	True
183.95	0.3	Lose2	0.9473999999999999	0.002	No	2.72	-0.002	2.0	PrematurePress	-1	0.022	n/a	4	18	ButtonPress	Loss	True
184.161	0.48	Lose2	0.9473999999999999	n/a	No	2.72	n/a	n/a	PrematurePress	-1	n/a	n/a	4	18	Blank	Loss	True
184.628	1.45	Lose2	0.9473999999999999	n/a	No	2.72	n/a	5.0	PrematurePress	-1	0.031	183.659	4	18	Feedback	Loss	True
186.077	2.72	Lose2	0.9473999999999999	n/a	No	2.72	n/a	n/a	PrematurePress	-1	0.0	n/a	4	18	ISIslide	Loss	True
188.826	0.25	Control	0.9	0.001	No	2.924	0.026	n/a	NoResponse	0	n/a	n/a	4	19	Cue	Neutral	True
189.076	3.95	Control	0.9	0.0	No	2.924	0.0	n/a	NoResponse	0	n/a	n/a	4	19	Fixation	Neutral	True
193.025	0.21	Control	0.9	0.001	No	2.924	-0.001	2.0	NoResponse	0	0.242	192.267	4	19	Target	Neutral	True
193.242	0.49	Control	0.9	n/a	No	2.924	n/a	n/a	NoResponse	0	n/a	n/a	4	19	Blank	Neutral	True
193.267	0.3	Control	0.9	0.001	No	2.924	-0.001	2.0	NoResponse	0	0.242	n/a	4	19	ButtonPress	Neutral	True
193.725	1.45	Control	0.9	n/a	No	2.924	n/a	5.0	NoResponse	0	0.007	192.732	4	19	Feedback	Neutral	True
195.174	2.924	Control	0.9	n/a	No	2.924	n/a	n/a	NoResponse	0	0.0	n/a	4	19	ISIslide	Neutral	True
198.123	0.25	Control	0.8571	0.0	No	2.627	0.023	n/a	NoResponse	0	n/a	n/a	4	20	Cue	Neutral	True
198.373	4.05	Control	0.8571	0.0	No	2.627	0.0	2.0	NoResponse	0	3.949	201.322	4	20	Fixation	Neutral	True
202.322	0.3	Control	0.8571	0.0	No	2.627	0.0	2.0	NoResponse	0	3.949	n/a	4	20	ButtonPress	Neutral	True
202.422	0.2	Control	0.8571	0.001	No	2.627	-0.001	n/a	NoResponse	0	n/a	n/a	4	20	Target	Neutral	True
202.622	0.5	Control	0.8571	n/a	No	2.627	n/a	n/a	NoResponse	0	n/a	n/a	4	20	Blank	Neutral	True
203.121	1.45	Control	0.8571	n/a	No	2.627	n/a	5.0	NoResponse	0	0.025	202.146	4	20	Feedback	Neutral	True
204.571	2.627	Control	0.8571	n/a	No	2.627	n/a	n/a	NoResponse	0	0.0	n/a	4	20	ISIslide	Neutral	True
207.22	0.25	Control	0.8181999999999999	0.0	No	2.78	0.02	n/a	NoResponse	0	n/a	n/a	4	21	Cue	Neutral	True
207.47	4.1	Control	0.8181999999999999	0.0	No	2.78	0.0	n/a	NoResponse	0	n/a	n/a	4	21	Fixation	Neutral	True
211.569	0.19	Control	0.8181999999999999	0.001	No	2.78	-0.001	2.0	NoResponse	0	0.201	210.77	4	21	Target	Neutral	True
211.768	0.51	Control	0.8181999999999999	n/a	No	2.78	n/a	n/a	NoResponse	0	n/a	n/a	4	21	Blank	Neutral	True
211.77	0.3	Control	0.8181999999999999	0.001	No	2.78	-0.001	2.0	NoResponse	0	0.201	n/a	4	21	ButtonPress	Neutral	True
212.268	1.45	Control	0.8181999999999999	n/a	No	2.78	n/a	5.0	NoResponse	0	0.049	211.317	4	21	Feedback	Neutral	True
213.718	2.78	Control	0.8181999999999999	n/a	No	2.78	n/a	n/a	NoResponse	0	0.0	n/a	4	21	ISIslide	Neutral	True
216.517	0.25	Control	0.7826000000000001	0.0	No	2.783	0.017	n/a	NoResponse	0	n/a	n/a	4	22	Cue	Neutral	True
216.767	4.0	Control	0.7826000000000001	0.0	No	2.783	0.0	n/a	NoResponse	0	n/a	n/a	4	22	Fixation	Neutral	True
220.765	0.18	Control	0.7826000000000001	0.002	No	2.783	-0.002	2.0	NoResponse	0	0.211	219.976	4	22	Target	Neutral	True
220.949	0.52	Control	0.7826000000000001	n/a	No	2.783	n/a	n/a	NoResponse	0	n/a	n/a	4	22	Blank	Neutral	True
220.976	0.3	Control	0.7826000000000001	0.002	No	2.783	-0.002	2.0	NoResponse	0	0.211	n/a	4	22	ButtonPress	Neutral	True
221.465	1.45	Control	0.7826000000000001	n/a	No	2.783	n/a	5.0	NoResponse	0	0.022	220.487	4	22	Feedback	Neutral	True
222.915	2.783	Control	0.7826000000000001	n/a	No	2.783	n/a	n/a	NoResponse	0	0.0	n/a	4	22	ISIslide	Neutral	True
225.714	0.25	Control	0.75	0.0	No	2.786	0.014	n/a	NoResponse	0	n/a	n/a	4	23	Cue	Neutral	True
225.963	3.9	Control	0.75	0.001	No	2.786	-0.001	n/a	NoResponse	0	n/a	n/a	4	23	Fixation	Neutral	True
229.862	0.17	Control	0.75	0.002	No	2.786	-0.002	2.0	NoResponse	0	0.207	229.069	4	23	Target	Neutral	True
230.045	0.53	Control	0.75	n/a	No	2.786	n/a	n/a	NoResponse	0	n/a	n/a	4	23	Blank	Neutral	True
230.069	0.3	Control	0.75	0.002	No	2.786	-0.002	2.0	NoResponse	0	0.207	n/a	4	23	ButtonPress	Neutral	True
230.562	1.45	Control	0.75	n/a	No	2.786	n/a	5.0	NoResponse	0	0.048	229.61	4	23	Feedback	Neutral	True
232.011	2.786	Control	0.75	n/a	No	2.786	n/a	n/a	NoResponse	0	0.0	n/a	4	23	ISIslide	Neutral	True
234.827	0.25	Win2	0.76	0.0	Yes	3.123	0.027	n/a	GoodResponse	1	n/a	n/a	5	24	Cue	Win	True
235.077	3.95	Win2	0.76	0.0	Yes	3.123	0.0	n/a	GoodResponse	1	n/a	n/a	5	24	Fixation	Win	True
239.026	0.16	Win2	0.76	0.001	Yes	3.123	-0.001	2.0	GoodResponse	1	0.159	238.185	5	24	Target	Win	True
239.185	0.3	Win2	0.76	0.001	Yes	3.123	-0.001	2.0	GoodResponse	1	0.159	n/a	5	24	ButtonPress	Win	True
239.192	0.54	Win2	0.76	n/a	Yes	3.123	n/a	n/a	GoodResponse	1	n/a	n/a	5	24	Blank	Win	True
239.725	1.45	Win2	0.76	n/a	Yes	3.123	n/a	5.0	GoodResponse	1	0.008	238.733	5	24	Feedback	Win	True
241.175	3.123	Win2	0.76	n/a	Yes	3.123	n/a	n/a	GoodResponse	1	0.0	n/a	5	24	ISIslide	Win	True
244.324	0.25	Win2	0.7308	0.0	No	3.076	0.024	n/a	NoResponse	0	n/a	n/a	5	25	Cue	MissedWin	True
244.574	4.0	Win2	0.7308	0.0	No	3.076	0.0	n/a	NoResponse	0	n/a	n/a	5	25	Fixation	MissedWin	True
248.572	0.15	Win2	0.7308	0.002	No	3.076	-0.002	2.0	NoResponse	0	0.191	247.763	5	25	Target	MissedWin	True
248.722	0.55	Win2	0.7308	n/a	No	3.076	n/a	n/a	NoResponse	0	n/a	n/a	5	25	Blank	MissedWin	True
248.763	0.3	Win2	0.7308	0.002	No	3.076	-0.002	2.0	NoResponse	0	0.191	n/a	5	25	ButtonPress	MissedWin	True
249.272	1.45	Win2	0.7308	n/a	No	3.076	n/a	5.0	NoResponse	0	0.021	248.293	5	25	Feedback	MissedWin	True
250.722	3.076	Win2	0.7308	n/a	No	3.076	n/a	n/a	NoResponse	0	0.0	n/a	5	25	ISIslide	MissedWin	True
253.82	0.25	Win2	0.7037	0.001	No	2.93	0.02	n/a	NoResponse	0	n/a	n/a	5	26	Cue	MissedWin	True
254.07	3.95	Win2	0.7037	0.0	No	2.93	0.0	n/a	NoResponse	0	n/a	n/a	5	26	Fixation	MissedWin	True
258.019	0.15	Win2	0.7037	0.001	No	2.93	-0.001	2.0	NoResponse	0	0.201	257.22	5	26	Target	MissedWin	True
258.169	0.55	Win2	0.7037	n/a	No	2.93	n/a	n/a	NoResponse	0	n/a	n/a	5	26	Blank	MissedWin	True
258.22	0.3	Win2	0.7037	0.001	No	2.93	-0.001	2.0	NoResponse	0	0.201	n/a	5	26	ButtonPress	MissedWin	True
258.719	1.45	Win2	0.7037	n/a	No	2.93	n/a	5.0	NoResponse	0	0.036	257.755	5	26	Feedback	MissedWin	True
260.168	2.93	Win2	0.7037	n/a	No	2.93	n/a	n/a	NoResponse	0	0.0	n/a	5	26	ISIslide	MissedWin	True
263.117	0.25	Lose2	0.6786	0.0	No	2.833	0.017	n/a	NoResponse	-1	n/a	n/a	4	27	Cue	Loss	False
263.367	4.05	Lose2	0.6786	0.0	No	2.833	0.0	2.0	NoResponse	-1	3.449	265.816	4	27	Fixation	Loss	False
266.816	0.3	Lose2	0.6786	0.0	No	2.833	0.0	2.0	NoResponse	-1	3.449	n/a	4	27	ButtonPress	Loss	False
267.416	0.15	Lose2	0.6786	0.001	No	2.833	-0.001	2.0	NoResponse	-1	0.215	266.631	4	27	Target	Loss	False
267.566	0.55	Lose2	0.6786	n/a	No	2.833	n/a	n/a	NoResponse	-1	n/a	n/a	4	27	Blank	Loss	False
267.631	0.3	Lose2	0.6786	0.001	No	2.833	-0.001	2.0	NoResponse	-1	0.215	n/a	4	27	ButtonPress	Loss	False
268.115	1.45	Lose2	0.6786	n/a	No	2.833	n/a	5.0	NoResponse	-1	0.008	267.123	4	27	Feedback	Loss	False
269.565	2.833	Lose2	0.6786	n/a	No	2.833	n/a	n/a	NoResponse	-1	0.0	n/a	4	27	ISIslide	Loss	False
272.414	0.25	Control	0.6552	0.0	No	2.836	0.014	n/a	NoResponse	0	n/a	n/a	4	28	Cue	Neutral	True
272.664	4.05	Control	0.6552	0.0	No	2.836	0.0	n/a	NoResponse	0	n/a	n/a	4	28	Fixation	Neutral	True
276.712	0.15	Control	0.6552	0.002	No	2.836	-0.002	2.0	NoResponse	0	0.232	275.944	4	28	Target	Neutral	True
276.862	0.55	Control	0.6552	n/a	No	2.836	n/a	n/a	NoResponse	0	n/a	n/a	4	28	Blank	Neutral	True
276.944	0.3	Control	0.6552	0.002	No	2.836	-0.002	2.0	NoResponse	0	0.232	n/a	4	28	ButtonPress	Neutral	True
277.412	1.45	Control	0.6552	n/a	No	2.836	n/a	5.0	NoResponse	0	0.026	276.438	4	28	Feedback	Neutral	True
278.862	2.836	Control	0.6552	n/a	No	2.836	n/a	n/a	NoResponse	0	0.0	n/a	4	28	ISIslide	Neutral	True
281.727	0.25	Lose2	0.6333	0.0	No	2.823	0.027	n/a	NoResponse	-1	n/a	n/a	3	29	Cue	Loss	True
281.977	3.95	Lose2	0.6333	0.0	No	2.823	0.0	2.0	NoResponse	-1	3.883	284.86	3	29	Fixation	Loss	True
285.86	0.3	Lose2	0.6333	0.0	No	2.823	0.0	2.0	NoResponse	-1	3.883	n/a	3	29	ButtonPress	Loss	True
285.926	0.15	Lose2	0.6333	0.001	No	2.823	-0.001	n/a	NoResponse	-1	n/a	n/a	3	29	Target	Loss	True
286.076	0.55	Lose2	0.6333	n/a	No	2.823	n/a	n/a	NoResponse	-1	n/a	n/a	3	29	Blank	Loss	True
286.626	1.45	Lose2	0.6333	n/a	No	2.823	n/a	5.0	NoResponse	-1	0.032	285.658	3	29	Feedback	Loss	True
288.075	2.823	Lose2	0.6333	n/a	No	2.823	n/a	n/a	NoResponse	-1	0.0	n/a	3	29	ISIslide	Loss	True
290.924	0.25	Win2	0.6129	0.0	No	2.776	0.024	n/a	NoResponse	0	n/a	n/a	3	30	Cue	MissedWin	True
291.174	3.9	Win2	0.6129	0.0	No	2.776	0.0	n/a	NoResponse	0	n/a	n/a	3	30	Fixation	MissedWin	True
295.073	0.16	Win2	0.6129	0.001	No	2.776	-0.001	2.0	NoResponse	0	0.224	294.297	3	30	Target	MissedWin	True
295.239	0.54	Win2	0.6129	n/a	No	2.776	n/a	n/a	NoResponse	0	n/a	n/a	3	30	Blank	MissedWin	True
295.297	0.3	Win2	0.6129	0.001	No	2.776	-0.001	2.0	NoResponse	0	0.224	n/a	3	30	ButtonPress	MissedWin	True
295.772	1.45	Win2	0.6129	n/a	No	2.776	n/a	5.0	NoResponse	0	0.008	294.78	3	30	Feedback	MissedWin	True
297.222	2.776	Win2	0.6129	n/a	No	2.776	n/a	n/a	NoResponse	0	0.0	n/a	3	30	ISIslide	MissedWin	True
300.021	0.25	Lose2	0.5938	0.0	No	2.829	0.021	n/a	NoResponse	-1	n/a	n/a	2	31	Cue	Loss	True
300.271	4.05	Lose2	0.5938	0.0	No	2.829	0.0	n/a	NoResponse	-1	n/a	n/a	2	31	Fixation	Loss	True
304.319	0.17	Lose2	0.5938	0.002	No	2.829	-0.002	2.0	NoResponse	-1	0.201	303.52	2	31	Target	Loss	True
304.503	0.53	Lose2	0.5938	n/a	No	2.829	n/a	n/a	NoResponse	-1	n/a	n/a	2	31	Blank	Loss	True
304.52	0.3	Lose2	0.5938	0.002	No	2.829	-0.002	2.0	NoResponse	-1	0.201	n/a	2	31	ButtonPress	Loss	True
305.019	1.45	Lose2	0.5938	n/a	No	2.829	n/a	5.0	NoResponse	-1	0.029	304.048	2	31	Feedback	Loss	True
306.469	2.829	Lose2	0.5938	n/a	No	2.829	n/a	n/a	NoResponse	-1	0.0	n/a	2	31	ISIslide	Loss	True
309.318	0.25	Lose2	0.5758	0.0	No	2.632	0.018	n/a	NoResponse	-1	n/a	n/a	1	32	Cue	Loss	True
309.568	4.15	Lose2	0.5758	0.0	No	2.632	0.0	n/a	NoResponse	-1	n/a	n/a	1	32	Fixation	Loss	True
313.716	0.18	Lose2	0.5758	0.002	No	2.632	-0.002	2.0	NoResponse	-1	0.211	312.927	1	32	Target	Loss	True
313.899	0.52	Lose2	0.5758	n/a	No	2.632	n/a	n/a	NoResponse	-1	n/a	n/a	1	32	Blank	Loss	True
313.927	0.3	Lose2	0.5758	0.002	No	2.632	-0.002	2.0	NoResponse	-1	0.211	n/a	1	32	ButtonPress	Loss	True
314.416	1.45	Lose2	0.5758	n/a	No	2.632	n/a	5.0	NoResponse	-1	0.046	313.462	1	32	Feedback	Loss	True
315.865	2.632	Lose2	0.5758	n/a	No	2.632	n/a	n/a	NoResponse	-1	0.0	n/a	1	32	ISIslide	Loss	True
318.515	0.25	Win2	0.5882000000000001	0.0	Yes	2.685	0.015	n/a	GoodResponse	1	n/a	n/a	2	33	Cue	Win	True
318.764	4.0	Win2	0.5882000000000001	0.001	Yes	2.685	-0.001	n/a	GoodResponse	1	n/a	n/a	2	33	Fixation	Win	True
322.763	0.19	Win2	0.5882000000000001	0.002	Yes	2.685	-0.002	2.0	GoodResponse	1	0.183	321.946	2	33	Target	Win	True
322.946	0.3	Win2	0.5882000000000001	0.002	Yes	2.685	-0.002	2.0	GoodResponse	1	0.183	n/a	2	33	ButtonPress	Win	True
322.963	0.51	Win2	0.5882000000000001	n/a	Yes	2.685	n/a	n/a	GoodResponse	1	n/a	n/a	2	33	Blank	Win	True
323.463	1.45	Win2	0.5882000000000001	n/a	Yes	2.685	n/a	5.0	GoodResponse	1	0.024	322.487	2	33	Feedback	Win	True
324.912	2.685	Win2	0.5882000000000001	n/a	Yes	2.685	n/a	n/a	GoodResponse	1	0.0	n/a	2	33	ISIslide	Win	True
327.628	0.25	Lose2	0.5714	0.0	No	2.622	0.028	n/a	PrematurePress	-1	n/a	n/a	1	34	Cue	Loss	True
327.878	4.05	Lose2	0.5714	0.0	No	2.622	0.0	n/a	PrematurePress	-1	n/a	n/a	1	34	Fixation	Loss	True
331.927	0.2	Lose2	0.5714	0.001	No	2.622	-0.001	2.0	PrematurePress	-1	0.033	330.96	1	34	Target	Loss	True
331.96	0.3	Lose2	0.5714	0.001	No	2.622	-0.001	2.0	PrematurePress	-1	0.033	n/a	1	34	ButtonPress	Loss	True
332.126	0.5	Lose2	0.5714	n/a	No	2.622	n/a	n/a	PrematurePress	-1	n/a	n/a	1	34	Blank	Loss	True
332.626	1.45	Lose2	0.5714	n/a	No	2.622	n/a	5.0	PrematurePress	-1	0.032	331.658	1	34	Feedback	Loss	True
334.076	2.622	Lose2	0.5714	n/a	No	2.622	n/a	n/a	PrematurePress	-1	0.0	n/a	1	34	ISIslide	Loss	True
336.725	0.25	Lose2	0.5556	0.0	No	2.675	0.025	n/a	NoResponse	-1	n/a	n/a	0	35	Cue	Loss	True
336.975	4.0	Lose2	0.5556	0.0	No	2.675	0.0	n/a	NoResponse	-1	n/a	n/a	0	35	Fixation	Loss	True
340.973	0.21	Lose2	0.5556	0.002	No	2.675	-0.002	2.0	NoResponse	-1	0.226	340.199	0	35	Target	Loss	True
341.19	0.49	Lose2	0.5556	n/a	No	2.675	n/a	n/a	NoResponse	-1	n/a	n/a	0	35	Blank	Loss	True
341.199	0.3	Lose2	0.5556	0.002	No	2.675	-0.002	2.0	NoResponse	-1	0.226	n/a	0	35	ButtonPress	Loss	True
341.673	1.45	Lose2	0.5556	n/a	No	2.675	n/a	5.0	NoResponse	-1	0.009	340.682	0	35	Feedback	Loss	True
343.123	2.675	Lose2	0.5556	n/a	No	2.675	n/a	n/a	NoResponse	-1	0.0	n/a	0	35	ISIslide	Loss	True
345.822	0.25	Control	0.5676	0.0	Yes	2.678	0.022	n/a	GoodResponse	0	n/a	n/a	0	36	Cue	Neutral	True
346.072	4.0	Control	0.5676	0.0	Yes	2.678	0.0	n/a	GoodResponse	0	n/a	n/a	0	36	Fixation	Neutral	True
350.07	0.22	Control	0.5676	0.002	Yes	2.678	-0.002	2.0	GoodResponse	0	0.203	349.273	0	36	Target	Neutral	True
350.273	0.3	Control	0.5676	0.002	Yes	2.678	-0.002	2.0	GoodResponse	0	0.203	n/a	0	36	ButtonPress	Neutral	True
350.303	0.48	Control	0.5676	n/a	Yes	2.678	n/a	n/a	GoodResponse	0	n/a	n/a	0	36	Blank	Neutral	True
350.77	1.45	Control	0.5676	n/a	Yes	2.678	n/a	5.0	GoodResponse	0	0.034	349.804	0	36	Feedback	Neutral	True
352.219	2.678	Control	0.5676	n/a	Yes	2.678	n/a	n/a	GoodResponse	0	0.0	n/a	0	36	ISIslide	Neutral	True
354.919	0.25	Win2	0.5789	0.0	Yes	2.881	0.019	n/a	GoodResponse	1	n/a	n/a	1	37	Cue	Win	True
355.168	4.0	Win2	0.5789	0.001	Yes	2.881	-0.001	n/a	GoodResponse	1	n/a	n/a	1	37	Fixation	Win	True
359.167	0.23	Win2	0.5789	0.002	Yes	2.881	-0.002	2.0	GoodResponse	1	0.205	358.372	1	37	Target	Win	True
359.372	0.3	Win2	0.5789	0.002	Yes	2.881	-0.002	2.0	GoodResponse	1	0.205	n/a	1	37	ButtonPress	Win	True
359.4	0.47	Win2	0.5789	n/a	Yes	2.881	n/a	n/a	GoodResponse	1	n/a	n/a	1	37	Blank	Win	True
359.867	1.45	Win2	0.5789	n/a	Yes	2.881	n/a	5.0	GoodResponse	1	0.009	358.876	1	37	Feedback	Win	True
361.316	2.881	Win2	0.5789	n/a	Yes	2.881	n/a	n/a	GoodResponse	1	0.0	n/a	1	37	ISIslide	Win	True
364.215	0.25	Lose2	0.5897	0.0	Yes	2.835	0.015	n/a	GoodResponse	0	n/a	n/a	1	38	Cue	AvoidedLoss	True
364.465	3.95	Lose2	0.5897	0.0	Yes	2.835	0.0	n/a	GoodResponse	0	n/a	n/a	1	38	Fixation	AvoidedLoss	True
368.414	0.24	Lose2	0.5897	0.001	Yes	2.835	-0.001	2.0	GoodResponse	0	0.188	367.602	1	38	Target	AvoidedLoss	True
368.602	0.3	Lose2	0.5897	0.001	Yes	2.835	-0.001	2.0	GoodResponse	0	0.188	n/a	1	38	ButtonPress	AvoidedLoss	True
368.664	0.46	Lose2	0.5897	n/a	Yes	2.835	n/a	n/a	GoodResponse	0	n/a	n/a	1	38	Blank	AvoidedLoss	True
369.114	1.45	Lose2	0.5897	n/a	Yes	2.835	n/a	5.0	GoodResponse	0	0.031	368.145	1	38	Feedback	AvoidedLoss	True
370.563	2.835	Lose2	0.5897	n/a	Yes	2.835	n/a	n/a	GoodResponse	0	0.0	n/a	1	38	ISIslide	AvoidedLoss	True
373.429	0.25	Win2	0.6	0.0	Yes	2.971	0.029	n/a	GoodResponse	1	n/a	n/a	2	39	Cue	Win	True
373.679	4.1	Win2	0.6	0.0	Yes	2.971	0.0	n/a	GoodResponse	1	n/a	n/a	2	39	Fixation	Win	True
377.777	0.25	Win2	0.6	0.002	Yes	2.971	-0.002	2.0	GoodResponse	1	0.217	376.994	2	39	Target	Win	True
377.994	0.3	Win2	0.6	0.002	Yes	2.971	-0.002	2.0	GoodResponse	1	0.217	n/a	2	39	ButtonPress	Win	True
378.027	0.45	Win2	0.6	n/a	Yes	2.971	n/a	n/a	GoodResponse	1	n/a	n/a	2	39	Blank	Win	True
378.477	1.45	Win2	0.6	n/a	Yes	2.971	n/a	5.0	GoodResponse	1	0.034	377.511	2	39	Feedback	Win	True
379.926	2.971	Win2	0.6	n/a	Yes	2.971	n/a	n/a	GoodResponse	1	0.0	n/a	2	39	ISIslide	Win	True
382.925	0.25	Win2	0.6098	0.001	Yes	2.725	0.025	n/a	GoodResponse	1	n/a	n/a	3	40	Cue	Win	True
383.175	3.95	Win2	0.6098	0.0	Yes	2.725	0.0	n/a	GoodResponse	1	n/a	n/a	3	40	Fixation	Win	True
387.124	0.26	Win2	0.6098	0.001	Yes	2.725	-0.001	2.0	GoodResponse	1	0.243	386.367	3	40	Target	Win	True
387.367	0.3	Win2	0.6098	0.001	Yes	2.725	-0.001	2.0	GoodResponse	1	0.243	n/a	3	40	ButtonPress	Win	True
387.391	0.44	Win2	0.6098	n/a	Yes	2.725	n/a	n/a	GoodResponse	1	n/a	n/a	3	40	Blank	Win	True
387.824	1.45	Win2	0.6098	n/a	Yes	2.725	n/a	5.0	GoodResponse	1	0.006	386.83	3	40	Feedback	Win	True
389.273	2.725	Win2	0.6098	n/a	Yes	2.725	n/a	n/a	GoodResponse	1	0.0	n/a	3	40	ISIslide	Win	True
392.022	0.25	Win2	0.619	0.0	Yes	2.778	0.022	n/a	GoodResponse	1	n/a	n/a	4	41	Cue	Win	True
392.272	3.9	Win2	0.619	0.0	Yes	2.778	0.0	n/a	GoodResponse	1	n/a	n/a	4	41	Fixation	Win	True
396.171	0.27	Win2	0.619	0.001	Yes	2.778	-0.001	2.0	GoodResponse	1	0.243	395.414	4	41	Target	Win	True
396.414	0.3	Win2	0.619	0.001	Yes	2.778	-0.001	2.0	GoodResponse	1	0.243	n/a	4	41	ButtonPress	Win	True
396.437	0.43	Win2	0.619	n/a	Yes	2.778	n/a	n/a	GoodResponse	1	n/a	n/a	4	41	Blank	Win	True
396.871	1.45	Win2	0.619	n/a	Yes	2.778	n/a	5.0	GoodResponse	1	0.03	395.901	4	41	Feedback	Win	True
398.32	2.778	Win2	0.619	n/a	Yes	2.778	n/a	n/a	GoodResponse	1	0.0	n/a	4	41	ISIslide	Win	True
401.119	0.25	Control	0.6279	0.0	Yes	2.931	0.019	n/a	GoodResponse	0	n/a	n/a	4	42	Cue	Neutral	True
401.369	3.85	Control	0.6279	0.0	Yes	2.931	0.0	n/a	GoodResponse	0	n/a	n/a	4	42	Fixation	Neutral	True
405.218	0.28	Control	0.6279	0.001	Yes	2.931	-0.001	2.0	GoodResponse	0	0.223	404.441	4	42	Target	Neutral	True
405.441	0.3	Control	0.6279	0.001	Yes	2.931	-0.001	2.0	GoodResponse	0	0.223	n/a	4	42	ButtonPress	Neutral	True
405.501	0.42	Control	0.6279	n/a	Yes	2.931	n/a	n/a	GoodResponse	0	n/a	n/a	4	42	Blank	Neutral	True
405.917	1.45	Control	0.6279	n/a	Yes	2.931	n/a	5.0	GoodResponse	0	0.008	404.925	4	42	Feedback	Neutral	True
407.367	2.931	Control	0.6279	n/a	Yes	2.931	n/a	n/a	GoodResponse	0	0.0	n/a	4	42	ISIslide	Neutral	True
410.316	0.25	Win2	0.6364	0.0	Yes	3.184	0.016	n/a	GoodResponse	1	n/a	n/a	5	43	Cue	Win	True
410.566	4.0	Win2	0.6364	0.0	Yes	3.184	0.0	n/a	GoodResponse	1	n/a	n/a	5	43	Fixation	Win	True
414.564	0.29	Win2	0.6364	0.002	Yes	3.184	-0.002	2.0	GoodResponse	1	0.202	413.766	5	43	Target	Win	True
414.766	0.3	Win2	0.6364	0.002	Yes	3.184	-0.002	2.0	GoodResponse	1	0.202	n/a	5	43	ButtonPress	Win	True
414.864	0.41	Win2	0.6364	n/a	Yes	3.184	n/a	n/a	GoodResponse	1	n/a	n/a	5	43	Blank	Win	True
415.264	1.45	Win2	0.6364	n/a	Yes	3.184	n/a	5.0	GoodResponse	1	0.027	414.291	5	43	Feedback	Win	True
416.714	3.184	Win2	0.6364	n/a	Yes	3.184	n/a	n/a	GoodResponse	1	0.0	n/a	5	43	ISIslide	Win	True
419.929	0.25	Win2	0.6444	0.0	Yes	2.971	0.029	n/a	GoodResponse	1	n/a	n/a	6	44	Cue	Win	True
420.179	4.0	Win2	0.6444	0.0	Yes	2.971	0.0	n/a	GoodResponse	1	n/a	n/a	6	44	Fixation	Win	True
424.178	0.3	Win2	0.6444	0.001	Yes	2.971	-0.001	2.0	GoodResponse	1	0.208	423.386	6	44	Target	Win	True
424.386	0.3	Win2	0.6444	0.001	Yes	2.971	-0.001	2.0	GoodResponse	1	0.208	n/a	6	44	ButtonPress	Win	True
424.478	0.4	Win2	0.6444	n/a	Yes	2.971	n/a	n/a	GoodResponse	1	n/a	n/a	6	44	Blank	Win	True
424.877	1.45	Win2	0.6444	n/a	Yes	2.971	n/a	5.0	GoodResponse	1	0.024	423.901	6	44	Feedback	Win	True
426.327	2.971	Win2	0.6444	n/a	Yes	2.971	n/a	n/a	GoodResponse	1	0.0	n/a	6	44	ISIslide	Win	True
429.326	0.25	Control	0.6522	0.0	Yes	2.874	0.026	n/a	GoodResponse	0	n/a	n/a	6	45	Cue	Neutral	True
429.576	4.1	Control	0.6522	0.0	Yes	2.874	0.0	n/a	GoodResponse	0	n/a	n/a	6	45	Fixation	Neutral	True
433.674	0.31	Control	0.6522	0.002	Yes	2.874	-0.002	2.0	GoodResponse	0	0.224	432.898	6	45	Target	Neutral	True
433.898	0.3	Control	0.6522	0.002	Yes	2.874	-0.002	2.0	GoodResponse	0	0.224	n/a	6	45	ButtonPress	Neutral	True
433.991	0.39	Control	0.6522	n/a	Yes	2.874	n/a	n/a	GoodResponse	0	n/a	n/a	6	45	Blank	Neutral	True
434.374	1.45	Control	0.6522	n/a	Yes	2.874	n/a	5.0	GoodResponse	0	0.039	433.413	6	45	Feedback	Neutral	True
435.824	2.874	Control	0.6522	n/a	Yes	2.874	n/a	n/a	GoodResponse	0	0.0	n/a	6	45	ISIslide	Neutral	True
438.723	0.25	Lose2	0.6596	0.0	Yes	3.377	0.023	n/a	GoodResponse	0	n/a	n/a	6	46	Cue	AvoidedLoss	True
438.973	4.0	Lose2	0.6596	0.0	Yes	3.377	0.0	n/a	GoodResponse	0	n/a	n/a	6	46	Fixation	AvoidedLoss	True
442.971	0.32	Lose2	0.6596	0.002	Yes	3.377	-0.002	2.0	GoodResponse	0	0.204	442.175	6	46	Target	AvoidedLoss	True
443.175	0.3	Lose2	0.6596	0.002	Yes	3.377	-0.002	2.0	GoodResponse	0	0.204	n/a	6	46	ButtonPress	AvoidedLoss	True
443.304	0.38	Lose2	0.6596	n/a	Yes	3.377	n/a	n/a	GoodResponse	0	n/a	n/a	6	46	Blank	AvoidedLoss	True
443.671	1.45	Lose2	0.6596	n/a	Yes	3.377	n/a	5.0	GoodResponse	0	0.01	442.681	6	46	Feedback	AvoidedLoss	True
445.12	3.377	Lose2	0.6596	n/a	Yes	3.377	n/a	n/a	GoodResponse	0	0.0	n/a	6	46	ISIslide	AvoidedLoss	True
448.519	0.25	Lose2	0.6667000000000001	0.0	Yes	2.681	0.019	n/a	GoodResponse	0	n/a	n/a	6	47	Cue	AvoidedLoss	True
448.769	4.0	Lose2	0.6667000000000001	0.0	Yes	2.681	0.0	n/a	GoodResponse	0	n/a	n/a	6	47	Fixation	AvoidedLoss	True
452.768	0.32	Lose2	0.6667000000000001	0.001	Yes	2.681	-0.001	2.0	GoodResponse	0	0.205	451.973	6	47	Target	AvoidedLoss	True
452.973	0.3	Lose2	0.6667000000000001	0.001	Yes	2.681	-0.001	2.0	GoodResponse	0	0.205	n/a	6	47	ButtonPress	AvoidedLoss	True
453.101	0.38	Lose2	0.6667000000000001	n/a	Yes	2.681	n/a	n/a	GoodResponse	0	n/a	n/a	6	47	Blank	AvoidedLoss	True
453.467	1.45	Lose2	0.6667000000000001	n/a	Yes	2.681	n/a	5.0	GoodResponse	0	0.019	452.486	6	47	Feedback	AvoidedLoss	True
454.917	2.681	Lose2	0.6667000000000001	n/a	Yes	2.681	n/a	n/a	GoodResponse	0	0.0	n/a	6	47	ISIslide	AvoidedLoss	True
457.616	0.25	Lose2	0.6735	0.0	Yes	3.034	0.016	n/a	GoodResponse	0	n/a	n/a	6	48	Cue	AvoidedLoss	True
457.866	3.95	Lose2	0.6735	0.0	Yes	3.034	0.0	n/a	GoodResponse	0	n/a	n/a	6	48	Fixation	AvoidedLoss	True
461.815	0.31	Lose2	0.6735	0.001	Yes	3.034	-0.001	2.0	GoodResponse	0	0.19	461.005	6	48	Target	AvoidedLoss	True
462.005	0.3	Lose2	0.6735	0.001	Yes	3.034	-0.001	2.0	GoodResponse	0	0.19	n/a	6	48	ButtonPress	AvoidedLoss	True
462.131	0.39	Lose2	0.6735	n/a	Yes	3.034	n/a	n/a	GoodResponse	0	n/a	n/a	6	48	Blank	AvoidedLoss	True
462.514	1.45	Lose2	0.6735	n/a	Yes	3.034	n/a	5.0	GoodResponse	0	0.045	461.559	6	48	Feedback	AvoidedLoss	True
463.964	3.034	Lose2	0.6735	n/a	Yes	3.034	n/a	n/a	GoodResponse	0	0.0	n/a	6	48	ISIslide	AvoidedLoss	True
467.029	0.25	Control	0.68	0.0	Yes	2.871	0.029	n/a	GoodResponse	0	n/a	n/a	6	49	Cue	Neutral	True
467.279	4.0	Control	0.68	0.0	Yes	2.871	0.0	n/a	GoodResponse	0	n/a	n/a	6	49	Fixation	Neutral	True
471.278	0.3	Control	0.68	0.001	Yes	2.871	-0.001	2.0	GoodResponse	0	0.201	470.479	6	49	Target	Neutral	True
471.479	0.3	Control	0.68	0.001	Yes	2.871	-0.001	2.0	GoodResponse	0	0.201	n/a	6	49	ButtonPress	Neutral	True
471.578	0.4	Control	0.68	n/a	Yes	2.871	n/a	n/a	GoodResponse	0	n/a	n/a	6	49	Blank	Neutral	True
471.978	1.45	Control	0.68	n/a	Yes	2.871	n/a	5.0	GoodResponse	0	0.044	471.022	6	49	Feedback	Neutral	True
473.427	2.871	Control	0.68	n/a	Yes	2.871	n/a	n/a	GoodResponse	0	0.0	n/a	6	49	ISIslide	Neutral	True
476.326	0.25	Control	0.6667000000000001	0.0	No	2.774	0.026	n/a	NoResponse	0	n/a	n/a	6	50	Cue	Neutral	True
476.576	4.0	Control	0.6667000000000001	0.0	No	2.774	0.0	2.0	NoResponse	0	3.814	479.39	6	50	Fixation	Neutral	True
480.39	0.3	Control	0.6667000000000001	0.0	No	2.774	0.0	2.0	NoResponse	0	3.814	n/a	6	50	ButtonPress	Neutral	True
480.575	0.29	Control	0.6667000000000001	0.001	No	2.774	-0.001	n/a	NoResponse	0	n/a	n/a	6	50	Target	Neutral	True
480.875	0.41	Control	0.6667000000000001	n/a	No	2.774	n/a	n/a	NoResponse	0	n/a	n/a	6	50	Blank	Neutral	True
481.274	1.45	Control	0.6667000000000001	n/a	No	2.774	n/a	5.0	NoResponse	0	0.017	480.291	6	50	Feedback	Neutral	True
482.724	2.774	Control	0.6667000000000001	n/a	No	2.774	n/a	n/a	NoResponse	0	0.0	n/a	6	50	ISIslide	Neutral	True
485.523	0.25	Control	0.6537999999999999	0.0	No	2.727	0.023	n/a	NoResponse	0	n/a	n/a	6	51	Cue	Neutral	True
485.773	3.95	Control	0.6537999999999999	0.0	No	2.727	0.0	n/a	NoResponse	0	n/a	n/a	6	51	Fixation	Neutral	True
489.721	0.28	Control	0.6537999999999999	0.002	No	2.727	-0.002	2.0	NoResponse	0	0.305	489.026	6	51	Target	Neutral	True
490.005	0.42	Control	0.6537999999999999	n/a	No	2.727	n/a	n/a	NoResponse	0	n/a	n/a	6	51	Blank	Neutral	True
490.026	0.3	Control	0.6537999999999999	0.002	No	2.727	-0.002	2.0	NoResponse	0	0.305	n/a	6	51	ButtonPress	Neutral	True
490.421	1.45	Control	0.6537999999999999	n/a	No	2.727	n/a	5.0	NoResponse	0	0.04	489.461	6	51	Feedback	Neutral	True
491.871	2.727	Control	0.6537999999999999	n/a	No	2.727	n/a	n/a	NoResponse	0	0.0	n/a	6	51	ISIslide	Neutral	True
494.62	0.25	Control	0.6604000000000001	0.0	Yes	2.63	0.02	n/a	GoodResponse	0	n/a	n/a	6	52	Cue	Neutral	True
494.87	4.05	Control	0.6604000000000001	0.0	Yes	2.63	0.0	n/a	GoodResponse	0	n/a	n/a	6	52	Fixation	Neutral	True
498.918	0.29	Control	0.6604000000000001	0.002	Yes	2.63	-0.002	2.0	GoodResponse	0	0.207	498.125	6	52	Target	Neutral	True
499.125	0.3	Control	0.6604000000000001	0.002	Yes	2.63	-0.002	2.0	GoodResponse	0	0.207	n/a	6	52	ButtonPress	Neutral	True
499.218	0.41	Control	0.6604000000000001	n/a	Yes	2.63	n/a	n/a	GoodResponse	0	n/a	n/a	6	52	Blank	Neutral	True
499.618	1.45	Control	0.6604000000000001	n/a	Yes	2.63	n/a	5.0	GoodResponse	0	0.014	498.632	6	52	Feedback	Neutral	True
501.068	2.63	Control	0.6604000000000001	n/a	Yes	2.63	n/a	n/a	GoodResponse	0	0.0	n/a	6	52	ISIslide	Neutral	True
503.717	0.25	Win2	0.6667000000000001	0.0	Yes	2.933	0.017	n/a	GoodResponse	1	n/a	n/a	7	53	Cue	Win	True
503.966	4.05	Win2	0.6667000000000001	0.001	Yes	2.933	-0.001	n/a	GoodResponse	1	n/a	n/a	7	53	Fixation	Win	True
508.015	0.29	Win2	0.6667000000000001	0.002	Yes	2.933	-0.002	2.0	GoodResponse	1	0.202	507.217	7	53	Target	Win	True
508.217	0.3	Win2	0.6667000000000001	0.002	Yes	2.933	-0.002	2.0	GoodResponse	1	0.202	n/a	7	53	ButtonPress	Win	True
508.315	0.41	Win2	0.6667000000000001	n/a	Yes	2.933	n/a	n/a	GoodResponse	1	n/a	n/a	7	53	Blank	Win	True
508.715	1.45	Win2	0.6667000000000001	n/a	Yes	2.933	n/a	5.0	GoodResponse	1	0.038	507.753	7	53	Feedback	Win	True
510.164	2.933	Win2	0.6667000000000001	n/a	Yes	2.933	n/a	n/a	GoodResponse	1	0.0	n/a	7	53	ISIslide	Win	True
513.13	0.25	Win2	0.6727	0.0	Yes	2.72	0.03	n/a	GoodResponse	1	n/a	n/a	8	54	Cue	Win	True
513.38	3.95	Win2	0.6727	0.0	Yes	2.72	0.0	n/a	GoodResponse	1	n/a	n/a	8	54	Fixation	Win	True
517.329	0.28	Win2	0.6727	0.001	Yes	2.72	-0.001	2.0	GoodResponse	1	0.203	516.532	8	54	Target	Win	True
517.532	0.3	Win2	0.6727	0.001	Yes	2.72	-0.001	2.0	GoodResponse	1	0.203	n/a	8	54	ButtonPress	Win	True
517.612	0.42	Win2	0.6727	n/a	Yes	2.72	n/a	n/a	GoodResponse	1	n/a	n/a	8	54	Blank	Win	True
518.028	1.45	Win2	0.6727	n/a	Yes	2.72	n/a	5.0	GoodResponse	1	0.043	517.071	8	54	Feedback	Win	True
519.478	2.72	Win2	0.6727	n/a	Yes	2.72	n/a	n/a	GoodResponse	1	0.0	n/a	8	54	ISIslide	Win	True
522.227	0.25	Control	0.6786	0.0	Yes	3.023	0.027	n/a	GoodResponse	0	n/a	n/a	8	55	Cue	Neutral	True
522.477	3.95	Control	0.6786	0.0	Yes	3.023	0.0	n/a	GoodResponse	0	n/a	n/a	8	55	Fixation	Neutral	True
526.425	0.27	Control	0.6786	0.002	Yes	3.023	-0.002	2.0	GoodResponse	0	0.204	525.629	8	55	Target	Neutral	True
526.629	0.3	Control	0.6786	0.002	Yes	3.023	-0.002	2.0	GoodResponse	0	0.204	n/a	8	55	ButtonPress	Neutral	True
526.709	0.43	Control	0.6786	n/a	Yes	3.023	n/a	n/a	GoodResponse	0	n/a	n/a	8	55	Blank	Neutral	True
527.125	1.45	Control	0.6786	n/a	Yes	3.023	n/a	5.0	GoodResponse	0	0.019	526.144	8	55	Feedback	Neutral	True
528.575	3.023	Control	0.6786	n/a	Yes	3.023	n/a	n/a	GoodResponse	0	0.0	n/a	8	55	ISIslide	Neutral	True
531.624	0.25	Control	0.6842	0.0	Yes	2.826	0.024	n/a	GoodResponse	0	n/a	n/a	8	56	Cue	Neutral	True
531.873	3.95	Control	0.6842	0.001	Yes	2.826	-0.001	n/a	GoodResponse	0	n/a	n/a	8	56	Fixation	Neutral	True
535.822	0.26	Control	0.6842	0.002	Yes	2.826	-0.002	2.0	GoodResponse	0	0.194	535.016	8	56	Target	Neutral	True
536.016	0.3	Control	0.6842	0.002	Yes	2.826	-0.002	2.0	GoodResponse	0	0.194	n/a	8	56	ButtonPress	Neutral	True
536.089	0.44	Control	0.6842	n/a	Yes	2.826	n/a	n/a	GoodResponse	0	n/a	n/a	8	56	Blank	Neutral	True
536.522	1.45	Control	0.6842	n/a	Yes	2.826	n/a	5.0	GoodResponse	0	0.037	535.559	8	56	Feedback	Neutral	True
537.971	2.826	Control	0.6842	n/a	Yes	2.826	n/a	n/a	GoodResponse	0	0.0	n/a	8	56	ISIslide	Neutral	True
540.82	0.25	Control	0.6724	0.0	No	3.48	0.02	n/a	NoResponse	0	n/a	n/a	8	57	Cue	Neutral	True
541.07	4.0	Control	0.6724	0.0	No	3.48	0.0	2.0	NoResponse	0	3.949	544.019	8	57	Fixation	Neutral	True
545.019	0.3	Control	0.6724	0.0	No	3.48	0.0	2.0	NoResponse	0	3.949	n/a	8	57	ButtonPress	Neutral	True
545.069	0.25	Control	0.6724	0.001	No	3.48	-0.001	n/a	NoResponse	0	n/a	n/a	8	57	Target	Neutral	True
545.319	0.45	Control	0.6724	n/a	No	3.48	n/a	n/a	NoResponse	0	n/a	n/a	8	57	Blank	Neutral	True
545.769	1.45	Control	0.6724	n/a	No	3.48	n/a	5.0	NoResponse	0	0.009	544.778	8	57	Feedback	Neutral	True
547.218	3.48	Control	0.6724	n/a	No	3.48	n/a	n/a	NoResponse	0	0.0	n/a	8	57	ISIslide	Neutral	True
550.717	0.25	Win2	0.6609999999999999	0.0	No	2.733	0.017	n/a	NoResponse	0	n/a	n/a	8	58	Cue	MissedWin	True
550.967	4.05	Win2	0.6609999999999999	0.0	No	2.733	0.0	n/a	NoResponse	0	n/a	n/a	8	58	Fixation	MissedWin	True
555.015	0.24	Win2	0.6609999999999999	0.002	No	2.733	-0.002	2.0	NoResponse	0	0.259	554.274	8	58	Target	MissedWin	True
555.265	0.46	Win2	0.6609999999999999	n/a	No	2.733	n/a	n/a	NoResponse	0	n/a	n/a	8	58	Blank	MissedWin	True
555.274	0.3	Win2	0.6609999999999999	0.002	No	2.733	-0.002	2.0	NoResponse	0	0.259	n/a	8	58	ButtonPress	MissedWin	True
555.715	1.45	Win2	0.6609999999999999	n/a	No	2.733	n/a	5.0	NoResponse	0	0.014	554.729	8	58	Feedback	MissedWin	True
557.165	2.733	Win2	0.6609999999999999	n/a	No	2.733	n/a	n/a	NoResponse	0	0.0	n/a	8	58	ISIslide	MissedWin	True
559.914	0.25	Lose2	0.6667000000000001	0.0	Yes	2.686	0.014	n/a	GoodResponse	0	n/a	n/a	8	59	Cue	AvoidedLoss	True
560.164	4.0	Lose2	0.6667000000000001	0.0	Yes	2.686	0.0	n/a	GoodResponse	0	n/a	n/a	8	59	Fixation	AvoidedLoss	True
564.162	0.24	Lose2	0.6667000000000001	0.002	Yes	2.686	-0.002	2.0	GoodResponse	0	0.21	563.372	8	59	Target	AvoidedLoss	True
564.372	0.3	Lose2	0.6667000000000001	0.002	Yes	2.686	-0.002	2.0	GoodResponse	0	0.21	n/a	8	59	ButtonPress	AvoidedLoss	True
564.412	0.46	Lose2	0.6667000000000001	n/a	Yes	2.686	n/a	n/a	GoodResponse	0	n/a	n/a	8	59	Blank	AvoidedLoss	True
564.862	1.45	Lose2	0.6667000000000001	n/a	Yes	2.686	n/a	5.0	GoodResponse	0	0.037	563.899	8	59	Feedback	AvoidedLoss	True
566.311	2.686	Lose2	0.6667000000000001	n/a	Yes	2.686	n/a	n/a	GoodResponse	0	0.0	n/a	8	59	ISIslide	AvoidedLoss	True
569.027	0.25	Control	0.6557	0.0	No	2.673	0.027	n/a	NoResponse	0	n/a	n/a	8	60	Cue	Neutral	True
569.277	4.0	Control	0.6557	0.0	No	2.673	0.0	n/a	NoResponse	0	n/a	n/a	8	60	Fixation	Neutral	True
573.276	0.23	Control	0.6557	0.001	No	2.673	-0.001	2.0	NoResponse	0	0.245	572.521	8	60	Target	Neutral	True
573.509	0.47	Control	0.6557	n/a	No	2.673	n/a	n/a	NoResponse	0	n/a	n/a	8	60	Blank	Neutral	True
573.521	0.3	Control	0.6557	0.001	No	2.673	-0.001	2.0	NoResponse	0	0.245	n/a	8	60	ButtonPress	Neutral	True
573.975	1.45	Control	0.6557	n/a	No	2.673	n/a	5.0	NoResponse	0	0.046	573.021	8	60	Feedback	Neutral	True
575.425	2.673	Control	0.6557	n/a	No	2.673	n/a	n/a	NoResponse	0	0.0	n/a	8	60	ISIslide	Neutral	True
578.124	0.25	Lose2	0.6613	0.0	Yes	2.976	0.024	n/a	GoodResponse	0	n/a	n/a	8	61	Cue	AvoidedLoss	True
578.374	4.0	Lose2	0.6613	0.0	Yes	2.976	0.0	n/a	GoodResponse	0	n/a	n/a	8	61	Fixation	AvoidedLoss	True
582.372	0.23	Lose2	0.6613	0.002	Yes	2.976	-0.002	2.0	GoodResponse	0	0.17	581.542	8	61	Target	AvoidedLoss	True
582.542	0.3	Lose2	0.6613	0.002	Yes	2.976	-0.002	2.0	GoodResponse	0	0.17	n/a	8	61	ButtonPress	AvoidedLoss	True
582.606	0.47	Lose2	0.6613	n/a	Yes	2.976	n/a	n/a	GoodResponse	0	n/a	n/a	8	61	Blank	AvoidedLoss	True
583.072	1.45	Lose2	0.6613	n/a	Yes	2.976	n/a	5.0	GoodResponse	0	0.023	582.095	8	61	Feedback	AvoidedLoss	True
584.522	2.976	Lose2	0.6613	n/a	Yes	2.976	n/a	n/a	GoodResponse	0	0.0	n/a	8	61	ISIslide	AvoidedLoss	True
587.521	0.25	Lose2	0.6667000000000001	0.0	Yes	2.879	0.021	n/a	GoodResponse	0	n/a	n/a	8	62	Cue	AvoidedLoss	True
587.771	3.9	Lose2	0.6667000000000001	0.0	Yes	2.879	0.0	n/a	GoodResponse	0	n/a	n/a	8	62	Fixation	AvoidedLoss	True
591.669	0.23	Lose2	0.6667000000000001	0.002	Yes	2.879	-0.002	2.0	GoodResponse	0	0.207	590.876	8	62	Target	AvoidedLoss	True
591.876	0.3	Lose2	0.6667000000000001	0.002	Yes	2.879	-0.002	2.0	GoodResponse	0	0.207	n/a	8	62	ButtonPress	AvoidedLoss	True
591.903	0.47	Lose2	0.6667000000000001	n/a	Yes	2.879	n/a	n/a	GoodResponse	0	n/a	n/a	8	62	Blank	AvoidedLoss	True
592.369	1.45	Lose2	0.6667000000000001	n/a	Yes	2.879	n/a	5.0	GoodResponse	0	0.043	591.412	8	62	Feedback	AvoidedLoss	True
593.819	2.879	Lose2	0.6667000000000001	n/a	Yes	2.879	n/a	n/a	GoodResponse	0	0.0	n/a	8	62	ISIslide	AvoidedLoss	True
596.717	0.25	Lose2	0.6718999999999999	0.001	Yes	2.633	0.017	n/a	GoodResponse	0	n/a	n/a	8	63	Cue	AvoidedLoss	True
596.967	4.05	Lose2	0.6718999999999999	0.0	Yes	2.633	0.0	n/a	GoodResponse	0	n/a	n/a	8	63	Fixation	AvoidedLoss	True
601.016	0.22	Lose2	0.6718999999999999	0.001	Yes	2.633	-0.001	2.0	GoodResponse	0	0.198	600.214	8	63	Target	AvoidedLoss	True
601.214	0.3	Lose2	0.6718999999999999	0.001	Yes	2.633	-0.001	2.0	GoodResponse	0	0.198	n/a	8	63	ButtonPress	AvoidedLoss	True
601.233	0.48	Lose2	0.6718999999999999	n/a	Yes	2.633	n/a	n/a	GoodResponse	0	n/a	n/a	8	63	Blank	AvoidedLoss	True
601.716	1.45	Lose2	0.6718999999999999	n/a	Yes	2.633	n/a	5.0	GoodResponse	0	0.013	600.729	8	63	Feedback	AvoidedLoss	True
603.165	2.633	Lose2	0.6718999999999999	n/a	Yes	2.633	n/a	n/a	GoodResponse	0	0.0	n/a	8	63	ISIslide	AvoidedLoss	True
605.814	0.25	Win2	0.6769	0.0	Yes	3.136	0.014	n/a	GoodResponse	1	n/a	n/a	9	64	Cue	Win	True
606.064	4.15	Win2	0.6769	0.0	Yes	3.136	0.0	n/a	GoodResponse	1	n/a	n/a	9	64	Fixation	Win	True
610.213	0.21	Win2	0.6769	0.001	Yes	3.136	-0.001	2.0	GoodResponse	1	0.206	609.419	9	64	Target	Win	True
610.419	0.3	Win2	0.6769	0.001	Yes	3.136	-0.001	2.0	GoodResponse	1	0.206	n/a	9	64	ButtonPress	Win	True
610.429	0.49	Win2	0.6769	n/a	Yes	3.136	n/a	n/a	GoodResponse	1	n/a	n/a	9	64	Blank	Win	True
610.913	1.45	Win2	0.6769	n/a	Yes	3.136	n/a	5.0	GoodResponse	1	0.035	609.948	9	64	Feedback	Win	True
612.362	3.136	Win2	0.6769	n/a	Yes	3.136	n/a	n/a	GoodResponse	1	0.0	n/a	9	64	ISIslide	Win	True
615.528	0.25	Control	0.6667000000000001	0.0	No	2.772	0.028	n/a	NoResponse	0	n/a	n/a	9	65	Cue	Neutral	True
615.778	4.0	Control	0.6667000000000001	0.0	No	2.772	0.0	n/a	NoResponse	0	n/a	n/a	9	65	Fixation	Neutral	True
619.776	0.2	Control	0.6667000000000001	0.002	No	2.772	-0.002	2.0	NoResponse	0	0.216	618.992	9	65	Target	Neutral	True
619.976	0.5	Control	0.6667000000000001	n/a	No	2.772	n/a	n/a	NoResponse	0	n/a	n/a	9	65	Blank	Neutral	True
619.992	0.3	Control	0.6667000000000001	0.002	No	2.772	-0.002	2.0	NoResponse	0	0.216	n/a	9	65	ButtonPress	Neutral	True
620.476	1.45	Control	0.6667000000000001	n/a	No	2.772	n/a	5.0	NoResponse	0	0.033	619.509	9	65	Feedback	Neutral	True
621.925	2.772	Control	0.6667000000000001	n/a	No	2.772	n/a	n/a	NoResponse	0	0.0	n/a	9	65	ISIslide	Neutral	True
624.724	0.25	Win2	0.6567000000000001	0.0	No	2.776	0.024	n/a	NoResponse	0	n/a	n/a	9	66	Cue	MissedWin	True
624.974	3.9	Win2	0.6567000000000001	0.0	No	2.776	0.0	n/a	NoResponse	0	n/a	n/a	9	66	Fixation	MissedWin	True
628.873	0.19	Win2	0.6567000000000001	0.001	No	2.776	-0.001	2.0	NoResponse	0	0.224	628.097	9	66	Target	MissedWin	True
629.073	0.51	Win2	0.6567000000000001	n/a	No	2.776	n/a	n/a	NoResponse	0	n/a	n/a	9	66	Blank	MissedWin	True
629.097	0.3	Win2	0.6567000000000001	0.001	No	2.776	-0.001	2.0	NoResponse	0	0.224	n/a	9	66	ButtonPress	MissedWin	True
629.573	1.45	Win2	0.6567000000000001	n/a	No	2.776	n/a	5.0	NoResponse	0	0.009	628.582	9	66	Feedback	MissedWin	True
631.022	2.776	Win2	0.6567000000000001	n/a	No	2.776	n/a	n/a	NoResponse	0	0.0	n/a	9	66	ISIslide	MissedWin	True
633.821	0.25	Control	0.6618	0.0	Yes	2.729	0.021	n/a	GoodResponse	0	n/a	n/a	9	67	Cue	Neutral	True
634.071	3.95	Control	0.6618	0.0	Yes	2.729	0.0	n/a	GoodResponse	0	n/a	n/a	9	67	Fixation	Neutral	True
638.02	0.19	Control	0.6618	0.001	Yes	2.729	-0.001	2.0	GoodResponse	0	0.182	637.202	9	67	Target	Neutral	True
638.202	0.3	Control	0.6618	0.001	Yes	2.729	-0.001	2.0	GoodResponse	0	0.182	n/a	9	67	ButtonPress	Neutral	True
638.22	0.51	Control	0.6618	n/a	Yes	2.729	n/a	n/a	GoodResponse	0	n/a	n/a	9	67	Blank	Neutral	True
638.72	1.45	Control	0.6618	n/a	Yes	2.729	n/a	5.0	GoodResponse	0	0.033	637.753	9	67	Feedback	Neutral	True
640.169	2.729	Control	0.6618	n/a	Yes	2.729	n/a	n/a	GoodResponse	0	0.0	n/a	9	67	ISIslide	Neutral	True
642.918	0.25	Win2	0.6522	0.0	No	3.082	0.018	n/a	NoResponse	0	n/a	n/a	9	68	Cue	MissedWin	True
643.168	4.0	Win2	0.6522	0.0	No	3.082	0.0	n/a	NoResponse	0	n/a	n/a	9	68	Fixation	MissedWin	True
647.167	0.19	Win2	0.6522	0.001	No	3.082	-0.001	2.0	NoResponse	0	0.221	646.388	9	68	Target	MissedWin	True
647.366	0.51	Win2	0.6522	n/a	No	3.082	n/a	n/a	NoResponse	0	n/a	n/a	9	68	Blank	MissedWin	True
647.388	0.3	Win2	0.6522	0.001	No	3.082	-0.001	2.0	NoResponse	0	0.221	n/a	9	68	ButtonPress	MissedWin	True
647.866	1.45	Win2	0.6522	n/a	No	3.082	n/a	5.0	NoResponse	0	0.009	646.875	9	68	Feedback	MissedWin	True
649.316	3.082	Win2	0.6522	n/a	No	3.082	n/a	n/a	NoResponse	0	0.0	n/a	9	68	ISIslide	MissedWin	True
652.415	0.25	Win2	0.6429	0.0	No	3.235	0.015	n/a	NoResponse	0	n/a	n/a	9	69	Cue	MissedWin	True
652.665	3.95	Win2	0.6429	0.0	No	3.235	0.0	2.0	NoResponse	0	3.797	655.462	9	69	Fixation	MissedWin	True
656.462	0.3	Win2	0.6429	0.0	No	3.235	0.0	2.0	NoResponse	0	3.797	n/a	9	69	ButtonPress	MissedWin	True
656.613	0.2	Win2	0.6429	0.002	No	3.235	-0.002	n/a	NoResponse	0	n/a	n/a	9	69	Target	MissedWin	True
656.813	0.5	Win2	0.6429	n/a	No	3.235	n/a	n/a	NoResponse	0	n/a	n/a	9	69	Blank	MissedWin	True
657.313	1.45	Win2	0.6429	n/a	No	3.235	n/a	5.0	NoResponse	0	0.025	656.338	9	69	Feedback	MissedWin	True
658.763	3.235	Win2	0.6429	n/a	No	3.235	n/a	n/a	NoResponse	0	0.0	n/a	9	69	ISIslide	MissedWin	True
662.028	0.25	Lose2	0.6479	0.0	Yes	3.022	0.028	n/a	GoodResponse	0	n/a	n/a	9	70	Cue	AvoidedLoss	True
662.278	4.05	Lose2	0.6479	0.0	Yes	3.022	0.0	n/a	GoodResponse	0	n/a	n/a	9	70	Fixation	AvoidedLoss	True
666.327	0.21	Lose2	0.6479	0.001	Yes	3.022	-0.001	2.0	GoodResponse	0	0.206	665.533	9	70	Target	AvoidedLoss	True
666.533	0.3	Lose2	0.6479	0.001	Yes	3.022	-0.001	2.0	GoodResponse	0	0.206	n/a	9	70	ButtonPress	AvoidedLoss	True
666.543	0.49	Lose2	0.6479	n/a	Yes	3.022	n/a	n/a	GoodResponse	0	n/a	n/a	9	70	Blank	AvoidedLoss	True
667.026	1.45	Lose2	0.6479	n/a	Yes	3.022	n/a	5.0	GoodResponse	0	0.019	666.045	9	70	Feedback	AvoidedLoss	True
668.476	3.022	Lose2	0.6479	n/a	Yes	3.022	n/a	n/a	GoodResponse	0	0.0	n/a	9	70	ISIslide	AvoidedLoss	True
671.525	0.25	Win2	0.6528	0.0	Yes	2.725	0.025	n/a	GoodResponse	1	n/a	n/a	10	71	Cue	Win	False
671.775	4.05	Win2	0.6528	0.0	Yes	2.725	0.0	2.0	GoodResponse	1	3.67	674.445	10	71	Fixation	Win	False
675.445	0.3	Win2	0.6528	0.0	Yes	2.725	0.0	2.0	GoodResponse	1	3.67	n/a	10	71	ButtonPress	Win	False
675.823	0.22	Win2	0.6528	0.002	Yes	2.725	-0.002	2.0	GoodResponse	1	0.2	675.023	10	71	Target	Win	False
676.023	0.3	Win2	0.6528	0.002	Yes	2.725	-0.002	2.0	GoodResponse	1	0.2	n/a	10	71	ButtonPress	Win	False
676.056	0.48	Win2	0.6528	n/a	Yes	2.725	n/a	n/a	GoodResponse	1	n/a	n/a	10	71	Blank	Win	False
676.523	1.45	Win2	0.6528	n/a	Yes	2.725	n/a	5.0	GoodResponse	1	0.034	675.557	10	71	Feedback	Win	False
677.972	2.725	Win2	0.6528	n/a	Yes	2.725	n/a	n/a	GoodResponse	1	0.0	n/a	10	71	ISIslide	Win	False
680.722	0.25	Win2	0.6437999999999999	0.0	No	2.778	0.022	n/a	NoResponse	0	n/a	n/a	10	72	Cue	MissedWin	True
680.971	4.1	Win2	0.6437999999999999	0.001	No	2.778	-0.001	2.0	NoResponse	0	4.086	684.057	10	72	Fixation	MissedWin	True
685.057	0.3	Win2	0.6437999999999999	0.001	No	2.778	-0.001	2.0	NoResponse	0	4.086	n/a	10	72	ButtonPress	MissedWin	True
685.07	0.23	Win2	0.6437999999999999	0.002	No	2.778	-0.002	n/a	NoResponse	0	n/a	n/a	10	72	Target	MissedWin	True
685.303	0.47	Win2	0.6437999999999999	n/a	No	2.778	n/a	n/a	NoResponse	0	n/a	n/a	10	72	Blank	MissedWin	True
685.77	1.45	Win2	0.6437999999999999	n/a	No	2.778	n/a	5.0	NoResponse	0	0.008	684.778	10	72	Feedback	MissedWin	True
687.219	2.778	Win2	0.6437999999999999	n/a	No	2.778	n/a	n/a	NoResponse	0	0.0	n/a	10	72	ISIslide	MissedWin	True
690.018	0.25	Win2	0.6486	0.0	Yes	2.682	0.018	n/a	GoodResponse	1	n/a	n/a	11	73	Cue	Win	True
690.268	4.0	Win2	0.6486	0.0	Yes	2.682	0.0	n/a	GoodResponse	1	n/a	n/a	11	73	Fixation	Win	True
694.267	0.24	Win2	0.6486	0.001	Yes	2.682	-0.001	2.0	GoodResponse	1	0.21	693.477	11	73	Target	Win	True
694.477	0.3	Win2	0.6486	0.001	Yes	2.682	-0.001	2.0	GoodResponse	1	0.21	n/a	11	73	ButtonPress	Win	True
694.517	0.46	Win2	0.6486	n/a	Yes	2.682	n/a	n/a	GoodResponse	1	n/a	n/a	11	73	Blank	Win	True
694.967	1.45	Win2	0.6486	n/a	Yes	2.682	n/a	5.0	GoodResponse	1	0.03	693.997	11	73	Feedback	Win	True
696.416	2.682	Win2	0.6486	n/a	Yes	2.682	n/a	n/a	GoodResponse	1	0.0	n/a	11	73	ISIslide	Win	True
699.115	0.25	Lose2	0.6533	0.0	Yes	2.635	0.015	n/a	GoodResponse	0	n/a	n/a	11	74	Cue	AvoidedLoss	True
699.365	4.05	Lose2	0.6533	0.0	Yes	2.635	0.0	n/a	GoodResponse	0	n/a	n/a	11	74	Fixation	AvoidedLoss	True
703.414	0.25	Lose2	0.6533	0.001	Yes	2.635	-0.001	2.0	GoodResponse	0	0.21	702.624	11	74	Target	AvoidedLoss	True
703.624	0.3	Lose2	0.6533	0.001	Yes	2.635	-0.001	2.0	GoodResponse	0	0.21	n/a	11	74	ButtonPress	AvoidedLoss	True
703.664	0.45	Lose2	0.6533	n/a	Yes	2.635	n/a	n/a	GoodResponse	0	n/a	n/a	11	74	Blank	AvoidedLoss	True
704.113	1.45	Lose2	0.6533	n/a	Yes	2.635	n/a	5.0	GoodResponse	0	0.008	703.121	11	74	Feedback	AvoidedLoss	True
705.563	2.635	Lose2	0.6533	n/a	Yes	2.635	n/a	n/a	GoodResponse	0	0.0	n/a	11	74	ISIslide	AvoidedLoss	True
708.229	0.25	Lose2	0.6579	0.0	Yes	2.921	0.029	n/a	GoodResponse	0	n/a	n/a	11	75	Cue	AvoidedLoss	True
708.478	3.95	Lose2	0.6579	0.001	Yes	2.921	-0.001	n/a	GoodResponse	0	n/a	n/a	11	75	Fixation	AvoidedLoss	True
712.427	0.26	Lose2	0.6579	0.002	Yes	2.921	-0.002	2.0	GoodResponse	0	0.163	711.59	11	75	Target	AvoidedLoss	True
712.59	0.3	Lose2	0.6579	0.002	Yes	2.921	-0.002	2.0	GoodResponse	0	0.163	n/a	11	75	ButtonPress	AvoidedLoss	True
712.694	0.44	Lose2	0.6579	n/a	Yes	2.921	n/a	n/a	GoodResponse	0	n/a	n/a	11	75	Blank	AvoidedLoss	True
713.127	1.45	Lose2	0.6579	n/a	Yes	2.921	n/a	5.0	GoodResponse	0	0.015	712.142	11	75	Feedback	AvoidedLoss	True
714.576	2.921	Lose2	0.6579	n/a	Yes	2.921	n/a	n/a	GoodResponse	0	0.0	n/a	11	75	ISIslide	AvoidedLoss	True
717.525	0.25	Control	0.6623	0.0	Yes	3.225	0.025	n/a	GoodResponse	0	n/a	n/a	11	76	Cue	Neutral	True
717.775	4.05	Control	0.6623	0.0	Yes	3.225	0.0	n/a	GoodResponse	0	n/a	n/a	11	76	Fixation	Neutral	True
721.824	0.26	Control	0.6623	0.001	Yes	3.225	-0.001	2.0	GoodResponse	0	0.22	721.044	11	76	Target	Neutral	True
722.044	0.3	Control	0.6623	0.001	Yes	3.225	-0.001	2.0	GoodResponse	0	0.22	n/a	11	76	ButtonPress	Neutral	True
722.09	0.44	Control	0.6623	n/a	Yes	3.225	n/a	n/a	GoodResponse	0	n/a	n/a	11	76	Blank	Neutral	True
722.524	1.45	Control	0.6623	n/a	Yes	3.225	n/a	5.0	GoodResponse	0	0.033	721.557	11	76	Feedback	Neutral	True
723.973	3.225	Control	0.6623	n/a	Yes	3.225	n/a	n/a	GoodResponse	0	0.0	n/a	11	76	ISIslide	Neutral	True
727.222	0.25	Lose2	0.6667000000000001	0.0	Yes	2.578	0.022	n/a	GoodResponse	0	n/a	n/a	11	77	Cue	AvoidedLoss	True
727.472	3.95	Lose2	0.6667000000000001	0.0	Yes	2.578	0.0	n/a	GoodResponse	0	n/a	n/a	11	77	Fixation	AvoidedLoss	True
731.42	0.26	Lose2	0.6667000000000001	0.002	Yes	2.578	-0.002	2.0	GoodResponse	0	0.147	730.567	11	77	Target	AvoidedLoss	True
731.567	0.3	Lose2	0.6667000000000001	0.002	Yes	2.578	-0.002	2.0	GoodResponse	0	0.147	n/a	11	77	ButtonPress	AvoidedLoss	True
731.687	0.44	Lose2	0.6667000000000001	n/a	Yes	2.578	n/a	n/a	GoodResponse	0	n/a	n/a	11	77	Blank	AvoidedLoss	True
732.12	1.45	Lose2	0.6667000000000001	n/a	Yes	2.578	n/a	5.0	GoodResponse	0	0.047	731.167	11	77	Feedback	AvoidedLoss	True
733.57	2.578	Lose2	0.6667000000000001	n/a	Yes	2.578	n/a	n/a	GoodResponse	0	0.0	n/a	11	77	ISIslide	AvoidedLoss	True
