onset	duration	cue_type	current_mean_accuracy	duration_error	is_hit	isi_adjusted	onset_delay	response	response_type	reward	rt	rt_time	total_reward	trial_number	trial_phase	trial_type	one_press
11.096	0.25	Control	1.0	0.0	Yes	2.954	-0.004	n/a	GoodResponse	0	n/a	n/a	0	0	Cue	Neutral	True
11.347	3.85	Control	1.0	0.0	Yes	2.954	0.001	n/a	GoodResponse	0	n/a	n/a	0	0	Fixation	Neutral	True
15.192	0.4	Control	1.0	0.004	Yes	2.954	-0.004	2.0	GoodResponse	0	0.253	14.445	0	0	Target	Neutral	True
15.445	0.3	Control	1.0	0.004	Yes	2.954	-0.004	2.0	GoodResponse	0	0.253	n/a	0	0	ButtonPress	Neutral	True
15.593	0.3	Control	1.0	n/a	Yes	2.954	n/a	n/a	GoodResponse	0	n/a	n/a	0	0	Blank	Neutral	True
15.894	1.45	Control	1.0	n/a	Yes	2.954	n/a	5.0	GoodResponse	0	0.035	14.929	0	0	Feedback	Neutral	True
17.348	2.954	Control	1.0	n/a	Yes	2.954	n/a	n/a	GoodResponse	0	0.0	n/a	0	0	ISIslide	Neutral	True
20.324	0.25	Lose2	1.0	0.0	Yes	2.776	0.024	n/a	GoodResponse	0	n/a	n/a	0	1	Cue	AvoidedLoss	True
20.575	4.0	Lose2	1.0	0.0	Yes	2.776	0.001	n/a	GoodResponse	0	n/a	n/a	0	1	Fixation	AvoidedLoss	True
24.57	0.39	Lose2	1.0	0.004	Yes	2.776	-0.004	2.0	GoodResponse	0	0.225	23.795	0	1	Target	AvoidedLoss	True
24.795	0.3	Lose2	1.0	0.004	Yes	2.776	-0.004	2.0	GoodResponse	0	0.225	n/a	0	1	ButtonPress	AvoidedLoss	True
24.971	0.31	Lose2	1.0	n/a	Yes	2.776	n/a	n/a	GoodResponse	0	n/a	n/a	0	1	Blank	AvoidedLoss	True
25.272	1.45	Lose2	1.0	n/a	Yes	2.776	n/a	5.0	GoodResponse	0	0.023	24.295	0	1	Feedback	AvoidedLoss	True
26.726	2.776	Lose2	1.0	n/a	Yes	2.776	n/a	n/a	GoodResponse	0	0.0	n/a	0	1	ISIslide	AvoidedLoss	True
29.518	0.25	Control	1.0	0.0	Yes	2.582	0.018	n/a	GoodResponse	0	n/a	n/a	0	2	Cue	Neutral	True
29.769	4.1	Control	1.0	0.0	Yes	2.582	0.001	n/a	GoodResponse	0	n/a	n/a	0	2	Fixation	Neutral	True
33.864	0.38	Control	1.0	0.004	Yes	2.582	-0.004	2.0	GoodResponse	0	0.252	33.116	0	2	Target	Neutral	True
34.116	0.3	Control	1.0	0.004	Yes	2.582	-0.004	2.0	GoodResponse	0	0.252	n/a	0	2	ButtonPress	Neutral	True
34.249	0.32	Control	1.0	n/a	Yes	2.582	n/a	n/a	GoodResponse	0	n/a	n/a	0	2	Blank	Neutral	True
34.566	1.45	Control	1.0	n/a	Yes	2.582	n/a	5.0	GoodResponse	0	0.045	33.611	0	2	Feedback	Neutral	True
36.021	2.582	Control	1.0	n/a	Yes	2.582	n/a	n/a	GoodResponse	0	0.0	n/a	0	2	ISIslide	Neutral	True
38.628	0.25	Win2	1.0	0.001	Yes	2.822	0.028	n/a	GoodResponse	1	n/a	n/a	1	3	Cue	Win	True
38.879	3.95	Win2	1.0	0.0	Yes	2.822	0.001	n/a	GoodResponse	1	n/a	n/a	1	3	Fixation	Win	True
42.824	0.37	Win2	1.0	0.004	Yes	2.822	-0.004	2.0	GoodResponse	1	0.235	42.059	1	3	Target	Win	True
43.059	0.3	Win2	1.0	0.004	Yes	2.822	-0.004	2.0	GoodResponse	1	0.235	n/a	1	3	ButtonPress	Win	True
43.209	0.33	Win2	1.0	n/a	Yes	2.822	n/a	n/a	GoodResponse	1	n/a	n/a	1	3	Blank	Win	True
43.526	1.45	Win2	1.0	n/a	Yes	2.822	n/a	5.0	GoodResponse	1	0.012	42.538	1	3	Feedback	Win	True
44.981	2.822	Win2	1.0	n/a	Yes	2.822	n/a	n/a	GoodResponse	1	0.0	n/a	1	3	ISIslide	Win	True
47.823	0.25	Win2	1.0	0.0	Yes	3.277	0.023	n/a	GoodResponse	1	n/a	n/a	2	4	Cue	Win	True
48.073	4.0	Win2	1.0	0.0	Yes	3.277	0.0	n/a	GoodResponse	1	n/a	n/a	2	4	Fixation	Win	True
52.069	0.36	Win2	1.0	0.004	Yes	3.277	-0.004	2.0	GoodResponse	1	0.228	51.297	2	4	Target	Win	True
52.297	0.3	Win2	1.0	0.004	Yes	3.277	-0.004	2.0	GoodResponse	1	0.228	n/a	2	4	ButtonPress	Win	True
52.436	0.34	Win2	1.0	n/a	Yes	3.277	n/a	n/a	GoodResponse	1	n/a	n/a	2	4	Blank	Win	True
52.771	1.45	Win2	1.0	n/a	Yes	3.277	n/a	5.0	GoodResponse	1	0.036	51.807	2	4	Feedback	Win	True
54.225	3.277	Win2	1.0	n/a	Yes	3.277	n/a	n/a	GoodResponse	1	0.0	n/a	2	4	ISIslide	Win	True
57.518	0.25	Win2	1.0	0.0	Yes	2.782	0.018	n/a	GoodResponse	1	n/a	n/a	3	5	Cue	Win	True
57.769	4.0	Win2	1.0	0.0	Yes	2.782	0.001	n/a	GoodResponse	1	n/a	n/a	3	5	Fixation	Win	True
61.764	0.35	Win2	1.0	0.004	Yes	2.782	-0.004	2.0	GoodResponse	1	0.235	60.999	3	5	Target	Win	True
61.999	0.3	Win2	1.0	0.004	Yes	2.782	-0.004	2.0	GoodResponse	1	0.235	n/a	3	5	ButtonPress	Win	True
62.115	0.35	Win2	1.0	n/a	Yes	2.782	n/a	n/a	GoodResponse	1	n/a	n/a	3	5	Blank	Win	True
62.466	1.45	Win2	1.0	n/a	Yes	2.782	n/a	5.0	GoodResponse	1	0.048	61.514	3	5	Feedback	Win	True
63.921	2.782	Win2	1.0	n/a	Yes	2.782	n/a	n/a	GoodResponse	1	0.0	n/a	3	5	ISIslide	Win	True
66.729	0.25	Lose2	1.0	0.0	Yes	2.721	0.029	n/a	GoodResponse	0	n/a	n/a	3	6	Cue	AvoidedLoss	True
66.98	3.95	Lose2	1.0	0.0	Yes	2.721	0.001	n/a	GoodResponse	0	n/a	n/a	3	6	Fixation	AvoidedLoss	True
70.925	0.34	Lose2	1.0	0.004	Yes	2.721	-0.004	2.0	GoodResponse	0	0.305	70.23	3	6	Target	AvoidedLoss	True
71.23	0.3	Lose2	1.0	0.004	Yes	2.721	-0.004	2.0	GoodResponse	0	0.305	n/a	3	6	ButtonPress	AvoidedLoss	True
71.276	0.36	Lose2	1.0	n/a	Yes	2.721	n/a	n/a	GoodResponse	0	n/a	n/a	3	6	Blank	AvoidedLoss	True
71.627	1.45	Lose2	1.0	n/a	Yes	2.721	n/a	5.0	GoodResponse	0	0.008	70.635	3	6	Feedback	AvoidedLoss	True
73.081	2.721	Lose2	1.0	n/a	Yes	2.721	n/a	n/a	GoodResponse	0	0.0	n/a	3	6	ISIslide	AvoidedLoss	True
75.823	0.25	Lose2	1.0	0.0	Yes	4.027	0.023	n/a	GoodResponse	0	n/a	n/a	3	7	Cue	AvoidedLoss	True
76.074	4.05	Lose2	1.0	0.0	Yes	4.027	0.001	n/a	GoodResponse	0	n/a	n/a	3	7	Fixation	AvoidedLoss	True
80.119	0.33	Lose2	1.0	0.004	Yes	4.027	-0.004	2.0	GoodResponse	0	0.236	79.355	3	7	Target	AvoidedLoss	True
80.355	0.3	Lose2	1.0	0.004	Yes	4.027	-0.004	2.0	GoodResponse	0	0.236	n/a	3	7	ButtonPress	AvoidedLoss	True
80.453	0.37	Lose2	1.0	n/a	Yes	4.027	n/a	n/a	GoodResponse	0	n/a	n/a	3	7	Blank	AvoidedLoss	True
80.821	1.45	Lose2	1.0	n/a	Yes	4.027	n/a	5.0	GoodResponse	0	0.034	79.855	3	7	Feedback	AvoidedLoss	True
82.275	4.027	Lose2	1.0	n/a	Yes	4.027	n/a	n/a	GoodResponse	0	0.0	n/a	3	7	ISIslide	AvoidedLoss	True
86.321	0.25	Lose2	1.0	0.0	Yes	3.029	0.021	n/a	GoodResponse	0	n/a	n/a	3	8	Cue	AvoidedLoss	True
86.572	3.95	Lose2	1.0	0.0	Yes	3.029	0.001	n/a	GoodResponse	0	n/a	n/a	3	8	Fixation	AvoidedLoss	True
90.517	0.32	Lose2	1.0	0.004	Yes	3.029	-0.004	2.0	GoodResponse	0	0.23	89.747	3	8	Target	AvoidedLoss	True
90.747	0.3	Lose2	1.0	0.004	Yes	3.029	-0.004	2.0	GoodResponse	0	0.23	n/a	3	8	ButtonPress	AvoidedLoss	True
90.851	0.38	Lose2	1.0	n/a	Yes	3.029	n/a	n/a	GoodResponse	0	n/a	n/a	3	8	Blank	AvoidedLoss	True
91.219	1.45	Lose2	1.0	n/a	Yes	3.029	n/a	5.0	GoodResponse	0	0.026	90.245	3	8	Feedback	AvoidedLoss	True
92.673	3.029	Lose2	1.0	n/a	Yes	3.029	n/a	n/a	GoodResponse	0	0.0	n/a	3	8	ISIslide	AvoidedLoss	True
95.716	0.25	Lose2	1.0	0.0	Yes	3.134	0.016	n/a	GoodResponse	0	n/a	n/a	3	9	Cue	AvoidedLoss	True
95.966	3.95	Lose2	1.0	0.0	Yes	3.134	0.0	n/a	GoodResponse	0	n/a	n/a	3	9	Fixation	AvoidedLoss	True
99.911	0.31	Lose2	1.0	0.005	Yes	3.134	-0.005	2.0	GoodResponse	0	0.26	99.171	3	9	Target	AvoidedLoss	True
100.171	0.3	Lose2	1.0	0.005	Yes	3.134	-0.005	2.0	GoodResponse	0	0.26	n/a	3	9	ButtonPress	AvoidedLoss	True
100.229	0.39	Lose2	1.0	n/a	Yes	3.134	n/a	n/a	GoodResponse	0	n/a	n/a	3	9	Blank	AvoidedLoss	True
100.614	1.45	Lose2	1.0	n/a	Yes	3.134	n/a	5.0	GoodResponse	0	0.046	99.66	3	9	Feedback	AvoidedLoss	True
102.068	3.134	Lose2	1.0	n/a	Yes	3.134	n/a	n/a	GoodResponse	0	0.0	n/a	3	9	ISIslide	AvoidedLoss	True
105.227	0.25	Control	1.0	0.0	Yes	3.273	0.027	n/a	GoodResponse	0	n/a	n/a	3	10	Cue	Neutral	True
105.478	4.0	Control	1.0	0.0	Yes	3.273	0.001	n/a	GoodResponse	0	n/a	n/a	3	10	Fixation	Neutral	True
109.473	0.3	Control	1.0	0.004	Yes	3.273	-0.004	2.0	GoodResponse	0	0.284	108.757	3	10	Target	Neutral	True
109.757	0.3	Control	1.0	0.004	Yes	3.273	-0.004	2.0	GoodResponse	0	0.284	n/a	3	10	ButtonPress	Neutral	True
109.774	0.4	Control	1.0	n/a	Yes	3.273	n/a	n/a	GoodResponse	0	n/a	n/a	3	10	Blank	Neutral	True
110.175	1.45	Control	1.0	n/a	Yes	3.273	n/a	5.0	GoodResponse	0	0.045	109.22	3	10	Feedback	Neutral	True
111.63	3.273	Control	1.0	n/a	Yes	3.273	n/a	n/a	GoodResponse	0	0.0	n/a	3	10	ISIslide	Neutral	True
114.923	0.25	Lose2	1.0	0.0	Yes	2.727	0.023	n/a	GoodResponse	0	n/a	n/a	3	11	Cue	AvoidedLoss	True
115.174	4.05	Lose2	1.0	0.0	Yes	2.727	0.001	n/a	GoodResponse	0	n/a	n/a	3	11	Fixation	AvoidedLoss	True
119.219	0.29	Lose2	1.0	0.004	Yes	2.727	-0.004	2.0	GoodResponse	0	0.251	118.47	3	11	Target	AvoidedLoss	True
119.47	0.3	Lose2	1.0	0.004	Yes	2.727	-0.004	2.0	GoodResponse	0	0.251	n/a	3	11	ButtonPress	AvoidedLoss	True
119.52	0.41	Lose2	1.0	n/a	Yes	2.727	n/a	n/a	GoodResponse	0	n/a	n/a	3	11	Blank	AvoidedLoss	True
119.921	1.45	Lose2	1.0	n/a	Yes	2.727	n/a	5.0	GoodResponse	0	0.007	118.928	3	11	Feedback	AvoidedLoss	True
121.376	2.727	Lose2	1.0	n/a	Yes	2.727	n/a	n/a	GoodResponse	0	0.0	n/a	3	11	ISIslide	AvoidedLoss	True
124.117	0.25	Control	1.0	0.0	Yes	2.983	0.017	n/a	GoodResponse	0	n/a	n/a	3	12	Cue	Neutral	True
124.368	3.9	Control	1.0	0.0	Yes	2.983	0.001	n/a	GoodResponse	0	n/a	n/a	3	12	Fixation	Neutral	True
128.263	0.28	Control	1.0	0.004	Yes	2.983	-0.004	2.0	GoodResponse	0	0.228	127.491	3	12	Target	Neutral	True
128.491	0.3	Control	1.0	0.004	Yes	2.983	-0.004	2.0	GoodResponse	0	0.228	n/a	3	12	ButtonPress	Neutral	True
128.547	0.42	Control	1.0	n/a	Yes	2.983	n/a	n/a	GoodResponse	0	n/a	n/a	3	12	Blank	Neutral	True
128.965	1.45	Control	1.0	n/a	Yes	2.983	n/a	5.0	GoodResponse	0	0.036	128.001	3	12	Feedback	Neutral	True
130.419	2.983	Control	1.0	n/a	Yes	2.983	n/a	n/a	GoodResponse	0	0.0	n/a	3	12	ISIslide	Neutral	True
133.428	0.25	Control	1.0	0.0	Yes	2.772	0.028	n/a	GoodResponse	0	n/a	n/a	3	13	Cue	Neutral	True
133.679	4.0	Control	1.0	0.0	Yes	2.772	0.001	n/a	GoodResponse	0	n/a	n/a	3	13	Fixation	Neutral	True
137.674	0.27	Control	1.0	0.004	Yes	2.772	-0.004	2.0	GoodResponse	0	0.261	136.935	3	13	Target	Neutral	True
137.935	0.3	Control	1.0	0.004	Yes	2.772	-0.004	2.0	GoodResponse	0	0.261	n/a	3	13	ButtonPress	Neutral	True
137.958	0.43	Control	1.0	n/a	Yes	2.772	n/a	n/a	GoodResponse	0	n/a	n/a	3	13	Blank	Neutral	True
138.376	1.45	Control	1.0	n/a	Yes	2.772	n/a	5.0	GoodResponse	0	0.039	137.415	3	13	Feedback	Neutral	True
139.831	2.772	Control	1.0	n/a	Yes	2.772	n/a	n/a	GoodResponse	0	0.0	n/a	3	13	ISIslide	Neutral	True
142.622	0.25	Win2	0.9333	0.0	No	2.678	0.022	n/a	LatePress	0	n/a	n/a	3	14	Cue	MissedWin	True
142.873	4.1	Win2	0.9333	0.0	No	2.678	0.001	n/a	LatePress	0	n/a	n/a	3	14	Fixation	MissedWin	True
146.969	0.26	Win2	0.9333	0.003	No	2.678	-0.003	2.0	LatePress	0	0.262	146.231	3	14	Target	MissedWin	True
147.231	0.3	Win2	0.9333	0.003	No	2.678	-0.003	2.0	LatePress	0	0.262	n/a	3	14	ButtonPress	MissedWin	True
147.236	0.44	Win2	0.9333	n/a	No	2.678	n/a	n/a	LatePress	0	n/a	n/a	3	14	Blank	MissedWin	True
147.671	1.45	Win2	0.9333	n/a	No	2.678	n/a	5.0	LatePress	0	0.012	146.683	3	14	Feedback	MissedWin	True
149.125	2.678	Win2	0.9333	n/a	No	2.678	n/a	n/a	LatePress	0	0.0	n/a	3	14	ISIslide	MissedWin	True
151.816	0.25	Control	0.9375	0.001	Yes	2.984	0.016	n/a	GoodResponse	0	n/a	n/a	3	15	Cue	Neutral	True
152.067	4.0	Control	0.9375	0.0	Yes	2.984	0.001	n/a	GoodResponse	0	n/a	n/a	3	15	Fixation	Neutral	True
156.062	0.25	Control	0.9375	0.004	Yes	2.984	-0.004	2.0	GoodResponse	0	0.211	155.273	3	15	Target	Neutral	True
156.273	0.3	Control	0.9375	0.004	Yes	2.984	-0.004	2.0	GoodResponse	0	0.211	n/a	3	15	ButtonPress	Neutral	True
156.313	0.45	Control	0.9375	n/a	Yes	2.984	n/a	n/a	GoodResponse	0	n/a	n/a	3	15	Blank	Neutral	True
156.765	1.45	Control	0.9375	n/a	Yes	2.984	n/a	5.0	GoodResponse	0	0.04	155.805	3	15	Feedback	Neutral	True
158.219	2.984	Control	0.9375	n/a	Yes	2.984	n/a	n/a	GoodResponse	0	0.0	n/a	3	15	ISIslide	Neutral	True
161.228	0.25	Win2	0.8824	0.0	No	2.872	0.028	n/a	NoResponse	0	n/a	n/a	3	16	Cue	MissedWin	True
161.479	4.0	Win2	0.8824	0.0	No	2.872	0.001	n/a	NoResponse	0	n/a	n/a	3	16	Fixation	MissedWin	True
165.474	0.24	Win2	0.8824	0.004	No	2.872	-0.004	2.0	NoResponse	0	0.38	164.854	3	16	Target	MissedWin	True
165.725	0.46	Win2	0.8824	n/a	No	2.872	n/a	n/a	NoResponse	0	n/a	n/a	3	16	Blank	MissedWin	True
165.854	0.3	Win2	0.8824	0.004	No	2.872	-0.004	2.0	NoResponse	0	0.38	n/a	3	16	ButtonPress	MissedWin	True
166.176	1.45	Win2	0.8824	n/a	No	2.872	n/a	5.0	NoResponse	0	0.044	165.22	3	16	Feedback	MissedWin	True
167.63	2.872	Win2	0.8824	n/a	No	2.872	n/a	n/a	NoResponse	0	0.0	n/a	3	16	ISIslide	MissedWin	True
170.522	0.25	Lose2	0.8889	0.0	Yes	2.728	0.022	n/a	GoodResponse	0	n/a	n/a	3	17	Cue	AvoidedLoss	True
170.773	3.95	Lose2	0.8889	0.0	Yes	2.728	0.001	n/a	GoodResponse	0	n/a	n/a	3	17	Fixation	AvoidedLoss	True
174.718	0.23	Lose2	0.8889	0.004	Yes	2.728	-0.004	2.0	GoodResponse	0	0.202	173.92	3	17	Target	AvoidedLoss	True
174.92	0.3	Lose2	0.8889	0.004	Yes	2.728	-0.004	2.0	GoodResponse	0	0.202	n/a	3	17	ButtonPress	AvoidedLoss	True
174.952	0.47	Lose2	0.8889	n/a	Yes	2.728	n/a	n/a	GoodResponse	0	n/a	n/a	3	17	Blank	AvoidedLoss	True
175.42	1.45	Lose2	0.8889	n/a	Yes	2.728	n/a	5.0	GoodResponse	0	0.019	174.439	3	17	Feedback	AvoidedLoss	True
176.875	2.728	Lose2	0.8889	n/a	Yes	2.728	n/a	n/a	GoodResponse	0	0.0	n/a	3	17	ISIslide	AvoidedLoss	True
179.616	0.25	Lose2	0.8421	0.0	No	2.734	0.016	n/a	LatePress	-1	n/a	n/a	2	18	Cue	Loss	True
179.867	4.05	Lose2	0.8421	0.0	No	2.734	0.001	n/a	LatePress	-1	n/a	n/a	2	18	Fixation	Loss	True
183.912	0.22	Lose2	0.8421	0.004	No	2.734	-0.004	2.0	LatePress	-1	0.224	183.136	2	18	Target	Loss	True
184.136	0.3	Lose2	0.8421	0.004	No	2.734	-0.004	2.0	LatePress	-1	0.224	n/a	2	18	ButtonPress	Loss	True
184.146	0.48	Lose2	0.8421	n/a	No	2.734	n/a	n/a	LatePress	-1	n/a	n/a	2	18	Blank	Loss	True
184.614	1.45	Lose2	0.8421	n/a	No	2.734	n/a	5.0	LatePress	-1	0.044	183.658	2	18	Feedback	Loss	True
186.069	2.734	Lose2	0.8421	n/a	No	2.734	n/a	n/a	LatePress	-1	0.0	n/a	2	18	ISIslide	Loss	True
188.827	0.25	Control	0.8	0.0	No	2.923	0.027	n/a	NoResponse	0	n/a	n/a	2	19	Cue	Neutral	True
189.078	3.95	Control	0.8	0.0	No	2.923	0.001	n/a	NoResponse	0	n/a	n/a	2	19	Fixation	Neutral	True
193.023	0.21	Control	0.8	0.004	No	2.923	-0.004	2.0	NoResponse	0	0.356	192.379	2	19	Target	Neutral	True
193.24	0.49	Control	0.8	n/a	No	2.923	n/a	n/a	NoResponse	0	n/a	n/a	2	19	Blank	Neutral	True
193.379	0.3	Control	0.8	0.004	No	2.923	-0.004	2.0	NoResponse	0	0.356	n/a	2	19	ButtonPress	Neutral	True
193.725	1.45	Control	0.8	n/a	No	2.923	n/a	5.0	NoResponse	0	0.007	192.732	2	19	Feedback	Neutral	True
195.179	2.923	Control	0.8	n/a	No	2.923	n/a	n/a	NoResponse	0	0.0	n/a	2	19	ISIslide	Neutral	True
198.121	0.25	Control	0.7619	0.001	No	2.629	0.021	n/a	NoResponse	0	n/a	n/a	2	20	Cue	Neutral	True
198.372	4.05	Control	0.7619	0.0	No	2.629	0.001	n/a	NoResponse	0	n/a	n/a	2	20	Fixation	Neutral	True
202.418	0.2	Control	0.7619	0.003	No	2.629	-0.003	2.0	NoResponse	0	0.216	201.634	2	20	Target	Neutral	True
202.618	0.5	Control	0.7619	n/a	No	2.629	n/a	n/a	NoResponse	0	n/a	n/a	2	20	Blank	Neutral	True
202.634	0.3	Control	0.7619	0.003	No	2.629	-0.003	2.0	NoResponse	0	0.216	n/a	2	20	ButtonPress	Neutral	True
203.12	1.45	Control	0.7619	n/a	No	2.629	n/a	5.0	NoResponse	0	0.026	202.146	2	20	Feedback	Neutral	True
204.574	2.629	Control	0.7619	n/a	No	2.629	n/a	n/a	NoResponse	0	0.0	n/a	2	20	ISIslide	Neutral	True
207.215	0.25	Control	0.7273000000000001	0.0	No	2.785	0.015	n/a	NoResponse	0	n/a	n/a	2	21	Cue	Neutral	True
207.466	4.1	Control	0.7273000000000001	0.0	No	2.785	0.001	n/a	NoResponse	0	n/a	n/a	2	21	Fixation	Neutral	True
211.562	0.19	Control	0.7273000000000001	0.003	No	2.785	-0.003	2.0	NoResponse	0	0.234	210.796	2	21	Target	Neutral	True
211.762	0.51	Control	0.7273000000000001	n/a	No	2.785	n/a	n/a	NoResponse	0	n/a	n/a	2	21	Blank	Neutral	True
211.796	0.3	Control	0.7273000000000001	0.003	No	2.785	-0.003	2.0	NoResponse	0	0.234	n/a	2	21	ButtonPress	Neutral	True
212.264	1.45	Control	0.7273000000000001	n/a	No	2.785	n/a	5.0	NoResponse	0	0.006	211.27	2	21	Feedback	Neutral	True
213.718	2.785	Control	0.7273000000000001	n/a	No	2.785	n/a	n/a	NoResponse	0	0.0	n/a	2	21	ISIslide	Neutral	True
216.526	0.25	Control	0.6957	0.0	No	2.774	0.026	n/a	NoResponse	0	n/a	n/a	2	22	Cue	Neutral	True
216.777	4.0	Control	0.6957	0.0	No	2.774	0.001	n/a	NoResponse	0	n/a	n/a	2	22	Fixation	Neutral	True
220.772	0.18	Control	0.6957	0.004	No	2.774	-0.004	2.0	NoResponse	0	0.232	220.004	2	22	Target	Neutral	True
220.956	0.52	Control	0.6957	n/a	No	2.774	n/a	n/a	NoResponse	0	n/a	n/a	2	22	Blank	Neutral	True
221.004	0.3	Control	0.6957	0.004	No	2.774	-0.004	2.0	NoResponse	0	0.232	n/a	2	22	ButtonPress	Neutral	True
221.475	1.45	Control	0.6957	n/a	No	2.774	n/a	5.0	NoResponse	0	0.012	220.487	2	22	Feedback	Neutral	True
222.929	2.774	Control	0.6957	n/a	No	2.774	n/a	n/a	NoResponse	0	0.0	n/a	2	22	ISIslide	Neutral	True
225.721	0.25	Control	0.6667000000000001	0.0	No	2.779	0.021	n/a	NoResponse	0	n/a	n/a	2	23	Cue	Neutral	True
225.971	3.9	Control	0.6667000000000001	0.0	No	2.779	0.0	n/a	NoResponse	0	n/a	n/a	2	23	Fixation	Neutral	True
229.883	0.17	Control	0.6667000000000001	0.0	No	2.779	0.012	2.0	NoResponse	0	0.206	229.089	2	23	Target	Neutral	True
230.05	0.53	Control	0.6667000000000001	n/a	No	2.779	n/a	n/a	NoResponse	0	n/a	n/a	2	23	Blank	Neutral	True
230.089	0.3	Control	0.6667000000000001	0.0	No	2.779	0.012	2.0	NoResponse	0	0.206	n/a	2	23	ButtonPress	Neutral	True
230.568	1.45	Control	0.6667000000000001	n/a	No	2.779	n/a	5.0	NoResponse	0	0.041	229.609	2	23	Feedback	Neutral	True
232.023	2.779	Control	0.6667000000000001	n/a	No	2.779	n/a	n/a	NoResponse	0	0.0	n/a	2	23	ISIslide	Neutral	True
234.831	0.25	Win2	0.64	0.0	No	3.119	0.031	n/a	NoResponse	0	n/a	n/a	2	24	Cue	MissedWin	True
235.082	3.95	Win2	0.64	0.0	No	3.119	0.001	n/a	NoResponse	0	n/a	n/a	2	24	Fixation	MissedWin	True
239.027	0.16	Win2	0.64	0.004	No	3.119	-0.004	2.0	NoResponse	0	0.206	238.233	2	24	Target	MissedWin	True
239.194	0.54	Win2	0.64	n/a	No	3.119	n/a	n/a	NoResponse	0	n/a	n/a	2	24	Blank	MissedWin	True
239.233	0.3	Win2	0.64	0.004	No	3.119	-0.004	2.0	NoResponse	0	0.206	n/a	2	24	ButtonPress	MissedWin	True
239.729	1.45	Win2	0.64	n/a	No	3.119	n/a	5.0	NoResponse	0	0.002	238.731	2	24	Feedback	MissedWin	True
241.183	3.119	Win2	0.64	n/a	No	3.119	n/a	n/a	NoResponse	0	0.0	n/a	2	24	ISIslide	MissedWin	True
244.326	0.25	Win2	0.6154	0.0	No	3.074	0.026	n/a	NoResponse	0	n/a	n/a	2	25	Cue	MissedWin	True
244.577	4.0	Win2	0.6154	0.0	No	3.074	0.001	n/a	NoResponse	0	n/a	n/a	2	25	Fixation	MissedWin	True
248.572	0.17	Win2	0.6154	0.004	No	3.074	-0.004	2.0	NoResponse	0	0.192	247.764	2	25	Target	MissedWin	True
248.756	0.53	Win2	0.6154	n/a	No	3.074	n/a	n/a	NoResponse	0	n/a	n/a	2	25	Blank	MissedWin	True
248.764	0.3	Win2	0.6154	0.004	No	3.074	-0.004	2.0	NoResponse	0	0.192	n/a	2	25	ButtonPress	MissedWin	True
249.274	1.45	Win2	0.6154	n/a	No	3.074	n/a	5.0	NoResponse	0	0.018	248.292	2	25	Feedback	MissedWin	True
250.729	3.074	Win2	0.6154	n/a	No	3.074	n/a	n/a	NoResponse	0	0.0	n/a	2	25	ISIslide	MissedWin	True
253.821	0.25	Win2	0.5926	0.0	No	2.929	0.021	n/a	NoResponse	0	n/a	n/a	2	26	Cue	MissedWin	True
254.072	3.95	Win2	0.5926	0.0	No	2.929	0.001	n/a	NoResponse	0	n/a	n/a	2	26	Fixation	MissedWin	True
258.017	0.18	Win2	0.5926	0.004	No	2.929	-0.004	2.0	NoResponse	0	0.184	257.201	2	26	Target	MissedWin	True
258.201	0.52	Win2	0.5926	n/a	No	2.929	n/a	n/a	NoResponse	0	n/a	n/a	2	26	Blank	MissedWin	True
258.201	0.3	Win2	0.5926	0.004	No	2.929	-0.004	2.0	NoResponse	0	0.184	n/a	2	26	ButtonPress	MissedWin	True
258.719	1.45	Win2	0.5926	n/a	No	2.929	n/a	5.0	NoResponse	0	0.036	257.755	2	26	Feedback	MissedWin	True
260.173	2.929	Win2	0.5926	n/a	No	2.929	n/a	n/a	NoResponse	0	0.0	n/a	2	26	ISIslide	MissedWin	True
263.116	0.25	Lose2	0.5714	0.0	No	2.834	0.016	n/a	NoResponse	-1	n/a	n/a	1	27	Cue	Loss	True
263.366	4.05	Lose2	0.5714	0.0	No	2.834	0.0	n/a	NoResponse	-1	n/a	n/a	1	27	Fixation	Loss	True
267.412	0.19	Lose2	0.5714	0.004	No	2.834	-0.004	2.0	NoResponse	-1	0.223	266.635	1	27	Target	Loss	True
267.612	0.51	Lose2	0.5714	n/a	No	2.834	n/a	n/a	NoResponse	-1	n/a	n/a	1	27	Blank	Loss	True
267.635	0.3	Lose2	0.5714	0.004	No	2.834	-0.004	2.0	NoResponse	-1	0.223	n/a	1	27	ButtonPress	Loss	True
268.114	1.45	Lose2	0.5714	n/a	No	2.834	n/a	5.0	NoResponse	-1	0.007	267.121	1	27	Feedback	Loss	True
269.568	2.834	Lose2	0.5714	n/a	No	2.834	n/a	n/a	NoResponse	-1	0.0	n/a	1	27	ISIslide	Loss	True
272.427	0.25	Control	0.5517	0.0	No	2.823	0.027	n/a	NoResponse	0	n/a	n/a	1	28	Cue	Neutral	True
272.677	4.05	Control	0.5517	0.001	No	2.823	0.0	n/a	NoResponse	0	n/a	n/a	1	28	Fixation	Neutral	True
276.723	0.2	Control	0.5517	0.004	No	2.823	-0.004	2.0	NoResponse	0	0.292	276.015	1	28	Target	Neutral	True
276.923	0.5	Control	0.5517	n/a	No	2.823	n/a	n/a	NoResponse	0	n/a	n/a	1	28	Blank	Neutral	True
277.015	0.3	Control	0.5517	0.004	No	2.823	-0.004	2.0	NoResponse	0	0.292	n/a	1	28	ButtonPress	Neutral	True
277.425	1.45	Control	0.5517	n/a	No	2.823	n/a	5.0	NoResponse	0	0.013	276.438	1	28	Feedback	Neutral	True
278.879	2.823	Control	0.5517	n/a	No	2.823	n/a	n/a	NoResponse	0	0.0	n/a	1	28	ISIslide	Neutral	True
281.721	0.25	Lose2	0.5333	0.0	No	2.829	0.021	n/a	NoResponse	-1	n/a	n/a	0	29	Cue	Loss	True
281.972	3.95	Lose2	0.5333	0.0	No	2.829	0.001	n/a	NoResponse	-1	n/a	n/a	0	29	Fixation	Loss	True
285.917	0.21	Lose2	0.5333	0.004	No	2.829	-0.004	2.0	NoResponse	-1	0.234	285.151	0	29	Target	Loss	True
286.134	0.49	Lose2	0.5333	n/a	No	2.829	n/a	n/a	NoResponse	-1	n/a	n/a	0	29	Blank	Loss	True
286.151	0.3	Lose2	0.5333	0.004	No	2.829	-0.004	2.0	NoResponse	-1	0.234	n/a	0	29	ButtonPress	Loss	True
286.619	1.45	Lose2	0.5333	n/a	No	2.829	n/a	5.0	NoResponse	-1	0.038	285.657	0	29	Feedback	Loss	True
288.073	2.829	Lose2	0.5333	n/a	No	2.829	n/a	n/a	NoResponse	-1	0.0	n/a	0	29	ISIslide	Loss	True
290.915	0.25	Win2	0.5484	0.0	Yes	2.785	0.015	n/a	GoodResponse	1	n/a	n/a	1	30	Cue	Win	True
291.166	3.9	Win2	0.5484	0.0	Yes	2.785	0.001	n/a	GoodResponse	1	n/a	n/a	1	30	Fixation	Win	True
295.061	0.22	Win2	0.5484	0.004	Yes	2.785	-0.004	2.0	GoodResponse	1	0.209	294.27	1	30	Target	Win	True
295.27	0.3	Win2	0.5484	0.004	Yes	2.785	-0.004	2.0	GoodResponse	1	0.209	n/a	1	30	ButtonPress	Win	True
295.295	0.48	Win2	0.5484	n/a	Yes	2.785	n/a	n/a	GoodResponse	1	n/a	n/a	1	30	Blank	Win	True
295.763	1.45	Win2	0.5484	n/a	Yes	2.785	n/a	5.0	GoodResponse	1	0.015	294.778	1	30	Feedback	Win	True
297.217	2.785	Win2	0.5484	n/a	Yes	2.785	n/a	n/a	GoodResponse	1	0.0	n/a	1	30	ISIslide	Win	True
300.026	0.25	Lose2	0.5625	0.0	Yes	2.824	0.026	n/a	GoodResponse	0	n/a	n/a	1	31	Cue	AvoidedLoss	True
300.277	4.05	Lose2	0.5625	0.0	Yes	2.824	0.001	n/a	GoodResponse	0	n/a	n/a	1	31	Fixation	AvoidedLoss	True
304.322	0.23	Lose2	0.5625	0.004	Yes	2.824	-0.004	2.0	GoodResponse	0	0.204	303.526	1	31	Target	AvoidedLoss	True
304.526	0.3	Lose2	0.5625	0.004	Yes	2.824	-0.004	2.0	GoodResponse	0	0.204	n/a	1	31	ButtonPress	AvoidedLoss	True
304.556	0.47	Lose2	0.5625	n/a	Yes	2.824	n/a	n/a	GoodResponse	0	n/a	n/a	1	31	Blank	AvoidedLoss	True
305.024	1.45	Lose2	0.5625	n/a	Yes	2.824	n/a	5.0	GoodResponse	0	0.023	304.047	1	31	Feedback	AvoidedLoss	True
306.478	2.824	Lose2	0.5625	n/a	Yes	2.824	n/a	n/a	GoodResponse	0	0.0	n/a	1	31	ISIslide	AvoidedLoss	True
309.32	0.25	Lose2	0.5758	0.0	Yes	2.63	0.02	n/a	GoodResponse	0	n/a	n/a	1	32	Cue	AvoidedLoss	True
309.571	4.15	Lose2	0.5758	0.0	Yes	2.63	0.001	n/a	GoodResponse	0	n/a	n/a	1	32	Fixation	AvoidedLoss	True
313.717	0.24	Lose2	0.5758	0.003	Yes	2.63	-0.003	2.0	GoodResponse	0	0.201	312.918	1	32	Target	AvoidedLoss	True
313.918	0.3	Lose2	0.5758	0.003	Yes	2.63	-0.003	2.0	GoodResponse	0	0.201	n/a	1	32	ButtonPress	AvoidedLoss	True
313.967	0.46	Lose2	0.5758	n/a	Yes	2.63	n/a	n/a	GoodResponse	0	n/a	n/a	1	32	Blank	AvoidedLoss	True
314.419	1.45	Lose2	0.5758	n/a	Yes	2.63	n/a	5.0	GoodResponse	0	0.043	313.462	1	32	Feedback	AvoidedLoss	True
315.873	2.63	Lose2	0.5758	n/a	Yes	2.63	n/a	n/a	GoodResponse	0	0.0	n/a	1	32	ISIslide	AvoidedLoss	True
318.531	0.25	Win2	0.5588000000000001	0.0	No	2.669	0.031	n/a	NoResponse	0	n/a	n/a	1	33	Cue	MissedWin	True
318.782	4.0	Win2	0.5588000000000001	0.0	No	2.669	0.001	n/a	NoResponse	0	n/a	n/a	1	33	Fixation	MissedWin	True
322.777	0.25	Win2	0.5588000000000001	0.004	No	2.669	-0.004	2.0	NoResponse	0	0.31	322.087	1	33	Target	MissedWin	True
323.028	0.45	Win2	0.5588000000000001	n/a	No	2.669	n/a	n/a	NoResponse	0	n/a	n/a	1	33	Blank	MissedWin	True
323.087	0.3	Win2	0.5588000000000001	0.004	No	2.669	-0.004	2.0	NoResponse	0	0.31	n/a	1	33	ButtonPress	MissedWin	True
323.479	1.45	Win2	0.5588000000000001	n/a	No	2.669	n/a	5.0	NoResponse	0	0.007	322.486	1	33	Feedback	MissedWin	True
324.933	2.669	Win2	0.5588000000000001	n/a	No	2.669	n/a	n/a	NoResponse	0	0.0	n/a	1	33	ISIslide	MissedWin	True
327.625	0.25	Lose2	0.5714	0.0	Yes	2.625	0.025	n/a	GoodResponse	0	n/a	n/a	1	34	Cue	AvoidedLoss	True
327.876	4.05	Lose2	0.5714	0.0	Yes	2.625	0.001	n/a	GoodResponse	0	n/a	n/a	1	34	Fixation	AvoidedLoss	True
331.921	0.26	Lose2	0.5714	0.004	Yes	2.625	-0.004	2.0	GoodResponse	0	0.239	331.16	1	34	Target	AvoidedLoss	True
332.16	0.3	Lose2	0.5714	0.004	Yes	2.625	-0.004	2.0	GoodResponse	0	0.239	n/a	1	34	ButtonPress	AvoidedLoss	True
332.188	0.44	Lose2	0.5714	n/a	Yes	2.625	n/a	n/a	GoodResponse	0	n/a	n/a	1	34	Blank	AvoidedLoss	True
332.623	1.45	Lose2	0.5714	n/a	Yes	2.625	n/a	5.0	GoodResponse	0	0.033	331.656	1	34	Feedback	AvoidedLoss	True
334.077	2.625	Lose2	0.5714	n/a	Yes	2.625	n/a	n/a	GoodResponse	0	0.0	n/a	1	34	ISIslide	AvoidedLoss	True
336.719	0.25	Lose2	0.5832999999999999	0.0	Yes	2.681	0.019	n/a	GoodResponse	0	n/a	n/a	1	35	Cue	AvoidedLoss	True
336.969	4.0	Lose2	0.5832999999999999	0.001	Yes	2.681	0.0	n/a	GoodResponse	0	n/a	n/a	1	35	Fixation	AvoidedLoss	True
340.965	0.27	Lose2	0.5832999999999999	0.004	Yes	2.681	-0.004	2.0	GoodResponse	0	0.249	340.214	1	35	Target	AvoidedLoss	True
341.214	0.3	Lose2	0.5832999999999999	0.004	Yes	2.681	-0.004	2.0	GoodResponse	0	0.249	n/a	1	35	ButtonPress	AvoidedLoss	True
341.249	0.43	Lose2	0.5832999999999999	n/a	Yes	2.681	n/a	n/a	GoodResponse	0	n/a	n/a	1	35	Blank	AvoidedLoss	True
341.667	1.45	Lose2	0.5832999999999999	n/a	Yes	2.681	n/a	5.0	GoodResponse	0	0.013	340.68	1	35	Feedback	AvoidedLoss	True
343.121	2.681	Lose2	0.5832999999999999	n/a	Yes	2.681	n/a	n/a	GoodResponse	0	0.0	n/a	1	35	ISIslide	AvoidedLoss	True
345.829	0.25	Control	0.5946	0.0	Yes	2.671	0.029	n/a	GoodResponse	0	n/a	n/a	1	36	Cue	Neutral	True
346.08	4.0	Control	0.5946	0.0	Yes	2.671	0.001	n/a	GoodResponse	0	n/a	n/a	1	36	Fixation	Neutral	True
350.075	0.28	Control	0.5946	0.004	Yes	2.671	-0.004	2.0	GoodResponse	0	0.231	349.306	1	36	Target	Neutral	True
350.306	0.3	Control	0.5946	0.004	Yes	2.671	-0.004	2.0	GoodResponse	0	0.231	n/a	1	36	ButtonPress	Neutral	True
350.359	0.42	Control	0.5946	n/a	Yes	2.671	n/a	n/a	GoodResponse	0	n/a	n/a	1	36	Blank	Neutral	True
350.777	1.45	Control	0.5946	n/a	Yes	2.671	n/a	5.0	GoodResponse	0	0.025	349.802	1	36	Feedback	Neutral	True
352.232	2.671	Control	0.5946	n/a	Yes	2.671	n/a	n/a	GoodResponse	0	0.0	n/a	1	36	ISIslide	Neutral	True
354.923	0.25	Win2	0.6053000000000001	0.0	Yes	2.877	0.023	n/a	GoodResponse	1	n/a	n/a	2	37	Cue	Win	True
355.174	4.0	Win2	0.6053000000000001	0.0	Yes	2.877	0.001	n/a	GoodResponse	1	n/a	n/a	2	37	Fixation	Win	True
359.169	0.29	Win2	0.6053000000000001	0.004	Yes	2.877	-0.004	2.0	GoodResponse	1	0.205	358.374	2	37	Target	Win	True
359.374	0.3	Win2	0.6053000000000001	0.004	Yes	2.877	-0.004	2.0	GoodResponse	1	0.205	n/a	2	37	ButtonPress	Win	True
359.47	0.41	Win2	0.6053000000000001	n/a	Yes	2.877	n/a	n/a	GoodResponse	1	n/a	n/a	2	37	Blank	Win	True
359.871	1.45	Win2	0.6053000000000001	n/a	Yes	2.877	n/a	5.0	GoodResponse	1	0.006	358.877	2	37	Feedback	Win	True
361.325	2.877	Win2	0.6053000000000001	n/a	Yes	2.877	n/a	n/a	GoodResponse	1	0.0	n/a	2	37	ISIslide	Win	True
364.217	0.25	Lose2	0.6154	0.001	Yes	2.833	0.017	n/a	GoodResponse	0	n/a	n/a	2	38	Cue	AvoidedLoss	True
364.468	3.95	Lose2	0.6154	0.0	Yes	2.833	0.001	n/a	GoodResponse	0	n/a	n/a	2	38	Fixation	AvoidedLoss	True
368.413	0.3	Lose2	0.6154	0.004	Yes	2.833	-0.004	2.0	GoodResponse	0	0.206	367.619	2	38	Target	AvoidedLoss	True
368.619	0.3	Lose2	0.6154	0.004	Yes	2.833	-0.004	2.0	GoodResponse	0	0.206	n/a	2	38	ButtonPress	AvoidedLoss	True
368.714	0.4	Lose2	0.6154	n/a	Yes	2.833	n/a	n/a	GoodResponse	0	n/a	n/a	2	38	Blank	AvoidedLoss	True
369.115	1.45	Lose2	0.6154	n/a	Yes	2.833	n/a	5.0	GoodResponse	0	0.028	368.143	2	38	Feedback	AvoidedLoss	True
370.57	2.833	Lose2	0.6154	n/a	Yes	2.833	n/a	n/a	GoodResponse	0	0.0	n/a	2	38	ISIslide	AvoidedLoss	True
373.428	0.25	Win2	0.625	0.0	Yes	2.972	0.028	n/a	GoodResponse	1	n/a	n/a	3	39	Cue	Win	True
373.679	4.1	Win2	0.625	0.0	Yes	2.972	0.001	n/a	GoodResponse	1	n/a	n/a	3	39	Fixation	Win	True
377.775	0.31	Win2	0.625	0.003	Yes	2.972	-0.003	2.0	GoodResponse	1	0.231	377.006	3	39	Target	Win	True
378.006	0.3	Win2	0.625	0.003	Yes	2.972	-0.003	2.0	GoodResponse	1	0.231	n/a	3	39	ButtonPress	Win	True
378.092	0.39	Win2	0.625	n/a	Yes	2.972	n/a	n/a	GoodResponse	1	n/a	n/a	3	39	Blank	Win	True
378.477	1.45	Win2	0.625	n/a	Yes	2.972	n/a	5.0	GoodResponse	1	0.032	377.509	3	39	Feedback	Win	True
379.931	2.972	Win2	0.625	n/a	Yes	2.972	n/a	n/a	GoodResponse	1	0.0	n/a	3	39	ISIslide	Win	True
382.923	0.25	Win2	0.6341	0.0	Yes	2.727	0.023	n/a	GoodResponse	1	n/a	n/a	4	40	Cue	Win	True
383.174	3.95	Win2	0.6341	0.0	Yes	2.727	0.001	n/a	GoodResponse	1	n/a	n/a	4	40	Fixation	Win	True
387.119	0.32	Win2	0.6341	0.004	Yes	2.727	-0.004	2.0	GoodResponse	1	0.297	386.416	4	40	Target	Win	True
387.416	0.3	Win2	0.6341	0.004	Yes	2.727	-0.004	2.0	GoodResponse	1	0.297	n/a	4	40	ButtonPress	Win	True
387.454	0.38	Win2	0.6341	n/a	Yes	2.727	n/a	n/a	GoodResponse	1	n/a	n/a	4	40	Blank	Win	True
387.821	1.45	Win2	0.6341	n/a	Yes	2.727	n/a	5.0	GoodResponse	1	0.007	386.828	4	40	Feedback	Win	True
389.276	2.727	Win2	0.6341	n/a	Yes	2.727	n/a	n/a	GoodResponse	1	0.0	n/a	4	40	ISIslide	Win	True
392.017	0.25	Win2	0.6429	0.0	Yes	2.783	0.017	n/a	GoodResponse	1	n/a	n/a	5	41	Cue	Win	True
392.268	3.9	Win2	0.6429	0.0	Yes	2.783	0.001	n/a	GoodResponse	1	n/a	n/a	5	41	Fixation	Win	True
396.163	0.33	Win2	0.6429	0.004	Yes	2.783	-0.004	2.0	GoodResponse	1	0.224	395.387	5	41	Target	Win	True
396.387	0.3	Win2	0.6429	0.004	Yes	2.783	-0.004	2.0	GoodResponse	1	0.224	n/a	5	41	ButtonPress	Win	True
396.497	0.37	Win2	0.6429	n/a	Yes	2.783	n/a	n/a	GoodResponse	1	n/a	n/a	5	41	Blank	Win	True
396.865	1.45	Win2	0.6429	n/a	Yes	2.783	n/a	5.0	GoodResponse	1	0.035	395.9	5	41	Feedback	Win	True
398.319	2.783	Win2	0.6429	n/a	Yes	2.783	n/a	n/a	GoodResponse	1	0.0	n/a	5	41	ISIslide	Win	True
401.128	0.25	Control	0.6512	0.0	Yes	2.922	0.028	n/a	GoodResponse	0	n/a	n/a	5	42	Cue	Neutral	True
401.378	3.85	Control	0.6512	0.001	Yes	2.922	0.0	n/a	GoodResponse	0	n/a	n/a	5	42	Fixation	Neutral	True
405.24	0.34	Control	0.6512	0.0	Yes	2.922	0.012	2.0	GoodResponse	0	0.23	404.47	5	42	Target	Neutral	True
405.47	0.3	Control	0.6512	0.0	Yes	2.922	0.012	2.0	GoodResponse	0	0.23	n/a	5	42	ButtonPress	Neutral	True
405.574	0.36	Control	0.6512	n/a	Yes	2.922	n/a	n/a	GoodResponse	0	n/a	n/a	5	42	Blank	Neutral	True
405.925	1.45	Control	0.6512	n/a	Yes	2.922	n/a	5.0	GoodResponse	0	0.047	404.972	5	42	Feedback	Neutral	True
407.38	2.922	Control	0.6512	n/a	Yes	2.922	n/a	n/a	GoodResponse	0	0.0	n/a	5	42	ISIslide	Neutral	True
410.322	0.25	Win2	0.6591	0.0	Yes	3.178	0.022	n/a	GoodResponse	1	n/a	n/a	6	43	Cue	Win	True
410.573	4.0	Win2	0.6591	0.0	Yes	3.178	0.001	n/a	GoodResponse	1	n/a	n/a	6	43	Fixation	Win	True
414.568	0.35	Win2	0.6591	0.004	Yes	3.178	-0.004	2.0	GoodResponse	1	0.313	413.881	6	43	Target	Win	True
414.881	0.3	Win2	0.6591	0.004	Yes	3.178	-0.004	2.0	GoodResponse	1	0.313	n/a	6	43	ButtonPress	Win	True
414.919	0.35	Win2	0.6591	n/a	Yes	3.178	n/a	n/a	GoodResponse	1	n/a	n/a	6	43	Blank	Win	True
415.27	1.45	Win2	0.6591	n/a	Yes	3.178	n/a	5.0	GoodResponse	1	0.019	414.289	6	43	Feedback	Win	True
416.724	3.178	Win2	0.6591	n/a	Yes	3.178	n/a	n/a	GoodResponse	1	0.0	n/a	6	43	ISIslide	Win	True
419.917	0.25	Win2	0.6667000000000001	0.0	Yes	2.983	0.017	n/a	GoodResponse	1	n/a	n/a	7	44	Cue	Win	True
420.168	4.0	Win2	0.6667000000000001	0.0	Yes	2.983	0.001	n/a	GoodResponse	1	n/a	n/a	7	44	Fixation	Win	True
424.163	0.35	Win2	0.6667000000000001	0.004	Yes	2.983	-0.004	2.0	GoodResponse	1	0.193	423.356	7	44	Target	Win	True
424.356	0.3	Win2	0.6667000000000001	0.004	Yes	2.983	-0.004	2.0	GoodResponse	1	0.193	n/a	7	44	ButtonPress	Win	True
424.514	0.35	Win2	0.6667000000000001	n/a	Yes	2.983	n/a	n/a	GoodResponse	1	n/a	n/a	7	44	Blank	Win	True
424.865	1.45	Win2	0.6667000000000001	n/a	Yes	2.983	n/a	5.0	GoodResponse	1	0.034	423.899	7	44	Feedback	Win	True
426.32	2.983	Win2	0.6667000000000001	n/a	Yes	2.983	n/a	n/a	GoodResponse	1	0.0	n/a	7	44	ISIslide	Win	True
429.329	0.25	Control	0.6739	0.0	Yes	2.871	0.029	n/a	GoodResponse	0	n/a	n/a	7	45	Cue	Neutral	True
429.579	4.1	Control	0.6739	0.0	Yes	2.871	0.0	n/a	GoodResponse	0	n/a	n/a	7	45	Fixation	Neutral	True
433.675	0.34	Control	0.6739	0.004	Yes	2.871	-0.004	2.0	GoodResponse	0	0.234	432.909	7	45	Target	Neutral	True
433.909	0.3	Control	0.6739	0.004	Yes	2.871	-0.004	2.0	GoodResponse	0	0.234	n/a	7	45	ButtonPress	Neutral	True
434.026	0.36	Control	0.6739	n/a	Yes	2.871	n/a	n/a	GoodResponse	0	n/a	n/a	7	45	Blank	Neutral	True
434.377	1.45	Control	0.6739	n/a	Yes	2.871	n/a	5.0	GoodResponse	0	0.034	433.411	7	45	Feedback	Neutral	True
435.831	2.871	Control	0.6739	n/a	Yes	2.871	n/a	n/a	GoodResponse	0	0.0	n/a	7	45	ISIslide	Neutral	True
438.723	0.25	Lose2	0.6809000000000001	0.0	Yes	3.377	0.023	n/a	GoodResponse	0	n/a	n/a	7	46	Cue	AvoidedLoss	True
438.974	4.0	Lose2	0.6809000000000001	0.0	Yes	3.377	0.001	n/a	GoodResponse	0	n/a	n/a	7	46	Fixation	AvoidedLoss	True
442.969	0.33	Lose2	0.6809000000000001	0.004	Yes	3.377	-0.004	2.0	GoodResponse	0	0.2	442.169	7	46	Target	AvoidedLoss	True
443.169	0.3	Lose2	0.6809000000000001	0.004	Yes	3.377	-0.004	2.0	GoodResponse	0	0.2	n/a	7	46	ButtonPress	AvoidedLoss	True
443.304	0.37	Lose2	0.6809000000000001	n/a	Yes	3.377	n/a	n/a	GoodResponse	0	n/a	n/a	7	46	Blank	AvoidedLoss	True
443.671	1.45	Lose2	0.6809000000000001	n/a	Yes	3.377	n/a	5.0	GoodResponse	0	0.008	442.679	7	46	Feedback	AvoidedLoss	True
445.126	3.377	Lose2	0.6809000000000001	n/a	Yes	3.377	n/a	2.0	GoodResponse	0	1.357	n/a	7	46	ISIslide	AvoidedLoss	True
448.503	0.25	Lose2	0.6875	0.0	Yes	2.697	0.003	n/a	GoodResponse	0	n/a	n/a	7	47	Cue	AvoidedLoss	False
448.753	4.0	Lose2	0.6875	0.0	Yes	2.697	0.0	2.0	GoodResponse	0	0.007	447.76	7	47	Fixation	AvoidedLoss	False
448.76	0.3	Lose2	0.6875	0.0	Yes	2.697	0.0	2.0	GoodResponse	0	0.007	n/a	7	47	ButtonPress	AvoidedLoss	False
452.749	0.32	Lose2	0.6875	0.004	Yes	2.697	-0.004	2.0	GoodResponse	0	0.199	451.948	7	47	Target	AvoidedLoss	False
452.948	0.3	Lose2	0.6875	0.004	Yes	2.697	-0.004	2.0	GoodResponse	0	0.199	n/a	7	47	ButtonPress	AvoidedLoss	False
453.083	0.38	Lose2	0.6875	n/a	Yes	2.697	n/a	n/a	GoodResponse	0	n/a	n/a	7	47	Blank	AvoidedLoss	False
453.451	1.45	Lose2	0.6875	n/a	Yes	2.697	n/a	5.0	GoodResponse	0	0.033	452.484	7	47	Feedback	AvoidedLoss	False
454.905	2.697	Lose2	0.6875	n/a	Yes	2.697	n/a	n/a	GoodResponse	0	0.0	n/a	7	47	ISIslide	AvoidedLoss	False
457.63	0.25	Lose2	0.6939	0.0	Yes	3.02	0.03	n/a	GoodResponse	0	n/a	n/a	7	48	Cue	AvoidedLoss	True
457.881	3.95	Lose2	0.6939	0.0	Yes	3.02	0.001	n/a	GoodResponse	0	n/a	n/a	7	48	Fixation	AvoidedLoss	True
461.826	0.31	Lose2	0.6939	0.004	Yes	3.02	-0.004	2.0	GoodResponse	0	0.202	461.028	7	48	Target	AvoidedLoss	True
462.028	0.3	Lose2	0.6939	0.004	Yes	3.02	-0.004	2.0	GoodResponse	0	0.202	n/a	7	48	ButtonPress	AvoidedLoss	True
462.143	0.39	Lose2	0.6939	n/a	Yes	3.02	n/a	n/a	GoodResponse	0	n/a	n/a	7	48	Blank	AvoidedLoss	True
462.528	1.45	Lose2	0.6939	n/a	Yes	3.02	n/a	5.0	GoodResponse	0	0.029	461.557	7	48	Feedback	AvoidedLoss	True
463.982	3.02	Lose2	0.6939	n/a	Yes	3.02	n/a	n/a	GoodResponse	0	0.0	n/a	7	48	ISIslide	AvoidedLoss	True
467.025	0.25	Control	0.7	0.0	Yes	2.875	0.025	n/a	GoodResponse	0	n/a	n/a	7	49	Cue	Neutral	True
467.275	4.0	Control	0.7	0.0	Yes	2.875	0.0	n/a	GoodResponse	0	n/a	n/a	7	49	Fixation	Neutral	True
471.271	0.3	Control	0.7	0.004	Yes	2.875	-0.004	2.0	GoodResponse	0	0.215	470.486	7	49	Target	Neutral	True
471.486	0.3	Control	0.7	0.004	Yes	2.875	-0.004	2.0	GoodResponse	0	0.215	n/a	7	49	ButtonPress	Neutral	True
471.571	0.4	Control	0.7	n/a	Yes	2.875	n/a	n/a	GoodResponse	0	n/a	n/a	7	49	Blank	Neutral	True
471.973	1.45	Control	0.7	n/a	Yes	2.875	n/a	5.0	GoodResponse	0	0.048	471.021	7	49	Feedback	Neutral	True
473.427	2.875	Control	0.7	n/a	Yes	2.875	n/a	n/a	GoodResponse	0	0.0	n/a	7	49	ISIslide	Neutral	True
476.319	0.25	Control	0.7059000000000001	0.0	Yes	2.781	0.019	n/a	GoodResponse	0	n/a	n/a	7	50	Cue	Neutral	True
476.57	4.0	Control	0.7059000000000001	0.0	Yes	2.781	0.001	n/a	GoodResponse	0	n/a	n/a	7	50	Fixation	Neutral	True
480.565	0.29	Control	0.7059000000000001	0.004	Yes	2.781	-0.004	2.0	GoodResponse	0	0.214	479.779	7	50	Target	Neutral	True
480.779	0.3	Control	0.7059000000000001	0.004	Yes	2.781	-0.004	2.0	GoodResponse	0	0.214	n/a	7	50	ButtonPress	Neutral	True
480.866	0.41	Control	0.7059000000000001	n/a	Yes	2.781	n/a	n/a	GoodResponse	0	n/a	n/a	7	50	Blank	Neutral	True
481.267	1.45	Control	0.7059000000000001	n/a	Yes	2.781	n/a	5.0	GoodResponse	0	0.021	480.288	7	50	Feedback	Neutral	True
482.721	2.781	Control	0.7059000000000001	n/a	Yes	2.781	n/a	n/a	GoodResponse	0	0.0	n/a	7	50	ISIslide	Neutral	True
485.53	0.25	Control	0.7115	0.0	Yes	2.72	0.03	n/a	GoodResponse	0	n/a	n/a	7	51	Cue	Neutral	True
485.781	3.95	Control	0.7115	0.0	Yes	2.72	0.001	n/a	GoodResponse	0	n/a	n/a	7	51	Fixation	Neutral	True
489.726	0.28	Control	0.7115	0.004	Yes	2.72	-0.004	2.0	GoodResponse	0	0.214	488.94	7	51	Target	Neutral	True
489.94	0.3	Control	0.7115	0.004	Yes	2.72	-0.004	2.0	GoodResponse	0	0.214	n/a	7	51	ButtonPress	Neutral	True
490.01	0.42	Control	0.7115	n/a	Yes	2.72	n/a	n/a	GoodResponse	0	n/a	n/a	7	51	Blank	Neutral	True
490.428	1.45	Control	0.7115	n/a	Yes	2.72	n/a	5.0	GoodResponse	0	0.031	489.459	7	51	Feedback	Neutral	True
491.882	2.72	Control	0.7115	n/a	Yes	2.72	n/a	n/a	GoodResponse	0	0.0	n/a	7	51	ISIslide	Neutral	True
494.624	0.25	Control	0.7170000000000001	0.0	Yes	2.626	0.024	n/a	GoodResponse	0	n/a	n/a	7	52	Cue	Neutral	False
494.874	4.05	Control	0.7170000000000001	0.0	Yes	2.626	0.0	2.0	GoodResponse	0	0.034	493.908	7	52	Fixation	Neutral	False
494.908	0.3	Control	0.7170000000000001	0.0	Yes	2.626	0.0	2.0	GoodResponse	0	0.034	n/a	7	52	ButtonPress	Neutral	False
498.92	0.27	Control	0.7170000000000001	0.004	Yes	2.626	-0.004	2.0	GoodResponse	0	0.237	498.157	7	52	Target	Neutral	False
499.157	0.3	Control	0.7170000000000001	0.004	Yes	2.626	-0.004	2.0	GoodResponse	0	0.237	n/a	7	52	ButtonPress	Neutral	False
499.204	0.43	Control	0.7170000000000001	n/a	Yes	2.626	n/a	n/a	GoodResponse	0	n/a	n/a	7	52	Blank	Neutral	False
499.622	1.45	Control	0.7170000000000001	n/a	Yes	2.626	n/a	5.0	GoodResponse	0	0.008	498.63	7	52	Feedback	Neutral	False
501.076	2.626	Control	0.7170000000000001	n/a	Yes	2.626	n/a	n/a	GoodResponse	0	0.0	n/a	7	52	ISIslide	Neutral	False
503.717	0.25	Win2	0.7222	0.0	Yes	2.933	0.017	n/a	GoodResponse	1	n/a	n/a	8	53	Cue	Win	True
503.968	4.05	Win2	0.7222	0.0	Yes	2.933	0.001	n/a	GoodResponse	1	n/a	n/a	8	53	Fixation	Win	True
508.014	0.26	Win2	0.7222	0.003	Yes	2.933	-0.003	2.0	GoodResponse	1	0.204	507.218	8	53	Target	Win	True
508.218	0.3	Win2	0.7222	0.003	Yes	2.933	-0.003	2.0	GoodResponse	1	0.204	n/a	8	53	ButtonPress	Win	True
508.281	0.44	Win2	0.7222	n/a	Yes	2.933	n/a	n/a	GoodResponse	1	n/a	n/a	8	53	Blank	Win	True
508.716	1.45	Win2	0.7222	n/a	Yes	2.933	n/a	5.0	GoodResponse	1	0.036	507.752	8	53	Feedback	Win	True
510.17	2.933	Win2	0.7222	n/a	Yes	2.933	n/a	2.0	GoodResponse	1	1.421	n/a	8	53	ISIslide	Win	True
513.095	0.25	Win2	0.7091	0.001	No	2.755	-0.005	n/a	NoResponse	0	n/a	n/a	8	54	Cue	MissedWin	True
513.346	3.95	Win2	0.7091	0.0	No	2.755	0.001	n/a	NoResponse	0	n/a	n/a	8	54	Fixation	MissedWin	True
517.291	0.25	Win2	0.7091	0.004	No	2.755	-0.004	2.0	NoResponse	0	0.278	516.569	8	54	Target	MissedWin	True
517.542	0.45	Win2	0.7091	n/a	No	2.755	n/a	n/a	NoResponse	0	n/a	n/a	8	54	Blank	MissedWin	True
517.569	0.3	Win2	0.7091	0.004	No	2.755	-0.004	2.0	NoResponse	0	0.278	n/a	8	54	ButtonPress	MissedWin	True
517.993	1.45	Win2	0.7091	n/a	No	2.755	n/a	5.0	NoResponse	0	0.026	517.019	8	54	Feedback	MissedWin	True
519.448	2.755	Win2	0.7091	n/a	No	2.755	n/a	n/a	NoResponse	0	0.0	n/a	8	54	ISIslide	MissedWin	True
522.223	0.25	Control	0.7143	0.0	Yes	3.027	0.023	n/a	GoodResponse	0	n/a	n/a	8	55	Cue	Neutral	True
522.473	3.95	Control	0.7143	0.001	Yes	3.027	0.0	n/a	GoodResponse	0	n/a	n/a	8	55	Fixation	Neutral	True
526.419	0.24	Control	0.7143	0.004	Yes	3.027	-0.004	2.0	GoodResponse	0	0.208	525.627	8	55	Target	Neutral	True
526.627	0.3	Control	0.7143	0.004	Yes	3.027	-0.004	2.0	GoodResponse	0	0.208	n/a	8	55	ButtonPress	Neutral	True
526.669	0.46	Control	0.7143	n/a	Yes	3.027	n/a	n/a	GoodResponse	0	n/a	n/a	8	55	Blank	Neutral	True
527.121	1.45	Control	0.7143	n/a	Yes	3.027	n/a	5.0	GoodResponse	0	0.02	526.141	8	55	Feedback	Neutral	True
528.575	3.027	Control	0.7143	n/a	Yes	3.027	n/a	n/a	GoodResponse	0	0.0	n/a	8	55	ISIslide	Neutral	True
531.617	0.25	Control	0.7193	0.0	Yes	2.833	0.017	n/a	GoodResponse	0	n/a	n/a	8	56	Cue	Neutral	True
531.868	3.95	Control	0.7193	0.0	Yes	2.833	0.001	n/a	GoodResponse	0	n/a	n/a	8	56	Fixation	Neutral	True
535.813	0.23	Control	0.7193	0.004	Yes	2.833	-0.004	2.0	GoodResponse	0	0.195	535.008	8	56	Target	Neutral	True
536.008	0.3	Control	0.7193	0.004	Yes	2.833	-0.004	2.0	GoodResponse	0	0.195	n/a	8	56	ButtonPress	Neutral	True
536.047	0.47	Control	0.7193	n/a	Yes	2.833	n/a	n/a	GoodResponse	0	n/a	n/a	8	56	Blank	Neutral	True
536.515	1.45	Control	0.7193	n/a	Yes	2.833	n/a	5.0	GoodResponse	0	0.041	535.556	8	56	Feedback	Neutral	True
537.97	2.833	Control	0.7193	n/a	Yes	2.833	n/a	n/a	GoodResponse	0	0.0	n/a	8	56	ISIslide	Neutral	True
540.828	0.25	Control	0.7241	0.0	Yes	3.472	0.028	n/a	GoodResponse	0	n/a	n/a	8	57	Cue	Neutral	True
541.079	4.0	Control	0.7241	0.0	Yes	3.472	0.001	n/a	GoodResponse	0	n/a	n/a	8	57	Fixation	Neutral	True
545.074	0.22	Control	0.7241	0.004	Yes	3.472	-0.004	2.0	GoodResponse	0	0.208	544.282	8	57	Target	Neutral	True
545.282	0.3	Control	0.7241	0.004	Yes	3.472	-0.004	2.0	GoodResponse	0	0.208	n/a	8	57	ButtonPress	Neutral	True
545.308	0.48	Control	0.7241	n/a	Yes	3.472	n/a	n/a	GoodResponse	0	n/a	n/a	8	57	Blank	Neutral	True
545.776	1.45	Control	0.7241	n/a	Yes	3.472	n/a	5.0	GoodResponse	0	0.048	544.824	8	57	Feedback	Neutral	True
547.231	3.472	Control	0.7241	n/a	Yes	3.472	n/a	n/a	GoodResponse	0	0.0	n/a	8	57	ISIslide	Neutral	True
550.724	0.25	Win2	0.7288	0.001	Yes	2.726	0.024	n/a	GoodResponse	1	n/a	n/a	9	58	Cue	Win	True
550.975	4.05	Win2	0.7288	0.0	Yes	2.726	0.001	n/a	GoodResponse	1	n/a	n/a	9	58	Fixation	Win	True
555.021	0.21	Win2	0.7288	0.003	Yes	2.726	-0.003	2.0	GoodResponse	1	0.204	554.225	9	58	Target	Win	True
555.225	0.3	Win2	0.7288	0.003	Yes	2.726	-0.003	2.0	GoodResponse	1	0.204	n/a	9	58	ButtonPress	Win	True
555.238	0.49	Win2	0.7288	n/a	Yes	2.726	n/a	n/a	GoodResponse	1	n/a	n/a	9	58	Blank	Win	True
555.723	1.45	Win2	0.7288	n/a	Yes	2.726	n/a	5.0	GoodResponse	1	0.006	554.729	9	58	Feedback	Win	True
557.177	2.726	Win2	0.7288	n/a	Yes	2.726	n/a	n/a	GoodResponse	1	0.0	n/a	9	58	ISIslide	Win	True
559.919	0.25	Lose2	0.7333	0.0	Yes	2.681	0.019	n/a	GoodResponse	0	n/a	n/a	9	59	Cue	AvoidedLoss	True
560.169	4.0	Lose2	0.7333	0.0	Yes	2.681	0.0	n/a	GoodResponse	0	n/a	n/a	9	59	Fixation	AvoidedLoss	True
564.165	0.2	Lose2	0.7333	0.004	Yes	2.681	-0.004	2.0	GoodResponse	0	0.196	563.361	9	59	Target	AvoidedLoss	True
564.361	0.3	Lose2	0.7333	0.004	Yes	2.681	-0.004	2.0	GoodResponse	0	0.196	n/a	9	59	ButtonPress	AvoidedLoss	True
564.365	0.5	Lose2	0.7333	n/a	Yes	2.681	n/a	n/a	GoodResponse	0	n/a	n/a	9	59	Blank	AvoidedLoss	True
564.867	1.45	Lose2	0.7333	n/a	Yes	2.681	n/a	5.0	GoodResponse	0	0.03	563.897	9	59	Feedback	AvoidedLoss	True
566.321	2.681	Lose2	0.7333	n/a	Yes	2.681	n/a	n/a	GoodResponse	0	0.0	n/a	9	59	ISIslide	AvoidedLoss	True
569.029	0.25	Control	0.7212999999999999	0.0	No	2.671	0.029	n/a	NoResponse	0	n/a	n/a	9	60	Cue	Neutral	True
569.28	4.0	Control	0.7212999999999999	0.0	No	2.671	0.001	n/a	NoResponse	0	n/a	n/a	9	60	Fixation	Neutral	True
573.275	0.19	Control	0.7212999999999999	0.004	No	2.671	-0.004	2.0	NoResponse	0	0.221	572.496	9	60	Target	Neutral	True
573.476	0.51	Control	0.7212999999999999	n/a	No	2.671	n/a	n/a	NoResponse	0	n/a	n/a	9	60	Blank	Neutral	True
573.496	0.3	Control	0.7212999999999999	0.004	No	2.671	-0.004	2.0	NoResponse	0	0.221	n/a	9	60	ButtonPress	Neutral	True
573.977	1.45	Control	0.7212999999999999	n/a	No	2.671	n/a	5.0	NoResponse	0	0.042	573.019	9	60	Feedback	Neutral	True
575.432	2.671	Control	0.7212999999999999	n/a	No	2.671	n/a	n/a	NoResponse	0	0.0	n/a	9	60	ISIslide	Neutral	True
578.123	0.25	Lose2	0.7258	0.0	Yes	2.977	0.023	n/a	GoodResponse	0	n/a	n/a	9	61	Cue	AvoidedLoss	True
578.374	4.0	Lose2	0.7258	0.0	Yes	2.977	0.001	n/a	GoodResponse	0	n/a	n/a	9	61	Fixation	AvoidedLoss	True
582.369	0.18	Lose2	0.7258	0.004	Yes	2.977	-0.004	2.0	GoodResponse	0	0.15	581.519	9	61	Target	AvoidedLoss	True
582.519	0.3	Lose2	0.7258	0.004	Yes	2.977	-0.004	2.0	GoodResponse	0	0.15	n/a	9	61	ButtonPress	AvoidedLoss	True
582.553	0.52	Lose2	0.7258	n/a	Yes	2.977	n/a	n/a	GoodResponse	0	n/a	n/a	9	61	Blank	AvoidedLoss	True
583.071	1.45	Lose2	0.7258	n/a	Yes	2.977	n/a	5.0	GoodResponse	0	0.021	582.092	9	61	Feedback	AvoidedLoss	True
584.525	2.977	Lose2	0.7258	n/a	Yes	2.977	n/a	n/a	GoodResponse	0	0.0	n/a	9	61	ISIslide	AvoidedLoss	True
587.518	0.25	Lose2	0.7143	0.0	No	2.882	0.018	n/a	NoResponse	-1	n/a	n/a	8	62	Cue	Loss	True
587.768	3.9	Lose2	0.7143	0.001	No	2.882	0.0	n/a	NoResponse	-1	n/a	n/a	8	62	Fixation	Loss	True
591.663	0.17	Lose2	0.7143	0.005	No	2.882	-0.005	2.0	NoResponse	-1	0.437	591.1	8	62	Target	Loss	True
591.847	0.53	Lose2	0.7143	n/a	No	2.882	n/a	n/a	NoResponse	-1	n/a	n/a	8	62	Blank	Loss	True
592.1	0.3	Lose2	0.7143	0.005	No	2.882	-0.005	2.0	NoResponse	-1	0.437	n/a	8	62	ButtonPress	Loss	True
592.366	1.45	Lose2	0.7143	n/a	No	2.882	n/a	5.0	NoResponse	-1	0.042	591.408	8	62	Feedback	Loss	True
593.82	2.882	Lose2	0.7143	n/a	No	2.882	n/a	n/a	NoResponse	-1	0.0	n/a	8	62	ISIslide	Loss	True
596.729	0.25	Lose2	0.7031000000000001	0.0	No	2.621	0.029	n/a	NoResponse	-1	n/a	n/a	7	63	Cue	Loss	True
596.979	4.05	Lose2	0.7031000000000001	0.0	No	2.621	0.0	n/a	NoResponse	-1	n/a	n/a	7	63	Fixation	Loss	True
601.025	0.16	Lose2	0.7031000000000001	0.004	No	2.621	-0.004	2.0	NoResponse	-1	0.194	600.219	7	63	Target	Loss	True
601.192	0.54	Lose2	0.7031000000000001	n/a	No	2.621	n/a	n/a	NoResponse	-1	n/a	n/a	7	63	Blank	Loss	True
601.219	0.3	Lose2	0.7031000000000001	0.004	No	2.621	-0.004	2.0	NoResponse	-1	0.194	n/a	7	63	ButtonPress	Loss	True
601.727	1.45	Lose2	0.7031000000000001	n/a	No	2.621	n/a	5.0	NoResponse	-1	0.047	600.774	7	63	Feedback	Loss	True
603.181	2.621	Lose2	0.7031000000000001	n/a	No	2.621	n/a	n/a	NoResponse	-1	0.0	n/a	7	63	ISIslide	Loss	True
605.822	0.25	Win2	0.6923	0.0	No	3.128	0.022	n/a	NoResponse	0	n/a	n/a	7	64	Cue	MissedWin	True
606.073	4.15	Win2	0.6923	0.0	No	3.128	0.001	n/a	NoResponse	0	n/a	n/a	7	64	Fixation	MissedWin	True
610.219	0.15	Win2	0.6923	0.003	No	3.128	-0.003	2.0	NoResponse	0	0.166	609.385	7	64	Target	MissedWin	True
610.369	0.55	Win2	0.6923	n/a	No	3.128	n/a	n/a	NoResponse	0	n/a	n/a	7	64	Blank	MissedWin	True
610.385	0.3	Win2	0.6923	0.003	No	3.128	-0.003	2.0	NoResponse	0	0.166	n/a	7	64	ButtonPress	MissedWin	True
610.921	1.45	Win2	0.6923	n/a	No	3.128	n/a	5.0	NoResponse	0	0.024	609.945	7	64	Feedback	MissedWin	True
612.375	3.128	Win2	0.6923	n/a	No	3.128	n/a	n/a	NoResponse	0	0.0	n/a	7	64	ISIslide	MissedWin	True
615.518	0.25	Control	0.6818000000000001	0.0	No	2.782	0.018	n/a	NoResponse	0	n/a	n/a	7	65	Cue	Neutral	True
615.769	4.0	Control	0.6818000000000001	0.0	No	2.782	0.001	n/a	NoResponse	0	n/a	n/a	7	65	Fixation	Neutral	True
619.764	0.15	Control	0.6818000000000001	0.004	No	2.782	-0.004	2.0	NoResponse	0	0.213	618.977	7	65	Target	Neutral	True
619.914	0.55	Control	0.6818000000000001	n/a	No	2.782	n/a	n/a	NoResponse	0	n/a	n/a	7	65	Blank	Neutral	True
619.977	0.3	Control	0.6818000000000001	0.004	No	2.782	-0.004	2.0	NoResponse	0	0.213	n/a	7	65	ButtonPress	Neutral	True
620.466	1.45	Control	0.6818000000000001	n/a	No	2.782	n/a	5.0	NoResponse	0	0.04	619.506	7	65	Feedback	Neutral	True
621.92	2.782	Control	0.6818000000000001	n/a	No	2.782	n/a	n/a	NoResponse	0	0.0	n/a	7	65	ISIslide	Neutral	True
624.729	0.25	Win2	0.6716	0.0	No	2.771	0.029	n/a	NoResponse	0	n/a	n/a	7	66	Cue	MissedWin	True
624.98	3.9	Win2	0.6716	0.0	No	2.771	0.001	n/a	NoResponse	0	n/a	n/a	7	66	Fixation	MissedWin	True
628.875	0.15	Win2	0.6716	0.004	No	2.771	-0.004	2.0	NoResponse	0	0.374	628.249	7	66	Target	MissedWin	True
629.025	0.55	Win2	0.6716	n/a	No	2.771	n/a	n/a	NoResponse	0	n/a	n/a	7	66	Blank	MissedWin	True
629.249	0.3	Win2	0.6716	0.004	No	2.771	-0.004	2.0	NoResponse	0	0.374	n/a	7	66	ButtonPress	MissedWin	True
629.577	1.45	Win2	0.6716	n/a	No	2.771	n/a	5.0	NoResponse	0	0.001	628.578	7	66	Feedback	MissedWin	True
631.031	2.771	Win2	0.6716	n/a	No	2.771	n/a	n/a	NoResponse	0	0.0	n/a	7	66	ISIslide	MissedWin	True
633.823	0.25	Control	0.6618	0.0	No	2.727	0.023	n/a	NoResponse	0	n/a	n/a	7	67	Cue	Neutral	True
634.073	3.95	Control	0.6618	0.0	No	2.727	0.0	n/a	NoResponse	0	n/a	n/a	7	67	Fixation	Neutral	True
638.019	0.15	Control	0.6618	0.004	No	2.727	-0.004	2.0	NoResponse	0	0.186	637.205	7	67	Target	Neutral	True
638.169	0.55	Control	0.6618	n/a	No	2.727	n/a	n/a	NoResponse	0	n/a	n/a	7	67	Blank	Neutral	True
638.205	0.3	Control	0.6618	0.004	No	2.727	-0.004	2.0	NoResponse	0	0.186	n/a	7	67	ButtonPress	Neutral	True
638.721	1.45	Control	0.6618	n/a	No	2.727	n/a	5.0	NoResponse	0	0.028	637.749	7	67	Feedback	Neutral	True
640.175	2.727	Control	0.6618	n/a	No	2.727	n/a	n/a	NoResponse	0	0.0	n/a	7	67	ISIslide	Neutral	True
642.916	0.25	Win2	0.6522	0.001	No	3.084	0.016	n/a	NoResponse	0	n/a	n/a	7	68	Cue	MissedWin	True
643.167	4.0	Win2	0.6522	0.0	No	3.084	0.001	2.0	NoResponse	0	3.158	645.325	7	68	Fixation	MissedWin	True
646.325	0.3	Win2	0.6522	0.0	No	3.084	0.001	2.0	NoResponse	0	3.158	n/a	7	68	ButtonPress	MissedWin	True
647.162	0.15	Win2	0.6522	0.004	No	3.084	-0.004	n/a	NoResponse	0	n/a	n/a	7	68	Target	MissedWin	True
647.313	0.55	Win2	0.6522	n/a	No	3.084	n/a	n/a	NoResponse	0	n/a	n/a	7	68	Blank	MissedWin	True
647.865	1.45	Win2	0.6522	n/a	No	3.084	n/a	5.0	NoResponse	0	0.006	646.871	7	68	Feedback	MissedWin	True
649.319	3.084	Win2	0.6522	n/a	No	3.084	n/a	n/a	NoResponse	0	0.0	n/a	7	68	ISIslide	MissedWin	True
652.428	0.25	Win2	0.6429	0.0	No	3.222	0.028	n/a	NoResponse	0	n/a	n/a	7	69	Cue	MissedWin	True
652.679	3.95	Win2	0.6429	0.0	No	3.222	0.001	n/a	NoResponse	0	n/a	n/a	7	69	Fixation	MissedWin	True
656.624	0.16	Win2	0.6429	0.004	No	3.222	-0.004	2.0	NoResponse	0	0.217	655.841	7	69	Target	MissedWin	True
656.791	0.54	Win2	0.6429	n/a	No	3.222	n/a	n/a	NoResponse	0	n/a	n/a	7	69	Blank	MissedWin	True
656.841	0.3	Win2	0.6429	0.004	No	3.222	-0.004	2.0	NoResponse	0	0.217	n/a	7	69	ButtonPress	MissedWin	True
657.326	1.45	Win2	0.6429	n/a	No	3.222	n/a	5.0	NoResponse	0	0.009	656.335	7	69	Feedback	MissedWin	True
658.781	3.222	Win2	0.6429	n/a	No	3.222	n/a	n/a	NoResponse	0	0.0	n/a	7	69	ISIslide	MissedWin	True
662.024	0.25	Lose2	0.6338	0.0	No	3.026	0.024	n/a	NoResponse	-1	n/a	n/a	6	70	Cue	Loss	True
662.274	4.05	Lose2	0.6338	0.0	No	3.026	0.0	n/a	NoResponse	-1	n/a	n/a	6	70	Fixation	Loss	True
666.32	0.17	Lose2	0.6338	0.004	No	3.026	-0.004	2.0	NoResponse	-1	0.21	665.53	6	70	Target	Loss	True
666.504	0.53	Lose2	0.6338	n/a	No	3.026	n/a	n/a	NoResponse	-1	n/a	n/a	6	70	Blank	Loss	True
666.53	0.3	Lose2	0.6338	0.004	No	3.026	-0.004	2.0	NoResponse	-1	0.21	n/a	6	70	ButtonPress	Loss	True
667.022	1.45	Lose2	0.6338	n/a	No	3.026	n/a	5.0	NoResponse	-1	0.019	666.041	6	70	Feedback	Loss	True
668.476	3.026	Lose2	0.6338	n/a	No	3.026	n/a	n/a	NoResponse	-1	0.0	n/a	6	70	ISIslide	Loss	True
671.519	0.25	Win2	0.625	0.0	No	2.731	0.019	n/a	NoResponse	0	n/a	n/a	6	71	Cue	MissedWin	True
671.769	4.05	Win2	0.625	0.0	No	2.731	0.0	n/a	NoResponse	0	n/a	n/a	6	71	Fixation	MissedWin	True
675.815	0.18	Win2	0.625	0.004	No	2.731	-0.004	2.0	NoResponse	0	0.225	675.04	6	71	Target	MissedWin	True
675.999	0.52	Win2	0.625	n/a	No	2.731	n/a	n/a	NoResponse	0	n/a	n/a	6	71	Blank	MissedWin	True
676.04	0.3	Win2	0.625	0.004	No	2.731	-0.004	2.0	NoResponse	0	0.225	n/a	6	71	ButtonPress	MissedWin	True
676.517	1.45	Win2	0.625	n/a	No	2.731	n/a	5.0	NoResponse	0	0.037	675.554	6	71	Feedback	MissedWin	True
677.971	2.731	Win2	0.625	n/a	No	2.731	n/a	n/a	NoResponse	0	0.0	n/a	6	71	ISIslide	MissedWin	True
680.729	0.25	Win2	0.6164000000000001	0.0	No	2.771	0.029	n/a	NoResponse	0	n/a	n/a	6	72	Cue	MissedWin	True
680.98	4.1	Win2	0.6164000000000001	0.0	No	2.771	0.001	n/a	NoResponse	0	n/a	n/a	6	72	Fixation	MissedWin	True
685.076	0.19	Win2	0.6164000000000001	0.003	No	2.771	-0.003	2.0	NoResponse	0	0.319	684.395	6	72	Target	MissedWin	True
685.276	0.51	Win2	0.6164000000000001	n/a	No	2.771	n/a	n/a	NoResponse	0	n/a	n/a	6	72	Blank	MissedWin	True
685.395	0.3	Win2	0.6164000000000001	0.003	No	2.771	-0.003	2.0	NoResponse	0	0.319	n/a	6	72	ButtonPress	MissedWin	True
685.778	1.45	Win2	0.6164000000000001	n/a	No	2.771	n/a	5.0	NoResponse	0	0.044	684.822	6	72	Feedback	MissedWin	True
687.232	2.771	Win2	0.6164000000000001	n/a	No	2.771	n/a	n/a	NoResponse	0	0.0	n/a	6	72	ISIslide	MissedWin	True
690.024	0.25	Win2	0.6215999999999999	0.0	Yes	2.676	0.024	n/a	GoodResponse	1	n/a	n/a	7	73	Cue	Win	True
690.275	4.0	Win2	0.6215999999999999	0.0	Yes	2.676	0.001	n/a	GoodResponse	1	n/a	n/a	7	73	Fixation	Win	True
694.27	0.2	Win2	0.6215999999999999	0.004	Yes	2.676	-0.004	2.0	GoodResponse	1	0.184	693.454	7	73	Target	Win	True
694.454	0.3	Win2	0.6215999999999999	0.004	Yes	2.676	-0.004	2.0	GoodResponse	1	0.184	n/a	7	73	ButtonPress	Win	True
694.47	0.5	Win2	0.6215999999999999	n/a	Yes	2.676	n/a	n/a	GoodResponse	1	n/a	n/a	7	73	Blank	Win	True
694.972	1.45	Win2	0.6215999999999999	n/a	Yes	2.676	n/a	5.0	GoodResponse	1	0.021	693.993	7	73	Feedback	Win	True
696.426	2.676	Win2	0.6215999999999999	n/a	Yes	2.676	n/a	n/a	GoodResponse	1	0.0	n/a	7	73	ISIslide	Win	True
699.118	0.25	Lose2	0.6133	0.0	No	2.632	0.018	n/a	NoResponse	-1	n/a	n/a	6	74	Cue	Loss	True
699.368	4.05	Lose2	0.6133	0.0	No	2.632	0.0	n/a	NoResponse	-1	n/a	n/a	6	74	Fixation	Loss	True
703.414	0.21	Lose2	0.6133	0.004	No	2.632	-0.004	2.0	NoResponse	-1	0.367	702.781	6	74	Target	Loss	True
703.631	0.49	Lose2	0.6133	n/a	No	2.632	n/a	n/a	NoResponse	-1	n/a	n/a	6	74	Blank	Loss	True
703.781	0.3	Lose2	0.6133	0.004	No	2.632	-0.004	2.0	NoResponse	-1	0.367	n/a	6	74	ButtonPress	Loss	True
704.116	1.45	Lose2	0.6133	n/a	No	2.632	n/a	5.0	NoResponse	-1	0.047	703.163	6	74	Feedback	Loss	True
705.57	2.632	Lose2	0.6133	n/a	No	2.632	n/a	n/a	NoResponse	-1	0.0	n/a	6	74	ISIslide	Loss	True
708.228	0.25	Lose2	0.6184000000000001	0.0	Yes	2.922	0.028	n/a	GoodResponse	0	n/a	n/a	6	75	Cue	AvoidedLoss	True
708.479	3.95	Lose2	0.6184000000000001	0.0	Yes	2.922	0.001	n/a	GoodResponse	0	n/a	n/a	6	75	Fixation	AvoidedLoss	True
712.424	0.22	Lose2	0.6184000000000001	0.004	Yes	2.922	-0.004	2.0	GoodResponse	0	0.203	711.627	6	75	Target	AvoidedLoss	True
712.627	0.3	Lose2	0.6184000000000001	0.004	Yes	2.922	-0.004	2.0	GoodResponse	0	0.203	n/a	6	75	ButtonPress	AvoidedLoss	True
712.658	0.48	Lose2	0.6184000000000001	n/a	Yes	2.922	n/a	n/a	GoodResponse	0	n/a	n/a	6	75	Blank	AvoidedLoss	True
713.126	1.45	Lose2	0.6184000000000001	n/a	Yes	2.922	n/a	5.0	GoodResponse	0	0.013	712.139	6	75	Feedback	AvoidedLoss	True
714.58	2.922	Lose2	0.6184000000000001	n/a	Yes	2.922	n/a	n/a	GoodResponse	0	0.0	n/a	6	75	ISIslide	AvoidedLoss	True
717.523	0.25	Control	0.6103999999999999	0.0	No	3.227	0.023	n/a	NoResponse	0	n/a	n/a	6	76	Cue	Neutral	True
717.773	4.05	Control	0.6103999999999999	0.0	No	3.227	0.0	n/a	NoResponse	0	n/a	n/a	6	76	Fixation	Neutral	True
721.819	0.23	Control	0.6103999999999999	0.004	No	3.227	-0.004	2.0	NoResponse	0	0.274	721.093	6	76	Target	Neutral	True
722.053	0.47	Control	0.6103999999999999	n/a	No	3.227	n/a	n/a	NoResponse	0	n/a	n/a	6	76	Blank	Neutral	True
722.093	0.3	Control	0.6103999999999999	0.004	No	3.227	-0.004	2.0	NoResponse	0	0.274	n/a	6	76	ButtonPress	Neutral	True
722.521	1.45	Control	0.6103999999999999	n/a	No	3.227	n/a	5.0	NoResponse	0	0.032	721.553	6	76	Feedback	Neutral	True
723.975	3.227	Control	0.6103999999999999	n/a	No	3.227	n/a	n/a	NoResponse	0	0.0	n/a	6	76	ISIslide	Neutral	True
727.218	0.25	Lose2	0.6154	0.0	Yes	2.582	0.018	n/a	GoodResponse	0	n/a	n/a	6	77	Cue	AvoidedLoss	True
727.469	3.95	Lose2	0.6154	0.0	Yes	2.582	0.001	n/a	GoodResponse	0	n/a	n/a	6	77	Fixation	AvoidedLoss	True
731.414	0.24	Lose2	0.6154	0.004	Yes	2.582	-0.004	2.0	GoodResponse	0	0.19	730.604	6	77	Target	AvoidedLoss	True
731.604	0.3	Lose2	0.6154	0.004	Yes	2.582	-0.004	2.0	GoodResponse	0	0.19	n/a	6	77	ButtonPress	AvoidedLoss	True
731.665	0.46	Lose2	0.6154	n/a	Yes	2.582	n/a	n/a	GoodResponse	0	n/a	n/a	6	77	Blank	AvoidedLoss	True
732.116	1.45	Lose2	0.6154	n/a	Yes	2.582	n/a	5.0	GoodResponse	0	0.047	731.163	6	77	Feedback	AvoidedLoss	True
733.571	2.582	Lose2	0.6154	n/a	Yes	2.582	n/a	n/a	GoodResponse	0	0.0	n/a	6	77	ISIslide	AvoidedLoss	True
