onset	duration	cue_type	current_mean_accuracy	duration_error	is_hit	isi_adjusted	onset_delay	response	response_type	reward	rt	rt_time	total_reward	trial_number	trial_phase	trial_type	one_press
11.108	0.25	Control	1.0	0.0	Yes	2.942	0.008	n/a	GoodResponse	0	n/a	n/a	0	0	Cue	Neutral	True
11.359	3.85	Control	1.0	0.0	Yes	2.942	0.001	n/a	GoodResponse	0	n/a	n/a	0	0	Fixation	Neutral	True
15.203	0.4	Control	1.0	0.005	Yes	2.942	-0.005	2.0	GoodResponse	0	0.187	14.39	0	0	Target	Neutral	True
15.39	0.3	Control	1.0	0.005	Yes	2.942	-0.005	2.0	GoodResponse	0	0.187	n/a	0	0	ButtonPress	Neutral	True
15.605	0.3	Control	1.0	n/a	Yes	2.942	n/a	n/a	GoodResponse	0	n/a	n/a	0	0	Blank	Neutral	True
15.906	1.45	Control	1.0	n/a	Yes	2.942	n/a	5.0	GoodResponse	0	0.021	14.927	0	0	Feedback	Neutral	True
17.36	2.942	Control	1.0	n/a	Yes	2.942	n/a	n/a	GoodResponse	0	0.0	n/a	0	0	ISIslide	Neutral	True
20.319	0.25	Lose2	1.0	0.0	Yes	2.781	0.019	n/a	GoodResponse	0	n/a	n/a	0	1	Cue	AvoidedLoss	True
20.569	4.0	Lose2	1.0	0.001	Yes	2.781	0.0	n/a	GoodResponse	0	n/a	n/a	0	1	Fixation	AvoidedLoss	True
24.565	0.39	Lose2	1.0	0.004	Yes	2.781	-0.004	2.0	GoodResponse	0	0.176	23.741	0	1	Target	AvoidedLoss	True
24.741	0.3	Lose2	1.0	0.004	Yes	2.781	-0.004	2.0	GoodResponse	0	0.176	n/a	0	1	ButtonPress	AvoidedLoss	True
24.966	0.31	Lose2	1.0	n/a	Yes	2.781	n/a	n/a	GoodResponse	0	n/a	n/a	0	1	Blank	AvoidedLoss	True
25.267	1.45	Lose2	1.0	n/a	Yes	2.781	n/a	5.0	GoodResponse	0	0.025	24.292	0	1	Feedback	AvoidedLoss	True
26.721	2.781	Lose2	1.0	n/a	Yes	2.781	n/a	n/a	GoodResponse	0	0.0	n/a	0	1	ISIslide	AvoidedLoss	True
29.513	0.25	Control	1.0	0.0	Yes	2.587	0.013	n/a	GoodResponse	0	n/a	n/a	0	2	Cue	Neutral	True
29.764	4.1	Control	1.0	0.0	Yes	2.587	0.001	n/a	GoodResponse	0	n/a	n/a	0	2	Fixation	Neutral	True
33.859	0.38	Control	1.0	0.004	Yes	2.587	-0.004	2.0	GoodResponse	0	0.201	33.06	0	2	Target	Neutral	True
34.06	0.3	Control	1.0	0.004	Yes	2.587	-0.004	2.0	GoodResponse	0	0.201	n/a	0	2	ButtonPress	Neutral	True
34.244	0.32	Control	1.0	n/a	Yes	2.587	n/a	n/a	GoodResponse	0	n/a	n/a	0	2	Blank	Neutral	True
34.561	1.45	Control	1.0	n/a	Yes	2.587	n/a	5.0	GoodResponse	0	0.048	33.609	0	2	Feedback	Neutral	True
36.016	2.587	Control	1.0	n/a	Yes	2.587	n/a	n/a	GoodResponse	0	0.0	n/a	0	2	ISIslide	Neutral	True
38.623	0.25	Win2	1.0	0.0	Yes	2.827	0.023	n/a	GoodResponse	1	n/a	n/a	1	3	Cue	Win	True
38.874	3.95	Win2	1.0	0.0	Yes	2.827	0.001	n/a	GoodResponse	1	n/a	n/a	1	3	Fixation	Win	True
42.819	0.37	Win2	1.0	0.004	Yes	2.827	-0.004	2.0	GoodResponse	1	0.181	42.0	1	3	Target	Win	True
43	0.3	Win2	1.0	0.004	Yes	2.827	-0.004	2.0	GoodResponse	1	0.181	n/a	1	3	ButtonPress	Win	True
43.204	0.33	Win2	1.0	n/a	Yes	2.827	n/a	n/a	GoodResponse	1	n/a	n/a	1	3	Blank	Win	True
43.521	1.45	Win2	1.0	n/a	Yes	2.827	n/a	5.0	GoodResponse	1	0.015	42.536	1	3	Feedback	Win	True
44.976	2.827	Win2	1.0	n/a	Yes	2.827	n/a	n/a	GoodResponse	1	0.0	n/a	1	3	ISIslide	Win	True
47.818	0.25	Win2	1.0	0.0	Yes	3.282	0.018	n/a	GoodResponse	1	n/a	n/a	2	4	Cue	Win	True
48.068	4.0	Win2	1.0	0.0	Yes	3.282	0.0	n/a	GoodResponse	1	n/a	n/a	2	4	Fixation	Win	True
52.064	0.36	Win2	1.0	0.004	Yes	3.282	-0.004	2.0	GoodResponse	1	0.167	51.231	2	4	Target	Win	True
52.231	0.3	Win2	1.0	0.004	Yes	3.282	-0.004	2.0	GoodResponse	1	0.167	n/a	2	4	ButtonPress	Win	True
52.431	0.34	Win2	1.0	n/a	Yes	3.282	n/a	n/a	GoodResponse	1	n/a	n/a	2	4	Blank	Win	True
52.766	1.45	Win2	1.0	n/a	Yes	3.282	n/a	5.0	GoodResponse	1	0.039	51.805	2	4	Feedback	Win	True
54.22	3.282	Win2	1.0	n/a	Yes	3.282	n/a	n/a	GoodResponse	1	0.0	n/a	2	4	ISIslide	Win	True
57.513	0.25	Win2	1.0	0.0	Yes	2.787	0.013	n/a	GoodResponse	1	n/a	n/a	3	5	Cue	Win	True
57.764	4.0	Win2	1.0	0.0	Yes	2.787	0.001	n/a	GoodResponse	1	n/a	n/a	3	5	Fixation	Win	True
61.759	0.35	Win2	1.0	0.004	Yes	2.787	-0.004	2.0	GoodResponse	1	0.236	60.995	3	5	Target	Win	True
61.995	0.3	Win2	1.0	0.004	Yes	2.787	-0.004	2.0	GoodResponse	1	0.236	n/a	3	5	ButtonPress	Win	True
62.11	0.35	Win2	1.0	n/a	Yes	2.787	n/a	n/a	GoodResponse	1	n/a	n/a	3	5	Blank	Win	True
62.461	1.45	Win2	1.0	n/a	Yes	2.787	n/a	5.0	GoodResponse	1	0.001	61.462	3	5	Feedback	Win	True
63.916	2.787	Win2	1.0	n/a	Yes	2.787	n/a	n/a	GoodResponse	1	0.0	n/a	3	5	ISIslide	Win	True
66.724	0.25	Lose2	1.0	0.0	Yes	2.726	0.024	n/a	GoodResponse	0	n/a	n/a	3	6	Cue	AvoidedLoss	True
66.975	3.95	Lose2	1.0	0.0	Yes	2.726	0.001	n/a	GoodResponse	0	n/a	n/a	3	6	Fixation	AvoidedLoss	True
70.92	0.34	Lose2	1.0	0.004	Yes	2.726	-0.004	2.0	GoodResponse	0	0.217	70.137	3	6	Target	AvoidedLoss	True
71.137	0.3	Lose2	1.0	0.004	Yes	2.726	-0.004	2.0	GoodResponse	0	0.217	n/a	3	6	ButtonPress	AvoidedLoss	True
71.271	0.36	Lose2	1.0	n/a	Yes	2.726	n/a	n/a	GoodResponse	0	n/a	n/a	3	6	Blank	AvoidedLoss	True
71.622	1.45	Lose2	1.0	n/a	Yes	2.726	n/a	5.0	GoodResponse	0	0.011	70.633	3	6	Feedback	AvoidedLoss	True
73.076	2.726	Lose2	1.0	n/a	Yes	2.726	n/a	n/a	GoodResponse	0	0.0	n/a	3	6	ISIslide	AvoidedLoss	True
75.818	0.25	Lose2	1.0	0.0	Yes	4.032	0.018	n/a	GoodResponse	0	n/a	n/a	3	7	Cue	AvoidedLoss	True
76.069	4.05	Lose2	1.0	0.0	Yes	4.032	0.001	n/a	GoodResponse	0	n/a	n/a	3	7	Fixation	AvoidedLoss	True
80.114	0.33	Lose2	1.0	0.004	Yes	4.032	-0.004	2.0	GoodResponse	0	0.184	79.298	3	7	Target	AvoidedLoss	True
80.298	0.3	Lose2	1.0	0.004	Yes	4.032	-0.004	2.0	GoodResponse	0	0.184	n/a	3	7	ButtonPress	AvoidedLoss	True
80.448	0.37	Lose2	1.0	n/a	Yes	4.032	n/a	n/a	GoodResponse	0	n/a	n/a	3	7	Blank	AvoidedLoss	True
80.816	1.45	Lose2	1.0	n/a	Yes	4.032	n/a	5.0	GoodResponse	0	0.037	79.853	3	7	Feedback	AvoidedLoss	True
82.27	4.032	Lose2	1.0	n/a	Yes	4.032	n/a	n/a	GoodResponse	0	0.0	n/a	3	7	ISIslide	AvoidedLoss	True
86.316	0.25	Lose2	1.0	0.0	Yes	3.034	0.016	n/a	GoodResponse	0	n/a	n/a	3	8	Cue	AvoidedLoss	True
86.567	3.95	Lose2	1.0	0.0	Yes	3.034	0.001	n/a	GoodResponse	0	n/a	n/a	3	8	Fixation	AvoidedLoss	True
90.512	0.32	Lose2	1.0	0.004	Yes	3.034	-0.004	2.0	GoodResponse	0	0.198	89.71	3	8	Target	AvoidedLoss	True
90.71	0.3	Lose2	1.0	0.004	Yes	3.034	-0.004	2.0	GoodResponse	0	0.198	n/a	3	8	ButtonPress	AvoidedLoss	True
90.846	0.38	Lose2	1.0	n/a	Yes	3.034	n/a	n/a	GoodResponse	0	n/a	n/a	3	8	Blank	AvoidedLoss	True
91.214	1.45	Lose2	1.0	n/a	Yes	3.034	n/a	5.0	GoodResponse	0	0.029	90.243	3	8	Feedback	AvoidedLoss	True
92.668	3.034	Lose2	1.0	n/a	Yes	3.034	n/a	n/a	GoodResponse	0	0.0	n/a	3	8	ISIslide	AvoidedLoss	True
95.727	0.25	Lose2	1.0	0.0	Yes	3.123	0.027	n/a	GoodResponse	0	n/a	n/a	3	9	Cue	AvoidedLoss	True
95.978	3.95	Lose2	1.0	0.0	Yes	3.123	0.001	n/a	GoodResponse	0	n/a	n/a	3	9	Fixation	AvoidedLoss	True
99.923	0.31	Lose2	1.0	0.004	Yes	3.123	-0.004	2.0	GoodResponse	0	0.247	99.17	3	9	Target	AvoidedLoss	True
100.17	0.3	Lose2	1.0	0.004	Yes	3.123	-0.004	2.0	GoodResponse	0	0.247	n/a	3	9	ButtonPress	AvoidedLoss	True
100.241	0.39	Lose2	1.0	n/a	Yes	3.123	n/a	n/a	GoodResponse	0	n/a	n/a	3	9	Blank	AvoidedLoss	True
100.625	1.45	Lose2	1.0	n/a	Yes	3.123	n/a	5.0	GoodResponse	0	0.032	99.657	3	9	Feedback	AvoidedLoss	True
102.08	3.123	Lose2	1.0	n/a	Yes	3.123	n/a	n/a	GoodResponse	0	0.0	n/a	3	9	ISIslide	AvoidedLoss	True
105.222	0.25	Control	1.0	0.0	Yes	3.278	0.022	n/a	GoodResponse	0	n/a	n/a	3	10	Cue	Neutral	True
105.473	4.0	Control	1.0	0.0	Yes	3.278	0.001	n/a	GoodResponse	0	n/a	n/a	3	10	Fixation	Neutral	True
109.468	0.3	Control	1.0	0.004	Yes	3.278	-0.004	2.0	GoodResponse	0	0.19	108.658	3	10	Target	Neutral	True
109.658	0.3	Control	1.0	0.004	Yes	3.278	-0.004	2.0	GoodResponse	0	0.19	n/a	3	10	ButtonPress	Neutral	True
109.769	0.4	Control	1.0	n/a	Yes	3.278	n/a	n/a	GoodResponse	0	n/a	n/a	3	10	Blank	Neutral	True
110.17	1.45	Control	1.0	n/a	Yes	3.278	n/a	5.0	GoodResponse	0	0.048	109.218	3	10	Feedback	Neutral	True
111.625	3.278	Control	1.0	n/a	Yes	3.278	n/a	n/a	GoodResponse	0	0.0	n/a	3	10	ISIslide	Neutral	True
114.918	0.25	Lose2	1.0	0.0	Yes	2.732	0.018	n/a	GoodResponse	0	n/a	n/a	3	11	Cue	AvoidedLoss	True
115.169	4.05	Lose2	1.0	0.0	Yes	2.732	0.001	n/a	GoodResponse	0	n/a	n/a	3	11	Fixation	AvoidedLoss	True
119.214	0.29	Lose2	1.0	0.004	Yes	2.732	-0.004	2.0	GoodResponse	0	0.183	118.397	3	11	Target	AvoidedLoss	True
119.397	0.3	Lose2	1.0	0.004	Yes	2.732	-0.004	2.0	GoodResponse	0	0.183	n/a	3	11	ButtonPress	AvoidedLoss	True
119.515	0.41	Lose2	1.0	n/a	Yes	2.732	n/a	n/a	GoodResponse	0	n/a	n/a	3	11	Blank	AvoidedLoss	True
119.916	1.45	Lose2	1.0	n/a	Yes	2.732	n/a	5.0	GoodResponse	0	0.009	118.925	3	11	Feedback	AvoidedLoss	True
121.371	2.732	Lose2	1.0	n/a	Yes	2.732	n/a	n/a	GoodResponse	0	0.0	n/a	3	11	ISIslide	AvoidedLoss	True
124.129	0.25	Control	1.0	0.0	Yes	2.971	0.029	n/a	GoodResponse	0	n/a	n/a	3	12	Cue	Neutral	True
124.38	3.9	Control	1.0	0.0	Yes	2.971	0.001	n/a	GoodResponse	0	n/a	n/a	3	12	Fixation	Neutral	True
128.274	0.28	Control	1.0	0.005	Yes	2.971	-0.005	2.0	GoodResponse	0	0.218	127.492	3	12	Target	Neutral	True
128.492	0.3	Control	1.0	0.005	Yes	2.971	-0.005	2.0	GoodResponse	0	0.218	n/a	3	12	ButtonPress	Neutral	True
128.559	0.42	Control	1.0	n/a	Yes	2.971	n/a	n/a	GoodResponse	0	n/a	n/a	3	12	Blank	Neutral	True
128.977	1.45	Control	1.0	n/a	Yes	2.971	n/a	5.0	GoodResponse	0	0.02	127.997	3	12	Feedback	Neutral	True
130.431	2.971	Control	1.0	n/a	Yes	2.971	n/a	n/a	GoodResponse	0	0.0	n/a	3	12	ISIslide	Neutral	True
133.423	0.25	Control	1.0	0.0	Yes	2.777	0.023	n/a	GoodResponse	0	n/a	n/a	3	13	Cue	Neutral	True
133.674	4.0	Control	1.0	0.0	Yes	2.777	0.001	n/a	GoodResponse	0	n/a	n/a	3	13	Fixation	Neutral	True
137.669	0.27	Control	1.0	0.004	Yes	2.777	-0.004	2.0	GoodResponse	0	0.186	136.855	3	13	Target	Neutral	True
137.855	0.3	Control	1.0	0.004	Yes	2.777	-0.004	2.0	GoodResponse	0	0.186	n/a	3	13	ButtonPress	Neutral	True
137.953	0.43	Control	1.0	n/a	Yes	2.777	n/a	n/a	GoodResponse	0	n/a	n/a	3	13	Blank	Neutral	True
138.371	1.45	Control	1.0	n/a	Yes	2.777	n/a	5.0	GoodResponse	0	0.041	137.412	3	13	Feedback	Neutral	True
139.826	2.777	Control	1.0	n/a	Yes	2.777	n/a	n/a	GoodResponse	0	0.0	n/a	3	13	ISIslide	Neutral	True
142.617	0.25	Win2	1.0	0.0	Yes	2.683	0.017	n/a	GoodResponse	1	n/a	n/a	4	14	Cue	Win	True
142.868	4.1	Win2	1.0	0.0	Yes	2.683	0.001	n/a	GoodResponse	1	n/a	n/a	4	14	Fixation	Win	True
146.964	0.26	Win2	1.0	0.003	Yes	2.683	-0.003	2.0	GoodResponse	1	0.199	146.163	4	14	Target	Win	True
147.163	0.3	Win2	1.0	0.003	Yes	2.683	-0.003	2.0	GoodResponse	1	0.199	n/a	4	14	ButtonPress	Win	True
147.231	0.44	Win2	1.0	n/a	Yes	2.683	n/a	n/a	GoodResponse	1	n/a	n/a	4	14	Blank	Win	True
147.666	1.45	Win2	1.0	n/a	Yes	2.683	n/a	5.0	GoodResponse	1	0.015	146.681	4	14	Feedback	Win	True
149.12	2.683	Win2	1.0	n/a	Yes	2.683	n/a	n/a	GoodResponse	1	0.0	n/a	4	14	ISIslide	Win	True
151.828	0.25	Control	1.0	0.0	Yes	2.972	0.028	n/a	GoodResponse	0	n/a	n/a	4	15	Cue	Neutral	True
152.079	4.0	Control	1.0	0.0	Yes	2.972	0.001	n/a	GoodResponse	0	n/a	n/a	4	15	Fixation	Neutral	True
156.074	0.25	Control	1.0	0.004	Yes	2.972	-0.004	2.0	GoodResponse	0	0.246	155.32	4	15	Target	Neutral	True
156.32	0.3	Control	1.0	0.004	Yes	2.972	-0.004	2.0	GoodResponse	0	0.246	n/a	4	15	ButtonPress	Neutral	True
156.325	0.45	Control	1.0	n/a	Yes	2.972	n/a	n/a	GoodResponse	0	n/a	n/a	4	15	Blank	Neutral	True
156.776	1.45	Control	1.0	n/a	Yes	2.972	n/a	5.0	GoodResponse	0	0.027	155.803	4	15	Feedback	Neutral	True
158.231	2.972	Control	1.0	n/a	Yes	2.972	n/a	n/a	GoodResponse	0	0.0	n/a	4	15	ISIslide	Neutral	True
161.223	0.25	Win2	1.0	0.0	Yes	2.877	0.023	n/a	GoodResponse	1	n/a	n/a	5	16	Cue	Win	True
161.474	4.0	Win2	1.0	0.0	Yes	2.877	0.001	n/a	GoodResponse	1	n/a	n/a	5	16	Fixation	Win	True
165.469	0.24	Win2	1.0	0.004	Yes	2.877	-0.004	2.0	GoodResponse	1	0.217	164.686	5	16	Target	Win	True
165.686	0.3	Win2	1.0	0.004	Yes	2.877	-0.004	2.0	GoodResponse	1	0.217	n/a	5	16	ButtonPress	Win	True
165.72	0.46	Win2	1.0	n/a	Yes	2.877	n/a	n/a	GoodResponse	1	n/a	n/a	5	16	Blank	Win	True
166.171	1.45	Win2	1.0	n/a	Yes	2.877	n/a	5.0	GoodResponse	1	0.045	165.216	5	16	Feedback	Win	True
167.625	2.877	Win2	1.0	n/a	Yes	2.877	n/a	n/a	GoodResponse	1	0.0	n/a	5	16	ISIslide	Win	True
170.517	0.25	Lose2	1.0	0.0	Yes	2.733	0.017	n/a	GoodResponse	0	n/a	n/a	5	17	Cue	AvoidedLoss	True
170.768	3.95	Lose2	1.0	0.0	Yes	2.733	0.001	n/a	GoodResponse	0	n/a	n/a	5	17	Fixation	AvoidedLoss	True
174.713	0.23	Lose2	1.0	0.004	Yes	2.733	-0.004	2.0	GoodResponse	0	0.213	173.926	5	17	Target	AvoidedLoss	True
174.926	0.3	Lose2	1.0	0.004	Yes	2.733	-0.004	2.0	GoodResponse	0	0.213	n/a	5	17	ButtonPress	AvoidedLoss	True
174.947	0.47	Lose2	1.0	n/a	Yes	2.733	n/a	n/a	GoodResponse	0	n/a	n/a	5	17	Blank	AvoidedLoss	True
175.415	1.45	Lose2	1.0	n/a	Yes	2.733	n/a	5.0	GoodResponse	0	0.021	174.436	5	17	Feedback	AvoidedLoss	True
176.87	2.733	Lose2	1.0	n/a	Yes	2.733	n/a	n/a	GoodResponse	0	0.0	n/a	5	17	ISIslide	AvoidedLoss	True
179.628	0.25	Lose2	1.0	0.0	Yes	2.722	0.028	n/a	GoodResponse	0	n/a	n/a	5	18	Cue	AvoidedLoss	True
179.879	4.05	Lose2	1.0	0.0	Yes	2.722	0.001	n/a	GoodResponse	0	n/a	n/a	5	18	Fixation	AvoidedLoss	True
183.924	0.22	Lose2	1.0	0.004	Yes	2.722	-0.004	2.0	GoodResponse	0	0.203	183.127	5	18	Target	AvoidedLoss	True
184.127	0.3	Lose2	1.0	0.004	Yes	2.722	-0.004	2.0	GoodResponse	0	0.203	n/a	5	18	ButtonPress	AvoidedLoss	True
184.158	0.48	Lose2	1.0	n/a	Yes	2.722	n/a	n/a	GoodResponse	0	n/a	n/a	5	18	Blank	AvoidedLoss	True
184.626	1.45	Lose2	1.0	n/a	Yes	2.722	n/a	5.0	GoodResponse	0	0.03	183.656	5	18	Feedback	AvoidedLoss	True
186.08	2.722	Lose2	1.0	n/a	Yes	2.722	n/a	n/a	GoodResponse	0	0.0	n/a	5	18	ISIslide	AvoidedLoss	True
188.822	0.25	Control	0.95	0.0	No	2.928	0.022	n/a	NoResponse	0	n/a	n/a	5	19	Cue	Neutral	True
189.073	3.95	Control	0.95	0.0	No	2.928	0.001	n/a	NoResponse	0	n/a	n/a	5	19	Fixation	Neutral	True
193.018	0.21	Control	0.95	0.004	No	2.928	-0.004	2.0	NoResponse	0	0.26	192.278	5	19	Target	Neutral	True
193.235	0.49	Control	0.95	n/a	No	2.928	n/a	n/a	NoResponse	0	n/a	n/a	5	19	Blank	Neutral	True
193.278	0.3	Control	0.95	0.004	No	2.928	-0.004	2.0	NoResponse	0	0.26	n/a	5	19	ButtonPress	Neutral	True
193.72	1.45	Control	0.95	n/a	No	2.928	n/a	5.0	NoResponse	0	0.009	192.729	5	19	Feedback	Neutral	True
195.174	2.928	Control	0.95	n/a	No	2.928	n/a	n/a	NoResponse	0	0.0	n/a	5	19	ISIslide	Neutral	True
198.116	0.25	Control	0.9048	0.0	No	2.634	0.016	n/a	NoResponse	0	n/a	n/a	5	20	Cue	Neutral	True
198.367	4.05	Control	0.9048	0.0	No	2.634	0.001	n/a	NoResponse	0	n/a	n/a	5	20	Fixation	Neutral	True
202.413	0.2	Control	0.9048	0.003	No	2.634	-0.003	2.0	NoResponse	0	0.228	201.641	5	20	Target	Neutral	True
202.613	0.5	Control	0.9048	n/a	No	2.634	n/a	n/a	NoResponse	0	n/a	n/a	5	20	Blank	Neutral	True
202.641	0.3	Control	0.9048	0.003	No	2.634	-0.003	2.0	NoResponse	0	0.228	n/a	5	20	ButtonPress	Neutral	True
203.115	1.45	Control	0.9048	n/a	No	2.634	n/a	5.0	NoResponse	0	0.029	202.144	5	20	Feedback	Neutral	True
204.569	2.634	Control	0.9048	n/a	No	2.634	n/a	n/a	NoResponse	0	0.0	n/a	5	20	ISIslide	Neutral	True
207.227	0.25	Control	0.8636	0.0	No	2.773	0.027	n/a	NoResponse	0	n/a	n/a	5	21	Cue	Neutral	True
207.478	4.1	Control	0.8636	0.0	No	2.773	0.001	n/a	NoResponse	0	n/a	n/a	5	21	Fixation	Neutral	True
211.573	0.19	Control	0.8636	0.004	No	2.773	-0.004	2.0	NoResponse	0	0.296	210.869	5	21	Target	Neutral	True
211.774	0.51	Control	0.8636	n/a	No	2.773	n/a	n/a	NoResponse	0	n/a	n/a	5	21	Blank	Neutral	True
211.869	0.3	Control	0.8636	0.004	No	2.773	-0.004	2.0	NoResponse	0	0.296	n/a	5	21	ButtonPress	Neutral	True
212.275	1.45	Control	0.8636	n/a	No	2.773	n/a	5.0	NoResponse	0	0.038	211.313	5	21	Feedback	Neutral	True
213.73	2.773	Control	0.8636	n/a	No	2.773	n/a	n/a	NoResponse	0	0.0	n/a	5	21	ISIslide	Neutral	True
216.521	0.25	Control	0.8261	0.0	No	2.779	0.021	n/a	NoResponse	0	n/a	n/a	5	22	Cue	Neutral	True
216.772	4.0	Control	0.8261	0.0	No	2.779	0.001	n/a	NoResponse	0	n/a	n/a	5	22	Fixation	Neutral	True
220.767	0.18	Control	0.8261	0.004	No	2.779	-0.004	2.0	NoResponse	0	0.231	219.998	5	22	Target	Neutral	True
220.951	0.52	Control	0.8261	n/a	No	2.779	n/a	n/a	NoResponse	0	n/a	n/a	5	22	Blank	Neutral	True
220.998	0.3	Control	0.8261	0.004	No	2.779	-0.004	2.0	NoResponse	0	0.231	n/a	5	22	ButtonPress	Neutral	True
221.469	1.45	Control	0.8261	n/a	No	2.779	n/a	5.0	NoResponse	0	0.015	220.484	5	22	Feedback	Neutral	True
222.924	2.779	Control	0.8261	n/a	No	2.779	n/a	n/a	NoResponse	0	0.0	n/a	5	22	ISIslide	Neutral	True
225.716	0.25	Control	0.7917000000000001	0.0	No	2.784	0.016	n/a	NoResponse	0	n/a	n/a	5	23	Cue	Neutral	True
225.966	3.9	Control	0.7917000000000001	0.0	No	2.784	0.0	n/a	NoResponse	0	n/a	n/a	5	23	Fixation	Neutral	True
229.878	0.17	Control	0.7917000000000001	0.0	No	2.784	0.012	2.0	NoResponse	0	0.173	229.051	5	23	Target	Neutral	True
230.045	0.53	Control	0.7917000000000001	n/a	No	2.784	n/a	n/a	NoResponse	0	n/a	n/a	5	23	Blank	Neutral	True
230.051	0.3	Control	0.7917000000000001	0.0	No	2.784	0.012	2.0	NoResponse	0	0.173	n/a	5	23	ButtonPress	Neutral	True
230.563	1.45	Control	0.7917000000000001	n/a	No	2.784	n/a	5.0	NoResponse	0	0.043	229.606	5	23	Feedback	Neutral	True
232.018	2.784	Control	0.7917000000000001	n/a	No	2.784	n/a	n/a	NoResponse	0	0.0	n/a	5	23	ISIslide	Neutral	True
234.826	0.25	Win2	0.76	0.0	No	3.124	0.026	n/a	NoResponse	0	n/a	n/a	5	24	Cue	MissedWin	True
235.077	3.95	Win2	0.76	0.0	No	3.124	0.001	n/a	NoResponse	0	n/a	n/a	5	24	Fixation	MissedWin	True
239.022	0.16	Win2	0.76	0.004	No	3.124	-0.004	2.0	NoResponse	0	0.195	238.217	5	24	Target	MissedWin	True
239.189	0.54	Win2	0.76	n/a	No	3.124	n/a	n/a	NoResponse	0	n/a	n/a	5	24	Blank	MissedWin	True
239.217	0.3	Win2	0.76	0.004	No	3.124	-0.004	2.0	NoResponse	0	0.195	n/a	5	24	ButtonPress	MissedWin	True
239.724	1.45	Win2	0.76	n/a	No	3.124	n/a	5.0	NoResponse	0	0.005	238.729	5	24	Feedback	MissedWin	True
241.178	3.124	Win2	0.76	n/a	No	3.124	n/a	n/a	NoResponse	0	0.0	n/a	5	24	ISIslide	MissedWin	True
244.321	0.25	Win2	0.7308	0.0	No	3.079	0.021	n/a	NoResponse	0	n/a	n/a	5	25	Cue	MissedWin	True
244.572	4.0	Win2	0.7308	0.0	No	3.079	0.001	n/a	NoResponse	0	n/a	n/a	5	25	Fixation	MissedWin	True
248.567	0.15	Win2	0.7308	0.004	No	3.079	-0.004	2.0	NoResponse	0	0.223	247.79	5	25	Target	MissedWin	True
248.718	0.55	Win2	0.7308	n/a	No	3.079	n/a	n/a	NoResponse	0	n/a	n/a	5	25	Blank	MissedWin	True
248.79	0.3	Win2	0.7308	0.004	No	3.079	-0.004	2.0	NoResponse	0	0.223	n/a	5	25	ButtonPress	MissedWin	True
249.269	1.45	Win2	0.7308	n/a	No	3.079	n/a	5.0	NoResponse	0	0.019	248.288	5	25	Feedback	MissedWin	True
250.724	3.079	Win2	0.7308	n/a	No	3.079	n/a	n/a	NoResponse	0	0.0	n/a	5	25	ISIslide	MissedWin	True
253.816	0.25	Win2	0.7037	0.0	No	2.934	0.016	n/a	NoResponse	0	n/a	n/a	5	26	Cue	MissedWin	True
254.067	3.95	Win2	0.7037	0.0	No	2.934	0.001	n/a	NoResponse	0	n/a	n/a	5	26	Fixation	MissedWin	True
258.012	0.15	Win2	0.7037	0.004	No	2.934	-0.004	2.0	NoResponse	0	0.411	257.423	5	26	Target	MissedWin	True
258.162	0.55	Win2	0.7037	n/a	No	2.934	n/a	n/a	NoResponse	0	n/a	n/a	5	26	Blank	MissedWin	True
258.423	0.3	Win2	0.7037	0.004	No	2.934	-0.004	2.0	NoResponse	0	0.411	n/a	5	26	ButtonPress	MissedWin	True
258.714	1.45	Win2	0.7037	n/a	No	2.934	n/a	5.0	NoResponse	0	0.038	257.752	5	26	Feedback	MissedWin	True
260.168	2.934	Win2	0.7037	n/a	No	2.934	n/a	n/a	NoResponse	0	0.0	n/a	5	26	ISIslide	MissedWin	True
263.127	0.25	Lose2	0.6786	0.0	No	2.823	0.027	n/a	NoResponse	-1	n/a	n/a	4	27	Cue	Loss	True
263.378	4.05	Lose2	0.6786	0.0	No	2.823	0.001	n/a	NoResponse	-1	n/a	n/a	4	27	Fixation	Loss	True
267.423	0.15	Lose2	0.6786	0.004	No	2.823	-0.004	2.0	NoResponse	-1	0.182	266.605	4	27	Target	Loss	True
267.574	0.55	Lose2	0.6786	n/a	No	2.823	n/a	n/a	NoResponse	-1	n/a	n/a	4	27	Blank	Loss	True
267.605	0.3	Lose2	0.6786	0.004	No	2.823	-0.004	2.0	NoResponse	-1	0.182	n/a	4	27	ButtonPress	Loss	True
268.125	1.45	Lose2	0.6786	n/a	No	2.823	n/a	5.0	NoResponse	-1	0.042	267.167	4	27	Feedback	Loss	True
269.58	2.823	Lose2	0.6786	n/a	No	2.823	n/a	n/a	NoResponse	-1	0.0	n/a	4	27	ISIslide	Loss	True
272.422	0.25	Control	0.6552	0.0	No	2.828	0.022	n/a	NoResponse	0	n/a	n/a	4	28	Cue	Neutral	False
272.672	4.05	Control	0.6552	0.0	No	2.828	0.0	2.0	NoResponse	0	3.898	275.57	4	28	Fixation	Neutral	False
276.57	0.3	Control	0.6552	0.0	No	2.828	0.0	2.0	NoResponse	0	3.898	n/a	4	28	ButtonPress	Neutral	False
276.718	0.15	Control	0.6552	0.004	No	2.828	-0.004	2.0	NoResponse	0	0.257	275.975	4	28	Target	Neutral	False
276.868	0.55	Control	0.6552	n/a	No	2.828	n/a	n/a	NoResponse	0	n/a	n/a	4	28	Blank	Neutral	False
276.975	0.3	Control	0.6552	0.004	No	2.828	-0.004	2.0	NoResponse	0	0.257	n/a	4	28	ButtonPress	Neutral	False
277.42	1.45	Control	0.6552	n/a	No	2.828	n/a	5.0	NoResponse	0	0.015	276.435	4	28	Feedback	Neutral	False
278.874	2.828	Control	0.6552	n/a	No	2.828	n/a	n/a	NoResponse	0	0.0	n/a	4	28	ISIslide	Neutral	False
281.716	0.25	Lose2	0.6333	0.0	No	2.834	0.016	n/a	PrematurePress	-1	n/a	n/a	3	29	Cue	Loss	True
281.967	3.95	Lose2	0.6333	0.0	No	2.834	0.001	n/a	PrematurePress	-1	n/a	n/a	3	29	Fixation	Loss	True
285.912	0.15	Lose2	0.6333	0.004	No	2.834	-0.004	2.0	PrematurePress	-1	0.064	284.976	3	29	Target	Loss	True
285.976	0.3	Lose2	0.6333	0.004	No	2.834	-0.004	2.0	PrematurePress	-1	0.064	n/a	3	29	ButtonPress	Loss	True
286.062	0.55	Lose2	0.6333	n/a	No	2.834	n/a	n/a	PrematurePress	-1	n/a	n/a	3	29	Blank	Loss	True
286.614	1.45	Lose2	0.6333	n/a	No	2.834	n/a	5.0	PrematurePress	-1	0.04	285.654	3	29	Feedback	Loss	True
288.068	2.834	Lose2	0.6333	n/a	No	2.834	n/a	n/a	PrematurePress	-1	0.0	n/a	3	29	ISIslide	Loss	True
290.927	0.25	Win2	0.6129	0.0	No	2.773	0.027	n/a	NoResponse	0	n/a	n/a	3	30	Cue	MissedWin	True
291.178	3.9	Win2	0.6129	0.0	No	2.773	0.001	n/a	NoResponse	0	n/a	n/a	3	30	Fixation	MissedWin	True
295.073	0.16	Win2	0.6129	0.004	No	2.773	-0.004	2.0	NoResponse	0	0.192	294.265	3	30	Target	MissedWin	True
295.24	0.54	Win2	0.6129	n/a	No	2.773	n/a	n/a	NoResponse	0	n/a	n/a	3	30	Blank	MissedWin	True
295.265	0.3	Win2	0.6129	0.004	No	2.773	-0.004	2.0	NoResponse	0	0.192	n/a	3	30	ButtonPress	MissedWin	True
295.775	1.45	Win2	0.6129	n/a	No	2.773	n/a	5.0	NoResponse	0	0.001	294.776	3	30	Feedback	MissedWin	True
297.229	2.773	Win2	0.6129	n/a	No	2.773	n/a	n/a	NoResponse	0	0.0	n/a	3	30	ISIslide	MissedWin	True
300.021	0.25	Lose2	0.5938	0.0	No	2.829	0.021	n/a	NoResponse	-1	n/a	n/a	2	31	Cue	Loss	True
300.272	4.05	Lose2	0.5938	0.0	No	2.829	0.001	n/a	NoResponse	-1	n/a	n/a	2	31	Fixation	Loss	True
304.317	0.17	Lose2	0.5938	0.004	No	2.829	-0.004	2.0	NoResponse	-1	0.198	303.515	2	31	Target	Loss	True
304.501	0.53	Lose2	0.5938	n/a	No	2.829	n/a	n/a	NoResponse	-1	n/a	n/a	2	31	Blank	Loss	True
304.515	0.3	Lose2	0.5938	0.004	No	2.829	-0.004	2.0	NoResponse	-1	0.198	n/a	2	31	ButtonPress	Loss	True
305.019	1.45	Lose2	0.5938	n/a	No	2.829	n/a	5.0	NoResponse	-1	0.025	304.044	2	31	Feedback	Loss	True
306.473	2.829	Lose2	0.5938	n/a	No	2.829	n/a	n/a	NoResponse	-1	0.0	n/a	2	31	ISIslide	Loss	True
309.315	0.25	Lose2	0.5758	0.0	No	2.635	0.015	n/a	NoResponse	-1	n/a	n/a	1	32	Cue	Loss	True
309.566	4.15	Lose2	0.5758	0.0	No	2.635	0.001	2.0	NoResponse	-1	3.549	312.115	1	32	Fixation	Loss	True
313.115	0.3	Lose2	0.5758	0.0	No	2.635	0.001	2.0	NoResponse	-1	3.549	n/a	1	32	ButtonPress	Loss	True
313.712	0.18	Lose2	0.5758	0.003	No	2.635	-0.003	n/a	NoResponse	-1	n/a	n/a	1	32	Target	Loss	True
313.896	0.52	Lose2	0.5758	n/a	No	2.635	n/a	n/a	NoResponse	-1	n/a	n/a	1	32	Blank	Loss	True
314.414	1.45	Lose2	0.5758	n/a	No	2.635	n/a	5.0	NoResponse	-1	0.045	313.459	1	32	Feedback	Loss	True
315.868	2.635	Lose2	0.5758	n/a	No	2.635	n/a	n/a	NoResponse	-1	0.0	n/a	1	32	ISIslide	Loss	True
318.526	0.25	Win2	0.5882000000000001	0.0	Yes	2.674	0.026	n/a	GoodResponse	1	n/a	n/a	2	33	Cue	Win	True
318.777	4.0	Win2	0.5882000000000001	0.0	Yes	2.674	0.001	n/a	GoodResponse	1	n/a	n/a	2	33	Fixation	Win	True
322.772	0.19	Win2	0.5882000000000001	0.004	Yes	2.674	-0.004	2.0	GoodResponse	1	0.157	321.929	2	33	Target	Win	True
322.929	0.3	Win2	0.5882000000000001	0.004	Yes	2.674	-0.004	2.0	GoodResponse	1	0.157	n/a	2	33	ButtonPress	Win	True
322.973	0.51	Win2	0.5882000000000001	n/a	Yes	2.674	n/a	n/a	GoodResponse	1	n/a	n/a	2	33	Blank	Win	True
323.474	1.45	Win2	0.5882000000000001	n/a	Yes	2.674	n/a	5.0	GoodResponse	1	0.008	322.482	2	33	Feedback	Win	True
324.928	2.674	Win2	0.5882000000000001	n/a	Yes	2.674	n/a	n/a	GoodResponse	1	0.0	n/a	2	33	ISIslide	Win	True
327.62	0.25	Lose2	0.5714	0.0	No	2.63	0.02	n/a	LatePress	-1	n/a	n/a	1	34	Cue	Loss	True
327.871	4.05	Lose2	0.5714	0.0	No	2.63	0.001	n/a	LatePress	-1	n/a	n/a	1	34	Fixation	Loss	True
331.916	0.2	Lose2	0.5714	0.004	No	2.63	-0.004	2.0	LatePress	-1	0.2	331.116	1	34	Target	Loss	True
332.116	0.3	Lose2	0.5714	0.004	No	2.63	-0.004	2.0	LatePress	-1	0.2	n/a	1	34	ButtonPress	Loss	True
332.117	0.5	Lose2	0.5714	n/a	No	2.63	n/a	n/a	LatePress	-1	n/a	n/a	1	34	Blank	Loss	True
332.618	1.45	Lose2	0.5714	n/a	No	2.63	n/a	5.0	LatePress	-1	0.035	331.653	1	34	Feedback	Loss	True
334.072	2.63	Lose2	0.5714	n/a	No	2.63	n/a	n/a	LatePress	-1	0.0	n/a	1	34	ISIslide	Loss	True
336.714	0.25	Lose2	0.5832999999999999	0.0	Yes	2.686	0.014	n/a	GoodResponse	0	n/a	n/a	1	35	Cue	AvoidedLoss	True
336.964	4.0	Lose2	0.5832999999999999	0.0	Yes	2.686	0.0	n/a	GoodResponse	0	n/a	n/a	1	35	Fixation	AvoidedLoss	True
340.96	0.21	Lose2	0.5832999999999999	0.004	Yes	2.686	-0.004	2.0	GoodResponse	0	0.187	340.147	1	35	Target	AvoidedLoss	True
341.147	0.3	Lose2	0.5832999999999999	0.004	Yes	2.686	-0.004	2.0	GoodResponse	0	0.187	n/a	1	35	ButtonPress	AvoidedLoss	True
341.177	0.49	Lose2	0.5832999999999999	n/a	Yes	2.686	n/a	n/a	GoodResponse	0	n/a	n/a	1	35	Blank	AvoidedLoss	True
341.662	1.45	Lose2	0.5832999999999999	n/a	Yes	2.686	n/a	5.0	GoodResponse	0	0.016	340.678	1	35	Feedback	AvoidedLoss	True
343.116	2.686	Lose2	0.5832999999999999	n/a	Yes	2.686	n/a	n/a	GoodResponse	0	0.0	n/a	1	35	ISIslide	AvoidedLoss	True
345.824	0.25	Control	0.5946	0.0	Yes	2.676	0.024	n/a	GoodResponse	0	n/a	n/a	1	36	Cue	Neutral	True
346.075	4.0	Control	0.5946	0.0	Yes	2.676	0.001	n/a	GoodResponse	0	n/a	n/a	1	36	Fixation	Neutral	True
350.07	0.22	Control	0.5946	0.004	Yes	2.676	-0.004	2.0	GoodResponse	0	0.208	349.278	1	36	Target	Neutral	True
350.278	0.3	Control	0.5946	0.004	Yes	2.676	-0.004	2.0	GoodResponse	0	0.208	n/a	1	36	ButtonPress	Neutral	True
350.304	0.48	Control	0.5946	n/a	Yes	2.676	n/a	n/a	GoodResponse	0	n/a	n/a	1	36	Blank	Neutral	True
350.772	1.45	Control	0.5946	n/a	Yes	2.676	n/a	5.0	GoodResponse	0	0.028	349.8	1	36	Feedback	Neutral	True
352.227	2.676	Control	0.5946	n/a	Yes	2.676	n/a	n/a	GoodResponse	0	0.0	n/a	1	36	ISIslide	Neutral	True
354.918	0.25	Win2	0.6053000000000001	0.0	Yes	2.882	0.018	n/a	GoodResponse	1	n/a	n/a	2	37	Cue	Win	True
355.169	4.0	Win2	0.6053000000000001	0.0	Yes	2.882	0.001	n/a	GoodResponse	1	n/a	n/a	2	37	Fixation	Win	True
359.164	0.23	Win2	0.6053000000000001	0.004	Yes	2.882	-0.004	2.0	GoodResponse	1	0.194	358.358	2	37	Target	Win	True
359.358	0.3	Win2	0.6053000000000001	0.004	Yes	2.882	-0.004	2.0	GoodResponse	1	0.194	n/a	2	37	ButtonPress	Win	True
359.398	0.47	Win2	0.6053000000000001	n/a	Yes	2.882	n/a	n/a	GoodResponse	1	n/a	n/a	2	37	Blank	Win	True
359.866	1.45	Win2	0.6053000000000001	n/a	Yes	2.882	n/a	5.0	GoodResponse	1	0.006	358.872	2	37	Feedback	Win	True
361.32	2.882	Win2	0.6053000000000001	n/a	Yes	2.882	n/a	n/a	GoodResponse	1	0.0	n/a	2	37	ISIslide	Win	True
364.229	0.25	Lose2	0.6154	0.0	Yes	2.821	0.029	n/a	GoodResponse	0	n/a	n/a	2	38	Cue	AvoidedLoss	True
364.48	3.95	Lose2	0.6154	0.0	Yes	2.821	0.001	n/a	GoodResponse	0	n/a	n/a	2	38	Fixation	AvoidedLoss	True
368.425	0.24	Lose2	0.6154	0.004	Yes	2.821	-0.004	2.0	GoodResponse	0	0.194	367.619	2	38	Target	AvoidedLoss	True
368.619	0.3	Lose2	0.6154	0.004	Yes	2.821	-0.004	2.0	GoodResponse	0	0.194	n/a	2	38	ButtonPress	AvoidedLoss	True
368.676	0.46	Lose2	0.6154	n/a	Yes	2.821	n/a	n/a	GoodResponse	0	n/a	n/a	2	38	Blank	AvoidedLoss	True
369.127	1.45	Lose2	0.6154	n/a	Yes	2.821	n/a	5.0	GoodResponse	0	0.013	368.14	2	38	Feedback	AvoidedLoss	True
370.581	2.821	Lose2	0.6154	n/a	Yes	2.821	n/a	n/a	GoodResponse	0	0.0	n/a	2	38	ISIslide	AvoidedLoss	True
373.423	0.25	Win2	0.625	0.0	Yes	2.977	0.023	n/a	GoodResponse	1	n/a	n/a	3	39	Cue	Win	True
373.674	4.1	Win2	0.625	0.0	Yes	2.977	0.001	n/a	GoodResponse	1	n/a	n/a	3	39	Fixation	Win	True
377.77	0.25	Win2	0.625	0.003	Yes	2.977	-0.003	2.0	GoodResponse	1	0.191	376.961	3	39	Target	Win	True
377.961	0.3	Win2	0.625	0.003	Yes	2.977	-0.003	2.0	GoodResponse	1	0.191	n/a	3	39	ButtonPress	Win	True
378.02	0.45	Win2	0.625	n/a	Yes	2.977	n/a	n/a	GoodResponse	1	n/a	n/a	3	39	Blank	Win	True
378.472	1.45	Win2	0.625	n/a	Yes	2.977	n/a	5.0	GoodResponse	1	0.034	377.506	3	39	Feedback	Win	True
379.926	2.977	Win2	0.625	n/a	Yes	2.977	n/a	n/a	GoodResponse	1	0.0	n/a	3	39	ISIslide	Win	True
382.918	0.25	Win2	0.6341	0.0	Yes	2.732	0.018	n/a	GoodResponse	1	n/a	n/a	4	40	Cue	Win	True
383.169	3.95	Win2	0.6341	0.0	Yes	2.732	0.001	n/a	GoodResponse	1	n/a	n/a	4	40	Fixation	Win	True
387.114	0.26	Win2	0.6341	0.004	Yes	2.732	-0.004	2.0	GoodResponse	1	0.185	386.299	4	40	Target	Win	True
387.299	0.3	Win2	0.6341	0.004	Yes	2.732	-0.004	2.0	GoodResponse	1	0.185	n/a	4	40	ButtonPress	Win	True
387.382	0.44	Win2	0.6341	n/a	Yes	2.732	n/a	n/a	GoodResponse	1	n/a	n/a	4	40	Blank	Win	True
387.816	1.45	Win2	0.6341	n/a	Yes	2.732	n/a	5.0	GoodResponse	1	0.007	386.823	4	40	Feedback	Win	True
389.271	2.732	Win2	0.6341	n/a	Yes	2.732	n/a	n/a	GoodResponse	1	0.0	n/a	4	40	ISIslide	Win	True
392.029	0.25	Win2	0.619	0.0	No	2.771	0.029	n/a	NoResponse	0	n/a	n/a	4	41	Cue	MissedWin	True
392.28	3.9	Win2	0.619	0.0	No	2.771	0.001	n/a	NoResponse	0	n/a	n/a	4	41	Fixation	MissedWin	True
396.175	0.27	Win2	0.619	0.004	No	2.771	-0.004	2.0	NoResponse	0	0.306	395.481	4	41	Target	MissedWin	True
396.459	0.43	Win2	0.619	n/a	No	2.771	n/a	n/a	NoResponse	0	n/a	n/a	4	41	Blank	MissedWin	True
396.481	0.3	Win2	0.619	0.004	No	2.771	-0.004	2.0	NoResponse	0	0.306	n/a	4	41	ButtonPress	MissedWin	True
396.877	1.45	Win2	0.619	n/a	No	2.771	n/a	5.0	NoResponse	0	0.019	395.896	4	41	Feedback	MissedWin	True
398.331	2.771	Win2	0.619	n/a	No	2.771	n/a	n/a	NoResponse	0	0.0	n/a	4	41	ISIslide	MissedWin	True
401.123	0.25	Control	0.6279	0.0	Yes	2.927	0.023	n/a	GoodResponse	0	n/a	n/a	4	42	Cue	Neutral	True
401.373	3.85	Control	0.6279	0.001	Yes	2.927	0.0	n/a	GoodResponse	0	n/a	n/a	4	42	Fixation	Neutral	True
405.235	0.28	Control	0.6279	0.0	Yes	2.927	0.012	2.0	GoodResponse	0	0.159	404.394	4	42	Target	Neutral	True
405.394	0.3	Control	0.6279	0.0	Yes	2.927	0.012	2.0	GoodResponse	0	0.159	n/a	4	42	ButtonPress	Neutral	True
405.502	0.42	Control	0.6279	n/a	Yes	2.927	n/a	n/a	GoodResponse	0	n/a	n/a	4	42	Blank	Neutral	True
405.92	1.45	Control	0.6279	n/a	Yes	2.927	n/a	5.0	GoodResponse	0	0.049	404.969	4	42	Feedback	Neutral	True
407.375	2.927	Control	0.6279	n/a	Yes	2.927	n/a	n/a	GoodResponse	0	0.0	n/a	4	42	ISIslide	Neutral	True
410.317	0.25	Win2	0.6364	0.0	Yes	3.183	0.017	n/a	GoodResponse	1	n/a	n/a	5	43	Cue	Win	True
410.568	4.0	Win2	0.6364	0.0	Yes	3.183	0.001	n/a	GoodResponse	1	n/a	n/a	5	43	Fixation	Win	True
414.563	0.29	Win2	0.6364	0.004	Yes	3.183	-0.004	2.0	GoodResponse	1	0.183	413.746	5	43	Target	Win	True
414.746	0.3	Win2	0.6364	0.004	Yes	3.183	-0.004	2.0	GoodResponse	1	0.183	n/a	5	43	ButtonPress	Win	True
414.864	0.41	Win2	0.6364	n/a	Yes	3.183	n/a	n/a	GoodResponse	1	n/a	n/a	5	43	Blank	Win	True
415.265	1.45	Win2	0.6364	n/a	Yes	3.183	n/a	5.0	GoodResponse	1	0.021	414.286	5	43	Feedback	Win	True
416.719	3.183	Win2	0.6364	n/a	Yes	3.183	n/a	n/a	GoodResponse	1	0.0	n/a	5	43	ISIslide	Win	True
419.929	0.25	Win2	0.6444	0.0	Yes	2.971	0.029	n/a	GoodResponse	1	n/a	n/a	6	44	Cue	Win	True
420.18	4.0	Win2	0.6444	0.0	Yes	2.971	0.001	n/a	GoodResponse	1	n/a	n/a	6	44	Fixation	Win	True
424.175	0.3	Win2	0.6444	0.004	Yes	2.971	-0.004	2.0	GoodResponse	1	0.181	423.356	6	44	Target	Win	True
424.356	0.3	Win2	0.6444	0.004	Yes	2.971	-0.004	2.0	GoodResponse	1	0.181	n/a	6	44	ButtonPress	Win	True
424.476	0.4	Win2	0.6444	n/a	Yes	2.971	n/a	n/a	GoodResponse	1	n/a	n/a	6	44	Blank	Win	True
424.877	1.45	Win2	0.6444	n/a	Yes	2.971	n/a	5.0	GoodResponse	1	0.019	423.896	6	44	Feedback	Win	True
426.331	2.971	Win2	0.6444	n/a	Yes	2.971	n/a	n/a	GoodResponse	1	0.0	n/a	6	44	ISIslide	Win	True
429.324	0.25	Control	0.6522	0.0	Yes	2.876	0.024	n/a	GoodResponse	0	n/a	n/a	6	45	Cue	Neutral	True
429.574	4.1	Control	0.6522	0.0	Yes	2.876	0.0	n/a	GoodResponse	0	n/a	n/a	6	45	Fixation	Neutral	True
433.67	0.31	Control	0.6522	0.004	Yes	2.876	-0.004	2.0	GoodResponse	0	0.269	432.939	6	45	Target	Neutral	True
433.939	0.3	Control	0.6522	0.004	Yes	2.876	-0.004	2.0	GoodResponse	0	0.269	n/a	6	45	ButtonPress	Neutral	True
433.987	0.39	Control	0.6522	n/a	Yes	2.876	n/a	n/a	GoodResponse	0	n/a	n/a	6	45	Blank	Neutral	True
434.372	1.45	Control	0.6522	n/a	Yes	2.876	n/a	5.0	GoodResponse	0	0.035	433.407	6	45	Feedback	Neutral	True
435.826	2.876	Control	0.6522	n/a	Yes	2.876	n/a	n/a	GoodResponse	0	0.0	n/a	6	45	ISIslide	Neutral	True
438.718	0.25	Lose2	0.6596	0.0	Yes	3.382	0.018	n/a	GoodResponse	0	n/a	n/a	6	46	Cue	AvoidedLoss	True
438.969	4.0	Lose2	0.6596	0.0	Yes	3.382	0.001	n/a	GoodResponse	0	n/a	n/a	6	46	Fixation	AvoidedLoss	True
442.964	0.32	Lose2	0.6596	0.004	Yes	3.382	-0.004	2.0	GoodResponse	0	0.201	442.165	6	46	Target	AvoidedLoss	True
443.165	0.3	Lose2	0.6596	0.004	Yes	3.382	-0.004	2.0	GoodResponse	0	0.201	n/a	6	46	ButtonPress	AvoidedLoss	True
443.299	0.38	Lose2	0.6596	n/a	Yes	3.382	n/a	n/a	GoodResponse	0	n/a	n/a	6	46	Blank	AvoidedLoss	True
443.666	1.45	Lose2	0.6596	n/a	Yes	3.382	n/a	5.0	GoodResponse	0	0.01	442.676	6	46	Feedback	AvoidedLoss	True
445.121	3.382	Lose2	0.6596	n/a	Yes	3.382	n/a	n/a	GoodResponse	0	0.0	n/a	6	46	ISIslide	AvoidedLoss	True
448.514	0.25	Lose2	0.6667000000000001	0.0	Yes	2.686	0.014	n/a	GoodResponse	0	n/a	n/a	6	47	Cue	AvoidedLoss	True
448.765	4.0	Lose2	0.6667000000000001	0.0	Yes	2.686	0.001	n/a	GoodResponse	0	n/a	n/a	6	47	Fixation	AvoidedLoss	True
452.76	0.32	Lose2	0.6667000000000001	0.004	Yes	2.686	-0.004	2.0	GoodResponse	0	0.272	452.032	6	47	Target	AvoidedLoss	True
453.032	0.3	Lose2	0.6667000000000001	0.004	Yes	2.686	-0.004	2.0	GoodResponse	0	0.272	n/a	6	47	ButtonPress	AvoidedLoss	True
453.095	0.38	Lose2	0.6667000000000001	n/a	Yes	2.686	n/a	n/a	GoodResponse	0	n/a	n/a	6	47	Blank	AvoidedLoss	True
453.462	1.45	Lose2	0.6667000000000001	n/a	Yes	2.686	n/a	5.0	GoodResponse	0	0.019	452.481	6	47	Feedback	AvoidedLoss	True
454.917	2.686	Lose2	0.6667000000000001	n/a	Yes	2.686	n/a	n/a	GoodResponse	0	0.0	n/a	6	47	ISIslide	AvoidedLoss	True
457.625	0.25	Lose2	0.6735	0.0	Yes	3.025	0.025	n/a	GoodResponse	0	n/a	n/a	6	48	Cue	AvoidedLoss	True
457.876	3.95	Lose2	0.6735	0.0	Yes	3.025	0.001	n/a	GoodResponse	0	n/a	n/a	6	48	Fixation	AvoidedLoss	True
461.821	0.31	Lose2	0.6735	0.004	Yes	3.025	-0.004	2.0	GoodResponse	0	0.203	461.024	6	48	Target	AvoidedLoss	True
462.024	0.3	Lose2	0.6735	0.004	Yes	3.025	-0.004	2.0	GoodResponse	0	0.203	n/a	6	48	ButtonPress	AvoidedLoss	True
462.138	0.39	Lose2	0.6735	n/a	Yes	3.025	n/a	n/a	GoodResponse	0	n/a	n/a	6	48	Blank	AvoidedLoss	True
462.523	1.45	Lose2	0.6735	n/a	Yes	3.025	n/a	5.0	GoodResponse	0	0.031	461.554	6	48	Feedback	AvoidedLoss	True
463.977	3.025	Lose2	0.6735	n/a	Yes	3.025	n/a	n/a	GoodResponse	0	0.0	n/a	6	48	ISIslide	AvoidedLoss	True
467.019	0.25	Control	0.68	0.001	Yes	2.881	0.019	n/a	GoodResponse	0	n/a	n/a	6	49	Cue	Neutral	True
467.27	4.0	Control	0.68	0.0	Yes	2.881	0.001	n/a	GoodResponse	0	n/a	n/a	6	49	Fixation	Neutral	True
471.265	0.3	Control	0.68	0.004	Yes	2.881	-0.004	2.0	GoodResponse	0	0.251	470.516	6	49	Target	Neutral	True
471.516	0.3	Control	0.68	0.004	Yes	2.881	-0.004	2.0	GoodResponse	0	0.251	n/a	6	49	ButtonPress	Neutral	True
471.566	0.4	Control	0.68	n/a	Yes	2.881	n/a	n/a	GoodResponse	0	n/a	n/a	6	49	Blank	Neutral	True
471.968	1.45	Control	0.68	n/a	Yes	2.881	n/a	5.0	GoodResponse	0	0.0	470.968	6	49	Feedback	Neutral	True
473.422	2.881	Control	0.68	n/a	Yes	2.881	n/a	n/a	GoodResponse	0	0.0	n/a	6	49	ISIslide	Neutral	True
476.314	0.25	Control	0.6862999999999999	0.0	Yes	2.786	0.014	n/a	GoodResponse	0	n/a	n/a	6	50	Cue	Neutral	True
476.565	4.0	Control	0.6862999999999999	0.0	Yes	2.786	0.001	n/a	GoodResponse	0	n/a	n/a	6	50	Fixation	Neutral	True
480.56	0.29	Control	0.6862999999999999	0.004	Yes	2.786	-0.004	2.0	GoodResponse	0	0.201	479.761	6	50	Target	Neutral	True
480.761	0.3	Control	0.6862999999999999	0.004	Yes	2.786	-0.004	2.0	GoodResponse	0	0.201	n/a	6	50	ButtonPress	Neutral	True
480.861	0.41	Control	0.6862999999999999	n/a	Yes	2.786	n/a	n/a	GoodResponse	0	n/a	n/a	6	50	Blank	Neutral	True
481.262	1.45	Control	0.6862999999999999	n/a	Yes	2.786	n/a	5.0	GoodResponse	0	0.023	480.285	6	50	Feedback	Neutral	True
482.716	2.786	Control	0.6862999999999999	n/a	Yes	2.786	n/a	n/a	GoodResponse	0	0.0	n/a	6	50	ISIslide	Neutral	True
485.525	0.25	Control	0.6923	0.0	Yes	2.725	0.025	n/a	GoodResponse	0	n/a	n/a	6	51	Cue	Neutral	True
485.776	3.95	Control	0.6923	0.0	Yes	2.725	0.001	n/a	GoodResponse	0	n/a	n/a	6	51	Fixation	Neutral	True
489.721	0.28	Control	0.6923	0.004	Yes	2.725	-0.004	2.0	GoodResponse	0	0.217	488.938	6	51	Target	Neutral	True
489.938	0.3	Control	0.6923	0.004	Yes	2.725	-0.004	2.0	GoodResponse	0	0.217	n/a	6	51	ButtonPress	Neutral	True
490.005	0.42	Control	0.6923	n/a	Yes	2.725	n/a	n/a	GoodResponse	0	n/a	n/a	6	51	Blank	Neutral	True
490.423	1.45	Control	0.6923	n/a	Yes	2.725	n/a	5.0	GoodResponse	0	0.033	489.456	6	51	Feedback	Neutral	True
491.877	2.725	Control	0.6923	n/a	Yes	2.725	n/a	n/a	GoodResponse	0	0.0	n/a	6	51	ISIslide	Neutral	True
494.619	0.25	Control	0.6981	0.0	Yes	2.631	0.019	n/a	GoodResponse	0	n/a	n/a	6	52	Cue	Neutral	True
494.869	4.05	Control	0.6981	0.0	Yes	2.631	0.0	n/a	GoodResponse	0	n/a	n/a	6	52	Fixation	Neutral	True
498.915	0.27	Control	0.6981	0.004	Yes	2.631	-0.004	2.0	GoodResponse	0	0.258	498.173	6	52	Target	Neutral	True
499.173	0.3	Control	0.6981	0.004	Yes	2.631	-0.004	2.0	GoodResponse	0	0.258	n/a	6	52	ButtonPress	Neutral	True
499.199	0.43	Control	0.6981	n/a	Yes	2.631	n/a	n/a	GoodResponse	0	n/a	n/a	6	52	Blank	Neutral	True
499.617	1.45	Control	0.6981	n/a	Yes	2.631	n/a	5.0	GoodResponse	0	0.01	498.627	6	52	Feedback	Neutral	True
501.071	2.631	Control	0.6981	n/a	Yes	2.631	n/a	n/a	GoodResponse	0	0.0	n/a	6	52	ISIslide	Neutral	True
503.729	0.25	Win2	0.6851999999999999	0.0	No	2.921	0.029	n/a	NoResponse	0	n/a	n/a	6	53	Cue	MissedWin	True
503.98	4.05	Win2	0.6851999999999999	0.0	No	2.921	0.001	n/a	NoResponse	0	n/a	n/a	6	53	Fixation	MissedWin	True
508.025	0.26	Win2	0.6851999999999999	0.004	No	2.921	-0.004	2.0	NoResponse	0	0.333	507.358	6	53	Target	MissedWin	True
508.293	0.44	Win2	0.6851999999999999	n/a	No	2.921	n/a	n/a	NoResponse	0	n/a	n/a	6	53	Blank	MissedWin	True
508.358	0.3	Win2	0.6851999999999999	0.004	No	2.921	-0.004	2.0	NoResponse	0	0.333	n/a	6	53	ButtonPress	MissedWin	True
508.727	1.45	Win2	0.6851999999999999	n/a	No	2.921	n/a	5.0	NoResponse	0	0.021	507.748	6	53	Feedback	MissedWin	True
510.182	2.921	Win2	0.6851999999999999	n/a	No	2.921	n/a	n/a	NoResponse	0	0.0	n/a	6	53	ISIslide	MissedWin	True
513.124	0.25	Win2	0.6909000000000001	0.0	Yes	2.726	0.024	n/a	GoodResponse	1	n/a	n/a	7	54	Cue	Win	True
513.375	3.95	Win2	0.6909000000000001	0.0	Yes	2.726	0.001	n/a	GoodResponse	1	n/a	n/a	7	54	Fixation	Win	True
517.32	0.25	Win2	0.6909000000000001	0.004	Yes	2.726	-0.004	2.0	GoodResponse	1	0.215	516.535	7	54	Target	Win	True
517.535	0.3	Win2	0.6909000000000001	0.004	Yes	2.726	-0.004	2.0	GoodResponse	1	0.215	n/a	7	54	ButtonPress	Win	True
517.57	0.45	Win2	0.6909000000000001	n/a	Yes	2.726	n/a	n/a	GoodResponse	1	n/a	n/a	7	54	Blank	Win	True
518.022	1.45	Win2	0.6909000000000001	n/a	Yes	2.726	n/a	5.0	GoodResponse	1	0.043	517.065	7	54	Feedback	Win	True
519.476	2.726	Win2	0.6909000000000001	n/a	Yes	2.726	n/a	n/a	GoodResponse	1	0.0	n/a	7	54	ISIslide	Win	True
522.218	0.25	Control	0.6786	0.0	No	3.032	0.018	n/a	NoResponse	0	n/a	n/a	7	55	Cue	Neutral	True
522.468	3.95	Control	0.6786	0.0	No	3.032	0.0	n/a	NoResponse	0	n/a	n/a	7	55	Fixation	Neutral	True
526.414	0.24	Control	0.6786	0.004	No	3.032	-0.004	2.0	NoResponse	0	0.416	525.83	7	55	Target	Neutral	True
526.664	0.46	Control	0.6786	n/a	No	3.032	n/a	n/a	NoResponse	0	n/a	n/a	7	55	Blank	Neutral	True
526.83	0.3	Control	0.6786	0.004	No	3.032	-0.004	2.0	NoResponse	0	0.416	n/a	7	55	ButtonPress	Neutral	True
527.116	1.45	Control	0.6786	n/a	No	3.032	n/a	5.0	NoResponse	0	0.022	526.138	7	55	Feedback	Neutral	True
528.57	3.032	Control	0.6786	n/a	No	3.032	n/a	n/a	NoResponse	0	0.0	n/a	7	55	ISIslide	Neutral	True
531.629	0.25	Control	0.6667000000000001	0.0	No	2.821	0.029	n/a	NoResponse	0	n/a	n/a	7	56	Cue	Neutral	True
531.88	3.95	Control	0.6667000000000001	0.0	No	2.821	0.001	n/a	NoResponse	0	n/a	n/a	7	56	Fixation	Neutral	True
535.825	0.23	Control	0.6667000000000001	0.004	No	2.821	-0.004	2.0	NoResponse	0	0.269	535.094	7	56	Target	Neutral	True
536.059	0.47	Control	0.6667000000000001	n/a	No	2.821	n/a	n/a	NoResponse	0	n/a	n/a	7	56	Blank	Neutral	True
536.094	0.3	Control	0.6667000000000001	0.004	No	2.821	-0.004	2.0	NoResponse	0	0.269	n/a	7	56	ButtonPress	Neutral	True
536.527	1.45	Control	0.6667000000000001	n/a	No	2.821	n/a	5.0	NoResponse	0	0.026	535.553	7	56	Feedback	Neutral	True
537.981	2.821	Control	0.6667000000000001	n/a	No	2.821	n/a	n/a	NoResponse	0	0.0	n/a	7	56	ISIslide	Neutral	True
540.823	0.25	Control	0.6552	0.0	No	3.477	0.023	n/a	NoResponse	0	n/a	n/a	7	57	Cue	Neutral	True
541.074	4.0	Control	0.6552	0.0	No	3.477	0.001	n/a	NoResponse	0	n/a	n/a	7	57	Fixation	Neutral	True
545.069	0.22	Control	0.6552	0.004	No	3.477	-0.004	2.0	NoResponse	0	0.296	544.365	7	57	Target	Neutral	True
545.303	0.48	Control	0.6552	n/a	No	3.477	n/a	n/a	NoResponse	0	n/a	n/a	7	57	Blank	Neutral	True
545.365	0.3	Control	0.6552	0.004	No	3.477	-0.004	2.0	NoResponse	0	0.296	n/a	7	57	ButtonPress	Neutral	True
545.771	1.45	Control	0.6552	n/a	No	3.477	n/a	5.0	NoResponse	0	0.049	544.82	7	57	Feedback	Neutral	True
547.226	3.477	Control	0.6552	n/a	No	3.477	n/a	n/a	NoResponse	0	0.0	n/a	7	57	ISIslide	Neutral	True
550.719	0.25	Win2	0.6609999999999999	0.001	Yes	2.731	0.019	n/a	GoodResponse	1	n/a	n/a	8	58	Cue	Win	True
550.97	4.05	Win2	0.6609999999999999	0.0	Yes	2.731	0.001	n/a	GoodResponse	1	n/a	n/a	8	58	Fixation	Win	True
555.016	0.22	Win2	0.6609999999999999	0.003	Yes	2.731	-0.003	2.0	GoodResponse	1	0.202	554.218	8	58	Target	Win	True
555.218	0.3	Win2	0.6609999999999999	0.003	Yes	2.731	-0.003	2.0	GoodResponse	1	0.202	n/a	8	58	ButtonPress	Win	True
555.25	0.48	Win2	0.6609999999999999	n/a	Yes	2.731	n/a	n/a	GoodResponse	1	n/a	n/a	8	58	Blank	Win	True
555.718	1.45	Win2	0.6609999999999999	n/a	Yes	2.731	n/a	5.0	GoodResponse	1	0.007	554.725	8	58	Feedback	Win	True
557.172	2.731	Win2	0.6609999999999999	n/a	Yes	2.731	n/a	n/a	GoodResponse	1	0.0	n/a	8	58	ISIslide	Win	True
559.93	0.25	Lose2	0.6667000000000001	0.0	Yes	2.67	0.03	n/a	GoodResponse	0	n/a	n/a	8	59	Cue	AvoidedLoss	True
560.181	4.0	Lose2	0.6667000000000001	0.0	Yes	2.67	0.001	n/a	GoodResponse	0	n/a	n/a	8	59	Fixation	AvoidedLoss	True
564.176	0.22	Lose2	0.6667000000000001	0.004	Yes	2.67	-0.004	2.0	GoodResponse	0	0.185	563.361	8	59	Target	AvoidedLoss	True
564.361	0.3	Lose2	0.6667000000000001	0.004	Yes	2.67	-0.004	2.0	GoodResponse	0	0.185	n/a	8	59	ButtonPress	AvoidedLoss	True
564.41	0.48	Lose2	0.6667000000000001	n/a	Yes	2.67	n/a	n/a	GoodResponse	0	n/a	n/a	8	59	Blank	AvoidedLoss	True
564.878	1.45	Lose2	0.6667000000000001	n/a	Yes	2.67	n/a	5.0	GoodResponse	0	0.015	563.893	8	59	Feedback	AvoidedLoss	True
566.333	2.67	Lose2	0.6667000000000001	n/a	Yes	2.67	n/a	n/a	GoodResponse	0	0.0	n/a	8	59	ISIslide	AvoidedLoss	True
569.024	0.25	Control	0.6557	0.0	No	2.676	0.024	n/a	NoResponse	0	n/a	n/a	8	60	Cue	Neutral	True
569.275	4.0	Control	0.6557	0.0	No	2.676	0.001	n/a	NoResponse	0	n/a	n/a	8	60	Fixation	Neutral	True
573.27	0.21	Control	0.6557	0.004	No	2.676	-0.004	2.0	NoResponse	0	0.225	572.495	8	60	Target	Neutral	True
573.487	0.49	Control	0.6557	n/a	No	2.676	n/a	n/a	NoResponse	0	n/a	n/a	8	60	Blank	Neutral	True
573.495	0.3	Control	0.6557	0.004	No	2.676	-0.004	2.0	NoResponse	0	0.225	n/a	8	60	ButtonPress	Neutral	True
573.972	1.45	Control	0.6557	n/a	No	2.676	n/a	5.0	NoResponse	0	0.044	573.016	8	60	Feedback	Neutral	True
575.427	2.676	Control	0.6557	n/a	No	2.676	n/a	n/a	NoResponse	0	0.0	n/a	8	60	ISIslide	Neutral	True
578.118	0.25	Lose2	0.6613	0.0	Yes	2.982	0.018	n/a	GoodResponse	0	n/a	n/a	8	61	Cue	AvoidedLoss	True
578.369	4.0	Lose2	0.6613	0.0	Yes	2.982	0.001	n/a	GoodResponse	0	n/a	n/a	8	61	Fixation	AvoidedLoss	True
582.364	0.21	Lose2	0.6613	0.004	Yes	2.982	-0.004	2.0	GoodResponse	0	0.185	581.549	8	61	Target	AvoidedLoss	True
582.549	0.3	Lose2	0.6613	0.004	Yes	2.982	-0.004	2.0	GoodResponse	0	0.185	n/a	8	61	ButtonPress	AvoidedLoss	True
582.581	0.49	Lose2	0.6613	n/a	Yes	2.982	n/a	n/a	GoodResponse	0	n/a	n/a	8	61	Blank	AvoidedLoss	True
583.066	1.45	Lose2	0.6613	n/a	Yes	2.982	n/a	5.0	GoodResponse	0	0.022	582.088	8	61	Feedback	AvoidedLoss	True
584.52	2.982	Lose2	0.6613	n/a	Yes	2.982	n/a	n/a	GoodResponse	0	0.0	n/a	8	61	ISIslide	AvoidedLoss	True
587.529	0.25	Lose2	0.6507999999999999	0.001	No	2.871	0.029	n/a	NoResponse	-1	n/a	n/a	7	62	Cue	Loss	True
587.78	3.9	Lose2	0.6507999999999999	0.0	No	2.871	0.001	n/a	NoResponse	-1	n/a	n/a	7	62	Fixation	Loss	True
591.675	0.21	Lose2	0.6507999999999999	0.004	No	2.871	-0.004	2.0	NoResponse	-1	0.227	590.902	7	62	Target	Loss	True
591.892	0.49	Lose2	0.6507999999999999	n/a	No	2.871	n/a	n/a	NoResponse	-1	n/a	n/a	7	62	Blank	Loss	True
591.902	0.3	Lose2	0.6507999999999999	0.004	No	2.871	-0.004	2.0	NoResponse	-1	0.227	n/a	7	62	ButtonPress	Loss	True
592.377	1.45	Lose2	0.6507999999999999	n/a	No	2.871	n/a	5.0	NoResponse	-1	0.028	591.405	7	62	Feedback	Loss	True
593.832	2.871	Lose2	0.6507999999999999	n/a	No	2.871	n/a	n/a	NoResponse	-1	0.0	n/a	7	62	ISIslide	Loss	True
596.724	0.25	Lose2	0.6562	0.0	Yes	2.626	0.024	n/a	GoodResponse	0	n/a	n/a	7	63	Cue	AvoidedLoss	True
596.974	4.05	Lose2	0.6562	0.0	Yes	2.626	0.0	n/a	GoodResponse	0	n/a	n/a	7	63	Fixation	AvoidedLoss	True
601.02	0.22	Lose2	0.6562	0.004	Yes	2.626	-0.004	2.0	GoodResponse	0	0.127	600.147	7	63	Target	AvoidedLoss	True
601.147	0.3	Lose2	0.6562	0.004	Yes	2.626	-0.004	2.0	GoodResponse	0	0.127	n/a	7	63	ButtonPress	AvoidedLoss	True
601.254	0.48	Lose2	0.6562	n/a	Yes	2.626	n/a	n/a	GoodResponse	0	n/a	n/a	7	63	Blank	AvoidedLoss	True
601.722	1.45	Lose2	0.6562	n/a	Yes	2.626	n/a	5.0	GoodResponse	0	0.0	600.722	7	63	Feedback	AvoidedLoss	True
603.176	2.626	Lose2	0.6562	n/a	Yes	2.626	n/a	n/a	GoodResponse	0	0.0	n/a	7	63	ISIslide	AvoidedLoss	True
605.817	0.25	Win2	0.6615000000000001	0.0	Yes	3.133	0.017	n/a	GoodResponse	1	n/a	n/a	8	64	Cue	Win	True
606.068	4.15	Win2	0.6615000000000001	0.0	Yes	3.133	0.001	n/a	GoodResponse	1	n/a	n/a	8	64	Fixation	Win	True
610.214	0.22	Win2	0.6615000000000001	0.003	Yes	3.133	-0.003	2.0	GoodResponse	1	0.19	609.404	8	64	Target	Win	True
610.404	0.3	Win2	0.6615000000000001	0.003	Yes	3.133	-0.003	2.0	GoodResponse	1	0.19	n/a	8	64	ButtonPress	Win	True
610.448	0.48	Win2	0.6615000000000001	n/a	Yes	3.133	n/a	n/a	GoodResponse	1	n/a	n/a	8	64	Blank	Win	True
610.916	1.45	Win2	0.6615000000000001	n/a	Yes	3.133	n/a	5.0	GoodResponse	1	0.026	609.942	8	64	Feedback	Win	True
612.37	3.133	Win2	0.6615000000000001	n/a	Yes	3.133	n/a	n/a	GoodResponse	1	0.0	n/a	8	64	ISIslide	Win	True
615.53	0.25	Control	0.6667000000000001	0.0	Yes	2.77	0.03	n/a	GoodResponse	0	n/a	n/a	8	65	Cue	Neutral	True
615.78	4.0	Control	0.6667000000000001	0.001	Yes	2.77	0.0	n/a	GoodResponse	0	n/a	n/a	8	65	Fixation	Neutral	True
619.776	0.22	Control	0.6667000000000001	0.004	Yes	2.77	-0.004	2.0	GoodResponse	0	0.204	618.98	8	65	Target	Neutral	True
619.98	0.3	Control	0.6667000000000001	0.004	Yes	2.77	-0.004	2.0	GoodResponse	0	0.204	n/a	8	65	ButtonPress	Neutral	True
620.01	0.48	Control	0.6667000000000001	n/a	Yes	2.77	n/a	n/a	GoodResponse	0	n/a	n/a	8	65	Blank	Neutral	True
620.478	1.45	Control	0.6667000000000001	n/a	Yes	2.77	n/a	5.0	GoodResponse	0	0.024	619.502	8	65	Feedback	Neutral	True
621.932	2.77	Control	0.6667000000000001	n/a	Yes	2.77	n/a	n/a	GoodResponse	0	0.0	n/a	8	65	ISIslide	Neutral	True
624.724	0.25	Win2	0.6567000000000001	0.0	No	2.776	0.024	n/a	NoResponse	0	n/a	n/a	8	66	Cue	MissedWin	True
624.975	3.9	Win2	0.6567000000000001	0.0	No	2.776	0.001	n/a	NoResponse	0	n/a	n/a	8	66	Fixation	MissedWin	True
628.87	0.21	Win2	0.6567000000000001	0.004	No	2.776	-0.004	2.0	NoResponse	0	0.27	628.14	8	66	Target	MissedWin	True
629.087	0.49	Win2	0.6567000000000001	n/a	No	2.776	n/a	n/a	NoResponse	0	n/a	n/a	8	66	Blank	MissedWin	True
629.14	0.3	Win2	0.6567000000000001	0.004	No	2.776	-0.004	2.0	NoResponse	0	0.27	n/a	8	66	ButtonPress	MissedWin	True
629.572	1.45	Win2	0.6567000000000001	n/a	No	2.776	n/a	5.0	NoResponse	0	0.008	628.58	8	66	Feedback	MissedWin	True
631.026	2.776	Win2	0.6567000000000001	n/a	No	2.776	n/a	n/a	NoResponse	0	0.0	n/a	8	66	ISIslide	MissedWin	True
633.818	0.25	Control	0.6470999999999999	0.0	No	2.732	0.018	n/a	NoResponse	0	n/a	n/a	8	67	Cue	Neutral	True
634.068	3.95	Control	0.6470999999999999	0.0	No	2.732	0.0	n/a	NoResponse	0	n/a	n/a	8	67	Fixation	Neutral	True
638.014	0.21	Control	0.6470999999999999	0.004	No	2.732	-0.004	2.0	NoResponse	0	0.327	637.341	8	67	Target	Neutral	True
638.231	0.49	Control	0.6470999999999999	n/a	No	2.732	n/a	n/a	NoResponse	0	n/a	n/a	8	67	Blank	Neutral	True
638.341	0.3	Control	0.6470999999999999	0.004	No	2.732	-0.004	2.0	NoResponse	0	0.327	n/a	8	67	ButtonPress	Neutral	True
638.716	1.45	Control	0.6470999999999999	n/a	No	2.732	n/a	5.0	NoResponse	0	0.03	637.746	8	67	Feedback	Neutral	True
640.17	2.732	Control	0.6470999999999999	n/a	No	2.732	n/a	n/a	NoResponse	0	0.0	n/a	8	67	ISIslide	Neutral	True
642.928	0.25	Win2	0.6522	0.0	Yes	3.072	0.028	n/a	GoodResponse	1	n/a	n/a	9	68	Cue	Win	True
643.179	4.0	Win2	0.6522	0.0	Yes	3.072	0.001	n/a	GoodResponse	1	n/a	n/a	9	68	Fixation	Win	True
647.174	0.22	Win2	0.6522	0.004	Yes	3.072	-0.004	2.0	GoodResponse	1	0.155	646.329	9	68	Target	Win	True
647.329	0.3	Win2	0.6522	0.004	Yes	3.072	-0.004	2.0	GoodResponse	1	0.155	n/a	9	68	ButtonPress	Win	True
647.408	0.48	Win2	0.6522	n/a	Yes	3.072	n/a	n/a	GoodResponse	1	n/a	n/a	9	68	Blank	Win	True
647.876	1.45	Win2	0.6522	n/a	Yes	3.072	n/a	5.0	GoodResponse	1	0.041	646.917	9	68	Feedback	Win	True
649.331	3.072	Win2	0.6522	n/a	Yes	3.072	n/a	n/a	GoodResponse	1	0.0	n/a	9	68	ISIslide	Win	True
652.423	0.25	Win2	0.6429	0.0	No	3.227	0.023	n/a	LatePress	0	n/a	n/a	9	69	Cue	MissedWin	True
652.674	3.95	Win2	0.6429	0.0	No	3.227	0.001	n/a	LatePress	0	n/a	n/a	9	69	Fixation	MissedWin	True
656.619	0.23	Win2	0.6429	0.004	No	3.227	-0.004	2.0	LatePress	0	0.231	655.85	9	69	Target	MissedWin	True
656.85	0.3	Win2	0.6429	0.004	No	3.227	-0.004	2.0	LatePress	0	0.231	n/a	9	69	ButtonPress	MissedWin	True
656.853	0.47	Win2	0.6429	n/a	No	3.227	n/a	n/a	LatePress	0	n/a	n/a	9	69	Blank	MissedWin	True
657.321	1.45	Win2	0.6429	n/a	No	3.227	n/a	5.0	LatePress	0	0.01	656.331	9	69	Feedback	MissedWin	True
658.775	3.227	Win2	0.6429	n/a	No	3.227	n/a	n/a	LatePress	0	0.0	n/a	9	69	ISIslide	MissedWin	True
662.019	0.25	Lose2	0.6479	0.0	Yes	3.031	0.019	n/a	GoodResponse	0	n/a	n/a	9	70	Cue	AvoidedLoss	True
662.269	4.05	Lose2	0.6479	0.0	Yes	3.031	0.0	n/a	GoodResponse	0	n/a	n/a	9	70	Fixation	AvoidedLoss	True
666.315	0.24	Lose2	0.6479	0.004	Yes	3.031	-0.004	2.0	GoodResponse	0	0.177	665.492	9	70	Target	AvoidedLoss	True
666.492	0.3	Lose2	0.6479	0.004	Yes	3.031	-0.004	2.0	GoodResponse	0	0.177	n/a	9	70	ButtonPress	AvoidedLoss	True
666.565	0.46	Lose2	0.6479	n/a	Yes	3.031	n/a	n/a	GoodResponse	0	n/a	n/a	9	70	Blank	AvoidedLoss	True
667.017	1.45	Lose2	0.6479	n/a	Yes	3.031	n/a	5.0	GoodResponse	0	0.021	666.038	9	70	Feedback	AvoidedLoss	True
668.471	3.031	Lose2	0.6479	n/a	Yes	3.031	n/a	n/a	GoodResponse	0	0.0	n/a	9	70	ISIslide	AvoidedLoss	True
671.53	0.25	Win2	0.6389	0.0	No	2.72	0.03	n/a	LatePress	0	n/a	n/a	9	71	Cue	MissedWin	True
671.781	4.05	Win2	0.6389	0.0	No	2.72	0.001	n/a	LatePress	0	n/a	n/a	9	71	Fixation	MissedWin	True
675.826	0.25	Win2	0.6389	0.004	No	2.72	-0.004	2.0	LatePress	0	0.253	675.079	9	71	Target	MissedWin	True
676.077	0.45	Win2	0.6389	n/a	No	2.72	n/a	n/a	LatePress	0	n/a	n/a	9	71	Blank	MissedWin	True
676.079	0.3	Win2	0.6389	0.004	No	2.72	-0.004	2.0	LatePress	0	0.253	n/a	9	71	ButtonPress	MissedWin	True
676.529	1.45	Win2	0.6389	n/a	No	2.72	n/a	5.0	LatePress	0	0.021	675.55	9	71	Feedback	MissedWin	True
677.983	2.72	Win2	0.6389	n/a	No	2.72	n/a	n/a	LatePress	0	0.0	n/a	9	71	ISIslide	MissedWin	True
680.724	0.25	Win2	0.6437999999999999	0.0	Yes	2.776	0.024	n/a	GoodResponse	1	n/a	n/a	10	72	Cue	Win	True
680.975	4.1	Win2	0.6437999999999999	0.0	Yes	2.776	0.001	n/a	GoodResponse	1	n/a	n/a	10	72	Fixation	Win	True
685.071	0.26	Win2	0.6437999999999999	0.003	Yes	2.776	-0.003	2.0	GoodResponse	1	0.194	684.265	10	72	Target	Win	True
685.265	0.3	Win2	0.6437999999999999	0.003	Yes	2.776	-0.003	2.0	GoodResponse	1	0.194	n/a	10	72	ButtonPress	Win	True
685.338	0.44	Win2	0.6437999999999999	n/a	Yes	2.776	n/a	n/a	GoodResponse	1	n/a	n/a	10	72	Blank	Win	True
685.773	1.45	Win2	0.6437999999999999	n/a	Yes	2.776	n/a	5.0	GoodResponse	1	0.046	684.819	10	72	Feedback	Win	True
687.227	2.776	Win2	0.6437999999999999	n/a	Yes	2.776	n/a	n/a	GoodResponse	1	0.0	n/a	10	72	ISIslide	Win	True
690.019	0.25	Win2	0.6486	0.0	Yes	2.681	0.019	n/a	GoodResponse	1	n/a	n/a	11	73	Cue	Win	True
690.27	4.0	Win2	0.6486	0.0	Yes	2.681	0.001	n/a	GoodResponse	1	n/a	n/a	11	73	Fixation	Win	True
694.265	0.27	Win2	0.6486	0.004	Yes	2.681	-0.004	2.0	GoodResponse	1	0.204	693.469	11	73	Target	Win	True
694.469	0.3	Win2	0.6486	0.004	Yes	2.681	-0.004	2.0	GoodResponse	1	0.204	n/a	11	73	ButtonPress	Win	True
694.549	0.43	Win2	0.6486	n/a	Yes	2.681	n/a	n/a	GoodResponse	1	n/a	n/a	11	73	Blank	Win	True
694.967	1.45	Win2	0.6486	n/a	Yes	2.681	n/a	5.0	GoodResponse	1	0.021	693.988	11	73	Feedback	Win	True
696.421	2.681	Win2	0.6486	n/a	Yes	2.681	n/a	n/a	GoodResponse	1	0.0	n/a	11	73	ISIslide	Win	True
699.129	0.25	Lose2	0.6533	0.0	Yes	2.621	0.029	n/a	GoodResponse	0	n/a	n/a	11	74	Cue	AvoidedLoss	True
699.38	4.05	Lose2	0.6533	0.0	Yes	2.621	0.001	n/a	GoodResponse	0	n/a	n/a	11	74	Fixation	AvoidedLoss	True
703.426	0.28	Lose2	0.6533	0.003	Yes	2.621	-0.003	2.0	GoodResponse	0	0.153	702.579	11	74	Target	AvoidedLoss	True
703.579	0.3	Lose2	0.6533	0.003	Yes	2.621	-0.003	2.0	GoodResponse	0	0.153	n/a	11	74	ButtonPress	AvoidedLoss	True
703.71	0.42	Lose2	0.6533	n/a	Yes	2.621	n/a	n/a	GoodResponse	0	n/a	n/a	11	74	Blank	AvoidedLoss	True
704.128	1.45	Lose2	0.6533	n/a	Yes	2.621	n/a	5.0	GoodResponse	0	0.031	703.159	11	74	Feedback	AvoidedLoss	True
705.582	2.621	Lose2	0.6533	n/a	Yes	2.621	n/a	n/a	GoodResponse	0	0.0	n/a	11	74	ISIslide	AvoidedLoss	True
708.223	0.25	Lose2	0.6579	0.0	Yes	2.927	0.023	n/a	GoodResponse	0	n/a	n/a	11	75	Cue	AvoidedLoss	True
708.474	3.95	Lose2	0.6579	0.0	Yes	2.927	0.001	n/a	GoodResponse	0	n/a	n/a	11	75	Fixation	AvoidedLoss	True
712.419	0.29	Lose2	0.6579	0.004	Yes	2.927	-0.004	2.0	GoodResponse	0	0.197	711.616	11	75	Target	AvoidedLoss	True
712.616	0.3	Lose2	0.6579	0.004	Yes	2.927	-0.004	2.0	GoodResponse	0	0.197	n/a	11	75	ButtonPress	AvoidedLoss	True
712.72	0.41	Lose2	0.6579	n/a	Yes	2.927	n/a	n/a	GoodResponse	0	n/a	n/a	11	75	Blank	AvoidedLoss	True
713.121	1.45	Lose2	0.6579	n/a	Yes	2.927	n/a	5.0	GoodResponse	0	0.014	712.135	11	75	Feedback	AvoidedLoss	True
714.575	2.927	Lose2	0.6579	n/a	Yes	2.927	n/a	n/a	GoodResponse	0	0.0	n/a	11	75	ISIslide	AvoidedLoss	True
717.518	0.25	Control	0.6623	0.0	Yes	3.232	0.018	n/a	GoodResponse	0	n/a	n/a	11	76	Cue	Neutral	True
717.768	4.05	Control	0.6623	0.0	Yes	3.232	0.0	n/a	GoodResponse	0	n/a	n/a	11	76	Fixation	Neutral	True
721.814	0.29	Control	0.6623	0.004	Yes	3.232	-0.004	2.0	GoodResponse	0	0.237	721.051	11	76	Target	Neutral	True
722.051	0.3	Control	0.6623	0.004	Yes	3.232	-0.004	2.0	GoodResponse	0	0.237	n/a	11	76	ButtonPress	Neutral	True
722.115	0.41	Control	0.6623	n/a	Yes	3.232	n/a	n/a	GoodResponse	0	n/a	n/a	11	76	Blank	Neutral	True
722.516	1.45	Control	0.6623	n/a	Yes	3.232	n/a	5.0	GoodResponse	0	0.034	721.55	11	76	Feedback	Neutral	True
723.97	3.232	Control	0.6623	n/a	Yes	3.232	n/a	n/a	GoodResponse	0	0.0	n/a	11	76	ISIslide	Neutral	True
727.23	0.25	Lose2	0.6667000000000001	0.0	Yes	2.57	0.03	n/a	GoodResponse	0	n/a	n/a	11	77	Cue	AvoidedLoss	True
727.481	3.95	Lose2	0.6667000000000001	0.0	Yes	2.57	0.001	n/a	GoodResponse	0	n/a	n/a	11	77	Fixation	AvoidedLoss	True
731.426	0.29	Lose2	0.6667000000000001	0.004	Yes	2.57	-0.004	2.0	GoodResponse	0	0.205	730.631	11	77	Target	AvoidedLoss	True
731.631	0.3	Lose2	0.6667000000000001	0.004	Yes	2.57	-0.004	2.0	GoodResponse	0	0.205	n/a	11	77	ButtonPress	AvoidedLoss	True
731.727	0.41	Lose2	0.6667000000000001	n/a	Yes	2.57	n/a	n/a	GoodResponse	0	n/a	n/a	11	77	Blank	AvoidedLoss	True
732.128	1.45	Lose2	0.6667000000000001	n/a	Yes	2.57	n/a	5.0	GoodResponse	0	0.031	731.159	11	77	Feedback	AvoidedLoss	True
733.582	2.57	Lose2	0.6667000000000001	n/a	Yes	2.57	n/a	n/a	GoodResponse	0	0.0	n/a	11	77	ISIslide	AvoidedLoss	True
