onset	duration	cue_type	current_mean_accuracy	duration_error	is_hit	isi_adjusted	onset_delay	response	response_type	reward	rt	rt_time	total_reward	trial_number	trial_phase	trial_type	one_press
11.096	0.25	Control	1.0	0.0	Yes	2.954	-0.004	n/a	GoodResponse	0	n/a	n/a	0	0	Cue	Neutral	True
11.347	3.85	Control	1.0	0.0	Yes	2.954	0.001	n/a	GoodResponse	0	n/a	n/a	0	0	Fixation	Neutral	True
15.192	0.4	Control	1.0	0.004	Yes	2.954	-0.004	2.0	GoodResponse	0	0.238	14.43	0	0	Target	Neutral	True
15.43	0.3	Control	1.0	0.004	Yes	2.954	-0.004	2.0	GoodResponse	0	0.238	n/a	0	0	ButtonPress	Neutral	True
15.593	0.3	Control	1.0	n/a	Yes	2.954	n/a	n/a	GoodResponse	0	n/a	n/a	0	0	Blank	Neutral	True
15.894	1.45	Control	1.0	n/a	Yes	2.954	n/a	5.0	GoodResponse	0	0.033	14.927	0	0	Feedback	Neutral	True
17.348	2.954	Control	1.0	n/a	Yes	2.954	n/a	n/a	GoodResponse	0	0.0	n/a	0	0	ISIslide	Neutral	True
20.324	0.25	Lose2	1.0	0.0	Yes	2.776	0.024	n/a	GoodResponse	0	n/a	n/a	0	1	Cue	AvoidedLoss	True
20.574	4.0	Lose2	1.0	0.0	Yes	2.776	0.0	n/a	GoodResponse	0	n/a	n/a	0	1	Fixation	AvoidedLoss	True
24.57	0.39	Lose2	1.0	0.004	Yes	2.776	-0.004	2.0	GoodResponse	0	0.253	23.823	0	1	Target	AvoidedLoss	True
24.823	0.3	Lose2	1.0	0.004	Yes	2.776	-0.004	2.0	GoodResponse	0	0.253	n/a	0	1	ButtonPress	AvoidedLoss	True
24.971	0.31	Lose2	1.0	n/a	Yes	2.776	n/a	n/a	GoodResponse	0	n/a	n/a	0	1	Blank	AvoidedLoss	True
25.272	1.45	Lose2	1.0	n/a	Yes	2.776	n/a	5.0	GoodResponse	0	0.021	24.293	0	1	Feedback	AvoidedLoss	True
26.726	2.776	Lose2	1.0	n/a	Yes	2.776	n/a	n/a	GoodResponse	0	0.0	n/a	0	1	ISIslide	AvoidedLoss	True
29.518	0.25	Control	1.0	0.0	Yes	2.582	0.018	n/a	GoodResponse	0	n/a	n/a	0	2	Cue	Neutral	True
29.769	4.1	Control	1.0	0.0	Yes	2.582	0.001	n/a	GoodResponse	0	n/a	n/a	0	2	Fixation	Neutral	True
33.864	0.38	Control	1.0	0.004	Yes	2.582	-0.004	2.0	GoodResponse	0	0.218	33.082	0	2	Target	Neutral	True
34.082	0.3	Control	1.0	0.004	Yes	2.582	-0.004	2.0	GoodResponse	0	0.218	n/a	0	2	ButtonPress	Neutral	True
34.249	0.32	Control	1.0	n/a	Yes	2.582	n/a	n/a	GoodResponse	0	n/a	n/a	0	2	Blank	Neutral	True
34.566	1.45	Control	1.0	n/a	Yes	2.582	n/a	5.0	GoodResponse	0	0.044	33.61	0	2	Feedback	Neutral	True
36.021	2.582	Control	1.0	n/a	Yes	2.582	n/a	n/a	GoodResponse	0	0.0	n/a	0	2	ISIslide	Neutral	True
38.629	0.25	Win2	1.0	0.0	Yes	2.821	0.029	n/a	GoodResponse	1	n/a	n/a	1	3	Cue	Win	True
38.879	3.95	Win2	1.0	0.0	Yes	2.821	0.0	n/a	GoodResponse	1	n/a	n/a	1	3	Fixation	Win	True
42.824	0.37	Win2	1.0	0.005	Yes	2.821	-0.005	2.0	GoodResponse	1	0.238	42.062	1	3	Target	Win	True
43.062	0.3	Win2	1.0	0.005	Yes	2.821	-0.005	2.0	GoodResponse	1	0.238	n/a	1	3	ButtonPress	Win	True
43.209	0.33	Win2	1.0	n/a	Yes	2.821	n/a	n/a	GoodResponse	1	n/a	n/a	1	3	Blank	Win	True
43.527	1.45	Win2	1.0	n/a	Yes	2.821	n/a	5.0	GoodResponse	1	0.01	42.537	1	3	Feedback	Win	True
44.981	2.821	Win2	1.0	n/a	Yes	2.821	n/a	n/a	GoodResponse	1	0.0	n/a	1	3	ISIslide	Win	True
47.823	0.25	Win2	1.0	0.0	Yes	3.277	0.023	n/a	GoodResponse	1	n/a	n/a	2	4	Cue	Win	True
48.074	4.0	Win2	1.0	0.0	Yes	3.277	0.001	n/a	GoodResponse	1	n/a	n/a	2	4	Fixation	Win	True
52.069	0.36	Win2	1.0	0.004	Yes	3.277	-0.004	2.0	GoodResponse	1	0.22	51.289	2	4	Target	Win	True
52.289	0.3	Win2	1.0	0.004	Yes	3.277	-0.004	2.0	GoodResponse	1	0.22	n/a	2	4	ButtonPress	Win	True
52.437	0.34	Win2	1.0	n/a	Yes	3.277	n/a	n/a	GoodResponse	1	n/a	n/a	2	4	Blank	Win	True
52.771	1.45	Win2	1.0	n/a	Yes	3.277	n/a	5.0	GoodResponse	1	0.033	51.804	2	4	Feedback	Win	True
54.225	3.277	Win2	1.0	n/a	Yes	3.277	n/a	n/a	GoodResponse	1	0.0	n/a	2	4	ISIslide	Win	True
57.519	0.25	Win2	1.0	0.0	Yes	2.781	0.019	n/a	GoodResponse	1	n/a	n/a	3	5	Cue	Win	True
57.769	4.0	Win2	1.0	0.0	Yes	2.781	0.0	n/a	GoodResponse	1	n/a	n/a	3	5	Fixation	Win	True
61.765	0.35	Win2	1.0	0.004	Yes	2.781	-0.004	2.0	GoodResponse	1	0.159	60.924	3	5	Target	Win	True
61.924	0.3	Win2	1.0	0.004	Yes	2.781	-0.004	2.0	GoodResponse	1	0.159	n/a	3	5	ButtonPress	Win	True
62.116	0.35	Win2	1.0	n/a	Yes	2.781	n/a	n/a	GoodResponse	1	n/a	n/a	3	5	Blank	Win	True
62.467	1.45	Win2	1.0	n/a	Yes	2.781	n/a	5.0	GoodResponse	1	0.045	61.512	3	5	Feedback	Win	True
63.921	2.781	Win2	1.0	n/a	Yes	2.781	n/a	n/a	GoodResponse	1	0.0	n/a	3	5	ISIslide	Win	True
66.729	0.25	Lose2	1.0	0.001	Yes	2.721	0.029	n/a	GoodResponse	0	n/a	n/a	3	6	Cue	AvoidedLoss	True
66.98	3.95	Lose2	1.0	0.0	Yes	2.721	0.001	n/a	GoodResponse	0	n/a	n/a	3	6	Fixation	AvoidedLoss	True
70.925	0.34	Lose2	1.0	0.004	Yes	2.721	-0.004	2.0	GoodResponse	0	0.209	70.134	3	6	Target	AvoidedLoss	True
71.134	0.3	Lose2	1.0	0.004	Yes	2.721	-0.004	2.0	GoodResponse	0	0.209	n/a	3	6	ButtonPress	AvoidedLoss	True
71.276	0.36	Lose2	1.0	n/a	Yes	2.721	n/a	n/a	GoodResponse	0	n/a	n/a	3	6	Blank	AvoidedLoss	True
71.628	1.45	Lose2	1.0	n/a	Yes	2.721	n/a	5.0	GoodResponse	0	0.007	70.635	3	6	Feedback	AvoidedLoss	True
73.082	2.721	Lose2	1.0	n/a	Yes	2.721	n/a	n/a	GoodResponse	0	0.0	n/a	3	6	ISIslide	AvoidedLoss	True
75.823	0.25	Lose2	1.0	0.001	Yes	4.027	0.023	n/a	GoodResponse	0	n/a	n/a	3	7	Cue	AvoidedLoss	True
76.074	4.05	Lose2	1.0	0.0	Yes	4.027	0.001	n/a	GoodResponse	0	n/a	n/a	3	7	Fixation	AvoidedLoss	True
80.12	0.33	Lose2	1.0	0.003	Yes	4.027	-0.003	2.0	GoodResponse	0	0.247	79.367	3	7	Target	AvoidedLoss	True
80.367	0.3	Lose2	1.0	0.003	Yes	4.027	-0.003	2.0	GoodResponse	0	0.247	n/a	3	7	ButtonPress	AvoidedLoss	True
80.454	0.37	Lose2	1.0	n/a	Yes	4.027	n/a	n/a	GoodResponse	0	n/a	n/a	3	7	Blank	AvoidedLoss	True
80.822	1.45	Lose2	1.0	n/a	Yes	4.027	n/a	5.0	GoodResponse	0	0.031	79.853	3	7	Feedback	AvoidedLoss	True
82.276	4.027	Lose2	1.0	n/a	Yes	4.027	n/a	n/a	GoodResponse	0	0.0	n/a	3	7	ISIslide	AvoidedLoss	True
86.322	0.25	Lose2	1.0	0.0	Yes	3.028	0.022	n/a	GoodResponse	0	n/a	n/a	3	8	Cue	AvoidedLoss	True
86.572	3.95	Lose2	1.0	0.0	Yes	3.028	0.0	n/a	GoodResponse	0	n/a	n/a	3	8	Fixation	AvoidedLoss	True
90.534	0.32	Lose2	1.0	0.0	Yes	3.028	0.012	2.0	GoodResponse	0	0.21	89.744	3	8	Target	AvoidedLoss	True
90.744	0.3	Lose2	1.0	0.0	Yes	3.028	0.012	2.0	GoodResponse	0	0.21	n/a	3	8	ButtonPress	AvoidedLoss	True
90.852	0.38	Lose2	1.0	n/a	Yes	3.028	n/a	n/a	GoodResponse	0	n/a	n/a	3	8	Blank	AvoidedLoss	True
91.22	1.45	Lose2	1.0	n/a	Yes	3.028	n/a	5.0	GoodResponse	0	0.024	90.244	3	8	Feedback	AvoidedLoss	True
92.674	3.028	Lose2	1.0	n/a	Yes	3.028	n/a	n/a	GoodResponse	0	0.0	n/a	3	8	ISIslide	AvoidedLoss	True
95.716	0.25	Lose2	1.0	0.001	Yes	3.134	0.016	n/a	GoodResponse	0	n/a	n/a	3	9	Cue	AvoidedLoss	True
95.967	3.95	Lose2	1.0	0.0	Yes	3.134	0.001	n/a	GoodResponse	0	n/a	n/a	3	9	Fixation	AvoidedLoss	True
99.912	0.31	Lose2	1.0	0.004	Yes	3.134	-0.004	2.0	GoodResponse	0	0.203	99.115	3	9	Target	AvoidedLoss	True
100.115	0.3	Lose2	1.0	0.004	Yes	3.134	-0.004	2.0	GoodResponse	0	0.203	n/a	3	9	ButtonPress	AvoidedLoss	True
100.23	0.39	Lose2	1.0	n/a	Yes	3.134	n/a	n/a	GoodResponse	0	n/a	n/a	3	9	Blank	AvoidedLoss	True
100.614	1.45	Lose2	1.0	n/a	Yes	3.134	n/a	5.0	GoodResponse	0	0.045	99.659	3	9	Feedback	AvoidedLoss	True
102.069	3.134	Lose2	1.0	n/a	Yes	3.134	n/a	n/a	GoodResponse	0	0.0	n/a	3	9	ISIslide	AvoidedLoss	True
105.228	0.25	Control	1.0	0.0	Yes	3.272	0.028	n/a	GoodResponse	0	n/a	n/a	3	10	Cue	Neutral	True
105.479	4.0	Control	1.0	0.0	Yes	3.272	0.001	n/a	GoodResponse	0	n/a	n/a	3	10	Fixation	Neutral	True
109.474	0.3	Control	1.0	0.004	Yes	3.272	-0.004	2.0	GoodResponse	0	0.235	108.709	3	10	Target	Neutral	True
109.709	0.3	Control	1.0	0.004	Yes	3.272	-0.004	2.0	GoodResponse	0	0.235	n/a	3	10	ButtonPress	Neutral	True
109.775	0.4	Control	1.0	n/a	Yes	3.272	n/a	n/a	GoodResponse	0	n/a	n/a	3	10	Blank	Neutral	True
110.176	1.45	Control	1.0	n/a	Yes	3.272	n/a	5.0	GoodResponse	0	0.044	109.22	3	10	Feedback	Neutral	True
111.631	3.272	Control	1.0	n/a	Yes	3.272	n/a	n/a	GoodResponse	0	0.0	n/a	3	10	ISIslide	Neutral	True
114.924	0.25	Lose2	1.0	0.0	Yes	2.726	0.024	n/a	GoodResponse	0	n/a	n/a	3	11	Cue	AvoidedLoss	True
115.175	4.05	Lose2	1.0	0.0	Yes	2.726	0.001	n/a	GoodResponse	0	n/a	n/a	3	11	Fixation	AvoidedLoss	True
119.22	0.29	Lose2	1.0	0.004	Yes	2.726	-0.004	2.0	GoodResponse	0	0.201	118.421	3	11	Target	AvoidedLoss	True
119.421	0.3	Lose2	1.0	0.004	Yes	2.726	-0.004	2.0	GoodResponse	0	0.201	n/a	3	11	ButtonPress	AvoidedLoss	True
119.521	0.41	Lose2	1.0	n/a	Yes	2.726	n/a	n/a	GoodResponse	0	n/a	n/a	3	11	Blank	AvoidedLoss	True
119.922	1.45	Lose2	1.0	n/a	Yes	2.726	n/a	5.0	GoodResponse	0	0.008	118.93	3	11	Feedback	AvoidedLoss	True
121.377	2.726	Lose2	1.0	n/a	Yes	2.726	n/a	n/a	GoodResponse	0	0.0	n/a	3	11	ISIslide	AvoidedLoss	True
124.118	0.25	Control	1.0	0.0	Yes	2.982	0.018	n/a	GoodResponse	0	n/a	n/a	3	12	Cue	Neutral	True
124.369	3.9	Control	1.0	0.0	Yes	2.982	0.001	n/a	GoodResponse	0	n/a	n/a	3	12	Fixation	Neutral	True
128.264	0.28	Control	1.0	0.004	Yes	2.982	-0.004	2.0	GoodResponse	0	0.233	127.497	3	12	Target	Neutral	True
128.497	0.3	Control	1.0	0.004	Yes	2.982	-0.004	2.0	GoodResponse	0	0.233	n/a	3	12	ButtonPress	Neutral	True
128.548	0.42	Control	1.0	n/a	Yes	2.982	n/a	n/a	GoodResponse	0	n/a	n/a	3	12	Blank	Neutral	True
128.966	1.45	Control	1.0	n/a	Yes	2.982	n/a	5.0	GoodResponse	0	0.033	127.999	3	12	Feedback	Neutral	True
130.421	2.982	Control	1.0	n/a	Yes	2.982	n/a	n/a	GoodResponse	0	0.0	n/a	3	12	ISIslide	Neutral	True
133.43	0.25	Control	0.9286	0.0	No	2.77	0.03	n/a	NoResponse	0	n/a	n/a	3	13	Cue	Neutral	True
133.68	4.0	Control	0.9286	0.0	No	2.77	0.0	n/a	NoResponse	0	n/a	n/a	3	13	Fixation	Neutral	True
137.676	0.27	Control	0.9286	0.004	No	2.77	-0.004	2.0	NoResponse	0	0.295	136.971	3	13	Target	Neutral	True
137.96	0.43	Control	0.9286	n/a	No	2.77	n/a	n/a	NoResponse	0	n/a	n/a	3	13	Blank	Neutral	True
137.971	0.3	Control	0.9286	0.004	No	2.77	-0.004	2.0	NoResponse	0	0.295	n/a	3	13	ButtonPress	Neutral	True
138.378	1.45	Control	0.9286	n/a	No	2.77	n/a	5.0	NoResponse	0	0.036	137.414	3	13	Feedback	Neutral	True
139.832	2.77	Control	0.9286	n/a	No	2.77	n/a	n/a	NoResponse	0	0.0	n/a	3	13	ISIslide	Neutral	True
142.624	0.25	Win2	0.9333	0.0	Yes	2.676	0.024	n/a	GoodResponse	1	n/a	n/a	4	14	Cue	Win	True
142.875	4.1	Win2	0.9333	0.0	Yes	2.676	0.001	n/a	GoodResponse	1	n/a	n/a	4	14	Fixation	Win	True
146.97	0.26	Win2	0.9333	0.004	Yes	2.676	-0.004	2.0	GoodResponse	1	0.211	146.181	4	14	Target	Win	True
147.181	0.3	Win2	0.9333	0.004	Yes	2.676	-0.004	2.0	GoodResponse	1	0.211	n/a	4	14	ButtonPress	Win	True
147.238	0.44	Win2	0.9333	n/a	Yes	2.676	n/a	n/a	GoodResponse	1	n/a	n/a	4	14	Blank	Win	True
147.672	1.45	Win2	0.9333	n/a	Yes	2.676	n/a	5.0	GoodResponse	1	0.01	146.682	4	14	Feedback	Win	True
149.127	2.676	Win2	0.9333	n/a	Yes	2.676	n/a	n/a	GoodResponse	1	0.0	n/a	4	14	ISIslide	Win	True
151.818	0.25	Control	0.9375	0.0	Yes	2.982	0.018	n/a	GoodResponse	0	n/a	n/a	4	15	Cue	Neutral	True
152.069	4.0	Control	0.9375	0.0	Yes	2.982	0.001	n/a	GoodResponse	0	n/a	n/a	4	15	Fixation	Neutral	True
156.064	0.25	Control	0.9375	0.004	Yes	2.982	-0.004	2.0	GoodResponse	0	0.225	155.289	4	15	Target	Neutral	True
156.289	0.3	Control	0.9375	0.004	Yes	2.982	-0.004	2.0	GoodResponse	0	0.225	n/a	4	15	ButtonPress	Neutral	True
156.315	0.45	Control	0.9375	n/a	Yes	2.982	n/a	n/a	GoodResponse	0	n/a	n/a	4	15	Blank	Neutral	True
156.766	1.45	Control	0.9375	n/a	Yes	2.982	n/a	5.0	GoodResponse	0	0.039	155.805	4	15	Feedback	Neutral	True
158.221	2.982	Control	0.9375	n/a	Yes	2.982	n/a	n/a	GoodResponse	0	0.0	n/a	4	15	ISIslide	Neutral	True
161.23	0.25	Win2	0.9412	0.0	Yes	2.87	0.03	n/a	GoodResponse	1	n/a	n/a	5	16	Cue	Win	True
161.48	4.0	Win2	0.9412	0.0	Yes	2.87	0.0	n/a	GoodResponse	1	n/a	n/a	5	16	Fixation	Win	True
165.476	0.24	Win2	0.9412	0.004	Yes	2.87	-0.004	2.0	GoodResponse	1	0.205	164.681	5	16	Target	Win	True
165.681	0.3	Win2	0.9412	0.004	Yes	2.87	-0.004	2.0	GoodResponse	1	0.205	n/a	5	16	ButtonPress	Win	True
165.726	0.46	Win2	0.9412	n/a	Yes	2.87	n/a	n/a	GoodResponse	1	n/a	n/a	5	16	Blank	Win	True
166.178	1.45	Win2	0.9412	n/a	Yes	2.87	n/a	5.0	GoodResponse	1	0.041	165.219	5	16	Feedback	Win	True
167.632	2.87	Win2	0.9412	n/a	Yes	2.87	n/a	n/a	GoodResponse	1	0.0	n/a	5	16	ISIslide	Win	True
170.524	0.25	Lose2	0.9444	0.0	Yes	2.726	0.024	n/a	GoodResponse	0	n/a	n/a	5	17	Cue	AvoidedLoss	True
170.775	3.95	Lose2	0.9444	0.0	Yes	2.726	0.001	n/a	GoodResponse	0	n/a	n/a	5	17	Fixation	AvoidedLoss	True
174.72	0.23	Lose2	0.9444	0.004	Yes	2.726	-0.004	2.0	GoodResponse	0	0.205	173.925	5	17	Target	AvoidedLoss	True
174.925	0.3	Lose2	0.9444	0.004	Yes	2.726	-0.004	2.0	GoodResponse	0	0.205	n/a	5	17	ButtonPress	AvoidedLoss	True
174.954	0.47	Lose2	0.9444	n/a	Yes	2.726	n/a	n/a	GoodResponse	0	n/a	n/a	5	17	Blank	AvoidedLoss	True
175.422	1.45	Lose2	0.9444	n/a	Yes	2.726	n/a	5.0	GoodResponse	0	0.017	174.439	5	17	Feedback	AvoidedLoss	True
176.877	2.726	Lose2	0.9444	n/a	Yes	2.726	n/a	n/a	GoodResponse	0	0.0	n/a	5	17	ISIslide	AvoidedLoss	True
179.618	0.25	Lose2	0.9473999999999999	0.0	Yes	2.732	0.018	n/a	GoodResponse	0	n/a	n/a	5	18	Cue	AvoidedLoss	True
179.869	4.05	Lose2	0.9473999999999999	0.0	Yes	2.732	0.001	n/a	GoodResponse	0	n/a	n/a	5	18	Fixation	AvoidedLoss	True
183.914	0.22	Lose2	0.9473999999999999	0.004	Yes	2.732	-0.004	2.0	GoodResponse	0	0.202	183.116	5	18	Target	AvoidedLoss	True
184.116	0.3	Lose2	0.9473999999999999	0.004	Yes	2.732	-0.004	2.0	GoodResponse	0	0.202	n/a	5	18	ButtonPress	AvoidedLoss	True
184.148	0.48	Lose2	0.9473999999999999	n/a	Yes	2.732	n/a	n/a	GoodResponse	0	n/a	n/a	5	18	Blank	AvoidedLoss	True
184.616	1.45	Lose2	0.9473999999999999	n/a	Yes	2.732	n/a	5.0	GoodResponse	0	0.042	183.658	5	18	Feedback	AvoidedLoss	True
186.071	2.732	Lose2	0.9473999999999999	n/a	Yes	2.732	n/a	n/a	GoodResponse	0	0.0	n/a	5	18	ISIslide	AvoidedLoss	True
188.829	0.25	Control	0.9	0.0	No	2.921	0.029	n/a	NoResponse	0	n/a	n/a	5	19	Cue	Neutral	True
189.08	3.95	Control	0.9	0.0	No	2.921	0.001	2.0	NoResponse	0	3.657	191.737	5	19	Fixation	Neutral	True
192.737	0.3	Control	0.9	0.0	No	2.921	0.001	2.0	NoResponse	0	3.657	n/a	5	19	ButtonPress	Neutral	True
193.025	0.21	Control	0.9	0.004	No	2.921	-0.004	n/a	NoResponse	0	n/a	n/a	5	19	Target	Neutral	True
193.242	0.49	Control	0.9	n/a	No	2.921	n/a	n/a	NoResponse	0	n/a	n/a	5	19	Blank	Neutral	True
193.727	1.45	Control	0.9	n/a	No	2.921	n/a	5.0	NoResponse	0	0.007	192.734	5	19	Feedback	Neutral	True
195.181	2.921	Control	0.9	n/a	No	2.921	n/a	n/a	NoResponse	0	0.0	n/a	5	19	ISIslide	Neutral	True
198.124	0.25	Control	0.9048	0.0	Yes	2.626	0.024	n/a	GoodResponse	0	n/a	n/a	5	20	Cue	Neutral	True
198.374	4.05	Control	0.9048	0.0	Yes	2.626	0.0	n/a	GoodResponse	0	n/a	n/a	5	20	Fixation	Neutral	True
202.42	0.2	Control	0.9048	0.004	Yes	2.626	-0.004	2.0	GoodResponse	0	0.194	201.614	5	20	Target	Neutral	True
202.614	0.3	Control	0.9048	0.004	Yes	2.626	-0.004	2.0	GoodResponse	0	0.194	n/a	5	20	ButtonPress	Neutral	True
202.62	0.5	Control	0.9048	n/a	Yes	2.626	n/a	n/a	GoodResponse	0	n/a	n/a	5	20	Blank	Neutral	True
203.122	1.45	Control	0.9048	n/a	Yes	2.626	n/a	5.0	GoodResponse	0	0.023	202.145	5	20	Feedback	Neutral	True
204.576	2.626	Control	0.9048	n/a	Yes	2.626	n/a	n/a	GoodResponse	0	0.0	n/a	5	20	ISIslide	Neutral	True
207.218	0.25	Control	0.8636	0.0	No	2.782	0.018	n/a	NoResponse	0	n/a	n/a	5	21	Cue	Neutral	True
207.468	4.1	Control	0.8636	0.0	No	2.782	0.0	n/a	NoResponse	0	n/a	n/a	5	21	Fixation	Neutral	True
211.564	0.19	Control	0.8636	0.004	No	2.782	-0.004	2.0	NoResponse	0	0.219	210.783	5	21	Target	Neutral	True
211.765	0.51	Control	0.8636	n/a	No	2.782	n/a	n/a	NoResponse	0	n/a	n/a	5	21	Blank	Neutral	True
211.783	0.3	Control	0.8636	0.004	No	2.782	-0.004	2.0	NoResponse	0	0.219	n/a	5	21	ButtonPress	Neutral	True
212.266	1.45	Control	0.8636	n/a	No	2.782	n/a	5.0	NoResponse	0	0.001	211.267	5	21	Feedback	Neutral	True
213.72	2.782	Control	0.8636	n/a	No	2.782	n/a	n/a	NoResponse	0	0.0	n/a	5	21	ISIslide	Neutral	True
216.529	0.25	Control	0.8261	0.0	No	2.771	0.029	n/a	PrematurePress	0	n/a	n/a	5	22	Cue	Neutral	True
216.78	4.0	Control	0.8261	0.0	No	2.771	0.001	n/a	PrematurePress	0	n/a	n/a	5	22	Fixation	Neutral	True
220.775	0.18	Control	0.8261	0.004	No	2.771	-0.004	2.0	PrematurePress	0	0.011	219.786	5	22	Target	Neutral	True
220.786	0.3	Control	0.8261	0.004	No	2.771	-0.004	2.0	PrematurePress	0	0.011	n/a	5	22	ButtonPress	Neutral	True
220.959	0.52	Control	0.8261	n/a	No	2.771	n/a	n/a	PrematurePress	0	n/a	n/a	5	22	Blank	Neutral	True
221.477	1.45	Control	0.8261	n/a	No	2.771	n/a	5.0	PrematurePress	0	0.01	220.487	5	22	Feedback	Neutral	True
222.931	2.771	Control	0.8261	n/a	No	2.771	n/a	n/a	PrematurePress	0	0.0	n/a	5	22	ISIslide	Neutral	True
225.723	0.25	Control	0.7917000000000001	0.0	No	2.777	0.023	n/a	NoResponse	0	n/a	n/a	5	23	Cue	Neutral	True
225.974	3.9	Control	0.7917000000000001	0.0	No	2.777	0.001	n/a	NoResponse	0	n/a	n/a	5	23	Fixation	Neutral	True
229.869	0.17	Control	0.7917000000000001	0.004	No	2.777	-0.004	2.0	NoResponse	0	0.212	229.081	5	23	Target	Neutral	True
230.053	0.53	Control	0.7917000000000001	n/a	No	2.777	n/a	n/a	NoResponse	0	n/a	n/a	5	23	Blank	Neutral	True
230.081	0.3	Control	0.7917000000000001	0.004	No	2.777	-0.004	2.0	NoResponse	0	0.212	n/a	5	23	ButtonPress	Neutral	True
230.571	1.45	Control	0.7917000000000001	n/a	No	2.777	n/a	5.0	NoResponse	0	0.038	229.609	5	23	Feedback	Neutral	True
232.025	2.777	Control	0.7917000000000001	n/a	No	2.777	n/a	n/a	NoResponse	0	0.0	n/a	5	23	ISIslide	Neutral	True
234.817	0.25	Win2	0.76	0.0	No	3.133	0.017	n/a	NoResponse	0	n/a	n/a	5	24	Cue	MissedWin	True
235.068	3.95	Win2	0.76	0.0	No	3.133	0.001	n/a	NoResponse	0	n/a	n/a	5	24	Fixation	MissedWin	True
239.013	0.16	Win2	0.76	0.004	No	3.133	-0.004	2.0	NoResponse	0	0.186	238.199	5	24	Target	MissedWin	True
239.18	0.54	Win2	0.76	n/a	No	3.133	n/a	n/a	NoResponse	0	n/a	n/a	5	24	Blank	MissedWin	True
239.199	0.3	Win2	0.76	0.004	No	3.133	-0.004	2.0	NoResponse	0	0.186	n/a	5	24	ButtonPress	MissedWin	True
239.715	1.45	Win2	0.76	n/a	No	3.133	n/a	5.0	NoResponse	0	0.016	238.731	5	24	Feedback	MissedWin	True
241.169	3.133	Win2	0.76	n/a	No	3.133	n/a	n/a	NoResponse	0	0.0	n/a	5	24	ISIslide	MissedWin	True
244.329	0.25	Win2	0.7308	0.0	No	3.071	0.029	n/a	NoResponse	0	n/a	n/a	5	25	Cue	MissedWin	False
244.58	4.0	Win2	0.7308	0.0	No	3.071	0.001	2.0	NoResponse	0	2.785	246.365	5	25	Fixation	MissedWin	False
247.365	0.3	Win2	0.7308	0.0	No	3.071	0.001	2.0	NoResponse	0	2.785	n/a	5	25	ButtonPress	MissedWin	False
248.575	0.15	Win2	0.7308	0.004	No	3.071	-0.004	2.0	NoResponse	0	0.219	247.794	5	25	Target	MissedWin	False
248.725	0.55	Win2	0.7308	n/a	No	3.071	n/a	n/a	NoResponse	0	n/a	n/a	5	25	Blank	MissedWin	False
248.794	0.3	Win2	0.7308	0.004	No	3.071	-0.004	2.0	NoResponse	0	0.219	n/a	5	25	ButtonPress	MissedWin	False
249.277	1.45	Win2	0.7308	n/a	No	3.071	n/a	5.0	NoResponse	0	0.015	248.292	5	25	Feedback	MissedWin	False
250.731	3.071	Win2	0.7308	n/a	No	3.071	n/a	n/a	NoResponse	0	0.0	n/a	5	25	ISIslide	MissedWin	False
253.824	0.25	Win2	0.7037	0.0	No	2.926	0.024	n/a	NoResponse	0	n/a	n/a	5	26	Cue	MissedWin	False
254.075	3.95	Win2	0.7037	0.0	No	2.926	0.001	2.0	NoResponse	0	3.609	256.684	5	26	Fixation	MissedWin	False
257.684	0.3	Win2	0.7037	0.0	No	2.926	0.001	2.0	NoResponse	0	3.609	n/a	5	26	ButtonPress	MissedWin	False
258.02	0.15	Win2	0.7037	0.004	No	2.926	-0.004	2.0	NoResponse	0	0.247	257.267	5	26	Target	MissedWin	False
258.17	0.55	Win2	0.7037	n/a	No	2.926	n/a	n/a	NoResponse	0	n/a	n/a	5	26	Blank	MissedWin	False
258.267	0.3	Win2	0.7037	0.004	No	2.926	-0.004	2.0	NoResponse	0	0.247	n/a	5	26	ButtonPress	MissedWin	False
258.722	1.45	Win2	0.7037	n/a	No	2.926	n/a	5.0	NoResponse	0	0.034	257.756	5	26	Feedback	MissedWin	False
260.176	2.926	Win2	0.7037	n/a	No	2.926	n/a	n/a	NoResponse	0	0.0	n/a	5	26	ISIslide	MissedWin	False
263.119	0.25	Lose2	0.6786	0.0	No	2.831	0.019	n/a	NoResponse	-1	n/a	n/a	4	27	Cue	Loss	True
263.369	4.05	Lose2	0.6786	0.0	No	2.831	0.0	n/a	NoResponse	-1	n/a	n/a	4	27	Fixation	Loss	True
267.415	0.15	Lose2	0.6786	0.004	No	2.831	-0.004	2.0	NoResponse	-1	0.221	266.636	4	27	Target	Loss	True
267.565	0.55	Lose2	0.6786	n/a	No	2.831	n/a	n/a	NoResponse	-1	n/a	n/a	4	27	Blank	Loss	True
267.636	0.3	Lose2	0.6786	0.004	No	2.831	-0.004	2.0	NoResponse	-1	0.221	n/a	4	27	ButtonPress	Loss	True
268.117	1.45	Lose2	0.6786	n/a	No	2.831	n/a	5.0	NoResponse	-1	0.007	267.124	4	27	Feedback	Loss	True
269.571	2.831	Lose2	0.6786	n/a	No	2.831	n/a	n/a	NoResponse	-1	0.0	n/a	4	27	ISIslide	Loss	True
272.43	0.25	Control	0.6552	0.0	No	2.82	0.03	n/a	NoResponse	0	n/a	n/a	4	28	Cue	Neutral	False
272.681	4.05	Control	0.6552	0.0	No	2.82	0.001	2.0	NoResponse	0	3.412	275.093	4	28	Fixation	Neutral	False
276.093	0.3	Control	0.6552	0.0	No	2.82	0.001	2.0	NoResponse	0	3.412	n/a	4	28	ButtonPress	Neutral	False
276.726	0.15	Control	0.6552	0.004	No	2.82	-0.004	2.0	NoResponse	0	0.216	275.942	4	28	Target	Neutral	False
276.877	0.55	Control	0.6552	n/a	No	2.82	n/a	n/a	NoResponse	0	n/a	n/a	4	28	Blank	Neutral	False
276.942	0.3	Control	0.6552	0.004	No	2.82	-0.004	2.0	NoResponse	0	0.216	n/a	4	28	ButtonPress	Neutral	False
277.428	1.45	Control	0.6552	n/a	No	2.82	n/a	5.0	NoResponse	0	0.01	276.438	4	28	Feedback	Neutral	False
278.883	2.82	Control	0.6552	n/a	No	2.82	n/a	n/a	NoResponse	0	0.0	n/a	4	28	ISIslide	Neutral	False
281.724	0.25	Lose2	0.6333	0.0	No	2.826	0.024	n/a	NoResponse	-1	n/a	n/a	3	29	Cue	Loss	False
281.975	3.95	Lose2	0.6333	0.0	No	2.826	0.001	2.0	NoResponse	-1	3.702	284.677	3	29	Fixation	Loss	False
285.677	0.3	Lose2	0.6333	0.0	No	2.826	0.001	2.0	NoResponse	-1	3.702	n/a	3	29	ButtonPress	Loss	False
285.92	0.15	Lose2	0.6333	0.004	No	2.826	-0.004	2.0	NoResponse	-1	0.255	285.175	3	29	Target	Loss	False
286.071	0.55	Lose2	0.6333	n/a	No	2.826	n/a	n/a	NoResponse	-1	n/a	n/a	3	29	Blank	Loss	False
286.175	0.3	Lose2	0.6333	0.004	No	2.826	-0.004	2.0	NoResponse	-1	0.255	n/a	3	29	ButtonPress	Loss	False
286.622	1.45	Lose2	0.6333	n/a	No	2.826	n/a	5.0	NoResponse	-1	0.035	285.657	3	29	Feedback	Loss	False
288.077	2.826	Lose2	0.6333	n/a	No	2.826	n/a	n/a	NoResponse	-1	0.0	n/a	3	29	ISIslide	Loss	False
290.919	0.25	Win2	0.6129	0.0	No	2.781	0.019	n/a	NoResponse	0	n/a	n/a	3	30	Cue	MissedWin	True
291.169	3.9	Win2	0.6129	0.001	No	2.781	0.0	2.0	NoResponse	0	3.858	294.027	3	30	Fixation	MissedWin	True
295.027	0.3	Win2	0.6129	0.001	No	2.781	0.0	2.0	NoResponse	0	3.858	n/a	3	30	ButtonPress	MissedWin	True
295.081	0.16	Win2	0.6129	0.0	No	2.781	0.012	n/a	NoResponse	0	n/a	n/a	3	30	Target	MissedWin	True
295.232	0.54	Win2	0.6129	n/a	No	2.781	n/a	n/a	NoResponse	0	n/a	n/a	3	30	Blank	MissedWin	True
295.767	1.45	Win2	0.6129	n/a	No	2.781	n/a	5.0	NoResponse	0	0.013	294.78	3	30	Feedback	MissedWin	True
297.221	2.781	Win2	0.6129	n/a	No	2.781	n/a	n/a	NoResponse	0	0.0	n/a	3	30	ISIslide	MissedWin	True
300.029	0.25	Lose2	0.5938	0.0	No	2.821	0.029	n/a	NoResponse	-1	n/a	n/a	2	31	Cue	Loss	True
300.28	4.05	Lose2	0.5938	0.0	No	2.821	0.001	n/a	NoResponse	-1	n/a	n/a	2	31	Fixation	Loss	True
304.326	0.17	Lose2	0.5938	0.003	No	2.821	-0.003	2.0	NoResponse	-1	0.208	303.534	2	31	Target	Loss	True
304.509	0.53	Lose2	0.5938	n/a	No	2.821	n/a	n/a	NoResponse	-1	n/a	n/a	2	31	Blank	Loss	True
304.534	0.3	Lose2	0.5938	0.003	No	2.821	-0.003	2.0	NoResponse	-1	0.208	n/a	2	31	ButtonPress	Loss	True
305.028	1.45	Lose2	0.5938	n/a	No	2.821	n/a	5.0	NoResponse	-1	0.02	304.048	2	31	Feedback	Loss	True
306.482	2.821	Lose2	0.5938	n/a	No	2.821	n/a	n/a	NoResponse	-1	0.0	n/a	2	31	ISIslide	Loss	True
309.324	0.25	Lose2	0.5758	0.0	No	2.626	0.024	n/a	NoResponse	-1	n/a	n/a	1	32	Cue	Loss	True
309.575	4.15	Lose2	0.5758	0.0	No	2.626	0.001	n/a	NoResponse	-1	n/a	n/a	1	32	Fixation	Loss	True
313.72	0.18	Lose2	0.5758	0.004	No	2.626	-0.004	2.0	NoResponse	-1	0.195	312.915	1	32	Target	Loss	True
313.904	0.52	Lose2	0.5758	n/a	No	2.626	n/a	n/a	NoResponse	-1	n/a	n/a	1	32	Blank	Loss	True
313.915	0.3	Lose2	0.5758	0.004	No	2.626	-0.004	2.0	NoResponse	-1	0.195	n/a	1	32	ButtonPress	Loss	True
314.422	1.45	Lose2	0.5758	n/a	No	2.626	n/a	5.0	NoResponse	-1	0.041	313.463	1	32	Feedback	Loss	True
315.877	2.626	Lose2	0.5758	n/a	No	2.626	n/a	n/a	NoResponse	-1	0.0	n/a	1	32	ISIslide	Loss	True
318.518	0.25	Win2	0.5588000000000001	0.0	No	2.682	0.018	n/a	PrematurePress	0	n/a	n/a	1	33	Cue	MissedWin	False
318.769	4.0	Win2	0.5588000000000001	0.0	No	2.682	0.001	2.0	PrematurePress	0	3.101	320.87	1	33	Fixation	MissedWin	False
321.87	0.3	Win2	0.5588000000000001	0.0	No	2.682	0.001	2.0	PrematurePress	0	3.101	n/a	1	33	ButtonPress	MissedWin	False
322.764	0.19	Win2	0.5588000000000001	0.004	No	2.682	-0.004	2.0	PrematurePress	0	0.064	321.828	1	33	Target	MissedWin	False
322.828	0.3	Win2	0.5588000000000001	0.004	No	2.682	-0.004	2.0	PrematurePress	0	0.064	n/a	1	33	ButtonPress	MissedWin	False
322.965	0.51	Win2	0.5588000000000001	n/a	No	2.682	n/a	n/a	PrematurePress	0	n/a	n/a	1	33	Blank	MissedWin	False
323.466	1.45	Win2	0.5588000000000001	n/a	No	2.682	n/a	5.0	PrematurePress	0	0.021	322.487	1	33	Feedback	MissedWin	False
324.921	2.682	Win2	0.5588000000000001	n/a	No	2.682	n/a	n/a	PrematurePress	0	0.0	n/a	1	33	ISIslide	MissedWin	False
327.629	0.25	Lose2	0.5428999999999999	0.0	No	2.621	0.029	n/a	LatePress	-1	n/a	n/a	0	34	Cue	Loss	False
327.88	4.05	Lose2	0.5428999999999999	0.0	No	2.621	0.001	2.0	LatePress	-1	3.127	330.007	0	34	Fixation	Loss	False
331.007	0.3	Lose2	0.5428999999999999	0.0	No	2.621	0.001	2.0	LatePress	-1	3.127	n/a	0	34	ButtonPress	Loss	False
331.925	0.2	Lose2	0.5428999999999999	0.004	No	2.621	-0.004	2.0	LatePress	-1	0.203	331.128	0	34	Target	Loss	False
332.126	0.5	Lose2	0.5428999999999999	n/a	No	2.621	n/a	n/a	LatePress	-1	n/a	n/a	0	34	Blank	Loss	False
332.128	0.3	Lose2	0.5428999999999999	0.004	No	2.621	-0.004	2.0	LatePress	-1	0.203	n/a	0	34	ButtonPress	Loss	False
332.627	1.45	Lose2	0.5428999999999999	n/a	No	2.621	n/a	5.0	LatePress	-1	0.031	331.658	0	34	Feedback	Loss	False
334.081	2.621	Lose2	0.5428999999999999	n/a	No	2.621	n/a	n/a	LatePress	-1	0.0	n/a	0	34	ISIslide	Loss	False
336.723	0.25	Lose2	0.5556	0.0	Yes	2.677	0.023	n/a	GoodResponse	0	n/a	n/a	0	35	Cue	AvoidedLoss	True
336.973	4.0	Lose2	0.5556	0.001	Yes	2.677	0.0	n/a	GoodResponse	0	n/a	n/a	0	35	Fixation	AvoidedLoss	True
340.969	0.21	Lose2	0.5556	0.004	Yes	2.677	-0.004	2.0	GoodResponse	0	0.143	340.112	0	35	Target	AvoidedLoss	True
341.112	0.3	Lose2	0.5556	0.004	Yes	2.677	-0.004	2.0	GoodResponse	0	0.143	n/a	0	35	ButtonPress	AvoidedLoss	True
341.186	0.49	Lose2	0.5556	n/a	Yes	2.677	n/a	n/a	GoodResponse	0	n/a	n/a	0	35	Blank	AvoidedLoss	True
341.671	1.45	Lose2	0.5556	n/a	Yes	2.677	n/a	5.0	GoodResponse	0	0.011	340.682	0	35	Feedback	AvoidedLoss	True
343.125	2.677	Lose2	0.5556	n/a	Yes	2.677	n/a	n/a	GoodResponse	0	0.0	n/a	0	35	ISIslide	AvoidedLoss	True
345.817	0.25	Control	0.5405	0.0	No	2.683	0.017	n/a	NoResponse	0	n/a	n/a	0	36	Cue	Neutral	True
346.067	4.0	Control	0.5405	0.001	No	2.683	0.0	2.0	NoResponse	0	3.766	348.833	0	36	Fixation	Neutral	True
349.833	0.3	Control	0.5405	0.001	No	2.683	0.0	2.0	NoResponse	0	3.766	n/a	0	36	ButtonPress	Neutral	True
350.063	0.22	Control	0.5405	0.004	No	2.683	-0.004	n/a	NoResponse	0	n/a	n/a	0	36	Target	Neutral	True
350.297	0.48	Control	0.5405	n/a	No	2.683	n/a	n/a	NoResponse	0	n/a	n/a	0	36	Blank	Neutral	True
350.765	1.45	Control	0.5405	n/a	No	2.683	n/a	5.0	NoResponse	0	0.038	349.803	0	36	Feedback	Neutral	True
352.219	2.683	Control	0.5405	n/a	No	2.683	n/a	n/a	NoResponse	0	0.0	n/a	0	36	ISIslide	Neutral	True
354.927	0.25	Win2	0.5526	0.0	Yes	2.873	0.027	n/a	GoodResponse	1	n/a	n/a	1	37	Cue	Win	True
355.178	4.0	Win2	0.5526	0.0	Yes	2.873	0.001	n/a	GoodResponse	1	n/a	n/a	1	37	Fixation	Win	True
359.173	0.23	Win2	0.5526	0.004	Yes	2.873	-0.004	2.0	GoodResponse	1	0.188	358.361	1	37	Target	Win	True
359.361	0.3	Win2	0.5526	0.004	Yes	2.873	-0.004	2.0	GoodResponse	1	0.188	n/a	1	37	ButtonPress	Win	True
359.407	0.47	Win2	0.5526	n/a	Yes	2.873	n/a	n/a	GoodResponse	1	n/a	n/a	1	37	Blank	Win	True
359.876	1.45	Win2	0.5526	n/a	Yes	2.873	n/a	5.0	GoodResponse	1	0.004	358.88	1	37	Feedback	Win	True
361.33	2.873	Win2	0.5526	n/a	Yes	2.873	n/a	n/a	GoodResponse	1	0.0	n/a	1	37	ISIslide	Win	True
364.222	0.25	Lose2	0.5385	0.0	No	2.828	0.022	n/a	NoResponse	-1	n/a	n/a	0	38	Cue	Loss	True
364.473	3.95	Lose2	0.5385	0.0	No	2.828	0.001	n/a	NoResponse	-1	n/a	n/a	0	38	Fixation	Loss	True
368.418	0.24	Lose2	0.5385	0.004	No	2.828	-0.004	2.0	NoResponse	-1	0.418	367.836	0	38	Target	Loss	True
368.669	0.46	Lose2	0.5385	n/a	No	2.828	n/a	n/a	NoResponse	-1	n/a	n/a	0	38	Blank	Loss	True
368.836	0.3	Lose2	0.5385	0.004	No	2.828	-0.004	2.0	NoResponse	-1	0.418	n/a	0	38	ButtonPress	Loss	True
369.12	1.45	Lose2	0.5385	n/a	No	2.828	n/a	5.0	NoResponse	-1	0.025	368.145	0	38	Feedback	Loss	True
370.574	2.828	Lose2	0.5385	n/a	No	2.828	n/a	n/a	NoResponse	-1	0.0	n/a	0	38	ISIslide	Loss	True
373.416	0.25	Win2	0.55	0.0	Yes	2.984	0.016	n/a	GoodResponse	1	n/a	n/a	1	39	Cue	Win	True
373.667	4.1	Win2	0.55	0.0	Yes	2.984	0.001	n/a	GoodResponse	1	n/a	n/a	1	39	Fixation	Win	True
377.763	0.25	Win2	0.55	0.003	Yes	2.984	-0.003	2.0	GoodResponse	1	0.185	376.948	1	39	Target	Win	True
377.948	0.3	Win2	0.55	0.003	Yes	2.984	-0.003	2.0	GoodResponse	1	0.185	n/a	1	39	ButtonPress	Win	True
378.013	0.45	Win2	0.55	n/a	Yes	2.984	n/a	n/a	GoodResponse	1	n/a	n/a	1	39	Blank	Win	True
378.465	1.45	Win2	0.55	n/a	Yes	2.984	n/a	5.0	GoodResponse	1	0.046	377.511	1	39	Feedback	Win	True
379.919	2.984	Win2	0.55	n/a	Yes	2.984	n/a	n/a	GoodResponse	1	0.0	n/a	1	39	ISIslide	Win	True
382.928	0.25	Win2	0.561	0.0	Yes	2.722	0.028	n/a	GoodResponse	1	n/a	n/a	2	40	Cue	Win	False
383.179	3.95	Win2	0.561	0.0	Yes	2.722	0.001	2.0	GoodResponse	1	0.181	382.36	2	40	Fixation	Win	False
383.36	0.3	Win2	0.561	0.0	Yes	2.722	0.001	2.0	GoodResponse	1	0.181	n/a	2	40	ButtonPress	Win	False
387.124	0.26	Win2	0.561	0.004	Yes	2.722	-0.004	2.0	GoodResponse	1	0.222	386.346	2	40	Target	Win	False
387.346	0.3	Win2	0.561	0.004	Yes	2.722	-0.004	2.0	GoodResponse	1	0.222	n/a	2	40	ButtonPress	Win	False
387.391	0.44	Win2	0.561	n/a	Yes	2.722	n/a	n/a	GoodResponse	1	n/a	n/a	2	40	Blank	Win	False
387.826	1.45	Win2	0.561	n/a	Yes	2.722	n/a	5.0	GoodResponse	1	0.002	386.828	2	40	Feedback	Win	False
389.28	2.722	Win2	0.561	n/a	Yes	2.722	n/a	n/a	GoodResponse	1	0.0	n/a	2	40	ISIslide	Win	False
392.022	0.25	Win2	0.5476	0.0	No	2.778	0.022	n/a	LatePress	0	n/a	n/a	2	41	Cue	MissedWin	True
392.273	3.9	Win2	0.5476	0.0	No	2.778	0.001	n/a	LatePress	0	n/a	n/a	2	41	Fixation	MissedWin	True
396.168	0.27	Win2	0.5476	0.004	No	2.778	-0.004	2.0	LatePress	0	0.27	395.438	2	41	Target	MissedWin	True
396.438	0.3	Win2	0.5476	0.004	No	2.778	-0.004	2.0	LatePress	0	0.27	n/a	2	41	ButtonPress	MissedWin	True
396.452	0.43	Win2	0.5476	n/a	No	2.778	n/a	n/a	LatePress	0	n/a	n/a	2	41	Blank	MissedWin	True
396.87	1.45	Win2	0.5476	n/a	No	2.778	n/a	5.0	LatePress	0	0.032	395.902	2	41	Feedback	MissedWin	True
398.324	2.778	Win2	0.5476	n/a	No	2.778	n/a	n/a	LatePress	0	0.0	n/a	2	41	ISIslide	MissedWin	True
401.116	0.25	Control	0.5349	0.0	No	2.934	0.016	n/a	NoResponse	0	n/a	n/a	2	42	Cue	Neutral	True
401.367	3.85	Control	0.5349	0.0	No	2.934	0.001	n/a	NoResponse	0	n/a	n/a	2	42	Fixation	Neutral	True
405.212	0.28	Control	0.5349	0.004	No	2.934	-0.004	2.0	NoResponse	0	0.495	404.707	2	42	Target	Neutral	True
405.496	0.42	Control	0.5349	n/a	No	2.934	n/a	n/a	NoResponse	0	n/a	n/a	2	42	Blank	Neutral	True
405.707	0.3	Control	0.5349	0.004	No	2.934	-0.004	2.0	NoResponse	0	0.495	n/a	2	42	ButtonPress	Neutral	True
405.914	1.45	Control	0.5349	n/a	No	2.934	n/a	5.0	NoResponse	0	0.012	404.926	2	42	Feedback	Neutral	True
407.368	2.934	Control	0.5349	n/a	No	2.934	n/a	n/a	NoResponse	0	0.0	n/a	2	42	ISIslide	Neutral	True
410.327	0.25	Win2	0.5455	0.0	Yes	3.173	0.027	n/a	GoodResponse	1	n/a	n/a	3	43	Cue	Win	True
410.578	4.0	Win2	0.5455	0.0	Yes	3.173	0.001	n/a	GoodResponse	1	n/a	n/a	3	43	Fixation	Win	True
414.573	0.29	Win2	0.5455	0.004	Yes	3.173	-0.004	2.0	GoodResponse	1	0.198	413.771	3	43	Target	Win	True
414.771	0.3	Win2	0.5455	0.004	Yes	3.173	-0.004	2.0	GoodResponse	1	0.198	n/a	3	43	ButtonPress	Win	True
414.874	0.41	Win2	0.5455	n/a	Yes	3.173	n/a	n/a	GoodResponse	1	n/a	n/a	3	43	Blank	Win	True
415.275	1.45	Win2	0.5455	n/a	Yes	3.173	n/a	5.0	GoodResponse	1	0.017	414.292	3	43	Feedback	Win	True
416.729	3.173	Win2	0.5455	n/a	Yes	3.173	n/a	n/a	GoodResponse	1	0.0	n/a	3	43	ISIslide	Win	True
419.922	0.25	Win2	0.5556	0.0	Yes	2.978	0.022	n/a	GoodResponse	1	n/a	n/a	4	44	Cue	Win	True
420.173	4.0	Win2	0.5556	0.0	Yes	2.978	0.001	n/a	GoodResponse	1	n/a	n/a	4	44	Fixation	Win	True
424.168	0.3	Win2	0.5556	0.004	Yes	2.978	-0.004	2.0	GoodResponse	1	0.206	423.374	4	44	Target	Win	True
424.374	0.3	Win2	0.5556	0.004	Yes	2.978	-0.004	2.0	GoodResponse	1	0.206	n/a	4	44	ButtonPress	Win	True
424.469	0.4	Win2	0.5556	n/a	Yes	2.978	n/a	n/a	GoodResponse	1	n/a	n/a	4	44	Blank	Win	True
424.87	1.45	Win2	0.5556	n/a	Yes	2.978	n/a	5.0	GoodResponse	1	0.031	423.901	4	44	Feedback	Win	True
426.325	2.978	Win2	0.5556	n/a	Yes	2.978	n/a	n/a	GoodResponse	1	0.0	n/a	4	44	ISIslide	Win	True
429.317	0.25	Control	0.5652	0.0	Yes	2.883	0.017	n/a	GoodResponse	0	n/a	n/a	4	45	Cue	Neutral	True
429.568	4.1	Control	0.5652	0.0	Yes	2.883	0.001	n/a	GoodResponse	0	n/a	n/a	4	45	Fixation	Neutral	True
433.664	0.31	Control	0.5652	0.003	Yes	2.883	-0.003	2.0	GoodResponse	0	0.241	432.905	4	45	Target	Neutral	True
433.905	0.3	Control	0.5652	0.003	Yes	2.883	-0.003	2.0	GoodResponse	0	0.241	n/a	4	45	ButtonPress	Neutral	True
433.981	0.39	Control	0.5652	n/a	Yes	2.883	n/a	n/a	GoodResponse	0	n/a	n/a	4	45	Blank	Neutral	True
434.366	1.45	Control	0.5652	n/a	Yes	2.883	n/a	5.0	GoodResponse	0	0.047	433.413	4	45	Feedback	Neutral	True
435.82	2.883	Control	0.5652	n/a	Yes	2.883	n/a	n/a	GoodResponse	0	0.0	n/a	4	45	ISIslide	Neutral	True
438.729	0.25	Lose2	0.5745	0.0	Yes	3.371	0.029	n/a	GoodResponse	0	n/a	n/a	4	46	Cue	AvoidedLoss	True
438.979	4.0	Lose2	0.5745	0.001	Yes	3.371	0.0	n/a	GoodResponse	0	n/a	n/a	4	46	Fixation	AvoidedLoss	True
442.975	0.32	Lose2	0.5745	0.004	Yes	3.371	-0.004	2.0	GoodResponse	0	0.224	442.199	4	46	Target	AvoidedLoss	True
443.199	0.3	Lose2	0.5745	0.004	Yes	3.371	-0.004	2.0	GoodResponse	0	0.224	n/a	4	46	ButtonPress	AvoidedLoss	True
443.309	0.38	Lose2	0.5745	n/a	Yes	3.371	n/a	n/a	GoodResponse	0	n/a	n/a	4	46	Blank	AvoidedLoss	True
443.677	1.45	Lose2	0.5745	n/a	Yes	3.371	n/a	5.0	GoodResponse	0	0.005	442.682	4	46	Feedback	AvoidedLoss	True
445.131	3.371	Lose2	0.5745	n/a	Yes	3.371	n/a	n/a	GoodResponse	0	0.0	n/a	4	46	ISIslide	AvoidedLoss	True
448.525	0.25	Lose2	0.5832999999999999	0.0	Yes	2.675	0.025	n/a	GoodResponse	0	n/a	n/a	4	47	Cue	AvoidedLoss	True
448.776	4.0	Lose2	0.5832999999999999	0.0	Yes	2.675	0.001	n/a	GoodResponse	0	n/a	n/a	4	47	Fixation	AvoidedLoss	True
452.771	0.33	Lose2	0.5832999999999999	0.004	Yes	2.675	-0.004	2.0	GoodResponse	0	0.257	452.028	4	47	Target	AvoidedLoss	True
453.028	0.3	Lose2	0.5832999999999999	0.004	Yes	2.675	-0.004	2.0	GoodResponse	0	0.257	n/a	4	47	ButtonPress	AvoidedLoss	True
453.105	0.37	Lose2	0.5832999999999999	n/a	Yes	2.675	n/a	n/a	GoodResponse	0	n/a	n/a	4	47	Blank	AvoidedLoss	True
453.473	1.45	Lose2	0.5832999999999999	n/a	Yes	2.675	n/a	5.0	GoodResponse	0	0.014	452.487	4	47	Feedback	AvoidedLoss	True
454.927	2.675	Lose2	0.5832999999999999	n/a	Yes	2.675	n/a	n/a	GoodResponse	0	0.0	n/a	4	47	ISIslide	AvoidedLoss	True
457.619	0.25	Lose2	0.5918	0.0	Yes	3.031	0.019	n/a	GoodResponse	0	n/a	n/a	4	48	Cue	AvoidedLoss	True
457.869	3.95	Lose2	0.5918	0.001	Yes	3.031	0.0	n/a	GoodResponse	0	n/a	n/a	4	48	Fixation	AvoidedLoss	True
461.815	0.34	Lose2	0.5918	0.004	Yes	3.031	-0.004	2.0	GoodResponse	0	0.225	461.04	4	48	Target	AvoidedLoss	True
462.04	0.3	Lose2	0.5918	0.004	Yes	3.031	-0.004	2.0	GoodResponse	0	0.225	n/a	4	48	ButtonPress	AvoidedLoss	True
462.166	0.36	Lose2	0.5918	n/a	Yes	3.031	n/a	n/a	GoodResponse	0	n/a	n/a	4	48	Blank	AvoidedLoss	True
462.517	1.45	Lose2	0.5918	n/a	Yes	3.031	n/a	5.0	GoodResponse	0	0.043	461.56	4	48	Feedback	AvoidedLoss	True
463.971	3.031	Lose2	0.5918	n/a	Yes	3.031	n/a	n/a	GoodResponse	0	0.0	n/a	4	48	ISIslide	AvoidedLoss	True
467.014	0.25	Control	0.6	0.0	Yes	2.886	0.014	n/a	GoodResponse	0	n/a	n/a	4	49	Cue	Neutral	True
467.264	4.0	Control	0.6	0.0	Yes	2.886	0.0	n/a	GoodResponse	0	n/a	n/a	4	49	Fixation	Neutral	True
471.26	0.35	Control	0.6	0.004	Yes	2.886	-0.004	2.0	GoodResponse	0	0.239	470.499	4	49	Target	Neutral	True
471.499	0.3	Control	0.6	0.004	Yes	2.886	-0.004	2.0	GoodResponse	0	0.239	n/a	4	49	ButtonPress	Neutral	True
471.611	0.35	Control	0.6	n/a	Yes	2.886	n/a	n/a	GoodResponse	0	n/a	n/a	4	49	Blank	Neutral	True
471.962	1.45	Control	0.6	n/a	Yes	2.886	n/a	5.0	GoodResponse	0	0.013	470.975	4	49	Feedback	Neutral	True
473.416	2.886	Control	0.6	n/a	Yes	2.886	n/a	n/a	GoodResponse	0	0.0	n/a	4	49	ISIslide	Neutral	True
476.325	0.25	Control	0.6078	0.0	Yes	2.775	0.025	n/a	GoodResponse	0	n/a	n/a	4	50	Cue	Neutral	True
476.576	4.0	Control	0.6078	0.0	Yes	2.775	0.001	n/a	GoodResponse	0	n/a	n/a	4	50	Fixation	Neutral	True
480.571	0.36	Control	0.6078	0.004	Yes	2.775	-0.004	2.0	GoodResponse	0	0.209	479.78	4	50	Target	Neutral	True
480.78	0.3	Control	0.6078	0.004	Yes	2.775	-0.004	2.0	GoodResponse	0	0.209	n/a	4	50	ButtonPress	Neutral	True
480.939	0.34	Control	0.6078	n/a	Yes	2.775	n/a	n/a	GoodResponse	0	n/a	n/a	4	50	Blank	Neutral	True
481.273	1.45	Control	0.6078	n/a	Yes	2.775	n/a	5.0	GoodResponse	0	0.019	480.292	4	50	Feedback	Neutral	True
482.727	2.775	Control	0.6078	n/a	Yes	2.775	n/a	n/a	GoodResponse	0	0.0	n/a	4	50	ISIslide	Neutral	True
485.519	0.25	Control	0.6154	0.0	Yes	2.731	0.019	n/a	GoodResponse	0	n/a	n/a	4	51	Cue	Neutral	True
485.77	3.95	Control	0.6154	0.0	Yes	2.731	0.001	n/a	GoodResponse	0	n/a	n/a	4	51	Fixation	Neutral	True
489.715	0.37	Control	0.6154	0.004	Yes	2.731	-0.004	2.0	GoodResponse	0	0.213	488.928	4	51	Target	Neutral	True
489.928	0.3	Control	0.6154	0.004	Yes	2.731	-0.004	2.0	GoodResponse	0	0.213	n/a	4	51	ButtonPress	Neutral	True
490.099	0.33	Control	0.6154	n/a	Yes	2.731	n/a	n/a	GoodResponse	0	n/a	n/a	4	51	Blank	Neutral	True
490.417	1.45	Control	0.6154	n/a	Yes	2.731	n/a	5.0	GoodResponse	0	0.045	489.462	4	51	Feedback	Neutral	True
491.871	2.731	Control	0.6154	n/a	Yes	2.731	n/a	n/a	GoodResponse	0	0.0	n/a	4	51	ISIslide	Neutral	True
494.613	0.25	Control	0.6225999999999999	0.0	Yes	2.637	0.013	n/a	GoodResponse	0	n/a	n/a	4	52	Cue	Neutral	True
494.864	4.05	Control	0.6225999999999999	0.0	Yes	2.637	0.001	n/a	GoodResponse	0	n/a	n/a	4	52	Fixation	Neutral	True
498.909	0.38	Control	0.6225999999999999	0.004	Yes	2.637	-0.004	2.0	GoodResponse	0	0.228	498.137	4	52	Target	Neutral	True
499.137	0.3	Control	0.6225999999999999	0.004	Yes	2.637	-0.004	2.0	GoodResponse	0	0.228	n/a	4	52	ButtonPress	Neutral	True
499.294	0.32	Control	0.6225999999999999	n/a	Yes	2.637	n/a	n/a	GoodResponse	0	n/a	n/a	4	52	Blank	Neutral	True
499.611	1.45	Control	0.6225999999999999	n/a	Yes	2.637	n/a	5.0	GoodResponse	0	0.021	498.632	4	52	Feedback	Neutral	True
501.066	2.637	Control	0.6225999999999999	n/a	Yes	2.637	n/a	n/a	GoodResponse	0	0.0	n/a	4	52	ISIslide	Neutral	True
503.724	0.25	Win2	0.6296	0.0	Yes	2.926	0.024	n/a	GoodResponse	1	n/a	n/a	5	53	Cue	Win	True
503.974	4.05	Win2	0.6296	0.001	Yes	2.926	0.0	n/a	GoodResponse	1	n/a	n/a	5	53	Fixation	Win	True
508.02	0.39	Win2	0.6296	0.004	Yes	2.926	-0.004	2.0	GoodResponse	1	0.209	507.229	5	53	Target	Win	True
508.229	0.3	Win2	0.6296	0.004	Yes	2.926	-0.004	2.0	GoodResponse	1	0.209	n/a	5	53	ButtonPress	Win	True
508.421	0.31	Win2	0.6296	n/a	Yes	2.926	n/a	n/a	GoodResponse	1	n/a	n/a	5	53	Blank	Win	True
508.722	1.45	Win2	0.6296	n/a	Yes	2.926	n/a	5.0	GoodResponse	1	0.032	507.754	5	53	Feedback	Win	True
510.176	2.926	Win2	0.6296	n/a	Yes	2.926	n/a	n/a	GoodResponse	1	0.0	n/a	5	53	ISIslide	Win	True
513.119	0.25	Win2	0.6364	0.0	Yes	2.731	0.019	n/a	GoodResponse	1	n/a	n/a	6	54	Cue	Win	True
513.369	3.95	Win2	0.6364	0.0	Yes	2.731	0.0	n/a	GoodResponse	1	n/a	n/a	6	54	Fixation	Win	True
517.331	0.4	Win2	0.6364	0.0	Yes	2.731	0.012	2.0	GoodResponse	1	0.262	516.593	6	54	Target	Win	True
517.593	0.3	Win2	0.6364	0.0	Yes	2.731	0.012	2.0	GoodResponse	1	0.262	n/a	6	54	ButtonPress	Win	True
517.716	0.3	Win2	0.6364	n/a	Yes	2.731	n/a	n/a	GoodResponse	1	n/a	n/a	6	54	Blank	Win	True
518.017	1.45	Win2	0.6364	n/a	Yes	2.731	n/a	5.0	GoodResponse	1	0.006	517.023	6	54	Feedback	Win	True
519.471	2.731	Win2	0.6364	n/a	Yes	2.731	n/a	n/a	GoodResponse	1	0.0	n/a	6	54	ISIslide	Win	True
522.212	0.25	Control	0.6429	0.001	Yes	3.038	0.012	n/a	GoodResponse	0	n/a	n/a	6	55	Cue	Neutral	True
522.463	3.95	Control	0.6429	0.0	Yes	3.038	0.001	n/a	GoodResponse	0	n/a	n/a	6	55	Fixation	Neutral	True
526.408	0.41	Control	0.6429	0.004	Yes	3.038	-0.004	2.0	GoodResponse	0	0.339	525.747	6	55	Target	Neutral	True
526.747	0.3	Control	0.6429	0.004	Yes	3.038	-0.004	2.0	GoodResponse	0	0.339	n/a	6	55	ButtonPress	Neutral	True
526.826	0.29	Control	0.6429	n/a	Yes	3.038	n/a	n/a	GoodResponse	0	n/a	n/a	6	55	Blank	Neutral	True
527.111	1.45	Control	0.6429	n/a	Yes	3.038	n/a	5.0	GoodResponse	0	0.034	526.145	6	55	Feedback	Neutral	True
528.565	3.038	Control	0.6429	n/a	Yes	3.038	n/a	n/a	GoodResponse	0	0.0	n/a	6	55	ISIslide	Neutral	True
531.624	0.25	Control	0.6491	0.0	Yes	2.826	0.024	n/a	GoodResponse	0	n/a	n/a	6	56	Cue	Neutral	True
531.875	3.95	Control	0.6491	0.0	Yes	2.826	0.001	n/a	GoodResponse	0	n/a	n/a	6	56	Fixation	Neutral	True
535.82	0.42	Control	0.6491	0.004	Yes	2.826	-0.004	2.0	GoodResponse	0	0.419	535.239	6	56	Target	Neutral	True
536.239	0.3	Control	0.6491	0.004	Yes	2.826	-0.004	2.0	GoodResponse	0	0.419	n/a	6	56	ButtonPress	Neutral	True
536.255	0.28	Control	0.6491	n/a	Yes	2.826	n/a	n/a	GoodResponse	0	n/a	n/a	6	56	Blank	Neutral	True
536.522	1.45	Control	0.6491	n/a	Yes	2.826	n/a	5.0	GoodResponse	0	0.038	535.56	6	56	Feedback	Neutral	True
537.976	2.826	Control	0.6491	n/a	Yes	2.826	n/a	n/a	GoodResponse	0	0.0	n/a	6	56	ISIslide	Neutral	True
540.818	0.25	Control	0.6552	0.0	Yes	3.482	0.018	n/a	GoodResponse	0	n/a	n/a	6	57	Cue	Neutral	True
541.069	4.0	Control	0.6552	0.0	Yes	3.482	0.001	n/a	GoodResponse	0	n/a	n/a	6	57	Fixation	Neutral	True
545.064	0.43	Control	0.6552	0.004	Yes	3.482	-0.004	2.0	GoodResponse	0	0.255	544.319	6	57	Target	Neutral	True
545.319	0.3	Control	0.6552	0.004	Yes	3.482	-0.004	2.0	GoodResponse	0	0.255	n/a	6	57	ButtonPress	Neutral	True
545.499	0.27	Control	0.6552	n/a	Yes	3.482	n/a	n/a	GoodResponse	0	n/a	n/a	6	57	Blank	Neutral	True
545.766	1.45	Control	0.6552	n/a	Yes	3.482	n/a	5.0	GoodResponse	0	0.013	544.779	6	57	Feedback	Neutral	True
547.221	3.482	Control	0.6552	n/a	Yes	3.482	n/a	n/a	GoodResponse	0	0.0	n/a	6	57	ISIslide	Neutral	True
550.715	0.25	Win2	0.6609999999999999	0.0	Yes	2.735	0.015	n/a	GoodResponse	1	n/a	n/a	7	58	Cue	Win	True
550.965	4.05	Win2	0.6609999999999999	0.0	Yes	2.735	0.0	n/a	GoodResponse	1	n/a	n/a	7	58	Fixation	Win	True
555.011	0.43	Win2	0.6609999999999999	0.004	Yes	2.735	-0.004	2.0	GoodResponse	1	0.234	554.245	7	58	Target	Win	True
555.245	0.3	Win2	0.6609999999999999	0.004	Yes	2.735	-0.004	2.0	GoodResponse	1	0.234	n/a	7	58	ButtonPress	Win	True
555.446	0.27	Win2	0.6609999999999999	n/a	Yes	2.735	n/a	n/a	GoodResponse	1	n/a	n/a	7	58	Blank	Win	True
555.713	1.45	Win2	0.6609999999999999	n/a	Yes	2.735	n/a	5.0	GoodResponse	1	0.017	554.73	7	58	Feedback	Win	True
557.167	2.735	Win2	0.6609999999999999	n/a	Yes	2.735	n/a	n/a	GoodResponse	1	0.0	n/a	7	58	ISIslide	Win	True
559.926	0.25	Lose2	0.6667000000000001	0.0	Yes	2.674	0.026	n/a	GoodResponse	0	n/a	n/a	7	59	Cue	AvoidedLoss	True
560.176	4.0	Lose2	0.6667000000000001	0.0	Yes	2.674	0.0	n/a	GoodResponse	0	n/a	n/a	7	59	Fixation	AvoidedLoss	True
564.172	0.43	Lose2	0.6667000000000001	0.004	Yes	2.674	-0.004	2.0	GoodResponse	0	0.294	563.466	7	59	Target	AvoidedLoss	True
564.466	0.3	Lose2	0.6667000000000001	0.004	Yes	2.674	-0.004	2.0	GoodResponse	0	0.294	n/a	7	59	ButtonPress	AvoidedLoss	True
564.606	0.27	Lose2	0.6667000000000001	n/a	Yes	2.674	n/a	n/a	GoodResponse	0	n/a	n/a	7	59	Blank	AvoidedLoss	True
564.874	1.45	Lose2	0.6667000000000001	n/a	Yes	2.674	n/a	5.0	GoodResponse	0	0.027	563.901	7	59	Feedback	AvoidedLoss	True
566.328	2.674	Lose2	0.6667000000000001	n/a	Yes	2.674	n/a	n/a	GoodResponse	0	0.0	n/a	7	59	ISIslide	AvoidedLoss	True
569.02	0.25	Control	0.6720999999999999	0.0	Yes	2.68	0.02	n/a	GoodResponse	0	n/a	n/a	7	60	Cue	Neutral	True
569.27	4.0	Control	0.6720999999999999	0.0	Yes	2.68	0.0	n/a	GoodResponse	0	n/a	n/a	7	60	Fixation	Neutral	True
573.266	0.42	Control	0.6720999999999999	0.004	Yes	2.68	-0.004	2.0	GoodResponse	0	0.192	572.458	7	60	Target	Neutral	True
573.458	0.3	Control	0.6720999999999999	0.004	Yes	2.68	-0.004	2.0	GoodResponse	0	0.192	n/a	7	60	ButtonPress	Neutral	True
573.7	0.28	Control	0.6720999999999999	n/a	Yes	2.68	n/a	n/a	GoodResponse	0	n/a	n/a	7	60	Blank	Neutral	True
573.968	1.45	Control	0.6720999999999999	n/a	Yes	2.68	n/a	5.0	GoodResponse	0	0.006	572.974	7	60	Feedback	Neutral	True
575.422	2.68	Control	0.6720999999999999	n/a	Yes	2.68	n/a	n/a	GoodResponse	0	0.0	n/a	7	60	ISIslide	Neutral	True
578.114	0.25	Lose2	0.6774	0.0	Yes	2.986	0.014	n/a	GoodResponse	0	n/a	n/a	7	61	Cue	AvoidedLoss	True
578.364	4.0	Lose2	0.6774	0.0	Yes	2.986	0.0	n/a	GoodResponse	0	n/a	n/a	7	61	Fixation	AvoidedLoss	True
582.36	0.41	Lose2	0.6774	0.004	Yes	2.986	-0.004	2.0	GoodResponse	0	0.183	581.543	7	61	Target	AvoidedLoss	True
582.543	0.3	Lose2	0.6774	0.004	Yes	2.986	-0.004	2.0	GoodResponse	0	0.183	n/a	7	61	ButtonPress	AvoidedLoss	True
582.778	0.29	Lose2	0.6774	n/a	Yes	2.986	n/a	n/a	GoodResponse	0	n/a	n/a	7	61	Blank	AvoidedLoss	True
583.062	1.45	Lose2	0.6774	n/a	Yes	2.986	n/a	5.0	GoodResponse	0	0.034	582.096	7	61	Feedback	AvoidedLoss	True
584.516	2.986	Lose2	0.6774	n/a	Yes	2.986	n/a	n/a	GoodResponse	0	0.0	n/a	7	61	ISIslide	AvoidedLoss	True
587.525	0.25	Lose2	0.6667000000000001	0.0	No	2.875	0.025	n/a	NoResponse	-1	n/a	n/a	6	62	Cue	Loss	True
587.776	3.9	Lose2	0.6667000000000001	0.0	No	2.875	0.001	n/a	NoResponse	-1	n/a	n/a	6	62	Fixation	Loss	True
591.671	0.4	Lose2	0.6667000000000001	0.004	No	2.875	-0.004	2.0	NoResponse	-1	0.417	591.088	6	62	Target	Loss	True
592.072	0.3	Lose2	0.6667000000000001	n/a	No	2.875	n/a	n/a	NoResponse	-1	n/a	n/a	6	62	Blank	Loss	True
592.088	0.3	Lose2	0.6667000000000001	0.004	No	2.875	-0.004	2.0	NoResponse	-1	0.417	n/a	6	62	ButtonPress	Loss	True
592.373	1.45	Lose2	0.6667000000000001	n/a	No	2.875	n/a	5.0	NoResponse	-1	0.04	591.413	6	62	Feedback	Loss	True
593.827	2.875	Lose2	0.6667000000000001	n/a	No	2.875	n/a	n/a	NoResponse	-1	0.0	n/a	6	62	ISIslide	Loss	True
596.719	0.25	Lose2	0.6718999999999999	0.0	Yes	2.631	0.019	n/a	GoodResponse	0	n/a	n/a	6	63	Cue	AvoidedLoss	True
596.97	4.05	Lose2	0.6718999999999999	0.0	Yes	2.631	0.001	n/a	GoodResponse	0	n/a	n/a	6	63	Fixation	AvoidedLoss	True
601.016	0.39	Lose2	0.6718999999999999	0.003	Yes	2.631	-0.003	2.0	GoodResponse	0	0.2	600.216	6	63	Target	AvoidedLoss	True
601.216	0.3	Lose2	0.6718999999999999	0.003	Yes	2.631	-0.003	2.0	GoodResponse	0	0.2	n/a	6	63	ButtonPress	AvoidedLoss	True
601.417	0.31	Lose2	0.6718999999999999	n/a	Yes	2.631	n/a	n/a	GoodResponse	0	n/a	n/a	6	63	Blank	AvoidedLoss	True
601.718	1.45	Lose2	0.6718999999999999	n/a	Yes	2.631	n/a	5.0	GoodResponse	0	0.012	600.73	6	63	Feedback	AvoidedLoss	True
603.172	2.631	Lose2	0.6718999999999999	n/a	Yes	2.631	n/a	n/a	GoodResponse	0	0.0	n/a	6	63	ISIslide	AvoidedLoss	True
605.813	0.25	Win2	0.6769	0.0	Yes	3.137	0.013	n/a	GoodResponse	1	n/a	n/a	7	64	Cue	Win	True
606.064	4.15	Win2	0.6769	0.0	Yes	3.137	0.001	n/a	GoodResponse	1	n/a	n/a	7	64	Fixation	Win	True
610.21	0.38	Win2	0.6769	0.003	Yes	3.137	-0.003	2.0	GoodResponse	1	0.215	609.425	7	64	Target	Win	True
610.425	0.3	Win2	0.6769	0.003	Yes	3.137	-0.003	2.0	GoodResponse	1	0.215	n/a	7	64	ButtonPress	Win	True
610.594	0.32	Win2	0.6769	n/a	Yes	3.137	n/a	n/a	GoodResponse	1	n/a	n/a	7	64	Blank	Win	True
610.912	1.45	Win2	0.6769	n/a	Yes	3.137	n/a	5.0	GoodResponse	1	0.038	609.95	7	64	Feedback	Win	True
612.366	3.137	Win2	0.6769	n/a	Yes	3.137	n/a	n/a	GoodResponse	1	0.0	n/a	7	64	ISIslide	Win	True
615.526	0.25	Control	0.6818000000000001	0.0	Yes	2.774	0.026	n/a	GoodResponse	0	n/a	n/a	7	65	Cue	Neutral	True
615.777	4.0	Control	0.6818000000000001	0.0	Yes	2.774	0.001	n/a	GoodResponse	0	n/a	n/a	7	65	Fixation	Neutral	True
619.772	0.37	Control	0.6818000000000001	0.004	Yes	2.774	-0.004	2.0	GoodResponse	0	0.219	618.991	7	65	Target	Neutral	True
619.991	0.3	Control	0.6818000000000001	0.004	Yes	2.774	-0.004	2.0	GoodResponse	0	0.219	n/a	7	65	ButtonPress	Neutral	True
620.156	0.33	Control	0.6818000000000001	n/a	Yes	2.774	n/a	n/a	GoodResponse	0	n/a	n/a	7	65	Blank	Neutral	True
620.474	1.45	Control	0.6818000000000001	n/a	Yes	2.774	n/a	5.0	GoodResponse	0	0.037	619.511	7	65	Feedback	Neutral	True
621.928	2.774	Control	0.6818000000000001	n/a	Yes	2.774	n/a	n/a	GoodResponse	0	0.0	n/a	7	65	ISIslide	Neutral	True
624.72	0.25	Win2	0.6866	0.0	Yes	2.78	0.02	n/a	GoodResponse	1	n/a	n/a	8	66	Cue	Win	True
624.971	3.9	Win2	0.6866	0.0	Yes	2.78	0.001	n/a	GoodResponse	1	n/a	n/a	8	66	Fixation	Win	True
628.866	0.36	Win2	0.6866	0.004	Yes	2.78	-0.004	2.0	GoodResponse	1	0.244	628.11	8	66	Target	Win	True
629.11	0.3	Win2	0.6866	0.004	Yes	2.78	-0.004	2.0	GoodResponse	1	0.244	n/a	8	66	ButtonPress	Win	True
629.234	0.34	Win2	0.6866	n/a	Yes	2.78	n/a	n/a	GoodResponse	1	n/a	n/a	8	66	Blank	Win	True
629.568	1.45	Win2	0.6866	n/a	Yes	2.78	n/a	5.0	GoodResponse	1	0.016	628.584	8	66	Feedback	Win	True
631.022	2.78	Win2	0.6866	n/a	Yes	2.78	n/a	n/a	GoodResponse	1	0.0	n/a	8	66	ISIslide	Win	True
633.814	0.25	Control	0.6912	0.0	Yes	2.736	0.014	n/a	GoodResponse	0	n/a	n/a	8	67	Cue	Neutral	True
634.065	3.95	Control	0.6912	0.0	Yes	2.736	0.001	n/a	GoodResponse	0	n/a	n/a	8	67	Fixation	Neutral	True
638.01	0.35	Control	0.6912	0.004	Yes	2.736	-0.004	2.0	GoodResponse	0	0.189	637.199	8	67	Target	Neutral	True
638.199	0.3	Control	0.6912	0.004	Yes	2.736	-0.004	2.0	GoodResponse	0	0.189	n/a	8	67	ButtonPress	Neutral	True
638.361	0.35	Control	0.6912	n/a	Yes	2.736	n/a	n/a	GoodResponse	0	n/a	n/a	8	67	Blank	Neutral	True
638.712	1.45	Control	0.6912	n/a	Yes	2.736	n/a	5.0	GoodResponse	0	0.043	637.755	8	67	Feedback	Neutral	True
640.166	2.736	Control	0.6912	n/a	Yes	2.736	n/a	n/a	GoodResponse	0	0.0	n/a	8	67	ISIslide	Neutral	True
642.925	0.25	Win2	0.6957	0.0	Yes	3.075	0.025	n/a	GoodResponse	1	n/a	n/a	9	68	Cue	Win	True
643.175	4.0	Win2	0.6957	0.0	Yes	3.075	0.0	n/a	GoodResponse	1	n/a	n/a	9	68	Fixation	Win	True
647.171	0.34	Win2	0.6957	0.004	Yes	3.075	-0.004	2.0	GoodResponse	1	0.297	646.468	9	68	Target	Win	True
647.468	0.3	Win2	0.6957	0.004	Yes	3.075	-0.004	2.0	GoodResponse	1	0.297	n/a	9	68	ButtonPress	Win	True
647.522	0.36	Win2	0.6957	n/a	Yes	3.075	n/a	n/a	GoodResponse	1	n/a	n/a	9	68	Blank	Win	True
647.873	1.45	Win2	0.6957	n/a	Yes	3.075	n/a	5.0	GoodResponse	1	0.005	646.878	9	68	Feedback	Win	True
649.327	3.075	Win2	0.6957	n/a	Yes	3.075	n/a	n/a	GoodResponse	1	0.0	n/a	9	68	ISIslide	Win	True
652.42	0.25	Win2	0.7	0.0	Yes	3.23	0.02	n/a	GoodResponse	1	n/a	n/a	10	69	Cue	Win	True
652.671	3.95	Win2	0.7	0.0	Yes	3.23	0.001	n/a	GoodResponse	1	n/a	n/a	10	69	Fixation	Win	True
656.616	0.33	Win2	0.7	0.004	Yes	3.23	-0.004	2.0	GoodResponse	1	0.221	655.837	10	69	Target	Win	True
656.837	0.3	Win2	0.7	0.004	Yes	3.23	-0.004	2.0	GoodResponse	1	0.221	n/a	10	69	ButtonPress	Win	True
656.95	0.37	Win2	0.7	n/a	Yes	3.23	n/a	n/a	GoodResponse	1	n/a	n/a	10	69	Blank	Win	True
657.318	1.45	Win2	0.7	n/a	Yes	3.23	n/a	5.0	GoodResponse	1	0.021	656.339	10	69	Feedback	Win	True
658.772	3.23	Win2	0.7	n/a	Yes	3.23	n/a	n/a	GoodResponse	1	0.0	n/a	10	69	ISIslide	Win	True
662.015	0.25	Lose2	0.7042	0.0	Yes	3.035	0.015	n/a	GoodResponse	0	n/a	n/a	10	70	Cue	AvoidedLoss	True
662.266	4.05	Lose2	0.7042	0.0	Yes	3.035	0.001	n/a	GoodResponse	0	n/a	n/a	10	70	Fixation	AvoidedLoss	True
666.311	0.32	Lose2	0.7042	0.004	Yes	3.035	-0.004	2.0	GoodResponse	0	0.156	665.467	10	70	Target	AvoidedLoss	True
666.467	0.3	Lose2	0.7042	0.004	Yes	3.035	-0.004	2.0	GoodResponse	0	0.156	n/a	10	70	ButtonPress	AvoidedLoss	True
666.646	0.38	Lose2	0.7042	n/a	Yes	3.035	n/a	n/a	GoodResponse	0	n/a	n/a	10	70	Blank	AvoidedLoss	True
667.014	1.45	Lose2	0.7042	n/a	Yes	3.035	n/a	5.0	GoodResponse	0	0.033	666.047	10	70	Feedback	AvoidedLoss	True
668.468	3.035	Lose2	0.7042	n/a	Yes	3.035	n/a	n/a	GoodResponse	0	0.0	n/a	10	70	ISIslide	AvoidedLoss	True
671.527	0.25	Win2	0.7082999999999999	0.0	Yes	2.723	0.027	n/a	GoodResponse	1	n/a	n/a	11	71	Cue	Win	True
671.778	4.05	Win2	0.7082999999999999	0.0	Yes	2.723	0.001	n/a	GoodResponse	1	n/a	n/a	11	71	Fixation	Win	True
675.823	0.31	Win2	0.7082999999999999	0.004	Yes	2.723	-0.004	2.0	GoodResponse	1	0.287	675.11	11	71	Target	Win	True
676.11	0.3	Win2	0.7082999999999999	0.004	Yes	2.723	-0.004	2.0	GoodResponse	1	0.287	n/a	11	71	ButtonPress	Win	True
676.141	0.39	Win2	0.7082999999999999	n/a	Yes	2.723	n/a	n/a	GoodResponse	1	n/a	n/a	11	71	Blank	Win	True
676.525	1.45	Win2	0.7082999999999999	n/a	Yes	2.723	n/a	5.0	GoodResponse	1	0.034	675.559	11	71	Feedback	Win	True
677.98	2.723	Win2	0.7082999999999999	n/a	Yes	2.723	n/a	n/a	GoodResponse	1	0.0	n/a	11	71	ISIslide	Win	True
680.721	0.25	Win2	0.6986	0.0	No	2.779	0.021	n/a	NoResponse	0	n/a	n/a	11	72	Cue	MissedWin	True
680.972	4.1	Win2	0.6986	0.0	No	2.779	0.001	n/a	NoResponse	0	n/a	n/a	11	72	Fixation	MissedWin	True
685.068	0.3	Win2	0.6986	0.003	No	2.779	-0.003	2.0	NoResponse	0	0.308	684.376	11	72	Target	MissedWin	True
685.369	0.4	Win2	0.6986	n/a	No	2.779	n/a	n/a	NoResponse	0	n/a	n/a	11	72	Blank	MissedWin	True
685.376	0.3	Win2	0.6986	0.003	No	2.779	-0.003	2.0	NoResponse	0	0.308	n/a	11	72	ButtonPress	MissedWin	True
685.77	1.45	Win2	0.6986	n/a	No	2.779	n/a	5.0	NoResponse	0	0.009	684.779	11	72	Feedback	MissedWin	True
687.224	2.779	Win2	0.6986	n/a	No	2.779	n/a	n/a	NoResponse	0	0.0	n/a	11	72	ISIslide	MissedWin	True
690.016	0.25	Win2	0.6892	0.0	No	2.684	0.016	n/a	PrematurePress	0	n/a	n/a	11	73	Cue	MissedWin	True
690.267	4.0	Win2	0.6892	0.0	No	2.684	0.001	n/a	PrematurePress	0	n/a	n/a	11	73	Fixation	MissedWin	True
694.262	0.29	Win2	0.6892	0.004	No	2.684	-0.004	2.0	PrematurePress	0	0.069	693.331	11	73	Target	MissedWin	True
694.331	0.3	Win2	0.6892	0.004	No	2.684	-0.004	2.0	PrematurePress	0	0.069	n/a	11	73	ButtonPress	MissedWin	True
694.563	0.41	Win2	0.6892	n/a	No	2.684	n/a	n/a	PrematurePress	0	n/a	n/a	11	73	Blank	MissedWin	True
694.964	1.45	Win2	0.6892	n/a	No	2.684	n/a	5.0	PrematurePress	0	0.034	693.998	11	73	Feedback	MissedWin	True
696.418	2.684	Win2	0.6892	n/a	No	2.684	n/a	n/a	PrematurePress	0	0.0	n/a	11	73	ISIslide	MissedWin	True
699.127	0.25	Lose2	0.6933	0.0	Yes	2.623	0.027	n/a	GoodResponse	0	n/a	n/a	11	74	Cue	AvoidedLoss	True
699.377	4.05	Lose2	0.6933	0.0	Yes	2.623	0.0	n/a	GoodResponse	0	n/a	n/a	11	74	Fixation	AvoidedLoss	True
703.423	0.28	Lose2	0.6933	0.004	Yes	2.623	-0.004	2.0	GoodResponse	0	0.228	702.651	11	74	Target	AvoidedLoss	True
703.651	0.3	Lose2	0.6933	0.004	Yes	2.623	-0.004	2.0	GoodResponse	0	0.228	n/a	11	74	ButtonPress	AvoidedLoss	True
703.707	0.42	Lose2	0.6933	n/a	Yes	2.623	n/a	n/a	GoodResponse	0	n/a	n/a	11	74	Blank	AvoidedLoss	True
704.125	1.45	Lose2	0.6933	n/a	Yes	2.623	n/a	5.0	GoodResponse	0	0.044	703.169	11	74	Feedback	AvoidedLoss	True
705.579	2.623	Lose2	0.6933	n/a	Yes	2.623	n/a	n/a	GoodResponse	0	0.0	n/a	11	74	ISIslide	AvoidedLoss	True
708.22	0.25	Lose2	0.6973999999999999	0.001	Yes	2.93	0.02	n/a	GoodResponse	0	n/a	n/a	11	75	Cue	AvoidedLoss	True
708.471	3.95	Lose2	0.6973999999999999	0.0	Yes	2.93	0.001	n/a	GoodResponse	0	n/a	n/a	11	75	Fixation	AvoidedLoss	True
712.416	0.27	Lose2	0.6973999999999999	0.004	Yes	2.93	-0.004	2.0	GoodResponse	0	0.189	711.605	11	75	Target	AvoidedLoss	True
712.605	0.3	Lose2	0.6973999999999999	0.004	Yes	2.93	-0.004	2.0	GoodResponse	0	0.189	n/a	11	75	ButtonPress	AvoidedLoss	True
712.701	0.43	Lose2	0.6973999999999999	n/a	Yes	2.93	n/a	n/a	GoodResponse	0	n/a	n/a	11	75	Blank	AvoidedLoss	True
713.119	1.45	Lose2	0.6973999999999999	n/a	Yes	2.93	n/a	5.0	GoodResponse	0	0.026	712.145	11	75	Feedback	AvoidedLoss	True
714.573	2.93	Lose2	0.6973999999999999	n/a	Yes	2.93	n/a	n/a	GoodResponse	0	0.0	n/a	11	75	ISIslide	AvoidedLoss	True
717.515	0.25	Control	0.6883	0.0	No	3.235	0.015	n/a	NoResponse	0	n/a	n/a	11	76	Cue	Neutral	True
717.766	4.05	Control	0.6883	0.0	No	3.235	0.001	n/a	NoResponse	0	n/a	n/a	11	76	Fixation	Neutral	True
721.811	0.26	Control	0.6883	0.004	No	3.235	-0.004	2.0	NoResponse	0	0.303	721.114	11	76	Target	Neutral	True
722.079	0.44	Control	0.6883	n/a	No	3.235	n/a	n/a	NoResponse	0	n/a	n/a	11	76	Blank	Neutral	True
722.114	0.3	Control	0.6883	0.004	No	3.235	-0.004	2.0	NoResponse	0	0.303	n/a	11	76	ButtonPress	Neutral	True
722.513	1.45	Control	0.6883	n/a	No	3.235	n/a	5.0	NoResponse	0	0.045	721.558	11	76	Feedback	Neutral	True
723.968	3.235	Control	0.6883	n/a	No	3.235	n/a	n/a	NoResponse	0	0.0	n/a	11	76	ISIslide	Neutral	True
727.228	0.25	Lose2	0.6795	0.0	No	2.572	0.028	n/a	NoResponse	-1	n/a	n/a	10	77	Cue	Loss	False
727.478	3.95	Lose2	0.6795	0.0	No	2.572	0.0	2.0	NoResponse	-1	3.67	730.148	10	77	Fixation	Loss	False
731.148	0.3	Lose2	0.6795	0.0	No	2.572	0.0	2.0	NoResponse	-1	3.67	n/a	10	77	ButtonPress	Loss	False
731.44	0.25	Lose2	0.6795	0.0	No	2.572	0.012	2.0	NoResponse	-1	0.272	730.712	10	77	Target	Loss	False
731.674	0.45	Lose2	0.6795	n/a	No	2.572	n/a	n/a	NoResponse	-1	n/a	n/a	10	77	Blank	Loss	False
731.712	0.3	Lose2	0.6795	0.0	No	2.572	0.012	2.0	NoResponse	-1	0.272	n/a	10	77	ButtonPress	Loss	False
732.126	1.45	Lose2	0.6795	n/a	No	2.572	n/a	5.0	NoResponse	-1	0.042	731.168	10	77	Feedback	Loss	False
733.58	2.572	Lose2	0.6795	n/a	No	2.572	n/a	n/a	NoResponse	-1	0.0	n/a	10	77	ISIslide	Loss	False
