onset	duration	cue_type	current_mean_accuracy	duration_error	is_hit	isi_adjusted	onset_delay	response	response_type	reward	rt	rt_time	total_reward	trial_number	trial_phase	trial_type	one_press
11.099	0.25	Control	1.0	0.0	Yes	2.951	-0.001	n/a	GoodResponse	0	n/a	n/a	0	0	Cue	Neutral	True
11.349	3.85	Control	1.0	0.0	Yes	2.951	0.0	n/a	GoodResponse	0	n/a	n/a	0	0	Fixation	Neutral	True
15.198	0.4	Control	1.0	0.001	Yes	2.951	-0.001	4.0	GoodResponse	0	0.203	14.401	0	0	Target	Neutral	True
15.401	0.3	Control	1.0	0.001	Yes	2.951	-0.001	4.0	GoodResponse	0	0.203	n/a	0	0	ButtonPress	Neutral	True
15.598	0.3	Control	1.0	n/a	Yes	2.951	n/a	n/a	GoodResponse	0	n/a	n/a	0	0	Blank	Neutral	True
15.898	1.45	Control	1.0	n/a	Yes	2.951	n/a	5.0	GoodResponse	0	0.03	14.928	0	0	Feedback	Neutral	True
17.347	2.951	Control	1.0	n/a	Yes	2.951	n/a	n/a	GoodResponse	0	0.0	n/a	0	0	ISIslide	Neutral	True
20.329	0.25	Lose2	1.0	0.001	Yes	2.771	0.029	n/a	GoodResponse	0	n/a	n/a	0	1	Cue	AvoidedLoss	True
20.579	4.0	Lose2	1.0	0.0	Yes	2.771	0.0	n/a	GoodResponse	0	n/a	n/a	0	1	Fixation	AvoidedLoss	True
24.578	0.39	Lose2	1.0	0.001	Yes	2.771	-0.001	4.0	GoodResponse	0	0.19	23.768	0	1	Target	AvoidedLoss	True
24.768	0.3	Lose2	1.0	0.001	Yes	2.771	-0.001	4.0	GoodResponse	0	0.19	n/a	0	1	ButtonPress	AvoidedLoss	True
24.978	0.31	Lose2	1.0	n/a	Yes	2.771	n/a	n/a	GoodResponse	0	n/a	n/a	0	1	Blank	AvoidedLoss	True
25.278	1.45	Lose2	1.0	n/a	Yes	2.771	n/a	5.0	GoodResponse	0	0.016	24.294	0	1	Feedback	AvoidedLoss	True
26.727	2.771	Lose2	1.0	n/a	Yes	2.771	n/a	n/a	GoodResponse	0	0.0	n/a	0	1	ISIslide	AvoidedLoss	True
29.526	0.25	Control	0.6667000000000001	0.0	No	2.574	0.026	n/a	PrematurePress	0	n/a	n/a	0	2	Cue	Neutral	True
29.776	4.1	Control	0.6667000000000001	0.0	No	2.574	0.0	n/a	PrematurePress	0	n/a	n/a	0	2	Fixation	Neutral	True
33.875	0.38	Control	0.6667000000000001	0.001	No	2.574	-0.001	4.0	PrematurePress	0	0.047	32.922	0	2	Target	Neutral	True
33.922	0.3	Control	0.6667000000000001	0.001	No	2.574	-0.001	4.0	PrematurePress	0	0.047	n/a	0	2	ButtonPress	Neutral	True
34.258	0.32	Control	0.6667000000000001	n/a	No	2.574	n/a	n/a	PrematurePress	0	n/a	n/a	0	2	Blank	Neutral	True
34.574	1.45	Control	0.6667000000000001	n/a	No	2.574	n/a	5.0	PrematurePress	0	0.037	33.611	0	2	Feedback	Neutral	True
36.024	2.574	Control	0.6667000000000001	n/a	No	2.574	n/a	n/a	PrematurePress	0	0.0	n/a	0	2	ISIslide	Neutral	True
38.623	0.25	Win2	0.75	0.0	Yes	2.827	0.023	n/a	GoodResponse	1	n/a	n/a	1	3	Cue	Win	True
38.873	3.95	Win2	0.75	0.0	Yes	2.827	0.0	n/a	GoodResponse	1	n/a	n/a	1	3	Fixation	Win	True
42.822	0.37	Win2	0.75	0.001	Yes	2.827	-0.001	4.0	GoodResponse	1	0.189	42.011	1	3	Target	Win	True
43.011	0.3	Win2	0.75	0.001	Yes	2.827	-0.001	4.0	GoodResponse	1	0.189	n/a	1	3	ButtonPress	Win	True
43.205	0.33	Win2	0.75	n/a	Yes	2.827	n/a	n/a	GoodResponse	1	n/a	n/a	1	3	Blank	Win	True
43.521	1.45	Win2	0.75	n/a	Yes	2.827	n/a	5.0	GoodResponse	1	0.017	42.538	1	3	Feedback	Win	True
44.971	2.827	Win2	0.75	n/a	Yes	2.827	n/a	n/a	GoodResponse	1	0.0	n/a	1	3	ISIslide	Win	True
47.82	0.25	Win2	0.8	0.0	Yes	3.28	0.02	n/a	GoodResponse	1	n/a	n/a	2	4	Cue	Win	False
48.07	4.0	Win2	0.8	0.0	Yes	3.28	0.0	4.0	GoodResponse	1	3.424	50.494	2	4	Fixation	Win	False
51.494	0.3	Win2	0.8	0.0	Yes	3.28	0.0	4.0	GoodResponse	1	3.424	n/a	2	4	ButtonPress	Win	False
52.068	0.36	Win2	0.8	0.002	Yes	3.28	-0.002	4.0	GoodResponse	1	0.269	51.337	2	4	Target	Win	False
52.337	0.3	Win2	0.8	0.002	Yes	3.28	-0.002	4.0	GoodResponse	1	0.269	n/a	2	4	ButtonPress	Win	False
52.435	0.34	Win2	0.8	n/a	Yes	3.28	n/a	n/a	GoodResponse	1	n/a	n/a	2	4	Blank	Win	False
52.768	1.45	Win2	0.8	n/a	Yes	3.28	n/a	5.0	GoodResponse	1	0.038	51.806	2	4	Feedback	Win	False
54.217	3.28	Win2	0.8	n/a	Yes	3.28	n/a	n/a	GoodResponse	1	0.0	n/a	2	4	ISIslide	Win	False
57.516	0.25	Win2	0.8332999999999999	0.0	Yes	2.784	0.016	n/a	GoodResponse	1	n/a	n/a	3	5	Cue	Win	True
57.766	4.0	Win2	0.8332999999999999	0.0	Yes	2.784	0.0	n/a	GoodResponse	1	n/a	n/a	3	5	Fixation	Win	True
61.765	0.35	Win2	0.8332999999999999	0.001	Yes	2.784	-0.001	4.0	GoodResponse	1	0.209	60.974	3	5	Target	Win	True
61.974	0.3	Win2	0.8332999999999999	0.001	Yes	2.784	-0.001	4.0	GoodResponse	1	0.209	n/a	3	5	ButtonPress	Win	True
62.115	0.35	Win2	0.8332999999999999	n/a	Yes	2.784	n/a	n/a	GoodResponse	1	n/a	n/a	3	5	Blank	Win	True
62.465	1.45	Win2	0.8332999999999999	n/a	Yes	2.784	n/a	5.0	GoodResponse	1	0.0	61.465	3	5	Feedback	Win	True
63.914	2.784	Win2	0.8332999999999999	n/a	Yes	2.784	n/a	n/a	GoodResponse	1	0.0	n/a	3	5	ISIslide	Win	True
66.713	0.25	Lose2	0.8571	0.0	Yes	2.737	0.013	n/a	GoodResponse	0	n/a	n/a	3	6	Cue	AvoidedLoss	True
66.963	3.95	Lose2	0.8571	0.0	Yes	2.737	0.0	n/a	GoodResponse	0	n/a	n/a	3	6	Fixation	AvoidedLoss	True
70.912	0.34	Lose2	0.8571	0.001	Yes	2.737	-0.001	4.0	GoodResponse	0	0.206	70.118	3	6	Target	AvoidedLoss	True
71.118	0.3	Lose2	0.8571	0.001	Yes	2.737	-0.001	4.0	GoodResponse	0	0.206	n/a	3	6	ButtonPress	AvoidedLoss	True
71.261	0.36	Lose2	0.8571	n/a	Yes	2.737	n/a	n/a	GoodResponse	0	n/a	n/a	3	6	Blank	AvoidedLoss	True
71.611	1.45	Lose2	0.8571	n/a	Yes	2.737	n/a	5.0	GoodResponse	0	0.024	70.635	3	6	Feedback	AvoidedLoss	True
73.061	2.737	Lose2	0.8571	n/a	Yes	2.737	n/a	n/a	GoodResponse	0	0.0	n/a	3	6	ISIslide	AvoidedLoss	True
75.827	0.25	Lose2	0.875	0.0	Yes	4.023	0.027	n/a	GoodResponse	0	n/a	n/a	3	7	Cue	AvoidedLoss	True
76.076	4.05	Lose2	0.875	0.001	Yes	4.023	-0.001	n/a	GoodResponse	0	n/a	n/a	3	7	Fixation	AvoidedLoss	True
80.125	0.33	Lose2	0.875	0.002	Yes	4.023	-0.002	4.0	GoodResponse	0	0.251	79.376	3	7	Target	AvoidedLoss	True
80.376	0.3	Lose2	0.875	0.002	Yes	4.023	-0.002	4.0	GoodResponse	0	0.251	n/a	3	7	ButtonPress	AvoidedLoss	True
80.458	0.37	Lose2	0.875	n/a	Yes	4.023	n/a	n/a	GoodResponse	0	n/a	n/a	3	7	Blank	AvoidedLoss	True
80.825	1.45	Lose2	0.875	n/a	Yes	4.023	n/a	5.0	GoodResponse	0	0.03	79.855	3	7	Feedback	AvoidedLoss	True
82.274	4.023	Lose2	0.875	n/a	Yes	4.023	n/a	n/a	GoodResponse	0	0.0	n/a	3	7	ISIslide	AvoidedLoss	True
86.323	0.25	Lose2	0.8889	0.0	Yes	3.027	0.023	n/a	GoodResponse	0	n/a	n/a	3	8	Cue	AvoidedLoss	True
86.573	3.95	Lose2	0.8889	0.0	Yes	3.027	0.0	n/a	GoodResponse	0	n/a	n/a	3	8	Fixation	AvoidedLoss	True
90.521	0.32	Lose2	0.8889	0.002	Yes	3.027	-0.002	4.0	GoodResponse	0	0.224	89.745	3	8	Target	AvoidedLoss	True
90.745	0.3	Lose2	0.8889	0.002	Yes	3.027	-0.002	4.0	GoodResponse	0	0.224	n/a	3	8	ButtonPress	AvoidedLoss	True
90.855	0.38	Lose2	0.8889	n/a	Yes	3.027	n/a	n/a	GoodResponse	0	n/a	n/a	3	8	Blank	AvoidedLoss	True
91.221	1.45	Lose2	0.8889	n/a	Yes	3.027	n/a	5.0	GoodResponse	0	0.024	90.245	3	8	Feedback	AvoidedLoss	True
92.671	3.027	Lose2	0.8889	n/a	Yes	3.027	n/a	n/a	GoodResponse	0	0.0	n/a	3	8	ISIslide	AvoidedLoss	True
95.72	0.25	Lose2	0.9	0.0	Yes	3.13	0.02	n/a	GoodResponse	0	n/a	n/a	3	9	Cue	AvoidedLoss	True
95.969	3.95	Lose2	0.9	0.001	Yes	3.13	-0.001	n/a	GoodResponse	0	n/a	n/a	3	9	Fixation	AvoidedLoss	True
99.918	0.31	Lose2	0.9	0.002	Yes	3.13	-0.002	4.0	GoodResponse	0	0.235	99.153	3	9	Target	AvoidedLoss	True
100.153	0.3	Lose2	0.9	0.002	Yes	3.13	-0.002	4.0	GoodResponse	0	0.235	n/a	3	9	ButtonPress	AvoidedLoss	True
100.235	0.39	Lose2	0.9	n/a	Yes	3.13	n/a	n/a	GoodResponse	0	n/a	n/a	3	9	Blank	AvoidedLoss	True
100.618	1.45	Lose2	0.9	n/a	Yes	3.13	n/a	5.0	GoodResponse	0	0.041	99.659	3	9	Feedback	AvoidedLoss	True
102.067	3.13	Lose2	0.9	n/a	Yes	3.13	n/a	n/a	GoodResponse	0	0.0	n/a	3	9	ISIslide	AvoidedLoss	True
105.216	0.25	Control	0.9091	0.0	Yes	3.284	0.016	n/a	GoodResponse	0	n/a	n/a	3	10	Cue	Neutral	True
105.466	4.0	Control	0.9091	0.0	Yes	3.284	0.0	n/a	GoodResponse	0	n/a	n/a	3	10	Fixation	Neutral	True
109.465	0.3	Control	0.9091	0.001	Yes	3.284	-0.001	4.0	GoodResponse	0	0.237	108.702	3	10	Target	Neutral	True
109.702	0.3	Control	0.9091	0.001	Yes	3.284	-0.001	4.0	GoodResponse	0	0.237	n/a	3	10	ButtonPress	Neutral	True
109.765	0.4	Control	0.9091	n/a	Yes	3.284	n/a	n/a	GoodResponse	0	n/a	n/a	3	10	Blank	Neutral	True
110.164	1.45	Control	0.9091	n/a	Yes	3.284	n/a	5.0	GoodResponse	0	0.008	109.172	3	10	Feedback	Neutral	True
111.614	3.284	Control	0.9091	n/a	Yes	3.284	n/a	n/a	GoodResponse	0	0.0	n/a	3	10	ISIslide	Neutral	True
114.929	0.25	Lose2	0.9167000000000001	0.001	Yes	2.721	0.029	n/a	GoodResponse	0	n/a	n/a	3	11	Cue	AvoidedLoss	True
115.179	4.05	Lose2	0.9167000000000001	0.0	Yes	2.721	0.0	n/a	GoodResponse	0	n/a	n/a	3	11	Fixation	AvoidedLoss	True
119.228	0.29	Lose2	0.9167000000000001	0.001	Yes	2.721	-0.001	4.0	GoodResponse	0	0.225	118.453	3	11	Target	AvoidedLoss	True
119.453	0.3	Lose2	0.9167000000000001	0.001	Yes	2.721	-0.001	4.0	GoodResponse	0	0.225	n/a	3	11	ButtonPress	AvoidedLoss	True
119.528	0.41	Lose2	0.9167000000000001	n/a	Yes	2.721	n/a	n/a	GoodResponse	0	n/a	n/a	3	11	Blank	AvoidedLoss	True
119.928	1.45	Lose2	0.9167000000000001	n/a	Yes	2.721	n/a	5.0	GoodResponse	0	0.0	118.928	3	11	Feedback	AvoidedLoss	True
121.377	2.721	Lose2	0.9167000000000001	n/a	Yes	2.721	n/a	n/a	GoodResponse	0	0.0	n/a	3	11	ISIslide	AvoidedLoss	True
124.126	0.25	Control	0.9231	0.0	Yes	2.974	0.026	n/a	GoodResponse	0	n/a	n/a	3	12	Cue	Neutral	True
124.376	3.9	Control	0.9231	0.0	Yes	2.974	0.0	n/a	GoodResponse	0	n/a	n/a	3	12	Fixation	Neutral	True
128.275	0.28	Control	0.9231	0.001	Yes	2.974	-0.001	4.0	GoodResponse	0	0.222	127.497	3	12	Target	Neutral	True
128.497	0.3	Control	0.9231	0.001	Yes	2.974	-0.001	4.0	GoodResponse	0	0.222	n/a	3	12	ButtonPress	Neutral	True
128.558	0.42	Control	0.9231	n/a	Yes	2.974	n/a	n/a	GoodResponse	0	n/a	n/a	3	12	Blank	Neutral	True
128.974	1.45	Control	0.9231	n/a	Yes	2.974	n/a	5.0	GoodResponse	0	0.027	128.001	3	12	Feedback	Neutral	True
130.424	2.974	Control	0.9231	n/a	Yes	2.974	n/a	n/a	GoodResponse	0	0.0	n/a	3	12	ISIslide	Neutral	True
133.423	0.25	Control	0.9286	0.0	Yes	2.777	0.023	n/a	GoodResponse	0	n/a	n/a	3	13	Cue	Neutral	True
133.673	4.0	Control	0.9286	0.0	Yes	2.777	0.0	n/a	GoodResponse	0	n/a	n/a	3	13	Fixation	Neutral	True
137.671	0.27	Control	0.9286	0.002	Yes	2.777	-0.002	4.0	GoodResponse	0	0.259	136.93	3	13	Target	Neutral	True
137.93	0.3	Control	0.9286	0.002	Yes	2.777	-0.002	4.0	GoodResponse	0	0.259	n/a	3	13	ButtonPress	Neutral	True
137.955	0.43	Control	0.9286	n/a	Yes	2.777	n/a	n/a	GoodResponse	0	n/a	n/a	3	13	Blank	Neutral	True
138.371	1.45	Control	0.9286	n/a	Yes	2.777	n/a	5.0	GoodResponse	0	0.044	137.415	3	13	Feedback	Neutral	True
139.821	2.777	Control	0.9286	n/a	Yes	2.777	n/a	n/a	GoodResponse	0	0.0	n/a	3	13	ISIslide	Neutral	True
142.62	0.25	Win2	0.9333	0.0	Yes	2.68	0.02	n/a	GoodResponse	1	n/a	n/a	4	14	Cue	Win	True
142.87	4.1	Win2	0.9333	0.0	Yes	2.68	0.0	n/a	GoodResponse	1	n/a	n/a	4	14	Fixation	Win	True
146.968	0.26	Win2	0.9333	0.002	Yes	2.68	-0.002	4.0	GoodResponse	1	0.23	146.198	4	14	Target	Win	True
147.198	0.3	Win2	0.9333	0.002	Yes	2.68	-0.002	4.0	GoodResponse	1	0.23	n/a	4	14	ButtonPress	Win	True
147.235	0.44	Win2	0.9333	n/a	Yes	2.68	n/a	n/a	GoodResponse	1	n/a	n/a	4	14	Blank	Win	True
147.668	1.45	Win2	0.9333	n/a	Yes	2.68	n/a	5.0	GoodResponse	1	0.015	146.683	4	14	Feedback	Win	True
149.117	2.68	Win2	0.9333	n/a	Yes	2.68	n/a	n/a	GoodResponse	1	0.0	n/a	4	14	ISIslide	Win	True
151.816	0.25	Control	0.875	0.001	No	2.984	0.016	n/a	NoResponse	0	n/a	n/a	4	15	Cue	Neutral	True
152.066	4.0	Control	0.875	0.0	No	2.984	0.0	n/a	NoResponse	0	n/a	n/a	4	15	Fixation	Neutral	True
156.065	0.25	Control	0.875	0.001	No	2.984	-0.001	4.0	NoResponse	0	0.323	155.388	4	15	Target	Neutral	True
156.315	0.45	Control	0.875	n/a	No	2.984	n/a	n/a	NoResponse	0	n/a	n/a	4	15	Blank	Neutral	True
156.388	0.3	Control	0.875	0.001	No	2.984	-0.001	4.0	NoResponse	0	0.323	n/a	4	15	ButtonPress	Neutral	True
156.765	1.45	Control	0.875	n/a	No	2.984	n/a	5.0	NoResponse	0	0.04	155.805	4	15	Feedback	Neutral	True
158.214	2.984	Control	0.875	n/a	No	2.984	n/a	n/a	NoResponse	0	0.0	n/a	4	15	ISIslide	Neutral	True
161.213	0.25	Win2	0.8824	0.0	Yes	2.887	0.013	n/a	GoodResponse	1	n/a	n/a	5	16	Cue	Win	True
161.463	4.0	Win2	0.8824	0.0	Yes	2.887	0.0	n/a	GoodResponse	1	n/a	n/a	5	16	Fixation	Win	True
165.462	0.24	Win2	0.8824	0.001	Yes	2.887	-0.001	4.0	GoodResponse	1	0.188	164.65	5	16	Target	Win	True
165.65	0.3	Win2	0.8824	0.001	Yes	2.887	-0.001	4.0	GoodResponse	1	0.188	n/a	5	16	ButtonPress	Win	True
165.712	0.46	Win2	0.8824	n/a	Yes	2.887	n/a	n/a	GoodResponse	1	n/a	n/a	5	16	Blank	Win	True
166.161	1.45	Win2	0.8824	n/a	Yes	2.887	n/a	5.0	GoodResponse	1	0.01	165.171	5	16	Feedback	Win	True
167.611	2.887	Win2	0.8824	n/a	Yes	2.887	n/a	n/a	GoodResponse	1	0.0	n/a	5	16	ISIslide	Win	True
170.527	0.25	Lose2	0.8889	0.0	Yes	2.723	0.027	n/a	GoodResponse	0	n/a	n/a	5	17	Cue	AvoidedLoss	True
170.776	3.95	Lose2	0.8889	0.001	Yes	2.723	-0.001	n/a	GoodResponse	0	n/a	n/a	5	17	Fixation	AvoidedLoss	True
174.725	0.23	Lose2	0.8889	0.002	Yes	2.723	-0.002	4.0	GoodResponse	0	0.204	173.929	5	17	Target	AvoidedLoss	True
174.929	0.3	Lose2	0.8889	0.002	Yes	2.723	-0.002	4.0	GoodResponse	0	0.204	n/a	5	17	ButtonPress	AvoidedLoss	True
174.958	0.47	Lose2	0.8889	n/a	Yes	2.723	n/a	n/a	GoodResponse	0	n/a	n/a	5	17	Blank	AvoidedLoss	True
175.425	1.45	Lose2	0.8889	n/a	Yes	2.723	n/a	5.0	GoodResponse	0	0.015	174.44	5	17	Feedback	AvoidedLoss	True
176.874	2.723	Lose2	0.8889	n/a	Yes	2.723	n/a	n/a	GoodResponse	0	0.0	n/a	5	17	ISIslide	AvoidedLoss	True
179.623	0.25	Lose2	0.8421	0.0	No	2.727	0.023	n/a	NoResponse	-1	n/a	n/a	4	18	Cue	Loss	True
179.873	4.05	Lose2	0.8421	0.0	No	2.727	0.0	n/a	NoResponse	-1	n/a	n/a	4	18	Fixation	Loss	True
183.922	0.22	Lose2	0.8421	0.001	No	2.727	-0.001	4.0	NoResponse	-1	0.222	183.144	4	18	Target	Loss	True
184.138	0.48	Lose2	0.8421	n/a	No	2.727	n/a	n/a	NoResponse	-1	n/a	n/a	4	18	Blank	Loss	True
184.144	0.3	Lose2	0.8421	0.001	No	2.727	-0.001	4.0	NoResponse	-1	0.222	n/a	4	18	ButtonPress	Loss	True
184.622	1.45	Lose2	0.8421	n/a	No	2.727	n/a	5.0	NoResponse	-1	0.036	183.658	4	18	Feedback	Loss	True
186.071	2.727	Lose2	0.8421	n/a	No	2.727	n/a	n/a	NoResponse	-1	0.0	n/a	4	18	ISIslide	Loss	True
188.82	0.25	Control	0.8	0.0	No	2.93	0.02	n/a	LatePress	0	n/a	n/a	4	19	Cue	Neutral	True
189.07	3.95	Control	0.8	0.0	No	2.93	0.0	n/a	LatePress	0	n/a	n/a	4	19	Fixation	Neutral	True
193.019	0.21	Control	0.8	0.001	No	2.93	-0.001	4.0	LatePress	0	0.216	192.235	4	19	Target	Neutral	True
193.235	0.49	Control	0.8	n/a	No	2.93	n/a	n/a	LatePress	0	n/a	n/a	4	19	Blank	Neutral	True
193.235	0.3	Control	0.8	0.001	No	2.93	-0.001	4.0	LatePress	0	0.216	n/a	4	19	ButtonPress	Neutral	True
193.718	1.45	Control	0.8	n/a	No	2.93	n/a	5.0	LatePress	0	0.013	192.731	4	19	Feedback	Neutral	True
195.168	2.93	Control	0.8	n/a	No	2.93	n/a	n/a	LatePress	0	0.0	n/a	4	19	ISIslide	Neutral	True
198.117	0.25	Control	0.7619	0.0	No	2.633	0.017	n/a	NoResponse	0	n/a	n/a	4	20	Cue	Neutral	True
198.367	4.05	Control	0.7619	0.0	No	2.633	0.0	n/a	NoResponse	0	n/a	n/a	4	20	Fixation	Neutral	True
202.415	0.2	Control	0.7619	0.002	No	2.633	-0.002	4.0	NoResponse	0	0.286	201.701	4	20	Target	Neutral	True
202.615	0.5	Control	0.7619	n/a	No	2.633	n/a	n/a	NoResponse	0	n/a	n/a	4	20	Blank	Neutral	True
202.701	0.3	Control	0.7619	0.002	No	2.633	-0.002	4.0	NoResponse	0	0.286	n/a	4	20	ButtonPress	Neutral	True
203.115	1.45	Control	0.7619	n/a	No	2.633	n/a	5.0	NoResponse	0	0.031	202.146	4	20	Feedback	Neutral	True
204.565	2.633	Control	0.7619	n/a	No	2.633	n/a	n/a	NoResponse	0	0.0	n/a	4	20	ISIslide	Neutral	True
207.23	0.25	Control	0.7273000000000001	0.0	No	2.77	0.03	n/a	NoResponse	0	n/a	n/a	4	21	Cue	Neutral	True
207.48	4.1	Control	0.7273000000000001	0.0	No	2.77	0.0	n/a	NoResponse	0	n/a	n/a	4	21	Fixation	Neutral	True
211.579	0.19	Control	0.7273000000000001	0.001	No	2.77	-0.001	4.0	NoResponse	0	0.343	210.922	4	21	Target	Neutral	True
211.779	0.51	Control	0.7273000000000001	n/a	No	2.77	n/a	n/a	NoResponse	0	n/a	n/a	4	21	Blank	Neutral	True
211.922	0.3	Control	0.7273000000000001	0.001	No	2.77	-0.001	4.0	NoResponse	0	0.343	n/a	4	21	ButtonPress	Neutral	True
212.278	1.45	Control	0.7273000000000001	n/a	No	2.77	n/a	5.0	NoResponse	0	0.039	211.317	4	21	Feedback	Neutral	True
213.728	2.77	Control	0.7273000000000001	n/a	No	2.77	n/a	n/a	NoResponse	0	0.0	n/a	4	21	ISIslide	Neutral	True
216.527	0.25	Control	0.6957	0.0	No	2.773	0.027	n/a	NoResponse	0	n/a	n/a	4	22	Cue	Neutral	True
216.777	4.0	Control	0.6957	0.0	No	2.773	0.0	n/a	NoResponse	0	n/a	n/a	4	22	Fixation	Neutral	True
220.776	0.18	Control	0.6957	0.001	No	2.773	-0.001	4.0	NoResponse	0	0.216	219.992	4	22	Target	Neutral	True
220.959	0.52	Control	0.6957	n/a	No	2.773	n/a	n/a	NoResponse	0	n/a	n/a	4	22	Blank	Neutral	True
220.992	0.3	Control	0.6957	0.001	No	2.773	-0.001	4.0	NoResponse	0	0.216	n/a	4	22	ButtonPress	Neutral	True
221.475	1.45	Control	0.6957	n/a	No	2.773	n/a	5.0	NoResponse	0	0.013	220.488	4	22	Feedback	Neutral	True
222.925	2.773	Control	0.6957	n/a	No	2.773	n/a	n/a	NoResponse	0	0.0	n/a	4	22	ISIslide	Neutral	True
225.724	0.25	Control	0.6667000000000001	0.0	No	2.776	0.024	n/a	NoResponse	0	n/a	n/a	4	23	Cue	Neutral	True
225.974	3.9	Control	0.6667000000000001	0.0	No	2.776	0.0	n/a	NoResponse	0	n/a	n/a	4	23	Fixation	Neutral	True
229.872	0.17	Control	0.6667000000000001	0.002	No	2.776	-0.002	4.0	NoResponse	0	0.227	229.099	4	23	Target	Neutral	True
230.056	0.53	Control	0.6667000000000001	n/a	No	2.776	n/a	n/a	NoResponse	0	n/a	n/a	4	23	Blank	Neutral	True
230.099	0.3	Control	0.6667000000000001	0.002	No	2.776	-0.002	4.0	NoResponse	0	0.227	n/a	4	23	ButtonPress	Neutral	True
230.572	1.45	Control	0.6667000000000001	n/a	No	2.776	n/a	5.0	NoResponse	0	0.037	229.609	4	23	Feedback	Neutral	True
232.022	2.776	Control	0.6667000000000001	n/a	No	2.776	n/a	n/a	NoResponse	0	0.0	n/a	4	23	ISIslide	Neutral	True
234.821	0.25	Win2	0.64	0.0	No	3.129	0.021	n/a	NoResponse	0	n/a	n/a	4	24	Cue	MissedWin	True
235.07	3.95	Win2	0.64	0.001	No	3.129	-0.001	n/a	NoResponse	0	n/a	n/a	4	24	Fixation	MissedWin	True
239.019	0.16	Win2	0.64	0.002	No	3.129	-0.002	4.0	NoResponse	0	0.222	238.241	4	24	Target	MissedWin	True
239.186	0.54	Win2	0.64	n/a	No	3.129	n/a	n/a	NoResponse	0	n/a	n/a	4	24	Blank	MissedWin	True
239.241	0.3	Win2	0.64	0.002	No	3.129	-0.002	4.0	NoResponse	0	0.222	n/a	4	24	ButtonPress	MissedWin	True
239.719	1.45	Win2	0.64	n/a	No	3.129	n/a	5.0	NoResponse	0	0.012	238.731	4	24	Feedback	MissedWin	True
241.168	3.129	Win2	0.64	n/a	No	3.129	n/a	n/a	NoResponse	0	0.0	n/a	4	24	ISIslide	MissedWin	True
244.317	0.25	Win2	0.6154	0.0	No	3.083	0.017	n/a	NoResponse	0	n/a	n/a	4	25	Cue	MissedWin	True
244.567	4.0	Win2	0.6154	0.0	No	3.083	0.0	n/a	NoResponse	0	n/a	n/a	4	25	Fixation	MissedWin	True
248.566	0.17	Win2	0.6154	0.001	No	3.083	-0.001	4.0	NoResponse	0	0.211	247.777	4	25	Target	MissedWin	True
248.749	0.53	Win2	0.6154	n/a	No	3.083	n/a	n/a	NoResponse	0	n/a	n/a	4	25	Blank	MissedWin	True
248.777	0.3	Win2	0.6154	0.001	No	3.083	-0.001	4.0	NoResponse	0	0.211	n/a	4	25	ButtonPress	MissedWin	True
249.265	1.45	Win2	0.6154	n/a	No	3.083	n/a	5.0	NoResponse	0	0.027	248.292	4	25	Feedback	MissedWin	True
250.715	3.083	Win2	0.6154	n/a	No	3.083	n/a	n/a	NoResponse	0	0.0	n/a	4	25	ISIslide	MissedWin	True
253.831	0.25	Win2	0.5926	0.0	No	2.919	0.031	n/a	NoResponse	0	n/a	n/a	4	26	Cue	MissedWin	True
254.08	3.95	Win2	0.5926	0.001	No	2.919	-0.001	n/a	NoResponse	0	n/a	n/a	4	26	Fixation	MissedWin	True
258.029	0.18	Win2	0.5926	0.002	No	2.919	-0.002	4.0	NoResponse	0	0.192	257.221	4	26	Target	MissedWin	True
258.212	0.52	Win2	0.5926	n/a	No	2.919	n/a	n/a	NoResponse	0	n/a	n/a	4	26	Blank	MissedWin	True
258.221	0.3	Win2	0.5926	0.002	No	2.919	-0.002	4.0	NoResponse	0	0.192	n/a	4	26	ButtonPress	MissedWin	True
258.729	1.45	Win2	0.5926	n/a	No	2.919	n/a	5.0	NoResponse	0	0.027	257.756	4	26	Feedback	MissedWin	True
260.178	2.919	Win2	0.5926	n/a	No	2.919	n/a	n/a	NoResponse	0	0.0	n/a	4	26	ISIslide	MissedWin	True
263.127	0.25	Lose2	0.6071	0.0	Yes	2.823	0.027	n/a	GoodResponse	0	n/a	n/a	4	27	Cue	AvoidedLoss	True
263.377	4.05	Lose2	0.6071	0.0	Yes	2.823	0.0	n/a	GoodResponse	0	n/a	n/a	4	27	Fixation	AvoidedLoss	True
267.426	0.19	Lose2	0.6071	0.001	Yes	2.823	-0.001	4.0	GoodResponse	0	0.18	266.606	4	27	Target	AvoidedLoss	True
267.606	0.3	Lose2	0.6071	0.001	Yes	2.823	-0.001	4.0	GoodResponse	0	0.18	n/a	4	27	ButtonPress	AvoidedLoss	True
267.626	0.51	Lose2	0.6071	n/a	Yes	2.823	n/a	n/a	GoodResponse	0	n/a	n/a	4	27	Blank	AvoidedLoss	True
268.125	1.45	Lose2	0.6071	n/a	Yes	2.823	n/a	5.0	GoodResponse	0	0.044	267.169	4	27	Feedback	AvoidedLoss	True
269.575	2.823	Lose2	0.6071	n/a	Yes	2.823	n/a	n/a	GoodResponse	0	0.0	n/a	4	27	ISIslide	AvoidedLoss	True
272.424	0.25	Control	0.5861999999999999	0.0	No	2.826	0.024	n/a	NoResponse	0	n/a	n/a	4	28	Cue	Neutral	True
272.674	4.05	Control	0.5861999999999999	0.0	No	2.826	0.0	n/a	NoResponse	0	n/a	n/a	4	28	Fixation	Neutral	True
276.722	0.2	Control	0.5861999999999999	0.002	No	2.826	-0.002	4.0	NoResponse	0	0.202	275.924	4	28	Target	Neutral	True
276.922	0.5	Control	0.5861999999999999	n/a	No	2.826	n/a	n/a	NoResponse	0	n/a	n/a	4	28	Blank	Neutral	True
276.924	0.3	Control	0.5861999999999999	0.002	No	2.826	-0.002	4.0	NoResponse	0	0.202	n/a	4	28	ButtonPress	Neutral	True
277.422	1.45	Control	0.5861999999999999	n/a	No	2.826	n/a	5.0	NoResponse	0	0.016	276.438	4	28	Feedback	Neutral	True
278.872	2.826	Control	0.5861999999999999	n/a	No	2.826	n/a	n/a	NoResponse	0	0.0	n/a	4	28	ISIslide	Neutral	True
281.721	0.25	Lose2	0.5667	0.0	No	2.829	0.021	n/a	NoResponse	-1	n/a	n/a	3	29	Cue	Loss	True
281.971	3.95	Lose2	0.5667	0.0	No	2.829	0.0	n/a	NoResponse	-1	n/a	n/a	3	29	Fixation	Loss	True
285.919	0.21	Lose2	0.5667	0.002	No	2.829	-0.002	4.0	NoResponse	-1	0.264	285.183	3	29	Target	Loss	True
286.136	0.49	Lose2	0.5667	n/a	No	2.829	n/a	n/a	NoResponse	-1	n/a	n/a	3	29	Blank	Loss	True
286.183	0.3	Lose2	0.5667	0.002	No	2.829	-0.002	4.0	NoResponse	-1	0.264	n/a	3	29	ButtonPress	Loss	True
286.619	1.45	Lose2	0.5667	n/a	No	2.829	n/a	5.0	NoResponse	-1	0.038	285.657	3	29	Feedback	Loss	True
288.068	2.829	Lose2	0.5667	n/a	No	2.829	n/a	n/a	NoResponse	-1	0.0	n/a	3	29	ISIslide	Loss	True
290.917	0.25	Win2	0.5806	0.001	Yes	2.783	0.017	n/a	GoodResponse	1	n/a	n/a	4	30	Cue	Win	True
291.167	3.9	Win2	0.5806	0.0	Yes	2.783	0.0	n/a	GoodResponse	1	n/a	n/a	4	30	Fixation	Win	True
295.066	0.22	Win2	0.5806	0.001	Yes	2.783	-0.001	4.0	GoodResponse	1	0.209	294.275	4	30	Target	Win	True
295.275	0.3	Win2	0.5806	0.001	Yes	2.783	-0.001	4.0	GoodResponse	1	0.209	n/a	4	30	ButtonPress	Win	True
295.283	0.48	Win2	0.5806	n/a	Yes	2.783	n/a	n/a	GoodResponse	1	n/a	n/a	4	30	Blank	Win	True
295.766	1.45	Win2	0.5806	n/a	Yes	2.783	n/a	5.0	GoodResponse	1	0.014	294.78	4	30	Feedback	Win	True
297.215	2.783	Win2	0.5806	n/a	Yes	2.783	n/a	n/a	GoodResponse	1	0.0	n/a	4	30	ISIslide	Win	True
300.014	0.25	Lose2	0.5938	0.0	Yes	2.836	0.014	n/a	GoodResponse	0	n/a	n/a	4	31	Cue	AvoidedLoss	True
300.264	4.05	Lose2	0.5938	0.0	Yes	2.836	0.0	n/a	GoodResponse	0	n/a	n/a	4	31	Fixation	AvoidedLoss	True
304.313	0.23	Lose2	0.5938	0.001	Yes	2.836	-0.001	4.0	GoodResponse	0	0.209	303.522	4	31	Target	AvoidedLoss	True
304.522	0.3	Lose2	0.5938	0.001	Yes	2.836	-0.001	4.0	GoodResponse	0	0.209	n/a	4	31	ButtonPress	AvoidedLoss	True
304.546	0.47	Lose2	0.5938	n/a	Yes	2.836	n/a	n/a	GoodResponse	0	n/a	n/a	4	31	Blank	AvoidedLoss	True
305.012	1.45	Lose2	0.5938	n/a	Yes	2.836	n/a	5.0	GoodResponse	0	0.036	304.048	4	31	Feedback	AvoidedLoss	True
306.462	2.836	Lose2	0.5938	n/a	Yes	2.836	n/a	n/a	GoodResponse	0	0.0	n/a	4	31	ISIslide	AvoidedLoss	True
309.328	0.25	Lose2	0.6061	0.0	Yes	2.622	0.028	n/a	GoodResponse	0	n/a	n/a	4	32	Cue	AvoidedLoss	True
309.578	4.15	Lose2	0.6061	0.0	Yes	2.622	0.0	n/a	GoodResponse	0	n/a	n/a	4	32	Fixation	AvoidedLoss	True
313.726	0.24	Lose2	0.6061	0.002	Yes	2.622	-0.002	4.0	GoodResponse	0	0.212	312.938	4	32	Target	AvoidedLoss	True
313.938	0.3	Lose2	0.6061	0.002	Yes	2.622	-0.002	4.0	GoodResponse	0	0.212	n/a	4	32	ButtonPress	AvoidedLoss	True
313.976	0.46	Lose2	0.6061	n/a	Yes	2.622	n/a	n/a	GoodResponse	0	n/a	n/a	4	32	Blank	AvoidedLoss	True
314.426	1.45	Lose2	0.6061	n/a	Yes	2.622	n/a	5.0	GoodResponse	0	0.036	313.462	4	32	Feedback	AvoidedLoss	True
315.875	2.622	Lose2	0.6061	n/a	Yes	2.622	n/a	n/a	GoodResponse	0	0.0	n/a	4	32	ISIslide	AvoidedLoss	True
318.524	0.25	Win2	0.6175999999999999	0.0	Yes	2.676	0.024	n/a	GoodResponse	1	n/a	n/a	5	33	Cue	Win	True
318.774	4.0	Win2	0.6175999999999999	0.0	Yes	2.676	0.0	n/a	GoodResponse	1	n/a	n/a	5	33	Fixation	Win	True
322.773	0.25	Win2	0.6175999999999999	0.001	Yes	2.676	-0.001	4.0	GoodResponse	1	0.199	321.972	5	33	Target	Win	True
322.972	0.3	Win2	0.6175999999999999	0.001	Yes	2.676	-0.001	4.0	GoodResponse	1	0.199	n/a	5	33	ButtonPress	Win	True
323.023	0.45	Win2	0.6175999999999999	n/a	Yes	2.676	n/a	n/a	GoodResponse	1	n/a	n/a	5	33	Blank	Win	True
323.473	1.45	Win2	0.6175999999999999	n/a	Yes	2.676	n/a	5.0	GoodResponse	1	0.013	322.486	5	33	Feedback	Win	True
324.922	2.676	Win2	0.6175999999999999	n/a	Yes	2.676	n/a	n/a	GoodResponse	1	0.0	n/a	5	33	ISIslide	Win	True
327.621	0.25	Lose2	0.6286	0.0	Yes	2.629	0.021	n/a	GoodResponse	0	n/a	n/a	5	34	Cue	AvoidedLoss	True
327.871	4.05	Lose2	0.6286	0.0	Yes	2.629	0.0	n/a	GoodResponse	0	n/a	n/a	5	34	Fixation	AvoidedLoss	True
331.92	0.26	Lose2	0.6286	0.001	Yes	2.629	-0.001	4.0	GoodResponse	0	0.21	331.13	5	34	Target	AvoidedLoss	True
332.13	0.3	Lose2	0.6286	0.001	Yes	2.629	-0.001	4.0	GoodResponse	0	0.21	n/a	5	34	ButtonPress	AvoidedLoss	True
332.186	0.44	Lose2	0.6286	n/a	Yes	2.629	n/a	n/a	GoodResponse	0	n/a	n/a	5	34	Blank	AvoidedLoss	True
332.619	1.45	Lose2	0.6286	n/a	Yes	2.629	n/a	5.0	GoodResponse	0	0.038	331.657	5	34	Feedback	AvoidedLoss	True
334.069	2.629	Lose2	0.6286	n/a	Yes	2.629	n/a	n/a	GoodResponse	0	0.0	n/a	5	34	ISIslide	AvoidedLoss	True
336.718	0.25	Lose2	0.6389	0.0	Yes	2.682	0.018	n/a	GoodResponse	0	n/a	n/a	5	35	Cue	AvoidedLoss	True
336.968	4.0	Lose2	0.6389	0.0	Yes	2.682	0.0	n/a	GoodResponse	0	n/a	n/a	5	35	Fixation	AvoidedLoss	True
340.966	0.27	Lose2	0.6389	0.002	Yes	2.682	-0.002	4.0	GoodResponse	0	0.185	340.151	5	35	Target	AvoidedLoss	True
341.151	0.3	Lose2	0.6389	0.002	Yes	2.682	-0.002	4.0	GoodResponse	0	0.185	n/a	5	35	ButtonPress	AvoidedLoss	True
341.25	0.43	Lose2	0.6389	n/a	Yes	2.682	n/a	n/a	GoodResponse	0	n/a	n/a	5	35	Blank	AvoidedLoss	True
341.666	1.45	Lose2	0.6389	n/a	Yes	2.682	n/a	5.0	GoodResponse	0	0.016	340.682	5	35	Feedback	AvoidedLoss	True
343.116	2.682	Lose2	0.6389	n/a	Yes	2.682	n/a	n/a	GoodResponse	0	0.0	n/a	5	35	ISIslide	AvoidedLoss	True
345.815	0.25	Control	0.6486	0.0	Yes	2.685	0.015	n/a	GoodResponse	0	n/a	n/a	5	36	Cue	Neutral	True
346.065	4.0	Control	0.6486	0.0	Yes	2.685	0.0	n/a	GoodResponse	0	n/a	n/a	5	36	Fixation	Neutral	True
350.063	0.28	Control	0.6486	0.002	Yes	2.685	-0.002	4.0	GoodResponse	0	0.232	349.295	5	36	Target	Neutral	True
350.295	0.3	Control	0.6486	0.002	Yes	2.685	-0.002	4.0	GoodResponse	0	0.232	n/a	5	36	ButtonPress	Neutral	True
350.346	0.42	Control	0.6486	n/a	Yes	2.685	n/a	n/a	GoodResponse	0	n/a	n/a	5	36	Blank	Neutral	True
350.763	1.45	Control	0.6486	n/a	Yes	2.685	n/a	5.0	GoodResponse	0	0.041	349.804	5	36	Feedback	Neutral	True
352.213	2.685	Control	0.6486	n/a	Yes	2.685	n/a	n/a	GoodResponse	0	0.0	n/a	5	36	ISIslide	Neutral	True
354.928	0.25	Win2	0.6579	0.0	Yes	2.872	0.028	n/a	GoodResponse	1	n/a	n/a	6	37	Cue	Win	True
355.178	4.0	Win2	0.6579	0.0	Yes	2.872	0.0	n/a	GoodResponse	1	n/a	n/a	6	37	Fixation	Win	True
359.177	0.29	Win2	0.6579	0.001	Yes	2.872	-0.001	4.0	GoodResponse	1	0.253	358.43	6	37	Target	Win	True
359.43	0.3	Win2	0.6579	0.001	Yes	2.872	-0.001	4.0	GoodResponse	1	0.253	n/a	6	37	ButtonPress	Win	True
359.477	0.41	Win2	0.6579	n/a	Yes	2.872	n/a	n/a	GoodResponse	1	n/a	n/a	6	37	Blank	Win	True
359.876	1.45	Win2	0.6579	n/a	Yes	2.872	n/a	5.0	GoodResponse	1	0.049	358.925	6	37	Feedback	Win	True
361.326	2.872	Win2	0.6579	n/a	Yes	2.872	n/a	n/a	GoodResponse	1	0.0	n/a	6	37	ISIslide	Win	True
364.225	0.25	Lose2	0.6667000000000001	0.0	Yes	2.825	0.025	n/a	GoodResponse	0	n/a	n/a	6	38	Cue	AvoidedLoss	True
364.475	3.95	Lose2	0.6667000000000001	0.0	Yes	2.825	0.0	n/a	GoodResponse	0	n/a	n/a	6	38	Fixation	AvoidedLoss	True
368.423	0.29	Lose2	0.6667000000000001	0.002	Yes	2.825	-0.002	4.0	GoodResponse	0	0.194	367.617	6	38	Target	AvoidedLoss	True
368.617	0.3	Lose2	0.6667000000000001	0.002	Yes	2.825	-0.002	4.0	GoodResponse	0	0.194	n/a	6	38	ButtonPress	AvoidedLoss	True
368.723	0.41	Lose2	0.6667000000000001	n/a	Yes	2.825	n/a	n/a	GoodResponse	0	n/a	n/a	6	38	Blank	AvoidedLoss	True
369.123	1.45	Lose2	0.6667000000000001	n/a	Yes	2.825	n/a	5.0	GoodResponse	0	0.021	368.144	6	38	Feedback	AvoidedLoss	True
370.573	2.825	Lose2	0.6667000000000001	n/a	Yes	2.825	n/a	n/a	GoodResponse	0	0.0	n/a	6	38	ISIslide	AvoidedLoss	True
373.422	0.25	Win2	0.675	0.0	Yes	2.978	0.022	n/a	GoodResponse	1	n/a	n/a	7	39	Cue	Win	True
373.672	4.1	Win2	0.675	0.0	Yes	2.978	0.0	n/a	GoodResponse	1	n/a	n/a	7	39	Fixation	Win	True
377.77	0.28	Win2	0.675	0.002	Yes	2.978	-0.002	4.0	GoodResponse	1	0.269	377.039	7	39	Target	Win	True
378.039	0.3	Win2	0.675	0.002	Yes	2.978	-0.002	4.0	GoodResponse	1	0.269	n/a	7	39	ButtonPress	Win	True
378.053	0.42	Win2	0.675	n/a	Yes	2.978	n/a	n/a	GoodResponse	1	n/a	n/a	7	39	Blank	Win	True
378.47	1.45	Win2	0.675	n/a	Yes	2.978	n/a	5.0	GoodResponse	1	0.04	377.51	7	39	Feedback	Win	True
379.919	2.978	Win2	0.675	n/a	Yes	2.978	n/a	n/a	GoodResponse	1	0.0	n/a	7	39	ISIslide	Win	True
382.918	0.25	Win2	0.6829000000000001	0.0	Yes	2.732	0.018	n/a	GoodResponse	1	n/a	n/a	8	40	Cue	Win	True
383.168	3.95	Win2	0.6829000000000001	0.0	Yes	2.732	0.0	n/a	GoodResponse	1	n/a	n/a	8	40	Fixation	Win	True
387.117	0.27	Win2	0.6829000000000001	0.001	Yes	2.732	-0.001	4.0	GoodResponse	1	0.208	386.325	8	40	Target	Win	True
387.325	0.3	Win2	0.6829000000000001	0.001	Yes	2.732	-0.001	4.0	GoodResponse	1	0.208	n/a	8	40	ButtonPress	Win	True
387.383	0.43	Win2	0.6829000000000001	n/a	Yes	2.732	n/a	n/a	GoodResponse	1	n/a	n/a	8	40	Blank	Win	True
387.817	1.45	Win2	0.6829000000000001	n/a	Yes	2.732	n/a	5.0	GoodResponse	1	0.01	386.827	8	40	Feedback	Win	True
389.266	2.732	Win2	0.6829000000000001	n/a	Yes	2.732	n/a	n/a	GoodResponse	1	0.0	n/a	8	40	ISIslide	Win	True
392.015	0.25	Win2	0.6905	0.0	Yes	2.785	0.015	n/a	GoodResponse	1	n/a	n/a	9	41	Cue	Win	True
392.265	3.9	Win2	0.6905	0.0	Yes	2.785	0.0	n/a	GoodResponse	1	n/a	n/a	9	41	Fixation	Win	True
396.164	0.26	Win2	0.6905	0.001	Yes	2.785	-0.001	4.0	GoodResponse	1	0.203	395.367	9	41	Target	Win	True
396.367	0.3	Win2	0.6905	0.001	Yes	2.785	-0.001	4.0	GoodResponse	1	0.203	n/a	9	41	ButtonPress	Win	True
396.43	0.44	Win2	0.6905	n/a	Yes	2.785	n/a	n/a	GoodResponse	1	n/a	n/a	9	41	Blank	Win	True
396.863	1.45	Win2	0.6905	n/a	Yes	2.785	n/a	5.0	GoodResponse	1	0.037	395.9	9	41	Feedback	Win	True
398.313	2.785	Win2	0.6905	n/a	Yes	2.785	n/a	n/a	GoodResponse	1	0.0	n/a	9	41	ISIslide	Win	True
401.129	0.25	Control	0.6977	0.0	Yes	2.921	0.029	n/a	GoodResponse	0	n/a	n/a	9	42	Cue	Neutral	True
401.379	3.85	Control	0.6977	0.0	Yes	2.921	0.0	n/a	GoodResponse	0	n/a	n/a	9	42	Fixation	Neutral	True
405.227	0.25	Control	0.6977	0.002	Yes	2.921	-0.002	4.0	GoodResponse	0	0.221	404.448	9	42	Target	Neutral	True
405.448	0.3	Control	0.6977	0.002	Yes	2.921	-0.002	4.0	GoodResponse	0	0.221	n/a	9	42	ButtonPress	Neutral	True
405.477	0.45	Control	0.6977	n/a	Yes	2.921	n/a	n/a	GoodResponse	0	n/a	n/a	9	42	Blank	Neutral	True
405.927	1.45	Control	0.6977	n/a	Yes	2.921	n/a	5.0	GoodResponse	0	0.046	404.973	9	42	Feedback	Neutral	True
407.376	2.921	Control	0.6977	n/a	Yes	2.921	n/a	n/a	GoodResponse	0	0.0	n/a	9	42	ISIslide	Neutral	True
410.325	0.25	Win2	0.7045	0.0	Yes	3.175	0.025	n/a	GoodResponse	1	n/a	n/a	10	43	Cue	Win	True
410.575	4.0	Win2	0.7045	0.0	Yes	3.175	0.0	n/a	GoodResponse	1	n/a	n/a	10	43	Fixation	Win	True
414.574	0.24	Win2	0.7045	0.001	Yes	3.175	-0.001	4.0	GoodResponse	1	0.216	413.79	10	43	Target	Win	True
414.79	0.3	Win2	0.7045	0.001	Yes	3.175	-0.001	4.0	GoodResponse	1	0.216	n/a	10	43	ButtonPress	Win	True
414.824	0.46	Win2	0.7045	n/a	Yes	3.175	n/a	n/a	GoodResponse	1	n/a	n/a	10	43	Blank	Win	True
415.274	1.45	Win2	0.7045	n/a	Yes	3.175	n/a	5.0	GoodResponse	1	0.016	414.29	10	43	Feedback	Win	True
416.723	3.175	Win2	0.7045	n/a	Yes	3.175	n/a	n/a	GoodResponse	1	0.0	n/a	10	43	ISIslide	Win	True
419.922	0.25	Win2	0.7111	0.0	Yes	2.978	0.022	n/a	GoodResponse	1	n/a	n/a	11	44	Cue	Win	True
420.172	4.0	Win2	0.7111	0.0	Yes	2.978	0.0	n/a	GoodResponse	1	n/a	n/a	11	44	Fixation	Win	True
424.171	0.23	Win2	0.7111	0.001	Yes	2.978	-0.001	4.0	GoodResponse	1	0.197	423.368	11	44	Target	Win	True
424.368	0.3	Win2	0.7111	0.001	Yes	2.978	-0.001	4.0	GoodResponse	1	0.197	n/a	11	44	ButtonPress	Win	True
424.404	0.47	Win2	0.7111	n/a	Yes	2.978	n/a	n/a	GoodResponse	1	n/a	n/a	11	44	Blank	Win	True
424.87	1.45	Win2	0.7111	n/a	Yes	2.978	n/a	5.0	GoodResponse	1	0.03	423.9	11	44	Feedback	Win	True
426.32	2.978	Win2	0.7111	n/a	Yes	2.978	n/a	n/a	GoodResponse	1	0.0	n/a	11	44	ISIslide	Win	True
429.319	0.25	Control	0.7173999999999999	0.0	Yes	2.881	0.019	n/a	GoodResponse	0	n/a	n/a	11	45	Cue	Neutral	True
429.569	4.1	Control	0.7173999999999999	0.0	Yes	2.881	0.0	n/a	GoodResponse	0	n/a	n/a	11	45	Fixation	Neutral	True
433.667	0.22	Control	0.7173999999999999	0.002	Yes	2.881	-0.002	4.0	GoodResponse	0	0.192	432.859	11	45	Target	Neutral	True
433.859	0.3	Control	0.7173999999999999	0.002	Yes	2.881	-0.002	4.0	GoodResponse	0	0.192	n/a	11	45	ButtonPress	Neutral	True
433.9	0.48	Control	0.7173999999999999	n/a	Yes	2.881	n/a	n/a	GoodResponse	0	n/a	n/a	11	45	Blank	Neutral	True
434.367	1.45	Control	0.7173999999999999	n/a	Yes	2.881	n/a	5.0	GoodResponse	0	0.045	433.412	11	45	Feedback	Neutral	True
435.816	2.881	Control	0.7173999999999999	n/a	Yes	2.881	n/a	n/a	GoodResponse	0	0.0	n/a	11	45	ISIslide	Neutral	True
438.715	0.25	Lose2	0.7234	0.001	Yes	3.385	0.015	n/a	GoodResponse	0	n/a	n/a	11	46	Cue	AvoidedLoss	True
438.965	4.0	Lose2	0.7234	0.0	Yes	3.385	0.0	n/a	GoodResponse	0	n/a	n/a	11	46	Fixation	AvoidedLoss	True
442.964	0.21	Lose2	0.7234	0.001	Yes	3.385	-0.001	4.0	GoodResponse	0	0.197	442.161	11	46	Target	AvoidedLoss	True
443.161	0.3	Lose2	0.7234	0.001	Yes	3.385	-0.001	4.0	GoodResponse	0	0.197	n/a	11	46	ButtonPress	AvoidedLoss	True
443.18	0.49	Lose2	0.7234	n/a	Yes	3.385	n/a	n/a	GoodResponse	0	n/a	n/a	11	46	Blank	AvoidedLoss	True
443.664	1.45	Lose2	0.7234	n/a	Yes	3.385	n/a	5.0	GoodResponse	0	0.016	442.68	11	46	Feedback	AvoidedLoss	True
445.113	3.385	Lose2	0.7234	n/a	Yes	3.385	n/a	n/a	GoodResponse	0	0.0	n/a	11	46	ISIslide	AvoidedLoss	True
448.529	0.25	Lose2	0.7292000000000001	0.0	Yes	2.671	0.029	n/a	GoodResponse	0	n/a	n/a	11	47	Cue	AvoidedLoss	True
448.778	4.0	Lose2	0.7292000000000001	0.001	Yes	2.671	-0.001	n/a	GoodResponse	0	n/a	n/a	11	47	Fixation	AvoidedLoss	True
452.777	0.2	Lose2	0.7292000000000001	0.002	Yes	2.671	-0.002	4.0	GoodResponse	0	0.199	451.976	11	47	Target	AvoidedLoss	True
452.976	0.3	Lose2	0.7292000000000001	0.002	Yes	2.671	-0.002	4.0	GoodResponse	0	0.199	n/a	11	47	ButtonPress	AvoidedLoss	True
452.977	0.5	Lose2	0.7292000000000001	n/a	Yes	2.671	n/a	n/a	GoodResponse	0	n/a	n/a	11	47	Blank	AvoidedLoss	True
453.477	1.45	Lose2	0.7292000000000001	n/a	Yes	2.671	n/a	5.0	GoodResponse	0	0.008	452.485	11	47	Feedback	AvoidedLoss	True
454.926	2.671	Lose2	0.7292000000000001	n/a	Yes	2.671	n/a	n/a	GoodResponse	0	0.0	n/a	11	47	ISIslide	AvoidedLoss	True
457.625	0.25	Lose2	0.7143	0.0	No	3.025	0.025	n/a	NoResponse	-1	n/a	n/a	10	48	Cue	Loss	True
457.875	3.95	Lose2	0.7143	0.0	No	3.025	0.0	n/a	NoResponse	-1	n/a	n/a	10	48	Fixation	Loss	True
461.824	0.19	Lose2	0.7143	0.001	No	3.025	-0.001	4.0	NoResponse	-1	0.22	461.044	10	48	Target	Loss	True
462.024	0.51	Lose2	0.7143	n/a	No	3.025	n/a	n/a	NoResponse	-1	n/a	n/a	10	48	Blank	Loss	True
462.044	0.3	Lose2	0.7143	0.001	No	3.025	-0.001	4.0	NoResponse	-1	0.22	n/a	10	48	ButtonPress	Loss	True
462.524	1.45	Lose2	0.7143	n/a	No	3.025	n/a	5.0	NoResponse	-1	0.034	461.558	10	48	Feedback	Loss	True
463.973	3.025	Lose2	0.7143	n/a	No	3.025	n/a	n/a	NoResponse	-1	0.0	n/a	10	48	ISIslide	Loss	True
467.022	0.25	Control	0.7	0.0	No	2.878	0.022	n/a	NoResponse	0	n/a	n/a	10	49	Cue	Neutral	True
467.272	4.0	Control	0.7	0.0	No	2.878	0.0	n/a	NoResponse	0	n/a	n/a	10	49	Fixation	Neutral	True
471.271	0.18	Control	0.7	0.001	No	2.878	-0.001	4.0	NoResponse	0	0.209	470.48	10	49	Target	Neutral	True
471.454	0.52	Control	0.7	n/a	No	2.878	n/a	n/a	NoResponse	0	n/a	n/a	10	49	Blank	Neutral	True
471.48	0.3	Control	0.7	0.001	No	2.878	-0.001	4.0	NoResponse	0	0.209	n/a	10	49	ButtonPress	Neutral	True
471.97	1.45	Control	0.7	n/a	No	2.878	n/a	5.0	NoResponse	0	0.007	470.977	10	49	Feedback	Neutral	True
473.42	2.878	Control	0.7	n/a	No	2.878	n/a	n/a	NoResponse	0	0.0	n/a	10	49	ISIslide	Neutral	True
476.319	0.25	Control	0.6862999999999999	0.0	No	2.781	0.019	n/a	NoResponse	0	n/a	n/a	10	50	Cue	Neutral	True
476.569	4.0	Control	0.6862999999999999	0.0	No	2.781	0.0	n/a	NoResponse	0	n/a	n/a	10	50	Fixation	Neutral	True
480.567	0.17	Control	0.6862999999999999	0.002	No	2.781	-0.002	4.0	NoResponse	0	0.212	479.779	10	50	Target	Neutral	True
480.751	0.53	Control	0.6862999999999999	n/a	No	2.781	n/a	n/a	NoResponse	0	n/a	n/a	10	50	Blank	Neutral	True
480.779	0.3	Control	0.6862999999999999	0.002	No	2.781	-0.002	4.0	NoResponse	0	0.212	n/a	10	50	ButtonPress	Neutral	True
481.267	1.45	Control	0.6862999999999999	n/a	No	2.781	n/a	5.0	NoResponse	0	0.022	480.289	10	50	Feedback	Neutral	True
482.717	2.781	Control	0.6862999999999999	n/a	No	2.781	n/a	n/a	NoResponse	0	0.0	n/a	10	50	ISIslide	Neutral	True
485.516	0.25	Control	0.6731	0.0	No	2.734	0.016	n/a	NoResponse	0	n/a	n/a	10	51	Cue	Neutral	True
485.765	3.95	Control	0.6731	0.001	No	2.734	-0.001	n/a	NoResponse	0	n/a	n/a	10	51	Fixation	Neutral	True
489.714	0.16	Control	0.6731	0.002	No	2.734	-0.002	4.0	NoResponse	0	0.302	489.016	10	51	Target	Neutral	True
489.881	0.54	Control	0.6731	n/a	No	2.734	n/a	n/a	NoResponse	0	n/a	n/a	10	51	Blank	Neutral	True
490.016	0.3	Control	0.6731	0.002	No	2.734	-0.002	4.0	NoResponse	0	0.302	n/a	10	51	ButtonPress	Neutral	True
490.414	1.45	Control	0.6731	n/a	No	2.734	n/a	5.0	NoResponse	0	0.046	489.46	10	51	Feedback	Neutral	True
491.863	2.734	Control	0.6731	n/a	No	2.734	n/a	n/a	NoResponse	0	0.0	n/a	10	51	ISIslide	Neutral	True
494.629	0.25	Control	0.6604000000000001	0.0	No	2.621	0.029	n/a	NoResponse	0	n/a	n/a	10	52	Cue	Neutral	True
494.879	4.05	Control	0.6604000000000001	0.0	No	2.621	0.0	n/a	NoResponse	0	n/a	n/a	10	52	Fixation	Neutral	True
498.928	0.15	Control	0.6604000000000001	0.001	No	2.621	-0.001	4.0	NoResponse	0	0.261	498.189	10	52	Target	Neutral	True
499.077	0.55	Control	0.6604000000000001	n/a	No	2.621	n/a	n/a	NoResponse	0	n/a	n/a	10	52	Blank	Neutral	True
499.189	0.3	Control	0.6604000000000001	0.001	No	2.621	-0.001	4.0	NoResponse	0	0.261	n/a	10	52	ButtonPress	Neutral	True
499.627	1.45	Control	0.6604000000000001	n/a	No	2.621	n/a	5.0	NoResponse	0	0.008	498.635	10	52	Feedback	Neutral	True
501.077	2.621	Control	0.6604000000000001	n/a	No	2.621	n/a	n/a	NoResponse	0	0.0	n/a	10	52	ISIslide	Neutral	True
503.726	0.25	Win2	0.6481	0.0	No	2.924	0.026	n/a	NoResponse	0	n/a	n/a	10	53	Cue	MissedWin	True
503.976	4.05	Win2	0.6481	0.0	No	2.924	0.0	n/a	NoResponse	0	n/a	n/a	10	53	Fixation	MissedWin	True
508.024	0.15	Win2	0.6481	0.002	No	2.924	-0.002	4.0	NoResponse	0	0.198	507.222	10	53	Target	MissedWin	True
508.174	0.55	Win2	0.6481	n/a	No	2.924	n/a	n/a	NoResponse	0	n/a	n/a	10	53	Blank	MissedWin	True
508.222	0.3	Win2	0.6481	0.002	No	2.924	-0.002	4.0	NoResponse	0	0.198	n/a	10	53	ButtonPress	MissedWin	True
508.724	1.45	Win2	0.6481	n/a	No	2.924	n/a	5.0	NoResponse	0	0.029	507.753	10	53	Feedback	MissedWin	True
510.174	2.924	Win2	0.6481	n/a	No	2.924	n/a	n/a	NoResponse	0	0.0	n/a	10	53	ISIslide	MissedWin	True
513.122	0.25	Win2	0.6364	0.001	No	2.728	0.022	n/a	NoResponse	0	n/a	n/a	10	54	Cue	MissedWin	True
513.372	3.95	Win2	0.6364	0.0	No	2.728	0.0	n/a	NoResponse	0	n/a	n/a	10	54	Fixation	MissedWin	True
517.321	0.16	Win2	0.6364	0.001	No	2.728	-0.001	4.0	NoResponse	0	0.212	516.533	10	54	Target	MissedWin	True
517.488	0.54	Win2	0.6364	n/a	No	2.728	n/a	n/a	NoResponse	0	n/a	n/a	10	54	Blank	MissedWin	True
517.533	0.3	Win2	0.6364	0.001	No	2.728	-0.001	4.0	NoResponse	0	0.212	n/a	10	54	ButtonPress	MissedWin	True
518.021	1.45	Win2	0.6364	n/a	No	2.728	n/a	5.0	NoResponse	0	0.049	517.07	10	54	Feedback	MissedWin	True
519.47	2.728	Win2	0.6364	n/a	No	2.728	n/a	n/a	NoResponse	0	0.0	n/a	10	54	ISIslide	MissedWin	True
522.219	0.25	Control	0.625	0.0	No	3.031	0.019	n/a	NoResponse	0	n/a	n/a	10	55	Cue	Neutral	True
522.469	3.95	Control	0.625	0.0	No	3.031	0.0	n/a	NoResponse	0	n/a	n/a	10	55	Fixation	Neutral	True
526.418	0.17	Control	0.625	0.001	No	3.031	-0.001	4.0	NoResponse	0	0.213	525.631	10	55	Target	Neutral	True
526.584	0.53	Control	0.625	n/a	No	3.031	n/a	n/a	NoResponse	0	n/a	n/a	10	55	Blank	Neutral	True
526.631	0.3	Control	0.625	0.001	No	3.031	-0.001	4.0	NoResponse	0	0.213	n/a	10	55	ButtonPress	Neutral	True
527.118	1.45	Control	0.625	n/a	No	3.031	n/a	5.0	NoResponse	0	0.024	526.142	10	55	Feedback	Neutral	True
528.567	3.031	Control	0.625	n/a	No	3.031	n/a	n/a	NoResponse	0	0.0	n/a	10	55	ISIslide	Neutral	True
531.616	0.25	Control	0.614	0.0	No	2.834	0.016	n/a	NoResponse	0	n/a	n/a	10	56	Cue	Neutral	True
531.866	3.95	Control	0.614	0.0	No	2.834	0.0	n/a	NoResponse	0	n/a	n/a	10	56	Fixation	Neutral	True
535.814	0.18	Control	0.614	0.002	No	2.834	-0.002	4.0	NoResponse	0	0.239	535.053	10	56	Target	Neutral	True
535.998	0.52	Control	0.614	n/a	No	2.834	n/a	n/a	NoResponse	0	n/a	n/a	10	56	Blank	Neutral	True
536.053	0.3	Control	0.614	0.002	No	2.834	-0.002	4.0	NoResponse	0	0.239	n/a	10	56	ButtonPress	Neutral	True
536.514	1.45	Control	0.614	n/a	No	2.834	n/a	5.0	NoResponse	0	0.043	535.557	10	56	Feedback	Neutral	True
537.964	2.834	Control	0.614	n/a	No	2.834	n/a	n/a	NoResponse	0	0.0	n/a	10	56	ISIslide	Neutral	True
540.813	0.25	Control	0.6034	0.0	No	3.487	0.013	n/a	NoResponse	0	n/a	n/a	10	57	Cue	Neutral	True
541.063	4.0	Control	0.6034	0.0	No	3.487	0.0	n/a	NoResponse	0	n/a	n/a	10	57	Fixation	Neutral	True
545.061	0.19	Control	0.6034	0.002	No	3.487	-0.002	4.0	NoResponse	0	0.228	544.289	10	57	Target	Neutral	True
545.261	0.51	Control	0.6034	n/a	No	3.487	n/a	n/a	NoResponse	0	n/a	n/a	10	57	Blank	Neutral	True
545.289	0.3	Control	0.6034	0.002	No	3.487	-0.002	4.0	NoResponse	0	0.228	n/a	10	57	ButtonPress	Neutral	True
545.761	1.45	Control	0.6034	n/a	No	3.487	n/a	5.0	NoResponse	0	0.016	544.777	10	57	Feedback	Neutral	True
547.21	3.487	Control	0.6034	n/a	No	3.487	n/a	n/a	NoResponse	0	0.0	n/a	10	57	ISIslide	Neutral	True
550.726	0.25	Win2	0.6102000000000001	0.0	Yes	2.724	0.026	n/a	GoodResponse	1	n/a	n/a	11	58	Cue	Win	True
550.976	4.05	Win2	0.6102000000000001	0.0	Yes	2.724	0.0	n/a	GoodResponse	1	n/a	n/a	11	58	Fixation	Win	True
555.024	0.2	Win2	0.6102000000000001	0.002	Yes	2.724	-0.002	4.0	GoodResponse	1	0.188	554.212	11	58	Target	Win	True
555.212	0.3	Win2	0.6102000000000001	0.002	Yes	2.724	-0.002	4.0	GoodResponse	1	0.188	n/a	11	58	ButtonPress	Win	True
555.224	0.5	Win2	0.6102000000000001	n/a	Yes	2.724	n/a	n/a	GoodResponse	1	n/a	n/a	11	58	Blank	Win	True
555.724	1.45	Win2	0.6102000000000001	n/a	Yes	2.724	n/a	5.0	GoodResponse	1	0.008	554.732	11	58	Feedback	Win	True
557.174	2.724	Win2	0.6102000000000001	n/a	Yes	2.724	n/a	n/a	GoodResponse	1	0.0	n/a	11	58	ISIslide	Win	True
559.923	0.25	Lose2	0.6167	0.0	Yes	2.677	0.023	n/a	GoodResponse	0	n/a	n/a	11	59	Cue	AvoidedLoss	True
560.173	4.0	Lose2	0.6167	0.0	Yes	2.677	0.0	n/a	GoodResponse	0	n/a	n/a	11	59	Fixation	AvoidedLoss	True
564.171	0.21	Lose2	0.6167	0.002	Yes	2.677	-0.002	4.0	GoodResponse	0	0.187	563.358	11	59	Target	AvoidedLoss	True
564.358	0.3	Lose2	0.6167	0.002	Yes	2.677	-0.002	4.0	GoodResponse	0	0.187	n/a	11	59	ButtonPress	AvoidedLoss	True
564.388	0.49	Lose2	0.6167	n/a	Yes	2.677	n/a	n/a	GoodResponse	0	n/a	n/a	11	59	Blank	AvoidedLoss	True
564.871	1.45	Lose2	0.6167	n/a	Yes	2.677	n/a	5.0	GoodResponse	0	0.028	563.899	11	59	Feedback	AvoidedLoss	True
566.32	2.677	Lose2	0.6167	n/a	Yes	2.677	n/a	n/a	GoodResponse	0	0.0	n/a	11	59	ISIslide	AvoidedLoss	True
569.019	0.25	Control	0.6065999999999999	0.001	No	2.681	0.019	n/a	NoResponse	0	n/a	n/a	11	60	Cue	Neutral	True
569.269	4.0	Control	0.6065999999999999	0.0	No	2.681	0.0	n/a	NoResponse	0	n/a	n/a	11	60	Fixation	Neutral	True
573.268	0.22	Control	0.6065999999999999	0.001	No	2.681	-0.001	4.0	NoResponse	0	0.29	572.558	11	60	Target	Neutral	True
573.485	0.48	Control	0.6065999999999999	n/a	No	2.681	n/a	n/a	NoResponse	0	n/a	n/a	11	60	Blank	Neutral	True
573.558	0.3	Control	0.6065999999999999	0.001	No	2.681	-0.001	4.0	NoResponse	0	0.29	n/a	11	60	ButtonPress	Neutral	True
573.968	1.45	Control	0.6065999999999999	n/a	No	2.681	n/a	5.0	NoResponse	0	0.007	572.975	11	60	Feedback	Neutral	True
575.417	2.681	Control	0.6065999999999999	n/a	No	2.681	n/a	n/a	NoResponse	0	0.0	n/a	11	60	ISIslide	Neutral	True
578.116	0.25	Lose2	0.6129	0.0	Yes	2.984	0.016	n/a	GoodResponse	0	n/a	n/a	11	61	Cue	AvoidedLoss	True
578.366	4.0	Lose2	0.6129	0.0	Yes	2.984	0.0	n/a	GoodResponse	0	n/a	n/a	11	61	Fixation	AvoidedLoss	True
582.365	0.23	Lose2	0.6129	0.001	Yes	2.984	-0.001	4.0	GoodResponse	0	0.201	581.566	11	61	Target	AvoidedLoss	True
582.566	0.3	Lose2	0.6129	0.001	Yes	2.984	-0.001	4.0	GoodResponse	0	0.201	n/a	11	61	ButtonPress	AvoidedLoss	True
582.598	0.47	Lose2	0.6129	n/a	Yes	2.984	n/a	n/a	GoodResponse	0	n/a	n/a	11	61	Blank	AvoidedLoss	True
583.065	1.45	Lose2	0.6129	n/a	Yes	2.984	n/a	5.0	GoodResponse	0	0.028	582.093	11	61	Feedback	AvoidedLoss	True
584.514	2.984	Lose2	0.6129	n/a	Yes	2.984	n/a	n/a	GoodResponse	0	0.0	n/a	11	61	ISIslide	AvoidedLoss	True
587.513	0.25	Lose2	0.619	0.0	Yes	2.887	0.013	n/a	GoodResponse	0	n/a	n/a	11	62	Cue	AvoidedLoss	True
587.763	3.9	Lose2	0.619	0.0	Yes	2.887	0.0	n/a	GoodResponse	0	n/a	n/a	11	62	Fixation	AvoidedLoss	True
591.661	0.24	Lose2	0.619	0.002	Yes	2.887	-0.002	4.0	GoodResponse	0	0.224	590.885	11	62	Target	AvoidedLoss	True
591.885	0.3	Lose2	0.619	0.002	Yes	2.887	-0.002	4.0	GoodResponse	0	0.224	n/a	11	62	ButtonPress	AvoidedLoss	True
591.911	0.46	Lose2	0.619	n/a	Yes	2.887	n/a	n/a	GoodResponse	0	n/a	n/a	11	62	Blank	AvoidedLoss	True
592.361	1.45	Lose2	0.619	n/a	Yes	2.887	n/a	5.0	GoodResponse	0	0.001	591.362	11	62	Feedback	AvoidedLoss	True
593.811	2.887	Lose2	0.619	n/a	Yes	2.887	n/a	n/a	GoodResponse	0	0.0	n/a	11	62	ISIslide	AvoidedLoss	True
596.726	0.25	Lose2	0.625	0.0	Yes	2.624	0.026	n/a	GoodResponse	0	n/a	n/a	11	63	Cue	AvoidedLoss	True
596.976	4.05	Lose2	0.625	0.0	Yes	2.624	0.0	n/a	GoodResponse	0	n/a	n/a	11	63	Fixation	AvoidedLoss	True
601.025	0.25	Lose2	0.625	0.001	Yes	2.624	-0.001	4.0	GoodResponse	0	0.188	600.213	11	63	Target	AvoidedLoss	True
601.213	0.3	Lose2	0.625	0.001	Yes	2.624	-0.001	4.0	GoodResponse	0	0.188	n/a	11	63	ButtonPress	AvoidedLoss	True
601.275	0.45	Lose2	0.625	n/a	Yes	2.624	n/a	n/a	GoodResponse	0	n/a	n/a	11	63	Blank	AvoidedLoss	True
601.725	1.45	Lose2	0.625	n/a	Yes	2.624	n/a	5.0	GoodResponse	0	0.006	600.731	11	63	Feedback	AvoidedLoss	True
603.174	2.624	Lose2	0.625	n/a	Yes	2.624	n/a	n/a	GoodResponse	0	0.0	n/a	11	63	ISIslide	AvoidedLoss	True
605.823	0.25	Win2	0.6308	0.0	Yes	3.127	0.023	n/a	GoodResponse	1	n/a	n/a	12	64	Cue	Win	True
606.073	4.15	Win2	0.6308	0.0	Yes	3.127	0.0	n/a	GoodResponse	1	n/a	n/a	12	64	Fixation	Win	True
610.222	0.26	Win2	0.6308	0.001	Yes	3.127	-0.001	4.0	GoodResponse	1	0.219	609.441	12	64	Target	Win	True
610.441	0.3	Win2	0.6308	0.001	Yes	3.127	-0.001	4.0	GoodResponse	1	0.219	n/a	12	64	ButtonPress	Win	True
610.488	0.44	Win2	0.6308	n/a	Yes	3.127	n/a	n/a	GoodResponse	1	n/a	n/a	12	64	Blank	Win	True
610.921	1.45	Win2	0.6308	n/a	Yes	3.127	n/a	5.0	GoodResponse	1	0.025	609.946	12	64	Feedback	Win	True
612.371	3.127	Win2	0.6308	n/a	Yes	3.127	n/a	n/a	GoodResponse	1	0.0	n/a	12	64	ISIslide	Win	True
615.52	0.25	Control	0.6364	0.0	Yes	2.78	0.02	n/a	GoodResponse	0	n/a	n/a	12	65	Cue	Neutral	True
615.77	4.0	Control	0.6364	0.0	Yes	2.78	0.0	n/a	GoodResponse	0	n/a	n/a	12	65	Fixation	Neutral	True
619.768	0.27	Control	0.6364	0.002	Yes	2.78	-0.002	4.0	GoodResponse	0	0.24	619.008	12	65	Target	Neutral	True
620.008	0.3	Control	0.6364	0.002	Yes	2.78	-0.002	4.0	GoodResponse	0	0.24	n/a	12	65	ButtonPress	Neutral	True
620.051	0.43	Control	0.6364	n/a	Yes	2.78	n/a	n/a	GoodResponse	0	n/a	n/a	12	65	Blank	Neutral	True
620.468	1.45	Control	0.6364	n/a	Yes	2.78	n/a	5.0	GoodResponse	0	0.039	619.507	12	65	Feedback	Neutral	True
621.918	2.78	Control	0.6364	n/a	Yes	2.78	n/a	n/a	GoodResponse	0	0.0	n/a	12	65	ISIslide	Neutral	True
624.717	0.25	Win2	0.6418	0.0	Yes	2.783	0.017	n/a	GoodResponse	1	n/a	n/a	13	66	Cue	Win	True
624.966	3.9	Win2	0.6418	0.001	Yes	2.783	-0.001	n/a	GoodResponse	1	n/a	n/a	13	66	Fixation	Win	True
628.865	0.28	Win2	0.6418	0.002	Yes	2.783	-0.002	4.0	GoodResponse	1	0.205	628.07	13	66	Target	Win	True
629.07	0.3	Win2	0.6418	0.002	Yes	2.783	-0.002	4.0	GoodResponse	1	0.205	n/a	13	66	ButtonPress	Win	True
629.148	0.42	Win2	0.6418	n/a	Yes	2.783	n/a	n/a	GoodResponse	1	n/a	n/a	13	66	Blank	Win	True
629.565	1.45	Win2	0.6418	n/a	Yes	2.783	n/a	5.0	GoodResponse	1	0.016	628.581	13	66	Feedback	Win	True
631.014	2.783	Win2	0.6418	n/a	Yes	2.783	n/a	n/a	GoodResponse	1	0.0	n/a	13	66	ISIslide	Win	True
633.813	0.25	Control	0.6470999999999999	0.0	Yes	2.737	0.013	n/a	GoodResponse	0	n/a	n/a	13	67	Cue	Neutral	True
634.063	3.95	Control	0.6470999999999999	0.0	Yes	2.737	0.0	n/a	GoodResponse	0	n/a	n/a	13	67	Fixation	Neutral	True
638.012	0.29	Control	0.6470999999999999	0.001	Yes	2.737	-0.001	4.0	GoodResponse	0	0.274	637.286	13	67	Target	Neutral	True
638.286	0.3	Control	0.6470999999999999	0.001	Yes	2.737	-0.001	4.0	GoodResponse	0	0.274	n/a	13	67	ButtonPress	Neutral	True
638.312	0.41	Control	0.6470999999999999	n/a	Yes	2.737	n/a	n/a	GoodResponse	0	n/a	n/a	13	67	Blank	Neutral	True
638.712	1.45	Control	0.6470999999999999	n/a	Yes	2.737	n/a	5.0	GoodResponse	0	0.039	637.751	13	67	Feedback	Neutral	True
640.161	2.737	Control	0.6470999999999999	n/a	Yes	2.737	n/a	n/a	GoodResponse	0	0.0	n/a	13	67	ISIslide	Neutral	True
642.927	0.25	Win2	0.6522	0.0	Yes	3.073	0.027	n/a	GoodResponse	1	n/a	n/a	14	68	Cue	Win	True
643.177	4.0	Win2	0.6522	0.0	Yes	3.073	0.0	n/a	GoodResponse	1	n/a	n/a	14	68	Fixation	Win	True
647.175	0.3	Win2	0.6522	0.002	Yes	3.073	-0.002	4.0	GoodResponse	1	0.198	646.373	14	68	Target	Win	True
647.373	0.3	Win2	0.6522	0.002	Yes	3.073	-0.002	4.0	GoodResponse	1	0.198	n/a	14	68	ButtonPress	Win	True
647.475	0.4	Win2	0.6522	n/a	Yes	3.073	n/a	n/a	GoodResponse	1	n/a	n/a	14	68	Blank	Win	True
647.875	1.45	Win2	0.6522	n/a	Yes	3.073	n/a	5.0	GoodResponse	1	0.047	646.922	14	68	Feedback	Win	True
649.325	3.073	Win2	0.6522	n/a	Yes	3.073	n/a	n/a	GoodResponse	1	0.0	n/a	14	68	ISIslide	Win	True
652.423	0.25	Win2	0.6570999999999999	0.0	Yes	3.227	0.023	n/a	GoodResponse	1	n/a	n/a	15	69	Cue	Win	True
652.673	3.95	Win2	0.6570999999999999	0.0	Yes	3.227	0.0	n/a	GoodResponse	1	n/a	n/a	15	69	Fixation	Win	True
656.622	0.31	Win2	0.6570999999999999	0.001	Yes	3.227	-0.001	4.0	GoodResponse	1	0.207	655.829	15	69	Target	Win	True
656.829	0.3	Win2	0.6570999999999999	0.001	Yes	3.227	-0.001	4.0	GoodResponse	1	0.207	n/a	15	69	ButtonPress	Win	True
656.938	0.39	Win2	0.6570999999999999	n/a	Yes	3.227	n/a	n/a	GoodResponse	1	n/a	n/a	15	69	Blank	Win	True
657.322	1.45	Win2	0.6570999999999999	n/a	Yes	3.227	n/a	5.0	GoodResponse	1	0.014	656.336	15	69	Feedback	Win	True
658.771	3.227	Win2	0.6570999999999999	n/a	Yes	3.227	n/a	n/a	GoodResponse	1	0.0	n/a	15	69	ISIslide	Win	True
662.02	0.25	Lose2	0.662	0.0	Yes	3.03	0.02	n/a	GoodResponse	0	n/a	n/a	15	70	Cue	AvoidedLoss	True
662.27	4.05	Lose2	0.662	0.0	Yes	3.03	0.0	n/a	GoodResponse	0	n/a	n/a	15	70	Fixation	AvoidedLoss	True
666.319	0.31	Lose2	0.662	0.001	Yes	3.03	-0.001	4.0	GoodResponse	0	0.209	665.528	15	70	Target	AvoidedLoss	True
666.528	0.3	Lose2	0.662	0.001	Yes	3.03	-0.001	4.0	GoodResponse	0	0.209	n/a	15	70	ButtonPress	AvoidedLoss	True
666.635	0.39	Lose2	0.662	n/a	Yes	3.03	n/a	n/a	GoodResponse	0	n/a	n/a	15	70	Blank	AvoidedLoss	True
667.018	1.45	Lose2	0.662	n/a	Yes	3.03	n/a	5.0	GoodResponse	0	0.025	666.043	15	70	Feedback	AvoidedLoss	True
668.468	3.03	Lose2	0.662	n/a	Yes	3.03	n/a	n/a	GoodResponse	0	0.0	n/a	15	70	ISIslide	AvoidedLoss	True
671.517	0.25	Win2	0.6667000000000001	0.0	Yes	2.733	0.017	n/a	GoodResponse	1	n/a	n/a	16	71	Cue	Win	True
671.767	4.05	Win2	0.6667000000000001	0.0	Yes	2.733	0.0	n/a	GoodResponse	1	n/a	n/a	16	71	Fixation	Win	True
675.815	0.31	Win2	0.6667000000000001	0.002	Yes	2.733	-0.002	4.0	GoodResponse	1	0.251	675.066	16	71	Target	Win	True
676.066	0.3	Win2	0.6667000000000001	0.002	Yes	2.733	-0.002	4.0	GoodResponse	1	0.251	n/a	16	71	ButtonPress	Win	True
676.132	0.39	Win2	0.6667000000000001	n/a	Yes	2.733	n/a	n/a	GoodResponse	1	n/a	n/a	16	71	Blank	Win	True
676.515	1.45	Win2	0.6667000000000001	n/a	Yes	2.733	n/a	5.0	GoodResponse	1	0.041	675.556	16	71	Feedback	Win	True
677.964	2.733	Win2	0.6667000000000001	n/a	Yes	2.733	n/a	n/a	GoodResponse	1	0.0	n/a	16	71	ISIslide	Win	True
680.713	0.25	Win2	0.6575	0.001	No	2.787	0.013	n/a	NoResponse	0	n/a	n/a	16	72	Cue	MissedWin	False
680.963	4.1	Win2	0.6575	0.0	No	2.787	0.0	4.0	NoResponse	0	4.029	683.992	16	72	Fixation	MissedWin	False
684.992	0.3	Win2	0.6575	0.0	No	2.787	0.0	4.0	NoResponse	0	4.029	n/a	16	72	ButtonPress	MissedWin	False
685.062	0.3	Win2	0.6575	0.001	No	2.787	-0.001	4.0	NoResponse	0	0.434	684.496	16	72	Target	MissedWin	False
685.362	0.4	Win2	0.6575	n/a	No	2.787	n/a	n/a	NoResponse	0	n/a	n/a	16	72	Blank	MissedWin	False
685.496	0.3	Win2	0.6575	0.001	No	2.787	-0.001	4.0	NoResponse	0	0.434	n/a	16	72	ButtonPress	MissedWin	False
685.762	1.45	Win2	0.6575	n/a	No	2.787	n/a	5.0	NoResponse	0	0.013	684.775	16	72	Feedback	MissedWin	False
687.211	2.787	Win2	0.6575	n/a	No	2.787	n/a	n/a	NoResponse	0	0.0	n/a	16	72	ISIslide	MissedWin	False
690.027	0.25	Win2	0.6622	0.0	Yes	2.673	0.027	n/a	GoodResponse	1	n/a	n/a	17	73	Cue	Win	True
690.277	4.0	Win2	0.6622	0.0	Yes	2.673	0.0	n/a	GoodResponse	1	n/a	n/a	17	73	Fixation	Win	True
694.275	0.3	Win2	0.6622	0.002	Yes	2.673	-0.002	4.0	GoodResponse	1	0.203	693.478	17	73	Target	Win	True
694.478	0.3	Win2	0.6622	0.002	Yes	2.673	-0.002	4.0	GoodResponse	1	0.203	n/a	17	73	ButtonPress	Win	True
694.575	0.4	Win2	0.6622	n/a	Yes	2.673	n/a	n/a	GoodResponse	1	n/a	n/a	17	73	Blank	Win	True
694.975	1.45	Win2	0.6622	n/a	Yes	2.673	n/a	5.0	GoodResponse	1	0.02	693.995	17	73	Feedback	Win	True
696.425	2.673	Win2	0.6622	n/a	Yes	2.673	n/a	n/a	GoodResponse	1	0.0	n/a	17	73	ISIslide	Win	True
699.124	0.25	Lose2	0.6667000000000001	0.0	Yes	2.626	0.024	n/a	GoodResponse	0	n/a	n/a	17	74	Cue	AvoidedLoss	True
699.374	4.05	Lose2	0.6667000000000001	0.0	Yes	2.626	0.0	n/a	GoodResponse	0	n/a	n/a	17	74	Fixation	AvoidedLoss	True
703.422	0.3	Lose2	0.6667000000000001	0.002	Yes	2.626	-0.002	4.0	GoodResponse	0	0.195	702.617	17	74	Target	AvoidedLoss	True
703.617	0.3	Lose2	0.6667000000000001	0.002	Yes	2.626	-0.002	4.0	GoodResponse	0	0.195	n/a	17	74	ButtonPress	AvoidedLoss	True
703.722	0.4	Lose2	0.6667000000000001	n/a	Yes	2.626	n/a	n/a	GoodResponse	0	n/a	n/a	17	74	Blank	AvoidedLoss	True
704.122	1.45	Lose2	0.6667000000000001	n/a	Yes	2.626	n/a	5.0	GoodResponse	0	0.043	703.165	17	74	Feedback	AvoidedLoss	True
705.571	2.626	Lose2	0.6667000000000001	n/a	Yes	2.626	n/a	n/a	GoodResponse	0	0.0	n/a	17	74	ISIslide	AvoidedLoss	True
708.22	0.25	Lose2	0.6711	0.001	Yes	2.93	0.02	n/a	GoodResponse	0	n/a	n/a	17	75	Cue	AvoidedLoss	True
708.47	3.95	Lose2	0.6711	0.0	Yes	2.93	0.0	n/a	GoodResponse	0	n/a	n/a	17	75	Fixation	AvoidedLoss	True
712.419	0.29	Lose2	0.6711	0.001	Yes	2.93	-0.001	4.0	GoodResponse	0	0.201	711.62	17	75	Target	AvoidedLoss	True
712.62	0.3	Lose2	0.6711	0.001	Yes	2.93	-0.001	4.0	GoodResponse	0	0.201	n/a	17	75	ButtonPress	AvoidedLoss	True
712.719	0.41	Lose2	0.6711	n/a	Yes	2.93	n/a	n/a	GoodResponse	0	n/a	n/a	17	75	Blank	AvoidedLoss	True
713.119	1.45	Lose2	0.6711	n/a	Yes	2.93	n/a	5.0	GoodResponse	0	0.022	712.141	17	75	Feedback	AvoidedLoss	True
714.568	2.93	Lose2	0.6711	n/a	Yes	2.93	n/a	n/a	GoodResponse	0	0.0	n/a	17	75	ISIslide	AvoidedLoss	True
717.517	0.25	Control	0.6753	0.0	Yes	3.233	0.017	n/a	GoodResponse	0	n/a	n/a	17	76	Cue	Neutral	True
717.767	4.05	Control	0.6753	0.0	Yes	3.233	0.0	n/a	GoodResponse	0	n/a	n/a	17	76	Fixation	Neutral	True
721.816	0.28	Control	0.6753	0.001	Yes	3.233	-0.001	4.0	GoodResponse	0	0.173	720.989	17	76	Target	Neutral	True
721.989	0.3	Control	0.6753	0.001	Yes	3.233	-0.001	4.0	GoodResponse	0	0.173	n/a	17	76	ButtonPress	Neutral	True
722.099	0.42	Control	0.6753	n/a	Yes	3.233	n/a	n/a	GoodResponse	0	n/a	n/a	17	76	Blank	Neutral	True
722.515	1.45	Control	0.6753	n/a	Yes	3.233	n/a	5.0	GoodResponse	0	0.04	721.555	17	76	Feedback	Neutral	True
723.965	3.233	Control	0.6753	n/a	Yes	3.233	n/a	n/a	GoodResponse	0	0.0	n/a	17	76	ISIslide	Neutral	True
727.214	0.25	Lose2	0.6795	0.0	Yes	2.586	0.014	n/a	GoodResponse	0	n/a	n/a	17	77	Cue	AvoidedLoss	True
727.464	3.95	Lose2	0.6795	0.0	Yes	2.586	0.0	n/a	GoodResponse	0	n/a	n/a	17	77	Fixation	AvoidedLoss	True
731.412	0.27	Lose2	0.6795	0.002	Yes	2.586	-0.002	4.0	GoodResponse	0	0.199	730.611	17	77	Target	AvoidedLoss	True
731.611	0.3	Lose2	0.6795	0.002	Yes	2.586	-0.002	4.0	GoodResponse	0	0.199	n/a	17	77	ButtonPress	AvoidedLoss	True
731.695	0.43	Lose2	0.6795	n/a	Yes	2.586	n/a	n/a	GoodResponse	0	n/a	n/a	17	77	Blank	AvoidedLoss	True
732.112	1.45	Lose2	0.6795	n/a	Yes	2.586	n/a	5.0	GoodResponse	0	0.007	731.119	17	77	Feedback	AvoidedLoss	True
733.562	2.586	Lose2	0.6795	n/a	Yes	2.586	n/a	n/a	GoodResponse	0	0.0	n/a	17	77	ISIslide	AvoidedLoss	True
