onset	duration	cue_type	current_mean_accuracy	duration_error	is_hit	isi_adjusted	onset_delay	response	response_type	reward	rt	rt_time	total_reward	trial_number	trial_phase	trial_type	one_press
11.097	0.25	Control	1.0	0.0	Yes	2.953	-0.003	n/a	GoodResponse	0	n/a	n/a	0	0	Cue	Neutral	True
11.348	3.85	Control	1.0	0.0	Yes	2.953	0.001	n/a	GoodResponse	0	n/a	n/a	0	0	Fixation	Neutral	True
15.209	0.4	Control	1.0	0.0	Yes	2.953	0.012	1.0	GoodResponse	0	0.255	14.464	0	0	Target	Neutral	True
15.464	0.3	Control	1.0	0.0	Yes	2.953	0.012	1.0	GoodResponse	0	0.255	n/a	0	0	ButtonPress	Neutral	True
15.594	0.3	Control	1.0	n/a	Yes	2.953	n/a	n/a	GoodResponse	0	n/a	n/a	0	0	Blank	Neutral	True
15.894	1.45	Control	1.0	n/a	Yes	2.953	n/a	5.0	GoodResponse	0	0.044	14.938	0	0	Feedback	Neutral	True
17.349	2.953	Control	1.0	n/a	Yes	2.953	n/a	n/a	GoodResponse	0	0.0	n/a	0	0	ISIslide	Neutral	True
20.324	0.25	Lose2	1.0	0.0	Yes	2.776	0.024	n/a	GoodResponse	0	n/a	n/a	0	1	Cue	AvoidedLoss	True
20.575	4.0	Lose2	1.0	0.0	Yes	2.776	0.001	n/a	GoodResponse	0	n/a	n/a	0	1	Fixation	AvoidedLoss	True
24.57	0.39	Lose2	1.0	0.004	Yes	2.776	-0.004	1.0	GoodResponse	0	0.302	23.872	0	1	Target	AvoidedLoss	True
24.872	0.3	Lose2	1.0	0.004	Yes	2.776	-0.004	1.0	GoodResponse	0	0.302	n/a	0	1	ButtonPress	AvoidedLoss	True
24.972	0.31	Lose2	1.0	n/a	Yes	2.776	n/a	n/a	GoodResponse	0	n/a	n/a	0	1	Blank	AvoidedLoss	True
25.273	1.45	Lose2	1.0	n/a	Yes	2.776	n/a	5.0	GoodResponse	0	0.04	24.313	0	1	Feedback	AvoidedLoss	True
26.727	2.776	Lose2	1.0	n/a	Yes	2.776	n/a	n/a	GoodResponse	0	0.0	n/a	0	1	ISIslide	AvoidedLoss	True
29.519	0.25	Control	1.0	0.0	Yes	2.581	0.019	n/a	GoodResponse	0	n/a	n/a	0	2	Cue	Neutral	True
29.769	4.1	Control	1.0	0.0	Yes	2.581	0.0	n/a	GoodResponse	0	n/a	n/a	0	2	Fixation	Neutral	True
33.865	0.38	Control	1.0	0.004	Yes	2.581	-0.004	1.0	GoodResponse	0	0.241	33.106	0	2	Target	Neutral	True
34.106	0.3	Control	1.0	0.004	Yes	2.581	-0.004	1.0	GoodResponse	0	0.241	n/a	0	2	ButtonPress	Neutral	True
34.249	0.32	Control	1.0	n/a	Yes	2.581	n/a	n/a	GoodResponse	0	n/a	n/a	0	2	Blank	Neutral	True
34.567	1.45	Control	1.0	n/a	Yes	2.581	n/a	5.0	GoodResponse	0	0.058	33.625	0	2	Feedback	Neutral	True
36.021	2.581	Control	1.0	n/a	Yes	2.581	n/a	n/a	GoodResponse	0	0.0	n/a	0	2	ISIslide	Neutral	True
38.629	0.25	Win2	1.0	0.0	Yes	2.821	0.029	n/a	GoodResponse	1	n/a	n/a	1	3	Cue	Win	True
38.88	3.95	Win2	1.0	0.0	Yes	2.821	0.001	n/a	GoodResponse	1	n/a	n/a	1	3	Fixation	Win	True
42.825	0.37	Win2	1.0	0.004	Yes	2.821	-0.004	1.0	GoodResponse	1	0.211	42.036	1	3	Target	Win	True
43.036	0.3	Win2	1.0	0.004	Yes	2.821	-0.004	1.0	GoodResponse	1	0.211	n/a	1	3	ButtonPress	Win	True
43.209	0.33	Win2	1.0	n/a	Yes	2.821	n/a	n/a	GoodResponse	1	n/a	n/a	1	3	Blank	Win	True
43.527	1.45	Win2	1.0	n/a	Yes	2.821	n/a	5.0	GoodResponse	1	0.035	42.562	1	3	Feedback	Win	True
44.981	2.821	Win2	1.0	n/a	Yes	2.821	n/a	n/a	GoodResponse	1	0.0	n/a	1	3	ISIslide	Win	True
47.823	0.25	Win2	1.0	0.0	Yes	3.277	0.023	n/a	GoodResponse	1	n/a	n/a	2	4	Cue	Win	True
48.074	4.0	Win2	1.0	0.0	Yes	3.277	0.001	n/a	GoodResponse	1	n/a	n/a	2	4	Fixation	Win	True
52.069	0.36	Win2	1.0	0.004	Yes	3.277	-0.004	1.0	GoodResponse	1	0.24	51.309	2	4	Target	Win	True
52.309	0.3	Win2	1.0	0.004	Yes	3.277	-0.004	1.0	GoodResponse	1	0.24	n/a	2	4	ButtonPress	Win	True
52.437	0.34	Win2	1.0	n/a	Yes	3.277	n/a	n/a	GoodResponse	1	n/a	n/a	2	4	Blank	Win	True
52.771	1.45	Win2	1.0	n/a	Yes	3.277	n/a	5.0	GoodResponse	1	0.041	51.812	2	4	Feedback	Win	True
54.226	3.277	Win2	1.0	n/a	Yes	3.277	n/a	n/a	GoodResponse	1	0.0	n/a	2	4	ISIslide	Win	True
57.519	0.25	Win2	1.0	0.0	Yes	2.781	0.019	n/a	GoodResponse	1	n/a	n/a	3	5	Cue	Win	True
57.77	4.0	Win2	1.0	0.0	Yes	2.781	0.001	n/a	GoodResponse	1	n/a	n/a	3	5	Fixation	Win	True
61.765	0.35	Win2	1.0	0.004	Yes	2.781	-0.004	1.0	GoodResponse	1	0.213	60.978	3	5	Target	Win	True
61.978	0.3	Win2	1.0	0.004	Yes	2.781	-0.004	1.0	GoodResponse	1	0.213	n/a	3	5	ButtonPress	Win	True
62.116	0.35	Win2	1.0	n/a	Yes	2.781	n/a	n/a	GoodResponse	1	n/a	n/a	3	5	Blank	Win	True
62.467	1.45	Win2	1.0	n/a	Yes	2.781	n/a	5.0	GoodResponse	1	0.033	61.5	3	5	Feedback	Win	True
63.921	2.781	Win2	1.0	n/a	Yes	2.781	n/a	n/a	GoodResponse	1	0.0	n/a	3	5	ISIslide	Win	True
66.73	0.25	Lose2	1.0	0.0	Yes	2.72	0.03	n/a	GoodResponse	0	n/a	n/a	3	6	Cue	AvoidedLoss	True
66.981	3.95	Lose2	1.0	0.0	Yes	2.72	0.001	n/a	GoodResponse	0	n/a	n/a	3	6	Fixation	AvoidedLoss	True
70.926	0.34	Lose2	1.0	0.004	Yes	2.72	-0.004	1.0	GoodResponse	0	0.223	70.149	3	6	Target	AvoidedLoss	True
71.149	0.3	Lose2	1.0	0.004	Yes	2.72	-0.004	1.0	GoodResponse	0	0.223	n/a	3	6	ButtonPress	AvoidedLoss	True
71.277	0.36	Lose2	1.0	n/a	Yes	2.72	n/a	n/a	GoodResponse	0	n/a	n/a	3	6	Blank	AvoidedLoss	True
71.628	1.45	Lose2	1.0	n/a	Yes	2.72	n/a	5.0	GoodResponse	0	0.059	70.687	3	6	Feedback	AvoidedLoss	True
73.082	2.72	Lose2	1.0	n/a	Yes	2.72	n/a	n/a	GoodResponse	0	0.0	n/a	3	6	ISIslide	AvoidedLoss	True
75.824	0.25	Lose2	1.0	0.0	Yes	4.026	0.024	n/a	GoodResponse	0	n/a	n/a	3	7	Cue	AvoidedLoss	True
76.074	4.05	Lose2	1.0	0.0	Yes	4.026	0.0	n/a	GoodResponse	0	n/a	n/a	3	7	Fixation	AvoidedLoss	True
80.12	0.33	Lose2	1.0	0.004	Yes	4.026	-0.004	1.0	GoodResponse	0	0.25	79.37	3	7	Target	AvoidedLoss	True
80.37	0.3	Lose2	1.0	0.004	Yes	4.026	-0.004	1.0	GoodResponse	0	0.25	n/a	3	7	ButtonPress	AvoidedLoss	True
80.454	0.37	Lose2	1.0	n/a	Yes	4.026	n/a	n/a	GoodResponse	0	n/a	n/a	3	7	Blank	AvoidedLoss	True
80.822	1.45	Lose2	1.0	n/a	Yes	4.026	n/a	5.0	GoodResponse	0	0.052	79.874	3	7	Feedback	AvoidedLoss	True
82.276	4.026	Lose2	1.0	n/a	Yes	4.026	n/a	n/a	GoodResponse	0	0.0	n/a	3	7	ISIslide	AvoidedLoss	True
86.322	0.25	Lose2	1.0	0.0	Yes	3.028	0.022	n/a	GoodResponse	0	n/a	n/a	3	8	Cue	AvoidedLoss	True
86.572	3.95	Lose2	1.0	0.001	Yes	3.028	0.0	n/a	GoodResponse	0	n/a	n/a	3	8	Fixation	AvoidedLoss	True
90.518	0.32	Lose2	1.0	0.004	Yes	3.028	-0.004	1.0	GoodResponse	0	0.23	89.748	3	8	Target	AvoidedLoss	True
90.748	0.3	Lose2	1.0	0.004	Yes	3.028	-0.004	1.0	GoodResponse	0	0.23	n/a	3	8	ButtonPress	AvoidedLoss	True
90.852	0.38	Lose2	1.0	n/a	Yes	3.028	n/a	n/a	GoodResponse	0	n/a	n/a	3	8	Blank	AvoidedLoss	True
91.22	1.45	Lose2	1.0	n/a	Yes	3.028	n/a	5.0	GoodResponse	0	0.029	90.249	3	8	Feedback	AvoidedLoss	True
92.674	3.028	Lose2	1.0	n/a	Yes	3.028	n/a	n/a	GoodResponse	0	0.0	n/a	3	8	ISIslide	AvoidedLoss	True
95.716	0.25	Lose2	1.0	0.001	Yes	3.134	0.016	n/a	GoodResponse	0	n/a	n/a	3	9	Cue	AvoidedLoss	True
95.967	3.95	Lose2	1.0	0.0	Yes	3.134	0.001	n/a	GoodResponse	0	n/a	n/a	3	9	Fixation	AvoidedLoss	True
99.912	0.31	Lose2	1.0	0.004	Yes	3.134	-0.004	1.0	GoodResponse	0	0.216	99.128	3	9	Target	AvoidedLoss	True
100.128	0.3	Lose2	1.0	0.004	Yes	3.134	-0.004	1.0	GoodResponse	0	0.216	n/a	3	9	ButtonPress	AvoidedLoss	True
100.23	0.39	Lose2	1.0	n/a	Yes	3.134	n/a	n/a	GoodResponse	0	n/a	n/a	3	9	Blank	AvoidedLoss	True
100.614	1.45	Lose2	1.0	n/a	Yes	3.134	n/a	5.0	GoodResponse	0	0.01	99.624	3	9	Feedback	AvoidedLoss	True
102.069	3.134	Lose2	1.0	n/a	Yes	3.134	n/a	n/a	GoodResponse	0	0.0	n/a	3	9	ISIslide	AvoidedLoss	True
105.228	0.25	Control	1.0	0.0	Yes	3.272	0.028	n/a	GoodResponse	0	n/a	n/a	3	10	Cue	Neutral	True
105.479	4.0	Control	1.0	0.0	Yes	3.272	0.001	n/a	GoodResponse	0	n/a	n/a	3	10	Fixation	Neutral	True
109.474	0.3	Control	1.0	0.004	Yes	3.272	-0.004	1.0	GoodResponse	0	0.224	108.698	3	10	Target	Neutral	True
109.698	0.3	Control	1.0	0.004	Yes	3.272	-0.004	1.0	GoodResponse	0	0.224	n/a	3	10	ButtonPress	Neutral	True
109.775	0.4	Control	1.0	n/a	Yes	3.272	n/a	n/a	GoodResponse	0	n/a	n/a	3	10	Blank	Neutral	True
110.176	1.45	Control	1.0	n/a	Yes	3.272	n/a	5.0	GoodResponse	0	0.011	109.187	3	10	Feedback	Neutral	True
111.631	3.272	Control	1.0	n/a	Yes	3.272	n/a	n/a	GoodResponse	0	0.0	n/a	3	10	ISIslide	Neutral	True
114.924	0.25	Lose2	1.0	0.0	Yes	2.726	0.024	n/a	GoodResponse	0	n/a	n/a	3	11	Cue	AvoidedLoss	True
115.175	4.05	Lose2	1.0	0.0	Yes	2.726	0.001	n/a	GoodResponse	0	n/a	n/a	3	11	Fixation	AvoidedLoss	True
119.22	0.29	Lose2	1.0	0.004	Yes	2.726	-0.004	1.0	GoodResponse	0	0.192	118.412	3	11	Target	AvoidedLoss	True
119.412	0.3	Lose2	1.0	0.004	Yes	2.726	-0.004	1.0	GoodResponse	0	0.192	n/a	3	11	ButtonPress	AvoidedLoss	True
119.521	0.41	Lose2	1.0	n/a	Yes	2.726	n/a	n/a	GoodResponse	0	n/a	n/a	3	11	Blank	AvoidedLoss	True
119.922	1.45	Lose2	1.0	n/a	Yes	2.726	n/a	5.0	GoodResponse	0	0.015	118.937	3	11	Feedback	AvoidedLoss	True
121.377	2.726	Lose2	1.0	n/a	Yes	2.726	n/a	n/a	GoodResponse	0	0.0	n/a	3	11	ISIslide	AvoidedLoss	True
124.118	0.25	Control	1.0	0.0	Yes	2.982	0.018	n/a	GoodResponse	0	n/a	n/a	3	12	Cue	Neutral	True
124.369	3.9	Control	1.0	0.0	Yes	2.982	0.001	n/a	GoodResponse	0	n/a	n/a	3	12	Fixation	Neutral	True
128.264	0.28	Control	1.0	0.004	Yes	2.982	-0.004	1.0	GoodResponse	0	0.257	127.521	3	12	Target	Neutral	True
128.521	0.3	Control	1.0	0.004	Yes	2.982	-0.004	1.0	GoodResponse	0	0.257	n/a	3	12	ButtonPress	Neutral	True
128.548	0.42	Control	1.0	n/a	Yes	2.982	n/a	n/a	GoodResponse	0	n/a	n/a	3	12	Blank	Neutral	True
128.966	1.45	Control	1.0	n/a	Yes	2.982	n/a	5.0	GoodResponse	0	0.033	127.999	3	12	Feedback	Neutral	True
130.42	2.982	Control	1.0	n/a	Yes	2.982	n/a	n/a	GoodResponse	0	0.0	n/a	3	12	ISIslide	Neutral	True
133.429	0.25	Control	1.0	0.0	Yes	2.771	0.029	n/a	GoodResponse	0	n/a	n/a	3	13	Cue	Neutral	True
133.68	4.0	Control	1.0	0.0	Yes	2.771	0.001	n/a	GoodResponse	0	n/a	n/a	3	13	Fixation	Neutral	True
137.675	0.27	Control	1.0	0.004	Yes	2.771	-0.004	1.0	GoodResponse	0	0.239	136.914	3	13	Target	Neutral	True
137.914	0.3	Control	1.0	0.004	Yes	2.771	-0.004	1.0	GoodResponse	0	0.239	n/a	3	13	ButtonPress	Neutral	True
137.959	0.43	Control	1.0	n/a	Yes	2.771	n/a	n/a	GoodResponse	0	n/a	n/a	3	13	Blank	Neutral	True
138.377	1.45	Control	1.0	n/a	Yes	2.771	n/a	5.0	GoodResponse	0	0.059	137.436	3	13	Feedback	Neutral	True
139.832	2.771	Control	1.0	n/a	Yes	2.771	n/a	n/a	GoodResponse	0	0.0	n/a	3	13	ISIslide	Neutral	True
142.623	0.25	Win2	1.0	0.0	Yes	2.677	0.023	n/a	GoodResponse	1	n/a	n/a	4	14	Cue	Win	True
142.874	4.1	Win2	1.0	0.0	Yes	2.677	0.001	n/a	GoodResponse	1	n/a	n/a	4	14	Fixation	Win	True
146.97	0.26	Win2	1.0	0.003	Yes	2.677	-0.003	1.0	GoodResponse	1	0.183	146.153	4	14	Target	Win	True
147.153	0.3	Win2	1.0	0.003	Yes	2.677	-0.003	1.0	GoodResponse	1	0.183	n/a	4	14	ButtonPress	Win	True
147.237	0.44	Win2	1.0	n/a	Yes	2.677	n/a	n/a	GoodResponse	1	n/a	n/a	4	14	Blank	Win	True
147.672	1.45	Win2	1.0	n/a	Yes	2.677	n/a	5.0	GoodResponse	1	0.014	146.686	4	14	Feedback	Win	True
149.126	2.677	Win2	1.0	n/a	Yes	2.677	n/a	n/a	GoodResponse	1	0.0	n/a	4	14	ISIslide	Win	True
151.818	0.25	Control	1.0	0.0	Yes	2.982	0.018	n/a	GoodResponse	0	n/a	n/a	4	15	Cue	Neutral	True
152.068	4.0	Control	1.0	0.0	Yes	2.982	0.0	n/a	GoodResponse	0	n/a	n/a	4	15	Fixation	Neutral	True
156.064	0.25	Control	1.0	0.004	Yes	2.982	-0.004	1.0	GoodResponse	0	0.249	155.313	4	15	Target	Neutral	True
156.313	0.3	Control	1.0	0.004	Yes	2.982	-0.004	1.0	GoodResponse	0	0.249	n/a	4	15	ButtonPress	Neutral	True
156.314	0.45	Control	1.0	n/a	Yes	2.982	n/a	n/a	GoodResponse	0	n/a	n/a	4	15	Blank	Neutral	True
156.766	1.45	Control	1.0	n/a	Yes	2.982	n/a	5.0	GoodResponse	0	0.045	155.811	4	15	Feedback	Neutral	True
158.22	2.982	Control	1.0	n/a	Yes	2.982	n/a	n/a	GoodResponse	0	0.0	n/a	4	15	ISIslide	Neutral	True
161.229	0.25	Win2	1.0	0.0	Yes	2.871	0.029	n/a	GoodResponse	1	n/a	n/a	5	16	Cue	Win	True
161.48	4.0	Win2	1.0	0.0	Yes	2.871	0.001	n/a	GoodResponse	1	n/a	n/a	5	16	Fixation	Win	True
165.475	0.24	Win2	1.0	0.004	Yes	2.871	-0.004	1.0	GoodResponse	1	0.221	164.696	5	16	Target	Win	True
165.696	0.3	Win2	1.0	0.004	Yes	2.871	-0.004	1.0	GoodResponse	1	0.221	n/a	5	16	ButtonPress	Win	True
165.726	0.46	Win2	1.0	n/a	Yes	2.871	n/a	n/a	GoodResponse	1	n/a	n/a	5	16	Blank	Win	True
166.177	1.45	Win2	1.0	n/a	Yes	2.871	n/a	5.0	GoodResponse	1	0.008	165.185	5	16	Feedback	Win	True
167.631	2.871	Win2	1.0	n/a	Yes	2.871	n/a	n/a	GoodResponse	1	0.0	n/a	5	16	ISIslide	Win	True
170.523	0.25	Lose2	0.9444	0.001	No	2.727	0.023	n/a	NoResponse	-1	n/a	n/a	4	17	Cue	Loss	True
170.774	3.95	Lose2	0.9444	0.0	No	2.727	0.001	n/a	NoResponse	-1	n/a	n/a	4	17	Fixation	Loss	True
174.719	0.23	Lose2	0.9444	0.004	No	2.727	-0.004	1.0	NoResponse	-1	0.244	173.963	4	17	Target	Loss	True
174.953	0.47	Lose2	0.9444	n/a	No	2.727	n/a	n/a	NoResponse	-1	n/a	n/a	4	17	Blank	Loss	True
174.963	0.3	Lose2	0.9444	0.004	No	2.727	-0.004	1.0	NoResponse	-1	0.244	n/a	4	17	ButtonPress	Loss	True
175.421	1.45	Lose2	0.9444	n/a	No	2.727	n/a	5.0	NoResponse	-1	0.015	174.436	4	17	Feedback	Loss	True
176.876	2.727	Lose2	0.9444	n/a	No	2.727	n/a	n/a	NoResponse	-1	0.0	n/a	4	17	ISIslide	Loss	True
179.617	0.25	Lose2	0.8946999999999999	0.0	No	2.733	0.017	n/a	NoResponse	-1	n/a	n/a	3	18	Cue	Loss	True
179.868	4.05	Lose2	0.8946999999999999	0.0	No	2.733	0.001	n/a	NoResponse	-1	n/a	n/a	3	18	Fixation	Loss	True
183.914	0.22	Lose2	0.8946999999999999	0.003	No	2.733	-0.003	1.0	NoResponse	-1	0.259	183.173	3	18	Target	Loss	True
184.148	0.48	Lose2	0.8946999999999999	n/a	No	2.733	n/a	n/a	NoResponse	-1	n/a	n/a	3	18	Blank	Loss	True
184.173	0.3	Lose2	0.8946999999999999	0.003	No	2.733	-0.003	1.0	NoResponse	-1	0.259	n/a	3	18	ButtonPress	Loss	True
184.616	1.45	Lose2	0.8946999999999999	n/a	No	2.733	n/a	5.0	NoResponse	-1	0.007	183.623	3	18	Feedback	Loss	True
186.07	2.733	Lose2	0.8946999999999999	n/a	No	2.733	n/a	n/a	NoResponse	-1	0.0	n/a	3	18	ISIslide	Loss	True
188.828	0.25	Control	0.85	0.0	No	2.922	0.028	n/a	NoResponse	0	n/a	n/a	3	19	Cue	Neutral	True
189.079	3.95	Control	0.85	0.0	No	2.922	0.001	n/a	NoResponse	0	n/a	n/a	3	19	Fixation	Neutral	True
193.024	0.21	Control	0.85	0.004	No	2.922	-0.004	1.0	NoResponse	0	0.322	192.346	3	19	Target	Neutral	True
193.241	0.49	Control	0.85	n/a	No	2.922	n/a	n/a	NoResponse	0	n/a	n/a	3	19	Blank	Neutral	True
193.346	0.3	Control	0.85	0.004	No	2.922	-0.004	1.0	NoResponse	0	0.322	n/a	3	19	ButtonPress	Neutral	True
193.726	1.45	Control	0.85	n/a	No	2.922	n/a	5.0	NoResponse	0	0.022	192.748	3	19	Feedback	Neutral	True
195.181	2.922	Control	0.85	n/a	No	2.922	n/a	n/a	NoResponse	0	0.0	n/a	3	19	ISIslide	Neutral	True
198.123	0.25	Control	0.8571	0.0	Yes	2.627	0.023	n/a	GoodResponse	0	n/a	n/a	3	20	Cue	Neutral	True
198.373	4.05	Control	0.8571	0.0	Yes	2.627	0.0	n/a	GoodResponse	0	n/a	n/a	3	20	Fixation	Neutral	True
202.419	0.2	Control	0.8571	0.004	Yes	2.627	-0.004	1.0	GoodResponse	0	0.189	201.608	3	20	Target	Neutral	True
202.608	0.3	Control	0.8571	0.004	Yes	2.627	-0.004	1.0	GoodResponse	0	0.189	n/a	3	20	ButtonPress	Neutral	True
202.619	0.5	Control	0.8571	n/a	Yes	2.627	n/a	n/a	GoodResponse	0	n/a	n/a	3	20	Blank	Neutral	True
203.121	1.45	Control	0.8571	n/a	Yes	2.627	n/a	5.0	GoodResponse	0	0.002	202.123	3	20	Feedback	Neutral	True
204.575	2.627	Control	0.8571	n/a	Yes	2.627	n/a	n/a	GoodResponse	0	0.0	n/a	3	20	ISIslide	Neutral	True
207.217	0.25	Control	0.8181999999999999	0.0	No	2.783	0.017	n/a	NoResponse	0	n/a	n/a	3	21	Cue	Neutral	True
207.467	4.1	Control	0.8181999999999999	0.0	No	2.783	0.0	n/a	NoResponse	0	n/a	n/a	3	21	Fixation	Neutral	True
211.563	0.19	Control	0.8181999999999999	0.004	No	2.783	-0.004	1.0	NoResponse	0	0.295	210.858	3	21	Target	Neutral	True
211.763	0.51	Control	0.8181999999999999	n/a	No	2.783	n/a	n/a	NoResponse	0	n/a	n/a	3	21	Blank	Neutral	True
211.858	0.3	Control	0.8181999999999999	0.004	No	2.783	-0.004	1.0	NoResponse	0	0.295	n/a	3	21	ButtonPress	Neutral	True
212.265	1.45	Control	0.8181999999999999	n/a	No	2.783	n/a	5.0	NoResponse	0	0.045	211.31	3	21	Feedback	Neutral	True
213.719	2.783	Control	0.8181999999999999	n/a	No	2.783	n/a	n/a	NoResponse	0	0.0	n/a	3	21	ISIslide	Neutral	True
216.528	0.25	Control	0.7826000000000001	0.0	No	2.772	0.028	n/a	NoResponse	0	n/a	n/a	3	22	Cue	Neutral	True
216.778	4.0	Control	0.7826000000000001	0.001	No	2.772	0.0	n/a	NoResponse	0	n/a	n/a	3	22	Fixation	Neutral	True
220.774	0.18	Control	0.7826000000000001	0.004	No	2.772	-0.004	1.0	NoResponse	0	0.194	219.968	3	22	Target	Neutral	True
220.958	0.52	Control	0.7826000000000001	n/a	No	2.772	n/a	n/a	NoResponse	0	n/a	n/a	3	22	Blank	Neutral	True
220.968	0.3	Control	0.7826000000000001	0.004	No	2.772	-0.004	1.0	NoResponse	0	0.194	n/a	3	22	ButtonPress	Neutral	True
221.476	1.45	Control	0.7826000000000001	n/a	No	2.772	n/a	5.0	NoResponse	0	0.022	220.498	3	22	Feedback	Neutral	True
222.93	2.772	Control	0.7826000000000001	n/a	No	2.772	n/a	n/a	NoResponse	0	0.0	n/a	3	22	ISIslide	Neutral	True
225.722	0.25	Control	0.75	0.0	No	2.778	0.022	n/a	NoResponse	0	n/a	n/a	3	23	Cue	Neutral	True
225.973	3.9	Control	0.75	0.0	No	2.778	0.001	n/a	NoResponse	0	n/a	n/a	3	23	Fixation	Neutral	True
229.868	0.17	Control	0.75	0.004	No	2.778	-0.004	1.0	NoResponse	0	0.184	229.052	3	23	Target	Neutral	True
230.051	0.53	Control	0.75	n/a	No	2.778	n/a	n/a	NoResponse	0	n/a	n/a	3	23	Blank	Neutral	True
230.052	0.3	Control	0.75	0.004	No	2.778	-0.004	1.0	NoResponse	0	0.184	n/a	3	23	ButtonPress	Neutral	True
230.57	1.45	Control	0.75	n/a	No	2.778	n/a	5.0	NoResponse	0	0.053	229.623	3	23	Feedback	Neutral	True
232.024	2.778	Control	0.75	n/a	No	2.778	n/a	n/a	NoResponse	0	0.0	n/a	3	23	ISIslide	Neutral	True
234.816	0.25	Win2	0.72	0.0	No	3.134	0.016	n/a	NoResponse	0	n/a	n/a	3	24	Cue	MissedWin	True
235.066	3.95	Win2	0.72	0.001	No	3.134	0.0	n/a	NoResponse	0	n/a	n/a	3	24	Fixation	MissedWin	True
239.012	0.16	Win2	0.72	0.004	No	3.134	-0.004	1.0	NoResponse	0	0.217	238.229	3	24	Target	MissedWin	True
239.179	0.54	Win2	0.72	n/a	No	3.134	n/a	n/a	NoResponse	0	n/a	n/a	3	24	Blank	MissedWin	True
239.229	0.3	Win2	0.72	0.004	No	3.134	-0.004	1.0	NoResponse	0	0.217	n/a	3	24	ButtonPress	MissedWin	True
239.714	1.45	Win2	0.72	n/a	No	3.134	n/a	5.0	NoResponse	0	0.034	238.748	3	24	Feedback	MissedWin	True
241.168	3.134	Win2	0.72	n/a	No	3.134	n/a	n/a	NoResponse	0	0.0	n/a	3	24	ISIslide	MissedWin	True
244.327	0.25	Win2	0.6923	0.001	No	3.073	0.027	n/a	NoResponse	0	n/a	n/a	3	25	Cue	MissedWin	True
244.578	4.0	Win2	0.6923	0.0	No	3.073	0.001	1.0	NoResponse	0	3.99	247.568	3	25	Fixation	MissedWin	True
248.568	0.3	Win2	0.6923	0.0	No	3.073	0.001	1.0	NoResponse	0	3.99	n/a	3	25	ButtonPress	MissedWin	True
248.573	0.15	Win2	0.6923	0.004	No	3.073	-0.004	n/a	NoResponse	0	n/a	n/a	3	25	Target	MissedWin	True
248.724	0.55	Win2	0.6923	n/a	No	3.073	n/a	n/a	NoResponse	0	n/a	n/a	3	25	Blank	MissedWin	True
249.276	1.45	Win2	0.6923	n/a	No	3.073	n/a	5.0	NoResponse	0	0.034	248.31	3	25	Feedback	MissedWin	True
250.73	3.073	Win2	0.6923	n/a	No	3.073	n/a	n/a	NoResponse	0	0.0	n/a	3	25	ISIslide	MissedWin	True
253.823	0.25	Win2	0.6667000000000001	0.0	No	2.927	0.023	n/a	NoResponse	0	n/a	n/a	3	26	Cue	MissedWin	True
254.073	3.95	Win2	0.6667000000000001	0.0	No	2.927	0.0	n/a	NoResponse	0	n/a	n/a	3	26	Fixation	MissedWin	True
258.035	0.15	Win2	0.6667000000000001	0.0	No	2.927	0.012	1.0	NoResponse	0	0.215	257.25	3	26	Target	MissedWin	True
258.169	0.55	Win2	0.6667000000000001	n/a	No	2.927	n/a	n/a	NoResponse	0	n/a	n/a	3	26	Blank	MissedWin	True
258.25	0.3	Win2	0.6667000000000001	0.0	No	2.927	0.012	1.0	NoResponse	0	0.215	n/a	3	26	ButtonPress	MissedWin	True
258.72	1.45	Win2	0.6667000000000001	n/a	No	2.927	n/a	5.0	NoResponse	0	0.027	257.747	3	26	Feedback	MissedWin	True
260.175	2.927	Win2	0.6667000000000001	n/a	No	2.927	n/a	n/a	NoResponse	0	0.0	n/a	3	26	ISIslide	MissedWin	True
263.117	0.25	Lose2	0.6429	0.0	No	2.833	0.017	n/a	NoResponse	-1	n/a	n/a	2	27	Cue	Loss	False
263.368	4.05	Lose2	0.6429	0.0	No	2.833	0.001	2.0	NoResponse	-1	2.672	265.04	2	27	Fixation	Loss	False
266.04	0.3	Lose2	0.6429	0.0	No	2.833	0.001	2.0	NoResponse	-1	2.672	n/a	2	27	ButtonPress	Loss	False
267.413	0.15	Lose2	0.6429	0.004	No	2.833	-0.004	1.0	NoResponse	-1	0.251	266.664	2	27	Target	Loss	False
267.564	0.55	Lose2	0.6429	n/a	No	2.833	n/a	n/a	NoResponse	-1	n/a	n/a	2	27	Blank	Loss	False
267.664	0.3	Lose2	0.6429	0.004	No	2.833	-0.004	1.0	NoResponse	-1	0.251	n/a	2	27	ButtonPress	Loss	False
268.115	1.45	Lose2	0.6429	n/a	No	2.833	n/a	5.0	NoResponse	-1	0.008	267.123	2	27	Feedback	Loss	False
269.57	2.833	Lose2	0.6429	n/a	No	2.833	n/a	n/a	NoResponse	-1	0.0	n/a	2	27	ISIslide	Loss	False
272.428	0.25	Control	0.6207	0.0	No	2.822	0.028	n/a	NoResponse	0	n/a	n/a	2	28	Cue	Neutral	True
272.679	4.05	Control	0.6207	0.0	No	2.822	0.001	n/a	NoResponse	0	n/a	n/a	2	28	Fixation	Neutral	True
276.724	0.16	Control	0.6207	0.004	No	2.822	-0.004	1.0	NoResponse	0	0.198	275.922	2	28	Target	Neutral	True
276.891	0.54	Control	0.6207	n/a	No	2.822	n/a	n/a	NoResponse	0	n/a	n/a	2	28	Blank	Neutral	True
276.922	0.3	Control	0.6207	0.004	No	2.822	-0.004	1.0	NoResponse	0	0.198	n/a	2	28	ButtonPress	Neutral	True
277.426	1.45	Control	0.6207	n/a	No	2.822	n/a	5.0	NoResponse	0	0.009	276.435	2	28	Feedback	Neutral	True
278.881	2.822	Control	0.6207	n/a	No	2.822	n/a	n/a	NoResponse	0	0.0	n/a	2	28	ISIslide	Neutral	True
281.723	0.25	Lose2	0.6	0.0	No	2.827	0.023	n/a	LatePress	-1	n/a	n/a	1	29	Cue	Loss	True
281.973	3.95	Lose2	0.6	0.0	No	2.827	0.0	n/a	LatePress	-1	n/a	n/a	1	29	Fixation	Loss	True
285.918	0.17	Lose2	0.6	0.005	No	2.827	-0.005	1.0	LatePress	-1	0.175	285.093	1	29	Target	Loss	True
286.093	0.3	Lose2	0.6	0.005	No	2.827	-0.005	1.0	LatePress	-1	0.175	n/a	1	29	ButtonPress	Loss	True
286.102	0.53	Lose2	0.6	n/a	No	2.827	n/a	n/a	LatePress	-1	n/a	n/a	1	29	Blank	Loss	True
286.621	1.45	Lose2	0.6	n/a	No	2.827	n/a	5.0	LatePress	-1	0.001	285.622	1	29	Feedback	Loss	True
288.075	2.827	Lose2	0.6	n/a	No	2.827	n/a	n/a	LatePress	-1	0.0	n/a	1	29	ISIslide	Loss	True
290.917	0.25	Win2	0.5806	0.0	No	2.783	0.017	n/a	NoResponse	0	n/a	n/a	1	30	Cue	MissedWin	True
291.168	3.9	Win2	0.5806	0.0	No	2.783	0.001	n/a	NoResponse	0	n/a	n/a	1	30	Fixation	MissedWin	True
295.063	0.18	Win2	0.5806	0.004	No	2.783	-0.004	1.0	NoResponse	0	0.192	294.255	1	30	Target	MissedWin	True
295.246	0.52	Win2	0.5806	n/a	No	2.783	n/a	n/a	NoResponse	0	n/a	n/a	1	30	Blank	MissedWin	True
295.255	0.3	Win2	0.5806	0.004	No	2.783	-0.004	1.0	NoResponse	0	0.192	n/a	1	30	ButtonPress	MissedWin	True
295.765	1.45	Win2	0.5806	n/a	No	2.783	n/a	5.0	NoResponse	0	0.044	294.809	1	30	Feedback	MissedWin	True
297.219	2.783	Win2	0.5806	n/a	No	2.783	n/a	n/a	NoResponse	0	0.0	n/a	1	30	ISIslide	MissedWin	True
300.027	0.25	Lose2	0.5625	0.0	No	2.823	0.027	n/a	NoResponse	-1	n/a	n/a	0	31	Cue	Loss	True
300.278	4.05	Lose2	0.5625	0.0	No	2.823	0.001	n/a	NoResponse	-1	n/a	n/a	0	31	Fixation	Loss	True
304.324	0.19	Lose2	0.5625	0.003	No	2.823	-0.003	1.0	NoResponse	-1	0.422	303.746	0	31	Target	Loss	True
304.524	0.51	Lose2	0.5625	n/a	No	2.823	n/a	n/a	NoResponse	-1	n/a	n/a	0	31	Blank	Loss	True
304.746	0.3	Lose2	0.5625	0.003	No	2.823	-0.003	1.0	NoResponse	-1	0.422	n/a	0	31	ButtonPress	Loss	True
305.026	1.45	Lose2	0.5625	n/a	No	2.823	n/a	5.0	NoResponse	-1	0.033	304.059	0	31	Feedback	Loss	True
306.48	2.823	Lose2	0.5625	n/a	No	2.823	n/a	n/a	NoResponse	-1	0.0	n/a	0	31	ISIslide	Loss	True
309.322	0.25	Lose2	0.5758	0.0	Yes	2.628	0.022	n/a	GoodResponse	0	n/a	n/a	0	32	Cue	AvoidedLoss	True
309.573	4.15	Lose2	0.5758	0.0	Yes	2.628	0.001	n/a	GoodResponse	0	n/a	n/a	0	32	Fixation	AvoidedLoss	True
313.718	0.2	Lose2	0.5758	0.004	Yes	2.628	-0.004	1.0	GoodResponse	0	0.176	312.894	0	32	Target	AvoidedLoss	True
313.894	0.3	Lose2	0.5758	0.004	Yes	2.628	-0.004	1.0	GoodResponse	0	0.176	n/a	0	32	ButtonPress	AvoidedLoss	True
313.919	0.5	Lose2	0.5758	n/a	Yes	2.628	n/a	n/a	GoodResponse	0	n/a	n/a	0	32	Blank	AvoidedLoss	True
314.42	1.45	Lose2	0.5758	n/a	Yes	2.628	n/a	5.0	GoodResponse	0	0.014	313.434	0	32	Feedback	AvoidedLoss	True
315.875	2.628	Lose2	0.5758	n/a	Yes	2.628	n/a	n/a	GoodResponse	0	0.0	n/a	0	32	ISIslide	AvoidedLoss	True
318.516	0.25	Win2	0.5882000000000001	0.0	Yes	2.684	0.016	n/a	GoodResponse	1	n/a	n/a	1	33	Cue	Win	True
318.767	4.0	Win2	0.5882000000000001	0.0	Yes	2.684	0.001	n/a	GoodResponse	1	n/a	n/a	1	33	Fixation	Win	True
322.762	0.21	Win2	0.5882000000000001	0.004	Yes	2.684	-0.004	1.0	GoodResponse	1	0.128	321.89	1	33	Target	Win	True
322.89	0.3	Win2	0.5882000000000001	0.004	Yes	2.684	-0.004	1.0	GoodResponse	1	0.128	n/a	1	33	ButtonPress	Win	True
322.979	0.49	Win2	0.5882000000000001	n/a	Yes	2.684	n/a	n/a	GoodResponse	1	n/a	n/a	1	33	Blank	Win	True
323.464	1.45	Win2	0.5882000000000001	n/a	Yes	2.684	n/a	5.0	GoodResponse	1	0.033	322.497	1	33	Feedback	Win	True
324.918	2.684	Win2	0.5882000000000001	n/a	Yes	2.684	n/a	n/a	GoodResponse	1	0.0	n/a	1	33	ISIslide	Win	True
327.627	0.25	Lose2	0.6	0.0	Yes	2.623	0.027	n/a	GoodResponse	0	n/a	n/a	1	34	Cue	AvoidedLoss	True
327.877	4.05	Lose2	0.6	0.0	Yes	2.623	0.0	n/a	GoodResponse	0	n/a	n/a	1	34	Fixation	AvoidedLoss	True
331.923	0.22	Lose2	0.6	0.004	Yes	2.623	-0.004	1.0	GoodResponse	0	0.175	331.098	1	34	Target	AvoidedLoss	True
332.098	0.3	Lose2	0.6	0.004	Yes	2.623	-0.004	1.0	GoodResponse	0	0.175	n/a	1	34	ButtonPress	AvoidedLoss	True
332.157	0.48	Lose2	0.6	n/a	Yes	2.623	n/a	n/a	GoodResponse	0	n/a	n/a	1	34	Blank	AvoidedLoss	True
332.625	1.45	Lose2	0.6	n/a	Yes	2.623	n/a	5.0	GoodResponse	0	0.059	331.684	1	34	Feedback	AvoidedLoss	True
334.079	2.623	Lose2	0.6	n/a	Yes	2.623	n/a	n/a	GoodResponse	0	0.0	n/a	1	34	ISIslide	AvoidedLoss	True
336.72	0.25	Lose2	0.5832999999999999	0.0	No	2.68	0.02	n/a	NoResponse	-1	n/a	n/a	0	35	Cue	Loss	True
336.971	4.0	Lose2	0.5832999999999999	0.0	No	2.68	0.001	1.0	NoResponse	-1	3.846	339.817	0	35	Fixation	Loss	True
340.817	0.3	Lose2	0.5832999999999999	0.0	No	2.68	0.001	1.0	NoResponse	-1	3.846	n/a	0	35	ButtonPress	Loss	True
340.966	0.23	Lose2	0.5832999999999999	0.004	No	2.68	-0.004	n/a	NoResponse	-1	n/a	n/a	0	35	Target	Loss	True
341.2	0.47	Lose2	0.5832999999999999	n/a	No	2.68	n/a	n/a	NoResponse	-1	n/a	n/a	0	35	Blank	Loss	True
341.668	1.45	Lose2	0.5832999999999999	n/a	No	2.68	n/a	5.0	NoResponse	-1	0.015	340.683	0	35	Feedback	Loss	True
343.123	2.68	Lose2	0.5832999999999999	n/a	No	2.68	n/a	n/a	NoResponse	-1	0.0	n/a	0	35	ISIslide	Loss	True
345.814	0.25	Control	0.5946	0.0	Yes	2.686	0.014	n/a	GoodResponse	0	n/a	n/a	0	36	Cue	Neutral	True
346.065	4.0	Control	0.5946	0.0	Yes	2.686	0.001	n/a	GoodResponse	0	n/a	n/a	0	36	Fixation	Neutral	True
350.06	0.24	Control	0.5946	0.004	Yes	2.686	-0.004	1.0	GoodResponse	0	0.204	349.264	0	36	Target	Neutral	True
350.264	0.3	Control	0.5946	0.004	Yes	2.686	-0.004	1.0	GoodResponse	0	0.204	n/a	0	36	ButtonPress	Neutral	True
350.311	0.46	Control	0.5946	n/a	Yes	2.686	n/a	n/a	GoodResponse	0	n/a	n/a	0	36	Blank	Neutral	True
350.762	1.45	Control	0.5946	n/a	Yes	2.686	n/a	5.0	GoodResponse	0	0.046	349.808	0	36	Feedback	Neutral	True
352.217	2.686	Control	0.5946	n/a	Yes	2.686	n/a	n/a	GoodResponse	0	0.0	n/a	0	36	ISIslide	Neutral	True
354.925	0.25	Win2	0.6053000000000001	0.0	Yes	2.875	0.025	n/a	GoodResponse	1	n/a	n/a	1	37	Cue	Win	True
355.176	4.0	Win2	0.6053000000000001	0.0	Yes	2.875	0.001	n/a	GoodResponse	1	n/a	n/a	1	37	Fixation	Win	True
359.171	0.25	Win2	0.6053000000000001	0.004	Yes	2.875	-0.004	1.0	GoodResponse	1	0.104	358.275	1	37	Target	Win	True
359.275	0.3	Win2	0.6053000000000001	0.004	Yes	2.875	-0.004	1.0	GoodResponse	1	0.104	n/a	1	37	ButtonPress	Win	True
359.422	0.45	Win2	0.6053000000000001	n/a	Yes	2.875	n/a	n/a	GoodResponse	1	n/a	n/a	1	37	Blank	Win	True
359.873	1.45	Win2	0.6053000000000001	n/a	Yes	2.875	n/a	5.0	GoodResponse	1	0.061	358.934	1	37	Feedback	Win	True
361.327	2.875	Win2	0.6053000000000001	n/a	Yes	2.875	n/a	n/a	GoodResponse	1	0.0	n/a	1	37	ISIslide	Win	True
364.219	0.25	Lose2	0.5897	0.0	No	2.831	0.019	n/a	NoResponse	-1	n/a	n/a	0	38	Cue	Loss	True
364.47	3.95	Lose2	0.5897	0.0	No	2.831	0.001	n/a	NoResponse	-1	n/a	n/a	0	38	Fixation	Loss	True
368.415	0.26	Lose2	0.5897	0.004	No	2.831	-0.004	1.0	NoResponse	-1	0.288	367.703	0	38	Target	Loss	True
368.683	0.44	Lose2	0.5897	n/a	No	2.831	n/a	n/a	NoResponse	-1	n/a	n/a	0	38	Blank	Loss	True
368.703	0.3	Lose2	0.5897	0.004	No	2.831	-0.004	1.0	NoResponse	-1	0.288	n/a	0	38	ButtonPress	Loss	True
369.117	1.45	Lose2	0.5897	n/a	No	2.831	n/a	5.0	NoResponse	-1	0.008	368.125	0	38	Feedback	Loss	True
370.572	2.831	Lose2	0.5897	n/a	No	2.831	n/a	n/a	NoResponse	-1	0.0	n/a	0	38	ISIslide	Loss	True
373.43	0.25	Win2	0.6	0.0	Yes	2.97	0.03	n/a	GoodResponse	1	n/a	n/a	1	39	Cue	Win	False
373.681	4.1	Win2	0.6	0.0	Yes	2.97	0.001	1.0	GoodResponse	1	0.195	372.876	1	39	Fixation	Win	False
373.876	0.3	Win2	0.6	0.0	Yes	2.97	0.001	1.0	GoodResponse	1	0.195	n/a	1	39	ButtonPress	Win	False
377.776	0.27	Win2	0.6	0.004	Yes	2.97	-0.004	1.0	GoodResponse	1	0.202	376.978	1	39	Target	Win	False
377.978	0.3	Win2	0.6	0.004	Yes	2.97	-0.004	1.0	GoodResponse	1	0.202	n/a	1	39	ButtonPress	Win	False
378.061	0.43	Win2	0.6	n/a	Yes	2.97	n/a	n/a	GoodResponse	1	n/a	n/a	1	39	Blank	Win	False
378.479	1.45	Win2	0.6	n/a	Yes	2.97	n/a	5.0	GoodResponse	1	0.016	377.495	1	39	Feedback	Win	False
379.933	2.97	Win2	0.6	n/a	Yes	2.97	n/a	n/a	GoodResponse	1	0.0	n/a	1	39	ISIslide	Win	False
382.925	0.25	Win2	0.6098	0.0	Yes	2.725	0.025	n/a	GoodResponse	1	n/a	n/a	2	40	Cue	Win	True
383.176	3.95	Win2	0.6098	0.0	Yes	2.725	0.001	n/a	GoodResponse	1	n/a	n/a	2	40	Fixation	Win	True
387.121	0.28	Win2	0.6098	0.004	Yes	2.725	-0.004	1.0	GoodResponse	1	0.191	386.312	2	40	Target	Win	True
387.312	0.3	Win2	0.6098	0.004	Yes	2.725	-0.004	1.0	GoodResponse	1	0.191	n/a	2	40	ButtonPress	Win	True
387.405	0.42	Win2	0.6098	n/a	Yes	2.725	n/a	n/a	GoodResponse	1	n/a	n/a	2	40	Blank	Win	True
387.823	1.45	Win2	0.6098	n/a	Yes	2.725	n/a	5.0	GoodResponse	1	0.047	386.87	2	40	Feedback	Win	True
389.278	2.725	Win2	0.6098	n/a	Yes	2.725	n/a	n/a	GoodResponse	1	0.0	n/a	2	40	ISIslide	Win	True
392.019	0.25	Win2	0.619	0.0	Yes	2.781	0.019	n/a	GoodResponse	1	n/a	n/a	3	41	Cue	Win	True
392.27	3.9	Win2	0.619	0.0	Yes	2.781	0.001	n/a	GoodResponse	1	n/a	n/a	3	41	Fixation	Win	True
396.165	0.29	Win2	0.619	0.004	Yes	2.781	-0.004	1.0	GoodResponse	1	0.23	395.395	3	41	Target	Win	True
396.395	0.3	Win2	0.619	0.004	Yes	2.781	-0.004	1.0	GoodResponse	1	0.23	n/a	3	41	ButtonPress	Win	True
396.466	0.41	Win2	0.619	n/a	Yes	2.781	n/a	n/a	GoodResponse	1	n/a	n/a	3	41	Blank	Win	True
396.867	1.45	Win2	0.619	n/a	Yes	2.781	n/a	5.0	GoodResponse	1	0.007	395.874	3	41	Feedback	Win	True
398.321	2.781	Win2	0.619	n/a	Yes	2.781	n/a	n/a	GoodResponse	1	0.0	n/a	3	41	ISIslide	Win	True
401.13	0.25	Control	0.6047	0.0	No	2.92	0.03	n/a	NoResponse	0	n/a	n/a	3	42	Cue	Neutral	True
401.38	3.85	Control	0.6047	0.0	No	2.92	0.0	n/a	NoResponse	0	n/a	n/a	3	42	Fixation	Neutral	True
405.242	0.3	Control	0.6047	0.0	No	2.92	0.012	1.0	NoResponse	0	0.296	404.538	3	42	Target	Neutral	True
405.526	0.4	Control	0.6047	n/a	No	2.92	n/a	n/a	NoResponse	0	n/a	n/a	3	42	Blank	Neutral	True
405.538	0.3	Control	0.6047	0.0	No	2.92	0.012	1.0	NoResponse	0	0.296	n/a	3	42	ButtonPress	Neutral	True
405.927	1.45	Control	0.6047	n/a	No	2.92	n/a	5.0	NoResponse	0	0.009	404.936	3	42	Feedback	Neutral	True
407.382	2.92	Control	0.6047	n/a	No	2.92	n/a	n/a	NoResponse	0	0.0	n/a	3	42	ISIslide	Neutral	True
410.324	0.25	Win2	0.6136	0.0	Yes	3.176	0.024	n/a	GoodResponse	1	n/a	n/a	4	43	Cue	Win	True
410.575	4.0	Win2	0.6136	0.0	Yes	3.176	0.001	n/a	GoodResponse	1	n/a	n/a	4	43	Fixation	Win	True
414.57	0.31	Win2	0.6136	0.004	Yes	3.176	-0.004	1.0	GoodResponse	1	0.282	413.852	4	43	Target	Win	True
414.852	0.3	Win2	0.6136	0.004	Yes	3.176	-0.004	1.0	GoodResponse	1	0.282	n/a	4	43	ButtonPress	Win	True
414.887	0.39	Win2	0.6136	n/a	Yes	3.176	n/a	n/a	GoodResponse	1	n/a	n/a	4	43	Blank	Win	True
415.272	1.45	Win2	0.6136	n/a	Yes	3.176	n/a	5.0	GoodResponse	1	0.036	414.308	4	43	Feedback	Win	True
416.726	3.176	Win2	0.6136	n/a	Yes	3.176	n/a	n/a	GoodResponse	1	0.0	n/a	4	43	ISIslide	Win	True
419.919	0.25	Win2	0.6222	0.0	Yes	2.981	0.019	n/a	GoodResponse	1	n/a	n/a	5	44	Cue	Win	True
420.17	4.0	Win2	0.6222	0.0	Yes	2.981	0.001	n/a	GoodResponse	1	n/a	n/a	5	44	Fixation	Win	True
424.165	0.32	Win2	0.6222	0.004	Yes	2.981	-0.004	1.0	GoodResponse	1	0.218	423.383	5	44	Target	Win	True
424.383	0.3	Win2	0.6222	0.004	Yes	2.981	-0.004	1.0	GoodResponse	1	0.218	n/a	5	44	ButtonPress	Win	True
424.5	0.38	Win2	0.6222	n/a	Yes	2.981	n/a	n/a	GoodResponse	1	n/a	n/a	5	44	Blank	Win	True
424.867	1.45	Win2	0.6222	n/a	Yes	2.981	n/a	5.0	GoodResponse	1	0.007	423.874	5	44	Feedback	Win	True
426.322	2.981	Win2	0.6222	n/a	Yes	2.981	n/a	n/a	GoodResponse	1	0.0	n/a	5	44	ISIslide	Win	True
429.331	0.25	Control	0.6304	0.0	Yes	2.869	0.031	n/a	GoodResponse	0	n/a	n/a	5	45	Cue	Neutral	True
429.581	4.1	Control	0.6304	0.0	Yes	2.869	0.0	n/a	GoodResponse	0	n/a	n/a	5	45	Fixation	Neutral	True
433.677	0.33	Control	0.6304	0.004	Yes	2.869	-0.004	1.0	GoodResponse	0	0.205	432.882	5	45	Target	Neutral	True
433.882	0.3	Control	0.6304	0.004	Yes	2.869	-0.004	1.0	GoodResponse	0	0.205	n/a	5	45	ButtonPress	Neutral	True
434.011	0.37	Control	0.6304	n/a	Yes	2.869	n/a	n/a	GoodResponse	0	n/a	n/a	5	45	Blank	Neutral	True
434.379	1.45	Control	0.6304	n/a	Yes	2.869	n/a	5.0	GoodResponse	0	0.053	433.432	5	45	Feedback	Neutral	True
435.833	2.869	Control	0.6304	n/a	Yes	2.869	n/a	n/a	GoodResponse	0	0.0	n/a	5	45	ISIslide	Neutral	True
438.725	0.25	Lose2	0.6383	0.0	Yes	3.375	0.025	n/a	GoodResponse	0	n/a	n/a	5	46	Cue	AvoidedLoss	True
438.976	4.0	Lose2	0.6383	0.0	Yes	3.375	0.001	n/a	GoodResponse	0	n/a	n/a	5	46	Fixation	AvoidedLoss	True
442.971	0.34	Lose2	0.6383	0.004	Yes	3.375	-0.004	1.0	GoodResponse	0	0.255	442.226	5	46	Target	AvoidedLoss	True
443.226	0.3	Lose2	0.6383	0.004	Yes	3.375	-0.004	1.0	GoodResponse	0	0.255	n/a	5	46	ButtonPress	AvoidedLoss	True
443.322	0.36	Lose2	0.6383	n/a	Yes	3.375	n/a	n/a	GoodResponse	0	n/a	n/a	5	46	Blank	AvoidedLoss	True
443.673	1.45	Lose2	0.6383	n/a	Yes	3.375	n/a	5.0	GoodResponse	0	0.009	442.682	5	46	Feedback	AvoidedLoss	True
445.128	3.375	Lose2	0.6383	n/a	Yes	3.375	n/a	n/a	GoodResponse	0	0.0	n/a	5	46	ISIslide	AvoidedLoss	True
448.521	0.25	Lose2	0.6457999999999999	0.0	Yes	2.679	0.021	n/a	GoodResponse	0	n/a	n/a	5	47	Cue	AvoidedLoss	True
448.772	4.0	Lose2	0.6457999999999999	0.0	Yes	2.679	0.001	n/a	GoodResponse	0	n/a	n/a	5	47	Fixation	AvoidedLoss	True
452.767	0.35	Lose2	0.6457999999999999	0.004	Yes	2.679	-0.004	1.0	GoodResponse	0	0.22	451.987	5	47	Target	AvoidedLoss	True
452.987	0.3	Lose2	0.6457999999999999	0.004	Yes	2.679	-0.004	1.0	GoodResponse	0	0.22	n/a	5	47	ButtonPress	AvoidedLoss	True
453.118	0.35	Lose2	0.6457999999999999	n/a	Yes	2.679	n/a	n/a	GoodResponse	0	n/a	n/a	5	47	Blank	AvoidedLoss	True
453.469	1.45	Lose2	0.6457999999999999	n/a	Yes	2.679	n/a	5.0	GoodResponse	0	0.026	452.495	5	47	Feedback	AvoidedLoss	True
454.924	2.679	Lose2	0.6457999999999999	n/a	Yes	2.679	n/a	n/a	GoodResponse	0	0.0	n/a	5	47	ISIslide	AvoidedLoss	True
457.615	0.25	Lose2	0.6531	0.0	Yes	3.035	0.015	n/a	GoodResponse	0	n/a	n/a	5	48	Cue	AvoidedLoss	True
457.866	3.95	Lose2	0.6531	0.0	Yes	3.035	0.001	n/a	GoodResponse	0	n/a	n/a	5	48	Fixation	AvoidedLoss	True
461.811	0.36	Lose2	0.6531	0.004	Yes	3.035	-0.004	1.0	GoodResponse	0	0.217	461.028	5	48	Target	AvoidedLoss	True
462.028	0.3	Lose2	0.6531	0.004	Yes	3.035	-0.004	1.0	GoodResponse	0	0.217	n/a	5	48	ButtonPress	AvoidedLoss	True
462.179	0.34	Lose2	0.6531	n/a	Yes	3.035	n/a	n/a	GoodResponse	0	n/a	n/a	5	48	Blank	AvoidedLoss	True
462.513	1.45	Lose2	0.6531	n/a	Yes	3.035	n/a	5.0	GoodResponse	0	0.045	461.558	5	48	Feedback	AvoidedLoss	True
463.968	3.035	Lose2	0.6531	n/a	Yes	3.035	n/a	n/a	GoodResponse	0	0.0	n/a	5	48	ISIslide	AvoidedLoss	True
467.027	0.25	Control	0.66	0.0	Yes	2.873	0.027	n/a	GoodResponse	0	n/a	n/a	5	49	Cue	Neutral	True
467.277	4.0	Control	0.66	0.0	Yes	2.873	0.0	n/a	GoodResponse	0	n/a	n/a	5	49	Fixation	Neutral	True
471.273	0.37	Control	0.66	0.004	Yes	2.873	-0.004	1.0	GoodResponse	0	0.207	470.48	5	49	Target	Neutral	True
471.48	0.3	Control	0.66	0.004	Yes	2.873	-0.004	1.0	GoodResponse	0	0.207	n/a	5	49	ButtonPress	Neutral	True
471.657	0.33	Control	0.66	n/a	Yes	2.873	n/a	n/a	GoodResponse	0	n/a	n/a	5	49	Blank	Neutral	True
471.975	1.45	Control	0.66	n/a	Yes	2.873	n/a	5.0	GoodResponse	0	0.019	470.994	5	49	Feedback	Neutral	True
473.429	2.873	Control	0.66	n/a	Yes	2.873	n/a	n/a	GoodResponse	0	0.0	n/a	5	49	ISIslide	Neutral	True
476.321	0.25	Control	0.6667000000000001	0.0	Yes	2.779	0.021	n/a	GoodResponse	0	n/a	n/a	5	50	Cue	Neutral	True
476.572	4.0	Control	0.6667000000000001	0.0	Yes	2.779	0.001	n/a	GoodResponse	0	n/a	n/a	5	50	Fixation	Neutral	True
480.567	0.37	Control	0.6667000000000001	0.004	Yes	2.779	-0.004	1.0	GoodResponse	0	0.231	479.798	5	50	Target	Neutral	True
480.798	0.3	Control	0.6667000000000001	0.004	Yes	2.779	-0.004	1.0	GoodResponse	0	0.231	n/a	5	50	ButtonPress	Neutral	True
480.952	0.33	Control	0.6667000000000001	n/a	Yes	2.779	n/a	n/a	GoodResponse	0	n/a	n/a	5	50	Blank	Neutral	True
481.269	1.45	Control	0.6667000000000001	n/a	Yes	2.779	n/a	5.0	GoodResponse	0	0.038	480.307	5	50	Feedback	Neutral	True
482.724	2.779	Control	0.6667000000000001	n/a	Yes	2.779	n/a	n/a	GoodResponse	0	0.0	n/a	5	50	ISIslide	Neutral	True
485.515	0.25	Control	0.6731	0.0	Yes	2.735	0.015	n/a	GoodResponse	0	n/a	n/a	5	51	Cue	Neutral	True
485.766	3.95	Control	0.6731	0.0	Yes	2.735	0.001	n/a	GoodResponse	0	n/a	n/a	5	51	Fixation	Neutral	True
489.711	0.36	Control	0.6731	0.004	Yes	2.735	-0.004	1.0	GoodResponse	0	0.244	488.955	5	51	Target	Neutral	True
489.955	0.3	Control	0.6731	0.004	Yes	2.735	-0.004	1.0	GoodResponse	0	0.244	n/a	5	51	ButtonPress	Neutral	True
490.079	0.34	Control	0.6731	n/a	Yes	2.735	n/a	n/a	GoodResponse	0	n/a	n/a	5	51	Blank	Neutral	True
490.413	1.45	Control	0.6731	n/a	Yes	2.735	n/a	5.0	GoodResponse	0	0.019	489.432	5	51	Feedback	Neutral	True
491.868	2.735	Control	0.6731	n/a	Yes	2.735	n/a	n/a	GoodResponse	0	0.0	n/a	5	51	ISIslide	Neutral	True
494.626	0.25	Control	0.6792	0.0	Yes	2.624	0.026	n/a	GoodResponse	0	n/a	n/a	5	52	Cue	Neutral	True
494.877	4.05	Control	0.6792	0.0	Yes	2.624	0.001	n/a	GoodResponse	0	n/a	n/a	5	52	Fixation	Neutral	True
498.922	0.35	Control	0.6792	0.004	Yes	2.624	-0.004	1.0	GoodResponse	0	0.225	498.147	5	52	Target	Neutral	True
499.147	0.3	Control	0.6792	0.004	Yes	2.624	-0.004	1.0	GoodResponse	0	0.225	n/a	5	52	ButtonPress	Neutral	True
499.273	0.35	Control	0.6792	n/a	Yes	2.624	n/a	n/a	GoodResponse	0	n/a	n/a	5	52	Blank	Neutral	True
499.624	1.45	Control	0.6792	n/a	Yes	2.624	n/a	5.0	GoodResponse	0	0.058	498.682	5	52	Feedback	Neutral	True
501.078	2.624	Control	0.6792	n/a	Yes	2.624	n/a	n/a	GoodResponse	0	0.0	n/a	5	52	ISIslide	Neutral	True
503.72	0.25	Win2	0.6851999999999999	0.0	Yes	2.93	0.02	n/a	GoodResponse	1	n/a	n/a	6	53	Cue	Win	True
503.97	4.05	Win2	0.6851999999999999	0.001	Yes	2.93	0.0	n/a	GoodResponse	1	n/a	n/a	6	53	Fixation	Win	True
508.016	0.34	Win2	0.6851999999999999	0.004	Yes	2.93	-0.004	1.0	GoodResponse	1	0.184	507.2	6	53	Target	Win	True
508.2	0.3	Win2	0.6851999999999999	0.004	Yes	2.93	-0.004	1.0	GoodResponse	1	0.184	n/a	6	53	ButtonPress	Win	True
508.367	0.36	Win2	0.6851999999999999	n/a	Yes	2.93	n/a	n/a	GoodResponse	1	n/a	n/a	6	53	Blank	Win	True
508.718	1.45	Win2	0.6851999999999999	n/a	Yes	2.93	n/a	5.0	GoodResponse	1	0.026	507.744	6	53	Feedback	Win	True
510.172	2.93	Win2	0.6851999999999999	n/a	Yes	2.93	n/a	n/a	GoodResponse	1	0.0	n/a	6	53	ISIslide	Win	True
513.131	0.25	Win2	0.6909000000000001	0.0	Yes	2.719	0.031	n/a	GoodResponse	1	n/a	n/a	7	54	Cue	Win	True
513.382	3.95	Win2	0.6909000000000001	0.0	Yes	2.719	0.001	n/a	GoodResponse	1	n/a	n/a	7	54	Fixation	Win	True
517.327	0.33	Win2	0.6909000000000001	0.004	Yes	2.719	-0.004	1.0	GoodResponse	1	0.168	516.495	7	54	Target	Win	True
517.495	0.3	Win2	0.6909000000000001	0.004	Yes	2.719	-0.004	1.0	GoodResponse	1	0.168	n/a	7	54	ButtonPress	Win	True
517.661	0.37	Win2	0.6909000000000001	n/a	Yes	2.719	n/a	n/a	GoodResponse	1	n/a	n/a	7	54	Blank	Win	True
518.029	1.45	Win2	0.6909000000000001	n/a	Yes	2.719	n/a	5.0	GoodResponse	1	0.027	517.056	7	54	Feedback	Win	True
519.483	2.719	Win2	0.6909000000000001	n/a	Yes	2.719	n/a	n/a	GoodResponse	1	0.0	n/a	7	54	ISIslide	Win	True
522.225	0.25	Control	0.6964	0.0	Yes	3.025	0.025	n/a	GoodResponse	0	n/a	n/a	7	55	Cue	Neutral	True
522.476	3.95	Control	0.6964	0.0	Yes	3.025	0.001	n/a	GoodResponse	0	n/a	n/a	7	55	Fixation	Neutral	True
526.421	0.32	Control	0.6964	0.004	Yes	3.025	-0.004	1.0	GoodResponse	0	0.212	525.633	7	55	Target	Neutral	True
526.633	0.3	Control	0.6964	0.004	Yes	3.025	-0.004	1.0	GoodResponse	0	0.212	n/a	7	55	ButtonPress	Neutral	True
526.755	0.38	Control	0.6964	n/a	Yes	3.025	n/a	n/a	GoodResponse	0	n/a	n/a	7	55	Blank	Neutral	True
527.123	1.45	Control	0.6964	n/a	Yes	3.025	n/a	5.0	GoodResponse	0	0.058	526.181	7	55	Feedback	Neutral	True
528.577	3.025	Control	0.6964	n/a	Yes	3.025	n/a	n/a	GoodResponse	0	0.0	n/a	7	55	ISIslide	Neutral	True
531.62	0.25	Control	0.7018000000000001	0.0	Yes	2.83	0.02	n/a	GoodResponse	0	n/a	n/a	7	56	Cue	Neutral	True
531.871	3.95	Control	0.7018000000000001	0.0	Yes	2.83	0.001	n/a	GoodResponse	0	n/a	n/a	7	56	Fixation	Neutral	True
535.816	0.31	Control	0.7018000000000001	0.004	Yes	2.83	-0.004	1.0	GoodResponse	0	0.277	535.093	7	56	Target	Neutral	True
536.093	0.3	Control	0.7018000000000001	0.004	Yes	2.83	-0.004	1.0	GoodResponse	0	0.277	n/a	7	56	ButtonPress	Neutral	True
536.133	0.39	Control	0.7018000000000001	n/a	Yes	2.83	n/a	n/a	GoodResponse	0	n/a	n/a	7	56	Blank	Neutral	True
536.518	1.45	Control	0.7018000000000001	n/a	Yes	2.83	n/a	5.0	GoodResponse	0	0.038	535.556	7	56	Feedback	Neutral	True
537.972	2.83	Control	0.7018000000000001	n/a	Yes	2.83	n/a	n/a	GoodResponse	0	0.0	n/a	7	56	ISIslide	Neutral	True
540.831	0.25	Control	0.7069	0.0	Yes	3.469	0.031	n/a	GoodResponse	0	n/a	n/a	7	57	Cue	Neutral	True
541.081	4.0	Control	0.7069	0.0	Yes	3.469	0.0	n/a	GoodResponse	0	n/a	n/a	7	57	Fixation	Neutral	True
545.077	0.3	Control	0.7069	0.004	Yes	3.469	-0.004	1.0	GoodResponse	0	0.236	544.313	7	57	Target	Neutral	True
545.313	0.3	Control	0.7069	0.004	Yes	3.469	-0.004	1.0	GoodResponse	0	0.236	n/a	7	57	ButtonPress	Neutral	True
545.378	0.4	Control	0.7069	n/a	Yes	3.469	n/a	n/a	GoodResponse	0	n/a	n/a	7	57	Blank	Neutral	True
545.779	1.45	Control	0.7069	n/a	Yes	3.469	n/a	5.0	GoodResponse	0	0.028	544.807	7	57	Feedback	Neutral	True
547.233	3.469	Control	0.7069	n/a	Yes	3.469	n/a	n/a	GoodResponse	0	0.0	n/a	7	57	ISIslide	Neutral	True
550.727	0.25	Win2	0.7119	0.0	Yes	2.723	0.027	n/a	GoodResponse	1	n/a	n/a	8	58	Cue	Win	True
550.978	4.05	Win2	0.7119	0.0	Yes	2.723	0.001	n/a	GoodResponse	1	n/a	n/a	8	58	Fixation	Win	True
555.023	0.29	Win2	0.7119	0.004	Yes	2.723	-0.004	1.0	GoodResponse	1	0.253	554.276	8	58	Target	Win	True
555.276	0.3	Win2	0.7119	0.004	Yes	2.723	-0.004	1.0	GoodResponse	1	0.253	n/a	8	58	ButtonPress	Win	True
555.324	0.41	Win2	0.7119	n/a	Yes	2.723	n/a	n/a	GoodResponse	1	n/a	n/a	8	58	Blank	Win	True
555.725	1.45	Win2	0.7119	n/a	Yes	2.723	n/a	5.0	GoodResponse	1	0.018	554.743	8	58	Feedback	Win	True
557.18	2.723	Win2	0.7119	n/a	Yes	2.723	n/a	n/a	GoodResponse	1	0.0	n/a	8	58	ISIslide	Win	True
559.921	0.25	Lose2	0.7167	0.0	Yes	2.679	0.021	n/a	GoodResponse	0	n/a	n/a	8	59	Cue	AvoidedLoss	True
560.172	4.0	Lose2	0.7167	0.0	Yes	2.679	0.001	n/a	GoodResponse	0	n/a	n/a	8	59	Fixation	AvoidedLoss	True
564.167	0.28	Lose2	0.7167	0.004	Yes	2.679	-0.004	1.0	GoodResponse	0	0.215	563.382	8	59	Target	AvoidedLoss	True
564.382	0.3	Lose2	0.7167	0.004	Yes	2.679	-0.004	1.0	GoodResponse	0	0.215	n/a	8	59	ButtonPress	AvoidedLoss	True
564.451	0.42	Lose2	0.7167	n/a	Yes	2.679	n/a	n/a	GoodResponse	0	n/a	n/a	8	59	Blank	AvoidedLoss	True
564.869	1.45	Lose2	0.7167	n/a	Yes	2.679	n/a	5.0	GoodResponse	0	0.062	563.931	8	59	Feedback	AvoidedLoss	True
566.324	2.679	Lose2	0.7167	n/a	Yes	2.679	n/a	n/a	GoodResponse	0	0.0	n/a	8	59	ISIslide	AvoidedLoss	True
569.015	0.25	Control	0.7212999999999999	0.0	Yes	2.685	0.015	n/a	GoodResponse	0	n/a	n/a	8	60	Cue	Neutral	True
569.266	4.0	Control	0.7212999999999999	0.0	Yes	2.685	0.001	n/a	GoodResponse	0	n/a	n/a	8	60	Fixation	Neutral	True
573.261	0.27	Control	0.7212999999999999	0.004	Yes	2.685	-0.004	1.0	GoodResponse	0	0.208	572.469	8	60	Target	Neutral	True
573.469	0.3	Control	0.7212999999999999	0.004	Yes	2.685	-0.004	1.0	GoodResponse	0	0.208	n/a	8	60	ButtonPress	Neutral	True
573.545	0.43	Control	0.7212999999999999	n/a	Yes	2.685	n/a	n/a	GoodResponse	0	n/a	n/a	8	60	Blank	Neutral	True
573.963	1.45	Control	0.7212999999999999	n/a	Yes	2.685	n/a	5.0	GoodResponse	0	0.03	572.993	8	60	Feedback	Neutral	True
575.417	2.685	Control	0.7212999999999999	n/a	Yes	2.685	n/a	n/a	GoodResponse	0	0.0	n/a	8	60	ISIslide	Neutral	True
578.125	0.25	Lose2	0.7258	0.001	Yes	2.975	0.025	n/a	GoodResponse	0	n/a	n/a	8	61	Cue	AvoidedLoss	True
578.376	4.0	Lose2	0.7258	0.0	Yes	2.975	0.001	n/a	GoodResponse	0	n/a	n/a	8	61	Fixation	AvoidedLoss	True
582.372	0.26	Lose2	0.7258	0.003	Yes	2.975	-0.003	1.0	GoodResponse	0	0.202	581.574	8	61	Target	AvoidedLoss	True
582.574	0.3	Lose2	0.7258	0.003	Yes	2.975	-0.003	1.0	GoodResponse	0	0.202	n/a	8	61	ButtonPress	AvoidedLoss	True
582.639	0.44	Lose2	0.7258	n/a	Yes	2.975	n/a	n/a	GoodResponse	0	n/a	n/a	8	61	Blank	AvoidedLoss	True
583.074	1.45	Lose2	0.7258	n/a	Yes	2.975	n/a	5.0	GoodResponse	0	0.044	582.118	8	61	Feedback	AvoidedLoss	True
584.528	2.975	Lose2	0.7258	n/a	Yes	2.975	n/a	n/a	GoodResponse	0	0.0	n/a	8	61	ISIslide	AvoidedLoss	True
587.52	0.25	Lose2	0.7302	0.0	Yes	2.88	0.02	n/a	GoodResponse	0	n/a	n/a	8	62	Cue	AvoidedLoss	True
587.771	3.9	Lose2	0.7302	0.0	Yes	2.88	0.001	n/a	GoodResponse	0	n/a	n/a	8	62	Fixation	AvoidedLoss	True
591.666	0.25	Lose2	0.7302	0.004	Yes	2.88	-0.004	1.0	GoodResponse	0	0.206	590.872	8	62	Target	AvoidedLoss	True
591.872	0.3	Lose2	0.7302	0.004	Yes	2.88	-0.004	1.0	GoodResponse	0	0.206	n/a	8	62	ButtonPress	AvoidedLoss	True
591.917	0.45	Lose2	0.7302	n/a	Yes	2.88	n/a	n/a	GoodResponse	0	n/a	n/a	8	62	Blank	AvoidedLoss	True
592.368	1.45	Lose2	0.7302	n/a	Yes	2.88	n/a	5.0	GoodResponse	0	0.001	591.369	8	62	Feedback	AvoidedLoss	True
593.822	2.88	Lose2	0.7302	n/a	Yes	2.88	n/a	n/a	GoodResponse	0	0.0	n/a	8	62	ISIslide	AvoidedLoss	True
596.731	0.25	Lose2	0.7343999999999999	0.0	Yes	2.619	0.031	n/a	GoodResponse	0	n/a	n/a	8	63	Cue	AvoidedLoss	True
596.982	4.05	Lose2	0.7343999999999999	0.0	Yes	2.619	0.001	n/a	GoodResponse	0	n/a	n/a	8	63	Fixation	AvoidedLoss	True
601.027	0.24	Lose2	0.7343999999999999	0.004	Yes	2.619	-0.004	1.0	GoodResponse	0	0.222	600.249	8	63	Target	AvoidedLoss	True
601.249	0.3	Lose2	0.7343999999999999	0.004	Yes	2.619	-0.004	1.0	GoodResponse	0	0.222	n/a	8	63	ButtonPress	AvoidedLoss	True
601.278	0.46	Lose2	0.7343999999999999	n/a	Yes	2.619	n/a	n/a	GoodResponse	0	n/a	n/a	8	63	Blank	AvoidedLoss	True
601.729	1.45	Lose2	0.7343999999999999	n/a	Yes	2.619	n/a	5.0	GoodResponse	0	0.014	600.743	8	63	Feedback	AvoidedLoss	True
603.184	2.619	Lose2	0.7343999999999999	n/a	Yes	2.619	n/a	n/a	GoodResponse	0	0.0	n/a	8	63	ISIslide	AvoidedLoss	True
605.825	0.25	Win2	0.7384999999999999	0.0	Yes	3.125	0.025	n/a	GoodResponse	1	n/a	n/a	9	64	Cue	Win	True
606.076	4.15	Win2	0.7384999999999999	0.0	Yes	3.125	0.001	n/a	GoodResponse	1	n/a	n/a	9	64	Fixation	Win	True
610.221	0.23	Win2	0.7384999999999999	0.004	Yes	3.125	-0.004	1.0	GoodResponse	1	0.202	609.423	9	64	Target	Win	True
610.423	0.3	Win2	0.7384999999999999	0.004	Yes	3.125	-0.004	1.0	GoodResponse	1	0.202	n/a	9	64	ButtonPress	Win	True
610.455	0.47	Win2	0.7384999999999999	n/a	Yes	3.125	n/a	n/a	GoodResponse	1	n/a	n/a	9	64	Blank	Win	True
610.924	1.45	Win2	0.7384999999999999	n/a	Yes	3.125	n/a	5.0	GoodResponse	1	0.007	609.931	9	64	Feedback	Win	True
612.378	3.125	Win2	0.7384999999999999	n/a	Yes	3.125	n/a	n/a	GoodResponse	1	0.0	n/a	9	64	ISIslide	Win	True
615.521	0.25	Control	0.7424	0.0	Yes	2.779	0.021	n/a	GoodResponse	0	n/a	n/a	9	65	Cue	Neutral	True
615.771	4.0	Control	0.7424	0.0	Yes	2.779	0.0	n/a	GoodResponse	0	n/a	n/a	9	65	Fixation	Neutral	True
619.767	0.22	Control	0.7424	0.004	Yes	2.779	-0.004	1.0	GoodResponse	0	0.198	618.965	9	65	Target	Neutral	True
619.965	0.3	Control	0.7424	0.004	Yes	2.779	-0.004	1.0	GoodResponse	0	0.198	n/a	9	65	ButtonPress	Neutral	True
620.001	0.48	Control	0.7424	n/a	Yes	2.779	n/a	n/a	GoodResponse	0	n/a	n/a	9	65	Blank	Neutral	True
620.469	1.45	Control	0.7424	n/a	Yes	2.779	n/a	5.0	GoodResponse	0	0.024	619.493	9	65	Feedback	Neutral	True
621.923	2.779	Control	0.7424	n/a	Yes	2.779	n/a	n/a	GoodResponse	0	0.0	n/a	9	65	ISIslide	Neutral	True
624.732	0.25	Win2	0.7463	0.0	Yes	2.768	0.032	n/a	GoodResponse	1	n/a	n/a	10	66	Cue	Win	True
624.982	3.9	Win2	0.7463	0.0	Yes	2.768	0.0	n/a	GoodResponse	1	n/a	n/a	10	66	Fixation	Win	True
628.894	0.21	Win2	0.7463	0.0	Yes	2.768	0.012	1.0	GoodResponse	1	0.189	628.083	10	66	Target	Win	True
629.083	0.3	Win2	0.7463	0.0	Yes	2.768	0.012	1.0	GoodResponse	1	0.189	n/a	10	66	ButtonPress	Win	True
629.095	0.49	Win2	0.7463	n/a	Yes	2.768	n/a	n/a	GoodResponse	1	n/a	n/a	10	66	Blank	Win	True
629.579	1.45	Win2	0.7463	n/a	Yes	2.768	n/a	5.0	GoodResponse	1	0.039	628.618	10	66	Feedback	Win	True
631.034	2.768	Win2	0.7463	n/a	Yes	2.768	n/a	n/a	GoodResponse	1	0.0	n/a	10	66	ISIslide	Win	True
633.825	0.25	Control	0.7353000000000001	0.001	No	2.725	0.025	n/a	NoResponse	0	n/a	n/a	10	67	Cue	Neutral	True
634.076	3.95	Control	0.7353000000000001	0.0	No	2.725	0.001	1.0	NoResponse	0	3.706	636.782	10	67	Fixation	Neutral	True
637.782	0.3	Control	0.7353000000000001	0.0	No	2.725	0.001	1.0	NoResponse	0	3.706	n/a	10	67	ButtonPress	Neutral	True
638.021	0.2	Control	0.7353000000000001	0.004	No	2.725	-0.004	n/a	NoResponse	0	n/a	n/a	10	67	Target	Neutral	True
638.222	0.5	Control	0.7353000000000001	n/a	No	2.725	n/a	n/a	NoResponse	0	n/a	n/a	10	67	Blank	Neutral	True
638.723	1.45	Control	0.7353000000000001	n/a	No	2.725	n/a	5.0	NoResponse	0	0.019	637.742	10	67	Feedback	Neutral	True
640.178	2.725	Control	0.7353000000000001	n/a	No	2.725	n/a	n/a	NoResponse	0	0.0	n/a	10	67	ISIslide	Neutral	True
642.919	0.25	Win2	0.7245999999999999	0.0	No	3.081	0.019	n/a	NoResponse	0	n/a	n/a	10	68	Cue	MissedWin	True
643.17	4.0	Win2	0.7245999999999999	0.0	No	3.081	0.001	n/a	NoResponse	0	n/a	n/a	10	68	Fixation	MissedWin	True
647.165	0.19	Win2	0.7245999999999999	0.004	No	3.081	-0.004	1.0	NoResponse	0	0.251	646.416	10	68	Target	MissedWin	True
647.366	0.51	Win2	0.7245999999999999	n/a	No	3.081	n/a	n/a	NoResponse	0	n/a	n/a	10	68	Blank	MissedWin	True
647.416	0.3	Win2	0.7245999999999999	0.004	No	3.081	-0.004	1.0	NoResponse	0	0.251	n/a	10	68	ButtonPress	MissedWin	True
647.867	1.45	Win2	0.7245999999999999	n/a	No	3.081	n/a	5.0	NoResponse	0	0.063	646.93	10	68	Feedback	MissedWin	True
649.322	3.081	Win2	0.7245999999999999	n/a	No	3.081	n/a	n/a	NoResponse	0	0.0	n/a	10	68	ISIslide	MissedWin	True
652.431	0.25	Win2	0.7143	0.0	No	3.219	0.031	n/a	NoResponse	0	n/a	n/a	10	69	Cue	MissedWin	True
652.682	3.95	Win2	0.7143	0.0	No	3.219	0.001	n/a	NoResponse	0	n/a	n/a	10	69	Fixation	MissedWin	True
656.627	0.18	Win2	0.7143	0.004	No	3.219	-0.004	1.0	NoResponse	0	0.223	655.85	10	69	Target	MissedWin	True
656.811	0.52	Win2	0.7143	n/a	No	3.219	n/a	n/a	NoResponse	0	n/a	n/a	10	69	Blank	MissedWin	True
656.85	0.3	Win2	0.7143	0.004	No	3.219	-0.004	1.0	NoResponse	0	0.223	n/a	10	69	ButtonPress	MissedWin	True
657.329	1.45	Win2	0.7143	n/a	No	3.219	n/a	5.0	NoResponse	0	0.038	656.367	10	69	Feedback	MissedWin	True
658.783	3.219	Win2	0.7143	n/a	No	3.219	n/a	n/a	NoResponse	0	0.0	n/a	10	69	ISIslide	MissedWin	True
662.026	0.25	Lose2	0.7042	0.0	No	3.024	0.026	n/a	LatePress	-1	n/a	n/a	9	70	Cue	Loss	True
662.277	4.05	Lose2	0.7042	0.0	No	3.024	0.001	n/a	LatePress	-1	n/a	n/a	9	70	Fixation	Loss	True
666.323	0.17	Lose2	0.7042	0.003	No	3.024	-0.003	1.0	LatePress	-1	0.174	665.497	9	70	Target	Loss	True
666.497	0.3	Lose2	0.7042	0.003	No	3.024	-0.003	1.0	LatePress	-1	0.174	n/a	9	70	ButtonPress	Loss	True
666.506	0.53	Lose2	0.7042	n/a	No	3.024	n/a	n/a	LatePress	-1	n/a	n/a	9	70	Blank	Loss	True
667.025	1.45	Lose2	0.7042	n/a	No	3.024	n/a	5.0	LatePress	-1	0.03	666.055	9	70	Feedback	Loss	True
668.479	3.024	Lose2	0.7042	n/a	No	3.024	n/a	n/a	LatePress	-1	0.0	n/a	9	70	ISIslide	Loss	True
671.521	0.25	Win2	0.6944	0.0	No	2.729	0.021	n/a	NoResponse	0	n/a	n/a	9	71	Cue	MissedWin	True
671.772	4.05	Win2	0.6944	0.0	No	2.729	0.001	n/a	NoResponse	0	n/a	n/a	9	71	Fixation	MissedWin	True
675.818	0.16	Win2	0.6944	0.003	No	2.729	-0.003	1.0	NoResponse	0	0.174	674.992	9	71	Target	MissedWin	True
675.985	0.54	Win2	0.6944	n/a	No	2.729	n/a	n/a	NoResponse	0	n/a	n/a	9	71	Blank	MissedWin	True
675.992	0.3	Win2	0.6944	0.003	No	2.729	-0.003	1.0	NoResponse	0	0.174	n/a	9	71	ButtonPress	MissedWin	True
676.52	1.45	Win2	0.6944	n/a	No	2.729	n/a	5.0	NoResponse	0	0.035	675.555	9	71	Feedback	MissedWin	True
677.974	2.729	Win2	0.6944	n/a	No	2.729	n/a	n/a	NoResponse	0	0.0	n/a	9	71	ISIslide	MissedWin	True
680.716	0.25	Win2	0.6849	0.0	No	2.784	0.016	n/a	NoResponse	0	n/a	n/a	9	72	Cue	MissedWin	True
680.966	4.1	Win2	0.6849	0.0	No	2.784	0.0	n/a	NoResponse	0	n/a	n/a	9	72	Fixation	MissedWin	True
685.062	0.15	Win2	0.6849	0.004	No	2.784	-0.004	1.0	NoResponse	0	0.178	684.24	9	72	Target	MissedWin	True
685.212	0.55	Win2	0.6849	n/a	No	2.784	n/a	n/a	NoResponse	0	n/a	n/a	9	72	Blank	MissedWin	True
685.24	0.3	Win2	0.6849	0.004	No	2.784	-0.004	1.0	NoResponse	0	0.178	n/a	9	72	ButtonPress	MissedWin	True
685.764	1.45	Win2	0.6849	n/a	No	2.784	n/a	5.0	NoResponse	0	0.04	684.804	9	72	Feedback	MissedWin	True
687.218	2.784	Win2	0.6849	n/a	No	2.784	n/a	n/a	NoResponse	0	0.0	n/a	9	72	ISIslide	MissedWin	True
690.027	0.25	Win2	0.6892	0.0	Yes	2.673	0.027	n/a	GoodResponse	1	n/a	n/a	10	73	Cue	Win	True
690.277	4.0	Win2	0.6892	0.001	Yes	2.673	0.0	n/a	GoodResponse	1	n/a	n/a	10	73	Fixation	Win	True
694.273	0.15	Win2	0.6892	0.004	Yes	2.673	-0.004	1.0	GoodResponse	1	0.13	693.403	10	73	Target	Win	True
694.403	0.3	Win2	0.6892	0.004	Yes	2.673	-0.004	1.0	GoodResponse	1	0.13	n/a	10	73	ButtonPress	Win	True
694.423	0.55	Win2	0.6892	n/a	Yes	2.673	n/a	n/a	GoodResponse	1	n/a	n/a	10	73	Blank	Win	True
694.975	1.45	Win2	0.6892	n/a	Yes	2.673	n/a	5.0	GoodResponse	1	0.017	693.992	10	73	Feedback	Win	True
696.429	2.673	Win2	0.6892	n/a	Yes	2.673	n/a	n/a	GoodResponse	1	0.0	n/a	10	73	ISIslide	Win	True
699.121	0.25	Lose2	0.68	0.0	No	2.629	0.021	n/a	NoResponse	-1	n/a	n/a	9	74	Cue	Loss	True
699.371	4.05	Lose2	0.68	0.0	No	2.629	0.0	1.0	NoResponse	-1	3.814	702.185	9	74	Fixation	Loss	True
703.185	0.3	Lose2	0.68	0.0	No	2.629	0.0	1.0	NoResponse	-1	3.814	n/a	9	74	ButtonPress	Loss	True
703.417	0.15	Lose2	0.68	0.004	No	2.629	-0.004	n/a	NoResponse	-1	n/a	n/a	9	74	Target	Loss	True
703.567	0.55	Lose2	0.68	n/a	No	2.629	n/a	n/a	NoResponse	-1	n/a	n/a	9	74	Blank	Loss	True
704.119	1.45	Lose2	0.68	n/a	No	2.629	n/a	5.0	NoResponse	-1	0.06	703.179	9	74	Feedback	Loss	True
705.573	2.629	Lose2	0.68	n/a	No	2.629	n/a	n/a	NoResponse	-1	0.0	n/a	9	74	ISIslide	Loss	True
708.231	0.25	Lose2	0.6711	0.0	No	2.919	0.031	n/a	NoResponse	-1	n/a	n/a	8	75	Cue	Loss	True
708.482	3.95	Lose2	0.6711	0.0	No	2.919	0.001	n/a	NoResponse	-1	n/a	n/a	8	75	Fixation	Loss	True
712.427	0.15	Lose2	0.6711	0.004	No	2.919	-0.004	1.0	NoResponse	-1	0.285	711.712	8	75	Target	Loss	True
712.577	0.55	Lose2	0.6711	n/a	No	2.919	n/a	n/a	NoResponse	-1	n/a	n/a	8	75	Blank	Loss	True
712.712	0.3	Lose2	0.6711	0.004	No	2.919	-0.004	1.0	NoResponse	-1	0.285	n/a	8	75	ButtonPress	Loss	True
713.129	1.45	Lose2	0.6711	n/a	No	2.919	n/a	5.0	NoResponse	-1	0.05	712.179	8	75	Feedback	Loss	True
714.583	2.919	Lose2	0.6711	n/a	No	2.919	n/a	n/a	NoResponse	-1	0.0	n/a	8	75	ISIslide	Loss	True
717.526	0.25	Control	0.6623	0.0	No	3.224	0.026	n/a	NoResponse	0	n/a	n/a	8	76	Cue	Neutral	True
717.776	4.05	Control	0.6623	0.0	No	3.224	0.0	n/a	NoResponse	0	n/a	n/a	8	76	Fixation	Neutral	True
721.822	0.15	Control	0.6623	0.004	No	3.224	-0.004	1.0	NoResponse	0	0.171	720.993	8	76	Target	Neutral	True
721.972	0.55	Control	0.6623	n/a	No	3.224	n/a	n/a	NoResponse	0	n/a	n/a	8	76	Blank	Neutral	True
721.993	0.3	Control	0.6623	0.004	No	3.224	-0.004	1.0	NoResponse	0	0.171	n/a	8	76	ButtonPress	Neutral	True
722.524	1.45	Control	0.6623	n/a	No	3.224	n/a	5.0	NoResponse	0	0.029	721.553	8	76	Feedback	Neutral	True
723.978	3.224	Control	0.6623	n/a	No	3.224	n/a	n/a	NoResponse	0	0.0	n/a	8	76	ISIslide	Neutral	True
727.221	0.25	Lose2	0.6537999999999999	0.0	No	2.579	0.021	n/a	NoResponse	-1	n/a	n/a	7	77	Cue	Loss	True
727.472	3.95	Lose2	0.6537999999999999	0.0	No	2.579	0.001	n/a	NoResponse	-1	n/a	n/a	7	77	Fixation	Loss	True
731.417	0.15	Lose2	0.6537999999999999	0.004	No	2.579	-0.004	1.0	NoResponse	-1	0.237	730.654	7	77	Target	Loss	True
731.568	0.55	Lose2	0.6537999999999999	n/a	No	2.579	n/a	n/a	NoResponse	-1	n/a	n/a	7	77	Blank	Loss	True
731.654	0.3	Lose2	0.6537999999999999	0.004	No	2.579	-0.004	1.0	NoResponse	-1	0.237	n/a	7	77	ButtonPress	Loss	True
732.119	1.45	Lose2	0.6537999999999999	n/a	No	2.579	n/a	5.0	NoResponse	-1	0.06	731.179	7	77	Feedback	Loss	True
733.574	2.579	Lose2	0.6537999999999999	n/a	No	2.579	n/a	n/a	NoResponse	-1	0.0	n/a	7	77	ISIslide	Loss	True
