onset	duration	cue_type	current_mean_accuracy	duration_error	is_hit	isi_adjusted	onset_delay	response	response_type	reward	rt	rt_time	total_reward	trial_number	trial_phase	trial_type	one_press
11.107	0.25	Control	1.0	0.001	Yes	2.943	0.007	n/a	GoodResponse	0	n/a	n/a	0	0	Cue	Neutral	False
11.357	3.85	Control	1.0	0.0	Yes	2.943	0.0	4.0	GoodResponse	0	0.569	10.926	0	0	Fixation	Neutral	False
11.926	0.3	Control	1.0	0.0	Yes	2.943	0.0	4.0	GoodResponse	0	0.569	n/a	0	0	ButtonPress	Neutral	False
15.206	0.4	Control	1.0	0.001	Yes	2.943	-0.001	4.0	GoodResponse	0	0.347	14.553	0	0	Target	Neutral	False
15.553	0.3	Control	1.0	0.001	Yes	2.943	-0.001	4.0	GoodResponse	0	0.347	n/a	0	0	ButtonPress	Neutral	False
15.606	0.3	Control	1.0	n/a	Yes	2.943	n/a	n/a	GoodResponse	0	n/a	n/a	0	0	Blank	Neutral	False
15.906	1.45	Control	1.0	n/a	Yes	2.943	n/a	5.0	GoodResponse	0	0.023	14.929	0	0	Feedback	Neutral	False
17.355	2.943	Control	1.0	n/a	Yes	2.943	n/a	n/a	GoodResponse	0	0.0	n/a	0	0	ISIslide	Neutral	False
20.388	0.25	Lose2	1.0	0.0	Yes	2.712	0.088	n/a	GoodResponse	0	n/a	n/a	0	1	Cue	AvoidedLoss	True
20.638	4.0	Lose2	1.0	0.0	Yes	2.712	0.0	n/a	GoodResponse	0	n/a	n/a	0	1	Fixation	AvoidedLoss	True
24.636	0.39	Lose2	1.0	0.002	Yes	2.712	-0.002	4.0	GoodResponse	0	0.389	24.025	0	1	Target	AvoidedLoss	True
25.025	0.3	Lose2	1.0	0.002	Yes	2.712	-0.002	4.0	GoodResponse	0	0.389	n/a	0	1	ButtonPress	AvoidedLoss	True
25.036	0.31	Lose2	1.0	n/a	Yes	2.712	n/a	n/a	GoodResponse	0	n/a	n/a	0	1	Blank	AvoidedLoss	True
25.336	1.45	Lose2	1.0	n/a	Yes	2.712	n/a	5.0	GoodResponse	0	0.008	24.344	0	1	Feedback	AvoidedLoss	True
26.785	2.712	Lose2	1.0	n/a	Yes	2.712	n/a	n/a	GoodResponse	0	0.0	n/a	0	1	ISIslide	AvoidedLoss	True
29.518	0.25	Control	1.0	0.0	Yes	2.582	0.018	n/a	GoodResponse	0	n/a	n/a	0	2	Cue	Neutral	True
29.768	4.1	Control	1.0	0.0	Yes	2.582	0.0	n/a	GoodResponse	0	n/a	n/a	0	2	Fixation	Neutral	True
33.866	0.38	Control	1.0	0.002	Yes	2.582	-0.002	4.0	GoodResponse	0	0.265	33.131	0	2	Target	Neutral	True
34.131	0.3	Control	1.0	0.002	Yes	2.582	-0.002	4.0	GoodResponse	0	0.265	n/a	0	2	ButtonPress	Neutral	True
34.249	0.32	Control	1.0	n/a	Yes	2.582	n/a	n/a	GoodResponse	0	n/a	n/a	0	2	Blank	Neutral	True
34.566	1.45	Control	1.0	n/a	Yes	2.582	n/a	5.0	GoodResponse	0	0.046	33.612	0	2	Feedback	Neutral	True
36.015	2.582	Control	1.0	n/a	Yes	2.582	n/a	n/a	GoodResponse	0	0.0	n/a	0	2	ISIslide	Neutral	True
38.681	0.25	Win2	1.0	0.0	Yes	2.769	0.081	n/a	GoodResponse	1	n/a	n/a	1	3	Cue	Win	True
38.931	3.95	Win2	1.0	0.0	Yes	2.769	0.0	n/a	GoodResponse	1	n/a	n/a	1	3	Fixation	Win	True
42.88	0.37	Win2	1.0	0.001	Yes	2.769	-0.001	4.0	GoodResponse	1	0.308	42.188	1	3	Target	Win	True
43.188	0.3	Win2	1.0	0.001	Yes	2.769	-0.001	4.0	GoodResponse	1	0.308	n/a	1	3	ButtonPress	Win	True
43.263	0.33	Win2	1.0	n/a	Yes	2.769	n/a	n/a	GoodResponse	1	n/a	n/a	1	3	Blank	Win	True
43.579	1.45	Win2	1.0	n/a	Yes	2.769	n/a	5.0	GoodResponse	1	0.009	42.588	1	3	Feedback	Win	True
45.029	2.769	Win2	1.0	n/a	Yes	2.769	n/a	n/a	GoodResponse	1	0.0	n/a	1	3	ISIslide	Win	True
47.828	0.25	Win2	1.0	0.0	Yes	3.272	0.028	n/a	GoodResponse	1	n/a	n/a	2	4	Cue	Win	True
48.078	4.0	Win2	1.0	0.0	Yes	3.272	0.0	n/a	GoodResponse	1	n/a	n/a	2	4	Fixation	Win	True
52.077	0.36	Win2	1.0	0.001	Yes	3.272	-0.001	4.0	GoodResponse	1	0.255	51.332	2	4	Target	Win	True
52.332	0.3	Win2	1.0	0.001	Yes	3.272	-0.001	4.0	GoodResponse	1	0.255	n/a	2	4	ButtonPress	Win	True
52.443	0.34	Win2	1.0	n/a	Yes	3.272	n/a	n/a	GoodResponse	1	n/a	n/a	2	4	Blank	Win	True
52.776	1.45	Win2	1.0	n/a	Yes	3.272	n/a	5.0	GoodResponse	1	0.031	51.807	2	4	Feedback	Win	True
54.226	3.272	Win2	1.0	n/a	Yes	3.272	n/a	n/a	GoodResponse	1	0.0	n/a	2	4	ISIslide	Win	True
57.525	0.25	Win2	0.8332999999999999	0.0	No	2.775	0.025	n/a	LatePress	0	n/a	n/a	2	5	Cue	MissedWin	True
57.775	4.0	Win2	0.8332999999999999	0.0	No	2.775	0.0	n/a	LatePress	0	n/a	n/a	2	5	Fixation	MissedWin	True
61.773	0.35	Win2	0.8332999999999999	0.002	No	2.775	-0.002	4.0	LatePress	0	0.35	61.123	2	5	Target	MissedWin	True
62.123	0.35	Win2	0.8332999999999999	n/a	No	2.775	n/a	n/a	LatePress	0	n/a	n/a	2	5	Blank	MissedWin	True
62.123	0.3	Win2	0.8332999999999999	0.002	No	2.775	-0.002	4.0	LatePress	0	0.35	n/a	2	5	ButtonPress	MissedWin	True
62.473	1.45	Win2	0.8332999999999999	n/a	No	2.775	n/a	5.0	LatePress	0	0.041	61.514	2	5	Feedback	MissedWin	True
63.922	2.775	Win2	0.8332999999999999	n/a	No	2.775	n/a	n/a	LatePress	0	0.0	n/a	2	5	ISIslide	MissedWin	True
66.721	0.25	Lose2	0.8571	0.0	Yes	2.729	0.021	n/a	GoodResponse	0	n/a	n/a	2	6	Cue	AvoidedLoss	True
66.971	3.95	Lose2	0.8571	0.0	Yes	2.729	0.0	n/a	GoodResponse	0	n/a	n/a	2	6	Fixation	AvoidedLoss	True
70.92	0.34	Lose2	0.8571	0.001	Yes	2.729	-0.001	4.0	GoodResponse	0	0.25	70.17	2	6	Target	AvoidedLoss	True
71.17	0.3	Lose2	0.8571	0.001	Yes	2.729	-0.001	4.0	GoodResponse	0	0.25	n/a	2	6	ButtonPress	AvoidedLoss	True
71.27	0.36	Lose2	0.8571	n/a	Yes	2.729	n/a	n/a	GoodResponse	0	n/a	n/a	2	6	Blank	AvoidedLoss	True
71.62	1.45	Lose2	0.8571	n/a	Yes	2.729	n/a	5.0	GoodResponse	0	0.016	70.636	2	6	Feedback	AvoidedLoss	True
73.069	2.729	Lose2	0.8571	n/a	Yes	2.729	n/a	n/a	GoodResponse	0	0.0	n/a	2	6	ISIslide	AvoidedLoss	True
75.818	0.25	Lose2	0.875	0.0	Yes	4.032	0.018	n/a	GoodResponse	0	n/a	n/a	2	7	Cue	AvoidedLoss	True
76.068	4.05	Lose2	0.875	0.0	Yes	4.032	0.0	n/a	GoodResponse	0	n/a	n/a	2	7	Fixation	AvoidedLoss	True
80.117	0.33	Lose2	0.875	0.001	Yes	4.032	-0.001	4.0	GoodResponse	0	0.255	79.372	2	7	Target	AvoidedLoss	True
80.372	0.3	Lose2	0.875	0.001	Yes	4.032	-0.001	4.0	GoodResponse	0	0.255	n/a	2	7	ButtonPress	AvoidedLoss	True
80.45	0.37	Lose2	0.875	n/a	Yes	4.032	n/a	n/a	GoodResponse	0	n/a	n/a	2	7	Blank	AvoidedLoss	True
80.816	1.45	Lose2	0.875	n/a	Yes	4.032	n/a	5.0	GoodResponse	0	0.04	79.856	2	7	Feedback	AvoidedLoss	True
82.266	4.032	Lose2	0.875	n/a	Yes	4.032	n/a	n/a	GoodResponse	0	0.0	n/a	2	7	ISIslide	AvoidedLoss	True
86.315	0.25	Lose2	0.7778	0.0	No	3.035	0.015	n/a	NoResponse	-1	n/a	n/a	1	8	Cue	Loss	True
86.564	3.95	Lose2	0.7778	0.001	No	3.035	-0.001	n/a	NoResponse	-1	n/a	n/a	1	8	Fixation	Loss	True
90.513	0.32	Lose2	0.7778	0.002	No	3.035	-0.002	4.0	NoResponse	-1	0.354	89.867	1	8	Target	Loss	True
90.846	0.38	Lose2	0.7778	n/a	No	3.035	n/a	n/a	NoResponse	-1	n/a	n/a	1	8	Blank	Loss	True
90.867	0.3	Lose2	0.7778	0.002	No	3.035	-0.002	4.0	NoResponse	-1	0.354	n/a	1	8	ButtonPress	Loss	True
91.213	1.45	Lose2	0.7778	n/a	No	3.035	n/a	5.0	NoResponse	-1	0.033	90.246	1	8	Feedback	Loss	True
92.662	3.035	Lose2	0.7778	n/a	No	3.035	n/a	n/a	NoResponse	-1	0.0	n/a	1	8	ISIslide	Loss	True
95.728	0.25	Lose2	0.8	0.0	Yes	3.122	0.028	n/a	GoodResponse	0	n/a	n/a	1	9	Cue	AvoidedLoss	True
95.978	3.95	Lose2	0.8	0.0	Yes	3.122	0.0	n/a	GoodResponse	0	n/a	n/a	1	9	Fixation	AvoidedLoss	True
99.926	0.31	Lose2	0.8	0.002	Yes	3.122	-0.002	4.0	GoodResponse	0	0.275	99.201	1	9	Target	AvoidedLoss	True
100.201	0.3	Lose2	0.8	0.002	Yes	3.122	-0.002	4.0	GoodResponse	0	0.275	n/a	1	9	ButtonPress	AvoidedLoss	True
100.243	0.39	Lose2	0.8	n/a	Yes	3.122	n/a	n/a	GoodResponse	0	n/a	n/a	1	9	Blank	AvoidedLoss	True
100.626	1.45	Lose2	0.8	n/a	Yes	3.122	n/a	5.0	GoodResponse	0	0.035	99.661	1	9	Feedback	AvoidedLoss	True
102.076	3.122	Lose2	0.8	n/a	Yes	3.122	n/a	n/a	GoodResponse	0	0.0	n/a	1	9	ISIslide	AvoidedLoss	True
105.225	0.25	Control	0.8181999999999999	0.0	Yes	3.275	0.025	n/a	GoodResponse	0	n/a	n/a	1	10	Cue	Neutral	True
105.475	4.0	Control	0.8181999999999999	0.0	Yes	3.275	0.0	n/a	GoodResponse	0	n/a	n/a	1	10	Fixation	Neutral	True
109.473	0.3	Control	0.8181999999999999	0.002	Yes	3.275	-0.002	4.0	GoodResponse	0	0.268	108.741	1	10	Target	Neutral	True
109.741	0.3	Control	0.8181999999999999	0.002	Yes	3.275	-0.002	4.0	GoodResponse	0	0.268	n/a	1	10	ButtonPress	Neutral	True
109.773	0.4	Control	0.8181999999999999	n/a	Yes	3.275	n/a	n/a	GoodResponse	0	n/a	n/a	1	10	Blank	Neutral	True
110.173	1.45	Control	0.8181999999999999	n/a	Yes	3.275	n/a	5.0	GoodResponse	0	0.048	109.221	1	10	Feedback	Neutral	True
111.622	3.275	Control	0.8181999999999999	n/a	Yes	3.275	n/a	n/a	GoodResponse	0	0.0	n/a	1	10	ISIslide	Neutral	True
114.921	0.25	Lose2	0.75	0.0	No	2.729	0.021	n/a	LatePress	-1	n/a	n/a	0	11	Cue	Loss	True
115.171	4.05	Lose2	0.75	0.0	No	2.729	0.0	n/a	LatePress	-1	n/a	n/a	0	11	Fixation	Loss	True
119.22	0.29	Lose2	0.75	0.001	No	2.729	-0.001	4.0	LatePress	-1	0.298	118.518	0	11	Target	Loss	True
119.518	0.3	Lose2	0.75	0.001	No	2.729	-0.001	4.0	LatePress	-1	0.298	n/a	0	11	ButtonPress	Loss	True
119.52	0.41	Lose2	0.75	n/a	No	2.729	n/a	n/a	LatePress	-1	n/a	n/a	0	11	Blank	Loss	True
119.92	1.45	Lose2	0.75	n/a	No	2.729	n/a	5.0	LatePress	-1	0.008	118.928	0	11	Feedback	Loss	True
121.369	2.729	Lose2	0.75	n/a	No	2.729	n/a	n/a	LatePress	-1	0.0	n/a	0	11	ISIslide	Loss	True
124.118	0.25	Control	0.7692	0.0	Yes	2.982	0.018	n/a	GoodResponse	0	n/a	n/a	0	12	Cue	Neutral	True
124.368	3.9	Control	0.7692	0.0	Yes	2.982	0.0	n/a	GoodResponse	0	n/a	n/a	0	12	Fixation	Neutral	True
128.267	0.28	Control	0.7692	0.001	Yes	2.982	-0.001	4.0	GoodResponse	0	0.234	127.501	0	12	Target	Neutral	True
128.501	0.3	Control	0.7692	0.001	Yes	2.982	-0.001	4.0	GoodResponse	0	0.234	n/a	0	12	ButtonPress	Neutral	True
128.55	0.42	Control	0.7692	n/a	Yes	2.982	n/a	n/a	GoodResponse	0	n/a	n/a	0	12	Blank	Neutral	True
128.966	1.45	Control	0.7692	n/a	Yes	2.982	n/a	5.0	GoodResponse	0	0.036	128.002	0	12	Feedback	Neutral	True
130.416	2.982	Control	0.7692	n/a	Yes	2.982	n/a	n/a	GoodResponse	0	0.0	n/a	0	12	ISIslide	Neutral	True
133.415	0.25	Control	0.7857	0.0	Yes	2.785	0.015	n/a	GoodResponse	0	n/a	n/a	0	13	Cue	Neutral	True
133.665	4.0	Control	0.7857	0.0	Yes	2.785	0.0	n/a	GoodResponse	0	n/a	n/a	0	13	Fixation	Neutral	True
137.663	0.27	Control	0.7857	0.002	Yes	2.785	-0.002	4.0	GoodResponse	0	0.25	136.913	0	13	Target	Neutral	True
137.913	0.3	Control	0.7857	0.002	Yes	2.785	-0.002	4.0	GoodResponse	0	0.25	n/a	0	13	ButtonPress	Neutral	True
137.947	0.43	Control	0.7857	n/a	Yes	2.785	n/a	n/a	GoodResponse	0	n/a	n/a	0	13	Blank	Neutral	True
138.363	1.45	Control	0.7857	n/a	Yes	2.785	n/a	5.0	GoodResponse	0	0.008	137.371	0	13	Feedback	Neutral	True
139.813	2.785	Control	0.7857	n/a	Yes	2.785	n/a	n/a	GoodResponse	0	0.0	n/a	0	13	ISIslide	Neutral	True
142.628	0.25	Win2	0.8	0.0	Yes	2.672	0.028	n/a	GoodResponse	1	n/a	n/a	1	14	Cue	Win	True
142.878	4.1	Win2	0.8	0.0	Yes	2.672	0.0	n/a	GoodResponse	1	n/a	n/a	1	14	Fixation	Win	True
146.977	0.26	Win2	0.8	0.001	Yes	2.672	-0.001	4.0	GoodResponse	1	0.221	146.198	1	14	Target	Win	True
147.198	0.3	Win2	0.8	0.001	Yes	2.672	-0.001	4.0	GoodResponse	1	0.221	n/a	1	14	ButtonPress	Win	True
147.243	0.44	Win2	0.8	n/a	Yes	2.672	n/a	n/a	GoodResponse	1	n/a	n/a	1	14	Blank	Win	True
147.676	1.45	Win2	0.8	n/a	Yes	2.672	n/a	5.0	GoodResponse	1	0.009	146.685	1	14	Feedback	Win	True
149.126	2.672	Win2	0.8	n/a	Yes	2.672	n/a	n/a	GoodResponse	1	0.0	n/a	1	14	ISIslide	Win	True
151.825	0.25	Control	0.8125	0.0	Yes	2.975	0.025	n/a	GoodResponse	0	n/a	n/a	1	15	Cue	Neutral	True
152.075	4.0	Control	0.8125	0.0	Yes	2.975	0.0	n/a	GoodResponse	0	n/a	n/a	1	15	Fixation	Neutral	True
156.074	0.25	Control	0.8125	0.001	Yes	2.975	-0.001	4.0	GoodResponse	0	0.239	155.313	1	15	Target	Neutral	True
156.313	0.3	Control	0.8125	0.001	Yes	2.975	-0.001	4.0	GoodResponse	0	0.239	n/a	1	15	ButtonPress	Neutral	True
156.323	0.45	Control	0.8125	n/a	Yes	2.975	n/a	n/a	GoodResponse	0	n/a	n/a	1	15	Blank	Neutral	True
156.773	1.45	Control	0.8125	n/a	Yes	2.975	n/a	5.0	GoodResponse	0	0.034	155.807	1	15	Feedback	Neutral	True
158.223	2.975	Control	0.8125	n/a	Yes	2.975	n/a	n/a	GoodResponse	0	0.0	n/a	1	15	ISIslide	Neutral	True
161.222	0.25	Win2	0.7646999999999999	0.0	No	2.878	0.022	n/a	NoResponse	0	n/a	n/a	1	16	Cue	MissedWin	True
161.472	4.0	Win2	0.7646999999999999	0.0	No	2.878	0.0	n/a	NoResponse	0	n/a	n/a	1	16	Fixation	MissedWin	True
165.47	0.24	Win2	0.7646999999999999	0.002	No	2.878	-0.002	4.0	NoResponse	0	0.27	164.74	1	16	Target	MissedWin	True
165.72	0.46	Win2	0.7646999999999999	n/a	No	2.878	n/a	n/a	NoResponse	0	n/a	n/a	1	16	Blank	MissedWin	True
165.74	0.3	Win2	0.7646999999999999	0.002	No	2.878	-0.002	4.0	NoResponse	0	0.27	n/a	1	16	ButtonPress	MissedWin	True
166.17	1.45	Win2	0.7646999999999999	n/a	No	2.878	n/a	5.0	NoResponse	0	0.008	165.178	1	16	Feedback	MissedWin	True
167.62	2.878	Win2	0.7646999999999999	n/a	No	2.878	n/a	n/a	NoResponse	0	0.0	n/a	1	16	ISIslide	MissedWin	True
170.519	0.25	Lose2	0.7222	0.0	No	2.731	0.019	n/a	NoResponse	-1	n/a	n/a	0	17	Cue	Loss	True
170.768	3.95	Lose2	0.7222	0.001	No	2.731	-0.001	n/a	NoResponse	-1	n/a	n/a	0	17	Fixation	Loss	True
174.717	0.23	Lose2	0.7222	0.002	No	2.731	-0.002	4.0	NoResponse	-1	0.241	173.958	0	17	Target	Loss	True
174.95	0.47	Lose2	0.7222	n/a	No	2.731	n/a	n/a	NoResponse	-1	n/a	n/a	0	17	Blank	Loss	True
174.958	0.3	Lose2	0.7222	0.002	No	2.731	-0.002	4.0	NoResponse	-1	0.241	n/a	0	17	ButtonPress	Loss	True
175.417	1.45	Lose2	0.7222	n/a	No	2.731	n/a	5.0	NoResponse	-1	0.023	174.44	0	17	Feedback	Loss	True
176.866	2.731	Lose2	0.7222	n/a	No	2.731	n/a	n/a	NoResponse	-1	0.0	n/a	0	17	ISIslide	Loss	True
179.615	0.25	Lose2	0.6842	0.0	No	2.735	0.015	n/a	NoResponse	-1	n/a	n/a	-1	18	Cue	Loss	True
179.865	4.05	Lose2	0.6842	0.0	No	2.735	0.0	n/a	NoResponse	-1	n/a	n/a	-1	18	Fixation	Loss	True
183.914	0.22	Lose2	0.6842	0.001	No	2.735	-0.001	4.0	NoResponse	-1	0.249	183.163	-1	18	Target	Loss	True
184.13	0.48	Lose2	0.6842	n/a	No	2.735	n/a	n/a	NoResponse	-1	n/a	n/a	-1	18	Blank	Loss	True
184.163	0.3	Lose2	0.6842	0.001	No	2.735	-0.001	4.0	NoResponse	-1	0.249	n/a	-1	18	ButtonPress	Loss	True
184.614	1.45	Lose2	0.6842	n/a	No	2.735	n/a	5.0	NoResponse	-1	0.046	183.66	-1	18	Feedback	Loss	True
186.063	2.735	Lose2	0.6842	n/a	No	2.735	n/a	n/a	NoResponse	-1	0.0	n/a	-1	18	ISIslide	Loss	True
188.829	0.25	Control	0.65	0.0	No	2.921	0.029	n/a	NoResponse	0	n/a	n/a	-1	19	Cue	Neutral	True
189.079	3.95	Control	0.65	0.0	No	2.921	0.0	n/a	NoResponse	0	n/a	n/a	-1	19	Fixation	Neutral	True
193.027	0.21	Control	0.65	0.002	No	2.921	-0.002	4.0	NoResponse	0	0.231	192.258	-1	19	Target	Neutral	True
193.244	0.49	Control	0.65	n/a	No	2.921	n/a	n/a	NoResponse	0	n/a	n/a	-1	19	Blank	Neutral	True
193.258	0.3	Control	0.65	0.002	No	2.921	-0.002	4.0	NoResponse	0	0.231	n/a	-1	19	ButtonPress	Neutral	True
193.727	1.45	Control	0.65	n/a	No	2.921	n/a	5.0	NoResponse	0	0.008	192.735	-1	19	Feedback	Neutral	True
195.177	2.921	Control	0.65	n/a	No	2.921	n/a	n/a	NoResponse	0	0.0	n/a	-1	19	ISIslide	Neutral	True
198.126	0.25	Control	0.6667000000000001	0.0	Yes	2.624	0.026	n/a	GoodResponse	0	n/a	n/a	-1	20	Cue	Neutral	True
198.375	4.05	Control	0.6667000000000001	0.001	Yes	2.624	-0.001	n/a	GoodResponse	0	n/a	n/a	-1	20	Fixation	Neutral	True
202.424	0.22	Control	0.6667000000000001	0.002	Yes	2.624	-0.002	4.0	GoodResponse	0	0.198	201.622	-1	20	Target	Neutral	True
202.622	0.3	Control	0.6667000000000001	0.002	Yes	2.624	-0.002	4.0	GoodResponse	0	0.198	n/a	-1	20	ButtonPress	Neutral	True
202.657	0.48	Control	0.6667000000000001	n/a	Yes	2.624	n/a	n/a	GoodResponse	0	n/a	n/a	-1	20	Blank	Neutral	True
203.124	1.45	Control	0.6667000000000001	n/a	Yes	2.624	n/a	5.0	GoodResponse	0	0.024	202.148	-1	20	Feedback	Neutral	True
204.573	2.624	Control	0.6667000000000001	n/a	Yes	2.624	n/a	n/a	GoodResponse	0	0.0	n/a	-1	20	ISIslide	Neutral	True
207.222	0.25	Control	0.6364	0.0	No	2.778	0.022	n/a	NoResponse	0	n/a	n/a	-1	21	Cue	Neutral	True
207.472	4.1	Control	0.6364	0.0	No	2.778	0.0	n/a	NoResponse	0	n/a	n/a	-1	21	Fixation	Neutral	True
211.571	0.21	Control	0.6364	0.001	No	2.778	-0.001	4.0	NoResponse	0	0.254	210.825	-1	21	Target	Neutral	True
211.787	0.49	Control	0.6364	n/a	No	2.778	n/a	n/a	NoResponse	0	n/a	n/a	-1	21	Blank	Neutral	True
211.825	0.3	Control	0.6364	0.001	No	2.778	-0.001	4.0	NoResponse	0	0.254	n/a	-1	21	ButtonPress	Neutral	True
212.271	1.45	Control	0.6364	n/a	No	2.778	n/a	5.0	NoResponse	0	0.047	211.318	-1	21	Feedback	Neutral	True
213.72	2.778	Control	0.6364	n/a	No	2.778	n/a	n/a	NoResponse	0	0.0	n/a	-1	21	ISIslide	Neutral	True
216.519	0.25	Control	0.6087	0.0	No	2.781	0.019	n/a	NoResponse	0	n/a	n/a	-1	22	Cue	Neutral	True
216.769	4.0	Control	0.6087	0.0	No	2.781	0.0	n/a	NoResponse	0	n/a	n/a	-1	22	Fixation	Neutral	True
220.768	0.22	Control	0.6087	0.001	No	2.781	-0.001	4.0	NoResponse	0	0.254	220.022	-1	22	Target	Neutral	True
221.001	0.48	Control	0.6087	n/a	No	2.781	n/a	n/a	NoResponse	0	n/a	n/a	-1	22	Blank	Neutral	True
221.022	0.3	Control	0.6087	0.001	No	2.781	-0.001	4.0	NoResponse	0	0.254	n/a	-1	22	ButtonPress	Neutral	True
221.467	1.45	Control	0.6087	n/a	No	2.781	n/a	5.0	NoResponse	0	0.022	220.489	-1	22	Feedback	Neutral	True
222.917	2.781	Control	0.6087	n/a	No	2.781	n/a	n/a	NoResponse	0	0.0	n/a	-1	22	ISIslide	Neutral	True
225.716	0.25	Control	0.5832999999999999	0.0	No	2.784	0.016	n/a	NoResponse	0	n/a	n/a	-1	23	Cue	Neutral	True
225.966	3.9	Control	0.5832999999999999	0.0	No	2.784	0.0	n/a	NoResponse	0	n/a	n/a	-1	23	Fixation	Neutral	True
229.864	0.23	Control	0.5832999999999999	0.002	No	2.784	-0.002	4.0	NoResponse	0	0.285	229.149	-1	23	Target	Neutral	True
230.098	0.47	Control	0.5832999999999999	n/a	No	2.784	n/a	n/a	NoResponse	0	n/a	n/a	-1	23	Blank	Neutral	True
230.149	0.3	Control	0.5832999999999999	0.002	No	2.784	-0.002	4.0	NoResponse	0	0.285	n/a	-1	23	ButtonPress	Neutral	True
230.564	1.45	Control	0.5832999999999999	n/a	No	2.784	n/a	5.0	NoResponse	0	0.047	229.611	-1	23	Feedback	Neutral	True
232.014	2.784	Control	0.5832999999999999	n/a	No	2.784	n/a	n/a	NoResponse	0	0.0	n/a	-1	23	ISIslide	Neutral	True
234.829	0.25	Win2	0.6	0.001	Yes	3.121	0.029	n/a	GoodResponse	1	n/a	n/a	0	24	Cue	Win	True
235.079	3.95	Win2	0.6	0.0	Yes	3.121	0.0	n/a	GoodResponse	1	n/a	n/a	0	24	Fixation	Win	True
239.028	0.24	Win2	0.6	0.001	Yes	3.121	-0.001	4.0	GoodResponse	1	0.233	238.261	0	24	Target	Win	True
239.261	0.3	Win2	0.6	0.001	Yes	3.121	-0.001	4.0	GoodResponse	1	0.233	n/a	0	24	ButtonPress	Win	True
239.278	0.46	Win2	0.6	n/a	Yes	3.121	n/a	n/a	GoodResponse	1	n/a	n/a	0	24	Blank	Win	True
239.728	1.45	Win2	0.6	n/a	Yes	3.121	n/a	5.0	GoodResponse	1	0.007	238.735	0	24	Feedback	Win	True
241.177	3.121	Win2	0.6	n/a	Yes	3.121	n/a	n/a	GoodResponse	1	0.0	n/a	0	24	ISIslide	Win	True
244.326	0.25	Win2	0.6154	0.0	Yes	3.074	0.026	n/a	GoodResponse	1	n/a	n/a	1	25	Cue	Win	True
244.576	4.0	Win2	0.6154	0.0	Yes	3.074	0.0	n/a	GoodResponse	1	n/a	n/a	1	25	Fixation	Win	True
248.575	0.25	Win2	0.6154	0.001	Yes	3.074	-0.001	4.0	GoodResponse	1	0.239	247.814	1	25	Target	Win	True
248.814	0.3	Win2	0.6154	0.001	Yes	3.074	-0.001	4.0	GoodResponse	1	0.239	n/a	1	25	ButtonPress	Win	True
248.825	0.45	Win2	0.6154	n/a	Yes	3.074	n/a	n/a	GoodResponse	1	n/a	n/a	1	25	Blank	Win	True
249.274	1.45	Win2	0.6154	n/a	Yes	3.074	n/a	5.0	GoodResponse	1	0.02	248.294	1	25	Feedback	Win	True
250.724	3.074	Win2	0.6154	n/a	Yes	3.074	n/a	n/a	GoodResponse	1	0.0	n/a	1	25	ISIslide	Win	True
253.823	0.25	Win2	0.6296	0.0	Yes	2.927	0.023	n/a	GoodResponse	1	n/a	n/a	2	26	Cue	Win	True
254.073	3.95	Win2	0.6296	0.0	Yes	2.927	0.0	n/a	GoodResponse	1	n/a	n/a	2	26	Fixation	Win	True
258.021	0.26	Win2	0.6296	0.002	Yes	2.927	-0.002	4.0	GoodResponse	1	0.217	257.238	2	26	Target	Win	True
258.238	0.3	Win2	0.6296	0.002	Yes	2.927	-0.002	4.0	GoodResponse	1	0.217	n/a	2	26	ButtonPress	Win	True
258.288	0.44	Win2	0.6296	n/a	Yes	2.927	n/a	n/a	GoodResponse	1	n/a	n/a	2	26	Blank	Win	True
258.721	1.45	Win2	0.6296	n/a	Yes	2.927	n/a	5.0	GoodResponse	1	0.036	257.757	2	26	Feedback	Win	True
260.171	2.927	Win2	0.6296	n/a	Yes	2.927	n/a	n/a	GoodResponse	1	0.0	n/a	2	26	ISIslide	Win	True
263.12	0.25	Lose2	0.6429	0.0	Yes	2.83	0.02	n/a	GoodResponse	0	n/a	n/a	2	27	Cue	AvoidedLoss	True
263.369	4.05	Lose2	0.6429	0.001	Yes	2.83	-0.001	n/a	GoodResponse	0	n/a	n/a	2	27	Fixation	AvoidedLoss	True
267.418	0.27	Lose2	0.6429	0.002	Yes	2.83	-0.002	4.0	GoodResponse	0	0.225	266.643	2	27	Target	AvoidedLoss	True
267.643	0.3	Lose2	0.6429	0.002	Yes	2.83	-0.002	4.0	GoodResponse	0	0.225	n/a	2	27	ButtonPress	AvoidedLoss	True
267.701	0.43	Lose2	0.6429	n/a	Yes	2.83	n/a	n/a	GoodResponse	0	n/a	n/a	2	27	Blank	AvoidedLoss	True
268.118	1.45	Lose2	0.6429	n/a	Yes	2.83	n/a	5.0	GoodResponse	0	0.007	267.125	2	27	Feedback	AvoidedLoss	True
269.567	2.83	Lose2	0.6429	n/a	Yes	2.83	n/a	n/a	GoodResponse	0	0.0	n/a	2	27	ISIslide	AvoidedLoss	True
272.416	0.25	Control	0.6552	0.0	Yes	2.834	0.016	n/a	GoodResponse	0	n/a	n/a	2	28	Cue	Neutral	True
272.666	4.05	Control	0.6552	0.0	Yes	2.834	0.0	n/a	GoodResponse	0	n/a	n/a	2	28	Fixation	Neutral	True
276.715	0.28	Control	0.6552	0.001	Yes	2.834	-0.001	4.0	GoodResponse	0	0.232	275.947	2	28	Target	Neutral	True
276.947	0.3	Control	0.6552	0.001	Yes	2.834	-0.001	4.0	GoodResponse	0	0.232	n/a	2	28	ButtonPress	Neutral	True
276.998	0.42	Control	0.6552	n/a	Yes	2.834	n/a	n/a	GoodResponse	0	n/a	n/a	2	28	Blank	Neutral	True
277.415	1.45	Control	0.6552	n/a	Yes	2.834	n/a	5.0	GoodResponse	0	0.025	276.44	2	28	Feedback	Neutral	True
278.864	2.834	Control	0.6552	n/a	Yes	2.834	n/a	n/a	GoodResponse	0	0.0	n/a	2	28	ISIslide	Neutral	True
281.713	0.25	Lose2	0.6667000000000001	0.0	Yes	2.837	0.013	n/a	GoodResponse	0	n/a	n/a	2	29	Cue	AvoidedLoss	True
281.963	3.95	Lose2	0.6667000000000001	0.0	Yes	2.837	0.0	n/a	GoodResponse	0	n/a	n/a	2	29	Fixation	AvoidedLoss	True
285.912	0.28	Lose2	0.6667000000000001	0.001	Yes	2.837	-0.001	4.0	GoodResponse	0	0.212	285.124	2	29	Target	AvoidedLoss	True
286.124	0.3	Lose2	0.6667000000000001	0.001	Yes	2.837	-0.001	4.0	GoodResponse	0	0.212	n/a	2	29	ButtonPress	AvoidedLoss	True
286.195	0.42	Lose2	0.6667000000000001	n/a	Yes	2.837	n/a	n/a	GoodResponse	0	n/a	n/a	2	29	Blank	AvoidedLoss	True
286.611	1.45	Lose2	0.6667000000000001	n/a	Yes	2.837	n/a	5.0	GoodResponse	0	0.048	285.659	2	29	Feedback	AvoidedLoss	True
288.061	2.837	Lose2	0.6667000000000001	n/a	Yes	2.837	n/a	n/a	GoodResponse	0	0.0	n/a	2	29	ISIslide	AvoidedLoss	True
290.927	0.25	Win2	0.6452	0.0	No	2.773	0.027	n/a	LatePress	0	n/a	n/a	2	30	Cue	MissedWin	True
291.176	3.9	Win2	0.6452	0.001	No	2.773	-0.001	n/a	LatePress	0	n/a	n/a	2	30	Fixation	MissedWin	True
295.075	0.27	Win2	0.6452	0.002	No	2.773	-0.002	4.0	LatePress	0	0.275	294.35	2	30	Target	MissedWin	True
295.35	0.3	Win2	0.6452	0.002	No	2.773	-0.002	4.0	LatePress	0	0.275	n/a	2	30	ButtonPress	MissedWin	True
295.358	0.43	Win2	0.6452	n/a	No	2.773	n/a	n/a	LatePress	0	n/a	n/a	2	30	Blank	MissedWin	True
295.775	1.45	Win2	0.6452	n/a	No	2.773	n/a	5.0	LatePress	0	0.007	294.782	2	30	Feedback	MissedWin	True
297.224	2.773	Win2	0.6452	n/a	No	2.773	n/a	n/a	LatePress	0	0.0	n/a	2	30	ISIslide	MissedWin	True
300.023	0.25	Lose2	0.6562	0.0	Yes	2.827	0.023	n/a	GoodResponse	0	n/a	n/a	2	31	Cue	AvoidedLoss	True
300.273	4.05	Lose2	0.6562	0.0	Yes	2.827	0.0	n/a	GoodResponse	0	n/a	n/a	2	31	Fixation	AvoidedLoss	True
304.322	0.28	Lose2	0.6562	0.001	Yes	2.827	-0.001	4.0	GoodResponse	0	0.253	303.575	2	31	Target	AvoidedLoss	True
304.575	0.3	Lose2	0.6562	0.001	Yes	2.827	-0.001	4.0	GoodResponse	0	0.253	n/a	2	31	ButtonPress	AvoidedLoss	True
304.605	0.42	Lose2	0.6562	n/a	Yes	2.827	n/a	n/a	GoodResponse	0	n/a	n/a	2	31	Blank	AvoidedLoss	True
305.022	1.45	Lose2	0.6562	n/a	Yes	2.827	n/a	5.0	GoodResponse	0	0.028	304.05	2	31	Feedback	AvoidedLoss	True
306.471	2.827	Lose2	0.6562	n/a	Yes	2.827	n/a	n/a	GoodResponse	0	0.0	n/a	2	31	ISIslide	AvoidedLoss	True
309.32	0.25	Lose2	0.6667000000000001	0.0	Yes	2.63	0.02	n/a	GoodResponse	0	n/a	n/a	2	32	Cue	AvoidedLoss	True
309.57	4.15	Lose2	0.6667000000000001	0.0	Yes	2.63	0.0	n/a	GoodResponse	0	n/a	n/a	2	32	Fixation	AvoidedLoss	True
313.719	0.28	Lose2	0.6667000000000001	0.001	Yes	2.63	-0.001	4.0	GoodResponse	0	0.216	312.935	2	32	Target	AvoidedLoss	True
313.935	0.3	Lose2	0.6667000000000001	0.001	Yes	2.63	-0.001	4.0	GoodResponse	0	0.216	n/a	2	32	ButtonPress	AvoidedLoss	True
314.002	0.42	Lose2	0.6667000000000001	n/a	Yes	2.63	n/a	n/a	GoodResponse	0	n/a	n/a	2	32	Blank	AvoidedLoss	True
314.418	1.45	Lose2	0.6667000000000001	n/a	Yes	2.63	n/a	5.0	GoodResponse	0	0.045	313.463	2	32	Feedback	AvoidedLoss	True
315.868	2.63	Lose2	0.6667000000000001	n/a	Yes	2.63	n/a	n/a	GoodResponse	0	0.0	n/a	2	32	ISIslide	AvoidedLoss	True
318.517	0.25	Win2	0.6765000000000001	0.0	Yes	2.683	0.017	n/a	GoodResponse	1	n/a	n/a	3	33	Cue	Win	True
318.767	4.0	Win2	0.6765000000000001	0.0	Yes	2.683	0.0	n/a	GoodResponse	1	n/a	n/a	3	33	Fixation	Win	True
322.765	0.27	Win2	0.6765000000000001	0.002	Yes	2.683	-0.002	4.0	GoodResponse	1	0.197	321.962	3	33	Target	Win	True
322.962	0.3	Win2	0.6765000000000001	0.002	Yes	2.683	-0.002	4.0	GoodResponse	1	0.197	n/a	3	33	ButtonPress	Win	True
323.049	0.43	Win2	0.6765000000000001	n/a	Yes	2.683	n/a	n/a	GoodResponse	1	n/a	n/a	3	33	Blank	Win	True
323.465	1.45	Win2	0.6765000000000001	n/a	Yes	2.683	n/a	5.0	GoodResponse	1	0.023	322.488	3	33	Feedback	Win	True
324.915	2.683	Win2	0.6765000000000001	n/a	Yes	2.683	n/a	n/a	GoodResponse	1	0.0	n/a	3	33	ISIslide	Win	True
327.63	0.25	Lose2	0.6857	0.0	Yes	2.62	0.03	n/a	GoodResponse	0	n/a	n/a	3	34	Cue	AvoidedLoss	True
327.88	4.05	Lose2	0.6857	0.0	Yes	2.62	0.0	n/a	GoodResponse	0	n/a	n/a	3	34	Fixation	AvoidedLoss	True
331.929	0.26	Lose2	0.6857	0.001	Yes	2.62	-0.001	4.0	GoodResponse	0	0.249	331.178	3	34	Target	AvoidedLoss	True
332.178	0.3	Lose2	0.6857	0.001	Yes	2.62	-0.001	4.0	GoodResponse	0	0.249	n/a	3	34	ButtonPress	AvoidedLoss	True
332.195	0.44	Lose2	0.6857	n/a	Yes	2.62	n/a	n/a	GoodResponse	0	n/a	n/a	3	34	Blank	AvoidedLoss	True
332.629	1.45	Lose2	0.6857	n/a	Yes	2.62	n/a	5.0	GoodResponse	0	0.03	331.659	3	34	Feedback	AvoidedLoss	True
334.078	2.62	Lose2	0.6857	n/a	Yes	2.62	n/a	n/a	GoodResponse	0	0.0	n/a	3	34	ISIslide	AvoidedLoss	True
336.727	0.25	Lose2	0.6944	0.0	Yes	2.673	0.027	n/a	GoodResponse	0	n/a	n/a	3	35	Cue	AvoidedLoss	True
336.977	4.0	Lose2	0.6944	0.0	Yes	2.673	0.0	n/a	GoodResponse	0	n/a	n/a	3	35	Fixation	AvoidedLoss	True
340.976	0.25	Lose2	0.6944	0.001	Yes	2.673	-0.001	4.0	GoodResponse	0	0.201	340.177	3	35	Target	AvoidedLoss	True
341.177	0.3	Lose2	0.6944	0.001	Yes	2.673	-0.001	4.0	GoodResponse	0	0.201	n/a	3	35	ButtonPress	AvoidedLoss	True
341.226	0.45	Lose2	0.6944	n/a	Yes	2.673	n/a	n/a	GoodResponse	0	n/a	n/a	3	35	Blank	AvoidedLoss	True
341.675	1.45	Lose2	0.6944	n/a	Yes	2.673	n/a	5.0	GoodResponse	0	0.008	340.683	3	35	Feedback	AvoidedLoss	True
343.125	2.673	Lose2	0.6944	n/a	Yes	2.673	n/a	n/a	GoodResponse	0	0.0	n/a	3	35	ISIslide	AvoidedLoss	True
345.824	0.25	Control	0.6757	0.0	No	2.676	0.024	n/a	NoResponse	0	n/a	n/a	3	36	Cue	Neutral	True
346.074	4.0	Control	0.6757	0.0	No	2.676	0.0	n/a	NoResponse	0	n/a	n/a	3	36	Fixation	Neutral	True
350.073	0.24	Control	0.6757	0.001	No	2.676	-0.001	4.0	NoResponse	0	0.251	349.324	3	36	Target	Neutral	True
350.322	0.46	Control	0.6757	n/a	No	2.676	n/a	n/a	NoResponse	0	n/a	n/a	3	36	Blank	Neutral	True
350.324	0.3	Control	0.6757	0.001	No	2.676	-0.001	4.0	NoResponse	0	0.251	n/a	3	36	ButtonPress	Neutral	True
350.772	1.45	Control	0.6757	n/a	No	2.676	n/a	5.0	NoResponse	0	0.033	349.805	3	36	Feedback	Neutral	True
352.222	2.676	Control	0.6757	n/a	No	2.676	n/a	n/a	NoResponse	0	0.0	n/a	3	36	ISIslide	Neutral	True
354.921	0.25	Win2	0.6579	0.0	No	2.879	0.021	n/a	NoResponse	0	n/a	n/a	3	37	Cue	MissedWin	True
355.171	4.0	Win2	0.6579	0.0	No	2.879	0.0	n/a	NoResponse	0	n/a	n/a	3	37	Fixation	MissedWin	True
359.169	0.23	Win2	0.6579	0.002	No	2.879	-0.002	4.0	NoResponse	0	0.285	358.454	3	37	Target	MissedWin	True
359.403	0.47	Win2	0.6579	n/a	No	2.879	n/a	n/a	NoResponse	0	n/a	n/a	3	37	Blank	MissedWin	True
359.454	0.3	Win2	0.6579	0.002	No	2.879	-0.002	4.0	NoResponse	0	0.285	n/a	3	37	ButtonPress	MissedWin	True
359.869	1.45	Win2	0.6579	n/a	No	2.879	n/a	5.0	NoResponse	0	0.01	358.879	3	37	Feedback	MissedWin	True
361.319	2.879	Win2	0.6579	n/a	No	2.879	n/a	n/a	NoResponse	0	0.0	n/a	3	37	ISIslide	MissedWin	True
364.218	0.25	Lose2	0.6667000000000001	0.0	Yes	2.832	0.018	n/a	GoodResponse	0	n/a	n/a	3	38	Cue	AvoidedLoss	True
364.468	3.95	Lose2	0.6667000000000001	0.0	Yes	2.832	0.0	n/a	GoodResponse	0	n/a	n/a	3	38	Fixation	AvoidedLoss	True
368.416	0.23	Lose2	0.6667000000000001	0.002	Yes	2.832	-0.002	4.0	GoodResponse	0	0.225	367.641	3	38	Target	AvoidedLoss	True
368.641	0.3	Lose2	0.6667000000000001	0.002	Yes	2.832	-0.002	4.0	GoodResponse	0	0.225	n/a	3	38	ButtonPress	AvoidedLoss	True
368.649	0.47	Lose2	0.6667000000000001	n/a	Yes	2.832	n/a	n/a	GoodResponse	0	n/a	n/a	3	38	Blank	AvoidedLoss	True
369.116	1.45	Lose2	0.6667000000000001	n/a	Yes	2.832	n/a	5.0	GoodResponse	0	0.03	368.146	3	38	Feedback	AvoidedLoss	True
370.565	2.832	Lose2	0.6667000000000001	n/a	Yes	2.832	n/a	n/a	GoodResponse	0	0.0	n/a	3	38	ISIslide	AvoidedLoss	True
373.414	0.25	Win2	0.65	0.001	No	2.986	0.014	n/a	NoResponse	0	n/a	n/a	3	39	Cue	MissedWin	True
373.664	4.1	Win2	0.65	0.0	No	2.986	0.0	n/a	NoResponse	0	n/a	n/a	3	39	Fixation	MissedWin	True
377.763	0.22	Win2	0.65	0.001	No	2.986	-0.001	4.0	NoResponse	0	0.238	377.001	3	39	Target	MissedWin	True
377.979	0.48	Win2	0.65	n/a	No	2.986	n/a	n/a	NoResponse	0	n/a	n/a	3	39	Blank	MissedWin	True
378.001	0.3	Win2	0.65	0.001	No	2.986	-0.001	4.0	NoResponse	0	0.238	n/a	3	39	ButtonPress	MissedWin	True
378.463	1.45	Win2	0.65	n/a	No	2.986	n/a	5.0	NoResponse	0	0.0	377.463	3	39	Feedback	MissedWin	True
379.912	2.986	Win2	0.65	n/a	No	2.986	n/a	n/a	NoResponse	0	0.0	n/a	3	39	ISIslide	MissedWin	True
382.928	0.25	Win2	0.6341	0.0	No	2.722	0.028	n/a	NoResponse	0	n/a	n/a	3	40	Cue	MissedWin	True
383.178	3.95	Win2	0.6341	0.0	No	2.722	0.0	n/a	NoResponse	0	n/a	n/a	3	40	Fixation	MissedWin	True
387.126	0.23	Win2	0.6341	0.002	No	2.722	-0.002	4.0	NoResponse	0	0.234	386.36	3	40	Target	MissedWin	True
387.36	0.47	Win2	0.6341	n/a	No	2.722	n/a	n/a	NoResponse	0	n/a	n/a	3	40	Blank	MissedWin	True
387.36	0.3	Win2	0.6341	0.002	No	2.722	-0.002	4.0	NoResponse	0	0.234	n/a	3	40	ButtonPress	MissedWin	True
387.826	1.45	Win2	0.6341	n/a	No	2.722	n/a	5.0	NoResponse	0	0.007	386.833	3	40	Feedback	MissedWin	True
389.276	2.722	Win2	0.6341	n/a	No	2.722	n/a	n/a	NoResponse	0	0.0	n/a	3	40	ISIslide	MissedWin	True
392.025	0.25	Win2	0.619	0.0	No	2.775	0.025	n/a	NoResponse	0	n/a	n/a	3	41	Cue	MissedWin	True
392.275	3.9	Win2	0.619	0.0	No	2.775	0.0	n/a	NoResponse	0	n/a	n/a	3	41	Fixation	MissedWin	True
396.173	0.24	Win2	0.619	0.002	No	2.775	-0.002	4.0	NoResponse	0	0.259	395.432	3	41	Target	MissedWin	True
396.423	0.46	Win2	0.619	n/a	No	2.775	n/a	n/a	NoResponse	0	n/a	n/a	3	41	Blank	MissedWin	True
396.432	0.3	Win2	0.619	0.002	No	2.775	-0.002	4.0	NoResponse	0	0.259	n/a	3	41	ButtonPress	MissedWin	True
396.873	1.45	Win2	0.619	n/a	No	2.775	n/a	5.0	NoResponse	0	0.029	395.902	3	41	Feedback	MissedWin	True
398.322	2.775	Win2	0.619	n/a	No	2.775	n/a	n/a	NoResponse	0	0.0	n/a	3	41	ISIslide	MissedWin	True
401.121	0.25	Control	0.6279	0.001	Yes	2.929	0.021	n/a	GoodResponse	0	n/a	n/a	3	42	Cue	Neutral	True
401.371	3.85	Control	0.6279	0.0	Yes	2.929	0.0	n/a	GoodResponse	0	n/a	n/a	3	42	Fixation	Neutral	True
405.22	0.25	Control	0.6279	0.001	Yes	2.929	-0.001	4.0	GoodResponse	0	0.197	404.417	3	42	Target	Neutral	True
405.417	0.3	Control	0.6279	0.001	Yes	2.929	-0.001	4.0	GoodResponse	0	0.197	n/a	3	42	ButtonPress	Neutral	True
405.47	0.45	Control	0.6279	n/a	Yes	2.929	n/a	n/a	GoodResponse	0	n/a	n/a	3	42	Blank	Neutral	True
405.92	1.45	Control	0.6279	n/a	Yes	2.929	n/a	5.0	GoodResponse	0	0.007	404.927	3	42	Feedback	Neutral	True
407.369	2.929	Control	0.6279	n/a	Yes	2.929	n/a	n/a	GoodResponse	0	0.0	n/a	3	42	ISIslide	Neutral	True
410.318	0.25	Win2	0.6364	0.0	Yes	3.182	0.018	n/a	GoodResponse	1	n/a	n/a	4	43	Cue	Win	False
410.568	4.0	Win2	0.6364	0.0	Yes	3.182	0.0	4.0	GoodResponse	1	3.63	413.198	4	43	Fixation	Win	False
414.198	0.3	Win2	0.6364	0.0	Yes	3.182	0.0	4.0	GoodResponse	1	3.63	n/a	4	43	ButtonPress	Win	False
414.567	0.26	Win2	0.6364	0.001	Yes	3.182	-0.001	4.0	GoodResponse	1	0.257	413.824	4	43	Target	Win	False
414.824	0.3	Win2	0.6364	0.001	Yes	3.182	-0.001	4.0	GoodResponse	1	0.257	n/a	4	43	ButtonPress	Win	False
414.833	0.44	Win2	0.6364	n/a	Yes	3.182	n/a	n/a	GoodResponse	1	n/a	n/a	4	43	Blank	Win	False
415.266	1.45	Win2	0.6364	n/a	Yes	3.182	n/a	5.0	GoodResponse	1	0.026	414.292	4	43	Feedback	Win	False
416.716	3.182	Win2	0.6364	n/a	Yes	3.182	n/a	n/a	GoodResponse	1	0.0	n/a	4	43	ISIslide	Win	False
419.915	0.25	Win2	0.6444	0.0	Yes	2.985	0.015	n/a	GoodResponse	1	n/a	n/a	5	44	Cue	Win	True
420.165	4.0	Win2	0.6444	0.0	Yes	2.985	0.0	n/a	GoodResponse	1	n/a	n/a	5	44	Fixation	Win	True
424.163	0.27	Win2	0.6444	0.002	Yes	2.985	-0.002	4.0	GoodResponse	1	0.21	423.373	5	44	Target	Win	True
424.373	0.3	Win2	0.6444	0.002	Yes	2.985	-0.002	4.0	GoodResponse	1	0.21	n/a	5	44	ButtonPress	Win	True
424.447	0.43	Win2	0.6444	n/a	Yes	2.985	n/a	n/a	GoodResponse	1	n/a	n/a	5	44	Blank	Win	True
424.863	1.45	Win2	0.6444	n/a	Yes	2.985	n/a	5.0	GoodResponse	1	0.039	423.902	5	44	Feedback	Win	True
426.313	2.985	Win2	0.6444	n/a	Yes	2.985	n/a	n/a	GoodResponse	1	0.0	n/a	5	44	ISIslide	Win	True
429.328	0.25	Control	0.6522	0.0	Yes	2.872	0.028	n/a	GoodResponse	0	n/a	n/a	5	45	Cue	Neutral	True
429.578	4.1	Control	0.6522	0.0	Yes	2.872	0.0	n/a	GoodResponse	0	n/a	n/a	5	45	Fixation	Neutral	True
433.677	0.28	Control	0.6522	0.001	Yes	2.872	-0.001	4.0	GoodResponse	0	0.245	432.922	5	45	Target	Neutral	True
433.922	0.3	Control	0.6522	0.001	Yes	2.872	-0.001	4.0	GoodResponse	0	0.245	n/a	5	45	ButtonPress	Neutral	True
433.96	0.42	Control	0.6522	n/a	Yes	2.872	n/a	n/a	GoodResponse	0	n/a	n/a	5	45	Blank	Neutral	True
434.376	1.45	Control	0.6522	n/a	Yes	2.872	n/a	5.0	GoodResponse	0	0.038	433.414	5	45	Feedback	Neutral	True
435.826	2.872	Control	0.6522	n/a	Yes	2.872	n/a	n/a	GoodResponse	0	0.0	n/a	5	45	ISIslide	Neutral	True
438.725	0.25	Lose2	0.6596	0.0	Yes	3.375	0.025	n/a	GoodResponse	0	n/a	n/a	5	46	Cue	AvoidedLoss	True
438.975	4.0	Lose2	0.6596	0.0	Yes	3.375	0.0	n/a	GoodResponse	0	n/a	n/a	5	46	Fixation	AvoidedLoss	True
442.973	0.29	Lose2	0.6596	0.002	Yes	3.375	-0.002	4.0	GoodResponse	0	0.19	442.163	5	46	Target	AvoidedLoss	True
443.163	0.3	Lose2	0.6596	0.002	Yes	3.375	-0.002	4.0	GoodResponse	0	0.19	n/a	5	46	ButtonPress	AvoidedLoss	True
443.273	0.41	Lose2	0.6596	n/a	Yes	3.375	n/a	n/a	GoodResponse	0	n/a	n/a	5	46	Blank	AvoidedLoss	True
443.673	1.45	Lose2	0.6596	n/a	Yes	3.375	n/a	5.0	GoodResponse	0	0.01	442.683	5	46	Feedback	AvoidedLoss	True
445.123	3.375	Lose2	0.6596	n/a	Yes	3.375	n/a	n/a	GoodResponse	0	0.0	n/a	5	46	ISIslide	AvoidedLoss	True
448.522	0.25	Lose2	0.6667000000000001	0.0	Yes	2.678	0.022	n/a	GoodResponse	0	n/a	n/a	5	47	Cue	AvoidedLoss	True
448.771	4.0	Lose2	0.6667000000000001	0.001	Yes	2.678	-0.001	n/a	GoodResponse	0	n/a	n/a	5	47	Fixation	AvoidedLoss	True
452.77	0.29	Lose2	0.6667000000000001	0.002	Yes	2.678	-0.002	4.0	GoodResponse	0	0.21	451.98	5	47	Target	AvoidedLoss	True
452.98	0.3	Lose2	0.6667000000000001	0.002	Yes	2.678	-0.002	4.0	GoodResponse	0	0.21	n/a	5	47	ButtonPress	AvoidedLoss	True
453.07	0.41	Lose2	0.6667000000000001	n/a	Yes	2.678	n/a	n/a	GoodResponse	0	n/a	n/a	5	47	Blank	AvoidedLoss	True
453.47	1.45	Lose2	0.6667000000000001	n/a	Yes	2.678	n/a	5.0	GoodResponse	0	0.018	452.488	5	47	Feedback	AvoidedLoss	True
454.919	2.678	Lose2	0.6667000000000001	n/a	Yes	2.678	n/a	n/a	GoodResponse	0	0.0	n/a	5	47	ISIslide	AvoidedLoss	True
457.618	0.25	Lose2	0.6531	0.0	No	3.032	0.018	n/a	NoResponse	-1	n/a	n/a	4	48	Cue	Loss	False
457.868	3.95	Lose2	0.6531	0.0	No	3.032	0.0	n/a	NoResponse	-1	n/a	n/a	4	48	Fixation	Loss	False
461.817	0.28	Lose2	0.6531	0.001	No	3.032	-0.001	n/a	NoResponse	-1	n/a	n/a	4	48	Target	Loss	False
462.1	0.42	Lose2	0.6531	n/a	No	3.032	n/a	n/a	NoResponse	-1	n/a	n/a	4	48	Blank	Loss	False
462.517	1.45	Lose2	0.6531	n/a	No	3.032	n/a	5.0	NoResponse	-1	0.043	461.56	4	48	Feedback	Loss	False
463.966	3.032	Lose2	0.6531	n/a	No	3.032	n/a	n/a	NoResponse	-1	0.0	n/a	4	48	ISIslide	Loss	False
467.015	0.25	Control	0.66	0.0	Yes	2.885	0.015	n/a	GoodResponse	0	n/a	n/a	4	49	Cue	Neutral	True
467.265	4.0	Control	0.66	0.0	Yes	2.885	0.0	n/a	GoodResponse	0	n/a	n/a	4	49	Fixation	Neutral	True
471.264	0.29	Control	0.66	0.001	Yes	2.885	-0.001	4.0	GoodResponse	0	0.224	470.488	4	49	Target	Neutral	True
471.488	0.3	Control	0.66	0.001	Yes	2.885	-0.001	4.0	GoodResponse	0	0.224	n/a	4	49	ButtonPress	Neutral	True
471.564	0.41	Control	0.66	n/a	Yes	2.885	n/a	n/a	GoodResponse	0	n/a	n/a	4	49	Blank	Neutral	True
471.963	1.45	Control	0.66	n/a	Yes	2.885	n/a	5.0	GoodResponse	0	0.012	470.975	4	49	Feedback	Neutral	True
473.413	2.885	Control	0.66	n/a	Yes	2.885	n/a	n/a	GoodResponse	0	0.0	n/a	4	49	ISIslide	Neutral	True
476.329	0.25	Control	0.6667000000000001	0.0	Yes	2.771	0.029	n/a	GoodResponse	0	n/a	n/a	4	50	Cue	Neutral	True
476.578	4.0	Control	0.6667000000000001	0.001	Yes	2.771	-0.001	n/a	GoodResponse	0	n/a	n/a	4	50	Fixation	Neutral	True
480.577	0.29	Control	0.6667000000000001	0.002	Yes	2.771	-0.002	4.0	GoodResponse	0	0.236	479.813	4	50	Target	Neutral	True
480.813	0.3	Control	0.6667000000000001	0.002	Yes	2.771	-0.002	4.0	GoodResponse	0	0.236	n/a	4	50	ButtonPress	Neutral	True
480.877	0.41	Control	0.6667000000000001	n/a	Yes	2.771	n/a	n/a	GoodResponse	0	n/a	n/a	4	50	Blank	Neutral	True
481.277	1.45	Control	0.6667000000000001	n/a	Yes	2.771	n/a	5.0	GoodResponse	0	0.015	480.292	4	50	Feedback	Neutral	True
482.726	2.771	Control	0.6667000000000001	n/a	Yes	2.771	n/a	n/a	GoodResponse	0	0.0	n/a	4	50	ISIslide	Neutral	True
485.525	0.25	Control	0.6731	0.0	Yes	2.725	0.025	n/a	GoodResponse	0	n/a	n/a	4	51	Cue	Neutral	True
485.775	3.95	Control	0.6731	0.0	Yes	2.725	0.0	n/a	GoodResponse	0	n/a	n/a	4	51	Fixation	Neutral	True
489.724	0.28	Control	0.6731	0.001	Yes	2.725	-0.001	4.0	GoodResponse	0	0.27	488.994	4	51	Target	Neutral	True
489.994	0.3	Control	0.6731	0.001	Yes	2.725	-0.001	4.0	GoodResponse	0	0.27	n/a	4	51	ButtonPress	Neutral	True
490.007	0.42	Control	0.6731	n/a	Yes	2.725	n/a	n/a	GoodResponse	0	n/a	n/a	4	51	Blank	Neutral	True
490.424	1.45	Control	0.6731	n/a	Yes	2.725	n/a	5.0	GoodResponse	0	0.039	489.463	4	51	Feedback	Neutral	True
491.873	2.725	Control	0.6731	n/a	Yes	2.725	n/a	n/a	GoodResponse	0	0.0	n/a	4	51	ISIslide	Neutral	True
494.622	0.25	Control	0.6792	0.0	Yes	2.628	0.022	n/a	GoodResponse	0	n/a	n/a	4	52	Cue	Neutral	True
494.872	4.05	Control	0.6792	0.0	Yes	2.628	0.0	n/a	GoodResponse	0	n/a	n/a	4	52	Fixation	Neutral	True
498.921	0.27	Control	0.6792	0.001	Yes	2.628	-0.001	4.0	GoodResponse	0	0.259	498.18	4	52	Target	Neutral	True
499.18	0.3	Control	0.6792	0.001	Yes	2.628	-0.001	4.0	GoodResponse	0	0.259	n/a	4	52	ButtonPress	Neutral	True
499.204	0.43	Control	0.6792	n/a	Yes	2.628	n/a	n/a	GoodResponse	0	n/a	n/a	4	52	Blank	Neutral	True
499.62	1.45	Control	0.6792	n/a	Yes	2.628	n/a	5.0	GoodResponse	0	0.013	498.633	4	52	Feedback	Neutral	True
501.07	2.628	Control	0.6792	n/a	Yes	2.628	n/a	n/a	GoodResponse	0	0.0	n/a	4	52	ISIslide	Neutral	True
503.719	0.25	Win2	0.6851999999999999	0.0	Yes	2.931	0.019	n/a	GoodResponse	1	n/a	n/a	5	53	Cue	Win	True
503.969	4.05	Win2	0.6851999999999999	0.0	Yes	2.931	0.0	n/a	GoodResponse	1	n/a	n/a	5	53	Fixation	Win	True
508.017	0.26	Win2	0.6851999999999999	0.002	Yes	2.931	-0.002	4.0	GoodResponse	1	0.233	507.25	5	53	Target	Win	True
508.25	0.3	Win2	0.6851999999999999	0.002	Yes	2.931	-0.002	4.0	GoodResponse	1	0.233	n/a	5	53	ButtonPress	Win	True
508.284	0.44	Win2	0.6851999999999999	n/a	Yes	2.931	n/a	n/a	GoodResponse	1	n/a	n/a	5	53	Blank	Win	True
508.717	1.45	Win2	0.6851999999999999	n/a	Yes	2.931	n/a	5.0	GoodResponse	1	0.039	507.756	5	53	Feedback	Win	True
510.167	2.931	Win2	0.6851999999999999	n/a	Yes	2.931	n/a	n/a	GoodResponse	1	0.0	n/a	5	53	ISIslide	Win	True
513.116	0.25	Win2	0.6727	0.0	No	2.734	0.016	n/a	NoResponse	0	n/a	n/a	5	54	Cue	MissedWin	True
513.366	3.95	Win2	0.6727	0.0	No	2.734	0.0	n/a	NoResponse	0	n/a	n/a	5	54	Fixation	MissedWin	True
517.314	0.25	Win2	0.6727	0.002	No	2.734	-0.002	4.0	NoResponse	0	0.266	516.58	5	54	Target	MissedWin	True
517.564	0.45	Win2	0.6727	n/a	No	2.734	n/a	n/a	NoResponse	0	n/a	n/a	5	54	Blank	MissedWin	True
517.58	0.3	Win2	0.6727	0.002	No	2.734	-0.002	4.0	NoResponse	0	0.266	n/a	5	54	ButtonPress	MissedWin	True
518.014	1.45	Win2	0.6727	n/a	No	2.734	n/a	5.0	NoResponse	0	0.009	517.023	5	54	Feedback	MissedWin	True
519.463	2.734	Win2	0.6727	n/a	No	2.734	n/a	n/a	NoResponse	0	0.0	n/a	5	54	ISIslide	MissedWin	True
522.229	0.25	Control	0.6607	0.0	No	3.021	0.029	n/a	NoResponse	0	n/a	n/a	5	55	Cue	Neutral	True
522.479	3.95	Control	0.6607	0.0	No	3.021	0.0	n/a	NoResponse	0	n/a	n/a	5	55	Fixation	Neutral	True
526.428	0.24	Control	0.6607	0.001	No	3.021	-0.001	4.0	NoResponse	0	0.276	525.704	5	55	Target	Neutral	True
526.678	0.46	Control	0.6607	n/a	No	3.021	n/a	n/a	NoResponse	0	n/a	n/a	5	55	Blank	Neutral	True
526.704	0.3	Control	0.6607	0.001	No	3.021	-0.001	4.0	NoResponse	0	0.276	n/a	5	55	ButtonPress	Neutral	True
527.127	1.45	Control	0.6607	n/a	No	3.021	n/a	5.0	NoResponse	0	0.018	526.145	5	55	Feedback	Neutral	True
528.577	3.021	Control	0.6607	n/a	No	3.021	n/a	n/a	NoResponse	0	0.0	n/a	5	55	ISIslide	Neutral	True
531.626	0.25	Control	0.6491	0.0	No	2.824	0.026	n/a	LatePress	0	n/a	n/a	5	56	Cue	Neutral	True
531.876	3.95	Control	0.6491	0.0	No	2.824	0.0	n/a	LatePress	0	n/a	n/a	5	56	Fixation	Neutral	True
535.824	0.24	Control	0.6491	0.002	No	2.824	-0.002	4.0	LatePress	0	0.247	535.071	5	56	Target	Neutral	True
536.071	0.3	Control	0.6491	0.002	No	2.824	-0.002	4.0	LatePress	0	0.247	n/a	5	56	ButtonPress	Neutral	True
536.074	0.46	Control	0.6491	n/a	No	2.824	n/a	n/a	LatePress	0	n/a	n/a	5	56	Blank	Neutral	True
536.524	1.45	Control	0.6491	n/a	No	2.824	n/a	5.0	LatePress	0	0.036	535.56	5	56	Feedback	Neutral	True
537.974	2.824	Control	0.6491	n/a	No	2.824	n/a	n/a	LatePress	0	0.0	n/a	5	56	ISIslide	Neutral	True
540.823	0.25	Control	0.6552	0.0	Yes	3.477	0.023	n/a	GoodResponse	0	n/a	n/a	5	57	Cue	Neutral	True
541.073	4.0	Control	0.6552	0.0	Yes	3.477	0.0	n/a	GoodResponse	0	n/a	n/a	5	57	Fixation	Neutral	True
545.071	0.25	Control	0.6552	0.002	Yes	3.477	-0.002	4.0	GoodResponse	0	0.24	544.311	5	57	Target	Neutral	True
545.311	0.3	Control	0.6552	0.002	Yes	3.477	-0.002	4.0	GoodResponse	0	0.24	n/a	5	57	ButtonPress	Neutral	True
545.321	0.45	Control	0.6552	n/a	Yes	3.477	n/a	n/a	GoodResponse	0	n/a	n/a	5	57	Blank	Neutral	True
545.771	1.45	Control	0.6552	n/a	Yes	3.477	n/a	5.0	GoodResponse	0	0.008	544.779	5	57	Feedback	Neutral	True
547.22	3.477	Control	0.6552	n/a	Yes	3.477	n/a	n/a	GoodResponse	0	0.0	n/a	5	57	ISIslide	Neutral	True
550.719	0.25	Win2	0.6609999999999999	0.0	Yes	2.731	0.019	n/a	GoodResponse	1	n/a	n/a	6	58	Cue	Win	True
550.969	4.05	Win2	0.6609999999999999	0.0	Yes	2.731	0.0	n/a	GoodResponse	1	n/a	n/a	6	58	Fixation	Win	True
555.018	0.25	Win2	0.6609999999999999	0.001	Yes	2.731	-0.001	4.0	GoodResponse	1	0.194	554.212	6	58	Target	Win	True
555.212	0.3	Win2	0.6609999999999999	0.001	Yes	2.731	-0.001	4.0	GoodResponse	1	0.194	n/a	6	58	ButtonPress	Win	True
555.268	0.45	Win2	0.6609999999999999	n/a	Yes	2.731	n/a	n/a	GoodResponse	1	n/a	n/a	6	58	Blank	Win	True
555.717	1.45	Win2	0.6609999999999999	n/a	Yes	2.731	n/a	5.0	GoodResponse	1	0.014	554.731	6	58	Feedback	Win	True
557.167	2.731	Win2	0.6609999999999999	n/a	Yes	2.731	n/a	n/a	GoodResponse	1	0.0	n/a	6	58	ISIslide	Win	True
559.916	0.25	Lose2	0.6667000000000001	0.0	Yes	2.684	0.016	n/a	GoodResponse	0	n/a	n/a	6	59	Cue	AvoidedLoss	True
560.166	4.0	Lose2	0.6667000000000001	0.0	Yes	2.684	0.0	n/a	GoodResponse	0	n/a	n/a	6	59	Fixation	AvoidedLoss	True
564.165	0.25	Lose2	0.6667000000000001	0.001	Yes	2.684	-0.001	4.0	GoodResponse	0	0.218	563.383	6	59	Target	AvoidedLoss	True
564.383	0.3	Lose2	0.6667000000000001	0.001	Yes	2.684	-0.001	4.0	GoodResponse	0	0.218	n/a	6	59	ButtonPress	AvoidedLoss	True
564.414	0.45	Lose2	0.6667000000000001	n/a	Yes	2.684	n/a	n/a	GoodResponse	0	n/a	n/a	6	59	Blank	AvoidedLoss	True
564.864	1.45	Lose2	0.6667000000000001	n/a	Yes	2.684	n/a	5.0	GoodResponse	0	0.037	563.901	6	59	Feedback	AvoidedLoss	True
566.314	2.684	Lose2	0.6667000000000001	n/a	Yes	2.684	n/a	n/a	GoodResponse	0	0.0	n/a	6	59	ISIslide	AvoidedLoss	True
569.03	0.25	Control	0.6720999999999999	0.0	Yes	2.67	0.03	n/a	GoodResponse	0	n/a	n/a	6	60	Cue	Neutral	True
569.279	4.0	Control	0.6720999999999999	0.001	Yes	2.67	-0.001	n/a	GoodResponse	0	n/a	n/a	6	60	Fixation	Neutral	True
573.278	0.24	Control	0.6720999999999999	0.002	Yes	2.67	-0.002	4.0	GoodResponse	0	0.198	572.476	6	60	Target	Neutral	True
573.476	0.3	Control	0.6720999999999999	0.002	Yes	2.67	-0.002	4.0	GoodResponse	0	0.198	n/a	6	60	ButtonPress	Neutral	True
573.528	0.46	Control	0.6720999999999999	n/a	Yes	2.67	n/a	n/a	GoodResponse	0	n/a	n/a	6	60	Blank	Neutral	True
573.978	1.45	Control	0.6720999999999999	n/a	Yes	2.67	n/a	5.0	GoodResponse	0	0.045	573.023	6	60	Feedback	Neutral	True
575.427	2.67	Control	0.6720999999999999	n/a	Yes	2.67	n/a	n/a	GoodResponse	0	0.0	n/a	6	60	ISIslide	Neutral	True
578.126	0.25	Lose2	0.6774	0.0	Yes	2.974	0.026	n/a	GoodResponse	0	n/a	n/a	6	61	Cue	AvoidedLoss	True
578.376	4.0	Lose2	0.6774	0.0	Yes	2.974	0.0	n/a	GoodResponse	0	n/a	n/a	6	61	Fixation	AvoidedLoss	True
582.375	0.23	Lose2	0.6774	0.001	Yes	2.974	-0.001	4.0	GoodResponse	0	0.218	581.593	6	61	Target	AvoidedLoss	True
582.593	0.3	Lose2	0.6774	0.001	Yes	2.974	-0.001	4.0	GoodResponse	0	0.218	n/a	6	61	ButtonPress	AvoidedLoss	True
582.608	0.47	Lose2	0.6774	n/a	Yes	2.974	n/a	n/a	GoodResponse	0	n/a	n/a	6	61	Blank	AvoidedLoss	True
583.075	1.45	Lose2	0.6774	n/a	Yes	2.974	n/a	5.0	GoodResponse	0	0.021	582.096	6	61	Feedback	AvoidedLoss	True
584.524	2.974	Lose2	0.6774	n/a	Yes	2.974	n/a	n/a	GoodResponse	0	0.0	n/a	6	61	ISIslide	AvoidedLoss	True
587.523	0.25	Lose2	0.6667000000000001	0.0	No	2.877	0.023	n/a	LatePress	-1	n/a	n/a	5	62	Cue	Loss	True
587.773	3.9	Lose2	0.6667000000000001	0.0	No	2.877	0.0	n/a	LatePress	-1	n/a	n/a	5	62	Fixation	Loss	True
591.672	0.22	Lose2	0.6667000000000001	0.001	No	2.877	-0.001	4.0	LatePress	-1	0.222	590.894	5	62	Target	Loss	True
591.894	0.3	Lose2	0.6667000000000001	0.001	No	2.877	-0.001	4.0	LatePress	-1	0.222	n/a	5	62	ButtonPress	Loss	True
591.905	0.48	Lose2	0.6667000000000001	n/a	No	2.877	n/a	n/a	LatePress	-1	n/a	n/a	5	62	Blank	Loss	True
592.371	1.45	Lose2	0.6667000000000001	n/a	No	2.877	n/a	5.0	LatePress	-1	0.042	591.413	5	62	Feedback	Loss	True
593.821	2.877	Lose2	0.6667000000000001	n/a	No	2.877	n/a	n/a	LatePress	-1	0.0	n/a	5	62	ISIslide	Loss	True
596.72	0.25	Lose2	0.6562	0.0	No	2.63	0.02	n/a	NoResponse	-1	n/a	n/a	4	63	Cue	Loss	True
596.97	4.05	Lose2	0.6562	0.0	No	2.63	0.0	n/a	NoResponse	-1	n/a	n/a	4	63	Fixation	Loss	True
601.018	0.21	Lose2	0.6562	0.002	No	2.63	-0.002	4.0	NoResponse	-1	0.248	600.266	4	63	Target	Loss	True
601.235	0.49	Lose2	0.6562	n/a	No	2.63	n/a	n/a	NoResponse	-1	n/a	n/a	4	63	Blank	Loss	True
601.266	0.3	Lose2	0.6562	0.002	No	2.63	-0.002	4.0	NoResponse	-1	0.248	n/a	4	63	ButtonPress	Loss	True
601.718	1.45	Lose2	0.6562	n/a	No	2.63	n/a	5.0	NoResponse	-1	0.012	600.73	4	63	Feedback	Loss	True
603.168	2.63	Lose2	0.6562	n/a	No	2.63	n/a	n/a	NoResponse	-1	0.0	n/a	4	63	ISIslide	Loss	True
605.817	0.25	Win2	0.6615000000000001	0.0	Yes	3.133	0.017	n/a	GoodResponse	1	n/a	n/a	5	64	Cue	Win	True
606.067	4.15	Win2	0.6615000000000001	0.0	Yes	3.133	0.0	n/a	GoodResponse	1	n/a	n/a	5	64	Fixation	Win	True
610.215	0.21	Win2	0.6615000000000001	0.002	Yes	3.133	-0.002	4.0	GoodResponse	1	0.194	609.409	5	64	Target	Win	True
610.409	0.3	Win2	0.6615000000000001	0.002	Yes	3.133	-0.002	4.0	GoodResponse	1	0.194	n/a	5	64	ButtonPress	Win	True
610.432	0.49	Win2	0.6615000000000001	n/a	Yes	3.133	n/a	n/a	GoodResponse	1	n/a	n/a	5	64	Blank	Win	True
610.915	1.45	Win2	0.6615000000000001	n/a	Yes	3.133	n/a	5.0	GoodResponse	1	0.035	609.95	5	64	Feedback	Win	True
612.364	3.133	Win2	0.6615000000000001	n/a	Yes	3.133	n/a	n/a	GoodResponse	1	0.0	n/a	5	64	ISIslide	Win	True
615.513	0.25	Control	0.6515000000000001	0.0	No	2.787	0.013	n/a	NoResponse	0	n/a	n/a	5	65	Cue	Neutral	True
615.763	4.0	Control	0.6515000000000001	0.0	No	2.787	0.0	n/a	NoResponse	0	n/a	n/a	5	65	Fixation	Neutral	True
619.762	0.21	Control	0.6515000000000001	0.001	No	2.787	-0.001	4.0	NoResponse	0	0.225	618.987	5	65	Target	Neutral	True
619.978	0.49	Control	0.6515000000000001	n/a	No	2.787	n/a	n/a	NoResponse	0	n/a	n/a	5	65	Blank	Neutral	True
619.987	0.3	Control	0.6515000000000001	0.001	No	2.787	-0.001	4.0	NoResponse	0	0.225	n/a	5	65	ButtonPress	Neutral	True
620.462	1.45	Control	0.6515000000000001	n/a	No	2.787	n/a	5.0	NoResponse	0	0.048	619.51	5	65	Feedback	Neutral	True
621.911	2.787	Control	0.6515000000000001	n/a	No	2.787	n/a	n/a	NoResponse	0	0.0	n/a	5	65	ISIslide	Neutral	True
624.727	0.25	Win2	0.6567000000000001	0.0	Yes	2.773	0.027	n/a	GoodResponse	1	n/a	n/a	6	66	Cue	Win	True
624.977	3.9	Win2	0.6567000000000001	0.0	Yes	2.773	0.0	n/a	GoodResponse	1	n/a	n/a	6	66	Fixation	Win	True
628.875	0.22	Win2	0.6567000000000001	0.002	Yes	2.773	-0.002	4.0	GoodResponse	1	0.204	628.079	6	66	Target	Win	True
629.079	0.3	Win2	0.6567000000000001	0.002	Yes	2.773	-0.002	4.0	GoodResponse	1	0.204	n/a	6	66	ButtonPress	Win	True
629.109	0.48	Win2	0.6567000000000001	n/a	Yes	2.773	n/a	n/a	GoodResponse	1	n/a	n/a	6	66	Blank	Win	True
629.575	1.45	Win2	0.6567000000000001	n/a	Yes	2.773	n/a	5.0	GoodResponse	1	0.008	628.583	6	66	Feedback	Win	True
631.025	2.773	Win2	0.6567000000000001	n/a	Yes	2.773	n/a	n/a	GoodResponse	1	0.0	n/a	6	66	ISIslide	Win	True
633.824	0.25	Control	0.6470999999999999	0.0	No	2.726	0.024	n/a	NoResponse	0	n/a	n/a	6	67	Cue	Neutral	True
634.073	3.95	Control	0.6470999999999999	0.001	No	2.726	-0.001	n/a	NoResponse	0	n/a	n/a	6	67	Fixation	Neutral	True
638.022	0.22	Control	0.6470999999999999	0.002	No	2.726	-0.002	4.0	NoResponse	0	0.241	637.263	6	67	Target	Neutral	True
638.255	0.48	Control	0.6470999999999999	n/a	No	2.726	n/a	n/a	NoResponse	0	n/a	n/a	6	67	Blank	Neutral	True
638.263	0.3	Control	0.6470999999999999	0.002	No	2.726	-0.002	4.0	NoResponse	0	0.241	n/a	6	67	ButtonPress	Neutral	True
638.722	1.45	Control	0.6470999999999999	n/a	No	2.726	n/a	5.0	NoResponse	0	0.032	637.754	6	67	Feedback	Neutral	True
640.171	2.726	Control	0.6470999999999999	n/a	No	2.726	n/a	n/a	NoResponse	0	0.0	n/a	6	67	ISIslide	Neutral	True
642.92	0.25	Win2	0.6522	0.0	Yes	3.08	0.02	n/a	GoodResponse	1	n/a	n/a	7	68	Cue	Win	True
643.17	4.0	Win2	0.6522	0.0	Yes	3.08	0.0	n/a	GoodResponse	1	n/a	n/a	7	68	Fixation	Win	True
647.169	0.23	Win2	0.6522	0.001	Yes	3.08	-0.001	4.0	GoodResponse	1	0.195	646.364	7	68	Target	Win	True
647.364	0.3	Win2	0.6522	0.001	Yes	3.08	-0.001	4.0	GoodResponse	1	0.195	n/a	7	68	ButtonPress	Win	True
647.402	0.47	Win2	0.6522	n/a	Yes	3.08	n/a	n/a	GoodResponse	1	n/a	n/a	7	68	Blank	Win	True
647.869	1.45	Win2	0.6522	n/a	Yes	3.08	n/a	5.0	GoodResponse	1	0.007	646.876	7	68	Feedback	Win	True
649.318	3.08	Win2	0.6522	n/a	Yes	3.08	n/a	n/a	GoodResponse	1	0.0	n/a	7	68	ISIslide	Win	True
652.417	0.25	Win2	0.6429	0.0	No	3.233	0.017	n/a	NoResponse	0	n/a	n/a	7	69	Cue	MissedWin	True
652.667	3.95	Win2	0.6429	0.0	No	3.233	0.0	n/a	NoResponse	0	n/a	n/a	7	69	Fixation	MissedWin	True
656.616	0.24	Win2	0.6429	0.001	No	3.233	-0.001	4.0	NoResponse	0	0.28	655.896	7	69	Target	MissedWin	True
656.866	0.46	Win2	0.6429	n/a	No	3.233	n/a	n/a	NoResponse	0	n/a	n/a	7	69	Blank	MissedWin	True
656.896	0.3	Win2	0.6429	0.001	No	3.233	-0.001	4.0	NoResponse	0	0.28	n/a	7	69	ButtonPress	MissedWin	True
657.315	1.45	Win2	0.6429	n/a	No	3.233	n/a	5.0	NoResponse	0	0.025	656.34	7	69	Feedback	MissedWin	True
658.765	3.233	Win2	0.6429	n/a	No	3.233	n/a	n/a	NoResponse	0	0.0	n/a	7	69	ISIslide	MissedWin	True
662.014	0.25	Lose2	0.6338	0.0	No	3.036	0.014	n/a	NoResponse	-1	n/a	n/a	6	70	Cue	Loss	True
662.264	4.05	Lose2	0.6338	0.0	No	3.036	0.0	n/a	NoResponse	-1	n/a	n/a	6	70	Fixation	Loss	True
666.312	0.25	Lose2	0.6338	0.002	No	3.036	-0.002	4.0	NoResponse	-1	0.267	665.579	6	70	Target	Loss	True
666.562	0.45	Lose2	0.6338	n/a	No	3.036	n/a	n/a	NoResponse	-1	n/a	n/a	6	70	Blank	Loss	True
666.579	0.3	Lose2	0.6338	0.002	No	3.036	-0.002	4.0	NoResponse	-1	0.267	n/a	6	70	ButtonPress	Loss	True
667.012	1.45	Lose2	0.6338	n/a	No	3.036	n/a	5.0	NoResponse	-1	0.034	666.046	6	70	Feedback	Loss	True
668.461	3.036	Lose2	0.6338	n/a	No	3.036	n/a	n/a	NoResponse	-1	0.0	n/a	6	70	ISIslide	Loss	True
671.527	0.25	Win2	0.6389	0.0	Yes	2.723	0.027	n/a	GoodResponse	1	n/a	n/a	7	71	Cue	Win	True
671.777	4.05	Win2	0.6389	0.0	Yes	2.723	0.0	n/a	GoodResponse	1	n/a	n/a	7	71	Fixation	Win	True
675.826	0.26	Win2	0.6389	0.001	Yes	2.723	-0.001	4.0	GoodResponse	1	0.215	675.041	7	71	Target	Win	True
676.041	0.3	Win2	0.6389	0.001	Yes	2.723	-0.001	4.0	GoodResponse	1	0.215	n/a	7	71	ButtonPress	Win	True
676.092	0.44	Win2	0.6389	n/a	Yes	2.723	n/a	n/a	GoodResponse	1	n/a	n/a	7	71	Blank	Win	True
676.525	1.45	Win2	0.6389	n/a	Yes	2.723	n/a	5.0	GoodResponse	1	0.034	675.559	7	71	Feedback	Win	True
677.975	2.723	Win2	0.6389	n/a	Yes	2.723	n/a	n/a	GoodResponse	1	0.0	n/a	7	71	ISIslide	Win	True
680.724	0.25	Win2	0.6437999999999999	0.0	Yes	2.776	0.024	n/a	GoodResponse	1	n/a	n/a	8	72	Cue	Win	True
680.974	4.1	Win2	0.6437999999999999	0.0	Yes	2.776	0.0	n/a	GoodResponse	1	n/a	n/a	8	72	Fixation	Win	True
685.072	0.27	Win2	0.6437999999999999	0.002	Yes	2.776	-0.002	4.0	GoodResponse	1	0.204	684.276	8	72	Target	Win	True
685.276	0.3	Win2	0.6437999999999999	0.002	Yes	2.776	-0.002	4.0	GoodResponse	1	0.204	n/a	8	72	ButtonPress	Win	True
685.356	0.43	Win2	0.6437999999999999	n/a	Yes	2.776	n/a	n/a	GoodResponse	1	n/a	n/a	8	72	Blank	Win	True
685.772	1.45	Win2	0.6437999999999999	n/a	Yes	2.776	n/a	5.0	GoodResponse	1	0.007	684.779	8	72	Feedback	Win	True
687.222	2.776	Win2	0.6437999999999999	n/a	Yes	2.776	n/a	n/a	GoodResponse	1	0.0	n/a	8	72	ISIslide	Win	True
690.021	0.25	Win2	0.6486	0.0	Yes	2.679	0.021	n/a	GoodResponse	1	n/a	n/a	9	73	Cue	Win	True
690.271	4.0	Win2	0.6486	0.0	Yes	2.679	0.0	n/a	GoodResponse	1	n/a	n/a	9	73	Fixation	Win	True
694.269	0.28	Win2	0.6486	0.002	Yes	2.679	-0.002	4.0	GoodResponse	1	0.222	693.491	9	73	Target	Win	True
694.491	0.3	Win2	0.6486	0.002	Yes	2.679	-0.002	4.0	GoodResponse	1	0.222	n/a	9	73	ButtonPress	Win	True
694.552	0.42	Win2	0.6486	n/a	Yes	2.679	n/a	n/a	GoodResponse	1	n/a	n/a	9	73	Blank	Win	True
694.969	1.45	Win2	0.6486	n/a	Yes	2.679	n/a	5.0	GoodResponse	1	0.029	693.998	9	73	Feedback	Win	True
696.418	2.679	Win2	0.6486	n/a	Yes	2.679	n/a	n/a	GoodResponse	1	0.0	n/a	9	73	ISIslide	Win	True
699.117	0.25	Lose2	0.6533	0.001	Yes	2.633	0.017	n/a	GoodResponse	0	n/a	n/a	9	74	Cue	AvoidedLoss	True
699.367	4.05	Lose2	0.6533	0.0	Yes	2.633	0.0	n/a	GoodResponse	0	n/a	n/a	9	74	Fixation	AvoidedLoss	True
703.416	0.29	Lose2	0.6533	0.001	Yes	2.633	-0.001	4.0	GoodResponse	0	0.212	702.628	9	74	Target	AvoidedLoss	True
703.628	0.3	Lose2	0.6533	0.001	Yes	2.633	-0.001	4.0	GoodResponse	0	0.212	n/a	9	74	ButtonPress	AvoidedLoss	True
703.716	0.41	Lose2	0.6533	n/a	Yes	2.633	n/a	n/a	GoodResponse	0	n/a	n/a	9	74	Blank	AvoidedLoss	True
704.116	1.45	Lose2	0.6533	n/a	Yes	2.633	n/a	5.0	GoodResponse	0	0.007	703.123	9	74	Feedback	AvoidedLoss	True
705.565	2.633	Lose2	0.6533	n/a	Yes	2.633	n/a	n/a	GoodResponse	0	0.0	n/a	9	74	ISIslide	AvoidedLoss	True
708.214	0.25	Lose2	0.6579	0.0	Yes	2.936	0.014	n/a	GoodResponse	0	n/a	n/a	9	75	Cue	AvoidedLoss	True
708.464	3.95	Lose2	0.6579	0.0	Yes	2.936	0.0	n/a	GoodResponse	0	n/a	n/a	9	75	Fixation	AvoidedLoss	True
712.413	0.3	Lose2	0.6579	0.001	Yes	2.936	-0.001	4.0	GoodResponse	0	0.206	711.619	9	75	Target	AvoidedLoss	True
712.619	0.3	Lose2	0.6579	0.001	Yes	2.936	-0.001	4.0	GoodResponse	0	0.206	n/a	9	75	ButtonPress	AvoidedLoss	True
712.713	0.4	Lose2	0.6579	n/a	Yes	2.936	n/a	n/a	GoodResponse	0	n/a	n/a	9	75	Blank	AvoidedLoss	True
713.113	1.45	Lose2	0.6579	n/a	Yes	2.936	n/a	5.0	GoodResponse	0	0.031	712.144	9	75	Feedback	AvoidedLoss	True
714.562	2.936	Lose2	0.6579	n/a	Yes	2.936	n/a	n/a	GoodResponse	0	0.0	n/a	9	75	ISIslide	AvoidedLoss	True
717.528	0.25	Control	0.6623	0.0	Yes	3.222	0.028	n/a	GoodResponse	0	n/a	n/a	9	76	Cue	Neutral	True
717.778	4.05	Control	0.6623	0.0	Yes	3.222	0.0	n/a	GoodResponse	0	n/a	n/a	9	76	Fixation	Neutral	True
721.826	0.3	Control	0.6623	0.002	Yes	3.222	-0.002	4.0	GoodResponse	0	0.221	721.047	9	76	Target	Neutral	True
722.047	0.3	Control	0.6623	0.002	Yes	3.222	-0.002	4.0	GoodResponse	0	0.221	n/a	9	76	ButtonPress	Neutral	True
722.126	0.4	Control	0.6623	n/a	Yes	3.222	n/a	n/a	GoodResponse	0	n/a	n/a	9	76	Blank	Neutral	True
722.526	1.45	Control	0.6623	n/a	Yes	3.222	n/a	5.0	GoodResponse	0	0.032	721.558	9	76	Feedback	Neutral	True
723.975	3.222	Control	0.6623	n/a	Yes	3.222	n/a	n/a	GoodResponse	0	0.0	n/a	9	76	ISIslide	Neutral	True
727.224	0.25	Lose2	0.6667000000000001	0.0	Yes	2.576	0.024	n/a	GoodResponse	0	n/a	n/a	9	77	Cue	AvoidedLoss	True
727.474	3.95	Lose2	0.6667000000000001	0.0	Yes	2.576	0.0	n/a	GoodResponse	0	n/a	n/a	9	77	Fixation	AvoidedLoss	True
731.423	0.3	Lose2	0.6667000000000001	0.001	Yes	2.576	-0.001	4.0	GoodResponse	0	0.194	730.617	9	77	Target	AvoidedLoss	True
731.617	0.3	Lose2	0.6667000000000001	0.001	Yes	2.576	-0.001	4.0	GoodResponse	0	0.194	n/a	9	77	ButtonPress	AvoidedLoss	True
731.723	0.4	Lose2	0.6667000000000001	n/a	Yes	2.576	n/a	n/a	GoodResponse	0	n/a	n/a	9	77	Blank	AvoidedLoss	True
732.123	1.45	Lose2	0.6667000000000001	n/a	Yes	2.576	n/a	5.0	GoodResponse	0	0.045	731.168	9	77	Feedback	AvoidedLoss	True
733.572	2.576	Lose2	0.6667000000000001	n/a	Yes	2.576	n/a	n/a	GoodResponse	0	0.0	n/a	9	77	ISIslide	AvoidedLoss	True
