onset	duration	cue_type	current_mean_accuracy	duration_error	is_hit	isi_adjusted	onset_delay	response	response_type	reward	rt	rt_time	total_reward	trial_number	trial_phase	trial_type	one_press
11.097	0.25	Control	1.0	0.0	Yes	2.953	-0.003	n/a	GoodResponse	0	n/a	n/a	0	0	Cue	Neutral	False
11.347	3.85	Control	1.0	0.0	Yes	2.953	0.0	4.0	GoodResponse	0	0.106	10.453	0	0	Fixation	Neutral	False
11.453	0.3	Control	1.0	0.0	Yes	2.953	0.0	4.0	GoodResponse	0	0.106	n/a	0	0	ButtonPress	Neutral	False
15.196	0.4	Control	1.0	0.001	Yes	2.953	-0.001	4.0	GoodResponse	0	0.26	14.456	0	0	Target	Neutral	False
15.456	0.3	Control	1.0	0.001	Yes	2.953	-0.001	4.0	GoodResponse	0	0.26	n/a	0	0	ButtonPress	Neutral	False
15.596	0.3	Control	1.0	n/a	Yes	2.953	n/a	n/a	GoodResponse	0	n/a	n/a	0	0	Blank	Neutral	False
15.896	1.45	Control	1.0	n/a	Yes	2.953	n/a	5.0	GoodResponse	0	0.033	14.929	0	0	Feedback	Neutral	False
17.345	2.953	Control	1.0	n/a	Yes	2.953	n/a	n/a	GoodResponse	0	0.0	n/a	0	0	ISIslide	Neutral	False
20.327	0.25	Lose2	1.0	0.001	Yes	2.773	0.027	n/a	GoodResponse	0	n/a	n/a	0	1	Cue	AvoidedLoss	False
20.577	4.0	Lose2	1.0	0.0	Yes	2.773	0.0	4.0	GoodResponse	0	0.016	19.593	0	1	Fixation	AvoidedLoss	False
20.593	0.3	Lose2	1.0	0.0	Yes	2.773	0.0	4.0	GoodResponse	0	0.016	n/a	0	1	ButtonPress	AvoidedLoss	False
24.576	0.39	Lose2	1.0	0.001	Yes	2.773	-0.001	4.0	GoodResponse	0	0.224	23.8	0	1	Target	AvoidedLoss	False
24.8	0.3	Lose2	1.0	0.001	Yes	2.773	-0.001	4.0	GoodResponse	0	0.224	n/a	0	1	ButtonPress	AvoidedLoss	False
24.976	0.31	Lose2	1.0	n/a	Yes	2.773	n/a	n/a	GoodResponse	0	n/a	n/a	0	1	Blank	AvoidedLoss	False
25.276	1.45	Lose2	1.0	n/a	Yes	2.773	n/a	5.0	GoodResponse	0	0.018	24.294	0	1	Feedback	AvoidedLoss	False
26.725	2.773	Lose2	1.0	n/a	Yes	2.773	n/a	n/a	GoodResponse	0	0.0	n/a	0	1	ISIslide	AvoidedLoss	False
29.524	0.25	Control	1.0	0.0	Yes	2.576	0.024	n/a	GoodResponse	0	n/a	n/a	0	2	Cue	Neutral	False
29.774	4.1	Control	1.0	0.0	Yes	2.576	0.0	4.0	GoodResponse	0	0.033	28.807	0	2	Fixation	Neutral	False
29.807	0.3	Control	1.0	0.0	Yes	2.576	0.0	4.0	GoodResponse	0	0.033	n/a	0	2	ButtonPress	Neutral	False
33.873	0.38	Control	1.0	0.001	Yes	2.576	-0.001	4.0	GoodResponse	0	0.306	33.179	0	2	Target	Neutral	False
34.179	0.3	Control	1.0	0.001	Yes	2.576	-0.001	4.0	GoodResponse	0	0.306	n/a	0	2	ButtonPress	Neutral	False
34.256	0.32	Control	1.0	n/a	Yes	2.576	n/a	n/a	GoodResponse	0	n/a	n/a	0	2	Blank	Neutral	False
34.573	1.45	Control	1.0	n/a	Yes	2.576	n/a	5.0	GoodResponse	0	0.038	33.611	0	2	Feedback	Neutral	False
36.022	2.576	Control	1.0	n/a	Yes	2.576	n/a	n/a	GoodResponse	0	0.0	n/a	0	2	ISIslide	Neutral	False
38.621	0.25	Win2	1.0	0.0	Yes	2.829	0.021	n/a	GoodResponse	1	n/a	n/a	1	3	Cue	Win	False
38.871	3.95	Win2	1.0	0.0	Yes	2.829	0.0	4.0	GoodResponse	1	0.134	38.005	1	3	Fixation	Win	False
39.005	0.3	Win2	1.0	0.0	Yes	2.829	0.0	4.0	GoodResponse	1	0.134	n/a	1	3	ButtonPress	Win	False
42.82	0.37	Win2	1.0	0.001	Yes	2.829	-0.001	4.0	GoodResponse	1	0.207	42.027	1	3	Target	Win	False
43.027	0.3	Win2	1.0	0.001	Yes	2.829	-0.001	4.0	GoodResponse	1	0.207	n/a	1	3	ButtonPress	Win	False
43.186	0.33	Win2	1.0	n/a	Yes	2.829	n/a	n/a	GoodResponse	1	n/a	n/a	1	3	Blank	Win	False
43.52	1.45	Win2	1.0	n/a	Yes	2.829	n/a	5.0	GoodResponse	1	0.018	42.538	1	3	Feedback	Win	False
44.969	2.829	Win2	1.0	n/a	Yes	2.829	n/a	n/a	GoodResponse	1	0.0	n/a	1	3	ISIslide	Win	False
47.818	0.25	Win2	0.8	0.0	No	3.282	0.018	n/a	NoResponse	0	n/a	n/a	1	4	Cue	MissedWin	False
48.068	4.0	Win2	0.8	0.0	No	3.282	0.0	4.0	NoResponse	0	0.06	47.128	1	4	Fixation	MissedWin	False
48.128	0.3	Win2	0.8	0.0	No	3.282	0.0	4.0	NoResponse	0	0.06	n/a	1	4	ButtonPress	MissedWin	False
52.067	0.36	Win2	0.8	0.001	No	3.282	-0.001	4.0	NoResponse	0	0.376	51.443	1	4	Target	MissedWin	False
52.433	0.34	Win2	0.8	n/a	No	3.282	n/a	n/a	NoResponse	0	n/a	n/a	1	4	Blank	MissedWin	False
52.443	0.3	Win2	0.8	0.001	No	3.282	-0.001	4.0	NoResponse	0	0.376	n/a	1	4	ButtonPress	MissedWin	False
52.766	1.45	Win2	0.8	n/a	No	3.282	n/a	5.0	NoResponse	0	0.041	51.807	1	4	Feedback	MissedWin	False
54.216	3.282	Win2	0.8	n/a	No	3.282	n/a	n/a	NoResponse	0	0.0	n/a	1	4	ISIslide	MissedWin	False
57.515	0.25	Win2	0.8332999999999999	0.0	Yes	2.785	0.015	4.0	GoodResponse	1	0.248	56.763	2	5	Cue	Win	False
57.763	0.3	Win2	0.8332999999999999	0.0	Yes	2.785	0.015	4.0	GoodResponse	1	0.248	n/a	2	5	ButtonPress	Win	False
57.765	4.0	Win2	0.8332999999999999	0.0	Yes	2.785	0.0	n/a	GoodResponse	1	n/a	n/a	2	5	Fixation	Win	False
61.763	0.35	Win2	0.8332999999999999	0.002	Yes	2.785	-0.002	4.0	GoodResponse	1	0.228	60.991	2	5	Target	Win	False
61.991	0.3	Win2	0.8332999999999999	0.002	Yes	2.785	-0.002	4.0	GoodResponse	1	0.228	n/a	2	5	ButtonPress	Win	False
62.113	0.35	Win2	0.8332999999999999	n/a	Yes	2.785	n/a	n/a	GoodResponse	1	n/a	n/a	2	5	Blank	Win	False
62.463	1.45	Win2	0.8332999999999999	n/a	Yes	2.785	n/a	5.0	GoodResponse	1	0.002	61.465	2	5	Feedback	Win	False
63.913	2.785	Win2	0.8332999999999999	n/a	Yes	2.785	n/a	n/a	GoodResponse	1	0.0	n/a	2	5	ISIslide	Win	False
66.728	0.25	Lose2	0.8571	0.0	Yes	2.722	0.028	n/a	GoodResponse	0	n/a	n/a	2	6	Cue	AvoidedLoss	False
66.978	3.95	Lose2	0.8571	0.0	Yes	2.722	0.0	4.0	GoodResponse	0	0.104	66.082	2	6	Fixation	AvoidedLoss	False
67.082	0.3	Lose2	0.8571	0.0	Yes	2.722	0.0	4.0	GoodResponse	0	0.104	n/a	2	6	ButtonPress	AvoidedLoss	False
70.927	0.34	Lose2	0.8571	0.001	Yes	2.722	-0.001	4.0	GoodResponse	0	0.224	70.151	2	6	Target	AvoidedLoss	False
71.151	0.3	Lose2	0.8571	0.001	Yes	2.722	-0.001	4.0	GoodResponse	0	0.224	n/a	2	6	ButtonPress	AvoidedLoss	False
71.277	0.36	Lose2	0.8571	n/a	Yes	2.722	n/a	n/a	GoodResponse	0	n/a	n/a	2	6	Blank	AvoidedLoss	False
71.627	1.45	Lose2	0.8571	n/a	Yes	2.722	n/a	5.0	GoodResponse	0	0.009	70.636	2	6	Feedback	AvoidedLoss	False
73.076	2.722	Lose2	0.8571	n/a	Yes	2.722	n/a	n/a	GoodResponse	0	0.0	n/a	2	6	ISIslide	AvoidedLoss	False
75.825	0.25	Lose2	0.875	0.0	Yes	4.025	0.025	4.0	GoodResponse	0	0.244	75.069	2	7	Cue	AvoidedLoss	False
76.069	0.3	Lose2	0.875	0.0	Yes	4.025	0.025	4.0	GoodResponse	0	0.244	n/a	2	7	ButtonPress	AvoidedLoss	False
76.075	4.05	Lose2	0.875	0.0	Yes	4.025	0.0	n/a	GoodResponse	0	n/a	n/a	2	7	Fixation	AvoidedLoss	False
80.124	0.33	Lose2	0.875	0.001	Yes	4.025	-0.001	4.0	GoodResponse	0	0.222	79.346	2	7	Target	AvoidedLoss	False
80.346	0.3	Lose2	0.875	0.001	Yes	4.025	-0.001	4.0	GoodResponse	0	0.222	n/a	2	7	ButtonPress	AvoidedLoss	False
80.457	0.37	Lose2	0.875	n/a	Yes	4.025	n/a	n/a	GoodResponse	0	n/a	n/a	2	7	Blank	AvoidedLoss	False
80.823	1.45	Lose2	0.875	n/a	Yes	4.025	n/a	5.0	GoodResponse	0	0.033	79.856	2	7	Feedback	AvoidedLoss	False
82.273	4.025	Lose2	0.875	n/a	Yes	4.025	n/a	n/a	GoodResponse	0	0.0	n/a	2	7	ISIslide	AvoidedLoss	False
86.322	0.25	Lose2	0.7778	0.0	No	3.028	0.022	4.0	LatePress	-1	0.245	85.567	1	8	Cue	Loss	False
86.567	0.3	Lose2	0.7778	0.0	No	3.028	0.022	4.0	LatePress	-1	0.245	n/a	1	8	ButtonPress	Loss	False
86.571	3.95	Lose2	0.7778	0.001	No	3.028	-0.001	n/a	LatePress	-1	n/a	n/a	1	8	Fixation	Loss	False
90.52	0.32	Lose2	0.7778	0.002	No	3.028	-0.002	4.0	LatePress	-1	0.332	89.852	1	8	Target	Loss	False
90.852	0.3	Lose2	0.7778	0.002	No	3.028	-0.002	4.0	LatePress	-1	0.332	n/a	1	8	ButtonPress	Loss	False
90.853	0.38	Lose2	0.7778	n/a	No	3.028	n/a	n/a	LatePress	-1	n/a	n/a	1	8	Blank	Loss	False
91.22	1.45	Lose2	0.7778	n/a	No	3.028	n/a	5.0	LatePress	-1	0.026	90.246	1	8	Feedback	Loss	False
92.669	3.028	Lose2	0.7778	n/a	No	3.028	n/a	n/a	LatePress	-1	0.0	n/a	1	8	ISIslide	Loss	False
95.718	0.25	Lose2	0.8	0.0	Yes	3.132	0.018	n/a	GoodResponse	0	n/a	n/a	1	9	Cue	AvoidedLoss	False
95.968	3.95	Lose2	0.8	0.0	Yes	3.132	0.0	4.0	GoodResponse	0	0.055	95.023	1	9	Fixation	AvoidedLoss	False
96.023	0.3	Lose2	0.8	0.0	Yes	3.132	0.0	4.0	GoodResponse	0	0.055	n/a	1	9	ButtonPress	AvoidedLoss	False
99.917	0.31	Lose2	0.8	0.001	Yes	3.132	-0.001	4.0	GoodResponse	0	0.207	99.124	1	9	Target	AvoidedLoss	False
100.124	0.3	Lose2	0.8	0.001	Yes	3.132	-0.001	4.0	GoodResponse	0	0.207	n/a	1	9	ButtonPress	AvoidedLoss	False
100.233	0.39	Lose2	0.8	n/a	Yes	3.132	n/a	n/a	GoodResponse	0	n/a	n/a	1	9	Blank	AvoidedLoss	False
100.617	1.45	Lose2	0.8	n/a	Yes	3.132	n/a	5.0	GoodResponse	0	0.043	99.66	1	9	Feedback	AvoidedLoss	False
102.066	3.132	Lose2	0.8	n/a	Yes	3.132	n/a	n/a	GoodResponse	0	0.0	n/a	1	9	ISIslide	AvoidedLoss	False
105.215	0.25	Control	0.8181999999999999	0.0	Yes	3.285	0.015	n/a	GoodResponse	0	n/a	n/a	1	10	Cue	Neutral	False
105.465	4.0	Control	0.8181999999999999	0.0	Yes	3.285	0.0	4.0	GoodResponse	0	0.039	104.504	1	10	Fixation	Neutral	False
105.504	0.3	Control	0.8181999999999999	0.0	Yes	3.285	0.0	4.0	GoodResponse	0	0.039	n/a	1	10	ButtonPress	Neutral	False
109.464	0.3	Control	0.8181999999999999	0.001	Yes	3.285	-0.001	4.0	GoodResponse	0	0.226	108.69	1	10	Target	Neutral	False
109.69	0.3	Control	0.8181999999999999	0.001	Yes	3.285	-0.001	4.0	GoodResponse	0	0.226	n/a	1	10	ButtonPress	Neutral	False
109.764	0.4	Control	0.8181999999999999	n/a	Yes	3.285	n/a	n/a	GoodResponse	0	n/a	n/a	1	10	Blank	Neutral	False
110.163	1.45	Control	0.8181999999999999	n/a	Yes	3.285	n/a	5.0	GoodResponse	0	0.009	109.172	1	10	Feedback	Neutral	False
111.613	3.285	Control	0.8181999999999999	n/a	Yes	3.285	n/a	n/a	GoodResponse	0	0.0	n/a	1	10	ISIslide	Neutral	False
114.928	0.25	Lose2	0.8332999999999999	0.001	Yes	2.722	0.028	4.0	GoodResponse	0	0.218	114.146	1	11	Cue	AvoidedLoss	False
115.146	0.3	Lose2	0.8332999999999999	0.001	Yes	2.722	0.028	4.0	GoodResponse	0	0.218	n/a	1	11	ButtonPress	AvoidedLoss	False
115.178	4.05	Lose2	0.8332999999999999	0.0	Yes	2.722	0.0	n/a	GoodResponse	0	n/a	n/a	1	11	Fixation	AvoidedLoss	False
119.227	0.29	Lose2	0.8332999999999999	0.001	Yes	2.722	-0.001	4.0	GoodResponse	0	0.196	118.423	1	11	Target	AvoidedLoss	False
119.423	0.3	Lose2	0.8332999999999999	0.001	Yes	2.722	-0.001	4.0	GoodResponse	0	0.196	n/a	1	11	ButtonPress	AvoidedLoss	False
119.527	0.41	Lose2	0.8332999999999999	n/a	Yes	2.722	n/a	n/a	GoodResponse	0	n/a	n/a	1	11	Blank	AvoidedLoss	False
119.927	1.45	Lose2	0.8332999999999999	n/a	Yes	2.722	n/a	5.0	GoodResponse	0	0.007	118.934	1	11	Feedback	AvoidedLoss	False
121.376	2.722	Lose2	0.8332999999999999	n/a	Yes	2.722	n/a	n/a	GoodResponse	0	0.0	n/a	1	11	ISIslide	AvoidedLoss	False
124.125	0.25	Control	0.8462000000000001	0.0	Yes	2.975	0.025	4.0	GoodResponse	0	0.223	123.348	1	12	Cue	Neutral	False
124.348	0.3	Control	0.8462000000000001	0.0	Yes	2.975	0.025	4.0	GoodResponse	0	0.223	n/a	1	12	ButtonPress	Neutral	False
124.375	3.9	Control	0.8462000000000001	0.0	Yes	2.975	0.0	n/a	GoodResponse	0	n/a	n/a	1	12	Fixation	Neutral	False
128.274	0.28	Control	0.8462000000000001	0.001	Yes	2.975	-0.001	4.0	GoodResponse	0	0.249	127.523	1	12	Target	Neutral	False
128.523	0.3	Control	0.8462000000000001	0.001	Yes	2.975	-0.001	4.0	GoodResponse	0	0.249	n/a	1	12	ButtonPress	Neutral	False
128.557	0.42	Control	0.8462000000000001	n/a	Yes	2.975	n/a	n/a	GoodResponse	0	n/a	n/a	1	12	Blank	Neutral	False
128.974	1.45	Control	0.8462000000000001	n/a	Yes	2.975	n/a	5.0	GoodResponse	0	0.028	128.002	1	12	Feedback	Neutral	False
130.423	2.975	Control	0.8462000000000001	n/a	Yes	2.975	n/a	n/a	GoodResponse	0	0.0	n/a	1	12	ISIslide	Neutral	False
133.422	0.25	Control	0.8571	0.0	Yes	2.778	0.022	4.0	GoodResponse	0	0.23	132.652	1	13	Cue	Neutral	False
133.652	0.3	Control	0.8571	0.0	Yes	2.778	0.022	4.0	GoodResponse	0	0.23	n/a	1	13	ButtonPress	Neutral	False
133.672	4.0	Control	0.8571	0.0	Yes	2.778	0.0	n/a	GoodResponse	0	n/a	n/a	1	13	Fixation	Neutral	False
137.671	0.27	Control	0.8571	0.001	Yes	2.778	-0.001	4.0	GoodResponse	0	0.216	136.887	1	13	Target	Neutral	False
137.887	0.3	Control	0.8571	0.001	Yes	2.778	-0.001	4.0	GoodResponse	0	0.216	n/a	1	13	ButtonPress	Neutral	False
137.954	0.43	Control	0.8571	n/a	Yes	2.778	n/a	n/a	GoodResponse	0	n/a	n/a	1	13	Blank	Neutral	False
138.37	1.45	Control	0.8571	n/a	Yes	2.778	n/a	5.0	GoodResponse	0	0.047	137.417	1	13	Feedback	Neutral	False
139.82	2.778	Control	0.8571	n/a	Yes	2.778	n/a	n/a	GoodResponse	0	0.0	n/a	1	13	ISIslide	Neutral	False
142.619	0.25	Win2	0.8667	0.0	Yes	2.681	0.019	n/a	GoodResponse	1	n/a	n/a	2	14	Cue	Win	False
142.869	4.1	Win2	0.8667	0.0	Yes	2.681	0.0	4.0	GoodResponse	1	0.021	141.89	2	14	Fixation	Win	False
142.89	0.3	Win2	0.8667	0.0	Yes	2.681	0.0	4.0	GoodResponse	1	0.021	n/a	2	14	ButtonPress	Win	False
146.967	0.26	Win2	0.8667	0.002	Yes	2.681	-0.002	4.0	GoodResponse	1	0.228	146.195	2	14	Target	Win	False
147.195	0.3	Win2	0.8667	0.002	Yes	2.681	-0.002	4.0	GoodResponse	1	0.228	n/a	2	14	ButtonPress	Win	False
147.234	0.44	Win2	0.8667	n/a	Yes	2.681	n/a	n/a	GoodResponse	1	n/a	n/a	2	14	Blank	Win	False
147.667	1.45	Win2	0.8667	n/a	Yes	2.681	n/a	5.0	GoodResponse	1	0.018	146.685	2	14	Feedback	Win	False
149.117	2.681	Win2	0.8667	n/a	Yes	2.681	n/a	n/a	GoodResponse	1	0.0	n/a	2	14	ISIslide	Win	False
151.816	0.25	Control	0.875	0.0	Yes	2.984	0.016	n/a	GoodResponse	0	n/a	n/a	2	15	Cue	Neutral	False
152.066	4.0	Control	0.875	0.0	Yes	2.984	0.0	4.0	GoodResponse	0	0.007	151.073	2	15	Fixation	Neutral	False
152.073	0.3	Control	0.875	0.0	Yes	2.984	0.0	4.0	GoodResponse	0	0.007	n/a	2	15	ButtonPress	Neutral	False
156.064	0.25	Control	0.875	0.002	Yes	2.984	-0.002	4.0	GoodResponse	0	0.247	155.311	2	15	Target	Neutral	False
156.311	0.3	Control	0.875	0.002	Yes	2.984	-0.002	4.0	GoodResponse	0	0.247	n/a	2	15	ButtonPress	Neutral	False
156.314	0.45	Control	0.875	n/a	Yes	2.984	n/a	n/a	GoodResponse	0	n/a	n/a	2	15	Blank	Neutral	False
156.764	1.45	Control	0.875	n/a	Yes	2.984	n/a	5.0	GoodResponse	0	0.043	155.807	2	15	Feedback	Neutral	False
158.214	2.984	Control	0.875	n/a	Yes	2.984	n/a	n/a	GoodResponse	0	0.0	n/a	2	15	ISIslide	Neutral	False
161.229	0.25	Win2	0.8824	0.0	Yes	2.871	0.029	4.0	GoodResponse	1	0.239	160.468	3	16	Cue	Win	False
161.468	0.3	Win2	0.8824	0.0	Yes	2.871	0.029	4.0	GoodResponse	1	0.239	n/a	3	16	ButtonPress	Win	False
161.479	4.0	Win2	0.8824	0.0	Yes	2.871	0.0	n/a	GoodResponse	1	n/a	n/a	3	16	Fixation	Win	False
165.478	0.24	Win2	0.8824	0.001	Yes	2.871	-0.001	4.0	GoodResponse	1	0.212	164.69	3	16	Target	Win	False
165.69	0.3	Win2	0.8824	0.001	Yes	2.871	-0.001	4.0	GoodResponse	1	0.212	n/a	3	16	ButtonPress	Win	False
165.728	0.46	Win2	0.8824	n/a	Yes	2.871	n/a	n/a	GoodResponse	1	n/a	n/a	3	16	Blank	Win	False
166.178	1.45	Win2	0.8824	n/a	Yes	2.871	n/a	5.0	GoodResponse	1	0.044	165.222	3	16	Feedback	Win	False
167.627	2.871	Win2	0.8824	n/a	Yes	2.871	n/a	n/a	GoodResponse	1	0.0	n/a	3	16	ISIslide	Win	False
170.526	0.25	Lose2	0.8889	0.0	Yes	2.724	0.026	4.0	GoodResponse	0	0.234	169.76	3	17	Cue	AvoidedLoss	False
170.76	0.3	Lose2	0.8889	0.0	Yes	2.724	0.026	4.0	GoodResponse	0	0.234	n/a	3	17	ButtonPress	AvoidedLoss	False
170.776	3.95	Lose2	0.8889	0.0	Yes	2.724	0.0	n/a	GoodResponse	0	n/a	n/a	3	17	Fixation	AvoidedLoss	False
174.725	0.23	Lose2	0.8889	0.001	Yes	2.724	-0.001	4.0	GoodResponse	0	0.194	173.919	3	17	Target	AvoidedLoss	False
174.919	0.3	Lose2	0.8889	0.001	Yes	2.724	-0.001	4.0	GoodResponse	0	0.194	n/a	3	17	ButtonPress	AvoidedLoss	False
174.958	0.47	Lose2	0.8889	n/a	Yes	2.724	n/a	n/a	GoodResponse	0	n/a	n/a	3	17	Blank	AvoidedLoss	False
175.424	1.45	Lose2	0.8889	n/a	Yes	2.724	n/a	5.0	GoodResponse	0	0.017	174.441	3	17	Feedback	AvoidedLoss	False
176.874	2.724	Lose2	0.8889	n/a	Yes	2.724	n/a	n/a	GoodResponse	0	0.0	n/a	3	17	ISIslide	AvoidedLoss	False
179.623	0.25	Lose2	0.8946999999999999	0.0	Yes	2.727	0.023	n/a	GoodResponse	0	n/a	n/a	3	18	Cue	AvoidedLoss	False
179.873	4.05	Lose2	0.8946999999999999	0.0	Yes	2.727	0.0	4.0	GoodResponse	0	0.033	178.906	3	18	Fixation	AvoidedLoss	False
179.906	0.3	Lose2	0.8946999999999999	0.0	Yes	2.727	0.0	4.0	GoodResponse	0	0.033	n/a	3	18	ButtonPress	AvoidedLoss	False
183.921	0.22	Lose2	0.8946999999999999	0.002	Yes	2.727	-0.002	4.0	GoodResponse	0	0.202	183.123	3	18	Target	AvoidedLoss	False
184.123	0.3	Lose2	0.8946999999999999	0.002	Yes	2.727	-0.002	4.0	GoodResponse	0	0.202	n/a	3	18	ButtonPress	AvoidedLoss	False
184.155	0.48	Lose2	0.8946999999999999	n/a	Yes	2.727	n/a	n/a	GoodResponse	0	n/a	n/a	3	18	Blank	AvoidedLoss	False
184.621	1.45	Lose2	0.8946999999999999	n/a	Yes	2.727	n/a	5.0	GoodResponse	0	0.039	183.66	3	18	Feedback	AvoidedLoss	False
186.071	2.727	Lose2	0.8946999999999999	n/a	Yes	2.727	n/a	n/a	GoodResponse	0	0.0	n/a	3	18	ISIslide	AvoidedLoss	False
188.82	0.25	Control	0.85	0.0	No	2.93	0.02	n/a	LatePress	0	n/a	n/a	3	19	Cue	Neutral	False
189.07	3.95	Control	0.85	0.0	No	2.93	0.0	4.0	LatePress	0	0.076	188.146	3	19	Fixation	Neutral	False
189.146	0.3	Control	0.85	0.0	No	2.93	0.0	4.0	LatePress	0	0.076	n/a	3	19	ButtonPress	Neutral	False
193.018	0.21	Control	0.85	0.002	No	2.93	-0.002	4.0	LatePress	0	0.21	192.228	3	19	Target	Neutral	False
193.228	0.3	Control	0.85	0.002	No	2.93	-0.002	4.0	LatePress	0	0.21	n/a	3	19	ButtonPress	Neutral	False
193.235	0.49	Control	0.85	n/a	No	2.93	n/a	n/a	LatePress	0	n/a	n/a	3	19	Blank	Neutral	False
193.718	1.45	Control	0.85	n/a	No	2.93	n/a	5.0	LatePress	0	0.015	192.733	3	19	Feedback	Neutral	False
195.168	2.93	Control	0.85	n/a	No	2.93	n/a	n/a	LatePress	0	0.0	n/a	3	19	ISIslide	Neutral	False
198.117	0.25	Control	0.8095	0.0	No	2.633	0.017	4.0	NoResponse	0	0.247	197.364	3	20	Cue	Neutral	False
198.364	0.3	Control	0.8095	0.0	No	2.633	0.017	4.0	NoResponse	0	0.247	n/a	3	20	ButtonPress	Neutral	False
198.367	4.05	Control	0.8095	0.0	No	2.633	0.0	n/a	NoResponse	0	n/a	n/a	3	20	Fixation	Neutral	False
202.415	0.2	Control	0.8095	0.002	No	2.633	-0.002	4.0	NoResponse	0	0.288	201.703	3	20	Target	Neutral	False
202.615	0.5	Control	0.8095	n/a	No	2.633	n/a	n/a	NoResponse	0	n/a	n/a	3	20	Blank	Neutral	False
202.703	0.3	Control	0.8095	0.002	No	2.633	-0.002	4.0	NoResponse	0	0.288	n/a	3	20	ButtonPress	Neutral	False
203.115	1.45	Control	0.8095	n/a	No	2.633	n/a	5.0	NoResponse	0	0.033	202.148	3	20	Feedback	Neutral	False
204.564	2.633	Control	0.8095	n/a	No	2.633	n/a	n/a	NoResponse	0	0.0	n/a	3	20	ISIslide	Neutral	False
207.214	0.25	Control	0.7726999999999999	0.0	No	2.786	0.014	n/a	NoResponse	0	n/a	n/a	3	21	Cue	Neutral	False
207.463	4.1	Control	0.7726999999999999	0.001	No	2.786	-0.001	4.0	NoResponse	0	0.037	206.5	3	21	Fixation	Neutral	False
207.5	0.3	Control	0.7726999999999999	0.001	No	2.786	-0.001	4.0	NoResponse	0	0.037	n/a	3	21	ButtonPress	Neutral	False
211.562	0.19	Control	0.7726999999999999	0.002	No	2.786	-0.002	4.0	NoResponse	0	0.21	210.772	3	21	Target	Neutral	False
211.762	0.51	Control	0.7726999999999999	n/a	No	2.786	n/a	n/a	NoResponse	0	n/a	n/a	3	21	Blank	Neutral	False
211.772	0.3	Control	0.7726999999999999	0.002	No	2.786	-0.002	4.0	NoResponse	0	0.21	n/a	3	21	ButtonPress	Neutral	False
212.262	1.45	Control	0.7726999999999999	n/a	No	2.786	n/a	5.0	NoResponse	0	0.008	211.27	3	21	Feedback	Neutral	False
213.711	2.786	Control	0.7726999999999999	n/a	No	2.786	n/a	n/a	NoResponse	0	0.0	n/a	3	21	ISIslide	Neutral	False
216.527	0.25	Control	0.7391	0.0	No	2.773	0.027	4.0	NoResponse	0	0.234	215.761	3	22	Cue	Neutral	False
216.761	0.3	Control	0.7391	0.0	No	2.773	0.027	4.0	NoResponse	0	0.234	n/a	3	22	ButtonPress	Neutral	False
216.777	4.0	Control	0.7391	0.0	No	2.773	0.0	n/a	NoResponse	0	n/a	n/a	3	22	Fixation	Neutral	False
220.776	0.18	Control	0.7391	0.001	No	2.773	-0.001	4.0	NoResponse	0	0.263	220.039	3	22	Target	Neutral	False
220.959	0.52	Control	0.7391	n/a	No	2.773	n/a	n/a	NoResponse	0	n/a	n/a	3	22	Blank	Neutral	False
221.039	0.3	Control	0.7391	0.001	No	2.773	-0.001	4.0	NoResponse	0	0.263	n/a	3	22	ButtonPress	Neutral	False
221.475	1.45	Control	0.7391	n/a	No	2.773	n/a	5.0	NoResponse	0	0.015	220.49	3	22	Feedback	Neutral	False
222.925	2.773	Control	0.7391	n/a	No	2.773	n/a	n/a	NoResponse	0	0.0	n/a	3	22	ISIslide	Neutral	False
225.724	0.25	Control	0.7082999999999999	0.0	No	2.776	0.024	4.0	NoResponse	0	0.243	224.967	3	23	Cue	Neutral	False
225.967	0.3	Control	0.7082999999999999	0.0	No	2.776	0.024	4.0	NoResponse	0	0.243	n/a	3	23	ButtonPress	Neutral	False
225.974	3.9	Control	0.7082999999999999	0.0	No	2.776	0.0	n/a	NoResponse	0	n/a	n/a	3	23	Fixation	Neutral	False
229.872	0.17	Control	0.7082999999999999	0.002	No	2.776	-0.002	4.0	NoResponse	0	0.221	229.093	3	23	Target	Neutral	False
230.056	0.53	Control	0.7082999999999999	n/a	No	2.776	n/a	n/a	NoResponse	0	n/a	n/a	3	23	Blank	Neutral	False
230.093	0.3	Control	0.7082999999999999	0.002	No	2.776	-0.002	4.0	NoResponse	0	0.221	n/a	3	23	ButtonPress	Neutral	False
230.572	1.45	Control	0.7082999999999999	n/a	No	2.776	n/a	5.0	NoResponse	0	0.04	229.612	3	23	Feedback	Neutral	False
232.022	2.776	Control	0.7082999999999999	n/a	No	2.776	n/a	n/a	NoResponse	0	0.0	n/a	3	23	ISIslide	Neutral	False
234.821	0.25	Win2	0.68	0.0	No	3.129	0.021	4.0	NoResponse	0	0.232	234.053	3	24	Cue	MissedWin	False
235.053	0.3	Win2	0.68	0.0	No	3.129	0.021	4.0	NoResponse	0	0.232	n/a	3	24	ButtonPress	MissedWin	False
235.071	3.95	Win2	0.68	0.0	No	3.129	0.0	n/a	NoResponse	0	n/a	n/a	3	24	Fixation	MissedWin	False
239.019	0.16	Win2	0.68	0.002	No	3.129	-0.002	4.0	NoResponse	0	0.203	238.222	3	24	Target	MissedWin	False
239.186	0.54	Win2	0.68	n/a	No	3.129	n/a	n/a	NoResponse	0	n/a	n/a	3	24	Blank	MissedWin	False
239.222	0.3	Win2	0.68	0.002	No	3.129	-0.002	4.0	NoResponse	0	0.203	n/a	3	24	ButtonPress	MissedWin	False
239.719	1.45	Win2	0.68	n/a	No	3.129	n/a	5.0	NoResponse	0	0.015	238.734	3	24	Feedback	MissedWin	False
241.169	3.129	Win2	0.68	n/a	No	3.129	n/a	n/a	NoResponse	0	0.0	n/a	3	24	ISIslide	MissedWin	False
244.317	0.25	Win2	0.6537999999999999	0.001	No	3.083	0.017	4.0	NoResponse	0	0.212	243.529	3	25	Cue	MissedWin	False
244.529	0.3	Win2	0.6537999999999999	0.001	No	3.083	0.017	4.0	NoResponse	0	0.212	n/a	3	25	ButtonPress	MissedWin	False
244.567	4.0	Win2	0.6537999999999999	0.0	No	3.083	0.0	n/a	NoResponse	0	n/a	n/a	3	25	Fixation	MissedWin	False
248.566	0.15	Win2	0.6537999999999999	0.001	No	3.083	-0.001	4.0	NoResponse	0	0.23	247.796	3	25	Target	MissedWin	False
248.716	0.55	Win2	0.6537999999999999	n/a	No	3.083	n/a	n/a	NoResponse	0	n/a	n/a	3	25	Blank	MissedWin	False
248.796	0.3	Win2	0.6537999999999999	0.001	No	3.083	-0.001	4.0	NoResponse	0	0.23	n/a	3	25	ButtonPress	MissedWin	False
249.266	1.45	Win2	0.6537999999999999	n/a	No	3.083	n/a	5.0	NoResponse	0	0.028	248.294	3	25	Feedback	MissedWin	False
250.715	3.083	Win2	0.6537999999999999	n/a	No	3.083	n/a	n/a	NoResponse	0	0.0	n/a	3	25	ISIslide	MissedWin	False
253.814	0.25	Win2	0.6296	0.0	No	2.936	0.014	4.0	NoResponse	0	0.239	253.053	3	26	Cue	MissedWin	False
254.053	0.3	Win2	0.6296	0.0	No	2.936	0.014	4.0	NoResponse	0	0.239	n/a	3	26	ButtonPress	MissedWin	False
254.064	3.95	Win2	0.6296	0.0	No	2.936	0.0	n/a	NoResponse	0	n/a	n/a	3	26	Fixation	MissedWin	False
258.013	0.16	Win2	0.6296	0.001	No	2.936	-0.001	4.0	NoResponse	0	0.199	257.212	3	26	Target	MissedWin	False
258.179	0.54	Win2	0.6296	n/a	No	2.936	n/a	n/a	NoResponse	0	n/a	n/a	3	26	Blank	MissedWin	False
258.212	0.3	Win2	0.6296	0.001	No	2.936	-0.001	4.0	NoResponse	0	0.199	n/a	3	26	ButtonPress	MissedWin	False
258.713	1.45	Win2	0.6296	n/a	No	2.936	n/a	5.0	NoResponse	0	0.045	257.758	3	26	Feedback	MissedWin	False
260.162	2.936	Win2	0.6296	n/a	No	2.936	n/a	n/a	NoResponse	0	0.0	n/a	3	26	ISIslide	MissedWin	False
263.128	0.25	Lose2	0.6071	0.0	No	2.822	0.028	n/a	NoResponse	-1	n/a	n/a	2	27	Cue	Loss	False
263.378	4.05	Lose2	0.6071	0.0	No	2.822	0.0	4.0	NoResponse	-1	0.06	262.438	2	27	Fixation	Loss	False
263.438	0.3	Lose2	0.6071	0.0	No	2.822	0.0	4.0	NoResponse	-1	0.06	n/a	2	27	ButtonPress	Loss	False
267.426	0.17	Lose2	0.6071	0.002	No	2.822	-0.002	4.0	NoResponse	-1	0.191	266.617	2	27	Target	Loss	False
267.61	0.53	Lose2	0.6071	n/a	No	2.822	n/a	n/a	NoResponse	-1	n/a	n/a	2	27	Blank	Loss	False
267.617	0.3	Lose2	0.6071	0.002	No	2.822	-0.002	4.0	NoResponse	-1	0.191	n/a	2	27	ButtonPress	Loss	False
268.126	1.45	Lose2	0.6071	n/a	No	2.822	n/a	5.0	NoResponse	-1	0.046	267.172	2	27	Feedback	Loss	False
269.575	2.822	Lose2	0.6071	n/a	No	2.822	n/a	n/a	NoResponse	-1	0.0	n/a	2	27	ISIslide	Loss	False
272.425	0.25	Control	0.5861999999999999	0.0	No	2.825	0.025	n/a	NoResponse	0	n/a	n/a	2	28	Cue	Neutral	False
272.674	4.05	Control	0.5861999999999999	0.001	No	2.825	-0.001	4.0	NoResponse	0	0.134	271.808	2	28	Fixation	Neutral	False
272.808	0.3	Control	0.5861999999999999	0.001	No	2.825	-0.001	4.0	NoResponse	0	0.134	n/a	2	28	ButtonPress	Neutral	False
276.723	0.18	Control	0.5861999999999999	0.002	No	2.825	-0.002	4.0	NoResponse	0	0.238	275.961	2	28	Target	Neutral	False
276.906	0.52	Control	0.5861999999999999	n/a	No	2.825	n/a	n/a	NoResponse	0	n/a	n/a	2	28	Blank	Neutral	False
276.961	0.3	Control	0.5861999999999999	0.002	No	2.825	-0.002	4.0	NoResponse	0	0.238	n/a	2	28	ButtonPress	Neutral	False
277.423	1.45	Control	0.5861999999999999	n/a	No	2.825	n/a	5.0	NoResponse	0	0.018	276.441	2	28	Feedback	Neutral	False
278.872	2.825	Control	0.5861999999999999	n/a	No	2.825	n/a	n/a	NoResponse	0	0.0	n/a	2	28	ISIslide	Neutral	False
281.721	0.25	Lose2	0.5667	0.0	No	2.829	0.021	n/a	NoResponse	-1	n/a	n/a	1	29	Cue	Loss	False
281.971	3.95	Lose2	0.5667	0.0	No	2.829	0.0	4.0	NoResponse	-1	0.04	281.011	1	29	Fixation	Loss	False
282.011	0.3	Lose2	0.5667	0.0	No	2.829	0.0	4.0	NoResponse	-1	0.04	n/a	1	29	ButtonPress	Loss	False
285.92	0.19	Lose2	0.5667	0.001	No	2.829	-0.001	4.0	NoResponse	-1	0.201	285.121	1	29	Target	Loss	False
286.12	0.51	Lose2	0.5667	n/a	No	2.829	n/a	n/a	NoResponse	-1	n/a	n/a	1	29	Blank	Loss	False
286.121	0.3	Lose2	0.5667	0.001	No	2.829	-0.001	4.0	NoResponse	-1	0.201	n/a	1	29	ButtonPress	Loss	False
286.62	1.45	Lose2	0.5667	n/a	No	2.829	n/a	5.0	NoResponse	-1	0.04	285.66	1	29	Feedback	Loss	False
288.069	2.829	Lose2	0.5667	n/a	No	2.829	n/a	n/a	NoResponse	-1	0.0	n/a	1	29	ISIslide	Loss	False
290.918	0.25	Win2	0.5806	0.0	Yes	2.782	0.018	4.0	GoodResponse	1	0.237	290.155	2	30	Cue	Win	False
291.155	0.3	Win2	0.5806	0.0	Yes	2.782	0.018	4.0	GoodResponse	1	0.237	n/a	2	30	ButtonPress	Win	False
291.168	3.9	Win2	0.5806	0.0	Yes	2.782	0.0	n/a	GoodResponse	1	n/a	n/a	2	30	Fixation	Win	False
295.067	0.2	Win2	0.5806	0.001	Yes	2.782	-0.001	4.0	GoodResponse	1	0.196	294.263	2	30	Target	Win	False
295.263	0.3	Win2	0.5806	0.001	Yes	2.782	-0.001	4.0	GoodResponse	1	0.196	n/a	2	30	ButtonPress	Win	False
295.267	0.5	Win2	0.5806	n/a	Yes	2.782	n/a	n/a	GoodResponse	1	n/a	n/a	2	30	Blank	Win	False
295.767	1.45	Win2	0.5806	n/a	Yes	2.782	n/a	5.0	GoodResponse	1	0.015	294.782	2	30	Feedback	Win	False
297.216	2.782	Win2	0.5806	n/a	Yes	2.782	n/a	n/a	GoodResponse	1	0.0	n/a	2	30	ISIslide	Win	False
300.015	0.25	Lose2	0.5938	0.0	Yes	2.835	0.015	4.0	GoodResponse	0	0.222	299.237	2	31	Cue	AvoidedLoss	False
300.237	0.3	Lose2	0.5938	0.0	Yes	2.835	0.015	4.0	GoodResponse	0	0.222	n/a	2	31	ButtonPress	AvoidedLoss	False
300.265	4.05	Lose2	0.5938	0.0	Yes	2.835	0.0	n/a	GoodResponse	0	n/a	n/a	2	31	Fixation	AvoidedLoss	False
304.314	0.21	Lose2	0.5938	0.001	Yes	2.835	-0.001	4.0	GoodResponse	0	0.173	303.487	2	31	Target	AvoidedLoss	False
304.487	0.3	Lose2	0.5938	0.001	Yes	2.835	-0.001	4.0	GoodResponse	0	0.173	n/a	2	31	ButtonPress	AvoidedLoss	False
304.53	0.49	Lose2	0.5938	n/a	Yes	2.835	n/a	n/a	GoodResponse	0	n/a	n/a	2	31	Blank	AvoidedLoss	False
305.013	1.45	Lose2	0.5938	n/a	Yes	2.835	n/a	5.0	GoodResponse	0	0.038	304.051	2	31	Feedback	AvoidedLoss	False
306.463	2.835	Lose2	0.5938	n/a	Yes	2.835	n/a	n/a	GoodResponse	0	0.0	n/a	2	31	ISIslide	AvoidedLoss	False
309.329	0.25	Lose2	0.6061	0.0	Yes	2.621	0.029	4.0	GoodResponse	0	0.23	308.559	2	32	Cue	AvoidedLoss	False
309.559	0.3	Lose2	0.6061	0.0	Yes	2.621	0.029	4.0	GoodResponse	0	0.23	n/a	2	32	ButtonPress	AvoidedLoss	False
309.578	4.15	Lose2	0.6061	0.001	Yes	2.621	-0.001	n/a	GoodResponse	0	n/a	n/a	2	32	Fixation	AvoidedLoss	False
313.727	0.22	Lose2	0.6061	0.002	Yes	2.621	-0.002	4.0	GoodResponse	0	0.197	312.924	2	32	Target	AvoidedLoss	False
313.924	0.3	Lose2	0.6061	0.002	Yes	2.621	-0.002	4.0	GoodResponse	0	0.197	n/a	2	32	ButtonPress	AvoidedLoss	False
313.96	0.48	Lose2	0.6061	n/a	Yes	2.621	n/a	n/a	GoodResponse	0	n/a	n/a	2	32	Blank	AvoidedLoss	False
314.427	1.45	Lose2	0.6061	n/a	Yes	2.621	n/a	5.0	GoodResponse	0	0.039	313.466	2	32	Feedback	AvoidedLoss	False
315.876	2.621	Lose2	0.6061	n/a	Yes	2.621	n/a	n/a	GoodResponse	0	0.0	n/a	2	32	ISIslide	AvoidedLoss	False
318.525	0.25	Win2	0.6175999999999999	0.0	Yes	2.675	0.025	n/a	GoodResponse	1	n/a	n/a	3	33	Cue	Win	False
318.775	4.0	Win2	0.6175999999999999	0.0	Yes	2.675	0.0	4.0	GoodResponse	1	0.057	317.832	3	33	Fixation	Win	False
318.832	0.3	Win2	0.6175999999999999	0.0	Yes	2.675	0.0	4.0	GoodResponse	1	0.057	n/a	3	33	ButtonPress	Win	False
322.774	0.23	Win2	0.6175999999999999	0.001	Yes	2.675	-0.001	4.0	GoodResponse	1	0.204	321.978	3	33	Target	Win	False
322.978	0.3	Win2	0.6175999999999999	0.001	Yes	2.675	-0.001	4.0	GoodResponse	1	0.204	n/a	3	33	ButtonPress	Win	False
323.007	0.47	Win2	0.6175999999999999	n/a	Yes	2.675	n/a	n/a	GoodResponse	1	n/a	n/a	3	33	Blank	Win	False
323.474	1.45	Win2	0.6175999999999999	n/a	Yes	2.675	n/a	5.0	GoodResponse	1	0.015	322.489	3	33	Feedback	Win	False
324.923	2.675	Win2	0.6175999999999999	n/a	Yes	2.675	n/a	n/a	GoodResponse	1	0.0	n/a	3	33	ISIslide	Win	False
327.622	0.25	Lose2	0.6286	0.0	Yes	2.628	0.022	n/a	GoodResponse	0	n/a	n/a	3	34	Cue	AvoidedLoss	False
327.872	4.05	Lose2	0.6286	0.0	Yes	2.628	0.0	4.0	GoodResponse	0	0.011	326.883	3	34	Fixation	AvoidedLoss	False
327.883	0.3	Lose2	0.6286	0.0	Yes	2.628	0.0	4.0	GoodResponse	0	0.011	n/a	3	34	ButtonPress	AvoidedLoss	False
331.921	0.24	Lose2	0.6286	0.001	Yes	2.628	-0.001	4.0	GoodResponse	0	0.18	331.101	3	34	Target	AvoidedLoss	False
332.101	0.3	Lose2	0.6286	0.001	Yes	2.628	-0.001	4.0	GoodResponse	0	0.18	n/a	3	34	ButtonPress	AvoidedLoss	False
332.171	0.46	Lose2	0.6286	n/a	Yes	2.628	n/a	n/a	GoodResponse	0	n/a	n/a	3	34	Blank	AvoidedLoss	False
332.621	1.45	Lose2	0.6286	n/a	Yes	2.628	n/a	5.0	GoodResponse	0	0.039	331.66	3	34	Feedback	AvoidedLoss	False
334.07	2.628	Lose2	0.6286	n/a	Yes	2.628	n/a	n/a	GoodResponse	0	0.0	n/a	3	34	ISIslide	AvoidedLoss	False
336.719	0.25	Lose2	0.6389	0.0	Yes	2.681	0.019	4.0	GoodResponse	0	0.236	335.955	3	35	Cue	AvoidedLoss	False
336.955	0.3	Lose2	0.6389	0.0	Yes	2.681	0.019	4.0	GoodResponse	0	0.236	n/a	3	35	ButtonPress	AvoidedLoss	False
336.969	4.0	Lose2	0.6389	0.0	Yes	2.681	0.0	n/a	GoodResponse	0	n/a	n/a	3	35	Fixation	AvoidedLoss	False
340.968	0.25	Lose2	0.6389	0.001	Yes	2.681	-0.001	4.0	GoodResponse	0	0.214	340.182	3	35	Target	AvoidedLoss	False
341.182	0.3	Lose2	0.6389	0.001	Yes	2.681	-0.001	4.0	GoodResponse	0	0.214	n/a	3	35	ButtonPress	AvoidedLoss	False
341.218	0.45	Lose2	0.6389	n/a	Yes	2.681	n/a	n/a	GoodResponse	0	n/a	n/a	3	35	Blank	AvoidedLoss	False
341.667	1.45	Lose2	0.6389	n/a	Yes	2.681	n/a	5.0	GoodResponse	0	0.018	340.685	3	35	Feedback	AvoidedLoss	False
343.117	2.681	Lose2	0.6389	n/a	Yes	2.681	n/a	n/a	GoodResponse	0	0.0	n/a	3	35	ISIslide	AvoidedLoss	False
345.816	0.25	Control	0.6486	0.0	Yes	2.684	0.016	n/a	GoodResponse	0	n/a	n/a	3	36	Cue	Neutral	False
346.066	4.0	Control	0.6486	0.0	Yes	2.684	0.0	4.0	GoodResponse	0	0.021	345.087	3	36	Fixation	Neutral	False
346.087	0.3	Control	0.6486	0.0	Yes	2.684	0.0	4.0	GoodResponse	0	0.021	n/a	3	36	ButtonPress	Neutral	False
350.065	0.26	Control	0.6486	0.001	Yes	2.684	-0.001	4.0	GoodResponse	0	0.244	349.309	3	36	Target	Neutral	False
350.309	0.3	Control	0.6486	0.001	Yes	2.684	-0.001	4.0	GoodResponse	0	0.244	n/a	3	36	ButtonPress	Neutral	False
350.331	0.44	Control	0.6486	n/a	Yes	2.684	n/a	n/a	GoodResponse	0	n/a	n/a	3	36	Blank	Neutral	False
350.764	1.45	Control	0.6486	n/a	Yes	2.684	n/a	5.0	GoodResponse	0	0.043	349.807	3	36	Feedback	Neutral	False
352.214	2.684	Control	0.6486	n/a	Yes	2.684	n/a	n/a	GoodResponse	0	0.0	n/a	3	36	ISIslide	Neutral	False
354.93	0.25	Win2	0.6579	0.0	Yes	2.87	0.03	n/a	GoodResponse	1	n/a	n/a	4	37	Cue	Win	False
355.18	4.0	Win2	0.6579	0.0	Yes	2.87	0.0	4.0	GoodResponse	1	0.194	354.374	4	37	Fixation	Win	False
355.374	0.3	Win2	0.6579	0.0	Yes	2.87	0.0	4.0	GoodResponse	1	0.194	n/a	4	37	ButtonPress	Win	False
359.178	0.27	Win2	0.6579	0.002	Yes	2.87	-0.002	4.0	GoodResponse	1	0.237	358.415	4	37	Target	Win	False
359.415	0.3	Win2	0.6579	0.002	Yes	2.87	-0.002	4.0	GoodResponse	1	0.237	n/a	4	37	ButtonPress	Win	False
359.461	0.43	Win2	0.6579	n/a	Yes	2.87	n/a	n/a	GoodResponse	1	n/a	n/a	4	37	Blank	Win	False
359.878	1.45	Win2	0.6579	n/a	Yes	2.87	n/a	5.0	GoodResponse	1	0.002	358.88	4	37	Feedback	Win	False
361.327	2.87	Win2	0.6579	n/a	Yes	2.87	n/a	n/a	GoodResponse	1	0.0	n/a	4	37	ISIslide	Win	False
364.226	0.25	Lose2	0.6409999999999999	0.001	No	2.824	0.026	4.0	NoResponse	-1	0.231	363.457	3	38	Cue	Loss	False
364.457	0.3	Lose2	0.6409999999999999	0.001	No	2.824	0.026	4.0	NoResponse	-1	0.231	n/a	3	38	ButtonPress	Loss	False
364.476	3.95	Lose2	0.6409999999999999	0.0	No	2.824	0.0	4.0	NoResponse	-1	3.793	367.269	3	38	Fixation	Loss	False
368.269	0.3	Lose2	0.6409999999999999	0.0	No	2.824	0.0	4.0	NoResponse	-1	3.793	n/a	3	38	ButtonPress	Loss	False
368.425	0.27	Lose2	0.6409999999999999	0.001	No	2.824	-0.001	4.0	NoResponse	-1	0.384	367.809	3	38	Target	Loss	False
368.692	0.43	Lose2	0.6409999999999999	n/a	No	2.824	n/a	n/a	NoResponse	-1	n/a	n/a	3	38	Blank	Loss	False
368.809	0.3	Lose2	0.6409999999999999	0.001	No	2.824	-0.001	4.0	NoResponse	-1	0.384	n/a	3	38	ButtonPress	Loss	False
369.125	1.45	Lose2	0.6409999999999999	n/a	No	2.824	n/a	5.0	NoResponse	-1	0.023	368.148	3	38	Feedback	Loss	False
370.574	2.824	Lose2	0.6409999999999999	n/a	No	2.824	n/a	n/a	NoResponse	-1	0.0	n/a	3	38	ISIslide	Loss	False
373.423	0.25	Win2	0.65	0.0	Yes	2.977	0.023	n/a	GoodResponse	1	n/a	n/a	4	39	Cue	Win	False
373.673	4.1	Win2	0.65	0.0	Yes	2.977	0.0	4.0	GoodResponse	1	0.14	372.813	4	39	Fixation	Win	False
373.813	0.3	Win2	0.65	0.0	Yes	2.977	0.0	4.0	GoodResponse	1	0.14	n/a	4	39	ButtonPress	Win	False
377.772	0.28	Win2	0.65	0.001	Yes	2.977	-0.001	4.0	GoodResponse	1	0.233	377.005	4	39	Target	Win	False
378.005	0.3	Win2	0.65	0.001	Yes	2.977	-0.001	4.0	GoodResponse	1	0.233	n/a	4	39	ButtonPress	Win	False
378.055	0.42	Win2	0.65	n/a	Yes	2.977	n/a	n/a	GoodResponse	1	n/a	n/a	4	39	Blank	Win	False
378.472	1.45	Win2	0.65	n/a	Yes	2.977	n/a	5.0	GoodResponse	1	0.042	377.514	4	39	Feedback	Win	False
379.921	2.977	Win2	0.65	n/a	Yes	2.977	n/a	n/a	GoodResponse	1	0.0	n/a	4	39	ISIslide	Win	False
382.92	0.25	Win2	0.6585	0.0	Yes	2.73	0.02	n/a	GoodResponse	1	n/a	n/a	5	40	Cue	Win	False
383.17	3.95	Win2	0.6585	0.0	Yes	2.73	0.0	4.0	GoodResponse	1	0.007	382.177	5	40	Fixation	Win	False
383.177	0.3	Win2	0.6585	0.0	Yes	2.73	0.0	4.0	GoodResponse	1	0.007	n/a	5	40	ButtonPress	Win	False
387.119	0.29	Win2	0.6585	0.001	Yes	2.73	-0.001	4.0	GoodResponse	1	0.227	386.346	5	40	Target	Win	False
387.346	0.3	Win2	0.6585	0.001	Yes	2.73	-0.001	4.0	GoodResponse	1	0.227	n/a	5	40	ButtonPress	Win	False
387.418	0.41	Win2	0.6585	n/a	Yes	2.73	n/a	n/a	GoodResponse	1	n/a	n/a	5	40	Blank	Win	False
387.818	1.45	Win2	0.6585	n/a	Yes	2.73	n/a	5.0	GoodResponse	1	0.013	386.831	5	40	Feedback	Win	False
389.268	2.73	Win2	0.6585	n/a	Yes	2.73	n/a	n/a	GoodResponse	1	0.0	n/a	5	40	ISIslide	Win	False
392.017	0.25	Win2	0.6667000000000001	0.0	Yes	2.783	0.017	n/a	GoodResponse	1	n/a	n/a	6	41	Cue	Win	False
392.267	3.9	Win2	0.6667000000000001	0.0	Yes	2.783	0.0	4.0	GoodResponse	1	0.024	391.291	6	41	Fixation	Win	False
392.291	0.3	Win2	0.6667000000000001	0.0	Yes	2.783	0.0	4.0	GoodResponse	1	0.024	n/a	6	41	ButtonPress	Win	False
396.165	0.29	Win2	0.6667000000000001	0.002	Yes	2.783	-0.002	4.0	GoodResponse	1	0.23	395.395	6	41	Target	Win	False
396.395	0.3	Win2	0.6667000000000001	0.002	Yes	2.783	-0.002	4.0	GoodResponse	1	0.23	n/a	6	41	ButtonPress	Win	False
396.465	0.41	Win2	0.6667000000000001	n/a	Yes	2.783	n/a	n/a	GoodResponse	1	n/a	n/a	6	41	Blank	Win	False
396.865	1.45	Win2	0.6667000000000001	n/a	Yes	2.783	n/a	5.0	GoodResponse	1	0.039	395.904	6	41	Feedback	Win	False
398.315	2.783	Win2	0.6667000000000001	n/a	Yes	2.783	n/a	n/a	GoodResponse	1	0.0	n/a	6	41	ISIslide	Win	False
401.13	0.25	Control	0.6744	0.001	Yes	2.92	0.03	4.0	GoodResponse	0	0.229	400.359	6	42	Cue	Neutral	False
401.359	0.3	Control	0.6744	0.001	Yes	2.92	0.03	4.0	GoodResponse	0	0.229	n/a	6	42	ButtonPress	Neutral	False
401.38	3.85	Control	0.6744	0.0	Yes	2.92	0.0	n/a	GoodResponse	0	n/a	n/a	6	42	Fixation	Neutral	False
405.229	0.28	Control	0.6744	0.001	Yes	2.92	-0.001	4.0	GoodResponse	0	0.273	404.502	6	42	Target	Neutral	False
405.502	0.3	Control	0.6744	0.001	Yes	2.92	-0.001	4.0	GoodResponse	0	0.273	n/a	6	42	ButtonPress	Neutral	False
405.512	0.42	Control	0.6744	n/a	Yes	2.92	n/a	n/a	GoodResponse	0	n/a	n/a	6	42	Blank	Neutral	False
405.929	1.45	Control	0.6744	n/a	Yes	2.92	n/a	5.0	GoodResponse	0	0.048	404.977	6	42	Feedback	Neutral	False
407.378	2.92	Control	0.6744	n/a	Yes	2.92	n/a	n/a	GoodResponse	0	0.0	n/a	6	42	ISIslide	Neutral	False
410.327	0.25	Win2	0.6818000000000001	0.0	Yes	3.173	0.027	4.0	GoodResponse	1	0.236	409.563	7	43	Cue	Win	False
410.563	0.3	Win2	0.6818000000000001	0.0	Yes	3.173	0.027	4.0	GoodResponse	1	0.236	n/a	7	43	ButtonPress	Win	False
410.577	4.0	Win2	0.6818000000000001	0.0	Yes	3.173	0.0	n/a	GoodResponse	1	n/a	n/a	7	43	Fixation	Win	False
414.576	0.27	Win2	0.6818000000000001	0.001	Yes	3.173	-0.001	4.0	GoodResponse	1	0.245	413.821	7	43	Target	Win	False
414.821	0.3	Win2	0.6818000000000001	0.001	Yes	3.173	-0.001	4.0	GoodResponse	1	0.245	n/a	7	43	ButtonPress	Win	False
414.842	0.43	Win2	0.6818000000000001	n/a	Yes	3.173	n/a	n/a	GoodResponse	1	n/a	n/a	7	43	Blank	Win	False
415.276	1.45	Win2	0.6818000000000001	n/a	Yes	3.173	n/a	5.0	GoodResponse	1	0.018	414.294	7	43	Feedback	Win	False
416.725	3.173	Win2	0.6818000000000001	n/a	Yes	3.173	n/a	n/a	GoodResponse	1	0.0	n/a	7	43	ISIslide	Win	False
419.924	0.25	Win2	0.6889	0.0	Yes	2.976	0.024	4.0	GoodResponse	1	0.233	419.157	8	44	Cue	Win	False
420.157	0.3	Win2	0.6889	0.0	Yes	2.976	0.024	4.0	GoodResponse	1	0.233	n/a	8	44	ButtonPress	Win	False
420.174	4.0	Win2	0.6889	0.0	Yes	2.976	0.0	n/a	GoodResponse	1	n/a	n/a	8	44	Fixation	Win	False
424.173	0.26	Win2	0.6889	0.001	Yes	2.976	-0.001	4.0	GoodResponse	1	0.226	423.399	8	44	Target	Win	False
424.399	0.3	Win2	0.6889	0.001	Yes	2.976	-0.001	4.0	GoodResponse	1	0.226	n/a	8	44	ButtonPress	Win	False
424.439	0.44	Win2	0.6889	n/a	Yes	2.976	n/a	n/a	GoodResponse	1	n/a	n/a	8	44	Blank	Win	False
424.872	1.45	Win2	0.6889	n/a	Yes	2.976	n/a	5.0	GoodResponse	1	0.032	423.904	8	44	Feedback	Win	False
426.322	2.976	Win2	0.6889	n/a	Yes	2.976	n/a	n/a	GoodResponse	1	0.0	n/a	8	44	ISIslide	Win	False
429.321	0.25	Control	0.6739	0.0	No	2.879	0.021	4.0	NoResponse	0	0.243	428.564	8	45	Cue	Neutral	False
429.564	0.3	Control	0.6739	0.0	No	2.879	0.021	4.0	NoResponse	0	0.243	n/a	8	45	ButtonPress	Neutral	False
429.571	4.1	Control	0.6739	0.0	No	2.879	0.0	n/a	NoResponse	0	n/a	n/a	8	45	Fixation	Neutral	False
433.669	0.25	Control	0.6739	0.002	No	2.879	-0.002	4.0	NoResponse	0	0.282	432.951	8	45	Target	Neutral	False
433.919	0.45	Control	0.6739	n/a	No	2.879	n/a	n/a	NoResponse	0	n/a	n/a	8	45	Blank	Neutral	False
433.951	0.3	Control	0.6739	0.002	No	2.879	-0.002	4.0	NoResponse	0	0.282	n/a	8	45	ButtonPress	Neutral	False
434.369	1.45	Control	0.6739	n/a	No	2.879	n/a	5.0	NoResponse	0	0.047	433.416	8	45	Feedback	Neutral	False
435.819	2.879	Control	0.6739	n/a	No	2.879	n/a	n/a	NoResponse	0	0.0	n/a	8	45	ISIslide	Neutral	False
438.718	0.25	Lose2	0.6809000000000001	0.0	Yes	3.382	0.018	n/a	GoodResponse	0	n/a	n/a	8	46	Cue	AvoidedLoss	False
438.968	4.0	Lose2	0.6809000000000001	0.0	Yes	3.382	0.0	4.0	GoodResponse	0	0.006	437.974	8	46	Fixation	AvoidedLoss	False
438.974	0.3	Lose2	0.6809000000000001	0.0	Yes	3.382	0.0	4.0	GoodResponse	0	0.006	n/a	8	46	ButtonPress	AvoidedLoss	False
442.966	0.24	Lose2	0.6809000000000001	0.002	Yes	3.382	-0.002	4.0	GoodResponse	0	0.21	442.176	8	46	Target	AvoidedLoss	False
443.176	0.3	Lose2	0.6809000000000001	0.002	Yes	3.382	-0.002	4.0	GoodResponse	0	0.21	n/a	8	46	ButtonPress	AvoidedLoss	False
443.216	0.46	Lose2	0.6809000000000001	n/a	Yes	3.382	n/a	n/a	GoodResponse	0	n/a	n/a	8	46	Blank	AvoidedLoss	False
443.666	1.45	Lose2	0.6809000000000001	n/a	Yes	3.382	n/a	5.0	GoodResponse	0	0.019	442.685	8	46	Feedback	AvoidedLoss	False
445.115	3.382	Lose2	0.6809000000000001	n/a	Yes	3.382	n/a	n/a	GoodResponse	0	0.0	n/a	8	46	ISIslide	AvoidedLoss	False
448.514	0.25	Lose2	0.6875	0.0	Yes	2.686	0.014	4.0	GoodResponse	0	0.22	447.734	8	47	Cue	AvoidedLoss	False
448.734	0.3	Lose2	0.6875	0.0	Yes	2.686	0.014	4.0	GoodResponse	0	0.22	n/a	8	47	ButtonPress	AvoidedLoss	False
448.764	4.0	Lose2	0.6875	0.0	Yes	2.686	0.0	n/a	GoodResponse	0	n/a	n/a	8	47	Fixation	AvoidedLoss	False
452.763	0.23	Lose2	0.6875	0.001	Yes	2.686	-0.001	4.0	GoodResponse	0	0.205	451.968	8	47	Target	AvoidedLoss	False
452.968	0.3	Lose2	0.6875	0.001	Yes	2.686	-0.001	4.0	GoodResponse	0	0.205	n/a	8	47	ButtonPress	AvoidedLoss	False
452.996	0.47	Lose2	0.6875	n/a	Yes	2.686	n/a	n/a	GoodResponse	0	n/a	n/a	8	47	Blank	AvoidedLoss	False
453.463	1.45	Lose2	0.6875	n/a	Yes	2.686	n/a	5.0	GoodResponse	0	0.027	452.49	8	47	Feedback	AvoidedLoss	False
454.912	2.686	Lose2	0.6875	n/a	Yes	2.686	n/a	n/a	GoodResponse	0	0.0	n/a	8	47	ISIslide	AvoidedLoss	False
457.628	0.25	Lose2	0.6735	0.0	No	3.022	0.028	n/a	LatePress	-1	n/a	n/a	7	48	Cue	Loss	False
457.878	3.95	Lose2	0.6735	0.0	No	3.022	0.0	4.0	LatePress	-1	0.012	456.89	7	48	Fixation	Loss	False
457.89	0.3	Lose2	0.6735	0.0	No	3.022	0.0	4.0	LatePress	-1	0.012	n/a	7	48	ButtonPress	Loss	False
461.826	0.22	Lose2	0.6735	0.002	No	3.022	-0.002	4.0	LatePress	-1	0.234	461.06	7	48	Target	Loss	False
462.06	0.48	Lose2	0.6735	n/a	No	3.022	n/a	n/a	LatePress	-1	n/a	n/a	7	48	Blank	Loss	False
462.06	0.3	Lose2	0.6735	0.002	No	3.022	-0.002	4.0	LatePress	-1	0.234	n/a	7	48	ButtonPress	Loss	False
462.526	1.45	Lose2	0.6735	n/a	No	3.022	n/a	5.0	LatePress	-1	0.037	461.563	7	48	Feedback	Loss	False
463.976	3.022	Lose2	0.6735	n/a	No	3.022	n/a	n/a	LatePress	-1	0.0	n/a	7	48	ISIslide	Loss	False
467.025	0.25	Control	0.66	0.0	No	2.875	0.025	n/a	NoResponse	0	n/a	n/a	7	49	Cue	Neutral	False
467.274	4.0	Control	0.66	0.001	No	2.875	-0.001	4.0	NoResponse	0	0.007	466.281	7	49	Fixation	Neutral	False
467.281	0.3	Control	0.66	0.001	No	2.875	-0.001	4.0	NoResponse	0	0.007	n/a	7	49	ButtonPress	Neutral	False
471.273	0.21	Control	0.66	0.002	No	2.875	-0.002	4.0	NoResponse	0	0.224	470.497	7	49	Target	Neutral	False
471.49	0.49	Control	0.66	n/a	No	2.875	n/a	n/a	NoResponse	0	n/a	n/a	7	49	Blank	Neutral	False
471.497	0.3	Control	0.66	0.002	No	2.875	-0.002	4.0	NoResponse	0	0.224	n/a	7	49	ButtonPress	Neutral	False
471.973	1.45	Control	0.66	n/a	No	2.875	n/a	5.0	NoResponse	0	0.007	470.98	7	49	Feedback	Neutral	False
473.422	2.875	Control	0.66	n/a	No	2.875	n/a	n/a	NoResponse	0	0.0	n/a	7	49	ISIslide	Neutral	False
476.321	0.25	Control	0.6470999999999999	0.0	No	2.779	0.021	n/a	NoResponse	0	n/a	n/a	7	50	Cue	Neutral	False
476.571	4.0	Control	0.6470999999999999	0.0	No	2.779	0.0	4.0	NoResponse	0	0.017	475.588	7	50	Fixation	Neutral	False
476.588	0.3	Control	0.6470999999999999	0.0	No	2.779	0.0	4.0	NoResponse	0	0.017	n/a	7	50	ButtonPress	Neutral	False
480.57	0.21	Control	0.6470999999999999	0.001	No	2.779	-0.001	4.0	NoResponse	0	0.229	479.799	7	50	Target	Neutral	False
480.787	0.49	Control	0.6470999999999999	n/a	No	2.779	n/a	n/a	NoResponse	0	n/a	n/a	7	50	Blank	Neutral	False
480.799	0.3	Control	0.6470999999999999	0.001	No	2.779	-0.001	4.0	NoResponse	0	0.229	n/a	7	50	ButtonPress	Neutral	False
481.27	1.45	Control	0.6470999999999999	n/a	No	2.779	n/a	5.0	NoResponse	0	0.024	480.294	7	50	Feedback	Neutral	False
482.719	2.779	Control	0.6470999999999999	n/a	No	2.779	n/a	n/a	NoResponse	0	0.0	n/a	7	50	ISIslide	Neutral	False
485.518	0.25	Control	0.6346	0.0	No	2.732	0.018	4.0	NoResponse	0	0.249	484.767	7	51	Cue	Neutral	False
485.767	0.3	Control	0.6346	0.0	No	2.732	0.018	4.0	NoResponse	0	0.249	n/a	7	51	ButtonPress	Neutral	False
485.768	3.95	Control	0.6346	0.0	No	2.732	0.0	n/a	NoResponse	0	n/a	n/a	7	51	Fixation	Neutral	False
489.717	0.22	Control	0.6346	0.001	No	2.732	-0.001	4.0	NoResponse	0	0.267	488.984	7	51	Target	Neutral	False
489.933	0.48	Control	0.6346	n/a	No	2.732	n/a	n/a	NoResponse	0	n/a	n/a	7	51	Blank	Neutral	False
489.984	0.3	Control	0.6346	0.001	No	2.732	-0.001	4.0	NoResponse	0	0.267	n/a	7	51	ButtonPress	Neutral	False
490.417	1.45	Control	0.6346	n/a	No	2.732	n/a	5.0	NoResponse	0	0.048	489.465	7	51	Feedback	Neutral	False
491.866	2.732	Control	0.6346	n/a	No	2.732	n/a	n/a	NoResponse	0	0.0	n/a	7	51	ISIslide	Neutral	False
494.615	0.25	Control	0.6225999999999999	0.0	No	2.635	0.015	n/a	NoResponse	0	n/a	n/a	7	52	Cue	Neutral	False
494.865	4.05	Control	0.6225999999999999	0.0	No	2.635	0.0	4.0	NoResponse	0	0.0	493.865	7	52	Fixation	Neutral	False
494.865	0.3	Control	0.6225999999999999	0.0	No	2.635	0.0	4.0	NoResponse	0	0.0	n/a	7	52	ButtonPress	Neutral	False
498.914	0.23	Control	0.6225999999999999	0.001	No	2.635	-0.001	4.0	NoResponse	0	0.276	498.19	7	52	Target	Neutral	False
499.147	0.47	Control	0.6225999999999999	n/a	No	2.635	n/a	n/a	NoResponse	0	n/a	n/a	7	52	Blank	Neutral	False
499.19	0.3	Control	0.6225999999999999	0.001	No	2.635	-0.001	4.0	NoResponse	0	0.276	n/a	7	52	ButtonPress	Neutral	False
499.613	1.45	Control	0.6225999999999999	n/a	No	2.635	n/a	5.0	NoResponse	0	0.023	498.636	7	52	Feedback	Neutral	False
501.063	2.635	Control	0.6225999999999999	n/a	No	2.635	n/a	n/a	NoResponse	0	0.0	n/a	7	52	ISIslide	Neutral	False
503.729	0.25	Win2	0.6296	0.0	Yes	2.921	0.029	n/a	GoodResponse	1	n/a	n/a	8	53	Cue	Win	False
503.979	4.05	Win2	0.6296	0.0	Yes	2.921	0.0	4.0	GoodResponse	1	0.007	502.986	8	53	Fixation	Win	False
503.986	0.3	Win2	0.6296	0.0	Yes	2.921	0.0	4.0	GoodResponse	1	0.007	n/a	8	53	ButtonPress	Win	False
508.027	0.24	Win2	0.6296	0.002	Yes	2.921	-0.002	4.0	GoodResponse	1	0.209	507.236	8	53	Target	Win	False
508.236	0.3	Win2	0.6296	0.002	Yes	2.921	-0.002	4.0	GoodResponse	1	0.209	n/a	8	53	ButtonPress	Win	False
508.277	0.46	Win2	0.6296	n/a	Yes	2.921	n/a	n/a	GoodResponse	1	n/a	n/a	8	53	Blank	Win	False
508.727	1.45	Win2	0.6296	n/a	Yes	2.921	n/a	5.0	GoodResponse	1	0.031	507.758	8	53	Feedback	Win	False
510.176	2.921	Win2	0.6296	n/a	Yes	2.921	n/a	n/a	GoodResponse	1	0.0	n/a	8	53	ISIslide	Win	False
513.125	0.25	Win2	0.6364	0.001	Yes	2.725	0.025	n/a	GoodResponse	1	n/a	n/a	9	54	Cue	Win	False
513.375	3.95	Win2	0.6364	0.0	Yes	2.725	0.0	4.0	GoodResponse	1	0.024	512.399	9	54	Fixation	Win	False
513.399	0.3	Win2	0.6364	0.0	Yes	2.725	0.0	4.0	GoodResponse	1	0.024	n/a	9	54	ButtonPress	Win	False
517.324	0.25	Win2	0.6364	0.001	Yes	2.725	-0.001	4.0	GoodResponse	1	0.213	516.537	9	54	Target	Win	False
517.537	0.3	Win2	0.6364	0.001	Yes	2.725	-0.001	4.0	GoodResponse	1	0.213	n/a	9	54	ButtonPress	Win	False
517.574	0.45	Win2	0.6364	n/a	Yes	2.725	n/a	n/a	GoodResponse	1	n/a	n/a	9	54	Blank	Win	False
518.024	1.45	Win2	0.6364	n/a	Yes	2.725	n/a	5.0	GoodResponse	1	0.006	517.03	9	54	Feedback	Win	False
519.473	2.725	Win2	0.6364	n/a	Yes	2.725	n/a	n/a	GoodResponse	1	0.0	n/a	9	54	ISIslide	Win	False
522.222	0.25	Control	0.625	0.0	No	3.028	0.022	n/a	NoResponse	0	n/a	n/a	9	55	Cue	Neutral	False
522.472	3.95	Control	0.625	0.0	No	3.028	0.0	4.0	NoResponse	0	0.021	521.493	9	55	Fixation	Neutral	False
522.493	0.3	Control	0.625	0.0	No	3.028	0.0	4.0	NoResponse	0	0.021	n/a	9	55	ButtonPress	Neutral	False
526.421	0.26	Control	0.625	0.001	No	3.028	-0.001	4.0	NoResponse	0	0.278	525.699	9	55	Target	Neutral	False
526.687	0.44	Control	0.625	n/a	No	3.028	n/a	n/a	NoResponse	0	n/a	n/a	9	55	Blank	Neutral	False
526.699	0.3	Control	0.625	0.001	No	3.028	-0.001	4.0	NoResponse	0	0.278	n/a	9	55	ButtonPress	Neutral	False
527.121	1.45	Control	0.625	n/a	No	3.028	n/a	5.0	NoResponse	0	0.027	526.148	9	55	Feedback	Neutral	False
528.57	3.028	Control	0.625	n/a	No	3.028	n/a	n/a	NoResponse	0	0.0	n/a	9	55	ISIslide	Neutral	False
531.619	0.25	Control	0.614	0.0	No	2.831	0.019	n/a	NoResponse	0	n/a	n/a	9	56	Cue	Neutral	False
531.869	3.95	Control	0.614	0.0	No	2.831	0.0	4.0	NoResponse	0	0.013	530.882	9	56	Fixation	Neutral	False
531.882	0.3	Control	0.614	0.0	No	2.831	0.0	4.0	NoResponse	0	0.013	n/a	9	56	ButtonPress	Neutral	False
535.818	0.27	Control	0.614	0.001	No	2.831	-0.001	4.0	NoResponse	0	0.29	535.108	9	56	Target	Neutral	False
536.101	0.43	Control	0.614	n/a	No	2.831	n/a	n/a	NoResponse	0	n/a	n/a	9	56	Blank	Neutral	False
536.108	0.3	Control	0.614	0.001	No	2.831	-0.001	4.0	NoResponse	0	0.29	n/a	9	56	ButtonPress	Neutral	False
536.517	1.45	Control	0.614	n/a	No	2.831	n/a	5.0	NoResponse	0	0.046	535.563	9	56	Feedback	Neutral	False
537.967	2.831	Control	0.614	n/a	No	2.831	n/a	n/a	NoResponse	0	0.0	n/a	9	56	ISIslide	Neutral	False
540.816	0.25	Control	0.6034	0.0	No	3.484	0.016	4.0	NoResponse	0	0.245	540.061	9	57	Cue	Neutral	False
541.061	0.3	Control	0.6034	0.0	No	3.484	0.016	4.0	NoResponse	0	0.245	n/a	9	57	ButtonPress	Neutral	False
541.066	4.0	Control	0.6034	0.0	No	3.484	0.0	n/a	NoResponse	0	n/a	n/a	9	57	Fixation	Neutral	False
545.065	0.28	Control	0.6034	0.001	No	3.484	-0.001	4.0	NoResponse	0	0.3	544.365	9	57	Target	Neutral	False
545.348	0.42	Control	0.6034	n/a	No	3.484	n/a	n/a	NoResponse	0	n/a	n/a	9	57	Blank	Neutral	False
545.365	0.3	Control	0.6034	0.001	No	3.484	-0.001	4.0	NoResponse	0	0.3	n/a	9	57	ButtonPress	Neutral	False
545.764	1.45	Control	0.6034	n/a	No	3.484	n/a	5.0	NoResponse	0	0.019	544.783	9	57	Feedback	Neutral	False
547.214	3.484	Control	0.6034	n/a	No	3.484	n/a	n/a	NoResponse	0	0.0	n/a	9	57	ISIslide	Neutral	False
550.713	0.25	Win2	0.6102000000000001	0.0	Yes	2.737	0.013	4.0	GoodResponse	1	0.245	549.958	10	58	Cue	Win	False
550.958	0.3	Win2	0.6102000000000001	0.0	Yes	2.737	0.013	4.0	GoodResponse	1	0.245	n/a	10	58	ButtonPress	Win	False
550.963	4.05	Win2	0.6102000000000001	0.0	Yes	2.737	0.0	n/a	GoodResponse	1	n/a	n/a	10	58	Fixation	Win	False
555.011	0.29	Win2	0.6102000000000001	0.002	Yes	2.737	-0.002	4.0	GoodResponse	1	0.207	554.218	10	58	Target	Win	False
555.218	0.3	Win2	0.6102000000000001	0.002	Yes	2.737	-0.002	4.0	GoodResponse	1	0.207	n/a	10	58	ButtonPress	Win	False
555.311	0.41	Win2	0.6102000000000001	n/a	Yes	2.737	n/a	n/a	GoodResponse	1	n/a	n/a	10	58	Blank	Win	False
555.711	1.45	Win2	0.6102000000000001	n/a	Yes	2.737	n/a	5.0	GoodResponse	1	0.022	554.733	10	58	Feedback	Win	False
557.16	2.737	Win2	0.6102000000000001	n/a	Yes	2.737	n/a	n/a	GoodResponse	1	0.0	n/a	10	58	ISIslide	Win	False
559.926	0.25	Lose2	0.6167	0.0	Yes	2.674	0.026	n/a	GoodResponse	0	n/a	n/a	10	59	Cue	AvoidedLoss	False
560.176	4.0	Lose2	0.6167	0.0	Yes	2.674	0.0	4.0	GoodResponse	0	0.19	559.366	10	59	Fixation	AvoidedLoss	False
560.366	0.3	Lose2	0.6167	0.0	Yes	2.674	0.0	4.0	GoodResponse	0	0.19	n/a	10	59	ButtonPress	AvoidedLoss	False
564.175	0.3	Lose2	0.6167	0.001	Yes	2.674	-0.001	4.0	GoodResponse	0	0.222	563.397	10	59	Target	AvoidedLoss	False
564.397	0.3	Lose2	0.6167	0.001	Yes	2.674	-0.001	4.0	GoodResponse	0	0.222	n/a	10	59	ButtonPress	AvoidedLoss	False
564.475	0.4	Lose2	0.6167	n/a	Yes	2.674	n/a	n/a	GoodResponse	0	n/a	n/a	10	59	Blank	AvoidedLoss	False
564.874	1.45	Lose2	0.6167	n/a	Yes	2.674	n/a	5.0	GoodResponse	0	0.03	563.904	10	59	Feedback	AvoidedLoss	False
566.324	2.674	Lose2	0.6167	n/a	Yes	2.674	n/a	n/a	GoodResponse	0	0.0	n/a	10	59	ISIslide	AvoidedLoss	False
569.023	0.25	Control	0.623	0.0	Yes	2.677	0.023	4.0	GoodResponse	0	0.244	568.267	10	60	Cue	Neutral	False
569.267	0.3	Control	0.623	0.0	Yes	2.677	0.023	4.0	GoodResponse	0	0.244	n/a	10	60	ButtonPress	Neutral	False
569.273	4.0	Control	0.623	0.0	Yes	2.677	0.0	n/a	GoodResponse	0	n/a	n/a	10	60	Fixation	Neutral	False
573.272	0.31	Control	0.623	0.001	Yes	2.677	-0.001	4.0	GoodResponse	0	0.209	572.481	10	60	Target	Neutral	False
573.481	0.3	Control	0.623	0.001	Yes	2.677	-0.001	4.0	GoodResponse	0	0.209	n/a	10	60	ButtonPress	Neutral	False
573.588	0.39	Control	0.623	n/a	Yes	2.677	n/a	n/a	GoodResponse	0	n/a	n/a	10	60	Blank	Neutral	False
573.971	1.45	Control	0.623	n/a	Yes	2.677	n/a	5.0	GoodResponse	0	0.006	572.977	10	60	Feedback	Neutral	False
575.421	2.677	Control	0.623	n/a	Yes	2.677	n/a	n/a	GoodResponse	0	0.0	n/a	10	60	ISIslide	Neutral	False
578.12	0.25	Lose2	0.629	0.0	Yes	2.98	0.02	n/a	GoodResponse	0	n/a	n/a	10	61	Cue	AvoidedLoss	False
578.37	4.0	Lose2	0.629	0.0	Yes	2.98	0.0	4.0	GoodResponse	0	0.005	577.375	10	61	Fixation	AvoidedLoss	False
578.375	0.3	Lose2	0.629	0.0	Yes	2.98	0.0	4.0	GoodResponse	0	0.005	n/a	10	61	ButtonPress	AvoidedLoss	False
582.368	0.32	Lose2	0.629	0.002	Yes	2.98	-0.002	4.0	GoodResponse	0	0.192	581.56	10	61	Target	AvoidedLoss	False
582.56	0.3	Lose2	0.629	0.002	Yes	2.98	-0.002	4.0	GoodResponse	0	0.192	n/a	10	61	ButtonPress	AvoidedLoss	False
582.702	0.38	Lose2	0.629	n/a	Yes	2.98	n/a	n/a	GoodResponse	0	n/a	n/a	10	61	Blank	AvoidedLoss	False
583.068	1.45	Lose2	0.629	n/a	Yes	2.98	n/a	5.0	GoodResponse	0	0.031	582.099	10	61	Feedback	AvoidedLoss	False
584.518	2.98	Lose2	0.629	n/a	Yes	2.98	n/a	n/a	GoodResponse	0	0.0	n/a	10	61	ISIslide	AvoidedLoss	False
587.517	0.25	Lose2	0.6349	0.0	Yes	2.883	0.017	n/a	GoodResponse	0	n/a	n/a	10	62	Cue	AvoidedLoss	False
587.767	3.9	Lose2	0.6349	0.0	Yes	2.883	0.0	4.0	GoodResponse	0	0.006	586.773	10	62	Fixation	AvoidedLoss	False
587.773	0.3	Lose2	0.6349	0.0	Yes	2.883	0.0	4.0	GoodResponse	0	0.006	n/a	10	62	ButtonPress	AvoidedLoss	False
591.665	0.33	Lose2	0.6349	0.002	Yes	2.883	-0.002	4.0	GoodResponse	0	0.222	590.887	10	62	Target	AvoidedLoss	False
591.887	0.3	Lose2	0.6349	0.002	Yes	2.883	-0.002	4.0	GoodResponse	0	0.222	n/a	10	62	ButtonPress	AvoidedLoss	False
591.998	0.37	Lose2	0.6349	n/a	Yes	2.883	n/a	n/a	GoodResponse	0	n/a	n/a	10	62	Blank	AvoidedLoss	False
592.365	1.45	Lose2	0.6349	n/a	Yes	2.883	n/a	5.0	GoodResponse	0	0.006	591.371	10	62	Feedback	AvoidedLoss	False
593.814	2.883	Lose2	0.6349	n/a	Yes	2.883	n/a	n/a	GoodResponse	0	0.0	n/a	10	62	ISIslide	AvoidedLoss	False
596.714	0.25	Lose2	0.6406000000000001	0.0	Yes	2.636	0.014	4.0	GoodResponse	0	0.235	595.949	10	63	Cue	AvoidedLoss	False
596.949	0.3	Lose2	0.6406000000000001	0.0	Yes	2.636	0.014	4.0	GoodResponse	0	0.235	n/a	10	63	ButtonPress	AvoidedLoss	False
596.963	4.05	Lose2	0.6406000000000001	0.001	Yes	2.636	-0.001	n/a	GoodResponse	0	n/a	n/a	10	63	Fixation	AvoidedLoss	False
601.012	0.34	Lose2	0.6406000000000001	0.002	Yes	2.636	-0.002	4.0	GoodResponse	0	0.228	600.24	10	63	Target	AvoidedLoss	False
601.24	0.3	Lose2	0.6406000000000001	0.002	Yes	2.636	-0.002	4.0	GoodResponse	0	0.228	n/a	10	63	ButtonPress	AvoidedLoss	False
601.362	0.36	Lose2	0.6406000000000001	n/a	Yes	2.636	n/a	n/a	GoodResponse	0	n/a	n/a	10	63	Blank	AvoidedLoss	False
601.712	1.45	Lose2	0.6406000000000001	n/a	Yes	2.636	n/a	5.0	GoodResponse	0	0.022	600.734	10	63	Feedback	AvoidedLoss	False
603.161	2.636	Lose2	0.6406000000000001	n/a	Yes	2.636	n/a	n/a	GoodResponse	0	0.0	n/a	10	63	ISIslide	AvoidedLoss	False
605.827	0.25	Win2	0.6462	0.0	Yes	3.123	0.027	n/a	GoodResponse	1	n/a	n/a	11	64	Cue	Win	False
606.077	4.15	Win2	0.6462	0.0	Yes	3.123	0.0	4.0	GoodResponse	1	0.007	605.084	11	64	Fixation	Win	False
606.084	0.3	Win2	0.6462	0.0	Yes	3.123	0.0	4.0	GoodResponse	1	0.007	n/a	11	64	ButtonPress	Win	False
610.226	0.35	Win2	0.6462	0.001	Yes	3.123	-0.001	4.0	GoodResponse	1	0.224	609.45	11	64	Target	Win	False
610.45	0.3	Win2	0.6462	0.001	Yes	3.123	-0.001	4.0	GoodResponse	1	0.224	n/a	11	64	ButtonPress	Win	False
610.575	0.35	Win2	0.6462	n/a	Yes	3.123	n/a	n/a	GoodResponse	1	n/a	n/a	11	64	Blank	Win	False
610.925	1.45	Win2	0.6462	n/a	Yes	3.123	n/a	5.0	GoodResponse	1	0.028	609.953	11	64	Feedback	Win	False
612.375	3.123	Win2	0.6462	n/a	Yes	3.123	n/a	n/a	GoodResponse	1	0.0	n/a	11	64	ISIslide	Win	False
615.524	0.25	Control	0.6515000000000001	0.0	Yes	2.776	0.024	n/a	GoodResponse	0	n/a	n/a	11	65	Cue	Neutral	False
615.774	4.0	Control	0.6515000000000001	0.0	Yes	2.776	0.0	4.0	GoodResponse	0	0.019	614.793	11	65	Fixation	Neutral	False
615.793	0.3	Control	0.6515000000000001	0.0	Yes	2.776	0.0	4.0	GoodResponse	0	0.019	n/a	11	65	ButtonPress	Neutral	False
619.772	0.36	Control	0.6515000000000001	0.002	Yes	2.776	-0.002	4.0	GoodResponse	0	0.227	618.999	11	65	Target	Neutral	False
619.999	0.3	Control	0.6515000000000001	0.002	Yes	2.776	-0.002	4.0	GoodResponse	0	0.227	n/a	11	65	ButtonPress	Neutral	False
620.139	0.34	Control	0.6515000000000001	n/a	Yes	2.776	n/a	n/a	GoodResponse	0	n/a	n/a	11	65	Blank	Neutral	False
620.472	1.45	Control	0.6515000000000001	n/a	Yes	2.776	n/a	5.0	GoodResponse	0	0.041	619.513	11	65	Feedback	Neutral	False
621.922	2.776	Control	0.6515000000000001	n/a	Yes	2.776	n/a	n/a	GoodResponse	0	0.0	n/a	11	65	ISIslide	Neutral	False
624.721	0.25	Win2	0.6567000000000001	0.0	Yes	2.779	0.021	n/a	GoodResponse	1	n/a	n/a	12	66	Cue	Win	False
624.97	3.9	Win2	0.6567000000000001	0.001	Yes	2.779	-0.001	4.0	GoodResponse	1	0.032	624.002	12	66	Fixation	Win	False
625.002	0.3	Win2	0.6567000000000001	0.001	Yes	2.779	-0.001	4.0	GoodResponse	1	0.032	n/a	12	66	ButtonPress	Win	False
628.869	0.37	Win2	0.6567000000000001	0.002	Yes	2.779	-0.002	4.0	GoodResponse	1	0.214	628.083	12	66	Target	Win	False
629.083	0.3	Win2	0.6567000000000001	0.002	Yes	2.779	-0.002	4.0	GoodResponse	1	0.214	n/a	12	66	ButtonPress	Win	False
629.252	0.33	Win2	0.6567000000000001	n/a	Yes	2.779	n/a	n/a	GoodResponse	1	n/a	n/a	12	66	Blank	Win	False
629.569	1.45	Win2	0.6567000000000001	n/a	Yes	2.779	n/a	5.0	GoodResponse	1	0.018	628.587	12	66	Feedback	Win	False
631.018	2.779	Win2	0.6567000000000001	n/a	Yes	2.779	n/a	n/a	GoodResponse	1	0.0	n/a	12	66	ISIslide	Win	False
633.817	0.25	Control	0.6618	0.001	Yes	2.733	0.017	n/a	GoodResponse	0	n/a	n/a	12	67	Cue	Neutral	False
634.067	3.95	Control	0.6618	0.0	Yes	2.733	0.0	4.0	GoodResponse	0	0.055	633.122	12	67	Fixation	Neutral	False
634.122	0.3	Control	0.6618	0.0	Yes	2.733	0.0	4.0	GoodResponse	0	0.055	n/a	12	67	ButtonPress	Neutral	False
638.016	0.37	Control	0.6618	0.001	Yes	2.733	-0.001	4.0	GoodResponse	0	0.249	637.265	12	67	Target	Neutral	False
638.265	0.3	Control	0.6618	0.001	Yes	2.733	-0.001	4.0	GoodResponse	0	0.249	n/a	12	67	ButtonPress	Neutral	False
638.383	0.33	Control	0.6618	n/a	Yes	2.733	n/a	n/a	GoodResponse	0	n/a	n/a	12	67	Blank	Neutral	False
638.716	1.45	Control	0.6618	n/a	Yes	2.733	n/a	5.0	GoodResponse	0	0.041	637.757	12	67	Feedback	Neutral	False
640.165	2.733	Control	0.6618	n/a	Yes	2.733	n/a	n/a	GoodResponse	0	0.0	n/a	12	67	ISIslide	Neutral	False
642.931	0.25	Win2	0.6667000000000001	0.0	Yes	3.069	0.031	4.0	GoodResponse	1	0.22	642.151	13	68	Cue	Win	False
643.151	0.3	Win2	0.6667000000000001	0.0	Yes	3.069	0.031	4.0	GoodResponse	1	0.22	n/a	13	68	ButtonPress	Win	False
643.181	4.0	Win2	0.6667000000000001	0.0	Yes	3.069	0.0	n/a	GoodResponse	1	n/a	n/a	13	68	Fixation	Win	False
647.18	0.37	Win2	0.6667000000000001	0.001	Yes	3.069	-0.001	4.0	GoodResponse	1	0.221	646.401	13	68	Target	Win	False
647.401	0.3	Win2	0.6667000000000001	0.001	Yes	3.069	-0.001	4.0	GoodResponse	1	0.221	n/a	13	68	ButtonPress	Win	False
647.563	0.33	Win2	0.6667000000000001	n/a	Yes	3.069	n/a	n/a	GoodResponse	1	n/a	n/a	13	68	Blank	Win	False
647.879	1.45	Win2	0.6667000000000001	n/a	Yes	3.069	n/a	5.0	GoodResponse	1	0.001	646.88	13	68	Feedback	Win	False
649.329	3.069	Win2	0.6667000000000001	n/a	Yes	3.069	n/a	n/a	GoodResponse	1	0.0	n/a	13	68	ISIslide	Win	False
652.428	0.25	Win2	0.6714	0.0	Yes	3.222	0.028	4.0	GoodResponse	1	0.244	651.672	14	69	Cue	Win	False
652.672	0.3	Win2	0.6714	0.0	Yes	3.222	0.028	4.0	GoodResponse	1	0.244	n/a	14	69	ButtonPress	Win	False
652.678	3.95	Win2	0.6714	0.0	Yes	3.222	0.0	n/a	GoodResponse	1	n/a	n/a	14	69	Fixation	Win	False
656.626	0.36	Win2	0.6714	0.002	Yes	3.222	-0.002	4.0	GoodResponse	1	0.236	655.862	14	69	Target	Win	False
656.862	0.3	Win2	0.6714	0.002	Yes	3.222	-0.002	4.0	GoodResponse	1	0.236	n/a	14	69	ButtonPress	Win	False
656.993	0.34	Win2	0.6714	n/a	Yes	3.222	n/a	n/a	GoodResponse	1	n/a	n/a	14	69	Blank	Win	False
657.326	1.45	Win2	0.6714	n/a	Yes	3.222	n/a	5.0	GoodResponse	1	0.017	656.343	14	69	Feedback	Win	False
658.776	3.222	Win2	0.6714	n/a	Yes	3.222	n/a	n/a	GoodResponse	1	0.0	n/a	14	69	ISIslide	Win	False
662.024	0.25	Lose2	0.6761	0.001	Yes	3.026	0.024	4.0	GoodResponse	0	0.22	661.244	14	70	Cue	AvoidedLoss	False
662.244	0.3	Lose2	0.6761	0.001	Yes	3.026	0.024	4.0	GoodResponse	0	0.22	n/a	14	70	ButtonPress	AvoidedLoss	False
662.274	4.05	Lose2	0.6761	0.0	Yes	3.026	0.0	n/a	GoodResponse	0	n/a	n/a	14	70	Fixation	AvoidedLoss	False
666.323	0.35	Lose2	0.6761	0.001	Yes	3.026	-0.001	4.0	GoodResponse	0	0.214	665.537	14	70	Target	AvoidedLoss	False
666.537	0.3	Lose2	0.6761	0.001	Yes	3.026	-0.001	4.0	GoodResponse	0	0.214	n/a	14	70	ButtonPress	AvoidedLoss	False
666.673	0.35	Lose2	0.6761	n/a	Yes	3.026	n/a	n/a	GoodResponse	0	n/a	n/a	14	70	Blank	AvoidedLoss	False
667.023	1.45	Lose2	0.6761	n/a	Yes	3.026	n/a	5.0	GoodResponse	0	0.028	666.051	14	70	Feedback	AvoidedLoss	False
668.472	3.026	Lose2	0.6761	n/a	Yes	3.026	n/a	n/a	GoodResponse	0	0.0	n/a	14	70	ISIslide	AvoidedLoss	False
671.521	0.25	Win2	0.6806	0.0	Yes	2.729	0.021	4.0	GoodResponse	1	0.242	670.763	15	71	Cue	Win	False
671.763	0.3	Win2	0.6806	0.0	Yes	2.729	0.021	4.0	GoodResponse	1	0.242	n/a	15	71	ButtonPress	Win	False
671.771	4.05	Win2	0.6806	0.0	Yes	2.729	0.0	n/a	GoodResponse	1	n/a	n/a	15	71	Fixation	Win	False
675.82	0.34	Win2	0.6806	0.001	Yes	2.729	-0.001	4.0	GoodResponse	1	0.218	675.038	15	71	Target	Win	False
676.038	0.3	Win2	0.6806	0.001	Yes	2.729	-0.001	4.0	GoodResponse	1	0.218	n/a	15	71	ButtonPress	Win	False
676.17	0.36	Win2	0.6806	n/a	Yes	2.729	n/a	n/a	GoodResponse	1	n/a	n/a	15	71	Blank	Win	False
676.52	1.45	Win2	0.6806	n/a	Yes	2.729	n/a	5.0	GoodResponse	1	0.043	675.563	15	71	Feedback	Win	False
677.969	2.729	Win2	0.6806	n/a	Yes	2.729	n/a	n/a	GoodResponse	1	0.0	n/a	15	71	ISIslide	Win	False
680.718	0.25	Win2	0.6849	0.0	Yes	2.782	0.018	4.0	GoodResponse	1	0.248	679.966	16	72	Cue	Win	False
680.966	0.3	Win2	0.6849	0.0	Yes	2.782	0.018	4.0	GoodResponse	1	0.248	n/a	16	72	ButtonPress	Win	False
680.968	4.1	Win2	0.6849	0.0	Yes	2.782	0.0	n/a	GoodResponse	1	n/a	n/a	16	72	Fixation	Win	False
685.067	0.33	Win2	0.6849	0.001	Yes	2.782	-0.001	4.0	GoodResponse	1	0.227	684.294	16	72	Target	Win	False
685.294	0.3	Win2	0.6849	0.001	Yes	2.782	-0.001	4.0	GoodResponse	1	0.227	n/a	16	72	ButtonPress	Win	False
685.4	0.37	Win2	0.6849	n/a	Yes	2.782	n/a	n/a	GoodResponse	1	n/a	n/a	16	72	Blank	Win	False
685.766	1.45	Win2	0.6849	n/a	Yes	2.782	n/a	5.0	GoodResponse	1	0.016	684.782	16	72	Feedback	Win	False
687.216	2.782	Win2	0.6849	n/a	Yes	2.782	n/a	n/a	GoodResponse	1	0.0	n/a	16	72	ISIslide	Win	False
690.015	0.25	Win2	0.6892	0.0	Yes	2.685	0.015	4.0	GoodResponse	1	0.239	689.254	17	73	Cue	Win	False
690.254	0.3	Win2	0.6892	0.0	Yes	2.685	0.015	4.0	GoodResponse	1	0.239	n/a	17	73	ButtonPress	Win	False
690.265	4.0	Win2	0.6892	0.0	Yes	2.685	0.0	n/a	GoodResponse	1	n/a	n/a	17	73	Fixation	Win	False
694.263	0.32	Win2	0.6892	0.002	Yes	2.685	-0.002	4.0	GoodResponse	1	0.253	693.516	17	73	Target	Win	False
694.516	0.3	Win2	0.6892	0.002	Yes	2.685	-0.002	4.0	GoodResponse	1	0.253	n/a	17	73	ButtonPress	Win	False
694.597	0.38	Win2	0.6892	n/a	Yes	2.685	n/a	n/a	GoodResponse	1	n/a	n/a	17	73	Blank	Win	False
694.963	1.45	Win2	0.6892	n/a	Yes	2.685	n/a	5.0	GoodResponse	1	0.038	694.001	17	73	Feedback	Win	False
696.413	2.685	Win2	0.6892	n/a	Yes	2.685	n/a	n/a	GoodResponse	1	0.0	n/a	17	73	ISIslide	Win	False
699.128	0.25	Lose2	0.6933	0.001	Yes	2.622	0.028	n/a	GoodResponse	0	n/a	n/a	17	74	Cue	AvoidedLoss	False
699.378	4.05	Lose2	0.6933	0.0	Yes	2.622	0.0	4.0	GoodResponse	0	0.03	698.408	17	74	Fixation	AvoidedLoss	False
699.408	0.3	Lose2	0.6933	0.0	Yes	2.622	0.0	4.0	GoodResponse	0	0.03	n/a	17	74	ButtonPress	AvoidedLoss	False
703.427	0.31	Lose2	0.6933	0.001	Yes	2.622	-0.001	4.0	GoodResponse	0	0.217	702.644	17	74	Target	AvoidedLoss	False
703.644	0.3	Lose2	0.6933	0.001	Yes	2.622	-0.001	4.0	GoodResponse	0	0.217	n/a	17	74	ButtonPress	AvoidedLoss	False
703.744	0.39	Lose2	0.6933	n/a	Yes	2.622	n/a	n/a	GoodResponse	0	n/a	n/a	17	74	Blank	AvoidedLoss	False
704.127	1.45	Lose2	0.6933	n/a	Yes	2.622	n/a	5.0	GoodResponse	0	0.045	703.172	17	74	Feedback	AvoidedLoss	False
705.576	2.622	Lose2	0.6933	n/a	Yes	2.622	n/a	n/a	GoodResponse	0	0.0	n/a	17	74	ISIslide	AvoidedLoss	False
708.225	0.25	Lose2	0.6973999999999999	0.0	Yes	2.925	0.025	4.0	GoodResponse	0	0.243	707.468	17	75	Cue	AvoidedLoss	False
708.468	0.3	Lose2	0.6973999999999999	0.0	Yes	2.925	0.025	4.0	GoodResponse	0	0.243	n/a	17	75	ButtonPress	AvoidedLoss	False
708.475	3.95	Lose2	0.6973999999999999	0.0	Yes	2.925	0.0	n/a	GoodResponse	0	n/a	n/a	17	75	Fixation	AvoidedLoss	False
712.424	0.3	Lose2	0.6973999999999999	0.001	Yes	2.925	-0.001	4.0	GoodResponse	0	0.202	711.626	17	75	Target	AvoidedLoss	False
712.626	0.3	Lose2	0.6973999999999999	0.001	Yes	2.925	-0.001	4.0	GoodResponse	0	0.202	n/a	17	75	ButtonPress	AvoidedLoss	False
712.724	0.4	Lose2	0.6973999999999999	n/a	Yes	2.925	n/a	n/a	GoodResponse	0	n/a	n/a	17	75	Blank	AvoidedLoss	False
713.124	1.45	Lose2	0.6973999999999999	n/a	Yes	2.925	n/a	5.0	GoodResponse	0	0.024	712.148	17	75	Feedback	AvoidedLoss	False
714.573	2.925	Lose2	0.6973999999999999	n/a	Yes	2.925	n/a	n/a	GoodResponse	0	0.0	n/a	17	75	ISIslide	AvoidedLoss	False
717.522	0.25	Control	0.7012999999999999	0.0	Yes	3.228	0.022	4.0	GoodResponse	0	0.23	716.752	17	76	Cue	Neutral	False
717.752	0.3	Control	0.7012999999999999	0.0	Yes	3.228	0.022	4.0	GoodResponse	0	0.23	n/a	17	76	ButtonPress	Neutral	False
717.772	4.05	Control	0.7012999999999999	0.0	Yes	3.228	0.0	n/a	GoodResponse	0	n/a	n/a	17	76	Fixation	Neutral	False
721.821	0.29	Control	0.7012999999999999	0.001	Yes	3.228	-0.001	4.0	GoodResponse	0	0.209	721.03	17	76	Target	Neutral	False
722.03	0.3	Control	0.7012999999999999	0.001	Yes	3.228	-0.001	4.0	GoodResponse	0	0.209	n/a	17	76	ButtonPress	Neutral	False
722.121	0.41	Control	0.7012999999999999	n/a	Yes	3.228	n/a	n/a	GoodResponse	0	n/a	n/a	17	76	Blank	Neutral	False
722.52	1.45	Control	0.7012999999999999	n/a	Yes	3.228	n/a	5.0	GoodResponse	0	0.042	721.562	17	76	Feedback	Neutral	False
723.97	3.228	Control	0.7012999999999999	n/a	Yes	3.228	n/a	n/a	GoodResponse	0	0.0	n/a	17	76	ISIslide	Neutral	False
727.219	0.25	Lose2	0.6923	0.0	No	2.581	0.019	4.0	NoResponse	-1	0.232	726.451	16	77	Cue	Loss	False
727.451	0.3	Lose2	0.6923	0.0	No	2.581	0.019	4.0	NoResponse	-1	0.232	n/a	16	77	ButtonPress	Loss	False
727.469	3.95	Lose2	0.6923	0.0	No	2.581	0.0	n/a	NoResponse	-1	n/a	n/a	16	77	Fixation	Loss	False
731.417	0.28	Lose2	0.6923	0.002	No	2.581	-0.002	4.0	NoResponse	-1	0.344	730.761	16	77	Target	Loss	False
731.701	0.42	Lose2	0.6923	n/a	No	2.581	n/a	n/a	NoResponse	-1	n/a	n/a	16	77	Blank	Loss	False
731.761	0.3	Lose2	0.6923	0.002	No	2.581	-0.002	4.0	NoResponse	-1	0.344	n/a	16	77	ButtonPress	Loss	False
732.117	1.45	Lose2	0.6923	n/a	No	2.581	n/a	5.0	NoResponse	-1	0.008	731.125	16	77	Feedback	Loss	False
733.567	2.581	Lose2	0.6923	n/a	No	2.581	n/a	n/a	NoResponse	-1	0.0	n/a	16	77	ISIslide	Loss	False
