onset	duration	cue_type	current_mean_accuracy	duration_error	is_hit	isi_adjusted	onset_delay	response	response_type	reward	rt	rt_time	total_reward	trial_number	trial_phase	trial_type	one_press
11.108	0.25	Control	1.0	0.0	Yes	2.942	0.008	n/a	GoodResponse	0	n/a	n/a	0	0	Cue	Neutral	False
11.359	3.85	Control	1.0	0.0	Yes	2.942	0.001	2.0	GoodResponse	0	0.196	10.555	0	0	Fixation	Neutral	False
11.555	0.3	Control	1.0	0.0	Yes	2.942	0.001	2.0	GoodResponse	0	0.196	n/a	0	0	ButtonPress	Neutral	False
15.22	0.4	Control	1.0	0.0	Yes	2.942	0.012	2.0	GoodResponse	0	0.27	14.49	0	0	Target	Neutral	False
15.49	0.3	Control	1.0	0.0	Yes	2.942	0.012	2.0	GoodResponse	0	0.27	n/a	0	0	ButtonPress	Neutral	False
15.605	0.3	Control	1.0	n/a	Yes	2.942	n/a	n/a	GoodResponse	0	n/a	n/a	0	0	Blank	Neutral	False
15.906	1.45	Control	1.0	n/a	Yes	2.942	n/a	5.0	GoodResponse	0	0.019	14.925	0	0	Feedback	Neutral	False
17.36	2.942	Control	1.0	n/a	Yes	2.942	n/a	n/a	GoodResponse	0	0.0	n/a	0	0	ISIslide	Neutral	False
20.386	0.25	Lose2	1.0	0.0	Yes	2.714	0.086	n/a	GoodResponse	0	n/a	n/a	0	1	Cue	AvoidedLoss	False
20.636	4.0	Lose2	1.0	0.0	Yes	2.714	0.0	2.0	GoodResponse	0	0.137	19.773	0	1	Fixation	AvoidedLoss	False
20.773	0.3	Lose2	1.0	0.0	Yes	2.714	0.0	2.0	GoodResponse	0	0.137	n/a	0	1	ButtonPress	AvoidedLoss	False
24.632	0.39	Lose2	1.0	0.004	Yes	2.714	-0.004	2.0	GoodResponse	0	0.202	23.834	0	1	Target	AvoidedLoss	False
24.834	0.3	Lose2	1.0	0.004	Yes	2.714	-0.004	2.0	GoodResponse	0	0.202	n/a	0	1	ButtonPress	AvoidedLoss	False
25.033	0.31	Lose2	1.0	n/a	Yes	2.714	n/a	n/a	GoodResponse	0	n/a	n/a	0	1	Blank	AvoidedLoss	False
25.334	1.45	Lose2	1.0	n/a	Yes	2.714	n/a	5.0	GoodResponse	0	0.006	24.34	0	1	Feedback	AvoidedLoss	False
26.788	2.714	Lose2	1.0	n/a	Yes	2.714	n/a	n/a	GoodResponse	0	0.0	n/a	0	1	ISIslide	AvoidedLoss	False
29.53	0.25	Control	1.0	0.0	Yes	2.57	0.03	n/a	GoodResponse	0	n/a	n/a	0	2	Cue	Neutral	True
29.78	4.1	Control	1.0	0.0	Yes	2.57	0.0	n/a	GoodResponse	0	n/a	n/a	0	2	Fixation	Neutral	True
33.876	0.38	Control	1.0	0.004	Yes	2.57	-0.004	2.0	GoodResponse	0	0.212	33.088	0	2	Target	Neutral	True
34.088	0.3	Control	1.0	0.004	Yes	2.57	-0.004	2.0	GoodResponse	0	0.212	n/a	0	2	ButtonPress	Neutral	True
34.26	0.32	Control	1.0	n/a	Yes	2.57	n/a	n/a	GoodResponse	0	n/a	n/a	0	2	Blank	Neutral	True
34.578	1.45	Control	1.0	n/a	Yes	2.57	n/a	5.0	GoodResponse	0	0.031	33.609	0	2	Feedback	Neutral	True
36.032	2.57	Control	1.0	n/a	Yes	2.57	n/a	n/a	GoodResponse	0	0.0	n/a	0	2	ISIslide	Neutral	True
38.623	0.25	Win2	1.0	0.001	Yes	2.827	0.023	n/a	GoodResponse	1	n/a	n/a	1	3	Cue	Win	True
38.874	3.95	Win2	1.0	0.0	Yes	2.827	0.001	n/a	GoodResponse	1	n/a	n/a	1	3	Fixation	Win	True
42.819	0.37	Win2	1.0	0.004	Yes	2.827	-0.004	2.0	GoodResponse	1	0.209	42.028	1	3	Target	Win	True
43.028	0.3	Win2	1.0	0.004	Yes	2.827	-0.004	2.0	GoodResponse	1	0.209	n/a	1	3	ButtonPress	Win	True
43.204	0.33	Win2	1.0	n/a	Yes	2.827	n/a	n/a	GoodResponse	1	n/a	n/a	1	3	Blank	Win	True
43.521	1.45	Win2	1.0	n/a	Yes	2.827	n/a	5.0	GoodResponse	1	0.015	42.536	1	3	Feedback	Win	True
44.976	2.827	Win2	1.0	n/a	Yes	2.827	n/a	n/a	GoodResponse	1	0.0	n/a	1	3	ISIslide	Win	True
47.818	0.25	Win2	1.0	0.0	Yes	3.282	0.018	n/a	GoodResponse	1	n/a	n/a	2	4	Cue	Win	True
48.068	4.0	Win2	1.0	0.0	Yes	3.282	0.0	n/a	GoodResponse	1	n/a	n/a	2	4	Fixation	Win	True
52.064	0.36	Win2	1.0	0.004	Yes	3.282	-0.004	2.0	GoodResponse	1	0.206	51.27	2	4	Target	Win	True
52.27	0.3	Win2	1.0	0.004	Yes	3.282	-0.004	2.0	GoodResponse	1	0.206	n/a	2	4	ButtonPress	Win	True
52.431	0.34	Win2	1.0	n/a	Yes	3.282	n/a	n/a	GoodResponse	1	n/a	n/a	2	4	Blank	Win	True
52.766	1.45	Win2	1.0	n/a	Yes	3.282	n/a	5.0	GoodResponse	1	0.037	51.803	2	4	Feedback	Win	True
54.22	3.282	Win2	1.0	n/a	Yes	3.282	n/a	n/a	GoodResponse	1	0.0	n/a	2	4	ISIslide	Win	True
57.53	0.25	Win2	1.0	0.0	Yes	2.77	0.03	n/a	GoodResponse	1	n/a	n/a	3	5	Cue	Win	True
57.781	4.0	Win2	1.0	0.0	Yes	2.77	0.001	n/a	GoodResponse	1	n/a	n/a	3	5	Fixation	Win	True
61.776	0.35	Win2	1.0	0.004	Yes	2.77	-0.004	2.0	GoodResponse	1	0.191	60.967	3	5	Target	Win	True
61.967	0.3	Win2	1.0	0.004	Yes	2.77	-0.004	2.0	GoodResponse	1	0.191	n/a	3	5	ButtonPress	Win	True
62.127	0.35	Win2	1.0	n/a	Yes	2.77	n/a	n/a	GoodResponse	1	n/a	n/a	3	5	Blank	Win	True
62.478	1.45	Win2	1.0	n/a	Yes	2.77	n/a	5.0	GoodResponse	1	0.032	61.51	3	5	Feedback	Win	True
63.932	2.77	Win2	1.0	n/a	Yes	2.77	n/a	n/a	GoodResponse	1	0.0	n/a	3	5	ISIslide	Win	True
66.724	0.25	Lose2	1.0	0.0	Yes	2.726	0.024	n/a	GoodResponse	0	n/a	n/a	3	6	Cue	AvoidedLoss	True
66.975	3.95	Lose2	1.0	0.0	Yes	2.726	0.001	n/a	GoodResponse	0	n/a	n/a	3	6	Fixation	AvoidedLoss	True
70.92	0.34	Lose2	1.0	0.004	Yes	2.726	-0.004	2.0	GoodResponse	0	0.214	70.134	3	6	Target	AvoidedLoss	True
71.134	0.3	Lose2	1.0	0.004	Yes	2.726	-0.004	2.0	GoodResponse	0	0.214	n/a	3	6	ButtonPress	AvoidedLoss	True
71.271	0.36	Lose2	1.0	n/a	Yes	2.726	n/a	n/a	GoodResponse	0	n/a	n/a	3	6	Blank	AvoidedLoss	True
71.622	1.45	Lose2	1.0	n/a	Yes	2.726	n/a	5.0	GoodResponse	0	0.011	70.633	3	6	Feedback	AvoidedLoss	True
73.076	2.726	Lose2	1.0	n/a	Yes	2.726	n/a	n/a	GoodResponse	0	0.0	n/a	3	6	ISIslide	AvoidedLoss	True
75.818	0.25	Lose2	1.0	0.0	Yes	4.032	0.018	n/a	GoodResponse	0	n/a	n/a	3	7	Cue	AvoidedLoss	True
76.069	4.05	Lose2	1.0	0.0	Yes	4.032	0.001	n/a	GoodResponse	0	n/a	n/a	3	7	Fixation	AvoidedLoss	True
80.114	0.33	Lose2	1.0	0.004	Yes	4.032	-0.004	2.0	GoodResponse	0	0.218	79.332	3	7	Target	AvoidedLoss	True
80.332	0.3	Lose2	1.0	0.004	Yes	4.032	-0.004	2.0	GoodResponse	0	0.218	n/a	3	7	ButtonPress	AvoidedLoss	True
80.449	0.37	Lose2	1.0	n/a	Yes	4.032	n/a	n/a	GoodResponse	0	n/a	n/a	3	7	Blank	AvoidedLoss	True
80.816	1.45	Lose2	1.0	n/a	Yes	4.032	n/a	5.0	GoodResponse	0	0.036	79.852	3	7	Feedback	AvoidedLoss	True
82.271	4.032	Lose2	1.0	n/a	Yes	4.032	n/a	n/a	GoodResponse	0	0.0	n/a	3	7	ISIslide	AvoidedLoss	True
86.316	0.25	Lose2	1.0	0.0	Yes	3.034	0.016	n/a	GoodResponse	0	n/a	n/a	3	8	Cue	AvoidedLoss	True
86.567	3.95	Lose2	1.0	0.0	Yes	3.034	0.001	n/a	GoodResponse	0	n/a	n/a	3	8	Fixation	AvoidedLoss	True
90.512	0.32	Lose2	1.0	0.004	Yes	3.034	-0.004	2.0	GoodResponse	0	0.256	89.768	3	8	Target	AvoidedLoss	True
90.768	0.3	Lose2	1.0	0.004	Yes	3.034	-0.004	2.0	GoodResponse	0	0.256	n/a	3	8	ButtonPress	AvoidedLoss	True
90.846	0.38	Lose2	1.0	n/a	Yes	3.034	n/a	n/a	GoodResponse	0	n/a	n/a	3	8	Blank	AvoidedLoss	True
91.214	1.45	Lose2	1.0	n/a	Yes	3.034	n/a	5.0	GoodResponse	0	0.029	90.243	3	8	Feedback	AvoidedLoss	True
92.668	3.034	Lose2	1.0	n/a	Yes	3.034	n/a	n/a	GoodResponse	0	0.0	n/a	3	8	ISIslide	AvoidedLoss	True
95.728	0.25	Lose2	1.0	0.0	Yes	3.122	0.028	n/a	GoodResponse	0	n/a	n/a	3	9	Cue	AvoidedLoss	True
95.978	3.95	Lose2	1.0	0.0	Yes	3.122	0.0	n/a	GoodResponse	0	n/a	n/a	3	9	Fixation	AvoidedLoss	True
99.94	0.31	Lose2	1.0	0.0	Yes	3.122	0.012	2.0	GoodResponse	0	0.229	99.169	3	9	Target	AvoidedLoss	True
100.169	0.3	Lose2	1.0	0.0	Yes	3.122	0.012	2.0	GoodResponse	0	0.229	n/a	3	9	ButtonPress	AvoidedLoss	True
100.241	0.39	Lose2	1.0	n/a	Yes	3.122	n/a	n/a	GoodResponse	0	n/a	n/a	3	9	Blank	AvoidedLoss	True
100.626	1.45	Lose2	1.0	n/a	Yes	3.122	n/a	5.0	GoodResponse	0	0.03	99.656	3	9	Feedback	AvoidedLoss	True
102.08	3.122	Lose2	1.0	n/a	Yes	3.122	n/a	n/a	GoodResponse	0	0.0	n/a	3	9	ISIslide	AvoidedLoss	True
105.223	0.25	Control	1.0	0.0	Yes	3.277	0.023	n/a	GoodResponse	0	n/a	n/a	3	10	Cue	Neutral	True
105.473	4.0	Control	1.0	0.0	Yes	3.277	0.0	n/a	GoodResponse	0	n/a	n/a	3	10	Fixation	Neutral	True
109.469	0.3	Control	1.0	0.004	Yes	3.277	-0.004	2.0	GoodResponse	0	0.199	108.668	3	10	Target	Neutral	True
109.668	0.3	Control	1.0	0.004	Yes	3.277	-0.004	2.0	GoodResponse	0	0.199	n/a	3	10	ButtonPress	Neutral	True
109.77	0.4	Control	1.0	n/a	Yes	3.277	n/a	n/a	GoodResponse	0	n/a	n/a	3	10	Blank	Neutral	True
110.171	1.45	Control	1.0	n/a	Yes	3.277	n/a	5.0	GoodResponse	0	0.046	109.217	3	10	Feedback	Neutral	True
111.625	3.277	Control	1.0	n/a	Yes	3.277	n/a	n/a	GoodResponse	0	0.0	n/a	3	10	ISIslide	Neutral	True
114.918	0.25	Lose2	1.0	0.0	Yes	2.732	0.018	n/a	GoodResponse	0	n/a	n/a	3	11	Cue	AvoidedLoss	True
115.169	4.05	Lose2	1.0	0.0	Yes	2.732	0.001	n/a	GoodResponse	0	n/a	n/a	3	11	Fixation	AvoidedLoss	True
119.214	0.29	Lose2	1.0	0.004	Yes	2.732	-0.004	2.0	GoodResponse	0	0.255	118.469	3	11	Target	AvoidedLoss	True
119.469	0.3	Lose2	1.0	0.004	Yes	2.732	-0.004	2.0	GoodResponse	0	0.255	n/a	3	11	ButtonPress	AvoidedLoss	True
119.515	0.41	Lose2	1.0	n/a	Yes	2.732	n/a	n/a	GoodResponse	0	n/a	n/a	3	11	Blank	AvoidedLoss	True
119.917	1.45	Lose2	1.0	n/a	Yes	2.732	n/a	5.0	GoodResponse	0	0.008	118.925	3	11	Feedback	AvoidedLoss	True
121.371	2.732	Lose2	1.0	n/a	Yes	2.732	n/a	n/a	GoodResponse	0	0.0	n/a	3	11	ISIslide	AvoidedLoss	True
124.129	0.25	Control	1.0	0.0	Yes	2.971	0.029	n/a	GoodResponse	0	n/a	n/a	3	12	Cue	Neutral	True
124.38	3.9	Control	1.0	0.0	Yes	2.971	0.001	n/a	GoodResponse	0	n/a	n/a	3	12	Fixation	Neutral	True
128.275	0.28	Control	1.0	0.004	Yes	2.971	-0.004	2.0	GoodResponse	0	0.233	127.508	3	12	Target	Neutral	True
128.508	0.3	Control	1.0	0.004	Yes	2.971	-0.004	2.0	GoodResponse	0	0.233	n/a	3	12	ButtonPress	Neutral	True
128.559	0.42	Control	1.0	n/a	Yes	2.971	n/a	n/a	GoodResponse	0	n/a	n/a	3	12	Blank	Neutral	True
128.977	1.45	Control	1.0	n/a	Yes	2.971	n/a	5.0	GoodResponse	0	0.021	127.998	3	12	Feedback	Neutral	True
130.431	2.971	Control	1.0	n/a	Yes	2.971	n/a	n/a	GoodResponse	0	0.0	n/a	3	12	ISIslide	Neutral	True
133.424	0.25	Control	1.0	0.0	Yes	2.776	0.024	n/a	GoodResponse	0	n/a	n/a	3	13	Cue	Neutral	True
133.674	4.0	Control	1.0	0.0	Yes	2.776	0.0	n/a	GoodResponse	0	n/a	n/a	3	13	Fixation	Neutral	True
137.67	0.27	Control	1.0	0.004	Yes	2.776	-0.004	2.0	GoodResponse	0	0.232	136.902	3	13	Target	Neutral	True
137.902	0.3	Control	1.0	0.004	Yes	2.776	-0.004	2.0	GoodResponse	0	0.232	n/a	3	13	ButtonPress	Neutral	True
137.954	0.43	Control	1.0	n/a	Yes	2.776	n/a	n/a	GoodResponse	0	n/a	n/a	3	13	Blank	Neutral	True
138.372	1.45	Control	1.0	n/a	Yes	2.776	n/a	5.0	GoodResponse	0	0.04	137.412	3	13	Feedback	Neutral	True
139.826	2.776	Control	1.0	n/a	Yes	2.776	n/a	n/a	GoodResponse	0	0.0	n/a	3	13	ISIslide	Neutral	True
142.618	0.25	Win2	1.0	0.0	Yes	2.682	0.018	n/a	GoodResponse	1	n/a	n/a	4	14	Cue	Win	True
142.868	4.1	Win2	1.0	0.001	Yes	2.682	0.0	n/a	GoodResponse	1	n/a	n/a	4	14	Fixation	Win	True
146.964	0.26	Win2	1.0	0.004	Yes	2.682	-0.004	2.0	GoodResponse	1	0.228	146.192	4	14	Target	Win	True
147.192	0.3	Win2	1.0	0.004	Yes	2.682	-0.004	2.0	GoodResponse	1	0.228	n/a	4	14	ButtonPress	Win	True
147.232	0.44	Win2	1.0	n/a	Yes	2.682	n/a	n/a	GoodResponse	1	n/a	n/a	4	14	Blank	Win	True
147.666	1.45	Win2	1.0	n/a	Yes	2.682	n/a	5.0	GoodResponse	1	0.014	146.68	4	14	Feedback	Win	True
149.121	2.682	Win2	1.0	n/a	Yes	2.682	n/a	n/a	GoodResponse	1	0.0	n/a	4	14	ISIslide	Win	True
151.829	0.25	Control	0.9375	0.0	No	2.971	0.029	n/a	NoResponse	0	n/a	n/a	4	15	Cue	Neutral	False
152.079	4.0	Control	0.9375	0.0	No	2.971	0.0	n/a	NoResponse	0	n/a	n/a	4	15	Fixation	Neutral	False
156.075	0.25	Control	0.9375	0.004	No	2.971	-0.004	n/a	NoResponse	0	n/a	n/a	4	15	Target	Neutral	False
156.325	0.45	Control	0.9375	n/a	No	2.971	n/a	n/a	NoResponse	0	n/a	n/a	4	15	Blank	Neutral	False
156.777	1.45	Control	0.9375	n/a	No	2.971	n/a	5.0	NoResponse	0	0.025	155.802	4	15	Feedback	Neutral	False
158.231	2.971	Control	0.9375	n/a	No	2.971	n/a	n/a	NoResponse	0	0.0	n/a	4	15	ISIslide	Neutral	False
161.223	0.25	Win2	0.9412	0.0	Yes	2.877	0.023	n/a	GoodResponse	1	n/a	n/a	5	16	Cue	Win	True
161.474	4.0	Win2	0.9412	0.0	Yes	2.877	0.001	n/a	GoodResponse	1	n/a	n/a	5	16	Fixation	Win	True
165.469	0.24	Win2	0.9412	0.004	Yes	2.877	-0.004	2.0	GoodResponse	1	0.23	164.699	5	16	Target	Win	True
165.699	0.3	Win2	0.9412	0.004	Yes	2.877	-0.004	2.0	GoodResponse	1	0.23	n/a	5	16	ButtonPress	Win	True
165.72	0.46	Win2	0.9412	n/a	Yes	2.877	n/a	n/a	GoodResponse	1	n/a	n/a	5	16	Blank	Win	True
166.171	1.45	Win2	0.9412	n/a	Yes	2.877	n/a	5.0	GoodResponse	1	0.046	165.217	5	16	Feedback	Win	True
167.626	2.877	Win2	0.9412	n/a	Yes	2.877	n/a	n/a	GoodResponse	1	0.0	n/a	5	16	ISIslide	Win	True
170.518	0.25	Lose2	0.9444	0.0	Yes	2.732	0.018	n/a	GoodResponse	0	n/a	n/a	5	17	Cue	AvoidedLoss	True
170.769	3.95	Lose2	0.9444	0.0	Yes	2.732	0.001	n/a	GoodResponse	0	n/a	n/a	5	17	Fixation	AvoidedLoss	True
174.714	0.23	Lose2	0.9444	0.004	Yes	2.732	-0.004	2.0	GoodResponse	0	0.192	173.906	5	17	Target	AvoidedLoss	True
174.906	0.3	Lose2	0.9444	0.004	Yes	2.732	-0.004	2.0	GoodResponse	0	0.192	n/a	5	17	ButtonPress	AvoidedLoss	True
174.948	0.47	Lose2	0.9444	n/a	Yes	2.732	n/a	n/a	GoodResponse	0	n/a	n/a	5	17	Blank	AvoidedLoss	True
175.416	1.45	Lose2	0.9444	n/a	Yes	2.732	n/a	5.0	GoodResponse	0	0.021	174.437	5	17	Feedback	AvoidedLoss	True
176.87	2.732	Lose2	0.9444	n/a	Yes	2.732	n/a	n/a	GoodResponse	0	0.0	n/a	5	17	ISIslide	AvoidedLoss	True
179.628	0.25	Lose2	0.8946999999999999	0.0	No	2.722	0.028	n/a	NoResponse	-1	n/a	n/a	4	18	Cue	Loss	True
179.879	4.05	Lose2	0.8946999999999999	0.0	No	2.722	0.001	2.0	NoResponse	-1	3.878	182.757	4	18	Fixation	Loss	True
183.757	0.3	Lose2	0.8946999999999999	0.0	No	2.722	0.001	2.0	NoResponse	-1	3.878	n/a	4	18	ButtonPress	Loss	True
183.925	0.22	Lose2	0.8946999999999999	0.003	No	2.722	-0.003	n/a	NoResponse	-1	n/a	n/a	4	18	Target	Loss	True
184.159	0.48	Lose2	0.8946999999999999	n/a	No	2.722	n/a	n/a	NoResponse	-1	n/a	n/a	4	18	Blank	Loss	True
184.627	1.45	Lose2	0.8946999999999999	n/a	No	2.722	n/a	5.0	NoResponse	-1	0.028	183.655	4	18	Feedback	Loss	True
186.081	2.722	Lose2	0.8946999999999999	n/a	No	2.722	n/a	n/a	NoResponse	-1	0.0	n/a	4	18	ISIslide	Loss	True
188.823	0.25	Control	0.9	0.0	Yes	2.927	0.023	n/a	GoodResponse	0	n/a	n/a	4	19	Cue	Neutral	True
189.073	3.95	Control	0.9	0.0	Yes	2.927	0.0	n/a	GoodResponse	0	n/a	n/a	4	19	Fixation	Neutral	True
193.018	0.21	Control	0.9	0.005	Yes	2.927	-0.005	2.0	GoodResponse	0	0.196	192.214	4	19	Target	Neutral	True
193.214	0.3	Control	0.9	0.005	Yes	2.927	-0.005	2.0	GoodResponse	0	0.196	n/a	4	19	ButtonPress	Neutral	True
193.236	0.49	Control	0.9	n/a	Yes	2.927	n/a	n/a	GoodResponse	0	n/a	n/a	4	19	Blank	Neutral	True
193.721	1.45	Control	0.9	n/a	Yes	2.927	n/a	5.0	GoodResponse	0	0.008	192.729	4	19	Feedback	Neutral	True
195.175	2.927	Control	0.9	n/a	Yes	2.927	n/a	n/a	GoodResponse	0	0.0	n/a	4	19	ISIslide	Neutral	True
198.117	0.25	Control	0.9048	0.0	Yes	2.633	0.017	n/a	GoodResponse	0	n/a	n/a	4	20	Cue	Neutral	True
198.368	4.05	Control	0.9048	0.0	Yes	2.633	0.001	n/a	GoodResponse	0	n/a	n/a	4	20	Fixation	Neutral	True
202.413	0.2	Control	0.9048	0.004	Yes	2.633	-0.004	2.0	GoodResponse	0	0.196	201.609	4	20	Target	Neutral	True
202.609	0.3	Control	0.9048	0.004	Yes	2.633	-0.004	2.0	GoodResponse	0	0.196	n/a	4	20	ButtonPress	Neutral	True
202.614	0.5	Control	0.9048	n/a	Yes	2.633	n/a	n/a	GoodResponse	0	n/a	n/a	4	20	Blank	Neutral	True
203.115	1.45	Control	0.9048	n/a	Yes	2.633	n/a	5.0	GoodResponse	0	0.028	202.143	4	20	Feedback	Neutral	True
204.57	2.633	Control	0.9048	n/a	Yes	2.633	n/a	n/a	GoodResponse	0	0.0	n/a	4	20	ISIslide	Neutral	True
207.228	0.25	Control	0.8636	0.0	No	2.772	0.028	n/a	NoResponse	0	n/a	n/a	4	21	Cue	Neutral	True
207.478	4.1	Control	0.8636	0.0	No	2.772	0.0	n/a	NoResponse	0	n/a	n/a	4	21	Fixation	Neutral	True
211.574	0.19	Control	0.8636	0.004	No	2.772	-0.004	2.0	NoResponse	0	0.27	210.844	4	21	Target	Neutral	True
211.774	0.51	Control	0.8636	n/a	No	2.772	n/a	n/a	NoResponse	0	n/a	n/a	4	21	Blank	Neutral	True
211.844	0.3	Control	0.8636	0.004	No	2.772	-0.004	2.0	NoResponse	0	0.27	n/a	4	21	ButtonPress	Neutral	True
212.276	1.45	Control	0.8636	n/a	No	2.772	n/a	5.0	NoResponse	0	0.038	211.314	4	21	Feedback	Neutral	True
213.73	2.772	Control	0.8636	n/a	No	2.772	n/a	n/a	NoResponse	0	0.0	n/a	4	21	ISIslide	Neutral	True
216.522	0.25	Control	0.8261	0.0	No	2.778	0.022	n/a	NoResponse	0	n/a	n/a	4	22	Cue	Neutral	True
216.773	4.0	Control	0.8261	0.0	No	2.778	0.001	n/a	NoResponse	0	n/a	n/a	4	22	Fixation	Neutral	True
220.768	0.18	Control	0.8261	0.004	No	2.778	-0.004	2.0	NoResponse	0	0.192	219.96	4	22	Target	Neutral	True
220.952	0.52	Control	0.8261	n/a	No	2.778	n/a	n/a	NoResponse	0	n/a	n/a	4	22	Blank	Neutral	True
220.96	0.3	Control	0.8261	0.004	No	2.778	-0.004	2.0	NoResponse	0	0.192	n/a	4	22	ButtonPress	Neutral	True
221.47	1.45	Control	0.8261	n/a	No	2.778	n/a	5.0	NoResponse	0	0.015	220.485	4	22	Feedback	Neutral	True
222.925	2.778	Control	0.8261	n/a	No	2.778	n/a	n/a	NoResponse	0	0.0	n/a	4	22	ISIslide	Neutral	True
225.716	0.25	Control	0.7917000000000001	0.0	No	2.784	0.016	n/a	NoResponse	0	n/a	n/a	4	23	Cue	Neutral	True
225.967	3.9	Control	0.7917000000000001	0.0	No	2.784	0.001	n/a	NoResponse	0	n/a	n/a	4	23	Fixation	Neutral	True
229.862	0.17	Control	0.7917000000000001	0.004	No	2.784	-0.004	2.0	NoResponse	0	0.196	229.058	4	23	Target	Neutral	True
230.046	0.53	Control	0.7917000000000001	n/a	No	2.784	n/a	n/a	NoResponse	0	n/a	n/a	4	23	Blank	Neutral	True
230.058	0.3	Control	0.7917000000000001	0.004	No	2.784	-0.004	2.0	NoResponse	0	0.196	n/a	4	23	ButtonPress	Neutral	True
230.564	1.45	Control	0.7917000000000001	n/a	No	2.784	n/a	5.0	NoResponse	0	0.042	229.606	4	23	Feedback	Neutral	True
232.018	2.784	Control	0.7917000000000001	n/a	No	2.784	n/a	n/a	NoResponse	0	0.0	n/a	4	23	ISIslide	Neutral	True
234.827	0.25	Win2	0.76	0.0	No	3.123	0.027	n/a	NoResponse	0	n/a	n/a	4	24	Cue	MissedWin	True
235.078	3.95	Win2	0.76	0.0	No	3.123	0.001	n/a	NoResponse	0	n/a	n/a	4	24	Fixation	MissedWin	True
239.023	0.16	Win2	0.76	0.004	No	3.123	-0.004	2.0	NoResponse	0	0.188	238.211	4	24	Target	MissedWin	True
239.19	0.54	Win2	0.76	n/a	No	3.123	n/a	n/a	NoResponse	0	n/a	n/a	4	24	Blank	MissedWin	True
239.211	0.3	Win2	0.76	0.004	No	3.123	-0.004	2.0	NoResponse	0	0.188	n/a	4	24	ButtonPress	MissedWin	True
239.725	1.45	Win2	0.76	n/a	No	3.123	n/a	5.0	NoResponse	0	0.006	238.731	4	24	Feedback	MissedWin	True
241.179	3.123	Win2	0.76	n/a	No	3.123	n/a	n/a	NoResponse	0	0.0	n/a	4	24	ISIslide	MissedWin	True
244.322	0.25	Win2	0.7308	0.0	No	3.078	0.022	n/a	NoResponse	0	n/a	n/a	4	25	Cue	MissedWin	True
244.573	4.0	Win2	0.7308	0.0	No	3.078	0.001	n/a	NoResponse	0	n/a	n/a	4	25	Fixation	MissedWin	True
248.568	0.15	Win2	0.7308	0.004	No	3.078	-0.004	2.0	NoResponse	0	0.177	247.745	4	25	Target	MissedWin	True
248.718	0.55	Win2	0.7308	n/a	No	3.078	n/a	n/a	NoResponse	0	n/a	n/a	4	25	Blank	MissedWin	True
248.745	0.3	Win2	0.7308	0.004	No	3.078	-0.004	2.0	NoResponse	0	0.177	n/a	4	25	ButtonPress	MissedWin	True
249.27	1.45	Win2	0.7308	n/a	No	3.078	n/a	5.0	NoResponse	0	0.019	248.289	4	25	Feedback	MissedWin	True
250.724	3.078	Win2	0.7308	n/a	No	3.078	n/a	n/a	NoResponse	0	0.0	n/a	4	25	ISIslide	MissedWin	True
253.817	0.25	Win2	0.7037	0.0	No	2.933	0.017	n/a	NoResponse	0	n/a	n/a	4	26	Cue	MissedWin	True
254.068	3.95	Win2	0.7037	0.0	No	2.933	0.001	n/a	NoResponse	0	n/a	n/a	4	26	Fixation	MissedWin	True
258.013	0.15	Win2	0.7037	0.004	No	2.933	-0.004	2.0	NoResponse	0	0.191	257.204	4	26	Target	MissedWin	True
258.163	0.55	Win2	0.7037	n/a	No	2.933	n/a	n/a	NoResponse	0	n/a	n/a	4	26	Blank	MissedWin	True
258.204	0.3	Win2	0.7037	0.004	No	2.933	-0.004	2.0	NoResponse	0	0.191	n/a	4	26	ButtonPress	MissedWin	True
258.715	1.45	Win2	0.7037	n/a	No	2.933	n/a	5.0	NoResponse	0	0.038	257.753	4	26	Feedback	MissedWin	True
260.169	2.933	Win2	0.7037	n/a	No	2.933	n/a	n/a	NoResponse	0	0.0	n/a	4	26	ISIslide	MissedWin	True
263.128	0.25	Lose2	0.6786	0.0	No	2.822	0.028	n/a	NoResponse	-1	n/a	n/a	3	27	Cue	Loss	True
263.379	4.05	Lose2	0.6786	0.0	No	2.822	0.001	n/a	NoResponse	-1	n/a	n/a	3	27	Fixation	Loss	True
267.424	0.15	Lose2	0.6786	0.004	No	2.822	-0.004	2.0	NoResponse	-1	0.189	266.613	3	27	Target	Loss	True
267.575	0.55	Lose2	0.6786	n/a	No	2.822	n/a	n/a	NoResponse	-1	n/a	n/a	3	27	Blank	Loss	True
267.613	0.3	Lose2	0.6786	0.004	No	2.822	-0.004	2.0	NoResponse	-1	0.189	n/a	3	27	ButtonPress	Loss	True
268.126	1.45	Lose2	0.6786	n/a	No	2.822	n/a	5.0	NoResponse	-1	0.041	267.167	3	27	Feedback	Loss	True
269.581	2.822	Lose2	0.6786	n/a	No	2.822	n/a	n/a	NoResponse	-1	0.0	n/a	3	27	ISIslide	Loss	True
272.422	0.25	Control	0.6552	0.001	No	2.828	0.022	n/a	NoResponse	0	n/a	n/a	3	28	Cue	Neutral	True
272.673	4.05	Control	0.6552	0.0	No	2.828	0.001	n/a	NoResponse	0	n/a	n/a	3	28	Fixation	Neutral	True
276.719	0.15	Control	0.6552	0.003	No	2.828	-0.003	2.0	NoResponse	0	0.303	276.022	3	28	Target	Neutral	True
276.869	0.55	Control	0.6552	n/a	No	2.828	n/a	n/a	NoResponse	0	n/a	n/a	3	28	Blank	Neutral	True
277.022	0.3	Control	0.6552	0.003	No	2.828	-0.003	2.0	NoResponse	0	0.303	n/a	3	28	ButtonPress	Neutral	True
277.421	1.45	Control	0.6552	n/a	No	2.828	n/a	5.0	NoResponse	0	0.014	276.435	3	28	Feedback	Neutral	True
278.875	2.828	Control	0.6552	n/a	No	2.828	n/a	n/a	NoResponse	0	0.0	n/a	3	28	ISIslide	Neutral	True
281.717	0.25	Lose2	0.6333	0.0	No	2.833	0.017	n/a	NoResponse	-1	n/a	n/a	2	29	Cue	Loss	True
281.968	3.95	Lose2	0.6333	0.0	No	2.833	0.001	n/a	NoResponse	-1	n/a	n/a	2	29	Fixation	Loss	True
285.913	0.15	Lose2	0.6333	0.004	No	2.833	-0.004	2.0	NoResponse	-1	0.19	285.103	2	29	Target	Loss	True
286.063	0.55	Lose2	0.6333	n/a	No	2.833	n/a	n/a	NoResponse	-1	n/a	n/a	2	29	Blank	Loss	True
286.103	0.3	Lose2	0.6333	0.004	No	2.833	-0.004	2.0	NoResponse	-1	0.19	n/a	2	29	ButtonPress	Loss	True
286.615	1.45	Lose2	0.6333	n/a	No	2.833	n/a	5.0	NoResponse	-1	0.04	285.655	2	29	Feedback	Loss	True
288.069	2.833	Lose2	0.6333	n/a	No	2.833	n/a	n/a	NoResponse	-1	0.0	n/a	2	29	ISIslide	Loss	True
290.928	0.25	Win2	0.6129	0.0	No	2.772	0.028	n/a	NoResponse	0	n/a	n/a	2	30	Cue	MissedWin	True
291.179	3.9	Win2	0.6129	0.0	No	2.772	0.001	n/a	NoResponse	0	n/a	n/a	2	30	Fixation	MissedWin	True
295.074	0.16	Win2	0.6129	0.004	No	2.772	-0.004	2.0	NoResponse	0	0.205	294.279	2	30	Target	MissedWin	True
295.241	0.54	Win2	0.6129	n/a	No	2.772	n/a	n/a	NoResponse	0	n/a	n/a	2	30	Blank	MissedWin	True
295.279	0.3	Win2	0.6129	0.004	No	2.772	-0.004	2.0	NoResponse	0	0.205	n/a	2	30	ButtonPress	MissedWin	True
295.776	1.45	Win2	0.6129	n/a	No	2.772	n/a	5.0	NoResponse	0	0.001	294.777	2	30	Feedback	MissedWin	True
297.23	2.772	Win2	0.6129	n/a	No	2.772	n/a	n/a	NoResponse	0	0.0	n/a	2	30	ISIslide	MissedWin	True
300.022	0.25	Lose2	0.5938	0.0	No	2.828	0.022	n/a	NoResponse	-1	n/a	n/a	1	31	Cue	Loss	True
300.272	4.05	Lose2	0.5938	0.001	No	2.828	0.0	n/a	NoResponse	-1	n/a	n/a	1	31	Fixation	Loss	True
304.318	0.17	Lose2	0.5938	0.004	No	2.828	-0.004	2.0	NoResponse	-1	0.234	303.552	1	31	Target	Loss	True
304.502	0.53	Lose2	0.5938	n/a	No	2.828	n/a	n/a	NoResponse	-1	n/a	n/a	1	31	Blank	Loss	True
304.552	0.3	Lose2	0.5938	0.004	No	2.828	-0.004	2.0	NoResponse	-1	0.234	n/a	1	31	ButtonPress	Loss	True
305.02	1.45	Lose2	0.5938	n/a	No	2.828	n/a	5.0	NoResponse	-1	0.025	304.045	1	31	Feedback	Loss	True
306.474	2.828	Lose2	0.5938	n/a	No	2.828	n/a	n/a	NoResponse	-1	0.0	n/a	1	31	ISIslide	Loss	True
309.316	0.25	Lose2	0.5758	0.0	No	2.634	0.016	n/a	NoResponse	-1	n/a	n/a	0	32	Cue	Loss	True
309.567	4.15	Lose2	0.5758	0.0	No	2.634	0.001	n/a	NoResponse	-1	n/a	n/a	0	32	Fixation	Loss	True
313.713	0.18	Lose2	0.5758	0.003	No	2.634	-0.003	2.0	NoResponse	-1	0.209	312.922	0	32	Target	Loss	True
313.896	0.52	Lose2	0.5758	n/a	No	2.634	n/a	n/a	NoResponse	-1	n/a	n/a	0	32	Blank	Loss	True
313.922	0.3	Lose2	0.5758	0.003	No	2.634	-0.003	2.0	NoResponse	-1	0.209	n/a	0	32	ButtonPress	Loss	True
314.415	1.45	Lose2	0.5758	n/a	No	2.634	n/a	5.0	NoResponse	-1	0.044	313.459	0	32	Feedback	Loss	True
315.869	2.634	Lose2	0.5758	n/a	No	2.634	n/a	n/a	NoResponse	-1	0.0	n/a	0	32	ISIslide	Loss	True
318.527	0.25	Win2	0.5588000000000001	0.0	No	2.673	0.027	n/a	NoResponse	0	n/a	n/a	0	33	Cue	MissedWin	True
318.778	4.0	Win2	0.5588000000000001	0.0	No	2.673	0.001	2.0	NoResponse	0	3.915	321.693	0	33	Fixation	MissedWin	True
322.693	0.3	Win2	0.5588000000000001	0.0	No	2.673	0.001	2.0	NoResponse	0	3.915	n/a	0	33	ButtonPress	MissedWin	True
322.773	0.19	Win2	0.5588000000000001	0.004	No	2.673	-0.004	n/a	NoResponse	0	n/a	n/a	0	33	Target	MissedWin	True
322.974	0.51	Win2	0.5588000000000001	n/a	No	2.673	n/a	n/a	NoResponse	0	n/a	n/a	0	33	Blank	MissedWin	True
323.475	1.45	Win2	0.5588000000000001	n/a	No	2.673	n/a	5.0	NoResponse	0	0.008	322.483	0	33	Feedback	MissedWin	True
324.929	2.673	Win2	0.5588000000000001	n/a	No	2.673	n/a	n/a	NoResponse	0	0.0	n/a	0	33	ISIslide	MissedWin	True
327.621	0.25	Lose2	0.5428999999999999	0.0	No	2.629	0.021	n/a	NoResponse	-1	n/a	n/a	-1	34	Cue	Loss	True
327.872	4.05	Lose2	0.5428999999999999	0.0	No	2.629	0.001	n/a	NoResponse	-1	n/a	n/a	-1	34	Fixation	Loss	True
331.917	0.2	Lose2	0.5428999999999999	0.004	No	2.629	-0.004	2.0	NoResponse	-1	0.243	331.16	-1	34	Target	Loss	True
332.118	0.5	Lose2	0.5428999999999999	n/a	No	2.629	n/a	n/a	NoResponse	-1	n/a	n/a	-1	34	Blank	Loss	True
332.16	0.3	Lose2	0.5428999999999999	0.004	No	2.629	-0.004	2.0	NoResponse	-1	0.243	n/a	-1	34	ButtonPress	Loss	True
332.619	1.45	Lose2	0.5428999999999999	n/a	No	2.629	n/a	5.0	NoResponse	-1	0.035	331.654	-1	34	Feedback	Loss	True
334.073	2.629	Lose2	0.5428999999999999	n/a	No	2.629	n/a	n/a	NoResponse	-1	0.0	n/a	-1	34	ISIslide	Loss	True
336.731	0.25	Lose2	0.5278	0.001	No	2.669	0.031	n/a	NoResponse	-1	n/a	n/a	-2	35	Cue	Loss	True
336.982	4.0	Lose2	0.5278	0.0	No	2.669	0.001	n/a	NoResponse	-1	n/a	n/a	-2	35	Fixation	Loss	True
340.977	0.21	Lose2	0.5278	0.004	No	2.669	-0.004	2.0	NoResponse	-1	0.258	340.235	-2	35	Target	Loss	True
341.195	0.49	Lose2	0.5278	n/a	No	2.669	n/a	n/a	NoResponse	-1	n/a	n/a	-2	35	Blank	Loss	True
341.235	0.3	Lose2	0.5278	0.004	No	2.669	-0.004	2.0	NoResponse	-1	0.258	n/a	-2	35	ButtonPress	Loss	True
341.68	1.45	Lose2	0.5278	n/a	No	2.669	n/a	5.0	NoResponse	-1	0.048	340.728	-2	35	Feedback	Loss	True
343.134	2.669	Lose2	0.5278	n/a	No	2.669	n/a	n/a	NoResponse	-1	0.0	n/a	-2	35	ISIslide	Loss	True
345.825	0.25	Control	0.5135000000000001	0.0	No	2.675	0.025	n/a	LatePress	0	n/a	n/a	-2	36	Cue	Neutral	True
346.076	4.0	Control	0.5135000000000001	0.0	No	2.675	0.001	n/a	LatePress	0	n/a	n/a	-2	36	Fixation	Neutral	True
350.071	0.22	Control	0.5135000000000001	0.004	No	2.675	-0.004	2.0	LatePress	0	0.224	349.295	-2	36	Target	Neutral	True
350.295	0.3	Control	0.5135000000000001	0.004	No	2.675	-0.004	2.0	LatePress	0	0.224	n/a	-2	36	ButtonPress	Neutral	True
350.305	0.48	Control	0.5135000000000001	n/a	No	2.675	n/a	n/a	LatePress	0	n/a	n/a	-2	36	Blank	Neutral	True
350.773	1.45	Control	0.5135000000000001	n/a	No	2.675	n/a	5.0	LatePress	0	0.028	349.801	-2	36	Feedback	Neutral	True
352.228	2.675	Control	0.5135000000000001	n/a	No	2.675	n/a	n/a	LatePress	0	0.0	n/a	-2	36	ISIslide	Neutral	True
354.919	0.25	Win2	0.5263	0.0	Yes	2.881	0.019	n/a	GoodResponse	1	n/a	n/a	-1	37	Cue	Win	True
355.17	4.0	Win2	0.5263	0.0	Yes	2.881	0.001	n/a	GoodResponse	1	n/a	n/a	-1	37	Fixation	Win	True
359.165	0.23	Win2	0.5263	0.004	Yes	2.881	-0.004	2.0	GoodResponse	1	0.195	358.36	-1	37	Target	Win	True
359.36	0.3	Win2	0.5263	0.004	Yes	2.881	-0.004	2.0	GoodResponse	1	0.195	n/a	-1	37	ButtonPress	Win	True
359.399	0.47	Win2	0.5263	n/a	Yes	2.881	n/a	n/a	GoodResponse	1	n/a	n/a	-1	37	Blank	Win	True
359.867	1.45	Win2	0.5263	n/a	Yes	2.881	n/a	5.0	GoodResponse	1	0.007	358.874	-1	37	Feedback	Win	True
361.322	2.881	Win2	0.5263	n/a	Yes	2.881	n/a	n/a	GoodResponse	1	0.0	n/a	-1	37	ISIslide	Win	True
364.23	0.25	Lose2	0.5128	0.0	No	2.82	0.03	n/a	NoResponse	-1	n/a	n/a	-2	38	Cue	Loss	True
364.481	3.95	Lose2	0.5128	0.0	No	2.82	0.001	n/a	NoResponse	-1	n/a	n/a	-2	38	Fixation	Loss	True
368.426	0.24	Lose2	0.5128	0.004	No	2.82	-0.004	2.0	NoResponse	-1	0.259	367.685	-2	38	Target	Loss	True
368.677	0.46	Lose2	0.5128	n/a	No	2.82	n/a	n/a	NoResponse	-1	n/a	n/a	-2	38	Blank	Loss	True
368.685	0.3	Lose2	0.5128	0.004	No	2.82	-0.004	2.0	NoResponse	-1	0.259	n/a	-2	38	ButtonPress	Loss	True
369.128	1.45	Lose2	0.5128	n/a	No	2.82	n/a	5.0	NoResponse	-1	0.014	368.142	-2	38	Feedback	Loss	True
370.583	2.82	Lose2	0.5128	n/a	No	2.82	n/a	n/a	NoResponse	-1	0.0	n/a	-2	38	ISIslide	Loss	True
373.424	0.25	Win2	0.525	0.001	Yes	2.976	0.024	n/a	GoodResponse	1	n/a	n/a	-1	39	Cue	Win	True
373.675	4.1	Win2	0.525	0.0	Yes	2.976	0.001	n/a	GoodResponse	1	n/a	n/a	-1	39	Fixation	Win	True
377.771	0.25	Win2	0.525	0.003	Yes	2.976	-0.003	2.0	GoodResponse	1	0.191	376.962	-1	39	Target	Win	True
377.962	0.3	Win2	0.525	0.003	Yes	2.976	-0.003	2.0	GoodResponse	1	0.191	n/a	-1	39	ButtonPress	Win	True
378.022	0.45	Win2	0.525	n/a	Yes	2.976	n/a	n/a	GoodResponse	1	n/a	n/a	-1	39	Blank	Win	True
378.473	1.45	Win2	0.525	n/a	Yes	2.976	n/a	5.0	GoodResponse	1	0.035	377.508	-1	39	Feedback	Win	True
379.927	2.976	Win2	0.525	n/a	Yes	2.976	n/a	n/a	GoodResponse	1	0.0	n/a	-1	39	ISIslide	Win	True
382.92	0.25	Win2	0.5366	0.0	Yes	2.73	0.02	n/a	GoodResponse	1	n/a	n/a	0	40	Cue	Win	True
383.17	3.95	Win2	0.5366	0.0	Yes	2.73	0.0	n/a	GoodResponse	1	n/a	n/a	0	40	Fixation	Win	True
387.115	0.26	Win2	0.5366	0.005	Yes	2.73	-0.005	2.0	GoodResponse	1	0.214	386.329	0	40	Target	Win	True
387.329	0.3	Win2	0.5366	0.005	Yes	2.73	-0.005	2.0	GoodResponse	1	0.214	n/a	0	40	ButtonPress	Win	True
387.383	0.44	Win2	0.5366	n/a	Yes	2.73	n/a	n/a	GoodResponse	1	n/a	n/a	0	40	Blank	Win	True
387.818	1.45	Win2	0.5366	n/a	Yes	2.73	n/a	5.0	GoodResponse	1	0.007	386.825	0	40	Feedback	Win	True
389.272	2.73	Win2	0.5366	n/a	Yes	2.73	n/a	n/a	GoodResponse	1	0.0	n/a	0	40	ISIslide	Win	True
392.03	0.25	Win2	0.5476	0.0	Yes	2.77	0.03	n/a	GoodResponse	1	n/a	n/a	1	41	Cue	Win	True
392.281	3.9	Win2	0.5476	0.0	Yes	2.77	0.001	n/a	GoodResponse	1	n/a	n/a	1	41	Fixation	Win	True
396.176	0.27	Win2	0.5476	0.004	Yes	2.77	-0.004	2.0	GoodResponse	1	0.195	395.371	1	41	Target	Win	True
396.371	0.3	Win2	0.5476	0.004	Yes	2.77	-0.004	2.0	GoodResponse	1	0.195	n/a	1	41	ButtonPress	Win	True
396.46	0.43	Win2	0.5476	n/a	Yes	2.77	n/a	n/a	GoodResponse	1	n/a	n/a	1	41	Blank	Win	True
396.878	1.45	Win2	0.5476	n/a	Yes	2.77	n/a	5.0	GoodResponse	1	0.019	395.897	1	41	Feedback	Win	True
398.332	2.77	Win2	0.5476	n/a	Yes	2.77	n/a	n/a	GoodResponse	1	0.0	n/a	1	41	ISIslide	Win	True
401.124	0.25	Control	0.5581	0.0	Yes	2.926	0.024	n/a	GoodResponse	0	n/a	n/a	1	42	Cue	Neutral	True
401.375	3.85	Control	0.5581	0.0	Yes	2.926	0.001	n/a	GoodResponse	0	n/a	n/a	1	42	Fixation	Neutral	True
405.22	0.28	Control	0.5581	0.004	Yes	2.926	-0.004	2.0	GoodResponse	0	0.235	404.455	1	42	Target	Neutral	True
405.455	0.3	Control	0.5581	0.004	Yes	2.926	-0.004	2.0	GoodResponse	0	0.235	n/a	1	42	ButtonPress	Neutral	True
405.504	0.42	Control	0.5581	n/a	Yes	2.926	n/a	n/a	GoodResponse	0	n/a	n/a	1	42	Blank	Neutral	True
405.922	1.45	Control	0.5581	n/a	Yes	2.926	n/a	5.0	GoodResponse	0	0.0	404.922	1	42	Feedback	Neutral	True
407.376	2.926	Control	0.5581	n/a	Yes	2.926	n/a	n/a	GoodResponse	0	0.0	n/a	1	42	ISIslide	Neutral	True
410.318	0.25	Win2	0.5682	0.0	Yes	3.182	0.018	n/a	GoodResponse	1	n/a	n/a	2	43	Cue	Win	True
410.569	4.0	Win2	0.5682	0.0	Yes	3.182	0.001	n/a	GoodResponse	1	n/a	n/a	2	43	Fixation	Win	True
414.564	0.29	Win2	0.5682	0.004	Yes	3.182	-0.004	2.0	GoodResponse	1	0.217	413.781	2	43	Target	Win	True
414.781	0.3	Win2	0.5682	0.004	Yes	3.182	-0.004	2.0	GoodResponse	1	0.217	n/a	2	43	ButtonPress	Win	True
414.865	0.41	Win2	0.5682	n/a	Yes	3.182	n/a	n/a	GoodResponse	1	n/a	n/a	2	43	Blank	Win	True
415.266	1.45	Win2	0.5682	n/a	Yes	3.182	n/a	5.0	GoodResponse	1	0.022	414.288	2	43	Feedback	Win	True
416.721	3.182	Win2	0.5682	n/a	Yes	3.182	n/a	n/a	GoodResponse	1	0.0	n/a	2	43	ISIslide	Win	True
419.93	0.25	Win2	0.5778	0.0	Yes	2.97	0.03	n/a	GoodResponse	1	n/a	n/a	3	44	Cue	Win	True
420.181	4.0	Win2	0.5778	0.0	Yes	2.97	0.001	n/a	GoodResponse	1	n/a	n/a	3	44	Fixation	Win	True
424.176	0.3	Win2	0.5778	0.004	Yes	2.97	-0.004	2.0	GoodResponse	1	0.153	423.329	3	44	Target	Win	True
424.329	0.3	Win2	0.5778	0.004	Yes	2.97	-0.004	2.0	GoodResponse	1	0.153	n/a	3	44	ButtonPress	Win	True
424.477	0.4	Win2	0.5778	n/a	Yes	2.97	n/a	n/a	GoodResponse	1	n/a	n/a	3	44	Blank	Win	True
424.878	1.45	Win2	0.5778	n/a	Yes	2.97	n/a	5.0	GoodResponse	1	0.019	423.897	3	44	Feedback	Win	True
426.333	2.97	Win2	0.5778	n/a	Yes	2.97	n/a	n/a	GoodResponse	1	0.0	n/a	3	44	ISIslide	Win	True
429.325	0.25	Control	0.5870000000000001	0.0	Yes	2.875	0.025	n/a	GoodResponse	0	n/a	n/a	3	45	Cue	Neutral	True
429.576	4.1	Control	0.5870000000000001	0.0	Yes	2.875	0.001	n/a	GoodResponse	0	n/a	n/a	3	45	Fixation	Neutral	True
433.671	0.31	Control	0.5870000000000001	0.004	Yes	2.875	-0.004	2.0	GoodResponse	0	0.241	432.912	3	45	Target	Neutral	True
433.912	0.3	Control	0.5870000000000001	0.004	Yes	2.875	-0.004	2.0	GoodResponse	0	0.241	n/a	3	45	ButtonPress	Neutral	True
433.989	0.39	Control	0.5870000000000001	n/a	Yes	2.875	n/a	n/a	GoodResponse	0	n/a	n/a	3	45	Blank	Neutral	True
434.373	1.45	Control	0.5870000000000001	n/a	Yes	2.875	n/a	5.0	GoodResponse	0	0.037	433.41	3	45	Feedback	Neutral	True
435.828	2.875	Control	0.5870000000000001	n/a	Yes	2.875	n/a	n/a	GoodResponse	0	0.0	n/a	3	45	ISIslide	Neutral	True
438.72	0.25	Lose2	0.5957	0.0	Yes	3.38	0.02	n/a	GoodResponse	0	n/a	n/a	3	46	Cue	AvoidedLoss	True
438.97	4.0	Lose2	0.5957	0.001	Yes	3.38	0.0	n/a	GoodResponse	0	n/a	n/a	3	46	Fixation	AvoidedLoss	True
442.966	0.32	Lose2	0.5957	0.004	Yes	3.38	-0.004	2.0	GoodResponse	0	0.297	442.263	3	46	Target	AvoidedLoss	True
443.263	0.3	Lose2	0.5957	0.004	Yes	3.38	-0.004	2.0	GoodResponse	0	0.297	n/a	3	46	ButtonPress	AvoidedLoss	True
443.3	0.38	Lose2	0.5957	n/a	Yes	3.38	n/a	n/a	GoodResponse	0	n/a	n/a	3	46	Blank	AvoidedLoss	True
443.668	1.45	Lose2	0.5957	n/a	Yes	3.38	n/a	5.0	GoodResponse	0	0.009	442.677	3	46	Feedback	AvoidedLoss	True
445.122	3.38	Lose2	0.5957	n/a	Yes	3.38	n/a	n/a	GoodResponse	0	0.0	n/a	3	46	ISIslide	AvoidedLoss	True
448.516	0.25	Lose2	0.6042000000000001	0.0	Yes	2.684	0.016	n/a	GoodResponse	0	n/a	n/a	3	47	Cue	AvoidedLoss	True
448.766	4.0	Lose2	0.6042000000000001	0.0	Yes	2.684	0.0	n/a	GoodResponse	0	n/a	n/a	3	47	Fixation	AvoidedLoss	True
452.762	0.33	Lose2	0.6042000000000001	0.004	Yes	2.684	-0.004	2.0	GoodResponse	0	0.295	452.057	3	47	Target	AvoidedLoss	True
453.057	0.3	Lose2	0.6042000000000001	0.004	Yes	2.684	-0.004	2.0	GoodResponse	0	0.295	n/a	3	47	ButtonPress	AvoidedLoss	True
453.096	0.37	Lose2	0.6042000000000001	n/a	Yes	2.684	n/a	n/a	GoodResponse	0	n/a	n/a	3	47	Blank	AvoidedLoss	True
453.464	1.45	Lose2	0.6042000000000001	n/a	Yes	2.684	n/a	5.0	GoodResponse	0	0.018	452.482	3	47	Feedback	AvoidedLoss	True
454.918	2.684	Lose2	0.6042000000000001	n/a	Yes	2.684	n/a	n/a	GoodResponse	0	0.0	n/a	3	47	ISIslide	AvoidedLoss	True
457.626	0.25	Lose2	0.6122	0.0	Yes	3.024	0.026	n/a	GoodResponse	0	n/a	n/a	3	48	Cue	AvoidedLoss	True
457.877	3.95	Lose2	0.6122	0.0	Yes	3.024	0.001	n/a	GoodResponse	0	n/a	n/a	3	48	Fixation	AvoidedLoss	True
461.822	0.34	Lose2	0.6122	0.004	Yes	3.024	-0.004	2.0	GoodResponse	0	0.185	461.007	3	48	Target	AvoidedLoss	True
462.007	0.3	Lose2	0.6122	0.004	Yes	3.024	-0.004	2.0	GoodResponse	0	0.185	n/a	3	48	ButtonPress	AvoidedLoss	True
462.173	0.36	Lose2	0.6122	n/a	Yes	3.024	n/a	n/a	GoodResponse	0	n/a	n/a	3	48	Blank	AvoidedLoss	True
462.524	1.45	Lose2	0.6122	n/a	Yes	3.024	n/a	5.0	GoodResponse	0	0.031	461.555	3	48	Feedback	AvoidedLoss	True
463.979	3.024	Lose2	0.6122	n/a	Yes	3.024	n/a	n/a	GoodResponse	0	0.0	n/a	3	48	ISIslide	AvoidedLoss	True
467.021	0.25	Control	0.6	0.0	No	2.879	0.021	n/a	NoResponse	0	n/a	n/a	3	49	Cue	Neutral	False
467.272	4.0	Control	0.6	0.0	No	2.879	0.001	n/a	NoResponse	0	n/a	n/a	3	49	Fixation	Neutral	False
471.267	0.35	Control	0.6	0.004	No	2.879	-0.004	n/a	NoResponse	0	n/a	n/a	3	49	Target	Neutral	False
471.618	0.35	Control	0.6	n/a	No	2.879	n/a	n/a	NoResponse	0	n/a	n/a	3	49	Blank	Neutral	False
471.969	1.45	Control	0.6	n/a	No	2.879	n/a	5.0	NoResponse	0	0.001	470.97	3	49	Feedback	Neutral	False
473.423	2.879	Control	0.6	n/a	No	2.879	n/a	n/a	NoResponse	0	0.0	n/a	3	49	ISIslide	Neutral	False
476.315	0.25	Control	0.6078	0.001	Yes	2.785	0.015	n/a	GoodResponse	0	n/a	n/a	3	50	Cue	Neutral	True
476.566	4.0	Control	0.6078	0.0	Yes	2.785	0.001	n/a	GoodResponse	0	n/a	n/a	3	50	Fixation	Neutral	True
480.561	0.36	Control	0.6078	0.004	Yes	2.785	-0.004	2.0	GoodResponse	0	0.243	479.804	3	50	Target	Neutral	True
480.804	0.3	Control	0.6078	0.004	Yes	2.785	-0.004	2.0	GoodResponse	0	0.243	n/a	3	50	ButtonPress	Neutral	True
480.929	0.34	Control	0.6078	n/a	Yes	2.785	n/a	n/a	GoodResponse	0	n/a	n/a	3	50	Blank	Neutral	True
481.264	1.45	Control	0.6078	n/a	Yes	2.785	n/a	5.0	GoodResponse	0	0.022	480.286	3	50	Feedback	Neutral	True
482.718	2.785	Control	0.6078	n/a	Yes	2.785	n/a	n/a	GoodResponse	0	0.0	n/a	3	50	ISIslide	Neutral	True
485.526	0.25	Control	0.6154	0.0	Yes	2.724	0.026	n/a	GoodResponse	0	n/a	n/a	3	51	Cue	Neutral	True
485.777	3.95	Control	0.6154	0.0	Yes	2.724	0.001	n/a	GoodResponse	0	n/a	n/a	3	51	Fixation	Neutral	True
489.722	0.37	Control	0.6154	0.004	Yes	2.724	-0.004	2.0	GoodResponse	0	0.192	488.914	3	51	Target	Neutral	True
489.914	0.3	Control	0.6154	0.004	Yes	2.724	-0.004	2.0	GoodResponse	0	0.192	n/a	3	51	ButtonPress	Neutral	True
490.107	0.33	Control	0.6154	n/a	Yes	2.724	n/a	n/a	GoodResponse	0	n/a	n/a	3	51	Blank	Neutral	True
490.424	1.45	Control	0.6154	n/a	Yes	2.724	n/a	5.0	GoodResponse	0	0.033	489.457	3	51	Feedback	Neutral	True
491.879	2.724	Control	0.6154	n/a	Yes	2.724	n/a	n/a	GoodResponse	0	0.0	n/a	3	51	ISIslide	Neutral	True
494.62	0.25	Control	0.6225999999999999	0.0	Yes	2.63	0.02	n/a	GoodResponse	0	n/a	n/a	3	52	Cue	Neutral	True
494.871	4.05	Control	0.6225999999999999	0.0	Yes	2.63	0.001	n/a	GoodResponse	0	n/a	n/a	3	52	Fixation	Neutral	True
498.916	0.38	Control	0.6225999999999999	0.004	Yes	2.63	-0.004	2.0	GoodResponse	0	0.206	498.122	3	52	Target	Neutral	True
499.122	0.3	Control	0.6225999999999999	0.004	Yes	2.63	-0.004	2.0	GoodResponse	0	0.206	n/a	3	52	ButtonPress	Neutral	True
499.301	0.32	Control	0.6225999999999999	n/a	Yes	2.63	n/a	n/a	GoodResponse	0	n/a	n/a	3	52	Blank	Neutral	True
499.618	1.45	Control	0.6225999999999999	n/a	Yes	2.63	n/a	5.0	GoodResponse	0	0.01	498.628	3	52	Feedback	Neutral	True
501.073	2.63	Control	0.6225999999999999	n/a	Yes	2.63	n/a	n/a	GoodResponse	0	0.0	n/a	3	52	ISIslide	Neutral	True
503.731	0.25	Win2	0.6296	0.0	Yes	2.919	0.031	n/a	GoodResponse	1	n/a	n/a	4	53	Cue	Win	True
503.981	4.05	Win2	0.6296	0.001	Yes	2.919	0.0	n/a	GoodResponse	1	n/a	n/a	4	53	Fixation	Win	True
508.027	0.39	Win2	0.6296	0.004	Yes	2.919	-0.004	2.0	GoodResponse	1	0.199	507.226	4	53	Target	Win	True
508.226	0.3	Win2	0.6296	0.004	Yes	2.919	-0.004	2.0	GoodResponse	1	0.199	n/a	4	53	ButtonPress	Win	True
508.428	0.31	Win2	0.6296	n/a	Yes	2.919	n/a	n/a	GoodResponse	1	n/a	n/a	4	53	Blank	Win	True
508.729	1.45	Win2	0.6296	n/a	Yes	2.919	n/a	5.0	GoodResponse	1	0.021	507.75	4	53	Feedback	Win	True
510.183	2.919	Win2	0.6296	n/a	Yes	2.919	n/a	n/a	GoodResponse	1	0.0	n/a	4	53	ISIslide	Win	True
513.126	0.25	Win2	0.6364	0.0	Yes	2.724	0.026	n/a	GoodResponse	1	n/a	n/a	5	54	Cue	Win	True
513.376	3.95	Win2	0.6364	0.0	Yes	2.724	0.0	n/a	GoodResponse	1	n/a	n/a	5	54	Fixation	Win	True
517.338	0.4	Win2	0.6364	0.0	Yes	2.724	0.012	2.0	GoodResponse	1	0.226	516.564	5	54	Target	Win	True
517.564	0.3	Win2	0.6364	0.0	Yes	2.724	0.012	2.0	GoodResponse	1	0.226	n/a	5	54	ButtonPress	Win	True
517.723	0.3	Win2	0.6364	n/a	Yes	2.724	n/a	n/a	GoodResponse	1	n/a	n/a	5	54	Blank	Win	True
518.023	1.45	Win2	0.6364	n/a	Yes	2.724	n/a	5.0	GoodResponse	1	0.044	517.067	5	54	Feedback	Win	True
519.478	2.724	Win2	0.6364	n/a	Yes	2.724	n/a	n/a	GoodResponse	1	0.0	n/a	5	54	ISIslide	Win	True
522.219	0.25	Control	0.6429	0.0	Yes	3.031	0.019	n/a	GoodResponse	0	n/a	n/a	5	55	Cue	Neutral	True
522.47	3.95	Control	0.6429	0.0	Yes	3.031	0.001	n/a	GoodResponse	0	n/a	n/a	5	55	Fixation	Neutral	True
526.415	0.41	Control	0.6429	0.004	Yes	3.031	-0.004	2.0	GoodResponse	0	0.262	525.677	5	55	Target	Neutral	True
526.677	0.3	Control	0.6429	0.004	Yes	3.031	-0.004	2.0	GoodResponse	0	0.262	n/a	5	55	ButtonPress	Neutral	True
526.833	0.29	Control	0.6429	n/a	Yes	3.031	n/a	n/a	GoodResponse	0	n/a	n/a	5	55	Blank	Neutral	True
527.117	1.45	Control	0.6429	n/a	Yes	3.031	n/a	5.0	GoodResponse	0	0.023	526.14	5	55	Feedback	Neutral	True
528.572	3.031	Control	0.6429	n/a	Yes	3.031	n/a	n/a	GoodResponse	0	0.0	n/a	5	55	ISIslide	Neutral	True
531.614	0.25	Control	0.6491	0.0	Yes	2.836	0.014	n/a	GoodResponse	0	n/a	n/a	5	56	Cue	Neutral	True
531.865	3.95	Control	0.6491	0.0	Yes	2.836	0.001	n/a	GoodResponse	0	n/a	n/a	5	56	Fixation	Neutral	True
535.81	0.42	Control	0.6491	0.004	Yes	2.836	-0.004	2.0	GoodResponse	0	0.227	535.037	5	56	Target	Neutral	True
536.037	0.3	Control	0.6491	0.004	Yes	2.836	-0.004	2.0	GoodResponse	0	0.227	n/a	5	56	ButtonPress	Neutral	True
536.245	0.28	Control	0.6491	n/a	Yes	2.836	n/a	n/a	GoodResponse	0	n/a	n/a	5	56	Blank	Neutral	True
536.512	1.45	Control	0.6491	n/a	Yes	2.836	n/a	5.0	GoodResponse	0	0.042	535.554	5	56	Feedback	Neutral	True
537.966	2.836	Control	0.6491	n/a	Yes	2.836	n/a	n/a	GoodResponse	0	0.0	n/a	5	56	ISIslide	Neutral	True
540.825	0.25	Control	0.6379	0.0	No	3.475	0.025	n/a	NoResponse	0	n/a	n/a	5	57	Cue	Neutral	False
541.076	4.0	Control	0.6379	0.0	No	3.475	0.001	n/a	NoResponse	0	n/a	n/a	5	57	Fixation	Neutral	False
545.071	0.43	Control	0.6379	0.004	No	3.475	-0.004	n/a	NoResponse	0	n/a	n/a	5	57	Target	Neutral	False
545.506	0.27	Control	0.6379	n/a	No	3.475	n/a	n/a	NoResponse	0	n/a	n/a	5	57	Blank	Neutral	False
545.773	1.45	Control	0.6379	n/a	No	3.475	n/a	5.0	NoResponse	0	0.001	544.774	5	57	Feedback	Neutral	False
547.227	3.475	Control	0.6379	n/a	No	3.475	n/a	n/a	NoResponse	0	0.0	n/a	5	57	ISIslide	Neutral	False
550.721	0.25	Win2	0.6441	0.0	Yes	2.729	0.021	n/a	GoodResponse	1	n/a	n/a	6	58	Cue	Win	True
550.972	4.05	Win2	0.6441	0.0	Yes	2.729	0.001	n/a	GoodResponse	1	n/a	n/a	6	58	Fixation	Win	True
555.017	0.44	Win2	0.6441	0.004	Yes	2.729	-0.004	2.0	GoodResponse	1	0.188	554.205	6	58	Target	Win	True
555.205	0.3	Win2	0.6441	0.004	Yes	2.729	-0.004	2.0	GoodResponse	1	0.188	n/a	6	58	ButtonPress	Win	True
555.469	0.26	Win2	0.6441	n/a	Yes	2.729	n/a	n/a	GoodResponse	1	n/a	n/a	6	58	Blank	Win	True
555.72	1.45	Win2	0.6441	n/a	Yes	2.729	n/a	5.0	GoodResponse	1	0.005	554.725	6	58	Feedback	Win	True
557.174	2.729	Win2	0.6441	n/a	Yes	2.729	n/a	n/a	GoodResponse	1	0.0	n/a	6	58	ISIslide	Win	True
559.915	0.25	Lose2	0.65	0.0	Yes	2.685	0.015	n/a	GoodResponse	0	n/a	n/a	6	59	Cue	AvoidedLoss	True
560.166	4.0	Lose2	0.65	0.0	Yes	2.685	0.001	n/a	GoodResponse	0	n/a	n/a	6	59	Fixation	AvoidedLoss	True
564.161	0.45	Lose2	0.65	0.004	Yes	2.685	-0.004	2.0	GoodResponse	0	0.218	563.379	6	59	Target	AvoidedLoss	True
564.379	0.3	Lose2	0.65	0.004	Yes	2.685	-0.004	2.0	GoodResponse	0	0.218	n/a	6	59	ButtonPress	AvoidedLoss	True
564.613	0.25	Lose2	0.65	n/a	Yes	2.685	n/a	n/a	GoodResponse	0	n/a	n/a	6	59	Blank	AvoidedLoss	True
564.864	1.45	Lose2	0.65	n/a	Yes	2.685	n/a	5.0	GoodResponse	0	0.032	563.896	6	59	Feedback	AvoidedLoss	True
566.318	2.685	Lose2	0.65	n/a	Yes	2.685	n/a	n/a	GoodResponse	0	0.0	n/a	6	59	ISIslide	AvoidedLoss	True
569.026	0.25	Control	0.6557	0.0	Yes	2.674	0.026	n/a	GoodResponse	0	n/a	n/a	6	60	Cue	Neutral	True
569.277	4.0	Control	0.6557	0.0	Yes	2.674	0.001	n/a	GoodResponse	0	n/a	n/a	6	60	Fixation	Neutral	True
573.272	0.46	Control	0.6557	0.004	Yes	2.674	-0.004	2.0	GoodResponse	0	0.22	572.492	6	60	Target	Neutral	True
573.492	0.3	Control	0.6557	0.004	Yes	2.674	-0.004	2.0	GoodResponse	0	0.22	n/a	6	60	ButtonPress	Neutral	True
573.74	0.24	Control	0.6557	n/a	Yes	2.674	n/a	n/a	GoodResponse	0	n/a	n/a	6	60	Blank	Neutral	True
573.974	1.45	Control	0.6557	n/a	Yes	2.674	n/a	5.0	GoodResponse	0	0.043	573.017	6	60	Feedback	Neutral	True
575.428	2.674	Control	0.6557	n/a	Yes	2.674	n/a	n/a	GoodResponse	0	0.0	n/a	6	60	ISIslide	Neutral	True
578.12	0.25	Lose2	0.6613	0.0	Yes	2.98	0.02	n/a	GoodResponse	0	n/a	n/a	6	61	Cue	AvoidedLoss	True
578.371	4.0	Lose2	0.6613	0.0	Yes	2.98	0.001	n/a	GoodResponse	0	n/a	n/a	6	61	Fixation	AvoidedLoss	True
582.366	0.46	Lose2	0.6613	0.004	Yes	2.98	-0.004	2.0	GoodResponse	0	0.192	581.558	6	61	Target	AvoidedLoss	True
582.558	0.3	Lose2	0.6613	0.004	Yes	2.98	-0.004	2.0	GoodResponse	0	0.192	n/a	6	61	ButtonPress	AvoidedLoss	True
582.834	0.24	Lose2	0.6613	n/a	Yes	2.98	n/a	n/a	GoodResponse	0	n/a	n/a	6	61	Blank	AvoidedLoss	True
583.068	1.45	Lose2	0.6613	n/a	Yes	2.98	n/a	5.0	GoodResponse	0	0.023	582.091	6	61	Feedback	AvoidedLoss	True
584.522	2.98	Lose2	0.6613	n/a	Yes	2.98	n/a	n/a	GoodResponse	0	0.0	n/a	6	61	ISIslide	AvoidedLoss	True
587.515	0.25	Lose2	0.6667000000000001	0.0	Yes	2.885	0.015	n/a	GoodResponse	0	n/a	n/a	6	62	Cue	AvoidedLoss	True
587.765	3.9	Lose2	0.6667000000000001	0.0	Yes	2.885	0.0	n/a	GoodResponse	0	n/a	n/a	6	62	Fixation	AvoidedLoss	True
591.677	0.46	Lose2	0.6667000000000001	0.0	Yes	2.885	0.012	2.0	GoodResponse	0	0.191	590.868	6	62	Target	AvoidedLoss	True
591.868	0.3	Lose2	0.6667000000000001	0.0	Yes	2.885	0.012	2.0	GoodResponse	0	0.191	n/a	6	62	ButtonPress	AvoidedLoss	True
592.128	0.24	Lose2	0.6667000000000001	n/a	Yes	2.885	n/a	n/a	GoodResponse	0	n/a	n/a	6	62	Blank	AvoidedLoss	True
592.362	1.45	Lose2	0.6667000000000001	n/a	Yes	2.885	n/a	5.0	GoodResponse	0	0.046	591.408	6	62	Feedback	AvoidedLoss	True
593.817	2.885	Lose2	0.6667000000000001	n/a	Yes	2.885	n/a	n/a	GoodResponse	0	0.0	n/a	6	62	ISIslide	AvoidedLoss	True
596.725	0.25	Lose2	0.6718999999999999	0.001	Yes	2.625	0.025	n/a	GoodResponse	0	n/a	n/a	6	63	Cue	AvoidedLoss	True
596.976	4.05	Lose2	0.6718999999999999	0.0	Yes	2.625	0.001	n/a	GoodResponse	0	n/a	n/a	6	63	Fixation	AvoidedLoss	True
601.022	0.45	Lose2	0.6718999999999999	0.003	Yes	2.625	-0.003	2.0	GoodResponse	0	0.219	600.241	6	63	Target	AvoidedLoss	True
601.241	0.3	Lose2	0.6718999999999999	0.003	Yes	2.625	-0.003	2.0	GoodResponse	0	0.219	n/a	6	63	ButtonPress	AvoidedLoss	True
601.473	0.25	Lose2	0.6718999999999999	n/a	Yes	2.625	n/a	n/a	GoodResponse	0	n/a	n/a	6	63	Blank	AvoidedLoss	True
601.724	1.45	Lose2	0.6718999999999999	n/a	Yes	2.625	n/a	5.0	GoodResponse	0	0.001	600.725	6	63	Feedback	AvoidedLoss	True
603.178	2.625	Lose2	0.6718999999999999	n/a	Yes	2.625	n/a	n/a	GoodResponse	0	0.0	n/a	6	63	ISIslide	AvoidedLoss	True
605.819	0.25	Win2	0.6769	0.0	Yes	3.131	0.019	n/a	GoodResponse	1	n/a	n/a	7	64	Cue	Win	True
606.07	4.15	Win2	0.6769	0.0	Yes	3.131	0.001	n/a	GoodResponse	1	n/a	n/a	7	64	Fixation	Win	True
610.216	0.44	Win2	0.6769	0.003	Yes	3.131	-0.003	2.0	GoodResponse	1	0.192	609.408	7	64	Target	Win	True
610.408	0.3	Win2	0.6769	0.003	Yes	3.131	-0.003	2.0	GoodResponse	1	0.192	n/a	7	64	ButtonPress	Win	True
610.667	0.26	Win2	0.6769	n/a	Yes	3.131	n/a	n/a	GoodResponse	1	n/a	n/a	7	64	Blank	Win	True
610.918	1.45	Win2	0.6769	n/a	Yes	3.131	n/a	5.0	GoodResponse	1	0.026	609.944	7	64	Feedback	Win	True
612.372	3.131	Win2	0.6769	n/a	Yes	3.131	n/a	n/a	GoodResponse	1	0.0	n/a	7	64	ISIslide	Win	True
615.515	0.25	Control	0.6818000000000001	0.0	Yes	2.785	0.015	n/a	GoodResponse	0	n/a	n/a	7	65	Cue	Neutral	True
615.766	4.0	Control	0.6818000000000001	0.0	Yes	2.785	0.001	n/a	GoodResponse	0	n/a	n/a	7	65	Fixation	Neutral	True
619.761	0.43	Control	0.6818000000000001	0.004	Yes	2.785	-0.004	2.0	GoodResponse	0	0.416	619.177	7	65	Target	Neutral	True
620.177	0.3	Control	0.6818000000000001	0.004	Yes	2.785	-0.004	2.0	GoodResponse	0	0.416	n/a	7	65	ButtonPress	Neutral	True
620.196	0.27	Control	0.6818000000000001	n/a	Yes	2.785	n/a	n/a	GoodResponse	0	n/a	n/a	7	65	Blank	Neutral	True
620.463	1.45	Control	0.6818000000000001	n/a	Yes	2.785	n/a	5.0	GoodResponse	0	0.042	619.505	7	65	Feedback	Neutral	True
621.917	2.785	Control	0.6818000000000001	n/a	Yes	2.785	n/a	n/a	GoodResponse	0	0.0	n/a	7	65	ISIslide	Neutral	True
624.726	0.25	Win2	0.6866	0.0	Yes	2.774	0.026	n/a	GoodResponse	1	n/a	n/a	8	66	Cue	Win	True
624.977	3.9	Win2	0.6866	0.0	Yes	2.774	0.001	n/a	GoodResponse	1	n/a	n/a	8	66	Fixation	Win	True
628.872	0.42	Win2	0.6866	0.004	Yes	2.774	-0.004	2.0	GoodResponse	1	0.193	628.065	8	66	Target	Win	True
629.065	0.3	Win2	0.6866	0.004	Yes	2.774	-0.004	2.0	GoodResponse	1	0.193	n/a	8	66	ButtonPress	Win	True
629.306	0.28	Win2	0.6866	n/a	Yes	2.774	n/a	n/a	GoodResponse	1	n/a	n/a	8	66	Blank	Win	True
629.574	1.45	Win2	0.6866	n/a	Yes	2.774	n/a	5.0	GoodResponse	1	0.007	628.581	8	66	Feedback	Win	True
631.028	2.774	Win2	0.6866	n/a	Yes	2.774	n/a	n/a	GoodResponse	1	0.0	n/a	8	66	ISIslide	Win	True
633.82	0.25	Control	0.6912	0.0	Yes	2.73	0.02	n/a	GoodResponse	0	n/a	n/a	8	67	Cue	Neutral	True
634.07	3.95	Control	0.6912	0.001	Yes	2.73	0.0	n/a	GoodResponse	0	n/a	n/a	8	67	Fixation	Neutral	True
638.016	0.41	Control	0.6912	0.004	Yes	2.73	-0.004	2.0	GoodResponse	0	0.193	637.209	8	67	Target	Neutral	True
638.209	0.3	Control	0.6912	0.004	Yes	2.73	-0.004	2.0	GoodResponse	0	0.193	n/a	8	67	ButtonPress	Neutral	True
638.434	0.29	Control	0.6912	n/a	Yes	2.73	n/a	n/a	GoodResponse	0	n/a	n/a	8	67	Blank	Neutral	True
638.718	1.45	Control	0.6912	n/a	Yes	2.73	n/a	5.0	GoodResponse	0	0.031	637.749	8	67	Feedback	Neutral	True
640.172	2.73	Control	0.6912	n/a	Yes	2.73	n/a	n/a	GoodResponse	0	0.0	n/a	8	67	ISIslide	Neutral	True
642.93	0.25	Win2	0.6957	0.0	Yes	3.07	0.03	n/a	GoodResponse	1	n/a	n/a	9	68	Cue	Win	True
643.181	4.0	Win2	0.6957	0.0	Yes	3.07	0.001	n/a	GoodResponse	1	n/a	n/a	9	68	Fixation	Win	True
647.176	0.4	Win2	0.6957	0.004	Yes	3.07	-0.004	2.0	GoodResponse	1	0.178	646.354	9	68	Target	Win	True
647.354	0.3	Win2	0.6957	0.004	Yes	3.07	-0.004	2.0	GoodResponse	1	0.178	n/a	9	68	ButtonPress	Win	True
647.578	0.3	Win2	0.6957	n/a	Yes	3.07	n/a	n/a	GoodResponse	1	n/a	n/a	9	68	Blank	Win	True
647.878	1.45	Win2	0.6957	n/a	Yes	3.07	n/a	5.0	GoodResponse	1	0.042	646.92	9	68	Feedback	Win	True
649.333	3.07	Win2	0.6957	n/a	Yes	3.07	n/a	n/a	GoodResponse	1	0.0	n/a	9	68	ISIslide	Win	True
652.425	0.25	Win2	0.7	0.0	Yes	3.225	0.025	n/a	GoodResponse	1	n/a	n/a	10	69	Cue	Win	True
652.676	3.95	Win2	0.7	0.0	Yes	3.225	0.001	n/a	GoodResponse	1	n/a	n/a	10	69	Fixation	Win	True
656.621	0.39	Win2	0.7	0.004	Yes	3.225	-0.004	2.0	GoodResponse	1	0.254	655.875	10	69	Target	Win	True
656.875	0.3	Win2	0.7	0.004	Yes	3.225	-0.004	2.0	GoodResponse	1	0.254	n/a	10	69	ButtonPress	Win	True
657.022	0.31	Win2	0.7	n/a	Yes	3.225	n/a	n/a	GoodResponse	1	n/a	n/a	10	69	Blank	Win	True
657.323	1.45	Win2	0.7	n/a	Yes	3.225	n/a	5.0	GoodResponse	1	0.011	656.334	10	69	Feedback	Win	True
658.778	3.225	Win2	0.7	n/a	Yes	3.225	n/a	n/a	GoodResponse	1	0.0	n/a	10	69	ISIslide	Win	True
662.021	0.25	Lose2	0.7042	0.0	Yes	3.029	0.021	n/a	GoodResponse	0	n/a	n/a	10	70	Cue	AvoidedLoss	True
662.271	4.05	Lose2	0.7042	0.001	Yes	3.029	0.0	n/a	GoodResponse	0	n/a	n/a	10	70	Fixation	AvoidedLoss	True
666.317	0.38	Lose2	0.7042	0.004	Yes	3.029	-0.004	2.0	GoodResponse	0	0.193	665.51	10	70	Target	AvoidedLoss	True
666.51	0.3	Lose2	0.7042	0.004	Yes	3.029	-0.004	2.0	GoodResponse	0	0.193	n/a	10	70	ButtonPress	AvoidedLoss	True
666.701	0.32	Lose2	0.7042	n/a	Yes	3.029	n/a	n/a	GoodResponse	0	n/a	n/a	10	70	Blank	AvoidedLoss	True
667.019	1.45	Lose2	0.7042	n/a	Yes	3.029	n/a	5.0	GoodResponse	0	0.022	666.041	10	70	Feedback	AvoidedLoss	True
668.473	3.029	Lose2	0.7042	n/a	Yes	3.029	n/a	n/a	GoodResponse	0	0.0	n/a	10	70	ISIslide	AvoidedLoss	True
671.516	0.25	Win2	0.7082999999999999	0.0	Yes	2.734	0.016	n/a	GoodResponse	1	n/a	n/a	11	71	Cue	Win	True
671.766	4.05	Win2	0.7082999999999999	0.001	Yes	2.734	0.0	n/a	GoodResponse	1	n/a	n/a	11	71	Fixation	Win	True
675.812	0.37	Win2	0.7082999999999999	0.004	Yes	2.734	-0.004	2.0	GoodResponse	1	0.19	675.002	11	71	Target	Win	True
676.002	0.3	Win2	0.7082999999999999	0.004	Yes	2.734	-0.004	2.0	GoodResponse	1	0.19	n/a	11	71	ButtonPress	Win	True
676.196	0.33	Win2	0.7082999999999999	n/a	Yes	2.734	n/a	n/a	GoodResponse	1	n/a	n/a	11	71	Blank	Win	True
676.514	1.45	Win2	0.7082999999999999	n/a	Yes	2.734	n/a	5.0	GoodResponse	1	0.039	675.553	11	71	Feedback	Win	True
677.968	2.734	Win2	0.7082999999999999	n/a	Yes	2.734	n/a	n/a	GoodResponse	1	0.0	n/a	11	71	ISIslide	Win	True
680.727	0.25	Win2	0.7123	0.0	Yes	2.773	0.027	n/a	GoodResponse	1	n/a	n/a	12	72	Cue	Win	True
680.977	4.1	Win2	0.7123	0.0	Yes	2.773	0.0	n/a	GoodResponse	1	n/a	n/a	12	72	Fixation	Win	True
685.073	0.36	Win2	0.7123	0.004	Yes	2.773	-0.004	2.0	GoodResponse	1	0.192	684.265	12	72	Target	Win	True
685.265	0.3	Win2	0.7123	0.004	Yes	2.773	-0.004	2.0	GoodResponse	1	0.192	n/a	12	72	ButtonPress	Win	True
685.441	0.34	Win2	0.7123	n/a	Yes	2.773	n/a	n/a	GoodResponse	1	n/a	n/a	12	72	Blank	Win	True
685.775	1.45	Win2	0.7123	n/a	Yes	2.773	n/a	5.0	GoodResponse	1	0.047	684.822	12	72	Feedback	Win	True
687.229	2.773	Win2	0.7123	n/a	Yes	2.773	n/a	n/a	GoodResponse	1	0.0	n/a	12	72	ISIslide	Win	True
690.021	0.25	Win2	0.7162000000000001	0.0	Yes	2.679	0.021	n/a	GoodResponse	1	n/a	n/a	13	73	Cue	Win	True
690.272	4.0	Win2	0.7162000000000001	0.0	Yes	2.679	0.001	n/a	GoodResponse	1	n/a	n/a	13	73	Fixation	Win	True
694.267	0.35	Win2	0.7162000000000001	0.004	Yes	2.679	-0.004	2.0	GoodResponse	1	0.187	693.454	13	73	Target	Win	True
694.454	0.3	Win2	0.7162000000000001	0.004	Yes	2.679	-0.004	2.0	GoodResponse	1	0.187	n/a	13	73	ButtonPress	Win	True
694.618	0.35	Win2	0.7162000000000001	n/a	Yes	2.679	n/a	n/a	GoodResponse	1	n/a	n/a	13	73	Blank	Win	True
694.969	1.45	Win2	0.7162000000000001	n/a	Yes	2.679	n/a	5.0	GoodResponse	1	0.024	693.993	13	73	Feedback	Win	True
696.424	2.679	Win2	0.7162000000000001	n/a	Yes	2.679	n/a	n/a	GoodResponse	1	0.0	n/a	13	73	ISIslide	Win	True
699.115	0.25	Lose2	0.72	0.0	Yes	2.635	0.015	n/a	GoodResponse	0	n/a	n/a	13	74	Cue	AvoidedLoss	True
699.366	4.05	Lose2	0.72	0.0	Yes	2.635	0.001	n/a	GoodResponse	0	n/a	n/a	13	74	Fixation	AvoidedLoss	True
703.411	0.34	Lose2	0.72	0.004	Yes	2.635	-0.004	2.0	GoodResponse	0	0.187	702.598	13	74	Target	AvoidedLoss	True
703.598	0.3	Lose2	0.72	0.004	Yes	2.635	-0.004	2.0	GoodResponse	0	0.187	n/a	13	74	ButtonPress	AvoidedLoss	True
703.762	0.36	Lose2	0.72	n/a	Yes	2.635	n/a	n/a	GoodResponse	0	n/a	n/a	13	74	Blank	AvoidedLoss	True
704.113	1.45	Lose2	0.72	n/a	Yes	2.635	n/a	5.0	GoodResponse	0	0.001	703.114	13	74	Feedback	AvoidedLoss	True
705.568	2.635	Lose2	0.72	n/a	Yes	2.635	n/a	n/a	GoodResponse	0	0.0	n/a	13	74	ISIslide	AvoidedLoss	True
708.226	0.25	Lose2	0.7237	0.0	Yes	2.924	0.026	n/a	GoodResponse	0	n/a	n/a	13	75	Cue	AvoidedLoss	True
708.476	3.95	Lose2	0.7237	0.0	Yes	2.924	0.0	n/a	GoodResponse	0	n/a	n/a	13	75	Fixation	AvoidedLoss	True
712.438	0.33	Lose2	0.7237	0.0	Yes	2.924	0.012	2.0	GoodResponse	0	0.208	711.646	13	75	Target	AvoidedLoss	True
712.646	0.3	Lose2	0.7237	0.0	Yes	2.924	0.012	2.0	GoodResponse	0	0.208	n/a	13	75	ButtonPress	AvoidedLoss	True
712.756	0.37	Lose2	0.7237	n/a	Yes	2.924	n/a	n/a	GoodResponse	0	n/a	n/a	13	75	Blank	AvoidedLoss	True
713.123	1.45	Lose2	0.7237	n/a	Yes	2.924	n/a	5.0	GoodResponse	0	0.015	712.138	13	75	Feedback	AvoidedLoss	True
714.578	2.924	Lose2	0.7237	n/a	Yes	2.924	n/a	n/a	GoodResponse	0	0.0	n/a	13	75	ISIslide	AvoidedLoss	True
717.52	0.25	Control	0.7143	0.0	No	3.23	0.02	n/a	NoResponse	0	n/a	n/a	13	76	Cue	Neutral	False
717.771	4.05	Control	0.7143	0.0	No	3.23	0.001	n/a	NoResponse	0	n/a	n/a	13	76	Fixation	Neutral	False
721.816	0.32	Control	0.7143	0.004	No	3.23	-0.004	n/a	NoResponse	0	n/a	n/a	13	76	Target	Neutral	False
722.15	0.38	Control	0.7143	n/a	No	3.23	n/a	n/a	NoResponse	0	n/a	n/a	13	76	Blank	Neutral	False
722.518	1.45	Control	0.7143	n/a	No	3.23	n/a	5.0	NoResponse	0	0.035	721.553	13	76	Feedback	Neutral	False
723.973	3.23	Control	0.7143	n/a	No	3.23	n/a	n/a	NoResponse	0	0.0	n/a	13	76	ISIslide	Neutral	False
727.216	0.25	Lose2	0.7179000000000001	0.0	Yes	2.584	0.016	n/a	GoodResponse	0	n/a	n/a	13	77	Cue	AvoidedLoss	True
727.466	3.95	Lose2	0.7179000000000001	0.0	Yes	2.584	0.0	n/a	GoodResponse	0	n/a	n/a	13	77	Fixation	AvoidedLoss	True
731.412	0.31	Lose2	0.7179000000000001	0.004	Yes	2.584	-0.004	2.0	GoodResponse	0	0.235	730.647	13	77	Target	AvoidedLoss	True
731.647	0.3	Lose2	0.7179000000000001	0.004	Yes	2.584	-0.004	2.0	GoodResponse	0	0.235	n/a	13	77	ButtonPress	AvoidedLoss	True
731.729	0.39	Lose2	0.7179000000000001	n/a	Yes	2.584	n/a	n/a	GoodResponse	0	n/a	n/a	13	77	Blank	AvoidedLoss	True
732.114	1.45	Lose2	0.7179000000000001	n/a	Yes	2.584	n/a	5.0	GoodResponse	0	0.0	731.114	13	77	Feedback	AvoidedLoss	True
733.568	2.584	Lose2	0.7179000000000001	n/a	Yes	2.584	n/a	n/a	GoodResponse	0	0.0	n/a	13	77	ISIslide	AvoidedLoss	True
