onset	duration	cue_type	current_mean_accuracy	duration_error	is_hit	isi_adjusted	onset_delay	response	response_type	reward	rt	rt_time	total_reward	trial_number	trial_phase	trial_type	one_press
11.104	0.25	Control	1.0	0.0	Yes	2.946	0.004	n/a	GoodResponse	0	n/a	n/a	0	0	Cue	Neutral	True
11.355	3.85	Control	1.0	0.0	Yes	2.946	0.001	n/a	GoodResponse	0	n/a	n/a	0	0	Fixation	Neutral	True
15.2	0.4	Control	1.0	0.004	Yes	2.946	-0.004	1.0	GoodResponse	0	0.281	14.481	0	0	Target	Neutral	True
15.481	0.3	Control	1.0	0.004	Yes	2.946	-0.004	1.0	GoodResponse	0	0.281	n/a	0	0	ButtonPress	Neutral	True
15.601	0.3	Control	1.0	n/a	Yes	2.946	n/a	n/a	GoodResponse	0	n/a	n/a	0	0	Blank	Neutral	True
15.902	1.45	Control	1.0	n/a	Yes	2.946	n/a	5.0	GoodResponse	0	0.024	14.926	0	0	Feedback	Neutral	True
17.356	2.946	Control	1.0	n/a	Yes	2.946	n/a	n/a	GoodResponse	0	0.0	n/a	0	0	ISIslide	Neutral	True
20.315	0.25	Lose2	1.0	0.0	Yes	2.785	0.015	n/a	GoodResponse	0	n/a	n/a	0	1	Cue	AvoidedLoss	True
20.566	4.0	Lose2	1.0	0.0	Yes	2.785	0.001	n/a	GoodResponse	0	n/a	n/a	0	1	Fixation	AvoidedLoss	True
24.561	0.39	Lose2	1.0	0.004	Yes	2.785	-0.004	1.0	GoodResponse	0	0.293	23.854	0	1	Target	AvoidedLoss	True
24.854	0.3	Lose2	1.0	0.004	Yes	2.785	-0.004	1.0	GoodResponse	0	0.293	n/a	0	1	ButtonPress	AvoidedLoss	True
24.962	0.31	Lose2	1.0	n/a	Yes	2.785	n/a	n/a	GoodResponse	0	n/a	n/a	0	1	Blank	AvoidedLoss	True
25.263	1.45	Lose2	1.0	n/a	Yes	2.785	n/a	5.0	GoodResponse	0	0.029	24.292	0	1	Feedback	AvoidedLoss	True
26.717	2.785	Lose2	1.0	n/a	Yes	2.785	n/a	n/a	GoodResponse	0	0.0	n/a	0	1	ISIslide	AvoidedLoss	True
29.526	0.25	Control	1.0	0.0	Yes	2.574	0.026	n/a	GoodResponse	0	n/a	n/a	0	2	Cue	Neutral	True
29.777	4.1	Control	1.0	0.0	Yes	2.574	0.001	n/a	GoodResponse	0	n/a	n/a	0	2	Fixation	Neutral	True
33.872	0.38	Control	1.0	0.004	Yes	2.574	-0.004	1.0	GoodResponse	0	0.221	33.093	0	2	Target	Neutral	True
34.093	0.3	Control	1.0	0.004	Yes	2.574	-0.004	1.0	GoodResponse	0	0.221	n/a	0	2	ButtonPress	Neutral	True
34.257	0.32	Control	1.0	n/a	Yes	2.574	n/a	n/a	GoodResponse	0	n/a	n/a	0	2	Blank	Neutral	True
34.574	1.45	Control	1.0	n/a	Yes	2.574	n/a	5.0	GoodResponse	0	0.035	33.609	0	2	Feedback	Neutral	True
36.029	2.574	Control	1.0	n/a	Yes	2.574	n/a	n/a	GoodResponse	0	0.0	n/a	0	2	ISIslide	Neutral	True
38.62	0.25	Win2	1.0	0.0	Yes	2.83	0.02	n/a	GoodResponse	1	n/a	n/a	1	3	Cue	Win	True
38.871	3.95	Win2	1.0	0.0	Yes	2.83	0.001	n/a	GoodResponse	1	n/a	n/a	1	3	Fixation	Win	True
42.816	0.37	Win2	1.0	0.004	Yes	2.83	-0.004	1.0	GoodResponse	1	0.275	42.091	1	3	Target	Win	True
43.091	0.3	Win2	1.0	0.004	Yes	2.83	-0.004	1.0	GoodResponse	1	0.275	n/a	1	3	ButtonPress	Win	True
43.2	0.33	Win2	1.0	n/a	Yes	2.83	n/a	n/a	GoodResponse	1	n/a	n/a	1	3	Blank	Win	True
43.518	1.45	Win2	1.0	n/a	Yes	2.83	n/a	5.0	GoodResponse	1	0.018	42.536	1	3	Feedback	Win	True
44.972	2.83	Win2	1.0	n/a	Yes	2.83	n/a	n/a	GoodResponse	1	0.0	n/a	1	3	ISIslide	Win	True
47.831	0.25	Win2	1.0	0.0	Yes	3.269	0.031	n/a	GoodResponse	1	n/a	n/a	2	4	Cue	Win	True
48.081	4.0	Win2	1.0	0.001	Yes	3.269	0.0	n/a	GoodResponse	1	n/a	n/a	2	4	Fixation	Win	True
52.077	0.36	Win2	1.0	0.004	Yes	3.269	-0.004	1.0	GoodResponse	1	0.238	51.315	2	4	Target	Win	True
52.315	0.3	Win2	1.0	0.004	Yes	3.269	-0.004	1.0	GoodResponse	1	0.238	n/a	2	4	ButtonPress	Win	True
52.445	0.34	Win2	1.0	n/a	Yes	3.269	n/a	n/a	GoodResponse	1	n/a	n/a	2	4	Blank	Win	True
52.779	1.45	Win2	1.0	n/a	Yes	3.269	n/a	5.0	GoodResponse	1	0.025	51.804	2	4	Feedback	Win	True
54.233	3.269	Win2	1.0	n/a	Yes	3.269	n/a	n/a	GoodResponse	1	0.0	n/a	2	4	ISIslide	Win	True
57.526	0.25	Win2	1.0	0.001	Yes	2.774	0.026	n/a	GoodResponse	1	n/a	n/a	3	5	Cue	Win	True
57.777	4.0	Win2	1.0	0.0	Yes	2.774	0.001	n/a	GoodResponse	1	n/a	n/a	3	5	Fixation	Win	True
61.773	0.35	Win2	1.0	0.003	Yes	2.774	-0.003	1.0	GoodResponse	1	0.235	61.008	3	5	Target	Win	True
62.008	0.3	Win2	1.0	0.003	Yes	2.774	-0.003	1.0	GoodResponse	1	0.235	n/a	3	5	ButtonPress	Win	True
62.124	0.35	Win2	1.0	n/a	Yes	2.774	n/a	n/a	GoodResponse	1	n/a	n/a	3	5	Blank	Win	True
62.475	1.45	Win2	1.0	n/a	Yes	2.774	n/a	5.0	GoodResponse	1	0.036	61.511	3	5	Feedback	Win	True
63.929	2.774	Win2	1.0	n/a	Yes	2.774	n/a	n/a	GoodResponse	1	0.0	n/a	3	5	ISIslide	Win	True
66.721	0.25	Lose2	0.8571	0.0	No	2.729	0.021	n/a	NoResponse	-1	n/a	n/a	2	6	Cue	Loss	True
66.971	3.95	Lose2	0.8571	0.001	No	2.729	0.0	n/a	NoResponse	-1	n/a	n/a	2	6	Fixation	Loss	True
70.917	0.34	Lose2	0.8571	0.004	No	2.729	-0.004	1.0	NoResponse	-1	0.384	70.301	2	6	Target	Loss	True
71.268	0.36	Lose2	0.8571	n/a	No	2.729	n/a	n/a	NoResponse	-1	n/a	n/a	2	6	Blank	Loss	True
71.301	0.3	Lose2	0.8571	0.004	No	2.729	-0.004	1.0	NoResponse	-1	0.384	n/a	2	6	ButtonPress	Loss	True
71.619	1.45	Lose2	0.8571	n/a	No	2.729	n/a	5.0	NoResponse	-1	0.014	70.633	2	6	Feedback	Loss	True
73.073	2.729	Lose2	0.8571	n/a	No	2.729	n/a	n/a	NoResponse	-1	0.0	n/a	2	6	ISIslide	Loss	True
75.831	0.25	Lose2	0.875	0.0	Yes	4.019	0.031	n/a	GoodResponse	0	n/a	n/a	2	7	Cue	AvoidedLoss	True
76.082	4.05	Lose2	0.875	0.0	Yes	4.019	0.001	n/a	GoodResponse	0	n/a	n/a	2	7	Fixation	AvoidedLoss	True
80.128	0.33	Lose2	0.875	0.003	Yes	4.019	-0.003	1.0	GoodResponse	0	0.221	79.349	2	7	Target	AvoidedLoss	True
80.349	0.3	Lose2	0.875	0.003	Yes	4.019	-0.003	1.0	GoodResponse	0	0.221	n/a	2	7	ButtonPress	AvoidedLoss	True
80.462	0.37	Lose2	0.875	n/a	Yes	4.019	n/a	n/a	GoodResponse	0	n/a	n/a	2	7	Blank	AvoidedLoss	True
80.83	1.45	Lose2	0.875	n/a	Yes	4.019	n/a	5.0	GoodResponse	0	0.023	79.853	2	7	Feedback	AvoidedLoss	True
82.284	4.019	Lose2	0.875	n/a	Yes	4.019	n/a	n/a	GoodResponse	0	0.0	n/a	2	7	ISIslide	AvoidedLoss	True
86.329	0.25	Lose2	0.8889	0.0	Yes	3.021	0.029	n/a	GoodResponse	0	n/a	n/a	2	8	Cue	AvoidedLoss	True
86.58	3.95	Lose2	0.8889	0.0	Yes	3.021	0.001	n/a	GoodResponse	0	n/a	n/a	2	8	Fixation	AvoidedLoss	True
90.525	0.32	Lose2	0.8889	0.004	Yes	3.021	-0.004	1.0	GoodResponse	0	0.249	89.774	2	8	Target	AvoidedLoss	True
90.774	0.3	Lose2	0.8889	0.004	Yes	3.021	-0.004	1.0	GoodResponse	0	0.249	n/a	2	8	ButtonPress	AvoidedLoss	True
90.86	0.38	Lose2	0.8889	n/a	Yes	3.021	n/a	n/a	GoodResponse	0	n/a	n/a	2	8	Blank	AvoidedLoss	True
91.227	1.45	Lose2	0.8889	n/a	Yes	3.021	n/a	5.0	GoodResponse	0	0.016	90.243	2	8	Feedback	AvoidedLoss	True
92.682	3.021	Lose2	0.8889	n/a	Yes	3.021	n/a	n/a	GoodResponse	0	0.0	n/a	2	8	ISIslide	AvoidedLoss	True
95.724	0.25	Lose2	0.9	0.0	Yes	3.126	0.024	n/a	GoodResponse	0	n/a	n/a	2	9	Cue	AvoidedLoss	True
95.975	3.95	Lose2	0.9	0.0	Yes	3.126	0.001	n/a	GoodResponse	0	n/a	n/a	2	9	Fixation	AvoidedLoss	True
99.92	0.31	Lose2	0.9	0.004	Yes	3.126	-0.004	1.0	GoodResponse	0	0.218	99.138	2	9	Target	AvoidedLoss	True
100.138	0.3	Lose2	0.9	0.004	Yes	3.126	-0.004	1.0	GoodResponse	0	0.218	n/a	2	9	ButtonPress	AvoidedLoss	True
100.238	0.39	Lose2	0.9	n/a	Yes	3.126	n/a	n/a	GoodResponse	0	n/a	n/a	2	9	Blank	AvoidedLoss	True
100.622	1.45	Lose2	0.9	n/a	Yes	3.126	n/a	5.0	GoodResponse	0	0.036	99.658	2	9	Feedback	AvoidedLoss	True
102.077	3.126	Lose2	0.9	n/a	Yes	3.126	n/a	n/a	GoodResponse	0	0.0	n/a	2	9	ISIslide	AvoidedLoss	True
105.219	0.25	Control	0.9091	0.0	Yes	3.281	0.019	n/a	GoodResponse	0	n/a	n/a	2	10	Cue	Neutral	True
105.47	4.0	Control	0.9091	0.0	Yes	3.281	0.001	n/a	GoodResponse	0	n/a	n/a	2	10	Fixation	Neutral	True
109.465	0.3	Control	0.9091	0.004	Yes	3.281	-0.004	1.0	GoodResponse	0	0.24	108.705	2	10	Target	Neutral	True
109.705	0.3	Control	0.9091	0.004	Yes	3.281	-0.004	1.0	GoodResponse	0	0.24	n/a	2	10	ButtonPress	Neutral	True
109.766	0.4	Control	0.9091	n/a	Yes	3.281	n/a	n/a	GoodResponse	0	n/a	n/a	2	10	Blank	Neutral	True
110.168	1.45	Control	0.9091	n/a	Yes	3.281	n/a	5.0	GoodResponse	0	0.007	109.175	2	10	Feedback	Neutral	True
111.622	3.281	Control	0.9091	n/a	Yes	3.281	n/a	n/a	GoodResponse	0	0.0	n/a	2	10	ISIslide	Neutral	True
114.915	0.25	Lose2	0.9167000000000001	0.0	Yes	2.735	0.015	n/a	GoodResponse	0	n/a	n/a	2	11	Cue	AvoidedLoss	True
115.166	4.05	Lose2	0.9167000000000001	0.0	Yes	2.735	0.001	n/a	GoodResponse	0	n/a	n/a	2	11	Fixation	AvoidedLoss	True
119.211	0.29	Lose2	0.9167000000000001	0.004	Yes	2.735	-0.004	1.0	GoodResponse	0	0.228	118.439	2	11	Target	AvoidedLoss	True
119.439	0.3	Lose2	0.9167000000000001	0.004	Yes	2.735	-0.004	1.0	GoodResponse	0	0.228	n/a	2	11	ButtonPress	AvoidedLoss	True
119.512	0.41	Lose2	0.9167000000000001	n/a	Yes	2.735	n/a	n/a	GoodResponse	0	n/a	n/a	2	11	Blank	AvoidedLoss	True
119.913	1.45	Lose2	0.9167000000000001	n/a	Yes	2.735	n/a	5.0	GoodResponse	0	0.013	118.926	2	11	Feedback	AvoidedLoss	True
121.368	2.735	Lose2	0.9167000000000001	n/a	Yes	2.735	n/a	n/a	GoodResponse	0	0.0	n/a	2	11	ISIslide	AvoidedLoss	True
124.126	0.25	Control	0.9231	0.0	Yes	2.974	0.026	n/a	GoodResponse	0	n/a	n/a	2	12	Cue	Neutral	True
124.377	3.9	Control	0.9231	0.0	Yes	2.974	0.001	n/a	GoodResponse	0	n/a	n/a	2	12	Fixation	Neutral	True
128.272	0.28	Control	0.9231	0.004	Yes	2.974	-0.004	1.0	GoodResponse	0	0.248	127.52	2	12	Target	Neutral	True
128.52	0.3	Control	0.9231	0.004	Yes	2.974	-0.004	1.0	GoodResponse	0	0.248	n/a	2	12	ButtonPress	Neutral	True
128.556	0.42	Control	0.9231	n/a	Yes	2.974	n/a	n/a	GoodResponse	0	n/a	n/a	2	12	Blank	Neutral	True
128.974	1.45	Control	0.9231	n/a	Yes	2.974	n/a	5.0	GoodResponse	0	0.025	127.999	2	12	Feedback	Neutral	True
130.428	2.974	Control	0.9231	n/a	Yes	2.974	n/a	n/a	GoodResponse	0	0.0	n/a	2	12	ISIslide	Neutral	True
133.421	0.25	Control	0.8571	0.0	No	2.779	0.021	n/a	NoResponse	0	n/a	n/a	2	13	Cue	Neutral	True
133.671	4.0	Control	0.8571	0.0	No	2.779	0.0	n/a	NoResponse	0	n/a	n/a	2	13	Fixation	Neutral	True
137.667	0.27	Control	0.8571	0.004	No	2.779	-0.004	1.0	NoResponse	0	0.477	137.144	2	13	Target	Neutral	True
137.951	0.43	Control	0.8571	n/a	No	2.779	n/a	n/a	NoResponse	0	n/a	n/a	2	13	Blank	Neutral	True
138.144	0.3	Control	0.8571	0.004	No	2.779	-0.004	1.0	NoResponse	0	0.477	n/a	2	13	ButtonPress	Neutral	True
138.369	1.45	Control	0.8571	n/a	No	2.779	n/a	5.0	NoResponse	0	0.045	137.414	2	13	Feedback	Neutral	True
139.823	2.779	Control	0.8571	n/a	No	2.779	n/a	n/a	NoResponse	0	0.0	n/a	2	13	ISIslide	Neutral	True
142.631	0.25	Win2	0.8667	0.001	Yes	2.669	0.031	n/a	GoodResponse	1	n/a	n/a	3	14	Cue	Win	True
142.882	4.1	Win2	0.8667	0.0	Yes	2.669	0.001	n/a	GoodResponse	1	n/a	n/a	3	14	Fixation	Win	True
146.978	0.26	Win2	0.8667	0.003	Yes	2.669	-0.003	1.0	GoodResponse	1	0.198	146.176	3	14	Target	Win	True
147.176	0.3	Win2	0.8667	0.003	Yes	2.669	-0.003	1.0	GoodResponse	1	0.198	n/a	3	14	ButtonPress	Win	True
147.245	0.44	Win2	0.8667	n/a	Yes	2.669	n/a	n/a	GoodResponse	1	n/a	n/a	3	14	Blank	Win	True
147.68	1.45	Win2	0.8667	n/a	Yes	2.669	n/a	5.0	GoodResponse	1	0.007	146.687	3	14	Feedback	Win	True
149.134	2.669	Win2	0.8667	n/a	Yes	2.669	n/a	n/a	GoodResponse	1	0.0	n/a	3	14	ISIslide	Win	True
151.826	0.25	Control	0.8125	0.0	No	2.974	0.026	n/a	NoResponse	0	n/a	n/a	3	15	Cue	Neutral	True
152.076	4.0	Control	0.8125	0.001	No	2.974	0.0	1.0	NoResponse	0	1.834	152.91	3	15	Fixation	Neutral	True
153.91	0.3	Control	0.8125	0.001	No	2.974	0.0	1.0	NoResponse	0	1.834	n/a	3	15	ButtonPress	Neutral	True
156.072	0.25	Control	0.8125	0.004	No	2.974	-0.004	n/a	NoResponse	0	n/a	n/a	3	15	Target	Neutral	True
156.322	0.45	Control	0.8125	n/a	No	2.974	n/a	n/a	NoResponse	0	n/a	n/a	3	15	Blank	Neutral	True
156.774	1.45	Control	0.8125	n/a	No	2.974	n/a	5.0	NoResponse	0	0.03	155.804	3	15	Feedback	Neutral	True
158.228	2.974	Control	0.8125	n/a	No	2.974	n/a	n/a	NoResponse	0	0.0	n/a	3	15	ISIslide	Neutral	True
161.221	0.25	Win2	0.8234999999999999	0.0	Yes	2.879	0.021	n/a	GoodResponse	1	n/a	n/a	4	16	Cue	Win	True
161.471	4.0	Win2	0.8234999999999999	0.0	Yes	2.879	0.0	n/a	GoodResponse	1	n/a	n/a	4	16	Fixation	Win	True
165.467	0.24	Win2	0.8234999999999999	0.004	Yes	2.879	-0.004	1.0	GoodResponse	1	0.213	164.68	4	16	Target	Win	True
165.68	0.3	Win2	0.8234999999999999	0.004	Yes	2.879	-0.004	1.0	GoodResponse	1	0.213	n/a	4	16	ButtonPress	Win	True
165.717	0.46	Win2	0.8234999999999999	n/a	Yes	2.879	n/a	n/a	GoodResponse	1	n/a	n/a	4	16	Blank	Win	True
166.169	1.45	Win2	0.8234999999999999	n/a	Yes	2.879	n/a	5.0	GoodResponse	1	0.0	165.169	4	16	Feedback	Win	True
167.623	2.879	Win2	0.8234999999999999	n/a	Yes	2.879	n/a	n/a	GoodResponse	1	0.0	n/a	4	16	ISIslide	Win	True
170.515	0.25	Lose2	0.7778	0.0	No	2.735	0.015	n/a	NoResponse	-1	n/a	n/a	3	17	Cue	Loss	True
170.766	3.95	Lose2	0.7778	0.0	No	2.735	0.001	n/a	NoResponse	-1	n/a	n/a	3	17	Fixation	Loss	True
174.711	0.23	Lose2	0.7778	0.004	No	2.735	-0.004	1.0	NoResponse	-1	0.4	174.111	3	17	Target	Loss	True
174.945	0.47	Lose2	0.7778	n/a	No	2.735	n/a	n/a	NoResponse	-1	n/a	n/a	3	17	Blank	Loss	True
175.111	0.3	Lose2	0.7778	0.004	No	2.735	-0.004	1.0	NoResponse	-1	0.4	n/a	3	17	ButtonPress	Loss	True
175.413	1.45	Lose2	0.7778	n/a	No	2.735	n/a	5.0	NoResponse	-1	0.024	174.437	3	17	Feedback	Loss	True
176.867	2.735	Lose2	0.7778	n/a	No	2.735	n/a	n/a	NoResponse	-1	0.0	n/a	3	17	ISIslide	Loss	True
179.626	0.25	Lose2	0.7895	0.0	Yes	2.724	0.026	n/a	GoodResponse	0	n/a	n/a	3	18	Cue	AvoidedLoss	True
179.876	4.05	Lose2	0.7895	0.0	Yes	2.724	0.0	n/a	GoodResponse	0	n/a	n/a	3	18	Fixation	AvoidedLoss	True
183.922	0.22	Lose2	0.7895	0.004	Yes	2.724	-0.004	1.0	GoodResponse	0	0.189	183.111	3	18	Target	AvoidedLoss	True
184.111	0.3	Lose2	0.7895	0.004	Yes	2.724	-0.004	1.0	GoodResponse	0	0.189	n/a	3	18	ButtonPress	AvoidedLoss	True
184.156	0.48	Lose2	0.7895	n/a	Yes	2.724	n/a	n/a	GoodResponse	0	n/a	n/a	3	18	Blank	AvoidedLoss	True
184.624	1.45	Lose2	0.7895	n/a	Yes	2.724	n/a	5.0	GoodResponse	0	0.033	183.657	3	18	Feedback	AvoidedLoss	True
186.078	2.724	Lose2	0.7895	n/a	Yes	2.724	n/a	n/a	GoodResponse	0	0.0	n/a	3	18	ISIslide	AvoidedLoss	True
188.82	0.25	Control	0.75	0.0	No	2.93	0.02	n/a	NoResponse	0	n/a	n/a	3	19	Cue	Neutral	True
189.071	3.95	Control	0.75	0.0	No	2.93	0.001	n/a	NoResponse	0	n/a	n/a	3	19	Fixation	Neutral	True
193.016	0.21	Control	0.75	0.004	No	2.93	-0.004	1.0	NoResponse	0	0.226	192.242	3	19	Target	Neutral	True
193.233	0.49	Control	0.75	n/a	No	2.93	n/a	n/a	NoResponse	0	n/a	n/a	3	19	Blank	Neutral	True
193.242	0.3	Control	0.75	0.004	No	2.93	-0.004	1.0	NoResponse	0	0.226	n/a	3	19	ButtonPress	Neutral	True
193.718	1.45	Control	0.75	n/a	No	2.93	n/a	5.0	NoResponse	0	0.012	192.73	3	19	Feedback	Neutral	True
195.172	2.93	Control	0.75	n/a	No	2.93	n/a	n/a	NoResponse	0	0.0	n/a	3	19	ISIslide	Neutral	True
198.114	0.25	Control	0.7143	0.0	No	2.636	0.014	n/a	NoResponse	0	n/a	n/a	3	20	Cue	Neutral	False
198.365	4.05	Control	0.7143	0.0	No	2.636	0.001	n/a	NoResponse	0	n/a	n/a	3	20	Fixation	Neutral	False
202.411	0.2	Control	0.7143	0.003	No	2.636	-0.003	n/a	NoResponse	0	n/a	n/a	3	20	Target	Neutral	False
202.611	0.5	Control	0.7143	n/a	No	2.636	n/a	n/a	NoResponse	0	n/a	n/a	3	20	Blank	Neutral	False
203.113	1.45	Control	0.7143	n/a	No	2.636	n/a	5.0	NoResponse	0	0.032	202.145	3	20	Feedback	Neutral	False
204.567	2.636	Control	0.7143	n/a	No	2.636	n/a	n/a	NoResponse	0	0.0	n/a	3	20	ISIslide	Neutral	False
207.225	0.25	Control	0.6818000000000001	0.0	No	2.775	0.025	n/a	NoResponse	0	n/a	n/a	3	21	Cue	Neutral	False
207.476	4.1	Control	0.6818000000000001	0.0	No	2.775	0.001	n/a	NoResponse	0	n/a	n/a	3	21	Fixation	Neutral	False
211.571	0.19	Control	0.6818000000000001	0.004	No	2.775	-0.004	n/a	NoResponse	0	n/a	n/a	3	21	Target	Neutral	False
211.772	0.51	Control	0.6818000000000001	n/a	No	2.775	n/a	n/a	NoResponse	0	n/a	n/a	3	21	Blank	Neutral	False
212.273	1.45	Control	0.6818000000000001	n/a	No	2.775	n/a	5.0	NoResponse	0	0.043	211.316	3	21	Feedback	Neutral	False
213.728	2.775	Control	0.6818000000000001	n/a	No	2.775	n/a	n/a	NoResponse	0	0.0	n/a	3	21	ISIslide	Neutral	False
216.52	0.25	Control	0.6522	0.0	No	2.78	0.02	n/a	NoResponse	0	n/a	n/a	3	22	Cue	Neutral	False
216.77	4.0	Control	0.6522	0.0	No	2.78	0.0	n/a	NoResponse	0	n/a	n/a	3	22	Fixation	Neutral	False
220.766	0.18	Control	0.6522	0.004	No	2.78	-0.004	n/a	NoResponse	0	n/a	n/a	3	22	Target	Neutral	False
220.949	0.52	Control	0.6522	n/a	No	2.78	n/a	n/a	NoResponse	0	n/a	n/a	3	22	Blank	Neutral	False
221.468	1.45	Control	0.6522	n/a	No	2.78	n/a	5.0	NoResponse	0	0.019	220.487	3	22	Feedback	Neutral	False
222.922	2.78	Control	0.6522	n/a	No	2.78	n/a	n/a	NoResponse	0	0.0	n/a	3	22	ISIslide	Neutral	False
225.714	0.25	Control	0.625	0.0	No	2.786	0.014	n/a	NoResponse	0	n/a	n/a	3	23	Cue	Neutral	False
225.964	3.9	Control	0.625	0.001	No	2.786	0.0	n/a	NoResponse	0	n/a	n/a	3	23	Fixation	Neutral	False
229.876	0.19	Control	0.625	0.0	No	2.786	0.012	n/a	NoResponse	0	n/a	n/a	3	23	Target	Neutral	False
230.06	0.51	Control	0.625	n/a	No	2.786	n/a	n/a	NoResponse	0	n/a	n/a	3	23	Blank	Neutral	False
230.562	1.45	Control	0.625	n/a	No	2.786	n/a	5.0	NoResponse	0	0.046	229.608	3	23	Feedback	Neutral	False
232.016	2.786	Control	0.625	n/a	No	2.786	n/a	n/a	NoResponse	0	0.0	n/a	3	23	ISIslide	Neutral	False
234.824	0.25	Win2	0.64	0.0	Yes	3.126	0.024	n/a	GoodResponse	1	n/a	n/a	4	24	Cue	Win	True
235.075	3.95	Win2	0.64	0.0	Yes	3.126	0.001	n/a	GoodResponse	1	n/a	n/a	4	24	Fixation	Win	True
239.02	0.2	Win2	0.64	0.004	Yes	3.126	-0.004	1.0	GoodResponse	1	0.198	238.218	4	24	Target	Win	True
239.218	0.3	Win2	0.64	0.004	Yes	3.126	-0.004	1.0	GoodResponse	1	0.198	n/a	4	24	ButtonPress	Win	True
239.221	0.5	Win2	0.64	n/a	Yes	3.126	n/a	n/a	GoodResponse	1	n/a	n/a	4	24	Blank	Win	True
239.722	1.45	Win2	0.64	n/a	Yes	3.126	n/a	5.0	GoodResponse	1	0.008	238.73	4	24	Feedback	Win	True
241.177	3.126	Win2	0.64	n/a	Yes	3.126	n/a	n/a	GoodResponse	1	0.0	n/a	4	24	ISIslide	Win	True
244.319	0.25	Win2	0.6154	0.001	No	3.081	0.019	n/a	PrematurePress	0	n/a	n/a	4	25	Cue	MissedWin	True
244.57	4.0	Win2	0.6154	0.0	No	3.081	0.001	n/a	PrematurePress	0	n/a	n/a	4	25	Fixation	MissedWin	True
248.566	0.21	Win2	0.6154	0.003	No	3.081	-0.003	1.0	PrematurePress	0	0.012	247.578	4	25	Target	MissedWin	True
248.578	0.3	Win2	0.6154	0.003	No	3.081	-0.003	1.0	PrematurePress	0	0.012	n/a	4	25	ButtonPress	MissedWin	True
248.783	0.49	Win2	0.6154	n/a	No	3.081	n/a	n/a	PrematurePress	0	n/a	n/a	4	25	Blank	MissedWin	True
249.268	1.45	Win2	0.6154	n/a	No	3.081	n/a	5.0	PrematurePress	0	0.023	248.291	4	25	Feedback	MissedWin	True
250.722	3.081	Win2	0.6154	n/a	No	3.081	n/a	n/a	PrematurePress	0	0.0	n/a	4	25	ISIslide	MissedWin	True
253.815	0.25	Win2	0.5926	0.0	No	2.935	0.015	n/a	NoResponse	0	n/a	n/a	4	26	Cue	MissedWin	True
254.065	3.95	Win2	0.5926	0.0	No	2.935	0.0	n/a	NoResponse	0	n/a	n/a	4	26	Fixation	MissedWin	True
258.011	0.22	Win2	0.5926	0.004	No	2.935	-0.004	1.0	NoResponse	0	0.365	257.376	4	26	Target	MissedWin	True
258.245	0.48	Win2	0.5926	n/a	No	2.935	n/a	n/a	NoResponse	0	n/a	n/a	4	26	Blank	MissedWin	True
258.376	0.3	Win2	0.5926	0.004	No	2.935	-0.004	1.0	NoResponse	0	0.365	n/a	4	26	ButtonPress	MissedWin	True
258.713	1.45	Win2	0.5926	n/a	No	2.935	n/a	5.0	NoResponse	0	0.041	257.754	4	26	Feedback	MissedWin	True
260.167	2.935	Win2	0.5926	n/a	No	2.935	n/a	n/a	NoResponse	0	0.0	n/a	4	26	ISIslide	MissedWin	True
263.126	0.25	Lose2	0.6071	0.0	Yes	2.824	0.026	n/a	GoodResponse	0	n/a	n/a	4	27	Cue	AvoidedLoss	True
263.377	4.05	Lose2	0.6071	0.0	Yes	2.824	0.001	n/a	GoodResponse	0	n/a	n/a	4	27	Fixation	AvoidedLoss	True
267.422	0.23	Lose2	0.6071	0.004	Yes	2.824	-0.004	1.0	GoodResponse	0	0.204	266.626	4	27	Target	AvoidedLoss	True
267.626	0.3	Lose2	0.6071	0.004	Yes	2.824	-0.004	1.0	GoodResponse	0	0.204	n/a	4	27	ButtonPress	AvoidedLoss	True
267.656	0.47	Lose2	0.6071	n/a	Yes	2.824	n/a	n/a	GoodResponse	0	n/a	n/a	4	27	Blank	AvoidedLoss	True
268.124	1.45	Lose2	0.6071	n/a	Yes	2.824	n/a	5.0	GoodResponse	0	0.045	267.169	4	27	Feedback	AvoidedLoss	True
269.579	2.824	Lose2	0.6071	n/a	Yes	2.824	n/a	n/a	GoodResponse	0	0.0	n/a	4	27	ISIslide	AvoidedLoss	True
272.42	0.25	Control	0.5861999999999999	0.0	No	2.83	0.02	n/a	NoResponse	0	n/a	n/a	4	28	Cue	Neutral	False
272.671	4.05	Control	0.5861999999999999	0.0	No	2.83	0.001	n/a	NoResponse	0	n/a	n/a	4	28	Fixation	Neutral	False
276.717	0.24	Control	0.5861999999999999	0.003	No	2.83	-0.003	n/a	NoResponse	0	n/a	n/a	4	28	Target	Neutral	False
276.967	0.46	Control	0.5861999999999999	n/a	No	2.83	n/a	n/a	NoResponse	0	n/a	n/a	4	28	Blank	Neutral	False
277.419	1.45	Control	0.5861999999999999	n/a	No	2.83	n/a	5.0	NoResponse	0	0.018	276.437	4	28	Feedback	Neutral	False
278.873	2.83	Control	0.5861999999999999	n/a	No	2.83	n/a	n/a	NoResponse	0	0.0	n/a	4	28	ISIslide	Neutral	False
281.715	0.25	Lose2	0.6	0.0	Yes	2.835	0.015	n/a	GoodResponse	0	n/a	n/a	4	29	Cue	AvoidedLoss	True
281.966	3.95	Lose2	0.6	0.0	Yes	2.835	0.001	n/a	GoodResponse	0	n/a	n/a	4	29	Fixation	AvoidedLoss	True
285.911	0.25	Lose2	0.6	0.004	Yes	2.835	-0.004	1.0	GoodResponse	0	0.176	285.087	4	29	Target	AvoidedLoss	True
286.087	0.3	Lose2	0.6	0.004	Yes	2.835	-0.004	1.0	GoodResponse	0	0.176	n/a	4	29	ButtonPress	AvoidedLoss	True
286.162	0.45	Lose2	0.6	n/a	Yes	2.835	n/a	n/a	GoodResponse	0	n/a	n/a	4	29	Blank	AvoidedLoss	True
286.613	1.45	Lose2	0.6	n/a	Yes	2.835	n/a	5.0	GoodResponse	0	0.043	285.656	4	29	Feedback	AvoidedLoss	True
288.067	2.835	Lose2	0.6	n/a	Yes	2.835	n/a	n/a	GoodResponse	0	0.0	n/a	4	29	ISIslide	AvoidedLoss	True
290.926	0.25	Win2	0.6129	0.0	Yes	2.774	0.026	n/a	GoodResponse	1	n/a	n/a	5	30	Cue	Win	True
291.177	3.9	Win2	0.6129	0.0	Yes	2.774	0.001	n/a	GoodResponse	1	n/a	n/a	5	30	Fixation	Win	True
295.072	0.26	Win2	0.6129	0.004	Yes	2.774	-0.004	1.0	GoodResponse	1	0.259	294.331	5	30	Target	Win	True
295.331	0.3	Win2	0.6129	0.004	Yes	2.774	-0.004	1.0	GoodResponse	1	0.259	n/a	5	30	ButtonPress	Win	True
295.339	0.44	Win2	0.6129	n/a	Yes	2.774	n/a	n/a	GoodResponse	1	n/a	n/a	5	30	Blank	Win	True
295.774	1.45	Win2	0.6129	n/a	Yes	2.774	n/a	5.0	GoodResponse	1	0.005	294.779	5	30	Feedback	Win	True
297.228	2.774	Win2	0.6129	n/a	Yes	2.774	n/a	n/a	GoodResponse	1	0.0	n/a	5	30	ISIslide	Win	True
300.02	0.25	Lose2	0.625	0.0	Yes	2.83	0.02	n/a	GoodResponse	0	n/a	n/a	5	31	Cue	AvoidedLoss	False
300.27	4.05	Lose2	0.625	0.001	Yes	2.83	0.0	1.0	GoodResponse	0	3.366	302.636	5	31	Fixation	AvoidedLoss	False
303.636	0.3	Lose2	0.625	0.001	Yes	2.83	0.0	1.0	GoodResponse	0	3.366	n/a	5	31	ButtonPress	AvoidedLoss	False
304.316	0.27	Lose2	0.625	0.004	Yes	2.83	-0.004	1.0	GoodResponse	0	0.245	303.561	5	31	Target	AvoidedLoss	False
304.561	0.3	Lose2	0.625	0.004	Yes	2.83	-0.004	1.0	GoodResponse	0	0.245	n/a	5	31	ButtonPress	AvoidedLoss	False
304.6	0.43	Lose2	0.625	n/a	Yes	2.83	n/a	n/a	GoodResponse	0	n/a	n/a	5	31	Blank	AvoidedLoss	False
305.018	1.45	Lose2	0.625	n/a	Yes	2.83	n/a	5.0	GoodResponse	0	0.028	304.046	5	31	Feedback	AvoidedLoss	False
306.472	2.83	Lose2	0.625	n/a	Yes	2.83	n/a	n/a	GoodResponse	0	0.0	n/a	5	31	ISIslide	AvoidedLoss	False
309.314	0.25	Lose2	0.6364	0.0	Yes	2.636	0.014	n/a	GoodResponse	0	n/a	n/a	5	32	Cue	AvoidedLoss	True
309.565	4.15	Lose2	0.6364	0.0	Yes	2.636	0.001	n/a	GoodResponse	0	n/a	n/a	5	32	Fixation	AvoidedLoss	True
313.711	0.28	Lose2	0.6364	0.003	Yes	2.636	-0.003	1.0	GoodResponse	0	0.187	312.898	5	32	Target	AvoidedLoss	True
313.898	0.3	Lose2	0.6364	0.003	Yes	2.636	-0.003	1.0	GoodResponse	0	0.187	n/a	5	32	ButtonPress	AvoidedLoss	True
313.995	0.42	Lose2	0.6364	n/a	Yes	2.636	n/a	n/a	GoodResponse	0	n/a	n/a	5	32	Blank	AvoidedLoss	True
314.413	1.45	Lose2	0.6364	n/a	Yes	2.636	n/a	5.0	GoodResponse	0	0.048	313.461	5	32	Feedback	AvoidedLoss	True
315.867	2.636	Lose2	0.6364	n/a	Yes	2.636	n/a	n/a	GoodResponse	0	0.0	n/a	5	32	ISIslide	AvoidedLoss	True
318.525	0.25	Win2	0.6470999999999999	0.0	Yes	2.675	0.025	n/a	GoodResponse	1	n/a	n/a	6	33	Cue	Win	True
318.776	4.0	Win2	0.6470999999999999	0.0	Yes	2.675	0.001	n/a	GoodResponse	1	n/a	n/a	6	33	Fixation	Win	True
322.771	0.29	Win2	0.6470999999999999	0.004	Yes	2.675	-0.004	1.0	GoodResponse	1	0.245	322.016	6	33	Target	Win	True
323.016	0.3	Win2	0.6470999999999999	0.004	Yes	2.675	-0.004	1.0	GoodResponse	1	0.245	n/a	6	33	ButtonPress	Win	True
323.072	0.41	Win2	0.6470999999999999	n/a	Yes	2.675	n/a	n/a	GoodResponse	1	n/a	n/a	6	33	Blank	Win	True
323.473	1.45	Win2	0.6470999999999999	n/a	Yes	2.675	n/a	5.0	GoodResponse	1	0.013	322.486	6	33	Feedback	Win	True
324.928	2.675	Win2	0.6470999999999999	n/a	Yes	2.675	n/a	n/a	GoodResponse	1	0.0	n/a	6	33	ISIslide	Win	True
327.619	0.25	Lose2	0.6570999999999999	0.0	Yes	2.631	0.019	n/a	GoodResponse	0	n/a	n/a	6	34	Cue	AvoidedLoss	True
327.87	4.05	Lose2	0.6570999999999999	0.0	Yes	2.631	0.001	n/a	GoodResponse	0	n/a	n/a	6	34	Fixation	AvoidedLoss	True
331.915	0.3	Lose2	0.6570999999999999	0.004	Yes	2.631	-0.004	1.0	GoodResponse	0	0.234	331.149	6	34	Target	AvoidedLoss	True
332.149	0.3	Lose2	0.6570999999999999	0.004	Yes	2.631	-0.004	1.0	GoodResponse	0	0.234	n/a	6	34	ButtonPress	AvoidedLoss	True
332.216	0.4	Lose2	0.6570999999999999	n/a	Yes	2.631	n/a	n/a	GoodResponse	0	n/a	n/a	6	34	Blank	AvoidedLoss	True
332.617	1.45	Lose2	0.6570999999999999	n/a	Yes	2.631	n/a	5.0	GoodResponse	0	0.04	331.657	6	34	Feedback	AvoidedLoss	True
334.072	2.631	Lose2	0.6570999999999999	n/a	Yes	2.631	n/a	n/a	GoodResponse	0	0.0	n/a	6	34	ISIslide	AvoidedLoss	True
336.713	0.25	Lose2	0.6667000000000001	0.0	Yes	2.687	0.013	n/a	GoodResponse	0	n/a	n/a	6	35	Cue	AvoidedLoss	True
336.964	4.0	Lose2	0.6667000000000001	0.0	Yes	2.687	0.001	n/a	GoodResponse	0	n/a	n/a	6	35	Fixation	AvoidedLoss	True
340.959	0.3	Lose2	0.6667000000000001	0.004	Yes	2.687	-0.004	1.0	GoodResponse	0	0.251	340.21	6	35	Target	AvoidedLoss	True
341.21	0.3	Lose2	0.6667000000000001	0.004	Yes	2.687	-0.004	1.0	GoodResponse	0	0.251	n/a	6	35	ButtonPress	AvoidedLoss	True
341.26	0.4	Lose2	0.6667000000000001	n/a	Yes	2.687	n/a	n/a	GoodResponse	0	n/a	n/a	6	35	Blank	AvoidedLoss	True
341.661	1.45	Lose2	0.6667000000000001	n/a	Yes	2.687	n/a	5.0	GoodResponse	0	0.02	340.681	6	35	Feedback	AvoidedLoss	True
343.116	2.687	Lose2	0.6667000000000001	n/a	Yes	2.687	n/a	n/a	GoodResponse	0	0.0	n/a	6	35	ISIslide	AvoidedLoss	True
345.824	0.25	Control	0.6757	0.0	Yes	2.676	0.024	n/a	GoodResponse	0	n/a	n/a	6	36	Cue	Neutral	True
346.074	4.0	Control	0.6757	0.0	Yes	2.676	0.0	n/a	GoodResponse	0	n/a	n/a	6	36	Fixation	Neutral	True
350.07	0.29	Control	0.6757	0.004	Yes	2.676	-0.004	1.0	GoodResponse	0	0.245	349.315	6	36	Target	Neutral	True
350.315	0.3	Control	0.6757	0.004	Yes	2.676	-0.004	1.0	GoodResponse	0	0.245	n/a	6	36	ButtonPress	Neutral	True
350.371	0.41	Control	0.6757	n/a	Yes	2.676	n/a	n/a	GoodResponse	0	n/a	n/a	6	36	Blank	Neutral	True
350.772	1.45	Control	0.6757	n/a	Yes	2.676	n/a	5.0	GoodResponse	0	0.03	349.802	6	36	Feedback	Neutral	True
352.226	2.676	Control	0.6757	n/a	Yes	2.676	n/a	n/a	GoodResponse	0	0.0	n/a	6	36	ISIslide	Neutral	True
354.918	0.25	Win2	0.6842	0.0	Yes	2.882	0.018	n/a	GoodResponse	1	n/a	n/a	7	37	Cue	Win	True
355.168	4.0	Win2	0.6842	0.0	Yes	2.882	0.0	n/a	GoodResponse	1	n/a	n/a	7	37	Fixation	Win	True
359.164	0.28	Win2	0.6842	0.004	Yes	2.882	-0.004	1.0	GoodResponse	1	0.191	358.355	7	37	Target	Win	True
359.355	0.3	Win2	0.6842	0.004	Yes	2.882	-0.004	1.0	GoodResponse	1	0.191	n/a	7	37	ButtonPress	Win	True
359.448	0.42	Win2	0.6842	n/a	Yes	2.882	n/a	n/a	GoodResponse	1	n/a	n/a	7	37	Blank	Win	True
359.866	1.45	Win2	0.6842	n/a	Yes	2.882	n/a	5.0	GoodResponse	1	0.009	358.875	7	37	Feedback	Win	True
361.32	2.882	Win2	0.6842	n/a	Yes	2.882	n/a	n/a	GoodResponse	1	0.0	n/a	7	37	ISIslide	Win	True
364.229	0.25	Lose2	0.6667000000000001	0.0	No	2.821	0.029	n/a	NoResponse	-1	n/a	n/a	6	38	Cue	Loss	True
364.48	3.95	Lose2	0.6667000000000001	0.0	No	2.821	0.001	n/a	NoResponse	-1	n/a	n/a	6	38	Fixation	Loss	True
368.425	0.27	Lose2	0.6667000000000001	0.004	No	2.821	-0.004	1.0	NoResponse	-1	0.367	367.792	6	38	Target	Loss	True
368.709	0.43	Lose2	0.6667000000000001	n/a	No	2.821	n/a	n/a	NoResponse	-1	n/a	n/a	6	38	Blank	Loss	True
368.792	0.3	Lose2	0.6667000000000001	0.004	No	2.821	-0.004	1.0	NoResponse	-1	0.367	n/a	6	38	ButtonPress	Loss	True
369.127	1.45	Lose2	0.6667000000000001	n/a	No	2.821	n/a	5.0	NoResponse	-1	0.017	368.144	6	38	Feedback	Loss	True
370.581	2.821	Lose2	0.6667000000000001	n/a	No	2.821	n/a	n/a	NoResponse	-1	0.0	n/a	6	38	ISIslide	Loss	True
373.423	0.25	Win2	0.675	0.0	Yes	2.977	0.023	n/a	GoodResponse	1	n/a	n/a	7	39	Cue	Win	True
373.674	4.1	Win2	0.675	0.0	Yes	2.977	0.001	n/a	GoodResponse	1	n/a	n/a	7	39	Fixation	Win	True
377.769	0.26	Win2	0.675	0.004	Yes	2.977	-0.004	1.0	GoodResponse	1	0.195	376.964	7	39	Target	Win	True
377.964	0.3	Win2	0.675	0.004	Yes	2.977	-0.004	1.0	GoodResponse	1	0.195	n/a	7	39	ButtonPress	Win	True
378.037	0.44	Win2	0.675	n/a	Yes	2.977	n/a	n/a	GoodResponse	1	n/a	n/a	7	39	Blank	Win	True
378.471	1.45	Win2	0.675	n/a	Yes	2.977	n/a	5.0	GoodResponse	1	0.039	377.51	7	39	Feedback	Win	True
379.926	2.977	Win2	0.675	n/a	Yes	2.977	n/a	n/a	GoodResponse	1	0.0	n/a	7	39	ISIslide	Win	True
382.918	0.25	Win2	0.6829000000000001	0.0	Yes	2.732	0.018	n/a	GoodResponse	1	n/a	n/a	8	40	Cue	Win	True
383.169	3.95	Win2	0.6829000000000001	0.0	Yes	2.732	0.001	n/a	GoodResponse	1	n/a	n/a	8	40	Fixation	Win	True
387.114	0.25	Win2	0.6829000000000001	0.004	Yes	2.732	-0.004	1.0	GoodResponse	1	0.189	386.303	8	40	Target	Win	True
387.303	0.3	Win2	0.6829000000000001	0.004	Yes	2.732	-0.004	1.0	GoodResponse	1	0.189	n/a	8	40	ButtonPress	Win	True
387.365	0.45	Win2	0.6829000000000001	n/a	Yes	2.732	n/a	n/a	GoodResponse	1	n/a	n/a	8	40	Blank	Win	True
387.816	1.45	Win2	0.6829000000000001	n/a	Yes	2.732	n/a	5.0	GoodResponse	1	0.011	386.827	8	40	Feedback	Win	True
389.27	2.732	Win2	0.6829000000000001	n/a	Yes	2.732	n/a	n/a	GoodResponse	1	0.0	n/a	8	40	ISIslide	Win	True
392.029	0.25	Win2	0.6667000000000001	0.0	No	2.771	0.029	n/a	NoResponse	0	n/a	n/a	8	41	Cue	MissedWin	False
392.28	3.9	Win2	0.6667000000000001	0.0	No	2.771	0.001	1.0	NoResponse	0	0.18	391.46	8	41	Fixation	MissedWin	False
392.46	0.3	Win2	0.6667000000000001	0.0	No	2.771	0.001	1.0	NoResponse	0	0.18	n/a	8	41	ButtonPress	MissedWin	False
396.191	0.24	Win2	0.6667000000000001	0.0	No	2.771	0.012	1.0	NoResponse	0	0.24	395.431	8	41	Target	MissedWin	False
396.425	0.46	Win2	0.6667000000000001	n/a	No	2.771	n/a	n/a	NoResponse	0	n/a	n/a	8	41	Blank	MissedWin	False
396.431	0.3	Win2	0.6667000000000001	0.0	No	2.771	0.012	1.0	NoResponse	0	0.24	n/a	8	41	ButtonPress	MissedWin	False
396.877	1.45	Win2	0.6667000000000001	n/a	No	2.771	n/a	5.0	NoResponse	0	0.023	395.9	8	41	Feedback	MissedWin	False
398.331	2.771	Win2	0.6667000000000001	n/a	No	2.771	n/a	n/a	NoResponse	0	0.0	n/a	8	41	ISIslide	MissedWin	False
401.123	0.25	Control	0.6512	0.0	No	2.927	0.023	n/a	NoResponse	0	n/a	n/a	8	42	Cue	Neutral	False
401.373	3.85	Control	0.6512	0.0	No	2.927	0.0	n/a	NoResponse	0	n/a	n/a	8	42	Fixation	Neutral	False
405.235	0.23	Control	0.6512	0.0	No	2.927	0.012	n/a	NoResponse	0	n/a	n/a	8	42	Target	Neutral	False
405.452	0.47	Control	0.6512	n/a	No	2.927	n/a	n/a	NoResponse	0	n/a	n/a	8	42	Blank	Neutral	False
405.92	1.45	Control	0.6512	n/a	No	2.927	n/a	5.0	NoResponse	0	0.006	404.926	8	42	Feedback	Neutral	False
407.375	2.927	Control	0.6512	n/a	No	2.927	n/a	n/a	NoResponse	0	0.0	n/a	8	42	ISIslide	Neutral	False
410.317	0.25	Win2	0.6591	0.0	Yes	3.183	0.017	n/a	GoodResponse	1	n/a	n/a	9	43	Cue	Win	False
410.568	4.0	Win2	0.6591	0.0	Yes	3.183	0.001	1.0	GoodResponse	1	3.965	413.533	9	43	Fixation	Win	False
414.533	0.3	Win2	0.6591	0.0	Yes	3.183	0.001	1.0	GoodResponse	1	3.965	n/a	9	43	ButtonPress	Win	False
414.563	0.24	Win2	0.6591	0.004	Yes	3.183	-0.004	1.0	GoodResponse	1	0.232	413.795	9	43	Target	Win	False
414.795	0.3	Win2	0.6591	0.004	Yes	3.183	-0.004	1.0	GoodResponse	1	0.232	n/a	9	43	ButtonPress	Win	False
414.814	0.46	Win2	0.6591	n/a	Yes	3.183	n/a	n/a	GoodResponse	1	n/a	n/a	9	43	Blank	Win	False
415.265	1.45	Win2	0.6591	n/a	Yes	3.183	n/a	5.0	GoodResponse	1	0.025	414.29	9	43	Feedback	Win	False
416.719	3.183	Win2	0.6591	n/a	Yes	3.183	n/a	n/a	GoodResponse	1	0.0	n/a	9	43	ISIslide	Win	False
419.929	0.25	Win2	0.6667000000000001	0.0	Yes	2.971	0.029	n/a	GoodResponse	1	n/a	n/a	10	44	Cue	Win	True
420.18	4.0	Win2	0.6667000000000001	0.0	Yes	2.971	0.001	n/a	GoodResponse	1	n/a	n/a	10	44	Fixation	Win	True
424.175	0.24	Win2	0.6667000000000001	0.004	Yes	2.971	-0.004	1.0	GoodResponse	1	0.168	423.343	10	44	Target	Win	True
424.343	0.3	Win2	0.6667000000000001	0.004	Yes	2.971	-0.004	1.0	GoodResponse	1	0.168	n/a	10	44	ButtonPress	Win	True
424.426	0.46	Win2	0.6667000000000001	n/a	Yes	2.971	n/a	n/a	GoodResponse	1	n/a	n/a	10	44	Blank	Win	True
424.877	1.45	Win2	0.6667000000000001	n/a	Yes	2.971	n/a	5.0	GoodResponse	1	0.023	423.9	10	44	Feedback	Win	True
426.332	2.971	Win2	0.6667000000000001	n/a	Yes	2.971	n/a	n/a	GoodResponse	1	0.0	n/a	10	44	ISIslide	Win	True
429.324	0.25	Control	0.6522	0.0	No	2.876	0.024	n/a	NoResponse	0	n/a	n/a	10	45	Cue	Neutral	False
429.575	4.1	Control	0.6522	0.0	No	2.876	0.001	n/a	NoResponse	0	n/a	n/a	10	45	Fixation	Neutral	False
433.67	0.23	Control	0.6522	0.004	No	2.876	-0.004	n/a	NoResponse	0	n/a	n/a	10	45	Target	Neutral	False
433.904	0.47	Control	0.6522	n/a	No	2.876	n/a	n/a	NoResponse	0	n/a	n/a	10	45	Blank	Neutral	False
434.372	1.45	Control	0.6522	n/a	No	2.876	n/a	5.0	NoResponse	0	0.04	433.412	10	45	Feedback	Neutral	False
435.827	2.876	Control	0.6522	n/a	No	2.876	n/a	n/a	NoResponse	0	0.0	n/a	10	45	ISIslide	Neutral	False
438.719	0.25	Lose2	0.6596	0.0	Yes	3.381	0.019	n/a	GoodResponse	0	n/a	n/a	10	46	Cue	AvoidedLoss	True
438.969	4.0	Lose2	0.6596	0.0	Yes	3.381	0.0	n/a	GoodResponse	0	n/a	n/a	10	46	Fixation	AvoidedLoss	True
442.965	0.24	Lose2	0.6596	0.004	Yes	3.381	-0.004	1.0	GoodResponse	0	0.197	442.162	10	46	Target	AvoidedLoss	True
443.162	0.3	Lose2	0.6596	0.004	Yes	3.381	-0.004	1.0	GoodResponse	0	0.197	n/a	10	46	ButtonPress	AvoidedLoss	True
443.215	0.46	Lose2	0.6596	n/a	Yes	3.381	n/a	n/a	GoodResponse	0	n/a	n/a	10	46	Blank	AvoidedLoss	True
443.667	1.45	Lose2	0.6596	n/a	Yes	3.381	n/a	5.0	GoodResponse	0	0.013	442.68	10	46	Feedback	AvoidedLoss	True
445.121	3.381	Lose2	0.6596	n/a	Yes	3.381	n/a	n/a	GoodResponse	0	0.0	n/a	10	46	ISIslide	AvoidedLoss	True
448.515	0.25	Lose2	0.6667000000000001	0.0	Yes	2.685	0.015	n/a	GoodResponse	0	n/a	n/a	10	47	Cue	AvoidedLoss	True
448.765	4.0	Lose2	0.6667000000000001	0.0	Yes	2.685	0.0	n/a	GoodResponse	0	n/a	n/a	10	47	Fixation	AvoidedLoss	True
452.761	0.24	Lose2	0.6667000000000001	0.004	Yes	2.685	-0.004	1.0	GoodResponse	0	0.202	451.963	10	47	Target	AvoidedLoss	True
452.963	0.3	Lose2	0.6667000000000001	0.004	Yes	2.685	-0.004	1.0	GoodResponse	0	0.202	n/a	10	47	ButtonPress	AvoidedLoss	True
453.011	0.46	Lose2	0.6667000000000001	n/a	Yes	2.685	n/a	n/a	GoodResponse	0	n/a	n/a	10	47	Blank	AvoidedLoss	True
453.463	1.45	Lose2	0.6667000000000001	n/a	Yes	2.685	n/a	5.0	GoodResponse	0	0.022	452.485	10	47	Feedback	AvoidedLoss	True
454.917	2.685	Lose2	0.6667000000000001	n/a	Yes	2.685	n/a	n/a	GoodResponse	0	0.0	n/a	10	47	ISIslide	AvoidedLoss	True
457.625	0.25	Lose2	0.6531	0.0	No	3.025	0.025	n/a	NoResponse	-1	n/a	n/a	9	48	Cue	Loss	True
457.876	3.95	Lose2	0.6531	0.0	No	3.025	0.001	n/a	NoResponse	-1	n/a	n/a	9	48	Fixation	Loss	True
461.821	0.23	Lose2	0.6531	0.004	No	3.025	-0.004	1.0	NoResponse	-1	0.313	461.134	9	48	Target	Loss	True
462.055	0.47	Lose2	0.6531	n/a	No	3.025	n/a	n/a	NoResponse	-1	n/a	n/a	9	48	Blank	Loss	True
462.134	0.3	Lose2	0.6531	0.004	No	3.025	-0.004	1.0	NoResponse	-1	0.313	n/a	9	48	ButtonPress	Loss	True
462.523	1.45	Lose2	0.6531	n/a	No	3.025	n/a	5.0	NoResponse	-1	0.035	461.558	9	48	Feedback	Loss	True
463.978	3.025	Lose2	0.6531	n/a	No	3.025	n/a	n/a	NoResponse	-1	0.0	n/a	9	48	ISIslide	Loss	True
467.02	0.25	Control	0.64	0.0	No	2.88	0.02	n/a	NoResponse	0	n/a	n/a	9	49	Cue	Neutral	False
467.271	4.0	Control	0.64	0.0	No	2.88	0.001	n/a	NoResponse	0	n/a	n/a	9	49	Fixation	Neutral	False
471.266	0.24	Control	0.64	0.004	No	2.88	-0.004	n/a	NoResponse	0	n/a	n/a	9	49	Target	Neutral	False
471.517	0.46	Control	0.64	n/a	No	2.88	n/a	n/a	NoResponse	0	n/a	n/a	9	49	Blank	Neutral	False
471.968	1.45	Control	0.64	n/a	No	2.88	n/a	5.0	NoResponse	0	0.005	470.973	9	49	Feedback	Neutral	False
473.423	2.88	Control	0.64	n/a	No	2.88	n/a	n/a	NoResponse	0	0.0	n/a	9	49	ISIslide	Neutral	False
476.315	0.25	Control	0.6275	0.0	No	2.785	0.015	n/a	NoResponse	0	n/a	n/a	9	50	Cue	Neutral	False
476.565	4.0	Control	0.6275	0.0	No	2.785	0.0	n/a	NoResponse	0	n/a	n/a	9	50	Fixation	Neutral	False
480.561	0.25	Control	0.6275	0.004	No	2.785	-0.004	n/a	NoResponse	0	n/a	n/a	9	50	Target	Neutral	False
480.811	0.45	Control	0.6275	n/a	No	2.785	n/a	n/a	NoResponse	0	n/a	n/a	9	50	Blank	Neutral	False
481.263	1.45	Control	0.6275	n/a	No	2.785	n/a	5.0	NoResponse	0	0.026	480.289	9	50	Feedback	Neutral	False
482.717	2.785	Control	0.6275	n/a	No	2.785	n/a	n/a	NoResponse	0	0.0	n/a	9	50	ISIslide	Neutral	False
485.526	0.25	Control	0.6154	0.0	No	2.724	0.026	n/a	NoResponse	0	n/a	n/a	9	51	Cue	Neutral	False
485.776	3.95	Control	0.6154	0.0	No	2.724	0.0	n/a	NoResponse	0	n/a	n/a	9	51	Fixation	Neutral	False
489.738	0.26	Control	0.6154	0.0	No	2.724	0.012	n/a	NoResponse	0	n/a	n/a	9	51	Target	Neutral	False
489.989	0.44	Control	0.6154	n/a	No	2.724	n/a	n/a	NoResponse	0	n/a	n/a	9	51	Blank	Neutral	False
490.424	1.45	Control	0.6154	n/a	No	2.724	n/a	5.0	NoResponse	0	0.036	489.46	9	51	Feedback	Neutral	False
491.878	2.724	Control	0.6154	n/a	No	2.724	n/a	n/a	NoResponse	0	0.0	n/a	9	51	ISIslide	Neutral	False
494.619	0.25	Control	0.6038	0.001	No	2.631	0.019	n/a	NoResponse	0	n/a	n/a	9	52	Cue	Neutral	False
494.87	4.05	Control	0.6038	0.0	No	2.631	0.001	n/a	NoResponse	0	n/a	n/a	9	52	Fixation	Neutral	False
498.916	0.27	Control	0.6038	0.003	No	2.631	-0.003	n/a	NoResponse	0	n/a	n/a	9	52	Target	Neutral	False
499.2	0.43	Control	0.6038	n/a	No	2.631	n/a	n/a	NoResponse	0	n/a	n/a	9	52	Blank	Neutral	False
499.618	1.45	Control	0.6038	n/a	No	2.631	n/a	5.0	NoResponse	0	0.013	498.631	9	52	Feedback	Neutral	False
501.072	2.631	Control	0.6038	n/a	No	2.631	n/a	n/a	NoResponse	0	0.0	n/a	9	52	ISIslide	Neutral	False
503.713	0.25	Win2	0.6111	0.0	Yes	2.937	0.013	n/a	GoodResponse	1	n/a	n/a	10	53	Cue	Win	True
503.964	4.05	Win2	0.6111	0.0	Yes	2.937	0.001	n/a	GoodResponse	1	n/a	n/a	10	53	Fixation	Win	True
508.01	0.28	Win2	0.6111	0.003	Yes	2.937	-0.003	1.0	GoodResponse	1	0.194	507.204	10	53	Target	Win	True
508.204	0.3	Win2	0.6111	0.003	Yes	2.937	-0.003	1.0	GoodResponse	1	0.194	n/a	10	53	ButtonPress	Win	True
508.294	0.42	Win2	0.6111	n/a	Yes	2.937	n/a	n/a	GoodResponse	1	n/a	n/a	10	53	Blank	Win	True
508.712	1.45	Win2	0.6111	n/a	Yes	2.937	n/a	5.0	GoodResponse	1	0.041	507.753	10	53	Feedback	Win	True
510.166	2.937	Win2	0.6111	n/a	Yes	2.937	n/a	n/a	GoodResponse	1	0.0	n/a	10	53	ISIslide	Win	True
513.125	0.25	Win2	0.6	0.0	No	2.725	0.025	n/a	NoResponse	0	n/a	n/a	10	54	Cue	MissedWin	True
513.376	3.95	Win2	0.6	0.0	No	2.725	0.001	n/a	NoResponse	0	n/a	n/a	10	54	Fixation	MissedWin	True
517.321	0.29	Win2	0.6	0.004	No	2.725	-0.004	1.0	NoResponse	0	0.385	516.706	10	54	Target	MissedWin	True
517.622	0.41	Win2	0.6	n/a	No	2.725	n/a	n/a	NoResponse	0	n/a	n/a	10	54	Blank	MissedWin	True
517.706	0.3	Win2	0.6	0.004	No	2.725	-0.004	1.0	NoResponse	0	0.385	n/a	10	54	ButtonPress	MissedWin	True
518.023	1.45	Win2	0.6	n/a	No	2.725	n/a	5.0	NoResponse	0	0.047	517.07	10	54	Feedback	MissedWin	True
519.477	2.725	Win2	0.6	n/a	No	2.725	n/a	n/a	NoResponse	0	0.0	n/a	10	54	ISIslide	MissedWin	True
522.219	0.25	Control	0.5893	0.0	No	3.031	0.019	n/a	NoResponse	0	n/a	n/a	10	55	Cue	Neutral	False
522.47	3.95	Control	0.5893	0.0	No	3.031	0.001	n/a	NoResponse	0	n/a	n/a	10	55	Fixation	Neutral	False
526.415	0.3	Control	0.5893	0.004	No	3.031	-0.004	n/a	NoResponse	0	n/a	n/a	10	55	Target	Neutral	False
526.716	0.4	Control	0.5893	n/a	No	3.031	n/a	n/a	NoResponse	0	n/a	n/a	10	55	Blank	Neutral	False
527.117	1.45	Control	0.5893	n/a	No	3.031	n/a	5.0	NoResponse	0	0.026	526.143	10	55	Feedback	Neutral	False
528.571	3.031	Control	0.5893	n/a	No	3.031	n/a	n/a	NoResponse	0	0.0	n/a	10	55	ISIslide	Neutral	False
531.614	0.25	Control	0.5789	0.0	No	2.836	0.014	n/a	NoResponse	0	n/a	n/a	10	56	Cue	Neutral	False
531.864	3.95	Control	0.5789	0.0	No	2.836	0.0	n/a	NoResponse	0	n/a	n/a	10	56	Fixation	Neutral	False
535.81	0.31	Control	0.5789	0.004	No	2.836	-0.004	n/a	NoResponse	0	n/a	n/a	10	56	Target	Neutral	False
536.127	0.39	Control	0.5789	n/a	No	2.836	n/a	n/a	NoResponse	0	n/a	n/a	10	56	Blank	Neutral	False
536.512	1.45	Control	0.5789	n/a	No	2.836	n/a	5.0	NoResponse	0	0.045	535.557	10	56	Feedback	Neutral	False
537.966	2.836	Control	0.5789	n/a	No	2.836	n/a	n/a	NoResponse	0	0.0	n/a	10	56	ISIslide	Neutral	False
540.825	0.25	Control	0.569	0.0	No	3.475	0.025	n/a	NoResponse	0	n/a	n/a	10	57	Cue	Neutral	False
541.075	4.0	Control	0.569	0.0	No	3.475	0.0	n/a	NoResponse	0	n/a	n/a	10	57	Fixation	Neutral	False
545.071	0.32	Control	0.569	0.004	No	3.475	-0.004	n/a	NoResponse	0	n/a	n/a	10	57	Target	Neutral	False
545.405	0.38	Control	0.569	n/a	No	3.475	n/a	n/a	NoResponse	0	n/a	n/a	10	57	Blank	Neutral	False
545.773	1.45	Control	0.569	n/a	No	3.475	n/a	5.0	NoResponse	0	0.006	544.779	10	57	Feedback	Neutral	False
547.227	3.475	Control	0.569	n/a	No	3.475	n/a	n/a	NoResponse	0	0.0	n/a	10	57	ISIslide	Neutral	False
550.721	0.25	Win2	0.5763	0.0	Yes	2.729	0.021	n/a	GoodResponse	1	n/a	n/a	11	58	Cue	Win	True
550.972	4.05	Win2	0.5763	0.0	Yes	2.729	0.001	n/a	GoodResponse	1	n/a	n/a	11	58	Fixation	Win	True
555.017	0.33	Win2	0.5763	0.004	Yes	2.729	-0.004	1.0	GoodResponse	1	0.224	554.241	11	58	Target	Win	True
555.241	0.3	Win2	0.5763	0.004	Yes	2.729	-0.004	1.0	GoodResponse	1	0.224	n/a	11	58	ButtonPress	Win	True
555.351	0.37	Win2	0.5763	n/a	Yes	2.729	n/a	n/a	GoodResponse	1	n/a	n/a	11	58	Blank	Win	True
555.719	1.45	Win2	0.5763	n/a	Yes	2.729	n/a	5.0	GoodResponse	1	0.009	554.728	11	58	Feedback	Win	True
557.174	2.729	Win2	0.5763	n/a	Yes	2.729	n/a	n/a	GoodResponse	1	0.0	n/a	11	58	ISIslide	Win	True
559.915	0.25	Lose2	0.5832999999999999	0.0	Yes	2.685	0.015	n/a	GoodResponse	0	n/a	n/a	11	59	Cue	AvoidedLoss	True
560.166	4.0	Lose2	0.5832999999999999	0.0	Yes	2.685	0.001	n/a	GoodResponse	0	n/a	n/a	11	59	Fixation	AvoidedLoss	True
564.161	0.34	Lose2	0.5832999999999999	0.004	Yes	2.685	-0.004	1.0	GoodResponse	0	0.198	563.359	11	59	Target	AvoidedLoss	True
564.359	0.3	Lose2	0.5832999999999999	0.004	Yes	2.685	-0.004	1.0	GoodResponse	0	0.198	n/a	11	59	ButtonPress	AvoidedLoss	True
564.512	0.36	Lose2	0.5832999999999999	n/a	Yes	2.685	n/a	n/a	GoodResponse	0	n/a	n/a	11	59	Blank	AvoidedLoss	True
564.863	1.45	Lose2	0.5832999999999999	n/a	Yes	2.685	n/a	5.0	GoodResponse	0	0.036	563.899	11	59	Feedback	AvoidedLoss	True
566.318	2.685	Lose2	0.5832999999999999	n/a	Yes	2.685	n/a	n/a	GoodResponse	0	0.0	n/a	11	59	ISIslide	AvoidedLoss	True
569.026	0.25	Control	0.5738	0.0	No	2.674	0.026	n/a	NoResponse	0	n/a	n/a	11	60	Cue	Neutral	False
569.277	4.0	Control	0.5738	0.0	No	2.674	0.001	n/a	NoResponse	0	n/a	n/a	11	60	Fixation	Neutral	False
573.272	0.35	Control	0.5738	0.004	No	2.674	-0.004	n/a	NoResponse	0	n/a	n/a	11	60	Target	Neutral	False
573.623	0.35	Control	0.5738	n/a	No	2.674	n/a	n/a	NoResponse	0	n/a	n/a	11	60	Blank	Neutral	False
573.974	1.45	Control	0.5738	n/a	No	2.674	n/a	5.0	NoResponse	0	0.047	573.021	11	60	Feedback	Neutral	False
575.428	2.674	Control	0.5738	n/a	No	2.674	n/a	n/a	NoResponse	0	0.0	n/a	11	60	ISIslide	Neutral	False
578.12	0.25	Lose2	0.5806	0.0	Yes	2.98	0.02	n/a	GoodResponse	0	n/a	n/a	11	61	Cue	AvoidedLoss	True
578.37	4.0	Lose2	0.5806	0.001	Yes	2.98	0.0	n/a	GoodResponse	0	n/a	n/a	11	61	Fixation	AvoidedLoss	True
582.366	0.36	Lose2	0.5806	0.004	Yes	2.98	-0.004	1.0	GoodResponse	0	0.35	581.716	11	61	Target	AvoidedLoss	True
582.716	0.3	Lose2	0.5806	0.004	Yes	2.98	-0.004	1.0	GoodResponse	0	0.35	n/a	11	61	ButtonPress	AvoidedLoss	True
582.734	0.34	Lose2	0.5806	n/a	Yes	2.98	n/a	n/a	GoodResponse	0	n/a	n/a	11	61	Blank	AvoidedLoss	True
583.068	1.45	Lose2	0.5806	n/a	Yes	2.98	n/a	5.0	GoodResponse	0	0.026	582.094	11	61	Feedback	AvoidedLoss	True
584.522	2.98	Lose2	0.5806	n/a	Yes	2.98	n/a	n/a	GoodResponse	0	0.0	n/a	11	61	ISIslide	AvoidedLoss	True
587.515	0.25	Lose2	0.5714	0.0	No	2.885	0.015	n/a	NoResponse	-1	n/a	n/a	10	62	Cue	Loss	True
587.765	3.9	Lose2	0.5714	0.0	No	2.885	0.0	n/a	NoResponse	-1	n/a	n/a	10	62	Fixation	Loss	True
591.677	0.37	Lose2	0.5714	0.0	No	2.885	0.012	1.0	NoResponse	-1	0.452	591.129	10	62	Target	Loss	True
592.045	0.33	Lose2	0.5714	n/a	No	2.885	n/a	n/a	NoResponse	-1	n/a	n/a	10	62	Blank	Loss	True
592.129	0.3	Lose2	0.5714	0.0	No	2.885	0.012	1.0	NoResponse	-1	0.452	n/a	10	62	ButtonPress	Loss	True
592.362	1.45	Lose2	0.5714	n/a	No	2.885	n/a	5.0	NoResponse	-1	0.049	591.411	10	62	Feedback	Loss	True
593.817	2.885	Lose2	0.5714	n/a	No	2.885	n/a	n/a	NoResponse	-1	0.0	n/a	10	62	ISIslide	Loss	True
596.725	0.25	Lose2	0.5781000000000001	0.001	Yes	2.625	0.025	n/a	GoodResponse	0	n/a	n/a	10	63	Cue	AvoidedLoss	True
596.976	4.05	Lose2	0.5781000000000001	0.0	Yes	2.625	0.001	n/a	GoodResponse	0	n/a	n/a	10	63	Fixation	AvoidedLoss	True
601.022	0.38	Lose2	0.5781000000000001	0.003	Yes	2.625	-0.003	1.0	GoodResponse	0	0.193	600.215	10	63	Target	AvoidedLoss	True
601.215	0.3	Lose2	0.5781000000000001	0.003	Yes	2.625	-0.003	1.0	GoodResponse	0	0.193	n/a	10	63	ButtonPress	AvoidedLoss	True
601.406	0.32	Lose2	0.5781000000000001	n/a	Yes	2.625	n/a	n/a	GoodResponse	0	n/a	n/a	10	63	Blank	AvoidedLoss	True
601.724	1.45	Lose2	0.5781000000000001	n/a	Yes	2.625	n/a	5.0	GoodResponse	0	0.004	600.728	10	63	Feedback	AvoidedLoss	True
603.178	2.625	Lose2	0.5781000000000001	n/a	Yes	2.625	n/a	n/a	GoodResponse	0	0.0	n/a	10	63	ISIslide	AvoidedLoss	True
605.819	0.25	Win2	0.5846	0.0	Yes	3.131	0.019	n/a	GoodResponse	1	n/a	n/a	11	64	Cue	Win	True
606.07	4.15	Win2	0.5846	0.0	Yes	3.131	0.001	n/a	GoodResponse	1	n/a	n/a	11	64	Fixation	Win	True
610.216	0.39	Win2	0.5846	0.003	Yes	3.131	-0.003	1.0	GoodResponse	1	0.224	609.44	11	64	Target	Win	True
610.44	0.3	Win2	0.5846	0.003	Yes	3.131	-0.003	1.0	GoodResponse	1	0.224	n/a	11	64	ButtonPress	Win	True
610.617	0.31	Win2	0.5846	n/a	Yes	3.131	n/a	n/a	GoodResponse	1	n/a	n/a	11	64	Blank	Win	True
610.918	1.45	Win2	0.5846	n/a	Yes	3.131	n/a	5.0	GoodResponse	1	0.029	609.947	11	64	Feedback	Win	True
612.372	3.131	Win2	0.5846	n/a	Yes	3.131	n/a	n/a	GoodResponse	1	0.0	n/a	11	64	ISIslide	Win	True
615.515	0.25	Control	0.5758	0.0	No	2.785	0.015	n/a	NoResponse	0	n/a	n/a	11	65	Cue	Neutral	False
615.766	4.0	Control	0.5758	0.0	No	2.785	0.001	n/a	NoResponse	0	n/a	n/a	11	65	Fixation	Neutral	False
619.761	0.4	Control	0.5758	0.004	No	2.785	-0.004	n/a	NoResponse	0	n/a	n/a	11	65	Target	Neutral	False
620.162	0.3	Control	0.5758	n/a	No	2.785	n/a	n/a	NoResponse	0	n/a	n/a	11	65	Blank	Neutral	False
620.463	1.45	Control	0.5758	n/a	No	2.785	n/a	5.0	NoResponse	0	0.045	619.508	11	65	Feedback	Neutral	False
621.918	2.785	Control	0.5758	n/a	No	2.785	n/a	n/a	NoResponse	0	0.0	n/a	11	65	ISIslide	Neutral	False
624.726	0.25	Win2	0.5672	0.0	No	2.774	0.026	n/a	NoResponse	0	n/a	n/a	11	66	Cue	MissedWin	False
624.977	3.9	Win2	0.5672	0.0	No	2.774	0.001	n/a	NoResponse	0	n/a	n/a	11	66	Fixation	MissedWin	False
628.872	0.41	Win2	0.5672	0.004	No	2.774	-0.004	n/a	NoResponse	0	n/a	n/a	11	66	Target	MissedWin	False
629.29	0.29	Win2	0.5672	n/a	No	2.774	n/a	n/a	NoResponse	0	n/a	n/a	11	66	Blank	MissedWin	False
629.574	1.45	Win2	0.5672	n/a	No	2.774	n/a	5.0	NoResponse	0	0.008	628.582	11	66	Feedback	MissedWin	False
631.028	2.774	Win2	0.5672	n/a	No	2.774	n/a	n/a	NoResponse	0	0.0	n/a	11	66	ISIslide	MissedWin	False
633.82	0.25	Control	0.5588000000000001	0.0	No	2.73	0.02	n/a	NoResponse	0	n/a	n/a	11	67	Cue	Neutral	False
634.071	3.95	Control	0.5588000000000001	0.0	No	2.73	0.001	n/a	NoResponse	0	n/a	n/a	11	67	Fixation	Neutral	False
638.016	0.42	Control	0.5588000000000001	0.004	No	2.73	-0.004	n/a	NoResponse	0	n/a	n/a	11	67	Target	Neutral	False
638.45	0.28	Control	0.5588000000000001	n/a	No	2.73	n/a	n/a	NoResponse	0	n/a	n/a	11	67	Blank	Neutral	False
638.718	1.45	Control	0.5588000000000001	n/a	No	2.73	n/a	5.0	NoResponse	0	0.035	637.753	11	67	Feedback	Neutral	False
640.172	2.73	Control	0.5588000000000001	n/a	No	2.73	n/a	n/a	NoResponse	0	0.0	n/a	11	67	ISIslide	Neutral	False
642.914	0.25	Win2	0.5652	0.0	Yes	3.086	0.014	n/a	GoodResponse	1	n/a	n/a	12	68	Cue	Win	True
643.165	4.0	Win2	0.5652	0.0	Yes	3.086	0.001	n/a	GoodResponse	1	n/a	n/a	12	68	Fixation	Win	True
647.16	0.43	Win2	0.5652	0.004	Yes	3.086	-0.004	1.0	GoodResponse	1	0.198	646.358	12	68	Target	Win	True
647.358	0.3	Win2	0.5652	0.004	Yes	3.086	-0.004	1.0	GoodResponse	1	0.198	n/a	12	68	ButtonPress	Win	True
647.595	0.27	Win2	0.5652	n/a	Yes	3.086	n/a	n/a	GoodResponse	1	n/a	n/a	12	68	Blank	Win	True
647.862	1.45	Win2	0.5652	n/a	Yes	3.086	n/a	5.0	GoodResponse	1	0.012	646.874	12	68	Feedback	Win	True
649.316	3.086	Win2	0.5652	n/a	Yes	3.086	n/a	n/a	GoodResponse	1	0.0	n/a	12	68	ISIslide	Win	True
652.426	0.25	Win2	0.5714	0.0	Yes	3.224	0.026	n/a	GoodResponse	1	n/a	n/a	13	69	Cue	Win	True
652.676	3.95	Win2	0.5714	0.001	Yes	3.224	0.0	n/a	GoodResponse	1	n/a	n/a	13	69	Fixation	Win	True
656.622	0.44	Win2	0.5714	0.004	Yes	3.224	-0.004	1.0	GoodResponse	1	0.252	655.874	13	69	Target	Win	True
656.874	0.3	Win2	0.5714	0.004	Yes	3.224	-0.004	1.0	GoodResponse	1	0.252	n/a	13	69	ButtonPress	Win	True
657.073	0.26	Win2	0.5714	n/a	Yes	3.224	n/a	n/a	GoodResponse	1	n/a	n/a	13	69	Blank	Win	True
657.324	1.45	Win2	0.5714	n/a	Yes	3.224	n/a	5.0	GoodResponse	1	0.013	656.337	13	69	Feedback	Win	True
658.778	3.224	Win2	0.5714	n/a	Yes	3.224	n/a	n/a	GoodResponse	1	0.0	n/a	13	69	ISIslide	Win	True
662.021	0.25	Lose2	0.5775	0.0	Yes	3.029	0.021	n/a	GoodResponse	0	n/a	n/a	13	70	Cue	AvoidedLoss	True
662.272	4.05	Lose2	0.5775	0.0	Yes	3.029	0.001	n/a	GoodResponse	0	n/a	n/a	13	70	Fixation	AvoidedLoss	True
666.317	0.45	Lose2	0.5775	0.004	Yes	3.029	-0.004	1.0	GoodResponse	0	0.203	665.52	13	70	Target	AvoidedLoss	True
666.52	0.3	Lose2	0.5775	0.004	Yes	3.029	-0.004	1.0	GoodResponse	0	0.203	n/a	13	70	ButtonPress	AvoidedLoss	True
666.769	0.25	Lose2	0.5775	n/a	Yes	3.029	n/a	n/a	GoodResponse	0	n/a	n/a	13	70	Blank	AvoidedLoss	True
667.019	1.45	Lose2	0.5775	n/a	Yes	3.029	n/a	5.0	GoodResponse	0	0.026	666.045	13	70	Feedback	AvoidedLoss	True
668.474	3.029	Lose2	0.5775	n/a	Yes	3.029	n/a	n/a	GoodResponse	0	0.0	n/a	13	70	ISIslide	AvoidedLoss	True
671.516	0.25	Win2	0.5832999999999999	0.0	Yes	2.734	0.016	n/a	GoodResponse	1	n/a	n/a	14	71	Cue	Win	True
671.767	4.05	Win2	0.5832999999999999	0.0	Yes	2.734	0.001	n/a	GoodResponse	1	n/a	n/a	14	71	Fixation	Win	True
675.812	0.46	Win2	0.5832999999999999	0.004	Yes	2.734	-0.004	1.0	GoodResponse	1	0.192	675.004	14	71	Target	Win	True
676.004	0.3	Win2	0.5832999999999999	0.004	Yes	2.734	-0.004	1.0	GoodResponse	1	0.192	n/a	14	71	ButtonPress	Win	True
676.28	0.24	Win2	0.5832999999999999	n/a	Yes	2.734	n/a	n/a	GoodResponse	1	n/a	n/a	14	71	Blank	Win	True
676.515	1.45	Win2	0.5832999999999999	n/a	Yes	2.734	n/a	5.0	GoodResponse	1	0.042	675.557	14	71	Feedback	Win	True
677.969	2.734	Win2	0.5832999999999999	n/a	Yes	2.734	n/a	n/a	GoodResponse	1	0.0	n/a	14	71	ISIslide	Win	True
680.727	0.25	Win2	0.589	0.0	Yes	2.773	0.027	n/a	GoodResponse	1	n/a	n/a	15	72	Cue	Win	True
680.978	4.1	Win2	0.589	0.0	Yes	2.773	0.001	n/a	GoodResponse	1	n/a	n/a	15	72	Fixation	Win	True
685.073	0.47	Win2	0.589	0.004	Yes	2.773	-0.004	1.0	GoodResponse	1	0.189	684.262	15	72	Target	Win	True
685.262	0.3	Win2	0.589	0.004	Yes	2.773	-0.004	1.0	GoodResponse	1	0.189	n/a	15	72	ButtonPress	Win	True
685.558	0.23	Win2	0.589	n/a	Yes	2.773	n/a	n/a	GoodResponse	1	n/a	n/a	15	72	Blank	Win	True
685.776	1.45	Win2	0.589	n/a	Yes	2.773	n/a	5.0	GoodResponse	1	0.0	684.776	15	72	Feedback	Win	True
687.23	2.773	Win2	0.589	n/a	Yes	2.773	n/a	n/a	GoodResponse	1	0.0	n/a	15	72	ISIslide	Win	True
690.022	0.25	Win2	0.5946	0.0	Yes	2.678	0.022	n/a	GoodResponse	1	n/a	n/a	16	73	Cue	Win	True
690.272	4.0	Win2	0.5946	0.0	Yes	2.678	0.0	n/a	GoodResponse	1	n/a	n/a	16	73	Fixation	Win	True
694.268	0.48	Win2	0.5946	0.004	Yes	2.678	-0.004	1.0	GoodResponse	1	0.223	693.491	16	73	Target	Win	True
694.491	0.3	Win2	0.5946	0.004	Yes	2.678	-0.004	1.0	GoodResponse	1	0.223	n/a	16	73	ButtonPress	Win	True
694.752	0.22	Win2	0.5946	n/a	Yes	2.678	n/a	n/a	GoodResponse	1	n/a	n/a	16	73	Blank	Win	True
694.97	1.45	Win2	0.5946	n/a	Yes	2.678	n/a	5.0	GoodResponse	1	0.026	693.996	16	73	Feedback	Win	True
696.424	2.678	Win2	0.5946	n/a	Yes	2.678	n/a	n/a	GoodResponse	1	0.0	n/a	16	73	ISIslide	Win	True
699.116	0.25	Lose2	0.6	0.0	Yes	2.634	0.016	n/a	GoodResponse	0	n/a	n/a	16	74	Cue	AvoidedLoss	True
699.366	4.05	Lose2	0.6	0.0	Yes	2.634	0.0	n/a	GoodResponse	0	n/a	n/a	16	74	Fixation	AvoidedLoss	True
703.412	0.49	Lose2	0.6	0.004	Yes	2.634	-0.004	1.0	GoodResponse	0	0.207	702.619	16	74	Target	AvoidedLoss	True
703.619	0.3	Lose2	0.6	0.004	Yes	2.634	-0.004	1.0	GoodResponse	0	0.207	n/a	16	74	ButtonPress	AvoidedLoss	True
703.913	0.21	Lose2	0.6	n/a	Yes	2.634	n/a	n/a	GoodResponse	0	n/a	n/a	16	74	Blank	AvoidedLoss	True
704.114	1.45	Lose2	0.6	n/a	Yes	2.634	n/a	5.0	GoodResponse	0	0.004	703.118	16	74	Feedback	AvoidedLoss	True
705.568	2.634	Lose2	0.6	n/a	Yes	2.634	n/a	n/a	GoodResponse	0	0.0	n/a	16	74	ISIslide	AvoidedLoss	True
708.226	0.25	Lose2	0.6053000000000001	0.0	Yes	2.924	0.026	n/a	GoodResponse	0	n/a	n/a	16	75	Cue	AvoidedLoss	True
708.477	3.95	Lose2	0.6053000000000001	0.0	Yes	2.924	0.001	n/a	GoodResponse	0	n/a	n/a	16	75	Fixation	AvoidedLoss	True
712.422	0.5	Lose2	0.6053000000000001	0.004	Yes	2.924	-0.004	1.0	GoodResponse	0	0.226	711.648	16	75	Target	AvoidedLoss	True
712.648	0.3	Lose2	0.6053000000000001	0.004	Yes	2.924	-0.004	1.0	GoodResponse	0	0.226	n/a	16	75	ButtonPress	AvoidedLoss	True
712.924	0.2	Lose2	0.6053000000000001	n/a	Yes	2.924	n/a	n/a	GoodResponse	0	n/a	n/a	16	75	Blank	AvoidedLoss	True
713.124	1.45	Lose2	0.6053000000000001	n/a	Yes	2.924	n/a	5.0	GoodResponse	0	0.018	712.142	16	75	Feedback	AvoidedLoss	True
714.579	2.924	Lose2	0.6053000000000001	n/a	Yes	2.924	n/a	n/a	GoodResponse	0	0.0	n/a	16	75	ISIslide	AvoidedLoss	True
717.521	0.25	Control	0.5974	0.0	No	3.229	0.021	n/a	NoResponse	0	n/a	n/a	16	76	Cue	Neutral	False
717.771	4.05	Control	0.5974	0.001	No	3.229	0.0	n/a	NoResponse	0	n/a	n/a	16	76	Fixation	Neutral	False
721.817	0.5	Control	0.5974	0.004	No	3.229	-0.004	n/a	NoResponse	0	n/a	n/a	16	76	Target	Neutral	False
722.318	0.2	Control	0.5974	n/a	No	3.229	n/a	n/a	NoResponse	0	n/a	n/a	16	76	Blank	Neutral	False
722.519	1.45	Control	0.5974	n/a	No	3.229	n/a	5.0	NoResponse	0	0.037	721.556	16	76	Feedback	Neutral	False
723.973	3.229	Control	0.5974	n/a	No	3.229	n/a	n/a	NoResponse	0	0.0	n/a	16	76	ISIslide	Neutral	False
727.216	0.25	Lose2	0.6026	0.001	Yes	2.584	0.016	n/a	GoodResponse	0	n/a	n/a	16	77	Cue	AvoidedLoss	True
727.467	3.95	Lose2	0.6026	0.0	Yes	2.584	0.001	n/a	GoodResponse	0	n/a	n/a	16	77	Fixation	AvoidedLoss	True
731.412	0.5	Lose2	0.6026	0.004	Yes	2.584	-0.004	1.0	GoodResponse	0	0.198	730.61	16	77	Target	AvoidedLoss	True
731.61	0.3	Lose2	0.6026	0.004	Yes	2.584	-0.004	1.0	GoodResponse	0	0.198	n/a	16	77	ButtonPress	AvoidedLoss	True
731.914	0.2	Lose2	0.6026	n/a	Yes	2.584	n/a	n/a	GoodResponse	0	n/a	n/a	16	77	Blank	AvoidedLoss	True
732.114	1.45	Lose2	0.6026	n/a	Yes	2.584	n/a	5.0	GoodResponse	0	0.004	731.118	16	77	Feedback	AvoidedLoss	True
733.569	2.584	Lose2	0.6026	n/a	Yes	2.584	n/a	n/a	GoodResponse	0	0.0	n/a	16	77	ISIslide	AvoidedLoss	True
