onset	duration	cue_type	current_mean_accuracy	duration_error	is_hit	isi_adjusted	onset_delay	response	response_type	reward	rt	rt_time	total_reward	trial_number	trial_phase	trial_type	one_press
11.112	0.25	Control	1.0	0.0	Yes	2.938	0.012	n/a	GoodResponse	0	n/a	n/a	0	0	Cue	Neutral	True
11.363	3.85	Control	1.0	0.0	Yes	2.938	0.001	n/a	GoodResponse	0	n/a	n/a	0	0	Fixation	Neutral	True
15.208	0.4	Control	1.0	0.004	Yes	2.938	-0.004	1.0	GoodResponse	0	0.211	14.419	0	0	Target	Neutral	True
15.419	0.3	Control	1.0	0.004	Yes	2.938	-0.004	1.0	GoodResponse	0	0.211	n/a	0	0	ButtonPress	Neutral	True
15.609	0.3	Control	1.0	n/a	Yes	2.938	n/a	n/a	GoodResponse	0	n/a	n/a	0	0	Blank	Neutral	True
15.91	1.45	Control	1.0	n/a	Yes	2.938	n/a	5.0	GoodResponse	0	0.017	14.927	0	0	Feedback	Neutral	True
17.364	2.938	Control	1.0	n/a	Yes	2.938	n/a	n/a	GoodResponse	0	0.0	n/a	0	0	ISIslide	Neutral	True
20.373	0.25	Lose2	1.0	0.0	Yes	2.727	0.073	n/a	GoodResponse	0	n/a	n/a	0	1	Cue	AvoidedLoss	True
20.624	4.0	Lose2	1.0	0.0	Yes	2.727	0.001	n/a	GoodResponse	0	n/a	n/a	0	1	Fixation	AvoidedLoss	True
24.619	0.39	Lose2	1.0	0.004	Yes	2.727	-0.004	1.0	GoodResponse	0	0.2	23.819	0	1	Target	AvoidedLoss	True
24.819	0.3	Lose2	1.0	0.004	Yes	2.727	-0.004	1.0	GoodResponse	0	0.2	n/a	0	1	ButtonPress	AvoidedLoss	True
25.02	0.31	Lose2	1.0	n/a	Yes	2.727	n/a	n/a	GoodResponse	0	n/a	n/a	0	1	Blank	AvoidedLoss	True
25.321	1.45	Lose2	1.0	n/a	Yes	2.727	n/a	5.0	GoodResponse	0	0.019	24.34	0	1	Feedback	AvoidedLoss	True
26.776	2.727	Lose2	1.0	n/a	Yes	2.727	n/a	n/a	GoodResponse	0	0.0	n/a	0	1	ISIslide	AvoidedLoss	True
29.517	0.25	Control	1.0	0.0	Yes	2.583	0.017	n/a	GoodResponse	0	n/a	n/a	0	2	Cue	Neutral	True
29.768	4.1	Control	1.0	0.0	Yes	2.583	0.001	n/a	GoodResponse	0	n/a	n/a	0	2	Fixation	Neutral	True
33.864	0.38	Control	1.0	0.003	Yes	2.583	-0.003	1.0	GoodResponse	0	0.204	33.068	0	2	Target	Neutral	True
34.068	0.3	Control	1.0	0.003	Yes	2.583	-0.003	1.0	GoodResponse	0	0.204	n/a	0	2	ButtonPress	Neutral	True
34.248	0.32	Control	1.0	n/a	Yes	2.583	n/a	n/a	GoodResponse	0	n/a	n/a	0	2	Blank	Neutral	True
34.566	1.45	Control	1.0	n/a	Yes	2.583	n/a	5.0	GoodResponse	0	0.043	33.609	0	2	Feedback	Neutral	True
36.02	2.583	Control	1.0	n/a	Yes	2.583	n/a	n/a	GoodResponse	0	0.0	n/a	0	2	ISIslide	Neutral	True
38.628	0.25	Win2	1.0	0.0	Yes	2.822	0.028	n/a	GoodResponse	1	n/a	n/a	1	3	Cue	Win	True
38.879	3.95	Win2	1.0	0.0	Yes	2.822	0.001	n/a	GoodResponse	1	n/a	n/a	1	3	Fixation	Win	True
42.824	0.37	Win2	1.0	0.004	Yes	2.822	-0.004	1.0	GoodResponse	1	0.189	42.013	1	3	Target	Win	True
43.013	0.3	Win2	1.0	0.004	Yes	2.822	-0.004	1.0	GoodResponse	1	0.189	n/a	1	3	ButtonPress	Win	True
43.208	0.33	Win2	1.0	n/a	Yes	2.822	n/a	n/a	GoodResponse	1	n/a	n/a	1	3	Blank	Win	True
43.526	1.45	Win2	1.0	n/a	Yes	2.822	n/a	5.0	GoodResponse	1	0.01	42.536	1	3	Feedback	Win	True
44.98	2.822	Win2	1.0	n/a	Yes	2.822	n/a	n/a	GoodResponse	1	0.0	n/a	1	3	ISIslide	Win	True
47.822	0.25	Win2	1.0	0.0	Yes	3.278	0.022	n/a	GoodResponse	1	n/a	n/a	2	4	Cue	Win	True
48.073	4.0	Win2	1.0	0.0	Yes	3.278	0.001	n/a	GoodResponse	1	n/a	n/a	2	4	Fixation	Win	True
52.068	0.36	Win2	1.0	0.004	Yes	3.278	-0.004	1.0	GoodResponse	1	0.163	51.231	2	4	Target	Win	True
52.231	0.3	Win2	1.0	0.004	Yes	3.278	-0.004	1.0	GoodResponse	1	0.163	n/a	2	4	ButtonPress	Win	True
52.436	0.34	Win2	1.0	n/a	Yes	3.278	n/a	n/a	GoodResponse	1	n/a	n/a	2	4	Blank	Win	True
52.77	1.45	Win2	1.0	n/a	Yes	3.278	n/a	5.0	GoodResponse	1	0.034	51.804	2	4	Feedback	Win	True
54.225	3.278	Win2	1.0	n/a	Yes	3.278	n/a	n/a	GoodResponse	1	0.0	n/a	2	4	ISIslide	Win	True
57.518	0.25	Win2	1.0	0.0	Yes	2.782	0.018	n/a	GoodResponse	1	n/a	n/a	3	5	Cue	Win	True
57.768	4.0	Win2	1.0	0.001	Yes	2.782	0.0	n/a	GoodResponse	1	n/a	n/a	3	5	Fixation	Win	True
61.764	0.35	Win2	1.0	0.004	Yes	2.782	-0.004	1.0	GoodResponse	1	0.225	60.989	3	5	Target	Win	True
61.989	0.3	Win2	1.0	0.004	Yes	2.782	-0.004	1.0	GoodResponse	1	0.225	n/a	3	5	ButtonPress	Win	True
62.115	0.35	Win2	1.0	n/a	Yes	2.782	n/a	n/a	GoodResponse	1	n/a	n/a	3	5	Blank	Win	True
62.466	1.45	Win2	1.0	n/a	Yes	2.782	n/a	5.0	GoodResponse	1	0.046	61.512	3	5	Feedback	Win	True
63.92	2.782	Win2	1.0	n/a	Yes	2.782	n/a	n/a	GoodResponse	1	0.0	n/a	3	5	ISIslide	Win	True
66.729	0.25	Lose2	1.0	0.0	Yes	2.721	0.029	n/a	GoodResponse	0	n/a	n/a	3	6	Cue	AvoidedLoss	False
66.979	3.95	Lose2	1.0	0.0	Yes	2.721	0.0	1.0	GoodResponse	0	3.634	69.613	3	6	Fixation	AvoidedLoss	False
70.613	0.3	Lose2	1.0	0.0	Yes	2.721	0.0	1.0	GoodResponse	0	3.634	n/a	3	6	ButtonPress	AvoidedLoss	False
70.924	0.34	Lose2	1.0	0.005	Yes	2.721	-0.005	1.0	GoodResponse	0	0.194	70.118	3	6	Target	AvoidedLoss	False
71.118	0.3	Lose2	1.0	0.005	Yes	2.721	-0.005	1.0	GoodResponse	0	0.194	n/a	3	6	ButtonPress	AvoidedLoss	False
71.276	0.36	Lose2	1.0	n/a	Yes	2.721	n/a	n/a	GoodResponse	0	n/a	n/a	3	6	Blank	AvoidedLoss	False
71.627	1.45	Lose2	1.0	n/a	Yes	2.721	n/a	5.0	GoodResponse	0	0.007	70.634	3	6	Feedback	AvoidedLoss	False
73.081	2.721	Lose2	1.0	n/a	Yes	2.721	n/a	n/a	GoodResponse	0	0.0	n/a	3	6	ISIslide	AvoidedLoss	False
75.822	0.25	Lose2	1.0	0.001	Yes	4.028	0.022	n/a	GoodResponse	0	n/a	n/a	3	7	Cue	AvoidedLoss	True
76.073	4.05	Lose2	1.0	0.0	Yes	4.028	0.001	n/a	GoodResponse	0	n/a	n/a	3	7	Fixation	AvoidedLoss	True
80.119	0.33	Lose2	1.0	0.003	Yes	4.028	-0.003	1.0	GoodResponse	0	0.216	79.335	3	7	Target	AvoidedLoss	True
80.335	0.3	Lose2	1.0	0.003	Yes	4.028	-0.003	1.0	GoodResponse	0	0.216	n/a	3	7	ButtonPress	AvoidedLoss	True
80.453	0.37	Lose2	1.0	n/a	Yes	4.028	n/a	n/a	GoodResponse	0	n/a	n/a	3	7	Blank	AvoidedLoss	True
80.821	1.45	Lose2	1.0	n/a	Yes	4.028	n/a	5.0	GoodResponse	0	0.031	79.852	3	7	Feedback	AvoidedLoss	True
82.275	4.028	Lose2	1.0	n/a	Yes	4.028	n/a	n/a	GoodResponse	0	0.0	n/a	3	7	ISIslide	AvoidedLoss	True
86.321	0.25	Lose2	1.0	0.0	Yes	3.029	0.021	n/a	GoodResponse	0	n/a	n/a	3	8	Cue	AvoidedLoss	True
86.571	3.95	Lose2	1.0	0.0	Yes	3.029	0.0	n/a	GoodResponse	0	n/a	n/a	3	8	Fixation	AvoidedLoss	True
90.533	0.32	Lose2	1.0	0.0	Yes	3.029	0.012	1.0	GoodResponse	0	0.284	89.817	3	8	Target	AvoidedLoss	True
90.817	0.3	Lose2	1.0	0.0	Yes	3.029	0.012	1.0	GoodResponse	0	0.284	n/a	3	8	ButtonPress	AvoidedLoss	True
90.851	0.38	Lose2	1.0	n/a	Yes	3.029	n/a	n/a	GoodResponse	0	n/a	n/a	3	8	Blank	AvoidedLoss	True
91.219	1.45	Lose2	1.0	n/a	Yes	3.029	n/a	5.0	GoodResponse	0	0.024	90.243	3	8	Feedback	AvoidedLoss	True
92.673	3.029	Lose2	1.0	n/a	Yes	3.029	n/a	n/a	GoodResponse	0	0.0	n/a	3	8	ISIslide	AvoidedLoss	True
95.715	0.25	Lose2	1.0	0.0	Yes	3.135	0.015	n/a	GoodResponse	0	n/a	n/a	3	9	Cue	AvoidedLoss	True
95.966	3.95	Lose2	1.0	0.0	Yes	3.135	0.001	n/a	GoodResponse	0	n/a	n/a	3	9	Fixation	AvoidedLoss	True
99.911	0.31	Lose2	1.0	0.004	Yes	3.135	-0.004	1.0	GoodResponse	0	0.216	99.127	3	9	Target	AvoidedLoss	True
100.127	0.3	Lose2	1.0	0.004	Yes	3.135	-0.004	1.0	GoodResponse	0	0.216	n/a	3	9	ButtonPress	AvoidedLoss	True
100.229	0.39	Lose2	1.0	n/a	Yes	3.135	n/a	n/a	GoodResponse	0	n/a	n/a	3	9	Blank	AvoidedLoss	True
100.613	1.45	Lose2	1.0	n/a	Yes	3.135	n/a	5.0	GoodResponse	0	0.044	99.657	3	9	Feedback	AvoidedLoss	True
102.068	3.135	Lose2	1.0	n/a	Yes	3.135	n/a	n/a	GoodResponse	0	0.0	n/a	3	9	ISIslide	AvoidedLoss	True
105.227	0.25	Control	1.0	0.0	Yes	3.273	0.027	n/a	GoodResponse	0	n/a	n/a	3	10	Cue	Neutral	True
105.478	4.0	Control	1.0	0.0	Yes	3.273	0.001	n/a	GoodResponse	0	n/a	n/a	3	10	Fixation	Neutral	True
109.473	0.3	Control	1.0	0.004	Yes	3.273	-0.004	1.0	GoodResponse	0	0.213	108.686	3	10	Target	Neutral	True
109.686	0.3	Control	1.0	0.004	Yes	3.273	-0.004	1.0	GoodResponse	0	0.213	n/a	3	10	ButtonPress	Neutral	True
109.774	0.4	Control	1.0	n/a	Yes	3.273	n/a	n/a	GoodResponse	0	n/a	n/a	3	10	Blank	Neutral	True
110.175	1.45	Control	1.0	n/a	Yes	3.273	n/a	5.0	GoodResponse	0	0.043	109.218	3	10	Feedback	Neutral	True
111.63	3.273	Control	1.0	n/a	Yes	3.273	n/a	n/a	GoodResponse	0	0.0	n/a	3	10	ISIslide	Neutral	True
114.923	0.25	Lose2	1.0	0.0	Yes	2.727	0.023	n/a	GoodResponse	0	n/a	n/a	3	11	Cue	AvoidedLoss	True
115.174	4.05	Lose2	1.0	0.0	Yes	2.727	0.001	n/a	GoodResponse	0	n/a	n/a	3	11	Fixation	AvoidedLoss	True
119.219	0.29	Lose2	1.0	0.004	Yes	2.727	-0.004	1.0	GoodResponse	0	0.228	118.447	3	11	Target	AvoidedLoss	True
119.447	0.3	Lose2	1.0	0.004	Yes	2.727	-0.004	1.0	GoodResponse	0	0.228	n/a	3	11	ButtonPress	AvoidedLoss	True
119.52	0.41	Lose2	1.0	n/a	Yes	2.727	n/a	n/a	GoodResponse	0	n/a	n/a	3	11	Blank	AvoidedLoss	True
119.921	1.45	Lose2	1.0	n/a	Yes	2.727	n/a	5.0	GoodResponse	0	0.006	118.927	3	11	Feedback	AvoidedLoss	True
121.375	2.727	Lose2	1.0	n/a	Yes	2.727	n/a	n/a	GoodResponse	0	0.0	n/a	3	11	ISIslide	AvoidedLoss	True
124.117	0.25	Control	1.0	0.0	Yes	2.983	0.017	n/a	GoodResponse	0	n/a	n/a	3	12	Cue	Neutral	True
124.368	3.9	Control	1.0	0.0	Yes	2.983	0.001	n/a	GoodResponse	0	n/a	n/a	3	12	Fixation	Neutral	True
128.263	0.28	Control	1.0	0.004	Yes	2.983	-0.004	1.0	GoodResponse	0	0.235	127.498	3	12	Target	Neutral	True
128.498	0.3	Control	1.0	0.004	Yes	2.983	-0.004	1.0	GoodResponse	0	0.235	n/a	3	12	ButtonPress	Neutral	True
128.547	0.42	Control	1.0	n/a	Yes	2.983	n/a	n/a	GoodResponse	0	n/a	n/a	3	12	Blank	Neutral	True
128.965	1.45	Control	1.0	n/a	Yes	2.983	n/a	5.0	GoodResponse	0	0.033	127.998	3	12	Feedback	Neutral	True
130.419	2.983	Control	1.0	n/a	Yes	2.983	n/a	n/a	GoodResponse	0	0.0	n/a	3	12	ISIslide	Neutral	True
133.428	0.25	Control	1.0	0.0	Yes	2.772	0.028	n/a	GoodResponse	0	n/a	n/a	3	13	Cue	Neutral	True
133.679	4.0	Control	1.0	0.0	Yes	2.772	0.001	n/a	GoodResponse	0	n/a	n/a	3	13	Fixation	Neutral	True
137.674	0.27	Control	1.0	0.004	Yes	2.772	-0.004	1.0	GoodResponse	0	0.206	136.88	3	13	Target	Neutral	True
137.88	0.3	Control	1.0	0.004	Yes	2.772	-0.004	1.0	GoodResponse	0	0.206	n/a	3	13	ButtonPress	Neutral	True
137.958	0.43	Control	1.0	n/a	Yes	2.772	n/a	n/a	GoodResponse	0	n/a	n/a	3	13	Blank	Neutral	True
138.376	1.45	Control	1.0	n/a	Yes	2.772	n/a	5.0	GoodResponse	0	0.037	137.413	3	13	Feedback	Neutral	True
139.831	2.772	Control	1.0	n/a	Yes	2.772	n/a	n/a	GoodResponse	0	0.0	n/a	3	13	ISIslide	Neutral	True
142.622	0.25	Win2	1.0	0.001	Yes	2.678	0.022	n/a	GoodResponse	1	n/a	n/a	4	14	Cue	Win	True
142.873	4.1	Win2	1.0	0.0	Yes	2.678	0.001	n/a	GoodResponse	1	n/a	n/a	4	14	Fixation	Win	True
146.969	0.26	Win2	1.0	0.003	Yes	2.678	-0.003	1.0	GoodResponse	1	0.233	146.202	4	14	Target	Win	True
147.202	0.3	Win2	1.0	0.003	Yes	2.678	-0.003	1.0	GoodResponse	1	0.233	n/a	4	14	ButtonPress	Win	True
147.236	0.44	Win2	1.0	n/a	Yes	2.678	n/a	n/a	GoodResponse	1	n/a	n/a	4	14	Blank	Win	True
147.671	1.45	Win2	1.0	n/a	Yes	2.678	n/a	5.0	GoodResponse	1	0.01	146.681	4	14	Feedback	Win	True
149.125	2.678	Win2	1.0	n/a	Yes	2.678	n/a	n/a	GoodResponse	1	0.0	n/a	4	14	ISIslide	Win	True
151.817	0.25	Control	1.0	0.0	Yes	2.983	0.017	n/a	GoodResponse	0	n/a	n/a	4	15	Cue	Neutral	True
152.067	4.0	Control	1.0	0.0	Yes	2.983	0.0	n/a	GoodResponse	0	n/a	n/a	4	15	Fixation	Neutral	True
156.063	0.25	Control	1.0	0.004	Yes	2.983	-0.004	1.0	GoodResponse	0	0.225	155.288	4	15	Target	Neutral	True
156.288	0.3	Control	1.0	0.004	Yes	2.983	-0.004	1.0	GoodResponse	0	0.225	n/a	4	15	ButtonPress	Neutral	True
156.313	0.45	Control	1.0	n/a	Yes	2.983	n/a	n/a	GoodResponse	0	n/a	n/a	4	15	Blank	Neutral	True
156.765	1.45	Control	1.0	n/a	Yes	2.983	n/a	5.0	GoodResponse	0	0.038	155.803	4	15	Feedback	Neutral	True
158.219	2.983	Control	1.0	n/a	Yes	2.983	n/a	n/a	GoodResponse	0	0.0	n/a	4	15	ISIslide	Neutral	True
161.228	0.25	Win2	1.0	0.0	Yes	2.872	0.028	n/a	GoodResponse	1	n/a	n/a	5	16	Cue	Win	True
161.479	4.0	Win2	1.0	0.0	Yes	2.872	0.001	n/a	GoodResponse	1	n/a	n/a	5	16	Fixation	Win	True
165.474	0.24	Win2	1.0	0.004	Yes	2.872	-0.004	1.0	GoodResponse	1	0.233	164.707	5	16	Target	Win	True
165.707	0.3	Win2	1.0	0.004	Yes	2.872	-0.004	1.0	GoodResponse	1	0.233	n/a	5	16	ButtonPress	Win	True
165.725	0.46	Win2	1.0	n/a	Yes	2.872	n/a	n/a	GoodResponse	1	n/a	n/a	5	16	Blank	Win	True
166.176	1.45	Win2	1.0	n/a	Yes	2.872	n/a	5.0	GoodResponse	1	0.042	165.218	5	16	Feedback	Win	True
167.631	2.872	Win2	1.0	n/a	Yes	2.872	n/a	n/a	GoodResponse	1	0.0	n/a	5	16	ISIslide	Win	True
170.523	0.25	Lose2	1.0	0.0	Yes	2.727	0.023	n/a	GoodResponse	0	n/a	n/a	5	17	Cue	AvoidedLoss	True
170.773	3.95	Lose2	1.0	0.0	Yes	2.727	0.0	n/a	GoodResponse	0	n/a	n/a	5	17	Fixation	AvoidedLoss	True
174.719	0.23	Lose2	1.0	0.004	Yes	2.727	-0.004	1.0	GoodResponse	0	0.186	173.905	5	17	Target	AvoidedLoss	True
174.905	0.3	Lose2	1.0	0.004	Yes	2.727	-0.004	1.0	GoodResponse	0	0.186	n/a	5	17	ButtonPress	AvoidedLoss	True
174.953	0.47	Lose2	1.0	n/a	Yes	2.727	n/a	n/a	GoodResponse	0	n/a	n/a	5	17	Blank	AvoidedLoss	True
175.421	1.45	Lose2	1.0	n/a	Yes	2.727	n/a	5.0	GoodResponse	0	0.016	174.437	5	17	Feedback	AvoidedLoss	True
176.875	2.727	Lose2	1.0	n/a	Yes	2.727	n/a	n/a	GoodResponse	0	0.0	n/a	5	17	ISIslide	AvoidedLoss	True
179.616	0.25	Lose2	1.0	0.001	Yes	2.734	0.016	n/a	GoodResponse	0	n/a	n/a	5	18	Cue	AvoidedLoss	True
179.867	4.05	Lose2	1.0	0.0	Yes	2.734	0.001	n/a	GoodResponse	0	n/a	n/a	5	18	Fixation	AvoidedLoss	True
183.913	0.22	Lose2	1.0	0.003	Yes	2.734	-0.003	1.0	GoodResponse	0	0.213	183.126	5	18	Target	AvoidedLoss	True
184.126	0.3	Lose2	1.0	0.003	Yes	2.734	-0.003	1.0	GoodResponse	0	0.213	n/a	5	18	ButtonPress	AvoidedLoss	True
184.147	0.48	Lose2	1.0	n/a	Yes	2.734	n/a	n/a	GoodResponse	0	n/a	n/a	5	18	Blank	AvoidedLoss	True
184.615	1.45	Lose2	1.0	n/a	Yes	2.734	n/a	5.0	GoodResponse	0	0.041	183.656	5	18	Feedback	AvoidedLoss	True
186.069	2.734	Lose2	1.0	n/a	Yes	2.734	n/a	n/a	GoodResponse	0	0.0	n/a	5	18	ISIslide	AvoidedLoss	True
188.827	0.25	Control	1.0	0.001	Yes	2.923	0.027	n/a	GoodResponse	0	n/a	n/a	5	19	Cue	Neutral	True
189.078	3.95	Control	1.0	0.0	Yes	2.923	0.001	n/a	GoodResponse	0	n/a	n/a	5	19	Fixation	Neutral	True
193.023	0.21	Control	1.0	0.004	Yes	2.923	-0.004	1.0	GoodResponse	0	0.203	192.226	5	19	Target	Neutral	True
193.226	0.3	Control	1.0	0.004	Yes	2.923	-0.004	1.0	GoodResponse	0	0.203	n/a	5	19	ButtonPress	Neutral	True
193.241	0.49	Control	1.0	n/a	Yes	2.923	n/a	n/a	GoodResponse	0	n/a	n/a	5	19	Blank	Neutral	True
193.725	1.45	Control	1.0	n/a	Yes	2.923	n/a	5.0	GoodResponse	0	0.007	192.732	5	19	Feedback	Neutral	True
195.18	2.923	Control	1.0	n/a	Yes	2.923	n/a	n/a	GoodResponse	0	0.0	n/a	5	19	ISIslide	Neutral	True
198.122	0.25	Control	0.9523999999999999	0.0	No	2.628	0.022	n/a	NoResponse	0	n/a	n/a	5	20	Cue	Neutral	True
198.373	4.05	Control	0.9523999999999999	0.0	No	2.628	0.001	n/a	NoResponse	0	n/a	n/a	5	20	Fixation	Neutral	True
202.418	0.2	Control	0.9523999999999999	0.004	No	2.628	-0.004	1.0	NoResponse	0	0.21	201.628	5	20	Target	Neutral	True
202.619	0.5	Control	0.9523999999999999	n/a	No	2.628	n/a	n/a	NoResponse	0	n/a	n/a	5	20	Blank	Neutral	True
202.628	0.3	Control	0.9523999999999999	0.004	No	2.628	-0.004	1.0	NoResponse	0	0.21	n/a	5	20	ButtonPress	Neutral	True
203.12	1.45	Control	0.9523999999999999	n/a	No	2.628	n/a	5.0	NoResponse	0	0.024	202.144	5	20	Feedback	Neutral	True
204.575	2.628	Control	0.9523999999999999	n/a	No	2.628	n/a	n/a	NoResponse	0	0.0	n/a	5	20	ISIslide	Neutral	True
207.216	0.25	Control	0.9091	0.0	No	2.784	0.016	n/a	NoResponse	0	n/a	n/a	5	21	Cue	Neutral	True
207.467	4.1	Control	0.9091	0.0	No	2.784	0.001	n/a	NoResponse	0	n/a	n/a	5	21	Fixation	Neutral	True
211.562	0.19	Control	0.9091	0.004	No	2.784	-0.004	1.0	NoResponse	0	0.22	210.782	5	21	Target	Neutral	True
211.763	0.51	Control	0.9091	n/a	No	2.784	n/a	n/a	NoResponse	0	n/a	n/a	5	21	Blank	Neutral	True
211.782	0.3	Control	0.9091	0.004	No	2.784	-0.004	1.0	NoResponse	0	0.22	n/a	5	21	ButtonPress	Neutral	True
212.264	1.45	Control	0.9091	n/a	No	2.784	n/a	5.0	NoResponse	0	0.007	211.271	5	21	Feedback	Neutral	True
213.719	2.784	Control	0.9091	n/a	No	2.784	n/a	n/a	NoResponse	0	0.0	n/a	5	21	ISIslide	Neutral	True
216.527	0.25	Control	0.8695999999999999	0.0	No	2.773	0.027	n/a	NoResponse	0	n/a	n/a	5	22	Cue	Neutral	True
216.778	4.0	Control	0.8695999999999999	0.0	No	2.773	0.001	n/a	NoResponse	0	n/a	n/a	5	22	Fixation	Neutral	True
220.773	0.18	Control	0.8695999999999999	0.004	No	2.773	-0.004	1.0	NoResponse	0	0.244	220.017	5	22	Target	Neutral	True
220.957	0.52	Control	0.8695999999999999	n/a	No	2.773	n/a	n/a	NoResponse	0	n/a	n/a	5	22	Blank	Neutral	True
221.017	0.3	Control	0.8695999999999999	0.004	No	2.773	-0.004	1.0	NoResponse	0	0.244	n/a	5	22	ButtonPress	Neutral	True
221.475	1.45	Control	0.8695999999999999	n/a	No	2.773	n/a	5.0	NoResponse	0	0.01	220.485	5	22	Feedback	Neutral	True
222.929	2.773	Control	0.8695999999999999	n/a	No	2.773	n/a	n/a	NoResponse	0	0.0	n/a	5	22	ISIslide	Neutral	True
225.721	0.25	Control	0.8332999999999999	0.0	No	2.779	0.021	n/a	NoResponse	0	n/a	n/a	5	23	Cue	Neutral	True
225.972	3.9	Control	0.8332999999999999	0.0	No	2.779	0.001	n/a	NoResponse	0	n/a	n/a	5	23	Fixation	Neutral	True
229.867	0.17	Control	0.8332999999999999	0.004	No	2.779	-0.004	1.0	NoResponse	0	0.223	229.09	5	23	Target	Neutral	True
230.051	0.53	Control	0.8332999999999999	n/a	No	2.779	n/a	n/a	NoResponse	0	n/a	n/a	5	23	Blank	Neutral	True
230.09	0.3	Control	0.8332999999999999	0.004	No	2.779	-0.004	1.0	NoResponse	0	0.223	n/a	5	23	ButtonPress	Neutral	True
230.569	1.45	Control	0.8332999999999999	n/a	No	2.779	n/a	5.0	NoResponse	0	0.038	229.607	5	23	Feedback	Neutral	True
232.023	2.779	Control	0.8332999999999999	n/a	No	2.779	n/a	n/a	NoResponse	0	0.0	n/a	5	23	ISIslide	Neutral	True
234.832	0.25	Win2	0.8	0.0	No	3.118	0.032	n/a	NoResponse	0	n/a	n/a	5	24	Cue	MissedWin	True
235.083	3.95	Win2	0.8	0.0	No	3.118	0.001	n/a	NoResponse	0	n/a	n/a	5	24	Fixation	MissedWin	True
239.028	0.16	Win2	0.8	0.004	No	3.118	-0.004	1.0	NoResponse	0	0.23	238.258	5	24	Target	MissedWin	True
239.195	0.54	Win2	0.8	n/a	No	3.118	n/a	n/a	NoResponse	0	n/a	n/a	5	24	Blank	MissedWin	True
239.258	0.3	Win2	0.8	0.004	No	3.118	-0.004	1.0	NoResponse	0	0.23	n/a	5	24	ButtonPress	MissedWin	True
239.73	1.45	Win2	0.8	n/a	No	3.118	n/a	5.0	NoResponse	0	0.048	238.778	5	24	Feedback	MissedWin	True
241.184	3.118	Win2	0.8	n/a	No	3.118	n/a	n/a	NoResponse	0	0.0	n/a	5	24	ISIslide	MissedWin	True
244.327	0.25	Win2	0.8077	0.0	Yes	3.073	0.027	n/a	GoodResponse	1	n/a	n/a	6	25	Cue	Win	True
244.578	4.0	Win2	0.8077	0.0	Yes	3.073	0.001	n/a	GoodResponse	1	n/a	n/a	6	25	Fixation	Win	True
248.573	0.15	Win2	0.8077	0.004	Yes	3.073	-0.004	1.0	GoodResponse	1	0.117	247.69	6	25	Target	Win	True
248.69	0.3	Win2	0.8077	0.004	Yes	3.073	-0.004	1.0	GoodResponse	1	0.117	n/a	6	25	ButtonPress	Win	True
248.723	0.55	Win2	0.8077	n/a	Yes	3.073	n/a	n/a	GoodResponse	1	n/a	n/a	6	25	Blank	Win	True
249.275	1.45	Win2	0.8077	n/a	Yes	3.073	n/a	5.0	GoodResponse	1	0.015	248.29	6	25	Feedback	Win	True
250.729	3.073	Win2	0.8077	n/a	Yes	3.073	n/a	n/a	GoodResponse	1	0.0	n/a	6	25	ISIslide	Win	True
253.822	0.25	Win2	0.7778	0.0	No	2.928	0.022	n/a	NoResponse	0	n/a	n/a	6	26	Cue	MissedWin	True
254.073	3.95	Win2	0.7778	0.0	No	2.928	0.001	n/a	NoResponse	0	n/a	n/a	6	26	Fixation	MissedWin	True
258.018	0.15	Win2	0.7778	0.004	No	2.928	-0.004	1.0	NoResponse	0	0.184	257.202	6	26	Target	MissedWin	True
258.168	0.55	Win2	0.7778	n/a	No	2.928	n/a	n/a	NoResponse	0	n/a	n/a	6	26	Blank	MissedWin	True
258.202	0.3	Win2	0.7778	0.004	No	2.928	-0.004	1.0	NoResponse	0	0.184	n/a	6	26	ButtonPress	MissedWin	True
258.72	1.45	Win2	0.7778	n/a	No	2.928	n/a	5.0	NoResponse	0	0.034	257.754	6	26	Feedback	MissedWin	True
260.174	2.928	Win2	0.7778	n/a	No	2.928	n/a	n/a	NoResponse	0	0.0	n/a	6	26	ISIslide	MissedWin	True
263.116	0.25	Lose2	0.75	0.001	No	2.834	0.016	n/a	NoResponse	-1	n/a	n/a	5	27	Cue	Loss	True
263.367	4.05	Lose2	0.75	0.0	No	2.834	0.001	n/a	NoResponse	-1	n/a	n/a	5	27	Fixation	Loss	True
267.413	0.15	Lose2	0.75	0.003	No	2.834	-0.003	1.0	NoResponse	-1	0.207	266.62	5	27	Target	Loss	True
267.563	0.55	Lose2	0.75	n/a	No	2.834	n/a	n/a	NoResponse	-1	n/a	n/a	5	27	Blank	Loss	True
267.62	0.3	Lose2	0.75	0.003	No	2.834	-0.003	1.0	NoResponse	-1	0.207	n/a	5	27	ButtonPress	Loss	True
268.115	1.45	Lose2	0.75	n/a	No	2.834	n/a	5.0	NoResponse	-1	0.006	267.121	5	27	Feedback	Loss	True
269.569	2.834	Lose2	0.75	n/a	No	2.834	n/a	n/a	NoResponse	-1	0.0	n/a	5	27	ISIslide	Loss	True
272.428	0.25	Control	0.7241	0.0	No	2.822	0.028	n/a	NoResponse	0	n/a	n/a	5	28	Cue	Neutral	True
272.678	4.05	Control	0.7241	0.0	No	2.822	0.0	n/a	NoResponse	0	n/a	n/a	5	28	Fixation	Neutral	True
276.724	0.15	Control	0.7241	0.004	No	2.822	-0.004	1.0	NoResponse	0	0.204	275.928	5	28	Target	Neutral	True
276.874	0.55	Control	0.7241	n/a	No	2.822	n/a	n/a	NoResponse	0	n/a	n/a	5	28	Blank	Neutral	True
276.928	0.3	Control	0.7241	0.004	No	2.822	-0.004	1.0	NoResponse	0	0.204	n/a	5	28	ButtonPress	Neutral	True
277.426	1.45	Control	0.7241	n/a	No	2.822	n/a	5.0	NoResponse	0	0.01	276.436	5	28	Feedback	Neutral	True
278.88	2.822	Control	0.7241	n/a	No	2.822	n/a	n/a	NoResponse	0	0.0	n/a	5	28	ISIslide	Neutral	True
281.722	0.25	Lose2	0.7	0.0	No	2.828	0.022	n/a	NoResponse	-1	n/a	n/a	4	29	Cue	Loss	True
281.973	3.95	Lose2	0.7	0.0	No	2.828	0.001	n/a	NoResponse	-1	n/a	n/a	4	29	Fixation	Loss	True
285.918	0.15	Lose2	0.7	0.004	No	2.828	-0.004	1.0	NoResponse	-1	0.227	285.145	4	29	Target	Loss	True
286.068	0.55	Lose2	0.7	n/a	No	2.828	n/a	n/a	NoResponse	-1	n/a	n/a	4	29	Blank	Loss	True
286.145	0.3	Lose2	0.7	0.004	No	2.828	-0.004	1.0	NoResponse	-1	0.227	n/a	4	29	ButtonPress	Loss	True
286.62	1.45	Lose2	0.7	n/a	No	2.828	n/a	5.0	NoResponse	-1	0.036	285.656	4	29	Feedback	Loss	True
288.074	2.828	Lose2	0.7	n/a	No	2.828	n/a	n/a	NoResponse	-1	0.0	n/a	4	29	ISIslide	Loss	True
290.916	0.25	Win2	0.6774	0.0	No	2.784	0.016	n/a	NoResponse	0	n/a	n/a	4	30	Cue	MissedWin	True
291.167	3.9	Win2	0.6774	0.0	No	2.784	0.001	n/a	NoResponse	0	n/a	n/a	4	30	Fixation	MissedWin	True
295.062	0.15	Win2	0.6774	0.004	No	2.784	-0.004	1.0	NoResponse	0	0.196	294.258	4	30	Target	MissedWin	True
295.213	0.55	Win2	0.6774	n/a	No	2.784	n/a	n/a	NoResponse	0	n/a	n/a	4	30	Blank	MissedWin	True
295.258	0.3	Win2	0.6774	0.004	No	2.784	-0.004	1.0	NoResponse	0	0.196	n/a	4	30	ButtonPress	MissedWin	True
295.764	1.45	Win2	0.6774	n/a	No	2.784	n/a	5.0	NoResponse	0	0.014	294.778	4	30	Feedback	MissedWin	True
297.219	2.784	Win2	0.6774	n/a	No	2.784	n/a	n/a	NoResponse	0	0.0	n/a	4	30	ISIslide	MissedWin	True
300.027	0.25	Lose2	0.6562	0.0	No	2.823	0.027	n/a	NoResponse	-1	n/a	n/a	3	31	Cue	Loss	True
300.278	4.05	Lose2	0.6562	0.0	No	2.823	0.001	n/a	NoResponse	-1	n/a	n/a	3	31	Fixation	Loss	True
304.323	0.15	Lose2	0.6562	0.004	No	2.823	-0.004	1.0	NoResponse	-1	0.219	303.542	3	31	Target	Loss	True
304.474	0.55	Lose2	0.6562	n/a	No	2.823	n/a	n/a	NoResponse	-1	n/a	n/a	3	31	Blank	Loss	True
304.542	0.3	Lose2	0.6562	0.004	No	2.823	-0.004	1.0	NoResponse	-1	0.219	n/a	3	31	ButtonPress	Loss	True
305.025	1.45	Lose2	0.6562	n/a	No	2.823	n/a	5.0	NoResponse	-1	0.021	304.046	3	31	Feedback	Loss	True
306.48	2.823	Lose2	0.6562	n/a	No	2.823	n/a	n/a	NoResponse	-1	0.0	n/a	3	31	ISIslide	Loss	True
309.321	0.25	Lose2	0.6364	0.0	No	2.629	0.021	n/a	NoResponse	-1	n/a	n/a	2	32	Cue	Loss	True
309.572	4.15	Lose2	0.6364	0.0	No	2.629	0.001	1.0	NoResponse	-1	4.13	312.702	2	32	Fixation	Loss	True
313.702	0.3	Lose2	0.6364	0.0	No	2.629	0.001	1.0	NoResponse	-1	4.13	n/a	2	32	ButtonPress	Loss	True
313.718	0.15	Lose2	0.6364	0.003	No	2.629	-0.003	n/a	NoResponse	-1	n/a	n/a	2	32	Target	Loss	True
313.868	0.55	Lose2	0.6364	n/a	No	2.629	n/a	n/a	NoResponse	-1	n/a	n/a	2	32	Blank	Loss	True
314.42	1.45	Lose2	0.6364	n/a	No	2.629	n/a	5.0	NoResponse	-1	0.041	313.461	2	32	Feedback	Loss	True
315.874	2.629	Lose2	0.6364	n/a	No	2.629	n/a	n/a	NoResponse	-1	0.0	n/a	2	32	ISIslide	Loss	True
318.516	0.25	Win2	0.6175999999999999	0.0	No	2.684	0.016	n/a	NoResponse	0	n/a	n/a	2	33	Cue	MissedWin	True
318.766	4.0	Win2	0.6175999999999999	0.0	No	2.684	0.0	n/a	NoResponse	0	n/a	n/a	2	33	Fixation	MissedWin	True
322.762	0.16	Win2	0.6175999999999999	0.004	No	2.684	-0.004	1.0	NoResponse	0	0.207	321.969	2	33	Target	MissedWin	True
322.929	0.54	Win2	0.6175999999999999	n/a	No	2.684	n/a	n/a	NoResponse	0	n/a	n/a	2	33	Blank	MissedWin	True
322.969	0.3	Win2	0.6175999999999999	0.004	No	2.684	-0.004	1.0	NoResponse	0	0.207	n/a	2	33	ButtonPress	MissedWin	True
323.464	1.45	Win2	0.6175999999999999	n/a	No	2.684	n/a	5.0	NoResponse	0	0.021	322.485	2	33	Feedback	MissedWin	True
324.918	2.684	Win2	0.6175999999999999	n/a	No	2.684	n/a	n/a	NoResponse	0	0.0	n/a	2	33	ISIslide	MissedWin	True
327.626	0.25	Lose2	0.6	0.0	No	2.624	0.026	n/a	NoResponse	-1	n/a	n/a	1	34	Cue	Loss	True
327.877	4.05	Lose2	0.6	0.0	No	2.624	0.001	n/a	NoResponse	-1	n/a	n/a	1	34	Fixation	Loss	True
331.922	0.17	Lose2	0.6	0.004	No	2.624	-0.004	1.0	NoResponse	-1	0.209	331.131	1	34	Target	Loss	True
332.106	0.53	Lose2	0.6	n/a	No	2.624	n/a	n/a	NoResponse	-1	n/a	n/a	1	34	Blank	Loss	True
332.131	0.3	Lose2	0.6	0.004	No	2.624	-0.004	1.0	NoResponse	-1	0.209	n/a	1	34	ButtonPress	Loss	True
332.624	1.45	Lose2	0.6	n/a	No	2.624	n/a	5.0	NoResponse	-1	0.031	331.655	1	34	Feedback	Loss	True
334.079	2.624	Lose2	0.6	n/a	No	2.624	n/a	n/a	NoResponse	-1	0.0	n/a	1	34	ISIslide	Loss	True
336.72	0.25	Lose2	0.5832999999999999	0.0	No	2.68	0.02	n/a	NoResponse	-1	n/a	n/a	0	35	Cue	Loss	True
336.971	4.0	Lose2	0.5832999999999999	0.0	No	2.68	0.001	n/a	NoResponse	-1	n/a	n/a	0	35	Fixation	Loss	True
340.966	0.18	Lose2	0.5832999999999999	0.004	No	2.68	-0.004	1.0	NoResponse	-1	0.219	340.185	0	35	Target	Loss	True
341.15	0.52	Lose2	0.5832999999999999	n/a	No	2.68	n/a	n/a	NoResponse	-1	n/a	n/a	0	35	Blank	Loss	True
341.185	0.3	Lose2	0.5832999999999999	0.004	No	2.68	-0.004	1.0	NoResponse	-1	0.219	n/a	0	35	ButtonPress	Loss	True
341.668	1.45	Lose2	0.5832999999999999	n/a	No	2.68	n/a	5.0	NoResponse	-1	0.012	340.68	0	35	Feedback	Loss	True
343.123	2.68	Lose2	0.5832999999999999	n/a	No	2.68	n/a	n/a	NoResponse	-1	0.0	n/a	0	35	ISIslide	Loss	True
345.814	0.25	Control	0.5676	0.0	No	2.686	0.014	n/a	NoResponse	0	n/a	n/a	0	36	Cue	Neutral	True
346.065	4.0	Control	0.5676	0.0	No	2.686	0.001	n/a	NoResponse	0	n/a	n/a	0	36	Fixation	Neutral	True
350.06	0.19	Control	0.5676	0.004	No	2.686	-0.004	1.0	NoResponse	0	0.223	349.283	0	36	Target	Neutral	True
350.261	0.51	Control	0.5676	n/a	No	2.686	n/a	n/a	NoResponse	0	n/a	n/a	0	36	Blank	Neutral	True
350.283	0.3	Control	0.5676	0.004	No	2.686	-0.004	1.0	NoResponse	0	0.223	n/a	0	36	ButtonPress	Neutral	True
350.762	1.45	Control	0.5676	n/a	No	2.686	n/a	5.0	NoResponse	0	0.04	349.802	0	36	Feedback	Neutral	True
352.216	2.686	Control	0.5676	n/a	No	2.686	n/a	n/a	NoResponse	0	0.0	n/a	0	36	ISIslide	Neutral	True
354.925	0.25	Win2	0.5526	0.0	No	2.875	0.025	n/a	NoResponse	0	n/a	n/a	0	37	Cue	MissedWin	True
355.175	4.0	Win2	0.5526	0.0	No	2.875	0.0	n/a	NoResponse	0	n/a	n/a	0	37	Fixation	MissedWin	True
359.171	0.2	Win2	0.5526	0.004	No	2.875	-0.004	1.0	NoResponse	0	0.22	358.391	0	37	Target	MissedWin	True
359.371	0.5	Win2	0.5526	n/a	No	2.875	n/a	n/a	NoResponse	0	n/a	n/a	0	37	Blank	MissedWin	True
359.391	0.3	Win2	0.5526	0.004	No	2.875	-0.004	1.0	NoResponse	0	0.22	n/a	0	37	ButtonPress	MissedWin	True
359.873	1.45	Win2	0.5526	n/a	No	2.875	n/a	5.0	NoResponse	0	0.002	358.875	0	37	Feedback	MissedWin	True
361.327	2.875	Win2	0.5526	n/a	No	2.875	n/a	n/a	NoResponse	0	0.0	n/a	0	37	ISIslide	MissedWin	True
364.219	0.25	Lose2	0.5640999999999999	0.0	Yes	2.831	0.019	n/a	GoodResponse	0	n/a	n/a	0	38	Cue	AvoidedLoss	True
364.47	3.95	Lose2	0.5640999999999999	0.0	Yes	2.831	0.001	n/a	GoodResponse	0	n/a	n/a	0	38	Fixation	AvoidedLoss	True
368.415	0.21	Lose2	0.5640999999999999	0.004	Yes	2.831	-0.004	1.0	GoodResponse	0	0.194	367.609	0	38	Target	AvoidedLoss	True
368.609	0.3	Lose2	0.5640999999999999	0.004	Yes	2.831	-0.004	1.0	GoodResponse	0	0.194	n/a	0	38	ButtonPress	AvoidedLoss	True
368.632	0.49	Lose2	0.5640999999999999	n/a	Yes	2.831	n/a	n/a	GoodResponse	0	n/a	n/a	0	38	Blank	AvoidedLoss	True
369.117	1.45	Lose2	0.5640999999999999	n/a	Yes	2.831	n/a	5.0	GoodResponse	0	0.027	368.144	0	38	Feedback	AvoidedLoss	True
370.571	2.831	Lose2	0.5640999999999999	n/a	Yes	2.831	n/a	n/a	GoodResponse	0	0.0	n/a	0	38	ISIslide	AvoidedLoss	True
373.43	0.25	Win2	0.575	0.0	Yes	2.97	0.03	n/a	GoodResponse	1	n/a	n/a	1	39	Cue	Win	True
373.681	4.1	Win2	0.575	0.0	Yes	2.97	0.001	n/a	GoodResponse	1	n/a	n/a	1	39	Fixation	Win	True
377.776	0.22	Win2	0.575	0.004	Yes	2.97	-0.004	1.0	GoodResponse	1	0.114	376.89	1	39	Target	Win	True
377.89	0.3	Win2	0.575	0.004	Yes	2.97	-0.004	1.0	GoodResponse	1	0.114	n/a	1	39	ButtonPress	Win	True
378.01	0.48	Win2	0.575	n/a	Yes	2.97	n/a	n/a	GoodResponse	1	n/a	n/a	1	39	Blank	Win	True
378.478	1.45	Win2	0.575	n/a	Yes	2.97	n/a	5.0	GoodResponse	1	0.031	377.509	1	39	Feedback	Win	True
379.933	2.97	Win2	0.575	n/a	Yes	2.97	n/a	n/a	GoodResponse	1	0.0	n/a	1	39	ISIslide	Win	True
382.925	0.25	Win2	0.561	0.0	No	2.725	0.025	n/a	NoResponse	0	n/a	n/a	1	40	Cue	MissedWin	True
383.176	3.95	Win2	0.561	0.0	No	2.725	0.001	n/a	NoResponse	0	n/a	n/a	1	40	Fixation	MissedWin	True
387.121	0.23	Win2	0.561	0.004	No	2.725	-0.004	1.0	NoResponse	0	0.256	386.377	1	40	Target	MissedWin	True
387.355	0.47	Win2	0.561	n/a	No	2.725	n/a	n/a	NoResponse	0	n/a	n/a	1	40	Blank	MissedWin	True
387.377	0.3	Win2	0.561	0.004	No	2.725	-0.004	1.0	NoResponse	0	0.256	n/a	1	40	ButtonPress	MissedWin	True
387.823	1.45	Win2	0.561	n/a	No	2.725	n/a	5.0	NoResponse	0	0.007	386.83	1	40	Feedback	MissedWin	True
389.277	2.725	Win2	0.561	n/a	No	2.725	n/a	n/a	NoResponse	0	0.0	n/a	1	40	ISIslide	MissedWin	True
392.019	0.25	Win2	0.5714	0.0	Yes	2.781	0.019	n/a	GoodResponse	1	n/a	n/a	2	41	Cue	Win	True
392.27	3.9	Win2	0.5714	0.0	Yes	2.781	0.001	n/a	GoodResponse	1	n/a	n/a	2	41	Fixation	Win	True
396.165	0.24	Win2	0.5714	0.004	Yes	2.781	-0.004	1.0	GoodResponse	1	0.226	395.391	2	41	Target	Win	True
396.391	0.3	Win2	0.5714	0.004	Yes	2.781	-0.004	1.0	GoodResponse	1	0.226	n/a	2	41	ButtonPress	Win	True
396.415	0.46	Win2	0.5714	n/a	Yes	2.781	n/a	n/a	GoodResponse	1	n/a	n/a	2	41	Blank	Win	True
396.867	1.45	Win2	0.5714	n/a	Yes	2.781	n/a	5.0	GoodResponse	1	0.032	395.899	2	41	Feedback	Win	True
398.321	2.781	Win2	0.5714	n/a	Yes	2.781	n/a	n/a	GoodResponse	1	0.0	n/a	2	41	ISIslide	Win	True
401.13	0.25	Control	0.5581	0.0	No	2.92	0.03	n/a	NoResponse	0	n/a	n/a	2	42	Cue	Neutral	True
401.38	3.85	Control	0.5581	0.0	No	2.92	0.0	n/a	NoResponse	0	n/a	n/a	2	42	Fixation	Neutral	True
405.242	0.25	Control	0.5581	0.0	No	2.92	0.012	1.0	NoResponse	0	0.267	404.509	2	42	Target	Neutral	True
405.476	0.45	Control	0.5581	n/a	No	2.92	n/a	n/a	NoResponse	0	n/a	n/a	2	42	Blank	Neutral	True
405.509	0.3	Control	0.5581	0.0	No	2.92	0.012	1.0	NoResponse	0	0.267	n/a	2	42	ButtonPress	Neutral	True
405.927	1.45	Control	0.5581	n/a	No	2.92	n/a	5.0	NoResponse	0	0.045	404.972	2	42	Feedback	Neutral	True
407.382	2.92	Control	0.5581	n/a	No	2.92	n/a	n/a	NoResponse	0	0.0	n/a	2	42	ISIslide	Neutral	True
410.324	0.25	Win2	0.5682	0.0	Yes	3.176	0.024	n/a	GoodResponse	1	n/a	n/a	3	43	Cue	Win	True
410.574	4.0	Win2	0.5682	0.001	Yes	3.176	0.0	n/a	GoodResponse	1	n/a	n/a	3	43	Fixation	Win	True
414.57	0.26	Win2	0.5682	0.004	Yes	3.176	-0.004	1.0	GoodResponse	1	0.223	413.793	3	43	Target	Win	True
414.793	0.3	Win2	0.5682	0.004	Yes	3.176	-0.004	1.0	GoodResponse	1	0.223	n/a	3	43	ButtonPress	Win	True
414.837	0.44	Win2	0.5682	n/a	Yes	3.176	n/a	n/a	GoodResponse	1	n/a	n/a	3	43	Blank	Win	True
415.272	1.45	Win2	0.5682	n/a	Yes	3.176	n/a	5.0	GoodResponse	1	0.018	414.29	3	43	Feedback	Win	True
416.726	3.176	Win2	0.5682	n/a	Yes	3.176	n/a	n/a	GoodResponse	1	0.0	n/a	3	43	ISIslide	Win	True
419.919	0.25	Win2	0.5778	0.0	Yes	2.981	0.019	n/a	GoodResponse	1	n/a	n/a	4	44	Cue	Win	True
420.17	4.0	Win2	0.5778	0.0	Yes	2.981	0.001	n/a	GoodResponse	1	n/a	n/a	4	44	Fixation	Win	True
424.165	0.27	Win2	0.5778	0.004	Yes	2.981	-0.004	1.0	GoodResponse	1	0.211	423.376	4	44	Target	Win	True
424.376	0.3	Win2	0.5778	0.004	Yes	2.981	-0.004	1.0	GoodResponse	1	0.211	n/a	4	44	ButtonPress	Win	True
424.449	0.43	Win2	0.5778	n/a	Yes	2.981	n/a	n/a	GoodResponse	1	n/a	n/a	4	44	Blank	Win	True
424.867	1.45	Win2	0.5778	n/a	Yes	2.981	n/a	5.0	GoodResponse	1	0.031	423.898	4	44	Feedback	Win	True
426.322	2.981	Win2	0.5778	n/a	Yes	2.981	n/a	n/a	GoodResponse	1	0.0	n/a	4	44	ISIslide	Win	True
429.314	0.25	Control	0.5652	0.0	No	2.886	0.014	n/a	NoResponse	0	n/a	n/a	4	45	Cue	Neutral	True
429.565	4.1	Control	0.5652	0.0	No	2.886	0.001	n/a	NoResponse	0	n/a	n/a	4	45	Fixation	Neutral	True
433.66	0.28	Control	0.5652	0.004	No	2.886	-0.004	1.0	NoResponse	0	0.318	432.978	4	45	Target	Neutral	True
433.944	0.42	Control	0.5652	n/a	No	2.886	n/a	n/a	NoResponse	0	n/a	n/a	4	45	Blank	Neutral	True
433.978	0.3	Control	0.5652	0.004	No	2.886	-0.004	1.0	NoResponse	0	0.318	n/a	4	45	ButtonPress	Neutral	True
434.362	1.45	Control	0.5652	n/a	No	2.886	n/a	5.0	NoResponse	0	0.049	433.411	4	45	Feedback	Neutral	True
435.817	2.886	Control	0.5652	n/a	No	2.886	n/a	n/a	NoResponse	0	0.0	n/a	4	45	ISIslide	Neutral	True
438.725	0.25	Lose2	0.5745	0.001	Yes	3.375	0.025	n/a	GoodResponse	0	n/a	n/a	4	46	Cue	AvoidedLoss	True
438.976	4.0	Lose2	0.5745	0.0	Yes	3.375	0.001	n/a	GoodResponse	0	n/a	n/a	4	46	Fixation	AvoidedLoss	True
442.971	0.29	Lose2	0.5745	0.004	Yes	3.375	-0.004	1.0	GoodResponse	0	0.273	442.244	4	46	Target	AvoidedLoss	True
443.244	0.3	Lose2	0.5745	0.004	Yes	3.375	-0.004	1.0	GoodResponse	0	0.273	n/a	4	46	ButtonPress	AvoidedLoss	True
443.272	0.41	Lose2	0.5745	n/a	Yes	3.375	n/a	n/a	GoodResponse	0	n/a	n/a	4	46	Blank	AvoidedLoss	True
443.674	1.45	Lose2	0.5745	n/a	Yes	3.375	n/a	5.0	GoodResponse	0	0.005	442.679	4	46	Feedback	AvoidedLoss	True
445.128	3.375	Lose2	0.5745	n/a	Yes	3.375	n/a	n/a	GoodResponse	0	0.0	n/a	4	46	ISIslide	AvoidedLoss	True
448.521	0.25	Lose2	0.5832999999999999	0.001	Yes	2.679	0.021	n/a	GoodResponse	0	n/a	n/a	4	47	Cue	AvoidedLoss	True
448.772	4.0	Lose2	0.5832999999999999	0.0	Yes	2.679	0.001	n/a	GoodResponse	0	n/a	n/a	4	47	Fixation	AvoidedLoss	True
452.767	0.3	Lose2	0.5832999999999999	0.004	Yes	2.679	-0.004	1.0	GoodResponse	0	0.235	452.002	4	47	Target	AvoidedLoss	True
453.002	0.3	Lose2	0.5832999999999999	0.004	Yes	2.679	-0.004	1.0	GoodResponse	0	0.235	n/a	4	47	ButtonPress	AvoidedLoss	True
453.068	0.4	Lose2	0.5832999999999999	n/a	Yes	2.679	n/a	n/a	GoodResponse	0	n/a	n/a	4	47	Blank	AvoidedLoss	True
453.47	1.45	Lose2	0.5832999999999999	n/a	Yes	2.679	n/a	5.0	GoodResponse	0	0.014	452.484	4	47	Feedback	AvoidedLoss	True
454.924	2.679	Lose2	0.5832999999999999	n/a	Yes	2.679	n/a	n/a	GoodResponse	0	0.0	n/a	4	47	ISIslide	AvoidedLoss	True
457.615	0.25	Lose2	0.5918	0.0	Yes	3.035	0.015	n/a	GoodResponse	0	n/a	n/a	4	48	Cue	AvoidedLoss	True
457.866	3.95	Lose2	0.5918	0.0	Yes	3.035	0.001	n/a	GoodResponse	0	n/a	n/a	4	48	Fixation	AvoidedLoss	True
461.811	0.31	Lose2	0.5918	0.004	Yes	3.035	-0.004	1.0	GoodResponse	0	0.223	461.034	4	48	Target	AvoidedLoss	True
462.034	0.3	Lose2	0.5918	0.004	Yes	3.035	-0.004	1.0	GoodResponse	0	0.223	n/a	4	48	ButtonPress	AvoidedLoss	True
462.129	0.39	Lose2	0.5918	n/a	Yes	3.035	n/a	n/a	GoodResponse	0	n/a	n/a	4	48	Blank	AvoidedLoss	True
462.513	1.45	Lose2	0.5918	n/a	Yes	3.035	n/a	5.0	GoodResponse	0	0.045	461.558	4	48	Feedback	AvoidedLoss	True
463.968	3.035	Lose2	0.5918	n/a	Yes	3.035	n/a	n/a	GoodResponse	0	0.0	n/a	4	48	ISIslide	AvoidedLoss	True
467.027	0.25	Control	0.6	0.0	Yes	2.873	0.027	n/a	GoodResponse	0	n/a	n/a	4	49	Cue	Neutral	True
467.278	4.0	Control	0.6	0.0	Yes	2.873	0.001	n/a	GoodResponse	0	n/a	n/a	4	49	Fixation	Neutral	True
471.273	0.32	Control	0.6	0.004	Yes	2.873	-0.004	1.0	GoodResponse	0	0.217	470.49	4	49	Target	Neutral	True
471.49	0.3	Control	0.6	0.004	Yes	2.873	-0.004	1.0	GoodResponse	0	0.217	n/a	4	49	ButtonPress	Neutral	True
471.607	0.38	Control	0.6	n/a	Yes	2.873	n/a	n/a	GoodResponse	0	n/a	n/a	4	49	Blank	Neutral	True
471.975	1.45	Control	0.6	n/a	Yes	2.873	n/a	5.0	GoodResponse	0	0.045	471.02	4	49	Feedback	Neutral	True
473.429	2.873	Control	0.6	n/a	Yes	2.873	n/a	n/a	GoodResponse	0	0.0	n/a	4	49	ISIslide	Neutral	True
476.321	0.25	Control	0.6078	0.0	Yes	2.779	0.021	n/a	GoodResponse	0	n/a	n/a	4	50	Cue	Neutral	True
476.572	4.0	Control	0.6078	0.0	Yes	2.779	0.001	n/a	GoodResponse	0	n/a	n/a	4	50	Fixation	Neutral	True
480.567	0.33	Control	0.6078	0.004	Yes	2.779	-0.004	1.0	GoodResponse	0	0.217	479.784	4	50	Target	Neutral	True
480.784	0.3	Control	0.6078	0.004	Yes	2.779	-0.004	1.0	GoodResponse	0	0.217	n/a	4	50	ButtonPress	Neutral	True
480.902	0.37	Control	0.6078	n/a	Yes	2.779	n/a	n/a	GoodResponse	0	n/a	n/a	4	50	Blank	Neutral	True
481.269	1.45	Control	0.6078	n/a	Yes	2.779	n/a	5.0	GoodResponse	0	0.02	480.289	4	50	Feedback	Neutral	True
482.724	2.779	Control	0.6078	n/a	Yes	2.779	n/a	n/a	GoodResponse	0	0.0	n/a	4	50	ISIslide	Neutral	True
485.515	0.25	Control	0.6154	0.001	Yes	2.735	0.015	n/a	GoodResponse	0	n/a	n/a	4	51	Cue	Neutral	True
485.766	3.95	Control	0.6154	0.0	Yes	2.735	0.001	n/a	GoodResponse	0	n/a	n/a	4	51	Fixation	Neutral	True
489.711	0.34	Control	0.6154	0.004	Yes	2.735	-0.004	1.0	GoodResponse	0	0.216	488.927	4	51	Target	Neutral	True
489.927	0.3	Control	0.6154	0.004	Yes	2.735	-0.004	1.0	GoodResponse	0	0.216	n/a	4	51	ButtonPress	Neutral	True
490.062	0.36	Control	0.6154	n/a	Yes	2.735	n/a	n/a	GoodResponse	0	n/a	n/a	4	51	Blank	Neutral	True
490.413	1.45	Control	0.6154	n/a	Yes	2.735	n/a	5.0	GoodResponse	0	0.046	489.459	4	51	Feedback	Neutral	True
491.868	2.735	Control	0.6154	n/a	Yes	2.735	n/a	n/a	GoodResponse	0	0.0	n/a	4	51	ISIslide	Neutral	True
494.626	0.25	Control	0.6225999999999999	0.0	Yes	2.624	0.026	n/a	GoodResponse	0	n/a	n/a	4	52	Cue	Neutral	True
494.877	4.05	Control	0.6225999999999999	0.0	Yes	2.624	0.001	n/a	GoodResponse	0	n/a	n/a	4	52	Fixation	Neutral	True
498.922	0.35	Control	0.6225999999999999	0.004	Yes	2.624	-0.004	1.0	GoodResponse	0	0.201	498.123	4	52	Target	Neutral	True
499.123	0.3	Control	0.6225999999999999	0.004	Yes	2.624	-0.004	1.0	GoodResponse	0	0.201	n/a	4	52	ButtonPress	Neutral	True
499.273	0.35	Control	0.6225999999999999	n/a	Yes	2.624	n/a	n/a	GoodResponse	0	n/a	n/a	4	52	Blank	Neutral	True
499.624	1.45	Control	0.6225999999999999	n/a	Yes	2.624	n/a	5.0	GoodResponse	0	0.006	498.63	4	52	Feedback	Neutral	True
501.079	2.624	Control	0.6225999999999999	n/a	Yes	2.624	n/a	n/a	GoodResponse	0	0.0	n/a	4	52	ISIslide	Neutral	True
503.72	0.25	Win2	0.6296	0.0	Yes	2.93	0.02	n/a	GoodResponse	1	n/a	n/a	5	53	Cue	Win	True
503.971	4.05	Win2	0.6296	0.0	Yes	2.93	0.001	n/a	GoodResponse	1	n/a	n/a	5	53	Fixation	Win	True
508.016	0.36	Win2	0.6296	0.004	Yes	2.93	-0.004	1.0	GoodResponse	1	0.224	507.24	5	53	Target	Win	True
508.24	0.3	Win2	0.6296	0.004	Yes	2.93	-0.004	1.0	GoodResponse	1	0.224	n/a	5	53	ButtonPress	Win	True
508.384	0.34	Win2	0.6296	n/a	Yes	2.93	n/a	n/a	GoodResponse	1	n/a	n/a	5	53	Blank	Win	True
508.718	1.45	Win2	0.6296	n/a	Yes	2.93	n/a	5.0	GoodResponse	1	0.034	507.752	5	53	Feedback	Win	True
510.173	2.93	Win2	0.6296	n/a	Yes	2.93	n/a	n/a	GoodResponse	1	0.0	n/a	5	53	ISIslide	Win	True
513.115	0.25	Win2	0.6364	0.0	Yes	2.735	0.015	n/a	GoodResponse	1	n/a	n/a	6	54	Cue	Win	True
513.366	3.95	Win2	0.6364	0.0	Yes	2.735	0.001	n/a	GoodResponse	1	n/a	n/a	6	54	Fixation	Win	True
517.311	0.37	Win2	0.6364	0.004	Yes	2.735	-0.004	1.0	GoodResponse	1	0.272	516.583	6	54	Target	Win	True
517.583	0.3	Win2	0.6364	0.004	Yes	2.735	-0.004	1.0	GoodResponse	1	0.272	n/a	6	54	ButtonPress	Win	True
517.695	0.33	Win2	0.6364	n/a	Yes	2.735	n/a	n/a	GoodResponse	1	n/a	n/a	6	54	Blank	Win	True
518.013	1.45	Win2	0.6364	n/a	Yes	2.735	n/a	5.0	GoodResponse	1	0.008	517.021	6	54	Feedback	Win	True
519.467	2.735	Win2	0.6364	n/a	Yes	2.735	n/a	n/a	GoodResponse	1	0.0	n/a	6	54	ISIslide	Win	True
522.225	0.25	Control	0.625	0.0	No	3.025	0.025	n/a	NoResponse	0	n/a	n/a	6	55	Cue	Neutral	True
522.476	3.95	Control	0.625	0.0	No	3.025	0.001	n/a	NoResponse	0	n/a	n/a	6	55	Fixation	Neutral	True
526.421	0.38	Control	0.625	0.004	No	3.025	-0.004	1.0	NoResponse	0	0.429	525.85	6	55	Target	Neutral	True
526.806	0.32	Control	0.625	n/a	No	3.025	n/a	n/a	NoResponse	0	n/a	n/a	6	55	Blank	Neutral	True
526.85	0.3	Control	0.625	0.004	No	3.025	-0.004	1.0	NoResponse	0	0.429	n/a	6	55	ButtonPress	Neutral	True
527.123	1.45	Control	0.625	n/a	No	3.025	n/a	5.0	NoResponse	0	0.019	526.142	6	55	Feedback	Neutral	True
528.578	3.025	Control	0.625	n/a	No	3.025	n/a	n/a	NoResponse	0	0.0	n/a	6	55	ISIslide	Neutral	True
531.62	0.25	Control	0.6315999999999999	0.0	Yes	2.83	0.02	n/a	GoodResponse	0	n/a	n/a	6	56	Cue	Neutral	True
531.871	3.95	Control	0.6315999999999999	0.0	Yes	2.83	0.001	n/a	GoodResponse	0	n/a	n/a	6	56	Fixation	Neutral	True
535.816	0.39	Control	0.6315999999999999	0.004	Yes	2.83	-0.004	1.0	GoodResponse	0	0.317	535.133	6	56	Target	Neutral	True
536.133	0.3	Control	0.6315999999999999	0.004	Yes	2.83	-0.004	1.0	GoodResponse	0	0.317	n/a	6	56	ButtonPress	Neutral	True
536.217	0.31	Control	0.6315999999999999	n/a	Yes	2.83	n/a	n/a	GoodResponse	0	n/a	n/a	6	56	Blank	Neutral	True
536.518	1.45	Control	0.6315999999999999	n/a	Yes	2.83	n/a	5.0	GoodResponse	0	0.039	535.557	6	56	Feedback	Neutral	True
537.973	2.83	Control	0.6315999999999999	n/a	Yes	2.83	n/a	n/a	GoodResponse	0	0.0	n/a	6	56	ISIslide	Neutral	True
540.814	0.25	Control	0.6379	0.0	Yes	3.486	0.014	1.0	GoodResponse	0	0.24	540.054	6	57	Cue	Neutral	False
541.054	0.3	Control	0.6379	0.0	Yes	3.486	0.014	1.0	GoodResponse	0	0.24	n/a	6	57	ButtonPress	Neutral	False
541.065	4.0	Control	0.6379	0.0	Yes	3.486	0.001	n/a	GoodResponse	0	n/a	n/a	6	57	Fixation	Neutral	False
545.06	0.4	Control	0.6379	0.004	Yes	3.486	-0.004	1.0	GoodResponse	0	0.248	544.308	6	57	Target	Neutral	False
545.308	0.3	Control	0.6379	0.004	Yes	3.486	-0.004	1.0	GoodResponse	0	0.248	n/a	6	57	ButtonPress	Neutral	False
545.462	0.3	Control	0.6379	n/a	Yes	3.486	n/a	n/a	GoodResponse	0	n/a	n/a	6	57	Blank	Neutral	False
545.762	1.45	Control	0.6379	n/a	Yes	3.486	n/a	5.0	GoodResponse	0	0.014	544.776	6	57	Feedback	Neutral	False
547.217	3.486	Control	0.6379	n/a	Yes	3.486	n/a	n/a	GoodResponse	0	0.0	n/a	6	57	ISIslide	Neutral	False
550.727	0.25	Win2	0.6441	0.0	Yes	2.723	0.027	n/a	GoodResponse	1	n/a	n/a	7	58	Cue	Win	True
550.978	4.05	Win2	0.6441	0.0	Yes	2.723	0.001	n/a	GoodResponse	1	n/a	n/a	7	58	Fixation	Win	True
555.024	0.41	Win2	0.6441	0.003	Yes	2.723	-0.003	1.0	GoodResponse	1	0.324	554.348	7	58	Target	Win	True
555.348	0.3	Win2	0.6441	0.003	Yes	2.723	-0.003	1.0	GoodResponse	1	0.324	n/a	7	58	ButtonPress	Win	True
555.441	0.29	Win2	0.6441	n/a	Yes	2.723	n/a	n/a	GoodResponse	1	n/a	n/a	7	58	Blank	Win	True
555.726	1.45	Win2	0.6441	n/a	Yes	2.723	n/a	5.0	GoodResponse	1	0.001	554.727	7	58	Feedback	Win	True
557.18	2.723	Win2	0.6441	n/a	Yes	2.723	n/a	n/a	GoodResponse	1	0.0	n/a	7	58	ISIslide	Win	True
559.922	0.25	Lose2	0.65	0.0	Yes	2.678	0.022	n/a	GoodResponse	0	n/a	n/a	7	59	Cue	AvoidedLoss	True
560.172	4.0	Lose2	0.65	0.0	Yes	2.678	0.0	n/a	GoodResponse	0	n/a	n/a	7	59	Fixation	AvoidedLoss	True
564.168	0.42	Lose2	0.65	0.004	Yes	2.678	-0.004	1.0	GoodResponse	0	0.239	563.407	7	59	Target	AvoidedLoss	True
564.407	0.3	Lose2	0.65	0.004	Yes	2.678	-0.004	1.0	GoodResponse	0	0.239	n/a	7	59	ButtonPress	AvoidedLoss	True
564.602	0.28	Lose2	0.65	n/a	Yes	2.678	n/a	n/a	GoodResponse	0	n/a	n/a	7	59	Blank	AvoidedLoss	True
564.87	1.45	Lose2	0.65	n/a	Yes	2.678	n/a	5.0	GoodResponse	0	0.028	563.898	7	59	Feedback	AvoidedLoss	True
566.324	2.678	Lose2	0.65	n/a	Yes	2.678	n/a	n/a	GoodResponse	0	0.0	n/a	7	59	ISIslide	AvoidedLoss	True
569.015	0.25	Control	0.6557	0.001	Yes	2.685	0.015	n/a	GoodResponse	0	n/a	n/a	7	60	Cue	Neutral	True
569.266	4.0	Control	0.6557	0.0	Yes	2.685	0.001	n/a	GoodResponse	0	n/a	n/a	7	60	Fixation	Neutral	True
573.261	0.43	Control	0.6557	0.004	Yes	2.685	-0.004	1.0	GoodResponse	0	0.209	572.47	7	60	Target	Neutral	True
573.47	0.3	Control	0.6557	0.004	Yes	2.685	-0.004	1.0	GoodResponse	0	0.209	n/a	7	60	ButtonPress	Neutral	True
573.696	0.27	Control	0.6557	n/a	Yes	2.685	n/a	n/a	GoodResponse	0	n/a	n/a	7	60	Blank	Neutral	True
573.964	1.45	Control	0.6557	n/a	Yes	2.685	n/a	5.0	GoodResponse	0	0.007	572.971	7	60	Feedback	Neutral	True
575.418	2.685	Control	0.6557	n/a	Yes	2.685	n/a	n/a	GoodResponse	0	0.0	n/a	7	60	ISIslide	Neutral	True
578.126	0.25	Lose2	0.6613	0.0	Yes	2.974	0.026	n/a	GoodResponse	0	n/a	n/a	7	61	Cue	AvoidedLoss	True
578.377	4.0	Lose2	0.6613	0.0	Yes	2.974	0.001	n/a	GoodResponse	0	n/a	n/a	7	61	Fixation	AvoidedLoss	True
582.372	0.43	Lose2	0.6613	0.004	Yes	2.974	-0.004	1.0	GoodResponse	0	0.228	581.6	7	61	Target	AvoidedLoss	True
582.6	0.3	Lose2	0.6613	0.004	Yes	2.974	-0.004	1.0	GoodResponse	0	0.228	n/a	7	61	ButtonPress	AvoidedLoss	True
582.807	0.27	Lose2	0.6613	n/a	Yes	2.974	n/a	n/a	GoodResponse	0	n/a	n/a	7	61	Blank	AvoidedLoss	True
583.074	1.45	Lose2	0.6613	n/a	Yes	2.974	n/a	5.0	GoodResponse	0	0.019	582.093	7	61	Feedback	AvoidedLoss	True
584.529	2.974	Lose2	0.6613	n/a	Yes	2.974	n/a	n/a	GoodResponse	0	0.0	n/a	7	61	ISIslide	AvoidedLoss	True
587.521	0.25	Lose2	0.6667000000000001	0.0	Yes	2.879	0.021	n/a	GoodResponse	0	n/a	n/a	7	62	Cue	AvoidedLoss	True
587.772	3.9	Lose2	0.6667000000000001	0.0	Yes	2.879	0.001	n/a	GoodResponse	0	n/a	n/a	7	62	Fixation	AvoidedLoss	True
591.667	0.43	Lose2	0.6667000000000001	0.004	Yes	2.879	-0.004	1.0	GoodResponse	0	0.252	590.919	7	62	Target	AvoidedLoss	True
591.919	0.3	Lose2	0.6667000000000001	0.004	Yes	2.879	-0.004	1.0	GoodResponse	0	0.252	n/a	7	62	ButtonPress	AvoidedLoss	True
592.101	0.27	Lose2	0.6667000000000001	n/a	Yes	2.879	n/a	n/a	GoodResponse	0	n/a	n/a	7	62	Blank	AvoidedLoss	True
592.369	1.45	Lose2	0.6667000000000001	n/a	Yes	2.879	n/a	5.0	GoodResponse	0	0.041	591.41	7	62	Feedback	AvoidedLoss	True
593.823	2.879	Lose2	0.6667000000000001	n/a	Yes	2.879	n/a	n/a	GoodResponse	0	0.0	n/a	7	62	ISIslide	AvoidedLoss	True
596.715	0.25	Lose2	0.6718999999999999	0.0	Yes	2.635	0.015	n/a	GoodResponse	0	n/a	n/a	7	63	Cue	AvoidedLoss	True
596.966	4.05	Lose2	0.6718999999999999	0.0	Yes	2.635	0.001	n/a	GoodResponse	0	n/a	n/a	7	63	Fixation	AvoidedLoss	True
601.011	0.42	Lose2	0.6718999999999999	0.004	Yes	2.635	-0.004	1.0	GoodResponse	0	0.222	600.233	7	63	Target	AvoidedLoss	True
601.233	0.3	Lose2	0.6718999999999999	0.004	Yes	2.635	-0.004	1.0	GoodResponse	0	0.222	n/a	7	63	ButtonPress	AvoidedLoss	True
601.446	0.28	Lose2	0.6718999999999999	n/a	Yes	2.635	n/a	n/a	GoodResponse	0	n/a	n/a	7	63	Blank	AvoidedLoss	True
601.713	1.45	Lose2	0.6718999999999999	n/a	Yes	2.635	n/a	5.0	GoodResponse	0	0.014	600.727	7	63	Feedback	AvoidedLoss	True
603.168	2.635	Lose2	0.6718999999999999	n/a	Yes	2.635	n/a	n/a	GoodResponse	0	0.0	n/a	7	63	ISIslide	AvoidedLoss	True
605.826	0.25	Win2	0.6769	0.0	Yes	3.124	0.026	n/a	GoodResponse	1	n/a	n/a	8	64	Cue	Win	True
606.076	4.15	Win2	0.6769	0.0	Yes	3.124	0.0	n/a	GoodResponse	1	n/a	n/a	8	64	Fixation	Win	True
610.222	0.41	Win2	0.6769	0.004	Yes	3.124	-0.004	1.0	GoodResponse	1	0.238	609.46	8	64	Target	Win	True
610.46	0.3	Win2	0.6769	0.004	Yes	3.124	-0.004	1.0	GoodResponse	1	0.238	n/a	8	64	ButtonPress	Win	True
610.64	0.29	Win2	0.6769	n/a	Yes	3.124	n/a	n/a	GoodResponse	1	n/a	n/a	8	64	Blank	Win	True
610.924	1.45	Win2	0.6769	n/a	Yes	3.124	n/a	5.0	GoodResponse	1	0.023	609.947	8	64	Feedback	Win	True
612.379	3.124	Win2	0.6769	n/a	Yes	3.124	n/a	n/a	GoodResponse	1	0.0	n/a	8	64	ISIslide	Win	True
615.521	0.25	Control	0.6818000000000001	0.0	Yes	2.779	0.021	n/a	GoodResponse	0	n/a	n/a	8	65	Cue	Neutral	True
615.772	4.0	Control	0.6818000000000001	0.0	Yes	2.779	0.001	n/a	GoodResponse	0	n/a	n/a	8	65	Fixation	Neutral	True
619.767	0.4	Control	0.6818000000000001	0.004	Yes	2.779	-0.004	1.0	GoodResponse	0	0.222	618.989	8	65	Target	Neutral	True
619.989	0.3	Control	0.6818000000000001	0.004	Yes	2.779	-0.004	1.0	GoodResponse	0	0.222	n/a	8	65	ButtonPress	Neutral	True
620.169	0.3	Control	0.6818000000000001	n/a	Yes	2.779	n/a	n/a	GoodResponse	0	n/a	n/a	8	65	Blank	Neutral	True
620.469	1.45	Control	0.6818000000000001	n/a	Yes	2.779	n/a	5.0	GoodResponse	0	0.039	619.508	8	65	Feedback	Neutral	True
621.924	2.779	Control	0.6818000000000001	n/a	Yes	2.779	n/a	n/a	GoodResponse	0	0.0	n/a	8	65	ISIslide	Neutral	True
624.715	0.25	Win2	0.6866	0.001	Yes	2.785	0.015	n/a	GoodResponse	1	n/a	n/a	9	66	Cue	Win	True
624.966	3.9	Win2	0.6866	0.0	Yes	2.785	0.001	n/a	GoodResponse	1	n/a	n/a	9	66	Fixation	Win	True
628.861	0.39	Win2	0.6866	0.004	Yes	2.785	-0.004	1.0	GoodResponse	1	0.226	628.087	9	66	Target	Win	True
629.087	0.3	Win2	0.6866	0.004	Yes	2.785	-0.004	1.0	GoodResponse	1	0.226	n/a	9	66	ButtonPress	Win	True
629.262	0.31	Win2	0.6866	n/a	Yes	2.785	n/a	n/a	GoodResponse	1	n/a	n/a	9	66	Blank	Win	True
629.563	1.45	Win2	0.6866	n/a	Yes	2.785	n/a	5.0	GoodResponse	1	0.017	628.58	9	66	Feedback	Win	True
631.018	2.785	Win2	0.6866	n/a	Yes	2.785	n/a	n/a	GoodResponse	1	0.0	n/a	9	66	ISIslide	Win	True
633.826	0.25	Control	0.6912	0.0	Yes	2.724	0.026	n/a	GoodResponse	0	n/a	n/a	9	67	Cue	Neutral	True
634.077	3.95	Control	0.6912	0.0	Yes	2.724	0.001	n/a	GoodResponse	0	n/a	n/a	9	67	Fixation	Neutral	True
638.022	0.38	Control	0.6912	0.004	Yes	2.724	-0.004	1.0	GoodResponse	0	0.264	637.286	9	67	Target	Neutral	True
638.286	0.3	Control	0.6912	0.004	Yes	2.724	-0.004	1.0	GoodResponse	0	0.264	n/a	9	67	ButtonPress	Neutral	True
638.406	0.32	Control	0.6912	n/a	Yes	2.724	n/a	n/a	GoodResponse	0	n/a	n/a	9	67	Blank	Neutral	True
638.724	1.45	Control	0.6912	n/a	Yes	2.724	n/a	5.0	GoodResponse	0	0.027	637.751	9	67	Feedback	Neutral	True
640.178	2.724	Control	0.6912	n/a	Yes	2.724	n/a	n/a	GoodResponse	0	0.0	n/a	9	67	ISIslide	Neutral	True
642.92	0.25	Win2	0.6957	0.0	Yes	3.08	0.02	n/a	GoodResponse	1	n/a	n/a	10	68	Cue	Win	True
643.171	4.0	Win2	0.6957	0.0	Yes	3.08	0.001	n/a	GoodResponse	1	n/a	n/a	10	68	Fixation	Win	True
647.166	0.37	Win2	0.6957	0.004	Yes	3.08	-0.004	1.0	GoodResponse	1	0.254	646.42	10	68	Target	Win	True
647.42	0.3	Win2	0.6957	0.004	Yes	3.08	-0.004	1.0	GoodResponse	1	0.254	n/a	10	68	ButtonPress	Win	True
647.551	0.33	Win2	0.6957	n/a	Yes	3.08	n/a	n/a	GoodResponse	1	n/a	n/a	10	68	Blank	Win	True
647.868	1.45	Win2	0.6957	n/a	Yes	3.08	n/a	5.0	GoodResponse	1	0.006	646.874	10	68	Feedback	Win	True
649.322	3.08	Win2	0.6957	n/a	Yes	3.08	n/a	n/a	GoodResponse	1	0.0	n/a	10	68	ISIslide	Win	True
652.415	0.25	Win2	0.7	0.0	Yes	3.235	0.015	n/a	GoodResponse	1	n/a	n/a	11	69	Cue	Win	True
652.666	3.95	Win2	0.7	0.0	Yes	3.235	0.001	n/a	GoodResponse	1	n/a	n/a	11	69	Fixation	Win	True
656.611	0.36	Win2	0.7	0.004	Yes	3.235	-0.004	1.0	GoodResponse	1	0.243	655.854	11	69	Target	Win	True
656.854	0.3	Win2	0.7	0.004	Yes	3.235	-0.004	1.0	GoodResponse	1	0.243	n/a	11	69	ButtonPress	Win	True
656.979	0.34	Win2	0.7	n/a	Yes	3.235	n/a	n/a	GoodResponse	1	n/a	n/a	11	69	Blank	Win	True
657.313	1.45	Win2	0.7	n/a	Yes	3.235	n/a	5.0	GoodResponse	1	0.024	656.337	11	69	Feedback	Win	True
658.767	3.235	Win2	0.7	n/a	Yes	3.235	n/a	n/a	GoodResponse	1	0.0	n/a	11	69	ISIslide	Win	True
662.027	0.25	Lose2	0.7042	0.0	Yes	3.023	0.027	n/a	GoodResponse	0	n/a	n/a	11	70	Cue	AvoidedLoss	True
662.278	4.05	Lose2	0.7042	0.0	Yes	3.023	0.001	n/a	GoodResponse	0	n/a	n/a	11	70	Fixation	AvoidedLoss	True
666.323	0.35	Lose2	0.7042	0.004	Yes	3.023	-0.004	1.0	GoodResponse	0	0.224	665.547	11	70	Target	AvoidedLoss	True
666.547	0.3	Lose2	0.7042	0.004	Yes	3.023	-0.004	1.0	GoodResponse	0	0.224	n/a	11	70	ButtonPress	AvoidedLoss	True
666.674	0.35	Lose2	0.7042	n/a	Yes	3.023	n/a	n/a	GoodResponse	0	n/a	n/a	11	70	Blank	AvoidedLoss	True
667.025	1.45	Lose2	0.7042	n/a	Yes	3.023	n/a	5.0	GoodResponse	0	0.019	666.044	11	70	Feedback	AvoidedLoss	True
668.48	3.023	Lose2	0.7042	n/a	Yes	3.023	n/a	n/a	GoodResponse	0	0.0	n/a	11	70	ISIslide	AvoidedLoss	True
671.522	0.25	Win2	0.7082999999999999	0.0	Yes	2.728	0.022	n/a	GoodResponse	1	n/a	n/a	12	71	Cue	Win	True
671.773	4.05	Win2	0.7082999999999999	0.0	Yes	2.728	0.001	n/a	GoodResponse	1	n/a	n/a	12	71	Fixation	Win	True
675.818	0.34	Win2	0.7082999999999999	0.004	Yes	2.728	-0.004	1.0	GoodResponse	1	0.242	675.06	12	71	Target	Win	True
676.06	0.3	Win2	0.7082999999999999	0.004	Yes	2.728	-0.004	1.0	GoodResponse	1	0.242	n/a	12	71	ButtonPress	Win	True
676.17	0.36	Win2	0.7082999999999999	n/a	Yes	2.728	n/a	n/a	GoodResponse	1	n/a	n/a	12	71	Blank	Win	True
676.521	1.45	Win2	0.7082999999999999	n/a	Yes	2.728	n/a	5.0	GoodResponse	1	0.034	675.555	12	71	Feedback	Win	True
677.975	2.728	Win2	0.7082999999999999	n/a	Yes	2.728	n/a	n/a	GoodResponse	1	0.0	n/a	12	71	ISIslide	Win	True
680.716	0.25	Win2	0.7123	0.001	Yes	2.784	0.016	n/a	GoodResponse	1	n/a	n/a	13	72	Cue	Win	True
680.967	4.1	Win2	0.7123	0.0	Yes	2.784	0.001	n/a	GoodResponse	1	n/a	n/a	13	72	Fixation	Win	True
685.063	0.33	Win2	0.7123	0.003	Yes	2.784	-0.003	1.0	GoodResponse	1	0.249	684.312	13	72	Target	Win	True
685.312	0.3	Win2	0.7123	0.003	Yes	2.784	-0.003	1.0	GoodResponse	1	0.249	n/a	13	72	ButtonPress	Win	True
685.397	0.37	Win2	0.7123	n/a	Yes	2.784	n/a	n/a	GoodResponse	1	n/a	n/a	13	72	Blank	Win	True
685.765	1.45	Win2	0.7123	n/a	Yes	2.784	n/a	5.0	GoodResponse	1	0.01	684.775	13	72	Feedback	Win	True
687.219	2.784	Win2	0.7123	n/a	Yes	2.784	n/a	n/a	GoodResponse	1	0.0	n/a	13	72	ISIslide	Win	True
690.028	0.25	Win2	0.7162000000000001	0.0	Yes	2.672	0.028	n/a	GoodResponse	1	n/a	n/a	14	73	Cue	Win	True
690.278	4.0	Win2	0.7162000000000001	0.0	Yes	2.672	0.0	n/a	GoodResponse	1	n/a	n/a	14	73	Fixation	Win	True
694.274	0.32	Win2	0.7162000000000001	0.004	Yes	2.672	-0.004	1.0	GoodResponse	1	0.267	693.541	14	73	Target	Win	True
694.541	0.3	Win2	0.7162000000000001	0.004	Yes	2.672	-0.004	1.0	GoodResponse	1	0.267	n/a	14	73	ButtonPress	Win	True
694.608	0.38	Win2	0.7162000000000001	n/a	Yes	2.672	n/a	n/a	GoodResponse	1	n/a	n/a	14	73	Blank	Win	True
694.976	1.45	Win2	0.7162000000000001	n/a	Yes	2.672	n/a	5.0	GoodResponse	1	0.019	693.995	14	73	Feedback	Win	True
696.43	2.672	Win2	0.7162000000000001	n/a	Yes	2.672	n/a	n/a	GoodResponse	1	0.0	n/a	14	73	ISIslide	Win	True
699.122	0.25	Lose2	0.72	0.0	Yes	2.628	0.022	n/a	GoodResponse	0	n/a	n/a	14	74	Cue	AvoidedLoss	True
699.372	4.05	Lose2	0.72	0.0	Yes	2.628	0.0	n/a	GoodResponse	0	n/a	n/a	14	74	Fixation	AvoidedLoss	True
703.418	0.31	Lose2	0.72	0.004	Yes	2.628	-0.004	1.0	GoodResponse	0	0.245	702.663	14	74	Target	AvoidedLoss	True
703.663	0.3	Lose2	0.72	0.004	Yes	2.628	-0.004	1.0	GoodResponse	0	0.245	n/a	14	74	ButtonPress	AvoidedLoss	True
703.735	0.39	Lose2	0.72	n/a	Yes	2.628	n/a	n/a	GoodResponse	0	n/a	n/a	14	74	Blank	AvoidedLoss	True
704.12	1.45	Lose2	0.72	n/a	Yes	2.628	n/a	5.0	GoodResponse	0	0.045	703.165	14	74	Feedback	AvoidedLoss	True
705.574	2.628	Lose2	0.72	n/a	Yes	2.628	n/a	n/a	GoodResponse	0	0.0	n/a	14	74	ISIslide	AvoidedLoss	True
708.215	0.25	Lose2	0.7237	0.001	Yes	2.935	0.015	n/a	GoodResponse	0	n/a	n/a	14	75	Cue	AvoidedLoss	True
708.466	3.95	Lose2	0.7237	0.0	Yes	2.935	0.001	n/a	GoodResponse	0	n/a	n/a	14	75	Fixation	AvoidedLoss	True
712.411	0.3	Lose2	0.7237	0.004	Yes	2.935	-0.004	1.0	GoodResponse	0	0.226	711.637	14	75	Target	AvoidedLoss	True
712.637	0.3	Lose2	0.7237	0.004	Yes	2.935	-0.004	1.0	GoodResponse	0	0.226	n/a	14	75	ButtonPress	AvoidedLoss	True
712.712	0.4	Lose2	0.7237	n/a	Yes	2.935	n/a	n/a	GoodResponse	0	n/a	n/a	14	75	Blank	AvoidedLoss	True
713.113	1.45	Lose2	0.7237	n/a	Yes	2.935	n/a	5.0	GoodResponse	0	0.028	712.141	14	75	Feedback	AvoidedLoss	True
714.568	2.935	Lose2	0.7237	n/a	Yes	2.935	n/a	n/a	GoodResponse	0	0.0	n/a	14	75	ISIslide	AvoidedLoss	True
717.527	0.25	Control	0.7273000000000001	0.0	Yes	3.223	0.027	n/a	GoodResponse	0	n/a	n/a	14	76	Cue	Neutral	True
717.777	4.05	Control	0.7273000000000001	0.0	Yes	3.223	0.0	n/a	GoodResponse	0	n/a	n/a	14	76	Fixation	Neutral	True
721.823	0.29	Control	0.7273000000000001	0.004	Yes	3.223	-0.004	1.0	GoodResponse	0	0.253	721.076	14	76	Target	Neutral	True
722.076	0.3	Control	0.7273000000000001	0.004	Yes	3.223	-0.004	1.0	GoodResponse	0	0.253	n/a	14	76	ButtonPress	Neutral	True
722.124	0.41	Control	0.7273000000000001	n/a	Yes	3.223	n/a	n/a	GoodResponse	0	n/a	n/a	14	76	Blank	Neutral	True
722.525	1.45	Control	0.7273000000000001	n/a	Yes	3.223	n/a	5.0	GoodResponse	0	0.031	721.556	14	76	Feedback	Neutral	True
723.979	3.223	Control	0.7273000000000001	n/a	Yes	3.223	n/a	n/a	GoodResponse	0	0.0	n/a	14	76	ISIslide	Neutral	True
727.222	0.25	Lose2	0.7179000000000001	0.0	No	2.578	0.022	n/a	NoResponse	-1	n/a	n/a	13	77	Cue	Loss	True
727.473	3.95	Lose2	0.7179000000000001	0.0	No	2.578	0.001	n/a	NoResponse	-1	n/a	n/a	13	77	Fixation	Loss	True
731.418	0.28	Lose2	0.7179000000000001	0.004	No	2.578	-0.004	1.0	NoResponse	-1	0.29	730.708	13	77	Target	Loss	True
731.702	0.42	Lose2	0.7179000000000001	n/a	No	2.578	n/a	n/a	NoResponse	-1	n/a	n/a	13	77	Blank	Loss	True
731.708	0.3	Lose2	0.7179000000000001	0.004	No	2.578	-0.004	1.0	NoResponse	-1	0.29	n/a	13	77	ButtonPress	Loss	True
732.12	1.45	Lose2	0.7179000000000001	n/a	No	2.578	n/a	5.0	NoResponse	-1	0.045	731.165	13	77	Feedback	Loss	True
733.575	2.578	Lose2	0.7179000000000001	n/a	No	2.578	n/a	n/a	NoResponse	-1	0.0	n/a	13	77	ISIslide	Loss	True
