onset	duration	cue_type	current_mean_accuracy	duration_error	is_hit	isi_adjusted	onset_delay	response	response_type	reward	rt	rt_time	total_reward	trial_number	trial_phase	trial_type	one_press
11.102	0.25	Control	1.0	0.0	Yes	2.948	0.002	n/a	GoodResponse	0	n/a	n/a	0	0	Cue	Neutral	True
11.352	3.85	Control	1.0	0.0	Yes	2.948	0.0	n/a	GoodResponse	0	n/a	n/a	0	0	Fixation	Neutral	True
15.2	0.4	Control	1.0	0.002	Yes	2.948	-0.002	2.0	GoodResponse	0	0.226	14.426	0	0	Target	Neutral	True
15.426	0.3	Control	1.0	0.002	Yes	2.948	-0.002	2.0	GoodResponse	0	0.226	n/a	0	0	ButtonPress	Neutral	True
15.6	0.3	Control	1.0	n/a	Yes	2.948	n/a	n/a	GoodResponse	0	n/a	n/a	0	0	Blank	Neutral	True
15.9	1.45	Control	1.0	n/a	Yes	2.948	n/a	5.0	GoodResponse	0	0.03	14.93	0	0	Feedback	Neutral	True
17.35	2.948	Control	1.0	n/a	Yes	2.948	n/a	n/a	GoodResponse	0	0.0	n/a	0	0	ISIslide	Neutral	True
20.332	0.25	Lose2	1.0	0.0	Yes	2.768	0.032	n/a	GoodResponse	0	n/a	n/a	0	1	Cue	AvoidedLoss	True
20.582	4.0	Lose2	1.0	0.0	Yes	2.768	0.0	n/a	GoodResponse	0	n/a	n/a	0	1	Fixation	AvoidedLoss	True
24.581	0.39	Lose2	1.0	0.001	Yes	2.768	-0.001	2.0	GoodResponse	0	0.257	23.838	0	1	Target	AvoidedLoss	True
24.838	0.3	Lose2	1.0	0.001	Yes	2.768	-0.001	2.0	GoodResponse	0	0.257	n/a	0	1	ButtonPress	AvoidedLoss	True
24.98	0.31	Lose2	1.0	n/a	Yes	2.768	n/a	n/a	GoodResponse	0	n/a	n/a	0	1	Blank	AvoidedLoss	True
25.28	1.45	Lose2	1.0	n/a	Yes	2.768	n/a	5.0	GoodResponse	0	0.016	24.296	0	1	Feedback	AvoidedLoss	True
26.73	2.768	Lose2	1.0	n/a	Yes	2.768	n/a	n/a	GoodResponse	0	0.0	n/a	0	1	ISIslide	AvoidedLoss	True
29.529	0.25	Control	1.0	0.0	Yes	2.571	0.029	n/a	GoodResponse	0	n/a	n/a	0	2	Cue	Neutral	True
29.779	4.1	Control	1.0	0.0	Yes	2.571	0.0	n/a	GoodResponse	0	n/a	n/a	0	2	Fixation	Neutral	True
33.877	0.38	Control	1.0	0.002	Yes	2.571	-0.002	2.0	GoodResponse	0	0.187	33.064	0	2	Target	Neutral	True
34.064	0.3	Control	1.0	0.002	Yes	2.571	-0.002	2.0	GoodResponse	0	0.187	n/a	0	2	ButtonPress	Neutral	True
34.261	0.32	Control	1.0	n/a	Yes	2.571	n/a	n/a	GoodResponse	0	n/a	n/a	0	2	Blank	Neutral	True
34.577	1.45	Control	1.0	n/a	Yes	2.571	n/a	5.0	GoodResponse	0	0.035	33.612	0	2	Feedback	Neutral	True
36.027	2.571	Control	1.0	n/a	Yes	2.571	n/a	n/a	GoodResponse	0	0.0	n/a	0	2	ISIslide	Neutral	True
38.626	0.25	Win2	1.0	0.0	Yes	2.824	0.026	n/a	GoodResponse	1	n/a	n/a	1	3	Cue	Win	True
38.876	3.95	Win2	1.0	0.0	Yes	2.824	0.0	n/a	GoodResponse	1	n/a	n/a	1	3	Fixation	Win	True
42.824	0.37	Win2	1.0	0.002	Yes	2.824	-0.002	2.0	GoodResponse	1	0.24	42.064	1	3	Target	Win	True
43.064	0.3	Win2	1.0	0.002	Yes	2.824	-0.002	2.0	GoodResponse	1	0.24	n/a	1	3	ButtonPress	Win	True
43.207	0.33	Win2	1.0	n/a	Yes	2.824	n/a	n/a	GoodResponse	1	n/a	n/a	1	3	Blank	Win	True
43.524	1.45	Win2	1.0	n/a	Yes	2.824	n/a	5.0	GoodResponse	1	0.015	42.539	1	3	Feedback	Win	True
44.974	2.824	Win2	1.0	n/a	Yes	2.824	n/a	n/a	GoodResponse	1	0.0	n/a	1	3	ISIslide	Win	True
47.823	0.25	Win2	1.0	0.0	Yes	3.277	0.023	n/a	GoodResponse	1	n/a	n/a	2	4	Cue	Win	True
48.072	4.0	Win2	1.0	0.001	Yes	3.277	-0.001	n/a	GoodResponse	1	n/a	n/a	2	4	Fixation	Win	True
52.071	0.36	Win2	1.0	0.002	Yes	3.277	-0.002	2.0	GoodResponse	1	0.251	51.322	2	4	Target	Win	True
52.322	0.3	Win2	1.0	0.002	Yes	3.277	-0.002	2.0	GoodResponse	1	0.251	n/a	2	4	ButtonPress	Win	True
52.438	0.34	Win2	1.0	n/a	Yes	3.277	n/a	n/a	GoodResponse	1	n/a	n/a	2	4	Blank	Win	True
52.771	1.45	Win2	1.0	n/a	Yes	3.277	n/a	5.0	GoodResponse	1	0.036	51.807	2	4	Feedback	Win	True
54.22	3.277	Win2	1.0	n/a	Yes	3.277	n/a	n/a	GoodResponse	1	0.0	n/a	2	4	ISIslide	Win	True
57.519	0.25	Win2	1.0	0.0	Yes	2.781	0.019	n/a	GoodResponse	1	n/a	n/a	3	5	Cue	Win	True
57.769	4.0	Win2	1.0	0.0	Yes	2.781	0.0	n/a	GoodResponse	1	n/a	n/a	3	5	Fixation	Win	True
61.768	0.35	Win2	1.0	0.001	Yes	2.781	-0.001	2.0	GoodResponse	1	0.287	61.055	3	5	Target	Win	True
62.055	0.3	Win2	1.0	0.001	Yes	2.781	-0.001	2.0	GoodResponse	1	0.287	n/a	3	5	ButtonPress	Win	True
62.118	0.35	Win2	1.0	n/a	Yes	2.781	n/a	n/a	GoodResponse	1	n/a	n/a	3	5	Blank	Win	True
62.467	1.45	Win2	1.0	n/a	Yes	2.781	n/a	5.0	GoodResponse	1	0.048	61.515	3	5	Feedback	Win	True
63.917	2.781	Win2	1.0	n/a	Yes	2.781	n/a	n/a	GoodResponse	1	0.0	n/a	3	5	ISIslide	Win	True
66.716	0.25	Lose2	1.0	0.0	Yes	2.734	0.016	n/a	GoodResponse	0	n/a	n/a	3	6	Cue	AvoidedLoss	True
66.966	3.95	Lose2	1.0	0.0	Yes	2.734	0.0	n/a	GoodResponse	0	n/a	n/a	3	6	Fixation	AvoidedLoss	True
70.915	0.34	Lose2	1.0	0.001	Yes	2.734	-0.001	2.0	GoodResponse	0	0.244	70.159	3	6	Target	AvoidedLoss	True
71.159	0.3	Lose2	1.0	0.001	Yes	2.734	-0.001	2.0	GoodResponse	0	0.244	n/a	3	6	ButtonPress	AvoidedLoss	True
71.264	0.36	Lose2	1.0	n/a	Yes	2.734	n/a	n/a	GoodResponse	0	n/a	n/a	3	6	Blank	AvoidedLoss	True
71.614	1.45	Lose2	1.0	n/a	Yes	2.734	n/a	5.0	GoodResponse	0	0.023	70.637	3	6	Feedback	AvoidedLoss	True
73.064	2.734	Lose2	1.0	n/a	Yes	2.734	n/a	n/a	GoodResponse	0	0.0	n/a	3	6	ISIslide	AvoidedLoss	True
75.83	0.25	Lose2	1.0	0.0	Yes	4.02	0.03	n/a	GoodResponse	0	n/a	n/a	3	7	Cue	AvoidedLoss	True
76.079	4.05	Lose2	1.0	0.001	Yes	4.02	-0.001	n/a	GoodResponse	0	n/a	n/a	3	7	Fixation	AvoidedLoss	True
80.128	0.33	Lose2	1.0	0.002	Yes	4.02	-0.002	2.0	GoodResponse	0	0.253	79.381	3	7	Target	AvoidedLoss	True
80.381	0.3	Lose2	1.0	0.002	Yes	4.02	-0.002	2.0	GoodResponse	0	0.253	n/a	3	7	ButtonPress	AvoidedLoss	True
80.461	0.37	Lose2	1.0	n/a	Yes	4.02	n/a	n/a	GoodResponse	0	n/a	n/a	3	7	Blank	AvoidedLoss	True
80.828	1.45	Lose2	1.0	n/a	Yes	4.02	n/a	5.0	GoodResponse	0	0.029	79.857	3	7	Feedback	AvoidedLoss	True
82.277	4.02	Lose2	1.0	n/a	Yes	4.02	n/a	n/a	GoodResponse	0	0.0	n/a	3	7	ISIslide	AvoidedLoss	True
86.326	0.25	Lose2	1.0	0.0	Yes	3.024	0.026	n/a	GoodResponse	0	n/a	n/a	3	8	Cue	AvoidedLoss	True
86.576	3.95	Lose2	1.0	0.0	Yes	3.024	0.0	n/a	GoodResponse	0	n/a	n/a	3	8	Fixation	AvoidedLoss	True
90.524	0.32	Lose2	1.0	0.002	Yes	3.024	-0.002	2.0	GoodResponse	0	0.271	89.795	3	8	Target	AvoidedLoss	True
90.795	0.3	Lose2	1.0	0.002	Yes	3.024	-0.002	2.0	GoodResponse	0	0.271	n/a	3	8	ButtonPress	AvoidedLoss	True
90.858	0.38	Lose2	1.0	n/a	Yes	3.024	n/a	n/a	GoodResponse	0	n/a	n/a	3	8	Blank	AvoidedLoss	True
91.224	1.45	Lose2	1.0	n/a	Yes	3.024	n/a	5.0	GoodResponse	0	0.023	90.247	3	8	Feedback	AvoidedLoss	True
92.674	3.024	Lose2	1.0	n/a	Yes	3.024	n/a	n/a	GoodResponse	0	0.0	n/a	3	8	ISIslide	AvoidedLoss	True
95.723	0.25	Lose2	1.0	0.0	Yes	3.127	0.023	n/a	GoodResponse	0	n/a	n/a	3	9	Cue	AvoidedLoss	True
95.973	3.95	Lose2	1.0	0.0	Yes	3.127	0.0	n/a	GoodResponse	0	n/a	n/a	3	9	Fixation	AvoidedLoss	True
99.921	0.31	Lose2	1.0	0.002	Yes	3.127	-0.002	2.0	GoodResponse	0	0.253	99.174	3	9	Target	AvoidedLoss	True
100.174	0.3	Lose2	1.0	0.002	Yes	3.127	-0.002	2.0	GoodResponse	0	0.253	n/a	3	9	ButtonPress	AvoidedLoss	True
100.238	0.39	Lose2	1.0	n/a	Yes	3.127	n/a	n/a	GoodResponse	0	n/a	n/a	3	9	Blank	AvoidedLoss	True
100.621	1.45	Lose2	1.0	n/a	Yes	3.127	n/a	5.0	GoodResponse	0	0.04	99.661	3	9	Feedback	AvoidedLoss	True
102.07	3.127	Lose2	1.0	n/a	Yes	3.127	n/a	n/a	GoodResponse	0	0.0	n/a	3	9	ISIslide	AvoidedLoss	True
105.219	0.25	Control	1.0	0.0	Yes	3.281	0.019	n/a	GoodResponse	0	n/a	n/a	3	10	Cue	Neutral	True
105.469	4.0	Control	1.0	0.0	Yes	3.281	0.0	n/a	GoodResponse	0	n/a	n/a	3	10	Fixation	Neutral	True
109.468	0.3	Control	1.0	0.001	Yes	3.281	-0.001	2.0	GoodResponse	0	0.258	108.726	3	10	Target	Neutral	True
109.726	0.3	Control	1.0	0.001	Yes	3.281	-0.001	2.0	GoodResponse	0	0.258	n/a	3	10	ButtonPress	Neutral	True
109.768	0.4	Control	1.0	n/a	Yes	3.281	n/a	n/a	GoodResponse	0	n/a	n/a	3	10	Blank	Neutral	True
110.168	1.45	Control	1.0	n/a	Yes	3.281	n/a	5.0	GoodResponse	0	0.005	109.173	3	10	Feedback	Neutral	True
111.617	3.281	Control	1.0	n/a	Yes	3.281	n/a	n/a	GoodResponse	0	0.0	n/a	3	10	ISIslide	Neutral	True
114.916	0.25	Lose2	1.0	0.0	Yes	2.734	0.016	n/a	GoodResponse	0	n/a	n/a	3	11	Cue	AvoidedLoss	True
115.166	4.05	Lose2	1.0	0.0	Yes	2.734	0.0	n/a	GoodResponse	0	n/a	n/a	3	11	Fixation	AvoidedLoss	True
119.215	0.29	Lose2	1.0	0.001	Yes	2.734	-0.001	2.0	GoodResponse	0	0.268	118.483	3	11	Target	AvoidedLoss	True
119.483	0.3	Lose2	1.0	0.001	Yes	2.734	-0.001	2.0	GoodResponse	0	0.268	n/a	3	11	ButtonPress	AvoidedLoss	True
119.514	0.41	Lose2	1.0	n/a	Yes	2.734	n/a	n/a	GoodResponse	0	n/a	n/a	3	11	Blank	AvoidedLoss	True
119.914	1.45	Lose2	1.0	n/a	Yes	2.734	n/a	5.0	GoodResponse	0	0.015	118.929	3	11	Feedback	AvoidedLoss	True
121.364	2.734	Lose2	1.0	n/a	Yes	2.734	n/a	n/a	GoodResponse	0	0.0	n/a	3	11	ISIslide	AvoidedLoss	True
124.113	0.25	Control	0.9231	0.0	No	2.987	0.013	n/a	NoResponse	0	n/a	n/a	3	12	Cue	Neutral	True
124.363	3.9	Control	0.9231	0.0	No	2.987	0.0	n/a	NoResponse	0	n/a	n/a	3	12	Fixation	Neutral	True
128.261	0.28	Control	0.9231	0.002	No	2.987	-0.002	2.0	NoResponse	0	0.309	127.57	3	12	Target	Neutral	True
128.545	0.42	Control	0.9231	n/a	No	2.987	n/a	n/a	NoResponse	0	n/a	n/a	3	12	Blank	Neutral	True
128.57	0.3	Control	0.9231	0.002	No	2.987	-0.002	2.0	NoResponse	0	0.309	n/a	3	12	ButtonPress	Neutral	True
128.961	1.45	Control	0.9231	n/a	No	2.987	n/a	5.0	NoResponse	0	0.041	128.002	3	12	Feedback	Neutral	True
130.411	2.987	Control	0.9231	n/a	No	2.987	n/a	n/a	NoResponse	0	0.0	n/a	3	12	ISIslide	Neutral	True
133.426	0.25	Control	0.9286	0.0	Yes	2.774	0.026	n/a	GoodResponse	0	n/a	n/a	3	13	Cue	Neutral	True
133.676	4.0	Control	0.9286	0.0	Yes	2.774	0.0	n/a	GoodResponse	0	n/a	n/a	3	13	Fixation	Neutral	True
137.675	0.27	Control	0.9286	0.001	Yes	2.774	-0.001	2.0	GoodResponse	0	0.235	136.91	3	13	Target	Neutral	True
137.91	0.3	Control	0.9286	0.001	Yes	2.774	-0.001	2.0	GoodResponse	0	0.235	n/a	3	13	ButtonPress	Neutral	True
137.941	0.43	Control	0.9286	n/a	Yes	2.774	n/a	n/a	GoodResponse	0	n/a	n/a	3	13	Blank	Neutral	True
138.375	1.45	Control	0.9286	n/a	Yes	2.774	n/a	5.0	GoodResponse	0	0.042	137.417	3	13	Feedback	Neutral	True
139.824	2.774	Control	0.9286	n/a	Yes	2.774	n/a	n/a	GoodResponse	0	0.0	n/a	3	13	ISIslide	Neutral	True
142.623	0.25	Win2	0.9333	0.0	Yes	2.677	0.023	n/a	GoodResponse	1	n/a	n/a	4	14	Cue	Win	True
142.873	4.1	Win2	0.9333	0.0	Yes	2.677	0.0	n/a	GoodResponse	1	n/a	n/a	4	14	Fixation	Win	True
146.972	0.26	Win2	0.9333	0.001	Yes	2.677	-0.001	2.0	GoodResponse	1	0.25	146.222	4	14	Target	Win	True
147.222	0.3	Win2	0.9333	0.001	Yes	2.677	-0.001	2.0	GoodResponse	1	0.25	n/a	4	14	ButtonPress	Win	True
147.238	0.44	Win2	0.9333	n/a	Yes	2.677	n/a	n/a	GoodResponse	1	n/a	n/a	4	14	Blank	Win	True
147.671	1.45	Win2	0.9333	n/a	Yes	2.677	n/a	5.0	GoodResponse	1	0.015	146.686	4	14	Feedback	Win	True
149.121	2.677	Win2	0.9333	n/a	Yes	2.677	n/a	n/a	GoodResponse	1	0.0	n/a	4	14	ISIslide	Win	True
151.82	0.25	Control	0.875	0.0	No	2.98	0.02	n/a	NoResponse	0	n/a	n/a	4	15	Cue	Neutral	True
152.07	4.0	Control	0.875	0.0	No	2.98	0.0	n/a	NoResponse	0	n/a	n/a	4	15	Fixation	Neutral	True
156.068	0.25	Control	0.875	0.002	No	2.98	-0.002	2.0	NoResponse	0	0.384	155.452	4	15	Target	Neutral	True
156.318	0.45	Control	0.875	n/a	No	2.98	n/a	n/a	NoResponse	0	n/a	n/a	4	15	Blank	Neutral	True
156.452	0.3	Control	0.875	0.002	No	2.98	-0.002	2.0	NoResponse	0	0.384	n/a	4	15	ButtonPress	Neutral	True
156.768	1.45	Control	0.875	n/a	No	2.98	n/a	5.0	NoResponse	0	0.039	155.807	4	15	Feedback	Neutral	True
158.218	2.98	Control	0.875	n/a	No	2.98	n/a	n/a	NoResponse	0	0.0	n/a	4	15	ISIslide	Neutral	True
161.217	0.25	Win2	0.8824	0.0	Yes	2.883	0.017	n/a	GoodResponse	1	n/a	n/a	5	16	Cue	Win	True
161.467	4.0	Win2	0.8824	0.0	Yes	2.883	0.0	n/a	GoodResponse	1	n/a	n/a	5	16	Fixation	Win	True
165.465	0.24	Win2	0.8824	0.002	Yes	2.883	-0.002	2.0	GoodResponse	1	0.191	164.656	5	16	Target	Win	True
165.656	0.3	Win2	0.8824	0.002	Yes	2.883	-0.002	2.0	GoodResponse	1	0.191	n/a	5	16	ButtonPress	Win	True
165.715	0.46	Win2	0.8824	n/a	Yes	2.883	n/a	n/a	GoodResponse	1	n/a	n/a	5	16	Blank	Win	True
166.165	1.45	Win2	0.8824	n/a	Yes	2.883	n/a	5.0	GoodResponse	1	0.008	165.173	5	16	Feedback	Win	True
167.614	2.883	Win2	0.8824	n/a	Yes	2.883	n/a	n/a	GoodResponse	1	0.0	n/a	5	16	ISIslide	Win	True
170.53	0.25	Lose2	0.8332999999999999	0.0	No	2.72	0.03	n/a	NoResponse	-1	n/a	n/a	4	17	Cue	Loss	True
170.78	3.95	Lose2	0.8332999999999999	0.0	No	2.72	0.0	n/a	NoResponse	-1	n/a	n/a	4	17	Fixation	Loss	True
174.729	0.23	Lose2	0.8332999999999999	0.001	No	2.72	-0.001	2.0	NoResponse	-1	0.392	174.121	4	17	Target	Loss	True
174.962	0.47	Lose2	0.8332999999999999	n/a	No	2.72	n/a	n/a	NoResponse	-1	n/a	n/a	4	17	Blank	Loss	True
175.121	0.3	Lose2	0.8332999999999999	0.001	No	2.72	-0.001	2.0	NoResponse	-1	0.392	n/a	4	17	ButtonPress	Loss	True
175.428	1.45	Lose2	0.8332999999999999	n/a	No	2.72	n/a	5.0	NoResponse	-1	0.013	174.441	4	17	Feedback	Loss	True
176.878	2.72	Lose2	0.8332999999999999	n/a	No	2.72	n/a	n/a	NoResponse	-1	0.0	n/a	4	17	ISIslide	Loss	True
179.627	0.25	Lose2	0.7895	0.0	No	2.723	0.027	n/a	LatePress	-1	n/a	n/a	3	18	Cue	Loss	True
179.877	4.05	Lose2	0.7895	0.0	No	2.723	0.0	n/a	LatePress	-1	n/a	n/a	3	18	Fixation	Loss	True
183.925	0.22	Lose2	0.7895	0.002	No	2.723	-0.002	2.0	LatePress	-1	0.23	183.155	3	18	Target	Loss	True
184.155	0.3	Lose2	0.7895	0.002	No	2.723	-0.002	2.0	LatePress	-1	0.23	n/a	3	18	ButtonPress	Loss	True
184.159	0.48	Lose2	0.7895	n/a	No	2.723	n/a	n/a	LatePress	-1	n/a	n/a	3	18	Blank	Loss	True
184.625	1.45	Lose2	0.7895	n/a	No	2.723	n/a	5.0	LatePress	-1	0.036	183.661	3	18	Feedback	Loss	True
186.075	2.723	Lose2	0.7895	n/a	No	2.723	n/a	n/a	LatePress	-1	0.0	n/a	3	18	ISIslide	Loss	True
188.824	0.25	Control	0.8	0.0	Yes	2.926	0.024	n/a	GoodResponse	0	n/a	n/a	3	19	Cue	Neutral	True
189.074	3.95	Control	0.8	0.0	Yes	2.926	0.0	n/a	GoodResponse	0	n/a	n/a	3	19	Fixation	Neutral	True
193.022	0.21	Control	0.8	0.002	Yes	2.926	-0.002	2.0	GoodResponse	0	0.202	192.224	3	19	Target	Neutral	True
193.224	0.3	Control	0.8	0.002	Yes	2.926	-0.002	2.0	GoodResponse	0	0.202	n/a	3	19	ButtonPress	Neutral	True
193.239	0.49	Control	0.8	n/a	Yes	2.926	n/a	n/a	GoodResponse	0	n/a	n/a	3	19	Blank	Neutral	True
193.722	1.45	Control	0.8	n/a	Yes	2.926	n/a	5.0	GoodResponse	0	0.012	192.734	3	19	Feedback	Neutral	True
195.172	2.926	Control	0.8	n/a	Yes	2.926	n/a	n/a	GoodResponse	0	0.0	n/a	3	19	ISIslide	Neutral	True
198.121	0.25	Control	0.7619	0.0	No	2.629	0.021	n/a	NoResponse	0	n/a	n/a	3	20	Cue	Neutral	True
198.37	4.05	Control	0.7619	0.001	No	2.629	-0.001	2.0	NoResponse	0	3.711	201.081	3	20	Fixation	Neutral	True
202.081	0.3	Control	0.7619	0.001	No	2.629	-0.001	2.0	NoResponse	0	3.711	n/a	3	20	ButtonPress	Neutral	True
202.419	0.2	Control	0.7619	0.002	No	2.629	-0.002	n/a	NoResponse	0	n/a	n/a	3	20	Target	Neutral	True
202.619	0.5	Control	0.7619	n/a	No	2.629	n/a	n/a	NoResponse	0	n/a	n/a	3	20	Blank	Neutral	True
203.119	1.45	Control	0.7619	n/a	No	2.629	n/a	5.0	NoResponse	0	0.03	202.149	3	20	Feedback	Neutral	True
204.568	2.629	Control	0.7619	n/a	No	2.629	n/a	n/a	NoResponse	0	0.0	n/a	3	20	ISIslide	Neutral	True
207.217	0.25	Control	0.7273000000000001	0.0	No	2.783	0.017	n/a	NoResponse	0	n/a	n/a	3	21	Cue	Neutral	True
207.467	4.1	Control	0.7273000000000001	0.0	No	2.783	0.0	n/a	NoResponse	0	n/a	n/a	3	21	Fixation	Neutral	True
211.566	0.19	Control	0.7273000000000001	0.001	No	2.783	-0.001	2.0	NoResponse	0	0.268	210.834	3	21	Target	Neutral	True
211.766	0.51	Control	0.7273000000000001	n/a	No	2.783	n/a	n/a	NoResponse	0	n/a	n/a	3	21	Blank	Neutral	True
211.834	0.3	Control	0.7273000000000001	0.001	No	2.783	-0.001	2.0	NoResponse	0	0.268	n/a	3	21	ButtonPress	Neutral	True
212.266	1.45	Control	0.7273000000000001	n/a	No	2.783	n/a	5.0	NoResponse	0	0.007	211.273	3	21	Feedback	Neutral	True
213.715	2.783	Control	0.7273000000000001	n/a	No	2.783	n/a	n/a	NoResponse	0	0.0	n/a	3	21	ISIslide	Neutral	True
216.514	0.25	Control	0.6957	0.0	No	2.786	0.014	n/a	NoResponse	0	n/a	n/a	3	22	Cue	Neutral	True
216.764	4.0	Control	0.6957	0.0	No	2.786	0.0	n/a	NoResponse	0	n/a	n/a	3	22	Fixation	Neutral	True
220.763	0.18	Control	0.6957	0.001	No	2.786	-0.001	2.0	NoResponse	0	0.318	220.081	3	22	Target	Neutral	True
220.946	0.52	Control	0.6957	n/a	No	2.786	n/a	n/a	NoResponse	0	n/a	n/a	3	22	Blank	Neutral	True
221.081	0.3	Control	0.6957	0.001	No	2.786	-0.001	2.0	NoResponse	0	0.318	n/a	3	22	ButtonPress	Neutral	True
221.462	1.45	Control	0.6957	n/a	No	2.786	n/a	5.0	NoResponse	0	0.027	220.489	3	22	Feedback	Neutral	True
222.912	2.786	Control	0.6957	n/a	No	2.786	n/a	n/a	NoResponse	0	0.0	n/a	3	22	ISIslide	Neutral	True
225.728	0.25	Control	0.6667000000000001	0.0	No	2.772	0.028	n/a	NoResponse	0	n/a	n/a	3	23	Cue	Neutral	True
225.978	3.9	Control	0.6667000000000001	0.0	No	2.772	0.0	n/a	NoResponse	0	n/a	n/a	3	23	Fixation	Neutral	True
229.876	0.17	Control	0.6667000000000001	0.002	No	2.772	-0.002	2.0	NoResponse	0	0.233	229.109	3	23	Target	Neutral	True
230.06	0.53	Control	0.6667000000000001	n/a	No	2.772	n/a	n/a	NoResponse	0	n/a	n/a	3	23	Blank	Neutral	True
230.109	0.3	Control	0.6667000000000001	0.002	No	2.772	-0.002	2.0	NoResponse	0	0.233	n/a	3	23	ButtonPress	Neutral	True
230.576	1.45	Control	0.6667000000000001	n/a	No	2.772	n/a	5.0	NoResponse	0	0.036	229.612	3	23	Feedback	Neutral	True
232.026	2.772	Control	0.6667000000000001	n/a	No	2.772	n/a	n/a	NoResponse	0	0.0	n/a	3	23	ISIslide	Neutral	True
234.825	0.25	Win2	0.64	0.0	No	3.125	0.025	n/a	NoResponse	0	n/a	n/a	3	24	Cue	MissedWin	True
235.074	3.95	Win2	0.64	0.001	No	3.125	-0.001	n/a	NoResponse	0	n/a	n/a	3	24	Fixation	MissedWin	True
239.023	0.16	Win2	0.64	0.002	No	3.125	-0.002	2.0	NoResponse	0	0.218	238.241	3	24	Target	MissedWin	True
239.19	0.54	Win2	0.64	n/a	No	3.125	n/a	n/a	NoResponse	0	n/a	n/a	3	24	Blank	MissedWin	True
239.241	0.3	Win2	0.64	0.002	No	3.125	-0.002	2.0	NoResponse	0	0.218	n/a	3	24	ButtonPress	MissedWin	True
239.723	1.45	Win2	0.64	n/a	No	3.125	n/a	5.0	NoResponse	0	0.011	238.734	3	24	Feedback	MissedWin	True
241.172	3.125	Win2	0.64	n/a	No	3.125	n/a	n/a	NoResponse	0	0.0	n/a	3	24	ISIslide	MissedWin	True
244.321	0.25	Win2	0.6154	0.0	No	3.079	0.021	n/a	NoResponse	0	n/a	n/a	3	25	Cue	MissedWin	True
244.571	4.0	Win2	0.6154	0.0	No	3.079	0.0	n/a	NoResponse	0	n/a	n/a	3	25	Fixation	MissedWin	True
248.57	0.17	Win2	0.6154	0.001	No	3.079	-0.001	2.0	NoResponse	0	0.199	247.769	3	25	Target	MissedWin	True
248.736	0.53	Win2	0.6154	n/a	No	3.079	n/a	n/a	NoResponse	0	n/a	n/a	3	25	Blank	MissedWin	True
248.769	0.3	Win2	0.6154	0.001	No	3.079	-0.001	2.0	NoResponse	0	0.199	n/a	3	25	ButtonPress	MissedWin	True
249.27	1.45	Win2	0.6154	n/a	No	3.079	n/a	5.0	NoResponse	0	0.025	248.295	3	25	Feedback	MissedWin	True
250.719	3.079	Win2	0.6154	n/a	No	3.079	n/a	n/a	NoResponse	0	0.0	n/a	3	25	ISIslide	MissedWin	True
253.818	0.25	Win2	0.5926	0.0	No	2.932	0.018	n/a	NoResponse	0	n/a	n/a	3	26	Cue	MissedWin	True
254.068	3.95	Win2	0.5926	0.0	No	2.932	0.0	n/a	NoResponse	0	n/a	n/a	3	26	Fixation	MissedWin	True
258.017	0.18	Win2	0.5926	0.001	No	2.932	-0.001	2.0	NoResponse	0	0.241	257.258	3	26	Target	MissedWin	True
258.2	0.52	Win2	0.5926	n/a	No	2.932	n/a	n/a	NoResponse	0	n/a	n/a	3	26	Blank	MissedWin	True
258.258	0.3	Win2	0.5926	0.001	No	2.932	-0.001	2.0	NoResponse	0	0.241	n/a	3	26	ButtonPress	MissedWin	True
258.716	1.45	Win2	0.5926	n/a	No	2.932	n/a	5.0	NoResponse	0	0.042	257.758	3	26	Feedback	MissedWin	True
260.166	2.932	Win2	0.5926	n/a	No	2.932	n/a	n/a	NoResponse	0	0.0	n/a	3	26	ISIslide	MissedWin	True
263.115	0.25	Lose2	0.5714	0.0	No	2.835	0.015	n/a	NoResponse	-1	n/a	n/a	2	27	Cue	Loss	False
263.365	4.05	Lose2	0.5714	0.0	No	2.835	0.0	n/a	NoResponse	-1	n/a	n/a	2	27	Fixation	Loss	False
267.413	0.19	Lose2	0.5714	0.002	No	2.835	-0.002	n/a	NoResponse	-1	n/a	n/a	2	27	Target	Loss	False
267.613	0.51	Lose2	0.5714	n/a	No	2.835	n/a	n/a	NoResponse	-1	n/a	n/a	2	27	Blank	Loss	False
268.113	1.45	Lose2	0.5714	n/a	No	2.835	n/a	5.0	NoResponse	-1	0.01	267.123	2	27	Feedback	Loss	False
269.563	2.835	Lose2	0.5714	n/a	No	2.835	n/a	n/a	NoResponse	-1	0.0	n/a	2	27	ISIslide	Loss	False
272.428	0.25	Control	0.5517	0.0	No	2.822	0.028	n/a	NoResponse	0	n/a	n/a	2	28	Cue	Neutral	True
272.678	4.05	Control	0.5517	0.0	No	2.822	0.0	n/a	NoResponse	0	n/a	n/a	2	28	Fixation	Neutral	True
276.727	0.2	Control	0.5517	0.001	No	2.822	-0.001	2.0	NoResponse	0	0.275	276.002	2	28	Target	Neutral	True
276.927	0.5	Control	0.5517	n/a	No	2.822	n/a	n/a	NoResponse	0	n/a	n/a	2	28	Blank	Neutral	True
277.002	0.3	Control	0.5517	0.001	No	2.822	-0.001	2.0	NoResponse	0	0.275	n/a	2	28	ButtonPress	Neutral	True
277.426	1.45	Control	0.5517	n/a	No	2.822	n/a	5.0	NoResponse	0	0.014	276.44	2	28	Feedback	Neutral	True
278.876	2.822	Control	0.5517	n/a	No	2.822	n/a	n/a	NoResponse	0	0.0	n/a	2	28	ISIslide	Neutral	True
281.725	0.25	Lose2	0.5333	0.0	No	2.825	0.025	n/a	NoResponse	-1	n/a	n/a	1	29	Cue	Loss	True
281.975	3.95	Lose2	0.5333	0.0	No	2.825	0.0	n/a	NoResponse	-1	n/a	n/a	1	29	Fixation	Loss	True
285.924	0.21	Lose2	0.5333	0.001	No	2.825	-0.001	2.0	NoResponse	-1	0.217	285.141	1	29	Target	Loss	True
286.14	0.49	Lose2	0.5333	n/a	No	2.825	n/a	n/a	NoResponse	-1	n/a	n/a	1	29	Blank	Loss	True
286.141	0.3	Lose2	0.5333	0.001	No	2.825	-0.001	2.0	NoResponse	-1	0.217	n/a	1	29	ButtonPress	Loss	True
286.623	1.45	Lose2	0.5333	n/a	No	2.825	n/a	5.0	NoResponse	-1	0.037	285.66	1	29	Feedback	Loss	True
288.073	2.825	Lose2	0.5333	n/a	No	2.825	n/a	n/a	NoResponse	-1	0.0	n/a	1	29	ISIslide	Loss	True
290.922	0.25	Win2	0.5161	0.0	No	2.778	0.022	n/a	NoResponse	0	n/a	n/a	1	30	Cue	MissedWin	True
291.172	3.9	Win2	0.5161	0.0	No	2.778	0.0	n/a	NoResponse	0	n/a	n/a	1	30	Fixation	MissedWin	True
295.07	0.22	Win2	0.5161	0.002	No	2.778	-0.002	2.0	NoResponse	0	0.263	294.333	1	30	Target	MissedWin	True
295.304	0.48	Win2	0.5161	n/a	No	2.778	n/a	n/a	NoResponse	0	n/a	n/a	1	30	Blank	MissedWin	True
295.333	0.3	Win2	0.5161	0.002	No	2.778	-0.002	2.0	NoResponse	0	0.263	n/a	1	30	ButtonPress	MissedWin	True
295.77	1.45	Win2	0.5161	n/a	No	2.778	n/a	5.0	NoResponse	0	0.012	294.782	1	30	Feedback	MissedWin	True
297.22	2.778	Win2	0.5161	n/a	No	2.778	n/a	n/a	NoResponse	0	0.0	n/a	1	30	ISIslide	MissedWin	True
300.019	0.25	Lose2	0.5312	0.0	Yes	2.831	0.019	n/a	GoodResponse	0	n/a	n/a	1	31	Cue	AvoidedLoss	True
300.269	4.05	Lose2	0.5312	0.0	Yes	2.831	0.0	n/a	GoodResponse	0	n/a	n/a	1	31	Fixation	AvoidedLoss	True
304.317	0.23	Lose2	0.5312	0.002	Yes	2.831	-0.002	2.0	GoodResponse	0	0.22	303.537	1	31	Target	AvoidedLoss	True
304.537	0.3	Lose2	0.5312	0.002	Yes	2.831	-0.002	2.0	GoodResponse	0	0.22	n/a	1	31	ButtonPress	AvoidedLoss	True
304.55	0.47	Lose2	0.5312	n/a	Yes	2.831	n/a	n/a	GoodResponse	0	n/a	n/a	1	31	Blank	AvoidedLoss	True
305.017	1.45	Lose2	0.5312	n/a	Yes	2.831	n/a	5.0	GoodResponse	0	0.034	304.051	1	31	Feedback	AvoidedLoss	True
306.466	2.831	Lose2	0.5312	n/a	Yes	2.831	n/a	n/a	GoodResponse	0	0.0	n/a	1	31	ISIslide	AvoidedLoss	True
309.315	0.25	Lose2	0.5455	0.001	Yes	2.635	0.015	n/a	GoodResponse	0	n/a	n/a	1	32	Cue	AvoidedLoss	True
309.565	4.15	Lose2	0.5455	0.0	Yes	2.635	0.0	n/a	GoodResponse	0	n/a	n/a	1	32	Fixation	AvoidedLoss	True
313.714	0.24	Lose2	0.5455	0.001	Yes	2.635	-0.001	2.0	GoodResponse	0	0.216	312.93	1	32	Target	AvoidedLoss	True
313.93	0.3	Lose2	0.5455	0.001	Yes	2.635	-0.001	2.0	GoodResponse	0	0.216	n/a	1	32	ButtonPress	AvoidedLoss	True
313.964	0.46	Lose2	0.5455	n/a	Yes	2.635	n/a	n/a	GoodResponse	0	n/a	n/a	1	32	Blank	AvoidedLoss	True
314.414	1.45	Lose2	0.5455	n/a	Yes	2.635	n/a	5.0	GoodResponse	0	0.007	313.421	1	32	Feedback	AvoidedLoss	True
315.863	2.635	Lose2	0.5455	n/a	Yes	2.635	n/a	n/a	GoodResponse	0	0.0	n/a	1	32	ISIslide	AvoidedLoss	True
318.529	0.25	Win2	0.5294	0.0	No	2.671	0.029	n/a	NoResponse	0	n/a	n/a	1	33	Cue	MissedWin	True
318.779	4.0	Win2	0.5294	0.0	No	2.671	0.0	n/a	NoResponse	0	n/a	n/a	1	33	Fixation	MissedWin	True
322.777	0.25	Win2	0.5294	0.002	No	2.671	-0.002	2.0	NoResponse	0	0.295	322.072	1	33	Target	MissedWin	True
323.027	0.45	Win2	0.5294	n/a	No	2.671	n/a	n/a	NoResponse	0	n/a	n/a	1	33	Blank	MissedWin	True
323.072	0.3	Win2	0.5294	0.002	No	2.671	-0.002	2.0	NoResponse	0	0.295	n/a	1	33	ButtonPress	MissedWin	True
323.477	1.45	Win2	0.5294	n/a	No	2.671	n/a	5.0	NoResponse	0	0.013	322.49	1	33	Feedback	MissedWin	True
324.927	2.671	Win2	0.5294	n/a	No	2.671	n/a	n/a	NoResponse	0	0.0	n/a	1	33	ISIslide	MissedWin	True
327.626	0.25	Lose2	0.5428999999999999	0.0	Yes	2.624	0.026	n/a	GoodResponse	0	n/a	n/a	1	34	Cue	AvoidedLoss	True
327.876	4.05	Lose2	0.5428999999999999	0.0	Yes	2.624	0.0	n/a	GoodResponse	0	n/a	n/a	1	34	Fixation	AvoidedLoss	True
331.924	0.26	Lose2	0.5428999999999999	0.002	Yes	2.624	-0.002	2.0	GoodResponse	0	0.223	331.147	1	34	Target	AvoidedLoss	True
332.147	0.3	Lose2	0.5428999999999999	0.002	Yes	2.624	-0.002	2.0	GoodResponse	0	0.223	n/a	1	34	ButtonPress	AvoidedLoss	True
332.191	0.44	Lose2	0.5428999999999999	n/a	Yes	2.624	n/a	n/a	GoodResponse	0	n/a	n/a	1	34	Blank	AvoidedLoss	True
332.624	1.45	Lose2	0.5428999999999999	n/a	Yes	2.624	n/a	5.0	GoodResponse	0	0.036	331.66	1	34	Feedback	AvoidedLoss	True
334.074	2.624	Lose2	0.5428999999999999	n/a	Yes	2.624	n/a	n/a	GoodResponse	0	0.0	n/a	1	34	ISIslide	AvoidedLoss	True
336.723	0.25	Lose2	0.5556	0.0	Yes	2.677	0.023	n/a	GoodResponse	0	n/a	n/a	1	35	Cue	AvoidedLoss	True
336.973	4.0	Lose2	0.5556	0.0	Yes	2.677	0.0	n/a	GoodResponse	0	n/a	n/a	1	35	Fixation	AvoidedLoss	True
340.971	0.27	Lose2	0.5556	0.002	Yes	2.677	-0.002	2.0	GoodResponse	0	0.192	340.163	1	35	Target	AvoidedLoss	True
341.163	0.3	Lose2	0.5556	0.002	Yes	2.677	-0.002	2.0	GoodResponse	0	0.192	n/a	1	35	ButtonPress	AvoidedLoss	True
341.254	0.43	Lose2	0.5556	n/a	Yes	2.677	n/a	n/a	GoodResponse	0	n/a	n/a	1	35	Blank	AvoidedLoss	True
341.671	1.45	Lose2	0.5556	n/a	Yes	2.677	n/a	5.0	GoodResponse	0	0.013	340.684	1	35	Feedback	AvoidedLoss	True
343.12	2.677	Lose2	0.5556	n/a	Yes	2.677	n/a	n/a	GoodResponse	0	0.0	n/a	1	35	ISIslide	AvoidedLoss	True
345.819	0.25	Control	0.5676	0.001	Yes	2.681	0.019	n/a	GoodResponse	0	n/a	n/a	1	36	Cue	Neutral	True
346.069	4.0	Control	0.5676	0.0	Yes	2.681	0.0	n/a	GoodResponse	0	n/a	n/a	1	36	Fixation	Neutral	True
350.068	0.28	Control	0.5676	0.001	Yes	2.681	-0.001	2.0	GoodResponse	0	0.253	349.321	1	36	Target	Neutral	True
350.321	0.3	Control	0.5676	0.001	Yes	2.681	-0.001	2.0	GoodResponse	0	0.253	n/a	1	36	ButtonPress	Neutral	True
350.351	0.42	Control	0.5676	n/a	Yes	2.681	n/a	n/a	GoodResponse	0	n/a	n/a	1	36	Blank	Neutral	True
350.768	1.45	Control	0.5676	n/a	Yes	2.681	n/a	5.0	GoodResponse	0	0.038	349.806	1	36	Feedback	Neutral	True
352.217	2.681	Control	0.5676	n/a	Yes	2.681	n/a	n/a	GoodResponse	0	0.0	n/a	1	36	ISIslide	Neutral	True
354.916	0.25	Win2	0.5789	0.0	Yes	2.884	0.016	n/a	GoodResponse	1	n/a	n/a	2	37	Cue	Win	True
355.166	4.0	Win2	0.5789	0.0	Yes	2.884	0.0	n/a	GoodResponse	1	n/a	n/a	2	37	Fixation	Win	True
359.165	0.29	Win2	0.5789	0.001	Yes	2.884	-0.001	2.0	GoodResponse	1	0.216	358.381	2	37	Target	Win	True
359.381	0.3	Win2	0.5789	0.001	Yes	2.884	-0.001	2.0	GoodResponse	1	0.216	n/a	2	37	ButtonPress	Win	True
359.465	0.41	Win2	0.5789	n/a	Yes	2.884	n/a	n/a	GoodResponse	1	n/a	n/a	2	37	Blank	Win	True
359.865	1.45	Win2	0.5789	n/a	Yes	2.884	n/a	5.0	GoodResponse	1	0.014	358.879	2	37	Feedback	Win	True
361.314	2.884	Win2	0.5789	n/a	Yes	2.884	n/a	n/a	GoodResponse	1	0.0	n/a	2	37	ISIslide	Win	True
364.23	0.25	Lose2	0.5640999999999999	0.0	No	2.82	0.03	n/a	NoResponse	-1	n/a	n/a	1	38	Cue	Loss	True
364.48	3.95	Lose2	0.5640999999999999	0.0	No	2.82	0.0	n/a	NoResponse	-1	n/a	n/a	1	38	Fixation	Loss	True
368.428	0.3	Lose2	0.5640999999999999	0.002	No	2.82	-0.002	2.0	NoResponse	-1	0.328	367.756	1	38	Target	Loss	True
368.728	0.4	Lose2	0.5640999999999999	n/a	No	2.82	n/a	n/a	NoResponse	-1	n/a	n/a	1	38	Blank	Loss	True
368.756	0.3	Lose2	0.5640999999999999	0.002	No	2.82	-0.002	2.0	NoResponse	-1	0.328	n/a	1	38	ButtonPress	Loss	True
369.128	1.45	Lose2	0.5640999999999999	n/a	No	2.82	n/a	5.0	NoResponse	-1	0.02	368.148	1	38	Feedback	Loss	True
370.578	2.82	Lose2	0.5640999999999999	n/a	No	2.82	n/a	n/a	NoResponse	-1	0.0	n/a	1	38	ISIslide	Loss	True
373.427	0.25	Win2	0.575	0.0	Yes	2.973	0.027	n/a	GoodResponse	1	n/a	n/a	2	39	Cue	Win	True
373.677	4.1	Win2	0.575	0.0	Yes	2.973	0.0	n/a	GoodResponse	1	n/a	n/a	2	39	Fixation	Win	True
377.775	0.31	Win2	0.575	0.002	Yes	2.973	-0.002	2.0	GoodResponse	1	0.308	377.083	2	39	Target	Win	True
378.083	0.3	Win2	0.575	0.002	Yes	2.973	-0.002	2.0	GoodResponse	1	0.308	n/a	2	39	ButtonPress	Win	True
378.092	0.39	Win2	0.575	n/a	Yes	2.973	n/a	n/a	GoodResponse	1	n/a	n/a	2	39	Blank	Win	True
378.475	1.45	Win2	0.575	n/a	Yes	2.973	n/a	5.0	GoodResponse	1	0.039	377.514	2	39	Feedback	Win	True
379.924	2.973	Win2	0.575	n/a	Yes	2.973	n/a	n/a	GoodResponse	1	0.0	n/a	2	39	ISIslide	Win	True
382.923	0.25	Win2	0.561	0.0	No	2.727	0.023	n/a	LatePress	0	n/a	n/a	2	40	Cue	MissedWin	True
383.173	3.95	Win2	0.561	0.0	No	2.727	0.0	n/a	LatePress	0	n/a	n/a	2	40	Fixation	MissedWin	True
387.122	0.32	Win2	0.561	0.001	No	2.727	-0.001	2.0	LatePress	0	0.32	386.442	2	40	Target	MissedWin	True
387.438	0.38	Win2	0.561	n/a	No	2.727	n/a	n/a	LatePress	0	n/a	n/a	2	40	Blank	MissedWin	True
387.442	0.3	Win2	0.561	0.001	No	2.727	-0.001	2.0	LatePress	0	0.32	n/a	2	40	ButtonPress	MissedWin	True
387.822	1.45	Win2	0.561	n/a	No	2.727	n/a	5.0	LatePress	0	0.008	386.83	2	40	Feedback	MissedWin	True
389.271	2.727	Win2	0.561	n/a	No	2.727	n/a	n/a	LatePress	0	0.0	n/a	2	40	ISIslide	MissedWin	True
392.02	0.25	Win2	0.5714	0.0	Yes	2.78	0.02	n/a	GoodResponse	1	n/a	n/a	3	41	Cue	Win	True
392.27	3.9	Win2	0.5714	0.0	Yes	2.78	0.0	n/a	GoodResponse	1	n/a	n/a	3	41	Fixation	Win	True
396.169	0.33	Win2	0.5714	0.001	Yes	2.78	-0.001	2.0	GoodResponse	1	0.23	395.399	3	41	Target	Win	True
396.399	0.3	Win2	0.5714	0.001	Yes	2.78	-0.001	2.0	GoodResponse	1	0.23	n/a	3	41	ButtonPress	Win	True
396.502	0.37	Win2	0.5714	n/a	Yes	2.78	n/a	n/a	GoodResponse	1	n/a	n/a	3	41	Blank	Win	True
396.869	1.45	Win2	0.5714	n/a	Yes	2.78	n/a	5.0	GoodResponse	1	0.034	395.903	3	41	Feedback	Win	True
398.318	2.78	Win2	0.5714	n/a	Yes	2.78	n/a	n/a	GoodResponse	1	0.0	n/a	3	41	ISIslide	Win	True
401.117	0.25	Control	0.5814	0.0	Yes	2.933	0.017	n/a	GoodResponse	0	n/a	n/a	3	42	Cue	Neutral	True
401.367	3.85	Control	0.5814	0.0	Yes	2.933	0.0	n/a	GoodResponse	0	n/a	n/a	3	42	Fixation	Neutral	True
405.216	0.34	Control	0.5814	0.001	Yes	2.933	-0.001	2.0	GoodResponse	0	0.233	404.449	3	42	Target	Neutral	True
405.449	0.3	Control	0.5814	0.001	Yes	2.933	-0.001	2.0	GoodResponse	0	0.233	n/a	3	42	ButtonPress	Neutral	True
405.565	0.36	Control	0.5814	n/a	Yes	2.933	n/a	n/a	GoodResponse	0	n/a	n/a	3	42	Blank	Neutral	True
405.915	1.45	Control	0.5814	n/a	Yes	2.933	n/a	5.0	GoodResponse	0	0.013	404.928	3	42	Feedback	Neutral	True
407.365	2.933	Control	0.5814	n/a	Yes	2.933	n/a	n/a	GoodResponse	0	0.0	n/a	3	42	ISIslide	Neutral	True
410.314	0.25	Win2	0.5909	0.0	Yes	3.186	0.014	n/a	GoodResponse	1	n/a	n/a	4	43	Cue	Win	True
410.564	4.0	Win2	0.5909	0.0	Yes	3.186	0.0	n/a	GoodResponse	1	n/a	n/a	4	43	Fixation	Win	True
414.562	0.35	Win2	0.5909	0.002	Yes	3.186	-0.002	2.0	GoodResponse	1	0.253	413.815	4	43	Target	Win	True
414.815	0.3	Win2	0.5909	0.002	Yes	3.186	-0.002	2.0	GoodResponse	1	0.253	n/a	4	43	ButtonPress	Win	True
414.912	0.35	Win2	0.5909	n/a	Yes	3.186	n/a	n/a	GoodResponse	1	n/a	n/a	4	43	Blank	Win	True
415.262	1.45	Win2	0.5909	n/a	Yes	3.186	n/a	5.0	GoodResponse	1	0.032	414.294	4	43	Feedback	Win	True
416.712	3.186	Win2	0.5909	n/a	Yes	3.186	n/a	n/a	GoodResponse	1	0.0	n/a	4	43	ISIslide	Win	True
419.927	0.25	Win2	0.6	0.0	Yes	2.973	0.027	n/a	GoodResponse	1	n/a	n/a	5	44	Cue	Win	True
420.177	4.0	Win2	0.6	0.0	Yes	2.973	0.0	n/a	GoodResponse	1	n/a	n/a	5	44	Fixation	Win	True
424.176	0.36	Win2	0.6	0.001	Yes	2.973	-0.001	2.0	GoodResponse	1	0.259	423.435	5	44	Target	Win	True
424.435	0.3	Win2	0.6	0.001	Yes	2.973	-0.001	2.0	GoodResponse	1	0.259	n/a	5	44	ButtonPress	Win	True
424.542	0.34	Win2	0.6	n/a	Yes	2.973	n/a	n/a	GoodResponse	1	n/a	n/a	5	44	Blank	Win	True
424.875	1.45	Win2	0.6	n/a	Yes	2.973	n/a	5.0	GoodResponse	1	0.029	423.904	5	44	Feedback	Win	True
426.325	2.973	Win2	0.6	n/a	Yes	2.973	n/a	n/a	GoodResponse	1	0.0	n/a	5	44	ISIslide	Win	True
429.324	0.25	Control	0.5870000000000001	0.0	No	2.876	0.024	n/a	NoResponse	0	n/a	n/a	5	45	Cue	Neutral	True
429.574	4.1	Control	0.5870000000000001	0.0	No	2.876	0.0	n/a	NoResponse	0	n/a	n/a	5	45	Fixation	Neutral	True
433.672	0.37	Control	0.5870000000000001	0.002	No	2.876	-0.002	2.0	NoResponse	0	0.491	433.163	5	45	Target	Neutral	True
434.056	0.33	Control	0.5870000000000001	n/a	No	2.876	n/a	n/a	NoResponse	0	n/a	n/a	5	45	Blank	Neutral	True
434.163	0.3	Control	0.5870000000000001	0.002	No	2.876	-0.002	2.0	NoResponse	0	0.491	n/a	5	45	ButtonPress	Neutral	True
434.372	1.45	Control	0.5870000000000001	n/a	No	2.876	n/a	5.0	NoResponse	0	0.044	433.416	5	45	Feedback	Neutral	True
435.822	2.876	Control	0.5870000000000001	n/a	No	2.876	n/a	n/a	NoResponse	0	0.0	n/a	5	45	ISIslide	Neutral	True
438.721	0.25	Lose2	0.5745	0.0	No	3.379	0.021	n/a	NoResponse	-1	n/a	n/a	4	46	Cue	Loss	True
438.971	4.0	Lose2	0.5745	0.0	No	3.379	0.0	n/a	NoResponse	-1	n/a	n/a	4	46	Fixation	Loss	True
442.969	0.38	Lose2	0.5745	0.002	No	3.379	-0.002	2.0	NoResponse	-1	0.412	442.381	4	46	Target	Loss	True
443.352	0.32	Lose2	0.5745	n/a	No	3.379	n/a	n/a	NoResponse	-1	n/a	n/a	4	46	Blank	Loss	True
443.381	0.3	Lose2	0.5745	0.002	No	3.379	-0.002	2.0	NoResponse	-1	0.412	n/a	4	46	ButtonPress	Loss	True
443.669	1.45	Lose2	0.5745	n/a	No	3.379	n/a	5.0	NoResponse	-1	0.015	442.684	4	46	Feedback	Loss	True
445.118	3.379	Lose2	0.5745	n/a	No	3.379	n/a	n/a	NoResponse	-1	0.0	n/a	4	46	ISIslide	Loss	True
448.517	0.25	Lose2	0.5832999999999999	0.0	Yes	2.683	0.017	n/a	GoodResponse	0	n/a	n/a	4	47	Cue	AvoidedLoss	True
448.767	4.0	Lose2	0.5832999999999999	0.0	Yes	2.683	0.0	n/a	GoodResponse	0	n/a	n/a	4	47	Fixation	AvoidedLoss	True
452.766	0.39	Lose2	0.5832999999999999	0.001	Yes	2.683	-0.001	2.0	GoodResponse	0	0.261	452.027	4	47	Target	AvoidedLoss	True
453.027	0.3	Lose2	0.5832999999999999	0.001	Yes	2.683	-0.001	2.0	GoodResponse	0	0.261	n/a	4	47	ButtonPress	AvoidedLoss	True
453.166	0.31	Lose2	0.5832999999999999	n/a	Yes	2.683	n/a	n/a	GoodResponse	0	n/a	n/a	4	47	Blank	AvoidedLoss	True
453.466	1.45	Lose2	0.5832999999999999	n/a	Yes	2.683	n/a	5.0	GoodResponse	0	0.022	452.488	4	47	Feedback	AvoidedLoss	True
454.915	2.683	Lose2	0.5832999999999999	n/a	Yes	2.683	n/a	n/a	GoodResponse	0	0.0	n/a	4	47	ISIslide	AvoidedLoss	True
457.614	0.25	Lose2	0.5918	0.0	Yes	3.036	0.014	n/a	GoodResponse	0	n/a	n/a	4	48	Cue	AvoidedLoss	True
457.864	3.95	Lose2	0.5918	0.0	Yes	3.036	0.0	n/a	GoodResponse	0	n/a	n/a	4	48	Fixation	AvoidedLoss	True
461.813	0.4	Lose2	0.5918	0.001	Yes	3.036	-0.001	2.0	GoodResponse	0	0.264	461.077	4	48	Target	AvoidedLoss	True
462.077	0.3	Lose2	0.5918	0.001	Yes	3.036	-0.001	2.0	GoodResponse	0	0.264	n/a	4	48	ButtonPress	AvoidedLoss	True
462.213	0.3	Lose2	0.5918	n/a	Yes	3.036	n/a	n/a	GoodResponse	0	n/a	n/a	4	48	Blank	AvoidedLoss	True
462.512	1.45	Lose2	0.5918	n/a	Yes	3.036	n/a	5.0	GoodResponse	0	0.001	461.513	4	48	Feedback	AvoidedLoss	True
463.962	3.036	Lose2	0.5918	n/a	Yes	3.036	n/a	n/a	GoodResponse	0	0.0	n/a	4	48	ISIslide	AvoidedLoss	True
467.028	0.25	Control	0.6	0.0	Yes	2.872	0.028	n/a	GoodResponse	0	n/a	n/a	4	49	Cue	Neutral	True
467.277	4.0	Control	0.6	0.001	Yes	2.872	-0.001	n/a	GoodResponse	0	n/a	n/a	4	49	Fixation	Neutral	True
471.276	0.41	Control	0.6	0.002	Yes	2.872	-0.002	2.0	GoodResponse	0	0.25	470.526	4	49	Target	Neutral	True
471.526	0.3	Control	0.6	0.002	Yes	2.872	-0.002	2.0	GoodResponse	0	0.25	n/a	4	49	ButtonPress	Neutral	True
471.693	0.29	Control	0.6	n/a	Yes	2.872	n/a	n/a	GoodResponse	0	n/a	n/a	4	49	Blank	Neutral	True
471.976	1.45	Control	0.6	n/a	Yes	2.872	n/a	5.0	GoodResponse	0	0.0	470.976	4	49	Feedback	Neutral	True
473.425	2.872	Control	0.6	n/a	Yes	2.872	n/a	n/a	GoodResponse	0	0.0	n/a	4	49	ISIslide	Neutral	True
476.324	0.25	Control	0.6078	0.0	Yes	2.776	0.024	n/a	GoodResponse	0	n/a	n/a	4	50	Cue	Neutral	True
476.574	4.0	Control	0.6078	0.0	Yes	2.776	0.0	n/a	GoodResponse	0	n/a	n/a	4	50	Fixation	Neutral	True
480.573	0.42	Control	0.6078	0.001	Yes	2.776	-0.001	2.0	GoodResponse	0	0.332	479.905	4	50	Target	Neutral	True
480.905	0.3	Control	0.6078	0.001	Yes	2.776	-0.001	2.0	GoodResponse	0	0.332	n/a	4	50	ButtonPress	Neutral	True
480.989	0.28	Control	0.6078	n/a	Yes	2.776	n/a	n/a	GoodResponse	0	n/a	n/a	4	50	Blank	Neutral	True
481.273	1.45	Control	0.6078	n/a	Yes	2.776	n/a	5.0	GoodResponse	0	0.021	480.294	4	50	Feedback	Neutral	True
482.722	2.776	Control	0.6078	n/a	Yes	2.776	n/a	n/a	GoodResponse	0	0.0	n/a	4	50	ISIslide	Neutral	True
485.521	0.25	Control	0.6154	0.0	Yes	2.729	0.021	n/a	GoodResponse	0	n/a	n/a	4	51	Cue	Neutral	True
485.771	3.95	Control	0.6154	0.0	Yes	2.729	0.0	n/a	GoodResponse	0	n/a	n/a	4	51	Fixation	Neutral	True
489.72	0.43	Control	0.6154	0.001	Yes	2.729	-0.001	2.0	GoodResponse	0	0.27	488.99	4	51	Target	Neutral	True
489.99	0.3	Control	0.6154	0.001	Yes	2.729	-0.001	2.0	GoodResponse	0	0.27	n/a	4	51	ButtonPress	Neutral	True
490.153	0.27	Control	0.6154	n/a	Yes	2.729	n/a	n/a	GoodResponse	0	n/a	n/a	4	51	Blank	Neutral	True
490.419	1.45	Control	0.6154	n/a	Yes	2.729	n/a	5.0	GoodResponse	0	0.046	489.465	4	51	Feedback	Neutral	True
491.869	2.729	Control	0.6154	n/a	Yes	2.729	n/a	n/a	GoodResponse	0	0.0	n/a	4	51	ISIslide	Neutral	True
494.618	0.25	Control	0.6225999999999999	0.0	Yes	2.632	0.018	n/a	GoodResponse	0	n/a	n/a	4	52	Cue	Neutral	True
494.868	4.05	Control	0.6225999999999999	0.0	Yes	2.632	0.0	n/a	GoodResponse	0	n/a	n/a	4	52	Fixation	Neutral	True
498.917	0.44	Control	0.6225999999999999	0.001	Yes	2.632	-0.001	2.0	GoodResponse	0	0.283	498.2	4	52	Target	Neutral	True
499.2	0.3	Control	0.6225999999999999	0.001	Yes	2.632	-0.001	2.0	GoodResponse	0	0.283	n/a	4	52	ButtonPress	Neutral	True
499.366	0.26	Control	0.6225999999999999	n/a	Yes	2.632	n/a	n/a	GoodResponse	0	n/a	n/a	4	52	Blank	Neutral	True
499.616	1.45	Control	0.6225999999999999	n/a	Yes	2.632	n/a	5.0	GoodResponse	0	0.019	498.635	4	52	Feedback	Neutral	True
501.066	2.632	Control	0.6225999999999999	n/a	Yes	2.632	n/a	n/a	GoodResponse	0	0.0	n/a	4	52	ISIslide	Neutral	True
503.715	0.25	Win2	0.6296	0.0	Yes	2.935	0.015	n/a	GoodResponse	1	n/a	n/a	5	53	Cue	Win	True
503.965	4.05	Win2	0.6296	0.0	Yes	2.935	0.0	n/a	GoodResponse	1	n/a	n/a	5	53	Fixation	Win	True
508.013	0.45	Win2	0.6296	0.002	Yes	2.935	-0.002	2.0	GoodResponse	1	0.25	507.263	5	53	Target	Win	True
508.263	0.3	Win2	0.6296	0.002	Yes	2.935	-0.002	2.0	GoodResponse	1	0.25	n/a	5	53	ButtonPress	Win	True
508.463	0.25	Win2	0.6296	n/a	Yes	2.935	n/a	n/a	GoodResponse	1	n/a	n/a	5	53	Blank	Win	True
508.713	1.45	Win2	0.6296	n/a	Yes	2.935	n/a	5.0	GoodResponse	1	0.043	507.756	5	53	Feedback	Win	True
510.163	2.935	Win2	0.6296	n/a	Yes	2.935	n/a	n/a	GoodResponse	1	0.0	n/a	5	53	ISIslide	Win	True
513.128	0.25	Win2	0.6364	0.0	Yes	2.722	0.028	n/a	GoodResponse	1	n/a	n/a	6	54	Cue	Win	True
513.378	3.95	Win2	0.6364	0.0	Yes	2.722	0.0	n/a	GoodResponse	1	n/a	n/a	6	54	Fixation	Win	True
517.327	0.46	Win2	0.6364	0.001	Yes	2.722	-0.001	2.0	GoodResponse	1	0.238	516.565	6	54	Target	Win	True
517.565	0.3	Win2	0.6364	0.001	Yes	2.722	-0.001	2.0	GoodResponse	1	0.238	n/a	6	54	ButtonPress	Win	True
517.793	0.24	Win2	0.6364	n/a	Yes	2.722	n/a	n/a	GoodResponse	1	n/a	n/a	6	54	Blank	Win	True
518.027	1.45	Win2	0.6364	n/a	Yes	2.722	n/a	5.0	GoodResponse	1	0.047	517.074	6	54	Feedback	Win	True
519.476	2.722	Win2	0.6364	n/a	Yes	2.722	n/a	n/a	GoodResponse	1	0.0	n/a	6	54	ISIslide	Win	True
522.225	0.25	Control	0.6429	0.0	Yes	3.025	0.025	n/a	GoodResponse	0	n/a	n/a	6	55	Cue	Neutral	True
522.475	3.95	Control	0.6429	0.0	Yes	3.025	0.0	n/a	GoodResponse	0	n/a	n/a	6	55	Fixation	Neutral	True
526.424	0.47	Control	0.6429	0.001	Yes	3.025	-0.001	2.0	GoodResponse	0	0.286	525.71	6	55	Target	Neutral	True
526.71	0.3	Control	0.6429	0.001	Yes	3.025	-0.001	2.0	GoodResponse	0	0.286	n/a	6	55	ButtonPress	Neutral	True
526.907	0.23	Control	0.6429	n/a	Yes	3.025	n/a	n/a	GoodResponse	0	n/a	n/a	6	55	Blank	Neutral	True
527.123	1.45	Control	0.6429	n/a	Yes	3.025	n/a	5.0	GoodResponse	0	0.024	526.147	6	55	Feedback	Neutral	True
528.573	3.025	Control	0.6429	n/a	Yes	3.025	n/a	n/a	GoodResponse	0	0.0	n/a	6	55	ISIslide	Neutral	True
531.622	0.25	Control	0.6491	0.0	Yes	2.828	0.022	n/a	GoodResponse	0	n/a	n/a	6	56	Cue	Neutral	True
531.872	3.95	Control	0.6491	0.0	Yes	2.828	0.0	n/a	GoodResponse	0	n/a	n/a	6	56	Fixation	Neutral	True
535.82	0.48	Control	0.6491	0.002	Yes	2.828	-0.002	2.0	GoodResponse	0	0.317	535.137	6	56	Target	Neutral	True
536.137	0.3	Control	0.6491	0.002	Yes	2.828	-0.002	2.0	GoodResponse	0	0.317	n/a	6	56	ButtonPress	Neutral	True
536.304	0.22	Control	0.6491	n/a	Yes	2.828	n/a	n/a	GoodResponse	0	n/a	n/a	6	56	Blank	Neutral	True
536.52	1.45	Control	0.6491	n/a	Yes	2.828	n/a	5.0	GoodResponse	0	0.042	535.562	6	56	Feedback	Neutral	True
537.97	2.828	Control	0.6491	n/a	Yes	2.828	n/a	n/a	GoodResponse	0	0.0	n/a	6	56	ISIslide	Neutral	True
540.819	0.25	Control	0.6552	0.0	Yes	3.481	0.019	n/a	GoodResponse	0	n/a	n/a	6	57	Cue	Neutral	True
541.069	4.0	Control	0.6552	0.0	Yes	3.481	0.0	n/a	GoodResponse	0	n/a	n/a	6	57	Fixation	Neutral	True
545.067	0.49	Control	0.6552	0.002	Yes	3.481	-0.002	2.0	GoodResponse	0	0.352	544.419	6	57	Target	Neutral	True
545.419	0.3	Control	0.6552	0.002	Yes	3.481	-0.002	2.0	GoodResponse	0	0.352	n/a	6	57	ButtonPress	Neutral	True
545.567	0.21	Control	0.6552	n/a	Yes	3.481	n/a	n/a	GoodResponse	0	n/a	n/a	6	57	Blank	Neutral	True
545.767	1.45	Control	0.6552	n/a	Yes	3.481	n/a	5.0	GoodResponse	0	0.014	544.781	6	57	Feedback	Neutral	True
547.217	3.481	Control	0.6552	n/a	Yes	3.481	n/a	n/a	GoodResponse	0	0.0	n/a	6	57	ISIslide	Neutral	True
550.715	0.25	Win2	0.6609999999999999	0.0	Yes	2.735	0.015	n/a	GoodResponse	1	n/a	n/a	7	58	Cue	Win	True
550.965	4.05	Win2	0.6609999999999999	0.0	Yes	2.735	0.0	n/a	GoodResponse	1	n/a	n/a	7	58	Fixation	Win	True
555.014	0.49	Win2	0.6609999999999999	0.001	Yes	2.735	-0.001	2.0	GoodResponse	1	0.331	554.345	7	58	Target	Win	True
555.345	0.3	Win2	0.6609999999999999	0.001	Yes	2.735	-0.001	2.0	GoodResponse	1	0.331	n/a	7	58	ButtonPress	Win	True
555.514	0.21	Win2	0.6609999999999999	n/a	Yes	2.735	n/a	n/a	GoodResponse	1	n/a	n/a	7	58	Blank	Win	True
555.714	1.45	Win2	0.6609999999999999	n/a	Yes	2.735	n/a	5.0	GoodResponse	1	0.019	554.733	7	58	Feedback	Win	True
557.163	2.735	Win2	0.6609999999999999	n/a	Yes	2.735	n/a	n/a	GoodResponse	1	0.0	n/a	7	58	ISIslide	Win	True
559.929	0.25	Lose2	0.65	0.0	No	2.671	0.029	n/a	NoResponse	-1	n/a	n/a	6	59	Cue	Loss	True
560.179	4.0	Lose2	0.65	0.0	No	2.671	0.0	n/a	NoResponse	-1	n/a	n/a	6	59	Fixation	Loss	True
564.177	0.49	Lose2	0.65	0.002	No	2.671	-0.002	n/a	NoResponse	-1	n/a	n/a	6	59	Target	Loss	True
564.677	0.21	Lose2	0.65	n/a	No	2.671	n/a	n/a	NoResponse	-1	n/a	n/a	6	59	Blank	Loss	True
564.877	1.45	Lose2	0.65	n/a	No	2.671	n/a	2.0	NoResponse	-1	0.025	563.902	6	59	Feedback	Loss	True
564.902	0.3	Lose2	0.65	n/a	No	2.671	n/a	2.0	NoResponse	-1	0.025	n/a	6	59	ButtonPress	Loss	True
566.327	2.671	Lose2	0.65	n/a	No	2.671	n/a	n/a	NoResponse	-1	0.0	n/a	6	59	ISIslide	Loss	True
569.026	0.25	Control	0.6557	0.0	Yes	2.674	0.026	n/a	GoodResponse	0	n/a	n/a	6	60	Cue	Neutral	True
569.276	4.0	Control	0.6557	0.0	Yes	2.674	0.0	n/a	GoodResponse	0	n/a	n/a	6	60	Fixation	Neutral	True
573.274	0.5	Control	0.6557	0.002	Yes	2.674	-0.002	2.0	GoodResponse	0	0.234	572.508	6	60	Target	Neutral	True
573.508	0.3	Control	0.6557	0.002	Yes	2.674	-0.002	2.0	GoodResponse	0	0.234	n/a	6	60	ButtonPress	Neutral	True
573.774	0.2	Control	0.6557	n/a	Yes	2.674	n/a	n/a	GoodResponse	0	n/a	n/a	6	60	Blank	Neutral	True
573.974	1.45	Control	0.6557	n/a	Yes	2.674	n/a	5.0	GoodResponse	0	0.007	572.981	6	60	Feedback	Neutral	True
575.423	2.674	Control	0.6557	n/a	Yes	2.674	n/a	n/a	GoodResponse	0	0.0	n/a	6	60	ISIslide	Neutral	True
578.122	0.25	Lose2	0.6613	0.001	Yes	2.978	0.022	n/a	GoodResponse	0	n/a	n/a	6	61	Cue	AvoidedLoss	True
578.372	4.0	Lose2	0.6613	0.001	Yes	2.978	0.0	n/a	GoodResponse	0	n/a	n/a	6	61	Fixation	AvoidedLoss	True
582.371	0.5	Lose2	0.6613	0.001	Yes	2.978	-0.001	2.0	GoodResponse	0	0.249	581.62	6	61	Target	AvoidedLoss	True
582.62	0.3	Lose2	0.6613	0.001	Yes	2.978	-0.001	2.0	GoodResponse	0	0.249	n/a	6	61	ButtonPress	AvoidedLoss	True
582.871	0.2	Lose2	0.6613	n/a	Yes	2.978	n/a	n/a	GoodResponse	0	n/a	n/a	6	61	Blank	AvoidedLoss	True
583.071	1.45	Lose2	0.6613	n/a	Yes	2.978	n/a	5.0	GoodResponse	0	0.027	582.098	6	61	Feedback	AvoidedLoss	True
584.52	2.978	Lose2	0.6613	n/a	Yes	2.978	n/a	n/a	GoodResponse	0	0.0	n/a	6	61	ISIslide	AvoidedLoss	True
587.519	0.25	Lose2	0.6667000000000001	0.0	Yes	2.881	0.019	n/a	GoodResponse	0	n/a	n/a	6	62	Cue	AvoidedLoss	True
587.769	3.9	Lose2	0.6667000000000001	0.0	Yes	2.881	0.0	n/a	GoodResponse	0	n/a	n/a	6	62	Fixation	AvoidedLoss	True
591.668	0.5	Lose2	0.6667000000000001	0.001	Yes	2.881	-0.001	2.0	GoodResponse	0	0.352	591.02	6	62	Target	AvoidedLoss	True
592.02	0.3	Lose2	0.6667000000000001	0.001	Yes	2.881	-0.001	2.0	GoodResponse	0	0.352	n/a	6	62	ButtonPress	AvoidedLoss	True
592.168	0.2	Lose2	0.6667000000000001	n/a	Yes	2.881	n/a	n/a	GoodResponse	0	n/a	n/a	6	62	Blank	AvoidedLoss	True
592.368	1.45	Lose2	0.6667000000000001	n/a	Yes	2.881	n/a	5.0	GoodResponse	0	0.047	591.415	6	62	Feedback	AvoidedLoss	True
593.817	2.881	Lose2	0.6667000000000001	n/a	Yes	2.881	n/a	n/a	GoodResponse	0	0.0	n/a	6	62	ISIslide	AvoidedLoss	True
596.716	0.25	Lose2	0.6718999999999999	0.0	Yes	2.634	0.016	n/a	GoodResponse	0	n/a	n/a	6	63	Cue	AvoidedLoss	True
596.966	4.05	Lose2	0.6718999999999999	0.0	Yes	2.634	0.0	n/a	GoodResponse	0	n/a	n/a	6	63	Fixation	AvoidedLoss	True
601.015	0.49	Lose2	0.6718999999999999	0.001	Yes	2.634	-0.001	2.0	GoodResponse	0	0.223	600.238	6	63	Target	AvoidedLoss	True
601.238	0.3	Lose2	0.6718999999999999	0.001	Yes	2.634	-0.001	2.0	GoodResponse	0	0.223	n/a	6	63	ButtonPress	AvoidedLoss	True
601.514	0.21	Lose2	0.6718999999999999	n/a	Yes	2.634	n/a	n/a	GoodResponse	0	n/a	n/a	6	63	Blank	AvoidedLoss	True
601.714	1.45	Lose2	0.6718999999999999	n/a	Yes	2.634	n/a	5.0	GoodResponse	0	0.018	600.732	6	63	Feedback	AvoidedLoss	True
603.164	2.634	Lose2	0.6718999999999999	n/a	Yes	2.634	n/a	n/a	GoodResponse	0	0.0	n/a	6	63	ISIslide	AvoidedLoss	True
605.83	0.25	Win2	0.6769	0.0	Yes	3.12	0.03	n/a	GoodResponse	1	n/a	n/a	7	64	Cue	Win	True
606.079	4.15	Win2	0.6769	0.001	Yes	3.12	-0.001	n/a	GoodResponse	1	n/a	n/a	7	64	Fixation	Win	True
610.228	0.48	Win2	0.6769	0.002	Yes	3.12	-0.002	2.0	GoodResponse	1	0.275	609.503	7	64	Target	Win	True
610.503	0.3	Win2	0.6769	0.002	Yes	3.12	-0.002	2.0	GoodResponse	1	0.275	n/a	7	64	ButtonPress	Win	True
610.711	0.22	Win2	0.6769	n/a	Yes	3.12	n/a	n/a	GoodResponse	1	n/a	n/a	7	64	Blank	Win	True
610.928	1.45	Win2	0.6769	n/a	Yes	3.12	n/a	5.0	GoodResponse	1	0.024	609.952	7	64	Feedback	Win	True
612.377	3.12	Win2	0.6769	n/a	Yes	3.12	n/a	n/a	GoodResponse	1	0.0	n/a	7	64	ISIslide	Win	True
615.526	0.25	Control	0.6818000000000001	0.0	Yes	2.774	0.026	n/a	GoodResponse	0	n/a	n/a	7	65	Cue	Neutral	True
615.776	4.0	Control	0.6818000000000001	0.0	Yes	2.774	0.0	n/a	GoodResponse	0	n/a	n/a	7	65	Fixation	Neutral	True
619.775	0.47	Control	0.6818000000000001	0.001	Yes	2.774	-0.001	2.0	GoodResponse	0	0.34	619.115	7	65	Target	Neutral	True
620.115	0.3	Control	0.6818000000000001	0.001	Yes	2.774	-0.001	2.0	GoodResponse	0	0.34	n/a	7	65	ButtonPress	Neutral	True
620.258	0.23	Control	0.6818000000000001	n/a	Yes	2.774	n/a	n/a	GoodResponse	0	n/a	n/a	7	65	Blank	Neutral	True
620.475	1.45	Control	0.6818000000000001	n/a	Yes	2.774	n/a	5.0	GoodResponse	0	0.038	619.513	7	65	Feedback	Neutral	True
621.924	2.774	Control	0.6818000000000001	n/a	Yes	2.774	n/a	n/a	GoodResponse	0	0.0	n/a	7	65	ISIslide	Neutral	True
624.723	0.25	Win2	0.6866	0.0	Yes	2.777	0.023	n/a	GoodResponse	1	n/a	n/a	8	66	Cue	Win	True
624.973	3.9	Win2	0.6866	0.0	Yes	2.777	0.0	n/a	GoodResponse	1	n/a	n/a	8	66	Fixation	Win	True
628.872	0.46	Win2	0.6866	0.001	Yes	2.777	-0.001	2.0	GoodResponse	1	0.298	628.17	8	66	Target	Win	True
629.17	0.3	Win2	0.6866	0.001	Yes	2.777	-0.001	2.0	GoodResponse	1	0.298	n/a	8	66	ButtonPress	Win	True
629.338	0.24	Win2	0.6866	n/a	Yes	2.777	n/a	n/a	GoodResponse	1	n/a	n/a	8	66	Blank	Win	True
629.571	1.45	Win2	0.6866	n/a	Yes	2.777	n/a	5.0	GoodResponse	1	0.014	628.585	8	66	Feedback	Win	True
631.021	2.777	Win2	0.6866	n/a	Yes	2.777	n/a	n/a	GoodResponse	1	0.0	n/a	8	66	ISIslide	Win	True
633.82	0.25	Control	0.6912	0.0	Yes	2.73	0.02	n/a	GoodResponse	0	n/a	n/a	8	67	Cue	Neutral	True
634.07	3.95	Control	0.6912	0.0	Yes	2.73	0.0	n/a	GoodResponse	0	n/a	n/a	8	67	Fixation	Neutral	True
638.018	0.45	Control	0.6912	0.002	Yes	2.73	-0.002	2.0	GoodResponse	0	0.304	637.322	8	67	Target	Neutral	True
638.322	0.3	Control	0.6912	0.002	Yes	2.73	-0.002	2.0	GoodResponse	0	0.304	n/a	8	67	ButtonPress	Neutral	True
638.468	0.25	Control	0.6912	n/a	Yes	2.73	n/a	n/a	GoodResponse	0	n/a	n/a	8	67	Blank	Neutral	True
638.718	1.45	Control	0.6912	n/a	Yes	2.73	n/a	5.0	GoodResponse	0	0.038	637.756	8	67	Feedback	Neutral	True
640.168	2.73	Control	0.6912	n/a	Yes	2.73	n/a	n/a	GoodResponse	0	0.0	n/a	8	67	ISIslide	Neutral	True
642.917	0.25	Win2	0.6957	0.0	Yes	3.083	0.017	n/a	GoodResponse	1	n/a	n/a	9	68	Cue	Win	True
643.167	4.0	Win2	0.6957	0.0	Yes	3.083	0.0	n/a	GoodResponse	1	n/a	n/a	9	68	Fixation	Win	True
647.165	0.44	Win2	0.6957	0.002	Yes	3.083	-0.002	2.0	GoodResponse	1	0.325	646.49	9	68	Target	Win	True
647.49	0.3	Win2	0.6957	0.002	Yes	3.083	-0.002	2.0	GoodResponse	1	0.325	n/a	9	68	ButtonPress	Win	True
647.615	0.26	Win2	0.6957	n/a	Yes	3.083	n/a	n/a	GoodResponse	1	n/a	n/a	9	68	Blank	Win	True
647.865	1.45	Win2	0.6957	n/a	Yes	3.083	n/a	5.0	GoodResponse	1	0.013	646.878	9	68	Feedback	Win	True
649.315	3.083	Win2	0.6957	n/a	Yes	3.083	n/a	n/a	GoodResponse	1	0.0	n/a	9	68	ISIslide	Win	True
652.413	0.25	Win2	0.7	0.001	Yes	3.237	0.013	n/a	GoodResponse	1	n/a	n/a	10	69	Cue	Win	True
652.663	3.95	Win2	0.7	0.001	Yes	3.237	0.0	n/a	GoodResponse	1	n/a	n/a	10	69	Fixation	Win	True
656.612	0.43	Win2	0.7	0.001	Yes	3.237	-0.001	2.0	GoodResponse	1	0.272	655.884	10	69	Target	Win	True
656.884	0.3	Win2	0.7	0.001	Yes	3.237	-0.001	2.0	GoodResponse	1	0.272	n/a	10	69	ButtonPress	Win	True
657.045	0.27	Win2	0.7	n/a	Yes	3.237	n/a	n/a	GoodResponse	1	n/a	n/a	10	69	Blank	Win	True
657.312	1.45	Win2	0.7	n/a	Yes	3.237	n/a	5.0	GoodResponse	1	0.03	656.342	10	69	Feedback	Win	True
658.761	3.237	Win2	0.7	n/a	Yes	3.237	n/a	n/a	GoodResponse	1	0.0	n/a	10	69	ISIslide	Win	True
662.027	0.25	Lose2	0.7042	0.0	Yes	3.023	0.027	n/a	GoodResponse	0	n/a	n/a	10	70	Cue	AvoidedLoss	True
662.277	4.05	Lose2	0.7042	0.0	Yes	3.023	0.0	n/a	GoodResponse	0	n/a	n/a	10	70	Fixation	AvoidedLoss	True
666.325	0.42	Lose2	0.7042	0.002	Yes	3.023	-0.002	2.0	GoodResponse	0	0.24	665.565	10	70	Target	AvoidedLoss	True
666.565	0.3	Lose2	0.7042	0.002	Yes	3.023	-0.002	2.0	GoodResponse	0	0.24	n/a	10	70	ButtonPress	AvoidedLoss	True
666.759	0.28	Lose2	0.7042	n/a	Yes	3.023	n/a	n/a	GoodResponse	0	n/a	n/a	10	70	Blank	AvoidedLoss	True
667.025	1.45	Lose2	0.7042	n/a	Yes	3.023	n/a	5.0	GoodResponse	0	0.024	666.049	10	70	Feedback	AvoidedLoss	True
668.475	3.023	Lose2	0.7042	n/a	Yes	3.023	n/a	n/a	GoodResponse	0	0.0	n/a	10	70	ISIslide	AvoidedLoss	True
671.524	0.25	Win2	0.7082999999999999	0.0	Yes	2.726	0.024	n/a	GoodResponse	1	n/a	n/a	11	71	Cue	Win	True
671.773	4.05	Win2	0.7082999999999999	0.001	Yes	2.726	-0.001	n/a	GoodResponse	1	n/a	n/a	11	71	Fixation	Win	True
675.822	0.41	Win2	0.7082999999999999	0.002	Yes	2.726	-0.002	2.0	GoodResponse	1	0.301	675.123	11	71	Target	Win	True
676.123	0.3	Win2	0.7082999999999999	0.002	Yes	2.726	-0.002	2.0	GoodResponse	1	0.301	n/a	11	71	ButtonPress	Win	True
676.239	0.29	Win2	0.7082999999999999	n/a	Yes	2.726	n/a	n/a	GoodResponse	1	n/a	n/a	11	71	Blank	Win	True
676.522	1.45	Win2	0.7082999999999999	n/a	Yes	2.726	n/a	5.0	GoodResponse	1	0.039	675.561	11	71	Feedback	Win	True
677.971	2.726	Win2	0.7082999999999999	n/a	Yes	2.726	n/a	n/a	GoodResponse	1	0.0	n/a	11	71	ISIslide	Win	True
680.72	0.25	Win2	0.7123	0.0	Yes	2.78	0.02	n/a	GoodResponse	1	n/a	n/a	12	72	Cue	Win	True
680.97	4.1	Win2	0.7123	0.0	Yes	2.78	0.0	n/a	GoodResponse	1	n/a	n/a	12	72	Fixation	Win	True
685.069	0.4	Win2	0.7123	0.001	Yes	2.78	-0.001	2.0	GoodResponse	1	0.271	684.34	12	72	Target	Win	True
685.34	0.3	Win2	0.7123	0.001	Yes	2.78	-0.001	2.0	GoodResponse	1	0.271	n/a	12	72	ButtonPress	Win	True
685.469	0.3	Win2	0.7123	n/a	Yes	2.78	n/a	n/a	GoodResponse	1	n/a	n/a	12	72	Blank	Win	True
685.769	1.45	Win2	0.7123	n/a	Yes	2.78	n/a	5.0	GoodResponse	1	0.011	684.78	12	72	Feedback	Win	True
687.218	2.78	Win2	0.7123	n/a	Yes	2.78	n/a	n/a	GoodResponse	1	0.0	n/a	12	72	ISIslide	Win	True
690.017	0.25	Win2	0.7162000000000001	0.0	Yes	2.683	0.017	n/a	GoodResponse	1	n/a	n/a	13	73	Cue	Win	True
690.267	4.0	Win2	0.7162000000000001	0.0	Yes	2.683	0.0	n/a	GoodResponse	1	n/a	n/a	13	73	Fixation	Win	True
694.266	0.39	Win2	0.7162000000000001	0.001	Yes	2.683	-0.001	2.0	GoodResponse	1	0.252	693.518	13	73	Target	Win	True
694.518	0.3	Win2	0.7162000000000001	0.001	Yes	2.683	-0.001	2.0	GoodResponse	1	0.252	n/a	13	73	ButtonPress	Win	True
694.666	0.31	Win2	0.7162000000000001	n/a	Yes	2.683	n/a	n/a	GoodResponse	1	n/a	n/a	13	73	Blank	Win	True
694.965	1.45	Win2	0.7162000000000001	n/a	Yes	2.683	n/a	5.0	GoodResponse	1	0.035	694.0	13	73	Feedback	Win	True
696.415	2.683	Win2	0.7162000000000001	n/a	Yes	2.683	n/a	n/a	GoodResponse	1	0.0	n/a	13	73	ISIslide	Win	True
699.114	0.25	Lose2	0.72	0.0	Yes	2.636	0.014	n/a	GoodResponse	0	n/a	n/a	13	74	Cue	AvoidedLoss	True
699.364	4.05	Lose2	0.72	0.0	Yes	2.636	0.0	n/a	GoodResponse	0	n/a	n/a	13	74	Fixation	AvoidedLoss	True
703.413	0.38	Lose2	0.72	0.001	Yes	2.636	-0.001	2.0	GoodResponse	0	0.235	702.648	13	74	Target	AvoidedLoss	True
703.648	0.3	Lose2	0.72	0.001	Yes	2.636	-0.001	2.0	GoodResponse	0	0.235	n/a	13	74	ButtonPress	AvoidedLoss	True
703.796	0.32	Lose2	0.72	n/a	Yes	2.636	n/a	n/a	GoodResponse	0	n/a	n/a	13	74	Blank	AvoidedLoss	True
704.112	1.45	Lose2	0.72	n/a	Yes	2.636	n/a	5.0	GoodResponse	0	0.01	703.122	13	74	Feedback	AvoidedLoss	True
705.562	2.636	Lose2	0.72	n/a	Yes	2.636	n/a	n/a	GoodResponse	0	0.0	n/a	13	74	ISIslide	AvoidedLoss	True
708.227	0.25	Lose2	0.7237	0.001	Yes	2.923	0.027	n/a	GoodResponse	0	n/a	n/a	13	75	Cue	AvoidedLoss	True
708.477	3.95	Lose2	0.7237	0.0	Yes	2.923	0.0	n/a	GoodResponse	0	n/a	n/a	13	75	Fixation	AvoidedLoss	True
712.426	0.37	Lose2	0.7237	0.001	Yes	2.923	-0.001	2.0	GoodResponse	0	0.224	711.65	13	75	Target	AvoidedLoss	True
712.65	0.3	Lose2	0.7237	0.001	Yes	2.923	-0.001	2.0	GoodResponse	0	0.224	n/a	13	75	ButtonPress	AvoidedLoss	True
712.793	0.33	Lose2	0.7237	n/a	Yes	2.923	n/a	n/a	GoodResponse	0	n/a	n/a	13	75	Blank	AvoidedLoss	True
713.126	1.45	Lose2	0.7237	n/a	Yes	2.923	n/a	5.0	GoodResponse	0	0.02	712.146	13	75	Feedback	AvoidedLoss	True
714.575	2.923	Lose2	0.7237	n/a	Yes	2.923	n/a	n/a	GoodResponse	0	0.0	n/a	13	75	ISIslide	AvoidedLoss	True
717.524	0.25	Control	0.7143	0.0	No	3.226	0.024	n/a	NoResponse	0	n/a	n/a	13	76	Cue	Neutral	True
717.774	4.05	Control	0.7143	0.0	No	3.226	0.0	n/a	NoResponse	0	n/a	n/a	13	76	Fixation	Neutral	True
721.823	0.36	Control	0.7143	0.001	No	3.226	-0.001	2.0	NoResponse	0	0.526	721.349	13	76	Target	Neutral	True
722.189	0.34	Control	0.7143	n/a	No	3.226	n/a	n/a	NoResponse	0	n/a	n/a	13	76	Blank	Neutral	True
722.349	0.3	Control	0.7143	0.001	No	3.226	-0.001	2.0	NoResponse	0	0.526	n/a	13	76	ButtonPress	Neutral	True
722.523	1.45	Control	0.7143	n/a	No	3.226	n/a	5.0	NoResponse	0	0.038	721.561	13	76	Feedback	Neutral	True
723.972	3.226	Control	0.7143	n/a	No	3.226	n/a	n/a	NoResponse	0	0.0	n/a	13	76	ISIslide	Neutral	True
727.221	0.25	Lose2	0.7179000000000001	0.0	Yes	2.579	0.021	n/a	GoodResponse	0	n/a	n/a	13	77	Cue	AvoidedLoss	True
727.471	3.95	Lose2	0.7179000000000001	0.0	Yes	2.579	0.0	n/a	GoodResponse	0	n/a	n/a	13	77	Fixation	AvoidedLoss	True
731.419	0.35	Lose2	0.7179000000000001	0.002	Yes	2.579	-0.002	2.0	GoodResponse	0	0.274	730.693	13	77	Target	AvoidedLoss	True
731.693	0.3	Lose2	0.7179000000000001	0.002	Yes	2.579	-0.002	2.0	GoodResponse	0	0.274	n/a	13	77	ButtonPress	AvoidedLoss	True
731.769	0.35	Lose2	0.7179000000000001	n/a	Yes	2.579	n/a	n/a	GoodResponse	0	n/a	n/a	13	77	Blank	AvoidedLoss	True
732.119	1.45	Lose2	0.7179000000000001	n/a	Yes	2.579	n/a	5.0	GoodResponse	0	0.008	731.127	13	77	Feedback	AvoidedLoss	True
733.569	2.579	Lose2	0.7179000000000001	n/a	Yes	2.579	n/a	n/a	GoodResponse	0	0.0	n/a	13	77	ISIslide	AvoidedLoss	True
