onset	duration	cue_type	current_mean_accuracy	duration_error	is_hit	isi_adjusted	onset_delay	response	response_type	reward	rt	rt_time	total_reward	trial_number	trial_phase	trial_type	one_press
11.102	0.25	Control	1.0	0.0	Yes	2.948	0.002	n/a	GoodResponse	0	n/a	n/a	0	0	Cue	Neutral	True
11.352	3.85	Control	1.0	0.0	Yes	2.948	0.0	n/a	GoodResponse	0	n/a	n/a	0	0	Fixation	Neutral	True
15.201	0.4	Control	1.0	0.001	Yes	2.948	-0.001	2.0	GoodResponse	0	0.38	14.581	0	0	Target	Neutral	True
15.581	0.3	Control	1.0	0.001	Yes	2.948	-0.001	2.0	GoodResponse	0	0.38	n/a	0	0	ButtonPress	Neutral	True
15.6	0.3	Control	1.0	n/a	Yes	2.948	n/a	n/a	GoodResponse	0	n/a	n/a	0	0	Blank	Neutral	True
15.9	1.45	Control	1.0	n/a	Yes	2.948	n/a	5.0	GoodResponse	0	0.029	14.929	0	0	Feedback	Neutral	True
17.35	2.948	Control	1.0	n/a	Yes	2.948	n/a	n/a	GoodResponse	0	0.0	n/a	0	0	ISIslide	Neutral	True
20.315	0.25	Lose2	1.0	0.001	Yes	2.785	0.015	n/a	GoodResponse	0	n/a	n/a	0	1	Cue	AvoidedLoss	True
20.565	4.0	Lose2	1.0	0.0	Yes	2.785	0.0	n/a	GoodResponse	0	n/a	n/a	0	1	Fixation	AvoidedLoss	True
24.564	0.39	Lose2	1.0	0.001	Yes	2.785	-0.001	2.0	GoodResponse	0	0.333	23.897	0	1	Target	AvoidedLoss	True
24.897	0.3	Lose2	1.0	0.001	Yes	2.785	-0.001	2.0	GoodResponse	0	0.333	n/a	0	1	ButtonPress	AvoidedLoss	True
24.964	0.31	Lose2	1.0	n/a	Yes	2.785	n/a	n/a	GoodResponse	0	n/a	n/a	0	1	Blank	AvoidedLoss	True
25.264	1.45	Lose2	1.0	n/a	Yes	2.785	n/a	5.0	GoodResponse	0	0.03	24.294	0	1	Feedback	AvoidedLoss	True
26.713	2.785	Lose2	1.0	n/a	Yes	2.785	n/a	n/a	GoodResponse	0	0.0	n/a	0	1	ISIslide	AvoidedLoss	True
29.529	0.25	Control	1.0	0.0	Yes	2.571	0.029	n/a	GoodResponse	0	n/a	n/a	0	2	Cue	Neutral	True
29.779	4.1	Control	1.0	0.0	Yes	2.571	0.0	n/a	GoodResponse	0	n/a	n/a	0	2	Fixation	Neutral	True
33.877	0.38	Control	1.0	0.002	Yes	2.571	-0.002	2.0	GoodResponse	0	0.223	33.1	0	2	Target	Neutral	True
34.1	0.3	Control	1.0	0.002	Yes	2.571	-0.002	2.0	GoodResponse	0	0.223	n/a	0	2	ButtonPress	Neutral	True
34.261	0.32	Control	1.0	n/a	Yes	2.571	n/a	n/a	GoodResponse	0	n/a	n/a	0	2	Blank	Neutral	True
34.577	1.45	Control	1.0	n/a	Yes	2.571	n/a	5.0	GoodResponse	0	0.035	33.612	0	2	Feedback	Neutral	True
36.027	2.571	Control	1.0	n/a	Yes	2.571	n/a	n/a	GoodResponse	0	0.0	n/a	0	2	ISIslide	Neutral	True
38.626	0.25	Win2	1.0	0.0	Yes	2.824	0.026	n/a	GoodResponse	1	n/a	n/a	1	3	Cue	Win	False
38.876	3.95	Win2	1.0	0.0	Yes	2.824	0.0	2.0	GoodResponse	1	0.135	38.011	1	3	Fixation	Win	False
39.011	0.3	Win2	1.0	0.0	Yes	2.824	0.0	2.0	GoodResponse	1	0.135	n/a	1	3	ButtonPress	Win	False
42.824	0.37	Win2	1.0	0.002	Yes	2.824	-0.002	2.0	GoodResponse	1	0.275	42.099	1	3	Target	Win	False
43.099	0.3	Win2	1.0	0.002	Yes	2.824	-0.002	2.0	GoodResponse	1	0.275	n/a	1	3	ButtonPress	Win	False
43.208	0.33	Win2	1.0	n/a	Yes	2.824	n/a	n/a	GoodResponse	1	n/a	n/a	1	3	Blank	Win	False
43.524	1.45	Win2	1.0	n/a	Yes	2.824	n/a	5.0	GoodResponse	1	0.015	42.539	1	3	Feedback	Win	False
44.974	2.824	Win2	1.0	n/a	Yes	2.824	n/a	n/a	GoodResponse	1	0.0	n/a	1	3	ISIslide	Win	False
47.823	0.25	Win2	1.0	0.0	Yes	3.277	0.023	n/a	GoodResponse	1	n/a	n/a	2	4	Cue	Win	True
48.073	4.0	Win2	1.0	0.0	Yes	3.277	0.0	n/a	GoodResponse	1	n/a	n/a	2	4	Fixation	Win	True
52.071	0.36	Win2	1.0	0.002	Yes	3.277	-0.002	2.0	GoodResponse	1	0.291	51.362	2	4	Target	Win	True
52.362	0.3	Win2	1.0	0.002	Yes	3.277	-0.002	2.0	GoodResponse	1	0.291	n/a	2	4	ButtonPress	Win	True
52.438	0.34	Win2	1.0	n/a	Yes	3.277	n/a	n/a	GoodResponse	1	n/a	n/a	2	4	Blank	Win	True
52.771	1.45	Win2	1.0	n/a	Yes	3.277	n/a	5.0	GoodResponse	1	0.036	51.807	2	4	Feedback	Win	True
54.22	3.277	Win2	1.0	n/a	Yes	3.277	n/a	n/a	GoodResponse	1	0.0	n/a	2	4	ISIslide	Win	True
57.519	0.25	Win2	1.0	0.0	Yes	2.781	0.019	n/a	GoodResponse	1	n/a	n/a	3	5	Cue	Win	True
57.769	4.0	Win2	1.0	0.0	Yes	2.781	0.0	n/a	GoodResponse	1	n/a	n/a	3	5	Fixation	Win	True
61.768	0.35	Win2	1.0	0.001	Yes	2.781	-0.001	2.0	GoodResponse	1	0.298	61.066	3	5	Target	Win	True
62.066	0.3	Win2	1.0	0.001	Yes	2.781	-0.001	2.0	GoodResponse	1	0.298	n/a	3	5	ButtonPress	Win	True
62.118	0.35	Win2	1.0	n/a	Yes	2.781	n/a	n/a	GoodResponse	1	n/a	n/a	3	5	Blank	Win	True
62.468	1.45	Win2	1.0	n/a	Yes	2.781	n/a	5.0	GoodResponse	1	0.046	61.514	3	5	Feedback	Win	True
63.917	2.781	Win2	1.0	n/a	Yes	2.781	n/a	n/a	GoodResponse	1	0.0	n/a	3	5	ISIslide	Win	True
66.716	0.25	Lose2	1.0	0.0	Yes	2.734	0.016	n/a	GoodResponse	0	n/a	n/a	3	6	Cue	AvoidedLoss	True
66.966	3.95	Lose2	1.0	0.0	Yes	2.734	0.0	n/a	GoodResponse	0	n/a	n/a	3	6	Fixation	AvoidedLoss	True
70.915	0.34	Lose2	1.0	0.001	Yes	2.734	-0.001	2.0	GoodResponse	0	0.231	70.146	3	6	Target	AvoidedLoss	True
71.146	0.3	Lose2	1.0	0.001	Yes	2.734	-0.001	2.0	GoodResponse	0	0.231	n/a	3	6	ButtonPress	AvoidedLoss	True
71.264	0.36	Lose2	1.0	n/a	Yes	2.734	n/a	n/a	GoodResponse	0	n/a	n/a	3	6	Blank	AvoidedLoss	True
71.614	1.45	Lose2	1.0	n/a	Yes	2.734	n/a	5.0	GoodResponse	0	0.022	70.636	3	6	Feedback	AvoidedLoss	True
73.064	2.734	Lose2	1.0	n/a	Yes	2.734	n/a	n/a	GoodResponse	0	0.0	n/a	3	6	ISIslide	AvoidedLoss	True
75.83	0.25	Lose2	1.0	0.0	Yes	4.02	0.03	n/a	GoodResponse	0	n/a	n/a	3	7	Cue	AvoidedLoss	True
76.079	4.05	Lose2	1.0	0.001	Yes	4.02	-0.001	n/a	GoodResponse	0	n/a	n/a	3	7	Fixation	AvoidedLoss	True
80.128	0.33	Lose2	1.0	0.002	Yes	4.02	-0.002	2.0	GoodResponse	0	0.287	79.415	3	7	Target	AvoidedLoss	True
80.415	0.3	Lose2	1.0	0.002	Yes	4.02	-0.002	2.0	GoodResponse	0	0.287	n/a	3	7	ButtonPress	AvoidedLoss	True
80.461	0.37	Lose2	1.0	n/a	Yes	4.02	n/a	n/a	GoodResponse	0	n/a	n/a	3	7	Blank	AvoidedLoss	True
80.828	1.45	Lose2	1.0	n/a	Yes	4.02	n/a	5.0	GoodResponse	0	0.027	79.855	3	7	Feedback	AvoidedLoss	True
82.277	4.02	Lose2	1.0	n/a	Yes	4.02	n/a	n/a	GoodResponse	0	0.0	n/a	3	7	ISIslide	AvoidedLoss	True
86.326	0.25	Lose2	1.0	0.0	Yes	3.024	0.026	n/a	GoodResponse	0	n/a	n/a	3	8	Cue	AvoidedLoss	True
86.576	3.95	Lose2	1.0	0.0	Yes	3.024	0.0	n/a	GoodResponse	0	n/a	n/a	3	8	Fixation	AvoidedLoss	True
90.524	0.32	Lose2	1.0	0.002	Yes	3.024	-0.002	2.0	GoodResponse	0	0.289	89.813	3	8	Target	AvoidedLoss	True
90.813	0.3	Lose2	1.0	0.002	Yes	3.024	-0.002	2.0	GoodResponse	0	0.289	n/a	3	8	ButtonPress	AvoidedLoss	True
90.858	0.38	Lose2	1.0	n/a	Yes	3.024	n/a	n/a	GoodResponse	0	n/a	n/a	3	8	Blank	AvoidedLoss	True
91.224	1.45	Lose2	1.0	n/a	Yes	3.024	n/a	5.0	GoodResponse	0	0.022	90.246	3	8	Feedback	AvoidedLoss	True
92.674	3.024	Lose2	1.0	n/a	Yes	3.024	n/a	n/a	GoodResponse	0	0.0	n/a	3	8	ISIslide	AvoidedLoss	True
95.723	0.25	Lose2	1.0	0.0	Yes	3.127	0.023	n/a	GoodResponse	0	n/a	n/a	3	9	Cue	AvoidedLoss	True
95.973	3.95	Lose2	1.0	0.0	Yes	3.127	0.0	n/a	GoodResponse	0	n/a	n/a	3	9	Fixation	AvoidedLoss	True
99.921	0.31	Lose2	1.0	0.002	Yes	3.127	-0.002	2.0	GoodResponse	0	0.231	99.152	3	9	Target	AvoidedLoss	True
100.152	0.3	Lose2	1.0	0.002	Yes	3.127	-0.002	2.0	GoodResponse	0	0.231	n/a	3	9	ButtonPress	AvoidedLoss	True
100.238	0.39	Lose2	1.0	n/a	Yes	3.127	n/a	n/a	GoodResponse	0	n/a	n/a	3	9	Blank	AvoidedLoss	True
100.621	1.45	Lose2	1.0	n/a	Yes	3.127	n/a	5.0	GoodResponse	0	0.039	99.66	3	9	Feedback	AvoidedLoss	True
102.071	3.127	Lose2	1.0	n/a	Yes	3.127	n/a	n/a	GoodResponse	0	0.0	n/a	3	9	ISIslide	AvoidedLoss	True
105.219	0.25	Control	1.0	0.001	Yes	3.281	0.019	n/a	GoodResponse	0	n/a	n/a	3	10	Cue	Neutral	True
105.469	4.0	Control	1.0	0.0	Yes	3.281	0.0	n/a	GoodResponse	0	n/a	n/a	3	10	Fixation	Neutral	True
109.468	0.3	Control	1.0	0.001	Yes	3.281	-0.001	2.0	GoodResponse	0	0.263	108.731	3	10	Target	Neutral	True
109.731	0.3	Control	1.0	0.001	Yes	3.281	-0.001	2.0	GoodResponse	0	0.263	n/a	3	10	ButtonPress	Neutral	True
109.768	0.4	Control	1.0	n/a	Yes	3.281	n/a	n/a	GoodResponse	0	n/a	n/a	3	10	Blank	Neutral	True
110.168	1.45	Control	1.0	n/a	Yes	3.281	n/a	5.0	GoodResponse	0	0.005	109.173	3	10	Feedback	Neutral	True
111.617	3.281	Control	1.0	n/a	Yes	3.281	n/a	n/a	GoodResponse	0	0.0	n/a	3	10	ISIslide	Neutral	True
114.916	0.25	Lose2	0.9167000000000001	0.0	No	2.734	0.016	n/a	NoResponse	-1	n/a	n/a	2	11	Cue	Loss	True
115.166	4.05	Lose2	0.9167000000000001	0.0	No	2.734	0.0	n/a	NoResponse	-1	n/a	n/a	2	11	Fixation	Loss	True
119.215	0.29	Lose2	0.9167000000000001	0.001	No	2.734	-0.001	2.0	NoResponse	-1	0.358	118.573	2	11	Target	Loss	True
119.514	0.41	Lose2	0.9167000000000001	n/a	No	2.734	n/a	n/a	NoResponse	-1	n/a	n/a	2	11	Blank	Loss	True
119.573	0.3	Lose2	0.9167000000000001	0.001	No	2.734	-0.001	2.0	NoResponse	-1	0.358	n/a	2	11	ButtonPress	Loss	True
119.914	1.45	Lose2	0.9167000000000001	n/a	No	2.734	n/a	5.0	NoResponse	-1	0.015	118.929	2	11	Feedback	Loss	True
121.364	2.734	Lose2	0.9167000000000001	n/a	No	2.734	n/a	n/a	NoResponse	-1	0.0	n/a	2	11	ISIslide	Loss	True
124.113	0.25	Control	0.9231	0.0	Yes	2.987	0.013	n/a	GoodResponse	0	n/a	n/a	2	12	Cue	Neutral	True
124.363	3.9	Control	0.9231	0.0	Yes	2.987	0.0	n/a	GoodResponse	0	n/a	n/a	2	12	Fixation	Neutral	True
128.261	0.28	Control	0.9231	0.002	Yes	2.987	-0.002	2.0	GoodResponse	0	0.258	127.519	2	12	Target	Neutral	True
128.519	0.3	Control	0.9231	0.002	Yes	2.987	-0.002	2.0	GoodResponse	0	0.258	n/a	2	12	ButtonPress	Neutral	True
128.545	0.42	Control	0.9231	n/a	Yes	2.987	n/a	n/a	GoodResponse	0	n/a	n/a	2	12	Blank	Neutral	True
128.961	1.45	Control	0.9231	n/a	Yes	2.987	n/a	5.0	GoodResponse	0	0.04	128.001	2	12	Feedback	Neutral	True
130.411	2.987	Control	0.9231	n/a	Yes	2.987	n/a	n/a	GoodResponse	0	0.0	n/a	2	12	ISIslide	Neutral	True
133.426	0.25	Control	0.9286	0.0	Yes	2.774	0.026	n/a	GoodResponse	0	n/a	n/a	2	13	Cue	Neutral	True
133.676	4.0	Control	0.9286	0.0	Yes	2.774	0.0	n/a	GoodResponse	0	n/a	n/a	2	13	Fixation	Neutral	True
137.675	0.27	Control	0.9286	0.001	Yes	2.774	-0.001	2.0	GoodResponse	0	0.257	136.932	2	13	Target	Neutral	True
137.932	0.3	Control	0.9286	0.001	Yes	2.774	-0.001	2.0	GoodResponse	0	0.257	n/a	2	13	ButtonPress	Neutral	True
137.941	0.43	Control	0.9286	n/a	Yes	2.774	n/a	n/a	GoodResponse	0	n/a	n/a	2	13	Blank	Neutral	True
138.375	1.45	Control	0.9286	n/a	Yes	2.774	n/a	5.0	GoodResponse	0	0.041	137.416	2	13	Feedback	Neutral	True
139.824	2.774	Control	0.9286	n/a	Yes	2.774	n/a	n/a	GoodResponse	0	0.0	n/a	2	13	ISIslide	Neutral	True
142.623	0.25	Win2	0.9333	0.0	Yes	2.677	0.023	n/a	GoodResponse	1	n/a	n/a	3	14	Cue	Win	True
142.873	4.1	Win2	0.9333	0.0	Yes	2.677	0.0	n/a	GoodResponse	1	n/a	n/a	3	14	Fixation	Win	True
146.972	0.26	Win2	0.9333	0.001	Yes	2.677	-0.001	2.0	GoodResponse	1	0.251	146.223	3	14	Target	Win	True
147.223	0.3	Win2	0.9333	0.001	Yes	2.677	-0.001	2.0	GoodResponse	1	0.251	n/a	3	14	ButtonPress	Win	True
147.238	0.44	Win2	0.9333	n/a	Yes	2.677	n/a	n/a	GoodResponse	1	n/a	n/a	3	14	Blank	Win	True
147.671	1.45	Win2	0.9333	n/a	Yes	2.677	n/a	5.0	GoodResponse	1	0.013	146.684	3	14	Feedback	Win	True
149.121	2.677	Win2	0.9333	n/a	Yes	2.677	n/a	n/a	GoodResponse	1	0.0	n/a	3	14	ISIslide	Win	True
151.82	0.25	Control	0.875	0.0	No	2.98	0.02	n/a	NoResponse	0	n/a	n/a	3	15	Cue	Neutral	True
152.07	4.0	Control	0.875	0.0	No	2.98	0.0	n/a	NoResponse	0	n/a	n/a	3	15	Fixation	Neutral	True
156.068	0.25	Control	0.875	0.002	No	2.98	-0.002	2.0	NoResponse	0	0.291	155.359	3	15	Target	Neutral	True
156.318	0.45	Control	0.875	n/a	No	2.98	n/a	n/a	NoResponse	0	n/a	n/a	3	15	Blank	Neutral	True
156.359	0.3	Control	0.875	0.002	No	2.98	-0.002	2.0	NoResponse	0	0.291	n/a	3	15	ButtonPress	Neutral	True
156.768	1.45	Control	0.875	n/a	No	2.98	n/a	5.0	NoResponse	0	0.038	155.806	3	15	Feedback	Neutral	True
158.218	2.98	Control	0.875	n/a	No	2.98	n/a	n/a	NoResponse	0	0.0	n/a	3	15	ISIslide	Neutral	True
161.217	0.25	Win2	0.8234999999999999	0.0	No	2.883	0.017	n/a	NoResponse	0	n/a	n/a	3	16	Cue	MissedWin	True
161.467	4.0	Win2	0.8234999999999999	0.0	No	2.883	0.0	n/a	NoResponse	0	n/a	n/a	3	16	Fixation	MissedWin	True
165.465	0.24	Win2	0.8234999999999999	0.002	No	2.883	-0.002	2.0	NoResponse	0	0.322	164.787	3	16	Target	MissedWin	True
165.715	0.46	Win2	0.8234999999999999	n/a	No	2.883	n/a	n/a	NoResponse	0	n/a	n/a	3	16	Blank	MissedWin	True
165.787	0.3	Win2	0.8234999999999999	0.002	No	2.883	-0.002	2.0	NoResponse	0	0.322	n/a	3	16	ButtonPress	MissedWin	True
166.165	1.45	Win2	0.8234999999999999	n/a	No	2.883	n/a	5.0	NoResponse	0	0.007	165.172	3	16	Feedback	MissedWin	True
167.615	2.883	Win2	0.8234999999999999	n/a	No	2.883	n/a	n/a	NoResponse	0	0.0	n/a	3	16	ISIslide	MissedWin	True
170.513	0.25	Lose2	0.7778	0.001	No	2.737	0.013	n/a	NoResponse	-1	n/a	n/a	2	17	Cue	Loss	True
170.763	3.95	Lose2	0.7778	0.001	No	2.737	0.0	n/a	NoResponse	-1	n/a	n/a	2	17	Fixation	Loss	True
174.712	0.23	Lose2	0.7778	0.001	No	2.737	-0.001	2.0	NoResponse	-1	0.241	173.953	2	17	Target	Loss	True
174.945	0.47	Lose2	0.7778	n/a	No	2.737	n/a	n/a	NoResponse	-1	n/a	n/a	2	17	Blank	Loss	True
174.953	0.3	Lose2	0.7778	0.001	No	2.737	-0.001	2.0	NoResponse	-1	0.241	n/a	2	17	ButtonPress	Loss	True
175.412	1.45	Lose2	0.7778	n/a	No	2.737	n/a	5.0	NoResponse	-1	0.029	174.441	2	17	Feedback	Loss	True
176.861	2.737	Lose2	0.7778	n/a	No	2.737	n/a	n/a	NoResponse	-1	0.0	n/a	2	17	ISIslide	Loss	True
179.627	0.25	Lose2	0.7368000000000001	0.0	No	2.723	0.027	n/a	NoResponse	-1	n/a	n/a	1	18	Cue	Loss	True
179.877	4.05	Lose2	0.7368000000000001	0.0	No	2.723	0.0	n/a	NoResponse	-1	n/a	n/a	1	18	Fixation	Loss	True
183.926	0.22	Lose2	0.7368000000000001	0.001	No	2.723	-0.001	2.0	NoResponse	-1	0.266	183.192	1	18	Target	Loss	True
184.159	0.48	Lose2	0.7368000000000001	n/a	No	2.723	n/a	n/a	NoResponse	-1	n/a	n/a	1	18	Blank	Loss	True
184.192	0.3	Lose2	0.7368000000000001	0.001	No	2.723	-0.001	2.0	NoResponse	-1	0.266	n/a	1	18	ButtonPress	Loss	True
184.625	1.45	Lose2	0.7368000000000001	n/a	No	2.723	n/a	5.0	NoResponse	-1	0.035	183.66	1	18	Feedback	Loss	True
186.075	2.723	Lose2	0.7368000000000001	n/a	No	2.723	n/a	n/a	NoResponse	-1	0.0	n/a	1	18	ISIslide	Loss	True
188.824	0.25	Control	0.7	0.0	No	2.926	0.024	n/a	NoResponse	0	n/a	n/a	1	19	Cue	Neutral	True
189.074	3.95	Control	0.7	0.0	No	2.926	0.0	n/a	NoResponse	0	n/a	n/a	1	19	Fixation	Neutral	True
193.022	0.21	Control	0.7	0.002	No	2.926	-0.002	2.0	NoResponse	0	0.327	192.349	1	19	Target	Neutral	True
193.239	0.49	Control	0.7	n/a	No	2.926	n/a	n/a	NoResponse	0	n/a	n/a	1	19	Blank	Neutral	True
193.349	0.3	Control	0.7	0.002	No	2.926	-0.002	2.0	NoResponse	0	0.327	n/a	1	19	ButtonPress	Neutral	True
193.722	1.45	Control	0.7	n/a	No	2.926	n/a	5.0	NoResponse	0	0.011	192.733	1	19	Feedback	Neutral	True
195.172	2.926	Control	0.7	n/a	No	2.926	n/a	n/a	NoResponse	0	0.0	n/a	1	19	ISIslide	Neutral	True
198.121	0.25	Control	0.6667000000000001	0.0	No	2.629	0.021	n/a	NoResponse	0	n/a	n/a	1	20	Cue	Neutral	False
198.371	4.05	Control	0.6667000000000001	0.0	No	2.629	0.0	n/a	NoResponse	0	n/a	n/a	1	20	Fixation	Neutral	False
202.419	0.2	Control	0.6667000000000001	0.002	No	2.629	-0.002	n/a	NoResponse	0	n/a	n/a	1	20	Target	Neutral	False
202.619	0.5	Control	0.6667000000000001	n/a	No	2.629	n/a	n/a	NoResponse	0	n/a	n/a	1	20	Blank	Neutral	False
203.119	1.45	Control	0.6667000000000001	n/a	No	2.629	n/a	5.0	NoResponse	0	0.028	202.147	1	20	Feedback	Neutral	False
204.568	2.629	Control	0.6667000000000001	n/a	No	2.629	n/a	n/a	NoResponse	0	0.0	n/a	1	20	ISIslide	Neutral	False
207.217	0.25	Control	0.6364	0.001	No	2.783	0.017	n/a	NoResponse	0	n/a	n/a	1	21	Cue	Neutral	True
207.467	4.1	Control	0.6364	0.0	No	2.783	0.0	n/a	NoResponse	0	n/a	n/a	1	21	Fixation	Neutral	True
211.566	0.19	Control	0.6364	0.001	No	2.783	-0.001	2.0	NoResponse	0	0.352	210.918	1	21	Target	Neutral	True
211.766	0.51	Control	0.6364	n/a	No	2.783	n/a	n/a	NoResponse	0	n/a	n/a	1	21	Blank	Neutral	True
211.918	0.3	Control	0.6364	0.001	No	2.783	-0.001	2.0	NoResponse	0	0.352	n/a	1	21	ButtonPress	Neutral	True
212.266	1.45	Control	0.6364	n/a	No	2.783	n/a	5.0	NoResponse	0	0.005	211.271	1	21	Feedback	Neutral	True
213.715	2.783	Control	0.6364	n/a	No	2.783	n/a	n/a	NoResponse	0	0.0	n/a	1	21	ISIslide	Neutral	True
216.514	0.25	Control	0.6087	0.0	No	2.786	0.014	n/a	NoResponse	0	n/a	n/a	1	22	Cue	Neutral	True
216.764	4.0	Control	0.6087	0.0	No	2.786	0.0	n/a	NoResponse	0	n/a	n/a	1	22	Fixation	Neutral	True
220.763	0.2	Control	0.6087	0.001	No	2.786	-0.001	2.0	NoResponse	0	0.251	220.014	1	22	Target	Neutral	True
220.963	0.5	Control	0.6087	n/a	No	2.786	n/a	n/a	NoResponse	0	n/a	n/a	1	22	Blank	Neutral	True
221.014	0.3	Control	0.6087	0.001	No	2.786	-0.001	2.0	NoResponse	0	0.251	n/a	1	22	ButtonPress	Neutral	True
221.463	1.45	Control	0.6087	n/a	No	2.786	n/a	5.0	NoResponse	0	0.026	220.489	1	22	Feedback	Neutral	True
222.912	2.786	Control	0.6087	n/a	No	2.786	n/a	n/a	NoResponse	0	0.0	n/a	1	22	ISIslide	Neutral	True
225.728	0.25	Control	0.5832999999999999	0.0	No	2.772	0.028	n/a	NoResponse	0	n/a	n/a	1	23	Cue	Neutral	True
225.978	3.9	Control	0.5832999999999999	0.0	No	2.772	0.0	n/a	NoResponse	0	n/a	n/a	1	23	Fixation	Neutral	True
229.876	0.21	Control	0.5832999999999999	0.002	No	2.772	-0.002	2.0	NoResponse	0	0.289	229.165	1	23	Target	Neutral	True
230.093	0.49	Control	0.5832999999999999	n/a	No	2.772	n/a	n/a	NoResponse	0	n/a	n/a	1	23	Blank	Neutral	True
230.165	0.3	Control	0.5832999999999999	0.002	No	2.772	-0.002	2.0	NoResponse	0	0.289	n/a	1	23	ButtonPress	Neutral	True
230.576	1.45	Control	0.5832999999999999	n/a	No	2.772	n/a	5.0	NoResponse	0	0.035	229.611	1	23	Feedback	Neutral	True
232.026	2.772	Control	0.5832999999999999	n/a	No	2.772	n/a	n/a	NoResponse	0	0.0	n/a	1	23	ISIslide	Neutral	True
234.825	0.25	Win2	0.56	0.0	No	3.125	0.025	n/a	NoResponse	0	n/a	n/a	1	24	Cue	MissedWin	False
235.075	3.95	Win2	0.56	0.0	No	3.125	0.0	n/a	NoResponse	0	n/a	n/a	1	24	Fixation	MissedWin	False
239.023	0.22	Win2	0.56	0.002	No	3.125	-0.002	n/a	NoResponse	0	n/a	n/a	1	24	Target	MissedWin	False
239.256	0.48	Win2	0.56	n/a	No	3.125	n/a	n/a	NoResponse	0	n/a	n/a	1	24	Blank	MissedWin	False
239.723	1.45	Win2	0.56	n/a	No	3.125	n/a	5.0	NoResponse	0	0.01	238.733	1	24	Feedback	MissedWin	False
241.172	3.125	Win2	0.56	n/a	No	3.125	n/a	n/a	NoResponse	0	0.0	n/a	1	24	ISIslide	MissedWin	False
244.321	0.25	Win2	0.5385	0.0	No	3.079	0.021	n/a	NoResponse	0	n/a	n/a	1	25	Cue	MissedWin	True
244.571	4.0	Win2	0.5385	0.0	No	3.079	0.0	n/a	NoResponse	0	n/a	n/a	1	25	Fixation	MissedWin	True
248.57	0.23	Win2	0.5385	0.001	No	3.079	-0.001	2.0	NoResponse	0	0.406	247.976	1	25	Target	MissedWin	True
248.803	0.47	Win2	0.5385	n/a	No	3.079	n/a	n/a	NoResponse	0	n/a	n/a	1	25	Blank	MissedWin	True
248.976	0.3	Win2	0.5385	0.001	No	3.079	-0.001	2.0	NoResponse	0	0.406	n/a	1	25	ButtonPress	MissedWin	True
249.27	1.45	Win2	0.5385	n/a	No	3.079	n/a	5.0	NoResponse	0	0.023	248.293	1	25	Feedback	MissedWin	True
250.719	3.079	Win2	0.5385	n/a	No	3.079	n/a	n/a	NoResponse	0	0.0	n/a	1	25	ISIslide	MissedWin	True
253.818	0.25	Win2	0.5185	0.0	No	2.932	0.018	n/a	NoResponse	0	n/a	n/a	1	26	Cue	MissedWin	False
254.068	3.95	Win2	0.5185	0.0	No	2.932	0.0	n/a	NoResponse	0	n/a	n/a	1	26	Fixation	MissedWin	False
258.017	0.24	Win2	0.5185	0.001	No	2.932	-0.001	n/a	NoResponse	0	n/a	n/a	1	26	Target	MissedWin	False
258.266	0.46	Win2	0.5185	n/a	No	2.932	n/a	n/a	NoResponse	0	n/a	n/a	1	26	Blank	MissedWin	False
258.716	1.45	Win2	0.5185	n/a	No	2.932	n/a	5.0	NoResponse	0	0.041	257.757	1	26	Feedback	MissedWin	False
260.166	2.932	Win2	0.5185	n/a	No	2.932	n/a	n/a	NoResponse	0	0.0	n/a	1	26	ISIslide	MissedWin	False
263.115	0.25	Lose2	0.5	0.0	No	2.835	0.015	n/a	NoResponse	-1	n/a	n/a	0	27	Cue	Loss	True
263.365	4.05	Lose2	0.5	0.0	No	2.835	0.0	n/a	NoResponse	-1	n/a	n/a	0	27	Fixation	Loss	True
267.413	0.25	Lose2	0.5	0.002	No	2.835	-0.002	2.0	NoResponse	-1	0.264	266.677	0	27	Target	Loss	True
267.663	0.45	Lose2	0.5	n/a	No	2.835	n/a	n/a	NoResponse	-1	n/a	n/a	0	27	Blank	Loss	True
267.677	0.3	Lose2	0.5	0.002	No	2.835	-0.002	2.0	NoResponse	-1	0.264	n/a	0	27	ButtonPress	Loss	True
268.113	1.45	Lose2	0.5	n/a	No	2.835	n/a	5.0	NoResponse	-1	0.01	267.123	0	27	Feedback	Loss	True
269.563	2.835	Lose2	0.5	n/a	No	2.835	n/a	n/a	NoResponse	-1	0.0	n/a	0	27	ISIslide	Loss	True
272.428	0.25	Control	0.4828	0.0	No	2.822	0.028	n/a	NoResponse	0	n/a	n/a	0	28	Cue	Neutral	False
272.678	4.05	Control	0.4828	0.0	No	2.822	0.0	n/a	NoResponse	0	n/a	n/a	0	28	Fixation	Neutral	False
276.727	0.26	Control	0.4828	0.001	No	2.822	-0.001	n/a	NoResponse	0	n/a	n/a	0	28	Target	Neutral	False
276.993	0.44	Control	0.4828	n/a	No	2.822	n/a	n/a	NoResponse	0	n/a	n/a	0	28	Blank	Neutral	False
277.427	1.45	Control	0.4828	n/a	No	2.822	n/a	5.0	NoResponse	0	0.013	276.44	0	28	Feedback	Neutral	False
278.876	2.822	Control	0.4828	n/a	No	2.822	n/a	n/a	NoResponse	0	0.0	n/a	0	28	ISIslide	Neutral	False
281.725	0.25	Lose2	0.5	0.0	Yes	2.825	0.025	n/a	GoodResponse	0	n/a	n/a	0	29	Cue	AvoidedLoss	True
281.975	3.95	Lose2	0.5	0.0	Yes	2.825	0.0	n/a	GoodResponse	0	n/a	n/a	0	29	Fixation	AvoidedLoss	True
285.924	0.27	Lose2	0.5	0.001	Yes	2.825	-0.001	2.0	GoodResponse	0	0.261	285.185	0	29	Target	AvoidedLoss	True
286.185	0.3	Lose2	0.5	0.001	Yes	2.825	-0.001	2.0	GoodResponse	0	0.261	n/a	0	29	ButtonPress	AvoidedLoss	True
286.207	0.43	Lose2	0.5	n/a	Yes	2.825	n/a	n/a	GoodResponse	0	n/a	n/a	0	29	Blank	AvoidedLoss	True
286.623	1.45	Lose2	0.5	n/a	Yes	2.825	n/a	5.0	GoodResponse	0	0.037	285.66	0	29	Feedback	AvoidedLoss	True
288.073	2.825	Lose2	0.5	n/a	Yes	2.825	n/a	n/a	GoodResponse	0	0.0	n/a	0	29	ISIslide	AvoidedLoss	True
290.922	0.25	Win2	0.4839	0.0	No	2.778	0.022	n/a	NoResponse	0	n/a	n/a	0	30	Cue	MissedWin	True
291.172	3.9	Win2	0.4839	0.0	No	2.778	0.0	n/a	NoResponse	0	n/a	n/a	0	30	Fixation	MissedWin	True
295.07	0.28	Win2	0.4839	0.002	No	2.778	-0.002	2.0	NoResponse	0	0.307	294.377	0	30	Target	MissedWin	True
295.354	0.42	Win2	0.4839	n/a	No	2.778	n/a	n/a	NoResponse	0	n/a	n/a	0	30	Blank	MissedWin	True
295.377	0.3	Win2	0.4839	0.002	No	2.778	-0.002	2.0	NoResponse	0	0.307	n/a	0	30	ButtonPress	MissedWin	True
295.77	1.45	Win2	0.4839	n/a	No	2.778	n/a	5.0	NoResponse	0	0.012	294.782	0	30	Feedback	MissedWin	True
297.22	2.778	Win2	0.4839	n/a	No	2.778	n/a	n/a	NoResponse	0	0.0	n/a	0	30	ISIslide	MissedWin	True
300.019	0.25	Lose2	0.5	0.0	Yes	2.831	0.019	n/a	GoodResponse	0	n/a	n/a	0	31	Cue	AvoidedLoss	True
300.269	4.05	Lose2	0.5	0.0	Yes	2.831	0.0	n/a	GoodResponse	0	n/a	n/a	0	31	Fixation	AvoidedLoss	True
304.317	0.29	Lose2	0.5	0.002	Yes	2.831	-0.002	2.0	GoodResponse	0	0.281	303.598	0	31	Target	AvoidedLoss	True
304.598	0.3	Lose2	0.5	0.002	Yes	2.831	-0.002	2.0	GoodResponse	0	0.281	n/a	0	31	ButtonPress	AvoidedLoss	True
304.617	0.41	Lose2	0.5	n/a	Yes	2.831	n/a	n/a	GoodResponse	0	n/a	n/a	0	31	Blank	AvoidedLoss	True
305.017	1.45	Lose2	0.5	n/a	Yes	2.831	n/a	5.0	GoodResponse	0	0.032	304.049	0	31	Feedback	AvoidedLoss	True
306.466	2.831	Lose2	0.5	n/a	Yes	2.831	n/a	n/a	GoodResponse	0	0.0	n/a	0	31	ISIslide	AvoidedLoss	True
309.316	0.25	Lose2	0.48479999999999995	0.0	No	2.634	0.016	n/a	NoResponse	-1	n/a	n/a	-1	32	Cue	Loss	True
309.565	4.15	Lose2	0.48479999999999995	0.001	No	2.634	-0.001	n/a	NoResponse	-1	n/a	n/a	-1	32	Fixation	Loss	True
313.714	0.3	Lose2	0.48479999999999995	0.002	No	2.634	-0.002	2.0	NoResponse	-1	0.316	313.03	-1	32	Target	Loss	True
314.014	0.4	Lose2	0.48479999999999995	n/a	No	2.634	n/a	n/a	NoResponse	-1	n/a	n/a	-1	32	Blank	Loss	True
314.03	0.3	Lose2	0.48479999999999995	0.002	No	2.634	-0.002	2.0	NoResponse	-1	0.316	n/a	-1	32	ButtonPress	Loss	True
314.414	1.45	Lose2	0.48479999999999995	n/a	No	2.634	n/a	5.0	NoResponse	-1	0.001	313.415	-1	32	Feedback	Loss	True
315.863	2.634	Lose2	0.48479999999999995	n/a	No	2.634	n/a	n/a	NoResponse	-1	0.0	n/a	-1	32	ISIslide	Loss	True
318.512	0.25	Win2	0.5	0.0	Yes	2.688	0.012	n/a	GoodResponse	1	n/a	n/a	0	33	Cue	Win	True
318.762	4.0	Win2	0.5	0.0	Yes	2.688	0.0	n/a	GoodResponse	1	n/a	n/a	0	33	Fixation	Win	True
322.761	0.31	Win2	0.5	0.001	Yes	2.688	-0.001	2.0	GoodResponse	1	0.243	322.004	0	33	Target	Win	True
323.004	0.3	Win2	0.5	0.001	Yes	2.688	-0.001	2.0	GoodResponse	1	0.243	n/a	0	33	ButtonPress	Win	True
323.077	0.39	Win2	0.5	n/a	Yes	2.688	n/a	n/a	GoodResponse	1	n/a	n/a	0	33	Blank	Win	True
323.461	1.45	Win2	0.5	n/a	Yes	2.688	n/a	5.0	GoodResponse	1	0.027	322.488	0	33	Feedback	Win	True
324.91	2.688	Win2	0.5	n/a	Yes	2.688	n/a	n/a	GoodResponse	1	0.0	n/a	0	33	ISIslide	Win	True
327.626	0.25	Lose2	0.5143	0.0	Yes	2.624	0.026	n/a	GoodResponse	0	n/a	n/a	0	34	Cue	AvoidedLoss	True
327.876	4.05	Lose2	0.5143	0.0	Yes	2.624	0.0	n/a	GoodResponse	0	n/a	n/a	0	34	Fixation	AvoidedLoss	True
331.924	0.32	Lose2	0.5143	0.002	Yes	2.624	-0.002	2.0	GoodResponse	0	0.276	331.2	0	34	Target	AvoidedLoss	True
332.2	0.3	Lose2	0.5143	0.002	Yes	2.624	-0.002	2.0	GoodResponse	0	0.276	n/a	0	34	ButtonPress	AvoidedLoss	True
332.258	0.38	Lose2	0.5143	n/a	Yes	2.624	n/a	n/a	GoodResponse	0	n/a	n/a	0	34	Blank	AvoidedLoss	True
332.624	1.45	Lose2	0.5143	n/a	Yes	2.624	n/a	5.0	GoodResponse	0	0.035	331.659	0	34	Feedback	AvoidedLoss	True
334.074	2.624	Lose2	0.5143	n/a	Yes	2.624	n/a	n/a	GoodResponse	0	0.0	n/a	0	34	ISIslide	AvoidedLoss	True
336.723	0.25	Lose2	0.5	0.0	No	2.677	0.023	n/a	NoResponse	-1	n/a	n/a	-1	35	Cue	Loss	True
336.973	4.0	Lose2	0.5	0.0	No	2.677	0.0	n/a	NoResponse	-1	n/a	n/a	-1	35	Fixation	Loss	True
340.971	0.33	Lose2	0.5	0.002	No	2.677	-0.002	2.0	NoResponse	-1	0.389	340.36	-1	35	Target	Loss	True
341.304	0.37	Lose2	0.5	n/a	No	2.677	n/a	n/a	NoResponse	-1	n/a	n/a	-1	35	Blank	Loss	True
341.36	0.3	Lose2	0.5	0.002	No	2.677	-0.002	2.0	NoResponse	-1	0.389	n/a	-1	35	ButtonPress	Loss	True
341.671	1.45	Lose2	0.5	n/a	No	2.677	n/a	5.0	NoResponse	-1	0.013	340.684	-1	35	Feedback	Loss	True
343.12	2.677	Lose2	0.5	n/a	No	2.677	n/a	n/a	NoResponse	-1	0.0	n/a	-1	35	ISIslide	Loss	True
345.82	0.25	Control	0.5135000000000001	0.0	Yes	2.68	0.02	n/a	GoodResponse	0	n/a	n/a	-1	36	Cue	Neutral	True
346.069	4.0	Control	0.5135000000000001	0.001	Yes	2.68	-0.001	n/a	GoodResponse	0	n/a	n/a	-1	36	Fixation	Neutral	True
350.068	0.34	Control	0.5135000000000001	0.002	Yes	2.68	-0.002	2.0	GoodResponse	0	0.282	349.35	-1	36	Target	Neutral	True
350.35	0.3	Control	0.5135000000000001	0.002	Yes	2.68	-0.002	2.0	GoodResponse	0	0.282	n/a	-1	36	ButtonPress	Neutral	True
350.418	0.36	Control	0.5135000000000001	n/a	Yes	2.68	n/a	n/a	GoodResponse	0	n/a	n/a	-1	36	Blank	Neutral	True
350.768	1.45	Control	0.5135000000000001	n/a	Yes	2.68	n/a	5.0	GoodResponse	0	0.038	349.806	-1	36	Feedback	Neutral	True
352.217	2.68	Control	0.5135000000000001	n/a	Yes	2.68	n/a	n/a	GoodResponse	0	0.0	n/a	-1	36	ISIslide	Neutral	True
354.916	0.25	Win2	0.5263	0.0	Yes	2.884	0.016	n/a	GoodResponse	1	n/a	n/a	0	37	Cue	Win	True
355.166	4.0	Win2	0.5263	0.0	Yes	2.884	0.0	n/a	GoodResponse	1	n/a	n/a	0	37	Fixation	Win	True
359.165	0.35	Win2	0.5263	0.001	Yes	2.884	-0.001	2.0	GoodResponse	1	0.215	358.38	0	37	Target	Win	True
359.38	0.3	Win2	0.5263	0.001	Yes	2.884	-0.001	2.0	GoodResponse	1	0.215	n/a	0	37	ButtonPress	Win	True
359.515	0.35	Win2	0.5263	n/a	Yes	2.884	n/a	n/a	GoodResponse	1	n/a	n/a	0	37	Blank	Win	True
359.865	1.45	Win2	0.5263	n/a	Yes	2.884	n/a	5.0	GoodResponse	1	0.014	358.879	0	37	Feedback	Win	True
361.314	2.884	Win2	0.5263	n/a	Yes	2.884	n/a	n/a	GoodResponse	1	0.0	n/a	0	37	ISIslide	Win	True
364.23	0.25	Lose2	0.5385	0.0	Yes	2.82	0.03	n/a	GoodResponse	0	n/a	n/a	0	38	Cue	AvoidedLoss	True
364.48	3.95	Lose2	0.5385	0.0	Yes	2.82	0.0	n/a	GoodResponse	0	n/a	n/a	0	38	Fixation	AvoidedLoss	True
368.428	0.36	Lose2	0.5385	0.002	Yes	2.82	-0.002	2.0	GoodResponse	0	0.284	367.712	0	38	Target	AvoidedLoss	True
368.712	0.3	Lose2	0.5385	0.002	Yes	2.82	-0.002	2.0	GoodResponse	0	0.284	n/a	0	38	ButtonPress	AvoidedLoss	True
368.795	0.34	Lose2	0.5385	n/a	Yes	2.82	n/a	n/a	GoodResponse	0	n/a	n/a	0	38	Blank	AvoidedLoss	True
369.128	1.45	Lose2	0.5385	n/a	Yes	2.82	n/a	5.0	GoodResponse	0	0.019	368.147	0	38	Feedback	AvoidedLoss	True
370.578	2.82	Lose2	0.5385	n/a	Yes	2.82	n/a	n/a	GoodResponse	0	0.0	n/a	0	38	ISIslide	AvoidedLoss	True
373.427	0.25	Win2	0.55	0.0	Yes	2.973	0.027	n/a	GoodResponse	1	n/a	n/a	1	39	Cue	Win	True
373.677	4.1	Win2	0.55	0.0	Yes	2.973	0.0	n/a	GoodResponse	1	n/a	n/a	1	39	Fixation	Win	True
377.775	0.37	Win2	0.55	0.002	Yes	2.973	-0.002	2.0	GoodResponse	1	0.255	377.03	1	39	Target	Win	True
378.03	0.3	Win2	0.55	0.002	Yes	2.973	-0.002	2.0	GoodResponse	1	0.255	n/a	1	39	ButtonPress	Win	True
378.158	0.33	Win2	0.55	n/a	Yes	2.973	n/a	n/a	GoodResponse	1	n/a	n/a	1	39	Blank	Win	True
378.475	1.45	Win2	0.55	n/a	Yes	2.973	n/a	5.0	GoodResponse	1	0.038	377.513	1	39	Feedback	Win	True
379.924	2.973	Win2	0.55	n/a	Yes	2.973	n/a	n/a	GoodResponse	1	0.0	n/a	1	39	ISIslide	Win	True
382.923	0.25	Win2	0.561	0.0	Yes	2.727	0.023	n/a	GoodResponse	1	n/a	n/a	2	40	Cue	Win	True
383.173	3.95	Win2	0.561	0.0	Yes	2.727	0.0	n/a	GoodResponse	1	n/a	n/a	2	40	Fixation	Win	True
387.122	0.38	Win2	0.561	0.001	Yes	2.727	-0.001	2.0	GoodResponse	1	0.257	386.379	2	40	Target	Win	True
387.379	0.3	Win2	0.561	0.001	Yes	2.727	-0.001	2.0	GoodResponse	1	0.257	n/a	2	40	ButtonPress	Win	True
387.505	0.32	Win2	0.561	n/a	Yes	2.727	n/a	n/a	GoodResponse	1	n/a	n/a	2	40	Blank	Win	True
387.822	1.45	Win2	0.561	n/a	Yes	2.727	n/a	5.0	GoodResponse	1	0.008	386.83	2	40	Feedback	Win	True
389.271	2.727	Win2	0.561	n/a	Yes	2.727	n/a	n/a	GoodResponse	1	0.0	n/a	2	40	ISIslide	Win	True
392.02	0.25	Win2	0.5714	0.0	Yes	2.78	0.02	n/a	GoodResponse	1	n/a	n/a	3	41	Cue	Win	True
392.27	3.9	Win2	0.5714	0.0	Yes	2.78	0.0	n/a	GoodResponse	1	n/a	n/a	3	41	Fixation	Win	True
396.169	0.39	Win2	0.5714	0.001	Yes	2.78	-0.001	2.0	GoodResponse	1	0.38	395.549	3	41	Target	Win	True
396.549	0.3	Win2	0.5714	0.001	Yes	2.78	-0.001	2.0	GoodResponse	1	0.38	n/a	3	41	ButtonPress	Win	True
396.569	0.31	Win2	0.5714	n/a	Yes	2.78	n/a	n/a	GoodResponse	1	n/a	n/a	3	41	Blank	Win	True
396.869	1.45	Win2	0.5714	n/a	Yes	2.78	n/a	5.0	GoodResponse	1	0.034	395.903	3	41	Feedback	Win	True
398.318	2.78	Win2	0.5714	n/a	Yes	2.78	n/a	n/a	GoodResponse	1	0.0	n/a	3	41	ISIslide	Win	True
401.117	0.25	Control	0.5581	0.0	No	2.933	0.017	n/a	NoResponse	0	n/a	n/a	3	42	Cue	Neutral	True
401.367	3.85	Control	0.5581	0.0	No	2.933	0.0	n/a	NoResponse	0	n/a	n/a	3	42	Fixation	Neutral	True
405.216	0.4	Control	0.5581	0.001	No	2.933	-0.001	2.0	NoResponse	0	0.449	404.665	3	42	Target	Neutral	True
405.616	0.3	Control	0.5581	n/a	No	2.933	n/a	n/a	NoResponse	0	n/a	n/a	3	42	Blank	Neutral	True
405.665	0.3	Control	0.5581	0.001	No	2.933	-0.001	2.0	NoResponse	0	0.449	n/a	3	42	ButtonPress	Neutral	True
405.915	1.45	Control	0.5581	n/a	No	2.933	n/a	5.0	NoResponse	0	0.012	404.927	3	42	Feedback	Neutral	True
407.365	2.933	Control	0.5581	n/a	No	2.933	n/a	n/a	NoResponse	0	0.0	n/a	3	42	ISIslide	Neutral	True
410.314	0.25	Win2	0.5682	0.0	Yes	3.186	0.014	n/a	GoodResponse	1	n/a	n/a	4	43	Cue	Win	True
410.564	4.0	Win2	0.5682	0.0	Yes	3.186	0.0	n/a	GoodResponse	1	n/a	n/a	4	43	Fixation	Win	True
414.562	0.41	Win2	0.5682	0.002	Yes	3.186	-0.002	2.0	GoodResponse	1	0.272	413.834	4	43	Target	Win	True
414.834	0.3	Win2	0.5682	0.002	Yes	3.186	-0.002	2.0	GoodResponse	1	0.272	n/a	4	43	ButtonPress	Win	True
414.979	0.29	Win2	0.5682	n/a	Yes	3.186	n/a	n/a	GoodResponse	1	n/a	n/a	4	43	Blank	Win	True
415.262	1.45	Win2	0.5682	n/a	Yes	3.186	n/a	5.0	GoodResponse	1	0.031	414.293	4	43	Feedback	Win	True
416.712	3.186	Win2	0.5682	n/a	Yes	3.186	n/a	n/a	GoodResponse	1	0.0	n/a	4	43	ISIslide	Win	True
419.927	0.25	Win2	0.5778	0.0	Yes	2.973	0.027	n/a	GoodResponse	1	n/a	n/a	5	44	Cue	Win	True
420.177	4.0	Win2	0.5778	0.0	Yes	2.973	0.0	n/a	GoodResponse	1	n/a	n/a	5	44	Fixation	Win	True
424.176	0.42	Win2	0.5778	0.001	Yes	2.973	-0.001	2.0	GoodResponse	1	0.242	423.418	5	44	Target	Win	True
424.418	0.3	Win2	0.5778	0.001	Yes	2.973	-0.001	2.0	GoodResponse	1	0.242	n/a	5	44	ButtonPress	Win	True
424.609	0.28	Win2	0.5778	n/a	Yes	2.973	n/a	n/a	GoodResponse	1	n/a	n/a	5	44	Blank	Win	True
424.876	1.45	Win2	0.5778	n/a	Yes	2.973	n/a	5.0	GoodResponse	1	0.026	423.902	5	44	Feedback	Win	True
426.325	2.973	Win2	0.5778	n/a	Yes	2.973	n/a	n/a	GoodResponse	1	0.0	n/a	5	44	ISIslide	Win	True
429.324	0.25	Control	0.5652	0.0	No	2.876	0.024	n/a	NoResponse	0	n/a	n/a	5	45	Cue	Neutral	False
429.574	4.1	Control	0.5652	0.0	No	2.876	0.0	n/a	NoResponse	0	n/a	n/a	5	45	Fixation	Neutral	False
433.673	0.43	Control	0.5652	0.001	No	2.876	-0.001	n/a	NoResponse	0	n/a	n/a	5	45	Target	Neutral	False
434.106	0.27	Control	0.5652	n/a	No	2.876	n/a	n/a	NoResponse	0	n/a	n/a	5	45	Blank	Neutral	False
434.372	1.45	Control	0.5652	n/a	No	2.876	n/a	5.0	NoResponse	0	0.043	433.415	5	45	Feedback	Neutral	False
435.822	2.876	Control	0.5652	n/a	No	2.876	n/a	n/a	NoResponse	0	0.0	n/a	5	45	ISIslide	Neutral	False
438.721	0.25	Lose2	0.5745	0.0	Yes	3.379	0.021	n/a	GoodResponse	0	n/a	n/a	5	46	Cue	AvoidedLoss	True
438.971	4.0	Lose2	0.5745	0.0	Yes	3.379	0.0	n/a	GoodResponse	0	n/a	n/a	5	46	Fixation	AvoidedLoss	True
442.969	0.44	Lose2	0.5745	0.002	Yes	3.379	-0.002	2.0	GoodResponse	0	0.277	442.246	5	46	Target	AvoidedLoss	True
443.246	0.3	Lose2	0.5745	0.002	Yes	3.379	-0.002	2.0	GoodResponse	0	0.277	n/a	5	46	ButtonPress	AvoidedLoss	True
443.419	0.26	Lose2	0.5745	n/a	Yes	3.379	n/a	n/a	GoodResponse	0	n/a	n/a	5	46	Blank	AvoidedLoss	True
443.669	1.45	Lose2	0.5745	n/a	Yes	3.379	n/a	5.0	GoodResponse	0	0.014	442.683	5	46	Feedback	AvoidedLoss	True
445.119	3.379	Lose2	0.5745	n/a	Yes	3.379	n/a	n/a	GoodResponse	0	0.0	n/a	5	46	ISIslide	AvoidedLoss	True
448.517	0.25	Lose2	0.5832999999999999	0.0	Yes	2.683	0.017	n/a	GoodResponse	0	n/a	n/a	5	47	Cue	AvoidedLoss	True
448.767	4.0	Lose2	0.5832999999999999	0.0	Yes	2.683	0.0	n/a	GoodResponse	0	n/a	n/a	5	47	Fixation	AvoidedLoss	True
452.766	0.45	Lose2	0.5832999999999999	0.001	Yes	2.683	-0.001	2.0	GoodResponse	0	0.223	451.989	5	47	Target	AvoidedLoss	True
452.989	0.3	Lose2	0.5832999999999999	0.001	Yes	2.683	-0.001	2.0	GoodResponse	0	0.223	n/a	5	47	ButtonPress	AvoidedLoss	True
453.216	0.25	Lose2	0.5832999999999999	n/a	Yes	2.683	n/a	n/a	GoodResponse	0	n/a	n/a	5	47	Blank	AvoidedLoss	True
453.466	1.45	Lose2	0.5832999999999999	n/a	Yes	2.683	n/a	5.0	GoodResponse	0	0.022	452.488	5	47	Feedback	AvoidedLoss	True
454.915	2.683	Lose2	0.5832999999999999	n/a	Yes	2.683	n/a	n/a	GoodResponse	0	0.0	n/a	5	47	ISIslide	AvoidedLoss	True
457.614	0.25	Lose2	0.5918	0.0	Yes	3.036	0.014	n/a	GoodResponse	0	n/a	n/a	5	48	Cue	AvoidedLoss	True
457.864	3.95	Lose2	0.5918	0.0	Yes	3.036	0.0	n/a	GoodResponse	0	n/a	n/a	5	48	Fixation	AvoidedLoss	True
461.813	0.46	Lose2	0.5918	0.001	Yes	3.036	-0.001	2.0	GoodResponse	0	0.245	461.058	5	48	Target	AvoidedLoss	True
462.058	0.3	Lose2	0.5918	0.001	Yes	3.036	-0.001	2.0	GoodResponse	0	0.245	n/a	5	48	ButtonPress	AvoidedLoss	True
462.279	0.24	Lose2	0.5918	n/a	Yes	3.036	n/a	n/a	GoodResponse	0	n/a	n/a	5	48	Blank	AvoidedLoss	True
462.513	1.45	Lose2	0.5918	n/a	Yes	3.036	n/a	5.0	GoodResponse	0	0.0	461.513	5	48	Feedback	AvoidedLoss	True
463.962	3.036	Lose2	0.5918	n/a	Yes	3.036	n/a	n/a	GoodResponse	0	0.0	n/a	5	48	ISIslide	AvoidedLoss	True
467.011	0.25	Control	0.6	0.0	Yes	2.889	0.011	n/a	GoodResponse	0	n/a	n/a	5	49	Cue	Neutral	True
467.261	4.0	Control	0.6	0.0	Yes	2.889	0.0	n/a	GoodResponse	0	n/a	n/a	5	49	Fixation	Neutral	True
471.26	0.47	Control	0.6	0.001	Yes	2.889	-0.001	2.0	GoodResponse	0	0.34	470.6	5	49	Target	Neutral	True
471.6	0.3	Control	0.6	0.001	Yes	2.889	-0.001	2.0	GoodResponse	0	0.34	n/a	5	49	ButtonPress	Neutral	True
471.743	0.23	Control	0.6	n/a	Yes	2.889	n/a	n/a	GoodResponse	0	n/a	n/a	5	49	Blank	Neutral	True
471.959	1.45	Control	0.6	n/a	Yes	2.889	n/a	5.0	GoodResponse	0	0.017	470.976	5	49	Feedback	Neutral	True
473.409	2.889	Control	0.6	n/a	Yes	2.889	n/a	n/a	GoodResponse	0	0.0	n/a	5	49	ISIslide	Neutral	True
476.324	0.25	Control	0.6078	0.001	Yes	2.776	0.024	n/a	GoodResponse	0	n/a	n/a	5	50	Cue	Neutral	True
476.574	4.0	Control	0.6078	0.0	Yes	2.776	0.0	n/a	GoodResponse	0	n/a	n/a	5	50	Fixation	Neutral	True
480.573	0.48	Control	0.6078	0.001	Yes	2.776	-0.001	2.0	GoodResponse	0	0.254	479.827	5	50	Target	Neutral	True
480.827	0.3	Control	0.6078	0.001	Yes	2.776	-0.001	2.0	GoodResponse	0	0.254	n/a	5	50	ButtonPress	Neutral	True
481.056	0.22	Control	0.6078	n/a	Yes	2.776	n/a	n/a	GoodResponse	0	n/a	n/a	5	50	Blank	Neutral	True
481.273	1.45	Control	0.6078	n/a	Yes	2.776	n/a	5.0	GoodResponse	0	0.02	480.293	5	50	Feedback	Neutral	True
482.722	2.776	Control	0.6078	n/a	Yes	2.776	n/a	n/a	GoodResponse	0	0.0	n/a	5	50	ISIslide	Neutral	True
485.521	0.25	Control	0.6154	0.0	Yes	2.729	0.021	n/a	GoodResponse	0	n/a	n/a	5	51	Cue	Neutral	True
485.771	3.95	Control	0.6154	0.0	Yes	2.729	0.0	n/a	GoodResponse	0	n/a	n/a	5	51	Fixation	Neutral	True
489.72	0.49	Control	0.6154	0.001	Yes	2.729	-0.001	2.0	GoodResponse	0	0.375	489.095	5	51	Target	Neutral	True
490.095	0.3	Control	0.6154	0.001	Yes	2.729	-0.001	2.0	GoodResponse	0	0.375	n/a	5	51	ButtonPress	Neutral	True
490.22	0.21	Control	0.6154	n/a	Yes	2.729	n/a	n/a	GoodResponse	0	n/a	n/a	5	51	Blank	Neutral	True
490.42	1.45	Control	0.6154	n/a	Yes	2.729	n/a	5.0	GoodResponse	0	0.043	489.463	5	51	Feedback	Neutral	True
491.869	2.729	Control	0.6154	n/a	Yes	2.729	n/a	n/a	GoodResponse	0	0.0	n/a	5	51	ISIslide	Neutral	True
494.618	0.25	Control	0.6225999999999999	0.0	Yes	2.632	0.018	n/a	GoodResponse	0	n/a	n/a	5	52	Cue	Neutral	True
494.868	4.05	Control	0.6225999999999999	0.0	Yes	2.632	0.0	n/a	GoodResponse	0	n/a	n/a	5	52	Fixation	Neutral	True
498.917	0.5	Control	0.6225999999999999	0.001	Yes	2.632	-0.001	2.0	GoodResponse	0	0.26	498.177	5	52	Target	Neutral	True
499.177	0.3	Control	0.6225999999999999	0.001	Yes	2.632	-0.001	2.0	GoodResponse	0	0.26	n/a	5	52	ButtonPress	Neutral	True
499.416	0.2	Control	0.6225999999999999	n/a	Yes	2.632	n/a	n/a	GoodResponse	0	n/a	n/a	5	52	Blank	Neutral	True
499.616	1.45	Control	0.6225999999999999	n/a	Yes	2.632	n/a	5.0	GoodResponse	0	0.018	498.634	5	52	Feedback	Neutral	True
501.066	2.632	Control	0.6225999999999999	n/a	Yes	2.632	n/a	n/a	GoodResponse	0	0.0	n/a	5	52	ISIslide	Neutral	True
503.715	0.25	Win2	0.6296	0.0	Yes	2.935	0.015	n/a	GoodResponse	1	n/a	n/a	6	53	Cue	Win	True
503.965	4.05	Win2	0.6296	0.0	Yes	2.935	0.0	n/a	GoodResponse	1	n/a	n/a	6	53	Fixation	Win	True
508.013	0.5	Win2	0.6296	0.002	Yes	2.935	-0.002	2.0	GoodResponse	1	0.268	507.281	6	53	Target	Win	True
508.281	0.3	Win2	0.6296	0.002	Yes	2.935	-0.002	2.0	GoodResponse	1	0.268	n/a	6	53	ButtonPress	Win	True
508.513	0.2	Win2	0.6296	n/a	Yes	2.935	n/a	n/a	GoodResponse	1	n/a	n/a	6	53	Blank	Win	True
508.713	1.45	Win2	0.6296	n/a	Yes	2.935	n/a	5.0	GoodResponse	1	0.043	507.756	6	53	Feedback	Win	True
510.163	2.935	Win2	0.6296	n/a	Yes	2.935	n/a	n/a	GoodResponse	1	0.0	n/a	6	53	ISIslide	Win	True
513.112	0.25	Win2	0.6364	0.0	Yes	2.738	0.012	n/a	GoodResponse	1	n/a	n/a	7	54	Cue	Win	True
513.362	3.95	Win2	0.6364	0.0	Yes	2.738	0.0	n/a	GoodResponse	1	n/a	n/a	7	54	Fixation	Win	True
517.31	0.5	Win2	0.6364	0.002	Yes	2.738	-0.002	2.0	GoodResponse	1	0.24	516.55	7	54	Target	Win	True
517.55	0.3	Win2	0.6364	0.002	Yes	2.738	-0.002	2.0	GoodResponse	1	0.24	n/a	7	54	ButtonPress	Win	True
517.81	0.2	Win2	0.6364	n/a	Yes	2.738	n/a	n/a	GoodResponse	1	n/a	n/a	7	54	Blank	Win	True
518.01	1.45	Win2	0.6364	n/a	Yes	2.738	n/a	5.0	GoodResponse	1	0.014	517.024	7	54	Feedback	Win	True
519.46	2.738	Win2	0.6364	n/a	Yes	2.738	n/a	n/a	GoodResponse	1	0.0	n/a	7	54	ISIslide	Win	True
522.225	0.25	Control	0.6429	0.0	Yes	3.025	0.025	n/a	GoodResponse	0	n/a	n/a	7	55	Cue	Neutral	True
522.475	3.95	Control	0.6429	0.0	Yes	3.025	0.0	n/a	GoodResponse	0	n/a	n/a	7	55	Fixation	Neutral	True
526.424	0.5	Control	0.6429	0.001	Yes	3.025	-0.001	2.0	GoodResponse	0	0.298	525.722	7	55	Target	Neutral	True
526.722	0.3	Control	0.6429	0.001	Yes	3.025	-0.001	2.0	GoodResponse	0	0.298	n/a	7	55	ButtonPress	Neutral	True
526.924	0.2	Control	0.6429	n/a	Yes	3.025	n/a	n/a	GoodResponse	0	n/a	n/a	7	55	Blank	Neutral	True
527.124	1.45	Control	0.6429	n/a	Yes	3.025	n/a	5.0	GoodResponse	0	0.023	526.147	7	55	Feedback	Neutral	True
528.573	3.025	Control	0.6429	n/a	Yes	3.025	n/a	n/a	GoodResponse	0	0.0	n/a	7	55	ISIslide	Neutral	True
531.622	0.25	Control	0.6491	0.0	Yes	2.828	0.022	n/a	GoodResponse	0	n/a	n/a	7	56	Cue	Neutral	True
531.872	3.95	Control	0.6491	0.0	Yes	2.828	0.0	n/a	GoodResponse	0	n/a	n/a	7	56	Fixation	Neutral	True
535.821	0.5	Control	0.6491	0.001	Yes	2.828	-0.001	2.0	GoodResponse	0	0.385	535.206	7	56	Target	Neutral	True
536.206	0.3	Control	0.6491	0.001	Yes	2.828	-0.001	2.0	GoodResponse	0	0.385	n/a	7	56	ButtonPress	Neutral	True
536.32	0.2	Control	0.6491	n/a	Yes	2.828	n/a	n/a	GoodResponse	0	n/a	n/a	7	56	Blank	Neutral	True
536.52	1.45	Control	0.6491	n/a	Yes	2.828	n/a	5.0	GoodResponse	0	0.041	535.561	7	56	Feedback	Neutral	True
537.97	2.828	Control	0.6491	n/a	Yes	2.828	n/a	n/a	GoodResponse	0	0.0	n/a	7	56	ISIslide	Neutral	True
540.819	0.25	Control	0.6552	0.0	Yes	3.481	0.019	n/a	GoodResponse	0	n/a	n/a	7	57	Cue	Neutral	True
541.069	4.0	Control	0.6552	0.0	Yes	3.481	0.0	n/a	GoodResponse	0	n/a	n/a	7	57	Fixation	Neutral	True
545.067	0.5	Control	0.6552	0.002	Yes	3.481	-0.002	2.0	GoodResponse	0	0.31	544.377	7	57	Target	Neutral	True
545.377	0.3	Control	0.6552	0.002	Yes	3.481	-0.002	2.0	GoodResponse	0	0.31	n/a	7	57	ButtonPress	Neutral	True
545.567	0.2	Control	0.6552	n/a	Yes	3.481	n/a	n/a	GoodResponse	0	n/a	n/a	7	57	Blank	Neutral	True
545.767	1.45	Control	0.6552	n/a	Yes	3.481	n/a	5.0	GoodResponse	0	0.013	544.78	7	57	Feedback	Neutral	True
547.217	3.481	Control	0.6552	n/a	Yes	3.481	n/a	n/a	GoodResponse	0	0.0	n/a	7	57	ISIslide	Neutral	True
550.715	0.25	Win2	0.6609999999999999	0.0	Yes	2.735	0.015	n/a	GoodResponse	1	n/a	n/a	8	58	Cue	Win	True
550.965	4.05	Win2	0.6609999999999999	0.0	Yes	2.735	0.0	n/a	GoodResponse	1	n/a	n/a	8	58	Fixation	Win	True
555.014	0.5	Win2	0.6609999999999999	0.001	Yes	2.735	-0.001	2.0	GoodResponse	1	0.343	554.357	8	58	Target	Win	True
555.357	0.3	Win2	0.6609999999999999	0.001	Yes	2.735	-0.001	2.0	GoodResponse	1	0.343	n/a	8	58	ButtonPress	Win	True
555.514	0.2	Win2	0.6609999999999999	n/a	Yes	2.735	n/a	n/a	GoodResponse	1	n/a	n/a	8	58	Blank	Win	True
555.714	1.45	Win2	0.6609999999999999	n/a	Yes	2.735	n/a	5.0	GoodResponse	1	0.017	554.731	8	58	Feedback	Win	True
557.163	2.735	Win2	0.6609999999999999	n/a	Yes	2.735	n/a	n/a	GoodResponse	1	0.0	n/a	8	58	ISIslide	Win	True
559.912	0.25	Lose2	0.6667000000000001	0.0	Yes	2.688	0.012	n/a	GoodResponse	0	n/a	n/a	8	59	Cue	AvoidedLoss	True
560.162	4.0	Lose2	0.6667000000000001	0.0	Yes	2.688	0.0	n/a	GoodResponse	0	n/a	n/a	8	59	Fixation	AvoidedLoss	True
564.161	0.5	Lose2	0.6667000000000001	0.001	Yes	2.688	-0.001	2.0	GoodResponse	0	0.369	563.53	8	59	Target	AvoidedLoss	True
564.53	0.3	Lose2	0.6667000000000001	0.001	Yes	2.688	-0.001	2.0	GoodResponse	0	0.369	n/a	8	59	ButtonPress	AvoidedLoss	True
564.661	0.2	Lose2	0.6667000000000001	n/a	Yes	2.688	n/a	n/a	GoodResponse	0	n/a	n/a	8	59	Blank	AvoidedLoss	True
564.86	1.45	Lose2	0.6667000000000001	n/a	Yes	2.688	n/a	5.0	GoodResponse	0	0.042	563.902	8	59	Feedback	AvoidedLoss	True
566.31	2.688	Lose2	0.6667000000000001	n/a	Yes	2.688	n/a	n/a	GoodResponse	0	0.0	n/a	8	59	ISIslide	AvoidedLoss	True
569.026	0.25	Control	0.6557	0.0	No	2.674	0.026	n/a	NoResponse	0	n/a	n/a	8	60	Cue	Neutral	False
569.276	4.0	Control	0.6557	0.0	No	2.674	0.0	n/a	NoResponse	0	n/a	n/a	8	60	Fixation	Neutral	False
573.274	0.49	Control	0.6557	0.002	No	2.674	-0.002	n/a	NoResponse	0	n/a	n/a	8	60	Target	Neutral	False
573.774	0.21	Control	0.6557	n/a	No	2.674	n/a	n/a	NoResponse	0	n/a	n/a	8	60	Blank	Neutral	False
573.974	1.45	Control	0.6557	n/a	No	2.674	n/a	5.0	NoResponse	0	0.001	572.975	8	60	Feedback	Neutral	False
575.423	2.674	Control	0.6557	n/a	No	2.674	n/a	n/a	NoResponse	0	0.0	n/a	8	60	ISIslide	Neutral	False
578.123	0.25	Lose2	0.6613	0.0	Yes	2.977	0.023	n/a	GoodResponse	0	n/a	n/a	8	61	Cue	AvoidedLoss	True
578.372	4.0	Lose2	0.6613	0.001	Yes	2.977	-0.001	n/a	GoodResponse	0	n/a	n/a	8	61	Fixation	AvoidedLoss	True
582.371	0.49	Lose2	0.6613	0.002	Yes	2.977	-0.002	2.0	GoodResponse	0	0.277	581.648	8	61	Target	AvoidedLoss	True
582.648	0.3	Lose2	0.6613	0.002	Yes	2.977	-0.002	2.0	GoodResponse	0	0.277	n/a	8	61	ButtonPress	AvoidedLoss	True
582.871	0.21	Lose2	0.6613	n/a	Yes	2.977	n/a	n/a	GoodResponse	0	n/a	n/a	8	61	Blank	AvoidedLoss	True
583.071	1.45	Lose2	0.6613	n/a	Yes	2.977	n/a	5.0	GoodResponse	0	0.026	582.097	8	61	Feedback	AvoidedLoss	True
584.52	2.977	Lose2	0.6613	n/a	Yes	2.977	n/a	n/a	GoodResponse	0	0.0	n/a	8	61	ISIslide	AvoidedLoss	True
587.519	0.25	Lose2	0.6667000000000001	0.0	Yes	2.881	0.019	n/a	GoodResponse	0	n/a	n/a	8	62	Cue	AvoidedLoss	True
587.769	3.9	Lose2	0.6667000000000001	0.0	Yes	2.881	0.0	n/a	GoodResponse	0	n/a	n/a	8	62	Fixation	AvoidedLoss	True
591.668	0.49	Lose2	0.6667000000000001	0.001	Yes	2.881	-0.001	2.0	GoodResponse	0	0.237	590.905	8	62	Target	AvoidedLoss	True
591.905	0.3	Lose2	0.6667000000000001	0.001	Yes	2.881	-0.001	2.0	GoodResponse	0	0.237	n/a	8	62	ButtonPress	AvoidedLoss	True
592.168	0.21	Lose2	0.6667000000000001	n/a	Yes	2.881	n/a	n/a	GoodResponse	0	n/a	n/a	8	62	Blank	AvoidedLoss	True
592.368	1.45	Lose2	0.6667000000000001	n/a	Yes	2.881	n/a	5.0	GoodResponse	0	0.047	591.415	8	62	Feedback	AvoidedLoss	True
593.817	2.881	Lose2	0.6667000000000001	n/a	Yes	2.881	n/a	n/a	GoodResponse	0	0.0	n/a	8	62	ISIslide	AvoidedLoss	True
596.716	0.25	Lose2	0.6718999999999999	0.0	Yes	2.634	0.016	n/a	GoodResponse	0	n/a	n/a	8	63	Cue	AvoidedLoss	True
596.966	4.05	Lose2	0.6718999999999999	0.0	Yes	2.634	0.0	n/a	GoodResponse	0	n/a	n/a	8	63	Fixation	AvoidedLoss	True
601.015	0.48	Lose2	0.6718999999999999	0.001	Yes	2.634	-0.001	2.0	GoodResponse	0	0.221	600.236	8	63	Target	AvoidedLoss	True
601.236	0.3	Lose2	0.6718999999999999	0.001	Yes	2.634	-0.001	2.0	GoodResponse	0	0.221	n/a	8	63	ButtonPress	AvoidedLoss	True
601.498	0.22	Lose2	0.6718999999999999	n/a	Yes	2.634	n/a	n/a	GoodResponse	0	n/a	n/a	8	63	Blank	AvoidedLoss	True
601.714	1.45	Lose2	0.6718999999999999	n/a	Yes	2.634	n/a	5.0	GoodResponse	0	0.018	600.732	8	63	Feedback	AvoidedLoss	True
603.164	2.634	Lose2	0.6718999999999999	n/a	Yes	2.634	n/a	n/a	GoodResponse	0	0.0	n/a	8	63	ISIslide	AvoidedLoss	True
605.813	0.25	Win2	0.6769	0.0	Yes	3.137	0.013	n/a	GoodResponse	1	n/a	n/a	9	64	Cue	Win	True
606.063	4.15	Win2	0.6769	0.0	Yes	3.137	0.0	n/a	GoodResponse	1	n/a	n/a	9	64	Fixation	Win	True
610.211	0.47	Win2	0.6769	0.002	Yes	3.137	-0.002	2.0	GoodResponse	1	0.247	609.458	9	64	Target	Win	True
610.458	0.3	Win2	0.6769	0.002	Yes	3.137	-0.002	2.0	GoodResponse	1	0.247	n/a	9	64	ButtonPress	Win	True
610.695	0.23	Win2	0.6769	n/a	Yes	3.137	n/a	n/a	GoodResponse	1	n/a	n/a	9	64	Blank	Win	True
610.911	1.45	Win2	0.6769	n/a	Yes	3.137	n/a	5.0	GoodResponse	1	0.039	609.95	9	64	Feedback	Win	True
612.361	3.137	Win2	0.6769	n/a	Yes	3.137	n/a	n/a	GoodResponse	1	0.0	n/a	9	64	ISIslide	Win	True
615.526	0.25	Control	0.6667000000000001	0.0	No	2.774	0.026	n/a	NoResponse	0	n/a	n/a	9	65	Cue	Neutral	True
615.776	4.0	Control	0.6667000000000001	0.0	No	2.774	0.0	n/a	NoResponse	0	n/a	n/a	9	65	Fixation	Neutral	True
619.775	0.46	Control	0.6667000000000001	0.001	No	2.774	-0.001	2.0	NoResponse	0	0.54	619.315	9	65	Target	Neutral	True
620.241	0.24	Control	0.6667000000000001	n/a	No	2.774	n/a	n/a	NoResponse	0	n/a	n/a	9	65	Blank	Neutral	True
620.315	0.3	Control	0.6667000000000001	0.001	No	2.774	-0.001	2.0	NoResponse	0	0.54	n/a	9	65	ButtonPress	Neutral	True
620.475	1.45	Control	0.6667000000000001	n/a	No	2.774	n/a	5.0	NoResponse	0	0.037	619.512	9	65	Feedback	Neutral	True
621.924	2.774	Control	0.6667000000000001	n/a	No	2.774	n/a	n/a	NoResponse	0	0.0	n/a	9	65	ISIslide	Neutral	True
624.723	0.25	Win2	0.6716	0.0	Yes	2.777	0.023	n/a	GoodResponse	1	n/a	n/a	10	66	Cue	Win	True
624.973	3.9	Win2	0.6716	0.0	Yes	2.777	0.0	n/a	GoodResponse	1	n/a	n/a	10	66	Fixation	Win	True
628.872	0.45	Win2	0.6716	0.001	Yes	2.777	-0.001	2.0	GoodResponse	1	0.25	628.122	10	66	Target	Win	True
629.122	0.3	Win2	0.6716	0.001	Yes	2.777	-0.001	2.0	GoodResponse	1	0.25	n/a	10	66	ButtonPress	Win	True
629.322	0.25	Win2	0.6716	n/a	Yes	2.777	n/a	n/a	GoodResponse	1	n/a	n/a	10	66	Blank	Win	True
629.571	1.45	Win2	0.6716	n/a	Yes	2.777	n/a	5.0	GoodResponse	1	0.014	628.585	10	66	Feedback	Win	True
631.021	2.777	Win2	0.6716	n/a	Yes	2.777	n/a	n/a	GoodResponse	1	0.0	n/a	10	66	ISIslide	Win	True
633.82	0.25	Control	0.6618	0.0	No	2.73	0.02	n/a	NoResponse	0	n/a	n/a	10	67	Cue	Neutral	False
634.07	3.95	Control	0.6618	0.0	No	2.73	0.0	n/a	NoResponse	0	n/a	n/a	10	67	Fixation	Neutral	False
638.019	0.44	Control	0.6618	0.001	No	2.73	-0.001	n/a	NoResponse	0	n/a	n/a	10	67	Target	Neutral	False
638.468	0.26	Control	0.6618	n/a	No	2.73	n/a	n/a	NoResponse	0	n/a	n/a	10	67	Blank	Neutral	False
638.718	1.45	Control	0.6618	n/a	No	2.73	n/a	5.0	NoResponse	0	0.038	637.756	10	67	Feedback	Neutral	False
640.168	2.73	Control	0.6618	n/a	No	2.73	n/a	n/a	NoResponse	0	0.0	n/a	10	67	ISIslide	Neutral	False
642.917	0.25	Win2	0.6522	0.0	No	3.083	0.017	n/a	NoResponse	0	n/a	n/a	10	68	Cue	MissedWin	False
643.167	4.0	Win2	0.6522	0.0	No	3.083	0.0	n/a	NoResponse	0	n/a	n/a	10	68	Fixation	MissedWin	False
647.165	0.44	Win2	0.6522	0.002	No	3.083	-0.002	n/a	NoResponse	0	n/a	n/a	10	68	Target	MissedWin	False
647.615	0.26	Win2	0.6522	n/a	No	3.083	n/a	n/a	NoResponse	0	n/a	n/a	10	68	Blank	MissedWin	False
647.865	1.45	Win2	0.6522	n/a	No	3.083	n/a	5.0	NoResponse	0	0.013	646.878	10	68	Feedback	MissedWin	False
649.315	3.083	Win2	0.6522	n/a	No	3.083	n/a	n/a	NoResponse	0	0.0	n/a	10	68	ISIslide	MissedWin	False
652.414	0.25	Win2	0.6570999999999999	0.0	Yes	3.236	0.014	n/a	GoodResponse	1	n/a	n/a	11	69	Cue	Win	True
652.663	3.95	Win2	0.6570999999999999	0.001	Yes	3.236	-0.001	n/a	GoodResponse	1	n/a	n/a	11	69	Fixation	Win	True
656.612	0.45	Win2	0.6570999999999999	0.002	Yes	3.236	-0.002	2.0	GoodResponse	1	0.302	655.914	11	69	Target	Win	True
656.914	0.3	Win2	0.6570999999999999	0.002	Yes	3.236	-0.002	2.0	GoodResponse	1	0.302	n/a	11	69	ButtonPress	Win	True
657.062	0.25	Win2	0.6570999999999999	n/a	Yes	3.236	n/a	n/a	GoodResponse	1	n/a	n/a	11	69	Blank	Win	True
657.312	1.45	Win2	0.6570999999999999	n/a	Yes	3.236	n/a	5.0	GoodResponse	1	0.029	656.341	11	69	Feedback	Win	True
658.761	3.236	Win2	0.6570999999999999	n/a	Yes	3.236	n/a	n/a	GoodResponse	1	0.0	n/a	11	69	ISIslide	Win	True
662.027	0.25	Lose2	0.662	0.0	Yes	3.023	0.027	n/a	GoodResponse	0	n/a	n/a	11	70	Cue	AvoidedLoss	True
662.277	4.05	Lose2	0.662	0.0	Yes	3.023	0.0	n/a	GoodResponse	0	n/a	n/a	11	70	Fixation	AvoidedLoss	True
666.325	0.45	Lose2	0.662	0.002	Yes	3.023	-0.002	2.0	GoodResponse	0	0.346	665.671	11	70	Target	AvoidedLoss	True
666.671	0.3	Lose2	0.662	0.002	Yes	3.023	-0.002	2.0	GoodResponse	0	0.346	n/a	11	70	ButtonPress	AvoidedLoss	True
666.775	0.25	Lose2	0.662	n/a	Yes	3.023	n/a	n/a	GoodResponse	0	n/a	n/a	11	70	Blank	AvoidedLoss	True
667.025	1.45	Lose2	0.662	n/a	Yes	3.023	n/a	5.0	GoodResponse	0	0.023	666.048	11	70	Feedback	AvoidedLoss	True
668.475	3.023	Lose2	0.662	n/a	Yes	3.023	n/a	n/a	GoodResponse	0	0.0	n/a	11	70	ISIslide	AvoidedLoss	True
671.524	0.25	Win2	0.6667000000000001	0.0	Yes	2.726	0.024	n/a	GoodResponse	1	n/a	n/a	12	71	Cue	Win	True
671.774	4.05	Win2	0.6667000000000001	0.0	Yes	2.726	0.0	n/a	GoodResponse	1	n/a	n/a	12	71	Fixation	Win	True
675.822	0.45	Win2	0.6667000000000001	0.002	Yes	2.726	-0.002	2.0	GoodResponse	1	0.338	675.16	12	71	Target	Win	True
676.16	0.3	Win2	0.6667000000000001	0.002	Yes	2.726	-0.002	2.0	GoodResponse	1	0.338	n/a	12	71	ButtonPress	Win	True
676.272	0.25	Win2	0.6667000000000001	n/a	Yes	2.726	n/a	n/a	GoodResponse	1	n/a	n/a	12	71	Blank	Win	True
676.522	1.45	Win2	0.6667000000000001	n/a	Yes	2.726	n/a	5.0	GoodResponse	1	0.038	675.56	12	71	Feedback	Win	True
677.971	2.726	Win2	0.6667000000000001	n/a	Yes	2.726	n/a	n/a	GoodResponse	1	0.0	n/a	12	71	ISIslide	Win	True
680.72	0.25	Win2	0.6712	0.0	Yes	2.78	0.02	n/a	GoodResponse	1	n/a	n/a	13	72	Cue	Win	True
680.97	4.1	Win2	0.6712	0.0	Yes	2.78	0.0	n/a	GoodResponse	1	n/a	n/a	13	72	Fixation	Win	True
685.069	0.44	Win2	0.6712	0.001	Yes	2.78	-0.001	2.0	GoodResponse	1	0.25	684.319	13	72	Target	Win	True
685.319	0.3	Win2	0.6712	0.001	Yes	2.78	-0.001	2.0	GoodResponse	1	0.25	n/a	13	72	ButtonPress	Win	True
685.519	0.26	Win2	0.6712	n/a	Yes	2.78	n/a	n/a	GoodResponse	1	n/a	n/a	13	72	Blank	Win	True
685.769	1.45	Win2	0.6712	n/a	Yes	2.78	n/a	5.0	GoodResponse	1	0.011	684.78	13	72	Feedback	Win	True
687.218	2.78	Win2	0.6712	n/a	Yes	2.78	n/a	n/a	GoodResponse	1	0.0	n/a	13	72	ISIslide	Win	True
690.017	0.25	Win2	0.6757	0.0	Yes	2.683	0.017	n/a	GoodResponse	1	n/a	n/a	14	73	Cue	Win	True
690.267	4.0	Win2	0.6757	0.0	Yes	2.683	0.0	n/a	GoodResponse	1	n/a	n/a	14	73	Fixation	Win	True
694.266	0.43	Win2	0.6757	0.001	Yes	2.683	-0.001	2.0	GoodResponse	1	0.234	693.5	14	73	Target	Win	True
694.5	0.3	Win2	0.6757	0.001	Yes	2.683	-0.001	2.0	GoodResponse	1	0.234	n/a	14	73	ButtonPress	Win	True
694.699	0.27	Win2	0.6757	n/a	Yes	2.683	n/a	n/a	GoodResponse	1	n/a	n/a	14	73	Blank	Win	True
694.965	1.45	Win2	0.6757	n/a	Yes	2.683	n/a	5.0	GoodResponse	1	0.034	693.999	14	73	Feedback	Win	True
696.415	2.683	Win2	0.6757	n/a	Yes	2.683	n/a	n/a	GoodResponse	1	0.0	n/a	14	73	ISIslide	Win	True
699.114	0.25	Lose2	0.68	0.0	Yes	2.636	0.014	n/a	GoodResponse	0	n/a	n/a	14	74	Cue	AvoidedLoss	True
699.364	4.05	Lose2	0.68	0.0	Yes	2.636	0.0	n/a	GoodResponse	0	n/a	n/a	14	74	Fixation	AvoidedLoss	True
703.413	0.42	Lose2	0.68	0.001	Yes	2.636	-0.001	2.0	GoodResponse	0	0.286	702.699	14	74	Target	AvoidedLoss	True
703.699	0.3	Lose2	0.68	0.001	Yes	2.636	-0.001	2.0	GoodResponse	0	0.286	n/a	14	74	ButtonPress	AvoidedLoss	True
703.846	0.28	Lose2	0.68	n/a	Yes	2.636	n/a	n/a	GoodResponse	0	n/a	n/a	14	74	Blank	AvoidedLoss	True
704.112	1.45	Lose2	0.68	n/a	Yes	2.636	n/a	5.0	GoodResponse	0	0.009	703.121	14	74	Feedback	AvoidedLoss	True
705.562	2.636	Lose2	0.68	n/a	Yes	2.636	n/a	n/a	GoodResponse	0	0.0	n/a	14	74	ISIslide	AvoidedLoss	True
708.228	0.25	Lose2	0.6842	0.0	Yes	2.922	0.028	n/a	GoodResponse	0	n/a	n/a	14	75	Cue	AvoidedLoss	True
708.477	3.95	Lose2	0.6842	0.001	Yes	2.922	-0.001	n/a	GoodResponse	0	n/a	n/a	14	75	Fixation	AvoidedLoss	True
712.426	0.41	Lose2	0.6842	0.002	Yes	2.922	-0.002	2.0	GoodResponse	0	0.286	711.712	14	75	Target	AvoidedLoss	True
712.712	0.3	Lose2	0.6842	0.002	Yes	2.922	-0.002	2.0	GoodResponse	0	0.286	n/a	14	75	ButtonPress	AvoidedLoss	True
712.843	0.29	Lose2	0.6842	n/a	Yes	2.922	n/a	n/a	GoodResponse	0	n/a	n/a	14	75	Blank	AvoidedLoss	True
713.126	1.45	Lose2	0.6842	n/a	Yes	2.922	n/a	5.0	GoodResponse	0	0.02	712.146	14	75	Feedback	AvoidedLoss	True
714.575	2.922	Lose2	0.6842	n/a	Yes	2.922	n/a	n/a	GoodResponse	0	0.0	n/a	14	75	ISIslide	AvoidedLoss	True
717.524	0.25	Control	0.6753	0.0	No	3.226	0.024	n/a	NoResponse	0	n/a	n/a	14	76	Cue	Neutral	False
717.774	4.05	Control	0.6753	0.0	No	3.226	0.0	n/a	NoResponse	0	n/a	n/a	14	76	Fixation	Neutral	False
721.823	0.4	Control	0.6753	0.001	No	3.226	-0.001	n/a	NoResponse	0	n/a	n/a	14	76	Target	Neutral	False
722.223	0.3	Control	0.6753	n/a	No	3.226	n/a	n/a	NoResponse	0	n/a	n/a	14	76	Blank	Neutral	False
722.523	1.45	Control	0.6753	n/a	No	3.226	n/a	5.0	NoResponse	0	0.037	721.56	14	76	Feedback	Neutral	False
723.972	3.226	Control	0.6753	n/a	No	3.226	n/a	n/a	NoResponse	0	0.0	n/a	14	76	ISIslide	Neutral	False
727.221	0.25	Lose2	0.6795	0.0	Yes	2.579	0.021	n/a	GoodResponse	0	n/a	n/a	14	77	Cue	AvoidedLoss	True
727.471	3.95	Lose2	0.6795	0.0	Yes	2.579	0.0	n/a	GoodResponse	0	n/a	n/a	14	77	Fixation	AvoidedLoss	True
731.42	0.39	Lose2	0.6795	0.001	Yes	2.579	-0.001	2.0	GoodResponse	0	0.255	730.675	14	77	Target	AvoidedLoss	True
731.675	0.3	Lose2	0.6795	0.001	Yes	2.579	-0.001	2.0	GoodResponse	0	0.255	n/a	14	77	ButtonPress	AvoidedLoss	True
731.819	0.31	Lose2	0.6795	n/a	Yes	2.579	n/a	n/a	GoodResponse	0	n/a	n/a	14	77	Blank	AvoidedLoss	True
732.119	1.45	Lose2	0.6795	n/a	Yes	2.579	n/a	5.0	GoodResponse	0	0.004	731.123	14	77	Feedback	AvoidedLoss	True
733.569	2.579	Lose2	0.6795	n/a	Yes	2.579	n/a	n/a	GoodResponse	0	0.0	n/a	14	77	ISIslide	AvoidedLoss	True
