onset	duration	cue_type	current_mean_accuracy	duration_error	is_hit	isi_adjusted	onset_delay	response	response_type	reward	rt	rt_time	total_reward	trial_number	trial_phase	trial_type	one_press
11.099	0.25	Control	1.0	0.0	Yes	2.951	-0.001	n/a	GoodResponse	0	n/a	n/a	0	0	Cue	Neutral	True
11.349	3.85	Control	1.0	0.0	Yes	2.951	0.0	n/a	GoodResponse	0	n/a	n/a	0	0	Fixation	Neutral	True
15.198	0.4	Control	1.0	0.001	Yes	2.951	-0.001	3.0	GoodResponse	0	0.399	14.597	0	0	Target	Neutral	True
15.597	0.3	Control	1.0	0.001	Yes	2.951	-0.001	3.0	GoodResponse	0	0.399	n/a	0	0	ButtonPress	Neutral	True
15.598	0.3	Control	1.0	n/a	Yes	2.951	n/a	n/a	GoodResponse	0	n/a	n/a	0	0	Blank	Neutral	True
15.898	1.45	Control	1.0	n/a	Yes	2.951	n/a	5.0	GoodResponse	0	1.103	16.001	0	0	Feedback	Neutral	True
17.347	2.951	Control	1.0	n/a	Yes	2.951	n/a	n/a	GoodResponse	0	0.0	n/a	0	0	ISIslide	Neutral	True
20.313	0.25	Lose2	1.0	0.0	Yes	2.787	0.013	n/a	GoodResponse	0	n/a	n/a	0	1	Cue	AvoidedLoss	True
20.563	4.0	Lose2	1.0	0.0	Yes	2.787	0.0	n/a	GoodResponse	0	n/a	n/a	0	1	Fixation	AvoidedLoss	True
24.561	0.39	Lose2	1.0	0.002	Yes	2.787	-0.002	3.0	GoodResponse	0	0.232	23.793	0	1	Target	AvoidedLoss	True
24.793	0.3	Lose2	1.0	0.002	Yes	2.787	-0.002	3.0	GoodResponse	0	0.232	n/a	0	1	ButtonPress	AvoidedLoss	True
24.961	0.31	Lose2	1.0	n/a	Yes	2.787	n/a	n/a	GoodResponse	0	n/a	n/a	0	1	Blank	AvoidedLoss	True
25.261	1.45	Lose2	1.0	n/a	Yes	2.787	n/a	n/a	GoodResponse	0	n/a	n/a	0	1	Feedback	AvoidedLoss	True
26.711	2.787	Lose2	1.0	n/a	Yes	2.787	n/a	n/a	GoodResponse	0	0.0	n/a	0	1	ISIslide	AvoidedLoss	True
29.526	0.25	Control	1.0	0.0	Yes	2.574	0.026	n/a	GoodResponse	0	n/a	n/a	0	2	Cue	Neutral	True
29.776	4.1	Control	1.0	0.0	Yes	2.574	0.0	n/a	GoodResponse	0	n/a	n/a	0	2	Fixation	Neutral	True
33.875	0.38	Control	1.0	0.001	Yes	2.574	-0.001	3.0	GoodResponse	0	0.254	33.129	0	2	Target	Neutral	True
34.129	0.3	Control	1.0	0.001	Yes	2.574	-0.001	3.0	GoodResponse	0	0.254	n/a	0	2	ButtonPress	Neutral	True
34.258	0.32	Control	1.0	n/a	Yes	2.574	n/a	n/a	GoodResponse	0	n/a	n/a	0	2	Blank	Neutral	True
34.574	1.45	Control	1.0	n/a	Yes	2.574	n/a	5.0	GoodResponse	0	0.428	34.002	0	2	Feedback	Neutral	True
36.024	2.574	Control	1.0	n/a	Yes	2.574	n/a	n/a	GoodResponse	0	0.0	n/a	0	2	ISIslide	Neutral	True
38.64	0.25	Win2	1.0	0.0	Yes	2.81	0.04	n/a	GoodResponse	1	n/a	n/a	1	3	Cue	Win	True
38.89	3.95	Win2	1.0	0.0	Yes	2.81	0.0	n/a	GoodResponse	1	n/a	n/a	1	3	Fixation	Win	True
42.838	0.37	Win2	1.0	0.002	Yes	2.81	-0.002	3.0	GoodResponse	1	0.27	42.108	1	3	Target	Win	True
43.108	0.3	Win2	1.0	0.002	Yes	2.81	-0.002	3.0	GoodResponse	1	0.27	n/a	1	3	ButtonPress	Win	True
43.221	0.33	Win2	1.0	n/a	Yes	2.81	n/a	n/a	GoodResponse	1	n/a	n/a	1	3	Blank	Win	True
43.538	1.45	Win2	1.0	n/a	Yes	2.81	n/a	n/a	GoodResponse	1	n/a	n/a	1	3	Feedback	Win	True
44.988	2.81	Win2	1.0	n/a	Yes	2.81	n/a	n/a	GoodResponse	1	0.0	n/a	1	3	ISIslide	Win	True
47.82	0.25	Win2	1.0	0.0	Yes	3.28	0.02	n/a	GoodResponse	1	n/a	n/a	2	4	Cue	Win	True
48.07	4.0	Win2	1.0	0.0	Yes	3.28	0.0	n/a	GoodResponse	1	n/a	n/a	2	4	Fixation	Win	True
52.068	0.36	Win2	1.0	0.002	Yes	3.28	-0.002	3.0	GoodResponse	1	0.239	51.307	2	4	Target	Win	True
52.307	0.3	Win2	1.0	0.002	Yes	3.28	-0.002	3.0	GoodResponse	1	0.239	n/a	2	4	ButtonPress	Win	True
52.435	0.34	Win2	1.0	n/a	Yes	3.28	n/a	n/a	GoodResponse	1	n/a	n/a	2	4	Blank	Win	True
52.768	1.45	Win2	1.0	n/a	Yes	3.28	n/a	5.0	GoodResponse	1	0.234	52.002	2	4	Feedback	Win	True
54.218	3.28	Win2	1.0	n/a	Yes	3.28	n/a	n/a	GoodResponse	1	0.0	n/a	2	4	ISIslide	Win	True
57.517	0.25	Win2	1.0	0.0	Yes	2.783	0.017	n/a	GoodResponse	1	n/a	n/a	3	5	Cue	Win	True
57.766	4.0	Win2	1.0	0.001	Yes	2.783	-0.001	n/a	GoodResponse	1	n/a	n/a	3	5	Fixation	Win	True
61.765	0.35	Win2	1.0	0.002	Yes	2.783	-0.002	3.0	GoodResponse	1	0.212	60.977	3	5	Target	Win	True
61.977	0.3	Win2	1.0	0.002	Yes	2.783	-0.002	3.0	GoodResponse	1	0.212	n/a	3	5	ButtonPress	Win	True
62.115	0.35	Win2	1.0	n/a	Yes	2.783	n/a	n/a	GoodResponse	1	n/a	n/a	3	5	Blank	Win	True
62.465	1.45	Win2	1.0	n/a	Yes	2.783	n/a	5.0	GoodResponse	1	0.536	62.001	3	5	Feedback	Win	True
63.914	2.783	Win2	1.0	n/a	Yes	2.783	n/a	n/a	GoodResponse	1	0.0	n/a	3	5	ISIslide	Win	True
66.713	0.25	Lose2	1.0	0.0	Yes	2.737	0.013	n/a	GoodResponse	0	n/a	n/a	3	6	Cue	AvoidedLoss	True
66.963	3.95	Lose2	1.0	0.0	Yes	2.737	0.0	n/a	GoodResponse	0	n/a	n/a	3	6	Fixation	AvoidedLoss	True
70.912	0.34	Lose2	1.0	0.001	Yes	2.737	-0.001	3.0	GoodResponse	0	0.264	70.176	3	6	Target	AvoidedLoss	True
71.176	0.3	Lose2	1.0	0.001	Yes	2.737	-0.001	3.0	GoodResponse	0	0.264	n/a	3	6	ButtonPress	AvoidedLoss	True
71.262	0.36	Lose2	1.0	n/a	Yes	2.737	n/a	n/a	GoodResponse	0	n/a	n/a	3	6	Blank	AvoidedLoss	True
71.612	1.45	Lose2	1.0	n/a	Yes	2.737	n/a	5.0	GoodResponse	0	1.389	72.001	3	6	Feedback	AvoidedLoss	True
73.061	2.737	Lose2	1.0	n/a	Yes	2.737	n/a	n/a	GoodResponse	0	0.0	n/a	3	6	ISIslide	AvoidedLoss	True
75.827	0.25	Lose2	1.0	0.0	Yes	4.023	0.027	n/a	GoodResponse	0	n/a	n/a	3	7	Cue	AvoidedLoss	True
76.077	4.05	Lose2	1.0	0.0	Yes	4.023	0.0	n/a	GoodResponse	0	n/a	n/a	3	7	Fixation	AvoidedLoss	True
80.125	0.33	Lose2	1.0	0.002	Yes	4.023	-0.002	3.0	GoodResponse	0	0.229	79.354	3	7	Target	AvoidedLoss	True
80.354	0.3	Lose2	1.0	0.002	Yes	4.023	-0.002	3.0	GoodResponse	0	0.229	n/a	3	7	ButtonPress	AvoidedLoss	True
80.459	0.37	Lose2	1.0	n/a	Yes	4.023	n/a	n/a	GoodResponse	0	n/a	n/a	3	7	Blank	AvoidedLoss	True
80.825	1.45	Lose2	1.0	n/a	Yes	4.023	n/a	5.0	GoodResponse	0	0.176	80.001	3	7	Feedback	AvoidedLoss	True
82.275	4.023	Lose2	1.0	n/a	Yes	4.023	n/a	n/a	GoodResponse	0	0.0	n/a	3	7	ISIslide	AvoidedLoss	True
86.323	0.25	Lose2	0.8889	0.0	No	3.027	0.023	n/a	NoResponse	-1	n/a	n/a	2	8	Cue	Loss	True
86.573	3.95	Lose2	0.8889	0.0	No	3.027	0.0	n/a	NoResponse	-1	n/a	n/a	2	8	Fixation	Loss	True
90.522	0.32	Lose2	0.8889	0.001	No	3.027	-0.001	3.0	NoResponse	-1	0.326	89.848	2	8	Target	Loss	True
90.838	0.38	Lose2	0.8889	n/a	No	3.027	n/a	n/a	NoResponse	-1	n/a	n/a	2	8	Blank	Loss	True
90.848	0.3	Lose2	0.8889	0.001	No	3.027	-0.001	3.0	NoResponse	-1	0.326	n/a	2	8	ButtonPress	Loss	True
91.222	1.45	Lose2	0.8889	n/a	No	3.027	n/a	n/a	NoResponse	-1	n/a	n/a	2	8	Feedback	Loss	True
92.671	3.027	Lose2	0.8889	n/a	No	3.027	n/a	n/a	NoResponse	-1	0.0	n/a	2	8	ISIslide	Loss	True
95.72	0.25	Lose2	0.9	0.0	Yes	3.13	0.02	n/a	GoodResponse	0	n/a	n/a	2	9	Cue	AvoidedLoss	True
95.97	3.95	Lose2	0.9	0.0	Yes	3.13	0.0	n/a	GoodResponse	0	n/a	n/a	2	9	Fixation	AvoidedLoss	True
99.919	0.31	Lose2	0.9	0.001	Yes	3.13	-0.001	3.0	GoodResponse	0	0.229	99.148	2	9	Target	AvoidedLoss	True
100.148	0.3	Lose2	0.9	0.001	Yes	3.13	-0.001	3.0	GoodResponse	0	0.229	n/a	2	9	ButtonPress	AvoidedLoss	True
100.235	0.39	Lose2	0.9	n/a	Yes	3.13	n/a	n/a	GoodResponse	0	n/a	n/a	2	9	Blank	AvoidedLoss	True
100.618	1.45	Lose2	0.9	n/a	Yes	3.13	n/a	5.0	GoodResponse	0	0.383	100.001	2	9	Feedback	AvoidedLoss	True
102.068	3.13	Lose2	0.9	n/a	Yes	3.13	n/a	n/a	GoodResponse	0	0.0	n/a	2	9	ISIslide	AvoidedLoss	True
105.217	0.25	Control	0.9091	0.0	Yes	3.283	0.017	n/a	GoodResponse	0	n/a	n/a	2	10	Cue	Neutral	True
105.467	4.0	Control	0.9091	0.0	Yes	3.283	0.0	n/a	GoodResponse	0	n/a	n/a	2	10	Fixation	Neutral	True
109.465	0.3	Control	0.9091	0.002	Yes	3.283	-0.002	3.0	GoodResponse	0	0.25	108.715	2	10	Target	Neutral	True
109.715	0.3	Control	0.9091	0.002	Yes	3.283	-0.002	3.0	GoodResponse	0	0.25	n/a	2	10	ButtonPress	Neutral	True
109.765	0.4	Control	0.9091	n/a	Yes	3.283	n/a	n/a	GoodResponse	0	n/a	n/a	2	10	Blank	Neutral	True
110.165	1.45	Control	0.9091	n/a	Yes	3.283	n/a	5.0	GoodResponse	0	0.837	110.002	2	10	Feedback	Neutral	True
111.615	3.283	Control	0.9091	n/a	Yes	3.283	n/a	n/a	GoodResponse	0	0.0	n/a	2	10	ISIslide	Neutral	True
114.913	0.25	Lose2	0.9167000000000001	0.0	Yes	2.737	0.013	n/a	GoodResponse	0	n/a	n/a	2	11	Cue	AvoidedLoss	True
115.163	4.05	Lose2	0.9167000000000001	0.0	Yes	2.737	0.0	n/a	GoodResponse	0	n/a	n/a	2	11	Fixation	AvoidedLoss	True
119.212	0.29	Lose2	0.9167000000000001	0.001	Yes	2.737	-0.001	3.0	GoodResponse	0	0.173	118.385	2	11	Target	AvoidedLoss	True
119.385	0.3	Lose2	0.9167000000000001	0.001	Yes	2.737	-0.001	3.0	GoodResponse	0	0.173	n/a	2	11	ButtonPress	AvoidedLoss	True
119.512	0.41	Lose2	0.9167000000000001	n/a	Yes	2.737	n/a	n/a	GoodResponse	0	n/a	n/a	2	11	Blank	AvoidedLoss	True
119.912	1.45	Lose2	0.9167000000000001	n/a	Yes	2.737	n/a	5.0	GoodResponse	0	1.089	120.001	2	11	Feedback	AvoidedLoss	True
121.361	2.737	Lose2	0.9167000000000001	n/a	Yes	2.737	n/a	n/a	GoodResponse	0	0.0	n/a	2	11	ISIslide	AvoidedLoss	True
124.127	0.25	Control	0.9231	0.0	Yes	2.973	0.027	n/a	GoodResponse	0	n/a	n/a	2	12	Cue	Neutral	True
124.377	3.9	Control	0.9231	0.0	Yes	2.973	0.0	n/a	GoodResponse	0	n/a	n/a	2	12	Fixation	Neutral	True
128.275	0.28	Control	0.9231	0.002	Yes	2.973	-0.002	3.0	GoodResponse	0	0.203	127.478	2	12	Target	Neutral	True
128.478	0.3	Control	0.9231	0.002	Yes	2.973	-0.002	3.0	GoodResponse	0	0.203	n/a	2	12	ButtonPress	Neutral	True
128.559	0.42	Control	0.9231	n/a	Yes	2.973	n/a	n/a	GoodResponse	0	n/a	n/a	2	12	Blank	Neutral	True
128.975	1.45	Control	0.9231	n/a	Yes	2.973	n/a	5.0	GoodResponse	0	0.026	128.001	2	12	Feedback	Neutral	True
130.425	2.973	Control	0.9231	n/a	Yes	2.973	n/a	n/a	GoodResponse	0	0.0	n/a	2	12	ISIslide	Neutral	True
133.424	0.25	Control	0.8571	0.0	No	2.776	0.024	n/a	PrematurePress	0	n/a	n/a	2	13	Cue	Neutral	True
133.674	4.0	Control	0.8571	0.0	No	2.776	0.0	n/a	PrematurePress	0	n/a	n/a	2	13	Fixation	Neutral	True
137.672	0.27	Control	0.8571	0.002	No	2.776	-0.002	3.0	PrematurePress	0	0.09	136.762	2	13	Target	Neutral	True
137.762	0.3	Control	0.8571	0.002	No	2.776	-0.002	3.0	PrematurePress	0	0.09	n/a	2	13	ButtonPress	Neutral	True
137.955	0.43	Control	0.8571	n/a	No	2.776	n/a	n/a	PrematurePress	0	n/a	n/a	2	13	Blank	Neutral	True
138.372	1.45	Control	0.8571	n/a	No	2.776	n/a	5.0	PrematurePress	0	0.629	138.001	2	13	Feedback	Neutral	True
139.821	2.776	Control	0.8571	n/a	No	2.776	n/a	n/a	PrematurePress	0	0.0	n/a	2	13	ISIslide	Neutral	True
142.62	0.25	Win2	0.8667	0.001	Yes	2.68	0.02	n/a	GoodResponse	1	n/a	n/a	3	14	Cue	Win	True
142.87	4.1	Win2	0.8667	0.0	Yes	2.68	0.0	n/a	GoodResponse	1	n/a	n/a	3	14	Fixation	Win	True
146.969	0.26	Win2	0.8667	0.001	Yes	2.68	-0.001	3.0	GoodResponse	1	0.183	146.152	3	14	Target	Win	True
147.152	0.3	Win2	0.8667	0.001	Yes	2.68	-0.001	3.0	GoodResponse	1	0.183	n/a	3	14	ButtonPress	Win	True
147.236	0.44	Win2	0.8667	n/a	Yes	2.68	n/a	n/a	GoodResponse	1	n/a	n/a	3	14	Blank	Win	True
147.669	1.45	Win2	0.8667	n/a	Yes	2.68	n/a	5.0	GoodResponse	1	1.332	148.001	3	14	Feedback	Win	True
149.118	2.68	Win2	0.8667	n/a	Yes	2.68	n/a	n/a	GoodResponse	1	0.0	n/a	3	14	ISIslide	Win	True
151.817	0.25	Control	0.8125	0.0	No	2.983	0.017	n/a	NoResponse	0	n/a	n/a	3	15	Cue	Neutral	True
152.067	4.0	Control	0.8125	0.0	No	2.983	0.0	n/a	NoResponse	0	n/a	n/a	3	15	Fixation	Neutral	True
156.066	0.25	Control	0.8125	0.001	No	2.983	-0.001	3.0	NoResponse	0	0.268	155.334	3	15	Target	Neutral	True
156.316	0.45	Control	0.8125	n/a	No	2.983	n/a	n/a	NoResponse	0	n/a	n/a	3	15	Blank	Neutral	True
156.334	0.3	Control	0.8125	0.001	No	2.983	-0.001	3.0	NoResponse	0	0.268	n/a	3	15	ButtonPress	Neutral	True
156.766	1.45	Control	0.8125	n/a	No	2.983	n/a	5.0	NoResponse	0	0.235	156.001	3	15	Feedback	Neutral	True
158.215	2.983	Control	0.8125	n/a	No	2.983	n/a	n/a	NoResponse	0	0.0	n/a	3	15	ISIslide	Neutral	True
161.214	0.25	Win2	0.8234999999999999	0.0	Yes	2.886	0.014	n/a	GoodResponse	1	n/a	n/a	4	16	Cue	Win	True
161.464	4.0	Win2	0.8234999999999999	0.0	Yes	2.886	0.0	n/a	GoodResponse	1	n/a	n/a	4	16	Fixation	Win	True
165.463	0.24	Win2	0.8234999999999999	0.001	Yes	2.886	-0.001	3.0	GoodResponse	1	0.239	164.702	4	16	Target	Win	True
165.702	0.3	Win2	0.8234999999999999	0.001	Yes	2.886	-0.001	3.0	GoodResponse	1	0.239	n/a	4	16	ButtonPress	Win	True
165.712	0.46	Win2	0.8234999999999999	n/a	Yes	2.886	n/a	n/a	GoodResponse	1	n/a	n/a	4	16	Blank	Win	True
166.162	1.45	Win2	0.8234999999999999	n/a	Yes	2.886	n/a	5.0	GoodResponse	1	0.839	166.001	4	16	Feedback	Win	True
167.612	2.886	Win2	0.8234999999999999	n/a	Yes	2.886	n/a	n/a	GoodResponse	1	0.0	n/a	4	16	ISIslide	Win	True
170.527	0.25	Lose2	0.7778	0.001	No	2.723	0.027	n/a	NoResponse	-1	n/a	n/a	3	17	Cue	Loss	True
170.777	3.95	Lose2	0.7778	0.0	No	2.723	0.0	n/a	NoResponse	-1	n/a	n/a	3	17	Fixation	Loss	True
174.726	0.23	Lose2	0.7778	0.001	No	2.723	-0.001	3.0	NoResponse	-1	0.24	173.966	3	17	Target	Loss	True
174.959	0.47	Lose2	0.7778	n/a	No	2.723	n/a	n/a	NoResponse	-1	n/a	n/a	3	17	Blank	Loss	True
174.966	0.3	Lose2	0.7778	0.001	No	2.723	-0.001	3.0	NoResponse	-1	0.24	n/a	3	17	ButtonPress	Loss	True
175.426	1.45	Lose2	0.7778	n/a	No	2.723	n/a	n/a	NoResponse	-1	n/a	n/a	3	17	Feedback	Loss	True
176.875	2.723	Lose2	0.7778	n/a	No	2.723	n/a	n/a	NoResponse	-1	0.0	n/a	3	17	ISIslide	Loss	True
179.624	0.25	Lose2	0.7368000000000001	0.0	No	2.726	0.024	n/a	LatePress	-1	n/a	n/a	2	18	Cue	Loss	True
179.874	4.05	Lose2	0.7368000000000001	0.0	No	2.726	0.0	n/a	LatePress	-1	n/a	n/a	2	18	Fixation	Loss	True
183.923	0.22	Lose2	0.7368000000000001	0.001	No	2.726	-0.001	3.0	LatePress	-1	0.22	183.143	2	18	Target	Loss	True
184.139	0.48	Lose2	0.7368000000000001	n/a	No	2.726	n/a	n/a	LatePress	-1	n/a	n/a	2	18	Blank	Loss	True
184.143	0.3	Lose2	0.7368000000000001	0.001	No	2.726	-0.001	3.0	LatePress	-1	0.22	n/a	2	18	ButtonPress	Loss	True
184.623	1.45	Lose2	0.7368000000000001	n/a	No	2.726	n/a	5.0	LatePress	-1	0.378	184.001	2	18	Feedback	Loss	True
186.072	2.726	Lose2	0.7368000000000001	n/a	No	2.726	n/a	n/a	LatePress	-1	0.0	n/a	2	18	ISIslide	Loss	True
188.821	0.25	Control	0.7	0.0	No	2.929	0.021	n/a	NoResponse	0	n/a	n/a	2	19	Cue	Neutral	True
189.071	3.95	Control	0.7	0.0	No	2.929	0.0	n/a	NoResponse	0	n/a	n/a	2	19	Fixation	Neutral	True
193.02	0.21	Control	0.7	0.001	No	2.929	-0.001	3.0	NoResponse	0	0.327	192.347	2	19	Target	Neutral	True
193.236	0.49	Control	0.7	n/a	No	2.929	n/a	n/a	NoResponse	0	n/a	n/a	2	19	Blank	Neutral	True
193.347	0.3	Control	0.7	0.001	No	2.929	-0.001	3.0	NoResponse	0	0.327	n/a	2	19	ButtonPress	Neutral	True
193.719	1.45	Control	0.7	n/a	No	2.929	n/a	5.0	NoResponse	0	1.282	194.001	2	19	Feedback	Neutral	True
195.169	2.929	Control	0.7	n/a	No	2.929	n/a	n/a	NoResponse	0	0.0	n/a	2	19	ISIslide	Neutral	True
198.118	0.25	Control	0.7143	0.0	Yes	2.632	0.018	n/a	GoodResponse	0	n/a	n/a	2	20	Cue	Neutral	True
198.368	4.05	Control	0.7143	0.0	Yes	2.632	0.0	n/a	GoodResponse	0	n/a	n/a	2	20	Fixation	Neutral	True
202.416	0.2	Control	0.7143	0.002	Yes	2.632	-0.002	3.0	GoodResponse	0	0.19	201.606	2	20	Target	Neutral	True
202.606	0.3	Control	0.7143	0.002	Yes	2.632	-0.002	3.0	GoodResponse	0	0.19	n/a	2	20	ButtonPress	Neutral	True
202.616	0.5	Control	0.7143	n/a	Yes	2.632	n/a	n/a	GoodResponse	0	n/a	n/a	2	20	Blank	Neutral	True
203.116	1.45	Control	0.7143	n/a	Yes	2.632	n/a	n/a	GoodResponse	0	n/a	n/a	2	20	Feedback	Neutral	True
204.566	2.632	Control	0.7143	n/a	Yes	2.632	n/a	n/a	GoodResponse	0	0.0	n/a	2	20	ISIslide	Neutral	True
207.215	0.25	Control	0.6818000000000001	0.0	No	2.785	0.015	n/a	NoResponse	0	n/a	n/a	2	21	Cue	Neutral	True
207.465	4.1	Control	0.6818000000000001	0.0	No	2.785	0.0	n/a	NoResponse	0	n/a	n/a	2	21	Fixation	Neutral	True
211.563	0.19	Control	0.6818000000000001	0.002	No	2.785	-0.002	3.0	NoResponse	0	0.29	210.853	2	21	Target	Neutral	True
211.763	0.51	Control	0.6818000000000001	n/a	No	2.785	n/a	n/a	NoResponse	0	n/a	n/a	2	21	Blank	Neutral	True
211.853	0.3	Control	0.6818000000000001	0.002	No	2.785	-0.002	3.0	NoResponse	0	0.29	n/a	2	21	ButtonPress	Neutral	True
212.263	1.45	Control	0.6818000000000001	n/a	No	2.785	n/a	5.0	NoResponse	0	0.738	212.001	2	21	Feedback	Neutral	True
213.713	2.785	Control	0.6818000000000001	n/a	No	2.785	n/a	n/a	NoResponse	0	0.0	n/a	2	21	ISIslide	Neutral	True
216.512	0.25	Control	0.6522	0.0	No	2.788	0.012	n/a	NoResponse	0	n/a	n/a	2	22	Cue	Neutral	True
216.761	4.0	Control	0.6522	0.001	No	2.788	-0.001	n/a	NoResponse	0	n/a	n/a	2	22	Fixation	Neutral	True
220.76	0.18	Control	0.6522	0.002	No	2.788	-0.002	3.0	NoResponse	0	0.277	220.037	2	22	Target	Neutral	True
220.943	0.52	Control	0.6522	n/a	No	2.788	n/a	n/a	NoResponse	0	n/a	n/a	2	22	Blank	Neutral	True
221.037	0.3	Control	0.6522	0.002	No	2.788	-0.002	3.0	NoResponse	0	0.277	n/a	2	22	ButtonPress	Neutral	True
221.46	1.45	Control	0.6522	n/a	No	2.788	n/a	n/a	NoResponse	0	n/a	n/a	2	22	Feedback	Neutral	True
222.909	2.788	Control	0.6522	n/a	No	2.788	n/a	n/a	NoResponse	0	0.0	n/a	2	22	ISIslide	Neutral	True
225.725	0.25	Control	0.625	0.0	No	2.775	0.025	n/a	NoResponse	0	n/a	n/a	2	23	Cue	Neutral	True
225.975	3.9	Control	0.625	0.0	No	2.775	0.0	n/a	NoResponse	0	n/a	n/a	2	23	Fixation	Neutral	True
229.874	0.19	Control	0.625	0.001	No	2.775	-0.001	3.0	NoResponse	0	0.255	229.129	2	23	Target	Neutral	True
230.074	0.51	Control	0.625	n/a	No	2.775	n/a	n/a	NoResponse	0	n/a	n/a	2	23	Blank	Neutral	True
230.129	0.3	Control	0.625	0.001	No	2.775	-0.001	3.0	NoResponse	0	0.255	n/a	2	23	ButtonPress	Neutral	True
230.573	1.45	Control	0.625	n/a	No	2.775	n/a	5.0	NoResponse	0	0.428	230.001	2	23	Feedback	Neutral	True
232.023	2.775	Control	0.625	n/a	No	2.775	n/a	n/a	NoResponse	0	0.0	n/a	2	23	ISIslide	Neutral	True
234.822	0.25	Win2	0.64	0.0	Yes	3.128	0.022	n/a	GoodResponse	1	n/a	n/a	3	24	Cue	Win	True
235.072	3.95	Win2	0.64	0.0	Yes	3.128	0.0	n/a	GoodResponse	1	n/a	n/a	3	24	Fixation	Win	True
239.02	0.2	Win2	0.64	0.002	Yes	3.128	-0.002	3.0	GoodResponse	1	0.199	238.219	3	24	Target	Win	True
239.219	0.3	Win2	0.64	0.002	Yes	3.128	-0.002	3.0	GoodResponse	1	0.199	n/a	3	24	ButtonPress	Win	True
239.22	0.5	Win2	0.64	n/a	Yes	3.128	n/a	n/a	GoodResponse	1	n/a	n/a	3	24	Blank	Win	True
239.72	1.45	Win2	0.64	n/a	Yes	3.128	n/a	5.0	GoodResponse	1	1.28	240.0	3	24	Feedback	Win	True
241.17	3.128	Win2	0.64	n/a	Yes	3.128	n/a	n/a	GoodResponse	1	0.0	n/a	3	24	ISIslide	Win	True
244.319	0.25	Win2	0.6154	0.0	No	3.081	0.019	n/a	NoResponse	0	n/a	n/a	3	25	Cue	MissedWin	True
244.569	4.0	Win2	0.6154	0.0	No	3.081	0.0	n/a	NoResponse	0	n/a	n/a	3	25	Fixation	MissedWin	True
248.567	0.21	Win2	0.6154	0.002	No	3.081	-0.002	3.0	NoResponse	0	0.312	247.879	3	25	Target	MissedWin	True
248.784	0.49	Win2	0.6154	n/a	No	3.081	n/a	n/a	NoResponse	0	n/a	n/a	3	25	Blank	MissedWin	True
248.879	0.3	Win2	0.6154	0.002	No	3.081	-0.002	3.0	NoResponse	0	0.312	n/a	3	25	ButtonPress	MissedWin	True
249.267	1.45	Win2	0.6154	n/a	No	3.081	n/a	n/a	NoResponse	0	n/a	n/a	3	25	Feedback	MissedWin	True
250.716	3.081	Win2	0.6154	n/a	No	3.081	n/a	n/a	NoResponse	0	0.0	n/a	3	25	ISIslide	MissedWin	True
253.815	0.25	Win2	0.6296	0.0	Yes	2.935	0.015	n/a	GoodResponse	1	n/a	n/a	4	26	Cue	Win	True
254.065	3.95	Win2	0.6296	0.0	Yes	2.935	0.0	n/a	GoodResponse	1	n/a	n/a	4	26	Fixation	Win	True
258.014	0.22	Win2	0.6296	0.001	Yes	2.935	-0.001	3.0	GoodResponse	1	0.199	257.213	4	26	Target	Win	True
258.213	0.3	Win2	0.6296	0.001	Yes	2.935	-0.001	3.0	GoodResponse	1	0.199	n/a	4	26	ButtonPress	Win	True
258.23	0.48	Win2	0.6296	n/a	Yes	2.935	n/a	n/a	GoodResponse	1	n/a	n/a	4	26	Blank	Win	True
258.714	1.45	Win2	0.6296	n/a	Yes	2.935	n/a	5.0	GoodResponse	1	0.286	258.0	4	26	Feedback	Win	True
260.163	2.935	Win2	0.6296	n/a	Yes	2.935	n/a	n/a	GoodResponse	1	0.0	n/a	4	26	ISIslide	Win	True
263.112	0.25	Lose2	0.6071	0.0	No	2.838	0.012	n/a	NoResponse	-1	n/a	n/a	3	27	Cue	Loss	True
263.362	4.05	Lose2	0.6071	0.0	No	2.838	0.0	n/a	NoResponse	-1	n/a	n/a	3	27	Fixation	Loss	True
267.411	0.23	Lose2	0.6071	0.001	No	2.838	-0.001	3.0	NoResponse	-1	0.256	266.667	3	27	Target	Loss	True
267.644	0.47	Lose2	0.6071	n/a	No	2.838	n/a	n/a	NoResponse	-1	n/a	n/a	3	27	Blank	Loss	True
267.667	0.3	Lose2	0.6071	0.001	No	2.838	-0.001	3.0	NoResponse	-1	0.256	n/a	3	27	ButtonPress	Loss	True
268.11	1.45	Lose2	0.6071	n/a	No	2.838	n/a	5.0	NoResponse	-1	0.891	268.001	3	27	Feedback	Loss	True
269.56	2.838	Lose2	0.6071	n/a	No	2.838	n/a	n/a	NoResponse	-1	0.0	n/a	3	27	ISIslide	Loss	True
272.426	0.25	Control	0.6207	0.0	Yes	2.824	0.026	n/a	GoodResponse	0	n/a	n/a	3	28	Cue	Neutral	True
272.675	4.05	Control	0.6207	0.001	Yes	2.824	-0.001	n/a	GoodResponse	0	n/a	n/a	3	28	Fixation	Neutral	True
276.724	0.24	Control	0.6207	0.002	Yes	2.824	-0.002	3.0	GoodResponse	0	0.217	275.941	3	28	Target	Neutral	True
276.941	0.3	Control	0.6207	0.002	Yes	2.824	-0.002	3.0	GoodResponse	0	0.217	n/a	3	28	ButtonPress	Neutral	True
276.974	0.46	Control	0.6207	n/a	Yes	2.824	n/a	n/a	GoodResponse	0	n/a	n/a	3	28	Blank	Neutral	True
277.424	1.45	Control	0.6207	n/a	Yes	2.824	n/a	n/a	GoodResponse	0	n/a	n/a	3	28	Feedback	Neutral	True
278.873	2.824	Control	0.6207	n/a	Yes	2.824	n/a	n/a	GoodResponse	0	0.0	n/a	3	28	ISIslide	Neutral	True
281.722	0.25	Lose2	0.6333	0.0	Yes	2.828	0.022	n/a	GoodResponse	0	n/a	n/a	3	29	Cue	AvoidedLoss	True
281.972	3.95	Lose2	0.6333	0.0	Yes	2.828	0.0	n/a	GoodResponse	0	n/a	n/a	3	29	Fixation	AvoidedLoss	True
285.921	0.25	Lose2	0.6333	0.001	Yes	2.828	-0.001	3.0	GoodResponse	0	0.201	285.122	3	29	Target	AvoidedLoss	True
286.122	0.3	Lose2	0.6333	0.001	Yes	2.828	-0.001	3.0	GoodResponse	0	0.201	n/a	3	29	ButtonPress	AvoidedLoss	True
286.171	0.45	Lose2	0.6333	n/a	Yes	2.828	n/a	n/a	GoodResponse	0	n/a	n/a	3	29	Blank	AvoidedLoss	True
286.621	1.45	Lose2	0.6333	n/a	Yes	2.828	n/a	5.0	GoodResponse	0	0.38	286.001	3	29	Feedback	AvoidedLoss	True
288.07	2.828	Lose2	0.6333	n/a	Yes	2.828	n/a	n/a	GoodResponse	0	0.0	n/a	3	29	ISIslide	AvoidedLoss	True
290.919	0.25	Win2	0.6452	0.0	Yes	2.781	0.019	n/a	GoodResponse	1	n/a	n/a	4	30	Cue	Win	True
291.169	3.9	Win2	0.6452	0.0	Yes	2.781	0.0	n/a	GoodResponse	1	n/a	n/a	4	30	Fixation	Win	True
295.068	0.26	Win2	0.6452	0.001	Yes	2.781	-0.001	3.0	GoodResponse	1	0.19	294.258	4	30	Target	Win	True
295.258	0.3	Win2	0.6452	0.001	Yes	2.781	-0.001	3.0	GoodResponse	1	0.19	n/a	4	30	ButtonPress	Win	True
295.334	0.44	Win2	0.6452	n/a	Yes	2.781	n/a	n/a	GoodResponse	1	n/a	n/a	4	30	Blank	Win	True
295.768	1.45	Win2	0.6452	n/a	Yes	2.781	n/a	5.0	GoodResponse	1	1.233	296.001	4	30	Feedback	Win	True
297.217	2.781	Win2	0.6452	n/a	Yes	2.781	n/a	n/a	GoodResponse	1	0.0	n/a	4	30	ISIslide	Win	True
300.016	0.25	Lose2	0.6562	0.0	Yes	2.834	0.016	n/a	GoodResponse	0	n/a	n/a	4	31	Cue	AvoidedLoss	True
300.266	4.05	Lose2	0.6562	0.0	Yes	2.834	0.0	n/a	GoodResponse	0	n/a	n/a	4	31	Fixation	AvoidedLoss	True
304.315	0.27	Lose2	0.6562	0.001	Yes	2.834	-0.001	3.0	GoodResponse	0	0.247	303.562	4	31	Target	AvoidedLoss	True
304.562	0.3	Lose2	0.6562	0.001	Yes	2.834	-0.001	3.0	GoodResponse	0	0.247	n/a	4	31	ButtonPress	AvoidedLoss	True
304.598	0.43	Lose2	0.6562	n/a	Yes	2.834	n/a	n/a	GoodResponse	0	n/a	n/a	4	31	Blank	AvoidedLoss	True
305.014	1.45	Lose2	0.6562	n/a	Yes	2.834	n/a	n/a	GoodResponse	0	n/a	n/a	4	31	Feedback	AvoidedLoss	True
306.464	2.834	Lose2	0.6562	n/a	Yes	2.834	n/a	n/a	GoodResponse	0	0.0	n/a	4	31	ISIslide	AvoidedLoss	True
309.313	0.25	Lose2	0.6667000000000001	0.0	Yes	2.637	0.013	n/a	GoodResponse	0	n/a	n/a	4	32	Cue	AvoidedLoss	True
309.563	4.15	Lose2	0.6667000000000001	0.0	Yes	2.637	0.0	n/a	GoodResponse	0	n/a	n/a	4	32	Fixation	AvoidedLoss	True
313.711	0.27	Lose2	0.6667000000000001	0.002	Yes	2.637	-0.002	3.0	GoodResponse	0	0.227	312.938	4	32	Target	AvoidedLoss	True
313.938	0.3	Lose2	0.6667000000000001	0.002	Yes	2.637	-0.002	3.0	GoodResponse	0	0.227	n/a	4	32	ButtonPress	AvoidedLoss	True
313.995	0.43	Lose2	0.6667000000000001	n/a	Yes	2.637	n/a	n/a	GoodResponse	0	n/a	n/a	4	32	Blank	AvoidedLoss	True
314.411	1.45	Lose2	0.6667000000000001	n/a	Yes	2.637	n/a	5.0	GoodResponse	0	0.589	314.0	4	32	Feedback	AvoidedLoss	True
315.861	2.637	Lose2	0.6667000000000001	n/a	Yes	2.637	n/a	n/a	GoodResponse	0	0.0	n/a	4	32	ISIslide	AvoidedLoss	True
318.526	0.25	Win2	0.6765000000000001	0.0	Yes	2.674	0.026	n/a	GoodResponse	1	n/a	n/a	5	33	Cue	Win	True
318.776	4.0	Win2	0.6765000000000001	0.0	Yes	2.674	0.0	n/a	GoodResponse	1	n/a	n/a	5	33	Fixation	Win	True
322.775	0.26	Win2	0.6765000000000001	0.001	Yes	2.674	-0.001	3.0	GoodResponse	1	0.228	322.003	5	33	Target	Win	True
323.003	0.3	Win2	0.6765000000000001	0.001	Yes	2.674	-0.001	3.0	GoodResponse	1	0.228	n/a	5	33	ButtonPress	Win	True
323.041	0.44	Win2	0.6765000000000001	n/a	Yes	2.674	n/a	n/a	GoodResponse	1	n/a	n/a	5	33	Blank	Win	True
323.475	1.45	Win2	0.6765000000000001	n/a	Yes	2.674	n/a	n/a	GoodResponse	1	n/a	n/a	5	33	Feedback	Win	True
324.924	2.674	Win2	0.6765000000000001	n/a	Yes	2.674	n/a	n/a	GoodResponse	1	0.0	n/a	5	33	ISIslide	Win	True
327.623	0.25	Lose2	0.6857	0.0	Yes	2.627	0.023	n/a	GoodResponse	0	n/a	n/a	5	34	Cue	AvoidedLoss	True
327.873	4.05	Lose2	0.6857	0.0	Yes	2.627	0.0	n/a	GoodResponse	0	n/a	n/a	5	34	Fixation	AvoidedLoss	True
331.922	0.25	Lose2	0.6857	0.001	Yes	2.627	-0.001	3.0	GoodResponse	0	0.182	331.104	5	34	Target	AvoidedLoss	True
332.104	0.3	Lose2	0.6857	0.001	Yes	2.627	-0.001	3.0	GoodResponse	0	0.182	n/a	5	34	ButtonPress	AvoidedLoss	True
332.172	0.45	Lose2	0.6857	n/a	Yes	2.627	n/a	n/a	GoodResponse	0	n/a	n/a	5	34	Blank	AvoidedLoss	True
332.621	1.45	Lose2	0.6857	n/a	Yes	2.627	n/a	5.0	GoodResponse	0	0.379	332.0	5	34	Feedback	AvoidedLoss	True
334.071	2.627	Lose2	0.6857	n/a	Yes	2.627	n/a	n/a	GoodResponse	0	0.0	n/a	5	34	ISIslide	AvoidedLoss	True
336.72	0.25	Lose2	0.6667000000000001	0.0	No	2.68	0.02	n/a	NoResponse	-1	n/a	n/a	4	35	Cue	Loss	True
336.97	4.0	Lose2	0.6667000000000001	0.0	No	2.68	0.0	n/a	NoResponse	-1	n/a	n/a	4	35	Fixation	Loss	True
340.969	0.24	Lose2	0.6667000000000001	0.001	No	2.68	-0.001	3.0	NoResponse	-1	0.326	340.295	4	35	Target	Loss	True
341.218	0.46	Lose2	0.6667000000000001	n/a	No	2.68	n/a	n/a	NoResponse	-1	n/a	n/a	4	35	Blank	Loss	True
341.295	0.3	Lose2	0.6667000000000001	0.001	No	2.68	-0.001	3.0	NoResponse	-1	0.326	n/a	4	35	ButtonPress	Loss	True
341.668	1.45	Lose2	0.6667000000000001	n/a	No	2.68	n/a	5.0	NoResponse	-1	1.333	342.001	4	35	Feedback	Loss	True
343.118	2.68	Lose2	0.6667000000000001	n/a	No	2.68	n/a	n/a	NoResponse	-1	0.0	n/a	4	35	ISIslide	Loss	True
345.817	0.25	Control	0.6486	0.0	No	2.683	0.017	n/a	NoResponse	0	n/a	n/a	4	36	Cue	Neutral	True
346.067	4.0	Control	0.6486	0.0	No	2.683	0.0	n/a	NoResponse	0	n/a	n/a	4	36	Fixation	Neutral	True
350.065	0.23	Control	0.6486	0.002	No	2.683	-0.002	3.0	NoResponse	0	0.261	349.326	4	36	Target	Neutral	True
350.299	0.47	Control	0.6486	n/a	No	2.683	n/a	n/a	NoResponse	0	n/a	n/a	4	36	Blank	Neutral	True
350.326	0.3	Control	0.6486	0.002	No	2.683	-0.002	3.0	NoResponse	0	0.261	n/a	4	36	ButtonPress	Neutral	True
350.765	1.45	Control	0.6486	n/a	No	2.683	n/a	5.0	NoResponse	0	0.236	350.001	4	36	Feedback	Neutral	True
352.215	2.683	Control	0.6486	n/a	No	2.683	n/a	n/a	NoResponse	0	0.0	n/a	4	36	ISIslide	Neutral	True
354.914	0.25	Win2	0.6579	0.0	Yes	2.886	0.014	n/a	GoodResponse	1	n/a	n/a	5	37	Cue	Win	True
355.164	4.0	Win2	0.6579	0.0	Yes	2.886	0.0	n/a	GoodResponse	1	n/a	n/a	5	37	Fixation	Win	True
359.162	0.24	Win2	0.6579	0.002	Yes	2.886	-0.002	3.0	GoodResponse	1	0.201	358.363	5	37	Target	Win	True
359.363	0.3	Win2	0.6579	0.002	Yes	2.886	-0.002	3.0	GoodResponse	1	0.201	n/a	5	37	ButtonPress	Win	True
359.412	0.46	Win2	0.6579	n/a	Yes	2.886	n/a	n/a	GoodResponse	1	n/a	n/a	5	37	Blank	Win	True
359.862	1.45	Win2	0.6579	n/a	Yes	2.886	n/a	5.0	GoodResponse	1	1.138	360.0	5	37	Feedback	Win	True
361.312	2.886	Win2	0.6579	n/a	Yes	2.886	n/a	n/a	GoodResponse	1	0.0	n/a	5	37	ISIslide	Win	True
364.227	0.25	Lose2	0.6667000000000001	0.0	Yes	2.823	0.027	n/a	GoodResponse	0	n/a	n/a	5	38	Cue	AvoidedLoss	True
364.477	3.95	Lose2	0.6667000000000001	0.0	Yes	2.823	0.0	n/a	GoodResponse	0	n/a	n/a	5	38	Fixation	AvoidedLoss	True
368.426	0.24	Lose2	0.6667000000000001	0.001	Yes	2.823	-0.001	3.0	GoodResponse	0	0.187	367.613	5	38	Target	AvoidedLoss	True
368.613	0.3	Lose2	0.6667000000000001	0.001	Yes	2.823	-0.001	3.0	GoodResponse	0	0.187	n/a	5	38	ButtonPress	AvoidedLoss	True
368.676	0.46	Lose2	0.6667000000000001	n/a	Yes	2.823	n/a	n/a	GoodResponse	0	n/a	n/a	5	38	Blank	AvoidedLoss	True
369.125	1.45	Lose2	0.6667000000000001	n/a	Yes	2.823	n/a	n/a	GoodResponse	0	n/a	n/a	5	38	Feedback	AvoidedLoss	True
370.575	2.823	Lose2	0.6667000000000001	n/a	Yes	2.823	n/a	n/a	GoodResponse	0	0.0	n/a	5	38	ISIslide	AvoidedLoss	True
373.424	0.25	Win2	0.65	0.0	No	2.976	0.024	n/a	PrematurePress	0	n/a	n/a	5	39	Cue	MissedWin	True
373.674	4.1	Win2	0.65	0.0	No	2.976	0.0	n/a	PrematurePress	0	n/a	n/a	5	39	Fixation	MissedWin	True
377.772	0.23	Win2	0.65	0.002	No	2.976	-0.002	3.0	PrematurePress	0	0.005	376.777	5	39	Target	MissedWin	True
377.777	0.3	Win2	0.65	0.002	No	2.976	-0.002	3.0	PrematurePress	0	0.005	n/a	5	39	ButtonPress	MissedWin	True
378.006	0.47	Win2	0.65	n/a	No	2.976	n/a	n/a	PrematurePress	0	n/a	n/a	5	39	Blank	MissedWin	True
378.472	1.45	Win2	0.65	n/a	No	2.976	n/a	5.0	PrematurePress	0	0.528	378.0	5	39	Feedback	MissedWin	True
379.922	2.976	Win2	0.65	n/a	No	2.976	n/a	n/a	PrematurePress	0	0.0	n/a	5	39	ISIslide	MissedWin	True
382.921	0.25	Win2	0.6341	0.0	No	2.729	0.021	n/a	NoResponse	0	n/a	n/a	5	40	Cue	MissedWin	True
383.171	3.95	Win2	0.6341	0.0	No	2.729	0.0	n/a	NoResponse	0	n/a	n/a	5	40	Fixation	MissedWin	True
387.119	0.24	Win2	0.6341	0.002	No	2.729	-0.002	3.0	NoResponse	0	0.299	386.418	5	40	Target	MissedWin	True
387.369	0.46	Win2	0.6341	n/a	No	2.729	n/a	n/a	NoResponse	0	n/a	n/a	5	40	Blank	MissedWin	True
387.418	0.3	Win2	0.6341	0.002	No	2.729	-0.002	3.0	NoResponse	0	0.299	n/a	5	40	ButtonPress	MissedWin	True
387.819	1.45	Win2	0.6341	n/a	No	2.729	n/a	5.0	NoResponse	0	1.181	388.0	5	40	Feedback	MissedWin	True
389.269	2.729	Win2	0.6341	n/a	No	2.729	n/a	n/a	NoResponse	0	0.0	n/a	5	40	ISIslide	MissedWin	True
392.018	0.25	Win2	0.619	0.0	No	2.782	0.018	n/a	NoResponse	0	n/a	n/a	5	41	Cue	MissedWin	True
392.267	3.9	Win2	0.619	0.001	No	2.782	-0.001	n/a	NoResponse	0	n/a	n/a	5	41	Fixation	MissedWin	True
396.166	0.25	Win2	0.619	0.002	No	2.782	-0.002	3.0	NoResponse	0	0.261	395.427	5	41	Target	MissedWin	True
396.416	0.45	Win2	0.619	n/a	No	2.782	n/a	n/a	NoResponse	0	n/a	n/a	5	41	Blank	MissedWin	True
396.427	0.3	Win2	0.619	0.002	No	2.782	-0.002	3.0	NoResponse	0	0.261	n/a	5	41	ButtonPress	MissedWin	True
396.866	1.45	Win2	0.619	n/a	No	2.782	n/a	5.0	NoResponse	0	0.134	396.0	5	41	Feedback	MissedWin	True
398.315	2.782	Win2	0.619	n/a	No	2.782	n/a	n/a	NoResponse	0	0.0	n/a	5	41	ISIslide	MissedWin	True
401.114	0.25	Control	0.6047	0.0	No	2.936	0.014	n/a	NoResponse	0	n/a	n/a	5	42	Cue	Neutral	True
401.364	3.85	Control	0.6047	0.0	No	2.936	0.0	n/a	NoResponse	0	n/a	n/a	5	42	Fixation	Neutral	True
405.213	0.26	Control	0.6047	0.001	No	2.936	-0.001	3.0	NoResponse	0	0.286	404.499	5	42	Target	Neutral	True
405.48	0.44	Control	0.6047	n/a	No	2.936	n/a	n/a	NoResponse	0	n/a	n/a	5	42	Blank	Neutral	True
405.499	0.3	Control	0.6047	0.001	No	2.936	-0.001	3.0	NoResponse	0	0.286	n/a	5	42	ButtonPress	Neutral	True
405.913	1.45	Control	0.6047	n/a	No	2.936	n/a	5.0	NoResponse	0	1.087	406.0	5	42	Feedback	Neutral	True
407.362	2.936	Control	0.6047	n/a	No	2.936	n/a	n/a	NoResponse	0	0.0	n/a	5	42	ISIslide	Neutral	True
410.328	0.25	Win2	0.5909	0.0	No	3.172	0.028	n/a	LatePress	0	n/a	n/a	5	43	Cue	MissedWin	True
410.578	4.0	Win2	0.5909	0.0	No	3.172	0.0	n/a	LatePress	0	n/a	n/a	5	43	Fixation	MissedWin	True
414.576	0.27	Win2	0.5909	0.002	No	3.172	-0.002	3.0	LatePress	0	0.279	413.855	5	43	Target	MissedWin	True
414.855	0.3	Win2	0.5909	0.002	No	3.172	-0.002	3.0	LatePress	0	0.279	n/a	5	43	ButtonPress	MissedWin	True
414.86	0.43	Win2	0.5909	n/a	No	3.172	n/a	n/a	LatePress	0	n/a	n/a	5	43	Blank	MissedWin	True
415.276	1.45	Win2	0.5909	n/a	No	3.172	n/a	n/a	LatePress	0	n/a	n/a	5	43	Feedback	MissedWin	True
416.726	3.172	Win2	0.5909	n/a	No	3.172	n/a	n/a	LatePress	0	0.0	n/a	5	43	ISIslide	MissedWin	True
419.925	0.25	Win2	0.5778	0.0	No	2.975	0.025	n/a	NoResponse	0	n/a	n/a	5	44	Cue	MissedWin	True
420.174	4.0	Win2	0.5778	0.001	No	2.975	-0.001	n/a	NoResponse	0	n/a	n/a	5	44	Fixation	MissedWin	True
424.173	0.28	Win2	0.5778	0.002	No	2.975	-0.002	3.0	NoResponse	0	0.296	423.469	5	44	Target	MissedWin	True
424.456	0.42	Win2	0.5778	n/a	No	2.975	n/a	n/a	NoResponse	0	n/a	n/a	5	44	Blank	MissedWin	True
424.469	0.3	Win2	0.5778	0.002	No	2.975	-0.002	3.0	NoResponse	0	0.296	n/a	5	44	ButtonPress	MissedWin	True
424.873	1.45	Win2	0.5778	n/a	No	2.975	n/a	5.0	NoResponse	0	0.127	424.0	5	44	Feedback	MissedWin	True
426.322	2.975	Win2	0.5778	n/a	No	2.975	n/a	n/a	NoResponse	0	0.0	n/a	5	44	ISIslide	MissedWin	True
429.321	0.25	Control	0.5870000000000001	0.0	Yes	2.879	0.021	n/a	GoodResponse	0	n/a	n/a	5	45	Cue	Neutral	True
429.571	4.1	Control	0.5870000000000001	0.0	Yes	2.879	0.0	n/a	GoodResponse	0	n/a	n/a	5	45	Fixation	Neutral	True
433.67	0.29	Control	0.5870000000000001	0.001	Yes	2.879	-0.001	3.0	GoodResponse	0	0.254	432.924	5	45	Target	Neutral	True
433.924	0.3	Control	0.5870000000000001	0.001	Yes	2.879	-0.001	3.0	GoodResponse	0	0.254	n/a	5	45	ButtonPress	Neutral	True
433.97	0.41	Control	0.5870000000000001	n/a	Yes	2.879	n/a	n/a	GoodResponse	0	n/a	n/a	5	45	Blank	Neutral	True
434.37	1.45	Control	0.5870000000000001	n/a	Yes	2.879	n/a	5.0	GoodResponse	0	0.63	434.0	5	45	Feedback	Neutral	True
435.819	2.879	Control	0.5870000000000001	n/a	Yes	2.879	n/a	n/a	GoodResponse	0	0.0	n/a	5	45	ISIslide	Neutral	True
438.718	0.25	Lose2	0.5957	0.0	Yes	3.382	0.018	n/a	GoodResponse	0	n/a	n/a	5	46	Cue	AvoidedLoss	True
438.968	4.0	Lose2	0.5957	0.0	Yes	3.382	0.0	n/a	GoodResponse	0	n/a	n/a	5	46	Fixation	AvoidedLoss	True
442.967	0.3	Lose2	0.5957	0.001	Yes	3.382	-0.001	3.0	GoodResponse	0	0.248	442.215	5	46	Target	AvoidedLoss	True
443.215	0.3	Lose2	0.5957	0.001	Yes	3.382	-0.001	3.0	GoodResponse	0	0.248	n/a	5	46	ButtonPress	AvoidedLoss	True
443.267	0.4	Lose2	0.5957	n/a	Yes	3.382	n/a	n/a	GoodResponse	0	n/a	n/a	5	46	Blank	AvoidedLoss	True
443.666	1.45	Lose2	0.5957	n/a	Yes	3.382	n/a	5.0	GoodResponse	0	1.334	444.0	5	46	Feedback	AvoidedLoss	True
445.116	3.382	Lose2	0.5957	n/a	Yes	3.382	n/a	n/a	GoodResponse	0	0.0	n/a	5	46	ISIslide	AvoidedLoss	True
448.515	0.25	Lose2	0.6042000000000001	0.0	Yes	2.685	0.015	n/a	GoodResponse	0	n/a	n/a	5	47	Cue	AvoidedLoss	True
448.765	4.0	Lose2	0.6042000000000001	0.0	Yes	2.685	0.0	n/a	GoodResponse	0	n/a	n/a	5	47	Fixation	AvoidedLoss	True
452.763	0.31	Lose2	0.6042000000000001	0.002	Yes	2.685	-0.002	3.0	GoodResponse	0	0.241	452.004	5	47	Target	AvoidedLoss	True
453.004	0.3	Lose2	0.6042000000000001	0.002	Yes	2.685	-0.002	3.0	GoodResponse	0	0.241	n/a	5	47	ButtonPress	AvoidedLoss	True
453.08	0.39	Lose2	0.6042000000000001	n/a	Yes	2.685	n/a	n/a	GoodResponse	0	n/a	n/a	5	47	Blank	AvoidedLoss	True
453.463	1.45	Lose2	0.6042000000000001	n/a	Yes	2.685	n/a	n/a	GoodResponse	0	n/a	n/a	5	47	Feedback	AvoidedLoss	True
454.912	2.685	Lose2	0.6042000000000001	n/a	Yes	2.685	n/a	n/a	GoodResponse	0	0.0	n/a	5	47	ISIslide	AvoidedLoss	True
457.612	0.25	Lose2	0.6122	0.0	Yes	3.038	0.012	n/a	GoodResponse	0	n/a	n/a	5	48	Cue	AvoidedLoss	True
457.861	3.95	Lose2	0.6122	0.001	Yes	3.038	-0.001	n/a	GoodResponse	0	n/a	n/a	5	48	Fixation	AvoidedLoss	True
461.81	0.32	Lose2	0.6122	0.002	Yes	3.038	-0.002	3.0	GoodResponse	0	0.233	461.043	5	48	Target	AvoidedLoss	True
462.043	0.3	Lose2	0.6122	0.002	Yes	3.038	-0.002	3.0	GoodResponse	0	0.233	n/a	5	48	ButtonPress	AvoidedLoss	True
462.143	0.38	Lose2	0.6122	n/a	Yes	3.038	n/a	n/a	GoodResponse	0	n/a	n/a	5	48	Blank	AvoidedLoss	True
462.51	1.45	Lose2	0.6122	n/a	Yes	3.038	n/a	5.0	GoodResponse	0	0.49	462.0	5	48	Feedback	AvoidedLoss	True
463.959	3.038	Lose2	0.6122	n/a	Yes	3.038	n/a	n/a	GoodResponse	0	0.0	n/a	5	48	ISIslide	AvoidedLoss	True
467.025	0.25	Control	0.6	0.0	No	2.875	0.025	n/a	NoResponse	0	n/a	n/a	5	49	Cue	Neutral	True
467.275	4.0	Control	0.6	0.0	No	2.875	0.0	n/a	NoResponse	0	n/a	n/a	5	49	Fixation	Neutral	True
471.273	0.33	Control	0.6	0.002	No	2.875	-0.002	3.0	NoResponse	0	0.55	470.823	5	49	Target	Neutral	True
471.607	0.37	Control	0.6	n/a	No	2.875	n/a	n/a	NoResponse	0	n/a	n/a	5	49	Blank	Neutral	True
471.823	0.3	Control	0.6	0.002	No	2.875	-0.002	3.0	NoResponse	0	0.55	n/a	5	49	ButtonPress	Neutral	True
471.973	1.45	Control	0.6	n/a	No	2.875	n/a	5.0	NoResponse	0	1.027	472.0	5	49	Feedback	Neutral	True
473.423	2.875	Control	0.6	n/a	No	2.875	n/a	n/a	NoResponse	0	0.0	n/a	5	49	ISIslide	Neutral	True
476.322	0.25	Control	0.6078	0.0	Yes	2.778	0.022	n/a	GoodResponse	0	n/a	n/a	5	50	Cue	Neutral	True
476.572	4.0	Control	0.6078	0.0	Yes	2.778	0.0	n/a	GoodResponse	0	n/a	n/a	5	50	Fixation	Neutral	True
480.57	0.34	Control	0.6078	0.002	Yes	2.778	-0.002	3.0	GoodResponse	0	0.259	479.829	5	50	Target	Neutral	True
480.829	0.3	Control	0.6078	0.002	Yes	2.778	-0.002	3.0	GoodResponse	0	0.259	n/a	5	50	ButtonPress	Neutral	True
480.92	0.36	Control	0.6078	n/a	Yes	2.778	n/a	n/a	GoodResponse	0	n/a	n/a	5	50	Blank	Neutral	True
481.27	1.45	Control	0.6078	n/a	Yes	2.778	n/a	n/a	GoodResponse	0	n/a	n/a	5	50	Feedback	Neutral	True
482.72	2.778	Control	0.6078	n/a	Yes	2.778	n/a	n/a	GoodResponse	0	0.0	n/a	5	50	ISIslide	Neutral	True
485.519	0.25	Control	0.6154	0.0	Yes	2.731	0.019	n/a	GoodResponse	0	n/a	n/a	5	51	Cue	Neutral	True
485.768	3.95	Control	0.6154	0.001	Yes	2.731	-0.001	n/a	GoodResponse	0	n/a	n/a	5	51	Fixation	Neutral	True
489.717	0.35	Control	0.6154	0.002	Yes	2.731	-0.002	3.0	GoodResponse	0	0.233	488.95	5	51	Target	Neutral	True
489.95	0.3	Control	0.6154	0.002	Yes	2.731	-0.002	3.0	GoodResponse	0	0.233	n/a	5	51	ButtonPress	Neutral	True
490.067	0.35	Control	0.6154	n/a	Yes	2.731	n/a	n/a	GoodResponse	0	n/a	n/a	5	51	Blank	Neutral	True
490.417	1.45	Control	0.6154	n/a	Yes	2.731	n/a	5.0	GoodResponse	0	0.582	489.999	5	51	Feedback	Neutral	True
491.866	2.731	Control	0.6154	n/a	Yes	2.731	n/a	n/a	GoodResponse	0	0.0	n/a	5	51	ISIslide	Neutral	True
494.615	0.25	Control	0.6225999999999999	0.001	Yes	2.635	0.015	n/a	GoodResponse	0	n/a	n/a	5	52	Cue	Neutral	True
494.865	4.05	Control	0.6225999999999999	0.0	Yes	2.635	0.0	n/a	GoodResponse	0	n/a	n/a	5	52	Fixation	Neutral	True
498.914	0.36	Control	0.6225999999999999	0.001	Yes	2.635	-0.001	3.0	GoodResponse	0	0.255	498.169	5	52	Target	Neutral	True
499.169	0.3	Control	0.6225999999999999	0.001	Yes	2.635	-0.001	3.0	GoodResponse	0	0.255	n/a	5	52	ButtonPress	Neutral	True
499.28	0.34	Control	0.6225999999999999	n/a	Yes	2.635	n/a	n/a	GoodResponse	0	n/a	n/a	5	52	Blank	Neutral	True
499.614	1.45	Control	0.6225999999999999	n/a	Yes	2.635	n/a	5.0	GoodResponse	0	1.385	499.999	5	52	Feedback	Neutral	True
501.063	2.635	Control	0.6225999999999999	n/a	Yes	2.635	n/a	n/a	GoodResponse	0	0.0	n/a	5	52	ISIslide	Neutral	True
503.712	0.25	Win2	0.6296	0.0	Yes	2.938	0.012	n/a	GoodResponse	1	n/a	n/a	6	53	Cue	Win	True
503.962	4.05	Win2	0.6296	0.0	Yes	2.938	0.0	n/a	GoodResponse	1	n/a	n/a	6	53	Fixation	Win	True
508.011	0.37	Win2	0.6296	0.001	Yes	2.938	-0.001	3.0	GoodResponse	1	0.254	507.265	6	53	Target	Win	True
508.265	0.3	Win2	0.6296	0.001	Yes	2.938	-0.001	3.0	GoodResponse	1	0.254	n/a	6	53	ButtonPress	Win	True
508.394	0.33	Win2	0.6296	n/a	Yes	2.938	n/a	n/a	GoodResponse	1	n/a	n/a	6	53	Blank	Win	True
508.711	1.45	Win2	0.6296	n/a	Yes	2.938	n/a	5.0	GoodResponse	1	0.289	508.0	6	53	Feedback	Win	True
510.16	2.938	Win2	0.6296	n/a	Yes	2.938	n/a	n/a	GoodResponse	1	0.0	n/a	6	53	ISIslide	Win	True
513.126	0.25	Win2	0.6364	0.0	Yes	2.724	0.026	n/a	GoodResponse	1	n/a	n/a	7	54	Cue	Win	True
513.376	3.95	Win2	0.6364	0.0	Yes	2.724	0.0	n/a	GoodResponse	1	n/a	n/a	7	54	Fixation	Win	True
517.324	0.38	Win2	0.6364	0.002	Yes	2.724	-0.002	3.0	GoodResponse	1	0.249	516.573	7	54	Target	Win	True
517.573	0.3	Win2	0.6364	0.002	Yes	2.724	-0.002	3.0	GoodResponse	1	0.249	n/a	7	54	ButtonPress	Win	True
517.707	0.32	Win2	0.6364	n/a	Yes	2.724	n/a	n/a	GoodResponse	1	n/a	n/a	7	54	Blank	Win	True
518.024	1.45	Win2	0.6364	n/a	Yes	2.724	n/a	5.0	GoodResponse	1	0.976	518.0	7	54	Feedback	Win	True
519.473	2.724	Win2	0.6364	n/a	Yes	2.724	n/a	n/a	GoodResponse	1	0.0	n/a	7	54	ISIslide	Win	True
522.223	0.25	Control	0.6429	0.0	Yes	3.027	0.023	n/a	GoodResponse	0	n/a	n/a	7	55	Cue	Neutral	True
522.472	3.95	Control	0.6429	0.001	Yes	3.027	-0.001	n/a	GoodResponse	0	n/a	n/a	7	55	Fixation	Neutral	True
526.421	0.39	Control	0.6429	0.002	Yes	3.027	-0.002	3.0	GoodResponse	0	0.298	525.719	7	55	Target	Neutral	True
526.719	0.3	Control	0.6429	0.002	Yes	3.027	-0.002	3.0	GoodResponse	0	0.298	n/a	7	55	ButtonPress	Neutral	True
526.821	0.31	Control	0.6429	n/a	Yes	3.027	n/a	n/a	GoodResponse	0	n/a	n/a	7	55	Blank	Neutral	True
527.121	1.45	Control	0.6429	n/a	Yes	3.027	n/a	n/a	GoodResponse	0	n/a	n/a	7	55	Feedback	Neutral	True
528.57	3.027	Control	0.6429	n/a	Yes	3.027	n/a	n/a	GoodResponse	0	0.0	n/a	7	55	ISIslide	Neutral	True
531.619	0.25	Control	0.6491	0.0	Yes	2.831	0.019	n/a	GoodResponse	0	n/a	n/a	7	56	Cue	Neutral	True
531.869	3.95	Control	0.6491	0.0	Yes	2.831	0.0	n/a	GoodResponse	0	n/a	n/a	7	56	Fixation	Neutral	True
535.818	0.4	Control	0.6491	0.001	Yes	2.831	-0.001	3.0	GoodResponse	0	0.312	535.13	7	56	Target	Neutral	True
536.13	0.3	Control	0.6491	0.001	Yes	2.831	-0.001	3.0	GoodResponse	0	0.312	n/a	7	56	ButtonPress	Neutral	True
536.218	0.3	Control	0.6491	n/a	Yes	2.831	n/a	n/a	GoodResponse	0	n/a	n/a	7	56	Blank	Neutral	True
536.518	1.45	Control	0.6491	n/a	Yes	2.831	n/a	5.0	GoodResponse	0	0.481	535.999	7	56	Feedback	Neutral	True
537.967	2.831	Control	0.6491	n/a	Yes	2.831	n/a	n/a	GoodResponse	0	0.0	n/a	7	56	ISIslide	Neutral	True
540.816	0.25	Control	0.6552	0.0	Yes	3.484	0.016	n/a	GoodResponse	0	n/a	n/a	7	57	Cue	Neutral	True
541.066	4.0	Control	0.6552	0.0	Yes	3.484	0.0	n/a	GoodResponse	0	n/a	n/a	7	57	Fixation	Neutral	True
545.065	0.41	Control	0.6552	0.001	Yes	3.484	-0.001	3.0	GoodResponse	0	0.282	544.347	7	57	Target	Neutral	True
545.347	0.3	Control	0.6552	0.001	Yes	3.484	-0.001	3.0	GoodResponse	0	0.282	n/a	7	57	ButtonPress	Neutral	True
545.481	0.29	Control	0.6552	n/a	Yes	3.484	n/a	n/a	GoodResponse	0	n/a	n/a	7	57	Blank	Neutral	True
545.764	1.45	Control	0.6552	n/a	Yes	3.484	n/a	5.0	GoodResponse	0	1.235	545.999	7	57	Feedback	Neutral	True
547.214	3.484	Control	0.6552	n/a	Yes	3.484	n/a	n/a	GoodResponse	0	0.0	n/a	7	57	ISIslide	Neutral	True
550.713	0.25	Win2	0.6609999999999999	0.0	Yes	2.737	0.013	n/a	GoodResponse	1	n/a	n/a	8	58	Cue	Win	True
550.963	4.05	Win2	0.6609999999999999	0.0	Yes	2.737	0.0	n/a	GoodResponse	1	n/a	n/a	8	58	Fixation	Win	True
555.011	0.41	Win2	0.6609999999999999	0.002	Yes	2.737	-0.002	3.0	GoodResponse	1	0.234	554.245	8	58	Target	Win	True
555.245	0.3	Win2	0.6609999999999999	0.002	Yes	2.737	-0.002	3.0	GoodResponse	1	0.234	n/a	8	58	ButtonPress	Win	True
555.428	0.29	Win2	0.6609999999999999	n/a	Yes	2.737	n/a	n/a	GoodResponse	1	n/a	n/a	8	58	Blank	Win	True
555.711	1.45	Win2	0.6609999999999999	n/a	Yes	2.737	n/a	5.0	GoodResponse	1	1.288	555.999	8	58	Feedback	Win	True
557.16	2.737	Win2	0.6609999999999999	n/a	Yes	2.737	n/a	n/a	GoodResponse	1	0.0	n/a	8	58	ISIslide	Win	True
559.926	0.25	Lose2	0.6667000000000001	0.0	Yes	2.674	0.026	n/a	GoodResponse	0	n/a	n/a	8	59	Cue	AvoidedLoss	True
560.176	4.0	Lose2	0.6667000000000001	0.0	Yes	2.674	0.0	n/a	GoodResponse	0	n/a	n/a	8	59	Fixation	AvoidedLoss	True
564.175	0.41	Lose2	0.6667000000000001	0.001	Yes	2.674	-0.001	3.0	GoodResponse	0	0.243	563.418	8	59	Target	AvoidedLoss	True
564.418	0.3	Lose2	0.6667000000000001	0.001	Yes	2.674	-0.001	3.0	GoodResponse	0	0.243	n/a	8	59	ButtonPress	AvoidedLoss	True
564.591	0.29	Lose2	0.6667000000000001	n/a	Yes	2.674	n/a	n/a	GoodResponse	0	n/a	n/a	8	59	Blank	AvoidedLoss	True
564.874	1.45	Lose2	0.6667000000000001	n/a	Yes	2.674	n/a	5.0	GoodResponse	0	0.125	563.999	8	59	Feedback	AvoidedLoss	True
566.324	2.674	Lose2	0.6667000000000001	n/a	Yes	2.674	n/a	n/a	GoodResponse	0	0.0	n/a	8	59	ISIslide	AvoidedLoss	True
569.023	0.25	Control	0.6720999999999999	0.0	Yes	2.677	0.023	n/a	GoodResponse	0	n/a	n/a	8	60	Cue	Neutral	True
569.273	4.0	Control	0.6720999999999999	0.0	Yes	2.677	0.0	n/a	GoodResponse	0	n/a	n/a	8	60	Fixation	Neutral	True
573.272	0.4	Control	0.6720999999999999	0.001	Yes	2.677	-0.001	3.0	GoodResponse	0	0.252	572.524	8	60	Target	Neutral	True
573.524	0.3	Control	0.6720999999999999	0.001	Yes	2.677	-0.001	3.0	GoodResponse	0	0.252	n/a	8	60	ButtonPress	Neutral	True
573.671	0.3	Control	0.6720999999999999	n/a	Yes	2.677	n/a	n/a	GoodResponse	0	n/a	n/a	8	60	Blank	Neutral	True
573.971	1.45	Control	0.6720999999999999	n/a	Yes	2.677	n/a	5.0	GoodResponse	0	1.028	573.999	8	60	Feedback	Neutral	True
575.421	2.677	Control	0.6720999999999999	n/a	Yes	2.677	n/a	n/a	GoodResponse	0	0.0	n/a	8	60	ISIslide	Neutral	True
578.12	0.25	Lose2	0.6774	0.0	Yes	2.98	0.02	n/a	GoodResponse	0	n/a	n/a	8	61	Cue	AvoidedLoss	True
578.37	4.0	Lose2	0.6774	0.0	Yes	2.98	0.0	n/a	GoodResponse	0	n/a	n/a	8	61	Fixation	AvoidedLoss	True
582.368	0.39	Lose2	0.6774	0.002	Yes	2.98	-0.002	3.0	GoodResponse	0	0.21	581.578	8	61	Target	AvoidedLoss	True
582.578	0.3	Lose2	0.6774	0.002	Yes	2.98	-0.002	3.0	GoodResponse	0	0.21	n/a	8	61	ButtonPress	AvoidedLoss	True
582.768	0.31	Lose2	0.6774	n/a	Yes	2.98	n/a	n/a	GoodResponse	0	n/a	n/a	8	61	Blank	AvoidedLoss	True
583.068	1.45	Lose2	0.6774	n/a	Yes	2.98	n/a	n/a	GoodResponse	0	n/a	n/a	8	61	Feedback	AvoidedLoss	True
584.518	2.98	Lose2	0.6774	n/a	Yes	2.98	n/a	n/a	GoodResponse	0	0.0	n/a	8	61	ISIslide	AvoidedLoss	True
587.517	0.25	Lose2	0.6825	0.0	Yes	2.883	0.017	n/a	GoodResponse	0	n/a	n/a	8	62	Cue	AvoidedLoss	True
587.767	3.9	Lose2	0.6825	0.0	Yes	2.883	0.0	n/a	GoodResponse	0	n/a	n/a	8	62	Fixation	AvoidedLoss	True
591.665	0.38	Lose2	0.6825	0.002	Yes	2.883	-0.002	3.0	GoodResponse	0	0.282	590.947	8	62	Target	AvoidedLoss	True
591.947	0.3	Lose2	0.6825	0.002	Yes	2.883	-0.002	3.0	GoodResponse	0	0.282	n/a	8	62	ButtonPress	AvoidedLoss	True
592.048	0.32	Lose2	0.6825	n/a	Yes	2.883	n/a	n/a	GoodResponse	0	n/a	n/a	8	62	Blank	AvoidedLoss	True
592.365	1.45	Lose2	0.6825	n/a	Yes	2.883	n/a	5.0	GoodResponse	0	0.635	592.0	8	62	Feedback	AvoidedLoss	True
593.814	2.883	Lose2	0.6825	n/a	Yes	2.883	n/a	n/a	GoodResponse	0	0.0	n/a	8	62	ISIslide	AvoidedLoss	True
596.713	0.25	Lose2	0.6875	0.001	Yes	2.637	0.013	n/a	GoodResponse	0	n/a	n/a	8	63	Cue	AvoidedLoss	True
596.963	4.05	Lose2	0.6875	0.0	Yes	2.637	0.0	n/a	GoodResponse	0	n/a	n/a	8	63	Fixation	AvoidedLoss	True
601.012	0.37	Lose2	0.6875	0.001	Yes	2.637	-0.001	3.0	GoodResponse	0	0.239	600.251	8	63	Target	AvoidedLoss	True
601.251	0.3	Lose2	0.6875	0.001	Yes	2.637	-0.001	3.0	GoodResponse	0	0.239	n/a	8	63	ButtonPress	AvoidedLoss	True
601.378	0.33	Lose2	0.6875	n/a	Yes	2.637	n/a	n/a	GoodResponse	0	n/a	n/a	8	63	Blank	AvoidedLoss	True
601.712	1.45	Lose2	0.6875	n/a	Yes	2.637	n/a	5.0	GoodResponse	0	1.287	601.999	8	63	Feedback	AvoidedLoss	True
603.161	2.637	Lose2	0.6875	n/a	Yes	2.637	n/a	n/a	GoodResponse	0	0.0	n/a	8	63	ISIslide	AvoidedLoss	True
605.827	0.25	Win2	0.6923	0.0	Yes	3.123	0.027	n/a	GoodResponse	1	n/a	n/a	9	64	Cue	Win	True
606.077	4.15	Win2	0.6923	0.0	Yes	3.123	0.0	n/a	GoodResponse	1	n/a	n/a	9	64	Fixation	Win	True
610.225	0.36	Win2	0.6923	0.002	Yes	3.123	-0.002	3.0	GoodResponse	1	0.245	609.47	9	64	Target	Win	True
610.47	0.3	Win2	0.6923	0.002	Yes	3.123	-0.002	3.0	GoodResponse	1	0.245	n/a	9	64	ButtonPress	Win	True
610.592	0.34	Win2	0.6923	n/a	Yes	3.123	n/a	n/a	GoodResponse	1	n/a	n/a	9	64	Blank	Win	True
610.925	1.45	Win2	0.6923	n/a	Yes	3.123	n/a	5.0	GoodResponse	1	0.074	609.999	9	64	Feedback	Win	True
612.375	3.123	Win2	0.6923	n/a	Yes	3.123	n/a	n/a	GoodResponse	1	0.0	n/a	9	64	ISIslide	Win	True
615.524	0.25	Control	0.6970000000000001	0.0	Yes	2.776	0.024	n/a	GoodResponse	0	n/a	n/a	9	65	Cue	Neutral	True
615.774	4.0	Control	0.6970000000000001	0.0	Yes	2.776	0.0	n/a	GoodResponse	0	n/a	n/a	9	65	Fixation	Neutral	True
619.772	0.35	Control	0.6970000000000001	0.002	Yes	2.776	-0.002	3.0	GoodResponse	0	0.347	619.119	9	65	Target	Neutral	True
620.119	0.3	Control	0.6970000000000001	0.002	Yes	2.776	-0.002	3.0	GoodResponse	0	0.347	n/a	9	65	ButtonPress	Neutral	True
620.122	0.35	Control	0.6970000000000001	n/a	Yes	2.776	n/a	n/a	GoodResponse	0	n/a	n/a	9	65	Blank	Neutral	True
620.472	1.45	Control	0.6970000000000001	n/a	Yes	2.776	n/a	5.0	GoodResponse	0	0.527	619.999	9	65	Feedback	Neutral	True
621.921	2.776	Control	0.6970000000000001	n/a	Yes	2.776	n/a	n/a	GoodResponse	0	0.0	n/a	9	65	ISIslide	Neutral	True
624.72	0.25	Win2	0.7015	0.0	Yes	2.78	0.02	n/a	GoodResponse	1	n/a	n/a	10	66	Cue	Win	True
624.97	3.9	Win2	0.7015	0.0	Yes	2.78	0.0	n/a	GoodResponse	1	n/a	n/a	10	66	Fixation	Win	True
628.869	0.34	Win2	0.7015	0.001	Yes	2.78	-0.001	3.0	GoodResponse	1	0.254	628.123	10	66	Target	Win	True
629.123	0.3	Win2	0.7015	0.001	Yes	2.78	-0.001	3.0	GoodResponse	1	0.254	n/a	10	66	ButtonPress	Win	True
629.219	0.36	Win2	0.7015	n/a	Yes	2.78	n/a	n/a	GoodResponse	1	n/a	n/a	10	66	Blank	Win	True
629.569	1.45	Win2	0.7015	n/a	Yes	2.78	n/a	5.0	GoodResponse	1	1.43	629.999	10	66	Feedback	Win	True
631.018	2.78	Win2	0.7015	n/a	Yes	2.78	n/a	n/a	GoodResponse	1	0.0	n/a	10	66	ISIslide	Win	True
633.817	0.25	Control	0.7059000000000001	0.0	Yes	2.733	0.017	n/a	GoodResponse	0	n/a	n/a	10	67	Cue	Neutral	True
634.067	3.95	Control	0.7059000000000001	0.0	Yes	2.733	0.0	n/a	GoodResponse	0	n/a	n/a	10	67	Fixation	Neutral	True
638.016	0.33	Control	0.7059000000000001	0.001	Yes	2.733	-0.001	3.0	GoodResponse	0	0.285	637.301	10	67	Target	Neutral	True
638.301	0.3	Control	0.7059000000000001	0.001	Yes	2.733	-0.001	3.0	GoodResponse	0	0.285	n/a	10	67	ButtonPress	Neutral	True
638.349	0.37	Control	0.7059000000000001	n/a	Yes	2.733	n/a	n/a	GoodResponse	0	n/a	n/a	10	67	Blank	Neutral	True
638.716	1.45	Control	0.7059000000000001	n/a	Yes	2.733	n/a	5.0	GoodResponse	0	0.283	637.999	10	67	Feedback	Neutral	True
640.165	2.733	Control	0.7059000000000001	n/a	Yes	2.733	n/a	n/a	GoodResponse	0	0.0	n/a	10	67	ISIslide	Neutral	True
642.914	0.25	Win2	0.7101000000000001	0.0	Yes	3.086	0.014	n/a	GoodResponse	1	n/a	n/a	11	68	Cue	Win	True
643.164	4.0	Win2	0.7101000000000001	0.0	Yes	3.086	0.0	n/a	GoodResponse	1	n/a	n/a	11	68	Fixation	Win	True
647.163	0.32	Win2	0.7101000000000001	0.001	Yes	3.086	-0.001	3.0	GoodResponse	1	0.23	646.393	11	68	Target	Win	True
647.393	0.3	Win2	0.7101000000000001	0.001	Yes	3.086	-0.001	3.0	GoodResponse	1	0.23	n/a	11	68	ButtonPress	Win	True
647.496	0.38	Win2	0.7101000000000001	n/a	Yes	3.086	n/a	n/a	GoodResponse	1	n/a	n/a	11	68	Blank	Win	True
647.862	1.45	Win2	0.7101000000000001	n/a	Yes	3.086	n/a	5.0	GoodResponse	1	1.137	647.999	11	68	Feedback	Win	True
649.312	3.086	Win2	0.7101000000000001	n/a	Yes	3.086	n/a	n/a	GoodResponse	1	0.0	n/a	11	68	ISIslide	Win	True
652.428	0.25	Win2	0.7143	0.0	Yes	3.222	0.028	n/a	GoodResponse	1	n/a	n/a	12	69	Cue	Win	True
652.677	3.95	Win2	0.7143	0.001	Yes	3.222	-0.001	n/a	GoodResponse	1	n/a	n/a	12	69	Fixation	Win	True
656.626	0.31	Win2	0.7143	0.002	Yes	3.222	-0.002	3.0	GoodResponse	1	0.306	655.932	12	69	Target	Win	True
656.932	0.3	Win2	0.7143	0.002	Yes	3.222	-0.002	3.0	GoodResponse	1	0.306	n/a	12	69	ButtonPress	Win	True
656.943	0.39	Win2	0.7143	n/a	Yes	3.222	n/a	n/a	GoodResponse	1	n/a	n/a	12	69	Blank	Win	True
657.326	1.45	Win2	0.7143	n/a	Yes	3.222	n/a	n/a	GoodResponse	1	n/a	n/a	12	69	Feedback	Win	True
658.775	3.222	Win2	0.7143	n/a	Yes	3.222	n/a	n/a	GoodResponse	1	0.0	n/a	12	69	ISIslide	Win	True
662.024	0.25	Lose2	0.7182999999999999	0.0	Yes	3.026	0.024	n/a	GoodResponse	0	n/a	n/a	12	70	Cue	AvoidedLoss	True
662.274	4.05	Lose2	0.7182999999999999	0.0	Yes	3.026	0.0	n/a	GoodResponse	0	n/a	n/a	12	70	Fixation	AvoidedLoss	True
666.323	0.3	Lose2	0.7182999999999999	0.001	Yes	3.026	-0.001	3.0	GoodResponse	0	0.225	665.548	12	70	Target	AvoidedLoss	True
666.548	0.3	Lose2	0.7182999999999999	0.001	Yes	3.026	-0.001	3.0	GoodResponse	0	0.225	n/a	12	70	ButtonPress	AvoidedLoss	True
666.623	0.4	Lose2	0.7182999999999999	n/a	Yes	3.026	n/a	n/a	GoodResponse	0	n/a	n/a	12	70	Blank	AvoidedLoss	True
667.022	1.45	Lose2	0.7182999999999999	n/a	Yes	3.026	n/a	n/a	GoodResponse	0	n/a	n/a	12	70	Feedback	AvoidedLoss	True
668.472	3.026	Lose2	0.7182999999999999	n/a	Yes	3.026	n/a	n/a	GoodResponse	0	0.0	n/a	12	70	ISIslide	AvoidedLoss	True
671.521	0.25	Win2	0.7222	0.0	Yes	2.729	0.021	n/a	GoodResponse	1	n/a	n/a	13	71	Cue	Win	True
671.771	4.05	Win2	0.7222	0.0	Yes	2.729	0.0	n/a	GoodResponse	1	n/a	n/a	13	71	Fixation	Win	True
675.819	0.29	Win2	0.7222	0.002	Yes	2.729	-0.002	3.0	GoodResponse	1	0.263	675.082	13	71	Target	Win	True
676.082	0.3	Win2	0.7222	0.002	Yes	2.729	-0.002	3.0	GoodResponse	1	0.263	n/a	13	71	ButtonPress	Win	True
676.119	0.41	Win2	0.7222	n/a	Yes	2.729	n/a	n/a	GoodResponse	1	n/a	n/a	13	71	Blank	Win	True
676.519	1.45	Win2	0.7222	n/a	Yes	2.729	n/a	5.0	GoodResponse	1	0.48	675.999	13	71	Feedback	Win	True
677.969	2.729	Win2	0.7222	n/a	Yes	2.729	n/a	n/a	GoodResponse	1	0.0	n/a	13	71	ISIslide	Win	True
680.718	0.25	Win2	0.726	0.0	Yes	2.782	0.018	n/a	GoodResponse	1	n/a	n/a	14	72	Cue	Win	True
680.968	4.1	Win2	0.726	0.0	Yes	2.782	0.0	n/a	GoodResponse	1	n/a	n/a	14	72	Fixation	Win	True
685.066	0.28	Win2	0.726	0.002	Yes	2.782	-0.002	3.0	GoodResponse	1	0.24	684.306	14	72	Target	Win	True
685.306	0.3	Win2	0.726	0.002	Yes	2.782	-0.002	3.0	GoodResponse	1	0.24	n/a	14	72	ButtonPress	Win	True
685.349	0.42	Win2	0.726	n/a	Yes	2.782	n/a	n/a	GoodResponse	1	n/a	n/a	14	72	Blank	Win	True
685.766	1.45	Win2	0.726	n/a	Yes	2.782	n/a	5.0	GoodResponse	1	1.233	685.999	14	72	Feedback	Win	True
687.215	2.782	Win2	0.726	n/a	Yes	2.782	n/a	n/a	GoodResponse	1	0.0	n/a	14	72	ISIslide	Win	True
690.015	0.25	Win2	0.7297	0.0	Yes	2.685	0.015	n/a	GoodResponse	1	n/a	n/a	15	73	Cue	Win	True
690.264	4.0	Win2	0.7297	0.001	Yes	2.685	-0.001	n/a	GoodResponse	1	n/a	n/a	15	73	Fixation	Win	True
694.263	0.27	Win2	0.7297	0.002	Yes	2.685	-0.002	3.0	GoodResponse	1	0.23	693.493	15	73	Target	Win	True
694.493	0.3	Win2	0.7297	0.002	Yes	2.685	-0.002	3.0	GoodResponse	1	0.23	n/a	15	73	ButtonPress	Win	True
694.546	0.43	Win2	0.7297	n/a	Yes	2.685	n/a	n/a	GoodResponse	1	n/a	n/a	15	73	Blank	Win	True
694.963	1.45	Win2	0.7297	n/a	Yes	2.685	n/a	5.0	GoodResponse	1	0.036	693.999	15	73	Feedback	Win	True
696.412	2.685	Win2	0.7297	n/a	Yes	2.685	n/a	n/a	GoodResponse	1	0.0	n/a	15	73	ISIslide	Win	True
699.111	0.25	Lose2	0.7333	0.0	Yes	2.639	0.011	n/a	GoodResponse	0	n/a	n/a	15	74	Cue	AvoidedLoss	True
699.361	4.05	Lose2	0.7333	0.0	Yes	2.639	0.0	n/a	GoodResponse	0	n/a	n/a	15	74	Fixation	AvoidedLoss	True
703.41	0.26	Lose2	0.7333	0.001	Yes	2.639	-0.001	3.0	GoodResponse	0	0.253	702.663	15	74	Target	AvoidedLoss	True
703.663	0.3	Lose2	0.7333	0.001	Yes	2.639	-0.001	3.0	GoodResponse	0	0.253	n/a	15	74	ButtonPress	AvoidedLoss	True
703.676	0.44	Lose2	0.7333	n/a	Yes	2.639	n/a	n/a	GoodResponse	0	n/a	n/a	15	74	Blank	AvoidedLoss	True
704.11	1.45	Lose2	0.7333	n/a	Yes	2.639	n/a	5.0	GoodResponse	0	0.889	703.999	15	74	Feedback	AvoidedLoss	True
705.559	2.639	Lose2	0.7333	n/a	Yes	2.639	n/a	n/a	GoodResponse	0	0.0	n/a	15	74	ISIslide	AvoidedLoss	True
708.225	0.25	Lose2	0.7237	0.0	No	2.925	0.025	n/a	NoResponse	-1	n/a	n/a	14	75	Cue	Loss	True
708.475	3.95	Lose2	0.7237	0.0	No	2.925	0.0	n/a	NoResponse	-1	n/a	n/a	14	75	Fixation	Loss	True
712.423	0.25	Lose2	0.7237	0.002	No	2.925	-0.002	3.0	NoResponse	-1	0.263	711.686	14	75	Target	Loss	True
712.673	0.45	Lose2	0.7237	n/a	No	2.925	n/a	n/a	NoResponse	-1	n/a	n/a	14	75	Blank	Loss	True
712.686	0.3	Lose2	0.7237	0.002	No	2.925	-0.002	3.0	NoResponse	-1	0.263	n/a	14	75	ButtonPress	Loss	True
713.123	1.45	Lose2	0.7237	n/a	No	2.925	n/a	n/a	NoResponse	-1	n/a	n/a	14	75	Feedback	Loss	True
714.573	2.925	Lose2	0.7237	n/a	No	2.925	n/a	n/a	NoResponse	-1	0.0	n/a	14	75	ISIslide	Loss	True
717.522	0.25	Control	0.7273000000000001	0.0	Yes	3.228	0.022	n/a	GoodResponse	0	n/a	n/a	14	76	Cue	Neutral	True
717.772	4.05	Control	0.7273000000000001	0.0	Yes	3.228	0.0	n/a	GoodResponse	0	n/a	n/a	14	76	Fixation	Neutral	True
721.82	0.24	Control	0.7273000000000001	0.002	Yes	3.228	-0.002	3.0	GoodResponse	0	0.233	721.053	14	76	Target	Neutral	True
722.053	0.3	Control	0.7273000000000001	0.002	Yes	3.228	-0.002	3.0	GoodResponse	0	0.233	n/a	14	76	ButtonPress	Neutral	True
722.07	0.46	Control	0.7273000000000001	n/a	Yes	3.228	n/a	n/a	GoodResponse	0	n/a	n/a	14	76	Blank	Neutral	True
722.52	1.45	Control	0.7273000000000001	n/a	Yes	3.228	n/a	5.0	GoodResponse	0	0.478	721.998	14	76	Feedback	Neutral	True
723.969	3.228	Control	0.7273000000000001	n/a	Yes	3.228	n/a	n/a	GoodResponse	0	0.0	n/a	14	76	ISIslide	Neutral	True
727.218	0.25	Lose2	0.7308	0.0	Yes	2.582	0.018	n/a	GoodResponse	0	n/a	n/a	14	77	Cue	AvoidedLoss	True
727.468	3.95	Lose2	0.7308	0.0	Yes	2.582	0.0	n/a	GoodResponse	0	n/a	n/a	14	77	Fixation	AvoidedLoss	True
731.417	0.23	Lose2	0.7308	0.001	Yes	2.582	-0.001	3.0	GoodResponse	0	0.213	730.63	14	77	Target	AvoidedLoss	True
731.63	0.3	Lose2	0.7308	0.001	Yes	2.582	-0.001	3.0	GoodResponse	0	0.213	n/a	14	77	ButtonPress	AvoidedLoss	True
731.65	0.47	Lose2	0.7308	n/a	Yes	2.582	n/a	n/a	GoodResponse	0	n/a	n/a	14	77	Blank	AvoidedLoss	True
732.117	1.45	Lose2	0.7308	n/a	Yes	2.582	n/a	n/a	GoodResponse	0	n/a	n/a	14	77	Feedback	AvoidedLoss	True
733.566	2.582	Lose2	0.7308	n/a	Yes	2.582	n/a	n/a	GoodResponse	0	0.0	n/a	14	77	ISIslide	AvoidedLoss	True
