onset	duration	cue_type	current_mean_accuracy	duration_error	is_hit	isi_adjusted	onset_delay	response	response_type	reward	rt	rt_time	total_reward	trial_number	trial_phase	trial_type	one_press
11.1	0.25	Control	1.0	0.0	Yes	2.95	0.0	n/a	GoodResponse	0	n/a	n/a	0	0	Cue	Neutral	True
11.35	3.85	Control	1.0	0.0	Yes	2.95	0.0	n/a	GoodResponse	0	n/a	n/a	0	0	Fixation	Neutral	True
15.198	0.4	Control	1.0	0.002	Yes	2.95	-0.002	2.0	GoodResponse	0	0.378	14.576	0	0	Target	Neutral	True
15.576	0.3	Control	1.0	0.002	Yes	2.95	-0.002	2.0	GoodResponse	0	0.378	n/a	0	0	ButtonPress	Neutral	True
15.598	0.3	Control	1.0	n/a	Yes	2.95	n/a	n/a	GoodResponse	0	n/a	n/a	0	0	Blank	Neutral	True
15.898	1.45	Control	1.0	n/a	Yes	2.95	n/a	5.0	GoodResponse	0	0.031	14.929	0	0	Feedback	Neutral	True
17.347	2.95	Control	1.0	n/a	Yes	2.95	n/a	n/a	GoodResponse	0	0.0	n/a	0	0	ISIslide	Neutral	True
20.313	0.25	Lose2	1.0	0.0	Yes	2.787	0.013	n/a	GoodResponse	0	n/a	n/a	0	1	Cue	AvoidedLoss	True
20.563	4.0	Lose2	1.0	0.0	Yes	2.787	0.0	n/a	GoodResponse	0	n/a	n/a	0	1	Fixation	AvoidedLoss	True
24.562	0.39	Lose2	1.0	0.001	Yes	2.787	-0.001	2.0	GoodResponse	0	0.221	23.783	0	1	Target	AvoidedLoss	True
24.783	0.3	Lose2	1.0	0.001	Yes	2.787	-0.001	2.0	GoodResponse	0	0.221	n/a	0	1	ButtonPress	AvoidedLoss	True
24.961	0.31	Lose2	1.0	n/a	Yes	2.787	n/a	n/a	GoodResponse	0	n/a	n/a	0	1	Blank	AvoidedLoss	True
25.261	1.45	Lose2	1.0	n/a	Yes	2.787	n/a	5.0	GoodResponse	0	0.034	24.295	0	1	Feedback	AvoidedLoss	True
26.711	2.787	Lose2	1.0	n/a	Yes	2.787	n/a	n/a	GoodResponse	0	0.0	n/a	0	1	ISIslide	AvoidedLoss	True
29.527	0.25	Control	1.0	0.0	Yes	2.573	0.027	n/a	GoodResponse	0	n/a	n/a	0	2	Cue	Neutral	True
29.776	4.1	Control	1.0	0.001	Yes	2.573	-0.001	n/a	GoodResponse	0	n/a	n/a	0	2	Fixation	Neutral	True
33.875	0.38	Control	1.0	0.002	Yes	2.573	-0.002	2.0	GoodResponse	0	0.221	33.096	0	2	Target	Neutral	True
34.096	0.3	Control	1.0	0.002	Yes	2.573	-0.002	2.0	GoodResponse	0	0.221	n/a	0	2	ButtonPress	Neutral	True
34.258	0.32	Control	1.0	n/a	Yes	2.573	n/a	n/a	GoodResponse	0	n/a	n/a	0	2	Blank	Neutral	True
34.575	1.45	Control	1.0	n/a	Yes	2.573	n/a	5.0	GoodResponse	0	0.037	33.612	0	2	Feedback	Neutral	True
36.024	2.573	Control	1.0	n/a	Yes	2.573	n/a	n/a	GoodResponse	0	0.0	n/a	0	2	ISIslide	Neutral	True
38.623	0.25	Win2	1.0	0.0	Yes	2.827	0.023	n/a	GoodResponse	1	n/a	n/a	1	3	Cue	Win	True
38.873	3.95	Win2	1.0	0.0	Yes	2.827	0.0	n/a	GoodResponse	1	n/a	n/a	1	3	Fixation	Win	True
42.822	0.37	Win2	1.0	0.001	Yes	2.827	-0.001	2.0	GoodResponse	1	0.23	42.052	1	3	Target	Win	True
43.052	0.3	Win2	1.0	0.001	Yes	2.827	-0.001	2.0	GoodResponse	1	0.23	n/a	1	3	ButtonPress	Win	True
43.188	0.33	Win2	1.0	n/a	Yes	2.827	n/a	n/a	GoodResponse	1	n/a	n/a	1	3	Blank	Win	True
43.522	1.45	Win2	1.0	n/a	Yes	2.827	n/a	5.0	GoodResponse	1	0.017	42.539	1	3	Feedback	Win	True
44.971	2.827	Win2	1.0	n/a	Yes	2.827	n/a	n/a	GoodResponse	1	0.0	n/a	1	3	ISIslide	Win	True
47.82	0.25	Win2	1.0	0.0	Yes	3.28	0.02	n/a	GoodResponse	1	n/a	n/a	2	4	Cue	Win	True
48.07	4.0	Win2	1.0	0.0	Yes	3.28	0.0	n/a	GoodResponse	1	n/a	n/a	2	4	Fixation	Win	True
52.069	0.36	Win2	1.0	0.001	Yes	3.28	-0.001	2.0	GoodResponse	1	0.203	51.272	2	4	Target	Win	True
52.272	0.3	Win2	1.0	0.001	Yes	3.28	-0.001	2.0	GoodResponse	1	0.203	n/a	2	4	ButtonPress	Win	True
52.435	0.34	Win2	1.0	n/a	Yes	3.28	n/a	n/a	GoodResponse	1	n/a	n/a	2	4	Blank	Win	True
52.768	1.45	Win2	1.0	n/a	Yes	3.28	n/a	5.0	GoodResponse	1	0.039	51.807	2	4	Feedback	Win	True
54.218	3.28	Win2	1.0	n/a	Yes	3.28	n/a	n/a	GoodResponse	1	0.0	n/a	2	4	ISIslide	Win	True
57.517	0.25	Win2	1.0	0.0	Yes	2.783	0.017	n/a	GoodResponse	1	n/a	n/a	3	5	Cue	Win	True
57.767	4.0	Win2	1.0	0.0	Yes	2.783	0.0	n/a	GoodResponse	1	n/a	n/a	3	5	Fixation	Win	True
61.765	0.35	Win2	1.0	0.002	Yes	2.783	-0.002	2.0	GoodResponse	1	0.201	60.966	3	5	Target	Win	True
61.966	0.3	Win2	1.0	0.002	Yes	2.783	-0.002	2.0	GoodResponse	1	0.201	n/a	3	5	ButtonPress	Win	True
62.115	0.35	Win2	1.0	n/a	Yes	2.783	n/a	n/a	GoodResponse	1	n/a	n/a	3	5	Blank	Win	True
62.465	1.45	Win2	1.0	n/a	Yes	2.783	n/a	5.0	GoodResponse	1	0.0	61.465	3	5	Feedback	Win	True
63.915	2.783	Win2	1.0	n/a	Yes	2.783	n/a	n/a	GoodResponse	1	0.0	n/a	3	5	ISIslide	Win	True
66.714	0.25	Lose2	1.0	0.0	Yes	2.736	0.014	n/a	GoodResponse	0	n/a	n/a	3	6	Cue	AvoidedLoss	True
66.963	3.95	Lose2	1.0	0.001	Yes	2.736	-0.001	n/a	GoodResponse	0	n/a	n/a	3	6	Fixation	AvoidedLoss	True
70.912	0.34	Lose2	1.0	0.002	Yes	2.736	-0.002	2.0	GoodResponse	0	0.215	70.127	3	6	Target	AvoidedLoss	True
71.127	0.3	Lose2	1.0	0.002	Yes	2.736	-0.002	2.0	GoodResponse	0	0.215	n/a	3	6	ButtonPress	AvoidedLoss	True
71.262	0.36	Lose2	1.0	n/a	Yes	2.736	n/a	n/a	GoodResponse	0	n/a	n/a	3	6	Blank	AvoidedLoss	True
71.612	1.45	Lose2	1.0	n/a	Yes	2.736	n/a	5.0	GoodResponse	0	0.024	70.636	3	6	Feedback	AvoidedLoss	True
73.061	2.736	Lose2	1.0	n/a	Yes	2.736	n/a	n/a	GoodResponse	0	0.0	n/a	3	6	ISIslide	AvoidedLoss	True
75.827	0.25	Lose2	1.0	0.0	Yes	4.023	0.027	n/a	GoodResponse	0	n/a	n/a	3	7	Cue	AvoidedLoss	True
76.077	4.05	Lose2	1.0	0.0	Yes	4.023	0.0	n/a	GoodResponse	0	n/a	n/a	3	7	Fixation	AvoidedLoss	True
80.126	0.33	Lose2	1.0	0.001	Yes	4.023	-0.001	2.0	GoodResponse	0	0.236	79.362	3	7	Target	AvoidedLoss	True
80.362	0.3	Lose2	1.0	0.001	Yes	4.023	-0.001	2.0	GoodResponse	0	0.236	n/a	3	7	ButtonPress	AvoidedLoss	True
80.459	0.37	Lose2	1.0	n/a	Yes	4.023	n/a	n/a	GoodResponse	0	n/a	n/a	3	7	Blank	AvoidedLoss	True
80.825	1.45	Lose2	1.0	n/a	Yes	4.023	n/a	5.0	GoodResponse	0	0.03	79.855	3	7	Feedback	AvoidedLoss	True
82.275	4.023	Lose2	1.0	n/a	Yes	4.023	n/a	n/a	GoodResponse	0	0.0	n/a	3	7	ISIslide	AvoidedLoss	True
86.323	0.25	Lose2	1.0	0.0	Yes	3.027	0.023	n/a	GoodResponse	0	n/a	n/a	3	8	Cue	AvoidedLoss	True
86.573	3.95	Lose2	1.0	0.0	Yes	3.027	0.0	n/a	GoodResponse	0	n/a	n/a	3	8	Fixation	AvoidedLoss	True
90.522	0.32	Lose2	1.0	0.001	Yes	3.027	-0.001	2.0	GoodResponse	0	0.224	89.746	3	8	Target	AvoidedLoss	True
90.746	0.3	Lose2	1.0	0.001	Yes	3.027	-0.001	2.0	GoodResponse	0	0.224	n/a	3	8	ButtonPress	AvoidedLoss	True
90.838	0.38	Lose2	1.0	n/a	Yes	3.027	n/a	n/a	GoodResponse	0	n/a	n/a	3	8	Blank	AvoidedLoss	True
91.222	1.45	Lose2	1.0	n/a	Yes	3.027	n/a	5.0	GoodResponse	0	0.024	90.246	3	8	Feedback	AvoidedLoss	True
92.671	3.027	Lose2	1.0	n/a	Yes	3.027	n/a	n/a	GoodResponse	0	0.0	n/a	3	8	ISIslide	AvoidedLoss	True
95.72	0.25	Lose2	1.0	0.0	Yes	3.13	0.02	n/a	GoodResponse	0	n/a	n/a	3	9	Cue	AvoidedLoss	True
95.97	3.95	Lose2	1.0	0.0	Yes	3.13	0.0	n/a	GoodResponse	0	n/a	n/a	3	9	Fixation	AvoidedLoss	True
99.919	0.31	Lose2	1.0	0.001	Yes	3.13	-0.001	2.0	GoodResponse	0	0.19	99.109	3	9	Target	AvoidedLoss	True
100.109	0.3	Lose2	1.0	0.001	Yes	3.13	-0.001	2.0	GoodResponse	0	0.19	n/a	3	9	ButtonPress	AvoidedLoss	True
100.235	0.39	Lose2	1.0	n/a	Yes	3.13	n/a	n/a	GoodResponse	0	n/a	n/a	3	9	Blank	AvoidedLoss	True
100.618	1.45	Lose2	1.0	n/a	Yes	3.13	n/a	5.0	GoodResponse	0	0.043	99.661	3	9	Feedback	AvoidedLoss	True
102.068	3.13	Lose2	1.0	n/a	Yes	3.13	n/a	n/a	GoodResponse	0	0.0	n/a	3	9	ISIslide	AvoidedLoss	True
105.217	0.25	Control	1.0	0.0	Yes	3.283	0.017	n/a	GoodResponse	0	n/a	n/a	3	10	Cue	Neutral	True
105.467	4.0	Control	1.0	0.0	Yes	3.283	0.0	n/a	GoodResponse	0	n/a	n/a	3	10	Fixation	Neutral	True
109.465	0.3	Control	1.0	0.002	Yes	3.283	-0.002	2.0	GoodResponse	0	0.202	108.667	3	10	Target	Neutral	True
109.667	0.3	Control	1.0	0.002	Yes	3.283	-0.002	2.0	GoodResponse	0	0.202	n/a	3	10	ButtonPress	Neutral	True
109.765	0.4	Control	1.0	n/a	Yes	3.283	n/a	n/a	GoodResponse	0	n/a	n/a	3	10	Blank	Neutral	True
110.165	1.45	Control	1.0	n/a	Yes	3.283	n/a	5.0	GoodResponse	0	0.008	109.173	3	10	Feedback	Neutral	True
111.615	3.283	Control	1.0	n/a	Yes	3.283	n/a	n/a	GoodResponse	0	0.0	n/a	3	10	ISIslide	Neutral	True
114.913	0.25	Lose2	1.0	0.001	Yes	2.737	0.013	n/a	GoodResponse	0	n/a	n/a	3	11	Cue	AvoidedLoss	True
115.163	4.05	Lose2	1.0	0.0	Yes	2.737	0.0	n/a	GoodResponse	0	n/a	n/a	3	11	Fixation	AvoidedLoss	True
119.212	0.29	Lose2	1.0	0.001	Yes	2.737	-0.001	2.0	GoodResponse	0	0.195	118.407	3	11	Target	AvoidedLoss	True
119.407	0.3	Lose2	1.0	0.001	Yes	2.737	-0.001	2.0	GoodResponse	0	0.195	n/a	3	11	ButtonPress	AvoidedLoss	True
119.512	0.41	Lose2	1.0	n/a	Yes	2.737	n/a	n/a	GoodResponse	0	n/a	n/a	3	11	Blank	AvoidedLoss	True
119.912	1.45	Lose2	1.0	n/a	Yes	2.737	n/a	5.0	GoodResponse	0	0.016	118.928	3	11	Feedback	AvoidedLoss	True
121.361	2.737	Lose2	1.0	n/a	Yes	2.737	n/a	n/a	GoodResponse	0	0.0	n/a	3	11	ISIslide	AvoidedLoss	True
124.127	0.25	Control	0.9231	0.0	No	2.973	0.027	n/a	NoResponse	0	n/a	n/a	3	12	Cue	Neutral	True
124.377	3.9	Control	0.9231	0.0	No	2.973	0.0	n/a	NoResponse	0	n/a	n/a	3	12	Fixation	Neutral	True
128.275	0.28	Control	0.9231	0.002	No	2.973	-0.002	2.0	NoResponse	0	0.385	127.66	3	12	Target	Neutral	True
128.559	0.42	Control	0.9231	n/a	No	2.973	n/a	n/a	NoResponse	0	n/a	n/a	3	12	Blank	Neutral	True
128.66	0.3	Control	0.9231	0.002	No	2.973	-0.002	2.0	NoResponse	0	0.385	n/a	3	12	ButtonPress	Neutral	True
128.975	1.45	Control	0.9231	n/a	No	2.973	n/a	5.0	NoResponse	0	0.026	128.001	3	12	Feedback	Neutral	True
130.425	2.973	Control	0.9231	n/a	No	2.973	n/a	n/a	NoResponse	0	0.0	n/a	3	12	ISIslide	Neutral	True
133.424	0.25	Control	0.9286	0.0	Yes	2.776	0.024	n/a	GoodResponse	0	n/a	n/a	3	13	Cue	Neutral	False
133.674	4.0	Control	0.9286	0.0	Yes	2.776	0.0	2.0	GoodResponse	0	3.396	136.07	3	13	Fixation	Neutral	False
137.07	0.3	Control	0.9286	0.0	Yes	2.776	0.0	2.0	GoodResponse	0	3.396	n/a	3	13	ButtonPress	Neutral	False
137.672	0.27	Control	0.9286	0.002	Yes	2.776	-0.002	2.0	GoodResponse	0	0.191	136.863	3	13	Target	Neutral	False
137.863	0.3	Control	0.9286	0.002	Yes	2.776	-0.002	2.0	GoodResponse	0	0.191	n/a	3	13	ButtonPress	Neutral	False
137.955	0.43	Control	0.9286	n/a	Yes	2.776	n/a	n/a	GoodResponse	0	n/a	n/a	3	13	Blank	Neutral	False
138.372	1.45	Control	0.9286	n/a	Yes	2.776	n/a	5.0	GoodResponse	0	0.044	137.416	3	13	Feedback	Neutral	False
139.821	2.776	Control	0.9286	n/a	Yes	2.776	n/a	n/a	GoodResponse	0	0.0	n/a	3	13	ISIslide	Neutral	False
142.62	0.25	Win2	0.9333	0.0	Yes	2.68	0.02	n/a	GoodResponse	1	n/a	n/a	4	14	Cue	Win	True
142.87	4.1	Win2	0.9333	0.0	Yes	2.68	0.0	n/a	GoodResponse	1	n/a	n/a	4	14	Fixation	Win	True
146.969	0.26	Win2	0.9333	0.001	Yes	2.68	-0.001	2.0	GoodResponse	1	0.229	146.198	4	14	Target	Win	True
147.198	0.3	Win2	0.9333	0.001	Yes	2.68	-0.001	2.0	GoodResponse	1	0.229	n/a	4	14	ButtonPress	Win	True
147.235	0.44	Win2	0.9333	n/a	Yes	2.68	n/a	n/a	GoodResponse	1	n/a	n/a	4	14	Blank	Win	True
147.669	1.45	Win2	0.9333	n/a	Yes	2.68	n/a	5.0	GoodResponse	1	0.016	146.685	4	14	Feedback	Win	True
149.118	2.68	Win2	0.9333	n/a	Yes	2.68	n/a	n/a	GoodResponse	1	0.0	n/a	4	14	ISIslide	Win	True
151.817	0.25	Control	0.9375	0.0	Yes	2.983	0.017	n/a	GoodResponse	0	n/a	n/a	4	15	Cue	Neutral	True
152.067	4.0	Control	0.9375	0.0	Yes	2.983	0.0	n/a	GoodResponse	0	n/a	n/a	4	15	Fixation	Neutral	True
156.066	0.25	Control	0.9375	0.001	Yes	2.983	-0.001	2.0	GoodResponse	0	0.209	155.275	4	15	Target	Neutral	True
156.275	0.3	Control	0.9375	0.001	Yes	2.983	-0.001	2.0	GoodResponse	0	0.209	n/a	4	15	ButtonPress	Neutral	True
156.316	0.45	Control	0.9375	n/a	Yes	2.983	n/a	n/a	GoodResponse	0	n/a	n/a	4	15	Blank	Neutral	True
156.765	1.45	Control	0.9375	n/a	Yes	2.983	n/a	5.0	GoodResponse	0	0.042	155.807	4	15	Feedback	Neutral	True
158.215	2.983	Control	0.9375	n/a	Yes	2.983	n/a	n/a	GoodResponse	0	0.0	n/a	4	15	ISIslide	Neutral	True
161.214	0.25	Win2	0.9412	0.0	Yes	2.886	0.014	n/a	GoodResponse	1	n/a	n/a	5	16	Cue	Win	True
161.464	4.0	Win2	0.9412	0.0	Yes	2.886	0.0	n/a	GoodResponse	1	n/a	n/a	5	16	Fixation	Win	True
165.462	0.24	Win2	0.9412	0.002	Yes	2.886	-0.002	2.0	GoodResponse	1	0.187	164.649	5	16	Target	Win	True
165.649	0.3	Win2	0.9412	0.002	Yes	2.886	-0.002	2.0	GoodResponse	1	0.187	n/a	5	16	ButtonPress	Win	True
165.712	0.46	Win2	0.9412	n/a	Yes	2.886	n/a	n/a	GoodResponse	1	n/a	n/a	5	16	Blank	Win	True
166.162	1.45	Win2	0.9412	n/a	Yes	2.886	n/a	5.0	GoodResponse	1	0.01	165.172	5	16	Feedback	Win	True
167.612	2.886	Win2	0.9412	n/a	Yes	2.886	n/a	n/a	GoodResponse	1	0.0	n/a	5	16	ISIslide	Win	True
170.527	0.25	Lose2	0.9444	0.0	Yes	2.723	0.027	n/a	GoodResponse	0	n/a	n/a	5	17	Cue	AvoidedLoss	True
170.777	3.95	Lose2	0.9444	0.0	Yes	2.723	0.0	n/a	GoodResponse	0	n/a	n/a	5	17	Fixation	AvoidedLoss	True
174.726	0.23	Lose2	0.9444	0.001	Yes	2.723	-0.001	2.0	GoodResponse	0	0.208	173.934	5	17	Target	AvoidedLoss	True
174.934	0.3	Lose2	0.9444	0.001	Yes	2.723	-0.001	2.0	GoodResponse	0	0.208	n/a	5	17	ButtonPress	AvoidedLoss	True
174.959	0.47	Lose2	0.9444	n/a	Yes	2.723	n/a	n/a	GoodResponse	0	n/a	n/a	5	17	Blank	AvoidedLoss	True
175.426	1.45	Lose2	0.9444	n/a	Yes	2.723	n/a	5.0	GoodResponse	0	0.014	174.44	5	17	Feedback	AvoidedLoss	True
176.875	2.723	Lose2	0.9444	n/a	Yes	2.723	n/a	n/a	GoodResponse	0	0.0	n/a	5	17	ISIslide	AvoidedLoss	True
179.624	0.25	Lose2	0.8946999999999999	0.0	No	2.726	0.024	n/a	LatePress	-1	n/a	n/a	4	18	Cue	Loss	True
179.874	4.05	Lose2	0.8946999999999999	0.0	No	2.726	0.0	n/a	LatePress	-1	n/a	n/a	4	18	Fixation	Loss	True
183.923	0.22	Lose2	0.8946999999999999	0.001	No	2.726	-0.001	2.0	LatePress	-1	0.231	183.154	4	18	Target	Loss	True
184.154	0.3	Lose2	0.8946999999999999	0.001	No	2.726	-0.001	2.0	LatePress	-1	0.231	n/a	4	18	ButtonPress	Loss	True
184.156	0.48	Lose2	0.8946999999999999	n/a	No	2.726	n/a	n/a	LatePress	-1	n/a	n/a	4	18	Blank	Loss	True
184.622	1.45	Lose2	0.8946999999999999	n/a	No	2.726	n/a	5.0	LatePress	-1	0.038	183.66	4	18	Feedback	Loss	True
186.072	2.726	Lose2	0.8946999999999999	n/a	No	2.726	n/a	n/a	LatePress	-1	0.0	n/a	4	18	ISIslide	Loss	True
188.821	0.25	Control	0.9	0.0	Yes	2.929	0.021	n/a	GoodResponse	0	n/a	n/a	4	19	Cue	Neutral	True
189.071	3.95	Control	0.9	0.0	Yes	2.929	0.0	n/a	GoodResponse	0	n/a	n/a	4	19	Fixation	Neutral	True
193.019	0.21	Control	0.9	0.002	Yes	2.929	-0.002	2.0	GoodResponse	0	0.191	192.21	4	19	Target	Neutral	True
193.21	0.3	Control	0.9	0.002	Yes	2.929	-0.002	2.0	GoodResponse	0	0.191	n/a	4	19	ButtonPress	Neutral	True
193.236	0.49	Control	0.9	n/a	Yes	2.929	n/a	n/a	GoodResponse	0	n/a	n/a	4	19	Blank	Neutral	True
193.719	1.45	Control	0.9	n/a	Yes	2.929	n/a	5.0	GoodResponse	0	0.014	192.733	4	19	Feedback	Neutral	True
195.169	2.929	Control	0.9	n/a	Yes	2.929	n/a	n/a	GoodResponse	0	0.0	n/a	4	19	ISIslide	Neutral	True
198.118	0.25	Control	0.9048	0.0	Yes	2.632	0.018	n/a	GoodResponse	0	n/a	n/a	4	20	Cue	Neutral	True
198.368	4.05	Control	0.9048	0.0	Yes	2.632	0.0	n/a	GoodResponse	0	n/a	n/a	4	20	Fixation	Neutral	True
202.416	0.2	Control	0.9048	0.002	Yes	2.632	-0.002	2.0	GoodResponse	0	0.197	201.613	4	20	Target	Neutral	True
202.613	0.3	Control	0.9048	0.002	Yes	2.632	-0.002	2.0	GoodResponse	0	0.197	n/a	4	20	ButtonPress	Neutral	True
202.616	0.5	Control	0.9048	n/a	Yes	2.632	n/a	n/a	GoodResponse	0	n/a	n/a	4	20	Blank	Neutral	True
203.116	1.45	Control	0.9048	n/a	Yes	2.632	n/a	5.0	GoodResponse	0	0.032	202.148	4	20	Feedback	Neutral	True
204.565	2.632	Control	0.9048	n/a	Yes	2.632	n/a	n/a	GoodResponse	0	0.0	n/a	4	20	ISIslide	Neutral	True
207.215	0.25	Control	0.8636	0.0	No	2.785	0.015	n/a	LatePress	0	n/a	n/a	4	21	Cue	Neutral	True
207.464	4.1	Control	0.8636	0.001	No	2.785	-0.001	n/a	LatePress	0	n/a	n/a	4	21	Fixation	Neutral	True
211.563	0.19	Control	0.8636	0.002	No	2.785	-0.002	2.0	LatePress	0	0.193	210.756	4	21	Target	Neutral	True
211.756	0.3	Control	0.8636	0.002	No	2.785	-0.002	2.0	LatePress	0	0.193	n/a	4	21	ButtonPress	Neutral	True
211.763	0.51	Control	0.8636	n/a	No	2.785	n/a	n/a	LatePress	0	n/a	n/a	4	21	Blank	Neutral	True
212.263	1.45	Control	0.8636	n/a	No	2.785	n/a	5.0	LatePress	0	0.006	211.269	4	21	Feedback	Neutral	True
213.712	2.785	Control	0.8636	n/a	No	2.785	n/a	n/a	LatePress	0	0.0	n/a	4	21	ISIslide	Neutral	True
216.511	0.25	Control	0.8261	0.0	No	2.789	0.011	n/a	NoResponse	0	n/a	n/a	4	22	Cue	Neutral	True
216.761	4.0	Control	0.8261	0.0	No	2.789	0.0	n/a	NoResponse	0	n/a	n/a	4	22	Fixation	Neutral	True
220.76	0.18	Control	0.8261	0.001	No	2.789	-0.001	2.0	NoResponse	0	0.207	219.967	4	22	Target	Neutral	True
220.943	0.52	Control	0.8261	n/a	No	2.789	n/a	n/a	NoResponse	0	n/a	n/a	4	22	Blank	Neutral	True
220.967	0.3	Control	0.8261	0.001	No	2.789	-0.001	2.0	NoResponse	0	0.207	n/a	4	22	ButtonPress	Neutral	True
221.46	1.45	Control	0.8261	n/a	No	2.789	n/a	5.0	NoResponse	0	0.028	220.488	4	22	Feedback	Neutral	True
222.909	2.789	Control	0.8261	n/a	No	2.789	n/a	n/a	NoResponse	0	0.0	n/a	4	22	ISIslide	Neutral	True
225.725	0.25	Control	0.7917000000000001	0.0	No	2.775	0.025	n/a	LatePress	0	n/a	n/a	4	23	Cue	Neutral	True
225.975	3.9	Control	0.7917000000000001	0.0	No	2.775	0.0	n/a	LatePress	0	n/a	n/a	4	23	Fixation	Neutral	True
229.873	0.17	Control	0.7917000000000001	0.002	No	2.775	-0.002	2.0	LatePress	0	0.18	229.053	4	23	Target	Neutral	True
230.053	0.3	Control	0.7917000000000001	0.002	No	2.775	-0.002	2.0	LatePress	0	0.18	n/a	4	23	ButtonPress	Neutral	True
230.057	0.53	Control	0.7917000000000001	n/a	No	2.775	n/a	n/a	LatePress	0	n/a	n/a	4	23	Blank	Neutral	True
230.573	1.45	Control	0.7917000000000001	n/a	No	2.775	n/a	5.0	LatePress	0	0.038	229.611	4	23	Feedback	Neutral	True
232.023	2.775	Control	0.7917000000000001	n/a	No	2.775	n/a	n/a	LatePress	0	0.0	n/a	4	23	ISIslide	Neutral	True
234.822	0.25	Win2	0.76	0.0	No	3.128	0.022	n/a	NoResponse	0	n/a	n/a	4	24	Cue	MissedWin	True
235.071	3.95	Win2	0.76	0.001	No	3.128	-0.001	n/a	NoResponse	0	n/a	n/a	4	24	Fixation	MissedWin	True
239.02	0.16	Win2	0.76	0.002	No	3.128	-0.002	2.0	NoResponse	0	0.172	238.192	4	24	Target	MissedWin	True
239.187	0.54	Win2	0.76	n/a	No	3.128	n/a	n/a	NoResponse	0	n/a	n/a	4	24	Blank	MissedWin	True
239.192	0.3	Win2	0.76	0.002	No	3.128	-0.002	2.0	NoResponse	0	0.172	n/a	4	24	ButtonPress	MissedWin	True
239.72	1.45	Win2	0.76	n/a	No	3.128	n/a	5.0	NoResponse	0	0.013	238.733	4	24	Feedback	MissedWin	True
241.169	3.128	Win2	0.76	n/a	No	3.128	n/a	n/a	NoResponse	0	0.0	n/a	4	24	ISIslide	MissedWin	True
244.318	0.25	Win2	0.7308	0.0	No	3.082	0.018	n/a	NoResponse	0	n/a	n/a	4	25	Cue	MissedWin	True
244.568	4.0	Win2	0.7308	0.0	No	3.082	0.0	n/a	NoResponse	0	n/a	n/a	4	25	Fixation	MissedWin	True
248.567	0.15	Win2	0.7308	0.001	No	3.082	-0.001	2.0	NoResponse	0	0.196	247.763	4	25	Target	MissedWin	True
248.717	0.55	Win2	0.7308	n/a	No	3.082	n/a	n/a	NoResponse	0	n/a	n/a	4	25	Blank	MissedWin	True
248.763	0.3	Win2	0.7308	0.001	No	3.082	-0.001	2.0	NoResponse	0	0.196	n/a	4	25	ButtonPress	MissedWin	True
249.267	1.45	Win2	0.7308	n/a	No	3.082	n/a	5.0	NoResponse	0	0.027	248.294	4	25	Feedback	MissedWin	True
250.716	3.082	Win2	0.7308	n/a	No	3.082	n/a	n/a	NoResponse	0	0.0	n/a	4	25	ISIslide	MissedWin	True
253.815	0.25	Win2	0.7037	0.0	No	2.935	0.015	n/a	NoResponse	0	n/a	n/a	4	26	Cue	MissedWin	True
254.065	3.95	Win2	0.7037	0.0	No	2.935	0.0	n/a	NoResponse	0	n/a	n/a	4	26	Fixation	MissedWin	True
258.013	0.15	Win2	0.7037	0.002	No	2.935	-0.002	2.0	NoResponse	0	0.196	257.209	4	26	Target	MissedWin	True
258.163	0.55	Win2	0.7037	n/a	No	2.935	n/a	n/a	NoResponse	0	n/a	n/a	4	26	Blank	MissedWin	True
258.209	0.3	Win2	0.7037	0.002	No	2.935	-0.002	2.0	NoResponse	0	0.196	n/a	4	26	ButtonPress	MissedWin	True
258.713	1.45	Win2	0.7037	n/a	No	2.935	n/a	5.0	NoResponse	0	0.044	257.757	4	26	Feedback	MissedWin	True
260.163	2.935	Win2	0.7037	n/a	No	2.935	n/a	n/a	NoResponse	0	0.0	n/a	4	26	ISIslide	MissedWin	True
263.112	0.25	Lose2	0.6786	0.0	No	2.838	0.012	n/a	NoResponse	-1	n/a	n/a	3	27	Cue	Loss	True
263.362	4.05	Lose2	0.6786	0.0	No	2.838	0.0	n/a	NoResponse	-1	n/a	n/a	3	27	Fixation	Loss	True
267.41	0.15	Lose2	0.6786	0.002	No	2.838	-0.002	2.0	NoResponse	-1	0.193	266.603	3	27	Target	Loss	True
267.56	0.55	Lose2	0.6786	n/a	No	2.838	n/a	n/a	NoResponse	-1	n/a	n/a	3	27	Blank	Loss	True
267.603	0.3	Lose2	0.6786	0.002	No	2.838	-0.002	2.0	NoResponse	-1	0.193	n/a	3	27	ButtonPress	Loss	True
268.11	1.45	Lose2	0.6786	n/a	No	2.838	n/a	5.0	NoResponse	-1	0.012	267.122	3	27	Feedback	Loss	True
269.559	2.838	Lose2	0.6786	n/a	No	2.838	n/a	n/a	NoResponse	-1	0.0	n/a	3	27	ISIslide	Loss	True
272.425	0.25	Control	0.6552	0.0	No	2.825	0.025	n/a	NoResponse	0	n/a	n/a	3	28	Cue	Neutral	True
272.675	4.05	Control	0.6552	0.0	No	2.825	0.0	n/a	NoResponse	0	n/a	n/a	3	28	Fixation	Neutral	True
276.724	0.15	Control	0.6552	0.001	No	2.825	-0.001	2.0	NoResponse	0	0.278	276.002	3	28	Target	Neutral	True
276.874	0.55	Control	0.6552	n/a	No	2.825	n/a	n/a	NoResponse	0	n/a	n/a	3	28	Blank	Neutral	True
277.002	0.3	Control	0.6552	0.001	No	2.825	-0.001	2.0	NoResponse	0	0.278	n/a	3	28	ButtonPress	Neutral	True
277.423	1.45	Control	0.6552	n/a	No	2.825	n/a	5.0	NoResponse	0	0.016	276.439	3	28	Feedback	Neutral	True
278.873	2.825	Control	0.6552	n/a	No	2.825	n/a	n/a	NoResponse	0	0.0	n/a	3	28	ISIslide	Neutral	True
281.722	0.25	Lose2	0.6333	0.0	No	2.828	0.022	n/a	NoResponse	-1	n/a	n/a	2	29	Cue	Loss	True
281.972	3.95	Lose2	0.6333	0.0	No	2.828	0.0	n/a	NoResponse	-1	n/a	n/a	2	29	Fixation	Loss	True
285.92	0.15	Lose2	0.6333	0.002	No	2.828	-0.002	2.0	NoResponse	-1	0.183	285.103	2	29	Target	Loss	True
286.07	0.55	Lose2	0.6333	n/a	No	2.828	n/a	n/a	NoResponse	-1	n/a	n/a	2	29	Blank	Loss	True
286.103	0.3	Lose2	0.6333	0.002	No	2.828	-0.002	2.0	NoResponse	-1	0.183	n/a	2	29	ButtonPress	Loss	True
286.62	1.45	Lose2	0.6333	n/a	No	2.828	n/a	5.0	NoResponse	-1	0.039	285.659	2	29	Feedback	Loss	True
288.07	2.828	Lose2	0.6333	n/a	No	2.828	n/a	n/a	NoResponse	-1	0.0	n/a	2	29	ISIslide	Loss	True
290.919	0.25	Win2	0.6129	0.0	No	2.781	0.019	n/a	NoResponse	0	n/a	n/a	2	30	Cue	MissedWin	True
291.169	3.9	Win2	0.6129	0.0	No	2.781	0.0	n/a	NoResponse	0	n/a	n/a	2	30	Fixation	MissedWin	True
295.067	0.16	Win2	0.6129	0.002	No	2.781	-0.002	2.0	NoResponse	0	0.196	294.263	2	30	Target	MissedWin	True
295.234	0.54	Win2	0.6129	n/a	No	2.781	n/a	n/a	NoResponse	0	n/a	n/a	2	30	Blank	MissedWin	True
295.263	0.3	Win2	0.6129	0.002	No	2.781	-0.002	2.0	NoResponse	0	0.196	n/a	2	30	ButtonPress	MissedWin	True
295.767	1.45	Win2	0.6129	n/a	No	2.781	n/a	5.0	NoResponse	0	0.014	294.781	2	30	Feedback	MissedWin	True
297.216	2.781	Win2	0.6129	n/a	No	2.781	n/a	n/a	NoResponse	0	0.0	n/a	2	30	ISIslide	MissedWin	True
300.015	0.25	Lose2	0.5938	0.001	No	2.835	0.015	n/a	NoResponse	-1	n/a	n/a	1	31	Cue	Loss	True
300.265	4.05	Lose2	0.5938	0.0	No	2.835	0.0	n/a	NoResponse	-1	n/a	n/a	1	31	Fixation	Loss	True
304.314	0.17	Lose2	0.5938	0.001	No	2.835	-0.001	2.0	NoResponse	-1	0.19	303.504	1	31	Target	Loss	True
304.481	0.53	Lose2	0.5938	n/a	No	2.835	n/a	n/a	NoResponse	-1	n/a	n/a	1	31	Blank	Loss	True
304.504	0.3	Lose2	0.5938	0.001	No	2.835	-0.001	2.0	NoResponse	-1	0.19	n/a	1	31	ButtonPress	Loss	True
305.014	1.45	Lose2	0.5938	n/a	No	2.835	n/a	5.0	NoResponse	-1	0.036	304.05	1	31	Feedback	Loss	True
306.463	2.835	Lose2	0.5938	n/a	No	2.835	n/a	n/a	NoResponse	-1	0.0	n/a	1	31	ISIslide	Loss	True
309.312	0.25	Lose2	0.5758	0.0	No	2.638	0.012	n/a	NoResponse	-1	n/a	n/a	0	32	Cue	Loss	True
309.562	4.15	Lose2	0.5758	0.0	No	2.638	0.0	n/a	NoResponse	-1	n/a	n/a	0	32	Fixation	Loss	True
313.711	0.18	Lose2	0.5758	0.001	No	2.638	-0.001	2.0	NoResponse	-1	0.188	312.899	0	32	Target	Loss	True
313.894	0.52	Lose2	0.5758	n/a	No	2.638	n/a	n/a	NoResponse	-1	n/a	n/a	0	32	Blank	Loss	True
313.899	0.3	Lose2	0.5758	0.001	No	2.638	-0.001	2.0	NoResponse	-1	0.188	n/a	0	32	ButtonPress	Loss	True
314.41	1.45	Lose2	0.5758	n/a	No	2.638	n/a	5.0	NoResponse	-1	0.005	313.415	0	32	Feedback	Loss	True
315.86	2.638	Lose2	0.5758	n/a	No	2.638	n/a	n/a	NoResponse	-1	0.0	n/a	0	32	ISIslide	Loss	True
318.526	0.25	Win2	0.5588000000000001	0.0	No	2.674	0.026	n/a	LatePress	0	n/a	n/a	0	33	Cue	MissedWin	True
318.776	4.0	Win2	0.5588000000000001	0.0	No	2.674	0.0	n/a	LatePress	0	n/a	n/a	0	33	Fixation	MissedWin	True
322.774	0.19	Win2	0.5588000000000001	0.002	No	2.674	-0.002	2.0	LatePress	0	0.19	321.964	0	33	Target	MissedWin	True
322.964	0.3	Win2	0.5588000000000001	0.002	No	2.674	-0.002	2.0	LatePress	0	0.19	n/a	0	33	ButtonPress	MissedWin	True
322.974	0.51	Win2	0.5588000000000001	n/a	No	2.674	n/a	n/a	LatePress	0	n/a	n/a	0	33	Blank	MissedWin	True
323.474	1.45	Win2	0.5588000000000001	n/a	No	2.674	n/a	5.0	LatePress	0	0.014	322.488	0	33	Feedback	MissedWin	True
324.923	2.674	Win2	0.5588000000000001	n/a	No	2.674	n/a	n/a	LatePress	0	0.0	n/a	0	33	ISIslide	MissedWin	True
327.623	0.25	Lose2	0.5714	0.0	Yes	2.627	0.023	n/a	GoodResponse	0	n/a	n/a	0	34	Cue	AvoidedLoss	True
327.872	4.05	Lose2	0.5714	0.001	Yes	2.627	-0.001	n/a	GoodResponse	0	n/a	n/a	0	34	Fixation	AvoidedLoss	True
331.921	0.2	Lose2	0.5714	0.002	Yes	2.627	-0.002	2.0	GoodResponse	0	0.188	331.109	0	34	Target	AvoidedLoss	True
332.109	0.3	Lose2	0.5714	0.002	Yes	2.627	-0.002	2.0	GoodResponse	0	0.188	n/a	0	34	ButtonPress	AvoidedLoss	True
332.121	0.5	Lose2	0.5714	n/a	Yes	2.627	n/a	n/a	GoodResponse	0	n/a	n/a	0	34	Blank	AvoidedLoss	True
332.621	1.45	Lose2	0.5714	n/a	Yes	2.627	n/a	5.0	GoodResponse	0	0.038	331.659	0	34	Feedback	AvoidedLoss	True
334.07	2.627	Lose2	0.5714	n/a	Yes	2.627	n/a	n/a	GoodResponse	0	0.0	n/a	0	34	ISIslide	AvoidedLoss	True
336.719	0.25	Lose2	0.5832999999999999	0.0	Yes	2.681	0.019	n/a	GoodResponse	0	n/a	n/a	0	35	Cue	AvoidedLoss	True
336.969	4.0	Lose2	0.5832999999999999	0.0	Yes	2.681	0.0	n/a	GoodResponse	0	n/a	n/a	0	35	Fixation	AvoidedLoss	True
340.968	0.21	Lose2	0.5832999999999999	0.001	Yes	2.681	-0.001	2.0	GoodResponse	0	0.2	340.168	0	35	Target	AvoidedLoss	True
341.168	0.3	Lose2	0.5832999999999999	0.001	Yes	2.681	-0.001	2.0	GoodResponse	0	0.2	n/a	0	35	ButtonPress	AvoidedLoss	True
341.184	0.49	Lose2	0.5832999999999999	n/a	Yes	2.681	n/a	n/a	GoodResponse	0	n/a	n/a	0	35	Blank	AvoidedLoss	True
341.668	1.45	Lose2	0.5832999999999999	n/a	Yes	2.681	n/a	5.0	GoodResponse	0	0.015	340.683	0	35	Feedback	AvoidedLoss	True
343.117	2.681	Lose2	0.5832999999999999	n/a	Yes	2.681	n/a	n/a	GoodResponse	0	0.0	n/a	0	35	ISIslide	AvoidedLoss	True
345.816	0.25	Control	0.5676	0.0	No	2.684	0.016	n/a	NoResponse	0	n/a	n/a	0	36	Cue	Neutral	False
346.066	4.0	Control	0.5676	0.0	No	2.684	0.0	2.0	NoResponse	0	3.607	348.673	0	36	Fixation	Neutral	False
349.673	0.3	Control	0.5676	0.0	No	2.684	0.0	2.0	NoResponse	0	3.607	n/a	0	36	ButtonPress	Neutral	False
350.065	0.22	Control	0.5676	0.001	No	2.684	-0.001	2.0	NoResponse	0	0.245	349.31	0	36	Target	Neutral	False
350.298	0.48	Control	0.5676	n/a	No	2.684	n/a	n/a	NoResponse	0	n/a	n/a	0	36	Blank	Neutral	False
350.31	0.3	Control	0.5676	0.001	No	2.684	-0.001	2.0	NoResponse	0	0.245	n/a	0	36	ButtonPress	Neutral	False
350.764	1.45	Control	0.5676	n/a	No	2.684	n/a	5.0	NoResponse	0	0.041	349.805	0	36	Feedback	Neutral	False
352.214	2.684	Control	0.5676	n/a	No	2.684	n/a	n/a	NoResponse	0	0.0	n/a	0	36	ISIslide	Neutral	False
354.93	0.25	Win2	0.5789	0.0	Yes	2.87	0.03	n/a	GoodResponse	1	n/a	n/a	1	37	Cue	Win	True
355.18	4.0	Win2	0.5789	0.0	Yes	2.87	0.0	n/a	GoodResponse	1	n/a	n/a	1	37	Fixation	Win	True
359.178	0.23	Win2	0.5789	0.002	Yes	2.87	-0.002	2.0	GoodResponse	1	0.198	358.376	1	37	Target	Win	True
359.376	0.3	Win2	0.5789	0.002	Yes	2.87	-0.002	2.0	GoodResponse	1	0.198	n/a	1	37	ButtonPress	Win	True
359.411	0.47	Win2	0.5789	n/a	Yes	2.87	n/a	n/a	GoodResponse	1	n/a	n/a	1	37	Blank	Win	True
359.878	1.45	Win2	0.5789	n/a	Yes	2.87	n/a	5.0	GoodResponse	1	0.001	358.879	1	37	Feedback	Win	True
361.327	2.87	Win2	0.5789	n/a	Yes	2.87	n/a	n/a	GoodResponse	1	0.0	n/a	1	37	ISIslide	Win	True
364.226	0.25	Lose2	0.5897	0.001	Yes	2.824	0.026	n/a	GoodResponse	0	n/a	n/a	1	38	Cue	AvoidedLoss	True
364.476	3.95	Lose2	0.5897	0.0	Yes	2.824	0.0	n/a	GoodResponse	0	n/a	n/a	1	38	Fixation	AvoidedLoss	True
368.425	0.24	Lose2	0.5897	0.001	Yes	2.824	-0.001	2.0	GoodResponse	0	0.197	367.622	1	38	Target	AvoidedLoss	True
368.622	0.3	Lose2	0.5897	0.001	Yes	2.824	-0.001	2.0	GoodResponse	0	0.197	n/a	1	38	ButtonPress	AvoidedLoss	True
368.675	0.46	Lose2	0.5897	n/a	Yes	2.824	n/a	n/a	GoodResponse	0	n/a	n/a	1	38	Blank	AvoidedLoss	True
369.125	1.45	Lose2	0.5897	n/a	Yes	2.824	n/a	5.0	GoodResponse	0	0.021	368.146	1	38	Feedback	AvoidedLoss	True
370.574	2.824	Lose2	0.5897	n/a	Yes	2.824	n/a	n/a	GoodResponse	0	0.0	n/a	1	38	ISIslide	AvoidedLoss	True
373.423	0.25	Win2	0.6	0.0	Yes	2.977	0.023	n/a	GoodResponse	1	n/a	n/a	2	39	Cue	Win	True
373.673	4.1	Win2	0.6	0.0	Yes	2.977	0.0	n/a	GoodResponse	1	n/a	n/a	2	39	Fixation	Win	True
377.772	0.25	Win2	0.6	0.001	Yes	2.977	-0.001	2.0	GoodResponse	1	0.16	376.932	2	39	Target	Win	True
377.932	0.3	Win2	0.6	0.001	Yes	2.977	-0.001	2.0	GoodResponse	1	0.16	n/a	2	39	ButtonPress	Win	True
378.022	0.45	Win2	0.6	n/a	Yes	2.977	n/a	n/a	GoodResponse	1	n/a	n/a	2	39	Blank	Win	True
378.471	1.45	Win2	0.6	n/a	Yes	2.977	n/a	5.0	GoodResponse	1	0.041	377.512	2	39	Feedback	Win	True
379.921	2.977	Win2	0.6	n/a	Yes	2.977	n/a	n/a	GoodResponse	1	0.0	n/a	2	39	ISIslide	Win	True
382.92	0.25	Win2	0.6098	0.0	Yes	2.73	0.02	n/a	GoodResponse	1	n/a	n/a	3	40	Cue	Win	True
383.17	3.95	Win2	0.6098	0.0	Yes	2.73	0.0	n/a	GoodResponse	1	n/a	n/a	3	40	Fixation	Win	True
387.118	0.26	Win2	0.6098	0.002	Yes	2.73	-0.002	2.0	GoodResponse	1	0.198	386.316	3	40	Target	Win	True
387.316	0.3	Win2	0.6098	0.002	Yes	2.73	-0.002	2.0	GoodResponse	1	0.198	n/a	3	40	ButtonPress	Win	True
387.385	0.44	Win2	0.6098	n/a	Yes	2.73	n/a	n/a	GoodResponse	1	n/a	n/a	3	40	Blank	Win	True
387.818	1.45	Win2	0.6098	n/a	Yes	2.73	n/a	5.0	GoodResponse	1	0.011	386.829	3	40	Feedback	Win	True
389.268	2.73	Win2	0.6098	n/a	Yes	2.73	n/a	n/a	GoodResponse	1	0.0	n/a	3	40	ISIslide	Win	True
392.017	0.25	Win2	0.619	0.0	Yes	2.783	0.017	n/a	GoodResponse	1	n/a	n/a	4	41	Cue	Win	True
392.267	3.9	Win2	0.619	0.0	Yes	2.783	0.0	n/a	GoodResponse	1	n/a	n/a	4	41	Fixation	Win	True
396.165	0.27	Win2	0.619	0.002	Yes	2.783	-0.002	2.0	GoodResponse	1	0.208	395.373	4	41	Target	Win	True
396.373	0.3	Win2	0.619	0.002	Yes	2.783	-0.002	2.0	GoodResponse	1	0.208	n/a	4	41	ButtonPress	Win	True
396.449	0.43	Win2	0.619	n/a	Yes	2.783	n/a	n/a	GoodResponse	1	n/a	n/a	4	41	Blank	Win	True
396.865	1.45	Win2	0.619	n/a	Yes	2.783	n/a	5.0	GoodResponse	1	0.037	395.902	4	41	Feedback	Win	True
398.315	2.783	Win2	0.619	n/a	Yes	2.783	n/a	n/a	GoodResponse	1	0.0	n/a	4	41	ISIslide	Win	True
401.114	0.25	Control	0.6279	0.0	Yes	2.936	0.014	n/a	GoodResponse	0	n/a	n/a	4	42	Cue	Neutral	True
401.363	3.85	Control	0.6279	0.001	Yes	2.936	-0.001	n/a	GoodResponse	0	n/a	n/a	4	42	Fixation	Neutral	True
405.212	0.28	Control	0.6279	0.002	Yes	2.936	-0.002	2.0	GoodResponse	0	0.184	404.396	4	42	Target	Neutral	True
405.396	0.3	Control	0.6279	0.002	Yes	2.936	-0.002	2.0	GoodResponse	0	0.184	n/a	4	42	ButtonPress	Neutral	True
405.495	0.42	Control	0.6279	n/a	Yes	2.936	n/a	n/a	GoodResponse	0	n/a	n/a	4	42	Blank	Neutral	True
405.912	1.45	Control	0.6279	n/a	Yes	2.936	n/a	5.0	GoodResponse	0	0.015	404.927	4	42	Feedback	Neutral	True
407.361	2.936	Control	0.6279	n/a	Yes	2.936	n/a	n/a	GoodResponse	0	0.0	n/a	4	42	ISIslide	Neutral	True
410.327	0.25	Win2	0.6364	0.0	Yes	3.173	0.027	n/a	GoodResponse	1	n/a	n/a	5	43	Cue	Win	True
410.577	4.0	Win2	0.6364	0.0	Yes	3.173	0.0	n/a	GoodResponse	1	n/a	n/a	5	43	Fixation	Win	True
414.576	0.29	Win2	0.6364	0.001	Yes	3.173	-0.001	2.0	GoodResponse	1	0.142	413.718	5	43	Target	Win	True
414.718	0.3	Win2	0.6364	0.001	Yes	3.173	-0.001	2.0	GoodResponse	1	0.142	n/a	5	43	ButtonPress	Win	True
414.875	0.41	Win2	0.6364	n/a	Yes	3.173	n/a	n/a	GoodResponse	1	n/a	n/a	5	43	Blank	Win	True
415.275	1.45	Win2	0.6364	n/a	Yes	3.173	n/a	5.0	GoodResponse	1	0.017	414.292	5	43	Feedback	Win	True
416.725	3.173	Win2	0.6364	n/a	Yes	3.173	n/a	n/a	GoodResponse	1	0.0	n/a	5	43	ISIslide	Win	True
419.924	0.25	Win2	0.6444	0.0	Yes	2.976	0.024	n/a	GoodResponse	1	n/a	n/a	6	44	Cue	Win	True
420.174	4.0	Win2	0.6444	0.0	Yes	2.976	0.0	n/a	GoodResponse	1	n/a	n/a	6	44	Fixation	Win	True
424.172	0.3	Win2	0.6444	0.002	Yes	2.976	-0.002	2.0	GoodResponse	1	0.163	423.335	6	44	Target	Win	True
424.335	0.3	Win2	0.6444	0.002	Yes	2.976	-0.002	2.0	GoodResponse	1	0.163	n/a	6	44	ButtonPress	Win	True
424.472	0.4	Win2	0.6444	n/a	Yes	2.976	n/a	n/a	GoodResponse	1	n/a	n/a	6	44	Blank	Win	True
424.872	1.45	Win2	0.6444	n/a	Yes	2.976	n/a	5.0	GoodResponse	1	0.03	423.902	6	44	Feedback	Win	True
426.321	2.976	Win2	0.6444	n/a	Yes	2.976	n/a	n/a	GoodResponse	1	0.0	n/a	6	44	ISIslide	Win	True
429.32	0.25	Control	0.6304	0.0	No	2.88	0.02	n/a	NoResponse	0	n/a	n/a	6	45	Cue	Neutral	True
429.57	4.1	Control	0.6304	0.0	No	2.88	0.0	n/a	NoResponse	0	n/a	n/a	6	45	Fixation	Neutral	True
433.669	0.31	Control	0.6304	0.001	No	2.88	-0.001	2.0	NoResponse	0	0.417	433.086	6	45	Target	Neutral	True
433.985	0.39	Control	0.6304	n/a	No	2.88	n/a	n/a	NoResponse	0	n/a	n/a	6	45	Blank	Neutral	True
434.086	0.3	Control	0.6304	0.001	No	2.88	-0.001	2.0	NoResponse	0	0.417	n/a	6	45	ButtonPress	Neutral	True
434.369	1.45	Control	0.6304	n/a	No	2.88	n/a	5.0	NoResponse	0	0.045	433.414	6	45	Feedback	Neutral	True
435.818	2.88	Control	0.6304	n/a	No	2.88	n/a	n/a	NoResponse	0	0.0	n/a	6	45	ISIslide	Neutral	True
438.717	0.25	Lose2	0.6383	0.0	Yes	3.383	0.017	n/a	GoodResponse	0	n/a	n/a	6	46	Cue	AvoidedLoss	True
438.967	4.0	Lose2	0.6383	0.0	Yes	3.383	0.0	n/a	GoodResponse	0	n/a	n/a	6	46	Fixation	AvoidedLoss	True
442.966	0.32	Lose2	0.6383	0.001	Yes	3.383	-0.001	2.0	GoodResponse	0	0.273	442.239	6	46	Target	AvoidedLoss	True
443.239	0.3	Lose2	0.6383	0.001	Yes	3.383	-0.001	2.0	GoodResponse	0	0.273	n/a	6	46	ButtonPress	AvoidedLoss	True
443.299	0.38	Lose2	0.6383	n/a	Yes	3.383	n/a	n/a	GoodResponse	0	n/a	n/a	6	46	Blank	AvoidedLoss	True
443.665	1.45	Lose2	0.6383	n/a	Yes	3.383	n/a	5.0	GoodResponse	0	0.018	442.683	6	46	Feedback	AvoidedLoss	True
445.115	3.383	Lose2	0.6383	n/a	Yes	3.383	n/a	n/a	GoodResponse	0	0.0	n/a	6	46	ISIslide	AvoidedLoss	True
448.514	0.25	Lose2	0.6457999999999999	0.0	Yes	2.686	0.014	n/a	GoodResponse	0	n/a	n/a	6	47	Cue	AvoidedLoss	False
448.764	4.0	Lose2	0.6457999999999999	0.0	Yes	2.686	0.0	2.0	GoodResponse	0	3.632	451.396	6	47	Fixation	AvoidedLoss	False
452.396	0.3	Lose2	0.6457999999999999	0.0	Yes	2.686	0.0	2.0	GoodResponse	0	3.632	n/a	6	47	ButtonPress	AvoidedLoss	False
452.762	0.33	Lose2	0.6457999999999999	0.002	Yes	2.686	-0.002	2.0	GoodResponse	0	0.183	451.945	6	47	Target	AvoidedLoss	False
452.945	0.3	Lose2	0.6457999999999999	0.002	Yes	2.686	-0.002	2.0	GoodResponse	0	0.183	n/a	6	47	ButtonPress	AvoidedLoss	False
453.095	0.37	Lose2	0.6457999999999999	n/a	Yes	2.686	n/a	n/a	GoodResponse	0	n/a	n/a	6	47	Blank	AvoidedLoss	False
453.462	1.45	Lose2	0.6457999999999999	n/a	Yes	2.686	n/a	5.0	GoodResponse	0	0.026	452.488	6	47	Feedback	AvoidedLoss	False
454.911	2.686	Lose2	0.6457999999999999	n/a	Yes	2.686	n/a	n/a	GoodResponse	0	0.0	n/a	6	47	ISIslide	AvoidedLoss	False
457.627	0.25	Lose2	0.6531	0.0	Yes	3.023	0.027	n/a	GoodResponse	0	n/a	n/a	6	48	Cue	AvoidedLoss	True
457.877	3.95	Lose2	0.6531	0.0	Yes	3.023	0.0	n/a	GoodResponse	0	n/a	n/a	6	48	Fixation	AvoidedLoss	True
461.826	0.34	Lose2	0.6531	0.001	Yes	3.023	-0.001	2.0	GoodResponse	0	0.217	461.043	6	48	Target	AvoidedLoss	True
462.043	0.3	Lose2	0.6531	0.001	Yes	3.023	-0.001	2.0	GoodResponse	0	0.217	n/a	6	48	ButtonPress	AvoidedLoss	True
462.176	0.36	Lose2	0.6531	n/a	Yes	3.023	n/a	n/a	GoodResponse	0	n/a	n/a	6	48	Blank	AvoidedLoss	True
462.525	1.45	Lose2	0.6531	n/a	Yes	3.023	n/a	5.0	GoodResponse	0	0.036	461.561	6	48	Feedback	AvoidedLoss	True
463.975	3.023	Lose2	0.6531	n/a	Yes	3.023	n/a	n/a	GoodResponse	0	0.0	n/a	6	48	ISIslide	AvoidedLoss	True
467.024	0.25	Control	0.66	0.0	Yes	2.876	0.024	n/a	GoodResponse	0	n/a	n/a	6	49	Cue	Neutral	True
467.274	4.0	Control	0.66	0.0	Yes	2.876	0.0	n/a	GoodResponse	0	n/a	n/a	6	49	Fixation	Neutral	True
471.272	0.35	Control	0.66	0.002	Yes	2.876	-0.002	2.0	GoodResponse	0	0.204	470.476	6	49	Target	Neutral	True
471.476	0.3	Control	0.66	0.002	Yes	2.876	-0.002	2.0	GoodResponse	0	0.204	n/a	6	49	ButtonPress	Neutral	True
471.622	0.35	Control	0.66	n/a	Yes	2.876	n/a	n/a	GoodResponse	0	n/a	n/a	6	49	Blank	Neutral	True
471.972	1.45	Control	0.66	n/a	Yes	2.876	n/a	5.0	GoodResponse	0	0.005	470.977	6	49	Feedback	Neutral	True
473.422	2.876	Control	0.66	n/a	Yes	2.876	n/a	n/a	GoodResponse	0	0.0	n/a	6	49	ISIslide	Neutral	True
476.321	0.25	Control	0.6667000000000001	0.0	Yes	2.779	0.021	n/a	GoodResponse	0	n/a	n/a	6	50	Cue	Neutral	True
476.571	4.0	Control	0.6667000000000001	0.0	Yes	2.779	0.0	n/a	GoodResponse	0	n/a	n/a	6	50	Fixation	Neutral	True
480.569	0.35	Control	0.6667000000000001	0.002	Yes	2.779	-0.002	2.0	GoodResponse	0	0.209	479.778	6	50	Target	Neutral	True
480.778	0.3	Control	0.6667000000000001	0.002	Yes	2.779	-0.002	2.0	GoodResponse	0	0.209	n/a	6	50	ButtonPress	Neutral	True
480.919	0.35	Control	0.6667000000000001	n/a	Yes	2.779	n/a	n/a	GoodResponse	0	n/a	n/a	6	50	Blank	Neutral	True
481.269	1.45	Control	0.6667000000000001	n/a	Yes	2.779	n/a	5.0	GoodResponse	0	0.023	480.292	6	50	Feedback	Neutral	True
482.718	2.779	Control	0.6667000000000001	n/a	Yes	2.779	n/a	n/a	GoodResponse	0	0.0	n/a	6	50	ISIslide	Neutral	True
485.517	0.25	Control	0.6731	0.001	Yes	2.733	0.017	n/a	GoodResponse	0	n/a	n/a	6	51	Cue	Neutral	True
485.767	3.95	Control	0.6731	0.0	Yes	2.733	0.0	n/a	GoodResponse	0	n/a	n/a	6	51	Fixation	Neutral	True
489.716	0.34	Control	0.6731	0.001	Yes	2.733	-0.001	2.0	GoodResponse	0	0.203	488.919	6	51	Target	Neutral	True
489.919	0.3	Control	0.6731	0.001	Yes	2.733	-0.001	2.0	GoodResponse	0	0.203	n/a	6	51	ButtonPress	Neutral	True
490.066	0.36	Control	0.6731	n/a	Yes	2.733	n/a	n/a	GoodResponse	0	n/a	n/a	6	51	Blank	Neutral	True
490.416	1.45	Control	0.6731	n/a	Yes	2.733	n/a	5.0	GoodResponse	0	0.047	489.463	6	51	Feedback	Neutral	True
491.865	2.733	Control	0.6731	n/a	Yes	2.733	n/a	n/a	GoodResponse	0	0.0	n/a	6	51	ISIslide	Neutral	True
494.614	0.25	Control	0.6792	0.0	Yes	2.636	0.014	n/a	GoodResponse	0	n/a	n/a	6	52	Cue	Neutral	True
494.864	4.05	Control	0.6792	0.0	Yes	2.636	0.0	n/a	GoodResponse	0	n/a	n/a	6	52	Fixation	Neutral	True
498.913	0.33	Control	0.6792	0.001	Yes	2.636	-0.001	2.0	GoodResponse	0	0.19	498.103	6	52	Target	Neutral	True
499.103	0.3	Control	0.6792	0.001	Yes	2.636	-0.001	2.0	GoodResponse	0	0.19	n/a	6	52	ButtonPress	Neutral	True
499.246	0.37	Control	0.6792	n/a	Yes	2.636	n/a	n/a	GoodResponse	0	n/a	n/a	6	52	Blank	Neutral	True
499.613	1.45	Control	0.6792	n/a	Yes	2.636	n/a	5.0	GoodResponse	0	0.021	498.634	6	52	Feedback	Neutral	True
501.062	2.636	Control	0.6792	n/a	Yes	2.636	n/a	n/a	GoodResponse	0	0.0	n/a	6	52	ISIslide	Neutral	True
503.728	0.25	Win2	0.6851999999999999	0.0	Yes	2.922	0.028	n/a	GoodResponse	1	n/a	n/a	7	53	Cue	Win	True
503.978	4.05	Win2	0.6851999999999999	0.0	Yes	2.922	0.0	n/a	GoodResponse	1	n/a	n/a	7	53	Fixation	Win	True
508.026	0.32	Win2	0.6851999999999999	0.002	Yes	2.922	-0.002	2.0	GoodResponse	1	0.18	507.206	7	53	Target	Win	True
508.206	0.3	Win2	0.6851999999999999	0.002	Yes	2.922	-0.002	2.0	GoodResponse	1	0.18	n/a	7	53	ButtonPress	Win	True
508.359	0.38	Win2	0.6851999999999999	n/a	Yes	2.922	n/a	n/a	GoodResponse	1	n/a	n/a	7	53	Blank	Win	True
508.726	1.45	Win2	0.6851999999999999	n/a	Yes	2.922	n/a	5.0	GoodResponse	1	0.03	507.756	7	53	Feedback	Win	True
510.175	2.922	Win2	0.6851999999999999	n/a	Yes	2.922	n/a	n/a	GoodResponse	1	0.0	n/a	7	53	ISIslide	Win	True
513.124	0.25	Win2	0.6909000000000001	0.001	Yes	2.726	0.024	n/a	GoodResponse	1	n/a	n/a	8	54	Cue	Win	True
513.374	3.95	Win2	0.6909000000000001	0.0	Yes	2.726	0.0	n/a	GoodResponse	1	n/a	n/a	8	54	Fixation	Win	True
517.323	0.31	Win2	0.6909000000000001	0.001	Yes	2.726	-0.001	2.0	GoodResponse	1	0.172	516.495	8	54	Target	Win	True
517.495	0.3	Win2	0.6909000000000001	0.001	Yes	2.726	-0.001	2.0	GoodResponse	1	0.172	n/a	8	54	ButtonPress	Win	True
517.64	0.39	Win2	0.6909000000000001	n/a	Yes	2.726	n/a	n/a	GoodResponse	1	n/a	n/a	8	54	Blank	Win	True
518.023	1.45	Win2	0.6909000000000001	n/a	Yes	2.726	n/a	5.0	GoodResponse	1	0.0	517.023	8	54	Feedback	Win	True
519.472	2.726	Win2	0.6909000000000001	n/a	Yes	2.726	n/a	n/a	GoodResponse	1	0.0	n/a	8	54	ISIslide	Win	True
522.221	0.25	Control	0.6964	0.0	Yes	3.029	0.021	n/a	GoodResponse	0	n/a	n/a	8	55	Cue	Neutral	True
522.471	3.95	Control	0.6964	0.0	Yes	3.029	0.0	n/a	GoodResponse	0	n/a	n/a	8	55	Fixation	Neutral	True
526.42	0.3	Control	0.6964	0.001	Yes	3.029	-0.001	2.0	GoodResponse	0	0.242	525.662	8	55	Target	Neutral	True
526.662	0.3	Control	0.6964	0.001	Yes	3.029	-0.001	2.0	GoodResponse	0	0.242	n/a	8	55	ButtonPress	Neutral	True
526.72	0.4	Control	0.6964	n/a	Yes	3.029	n/a	n/a	GoodResponse	0	n/a	n/a	8	55	Blank	Neutral	True
527.12	1.45	Control	0.6964	n/a	Yes	3.029	n/a	5.0	GoodResponse	0	0.025	526.145	8	55	Feedback	Neutral	True
528.569	3.029	Control	0.6964	n/a	Yes	3.029	n/a	n/a	GoodResponse	0	0.0	n/a	8	55	ISIslide	Neutral	True
531.618	0.25	Control	0.7018000000000001	0.0	Yes	2.832	0.018	n/a	GoodResponse	0	n/a	n/a	8	56	Cue	Neutral	True
531.868	3.95	Control	0.7018000000000001	0.0	Yes	2.832	0.0	n/a	GoodResponse	0	n/a	n/a	8	56	Fixation	Neutral	True
535.817	0.29	Control	0.7018000000000001	0.001	Yes	2.832	-0.001	2.0	GoodResponse	0	0.268	535.085	8	56	Target	Neutral	True
536.085	0.3	Control	0.7018000000000001	0.001	Yes	2.832	-0.001	2.0	GoodResponse	0	0.268	n/a	8	56	ButtonPress	Neutral	True
536.116	0.41	Control	0.7018000000000001	n/a	Yes	2.832	n/a	n/a	GoodResponse	0	n/a	n/a	8	56	Blank	Neutral	True
536.516	1.45	Control	0.7018000000000001	n/a	Yes	2.832	n/a	5.0	GoodResponse	0	0.044	535.56	8	56	Feedback	Neutral	True
537.966	2.832	Control	0.7018000000000001	n/a	Yes	2.832	n/a	n/a	GoodResponse	0	0.0	n/a	8	56	ISIslide	Neutral	True
540.815	0.25	Control	0.7069	0.0	Yes	3.485	0.015	n/a	GoodResponse	0	n/a	n/a	8	57	Cue	Neutral	True
541.065	4.0	Control	0.7069	0.0	Yes	3.485	0.0	n/a	GoodResponse	0	n/a	n/a	8	57	Fixation	Neutral	True
545.063	0.28	Control	0.7069	0.002	Yes	3.485	-0.002	2.0	GoodResponse	0	0.192	544.255	8	57	Target	Neutral	True
545.255	0.3	Control	0.7069	0.002	Yes	3.485	-0.002	2.0	GoodResponse	0	0.192	n/a	8	57	ButtonPress	Neutral	True
545.347	0.42	Control	0.7069	n/a	Yes	3.485	n/a	n/a	GoodResponse	0	n/a	n/a	8	57	Blank	Neutral	True
545.763	1.45	Control	0.7069	n/a	Yes	3.485	n/a	5.0	GoodResponse	0	0.016	544.779	8	57	Feedback	Neutral	True
547.213	3.485	Control	0.7069	n/a	Yes	3.485	n/a	n/a	GoodResponse	0	0.0	n/a	8	57	ISIslide	Neutral	True
550.711	0.25	Win2	0.7119	0.0	Yes	2.739	0.011	n/a	GoodResponse	1	n/a	n/a	9	58	Cue	Win	True
550.961	4.05	Win2	0.7119	0.0	Yes	2.739	0.0	n/a	GoodResponse	1	n/a	n/a	9	58	Fixation	Win	True
555.01	0.27	Win2	0.7119	0.001	Yes	2.739	-0.001	2.0	GoodResponse	1	0.23	554.24	9	58	Target	Win	True
555.24	0.3	Win2	0.7119	0.001	Yes	2.739	-0.001	2.0	GoodResponse	1	0.23	n/a	9	58	ButtonPress	Win	True
555.276	0.43	Win2	0.7119	n/a	Yes	2.739	n/a	n/a	GoodResponse	1	n/a	n/a	9	58	Blank	Win	True
555.71	1.45	Win2	0.7119	n/a	Yes	2.739	n/a	5.0	GoodResponse	1	0.021	554.731	9	58	Feedback	Win	True
557.159	2.739	Win2	0.7119	n/a	Yes	2.739	n/a	n/a	GoodResponse	1	0.0	n/a	9	58	ISIslide	Win	True
559.925	0.25	Lose2	0.7167	0.0	Yes	2.675	0.025	n/a	GoodResponse	0	n/a	n/a	9	59	Cue	AvoidedLoss	True
560.175	4.0	Lose2	0.7167	0.0	Yes	2.675	0.0	n/a	GoodResponse	0	n/a	n/a	9	59	Fixation	AvoidedLoss	True
564.173	0.26	Lose2	0.7167	0.002	Yes	2.675	-0.002	2.0	GoodResponse	0	0.206	563.379	9	59	Target	AvoidedLoss	True
564.379	0.3	Lose2	0.7167	0.002	Yes	2.675	-0.002	2.0	GoodResponse	0	0.206	n/a	9	59	ButtonPress	AvoidedLoss	True
564.44	0.44	Lose2	0.7167	n/a	Yes	2.675	n/a	n/a	GoodResponse	0	n/a	n/a	9	59	Blank	AvoidedLoss	True
564.873	1.45	Lose2	0.7167	n/a	Yes	2.675	n/a	5.0	GoodResponse	0	0.028	563.901	9	59	Feedback	AvoidedLoss	True
566.323	2.675	Lose2	0.7167	n/a	Yes	2.675	n/a	n/a	GoodResponse	0	0.0	n/a	9	59	ISIslide	AvoidedLoss	True
569.022	0.25	Control	0.7212999999999999	0.0	Yes	2.678	0.022	n/a	GoodResponse	0	n/a	n/a	9	60	Cue	Neutral	True
569.272	4.0	Control	0.7212999999999999	0.0	Yes	2.678	0.0	n/a	GoodResponse	0	n/a	n/a	9	60	Fixation	Neutral	True
573.27	0.25	Control	0.7212999999999999	0.002	Yes	2.678	-0.002	2.0	GoodResponse	0	0.196	572.466	9	60	Target	Neutral	True
573.466	0.3	Control	0.7212999999999999	0.002	Yes	2.678	-0.002	2.0	GoodResponse	0	0.196	n/a	9	60	ButtonPress	Neutral	True
573.52	0.45	Control	0.7212999999999999	n/a	Yes	2.678	n/a	n/a	GoodResponse	0	n/a	n/a	9	60	Blank	Neutral	True
573.97	1.45	Control	0.7212999999999999	n/a	Yes	2.678	n/a	5.0	GoodResponse	0	0.005	572.975	9	60	Feedback	Neutral	True
575.419	2.678	Control	0.7212999999999999	n/a	Yes	2.678	n/a	n/a	GoodResponse	0	0.0	n/a	9	60	ISIslide	Neutral	True
578.118	0.25	Lose2	0.7258	0.001	Yes	2.982	0.018	n/a	GoodResponse	0	n/a	n/a	9	61	Cue	AvoidedLoss	True
578.368	4.0	Lose2	0.7258	0.0	Yes	2.982	0.0	n/a	GoodResponse	0	n/a	n/a	9	61	Fixation	AvoidedLoss	True
582.367	0.24	Lose2	0.7258	0.001	Yes	2.982	-0.001	2.0	GoodResponse	0	0.211	581.578	9	61	Target	AvoidedLoss	True
582.578	0.3	Lose2	0.7258	0.001	Yes	2.982	-0.001	2.0	GoodResponse	0	0.211	n/a	9	61	ButtonPress	AvoidedLoss	True
582.617	0.46	Lose2	0.7258	n/a	Yes	2.982	n/a	n/a	GoodResponse	0	n/a	n/a	9	61	Blank	AvoidedLoss	True
583.067	1.45	Lose2	0.7258	n/a	Yes	2.982	n/a	5.0	GoodResponse	0	0.029	582.096	9	61	Feedback	AvoidedLoss	True
584.516	2.982	Lose2	0.7258	n/a	Yes	2.982	n/a	n/a	GoodResponse	0	0.0	n/a	9	61	ISIslide	AvoidedLoss	True
587.515	0.25	Lose2	0.7302	0.0	Yes	2.885	0.015	n/a	GoodResponse	0	n/a	n/a	9	62	Cue	AvoidedLoss	True
587.765	3.9	Lose2	0.7302	0.0	Yes	2.885	0.0	n/a	GoodResponse	0	n/a	n/a	9	62	Fixation	AvoidedLoss	True
591.664	0.23	Lose2	0.7302	0.001	Yes	2.885	-0.001	2.0	GoodResponse	0	0.195	590.859	9	62	Target	AvoidedLoss	True
591.859	0.3	Lose2	0.7302	0.001	Yes	2.885	-0.001	2.0	GoodResponse	0	0.195	n/a	9	62	ButtonPress	AvoidedLoss	True
591.897	0.47	Lose2	0.7302	n/a	Yes	2.885	n/a	n/a	GoodResponse	0	n/a	n/a	9	62	Blank	AvoidedLoss	True
592.363	1.45	Lose2	0.7302	n/a	Yes	2.885	n/a	5.0	GoodResponse	0	0.001	591.364	9	62	Feedback	AvoidedLoss	True
593.813	2.885	Lose2	0.7302	n/a	Yes	2.885	n/a	n/a	GoodResponse	0	0.0	n/a	9	62	ISIslide	AvoidedLoss	True
596.712	0.25	Lose2	0.7343999999999999	0.0	Yes	2.638	0.012	n/a	GoodResponse	0	n/a	n/a	9	63	Cue	AvoidedLoss	True
596.962	4.05	Lose2	0.7343999999999999	0.0	Yes	2.638	0.0	n/a	GoodResponse	0	n/a	n/a	9	63	Fixation	AvoidedLoss	True
601.01	0.22	Lose2	0.7343999999999999	0.002	Yes	2.638	-0.002	2.0	GoodResponse	0	0.198	600.208	9	63	Target	AvoidedLoss	True
601.208	0.3	Lose2	0.7343999999999999	0.002	Yes	2.638	-0.002	2.0	GoodResponse	0	0.198	n/a	9	63	ButtonPress	AvoidedLoss	True
601.244	0.48	Lose2	0.7343999999999999	n/a	Yes	2.638	n/a	n/a	GoodResponse	0	n/a	n/a	9	63	Blank	AvoidedLoss	True
601.71	1.45	Lose2	0.7343999999999999	n/a	Yes	2.638	n/a	5.0	GoodResponse	0	0.02	600.73	9	63	Feedback	AvoidedLoss	True
603.16	2.638	Lose2	0.7343999999999999	n/a	Yes	2.638	n/a	n/a	GoodResponse	0	0.0	n/a	9	63	ISIslide	AvoidedLoss	True
605.825	0.25	Win2	0.7384999999999999	0.001	Yes	3.125	0.025	n/a	GoodResponse	1	n/a	n/a	10	64	Cue	Win	True
606.075	4.15	Win2	0.7384999999999999	0.0	Yes	3.125	0.0	n/a	GoodResponse	1	n/a	n/a	10	64	Fixation	Win	True
610.224	0.21	Win2	0.7384999999999999	0.001	Yes	3.125	-0.001	2.0	GoodResponse	1	0.176	609.4	10	64	Target	Win	True
610.4	0.3	Win2	0.7384999999999999	0.001	Yes	3.125	-0.001	2.0	GoodResponse	1	0.176	n/a	10	64	ButtonPress	Win	True
610.441	0.49	Win2	0.7384999999999999	n/a	Yes	3.125	n/a	n/a	GoodResponse	1	n/a	n/a	10	64	Blank	Win	True
610.924	1.45	Win2	0.7384999999999999	n/a	Yes	3.125	n/a	5.0	GoodResponse	1	0.026	609.95	10	64	Feedback	Win	True
612.373	3.125	Win2	0.7384999999999999	n/a	Yes	3.125	n/a	n/a	GoodResponse	1	0.0	n/a	10	64	ISIslide	Win	True
615.522	0.25	Control	0.7424	0.0	Yes	2.778	0.022	n/a	GoodResponse	0	n/a	n/a	10	65	Cue	Neutral	True
615.772	4.0	Control	0.7424	0.0	Yes	2.778	0.0	n/a	GoodResponse	0	n/a	n/a	10	65	Fixation	Neutral	True
619.771	0.2	Control	0.7424	0.001	Yes	2.778	-0.001	2.0	GoodResponse	0	0.185	618.956	10	65	Target	Neutral	True
619.956	0.3	Control	0.7424	0.001	Yes	2.778	-0.001	2.0	GoodResponse	0	0.185	n/a	10	65	ButtonPress	Neutral	True
619.971	0.5	Control	0.7424	n/a	Yes	2.778	n/a	n/a	GoodResponse	0	n/a	n/a	10	65	Blank	Neutral	True
620.47	1.45	Control	0.7424	n/a	Yes	2.778	n/a	5.0	GoodResponse	0	0.04	619.51	10	65	Feedback	Neutral	True
621.92	2.778	Control	0.7424	n/a	Yes	2.778	n/a	n/a	GoodResponse	0	0.0	n/a	10	65	ISIslide	Neutral	True
624.719	0.25	Win2	0.7313	0.0	No	2.781	0.019	n/a	LatePress	0	n/a	n/a	10	66	Cue	MissedWin	True
624.969	3.9	Win2	0.7313	0.0	No	2.781	0.0	n/a	LatePress	0	n/a	n/a	10	66	Fixation	MissedWin	True
628.867	0.19	Win2	0.7313	0.002	No	2.781	-0.002	2.0	LatePress	0	0.193	628.06	10	66	Target	MissedWin	True
629.06	0.3	Win2	0.7313	0.002	No	2.781	-0.002	2.0	LatePress	0	0.193	n/a	10	66	ButtonPress	MissedWin	True
629.067	0.51	Win2	0.7313	n/a	No	2.781	n/a	n/a	LatePress	0	n/a	n/a	10	66	Blank	MissedWin	True
629.567	1.45	Win2	0.7313	n/a	No	2.781	n/a	5.0	LatePress	0	0.016	628.583	10	66	Feedback	MissedWin	True
631.017	2.781	Win2	0.7313	n/a	No	2.781	n/a	n/a	LatePress	0	0.0	n/a	10	66	ISIslide	MissedWin	True
633.816	0.25	Control	0.7206	0.0	No	2.734	0.016	n/a	NoResponse	0	n/a	n/a	10	67	Cue	Neutral	True
634.066	3.95	Control	0.7206	0.0	No	2.734	0.0	n/a	NoResponse	0	n/a	n/a	10	67	Fixation	Neutral	True
638.014	0.18	Control	0.7206	0.002	No	2.734	-0.002	2.0	NoResponse	0	0.218	637.232	10	67	Target	Neutral	True
638.198	0.52	Control	0.7206	n/a	No	2.734	n/a	n/a	NoResponse	0	n/a	n/a	10	67	Blank	Neutral	True
638.232	0.3	Control	0.7206	0.002	No	2.734	-0.002	2.0	NoResponse	0	0.218	n/a	10	67	ButtonPress	Neutral	True
638.714	1.45	Control	0.7206	n/a	No	2.734	n/a	5.0	NoResponse	0	0.04	637.754	10	67	Feedback	Neutral	True
640.163	2.734	Control	0.7206	n/a	No	2.734	n/a	n/a	NoResponse	0	0.0	n/a	10	67	ISIslide	Neutral	True
642.913	0.25	Win2	0.7101000000000001	0.0	No	3.087	0.013	n/a	LatePress	0	n/a	n/a	10	68	Cue	MissedWin	True
643.162	4.0	Win2	0.7101000000000001	0.001	No	3.087	-0.001	n/a	LatePress	0	n/a	n/a	10	68	Fixation	MissedWin	True
647.161	0.17	Win2	0.7101000000000001	0.002	No	3.087	-0.002	2.0	LatePress	0	0.177	646.338	10	68	Target	MissedWin	True
647.338	0.3	Win2	0.7101000000000001	0.002	No	3.087	-0.002	2.0	LatePress	0	0.177	n/a	10	68	ButtonPress	MissedWin	True
647.344	0.53	Win2	0.7101000000000001	n/a	No	3.087	n/a	n/a	LatePress	0	n/a	n/a	10	68	Blank	MissedWin	True
647.861	1.45	Win2	0.7101000000000001	n/a	No	3.087	n/a	5.0	LatePress	0	0.015	646.876	10	68	Feedback	MissedWin	True
649.31	3.087	Win2	0.7101000000000001	n/a	No	3.087	n/a	n/a	LatePress	0	0.0	n/a	10	68	ISIslide	MissedWin	True
652.426	0.25	Win2	0.7	0.0	No	3.224	0.026	n/a	NoResponse	0	n/a	n/a	10	69	Cue	MissedWin	True
652.676	3.95	Win2	0.7	0.0	No	3.224	0.0	n/a	NoResponse	0	n/a	n/a	10	69	Fixation	MissedWin	True
656.624	0.16	Win2	0.7	0.002	No	3.224	-0.002	2.0	NoResponse	0	0.192	655.816	10	69	Target	MissedWin	True
656.791	0.54	Win2	0.7	n/a	No	3.224	n/a	n/a	NoResponse	0	n/a	n/a	10	69	Blank	MissedWin	True
656.816	0.3	Win2	0.7	0.002	No	3.224	-0.002	2.0	NoResponse	0	0.192	n/a	10	69	ButtonPress	MissedWin	True
657.324	1.45	Win2	0.7	n/a	No	3.224	n/a	5.0	NoResponse	0	0.016	656.34	10	69	Feedback	MissedWin	True
658.774	3.224	Win2	0.7	n/a	No	3.224	n/a	n/a	NoResponse	0	0.0	n/a	10	69	ISIslide	MissedWin	True
662.023	0.25	Lose2	0.6901	0.0	No	3.027	0.023	n/a	NoResponse	-1	n/a	n/a	9	70	Cue	Loss	True
662.272	4.05	Lose2	0.6901	0.001	No	3.027	-0.001	n/a	NoResponse	-1	n/a	n/a	9	70	Fixation	Loss	True
666.321	0.15	Lose2	0.6901	0.002	No	3.027	-0.002	2.0	NoResponse	-1	0.181	665.502	9	70	Target	Loss	True
666.471	0.55	Lose2	0.6901	n/a	No	3.027	n/a	n/a	NoResponse	-1	n/a	n/a	9	70	Blank	Loss	True
666.502	0.3	Lose2	0.6901	0.002	No	3.027	-0.002	2.0	NoResponse	-1	0.181	n/a	9	70	ButtonPress	Loss	True
667.021	1.45	Lose2	0.6901	n/a	No	3.027	n/a	5.0	NoResponse	-1	0.025	666.046	9	70	Feedback	Loss	True
668.47	3.027	Lose2	0.6901	n/a	No	3.027	n/a	n/a	NoResponse	-1	0.0	n/a	9	70	ISIslide	Loss	True
671.519	0.25	Win2	0.6806	0.0	No	2.731	0.019	n/a	NoResponse	0	n/a	n/a	9	71	Cue	MissedWin	True
671.769	4.05	Win2	0.6806	0.0	No	2.731	0.0	n/a	NoResponse	0	n/a	n/a	9	71	Fixation	MissedWin	True
675.818	0.15	Win2	0.6806	0.001	No	2.731	-0.001	2.0	NoResponse	0	0.199	675.017	9	71	Target	MissedWin	True
675.968	0.55	Win2	0.6806	n/a	No	2.731	n/a	n/a	NoResponse	0	n/a	n/a	9	71	Blank	MissedWin	True
676.017	0.3	Win2	0.6806	0.001	No	2.731	-0.001	2.0	NoResponse	0	0.199	n/a	9	71	ButtonPress	MissedWin	True
676.517	1.45	Win2	0.6806	n/a	No	2.731	n/a	5.0	NoResponse	0	0.042	675.559	9	71	Feedback	MissedWin	True
677.967	2.731	Win2	0.6806	n/a	No	2.731	n/a	n/a	NoResponse	0	0.0	n/a	9	71	ISIslide	MissedWin	True
680.716	0.25	Win2	0.6712	0.0	No	2.784	0.016	n/a	NoResponse	0	n/a	n/a	9	72	Cue	MissedWin	True
680.966	4.1	Win2	0.6712	0.0	No	2.784	0.0	n/a	NoResponse	0	n/a	n/a	9	72	Fixation	MissedWin	True
685.064	0.15	Win2	0.6712	0.002	No	2.784	-0.002	2.0	NoResponse	0	0.201	684.265	9	72	Target	MissedWin	True
685.214	0.55	Win2	0.6712	n/a	No	2.784	n/a	n/a	NoResponse	0	n/a	n/a	9	72	Blank	MissedWin	True
685.265	0.3	Win2	0.6712	0.002	No	2.784	-0.002	2.0	NoResponse	0	0.201	n/a	9	72	ButtonPress	MissedWin	True
685.764	1.45	Win2	0.6712	n/a	No	2.784	n/a	5.0	NoResponse	0	0.014	684.778	9	72	Feedback	MissedWin	True
687.214	2.784	Win2	0.6712	n/a	No	2.784	n/a	n/a	NoResponse	0	0.0	n/a	9	72	ISIslide	MissedWin	True
690.013	0.25	Win2	0.6622	0.0	No	2.687	0.013	n/a	NoResponse	0	n/a	n/a	9	73	Cue	MissedWin	True
690.263	4.0	Win2	0.6622	0.0	No	2.687	0.0	n/a	NoResponse	0	n/a	n/a	9	73	Fixation	MissedWin	True
694.261	0.15	Win2	0.6622	0.002	No	2.687	-0.002	2.0	NoResponse	0	0.182	693.443	9	73	Target	MissedWin	True
694.411	0.55	Win2	0.6622	n/a	No	2.687	n/a	n/a	NoResponse	0	n/a	n/a	9	73	Blank	MissedWin	True
694.443	0.3	Win2	0.6622	0.002	No	2.687	-0.002	2.0	NoResponse	0	0.182	n/a	9	73	ButtonPress	MissedWin	True
694.961	1.45	Win2	0.6622	n/a	No	2.687	n/a	5.0	NoResponse	0	0.037	693.998	9	73	Feedback	MissedWin	True
696.411	2.687	Win2	0.6622	n/a	No	2.687	n/a	n/a	NoResponse	0	0.0	n/a	9	73	ISIslide	MissedWin	True
699.126	0.25	Lose2	0.6533	0.0	No	2.624	0.026	n/a	NoResponse	-1	n/a	n/a	8	74	Cue	Loss	True
699.376	4.05	Lose2	0.6533	0.0	No	2.624	0.0	n/a	NoResponse	-1	n/a	n/a	8	74	Fixation	Loss	True
703.425	0.15	Lose2	0.6533	0.001	No	2.624	-0.001	2.0	NoResponse	-1	0.18	702.605	8	74	Target	Loss	True
703.575	0.55	Lose2	0.6533	n/a	No	2.624	n/a	n/a	NoResponse	-1	n/a	n/a	8	74	Blank	Loss	True
703.605	0.3	Lose2	0.6533	0.001	No	2.624	-0.001	2.0	NoResponse	-1	0.18	n/a	8	74	ButtonPress	Loss	True
704.125	1.45	Lose2	0.6533	n/a	No	2.624	n/a	5.0	NoResponse	-1	0.044	703.169	8	74	Feedback	Loss	True
705.574	2.624	Lose2	0.6533	n/a	No	2.624	n/a	n/a	NoResponse	-1	0.0	n/a	8	74	ISIslide	Loss	True
708.223	0.25	Lose2	0.6446999999999999	0.0	No	2.927	0.023	n/a	NoResponse	-1	n/a	n/a	7	75	Cue	Loss	True
708.473	3.95	Lose2	0.6446999999999999	0.0	No	2.927	0.0	n/a	NoResponse	-1	n/a	n/a	7	75	Fixation	Loss	True
712.422	0.16	Lose2	0.6446999999999999	0.001	No	2.927	-0.001	2.0	NoResponse	-1	0.186	711.608	7	75	Target	Loss	True
712.588	0.54	Lose2	0.6446999999999999	n/a	No	2.927	n/a	n/a	NoResponse	-1	n/a	n/a	7	75	Blank	Loss	True
712.608	0.3	Lose2	0.6446999999999999	0.001	No	2.927	-0.001	2.0	NoResponse	-1	0.186	n/a	7	75	ButtonPress	Loss	True
713.121	1.45	Lose2	0.6446999999999999	n/a	No	2.927	n/a	5.0	NoResponse	-1	0.024	712.145	7	75	Feedback	Loss	True
714.571	2.927	Lose2	0.6446999999999999	n/a	No	2.927	n/a	n/a	NoResponse	-1	0.0	n/a	7	75	ISIslide	Loss	True
717.52	0.25	Control	0.6364	0.0	No	3.23	0.02	n/a	NoResponse	0	n/a	n/a	7	76	Cue	Neutral	True
717.77	4.05	Control	0.6364	0.0	No	3.23	0.0	n/a	NoResponse	0	n/a	n/a	7	76	Fixation	Neutral	True
721.818	0.17	Control	0.6364	0.002	No	3.23	-0.002	2.0	NoResponse	0	0.192	721.01	7	76	Target	Neutral	True
722.002	0.53	Control	0.6364	n/a	No	3.23	n/a	n/a	NoResponse	0	n/a	n/a	7	76	Blank	Neutral	True
722.01	0.3	Control	0.6364	0.002	No	3.23	-0.002	2.0	NoResponse	0	0.192	n/a	7	76	ButtonPress	Neutral	True
722.518	1.45	Control	0.6364	n/a	No	3.23	n/a	5.0	NoResponse	0	0.04	721.558	7	76	Feedback	Neutral	True
723.968	3.23	Control	0.6364	n/a	No	3.23	n/a	n/a	NoResponse	0	0.0	n/a	7	76	ISIslide	Neutral	True
727.216	0.25	Lose2	0.6282	0.001	No	2.584	0.016	n/a	NoResponse	-1	n/a	n/a	6	77	Cue	Loss	True
727.466	3.95	Lose2	0.6282	0.0	No	2.584	0.0	2.0	NoResponse	-1	3.926	730.392	6	77	Fixation	Loss	True
731.392	0.3	Lose2	0.6282	0.0	No	2.584	0.0	2.0	NoResponse	-1	3.926	n/a	6	77	ButtonPress	Loss	True
731.415	0.18	Lose2	0.6282	0.001	No	2.584	-0.001	n/a	NoResponse	-1	n/a	n/a	6	77	Target	Loss	True
731.598	0.52	Lose2	0.6282	n/a	No	2.584	n/a	n/a	NoResponse	-1	n/a	n/a	6	77	Blank	Loss	True
732.115	1.45	Lose2	0.6282	n/a	No	2.584	n/a	5.0	NoResponse	-1	0.004	731.119	6	77	Feedback	Loss	True
733.564	2.584	Lose2	0.6282	n/a	No	2.584	n/a	n/a	NoResponse	-1	0.0	n/a	6	77	ISIslide	Loss	True
