onset	duration	cue_type	current_mean_accuracy	duration_error	is_hit	isi_adjusted	onset_delay	response	response_type	reward	rt	rt_time	total_reward	trial_number	trial_phase	trial_type	one_press
11.107	0.25	Control	1.0	0.0	Yes	2.943	0.007	n/a	GoodResponse	0	n/a	n/a	0	0	Cue	Neutral	True
11.358	3.85	Control	1.0	0.0	Yes	2.943	0.001	n/a	GoodResponse	0	n/a	n/a	0	0	Fixation	Neutral	True
15.203	0.4	Control	1.0	0.004	Yes	2.943	-0.004	2.0	GoodResponse	0	0.34	14.543	0	0	Target	Neutral	True
15.543	0.3	Control	1.0	0.004	Yes	2.943	-0.004	2.0	GoodResponse	0	0.34	n/a	0	0	ButtonPress	Neutral	True
15.604	0.3	Control	1.0	n/a	Yes	2.943	n/a	n/a	GoodResponse	0	n/a	n/a	0	0	Blank	Neutral	True
15.905	1.45	Control	1.0	n/a	Yes	2.943	n/a	5.0	GoodResponse	0	0.022	14.927	0	0	Feedback	Neutral	True
17.359	2.943	Control	1.0	n/a	Yes	2.943	n/a	n/a	GoodResponse	0	0.0	n/a	0	0	ISIslide	Neutral	True
20.318	0.25	Lose2	1.0	0.0	Yes	2.782	0.018	n/a	GoodResponse	0	n/a	n/a	0	1	Cue	AvoidedLoss	True
20.569	4.0	Lose2	1.0	0.0	Yes	2.782	0.001	n/a	GoodResponse	0	n/a	n/a	0	1	Fixation	AvoidedLoss	True
24.564	0.39	Lose2	1.0	0.004	Yes	2.782	-0.004	2.0	GoodResponse	0	0.22	23.784	0	1	Target	AvoidedLoss	True
24.784	0.3	Lose2	1.0	0.004	Yes	2.782	-0.004	2.0	GoodResponse	0	0.22	n/a	0	1	ButtonPress	AvoidedLoss	True
24.965	0.31	Lose2	1.0	n/a	Yes	2.782	n/a	n/a	GoodResponse	0	n/a	n/a	0	1	Blank	AvoidedLoss	True
25.266	1.45	Lose2	1.0	n/a	Yes	2.782	n/a	5.0	GoodResponse	0	0.026	24.292	0	1	Feedback	AvoidedLoss	True
26.72	2.782	Lose2	1.0	n/a	Yes	2.782	n/a	n/a	GoodResponse	0	0.0	n/a	0	1	ISIslide	AvoidedLoss	True
29.529	0.25	Control	1.0	0.0	Yes	2.571	0.029	n/a	GoodResponse	0	n/a	n/a	0	2	Cue	Neutral	False
29.78	4.1	Control	1.0	0.0	Yes	2.571	0.001	2.0	GoodResponse	0	3.614	32.394	0	2	Fixation	Neutral	False
33.394	0.3	Control	1.0	0.0	Yes	2.571	0.001	2.0	GoodResponse	0	3.614	n/a	0	2	ButtonPress	Neutral	False
33.875	0.38	Control	1.0	0.004	Yes	2.571	-0.004	2.0	GoodResponse	0	0.279	33.154	0	2	Target	Neutral	False
34.154	0.3	Control	1.0	0.004	Yes	2.571	-0.004	2.0	GoodResponse	0	0.279	n/a	0	2	ButtonPress	Neutral	False
34.26	0.32	Control	1.0	n/a	Yes	2.571	n/a	n/a	GoodResponse	0	n/a	n/a	0	2	Blank	Neutral	False
34.577	1.45	Control	1.0	n/a	Yes	2.571	n/a	5.0	GoodResponse	0	0.032	33.609	0	2	Feedback	Neutral	False
36.032	2.571	Control	1.0	n/a	Yes	2.571	n/a	n/a	GoodResponse	0	0.0	n/a	0	2	ISIslide	Neutral	False
38.623	0.25	Win2	1.0	0.0	Yes	2.827	0.023	n/a	GoodResponse	1	n/a	n/a	1	3	Cue	Win	True
38.873	3.95	Win2	1.0	0.0	Yes	2.827	0.0	n/a	GoodResponse	1	n/a	n/a	1	3	Fixation	Win	True
42.818	0.37	Win2	1.0	0.005	Yes	2.827	-0.005	2.0	GoodResponse	1	0.287	42.105	1	3	Target	Win	True
43.105	0.3	Win2	1.0	0.005	Yes	2.827	-0.005	2.0	GoodResponse	1	0.287	n/a	1	3	ButtonPress	Win	True
43.203	0.33	Win2	1.0	n/a	Yes	2.827	n/a	n/a	GoodResponse	1	n/a	n/a	1	3	Blank	Win	True
43.521	1.45	Win2	1.0	n/a	Yes	2.827	n/a	5.0	GoodResponse	1	0.015	42.536	1	3	Feedback	Win	True
44.975	2.827	Win2	1.0	n/a	Yes	2.827	n/a	n/a	GoodResponse	1	0.0	n/a	1	3	ISIslide	Win	True
47.817	0.25	Win2	1.0	0.0	Yes	3.283	0.017	n/a	GoodResponse	1	n/a	n/a	2	4	Cue	Win	True
48.067	4.0	Win2	1.0	0.001	Yes	3.283	0.0	n/a	GoodResponse	1	n/a	n/a	2	4	Fixation	Win	True
52.063	0.36	Win2	1.0	0.004	Yes	3.283	-0.004	2.0	GoodResponse	1	0.255	51.318	2	4	Target	Win	True
52.318	0.3	Win2	1.0	0.004	Yes	3.283	-0.004	2.0	GoodResponse	1	0.255	n/a	2	4	ButtonPress	Win	True
52.43	0.34	Win2	1.0	n/a	Yes	3.283	n/a	n/a	GoodResponse	1	n/a	n/a	2	4	Blank	Win	True
52.765	1.45	Win2	1.0	n/a	Yes	3.283	n/a	5.0	GoodResponse	1	0.039	51.804	2	4	Feedback	Win	True
54.219	3.283	Win2	1.0	n/a	Yes	3.283	n/a	n/a	GoodResponse	1	0.0	n/a	2	4	ISIslide	Win	True
57.529	0.25	Win2	1.0	0.0	Yes	2.771	0.029	n/a	GoodResponse	1	n/a	n/a	3	5	Cue	Win	True
57.78	4.0	Win2	1.0	0.0	Yes	2.771	0.001	n/a	GoodResponse	1	n/a	n/a	3	5	Fixation	Win	True
61.775	0.35	Win2	1.0	0.004	Yes	2.771	-0.004	2.0	GoodResponse	1	0.27	61.045	3	5	Target	Win	True
62.045	0.3	Win2	1.0	0.004	Yes	2.771	-0.004	2.0	GoodResponse	1	0.27	n/a	3	5	ButtonPress	Win	True
62.126	0.35	Win2	1.0	n/a	Yes	2.771	n/a	n/a	GoodResponse	1	n/a	n/a	3	5	Blank	Win	True
62.477	1.45	Win2	1.0	n/a	Yes	2.771	n/a	5.0	GoodResponse	1	0.034	61.511	3	5	Feedback	Win	True
63.931	2.771	Win2	1.0	n/a	Yes	2.771	n/a	n/a	GoodResponse	1	0.0	n/a	3	5	ISIslide	Win	True
66.723	0.25	Lose2	1.0	0.0	Yes	2.727	0.023	n/a	GoodResponse	0	n/a	n/a	3	6	Cue	AvoidedLoss	True
66.974	3.95	Lose2	1.0	0.0	Yes	2.727	0.001	n/a	GoodResponse	0	n/a	n/a	3	6	Fixation	AvoidedLoss	True
70.919	0.34	Lose2	1.0	0.004	Yes	2.727	-0.004	2.0	GoodResponse	0	0.217	70.136	3	6	Target	AvoidedLoss	True
71.136	0.3	Lose2	1.0	0.004	Yes	2.727	-0.004	2.0	GoodResponse	0	0.217	n/a	3	6	ButtonPress	AvoidedLoss	True
71.27	0.36	Lose2	1.0	n/a	Yes	2.727	n/a	n/a	GoodResponse	0	n/a	n/a	3	6	Blank	AvoidedLoss	True
71.621	1.45	Lose2	1.0	n/a	Yes	2.727	n/a	5.0	GoodResponse	0	0.012	70.633	3	6	Feedback	AvoidedLoss	True
73.075	2.727	Lose2	1.0	n/a	Yes	2.727	n/a	n/a	GoodResponse	0	0.0	n/a	3	6	ISIslide	AvoidedLoss	True
75.817	0.25	Lose2	1.0	0.0	Yes	4.033	0.017	n/a	GoodResponse	0	n/a	n/a	3	7	Cue	AvoidedLoss	True
76.068	4.05	Lose2	1.0	0.0	Yes	4.033	0.001	n/a	GoodResponse	0	n/a	n/a	3	7	Fixation	AvoidedLoss	True
80.113	0.33	Lose2	1.0	0.004	Yes	4.033	-0.004	2.0	GoodResponse	0	0.219	79.332	3	7	Target	AvoidedLoss	True
80.332	0.3	Lose2	1.0	0.004	Yes	4.033	-0.004	2.0	GoodResponse	0	0.219	n/a	3	7	ButtonPress	AvoidedLoss	True
80.447	0.37	Lose2	1.0	n/a	Yes	4.033	n/a	n/a	GoodResponse	0	n/a	n/a	3	7	Blank	AvoidedLoss	True
80.815	1.45	Lose2	1.0	n/a	Yes	4.033	n/a	5.0	GoodResponse	0	0.037	79.852	3	7	Feedback	AvoidedLoss	True
82.269	4.033	Lose2	1.0	n/a	Yes	4.033	n/a	n/a	GoodResponse	0	0.0	n/a	3	7	ISIslide	AvoidedLoss	True
86.315	0.25	Lose2	1.0	0.0	Yes	3.035	0.015	n/a	GoodResponse	0	n/a	n/a	3	8	Cue	AvoidedLoss	True
86.566	3.95	Lose2	1.0	0.0	Yes	3.035	0.001	n/a	GoodResponse	0	n/a	n/a	3	8	Fixation	AvoidedLoss	True
90.511	0.32	Lose2	1.0	0.004	Yes	3.035	-0.004	2.0	GoodResponse	0	0.227	89.738	3	8	Target	AvoidedLoss	True
90.738	0.3	Lose2	1.0	0.004	Yes	3.035	-0.004	2.0	GoodResponse	0	0.227	n/a	3	8	ButtonPress	AvoidedLoss	True
90.845	0.38	Lose2	1.0	n/a	Yes	3.035	n/a	n/a	GoodResponse	0	n/a	n/a	3	8	Blank	AvoidedLoss	True
91.213	1.45	Lose2	1.0	n/a	Yes	3.035	n/a	5.0	GoodResponse	0	0.029	90.242	3	8	Feedback	AvoidedLoss	True
92.667	3.035	Lose2	1.0	n/a	Yes	3.035	n/a	n/a	GoodResponse	0	0.0	n/a	3	8	ISIslide	AvoidedLoss	True
95.726	0.25	Lose2	0.9	0.0	No	3.124	0.026	n/a	NoResponse	-1	n/a	n/a	2	9	Cue	Loss	True
95.977	3.95	Lose2	0.9	0.0	No	3.124	0.001	n/a	NoResponse	-1	n/a	n/a	2	9	Fixation	Loss	True
99.922	0.31	Lose2	0.9	0.004	No	3.124	-0.004	2.0	NoResponse	-1	0.396	99.318	2	9	Target	Loss	True
100.24	0.39	Lose2	0.9	n/a	No	3.124	n/a	n/a	NoResponse	-1	n/a	n/a	2	9	Blank	Loss	True
100.318	0.3	Lose2	0.9	0.004	No	3.124	-0.004	2.0	NoResponse	-1	0.396	n/a	2	9	ButtonPress	Loss	True
100.624	1.45	Lose2	0.9	n/a	No	3.124	n/a	5.0	NoResponse	-1	0.032	99.656	2	9	Feedback	Loss	True
102.079	3.124	Lose2	0.9	n/a	No	3.124	n/a	n/a	NoResponse	-1	0.0	n/a	2	9	ISIslide	Loss	True
105.221	0.25	Control	0.9091	0.0	Yes	3.279	0.021	n/a	GoodResponse	0	n/a	n/a	2	10	Cue	Neutral	True
105.472	4.0	Control	0.9091	0.0	Yes	3.279	0.001	n/a	GoodResponse	0	n/a	n/a	2	10	Fixation	Neutral	True
109.467	0.3	Control	0.9091	0.004	Yes	3.279	-0.004	2.0	GoodResponse	0	0.184	108.651	2	10	Target	Neutral	True
109.651	0.3	Control	0.9091	0.004	Yes	3.279	-0.004	2.0	GoodResponse	0	0.184	n/a	2	10	ButtonPress	Neutral	True
109.768	0.4	Control	0.9091	n/a	Yes	3.279	n/a	n/a	GoodResponse	0	n/a	n/a	2	10	Blank	Neutral	True
110.169	1.45	Control	0.9091	n/a	Yes	3.279	n/a	5.0	GoodResponse	0	0.048	109.217	2	10	Feedback	Neutral	True
111.624	3.279	Control	0.9091	n/a	Yes	3.279	n/a	n/a	GoodResponse	0	0.0	n/a	2	10	ISIslide	Neutral	True
114.917	0.25	Lose2	0.9167000000000001	0.0	Yes	2.733	0.017	n/a	GoodResponse	0	n/a	n/a	2	11	Cue	AvoidedLoss	True
115.168	4.05	Lose2	0.9167000000000001	0.0	Yes	2.733	0.001	n/a	GoodResponse	0	n/a	n/a	2	11	Fixation	AvoidedLoss	True
119.213	0.29	Lose2	0.9167000000000001	0.004	Yes	2.733	-0.004	2.0	GoodResponse	0	0.196	118.409	2	11	Target	AvoidedLoss	True
119.409	0.3	Lose2	0.9167000000000001	0.004	Yes	2.733	-0.004	2.0	GoodResponse	0	0.196	n/a	2	11	ButtonPress	AvoidedLoss	True
119.514	0.41	Lose2	0.9167000000000001	n/a	Yes	2.733	n/a	n/a	GoodResponse	0	n/a	n/a	2	11	Blank	AvoidedLoss	True
119.915	1.45	Lose2	0.9167000000000001	n/a	Yes	2.733	n/a	5.0	GoodResponse	0	0.01	118.925	2	11	Feedback	AvoidedLoss	True
121.369	2.733	Lose2	0.9167000000000001	n/a	Yes	2.733	n/a	n/a	GoodResponse	0	0.0	n/a	2	11	ISIslide	AvoidedLoss	True
124.128	0.25	Control	0.9231	0.0	Yes	2.972	0.028	n/a	GoodResponse	0	n/a	n/a	2	12	Cue	Neutral	True
124.378	3.9	Control	0.9231	0.0	Yes	2.972	0.0	n/a	GoodResponse	0	n/a	n/a	2	12	Fixation	Neutral	True
128.29	0.28	Control	0.9231	0.0	Yes	2.972	0.012	2.0	GoodResponse	0	0.258	127.548	2	12	Target	Neutral	True
128.548	0.3	Control	0.9231	0.0	Yes	2.972	0.012	2.0	GoodResponse	0	0.258	n/a	2	12	ButtonPress	Neutral	True
128.558	0.42	Control	0.9231	n/a	Yes	2.972	n/a	n/a	GoodResponse	0	n/a	n/a	2	12	Blank	Neutral	True
128.975	1.45	Control	0.9231	n/a	Yes	2.972	n/a	5.0	GoodResponse	0	0.022	127.997	2	12	Feedback	Neutral	True
130.43	2.972	Control	0.9231	n/a	Yes	2.972	n/a	n/a	GoodResponse	0	0.0	n/a	2	12	ISIslide	Neutral	True
133.422	0.25	Control	0.8571	0.0	No	2.778	0.022	n/a	NoResponse	0	n/a	n/a	2	13	Cue	Neutral	True
133.673	4.0	Control	0.8571	0.0	No	2.778	0.001	n/a	NoResponse	0	n/a	n/a	2	13	Fixation	Neutral	True
137.668	0.27	Control	0.8571	0.004	No	2.778	-0.004	2.0	NoResponse	0	0.314	136.982	2	13	Target	Neutral	True
137.952	0.43	Control	0.8571	n/a	No	2.778	n/a	n/a	NoResponse	0	n/a	n/a	2	13	Blank	Neutral	True
137.982	0.3	Control	0.8571	0.004	No	2.778	-0.004	2.0	NoResponse	0	0.314	n/a	2	13	ButtonPress	Neutral	True
138.37	1.45	Control	0.8571	n/a	No	2.778	n/a	5.0	NoResponse	0	0.042	137.412	2	13	Feedback	Neutral	True
139.824	2.778	Control	0.8571	n/a	No	2.778	n/a	n/a	NoResponse	0	0.0	n/a	2	13	ISIslide	Neutral	True
142.616	0.25	Win2	0.8667	0.0	Yes	2.684	0.016	n/a	GoodResponse	1	n/a	n/a	3	14	Cue	Win	True
142.867	4.1	Win2	0.8667	0.0	Yes	2.684	0.001	n/a	GoodResponse	1	n/a	n/a	3	14	Fixation	Win	True
146.962	0.26	Win2	0.8667	0.004	Yes	2.684	-0.004	2.0	GoodResponse	1	0.232	146.194	3	14	Target	Win	True
147.194	0.3	Win2	0.8667	0.004	Yes	2.684	-0.004	2.0	GoodResponse	1	0.232	n/a	3	14	ButtonPress	Win	True
147.23	0.44	Win2	0.8667	n/a	Yes	2.684	n/a	n/a	GoodResponse	1	n/a	n/a	3	14	Blank	Win	True
147.665	1.45	Win2	0.8667	n/a	Yes	2.684	n/a	5.0	GoodResponse	1	0.015	146.68	3	14	Feedback	Win	True
149.119	2.684	Win2	0.8667	n/a	Yes	2.684	n/a	n/a	GoodResponse	1	0.0	n/a	3	14	ISIslide	Win	True
151.827	0.25	Control	0.875	0.0	Yes	2.973	0.027	n/a	GoodResponse	0	n/a	n/a	3	15	Cue	Neutral	True
152.078	4.0	Control	0.875	0.0	Yes	2.973	0.001	n/a	GoodResponse	0	n/a	n/a	3	15	Fixation	Neutral	True
156.073	0.25	Control	0.875	0.004	Yes	2.973	-0.004	2.0	GoodResponse	0	0.227	155.3	3	15	Target	Neutral	True
156.3	0.3	Control	0.875	0.004	Yes	2.973	-0.004	2.0	GoodResponse	0	0.227	n/a	3	15	ButtonPress	Neutral	True
156.324	0.45	Control	0.875	n/a	Yes	2.973	n/a	n/a	GoodResponse	0	n/a	n/a	3	15	Blank	Neutral	True
156.775	1.45	Control	0.875	n/a	Yes	2.973	n/a	5.0	GoodResponse	0	0.026	155.801	3	15	Feedback	Neutral	True
158.229	2.973	Control	0.875	n/a	Yes	2.973	n/a	n/a	GoodResponse	0	0.0	n/a	3	15	ISIslide	Neutral	True
161.222	0.25	Win2	0.8234999999999999	0.0	No	2.878	0.022	n/a	NoResponse	0	n/a	n/a	3	16	Cue	MissedWin	True
161.472	4.0	Win2	0.8234999999999999	0.0	No	2.878	0.0	n/a	NoResponse	0	n/a	n/a	3	16	Fixation	MissedWin	True
165.468	0.24	Win2	0.8234999999999999	0.004	No	2.878	-0.004	2.0	NoResponse	0	0.264	164.732	3	16	Target	MissedWin	True
165.718	0.46	Win2	0.8234999999999999	n/a	No	2.878	n/a	n/a	NoResponse	0	n/a	n/a	3	16	Blank	MissedWin	True
165.732	0.3	Win2	0.8234999999999999	0.004	No	2.878	-0.004	2.0	NoResponse	0	0.264	n/a	3	16	ButtonPress	MissedWin	True
166.17	1.45	Win2	0.8234999999999999	n/a	No	2.878	n/a	5.0	NoResponse	0	0.046	165.216	3	16	Feedback	MissedWin	True
167.624	2.878	Win2	0.8234999999999999	n/a	No	2.878	n/a	n/a	NoResponse	0	0.0	n/a	3	16	ISIslide	MissedWin	True
170.516	0.25	Lose2	0.8332999999999999	0.0	Yes	2.734	0.016	n/a	GoodResponse	0	n/a	n/a	3	17	Cue	AvoidedLoss	True
170.767	3.95	Lose2	0.8332999999999999	0.0	Yes	2.734	0.001	n/a	GoodResponse	0	n/a	n/a	3	17	Fixation	AvoidedLoss	True
174.712	0.23	Lose2	0.8332999999999999	0.004	Yes	2.734	-0.004	2.0	GoodResponse	0	0.192	173.904	3	17	Target	AvoidedLoss	True
174.904	0.3	Lose2	0.8332999999999999	0.004	Yes	2.734	-0.004	2.0	GoodResponse	0	0.192	n/a	3	17	ButtonPress	AvoidedLoss	True
174.946	0.47	Lose2	0.8332999999999999	n/a	Yes	2.734	n/a	n/a	GoodResponse	0	n/a	n/a	3	17	Blank	AvoidedLoss	True
175.414	1.45	Lose2	0.8332999999999999	n/a	Yes	2.734	n/a	5.0	GoodResponse	0	0.022	174.436	3	17	Feedback	AvoidedLoss	True
176.868	2.734	Lose2	0.8332999999999999	n/a	Yes	2.734	n/a	n/a	GoodResponse	0	0.0	n/a	3	17	ISIslide	AvoidedLoss	True
179.627	0.25	Lose2	0.7895	0.0	No	2.723	0.027	n/a	PrematurePress	-1	n/a	n/a	2	18	Cue	Loss	True
179.877	4.05	Lose2	0.7895	0.0	No	2.723	0.0	n/a	PrematurePress	-1	n/a	n/a	2	18	Fixation	Loss	True
183.923	0.22	Lose2	0.7895	0.004	No	2.723	-0.004	2.0	PrematurePress	-1	0.022	182.945	2	18	Target	Loss	True
183.945	0.3	Lose2	0.7895	0.004	No	2.723	-0.004	2.0	PrematurePress	-1	0.022	n/a	2	18	ButtonPress	Loss	True
184.157	0.48	Lose2	0.7895	n/a	No	2.723	n/a	n/a	PrematurePress	-1	n/a	n/a	2	18	Blank	Loss	True
184.625	1.45	Lose2	0.7895	n/a	No	2.723	n/a	5.0	PrematurePress	-1	0.03	183.655	2	18	Feedback	Loss	True
186.079	2.723	Lose2	0.7895	n/a	No	2.723	n/a	n/a	PrematurePress	-1	0.0	n/a	2	18	ISIslide	Loss	True
188.821	0.25	Control	0.75	0.0	No	2.929	0.021	n/a	NoResponse	0	n/a	n/a	2	19	Cue	Neutral	True
189.071	3.95	Control	0.75	0.0	No	2.929	0.0	n/a	NoResponse	0	n/a	n/a	2	19	Fixation	Neutral	True
193.016	0.21	Control	0.75	0.005	No	2.929	-0.005	2.0	NoResponse	0	0.288	192.304	2	19	Target	Neutral	True
193.234	0.49	Control	0.75	n/a	No	2.929	n/a	n/a	NoResponse	0	n/a	n/a	2	19	Blank	Neutral	True
193.304	0.3	Control	0.75	0.005	No	2.929	-0.005	2.0	NoResponse	0	0.288	n/a	2	19	ButtonPress	Neutral	True
193.719	1.45	Control	0.75	n/a	No	2.929	n/a	5.0	NoResponse	0	0.009	192.728	2	19	Feedback	Neutral	True
195.173	2.929	Control	0.75	n/a	No	2.929	n/a	n/a	NoResponse	0	0.0	n/a	2	19	ISIslide	Neutral	True
198.115	0.25	Control	0.7143	0.0	No	2.635	0.015	n/a	NoResponse	0	n/a	n/a	2	20	Cue	Neutral	True
198.366	4.05	Control	0.7143	0.0	No	2.635	0.001	n/a	NoResponse	0	n/a	n/a	2	20	Fixation	Neutral	True
202.411	0.2	Control	0.7143	0.004	No	2.635	-0.004	2.0	NoResponse	0	0.337	201.748	2	20	Target	Neutral	True
202.612	0.5	Control	0.7143	n/a	No	2.635	n/a	n/a	NoResponse	0	n/a	n/a	2	20	Blank	Neutral	True
202.748	0.3	Control	0.7143	0.004	No	2.635	-0.004	2.0	NoResponse	0	0.337	n/a	2	20	ButtonPress	Neutral	True
203.113	1.45	Control	0.7143	n/a	No	2.635	n/a	5.0	NoResponse	0	0.029	202.142	2	20	Feedback	Neutral	True
204.568	2.635	Control	0.7143	n/a	No	2.635	n/a	n/a	NoResponse	0	0.0	n/a	2	20	ISIslide	Neutral	True
207.226	0.25	Control	0.6818000000000001	0.0	No	2.774	0.026	n/a	NoResponse	0	n/a	n/a	2	21	Cue	Neutral	True
207.476	4.1	Control	0.6818000000000001	0.0	No	2.774	0.0	n/a	NoResponse	0	n/a	n/a	2	21	Fixation	Neutral	True
211.572	0.19	Control	0.6818000000000001	0.004	No	2.774	-0.004	2.0	NoResponse	0	0.232	210.804	2	21	Target	Neutral	True
211.772	0.51	Control	0.6818000000000001	n/a	No	2.774	n/a	n/a	NoResponse	0	n/a	n/a	2	21	Blank	Neutral	True
211.804	0.3	Control	0.6818000000000001	0.004	No	2.774	-0.004	2.0	NoResponse	0	0.232	n/a	2	21	ButtonPress	Neutral	True
212.274	1.45	Control	0.6818000000000001	n/a	No	2.774	n/a	5.0	NoResponse	0	0.039	211.313	2	21	Feedback	Neutral	True
213.728	2.774	Control	0.6818000000000001	n/a	No	2.774	n/a	n/a	NoResponse	0	0.0	n/a	2	21	ISIslide	Neutral	True
216.52	0.25	Control	0.6522	0.0	No	2.78	0.02	n/a	NoResponse	0	n/a	n/a	2	22	Cue	Neutral	True
216.771	4.0	Control	0.6522	0.0	No	2.78	0.001	n/a	NoResponse	0	n/a	n/a	2	22	Fixation	Neutral	True
220.766	0.18	Control	0.6522	0.004	No	2.78	-0.004	2.0	NoResponse	0	0.316	220.082	2	22	Target	Neutral	True
220.95	0.52	Control	0.6522	n/a	No	2.78	n/a	n/a	NoResponse	0	n/a	n/a	2	22	Blank	Neutral	True
221.082	0.3	Control	0.6522	0.004	No	2.78	-0.004	2.0	NoResponse	0	0.316	n/a	2	22	ButtonPress	Neutral	True
221.468	1.45	Control	0.6522	n/a	No	2.78	n/a	5.0	NoResponse	0	0.016	220.484	2	22	Feedback	Neutral	True
222.922	2.78	Control	0.6522	n/a	No	2.78	n/a	2.0	NoResponse	0	0.88	n/a	2	22	ISIslide	Neutral	True
225.697	0.25	Control	0.625	0.0	No	2.803	-0.003	n/a	NoResponse	0	n/a	n/a	2	23	Cue	Neutral	False
225.948	3.9	Control	0.625	0.0	No	2.803	0.001	2.0	NoResponse	0	1.388	226.336	2	23	Fixation	Neutral	False
227.336	0.3	Control	0.625	0.0	No	2.803	0.001	2.0	NoResponse	0	1.388	n/a	2	23	ButtonPress	Neutral	False
229.843	0.19	Control	0.625	0.004	No	2.803	-0.004	2.0	NoResponse	0	0.232	229.075	2	23	Target	Neutral	False
230.044	0.51	Control	0.625	n/a	No	2.803	n/a	n/a	NoResponse	0	n/a	n/a	2	23	Blank	Neutral	False
230.075	0.3	Control	0.625	0.004	No	2.803	-0.004	2.0	NoResponse	0	0.232	n/a	2	23	ButtonPress	Neutral	False
230.545	1.45	Control	0.625	n/a	No	2.803	n/a	5.0	NoResponse	0	0.011	229.556	2	23	Feedback	Neutral	False
231.999	2.803	Control	0.625	n/a	No	2.803	n/a	n/a	NoResponse	0	0.0	n/a	2	23	ISIslide	Neutral	False
234.825	0.25	Win2	0.6	0.0	No	3.125	0.025	n/a	NoResponse	0	n/a	n/a	2	24	Cue	MissedWin	True
235.075	3.95	Win2	0.6	0.0	No	3.125	0.0	n/a	NoResponse	0	n/a	n/a	2	24	Fixation	MissedWin	True
239.037	0.2	Win2	0.6	0.0	No	3.125	0.012	2.0	NoResponse	0	0.256	238.293	2	24	Target	MissedWin	True
239.221	0.5	Win2	0.6	n/a	No	3.125	n/a	n/a	NoResponse	0	n/a	n/a	2	24	Blank	MissedWin	True
239.293	0.3	Win2	0.6	0.0	No	3.125	0.012	2.0	NoResponse	0	0.256	n/a	2	24	ButtonPress	MissedWin	True
239.722	1.45	Win2	0.6	n/a	No	3.125	n/a	5.0	NoResponse	0	0.005	238.727	2	24	Feedback	MissedWin	True
241.177	3.125	Win2	0.6	n/a	No	3.125	n/a	n/a	NoResponse	0	0.0	n/a	2	24	ISIslide	MissedWin	True
244.32	0.25	Win2	0.6154	0.0	Yes	3.08	0.02	n/a	GoodResponse	1	n/a	n/a	3	25	Cue	Win	True
244.57	4.0	Win2	0.6154	0.0	Yes	3.08	0.0	n/a	GoodResponse	1	n/a	n/a	3	25	Fixation	Win	True
248.566	0.21	Win2	0.6154	0.004	Yes	3.08	-0.004	2.0	GoodResponse	1	0.197	247.763	3	25	Target	Win	True
248.763	0.3	Win2	0.6154	0.004	Yes	3.08	-0.004	2.0	GoodResponse	1	0.197	n/a	3	25	ButtonPress	Win	True
248.783	0.49	Win2	0.6154	n/a	Yes	3.08	n/a	n/a	GoodResponse	1	n/a	n/a	3	25	Blank	Win	True
249.268	1.45	Win2	0.6154	n/a	Yes	3.08	n/a	5.0	GoodResponse	1	0.02	248.288	3	25	Feedback	Win	True
250.722	3.08	Win2	0.6154	n/a	Yes	3.08	n/a	n/a	GoodResponse	1	0.0	n/a	3	25	ISIslide	Win	True
253.815	0.25	Win2	0.6296	0.0	Yes	2.935	0.015	n/a	GoodResponse	1	n/a	n/a	4	26	Cue	Win	True
254.065	3.95	Win2	0.6296	0.0	Yes	2.935	0.0	n/a	GoodResponse	1	n/a	n/a	4	26	Fixation	Win	True
258.027	0.22	Win2	0.6296	0.0	Yes	2.935	0.012	2.0	GoodResponse	1	0.186	257.213	4	26	Target	Win	True
258.213	0.3	Win2	0.6296	0.0	Yes	2.935	0.012	2.0	GoodResponse	1	0.186	n/a	4	26	ButtonPress	Win	True
258.244	0.48	Win2	0.6296	n/a	Yes	2.935	n/a	n/a	GoodResponse	1	n/a	n/a	4	26	Blank	Win	True
258.712	1.45	Win2	0.6296	n/a	Yes	2.935	n/a	5.0	GoodResponse	1	0.039	257.751	4	26	Feedback	Win	True
260.167	2.935	Win2	0.6296	n/a	Yes	2.935	n/a	n/a	GoodResponse	1	0.0	n/a	4	26	ISIslide	Win	True
263.126	0.25	Lose2	0.6071	0.0	No	2.824	0.026	n/a	NoResponse	-1	n/a	n/a	3	27	Cue	Loss	True
263.376	4.05	Lose2	0.6071	0.0	No	2.824	0.0	n/a	NoResponse	-1	n/a	n/a	3	27	Fixation	Loss	True
267.422	0.23	Lose2	0.6071	0.004	No	2.824	-0.004	2.0	NoResponse	-1	0.253	266.675	3	27	Target	Loss	True
267.656	0.47	Lose2	0.6071	n/a	No	2.824	n/a	n/a	NoResponse	-1	n/a	n/a	3	27	Blank	Loss	True
267.675	0.3	Lose2	0.6071	0.004	No	2.824	-0.004	2.0	NoResponse	-1	0.253	n/a	3	27	ButtonPress	Loss	True
268.124	1.45	Lose2	0.6071	n/a	No	2.824	n/a	5.0	NoResponse	-1	0.042	267.166	3	27	Feedback	Loss	True
269.578	2.824	Lose2	0.6071	n/a	No	2.824	n/a	n/a	NoResponse	-1	0.0	n/a	3	27	ISIslide	Loss	True
272.42	0.25	Control	0.6207	0.0	Yes	2.83	0.02	n/a	GoodResponse	0	n/a	n/a	3	28	Cue	Neutral	True
272.671	4.05	Control	0.6207	0.0	Yes	2.83	0.001	n/a	GoodResponse	0	n/a	n/a	3	28	Fixation	Neutral	True
276.716	0.24	Control	0.6207	0.004	Yes	2.83	-0.004	2.0	GoodResponse	0	0.166	275.882	3	28	Target	Neutral	True
276.882	0.3	Control	0.6207	0.004	Yes	2.83	-0.004	2.0	GoodResponse	0	0.166	n/a	3	28	ButtonPress	Neutral	True
276.967	0.46	Control	0.6207	n/a	Yes	2.83	n/a	n/a	GoodResponse	0	n/a	n/a	3	28	Blank	Neutral	True
277.418	1.45	Control	0.6207	n/a	Yes	2.83	n/a	5.0	GoodResponse	0	0.016	276.434	3	28	Feedback	Neutral	True
278.873	2.83	Control	0.6207	n/a	Yes	2.83	n/a	n/a	GoodResponse	0	0.0	n/a	3	28	ISIslide	Neutral	True
281.714	0.25	Lose2	0.6333	0.0	Yes	2.836	0.014	n/a	GoodResponse	0	n/a	n/a	3	29	Cue	AvoidedLoss	True
281.965	3.95	Lose2	0.6333	0.0	Yes	2.836	0.001	n/a	GoodResponse	0	n/a	n/a	3	29	Fixation	AvoidedLoss	True
285.91	0.25	Lose2	0.6333	0.004	Yes	2.836	-0.004	2.0	GoodResponse	0	0.225	285.135	3	29	Target	AvoidedLoss	True
286.135	0.3	Lose2	0.6333	0.004	Yes	2.836	-0.004	2.0	GoodResponse	0	0.225	n/a	3	29	ButtonPress	AvoidedLoss	True
286.161	0.45	Lose2	0.6333	n/a	Yes	2.836	n/a	n/a	GoodResponse	0	n/a	n/a	3	29	Blank	AvoidedLoss	True
286.612	1.45	Lose2	0.6333	n/a	Yes	2.836	n/a	5.0	GoodResponse	0	0.042	285.654	3	29	Feedback	AvoidedLoss	True
288.067	2.836	Lose2	0.6333	n/a	Yes	2.836	n/a	n/a	GoodResponse	0	0.0	n/a	3	29	ISIslide	AvoidedLoss	True
290.925	0.25	Win2	0.6452	0.0	Yes	2.775	0.025	n/a	GoodResponse	1	n/a	n/a	4	30	Cue	Win	True
291.176	3.9	Win2	0.6452	0.0	Yes	2.775	0.001	n/a	GoodResponse	1	n/a	n/a	4	30	Fixation	Win	True
295.071	0.26	Win2	0.6452	0.004	Yes	2.775	-0.004	2.0	GoodResponse	1	0.227	294.298	4	30	Target	Win	True
295.298	0.3	Win2	0.6452	0.004	Yes	2.775	-0.004	2.0	GoodResponse	1	0.227	n/a	4	30	ButtonPress	Win	True
295.338	0.44	Win2	0.6452	n/a	Yes	2.775	n/a	n/a	GoodResponse	1	n/a	n/a	4	30	Blank	Win	True
295.773	1.45	Win2	0.6452	n/a	Yes	2.775	n/a	5.0	GoodResponse	1	0.004	294.777	4	30	Feedback	Win	True
297.227	2.775	Win2	0.6452	n/a	Yes	2.775	n/a	n/a	GoodResponse	1	0.0	n/a	4	30	ISIslide	Win	True
300.019	0.25	Lose2	0.6562	0.0	Yes	2.831	0.019	n/a	GoodResponse	0	n/a	n/a	4	31	Cue	AvoidedLoss	True
300.27	4.05	Lose2	0.6562	0.0	Yes	2.831	0.001	n/a	GoodResponse	0	n/a	n/a	4	31	Fixation	AvoidedLoss	True
304.315	0.27	Lose2	0.6562	0.004	Yes	2.831	-0.004	2.0	GoodResponse	0	0.215	303.53	4	31	Target	AvoidedLoss	True
304.53	0.3	Lose2	0.6562	0.004	Yes	2.831	-0.004	2.0	GoodResponse	0	0.215	n/a	4	31	ButtonPress	AvoidedLoss	True
304.599	0.43	Lose2	0.6562	n/a	Yes	2.831	n/a	n/a	GoodResponse	0	n/a	n/a	4	31	Blank	AvoidedLoss	True
305.017	1.45	Lose2	0.6562	n/a	Yes	2.831	n/a	5.0	GoodResponse	0	0.026	304.043	4	31	Feedback	AvoidedLoss	True
306.472	2.831	Lose2	0.6562	n/a	Yes	2.831	n/a	n/a	GoodResponse	0	0.0	n/a	4	31	ISIslide	AvoidedLoss	True
309.313	0.25	Lose2	0.6364	0.001	No	2.637	0.013	n/a	LatePress	-1	n/a	n/a	3	32	Cue	Loss	True
309.564	4.15	Lose2	0.6364	0.0	No	2.637	0.001	n/a	LatePress	-1	n/a	n/a	3	32	Fixation	Loss	True
313.71	0.27	Lose2	0.6364	0.003	No	2.637	-0.003	2.0	LatePress	-1	0.277	312.987	3	32	Target	Loss	True
313.987	0.3	Lose2	0.6364	0.003	No	2.637	-0.003	2.0	LatePress	-1	0.277	n/a	3	32	ButtonPress	Loss	True
313.994	0.43	Lose2	0.6364	n/a	No	2.637	n/a	n/a	LatePress	-1	n/a	n/a	3	32	Blank	Loss	True
314.412	1.45	Lose2	0.6364	n/a	No	2.637	n/a	5.0	LatePress	-1	0.046	313.458	3	32	Feedback	Loss	True
315.866	2.637	Lose2	0.6364	n/a	No	2.637	n/a	n/a	LatePress	-1	0.0	n/a	3	32	ISIslide	Loss	True
318.524	0.25	Win2	0.6470999999999999	0.0	Yes	2.676	0.024	n/a	GoodResponse	1	n/a	n/a	4	33	Cue	Win	True
318.775	4.0	Win2	0.6470999999999999	0.0	Yes	2.676	0.001	n/a	GoodResponse	1	n/a	n/a	4	33	Fixation	Win	True
322.77	0.28	Win2	0.6470999999999999	0.004	Yes	2.676	-0.004	2.0	GoodResponse	1	0.231	322.001	4	33	Target	Win	True
323.001	0.3	Win2	0.6470999999999999	0.004	Yes	2.676	-0.004	2.0	GoodResponse	1	0.231	n/a	4	33	ButtonPress	Win	True
323.054	0.42	Win2	0.6470999999999999	n/a	Yes	2.676	n/a	n/a	GoodResponse	1	n/a	n/a	4	33	Blank	Win	True
323.472	1.45	Win2	0.6470999999999999	n/a	Yes	2.676	n/a	5.0	GoodResponse	1	0.009	322.481	4	33	Feedback	Win	True
324.927	2.676	Win2	0.6470999999999999	n/a	Yes	2.676	n/a	n/a	GoodResponse	1	0.0	n/a	4	33	ISIslide	Win	True
327.618	0.25	Lose2	0.6570999999999999	0.0	Yes	2.632	0.018	n/a	GoodResponse	0	n/a	n/a	4	34	Cue	AvoidedLoss	False
327.869	4.05	Lose2	0.6570999999999999	0.0	Yes	2.632	0.001	2.0	GoodResponse	0	0.546	327.415	4	34	Fixation	AvoidedLoss	False
328.415	0.3	Lose2	0.6570999999999999	0.0	Yes	2.632	0.001	2.0	GoodResponse	0	0.546	n/a	4	34	ButtonPress	AvoidedLoss	False
331.914	0.29	Lose2	0.6570999999999999	0.004	Yes	2.632	-0.004	2.0	GoodResponse	0	0.241	331.155	4	34	Target	AvoidedLoss	False
332.155	0.3	Lose2	0.6570999999999999	0.004	Yes	2.632	-0.004	2.0	GoodResponse	0	0.241	n/a	4	34	ButtonPress	AvoidedLoss	False
332.215	0.41	Lose2	0.6570999999999999	n/a	Yes	2.632	n/a	n/a	GoodResponse	0	n/a	n/a	4	34	Blank	AvoidedLoss	False
332.616	1.45	Lose2	0.6570999999999999	n/a	Yes	2.632	n/a	5.0	GoodResponse	0	0.036	331.652	4	34	Feedback	AvoidedLoss	False
334.071	2.632	Lose2	0.6570999999999999	n/a	Yes	2.632	n/a	n/a	GoodResponse	0	0.0	n/a	4	34	ISIslide	AvoidedLoss	False
336.729	0.25	Lose2	0.6389	0.0	No	2.671	0.029	n/a	NoResponse	-1	n/a	n/a	3	35	Cue	Loss	True
336.979	4.0	Lose2	0.6389	0.0	No	2.671	0.0	n/a	NoResponse	-1	n/a	n/a	3	35	Fixation	Loss	True
340.975	0.29	Lose2	0.6389	0.004	No	2.671	-0.004	2.0	NoResponse	-1	0.341	340.316	3	35	Target	Loss	True
341.275	0.41	Lose2	0.6389	n/a	No	2.671	n/a	n/a	NoResponse	-1	n/a	n/a	3	35	Blank	Loss	True
341.316	0.3	Lose2	0.6389	0.004	No	2.671	-0.004	2.0	NoResponse	-1	0.341	n/a	3	35	ButtonPress	Loss	True
341.677	1.45	Lose2	0.6389	n/a	No	2.671	n/a	5.0	NoResponse	-1	0.0	340.677	3	35	Feedback	Loss	True
343.131	2.671	Lose2	0.6389	n/a	No	2.671	n/a	n/a	NoResponse	-1	0.0	n/a	3	35	ISIslide	Loss	True
345.822	0.25	Control	0.6486	0.0	Yes	2.678	0.022	n/a	GoodResponse	0	n/a	n/a	3	36	Cue	Neutral	True
346.073	4.0	Control	0.6486	0.0	Yes	2.678	0.001	n/a	GoodResponse	0	n/a	n/a	3	36	Fixation	Neutral	True
350.068	0.3	Control	0.6486	0.004	Yes	2.678	-0.004	2.0	GoodResponse	0	0.199	349.267	3	36	Target	Neutral	True
350.267	0.3	Control	0.6486	0.004	Yes	2.678	-0.004	2.0	GoodResponse	0	0.199	n/a	3	36	ButtonPress	Neutral	True
350.369	0.4	Control	0.6486	n/a	Yes	2.678	n/a	n/a	GoodResponse	0	n/a	n/a	3	36	Blank	Neutral	True
350.77	1.45	Control	0.6486	n/a	Yes	2.678	n/a	5.0	GoodResponse	0	0.029	349.799	3	36	Feedback	Neutral	True
352.225	2.678	Control	0.6486	n/a	Yes	2.678	n/a	n/a	GoodResponse	0	0.0	n/a	3	36	ISIslide	Neutral	True
354.916	0.25	Win2	0.6579	0.0	Yes	2.884	0.016	n/a	GoodResponse	1	n/a	n/a	4	37	Cue	Win	True
355.167	4.0	Win2	0.6579	0.0	Yes	2.884	0.001	n/a	GoodResponse	1	n/a	n/a	4	37	Fixation	Win	True
359.162	0.31	Win2	0.6579	0.004	Yes	2.884	-0.004	2.0	GoodResponse	1	0.183	358.345	4	37	Target	Win	True
359.345	0.3	Win2	0.6579	0.004	Yes	2.884	-0.004	2.0	GoodResponse	1	0.183	n/a	4	37	ButtonPress	Win	True
359.48	0.39	Win2	0.6579	n/a	Yes	2.884	n/a	n/a	GoodResponse	1	n/a	n/a	4	37	Blank	Win	True
359.864	1.45	Win2	0.6579	n/a	Yes	2.884	n/a	5.0	GoodResponse	1	0.007	358.871	4	37	Feedback	Win	True
361.319	2.884	Win2	0.6579	n/a	Yes	2.884	n/a	n/a	GoodResponse	1	0.0	n/a	4	37	ISIslide	Win	True
364.227	0.25	Lose2	0.6667000000000001	0.0	Yes	2.823	0.027	n/a	GoodResponse	0	n/a	n/a	4	38	Cue	AvoidedLoss	True
364.478	3.95	Lose2	0.6667000000000001	0.0	Yes	2.823	0.001	n/a	GoodResponse	0	n/a	n/a	4	38	Fixation	AvoidedLoss	True
368.423	0.31	Lose2	0.6667000000000001	0.004	Yes	2.823	-0.004	2.0	GoodResponse	0	0.21	367.633	4	38	Target	AvoidedLoss	True
368.633	0.3	Lose2	0.6667000000000001	0.004	Yes	2.823	-0.004	2.0	GoodResponse	0	0.21	n/a	4	38	ButtonPress	AvoidedLoss	True
368.741	0.39	Lose2	0.6667000000000001	n/a	Yes	2.823	n/a	n/a	GoodResponse	0	n/a	n/a	4	38	Blank	AvoidedLoss	True
369.125	1.45	Lose2	0.6667000000000001	n/a	Yes	2.823	n/a	5.0	GoodResponse	0	0.014	368.139	4	38	Feedback	AvoidedLoss	True
370.58	2.823	Lose2	0.6667000000000001	n/a	Yes	2.823	n/a	n/a	GoodResponse	0	0.0	n/a	4	38	ISIslide	AvoidedLoss	True
373.421	0.25	Win2	0.675	0.0	Yes	2.979	0.021	n/a	GoodResponse	1	n/a	n/a	5	39	Cue	Win	True
373.672	4.1	Win2	0.675	0.0	Yes	2.979	0.001	n/a	GoodResponse	1	n/a	n/a	5	39	Fixation	Win	True
377.768	0.3	Win2	0.675	0.003	Yes	2.979	-0.003	2.0	GoodResponse	1	0.189	376.957	5	39	Target	Win	True
377.957	0.3	Win2	0.675	0.003	Yes	2.979	-0.003	2.0	GoodResponse	1	0.189	n/a	5	39	ButtonPress	Win	True
378.069	0.4	Win2	0.675	n/a	Yes	2.979	n/a	n/a	GoodResponse	1	n/a	n/a	5	39	Blank	Win	True
378.47	1.45	Win2	0.675	n/a	Yes	2.979	n/a	5.0	GoodResponse	1	0.035	377.505	5	39	Feedback	Win	True
379.924	2.979	Win2	0.675	n/a	Yes	2.979	n/a	n/a	GoodResponse	1	0.0	n/a	5	39	ISIslide	Win	True
382.916	0.25	Win2	0.6829000000000001	0.0	Yes	2.734	0.016	n/a	GoodResponse	1	n/a	n/a	6	40	Cue	Win	True
383.167	3.95	Win2	0.6829000000000001	0.0	Yes	2.734	0.001	n/a	GoodResponse	1	n/a	n/a	6	40	Fixation	Win	True
387.112	0.29	Win2	0.6829000000000001	0.004	Yes	2.734	-0.004	2.0	GoodResponse	1	0.219	386.331	6	40	Target	Win	True
387.331	0.3	Win2	0.6829000000000001	0.004	Yes	2.734	-0.004	2.0	GoodResponse	1	0.219	n/a	6	40	ButtonPress	Win	True
387.413	0.41	Win2	0.6829000000000001	n/a	Yes	2.734	n/a	n/a	GoodResponse	1	n/a	n/a	6	40	Blank	Win	True
387.814	1.45	Win2	0.6829000000000001	n/a	Yes	2.734	n/a	5.0	GoodResponse	1	0.008	386.822	6	40	Feedback	Win	True
389.269	2.734	Win2	0.6829000000000001	n/a	Yes	2.734	n/a	n/a	GoodResponse	1	0.0	n/a	6	40	ISIslide	Win	True
392.027	0.25	Win2	0.6905	0.0	Yes	2.773	0.027	n/a	GoodResponse	1	n/a	n/a	7	41	Cue	Win	True
392.278	3.9	Win2	0.6905	0.0	Yes	2.773	0.001	n/a	GoodResponse	1	n/a	n/a	7	41	Fixation	Win	True
396.173	0.28	Win2	0.6905	0.004	Yes	2.773	-0.004	2.0	GoodResponse	1	0.222	395.395	7	41	Target	Win	True
396.395	0.3	Win2	0.6905	0.004	Yes	2.773	-0.004	2.0	GoodResponse	1	0.222	n/a	7	41	ButtonPress	Win	True
396.457	0.42	Win2	0.6905	n/a	Yes	2.773	n/a	n/a	GoodResponse	1	n/a	n/a	7	41	Blank	Win	True
396.875	1.45	Win2	0.6905	n/a	Yes	2.773	n/a	5.0	GoodResponse	1	0.02	395.895	7	41	Feedback	Win	True
398.329	2.773	Win2	0.6905	n/a	Yes	2.773	n/a	n/a	GoodResponse	1	0.0	n/a	7	41	ISIslide	Win	True
401.121	0.25	Control	0.6744	0.0	No	2.929	0.021	n/a	NoResponse	0	n/a	n/a	7	42	Cue	Neutral	True
401.371	3.85	Control	0.6744	0.0	No	2.929	0.0	n/a	NoResponse	0	n/a	n/a	7	42	Fixation	Neutral	True
405.233	0.27	Control	0.6744	0.0	No	2.929	0.012	2.0	NoResponse	0	0.276	404.509	7	42	Target	Neutral	True
405.5	0.43	Control	0.6744	n/a	No	2.929	n/a	n/a	NoResponse	0	n/a	n/a	7	42	Blank	Neutral	True
405.509	0.3	Control	0.6744	0.0	No	2.929	0.012	2.0	NoResponse	0	0.276	n/a	7	42	ButtonPress	Neutral	True
405.918	1.45	Control	0.6744	n/a	No	2.929	n/a	5.0	NoResponse	0	0.001	404.919	7	42	Feedback	Neutral	True
407.373	2.929	Control	0.6744	n/a	No	2.929	n/a	n/a	NoResponse	0	0.0	n/a	7	42	ISIslide	Neutral	True
410.331	0.25	Win2	0.6818000000000001	0.001	Yes	3.169	0.031	n/a	GoodResponse	1	n/a	n/a	8	43	Cue	Win	True
410.582	4.0	Win2	0.6818000000000001	0.0	Yes	3.169	0.001	n/a	GoodResponse	1	n/a	n/a	8	43	Fixation	Win	True
414.577	0.26	Win2	0.6818000000000001	0.004	Yes	3.169	-0.004	2.0	GoodResponse	1	0.203	413.78	8	43	Target	Win	True
414.78	0.3	Win2	0.6818000000000001	0.004	Yes	3.169	-0.004	2.0	GoodResponse	1	0.203	n/a	8	43	ButtonPress	Win	True
414.845	0.44	Win2	0.6818000000000001	n/a	Yes	3.169	n/a	n/a	GoodResponse	1	n/a	n/a	8	43	Blank	Win	True
415.28	1.45	Win2	0.6818000000000001	n/a	Yes	3.169	n/a	5.0	GoodResponse	1	0.006	414.286	8	43	Feedback	Win	True
416.734	3.169	Win2	0.6818000000000001	n/a	Yes	3.169	n/a	n/a	GoodResponse	1	0.0	n/a	8	43	ISIslide	Win	True
419.927	0.25	Win2	0.6889	0.0	Yes	2.973	0.027	n/a	GoodResponse	1	n/a	n/a	9	44	Cue	Win	True
420.177	4.0	Win2	0.6889	0.001	Yes	2.973	0.0	n/a	GoodResponse	1	n/a	n/a	9	44	Fixation	Win	True
424.173	0.25	Win2	0.6889	0.004	Yes	2.973	-0.004	2.0	GoodResponse	1	0.17	423.343	9	44	Target	Win	True
424.343	0.3	Win2	0.6889	0.004	Yes	2.973	-0.004	2.0	GoodResponse	1	0.17	n/a	9	44	ButtonPress	Win	True
424.423	0.45	Win2	0.6889	n/a	Yes	2.973	n/a	n/a	GoodResponse	1	n/a	n/a	9	44	Blank	Win	True
424.875	1.45	Win2	0.6889	n/a	Yes	2.973	n/a	5.0	GoodResponse	1	0.019	423.894	9	44	Feedback	Win	True
426.329	2.973	Win2	0.6889	n/a	Yes	2.973	n/a	n/a	GoodResponse	1	0.0	n/a	9	44	ISIslide	Win	True
429.321	0.25	Control	0.6957	0.0	Yes	2.879	0.021	n/a	GoodResponse	0	n/a	n/a	9	45	Cue	Neutral	True
429.572	4.1	Control	0.6957	0.0	Yes	2.879	0.001	n/a	GoodResponse	0	n/a	n/a	9	45	Fixation	Neutral	True
433.668	0.24	Control	0.6957	0.003	Yes	2.879	-0.003	2.0	GoodResponse	0	0.204	432.872	9	45	Target	Neutral	True
433.872	0.3	Control	0.6957	0.003	Yes	2.879	-0.003	2.0	GoodResponse	0	0.204	n/a	9	45	ButtonPress	Neutral	True
433.918	0.46	Control	0.6957	n/a	Yes	2.879	n/a	n/a	GoodResponse	0	n/a	n/a	9	45	Blank	Neutral	True
434.37	1.45	Control	0.6957	n/a	Yes	2.879	n/a	5.0	GoodResponse	0	0.036	433.406	9	45	Feedback	Neutral	True
435.824	2.879	Control	0.6957	n/a	Yes	2.879	n/a	n/a	GoodResponse	0	0.0	n/a	9	45	ISIslide	Neutral	True
438.716	0.25	Lose2	0.6809000000000001	0.0	No	3.384	0.016	n/a	NoResponse	-1	n/a	n/a	8	46	Cue	Loss	True
438.967	4.0	Lose2	0.6809000000000001	0.0	No	3.384	0.001	n/a	NoResponse	-1	n/a	n/a	8	46	Fixation	Loss	True
442.962	0.23	Lose2	0.6809000000000001	0.004	No	3.384	-0.004	2.0	NoResponse	-1	0.246	442.208	8	46	Target	Loss	True
443.196	0.47	Lose2	0.6809000000000001	n/a	No	3.384	n/a	n/a	NoResponse	-1	n/a	n/a	8	46	Blank	Loss	True
443.208	0.3	Lose2	0.6809000000000001	0.004	No	3.384	-0.004	2.0	NoResponse	-1	0.246	n/a	8	46	ButtonPress	Loss	True
443.664	1.45	Lose2	0.6809000000000001	n/a	No	3.384	n/a	5.0	NoResponse	-1	0.011	442.675	8	46	Feedback	Loss	True
445.119	3.384	Lose2	0.6809000000000001	n/a	No	3.384	n/a	n/a	NoResponse	-1	0.0	n/a	8	46	ISIslide	Loss	True
448.529	0.25	Lose2	0.6875	0.0	Yes	2.671	0.029	n/a	GoodResponse	0	n/a	n/a	8	47	Cue	AvoidedLoss	True
448.779	4.0	Lose2	0.6875	0.001	Yes	2.671	0.0	n/a	GoodResponse	0	n/a	n/a	8	47	Fixation	AvoidedLoss	True
452.775	0.22	Lose2	0.6875	0.004	Yes	2.671	-0.004	2.0	GoodResponse	0	0.21	451.985	8	47	Target	AvoidedLoss	True
452.985	0.3	Lose2	0.6875	0.004	Yes	2.671	-0.004	2.0	GoodResponse	0	0.21	n/a	8	47	ButtonPress	AvoidedLoss	True
453.009	0.48	Lose2	0.6875	n/a	Yes	2.671	n/a	n/a	GoodResponse	0	n/a	n/a	8	47	Blank	AvoidedLoss	True
453.477	1.45	Lose2	0.6875	n/a	Yes	2.671	n/a	5.0	GoodResponse	0	0.007	452.484	8	47	Feedback	AvoidedLoss	True
454.931	2.671	Lose2	0.6875	n/a	Yes	2.671	n/a	n/a	GoodResponse	0	0.0	n/a	8	47	ISIslide	AvoidedLoss	True
457.622	0.25	Lose2	0.6939	0.001	Yes	3.028	0.022	n/a	GoodResponse	0	n/a	n/a	8	48	Cue	AvoidedLoss	True
457.873	3.95	Lose2	0.6939	0.0	Yes	3.028	0.001	n/a	GoodResponse	0	n/a	n/a	8	48	Fixation	AvoidedLoss	True
461.818	0.21	Lose2	0.6939	0.004	Yes	3.028	-0.004	2.0	GoodResponse	0	0.195	461.013	8	48	Target	AvoidedLoss	True
462.013	0.3	Lose2	0.6939	0.004	Yes	3.028	-0.004	2.0	GoodResponse	0	0.195	n/a	8	48	ButtonPress	AvoidedLoss	True
462.036	0.49	Lose2	0.6939	n/a	Yes	3.028	n/a	n/a	GoodResponse	0	n/a	n/a	8	48	Blank	AvoidedLoss	True
462.52	1.45	Lose2	0.6939	n/a	Yes	3.028	n/a	5.0	GoodResponse	0	0.032	461.552	8	48	Feedback	AvoidedLoss	True
463.975	3.028	Lose2	0.6939	n/a	Yes	3.028	n/a	n/a	GoodResponse	0	0.0	n/a	8	48	ISIslide	AvoidedLoss	True
467.017	0.25	Control	0.68	0.0	No	2.883	0.017	n/a	NoResponse	0	n/a	n/a	8	49	Cue	Neutral	True
467.268	4.0	Control	0.68	0.0	No	2.883	0.001	n/a	NoResponse	0	n/a	n/a	8	49	Fixation	Neutral	True
471.263	0.2	Control	0.68	0.004	No	2.883	-0.004	2.0	NoResponse	0	0.228	470.491	8	49	Target	Neutral	True
471.464	0.5	Control	0.68	n/a	No	2.883	n/a	n/a	NoResponse	0	n/a	n/a	8	49	Blank	Neutral	True
471.491	0.3	Control	0.68	0.004	No	2.883	-0.004	2.0	NoResponse	0	0.228	n/a	8	49	ButtonPress	Neutral	True
471.965	1.45	Control	0.68	n/a	No	2.883	n/a	5.0	NoResponse	0	0.002	470.967	8	49	Feedback	Neutral	True
473.42	2.883	Control	0.68	n/a	No	2.883	n/a	n/a	NoResponse	0	0.0	n/a	8	49	ISIslide	Neutral	True
476.328	0.25	Control	0.6667000000000001	0.0	No	2.772	0.028	n/a	NoResponse	0	n/a	n/a	8	50	Cue	Neutral	True
476.579	4.0	Control	0.6667000000000001	0.0	No	2.772	0.001	n/a	NoResponse	0	n/a	n/a	8	50	Fixation	Neutral	True
480.574	0.19	Control	0.6667000000000001	0.004	No	2.772	-0.004	2.0	NoResponse	0	0.231	479.805	8	50	Target	Neutral	True
480.775	0.51	Control	0.6667000000000001	n/a	No	2.772	n/a	n/a	NoResponse	0	n/a	n/a	8	50	Blank	Neutral	True
480.805	0.3	Control	0.6667000000000001	0.004	No	2.772	-0.004	2.0	NoResponse	0	0.231	n/a	8	50	ButtonPress	Neutral	True
481.276	1.45	Control	0.6667000000000001	n/a	No	2.772	n/a	5.0	NoResponse	0	0.008	480.284	8	50	Feedback	Neutral	True
482.731	2.772	Control	0.6667000000000001	n/a	No	2.772	n/a	n/a	NoResponse	0	0.0	n/a	8	50	ISIslide	Neutral	True
485.522	0.25	Control	0.6537999999999999	0.0	No	2.728	0.022	n/a	NoResponse	0	n/a	n/a	8	51	Cue	Neutral	True
485.773	3.95	Control	0.6537999999999999	0.0	No	2.728	0.001	n/a	NoResponse	0	n/a	n/a	8	51	Fixation	Neutral	True
489.718	0.18	Control	0.6537999999999999	0.004	No	2.728	-0.004	2.0	NoResponse	0	0.355	489.073	8	51	Target	Neutral	True
489.902	0.52	Control	0.6537999999999999	n/a	No	2.728	n/a	n/a	NoResponse	0	n/a	n/a	8	51	Blank	Neutral	True
490.073	0.3	Control	0.6537999999999999	0.004	No	2.728	-0.004	2.0	NoResponse	0	0.355	n/a	8	51	ButtonPress	Neutral	True
490.42	1.45	Control	0.6537999999999999	n/a	No	2.728	n/a	5.0	NoResponse	0	0.034	489.454	8	51	Feedback	Neutral	True
491.875	2.728	Control	0.6537999999999999	n/a	No	2.728	n/a	n/a	NoResponse	0	0.0	n/a	8	51	ISIslide	Neutral	True
494.616	0.25	Control	0.6415000000000001	0.0	No	2.634	0.016	n/a	NoResponse	0	n/a	n/a	8	52	Cue	Neutral	True
494.867	4.05	Control	0.6415000000000001	0.0	No	2.634	0.001	n/a	NoResponse	0	n/a	n/a	8	52	Fixation	Neutral	True
498.912	0.19	Control	0.6415000000000001	0.004	No	2.634	-0.004	2.0	NoResponse	0	0.21	498.122	8	52	Target	Neutral	True
499.113	0.51	Control	0.6415000000000001	n/a	No	2.634	n/a	n/a	NoResponse	0	n/a	n/a	8	52	Blank	Neutral	True
499.122	0.3	Control	0.6415000000000001	0.004	No	2.634	-0.004	2.0	NoResponse	0	0.21	n/a	8	52	ButtonPress	Neutral	True
499.614	1.45	Control	0.6415000000000001	n/a	No	2.634	n/a	5.0	NoResponse	0	0.011	498.625	8	52	Feedback	Neutral	True
501.069	2.634	Control	0.6415000000000001	n/a	No	2.634	n/a	n/a	NoResponse	0	0.0	n/a	8	52	ISIslide	Neutral	True
503.727	0.25	Win2	0.6481	0.0	Yes	2.923	0.027	n/a	GoodResponse	1	n/a	n/a	9	53	Cue	Win	True
503.977	4.05	Win2	0.6481	0.001	Yes	2.923	0.0	n/a	GoodResponse	1	n/a	n/a	9	53	Fixation	Win	True
508.023	0.2	Win2	0.6481	0.004	Yes	2.923	-0.004	2.0	GoodResponse	1	0.19	507.213	9	53	Target	Win	True
508.213	0.3	Win2	0.6481	0.004	Yes	2.923	-0.004	2.0	GoodResponse	1	0.19	n/a	9	53	ButtonPress	Win	True
508.223	0.5	Win2	0.6481	n/a	Yes	2.923	n/a	n/a	GoodResponse	1	n/a	n/a	9	53	Blank	Win	True
508.725	1.45	Win2	0.6481	n/a	Yes	2.923	n/a	5.0	GoodResponse	1	0.022	507.747	9	53	Feedback	Win	True
510.179	2.923	Win2	0.6481	n/a	Yes	2.923	n/a	n/a	GoodResponse	1	0.0	n/a	9	53	ISIslide	Win	True
513.121	0.25	Win2	0.6545000000000001	0.0	Yes	2.729	0.021	n/a	GoodResponse	1	n/a	n/a	10	54	Cue	Win	True
513.372	3.95	Win2	0.6545000000000001	0.0	Yes	2.729	0.001	n/a	GoodResponse	1	n/a	n/a	10	54	Fixation	Win	True
517.317	0.21	Win2	0.6545000000000001	0.004	Yes	2.729	-0.004	2.0	GoodResponse	1	0.188	516.505	10	54	Target	Win	True
517.505	0.3	Win2	0.6545000000000001	0.004	Yes	2.729	-0.004	2.0	GoodResponse	1	0.188	n/a	10	54	ButtonPress	Win	True
517.535	0.49	Win2	0.6545000000000001	n/a	Yes	2.729	n/a	n/a	GoodResponse	1	n/a	n/a	10	54	Blank	Win	True
518.019	1.45	Win2	0.6545000000000001	n/a	Yes	2.729	n/a	5.0	GoodResponse	1	0.045	517.064	10	54	Feedback	Win	True
519.474	2.729	Win2	0.6545000000000001	n/a	Yes	2.729	n/a	n/a	GoodResponse	1	0.0	n/a	10	54	ISIslide	Win	True
522.215	0.25	Control	0.6429	0.0	No	3.035	0.015	n/a	NoResponse	0	n/a	n/a	10	55	Cue	Neutral	True
522.466	3.95	Control	0.6429	0.0	No	3.035	0.001	n/a	NoResponse	0	n/a	n/a	10	55	Fixation	Neutral	True
526.411	0.22	Control	0.6429	0.004	No	3.035	-0.004	2.0	NoResponse	0	0.243	525.654	10	55	Target	Neutral	True
526.645	0.48	Control	0.6429	n/a	No	3.035	n/a	n/a	NoResponse	0	n/a	n/a	10	55	Blank	Neutral	True
526.654	0.3	Control	0.6429	0.004	No	3.035	-0.004	2.0	NoResponse	0	0.243	n/a	10	55	ButtonPress	Neutral	True
527.113	1.45	Control	0.6429	n/a	No	3.035	n/a	5.0	NoResponse	0	0.023	526.136	10	55	Feedback	Neutral	True
528.567	3.035	Control	0.6429	n/a	No	3.035	n/a	n/a	NoResponse	0	0.0	n/a	10	55	ISIslide	Neutral	True
531.627	0.25	Control	0.6491	0.0	Yes	2.823	0.027	n/a	GoodResponse	0	n/a	n/a	10	56	Cue	Neutral	True
531.877	3.95	Control	0.6491	0.0	Yes	2.823	0.0	n/a	GoodResponse	0	n/a	n/a	10	56	Fixation	Neutral	True
535.822	0.23	Control	0.6491	0.005	Yes	2.823	-0.005	2.0	GoodResponse	0	0.216	535.038	10	56	Target	Neutral	True
536.038	0.3	Control	0.6491	0.005	Yes	2.823	-0.005	2.0	GoodResponse	0	0.216	n/a	10	56	ButtonPress	Neutral	True
536.056	0.47	Control	0.6491	n/a	Yes	2.823	n/a	n/a	GoodResponse	0	n/a	n/a	10	56	Blank	Neutral	True
536.525	1.45	Control	0.6491	n/a	Yes	2.823	n/a	5.0	GoodResponse	0	0.026	535.551	10	56	Feedback	Neutral	True
537.979	2.823	Control	0.6491	n/a	Yes	2.823	n/a	n/a	GoodResponse	0	0.0	n/a	10	56	ISIslide	Neutral	True
540.821	0.25	Control	0.6552	0.0	Yes	3.479	0.021	n/a	GoodResponse	0	n/a	n/a	10	57	Cue	Neutral	True
541.071	4.0	Control	0.6552	0.0	Yes	3.479	0.0	n/a	GoodResponse	0	n/a	n/a	10	57	Fixation	Neutral	True
545.067	0.24	Control	0.6552	0.004	Yes	3.479	-0.004	2.0	GoodResponse	0	0.217	544.284	10	57	Target	Neutral	True
545.284	0.3	Control	0.6552	0.004	Yes	3.479	-0.004	2.0	GoodResponse	0	0.217	n/a	10	57	ButtonPress	Neutral	True
545.317	0.46	Control	0.6552	n/a	Yes	3.479	n/a	n/a	GoodResponse	0	n/a	n/a	10	57	Blank	Neutral	True
545.769	1.45	Control	0.6552	n/a	Yes	3.479	n/a	5.0	GoodResponse	0	0.001	544.77	10	57	Feedback	Neutral	True
547.223	3.479	Control	0.6552	n/a	Yes	3.479	n/a	n/a	GoodResponse	0	0.0	n/a	10	57	ISIslide	Neutral	True
550.717	0.25	Win2	0.6609999999999999	0.0	Yes	2.733	0.017	n/a	GoodResponse	1	n/a	n/a	11	58	Cue	Win	True
550.968	4.05	Win2	0.6609999999999999	0.0	Yes	2.733	0.001	n/a	GoodResponse	1	n/a	n/a	11	58	Fixation	Win	True
555.013	0.24	Win2	0.6609999999999999	0.004	Yes	2.733	-0.004	2.0	GoodResponse	1	0.196	554.209	11	58	Target	Win	True
555.209	0.3	Win2	0.6609999999999999	0.004	Yes	2.733	-0.004	2.0	GoodResponse	1	0.196	n/a	11	58	ButtonPress	Win	True
555.264	0.46	Win2	0.6609999999999999	n/a	Yes	2.733	n/a	n/a	GoodResponse	1	n/a	n/a	11	58	Blank	Win	True
555.715	1.45	Win2	0.6609999999999999	n/a	Yes	2.733	n/a	5.0	GoodResponse	1	0.007	554.722	11	58	Feedback	Win	True
557.169	2.733	Win2	0.6609999999999999	n/a	Yes	2.733	n/a	n/a	GoodResponse	1	0.0	n/a	11	58	ISIslide	Win	True
559.928	0.25	Lose2	0.6667000000000001	0.0	Yes	2.672	0.028	n/a	GoodResponse	0	n/a	n/a	11	59	Cue	AvoidedLoss	True
560.178	4.0	Lose2	0.6667000000000001	0.0	Yes	2.672	0.0	n/a	GoodResponse	0	n/a	n/a	11	59	Fixation	AvoidedLoss	True
564.174	0.24	Lose2	0.6667000000000001	0.004	Yes	2.672	-0.004	2.0	GoodResponse	0	0.162	563.336	11	59	Target	AvoidedLoss	True
564.336	0.3	Lose2	0.6667000000000001	0.004	Yes	2.672	-0.004	2.0	GoodResponse	0	0.162	n/a	11	59	ButtonPress	AvoidedLoss	True
564.424	0.46	Lose2	0.6667000000000001	n/a	Yes	2.672	n/a	n/a	GoodResponse	0	n/a	n/a	11	59	Blank	AvoidedLoss	True
564.876	1.45	Lose2	0.6667000000000001	n/a	Yes	2.672	n/a	5.0	GoodResponse	0	0.016	563.892	11	59	Feedback	AvoidedLoss	True
566.33	2.672	Lose2	0.6667000000000001	n/a	Yes	2.672	n/a	n/a	GoodResponse	0	0.0	n/a	11	59	ISIslide	AvoidedLoss	True
569.021	0.25	Control	0.6720999999999999	0.001	Yes	2.679	0.021	n/a	GoodResponse	0	n/a	n/a	11	60	Cue	Neutral	True
569.272	4.0	Control	0.6720999999999999	0.0	Yes	2.679	0.001	n/a	GoodResponse	0	n/a	n/a	11	60	Fixation	Neutral	True
573.267	0.23	Control	0.6720999999999999	0.004	Yes	2.679	-0.004	2.0	GoodResponse	0	0.215	572.482	11	60	Target	Neutral	True
573.482	0.3	Control	0.6720999999999999	0.004	Yes	2.679	-0.004	2.0	GoodResponse	0	0.215	n/a	11	60	ButtonPress	Neutral	True
573.501	0.47	Control	0.6720999999999999	n/a	Yes	2.679	n/a	n/a	GoodResponse	0	n/a	n/a	11	60	Blank	Neutral	True
573.97	1.45	Control	0.6720999999999999	n/a	Yes	2.679	n/a	5.0	GoodResponse	0	0.044	573.014	11	60	Feedback	Neutral	True
575.424	2.679	Control	0.6720999999999999	n/a	Yes	2.679	n/a	n/a	GoodResponse	0	0.0	n/a	11	60	ISIslide	Neutral	True
578.115	0.25	Lose2	0.6613	0.0	No	2.985	0.015	n/a	LatePress	-1	n/a	n/a	10	61	Cue	Loss	True
578.366	4.0	Lose2	0.6613	0.0	No	2.985	0.001	n/a	LatePress	-1	n/a	n/a	10	61	Fixation	Loss	True
582.361	0.22	Lose2	0.6613	0.004	No	2.985	-0.004	2.0	LatePress	-1	0.232	581.593	10	61	Target	Loss	True
582.593	0.3	Lose2	0.6613	0.004	No	2.985	-0.004	2.0	LatePress	-1	0.232	n/a	10	61	ButtonPress	Loss	True
582.595	0.48	Lose2	0.6613	n/a	No	2.985	n/a	n/a	LatePress	-1	n/a	n/a	10	61	Blank	Loss	True
583.063	1.45	Lose2	0.6613	n/a	No	2.985	n/a	5.0	LatePress	-1	0.024	582.087	10	61	Feedback	Loss	True
584.518	2.985	Lose2	0.6613	n/a	No	2.985	n/a	n/a	LatePress	-1	0.0	n/a	10	61	ISIslide	Loss	True
587.527	0.25	Lose2	0.6507999999999999	0.0	No	2.873	0.027	n/a	NoResponse	-1	n/a	n/a	9	62	Cue	Loss	True
587.777	3.9	Lose2	0.6507999999999999	0.001	No	2.873	0.0	n/a	NoResponse	-1	n/a	n/a	9	62	Fixation	Loss	True
591.689	0.22	Lose2	0.6507999999999999	0.0	No	2.873	0.012	2.0	NoResponse	-1	0.244	590.933	9	62	Target	Loss	True
591.906	0.48	Lose2	0.6507999999999999	n/a	No	2.873	n/a	n/a	NoResponse	-1	n/a	n/a	9	62	Blank	Loss	True
591.933	0.3	Lose2	0.6507999999999999	0.0	No	2.873	0.012	2.0	NoResponse	-1	0.244	n/a	9	62	ButtonPress	Loss	True
592.374	1.45	Lose2	0.6507999999999999	n/a	No	2.873	n/a	5.0	NoResponse	-1	0.029	591.403	9	62	Feedback	Loss	True
593.829	2.873	Lose2	0.6507999999999999	n/a	No	2.873	n/a	n/a	NoResponse	-1	0.0	n/a	9	62	ISIslide	Loss	True
596.721	0.25	Lose2	0.6562	0.0	Yes	2.629	0.021	n/a	GoodResponse	0	n/a	n/a	9	63	Cue	AvoidedLoss	True
596.972	4.05	Lose2	0.6562	0.0	Yes	2.629	0.001	n/a	GoodResponse	0	n/a	n/a	9	63	Fixation	AvoidedLoss	True
601.017	0.23	Lose2	0.6562	0.004	Yes	2.629	-0.004	2.0	GoodResponse	0	0.219	600.236	9	63	Target	AvoidedLoss	True
601.236	0.3	Lose2	0.6562	0.004	Yes	2.629	-0.004	2.0	GoodResponse	0	0.219	n/a	9	63	ButtonPress	AvoidedLoss	True
601.251	0.47	Lose2	0.6562	n/a	Yes	2.629	n/a	n/a	GoodResponse	0	n/a	n/a	9	63	Blank	AvoidedLoss	True
601.719	1.45	Lose2	0.6562	n/a	Yes	2.629	n/a	5.0	GoodResponse	0	0.001	600.72	9	63	Feedback	AvoidedLoss	True
603.173	2.629	Lose2	0.6562	n/a	Yes	2.629	n/a	n/a	GoodResponse	0	0.0	n/a	9	63	ISIslide	AvoidedLoss	True
605.831	0.25	Win2	0.6615000000000001	0.0	Yes	3.119	0.031	n/a	GoodResponse	1	n/a	n/a	10	64	Cue	Win	True
606.082	4.15	Win2	0.6615000000000001	0.0	Yes	3.119	0.001	n/a	GoodResponse	1	n/a	n/a	10	64	Fixation	Win	True
610.228	0.23	Win2	0.6615000000000001	0.003	Yes	3.119	-0.003	2.0	GoodResponse	1	0.19	609.418	10	64	Target	Win	True
610.418	0.3	Win2	0.6615000000000001	0.003	Yes	3.119	-0.003	2.0	GoodResponse	1	0.19	n/a	10	64	ButtonPress	Win	True
610.462	0.47	Win2	0.6615000000000001	n/a	Yes	3.119	n/a	n/a	GoodResponse	1	n/a	n/a	10	64	Blank	Win	True
610.93	1.45	Win2	0.6615000000000001	n/a	Yes	3.119	n/a	5.0	GoodResponse	1	0.01	609.94	10	64	Feedback	Win	True
612.384	3.119	Win2	0.6615000000000001	n/a	Yes	3.119	n/a	n/a	GoodResponse	1	0.0	n/a	10	64	ISIslide	Win	True
615.527	0.25	Control	0.6667000000000001	0.0	Yes	2.773	0.027	n/a	GoodResponse	0	n/a	n/a	10	65	Cue	Neutral	True
615.778	4.0	Control	0.6667000000000001	0.0	Yes	2.773	0.001	n/a	GoodResponse	0	n/a	n/a	10	65	Fixation	Neutral	True
619.773	0.23	Control	0.6667000000000001	0.004	Yes	2.773	-0.004	2.0	GoodResponse	0	0.2	618.973	10	65	Target	Neutral	True
619.973	0.3	Control	0.6667000000000001	0.004	Yes	2.773	-0.004	2.0	GoodResponse	0	0.2	n/a	10	65	ButtonPress	Neutral	True
620.007	0.47	Control	0.6667000000000001	n/a	Yes	2.773	n/a	n/a	GoodResponse	0	n/a	n/a	10	65	Blank	Neutral	True
620.475	1.45	Control	0.6667000000000001	n/a	Yes	2.773	n/a	5.0	GoodResponse	0	0.026	619.501	10	65	Feedback	Neutral	True
621.929	2.773	Control	0.6667000000000001	n/a	Yes	2.773	n/a	n/a	GoodResponse	0	0.0	n/a	10	65	ISIslide	Neutral	True
624.721	0.25	Win2	0.6716	0.0	Yes	2.779	0.021	n/a	GoodResponse	1	n/a	n/a	11	66	Cue	Win	True
624.972	3.9	Win2	0.6716	0.0	Yes	2.779	0.001	n/a	GoodResponse	1	n/a	n/a	11	66	Fixation	Win	True
628.867	0.22	Win2	0.6716	0.004	Yes	2.779	-0.004	2.0	GoodResponse	1	0.216	628.083	11	66	Target	Win	True
629.083	0.3	Win2	0.6716	0.004	Yes	2.779	-0.004	2.0	GoodResponse	1	0.216	n/a	11	66	ButtonPress	Win	True
629.101	0.48	Win2	0.6716	n/a	Yes	2.779	n/a	n/a	GoodResponse	1	n/a	n/a	11	66	Blank	Win	True
629.569	1.45	Win2	0.6716	n/a	Yes	2.779	n/a	5.0	GoodResponse	1	0.007	628.576	11	66	Feedback	Win	True
631.023	2.779	Win2	0.6716	n/a	Yes	2.779	n/a	n/a	GoodResponse	1	0.0	n/a	11	66	ISIslide	Win	True
633.815	0.25	Control	0.6618	0.0	No	2.735	0.015	n/a	NoResponse	0	n/a	n/a	11	67	Cue	Neutral	True
634.066	3.95	Control	0.6618	0.0	No	2.735	0.001	n/a	NoResponse	0	n/a	n/a	11	67	Fixation	Neutral	True
638.011	0.21	Control	0.6618	0.004	No	2.735	-0.004	2.0	NoResponse	0	0.274	637.285	11	67	Target	Neutral	True
638.228	0.49	Control	0.6618	n/a	No	2.735	n/a	n/a	NoResponse	0	n/a	n/a	11	67	Blank	Neutral	True
638.285	0.3	Control	0.6618	0.004	No	2.735	-0.004	2.0	NoResponse	0	0.274	n/a	11	67	ButtonPress	Neutral	True
638.713	1.45	Control	0.6618	n/a	No	2.735	n/a	5.0	NoResponse	0	0.031	637.744	11	67	Feedback	Neutral	True
640.167	2.735	Control	0.6618	n/a	No	2.735	n/a	n/a	NoResponse	0	0.0	n/a	11	67	ISIslide	Neutral	True
642.925	0.25	Win2	0.6522	0.0	No	3.075	0.025	n/a	LatePress	0	n/a	n/a	11	68	Cue	MissedWin	False
643.176	4.0	Win2	0.6522	0.0	No	3.075	0.001	2.0	LatePress	0	3.518	645.694	11	68	Fixation	MissedWin	False
646.694	0.3	Win2	0.6522	0.0	No	3.075	0.001	2.0	LatePress	0	3.518	n/a	11	68	ButtonPress	MissedWin	False
647.171	0.21	Win2	0.6522	0.004	No	3.075	-0.004	2.0	LatePress	0	0.212	646.383	11	68	Target	MissedWin	False
647.383	0.3	Win2	0.6522	0.004	No	3.075	-0.004	2.0	LatePress	0	0.212	n/a	11	68	ButtonPress	MissedWin	False
647.389	0.49	Win2	0.6522	n/a	No	3.075	n/a	n/a	LatePress	0	n/a	n/a	11	68	Blank	MissedWin	False
647.873	1.45	Win2	0.6522	n/a	No	3.075	n/a	5.0	LatePress	0	0.042	646.915	11	68	Feedback	MissedWin	False
649.328	3.075	Win2	0.6522	n/a	No	3.075	n/a	n/a	LatePress	0	0.0	n/a	11	68	ISIslide	MissedWin	False
652.42	0.25	Win2	0.6429	0.0	No	3.23	0.02	n/a	NoResponse	0	n/a	n/a	11	69	Cue	MissedWin	True
652.671	3.95	Win2	0.6429	0.0	No	3.23	0.001	n/a	NoResponse	0	n/a	n/a	11	69	Fixation	MissedWin	True
656.616	0.22	Win2	0.6429	0.004	No	3.23	-0.004	2.0	NoResponse	0	0.244	655.86	11	69	Target	MissedWin	True
656.85	0.48	Win2	0.6429	n/a	No	3.23	n/a	n/a	NoResponse	0	n/a	n/a	11	69	Blank	MissedWin	True
656.86	0.3	Win2	0.6429	0.004	No	3.23	-0.004	2.0	NoResponse	0	0.244	n/a	11	69	ButtonPress	MissedWin	True
657.318	1.45	Win2	0.6429	n/a	No	3.23	n/a	5.0	NoResponse	0	0.011	656.329	11	69	Feedback	MissedWin	True
658.773	3.23	Win2	0.6429	n/a	No	3.23	n/a	n/a	NoResponse	0	0.0	n/a	11	69	ISIslide	MissedWin	True
662.016	0.25	Lose2	0.6479	0.0	Yes	3.034	0.016	n/a	GoodResponse	0	n/a	n/a	11	70	Cue	AvoidedLoss	True
662.266	4.05	Lose2	0.6479	0.0	Yes	3.034	0.0	n/a	GoodResponse	0	n/a	n/a	11	70	Fixation	AvoidedLoss	True
666.312	0.23	Lose2	0.6479	0.004	Yes	3.034	-0.004	2.0	GoodResponse	0	0.194	665.506	11	70	Target	AvoidedLoss	True
666.506	0.3	Lose2	0.6479	0.004	Yes	3.034	-0.004	2.0	GoodResponse	0	0.194	n/a	11	70	ButtonPress	AvoidedLoss	True
666.546	0.47	Lose2	0.6479	n/a	Yes	3.034	n/a	n/a	GoodResponse	0	n/a	n/a	11	70	Blank	AvoidedLoss	True
667.014	1.45	Lose2	0.6479	n/a	Yes	3.034	n/a	5.0	GoodResponse	0	0.022	666.036	11	70	Feedback	AvoidedLoss	True
668.468	3.034	Lose2	0.6479	n/a	Yes	3.034	n/a	n/a	GoodResponse	0	0.0	n/a	11	70	ISIslide	AvoidedLoss	True
671.527	0.25	Win2	0.6528	0.0	Yes	2.723	0.027	n/a	GoodResponse	1	n/a	n/a	12	71	Cue	Win	True
671.778	4.05	Win2	0.6528	0.0	Yes	2.723	0.001	n/a	GoodResponse	1	n/a	n/a	12	71	Fixation	Win	True
675.823	0.24	Win2	0.6528	0.004	Yes	2.723	-0.004	2.0	GoodResponse	1	0.224	675.047	12	71	Target	Win	True
676.047	0.3	Win2	0.6528	0.004	Yes	2.723	-0.004	2.0	GoodResponse	1	0.224	n/a	12	71	ButtonPress	Win	True
676.074	0.46	Win2	0.6528	n/a	Yes	2.723	n/a	n/a	GoodResponse	1	n/a	n/a	12	71	Blank	Win	True
676.525	1.45	Win2	0.6528	n/a	Yes	2.723	n/a	5.0	GoodResponse	1	0.023	675.548	12	71	Feedback	Win	True
677.98	2.723	Win2	0.6528	n/a	Yes	2.723	n/a	n/a	GoodResponse	1	0.0	n/a	12	71	ISIslide	Win	True
680.721	0.25	Win2	0.6575	0.0	Yes	2.779	0.021	n/a	GoodResponse	1	n/a	n/a	13	72	Cue	Win	True
680.972	4.1	Win2	0.6575	0.0	Yes	2.779	0.001	n/a	GoodResponse	1	n/a	n/a	13	72	Fixation	Win	True
685.068	0.25	Win2	0.6575	0.003	Yes	2.779	-0.003	2.0	GoodResponse	1	0.247	684.315	13	72	Target	Win	True
685.315	0.3	Win2	0.6575	0.003	Yes	2.779	-0.003	2.0	GoodResponse	1	0.247	n/a	13	72	ButtonPress	Win	True
685.318	0.45	Win2	0.6575	n/a	Yes	2.779	n/a	n/a	GoodResponse	1	n/a	n/a	13	72	Blank	Win	True
685.77	1.45	Win2	0.6575	n/a	Yes	2.779	n/a	5.0	GoodResponse	1	0.047	684.817	13	72	Feedback	Win	True
687.224	2.779	Win2	0.6575	n/a	Yes	2.779	n/a	n/a	GoodResponse	1	0.0	n/a	13	72	ISIslide	Win	True
690.016	0.25	Win2	0.6622	0.0	Yes	2.684	0.016	n/a	GoodResponse	1	n/a	n/a	14	73	Cue	Win	True
690.266	4.0	Win2	0.6622	0.001	Yes	2.684	0.0	n/a	GoodResponse	1	n/a	n/a	14	73	Fixation	Win	True
694.262	0.25	Win2	0.6622	0.004	Yes	2.684	-0.004	2.0	GoodResponse	1	0.209	693.471	14	73	Target	Win	True
694.471	0.3	Win2	0.6622	0.004	Yes	2.684	-0.004	2.0	GoodResponse	1	0.209	n/a	14	73	ButtonPress	Win	True
694.512	0.45	Win2	0.6622	n/a	Yes	2.684	n/a	n/a	GoodResponse	1	n/a	n/a	14	73	Blank	Win	True
694.964	1.45	Win2	0.6622	n/a	Yes	2.684	n/a	5.0	GoodResponse	1	0.023	693.987	14	73	Feedback	Win	True
696.418	2.684	Win2	0.6622	n/a	Yes	2.684	n/a	n/a	GoodResponse	1	0.0	n/a	14	73	ISIslide	Win	True
699.126	0.25	Lose2	0.6667000000000001	0.0	Yes	2.624	0.026	n/a	GoodResponse	0	n/a	n/a	14	74	Cue	AvoidedLoss	True
699.377	4.05	Lose2	0.6667000000000001	0.0	Yes	2.624	0.001	n/a	GoodResponse	0	n/a	n/a	14	74	Fixation	AvoidedLoss	True
703.422	0.25	Lose2	0.6667000000000001	0.004	Yes	2.624	-0.004	2.0	GoodResponse	0	0.249	702.671	14	74	Target	AvoidedLoss	True
703.671	0.3	Lose2	0.6667000000000001	0.004	Yes	2.624	-0.004	2.0	GoodResponse	0	0.249	n/a	14	74	ButtonPress	AvoidedLoss	True
703.673	0.45	Lose2	0.6667000000000001	n/a	Yes	2.624	n/a	n/a	GoodResponse	0	n/a	n/a	14	74	Blank	AvoidedLoss	True
704.124	1.45	Lose2	0.6667000000000001	n/a	Yes	2.624	n/a	5.0	GoodResponse	0	0.034	703.158	14	74	Feedback	AvoidedLoss	True
705.579	2.624	Lose2	0.6667000000000001	n/a	Yes	2.624	n/a	n/a	GoodResponse	0	0.0	n/a	14	74	ISIslide	AvoidedLoss	True
708.22	0.25	Lose2	0.6711	0.0	Yes	2.93	0.02	n/a	GoodResponse	0	n/a	n/a	14	75	Cue	AvoidedLoss	True
708.471	3.95	Lose2	0.6711	0.0	Yes	2.93	0.001	n/a	GoodResponse	0	n/a	n/a	14	75	Fixation	AvoidedLoss	True
712.416	0.24	Lose2	0.6711	0.004	Yes	2.93	-0.004	2.0	GoodResponse	0	0.239	711.655	14	75	Target	AvoidedLoss	True
712.655	0.3	Lose2	0.6711	0.004	Yes	2.93	-0.004	2.0	GoodResponse	0	0.239	n/a	14	75	ButtonPress	AvoidedLoss	True
712.667	0.46	Lose2	0.6711	n/a	Yes	2.93	n/a	n/a	GoodResponse	0	n/a	n/a	14	75	Blank	AvoidedLoss	True
713.118	1.45	Lose2	0.6711	n/a	Yes	2.93	n/a	5.0	GoodResponse	0	0.015	712.133	14	75	Feedback	AvoidedLoss	True
714.572	2.93	Lose2	0.6711	n/a	Yes	2.93	n/a	n/a	GoodResponse	0	0.0	n/a	14	75	ISIslide	AvoidedLoss	True
717.514	0.25	Control	0.6753	0.001	Yes	3.236	0.014	n/a	GoodResponse	0	n/a	n/a	14	76	Cue	Neutral	True
717.765	4.05	Control	0.6753	0.0	Yes	3.236	0.001	n/a	GoodResponse	0	n/a	n/a	14	76	Fixation	Neutral	True
721.811	0.23	Control	0.6753	0.003	Yes	3.236	-0.003	2.0	GoodResponse	0	0.205	721.016	14	76	Target	Neutral	True
722.016	0.3	Control	0.6753	0.003	Yes	3.236	-0.003	2.0	GoodResponse	0	0.205	n/a	14	76	ButtonPress	Neutral	True
722.045	0.47	Control	0.6753	n/a	Yes	3.236	n/a	n/a	GoodResponse	0	n/a	n/a	14	76	Blank	Neutral	True
722.513	1.45	Control	0.6753	n/a	Yes	3.236	n/a	5.0	GoodResponse	0	0.034	721.547	14	76	Feedback	Neutral	True
723.967	3.236	Control	0.6753	n/a	Yes	3.236	n/a	n/a	GoodResponse	0	0.0	n/a	14	76	ISIslide	Neutral	True
727.227	0.25	Lose2	0.6795	0.0	Yes	2.573	0.027	n/a	GoodResponse	0	n/a	n/a	14	77	Cue	AvoidedLoss	True
727.477	3.95	Lose2	0.6795	0.001	Yes	2.573	0.0	n/a	GoodResponse	0	n/a	n/a	14	77	Fixation	AvoidedLoss	True
731.423	0.22	Lose2	0.6795	0.004	Yes	2.573	-0.004	2.0	GoodResponse	0	0.216	730.639	14	77	Target	AvoidedLoss	True
731.639	0.3	Lose2	0.6795	0.004	Yes	2.573	-0.004	2.0	GoodResponse	0	0.216	n/a	14	77	ButtonPress	AvoidedLoss	True
731.657	0.48	Lose2	0.6795	n/a	Yes	2.573	n/a	n/a	GoodResponse	0	n/a	n/a	14	77	Blank	AvoidedLoss	True
732.125	1.45	Lose2	0.6795	n/a	Yes	2.573	n/a	5.0	GoodResponse	0	0.032	731.157	14	77	Feedback	AvoidedLoss	True
733.579	2.573	Lose2	0.6795	n/a	Yes	2.573	n/a	n/a	GoodResponse	0	0.0	n/a	14	77	ISIslide	AvoidedLoss	True
