onset	duration	cue_type	current_mean_accuracy	duration_error	is_hit	isi_adjusted	onset_delay	response	response_type	reward	rt	rt_time	total_reward	trial_number	trial_phase	trial_type	one_press
11.112	0.25	Control	1.0	0.0	Yes	2.938	0.012	n/a	GoodResponse	0	n/a	n/a	0	0	Cue	Neutral	False
11.363	3.85	Control	1.0	0.0	Yes	2.938	0.001	2.0	GoodResponse	0	0.82	11.183	0	0	Fixation	Neutral	False
12.183	0.3	Control	1.0	0.0	Yes	2.938	0.001	2.0	GoodResponse	0	0.82	n/a	0	0	ButtonPress	Neutral	False
15.224	0.4	Control	1.0	0.0	Yes	2.938	0.012	2.0	GoodResponse	0	0.304	14.528	0	0	Target	Neutral	False
15.528	0.3	Control	1.0	0.0	Yes	2.938	0.012	2.0	GoodResponse	0	0.304	n/a	0	0	ButtonPress	Neutral	False
15.609	0.3	Control	1.0	n/a	Yes	2.938	n/a	n/a	GoodResponse	0	n/a	n/a	0	0	Blank	Neutral	False
15.91	1.45	Control	1.0	n/a	Yes	2.938	n/a	5.0	GoodResponse	0	0.017	14.927	0	0	Feedback	Neutral	False
17.364	2.938	Control	1.0	n/a	Yes	2.938	n/a	n/a	GoodResponse	0	0.0	n/a	0	0	ISIslide	Neutral	False
20.39	0.25	Lose2	1.0	0.0	Yes	2.71	0.09	n/a	GoodResponse	0	n/a	n/a	0	1	Cue	AvoidedLoss	True
20.64	4.0	Lose2	1.0	0.0	Yes	2.71	0.0	n/a	GoodResponse	0	n/a	n/a	0	1	Fixation	AvoidedLoss	True
24.636	0.39	Lose2	1.0	0.004	Yes	2.71	-0.004	2.0	GoodResponse	0	0.328	23.964	0	1	Target	AvoidedLoss	True
24.964	0.3	Lose2	1.0	0.004	Yes	2.71	-0.004	2.0	GoodResponse	0	0.328	n/a	0	1	ButtonPress	AvoidedLoss	True
25.037	0.31	Lose2	1.0	n/a	Yes	2.71	n/a	n/a	GoodResponse	0	n/a	n/a	0	1	Blank	AvoidedLoss	True
25.338	1.45	Lose2	1.0	n/a	Yes	2.71	n/a	5.0	GoodResponse	0	0.008	24.346	0	1	Feedback	AvoidedLoss	True
26.792	2.71	Lose2	1.0	n/a	Yes	2.71	n/a	n/a	GoodResponse	0	0.0	n/a	0	1	ISIslide	AvoidedLoss	True
29.517	0.25	Control	1.0	0.0	Yes	2.583	0.017	n/a	GoodResponse	0	n/a	n/a	0	2	Cue	Neutral	True
29.768	4.1	Control	1.0	0.0	Yes	2.583	0.001	n/a	GoodResponse	0	n/a	n/a	0	2	Fixation	Neutral	True
33.863	0.38	Control	1.0	0.004	Yes	2.583	-0.004	2.0	GoodResponse	0	0.31	33.173	0	2	Target	Neutral	True
34.173	0.3	Control	1.0	0.004	Yes	2.583	-0.004	2.0	GoodResponse	0	0.31	n/a	0	2	ButtonPress	Neutral	True
34.248	0.32	Control	1.0	n/a	Yes	2.583	n/a	n/a	GoodResponse	0	n/a	n/a	0	2	Blank	Neutral	True
34.565	1.45	Control	1.0	n/a	Yes	2.583	n/a	5.0	GoodResponse	0	0.044	33.609	0	2	Feedback	Neutral	True
36.02	2.583	Control	1.0	n/a	Yes	2.583	n/a	n/a	GoodResponse	0	0.0	n/a	0	2	ISIslide	Neutral	True
38.627	0.25	Win2	1.0	0.001	Yes	2.823	0.027	n/a	GoodResponse	1	n/a	n/a	1	3	Cue	Win	True
38.878	3.95	Win2	1.0	0.0	Yes	2.823	0.001	n/a	GoodResponse	1	n/a	n/a	1	3	Fixation	Win	True
42.823	0.37	Win2	1.0	0.004	Yes	2.823	-0.004	2.0	GoodResponse	1	0.27	42.093	1	3	Target	Win	True
43.093	0.3	Win2	1.0	0.004	Yes	2.823	-0.004	2.0	GoodResponse	1	0.27	n/a	1	3	ButtonPress	Win	True
43.208	0.33	Win2	1.0	n/a	Yes	2.823	n/a	n/a	GoodResponse	1	n/a	n/a	1	3	Blank	Win	True
43.525	1.45	Win2	1.0	n/a	Yes	2.823	n/a	5.0	GoodResponse	1	0.011	42.536	1	3	Feedback	Win	True
44.98	2.823	Win2	1.0	n/a	Yes	2.823	n/a	n/a	GoodResponse	1	0.0	n/a	1	3	ISIslide	Win	True
47.822	0.25	Win2	1.0	0.0	Yes	3.278	0.022	n/a	GoodResponse	1	n/a	n/a	2	4	Cue	Win	True
48.072	4.0	Win2	1.0	0.0	Yes	3.278	0.0	n/a	GoodResponse	1	n/a	n/a	2	4	Fixation	Win	True
52.068	0.36	Win2	1.0	0.004	Yes	3.278	-0.004	2.0	GoodResponse	1	0.282	51.35	2	4	Target	Win	True
52.35	0.3	Win2	1.0	0.004	Yes	3.278	-0.004	2.0	GoodResponse	1	0.282	n/a	2	4	ButtonPress	Win	True
52.435	0.34	Win2	1.0	n/a	Yes	3.278	n/a	n/a	GoodResponse	1	n/a	n/a	2	4	Blank	Win	True
52.77	1.45	Win2	1.0	n/a	Yes	3.278	n/a	5.0	GoodResponse	1	0.034	51.804	2	4	Feedback	Win	True
54.224	3.278	Win2	1.0	n/a	Yes	3.278	n/a	n/a	GoodResponse	1	0.0	n/a	2	4	ISIslide	Win	True
57.517	0.25	Win2	1.0	0.0	Yes	2.783	0.017	n/a	GoodResponse	1	n/a	n/a	3	5	Cue	Win	True
57.768	4.0	Win2	1.0	0.0	Yes	2.783	0.001	n/a	GoodResponse	1	n/a	n/a	3	5	Fixation	Win	True
61.763	0.35	Win2	1.0	0.004	Yes	2.783	-0.004	2.0	GoodResponse	1	0.259	61.022	3	5	Target	Win	True
62.022	0.3	Win2	1.0	0.004	Yes	2.783	-0.004	2.0	GoodResponse	1	0.259	n/a	3	5	ButtonPress	Win	True
62.114	0.35	Win2	1.0	n/a	Yes	2.783	n/a	n/a	GoodResponse	1	n/a	n/a	3	5	Blank	Win	True
62.465	1.45	Win2	1.0	n/a	Yes	2.783	n/a	5.0	GoodResponse	1	0.047	61.512	3	5	Feedback	Win	True
63.92	2.783	Win2	1.0	n/a	Yes	2.783	n/a	n/a	GoodResponse	1	0.0	n/a	3	5	ISIslide	Win	True
66.728	0.25	Lose2	0.8571	0.0	No	2.722	0.028	n/a	NoResponse	-1	n/a	n/a	2	6	Cue	Loss	True
66.979	3.95	Lose2	0.8571	0.0	No	2.722	0.001	n/a	NoResponse	-1	n/a	n/a	2	6	Fixation	Loss	True
70.924	0.34	Lose2	0.8571	0.004	No	2.722	-0.004	2.0	NoResponse	-1	0.36	70.284	2	6	Target	Loss	True
71.275	0.36	Lose2	0.8571	n/a	No	2.722	n/a	n/a	NoResponse	-1	n/a	n/a	2	6	Blank	Loss	True
71.284	0.3	Lose2	0.8571	0.004	No	2.722	-0.004	2.0	NoResponse	-1	0.36	n/a	2	6	ButtonPress	Loss	True
71.626	1.45	Lose2	0.8571	n/a	No	2.722	n/a	5.0	NoResponse	-1	0.008	70.634	2	6	Feedback	Loss	True
73.081	2.722	Lose2	0.8571	n/a	No	2.722	n/a	n/a	NoResponse	-1	0.0	n/a	2	6	ISIslide	Loss	True
75.822	0.25	Lose2	0.875	0.0	Yes	4.028	0.022	n/a	GoodResponse	0	n/a	n/a	2	7	Cue	AvoidedLoss	True
76.073	4.05	Lose2	0.875	0.0	Yes	4.028	0.001	n/a	GoodResponse	0	n/a	n/a	2	7	Fixation	AvoidedLoss	True
80.118	0.33	Lose2	0.875	0.004	Yes	4.028	-0.004	2.0	GoodResponse	0	0.26	79.378	2	7	Target	AvoidedLoss	True
80.378	0.3	Lose2	0.875	0.004	Yes	4.028	-0.004	2.0	GoodResponse	0	0.26	n/a	2	7	ButtonPress	AvoidedLoss	True
80.453	0.37	Lose2	0.875	n/a	Yes	4.028	n/a	n/a	GoodResponse	0	n/a	n/a	2	7	Blank	AvoidedLoss	True
80.82	1.45	Lose2	0.875	n/a	Yes	4.028	n/a	5.0	GoodResponse	0	0.032	79.852	2	7	Feedback	AvoidedLoss	True
82.275	4.028	Lose2	0.875	n/a	Yes	4.028	n/a	n/a	GoodResponse	0	0.0	n/a	2	7	ISIslide	AvoidedLoss	True
86.32	0.25	Lose2	0.8889	0.0	Yes	3.03	0.02	n/a	GoodResponse	0	n/a	n/a	2	8	Cue	AvoidedLoss	True
86.571	3.95	Lose2	0.8889	0.0	Yes	3.03	0.001	n/a	GoodResponse	0	n/a	n/a	2	8	Fixation	AvoidedLoss	True
90.516	0.32	Lose2	0.8889	0.004	Yes	3.03	-0.004	2.0	GoodResponse	0	0.24	89.756	2	8	Target	AvoidedLoss	True
90.756	0.3	Lose2	0.8889	0.004	Yes	3.03	-0.004	2.0	GoodResponse	0	0.24	n/a	2	8	ButtonPress	AvoidedLoss	True
90.85	0.38	Lose2	0.8889	n/a	Yes	3.03	n/a	n/a	GoodResponse	0	n/a	n/a	2	8	Blank	AvoidedLoss	True
91.218	1.45	Lose2	0.8889	n/a	Yes	3.03	n/a	5.0	GoodResponse	0	0.025	90.243	2	8	Feedback	AvoidedLoss	True
92.672	3.03	Lose2	0.8889	n/a	Yes	3.03	n/a	n/a	GoodResponse	0	0.0	n/a	2	8	ISIslide	AvoidedLoss	True
95.715	0.25	Lose2	0.9	0.0	Yes	3.135	0.015	n/a	GoodResponse	0	n/a	n/a	2	9	Cue	AvoidedLoss	True
95.966	3.95	Lose2	0.9	0.0	Yes	3.135	0.001	n/a	GoodResponse	0	n/a	n/a	2	9	Fixation	AvoidedLoss	True
99.911	0.31	Lose2	0.9	0.004	Yes	3.135	-0.004	2.0	GoodResponse	0	0.303	99.214	2	9	Target	AvoidedLoss	True
100.214	0.3	Lose2	0.9	0.004	Yes	3.135	-0.004	2.0	GoodResponse	0	0.303	n/a	2	9	ButtonPress	AvoidedLoss	True
100.228	0.39	Lose2	0.9	n/a	Yes	3.135	n/a	n/a	GoodResponse	0	n/a	n/a	2	9	Blank	AvoidedLoss	True
100.613	1.45	Lose2	0.9	n/a	Yes	3.135	n/a	5.0	GoodResponse	0	0.044	99.657	2	9	Feedback	AvoidedLoss	True
102.067	3.135	Lose2	0.9	n/a	Yes	3.135	n/a	n/a	GoodResponse	0	0.0	n/a	2	9	ISIslide	AvoidedLoss	True
105.227	0.25	Control	0.9091	0.0	Yes	3.273	0.027	n/a	GoodResponse	0	n/a	n/a	2	10	Cue	Neutral	True
105.477	4.0	Control	0.9091	0.0	Yes	3.273	0.0	n/a	GoodResponse	0	n/a	n/a	2	10	Fixation	Neutral	True
109.473	0.3	Control	0.9091	0.004	Yes	3.273	-0.004	2.0	GoodResponse	0	0.261	108.734	2	10	Target	Neutral	True
109.734	0.3	Control	0.9091	0.004	Yes	3.273	-0.004	2.0	GoodResponse	0	0.261	n/a	2	10	ButtonPress	Neutral	True
109.774	0.4	Control	0.9091	n/a	Yes	3.273	n/a	n/a	GoodResponse	0	n/a	n/a	2	10	Blank	Neutral	True
110.175	1.45	Control	0.9091	n/a	Yes	3.273	n/a	5.0	GoodResponse	0	0.043	109.218	2	10	Feedback	Neutral	True
111.629	3.273	Control	0.9091	n/a	Yes	3.273	n/a	n/a	GoodResponse	0	0.0	n/a	2	10	ISIslide	Neutral	True
114.922	0.25	Lose2	0.8332999999999999	0.0	No	2.728	0.022	n/a	NoResponse	-1	n/a	n/a	1	11	Cue	Loss	True
115.173	4.05	Lose2	0.8332999999999999	0.0	No	2.728	0.001	n/a	NoResponse	-1	n/a	n/a	1	11	Fixation	Loss	True
119.218	0.29	Lose2	0.8332999999999999	0.004	No	2.728	-0.004	2.0	NoResponse	-1	0.324	118.542	1	11	Target	Loss	True
119.519	0.41	Lose2	0.8332999999999999	n/a	No	2.728	n/a	n/a	NoResponse	-1	n/a	n/a	1	11	Blank	Loss	True
119.542	0.3	Lose2	0.8332999999999999	0.004	No	2.728	-0.004	2.0	NoResponse	-1	0.324	n/a	1	11	ButtonPress	Loss	True
119.921	1.45	Lose2	0.8332999999999999	n/a	No	2.728	n/a	5.0	NoResponse	-1	0.007	118.928	1	11	Feedback	Loss	True
121.375	2.728	Lose2	0.8332999999999999	n/a	No	2.728	n/a	n/a	NoResponse	-1	0.0	n/a	1	11	ISIslide	Loss	True
124.116	0.25	Control	0.7692	0.001	No	2.984	0.016	n/a	NoResponse	0	n/a	n/a	1	12	Cue	Neutral	False
124.367	3.9	Control	0.7692	0.0	No	2.984	0.001	n/a	NoResponse	0	n/a	n/a	1	12	Fixation	Neutral	False
128.262	0.28	Control	0.7692	0.004	No	2.984	-0.004	n/a	NoResponse	0	n/a	n/a	1	12	Target	Neutral	False
128.546	0.42	Control	0.7692	n/a	No	2.984	n/a	n/a	NoResponse	0	n/a	n/a	1	12	Blank	Neutral	False
128.964	1.45	Control	0.7692	n/a	No	2.984	n/a	5.0	NoResponse	0	0.034	127.998	1	12	Feedback	Neutral	False
130.419	2.984	Control	0.7692	n/a	No	2.984	n/a	n/a	NoResponse	0	0.0	n/a	1	12	ISIslide	Neutral	False
133.428	0.25	Control	0.7143	0.0	No	2.772	0.028	n/a	NoResponse	0	n/a	n/a	1	13	Cue	Neutral	False
133.678	4.0	Control	0.7143	0.0	No	2.772	0.0	n/a	NoResponse	0	n/a	n/a	1	13	Fixation	Neutral	False
137.674	0.27	Control	0.7143	0.004	No	2.772	-0.004	n/a	NoResponse	0	n/a	n/a	1	13	Target	Neutral	False
137.958	0.43	Control	0.7143	n/a	No	2.772	n/a	n/a	NoResponse	0	n/a	n/a	1	13	Blank	Neutral	False
138.376	1.45	Control	0.7143	n/a	No	2.772	n/a	5.0	NoResponse	0	0.037	137.413	1	13	Feedback	Neutral	False
139.83	2.772	Control	0.7143	n/a	No	2.772	n/a	n/a	NoResponse	0	0.0	n/a	1	13	ISIslide	Neutral	False
142.622	0.25	Win2	0.7333	0.0	Yes	2.678	0.022	n/a	GoodResponse	1	n/a	n/a	2	14	Cue	Win	True
142.873	4.1	Win2	0.7333	0.0	Yes	2.678	0.001	n/a	GoodResponse	1	n/a	n/a	2	14	Fixation	Win	True
146.968	0.26	Win2	0.7333	0.004	Yes	2.678	-0.004	2.0	GoodResponse	1	0.236	146.204	2	14	Target	Win	True
147.204	0.3	Win2	0.7333	0.004	Yes	2.678	-0.004	2.0	GoodResponse	1	0.236	n/a	2	14	ButtonPress	Win	True
147.236	0.44	Win2	0.7333	n/a	Yes	2.678	n/a	n/a	GoodResponse	1	n/a	n/a	2	14	Blank	Win	True
147.67	1.45	Win2	0.7333	n/a	Yes	2.678	n/a	5.0	GoodResponse	1	0.011	146.681	2	14	Feedback	Win	True
149.125	2.678	Win2	0.7333	n/a	Yes	2.678	n/a	n/a	GoodResponse	1	0.0	n/a	2	14	ISIslide	Win	True
151.816	0.25	Control	0.6875	0.0	No	2.984	0.016	n/a	NoResponse	0	n/a	n/a	2	15	Cue	Neutral	False
152.067	4.0	Control	0.6875	0.0	No	2.984	0.001	n/a	NoResponse	0	n/a	n/a	2	15	Fixation	Neutral	False
156.062	0.25	Control	0.6875	0.004	No	2.984	-0.004	n/a	NoResponse	0	n/a	n/a	2	15	Target	Neutral	False
156.313	0.45	Control	0.6875	n/a	No	2.984	n/a	n/a	NoResponse	0	n/a	n/a	2	15	Blank	Neutral	False
156.764	1.45	Control	0.6875	n/a	No	2.984	n/a	5.0	NoResponse	0	0.039	155.803	2	15	Feedback	Neutral	False
158.218	2.984	Control	0.6875	n/a	No	2.984	n/a	n/a	NoResponse	0	0.0	n/a	2	15	ISIslide	Neutral	False
161.227	0.25	Win2	0.6470999999999999	0.0	No	2.873	0.027	n/a	NoResponse	0	n/a	n/a	2	16	Cue	MissedWin	True
161.478	4.0	Win2	0.6470999999999999	0.0	No	2.873	0.001	n/a	NoResponse	0	n/a	n/a	2	16	Fixation	MissedWin	True
165.473	0.24	Win2	0.6470999999999999	0.004	No	2.873	-0.004	2.0	NoResponse	0	0.259	164.732	2	16	Target	MissedWin	True
165.724	0.46	Win2	0.6470999999999999	n/a	No	2.873	n/a	n/a	NoResponse	0	n/a	n/a	2	16	Blank	MissedWin	True
165.732	0.3	Win2	0.6470999999999999	0.004	No	2.873	-0.004	2.0	NoResponse	0	0.259	n/a	2	16	ButtonPress	MissedWin	True
166.176	1.45	Win2	0.6470999999999999	n/a	No	2.873	n/a	5.0	NoResponse	0	0.041	165.217	2	16	Feedback	MissedWin	True
167.63	2.873	Win2	0.6470999999999999	n/a	No	2.873	n/a	n/a	NoResponse	0	0.0	n/a	2	16	ISIslide	MissedWin	True
170.522	0.25	Lose2	0.6667000000000001	0.0	Yes	2.728	0.022	n/a	GoodResponse	0	n/a	n/a	2	17	Cue	AvoidedLoss	True
170.773	3.95	Lose2	0.6667000000000001	0.0	Yes	2.728	0.001	n/a	GoodResponse	0	n/a	n/a	2	17	Fixation	AvoidedLoss	True
174.718	0.25	Lose2	0.6667000000000001	0.004	Yes	2.728	-0.004	2.0	GoodResponse	0	0.227	173.945	2	17	Target	AvoidedLoss	True
174.945	0.3	Lose2	0.6667000000000001	0.004	Yes	2.728	-0.004	2.0	GoodResponse	0	0.227	n/a	2	17	ButtonPress	AvoidedLoss	True
174.968	0.45	Lose2	0.6667000000000001	n/a	Yes	2.728	n/a	n/a	GoodResponse	0	n/a	n/a	2	17	Blank	AvoidedLoss	True
175.42	1.45	Lose2	0.6667000000000001	n/a	Yes	2.728	n/a	5.0	GoodResponse	0	0.017	174.437	2	17	Feedback	AvoidedLoss	True
176.874	2.728	Lose2	0.6667000000000001	n/a	Yes	2.728	n/a	n/a	GoodResponse	0	0.0	n/a	2	17	ISIslide	AvoidedLoss	True
179.616	0.25	Lose2	0.6315999999999999	0.0	No	2.734	0.016	n/a	NoResponse	-1	n/a	n/a	1	18	Cue	Loss	True
179.866	4.05	Lose2	0.6315999999999999	0.001	No	2.734	0.0	n/a	NoResponse	-1	n/a	n/a	1	18	Fixation	Loss	True
183.912	0.24	Lose2	0.6315999999999999	0.004	No	2.734	-0.004	2.0	NoResponse	-1	0.303	183.215	1	18	Target	Loss	True
184.163	0.46	Lose2	0.6315999999999999	n/a	No	2.734	n/a	n/a	NoResponse	-1	n/a	n/a	1	18	Blank	Loss	True
184.215	0.3	Lose2	0.6315999999999999	0.004	No	2.734	-0.004	2.0	NoResponse	-1	0.303	n/a	1	18	ButtonPress	Loss	True
184.614	1.45	Lose2	0.6315999999999999	n/a	No	2.734	n/a	5.0	NoResponse	-1	0.042	183.656	1	18	Feedback	Loss	True
186.068	2.734	Lose2	0.6315999999999999	n/a	No	2.734	n/a	n/a	NoResponse	-1	0.0	n/a	1	18	ISIslide	Loss	True
188.827	0.25	Control	0.6	0.0	No	2.923	0.027	n/a	NoResponse	0	n/a	n/a	1	19	Cue	Neutral	False
189.077	3.95	Control	0.6	0.0	No	2.923	0.0	n/a	NoResponse	0	n/a	n/a	1	19	Fixation	Neutral	False
193.039	0.25	Control	0.6	0.0	No	2.923	0.012	n/a	NoResponse	0	n/a	n/a	1	19	Target	Neutral	False
193.273	0.45	Control	0.6	n/a	No	2.923	n/a	n/a	NoResponse	0	n/a	n/a	1	19	Blank	Neutral	False
193.725	1.45	Control	0.6	n/a	No	2.923	n/a	5.0	NoResponse	0	0.008	192.733	1	19	Feedback	Neutral	False
195.179	2.923	Control	0.6	n/a	No	2.923	n/a	n/a	NoResponse	0	0.0	n/a	1	19	ISIslide	Neutral	False
198.121	0.25	Control	0.619	0.0	Yes	2.629	0.021	n/a	GoodResponse	0	n/a	n/a	1	20	Cue	Neutral	True
198.372	4.05	Control	0.619	0.0	Yes	2.629	0.001	n/a	GoodResponse	0	n/a	n/a	1	20	Fixation	Neutral	True
202.417	0.26	Control	0.619	0.004	Yes	2.629	-0.004	2.0	GoodResponse	0	0.234	201.651	1	20	Target	Neutral	True
202.651	0.3	Control	0.619	0.004	Yes	2.629	-0.004	2.0	GoodResponse	0	0.234	n/a	1	20	ButtonPress	Neutral	True
202.685	0.44	Control	0.619	n/a	Yes	2.629	n/a	n/a	GoodResponse	0	n/a	n/a	1	20	Blank	Neutral	True
203.119	1.45	Control	0.619	n/a	Yes	2.629	n/a	5.0	GoodResponse	0	0.025	202.144	1	20	Feedback	Neutral	True
204.574	2.629	Control	0.619	n/a	Yes	2.629	n/a	n/a	GoodResponse	0	0.0	n/a	1	20	ISIslide	Neutral	True
207.215	0.25	Control	0.5909	0.0	No	2.785	0.015	n/a	NoResponse	0	n/a	n/a	1	21	Cue	Neutral	False
207.466	4.1	Control	0.5909	0.0	No	2.785	0.001	n/a	NoResponse	0	n/a	n/a	1	21	Fixation	Neutral	False
211.561	0.27	Control	0.5909	0.004	No	2.785	-0.004	n/a	NoResponse	0	n/a	n/a	1	21	Target	Neutral	False
211.845	0.43	Control	0.5909	n/a	No	2.785	n/a	n/a	NoResponse	0	n/a	n/a	1	21	Blank	Neutral	False
212.263	1.45	Control	0.5909	n/a	No	2.785	n/a	5.0	NoResponse	0	0.007	211.27	1	21	Feedback	Neutral	False
213.718	2.785	Control	0.5909	n/a	No	2.785	n/a	n/a	NoResponse	0	0.0	n/a	1	21	ISIslide	Neutral	False
216.526	0.25	Control	0.5652	0.0	No	2.774	0.026	n/a	NoResponse	0	n/a	n/a	1	22	Cue	Neutral	False
216.777	4.0	Control	0.5652	0.0	No	2.774	0.001	n/a	NoResponse	0	n/a	n/a	1	22	Fixation	Neutral	False
220.772	0.28	Control	0.5652	0.004	No	2.774	-0.004	n/a	NoResponse	0	n/a	n/a	1	22	Target	Neutral	False
221.056	0.42	Control	0.5652	n/a	No	2.774	n/a	n/a	NoResponse	0	n/a	n/a	1	22	Blank	Neutral	False
221.474	1.45	Control	0.5652	n/a	No	2.774	n/a	5.0	NoResponse	0	0.011	220.485	1	22	Feedback	Neutral	False
222.929	2.774	Control	0.5652	n/a	No	2.774	n/a	n/a	NoResponse	0	0.0	n/a	1	22	ISIslide	Neutral	False
225.72	0.25	Control	0.5832999999999999	0.0	Yes	2.78	0.02	n/a	GoodResponse	0	n/a	n/a	1	23	Cue	Neutral	True
225.971	3.9	Control	0.5832999999999999	0.0	Yes	2.78	0.001	n/a	GoodResponse	0	n/a	n/a	1	23	Fixation	Neutral	True
229.866	0.29	Control	0.5832999999999999	0.004	Yes	2.78	-0.004	2.0	GoodResponse	0	0.229	229.095	1	23	Target	Neutral	True
230.095	0.3	Control	0.5832999999999999	0.004	Yes	2.78	-0.004	2.0	GoodResponse	0	0.229	n/a	1	23	ButtonPress	Neutral	True
230.167	0.41	Control	0.5832999999999999	n/a	Yes	2.78	n/a	n/a	GoodResponse	0	n/a	n/a	1	23	Blank	Neutral	True
230.568	1.45	Control	0.5832999999999999	n/a	Yes	2.78	n/a	5.0	GoodResponse	0	0.039	229.607	1	23	Feedback	Neutral	True
232.022	2.78	Control	0.5832999999999999	n/a	Yes	2.78	n/a	n/a	GoodResponse	0	0.0	n/a	1	23	ISIslide	Neutral	True
234.831	0.25	Win2	0.6	0.0	Yes	3.119	0.031	n/a	GoodResponse	1	n/a	n/a	2	24	Cue	Win	True
235.082	3.95	Win2	0.6	0.0	Yes	3.119	0.001	n/a	GoodResponse	1	n/a	n/a	2	24	Fixation	Win	True
239.027	0.3	Win2	0.6	0.004	Yes	3.119	-0.004	2.0	GoodResponse	1	0.241	238.268	2	24	Target	Win	True
239.268	0.3	Win2	0.6	0.004	Yes	3.119	-0.004	2.0	GoodResponse	1	0.241	n/a	2	24	ButtonPress	Win	True
239.328	0.4	Win2	0.6	n/a	Yes	3.119	n/a	n/a	GoodResponse	1	n/a	n/a	2	24	Blank	Win	True
239.729	1.45	Win2	0.6	n/a	Yes	3.119	n/a	5.0	GoodResponse	1	0.049	238.778	2	24	Feedback	Win	True
241.183	3.119	Win2	0.6	n/a	Yes	3.119	n/a	n/a	GoodResponse	1	0.0	n/a	2	24	ISIslide	Win	True
244.326	0.25	Win2	0.6154	0.0	Yes	3.074	0.026	n/a	GoodResponse	1	n/a	n/a	3	25	Cue	Win	True
244.577	4.0	Win2	0.6154	0.0	Yes	3.074	0.001	n/a	GoodResponse	1	n/a	n/a	3	25	Fixation	Win	True
248.572	0.31	Win2	0.6154	0.004	Yes	3.074	-0.004	2.0	GoodResponse	1	0.24	247.812	3	25	Target	Win	True
248.812	0.3	Win2	0.6154	0.004	Yes	3.074	-0.004	2.0	GoodResponse	1	0.24	n/a	3	25	ButtonPress	Win	True
248.889	0.39	Win2	0.6154	n/a	Yes	3.074	n/a	n/a	GoodResponse	1	n/a	n/a	3	25	Blank	Win	True
249.274	1.45	Win2	0.6154	n/a	Yes	3.074	n/a	5.0	GoodResponse	1	0.015	248.289	3	25	Feedback	Win	True
250.728	3.074	Win2	0.6154	n/a	Yes	3.074	n/a	n/a	GoodResponse	1	0.0	n/a	3	25	ISIslide	Win	True
253.821	0.25	Win2	0.6296	0.0	Yes	2.929	0.021	n/a	GoodResponse	1	n/a	n/a	4	26	Cue	Win	True
254.072	3.95	Win2	0.6296	0.0	Yes	2.929	0.001	n/a	GoodResponse	1	n/a	n/a	4	26	Fixation	Win	True
258.017	0.32	Win2	0.6296	0.004	Yes	2.929	-0.004	2.0	GoodResponse	1	0.293	257.31	4	26	Target	Win	True
258.31	0.3	Win2	0.6296	0.004	Yes	2.929	-0.004	2.0	GoodResponse	1	0.293	n/a	4	26	ButtonPress	Win	True
258.351	0.38	Win2	0.6296	n/a	Yes	2.929	n/a	n/a	GoodResponse	1	n/a	n/a	4	26	Blank	Win	True
258.719	1.45	Win2	0.6296	n/a	Yes	2.929	n/a	5.0	GoodResponse	1	0.034	257.753	4	26	Feedback	Win	True
260.173	2.929	Win2	0.6296	n/a	Yes	2.929	n/a	n/a	GoodResponse	1	0.0	n/a	4	26	ISIslide	Win	True
263.115	0.25	Lose2	0.6429	0.0	Yes	2.835	0.015	n/a	GoodResponse	0	n/a	n/a	4	27	Cue	AvoidedLoss	True
263.366	4.05	Lose2	0.6429	0.0	Yes	2.835	0.001	n/a	GoodResponse	0	n/a	n/a	4	27	Fixation	AvoidedLoss	True
267.412	0.33	Lose2	0.6429	0.003	Yes	2.835	-0.003	2.0	GoodResponse	0	0.229	266.641	4	27	Target	AvoidedLoss	True
267.641	0.3	Lose2	0.6429	0.003	Yes	2.835	-0.003	2.0	GoodResponse	0	0.229	n/a	4	27	ButtonPress	AvoidedLoss	True
267.746	0.37	Lose2	0.6429	n/a	Yes	2.835	n/a	n/a	GoodResponse	0	n/a	n/a	4	27	Blank	AvoidedLoss	True
268.114	1.45	Lose2	0.6429	n/a	Yes	2.835	n/a	5.0	GoodResponse	0	0.005	267.119	4	27	Feedback	AvoidedLoss	True
269.568	2.835	Lose2	0.6429	n/a	Yes	2.835	n/a	n/a	GoodResponse	0	0.0	n/a	4	27	ISIslide	AvoidedLoss	True
272.427	0.25	Control	0.6207	0.0	No	2.823	0.027	n/a	NoResponse	0	n/a	n/a	4	28	Cue	Neutral	False
272.677	4.05	Control	0.6207	0.0	No	2.823	0.0	n/a	NoResponse	0	n/a	n/a	4	28	Fixation	Neutral	False
276.723	0.34	Control	0.6207	0.004	No	2.823	-0.004	n/a	NoResponse	0	n/a	n/a	4	28	Target	Neutral	False
277.074	0.36	Control	0.6207	n/a	No	2.823	n/a	n/a	NoResponse	0	n/a	n/a	4	28	Blank	Neutral	False
277.425	1.45	Control	0.6207	n/a	No	2.823	n/a	5.0	NoResponse	0	0.011	276.436	4	28	Feedback	Neutral	False
278.879	2.823	Control	0.6207	n/a	No	2.823	n/a	n/a	NoResponse	0	0.0	n/a	4	28	ISIslide	Neutral	False
281.721	0.25	Lose2	0.6333	0.0	Yes	2.829	0.021	n/a	GoodResponse	0	n/a	n/a	4	29	Cue	AvoidedLoss	True
281.972	3.95	Lose2	0.6333	0.0	Yes	2.829	0.001	n/a	GoodResponse	0	n/a	n/a	4	29	Fixation	AvoidedLoss	True
285.917	0.35	Lose2	0.6333	0.004	Yes	2.829	-0.004	2.0	GoodResponse	0	0.252	285.169	4	29	Target	AvoidedLoss	True
286.169	0.3	Lose2	0.6333	0.004	Yes	2.829	-0.004	2.0	GoodResponse	0	0.252	n/a	4	29	ButtonPress	AvoidedLoss	True
286.268	0.35	Lose2	0.6333	n/a	Yes	2.829	n/a	n/a	GoodResponse	0	n/a	n/a	4	29	Blank	AvoidedLoss	True
286.619	1.45	Lose2	0.6333	n/a	Yes	2.829	n/a	5.0	GoodResponse	0	0.036	285.655	4	29	Feedback	AvoidedLoss	True
288.073	2.829	Lose2	0.6333	n/a	Yes	2.829	n/a	n/a	GoodResponse	0	0.0	n/a	4	29	ISIslide	AvoidedLoss	True
290.915	0.25	Win2	0.6452	0.0	Yes	2.785	0.015	n/a	GoodResponse	1	n/a	n/a	5	30	Cue	Win	True
291.166	3.9	Win2	0.6452	0.0	Yes	2.785	0.001	n/a	GoodResponse	1	n/a	n/a	5	30	Fixation	Win	True
295.061	0.36	Win2	0.6452	0.004	Yes	2.785	-0.004	2.0	GoodResponse	1	0.268	294.329	5	30	Target	Win	True
295.329	0.3	Win2	0.6452	0.004	Yes	2.785	-0.004	2.0	GoodResponse	1	0.268	n/a	5	30	ButtonPress	Win	True
295.429	0.34	Win2	0.6452	n/a	Yes	2.785	n/a	n/a	GoodResponse	1	n/a	n/a	5	30	Blank	Win	True
295.763	1.45	Win2	0.6452	n/a	Yes	2.785	n/a	5.0	GoodResponse	1	0.013	294.776	5	30	Feedback	Win	True
297.217	2.785	Win2	0.6452	n/a	Yes	2.785	n/a	n/a	GoodResponse	1	0.0	n/a	5	30	ISIslide	Win	True
300.026	0.25	Lose2	0.625	0.0	No	2.824	0.026	n/a	NoResponse	-1	n/a	n/a	4	31	Cue	Loss	True
300.276	4.05	Lose2	0.625	0.001	No	2.824	0.0	n/a	NoResponse	-1	n/a	n/a	4	31	Fixation	Loss	True
304.322	0.37	Lose2	0.625	0.004	No	2.824	-0.004	2.0	NoResponse	-1	0.392	303.714	4	31	Target	Loss	True
304.706	0.33	Lose2	0.625	n/a	No	2.824	n/a	n/a	NoResponse	-1	n/a	n/a	4	31	Blank	Loss	True
304.714	0.3	Lose2	0.625	0.004	No	2.824	-0.004	2.0	NoResponse	-1	0.392	n/a	4	31	ButtonPress	Loss	True
305.024	1.45	Lose2	0.625	n/a	No	2.824	n/a	5.0	NoResponse	-1	0.021	304.045	4	31	Feedback	Loss	True
306.478	2.824	Lose2	0.625	n/a	No	2.824	n/a	n/a	NoResponse	-1	0.0	n/a	4	31	ISIslide	Loss	True
309.32	0.25	Lose2	0.6364	0.0	Yes	2.63	0.02	n/a	GoodResponse	0	n/a	n/a	4	32	Cue	AvoidedLoss	True
309.571	4.15	Lose2	0.6364	0.0	Yes	2.63	0.001	n/a	GoodResponse	0	n/a	n/a	4	32	Fixation	AvoidedLoss	True
313.717	0.38	Lose2	0.6364	0.003	Yes	2.63	-0.003	2.0	GoodResponse	0	0.199	312.916	4	32	Target	AvoidedLoss	True
313.916	0.3	Lose2	0.6364	0.003	Yes	2.63	-0.003	2.0	GoodResponse	0	0.199	n/a	4	32	ButtonPress	AvoidedLoss	True
314.101	0.32	Lose2	0.6364	n/a	Yes	2.63	n/a	n/a	GoodResponse	0	n/a	n/a	4	32	Blank	AvoidedLoss	True
314.419	1.45	Lose2	0.6364	n/a	Yes	2.63	n/a	5.0	GoodResponse	0	0.041	313.46	4	32	Feedback	AvoidedLoss	True
315.873	2.63	Lose2	0.6364	n/a	Yes	2.63	n/a	n/a	GoodResponse	0	0.0	n/a	4	32	ISIslide	AvoidedLoss	True
318.514	0.25	Win2	0.6470999999999999	0.0	Yes	2.686	0.014	n/a	GoodResponse	1	n/a	n/a	5	33	Cue	Win	True
318.765	4.0	Win2	0.6470999999999999	0.0	Yes	2.686	0.001	n/a	GoodResponse	1	n/a	n/a	5	33	Fixation	Win	True
322.76	0.39	Win2	0.6470999999999999	0.004	Yes	2.686	-0.004	2.0	GoodResponse	1	0.307	322.067	5	33	Target	Win	True
323.067	0.3	Win2	0.6470999999999999	0.004	Yes	2.686	-0.004	2.0	GoodResponse	1	0.307	n/a	5	33	ButtonPress	Win	True
323.162	0.31	Win2	0.6470999999999999	n/a	Yes	2.686	n/a	n/a	GoodResponse	1	n/a	n/a	5	33	Blank	Win	True
323.462	1.45	Win2	0.6470999999999999	n/a	Yes	2.686	n/a	5.0	GoodResponse	1	0.022	322.484	5	33	Feedback	Win	True
324.917	2.686	Win2	0.6470999999999999	n/a	Yes	2.686	n/a	n/a	GoodResponse	1	0.0	n/a	5	33	ISIslide	Win	True
327.625	0.25	Lose2	0.6570999999999999	0.0	Yes	2.625	0.025	n/a	GoodResponse	0	n/a	n/a	5	34	Cue	AvoidedLoss	True
327.876	4.05	Lose2	0.6570999999999999	0.0	Yes	2.625	0.001	n/a	GoodResponse	0	n/a	n/a	5	34	Fixation	AvoidedLoss	True
331.921	0.4	Lose2	0.6570999999999999	0.004	Yes	2.625	-0.004	2.0	GoodResponse	0	0.301	331.222	5	34	Target	AvoidedLoss	True
332.222	0.3	Lose2	0.6570999999999999	0.004	Yes	2.625	-0.004	2.0	GoodResponse	0	0.301	n/a	5	34	ButtonPress	AvoidedLoss	True
332.322	0.3	Lose2	0.6570999999999999	n/a	Yes	2.625	n/a	n/a	GoodResponse	0	n/a	n/a	5	34	Blank	AvoidedLoss	True
332.623	1.45	Lose2	0.6570999999999999	n/a	Yes	2.625	n/a	5.0	GoodResponse	0	0.032	331.655	5	34	Feedback	AvoidedLoss	True
334.078	2.625	Lose2	0.6570999999999999	n/a	Yes	2.625	n/a	n/a	GoodResponse	0	0.0	n/a	5	34	ISIslide	AvoidedLoss	True
336.719	0.25	Lose2	0.6667000000000001	0.0	Yes	2.681	0.019	n/a	GoodResponse	0	n/a	n/a	5	35	Cue	AvoidedLoss	True
336.969	4.0	Lose2	0.6667000000000001	0.001	Yes	2.681	0.0	n/a	GoodResponse	0	n/a	n/a	5	35	Fixation	AvoidedLoss	True
340.965	0.4	Lose2	0.6667000000000001	0.004	Yes	2.681	-0.004	2.0	GoodResponse	0	0.312	340.277	5	35	Target	AvoidedLoss	True
341.277	0.3	Lose2	0.6667000000000001	0.004	Yes	2.681	-0.004	2.0	GoodResponse	0	0.312	n/a	5	35	ButtonPress	AvoidedLoss	True
341.366	0.3	Lose2	0.6667000000000001	n/a	Yes	2.681	n/a	n/a	GoodResponse	0	n/a	n/a	5	35	Blank	AvoidedLoss	True
341.667	1.45	Lose2	0.6667000000000001	n/a	Yes	2.681	n/a	5.0	GoodResponse	0	0.011	340.678	5	35	Feedback	AvoidedLoss	True
343.121	2.681	Lose2	0.6667000000000001	n/a	Yes	2.681	n/a	n/a	GoodResponse	0	0.0	n/a	5	35	ISIslide	AvoidedLoss	True
345.813	0.25	Control	0.6486	0.0	No	2.687	0.013	n/a	NoResponse	0	n/a	n/a	5	36	Cue	Neutral	False
346.063	4.0	Control	0.6486	0.0	No	2.687	0.0	n/a	NoResponse	0	n/a	n/a	5	36	Fixation	Neutral	False
350.059	0.39	Control	0.6486	0.004	No	2.687	-0.004	n/a	NoResponse	0	n/a	n/a	5	36	Target	Neutral	False
350.46	0.31	Control	0.6486	n/a	No	2.687	n/a	n/a	NoResponse	0	n/a	n/a	5	36	Blank	Neutral	False
350.761	1.45	Control	0.6486	n/a	No	2.687	n/a	5.0	NoResponse	0	0.039	349.8	5	36	Feedback	Neutral	False
352.215	2.687	Control	0.6486	n/a	No	2.687	n/a	n/a	NoResponse	0	0.0	n/a	5	36	ISIslide	Neutral	False
354.923	0.25	Win2	0.6579	0.0	Yes	2.877	0.023	n/a	GoodResponse	1	n/a	n/a	6	37	Cue	Win	True
355.174	4.0	Win2	0.6579	0.0	Yes	2.877	0.001	n/a	GoodResponse	1	n/a	n/a	6	37	Fixation	Win	True
359.169	0.4	Win2	0.6579	0.004	Yes	2.877	-0.004	2.0	GoodResponse	1	0.234	358.403	6	37	Target	Win	True
359.403	0.3	Win2	0.6579	0.004	Yes	2.877	-0.004	2.0	GoodResponse	1	0.234	n/a	6	37	ButtonPress	Win	True
359.57	0.3	Win2	0.6579	n/a	Yes	2.877	n/a	n/a	GoodResponse	1	n/a	n/a	6	37	Blank	Win	True
359.871	1.45	Win2	0.6579	n/a	Yes	2.877	n/a	5.0	GoodResponse	1	0.004	358.875	6	37	Feedback	Win	True
361.326	2.877	Win2	0.6579	n/a	Yes	2.877	n/a	n/a	GoodResponse	1	0.0	n/a	6	37	ISIslide	Win	True
364.218	0.25	Lose2	0.6667000000000001	0.0	Yes	2.832	0.018	n/a	GoodResponse	0	n/a	n/a	6	38	Cue	AvoidedLoss	True
364.468	3.95	Lose2	0.6667000000000001	0.0	Yes	2.832	0.0	n/a	GoodResponse	0	n/a	n/a	6	38	Fixation	AvoidedLoss	True
368.414	0.4	Lose2	0.6667000000000001	0.004	Yes	2.832	-0.004	2.0	GoodResponse	0	0.341	367.755	6	38	Target	AvoidedLoss	True
368.755	0.3	Lose2	0.6667000000000001	0.004	Yes	2.832	-0.004	2.0	GoodResponse	0	0.341	n/a	6	38	ButtonPress	AvoidedLoss	True
368.815	0.3	Lose2	0.6667000000000001	n/a	Yes	2.832	n/a	n/a	GoodResponse	0	n/a	n/a	6	38	Blank	AvoidedLoss	True
369.116	1.45	Lose2	0.6667000000000001	n/a	Yes	2.832	n/a	5.0	GoodResponse	0	0.026	368.142	6	38	Feedback	AvoidedLoss	True
370.57	2.832	Lose2	0.6667000000000001	n/a	Yes	2.832	n/a	n/a	GoodResponse	0	0.0	n/a	6	38	ISIslide	AvoidedLoss	True
373.429	0.25	Win2	0.675	0.0	Yes	2.971	0.029	n/a	GoodResponse	1	n/a	n/a	7	39	Cue	Win	True
373.679	4.1	Win2	0.675	0.0	Yes	2.971	0.0	n/a	GoodResponse	1	n/a	n/a	7	39	Fixation	Win	True
377.775	0.39	Win2	0.675	0.004	Yes	2.971	-0.004	2.0	GoodResponse	1	0.241	377.016	7	39	Target	Win	True
378.016	0.3	Win2	0.675	0.004	Yes	2.971	-0.004	2.0	GoodResponse	1	0.241	n/a	7	39	ButtonPress	Win	True
378.176	0.31	Win2	0.675	n/a	Yes	2.971	n/a	n/a	GoodResponse	1	n/a	n/a	7	39	Blank	Win	True
378.477	1.45	Win2	0.675	n/a	Yes	2.971	n/a	5.0	GoodResponse	1	0.03	377.507	7	39	Feedback	Win	True
379.931	2.971	Win2	0.675	n/a	Yes	2.971	n/a	n/a	GoodResponse	1	0.0	n/a	7	39	ISIslide	Win	True
382.924	0.25	Win2	0.6829000000000001	0.0	Yes	2.726	0.024	n/a	GoodResponse	1	n/a	n/a	8	40	Cue	Win	True
383.174	3.95	Win2	0.6829000000000001	0.0	Yes	2.726	0.0	n/a	GoodResponse	1	n/a	n/a	8	40	Fixation	Win	True
387.136	0.38	Win2	0.6829000000000001	0.0	Yes	2.726	0.012	2.0	GoodResponse	1	0.251	386.387	8	40	Target	Win	True
387.387	0.3	Win2	0.6829000000000001	0.0	Yes	2.726	0.012	2.0	GoodResponse	1	0.251	n/a	8	40	ButtonPress	Win	True
387.504	0.32	Win2	0.6829000000000001	n/a	Yes	2.726	n/a	n/a	GoodResponse	1	n/a	n/a	8	40	Blank	Win	True
387.822	1.45	Win2	0.6829000000000001	n/a	Yes	2.726	n/a	5.0	GoodResponse	1	0.005	386.827	8	40	Feedback	Win	True
389.276	2.726	Win2	0.6829000000000001	n/a	Yes	2.726	n/a	n/a	GoodResponse	1	0.0	n/a	8	40	ISIslide	Win	True
392.017	0.25	Win2	0.6905	0.001	Yes	2.783	0.017	n/a	GoodResponse	1	n/a	n/a	9	41	Cue	Win	True
392.268	3.9	Win2	0.6905	0.0	Yes	2.783	0.001	n/a	GoodResponse	1	n/a	n/a	9	41	Fixation	Win	True
396.163	0.37	Win2	0.6905	0.004	Yes	2.783	-0.004	2.0	GoodResponse	1	0.256	395.419	9	41	Target	Win	True
396.419	0.3	Win2	0.6905	0.004	Yes	2.783	-0.004	2.0	GoodResponse	1	0.256	n/a	9	41	ButtonPress	Win	True
396.548	0.33	Win2	0.6905	n/a	Yes	2.783	n/a	n/a	GoodResponse	1	n/a	n/a	9	41	Blank	Win	True
396.865	1.45	Win2	0.6905	n/a	Yes	2.783	n/a	5.0	GoodResponse	1	0.033	395.898	9	41	Feedback	Win	True
398.32	2.783	Win2	0.6905	n/a	Yes	2.783	n/a	n/a	GoodResponse	1	0.0	n/a	9	41	ISIslide	Win	True
401.128	0.25	Control	0.6977	0.0	Yes	2.922	0.028	n/a	GoodResponse	0	n/a	n/a	9	42	Cue	Neutral	True
401.379	3.85	Control	0.6977	0.0	Yes	2.922	0.001	n/a	GoodResponse	0	n/a	n/a	9	42	Fixation	Neutral	True
405.224	0.36	Control	0.6977	0.004	Yes	2.922	-0.004	2.0	GoodResponse	0	0.355	404.579	9	42	Target	Neutral	True
405.579	0.3	Control	0.6977	0.004	Yes	2.922	-0.004	2.0	GoodResponse	0	0.355	n/a	9	42	ButtonPress	Neutral	True
405.591	0.34	Control	0.6977	n/a	Yes	2.922	n/a	n/a	GoodResponse	0	n/a	n/a	9	42	Blank	Neutral	True
405.926	1.45	Control	0.6977	n/a	Yes	2.922	n/a	5.0	GoodResponse	0	0.045	404.971	9	42	Feedback	Neutral	True
407.38	2.922	Control	0.6977	n/a	Yes	2.922	n/a	n/a	GoodResponse	0	0.0	n/a	9	42	ISIslide	Neutral	True
410.322	0.25	Win2	0.7045	0.0	Yes	3.178	0.022	n/a	GoodResponse	1	n/a	n/a	10	43	Cue	Win	True
410.573	4.0	Win2	0.7045	0.0	Yes	3.178	0.001	n/a	GoodResponse	1	n/a	n/a	10	43	Fixation	Win	True
414.568	0.35	Win2	0.7045	0.004	Yes	3.178	-0.004	2.0	GoodResponse	1	0.241	413.809	10	43	Target	Win	True
414.809	0.3	Win2	0.7045	0.004	Yes	3.178	-0.004	2.0	GoodResponse	1	0.241	n/a	10	43	ButtonPress	Win	True
414.919	0.35	Win2	0.7045	n/a	Yes	3.178	n/a	n/a	GoodResponse	1	n/a	n/a	10	43	Blank	Win	True
415.27	1.45	Win2	0.7045	n/a	Yes	3.178	n/a	5.0	GoodResponse	1	0.018	414.288	10	43	Feedback	Win	True
416.725	3.178	Win2	0.7045	n/a	Yes	3.178	n/a	n/a	GoodResponse	1	0.0	n/a	10	43	ISIslide	Win	True
419.918	0.25	Win2	0.7111	0.0	Yes	2.982	0.018	n/a	GoodResponse	1	n/a	n/a	11	44	Cue	Win	True
420.168	4.0	Win2	0.7111	0.0	Yes	2.982	0.0	n/a	GoodResponse	1	n/a	n/a	11	44	Fixation	Win	True
424.164	0.34	Win2	0.7111	0.004	Yes	2.982	-0.004	2.0	GoodResponse	1	0.324	423.488	11	44	Target	Win	True
424.488	0.3	Win2	0.7111	0.004	Yes	2.982	-0.004	2.0	GoodResponse	1	0.324	n/a	11	44	ButtonPress	Win	True
424.515	0.36	Win2	0.7111	n/a	Yes	2.982	n/a	n/a	GoodResponse	1	n/a	n/a	11	44	Blank	Win	True
424.866	1.45	Win2	0.7111	n/a	Yes	2.982	n/a	5.0	GoodResponse	1	0.031	423.897	11	44	Feedback	Win	True
426.32	2.982	Win2	0.7111	n/a	Yes	2.982	n/a	n/a	GoodResponse	1	0.0	n/a	11	44	ISIslide	Win	True
429.312	0.25	Control	0.6957	0.0	No	2.888	0.012	n/a	NoResponse	0	n/a	n/a	11	45	Cue	Neutral	False
429.563	4.1	Control	0.6957	0.0	No	2.888	0.001	n/a	NoResponse	0	n/a	n/a	11	45	Fixation	Neutral	False
433.659	0.33	Control	0.6957	0.003	No	2.888	-0.003	n/a	NoResponse	0	n/a	n/a	11	45	Target	Neutral	False
433.993	0.37	Control	0.6957	n/a	No	2.888	n/a	n/a	NoResponse	0	n/a	n/a	11	45	Blank	Neutral	False
434.361	1.45	Control	0.6957	n/a	No	2.888	n/a	5.0	NoResponse	0	0.048	433.409	11	45	Feedback	Neutral	False
435.815	2.888	Control	0.6957	n/a	No	2.888	n/a	n/a	NoResponse	0	0.0	n/a	11	45	ISIslide	Neutral	False
438.724	0.25	Lose2	0.6809000000000001	0.0	No	3.376	0.024	n/a	NoResponse	-1	n/a	n/a	10	46	Cue	Loss	True
438.974	4.0	Lose2	0.6809000000000001	0.001	No	3.376	0.0	n/a	NoResponse	-1	n/a	n/a	10	46	Fixation	Loss	True
442.97	0.32	Lose2	0.6809000000000001	0.004	No	3.376	-0.004	2.0	NoResponse	-1	0.477	442.447	10	46	Target	Loss	True
443.304	0.38	Lose2	0.6809000000000001	n/a	No	3.376	n/a	n/a	NoResponse	-1	n/a	n/a	10	46	Blank	Loss	True
443.447	0.3	Lose2	0.6809000000000001	0.004	No	3.376	-0.004	2.0	NoResponse	-1	0.477	n/a	10	46	ButtonPress	Loss	True
443.672	1.45	Lose2	0.6809000000000001	n/a	No	3.376	n/a	5.0	NoResponse	-1	0.006	442.678	10	46	Feedback	Loss	True
445.126	3.376	Lose2	0.6809000000000001	n/a	No	3.376	n/a	n/a	NoResponse	-1	0.0	n/a	10	46	ISIslide	Loss	True
448.52	0.25	Lose2	0.6875	0.0	Yes	2.68	0.02	n/a	GoodResponse	0	n/a	n/a	10	47	Cue	AvoidedLoss	True
448.77	4.0	Lose2	0.6875	0.001	Yes	2.68	0.0	n/a	GoodResponse	0	n/a	n/a	10	47	Fixation	AvoidedLoss	True
452.766	0.31	Lose2	0.6875	0.004	Yes	2.68	-0.004	2.0	GoodResponse	0	0.287	452.053	10	47	Target	AvoidedLoss	True
453.053	0.3	Lose2	0.6875	0.004	Yes	2.68	-0.004	2.0	GoodResponse	0	0.287	n/a	10	47	ButtonPress	AvoidedLoss	True
453.083	0.39	Lose2	0.6875	n/a	Yes	2.68	n/a	n/a	GoodResponse	0	n/a	n/a	10	47	Blank	AvoidedLoss	True
453.468	1.45	Lose2	0.6875	n/a	Yes	2.68	n/a	5.0	GoodResponse	0	0.015	452.483	10	47	Feedback	AvoidedLoss	True
454.922	2.68	Lose2	0.6875	n/a	Yes	2.68	n/a	n/a	GoodResponse	0	0.0	n/a	10	47	ISIslide	AvoidedLoss	True
457.614	0.25	Lose2	0.6939	0.0	Yes	3.036	0.014	n/a	GoodResponse	0	n/a	n/a	10	48	Cue	AvoidedLoss	True
457.864	3.95	Lose2	0.6939	0.0	Yes	3.036	0.0	n/a	GoodResponse	0	n/a	n/a	10	48	Fixation	AvoidedLoss	True
461.826	0.3	Lose2	0.6939	0.0	Yes	3.036	0.012	2.0	GoodResponse	0	0.26	461.086	10	48	Target	AvoidedLoss	True
462.086	0.3	Lose2	0.6939	0.0	Yes	3.036	0.012	2.0	GoodResponse	0	0.26	n/a	10	48	ButtonPress	AvoidedLoss	True
462.11	0.4	Lose2	0.6939	n/a	Yes	3.036	n/a	n/a	GoodResponse	0	n/a	n/a	10	48	Blank	AvoidedLoss	True
462.512	1.45	Lose2	0.6939	n/a	Yes	3.036	n/a	5.0	GoodResponse	0	0.043	461.555	10	48	Feedback	AvoidedLoss	True
463.966	3.036	Lose2	0.6939	n/a	Yes	3.036	n/a	n/a	GoodResponse	0	0.0	n/a	10	48	ISIslide	AvoidedLoss	True
467.025	0.25	Control	0.68	0.0	No	2.875	0.025	n/a	NoResponse	0	n/a	n/a	10	49	Cue	Neutral	True
467.276	4.0	Control	0.68	0.0	No	2.875	0.001	n/a	NoResponse	0	n/a	n/a	10	49	Fixation	Neutral	True
471.271	0.29	Control	0.68	0.004	No	2.875	-0.004	2.0	NoResponse	0	0.383	470.654	10	49	Target	Neutral	True
471.572	0.41	Control	0.68	n/a	No	2.875	n/a	n/a	NoResponse	0	n/a	n/a	10	49	Blank	Neutral	True
471.654	0.3	Control	0.68	0.004	No	2.875	-0.004	2.0	NoResponse	0	0.383	n/a	10	49	ButtonPress	Neutral	True
471.973	1.45	Control	0.68	n/a	No	2.875	n/a	5.0	NoResponse	0	0.045	471.018	10	49	Feedback	Neutral	True
473.428	2.875	Control	0.68	n/a	No	2.875	n/a	n/a	NoResponse	0	0.0	n/a	10	49	ISIslide	Neutral	True
476.319	0.25	Control	0.6862999999999999	0.001	Yes	2.781	0.019	n/a	GoodResponse	0	n/a	n/a	10	50	Cue	Neutral	True
476.57	4.0	Control	0.6862999999999999	0.0	Yes	2.781	0.001	n/a	GoodResponse	0	n/a	n/a	10	50	Fixation	Neutral	True
480.566	0.28	Control	0.6862999999999999	0.003	Yes	2.781	-0.003	2.0	GoodResponse	0	0.276	479.842	10	50	Target	Neutral	True
480.842	0.3	Control	0.6862999999999999	0.003	Yes	2.781	-0.003	2.0	GoodResponse	0	0.276	n/a	10	50	ButtonPress	Neutral	True
480.85	0.42	Control	0.6862999999999999	n/a	Yes	2.781	n/a	n/a	GoodResponse	0	n/a	n/a	10	50	Blank	Neutral	True
481.268	1.45	Control	0.6862999999999999	n/a	Yes	2.781	n/a	5.0	GoodResponse	0	0.019	480.287	10	50	Feedback	Neutral	True
482.722	2.781	Control	0.6862999999999999	n/a	Yes	2.781	n/a	n/a	GoodResponse	0	0.0	n/a	10	50	ISIslide	Neutral	True
485.514	0.25	Control	0.6731	0.0	No	2.736	0.014	n/a	NoResponse	0	n/a	n/a	10	51	Cue	Neutral	False
485.764	3.95	Control	0.6731	0.0	No	2.736	0.0	n/a	NoResponse	0	n/a	n/a	10	51	Fixation	Neutral	False
489.71	0.27	Control	0.6731	0.004	No	2.736	-0.004	n/a	NoResponse	0	n/a	n/a	10	51	Target	Neutral	False
489.994	0.43	Control	0.6731	n/a	No	2.736	n/a	n/a	NoResponse	0	n/a	n/a	10	51	Blank	Neutral	False
490.412	1.45	Control	0.6731	n/a	No	2.736	n/a	5.0	NoResponse	0	0.046	489.458	10	51	Feedback	Neutral	False
491.866	2.736	Control	0.6731	n/a	No	2.736	n/a	n/a	NoResponse	0	0.0	n/a	10	51	ISIslide	Neutral	False
494.624	0.25	Control	0.6604000000000001	0.0	No	2.626	0.024	n/a	NoResponse	0	n/a	n/a	10	52	Cue	Neutral	False
494.875	4.05	Control	0.6604000000000001	0.0	No	2.626	0.001	n/a	NoResponse	0	n/a	n/a	10	52	Fixation	Neutral	False
498.92	0.26	Control	0.6604000000000001	0.004	No	2.626	-0.004	n/a	NoResponse	0	n/a	n/a	10	52	Target	Neutral	False
499.188	0.44	Control	0.6604000000000001	n/a	No	2.626	n/a	n/a	NoResponse	0	n/a	n/a	10	52	Blank	Neutral	False
499.622	1.45	Control	0.6604000000000001	n/a	No	2.626	n/a	5.0	NoResponse	0	0.006	498.628	10	52	Feedback	Neutral	False
501.077	2.626	Control	0.6604000000000001	n/a	No	2.626	n/a	n/a	NoResponse	0	0.0	n/a	10	52	ISIslide	Neutral	False
503.718	0.25	Win2	0.6667000000000001	0.0	Yes	2.932	0.018	n/a	GoodResponse	1	n/a	n/a	11	53	Cue	Win	True
503.969	4.05	Win2	0.6667000000000001	0.0	Yes	2.932	0.001	n/a	GoodResponse	1	n/a	n/a	11	53	Fixation	Win	True
508.014	0.26	Win2	0.6667000000000001	0.004	Yes	2.932	-0.004	2.0	GoodResponse	1	0.232	507.246	11	53	Target	Win	True
508.246	0.3	Win2	0.6667000000000001	0.004	Yes	2.932	-0.004	2.0	GoodResponse	1	0.232	n/a	11	53	ButtonPress	Win	True
508.282	0.44	Win2	0.6667000000000001	n/a	Yes	2.932	n/a	n/a	GoodResponse	1	n/a	n/a	11	53	Blank	Win	True
508.716	1.45	Win2	0.6667000000000001	n/a	Yes	2.932	n/a	5.0	GoodResponse	1	0.033	507.749	11	53	Feedback	Win	True
510.171	2.932	Win2	0.6667000000000001	n/a	Yes	2.932	n/a	n/a	GoodResponse	1	0.0	n/a	11	53	ISIslide	Win	True
513.13	0.25	Win2	0.6545000000000001	0.0	No	2.72	0.03	n/a	NoResponse	0	n/a	n/a	11	54	Cue	MissedWin	True
513.38	3.95	Win2	0.6545000000000001	0.0	No	2.72	0.0	n/a	NoResponse	0	n/a	n/a	11	54	Fixation	MissedWin	True
517.342	0.25	Win2	0.6545000000000001	0.0	No	2.72	0.012	2.0	NoResponse	0	0.258	516.6	11	54	Target	MissedWin	True
517.576	0.45	Win2	0.6545000000000001	n/a	No	2.72	n/a	n/a	NoResponse	0	n/a	n/a	11	54	Blank	MissedWin	True
517.6	0.3	Win2	0.6545000000000001	0.0	No	2.72	0.012	2.0	NoResponse	0	0.258	n/a	11	54	ButtonPress	MissedWin	True
518.028	1.45	Win2	0.6545000000000001	n/a	No	2.72	n/a	5.0	NoResponse	0	0.039	517.067	11	54	Feedback	MissedWin	True
519.482	2.72	Win2	0.6545000000000001	n/a	No	2.72	n/a	n/a	NoResponse	0	0.0	n/a	11	54	ISIslide	MissedWin	True
522.223	0.25	Control	0.6429	0.0	No	3.027	0.023	n/a	NoResponse	0	n/a	n/a	11	55	Cue	Neutral	False
522.474	3.95	Control	0.6429	0.0	No	3.027	0.001	n/a	NoResponse	0	n/a	n/a	11	55	Fixation	Neutral	False
526.419	0.26	Control	0.6429	0.004	No	3.027	-0.004	n/a	NoResponse	0	n/a	n/a	11	55	Target	Neutral	False
526.687	0.44	Control	0.6429	n/a	No	3.027	n/a	n/a	NoResponse	0	n/a	n/a	11	55	Blank	Neutral	False
527.121	1.45	Control	0.6429	n/a	No	3.027	n/a	5.0	NoResponse	0	0.019	526.14	11	55	Feedback	Neutral	False
528.576	3.027	Control	0.6429	n/a	No	3.027	n/a	n/a	NoResponse	0	0.0	n/a	11	55	ISIslide	Neutral	False
531.618	0.25	Control	0.6315999999999999	0.0	No	2.832	0.018	n/a	NoResponse	0	n/a	n/a	11	56	Cue	Neutral	False
531.869	3.95	Control	0.6315999999999999	0.0	No	2.832	0.001	n/a	NoResponse	0	n/a	n/a	11	56	Fixation	Neutral	False
535.814	0.27	Control	0.6315999999999999	0.004	No	2.832	-0.004	n/a	NoResponse	0	n/a	n/a	11	56	Target	Neutral	False
536.098	0.43	Control	0.6315999999999999	n/a	No	2.832	n/a	n/a	NoResponse	0	n/a	n/a	11	56	Blank	Neutral	False
536.516	1.45	Control	0.6315999999999999	n/a	No	2.832	n/a	5.0	NoResponse	0	0.039	535.555	11	56	Feedback	Neutral	False
537.97	2.832	Control	0.6315999999999999	n/a	No	2.832	n/a	n/a	NoResponse	0	0.0	n/a	11	56	ISIslide	Neutral	False
540.812	0.25	Control	0.6207	0.0	No	3.488	0.012	n/a	NoResponse	0	n/a	n/a	11	57	Cue	Neutral	False
541.063	4.0	Control	0.6207	0.0	No	3.488	0.001	n/a	NoResponse	0	n/a	n/a	11	57	Fixation	Neutral	False
545.058	0.28	Control	0.6207	0.004	No	3.488	-0.004	n/a	NoResponse	0	n/a	n/a	11	57	Target	Neutral	False
545.343	0.42	Control	0.6207	n/a	No	3.488	n/a	n/a	NoResponse	0	n/a	n/a	11	57	Blank	Neutral	False
545.76	1.45	Control	0.6207	n/a	No	3.488	n/a	5.0	NoResponse	0	0.014	544.774	11	57	Feedback	Neutral	False
547.215	3.488	Control	0.6207	n/a	No	3.488	n/a	n/a	NoResponse	0	0.0	n/a	11	57	ISIslide	Neutral	False
550.725	0.25	Win2	0.6271	0.0	Yes	2.725	0.025	n/a	GoodResponse	1	n/a	n/a	12	58	Cue	Win	True
550.976	4.05	Win2	0.6271	0.0	Yes	2.725	0.001	n/a	GoodResponse	1	n/a	n/a	12	58	Fixation	Win	True
555.021	0.29	Win2	0.6271	0.004	Yes	2.725	-0.004	2.0	GoodResponse	1	0.286	554.307	12	58	Target	Win	True
555.307	0.3	Win2	0.6271	0.004	Yes	2.725	-0.004	2.0	GoodResponse	1	0.286	n/a	12	58	ButtonPress	Win	True
555.322	0.41	Win2	0.6271	n/a	Yes	2.725	n/a	n/a	GoodResponse	1	n/a	n/a	12	58	Blank	Win	True
555.724	1.45	Win2	0.6271	n/a	Yes	2.725	n/a	5.0	GoodResponse	1	0.004	554.728	12	58	Feedback	Win	True
557.178	2.725	Win2	0.6271	n/a	Yes	2.725	n/a	n/a	GoodResponse	1	0.0	n/a	12	58	ISIslide	Win	True
559.919	0.25	Lose2	0.6333	0.001	Yes	2.681	0.019	n/a	GoodResponse	0	n/a	n/a	12	59	Cue	AvoidedLoss	True
560.17	4.0	Lose2	0.6333	0.0	Yes	2.681	0.001	n/a	GoodResponse	0	n/a	n/a	12	59	Fixation	AvoidedLoss	True
564.165	0.3	Lose2	0.6333	0.004	Yes	2.681	-0.004	2.0	GoodResponse	0	0.225	563.39	12	59	Target	AvoidedLoss	True
564.39	0.3	Lose2	0.6333	0.004	Yes	2.681	-0.004	2.0	GoodResponse	0	0.225	n/a	12	59	ButtonPress	AvoidedLoss	True
564.466	0.4	Lose2	0.6333	n/a	Yes	2.681	n/a	n/a	GoodResponse	0	n/a	n/a	12	59	Blank	AvoidedLoss	True
564.868	1.45	Lose2	0.6333	n/a	Yes	2.681	n/a	5.0	GoodResponse	0	0.027	563.895	12	59	Feedback	AvoidedLoss	True
566.322	2.681	Lose2	0.6333	n/a	Yes	2.681	n/a	n/a	GoodResponse	0	0.0	n/a	12	59	ISIslide	AvoidedLoss	True
569.013	0.25	Control	0.623	0.0	No	2.687	0.013	n/a	NoResponse	0	n/a	n/a	12	60	Cue	Neutral	False
569.264	4.0	Control	0.623	0.0	No	2.687	0.001	n/a	NoResponse	0	n/a	n/a	12	60	Fixation	Neutral	False
573.259	0.31	Control	0.623	0.004	No	2.687	-0.004	n/a	NoResponse	0	n/a	n/a	12	60	Target	Neutral	False
573.577	0.39	Control	0.623	n/a	No	2.687	n/a	n/a	NoResponse	0	n/a	n/a	12	60	Blank	Neutral	False
573.961	1.45	Control	0.623	n/a	No	2.687	n/a	5.0	NoResponse	0	0.008	572.969	12	60	Feedback	Neutral	False
575.416	2.687	Control	0.623	n/a	No	2.687	n/a	n/a	NoResponse	0	0.0	n/a	12	60	ISIslide	Neutral	False
578.124	0.25	Lose2	0.629	0.0	Yes	2.976	0.024	n/a	GoodResponse	0	n/a	n/a	12	61	Cue	AvoidedLoss	True
578.375	4.0	Lose2	0.629	0.0	Yes	2.976	0.001	n/a	GoodResponse	0	n/a	n/a	12	61	Fixation	AvoidedLoss	True
582.37	0.32	Lose2	0.629	0.004	Yes	2.976	-0.004	2.0	GoodResponse	0	0.305	581.675	12	61	Target	AvoidedLoss	True
582.675	0.3	Lose2	0.629	0.004	Yes	2.976	-0.004	2.0	GoodResponse	0	0.305	n/a	12	61	ButtonPress	AvoidedLoss	True
582.704	0.38	Lose2	0.629	n/a	Yes	2.976	n/a	n/a	GoodResponse	0	n/a	n/a	12	61	Blank	AvoidedLoss	True
583.072	1.45	Lose2	0.629	n/a	Yes	2.976	n/a	5.0	GoodResponse	0	0.019	582.091	12	61	Feedback	AvoidedLoss	True
584.526	2.976	Lose2	0.629	n/a	Yes	2.976	n/a	n/a	GoodResponse	0	0.0	n/a	12	61	ISIslide	AvoidedLoss	True
587.519	0.25	Lose2	0.6349	0.0	Yes	2.881	0.019	n/a	GoodResponse	0	n/a	n/a	12	62	Cue	AvoidedLoss	True
587.769	3.9	Lose2	0.6349	0.0	Yes	2.881	0.0	n/a	GoodResponse	0	n/a	n/a	12	62	Fixation	AvoidedLoss	True
591.681	0.33	Lose2	0.6349	0.0	Yes	2.881	0.012	2.0	GoodResponse	0	0.224	590.905	12	62	Target	AvoidedLoss	True
591.905	0.3	Lose2	0.6349	0.0	Yes	2.881	0.012	2.0	GoodResponse	0	0.224	n/a	12	62	ButtonPress	AvoidedLoss	True
591.999	0.37	Lose2	0.6349	n/a	Yes	2.881	n/a	n/a	GoodResponse	0	n/a	n/a	12	62	Blank	AvoidedLoss	True
592.366	1.45	Lose2	0.6349	n/a	Yes	2.881	n/a	5.0	GoodResponse	0	0.041	591.407	12	62	Feedback	AvoidedLoss	True
593.821	2.881	Lose2	0.6349	n/a	Yes	2.881	n/a	n/a	GoodResponse	0	0.0	n/a	12	62	ISIslide	AvoidedLoss	True
596.73	0.25	Lose2	0.6406000000000001	0.0	Yes	2.62	0.03	n/a	GoodResponse	0	n/a	n/a	12	63	Cue	AvoidedLoss	True
596.98	4.05	Lose2	0.6406000000000001	0.0	Yes	2.62	0.0	n/a	GoodResponse	0	n/a	n/a	12	63	Fixation	AvoidedLoss	True
601.026	0.34	Lose2	0.6406000000000001	0.004	Yes	2.62	-0.004	2.0	GoodResponse	0	0.291	600.317	12	63	Target	AvoidedLoss	True
601.317	0.3	Lose2	0.6406000000000001	0.004	Yes	2.62	-0.004	2.0	GoodResponse	0	0.291	n/a	12	63	ButtonPress	AvoidedLoss	True
601.377	0.36	Lose2	0.6406000000000001	n/a	Yes	2.62	n/a	n/a	GoodResponse	0	n/a	n/a	12	63	Blank	AvoidedLoss	True
601.728	1.45	Lose2	0.6406000000000001	n/a	Yes	2.62	n/a	5.0	GoodResponse	0	0.045	600.773	12	63	Feedback	AvoidedLoss	True
603.182	2.62	Lose2	0.6406000000000001	n/a	Yes	2.62	n/a	n/a	GoodResponse	0	0.0	n/a	12	63	ISIslide	AvoidedLoss	True
605.823	0.25	Win2	0.6462	0.0	Yes	3.127	0.023	n/a	GoodResponse	1	n/a	n/a	13	64	Cue	Win	True
606.074	4.15	Win2	0.6462	0.0	Yes	3.127	0.001	n/a	GoodResponse	1	n/a	n/a	13	64	Fixation	Win	True
610.22	0.35	Win2	0.6462	0.003	Yes	3.127	-0.003	2.0	GoodResponse	1	0.262	609.482	13	64	Target	Win	True
610.482	0.3	Win2	0.6462	0.003	Yes	3.127	-0.003	2.0	GoodResponse	1	0.262	n/a	13	64	ButtonPress	Win	True
610.571	0.35	Win2	0.6462	n/a	Yes	3.127	n/a	n/a	GoodResponse	1	n/a	n/a	13	64	Blank	Win	True
610.922	1.45	Win2	0.6462	n/a	Yes	3.127	n/a	5.0	GoodResponse	1	0.022	609.944	13	64	Feedback	Win	True
612.376	3.127	Win2	0.6462	n/a	Yes	3.127	n/a	n/a	GoodResponse	1	0.0	n/a	13	64	ISIslide	Win	True
615.519	0.25	Control	0.6515000000000001	0.0	Yes	2.781	0.019	n/a	GoodResponse	0	n/a	n/a	13	65	Cue	Neutral	True
615.77	4.0	Control	0.6515000000000001	0.0	Yes	2.781	0.001	n/a	GoodResponse	0	n/a	n/a	13	65	Fixation	Neutral	True
619.765	0.36	Control	0.6515000000000001	0.004	Yes	2.781	-0.004	2.0	GoodResponse	0	0.326	619.091	13	65	Target	Neutral	True
620.091	0.3	Control	0.6515000000000001	0.004	Yes	2.781	-0.004	2.0	GoodResponse	0	0.326	n/a	13	65	ButtonPress	Neutral	True
620.133	0.34	Control	0.6515000000000001	n/a	Yes	2.781	n/a	n/a	GoodResponse	0	n/a	n/a	13	65	Blank	Neutral	True
620.467	1.45	Control	0.6515000000000001	n/a	Yes	2.781	n/a	5.0	GoodResponse	0	0.038	619.505	13	65	Feedback	Neutral	True
621.921	2.781	Control	0.6515000000000001	n/a	Yes	2.781	n/a	n/a	GoodResponse	0	0.0	n/a	13	65	ISIslide	Neutral	True
624.73	0.25	Win2	0.6567000000000001	0.0	Yes	2.77	0.03	n/a	GoodResponse	1	n/a	n/a	14	66	Cue	Win	True
624.981	3.9	Win2	0.6567000000000001	0.0	Yes	2.77	0.001	n/a	GoodResponse	1	n/a	n/a	14	66	Fixation	Win	True
628.876	0.37	Win2	0.6567000000000001	0.004	Yes	2.77	-0.004	2.0	GoodResponse	1	0.301	628.177	14	66	Target	Win	True
629.177	0.3	Win2	0.6567000000000001	0.004	Yes	2.77	-0.004	2.0	GoodResponse	1	0.301	n/a	14	66	ButtonPress	Win	True
629.26	0.33	Win2	0.6567000000000001	n/a	Yes	2.77	n/a	n/a	GoodResponse	1	n/a	n/a	14	66	Blank	Win	True
629.578	1.45	Win2	0.6567000000000001	n/a	Yes	2.77	n/a	5.0	GoodResponse	1	0.049	628.627	14	66	Feedback	Win	True
631.032	2.77	Win2	0.6567000000000001	n/a	Yes	2.77	n/a	n/a	GoodResponse	1	0.0	n/a	14	66	ISIslide	Win	True
633.824	0.25	Control	0.6470999999999999	0.0	No	2.726	0.024	n/a	NoResponse	0	n/a	n/a	14	67	Cue	Neutral	False
634.074	3.95	Control	0.6470999999999999	0.001	No	2.726	0.0	n/a	NoResponse	0	n/a	n/a	14	67	Fixation	Neutral	False
638.02	0.37	Control	0.6470999999999999	0.004	No	2.726	-0.004	n/a	NoResponse	0	n/a	n/a	14	67	Target	Neutral	False
638.404	0.33	Control	0.6470999999999999	n/a	No	2.726	n/a	n/a	NoResponse	0	n/a	n/a	14	67	Blank	Neutral	False
638.722	1.45	Control	0.6470999999999999	n/a	No	2.726	n/a	5.0	NoResponse	0	0.026	637.748	14	67	Feedback	Neutral	False
640.176	2.726	Control	0.6470999999999999	n/a	No	2.726	n/a	n/a	NoResponse	0	0.0	n/a	14	67	ISIslide	Neutral	False
642.918	0.25	Win2	0.6522	0.0	Yes	3.082	0.018	n/a	GoodResponse	1	n/a	n/a	15	68	Cue	Win	True
643.168	4.0	Win2	0.6522	0.0	Yes	3.082	0.0	n/a	GoodResponse	1	n/a	n/a	15	68	Fixation	Win	True
647.164	0.38	Win2	0.6522	0.004	Yes	3.082	-0.004	2.0	GoodResponse	1	0.249	646.413	15	68	Target	Win	True
647.413	0.3	Win2	0.6522	0.004	Yes	3.082	-0.004	2.0	GoodResponse	1	0.249	n/a	15	68	ButtonPress	Win	True
647.548	0.32	Win2	0.6522	n/a	Yes	3.082	n/a	n/a	GoodResponse	1	n/a	n/a	15	68	Blank	Win	True
647.866	1.45	Win2	0.6522	n/a	Yes	3.082	n/a	5.0	GoodResponse	1	0.005	646.871	15	68	Feedback	Win	True
649.32	3.082	Win2	0.6522	n/a	Yes	3.082	n/a	n/a	GoodResponse	1	0.0	n/a	15	68	ISIslide	Win	True
652.429	0.25	Win2	0.6570999999999999	0.0	Yes	3.221	0.029	n/a	GoodResponse	1	n/a	n/a	16	69	Cue	Win	True
652.68	3.95	Win2	0.6570999999999999	0.0	Yes	3.221	0.001	n/a	GoodResponse	1	n/a	n/a	16	69	Fixation	Win	True
656.625	0.39	Win2	0.6570999999999999	0.004	Yes	3.221	-0.004	2.0	GoodResponse	1	0.37	655.995	16	69	Target	Win	True
656.995	0.3	Win2	0.6570999999999999	0.004	Yes	3.221	-0.004	2.0	GoodResponse	1	0.37	n/a	16	69	ButtonPress	Win	True
657.026	0.31	Win2	0.6570999999999999	n/a	Yes	3.221	n/a	n/a	GoodResponse	1	n/a	n/a	16	69	Blank	Win	True
657.327	1.45	Win2	0.6570999999999999	n/a	Yes	3.221	n/a	5.0	GoodResponse	1	0.006	656.333	16	69	Feedback	Win	True
658.782	3.221	Win2	0.6570999999999999	n/a	Yes	3.221	n/a	n/a	GoodResponse	1	0.0	n/a	16	69	ISIslide	Win	True
662.025	0.25	Lose2	0.6479	0.0	No	3.025	0.025	n/a	LatePress	-1	n/a	n/a	15	70	Cue	Loss	True
662.275	4.05	Lose2	0.6479	0.001	No	3.025	0.0	n/a	LatePress	-1	n/a	n/a	15	70	Fixation	Loss	True
666.321	0.39	Lose2	0.6479	0.004	No	3.025	-0.004	2.0	LatePress	-1	0.401	665.722	15	70	Target	Loss	True
666.722	0.31	Lose2	0.6479	n/a	No	3.025	n/a	n/a	LatePress	-1	n/a	n/a	15	70	Blank	Loss	True
666.722	0.3	Lose2	0.6479	0.004	No	3.025	-0.004	2.0	LatePress	-1	0.401	n/a	15	70	ButtonPress	Loss	True
667.023	1.45	Lose2	0.6479	n/a	No	3.025	n/a	5.0	LatePress	-1	0.018	666.041	15	70	Feedback	Loss	True
668.477	3.025	Lose2	0.6479	n/a	No	3.025	n/a	n/a	LatePress	-1	0.0	n/a	15	70	ISIslide	Loss	True
671.52	0.25	Win2	0.6528	0.0	Yes	2.73	0.02	n/a	GoodResponse	1	n/a	n/a	16	71	Cue	Win	True
671.771	4.05	Win2	0.6528	0.0	Yes	2.73	0.001	n/a	GoodResponse	1	n/a	n/a	16	71	Fixation	Win	True
675.816	0.4	Win2	0.6528	0.004	Yes	2.73	-0.004	2.0	GoodResponse	1	0.348	675.164	16	71	Target	Win	True
676.164	0.3	Win2	0.6528	0.004	Yes	2.73	-0.004	2.0	GoodResponse	1	0.348	n/a	16	71	ButtonPress	Win	True
676.217	0.3	Win2	0.6528	n/a	Yes	2.73	n/a	n/a	GoodResponse	1	n/a	n/a	16	71	Blank	Win	True
676.518	1.45	Win2	0.6528	n/a	Yes	2.73	n/a	5.0	GoodResponse	1	0.035	675.553	16	71	Feedback	Win	True
677.972	2.73	Win2	0.6528	n/a	Yes	2.73	n/a	n/a	GoodResponse	1	0.0	n/a	16	71	ISIslide	Win	True
680.714	0.25	Win2	0.6575	0.0	Yes	2.786	0.014	n/a	GoodResponse	1	n/a	n/a	17	72	Cue	Win	True
680.965	4.1	Win2	0.6575	0.0	Yes	2.786	0.001	n/a	GoodResponse	1	n/a	n/a	17	72	Fixation	Win	True
685.06	0.41	Win2	0.6575	0.004	Yes	2.786	-0.004	2.0	GoodResponse	1	0.28	684.34	17	72	Target	Win	True
685.34	0.3	Win2	0.6575	0.004	Yes	2.786	-0.004	2.0	GoodResponse	1	0.28	n/a	17	72	ButtonPress	Win	True
685.478	0.29	Win2	0.6575	n/a	Yes	2.786	n/a	n/a	GoodResponse	1	n/a	n/a	17	72	Blank	Win	True
685.762	1.45	Win2	0.6575	n/a	Yes	2.786	n/a	5.0	GoodResponse	1	0.01	684.772	17	72	Feedback	Win	True
687.217	2.786	Win2	0.6575	n/a	Yes	2.786	n/a	n/a	GoodResponse	1	0.0	n/a	17	72	ISIslide	Win	True
690.025	0.25	Win2	0.6622	0.0	Yes	2.675	0.025	n/a	GoodResponse	1	n/a	n/a	18	73	Cue	Win	True
690.276	4.0	Win2	0.6622	0.0	Yes	2.675	0.001	n/a	GoodResponse	1	n/a	n/a	18	73	Fixation	Win	True
694.271	0.41	Win2	0.6622	0.004	Yes	2.675	-0.004	2.0	GoodResponse	1	0.258	693.529	18	73	Target	Win	True
694.529	0.3	Win2	0.6622	0.004	Yes	2.675	-0.004	2.0	GoodResponse	1	0.258	n/a	18	73	ButtonPress	Win	True
694.689	0.29	Win2	0.6622	n/a	Yes	2.675	n/a	n/a	GoodResponse	1	n/a	n/a	18	73	Blank	Win	True
694.973	1.45	Win2	0.6622	n/a	Yes	2.675	n/a	5.0	GoodResponse	1	0.018	693.991	18	73	Feedback	Win	True
696.428	2.675	Win2	0.6622	n/a	Yes	2.675	n/a	n/a	GoodResponse	1	0.0	n/a	18	73	ISIslide	Win	True
699.119	0.25	Lose2	0.6667000000000001	0.0	Yes	2.631	0.019	n/a	GoodResponse	0	n/a	n/a	18	74	Cue	AvoidedLoss	True
699.37	4.05	Lose2	0.6667000000000001	0.0	Yes	2.631	0.001	n/a	GoodResponse	0	n/a	n/a	18	74	Fixation	AvoidedLoss	True
703.415	0.41	Lose2	0.6667000000000001	0.004	Yes	2.631	-0.004	2.0	GoodResponse	0	0.287	702.702	18	74	Target	AvoidedLoss	True
703.702	0.3	Lose2	0.6667000000000001	0.004	Yes	2.631	-0.004	2.0	GoodResponse	0	0.287	n/a	18	74	ButtonPress	AvoidedLoss	True
703.833	0.29	Lose2	0.6667000000000001	n/a	Yes	2.631	n/a	n/a	GoodResponse	0	n/a	n/a	18	74	Blank	AvoidedLoss	True
704.117	1.45	Lose2	0.6667000000000001	n/a	Yes	2.631	n/a	5.0	GoodResponse	0	0.045	703.162	18	74	Feedback	AvoidedLoss	True
705.572	2.631	Lose2	0.6667000000000001	n/a	Yes	2.631	n/a	n/a	GoodResponse	0	0.0	n/a	18	74	ISIslide	AvoidedLoss	True
708.23	0.25	Lose2	0.6711	0.0	Yes	2.92	0.03	n/a	GoodResponse	0	n/a	n/a	18	75	Cue	AvoidedLoss	True
708.48	3.95	Lose2	0.6711	0.0	Yes	2.92	0.0	n/a	GoodResponse	0	n/a	n/a	18	75	Fixation	AvoidedLoss	True
712.442	0.4	Lose2	0.6711	0.0	Yes	2.92	0.012	2.0	GoodResponse	0	0.308	711.75	18	75	Target	AvoidedLoss	True
712.75	0.3	Lose2	0.6711	0.0	Yes	2.92	0.012	2.0	GoodResponse	0	0.308	n/a	18	75	ButtonPress	AvoidedLoss	True
712.827	0.3	Lose2	0.6711	n/a	Yes	2.92	n/a	n/a	GoodResponse	0	n/a	n/a	18	75	Blank	AvoidedLoss	True
713.128	1.45	Lose2	0.6711	n/a	Yes	2.92	n/a	5.0	GoodResponse	0	0.01	712.138	18	75	Feedback	AvoidedLoss	True
714.582	2.92	Lose2	0.6711	n/a	Yes	2.92	n/a	n/a	GoodResponse	0	0.0	n/a	18	75	ISIslide	AvoidedLoss	True
717.524	0.25	Control	0.6623	0.0	No	3.226	0.024	n/a	NoResponse	0	n/a	n/a	18	76	Cue	Neutral	False
717.775	4.05	Control	0.6623	0.0	No	3.226	0.001	n/a	NoResponse	0	n/a	n/a	18	76	Fixation	Neutral	False
721.82	0.39	Control	0.6623	0.004	No	3.226	-0.004	n/a	NoResponse	0	n/a	n/a	18	76	Target	Neutral	False
722.221	0.31	Control	0.6623	n/a	No	3.226	n/a	n/a	NoResponse	0	n/a	n/a	18	76	Blank	Neutral	False
722.522	1.45	Control	0.6623	n/a	No	3.226	n/a	5.0	NoResponse	0	0.03	721.552	18	76	Feedback	Neutral	False
723.977	3.226	Control	0.6623	n/a	No	3.226	n/a	n/a	NoResponse	0	0.0	n/a	18	76	ISIslide	Neutral	False
727.22	0.25	Lose2	0.6667000000000001	0.0	Yes	2.58	0.02	n/a	GoodResponse	0	n/a	n/a	18	77	Cue	AvoidedLoss	True
727.47	3.95	Lose2	0.6667000000000001	0.0	Yes	2.58	0.0	n/a	GoodResponse	0	n/a	n/a	18	77	Fixation	AvoidedLoss	True
731.416	0.39	Lose2	0.6667000000000001	0.004	Yes	2.58	-0.004	2.0	GoodResponse	0	0.304	730.72	18	77	Target	AvoidedLoss	True
731.72	0.3	Lose2	0.6667000000000001	0.004	Yes	2.58	-0.004	2.0	GoodResponse	0	0.304	n/a	18	77	ButtonPress	AvoidedLoss	True
731.817	0.31	Lose2	0.6667000000000001	n/a	Yes	2.58	n/a	n/a	GoodResponse	0	n/a	n/a	18	77	Blank	AvoidedLoss	True
732.118	1.45	Lose2	0.6667000000000001	n/a	Yes	2.58	n/a	5.0	GoodResponse	0	0.044	731.162	18	77	Feedback	AvoidedLoss	True
733.572	2.58	Lose2	0.6667000000000001	n/a	Yes	2.58	n/a	n/a	GoodResponse	0	0.0	n/a	18	77	ISIslide	AvoidedLoss	True
