onset	duration	cue_type	current_mean_accuracy	duration_error	is_hit	isi_adjusted	onset_delay	response	response_type	reward	rt	rt_time	total_reward	trial_number	trial_phase	trial_type	one_press
11.105	0.25	Control	1.0	0.0	Yes	2.945	0.005	n/a	GoodResponse	0	n/a	n/a	0	0	Cue	Neutral	True
11.356	3.85	Control	1.0	0.0	Yes	2.945	0.001	n/a	GoodResponse	0	n/a	n/a	0	0	Fixation	Neutral	True
15.217	0.4	Control	1.0	0.0	Yes	2.945	0.012	3.0	GoodResponse	0	0.23	14.447	0	0	Target	Neutral	True
15.447	0.3	Control	1.0	0.0	Yes	2.945	0.012	3.0	GoodResponse	0	0.23	n/a	0	0	ButtonPress	Neutral	True
15.602	0.3	Control	1.0	n/a	Yes	2.945	n/a	n/a	GoodResponse	0	n/a	n/a	0	0	Blank	Neutral	True
15.903	1.45	Control	1.0	n/a	Yes	2.945	n/a	5.0	GoodResponse	0	0.023	14.926	0	0	Feedback	Neutral	True
17.357	2.945	Control	1.0	n/a	Yes	2.945	n/a	n/a	GoodResponse	0	0.0	n/a	0	0	ISIslide	Neutral	True
20.316	0.25	Lose2	1.0	0.0	Yes	2.784	0.016	n/a	GoodResponse	0	n/a	n/a	0	1	Cue	AvoidedLoss	True
20.567	4.0	Lose2	1.0	0.0	Yes	2.784	0.001	n/a	GoodResponse	0	n/a	n/a	0	1	Fixation	AvoidedLoss	True
24.562	0.39	Lose2	1.0	0.004	Yes	2.784	-0.004	3.0	GoodResponse	0	0.192	23.754	0	1	Target	AvoidedLoss	True
24.754	0.3	Lose2	1.0	0.004	Yes	2.784	-0.004	3.0	GoodResponse	0	0.192	n/a	0	1	ButtonPress	AvoidedLoss	True
24.963	0.31	Lose2	1.0	n/a	Yes	2.784	n/a	n/a	GoodResponse	0	n/a	n/a	0	1	Blank	AvoidedLoss	True
25.264	1.45	Lose2	1.0	n/a	Yes	2.784	n/a	5.0	GoodResponse	0	0.027	24.291	0	1	Feedback	AvoidedLoss	True
26.718	2.784	Lose2	1.0	n/a	Yes	2.784	n/a	n/a	GoodResponse	0	0.0	n/a	0	1	ISIslide	AvoidedLoss	True
29.527	0.25	Control	1.0	0.0	Yes	2.573	0.027	n/a	GoodResponse	0	n/a	n/a	0	2	Cue	Neutral	True
29.778	4.1	Control	1.0	0.0	Yes	2.573	0.001	n/a	GoodResponse	0	n/a	n/a	0	2	Fixation	Neutral	True
33.873	0.38	Control	1.0	0.004	Yes	2.573	-0.004	4.0	GoodResponse	0	0.22	33.093	0	2	Target	Neutral	True
34.093	0.3	Control	1.0	0.004	Yes	2.573	-0.004	4.0	GoodResponse	0	0.22	n/a	0	2	ButtonPress	Neutral	True
34.258	0.32	Control	1.0	n/a	Yes	2.573	n/a	n/a	GoodResponse	0	n/a	n/a	0	2	Blank	Neutral	True
34.575	1.45	Control	1.0	n/a	Yes	2.573	n/a	5.0	GoodResponse	0	0.034	33.609	0	2	Feedback	Neutral	True
36.03	2.573	Control	1.0	n/a	Yes	2.573	n/a	4.0	GoodResponse	0	1.379	n/a	0	2	ISIslide	Neutral	True
38.604	0.25	Win2	1.0	0.0	Yes	2.846	0.004	n/a	GoodResponse	1	n/a	n/a	1	3	Cue	Win	True
38.855	3.95	Win2	1.0	0.0	Yes	2.846	0.001	n/a	GoodResponse	1	n/a	n/a	1	3	Fixation	Win	True
42.8	0.37	Win2	1.0	0.004	Yes	2.846	-0.004	4.0	GoodResponse	1	0.212	42.012	1	3	Target	Win	True
43.012	0.3	Win2	1.0	0.004	Yes	2.846	-0.004	4.0	GoodResponse	1	0.212	n/a	1	3	ButtonPress	Win	True
43.184	0.33	Win2	1.0	n/a	Yes	2.846	n/a	n/a	GoodResponse	1	n/a	n/a	1	3	Blank	Win	True
43.502	1.45	Win2	1.0	n/a	Yes	2.846	n/a	5.0	GoodResponse	1	0.034	42.536	1	3	Feedback	Win	True
44.956	2.846	Win2	1.0	n/a	Yes	2.846	n/a	n/a	GoodResponse	1	0.0	n/a	1	3	ISIslide	Win	True
47.815	0.25	Win2	1.0	0.0	Yes	3.285	0.015	n/a	GoodResponse	1	n/a	n/a	2	4	Cue	Win	True
48.066	4.0	Win2	1.0	0.0	Yes	3.285	0.001	n/a	GoodResponse	1	n/a	n/a	2	4	Fixation	Win	True
52.061	0.36	Win2	1.0	0.004	Yes	3.285	-0.004	4.0	GoodResponse	1	0.234	51.295	2	4	Target	Win	True
52.295	0.3	Win2	1.0	0.004	Yes	3.285	-0.004	4.0	GoodResponse	1	0.234	n/a	2	4	ButtonPress	Win	True
52.429	0.34	Win2	1.0	n/a	Yes	3.285	n/a	n/a	GoodResponse	1	n/a	n/a	2	4	Blank	Win	True
52.763	1.45	Win2	1.0	n/a	Yes	3.285	n/a	5.0	GoodResponse	1	0.041	51.804	2	4	Feedback	Win	True
54.218	3.285	Win2	1.0	n/a	Yes	3.285	n/a	n/a	GoodResponse	1	0.0	n/a	2	4	ISIslide	Win	True
57.527	0.25	Win2	1.0	0.001	Yes	2.773	0.027	n/a	GoodResponse	1	n/a	n/a	3	5	Cue	Win	True
57.778	4.0	Win2	1.0	0.0	Yes	2.773	0.001	n/a	GoodResponse	1	n/a	n/a	3	5	Fixation	Win	True
61.774	0.35	Win2	1.0	0.003	Yes	2.773	-0.003	4.0	GoodResponse	1	0.198	60.972	3	5	Target	Win	True
61.972	0.3	Win2	1.0	0.003	Yes	2.773	-0.003	4.0	GoodResponse	1	0.198	n/a	3	5	ButtonPress	Win	True
62.125	0.35	Win2	1.0	n/a	Yes	2.773	n/a	n/a	GoodResponse	1	n/a	n/a	3	5	Blank	Win	True
62.476	1.45	Win2	1.0	n/a	Yes	2.773	n/a	5.0	GoodResponse	1	0.035	61.511	3	5	Feedback	Win	True
63.93	2.773	Win2	1.0	n/a	Yes	2.773	n/a	n/a	GoodResponse	1	0.0	n/a	3	5	ISIslide	Win	True
66.722	0.25	Lose2	1.0	0.0	Yes	2.728	0.022	n/a	GoodResponse	0	n/a	n/a	3	6	Cue	AvoidedLoss	True
66.972	3.95	Lose2	1.0	0.001	Yes	2.728	0.0	n/a	GoodResponse	0	n/a	n/a	3	6	Fixation	AvoidedLoss	True
70.918	0.34	Lose2	1.0	0.004	Yes	2.728	-0.004	4.0	GoodResponse	0	0.188	70.106	3	6	Target	AvoidedLoss	True
71.106	0.3	Lose2	1.0	0.004	Yes	2.728	-0.004	4.0	GoodResponse	0	0.188	n/a	3	6	ButtonPress	AvoidedLoss	True
71.269	0.36	Lose2	1.0	n/a	Yes	2.728	n/a	n/a	GoodResponse	0	n/a	n/a	3	6	Blank	AvoidedLoss	True
71.62	1.45	Lose2	1.0	n/a	Yes	2.728	n/a	5.0	GoodResponse	0	0.013	70.633	3	6	Feedback	AvoidedLoss	True
73.074	2.728	Lose2	1.0	n/a	Yes	2.728	n/a	n/a	GoodResponse	0	0.0	n/a	3	6	ISIslide	AvoidedLoss	True
75.816	0.25	Lose2	1.0	0.0	Yes	4.034	0.016	n/a	GoodResponse	0	n/a	n/a	3	7	Cue	AvoidedLoss	True
76.066	4.05	Lose2	1.0	0.0	Yes	4.034	0.0	n/a	GoodResponse	0	n/a	n/a	3	7	Fixation	AvoidedLoss	True
80.112	0.33	Lose2	1.0	0.004	Yes	4.034	-0.004	4.0	GoodResponse	0	0.194	79.306	3	7	Target	AvoidedLoss	True
80.306	0.3	Lose2	1.0	0.004	Yes	4.034	-0.004	4.0	GoodResponse	0	0.194	n/a	3	7	ButtonPress	AvoidedLoss	True
80.446	0.37	Lose2	1.0	n/a	Yes	4.034	n/a	n/a	GoodResponse	0	n/a	n/a	3	7	Blank	AvoidedLoss	True
80.814	1.45	Lose2	1.0	n/a	Yes	4.034	n/a	5.0	GoodResponse	0	0.038	79.852	3	7	Feedback	AvoidedLoss	True
82.268	4.034	Lose2	1.0	n/a	Yes	4.034	n/a	n/a	GoodResponse	0	0.0	n/a	3	7	ISIslide	AvoidedLoss	True
86.331	0.25	Lose2	1.0	0.0	Yes	3.019	0.031	n/a	GoodResponse	0	n/a	n/a	3	8	Cue	AvoidedLoss	True
86.581	3.95	Lose2	1.0	0.0	Yes	3.019	0.0	n/a	GoodResponse	0	n/a	n/a	3	8	Fixation	AvoidedLoss	True
90.543	0.32	Lose2	1.0	0.0	Yes	3.019	0.012	4.0	GoodResponse	0	0.2	89.743	3	8	Target	AvoidedLoss	True
90.743	0.3	Lose2	1.0	0.0	Yes	3.019	0.012	4.0	GoodResponse	0	0.2	n/a	3	8	ButtonPress	AvoidedLoss	True
90.861	0.38	Lose2	1.0	n/a	Yes	3.019	n/a	n/a	GoodResponse	0	n/a	n/a	3	8	Blank	AvoidedLoss	True
91.229	1.45	Lose2	1.0	n/a	Yes	3.019	n/a	5.0	GoodResponse	0	0.013	90.242	3	8	Feedback	AvoidedLoss	True
92.683	3.019	Lose2	1.0	n/a	Yes	3.019	n/a	n/a	GoodResponse	0	0.0	n/a	3	8	ISIslide	AvoidedLoss	True
95.725	0.25	Lose2	1.0	0.0	Yes	3.125	0.025	n/a	GoodResponse	0	n/a	n/a	3	9	Cue	AvoidedLoss	True
95.976	3.95	Lose2	1.0	0.0	Yes	3.125	0.001	n/a	GoodResponse	0	n/a	n/a	3	9	Fixation	AvoidedLoss	True
99.921	0.31	Lose2	1.0	0.004	Yes	3.125	-0.004	4.0	GoodResponse	0	0.185	99.106	3	9	Target	AvoidedLoss	True
100.106	0.3	Lose2	1.0	0.004	Yes	3.125	-0.004	4.0	GoodResponse	0	0.185	n/a	3	9	ButtonPress	AvoidedLoss	True
100.239	0.39	Lose2	1.0	n/a	Yes	3.125	n/a	n/a	GoodResponse	0	n/a	n/a	3	9	Blank	AvoidedLoss	True
100.623	1.45	Lose2	1.0	n/a	Yes	3.125	n/a	5.0	GoodResponse	0	0.034	99.657	3	9	Feedback	AvoidedLoss	True
102.078	3.125	Lose2	1.0	n/a	Yes	3.125	n/a	n/a	GoodResponse	0	0.0	n/a	3	9	ISIslide	AvoidedLoss	True
105.221	0.25	Control	1.0	0.0	Yes	3.279	0.021	n/a	GoodResponse	0	n/a	n/a	3	10	Cue	Neutral	True
105.471	4.0	Control	1.0	0.0	Yes	3.279	0.0	n/a	GoodResponse	0	n/a	n/a	3	10	Fixation	Neutral	True
109.467	0.3	Control	1.0	0.004	Yes	3.279	-0.004	4.0	GoodResponse	0	0.185	108.652	3	10	Target	Neutral	True
109.652	0.3	Control	1.0	0.004	Yes	3.279	-0.004	4.0	GoodResponse	0	0.185	n/a	3	10	ButtonPress	Neutral	True
109.768	0.4	Control	1.0	n/a	Yes	3.279	n/a	n/a	GoodResponse	0	n/a	n/a	3	10	Blank	Neutral	True
110.169	1.45	Control	1.0	n/a	Yes	3.279	n/a	5.0	GoodResponse	0	0.0	109.169	3	10	Feedback	Neutral	True
111.623	3.279	Control	1.0	n/a	Yes	3.279	n/a	n/a	GoodResponse	0	0.0	n/a	3	10	ISIslide	Neutral	True
114.916	0.25	Lose2	1.0	0.0	Yes	2.734	0.016	n/a	GoodResponse	0	n/a	n/a	3	11	Cue	AvoidedLoss	True
115.167	4.05	Lose2	1.0	0.0	Yes	2.734	0.001	n/a	GoodResponse	0	n/a	n/a	3	11	Fixation	AvoidedLoss	True
119.213	0.29	Lose2	1.0	0.003	Yes	2.734	-0.003	4.0	GoodResponse	0	0.191	118.404	3	11	Target	AvoidedLoss	True
119.404	0.3	Lose2	1.0	0.003	Yes	2.734	-0.003	4.0	GoodResponse	0	0.191	n/a	3	11	ButtonPress	AvoidedLoss	True
119.513	0.41	Lose2	1.0	n/a	Yes	2.734	n/a	n/a	GoodResponse	0	n/a	n/a	3	11	Blank	AvoidedLoss	True
119.915	1.45	Lose2	1.0	n/a	Yes	2.734	n/a	5.0	GoodResponse	0	0.011	118.926	3	11	Feedback	AvoidedLoss	True
121.369	2.734	Lose2	1.0	n/a	Yes	2.734	n/a	n/a	GoodResponse	0	0.0	n/a	3	11	ISIslide	AvoidedLoss	True
124.127	0.25	Control	1.0	0.0	Yes	2.973	0.027	n/a	GoodResponse	0	n/a	n/a	3	12	Cue	Neutral	True
124.378	3.9	Control	1.0	0.0	Yes	2.973	0.001	n/a	GoodResponse	0	n/a	n/a	3	12	Fixation	Neutral	True
128.273	0.28	Control	1.0	0.004	Yes	2.973	-0.004	4.0	GoodResponse	0	0.271	127.544	3	12	Target	Neutral	True
128.544	0.3	Control	1.0	0.004	Yes	2.973	-0.004	4.0	GoodResponse	0	0.271	n/a	3	12	ButtonPress	Neutral	True
128.557	0.42	Control	1.0	n/a	Yes	2.973	n/a	n/a	GoodResponse	0	n/a	n/a	3	12	Blank	Neutral	True
128.975	1.45	Control	1.0	n/a	Yes	2.973	n/a	5.0	GoodResponse	0	0.024	127.999	3	12	Feedback	Neutral	True
130.43	2.973	Control	1.0	n/a	Yes	2.973	n/a	n/a	GoodResponse	0	0.0	n/a	3	12	ISIslide	Neutral	True
133.422	0.25	Control	1.0	0.0	Yes	2.778	0.022	n/a	GoodResponse	0	n/a	n/a	3	13	Cue	Neutral	True
133.673	4.0	Control	1.0	0.0	Yes	2.778	0.001	n/a	GoodResponse	0	n/a	n/a	3	13	Fixation	Neutral	True
137.668	0.27	Control	1.0	0.004	Yes	2.778	-0.004	4.0	GoodResponse	0	0.201	136.869	3	13	Target	Neutral	True
137.869	0.3	Control	1.0	0.004	Yes	2.778	-0.004	4.0	GoodResponse	0	0.201	n/a	3	13	ButtonPress	Neutral	True
137.952	0.43	Control	1.0	n/a	Yes	2.778	n/a	n/a	GoodResponse	0	n/a	n/a	3	13	Blank	Neutral	True
138.37	1.45	Control	1.0	n/a	Yes	2.778	n/a	5.0	GoodResponse	0	0.044	137.414	3	13	Feedback	Neutral	True
139.824	2.778	Control	1.0	n/a	Yes	2.778	n/a	n/a	GoodResponse	0	0.0	n/a	3	13	ISIslide	Neutral	True
142.616	0.25	Win2	1.0	0.0	Yes	2.684	0.016	n/a	GoodResponse	1	n/a	n/a	4	14	Cue	Win	True
142.867	4.1	Win2	1.0	0.0	Yes	2.684	0.001	n/a	GoodResponse	1	n/a	n/a	4	14	Fixation	Win	True
146.962	0.26	Win2	1.0	0.004	Yes	2.684	-0.004	4.0	GoodResponse	1	0.237	146.199	4	14	Target	Win	True
147.199	0.3	Win2	1.0	0.004	Yes	2.684	-0.004	4.0	GoodResponse	1	0.237	n/a	4	14	ButtonPress	Win	True
147.23	0.44	Win2	1.0	n/a	Yes	2.684	n/a	n/a	GoodResponse	1	n/a	n/a	4	14	Blank	Win	True
147.665	1.45	Win2	1.0	n/a	Yes	2.684	n/a	5.0	GoodResponse	1	0.017	146.682	4	14	Feedback	Win	True
149.119	2.684	Win2	1.0	n/a	Yes	2.684	n/a	n/a	GoodResponse	1	0.0	n/a	4	14	ISIslide	Win	True
151.827	0.25	Control	0.9375	0.0	No	2.973	0.027	n/a	NoResponse	0	n/a	n/a	4	15	Cue	Neutral	True
152.078	4.0	Control	0.9375	0.0	No	2.973	0.001	n/a	NoResponse	0	n/a	n/a	4	15	Fixation	Neutral	True
156.073	0.25	Control	0.9375	0.004	No	2.973	-0.004	4.0	NoResponse	0	0.269	155.342	4	15	Target	Neutral	True
156.324	0.45	Control	0.9375	n/a	No	2.973	n/a	n/a	NoResponse	0	n/a	n/a	4	15	Blank	Neutral	True
156.342	0.3	Control	0.9375	0.004	No	2.973	-0.004	4.0	NoResponse	0	0.269	n/a	4	15	ButtonPress	Neutral	True
156.775	1.45	Control	0.9375	n/a	No	2.973	n/a	5.0	NoResponse	0	0.028	155.803	4	15	Feedback	Neutral	True
158.23	2.973	Control	0.9375	n/a	No	2.973	n/a	n/a	NoResponse	0	0.0	n/a	4	15	ISIslide	Neutral	True
161.222	0.25	Win2	0.9412	0.0	Yes	2.878	0.022	n/a	GoodResponse	1	n/a	n/a	5	16	Cue	Win	True
161.473	4.0	Win2	0.9412	0.0	Yes	2.878	0.001	n/a	GoodResponse	1	n/a	n/a	5	16	Fixation	Win	True
165.468	0.24	Win2	0.9412	0.004	Yes	2.878	-0.004	4.0	GoodResponse	1	0.193	164.661	5	16	Target	Win	True
165.661	0.3	Win2	0.9412	0.004	Yes	2.878	-0.004	4.0	GoodResponse	1	0.193	n/a	5	16	ButtonPress	Win	True
165.719	0.46	Win2	0.9412	n/a	Yes	2.878	n/a	n/a	GoodResponse	1	n/a	n/a	5	16	Blank	Win	True
166.17	1.45	Win2	0.9412	n/a	Yes	2.878	n/a	5.0	GoodResponse	1	0.048	165.218	5	16	Feedback	Win	True
167.624	2.878	Win2	0.9412	n/a	Yes	2.878	n/a	n/a	GoodResponse	1	0.0	n/a	5	16	ISIslide	Win	True
170.516	0.25	Lose2	0.9444	0.001	Yes	2.734	0.016	n/a	GoodResponse	0	n/a	n/a	5	17	Cue	AvoidedLoss	True
170.767	3.95	Lose2	0.9444	0.0	Yes	2.734	0.001	n/a	GoodResponse	0	n/a	n/a	5	17	Fixation	AvoidedLoss	True
174.712	0.23	Lose2	0.9444	0.004	Yes	2.734	-0.004	4.0	GoodResponse	0	0.209	173.921	5	17	Target	AvoidedLoss	True
174.921	0.3	Lose2	0.9444	0.004	Yes	2.734	-0.004	4.0	GoodResponse	0	0.209	n/a	5	17	ButtonPress	AvoidedLoss	True
174.946	0.47	Lose2	0.9444	n/a	Yes	2.734	n/a	n/a	GoodResponse	0	n/a	n/a	5	17	Blank	AvoidedLoss	True
175.414	1.45	Lose2	0.9444	n/a	Yes	2.734	n/a	5.0	GoodResponse	0	0.023	174.437	5	17	Feedback	AvoidedLoss	True
176.869	2.734	Lose2	0.9444	n/a	Yes	2.734	n/a	n/a	GoodResponse	0	0.0	n/a	5	17	ISIslide	AvoidedLoss	True
179.627	0.25	Lose2	0.9473999999999999	0.0	Yes	2.723	0.027	n/a	GoodResponse	0	n/a	n/a	5	18	Cue	AvoidedLoss	True
179.878	4.05	Lose2	0.9473999999999999	0.0	Yes	2.723	0.001	n/a	GoodResponse	0	n/a	n/a	5	18	Fixation	AvoidedLoss	True
183.923	0.22	Lose2	0.9473999999999999	0.004	Yes	2.723	-0.004	4.0	GoodResponse	0	0.184	183.107	5	18	Target	AvoidedLoss	True
184.107	0.3	Lose2	0.9473999999999999	0.004	Yes	2.723	-0.004	4.0	GoodResponse	0	0.184	n/a	5	18	ButtonPress	AvoidedLoss	True
184.157	0.48	Lose2	0.9473999999999999	n/a	Yes	2.723	n/a	n/a	GoodResponse	0	n/a	n/a	5	18	Blank	AvoidedLoss	True
184.625	1.45	Lose2	0.9473999999999999	n/a	Yes	2.723	n/a	5.0	GoodResponse	0	0.032	183.657	5	18	Feedback	AvoidedLoss	True
186.08	2.723	Lose2	0.9473999999999999	n/a	Yes	2.723	n/a	n/a	GoodResponse	0	0.0	n/a	5	18	ISIslide	AvoidedLoss	True
188.821	0.25	Control	0.9	0.0	No	2.929	0.021	n/a	LatePress	0	n/a	n/a	5	19	Cue	Neutral	True
189.072	3.95	Control	0.9	0.0	No	2.929	0.001	n/a	LatePress	0	n/a	n/a	5	19	Fixation	Neutral	True
193.017	0.21	Control	0.9	0.004	No	2.929	-0.004	4.0	LatePress	0	0.217	192.234	5	19	Target	Neutral	True
193.234	0.3	Control	0.9	0.004	No	2.929	-0.004	4.0	LatePress	0	0.217	n/a	5	19	ButtonPress	Neutral	True
193.235	0.49	Control	0.9	n/a	No	2.929	n/a	n/a	LatePress	0	n/a	n/a	5	19	Blank	Neutral	True
193.719	1.45	Control	0.9	n/a	No	2.929	n/a	5.0	LatePress	0	0.011	192.73	5	19	Feedback	Neutral	True
195.174	2.929	Control	0.9	n/a	No	2.929	n/a	n/a	LatePress	0	0.0	n/a	5	19	ISIslide	Neutral	True
198.116	0.25	Control	0.8571	0.0	No	2.634	0.016	n/a	NoResponse	0	n/a	n/a	5	20	Cue	Neutral	True
198.367	4.05	Control	0.8571	0.0	No	2.634	0.001	n/a	NoResponse	0	n/a	n/a	5	20	Fixation	Neutral	True
202.412	0.2	Control	0.8571	0.004	No	2.634	-0.004	4.0	NoResponse	0	0.317	201.729	5	20	Target	Neutral	True
202.613	0.5	Control	0.8571	n/a	No	2.634	n/a	n/a	NoResponse	0	n/a	n/a	5	20	Blank	Neutral	True
202.729	0.3	Control	0.8571	0.004	No	2.634	-0.004	4.0	NoResponse	0	0.317	n/a	5	20	ButtonPress	Neutral	True
203.114	1.45	Control	0.8571	n/a	No	2.634	n/a	5.0	NoResponse	0	0.031	202.145	5	20	Feedback	Neutral	True
204.569	2.634	Control	0.8571	n/a	No	2.634	n/a	n/a	NoResponse	0	0.0	n/a	5	20	ISIslide	Neutral	True
207.227	0.25	Control	0.8636	0.0	Yes	2.773	0.027	n/a	GoodResponse	0	n/a	n/a	5	21	Cue	Neutral	True
207.477	4.1	Control	0.8636	0.0	Yes	2.773	0.0	n/a	GoodResponse	0	n/a	n/a	5	21	Fixation	Neutral	True
211.573	0.19	Control	0.8636	0.004	Yes	2.773	-0.004	4.0	GoodResponse	0	0.187	210.76	5	21	Target	Neutral	True
211.76	0.3	Control	0.8636	0.004	Yes	2.773	-0.004	4.0	GoodResponse	0	0.187	n/a	5	21	ButtonPress	Neutral	True
211.774	0.51	Control	0.8636	n/a	Yes	2.773	n/a	n/a	GoodResponse	0	n/a	n/a	5	21	Blank	Neutral	True
212.275	1.45	Control	0.8636	n/a	Yes	2.773	n/a	5.0	GoodResponse	0	0.041	211.316	5	21	Feedback	Neutral	True
213.729	2.773	Control	0.8636	n/a	Yes	2.773	n/a	n/a	GoodResponse	0	0.0	n/a	5	21	ISIslide	Neutral	True
216.521	0.25	Control	0.8261	0.0	No	2.779	0.021	n/a	NoResponse	0	n/a	n/a	5	22	Cue	Neutral	True
216.772	4.0	Control	0.8261	0.0	No	2.779	0.001	n/a	NoResponse	0	n/a	n/a	5	22	Fixation	Neutral	True
220.767	0.18	Control	0.8261	0.004	No	2.779	-0.004	4.0	NoResponse	0	0.21	219.977	5	22	Target	Neutral	True
220.951	0.52	Control	0.8261	n/a	No	2.779	n/a	n/a	NoResponse	0	n/a	n/a	5	22	Blank	Neutral	True
220.977	0.3	Control	0.8261	0.004	No	2.779	-0.004	4.0	NoResponse	0	0.21	n/a	5	22	ButtonPress	Neutral	True
221.469	1.45	Control	0.8261	n/a	No	2.779	n/a	5.0	NoResponse	0	0.018	220.487	5	22	Feedback	Neutral	True
222.924	2.779	Control	0.8261	n/a	No	2.779	n/a	n/a	NoResponse	0	0.0	n/a	5	22	ISIslide	Neutral	True
225.715	0.25	Control	0.7917000000000001	0.0	No	2.785	0.015	n/a	NoResponse	0	n/a	n/a	5	23	Cue	Neutral	True
225.966	3.9	Control	0.7917000000000001	0.0	No	2.785	0.001	n/a	NoResponse	0	n/a	n/a	5	23	Fixation	Neutral	True
229.861	0.17	Control	0.7917000000000001	0.004	No	2.785	-0.004	4.0	NoResponse	0	0.201	229.062	5	23	Target	Neutral	True
230.045	0.53	Control	0.7917000000000001	n/a	No	2.785	n/a	n/a	NoResponse	0	n/a	n/a	5	23	Blank	Neutral	True
230.062	0.3	Control	0.7917000000000001	0.004	No	2.785	-0.004	4.0	NoResponse	0	0.201	n/a	5	23	ButtonPress	Neutral	True
230.563	1.45	Control	0.7917000000000001	n/a	No	2.785	n/a	5.0	NoResponse	0	0.045	229.608	5	23	Feedback	Neutral	True
232.018	2.785	Control	0.7917000000000001	n/a	No	2.785	n/a	n/a	NoResponse	0	0.0	n/a	5	23	ISIslide	Neutral	True
234.826	0.25	Win2	0.76	0.0	No	3.124	0.026	n/a	NoResponse	0	n/a	n/a	5	24	Cue	MissedWin	True
235.077	3.95	Win2	0.76	0.0	No	3.124	0.001	n/a	NoResponse	0	n/a	n/a	5	24	Fixation	MissedWin	True
239.022	0.16	Win2	0.76	0.004	No	3.124	-0.004	4.0	NoResponse	0	0.181	238.203	5	24	Target	MissedWin	True
239.189	0.54	Win2	0.76	n/a	No	3.124	n/a	n/a	NoResponse	0	n/a	n/a	5	24	Blank	MissedWin	True
239.203	0.3	Win2	0.76	0.004	No	3.124	-0.004	4.0	NoResponse	0	0.181	n/a	5	24	ButtonPress	MissedWin	True
239.724	1.45	Win2	0.76	n/a	No	3.124	n/a	5.0	NoResponse	0	0.007	238.731	5	24	Feedback	MissedWin	True
241.178	3.124	Win2	0.76	n/a	No	3.124	n/a	n/a	NoResponse	0	0.0	n/a	5	24	ISIslide	MissedWin	True
244.321	0.25	Win2	0.7308	0.0	No	3.079	0.021	n/a	NoResponse	0	n/a	n/a	5	25	Cue	MissedWin	True
244.572	4.0	Win2	0.7308	0.0	No	3.079	0.001	n/a	NoResponse	0	n/a	n/a	5	25	Fixation	MissedWin	True
248.567	0.15	Win2	0.7308	0.004	No	3.079	-0.004	2.0	NoResponse	0	0.188	247.755	5	25	Target	MissedWin	True
248.718	0.55	Win2	0.7308	n/a	No	3.079	n/a	n/a	NoResponse	0	n/a	n/a	5	25	Blank	MissedWin	True
248.755	0.3	Win2	0.7308	0.004	No	3.079	-0.004	2.0	NoResponse	0	0.188	n/a	5	25	ButtonPress	MissedWin	True
249.269	1.45	Win2	0.7308	n/a	No	3.079	n/a	5.0	NoResponse	0	0.022	248.291	5	25	Feedback	MissedWin	True
250.724	3.079	Win2	0.7308	n/a	No	3.079	n/a	n/a	NoResponse	0	0.0	n/a	5	25	ISIslide	MissedWin	True
253.816	0.25	Win2	0.7037	0.0	No	2.934	0.016	n/a	NoResponse	0	n/a	n/a	5	26	Cue	MissedWin	True
254.067	3.95	Win2	0.7037	0.0	No	2.934	0.001	n/a	NoResponse	0	n/a	n/a	5	26	Fixation	MissedWin	True
258.012	0.15	Win2	0.7037	0.004	No	2.934	-0.004	2.0	NoResponse	0	0.167	257.179	5	26	Target	MissedWin	True
258.163	0.55	Win2	0.7037	n/a	No	2.934	n/a	n/a	NoResponse	0	n/a	n/a	5	26	Blank	MissedWin	True
258.179	0.3	Win2	0.7037	0.004	No	2.934	-0.004	2.0	NoResponse	0	0.167	n/a	5	26	ButtonPress	MissedWin	True
258.714	1.45	Win2	0.7037	n/a	No	2.934	n/a	5.0	NoResponse	0	0.04	257.754	5	26	Feedback	MissedWin	True
260.169	2.934	Win2	0.7037	n/a	No	2.934	n/a	n/a	NoResponse	0	0.0	n/a	5	26	ISIslide	MissedWin	True
263.128	0.25	Lose2	0.6786	0.0	No	2.822	0.028	n/a	NoResponse	-1	n/a	n/a	4	27	Cue	Loss	True
263.378	4.05	Lose2	0.6786	0.0	No	2.822	0.0	n/a	NoResponse	-1	n/a	n/a	4	27	Fixation	Loss	True
267.424	0.15	Lose2	0.6786	0.004	No	2.822	-0.004	2.0	NoResponse	-1	0.171	266.595	4	27	Target	Loss	True
267.574	0.55	Lose2	0.6786	n/a	No	2.822	n/a	n/a	NoResponse	-1	n/a	n/a	4	27	Blank	Loss	True
267.595	0.3	Lose2	0.6786	0.004	No	2.822	-0.004	2.0	NoResponse	-1	0.171	n/a	4	27	ButtonPress	Loss	True
268.126	1.45	Lose2	0.6786	n/a	No	2.822	n/a	5.0	NoResponse	-1	0.043	267.169	4	27	Feedback	Loss	True
269.58	2.822	Lose2	0.6786	n/a	No	2.822	n/a	n/a	NoResponse	-1	0.0	n/a	4	27	ISIslide	Loss	True
272.422	0.25	Control	0.6552	0.0	No	2.828	0.022	n/a	NoResponse	0	n/a	n/a	4	28	Cue	Neutral	True
272.673	4.05	Control	0.6552	0.0	No	2.828	0.001	n/a	NoResponse	0	n/a	n/a	4	28	Fixation	Neutral	True
276.718	0.15	Control	0.6552	0.004	No	2.828	-0.004	2.0	NoResponse	0	0.21	275.928	4	28	Target	Neutral	True
276.869	0.55	Control	0.6552	n/a	No	2.828	n/a	n/a	NoResponse	0	n/a	n/a	4	28	Blank	Neutral	True
276.928	0.3	Control	0.6552	0.004	No	2.828	-0.004	2.0	NoResponse	0	0.21	n/a	4	28	ButtonPress	Neutral	True
277.42	1.45	Control	0.6552	n/a	No	2.828	n/a	5.0	NoResponse	0	0.017	276.437	4	28	Feedback	Neutral	True
278.875	2.828	Control	0.6552	n/a	No	2.828	n/a	n/a	NoResponse	0	0.0	n/a	4	28	ISIslide	Neutral	True
281.717	0.25	Lose2	0.6333	0.0	No	2.833	0.017	n/a	NoResponse	-1	n/a	n/a	3	29	Cue	Loss	True
281.967	3.95	Lose2	0.6333	0.0	No	2.833	0.0	n/a	NoResponse	-1	n/a	n/a	3	29	Fixation	Loss	True
285.913	0.15	Lose2	0.6333	0.004	No	2.833	-0.004	2.0	NoResponse	-1	0.183	285.096	3	29	Target	Loss	True
286.063	0.55	Lose2	0.6333	n/a	No	2.833	n/a	n/a	NoResponse	-1	n/a	n/a	3	29	Blank	Loss	True
286.096	0.3	Lose2	0.6333	0.004	No	2.833	-0.004	2.0	NoResponse	-1	0.183	n/a	3	29	ButtonPress	Loss	True
286.615	1.45	Lose2	0.6333	n/a	No	2.833	n/a	5.0	NoResponse	-1	0.042	285.657	3	29	Feedback	Loss	True
288.069	2.833	Lose2	0.6333	n/a	No	2.833	n/a	n/a	NoResponse	-1	0.0	n/a	3	29	ISIslide	Loss	True
290.928	0.25	Win2	0.6129	0.0	No	2.772	0.028	n/a	NoResponse	0	n/a	n/a	3	30	Cue	MissedWin	True
291.178	3.9	Win2	0.6129	0.0	No	2.772	0.0	n/a	NoResponse	0	n/a	n/a	3	30	Fixation	MissedWin	True
295.09	0.16	Win2	0.6129	0.0	No	2.772	0.012	2.0	NoResponse	0	0.222	294.312	3	30	Target	MissedWin	True
295.241	0.54	Win2	0.6129	n/a	No	2.772	n/a	n/a	NoResponse	0	n/a	n/a	3	30	Blank	MissedWin	True
295.312	0.3	Win2	0.6129	0.0	No	2.772	0.012	2.0	NoResponse	0	0.222	n/a	3	30	ButtonPress	MissedWin	True
295.776	1.45	Win2	0.6129	n/a	No	2.772	n/a	5.0	NoResponse	0	0.007	294.783	3	30	Feedback	MissedWin	True
297.23	2.772	Win2	0.6129	n/a	No	2.772	n/a	n/a	NoResponse	0	0.0	n/a	3	30	ISIslide	MissedWin	True
300.022	0.25	Lose2	0.5938	0.0	No	2.828	0.022	n/a	NoResponse	-1	n/a	n/a	2	31	Cue	Loss	False
300.272	4.05	Lose2	0.5938	0.0	No	2.828	0.0	2.0	NoResponse	-1	3.912	303.184	2	31	Fixation	Loss	False
304.184	0.3	Lose2	0.5938	0.0	No	2.828	0.0	2.0	NoResponse	-1	3.912	n/a	2	31	ButtonPress	Loss	False
304.318	0.17	Lose2	0.5938	0.004	No	2.828	-0.004	2.0	NoResponse	-1	0.195	303.513	2	31	Target	Loss	False
304.502	0.53	Lose2	0.5938	n/a	No	2.828	n/a	n/a	NoResponse	-1	n/a	n/a	2	31	Blank	Loss	False
304.513	0.3	Lose2	0.5938	0.004	No	2.828	-0.004	2.0	NoResponse	-1	0.195	n/a	2	31	ButtonPress	Loss	False
305.02	1.45	Lose2	0.5938	n/a	No	2.828	n/a	5.0	NoResponse	-1	0.026	304.046	2	31	Feedback	Loss	False
306.474	2.828	Lose2	0.5938	n/a	No	2.828	n/a	n/a	NoResponse	-1	0.0	n/a	2	31	ISIslide	Loss	False
309.316	0.25	Lose2	0.5758	0.0	No	2.634	0.016	n/a	NoResponse	-1	n/a	n/a	1	32	Cue	Loss	True
309.567	4.15	Lose2	0.5758	0.0	No	2.634	0.001	n/a	NoResponse	-1	n/a	n/a	1	32	Fixation	Loss	True
313.713	0.18	Lose2	0.5758	0.003	No	2.634	-0.003	2.0	NoResponse	-1	0.19	312.903	1	32	Target	Loss	True
313.897	0.52	Lose2	0.5758	n/a	No	2.634	n/a	n/a	NoResponse	-1	n/a	n/a	1	32	Blank	Loss	True
313.903	0.3	Lose2	0.5758	0.003	No	2.634	-0.003	2.0	NoResponse	-1	0.19	n/a	1	32	ButtonPress	Loss	True
314.415	1.45	Lose2	0.5758	n/a	No	2.634	n/a	5.0	NoResponse	-1	0.046	313.461	1	32	Feedback	Loss	True
315.869	2.634	Lose2	0.5758	n/a	No	2.634	n/a	n/a	NoResponse	-1	0.0	n/a	1	32	ISIslide	Loss	True
318.527	0.25	Win2	0.5588000000000001	0.0	No	2.673	0.027	n/a	LatePress	0	n/a	n/a	1	33	Cue	MissedWin	True
318.778	4.0	Win2	0.5588000000000001	0.0	No	2.673	0.001	n/a	LatePress	0	n/a	n/a	1	33	Fixation	MissedWin	True
322.773	0.19	Win2	0.5588000000000001	0.004	No	2.673	-0.004	2.0	LatePress	0	0.194	321.967	1	33	Target	MissedWin	True
322.967	0.3	Win2	0.5588000000000001	0.004	No	2.673	-0.004	2.0	LatePress	0	0.194	n/a	1	33	ButtonPress	MissedWin	True
322.974	0.51	Win2	0.5588000000000001	n/a	No	2.673	n/a	n/a	LatePress	0	n/a	n/a	1	33	Blank	MissedWin	True
323.475	1.45	Win2	0.5588000000000001	n/a	No	2.673	n/a	5.0	LatePress	0	0.011	322.486	1	33	Feedback	MissedWin	True
324.93	2.673	Win2	0.5588000000000001	n/a	No	2.673	n/a	n/a	LatePress	0	0.0	n/a	1	33	ISIslide	MissedWin	True
327.621	0.25	Lose2	0.5428999999999999	0.0	No	2.629	0.021	n/a	LatePress	-1	n/a	n/a	0	34	Cue	Loss	True
327.872	4.05	Lose2	0.5428999999999999	0.0	No	2.629	0.001	n/a	LatePress	-1	n/a	n/a	0	34	Fixation	Loss	True
331.917	0.2	Lose2	0.5428999999999999	0.004	No	2.629	-0.004	2.0	LatePress	-1	0.202	331.119	0	34	Target	Loss	True
332.118	0.5	Lose2	0.5428999999999999	n/a	No	2.629	n/a	n/a	LatePress	-1	n/a	n/a	0	34	Blank	Loss	True
332.119	0.3	Lose2	0.5428999999999999	0.004	No	2.629	-0.004	2.0	LatePress	-1	0.202	n/a	0	34	ButtonPress	Loss	True
332.619	1.45	Lose2	0.5428999999999999	n/a	No	2.629	n/a	5.0	LatePress	-1	0.038	331.657	0	34	Feedback	Loss	True
334.074	2.629	Lose2	0.5428999999999999	n/a	No	2.629	n/a	n/a	LatePress	-1	0.0	n/a	0	34	ISIslide	Loss	True
336.715	0.25	Lose2	0.5278	0.0	No	2.685	0.015	n/a	NoResponse	-1	n/a	n/a	-1	35	Cue	Loss	True
336.966	4.0	Lose2	0.5278	0.0	No	2.685	0.001	n/a	NoResponse	-1	n/a	n/a	-1	35	Fixation	Loss	True
340.961	0.21	Lose2	0.5278	0.004	No	2.685	-0.004	2.0	NoResponse	-1	0.223	340.184	-1	35	Target	Loss	True
341.178	0.49	Lose2	0.5278	n/a	No	2.685	n/a	n/a	NoResponse	-1	n/a	n/a	-1	35	Blank	Loss	True
341.184	0.3	Lose2	0.5278	0.004	No	2.685	-0.004	2.0	NoResponse	-1	0.223	n/a	-1	35	ButtonPress	Loss	True
341.663	1.45	Lose2	0.5278	n/a	No	2.685	n/a	5.0	NoResponse	-1	0.018	340.681	-1	35	Feedback	Loss	True
343.118	2.685	Lose2	0.5278	n/a	No	2.685	n/a	n/a	NoResponse	-1	0.0	n/a	-1	35	ISIslide	Loss	True
345.826	0.25	Control	0.5405	0.0	Yes	2.674	0.026	n/a	GoodResponse	0	n/a	n/a	-1	36	Cue	Neutral	True
346.076	4.0	Control	0.5405	0.0	Yes	2.674	0.0	n/a	GoodResponse	0	n/a	n/a	-1	36	Fixation	Neutral	True
350.072	0.22	Control	0.5405	0.004	Yes	2.674	-0.004	2.0	GoodResponse	0	0.209	349.281	-1	36	Target	Neutral	True
350.281	0.3	Control	0.5405	0.004	Yes	2.674	-0.004	2.0	GoodResponse	0	0.209	n/a	-1	36	ButtonPress	Neutral	True
350.306	0.48	Control	0.5405	n/a	Yes	2.674	n/a	n/a	GoodResponse	0	n/a	n/a	-1	36	Blank	Neutral	True
350.774	1.45	Control	0.5405	n/a	Yes	2.674	n/a	5.0	GoodResponse	0	0.029	349.803	-1	36	Feedback	Neutral	True
352.228	2.674	Control	0.5405	n/a	Yes	2.674	n/a	n/a	GoodResponse	0	0.0	n/a	-1	36	ISIslide	Neutral	True
354.92	0.25	Win2	0.5526	0.0	Yes	2.88	0.02	n/a	GoodResponse	1	n/a	n/a	0	37	Cue	Win	True
355.17	4.0	Win2	0.5526	0.0	Yes	2.88	0.0	n/a	GoodResponse	1	n/a	n/a	0	37	Fixation	Win	True
359.166	0.23	Win2	0.5526	0.004	Yes	2.88	-0.004	2.0	GoodResponse	1	0.186	358.352	0	37	Target	Win	True
359.352	0.3	Win2	0.5526	0.004	Yes	2.88	-0.004	2.0	GoodResponse	1	0.186	n/a	0	37	ButtonPress	Win	True
359.4	0.47	Win2	0.5526	n/a	Yes	2.88	n/a	n/a	GoodResponse	1	n/a	n/a	0	37	Blank	Win	True
359.868	1.45	Win2	0.5526	n/a	Yes	2.88	n/a	5.0	GoodResponse	1	0.008	358.876	0	37	Feedback	Win	True
361.322	2.88	Win2	0.5526	n/a	Yes	2.88	n/a	n/a	GoodResponse	1	0.0	n/a	0	37	ISIslide	Win	True
364.214	0.25	Lose2	0.5385	0.0	No	2.836	0.014	n/a	NoResponse	-1	n/a	n/a	-1	38	Cue	Loss	True
364.465	3.95	Lose2	0.5385	0.0	No	2.836	0.001	n/a	NoResponse	-1	n/a	n/a	-1	38	Fixation	Loss	True
368.41	0.24	Lose2	0.5385	0.004	No	2.836	-0.004	2.0	NoResponse	-1	0.289	367.699	-1	38	Target	Loss	True
368.661	0.46	Lose2	0.5385	n/a	No	2.836	n/a	n/a	NoResponse	-1	n/a	n/a	-1	38	Blank	Loss	True
368.699	0.3	Lose2	0.5385	0.004	No	2.836	-0.004	2.0	NoResponse	-1	0.289	n/a	-1	38	ButtonPress	Loss	True
369.112	1.45	Lose2	0.5385	n/a	No	2.836	n/a	5.0	NoResponse	-1	0.033	368.145	-1	38	Feedback	Loss	True
370.567	2.836	Lose2	0.5385	n/a	No	2.836	n/a	n/a	NoResponse	-1	0.0	n/a	-1	38	ISIslide	Loss	True
373.425	0.25	Win2	0.55	0.0	Yes	2.975	0.025	n/a	GoodResponse	1	n/a	n/a	0	39	Cue	Win	True
373.676	4.1	Win2	0.55	0.0	Yes	2.975	0.001	n/a	GoodResponse	1	n/a	n/a	0	39	Fixation	Win	True
377.771	0.25	Win2	0.55	0.004	Yes	2.975	-0.004	2.0	GoodResponse	1	0.24	377.011	0	39	Target	Win	True
378.011	0.3	Win2	0.55	0.004	Yes	2.975	-0.004	2.0	GoodResponse	1	0.24	n/a	0	39	ButtonPress	Win	True
378.022	0.45	Win2	0.55	n/a	Yes	2.975	n/a	n/a	GoodResponse	1	n/a	n/a	0	39	Blank	Win	True
378.474	1.45	Win2	0.55	n/a	Yes	2.975	n/a	5.0	GoodResponse	1	0.036	377.51	0	39	Feedback	Win	True
379.928	2.975	Win2	0.55	n/a	Yes	2.975	n/a	n/a	GoodResponse	1	0.0	n/a	0	39	ISIslide	Win	True
382.92	0.25	Win2	0.561	0.0	Yes	2.73	0.02	n/a	GoodResponse	1	n/a	n/a	1	40	Cue	Win	True
383.171	3.95	Win2	0.561	0.0	Yes	2.73	0.001	n/a	GoodResponse	1	n/a	n/a	1	40	Fixation	Win	True
387.116	0.26	Win2	0.561	0.004	Yes	2.73	-0.004	2.0	GoodResponse	1	0.213	386.329	1	40	Target	Win	True
387.329	0.3	Win2	0.561	0.004	Yes	2.73	-0.004	2.0	GoodResponse	1	0.213	n/a	1	40	ButtonPress	Win	True
387.384	0.44	Win2	0.561	n/a	Yes	2.73	n/a	n/a	GoodResponse	1	n/a	n/a	1	40	Blank	Win	True
387.818	1.45	Win2	0.561	n/a	Yes	2.73	n/a	5.0	GoodResponse	1	0.009	386.827	1	40	Feedback	Win	True
389.273	2.73	Win2	0.561	n/a	Yes	2.73	n/a	n/a	GoodResponse	1	0.0	n/a	1	40	ISIslide	Win	True
392.014	0.25	Win2	0.5714	0.0	Yes	2.786	0.014	n/a	GoodResponse	1	n/a	n/a	2	41	Cue	Win	True
392.265	3.9	Win2	0.5714	0.0	Yes	2.786	0.001	n/a	GoodResponse	1	n/a	n/a	2	41	Fixation	Win	True
396.16	0.27	Win2	0.5714	0.004	Yes	2.786	-0.004	2.0	GoodResponse	1	0.199	395.359	2	41	Target	Win	True
396.359	0.3	Win2	0.5714	0.004	Yes	2.786	-0.004	2.0	GoodResponse	1	0.199	n/a	2	41	ButtonPress	Win	True
396.444	0.43	Win2	0.5714	n/a	Yes	2.786	n/a	n/a	GoodResponse	1	n/a	n/a	2	41	Blank	Win	True
396.862	1.45	Win2	0.5714	n/a	Yes	2.786	n/a	5.0	GoodResponse	1	0.038	395.9	2	41	Feedback	Win	True
398.316	2.786	Win2	0.5714	n/a	Yes	2.786	n/a	n/a	GoodResponse	1	0.0	n/a	2	41	ISIslide	Win	True
401.125	0.25	Control	0.5814	0.0	Yes	2.925	0.025	n/a	GoodResponse	0	n/a	n/a	2	42	Cue	Neutral	True
401.376	3.85	Control	0.5814	0.0	Yes	2.925	0.001	n/a	GoodResponse	0	n/a	n/a	2	42	Fixation	Neutral	True
405.22	0.28	Control	0.5814	0.005	Yes	2.925	-0.005	2.0	GoodResponse	0	0.187	404.407	2	42	Target	Neutral	True
405.407	0.3	Control	0.5814	0.005	Yes	2.925	-0.005	2.0	GoodResponse	0	0.187	n/a	2	42	ButtonPress	Neutral	True
405.505	0.42	Control	0.5814	n/a	Yes	2.925	n/a	n/a	GoodResponse	0	n/a	n/a	2	42	Blank	Neutral	True
405.923	1.45	Control	0.5814	n/a	Yes	2.925	n/a	5.0	GoodResponse	0	0.002	404.925	2	42	Feedback	Neutral	True
407.377	2.925	Control	0.5814	n/a	Yes	2.925	n/a	n/a	GoodResponse	0	0.0	n/a	2	42	ISIslide	Neutral	True
410.319	0.25	Win2	0.5909	0.0	Yes	3.181	0.019	n/a	GoodResponse	1	n/a	n/a	3	43	Cue	Win	True
410.57	4.0	Win2	0.5909	0.0	Yes	3.181	0.001	n/a	GoodResponse	1	n/a	n/a	3	43	Fixation	Win	True
414.565	0.29	Win2	0.5909	0.004	Yes	3.181	-0.004	2.0	GoodResponse	1	0.213	413.778	3	43	Target	Win	True
414.778	0.3	Win2	0.5909	0.004	Yes	3.181	-0.004	2.0	GoodResponse	1	0.213	n/a	3	43	ButtonPress	Win	True
414.866	0.41	Win2	0.5909	n/a	Yes	3.181	n/a	n/a	GoodResponse	1	n/a	n/a	3	43	Blank	Win	True
415.267	1.45	Win2	0.5909	n/a	Yes	3.181	n/a	5.0	GoodResponse	1	0.024	414.291	3	43	Feedback	Win	True
416.722	3.181	Win2	0.5909	n/a	Yes	3.181	n/a	n/a	GoodResponse	1	0.0	n/a	3	43	ISIslide	Win	True
419.915	0.25	Win2	0.6	0.0	Yes	2.985	0.015	n/a	GoodResponse	1	n/a	n/a	4	44	Cue	Win	True
420.165	4.0	Win2	0.6	0.0	Yes	2.985	0.0	n/a	GoodResponse	1	n/a	n/a	4	44	Fixation	Win	True
424.161	0.3	Win2	0.6	0.004	Yes	2.985	-0.004	2.0	GoodResponse	1	0.22	423.381	4	44	Target	Win	True
424.381	0.3	Win2	0.6	0.004	Yes	2.985	-0.004	2.0	GoodResponse	1	0.22	n/a	4	44	ButtonPress	Win	True
424.462	0.4	Win2	0.6	n/a	Yes	2.985	n/a	n/a	GoodResponse	1	n/a	n/a	4	44	Blank	Win	True
424.863	1.45	Win2	0.6	n/a	Yes	2.985	n/a	5.0	GoodResponse	1	0.037	423.9	4	44	Feedback	Win	True
426.317	2.985	Win2	0.6	n/a	Yes	2.985	n/a	n/a	GoodResponse	1	0.0	n/a	4	44	ISIslide	Win	True
429.326	0.25	Control	0.6087	0.0	Yes	2.874	0.026	n/a	GoodResponse	0	n/a	n/a	4	45	Cue	Neutral	True
429.577	4.1	Control	0.6087	0.0	Yes	2.874	0.001	n/a	GoodResponse	0	n/a	n/a	4	45	Fixation	Neutral	True
433.673	0.31	Control	0.6087	0.003	Yes	2.874	-0.003	2.0	GoodResponse	0	0.241	432.914	4	45	Target	Neutral	True
433.914	0.3	Control	0.6087	0.003	Yes	2.874	-0.003	2.0	GoodResponse	0	0.241	n/a	4	45	ButtonPress	Neutral	True
433.99	0.39	Control	0.6087	n/a	Yes	2.874	n/a	n/a	GoodResponse	0	n/a	n/a	4	45	Blank	Neutral	True
434.375	1.45	Control	0.6087	n/a	Yes	2.874	n/a	5.0	GoodResponse	0	0.038	433.413	4	45	Feedback	Neutral	True
435.829	2.874	Control	0.6087	n/a	Yes	2.874	n/a	n/a	GoodResponse	0	0.0	n/a	4	45	ISIslide	Neutral	True
438.721	0.25	Lose2	0.617	0.0	Yes	3.379	0.021	n/a	GoodResponse	0	n/a	n/a	4	46	Cue	AvoidedLoss	True
438.972	4.0	Lose2	0.617	0.0	Yes	3.379	0.001	n/a	GoodResponse	0	n/a	n/a	4	46	Fixation	AvoidedLoss	True
442.967	0.32	Lose2	0.617	0.004	Yes	3.379	-0.004	2.0	GoodResponse	0	0.193	442.16	4	46	Target	AvoidedLoss	True
443.16	0.3	Lose2	0.617	0.004	Yes	3.379	-0.004	2.0	GoodResponse	0	0.193	n/a	4	46	ButtonPress	AvoidedLoss	True
443.301	0.38	Lose2	0.617	n/a	Yes	3.379	n/a	n/a	GoodResponse	0	n/a	n/a	4	46	Blank	AvoidedLoss	True
443.669	1.45	Lose2	0.617	n/a	Yes	3.379	n/a	5.0	GoodResponse	0	0.012	442.681	4	46	Feedback	AvoidedLoss	True
445.124	3.379	Lose2	0.617	n/a	Yes	3.379	n/a	n/a	GoodResponse	0	0.0	n/a	4	46	ISIslide	AvoidedLoss	True
448.517	0.25	Lose2	0.625	0.0	Yes	2.683	0.017	n/a	GoodResponse	0	n/a	n/a	4	47	Cue	AvoidedLoss	True
448.768	4.0	Lose2	0.625	0.0	Yes	2.683	0.001	n/a	GoodResponse	0	n/a	n/a	4	47	Fixation	AvoidedLoss	True
452.763	0.33	Lose2	0.625	0.004	Yes	2.683	-0.004	2.0	GoodResponse	0	0.21	451.973	4	47	Target	AvoidedLoss	True
452.973	0.3	Lose2	0.625	0.004	Yes	2.683	-0.004	2.0	GoodResponse	0	0.21	n/a	4	47	ButtonPress	AvoidedLoss	True
453.097	0.37	Lose2	0.625	n/a	Yes	2.683	n/a	n/a	GoodResponse	0	n/a	n/a	4	47	Blank	AvoidedLoss	True
453.465	1.45	Lose2	0.625	n/a	Yes	2.683	n/a	5.0	GoodResponse	0	0.02	452.485	4	47	Feedback	AvoidedLoss	True
454.92	2.683	Lose2	0.625	n/a	Yes	2.683	n/a	n/a	GoodResponse	0	0.0	n/a	4	47	ISIslide	AvoidedLoss	True
457.628	0.25	Lose2	0.6327	0.0	Yes	3.022	0.028	n/a	GoodResponse	0	n/a	n/a	4	48	Cue	AvoidedLoss	True
457.878	3.95	Lose2	0.6327	0.001	Yes	3.022	0.0	n/a	GoodResponse	0	n/a	n/a	4	48	Fixation	AvoidedLoss	True
461.824	0.34	Lose2	0.6327	0.004	Yes	3.022	-0.004	2.0	GoodResponse	0	0.19	461.014	4	48	Target	AvoidedLoss	True
462.014	0.3	Lose2	0.6327	0.004	Yes	3.022	-0.004	2.0	GoodResponse	0	0.19	n/a	4	48	ButtonPress	AvoidedLoss	True
462.175	0.36	Lose2	0.6327	n/a	Yes	3.022	n/a	n/a	GoodResponse	0	n/a	n/a	4	48	Blank	AvoidedLoss	True
462.526	1.45	Lose2	0.6327	n/a	Yes	3.022	n/a	5.0	GoodResponse	0	0.032	461.558	4	48	Feedback	AvoidedLoss	True
463.98	3.022	Lose2	0.6327	n/a	Yes	3.022	n/a	n/a	GoodResponse	0	0.0	n/a	4	48	ISIslide	AvoidedLoss	True
467.023	0.25	Control	0.64	0.0	Yes	2.877	0.023	n/a	GoodResponse	0	n/a	n/a	4	49	Cue	Neutral	True
467.273	4.0	Control	0.64	0.0	Yes	2.877	0.0	n/a	GoodResponse	0	n/a	n/a	4	49	Fixation	Neutral	True
471.269	0.35	Control	0.64	0.004	Yes	2.877	-0.004	2.0	GoodResponse	0	0.275	470.544	4	49	Target	Neutral	True
471.544	0.3	Control	0.64	0.004	Yes	2.877	-0.004	2.0	GoodResponse	0	0.275	n/a	4	49	ButtonPress	Neutral	True
471.62	0.35	Control	0.64	n/a	Yes	2.877	n/a	n/a	GoodResponse	0	n/a	n/a	4	49	Blank	Neutral	True
471.971	1.45	Control	0.64	n/a	Yes	2.877	n/a	5.0	GoodResponse	0	0.004	470.975	4	49	Feedback	Neutral	True
473.425	2.877	Control	0.64	n/a	Yes	2.877	n/a	n/a	GoodResponse	0	0.0	n/a	4	49	ISIslide	Neutral	True
476.317	0.25	Control	0.6470999999999999	0.0	Yes	2.783	0.017	n/a	GoodResponse	0	n/a	n/a	4	50	Cue	Neutral	True
476.568	4.0	Control	0.6470999999999999	0.0	Yes	2.783	0.001	n/a	GoodResponse	0	n/a	n/a	4	50	Fixation	Neutral	True
480.563	0.36	Control	0.6470999999999999	0.004	Yes	2.783	-0.004	2.0	GoodResponse	0	0.219	479.782	4	50	Target	Neutral	True
480.782	0.3	Control	0.6470999999999999	0.004	Yes	2.783	-0.004	2.0	GoodResponse	0	0.219	n/a	4	50	ButtonPress	Neutral	True
480.931	0.34	Control	0.6470999999999999	n/a	Yes	2.783	n/a	n/a	GoodResponse	0	n/a	n/a	4	50	Blank	Neutral	True
481.265	1.45	Control	0.6470999999999999	n/a	Yes	2.783	n/a	5.0	GoodResponse	0	0.025	480.29	4	50	Feedback	Neutral	True
482.72	2.783	Control	0.6470999999999999	n/a	Yes	2.783	n/a	n/a	GoodResponse	0	0.0	n/a	4	50	ISIslide	Neutral	True
485.528	0.25	Control	0.6537999999999999	0.0	Yes	2.722	0.028	n/a	GoodResponse	0	n/a	n/a	4	51	Cue	Neutral	True
485.779	3.95	Control	0.6537999999999999	0.0	Yes	2.722	0.001	n/a	GoodResponse	0	n/a	n/a	4	51	Fixation	Neutral	True
489.724	0.37	Control	0.6537999999999999	0.004	Yes	2.722	-0.004	2.0	GoodResponse	0	0.264	488.988	4	51	Target	Neutral	True
489.988	0.3	Control	0.6537999999999999	0.004	Yes	2.722	-0.004	2.0	GoodResponse	0	0.264	n/a	4	51	ButtonPress	Neutral	True
490.108	0.33	Control	0.6537999999999999	n/a	Yes	2.722	n/a	n/a	GoodResponse	0	n/a	n/a	4	51	Blank	Neutral	True
490.426	1.45	Control	0.6537999999999999	n/a	Yes	2.722	n/a	5.0	GoodResponse	0	0.035	489.461	4	51	Feedback	Neutral	True
491.88	2.722	Control	0.6537999999999999	n/a	Yes	2.722	n/a	n/a	GoodResponse	0	0.0	n/a	4	51	ISIslide	Neutral	True
494.622	0.25	Control	0.6604000000000001	0.0	Yes	2.628	0.022	n/a	GoodResponse	0	n/a	n/a	4	52	Cue	Neutral	True
494.873	4.05	Control	0.6604000000000001	0.0	Yes	2.628	0.001	n/a	GoodResponse	0	n/a	n/a	4	52	Fixation	Neutral	True
498.918	0.38	Control	0.6604000000000001	0.004	Yes	2.628	-0.004	2.0	GoodResponse	0	0.183	498.101	4	52	Target	Neutral	True
499.101	0.3	Control	0.6604000000000001	0.004	Yes	2.628	-0.004	2.0	GoodResponse	0	0.183	n/a	4	52	ButtonPress	Neutral	True
499.303	0.32	Control	0.6604000000000001	n/a	Yes	2.628	n/a	n/a	GoodResponse	0	n/a	n/a	4	52	Blank	Neutral	True
499.62	1.45	Control	0.6604000000000001	n/a	Yes	2.628	n/a	5.0	GoodResponse	0	0.012	498.632	4	52	Feedback	Neutral	True
501.075	2.628	Control	0.6604000000000001	n/a	Yes	2.628	n/a	n/a	GoodResponse	0	0.0	n/a	4	52	ISIslide	Neutral	True
503.716	0.25	Win2	0.6667000000000001	0.0	Yes	2.934	0.016	n/a	GoodResponse	1	n/a	n/a	5	53	Cue	Win	True
503.967	4.05	Win2	0.6667000000000001	0.0	Yes	2.934	0.001	n/a	GoodResponse	1	n/a	n/a	5	53	Fixation	Win	True
508.012	0.38	Win2	0.6667000000000001	0.004	Yes	2.934	-0.004	2.0	GoodResponse	1	0.199	507.211	5	53	Target	Win	True
508.211	0.3	Win2	0.6667000000000001	0.004	Yes	2.934	-0.004	2.0	GoodResponse	1	0.199	n/a	5	53	ButtonPress	Win	True
508.397	0.32	Win2	0.6667000000000001	n/a	Yes	2.934	n/a	n/a	GoodResponse	1	n/a	n/a	5	53	Blank	Win	True
508.714	1.45	Win2	0.6667000000000001	n/a	Yes	2.934	n/a	5.0	GoodResponse	1	0.04	507.754	5	53	Feedback	Win	True
510.169	2.934	Win2	0.6667000000000001	n/a	Yes	2.934	n/a	n/a	GoodResponse	1	0.0	n/a	5	53	ISIslide	Win	True
513.128	0.25	Win2	0.6727	0.0	Yes	2.722	0.028	n/a	GoodResponse	1	n/a	n/a	6	54	Cue	Win	True
513.378	3.95	Win2	0.6727	0.0	Yes	2.722	0.0	n/a	GoodResponse	1	n/a	n/a	6	54	Fixation	Win	True
517.34	0.37	Win2	0.6727	0.0	Yes	2.722	0.012	2.0	GoodResponse	1	0.189	516.529	6	54	Target	Win	True
517.529	0.3	Win2	0.6727	0.0	Yes	2.722	0.012	2.0	GoodResponse	1	0.189	n/a	6	54	ButtonPress	Win	True
517.708	0.33	Win2	0.6727	n/a	Yes	2.722	n/a	n/a	GoodResponse	1	n/a	n/a	6	54	Blank	Win	True
518.026	1.45	Win2	0.6727	n/a	Yes	2.722	n/a	5.0	GoodResponse	1	0.045	517.071	6	54	Feedback	Win	True
519.48	2.722	Win2	0.6727	n/a	Yes	2.722	n/a	n/a	GoodResponse	1	0.0	n/a	6	54	ISIslide	Win	True
522.221	0.25	Control	0.6786	0.001	Yes	3.029	0.021	n/a	GoodResponse	0	n/a	n/a	6	55	Cue	Neutral	True
522.472	3.95	Control	0.6786	0.0	Yes	3.029	0.001	n/a	GoodResponse	0	n/a	n/a	6	55	Fixation	Neutral	True
526.417	0.36	Control	0.6786	0.004	Yes	3.029	-0.004	2.0	GoodResponse	0	0.231	525.648	6	55	Target	Neutral	True
526.648	0.3	Control	0.6786	0.004	Yes	3.029	-0.004	2.0	GoodResponse	0	0.231	n/a	6	55	ButtonPress	Neutral	True
526.785	0.34	Control	0.6786	n/a	Yes	3.029	n/a	n/a	GoodResponse	0	n/a	n/a	6	55	Blank	Neutral	True
527.119	1.45	Control	0.6786	n/a	Yes	3.029	n/a	5.0	GoodResponse	0	0.024	526.143	6	55	Feedback	Neutral	True
528.574	3.029	Control	0.6786	n/a	Yes	3.029	n/a	n/a	GoodResponse	0	0.0	n/a	6	55	ISIslide	Neutral	True
531.616	0.25	Control	0.6667000000000001	0.0	No	2.834	0.016	n/a	NoResponse	0	n/a	n/a	6	56	Cue	Neutral	True
531.867	3.95	Control	0.6667000000000001	0.0	No	2.834	0.001	n/a	NoResponse	0	n/a	n/a	6	56	Fixation	Neutral	True
535.812	0.35	Control	0.6667000000000001	0.004	No	2.834	-0.004	2.0	NoResponse	0	0.453	535.265	6	56	Target	Neutral	True
536.163	0.35	Control	0.6667000000000001	n/a	No	2.834	n/a	n/a	NoResponse	0	n/a	n/a	6	56	Blank	Neutral	True
536.265	0.3	Control	0.6667000000000001	0.004	No	2.834	-0.004	2.0	NoResponse	0	0.453	n/a	6	56	ButtonPress	Neutral	True
536.514	1.45	Control	0.6667000000000001	n/a	No	2.834	n/a	5.0	NoResponse	0	0.044	535.558	6	56	Feedback	Neutral	True
537.969	2.834	Control	0.6667000000000001	n/a	No	2.834	n/a	n/a	NoResponse	0	0.0	n/a	6	56	ISIslide	Neutral	True
540.827	0.25	Control	0.6724	0.0	Yes	3.473	0.027	n/a	GoodResponse	0	n/a	n/a	6	57	Cue	Neutral	True
541.078	4.0	Control	0.6724	0.0	Yes	3.473	0.001	n/a	GoodResponse	0	n/a	n/a	6	57	Fixation	Neutral	True
545.073	0.34	Control	0.6724	0.004	Yes	3.473	-0.004	2.0	GoodResponse	0	0.19	544.263	6	57	Target	Neutral	True
545.263	0.3	Control	0.6724	0.004	Yes	3.473	-0.004	2.0	GoodResponse	0	0.19	n/a	6	57	ButtonPress	Neutral	True
545.424	0.36	Control	0.6724	n/a	Yes	3.473	n/a	n/a	GoodResponse	0	n/a	n/a	6	57	Blank	Neutral	True
545.775	1.45	Control	0.6724	n/a	Yes	3.473	n/a	5.0	GoodResponse	0	0.005	544.78	6	57	Feedback	Neutral	True
547.23	3.473	Control	0.6724	n/a	Yes	3.473	n/a	n/a	GoodResponse	0	0.0	n/a	6	57	ISIslide	Neutral	True
550.724	0.25	Win2	0.6779999999999999	0.0	Yes	2.726	0.024	n/a	GoodResponse	1	n/a	n/a	7	58	Cue	Win	True
550.974	4.05	Win2	0.6779999999999999	0.0	Yes	2.726	0.0	n/a	GoodResponse	1	n/a	n/a	7	58	Fixation	Win	True
555.02	0.33	Win2	0.6779999999999999	0.004	Yes	2.726	-0.004	2.0	GoodResponse	1	0.184	554.204	7	58	Target	Win	True
555.204	0.3	Win2	0.6779999999999999	0.004	Yes	2.726	-0.004	2.0	GoodResponse	1	0.184	n/a	7	58	ButtonPress	Win	True
555.354	0.37	Win2	0.6779999999999999	n/a	Yes	2.726	n/a	n/a	GoodResponse	1	n/a	n/a	7	58	Blank	Win	True
555.722	1.45	Win2	0.6779999999999999	n/a	Yes	2.726	n/a	5.0	GoodResponse	1	0.007	554.729	7	58	Feedback	Win	True
557.176	2.726	Win2	0.6779999999999999	n/a	Yes	2.726	n/a	n/a	GoodResponse	1	0.0	n/a	7	58	ISIslide	Win	True
559.918	0.25	Lose2	0.6833	0.0	Yes	2.682	0.018	n/a	GoodResponse	0	n/a	n/a	7	59	Cue	AvoidedLoss	True
560.169	4.0	Lose2	0.6833	0.0	Yes	2.682	0.001	n/a	GoodResponse	0	n/a	n/a	7	59	Fixation	AvoidedLoss	True
564.164	0.32	Lose2	0.6833	0.004	Yes	2.682	-0.004	2.0	GoodResponse	0	0.202	563.366	7	59	Target	AvoidedLoss	True
564.366	0.3	Lose2	0.6833	0.004	Yes	2.682	-0.004	2.0	GoodResponse	0	0.202	n/a	7	59	ButtonPress	AvoidedLoss	True
564.498	0.38	Lose2	0.6833	n/a	Yes	2.682	n/a	n/a	GoodResponse	0	n/a	n/a	7	59	Blank	AvoidedLoss	True
564.866	1.45	Lose2	0.6833	n/a	Yes	2.682	n/a	5.0	GoodResponse	0	0.034	563.9	7	59	Feedback	AvoidedLoss	True
566.32	2.682	Lose2	0.6833	n/a	Yes	2.682	n/a	n/a	GoodResponse	0	0.0	n/a	7	59	ISIslide	AvoidedLoss	True
569.029	0.25	Control	0.6884999999999999	0.0	Yes	2.671	0.029	n/a	GoodResponse	0	n/a	n/a	7	60	Cue	Neutral	True
569.279	4.0	Control	0.6884999999999999	0.0	Yes	2.671	0.0	n/a	GoodResponse	0	n/a	n/a	7	60	Fixation	Neutral	True
573.275	0.31	Control	0.6884999999999999	0.004	Yes	2.671	-0.004	2.0	GoodResponse	0	0.267	572.542	7	60	Target	Neutral	True
573.542	0.3	Control	0.6884999999999999	0.004	Yes	2.671	-0.004	2.0	GoodResponse	0	0.267	n/a	7	60	ButtonPress	Neutral	True
573.592	0.39	Control	0.6884999999999999	n/a	Yes	2.671	n/a	n/a	GoodResponse	0	n/a	n/a	7	60	Blank	Neutral	True
573.977	1.45	Control	0.6884999999999999	n/a	Yes	2.671	n/a	5.0	GoodResponse	0	0.045	573.022	7	60	Feedback	Neutral	True
575.431	2.671	Control	0.6884999999999999	n/a	Yes	2.671	n/a	n/a	GoodResponse	0	0.0	n/a	7	60	ISIslide	Neutral	True
578.122	0.25	Lose2	0.6934999999999999	0.001	Yes	2.978	0.022	n/a	GoodResponse	0	n/a	n/a	7	61	Cue	AvoidedLoss	True
578.373	4.0	Lose2	0.6934999999999999	0.0	Yes	2.978	0.001	n/a	GoodResponse	0	n/a	n/a	7	61	Fixation	AvoidedLoss	True
582.369	0.3	Lose2	0.6934999999999999	0.003	Yes	2.978	-0.003	2.0	GoodResponse	0	0.19	581.559	7	61	Target	AvoidedLoss	True
582.559	0.3	Lose2	0.6934999999999999	0.003	Yes	2.978	-0.003	2.0	GoodResponse	0	0.19	n/a	7	61	ButtonPress	AvoidedLoss	True
582.669	0.4	Lose2	0.6934999999999999	n/a	Yes	2.978	n/a	n/a	GoodResponse	0	n/a	n/a	7	61	Blank	AvoidedLoss	True
583.071	1.45	Lose2	0.6934999999999999	n/a	Yes	2.978	n/a	5.0	GoodResponse	0	0.024	582.095	7	61	Feedback	AvoidedLoss	True
584.525	2.978	Lose2	0.6934999999999999	n/a	Yes	2.978	n/a	n/a	GoodResponse	0	0.0	n/a	7	61	ISIslide	AvoidedLoss	True
587.517	0.25	Lose2	0.6984	0.0	Yes	2.883	0.017	n/a	GoodResponse	0	n/a	n/a	7	62	Cue	AvoidedLoss	True
587.768	3.9	Lose2	0.6984	0.0	Yes	2.883	0.001	n/a	GoodResponse	0	n/a	n/a	7	62	Fixation	AvoidedLoss	True
591.663	0.29	Lose2	0.6984	0.004	Yes	2.883	-0.004	2.0	GoodResponse	0	0.18	590.843	7	62	Target	AvoidedLoss	True
591.843	0.3	Lose2	0.6984	0.004	Yes	2.883	-0.004	2.0	GoodResponse	0	0.18	n/a	7	62	ButtonPress	AvoidedLoss	True
591.964	0.41	Lose2	0.6984	n/a	Yes	2.883	n/a	n/a	GoodResponse	0	n/a	n/a	7	62	Blank	AvoidedLoss	True
592.365	1.45	Lose2	0.6984	n/a	Yes	2.883	n/a	5.0	GoodResponse	0	0.047	591.412	7	62	Feedback	AvoidedLoss	True
593.82	2.883	Lose2	0.6984	n/a	Yes	2.883	n/a	n/a	GoodResponse	0	0.0	n/a	7	62	ISIslide	AvoidedLoss	True
596.728	0.25	Lose2	0.7031000000000001	0.0	Yes	2.622	0.028	n/a	GoodResponse	0	n/a	n/a	7	63	Cue	AvoidedLoss	True
596.979	4.05	Lose2	0.7031000000000001	0.0	Yes	2.622	0.001	n/a	GoodResponse	0	n/a	n/a	7	63	Fixation	AvoidedLoss	True
601.025	0.28	Lose2	0.7031000000000001	0.003	Yes	2.622	-0.003	2.0	GoodResponse	0	0.18	600.205	7	63	Target	AvoidedLoss	True
601.205	0.3	Lose2	0.7031000000000001	0.003	Yes	2.622	-0.003	2.0	GoodResponse	0	0.18	n/a	7	63	ButtonPress	AvoidedLoss	True
601.309	0.42	Lose2	0.7031000000000001	n/a	Yes	2.622	n/a	n/a	GoodResponse	0	n/a	n/a	7	63	Blank	AvoidedLoss	True
601.727	1.45	Lose2	0.7031000000000001	n/a	Yes	2.622	n/a	5.0	GoodResponse	0	0.003	600.73	7	63	Feedback	AvoidedLoss	True
603.181	2.622	Lose2	0.7031000000000001	n/a	Yes	2.622	n/a	n/a	GoodResponse	0	0.0	n/a	7	63	ISIslide	AvoidedLoss	True
605.822	0.25	Win2	0.7077	0.0	Yes	3.128	0.022	n/a	GoodResponse	1	n/a	n/a	8	64	Cue	Win	True
606.073	4.15	Win2	0.7077	0.0	Yes	3.128	0.001	n/a	GoodResponse	1	n/a	n/a	8	64	Fixation	Win	True
610.219	0.27	Win2	0.7077	0.003	Yes	3.128	-0.003	2.0	GoodResponse	1	0.196	609.415	8	64	Target	Win	True
610.415	0.3	Win2	0.7077	0.003	Yes	3.128	-0.003	2.0	GoodResponse	1	0.196	n/a	8	64	ButtonPress	Win	True
610.503	0.43	Win2	0.7077	n/a	Yes	3.128	n/a	n/a	GoodResponse	1	n/a	n/a	8	64	Blank	Win	True
610.921	1.45	Win2	0.7077	n/a	Yes	3.128	n/a	5.0	GoodResponse	1	0.027	609.948	8	64	Feedback	Win	True
612.375	3.128	Win2	0.7077	n/a	Yes	3.128	n/a	n/a	GoodResponse	1	0.0	n/a	8	64	ISIslide	Win	True
615.518	0.25	Control	0.7121	0.0	Yes	2.782	0.018	n/a	GoodResponse	0	n/a	n/a	8	65	Cue	Neutral	True
615.769	4.0	Control	0.7121	0.0	Yes	2.782	0.001	n/a	GoodResponse	0	n/a	n/a	8	65	Fixation	Neutral	True
619.764	0.26	Control	0.7121	0.004	Yes	2.782	-0.004	2.0	GoodResponse	0	0.184	618.948	8	65	Target	Neutral	True
619.948	0.3	Control	0.7121	0.004	Yes	2.782	-0.004	2.0	GoodResponse	0	0.184	n/a	8	65	ButtonPress	Neutral	True
620.032	0.44	Control	0.7121	n/a	Yes	2.782	n/a	n/a	GoodResponse	0	n/a	n/a	8	65	Blank	Neutral	True
620.466	1.45	Control	0.7121	n/a	Yes	2.782	n/a	5.0	GoodResponse	0	0.043	619.509	8	65	Feedback	Neutral	True
621.921	2.782	Control	0.7121	n/a	Yes	2.782	n/a	n/a	GoodResponse	0	0.0	n/a	8	65	ISIslide	Neutral	True
624.729	0.25	Win2	0.7164	0.0	Yes	2.771	0.029	n/a	GoodResponse	1	n/a	n/a	9	66	Cue	Win	True
624.98	3.9	Win2	0.7164	0.0	Yes	2.771	0.001	n/a	GoodResponse	1	n/a	n/a	9	66	Fixation	Win	True
628.875	0.25	Win2	0.7164	0.004	Yes	2.771	-0.004	2.0	GoodResponse	1	0.188	628.063	9	66	Target	Win	True
629.063	0.3	Win2	0.7164	0.004	Yes	2.771	-0.004	2.0	GoodResponse	1	0.188	n/a	9	66	ButtonPress	Win	True
629.125	0.45	Win2	0.7164	n/a	Yes	2.771	n/a	n/a	GoodResponse	1	n/a	n/a	9	66	Blank	Win	True
629.577	1.45	Win2	0.7164	n/a	Yes	2.771	n/a	5.0	GoodResponse	1	0.006	628.583	9	66	Feedback	Win	True
631.031	2.771	Win2	0.7164	n/a	Yes	2.771	n/a	n/a	GoodResponse	1	0.0	n/a	9	66	ISIslide	Win	True
633.823	0.25	Control	0.7206	0.0	Yes	2.727	0.023	n/a	GoodResponse	0	n/a	n/a	9	67	Cue	Neutral	True
634.074	3.95	Control	0.7206	0.0	Yes	2.727	0.001	n/a	GoodResponse	0	n/a	n/a	9	67	Fixation	Neutral	True
638.019	0.24	Control	0.7206	0.004	Yes	2.727	-0.004	2.0	GoodResponse	0	0.227	637.246	9	67	Target	Neutral	True
638.246	0.3	Control	0.7206	0.004	Yes	2.727	-0.004	2.0	GoodResponse	0	0.227	n/a	9	67	ButtonPress	Neutral	True
638.27	0.46	Control	0.7206	n/a	Yes	2.727	n/a	n/a	GoodResponse	0	n/a	n/a	9	67	Blank	Neutral	True
638.721	1.45	Control	0.7206	n/a	Yes	2.727	n/a	5.0	GoodResponse	0	0.032	637.753	9	67	Feedback	Neutral	True
640.175	2.727	Control	0.7206	n/a	Yes	2.727	n/a	n/a	GoodResponse	0	0.0	n/a	9	67	ISIslide	Neutral	True
642.917	0.25	Win2	0.7245999999999999	0.0	Yes	3.083	0.017	n/a	GoodResponse	1	n/a	n/a	10	68	Cue	Win	True
643.168	4.0	Win2	0.7245999999999999	0.0	Yes	3.083	0.001	n/a	GoodResponse	1	n/a	n/a	10	68	Fixation	Win	True
647.163	0.23	Win2	0.7245999999999999	0.004	Yes	3.083	-0.004	2.0	GoodResponse	1	0.194	646.357	10	68	Target	Win	True
647.357	0.3	Win2	0.7245999999999999	0.004	Yes	3.083	-0.004	2.0	GoodResponse	1	0.194	n/a	10	68	ButtonPress	Win	True
647.397	0.47	Win2	0.7245999999999999	n/a	Yes	3.083	n/a	n/a	GoodResponse	1	n/a	n/a	10	68	Blank	Win	True
647.865	1.45	Win2	0.7245999999999999	n/a	Yes	3.083	n/a	5.0	GoodResponse	1	0.01	646.875	10	68	Feedback	Win	True
649.319	3.083	Win2	0.7245999999999999	n/a	Yes	3.083	n/a	n/a	GoodResponse	1	0.0	n/a	10	68	ISIslide	Win	True
652.429	0.25	Win2	0.7286	0.0	Yes	3.221	0.029	n/a	GoodResponse	1	n/a	n/a	11	69	Cue	Win	True
652.679	3.95	Win2	0.7286	0.001	Yes	3.221	0.0	n/a	GoodResponse	1	n/a	n/a	11	69	Fixation	Win	True
656.625	0.22	Win2	0.7286	0.004	Yes	3.221	-0.004	2.0	GoodResponse	1	0.214	655.839	11	69	Target	Win	True
656.839	0.3	Win2	0.7286	0.004	Yes	3.221	-0.004	2.0	GoodResponse	1	0.214	n/a	11	69	ButtonPress	Win	True
656.859	0.48	Win2	0.7286	n/a	Yes	3.221	n/a	n/a	GoodResponse	1	n/a	n/a	11	69	Blank	Win	True
657.327	1.45	Win2	0.7286	n/a	Yes	3.221	n/a	5.0	GoodResponse	1	0.012	656.339	11	69	Feedback	Win	True
658.781	3.221	Win2	0.7286	n/a	Yes	3.221	n/a	n/a	GoodResponse	1	0.0	n/a	11	69	ISIslide	Win	True
662.024	0.25	Lose2	0.7323999999999999	0.0	Yes	3.026	0.024	n/a	GoodResponse	0	n/a	n/a	11	70	Cue	AvoidedLoss	True
662.275	4.05	Lose2	0.7323999999999999	0.0	Yes	3.026	0.001	n/a	GoodResponse	0	n/a	n/a	11	70	Fixation	AvoidedLoss	True
666.32	0.21	Lose2	0.7323999999999999	0.004	Yes	3.026	-0.004	2.0	GoodResponse	0	0.209	665.529	11	70	Target	AvoidedLoss	True
666.529	0.3	Lose2	0.7323999999999999	0.004	Yes	3.026	-0.004	2.0	GoodResponse	0	0.209	n/a	11	70	ButtonPress	AvoidedLoss	True
666.538	0.49	Lose2	0.7323999999999999	n/a	Yes	3.026	n/a	n/a	GoodResponse	0	n/a	n/a	11	70	Blank	AvoidedLoss	True
667.023	1.45	Lose2	0.7323999999999999	n/a	Yes	3.026	n/a	5.0	GoodResponse	0	0.023	666.046	11	70	Feedback	AvoidedLoss	True
668.477	3.026	Lose2	0.7323999999999999	n/a	Yes	3.026	n/a	n/a	GoodResponse	0	0.0	n/a	11	70	ISIslide	AvoidedLoss	True
671.519	0.25	Win2	0.7361	0.0	Yes	2.731	0.019	n/a	GoodResponse	1	n/a	n/a	12	71	Cue	Win	True
671.77	4.05	Win2	0.7361	0.0	Yes	2.731	0.001	n/a	GoodResponse	1	n/a	n/a	12	71	Fixation	Win	True
675.816	0.2	Win2	0.7361	0.003	Yes	2.731	-0.003	2.0	GoodResponse	1	0.187	675.003	12	71	Target	Win	True
676.003	0.3	Win2	0.7361	0.003	Yes	2.731	-0.003	2.0	GoodResponse	1	0.187	n/a	12	71	ButtonPress	Win	True
676.016	0.5	Win2	0.7361	n/a	Yes	2.731	n/a	n/a	GoodResponse	1	n/a	n/a	12	71	Blank	Win	True
676.518	1.45	Win2	0.7361	n/a	Yes	2.731	n/a	5.0	GoodResponse	1	0.04	675.558	12	71	Feedback	Win	True
677.972	2.731	Win2	0.7361	n/a	Yes	2.731	n/a	n/a	GoodResponse	1	0.0	n/a	12	71	ISIslide	Win	True
680.73	0.25	Win2	0.726	0.0	No	2.77	0.03	n/a	NoResponse	0	n/a	n/a	12	72	Cue	MissedWin	True
680.981	4.1	Win2	0.726	0.0	No	2.77	0.001	n/a	NoResponse	0	n/a	n/a	12	72	Fixation	MissedWin	True
685.077	0.19	Win2	0.726	0.003	No	2.77	-0.003	2.0	NoResponse	0	0.207	684.284	12	72	Target	MissedWin	True
685.277	0.51	Win2	0.726	n/a	No	2.77	n/a	n/a	NoResponse	0	n/a	n/a	12	72	Blank	MissedWin	True
685.284	0.3	Win2	0.726	0.003	No	2.77	-0.003	2.0	NoResponse	0	0.207	n/a	12	72	ButtonPress	MissedWin	True
685.779	1.45	Win2	0.726	n/a	No	2.77	n/a	5.0	NoResponse	0	0.047	684.826	12	72	Feedback	MissedWin	True
687.233	2.77	Win2	0.726	n/a	No	2.77	n/a	n/a	NoResponse	0	0.0	n/a	12	72	ISIslide	MissedWin	True
690.025	0.25	Win2	0.7162000000000001	0.0	No	2.675	0.025	n/a	NoResponse	0	n/a	n/a	12	73	Cue	MissedWin	True
690.276	4.0	Win2	0.7162000000000001	0.0	No	2.675	0.001	n/a	NoResponse	0	n/a	n/a	12	73	Fixation	MissedWin	True
694.271	0.18	Win2	0.7162000000000001	0.004	No	2.675	-0.004	2.0	NoResponse	0	0.191	693.462	12	73	Target	MissedWin	True
694.455	0.52	Win2	0.7162000000000001	n/a	No	2.675	n/a	n/a	NoResponse	0	n/a	n/a	12	73	Blank	MissedWin	True
694.462	0.3	Win2	0.7162000000000001	0.004	No	2.675	-0.004	2.0	NoResponse	0	0.191	n/a	12	73	ButtonPress	MissedWin	True
694.973	1.45	Win2	0.7162000000000001	n/a	No	2.675	n/a	5.0	NoResponse	0	0.024	693.997	12	73	Feedback	MissedWin	True
696.427	2.675	Win2	0.7162000000000001	n/a	No	2.675	n/a	n/a	NoResponse	0	0.0	n/a	12	73	ISIslide	MissedWin	True
699.119	0.25	Lose2	0.7067	0.0	No	2.631	0.019	n/a	NoResponse	-1	n/a	n/a	11	74	Cue	Loss	True
699.37	4.05	Lose2	0.7067	0.0	No	2.631	0.001	n/a	NoResponse	-1	n/a	n/a	11	74	Fixation	Loss	True
703.415	0.17	Lose2	0.7067	0.004	No	2.631	-0.004	2.0	NoResponse	-1	0.196	702.611	11	74	Target	Loss	True
703.599	0.53	Lose2	0.7067	n/a	No	2.631	n/a	n/a	NoResponse	-1	n/a	n/a	11	74	Blank	Loss	True
703.611	0.3	Lose2	0.7067	0.004	No	2.631	-0.004	2.0	NoResponse	-1	0.196	n/a	11	74	ButtonPress	Loss	True
704.117	1.45	Lose2	0.7067	n/a	No	2.631	n/a	5.0	NoResponse	-1	0.005	703.122	11	74	Feedback	Loss	True
705.571	2.631	Lose2	0.7067	n/a	No	2.631	n/a	n/a	NoResponse	-1	0.0	n/a	11	74	ISIslide	Loss	True
708.229	0.25	Lose2	0.6973999999999999	0.001	No	2.921	0.029	n/a	NoResponse	-1	n/a	n/a	10	75	Cue	Loss	True
708.48	3.95	Lose2	0.6973999999999999	0.0	No	2.921	0.001	n/a	NoResponse	-1	n/a	n/a	10	75	Fixation	Loss	True
712.425	0.16	Lose2	0.6973999999999999	0.004	No	2.921	-0.004	2.0	NoResponse	-1	0.206	711.631	10	75	Target	Loss	True
712.593	0.54	Lose2	0.6973999999999999	n/a	No	2.921	n/a	n/a	NoResponse	-1	n/a	n/a	10	75	Blank	Loss	True
712.631	0.3	Lose2	0.6973999999999999	0.004	No	2.921	-0.004	2.0	NoResponse	-1	0.206	n/a	10	75	ButtonPress	Loss	True
713.127	1.45	Lose2	0.6973999999999999	n/a	No	2.921	n/a	5.0	NoResponse	-1	0.016	712.143	10	75	Feedback	Loss	True
714.582	2.921	Lose2	0.6973999999999999	n/a	No	2.921	n/a	n/a	NoResponse	-1	0.0	n/a	10	75	ISIslide	Loss	True
717.524	0.25	Control	0.6883	0.0	No	3.226	0.024	n/a	NoResponse	0	n/a	n/a	10	76	Cue	Neutral	True
717.775	4.05	Control	0.6883	0.0	No	3.226	0.001	n/a	NoResponse	0	n/a	n/a	10	76	Fixation	Neutral	True
721.82	0.15	Control	0.6883	0.004	No	3.226	-0.004	2.0	NoResponse	0	0.199	721.019	10	76	Target	Neutral	True
721.971	0.55	Control	0.6883	n/a	No	3.226	n/a	n/a	NoResponse	0	n/a	n/a	10	76	Blank	Neutral	True
722.019	0.3	Control	0.6883	0.004	No	3.226	-0.004	2.0	NoResponse	0	0.199	n/a	10	76	ButtonPress	Neutral	True
722.522	1.45	Control	0.6883	n/a	No	3.226	n/a	5.0	NoResponse	0	0.036	721.558	10	76	Feedback	Neutral	True
723.977	3.226	Control	0.6883	n/a	No	3.226	n/a	n/a	NoResponse	0	0.0	n/a	10	76	ISIslide	Neutral	True
727.22	0.25	Lose2	0.6795	0.0	No	2.58	0.02	2.0	NoResponse	-1	0.212	726.432	9	77	Cue	Loss	False
727.432	0.3	Lose2	0.6795	0.0	No	2.58	0.02	2.0	NoResponse	-1	0.212	n/a	9	77	ButtonPress	Loss	False
727.471	3.95	Lose2	0.6795	0.0	No	2.58	0.001	n/a	NoResponse	-1	n/a	n/a	9	77	Fixation	Loss	False
731.416	0.15	Lose2	0.6795	0.004	No	2.58	-0.004	2.0	NoResponse	-1	0.286	730.702	9	77	Target	Loss	False
731.566	0.55	Lose2	0.6795	n/a	No	2.58	n/a	n/a	NoResponse	-1	n/a	n/a	9	77	Blank	Loss	False
731.702	0.3	Lose2	0.6795	0.004	No	2.58	-0.004	2.0	NoResponse	-1	0.286	n/a	9	77	ButtonPress	Loss	False
732.118	1.45	Lose2	0.6795	n/a	No	2.58	n/a	5.0	NoResponse	-1	0.001	731.119	9	77	Feedback	Loss	False
733.572	2.58	Lose2	0.6795	n/a	No	2.58	n/a	n/a	NoResponse	-1	0.0	n/a	9	77	ISIslide	Loss	False
