onset	duration	cue_type	current_mean_accuracy	duration_error	is_hit	isi_adjusted	onset_delay	response	response_type	reward	rt	rt_time	total_reward	trial_number	trial_phase	trial_type	one_press
11.104	0.25	Control	1.0	0.0	Yes	2.946	0.004	n/a	GoodResponse	0	n/a	n/a	0	0	Cue	Neutral	True
11.354	3.85	Control	1.0	0.0	Yes	2.946	0.0	n/a	GoodResponse	0	n/a	n/a	0	0	Fixation	Neutral	True
15.216	0.4	Control	1.0	0.0	Yes	2.946	0.012	2.0	GoodResponse	0	0.245	14.461	0	0	Target	Neutral	True
15.461	0.3	Control	1.0	0.0	Yes	2.946	0.012	2.0	GoodResponse	0	0.245	n/a	0	0	ButtonPress	Neutral	True
15.6	0.3	Control	1.0	n/a	Yes	2.946	n/a	n/a	GoodResponse	0	n/a	n/a	0	0	Blank	Neutral	True
15.901	1.45	Control	1.0	n/a	Yes	2.946	n/a	5.0	GoodResponse	0	0.025	14.926	0	0	Feedback	Neutral	True
17.356	2.946	Control	1.0	n/a	Yes	2.946	n/a	n/a	GoodResponse	0	0.0	n/a	0	0	ISIslide	Neutral	True
20.331	0.25	Lose2	1.0	0.0	Yes	2.769	0.031	n/a	GoodResponse	0	n/a	n/a	0	1	Cue	AvoidedLoss	True
20.582	4.0	Lose2	1.0	0.0	Yes	2.769	0.001	n/a	GoodResponse	0	n/a	n/a	0	1	Fixation	AvoidedLoss	True
24.577	0.39	Lose2	1.0	0.004	Yes	2.769	-0.004	2.0	GoodResponse	0	0.237	23.814	0	1	Target	AvoidedLoss	True
24.814	0.3	Lose2	1.0	0.004	Yes	2.769	-0.004	2.0	GoodResponse	0	0.237	n/a	0	1	ButtonPress	AvoidedLoss	True
24.979	0.31	Lose2	1.0	n/a	Yes	2.769	n/a	n/a	GoodResponse	0	n/a	n/a	0	1	Blank	AvoidedLoss	True
25.279	1.45	Lose2	1.0	n/a	Yes	2.769	n/a	5.0	GoodResponse	0	0.013	24.292	0	1	Feedback	AvoidedLoss	True
26.734	2.769	Lose2	1.0	n/a	Yes	2.769	n/a	n/a	GoodResponse	0	0.0	n/a	0	1	ISIslide	AvoidedLoss	True
29.526	0.25	Control	1.0	0.0	Yes	2.574	0.026	n/a	GoodResponse	0	n/a	n/a	0	2	Cue	Neutral	True
29.776	4.1	Control	1.0	0.0	Yes	2.574	0.0	n/a	GoodResponse	0	n/a	n/a	0	2	Fixation	Neutral	True
33.872	0.38	Control	1.0	0.004	Yes	2.574	-0.004	2.0	GoodResponse	0	0.205	33.077	0	2	Target	Neutral	True
34.077	0.3	Control	1.0	0.004	Yes	2.574	-0.004	2.0	GoodResponse	0	0.205	n/a	0	2	ButtonPress	Neutral	True
34.256	0.32	Control	1.0	n/a	Yes	2.574	n/a	n/a	GoodResponse	0	n/a	n/a	0	2	Blank	Neutral	True
34.574	1.45	Control	1.0	n/a	Yes	2.574	n/a	5.0	GoodResponse	0	0.035	33.609	0	2	Feedback	Neutral	True
36.028	2.574	Control	1.0	n/a	Yes	2.574	n/a	n/a	GoodResponse	0	0.0	n/a	0	2	ISIslide	Neutral	True
38.619	0.25	Win2	1.0	0.001	Yes	2.831	0.019	n/a	GoodResponse	1	n/a	n/a	1	3	Cue	Win	True
38.87	3.95	Win2	1.0	0.0	Yes	2.831	0.001	n/a	GoodResponse	1	n/a	n/a	1	3	Fixation	Win	True
42.815	0.37	Win2	1.0	0.004	Yes	2.831	-0.004	2.0	GoodResponse	1	0.217	42.032	1	3	Target	Win	True
43.032	0.3	Win2	1.0	0.004	Yes	2.831	-0.004	2.0	GoodResponse	1	0.217	n/a	1	3	ButtonPress	Win	True
43.2	0.33	Win2	1.0	n/a	Yes	2.831	n/a	n/a	GoodResponse	1	n/a	n/a	1	3	Blank	Win	True
43.518	1.45	Win2	1.0	n/a	Yes	2.831	n/a	5.0	GoodResponse	1	0.018	42.536	1	3	Feedback	Win	True
44.972	2.831	Win2	1.0	n/a	Yes	2.831	n/a	n/a	GoodResponse	1	0.0	n/a	1	3	ISIslide	Win	True
47.83	0.25	Win2	1.0	0.001	Yes	3.27	0.03	n/a	GoodResponse	1	n/a	n/a	2	4	Cue	Win	True
48.081	4.0	Win2	1.0	0.0	Yes	3.27	0.001	n/a	GoodResponse	1	n/a	n/a	2	4	Fixation	Win	True
52.077	0.36	Win2	1.0	0.003	Yes	3.27	-0.003	2.0	GoodResponse	1	0.208	51.285	2	4	Target	Win	True
52.285	0.3	Win2	1.0	0.003	Yes	3.27	-0.003	2.0	GoodResponse	1	0.208	n/a	2	4	ButtonPress	Win	True
52.444	0.34	Win2	1.0	n/a	Yes	3.27	n/a	n/a	GoodResponse	1	n/a	n/a	2	4	Blank	Win	True
52.779	1.45	Win2	1.0	n/a	Yes	3.27	n/a	5.0	GoodResponse	1	0.025	51.804	2	4	Feedback	Win	True
54.233	3.27	Win2	1.0	n/a	Yes	3.27	n/a	n/a	GoodResponse	1	0.0	n/a	2	4	ISIslide	Win	True
57.526	0.25	Win2	1.0	0.0	Yes	2.774	0.026	n/a	GoodResponse	1	n/a	n/a	3	5	Cue	Win	True
57.777	4.0	Win2	1.0	0.0	Yes	2.774	0.001	n/a	GoodResponse	1	n/a	n/a	3	5	Fixation	Win	True
61.772	0.35	Win2	1.0	0.004	Yes	2.774	-0.004	2.0	GoodResponse	1	0.222	60.994	3	5	Target	Win	True
61.994	0.3	Win2	1.0	0.004	Yes	2.774	-0.004	2.0	GoodResponse	1	0.222	n/a	3	5	ButtonPress	Win	True
62.123	0.35	Win2	1.0	n/a	Yes	2.774	n/a	n/a	GoodResponse	1	n/a	n/a	3	5	Blank	Win	True
62.474	1.45	Win2	1.0	n/a	Yes	2.774	n/a	5.0	GoodResponse	1	0.037	61.511	3	5	Feedback	Win	True
63.929	2.774	Win2	1.0	n/a	Yes	2.774	n/a	n/a	GoodResponse	1	0.0	n/a	3	5	ISIslide	Win	True
66.72	0.25	Lose2	1.0	0.001	Yes	2.73	0.02	n/a	GoodResponse	0	n/a	n/a	3	6	Cue	AvoidedLoss	True
66.971	3.95	Lose2	1.0	0.0	Yes	2.73	0.001	n/a	GoodResponse	0	n/a	n/a	3	6	Fixation	AvoidedLoss	True
70.916	0.34	Lose2	1.0	0.004	Yes	2.73	-0.004	2.0	GoodResponse	0	0.2	70.116	3	6	Target	AvoidedLoss	True
71.116	0.3	Lose2	1.0	0.004	Yes	2.73	-0.004	2.0	GoodResponse	0	0.2	n/a	3	6	ButtonPress	AvoidedLoss	True
71.267	0.36	Lose2	1.0	n/a	Yes	2.73	n/a	n/a	GoodResponse	0	n/a	n/a	3	6	Blank	AvoidedLoss	True
71.618	1.45	Lose2	1.0	n/a	Yes	2.73	n/a	5.0	GoodResponse	0	0.015	70.633	3	6	Feedback	AvoidedLoss	True
73.073	2.73	Lose2	1.0	n/a	Yes	2.73	n/a	n/a	GoodResponse	0	0.0	n/a	3	6	ISIslide	AvoidedLoss	True
75.831	0.25	Lose2	1.0	0.0	Yes	4.019	0.031	n/a	GoodResponse	0	n/a	n/a	3	7	Cue	AvoidedLoss	True
76.082	4.05	Lose2	1.0	0.0	Yes	4.019	0.001	n/a	GoodResponse	0	n/a	n/a	3	7	Fixation	AvoidedLoss	True
80.127	0.33	Lose2	1.0	0.004	Yes	4.019	-0.004	2.0	GoodResponse	0	0.207	79.334	3	7	Target	AvoidedLoss	True
80.334	0.3	Lose2	1.0	0.004	Yes	4.019	-0.004	2.0	GoodResponse	0	0.207	n/a	3	7	ButtonPress	AvoidedLoss	True
80.462	0.37	Lose2	1.0	n/a	Yes	4.019	n/a	n/a	GoodResponse	0	n/a	n/a	3	7	Blank	AvoidedLoss	True
80.829	1.45	Lose2	1.0	n/a	Yes	4.019	n/a	5.0	GoodResponse	0	0.024	79.853	3	7	Feedback	AvoidedLoss	True
82.284	4.019	Lose2	1.0	n/a	Yes	4.019	n/a	n/a	GoodResponse	0	0.0	n/a	3	7	ISIslide	AvoidedLoss	True
86.329	0.25	Lose2	1.0	0.0	Yes	3.021	0.029	n/a	GoodResponse	0	n/a	n/a	3	8	Cue	AvoidedLoss	True
86.58	3.95	Lose2	1.0	0.0	Yes	3.021	0.001	n/a	GoodResponse	0	n/a	n/a	3	8	Fixation	AvoidedLoss	True
90.525	0.32	Lose2	1.0	0.004	Yes	3.021	-0.004	2.0	GoodResponse	0	0.24	89.765	3	8	Target	AvoidedLoss	True
90.765	0.3	Lose2	1.0	0.004	Yes	3.021	-0.004	2.0	GoodResponse	0	0.24	n/a	3	8	ButtonPress	AvoidedLoss	True
90.86	0.38	Lose2	1.0	n/a	Yes	3.021	n/a	n/a	GoodResponse	0	n/a	n/a	3	8	Blank	AvoidedLoss	True
91.227	1.45	Lose2	1.0	n/a	Yes	3.021	n/a	5.0	GoodResponse	0	0.016	90.243	3	8	Feedback	AvoidedLoss	True
92.682	3.021	Lose2	1.0	n/a	Yes	3.021	n/a	n/a	GoodResponse	0	0.0	n/a	3	8	ISIslide	AvoidedLoss	True
95.724	0.25	Lose2	1.0	0.0	Yes	3.126	0.024	n/a	GoodResponse	0	n/a	n/a	3	9	Cue	AvoidedLoss	True
95.975	3.95	Lose2	1.0	0.0	Yes	3.126	0.001	n/a	GoodResponse	0	n/a	n/a	3	9	Fixation	AvoidedLoss	True
99.92	0.31	Lose2	1.0	0.004	Yes	3.126	-0.004	2.0	GoodResponse	0	0.225	99.145	3	9	Target	AvoidedLoss	True
100.145	0.3	Lose2	1.0	0.004	Yes	3.126	-0.004	2.0	GoodResponse	0	0.225	n/a	3	9	ButtonPress	AvoidedLoss	True
100.238	0.39	Lose2	1.0	n/a	Yes	3.126	n/a	n/a	GoodResponse	0	n/a	n/a	3	9	Blank	AvoidedLoss	True
100.622	1.45	Lose2	1.0	n/a	Yes	3.126	n/a	5.0	GoodResponse	0	0.036	99.658	3	9	Feedback	AvoidedLoss	True
102.077	3.126	Lose2	1.0	n/a	Yes	3.126	n/a	n/a	GoodResponse	0	0.0	n/a	3	9	ISIslide	AvoidedLoss	True
105.219	0.25	Control	1.0	0.0	Yes	3.281	0.019	n/a	GoodResponse	0	n/a	n/a	3	10	Cue	Neutral	True
105.47	4.0	Control	1.0	0.0	Yes	3.281	0.001	n/a	GoodResponse	0	n/a	n/a	3	10	Fixation	Neutral	True
109.465	0.3	Control	1.0	0.004	Yes	3.281	-0.004	2.0	GoodResponse	0	0.188	108.653	3	10	Target	Neutral	True
109.653	0.3	Control	1.0	0.004	Yes	3.281	-0.004	2.0	GoodResponse	0	0.188	n/a	3	10	ButtonPress	Neutral	True
109.766	0.4	Control	1.0	n/a	Yes	3.281	n/a	n/a	GoodResponse	0	n/a	n/a	3	10	Blank	Neutral	True
110.167	1.45	Control	1.0	n/a	Yes	3.281	n/a	5.0	GoodResponse	0	0.007	109.174	3	10	Feedback	Neutral	True
111.622	3.281	Control	1.0	n/a	Yes	3.281	n/a	n/a	GoodResponse	0	0.0	n/a	3	10	ISIslide	Neutral	True
114.915	0.25	Lose2	1.0	0.0	Yes	2.735	0.015	n/a	GoodResponse	0	n/a	n/a	3	11	Cue	AvoidedLoss	True
115.166	4.05	Lose2	1.0	0.0	Yes	2.735	0.001	n/a	GoodResponse	0	n/a	n/a	3	11	Fixation	AvoidedLoss	True
119.211	0.29	Lose2	1.0	0.004	Yes	2.735	-0.004	2.0	GoodResponse	0	0.24	118.451	3	11	Target	AvoidedLoss	True
119.451	0.3	Lose2	1.0	0.004	Yes	2.735	-0.004	2.0	GoodResponse	0	0.24	n/a	3	11	ButtonPress	AvoidedLoss	True
119.512	0.41	Lose2	1.0	n/a	Yes	2.735	n/a	n/a	GoodResponse	0	n/a	n/a	3	11	Blank	AvoidedLoss	True
119.913	1.45	Lose2	1.0	n/a	Yes	2.735	n/a	5.0	GoodResponse	0	0.012	118.925	3	11	Feedback	AvoidedLoss	True
121.368	2.735	Lose2	1.0	n/a	Yes	2.735	n/a	n/a	GoodResponse	0	0.0	n/a	3	11	ISIslide	AvoidedLoss	True
124.126	0.25	Control	1.0	0.0	Yes	2.974	0.026	n/a	GoodResponse	0	n/a	n/a	3	12	Cue	Neutral	True
124.377	3.9	Control	1.0	0.0	Yes	2.974	0.001	n/a	GoodResponse	0	n/a	n/a	3	12	Fixation	Neutral	True
128.272	0.28	Control	1.0	0.004	Yes	2.974	-0.004	2.0	GoodResponse	0	0.215	127.487	3	12	Target	Neutral	True
128.487	0.3	Control	1.0	0.004	Yes	2.974	-0.004	2.0	GoodResponse	0	0.215	n/a	3	12	ButtonPress	Neutral	True
128.556	0.42	Control	1.0	n/a	Yes	2.974	n/a	n/a	GoodResponse	0	n/a	n/a	3	12	Blank	Neutral	True
128.974	1.45	Control	1.0	n/a	Yes	2.974	n/a	5.0	GoodResponse	0	0.025	127.999	3	12	Feedback	Neutral	True
130.428	2.974	Control	1.0	n/a	Yes	2.974	n/a	n/a	GoodResponse	0	0.0	n/a	3	12	ISIslide	Neutral	True
133.421	0.25	Control	1.0	0.0	Yes	2.779	0.021	n/a	GoodResponse	0	n/a	n/a	3	13	Cue	Neutral	True
133.671	4.0	Control	1.0	0.0	Yes	2.779	0.0	n/a	GoodResponse	0	n/a	n/a	3	13	Fixation	Neutral	True
137.667	0.27	Control	1.0	0.004	Yes	2.779	-0.004	2.0	GoodResponse	0	0.249	136.916	3	13	Target	Neutral	True
137.916	0.3	Control	1.0	0.004	Yes	2.779	-0.004	2.0	GoodResponse	0	0.249	n/a	3	13	ButtonPress	Neutral	True
137.951	0.43	Control	1.0	n/a	Yes	2.779	n/a	n/a	GoodResponse	0	n/a	n/a	3	13	Blank	Neutral	True
138.369	1.45	Control	1.0	n/a	Yes	2.779	n/a	5.0	GoodResponse	0	0.045	137.414	3	13	Feedback	Neutral	True
139.823	2.779	Control	1.0	n/a	Yes	2.779	n/a	n/a	GoodResponse	0	0.0	n/a	3	13	ISIslide	Neutral	True
142.615	0.25	Win2	1.0	0.0	Yes	2.685	0.015	n/a	GoodResponse	1	n/a	n/a	4	14	Cue	Win	True
142.866	4.1	Win2	1.0	0.0	Yes	2.685	0.001	n/a	GoodResponse	1	n/a	n/a	4	14	Fixation	Win	True
146.961	0.26	Win2	1.0	0.004	Yes	2.685	-0.004	2.0	GoodResponse	1	0.211	146.172	4	14	Target	Win	True
147.172	0.3	Win2	1.0	0.004	Yes	2.685	-0.004	2.0	GoodResponse	1	0.211	n/a	4	14	ButtonPress	Win	True
147.229	0.44	Win2	1.0	n/a	Yes	2.685	n/a	n/a	GoodResponse	1	n/a	n/a	4	14	Blank	Win	True
147.663	1.45	Win2	1.0	n/a	Yes	2.685	n/a	5.0	GoodResponse	1	0.019	146.682	4	14	Feedback	Win	True
149.118	2.685	Win2	1.0	n/a	Yes	2.685	n/a	n/a	GoodResponse	1	0.0	n/a	4	14	ISIslide	Win	True
151.826	0.25	Control	1.0	0.0	Yes	2.974	0.026	n/a	GoodResponse	0	n/a	n/a	4	15	Cue	Neutral	True
152.077	4.0	Control	1.0	0.0	Yes	2.974	0.001	n/a	GoodResponse	0	n/a	n/a	4	15	Fixation	Neutral	True
156.072	0.25	Control	1.0	0.004	Yes	2.974	-0.004	2.0	GoodResponse	0	0.201	155.273	4	15	Target	Neutral	True
156.273	0.3	Control	1.0	0.004	Yes	2.974	-0.004	2.0	GoodResponse	0	0.201	n/a	4	15	ButtonPress	Neutral	True
156.323	0.45	Control	1.0	n/a	Yes	2.974	n/a	n/a	GoodResponse	0	n/a	n/a	4	15	Blank	Neutral	True
156.774	1.45	Control	1.0	n/a	Yes	2.974	n/a	5.0	GoodResponse	0	0.03	155.804	4	15	Feedback	Neutral	True
158.228	2.974	Control	1.0	n/a	Yes	2.974	n/a	n/a	GoodResponse	0	0.0	n/a	4	15	ISIslide	Neutral	True
161.221	0.25	Win2	1.0	0.0	Yes	2.879	0.021	n/a	GoodResponse	1	n/a	n/a	5	16	Cue	Win	True
161.471	4.0	Win2	1.0	0.0	Yes	2.879	0.0	n/a	GoodResponse	1	n/a	n/a	5	16	Fixation	Win	True
165.467	0.24	Win2	1.0	0.004	Yes	2.879	-0.004	2.0	GoodResponse	1	0.197	164.664	5	16	Target	Win	True
165.664	0.3	Win2	1.0	0.004	Yes	2.879	-0.004	2.0	GoodResponse	1	0.197	n/a	5	16	ButtonPress	Win	True
165.717	0.46	Win2	1.0	n/a	Yes	2.879	n/a	n/a	GoodResponse	1	n/a	n/a	5	16	Blank	Win	True
166.169	1.45	Win2	1.0	n/a	Yes	2.879	n/a	5.0	GoodResponse	1	0.001	165.17	5	16	Feedback	Win	True
167.623	2.879	Win2	1.0	n/a	Yes	2.879	n/a	n/a	GoodResponse	1	0.0	n/a	5	16	ISIslide	Win	True
170.515	0.25	Lose2	1.0	0.0	Yes	2.735	0.015	n/a	GoodResponse	0	n/a	n/a	5	17	Cue	AvoidedLoss	True
170.766	3.95	Lose2	1.0	0.0	Yes	2.735	0.001	n/a	GoodResponse	0	n/a	n/a	5	17	Fixation	AvoidedLoss	True
174.711	0.23	Lose2	1.0	0.004	Yes	2.735	-0.004	2.0	GoodResponse	0	0.189	173.9	5	17	Target	AvoidedLoss	True
174.9	0.3	Lose2	1.0	0.004	Yes	2.735	-0.004	2.0	GoodResponse	0	0.189	n/a	5	17	ButtonPress	AvoidedLoss	True
174.945	0.47	Lose2	1.0	n/a	Yes	2.735	n/a	n/a	GoodResponse	0	n/a	n/a	5	17	Blank	AvoidedLoss	True
175.413	1.45	Lose2	1.0	n/a	Yes	2.735	n/a	5.0	GoodResponse	0	0.025	174.438	5	17	Feedback	AvoidedLoss	True
176.868	2.735	Lose2	1.0	n/a	Yes	2.735	n/a	n/a	GoodResponse	0	0.0	n/a	5	17	ISIslide	AvoidedLoss	True
179.626	0.25	Lose2	1.0	0.0	Yes	2.724	0.026	n/a	GoodResponse	0	n/a	n/a	5	18	Cue	AvoidedLoss	True
179.877	4.05	Lose2	1.0	0.0	Yes	2.724	0.001	n/a	GoodResponse	0	n/a	n/a	5	18	Fixation	AvoidedLoss	True
183.922	0.22	Lose2	1.0	0.004	Yes	2.724	-0.004	2.0	GoodResponse	0	0.201	183.123	5	18	Target	AvoidedLoss	True
184.123	0.3	Lose2	1.0	0.004	Yes	2.724	-0.004	2.0	GoodResponse	0	0.201	n/a	5	18	ButtonPress	AvoidedLoss	True
184.156	0.48	Lose2	1.0	n/a	Yes	2.724	n/a	n/a	GoodResponse	0	n/a	n/a	5	18	Blank	AvoidedLoss	True
184.624	1.45	Lose2	1.0	n/a	Yes	2.724	n/a	5.0	GoodResponse	0	0.034	183.658	5	18	Feedback	AvoidedLoss	True
186.079	2.724	Lose2	1.0	n/a	Yes	2.724	n/a	n/a	GoodResponse	0	0.0	n/a	5	18	ISIslide	AvoidedLoss	True
188.82	0.25	Control	1.0	0.0	Yes	2.93	0.02	n/a	GoodResponse	0	n/a	n/a	5	19	Cue	Neutral	True
189.071	3.95	Control	1.0	0.0	Yes	2.93	0.001	n/a	GoodResponse	0	n/a	n/a	5	19	Fixation	Neutral	True
193.016	0.21	Control	1.0	0.004	Yes	2.93	-0.004	2.0	GoodResponse	0	0.188	192.204	5	19	Target	Neutral	True
193.204	0.3	Control	1.0	0.004	Yes	2.93	-0.004	2.0	GoodResponse	0	0.188	n/a	5	19	ButtonPress	Neutral	True
193.233	0.49	Control	1.0	n/a	Yes	2.93	n/a	n/a	GoodResponse	0	n/a	n/a	5	19	Blank	Neutral	True
193.718	1.45	Control	1.0	n/a	Yes	2.93	n/a	5.0	GoodResponse	0	0.012	192.73	5	19	Feedback	Neutral	True
195.172	2.93	Control	1.0	n/a	Yes	2.93	n/a	n/a	GoodResponse	0	0.0	n/a	5	19	ISIslide	Neutral	True
198.115	0.25	Control	0.9523999999999999	0.0	No	2.635	0.015	n/a	NoResponse	0	n/a	n/a	5	20	Cue	Neutral	True
198.365	4.05	Control	0.9523999999999999	0.001	No	2.635	0.0	n/a	NoResponse	0	n/a	n/a	5	20	Fixation	Neutral	True
202.411	0.2	Control	0.9523999999999999	0.004	No	2.635	-0.004	2.0	NoResponse	0	0.259	201.67	5	20	Target	Neutral	True
202.611	0.5	Control	0.9523999999999999	n/a	No	2.635	n/a	n/a	NoResponse	0	n/a	n/a	5	20	Blank	Neutral	True
202.67	0.3	Control	0.9523999999999999	0.004	No	2.635	-0.004	2.0	NoResponse	0	0.259	n/a	5	20	ButtonPress	Neutral	True
203.113	1.45	Control	0.9523999999999999	n/a	No	2.635	n/a	5.0	NoResponse	0	0.032	202.145	5	20	Feedback	Neutral	True
204.567	2.635	Control	0.9523999999999999	n/a	No	2.635	n/a	n/a	NoResponse	0	0.0	n/a	5	20	ISIslide	Neutral	True
207.225	0.25	Control	0.9091	0.0	No	2.775	0.025	n/a	NoResponse	0	n/a	n/a	5	21	Cue	Neutral	True
207.476	4.1	Control	0.9091	0.0	No	2.775	0.001	n/a	NoResponse	0	n/a	n/a	5	21	Fixation	Neutral	True
211.572	0.19	Control	0.9091	0.003	No	2.775	-0.003	2.0	NoResponse	0	0.228	210.8	5	21	Target	Neutral	True
211.772	0.51	Control	0.9091	n/a	No	2.775	n/a	n/a	NoResponse	0	n/a	n/a	5	21	Blank	Neutral	True
211.8	0.3	Control	0.9091	0.003	No	2.775	-0.003	2.0	NoResponse	0	0.228	n/a	5	21	ButtonPress	Neutral	True
212.274	1.45	Control	0.9091	n/a	No	2.775	n/a	5.0	NoResponse	0	0.042	211.316	5	21	Feedback	Neutral	True
213.728	2.775	Control	0.9091	n/a	No	2.775	n/a	n/a	NoResponse	0	0.0	n/a	5	21	ISIslide	Neutral	True
216.52	0.25	Control	0.8695999999999999	0.0	No	2.78	0.02	n/a	NoResponse	0	n/a	n/a	5	22	Cue	Neutral	True
216.771	4.0	Control	0.8695999999999999	0.0	No	2.78	0.001	n/a	NoResponse	0	n/a	n/a	5	22	Fixation	Neutral	True
220.766	0.18	Control	0.8695999999999999	0.004	No	2.78	-0.004	2.0	NoResponse	0	0.227	219.993	5	22	Target	Neutral	True
220.95	0.52	Control	0.8695999999999999	n/a	No	2.78	n/a	n/a	NoResponse	0	n/a	n/a	5	22	Blank	Neutral	True
220.993	0.3	Control	0.8695999999999999	0.004	No	2.78	-0.004	2.0	NoResponse	0	0.227	n/a	5	22	ButtonPress	Neutral	True
221.468	1.45	Control	0.8695999999999999	n/a	No	2.78	n/a	5.0	NoResponse	0	0.019	220.487	5	22	Feedback	Neutral	True
222.922	2.78	Control	0.8695999999999999	n/a	No	2.78	n/a	n/a	NoResponse	0	0.0	n/a	5	22	ISIslide	Neutral	True
225.714	0.25	Control	0.8332999999999999	0.0	No	2.786	0.014	n/a	NoResponse	0	n/a	n/a	5	23	Cue	Neutral	True
225.965	3.9	Control	0.8332999999999999	0.0	No	2.786	0.001	n/a	NoResponse	0	n/a	n/a	5	23	Fixation	Neutral	True
229.86	0.17	Control	0.8332999999999999	0.004	No	2.786	-0.004	2.0	NoResponse	0	0.217	229.077	5	23	Target	Neutral	True
230.044	0.53	Control	0.8332999999999999	n/a	No	2.786	n/a	n/a	NoResponse	0	n/a	n/a	5	23	Blank	Neutral	True
230.077	0.3	Control	0.8332999999999999	0.004	No	2.786	-0.004	2.0	NoResponse	0	0.217	n/a	5	23	ButtonPress	Neutral	True
230.562	1.45	Control	0.8332999999999999	n/a	No	2.786	n/a	5.0	NoResponse	0	0.047	229.609	5	23	Feedback	Neutral	True
232.016	2.786	Control	0.8332999999999999	n/a	No	2.786	n/a	n/a	NoResponse	0	0.0	n/a	5	23	ISIslide	Neutral	True
234.825	0.25	Win2	0.8	0.0	No	3.125	0.025	n/a	NoResponse	0	n/a	n/a	5	24	Cue	MissedWin	True
235.075	3.95	Win2	0.8	0.001	No	3.125	0.0	n/a	NoResponse	0	n/a	n/a	5	24	Fixation	MissedWin	True
239.021	0.16	Win2	0.8	0.004	No	3.125	-0.004	2.0	NoResponse	0	0.199	238.22	5	24	Target	MissedWin	True
239.188	0.54	Win2	0.8	n/a	No	3.125	n/a	n/a	NoResponse	0	n/a	n/a	5	24	Blank	MissedWin	True
239.22	0.3	Win2	0.8	0.004	No	3.125	-0.004	2.0	NoResponse	0	0.199	n/a	5	24	ButtonPress	MissedWin	True
239.723	1.45	Win2	0.8	n/a	No	3.125	n/a	5.0	NoResponse	0	0.008	238.731	5	24	Feedback	MissedWin	True
241.177	3.125	Win2	0.8	n/a	No	3.125	n/a	n/a	NoResponse	0	0.0	n/a	5	24	ISIslide	MissedWin	True
244.32	0.25	Win2	0.7692	0.0	No	3.08	0.02	n/a	NoResponse	0	n/a	n/a	5	25	Cue	MissedWin	True
244.571	4.0	Win2	0.7692	0.0	No	3.08	0.001	n/a	NoResponse	0	n/a	n/a	5	25	Fixation	MissedWin	True
248.566	0.15	Win2	0.7692	0.004	No	3.08	-0.004	2.0	NoResponse	0	0.2	247.766	5	25	Target	MissedWin	True
248.716	0.55	Win2	0.7692	n/a	No	3.08	n/a	n/a	NoResponse	0	n/a	n/a	5	25	Blank	MissedWin	True
248.766	0.3	Win2	0.7692	0.004	No	3.08	-0.004	2.0	NoResponse	0	0.2	n/a	5	25	ButtonPress	MissedWin	True
249.268	1.45	Win2	0.7692	n/a	No	3.08	n/a	5.0	NoResponse	0	0.024	248.292	5	25	Feedback	MissedWin	True
250.722	3.08	Win2	0.7692	n/a	No	3.08	n/a	n/a	NoResponse	0	0.0	n/a	5	25	ISIslide	MissedWin	True
253.815	0.25	Win2	0.7406999999999999	0.0	No	2.935	0.015	n/a	NoResponse	0	n/a	n/a	5	26	Cue	MissedWin	True
254.066	3.95	Win2	0.7406999999999999	0.0	No	2.935	0.001	n/a	NoResponse	0	n/a	n/a	5	26	Fixation	MissedWin	True
258.011	0.15	Win2	0.7406999999999999	0.004	No	2.935	-0.004	2.0	NoResponse	0	0.205	257.216	5	26	Target	MissedWin	True
258.161	0.55	Win2	0.7406999999999999	n/a	No	2.935	n/a	n/a	NoResponse	0	n/a	n/a	5	26	Blank	MissedWin	True
258.216	0.3	Win2	0.7406999999999999	0.004	No	2.935	-0.004	2.0	NoResponse	0	0.205	n/a	5	26	ButtonPress	MissedWin	True
258.713	1.45	Win2	0.7406999999999999	n/a	No	2.935	n/a	5.0	NoResponse	0	0.043	257.756	5	26	Feedback	MissedWin	True
260.167	2.935	Win2	0.7406999999999999	n/a	No	2.935	n/a	n/a	NoResponse	0	0.0	n/a	5	26	ISIslide	MissedWin	True
263.126	0.25	Lose2	0.7143	0.0	No	2.824	0.026	n/a	NoResponse	-1	n/a	n/a	4	27	Cue	Loss	True
263.377	4.05	Lose2	0.7143	0.0	No	2.824	0.001	n/a	NoResponse	-1	n/a	n/a	4	27	Fixation	Loss	True
267.423	0.15	Lose2	0.7143	0.003	No	2.824	-0.003	2.0	NoResponse	-1	0.184	266.607	4	27	Target	Loss	True
267.573	0.55	Lose2	0.7143	n/a	No	2.824	n/a	n/a	NoResponse	-1	n/a	n/a	4	27	Blank	Loss	True
267.607	0.3	Lose2	0.7143	0.003	No	2.824	-0.003	2.0	NoResponse	-1	0.184	n/a	4	27	ButtonPress	Loss	True
268.125	1.45	Lose2	0.7143	n/a	No	2.824	n/a	5.0	NoResponse	-1	0.044	267.169	4	27	Feedback	Loss	True
269.579	2.824	Lose2	0.7143	n/a	No	2.824	n/a	n/a	NoResponse	-1	0.0	n/a	4	27	ISIslide	Loss	True
272.421	0.25	Control	0.6897	0.0	No	2.829	0.021	n/a	NoResponse	0	n/a	n/a	4	28	Cue	Neutral	True
272.672	4.05	Control	0.6897	0.0	No	2.829	0.001	n/a	NoResponse	0	n/a	n/a	4	28	Fixation	Neutral	True
276.717	0.15	Control	0.6897	0.004	No	2.829	-0.004	2.0	NoResponse	0	0.21	275.927	4	28	Target	Neutral	True
276.868	0.55	Control	0.6897	n/a	No	2.829	n/a	n/a	NoResponse	0	n/a	n/a	4	28	Blank	Neutral	True
276.927	0.3	Control	0.6897	0.004	No	2.829	-0.004	2.0	NoResponse	0	0.21	n/a	4	28	ButtonPress	Neutral	True
277.419	1.45	Control	0.6897	n/a	No	2.829	n/a	5.0	NoResponse	0	0.019	276.438	4	28	Feedback	Neutral	True
278.874	2.829	Control	0.6897	n/a	No	2.829	n/a	n/a	NoResponse	0	0.0	n/a	4	28	ISIslide	Neutral	True
281.715	0.25	Lose2	0.6667000000000001	0.0	No	2.835	0.015	n/a	NoResponse	-1	n/a	n/a	3	29	Cue	Loss	True
281.966	3.95	Lose2	0.6667000000000001	0.0	No	2.835	0.001	n/a	NoResponse	-1	n/a	n/a	3	29	Fixation	Loss	True
285.911	0.15	Lose2	0.6667000000000001	0.004	No	2.835	-0.004	2.0	NoResponse	-1	0.203	285.114	3	29	Target	Loss	True
286.062	0.55	Lose2	0.6667000000000001	n/a	No	2.835	n/a	n/a	NoResponse	-1	n/a	n/a	3	29	Blank	Loss	True
286.114	0.3	Lose2	0.6667000000000001	0.004	No	2.835	-0.004	2.0	NoResponse	-1	0.203	n/a	3	29	ButtonPress	Loss	True
286.613	1.45	Lose2	0.6667000000000001	n/a	No	2.835	n/a	5.0	NoResponse	-1	0.044	285.657	3	29	Feedback	Loss	True
288.068	2.835	Lose2	0.6667000000000001	n/a	No	2.835	n/a	n/a	NoResponse	-1	0.0	n/a	3	29	ISIslide	Loss	True
290.926	0.25	Win2	0.6452	0.0	No	2.774	0.026	n/a	NoResponse	0	n/a	n/a	3	30	Cue	MissedWin	True
291.177	3.9	Win2	0.6452	0.0	No	2.774	0.001	n/a	NoResponse	0	n/a	n/a	3	30	Fixation	MissedWin	True
295.072	0.15	Win2	0.6452	0.004	No	2.774	-0.004	2.0	NoResponse	0	0.231	294.303	3	30	Target	MissedWin	True
295.223	0.55	Win2	0.6452	n/a	No	2.774	n/a	n/a	NoResponse	0	n/a	n/a	3	30	Blank	MissedWin	True
295.303	0.3	Win2	0.6452	0.004	No	2.774	-0.004	2.0	NoResponse	0	0.231	n/a	3	30	ButtonPress	MissedWin	True
295.774	1.45	Win2	0.6452	n/a	No	2.774	n/a	5.0	NoResponse	0	0.005	294.779	3	30	Feedback	MissedWin	True
297.229	2.774	Win2	0.6452	n/a	No	2.774	n/a	n/a	NoResponse	0	0.0	n/a	3	30	ISIslide	MissedWin	True
300.02	0.25	Lose2	0.625	0.0	No	2.83	0.02	n/a	NoResponse	-1	n/a	n/a	2	31	Cue	Loss	True
300.271	4.05	Lose2	0.625	0.0	No	2.83	0.001	n/a	NoResponse	-1	n/a	n/a	2	31	Fixation	Loss	True
304.317	0.16	Lose2	0.625	0.003	No	2.83	-0.003	2.0	NoResponse	-1	0.196	303.513	2	31	Target	Loss	True
304.484	0.54	Lose2	0.625	n/a	No	2.83	n/a	n/a	NoResponse	-1	n/a	n/a	2	31	Blank	Loss	True
304.513	0.3	Lose2	0.625	0.003	No	2.83	-0.003	2.0	NoResponse	-1	0.196	n/a	2	31	ButtonPress	Loss	True
305.019	1.45	Lose2	0.625	n/a	No	2.83	n/a	5.0	NoResponse	-1	0.029	304.048	2	31	Feedback	Loss	True
306.473	2.83	Lose2	0.625	n/a	No	2.83	n/a	n/a	NoResponse	-1	0.0	n/a	2	31	ISIslide	Loss	True
309.315	0.25	Lose2	0.6061	0.0	No	2.635	0.015	n/a	NoResponse	-1	n/a	n/a	1	32	Cue	Loss	True
309.566	4.15	Lose2	0.6061	0.0	No	2.635	0.001	n/a	NoResponse	-1	n/a	n/a	1	32	Fixation	Loss	True
313.711	0.17	Lose2	0.6061	0.004	No	2.635	-0.004	2.0	NoResponse	-1	0.209	312.92	1	32	Target	Loss	True
313.895	0.53	Lose2	0.6061	n/a	No	2.635	n/a	n/a	NoResponse	-1	n/a	n/a	1	32	Blank	Loss	True
313.92	0.3	Lose2	0.6061	0.004	No	2.635	-0.004	2.0	NoResponse	-1	0.209	n/a	1	32	ButtonPress	Loss	True
314.413	1.45	Lose2	0.6061	n/a	No	2.635	n/a	5.0	NoResponse	-1	0.001	313.414	1	32	Feedback	Loss	True
315.868	2.635	Lose2	0.6061	n/a	No	2.635	n/a	n/a	NoResponse	-1	0.0	n/a	1	32	ISIslide	Loss	True
318.526	0.25	Win2	0.6175999999999999	0.0	Yes	2.674	0.026	n/a	GoodResponse	1	n/a	n/a	2	33	Cue	Win	True
318.777	4.0	Win2	0.6175999999999999	0.0	Yes	2.674	0.001	n/a	GoodResponse	1	n/a	n/a	2	33	Fixation	Win	True
322.772	0.18	Win2	0.6175999999999999	0.004	Yes	2.674	-0.004	2.0	GoodResponse	1	0.17	321.942	2	33	Target	Win	True
322.942	0.3	Win2	0.6175999999999999	0.004	Yes	2.674	-0.004	2.0	GoodResponse	1	0.17	n/a	2	33	ButtonPress	Win	True
322.956	0.52	Win2	0.6175999999999999	n/a	Yes	2.674	n/a	n/a	GoodResponse	1	n/a	n/a	2	33	Blank	Win	True
323.474	1.45	Win2	0.6175999999999999	n/a	Yes	2.674	n/a	5.0	GoodResponse	1	0.013	322.487	2	33	Feedback	Win	True
324.928	2.674	Win2	0.6175999999999999	n/a	Yes	2.674	n/a	n/a	GoodResponse	1	0.0	n/a	2	33	ISIslide	Win	True
327.62	0.25	Lose2	0.6	0.0	No	2.63	0.02	n/a	LatePress	-1	n/a	n/a	1	34	Cue	Loss	True
327.871	4.05	Lose2	0.6	0.0	No	2.63	0.001	n/a	LatePress	-1	n/a	n/a	1	34	Fixation	Loss	True
331.916	0.19	Lose2	0.6	0.004	No	2.63	-0.004	2.0	LatePress	-1	0.195	331.111	1	34	Target	Loss	True
332.111	0.3	Lose2	0.6	0.004	No	2.63	-0.004	2.0	LatePress	-1	0.195	n/a	1	34	ButtonPress	Loss	True
332.117	0.51	Lose2	0.6	n/a	No	2.63	n/a	n/a	LatePress	-1	n/a	n/a	1	34	Blank	Loss	True
332.618	1.45	Lose2	0.6	n/a	No	2.63	n/a	5.0	LatePress	-1	0.04	331.658	1	34	Feedback	Loss	True
334.072	2.63	Lose2	0.6	n/a	No	2.63	n/a	n/a	LatePress	-1	0.0	n/a	1	34	ISIslide	Loss	True
336.714	0.25	Lose2	0.5832999999999999	0.0	No	2.686	0.014	n/a	NoResponse	-1	n/a	n/a	0	35	Cue	Loss	True
336.964	4.0	Lose2	0.5832999999999999	0.001	No	2.686	0.0	n/a	NoResponse	-1	n/a	n/a	0	35	Fixation	Loss	True
340.96	0.2	Lose2	0.5832999999999999	0.004	No	2.686	-0.004	2.0	NoResponse	-1	0.231	340.191	0	35	Target	Loss	True
341.16	0.5	Lose2	0.5832999999999999	n/a	No	2.686	n/a	n/a	NoResponse	-1	n/a	n/a	0	35	Blank	Loss	True
341.191	0.3	Lose2	0.5832999999999999	0.004	No	2.686	-0.004	2.0	NoResponse	-1	0.231	n/a	0	35	ButtonPress	Loss	True
341.662	1.45	Lose2	0.5832999999999999	n/a	No	2.686	n/a	5.0	NoResponse	-1	0.019	340.681	0	35	Feedback	Loss	True
343.116	2.686	Lose2	0.5832999999999999	n/a	No	2.686	n/a	n/a	NoResponse	-1	0.0	n/a	0	35	ISIslide	Loss	True
345.824	0.25	Control	0.5676	0.0	No	2.676	0.024	n/a	NoResponse	0	n/a	n/a	0	36	Cue	Neutral	True
346.075	4.0	Control	0.5676	0.0	No	2.676	0.001	n/a	NoResponse	0	n/a	n/a	0	36	Fixation	Neutral	True
350.07	0.21	Control	0.5676	0.004	No	2.676	-0.004	2.0	NoResponse	0	0.259	349.329	0	36	Target	Neutral	True
350.288	0.49	Control	0.5676	n/a	No	2.676	n/a	n/a	NoResponse	0	n/a	n/a	0	36	Blank	Neutral	True
350.329	0.3	Control	0.5676	0.004	No	2.676	-0.004	2.0	NoResponse	0	0.259	n/a	0	36	ButtonPress	Neutral	True
350.773	1.45	Control	0.5676	n/a	No	2.676	n/a	5.0	NoResponse	0	0.031	349.804	0	36	Feedback	Neutral	True
352.227	2.676	Control	0.5676	n/a	No	2.676	n/a	n/a	NoResponse	0	0.0	n/a	0	36	ISIslide	Neutral	True
354.918	0.25	Win2	0.5789	0.0	Yes	2.882	0.018	n/a	GoodResponse	1	n/a	n/a	1	37	Cue	Win	True
355.169	4.0	Win2	0.5789	0.0	Yes	2.882	0.001	n/a	GoodResponse	1	n/a	n/a	1	37	Fixation	Win	True
359.164	0.22	Win2	0.5789	0.004	Yes	2.882	-0.004	2.0	GoodResponse	1	0.198	358.362	1	37	Target	Win	True
359.362	0.3	Win2	0.5789	0.004	Yes	2.882	-0.004	2.0	GoodResponse	1	0.198	n/a	1	37	ButtonPress	Win	True
359.398	0.48	Win2	0.5789	n/a	Yes	2.882	n/a	n/a	GoodResponse	1	n/a	n/a	1	37	Blank	Win	True
359.867	1.45	Win2	0.5789	n/a	Yes	2.882	n/a	5.0	GoodResponse	1	0.01	358.877	1	37	Feedback	Win	True
361.321	2.882	Win2	0.5789	n/a	Yes	2.882	n/a	n/a	GoodResponse	1	0.0	n/a	1	37	ISIslide	Win	True
364.23	0.25	Lose2	0.5897	0.0	Yes	2.82	0.03	n/a	GoodResponse	0	n/a	n/a	1	38	Cue	AvoidedLoss	True
364.48	3.95	Lose2	0.5897	0.0	Yes	2.82	0.0	n/a	GoodResponse	0	n/a	n/a	1	38	Fixation	AvoidedLoss	True
368.442	0.23	Lose2	0.5897	0.0	Yes	2.82	0.012	2.0	GoodResponse	0	0.212	367.654	1	38	Target	AvoidedLoss	True
368.654	0.3	Lose2	0.5897	0.0	Yes	2.82	0.012	2.0	GoodResponse	0	0.212	n/a	1	38	ButtonPress	AvoidedLoss	True
368.66	0.47	Lose2	0.5897	n/a	Yes	2.82	n/a	n/a	GoodResponse	0	n/a	n/a	1	38	Blank	AvoidedLoss	True
369.128	1.45	Lose2	0.5897	n/a	Yes	2.82	n/a	5.0	GoodResponse	0	0.017	368.145	1	38	Feedback	AvoidedLoss	True
370.582	2.82	Lose2	0.5897	n/a	Yes	2.82	n/a	n/a	GoodResponse	0	0.0	n/a	1	38	ISIslide	AvoidedLoss	True
373.424	0.25	Win2	0.575	0.0	No	2.976	0.024	n/a	LatePress	0	n/a	n/a	1	39	Cue	MissedWin	True
373.675	4.1	Win2	0.575	0.0	No	2.976	0.001	n/a	LatePress	0	n/a	n/a	1	39	Fixation	MissedWin	True
377.77	0.24	Win2	0.575	0.004	No	2.976	-0.004	2.0	LatePress	0	0.249	377.019	1	39	Target	MissedWin	True
378.019	0.3	Win2	0.575	0.004	No	2.976	-0.004	2.0	LatePress	0	0.249	n/a	1	39	ButtonPress	MissedWin	True
378.021	0.46	Win2	0.575	n/a	No	2.976	n/a	n/a	LatePress	0	n/a	n/a	1	39	Blank	MissedWin	True
378.472	1.45	Win2	0.575	n/a	No	2.976	n/a	5.0	LatePress	0	0.039	377.511	1	39	Feedback	MissedWin	True
379.927	2.976	Win2	0.575	n/a	No	2.976	n/a	n/a	LatePress	0	0.0	n/a	1	39	ISIslide	MissedWin	True
382.919	0.25	Win2	0.5854	0.0	Yes	2.731	0.019	n/a	GoodResponse	1	n/a	n/a	2	40	Cue	Win	True
383.17	3.95	Win2	0.5854	0.0	Yes	2.731	0.001	n/a	GoodResponse	1	n/a	n/a	2	40	Fixation	Win	True
387.115	0.25	Win2	0.5854	0.004	Yes	2.731	-0.004	2.0	GoodResponse	1	0.223	386.338	2	40	Target	Win	True
387.338	0.3	Win2	0.5854	0.004	Yes	2.731	-0.004	2.0	GoodResponse	1	0.223	n/a	2	40	ButtonPress	Win	True
387.366	0.45	Win2	0.5854	n/a	Yes	2.731	n/a	n/a	GoodResponse	1	n/a	n/a	2	40	Blank	Win	True
387.817	1.45	Win2	0.5854	n/a	Yes	2.731	n/a	5.0	GoodResponse	1	0.011	386.828	2	40	Feedback	Win	True
389.271	2.731	Win2	0.5854	n/a	Yes	2.731	n/a	n/a	GoodResponse	1	0.0	n/a	2	40	ISIslide	Win	True
392.03	0.25	Win2	0.5952000000000001	0.0	Yes	2.77	0.03	n/a	GoodResponse	1	n/a	n/a	3	41	Cue	Win	True
392.28	3.9	Win2	0.5952000000000001	0.0	Yes	2.77	0.0	n/a	GoodResponse	1	n/a	n/a	3	41	Fixation	Win	True
396.192	0.26	Win2	0.5952000000000001	0.0	Yes	2.77	0.012	2.0	GoodResponse	1	0.206	395.398	3	41	Target	Win	True
396.398	0.3	Win2	0.5952000000000001	0.0	Yes	2.77	0.012	2.0	GoodResponse	1	0.206	n/a	3	41	ButtonPress	Win	True
396.443	0.44	Win2	0.5952000000000001	n/a	Yes	2.77	n/a	n/a	GoodResponse	1	n/a	n/a	3	41	Blank	Win	True
396.878	1.45	Win2	0.5952000000000001	n/a	Yes	2.77	n/a	5.0	GoodResponse	1	0.024	395.902	3	41	Feedback	Win	True
398.332	2.77	Win2	0.5952000000000001	n/a	Yes	2.77	n/a	n/a	GoodResponse	1	0.0	n/a	3	41	ISIslide	Win	True
401.124	0.25	Control	0.6047	0.0	Yes	2.926	0.024	n/a	GoodResponse	0	n/a	n/a	3	42	Cue	Neutral	True
401.374	3.85	Control	0.6047	0.0	Yes	2.926	0.0	n/a	GoodResponse	0	n/a	n/a	3	42	Fixation	Neutral	True
405.236	0.27	Control	0.6047	0.0	Yes	2.926	0.012	2.0	GoodResponse	0	0.208	404.444	3	42	Target	Neutral	True
405.444	0.3	Control	0.6047	0.0	Yes	2.926	0.012	2.0	GoodResponse	0	0.208	n/a	3	42	ButtonPress	Neutral	True
405.503	0.43	Control	0.6047	n/a	Yes	2.926	n/a	n/a	GoodResponse	0	n/a	n/a	3	42	Blank	Neutral	True
405.921	1.45	Control	0.6047	n/a	Yes	2.926	n/a	5.0	GoodResponse	0	0.006	404.927	3	42	Feedback	Neutral	True
407.376	2.926	Control	0.6047	n/a	Yes	2.926	n/a	n/a	GoodResponse	0	0.0	n/a	3	42	ISIslide	Neutral	True
410.318	0.25	Win2	0.5909	0.0	No	3.182	0.018	n/a	NoResponse	0	n/a	n/a	3	43	Cue	MissedWin	False
410.569	4.0	Win2	0.5909	0.0	No	3.182	0.001	n/a	NoResponse	0	n/a	n/a	3	43	Fixation	MissedWin	False
414.564	0.28	Win2	0.5909	0.004	No	3.182	-0.004	n/a	NoResponse	0	n/a	n/a	3	43	Target	MissedWin	False
414.848	0.42	Win2	0.5909	n/a	No	3.182	n/a	n/a	NoResponse	0	n/a	n/a	3	43	Blank	MissedWin	False
415.266	1.45	Win2	0.5909	n/a	No	3.182	n/a	5.0	NoResponse	0	0.026	414.292	3	43	Feedback	MissedWin	False
416.72	3.182	Win2	0.5909	n/a	No	3.182	n/a	n/a	NoResponse	0	0.0	n/a	3	43	ISIslide	MissedWin	False
419.913	0.25	Win2	0.6	0.0	Yes	2.987	0.013	n/a	GoodResponse	1	n/a	n/a	4	44	Cue	Win	True
420.164	4.0	Win2	0.6	0.0	Yes	2.987	0.001	n/a	GoodResponse	1	n/a	n/a	4	44	Fixation	Win	True
424.159	0.29	Win2	0.6	0.004	Yes	2.987	-0.004	2.0	GoodResponse	1	0.183	423.342	4	44	Target	Win	True
424.342	0.3	Win2	0.6	0.004	Yes	2.987	-0.004	2.0	GoodResponse	1	0.183	n/a	4	44	ButtonPress	Win	True
424.46	0.41	Win2	0.6	n/a	Yes	2.987	n/a	n/a	GoodResponse	1	n/a	n/a	4	44	Blank	Win	True
424.861	1.45	Win2	0.6	n/a	Yes	2.987	n/a	5.0	GoodResponse	1	0.04	423.901	4	44	Feedback	Win	True
426.316	2.987	Win2	0.6	n/a	Yes	2.987	n/a	n/a	GoodResponse	1	0.0	n/a	4	44	ISIslide	Win	True
429.325	0.25	Control	0.6087	0.0	Yes	2.875	0.025	n/a	GoodResponse	0	n/a	n/a	4	45	Cue	Neutral	True
429.576	4.1	Control	0.6087	0.0	Yes	2.875	0.001	n/a	GoodResponse	0	n/a	n/a	4	45	Fixation	Neutral	True
433.671	0.3	Control	0.6087	0.004	Yes	2.875	-0.004	2.0	GoodResponse	0	0.21	432.881	4	45	Target	Neutral	True
433.881	0.3	Control	0.6087	0.004	Yes	2.875	-0.004	2.0	GoodResponse	0	0.21	n/a	4	45	ButtonPress	Neutral	True
433.972	0.4	Control	0.6087	n/a	Yes	2.875	n/a	n/a	GoodResponse	0	n/a	n/a	4	45	Blank	Neutral	True
434.373	1.45	Control	0.6087	n/a	Yes	2.875	n/a	5.0	GoodResponse	0	0.04	433.413	4	45	Feedback	Neutral	True
435.828	2.875	Control	0.6087	n/a	Yes	2.875	n/a	n/a	GoodResponse	0	0.0	n/a	4	45	ISIslide	Neutral	True
438.72	0.25	Lose2	0.617	0.0	Yes	3.38	0.02	n/a	GoodResponse	0	n/a	n/a	4	46	Cue	AvoidedLoss	True
438.97	4.0	Lose2	0.617	0.001	Yes	3.38	0.0	n/a	GoodResponse	0	n/a	n/a	4	46	Fixation	AvoidedLoss	True
442.966	0.31	Lose2	0.617	0.004	Yes	3.38	-0.004	2.0	GoodResponse	0	0.185	442.151	4	46	Target	AvoidedLoss	True
443.151	0.3	Lose2	0.617	0.004	Yes	3.38	-0.004	2.0	GoodResponse	0	0.185	n/a	4	46	ButtonPress	AvoidedLoss	True
443.283	0.39	Lose2	0.617	n/a	Yes	3.38	n/a	n/a	GoodResponse	0	n/a	n/a	4	46	Blank	AvoidedLoss	True
443.668	1.45	Lose2	0.617	n/a	Yes	3.38	n/a	5.0	GoodResponse	0	0.014	442.682	4	46	Feedback	AvoidedLoss	True
445.122	3.38	Lose2	0.617	n/a	Yes	3.38	n/a	n/a	GoodResponse	0	0.0	n/a	4	46	ISIslide	AvoidedLoss	True
448.516	0.25	Lose2	0.625	0.0	Yes	2.684	0.016	n/a	GoodResponse	0	n/a	n/a	4	47	Cue	AvoidedLoss	True
448.767	4.0	Lose2	0.625	0.0	Yes	2.684	0.001	n/a	GoodResponse	0	n/a	n/a	4	47	Fixation	AvoidedLoss	True
452.762	0.32	Lose2	0.625	0.004	Yes	2.684	-0.004	2.0	GoodResponse	0	0.189	451.951	4	47	Target	AvoidedLoss	True
452.951	0.3	Lose2	0.625	0.004	Yes	2.684	-0.004	2.0	GoodResponse	0	0.189	n/a	4	47	ButtonPress	AvoidedLoss	True
453.096	0.38	Lose2	0.625	n/a	Yes	2.684	n/a	n/a	GoodResponse	0	n/a	n/a	4	47	Blank	AvoidedLoss	True
453.464	1.45	Lose2	0.625	n/a	Yes	2.684	n/a	5.0	GoodResponse	0	0.023	452.487	4	47	Feedback	AvoidedLoss	True
454.918	2.684	Lose2	0.625	n/a	Yes	2.684	n/a	n/a	GoodResponse	0	0.0	n/a	4	47	ISIslide	AvoidedLoss	True
457.626	0.25	Lose2	0.6122	0.001	No	3.024	0.026	n/a	NoResponse	-1	n/a	n/a	3	48	Cue	Loss	True
457.877	3.95	Lose2	0.6122	0.0	No	3.024	0.001	n/a	NoResponse	-1	n/a	n/a	3	48	Fixation	Loss	True
461.822	0.33	Lose2	0.6122	0.004	No	3.024	-0.004	2.0	NoResponse	-1	0.344	461.166	3	48	Target	Loss	True
462.157	0.37	Lose2	0.6122	n/a	No	3.024	n/a	n/a	NoResponse	-1	n/a	n/a	3	48	Blank	Loss	True
462.166	0.3	Lose2	0.6122	0.004	No	3.024	-0.004	2.0	NoResponse	-1	0.344	n/a	3	48	ButtonPress	Loss	True
462.524	1.45	Lose2	0.6122	n/a	No	3.024	n/a	5.0	NoResponse	-1	0.036	461.56	3	48	Feedback	Loss	True
463.979	3.024	Lose2	0.6122	n/a	No	3.024	n/a	n/a	NoResponse	-1	0.0	n/a	3	48	ISIslide	Loss	True
467.021	0.25	Control	0.62	0.0	Yes	2.879	0.021	n/a	GoodResponse	0	n/a	n/a	3	49	Cue	Neutral	True
467.272	4.0	Control	0.62	0.0	Yes	2.879	0.001	n/a	GoodResponse	0	n/a	n/a	3	49	Fixation	Neutral	True
471.267	0.34	Control	0.62	0.004	Yes	2.879	-0.004	2.0	GoodResponse	0	0.174	470.441	3	49	Target	Neutral	True
471.441	0.3	Control	0.62	0.004	Yes	2.879	-0.004	2.0	GoodResponse	0	0.174	n/a	3	49	ButtonPress	Neutral	True
471.618	0.36	Control	0.62	n/a	Yes	2.879	n/a	n/a	GoodResponse	0	n/a	n/a	3	49	Blank	Neutral	True
471.969	1.45	Control	0.62	n/a	Yes	2.879	n/a	5.0	GoodResponse	0	0.006	470.975	3	49	Feedback	Neutral	True
473.424	2.879	Control	0.62	n/a	Yes	2.879	n/a	n/a	GoodResponse	0	0.0	n/a	3	49	ISIslide	Neutral	True
476.316	0.25	Control	0.6078	0.0	No	2.784	0.016	n/a	NoResponse	0	n/a	n/a	3	50	Cue	Neutral	True
476.567	4.0	Control	0.6078	0.0	No	2.784	0.001	n/a	NoResponse	0	n/a	n/a	3	50	Fixation	Neutral	True
480.562	0.35	Control	0.6078	0.004	No	2.784	-0.004	2.0	NoResponse	0	0.364	479.926	3	50	Target	Neutral	True
480.913	0.35	Control	0.6078	n/a	No	2.784	n/a	n/a	NoResponse	0	n/a	n/a	3	50	Blank	Neutral	True
480.926	0.3	Control	0.6078	0.004	No	2.784	-0.004	2.0	NoResponse	0	0.364	n/a	3	50	ButtonPress	Neutral	True
481.264	1.45	Control	0.6078	n/a	No	2.784	n/a	5.0	NoResponse	0	0.028	480.292	3	50	Feedback	Neutral	True
482.718	2.784	Control	0.6078	n/a	No	2.784	n/a	n/a	NoResponse	0	0.0	n/a	3	50	ISIslide	Neutral	True
485.527	0.25	Control	0.6154	0.0	Yes	2.723	0.027	n/a	GoodResponse	0	n/a	n/a	3	51	Cue	Neutral	True
485.778	3.95	Control	0.6154	0.0	Yes	2.723	0.001	n/a	GoodResponse	0	n/a	n/a	3	51	Fixation	Neutral	True
489.723	0.36	Control	0.6154	0.004	Yes	2.723	-0.004	2.0	GoodResponse	0	0.21	488.933	3	51	Target	Neutral	True
489.933	0.3	Control	0.6154	0.004	Yes	2.723	-0.004	2.0	GoodResponse	0	0.21	n/a	3	51	ButtonPress	Neutral	True
490.09	0.34	Control	0.6154	n/a	Yes	2.723	n/a	n/a	GoodResponse	0	n/a	n/a	3	51	Blank	Neutral	True
490.425	1.45	Control	0.6154	n/a	Yes	2.723	n/a	5.0	GoodResponse	0	0.038	489.463	3	51	Feedback	Neutral	True
491.879	2.723	Control	0.6154	n/a	Yes	2.723	n/a	n/a	GoodResponse	0	0.0	n/a	3	51	ISIslide	Neutral	True
494.621	0.25	Control	0.6225999999999999	0.0	Yes	2.629	0.021	n/a	GoodResponse	0	n/a	n/a	3	52	Cue	Neutral	True
494.871	4.05	Control	0.6225999999999999	0.001	Yes	2.629	0.0	n/a	GoodResponse	0	n/a	n/a	3	52	Fixation	Neutral	True
498.917	0.37	Control	0.6225999999999999	0.004	Yes	2.629	-0.004	2.0	GoodResponse	0	0.229	498.146	3	52	Target	Neutral	True
499.146	0.3	Control	0.6225999999999999	0.004	Yes	2.629	-0.004	2.0	GoodResponse	0	0.229	n/a	3	52	ButtonPress	Neutral	True
499.301	0.33	Control	0.6225999999999999	n/a	Yes	2.629	n/a	n/a	GoodResponse	0	n/a	n/a	3	52	Blank	Neutral	True
499.619	1.45	Control	0.6225999999999999	n/a	Yes	2.629	n/a	5.0	GoodResponse	0	0.014	498.633	3	52	Feedback	Neutral	True
501.073	2.629	Control	0.6225999999999999	n/a	Yes	2.629	n/a	n/a	GoodResponse	0	0.0	n/a	3	52	ISIslide	Neutral	True
503.715	0.25	Win2	0.6296	0.0	Yes	2.935	0.015	n/a	GoodResponse	1	n/a	n/a	4	53	Cue	Win	True
503.965	4.05	Win2	0.6296	0.001	Yes	2.935	0.0	n/a	GoodResponse	1	n/a	n/a	4	53	Fixation	Win	True
508.011	0.38	Win2	0.6296	0.004	Yes	2.935	-0.004	2.0	GoodResponse	1	0.211	507.222	4	53	Target	Win	True
508.222	0.3	Win2	0.6296	0.004	Yes	2.935	-0.004	2.0	GoodResponse	1	0.211	n/a	4	53	ButtonPress	Win	True
508.395	0.32	Win2	0.6296	n/a	Yes	2.935	n/a	n/a	GoodResponse	1	n/a	n/a	4	53	Blank	Win	True
508.713	1.45	Win2	0.6296	n/a	Yes	2.935	n/a	5.0	GoodResponse	1	0.042	507.755	4	53	Feedback	Win	True
510.167	2.935	Win2	0.6296	n/a	Yes	2.935	n/a	n/a	GoodResponse	1	0.0	n/a	4	53	ISIslide	Win	True
513.126	0.25	Win2	0.6364	0.0	Yes	2.724	0.026	n/a	GoodResponse	1	n/a	n/a	5	54	Cue	Win	True
513.377	3.95	Win2	0.6364	0.0	Yes	2.724	0.001	n/a	GoodResponse	1	n/a	n/a	5	54	Fixation	Win	True
517.322	0.39	Win2	0.6364	0.004	Yes	2.724	-0.004	2.0	GoodResponse	1	0.232	516.554	5	54	Target	Win	True
517.554	0.3	Win2	0.6364	0.004	Yes	2.724	-0.004	2.0	GoodResponse	1	0.232	n/a	5	54	ButtonPress	Win	True
517.723	0.31	Win2	0.6364	n/a	Yes	2.724	n/a	n/a	GoodResponse	1	n/a	n/a	5	54	Blank	Win	True
518.024	1.45	Win2	0.6364	n/a	Yes	2.724	n/a	5.0	GoodResponse	1	0.048	517.072	5	54	Feedback	Win	True
519.479	2.724	Win2	0.6364	n/a	Yes	2.724	n/a	n/a	GoodResponse	1	0.0	n/a	5	54	ISIslide	Win	True
522.22	0.25	Control	0.6429	0.0	Yes	3.03	0.02	n/a	GoodResponse	0	n/a	n/a	5	55	Cue	Neutral	True
522.471	3.95	Control	0.6429	0.0	Yes	3.03	0.001	n/a	GoodResponse	0	n/a	n/a	5	55	Fixation	Neutral	True
526.416	0.4	Control	0.6429	0.004	Yes	3.03	-0.004	2.0	GoodResponse	0	0.259	525.675	5	55	Target	Neutral	True
526.675	0.3	Control	0.6429	0.004	Yes	3.03	-0.004	2.0	GoodResponse	0	0.259	n/a	5	55	ButtonPress	Neutral	True
526.817	0.3	Control	0.6429	n/a	Yes	3.03	n/a	n/a	GoodResponse	0	n/a	n/a	5	55	Blank	Neutral	True
527.118	1.45	Control	0.6429	n/a	Yes	3.03	n/a	5.0	GoodResponse	0	0.027	526.145	5	55	Feedback	Neutral	True
528.573	3.03	Control	0.6429	n/a	Yes	3.03	n/a	n/a	GoodResponse	0	0.0	n/a	5	55	ISIslide	Neutral	True
531.615	0.25	Control	0.6491	0.0	Yes	2.835	0.015	n/a	GoodResponse	0	n/a	n/a	5	56	Cue	Neutral	True
531.866	3.95	Control	0.6491	0.0	Yes	2.835	0.001	n/a	GoodResponse	0	n/a	n/a	5	56	Fixation	Neutral	True
535.811	0.41	Control	0.6491	0.004	Yes	2.835	-0.004	2.0	GoodResponse	0	0.215	535.026	5	56	Target	Neutral	True
536.026	0.3	Control	0.6491	0.004	Yes	2.835	-0.004	2.0	GoodResponse	0	0.215	n/a	5	56	ButtonPress	Neutral	True
536.229	0.29	Control	0.6491	n/a	Yes	2.835	n/a	n/a	GoodResponse	0	n/a	n/a	5	56	Blank	Neutral	True
536.513	1.45	Control	0.6491	n/a	Yes	2.835	n/a	5.0	GoodResponse	0	0.047	535.56	5	56	Feedback	Neutral	True
537.967	2.835	Control	0.6491	n/a	Yes	2.835	n/a	n/a	GoodResponse	0	0.0	n/a	5	56	ISIslide	Neutral	True
540.826	0.25	Control	0.6552	0.0	Yes	3.474	0.026	n/a	GoodResponse	0	n/a	n/a	5	57	Cue	Neutral	True
541.077	4.0	Control	0.6552	0.0	Yes	3.474	0.001	n/a	GoodResponse	0	n/a	n/a	5	57	Fixation	Neutral	True
545.072	0.42	Control	0.6552	0.004	Yes	3.474	-0.004	2.0	GoodResponse	0	0.228	544.3	5	57	Target	Neutral	True
545.3	0.3	Control	0.6552	0.004	Yes	3.474	-0.004	2.0	GoodResponse	0	0.228	n/a	5	57	ButtonPress	Neutral	True
545.507	0.28	Control	0.6552	n/a	Yes	3.474	n/a	n/a	GoodResponse	0	n/a	n/a	5	57	Blank	Neutral	True
545.774	1.45	Control	0.6552	n/a	Yes	3.474	n/a	5.0	GoodResponse	0	0.006	544.78	5	57	Feedback	Neutral	True
547.229	3.474	Control	0.6552	n/a	Yes	3.474	n/a	n/a	GoodResponse	0	0.0	n/a	5	57	ISIslide	Neutral	True
550.722	0.25	Win2	0.6609999999999999	0.0	Yes	2.728	0.022	n/a	GoodResponse	1	n/a	n/a	6	58	Cue	Win	True
550.973	4.05	Win2	0.6609999999999999	0.0	Yes	2.728	0.001	n/a	GoodResponse	1	n/a	n/a	6	58	Fixation	Win	True
555.019	0.42	Win2	0.6609999999999999	0.003	Yes	2.728	-0.003	2.0	GoodResponse	1	0.245	554.264	6	58	Target	Win	True
555.264	0.3	Win2	0.6609999999999999	0.003	Yes	2.728	-0.003	2.0	GoodResponse	1	0.245	n/a	6	58	ButtonPress	Win	True
555.453	0.28	Win2	0.6609999999999999	n/a	Yes	2.728	n/a	n/a	GoodResponse	1	n/a	n/a	6	58	Blank	Win	True
555.721	1.45	Win2	0.6609999999999999	n/a	Yes	2.728	n/a	5.0	GoodResponse	1	0.01	554.731	6	58	Feedback	Win	True
557.175	2.728	Win2	0.6609999999999999	n/a	Yes	2.728	n/a	n/a	GoodResponse	1	0.0	n/a	6	58	ISIslide	Win	True
559.917	0.25	Lose2	0.6667000000000001	0.0	Yes	2.683	0.017	n/a	GoodResponse	0	n/a	n/a	6	59	Cue	AvoidedLoss	True
560.167	4.0	Lose2	0.6667000000000001	0.0	Yes	2.683	0.0	n/a	GoodResponse	0	n/a	n/a	6	59	Fixation	AvoidedLoss	True
564.163	0.42	Lose2	0.6667000000000001	0.004	Yes	2.683	-0.004	2.0	GoodResponse	0	0.241	563.404	6	59	Target	AvoidedLoss	True
564.404	0.3	Lose2	0.6667000000000001	0.004	Yes	2.683	-0.004	2.0	GoodResponse	0	0.241	n/a	6	59	ButtonPress	AvoidedLoss	True
564.597	0.28	Lose2	0.6667000000000001	n/a	Yes	2.683	n/a	n/a	GoodResponse	0	n/a	n/a	6	59	Blank	AvoidedLoss	True
564.865	1.45	Lose2	0.6667000000000001	n/a	Yes	2.683	n/a	5.0	GoodResponse	0	0.036	563.901	6	59	Feedback	AvoidedLoss	True
566.319	2.683	Lose2	0.6667000000000001	n/a	Yes	2.683	n/a	n/a	GoodResponse	0	0.0	n/a	6	59	ISIslide	AvoidedLoss	True
569.027	0.25	Control	0.6720999999999999	0.0	Yes	2.673	0.027	n/a	GoodResponse	0	n/a	n/a	6	60	Cue	Neutral	True
569.278	4.0	Control	0.6720999999999999	0.0	Yes	2.673	0.001	n/a	GoodResponse	0	n/a	n/a	6	60	Fixation	Neutral	True
573.273	0.41	Control	0.6720999999999999	0.004	Yes	2.673	-0.004	2.0	GoodResponse	0	0.204	572.477	6	60	Target	Neutral	True
573.477	0.3	Control	0.6720999999999999	0.004	Yes	2.673	-0.004	2.0	GoodResponse	0	0.204	n/a	6	60	ButtonPress	Neutral	True
573.691	0.29	Control	0.6720999999999999	n/a	Yes	2.673	n/a	n/a	GoodResponse	0	n/a	n/a	6	60	Blank	Neutral	True
573.975	1.45	Control	0.6720999999999999	n/a	Yes	2.673	n/a	5.0	GoodResponse	0	0.048	573.023	6	60	Feedback	Neutral	True
575.43	2.673	Control	0.6720999999999999	n/a	Yes	2.673	n/a	n/a	GoodResponse	0	0.0	n/a	6	60	ISIslide	Neutral	True
578.121	0.25	Lose2	0.6774	0.0	Yes	2.979	0.021	n/a	GoodResponse	0	n/a	n/a	6	61	Cue	AvoidedLoss	True
578.372	4.0	Lose2	0.6774	0.0	Yes	2.979	0.001	n/a	GoodResponse	0	n/a	n/a	6	61	Fixation	AvoidedLoss	True
582.367	0.4	Lose2	0.6774	0.004	Yes	2.979	-0.004	2.0	GoodResponse	0	0.194	581.561	6	61	Target	AvoidedLoss	True
582.561	0.3	Lose2	0.6774	0.004	Yes	2.979	-0.004	2.0	GoodResponse	0	0.194	n/a	6	61	ButtonPress	AvoidedLoss	True
582.768	0.3	Lose2	0.6774	n/a	Yes	2.979	n/a	n/a	GoodResponse	0	n/a	n/a	6	61	Blank	AvoidedLoss	True
583.069	1.45	Lose2	0.6774	n/a	Yes	2.979	n/a	5.0	GoodResponse	0	0.027	582.096	6	61	Feedback	AvoidedLoss	True
584.524	2.979	Lose2	0.6774	n/a	Yes	2.979	n/a	n/a	GoodResponse	0	0.0	n/a	6	61	ISIslide	AvoidedLoss	True
587.516	0.25	Lose2	0.6825	0.0	Yes	2.884	0.016	n/a	GoodResponse	0	n/a	n/a	6	62	Cue	AvoidedLoss	True
587.767	3.9	Lose2	0.6825	0.0	Yes	2.884	0.001	n/a	GoodResponse	0	n/a	n/a	6	62	Fixation	AvoidedLoss	True
591.662	0.39	Lose2	0.6825	0.004	Yes	2.884	-0.004	2.0	GoodResponse	0	0.217	590.879	6	62	Target	AvoidedLoss	True
591.879	0.3	Lose2	0.6825	0.004	Yes	2.884	-0.004	2.0	GoodResponse	0	0.217	n/a	6	62	ButtonPress	AvoidedLoss	True
592.063	0.31	Lose2	0.6825	n/a	Yes	2.884	n/a	n/a	GoodResponse	0	n/a	n/a	6	62	Blank	AvoidedLoss	True
592.364	1.45	Lose2	0.6825	n/a	Yes	2.884	n/a	5.0	GoodResponse	0	0.001	591.365	6	62	Feedback	AvoidedLoss	True
593.818	2.884	Lose2	0.6825	n/a	Yes	2.884	n/a	n/a	GoodResponse	0	0.0	n/a	6	62	ISIslide	AvoidedLoss	True
596.727	0.25	Lose2	0.6875	0.0	Yes	2.623	0.027	n/a	GoodResponse	0	n/a	n/a	6	63	Cue	AvoidedLoss	True
596.978	4.05	Lose2	0.6875	0.0	Yes	2.623	0.001	n/a	GoodResponse	0	n/a	n/a	6	63	Fixation	AvoidedLoss	True
601.023	0.38	Lose2	0.6875	0.004	Yes	2.623	-0.004	2.0	GoodResponse	0	0.247	600.27	6	63	Target	AvoidedLoss	True
601.27	0.3	Lose2	0.6875	0.004	Yes	2.623	-0.004	2.0	GoodResponse	0	0.247	n/a	6	63	ButtonPress	AvoidedLoss	True
601.408	0.32	Lose2	0.6875	n/a	Yes	2.623	n/a	n/a	GoodResponse	0	n/a	n/a	6	63	Blank	AvoidedLoss	True
601.725	1.45	Lose2	0.6875	n/a	Yes	2.623	n/a	5.0	GoodResponse	0	0.006	600.731	6	63	Feedback	AvoidedLoss	True
603.18	2.623	Lose2	0.6875	n/a	Yes	2.623	n/a	n/a	GoodResponse	0	0.0	n/a	6	63	ISIslide	AvoidedLoss	True
605.821	0.25	Win2	0.6923	0.0	Yes	3.129	0.021	n/a	GoodResponse	1	n/a	n/a	7	64	Cue	Win	True
606.072	4.15	Win2	0.6923	0.0	Yes	3.129	0.001	n/a	GoodResponse	1	n/a	n/a	7	64	Fixation	Win	True
610.218	0.37	Win2	0.6923	0.003	Yes	3.129	-0.003	2.0	GoodResponse	1	0.231	609.449	7	64	Target	Win	True
610.449	0.3	Win2	0.6923	0.003	Yes	3.129	-0.003	2.0	GoodResponse	1	0.231	n/a	7	64	ButtonPress	Win	True
610.602	0.33	Win2	0.6923	n/a	Yes	3.129	n/a	n/a	GoodResponse	1	n/a	n/a	7	64	Blank	Win	True
610.92	1.45	Win2	0.6923	n/a	Yes	3.129	n/a	5.0	GoodResponse	1	0.03	609.95	7	64	Feedback	Win	True
612.374	3.129	Win2	0.6923	n/a	Yes	3.129	n/a	n/a	GoodResponse	1	0.0	n/a	7	64	ISIslide	Win	True
615.517	0.25	Control	0.6970000000000001	0.0	Yes	2.783	0.017	n/a	GoodResponse	0	n/a	n/a	7	65	Cue	Neutral	True
615.767	4.0	Control	0.6970000000000001	0.001	Yes	2.783	0.0	n/a	GoodResponse	0	n/a	n/a	7	65	Fixation	Neutral	True
619.763	0.36	Control	0.6970000000000001	0.004	Yes	2.783	-0.004	2.0	GoodResponse	0	0.225	618.988	7	65	Target	Neutral	True
619.988	0.3	Control	0.6970000000000001	0.004	Yes	2.783	-0.004	2.0	GoodResponse	0	0.225	n/a	7	65	ButtonPress	Neutral	True
620.131	0.34	Control	0.6970000000000001	n/a	Yes	2.783	n/a	n/a	GoodResponse	0	n/a	n/a	7	65	Blank	Neutral	True
620.465	1.45	Control	0.6970000000000001	n/a	Yes	2.783	n/a	5.0	GoodResponse	0	0.046	619.511	7	65	Feedback	Neutral	True
621.919	2.783	Control	0.6970000000000001	n/a	Yes	2.783	n/a	n/a	GoodResponse	0	0.0	n/a	7	65	ISIslide	Neutral	True
624.728	0.25	Win2	0.7015	0.0	Yes	2.772	0.028	n/a	GoodResponse	1	n/a	n/a	8	66	Cue	Win	True
624.978	3.9	Win2	0.7015	0.001	Yes	2.772	0.0	n/a	GoodResponse	1	n/a	n/a	8	66	Fixation	Win	True
628.89	0.35	Win2	0.7015	0.0	Yes	2.772	0.012	2.0	GoodResponse	1	0.219	628.109	8	66	Target	Win	True
629.109	0.3	Win2	0.7015	0.0	Yes	2.772	0.012	2.0	GoodResponse	1	0.219	n/a	8	66	ButtonPress	Win	True
629.225	0.35	Win2	0.7015	n/a	Yes	2.772	n/a	n/a	GoodResponse	1	n/a	n/a	8	66	Blank	Win	True
629.576	1.45	Win2	0.7015	n/a	Yes	2.772	n/a	5.0	GoodResponse	1	0.009	628.585	8	66	Feedback	Win	True
631.03	2.772	Win2	0.7015	n/a	Yes	2.772	n/a	n/a	GoodResponse	1	0.0	n/a	8	66	ISIslide	Win	True
633.822	0.25	Control	0.6912	0.0	No	2.728	0.022	n/a	LatePress	0	n/a	n/a	8	67	Cue	Neutral	True
634.072	3.95	Control	0.6912	0.0	No	2.728	0.0	n/a	LatePress	0	n/a	n/a	8	67	Fixation	Neutral	True
638.018	0.34	Control	0.6912	0.004	No	2.728	-0.004	2.0	LatePress	0	0.35	637.368	8	67	Target	Neutral	True
638.368	0.3	Control	0.6912	0.004	No	2.728	-0.004	2.0	LatePress	0	0.35	n/a	8	67	ButtonPress	Neutral	True
638.369	0.36	Control	0.6912	n/a	No	2.728	n/a	n/a	LatePress	0	n/a	n/a	8	67	Blank	Neutral	True
638.72	1.45	Control	0.6912	n/a	No	2.728	n/a	5.0	LatePress	0	0.035	637.755	8	67	Feedback	Neutral	True
640.174	2.728	Control	0.6912	n/a	No	2.728	n/a	n/a	LatePress	0	0.0	n/a	8	67	ISIslide	Neutral	True
642.916	0.25	Win2	0.6957	0.0	Yes	3.084	0.016	n/a	GoodResponse	1	n/a	n/a	9	68	Cue	Win	True
643.166	4.0	Win2	0.6957	0.0	Yes	3.084	0.0	n/a	GoodResponse	1	n/a	n/a	9	68	Fixation	Win	True
647.162	0.33	Win2	0.6957	0.004	Yes	3.084	-0.004	2.0	GoodResponse	1	0.21	646.372	9	68	Target	Win	True
647.372	0.3	Win2	0.6957	0.004	Yes	3.084	-0.004	2.0	GoodResponse	1	0.21	n/a	9	68	ButtonPress	Win	True
647.496	0.37	Win2	0.6957	n/a	Yes	3.084	n/a	n/a	GoodResponse	1	n/a	n/a	9	68	Blank	Win	True
647.864	1.45	Win2	0.6957	n/a	Yes	3.084	n/a	5.0	GoodResponse	1	0.013	646.877	9	68	Feedback	Win	True
649.318	3.084	Win2	0.6957	n/a	Yes	3.084	n/a	n/a	GoodResponse	1	0.0	n/a	9	68	ISIslide	Win	True
652.427	0.25	Win2	0.7	0.001	Yes	3.223	0.027	n/a	GoodResponse	1	n/a	n/a	10	69	Cue	Win	True
652.678	3.95	Win2	0.7	0.0	Yes	3.223	0.001	n/a	GoodResponse	1	n/a	n/a	10	69	Fixation	Win	True
656.623	0.32	Win2	0.7	0.004	Yes	3.223	-0.004	2.0	GoodResponse	1	0.218	655.841	10	69	Target	Win	True
656.841	0.3	Win2	0.7	0.004	Yes	3.223	-0.004	2.0	GoodResponse	1	0.218	n/a	10	69	ButtonPress	Win	True
656.958	0.38	Win2	0.7	n/a	Yes	3.223	n/a	n/a	GoodResponse	1	n/a	n/a	10	69	Blank	Win	True
657.325	1.45	Win2	0.7	n/a	Yes	3.223	n/a	5.0	GoodResponse	1	0.015	656.34	10	69	Feedback	Win	True
658.78	3.223	Win2	0.7	n/a	Yes	3.223	n/a	n/a	GoodResponse	1	0.0	n/a	10	69	ISIslide	Win	True
662.023	0.25	Lose2	0.7042	0.0	Yes	3.027	0.023	n/a	GoodResponse	0	n/a	n/a	10	70	Cue	AvoidedLoss	True
662.274	4.05	Lose2	0.7042	0.0	Yes	3.027	0.001	n/a	GoodResponse	0	n/a	n/a	10	70	Fixation	AvoidedLoss	True
666.319	0.31	Lose2	0.7042	0.004	Yes	3.027	-0.004	2.0	GoodResponse	0	0.215	665.534	10	70	Target	AvoidedLoss	True
666.534	0.3	Lose2	0.7042	0.004	Yes	3.027	-0.004	2.0	GoodResponse	0	0.215	n/a	10	70	ButtonPress	AvoidedLoss	True
666.637	0.39	Lose2	0.7042	n/a	Yes	3.027	n/a	n/a	GoodResponse	0	n/a	n/a	10	70	Blank	AvoidedLoss	True
667.021	1.45	Lose2	0.7042	n/a	Yes	3.027	n/a	5.0	GoodResponse	0	0.026	666.047	10	70	Feedback	AvoidedLoss	True
668.476	3.027	Lose2	0.7042	n/a	Yes	3.027	n/a	n/a	GoodResponse	0	0.0	n/a	10	70	ISIslide	AvoidedLoss	True
671.518	0.25	Win2	0.6944	0.0	No	2.732	0.018	n/a	NoResponse	0	n/a	n/a	10	71	Cue	MissedWin	True
671.769	4.05	Win2	0.6944	0.0	No	2.732	0.001	n/a	NoResponse	0	n/a	n/a	10	71	Fixation	MissedWin	True
675.814	0.3	Win2	0.6944	0.004	No	2.732	-0.004	2.0	NoResponse	0	0.311	675.125	10	71	Target	MissedWin	True
676.115	0.4	Win2	0.6944	n/a	No	2.732	n/a	n/a	NoResponse	0	n/a	n/a	10	71	Blank	MissedWin	True
676.125	0.3	Win2	0.6944	0.004	No	2.732	-0.004	2.0	NoResponse	0	0.311	n/a	10	71	ButtonPress	MissedWin	True
676.516	1.45	Win2	0.6944	n/a	No	2.732	n/a	5.0	NoResponse	0	0.044	675.56	10	71	Feedback	MissedWin	True
677.971	2.732	Win2	0.6944	n/a	No	2.732	n/a	n/a	NoResponse	0	0.0	n/a	10	71	ISIslide	MissedWin	True
680.729	0.25	Win2	0.6986	0.0	Yes	2.771	0.029	n/a	GoodResponse	1	n/a	n/a	11	72	Cue	Win	True
680.98	4.1	Win2	0.6986	0.0	Yes	2.771	0.001	n/a	GoodResponse	1	n/a	n/a	11	72	Fixation	Win	True
685.075	0.29	Win2	0.6986	0.004	Yes	2.771	-0.004	2.0	GoodResponse	1	0.218	684.293	11	72	Target	Win	True
685.293	0.3	Win2	0.6986	0.004	Yes	2.771	-0.004	2.0	GoodResponse	1	0.218	n/a	11	72	ButtonPress	Win	True
685.376	0.41	Win2	0.6986	n/a	Yes	2.771	n/a	n/a	GoodResponse	1	n/a	n/a	11	72	Blank	Win	True
685.777	1.45	Win2	0.6986	n/a	Yes	2.771	n/a	5.0	GoodResponse	1	0.002	684.779	11	72	Feedback	Win	True
687.232	2.771	Win2	0.6986	n/a	Yes	2.771	n/a	n/a	GoodResponse	1	0.0	n/a	11	72	ISIslide	Win	True
690.024	0.25	Win2	0.7027	0.0	Yes	2.676	0.024	n/a	GoodResponse	1	n/a	n/a	12	73	Cue	Win	True
690.274	4.0	Win2	0.7027	0.0	Yes	2.676	0.0	n/a	GoodResponse	1	n/a	n/a	12	73	Fixation	Win	True
694.27	0.28	Win2	0.7027	0.004	Yes	2.676	-0.004	2.0	GoodResponse	1	0.215	693.485	12	73	Target	Win	True
694.485	0.3	Win2	0.7027	0.004	Yes	2.676	-0.004	2.0	GoodResponse	1	0.215	n/a	12	73	ButtonPress	Win	True
694.554	0.42	Win2	0.7027	n/a	Yes	2.676	n/a	n/a	GoodResponse	1	n/a	n/a	12	73	Blank	Win	True
694.972	1.45	Win2	0.7027	n/a	Yes	2.676	n/a	5.0	GoodResponse	1	0.027	693.999	12	73	Feedback	Win	True
696.426	2.676	Win2	0.7027	n/a	Yes	2.676	n/a	n/a	GoodResponse	1	0.0	n/a	12	73	ISIslide	Win	True
699.118	0.25	Lose2	0.7067	0.0	Yes	2.632	0.018	n/a	GoodResponse	0	n/a	n/a	12	74	Cue	AvoidedLoss	True
699.368	4.05	Lose2	0.7067	0.0	Yes	2.632	0.0	n/a	GoodResponse	0	n/a	n/a	12	74	Fixation	AvoidedLoss	True
703.414	0.27	Lose2	0.7067	0.004	Yes	2.632	-0.004	2.0	GoodResponse	0	0.24	702.654	12	74	Target	AvoidedLoss	True
703.654	0.3	Lose2	0.7067	0.004	Yes	2.632	-0.004	2.0	GoodResponse	0	0.24	n/a	12	74	ButtonPress	AvoidedLoss	True
703.698	0.43	Lose2	0.7067	n/a	Yes	2.632	n/a	n/a	GoodResponse	0	n/a	n/a	12	74	Blank	AvoidedLoss	True
704.116	1.45	Lose2	0.7067	n/a	Yes	2.632	n/a	5.0	GoodResponse	0	0.005	703.121	12	74	Feedback	AvoidedLoss	True
705.57	2.632	Lose2	0.7067	n/a	Yes	2.632	n/a	n/a	GoodResponse	0	0.0	n/a	12	74	ISIslide	AvoidedLoss	True
708.228	0.25	Lose2	0.7105	0.0	Yes	2.922	0.028	n/a	GoodResponse	0	n/a	n/a	12	75	Cue	AvoidedLoss	True
708.479	3.95	Lose2	0.7105	0.0	Yes	2.922	0.001	n/a	GoodResponse	0	n/a	n/a	12	75	Fixation	AvoidedLoss	True
712.424	0.26	Lose2	0.7105	0.004	Yes	2.922	-0.004	2.0	GoodResponse	0	0.233	711.657	12	75	Target	AvoidedLoss	True
712.657	0.3	Lose2	0.7105	0.004	Yes	2.922	-0.004	2.0	GoodResponse	0	0.233	n/a	12	75	ButtonPress	AvoidedLoss	True
712.692	0.44	Lose2	0.7105	n/a	Yes	2.922	n/a	n/a	GoodResponse	0	n/a	n/a	12	75	Blank	AvoidedLoss	True
713.126	1.45	Lose2	0.7105	n/a	Yes	2.922	n/a	5.0	GoodResponse	0	0.02	712.146	12	75	Feedback	AvoidedLoss	True
714.581	2.922	Lose2	0.7105	n/a	Yes	2.922	n/a	n/a	GoodResponse	0	0.0	n/a	12	75	ISIslide	AvoidedLoss	True
717.523	0.25	Control	0.7012999999999999	0.0	No	3.227	0.023	n/a	NoResponse	0	n/a	n/a	12	76	Cue	Neutral	True
717.773	4.05	Control	0.7012999999999999	0.001	No	3.227	0.0	n/a	NoResponse	0	n/a	n/a	12	76	Fixation	Neutral	True
721.819	0.25	Control	0.7012999999999999	0.004	No	3.227	-0.004	2.0	NoResponse	0	0.304	721.123	12	76	Target	Neutral	True
722.07	0.45	Control	0.7012999999999999	n/a	No	3.227	n/a	n/a	NoResponse	0	n/a	n/a	12	76	Blank	Neutral	True
722.123	0.3	Control	0.7012999999999999	0.004	No	3.227	-0.004	2.0	NoResponse	0	0.304	n/a	12	76	ButtonPress	Neutral	True
722.521	1.45	Control	0.7012999999999999	n/a	No	3.227	n/a	5.0	NoResponse	0	0.038	721.559	12	76	Feedback	Neutral	True
723.975	3.227	Control	0.7012999999999999	n/a	No	3.227	n/a	n/a	NoResponse	0	0.0	n/a	12	76	ISIslide	Neutral	True
727.218	0.25	Lose2	0.7051000000000001	0.001	Yes	2.582	0.018	n/a	GoodResponse	0	n/a	n/a	12	77	Cue	AvoidedLoss	True
727.469	3.95	Lose2	0.7051000000000001	0.0	Yes	2.582	0.001	n/a	GoodResponse	0	n/a	n/a	12	77	Fixation	AvoidedLoss	True
731.414	0.24	Lose2	0.7051000000000001	0.004	Yes	2.582	-0.004	2.0	GoodResponse	0	0.22	730.634	12	77	Target	AvoidedLoss	True
731.634	0.3	Lose2	0.7051000000000001	0.004	Yes	2.582	-0.004	2.0	GoodResponse	0	0.22	n/a	12	77	ButtonPress	AvoidedLoss	True
731.665	0.46	Lose2	0.7051000000000001	n/a	Yes	2.582	n/a	n/a	GoodResponse	0	n/a	n/a	12	77	Blank	AvoidedLoss	True
732.117	1.45	Lose2	0.7051000000000001	n/a	Yes	2.582	n/a	5.0	GoodResponse	0	0.004	731.121	12	77	Feedback	AvoidedLoss	True
733.571	2.582	Lose2	0.7051000000000001	n/a	Yes	2.582	n/a	n/a	GoodResponse	0	0.0	n/a	12	77	ISIslide	AvoidedLoss	True
