onset	duration	cue_type	current_mean_accuracy	duration_error	is_hit	isi_adjusted	onset_delay	response	response_type	reward	rt	rt_time	total_reward	trial_number	trial_phase	trial_type	one_press
11.106	0.25	Control	1.0	0.0	Yes	2.944	0.006	n/a	GoodResponse	0	n/a	n/a	0	0	Cue	Neutral	True
11.357	3.85	Control	1.0	0.0	Yes	2.944	0.001	n/a	GoodResponse	0	n/a	n/a	0	0	Fixation	Neutral	True
15.202	0.4	Control	1.0	0.004	Yes	2.944	-0.004	2.0	GoodResponse	0	0.26	14.462	0	0	Target	Neutral	True
15.462	0.3	Control	1.0	0.004	Yes	2.944	-0.004	2.0	GoodResponse	0	0.26	n/a	0	0	ButtonPress	Neutral	True
15.603	0.3	Control	1.0	n/a	Yes	2.944	n/a	n/a	GoodResponse	0	n/a	n/a	0	0	Blank	Neutral	True
15.904	1.45	Control	1.0	n/a	Yes	2.944	n/a	5	GoodResponse	0	0.023	14.927	0	0	Feedback	Neutral	True
17.358	2.944	Control	1.0	n/a	Yes	2.944	n/a	n/a	GoodResponse	0	0.0	n/a	0	0	ISIslide	Neutral	True
20.317	0.25	Lose2	1.0	0.0	Yes	2.783	0.017	n/a	GoodResponse	0	n/a	n/a	0	1	Cue	AvoidedLoss	True
20.568	4.0	Lose2	1.0	0.0	Yes	2.783	0.001	n/a	GoodResponse	0	n/a	n/a	0	1	Fixation	AvoidedLoss	True
24.563	0.39	Lose2	1.0	0.004	Yes	2.783	-0.004	2.0	GoodResponse	0	0.214	23.777	0	1	Target	AvoidedLoss	True
24.777	0.3	Lose2	1.0	0.004	Yes	2.783	-0.004	2.0	GoodResponse	0	0.214	n/a	0	1	ButtonPress	AvoidedLoss	True
24.964	0.31	Lose2	1.0	n/a	Yes	2.783	n/a	n/a	GoodResponse	0	n/a	n/a	0	1	Blank	AvoidedLoss	True
25.265	1.45	Lose2	1.0	n/a	Yes	2.783	n/a	5	GoodResponse	0	0.028	24.293	0	1	Feedback	AvoidedLoss	True
26.72	2.783	Lose2	1.0	n/a	Yes	2.783	n/a	n/a	GoodResponse	0	0.0	n/a	0	1	ISIslide	AvoidedLoss	True
29.528	0.25	Control	1.0	0.0	Yes	2.572	0.028	n/a	GoodResponse	0	n/a	n/a	0	2	Cue	Neutral	True
29.779	4.1	Control	1.0	0.0	Yes	2.572	0.001	n/a	GoodResponse	0	n/a	n/a	0	2	Fixation	Neutral	True
33.874	0.38	Control	1.0	0.004	Yes	2.572	-0.004	2.0	GoodResponse	0	0.201	33.075	0	2	Target	Neutral	True
34.075	0.3	Control	1.0	0.004	Yes	2.572	-0.004	2.0	GoodResponse	0	0.201	n/a	0	2	ButtonPress	Neutral	True
34.259	0.32	Control	1.0	n/a	Yes	2.572	n/a	n/a	GoodResponse	0	n/a	n/a	0	2	Blank	Neutral	True
34.577	1.45	Control	1.0	n/a	Yes	2.572	n/a	5	GoodResponse	0	0.033	33.61	0	2	Feedback	Neutral	True
36.031	2.572	Control	1.0	n/a	Yes	2.572	n/a	n/a	GoodResponse	0	0.0	n/a	0	2	ISIslide	Neutral	True
38.622	0.25	Win2	1.0	0.0	Yes	2.828	0.022	n/a	GoodResponse	1	n/a	n/a	1	3	Cue	Win	True
38.873	3.95	Win2	1.0	0.0	Yes	2.828	0.001	n/a	GoodResponse	1	n/a	n/a	1	3	Fixation	Win	True
42.818	0.37	Win2	1.0	0.004	Yes	2.828	-0.004	2.0	GoodResponse	1	0.205	42.023	1	3	Target	Win	True
43.023	0.3	Win2	1.0	0.004	Yes	2.828	-0.004	2.0	GoodResponse	1	0.205	n/a	1	3	ButtonPress	Win	True
43.202	0.33	Win2	1.0	n/a	Yes	2.828	n/a	n/a	GoodResponse	1	n/a	n/a	1	3	Blank	Win	True
43.52	1.45	Win2	1.0	n/a	Yes	2.828	n/a	5	GoodResponse	1	0.017	42.537	1	3	Feedback	Win	True
44.974	2.828	Win2	1.0	n/a	Yes	2.828	n/a	n/a	GoodResponse	1	0.0	n/a	1	3	ISIslide	Win	True
47.816	0.25	Win2	1.0	0.0	Yes	3.284	0.016	n/a	GoodResponse	1	n/a	n/a	2	4	Cue	Win	True
48.067	4.0	Win2	1.0	0.0	Yes	3.284	0.001	n/a	GoodResponse	1	n/a	n/a	2	4	Fixation	Win	True
52.062	0.36	Win2	1.0	0.004	Yes	3.284	-0.004	2.0	GoodResponse	1	0.221	51.283	2	4	Target	Win	True
52.283	0.3	Win2	1.0	0.004	Yes	3.284	-0.004	2.0	GoodResponse	1	0.221	n/a	2	4	ButtonPress	Win	True
52.43	0.34	Win2	1.0	n/a	Yes	3.284	n/a	n/a	GoodResponse	1	n/a	n/a	2	4	Blank	Win	True
52.764	1.45	Win2	1.0	n/a	Yes	3.284	n/a	5	GoodResponse	1	0.04	51.804	2	4	Feedback	Win	True
54.219	3.284	Win2	1.0	n/a	Yes	3.284	n/a	n/a	GoodResponse	1	0.0	n/a	2	4	ISIslide	Win	True
57.529	0.25	Win2	1.0	0.0	Yes	2.771	0.029	n/a	GoodResponse	1	n/a	n/a	3	5	Cue	Win	True
57.779	4.0	Win2	1.0	0.001	Yes	2.771	0.0	n/a	GoodResponse	1	n/a	n/a	3	5	Fixation	Win	True
61.775	0.35	Win2	1.0	0.004	Yes	2.771	-0.004	2.0	GoodResponse	1	0.27	61.045	3	5	Target	Win	True
62.045	0.3	Win2	1.0	0.004	Yes	2.771	-0.004	2.0	GoodResponse	1	0.27	n/a	3	5	ButtonPress	Win	True
62.126	0.35	Win2	1.0	n/a	Yes	2.771	n/a	n/a	GoodResponse	1	n/a	n/a	3	5	Blank	Win	True
62.477	1.45	Win2	1.0	n/a	Yes	2.771	n/a	5	GoodResponse	1	0.035	61.512	3	5	Feedback	Win	True
63.931	2.771	Win2	1.0	n/a	Yes	2.771	n/a	n/a	GoodResponse	1	0.0	n/a	3	5	ISIslide	Win	True
66.723	0.25	Lose2	1.0	0.0	Yes	2.727	0.023	n/a	GoodResponse	0	n/a	n/a	3	6	Cue	AvoidedLoss	True
66.974	3.95	Lose2	1.0	0.0	Yes	2.727	0.001	n/a	GoodResponse	0	n/a	n/a	3	6	Fixation	AvoidedLoss	True
70.919	0.34	Lose2	1.0	0.004	Yes	2.727	-0.004	2.0	GoodResponse	0	0.193	70.112	3	6	Target	AvoidedLoss	True
71.112	0.3	Lose2	1.0	0.004	Yes	2.727	-0.004	2.0	GoodResponse	0	0.193	n/a	3	6	ButtonPress	AvoidedLoss	True
71.27	0.36	Lose2	1.0	n/a	Yes	2.727	n/a	n/a	GoodResponse	0	n/a	n/a	3	6	Blank	AvoidedLoss	True
71.621	1.45	Lose2	1.0	n/a	Yes	2.727	n/a	5	GoodResponse	0	0.013	70.634	3	6	Feedback	AvoidedLoss	True
73.075	2.727	Lose2	1.0	n/a	Yes	2.727	n/a	n/a	GoodResponse	0	0.0	n/a	3	6	ISIslide	AvoidedLoss	True
75.817	0.25	Lose2	1.0	0.0	Yes	4.033	0.017	n/a	GoodResponse	0	n/a	n/a	3	7	Cue	AvoidedLoss	True
76.068	4.05	Lose2	1.0	0.0	Yes	4.033	0.001	n/a	GoodResponse	0	n/a	n/a	3	7	Fixation	AvoidedLoss	True
80.113	0.33	Lose2	1.0	0.004	Yes	4.033	-0.004	2.0	GoodResponse	0	0.213	79.326	3	7	Target	AvoidedLoss	True
80.326	0.3	Lose2	1.0	0.004	Yes	4.033	-0.004	2.0	GoodResponse	0	0.213	n/a	3	7	ButtonPress	AvoidedLoss	True
80.447	0.37	Lose2	1.0	n/a	Yes	4.033	n/a	n/a	GoodResponse	0	n/a	n/a	3	7	Blank	AvoidedLoss	True
80.815	1.45	Lose2	1.0	n/a	Yes	4.033	n/a	5	GoodResponse	0	0.038	79.853	3	7	Feedback	AvoidedLoss	True
82.269	4.033	Lose2	1.0	n/a	Yes	4.033	n/a	n/a	GoodResponse	0	0.0	n/a	3	7	ISIslide	AvoidedLoss	True
86.315	0.25	Lose2	1.0	0.0	Yes	3.035	0.015	n/a	GoodResponse	0	n/a	n/a	3	8	Cue	AvoidedLoss	True
86.566	3.95	Lose2	1.0	0.0	Yes	3.035	0.001	n/a	GoodResponse	0	n/a	n/a	3	8	Fixation	AvoidedLoss	True
90.511	0.32	Lose2	1.0	0.004	Yes	3.035	-0.004	2.0	GoodResponse	0	0.24	89.751	3	8	Target	AvoidedLoss	True
90.751	0.3	Lose2	1.0	0.004	Yes	3.035	-0.004	2.0	GoodResponse	0	0.24	n/a	3	8	ButtonPress	AvoidedLoss	True
90.845	0.38	Lose2	1.0	n/a	Yes	3.035	n/a	n/a	GoodResponse	0	n/a	n/a	3	8	Blank	AvoidedLoss	True
91.213	1.45	Lose2	1.0	n/a	Yes	3.035	n/a	5	GoodResponse	0	0.031	90.244	3	8	Feedback	AvoidedLoss	True
92.667	3.035	Lose2	1.0	n/a	Yes	3.035	n/a	n/a	GoodResponse	0	0.0	n/a	3	8	ISIslide	AvoidedLoss	True
95.726	0.25	Lose2	1.0	0.001	Yes	3.124	0.026	n/a	GoodResponse	0	n/a	n/a	3	9	Cue	AvoidedLoss	True
95.977	3.95	Lose2	1.0	0.0	Yes	3.124	0.001	n/a	GoodResponse	0	n/a	n/a	3	9	Fixation	AvoidedLoss	True
99.922	0.31	Lose2	1.0	0.004	Yes	3.124	-0.004	2.0	GoodResponse	0	0.197	99.119	3	9	Target	AvoidedLoss	True
100.119	0.3	Lose2	1.0	0.004	Yes	3.124	-0.004	2.0	GoodResponse	0	0.197	n/a	3	9	ButtonPress	AvoidedLoss	True
100.24	0.39	Lose2	1.0	n/a	Yes	3.124	n/a	n/a	GoodResponse	0	n/a	n/a	3	9	Blank	AvoidedLoss	True
100.624	1.45	Lose2	1.0	n/a	Yes	3.124	n/a	5	GoodResponse	0	0.034	99.658	3	9	Feedback	AvoidedLoss	True
102.079	3.124	Lose2	1.0	n/a	Yes	3.124	n/a	n/a	GoodResponse	0	0.0	n/a	3	9	ISIslide	AvoidedLoss	True
105.222	0.25	Control	1.0	0.0	Yes	3.278	0.022	n/a	GoodResponse	0	n/a	n/a	3	10	Cue	Neutral	True
105.472	4.0	Control	1.0	0.0	Yes	3.278	0.0	n/a	GoodResponse	0	n/a	n/a	3	10	Fixation	Neutral	True
109.468	0.3	Control	1.0	0.004	Yes	3.278	-0.004	2.0	GoodResponse	0	0.222	108.69	3	10	Target	Neutral	True
109.69	0.3	Control	1.0	0.004	Yes	3.278	-0.004	2.0	GoodResponse	0	0.222	n/a	3	10	ButtonPress	Neutral	True
109.769	0.4	Control	1.0	n/a	Yes	3.278	n/a	n/a	GoodResponse	0	n/a	n/a	3	10	Blank	Neutral	True
110.17	1.45	Control	1.0	n/a	Yes	3.278	n/a	5	GoodResponse	0	0.0	109.17	3	10	Feedback	Neutral	True
111.624	3.278	Control	1.0	n/a	Yes	3.278	n/a	n/a	GoodResponse	0	0.0	n/a	3	10	ISIslide	Neutral	True
114.917	0.25	Lose2	0.9167000000000001	0.0	No	2.733	0.017	n/a	LatePress	-1	n/a	n/a	2	11	Cue	Loss	True
115.168	4.05	Lose2	0.9167000000000001	0.0	No	2.733	0.001	n/a	LatePress	-1	n/a	n/a	2	11	Fixation	Loss	True
119.214	0.29	Lose2	0.9167000000000001	0.003	No	2.733	-0.003	2.0	LatePress	-1	0.291	118.505	2	11	Target	Loss	True
119.505	0.3	Lose2	0.9167000000000001	0.003	No	2.733	-0.003	2.0	LatePress	-1	0.291	n/a	2	11	ButtonPress	Loss	True
119.514	0.41	Lose2	0.9167000000000001	n/a	No	2.733	n/a	n/a	LatePress	-1	n/a	n/a	2	11	Blank	Loss	True
119.916	1.45	Lose2	0.9167000000000001	n/a	No	2.733	n/a	5	LatePress	-1	0.01	118.926	2	11	Feedback	Loss	True
121.37	2.733	Lose2	0.9167000000000001	n/a	No	2.733	n/a	n/a	LatePress	-1	0.0	n/a	2	11	ISIslide	Loss	True
124.128	0.25	Control	0.8462000000000001	0.0	No	2.972	0.028	n/a	NoResponse	0	n/a	n/a	2	12	Cue	Neutral	True
124.379	3.9	Control	0.8462000000000001	0.0	No	2.972	0.001	n/a	NoResponse	0	n/a	n/a	2	12	Fixation	Neutral	True
128.274	0.28	Control	0.8462000000000001	0.004	No	2.972	-0.004	2.0	NoResponse	0	0.319	127.593	2	12	Target	Neutral	True
128.558	0.42	Control	0.8462000000000001	n/a	No	2.972	n/a	n/a	NoResponse	0	n/a	n/a	2	12	Blank	Neutral	True
128.593	0.3	Control	0.8462000000000001	0.004	No	2.972	-0.004	2.0	NoResponse	0	0.319	n/a	2	12	ButtonPress	Neutral	True
128.976	1.45	Control	0.8462000000000001	n/a	No	2.972	n/a	5	NoResponse	0	0.023	127.999	2	12	Feedback	Neutral	True
130.43	2.972	Control	0.8462000000000001	n/a	No	2.972	n/a	n/a	NoResponse	0	0.0	n/a	2	12	ISIslide	Neutral	True
133.423	0.25	Control	0.8571	0.0	Yes	2.777	0.023	n/a	GoodResponse	0	n/a	n/a	2	13	Cue	Neutral	True
133.674	4.0	Control	0.8571	0.0	Yes	2.777	0.001	n/a	GoodResponse	0	n/a	n/a	2	13	Fixation	Neutral	True
137.669	0.27	Control	0.8571	0.004	Yes	2.777	-0.004	2.0	GoodResponse	0	0.17	136.839	2	13	Target	Neutral	True
137.839	0.3	Control	0.8571	0.004	Yes	2.777	-0.004	2.0	GoodResponse	0	0.17	n/a	2	13	ButtonPress	Neutral	True
137.953	0.43	Control	0.8571	n/a	Yes	2.777	n/a	n/a	GoodResponse	0	n/a	n/a	2	13	Blank	Neutral	True
138.371	1.45	Control	0.8571	n/a	Yes	2.777	n/a	5	GoodResponse	0	0.043	137.414	2	13	Feedback	Neutral	True
139.825	2.777	Control	0.8571	n/a	Yes	2.777	n/a	n/a	GoodResponse	0	0.0	n/a	2	13	ISIslide	Neutral	True
142.617	0.25	Win2	0.8667	0.0	Yes	2.683	0.017	n/a	GoodResponse	1	n/a	n/a	3	14	Cue	Win	True
142.868	4.1	Win2	0.8667	0.0	Yes	2.683	0.001	n/a	GoodResponse	1	n/a	n/a	3	14	Fixation	Win	True
146.963	0.26	Win2	0.8667	0.004	Yes	2.683	-0.004	2.0	GoodResponse	1	0.167	146.13	3	14	Target	Win	True
147.13	0.3	Win2	0.8667	0.004	Yes	2.683	-0.004	2.0	GoodResponse	1	0.167	n/a	3	14	ButtonPress	Win	True
147.231	0.44	Win2	0.8667	n/a	Yes	2.683	n/a	n/a	GoodResponse	1	n/a	n/a	3	14	Blank	Win	True
147.665	1.45	Win2	0.8667	n/a	Yes	2.683	n/a	5	GoodResponse	1	0.017	146.682	3	14	Feedback	Win	True
149.12	2.683	Win2	0.8667	n/a	Yes	2.683	n/a	n/a	GoodResponse	1	0.0	n/a	3	14	ISIslide	Win	True
151.828	0.25	Control	0.875	0.0	Yes	2.972	0.028	n/a	GoodResponse	0	n/a	n/a	3	15	Cue	Neutral	True
152.079	4.0	Control	0.875	0.0	Yes	2.972	0.001	n/a	GoodResponse	0	n/a	n/a	3	15	Fixation	Neutral	True
156.074	0.25	Control	0.875	0.004	Yes	2.972	-0.004	2.0	GoodResponse	0	0.222	155.296	3	15	Target	Neutral	True
156.296	0.3	Control	0.875	0.004	Yes	2.972	-0.004	2.0	GoodResponse	0	0.222	n/a	3	15	ButtonPress	Neutral	True
156.325	0.45	Control	0.875	n/a	Yes	2.972	n/a	n/a	GoodResponse	0	n/a	n/a	3	15	Blank	Neutral	True
156.776	1.45	Control	0.875	n/a	Yes	2.972	n/a	5	GoodResponse	0	0.028	155.804	3	15	Feedback	Neutral	True
158.23	2.972	Control	0.875	n/a	Yes	2.972	n/a	n/a	GoodResponse	0	0.0	n/a	3	15	ISIslide	Neutral	True
161.223	0.25	Win2	0.8824	0.0	Yes	2.877	0.023	n/a	GoodResponse	1	n/a	n/a	4	16	Cue	Win	True
161.473	4.0	Win2	0.8824	0.001	Yes	2.877	0.0	n/a	GoodResponse	1	n/a	n/a	4	16	Fixation	Win	True
165.469	0.24	Win2	0.8824	0.004	Yes	2.877	-0.004	2.0	GoodResponse	1	0.184	164.653	4	16	Target	Win	True
165.653	0.3	Win2	0.8824	0.004	Yes	2.877	-0.004	2.0	GoodResponse	1	0.184	n/a	4	16	ButtonPress	Win	True
165.72	0.46	Win2	0.8824	n/a	Yes	2.877	n/a	n/a	GoodResponse	1	n/a	n/a	4	16	Blank	Win	True
166.171	1.45	Win2	0.8824	n/a	Yes	2.877	n/a	5	GoodResponse	1	0.047	165.218	4	16	Feedback	Win	True
167.625	2.877	Win2	0.8824	n/a	Yes	2.877	n/a	n/a	GoodResponse	1	0.0	n/a	4	16	ISIslide	Win	True
170.517	0.25	Lose2	0.8889	0.0	Yes	2.733	0.017	n/a	GoodResponse	0	n/a	n/a	4	17	Cue	AvoidedLoss	True
170.768	3.95	Lose2	0.8889	0.0	Yes	2.733	0.001	n/a	GoodResponse	0	n/a	n/a	4	17	Fixation	AvoidedLoss	True
174.713	0.23	Lose2	0.8889	0.004	Yes	2.733	-0.004	2.0	GoodResponse	0	0.19	173.903	4	17	Target	AvoidedLoss	True
174.903	0.3	Lose2	0.8889	0.004	Yes	2.733	-0.004	2.0	GoodResponse	0	0.19	n/a	4	17	ButtonPress	AvoidedLoss	True
174.947	0.47	Lose2	0.8889	n/a	Yes	2.733	n/a	n/a	GoodResponse	0	n/a	n/a	4	17	Blank	AvoidedLoss	True
175.415	1.45	Lose2	0.8889	n/a	Yes	2.733	n/a	5	GoodResponse	0	0.023	174.438	4	17	Feedback	AvoidedLoss	True
176.87	2.733	Lose2	0.8889	n/a	Yes	2.733	n/a	n/a	GoodResponse	0	0.0	n/a	4	17	ISIslide	AvoidedLoss	True
179.628	0.25	Lose2	0.8946999999999999	0.0	Yes	2.722	0.028	n/a	GoodResponse	0	n/a	n/a	4	18	Cue	AvoidedLoss	True
179.879	4.05	Lose2	0.8946999999999999	0.0	Yes	2.722	0.001	n/a	GoodResponse	0	n/a	n/a	4	18	Fixation	AvoidedLoss	True
183.924	0.22	Lose2	0.8946999999999999	0.004	Yes	2.722	-0.004	2.0	GoodResponse	0	0.193	183.117	4	18	Target	AvoidedLoss	True
184.117	0.3	Lose2	0.8946999999999999	0.004	Yes	2.722	-0.004	2.0	GoodResponse	0	0.193	n/a	4	18	ButtonPress	AvoidedLoss	True
184.158	0.48	Lose2	0.8946999999999999	n/a	Yes	2.722	n/a	n/a	GoodResponse	0	n/a	n/a	4	18	Blank	AvoidedLoss	True
184.626	1.45	Lose2	0.8946999999999999	n/a	Yes	2.722	n/a	5	GoodResponse	0	0.031	183.657	4	18	Feedback	AvoidedLoss	True
186.081	2.722	Lose2	0.8946999999999999	n/a	Yes	2.722	n/a	n/a	GoodResponse	0	0.0	n/a	4	18	ISIslide	AvoidedLoss	True
188.822	0.25	Control	0.85	0.0	No	2.928	0.022	n/a	LatePress	0	n/a	n/a	4	19	Cue	Neutral	True
189.073	3.95	Control	0.85	0.0	No	2.928	0.001	n/a	LatePress	0	n/a	n/a	4	19	Fixation	Neutral	True
193.018	0.21	Control	0.85	0.004	No	2.928	-0.004	2.0	LatePress	0	0.211	192.229	4	19	Target	Neutral	True
193.229	0.3	Control	0.85	0.004	No	2.928	-0.004	2.0	LatePress	0	0.211	n/a	4	19	ButtonPress	Neutral	True
193.235	0.49	Control	0.85	n/a	No	2.928	n/a	n/a	LatePress	0	n/a	n/a	4	19	Blank	Neutral	True
193.72	1.45	Control	0.85	n/a	No	2.928	n/a	5	LatePress	0	0.011	192.731	4	19	Feedback	Neutral	True
195.174	2.928	Control	0.85	n/a	No	2.928	n/a	n/a	LatePress	0	0.0	n/a	4	19	ISIslide	Neutral	True
198.117	0.25	Control	0.8571	0.0	Yes	2.633	0.017	n/a	GoodResponse	0	n/a	n/a	4	20	Cue	Neutral	True
198.367	4.05	Control	0.8571	0.0	Yes	2.633	0.0	n/a	GoodResponse	0	n/a	n/a	4	20	Fixation	Neutral	True
202.413	0.2	Control	0.8571	0.004	Yes	2.633	-0.004	2.0	GoodResponse	0	0.199	201.612	4	20	Target	Neutral	True
202.612	0.3	Control	0.8571	0.004	Yes	2.633	-0.004	2.0	GoodResponse	0	0.199	n/a	4	20	ButtonPress	Neutral	True
202.613	0.5	Control	0.8571	n/a	Yes	2.633	n/a	n/a	GoodResponse	0	n/a	n/a	4	20	Blank	Neutral	True
203.115	1.45	Control	0.8571	n/a	Yes	2.633	n/a	5	GoodResponse	0	0.03	202.145	4	20	Feedback	Neutral	True
204.569	2.633	Control	0.8571	n/a	Yes	2.633	n/a	n/a	GoodResponse	0	0.0	n/a	4	20	ISIslide	Neutral	True
207.227	0.25	Control	0.8636	0.0	Yes	2.773	0.027	n/a	GoodResponse	0	n/a	n/a	4	21	Cue	Neutral	True
207.478	4.1	Control	0.8636	0.0	Yes	2.773	0.001	n/a	GoodResponse	0	n/a	n/a	4	21	Fixation	Neutral	True
211.574	0.19	Control	0.8636	0.003	Yes	2.773	-0.003	2.0	GoodResponse	0	0.161	210.735	4	21	Target	Neutral	True
211.735	0.3	Control	0.8636	0.003	Yes	2.773	-0.003	2.0	GoodResponse	0	0.161	n/a	4	21	ButtonPress	Neutral	True
211.774	0.51	Control	0.8636	n/a	Yes	2.773	n/a	n/a	GoodResponse	0	n/a	n/a	4	21	Blank	Neutral	True
212.276	1.45	Control	0.8636	n/a	Yes	2.773	n/a	5	GoodResponse	0	0.04	211.316	4	21	Feedback	Neutral	True
213.73	2.773	Control	0.8636	n/a	Yes	2.773	n/a	n/a	GoodResponse	0	0.0	n/a	4	21	ISIslide	Neutral	True
216.522	0.25	Control	0.8261	0.0	No	2.778	0.022	n/a	NoResponse	0	n/a	n/a	4	22	Cue	Neutral	True
216.773	4.0	Control	0.8261	0.0	No	2.778	0.001	2	NoResponse	0	3.874	219.647	4	22	Fixation	Neutral	True
220.647	0.3	Control	0.8261	0.0	No	2.778	0.001	2	NoResponse	0	3.874	n/a	4	22	ButtonPress	Neutral	True
220.768	0.18	Control	0.8261	0.004	No	2.778	-0.004	n/a	NoResponse	0	n/a	n/a	4	22	Target	Neutral	True
220.952	0.52	Control	0.8261	n/a	No	2.778	n/a	n/a	NoResponse	0	n/a	n/a	4	22	Blank	Neutral	True
221.47	1.45	Control	0.8261	n/a	No	2.778	n/a	5	NoResponse	0	0.017	220.487	4	22	Feedback	Neutral	True
222.924	2.778	Control	0.8261	n/a	No	2.778	n/a	n/a	NoResponse	0	0.0	n/a	4	22	ISIslide	Neutral	True
225.716	0.25	Control	0.7917000000000001	0.0	No	2.784	0.016	n/a	NoResponse	0	n/a	n/a	4	23	Cue	Neutral	True
225.967	3.9	Control	0.7917000000000001	0.0	No	2.784	0.001	n/a	NoResponse	0	n/a	n/a	4	23	Fixation	Neutral	True
229.862	0.17	Control	0.7917000000000001	0.004	No	2.784	-0.004	2.0	NoResponse	0	0.205	229.067	4	23	Target	Neutral	True
230.046	0.53	Control	0.7917000000000001	n/a	No	2.784	n/a	n/a	NoResponse	0	n/a	n/a	4	23	Blank	Neutral	True
230.067	0.3	Control	0.7917000000000001	0.004	No	2.784	-0.004	2.0	NoResponse	0	0.205	n/a	4	23	ButtonPress	Neutral	True
230.564	1.45	Control	0.7917000000000001	n/a	No	2.784	n/a	5	NoResponse	0	0.044	229.608	4	23	Feedback	Neutral	True
232.018	2.784	Control	0.7917000000000001	n/a	No	2.784	n/a	n/a	NoResponse	0	0.0	n/a	4	23	ISIslide	Neutral	True
234.827	0.25	Win2	0.76	0.0	No	3.123	0.027	n/a	NoResponse	0	n/a	n/a	4	24	Cue	MissedWin	False
235.077	3.95	Win2	0.76	0.0	No	3.123	0.0	{SPACE}	NoResponse	0	0.587	234.664	4	24	Fixation	MissedWin	False
235.664	0.3	Win2	0.76	0.0	No	3.123	0.0	{SPACE}	NoResponse	0	0.587	n/a	4	24	ButtonPress	MissedWin	False
239.023	0.16	Win2	0.76	0.004	No	3.123	-0.004	2.0	NoResponse	0	0.174	238.197	4	24	Target	MissedWin	False
239.19	0.54	Win2	0.76	n/a	No	3.123	n/a	n/a	NoResponse	0	n/a	n/a	4	24	Blank	MissedWin	False
239.197	0.3	Win2	0.76	0.004	No	3.123	-0.004	2.0	NoResponse	0	0.174	n/a	4	24	ButtonPress	MissedWin	False
239.725	1.45	Win2	0.76	n/a	No	3.123	n/a	5	NoResponse	0	0.006	238.731	4	24	Feedback	MissedWin	False
241.179	3.123	Win2	0.76	n/a	No	3.123	n/a	n/a	NoResponse	0	0.0	n/a	4	24	ISIslide	MissedWin	False
244.322	0.25	Win2	0.7692	0.0	Yes	3.078	0.022	n/a	GoodResponse	1	n/a	n/a	5	25	Cue	Win	True
244.572	4.0	Win2	0.7692	0.001	Yes	3.078	0.0	n/a	GoodResponse	1	n/a	n/a	5	25	Fixation	Win	True
248.568	0.15	Win2	0.7692	0.004	Yes	3.078	-0.004	2.0	GoodResponse	1	0.11	247.678	5	25	Target	Win	True
248.678	0.3	Win2	0.7692	0.004	Yes	3.078	-0.004	2.0	GoodResponse	1	0.11	n/a	5	25	ButtonPress	Win	True
248.718	0.55	Win2	0.7692	n/a	Yes	3.078	n/a	n/a	GoodResponse	1	n/a	n/a	5	25	Blank	Win	True
249.27	1.45	Win2	0.7692	n/a	Yes	3.078	n/a	5	GoodResponse	1	0.021	248.291	5	25	Feedback	Win	True
250.724	3.078	Win2	0.7692	n/a	Yes	3.078	n/a	n/a	GoodResponse	1	0.0	n/a	5	25	ISIslide	Win	True
253.817	0.25	Win2	0.7406999999999999	0.0	No	2.933	0.017	n/a	NoResponse	0	n/a	n/a	5	26	Cue	MissedWin	True
254.068	3.95	Win2	0.7406999999999999	0.0	No	2.933	0.001	n/a	NoResponse	0	n/a	n/a	5	26	Fixation	MissedWin	True
258.013	0.15	Win2	0.7406999999999999	0.004	No	2.933	-0.004	2.0	NoResponse	0	0.234	257.247	5	26	Target	MissedWin	True
258.163	0.55	Win2	0.7406999999999999	n/a	No	2.933	n/a	n/a	NoResponse	0	n/a	n/a	5	26	Blank	MissedWin	True
258.247	0.3	Win2	0.7406999999999999	0.004	No	2.933	-0.004	2.0	NoResponse	0	0.234	n/a	5	26	ButtonPress	MissedWin	True
258.715	1.45	Win2	0.7406999999999999	n/a	No	2.933	n/a	5	NoResponse	0	0.04	257.755	5	26	Feedback	MissedWin	True
260.169	2.933	Win2	0.7406999999999999	n/a	No	2.933	n/a	n/a	NoResponse	0	0.0	n/a	5	26	ISIslide	MissedWin	True
263.128	0.25	Lose2	0.7143	0.0	No	2.822	0.028	n/a	PrematurePress	-1	n/a	n/a	4	27	Cue	Loss	True
263.379	4.05	Lose2	0.7143	0.0	No	2.822	0.001	n/a	PrematurePress	-1	n/a	n/a	4	27	Fixation	Loss	True
267.424	0.15	Lose2	0.7143	0.004	No	2.822	-0.004	2.0	PrematurePress	-1	0.013	266.437	4	27	Target	Loss	True
267.437	0.3	Lose2	0.7143	0.004	No	2.822	-0.004	2.0	PrematurePress	-1	0.013	n/a	4	27	ButtonPress	Loss	True
267.575	0.55	Lose2	0.7143	n/a	No	2.822	n/a	n/a	PrematurePress	-1	n/a	n/a	4	27	Blank	Loss	True
268.126	1.45	Lose2	0.7143	n/a	No	2.822	n/a	5	PrematurePress	-1	0.043	267.169	4	27	Feedback	Loss	True
269.581	2.822	Lose2	0.7143	n/a	No	2.822	n/a	n/a	PrematurePress	-1	0.0	n/a	4	27	ISIslide	Loss	True
272.423	0.25	Control	0.6897	0.0	No	2.827	0.023	n/a	NoResponse	0	n/a	n/a	4	28	Cue	Neutral	True
272.673	4.05	Control	0.6897	0.0	No	2.827	0.0	n/a	NoResponse	0	n/a	n/a	4	28	Fixation	Neutral	True
276.719	0.15	Control	0.6897	0.004	No	2.827	-0.004	2.0	NoResponse	0	0.179	275.898	4	28	Target	Neutral	True
276.869	0.55	Control	0.6897	n/a	No	2.827	n/a	n/a	NoResponse	0	n/a	n/a	4	28	Blank	Neutral	True
276.898	0.3	Control	0.6897	0.004	No	2.827	-0.004	2.0	NoResponse	0	0.179	n/a	4	28	ButtonPress	Neutral	True
277.421	1.45	Control	0.6897	n/a	No	2.827	n/a	5	NoResponse	0	0.017	276.438	4	28	Feedback	Neutral	True
278.875	2.827	Control	0.6897	n/a	No	2.827	n/a	n/a	NoResponse	0	0.0	n/a	4	28	ISIslide	Neutral	True
281.717	0.25	Lose2	0.6667000000000001	0.0	No	2.833	0.017	n/a	NoResponse	-1	n/a	n/a	3	29	Cue	Loss	True
281.968	3.95	Lose2	0.6667000000000001	0.0	No	2.833	0.001	n/a	NoResponse	-1	n/a	n/a	3	29	Fixation	Loss	True
285.913	0.15	Lose2	0.6667000000000001	0.004	No	2.833	-0.004	2.0	NoResponse	-1	0.19	285.103	3	29	Target	Loss	True
286.063	0.55	Lose2	0.6667000000000001	n/a	No	2.833	n/a	n/a	NoResponse	-1	n/a	n/a	3	29	Blank	Loss	True
286.103	0.3	Lose2	0.6667000000000001	0.004	No	2.833	-0.004	2.0	NoResponse	-1	0.19	n/a	3	29	ButtonPress	Loss	True
286.615	1.45	Lose2	0.6667000000000001	n/a	No	2.833	n/a	5	NoResponse	-1	0.041	285.656	3	29	Feedback	Loss	True
288.069	2.833	Lose2	0.6667000000000001	n/a	No	2.833	n/a	n/a	NoResponse	-1	0.0	n/a	3	29	ISIslide	Loss	True
290.928	0.25	Win2	0.6452	0.0	No	2.772	0.028	n/a	NoResponse	0	n/a	n/a	3	30	Cue	MissedWin	True
291.179	3.9	Win2	0.6452	0.0	No	2.772	0.001	2	NoResponse	0	3.894	294.073	3	30	Fixation	MissedWin	True
295.073	0.3	Win2	0.6452	0.0	No	2.772	0.001	2	NoResponse	0	3.894	n/a	3	30	ButtonPress	MissedWin	True
295.074	0.15	Win2	0.6452	0.004	No	2.772	-0.004	n/a	NoResponse	0	n/a	n/a	3	30	Target	MissedWin	True
295.224	0.55	Win2	0.6452	n/a	No	2.772	n/a	n/a	NoResponse	0	n/a	n/a	3	30	Blank	MissedWin	True
295.776	1.45	Win2	0.6452	n/a	No	2.772	n/a	5	NoResponse	0	0.008	294.784	3	30	Feedback	MissedWin	True
297.23	2.772	Win2	0.6452	n/a	No	2.772	n/a	n/a	NoResponse	0	0.0	n/a	3	30	ISIslide	MissedWin	True
300.022	0.25	Lose2	0.625	0.0	No	2.828	0.022	n/a	NoResponse	-1	n/a	n/a	2	31	Cue	Loss	True
300.273	4.05	Lose2	0.625	0.0	No	2.828	0.001	n/a	NoResponse	-1	n/a	n/a	2	31	Fixation	Loss	True
304.318	0.16	Lose2	0.625	0.004	No	2.828	-0.004	2.0	NoResponse	-1	0.194	303.512	2	31	Target	Loss	True
304.485	0.54	Lose2	0.625	n/a	No	2.828	n/a	n/a	NoResponse	-1	n/a	n/a	2	31	Blank	Loss	True
304.512	0.3	Lose2	0.625	0.004	No	2.828	-0.004	2.0	NoResponse	-1	0.194	n/a	2	31	ButtonPress	Loss	True
305.02	1.45	Lose2	0.625	n/a	No	2.828	n/a	5	NoResponse	-1	0.027	304.047	2	31	Feedback	Loss	True
306.475	2.828	Lose2	0.625	n/a	No	2.828	n/a	n/a	NoResponse	-1	0.0	n/a	2	31	ISIslide	Loss	True
309.316	0.25	Lose2	0.6364	0.001	Yes	2.634	0.016	n/a	GoodResponse	0	n/a	n/a	2	32	Cue	AvoidedLoss	True
309.567	4.15	Lose2	0.6364	0.0	Yes	2.634	0.001	n/a	GoodResponse	0	n/a	n/a	2	32	Fixation	AvoidedLoss	True
313.713	0.17	Lose2	0.6364	0.003	Yes	2.634	-0.003	2.0	GoodResponse	0	0.142	312.855	2	32	Target	AvoidedLoss	True
313.855	0.3	Lose2	0.6364	0.003	Yes	2.634	-0.003	2.0	GoodResponse	0	0.142	n/a	2	32	ButtonPress	AvoidedLoss	True
313.897	0.53	Lose2	0.6364	n/a	Yes	2.634	n/a	n/a	GoodResponse	0	n/a	n/a	2	32	Blank	AvoidedLoss	True
314.415	1.45	Lose2	0.6364	n/a	Yes	2.634	n/a	5	GoodResponse	0	0.047	313.462	2	32	Feedback	AvoidedLoss	True
315.869	2.634	Lose2	0.6364	n/a	Yes	2.634	n/a	n/a	GoodResponse	0	0.0	n/a	2	32	ISIslide	AvoidedLoss	True
318.527	0.25	Win2	0.6175999999999999	0.0	No	2.673	0.027	n/a	NoResponse	0	n/a	n/a	2	33	Cue	MissedWin	True
318.778	4.0	Win2	0.6175999999999999	0.0	No	2.673	0.001	2	NoResponse	0	3.772	321.55	2	33	Fixation	MissedWin	True
322.55	0.3	Win2	0.6175999999999999	0.0	No	2.673	0.001	2	NoResponse	0	3.772	n/a	2	33	ButtonPress	MissedWin	True
322.773	0.18	Win2	0.6175999999999999	0.004	No	2.673	-0.004	n/a	NoResponse	0	n/a	n/a	2	33	Target	MissedWin	True
322.957	0.52	Win2	0.6175999999999999	n/a	No	2.673	n/a	n/a	NoResponse	0	n/a	n/a	2	33	Blank	MissedWin	True
323.476	1.45	Win2	0.6175999999999999	n/a	No	2.673	n/a	5	NoResponse	0	0.01	322.486	2	33	Feedback	MissedWin	True
324.93	2.673	Win2	0.6175999999999999	n/a	No	2.673	n/a	n/a	NoResponse	0	0.0	n/a	2	33	ISIslide	MissedWin	True
327.621	0.25	Lose2	0.6286	0.0	Yes	2.629	0.021	n/a	GoodResponse	0	n/a	n/a	2	34	Cue	AvoidedLoss	True
327.872	4.05	Lose2	0.6286	0.0	Yes	2.629	0.001	n/a	GoodResponse	0	n/a	n/a	2	34	Fixation	AvoidedLoss	True
331.918	0.19	Lose2	0.6286	0.003	Yes	2.629	-0.003	2.0	GoodResponse	0	0.11	331.028	2	34	Target	AvoidedLoss	True
332.028	0.3	Lose2	0.6286	0.003	Yes	2.629	-0.003	2.0	GoodResponse	0	0.11	n/a	2	34	ButtonPress	AvoidedLoss	True
332.118	0.51	Lose2	0.6286	n/a	Yes	2.629	n/a	n/a	GoodResponse	0	n/a	n/a	2	34	Blank	AvoidedLoss	True
332.62	1.45	Lose2	0.6286	n/a	Yes	2.629	n/a	5	GoodResponse	0	0.037	331.657	2	34	Feedback	AvoidedLoss	True
334.074	2.629	Lose2	0.6286	n/a	Yes	2.629	n/a	n/a	GoodResponse	0	0.0	n/a	2	34	ISIslide	AvoidedLoss	True
336.732	0.25	Lose2	0.6111	0.0	No	2.668	0.032	n/a	NoResponse	-1	n/a	n/a	1	35	Cue	Loss	True
336.983	4.0	Lose2	0.6111	0.0	No	2.668	0.001	n/a	NoResponse	-1	n/a	n/a	1	35	Fixation	Loss	True
340.978	0.2	Lose2	0.6111	0.004	No	2.668	-0.004	2.0	NoResponse	-1	0.212	340.19	1	35	Target	Loss	True
341.179	0.5	Lose2	0.6111	n/a	No	2.668	n/a	n/a	NoResponse	-1	n/a	n/a	1	35	Blank	Loss	True
341.19	0.3	Lose2	0.6111	0.004	No	2.668	-0.004	2.0	NoResponse	-1	0.212	n/a	1	35	ButtonPress	Loss	True
341.68	1.45	Lose2	0.6111	n/a	No	2.668	n/a	5	NoResponse	-1	0.001	340.681	1	35	Feedback	Loss	True
343.134	2.668	Lose2	0.6111	n/a	No	2.668	n/a	n/a	NoResponse	-1	0.0	n/a	1	35	ISIslide	Loss	True
345.826	0.25	Control	0.6215999999999999	0.0	Yes	2.674	0.026	n/a	GoodResponse	0	n/a	n/a	1	36	Cue	Neutral	True
346.077	4.0	Control	0.6215999999999999	0.0	Yes	2.674	0.001	n/a	GoodResponse	0	n/a	n/a	1	36	Fixation	Neutral	True
350.072	0.21	Control	0.6215999999999999	0.004	Yes	2.674	-0.004	2.0	GoodResponse	0	0.175	349.247	1	36	Target	Neutral	True
350.247	0.3	Control	0.6215999999999999	0.004	Yes	2.674	-0.004	2.0	GoodResponse	0	0.175	n/a	1	36	ButtonPress	Neutral	True
350.289	0.49	Control	0.6215999999999999	n/a	Yes	2.674	n/a	n/a	GoodResponse	0	n/a	n/a	1	36	Blank	Neutral	True
350.774	1.45	Control	0.6215999999999999	n/a	Yes	2.674	n/a	5	GoodResponse	0	0.028	349.802	1	36	Feedback	Neutral	True
352.228	2.674	Control	0.6215999999999999	n/a	Yes	2.674	n/a	n/a	GoodResponse	0	0.0	n/a	1	36	ISIslide	Neutral	True
354.92	0.25	Win2	0.6053000000000001	0.0	No	2.88	0.02	n/a	NoResponse	0	n/a	n/a	1	37	Cue	MissedWin	True
355.171	4.0	Win2	0.6053000000000001	0.0	No	2.88	0.001	2	NoResponse	0	3.731	357.902	1	37	Fixation	MissedWin	True
358.902	0.3	Win2	0.6053000000000001	0.0	No	2.88	0.001	2	NoResponse	0	3.731	n/a	1	37	ButtonPress	MissedWin	True
359.166	0.22	Win2	0.6053000000000001	0.004	No	2.88	-0.004	n/a	NoResponse	0	n/a	n/a	1	37	Target	MissedWin	True
359.4	0.48	Win2	0.6053000000000001	n/a	No	2.88	n/a	n/a	NoResponse	0	n/a	n/a	1	37	Blank	MissedWin	True
359.868	1.45	Win2	0.6053000000000001	n/a	No	2.88	n/a	5	NoResponse	0	0.008	358.876	1	37	Feedback	MissedWin	True
361.322	2.88	Win2	0.6053000000000001	n/a	No	2.88	n/a	n/a	NoResponse	0	0.0	n/a	1	37	ISIslide	MissedWin	True
364.231	0.25	Lose2	0.6154	0.0	Yes	2.819	0.031	n/a	GoodResponse	0	n/a	n/a	1	38	Cue	AvoidedLoss	True
364.482	3.95	Lose2	0.6154	0.0	Yes	2.819	0.001	n/a	GoodResponse	0	n/a	n/a	1	38	Fixation	AvoidedLoss	True
368.427	0.23	Lose2	0.6154	0.004	Yes	2.819	-0.004	2.0	GoodResponse	0	0.171	367.598	1	38	Target	AvoidedLoss	True
368.598	0.3	Lose2	0.6154	0.004	Yes	2.819	-0.004	2.0	GoodResponse	0	0.171	n/a	1	38	ButtonPress	AvoidedLoss	True
368.661	0.47	Lose2	0.6154	n/a	Yes	2.819	n/a	n/a	GoodResponse	0	n/a	n/a	1	38	Blank	AvoidedLoss	True
369.129	1.45	Lose2	0.6154	n/a	Yes	2.819	n/a	5	GoodResponse	0	0.015	368.144	1	38	Feedback	AvoidedLoss	True
370.583	2.819	Lose2	0.6154	n/a	Yes	2.819	n/a	n/a	GoodResponse	0	0.0	n/a	1	38	ISIslide	AvoidedLoss	True
373.425	0.25	Win2	0.6	0.0	No	2.975	0.025	n/a	NoResponse	0	n/a	n/a	1	39	Cue	MissedWin	True
373.676	4.1	Win2	0.6	0.0	No	2.975	0.001	n/a	NoResponse	0	n/a	n/a	1	39	Fixation	MissedWin	True
377.772	0.24	Win2	0.6	0.003	No	2.975	-0.003	2.0	NoResponse	0	0.259	377.031	1	39	Target	MissedWin	True
378.022	0.46	Win2	0.6	n/a	No	2.975	n/a	n/a	NoResponse	0	n/a	n/a	1	39	Blank	MissedWin	True
378.031	0.3	Win2	0.6	0.003	No	2.975	-0.003	2.0	NoResponse	0	0.259	n/a	1	39	ButtonPress	MissedWin	True
378.474	1.45	Win2	0.6	n/a	No	2.975	n/a	5	NoResponse	0	0.036	377.51	1	39	Feedback	MissedWin	True
379.928	2.975	Win2	0.6	n/a	No	2.975	n/a	n/a	NoResponse	0	0.0	n/a	1	39	ISIslide	MissedWin	True
382.92	0.25	Win2	0.6098	0.0	Yes	2.73	0.02	n/a	GoodResponse	1	n/a	n/a	2	40	Cue	Win	True
383.171	3.95	Win2	0.6098	0.0	Yes	2.73	0.001	n/a	GoodResponse	1	n/a	n/a	2	40	Fixation	Win	True
387.116	0.25	Win2	0.6098	0.004	Yes	2.73	-0.004	2.0	GoodResponse	1	0.224	386.34	2	40	Target	Win	True
387.34	0.3	Win2	0.6098	0.004	Yes	2.73	-0.004	2.0	GoodResponse	1	0.224	n/a	2	40	ButtonPress	Win	True
387.367	0.45	Win2	0.6098	n/a	Yes	2.73	n/a	n/a	GoodResponse	1	n/a	n/a	2	40	Blank	Win	True
387.818	1.45	Win2	0.6098	n/a	Yes	2.73	n/a	5	GoodResponse	1	0.009	386.827	2	40	Feedback	Win	True
389.273	2.73	Win2	0.6098	n/a	Yes	2.73	n/a	n/a	GoodResponse	1	0.0	n/a	2	40	ISIslide	Win	True
392.031	0.25	Win2	0.619	0.0	Yes	2.769	0.031	n/a	GoodResponse	1	n/a	n/a	3	41	Cue	Win	True
392.282	3.9	Win2	0.619	0.0	Yes	2.769	0.001	n/a	GoodResponse	1	n/a	n/a	3	41	Fixation	Win	True
396.177	0.26	Win2	0.619	0.004	Yes	2.769	-0.004	2.0	GoodResponse	1	0.19	395.367	3	41	Target	Win	True
396.367	0.3	Win2	0.619	0.004	Yes	2.769	-0.004	2.0	GoodResponse	1	0.19	n/a	3	41	ButtonPress	Win	True
396.444	0.44	Win2	0.619	n/a	Yes	2.769	n/a	n/a	GoodResponse	1	n/a	n/a	3	41	Blank	Win	True
396.879	1.45	Win2	0.619	n/a	Yes	2.769	n/a	5	GoodResponse	1	0.022	395.901	3	41	Feedback	Win	True
398.333	2.769	Win2	0.619	n/a	Yes	2.769	n/a	n/a	GoodResponse	1	0.0	n/a	3	41	ISIslide	Win	True
401.125	0.25	Control	0.6047	0.0	No	2.925	0.025	n/a	NoResponse	0	n/a	n/a	3	42	Cue	Neutral	True
401.376	3.85	Control	0.6047	0.0	No	2.925	0.001	2	NoResponse	0	3.815	404.191	3	42	Fixation	Neutral	True
405.191	0.3	Control	0.6047	0.0	No	2.925	0.001	2	NoResponse	0	3.815	n/a	3	42	ButtonPress	Neutral	True
405.221	0.27	Control	0.6047	0.004	No	2.925	-0.004	n/a	NoResponse	0	n/a	n/a	3	42	Target	Neutral	True
405.505	0.43	Control	0.6047	n/a	No	2.925	n/a	n/a	NoResponse	0	n/a	n/a	3	42	Blank	Neutral	True
405.923	1.45	Control	0.6047	n/a	No	2.925	n/a	5	NoResponse	0	0.001	404.924	3	42	Feedback	Neutral	True
407.377	2.925	Control	0.6047	n/a	No	2.925	n/a	n/a	NoResponse	0	0.0	n/a	3	42	ISIslide	Neutral	True
410.319	0.25	Win2	0.6136	0.0	Yes	3.181	0.019	n/a	GoodResponse	1	n/a	n/a	4	43	Cue	Win	True
410.57	4.0	Win2	0.6136	0.0	Yes	3.181	0.001	n/a	GoodResponse	1	n/a	n/a	4	43	Fixation	Win	True
414.565	0.28	Win2	0.6136	0.004	Yes	3.181	-0.004	2.0	GoodResponse	1	0.205	413.77	4	43	Target	Win	True
414.77	0.3	Win2	0.6136	0.004	Yes	3.181	-0.004	2.0	GoodResponse	1	0.205	n/a	4	43	ButtonPress	Win	True
414.849	0.42	Win2	0.6136	n/a	Yes	3.181	n/a	n/a	GoodResponse	1	n/a	n/a	4	43	Blank	Win	True
415.267	1.45	Win2	0.6136	n/a	Yes	3.181	n/a	5	GoodResponse	1	0.023	414.29	4	43	Feedback	Win	True
416.722	3.181	Win2	0.6136	n/a	Yes	3.181	n/a	n/a	GoodResponse	1	0.0	n/a	4	43	ISIslide	Win	True
419.915	0.25	Win2	0.6222	0.0	Yes	2.985	0.015	n/a	GoodResponse	1	n/a	n/a	5	44	Cue	Win	True
420.165	4.0	Win2	0.6222	0.0	Yes	2.985	0.0	n/a	GoodResponse	1	n/a	n/a	5	44	Fixation	Win	True
424.161	0.29	Win2	0.6222	0.004	Yes	2.985	-0.004	2.0	GoodResponse	1	0.203	423.364	5	44	Target	Win	True
424.364	0.3	Win2	0.6222	0.004	Yes	2.985	-0.004	2.0	GoodResponse	1	0.203	n/a	5	44	ButtonPress	Win	True
424.461	0.41	Win2	0.6222	n/a	Yes	2.985	n/a	n/a	GoodResponse	1	n/a	n/a	5	44	Blank	Win	True
424.863	1.45	Win2	0.6222	n/a	Yes	2.985	n/a	5	GoodResponse	1	0.037	423.9	5	44	Feedback	Win	True
426.317	2.985	Win2	0.6222	n/a	Yes	2.985	n/a	n/a	GoodResponse	1	0.0	n/a	5	44	ISIslide	Win	True
429.326	0.25	Control	0.6087	0.0	No	2.874	0.026	n/a	PrematurePress	0	n/a	n/a	5	45	Cue	Neutral	True
429.577	4.1	Control	0.6087	0.0	No	2.874	0.001	n/a	PrematurePress	0	n/a	n/a	5	45	Fixation	Neutral	True
433.672	0.3	Control	0.6087	0.004	No	2.874	-0.004	2.0	PrematurePress	0	0.09	432.762	5	45	Target	Neutral	True
433.762	0.3	Control	0.6087	0.004	No	2.874	-0.004	2.0	PrematurePress	0	0.09	n/a	5	45	ButtonPress	Neutral	True
433.973	0.4	Control	0.6087	n/a	No	2.874	n/a	n/a	PrematurePress	0	n/a	n/a	5	45	Blank	Neutral	True
434.375	1.45	Control	0.6087	n/a	No	2.874	n/a	5	PrematurePress	0	0.037	433.412	5	45	Feedback	Neutral	True
435.829	2.874	Control	0.6087	n/a	No	2.874	n/a	n/a	PrematurePress	0	0.0	n/a	5	45	ISIslide	Neutral	True
438.721	0.25	Lose2	0.617	0.0	Yes	3.379	0.021	n/a	GoodResponse	0	n/a	n/a	5	46	Cue	AvoidedLoss	True
438.972	4.0	Lose2	0.617	0.0	Yes	3.379	0.001	n/a	GoodResponse	0	n/a	n/a	5	46	Fixation	AvoidedLoss	True
442.967	0.31	Lose2	0.617	0.004	Yes	3.379	-0.004	2.0	GoodResponse	0	0.194	442.161	5	46	Target	AvoidedLoss	True
443.161	0.3	Lose2	0.617	0.004	Yes	3.379	-0.004	2.0	GoodResponse	0	0.194	n/a	5	46	ButtonPress	AvoidedLoss	True
443.285	0.39	Lose2	0.617	n/a	Yes	3.379	n/a	n/a	GoodResponse	0	n/a	n/a	5	46	Blank	AvoidedLoss	True
443.669	1.45	Lose2	0.617	n/a	Yes	3.379	n/a	5	GoodResponse	0	0.012	442.681	5	46	Feedback	AvoidedLoss	True
445.123	3.379	Lose2	0.617	n/a	Yes	3.379	n/a	n/a	GoodResponse	0	0.0	n/a	5	46	ISIslide	AvoidedLoss	True
448.517	0.25	Lose2	0.625	0.0	Yes	2.683	0.017	n/a	GoodResponse	0	n/a	n/a	5	47	Cue	AvoidedLoss	True
448.768	4.0	Lose2	0.625	0.0	Yes	2.683	0.001	n/a	GoodResponse	0	n/a	n/a	5	47	Fixation	AvoidedLoss	True
452.763	0.32	Lose2	0.625	0.004	Yes	2.683	-0.004	2.0	GoodResponse	0	0.213	451.976	5	47	Target	AvoidedLoss	True
452.976	0.3	Lose2	0.625	0.004	Yes	2.683	-0.004	2.0	GoodResponse	0	0.213	n/a	5	47	ButtonPress	AvoidedLoss	True
453.097	0.38	Lose2	0.625	n/a	Yes	2.683	n/a	n/a	GoodResponse	0	n/a	n/a	5	47	Blank	AvoidedLoss	True
453.465	1.45	Lose2	0.625	n/a	Yes	2.683	n/a	5	GoodResponse	0	0.021	452.486	5	47	Feedback	AvoidedLoss	True
454.919	2.683	Lose2	0.625	n/a	Yes	2.683	n/a	n/a	GoodResponse	0	0.0	n/a	5	47	ISIslide	AvoidedLoss	True
457.628	0.25	Lose2	0.6327	0.0	Yes	3.022	0.028	n/a	GoodResponse	0	n/a	n/a	5	48	Cue	AvoidedLoss	True
457.878	3.95	Lose2	0.6327	0.0	Yes	3.022	0.0	n/a	GoodResponse	0	n/a	n/a	5	48	Fixation	AvoidedLoss	True
461.84	0.33	Lose2	0.6327	0.0	Yes	3.022	0.012	2.0	GoodResponse	0	0.203	461.043	5	48	Target	AvoidedLoss	True
462.043	0.3	Lose2	0.6327	0.0	Yes	3.022	0.012	2.0	GoodResponse	0	0.203	n/a	5	48	ButtonPress	AvoidedLoss	True
462.158	0.37	Lose2	0.6327	n/a	Yes	3.022	n/a	n/a	GoodResponse	0	n/a	n/a	5	48	Blank	AvoidedLoss	True
462.526	1.45	Lose2	0.6327	n/a	Yes	3.022	n/a	5	GoodResponse	0	0.032	461.558	5	48	Feedback	AvoidedLoss	True
463.98	3.022	Lose2	0.6327	n/a	Yes	3.022	n/a	n/a	GoodResponse	0	0.0	n/a	5	48	ISIslide	AvoidedLoss	True
467.022	0.25	Control	0.64	0.0	Yes	2.878	0.022	n/a	GoodResponse	0	n/a	n/a	5	49	Cue	Neutral	True
467.273	4.0	Control	0.64	0.0	Yes	2.878	0.001	n/a	GoodResponse	0	n/a	n/a	5	49	Fixation	Neutral	True
471.268	0.34	Control	0.64	0.004	Yes	2.878	-0.004	2.0	GoodResponse	0	0.207	470.475	5	49	Target	Neutral	True
471.475	0.3	Control	0.64	0.004	Yes	2.878	-0.004	2.0	GoodResponse	0	0.207	n/a	5	49	ButtonPress	Neutral	True
471.619	0.36	Control	0.64	n/a	Yes	2.878	n/a	n/a	GoodResponse	0	n/a	n/a	5	49	Blank	Neutral	True
471.971	1.45	Control	0.64	n/a	Yes	2.878	n/a	5	GoodResponse	0	0.004	470.975	5	49	Feedback	Neutral	True
473.425	2.878	Control	0.64	n/a	Yes	2.878	n/a	n/a	GoodResponse	0	0.0	n/a	5	49	ISIslide	Neutral	True
476.317	0.25	Control	0.6470999999999999	0.0	Yes	2.783	0.017	n/a	GoodResponse	0	n/a	n/a	5	50	Cue	Neutral	True
476.568	4.0	Control	0.6470999999999999	0.0	Yes	2.783	0.001	n/a	GoodResponse	0	n/a	n/a	5	50	Fixation	Neutral	True
480.563	0.35	Control	0.6470999999999999	0.004	Yes	2.783	-0.004	2.0	GoodResponse	0	0.208	479.771	5	50	Target	Neutral	True
480.771	0.3	Control	0.6470999999999999	0.004	Yes	2.783	-0.004	2.0	GoodResponse	0	0.208	n/a	5	50	ButtonPress	Neutral	True
480.914	0.35	Control	0.6470999999999999	n/a	Yes	2.783	n/a	n/a	GoodResponse	0	n/a	n/a	5	50	Blank	Neutral	True
481.265	1.45	Control	0.6470999999999999	n/a	Yes	2.783	n/a	5	GoodResponse	0	0.025	480.29	5	50	Feedback	Neutral	True
482.719	2.783	Control	0.6470999999999999	n/a	Yes	2.783	n/a	n/a	GoodResponse	0	0.0	n/a	5	50	ISIslide	Neutral	True
485.528	0.25	Control	0.6537999999999999	0.0	Yes	2.722	0.028	n/a	GoodResponse	0	n/a	n/a	5	51	Cue	Neutral	True
485.779	3.95	Control	0.6537999999999999	0.0	Yes	2.722	0.001	n/a	GoodResponse	0	n/a	n/a	5	51	Fixation	Neutral	True
489.724	0.36	Control	0.6537999999999999	0.004	Yes	2.722	-0.004	2.0	GoodResponse	0	0.203	488.927	5	51	Target	Neutral	True
489.927	0.3	Control	0.6537999999999999	0.004	Yes	2.722	-0.004	2.0	GoodResponse	0	0.203	n/a	5	51	ButtonPress	Neutral	True
490.091	0.34	Control	0.6537999999999999	n/a	Yes	2.722	n/a	n/a	GoodResponse	0	n/a	n/a	5	51	Blank	Neutral	True
490.426	1.45	Control	0.6537999999999999	n/a	Yes	2.722	n/a	5	GoodResponse	0	0.035	489.461	5	51	Feedback	Neutral	True
491.88	2.722	Control	0.6537999999999999	n/a	Yes	2.722	n/a	n/a	GoodResponse	0	0.0	n/a	5	51	ISIslide	Neutral	True
494.622	0.25	Control	0.6604000000000001	0.0	Yes	2.628	0.022	n/a	GoodResponse	0	n/a	n/a	5	52	Cue	Neutral	True
494.872	4.05	Control	0.6604000000000001	0.001	Yes	2.628	0.0	n/a	GoodResponse	0	n/a	n/a	5	52	Fixation	Neutral	True
498.918	0.37	Control	0.6604000000000001	0.004	Yes	2.628	-0.004	2.0	GoodResponse	0	0.24	498.158	5	52	Target	Neutral	True
499.158	0.3	Control	0.6604000000000001	0.004	Yes	2.628	-0.004	2.0	GoodResponse	0	0.24	n/a	5	52	ButtonPress	Neutral	True
499.302	0.33	Control	0.6604000000000001	n/a	Yes	2.628	n/a	n/a	GoodResponse	0	n/a	n/a	5	52	Blank	Neutral	True
499.62	1.45	Control	0.6604000000000001	n/a	Yes	2.628	n/a	5	GoodResponse	0	0.011	498.631	5	52	Feedback	Neutral	True
501.074	2.628	Control	0.6604000000000001	n/a	Yes	2.628	n/a	n/a	GoodResponse	0	0.0	n/a	5	52	ISIslide	Neutral	True
503.716	0.25	Win2	0.6667000000000001	0.0	Yes	2.934	0.016	n/a	GoodResponse	1	n/a	n/a	6	53	Cue	Win	True
503.966	4.05	Win2	0.6667000000000001	0.0	Yes	2.934	0.0	n/a	GoodResponse	1	n/a	n/a	6	53	Fixation	Win	True
508.012	0.37	Win2	0.6667000000000001	0.004	Yes	2.934	-0.004	2.0	GoodResponse	1	0.185	507.197	6	53	Target	Win	True
508.197	0.3	Win2	0.6667000000000001	0.004	Yes	2.934	-0.004	2.0	GoodResponse	1	0.185	n/a	6	53	ButtonPress	Win	True
508.396	0.33	Win2	0.6667000000000001	n/a	Yes	2.934	n/a	n/a	GoodResponse	1	n/a	n/a	6	53	Blank	Win	True
508.714	1.45	Win2	0.6667000000000001	n/a	Yes	2.934	n/a	5	GoodResponse	1	0.039	507.753	6	53	Feedback	Win	True
510.168	2.934	Win2	0.6667000000000001	n/a	Yes	2.934	n/a	n/a	GoodResponse	1	0.0	n/a	6	53	ISIslide	Win	True
513.127	0.25	Win2	0.6727	0.0	Yes	2.723	0.027	n/a	GoodResponse	1	n/a	n/a	7	54	Cue	Win	True
513.378	3.95	Win2	0.6727	0.0	Yes	2.723	0.001	n/a	GoodResponse	1	n/a	n/a	7	54	Fixation	Win	True
517.323	0.36	Win2	0.6727	0.004	Yes	2.723	-0.004	2.0	GoodResponse	1	0.272	516.595	7	54	Target	Win	True
517.595	0.3	Win2	0.6727	0.004	Yes	2.723	-0.004	2.0	GoodResponse	1	0.272	n/a	7	54	ButtonPress	Win	True
517.691	0.34	Win2	0.6727	n/a	Yes	2.723	n/a	n/a	GoodResponse	1	n/a	n/a	7	54	Blank	Win	True
518.025	1.45	Win2	0.6727	n/a	Yes	2.723	n/a	5	GoodResponse	1	0.046	517.071	7	54	Feedback	Win	True
519.48	2.723	Win2	0.6727	n/a	Yes	2.723	n/a	n/a	GoodResponse	1	0.0	n/a	7	54	ISIslide	Win	True
522.221	0.25	Control	0.6786	0.0	Yes	3.029	0.021	n/a	GoodResponse	0	n/a	n/a	7	55	Cue	Neutral	True
522.472	3.95	Control	0.6786	0.0	Yes	3.029	0.001	n/a	GoodResponse	0	n/a	n/a	7	55	Fixation	Neutral	True
526.417	0.35	Control	0.6786	0.004	Yes	3.029	-0.004	2.0	GoodResponse	0	0.204	525.621	7	55	Target	Neutral	True
526.621	0.3	Control	0.6786	0.004	Yes	3.029	-0.004	2.0	GoodResponse	0	0.204	n/a	7	55	ButtonPress	Neutral	True
526.768	0.35	Control	0.6786	n/a	Yes	3.029	n/a	n/a	GoodResponse	0	n/a	n/a	7	55	Blank	Neutral	True
527.119	1.45	Control	0.6786	n/a	Yes	3.029	n/a	5	GoodResponse	0	0.024	526.143	7	55	Feedback	Neutral	True
528.573	3.029	Control	0.6786	n/a	Yes	3.029	n/a	n/a	GoodResponse	0	0.0	n/a	7	55	ISIslide	Neutral	True
531.616	0.25	Control	0.6842	0.0	Yes	2.834	0.016	n/a	GoodResponse	0	n/a	n/a	7	56	Cue	Neutral	True
531.867	3.95	Control	0.6842	0.0	Yes	2.834	0.001	n/a	GoodResponse	0	n/a	n/a	7	56	Fixation	Neutral	True
535.812	0.34	Control	0.6842	0.004	Yes	2.834	-0.004	2.0	GoodResponse	0	0.205	535.017	7	56	Target	Neutral	True
536.017	0.3	Control	0.6842	0.004	Yes	2.834	-0.004	2.0	GoodResponse	0	0.205	n/a	7	56	ButtonPress	Neutral	True
536.163	0.36	Control	0.6842	n/a	Yes	2.834	n/a	n/a	GoodResponse	0	n/a	n/a	7	56	Blank	Neutral	True
536.514	1.45	Control	0.6842	n/a	Yes	2.834	n/a	5	GoodResponse	0	0.044	535.558	7	56	Feedback	Neutral	True
537.968	2.834	Control	0.6842	n/a	Yes	2.834	n/a	n/a	GoodResponse	0	0.0	n/a	7	56	ISIslide	Neutral	True
540.827	0.25	Control	0.6897	0.0	Yes	3.473	0.027	n/a	GoodResponse	0	n/a	n/a	7	57	Cue	Neutral	True
541.078	4.0	Control	0.6897	0.0	Yes	3.473	0.001	n/a	GoodResponse	0	n/a	n/a	7	57	Fixation	Neutral	True
545.073	0.33	Control	0.6897	0.004	Yes	3.473	-0.004	2.0	GoodResponse	0	0.179	544.252	7	57	Target	Neutral	True
545.252	0.3	Control	0.6897	0.004	Yes	3.473	-0.004	2.0	GoodResponse	0	0.179	n/a	7	57	ButtonPress	Neutral	True
545.407	0.37	Control	0.6897	n/a	Yes	3.473	n/a	n/a	GoodResponse	0	n/a	n/a	7	57	Blank	Neutral	True
545.775	1.45	Control	0.6897	n/a	Yes	3.473	n/a	5	GoodResponse	0	0.002	544.777	7	57	Feedback	Neutral	True
547.229	3.473	Control	0.6897	n/a	Yes	3.473	n/a	n/a	GoodResponse	0	0.0	n/a	7	57	ISIslide	Neutral	True
550.723	0.25	Win2	0.6949	0.0	Yes	2.727	0.023	n/a	GoodResponse	1	n/a	n/a	8	58	Cue	Win	True
550.974	4.05	Win2	0.6949	0.0	Yes	2.727	0.001	n/a	GoodResponse	1	n/a	n/a	8	58	Fixation	Win	True
555.019	0.32	Win2	0.6949	0.004	Yes	2.727	-0.004	2.0	GoodResponse	1	0.197	554.216	8	58	Target	Win	True
555.216	0.3	Win2	0.6949	0.004	Yes	2.727	-0.004	2.0	GoodResponse	1	0.197	n/a	8	58	ButtonPress	Win	True
555.354	0.38	Win2	0.6949	n/a	Yes	2.727	n/a	n/a	GoodResponse	1	n/a	n/a	8	58	Blank	Win	True
555.721	1.45	Win2	0.6949	n/a	Yes	2.727	n/a	5	GoodResponse	1	0.008	554.729	8	58	Feedback	Win	True
557.176	2.727	Win2	0.6949	n/a	Yes	2.727	n/a	n/a	GoodResponse	1	0.0	n/a	8	58	ISIslide	Win	True
559.917	0.25	Lose2	0.7	0.0	Yes	2.683	0.017	n/a	GoodResponse	0	n/a	n/a	8	59	Cue	AvoidedLoss	True
560.168	4.0	Lose2	0.7	0.0	Yes	2.683	0.001	n/a	GoodResponse	0	n/a	n/a	8	59	Fixation	AvoidedLoss	True
564.163	0.31	Lose2	0.7	0.004	Yes	2.683	-0.004	2.0	GoodResponse	0	0.194	563.357	8	59	Target	AvoidedLoss	True
564.357	0.3	Lose2	0.7	0.004	Yes	2.683	-0.004	2.0	GoodResponse	0	0.194	n/a	8	59	ButtonPress	AvoidedLoss	True
564.481	0.39	Lose2	0.7	n/a	Yes	2.683	n/a	n/a	GoodResponse	0	n/a	n/a	8	59	Blank	AvoidedLoss	True
564.866	1.45	Lose2	0.7	n/a	Yes	2.683	n/a	5	GoodResponse	0	0.033	563.899	8	59	Feedback	AvoidedLoss	True
566.32	2.683	Lose2	0.7	n/a	Yes	2.683	n/a	n/a	GoodResponse	0	0.0	n/a	8	59	ISIslide	AvoidedLoss	True
569.028	0.25	Control	0.7049	0.0	Yes	2.672	0.028	n/a	GoodResponse	0	n/a	n/a	8	60	Cue	Neutral	True
569.279	4.0	Control	0.7049	0.0	Yes	2.672	0.001	n/a	GoodResponse	0	n/a	n/a	8	60	Fixation	Neutral	True
573.274	0.3	Control	0.7049	0.004	Yes	2.672	-0.004	2.0	GoodResponse	0	0.229	572.503	8	60	Target	Neutral	True
573.503	0.3	Control	0.7049	0.004	Yes	2.672	-0.004	2.0	GoodResponse	0	0.229	n/a	8	60	ButtonPress	Neutral	True
573.575	0.4	Control	0.7049	n/a	Yes	2.672	n/a	n/a	GoodResponse	0	n/a	n/a	8	60	Blank	Neutral	True
573.976	1.45	Control	0.7049	n/a	Yes	2.672	n/a	5	GoodResponse	0	0.045	573.021	8	60	Feedback	Neutral	True
575.431	2.672	Control	0.7049	n/a	Yes	2.672	n/a	n/a	GoodResponse	0	0.0	n/a	8	60	ISIslide	Neutral	True
578.122	0.25	Lose2	0.7097	0.0	Yes	2.978	0.022	n/a	GoodResponse	0	n/a	n/a	8	61	Cue	AvoidedLoss	True
578.373	4.0	Lose2	0.7097	0.0	Yes	2.978	0.001	n/a	GoodResponse	0	n/a	n/a	8	61	Fixation	AvoidedLoss	True
582.368	0.29	Lose2	0.7097	0.004	Yes	2.978	-0.004	2.0	GoodResponse	0	0.164	581.532	8	61	Target	AvoidedLoss	True
582.532	0.3	Lose2	0.7097	0.004	Yes	2.978	-0.004	2.0	GoodResponse	0	0.164	n/a	8	61	ButtonPress	AvoidedLoss	True
582.669	0.41	Lose2	0.7097	n/a	Yes	2.978	n/a	n/a	GoodResponse	0	n/a	n/a	8	61	Blank	AvoidedLoss	True
583.07	1.45	Lose2	0.7097	n/a	Yes	2.978	n/a	5	GoodResponse	0	0.025	582.095	8	61	Feedback	AvoidedLoss	True
584.524	2.978	Lose2	0.7097	n/a	Yes	2.978	n/a	n/a	GoodResponse	0	0.0	n/a	8	61	ISIslide	AvoidedLoss	True
587.517	0.25	Lose2	0.7143	0.0	Yes	2.883	0.017	n/a	GoodResponse	0	n/a	n/a	8	62	Cue	AvoidedLoss	True
587.768	3.9	Lose2	0.7143	0.0	Yes	2.883	0.001	n/a	GoodResponse	0	n/a	n/a	8	62	Fixation	AvoidedLoss	True
591.679	0.28	Lose2	0.7143	0.0	Yes	2.883	0.012	2.0	GoodResponse	0	0.205	590.884	8	62	Target	AvoidedLoss	True
591.884	0.3	Lose2	0.7143	0.0	Yes	2.883	0.012	2.0	GoodResponse	0	0.205	n/a	8	62	ButtonPress	AvoidedLoss	True
591.947	0.42	Lose2	0.7143	n/a	Yes	2.883	n/a	n/a	GoodResponse	0	n/a	n/a	8	62	Blank	AvoidedLoss	True
592.365	1.45	Lose2	0.7143	n/a	Yes	2.883	n/a	5	GoodResponse	0	0.046	591.411	8	62	Feedback	AvoidedLoss	True
593.819	2.883	Lose2	0.7143	n/a	Yes	2.883	n/a	n/a	GoodResponse	0	0.0	n/a	8	62	ISIslide	AvoidedLoss	True
596.728	0.25	Lose2	0.7188	0.0	Yes	2.622	0.028	n/a	GoodResponse	0	n/a	n/a	8	63	Cue	AvoidedLoss	True
596.978	4.05	Lose2	0.7188	0.001	Yes	2.622	0.0	n/a	GoodResponse	0	n/a	n/a	8	63	Fixation	AvoidedLoss	True
601.024	0.27	Lose2	0.7188	0.004	Yes	2.622	-0.004	2.0	GoodResponse	0	0.159	600.183	8	63	Target	AvoidedLoss	True
601.183	0.3	Lose2	0.7188	0.004	Yes	2.622	-0.004	2.0	GoodResponse	0	0.159	n/a	8	63	ButtonPress	AvoidedLoss	True
601.308	0.43	Lose2	0.7188	n/a	Yes	2.622	n/a	n/a	GoodResponse	0	n/a	n/a	8	63	Blank	AvoidedLoss	True
601.726	1.45	Lose2	0.7188	n/a	Yes	2.622	n/a	5	GoodResponse	0	0.005	600.731	8	63	Feedback	AvoidedLoss	True
603.18	2.622	Lose2	0.7188	n/a	Yes	2.622	n/a	n/a	GoodResponse	0	0.0	n/a	8	63	ISIslide	AvoidedLoss	True
605.822	0.25	Win2	0.7231000000000001	0.0	Yes	3.128	0.022	n/a	GoodResponse	1	n/a	n/a	9	64	Cue	Win	True
606.072	4.15	Win2	0.7231000000000001	0.0	Yes	3.128	0.0	n/a	GoodResponse	1	n/a	n/a	9	64	Fixation	Win	True
610.218	0.26	Win2	0.7231000000000001	0.004	Yes	3.128	-0.004	2.0	GoodResponse	1	0.19	609.408	9	64	Target	Win	True
610.408	0.3	Win2	0.7231000000000001	0.004	Yes	3.128	-0.004	2.0	GoodResponse	1	0.19	n/a	9	64	ButtonPress	Win	True
610.486	0.44	Win2	0.7231000000000001	n/a	Yes	3.128	n/a	n/a	GoodResponse	1	n/a	n/a	9	64	Blank	Win	True
610.92	1.45	Win2	0.7231000000000001	n/a	Yes	3.128	n/a	5	GoodResponse	1	0.028	609.948	9	64	Feedback	Win	True
612.375	3.128	Win2	0.7231000000000001	n/a	Yes	3.128	n/a	n/a	GoodResponse	1	0.0	n/a	9	64	ISIslide	Win	True
615.517	0.25	Control	0.7273000000000001	0.0	Yes	2.783	0.017	n/a	GoodResponse	0	n/a	n/a	9	65	Cue	Neutral	True
615.768	4.0	Control	0.7273000000000001	0.0	Yes	2.783	0.001	n/a	GoodResponse	0	n/a	n/a	9	65	Fixation	Neutral	True
619.763	0.25	Control	0.7273000000000001	0.004	Yes	2.783	-0.004	2.0	GoodResponse	0	0.183	618.946	9	65	Target	Neutral	True
619.946	0.3	Control	0.7273000000000001	0.004	Yes	2.783	-0.004	2.0	GoodResponse	0	0.183	n/a	9	65	ButtonPress	Neutral	True
620.014	0.45	Control	0.7273000000000001	n/a	Yes	2.783	n/a	n/a	GoodResponse	0	n/a	n/a	9	65	Blank	Neutral	True
620.465	1.45	Control	0.7273000000000001	n/a	Yes	2.783	n/a	5	GoodResponse	0	0.044	619.509	9	65	Feedback	Neutral	True
621.92	2.783	Control	0.7273000000000001	n/a	Yes	2.783	n/a	n/a	GoodResponse	0	0.0	n/a	9	65	ISIslide	Neutral	True
624.728	0.25	Win2	0.7313	0.0	Yes	2.772	0.028	n/a	GoodResponse	1	n/a	n/a	10	66	Cue	Win	True
624.979	3.9	Win2	0.7313	0.0	Yes	2.772	0.001	n/a	GoodResponse	1	n/a	n/a	10	66	Fixation	Win	True
628.874	0.24	Win2	0.7313	0.004	Yes	2.772	-0.004	2.0	GoodResponse	1	0.21	628.084	10	66	Target	Win	True
629.084	0.3	Win2	0.7313	0.004	Yes	2.772	-0.004	2.0	GoodResponse	1	0.21	n/a	10	66	ButtonPress	Win	True
629.125	0.46	Win2	0.7313	n/a	Yes	2.772	n/a	n/a	GoodResponse	1	n/a	n/a	10	66	Blank	Win	True
629.576	1.45	Win2	0.7313	n/a	Yes	2.772	n/a	5	GoodResponse	1	0.006	628.582	10	66	Feedback	Win	True
631.03	2.772	Win2	0.7313	n/a	Yes	2.772	n/a	n/a	GoodResponse	1	0.0	n/a	10	66	ISIslide	Win	True
633.822	0.25	Control	0.7353000000000001	0.0	Yes	2.728	0.022	n/a	GoodResponse	0	n/a	n/a	10	67	Cue	Neutral	True
634.073	3.95	Control	0.7353000000000001	0.0	Yes	2.728	0.001	n/a	GoodResponse	0	n/a	n/a	10	67	Fixation	Neutral	True
638.018	0.23	Control	0.7353000000000001	0.004	Yes	2.728	-0.004	2.0	GoodResponse	0	0.148	637.166	10	67	Target	Neutral	True
638.166	0.3	Control	0.7353000000000001	0.004	Yes	2.728	-0.004	2.0	GoodResponse	0	0.148	n/a	10	67	ButtonPress	Neutral	True
638.252	0.47	Control	0.7353000000000001	n/a	Yes	2.728	n/a	n/a	GoodResponse	0	n/a	n/a	10	67	Blank	Neutral	True
638.72	1.45	Control	0.7353000000000001	n/a	Yes	2.728	n/a	5	GoodResponse	0	0.033	637.753	10	67	Feedback	Neutral	True
640.175	2.728	Control	0.7353000000000001	n/a	Yes	2.728	n/a	n/a	GoodResponse	0	0.0	n/a	10	67	ISIslide	Neutral	True
642.916	0.25	Win2	0.7391	0.0	Yes	3.084	0.016	n/a	GoodResponse	1	n/a	n/a	11	68	Cue	Win	True
643.167	4.0	Win2	0.7391	0.0	Yes	3.084	0.001	n/a	GoodResponse	1	n/a	n/a	11	68	Fixation	Win	True
647.162	0.22	Win2	0.7391	0.004	Yes	3.084	-0.004	2.0	GoodResponse	1	0.205	646.367	11	68	Target	Win	True
647.367	0.3	Win2	0.7391	0.004	Yes	3.084	-0.004	2.0	GoodResponse	1	0.205	n/a	11	68	ButtonPress	Win	True
647.396	0.48	Win2	0.7391	n/a	Yes	3.084	n/a	n/a	GoodResponse	1	n/a	n/a	11	68	Blank	Win	True
647.864	1.45	Win2	0.7391	n/a	Yes	3.084	n/a	5	GoodResponse	1	0.01	646.874	11	68	Feedback	Win	True
649.319	3.084	Win2	0.7391	n/a	Yes	3.084	n/a	n/a	GoodResponse	1	0.0	n/a	11	68	ISIslide	Win	True
652.428	0.25	Win2	0.7429000000000001	0.0	Yes	3.222	0.028	n/a	GoodResponse	1	n/a	n/a	12	69	Cue	Win	True
652.679	3.95	Win2	0.7429000000000001	0.0	Yes	3.222	0.001	n/a	GoodResponse	1	n/a	n/a	12	69	Fixation	Win	True
656.624	0.21	Win2	0.7429000000000001	0.004	Yes	3.222	-0.004	2.0	GoodResponse	1	0.18	655.804	12	69	Target	Win	True
656.804	0.3	Win2	0.7429000000000001	0.004	Yes	3.222	-0.004	2.0	GoodResponse	1	0.18	n/a	12	69	ButtonPress	Win	True
656.841	0.49	Win2	0.7429000000000001	n/a	Yes	3.222	n/a	n/a	GoodResponse	1	n/a	n/a	12	69	Blank	Win	True
657.326	1.45	Win2	0.7429000000000001	n/a	Yes	3.222	n/a	5	GoodResponse	1	0.011	656.337	12	69	Feedback	Win	True
658.78	3.222	Win2	0.7429000000000001	n/a	Yes	3.222	n/a	n/a	GoodResponse	1	0.0	n/a	12	69	ISIslide	Win	True
662.023	0.25	Lose2	0.7323999999999999	0.0	No	3.027	0.023	n/a	NoResponse	-1	n/a	n/a	11	70	Cue	Loss	True
662.274	4.05	Lose2	0.7323999999999999	0.0	No	3.027	0.001	n/a	NoResponse	-1	n/a	n/a	11	70	Fixation	Loss	True
666.32	0.2	Lose2	0.7323999999999999	0.003	No	3.027	-0.003	2.0	NoResponse	-1	0.22	665.54	11	70	Target	Loss	True
666.52	0.5	Lose2	0.7323999999999999	n/a	No	3.027	n/a	n/a	NoResponse	-1	n/a	n/a	11	70	Blank	Loss	True
666.54	0.3	Lose2	0.7323999999999999	0.003	No	3.027	-0.003	2.0	NoResponse	-1	0.22	n/a	11	70	ButtonPress	Loss	True
667.022	1.45	Lose2	0.7323999999999999	n/a	No	3.027	n/a	5	NoResponse	-1	0.023	666.045	11	70	Feedback	Loss	True
668.476	3.027	Lose2	0.7323999999999999	n/a	No	3.027	n/a	n/a	NoResponse	-1	0.0	n/a	11	70	ISIslide	Loss	True
671.518	0.25	Win2	0.7222	0.001	No	2.732	0.018	n/a	NoResponse	0	n/a	n/a	11	71	Cue	MissedWin	True
671.769	4.05	Win2	0.7222	0.0	No	2.732	0.001	2	NoResponse	0	4.025	674.794	11	71	Fixation	MissedWin	True
675.794	0.3	Win2	0.7222	0.0	No	2.732	0.001	2	NoResponse	0	4.025	n/a	11	71	ButtonPress	MissedWin	True
675.815	0.19	Win2	0.7222	0.003	No	2.732	-0.003	n/a	NoResponse	0	n/a	n/a	11	71	Target	MissedWin	True
676.015	0.51	Win2	0.7222	n/a	No	2.732	n/a	n/a	NoResponse	0	n/a	n/a	11	71	Blank	MissedWin	True
676.517	1.45	Win2	0.7222	n/a	No	2.732	n/a	5	NoResponse	0	0.04	675.557	11	71	Feedback	MissedWin	True
677.971	2.732	Win2	0.7222	n/a	No	2.732	n/a	n/a	NoResponse	0	0.0	n/a	11	71	ISIslide	MissedWin	True
680.729	0.25	Win2	0.726	0.0	Yes	2.771	0.029	n/a	GoodResponse	1	n/a	n/a	12	72	Cue	Win	True
680.98	4.1	Win2	0.726	0.0	Yes	2.771	0.001	n/a	GoodResponse	1	n/a	n/a	12	72	Fixation	Win	True
685.076	0.18	Win2	0.726	0.003	Yes	2.771	-0.003	2.0	GoodResponse	1	0.1	684.176	12	72	Target	Win	True
685.176	0.3	Win2	0.726	0.003	Yes	2.771	-0.003	2.0	GoodResponse	1	0.1	n/a	12	72	ButtonPress	Win	True
685.26	0.52	Win2	0.726	n/a	Yes	2.771	n/a	n/a	GoodResponse	1	n/a	n/a	12	72	Blank	Win	True
685.778	1.45	Win2	0.726	n/a	Yes	2.771	n/a	5	GoodResponse	1	0.048	684.826	12	72	Feedback	Win	True
687.232	2.771	Win2	0.726	n/a	Yes	2.771	n/a	n/a	GoodResponse	1	0.0	n/a	12	72	ISIslide	Win	True
690.024	0.25	Win2	0.7162000000000001	0.0	No	2.676	0.024	n/a	NoResponse	0	n/a	n/a	12	73	Cue	MissedWin	True
690.275	4.0	Win2	0.7162000000000001	0.0	No	2.676	0.001	n/a	NoResponse	0	n/a	n/a	12	73	Fixation	MissedWin	True
694.27	0.17	Win2	0.7162000000000001	0.004	No	2.676	-0.004	2.0	NoResponse	0	0.248	693.518	12	73	Target	MissedWin	True
694.454	0.53	Win2	0.7162000000000001	n/a	No	2.676	n/a	n/a	NoResponse	0	n/a	n/a	12	73	Blank	MissedWin	True
694.518	0.3	Win2	0.7162000000000001	0.004	No	2.676	-0.004	2.0	NoResponse	0	0.248	n/a	12	73	ButtonPress	MissedWin	True
694.972	1.45	Win2	0.7162000000000001	n/a	No	2.676	n/a	5	NoResponse	0	0.024	693.996	12	73	Feedback	MissedWin	True
696.426	2.676	Win2	0.7162000000000001	n/a	No	2.676	n/a	n/a	NoResponse	0	0.0	n/a	12	73	ISIslide	MissedWin	True
699.118	0.25	Lose2	0.7067	0.0	No	2.632	0.018	n/a	NoResponse	-1	n/a	n/a	11	74	Cue	Loss	True
699.369	4.05	Lose2	0.7067	0.0	No	2.632	0.001	n/a	NoResponse	-1	n/a	n/a	11	74	Fixation	Loss	True
703.414	0.16	Lose2	0.7067	0.004	No	2.632	-0.004	2.0	NoResponse	-1	0.203	702.617	11	74	Target	Loss	True
703.581	0.54	Lose2	0.7067	n/a	No	2.632	n/a	n/a	NoResponse	-1	n/a	n/a	11	74	Blank	Loss	True
703.617	0.3	Lose2	0.7067	0.004	No	2.632	-0.004	2.0	NoResponse	-1	0.203	n/a	11	74	ButtonPress	Loss	True
704.116	1.45	Lose2	0.7067	n/a	No	2.632	n/a	5	NoResponse	-1	0.001	703.117	11	74	Feedback	Loss	True
705.57	2.632	Lose2	0.7067	n/a	No	2.632	n/a	n/a	NoResponse	-1	0.0	n/a	11	74	ISIslide	Loss	True
708.228	0.25	Lose2	0.6973999999999999	0.001	No	2.922	0.028	n/a	NoResponse	-1	n/a	n/a	10	75	Cue	Loss	True
708.479	3.95	Lose2	0.6973999999999999	0.0	No	2.922	0.001	n/a	NoResponse	-1	n/a	n/a	10	75	Fixation	Loss	True
712.424	0.15	Lose2	0.6973999999999999	0.004	No	2.922	-0.004	2.0	NoResponse	-1	0.211	711.635	10	75	Target	Loss	True
712.575	0.55	Lose2	0.6973999999999999	n/a	No	2.922	n/a	n/a	NoResponse	-1	n/a	n/a	10	75	Blank	Loss	True
712.635	0.3	Lose2	0.6973999999999999	0.004	No	2.922	-0.004	2.0	NoResponse	-1	0.211	n/a	10	75	ButtonPress	Loss	True
713.126	1.45	Lose2	0.6973999999999999	n/a	No	2.922	n/a	5	NoResponse	-1	0.016	712.142	10	75	Feedback	Loss	True
714.581	2.922	Lose2	0.6973999999999999	n/a	No	2.922	n/a	n/a	NoResponse	-1	0.0	n/a	10	75	ISIslide	Loss	True
717.523	0.25	Control	0.6883	0.0	No	3.227	0.023	n/a	NoResponse	0	n/a	n/a	10	76	Cue	Neutral	True
717.774	4.05	Control	0.6883	0.0	No	3.227	0.001	2	NoResponse	0	3.82	720.594	10	76	Fixation	Neutral	True
721.594	0.3	Control	0.6883	0.0	No	3.227	0.001	2	NoResponse	0	3.82	n/a	10	76	ButtonPress	Neutral	True
721.819	0.15	Control	0.6883	0.004	No	3.227	-0.004	n/a	NoResponse	0	n/a	n/a	10	76	Target	Neutral	True
721.97	0.55	Control	0.6883	n/a	No	3.227	n/a	n/a	NoResponse	0	n/a	n/a	10	76	Blank	Neutral	True
722.521	1.45	Control	0.6883	n/a	No	3.227	n/a	5	NoResponse	0	0.036	721.557	10	76	Feedback	Neutral	True
723.976	3.227	Control	0.6883	n/a	No	3.227	n/a	n/a	NoResponse	0	0.0	n/a	10	76	ISIslide	Neutral	True
727.219	0.25	Lose2	0.6795	0.0	No	2.581	0.019	n/a	NoResponse	-1	n/a	n/a	9	77	Cue	Loss	True
727.469	3.95	Lose2	0.6795	0.001	No	2.581	0.0	n/a	NoResponse	-1	n/a	n/a	9	77	Fixation	Loss	True
731.415	0.15	Lose2	0.6795	0.004	No	2.581	-0.004	2.0	NoResponse	-1	0.179	730.594	9	77	Target	Loss	True
731.565	0.55	Lose2	0.6795	n/a	No	2.581	n/a	n/a	NoResponse	-1	n/a	n/a	9	77	Blank	Loss	True
731.594	0.3	Lose2	0.6795	0.004	No	2.581	-0.004	2.0	NoResponse	-1	0.179	n/a	9	77	ButtonPress	Loss	True
732.117	1.45	Lose2	0.6795	n/a	No	2.581	n/a	5	NoResponse	-1	0.001	731.118	9	77	Feedback	Loss	True
733.571	2.581	Lose2	0.6795	n/a	No	2.581	n/a	n/a	NoResponse	-1	0.0	n/a	9	77	ISIslide	Loss	True
