onset	duration	cue_type	current_mean_accuracy	duration_error	is_hit	isi_adjusted	onset_delay	response	response_type	reward	rt	rt_time	total_reward	trial_number	trial_phase	trial_type	one_press
11.104	0.25	Control	1.0	0.0	Yes	2.946	0.004	n/a	GoodResponse	0	n/a	n/a	0	0	Cue	Neutral	False
11.355	3.85	Control	1.0	0.0	Yes	2.946	0.001	4.0	GoodResponse	0	0.377	10.732	0	0	Fixation	Neutral	False
11.732	0.3	Control	1.0	0.0	Yes	2.946	0.001	4.0	GoodResponse	0	0.377	n/a	0	0	ButtonPress	Neutral	False
15.2	0.4	Control	1.0	0.004	Yes	2.946	-0.004	4.0	GoodResponse	0	0.357	14.557	0	0	Target	Neutral	False
15.557	0.3	Control	1.0	0.004	Yes	2.946	-0.004	4.0	GoodResponse	0	0.357	n/a	0	0	ButtonPress	Neutral	False
15.601	0.3	Control	1.0	n/a	Yes	2.946	n/a	n/a	GoodResponse	0	n/a	n/a	0	0	Blank	Neutral	False
15.902	1.45	Control	1.0	n/a	Yes	2.946	n/a	5	GoodResponse	0	0.024	14.926	0	0	Feedback	Neutral	False
17.356	2.946	Control	1.0	n/a	Yes	2.946	n/a	n/a	GoodResponse	0	0.0	n/a	0	0	ISIslide	Neutral	False
20.315	0.25	Lose2	1.0	0.0	Yes	2.785	0.015	n/a	GoodResponse	0	n/a	n/a	0	1	Cue	AvoidedLoss	True
20.566	4.0	Lose2	1.0	0.0	Yes	2.785	0.001	n/a	GoodResponse	0	n/a	n/a	0	1	Fixation	AvoidedLoss	True
24.561	0.39	Lose2	1.0	0.004	Yes	2.785	-0.004	4.0	GoodResponse	0	0.154	23.715	0	1	Target	AvoidedLoss	True
24.715	0.3	Lose2	1.0	0.004	Yes	2.785	-0.004	4.0	GoodResponse	0	0.154	n/a	0	1	ButtonPress	AvoidedLoss	True
24.962	0.31	Lose2	1.0	n/a	Yes	2.785	n/a	n/a	GoodResponse	0	n/a	n/a	0	1	Blank	AvoidedLoss	True
25.263	1.45	Lose2	1.0	n/a	Yes	2.785	n/a	5	GoodResponse	0	0.028	24.291	0	1	Feedback	AvoidedLoss	True
26.718	2.785	Lose2	1.0	n/a	Yes	2.785	n/a	n/a	GoodResponse	0	0.0	n/a	0	1	ISIslide	AvoidedLoss	True
29.526	0.25	Control	1.0	0.0	Yes	2.574	0.026	n/a	GoodResponse	0	n/a	n/a	0	2	Cue	Neutral	False
29.777	4.1	Control	1.0	0.0	Yes	2.574	0.001	4.0	GoodResponse	0	2.904	31.681	0	2	Fixation	Neutral	False
32.681	0.3	Control	1.0	0.0	Yes	2.574	0.001	4.0	GoodResponse	0	2.904	n/a	0	2	ButtonPress	Neutral	False
33.872	0.38	Control	1.0	0.004	Yes	2.574	-0.004	4.0	GoodResponse	0	0.208	33.08	0	2	Target	Neutral	False
34.08	0.3	Control	1.0	0.004	Yes	2.574	-0.004	4.0	GoodResponse	0	0.208	n/a	0	2	ButtonPress	Neutral	False
34.257	0.32	Control	1.0	n/a	Yes	2.574	n/a	n/a	GoodResponse	0	n/a	n/a	0	2	Blank	Neutral	False
34.575	1.45	Control	1.0	n/a	Yes	2.574	n/a	5	GoodResponse	0	0.033	33.608	0	2	Feedback	Neutral	False
36.029	2.574	Control	1.0	n/a	Yes	2.574	n/a	n/a	GoodResponse	0	0.0	n/a	0	2	ISIslide	Neutral	False
38.62	0.25	Win2	1.0	0.0	Yes	2.83	0.02	n/a	GoodResponse	1	n/a	n/a	1	3	Cue	Win	False
38.871	3.95	Win2	1.0	0.0	Yes	2.83	0.001	4.0	GoodResponse	1	3.67	41.541	1	3	Fixation	Win	False
42.541	0.3	Win2	1.0	0.0	Yes	2.83	0.001	4.0	GoodResponse	1	3.67	n/a	1	3	ButtonPress	Win	False
42.816	0.37	Win2	1.0	0.004	Yes	2.83	-0.004	4.0	GoodResponse	1	0.313	42.129	1	3	Target	Win	False
43.129	0.3	Win2	1.0	0.004	Yes	2.83	-0.004	4.0	GoodResponse	1	0.313	n/a	1	3	ButtonPress	Win	False
43.2	0.33	Win2	1.0	n/a	Yes	2.83	n/a	n/a	GoodResponse	1	n/a	n/a	1	3	Blank	Win	False
43.518	1.45	Win2	1.0	n/a	Yes	2.83	n/a	5	GoodResponse	1	0.017	42.535	1	3	Feedback	Win	False
44.972	2.83	Win2	1.0	n/a	Yes	2.83	n/a	n/a	GoodResponse	1	0.0	n/a	1	3	ISIslide	Win	False
47.831	0.25	Win2	0.8	0.0	No	3.269	0.031	n/a	NoResponse	0	n/a	n/a	1	4	Cue	MissedWin	True
48.082	4.0	Win2	0.8	0.0	No	3.269	0.001	4.0	NoResponse	0	3.95	51.032	1	4	Fixation	MissedWin	True
52.032	0.3	Win2	0.8	0.0	No	3.269	0.001	4.0	NoResponse	0	3.95	n/a	1	4	ButtonPress	MissedWin	True
52.077	0.36	Win2	0.8	0.004	No	3.269	-0.004	n/a	NoResponse	0	n/a	n/a	1	4	Target	MissedWin	True
52.445	0.34	Win2	0.8	n/a	No	3.269	n/a	n/a	NoResponse	0	n/a	n/a	1	4	Blank	MissedWin	True
52.779	1.45	Win2	0.8	n/a	No	3.269	n/a	5	NoResponse	0	0.025	51.804	1	4	Feedback	MissedWin	True
54.233	3.269	Win2	0.8	n/a	No	3.269	n/a	n/a	NoResponse	0	0.0	n/a	1	4	ISIslide	MissedWin	True
57.527	0.25	Win2	0.8332999999999999	0.0	Yes	2.773	0.027	n/a	GoodResponse	1	n/a	n/a	2	5	Cue	Win	True
57.777	4.0	Win2	0.8332999999999999	0.0	Yes	2.773	0.0	n/a	GoodResponse	1	n/a	n/a	2	5	Fixation	Win	True
61.773	0.35	Win2	0.8332999999999999	0.004	Yes	2.773	-0.004	4.0	GoodResponse	1	0.267	61.04	2	5	Target	Win	True
62.04	0.3	Win2	0.8332999999999999	0.004	Yes	2.773	-0.004	4.0	GoodResponse	1	0.267	n/a	2	5	ButtonPress	Win	True
62.124	0.35	Win2	0.8332999999999999	n/a	Yes	2.773	n/a	n/a	GoodResponse	1	n/a	n/a	2	5	Blank	Win	True
62.475	1.45	Win2	0.8332999999999999	n/a	Yes	2.773	n/a	5	GoodResponse	1	0.036	61.511	2	5	Feedback	Win	True
63.929	2.773	Win2	0.8332999999999999	n/a	Yes	2.773	n/a	n/a	GoodResponse	1	0.0	n/a	2	5	ISIslide	Win	True
66.721	0.25	Lose2	0.8571	0.0	Yes	2.729	0.021	n/a	GoodResponse	0	n/a	n/a	2	6	Cue	AvoidedLoss	True
66.971	3.95	Lose2	0.8571	0.001	Yes	2.729	0.0	n/a	GoodResponse	0	n/a	n/a	2	6	Fixation	AvoidedLoss	True
70.917	0.34	Lose2	0.8571	0.004	Yes	2.729	-0.004	4.0	GoodResponse	0	0.178	70.095	2	6	Target	AvoidedLoss	True
71.095	0.3	Lose2	0.8571	0.004	Yes	2.729	-0.004	4.0	GoodResponse	0	0.178	n/a	2	6	ButtonPress	AvoidedLoss	True
71.268	0.36	Lose2	0.8571	n/a	Yes	2.729	n/a	n/a	GoodResponse	0	n/a	n/a	2	6	Blank	AvoidedLoss	True
71.619	1.45	Lose2	0.8571	n/a	Yes	2.729	n/a	5	GoodResponse	0	0.013	70.632	2	6	Feedback	AvoidedLoss	True
73.073	2.729	Lose2	0.8571	n/a	Yes	2.729	n/a	n/a	GoodResponse	0	0.0	n/a	2	6	ISIslide	AvoidedLoss	True
75.815	0.25	Lose2	0.875	0.0	Yes	4.035	0.015	n/a	GoodResponse	0	n/a	n/a	2	7	Cue	AvoidedLoss	True
76.065	4.05	Lose2	0.875	0.0	Yes	4.035	0.0	n/a	GoodResponse	0	n/a	n/a	2	7	Fixation	AvoidedLoss	True
80.111	0.33	Lose2	0.875	0.004	Yes	4.035	-0.004	4.0	GoodResponse	0	0.192	79.303	2	7	Target	AvoidedLoss	True
80.303	0.3	Lose2	0.875	0.004	Yes	4.035	-0.004	4.0	GoodResponse	0	0.192	n/a	2	7	ButtonPress	AvoidedLoss	True
80.445	0.37	Lose2	0.875	n/a	Yes	4.035	n/a	n/a	GoodResponse	0	n/a	n/a	2	7	Blank	AvoidedLoss	True
80.813	1.45	Lose2	0.875	n/a	Yes	4.035	n/a	5	GoodResponse	0	0.039	79.852	2	7	Feedback	AvoidedLoss	True
82.267	4.035	Lose2	0.875	n/a	Yes	4.035	n/a	n/a	GoodResponse	0	0.0	n/a	2	7	ISIslide	AvoidedLoss	True
86.329	0.25	Lose2	0.8889	0.001	Yes	3.021	0.029	n/a	GoodResponse	0	n/a	n/a	2	8	Cue	AvoidedLoss	True
86.58	3.95	Lose2	0.8889	0.0	Yes	3.021	0.001	n/a	GoodResponse	0	n/a	n/a	2	8	Fixation	AvoidedLoss	True
90.525	0.32	Lose2	0.8889	0.004	Yes	3.021	-0.004	4.0	GoodResponse	0	0.246	89.771	2	8	Target	AvoidedLoss	True
90.771	0.3	Lose2	0.8889	0.004	Yes	3.021	-0.004	4.0	GoodResponse	0	0.246	n/a	2	8	ButtonPress	AvoidedLoss	True
90.86	0.38	Lose2	0.8889	n/a	Yes	3.021	n/a	n/a	GoodResponse	0	n/a	n/a	2	8	Blank	AvoidedLoss	True
91.227	1.45	Lose2	0.8889	n/a	Yes	3.021	n/a	5	GoodResponse	0	0.015	90.242	2	8	Feedback	AvoidedLoss	True
92.682	3.021	Lose2	0.8889	n/a	Yes	3.021	n/a	n/a	GoodResponse	0	0.0	n/a	2	8	ISIslide	AvoidedLoss	True
95.724	0.25	Lose2	0.9	0.0	Yes	3.126	0.024	n/a	GoodResponse	0	n/a	n/a	2	9	Cue	AvoidedLoss	True
95.975	3.95	Lose2	0.9	0.0	Yes	3.126	0.001	n/a	GoodResponse	0	n/a	n/a	2	9	Fixation	AvoidedLoss	True
99.92	0.31	Lose2	0.9	0.004	Yes	3.126	-0.004	4.0	GoodResponse	0	0.221	99.141	2	9	Target	AvoidedLoss	True
100.141	0.3	Lose2	0.9	0.004	Yes	3.126	-0.004	4.0	GoodResponse	0	0.221	n/a	2	9	ButtonPress	AvoidedLoss	True
100.238	0.39	Lose2	0.9	n/a	Yes	3.126	n/a	n/a	GoodResponse	0	n/a	n/a	2	9	Blank	AvoidedLoss	True
100.622	1.45	Lose2	0.9	n/a	Yes	3.126	n/a	5	GoodResponse	0	0.035	99.657	2	9	Feedback	AvoidedLoss	True
102.077	3.126	Lose2	0.9	n/a	Yes	3.126	n/a	n/a	GoodResponse	0	0.0	n/a	2	9	ISIslide	AvoidedLoss	True
105.219	0.25	Control	0.8181999999999999	0.0	No	3.281	0.019	n/a	NoResponse	0	n/a	n/a	2	10	Cue	Neutral	True
105.47	4.0	Control	0.8181999999999999	0.0	No	3.281	0.001	n/a	NoResponse	0	n/a	n/a	2	10	Fixation	Neutral	True
109.465	0.3	Control	0.8181999999999999	0.004	No	3.281	-0.004	4.0	NoResponse	0	0.352	108.817	2	10	Target	Neutral	True
109.766	0.4	Control	0.8181999999999999	n/a	No	3.281	n/a	n/a	NoResponse	0	n/a	n/a	2	10	Blank	Neutral	True
109.817	0.3	Control	0.8181999999999999	0.004	No	3.281	-0.004	4.0	NoResponse	0	0.352	n/a	2	10	ButtonPress	Neutral	True
110.167	1.45	Control	0.8181999999999999	n/a	No	3.281	n/a	5	NoResponse	0	0.002	109.169	2	10	Feedback	Neutral	True
111.622	3.281	Control	0.8181999999999999	n/a	No	3.281	n/a	n/a	NoResponse	0	0.0	n/a	2	10	ISIslide	Neutral	True
114.915	0.25	Lose2	0.8332999999999999	0.0	Yes	2.735	0.015	n/a	GoodResponse	0	n/a	n/a	2	11	Cue	AvoidedLoss	True
115.166	4.05	Lose2	0.8332999999999999	0.0	Yes	2.735	0.001	n/a	GoodResponse	0	n/a	n/a	2	11	Fixation	AvoidedLoss	True
119.211	0.29	Lose2	0.8332999999999999	0.004	Yes	2.735	-0.004	4.0	GoodResponse	0	0.185	118.396	2	11	Target	AvoidedLoss	True
119.396	0.3	Lose2	0.8332999999999999	0.004	Yes	2.735	-0.004	4.0	GoodResponse	0	0.185	n/a	2	11	ButtonPress	AvoidedLoss	True
119.512	0.41	Lose2	0.8332999999999999	n/a	Yes	2.735	n/a	n/a	GoodResponse	0	n/a	n/a	2	11	Blank	AvoidedLoss	True
119.913	1.45	Lose2	0.8332999999999999	n/a	Yes	2.735	n/a	5	GoodResponse	0	0.012	118.925	2	11	Feedback	AvoidedLoss	True
121.368	2.735	Lose2	0.8332999999999999	n/a	Yes	2.735	n/a	n/a	GoodResponse	0	0.0	n/a	2	11	ISIslide	AvoidedLoss	True
124.126	0.25	Control	0.8462000000000001	0.0	Yes	2.974	0.026	n/a	GoodResponse	0	n/a	n/a	2	12	Cue	Neutral	True
124.377	3.9	Control	0.8462000000000001	0.0	Yes	2.974	0.001	n/a	GoodResponse	0	n/a	n/a	2	12	Fixation	Neutral	True
128.272	0.28	Control	0.8462000000000001	0.004	Yes	2.974	-0.004	4.0	GoodResponse	0	0.183	127.455	2	12	Target	Neutral	True
128.455	0.3	Control	0.8462000000000001	0.004	Yes	2.974	-0.004	4.0	GoodResponse	0	0.183	n/a	2	12	ButtonPress	Neutral	True
128.556	0.42	Control	0.8462000000000001	n/a	Yes	2.974	n/a	n/a	GoodResponse	0	n/a	n/a	2	12	Blank	Neutral	True
128.974	1.45	Control	0.8462000000000001	n/a	Yes	2.974	n/a	5	GoodResponse	0	0.024	127.998	2	12	Feedback	Neutral	True
130.428	2.974	Control	0.8462000000000001	n/a	Yes	2.974	n/a	n/a	GoodResponse	0	0.0	n/a	2	12	ISIslide	Neutral	True
133.42	0.25	Control	0.8571	0.0	Yes	2.78	0.02	n/a	GoodResponse	0	n/a	n/a	2	13	Cue	Neutral	False
133.671	4.0	Control	0.8571	0.0	Yes	2.78	0.001	4.0	GoodResponse	0	3.293	135.964	2	13	Fixation	Neutral	False
136.964	0.3	Control	0.8571	0.0	Yes	2.78	0.001	4.0	GoodResponse	0	3.293	n/a	2	13	ButtonPress	Neutral	False
137.666	0.27	Control	0.8571	0.004	Yes	2.78	-0.004	4.0	GoodResponse	0	0.142	136.808	2	13	Target	Neutral	False
137.808	0.3	Control	0.8571	0.004	Yes	2.78	-0.004	4.0	GoodResponse	0	0.142	n/a	2	13	ButtonPress	Neutral	False
137.951	0.43	Control	0.8571	n/a	Yes	2.78	n/a	n/a	GoodResponse	0	n/a	n/a	2	13	Blank	Neutral	False
138.369	1.45	Control	0.8571	n/a	Yes	2.78	n/a	5	GoodResponse	0	0.043	137.412	2	13	Feedback	Neutral	False
139.823	2.78	Control	0.8571	n/a	Yes	2.78	n/a	n/a	GoodResponse	0	0.0	n/a	2	13	ISIslide	Neutral	False
142.631	0.25	Win2	0.8	0.0	No	2.669	0.031	n/a	NoResponse	0	n/a	n/a	2	14	Cue	MissedWin	False
142.882	4.1	Win2	0.8	0.0	No	2.669	0.001	4.0	NoResponse	0	0.181	142.063	2	14	Fixation	MissedWin	False
143.063	0.3	Win2	0.8	0.0	No	2.669	0.001	4.0	NoResponse	0	0.181	n/a	2	14	ButtonPress	MissedWin	False
146.978	0.26	Win2	0.8	0.003	No	2.669	-0.003	4.0	NoResponse	0	0.524	146.502	2	14	Target	MissedWin	False
147.245	0.44	Win2	0.8	n/a	No	2.669	n/a	n/a	NoResponse	0	n/a	n/a	2	14	Blank	MissedWin	False
147.502	0.3	Win2	0.8	0.003	No	2.669	-0.003	4.0	NoResponse	0	0.524	n/a	2	14	ButtonPress	MissedWin	False
147.68	1.45	Win2	0.8	n/a	No	2.669	n/a	5	NoResponse	0	0.001	146.681	2	14	Feedback	MissedWin	False
149.134	2.669	Win2	0.8	n/a	No	2.669	n/a	n/a	NoResponse	0	0.0	n/a	2	14	ISIslide	MissedWin	False
151.825	0.25	Control	0.8125	0.001	Yes	2.975	0.025	n/a	GoodResponse	0	n/a	n/a	2	15	Cue	Neutral	True
152.076	4.0	Control	0.8125	0.0	Yes	2.975	0.001	n/a	GoodResponse	0	n/a	n/a	2	15	Fixation	Neutral	True
156.072	0.25	Control	0.8125	0.003	Yes	2.975	-0.003	4.0	GoodResponse	0	0.196	155.268	2	15	Target	Neutral	True
156.268	0.3	Control	0.8125	0.003	Yes	2.975	-0.003	4.0	GoodResponse	0	0.196	n/a	2	15	ButtonPress	Neutral	True
156.322	0.45	Control	0.8125	n/a	Yes	2.975	n/a	n/a	GoodResponse	0	n/a	n/a	2	15	Blank	Neutral	True
156.774	1.45	Control	0.8125	n/a	Yes	2.975	n/a	5	GoodResponse	0	0.029	155.803	2	15	Feedback	Neutral	True
158.228	2.975	Control	0.8125	n/a	Yes	2.975	n/a	n/a	GoodResponse	0	0.0	n/a	2	15	ISIslide	Neutral	True
161.22	0.25	Win2	0.8234999999999999	0.0	Yes	2.88	0.02	n/a	GoodResponse	1	n/a	n/a	3	16	Cue	Win	True
161.471	4.0	Win2	0.8234999999999999	0.0	Yes	2.88	0.001	n/a	GoodResponse	1	n/a	n/a	3	16	Fixation	Win	True
165.466	0.24	Win2	0.8234999999999999	0.004	Yes	2.88	-0.004	4.0	GoodResponse	1	0.225	164.691	3	16	Target	Win	True
165.691	0.3	Win2	0.8234999999999999	0.004	Yes	2.88	-0.004	4.0	GoodResponse	1	0.225	n/a	3	16	ButtonPress	Win	True
165.717	0.46	Win2	0.8234999999999999	n/a	Yes	2.88	n/a	n/a	GoodResponse	1	n/a	n/a	3	16	Blank	Win	True
166.168	1.45	Win2	0.8234999999999999	n/a	Yes	2.88	n/a	5	GoodResponse	1	0.0	165.168	3	16	Feedback	Win	True
167.623	2.88	Win2	0.8234999999999999	n/a	Yes	2.88	n/a	n/a	GoodResponse	1	0.0	n/a	3	16	ISIslide	Win	True
170.531	0.25	Lose2	0.7778	0.001	No	2.719	0.031	n/a	NoResponse	-1	n/a	n/a	2	17	Cue	Loss	True
170.782	3.95	Lose2	0.7778	0.0	No	2.719	0.001	4.0	NoResponse	-1	3.277	173.059	2	17	Fixation	Loss	True
174.059	0.3	Lose2	0.7778	0.0	No	2.719	0.001	4.0	NoResponse	-1	3.277	n/a	2	17	ButtonPress	Loss	True
174.727	0.23	Lose2	0.7778	0.004	No	2.719	-0.004	n/a	NoResponse	-1	n/a	n/a	2	17	Target	Loss	True
174.961	0.47	Lose2	0.7778	n/a	No	2.719	n/a	n/a	NoResponse	-1	n/a	n/a	2	17	Blank	Loss	True
175.429	1.45	Lose2	0.7778	n/a	No	2.719	n/a	5	NoResponse	-1	0.007	174.436	2	17	Feedback	Loss	True
176.884	2.719	Lose2	0.7778	n/a	No	2.719	n/a	n/a	NoResponse	-1	0.0	n/a	2	17	ISIslide	Loss	True
179.625	0.25	Lose2	0.7368000000000001	0.0	No	2.725	0.025	n/a	NoResponse	-1	n/a	n/a	1	18	Cue	Loss	False
179.876	4.05	Lose2	0.7368000000000001	0.0	No	2.725	0.001	n/a	NoResponse	-1	n/a	n/a	1	18	Fixation	Loss	False
183.922	0.22	Lose2	0.7368000000000001	0.003	No	2.725	-0.003	n/a	NoResponse	-1	n/a	n/a	1	18	Target	Loss	False
184.156	0.48	Lose2	0.7368000000000001	n/a	No	2.725	n/a	n/a	NoResponse	-1	n/a	n/a	1	18	Blank	Loss	False
184.624	1.45	Lose2	0.7368000000000001	n/a	No	2.725	n/a	5	NoResponse	-1	0.032	183.656	1	18	Feedback	Loss	False
186.078	2.725	Lose2	0.7368000000000001	n/a	No	2.725	n/a	n/a	NoResponse	-1	0.0	n/a	1	18	ISIslide	Loss	False
188.82	0.25	Control	0.7	0.0	No	2.93	0.02	n/a	NoResponse	0	n/a	n/a	1	19	Cue	Neutral	True
189.07	3.95	Control	0.7	0.0	No	2.93	0.0	n/a	NoResponse	0	n/a	n/a	1	19	Fixation	Neutral	True
193.015	0.21	Control	0.7	0.005	No	2.93	-0.005	4.0	NoResponse	0	0.258	192.273	1	19	Target	Neutral	True
193.233	0.49	Control	0.7	n/a	No	2.93	n/a	n/a	NoResponse	0	n/a	n/a	1	19	Blank	Neutral	True
193.273	0.3	Control	0.7	0.005	No	2.93	-0.005	4.0	NoResponse	0	0.258	n/a	1	19	ButtonPress	Neutral	True
193.718	1.45	Control	0.7	n/a	No	2.93	n/a	5	NoResponse	0	0.011	192.729	1	19	Feedback	Neutral	True
195.172	2.93	Control	0.7	n/a	No	2.93	n/a	n/a	NoResponse	0	0.0	n/a	1	19	ISIslide	Neutral	True
198.114	0.25	Control	0.6667000000000001	0.0	No	2.636	0.014	n/a	NoResponse	0	n/a	n/a	1	20	Cue	Neutral	False
198.365	4.05	Control	0.6667000000000001	0.0	No	2.636	0.001	n/a	NoResponse	0	n/a	n/a	1	20	Fixation	Neutral	False
202.41	0.2	Control	0.6667000000000001	0.004	No	2.636	-0.004	n/a	NoResponse	0	n/a	n/a	1	20	Target	Neutral	False
202.611	0.5	Control	0.6667000000000001	n/a	No	2.636	n/a	n/a	NoResponse	0	n/a	n/a	1	20	Blank	Neutral	False
203.112	1.45	Control	0.6667000000000001	n/a	No	2.636	n/a	5	NoResponse	0	0.032	202.144	1	20	Feedback	Neutral	False
204.567	2.636	Control	0.6667000000000001	n/a	No	2.636	n/a	n/a	NoResponse	0	0.0	n/a	1	20	ISIslide	Neutral	False
207.225	0.25	Control	0.6364	0.0	No	2.775	0.025	n/a	NoResponse	0	n/a	n/a	1	21	Cue	Neutral	True
207.475	4.1	Control	0.6364	0.0	No	2.775	0.0	n/a	NoResponse	0	n/a	n/a	1	21	Fixation	Neutral	True
211.571	0.19	Control	0.6364	0.004	No	2.775	-0.004	4.0	NoResponse	0	0.242	210.813	1	21	Target	Neutral	True
211.772	0.51	Control	0.6364	n/a	No	2.775	n/a	n/a	NoResponse	0	n/a	n/a	1	21	Blank	Neutral	True
211.813	0.3	Control	0.6364	0.004	No	2.775	-0.004	4.0	NoResponse	0	0.242	n/a	1	21	ButtonPress	Neutral	True
212.273	1.45	Control	0.6364	n/a	No	2.775	n/a	5	NoResponse	0	0.042	211.315	1	21	Feedback	Neutral	True
213.727	2.775	Control	0.6364	n/a	No	2.775	n/a	n/a	NoResponse	0	0.0	n/a	1	21	ISIslide	Neutral	True
216.519	0.25	Control	0.6522	0.0	Yes	2.781	0.019	n/a	GoodResponse	0	n/a	n/a	1	22	Cue	Neutral	False
216.77	4.0	Control	0.6522	0.0	Yes	2.781	0.001	4.0	GoodResponse	0	3.793	219.563	1	22	Fixation	Neutral	False
220.563	0.3	Control	0.6522	0.0	Yes	2.781	0.001	4.0	GoodResponse	0	3.793	n/a	1	22	ButtonPress	Neutral	False
220.765	0.2	Control	0.6522	0.004	Yes	2.781	-0.004	4.0	GoodResponse	0	0.17	219.935	1	22	Target	Neutral	False
220.935	0.3	Control	0.6522	0.004	Yes	2.781	-0.004	4.0	GoodResponse	0	0.17	n/a	1	22	ButtonPress	Neutral	False
220.966	0.5	Control	0.6522	n/a	Yes	2.781	n/a	n/a	GoodResponse	0	n/a	n/a	1	22	Blank	Neutral	False
221.467	1.45	Control	0.6522	n/a	Yes	2.781	n/a	5	GoodResponse	0	0.018	220.485	1	22	Feedback	Neutral	False
222.922	2.781	Control	0.6522	n/a	Yes	2.781	n/a	n/a	GoodResponse	0	0.0	n/a	1	22	ISIslide	Neutral	False
225.73	0.25	Control	0.625	0.0	No	2.77	0.03	n/a	NoResponse	0	n/a	n/a	1	23	Cue	Neutral	True
225.981	3.9	Control	0.625	0.0	No	2.77	0.001	n/a	NoResponse	0	n/a	n/a	1	23	Fixation	Neutral	True
229.876	0.21	Control	0.625	0.004	No	2.77	-0.004	4.0	NoResponse	0	0.405	229.281	1	23	Target	Neutral	True
230.093	0.49	Control	0.625	n/a	No	2.77	n/a	n/a	NoResponse	0	n/a	n/a	1	23	Blank	Neutral	True
230.281	0.3	Control	0.625	0.004	No	2.77	-0.004	4.0	NoResponse	0	0.405	n/a	1	23	ButtonPress	Neutral	True
230.578	1.45	Control	0.625	n/a	No	2.77	n/a	5	NoResponse	0	0.029	229.607	1	23	Feedback	Neutral	True
232.032	2.77	Control	0.625	n/a	No	2.77	n/a	n/a	NoResponse	0	0.0	n/a	1	23	ISIslide	Neutral	True
234.824	0.25	Win2	0.6	0.0	No	3.126	0.024	n/a	NoResponse	0	n/a	n/a	1	24	Cue	MissedWin	False
235.075	3.95	Win2	0.6	0.0	No	3.126	0.001	n/a	NoResponse	0	n/a	n/a	1	24	Fixation	MissedWin	False
239.02	0.22	Win2	0.6	0.004	No	3.126	-0.004	n/a	NoResponse	0	n/a	n/a	1	24	Target	MissedWin	False
239.254	0.48	Win2	0.6	n/a	No	3.126	n/a	n/a	NoResponse	0	n/a	n/a	1	24	Blank	MissedWin	False
239.722	1.45	Win2	0.6	n/a	No	3.126	n/a	5	NoResponse	0	0.007	238.729	1	24	Feedback	MissedWin	False
241.176	3.126	Win2	0.6	n/a	No	3.126	n/a	n/a	NoResponse	0	0.0	n/a	1	24	ISIslide	MissedWin	False
244.319	0.25	Win2	0.5769	0.0	No	3.081	0.019	n/a	NoResponse	0	n/a	n/a	1	25	Cue	MissedWin	False
244.57	4.0	Win2	0.5769	0.0	No	3.081	0.001	n/a	NoResponse	0	n/a	n/a	1	25	Fixation	MissedWin	False
248.565	0.23	Win2	0.5769	0.004	No	3.081	-0.004	n/a	NoResponse	0	n/a	n/a	1	25	Target	MissedWin	False
248.799	0.47	Win2	0.5769	n/a	No	3.081	n/a	n/a	NoResponse	0	n/a	n/a	1	25	Blank	MissedWin	False
249.267	1.45	Win2	0.5769	n/a	No	3.081	n/a	5	NoResponse	0	0.023	248.29	1	25	Feedback	MissedWin	False
250.722	3.081	Win2	0.5769	n/a	No	3.081	n/a	n/a	NoResponse	0	0.0	n/a	1	25	ISIslide	MissedWin	False
253.831	0.25	Win2	0.5556	0.0	No	2.919	0.031	n/a	NoResponse	0	n/a	n/a	1	26	Cue	MissedWin	False
254.082	3.95	Win2	0.5556	0.0	No	2.919	0.001	n/a	NoResponse	0	n/a	n/a	1	26	Fixation	MissedWin	False
258.027	0.24	Win2	0.5556	0.004	No	2.919	-0.004	n/a	NoResponse	0	n/a	n/a	1	26	Target	MissedWin	False
258.277	0.46	Win2	0.5556	n/a	No	2.919	n/a	n/a	NoResponse	0	n/a	n/a	1	26	Blank	MissedWin	False
258.729	1.45	Win2	0.5556	n/a	No	2.919	n/a	5	NoResponse	0	0.024	257.753	1	26	Feedback	MissedWin	False
260.183	2.919	Win2	0.5556	n/a	No	2.919	n/a	n/a	NoResponse	0	0.0	n/a	1	26	ISIslide	MissedWin	False
263.125	0.25	Lose2	0.5357	0.0	No	2.825	0.025	n/a	NoResponse	-1	n/a	n/a	0	27	Cue	Loss	True
263.376	4.05	Lose2	0.5357	0.0	No	2.825	0.001	n/a	NoResponse	-1	n/a	n/a	0	27	Fixation	Loss	True
267.421	0.25	Lose2	0.5357	0.004	No	2.825	-0.004	4.0	NoResponse	-1	0.442	266.863	0	27	Target	Loss	True
267.672	0.45	Lose2	0.5357	n/a	No	2.825	n/a	n/a	NoResponse	-1	n/a	n/a	0	27	Blank	Loss	True
267.863	0.3	Lose2	0.5357	0.004	No	2.825	-0.004	4.0	NoResponse	-1	0.442	n/a	0	27	ButtonPress	Loss	True
268.124	1.45	Lose2	0.5357	n/a	No	2.825	n/a	5	NoResponse	-1	0.043	267.167	0	27	Feedback	Loss	True
269.578	2.825	Lose2	0.5357	n/a	No	2.825	n/a	n/a	NoResponse	-1	0.0	n/a	0	27	ISIslide	Loss	True
272.42	0.25	Control	0.5172	0.0	No	2.83	0.02	n/a	NoResponse	0	n/a	n/a	0	28	Cue	Neutral	True
272.671	4.05	Control	0.5172	0.0	No	2.83	0.001	n/a	NoResponse	0	n/a	n/a	0	28	Fixation	Neutral	True
276.716	0.26	Control	0.5172	0.004	No	2.83	-0.004	4.0	NoResponse	0	0.276	275.992	0	28	Target	Neutral	True
276.983	0.44	Control	0.5172	n/a	No	2.83	n/a	n/a	NoResponse	0	n/a	n/a	0	28	Blank	Neutral	True
276.992	0.3	Control	0.5172	0.004	No	2.83	-0.004	4.0	NoResponse	0	0.276	n/a	0	28	ButtonPress	Neutral	True
277.418	1.45	Control	0.5172	n/a	No	2.83	n/a	5	NoResponse	0	0.017	276.435	0	28	Feedback	Neutral	True
278.872	2.83	Control	0.5172	n/a	No	2.83	n/a	n/a	NoResponse	0	0.0	n/a	0	28	ISIslide	Neutral	True
281.731	0.25	Lose2	0.5	0.0	No	2.819	0.031	n/a	NoResponse	-1	n/a	n/a	-1	29	Cue	Loss	False
281.982	3.95	Lose2	0.5	0.0	No	2.819	0.001	n/a	NoResponse	-1	n/a	n/a	-1	29	Fixation	Loss	False
285.927	0.27	Lose2	0.5	0.004	No	2.819	-0.004	n/a	NoResponse	-1	n/a	n/a	-1	29	Target	Loss	False
286.211	0.43	Lose2	0.5	n/a	No	2.819	n/a	n/a	NoResponse	-1	n/a	n/a	-1	29	Blank	Loss	False
286.629	1.45	Lose2	0.5	n/a	No	2.819	n/a	5	NoResponse	-1	0.026	285.655	-1	29	Feedback	Loss	False
288.083	2.819	Lose2	0.5	n/a	No	2.819	n/a	n/a	NoResponse	-1	0.0	n/a	-1	29	ISIslide	Loss	False
290.925	0.25	Win2	0.5161	0.0	Yes	2.775	0.025	n/a	GoodResponse	1	n/a	n/a	0	30	Cue	Win	False
291.176	3.9	Win2	0.5161	0.0	Yes	2.775	0.001	4.0	GoodResponse	1	0.494	290.67	0	30	Fixation	Win	False
291.67	0.3	Win2	0.5161	0.0	Yes	2.775	0.001	4.0	GoodResponse	1	0.494	n/a	0	30	ButtonPress	Win	False
295.071	0.28	Win2	0.5161	0.004	Yes	2.775	-0.004	4.0	GoodResponse	1	0.171	294.242	0	30	Target	Win	False
295.242	0.3	Win2	0.5161	0.004	Yes	2.775	-0.004	4.0	GoodResponse	1	0.171	n/a	0	30	ButtonPress	Win	False
295.355	0.42	Win2	0.5161	n/a	Yes	2.775	n/a	n/a	GoodResponse	1	n/a	n/a	0	30	Blank	Win	False
295.773	1.45	Win2	0.5161	n/a	Yes	2.775	n/a	5	GoodResponse	1	0.007	294.78	0	30	Feedback	Win	False
297.227	2.775	Win2	0.5161	n/a	Yes	2.775	n/a	n/a	GoodResponse	1	0.0	n/a	0	30	ISIslide	Win	False
300.019	0.25	Lose2	0.5	0.0	No	2.831	0.019	n/a	NoResponse	-1	n/a	n/a	-1	31	Cue	Loss	True
300.27	4.05	Lose2	0.5	0.0	No	2.831	0.001	4.0	NoResponse	-1	3.194	302.464	-1	31	Fixation	Loss	True
303.464	0.3	Lose2	0.5	0.0	No	2.831	0.001	4.0	NoResponse	-1	3.194	n/a	-1	31	ButtonPress	Loss	True
304.315	0.29	Lose2	0.5	0.004	No	2.831	-0.004	n/a	NoResponse	-1	n/a	n/a	-1	31	Target	Loss	True
304.616	0.41	Lose2	0.5	n/a	No	2.831	n/a	n/a	NoResponse	-1	n/a	n/a	-1	31	Blank	Loss	True
305.017	1.45	Lose2	0.5	n/a	No	2.831	n/a	5	NoResponse	-1	0.029	304.046	-1	31	Feedback	Loss	True
306.472	2.831	Lose2	0.5	n/a	No	2.831	n/a	n/a	NoResponse	-1	0.0	n/a	-1	31	ISIslide	Loss	True
309.33	0.25	Lose2	0.5152	0.0	Yes	2.62	0.03	n/a	GoodResponse	0	n/a	n/a	-1	32	Cue	AvoidedLoss	True
309.581	4.15	Lose2	0.5152	0.0	Yes	2.62	0.001	n/a	GoodResponse	0	n/a	n/a	-1	32	Fixation	AvoidedLoss	True
313.727	0.3	Lose2	0.5152	0.003	Yes	2.62	-0.003	4.0	GoodResponse	0	0.172	312.899	-1	32	Target	AvoidedLoss	True
313.899	0.3	Lose2	0.5152	0.003	Yes	2.62	-0.003	4.0	GoodResponse	0	0.172	n/a	-1	32	ButtonPress	AvoidedLoss	True
314.028	0.4	Lose2	0.5152	n/a	Yes	2.62	n/a	n/a	GoodResponse	0	n/a	n/a	-1	32	Blank	AvoidedLoss	True
314.429	1.45	Lose2	0.5152	n/a	Yes	2.62	n/a	5	GoodResponse	0	0.031	313.46	-1	32	Feedback	AvoidedLoss	True
315.883	2.62	Lose2	0.5152	n/a	Yes	2.62	n/a	n/a	GoodResponse	0	0.0	n/a	-1	32	ISIslide	AvoidedLoss	True
318.524	0.25	Win2	0.5294	0.001	Yes	2.676	0.024	n/a	GoodResponse	1	n/a	n/a	0	33	Cue	Win	True
318.775	4.0	Win2	0.5294	0.0	Yes	2.676	0.001	n/a	GoodResponse	1	n/a	n/a	0	33	Fixation	Win	True
322.771	0.31	Win2	0.5294	0.003	Yes	2.676	-0.003	4.0	GoodResponse	1	0.163	321.934	0	33	Target	Win	True
322.934	0.3	Win2	0.5294	0.003	Yes	2.676	-0.003	4.0	GoodResponse	1	0.163	n/a	0	33	ButtonPress	Win	True
323.088	0.39	Win2	0.5294	n/a	Yes	2.676	n/a	n/a	GoodResponse	1	n/a	n/a	0	33	Blank	Win	True
323.473	1.45	Win2	0.5294	n/a	Yes	2.676	n/a	5	GoodResponse	1	0.011	322.484	0	33	Feedback	Win	True
324.927	2.676	Win2	0.5294	n/a	Yes	2.676	n/a	n/a	GoodResponse	1	0.0	n/a	0	33	ISIslide	Win	True
327.618	0.25	Lose2	0.5428999999999999	0.0	Yes	2.632	0.018	n/a	GoodResponse	0	n/a	n/a	0	34	Cue	AvoidedLoss	True
327.869	4.05	Lose2	0.5428999999999999	0.0	Yes	2.632	0.001	n/a	GoodResponse	0	n/a	n/a	0	34	Fixation	AvoidedLoss	True
331.915	0.32	Lose2	0.5428999999999999	0.003	Yes	2.632	-0.003	4.0	GoodResponse	0	0.179	331.094	0	34	Target	AvoidedLoss	True
332.094	0.3	Lose2	0.5428999999999999	0.003	Yes	2.632	-0.003	4.0	GoodResponse	0	0.179	n/a	0	34	ButtonPress	AvoidedLoss	True
332.249	0.38	Lose2	0.5428999999999999	n/a	Yes	2.632	n/a	n/a	GoodResponse	0	n/a	n/a	0	34	Blank	AvoidedLoss	True
332.617	1.45	Lose2	0.5428999999999999	n/a	Yes	2.632	n/a	5	GoodResponse	0	0.038	331.655	0	34	Feedback	AvoidedLoss	True
334.071	2.632	Lose2	0.5428999999999999	n/a	Yes	2.632	n/a	n/a	GoodResponse	0	0.0	n/a	0	34	ISIslide	AvoidedLoss	True
336.729	0.25	Lose2	0.5556	0.0	Yes	2.671	0.029	n/a	GoodResponse	0	n/a	n/a	0	35	Cue	AvoidedLoss	True
336.98	4.0	Lose2	0.5556	0.0	Yes	2.671	0.001	n/a	GoodResponse	0	n/a	n/a	0	35	Fixation	AvoidedLoss	True
340.975	0.33	Lose2	0.5556	0.004	Yes	2.671	-0.004	4.0	GoodResponse	0	0.183	340.158	0	35	Target	AvoidedLoss	True
341.158	0.3	Lose2	0.5556	0.004	Yes	2.671	-0.004	4.0	GoodResponse	0	0.183	n/a	0	35	ButtonPress	AvoidedLoss	True
341.309	0.37	Lose2	0.5556	n/a	Yes	2.671	n/a	n/a	GoodResponse	0	n/a	n/a	0	35	Blank	AvoidedLoss	True
341.677	1.45	Lose2	0.5556	n/a	Yes	2.671	n/a	5	GoodResponse	0	0.002	340.679	0	35	Feedback	AvoidedLoss	True
343.131	2.671	Lose2	0.5556	n/a	Yes	2.671	n/a	n/a	GoodResponse	0	0.0	n/a	0	35	ISIslide	AvoidedLoss	True
345.823	0.25	Control	0.5676	0.0	Yes	2.677	0.023	n/a	GoodResponse	0	n/a	n/a	0	36	Cue	Neutral	True
346.074	4.0	Control	0.5676	0.0	Yes	2.677	0.001	n/a	GoodResponse	0	n/a	n/a	0	36	Fixation	Neutral	True
350.069	0.34	Control	0.5676	0.004	Yes	2.677	-0.004	4.0	GoodResponse	0	0.173	349.242	0	36	Target	Neutral	True
350.242	0.3	Control	0.5676	0.004	Yes	2.677	-0.004	4.0	GoodResponse	0	0.173	n/a	0	36	ButtonPress	Neutral	True
350.42	0.36	Control	0.5676	n/a	Yes	2.677	n/a	n/a	GoodResponse	0	n/a	n/a	0	36	Blank	Neutral	True
350.771	1.45	Control	0.5676	n/a	Yes	2.677	n/a	5	GoodResponse	0	0.03	349.801	0	36	Feedback	Neutral	True
352.225	2.677	Control	0.5676	n/a	Yes	2.677	n/a	n/a	GoodResponse	0	0.0	n/a	0	36	ISIslide	Neutral	True
354.917	0.25	Win2	0.5789	0.0	Yes	2.883	0.017	n/a	GoodResponse	1	n/a	n/a	1	37	Cue	Win	False
355.167	4.0	Win2	0.5789	0.001	Yes	2.883	0.0	4.0	GoodResponse	1	0.12	354.287	1	37	Fixation	Win	False
355.287	0.3	Win2	0.5789	0.001	Yes	2.883	0.0	4.0	GoodResponse	1	0.12	n/a	1	37	ButtonPress	Win	False
359.163	0.35	Win2	0.5789	0.004	Yes	2.883	-0.004	4.0	GoodResponse	1	0.213	358.376	1	37	Target	Win	False
359.376	0.3	Win2	0.5789	0.004	Yes	2.883	-0.004	4.0	GoodResponse	1	0.213	n/a	1	37	ButtonPress	Win	False
359.514	0.35	Win2	0.5789	n/a	Yes	2.883	n/a	n/a	GoodResponse	1	n/a	n/a	1	37	Blank	Win	False
359.865	1.45	Win2	0.5789	n/a	Yes	2.883	n/a	5	GoodResponse	1	0.009	358.874	1	37	Feedback	Win	False
361.319	2.883	Win2	0.5789	n/a	Yes	2.883	n/a	n/a	GoodResponse	1	0.0	n/a	1	37	ISIslide	Win	False
364.228	0.25	Lose2	0.5897	0.0	Yes	2.822	0.028	n/a	GoodResponse	0	n/a	n/a	1	38	Cue	AvoidedLoss	True
364.479	3.95	Lose2	0.5897	0.0	Yes	2.822	0.001	n/a	GoodResponse	0	n/a	n/a	1	38	Fixation	AvoidedLoss	True
368.424	0.36	Lose2	0.5897	0.004	Yes	2.822	-0.004	4.0	GoodResponse	0	0.178	367.602	1	38	Target	AvoidedLoss	True
368.602	0.3	Lose2	0.5897	0.004	Yes	2.822	-0.004	4.0	GoodResponse	0	0.178	n/a	1	38	ButtonPress	AvoidedLoss	True
368.792	0.34	Lose2	0.5897	n/a	Yes	2.822	n/a	n/a	GoodResponse	0	n/a	n/a	1	38	Blank	AvoidedLoss	True
369.126	1.45	Lose2	0.5897	n/a	Yes	2.822	n/a	5	GoodResponse	0	0.016	368.142	1	38	Feedback	AvoidedLoss	True
370.58	2.822	Lose2	0.5897	n/a	Yes	2.822	n/a	n/a	GoodResponse	0	0.0	n/a	1	38	ISIslide	AvoidedLoss	True
373.422	0.25	Win2	0.575	0.0	No	2.978	0.022	n/a	NoResponse	0	n/a	n/a	1	39	Cue	MissedWin	True
373.673	4.1	Win2	0.575	0.0	No	2.978	0.001	n/a	NoResponse	0	n/a	n/a	1	39	Fixation	MissedWin	True
377.768	0.37	Win2	0.575	0.004	No	2.978	-0.004	4.0	NoResponse	0	0.391	377.159	1	39	Target	MissedWin	True
378.153	0.33	Win2	0.575	n/a	No	2.978	n/a	n/a	NoResponse	0	n/a	n/a	1	39	Blank	MissedWin	True
378.159	0.3	Win2	0.575	0.004	No	2.978	-0.004	4.0	NoResponse	0	0.391	n/a	1	39	ButtonPress	MissedWin	True
378.471	1.45	Win2	0.575	n/a	No	2.978	n/a	5	NoResponse	0	0.037	377.508	1	39	Feedback	MissedWin	True
379.925	2.978	Win2	0.575	n/a	No	2.978	n/a	n/a	NoResponse	0	0.0	n/a	1	39	ISIslide	MissedWin	True
382.917	0.25	Win2	0.5854	0.0	Yes	2.733	0.017	n/a	GoodResponse	1	n/a	n/a	2	40	Cue	Win	True
383.168	3.95	Win2	0.5854	0.0	Yes	2.733	0.001	n/a	GoodResponse	1	n/a	n/a	2	40	Fixation	Win	True
387.113	0.38	Win2	0.5854	0.004	Yes	2.733	-0.004	4.0	GoodResponse	1	0.205	386.318	2	40	Target	Win	True
387.318	0.3	Win2	0.5854	0.004	Yes	2.733	-0.004	4.0	GoodResponse	1	0.205	n/a	2	40	ButtonPress	Win	True
387.498	0.32	Win2	0.5854	n/a	Yes	2.733	n/a	n/a	GoodResponse	1	n/a	n/a	2	40	Blank	Win	True
387.815	1.45	Win2	0.5854	n/a	Yes	2.733	n/a	5	GoodResponse	1	0.01	386.825	2	40	Feedback	Win	True
389.27	2.733	Win2	0.5854	n/a	Yes	2.733	n/a	n/a	GoodResponse	1	0.0	n/a	2	40	ISIslide	Win	True
392.028	0.25	Win2	0.5714	0.0	No	2.772	0.028	n/a	NoResponse	0	n/a	n/a	2	41	Cue	MissedWin	True
392.279	3.9	Win2	0.5714	0.0	No	2.772	0.001	n/a	NoResponse	0	n/a	n/a	2	41	Fixation	MissedWin	True
396.174	0.39	Win2	0.5714	0.004	No	2.772	-0.004	4.0	NoResponse	0	0.441	395.615	2	41	Target	MissedWin	True
396.575	0.31	Win2	0.5714	n/a	No	2.772	n/a	n/a	NoResponse	0	n/a	n/a	2	41	Blank	MissedWin	True
396.615	0.3	Win2	0.5714	0.004	No	2.772	-0.004	4.0	NoResponse	0	0.441	n/a	2	41	ButtonPress	MissedWin	True
396.876	1.45	Win2	0.5714	n/a	No	2.772	n/a	5	NoResponse	0	0.022	395.898	2	41	Feedback	MissedWin	True
398.33	2.772	Win2	0.5714	n/a	No	2.772	n/a	n/a	NoResponse	0	0.0	n/a	2	41	ISIslide	MissedWin	True
401.122	0.25	Control	0.5814	0.0	Yes	2.928	0.022	n/a	GoodResponse	0	n/a	n/a	2	42	Cue	Neutral	True
401.372	3.85	Control	0.5814	0.001	Yes	2.928	0.0	n/a	GoodResponse	0	n/a	n/a	2	42	Fixation	Neutral	True
405.234	0.4	Control	0.5814	0.0	Yes	2.928	0.012	4.0	GoodResponse	0	0.17	404.404	2	42	Target	Neutral	True
405.404	0.3	Control	0.5814	0.0	Yes	2.928	0.012	4.0	GoodResponse	0	0.17	n/a	2	42	ButtonPress	Neutral	True
405.619	0.3	Control	0.5814	n/a	Yes	2.928	n/a	n/a	GoodResponse	0	n/a	n/a	2	42	Blank	Neutral	True
405.919	1.45	Control	0.5814	n/a	Yes	2.928	n/a	5	GoodResponse	0	0.005	404.924	2	42	Feedback	Neutral	True
407.374	2.928	Control	0.5814	n/a	Yes	2.928	n/a	n/a	GoodResponse	0	0.0	n/a	2	42	ISIslide	Neutral	True
410.316	0.25	Win2	0.5909	0.0	Yes	3.184	0.016	n/a	GoodResponse	1	n/a	n/a	3	43	Cue	Win	True
410.567	4.0	Win2	0.5909	0.0	Yes	3.184	0.001	n/a	GoodResponse	1	n/a	n/a	3	43	Fixation	Win	True
414.562	0.41	Win2	0.5909	0.004	Yes	3.184	-0.004	4.0	GoodResponse	1	0.171	413.733	3	43	Target	Win	True
414.733	0.3	Win2	0.5909	0.004	Yes	3.184	-0.004	4.0	GoodResponse	1	0.171	n/a	3	43	ButtonPress	Win	True
414.98	0.29	Win2	0.5909	n/a	Yes	3.184	n/a	n/a	GoodResponse	1	n/a	n/a	3	43	Blank	Win	True
415.264	1.45	Win2	0.5909	n/a	Yes	3.184	n/a	5	GoodResponse	1	0.025	414.289	3	43	Feedback	Win	True
416.718	3.184	Win2	0.5909	n/a	Yes	3.184	n/a	n/a	GoodResponse	1	0.0	n/a	3	43	ISIslide	Win	True
419.928	0.25	Win2	0.6	0.0	Yes	2.972	0.028	n/a	GoodResponse	1	n/a	n/a	4	44	Cue	Win	True
420.179	4.0	Win2	0.6	0.0	Yes	2.972	0.001	n/a	GoodResponse	1	n/a	n/a	4	44	Fixation	Win	True
424.174	0.42	Win2	0.6	0.004	Yes	2.972	-0.004	4.0	GoodResponse	1	0.198	423.372	4	44	Target	Win	True
424.372	0.3	Win2	0.6	0.004	Yes	2.972	-0.004	4.0	GoodResponse	1	0.198	n/a	4	44	ButtonPress	Win	True
424.609	0.28	Win2	0.6	n/a	Yes	2.972	n/a	n/a	GoodResponse	1	n/a	n/a	4	44	Blank	Win	True
424.876	1.45	Win2	0.6	n/a	Yes	2.972	n/a	5	GoodResponse	1	0.022	423.898	4	44	Feedback	Win	True
426.33	2.972	Win2	0.6	n/a	Yes	2.972	n/a	n/a	GoodResponse	1	0.0	n/a	4	44	ISIslide	Win	True
429.323	0.25	Control	0.6087	0.0	Yes	2.877	0.023	n/a	GoodResponse	0	n/a	n/a	4	45	Cue	Neutral	True
429.574	4.1	Control	0.6087	0.0	Yes	2.877	0.001	n/a	GoodResponse	0	n/a	n/a	4	45	Fixation	Neutral	True
433.669	0.43	Control	0.6087	0.004	Yes	2.877	-0.004	4.0	GoodResponse	0	0.137	432.806	4	45	Target	Neutral	True
433.806	0.3	Control	0.6087	0.004	Yes	2.877	-0.004	4.0	GoodResponse	0	0.137	n/a	4	45	ButtonPress	Neutral	True
434.104	0.27	Control	0.6087	n/a	Yes	2.877	n/a	n/a	GoodResponse	0	n/a	n/a	4	45	Blank	Neutral	True
434.371	1.45	Control	0.6087	n/a	Yes	2.877	n/a	5	GoodResponse	0	0.039	433.41	4	45	Feedback	Neutral	True
435.826	2.877	Control	0.6087	n/a	Yes	2.877	n/a	n/a	GoodResponse	0	0.0	n/a	4	45	ISIslide	Neutral	True
438.718	0.25	Lose2	0.617	0.0	Yes	3.382	0.018	n/a	GoodResponse	0	n/a	n/a	4	46	Cue	AvoidedLoss	False
438.968	4.0	Lose2	0.617	0.0	Yes	3.382	0.0	4.0	GoodResponse	0	3.767	441.735	4	46	Fixation	AvoidedLoss	False
442.735	0.3	Lose2	0.617	0.0	Yes	3.382	0.0	4.0	GoodResponse	0	3.767	n/a	4	46	ButtonPress	AvoidedLoss	False
442.964	0.44	Lose2	0.617	0.004	Yes	3.382	-0.004	4.0	GoodResponse	0	0.134	442.098	4	46	Target	AvoidedLoss	False
443.098	0.3	Lose2	0.617	0.004	Yes	3.382	-0.004	4.0	GoodResponse	0	0.134	n/a	4	46	ButtonPress	AvoidedLoss	False
443.415	0.26	Lose2	0.617	n/a	Yes	3.382	n/a	n/a	GoodResponse	0	n/a	n/a	4	46	Blank	AvoidedLoss	False
443.666	1.45	Lose2	0.617	n/a	Yes	3.382	n/a	5	GoodResponse	0	0.012	442.678	4	46	Feedback	AvoidedLoss	False
445.12	3.382	Lose2	0.617	n/a	Yes	3.382	n/a	n/a	GoodResponse	0	0.0	n/a	4	46	ISIslide	AvoidedLoss	False
448.514	0.25	Lose2	0.6042000000000001	0.0	No	2.686	0.014	n/a	NoResponse	-1	n/a	n/a	3	47	Cue	Loss	False
448.764	4.0	Lose2	0.6042000000000001	0.0	No	2.686	0.0	n/a	NoResponse	-1	n/a	n/a	3	47	Fixation	Loss	False
452.76	0.45	Lose2	0.6042000000000001	0.004	No	2.686	-0.004	n/a	NoResponse	-1	n/a	n/a	3	47	Target	Loss	False
453.211	0.25	Lose2	0.6042000000000001	n/a	No	2.686	n/a	n/a	NoResponse	-1	n/a	n/a	3	47	Blank	Loss	False
453.462	1.45	Lose2	0.6042000000000001	n/a	No	2.686	n/a	5	NoResponse	-1	0.021	452.483	3	47	Feedback	Loss	False
454.916	2.686	Lose2	0.6042000000000001	n/a	No	2.686	n/a	n/a	NoResponse	-1	0.0	n/a	3	47	ISIslide	Loss	False
457.624	0.25	Lose2	0.6122	0.0	Yes	3.026	0.024	n/a	GoodResponse	0	n/a	n/a	3	48	Cue	AvoidedLoss	True
457.875	3.95	Lose2	0.6122	0.0	Yes	3.026	0.001	n/a	GoodResponse	0	n/a	n/a	3	48	Fixation	AvoidedLoss	True
461.82	0.46	Lose2	0.6122	0.004	Yes	3.026	-0.004	4.0	GoodResponse	0	0.288	461.108	3	48	Target	AvoidedLoss	True
462.108	0.3	Lose2	0.6122	0.004	Yes	3.026	-0.004	4.0	GoodResponse	0	0.288	n/a	3	48	ButtonPress	AvoidedLoss	True
462.288	0.24	Lose2	0.6122	n/a	Yes	3.026	n/a	n/a	GoodResponse	0	n/a	n/a	3	48	Blank	AvoidedLoss	True
462.522	1.45	Lose2	0.6122	n/a	Yes	3.026	n/a	5	GoodResponse	0	0.034	461.556	3	48	Feedback	AvoidedLoss	True
463.977	3.026	Lose2	0.6122	n/a	Yes	3.026	n/a	n/a	GoodResponse	0	0.0	n/a	3	48	ISIslide	AvoidedLoss	True
467.019	0.25	Control	0.62	0.0	Yes	2.881	0.019	n/a	GoodResponse	0	n/a	n/a	3	49	Cue	Neutral	True
467.27	4.0	Control	0.62	0.0	Yes	2.881	0.001	n/a	GoodResponse	0	n/a	n/a	3	49	Fixation	Neutral	True
471.265	0.47	Control	0.62	0.004	Yes	2.881	-0.004	4.0	GoodResponse	0	0.255	470.52	3	49	Target	Neutral	True
471.52	0.3	Control	0.62	0.004	Yes	2.881	-0.004	4.0	GoodResponse	0	0.255	n/a	3	49	ButtonPress	Neutral	True
471.75	0.23	Control	0.62	n/a	Yes	2.881	n/a	n/a	GoodResponse	0	n/a	n/a	3	49	Blank	Neutral	True
471.967	1.45	Control	0.62	n/a	Yes	2.881	n/a	5	GoodResponse	0	0.004	470.971	3	49	Feedback	Neutral	True
473.421	2.881	Control	0.62	n/a	Yes	2.881	n/a	n/a	GoodResponse	0	0.0	n/a	3	49	ISIslide	Neutral	True
476.313	0.25	Control	0.6078	0.001	No	2.787	0.013	n/a	NoResponse	0	n/a	n/a	3	50	Cue	Neutral	False
476.564	4.0	Control	0.6078	0.0	No	2.787	0.001	n/a	NoResponse	0	n/a	n/a	3	50	Fixation	Neutral	False
480.559	0.48	Control	0.6078	0.004	No	2.787	-0.004	n/a	NoResponse	0	n/a	n/a	3	50	Target	Neutral	False
481.044	0.22	Control	0.6078	n/a	No	2.787	n/a	n/a	NoResponse	0	n/a	n/a	3	50	Blank	Neutral	False
481.262	1.45	Control	0.6078	n/a	No	2.787	n/a	5	NoResponse	0	0.025	480.287	3	50	Feedback	Neutral	False
482.716	2.787	Control	0.6078	n/a	No	2.787	n/a	n/a	NoResponse	0	0.0	n/a	3	50	ISIslide	Neutral	False
485.524	0.25	Control	0.6154	0.0	Yes	2.726	0.024	n/a	GoodResponse	0	n/a	n/a	3	51	Cue	Neutral	True
485.775	3.95	Control	0.6154	0.0	Yes	2.726	0.001	n/a	GoodResponse	0	n/a	n/a	3	51	Fixation	Neutral	True
489.72	0.49	Control	0.6154	0.004	Yes	2.726	-0.004	4.0	GoodResponse	0	0.172	488.892	3	51	Target	Neutral	True
489.892	0.3	Control	0.6154	0.004	Yes	2.726	-0.004	4.0	GoodResponse	0	0.172	n/a	3	51	ButtonPress	Neutral	True
490.222	0.21	Control	0.6154	n/a	Yes	2.726	n/a	n/a	GoodResponse	0	n/a	n/a	3	51	Blank	Neutral	True
490.422	1.45	Control	0.6154	n/a	Yes	2.726	n/a	5	GoodResponse	0	0.036	489.458	3	51	Feedback	Neutral	True
491.877	2.726	Control	0.6154	n/a	Yes	2.726	n/a	n/a	GoodResponse	0	0.0	n/a	3	51	ISIslide	Neutral	True
494.618	0.25	Control	0.6225999999999999	0.0	Yes	2.632	0.018	n/a	GoodResponse	0	n/a	n/a	3	52	Cue	Neutral	True
494.869	4.05	Control	0.6225999999999999	0.0	Yes	2.632	0.001	n/a	GoodResponse	0	n/a	n/a	3	52	Fixation	Neutral	True
498.914	0.5	Control	0.6225999999999999	0.004	Yes	2.632	-0.004	4.0	GoodResponse	0	0.447	498.361	3	52	Target	Neutral	True
499.361	0.3	Control	0.6225999999999999	0.004	Yes	2.632	-0.004	4.0	GoodResponse	0	0.447	n/a	3	52	ButtonPress	Neutral	True
499.416	0.2	Control	0.6225999999999999	n/a	Yes	2.632	n/a	n/a	GoodResponse	0	n/a	n/a	3	52	Blank	Neutral	True
499.617	1.45	Control	0.6225999999999999	n/a	Yes	2.632	n/a	5	GoodResponse	0	0.012	498.629	3	52	Feedback	Neutral	True
501.071	2.632	Control	0.6225999999999999	n/a	Yes	2.632	n/a	n/a	GoodResponse	0	0.0	n/a	3	52	ISIslide	Neutral	True
503.729	0.25	Win2	0.6296	0.0	Yes	2.921	0.029	n/a	GoodResponse	1	n/a	n/a	4	53	Cue	Win	True
503.98	4.05	Win2	0.6296	0.0	Yes	2.921	0.001	n/a	GoodResponse	1	n/a	n/a	4	53	Fixation	Win	True
508.025	0.5	Win2	0.6296	0.004	Yes	2.921	-0.004	4.0	GoodResponse	1	0.205	507.23	4	53	Target	Win	True
508.23	0.3	Win2	0.6296	0.004	Yes	2.921	-0.004	4.0	GoodResponse	1	0.205	n/a	4	53	ButtonPress	Win	True
508.527	0.2	Win2	0.6296	n/a	Yes	2.921	n/a	n/a	GoodResponse	1	n/a	n/a	4	53	Blank	Win	True
508.727	1.45	Win2	0.6296	n/a	Yes	2.921	n/a	5	GoodResponse	1	0.024	507.751	4	53	Feedback	Win	True
510.181	2.921	Win2	0.6296	n/a	Yes	2.921	n/a	n/a	GoodResponse	1	0.0	n/a	4	53	ISIslide	Win	True
513.124	0.25	Win2	0.6364	0.0	Yes	2.726	0.024	n/a	GoodResponse	1	n/a	n/a	5	54	Cue	Win	True
513.374	3.95	Win2	0.6364	0.0	Yes	2.726	0.0	n/a	GoodResponse	1	n/a	n/a	5	54	Fixation	Win	True
517.32	0.5	Win2	0.6364	0.004	Yes	2.726	-0.004	4.0	GoodResponse	1	0.487	516.807	5	54	Target	Win	True
517.807	0.3	Win2	0.6364	0.004	Yes	2.726	-0.004	4.0	GoodResponse	1	0.487	n/a	5	54	ButtonPress	Win	True
517.821	0.2	Win2	0.6364	n/a	Yes	2.726	n/a	n/a	GoodResponse	1	n/a	n/a	5	54	Blank	Win	True
518.022	1.45	Win2	0.6364	n/a	Yes	2.726	n/a	5	GoodResponse	1	0.045	517.067	5	54	Feedback	Win	True
519.476	2.726	Win2	0.6364	n/a	Yes	2.726	n/a	n/a	GoodResponse	1	0.0	n/a	5	54	ISIslide	Win	True
522.218	0.25	Control	0.6429	0.0	Yes	3.032	0.018	n/a	GoodResponse	0	n/a	n/a	5	55	Cue	Neutral	True
522.468	3.95	Control	0.6429	0.0	Yes	3.032	0.0	n/a	GoodResponse	0	n/a	n/a	5	55	Fixation	Neutral	True
526.43	0.5	Control	0.6429	0.0	Yes	3.032	0.012	4.0	GoodResponse	0	0.461	525.891	5	55	Target	Neutral	True
526.891	0.3	Control	0.6429	0.0	Yes	3.032	0.012	4.0	GoodResponse	0	0.461	n/a	5	55	ButtonPress	Neutral	True
526.915	0.2	Control	0.6429	n/a	Yes	3.032	n/a	n/a	GoodResponse	0	n/a	n/a	5	55	Blank	Neutral	True
527.116	1.45	Control	0.6429	n/a	Yes	3.032	n/a	5	GoodResponse	0	0.025	526.141	5	55	Feedback	Neutral	True
528.57	3.032	Control	0.6429	n/a	Yes	3.032	n/a	n/a	GoodResponse	0	0.0	n/a	5	55	ISIslide	Neutral	True
531.612	0.25	Control	0.6491	0.0	Yes	2.838	0.012	n/a	GoodResponse	0	n/a	n/a	5	56	Cue	Neutral	True
531.863	3.95	Control	0.6491	0.0	Yes	2.838	0.001	n/a	GoodResponse	0	n/a	n/a	5	56	Fixation	Neutral	True
535.808	0.5	Control	0.6491	0.004	Yes	2.838	-0.004	4.0	GoodResponse	0	0.467	535.275	5	56	Target	Neutral	True
536.275	0.3	Control	0.6491	0.004	Yes	2.838	-0.004	4.0	GoodResponse	0	0.467	n/a	5	56	ButtonPress	Neutral	True
536.31	0.2	Control	0.6491	n/a	Yes	2.838	n/a	n/a	GoodResponse	0	n/a	n/a	5	56	Blank	Neutral	True
536.51	1.45	Control	0.6491	n/a	Yes	2.838	n/a	5	GoodResponse	0	0.045	535.555	5	56	Feedback	Neutral	True
537.965	2.838	Control	0.6491	n/a	Yes	2.838	n/a	n/a	GoodResponse	0	0.0	n/a	5	56	ISIslide	Neutral	True
540.823	0.25	Control	0.6552	0.0	Yes	3.477	0.023	n/a	GoodResponse	0	n/a	n/a	5	57	Cue	Neutral	False
541.074	4.0	Control	0.6552	0.0	Yes	3.477	0.001	4.0	GoodResponse	0	3.394	543.468	5	57	Fixation	Neutral	False
544.468	0.3	Control	0.6552	0.0	Yes	3.477	0.001	4.0	GoodResponse	0	3.394	n/a	5	57	ButtonPress	Neutral	False
545.069	0.5	Control	0.6552	0.004	Yes	3.477	-0.004	4.0	GoodResponse	0	0.203	544.272	5	57	Target	Neutral	False
545.272	0.3	Control	0.6552	0.004	Yes	3.477	-0.004	4.0	GoodResponse	0	0.203	n/a	5	57	ButtonPress	Neutral	False
545.571	0.2	Control	0.6552	n/a	Yes	3.477	n/a	n/a	GoodResponse	0	n/a	n/a	5	57	Blank	Neutral	False
545.771	1.45	Control	0.6552	n/a	Yes	3.477	n/a	5	GoodResponse	0	0.004	544.775	5	57	Feedback	Neutral	False
547.226	3.477	Control	0.6552	n/a	Yes	3.477	n/a	n/a	GoodResponse	0	0.0	n/a	5	57	ISIslide	Neutral	False
550.72	0.25	Win2	0.6609999999999999	0.0	Yes	2.73	0.02	n/a	GoodResponse	1	n/a	n/a	6	58	Cue	Win	True
550.97	4.05	Win2	0.6609999999999999	0.0	Yes	2.73	0.0	n/a	GoodResponse	1	n/a	n/a	6	58	Fixation	Win	True
555.016	0.5	Win2	0.6609999999999999	0.004	Yes	2.73	-0.004	4.0	GoodResponse	1	0.192	554.208	6	58	Target	Win	True
555.208	0.3	Win2	0.6609999999999999	0.004	Yes	2.73	-0.004	4.0	GoodResponse	1	0.192	n/a	6	58	ButtonPress	Win	True
555.517	0.2	Win2	0.6609999999999999	n/a	Yes	2.73	n/a	n/a	GoodResponse	1	n/a	n/a	6	58	Blank	Win	True
555.718	1.45	Win2	0.6609999999999999	n/a	Yes	2.73	n/a	5	GoodResponse	1	0.008	554.726	6	58	Feedback	Win	True
557.172	2.73	Win2	0.6609999999999999	n/a	Yes	2.73	n/a	n/a	GoodResponse	1	0.0	n/a	6	58	ISIslide	Win	True
559.914	0.25	Lose2	0.6667000000000001	0.0	Yes	2.686	0.014	n/a	GoodResponse	0	n/a	n/a	6	59	Cue	AvoidedLoss	True
560.164	4.0	Lose2	0.6667000000000001	0.001	Yes	2.686	0.0	n/a	GoodResponse	0	n/a	n/a	6	59	Fixation	AvoidedLoss	True
564.16	0.5	Lose2	0.6667000000000001	0.004	Yes	2.686	-0.004	4.0	GoodResponse	0	0.17	563.33	6	59	Target	AvoidedLoss	True
564.33	0.3	Lose2	0.6667000000000001	0.004	Yes	2.686	-0.004	4.0	GoodResponse	0	0.17	n/a	6	59	ButtonPress	AvoidedLoss	True
564.661	0.2	Lose2	0.6667000000000001	n/a	Yes	2.686	n/a	n/a	GoodResponse	0	n/a	n/a	6	59	Blank	AvoidedLoss	True
564.862	1.45	Lose2	0.6667000000000001	n/a	Yes	2.686	n/a	5	GoodResponse	0	0.035	563.897	6	59	Feedback	AvoidedLoss	True
566.316	2.686	Lose2	0.6667000000000001	n/a	Yes	2.686	n/a	n/a	GoodResponse	0	0.0	n/a	6	59	ISIslide	AvoidedLoss	True
569.024	0.25	Control	0.6720999999999999	0.0	Yes	2.676	0.024	n/a	GoodResponse	0	n/a	n/a	6	60	Cue	Neutral	True
569.275	4.0	Control	0.6720999999999999	0.0	Yes	2.676	0.001	n/a	GoodResponse	0	n/a	n/a	6	60	Fixation	Neutral	True
573.27	0.49	Control	0.6720999999999999	0.004	Yes	2.676	-0.004	4.0	GoodResponse	0	0.28	572.55	6	60	Target	Neutral	True
573.55	0.3	Control	0.6720999999999999	0.004	Yes	2.676	-0.004	4.0	GoodResponse	0	0.28	n/a	6	60	ButtonPress	Neutral	True
573.772	0.21	Control	0.6720999999999999	n/a	Yes	2.676	n/a	n/a	GoodResponse	0	n/a	n/a	6	60	Blank	Neutral	True
573.972	1.45	Control	0.6720999999999999	n/a	Yes	2.676	n/a	5	GoodResponse	0	0.046	573.018	6	60	Feedback	Neutral	True
575.427	2.676	Control	0.6720999999999999	n/a	Yes	2.676	n/a	n/a	GoodResponse	0	0.0	n/a	6	60	ISIslide	Neutral	True
578.118	0.25	Lose2	0.6774	0.0	Yes	2.982	0.018	n/a	GoodResponse	0	n/a	n/a	6	61	Cue	AvoidedLoss	True
578.369	4.0	Lose2	0.6774	0.0	Yes	2.982	0.001	n/a	GoodResponse	0	n/a	n/a	6	61	Fixation	AvoidedLoss	True
582.364	0.48	Lose2	0.6774	0.004	Yes	2.982	-0.004	4.0	GoodResponse	0	0.19	581.554	6	61	Target	AvoidedLoss	True
582.554	0.3	Lose2	0.6774	0.004	Yes	2.982	-0.004	4.0	GoodResponse	0	0.19	n/a	6	61	ButtonPress	AvoidedLoss	True
582.849	0.22	Lose2	0.6774	n/a	Yes	2.982	n/a	n/a	GoodResponse	0	n/a	n/a	6	61	Blank	AvoidedLoss	True
583.066	1.45	Lose2	0.6774	n/a	Yes	2.982	n/a	5	GoodResponse	0	0.025	582.091	6	61	Feedback	AvoidedLoss	True
584.521	2.982	Lose2	0.6774	n/a	Yes	2.982	n/a	n/a	GoodResponse	0	0.0	n/a	6	61	ISIslide	AvoidedLoss	True
587.53	0.25	Lose2	0.6825	0.0	Yes	2.87	0.03	n/a	GoodResponse	0	n/a	n/a	6	62	Cue	AvoidedLoss	True
587.78	3.9	Lose2	0.6825	0.001	Yes	2.87	0.0	n/a	GoodResponse	0	n/a	n/a	6	62	Fixation	AvoidedLoss	True
591.675	0.47	Lose2	0.6825	0.005	Yes	2.87	-0.005	4.0	GoodResponse	0	0.257	590.932	6	62	Target	AvoidedLoss	True
591.932	0.3	Lose2	0.6825	0.005	Yes	2.87	-0.005	4.0	GoodResponse	0	0.257	n/a	6	62	ButtonPress	AvoidedLoss	True
592.16	0.23	Lose2	0.6825	n/a	Yes	2.87	n/a	n/a	GoodResponse	0	n/a	n/a	6	62	Blank	AvoidedLoss	True
592.378	1.45	Lose2	0.6825	n/a	Yes	2.87	n/a	5	GoodResponse	0	0.031	591.409	6	62	Feedback	AvoidedLoss	True
593.832	2.87	Lose2	0.6825	n/a	Yes	2.87	n/a	n/a	GoodResponse	0	0.0	n/a	6	62	ISIslide	AvoidedLoss	True
596.724	0.25	Lose2	0.6875	0.0	Yes	2.626	0.024	n/a	GoodResponse	0	n/a	n/a	6	63	Cue	AvoidedLoss	True
596.975	4.05	Lose2	0.6875	0.0	Yes	2.626	0.001	n/a	GoodResponse	0	n/a	n/a	6	63	Fixation	AvoidedLoss	True
601.02	0.46	Lose2	0.6875	0.004	Yes	2.626	-0.004	4.0	GoodResponse	0	0.239	600.259	6	63	Target	AvoidedLoss	True
601.259	0.3	Lose2	0.6875	0.004	Yes	2.626	-0.004	4.0	GoodResponse	0	0.239	n/a	6	63	ButtonPress	AvoidedLoss	True
601.488	0.24	Lose2	0.6875	n/a	Yes	2.626	n/a	n/a	GoodResponse	0	n/a	n/a	6	63	Blank	AvoidedLoss	True
601.722	1.45	Lose2	0.6875	n/a	Yes	2.626	n/a	5	GoodResponse	0	0.004	600.726	6	63	Feedback	AvoidedLoss	True
603.177	2.626	Lose2	0.6875	n/a	Yes	2.626	n/a	n/a	GoodResponse	0	0.0	n/a	6	63	ISIslide	AvoidedLoss	True
605.818	0.25	Win2	0.6923	0.0	Yes	3.132	0.018	n/a	GoodResponse	1	n/a	n/a	7	64	Cue	Win	True
606.069	4.15	Win2	0.6923	0.0	Yes	3.132	0.001	n/a	GoodResponse	1	n/a	n/a	7	64	Fixation	Win	True
610.214	0.45	Win2	0.6923	0.004	Yes	3.132	-0.004	4.0	GoodResponse	1	0.243	609.457	7	64	Target	Win	True
610.457	0.3	Win2	0.6923	0.004	Yes	3.132	-0.004	4.0	GoodResponse	1	0.243	n/a	7	64	ButtonPress	Win	True
610.666	0.25	Win2	0.6923	n/a	Yes	3.132	n/a	n/a	GoodResponse	1	n/a	n/a	7	64	Blank	Win	True
610.916	1.45	Win2	0.6923	n/a	Yes	3.132	n/a	5	GoodResponse	1	0.029	609.945	7	64	Feedback	Win	True
612.371	3.132	Win2	0.6923	n/a	Yes	3.132	n/a	n/a	GoodResponse	1	0.0	n/a	7	64	ISIslide	Win	True
615.513	0.25	Control	0.6970000000000001	0.001	Yes	2.787	0.013	n/a	GoodResponse	0	n/a	n/a	7	65	Cue	Neutral	True
615.764	4.0	Control	0.6970000000000001	0.0	Yes	2.787	0.001	n/a	GoodResponse	0	n/a	n/a	7	65	Fixation	Neutral	True
619.759	0.44	Control	0.6970000000000001	0.004	Yes	2.787	-0.004	4.0	GoodResponse	0	0.437	619.196	7	65	Target	Neutral	True
620.196	0.3	Control	0.6970000000000001	0.004	Yes	2.787	-0.004	4.0	GoodResponse	0	0.437	n/a	7	65	ButtonPress	Neutral	True
620.211	0.26	Control	0.6970000000000001	n/a	Yes	2.787	n/a	n/a	GoodResponse	0	n/a	n/a	7	65	Blank	Neutral	True
620.462	1.45	Control	0.6970000000000001	n/a	Yes	2.787	n/a	5	GoodResponse	0	0.044	619.506	7	65	Feedback	Neutral	True
621.916	2.787	Control	0.6970000000000001	n/a	Yes	2.787	n/a	n/a	GoodResponse	0	0.0	n/a	7	65	ISIslide	Neutral	True
624.724	0.25	Win2	0.7015	0.0	Yes	2.776	0.024	n/a	GoodResponse	1	n/a	n/a	8	66	Cue	Win	True
624.975	3.9	Win2	0.7015	0.0	Yes	2.776	0.001	n/a	GoodResponse	1	n/a	n/a	8	66	Fixation	Win	True
628.87	0.43	Win2	0.7015	0.004	Yes	2.776	-0.004	4.0	GoodResponse	1	0.272	628.142	8	66	Target	Win	True
629.142	0.3	Win2	0.7015	0.004	Yes	2.776	-0.004	4.0	GoodResponse	1	0.272	n/a	8	66	ButtonPress	Win	True
629.305	0.27	Win2	0.7015	n/a	Yes	2.776	n/a	n/a	GoodResponse	1	n/a	n/a	8	66	Blank	Win	True
629.572	1.45	Win2	0.7015	n/a	Yes	2.776	n/a	5	GoodResponse	1	0.007	628.579	8	66	Feedback	Win	True
631.027	2.776	Win2	0.7015	n/a	Yes	2.776	n/a	n/a	GoodResponse	1	0.0	n/a	8	66	ISIslide	Win	True
633.818	0.25	Control	0.7059000000000001	0.0	Yes	2.732	0.018	n/a	GoodResponse	0	n/a	n/a	8	67	Cue	Neutral	True
634.069	3.95	Control	0.7059000000000001	0.0	Yes	2.732	0.001	n/a	GoodResponse	0	n/a	n/a	8	67	Fixation	Neutral	True
638.014	0.42	Control	0.7059000000000001	0.004	Yes	2.732	-0.004	4.0	GoodResponse	0	0.193	637.207	8	67	Target	Neutral	True
638.207	0.3	Control	0.7059000000000001	0.004	Yes	2.732	-0.004	4.0	GoodResponse	0	0.193	n/a	8	67	ButtonPress	Neutral	True
638.449	0.28	Control	0.7059000000000001	n/a	Yes	2.732	n/a	n/a	GoodResponse	0	n/a	n/a	8	67	Blank	Neutral	True
638.716	1.45	Control	0.7059000000000001	n/a	Yes	2.732	n/a	5	GoodResponse	0	0.034	637.75	8	67	Feedback	Neutral	True
640.171	2.732	Control	0.7059000000000001	n/a	Yes	2.732	n/a	n/a	GoodResponse	0	0.0	n/a	8	67	ISIslide	Neutral	True
642.929	0.25	Win2	0.7101000000000001	0.0	Yes	3.071	0.029	n/a	GoodResponse	1	n/a	n/a	9	68	Cue	Win	True
643.18	4.0	Win2	0.7101000000000001	0.0	Yes	3.071	0.001	n/a	GoodResponse	1	n/a	n/a	9	68	Fixation	Win	True
647.175	0.41	Win2	0.7101000000000001	0.004	Yes	3.071	-0.004	4.0	GoodResponse	1	0.2	646.375	9	68	Target	Win	True
647.375	0.3	Win2	0.7101000000000001	0.004	Yes	3.071	-0.004	4.0	GoodResponse	1	0.2	n/a	9	68	ButtonPress	Win	True
647.593	0.29	Win2	0.7101000000000001	n/a	Yes	3.071	n/a	n/a	GoodResponse	1	n/a	n/a	9	68	Blank	Win	True
647.877	1.45	Win2	0.7101000000000001	n/a	Yes	3.071	n/a	5	GoodResponse	1	0.043	646.92	9	68	Feedback	Win	True
649.331	3.071	Win2	0.7101000000000001	n/a	Yes	3.071	n/a	n/a	GoodResponse	1	0.0	n/a	9	68	ISIslide	Win	True
652.424	0.25	Win2	0.7143	0.0	Yes	3.226	0.024	n/a	GoodResponse	1	n/a	n/a	10	69	Cue	Win	True
652.675	3.95	Win2	0.7143	0.0	Yes	3.226	0.001	n/a	GoodResponse	1	n/a	n/a	10	69	Fixation	Win	True
656.62	0.4	Win2	0.7143	0.004	Yes	3.226	-0.004	4.0	GoodResponse	1	0.201	655.821	10	69	Target	Win	True
656.821	0.3	Win2	0.7143	0.004	Yes	3.226	-0.004	4.0	GoodResponse	1	0.201	n/a	10	69	ButtonPress	Win	True
657.021	0.3	Win2	0.7143	n/a	Yes	3.226	n/a	n/a	GoodResponse	1	n/a	n/a	10	69	Blank	Win	True
657.322	1.45	Win2	0.7143	n/a	Yes	3.226	n/a	5	GoodResponse	1	0.013	656.335	10	69	Feedback	Win	True
658.776	3.226	Win2	0.7143	n/a	Yes	3.226	n/a	n/a	GoodResponse	1	0.0	n/a	10	69	ISIslide	Win	True
662.019	0.25	Lose2	0.7182999999999999	0.0	Yes	3.031	0.019	n/a	GoodResponse	0	n/a	n/a	10	70	Cue	AvoidedLoss	True
662.27	4.05	Lose2	0.7182999999999999	0.0	Yes	3.031	0.001	n/a	GoodResponse	0	n/a	n/a	10	70	Fixation	AvoidedLoss	True
666.316	0.39	Lose2	0.7182999999999999	0.003	Yes	3.031	-0.003	4.0	GoodResponse	0	0.171	665.487	10	70	Target	AvoidedLoss	True
666.487	0.3	Lose2	0.7182999999999999	0.003	Yes	3.031	-0.003	4.0	GoodResponse	0	0.171	n/a	10	70	ButtonPress	AvoidedLoss	True
666.717	0.31	Lose2	0.7182999999999999	n/a	Yes	3.031	n/a	n/a	GoodResponse	0	n/a	n/a	10	70	Blank	AvoidedLoss	True
667.018	1.45	Lose2	0.7182999999999999	n/a	Yes	3.031	n/a	5	GoodResponse	0	0.025	666.043	10	70	Feedback	AvoidedLoss	True
668.472	3.031	Lose2	0.7182999999999999	n/a	Yes	3.031	n/a	n/a	GoodResponse	0	0.0	n/a	10	70	ISIslide	AvoidedLoss	True
671.514	0.25	Win2	0.7082999999999999	0.0	No	2.736	0.014	n/a	PrematurePress	0	n/a	n/a	10	71	Cue	MissedWin	True
671.765	4.05	Win2	0.7082999999999999	0.0	No	2.736	0.001	n/a	PrematurePress	0	n/a	n/a	10	71	Fixation	MissedWin	True
675.811	0.38	Win2	0.7082999999999999	0.003	No	2.736	-0.003	4.0	PrematurePress	0	0.062	674.873	10	71	Target	MissedWin	True
675.873	0.3	Win2	0.7082999999999999	0.003	No	2.736	-0.003	4.0	PrematurePress	0	0.062	n/a	10	71	ButtonPress	MissedWin	True
676.195	0.32	Win2	0.7082999999999999	n/a	No	2.736	n/a	n/a	PrematurePress	0	n/a	n/a	10	71	Blank	MissedWin	True
676.513	1.45	Win2	0.7082999999999999	n/a	No	2.736	n/a	5	PrematurePress	0	0.041	675.554	10	71	Feedback	MissedWin	True
677.967	2.736	Win2	0.7082999999999999	n/a	No	2.736	n/a	n/a	PrematurePress	0	0.0	n/a	10	71	ISIslide	MissedWin	True
680.725	0.25	Win2	0.7123	0.0	Yes	2.775	0.025	n/a	GoodResponse	1	n/a	n/a	11	72	Cue	Win	True
680.976	4.1	Win2	0.7123	0.0	Yes	2.775	0.001	n/a	GoodResponse	1	n/a	n/a	11	72	Fixation	Win	True
685.072	0.37	Win2	0.7123	0.003	Yes	2.775	-0.003	4.0	GoodResponse	1	0.184	684.256	11	72	Target	Win	True
685.256	0.3	Win2	0.7123	0.003	Yes	2.775	-0.003	4.0	GoodResponse	1	0.184	n/a	11	72	ButtonPress	Win	True
685.456	0.33	Win2	0.7123	n/a	Yes	2.775	n/a	n/a	GoodResponse	1	n/a	n/a	11	72	Blank	Win	True
685.774	1.45	Win2	0.7123	n/a	Yes	2.775	n/a	5	GoodResponse	1	0.0	684.774	11	72	Feedback	Win	True
687.228	2.775	Win2	0.7123	n/a	Yes	2.775	n/a	n/a	GoodResponse	1	0.0	n/a	11	72	ISIslide	Win	True
690.02	0.25	Win2	0.7162000000000001	0.0	Yes	2.68	0.02	n/a	GoodResponse	1	n/a	n/a	12	73	Cue	Win	True
690.271	4.0	Win2	0.7162000000000001	0.0	Yes	2.68	0.001	n/a	GoodResponse	1	n/a	n/a	12	73	Fixation	Win	True
694.266	0.36	Win2	0.7162000000000001	0.004	Yes	2.68	-0.004	4.0	GoodResponse	1	0.213	693.479	12	73	Target	Win	True
694.479	0.3	Win2	0.7162000000000001	0.004	Yes	2.68	-0.004	4.0	GoodResponse	1	0.213	n/a	12	73	ButtonPress	Win	True
694.634	0.34	Win2	0.7162000000000001	n/a	Yes	2.68	n/a	n/a	GoodResponse	1	n/a	n/a	12	73	Blank	Win	True
694.968	1.45	Win2	0.7162000000000001	n/a	Yes	2.68	n/a	5	GoodResponse	1	0.025	693.993	12	73	Feedback	Win	True
696.422	2.68	Win2	0.7162000000000001	n/a	Yes	2.68	n/a	n/a	GoodResponse	1	0.0	n/a	12	73	ISIslide	Win	True
699.114	0.25	Lose2	0.72	0.0	Yes	2.636	0.014	n/a	GoodResponse	0	n/a	n/a	12	74	Cue	AvoidedLoss	True
699.364	4.05	Lose2	0.72	0.001	Yes	2.636	0.0	n/a	GoodResponse	0	n/a	n/a	12	74	Fixation	AvoidedLoss	True
703.41	0.35	Lose2	0.72	0.004	Yes	2.636	-0.004	4.0	GoodResponse	0	0.198	702.608	12	74	Target	AvoidedLoss	True
703.608	0.3	Lose2	0.72	0.004	Yes	2.636	-0.004	4.0	GoodResponse	0	0.198	n/a	12	74	ButtonPress	AvoidedLoss	True
703.761	0.35	Lose2	0.72	n/a	Yes	2.636	n/a	n/a	GoodResponse	0	n/a	n/a	12	74	Blank	AvoidedLoss	True
704.112	1.45	Lose2	0.72	n/a	Yes	2.636	n/a	5	GoodResponse	0	0.004	703.116	12	74	Feedback	AvoidedLoss	True
705.566	2.636	Lose2	0.72	n/a	Yes	2.636	n/a	n/a	GoodResponse	0	0.0	n/a	12	74	ISIslide	AvoidedLoss	True
708.224	0.25	Lose2	0.7237	0.0	Yes	2.926	0.024	n/a	GoodResponse	0	n/a	n/a	12	75	Cue	AvoidedLoss	True
708.475	3.95	Lose2	0.7237	0.0	Yes	2.926	0.001	n/a	GoodResponse	0	n/a	n/a	12	75	Fixation	AvoidedLoss	True
712.42	0.34	Lose2	0.7237	0.004	Yes	2.926	-0.004	4.0	GoodResponse	0	0.196	711.616	12	75	Target	AvoidedLoss	True
712.616	0.3	Lose2	0.7237	0.004	Yes	2.926	-0.004	4.0	GoodResponse	0	0.196	n/a	12	75	ButtonPress	AvoidedLoss	True
712.771	0.36	Lose2	0.7237	n/a	Yes	2.926	n/a	n/a	GoodResponse	0	n/a	n/a	12	75	Blank	AvoidedLoss	True
713.122	1.45	Lose2	0.7237	n/a	Yes	2.926	n/a	5	GoodResponse	0	0.018	712.14	12	75	Feedback	AvoidedLoss	True
714.577	2.926	Lose2	0.7237	n/a	Yes	2.926	n/a	n/a	GoodResponse	0	0.0	n/a	12	75	ISIslide	AvoidedLoss	True
717.519	0.25	Control	0.7273000000000001	0.0	Yes	3.231	0.019	n/a	GoodResponse	0	n/a	n/a	12	76	Cue	Neutral	True
717.77	4.05	Control	0.7273000000000001	0.0	Yes	3.231	0.001	n/a	GoodResponse	0	n/a	n/a	12	76	Fixation	Neutral	True
721.815	0.33	Control	0.7273000000000001	0.004	Yes	3.231	-0.004	4.0	GoodResponse	0	0.174	720.989	12	76	Target	Neutral	True
721.989	0.3	Control	0.7273000000000001	0.004	Yes	3.231	-0.004	4.0	GoodResponse	0	0.174	n/a	12	76	ButtonPress	Neutral	True
722.149	0.37	Control	0.7273000000000001	n/a	Yes	3.231	n/a	n/a	GoodResponse	0	n/a	n/a	12	76	Blank	Neutral	True
722.517	1.45	Control	0.7273000000000001	n/a	Yes	3.231	n/a	5	GoodResponse	0	0.036	721.553	12	76	Feedback	Neutral	True
723.971	3.231	Control	0.7273000000000001	n/a	Yes	3.231	n/a	n/a	GoodResponse	0	0.0	n/a	12	76	ISIslide	Neutral	True
727.214	0.25	Lose2	0.7308	0.001	Yes	2.586	0.014	n/a	GoodResponse	0	n/a	n/a	12	77	Cue	AvoidedLoss	True
727.465	3.95	Lose2	0.7308	0.0	Yes	2.586	0.001	n/a	GoodResponse	0	n/a	n/a	12	77	Fixation	AvoidedLoss	True
731.41	0.32	Lose2	0.7308	0.004	Yes	2.586	-0.004	4.0	GoodResponse	0	0.223	730.633	12	77	Target	AvoidedLoss	True
731.633	0.3	Lose2	0.7308	0.004	Yes	2.586	-0.004	4.0	GoodResponse	0	0.223	n/a	12	77	ButtonPress	AvoidedLoss	True
731.745	0.38	Lose2	0.7308	n/a	Yes	2.586	n/a	n/a	GoodResponse	0	n/a	n/a	12	77	Blank	AvoidedLoss	True
732.112	1.45	Lose2	0.7308	n/a	Yes	2.586	n/a	5	GoodResponse	0	0.004	731.116	12	77	Feedback	AvoidedLoss	True
733.567	2.586	Lose2	0.7308	n/a	Yes	2.586	n/a	{SPACE}	GoodResponse	0	2.53	n/a	12	77	ISIslide	AvoidedLoss	True
