onset	duration	cue_type	current_mean_accuracy	duration_error	is_hit	isi_adjusted	onset_delay	response	response_type	reward	rt	rt_time	total_reward	trial_number	trial_phase	trial_type	one_press
11.096	0.25	Control	1.0	0.0	Yes	2.954	-0.004	n/a	GoodResponse	0	n/a	n/a	0	0	Cue	Neutral	False
11.346	3.85	Control	1.0	0.0	Yes	2.954	0.0	4.0	GoodResponse	0	2.321	12.667	0	0	Fixation	Neutral	False
13.667	0.3	Control	1.0	0.0	Yes	2.954	0.0	4.0	GoodResponse	0	2.321	n/a	0	0	ButtonPress	Neutral	False
15.195	0.4	Control	1.0	0.001	Yes	2.954	-0.001	4.0	GoodResponse	0	0.305	14.5	0	0	Target	Neutral	False
15.5	0.3	Control	1.0	0.001	Yes	2.954	-0.001	4.0	GoodResponse	0	0.305	n/a	0	0	ButtonPress	Neutral	False
15.595	0.3	Control	1.0	n/a	Yes	2.954	n/a	n/a	GoodResponse	0	n/a	n/a	0	0	Blank	Neutral	False
15.895	1.45	Control	1.0	n/a	Yes	2.954	n/a	5.0	GoodResponse	0	0.034	14.929	0	0	Feedback	Neutral	False
17.344	2.954	Control	1.0	n/a	Yes	2.954	n/a	n/a	GoodResponse	0	0.0	n/a	0	0	ISIslide	Neutral	False
20.326	0.25	Lose2	1.0	0.0	Yes	2.774	0.026	n/a	GoodResponse	0	n/a	n/a	0	1	Cue	AvoidedLoss	True
20.576	4.0	Lose2	1.0	0.0	Yes	2.774	0.0	n/a	GoodResponse	0	n/a	n/a	0	1	Fixation	AvoidedLoss	True
24.575	0.39	Lose2	1.0	0.001	Yes	2.774	-0.001	4.0	GoodResponse	0	0.276	23.851	0	1	Target	AvoidedLoss	True
24.851	0.3	Lose2	1.0	0.001	Yes	2.774	-0.001	4.0	GoodResponse	0	0.276	n/a	0	1	ButtonPress	AvoidedLoss	True
24.975	0.31	Lose2	1.0	n/a	Yes	2.774	n/a	n/a	GoodResponse	0	n/a	n/a	0	1	Blank	AvoidedLoss	True
25.275	1.45	Lose2	1.0	n/a	Yes	2.774	n/a	5.0	GoodResponse	0	0.02	24.295	0	1	Feedback	AvoidedLoss	True
26.724	2.774	Lose2	1.0	n/a	Yes	2.774	n/a	n/a	GoodResponse	0	0.0	n/a	0	1	ISIslide	AvoidedLoss	True
29.523	0.25	Control	1.0	0.0	Yes	2.577	0.023	n/a	GoodResponse	0	n/a	n/a	0	2	Cue	Neutral	True
29.773	4.1	Control	1.0	0.0	Yes	2.577	0.0	n/a	GoodResponse	0	n/a	n/a	0	2	Fixation	Neutral	True
33.872	0.38	Control	1.0	0.001	Yes	2.577	-0.001	4.0	GoodResponse	0	0.267	33.139	0	2	Target	Neutral	True
34.139	0.3	Control	1.0	0.001	Yes	2.577	-0.001	4.0	GoodResponse	0	0.267	n/a	0	2	ButtonPress	Neutral	True
34.255	0.32	Control	1.0	n/a	Yes	2.577	n/a	n/a	GoodResponse	0	n/a	n/a	0	2	Blank	Neutral	True
34.571	1.45	Control	1.0	n/a	Yes	2.577	n/a	5.0	GoodResponse	0	0.041	33.612	0	2	Feedback	Neutral	True
36.021	2.577	Control	1.0	n/a	Yes	2.577	n/a	n/a	GoodResponse	0	0.0	n/a	0	2	ISIslide	Neutral	True
38.62	0.25	Win2	1.0	0.0	Yes	2.83	0.02	n/a	GoodResponse	1	n/a	n/a	1	3	Cue	Win	True
38.87	3.95	Win2	1.0	0.0	Yes	2.83	0.0	n/a	GoodResponse	1	n/a	n/a	1	3	Fixation	Win	True
42.819	0.37	Win2	1.0	0.001	Yes	2.83	-0.001	4.0	GoodResponse	1	0.234	42.053	1	3	Target	Win	True
43.053	0.3	Win2	1.0	0.001	Yes	2.83	-0.001	4.0	GoodResponse	1	0.234	n/a	1	3	ButtonPress	Win	True
43.202	0.33	Win2	1.0	n/a	Yes	2.83	n/a	n/a	GoodResponse	1	n/a	n/a	1	3	Blank	Win	True
43.518	1.45	Win2	1.0	n/a	Yes	2.83	n/a	5.0	GoodResponse	1	0.021	42.539	1	3	Feedback	Win	True
44.968	2.83	Win2	1.0	n/a	Yes	2.83	n/a	n/a	GoodResponse	1	0.0	n/a	1	3	ISIslide	Win	True
47.817	0.25	Win2	1.0	0.0	Yes	3.283	0.017	n/a	GoodResponse	1	n/a	n/a	2	4	Cue	Win	True
48.067	4.0	Win2	1.0	0.0	Yes	3.283	0.0	n/a	GoodResponse	1	n/a	n/a	2	4	Fixation	Win	True
52.065	0.36	Win2	1.0	0.002	Yes	3.283	-0.002	4.0	GoodResponse	1	0.316	51.381	2	4	Target	Win	True
52.381	0.3	Win2	1.0	0.002	Yes	3.283	-0.002	4.0	GoodResponse	1	0.316	n/a	2	4	ButtonPress	Win	True
52.432	0.34	Win2	1.0	n/a	Yes	3.283	n/a	n/a	GoodResponse	1	n/a	n/a	2	4	Blank	Win	True
52.765	1.45	Win2	1.0	n/a	Yes	3.283	n/a	5.0	GoodResponse	1	0.042	51.807	2	4	Feedback	Win	True
54.215	3.283	Win2	1.0	n/a	Yes	3.283	n/a	n/a	GoodResponse	1	0.0	n/a	2	4	ISIslide	Win	True
57.53	0.25	Win2	1.0	0.0	Yes	2.77	0.03	n/a	GoodResponse	1	n/a	n/a	3	5	Cue	Win	True
57.78	4.0	Win2	1.0	0.0	Yes	2.77	0.0	n/a	GoodResponse	1	n/a	n/a	3	5	Fixation	Win	True
61.779	0.35	Win2	1.0	0.001	Yes	2.77	-0.001	4.0	GoodResponse	1	0.271	61.05	3	5	Target	Win	True
62.05	0.3	Win2	1.0	0.001	Yes	2.77	-0.001	4.0	GoodResponse	1	0.271	n/a	3	5	ButtonPress	Win	True
62.128	0.35	Win2	1.0	n/a	Yes	2.77	n/a	n/a	GoodResponse	1	n/a	n/a	3	5	Blank	Win	True
62.478	1.45	Win2	1.0	n/a	Yes	2.77	n/a	5.0	GoodResponse	1	0.036	61.514	3	5	Feedback	Win	True
63.928	2.77	Win2	1.0	n/a	Yes	2.77	n/a	n/a	GoodResponse	1	0.0	n/a	3	5	ISIslide	Win	True
66.727	0.25	Lose2	1.0	0.0	Yes	2.723	0.027	n/a	GoodResponse	0	n/a	n/a	3	6	Cue	AvoidedLoss	True
66.977	3.95	Lose2	1.0	0.0	Yes	2.723	0.0	n/a	GoodResponse	0	n/a	n/a	3	6	Fixation	AvoidedLoss	True
70.925	0.34	Lose2	1.0	0.002	Yes	2.723	-0.002	4.0	GoodResponse	0	0.239	70.164	3	6	Target	AvoidedLoss	True
71.164	0.3	Lose2	1.0	0.002	Yes	2.723	-0.002	4.0	GoodResponse	0	0.239	n/a	3	6	ButtonPress	AvoidedLoss	True
71.275	0.36	Lose2	1.0	n/a	Yes	2.723	n/a	n/a	GoodResponse	0	n/a	n/a	3	6	Blank	AvoidedLoss	True
71.625	1.45	Lose2	1.0	n/a	Yes	2.723	n/a	5.0	GoodResponse	0	0.011	70.636	3	6	Feedback	AvoidedLoss	True
73.075	2.723	Lose2	1.0	n/a	Yes	2.723	n/a	n/a	GoodResponse	0	0.0	n/a	3	6	ISIslide	AvoidedLoss	True
75.824	0.25	Lose2	1.0	0.0	Yes	4.026	0.024	n/a	GoodResponse	0	n/a	n/a	3	7	Cue	AvoidedLoss	True
76.074	4.05	Lose2	1.0	0.0	Yes	4.026	0.0	n/a	GoodResponse	0	n/a	n/a	3	7	Fixation	AvoidedLoss	True
80.122	0.33	Lose2	1.0	0.002	Yes	4.026	-0.002	4.0	GoodResponse	0	0.264	79.386	3	7	Target	AvoidedLoss	True
80.386	0.3	Lose2	1.0	0.002	Yes	4.026	-0.002	4.0	GoodResponse	0	0.264	n/a	3	7	ButtonPress	AvoidedLoss	True
80.455	0.37	Lose2	1.0	n/a	Yes	4.026	n/a	n/a	GoodResponse	0	n/a	n/a	3	7	Blank	AvoidedLoss	True
80.822	1.45	Lose2	1.0	n/a	Yes	4.026	n/a	5.0	GoodResponse	0	0.033	79.855	3	7	Feedback	AvoidedLoss	True
82.271	4.026	Lose2	1.0	n/a	Yes	4.026	n/a	n/a	GoodResponse	0	0.0	n/a	3	7	ISIslide	AvoidedLoss	True
86.32	0.25	Lose2	0.8889	0.0	No	3.03	0.02	n/a	NoResponse	-1	n/a	n/a	2	8	Cue	Loss	True
86.57	3.95	Lose2	0.8889	0.0	No	3.03	0.0	n/a	NoResponse	-1	n/a	n/a	2	8	Fixation	Loss	True
90.519	0.32	Lose2	0.8889	0.001	No	3.03	-0.001	4.0	NoResponse	-1	0.352	89.871	2	8	Target	Loss	True
90.852	0.38	Lose2	0.8889	n/a	No	3.03	n/a	n/a	NoResponse	-1	n/a	n/a	2	8	Blank	Loss	True
90.871	0.3	Lose2	0.8889	0.001	No	3.03	-0.001	4.0	NoResponse	-1	0.352	n/a	2	8	ButtonPress	Loss	True
91.218	1.45	Lose2	0.8889	n/a	No	3.03	n/a	5.0	NoResponse	-1	0.028	90.246	2	8	Feedback	Loss	True
92.668	3.03	Lose2	0.8889	n/a	No	3.03	n/a	n/a	NoResponse	-1	0.0	n/a	2	8	ISIslide	Loss	True
95.717	0.25	Lose2	0.9	0.0	Yes	3.133	0.017	n/a	GoodResponse	0	n/a	n/a	2	9	Cue	AvoidedLoss	True
95.967	3.95	Lose2	0.9	0.0	Yes	3.133	0.0	n/a	GoodResponse	0	n/a	n/a	2	9	Fixation	AvoidedLoss	True
99.915	0.31	Lose2	0.9	0.002	Yes	3.133	-0.002	4.0	GoodResponse	0	0.309	99.224	2	9	Target	AvoidedLoss	True
100.224	0.3	Lose2	0.9	0.002	Yes	3.133	-0.002	4.0	GoodResponse	0	0.309	n/a	2	9	ButtonPress	AvoidedLoss	True
100.232	0.39	Lose2	0.9	n/a	Yes	3.133	n/a	n/a	GoodResponse	0	n/a	n/a	2	9	Blank	AvoidedLoss	True
100.615	1.45	Lose2	0.9	n/a	Yes	3.133	n/a	5.0	GoodResponse	0	0.046	99.661	2	9	Feedback	AvoidedLoss	True
102.064	3.133	Lose2	0.9	n/a	Yes	3.133	n/a	n/a	GoodResponse	0	0.0	n/a	2	9	ISIslide	AvoidedLoss	True
105.213	0.25	Control	0.9091	0.0	Yes	3.287	0.013	n/a	GoodResponse	0	n/a	n/a	2	10	Cue	Neutral	True
105.463	4.0	Control	0.9091	0.0	Yes	3.287	0.0	n/a	GoodResponse	0	n/a	n/a	2	10	Fixation	Neutral	True
109.462	0.3	Control	0.9091	0.001	Yes	3.287	-0.001	4.0	GoodResponse	0	0.268	108.73	2	10	Target	Neutral	True
109.73	0.3	Control	0.9091	0.001	Yes	3.287	-0.001	4.0	GoodResponse	0	0.268	n/a	2	10	ButtonPress	Neutral	True
109.762	0.4	Control	0.9091	n/a	Yes	3.287	n/a	n/a	GoodResponse	0	n/a	n/a	2	10	Blank	Neutral	True
110.162	1.45	Control	0.9091	n/a	Yes	3.287	n/a	5.0	GoodResponse	0	0.01	109.172	2	10	Feedback	Neutral	True
111.611	3.287	Control	0.9091	n/a	Yes	3.287	n/a	n/a	GoodResponse	0	0.0	n/a	2	10	ISIslide	Neutral	True
114.927	0.25	Lose2	0.9167000000000001	0.0	Yes	2.723	0.027	n/a	GoodResponse	0	n/a	n/a	2	11	Cue	AvoidedLoss	True
115.177	4.05	Lose2	0.9167000000000001	0.0	Yes	2.723	0.0	n/a	GoodResponse	0	n/a	n/a	2	11	Fixation	AvoidedLoss	True
119.225	0.29	Lose2	0.9167000000000001	0.002	Yes	2.723	-0.002	4.0	GoodResponse	0	0.257	118.482	2	11	Target	AvoidedLoss	True
119.482	0.3	Lose2	0.9167000000000001	0.002	Yes	2.723	-0.002	4.0	GoodResponse	0	0.257	n/a	2	11	ButtonPress	AvoidedLoss	True
119.525	0.41	Lose2	0.9167000000000001	n/a	Yes	2.723	n/a	n/a	GoodResponse	0	n/a	n/a	2	11	Blank	AvoidedLoss	True
119.925	1.45	Lose2	0.9167000000000001	n/a	Yes	2.723	n/a	5.0	GoodResponse	0	0.006	118.931	2	11	Feedback	AvoidedLoss	True
121.374	2.723	Lose2	0.9167000000000001	n/a	Yes	2.723	n/a	n/a	GoodResponse	0	0.0	n/a	2	11	ISIslide	AvoidedLoss	True
124.123	0.25	Control	0.8462000000000001	0.001	No	2.977	0.023	n/a	NoResponse	0	n/a	n/a	2	12	Cue	Neutral	True
124.373	3.9	Control	0.8462000000000001	0.0	No	2.977	0.0	n/a	NoResponse	0	n/a	n/a	2	12	Fixation	Neutral	True
128.272	0.28	Control	0.8462000000000001	0.001	No	2.977	-0.001	4.0	NoResponse	0	0.306	127.578	2	12	Target	Neutral	True
128.555	0.42	Control	0.8462000000000001	n/a	No	2.977	n/a	n/a	NoResponse	0	n/a	n/a	2	12	Blank	Neutral	True
128.578	0.3	Control	0.8462000000000001	0.001	No	2.977	-0.001	4.0	NoResponse	0	0.306	n/a	2	12	ButtonPress	Neutral	True
128.972	1.45	Control	0.8462000000000001	n/a	No	2.977	n/a	5.0	NoResponse	0	0.029	128.001	2	12	Feedback	Neutral	True
130.421	2.977	Control	0.8462000000000001	n/a	No	2.977	n/a	n/a	NoResponse	0	0.0	n/a	2	12	ISIslide	Neutral	True
133.42	0.25	Control	0.7857	0.0	No	2.78	0.02	n/a	NoResponse	0	n/a	n/a	2	13	Cue	Neutral	True
133.67	4.0	Control	0.7857	0.0	No	2.78	0.0	n/a	NoResponse	0	n/a	n/a	2	13	Fixation	Neutral	True
137.669	0.27	Control	0.7857	0.001	No	2.78	-0.001	4.0	NoResponse	0	0.304	136.973	2	13	Target	Neutral	True
137.952	0.43	Control	0.7857	n/a	No	2.78	n/a	n/a	NoResponse	0	n/a	n/a	2	13	Blank	Neutral	True
137.973	0.3	Control	0.7857	0.001	No	2.78	-0.001	4.0	NoResponse	0	0.304	n/a	2	13	ButtonPress	Neutral	True
138.369	1.45	Control	0.7857	n/a	No	2.78	n/a	5.0	NoResponse	0	0.047	137.416	2	13	Feedback	Neutral	True
139.818	2.78	Control	0.7857	n/a	No	2.78	n/a	n/a	NoResponse	0	0.0	n/a	2	13	ISIslide	Neutral	True
142.617	0.25	Win2	0.7333	0.0	No	2.683	0.017	n/a	NoResponse	0	n/a	n/a	2	14	Cue	MissedWin	True
142.867	4.1	Win2	0.7333	0.0	No	2.683	0.0	n/a	NoResponse	0	n/a	n/a	2	14	Fixation	MissedWin	True
146.965	0.26	Win2	0.7333	0.002	No	2.683	-0.002	4.0	NoResponse	0	0.397	146.362	2	14	Target	MissedWin	True
147.232	0.44	Win2	0.7333	n/a	No	2.683	n/a	n/a	NoResponse	0	n/a	n/a	2	14	Blank	MissedWin	True
147.362	0.3	Win2	0.7333	0.002	No	2.683	-0.002	4.0	NoResponse	0	0.397	n/a	2	14	ButtonPress	MissedWin	True
147.665	1.45	Win2	0.7333	n/a	No	2.683	n/a	5.0	NoResponse	0	0.02	146.685	2	14	Feedback	MissedWin	True
149.115	2.683	Win2	0.7333	n/a	No	2.683	n/a	n/a	NoResponse	0	0.0	n/a	2	14	ISIslide	MissedWin	True
151.814	0.25	Control	0.6875	0.0	No	2.986	0.014	n/a	NoResponse	0	n/a	n/a	2	15	Cue	Neutral	True
152.064	4.0	Control	0.6875	0.0	No	2.986	0.0	n/a	NoResponse	0	n/a	n/a	2	15	Fixation	Neutral	True
156.062	0.25	Control	0.6875	0.002	No	2.986	-0.002	4.0	NoResponse	0	0.32	155.382	2	15	Target	Neutral	True
156.312	0.45	Control	0.6875	n/a	No	2.986	n/a	n/a	NoResponse	0	n/a	n/a	2	15	Blank	Neutral	True
156.382	0.3	Control	0.6875	0.002	No	2.986	-0.002	4.0	NoResponse	0	0.32	n/a	2	15	ButtonPress	Neutral	True
156.762	1.45	Control	0.6875	n/a	No	2.986	n/a	5.0	NoResponse	0	0.044	155.806	2	15	Feedback	Neutral	True
158.212	2.986	Control	0.6875	n/a	No	2.986	n/a	n/a	NoResponse	0	0.0	n/a	2	15	ISIslide	Neutral	True
161.227	0.25	Win2	0.7059000000000001	0.0	Yes	2.873	0.027	n/a	GoodResponse	1	n/a	n/a	3	16	Cue	Win	True
161.477	4.0	Win2	0.7059000000000001	0.0	Yes	2.873	0.0	n/a	GoodResponse	1	n/a	n/a	3	16	Fixation	Win	True
165.476	0.24	Win2	0.7059000000000001	0.001	Yes	2.873	-0.001	4.0	GoodResponse	1	0.216	164.692	3	16	Target	Win	True
165.692	0.3	Win2	0.7059000000000001	0.001	Yes	2.873	-0.001	4.0	GoodResponse	1	0.216	n/a	3	16	ButtonPress	Win	True
165.726	0.46	Win2	0.7059000000000001	n/a	Yes	2.873	n/a	n/a	GoodResponse	1	n/a	n/a	3	16	Blank	Win	True
166.175	1.45	Win2	0.7059000000000001	n/a	Yes	2.873	n/a	5.0	GoodResponse	1	0.045	165.22	3	16	Feedback	Win	True
167.625	2.873	Win2	0.7059000000000001	n/a	Yes	2.873	n/a	n/a	GoodResponse	1	0.0	n/a	3	16	ISIslide	Win	True
170.524	0.25	Lose2	0.6667000000000001	0.0	No	2.726	0.024	n/a	NoResponse	-1	n/a	n/a	2	17	Cue	Loss	True
170.774	3.95	Lose2	0.6667000000000001	0.0	No	2.726	0.0	n/a	NoResponse	-1	n/a	n/a	2	17	Fixation	Loss	True
174.722	0.23	Lose2	0.6667000000000001	0.002	No	2.726	-0.002	4.0	NoResponse	-1	0.242	173.964	2	17	Target	Loss	True
174.956	0.47	Lose2	0.6667000000000001	n/a	No	2.726	n/a	n/a	NoResponse	-1	n/a	n/a	2	17	Blank	Loss	True
174.964	0.3	Lose2	0.6667000000000001	0.002	No	2.726	-0.002	4.0	NoResponse	-1	0.242	n/a	2	17	ButtonPress	Loss	True
175.422	1.45	Lose2	0.6667000000000001	n/a	No	2.726	n/a	5.0	NoResponse	-1	0.018	174.44	2	17	Feedback	Loss	True
176.872	2.726	Lose2	0.6667000000000001	n/a	No	2.726	n/a	n/a	NoResponse	-1	0.0	n/a	2	17	ISIslide	Loss	True
179.621	0.25	Lose2	0.6315999999999999	0.0	No	2.729	0.021	n/a	NoResponse	-1	n/a	n/a	1	18	Cue	Loss	True
179.871	4.05	Lose2	0.6315999999999999	0.0	No	2.729	0.0	n/a	NoResponse	-1	n/a	n/a	1	18	Fixation	Loss	True
183.919	0.22	Lose2	0.6315999999999999	0.002	No	2.729	-0.002	4.0	NoResponse	-1	0.287	183.206	1	18	Target	Loss	True
184.153	0.48	Lose2	0.6315999999999999	n/a	No	2.729	n/a	n/a	NoResponse	-1	n/a	n/a	1	18	Blank	Loss	True
184.206	0.3	Lose2	0.6315999999999999	0.002	No	2.729	-0.002	4.0	NoResponse	-1	0.287	n/a	1	18	ButtonPress	Loss	True
184.619	1.45	Lose2	0.6315999999999999	n/a	No	2.729	n/a	5.0	NoResponse	-1	0.041	183.66	1	18	Feedback	Loss	True
186.069	2.729	Lose2	0.6315999999999999	n/a	No	2.729	n/a	n/a	NoResponse	-1	0.0	n/a	1	18	ISIslide	Loss	True
188.818	0.25	Control	0.6	0.0	No	2.932	0.018	n/a	NoResponse	0	n/a	n/a	1	19	Cue	Neutral	True
189.067	3.95	Control	0.6	0.001	No	2.932	-0.001	n/a	NoResponse	0	n/a	n/a	1	19	Fixation	Neutral	True
193.016	0.23	Control	0.6	0.002	No	2.932	-0.002	4.0	NoResponse	0	0.258	192.274	1	19	Target	Neutral	True
193.249	0.47	Control	0.6	n/a	No	2.932	n/a	n/a	NoResponse	0	n/a	n/a	1	19	Blank	Neutral	True
193.274	0.3	Control	0.6	0.002	No	2.932	-0.002	4.0	NoResponse	0	0.258	n/a	1	19	ButtonPress	Neutral	True
193.716	1.45	Control	0.6	n/a	No	2.932	n/a	5.0	NoResponse	0	0.017	192.733	1	19	Feedback	Neutral	True
195.165	2.932	Control	0.6	n/a	No	2.932	n/a	n/a	NoResponse	0	0.0	n/a	1	19	ISIslide	Neutral	True
198.114	0.25	Control	0.5714	0.0	No	2.636	0.014	n/a	NoResponse	0	n/a	n/a	1	20	Cue	Neutral	True
198.364	4.05	Control	0.5714	0.0	No	2.636	0.0	n/a	NoResponse	0	n/a	n/a	1	20	Fixation	Neutral	True
202.413	0.24	Control	0.5714	0.001	No	2.636	-0.001	4.0	NoResponse	0	0.288	201.701	1	20	Target	Neutral	True
202.663	0.46	Control	0.5714	n/a	No	2.636	n/a	n/a	NoResponse	0	n/a	n/a	1	20	Blank	Neutral	True
202.701	0.3	Control	0.5714	0.001	No	2.636	-0.001	4.0	NoResponse	0	0.288	n/a	1	20	ButtonPress	Neutral	True
203.113	1.45	Control	0.5714	n/a	No	2.636	n/a	5.0	NoResponse	0	0.035	202.148	1	20	Feedback	Neutral	True
204.562	2.636	Control	0.5714	n/a	No	2.636	n/a	n/a	NoResponse	0	0.0	n/a	1	20	ISIslide	Neutral	True
207.228	0.25	Control	0.5909	0.0	Yes	2.772	0.028	n/a	GoodResponse	0	n/a	n/a	1	21	Cue	Neutral	True
207.478	4.1	Control	0.5909	0.0	Yes	2.772	0.0	n/a	GoodResponse	0	n/a	n/a	1	21	Fixation	Neutral	True
211.576	0.25	Control	0.5909	0.002	Yes	2.772	-0.002	4.0	GoodResponse	0	0.232	210.808	1	21	Target	Neutral	True
211.808	0.3	Control	0.5909	0.002	Yes	2.772	-0.002	4.0	GoodResponse	0	0.232	n/a	1	21	ButtonPress	Neutral	True
211.826	0.45	Control	0.5909	n/a	Yes	2.772	n/a	n/a	GoodResponse	0	n/a	n/a	1	21	Blank	Neutral	True
212.276	1.45	Control	0.5909	n/a	Yes	2.772	n/a	5.0	GoodResponse	0	0.042	211.318	1	21	Feedback	Neutral	True
213.726	2.772	Control	0.5909	n/a	Yes	2.772	n/a	n/a	GoodResponse	0	0.0	n/a	1	21	ISIslide	Neutral	True
216.525	0.25	Control	0.5652	0.0	No	2.775	0.025	n/a	LatePress	0	n/a	n/a	1	22	Cue	Neutral	True
216.774	4.0	Control	0.5652	0.001	No	2.775	-0.001	n/a	LatePress	0	n/a	n/a	1	22	Fixation	Neutral	True
220.773	0.26	Control	0.5652	0.002	No	2.775	-0.002	4.0	LatePress	0	0.261	220.034	1	22	Target	Neutral	True
221.034	0.3	Control	0.5652	0.002	No	2.775	-0.002	4.0	LatePress	0	0.261	n/a	1	22	ButtonPress	Neutral	True
221.04	0.44	Control	0.5652	n/a	No	2.775	n/a	n/a	LatePress	0	n/a	n/a	1	22	Blank	Neutral	True
221.473	1.45	Control	0.5652	n/a	No	2.775	n/a	5.0	LatePress	0	0.015	220.488	1	22	Feedback	Neutral	True
222.922	2.775	Control	0.5652	n/a	No	2.775	n/a	n/a	LatePress	0	0.0	n/a	1	22	ISIslide	Neutral	True
225.721	0.25	Control	0.5832999999999999	0.0	Yes	2.779	0.021	n/a	GoodResponse	0	n/a	n/a	1	23	Cue	Neutral	True
225.971	3.9	Control	0.5832999999999999	0.0	Yes	2.779	0.0	n/a	GoodResponse	0	n/a	n/a	1	23	Fixation	Neutral	True
229.87	0.27	Control	0.5832999999999999	0.001	Yes	2.779	-0.001	4.0	GoodResponse	0	0.233	229.103	1	23	Target	Neutral	True
230.103	0.3	Control	0.5832999999999999	0.001	Yes	2.779	-0.001	4.0	GoodResponse	0	0.233	n/a	1	23	ButtonPress	Neutral	True
230.136	0.43	Control	0.5832999999999999	n/a	Yes	2.779	n/a	n/a	GoodResponse	0	n/a	n/a	1	23	Blank	Neutral	True
230.57	1.45	Control	0.5832999999999999	n/a	Yes	2.779	n/a	5.0	GoodResponse	0	0.04	229.61	1	23	Feedback	Neutral	True
232.019	2.779	Control	0.5832999999999999	n/a	Yes	2.779	n/a	n/a	GoodResponse	0	0.0	n/a	1	23	ISIslide	Neutral	True
234.818	0.25	Win2	0.6	0.0	Yes	3.132	0.018	n/a	GoodResponse	1	n/a	n/a	2	24	Cue	Win	True
235.068	3.95	Win2	0.6	0.0	Yes	3.132	0.0	n/a	GoodResponse	1	n/a	n/a	2	24	Fixation	Win	True
239.017	0.28	Win2	0.6	0.001	Yes	3.132	-0.001	4.0	GoodResponse	1	0.253	238.27	2	24	Target	Win	True
239.27	0.3	Win2	0.6	0.001	Yes	3.132	-0.001	4.0	GoodResponse	1	0.253	n/a	2	24	ButtonPress	Win	True
239.3	0.42	Win2	0.6	n/a	Yes	3.132	n/a	n/a	GoodResponse	1	n/a	n/a	2	24	Blank	Win	True
239.716	1.45	Win2	0.6	n/a	Yes	3.132	n/a	5.0	GoodResponse	1	0.017	238.733	2	24	Feedback	Win	True
241.166	3.132	Win2	0.6	n/a	Yes	3.132	n/a	n/a	GoodResponse	1	0.0	n/a	2	24	ISIslide	Win	True
244.315	0.25	Win2	0.6154	0.0	Yes	3.085	0.015	n/a	GoodResponse	1	n/a	n/a	3	25	Cue	Win	True
244.565	4.0	Win2	0.6154	0.0	Yes	3.085	0.0	n/a	GoodResponse	1	n/a	n/a	3	25	Fixation	Win	True
248.563	0.29	Win2	0.6154	0.002	Yes	3.085	-0.002	4.0	GoodResponse	1	0.265	247.828	3	25	Target	Win	True
248.828	0.3	Win2	0.6154	0.002	Yes	3.085	-0.002	4.0	GoodResponse	1	0.265	n/a	3	25	ButtonPress	Win	True
248.863	0.41	Win2	0.6154	n/a	Yes	3.085	n/a	n/a	GoodResponse	1	n/a	n/a	3	25	Blank	Win	True
249.263	1.45	Win2	0.6154	n/a	Yes	3.085	n/a	5.0	GoodResponse	1	0.031	248.294	3	25	Feedback	Win	True
250.713	3.085	Win2	0.6154	n/a	Yes	3.085	n/a	n/a	GoodResponse	1	0.0	n/a	3	25	ISIslide	Win	True
253.828	0.25	Win2	0.6296	0.0	Yes	2.922	0.028	n/a	GoodResponse	1	n/a	n/a	4	26	Cue	Win	True
254.078	3.95	Win2	0.6296	0.0	Yes	2.922	0.0	n/a	GoodResponse	1	n/a	n/a	4	26	Fixation	Win	True
258.027	0.3	Win2	0.6296	0.001	Yes	2.922	-0.001	4.0	GoodResponse	1	0.255	257.282	4	26	Target	Win	True
258.282	0.3	Win2	0.6296	0.001	Yes	2.922	-0.001	4.0	GoodResponse	1	0.255	n/a	4	26	ButtonPress	Win	True
258.327	0.4	Win2	0.6296	n/a	Yes	2.922	n/a	n/a	GoodResponse	1	n/a	n/a	4	26	Blank	Win	True
258.727	1.45	Win2	0.6296	n/a	Yes	2.922	n/a	5.0	GoodResponse	1	0.029	257.756	4	26	Feedback	Win	True
260.176	2.922	Win2	0.6296	n/a	Yes	2.922	n/a	n/a	GoodResponse	1	0.0	n/a	4	26	ISIslide	Win	True
263.125	0.25	Lose2	0.6429	0.0	Yes	2.825	0.025	n/a	GoodResponse	0	n/a	n/a	4	27	Cue	AvoidedLoss	True
263.375	4.05	Lose2	0.6429	0.0	Yes	2.825	0.0	n/a	GoodResponse	0	n/a	n/a	4	27	Fixation	AvoidedLoss	True
267.423	0.31	Lose2	0.6429	0.002	Yes	2.825	-0.002	4.0	GoodResponse	0	0.268	266.691	4	27	Target	AvoidedLoss	True
267.691	0.3	Lose2	0.6429	0.002	Yes	2.825	-0.002	4.0	GoodResponse	0	0.268	n/a	4	27	ButtonPress	AvoidedLoss	True
267.74	0.39	Lose2	0.6429	n/a	Yes	2.825	n/a	n/a	GoodResponse	0	n/a	n/a	4	27	Blank	AvoidedLoss	True
268.123	1.45	Lose2	0.6429	n/a	Yes	2.825	n/a	5.0	GoodResponse	0	0.048	267.171	4	27	Feedback	AvoidedLoss	True
269.573	2.825	Lose2	0.6429	n/a	Yes	2.825	n/a	n/a	GoodResponse	0	0.0	n/a	4	27	ISIslide	AvoidedLoss	True
272.422	0.25	Control	0.6207	0.0	No	2.828	0.022	n/a	NoResponse	0	n/a	n/a	4	28	Cue	Neutral	True
272.672	4.05	Control	0.6207	0.0	No	2.828	0.0	n/a	NoResponse	0	n/a	n/a	4	28	Fixation	Neutral	True
276.72	0.32	Control	0.6207	0.002	No	2.828	-0.002	4.0	NoResponse	0	0.345	276.065	4	28	Target	Neutral	True
277.053	0.38	Control	0.6207	n/a	No	2.828	n/a	n/a	NoResponse	0	n/a	n/a	4	28	Blank	Neutral	True
277.065	0.3	Control	0.6207	0.002	No	2.828	-0.002	4.0	NoResponse	0	0.345	n/a	4	28	ButtonPress	Neutral	True
277.42	1.45	Control	0.6207	n/a	No	2.828	n/a	5.0	NoResponse	0	0.019	276.439	4	28	Feedback	Neutral	True
278.869	2.828	Control	0.6207	n/a	No	2.828	n/a	n/a	NoResponse	0	0.0	n/a	4	28	ISIslide	Neutral	True
281.718	0.25	Lose2	0.6	0.001	No	2.832	0.018	n/a	NoResponse	-1	n/a	n/a	3	29	Cue	Loss	True
281.968	3.95	Lose2	0.6	0.0	No	2.832	0.0	n/a	NoResponse	-1	n/a	n/a	3	29	Fixation	Loss	True
285.917	0.33	Lose2	0.6	0.001	No	2.832	-0.001	4.0	NoResponse	-1	0.529	285.446	3	29	Target	Loss	True
286.25	0.37	Lose2	0.6	n/a	No	2.832	n/a	n/a	NoResponse	-1	n/a	n/a	3	29	Blank	Loss	True
286.446	0.3	Lose2	0.6	0.001	No	2.832	-0.001	4.0	NoResponse	-1	0.529	n/a	3	29	ButtonPress	Loss	True
286.617	1.45	Lose2	0.6	n/a	No	2.832	n/a	5.0	NoResponse	-1	0.042	285.659	3	29	Feedback	Loss	True
288.066	2.832	Lose2	0.6	n/a	No	2.832	n/a	n/a	NoResponse	-1	0.0	n/a	3	29	ISIslide	Loss	True
290.915	0.25	Win2	0.6129	0.0	Yes	2.785	0.015	n/a	GoodResponse	1	n/a	n/a	4	30	Cue	Win	True
291.165	3.9	Win2	0.6129	0.0	Yes	2.785	0.0	n/a	GoodResponse	1	n/a	n/a	4	30	Fixation	Win	True
295.064	0.34	Win2	0.6129	0.001	Yes	2.785	-0.001	4.0	GoodResponse	1	0.248	294.312	4	30	Target	Win	True
295.312	0.3	Win2	0.6129	0.001	Yes	2.785	-0.001	4.0	GoodResponse	1	0.248	n/a	4	30	ButtonPress	Win	True
295.414	0.36	Win2	0.6129	n/a	Yes	2.785	n/a	n/a	GoodResponse	1	n/a	n/a	4	30	Blank	Win	True
295.764	1.45	Win2	0.6129	n/a	Yes	2.785	n/a	5.0	GoodResponse	1	0.017	294.781	4	30	Feedback	Win	True
297.213	2.785	Win2	0.6129	n/a	Yes	2.785	n/a	n/a	GoodResponse	1	0.0	n/a	4	30	ISIslide	Win	True
300.029	0.25	Lose2	0.625	0.0	Yes	2.821	0.029	n/a	GoodResponse	0	n/a	n/a	4	31	Cue	AvoidedLoss	True
300.279	4.05	Lose2	0.625	0.0	Yes	2.821	0.0	n/a	GoodResponse	0	n/a	n/a	4	31	Fixation	AvoidedLoss	True
304.327	0.35	Lose2	0.625	0.002	Yes	2.821	-0.002	4.0	GoodResponse	0	0.342	303.669	4	31	Target	AvoidedLoss	True
304.669	0.3	Lose2	0.625	0.002	Yes	2.821	-0.002	4.0	GoodResponse	0	0.342	n/a	4	31	ButtonPress	AvoidedLoss	True
304.677	0.35	Lose2	0.625	n/a	Yes	2.821	n/a	n/a	GoodResponse	0	n/a	n/a	4	31	Blank	AvoidedLoss	True
305.027	1.45	Lose2	0.625	n/a	Yes	2.821	n/a	5.0	GoodResponse	0	0.022	304.049	4	31	Feedback	AvoidedLoss	True
306.477	2.821	Lose2	0.625	n/a	Yes	2.821	n/a	n/a	GoodResponse	0	0.0	n/a	4	31	ISIslide	AvoidedLoss	True
309.326	0.25	Lose2	0.6364	0.0	Yes	2.624	0.026	n/a	GoodResponse	0	n/a	n/a	4	32	Cue	AvoidedLoss	True
309.575	4.15	Lose2	0.6364	0.001	Yes	2.624	-0.001	n/a	GoodResponse	0	n/a	n/a	4	32	Fixation	AvoidedLoss	True
313.724	0.36	Lose2	0.6364	0.002	Yes	2.624	-0.002	4.0	GoodResponse	0	0.261	312.985	4	32	Target	AvoidedLoss	True
313.985	0.3	Lose2	0.6364	0.002	Yes	2.624	-0.002	4.0	GoodResponse	0	0.261	n/a	4	32	ButtonPress	AvoidedLoss	True
314.091	0.34	Lose2	0.6364	n/a	Yes	2.624	n/a	n/a	GoodResponse	0	n/a	n/a	4	32	Blank	AvoidedLoss	True
314.424	1.45	Lose2	0.6364	n/a	Yes	2.624	n/a	5.0	GoodResponse	0	0.039	313.463	4	32	Feedback	AvoidedLoss	True
315.873	2.624	Lose2	0.6364	n/a	Yes	2.624	n/a	n/a	GoodResponse	0	0.0	n/a	4	32	ISIslide	AvoidedLoss	True
318.522	0.25	Win2	0.6470999999999999	0.0	Yes	2.678	0.022	n/a	GoodResponse	1	n/a	n/a	5	33	Cue	Win	True
318.772	4.0	Win2	0.6470999999999999	0.0	Yes	2.678	0.0	n/a	GoodResponse	1	n/a	n/a	5	33	Fixation	Win	True
322.771	0.37	Win2	0.6470999999999999	0.001	Yes	2.678	-0.001	4.0	GoodResponse	1	0.217	321.988	5	33	Target	Win	True
322.988	0.3	Win2	0.6470999999999999	0.001	Yes	2.678	-0.001	4.0	GoodResponse	1	0.217	n/a	5	33	ButtonPress	Win	True
323.137	0.33	Win2	0.6470999999999999	n/a	Yes	2.678	n/a	n/a	GoodResponse	1	n/a	n/a	5	33	Blank	Win	True
323.471	1.45	Win2	0.6470999999999999	n/a	Yes	2.678	n/a	5.0	GoodResponse	1	0.017	322.488	5	33	Feedback	Win	True
324.92	2.678	Win2	0.6470999999999999	n/a	Yes	2.678	n/a	n/a	GoodResponse	1	0.0	n/a	5	33	ISIslide	Win	True
327.619	0.25	Lose2	0.6570999999999999	0.0	Yes	2.631	0.019	n/a	GoodResponse	0	n/a	n/a	5	34	Cue	AvoidedLoss	True
327.869	4.05	Lose2	0.6570999999999999	0.0	Yes	2.631	0.0	n/a	GoodResponse	0	n/a	n/a	5	34	Fixation	AvoidedLoss	True
331.918	0.38	Lose2	0.6570999999999999	0.001	Yes	2.631	-0.001	4.0	GoodResponse	0	0.358	331.276	5	34	Target	AvoidedLoss	True
332.276	0.3	Lose2	0.6570999999999999	0.001	Yes	2.631	-0.001	4.0	GoodResponse	0	0.358	n/a	5	34	ButtonPress	AvoidedLoss	True
332.301	0.32	Lose2	0.6570999999999999	n/a	Yes	2.631	n/a	n/a	GoodResponse	0	n/a	n/a	5	34	Blank	AvoidedLoss	True
332.617	1.45	Lose2	0.6570999999999999	n/a	Yes	2.631	n/a	5.0	GoodResponse	0	0.042	331.659	5	34	Feedback	AvoidedLoss	True
334.067	2.631	Lose2	0.6570999999999999	n/a	Yes	2.631	n/a	n/a	GoodResponse	0	0.0	n/a	5	34	ISIslide	AvoidedLoss	True
336.716	0.25	Lose2	0.6667000000000001	0.0	Yes	2.684	0.016	n/a	GoodResponse	0	n/a	n/a	5	35	Cue	AvoidedLoss	True
336.966	4.0	Lose2	0.6667000000000001	0.0	Yes	2.684	0.0	n/a	GoodResponse	0	n/a	n/a	5	35	Fixation	AvoidedLoss	True
340.964	0.38	Lose2	0.6667000000000001	0.002	Yes	2.684	-0.002	4.0	GoodResponse	0	0.299	340.263	5	35	Target	AvoidedLoss	True
341.263	0.3	Lose2	0.6667000000000001	0.002	Yes	2.684	-0.002	4.0	GoodResponse	0	0.299	n/a	5	35	ButtonPress	AvoidedLoss	True
341.348	0.32	Lose2	0.6667000000000001	n/a	Yes	2.684	n/a	n/a	GoodResponse	0	n/a	n/a	5	35	Blank	AvoidedLoss	True
341.664	1.45	Lose2	0.6667000000000001	n/a	Yes	2.684	n/a	5.0	GoodResponse	0	0.019	340.683	5	35	Feedback	AvoidedLoss	True
343.114	2.684	Lose2	0.6667000000000001	n/a	Yes	2.684	n/a	n/a	GoodResponse	0	0.0	n/a	5	35	ISIslide	AvoidedLoss	True
345.829	0.25	Control	0.6757	0.001	Yes	2.671	0.029	n/a	GoodResponse	0	n/a	n/a	5	36	Cue	Neutral	False
346.079	4.0	Control	0.6757	0.0	Yes	2.671	0.0	4.0	GoodResponse	0	0.135	345.214	5	36	Fixation	Neutral	False
346.214	0.3	Control	0.6757	0.0	Yes	2.671	0.0	4.0	GoodResponse	0	0.135	n/a	5	36	ButtonPress	Neutral	False
350.078	0.37	Control	0.6757	0.001	Yes	2.671	-0.001	4.0	GoodResponse	0	0.241	349.319	5	36	Target	Neutral	False
350.319	0.3	Control	0.6757	0.001	Yes	2.671	-0.001	4.0	GoodResponse	0	0.241	n/a	5	36	ButtonPress	Neutral	False
350.445	0.33	Control	0.6757	n/a	Yes	2.671	n/a	n/a	GoodResponse	0	n/a	n/a	5	36	Blank	Neutral	False
350.778	1.45	Control	0.6757	n/a	Yes	2.671	n/a	5.0	GoodResponse	0	0.027	349.805	5	36	Feedback	Neutral	False
352.227	2.671	Control	0.6757	n/a	Yes	2.671	n/a	n/a	GoodResponse	0	0.0	n/a	5	36	ISIslide	Neutral	False
354.926	0.25	Win2	0.6842	0.0	Yes	2.874	0.026	n/a	GoodResponse	1	n/a	n/a	6	37	Cue	Win	False
355.176	4.0	Win2	0.6842	0.0	Yes	2.874	0.0	4.0	GoodResponse	1	0.119	354.295	6	37	Fixation	Win	False
355.295	0.3	Win2	0.6842	0.0	Yes	2.874	0.0	4.0	GoodResponse	1	0.119	n/a	6	37	ButtonPress	Win	False
359.175	0.36	Win2	0.6842	0.001	Yes	2.874	-0.001	4.0	GoodResponse	1	0.259	358.434	6	37	Target	Win	False
359.434	0.3	Win2	0.6842	0.001	Yes	2.874	-0.001	4.0	GoodResponse	1	0.259	n/a	6	37	ButtonPress	Win	False
359.541	0.34	Win2	0.6842	n/a	Yes	2.874	n/a	n/a	GoodResponse	1	n/a	n/a	6	37	Blank	Win	False
359.875	1.45	Win2	0.6842	n/a	Yes	2.874	n/a	5.0	GoodResponse	1	0.006	358.881	6	37	Feedback	Win	False
361.324	2.874	Win2	0.6842	n/a	Yes	2.874	n/a	n/a	GoodResponse	1	0.0	n/a	6	37	ISIslide	Win	False
364.223	0.25	Lose2	0.6667000000000001	0.0	No	2.827	0.023	n/a	NoResponse	-1	n/a	n/a	5	38	Cue	Loss	False
364.473	3.95	Lose2	0.6667000000000001	0.0	No	2.827	0.0	n/a	NoResponse	-1	n/a	n/a	5	38	Fixation	Loss	False
368.422	0.35	Lose2	0.6667000000000001	0.001	No	2.827	-0.001	n/a	NoResponse	-1	n/a	n/a	5	38	Target	Loss	False
368.771	0.35	Lose2	0.6667000000000001	n/a	No	2.827	n/a	n/a	NoResponse	-1	n/a	n/a	5	38	Blank	Loss	False
369.121	1.45	Lose2	0.6667000000000001	n/a	No	2.827	n/a	5.0	NoResponse	-1	0.025	368.146	5	38	Feedback	Loss	False
370.571	2.827	Lose2	0.6667000000000001	n/a	No	2.827	n/a	n/a	NoResponse	-1	0.0	n/a	5	38	ISIslide	Loss	False
373.42	0.25	Win2	0.65	0.0	No	2.98	0.02	n/a	NoResponse	0	n/a	n/a	5	39	Cue	MissedWin	True
373.67	4.1	Win2	0.65	0.0	No	2.98	0.0	n/a	NoResponse	0	n/a	n/a	5	39	Fixation	MissedWin	True
377.768	0.34	Win2	0.65	0.002	No	2.98	-0.002	4.0	NoResponse	0	0.505	377.273	5	39	Target	MissedWin	True
378.118	0.36	Win2	0.65	n/a	No	2.98	n/a	n/a	NoResponse	0	n/a	n/a	5	39	Blank	MissedWin	True
378.273	0.3	Win2	0.65	0.002	No	2.98	-0.002	4.0	NoResponse	0	0.505	n/a	5	39	ButtonPress	MissedWin	True
378.468	1.45	Win2	0.65	n/a	No	2.98	n/a	5.0	NoResponse	0	0.044	377.512	5	39	Feedback	MissedWin	True
379.918	2.98	Win2	0.65	n/a	No	2.98	n/a	n/a	NoResponse	0	0.0	n/a	5	39	ISIslide	MissedWin	True
382.917	0.25	Win2	0.6585	0.0	Yes	2.733	0.017	n/a	GoodResponse	1	n/a	n/a	6	40	Cue	Win	False
383.166	3.95	Win2	0.6585	0.001	Yes	2.733	-0.001	4.0	GoodResponse	1	0.08	382.246	6	40	Fixation	Win	False
383.246	0.3	Win2	0.6585	0.001	Yes	2.733	-0.001	4.0	GoodResponse	1	0.08	n/a	6	40	ButtonPress	Win	False
387.115	0.35	Win2	0.6585	0.002	Yes	2.733	-0.002	4.0	GoodResponse	1	0.245	386.36	6	40	Target	Win	False
387.36	0.3	Win2	0.6585	0.002	Yes	2.733	-0.002	4.0	GoodResponse	1	0.245	n/a	6	40	ButtonPress	Win	False
387.465	0.35	Win2	0.6585	n/a	Yes	2.733	n/a	n/a	GoodResponse	1	n/a	n/a	6	40	Blank	Win	False
387.815	1.45	Win2	0.6585	n/a	Yes	2.733	n/a	5.0	GoodResponse	1	0.014	386.829	6	40	Feedback	Win	False
389.264	2.733	Win2	0.6585	n/a	Yes	2.733	n/a	n/a	GoodResponse	1	0.0	n/a	6	40	ISIslide	Win	False
392.03	0.25	Win2	0.6667000000000001	0.0	Yes	2.77	0.03	n/a	GoodResponse	1	n/a	n/a	7	41	Cue	Win	True
392.28	3.9	Win2	0.6667000000000001	0.0	Yes	2.77	0.0	n/a	GoodResponse	1	n/a	n/a	7	41	Fixation	Win	True
396.179	0.35	Win2	0.6667000000000001	0.001	Yes	2.77	-0.001	4.0	GoodResponse	1	0.228	395.407	7	41	Target	Win	True
396.407	0.3	Win2	0.6667000000000001	0.001	Yes	2.77	-0.001	4.0	GoodResponse	1	0.228	n/a	7	41	ButtonPress	Win	True
396.528	0.35	Win2	0.6667000000000001	n/a	Yes	2.77	n/a	n/a	GoodResponse	1	n/a	n/a	7	41	Blank	Win	True
396.878	1.45	Win2	0.6667000000000001	n/a	Yes	2.77	n/a	5.0	GoodResponse	1	0.024	395.902	7	41	Feedback	Win	True
398.328	2.77	Win2	0.6667000000000001	n/a	Yes	2.77	n/a	n/a	GoodResponse	1	0.0	n/a	7	41	ISIslide	Win	True
401.127	0.25	Control	0.6744	0.0	Yes	2.923	0.027	n/a	GoodResponse	0	n/a	n/a	7	42	Cue	Neutral	True
401.377	3.85	Control	0.6744	0.0	Yes	2.923	0.0	n/a	GoodResponse	0	n/a	n/a	7	42	Fixation	Neutral	True
405.225	0.34	Control	0.6744	0.002	Yes	2.923	-0.002	4.0	GoodResponse	0	0.279	404.504	7	42	Target	Neutral	True
405.504	0.3	Control	0.6744	0.002	Yes	2.923	-0.002	4.0	GoodResponse	0	0.279	n/a	7	42	ButtonPress	Neutral	True
405.575	0.36	Control	0.6744	n/a	Yes	2.923	n/a	n/a	GoodResponse	0	n/a	n/a	7	42	Blank	Neutral	True
405.925	1.45	Control	0.6744	n/a	Yes	2.923	n/a	5.0	GoodResponse	0	0.002	404.927	7	42	Feedback	Neutral	True
407.375	2.923	Control	0.6744	n/a	Yes	2.923	n/a	n/a	GoodResponse	0	0.0	n/a	7	42	ISIslide	Neutral	True
410.324	0.25	Win2	0.6818000000000001	0.0	Yes	3.176	0.024	n/a	GoodResponse	1	n/a	n/a	8	43	Cue	Win	True
410.574	4.0	Win2	0.6818000000000001	0.0	Yes	3.176	0.0	n/a	GoodResponse	1	n/a	n/a	8	43	Fixation	Win	True
414.572	0.33	Win2	0.6818000000000001	0.002	Yes	3.176	-0.002	4.0	GoodResponse	1	0.256	413.828	8	43	Target	Win	True
414.828	0.3	Win2	0.6818000000000001	0.002	Yes	3.176	-0.002	4.0	GoodResponse	1	0.256	n/a	8	43	ButtonPress	Win	True
414.905	0.37	Win2	0.6818000000000001	n/a	Yes	3.176	n/a	n/a	GoodResponse	1	n/a	n/a	8	43	Blank	Win	True
415.272	1.45	Win2	0.6818000000000001	n/a	Yes	3.176	n/a	5.0	GoodResponse	1	0.02	414.292	8	43	Feedback	Win	True
416.721	3.176	Win2	0.6818000000000001	n/a	Yes	3.176	n/a	n/a	GoodResponse	1	0.0	n/a	8	43	ISIslide	Win	True
419.92	0.25	Win2	0.6889	0.0	Yes	2.98	0.02	n/a	GoodResponse	1	n/a	n/a	9	44	Cue	Win	True
420.17	4.0	Win2	0.6889	0.0	Yes	2.98	0.0	n/a	GoodResponse	1	n/a	n/a	9	44	Fixation	Win	True
424.169	0.32	Win2	0.6889	0.001	Yes	2.98	-0.001	4.0	GoodResponse	1	0.201	423.37	9	44	Target	Win	True
424.37	0.3	Win2	0.6889	0.001	Yes	2.98	-0.001	4.0	GoodResponse	1	0.201	n/a	9	44	ButtonPress	Win	True
424.502	0.38	Win2	0.6889	n/a	Yes	2.98	n/a	n/a	GoodResponse	1	n/a	n/a	9	44	Blank	Win	True
424.869	1.45	Win2	0.6889	n/a	Yes	2.98	n/a	5.0	GoodResponse	1	0.033	423.902	9	44	Feedback	Win	True
426.318	2.98	Win2	0.6889	n/a	Yes	2.98	n/a	n/a	GoodResponse	1	0.0	n/a	9	44	ISIslide	Win	True
429.317	0.25	Control	0.6739	0.0	No	2.883	0.017	n/a	NoResponse	0	n/a	n/a	9	45	Cue	Neutral	True
429.567	4.1	Control	0.6739	0.0	No	2.883	0.0	n/a	NoResponse	0	n/a	n/a	9	45	Fixation	Neutral	True
433.665	0.31	Control	0.6739	0.002	No	2.883	-0.002	4.0	NoResponse	0	0.432	433.097	9	45	Target	Neutral	True
433.982	0.39	Control	0.6739	n/a	No	2.883	n/a	n/a	NoResponse	0	n/a	n/a	9	45	Blank	Neutral	True
434.097	0.3	Control	0.6739	0.002	No	2.883	-0.002	4.0	NoResponse	0	0.432	n/a	9	45	ButtonPress	Neutral	True
434.365	1.45	Control	0.6739	n/a	No	2.883	n/a	5.0	NoResponse	0	0.049	433.414	9	45	Feedback	Neutral	True
435.815	2.883	Control	0.6739	n/a	No	2.883	n/a	n/a	NoResponse	0	0.0	n/a	9	45	ISIslide	Neutral	True
438.73	0.25	Lose2	0.6809000000000001	0.0	Yes	3.37	0.03	n/a	GoodResponse	0	n/a	n/a	9	46	Cue	AvoidedLoss	True
438.98	4.0	Lose2	0.6809000000000001	0.0	Yes	3.37	0.0	n/a	GoodResponse	0	n/a	n/a	9	46	Fixation	AvoidedLoss	True
442.979	0.3	Lose2	0.6809000000000001	0.001	Yes	3.37	-0.001	4.0	GoodResponse	0	0.297	442.276	9	46	Target	AvoidedLoss	True
443.276	0.3	Lose2	0.6809000000000001	0.001	Yes	3.37	-0.001	4.0	GoodResponse	0	0.297	n/a	9	46	ButtonPress	AvoidedLoss	True
443.279	0.4	Lose2	0.6809000000000001	n/a	Yes	3.37	n/a	n/a	GoodResponse	0	n/a	n/a	9	46	Blank	AvoidedLoss	True
443.679	1.45	Lose2	0.6809000000000001	n/a	Yes	3.37	n/a	5.0	GoodResponse	0	0.005	442.684	9	46	Feedback	AvoidedLoss	True
445.128	3.37	Lose2	0.6809000000000001	n/a	Yes	3.37	n/a	n/a	GoodResponse	0	0.0	n/a	9	46	ISIslide	AvoidedLoss	True
448.527	0.25	Lose2	0.6667000000000001	0.0	No	2.673	0.027	n/a	NoResponse	-1	n/a	n/a	8	47	Cue	Loss	True
448.777	4.0	Lose2	0.6667000000000001	0.0	No	2.673	0.0	n/a	NoResponse	-1	n/a	n/a	8	47	Fixation	Loss	True
452.775	0.29	Lose2	0.6667000000000001	0.002	No	2.673	-0.002	4.0	NoResponse	-1	0.351	452.126	8	47	Target	Loss	True
453.075	0.41	Lose2	0.6667000000000001	n/a	No	2.673	n/a	n/a	NoResponse	-1	n/a	n/a	8	47	Blank	Loss	True
453.126	0.3	Lose2	0.6667000000000001	0.002	No	2.673	-0.002	4.0	NoResponse	-1	0.351	n/a	8	47	ButtonPress	Loss	True
453.475	1.45	Lose2	0.6667000000000001	n/a	No	2.673	n/a	5.0	NoResponse	-1	0.012	452.487	8	47	Feedback	Loss	True
454.925	2.673	Lose2	0.6667000000000001	n/a	No	2.673	n/a	n/a	NoResponse	-1	0.0	n/a	8	47	ISIslide	Loss	True
457.624	0.25	Lose2	0.6735	0.0	Yes	3.026	0.024	n/a	GoodResponse	0	n/a	n/a	8	48	Cue	AvoidedLoss	True
457.874	3.95	Lose2	0.6735	0.0	Yes	3.026	0.0	n/a	GoodResponse	0	n/a	n/a	8	48	Fixation	AvoidedLoss	True
461.822	0.28	Lose2	0.6735	0.002	Yes	3.026	-0.002	4.0	GoodResponse	0	0.26	461.082	8	48	Target	AvoidedLoss	True
462.082	0.3	Lose2	0.6735	0.002	Yes	3.026	-0.002	4.0	GoodResponse	0	0.26	n/a	8	48	ButtonPress	AvoidedLoss	True
462.106	0.42	Lose2	0.6735	n/a	Yes	3.026	n/a	n/a	GoodResponse	0	n/a	n/a	8	48	Blank	AvoidedLoss	True
462.522	1.45	Lose2	0.6735	n/a	Yes	3.026	n/a	5.0	GoodResponse	0	0.038	461.56	8	48	Feedback	AvoidedLoss	True
463.972	3.026	Lose2	0.6735	n/a	Yes	3.026	n/a	n/a	GoodResponse	0	0.0	n/a	8	48	ISIslide	AvoidedLoss	True
467.021	0.25	Control	0.68	0.0	Yes	2.879	0.021	n/a	GoodResponse	0	n/a	n/a	8	49	Cue	Neutral	True
467.27	4.0	Control	0.68	0.001	Yes	2.879	-0.001	n/a	GoodResponse	0	n/a	n/a	8	49	Fixation	Neutral	True
471.269	0.27	Control	0.68	0.002	Yes	2.879	-0.002	4.0	GoodResponse	0	0.205	470.474	8	49	Target	Neutral	True
471.474	0.3	Control	0.68	0.002	Yes	2.879	-0.002	4.0	GoodResponse	0	0.205	n/a	8	49	ButtonPress	Neutral	True
471.552	0.43	Control	0.68	n/a	Yes	2.879	n/a	n/a	GoodResponse	0	n/a	n/a	8	49	Blank	Neutral	True
471.969	1.45	Control	0.68	n/a	Yes	2.879	n/a	5.0	GoodResponse	0	0.007	470.976	8	49	Feedback	Neutral	True
473.418	2.879	Control	0.68	n/a	Yes	2.879	n/a	n/a	GoodResponse	0	0.0	n/a	8	49	ISIslide	Neutral	True
476.317	0.25	Control	0.6667000000000001	0.0	No	2.783	0.017	n/a	NoResponse	0	n/a	n/a	8	50	Cue	Neutral	True
476.567	4.0	Control	0.6667000000000001	0.0	No	2.783	0.0	n/a	NoResponse	0	n/a	n/a	8	50	Fixation	Neutral	True
480.566	0.26	Control	0.6667000000000001	0.001	No	2.783	-0.001	4.0	NoResponse	0	0.281	479.847	8	50	Target	Neutral	True
480.832	0.44	Control	0.6667000000000001	n/a	No	2.783	n/a	n/a	NoResponse	0	n/a	n/a	8	50	Blank	Neutral	True
480.847	0.3	Control	0.6667000000000001	0.001	No	2.783	-0.001	4.0	NoResponse	0	0.281	n/a	8	50	ButtonPress	Neutral	True
481.266	1.45	Control	0.6667000000000001	n/a	No	2.783	n/a	5.0	NoResponse	0	0.026	480.292	8	50	Feedback	Neutral	True
482.715	2.783	Control	0.6667000000000001	n/a	No	2.783	n/a	n/a	NoResponse	0	0.0	n/a	8	50	ISIslide	Neutral	True
485.514	0.25	Control	0.6731	0.0	Yes	2.736	0.014	n/a	GoodResponse	0	n/a	n/a	8	51	Cue	Neutral	False
485.764	3.95	Control	0.6731	0.0	Yes	2.736	0.0	4.0	GoodResponse	0	0.153	484.917	8	51	Fixation	Neutral	False
485.917	0.3	Control	0.6731	0.0	Yes	2.736	0.0	4.0	GoodResponse	0	0.153	n/a	8	51	ButtonPress	Neutral	False
489.713	0.25	Control	0.6731	0.001	Yes	2.736	-0.001	4.0	GoodResponse	0	0.231	488.944	8	51	Target	Neutral	False
489.944	0.3	Control	0.6731	0.001	Yes	2.736	-0.001	4.0	GoodResponse	0	0.231	n/a	8	51	ButtonPress	Neutral	False
489.963	0.45	Control	0.6731	n/a	Yes	2.736	n/a	n/a	GoodResponse	0	n/a	n/a	8	51	Blank	Neutral	False
490.412	1.45	Control	0.6731	n/a	Yes	2.736	n/a	5.0	GoodResponse	0	0.002	489.414	8	51	Feedback	Neutral	False
491.862	2.736	Control	0.6731	n/a	Yes	2.736	n/a	n/a	GoodResponse	0	0.0	n/a	8	51	ISIslide	Neutral	False
494.628	0.25	Control	0.6604000000000001	0.0	No	2.622	0.028	n/a	LatePress	0	n/a	n/a	8	52	Cue	Neutral	False
494.877	4.05	Control	0.6604000000000001	0.001	No	2.622	-0.001	4.0	LatePress	0	0.121	493.998	8	52	Fixation	Neutral	False
494.998	0.3	Control	0.6604000000000001	0.001	No	2.622	-0.001	4.0	LatePress	0	0.121	n/a	8	52	ButtonPress	Neutral	False
498.926	0.24	Control	0.6604000000000001	0.002	No	2.622	-0.002	4.0	LatePress	0	0.242	498.168	8	52	Target	Neutral	False
499.168	0.3	Control	0.6604000000000001	0.002	No	2.622	-0.002	4.0	LatePress	0	0.242	n/a	8	52	ButtonPress	Neutral	False
499.176	0.46	Control	0.6604000000000001	n/a	No	2.622	n/a	n/a	LatePress	0	n/a	n/a	8	52	Blank	Neutral	False
499.626	1.45	Control	0.6604000000000001	n/a	No	2.622	n/a	5.0	LatePress	0	0.007	498.633	8	52	Feedback	Neutral	False
501.075	2.622	Control	0.6604000000000001	n/a	No	2.622	n/a	n/a	LatePress	0	0.0	n/a	8	52	ISIslide	Neutral	False
503.724	0.25	Win2	0.6481	0.0	No	2.926	0.024	n/a	NoResponse	0	n/a	n/a	8	53	Cue	MissedWin	True
503.974	4.05	Win2	0.6481	0.0	No	2.926	0.0	n/a	NoResponse	0	n/a	n/a	8	53	Fixation	MissedWin	True
508.023	0.24	Win2	0.6481	0.001	No	2.926	-0.001	4.0	NoResponse	0	0.264	507.287	8	53	Target	MissedWin	True
508.273	0.46	Win2	0.6481	n/a	No	2.926	n/a	n/a	NoResponse	0	n/a	n/a	8	53	Blank	MissedWin	True
508.287	0.3	Win2	0.6481	0.001	No	2.926	-0.001	4.0	NoResponse	0	0.264	n/a	8	53	ButtonPress	MissedWin	True
508.723	1.45	Win2	0.6481	n/a	No	2.926	n/a	5.0	NoResponse	0	0.032	507.755	8	53	Feedback	MissedWin	True
510.172	2.926	Win2	0.6481	n/a	No	2.926	n/a	n/a	NoResponse	0	0.0	n/a	8	53	ISIslide	MissedWin	True
513.121	0.25	Win2	0.6545000000000001	0.0	Yes	2.729	0.021	n/a	GoodResponse	1	n/a	n/a	9	54	Cue	Win	True
513.371	3.95	Win2	0.6545000000000001	0.0	Yes	2.729	0.0	n/a	GoodResponse	1	n/a	n/a	9	54	Fixation	Win	True
517.32	0.25	Win2	0.6545000000000001	0.001	Yes	2.729	-0.001	4.0	GoodResponse	1	0.249	516.569	9	54	Target	Win	True
517.569	0.3	Win2	0.6545000000000001	0.001	Yes	2.729	-0.001	4.0	GoodResponse	1	0.249	n/a	9	54	ButtonPress	Win	True
517.57	0.45	Win2	0.6545000000000001	n/a	Yes	2.729	n/a	n/a	GoodResponse	1	n/a	n/a	9	54	Blank	Win	True
518.019	1.45	Win2	0.6545000000000001	n/a	Yes	2.729	n/a	5.0	GoodResponse	1	0.006	517.025	9	54	Feedback	Win	True
519.469	2.729	Win2	0.6545000000000001	n/a	Yes	2.729	n/a	n/a	GoodResponse	1	0.0	n/a	9	54	ISIslide	Win	True
522.218	0.25	Control	0.6429	0.0	No	3.032	0.018	n/a	NoResponse	0	n/a	n/a	9	55	Cue	Neutral	True
522.468	3.95	Control	0.6429	0.0	No	3.032	0.0	n/a	NoResponse	0	n/a	n/a	9	55	Fixation	Neutral	True
526.416	0.26	Control	0.6429	0.002	No	3.032	-0.002	4.0	NoResponse	0	0.276	525.692	9	55	Target	Neutral	True
526.683	0.44	Control	0.6429	n/a	No	3.032	n/a	n/a	NoResponse	0	n/a	n/a	9	55	Blank	Neutral	True
526.692	0.3	Control	0.6429	0.002	No	3.032	-0.002	4.0	NoResponse	0	0.276	n/a	9	55	ButtonPress	Neutral	True
527.116	1.45	Control	0.6429	n/a	No	3.032	n/a	5.0	NoResponse	0	0.029	526.145	9	55	Feedback	Neutral	True
528.566	3.032	Control	0.6429	n/a	No	3.032	n/a	n/a	NoResponse	0	0.0	n/a	9	55	ISIslide	Neutral	True
531.615	0.25	Control	0.6315999999999999	0.0	No	2.835	0.015	n/a	NoResponse	0	n/a	n/a	9	56	Cue	Neutral	True
531.865	3.95	Control	0.6315999999999999	0.0	No	2.835	0.0	n/a	NoResponse	0	n/a	n/a	9	56	Fixation	Neutral	True
535.813	0.27	Control	0.6315999999999999	0.002	No	2.835	-0.002	4.0	NoResponse	0	0.351	535.164	9	56	Target	Neutral	True
536.096	0.43	Control	0.6315999999999999	n/a	No	2.835	n/a	n/a	NoResponse	0	n/a	n/a	9	56	Blank	Neutral	True
536.164	0.3	Control	0.6315999999999999	0.002	No	2.835	-0.002	4.0	NoResponse	0	0.351	n/a	9	56	ButtonPress	Neutral	True
536.513	1.45	Control	0.6315999999999999	n/a	No	2.835	n/a	5.0	NoResponse	0	0.047	535.56	9	56	Feedback	Neutral	True
537.962	2.835	Control	0.6315999999999999	n/a	No	2.835	n/a	n/a	NoResponse	0	0.0	n/a	9	56	ISIslide	Neutral	True
540.828	0.25	Control	0.6207	0.0	No	3.472	0.028	n/a	NoResponse	0	n/a	n/a	9	57	Cue	Neutral	True
541.078	4.0	Control	0.6207	0.0	No	3.472	0.0	n/a	NoResponse	0	n/a	n/a	9	57	Fixation	Neutral	True
545.077	0.28	Control	0.6207	0.001	No	3.472	-0.001	4.0	NoResponse	0	0.434	544.511	9	57	Target	Neutral	True
545.36	0.42	Control	0.6207	n/a	No	3.472	n/a	n/a	NoResponse	0	n/a	n/a	9	57	Blank	Neutral	True
545.511	0.3	Control	0.6207	0.001	No	3.472	-0.001	4.0	NoResponse	0	0.434	n/a	9	57	ButtonPress	Neutral	True
545.776	1.45	Control	0.6207	n/a	No	3.472	n/a	5.0	NoResponse	0	0.007	544.783	9	57	Feedback	Neutral	True
547.226	3.472	Control	0.6207	n/a	No	3.472	n/a	n/a	NoResponse	0	0.0	n/a	9	57	ISIslide	Neutral	True
550.725	0.25	Win2	0.6271	0.0	Yes	2.725	0.025	n/a	GoodResponse	1	n/a	n/a	10	58	Cue	Win	True
550.975	4.05	Win2	0.6271	0.0	Yes	2.725	0.0	n/a	GoodResponse	1	n/a	n/a	10	58	Fixation	Win	True
555.023	0.29	Win2	0.6271	0.002	Yes	2.725	-0.002	4.0	GoodResponse	1	0.221	554.244	10	58	Target	Win	True
555.244	0.3	Win2	0.6271	0.002	Yes	2.725	-0.002	4.0	GoodResponse	1	0.221	n/a	10	58	ButtonPress	Win	True
555.323	0.41	Win2	0.6271	n/a	Yes	2.725	n/a	n/a	GoodResponse	1	n/a	n/a	10	58	Blank	Win	True
555.723	1.45	Win2	0.6271	n/a	Yes	2.725	n/a	5.0	GoodResponse	1	0.008	554.731	10	58	Feedback	Win	True
557.172	2.725	Win2	0.6271	n/a	Yes	2.725	n/a	n/a	GoodResponse	1	0.0	n/a	10	58	ISIslide	Win	True
559.921	0.25	Lose2	0.6333	0.001	Yes	2.679	0.021	n/a	GoodResponse	0	n/a	n/a	10	59	Cue	AvoidedLoss	True
560.171	4.0	Lose2	0.6333	0.0	Yes	2.679	0.0	n/a	GoodResponse	0	n/a	n/a	10	59	Fixation	AvoidedLoss	True
564.17	0.3	Lose2	0.6333	0.001	Yes	2.679	-0.001	4.0	GoodResponse	0	0.239	563.409	10	59	Target	AvoidedLoss	True
564.409	0.3	Lose2	0.6333	0.001	Yes	2.679	-0.001	4.0	GoodResponse	0	0.239	n/a	10	59	ButtonPress	AvoidedLoss	True
564.47	0.4	Lose2	0.6333	n/a	Yes	2.679	n/a	n/a	GoodResponse	0	n/a	n/a	10	59	Blank	AvoidedLoss	True
564.87	1.45	Lose2	0.6333	n/a	Yes	2.679	n/a	5.0	GoodResponse	0	0.031	563.901	10	59	Feedback	AvoidedLoss	True
566.319	2.679	Lose2	0.6333	n/a	Yes	2.679	n/a	n/a	GoodResponse	0	0.0	n/a	10	59	ISIslide	AvoidedLoss	True
569.018	0.25	Control	0.623	0.0	No	2.682	0.018	n/a	NoResponse	0	n/a	n/a	10	60	Cue	Neutral	True
569.268	4.0	Control	0.623	0.0	No	2.682	0.0	n/a	NoResponse	0	n/a	n/a	10	60	Fixation	Neutral	True
573.267	0.31	Control	0.623	0.001	No	2.682	-0.001	4.0	NoResponse	0	0.371	572.638	10	60	Target	Neutral	True
573.583	0.39	Control	0.623	n/a	No	2.682	n/a	n/a	NoResponse	0	n/a	n/a	10	60	Blank	Neutral	True
573.638	0.3	Control	0.623	0.001	No	2.682	-0.001	4.0	NoResponse	0	0.371	n/a	10	60	ButtonPress	Neutral	True
573.967	1.45	Control	0.623	n/a	No	2.682	n/a	5.0	NoResponse	0	0.007	572.974	10	60	Feedback	Neutral	True
575.416	2.682	Control	0.623	n/a	No	2.682	n/a	n/a	NoResponse	0	0.0	n/a	10	60	ISIslide	Neutral	True
578.115	0.25	Lose2	0.629	0.0	Yes	2.985	0.015	n/a	GoodResponse	0	n/a	n/a	10	61	Cue	AvoidedLoss	True
578.365	4.0	Lose2	0.629	0.0	Yes	2.985	0.0	n/a	GoodResponse	0	n/a	n/a	10	61	Fixation	AvoidedLoss	True
582.364	0.32	Lose2	0.629	0.001	Yes	2.985	-0.001	4.0	GoodResponse	0	0.239	581.603	10	61	Target	AvoidedLoss	True
582.603	0.3	Lose2	0.629	0.001	Yes	2.985	-0.001	4.0	GoodResponse	0	0.239	n/a	10	61	ButtonPress	AvoidedLoss	True
582.697	0.38	Lose2	0.629	n/a	Yes	2.985	n/a	n/a	GoodResponse	0	n/a	n/a	10	61	Blank	AvoidedLoss	True
583.063	1.45	Lose2	0.629	n/a	Yes	2.985	n/a	5.0	GoodResponse	0	0.033	582.096	10	61	Feedback	AvoidedLoss	True
584.513	2.985	Lose2	0.629	n/a	Yes	2.985	n/a	n/a	GoodResponse	0	0.0	n/a	10	61	ISIslide	AvoidedLoss	True
587.528	0.25	Lose2	0.6349	0.001	Yes	2.872	0.028	n/a	GoodResponse	0	n/a	n/a	10	62	Cue	AvoidedLoss	True
587.778	3.9	Lose2	0.6349	0.0	Yes	2.872	0.0	n/a	GoodResponse	0	n/a	n/a	10	62	Fixation	AvoidedLoss	True
591.677	0.33	Lose2	0.6349	0.001	Yes	2.872	-0.001	4.0	GoodResponse	0	0.242	590.919	10	62	Target	AvoidedLoss	True
591.919	0.3	Lose2	0.6349	0.001	Yes	2.872	-0.001	4.0	GoodResponse	0	0.242	n/a	10	62	ButtonPress	AvoidedLoss	True
592.01	0.37	Lose2	0.6349	n/a	Yes	2.872	n/a	n/a	GoodResponse	0	n/a	n/a	10	62	Blank	AvoidedLoss	True
592.377	1.45	Lose2	0.6349	n/a	Yes	2.872	n/a	5.0	GoodResponse	0	0.036	591.413	10	62	Feedback	AvoidedLoss	True
593.826	2.872	Lose2	0.6349	n/a	Yes	2.872	n/a	n/a	GoodResponse	0	0.0	n/a	10	62	ISIslide	AvoidedLoss	True
596.725	0.25	Lose2	0.6406000000000001	0.0	Yes	2.625	0.025	n/a	GoodResponse	0	n/a	n/a	10	63	Cue	AvoidedLoss	True
596.975	4.05	Lose2	0.6406000000000001	0.0	Yes	2.625	0.0	n/a	GoodResponse	0	n/a	n/a	10	63	Fixation	AvoidedLoss	True
601.024	0.34	Lose2	0.6406000000000001	0.001	Yes	2.625	-0.001	4.0	GoodResponse	0	0.227	600.251	10	63	Target	AvoidedLoss	True
601.251	0.3	Lose2	0.6406000000000001	0.001	Yes	2.625	-0.001	4.0	GoodResponse	0	0.227	n/a	10	63	ButtonPress	AvoidedLoss	True
601.374	0.36	Lose2	0.6406000000000001	n/a	Yes	2.625	n/a	n/a	GoodResponse	0	n/a	n/a	10	63	Blank	AvoidedLoss	True
601.724	1.45	Lose2	0.6406000000000001	n/a	Yes	2.625	n/a	5.0	GoodResponse	0	0.006	600.73	10	63	Feedback	AvoidedLoss	True
603.173	2.625	Lose2	0.6406000000000001	n/a	Yes	2.625	n/a	n/a	GoodResponse	0	0.0	n/a	10	63	ISIslide	AvoidedLoss	True
605.822	0.25	Win2	0.6462	0.0	Yes	3.128	0.022	n/a	GoodResponse	1	n/a	n/a	11	64	Cue	Win	True
606.072	4.15	Win2	0.6462	0.0	Yes	3.128	0.0	n/a	GoodResponse	1	n/a	n/a	11	64	Fixation	Win	True
610.221	0.35	Win2	0.6462	0.001	Yes	3.128	-0.001	4.0	GoodResponse	1	0.193	609.414	11	64	Target	Win	True
610.414	0.3	Win2	0.6462	0.001	Yes	3.128	-0.001	4.0	GoodResponse	1	0.193	n/a	11	64	ButtonPress	Win	True
610.57	0.35	Win2	0.6462	n/a	Yes	3.128	n/a	n/a	GoodResponse	1	n/a	n/a	11	64	Blank	Win	True
610.92	1.45	Win2	0.6462	n/a	Yes	3.128	n/a	5.0	GoodResponse	1	0.029	609.949	11	64	Feedback	Win	True
612.37	3.128	Win2	0.6462	n/a	Yes	3.128	n/a	n/a	GoodResponse	1	0.0	n/a	11	64	ISIslide	Win	True
615.519	0.25	Control	0.6515000000000001	0.0	Yes	2.781	0.019	n/a	GoodResponse	0	n/a	n/a	11	65	Cue	Neutral	True
615.769	4.0	Control	0.6515000000000001	0.0	Yes	2.781	0.0	n/a	GoodResponse	0	n/a	n/a	11	65	Fixation	Neutral	True
619.767	0.36	Control	0.6515000000000001	0.002	Yes	2.781	-0.002	4.0	GoodResponse	0	0.35	619.117	11	65	Target	Neutral	True
620.117	0.3	Control	0.6515000000000001	0.002	Yes	2.781	-0.002	4.0	GoodResponse	0	0.35	n/a	11	65	ButtonPress	Neutral	True
620.134	0.34	Control	0.6515000000000001	n/a	Yes	2.781	n/a	n/a	GoodResponse	0	n/a	n/a	11	65	Blank	Neutral	True
620.467	1.45	Control	0.6515000000000001	n/a	Yes	2.781	n/a	5.0	GoodResponse	0	0.043	619.51	11	65	Feedback	Neutral	True
621.916	2.781	Control	0.6515000000000001	n/a	Yes	2.781	n/a	n/a	GoodResponse	0	0.0	n/a	11	65	ISIslide	Neutral	True
624.715	0.25	Win2	0.6567000000000001	0.001	Yes	2.785	0.015	n/a	GoodResponse	1	n/a	n/a	12	66	Cue	Win	False
624.965	3.9	Win2	0.6567000000000001	0.0	Yes	2.785	0.0	4.0	GoodResponse	1	2.2	626.165	12	66	Fixation	Win	False
627.165	0.3	Win2	0.6567000000000001	0.0	Yes	2.785	0.0	4.0	GoodResponse	1	2.2	n/a	12	66	ButtonPress	Win	False
628.864	0.37	Win2	0.6567000000000001	0.001	Yes	2.785	-0.001	4.0	GoodResponse	1	0.241	628.105	12	66	Target	Win	False
629.105	0.3	Win2	0.6567000000000001	0.001	Yes	2.785	-0.001	4.0	GoodResponse	1	0.241	n/a	12	66	ButtonPress	Win	False
629.231	0.33	Win2	0.6567000000000001	n/a	Yes	2.785	n/a	n/a	GoodResponse	1	n/a	n/a	12	66	Blank	Win	False
629.564	1.45	Win2	0.6567000000000001	n/a	Yes	2.785	n/a	5.0	GoodResponse	1	0.019	628.583	12	66	Feedback	Win	False
631.013	2.785	Win2	0.6567000000000001	n/a	Yes	2.785	n/a	n/a	GoodResponse	1	0.0	n/a	12	66	ISIslide	Win	False
633.812	0.25	Control	0.6618	0.0	Yes	2.738	0.012	n/a	GoodResponse	0	n/a	n/a	12	67	Cue	Neutral	True
634.062	3.95	Control	0.6618	0.0	Yes	2.738	0.0	n/a	GoodResponse	0	n/a	n/a	12	67	Fixation	Neutral	True
638.011	0.37	Control	0.6618	0.001	Yes	2.738	-0.001	4.0	GoodResponse	0	0.249	637.26	12	67	Target	Neutral	True
638.26	0.3	Control	0.6618	0.001	Yes	2.738	-0.001	4.0	GoodResponse	0	0.249	n/a	12	67	ButtonPress	Neutral	True
638.377	0.33	Control	0.6618	n/a	Yes	2.738	n/a	n/a	GoodResponse	0	n/a	n/a	12	67	Blank	Neutral	True
638.711	1.45	Control	0.6618	n/a	Yes	2.738	n/a	5.0	GoodResponse	0	0.043	637.754	12	67	Feedback	Neutral	True
640.16	2.738	Control	0.6618	n/a	Yes	2.738	n/a	n/a	GoodResponse	0	0.0	n/a	12	67	ISIslide	Neutral	True
642.926	0.25	Win2	0.6667000000000001	0.0	Yes	3.074	0.026	n/a	GoodResponse	1	n/a	n/a	13	68	Cue	Win	True
643.176	4.0	Win2	0.6667000000000001	0.0	Yes	3.074	0.0	n/a	GoodResponse	1	n/a	n/a	13	68	Fixation	Win	True
647.174	0.37	Win2	0.6667000000000001	0.002	Yes	3.074	-0.002	4.0	GoodResponse	1	0.247	646.421	13	68	Target	Win	True
647.421	0.3	Win2	0.6667000000000001	0.002	Yes	3.074	-0.002	4.0	GoodResponse	1	0.247	n/a	13	68	ButtonPress	Win	True
647.558	0.33	Win2	0.6667000000000001	n/a	Yes	3.074	n/a	n/a	GoodResponse	1	n/a	n/a	13	68	Blank	Win	True
647.874	1.45	Win2	0.6667000000000001	n/a	Yes	3.074	n/a	5.0	GoodResponse	1	0.002	646.876	13	68	Feedback	Win	True
649.324	3.074	Win2	0.6667000000000001	n/a	Yes	3.074	n/a	n/a	GoodResponse	1	0.0	n/a	13	68	ISIslide	Win	True
652.423	0.25	Win2	0.6570999999999999	0.0	No	3.227	0.023	n/a	NoResponse	0	n/a	n/a	13	69	Cue	MissedWin	True
652.672	3.95	Win2	0.6570999999999999	0.001	No	3.227	-0.001	n/a	NoResponse	0	n/a	n/a	13	69	Fixation	MissedWin	True
656.621	0.36	Win2	0.6570999999999999	0.002	No	3.227	-0.002	4.0	NoResponse	0	0.594	656.215	13	69	Target	MissedWin	True
656.988	0.34	Win2	0.6570999999999999	n/a	No	3.227	n/a	n/a	NoResponse	0	n/a	n/a	13	69	Blank	MissedWin	True
657.215	0.3	Win2	0.6570999999999999	0.002	No	3.227	-0.002	4.0	NoResponse	0	0.594	n/a	13	69	ButtonPress	MissedWin	True
657.321	1.45	Win2	0.6570999999999999	n/a	No	3.227	n/a	5.0	NoResponse	0	0.019	656.34	13	69	Feedback	MissedWin	True
658.77	3.227	Win2	0.6570999999999999	n/a	No	3.227	n/a	n/a	NoResponse	0	0.0	n/a	13	69	ISIslide	MissedWin	True
662.019	0.25	Lose2	0.6479	0.0	No	3.031	0.019	n/a	NoResponse	-1	n/a	n/a	12	70	Cue	Loss	True
662.269	4.05	Lose2	0.6479	0.0	No	3.031	0.0	n/a	NoResponse	-1	n/a	n/a	12	70	Fixation	Loss	True
666.318	0.36	Lose2	0.6479	0.001	No	3.031	-0.001	4.0	NoResponse	-1	0.493	665.811	12	70	Target	Loss	True
666.684	0.34	Lose2	0.6479	n/a	No	3.031	n/a	n/a	NoResponse	-1	n/a	n/a	12	70	Blank	Loss	True
666.811	0.3	Lose2	0.6479	0.001	No	3.031	-0.001	4.0	NoResponse	-1	0.493	n/a	12	70	ButtonPress	Loss	True
667.017	1.45	Lose2	0.6479	n/a	No	3.031	n/a	5.0	NoResponse	-1	0.029	666.046	12	70	Feedback	Loss	True
668.467	3.031	Lose2	0.6479	n/a	No	3.031	n/a	n/a	NoResponse	-1	0.0	n/a	12	70	ISIslide	Loss	True
671.516	0.25	Win2	0.6528	0.0	Yes	2.734	0.016	n/a	GoodResponse	1	n/a	n/a	13	71	Cue	Win	True
671.766	4.05	Win2	0.6528	0.0	Yes	2.734	0.0	n/a	GoodResponse	1	n/a	n/a	13	71	Fixation	Win	True
675.814	0.37	Win2	0.6528	0.002	Yes	2.734	-0.002	4.0	GoodResponse	1	0.225	675.039	13	71	Target	Win	True
676.039	0.3	Win2	0.6528	0.002	Yes	2.734	-0.002	4.0	GoodResponse	1	0.225	n/a	13	71	ButtonPress	Win	True
676.198	0.33	Win2	0.6528	n/a	Yes	2.734	n/a	n/a	GoodResponse	1	n/a	n/a	13	71	Blank	Win	True
676.514	1.45	Win2	0.6528	n/a	Yes	2.734	n/a	5.0	GoodResponse	1	0.045	675.559	13	71	Feedback	Win	True
677.964	2.734	Win2	0.6528	n/a	Yes	2.734	n/a	n/a	GoodResponse	1	0.0	n/a	13	71	ISIslide	Win	True
680.729	0.25	Win2	0.6575	0.0	Yes	2.771	0.029	n/a	GoodResponse	1	n/a	n/a	14	72	Cue	Win	True
680.979	4.1	Win2	0.6575	0.0	Yes	2.771	0.0	n/a	GoodResponse	1	n/a	n/a	14	72	Fixation	Win	True
685.078	0.38	Win2	0.6575	0.001	Yes	2.771	-0.001	4.0	GoodResponse	1	0.233	684.311	14	72	Target	Win	True
685.311	0.3	Win2	0.6575	0.001	Yes	2.771	-0.001	4.0	GoodResponse	1	0.233	n/a	14	72	ButtonPress	Win	True
685.461	0.32	Win2	0.6575	n/a	Yes	2.771	n/a	n/a	GoodResponse	1	n/a	n/a	14	72	Blank	Win	True
685.778	1.45	Win2	0.6575	n/a	Yes	2.771	n/a	5.0	GoodResponse	1	0.0	684.778	14	72	Feedback	Win	True
687.227	2.771	Win2	0.6575	n/a	Yes	2.771	n/a	n/a	GoodResponse	1	0.0	n/a	14	72	ISIslide	Win	True
690.026	0.25	Win2	0.6622	0.0	Yes	2.674	0.026	n/a	GoodResponse	1	n/a	n/a	15	73	Cue	Win	True
690.276	4.0	Win2	0.6622	0.0	Yes	2.674	0.0	n/a	GoodResponse	1	n/a	n/a	15	73	Fixation	Win	True
694.275	0.38	Win2	0.6622	0.001	Yes	2.674	-0.001	4.0	GoodResponse	1	0.216	693.491	15	73	Target	Win	True
694.491	0.3	Win2	0.6622	0.001	Yes	2.674	-0.001	4.0	GoodResponse	1	0.216	n/a	15	73	ButtonPress	Win	True
694.658	0.32	Win2	0.6622	n/a	Yes	2.674	n/a	n/a	GoodResponse	1	n/a	n/a	15	73	Blank	Win	True
694.974	1.45	Win2	0.6622	n/a	Yes	2.674	n/a	5.0	GoodResponse	1	0.024	693.998	15	73	Feedback	Win	True
696.424	2.674	Win2	0.6622	n/a	Yes	2.674	n/a	n/a	GoodResponse	1	0.0	n/a	15	73	ISIslide	Win	True
699.123	0.25	Lose2	0.6667000000000001	0.0	Yes	2.627	0.023	n/a	GoodResponse	0	n/a	n/a	15	74	Cue	AvoidedLoss	True
699.373	4.05	Lose2	0.6667000000000001	0.0	Yes	2.627	0.0	n/a	GoodResponse	0	n/a	n/a	15	74	Fixation	AvoidedLoss	True
703.421	0.38	Lose2	0.6667000000000001	0.002	Yes	2.627	-0.002	4.0	GoodResponse	0	0.233	702.654	15	74	Target	AvoidedLoss	True
703.654	0.3	Lose2	0.6667000000000001	0.002	Yes	2.627	-0.002	4.0	GoodResponse	0	0.233	n/a	15	74	ButtonPress	AvoidedLoss	True
703.805	0.32	Lose2	0.6667000000000001	n/a	Yes	2.627	n/a	n/a	GoodResponse	0	n/a	n/a	15	74	Blank	AvoidedLoss	True
704.121	1.45	Lose2	0.6667000000000001	n/a	Yes	2.627	n/a	5.0	GoodResponse	0	0.048	703.169	15	74	Feedback	AvoidedLoss	True
705.571	2.627	Lose2	0.6667000000000001	n/a	Yes	2.627	n/a	n/a	GoodResponse	0	0.0	n/a	15	74	ISIslide	AvoidedLoss	True
708.22	0.25	Lose2	0.6711	0.0	Yes	2.93	0.02	n/a	GoodResponse	0	n/a	n/a	15	75	Cue	AvoidedLoss	True
708.47	3.95	Lose2	0.6711	0.0	Yes	2.93	0.0	n/a	GoodResponse	0	n/a	n/a	15	75	Fixation	AvoidedLoss	True
712.418	0.37	Lose2	0.6711	0.002	Yes	2.93	-0.002	4.0	GoodResponse	0	0.364	711.782	15	75	Target	AvoidedLoss	True
712.782	0.3	Lose2	0.6711	0.002	Yes	2.93	-0.002	4.0	GoodResponse	0	0.364	n/a	15	75	ButtonPress	AvoidedLoss	True
712.801	0.33	Lose2	0.6711	n/a	Yes	2.93	n/a	n/a	GoodResponse	0	n/a	n/a	15	75	Blank	AvoidedLoss	True
713.118	1.45	Lose2	0.6711	n/a	Yes	2.93	n/a	5.0	GoodResponse	0	0.025	712.143	15	75	Feedback	AvoidedLoss	True
714.567	2.93	Lose2	0.6711	n/a	Yes	2.93	n/a	n/a	GoodResponse	0	0.0	n/a	15	75	ISIslide	AvoidedLoss	True
717.516	0.25	Control	0.6753	0.001	Yes	3.234	0.016	n/a	GoodResponse	0	n/a	n/a	15	76	Cue	Neutral	True
717.766	4.05	Control	0.6753	0.0	Yes	3.234	0.0	n/a	GoodResponse	0	n/a	n/a	15	76	Fixation	Neutral	True
721.815	0.36	Control	0.6753	0.001	Yes	3.234	-0.001	4.0	GoodResponse	0	0.253	721.068	15	76	Target	Neutral	True
722.068	0.3	Control	0.6753	0.001	Yes	3.234	-0.001	4.0	GoodResponse	0	0.253	n/a	15	76	ButtonPress	Neutral	True
722.181	0.34	Control	0.6753	n/a	Yes	3.234	n/a	n/a	GoodResponse	0	n/a	n/a	15	76	Blank	Neutral	True
722.515	1.45	Control	0.6753	n/a	Yes	3.234	n/a	5.0	GoodResponse	0	0.043	721.558	15	76	Feedback	Neutral	True
723.964	3.234	Control	0.6753	n/a	Yes	3.234	n/a	n/a	GoodResponse	0	0.0	n/a	15	76	ISIslide	Neutral	True
727.213	0.25	Lose2	0.6795	0.0	Yes	2.587	0.013	n/a	GoodResponse	0	n/a	n/a	15	77	Cue	AvoidedLoss	True
727.463	3.95	Lose2	0.6795	0.0	Yes	2.587	0.0	n/a	GoodResponse	0	n/a	n/a	15	77	Fixation	AvoidedLoss	True
731.412	0.35	Lose2	0.6795	0.001	Yes	2.587	-0.001	4.0	GoodResponse	0	0.254	730.666	15	77	Target	AvoidedLoss	True
731.666	0.3	Lose2	0.6795	0.001	Yes	2.587	-0.001	4.0	GoodResponse	0	0.254	n/a	15	77	ButtonPress	AvoidedLoss	True
731.761	0.35	Lose2	0.6795	n/a	Yes	2.587	n/a	n/a	GoodResponse	0	n/a	n/a	15	77	Blank	AvoidedLoss	True
732.111	1.45	Lose2	0.6795	n/a	Yes	2.587	n/a	5.0	GoodResponse	0	0.008	731.119	15	77	Feedback	AvoidedLoss	True
733.561	2.587	Lose2	0.6795	n/a	Yes	2.587	n/a	n/a	GoodResponse	0	0.0	n/a	15	77	ISIslide	AvoidedLoss	True
