onset	duration	cue_type	current_mean_accuracy	duration_error	is_hit	isi_adjusted	onset_delay	response	response_type	reward	rt	rt_time	total_reward	trial_number	trial_phase	trial_type	one_press
11.098	0.25	Control	1.0	0.0	Yes	2.952	-0.002	n/a	GoodResponse	0	n/a	n/a	0	0	Cue	Neutral	True
11.349	3.85	Control	1.0	0.0	Yes	2.952	0.001	n/a	GoodResponse	0	n/a	n/a	0	0	Fixation	Neutral	True
15.194	0.4	Control	1.0	0.004	Yes	2.952	-0.004	1.0	GoodResponse	0	0.214	14.408	0	0	Target	Neutral	True
15.408	0.3	Control	1.0	0.004	Yes	2.952	-0.004	1.0	GoodResponse	0	0.214	n/a	0	0	ButtonPress	Neutral	True
15.595	0.3	Control	1.0	n/a	Yes	2.952	n/a	n/a	GoodResponse	0	n/a	n/a	0	0	Blank	Neutral	True
15.896	1.45	Control	1.0	n/a	Yes	2.952	n/a	5.0	GoodResponse	0	0.031	14.927	0	0	Feedback	Neutral	True
17.35	2.952	Control	1.0	n/a	Yes	2.952	n/a	n/a	GoodResponse	0	0.0	n/a	0	0	ISIslide	Neutral	True
20.326	0.25	Lose2	1.0	0.0	Yes	2.774	0.026	n/a	GoodResponse	0	n/a	n/a	0	1	Cue	AvoidedLoss	True
20.576	4.0	Lose2	1.0	0.0	Yes	2.774	0.0	n/a	GoodResponse	0	n/a	n/a	0	1	Fixation	AvoidedLoss	True
24.572	0.39	Lose2	1.0	0.004	Yes	2.774	-0.004	1.0	GoodResponse	0	0.223	23.795	0	1	Target	AvoidedLoss	True
24.795	0.3	Lose2	1.0	0.004	Yes	2.774	-0.004	1.0	GoodResponse	0	0.223	n/a	0	1	ButtonPress	AvoidedLoss	True
24.973	0.31	Lose2	1.0	n/a	Yes	2.774	n/a	n/a	GoodResponse	0	n/a	n/a	0	1	Blank	AvoidedLoss	True
25.274	1.45	Lose2	1.0	n/a	Yes	2.774	n/a	5.0	GoodResponse	0	0.019	24.293	0	1	Feedback	AvoidedLoss	True
26.728	2.774	Lose2	1.0	n/a	Yes	2.774	n/a	n/a	GoodResponse	0	0.0	n/a	0	1	ISIslide	AvoidedLoss	True
29.52	0.25	Control	1.0	0.0	Yes	2.58	0.02	n/a	GoodResponse	0	n/a	n/a	0	2	Cue	Neutral	True
29.77	4.1	Control	1.0	0.001	Yes	2.58	0.0	n/a	GoodResponse	0	n/a	n/a	0	2	Fixation	Neutral	True
33.866	0.38	Control	1.0	0.004	Yes	2.58	-0.004	1.0	GoodResponse	0	0.175	33.041	0	2	Target	Neutral	True
34.041	0.3	Control	1.0	0.004	Yes	2.58	-0.004	1.0	GoodResponse	0	0.175	n/a	0	2	ButtonPress	Neutral	True
34.251	0.32	Control	1.0	n/a	Yes	2.58	n/a	n/a	GoodResponse	0	n/a	n/a	0	2	Blank	Neutral	True
34.568	1.45	Control	1.0	n/a	Yes	2.58	n/a	5.0	GoodResponse	0	0.041	33.609	0	2	Feedback	Neutral	True
36.023	2.58	Control	1.0	n/a	Yes	2.58	n/a	n/a	GoodResponse	0	0.0	n/a	0	2	ISIslide	Neutral	True
38.614	0.25	Win2	1.0	0.0	Yes	2.836	0.014	n/a	GoodResponse	1	n/a	n/a	1	3	Cue	Win	True
38.864	3.95	Win2	1.0	0.0	Yes	2.836	0.0	n/a	GoodResponse	1	n/a	n/a	1	3	Fixation	Win	True
42.809	0.37	Win2	1.0	0.005	Yes	2.836	-0.005	1.0	GoodResponse	1	0.189	41.998	1	3	Target	Win	True
42.998	0.3	Win2	1.0	0.005	Yes	2.836	-0.005	1.0	GoodResponse	1	0.189	n/a	1	3	ButtonPress	Win	True
43.194	0.33	Win2	1.0	n/a	Yes	2.836	n/a	n/a	GoodResponse	1	n/a	n/a	1	3	Blank	Win	True
43.512	1.45	Win2	1.0	n/a	Yes	2.836	n/a	5.0	GoodResponse	1	0.024	42.536	1	3	Feedback	Win	True
44.966	2.836	Win2	1.0	n/a	Yes	2.836	n/a	n/a	GoodResponse	1	0.0	n/a	1	3	ISIslide	Win	True
47.824	0.25	Win2	1.0	0.001	Yes	3.276	0.024	n/a	GoodResponse	1	n/a	n/a	2	4	Cue	Win	True
48.075	4.0	Win2	1.0	0.0	Yes	3.276	0.001	n/a	GoodResponse	1	n/a	n/a	2	4	Fixation	Win	True
52.071	0.36	Win2	1.0	0.003	Yes	3.276	-0.003	1.0	GoodResponse	1	0.19	51.261	2	4	Target	Win	True
52.261	0.3	Win2	1.0	0.003	Yes	3.276	-0.003	1.0	GoodResponse	1	0.19	n/a	2	4	ButtonPress	Win	True
52.438	0.34	Win2	1.0	n/a	Yes	3.276	n/a	n/a	GoodResponse	1	n/a	n/a	2	4	Blank	Win	True
52.773	1.45	Win2	1.0	n/a	Yes	3.276	n/a	5.0	GoodResponse	1	0.031	51.804	2	4	Feedback	Win	True
54.227	3.276	Win2	1.0	n/a	Yes	3.276	n/a	n/a	GoodResponse	1	0.0	n/a	2	4	ISIslide	Win	True
57.52	0.25	Win2	1.0	0.0	Yes	2.78	0.02	n/a	GoodResponse	1	n/a	n/a	3	5	Cue	Win	True
57.771	4.0	Win2	1.0	0.0	Yes	2.78	0.001	n/a	GoodResponse	1	n/a	n/a	3	5	Fixation	Win	True
61.766	0.35	Win2	1.0	0.004	Yes	2.78	-0.004	1.0	GoodResponse	1	0.24	61.006	3	5	Target	Win	True
62.006	0.3	Win2	1.0	0.004	Yes	2.78	-0.004	1.0	GoodResponse	1	0.24	n/a	3	5	ButtonPress	Win	True
62.117	0.35	Win2	1.0	n/a	Yes	2.78	n/a	n/a	GoodResponse	1	n/a	n/a	3	5	Blank	Win	True
62.468	1.45	Win2	1.0	n/a	Yes	2.78	n/a	5.0	GoodResponse	1	0.043	61.511	3	5	Feedback	Win	True
63.923	2.78	Win2	1.0	n/a	Yes	2.78	n/a	n/a	GoodResponse	1	0.0	n/a	3	5	ISIslide	Win	True
66.714	0.25	Lose2	1.0	0.0	Yes	2.736	0.014	n/a	GoodResponse	0	n/a	n/a	3	6	Cue	AvoidedLoss	True
66.965	3.95	Lose2	1.0	0.0	Yes	2.736	0.001	n/a	GoodResponse	0	n/a	n/a	3	6	Fixation	AvoidedLoss	True
70.91	0.34	Lose2	1.0	0.004	Yes	2.736	-0.004	1.0	GoodResponse	0	0.241	70.151	3	6	Target	AvoidedLoss	True
71.151	0.3	Lose2	1.0	0.004	Yes	2.736	-0.004	1.0	GoodResponse	0	0.241	n/a	3	6	ButtonPress	AvoidedLoss	True
71.261	0.36	Lose2	1.0	n/a	Yes	2.736	n/a	n/a	GoodResponse	0	n/a	n/a	3	6	Blank	AvoidedLoss	True
71.612	1.45	Lose2	1.0	n/a	Yes	2.736	n/a	5.0	GoodResponse	0	0.021	70.633	3	6	Feedback	AvoidedLoss	True
73.067	2.736	Lose2	1.0	n/a	Yes	2.736	n/a	n/a	GoodResponse	0	0.0	n/a	3	6	ISIslide	AvoidedLoss	True
75.825	0.25	Lose2	1.0	0.0	Yes	4.025	0.025	n/a	GoodResponse	0	n/a	n/a	3	7	Cue	AvoidedLoss	True
76.076	4.05	Lose2	1.0	0.0	Yes	4.025	0.001	n/a	GoodResponse	0	n/a	n/a	3	7	Fixation	AvoidedLoss	True
80.121	0.33	Lose2	1.0	0.004	Yes	4.025	-0.004	1.0	GoodResponse	0	0.184	79.305	3	7	Target	AvoidedLoss	True
80.305	0.3	Lose2	1.0	0.004	Yes	4.025	-0.004	1.0	GoodResponse	0	0.184	n/a	3	7	ButtonPress	AvoidedLoss	True
80.455	0.37	Lose2	1.0	n/a	Yes	4.025	n/a	n/a	GoodResponse	0	n/a	n/a	3	7	Blank	AvoidedLoss	True
80.823	1.45	Lose2	1.0	n/a	Yes	4.025	n/a	5.0	GoodResponse	0	0.029	79.852	3	7	Feedback	AvoidedLoss	True
82.277	4.025	Lose2	1.0	n/a	Yes	4.025	n/a	n/a	GoodResponse	0	0.0	n/a	3	7	ISIslide	AvoidedLoss	True
86.323	0.25	Lose2	1.0	0.0	Yes	3.027	0.023	n/a	GoodResponse	0	n/a	n/a	3	8	Cue	AvoidedLoss	True
86.574	3.95	Lose2	1.0	0.0	Yes	3.027	0.001	n/a	GoodResponse	0	n/a	n/a	3	8	Fixation	AvoidedLoss	True
90.519	0.32	Lose2	1.0	0.004	Yes	3.027	-0.004	1.0	GoodResponse	0	0.201	89.72	3	8	Target	AvoidedLoss	True
90.72	0.3	Lose2	1.0	0.004	Yes	3.027	-0.004	1.0	GoodResponse	0	0.201	n/a	3	8	ButtonPress	AvoidedLoss	True
90.853	0.38	Lose2	1.0	n/a	Yes	3.027	n/a	n/a	GoodResponse	0	n/a	n/a	3	8	Blank	AvoidedLoss	True
91.221	1.45	Lose2	1.0	n/a	Yes	3.027	n/a	5.0	GoodResponse	0	0.022	90.243	3	8	Feedback	AvoidedLoss	True
92.675	3.027	Lose2	1.0	n/a	Yes	3.027	n/a	n/a	GoodResponse	0	0.0	n/a	3	8	ISIslide	AvoidedLoss	True
95.718	0.25	Lose2	1.0	0.0	Yes	3.132	0.018	n/a	GoodResponse	0	n/a	n/a	3	9	Cue	AvoidedLoss	True
95.968	3.95	Lose2	1.0	0.0	Yes	3.132	0.0	n/a	GoodResponse	0	n/a	n/a	3	9	Fixation	AvoidedLoss	True
99.914	0.31	Lose2	1.0	0.004	Yes	3.132	-0.004	1.0	GoodResponse	0	0.212	99.126	3	9	Target	AvoidedLoss	True
100.126	0.3	Lose2	1.0	0.004	Yes	3.132	-0.004	1.0	GoodResponse	0	0.212	n/a	3	9	ButtonPress	AvoidedLoss	True
100.231	0.39	Lose2	1.0	n/a	Yes	3.132	n/a	n/a	GoodResponse	0	n/a	n/a	3	9	Blank	AvoidedLoss	True
100.616	1.45	Lose2	1.0	n/a	Yes	3.132	n/a	5.0	GoodResponse	0	0.041	99.657	3	9	Feedback	AvoidedLoss	True
102.07	3.132	Lose2	1.0	n/a	Yes	3.132	n/a	n/a	GoodResponse	0	0.0	n/a	3	9	ISIslide	AvoidedLoss	True
105.213	0.25	Control	0.9091	0.0	No	3.287	0.013	n/a	NoResponse	0	n/a	n/a	3	10	Cue	Neutral	False
105.463	4.0	Control	0.9091	0.001	No	3.287	0.0	n/a	NoResponse	0	n/a	n/a	3	10	Fixation	Neutral	False
109.459	0.3	Control	0.9091	0.004	No	3.287	-0.004	n/a	NoResponse	0	n/a	n/a	3	10	Target	Neutral	False
109.76	0.4	Control	0.9091	n/a	No	3.287	n/a	n/a	NoResponse	0	n/a	n/a	3	10	Blank	Neutral	False
110.161	1.45	Control	0.9091	n/a	No	3.287	n/a	5.0	NoResponse	0	0.008	109.169	3	10	Feedback	Neutral	False
111.615	3.287	Control	0.9091	n/a	No	3.287	n/a	n/a	NoResponse	0	0.0	n/a	3	10	ISIslide	Neutral	False
114.925	0.25	Lose2	0.9167000000000001	0.0	Yes	2.725	0.025	n/a	GoodResponse	0	n/a	n/a	3	11	Cue	AvoidedLoss	True
115.176	4.05	Lose2	0.9167000000000001	0.0	Yes	2.725	0.001	n/a	GoodResponse	0	n/a	n/a	3	11	Fixation	AvoidedLoss	True
119.221	0.29	Lose2	0.9167000000000001	0.004	Yes	2.725	-0.004	1.0	GoodResponse	0	0.188	118.409	3	11	Target	AvoidedLoss	True
119.409	0.3	Lose2	0.9167000000000001	0.004	Yes	2.725	-0.004	1.0	GoodResponse	0	0.188	n/a	3	11	ButtonPress	AvoidedLoss	True
119.522	0.41	Lose2	0.9167000000000001	n/a	Yes	2.725	n/a	n/a	GoodResponse	0	n/a	n/a	3	11	Blank	AvoidedLoss	True
119.923	1.45	Lose2	0.9167000000000001	n/a	Yes	2.725	n/a	5.0	GoodResponse	0	0.004	118.927	3	11	Feedback	AvoidedLoss	True
121.378	2.725	Lose2	0.9167000000000001	n/a	Yes	2.725	n/a	n/a	GoodResponse	0	0.0	n/a	3	11	ISIslide	AvoidedLoss	True
124.119	0.25	Control	0.9231	0.0	Yes	2.981	0.019	n/a	GoodResponse	0	n/a	n/a	3	12	Cue	Neutral	True
124.37	3.9	Control	0.9231	0.0	Yes	2.981	0.001	n/a	GoodResponse	0	n/a	n/a	3	12	Fixation	Neutral	True
128.265	0.28	Control	0.9231	0.004	Yes	2.981	-0.004	1.0	GoodResponse	0	0.186	127.451	3	12	Target	Neutral	True
128.451	0.3	Control	0.9231	0.004	Yes	2.981	-0.004	1.0	GoodResponse	0	0.186	n/a	3	12	ButtonPress	Neutral	True
128.549	0.42	Control	0.9231	n/a	Yes	2.981	n/a	n/a	GoodResponse	0	n/a	n/a	3	12	Blank	Neutral	True
128.967	1.45	Control	0.9231	n/a	Yes	2.981	n/a	5.0	GoodResponse	0	0.031	127.998	3	12	Feedback	Neutral	True
130.421	2.981	Control	0.9231	n/a	Yes	2.981	n/a	n/a	GoodResponse	0	0.0	n/a	3	12	ISIslide	Neutral	True
133.414	0.25	Control	0.9286	0.0	Yes	2.786	0.014	n/a	GoodResponse	0	n/a	n/a	3	13	Cue	Neutral	True
133.664	4.0	Control	0.9286	0.001	Yes	2.786	0.0	n/a	GoodResponse	0	n/a	n/a	3	13	Fixation	Neutral	True
137.66	0.27	Control	0.9286	0.004	Yes	2.786	-0.004	1.0	GoodResponse	0	0.187	136.847	3	13	Target	Neutral	True
137.847	0.3	Control	0.9286	0.004	Yes	2.786	-0.004	1.0	GoodResponse	0	0.187	n/a	3	13	ButtonPress	Neutral	True
137.944	0.43	Control	0.9286	n/a	Yes	2.786	n/a	n/a	GoodResponse	0	n/a	n/a	3	13	Blank	Neutral	True
138.362	1.45	Control	0.9286	n/a	Yes	2.786	n/a	5.0	GoodResponse	0	0.002	137.364	3	13	Feedback	Neutral	True
139.816	2.786	Control	0.9286	n/a	Yes	2.786	n/a	n/a	GoodResponse	0	0.0	n/a	3	13	ISIslide	Neutral	True
142.625	0.25	Win2	0.9333	0.0	Yes	2.675	0.025	n/a	GoodResponse	1	n/a	n/a	4	14	Cue	Win	True
142.875	4.1	Win2	0.9333	0.0	Yes	2.675	0.0	n/a	GoodResponse	1	n/a	n/a	4	14	Fixation	Win	True
146.971	0.26	Win2	0.9333	0.004	Yes	2.675	-0.004	1.0	GoodResponse	1	0.192	146.163	4	14	Target	Win	True
147.163	0.3	Win2	0.9333	0.004	Yes	2.675	-0.004	1.0	GoodResponse	1	0.192	n/a	4	14	ButtonPress	Win	True
147.238	0.44	Win2	0.9333	n/a	Yes	2.675	n/a	n/a	GoodResponse	1	n/a	n/a	4	14	Blank	Win	True
147.673	1.45	Win2	0.9333	n/a	Yes	2.675	n/a	5.0	GoodResponse	1	0.008	146.681	4	14	Feedback	Win	True
149.127	2.675	Win2	0.9333	n/a	Yes	2.675	n/a	n/a	GoodResponse	1	0.0	n/a	4	14	ISIslide	Win	True
151.819	0.25	Control	0.9375	0.0	Yes	2.981	0.019	n/a	GoodResponse	0	n/a	n/a	4	15	Cue	Neutral	True
152.069	4.0	Control	0.9375	0.001	Yes	2.981	0.0	n/a	GoodResponse	0	n/a	n/a	4	15	Fixation	Neutral	True
156.065	0.25	Control	0.9375	0.004	Yes	2.981	-0.004	1.0	GoodResponse	0	0.2	155.265	4	15	Target	Neutral	True
156.265	0.3	Control	0.9375	0.004	Yes	2.981	-0.004	1.0	GoodResponse	0	0.2	n/a	4	15	ButtonPress	Neutral	True
156.316	0.45	Control	0.9375	n/a	Yes	2.981	n/a	n/a	GoodResponse	0	n/a	n/a	4	15	Blank	Neutral	True
156.767	1.45	Control	0.9375	n/a	Yes	2.981	n/a	5.0	GoodResponse	0	0.035	155.802	4	15	Feedback	Neutral	True
158.221	2.981	Control	0.9375	n/a	Yes	2.981	n/a	n/a	GoodResponse	0	0.0	n/a	4	15	ISIslide	Neutral	True
161.213	0.25	Win2	0.9412	0.001	Yes	2.887	0.013	n/a	GoodResponse	1	n/a	n/a	5	16	Cue	Win	True
161.464	4.0	Win2	0.9412	0.0	Yes	2.887	0.001	n/a	GoodResponse	1	n/a	n/a	5	16	Fixation	Win	True
165.46	0.24	Win2	0.9412	0.003	Yes	2.887	-0.003	1.0	GoodResponse	1	0.188	164.648	5	16	Target	Win	True
165.648	0.3	Win2	0.9412	0.003	Yes	2.887	-0.003	1.0	GoodResponse	1	0.188	n/a	5	16	ButtonPress	Win	True
165.71	0.46	Win2	0.9412	n/a	Yes	2.887	n/a	n/a	GoodResponse	1	n/a	n/a	5	16	Blank	Win	True
166.162	1.45	Win2	0.9412	n/a	Yes	2.887	n/a	5.0	GoodResponse	1	0.006	165.168	5	16	Feedback	Win	True
167.616	2.887	Win2	0.9412	n/a	Yes	2.887	n/a	n/a	GoodResponse	1	0.0	n/a	5	16	ISIslide	Win	True
170.525	0.25	Lose2	0.9444	0.0	Yes	2.725	0.025	n/a	GoodResponse	0	n/a	n/a	5	17	Cue	AvoidedLoss	True
170.775	3.95	Lose2	0.9444	0.001	Yes	2.725	0.0	n/a	GoodResponse	0	n/a	n/a	5	17	Fixation	AvoidedLoss	True
174.721	0.23	Lose2	0.9444	0.004	Yes	2.725	-0.004	1.0	GoodResponse	0	0.198	173.919	5	17	Target	AvoidedLoss	True
174.919	0.3	Lose2	0.9444	0.004	Yes	2.725	-0.004	1.0	GoodResponse	0	0.198	n/a	5	17	ButtonPress	AvoidedLoss	True
174.955	0.47	Lose2	0.9444	n/a	Yes	2.725	n/a	n/a	GoodResponse	0	n/a	n/a	5	17	Blank	AvoidedLoss	True
175.423	1.45	Lose2	0.9444	n/a	Yes	2.725	n/a	5.0	GoodResponse	0	0.014	174.437	5	17	Feedback	AvoidedLoss	True
176.877	2.725	Lose2	0.9444	n/a	Yes	2.725	n/a	n/a	GoodResponse	0	0.0	n/a	5	17	ISIslide	AvoidedLoss	True
179.619	0.25	Lose2	0.8946999999999999	0.0	No	2.731	0.019	n/a	NoResponse	-1	n/a	n/a	4	18	Cue	Loss	True
179.869	4.05	Lose2	0.8946999999999999	0.0	No	2.731	0.0	n/a	NoResponse	-1	n/a	n/a	4	18	Fixation	Loss	True
183.915	0.22	Lose2	0.8946999999999999	0.004	No	2.731	-0.004	1.0	NoResponse	-1	0.257	183.172	4	18	Target	Loss	True
184.149	0.48	Lose2	0.8946999999999999	n/a	No	2.731	n/a	n/a	NoResponse	-1	n/a	n/a	4	18	Blank	Loss	True
184.172	0.3	Lose2	0.8946999999999999	0.004	No	2.731	-0.004	1.0	NoResponse	-1	0.257	n/a	4	18	ButtonPress	Loss	True
184.617	1.45	Lose2	0.8946999999999999	n/a	No	2.731	n/a	5.0	NoResponse	-1	0.039	183.656	4	18	Feedback	Loss	True
186.071	2.731	Lose2	0.8946999999999999	n/a	No	2.731	n/a	n/a	NoResponse	-1	0.0	n/a	4	18	ISIslide	Loss	True
188.829	0.25	Control	0.85	0.001	No	2.921	0.029	n/a	PrematurePress	0	n/a	n/a	4	19	Cue	Neutral	True
189.08	3.95	Control	0.85	0.0	No	2.921	0.001	n/a	PrematurePress	0	n/a	n/a	4	19	Fixation	Neutral	True
193.025	0.21	Control	0.85	0.004	No	2.921	-0.004	1.0	PrematurePress	0	0.063	192.088	4	19	Target	Neutral	True
193.088	0.3	Control	0.85	0.004	No	2.921	-0.004	1.0	PrematurePress	0	0.063	n/a	4	19	ButtonPress	Neutral	True
193.243	0.49	Control	0.85	n/a	No	2.921	n/a	n/a	PrematurePress	0	n/a	n/a	4	19	Blank	Neutral	True
193.727	1.45	Control	0.85	n/a	No	2.921	n/a	5.0	PrematurePress	0	0.002	192.729	4	19	Feedback	Neutral	True
195.182	2.921	Control	0.85	n/a	No	2.921	n/a	n/a	PrematurePress	0	0.0	n/a	4	19	ISIslide	Neutral	True
198.124	0.25	Control	0.8571	0.0	Yes	2.626	0.024	n/a	GoodResponse	0	n/a	n/a	4	20	Cue	Neutral	True
198.375	4.05	Control	0.8571	0.0	Yes	2.626	0.001	n/a	GoodResponse	0	n/a	n/a	4	20	Fixation	Neutral	True
202.42	0.2	Control	0.8571	0.004	Yes	2.626	-0.004	1.0	GoodResponse	0	0.179	201.599	4	20	Target	Neutral	True
202.599	0.3	Control	0.8571	0.004	Yes	2.626	-0.004	1.0	GoodResponse	0	0.179	n/a	4	20	ButtonPress	Neutral	True
202.621	0.5	Control	0.8571	n/a	Yes	2.626	n/a	n/a	GoodResponse	0	n/a	n/a	4	20	Blank	Neutral	True
203.122	1.45	Control	0.8571	n/a	Yes	2.626	n/a	5.0	GoodResponse	0	0.021	202.143	4	20	Feedback	Neutral	True
204.576	2.626	Control	0.8571	n/a	Yes	2.626	n/a	n/a	GoodResponse	0	0.0	n/a	4	20	ISIslide	Neutral	True
207.218	0.25	Control	0.8181999999999999	0.0	No	2.782	0.018	n/a	LatePress	0	n/a	n/a	4	21	Cue	Neutral	True
207.468	4.1	Control	0.8181999999999999	0.001	No	2.782	0.0	n/a	LatePress	0	n/a	n/a	4	21	Fixation	Neutral	True
211.564	0.19	Control	0.8181999999999999	0.004	No	2.782	-0.004	1.0	LatePress	0	0.191	210.755	4	21	Target	Neutral	True
211.755	0.3	Control	0.8181999999999999	0.004	No	2.782	-0.004	1.0	LatePress	0	0.191	n/a	4	21	ButtonPress	Neutral	True
211.765	0.51	Control	0.8181999999999999	n/a	No	2.782	n/a	n/a	LatePress	0	n/a	n/a	4	21	Blank	Neutral	True
212.266	1.45	Control	0.8181999999999999	n/a	No	2.782	n/a	5.0	LatePress	0	0.048	211.314	4	21	Feedback	Neutral	True
213.72	2.782	Control	0.8181999999999999	n/a	No	2.782	n/a	n/a	LatePress	0	0.0	n/a	4	21	ISIslide	Neutral	True
216.512	0.25	Control	0.7826000000000001	0.0	No	2.788	0.012	n/a	LatePress	0	n/a	n/a	4	22	Cue	Neutral	True
216.763	4.0	Control	0.7826000000000001	0.0	No	2.788	0.001	n/a	LatePress	0	n/a	n/a	4	22	Fixation	Neutral	True
220.758	0.18	Control	0.7826000000000001	0.004	No	2.788	-0.004	1.0	LatePress	0	0.184	219.942	4	22	Target	Neutral	True
220.942	0.52	Control	0.7826000000000001	n/a	No	2.788	n/a	n/a	LatePress	0	n/a	n/a	4	22	Blank	Neutral	True
220.942	0.3	Control	0.7826000000000001	0.004	No	2.788	-0.004	1.0	LatePress	0	0.184	n/a	4	22	ButtonPress	Neutral	True
221.46	1.45	Control	0.7826000000000001	n/a	No	2.788	n/a	5.0	LatePress	0	0.025	220.485	4	22	Feedback	Neutral	True
222.915	2.788	Control	0.7826000000000001	n/a	No	2.788	n/a	n/a	LatePress	0	0.0	n/a	4	22	ISIslide	Neutral	True
225.723	0.25	Control	0.75	0.0	No	2.777	0.023	n/a	LatePress	0	n/a	n/a	4	23	Cue	Neutral	True
225.974	3.9	Control	0.75	0.0	No	2.777	0.001	n/a	LatePress	0	n/a	n/a	4	23	Fixation	Neutral	True
229.869	0.17	Control	0.75	0.004	No	2.777	-0.004	1.0	LatePress	0	0.184	229.053	4	23	Target	Neutral	True
230.053	0.53	Control	0.75	n/a	No	2.777	n/a	n/a	LatePress	0	n/a	n/a	4	23	Blank	Neutral	True
230.053	0.3	Control	0.75	0.004	No	2.777	-0.004	1.0	LatePress	0	0.184	n/a	4	23	ButtonPress	Neutral	True
230.571	1.45	Control	0.75	n/a	No	2.777	n/a	5.0	LatePress	0	0.036	229.607	4	23	Feedback	Neutral	True
232.025	2.777	Control	0.75	n/a	No	2.777	n/a	n/a	LatePress	0	0.0	n/a	4	23	ISIslide	Neutral	True
234.817	0.25	Win2	0.72	0.0	No	3.133	0.017	n/a	NoResponse	0	n/a	n/a	4	24	Cue	MissedWin	True
235.068	3.95	Win2	0.72	0.0	No	3.133	0.001	n/a	NoResponse	0	n/a	n/a	4	24	Fixation	MissedWin	True
239.013	0.16	Win2	0.72	0.004	No	3.133	-0.004	1.0	NoResponse	0	0.175	238.188	4	24	Target	MissedWin	True
239.18	0.54	Win2	0.72	n/a	No	3.133	n/a	n/a	NoResponse	0	n/a	n/a	4	24	Blank	MissedWin	True
239.188	0.3	Win2	0.72	0.004	No	3.133	-0.004	1.0	NoResponse	0	0.175	n/a	4	24	ButtonPress	MissedWin	True
239.715	1.45	Win2	0.72	n/a	No	3.133	n/a	5.0	NoResponse	0	0.014	238.729	4	24	Feedback	MissedWin	True
241.169	3.133	Win2	0.72	n/a	No	3.133	n/a	n/a	NoResponse	0	0.0	n/a	4	24	ISIslide	MissedWin	True
244.329	0.25	Win2	0.6923	0.0	No	3.071	0.029	n/a	NoResponse	0	n/a	n/a	4	25	Cue	MissedWin	True
244.579	4.0	Win2	0.6923	0.001	No	3.071	0.0	n/a	NoResponse	0	n/a	n/a	4	25	Fixation	MissedWin	True
248.575	0.15	Win2	0.6923	0.004	No	3.071	-0.004	1.0	NoResponse	0	0.182	247.757	4	25	Target	MissedWin	True
248.725	0.55	Win2	0.6923	n/a	No	3.071	n/a	n/a	NoResponse	0	n/a	n/a	4	25	Blank	MissedWin	True
248.757	0.3	Win2	0.6923	0.004	No	3.071	-0.004	1.0	NoResponse	0	0.182	n/a	4	25	ButtonPress	MissedWin	True
249.277	1.45	Win2	0.6923	n/a	No	3.071	n/a	5.0	NoResponse	0	0.012	248.289	4	25	Feedback	MissedWin	True
250.731	3.071	Win2	0.6923	n/a	No	3.071	n/a	n/a	NoResponse	0	0.0	n/a	4	25	ISIslide	MissedWin	True
253.824	0.25	Win2	0.6667000000000001	0.0	No	2.926	0.024	n/a	NoResponse	0	n/a	n/a	4	26	Cue	MissedWin	True
254.074	3.95	Win2	0.6667000000000001	0.001	No	2.926	0.0	n/a	NoResponse	0	n/a	n/a	4	26	Fixation	MissedWin	True
258.02	0.15	Win2	0.6667000000000001	0.004	No	2.926	-0.004	1.0	NoResponse	0	0.2	257.22	4	26	Target	MissedWin	True
258.17	0.55	Win2	0.6667000000000001	n/a	No	2.926	n/a	n/a	NoResponse	0	n/a	n/a	4	26	Blank	MissedWin	True
258.22	0.3	Win2	0.6667000000000001	0.004	No	2.926	-0.004	1.0	NoResponse	0	0.2	n/a	4	26	ButtonPress	MissedWin	True
258.722	1.45	Win2	0.6667000000000001	n/a	No	2.926	n/a	5.0	NoResponse	0	0.03	257.752	4	26	Feedback	MissedWin	True
260.176	2.926	Win2	0.6667000000000001	n/a	No	2.926	n/a	n/a	NoResponse	0	0.0	n/a	4	26	ISIslide	MissedWin	True
263.118	0.25	Lose2	0.6429	0.0	No	2.832	0.018	n/a	NoResponse	-1	n/a	n/a	3	27	Cue	Loss	True
263.369	4.05	Lose2	0.6429	0.0	No	2.832	0.001	n/a	NoResponse	-1	n/a	n/a	3	27	Fixation	Loss	True
267.414	0.15	Lose2	0.6429	0.004	No	2.832	-0.004	1.0	NoResponse	-1	0.194	266.608	3	27	Target	Loss	True
267.565	0.55	Lose2	0.6429	n/a	No	2.832	n/a	n/a	NoResponse	-1	n/a	n/a	3	27	Blank	Loss	True
267.608	0.3	Lose2	0.6429	0.004	No	2.832	-0.004	1.0	NoResponse	-1	0.194	n/a	3	27	ButtonPress	Loss	True
268.116	1.45	Lose2	0.6429	n/a	No	2.832	n/a	5.0	NoResponse	-1	0.002	267.118	3	27	Feedback	Loss	True
269.571	2.832	Lose2	0.6429	n/a	No	2.832	n/a	n/a	NoResponse	-1	0.0	n/a	3	27	ISIslide	Loss	True
272.413	0.25	Control	0.6552	0.0	Yes	2.837	0.013	n/a	GoodResponse	0	n/a	n/a	3	28	Cue	Neutral	True
272.663	4.05	Control	0.6552	0.0	Yes	2.837	0.0	n/a	GoodResponse	0	n/a	n/a	3	28	Fixation	Neutral	True
276.709	0.16	Control	0.6552	0.004	Yes	2.837	-0.004	1.0	GoodResponse	0	0.15	275.859	3	28	Target	Neutral	True
276.859	0.3	Control	0.6552	0.004	Yes	2.837	-0.004	1.0	GoodResponse	0	0.15	n/a	3	28	ButtonPress	Neutral	True
276.876	0.54	Control	0.6552	n/a	Yes	2.837	n/a	n/a	GoodResponse	0	n/a	n/a	3	28	Blank	Neutral	True
277.411	1.45	Control	0.6552	n/a	Yes	2.837	n/a	5.0	GoodResponse	0	0.025	276.436	3	28	Feedback	Neutral	True
278.865	2.837	Control	0.6552	n/a	Yes	2.837	n/a	n/a	GoodResponse	0	0.0	n/a	3	28	ISIslide	Neutral	True
281.724	0.25	Lose2	0.6333	0.0	No	2.826	0.024	n/a	NoResponse	-1	n/a	n/a	2	29	Cue	Loss	True
281.975	3.95	Lose2	0.6333	0.0	No	2.826	0.001	n/a	NoResponse	-1	n/a	n/a	2	29	Fixation	Loss	True
285.92	0.16	Lose2	0.6333	0.004	No	2.826	-0.004	1.0	NoResponse	-1	0.178	285.098	2	29	Target	Loss	True
286.087	0.54	Lose2	0.6333	n/a	No	2.826	n/a	n/a	NoResponse	-1	n/a	n/a	2	29	Blank	Loss	True
286.098	0.3	Lose2	0.6333	0.004	No	2.826	-0.004	1.0	NoResponse	-1	0.178	n/a	2	29	ButtonPress	Loss	True
286.622	1.45	Lose2	0.6333	n/a	No	2.826	n/a	5.0	NoResponse	-1	0.032	285.654	2	29	Feedback	Loss	True
288.076	2.826	Lose2	0.6333	n/a	No	2.826	n/a	n/a	NoResponse	-1	0.0	n/a	2	29	ISIslide	Loss	True
290.918	0.25	Win2	0.6129	0.0	No	2.782	0.018	n/a	NoResponse	0	n/a	n/a	2	30	Cue	MissedWin	True
291.169	3.9	Win2	0.6129	0.0	No	2.782	0.001	n/a	NoResponse	0	n/a	n/a	2	30	Fixation	MissedWin	True
295.064	0.17	Win2	0.6129	0.004	No	2.782	-0.004	1.0	NoResponse	0	0.197	294.261	2	30	Target	MissedWin	True
295.248	0.53	Win2	0.6129	n/a	No	2.782	n/a	n/a	NoResponse	0	n/a	n/a	2	30	Blank	MissedWin	True
295.261	0.3	Win2	0.6129	0.004	No	2.782	-0.004	1.0	NoResponse	0	0.197	n/a	2	30	ButtonPress	MissedWin	True
295.766	1.45	Win2	0.6129	n/a	No	2.782	n/a	5.0	NoResponse	0	0.01	294.776	2	30	Feedback	MissedWin	True
297.22	2.782	Win2	0.6129	n/a	No	2.782	n/a	n/a	NoResponse	0	0.0	n/a	2	30	ISIslide	MissedWin	True
300.029	0.25	Lose2	0.625	0.0	Yes	2.821	0.029	n/a	GoodResponse	0	n/a	n/a	2	31	Cue	AvoidedLoss	True
300.279	4.05	Lose2	0.625	0.0	Yes	2.821	0.0	n/a	GoodResponse	0	n/a	n/a	2	31	Fixation	AvoidedLoss	True
304.325	0.18	Lose2	0.625	0.004	Yes	2.821	-0.004	1.0	GoodResponse	0	0.159	303.484	2	31	Target	AvoidedLoss	True
304.484	0.3	Lose2	0.625	0.004	Yes	2.821	-0.004	1.0	GoodResponse	0	0.159	n/a	2	31	ButtonPress	AvoidedLoss	True
304.509	0.52	Lose2	0.625	n/a	Yes	2.821	n/a	n/a	GoodResponse	0	n/a	n/a	2	31	Blank	AvoidedLoss	True
305.027	1.45	Lose2	0.625	n/a	Yes	2.821	n/a	5.0	GoodResponse	0	0.018	304.045	2	31	Feedback	AvoidedLoss	True
306.481	2.821	Lose2	0.625	n/a	Yes	2.821	n/a	n/a	GoodResponse	0	0.0	n/a	2	31	ISIslide	AvoidedLoss	True
309.323	0.25	Lose2	0.6364	0.0	Yes	2.627	0.023	n/a	GoodResponse	0	n/a	n/a	2	32	Cue	AvoidedLoss	True
309.574	4.15	Lose2	0.6364	0.0	Yes	2.627	0.001	n/a	GoodResponse	0	n/a	n/a	2	32	Fixation	AvoidedLoss	True
313.719	0.19	Lose2	0.6364	0.004	Yes	2.627	-0.004	1.0	GoodResponse	0	0.189	312.908	2	32	Target	AvoidedLoss	True
313.908	0.3	Lose2	0.6364	0.004	Yes	2.627	-0.004	1.0	GoodResponse	0	0.189	n/a	2	32	ButtonPress	AvoidedLoss	True
313.92	0.51	Lose2	0.6364	n/a	Yes	2.627	n/a	n/a	GoodResponse	0	n/a	n/a	2	32	Blank	AvoidedLoss	True
314.422	1.45	Lose2	0.6364	n/a	Yes	2.627	n/a	5.0	GoodResponse	0	0.037	313.459	2	32	Feedback	AvoidedLoss	True
315.876	2.627	Lose2	0.6364	n/a	Yes	2.627	n/a	n/a	GoodResponse	0	0.0	n/a	2	32	ISIslide	AvoidedLoss	True
318.517	0.25	Win2	0.6470999999999999	0.0	Yes	2.683	0.017	n/a	GoodResponse	1	n/a	n/a	3	33	Cue	Win	True
318.768	4.0	Win2	0.6470999999999999	0.0	Yes	2.683	0.001	n/a	GoodResponse	1	n/a	n/a	3	33	Fixation	Win	True
322.763	0.2	Win2	0.6470999999999999	0.004	Yes	2.683	-0.004	1.0	GoodResponse	1	0.18	321.943	3	33	Target	Win	True
322.943	0.3	Win2	0.6470999999999999	0.004	Yes	2.683	-0.004	1.0	GoodResponse	1	0.18	n/a	3	33	ButtonPress	Win	True
322.964	0.5	Win2	0.6470999999999999	n/a	Yes	2.683	n/a	n/a	GoodResponse	1	n/a	n/a	3	33	Blank	Win	True
323.465	1.45	Win2	0.6470999999999999	n/a	Yes	2.683	n/a	5.0	GoodResponse	1	0.019	322.484	3	33	Feedback	Win	True
324.92	2.683	Win2	0.6470999999999999	n/a	Yes	2.683	n/a	n/a	GoodResponse	1	0.0	n/a	3	33	ISIslide	Win	True
327.628	0.25	Lose2	0.6570999999999999	0.0	Yes	2.622	0.028	n/a	GoodResponse	0	n/a	n/a	3	34	Cue	AvoidedLoss	True
327.878	4.05	Lose2	0.6570999999999999	0.001	Yes	2.622	0.0	n/a	GoodResponse	0	n/a	n/a	3	34	Fixation	AvoidedLoss	True
331.924	0.21	Lose2	0.6570999999999999	0.004	Yes	2.622	-0.004	1.0	GoodResponse	0	0.19	331.114	3	34	Target	AvoidedLoss	True
332.114	0.3	Lose2	0.6570999999999999	0.004	Yes	2.622	-0.004	1.0	GoodResponse	0	0.19	n/a	3	34	ButtonPress	AvoidedLoss	True
332.141	0.49	Lose2	0.6570999999999999	n/a	Yes	2.622	n/a	n/a	GoodResponse	0	n/a	n/a	3	34	Blank	AvoidedLoss	True
332.626	1.45	Lose2	0.6570999999999999	n/a	Yes	2.622	n/a	5.0	GoodResponse	0	0.028	331.654	3	34	Feedback	AvoidedLoss	True
334.08	2.622	Lose2	0.6570999999999999	n/a	Yes	2.622	n/a	n/a	GoodResponse	0	0.0	n/a	3	34	ISIslide	AvoidedLoss	True
336.722	0.25	Lose2	0.6667000000000001	0.0	Yes	2.678	0.022	n/a	GoodResponse	0	n/a	n/a	3	35	Cue	AvoidedLoss	True
336.972	4.0	Lose2	0.6667000000000001	0.0	Yes	2.678	0.0	n/a	GoodResponse	0	n/a	n/a	3	35	Fixation	AvoidedLoss	True
340.968	0.21	Lose2	0.6667000000000001	0.004	Yes	2.678	-0.004	1.0	GoodResponse	0	0.189	340.157	3	35	Target	AvoidedLoss	True
341.157	0.3	Lose2	0.6667000000000001	0.004	Yes	2.678	-0.004	1.0	GoodResponse	0	0.189	n/a	3	35	ButtonPress	AvoidedLoss	True
341.185	0.49	Lose2	0.6667000000000001	n/a	Yes	2.678	n/a	n/a	GoodResponse	0	n/a	n/a	3	35	Blank	AvoidedLoss	True
341.67	1.45	Lose2	0.6667000000000001	n/a	Yes	2.678	n/a	5.0	GoodResponse	0	0.008	340.678	3	35	Feedback	AvoidedLoss	True
343.124	2.678	Lose2	0.6667000000000001	n/a	Yes	2.678	n/a	n/a	GoodResponse	0	0.0	n/a	3	35	ISIslide	AvoidedLoss	True
345.815	0.25	Control	0.6757	0.001	Yes	2.685	0.015	n/a	GoodResponse	0	n/a	n/a	3	36	Cue	Neutral	True
346.066	4.0	Control	0.6757	0.0	Yes	2.685	0.001	n/a	GoodResponse	0	n/a	n/a	3	36	Fixation	Neutral	True
350.061	0.2	Control	0.6757	0.004	Yes	2.685	-0.004	1.0	GoodResponse	0	0.119	349.18	3	36	Target	Neutral	True
350.18	0.3	Control	0.6757	0.004	Yes	2.685	-0.004	1.0	GoodResponse	0	0.119	n/a	3	36	ButtonPress	Neutral	True
350.262	0.5	Control	0.6757	n/a	Yes	2.685	n/a	n/a	GoodResponse	0	n/a	n/a	3	36	Blank	Neutral	True
350.764	1.45	Control	0.6757	n/a	Yes	2.685	n/a	5.0	GoodResponse	0	0.036	349.8	3	36	Feedback	Neutral	True
352.218	2.685	Control	0.6757	n/a	Yes	2.685	n/a	n/a	GoodResponse	0	0.0	n/a	3	36	ISIslide	Neutral	True
354.926	0.25	Win2	0.6579	0.0	No	2.874	0.026	n/a	LatePress	0	n/a	n/a	3	37	Cue	MissedWin	True
355.177	4.0	Win2	0.6579	0.0	No	2.874	0.001	n/a	LatePress	0	n/a	n/a	3	37	Fixation	MissedWin	True
359.172	0.19	Win2	0.6579	0.004	No	2.874	-0.004	1.0	LatePress	0	0.192	358.364	3	37	Target	MissedWin	True
359.364	0.3	Win2	0.6579	0.004	No	2.874	-0.004	1.0	LatePress	0	0.192	n/a	3	37	ButtonPress	MissedWin	True
359.373	0.51	Win2	0.6579	n/a	No	2.874	n/a	n/a	LatePress	0	n/a	n/a	3	37	Blank	MissedWin	True
359.874	1.45	Win2	0.6579	n/a	No	2.874	n/a	5.0	LatePress	0	0.048	358.922	3	37	Feedback	MissedWin	True
361.328	2.874	Win2	0.6579	n/a	No	2.874	n/a	n/a	LatePress	0	0.0	n/a	3	37	ISIslide	MissedWin	True
364.22	0.25	Lose2	0.6667000000000001	0.001	Yes	2.83	0.02	n/a	GoodResponse	0	n/a	n/a	3	38	Cue	AvoidedLoss	True
364.471	3.95	Lose2	0.6667000000000001	0.0	Yes	2.83	0.001	n/a	GoodResponse	0	n/a	n/a	3	38	Fixation	AvoidedLoss	True
368.416	0.19	Lose2	0.6667000000000001	0.004	Yes	2.83	-0.004	1.0	GoodResponse	0	0.182	367.598	3	38	Target	AvoidedLoss	True
368.598	0.3	Lose2	0.6667000000000001	0.004	Yes	2.83	-0.004	1.0	GoodResponse	0	0.182	n/a	3	38	ButtonPress	AvoidedLoss	True
368.617	0.51	Lose2	0.6667000000000001	n/a	Yes	2.83	n/a	n/a	GoodResponse	0	n/a	n/a	3	38	Blank	AvoidedLoss	True
369.118	1.45	Lose2	0.6667000000000001	n/a	Yes	2.83	n/a	5.0	GoodResponse	0	0.024	368.142	3	38	Feedback	AvoidedLoss	True
370.573	2.83	Lose2	0.6667000000000001	n/a	Yes	2.83	n/a	n/a	GoodResponse	0	0.0	n/a	3	38	ISIslide	AvoidedLoss	True
373.415	0.25	Win2	0.675	0.0	Yes	2.985	0.015	n/a	GoodResponse	1	n/a	n/a	4	39	Cue	Win	True
373.665	4.1	Win2	0.675	0.0	Yes	2.985	0.0	n/a	GoodResponse	1	n/a	n/a	4	39	Fixation	Win	True
377.761	0.18	Win2	0.675	0.004	Yes	2.985	-0.004	1.0	GoodResponse	1	0.173	376.934	4	39	Target	Win	True
377.934	0.3	Win2	0.675	0.004	Yes	2.985	-0.004	1.0	GoodResponse	1	0.173	n/a	4	39	ButtonPress	Win	True
377.945	0.52	Win2	0.675	n/a	Yes	2.985	n/a	n/a	GoodResponse	1	n/a	n/a	4	39	Blank	Win	True
378.463	1.45	Win2	0.675	n/a	Yes	2.985	n/a	5.0	GoodResponse	1	0.044	377.507	4	39	Feedback	Win	True
379.917	2.985	Win2	0.675	n/a	Yes	2.985	n/a	n/a	GoodResponse	1	0.0	n/a	4	39	ISIslide	Win	True
382.926	0.25	Win2	0.6585	0.0	No	2.724	0.026	n/a	NoResponse	0	n/a	n/a	4	40	Cue	MissedWin	True
383.177	3.95	Win2	0.6585	0.0	No	2.724	0.001	n/a	NoResponse	0	n/a	n/a	4	40	Fixation	MissedWin	True
387.122	0.17	Win2	0.6585	0.004	No	2.724	-0.004	1.0	NoResponse	0	0.191	386.313	4	40	Target	MissedWin	True
387.306	0.53	Win2	0.6585	n/a	No	2.724	n/a	n/a	NoResponse	0	n/a	n/a	4	40	Blank	MissedWin	True
387.313	0.3	Win2	0.6585	0.004	No	2.724	-0.004	1.0	NoResponse	0	0.191	n/a	4	40	ButtonPress	MissedWin	True
387.824	1.45	Win2	0.6585	n/a	No	2.724	n/a	5.0	NoResponse	0	0.049	386.873	4	40	Feedback	MissedWin	True
389.279	2.724	Win2	0.6585	n/a	No	2.724	n/a	n/a	NoResponse	0	0.0	n/a	4	40	ISIslide	MissedWin	True
392.02	0.25	Win2	0.6429	0.0	No	2.78	0.02	n/a	LatePress	0	n/a	n/a	4	41	Cue	MissedWin	True
392.271	3.9	Win2	0.6429	0.0	No	2.78	0.001	n/a	LatePress	0	n/a	n/a	4	41	Fixation	MissedWin	True
396.166	0.17	Win2	0.6429	0.004	No	2.78	-0.004	1.0	LatePress	0	0.174	395.34	4	41	Target	MissedWin	True
396.34	0.3	Win2	0.6429	0.004	No	2.78	-0.004	1.0	LatePress	0	0.174	n/a	4	41	ButtonPress	MissedWin	True
396.35	0.53	Win2	0.6429	n/a	No	2.78	n/a	n/a	LatePress	0	n/a	n/a	4	41	Blank	MissedWin	True
396.868	1.45	Win2	0.6429	n/a	No	2.78	n/a	5.0	LatePress	0	0.029	395.897	4	41	Feedback	MissedWin	True
398.322	2.78	Win2	0.6429	n/a	No	2.78	n/a	n/a	LatePress	0	0.0	n/a	4	41	ISIslide	MissedWin	True
401.114	0.25	Control	0.6279	0.0	No	2.936	0.014	n/a	NoResponse	0	n/a	n/a	4	42	Cue	Neutral	True
401.365	3.85	Control	0.6279	0.0	No	2.936	0.001	n/a	NoResponse	0	n/a	n/a	4	42	Fixation	Neutral	True
405.21	0.18	Control	0.6279	0.004	No	2.936	-0.004	1.0	NoResponse	0	0.189	404.399	4	42	Target	Neutral	True
405.394	0.52	Control	0.6279	n/a	No	2.936	n/a	n/a	NoResponse	0	n/a	n/a	4	42	Blank	Neutral	True
405.399	0.3	Control	0.6279	0.004	No	2.936	-0.004	1.0	NoResponse	0	0.189	n/a	4	42	ButtonPress	Neutral	True
405.912	1.45	Control	0.6279	n/a	No	2.936	n/a	5.0	NoResponse	0	0.01	404.922	4	42	Feedback	Neutral	True
407.366	2.936	Control	0.6279	n/a	No	2.936	n/a	n/a	NoResponse	0	0.0	n/a	4	42	ISIslide	Neutral	True
410.325	0.25	Win2	0.6364	0.0	Yes	3.175	0.025	n/a	GoodResponse	1	n/a	n/a	5	43	Cue	Win	False
410.576	4.0	Win2	0.6364	0.0	Yes	3.175	0.001	1.0	GoodResponse	1	3.861	413.437	5	43	Fixation	Win	False
414.437	0.3	Win2	0.6364	0.0	Yes	3.175	0.001	1.0	GoodResponse	1	3.861	n/a	5	43	ButtonPress	Win	False
414.571	0.19	Win2	0.6364	0.004	Yes	3.175	-0.004	1.0	GoodResponse	1	0.122	413.693	5	43	Target	Win	False
414.693	0.3	Win2	0.6364	0.004	Yes	3.175	-0.004	1.0	GoodResponse	1	0.122	n/a	5	43	ButtonPress	Win	False
414.772	0.51	Win2	0.6364	n/a	Yes	3.175	n/a	n/a	GoodResponse	1	n/a	n/a	5	43	Blank	Win	False
415.273	1.45	Win2	0.6364	n/a	Yes	3.175	n/a	5.0	GoodResponse	1	0.014	414.287	5	43	Feedback	Win	False
416.727	3.175	Win2	0.6364	n/a	Yes	3.175	n/a	n/a	GoodResponse	1	0.0	n/a	5	43	ISIslide	Win	False
419.92	0.25	Win2	0.6444	0.0	Yes	2.98	0.02	n/a	GoodResponse	1	n/a	n/a	6	44	Cue	Win	True
420.171	4.0	Win2	0.6444	0.0	Yes	2.98	0.001	n/a	GoodResponse	1	n/a	n/a	6	44	Fixation	Win	True
424.166	0.2	Win2	0.6444	0.004	Yes	2.98	-0.004	1.0	GoodResponse	1	0.179	423.345	6	44	Target	Win	True
424.345	0.3	Win2	0.6444	0.004	Yes	2.98	-0.004	1.0	GoodResponse	1	0.179	n/a	6	44	ButtonPress	Win	True
424.367	0.5	Win2	0.6444	n/a	Yes	2.98	n/a	n/a	GoodResponse	1	n/a	n/a	6	44	Blank	Win	True
424.868	1.45	Win2	0.6444	n/a	Yes	2.98	n/a	5.0	GoodResponse	1	0.029	423.897	6	44	Feedback	Win	True
426.323	2.98	Win2	0.6444	n/a	Yes	2.98	n/a	n/a	GoodResponse	1	0.0	n/a	6	44	ISIslide	Win	True
429.315	0.25	Control	0.6522	0.0	Yes	2.885	0.015	n/a	GoodResponse	0	n/a	n/a	6	45	Cue	Neutral	True
429.566	4.1	Control	0.6522	0.0	Yes	2.885	0.001	n/a	GoodResponse	0	n/a	n/a	6	45	Fixation	Neutral	True
433.661	0.21	Control	0.6522	0.004	Yes	2.885	-0.004	1.0	GoodResponse	0	0.16	432.821	6	45	Target	Neutral	True
433.821	0.3	Control	0.6522	0.004	Yes	2.885	-0.004	1.0	GoodResponse	0	0.16	n/a	6	45	ButtonPress	Neutral	True
433.879	0.49	Control	0.6522	n/a	Yes	2.885	n/a	n/a	GoodResponse	0	n/a	n/a	6	45	Blank	Neutral	True
434.364	1.45	Control	0.6522	n/a	Yes	2.885	n/a	5.0	GoodResponse	0	0.045	433.409	6	45	Feedback	Neutral	True
435.818	2.885	Control	0.6522	n/a	Yes	2.885	n/a	n/a	GoodResponse	0	0.0	n/a	6	45	ISIslide	Neutral	True
438.727	0.25	Lose2	0.6596	0.0	Yes	3.373	0.027	n/a	GoodResponse	0	n/a	n/a	6	46	Cue	AvoidedLoss	True
438.977	4.0	Lose2	0.6596	0.0	Yes	3.373	0.0	n/a	GoodResponse	0	n/a	n/a	6	46	Fixation	AvoidedLoss	True
442.973	0.22	Lose2	0.6596	0.004	Yes	3.373	-0.004	1.0	GoodResponse	0	0.188	442.161	6	46	Target	AvoidedLoss	True
443.161	0.3	Lose2	0.6596	0.004	Yes	3.373	-0.004	1.0	GoodResponse	0	0.188	n/a	6	46	ButtonPress	AvoidedLoss	True
443.207	0.48	Lose2	0.6596	n/a	Yes	3.373	n/a	n/a	GoodResponse	0	n/a	n/a	6	46	Blank	AvoidedLoss	True
443.675	1.45	Lose2	0.6596	n/a	Yes	3.373	n/a	5.0	GoodResponse	0	0.002	442.677	6	46	Feedback	AvoidedLoss	True
445.129	3.373	Lose2	0.6596	n/a	Yes	3.373	n/a	n/a	GoodResponse	0	0.0	n/a	6	46	ISIslide	AvoidedLoss	True
448.523	0.25	Lose2	0.6667000000000001	0.0	Yes	2.677	0.023	n/a	GoodResponse	0	n/a	n/a	6	47	Cue	AvoidedLoss	True
448.773	4.0	Lose2	0.6667000000000001	0.0	Yes	2.677	0.0	n/a	GoodResponse	0	n/a	n/a	6	47	Fixation	AvoidedLoss	True
452.769	0.22	Lose2	0.6667000000000001	0.004	Yes	2.677	-0.004	1.0	GoodResponse	0	0.151	451.92	6	47	Target	AvoidedLoss	True
452.92	0.3	Lose2	0.6667000000000001	0.004	Yes	2.677	-0.004	1.0	GoodResponse	0	0.151	n/a	6	47	ButtonPress	AvoidedLoss	True
453.003	0.48	Lose2	0.6667000000000001	n/a	Yes	2.677	n/a	n/a	GoodResponse	0	n/a	n/a	6	47	Blank	AvoidedLoss	True
453.471	1.45	Lose2	0.6667000000000001	n/a	Yes	2.677	n/a	5.0	GoodResponse	0	0.011	452.482	6	47	Feedback	AvoidedLoss	True
454.925	2.677	Lose2	0.6667000000000001	n/a	Yes	2.677	n/a	n/a	GoodResponse	0	0.0	n/a	6	47	ISIslide	AvoidedLoss	True
457.616	0.25	Lose2	0.6735	0.0	Yes	3.034	0.016	n/a	GoodResponse	0	n/a	n/a	6	48	Cue	AvoidedLoss	True
457.867	3.95	Lose2	0.6735	0.0	Yes	3.034	0.001	n/a	GoodResponse	0	n/a	n/a	6	48	Fixation	AvoidedLoss	True
461.812	0.21	Lose2	0.6735	0.004	Yes	3.034	-0.004	1.0	GoodResponse	0	0.179	460.991	6	48	Target	AvoidedLoss	True
461.991	0.3	Lose2	0.6735	0.004	Yes	3.034	-0.004	1.0	GoodResponse	0	0.179	n/a	6	48	ButtonPress	AvoidedLoss	True
462.03	0.49	Lose2	0.6735	n/a	Yes	3.034	n/a	n/a	GoodResponse	0	n/a	n/a	6	48	Blank	AvoidedLoss	True
462.514	1.45	Lose2	0.6735	n/a	Yes	3.034	n/a	5.0	GoodResponse	0	0.041	461.555	6	48	Feedback	AvoidedLoss	True
463.969	3.034	Lose2	0.6735	n/a	Yes	3.034	n/a	n/a	GoodResponse	0	0.0	n/a	6	48	ISIslide	AvoidedLoss	True
467.028	0.25	Control	0.68	0.0	Yes	2.872	0.028	n/a	GoodResponse	0	n/a	n/a	6	49	Cue	Neutral	True
467.279	4.0	Control	0.68	0.0	Yes	2.872	0.001	n/a	GoodResponse	0	n/a	n/a	6	49	Fixation	Neutral	True
471.274	0.2	Control	0.68	0.004	Yes	2.872	-0.004	1.0	GoodResponse	0	0.171	470.445	6	49	Target	Neutral	True
471.445	0.3	Control	0.68	0.004	Yes	2.872	-0.004	1.0	GoodResponse	0	0.171	n/a	6	49	ButtonPress	Neutral	True
471.474	0.5	Control	0.68	n/a	Yes	2.872	n/a	n/a	GoodResponse	0	n/a	n/a	6	49	Blank	Neutral	True
471.976	1.45	Control	0.68	n/a	Yes	2.872	n/a	5.0	GoodResponse	0	0.042	471.018	6	49	Feedback	Neutral	True
473.43	2.872	Control	0.68	n/a	Yes	2.872	n/a	n/a	GoodResponse	0	0.0	n/a	6	49	ISIslide	Neutral	True
476.322	0.25	Control	0.6862999999999999	0.0	Yes	2.778	0.022	n/a	GoodResponse	0	n/a	n/a	6	50	Cue	Neutral	True
476.573	4.0	Control	0.6862999999999999	0.0	Yes	2.778	0.001	n/a	GoodResponse	0	n/a	n/a	6	50	Fixation	Neutral	True
480.568	0.19	Control	0.6862999999999999	0.004	Yes	2.778	-0.004	1.0	GoodResponse	0	0.173	479.741	6	50	Target	Neutral	True
480.741	0.3	Control	0.6862999999999999	0.004	Yes	2.778	-0.004	1.0	GoodResponse	0	0.173	n/a	6	50	ButtonPress	Neutral	True
480.769	0.51	Control	0.6862999999999999	n/a	Yes	2.778	n/a	n/a	GoodResponse	0	n/a	n/a	6	50	Blank	Neutral	True
481.27	1.45	Control	0.6862999999999999	n/a	Yes	2.778	n/a	5.0	GoodResponse	0	0.017	480.287	6	50	Feedback	Neutral	True
482.725	2.778	Control	0.6862999999999999	n/a	Yes	2.778	n/a	n/a	GoodResponse	0	0.0	n/a	6	50	ISIslide	Neutral	True
485.516	0.25	Control	0.6731	0.001	No	2.734	0.016	n/a	NoResponse	0	n/a	n/a	6	51	Cue	Neutral	True
485.767	3.95	Control	0.6731	0.0	No	2.734	0.001	n/a	NoResponse	0	n/a	n/a	6	51	Fixation	Neutral	True
489.712	0.18	Control	0.6731	0.004	No	2.734	-0.004	1.0	NoResponse	0	0.185	488.897	6	51	Target	Neutral	True
489.896	0.52	Control	0.6731	n/a	No	2.734	n/a	n/a	NoResponse	0	n/a	n/a	6	51	Blank	Neutral	True
489.897	0.3	Control	0.6731	0.004	No	2.734	-0.004	1.0	NoResponse	0	0.185	n/a	6	51	ButtonPress	Neutral	True
490.414	1.45	Control	0.6731	n/a	No	2.734	n/a	5.0	NoResponse	0	0.043	489.457	6	51	Feedback	Neutral	True
491.869	2.734	Control	0.6731	n/a	No	2.734	n/a	n/a	NoResponse	0	0.0	n/a	6	51	ISIslide	Neutral	True
494.627	0.25	Control	0.6604000000000001	0.0	No	2.623	0.027	n/a	LatePress	0	n/a	n/a	6	52	Cue	Neutral	True
494.878	4.05	Control	0.6604000000000001	0.0	No	2.623	0.001	n/a	LatePress	0	n/a	n/a	6	52	Fixation	Neutral	True
498.923	0.17	Control	0.6604000000000001	0.004	No	2.623	-0.004	1.0	LatePress	0	0.175	498.098	6	52	Target	Neutral	True
499.098	0.3	Control	0.6604000000000001	0.004	No	2.623	-0.004	1.0	LatePress	0	0.175	n/a	6	52	ButtonPress	Neutral	True
499.107	0.53	Control	0.6604000000000001	n/a	No	2.623	n/a	n/a	LatePress	0	n/a	n/a	6	52	Blank	Neutral	True
499.625	1.45	Control	0.6604000000000001	n/a	No	2.623	n/a	5.0	LatePress	0	0.005	498.63	6	52	Feedback	Neutral	True
501.08	2.623	Control	0.6604000000000001	n/a	No	2.623	n/a	n/a	LatePress	0	0.0	n/a	6	52	ISIslide	Neutral	True
503.721	0.25	Win2	0.6667000000000001	0.0	Yes	2.929	0.021	n/a	GoodResponse	1	n/a	n/a	7	53	Cue	Win	True
503.972	4.05	Win2	0.6667000000000001	0.0	Yes	2.929	0.001	n/a	GoodResponse	1	n/a	n/a	7	53	Fixation	Win	True
508.017	0.17	Win2	0.6667000000000001	0.004	Yes	2.929	-0.004	1.0	GoodResponse	1	0.169	507.186	7	53	Target	Win	True
508.186	0.3	Win2	0.6667000000000001	0.004	Yes	2.929	-0.004	1.0	GoodResponse	1	0.169	n/a	7	53	ButtonPress	Win	True
508.201	0.53	Win2	0.6667000000000001	n/a	Yes	2.929	n/a	n/a	GoodResponse	1	n/a	n/a	7	53	Blank	Win	True
508.719	1.45	Win2	0.6667000000000001	n/a	Yes	2.929	n/a	5.0	GoodResponse	1	0.03	507.749	7	53	Feedback	Win	True
510.174	2.929	Win2	0.6667000000000001	n/a	Yes	2.929	n/a	n/a	GoodResponse	1	0.0	n/a	7	53	ISIslide	Win	True
513.116	0.25	Win2	0.6545000000000001	0.0	No	2.734	0.016	n/a	NoResponse	0	n/a	n/a	7	54	Cue	MissedWin	True
513.366	3.95	Win2	0.6545000000000001	0.0	No	2.734	0.0	n/a	NoResponse	0	n/a	n/a	7	54	Fixation	MissedWin	True
517.312	0.16	Win2	0.6545000000000001	0.004	No	2.734	-0.004	1.0	NoResponse	0	0.193	516.505	7	54	Target	MissedWin	True
517.479	0.54	Win2	0.6545000000000001	n/a	No	2.734	n/a	n/a	NoResponse	0	n/a	n/a	7	54	Blank	MissedWin	True
517.505	0.3	Win2	0.6545000000000001	0.004	No	2.734	-0.004	1.0	NoResponse	0	0.193	n/a	7	54	ButtonPress	MissedWin	True
518.014	1.45	Win2	0.6545000000000001	n/a	No	2.734	n/a	5.0	NoResponse	0	0.004	517.018	7	54	Feedback	MissedWin	True
519.468	2.734	Win2	0.6545000000000001	n/a	No	2.734	n/a	n/a	NoResponse	0	0.0	n/a	7	54	ISIslide	MissedWin	True
522.226	0.25	Control	0.6429	0.0	No	3.024	0.026	n/a	PrematurePress	0	n/a	n/a	7	55	Cue	Neutral	True
522.477	3.95	Control	0.6429	0.0	No	3.024	0.001	n/a	PrematurePress	0	n/a	n/a	7	55	Fixation	Neutral	True
526.422	0.17	Control	0.6429	0.004	No	3.024	-0.004	1.0	PrematurePress	0	0.097	525.519	7	55	Target	Neutral	True
526.519	0.3	Control	0.6429	0.004	No	3.024	-0.004	1.0	PrematurePress	0	0.097	n/a	7	55	ButtonPress	Neutral	True
526.606	0.53	Control	0.6429	n/a	No	3.024	n/a	n/a	PrematurePress	0	n/a	n/a	7	55	Blank	Neutral	True
527.124	1.45	Control	0.6429	n/a	No	3.024	n/a	5.0	PrematurePress	0	0.016	526.14	7	55	Feedback	Neutral	True
528.579	3.024	Control	0.6429	n/a	No	3.024	n/a	n/a	PrematurePress	0	0.0	n/a	7	55	ISIslide	Neutral	True
531.621	0.25	Control	0.6315999999999999	0.0	No	2.829	0.021	n/a	PrematurePress	0	n/a	n/a	7	56	Cue	Neutral	False
531.872	3.95	Control	0.6315999999999999	0.0	No	2.829	0.001	1.0	PrematurePress	0	3.743	534.615	7	56	Fixation	Neutral	False
535.615	0.3	Control	0.6315999999999999	0.0	No	2.829	0.001	1.0	PrematurePress	0	3.743	n/a	7	56	ButtonPress	Neutral	False
535.817	0.18	Control	0.6315999999999999	0.004	No	2.829	-0.004	1.0	PrematurePress	0	0.066	534.883	7	56	Target	Neutral	False
535.883	0.3	Control	0.6315999999999999	0.004	No	2.829	-0.004	1.0	PrematurePress	0	0.066	n/a	7	56	ButtonPress	Neutral	False
536.001	0.52	Control	0.6315999999999999	n/a	No	2.829	n/a	n/a	PrematurePress	0	n/a	n/a	7	56	Blank	Neutral	False
536.519	1.45	Control	0.6315999999999999	n/a	No	2.829	n/a	5.0	PrematurePress	0	0.035	535.554	7	56	Feedback	Neutral	False
537.973	2.829	Control	0.6315999999999999	n/a	No	2.829	n/a	n/a	PrematurePress	0	0.0	n/a	7	56	ISIslide	Neutral	False
540.815	0.25	Control	0.6379	0.0	Yes	3.485	0.015	n/a	GoodResponse	0	n/a	n/a	7	57	Cue	Neutral	True
541.066	4.0	Control	0.6379	0.0	Yes	3.485	0.001	n/a	GoodResponse	0	n/a	n/a	7	57	Fixation	Neutral	True
545.061	0.19	Control	0.6379	0.004	Yes	3.485	-0.004	1.0	GoodResponse	0	0.178	544.239	7	57	Target	Neutral	True
545.239	0.3	Control	0.6379	0.004	Yes	3.485	-0.004	1.0	GoodResponse	0	0.178	n/a	7	57	ButtonPress	Neutral	True
545.262	0.51	Control	0.6379	n/a	Yes	3.485	n/a	n/a	GoodResponse	0	n/a	n/a	7	57	Blank	Neutral	True
545.763	1.45	Control	0.6379	n/a	Yes	3.485	n/a	5.0	GoodResponse	0	0.01	544.773	7	57	Feedback	Neutral	True
547.218	3.485	Control	0.6379	n/a	Yes	3.485	n/a	n/a	GoodResponse	0	0.0	n/a	7	57	ISIslide	Neutral	True
550.728	0.25	Win2	0.6441	0.0	Yes	2.722	0.028	n/a	GoodResponse	1	n/a	n/a	8	58	Cue	Win	True
550.979	4.05	Win2	0.6441	0.0	Yes	2.722	0.001	n/a	GoodResponse	1	n/a	n/a	8	58	Fixation	Win	True
555.024	0.2	Win2	0.6441	0.004	Yes	2.722	-0.004	1.0	GoodResponse	1	0.155	554.179	8	58	Target	Win	True
555.179	0.3	Win2	0.6441	0.004	Yes	2.722	-0.004	1.0	GoodResponse	1	0.155	n/a	8	58	ButtonPress	Win	True
555.225	0.5	Win2	0.6441	n/a	Yes	2.722	n/a	n/a	GoodResponse	1	n/a	n/a	8	58	Blank	Win	True
555.726	1.45	Win2	0.6441	n/a	Yes	2.722	n/a	5.0	GoodResponse	1	0.047	554.773	8	58	Feedback	Win	True
557.181	2.722	Win2	0.6441	n/a	Yes	2.722	n/a	n/a	GoodResponse	1	0.0	n/a	8	58	ISIslide	Win	True
559.922	0.25	Lose2	0.65	0.0	Yes	2.678	0.022	n/a	GoodResponse	0	n/a	n/a	8	59	Cue	AvoidedLoss	True
560.173	4.0	Lose2	0.65	0.0	Yes	2.678	0.001	n/a	GoodResponse	0	n/a	n/a	8	59	Fixation	AvoidedLoss	True
564.168	0.21	Lose2	0.65	0.004	Yes	2.678	-0.004	1.0	GoodResponse	0	0.179	563.347	8	59	Target	AvoidedLoss	True
564.347	0.3	Lose2	0.65	0.004	Yes	2.678	-0.004	1.0	GoodResponse	0	0.179	n/a	8	59	ButtonPress	AvoidedLoss	True
564.386	0.49	Lose2	0.65	n/a	Yes	2.678	n/a	n/a	GoodResponse	0	n/a	n/a	8	59	Blank	AvoidedLoss	True
564.87	1.45	Lose2	0.65	n/a	Yes	2.678	n/a	5.0	GoodResponse	0	0.025	563.895	8	59	Feedback	AvoidedLoss	True
566.325	2.678	Lose2	0.65	n/a	Yes	2.678	n/a	n/a	GoodResponse	0	0.0	n/a	8	59	ISIslide	AvoidedLoss	True
569.016	0.25	Control	0.6557	0.0	Yes	2.684	0.016	n/a	GoodResponse	0	n/a	n/a	8	60	Cue	Neutral	True
569.267	4.0	Control	0.6557	0.0	Yes	2.684	0.001	n/a	GoodResponse	0	n/a	n/a	8	60	Fixation	Neutral	True
573.262	0.22	Control	0.6557	0.004	Yes	2.684	-0.004	1.0	GoodResponse	0	0.194	572.456	8	60	Target	Neutral	True
573.456	0.3	Control	0.6557	0.004	Yes	2.684	-0.004	1.0	GoodResponse	0	0.194	n/a	8	60	ButtonPress	Neutral	True
573.496	0.48	Control	0.6557	n/a	Yes	2.684	n/a	n/a	GoodResponse	0	n/a	n/a	8	60	Blank	Neutral	True
573.964	1.45	Control	0.6557	n/a	Yes	2.684	n/a	5.0	GoodResponse	0	0.005	572.969	8	60	Feedback	Neutral	True
575.419	2.684	Control	0.6557	n/a	Yes	2.684	n/a	n/a	GoodResponse	0	0.0	n/a	8	60	ISIslide	Neutral	True
578.127	0.25	Lose2	0.6613	0.0	Yes	2.973	0.027	n/a	GoodResponse	0	n/a	n/a	8	61	Cue	AvoidedLoss	True
578.377	4.0	Lose2	0.6613	0.001	Yes	2.973	0.0	n/a	GoodResponse	0	n/a	n/a	8	61	Fixation	AvoidedLoss	True
582.373	0.22	Lose2	0.6613	0.004	Yes	2.973	-0.004	1.0	GoodResponse	0	0.184	581.557	8	61	Target	AvoidedLoss	True
582.557	0.3	Lose2	0.6613	0.004	Yes	2.973	-0.004	1.0	GoodResponse	0	0.184	n/a	8	61	ButtonPress	AvoidedLoss	True
582.607	0.48	Lose2	0.6613	n/a	Yes	2.973	n/a	n/a	GoodResponse	0	n/a	n/a	8	61	Blank	AvoidedLoss	True
583.075	1.45	Lose2	0.6613	n/a	Yes	2.973	n/a	5.0	GoodResponse	0	0.016	582.091	8	61	Feedback	AvoidedLoss	True
584.529	2.973	Lose2	0.6613	n/a	Yes	2.973	n/a	n/a	GoodResponse	0	0.0	n/a	8	61	ISIslide	AvoidedLoss	True
587.521	0.25	Lose2	0.6667000000000001	0.001	Yes	2.879	0.021	n/a	GoodResponse	0	n/a	n/a	8	62	Cue	AvoidedLoss	True
587.772	3.9	Lose2	0.6667000000000001	0.0	Yes	2.879	0.001	n/a	GoodResponse	0	n/a	n/a	8	62	Fixation	AvoidedLoss	True
591.667	0.22	Lose2	0.6667000000000001	0.004	Yes	2.879	-0.004	1.0	GoodResponse	0	0.186	590.853	8	62	Target	AvoidedLoss	True
591.853	0.3	Lose2	0.6667000000000001	0.004	Yes	2.879	-0.004	1.0	GoodResponse	0	0.186	n/a	8	62	ButtonPress	AvoidedLoss	True
591.901	0.48	Lose2	0.6667000000000001	n/a	Yes	2.879	n/a	n/a	GoodResponse	0	n/a	n/a	8	62	Blank	AvoidedLoss	True
592.369	1.45	Lose2	0.6667000000000001	n/a	Yes	2.879	n/a	5.0	GoodResponse	0	0.038	591.407	8	62	Feedback	AvoidedLoss	True
593.824	2.879	Lose2	0.6667000000000001	n/a	Yes	2.879	n/a	n/a	GoodResponse	0	0.0	n/a	8	62	ISIslide	AvoidedLoss	True
596.716	0.25	Lose2	0.6718999999999999	0.0	Yes	2.634	0.016	n/a	GoodResponse	0	n/a	n/a	8	63	Cue	AvoidedLoss	True
596.966	4.05	Lose2	0.6718999999999999	0.0	Yes	2.634	0.0	n/a	GoodResponse	0	n/a	n/a	8	63	Fixation	AvoidedLoss	True
601.012	0.21	Lose2	0.6718999999999999	0.004	Yes	2.634	-0.004	1.0	GoodResponse	0	0.17	600.182	8	63	Target	AvoidedLoss	True
601.182	0.3	Lose2	0.6718999999999999	0.004	Yes	2.634	-0.004	1.0	GoodResponse	0	0.17	n/a	8	63	ButtonPress	AvoidedLoss	True
601.229	0.49	Lose2	0.6718999999999999	n/a	Yes	2.634	n/a	n/a	GoodResponse	0	n/a	n/a	8	63	Blank	AvoidedLoss	True
601.714	1.45	Lose2	0.6718999999999999	n/a	Yes	2.634	n/a	5.0	GoodResponse	0	0.01	600.724	8	63	Feedback	AvoidedLoss	True
603.168	2.634	Lose2	0.6718999999999999	n/a	Yes	2.634	n/a	n/a	GoodResponse	0	0.0	n/a	8	63	ISIslide	AvoidedLoss	True
605.826	0.25	Win2	0.6769	0.0	Yes	3.124	0.026	n/a	GoodResponse	1	n/a	n/a	9	64	Cue	Win	False
606.077	4.15	Win2	0.6769	0.0	Yes	3.124	0.001	1.0	GoodResponse	1	3.931	609.008	9	64	Fixation	Win	False
610.008	0.3	Win2	0.6769	0.0	Yes	3.124	0.001	1.0	GoodResponse	1	3.931	n/a	9	64	ButtonPress	Win	False
610.223	0.2	Win2	0.6769	0.003	Yes	3.124	-0.003	1.0	GoodResponse	1	0.143	609.366	9	64	Target	Win	False
610.366	0.3	Win2	0.6769	0.003	Yes	3.124	-0.003	1.0	GoodResponse	1	0.143	n/a	9	64	ButtonPress	Win	False
610.423	0.5	Win2	0.6769	n/a	Yes	3.124	n/a	n/a	GoodResponse	1	n/a	n/a	9	64	Blank	Win	False
610.925	1.45	Win2	0.6769	n/a	Yes	3.124	n/a	5.0	GoodResponse	1	0.019	609.944	9	64	Feedback	Win	False
612.379	3.124	Win2	0.6769	n/a	Yes	3.124	n/a	n/a	GoodResponse	1	0.0	n/a	9	64	ISIslide	Win	False
615.522	0.25	Control	0.6818000000000001	0.0	Yes	2.778	0.022	n/a	GoodResponse	0	n/a	n/a	9	65	Cue	Neutral	True
615.773	4.0	Control	0.6818000000000001	0.0	Yes	2.778	0.001	n/a	GoodResponse	0	n/a	n/a	9	65	Fixation	Neutral	True
619.768	0.19	Control	0.6818000000000001	0.004	Yes	2.778	-0.004	1.0	GoodResponse	0	0.175	618.943	9	65	Target	Neutral	True
619.943	0.3	Control	0.6818000000000001	0.004	Yes	2.778	-0.004	1.0	GoodResponse	0	0.175	n/a	9	65	ButtonPress	Neutral	True
619.968	0.51	Control	0.6818000000000001	n/a	Yes	2.778	n/a	n/a	GoodResponse	0	n/a	n/a	9	65	Blank	Neutral	True
620.47	1.45	Control	0.6818000000000001	n/a	Yes	2.778	n/a	5.0	GoodResponse	0	0.035	619.505	9	65	Feedback	Neutral	True
621.924	2.778	Control	0.6818000000000001	n/a	Yes	2.778	n/a	n/a	GoodResponse	0	0.0	n/a	9	65	ISIslide	Neutral	True
624.716	0.25	Win2	0.6866	0.0	Yes	2.784	0.016	n/a	GoodResponse	1	n/a	n/a	10	66	Cue	Win	True
624.967	3.9	Win2	0.6866	0.0	Yes	2.784	0.001	n/a	GoodResponse	1	n/a	n/a	10	66	Fixation	Win	True
628.862	0.18	Win2	0.6866	0.004	Yes	2.784	-0.004	1.0	GoodResponse	1	0.177	628.039	10	66	Target	Win	True
629.039	0.3	Win2	0.6866	0.004	Yes	2.784	-0.004	1.0	GoodResponse	1	0.177	n/a	10	66	ButtonPress	Win	True
629.046	0.52	Win2	0.6866	n/a	Yes	2.784	n/a	n/a	GoodResponse	1	n/a	n/a	10	66	Blank	Win	True
629.564	1.45	Win2	0.6866	n/a	Yes	2.784	n/a	5.0	GoodResponse	1	0.013	628.577	10	66	Feedback	Win	True
631.018	2.784	Win2	0.6866	n/a	Yes	2.784	n/a	n/a	GoodResponse	1	0.0	n/a	10	66	ISIslide	Win	True
633.827	0.25	Control	0.6765000000000001	0.0	No	2.723	0.027	n/a	NoResponse	0	n/a	n/a	10	67	Cue	Neutral	True
634.077	3.95	Control	0.6765000000000001	0.0	No	2.723	0.0	n/a	NoResponse	0	n/a	n/a	10	67	Fixation	Neutral	True
638.039	0.17	Control	0.6765000000000001	0.0	No	2.723	0.012	1.0	NoResponse	0	0.18	637.219	10	67	Target	Neutral	True
638.206	0.53	Control	0.6765000000000001	n/a	No	2.723	n/a	n/a	NoResponse	0	n/a	n/a	10	67	Blank	Neutral	True
638.219	0.3	Control	0.6765000000000001	0.0	No	2.723	0.012	1.0	NoResponse	0	0.18	n/a	10	67	ButtonPress	Neutral	True
638.725	1.45	Control	0.6765000000000001	n/a	No	2.723	n/a	5.0	NoResponse	0	0.023	637.748	10	67	Feedback	Neutral	True
640.179	2.723	Control	0.6765000000000001	n/a	No	2.723	n/a	n/a	NoResponse	0	0.0	n/a	10	67	ISIslide	Neutral	True
642.92	0.25	Win2	0.6667000000000001	0.001	No	3.08	0.02	n/a	NoResponse	0	n/a	n/a	10	68	Cue	MissedWin	True
643.171	4.0	Win2	0.6667000000000001	0.0	No	3.08	0.001	n/a	NoResponse	0	n/a	n/a	10	68	Fixation	MissedWin	True
647.166	0.16	Win2	0.6667000000000001	0.004	No	3.08	-0.004	1.0	NoResponse	0	0.183	646.349	10	68	Target	MissedWin	True
647.334	0.54	Win2	0.6667000000000001	n/a	No	3.08	n/a	n/a	NoResponse	0	n/a	n/a	10	68	Blank	MissedWin	True
647.349	0.3	Win2	0.6667000000000001	0.004	No	3.08	-0.004	1.0	NoResponse	0	0.183	n/a	10	68	ButtonPress	MissedWin	True
647.869	1.45	Win2	0.6667000000000001	n/a	No	3.08	n/a	5.0	NoResponse	0	0.001	646.87	10	68	Feedback	MissedWin	True
649.323	3.08	Win2	0.6667000000000001	n/a	No	3.08	n/a	n/a	NoResponse	0	0.0	n/a	10	68	ISIslide	MissedWin	True
652.415	0.25	Win2	0.6714	0.001	Yes	3.235	0.015	n/a	GoodResponse	1	n/a	n/a	11	69	Cue	Win	True
652.666	3.95	Win2	0.6714	0.0	Yes	3.235	0.001	n/a	GoodResponse	1	n/a	n/a	11	69	Fixation	Win	True
656.611	0.15	Win2	0.6714	0.004	Yes	3.235	-0.004	1.0	GoodResponse	1	0.101	655.712	11	69	Target	Win	True
656.712	0.3	Win2	0.6714	0.004	Yes	3.235	-0.004	1.0	GoodResponse	1	0.101	n/a	11	69	ButtonPress	Win	True
656.762	0.55	Win2	0.6714	n/a	Yes	3.235	n/a	n/a	GoodResponse	1	n/a	n/a	11	69	Blank	Win	True
657.313	1.45	Win2	0.6714	n/a	Yes	3.235	n/a	5.0	GoodResponse	1	0.02	656.333	11	69	Feedback	Win	True
658.768	3.235	Win2	0.6714	n/a	Yes	3.235	n/a	n/a	GoodResponse	1	0.0	n/a	11	69	ISIslide	Win	True
662.028	0.25	Lose2	0.662	0.0	No	3.022	0.028	n/a	NoResponse	-1	n/a	n/a	10	70	Cue	Loss	True
662.278	4.05	Lose2	0.662	0.0	No	3.022	0.0	n/a	NoResponse	-1	n/a	n/a	10	70	Fixation	Loss	True
666.324	0.15	Lose2	0.662	0.004	No	3.022	-0.004	1.0	NoResponse	-1	0.171	665.495	10	70	Target	Loss	True
666.474	0.55	Lose2	0.662	n/a	No	3.022	n/a	n/a	NoResponse	-1	n/a	n/a	10	70	Blank	Loss	True
666.495	0.3	Lose2	0.662	0.004	No	3.022	-0.004	1.0	NoResponse	-1	0.171	n/a	10	70	ButtonPress	Loss	True
667.026	1.45	Lose2	0.662	n/a	No	3.022	n/a	5.0	NoResponse	-1	0.015	666.041	10	70	Feedback	Loss	True
668.48	3.022	Lose2	0.662	n/a	No	3.022	n/a	n/a	NoResponse	-1	0.0	n/a	10	70	ISIslide	Loss	True
671.523	0.25	Win2	0.6528	0.0	No	2.727	0.023	n/a	NoResponse	0	n/a	n/a	10	71	Cue	MissedWin	True
671.773	4.05	Win2	0.6528	0.0	No	2.727	0.0	n/a	NoResponse	0	n/a	n/a	10	71	Fixation	MissedWin	True
675.819	0.15	Win2	0.6528	0.004	No	2.727	-0.004	1.0	NoResponse	0	0.183	675.002	10	71	Target	MissedWin	True
675.969	0.55	Win2	0.6528	n/a	No	2.727	n/a	n/a	NoResponse	0	n/a	n/a	10	71	Blank	MissedWin	True
676.002	0.3	Win2	0.6528	0.004	No	2.727	-0.004	1.0	NoResponse	0	0.183	n/a	10	71	ButtonPress	MissedWin	True
676.521	1.45	Win2	0.6528	n/a	No	2.727	n/a	5.0	NoResponse	0	0.031	675.552	10	71	Feedback	MissedWin	True
677.975	2.727	Win2	0.6528	n/a	No	2.727	n/a	n/a	NoResponse	0	0.0	n/a	10	71	ISIslide	MissedWin	True
680.717	0.25	Win2	0.6437999999999999	0.0	No	2.783	0.017	n/a	NoResponse	0	n/a	n/a	10	72	Cue	MissedWin	True
680.968	4.1	Win2	0.6437999999999999	0.0	No	2.783	0.001	n/a	NoResponse	0	n/a	n/a	10	72	Fixation	MissedWin	True
685.063	0.16	Win2	0.6437999999999999	0.004	No	2.783	-0.004	1.0	NoResponse	0	0.184	684.247	10	72	Target	MissedWin	True
685.23	0.54	Win2	0.6437999999999999	n/a	No	2.783	n/a	n/a	NoResponse	0	n/a	n/a	10	72	Blank	MissedWin	True
685.247	0.3	Win2	0.6437999999999999	0.004	No	2.783	-0.004	1.0	NoResponse	0	0.184	n/a	10	72	ButtonPress	MissedWin	True
685.765	1.45	Win2	0.6437999999999999	n/a	No	2.783	n/a	5.0	NoResponse	0	0.007	684.772	10	72	Feedback	MissedWin	True
687.22	2.783	Win2	0.6437999999999999	n/a	No	2.783	n/a	n/a	NoResponse	0	0.0	n/a	10	72	ISIslide	MissedWin	True
690.028	0.25	Win2	0.6351	0.0	No	2.672	0.028	n/a	LatePress	0	n/a	n/a	10	73	Cue	MissedWin	True
690.279	4.0	Win2	0.6351	0.0	No	2.672	0.001	n/a	LatePress	0	n/a	n/a	10	73	Fixation	MissedWin	True
694.274	0.17	Win2	0.6351	0.004	No	2.672	-0.004	1.0	LatePress	0	0.175	693.449	10	73	Target	MissedWin	True
694.449	0.3	Win2	0.6351	0.004	No	2.672	-0.004	1.0	LatePress	0	0.175	n/a	10	73	ButtonPress	MissedWin	True
694.458	0.53	Win2	0.6351	n/a	No	2.672	n/a	n/a	LatePress	0	n/a	n/a	10	73	Blank	MissedWin	True
694.976	1.45	Win2	0.6351	n/a	No	2.672	n/a	5.0	LatePress	0	0.015	693.991	10	73	Feedback	MissedWin	True
696.43	2.672	Win2	0.6351	n/a	No	2.672	n/a	n/a	LatePress	0	0.0	n/a	10	73	ISIslide	MissedWin	True
699.122	0.25	Lose2	0.6267	0.0	No	2.628	0.022	n/a	NoResponse	-1	n/a	n/a	9	74	Cue	Loss	True
699.373	4.05	Lose2	0.6267	0.0	No	2.628	0.001	n/a	NoResponse	-1	n/a	n/a	9	74	Fixation	Loss	True
703.418	0.18	Lose2	0.6267	0.004	No	2.628	-0.004	1.0	NoResponse	-1	0.189	702.607	9	74	Target	Loss	True
703.602	0.52	Lose2	0.6267	n/a	No	2.628	n/a	n/a	NoResponse	-1	n/a	n/a	9	74	Blank	Loss	True
703.607	0.3	Lose2	0.6267	0.004	No	2.628	-0.004	1.0	NoResponse	-1	0.189	n/a	9	74	ButtonPress	Loss	True
704.12	1.45	Lose2	0.6267	n/a	No	2.628	n/a	5.0	NoResponse	-1	0.042	703.162	9	74	Feedback	Loss	True
705.574	2.628	Lose2	0.6267	n/a	No	2.628	n/a	n/a	NoResponse	-1	0.0	n/a	9	74	ISIslide	Loss	True
708.216	0.25	Lose2	0.6315999999999999	0.0	Yes	2.934	0.016	n/a	GoodResponse	0	n/a	n/a	9	75	Cue	AvoidedLoss	True
708.466	3.95	Lose2	0.6315999999999999	0.0	Yes	2.934	0.0	n/a	GoodResponse	0	n/a	n/a	9	75	Fixation	AvoidedLoss	True
712.412	0.19	Lose2	0.6315999999999999	0.004	Yes	2.934	-0.004	1.0	GoodResponse	0	0.168	711.58	9	75	Target	AvoidedLoss	True
712.58	0.3	Lose2	0.6315999999999999	0.004	Yes	2.934	-0.004	1.0	GoodResponse	0	0.168	n/a	9	75	ButtonPress	AvoidedLoss	True
712.612	0.51	Lose2	0.6315999999999999	n/a	Yes	2.934	n/a	n/a	GoodResponse	0	n/a	n/a	9	75	Blank	AvoidedLoss	True
713.114	1.45	Lose2	0.6315999999999999	n/a	Yes	2.934	n/a	5.0	GoodResponse	0	0.023	712.137	9	75	Feedback	AvoidedLoss	True
714.568	2.934	Lose2	0.6315999999999999	n/a	Yes	2.934	n/a	n/a	GoodResponse	0	0.0	n/a	9	75	ISIslide	AvoidedLoss	True
717.527	0.25	Control	0.6364	0.0	Yes	3.223	0.027	n/a	GoodResponse	0	n/a	n/a	9	76	Cue	Neutral	True
717.778	4.05	Control	0.6364	0.0	Yes	3.223	0.001	n/a	GoodResponse	0	n/a	n/a	9	76	Fixation	Neutral	True
721.823	0.2	Control	0.6364	0.004	Yes	3.223	-0.004	1.0	GoodResponse	0	0.181	721.004	9	76	Target	Neutral	True
722.004	0.3	Control	0.6364	0.004	Yes	3.223	-0.004	1.0	GoodResponse	0	0.181	n/a	9	76	ButtonPress	Neutral	True
722.024	0.5	Control	0.6364	n/a	Yes	3.223	n/a	n/a	GoodResponse	0	n/a	n/a	9	76	Blank	Neutral	True
722.525	1.45	Control	0.6364	n/a	Yes	3.223	n/a	5.0	GoodResponse	0	0.026	721.551	9	76	Feedback	Neutral	True
723.979	3.223	Control	0.6364	n/a	Yes	3.223	n/a	n/a	GoodResponse	0	0.0	n/a	9	76	ISIslide	Neutral	True
727.222	0.25	Lose2	0.6409999999999999	0.001	Yes	2.578	0.022	n/a	GoodResponse	0	n/a	n/a	9	77	Cue	AvoidedLoss	True
727.473	3.95	Lose2	0.6409999999999999	0.0	Yes	2.578	0.001	n/a	GoodResponse	0	n/a	n/a	9	77	Fixation	AvoidedLoss	True
731.418	0.21	Lose2	0.6409999999999999	0.004	Yes	2.578	-0.004	1.0	GoodResponse	0	0.168	730.586	9	77	Target	AvoidedLoss	True
731.586	0.3	Lose2	0.6409999999999999	0.004	Yes	2.578	-0.004	1.0	GoodResponse	0	0.168	n/a	9	77	ButtonPress	AvoidedLoss	True
731.636	0.49	Lose2	0.6409999999999999	n/a	Yes	2.578	n/a	n/a	GoodResponse	0	n/a	n/a	9	77	Blank	AvoidedLoss	True
732.12	1.45	Lose2	0.6409999999999999	n/a	Yes	2.578	n/a	5.0	GoodResponse	0	0.041	731.161	9	77	Feedback	AvoidedLoss	True
733.575	2.578	Lose2	0.6409999999999999	n/a	Yes	2.578	n/a	n/a	GoodResponse	0	0.0	n/a	9	77	ISIslide	AvoidedLoss	True
