onset	duration	cue_type	current_mean_accuracy	duration_error	is_hit	isi_adjusted	onset_delay	response	response_type	reward	rt	rt_time	total_reward	trial_number	trial_phase	trial_type	one_press
11.107	0.25	Control	1.0	0.0	Yes	2.943	0.007	n/a	GoodResponse	0	n/a	n/a	0	0	Cue	Neutral	True
11.358	3.85	Control	1.0	0.0	Yes	2.943	0.001	n/a	GoodResponse	0	n/a	n/a	0	0	Fixation	Neutral	True
15.219	0.4	Control	1.0	0.0	Yes	2.943	0.012	2.0	GoodResponse	0	0.232	14.451	0	0	Target	Neutral	True
15.451	0.3	Control	1.0	0.0	Yes	2.943	0.012	2.0	GoodResponse	0	0.232	n/a	0	0	ButtonPress	Neutral	True
15.604	0.3	Control	1.0	n/a	Yes	2.943	n/a	n/a	GoodResponse	0	n/a	n/a	0	0	Blank	Neutral	True
15.905	1.45	Control	1.0	n/a	Yes	2.943	n/a	5.0	GoodResponse	0	0.022	14.927	0	0	Feedback	Neutral	True
17.359	2.943	Control	1.0	n/a	Yes	2.943	n/a	n/a	GoodResponse	0	0.0	n/a	0	0	ISIslide	Neutral	True
20.318	0.25	Lose2	1.0	0.0	Yes	2.782	0.018	n/a	GoodResponse	0	n/a	n/a	0	1	Cue	AvoidedLoss	True
20.568	4.0	Lose2	1.0	0.001	Yes	2.782	0.0	n/a	GoodResponse	0	n/a	n/a	0	1	Fixation	AvoidedLoss	True
24.564	0.39	Lose2	1.0	0.004	Yes	2.782	-0.004	2.0	GoodResponse	0	0.204	23.768	0	1	Target	AvoidedLoss	True
24.768	0.3	Lose2	1.0	0.004	Yes	2.782	-0.004	2.0	GoodResponse	0	0.204	n/a	0	1	ButtonPress	AvoidedLoss	True
24.965	0.31	Lose2	1.0	n/a	Yes	2.782	n/a	n/a	GoodResponse	0	n/a	n/a	0	1	Blank	AvoidedLoss	True
25.266	1.45	Lose2	1.0	n/a	Yes	2.782	n/a	5.0	GoodResponse	0	0.027	24.293	0	1	Feedback	AvoidedLoss	True
26.72	2.782	Lose2	1.0	n/a	Yes	2.782	n/a	n/a	GoodResponse	0	0.0	n/a	0	1	ISIslide	AvoidedLoss	True
29.529	0.25	Control	1.0	0.0	Yes	2.571	0.029	n/a	GoodResponse	0	n/a	n/a	0	2	Cue	Neutral	True
29.779	4.1	Control	1.0	0.001	Yes	2.571	0.0	n/a	GoodResponse	0	n/a	n/a	0	2	Fixation	Neutral	True
33.875	0.38	Control	1.0	0.004	Yes	2.571	-0.004	2.0	GoodResponse	0	0.293	33.168	0	2	Target	Neutral	True
34.168	0.3	Control	1.0	0.004	Yes	2.571	-0.004	2.0	GoodResponse	0	0.293	n/a	0	2	ButtonPress	Neutral	True
34.259	0.32	Control	1.0	n/a	Yes	2.571	n/a	n/a	GoodResponse	0	n/a	n/a	0	2	Blank	Neutral	True
34.577	1.45	Control	1.0	n/a	Yes	2.571	n/a	5.0	GoodResponse	0	0.032	33.609	0	2	Feedback	Neutral	True
36.031	2.571	Control	1.0	n/a	Yes	2.571	n/a	n/a	GoodResponse	0	0.0	n/a	0	2	ISIslide	Neutral	True
38.623	0.25	Win2	1.0	0.0	Yes	2.827	0.023	n/a	GoodResponse	1	n/a	n/a	1	3	Cue	Win	True
38.873	3.95	Win2	1.0	0.0	Yes	2.827	0.0	n/a	GoodResponse	1	n/a	n/a	1	3	Fixation	Win	True
42.835	0.37	Win2	1.0	0.0	Yes	2.827	0.012	2.0	GoodResponse	1	0.227	42.062	1	3	Target	Win	True
43.062	0.3	Win2	1.0	0.0	Yes	2.827	0.012	2.0	GoodResponse	1	0.227	n/a	1	3	ButtonPress	Win	True
43.203	0.33	Win2	1.0	n/a	Yes	2.827	n/a	n/a	GoodResponse	1	n/a	n/a	1	3	Blank	Win	True
43.521	1.45	Win2	1.0	n/a	Yes	2.827	n/a	5.0	GoodResponse	1	0.015	42.536	1	3	Feedback	Win	True
44.975	2.827	Win2	1.0	n/a	Yes	2.827	n/a	n/a	GoodResponse	1	0.0	n/a	1	3	ISIslide	Win	True
47.817	0.25	Win2	1.0	0.0	Yes	3.283	0.017	n/a	GoodResponse	1	n/a	n/a	2	4	Cue	Win	True
48.068	4.0	Win2	1.0	0.0	Yes	3.283	0.001	n/a	GoodResponse	1	n/a	n/a	2	4	Fixation	Win	True
52.063	0.36	Win2	1.0	0.004	Yes	3.283	-0.004	2.0	GoodResponse	1	0.208	51.271	2	4	Target	Win	True
52.271	0.3	Win2	1.0	0.004	Yes	3.283	-0.004	2.0	GoodResponse	1	0.208	n/a	2	4	ButtonPress	Win	True
52.431	0.34	Win2	1.0	n/a	Yes	3.283	n/a	n/a	GoodResponse	1	n/a	n/a	2	4	Blank	Win	True
52.765	1.45	Win2	1.0	n/a	Yes	3.283	n/a	5.0	GoodResponse	1	0.039	51.804	2	4	Feedback	Win	True
54.219	3.283	Win2	1.0	n/a	Yes	3.283	n/a	n/a	GoodResponse	1	0.0	n/a	2	4	ISIslide	Win	True
57.529	0.25	Win2	1.0	0.0	Yes	2.771	0.029	n/a	GoodResponse	1	n/a	n/a	3	5	Cue	Win	True
57.78	4.0	Win2	1.0	0.0	Yes	2.771	0.001	n/a	GoodResponse	1	n/a	n/a	3	5	Fixation	Win	True
61.775	0.35	Win2	1.0	0.004	Yes	2.771	-0.004	2.0	GoodResponse	1	0.247	61.022	3	5	Target	Win	True
62.022	0.3	Win2	1.0	0.004	Yes	2.771	-0.004	2.0	GoodResponse	1	0.247	n/a	3	5	ButtonPress	Win	True
62.126	0.35	Win2	1.0	n/a	Yes	2.771	n/a	n/a	GoodResponse	1	n/a	n/a	3	5	Blank	Win	True
62.477	1.45	Win2	1.0	n/a	Yes	2.771	n/a	5.0	GoodResponse	1	0.035	61.512	3	5	Feedback	Win	True
63.932	2.771	Win2	1.0	n/a	Yes	2.771	n/a	n/a	GoodResponse	1	0.0	n/a	3	5	ISIslide	Win	True
66.723	0.25	Lose2	0.8571	0.001	No	2.727	0.023	n/a	NoResponse	-1	n/a	n/a	2	6	Cue	Loss	True
66.974	3.95	Lose2	0.8571	0.0	No	2.727	0.001	n/a	NoResponse	-1	n/a	n/a	2	6	Fixation	Loss	True
70.919	0.34	Lose2	0.8571	0.004	No	2.727	-0.004	2.0	NoResponse	-1	0.46	70.379	2	6	Target	Loss	True
71.27	0.36	Lose2	0.8571	n/a	No	2.727	n/a	n/a	NoResponse	-1	n/a	n/a	2	6	Blank	Loss	True
71.379	0.3	Lose2	0.8571	0.004	No	2.727	-0.004	2.0	NoResponse	-1	0.46	n/a	2	6	ButtonPress	Loss	True
71.621	1.45	Lose2	0.8571	n/a	No	2.727	n/a	5.0	NoResponse	-1	0.013	70.634	2	6	Feedback	Loss	True
73.076	2.727	Lose2	0.8571	n/a	No	2.727	n/a	n/a	NoResponse	-1	0.0	n/a	2	6	ISIslide	Loss	True
75.817	0.25	Lose2	0.875	0.0	Yes	4.033	0.017	n/a	GoodResponse	0	n/a	n/a	2	7	Cue	AvoidedLoss	True
76.068	4.05	Lose2	0.875	0.0	Yes	4.033	0.001	n/a	GoodResponse	0	n/a	n/a	2	7	Fixation	AvoidedLoss	True
80.114	0.33	Lose2	0.875	0.003	Yes	4.033	-0.003	2.0	GoodResponse	0	0.253	79.367	2	7	Target	AvoidedLoss	True
80.367	0.3	Lose2	0.875	0.003	Yes	4.033	-0.003	2.0	GoodResponse	0	0.253	n/a	2	7	ButtonPress	AvoidedLoss	True
80.448	0.37	Lose2	0.875	n/a	Yes	4.033	n/a	n/a	GoodResponse	0	n/a	n/a	2	7	Blank	AvoidedLoss	True
80.816	1.45	Lose2	0.875	n/a	Yes	4.033	n/a	5.0	GoodResponse	0	0.037	79.853	2	7	Feedback	AvoidedLoss	True
82.27	4.033	Lose2	0.875	n/a	Yes	4.033	n/a	n/a	GoodResponse	0	0.0	n/a	2	7	ISIslide	AvoidedLoss	True
86.315	0.25	Lose2	0.8889	0.001	Yes	3.035	0.015	n/a	GoodResponse	0	n/a	n/a	2	8	Cue	AvoidedLoss	True
86.566	3.95	Lose2	0.8889	0.0	Yes	3.035	0.001	n/a	GoodResponse	0	n/a	n/a	2	8	Fixation	AvoidedLoss	True
90.511	0.32	Lose2	0.8889	0.004	Yes	3.035	-0.004	2.0	GoodResponse	0	0.272	89.783	2	8	Target	AvoidedLoss	True
90.783	0.3	Lose2	0.8889	0.004	Yes	3.035	-0.004	2.0	GoodResponse	0	0.272	n/a	2	8	ButtonPress	AvoidedLoss	True
90.846	0.38	Lose2	0.8889	n/a	Yes	3.035	n/a	n/a	GoodResponse	0	n/a	n/a	2	8	Blank	AvoidedLoss	True
91.213	1.45	Lose2	0.8889	n/a	Yes	3.035	n/a	5.0	GoodResponse	0	0.03	90.243	2	8	Feedback	AvoidedLoss	True
92.668	3.035	Lose2	0.8889	n/a	Yes	3.035	n/a	2.0	GoodResponse	0	0.845	n/a	2	8	ISIslide	AvoidedLoss	True
95.71	0.25	Lose2	0.9	0.0	Yes	3.14	0.01	n/a	GoodResponse	0	n/a	n/a	2	9	Cue	AvoidedLoss	True
95.961	3.95	Lose2	0.9	0.0	Yes	3.14	0.001	n/a	GoodResponse	0	n/a	n/a	2	9	Fixation	AvoidedLoss	True
99.906	0.31	Lose2	0.9	0.004	Yes	3.14	-0.004	2.0	GoodResponse	0	0.258	99.164	2	9	Target	AvoidedLoss	True
100.164	0.3	Lose2	0.9	0.004	Yes	3.14	-0.004	2.0	GoodResponse	0	0.258	n/a	2	9	ButtonPress	AvoidedLoss	True
100.224	0.39	Lose2	0.9	n/a	Yes	3.14	n/a	n/a	GoodResponse	0	n/a	n/a	2	9	Blank	AvoidedLoss	True
100.608	1.45	Lose2	0.9	n/a	Yes	3.14	n/a	5.0	GoodResponse	0	0.001	99.609	2	9	Feedback	AvoidedLoss	True
102.063	3.14	Lose2	0.9	n/a	Yes	3.14	n/a	n/a	GoodResponse	0	0.0	n/a	2	9	ISIslide	AvoidedLoss	True
105.222	0.25	Control	0.8181999999999999	0.0	No	3.278	0.022	n/a	NoResponse	0	n/a	n/a	2	10	Cue	Neutral	True
105.473	4.0	Control	0.8181999999999999	0.0	No	3.278	0.001	n/a	NoResponse	0	n/a	n/a	2	10	Fixation	Neutral	True
109.468	0.3	Control	0.8181999999999999	0.004	No	3.278	-0.004	2.0	NoResponse	0	0.399	108.867	2	10	Target	Neutral	True
109.769	0.4	Control	0.8181999999999999	n/a	No	3.278	n/a	n/a	NoResponse	0	n/a	n/a	2	10	Blank	Neutral	True
109.867	0.3	Control	0.8181999999999999	0.004	No	3.278	-0.004	2.0	NoResponse	0	0.399	n/a	2	10	ButtonPress	Neutral	True
110.17	1.45	Control	0.8181999999999999	n/a	No	3.278	n/a	5.0	NoResponse	0	0.048	109.218	2	10	Feedback	Neutral	True
111.625	3.278	Control	0.8181999999999999	n/a	No	3.278	n/a	n/a	NoResponse	0	0.0	n/a	2	10	ISIslide	Neutral	True
114.918	0.25	Lose2	0.8332999999999999	0.0	Yes	2.732	0.018	n/a	GoodResponse	0	n/a	n/a	2	11	Cue	AvoidedLoss	True
115.169	4.05	Lose2	0.8332999999999999	0.0	Yes	2.732	0.001	n/a	GoodResponse	0	n/a	n/a	2	11	Fixation	AvoidedLoss	True
119.214	0.29	Lose2	0.8332999999999999	0.004	Yes	2.732	-0.004	2.0	GoodResponse	0	0.252	118.466	2	11	Target	AvoidedLoss	True
119.466	0.3	Lose2	0.8332999999999999	0.004	Yes	2.732	-0.004	2.0	GoodResponse	0	0.252	n/a	2	11	ButtonPress	AvoidedLoss	True
119.515	0.41	Lose2	0.8332999999999999	n/a	Yes	2.732	n/a	n/a	GoodResponse	0	n/a	n/a	2	11	Blank	AvoidedLoss	True
119.916	1.45	Lose2	0.8332999999999999	n/a	Yes	2.732	n/a	5.0	GoodResponse	0	0.01	118.926	2	11	Feedback	AvoidedLoss	True
121.371	2.732	Lose2	0.8332999999999999	n/a	Yes	2.732	n/a	n/a	GoodResponse	0	0.0	n/a	2	11	ISIslide	AvoidedLoss	True
124.129	0.25	Control	0.8462000000000001	0.0	Yes	2.971	0.029	n/a	GoodResponse	0	n/a	n/a	2	12	Cue	Neutral	True
124.38	3.9	Control	0.8462000000000001	0.0	Yes	2.971	0.001	n/a	GoodResponse	0	n/a	n/a	2	12	Fixation	Neutral	True
128.275	0.28	Control	0.8462000000000001	0.004	Yes	2.971	-0.004	2.0	GoodResponse	0	0.24	127.515	2	12	Target	Neutral	True
128.515	0.3	Control	0.8462000000000001	0.004	Yes	2.971	-0.004	2.0	GoodResponse	0	0.24	n/a	2	12	ButtonPress	Neutral	True
128.559	0.42	Control	0.8462000000000001	n/a	Yes	2.971	n/a	n/a	GoodResponse	0	n/a	n/a	2	12	Blank	Neutral	True
128.977	1.45	Control	0.8462000000000001	n/a	Yes	2.971	n/a	5.0	GoodResponse	0	0.022	127.999	2	12	Feedback	Neutral	True
130.431	2.971	Control	0.8462000000000001	n/a	Yes	2.971	n/a	n/a	GoodResponse	0	0.0	n/a	2	12	ISIslide	Neutral	True
133.423	0.25	Control	0.7857	0.0	No	2.777	0.023	n/a	NoResponse	0	n/a	n/a	2	13	Cue	Neutral	True
133.674	4.0	Control	0.7857	0.0	No	2.777	0.001	n/a	NoResponse	0	n/a	n/a	2	13	Fixation	Neutral	True
137.669	0.27	Control	0.7857	0.004	No	2.777	-0.004	2.0	NoResponse	0	0.551	137.22	2	13	Target	Neutral	True
137.954	0.43	Control	0.7857	n/a	No	2.777	n/a	n/a	NoResponse	0	n/a	n/a	2	13	Blank	Neutral	True
138.22	0.3	Control	0.7857	0.004	No	2.777	-0.004	2.0	NoResponse	0	0.551	n/a	2	13	ButtonPress	Neutral	True
138.371	1.45	Control	0.7857	n/a	No	2.777	n/a	5.0	NoResponse	0	0.043	137.414	2	13	Feedback	Neutral	True
139.826	2.777	Control	0.7857	n/a	No	2.777	n/a	n/a	NoResponse	0	0.0	n/a	2	13	ISIslide	Neutral	True
142.618	0.25	Win2	0.8	0.0	Yes	2.682	0.018	n/a	GoodResponse	1	n/a	n/a	3	14	Cue	Win	True
142.868	4.1	Win2	0.8	0.0	Yes	2.682	0.0	n/a	GoodResponse	1	n/a	n/a	3	14	Fixation	Win	True
146.964	0.26	Win2	0.8	0.004	Yes	2.682	-0.004	2.0	GoodResponse	1	0.255	146.219	3	14	Target	Win	True
147.219	0.3	Win2	0.8	0.004	Yes	2.682	-0.004	2.0	GoodResponse	1	0.255	n/a	3	14	ButtonPress	Win	True
147.231	0.44	Win2	0.8	n/a	Yes	2.682	n/a	n/a	GoodResponse	1	n/a	n/a	3	14	Blank	Win	True
147.666	1.45	Win2	0.8	n/a	Yes	2.682	n/a	5.0	GoodResponse	1	0.016	146.682	3	14	Feedback	Win	True
149.12	2.682	Win2	0.8	n/a	Yes	2.682	n/a	n/a	GoodResponse	1	0.0	n/a	3	14	ISIslide	Win	True
151.828	0.25	Control	0.75	0.001	No	2.972	0.028	n/a	NoResponse	0	n/a	n/a	3	15	Cue	Neutral	True
152.079	4.0	Control	0.75	0.0	No	2.972	0.001	n/a	NoResponse	0	n/a	n/a	3	15	Fixation	Neutral	True
156.075	0.25	Control	0.75	0.003	No	2.972	-0.003	2.0	NoResponse	0	0.276	155.351	3	15	Target	Neutral	True
156.325	0.45	Control	0.75	n/a	No	2.972	n/a	n/a	NoResponse	0	n/a	n/a	3	15	Blank	Neutral	True
156.351	0.3	Control	0.75	0.003	No	2.972	-0.003	2.0	NoResponse	0	0.276	n/a	3	15	ButtonPress	Neutral	True
156.777	1.45	Control	0.75	n/a	No	2.972	n/a	5.0	NoResponse	0	0.026	155.803	3	15	Feedback	Neutral	True
158.231	2.972	Control	0.75	n/a	No	2.972	n/a	n/a	NoResponse	0	0.0	n/a	3	15	ISIslide	Neutral	True
161.223	0.25	Win2	0.7059000000000001	0.0	No	2.877	0.023	n/a	NoResponse	0	n/a	n/a	3	16	Cue	MissedWin	False
161.474	4.0	Win2	0.7059000000000001	0.0	No	2.877	0.001	n/a	NoResponse	0	n/a	n/a	3	16	Fixation	MissedWin	False
165.469	0.24	Win2	0.7059000000000001	0.004	No	2.877	-0.004	n/a	NoResponse	0	n/a	n/a	3	16	Target	MissedWin	False
165.72	0.46	Win2	0.7059000000000001	n/a	No	2.877	n/a	n/a	NoResponse	0	n/a	n/a	3	16	Blank	MissedWin	False
166.171	1.45	Win2	0.7059000000000001	n/a	No	2.877	n/a	5.0	NoResponse	0	0.047	165.218	3	16	Feedback	MissedWin	False
167.626	2.877	Win2	0.7059000000000001	n/a	No	2.877	n/a	n/a	NoResponse	0	0.0	n/a	3	16	ISIslide	MissedWin	False
170.518	0.25	Lose2	0.6667000000000001	0.0	No	2.732	0.018	n/a	NoResponse	-1	n/a	n/a	2	17	Cue	Loss	True
170.769	3.95	Lose2	0.6667000000000001	0.0	No	2.732	0.001	n/a	NoResponse	-1	n/a	n/a	2	17	Fixation	Loss	True
174.714	0.23	Lose2	0.6667000000000001	0.004	No	2.732	-0.004	2.0	NoResponse	-1	0.277	173.991	2	17	Target	Loss	True
174.948	0.47	Lose2	0.6667000000000001	n/a	No	2.732	n/a	n/a	NoResponse	-1	n/a	n/a	2	17	Blank	Loss	True
174.991	0.3	Lose2	0.6667000000000001	0.004	No	2.732	-0.004	2.0	NoResponse	-1	0.277	n/a	2	17	ButtonPress	Loss	True
175.416	1.45	Lose2	0.6667000000000001	n/a	No	2.732	n/a	5.0	NoResponse	-1	0.022	174.438	2	17	Feedback	Loss	True
176.87	2.732	Lose2	0.6667000000000001	n/a	No	2.732	n/a	n/a	NoResponse	-1	0.0	n/a	2	17	ISIslide	Loss	True
179.628	0.25	Lose2	0.6315999999999999	0.0	No	2.722	0.028	n/a	NoResponse	-1	n/a	n/a	1	18	Cue	Loss	False
179.879	4.05	Lose2	0.6315999999999999	0.0	No	2.722	0.001	n/a	NoResponse	-1	n/a	n/a	1	18	Fixation	Loss	False
183.925	0.22	Lose2	0.6315999999999999	0.003	No	2.722	-0.003	n/a	NoResponse	-1	n/a	n/a	1	18	Target	Loss	False
184.159	0.48	Lose2	0.6315999999999999	n/a	No	2.722	n/a	n/a	NoResponse	-1	n/a	n/a	1	18	Blank	Loss	False
184.627	1.45	Lose2	0.6315999999999999	n/a	No	2.722	n/a	5.0	NoResponse	-1	0.03	183.657	1	18	Feedback	Loss	False
186.081	2.722	Lose2	0.6315999999999999	n/a	No	2.722	n/a	n/a	NoResponse	-1	0.0	n/a	1	18	ISIslide	Loss	False
188.823	0.25	Control	0.6	0.0	No	2.927	0.023	n/a	NoResponse	0	n/a	n/a	1	19	Cue	Neutral	False
189.073	3.95	Control	0.6	0.0	No	2.927	0.0	n/a	NoResponse	0	n/a	n/a	1	19	Fixation	Neutral	False
193.019	0.23	Control	0.6	0.004	No	2.927	-0.004	n/a	NoResponse	0	n/a	n/a	1	19	Target	Neutral	False
193.253	0.47	Control	0.6	n/a	No	2.927	n/a	n/a	NoResponse	0	n/a	n/a	1	19	Blank	Neutral	False
193.721	1.45	Control	0.6	n/a	No	2.927	n/a	5.0	NoResponse	0	0.01	192.731	1	19	Feedback	Neutral	False
195.175	2.927	Control	0.6	n/a	No	2.927	n/a	n/a	NoResponse	0	0.0	n/a	1	19	ISIslide	Neutral	False
198.117	0.25	Control	0.5714	0.0	No	2.633	0.017	n/a	LatePress	0	n/a	n/a	1	20	Cue	Neutral	True
198.368	4.05	Control	0.5714	0.0	No	2.633	0.001	n/a	LatePress	0	n/a	n/a	1	20	Fixation	Neutral	True
202.413	0.24	Control	0.5714	0.004	No	2.633	-0.004	2.0	LatePress	0	0.248	201.661	1	20	Target	Neutral	True
202.661	0.3	Control	0.5714	0.004	No	2.633	-0.004	2.0	LatePress	0	0.248	n/a	1	20	ButtonPress	Neutral	True
202.664	0.46	Control	0.5714	n/a	No	2.633	n/a	n/a	LatePress	0	n/a	n/a	1	20	Blank	Neutral	True
203.115	1.45	Control	0.5714	n/a	No	2.633	n/a	5.0	LatePress	0	0.03	202.145	1	20	Feedback	Neutral	True
204.57	2.633	Control	0.5714	n/a	No	2.633	n/a	n/a	LatePress	0	0.0	n/a	1	20	ISIslide	Neutral	True
207.228	0.25	Control	0.5909	0.0	Yes	2.772	0.028	n/a	GoodResponse	0	n/a	n/a	1	21	Cue	Neutral	False
207.479	4.1	Control	0.5909	0.0	Yes	2.772	0.001	2.0	GoodResponse	0	3.795	210.274	1	21	Fixation	Neutral	False
211.274	0.3	Control	0.5909	0.0	Yes	2.772	0.001	2.0	GoodResponse	0	3.795	n/a	1	21	ButtonPress	Neutral	False
211.574	0.25	Control	0.5909	0.004	Yes	2.772	-0.004	2.0	GoodResponse	0	0.245	210.819	1	21	Target	Neutral	False
211.819	0.3	Control	0.5909	0.004	Yes	2.772	-0.004	2.0	GoodResponse	0	0.245	n/a	1	21	ButtonPress	Neutral	False
211.825	0.45	Control	0.5909	n/a	Yes	2.772	n/a	n/a	GoodResponse	0	n/a	n/a	1	21	Blank	Neutral	False
212.276	1.45	Control	0.5909	n/a	Yes	2.772	n/a	5.0	GoodResponse	0	0.039	211.315	1	21	Feedback	Neutral	False
213.731	2.772	Control	0.5909	n/a	Yes	2.772	n/a	n/a	GoodResponse	0	0.0	n/a	1	21	ISIslide	Neutral	False
216.522	0.25	Control	0.5652	0.0	No	2.778	0.022	n/a	NoResponse	0	n/a	n/a	1	22	Cue	Neutral	True
216.773	4.0	Control	0.5652	0.0	No	2.778	0.001	n/a	NoResponse	0	n/a	n/a	1	22	Fixation	Neutral	True
220.768	0.26	Control	0.5652	0.004	No	2.778	-0.004	2.0	NoResponse	0	0.416	220.184	1	22	Target	Neutral	True
221.036	0.44	Control	0.5652	n/a	No	2.778	n/a	n/a	NoResponse	0	n/a	n/a	1	22	Blank	Neutral	True
221.184	0.3	Control	0.5652	0.004	No	2.778	-0.004	2.0	NoResponse	0	0.416	n/a	1	22	ButtonPress	Neutral	True
221.47	1.45	Control	0.5652	n/a	No	2.778	n/a	5.0	NoResponse	0	0.016	220.486	1	22	Feedback	Neutral	True
222.925	2.778	Control	0.5652	n/a	No	2.778	n/a	n/a	NoResponse	0	0.0	n/a	1	22	ISIslide	Neutral	True
225.717	0.25	Control	0.5832999999999999	0.0	Yes	2.783	0.017	n/a	GoodResponse	0	n/a	n/a	1	23	Cue	Neutral	True
225.967	3.9	Control	0.5832999999999999	0.0	Yes	2.783	0.0	n/a	GoodResponse	0	n/a	n/a	1	23	Fixation	Neutral	True
229.879	0.27	Control	0.5832999999999999	0.0	Yes	2.783	0.012	2.0	GoodResponse	0	0.256	229.135	1	23	Target	Neutral	True
230.135	0.3	Control	0.5832999999999999	0.0	Yes	2.783	0.012	2.0	GoodResponse	0	0.256	n/a	1	23	ButtonPress	Neutral	True
230.146	0.43	Control	0.5832999999999999	n/a	Yes	2.783	n/a	n/a	GoodResponse	0	n/a	n/a	1	23	Blank	Neutral	True
230.564	1.45	Control	0.5832999999999999	n/a	Yes	2.783	n/a	5.0	GoodResponse	0	0.044	229.608	1	23	Feedback	Neutral	True
232.019	2.783	Control	0.5832999999999999	n/a	Yes	2.783	n/a	n/a	GoodResponse	0	0.0	n/a	1	23	ISIslide	Neutral	True
234.827	0.25	Win2	0.6	0.0	Yes	3.123	0.027	n/a	GoodResponse	1	n/a	n/a	2	24	Cue	Win	False
235.078	3.95	Win2	0.6	0.0	Yes	3.123	0.001	2.0	GoodResponse	1	0.649	234.727	2	24	Fixation	Win	False
235.727	0.3	Win2	0.6	0.0	Yes	3.123	0.001	2.0	GoodResponse	1	0.649	n/a	2	24	ButtonPress	Win	False
239.023	0.28	Win2	0.6	0.004	Yes	3.123	-0.004	2.0	GoodResponse	1	0.212	238.235	2	24	Target	Win	False
239.235	0.3	Win2	0.6	0.004	Yes	3.123	-0.004	2.0	GoodResponse	1	0.212	n/a	2	24	ButtonPress	Win	False
239.307	0.42	Win2	0.6	n/a	Yes	3.123	n/a	n/a	GoodResponse	1	n/a	n/a	2	24	Blank	Win	False
239.725	1.45	Win2	0.6	n/a	Yes	3.123	n/a	5.0	GoodResponse	1	0.006	238.731	2	24	Feedback	Win	False
241.18	3.123	Win2	0.6	n/a	Yes	3.123	n/a	n/a	GoodResponse	1	0.0	n/a	2	24	ISIslide	Win	False
244.322	0.25	Win2	0.5769	0.0	No	3.078	0.022	n/a	NoResponse	0	n/a	n/a	2	25	Cue	MissedWin	False
244.573	4.0	Win2	0.5769	0.0	No	3.078	0.001	2.0	NoResponse	0	3.901	247.474	2	25	Fixation	MissedWin	False
248.474	0.3	Win2	0.5769	0.0	No	3.078	0.001	2.0	NoResponse	0	3.901	n/a	2	25	ButtonPress	MissedWin	False
248.568	0.29	Win2	0.5769	0.004	No	3.078	-0.004	2.0	NoResponse	0	0.372	247.94	2	25	Target	MissedWin	False
248.869	0.41	Win2	0.5769	n/a	No	3.078	n/a	n/a	NoResponse	0	n/a	n/a	2	25	Blank	MissedWin	False
248.94	0.3	Win2	0.5769	0.004	No	3.078	-0.004	2.0	NoResponse	0	0.372	n/a	2	25	ButtonPress	MissedWin	False
249.27	1.45	Win2	0.5769	n/a	No	3.078	n/a	5.0	NoResponse	0	0.021	248.291	2	25	Feedback	MissedWin	False
250.725	3.078	Win2	0.5769	n/a	No	3.078	n/a	n/a	NoResponse	0	0.0	n/a	2	25	ISIslide	MissedWin	False
253.817	0.25	Win2	0.5556	0.0	No	2.933	0.017	n/a	NoResponse	0	n/a	n/a	2	26	Cue	MissedWin	False
254.068	3.95	Win2	0.5556	0.0	No	2.933	0.001	n/a	NoResponse	0	n/a	n/a	2	26	Fixation	MissedWin	False
258.013	0.3	Win2	0.5556	0.004	No	2.933	-0.004	n/a	NoResponse	0	n/a	n/a	2	26	Target	MissedWin	False
258.314	0.4	Win2	0.5556	n/a	No	2.933	n/a	n/a	NoResponse	0	n/a	n/a	2	26	Blank	MissedWin	False
258.715	1.45	Win2	0.5556	n/a	No	2.933	n/a	5.0	NoResponse	0	0.04	257.755	2	26	Feedback	MissedWin	False
260.17	2.933	Win2	0.5556	n/a	No	2.933	n/a	n/a	NoResponse	0	0.0	n/a	2	26	ISIslide	MissedWin	False
263.129	0.25	Lose2	0.5357	0.0	No	2.821	0.029	n/a	NoResponse	-1	n/a	n/a	1	27	Cue	Loss	True
263.379	4.05	Lose2	0.5357	0.0	No	2.821	0.0	n/a	NoResponse	-1	n/a	n/a	1	27	Fixation	Loss	True
267.425	0.31	Lose2	0.5357	0.004	No	2.821	-0.004	2.0	NoResponse	-1	0.355	266.78	1	27	Target	Loss	True
267.742	0.39	Lose2	0.5357	n/a	No	2.821	n/a	n/a	NoResponse	-1	n/a	n/a	1	27	Blank	Loss	True
267.78	0.3	Lose2	0.5357	0.004	No	2.821	-0.004	2.0	NoResponse	-1	0.355	n/a	1	27	ButtonPress	Loss	True
268.127	1.45	Lose2	0.5357	n/a	No	2.821	n/a	5.0	NoResponse	-1	0.041	267.168	1	27	Feedback	Loss	True
269.581	2.821	Lose2	0.5357	n/a	No	2.821	n/a	n/a	NoResponse	-1	0.0	n/a	1	27	ISIslide	Loss	True
272.423	0.25	Control	0.5517	0.0	Yes	2.827	0.023	n/a	GoodResponse	0	n/a	n/a	1	28	Cue	Neutral	True
272.674	4.05	Control	0.5517	0.0	Yes	2.827	0.001	n/a	GoodResponse	0	n/a	n/a	1	28	Fixation	Neutral	True
276.719	0.32	Control	0.5517	0.004	Yes	2.827	-0.004	2.0	GoodResponse	0	0.247	275.966	1	28	Target	Neutral	True
276.966	0.3	Control	0.5517	0.004	Yes	2.827	-0.004	2.0	GoodResponse	0	0.247	n/a	1	28	ButtonPress	Neutral	True
277.054	0.38	Control	0.5517	n/a	Yes	2.827	n/a	n/a	GoodResponse	0	n/a	n/a	1	28	Blank	Neutral	True
277.421	1.45	Control	0.5517	n/a	Yes	2.827	n/a	5.0	GoodResponse	0	0.016	276.437	1	28	Feedback	Neutral	True
278.876	2.827	Control	0.5517	n/a	Yes	2.827	n/a	n/a	GoodResponse	0	0.0	n/a	1	28	ISIslide	Neutral	True
281.718	0.25	Lose2	0.5333	0.0	No	2.832	0.018	n/a	NoResponse	-1	n/a	n/a	0	29	Cue	Loss	False
281.968	3.95	Lose2	0.5333	0.0	No	2.832	0.0	n/a	NoResponse	-1	n/a	n/a	0	29	Fixation	Loss	False
285.914	0.33	Lose2	0.5333	0.004	No	2.832	-0.004	n/a	NoResponse	-1	n/a	n/a	0	29	Target	Loss	False
286.248	0.37	Lose2	0.5333	n/a	No	2.832	n/a	n/a	NoResponse	-1	n/a	n/a	0	29	Blank	Loss	False
286.616	1.45	Lose2	0.5333	n/a	No	2.832	n/a	5.0	NoResponse	-1	0.04	285.656	0	29	Feedback	Loss	False
288.07	2.832	Lose2	0.5333	n/a	No	2.832	n/a	n/a	NoResponse	-1	0.0	n/a	0	29	ISIslide	Loss	False
290.929	0.25	Win2	0.5484	0.0	Yes	2.771	0.029	n/a	GoodResponse	1	n/a	n/a	1	30	Cue	Win	True
291.179	3.9	Win2	0.5484	0.0	Yes	2.771	0.0	n/a	GoodResponse	1	n/a	n/a	1	30	Fixation	Win	True
295.091	0.34	Win2	0.5484	0.0	Yes	2.771	0.012	2.0	GoodResponse	1	0.268	294.359	1	30	Target	Win	True
295.359	0.3	Win2	0.5484	0.0	Yes	2.771	0.012	2.0	GoodResponse	1	0.268	n/a	1	30	ButtonPress	Win	True
295.425	0.36	Win2	0.5484	n/a	Yes	2.771	n/a	n/a	GoodResponse	1	n/a	n/a	1	30	Blank	Win	True
295.776	1.45	Win2	0.5484	n/a	Yes	2.771	n/a	5.0	GoodResponse	1	0.002	294.778	1	30	Feedback	Win	True
297.231	2.771	Win2	0.5484	n/a	Yes	2.771	n/a	n/a	GoodResponse	1	0.0	n/a	1	30	ISIslide	Win	True
300.022	0.25	Lose2	0.5625	0.001	Yes	2.828	0.022	n/a	GoodResponse	0	n/a	n/a	1	31	Cue	AvoidedLoss	True
300.273	4.05	Lose2	0.5625	0.0	Yes	2.828	0.001	n/a	GoodResponse	0	n/a	n/a	1	31	Fixation	AvoidedLoss	True
304.319	0.35	Lose2	0.5625	0.003	Yes	2.828	-0.003	2.0	GoodResponse	0	0.223	303.542	1	31	Target	AvoidedLoss	True
304.542	0.3	Lose2	0.5625	0.003	Yes	2.828	-0.003	2.0	GoodResponse	0	0.223	n/a	1	31	ButtonPress	AvoidedLoss	True
304.67	0.35	Lose2	0.5625	n/a	Yes	2.828	n/a	n/a	GoodResponse	0	n/a	n/a	1	31	Blank	AvoidedLoss	True
305.021	1.45	Lose2	0.5625	n/a	Yes	2.828	n/a	5.0	GoodResponse	0	0.026	304.047	1	31	Feedback	AvoidedLoss	True
306.475	2.828	Lose2	0.5625	n/a	Yes	2.828	n/a	n/a	GoodResponse	0	0.0	n/a	1	31	ISIslide	AvoidedLoss	True
309.317	0.25	Lose2	0.5758	0.0	Yes	2.633	0.017	n/a	GoodResponse	0	n/a	n/a	1	32	Cue	AvoidedLoss	True
309.568	4.15	Lose2	0.5758	0.0	Yes	2.633	0.001	n/a	GoodResponse	0	n/a	n/a	1	32	Fixation	AvoidedLoss	True
313.714	0.36	Lose2	0.5758	0.003	Yes	2.633	-0.003	2.0	GoodResponse	0	0.276	312.99	1	32	Target	AvoidedLoss	True
313.99	0.3	Lose2	0.5758	0.003	Yes	2.633	-0.003	2.0	GoodResponse	0	0.276	n/a	1	32	ButtonPress	AvoidedLoss	True
314.081	0.34	Lose2	0.5758	n/a	Yes	2.633	n/a	n/a	GoodResponse	0	n/a	n/a	1	32	Blank	AvoidedLoss	True
314.416	1.45	Lose2	0.5758	n/a	Yes	2.633	n/a	5.0	GoodResponse	0	0.046	313.462	1	32	Feedback	AvoidedLoss	True
315.87	2.633	Lose2	0.5758	n/a	Yes	2.633	n/a	n/a	GoodResponse	0	0.0	n/a	1	32	ISIslide	AvoidedLoss	True
318.528	0.25	Win2	0.5588000000000001	0.0	No	2.672	0.028	n/a	NoResponse	0	n/a	n/a	1	33	Cue	MissedWin	True
318.779	4.0	Win2	0.5588000000000001	0.0	No	2.672	0.001	n/a	NoResponse	0	n/a	n/a	1	33	Fixation	MissedWin	True
322.774	0.37	Win2	0.5588000000000001	0.004	No	2.672	-0.004	2.0	NoResponse	0	0.587	322.361	1	33	Target	MissedWin	True
323.158	0.33	Win2	0.5588000000000001	n/a	No	2.672	n/a	n/a	NoResponse	0	n/a	n/a	1	33	Blank	MissedWin	True
323.361	0.3	Win2	0.5588000000000001	0.004	No	2.672	-0.004	2.0	NoResponse	0	0.587	n/a	1	33	ButtonPress	MissedWin	True
323.476	1.45	Win2	0.5588000000000001	n/a	No	2.672	n/a	5.0	NoResponse	0	0.01	322.486	1	33	Feedback	MissedWin	True
324.93	2.672	Win2	0.5588000000000001	n/a	No	2.672	n/a	n/a	NoResponse	0	0.0	n/a	1	33	ISIslide	MissedWin	True
327.622	0.25	Lose2	0.5714	0.0	Yes	2.628	0.022	n/a	GoodResponse	0	n/a	n/a	1	34	Cue	AvoidedLoss	True
327.873	4.05	Lose2	0.5714	0.0	Yes	2.628	0.001	n/a	GoodResponse	0	n/a	n/a	1	34	Fixation	AvoidedLoss	True
331.918	0.38	Lose2	0.5714	0.004	Yes	2.628	-0.004	2.0	GoodResponse	0	0.226	331.144	1	34	Target	AvoidedLoss	True
332.144	0.3	Lose2	0.5714	0.004	Yes	2.628	-0.004	2.0	GoodResponse	0	0.226	n/a	1	34	ButtonPress	AvoidedLoss	True
332.303	0.32	Lose2	0.5714	n/a	Yes	2.628	n/a	n/a	GoodResponse	0	n/a	n/a	1	34	Blank	AvoidedLoss	True
332.62	1.45	Lose2	0.5714	n/a	Yes	2.628	n/a	5.0	GoodResponse	0	0.036	331.656	1	34	Feedback	AvoidedLoss	True
334.075	2.628	Lose2	0.5714	n/a	Yes	2.628	n/a	n/a	GoodResponse	0	0.0	n/a	1	34	ISIslide	AvoidedLoss	True
336.716	0.25	Lose2	0.5556	0.0	No	2.684	0.016	n/a	NoResponse	-1	n/a	n/a	0	35	Cue	Loss	True
336.967	4.0	Lose2	0.5556	0.0	No	2.684	0.001	n/a	NoResponse	-1	n/a	n/a	0	35	Fixation	Loss	True
340.962	0.39	Lose2	0.5556	0.004	No	2.684	-0.004	2.0	NoResponse	-1	0.504	340.466	0	35	Target	Loss	True
341.363	0.31	Lose2	0.5556	n/a	No	2.684	n/a	n/a	NoResponse	-1	n/a	n/a	0	35	Blank	Loss	True
341.466	0.3	Lose2	0.5556	0.004	No	2.684	-0.004	2.0	NoResponse	-1	0.504	n/a	0	35	ButtonPress	Loss	True
341.664	1.45	Lose2	0.5556	n/a	No	2.684	n/a	5.0	NoResponse	-1	0.016	340.68	0	35	Feedback	Loss	True
343.118	2.684	Lose2	0.5556	n/a	No	2.684	n/a	n/a	NoResponse	-1	0.0	n/a	0	35	ISIslide	Loss	True
345.826	0.25	Control	0.5676	0.0	Yes	2.674	0.026	n/a	GoodResponse	0	n/a	n/a	0	36	Cue	Neutral	True
346.077	4.0	Control	0.5676	0.0	Yes	2.674	0.001	n/a	GoodResponse	0	n/a	n/a	0	36	Fixation	Neutral	True
350.072	0.4	Control	0.5676	0.004	Yes	2.674	-0.004	2.0	GoodResponse	0	0.215	349.287	0	36	Target	Neutral	True
350.287	0.3	Control	0.5676	0.004	Yes	2.674	-0.004	2.0	GoodResponse	0	0.215	n/a	0	36	ButtonPress	Neutral	True
350.474	0.3	Control	0.5676	n/a	Yes	2.674	n/a	n/a	GoodResponse	0	n/a	n/a	0	36	Blank	Neutral	True
350.775	1.45	Control	0.5676	n/a	Yes	2.674	n/a	5.0	GoodResponse	0	0.027	349.802	0	36	Feedback	Neutral	True
352.229	2.674	Control	0.5676	n/a	Yes	2.674	n/a	n/a	GoodResponse	0	0.0	n/a	0	36	ISIslide	Neutral	True
354.92	0.25	Win2	0.5526	0.0	No	2.88	0.02	n/a	NoResponse	0	n/a	n/a	0	37	Cue	MissedWin	True
355.171	4.0	Win2	0.5526	0.0	No	2.88	0.001	n/a	NoResponse	0	n/a	n/a	0	37	Fixation	MissedWin	True
359.166	0.41	Win2	0.5526	0.004	No	2.88	-0.004	2.0	NoResponse	0	0.572	358.738	0	37	Target	MissedWin	True
359.584	0.29	Win2	0.5526	n/a	No	2.88	n/a	n/a	NoResponse	0	n/a	n/a	0	37	Blank	MissedWin	True
359.738	0.3	Win2	0.5526	0.004	No	2.88	-0.004	2.0	NoResponse	0	0.572	n/a	0	37	ButtonPress	MissedWin	True
359.868	1.45	Win2	0.5526	n/a	No	2.88	n/a	5.0	NoResponse	0	0.008	358.876	0	37	Feedback	MissedWin	True
361.323	2.88	Win2	0.5526	n/a	No	2.88	n/a	n/a	NoResponse	0	0.0	n/a	0	37	ISIslide	MissedWin	True
364.215	0.25	Lose2	0.5640999999999999	0.0	Yes	2.835	0.015	n/a	GoodResponse	0	n/a	n/a	0	38	Cue	AvoidedLoss	True
364.466	3.95	Lose2	0.5640999999999999	0.0	Yes	2.835	0.001	n/a	GoodResponse	0	n/a	n/a	0	38	Fixation	AvoidedLoss	True
368.411	0.42	Lose2	0.5640999999999999	0.004	Yes	2.835	-0.004	2.0	GoodResponse	0	0.334	367.745	0	38	Target	AvoidedLoss	True
368.745	0.3	Lose2	0.5640999999999999	0.004	Yes	2.835	-0.004	2.0	GoodResponse	0	0.334	n/a	0	38	ButtonPress	AvoidedLoss	True
368.845	0.28	Lose2	0.5640999999999999	n/a	Yes	2.835	n/a	n/a	GoodResponse	0	n/a	n/a	0	38	Blank	AvoidedLoss	True
369.113	1.45	Lose2	0.5640999999999999	n/a	Yes	2.835	n/a	5.0	GoodResponse	0	0.031	368.144	0	38	Feedback	AvoidedLoss	True
370.567	2.835	Lose2	0.5640999999999999	n/a	Yes	2.835	n/a	n/a	GoodResponse	0	0.0	n/a	0	38	ISIslide	AvoidedLoss	True
373.426	0.25	Win2	0.575	0.0	Yes	2.974	0.026	n/a	GoodResponse	1	n/a	n/a	1	39	Cue	Win	False
373.677	4.1	Win2	0.575	0.0	Yes	2.974	0.001	2.0	GoodResponse	1	0.076	372.753	1	39	Fixation	Win	False
373.753	0.3	Win2	0.575	0.0	Yes	2.974	0.001	2.0	GoodResponse	1	0.076	n/a	1	39	ButtonPress	Win	False
377.772	0.43	Win2	0.575	0.004	Yes	2.974	-0.004	2.0	GoodResponse	1	0.323	377.095	1	39	Target	Win	False
378.095	0.3	Win2	0.575	0.004	Yes	2.974	-0.004	2.0	GoodResponse	1	0.323	n/a	1	39	ButtonPress	Win	False
378.207	0.27	Win2	0.575	n/a	Yes	2.974	n/a	n/a	GoodResponse	1	n/a	n/a	1	39	Blank	Win	False
378.474	1.45	Win2	0.575	n/a	Yes	2.974	n/a	5.0	GoodResponse	1	0.036	377.51	1	39	Feedback	Win	False
379.929	2.974	Win2	0.575	n/a	Yes	2.974	n/a	n/a	GoodResponse	1	0.0	n/a	1	39	ISIslide	Win	False
382.921	0.25	Win2	0.561	0.0	No	2.729	0.021	n/a	NoResponse	0	n/a	n/a	1	40	Cue	MissedWin	True
383.172	3.95	Win2	0.561	0.0	No	2.729	0.001	n/a	NoResponse	0	n/a	n/a	1	40	Fixation	MissedWin	True
387.117	0.44	Win2	0.561	0.004	No	2.729	-0.004	2.0	NoResponse	0	0.46	386.577	1	40	Target	MissedWin	True
387.568	0.26	Win2	0.561	n/a	No	2.729	n/a	n/a	NoResponse	0	n/a	n/a	1	40	Blank	MissedWin	True
387.577	0.3	Win2	0.561	0.004	No	2.729	-0.004	2.0	NoResponse	0	0.46	n/a	1	40	ButtonPress	MissedWin	True
387.819	1.45	Win2	0.561	n/a	No	2.729	n/a	5.0	NoResponse	0	0.007	386.826	1	40	Feedback	MissedWin	True
389.273	2.729	Win2	0.561	n/a	No	2.729	n/a	n/a	NoResponse	0	0.0	n/a	1	40	ISIslide	MissedWin	True
392.015	0.25	Win2	0.5476	0.0	No	2.785	0.015	n/a	NoResponse	0	n/a	n/a	1	41	Cue	MissedWin	False
392.266	3.9	Win2	0.5476	0.0	No	2.785	0.001	n/a	NoResponse	0	n/a	n/a	1	41	Fixation	MissedWin	False
396.161	0.45	Win2	0.5476	0.004	No	2.785	-0.004	n/a	NoResponse	0	n/a	n/a	1	41	Target	MissedWin	False
396.612	0.25	Win2	0.5476	n/a	No	2.785	n/a	n/a	NoResponse	0	n/a	n/a	1	41	Blank	MissedWin	False
396.863	1.45	Win2	0.5476	n/a	No	2.785	n/a	5.0	NoResponse	0	0.037	395.9	1	41	Feedback	MissedWin	False
398.317	2.785	Win2	0.5476	n/a	No	2.785	n/a	n/a	NoResponse	0	0.0	n/a	1	41	ISIslide	MissedWin	False
401.125	0.25	Control	0.5349	0.001	No	2.925	0.025	n/a	NoResponse	0	n/a	n/a	1	42	Cue	Neutral	False
401.376	3.85	Control	0.5349	0.0	No	2.925	0.001	n/a	NoResponse	0	n/a	n/a	1	42	Fixation	Neutral	False
405.221	0.46	Control	0.5349	0.004	No	2.925	-0.004	n/a	NoResponse	0	n/a	n/a	1	42	Target	Neutral	False
405.689	0.24	Control	0.5349	n/a	No	2.925	n/a	n/a	NoResponse	0	n/a	n/a	1	42	Blank	Neutral	False
405.923	1.45	Control	0.5349	n/a	No	2.925	n/a	5.0	NoResponse	0	0.001	404.924	1	42	Feedback	Neutral	False
407.378	2.925	Control	0.5349	n/a	No	2.925	n/a	n/a	NoResponse	0	0.0	n/a	1	42	ISIslide	Neutral	False
410.32	0.25	Win2	0.5227	0.0	No	3.18	0.02	n/a	NoResponse	0	n/a	n/a	1	43	Cue	MissedWin	False
410.57	4.0	Win2	0.5227	0.0	No	3.18	0.0	n/a	NoResponse	0	n/a	n/a	1	43	Fixation	MissedWin	False
414.566	0.47	Win2	0.5227	0.004	No	3.18	-0.004	n/a	NoResponse	0	n/a	n/a	1	43	Target	MissedWin	False
415.05	0.23	Win2	0.5227	n/a	No	3.18	n/a	n/a	NoResponse	0	n/a	n/a	1	43	Blank	MissedWin	False
415.268	1.45	Win2	0.5227	n/a	No	3.18	n/a	5.0	NoResponse	0	0.022	414.29	1	43	Feedback	MissedWin	False
416.722	3.18	Win2	0.5227	n/a	No	3.18	n/a	n/a	NoResponse	0	0.0	n/a	1	43	ISIslide	MissedWin	False
419.915	0.25	Win2	0.5111	0.0	No	2.985	0.015	n/a	NoResponse	0	n/a	n/a	1	44	Cue	MissedWin	False
420.166	4.0	Win2	0.5111	0.0	No	2.985	0.001	n/a	NoResponse	0	n/a	n/a	1	44	Fixation	MissedWin	False
424.161	0.48	Win2	0.5111	0.004	No	2.985	-0.004	n/a	NoResponse	0	n/a	n/a	1	44	Target	MissedWin	False
424.646	0.22	Win2	0.5111	n/a	No	2.985	n/a	n/a	NoResponse	0	n/a	n/a	1	44	Blank	MissedWin	False
424.863	1.45	Win2	0.5111	n/a	No	2.985	n/a	5.0	NoResponse	0	0.037	423.9	1	44	Feedback	MissedWin	False
426.318	2.985	Win2	0.5111	n/a	No	2.985	n/a	n/a	NoResponse	0	0.0	n/a	1	44	ISIslide	MissedWin	False
429.327	0.25	Control	0.5217	0.0	Yes	2.873	0.027	n/a	GoodResponse	0	n/a	n/a	1	45	Cue	Neutral	True
429.577	4.1	Control	0.5217	0.0	Yes	2.873	0.0	n/a	GoodResponse	0	n/a	n/a	1	45	Fixation	Neutral	True
433.673	0.49	Control	0.5217	0.004	Yes	2.873	-0.004	2.0	GoodResponse	0	0.226	432.899	1	45	Target	Neutral	True
433.899	0.3	Control	0.5217	0.004	Yes	2.873	-0.004	2.0	GoodResponse	0	0.226	n/a	1	45	ButtonPress	Neutral	True
434.174	0.21	Control	0.5217	n/a	Yes	2.873	n/a	n/a	GoodResponse	0	n/a	n/a	1	45	Blank	Neutral	True
434.375	1.45	Control	0.5217	n/a	Yes	2.873	n/a	5.0	GoodResponse	0	0.037	433.412	1	45	Feedback	Neutral	True
435.829	2.873	Control	0.5217	n/a	Yes	2.873	n/a	n/a	GoodResponse	0	0.0	n/a	1	45	ISIslide	Neutral	True
438.721	0.25	Lose2	0.5106	0.001	No	3.379	0.021	n/a	NoResponse	-1	n/a	n/a	0	46	Cue	Loss	True
438.972	4.0	Lose2	0.5106	0.0	No	3.379	0.001	2.0	NoResponse	-1	0.093	438.065	0	46	Fixation	Loss	True
439.065	0.3	Lose2	0.5106	0.0	No	3.379	0.001	2.0	NoResponse	-1	0.093	n/a	0	46	ButtonPress	Loss	True
442.967	0.5	Lose2	0.5106	0.004	No	3.379	-0.004	n/a	NoResponse	-1	n/a	n/a	0	46	Target	Loss	True
443.469	0.2	Lose2	0.5106	n/a	No	3.379	n/a	n/a	NoResponse	-1	n/a	n/a	0	46	Blank	Loss	True
443.67	1.45	Lose2	0.5106	n/a	No	3.379	n/a	5.0	NoResponse	-1	0.011	442.681	0	46	Feedback	Loss	True
445.124	3.379	Lose2	0.5106	n/a	No	3.379	n/a	n/a	NoResponse	-1	0.0	n/a	0	46	ISIslide	Loss	True
448.517	0.25	Lose2	0.5	0.001	No	2.683	0.017	n/a	NoResponse	-1	n/a	n/a	-1	47	Cue	Loss	False
448.768	4.0	Lose2	0.5	0.0	No	2.683	0.001	n/a	NoResponse	-1	n/a	n/a	-1	47	Fixation	Loss	False
452.763	0.5	Lose2	0.5	0.004	No	2.683	-0.004	n/a	NoResponse	-1	n/a	n/a	-1	47	Target	Loss	False
453.265	0.2	Lose2	0.5	n/a	No	2.683	n/a	n/a	NoResponse	-1	n/a	n/a	-1	47	Blank	Loss	False
453.466	1.45	Lose2	0.5	n/a	No	2.683	n/a	5.0	NoResponse	-1	0.019	452.485	-1	47	Feedback	Loss	False
454.92	2.683	Lose2	0.5	n/a	No	2.683	n/a	n/a	NoResponse	-1	0.0	n/a	-1	47	ISIslide	Loss	False
457.628	0.25	Lose2	0.5102	0.0	Yes	3.022	0.028	n/a	GoodResponse	0	n/a	n/a	-1	48	Cue	AvoidedLoss	False
457.879	3.95	Lose2	0.5102	0.0	Yes	3.022	0.001	2.0	GoodResponse	0	1.965	458.844	-1	48	Fixation	AvoidedLoss	False
459.844	0.3	Lose2	0.5102	0.0	Yes	3.022	0.001	2.0	GoodResponse	0	1.965	n/a	-1	48	ButtonPress	AvoidedLoss	False
461.824	0.5	Lose2	0.5102	0.004	Yes	3.022	-0.004	2.0	GoodResponse	0	0.278	461.102	-1	48	Target	AvoidedLoss	False
462.102	0.3	Lose2	0.5102	0.004	Yes	3.022	-0.004	2.0	GoodResponse	0	0.278	n/a	-1	48	ButtonPress	AvoidedLoss	False
462.325	0.2	Lose2	0.5102	n/a	Yes	3.022	n/a	n/a	GoodResponse	0	n/a	n/a	-1	48	Blank	AvoidedLoss	False
462.526	1.45	Lose2	0.5102	n/a	Yes	3.022	n/a	5.0	GoodResponse	0	0.032	461.558	-1	48	Feedback	AvoidedLoss	False
463.98	3.022	Lose2	0.5102	n/a	Yes	3.022	n/a	n/a	GoodResponse	0	0.0	n/a	-1	48	ISIslide	AvoidedLoss	False
467.023	0.25	Control	0.5	0.0	No	2.877	0.023	n/a	NoResponse	0	n/a	n/a	-1	49	Cue	Neutral	True
467.274	4.0	Control	0.5	0.0	No	2.877	0.001	n/a	NoResponse	0	n/a	n/a	-1	49	Fixation	Neutral	True
471.269	0.5	Control	0.5	0.004	No	2.877	-0.004	2.0	NoResponse	0	0.593	470.862	-1	49	Target	Neutral	True
471.77	0.2	Control	0.5	n/a	No	2.877	n/a	n/a	NoResponse	0	n/a	n/a	-1	49	Blank	Neutral	True
471.862	0.3	Control	0.5	0.004	No	2.877	-0.004	2.0	NoResponse	0	0.593	n/a	-1	49	ButtonPress	Neutral	True
471.971	1.45	Control	0.5	n/a	No	2.877	n/a	5.0	NoResponse	0	0.002	470.973	-1	49	Feedback	Neutral	True
473.425	2.877	Control	0.5	n/a	No	2.877	n/a	n/a	NoResponse	0	0.0	n/a	-1	49	ISIslide	Neutral	True
476.317	0.25	Control	0.5097999999999999	0.001	Yes	2.783	0.017	n/a	GoodResponse	0	n/a	n/a	-1	50	Cue	Neutral	True
476.568	4.0	Control	0.5097999999999999	0.0	Yes	2.783	0.001	n/a	GoodResponse	0	n/a	n/a	-1	50	Fixation	Neutral	True
480.563	0.5	Control	0.5097999999999999	0.004	Yes	2.783	-0.004	2.0	GoodResponse	0	0.204	479.767	-1	50	Target	Neutral	True
480.767	0.3	Control	0.5097999999999999	0.004	Yes	2.783	-0.004	2.0	GoodResponse	0	0.204	n/a	-1	50	ButtonPress	Neutral	True
481.065	0.2	Control	0.5097999999999999	n/a	Yes	2.783	n/a	n/a	GoodResponse	0	n/a	n/a	-1	50	Blank	Neutral	True
481.266	1.45	Control	0.5097999999999999	n/a	Yes	2.783	n/a	5.0	GoodResponse	0	0.024	480.29	-1	50	Feedback	Neutral	True
482.72	2.783	Control	0.5097999999999999	n/a	Yes	2.783	n/a	n/a	GoodResponse	0	0.0	n/a	-1	50	ISIslide	Neutral	True
485.528	0.25	Control	0.5	0.0	No	2.722	0.028	n/a	NoResponse	0	n/a	n/a	-1	51	Cue	Neutral	False
485.779	3.95	Control	0.5	0.0	No	2.722	0.001	n/a	NoResponse	0	n/a	n/a	-1	51	Fixation	Neutral	False
489.724	0.5	Control	0.5	0.004	No	2.722	-0.004	n/a	NoResponse	0	n/a	n/a	-1	51	Target	Neutral	False
490.226	0.2	Control	0.5	n/a	No	2.722	n/a	n/a	NoResponse	0	n/a	n/a	-1	51	Blank	Neutral	False
490.426	1.45	Control	0.5	n/a	No	2.722	n/a	5.0	NoResponse	0	0.035	489.461	-1	51	Feedback	Neutral	False
491.881	2.722	Control	0.5	n/a	No	2.722	n/a	n/a	NoResponse	0	0.0	n/a	-1	51	ISIslide	Neutral	False
494.622	0.25	Control	0.49060000000000004	0.0	No	2.628	0.022	n/a	NoResponse	0	n/a	n/a	-1	52	Cue	Neutral	False
494.873	4.05	Control	0.49060000000000004	0.0	No	2.628	0.001	n/a	NoResponse	0	n/a	n/a	-1	52	Fixation	Neutral	False
498.918	0.5	Control	0.49060000000000004	0.004	No	2.628	-0.004	n/a	NoResponse	0	n/a	n/a	-1	52	Target	Neutral	False
499.42	0.2	Control	0.49060000000000004	n/a	No	2.628	n/a	n/a	NoResponse	0	n/a	n/a	-1	52	Blank	Neutral	False
499.621	1.45	Control	0.49060000000000004	n/a	No	2.628	n/a	5.0	NoResponse	0	0.01	498.631	-1	52	Feedback	Neutral	False
501.075	2.628	Control	0.49060000000000004	n/a	No	2.628	n/a	n/a	NoResponse	0	0.0	n/a	-1	52	ISIslide	Neutral	False
503.716	0.25	Win2	0.5	0.0	Yes	2.934	0.016	n/a	GoodResponse	1	n/a	n/a	0	53	Cue	Win	False
503.967	4.05	Win2	0.5	0.0	Yes	2.934	0.001	2.0	GoodResponse	1	2.722	505.689	0	53	Fixation	Win	False
506.689	0.3	Win2	0.5	0.0	Yes	2.934	0.001	2.0	GoodResponse	1	2.722	n/a	0	53	ButtonPress	Win	False
508.012	0.5	Win2	0.5	0.004	Yes	2.934	-0.004	2.0	GoodResponse	1	0.2	507.212	0	53	Target	Win	False
508.212	0.3	Win2	0.5	0.004	Yes	2.934	-0.004	2.0	GoodResponse	1	0.2	n/a	0	53	ButtonPress	Win	False
508.514	0.2	Win2	0.5	n/a	Yes	2.934	n/a	n/a	GoodResponse	1	n/a	n/a	0	53	Blank	Win	False
508.714	1.45	Win2	0.5	n/a	Yes	2.934	n/a	5.0	GoodResponse	1	0.038	507.752	0	53	Feedback	Win	False
510.169	2.934	Win2	0.5	n/a	Yes	2.934	n/a	n/a	GoodResponse	1	0.0	n/a	0	53	ISIslide	Win	False
513.128	0.25	Win2	0.49090000000000006	0.0	No	2.722	0.028	n/a	NoResponse	0	n/a	n/a	0	54	Cue	MissedWin	False
513.378	3.95	Win2	0.49090000000000006	0.001	No	2.722	0.0	n/a	NoResponse	0	n/a	n/a	0	54	Fixation	MissedWin	False
517.324	0.5	Win2	0.49090000000000006	0.004	No	2.722	-0.004	n/a	NoResponse	0	n/a	n/a	0	54	Target	MissedWin	False
517.825	0.2	Win2	0.49090000000000006	n/a	No	2.722	n/a	n/a	NoResponse	0	n/a	n/a	0	54	Blank	MissedWin	False
518.026	1.45	Win2	0.49090000000000006	n/a	No	2.722	n/a	5.0	NoResponse	0	0.044	517.07	0	54	Feedback	MissedWin	False
519.48	2.722	Win2	0.49090000000000006	n/a	No	2.722	n/a	n/a	NoResponse	0	0.0	n/a	0	54	ISIslide	MissedWin	False
522.222	0.25	Control	0.48210000000000003	0.0	No	3.028	0.022	n/a	NoResponse	0	n/a	n/a	0	55	Cue	Neutral	False
522.472	3.95	Control	0.48210000000000003	0.0	No	3.028	0.0	n/a	NoResponse	0	n/a	n/a	0	55	Fixation	Neutral	False
526.418	0.5	Control	0.48210000000000003	0.004	No	3.028	-0.004	n/a	NoResponse	0	n/a	n/a	0	55	Target	Neutral	False
526.919	0.2	Control	0.48210000000000003	n/a	No	3.028	n/a	n/a	NoResponse	0	n/a	n/a	0	55	Blank	Neutral	False
527.12	1.45	Control	0.48210000000000003	n/a	No	3.028	n/a	5.0	NoResponse	0	0.023	526.143	0	55	Feedback	Neutral	False
528.574	3.028	Control	0.48210000000000003	n/a	No	3.028	n/a	n/a	NoResponse	0	0.0	n/a	0	55	ISIslide	Neutral	False
531.616	0.25	Control	0.49119999999999997	0.001	Yes	2.834	0.016	n/a	GoodResponse	0	n/a	n/a	0	56	Cue	Neutral	True
531.867	3.95	Control	0.49119999999999997	0.0	Yes	2.834	0.001	n/a	GoodResponse	0	n/a	n/a	0	56	Fixation	Neutral	True
535.812	0.5	Control	0.49119999999999997	0.004	Yes	2.834	-0.004	2.0	GoodResponse	0	0.211	535.023	0	56	Target	Neutral	True
536.023	0.3	Control	0.49119999999999997	0.004	Yes	2.834	-0.004	2.0	GoodResponse	0	0.211	n/a	0	56	ButtonPress	Neutral	True
536.314	0.2	Control	0.49119999999999997	n/a	Yes	2.834	n/a	n/a	GoodResponse	0	n/a	n/a	0	56	Blank	Neutral	True
536.514	1.45	Control	0.49119999999999997	n/a	Yes	2.834	n/a	5.0	GoodResponse	0	0.044	535.558	0	56	Feedback	Neutral	True
537.969	2.834	Control	0.49119999999999997	n/a	Yes	2.834	n/a	n/a	GoodResponse	0	0.0	n/a	0	56	ISIslide	Neutral	True
540.827	0.25	Control	0.5	0.0	Yes	3.473	0.027	n/a	GoodResponse	0	n/a	n/a	0	57	Cue	Neutral	False
541.078	4.0	Control	0.5	0.0	Yes	3.473	0.001	2.0	GoodResponse	0	2.436	542.514	0	57	Fixation	Neutral	False
543.514	0.3	Control	0.5	0.0	Yes	3.473	0.001	2.0	GoodResponse	0	2.436	n/a	0	57	ButtonPress	Neutral	False
545.073	0.5	Control	0.5	0.004	Yes	3.473	-0.004	2.0	GoodResponse	0	0.246	544.319	0	57	Target	Neutral	False
545.319	0.3	Control	0.5	0.004	Yes	3.473	-0.004	2.0	GoodResponse	0	0.246	n/a	0	57	ButtonPress	Neutral	False
545.575	0.2	Control	0.5	n/a	Yes	3.473	n/a	n/a	GoodResponse	0	n/a	n/a	0	57	Blank	Neutral	False
545.776	1.45	Control	0.5	n/a	Yes	3.473	n/a	5.0	GoodResponse	0	0.001	544.777	0	57	Feedback	Neutral	False
547.23	3.473	Control	0.5	n/a	Yes	3.473	n/a	n/a	GoodResponse	0	0.0	n/a	0	57	ISIslide	Neutral	False
550.724	0.25	Win2	0.4915	0.0	No	2.726	0.024	n/a	NoResponse	0	n/a	n/a	0	58	Cue	MissedWin	False
550.974	4.05	Win2	0.4915	0.001	No	2.726	0.0	2.0	NoResponse	0	0.135	550.109	0	58	Fixation	MissedWin	False
551.109	0.3	Win2	0.4915	0.001	No	2.726	0.0	2.0	NoResponse	0	0.135	n/a	0	58	ButtonPress	MissedWin	False
555.02	0.5	Win2	0.4915	0.004	No	2.726	-0.004	2.0	NoResponse	0	0.59	554.61	0	58	Target	MissedWin	False
555.521	0.2	Win2	0.4915	n/a	No	2.726	n/a	n/a	NoResponse	0	n/a	n/a	0	58	Blank	MissedWin	False
555.61	0.3	Win2	0.4915	0.004	No	2.726	-0.004	2.0	NoResponse	0	0.59	n/a	0	58	ButtonPress	MissedWin	False
555.722	1.45	Win2	0.4915	n/a	No	2.726	n/a	5.0	NoResponse	0	0.007	554.729	0	58	Feedback	MissedWin	False
557.176	2.726	Win2	0.4915	n/a	No	2.726	n/a	n/a	NoResponse	0	0.0	n/a	0	58	ISIslide	MissedWin	False
559.918	0.25	Lose2	0.5	0.0	Yes	2.682	0.018	n/a	GoodResponse	0	n/a	n/a	0	59	Cue	AvoidedLoss	True
560.169	4.0	Lose2	0.5	0.0	Yes	2.682	0.001	n/a	GoodResponse	0	n/a	n/a	0	59	Fixation	AvoidedLoss	True
564.164	0.5	Lose2	0.5	0.004	Yes	2.682	-0.004	2.0	GoodResponse	0	0.233	563.397	0	59	Target	AvoidedLoss	True
564.397	0.3	Lose2	0.5	0.004	Yes	2.682	-0.004	2.0	GoodResponse	0	0.233	n/a	0	59	ButtonPress	AvoidedLoss	True
564.665	0.2	Lose2	0.5	n/a	Yes	2.682	n/a	n/a	GoodResponse	0	n/a	n/a	0	59	Blank	AvoidedLoss	True
564.866	1.45	Lose2	0.5	n/a	Yes	2.682	n/a	5.0	GoodResponse	0	0.032	563.898	0	59	Feedback	AvoidedLoss	True
566.32	2.682	Lose2	0.5	n/a	Yes	2.682	n/a	n/a	GoodResponse	0	0.0	n/a	0	59	ISIslide	AvoidedLoss	True
569.029	0.25	Control	0.5082	0.0	Yes	2.671	0.029	n/a	GoodResponse	0	n/a	n/a	0	60	Cue	Neutral	True
569.279	4.0	Control	0.5082	0.0	Yes	2.671	0.0	n/a	GoodResponse	0	n/a	n/a	0	60	Fixation	Neutral	True
573.275	0.5	Control	0.5082	0.004	Yes	2.671	-0.004	2.0	GoodResponse	0	0.225	572.5	0	60	Target	Neutral	True
573.5	0.3	Control	0.5082	0.004	Yes	2.671	-0.004	2.0	GoodResponse	0	0.225	n/a	0	60	ButtonPress	Neutral	True
573.776	0.2	Control	0.5082	n/a	Yes	2.671	n/a	n/a	GoodResponse	0	n/a	n/a	0	60	Blank	Neutral	True
573.977	1.45	Control	0.5082	n/a	Yes	2.671	n/a	5.0	GoodResponse	0	0.043	573.02	0	60	Feedback	Neutral	True
575.431	2.671	Control	0.5082	n/a	Yes	2.671	n/a	n/a	GoodResponse	0	0.0	n/a	0	60	ISIslide	Neutral	True
578.122	0.25	Lose2	0.5161	0.001	Yes	2.978	0.022	n/a	GoodResponse	0	n/a	n/a	0	61	Cue	AvoidedLoss	True
578.373	4.0	Lose2	0.5161	0.0	Yes	2.978	0.001	n/a	GoodResponse	0	n/a	n/a	0	61	Fixation	AvoidedLoss	True
582.369	0.5	Lose2	0.5161	0.003	Yes	2.978	-0.003	2.0	GoodResponse	0	0.305	581.674	0	61	Target	AvoidedLoss	True
582.674	0.3	Lose2	0.5161	0.003	Yes	2.978	-0.003	2.0	GoodResponse	0	0.305	n/a	0	61	ButtonPress	AvoidedLoss	True
582.87	0.2	Lose2	0.5161	n/a	Yes	2.978	n/a	n/a	GoodResponse	0	n/a	n/a	0	61	Blank	AvoidedLoss	True
583.071	1.45	Lose2	0.5161	n/a	Yes	2.978	n/a	5.0	GoodResponse	0	0.023	582.094	0	61	Feedback	AvoidedLoss	True
584.525	2.978	Lose2	0.5161	n/a	Yes	2.978	n/a	n/a	GoodResponse	0	0.0	n/a	0	61	ISIslide	AvoidedLoss	True
587.517	0.25	Lose2	0.5238	0.0	Yes	2.883	0.017	n/a	GoodResponse	0	n/a	n/a	0	62	Cue	AvoidedLoss	True
587.768	3.9	Lose2	0.5238	0.0	Yes	2.883	0.001	n/a	GoodResponse	0	n/a	n/a	0	62	Fixation	AvoidedLoss	True
591.663	0.5	Lose2	0.5238	0.004	Yes	2.883	-0.004	2.0	GoodResponse	0	0.309	590.972	0	62	Target	AvoidedLoss	True
591.972	0.3	Lose2	0.5238	0.004	Yes	2.883	-0.004	2.0	GoodResponse	0	0.309	n/a	0	62	ButtonPress	AvoidedLoss	True
592.165	0.2	Lose2	0.5238	n/a	Yes	2.883	n/a	n/a	GoodResponse	0	n/a	n/a	0	62	Blank	AvoidedLoss	True
592.365	1.45	Lose2	0.5238	n/a	Yes	2.883	n/a	5.0	GoodResponse	0	0.046	591.411	0	62	Feedback	AvoidedLoss	True
593.819	2.883	Lose2	0.5238	n/a	Yes	2.883	n/a	n/a	GoodResponse	0	0.0	n/a	0	62	ISIslide	AvoidedLoss	True
596.728	0.25	Lose2	0.5156000000000001	0.0	No	2.622	0.028	n/a	NoResponse	-1	n/a	n/a	-1	63	Cue	Loss	False
596.979	4.05	Lose2	0.5156000000000001	0.0	No	2.622	0.001	n/a	NoResponse	-1	n/a	n/a	-1	63	Fixation	Loss	False
601.024	0.5	Lose2	0.5156000000000001	0.004	No	2.622	-0.004	n/a	NoResponse	-1	n/a	n/a	-1	63	Target	Loss	False
601.526	0.2	Lose2	0.5156000000000001	n/a	No	2.622	n/a	n/a	NoResponse	-1	n/a	n/a	-1	63	Blank	Loss	False
601.727	1.45	Lose2	0.5156000000000001	n/a	No	2.622	n/a	5.0	NoResponse	-1	0.001	600.728	-1	63	Feedback	Loss	False
603.181	2.622	Lose2	0.5156000000000001	n/a	No	2.622	n/a	n/a	NoResponse	-1	0.0	n/a	-1	63	ISIslide	Loss	False
605.822	0.25	Win2	0.5231	0.0	Yes	3.128	0.022	n/a	GoodResponse	1	n/a	n/a	0	64	Cue	Win	True
606.073	4.15	Win2	0.5231	0.0	Yes	3.128	0.001	n/a	GoodResponse	1	n/a	n/a	0	64	Fixation	Win	True
610.219	0.5	Win2	0.5231	0.003	Yes	3.128	-0.003	2.0	GoodResponse	1	0.263	609.482	0	64	Target	Win	True
610.482	0.3	Win2	0.5231	0.003	Yes	3.128	-0.003	2.0	GoodResponse	1	0.263	n/a	0	64	ButtonPress	Win	True
610.72	0.2	Win2	0.5231	n/a	Yes	3.128	n/a	n/a	GoodResponse	1	n/a	n/a	0	64	Blank	Win	True
610.921	1.45	Win2	0.5231	n/a	Yes	3.128	n/a	5.0	GoodResponse	1	0.027	609.948	0	64	Feedback	Win	True
612.375	3.128	Win2	0.5231	n/a	Yes	3.128	n/a	n/a	GoodResponse	1	0.0	n/a	0	64	ISIslide	Win	True
615.518	0.25	Control	0.5303	0.0	Yes	2.782	0.018	n/a	GoodResponse	0	n/a	n/a	0	65	Cue	Neutral	True
615.769	4.0	Control	0.5303	0.0	Yes	2.782	0.001	n/a	GoodResponse	0	n/a	n/a	0	65	Fixation	Neutral	True
619.764	0.5	Control	0.5303	0.004	Yes	2.782	-0.004	2.0	GoodResponse	0	0.261	619.025	0	65	Target	Neutral	True
620.025	0.3	Control	0.5303	0.004	Yes	2.782	-0.004	2.0	GoodResponse	0	0.261	n/a	0	65	ButtonPress	Neutral	True
620.265	0.2	Control	0.5303	n/a	Yes	2.782	n/a	n/a	GoodResponse	0	n/a	n/a	0	65	Blank	Neutral	True
620.466	1.45	Control	0.5303	n/a	Yes	2.782	n/a	5.0	GoodResponse	0	0.043	619.509	0	65	Feedback	Neutral	True
621.92	2.782	Control	0.5303	n/a	Yes	2.782	n/a	n/a	GoodResponse	0	0.0	n/a	0	65	ISIslide	Neutral	True
624.729	0.25	Win2	0.5373	0.0	Yes	2.771	0.029	n/a	GoodResponse	1	n/a	n/a	1	66	Cue	Win	True
624.98	3.9	Win2	0.5373	0.0	Yes	2.771	0.001	n/a	GoodResponse	1	n/a	n/a	1	66	Fixation	Win	True
628.875	0.5	Win2	0.5373	0.004	Yes	2.771	-0.004	2.0	GoodResponse	1	0.435	628.31	1	66	Target	Win	True
629.31	0.3	Win2	0.5373	0.004	Yes	2.771	-0.004	2.0	GoodResponse	1	0.435	n/a	1	66	ButtonPress	Win	True
629.376	0.2	Win2	0.5373	n/a	Yes	2.771	n/a	n/a	GoodResponse	1	n/a	n/a	1	66	Blank	Win	True
629.577	1.45	Win2	0.5373	n/a	Yes	2.771	n/a	5.0	GoodResponse	1	0.008	628.585	1	66	Feedback	Win	True
631.031	2.771	Win2	0.5373	n/a	Yes	2.771	n/a	n/a	GoodResponse	1	0.0	n/a	1	66	ISIslide	Win	True
633.823	0.25	Control	0.5440999999999999	0.0	Yes	2.727	0.023	n/a	GoodResponse	0	n/a	n/a	1	67	Cue	Neutral	True
634.073	3.95	Control	0.5440999999999999	0.001	Yes	2.727	0.0	n/a	GoodResponse	0	n/a	n/a	1	67	Fixation	Neutral	True
638.019	0.5	Control	0.5440999999999999	0.004	Yes	2.727	-0.004	2.0	GoodResponse	0	0.397	637.416	1	67	Target	Neutral	True
638.416	0.3	Control	0.5440999999999999	0.004	Yes	2.727	-0.004	2.0	GoodResponse	0	0.397	n/a	1	67	ButtonPress	Neutral	True
638.52	0.2	Control	0.5440999999999999	n/a	Yes	2.727	n/a	n/a	GoodResponse	0	n/a	n/a	1	67	Blank	Neutral	True
638.721	1.45	Control	0.5440999999999999	n/a	Yes	2.727	n/a	5.0	GoodResponse	0	0.031	637.752	1	67	Feedback	Neutral	True
640.175	2.727	Control	0.5440999999999999	n/a	Yes	2.727	n/a	n/a	GoodResponse	0	0.0	n/a	1	67	ISIslide	Neutral	True
642.917	0.25	Win2	0.5362	0.0	No	3.083	0.017	n/a	NoResponse	0	n/a	n/a	1	68	Cue	MissedWin	True
643.167	4.0	Win2	0.5362	0.0	No	3.083	0.0	n/a	NoResponse	0	n/a	n/a	1	68	Fixation	MissedWin	True
647.163	0.5	Win2	0.5362	0.004	No	3.083	-0.004	2.0	NoResponse	0	0.638	646.801	1	68	Target	MissedWin	True
647.664	0.2	Win2	0.5362	n/a	No	3.083	n/a	n/a	NoResponse	0	n/a	n/a	1	68	Blank	MissedWin	True
647.801	0.3	Win2	0.5362	0.004	No	3.083	-0.004	2.0	NoResponse	0	0.638	n/a	1	68	ButtonPress	MissedWin	True
647.865	1.45	Win2	0.5362	n/a	No	3.083	n/a	5.0	NoResponse	0	0.009	646.874	1	68	Feedback	MissedWin	True
649.319	3.083	Win2	0.5362	n/a	No	3.083	n/a	n/a	NoResponse	0	0.0	n/a	1	68	ISIslide	MissedWin	True
652.428	0.25	Win2	0.5286	0.001	No	3.222	0.028	n/a	NoResponse	0	n/a	n/a	1	69	Cue	MissedWin	True
652.679	3.95	Win2	0.5286	0.0	No	3.222	0.001	n/a	NoResponse	0	n/a	n/a	1	69	Fixation	MissedWin	True
656.624	0.5	Win2	0.5286	0.004	No	3.222	-0.004	2.0	NoResponse	0	0.596	656.22	1	69	Target	MissedWin	True
657.126	0.2	Win2	0.5286	n/a	No	3.222	n/a	n/a	NoResponse	0	n/a	n/a	1	69	Blank	MissedWin	True
657.22	0.3	Win2	0.5286	0.004	No	3.222	-0.004	2.0	NoResponse	0	0.596	n/a	1	69	ButtonPress	MissedWin	True
657.326	1.45	Win2	0.5286	n/a	No	3.222	n/a	5.0	NoResponse	0	0.011	656.337	1	69	Feedback	MissedWin	True
658.781	3.222	Win2	0.5286	n/a	No	3.222	n/a	n/a	NoResponse	0	0.0	n/a	1	69	ISIslide	MissedWin	True
662.024	0.25	Lose2	0.5211	0.0	No	3.026	0.024	n/a	NoResponse	-1	n/a	n/a	0	70	Cue	Loss	True
662.275	4.05	Lose2	0.5211	0.0	No	3.026	0.001	2.0	NoResponse	-1	0.148	661.423	0	70	Fixation	Loss	True
662.423	0.3	Lose2	0.5211	0.0	No	3.026	0.001	2.0	NoResponse	-1	0.148	n/a	0	70	ButtonPress	Loss	True
666.32	0.5	Lose2	0.5211	0.004	No	3.026	-0.004	n/a	NoResponse	-1	n/a	n/a	0	70	Target	Loss	True
666.822	0.2	Lose2	0.5211	n/a	No	3.026	n/a	n/a	NoResponse	-1	n/a	n/a	0	70	Blank	Loss	True
667.022	1.45	Lose2	0.5211	n/a	No	3.026	n/a	5.0	NoResponse	-1	0.023	666.045	0	70	Feedback	Loss	True
668.477	3.026	Lose2	0.5211	n/a	No	3.026	n/a	n/a	NoResponse	-1	0.0	n/a	0	70	ISIslide	Loss	True
671.519	0.25	Win2	0.5278	0.0	Yes	2.731	0.019	n/a	GoodResponse	1	n/a	n/a	1	71	Cue	Win	False
671.77	4.05	Win2	0.5278	0.0	Yes	2.731	0.001	2.0	GoodResponse	1	0.204	670.974	1	71	Fixation	Win	False
671.974	0.3	Win2	0.5278	0.0	Yes	2.731	0.001	2.0	GoodResponse	1	0.204	n/a	1	71	ButtonPress	Win	False
675.815	0.5	Win2	0.5278	0.004	Yes	2.731	-0.004	2.0	GoodResponse	1	0.214	675.029	1	71	Target	Win	False
676.029	0.3	Win2	0.5278	0.004	Yes	2.731	-0.004	2.0	GoodResponse	1	0.214	n/a	1	71	ButtonPress	Win	False
676.317	0.2	Win2	0.5278	n/a	Yes	2.731	n/a	n/a	GoodResponse	1	n/a	n/a	1	71	Blank	Win	False
676.517	1.45	Win2	0.5278	n/a	Yes	2.731	n/a	5.0	GoodResponse	1	0.04	675.557	1	71	Feedback	Win	False
677.972	2.731	Win2	0.5278	n/a	Yes	2.731	n/a	n/a	GoodResponse	1	0.0	n/a	1	71	ISIslide	Win	False
680.73	0.25	Win2	0.5342	0.0	Yes	2.77	0.03	n/a	GoodResponse	1	n/a	n/a	2	72	Cue	Win	True
680.981	4.1	Win2	0.5342	0.0	Yes	2.77	0.001	n/a	GoodResponse	1	n/a	n/a	2	72	Fixation	Win	True
685.076	0.5	Win2	0.5342	0.004	Yes	2.77	-0.004	2.0	GoodResponse	1	0.244	684.32	2	72	Target	Win	True
685.32	0.3	Win2	0.5342	0.004	Yes	2.77	-0.004	2.0	GoodResponse	1	0.244	n/a	2	72	ButtonPress	Win	True
685.578	0.2	Win2	0.5342	n/a	Yes	2.77	n/a	n/a	GoodResponse	1	n/a	n/a	2	72	Blank	Win	True
685.778	1.45	Win2	0.5342	n/a	Yes	2.77	n/a	5.0	GoodResponse	1	0.047	684.825	2	72	Feedback	Win	True
687.233	2.77	Win2	0.5342	n/a	Yes	2.77	n/a	n/a	GoodResponse	1	0.0	n/a	2	72	ISIslide	Win	True
690.024	0.25	Win2	0.527	0.001	No	2.676	0.024	n/a	NoResponse	0	n/a	n/a	2	73	Cue	MissedWin	True
690.275	4.0	Win2	0.527	0.0	No	2.676	0.001	2.0	NoResponse	0	0.15	689.425	2	73	Fixation	MissedWin	True
690.425	0.3	Win2	0.527	0.0	No	2.676	0.001	2.0	NoResponse	0	0.15	n/a	2	73	ButtonPress	MissedWin	True
694.27	0.5	Win2	0.527	0.004	No	2.676	-0.004	n/a	NoResponse	0	n/a	n/a	2	73	Target	MissedWin	True
694.772	0.2	Win2	0.527	n/a	No	2.676	n/a	n/a	NoResponse	0	n/a	n/a	2	73	Blank	MissedWin	True
694.973	1.45	Win2	0.527	n/a	No	2.676	n/a	5.0	NoResponse	0	0.022	693.995	2	73	Feedback	MissedWin	True
696.427	2.676	Win2	0.527	n/a	No	2.676	n/a	n/a	NoResponse	0	0.0	n/a	2	73	ISIslide	MissedWin	True
699.118	0.25	Lose2	0.52	0.0	No	2.632	0.018	n/a	NoResponse	-1	n/a	n/a	1	74	Cue	Loss	True
699.369	4.05	Lose2	0.52	0.0	No	2.632	0.001	n/a	NoResponse	-1	n/a	n/a	1	74	Fixation	Loss	True
703.415	0.5	Lose2	0.52	0.003	No	2.632	-0.003	2.0	NoResponse	-1	0.615	703.03	1	74	Target	Loss	True
703.916	0.2	Lose2	0.52	n/a	No	2.632	n/a	n/a	NoResponse	-1	n/a	n/a	1	74	Blank	Loss	True
704.03	0.3	Lose2	0.52	0.003	No	2.632	-0.003	2.0	NoResponse	-1	0.615	n/a	1	74	ButtonPress	Loss	True
704.117	1.45	Lose2	0.52	n/a	No	2.632	n/a	5.0	NoResponse	-1	0.0	703.117	1	74	Feedback	Loss	True
705.571	2.632	Lose2	0.52	n/a	No	2.632	n/a	n/a	NoResponse	-1	0.0	n/a	1	74	ISIslide	Loss	True
708.229	0.25	Lose2	0.5132	0.0	No	2.921	0.029	n/a	NoResponse	-1	n/a	n/a	0	75	Cue	Loss	False
708.48	3.95	Lose2	0.5132	0.0	No	2.921	0.001	n/a	NoResponse	-1	n/a	n/a	0	75	Fixation	Loss	False
712.425	0.5	Lose2	0.5132	0.004	No	2.921	-0.004	n/a	NoResponse	-1	n/a	n/a	0	75	Target	Loss	False
712.926	0.2	Lose2	0.5132	n/a	No	2.921	n/a	n/a	NoResponse	-1	n/a	n/a	0	75	Blank	Loss	False
713.127	1.45	Lose2	0.5132	n/a	No	2.921	n/a	5.0	NoResponse	-1	0.015	712.142	0	75	Feedback	Loss	False
714.581	2.921	Lose2	0.5132	n/a	No	2.921	n/a	n/a	NoResponse	-1	0.0	n/a	0	75	ISIslide	Loss	False
717.523	0.25	Control	0.5195000000000001	0.001	Yes	3.227	0.023	n/a	GoodResponse	0	n/a	n/a	0	76	Cue	Neutral	True
717.774	4.05	Control	0.5195000000000001	0.0	Yes	3.227	0.001	n/a	GoodResponse	0	n/a	n/a	0	76	Fixation	Neutral	True
721.82	0.5	Control	0.5195000000000001	0.003	Yes	3.227	-0.003	2.0	GoodResponse	0	0.282	721.102	0	76	Target	Neutral	True
722.102	0.3	Control	0.5195000000000001	0.003	Yes	3.227	-0.003	2.0	GoodResponse	0	0.282	n/a	0	76	ButtonPress	Neutral	True
722.321	0.2	Control	0.5195000000000001	n/a	Yes	3.227	n/a	n/a	GoodResponse	0	n/a	n/a	0	76	Blank	Neutral	True
722.522	1.45	Control	0.5195000000000001	n/a	Yes	3.227	n/a	5.0	GoodResponse	0	0.035	721.557	0	76	Feedback	Neutral	True
723.976	3.227	Control	0.5195000000000001	n/a	Yes	3.227	n/a	n/a	GoodResponse	0	0.0	n/a	0	76	ISIslide	Neutral	True
727.219	0.25	Lose2	0.5128	0.0	No	2.581	0.019	n/a	NoResponse	-1	n/a	n/a	-1	77	Cue	Loss	False
727.47	3.95	Lose2	0.5128	0.0	No	2.581	0.001	n/a	NoResponse	-1	n/a	n/a	-1	77	Fixation	Loss	False
731.415	0.5	Lose2	0.5128	0.004	No	2.581	-0.004	n/a	NoResponse	-1	n/a	n/a	-1	77	Target	Loss	False
731.917	0.2	Lose2	0.5128	n/a	No	2.581	n/a	n/a	NoResponse	-1	n/a	n/a	-1	77	Blank	Loss	False
732.117	1.45	Lose2	0.5128	n/a	No	2.581	n/a	5.0	NoResponse	-1	0.001	731.118	-1	77	Feedback	Loss	False
733.572	2.581	Lose2	0.5128	n/a	No	2.581	n/a	n/a	NoResponse	-1	0.0	n/a	-1	77	ISIslide	Loss	False
