onset	duration	cue_type	current_mean_accuracy	duration_error	is_hit	isi_adjusted	onset_delay	response	response_type	reward	rt	rt_time	total_reward	trial_number	trial_phase	trial_type	one_press
11.102	0.25	Control	1.0	0.0	Yes	2.948	0.002	n/a	GoodResponse	0	n/a	n/a	0	0	Cue	Neutral	True
11.351	3.85	Control	1.0	0.001	Yes	2.948	-0.001	n/a	GoodResponse	0	n/a	n/a	0	0	Fixation	Neutral	True
15.2	0.4	Control	1.0	0.002	Yes	2.948	-0.002	2.0	GoodResponse	0	0.259	14.459	0	0	Target	Neutral	True
15.459	0.3	Control	1.0	0.002	Yes	2.948	-0.002	2.0	GoodResponse	0	0.259	n/a	0	0	ButtonPress	Neutral	True
15.6	0.3	Control	1.0	n/a	Yes	2.948	n/a	n/a	GoodResponse	0	n/a	n/a	0	0	Blank	Neutral	True
15.9	1.45	Control	1.0	n/a	Yes	2.948	n/a	5.0	GoodResponse	0	0.027	14.927	0	0	Feedback	Neutral	True
17.349	2.948	Control	1.0	n/a	Yes	2.948	n/a	n/a	GoodResponse	0	0.0	n/a	0	0	ISIslide	Neutral	True
20.332	0.25	Lose2	1.0	0.0	Yes	2.768	0.032	n/a	GoodResponse	0	n/a	n/a	0	1	Cue	AvoidedLoss	True
20.582	4.0	Lose2	1.0	0.0	Yes	2.768	0.0	n/a	GoodResponse	0	n/a	n/a	0	1	Fixation	AvoidedLoss	True
24.58	0.39	Lose2	1.0	0.002	Yes	2.768	-0.002	2.0	GoodResponse	0	0.289	23.869	0	1	Target	AvoidedLoss	True
24.869	0.3	Lose2	1.0	0.002	Yes	2.768	-0.002	2.0	GoodResponse	0	0.289	n/a	0	1	ButtonPress	AvoidedLoss	True
24.98	0.31	Lose2	1.0	n/a	Yes	2.768	n/a	n/a	GoodResponse	0	n/a	n/a	0	1	Blank	AvoidedLoss	True
25.28	1.45	Lose2	1.0	n/a	Yes	2.768	n/a	5.0	GoodResponse	0	0.013	24.293	0	1	Feedback	AvoidedLoss	True
26.729	2.768	Lose2	1.0	n/a	Yes	2.768	n/a	n/a	GoodResponse	0	0.0	n/a	0	1	ISIslide	AvoidedLoss	True
29.528	0.25	Control	1.0	0.0	Yes	2.572	0.028	n/a	GoodResponse	0	n/a	n/a	0	2	Cue	Neutral	True
29.778	4.1	Control	1.0	0.0	Yes	2.572	0.0	n/a	GoodResponse	0	n/a	n/a	0	2	Fixation	Neutral	True
33.877	0.38	Control	1.0	0.001	Yes	2.572	-0.001	2.0	GoodResponse	0	0.206	33.083	0	2	Target	Neutral	True
34.083	0.3	Control	1.0	0.001	Yes	2.572	-0.001	2.0	GoodResponse	0	0.206	n/a	0	2	ButtonPress	Neutral	True
34.26	0.32	Control	1.0	n/a	Yes	2.572	n/a	n/a	GoodResponse	0	n/a	n/a	0	2	Blank	Neutral	True
34.577	1.45	Control	1.0	n/a	Yes	2.572	n/a	5.0	GoodResponse	0	0.032	33.609	0	2	Feedback	Neutral	True
36.026	2.572	Control	1.0	n/a	Yes	2.572	n/a	n/a	GoodResponse	0	0.0	n/a	0	2	ISIslide	Neutral	True
38.625	0.25	Win2	1.0	0.0	Yes	2.825	0.025	n/a	GoodResponse	1	n/a	n/a	1	3	Cue	Win	True
38.875	3.95	Win2	1.0	0.0	Yes	2.825	0.0	n/a	GoodResponse	1	n/a	n/a	1	3	Fixation	Win	True
42.824	0.37	Win2	1.0	0.001	Yes	2.825	-0.001	2.0	GoodResponse	1	0.24	42.064	1	3	Target	Win	True
43.064	0.3	Win2	1.0	0.001	Yes	2.825	-0.001	2.0	GoodResponse	1	0.24	n/a	1	3	ButtonPress	Win	True
43.207	0.33	Win2	1.0	n/a	Yes	2.825	n/a	n/a	GoodResponse	1	n/a	n/a	1	3	Blank	Win	True
43.523	1.45	Win2	1.0	n/a	Yes	2.825	n/a	5.0	GoodResponse	1	0.013	42.536	1	3	Feedback	Win	True
44.973	2.825	Win2	1.0	n/a	Yes	2.825	n/a	n/a	GoodResponse	1	0.0	n/a	1	3	ISIslide	Win	True
47.822	0.25	Win2	1.0	0.0	Yes	3.278	0.022	n/a	GoodResponse	1	n/a	n/a	2	4	Cue	Win	True
48.072	4.0	Win2	1.0	0.0	Yes	3.278	0.0	n/a	GoodResponse	1	n/a	n/a	2	4	Fixation	Win	True
52.07	0.36	Win2	1.0	0.002	Yes	3.278	-0.002	2.0	GoodResponse	1	0.236	51.306	2	4	Target	Win	True
52.306	0.3	Win2	1.0	0.002	Yes	3.278	-0.002	2.0	GoodResponse	1	0.236	n/a	2	4	ButtonPress	Win	True
52.437	0.34	Win2	1.0	n/a	Yes	3.278	n/a	n/a	GoodResponse	1	n/a	n/a	2	4	Blank	Win	True
52.77	1.45	Win2	1.0	n/a	Yes	3.278	n/a	5.0	GoodResponse	1	0.035	51.805	2	4	Feedback	Win	True
54.22	3.278	Win2	1.0	n/a	Yes	3.278	n/a	n/a	GoodResponse	1	0.0	n/a	2	4	ISIslide	Win	True
57.519	0.25	Win2	1.0	0.0	Yes	2.781	0.019	n/a	GoodResponse	1	n/a	n/a	3	5	Cue	Win	True
57.768	4.0	Win2	1.0	0.001	Yes	2.781	-0.001	n/a	GoodResponse	1	n/a	n/a	3	5	Fixation	Win	True
61.767	0.35	Win2	1.0	0.002	Yes	2.781	-0.002	2.0	GoodResponse	1	0.231	60.998	3	5	Target	Win	True
61.998	0.3	Win2	1.0	0.002	Yes	2.781	-0.002	2.0	GoodResponse	1	0.231	n/a	3	5	ButtonPress	Win	True
62.117	0.35	Win2	1.0	n/a	Yes	2.781	n/a	n/a	GoodResponse	1	n/a	n/a	3	5	Blank	Win	True
62.467	1.45	Win2	1.0	n/a	Yes	2.781	n/a	5.0	GoodResponse	1	0.045	61.512	3	5	Feedback	Win	True
63.916	2.781	Win2	1.0	n/a	Yes	2.781	n/a	n/a	GoodResponse	1	0.0	n/a	3	5	ISIslide	Win	True
66.715	0.25	Lose2	1.0	0.0	Yes	2.735	0.015	n/a	GoodResponse	0	n/a	n/a	3	6	Cue	AvoidedLoss	True
66.965	3.95	Lose2	1.0	0.0	Yes	2.735	0.0	n/a	GoodResponse	0	n/a	n/a	3	6	Fixation	AvoidedLoss	True
70.914	0.34	Lose2	1.0	0.001	Yes	2.735	-0.001	2.0	GoodResponse	0	0.305	70.219	3	6	Target	AvoidedLoss	True
71.219	0.3	Lose2	1.0	0.001	Yes	2.735	-0.001	2.0	GoodResponse	0	0.305	n/a	3	6	ButtonPress	AvoidedLoss	True
71.264	0.36	Lose2	1.0	n/a	Yes	2.735	n/a	n/a	GoodResponse	0	n/a	n/a	3	6	Blank	AvoidedLoss	True
71.614	1.45	Lose2	1.0	n/a	Yes	2.735	n/a	5.0	GoodResponse	0	0.019	70.633	3	6	Feedback	AvoidedLoss	True
73.063	2.735	Lose2	1.0	n/a	Yes	2.735	n/a	n/a	GoodResponse	0	0.0	n/a	3	6	ISIslide	AvoidedLoss	True
75.829	0.25	Lose2	1.0	0.0	Yes	4.021	0.029	n/a	GoodResponse	0	n/a	n/a	3	7	Cue	AvoidedLoss	True
76.079	4.05	Lose2	1.0	0.0	Yes	4.021	0.0	n/a	GoodResponse	0	n/a	n/a	3	7	Fixation	AvoidedLoss	True
80.127	0.33	Lose2	1.0	0.002	Yes	4.021	-0.002	2.0	GoodResponse	0	0.288	79.415	3	7	Target	AvoidedLoss	True
80.415	0.3	Lose2	1.0	0.002	Yes	4.021	-0.002	2.0	GoodResponse	0	0.288	n/a	3	7	ButtonPress	AvoidedLoss	True
80.46	0.37	Lose2	1.0	n/a	Yes	4.021	n/a	n/a	GoodResponse	0	n/a	n/a	3	7	Blank	AvoidedLoss	True
80.827	1.45	Lose2	1.0	n/a	Yes	4.021	n/a	5.0	GoodResponse	0	0.026	79.853	3	7	Feedback	AvoidedLoss	True
82.276	4.021	Lose2	1.0	n/a	Yes	4.021	n/a	n/a	GoodResponse	0	0.0	n/a	3	7	ISIslide	AvoidedLoss	True
86.325	0.25	Lose2	1.0	0.0	Yes	3.025	0.025	n/a	GoodResponse	0	n/a	n/a	3	8	Cue	AvoidedLoss	True
86.575	3.95	Lose2	1.0	0.0	Yes	3.025	0.0	n/a	GoodResponse	0	n/a	n/a	3	8	Fixation	AvoidedLoss	True
90.524	0.32	Lose2	1.0	0.001	Yes	3.025	-0.001	2.0	GoodResponse	0	0.267	89.791	3	8	Target	AvoidedLoss	True
90.791	0.3	Lose2	1.0	0.001	Yes	3.025	-0.001	2.0	GoodResponse	0	0.267	n/a	3	8	ButtonPress	AvoidedLoss	True
90.857	0.38	Lose2	1.0	n/a	Yes	3.025	n/a	n/a	GoodResponse	0	n/a	n/a	3	8	Blank	AvoidedLoss	True
91.223	1.45	Lose2	1.0	n/a	Yes	3.025	n/a	5.0	GoodResponse	0	0.02	90.243	3	8	Feedback	AvoidedLoss	True
92.673	3.025	Lose2	1.0	n/a	Yes	3.025	n/a	n/a	GoodResponse	0	0.0	n/a	3	8	ISIslide	AvoidedLoss	True
95.722	0.25	Lose2	0.9	0.0	No	3.128	0.022	n/a	LatePress	-1	n/a	n/a	2	9	Cue	Loss	True
95.972	3.95	Lose2	0.9	0.0	No	3.128	0.0	n/a	LatePress	-1	n/a	n/a	2	9	Fixation	Loss	True
99.92	0.31	Lose2	0.9	0.002	No	3.128	-0.002	2.0	LatePress	-1	0.316	99.236	2	9	Target	Loss	True
100.236	0.3	Lose2	0.9	0.002	No	3.128	-0.002	2.0	LatePress	-1	0.316	n/a	2	9	ButtonPress	Loss	True
100.237	0.39	Lose2	0.9	n/a	No	3.128	n/a	n/a	LatePress	-1	n/a	n/a	2	9	Blank	Loss	True
100.62	1.45	Lose2	0.9	n/a	No	3.128	n/a	5.0	LatePress	-1	0.038	99.658	2	9	Feedback	Loss	True
102.07	3.128	Lose2	0.9	n/a	No	3.128	n/a	n/a	LatePress	-1	0.0	n/a	2	9	ISIslide	Loss	True
105.218	0.25	Control	0.9091	0.001	Yes	3.282	0.018	n/a	GoodResponse	0	n/a	n/a	2	10	Cue	Neutral	True
105.468	4.0	Control	0.9091	0.0	Yes	3.282	0.0	n/a	GoodResponse	0	n/a	n/a	2	10	Fixation	Neutral	True
109.467	0.3	Control	0.9091	0.001	Yes	3.282	-0.001	2.0	GoodResponse	0	0.208	108.675	2	10	Target	Neutral	True
109.675	0.3	Control	0.9091	0.001	Yes	3.282	-0.001	2.0	GoodResponse	0	0.208	n/a	2	10	ButtonPress	Neutral	True
109.767	0.4	Control	0.9091	n/a	Yes	3.282	n/a	n/a	GoodResponse	0	n/a	n/a	2	10	Blank	Neutral	True
110.167	1.45	Control	0.9091	n/a	Yes	3.282	n/a	5.0	GoodResponse	0	0.006	109.173	2	10	Feedback	Neutral	True
111.616	3.282	Control	0.9091	n/a	Yes	3.282	n/a	n/a	GoodResponse	0	0.0	n/a	2	10	ISIslide	Neutral	True
114.915	0.25	Lose2	0.9167000000000001	0.0	Yes	2.735	0.015	n/a	GoodResponse	0	n/a	n/a	2	11	Cue	AvoidedLoss	True
115.165	4.05	Lose2	0.9167000000000001	0.0	Yes	2.735	0.0	n/a	GoodResponse	0	n/a	n/a	2	11	Fixation	AvoidedLoss	True
119.213	0.29	Lose2	0.9167000000000001	0.002	Yes	2.735	-0.002	2.0	GoodResponse	0	0.222	118.435	2	11	Target	AvoidedLoss	True
119.435	0.3	Lose2	0.9167000000000001	0.002	Yes	2.735	-0.002	2.0	GoodResponse	0	0.222	n/a	2	11	ButtonPress	AvoidedLoss	True
119.513	0.41	Lose2	0.9167000000000001	n/a	Yes	2.735	n/a	n/a	GoodResponse	0	n/a	n/a	2	11	Blank	AvoidedLoss	True
119.913	1.45	Lose2	0.9167000000000001	n/a	Yes	2.735	n/a	5.0	GoodResponse	0	0.012	118.925	2	11	Feedback	AvoidedLoss	True
121.363	2.735	Lose2	0.9167000000000001	n/a	Yes	2.735	n/a	n/a	GoodResponse	0	0.0	n/a	2	11	ISIslide	AvoidedLoss	True
124.128	0.25	Control	0.9231	0.001	Yes	2.972	0.028	n/a	GoodResponse	0	n/a	n/a	2	12	Cue	Neutral	True
124.378	3.9	Control	0.9231	0.0	Yes	2.972	0.0	n/a	GoodResponse	0	n/a	n/a	2	12	Fixation	Neutral	True
128.277	0.28	Control	0.9231	0.001	Yes	2.972	-0.001	2.0	GoodResponse	0	0.234	127.511	2	12	Target	Neutral	True
128.511	0.3	Control	0.9231	0.001	Yes	2.972	-0.001	2.0	GoodResponse	0	0.234	n/a	2	12	ButtonPress	Neutral	True
128.56	0.42	Control	0.9231	n/a	Yes	2.972	n/a	n/a	GoodResponse	0	n/a	n/a	2	12	Blank	Neutral	True
128.977	1.45	Control	0.9231	n/a	Yes	2.972	n/a	5.0	GoodResponse	0	0.022	127.999	2	12	Feedback	Neutral	True
130.426	2.972	Control	0.9231	n/a	Yes	2.972	n/a	n/a	GoodResponse	0	0.0	n/a	2	12	ISIslide	Neutral	True
133.425	0.25	Control	0.9286	0.0	Yes	2.775	0.025	n/a	GoodResponse	0	n/a	n/a	2	13	Cue	Neutral	True
133.675	4.0	Control	0.9286	0.0	Yes	2.775	0.0	n/a	GoodResponse	0	n/a	n/a	2	13	Fixation	Neutral	True
137.674	0.27	Control	0.9286	0.001	Yes	2.775	-0.001	2.0	GoodResponse	0	0.229	136.903	2	13	Target	Neutral	True
137.903	0.3	Control	0.9286	0.001	Yes	2.775	-0.001	2.0	GoodResponse	0	0.229	n/a	2	13	ButtonPress	Neutral	True
137.957	0.43	Control	0.9286	n/a	Yes	2.775	n/a	n/a	GoodResponse	0	n/a	n/a	2	13	Blank	Neutral	True
138.373	1.45	Control	0.9286	n/a	Yes	2.775	n/a	5.0	GoodResponse	0	0.04	137.413	2	13	Feedback	Neutral	True
139.823	2.775	Control	0.9286	n/a	Yes	2.775	n/a	n/a	GoodResponse	0	0.0	n/a	2	13	ISIslide	Neutral	True
142.622	0.25	Win2	0.9333	0.0	Yes	2.678	0.022	n/a	GoodResponse	1	n/a	n/a	3	14	Cue	Win	True
142.872	4.1	Win2	0.9333	0.0	Yes	2.678	0.0	n/a	GoodResponse	1	n/a	n/a	3	14	Fixation	Win	True
146.97	0.26	Win2	0.9333	0.002	Yes	2.678	-0.002	2.0	GoodResponse	1	0.256	146.226	3	14	Target	Win	True
147.226	0.3	Win2	0.9333	0.002	Yes	2.678	-0.002	2.0	GoodResponse	1	0.256	n/a	3	14	ButtonPress	Win	True
147.237	0.44	Win2	0.9333	n/a	Yes	2.678	n/a	n/a	GoodResponse	1	n/a	n/a	3	14	Blank	Win	True
147.67	1.45	Win2	0.9333	n/a	Yes	2.678	n/a	5.0	GoodResponse	1	0.012	146.682	3	14	Feedback	Win	True
149.12	2.678	Win2	0.9333	n/a	Yes	2.678	n/a	n/a	GoodResponse	1	0.0	n/a	3	14	ISIslide	Win	True
151.819	0.25	Control	0.9375	0.0	Yes	2.981	0.019	n/a	GoodResponse	0	n/a	n/a	3	15	Cue	Neutral	True
152.069	4.0	Control	0.9375	0.0	Yes	2.981	0.0	n/a	GoodResponse	0	n/a	n/a	3	15	Fixation	Neutral	True
156.067	0.25	Control	0.9375	0.002	Yes	2.981	-0.002	2.0	GoodResponse	0	0.203	155.27	3	15	Target	Neutral	True
156.27	0.3	Control	0.9375	0.002	Yes	2.981	-0.002	2.0	GoodResponse	0	0.203	n/a	3	15	ButtonPress	Neutral	True
156.317	0.45	Control	0.9375	n/a	Yes	2.981	n/a	n/a	GoodResponse	0	n/a	n/a	3	15	Blank	Neutral	True
156.767	1.45	Control	0.9375	n/a	Yes	2.981	n/a	5.0	GoodResponse	0	0.036	155.803	3	15	Feedback	Neutral	True
158.216	2.981	Control	0.9375	n/a	Yes	2.981	n/a	n/a	GoodResponse	0	0.0	n/a	3	15	ISIslide	Neutral	True
161.215	0.25	Win2	0.9412	0.0	Yes	2.885	0.015	n/a	GoodResponse	1	n/a	n/a	4	16	Cue	Win	True
161.465	4.0	Win2	0.9412	0.0	Yes	2.885	0.0	n/a	GoodResponse	1	n/a	n/a	4	16	Fixation	Win	True
165.464	0.24	Win2	0.9412	0.001	Yes	2.885	-0.001	2.0	GoodResponse	1	0.219	164.683	4	16	Target	Win	True
165.683	0.3	Win2	0.9412	0.001	Yes	2.885	-0.001	2.0	GoodResponse	1	0.219	n/a	4	16	ButtonPress	Win	True
165.714	0.46	Win2	0.9412	n/a	Yes	2.885	n/a	n/a	GoodResponse	1	n/a	n/a	4	16	Blank	Win	True
166.164	1.45	Win2	0.9412	n/a	Yes	2.885	n/a	5.0	GoodResponse	1	0.006	165.17	4	16	Feedback	Win	True
167.613	2.885	Win2	0.9412	n/a	Yes	2.885	n/a	n/a	GoodResponse	1	0.0	n/a	4	16	ISIslide	Win	True
170.529	0.25	Lose2	0.9444	0.0	Yes	2.721	0.029	n/a	GoodResponse	0	n/a	n/a	4	17	Cue	AvoidedLoss	True
170.779	3.95	Lose2	0.9444	0.0	Yes	2.721	0.0	n/a	GoodResponse	0	n/a	n/a	4	17	Fixation	AvoidedLoss	True
174.727	0.23	Lose2	0.9444	0.002	Yes	2.721	-0.002	2.0	GoodResponse	0	0.228	173.955	4	17	Target	AvoidedLoss	True
174.955	0.3	Lose2	0.9444	0.002	Yes	2.721	-0.002	2.0	GoodResponse	0	0.228	n/a	4	17	ButtonPress	AvoidedLoss	True
174.961	0.47	Lose2	0.9444	n/a	Yes	2.721	n/a	n/a	GoodResponse	0	n/a	n/a	4	17	Blank	AvoidedLoss	True
175.427	1.45	Lose2	0.9444	n/a	Yes	2.721	n/a	5.0	GoodResponse	0	0.011	174.438	4	17	Feedback	AvoidedLoss	True
176.877	2.721	Lose2	0.9444	n/a	Yes	2.721	n/a	n/a	GoodResponse	0	0.0	n/a	4	17	ISIslide	AvoidedLoss	True
179.626	0.25	Lose2	0.8946999999999999	0.0	No	2.724	0.026	n/a	NoResponse	-1	n/a	n/a	3	18	Cue	Loss	True
179.875	4.05	Lose2	0.8946999999999999	0.001	No	2.724	-0.001	n/a	NoResponse	-1	n/a	n/a	3	18	Fixation	Loss	True
183.924	0.22	Lose2	0.8946999999999999	0.002	No	2.724	-0.002	2.0	NoResponse	-1	0.52	183.444	3	18	Target	Loss	True
184.157	0.48	Lose2	0.8946999999999999	n/a	No	2.724	n/a	n/a	NoResponse	-1	n/a	n/a	3	18	Blank	Loss	True
184.444	0.3	Lose2	0.8946999999999999	0.002	No	2.724	-0.002	2.0	NoResponse	-1	0.52	n/a	3	18	ButtonPress	Loss	True
184.624	1.45	Lose2	0.8946999999999999	n/a	No	2.724	n/a	5.0	NoResponse	-1	0.033	183.657	3	18	Feedback	Loss	True
186.073	2.724	Lose2	0.8946999999999999	n/a	No	2.724	n/a	n/a	NoResponse	-1	0.0	n/a	3	18	ISIslide	Loss	True
188.822	0.25	Control	0.85	0.0	No	2.928	0.022	n/a	NoResponse	0	n/a	n/a	3	19	Cue	Neutral	True
189.072	3.95	Control	0.85	0.0	No	2.928	0.0	n/a	NoResponse	0	n/a	n/a	3	19	Fixation	Neutral	True
193.021	0.21	Control	0.85	0.001	No	2.928	-0.001	2.0	NoResponse	0	0.226	192.247	3	19	Target	Neutral	True
193.237	0.49	Control	0.85	n/a	No	2.928	n/a	n/a	NoResponse	0	n/a	n/a	3	19	Blank	Neutral	True
193.247	0.3	Control	0.85	0.001	No	2.928	-0.001	2.0	NoResponse	0	0.226	n/a	3	19	ButtonPress	Neutral	True
193.721	1.45	Control	0.85	n/a	No	2.928	n/a	5.0	NoResponse	0	0.009	192.73	3	19	Feedback	Neutral	True
195.17	2.928	Control	0.85	n/a	No	2.928	n/a	n/a	NoResponse	0	0.0	n/a	3	19	ISIslide	Neutral	True
198.119	0.25	Control	0.8571	0.0	Yes	2.631	0.019	n/a	GoodResponse	0	n/a	n/a	3	20	Cue	Neutral	True
198.369	4.05	Control	0.8571	0.0	Yes	2.631	0.0	n/a	GoodResponse	0	n/a	n/a	3	20	Fixation	Neutral	True
202.418	0.2	Control	0.8571	0.001	Yes	2.631	-0.001	2.0	GoodResponse	0	0.18	201.598	3	20	Target	Neutral	True
202.598	0.3	Control	0.8571	0.001	Yes	2.631	-0.001	2.0	GoodResponse	0	0.18	n/a	3	20	ButtonPress	Neutral	True
202.617	0.5	Control	0.8571	n/a	Yes	2.631	n/a	n/a	GoodResponse	0	n/a	n/a	3	20	Blank	Neutral	True
203.117	1.45	Control	0.8571	n/a	Yes	2.631	n/a	5.0	GoodResponse	0	0.027	202.144	3	20	Feedback	Neutral	True
204.567	2.631	Control	0.8571	n/a	Yes	2.631	n/a	n/a	GoodResponse	0	0.0	n/a	3	20	ISIslide	Neutral	True
207.216	0.25	Control	0.8181999999999999	0.0	No	2.784	0.016	n/a	LatePress	0	n/a	n/a	3	21	Cue	Neutral	True
207.466	4.1	Control	0.8181999999999999	0.0	No	2.784	0.0	n/a	LatePress	0	n/a	n/a	3	21	Fixation	Neutral	True
211.564	0.19	Control	0.8181999999999999	0.002	No	2.784	-0.002	2.0	LatePress	0	0.196	210.76	3	21	Target	Neutral	True
211.76	0.3	Control	0.8181999999999999	0.002	No	2.784	-0.002	2.0	LatePress	0	0.196	n/a	3	21	ButtonPress	Neutral	True
211.764	0.51	Control	0.8181999999999999	n/a	No	2.784	n/a	n/a	LatePress	0	n/a	n/a	3	21	Blank	Neutral	True
212.264	1.45	Control	0.8181999999999999	n/a	No	2.784	n/a	5.0	LatePress	0	0.002	211.266	3	21	Feedback	Neutral	True
213.714	2.784	Control	0.8181999999999999	n/a	No	2.784	n/a	n/a	LatePress	0	0.0	n/a	3	21	ISIslide	Neutral	True
216.513	0.25	Control	0.7826000000000001	0.0	No	2.787	0.013	n/a	NoResponse	0	n/a	n/a	3	22	Cue	Neutral	True
216.762	4.0	Control	0.7826000000000001	0.001	No	2.787	-0.001	n/a	NoResponse	0	n/a	n/a	3	22	Fixation	Neutral	True
220.761	0.18	Control	0.7826000000000001	0.002	No	2.787	-0.002	2.0	NoResponse	0	0.219	219.98	3	22	Target	Neutral	True
220.944	0.52	Control	0.7826000000000001	n/a	No	2.787	n/a	n/a	NoResponse	0	n/a	n/a	3	22	Blank	Neutral	True
220.98	0.3	Control	0.7826000000000001	0.002	No	2.787	-0.002	2.0	NoResponse	0	0.219	n/a	3	22	ButtonPress	Neutral	True
221.461	1.45	Control	0.7826000000000001	n/a	No	2.787	n/a	5.0	NoResponse	0	0.025	220.486	3	22	Feedback	Neutral	True
222.91	2.787	Control	0.7826000000000001	n/a	No	2.787	n/a	n/a	NoResponse	0	0.0	n/a	3	22	ISIslide	Neutral	True
225.726	0.25	Control	0.75	0.0	No	2.774	0.026	n/a	NoResponse	0	n/a	n/a	3	23	Cue	Neutral	True
225.976	3.9	Control	0.75	0.0	No	2.774	0.0	n/a	NoResponse	0	n/a	n/a	3	23	Fixation	Neutral	True
229.875	0.17	Control	0.75	0.001	No	2.774	-0.001	2.0	NoResponse	0	0.204	229.079	3	23	Target	Neutral	True
230.058	0.53	Control	0.75	n/a	No	2.774	n/a	n/a	NoResponse	0	n/a	n/a	3	23	Blank	Neutral	True
230.079	0.3	Control	0.75	0.001	No	2.774	-0.001	2.0	NoResponse	0	0.204	n/a	3	23	ButtonPress	Neutral	True
230.574	1.45	Control	0.75	n/a	No	2.774	n/a	5.0	NoResponse	0	0.034	229.608	3	23	Feedback	Neutral	True
232.024	2.774	Control	0.75	n/a	No	2.774	n/a	n/a	NoResponse	0	0.0	n/a	3	23	ISIslide	Neutral	True
234.823	0.25	Win2	0.72	0.0	No	3.127	0.023	n/a	NoResponse	0	n/a	n/a	3	24	Cue	MissedWin	True
235.073	3.95	Win2	0.72	0.0	No	3.127	0.0	n/a	NoResponse	0	n/a	n/a	3	24	Fixation	MissedWin	True
239.021	0.16	Win2	0.72	0.002	No	3.127	-0.002	2.0	NoResponse	0	0.208	238.229	3	24	Target	MissedWin	True
239.188	0.54	Win2	0.72	n/a	No	3.127	n/a	n/a	NoResponse	0	n/a	n/a	3	24	Blank	MissedWin	True
239.229	0.3	Win2	0.72	0.002	No	3.127	-0.002	2.0	NoResponse	0	0.208	n/a	3	24	ButtonPress	MissedWin	True
239.721	1.45	Win2	0.72	n/a	No	3.127	n/a	5.0	NoResponse	0	0.009	238.73	3	24	Feedback	MissedWin	True
241.171	3.127	Win2	0.72	n/a	No	3.127	n/a	n/a	NoResponse	0	0.0	n/a	3	24	ISIslide	MissedWin	True
244.319	0.25	Win2	0.6923	0.001	No	3.081	0.019	n/a	NoResponse	0	n/a	n/a	3	25	Cue	MissedWin	True
244.569	4.0	Win2	0.6923	0.0	No	3.081	0.0	n/a	NoResponse	0	n/a	n/a	3	25	Fixation	MissedWin	True
248.568	0.15	Win2	0.6923	0.001	No	3.081	-0.001	2.0	NoResponse	0	0.186	247.754	3	25	Target	MissedWin	True
248.718	0.55	Win2	0.6923	n/a	No	3.081	n/a	n/a	NoResponse	0	n/a	n/a	3	25	Blank	MissedWin	True
248.754	0.3	Win2	0.6923	0.001	No	3.081	-0.001	2.0	NoResponse	0	0.186	n/a	3	25	ButtonPress	MissedWin	True
249.268	1.45	Win2	0.6923	n/a	No	3.081	n/a	5.0	NoResponse	0	0.022	248.29	3	25	Feedback	MissedWin	True
250.717	3.081	Win2	0.6923	n/a	No	3.081	n/a	n/a	NoResponse	0	0.0	n/a	3	25	ISIslide	MissedWin	True
253.816	0.25	Win2	0.6667000000000001	0.0	No	2.934	0.016	n/a	NoResponse	0	n/a	n/a	3	26	Cue	MissedWin	True
254.066	3.95	Win2	0.6667000000000001	0.0	No	2.934	0.0	n/a	NoResponse	0	n/a	n/a	3	26	Fixation	MissedWin	True
258.015	0.15	Win2	0.6667000000000001	0.001	No	2.934	-0.001	2.0	NoResponse	0	0.209	257.224	3	26	Target	MissedWin	True
258.165	0.55	Win2	0.6667000000000001	n/a	No	2.934	n/a	n/a	NoResponse	0	n/a	n/a	3	26	Blank	MissedWin	True
258.224	0.3	Win2	0.6667000000000001	0.001	No	2.934	-0.001	2.0	NoResponse	0	0.209	n/a	3	26	ButtonPress	MissedWin	True
258.714	1.45	Win2	0.6667000000000001	n/a	No	2.934	n/a	5.0	NoResponse	0	0.039	257.753	3	26	Feedback	MissedWin	True
260.164	2.934	Win2	0.6667000000000001	n/a	No	2.934	n/a	n/a	NoResponse	0	0.0	n/a	3	26	ISIslide	MissedWin	True
263.129	0.25	Lose2	0.6429	0.001	No	2.821	0.029	n/a	NoResponse	-1	n/a	n/a	2	27	Cue	Loss	True
263.379	4.05	Lose2	0.6429	0.0	No	2.821	0.0	n/a	NoResponse	-1	n/a	n/a	2	27	Fixation	Loss	True
267.428	0.15	Lose2	0.6429	0.001	No	2.821	-0.001	2.0	NoResponse	-1	0.246	266.674	2	27	Target	Loss	True
267.578	0.55	Lose2	0.6429	n/a	No	2.821	n/a	n/a	NoResponse	-1	n/a	n/a	2	27	Blank	Loss	True
267.674	0.3	Lose2	0.6429	0.001	No	2.821	-0.001	2.0	NoResponse	-1	0.246	n/a	2	27	ButtonPress	Loss	True
268.128	1.45	Lose2	0.6429	n/a	No	2.821	n/a	5.0	NoResponse	-1	0.04	267.168	2	27	Feedback	Loss	True
269.577	2.821	Lose2	0.6429	n/a	No	2.821	n/a	n/a	NoResponse	-1	0.0	n/a	2	27	ISIslide	Loss	True
272.426	0.25	Control	0.6207	0.0	No	2.824	0.026	n/a	NoResponse	0	n/a	n/a	2	28	Cue	Neutral	True
272.676	4.05	Control	0.6207	0.0	No	2.824	0.0	n/a	NoResponse	0	n/a	n/a	2	28	Fixation	Neutral	True
276.725	0.16	Control	0.6207	0.001	No	2.824	-0.001	2.0	NoResponse	0	0.237	275.962	2	28	Target	Neutral	True
276.891	0.54	Control	0.6207	n/a	No	2.824	n/a	n/a	NoResponse	0	n/a	n/a	2	28	Blank	Neutral	True
276.962	0.3	Control	0.6207	0.001	No	2.824	-0.001	2.0	NoResponse	0	0.237	n/a	2	28	ButtonPress	Neutral	True
277.424	1.45	Control	0.6207	n/a	No	2.824	n/a	5.0	NoResponse	0	0.013	276.437	2	28	Feedback	Neutral	True
278.874	2.824	Control	0.6207	n/a	No	2.824	n/a	n/a	NoResponse	0	0.0	n/a	2	28	ISIslide	Neutral	True
281.723	0.25	Lose2	0.6	0.0	No	2.827	0.023	n/a	LatePress	-1	n/a	n/a	1	29	Cue	Loss	True
281.973	3.95	Lose2	0.6	0.0	No	2.827	0.0	n/a	LatePress	-1	n/a	n/a	1	29	Fixation	Loss	True
285.921	0.17	Lose2	0.6	0.002	No	2.827	-0.002	2.0	LatePress	-1	0.181	285.102	1	29	Target	Loss	True
286.102	0.3	Lose2	0.6	0.002	No	2.827	-0.002	2.0	LatePress	-1	0.181	n/a	1	29	ButtonPress	Loss	True
286.105	0.53	Lose2	0.6	n/a	No	2.827	n/a	n/a	LatePress	-1	n/a	n/a	1	29	Blank	Loss	True
286.621	1.45	Lose2	0.6	n/a	No	2.827	n/a	5.0	LatePress	-1	0.034	285.655	1	29	Feedback	Loss	True
288.071	2.827	Lose2	0.6	n/a	No	2.827	n/a	n/a	LatePress	-1	0.0	n/a	1	29	ISIslide	Loss	True
290.92	0.25	Win2	0.5806	0.0	No	2.78	0.02	n/a	NoResponse	0	n/a	n/a	1	30	Cue	MissedWin	True
291.17	3.9	Win2	0.5806	0.0	No	2.78	0.0	n/a	NoResponse	0	n/a	n/a	1	30	Fixation	MissedWin	True
295.068	0.18	Win2	0.5806	0.002	No	2.78	-0.002	2.0	NoResponse	0	0.225	294.293	1	30	Target	MissedWin	True
295.251	0.52	Win2	0.5806	n/a	No	2.78	n/a	n/a	NoResponse	0	n/a	n/a	1	30	Blank	MissedWin	True
295.293	0.3	Win2	0.5806	0.002	No	2.78	-0.002	2.0	NoResponse	0	0.225	n/a	1	30	ButtonPress	MissedWin	True
295.768	1.45	Win2	0.5806	n/a	No	2.78	n/a	5.0	NoResponse	0	0.01	294.778	1	30	Feedback	MissedWin	True
297.217	2.78	Win2	0.5806	n/a	No	2.78	n/a	n/a	NoResponse	0	0.0	n/a	1	30	ISIslide	MissedWin	True
300.016	0.25	Lose2	0.5625	0.001	No	2.834	0.016	n/a	NoResponse	-1	n/a	n/a	0	31	Cue	Loss	True
300.266	4.05	Lose2	0.5625	0.0	No	2.834	0.0	n/a	NoResponse	-1	n/a	n/a	0	31	Fixation	Loss	True
304.315	0.19	Lose2	0.5625	0.001	No	2.834	-0.001	2.0	NoResponse	-1	0.236	303.551	0	31	Target	Loss	True
304.515	0.51	Lose2	0.5625	n/a	No	2.834	n/a	n/a	NoResponse	-1	n/a	n/a	0	31	Blank	Loss	True
304.551	0.3	Lose2	0.5625	0.001	No	2.834	-0.001	2.0	NoResponse	-1	0.236	n/a	0	31	ButtonPress	Loss	True
305.015	1.45	Lose2	0.5625	n/a	No	2.834	n/a	5.0	NoResponse	-1	0.031	304.046	0	31	Feedback	Loss	True
306.464	2.834	Lose2	0.5625	n/a	No	2.834	n/a	n/a	NoResponse	-1	0.0	n/a	0	31	ISIslide	Loss	True
309.313	0.25	Lose2	0.5455	0.0	No	2.637	0.013	n/a	NoResponse	-1	n/a	n/a	-1	32	Cue	Loss	True
309.563	4.15	Lose2	0.5455	0.0	No	2.637	0.0	2.0	NoResponse	-1	3.657	312.22	-1	32	Fixation	Loss	True
313.22	0.3	Lose2	0.5455	0.0	No	2.637	0.0	2.0	NoResponse	-1	3.657	n/a	-1	32	ButtonPress	Loss	True
313.712	0.2	Lose2	0.5455	0.001	No	2.637	-0.001	n/a	NoResponse	-1	n/a	n/a	-1	32	Target	Loss	True
313.912	0.5	Lose2	0.5455	n/a	No	2.637	n/a	n/a	NoResponse	-1	n/a	n/a	-1	32	Blank	Loss	True
314.411	1.45	Lose2	0.5455	n/a	No	2.637	n/a	5.0	NoResponse	-1	0.001	313.412	-1	32	Feedback	Loss	True
315.861	2.637	Lose2	0.5455	n/a	No	2.637	n/a	n/a	NoResponse	-1	0.0	n/a	-1	32	ISIslide	Loss	True
318.527	0.25	Win2	0.5588000000000001	0.0	Yes	2.673	0.027	n/a	GoodResponse	1	n/a	n/a	0	33	Cue	Win	True
318.777	4.0	Win2	0.5588000000000001	0.0	Yes	2.673	0.0	n/a	GoodResponse	1	n/a	n/a	0	33	Fixation	Win	True
322.775	0.21	Win2	0.5588000000000001	0.002	Yes	2.673	-0.002	2.0	GoodResponse	1	0.201	321.976	0	33	Target	Win	True
322.976	0.3	Win2	0.5588000000000001	0.002	Yes	2.673	-0.002	2.0	GoodResponse	1	0.201	n/a	0	33	ButtonPress	Win	True
322.992	0.49	Win2	0.5588000000000001	n/a	Yes	2.673	n/a	n/a	GoodResponse	1	n/a	n/a	0	33	Blank	Win	True
323.475	1.45	Win2	0.5588000000000001	n/a	Yes	2.673	n/a	5.0	GoodResponse	1	0.01	322.485	0	33	Feedback	Win	True
324.924	2.673	Win2	0.5588000000000001	n/a	Yes	2.673	n/a	n/a	GoodResponse	1	0.0	n/a	0	33	ISIslide	Win	True
327.623	0.25	Lose2	0.5714	0.0	Yes	2.627	0.023	n/a	GoodResponse	0	n/a	n/a	0	34	Cue	AvoidedLoss	True
327.873	4.05	Lose2	0.5714	0.0	Yes	2.627	0.0	n/a	GoodResponse	0	n/a	n/a	0	34	Fixation	AvoidedLoss	True
331.922	0.22	Lose2	0.5714	0.001	Yes	2.627	-0.001	2.0	GoodResponse	0	0.196	331.118	0	34	Target	AvoidedLoss	True
332.118	0.3	Lose2	0.5714	0.001	Yes	2.627	-0.001	2.0	GoodResponse	0	0.196	n/a	0	34	ButtonPress	AvoidedLoss	True
332.138	0.48	Lose2	0.5714	n/a	Yes	2.627	n/a	n/a	GoodResponse	0	n/a	n/a	0	34	Blank	AvoidedLoss	True
332.622	1.45	Lose2	0.5714	n/a	Yes	2.627	n/a	5.0	GoodResponse	0	0.033	331.655	0	34	Feedback	AvoidedLoss	True
334.071	2.627	Lose2	0.5714	n/a	Yes	2.627	n/a	n/a	GoodResponse	0	0.0	n/a	0	34	ISIslide	AvoidedLoss	True
336.72	0.25	Lose2	0.5832999999999999	0.0	Yes	2.68	0.02	n/a	GoodResponse	0	n/a	n/a	0	35	Cue	AvoidedLoss	True
336.97	4.0	Lose2	0.5832999999999999	0.0	Yes	2.68	0.0	n/a	GoodResponse	0	n/a	n/a	0	35	Fixation	AvoidedLoss	True
340.969	0.23	Lose2	0.5832999999999999	0.001	Yes	2.68	-0.001	2.0	GoodResponse	0	0.215	340.184	0	35	Target	AvoidedLoss	True
341.184	0.3	Lose2	0.5832999999999999	0.001	Yes	2.68	-0.001	2.0	GoodResponse	0	0.215	n/a	0	35	ButtonPress	AvoidedLoss	True
341.202	0.47	Lose2	0.5832999999999999	n/a	Yes	2.68	n/a	n/a	GoodResponse	0	n/a	n/a	0	35	Blank	AvoidedLoss	True
341.668	1.45	Lose2	0.5832999999999999	n/a	Yes	2.68	n/a	5.0	GoodResponse	0	0.011	340.679	0	35	Feedback	AvoidedLoss	True
343.118	2.68	Lose2	0.5832999999999999	n/a	Yes	2.68	n/a	n/a	GoodResponse	0	0.0	n/a	0	35	ISIslide	AvoidedLoss	True
345.817	0.25	Control	0.5946	0.0	Yes	2.683	0.017	n/a	GoodResponse	0	n/a	n/a	0	36	Cue	Neutral	True
346.067	4.0	Control	0.5946	0.0	Yes	2.683	0.0	n/a	GoodResponse	0	n/a	n/a	0	36	Fixation	Neutral	True
350.065	0.24	Control	0.5946	0.002	Yes	2.683	-0.002	2.0	GoodResponse	0	0.206	349.271	0	36	Target	Neutral	True
350.271	0.3	Control	0.5946	0.002	Yes	2.683	-0.002	2.0	GoodResponse	0	0.206	n/a	0	36	ButtonPress	Neutral	True
350.315	0.46	Control	0.5946	n/a	Yes	2.683	n/a	n/a	GoodResponse	0	n/a	n/a	0	36	Blank	Neutral	True
350.765	1.45	Control	0.5946	n/a	Yes	2.683	n/a	5.0	GoodResponse	0	0.036	349.801	0	36	Feedback	Neutral	True
352.215	2.683	Control	0.5946	n/a	Yes	2.683	n/a	n/a	GoodResponse	0	0.0	n/a	0	36	ISIslide	Neutral	True
354.914	0.25	Win2	0.6053000000000001	0.0	Yes	2.886	0.014	n/a	GoodResponse	1	n/a	n/a	1	37	Cue	Win	True
355.164	4.0	Win2	0.6053000000000001	0.0	Yes	2.886	0.0	n/a	GoodResponse	1	n/a	n/a	1	37	Fixation	Win	True
359.162	0.25	Win2	0.6053000000000001	0.002	Yes	2.886	-0.002	2.0	GoodResponse	1	0.196	358.358	1	37	Target	Win	True
359.358	0.3	Win2	0.6053000000000001	0.002	Yes	2.886	-0.002	2.0	GoodResponse	1	0.196	n/a	1	37	ButtonPress	Win	True
359.412	0.45	Win2	0.6053000000000001	n/a	Yes	2.886	n/a	n/a	GoodResponse	1	n/a	n/a	1	37	Blank	Win	True
359.862	1.45	Win2	0.6053000000000001	n/a	Yes	2.886	n/a	5.0	GoodResponse	1	0.013	358.875	1	37	Feedback	Win	True
361.312	2.886	Win2	0.6053000000000001	n/a	Yes	2.886	n/a	n/a	GoodResponse	1	0.0	n/a	1	37	ISIslide	Win	True
364.211	0.25	Lose2	0.6154	0.0	Yes	2.839	0.011	n/a	GoodResponse	0	n/a	n/a	1	38	Cue	AvoidedLoss	True
364.46	3.95	Lose2	0.6154	0.001	Yes	2.839	-0.001	n/a	GoodResponse	0	n/a	n/a	1	38	Fixation	AvoidedLoss	True
368.409	0.26	Lose2	0.6154	0.002	Yes	2.839	-0.002	2.0	GoodResponse	0	0.224	367.633	1	38	Target	AvoidedLoss	True
368.633	0.3	Lose2	0.6154	0.002	Yes	2.839	-0.002	2.0	GoodResponse	0	0.224	n/a	1	38	ButtonPress	AvoidedLoss	True
368.676	0.44	Lose2	0.6154	n/a	Yes	2.839	n/a	n/a	GoodResponse	0	n/a	n/a	1	38	Blank	AvoidedLoss	True
369.109	1.45	Lose2	0.6154	n/a	Yes	2.839	n/a	5.0	GoodResponse	0	0.033	368.142	1	38	Feedback	AvoidedLoss	True
370.558	2.839	Lose2	0.6154	n/a	Yes	2.839	n/a	n/a	GoodResponse	0	0.0	n/a	1	38	ISIslide	AvoidedLoss	True
373.424	0.25	Win2	0.625	0.0	Yes	2.976	0.024	n/a	GoodResponse	1	n/a	n/a	2	39	Cue	Win	True
373.674	4.1	Win2	0.625	0.0	Yes	2.976	0.0	n/a	GoodResponse	1	n/a	n/a	2	39	Fixation	Win	True
377.772	0.27	Win2	0.625	0.002	Yes	2.976	-0.002	2.0	GoodResponse	1	0.203	376.975	2	39	Target	Win	True
377.975	0.3	Win2	0.625	0.002	Yes	2.976	-0.002	2.0	GoodResponse	1	0.203	n/a	2	39	ButtonPress	Win	True
378.056	0.43	Win2	0.625	n/a	Yes	2.976	n/a	n/a	GoodResponse	1	n/a	n/a	2	39	Blank	Win	True
378.472	1.45	Win2	0.625	n/a	Yes	2.976	n/a	5.0	GoodResponse	1	0.036	377.508	2	39	Feedback	Win	True
379.922	2.976	Win2	0.625	n/a	Yes	2.976	n/a	n/a	GoodResponse	1	0.0	n/a	2	39	ISIslide	Win	True
382.921	0.25	Win2	0.6341	0.0	Yes	2.729	0.021	n/a	GoodResponse	1	n/a	n/a	3	40	Cue	Win	True
383.17	3.95	Win2	0.6341	0.001	Yes	2.729	-0.001	n/a	GoodResponse	1	n/a	n/a	3	40	Fixation	Win	True
387.119	0.28	Win2	0.6341	0.002	Yes	2.729	-0.002	2.0	GoodResponse	1	0.221	386.34	3	40	Target	Win	True
387.34	0.3	Win2	0.6341	0.002	Yes	2.729	-0.002	2.0	GoodResponse	1	0.221	n/a	3	40	ButtonPress	Win	True
387.402	0.42	Win2	0.6341	n/a	Yes	2.729	n/a	n/a	GoodResponse	1	n/a	n/a	3	40	Blank	Win	True
387.819	1.45	Win2	0.6341	n/a	Yes	2.729	n/a	5.0	GoodResponse	1	0.006	386.825	3	40	Feedback	Win	True
389.268	2.729	Win2	0.6341	n/a	Yes	2.729	n/a	n/a	GoodResponse	1	0.0	n/a	3	40	ISIslide	Win	True
392.017	0.25	Win2	0.6429	0.0	Yes	2.783	0.017	n/a	GoodResponse	1	n/a	n/a	4	41	Cue	Win	True
392.267	3.9	Win2	0.6429	0.0	Yes	2.783	0.0	n/a	GoodResponse	1	n/a	n/a	4	41	Fixation	Win	True
396.166	0.29	Win2	0.6429	0.001	Yes	2.783	-0.001	2.0	GoodResponse	1	0.201	395.367	4	41	Target	Win	True
396.367	0.3	Win2	0.6429	0.001	Yes	2.783	-0.001	2.0	GoodResponse	1	0.201	n/a	4	41	ButtonPress	Win	True
396.466	0.41	Win2	0.6429	n/a	Yes	2.783	n/a	n/a	GoodResponse	1	n/a	n/a	4	41	Blank	Win	True
396.866	1.45	Win2	0.6429	n/a	Yes	2.783	n/a	5.0	GoodResponse	1	0.032	395.898	4	41	Feedback	Win	True
398.315	2.783	Win2	0.6429	n/a	Yes	2.783	n/a	n/a	GoodResponse	1	0.0	n/a	4	41	ISIslide	Win	True
401.114	0.25	Control	0.6512	0.0	Yes	2.936	0.014	n/a	GoodResponse	0	n/a	n/a	4	42	Cue	Neutral	True
401.364	3.85	Control	0.6512	0.0	Yes	2.936	0.0	n/a	GoodResponse	0	n/a	n/a	4	42	Fixation	Neutral	True
405.213	0.3	Control	0.6512	0.001	Yes	2.936	-0.001	2.0	GoodResponse	0	0.206	404.419	4	42	Target	Neutral	True
405.419	0.3	Control	0.6512	0.001	Yes	2.936	-0.001	2.0	GoodResponse	0	0.206	n/a	4	42	ButtonPress	Neutral	True
405.513	0.4	Control	0.6512	n/a	Yes	2.936	n/a	n/a	GoodResponse	0	n/a	n/a	4	42	Blank	Neutral	True
405.912	1.45	Control	0.6512	n/a	Yes	2.936	n/a	5.0	GoodResponse	0	0.011	404.923	4	42	Feedback	Neutral	True
407.362	2.936	Control	0.6512	n/a	Yes	2.936	n/a	n/a	GoodResponse	0	0.0	n/a	4	42	ISIslide	Neutral	True
410.328	0.25	Win2	0.6591	0.0	Yes	3.172	0.028	n/a	GoodResponse	1	n/a	n/a	5	43	Cue	Win	True
410.578	4.0	Win2	0.6591	0.0	Yes	3.172	0.0	n/a	GoodResponse	1	n/a	n/a	5	43	Fixation	Win	True
414.576	0.31	Win2	0.6591	0.002	Yes	3.172	-0.002	2.0	GoodResponse	1	0.242	413.818	5	43	Target	Win	True
414.818	0.3	Win2	0.6591	0.002	Yes	3.172	-0.002	2.0	GoodResponse	1	0.242	n/a	5	43	ButtonPress	Win	True
414.893	0.39	Win2	0.6591	n/a	Yes	3.172	n/a	n/a	GoodResponse	1	n/a	n/a	5	43	Blank	Win	True
415.276	1.45	Win2	0.6591	n/a	Yes	3.172	n/a	5.0	GoodResponse	1	0.012	414.288	5	43	Feedback	Win	True
416.725	3.172	Win2	0.6591	n/a	Yes	3.172	n/a	n/a	GoodResponse	1	0.0	n/a	5	43	ISIslide	Win	True
419.924	0.25	Win2	0.6667000000000001	0.0	Yes	2.976	0.024	n/a	GoodResponse	1	n/a	n/a	6	44	Cue	Win	True
420.174	4.0	Win2	0.6667000000000001	0.0	Yes	2.976	0.0	n/a	GoodResponse	1	n/a	n/a	6	44	Fixation	Win	True
424.173	0.31	Win2	0.6667000000000001	0.001	Yes	2.976	-0.001	2.0	GoodResponse	1	0.197	423.37	6	44	Target	Win	True
424.37	0.3	Win2	0.6667000000000001	0.001	Yes	2.976	-0.001	2.0	GoodResponse	1	0.197	n/a	6	44	ButtonPress	Win	True
424.489	0.39	Win2	0.6667000000000001	n/a	Yes	2.976	n/a	n/a	GoodResponse	1	n/a	n/a	6	44	Blank	Win	True
424.872	1.45	Win2	0.6667000000000001	n/a	Yes	2.976	n/a	5.0	GoodResponse	1	0.026	423.898	6	44	Feedback	Win	True
426.322	2.976	Win2	0.6667000000000001	n/a	Yes	2.976	n/a	n/a	GoodResponse	1	0.0	n/a	6	44	ISIslide	Win	True
429.321	0.25	Control	0.6739	0.0	Yes	2.879	0.021	n/a	GoodResponse	0	n/a	n/a	6	45	Cue	Neutral	True
429.571	4.1	Control	0.6739	0.0	Yes	2.879	0.0	n/a	GoodResponse	0	n/a	n/a	6	45	Fixation	Neutral	True
433.669	0.3	Control	0.6739	0.002	Yes	2.879	-0.002	2.0	GoodResponse	0	0.237	432.906	6	45	Target	Neutral	True
433.906	0.3	Control	0.6739	0.002	Yes	2.879	-0.002	2.0	GoodResponse	0	0.237	n/a	6	45	ButtonPress	Neutral	True
433.969	0.4	Control	0.6739	n/a	Yes	2.879	n/a	n/a	GoodResponse	0	n/a	n/a	6	45	Blank	Neutral	True
434.369	1.45	Control	0.6739	n/a	Yes	2.879	n/a	5.0	GoodResponse	0	0.041	433.41	6	45	Feedback	Neutral	True
435.819	2.879	Control	0.6739	n/a	Yes	2.879	n/a	n/a	GoodResponse	0	0.0	n/a	6	45	ISIslide	Neutral	True
438.718	0.25	Lose2	0.6809000000000001	0.0	Yes	3.382	0.018	n/a	GoodResponse	0	n/a	n/a	6	46	Cue	AvoidedLoss	True
438.968	4.0	Lose2	0.6809000000000001	0.0	Yes	3.382	0.0	n/a	GoodResponse	0	n/a	n/a	6	46	Fixation	AvoidedLoss	True
442.966	0.29	Lose2	0.6809000000000001	0.002	Yes	3.382	-0.002	2.0	GoodResponse	0	0.252	442.218	6	46	Target	AvoidedLoss	True
443.218	0.3	Lose2	0.6809000000000001	0.002	Yes	3.382	-0.002	2.0	GoodResponse	0	0.252	n/a	6	46	ButtonPress	AvoidedLoss	True
443.266	0.41	Lose2	0.6809000000000001	n/a	Yes	3.382	n/a	n/a	GoodResponse	0	n/a	n/a	6	46	Blank	AvoidedLoss	True
443.666	1.45	Lose2	0.6809000000000001	n/a	Yes	3.382	n/a	5.0	GoodResponse	0	0.012	442.678	6	46	Feedback	AvoidedLoss	True
445.115	3.382	Lose2	0.6809000000000001	n/a	Yes	3.382	n/a	n/a	GoodResponse	0	0.0	n/a	6	46	ISIslide	AvoidedLoss	True
448.514	0.25	Lose2	0.6875	0.0	Yes	2.686	0.014	n/a	GoodResponse	0	n/a	n/a	6	47	Cue	AvoidedLoss	True
448.764	4.0	Lose2	0.6875	0.0	Yes	2.686	0.0	n/a	GoodResponse	0	n/a	n/a	6	47	Fixation	AvoidedLoss	True
452.763	0.28	Lose2	0.6875	0.001	Yes	2.686	-0.001	2.0	GoodResponse	0	0.231	451.994	6	47	Target	AvoidedLoss	True
452.994	0.3	Lose2	0.6875	0.001	Yes	2.686	-0.001	2.0	GoodResponse	0	0.231	n/a	6	47	ButtonPress	AvoidedLoss	True
453.046	0.42	Lose2	0.6875	n/a	Yes	2.686	n/a	n/a	GoodResponse	0	n/a	n/a	6	47	Blank	AvoidedLoss	True
453.462	1.45	Lose2	0.6875	n/a	Yes	2.686	n/a	5.0	GoodResponse	0	0.02	452.482	6	47	Feedback	AvoidedLoss	True
454.912	2.686	Lose2	0.6875	n/a	Yes	2.686	n/a	n/a	GoodResponse	0	0.0	n/a	6	47	ISIslide	AvoidedLoss	True
457.611	0.25	Lose2	0.6735	0.0	No	3.039	0.011	n/a	NoResponse	-1	n/a	n/a	5	48	Cue	Loss	True
457.861	3.95	Lose2	0.6735	0.0	No	3.039	0.0	n/a	NoResponse	-1	n/a	n/a	5	48	Fixation	Loss	True
461.809	0.27	Lose2	0.6735	0.002	No	3.039	-0.002	2.0	NoResponse	-1	0.289	461.098	5	48	Target	Loss	True
462.093	0.43	Lose2	0.6735	n/a	No	3.039	n/a	n/a	NoResponse	-1	n/a	n/a	5	48	Blank	Loss	True
462.098	0.3	Lose2	0.6735	0.002	No	3.039	-0.002	2.0	NoResponse	-1	0.289	n/a	5	48	ButtonPress	Loss	True
462.509	1.45	Lose2	0.6735	n/a	No	3.039	n/a	5.0	NoResponse	-1	0.047	461.556	5	48	Feedback	Loss	True
463.959	3.039	Lose2	0.6735	n/a	No	3.039	n/a	n/a	NoResponse	-1	0.0	n/a	5	48	ISIslide	Loss	True
467.024	0.25	Control	0.68	0.0	Yes	2.876	0.024	n/a	GoodResponse	0	n/a	n/a	5	49	Cue	Neutral	True
467.274	4.0	Control	0.68	0.0	Yes	2.876	0.0	n/a	GoodResponse	0	n/a	n/a	5	49	Fixation	Neutral	True
471.273	0.26	Control	0.68	0.001	Yes	2.876	-0.001	2.0	GoodResponse	0	0.189	470.462	5	49	Target	Neutral	True
471.462	0.3	Control	0.68	0.001	Yes	2.876	-0.001	2.0	GoodResponse	0	0.189	n/a	5	49	ButtonPress	Neutral	True
471.539	0.44	Control	0.68	n/a	Yes	2.876	n/a	n/a	GoodResponse	0	n/a	n/a	5	49	Blank	Neutral	True
471.973	1.45	Control	0.68	n/a	Yes	2.876	n/a	5.0	GoodResponse	0	0.001	470.974	5	49	Feedback	Neutral	True
473.422	2.876	Control	0.68	n/a	Yes	2.876	n/a	n/a	GoodResponse	0	0.0	n/a	5	49	ISIslide	Neutral	True
476.321	0.25	Control	0.6862999999999999	0.0	Yes	2.779	0.021	n/a	GoodResponse	0	n/a	n/a	5	50	Cue	Neutral	True
476.571	4.0	Control	0.6862999999999999	0.0	Yes	2.779	0.0	n/a	GoodResponse	0	n/a	n/a	5	50	Fixation	Neutral	True
480.57	0.25	Control	0.6862999999999999	0.001	Yes	2.779	-0.001	2.0	GoodResponse	0	0.223	479.793	5	50	Target	Neutral	True
480.793	0.3	Control	0.6862999999999999	0.001	Yes	2.779	-0.001	2.0	GoodResponse	0	0.223	n/a	5	50	ButtonPress	Neutral	True
480.819	0.45	Control	0.6862999999999999	n/a	Yes	2.779	n/a	n/a	GoodResponse	0	n/a	n/a	5	50	Blank	Neutral	True
481.269	1.45	Control	0.6862999999999999	n/a	Yes	2.779	n/a	5.0	GoodResponse	0	0.019	480.288	5	50	Feedback	Neutral	True
482.719	2.779	Control	0.6862999999999999	n/a	Yes	2.779	n/a	n/a	GoodResponse	0	0.0	n/a	5	50	ISIslide	Neutral	True
485.518	0.25	Control	0.6731	0.0	No	2.732	0.018	n/a	LatePress	0	n/a	n/a	5	51	Cue	Neutral	True
485.768	3.95	Control	0.6731	0.0	No	2.732	0.0	n/a	LatePress	0	n/a	n/a	5	51	Fixation	Neutral	True
489.716	0.24	Control	0.6731	0.002	No	2.732	-0.002	2.0	LatePress	0	0.243	488.959	5	51	Target	Neutral	True
489.959	0.3	Control	0.6731	0.002	No	2.732	-0.002	2.0	LatePress	0	0.243	n/a	5	51	ButtonPress	Neutral	True
489.966	0.46	Control	0.6731	n/a	No	2.732	n/a	n/a	LatePress	0	n/a	n/a	5	51	Blank	Neutral	True
490.416	1.45	Control	0.6731	n/a	No	2.732	n/a	5.0	LatePress	0	0.043	489.459	5	51	Feedback	Neutral	True
491.866	2.732	Control	0.6731	n/a	No	2.732	n/a	n/a	LatePress	0	0.0	n/a	5	51	ISIslide	Neutral	True
494.615	0.25	Control	0.6604000000000001	0.0	No	2.635	0.015	n/a	PrematurePress	0	n/a	n/a	5	52	Cue	Neutral	True
494.864	4.05	Control	0.6604000000000001	0.001	No	2.635	-0.001	n/a	PrematurePress	0	n/a	n/a	5	52	Fixation	Neutral	True
498.913	0.23	Control	0.6604000000000001	0.002	No	2.635	-0.002	2.0	PrematurePress	0	0.011	497.924	5	52	Target	Neutral	True
498.924	0.3	Control	0.6604000000000001	0.002	No	2.635	-0.002	2.0	PrematurePress	0	0.011	n/a	5	52	ButtonPress	Neutral	True
499.146	0.47	Control	0.6604000000000001	n/a	No	2.635	n/a	n/a	PrematurePress	0	n/a	n/a	5	52	Blank	Neutral	True
499.613	1.45	Control	0.6604000000000001	n/a	No	2.635	n/a	5.0	PrematurePress	0	0.015	498.628	5	52	Feedback	Neutral	True
501.062	2.635	Control	0.6604000000000001	n/a	No	2.635	n/a	n/a	PrematurePress	0	0.0	n/a	5	52	ISIslide	Neutral	True
503.728	0.25	Win2	0.6667000000000001	0.0	Yes	2.922	0.028	n/a	GoodResponse	1	n/a	n/a	6	53	Cue	Win	True
503.978	4.05	Win2	0.6667000000000001	0.0	Yes	2.922	0.0	n/a	GoodResponse	1	n/a	n/a	6	53	Fixation	Win	True
508.027	0.23	Win2	0.6667000000000001	0.001	Yes	2.922	-0.001	2.0	GoodResponse	1	0.202	507.229	6	53	Target	Win	True
508.229	0.3	Win2	0.6667000000000001	0.001	Yes	2.922	-0.001	2.0	GoodResponse	1	0.202	n/a	6	53	ButtonPress	Win	True
508.26	0.47	Win2	0.6667000000000001	n/a	Yes	2.922	n/a	n/a	GoodResponse	1	n/a	n/a	6	53	Blank	Win	True
508.726	1.45	Win2	0.6667000000000001	n/a	Yes	2.922	n/a	5.0	GoodResponse	1	0.024	507.75	6	53	Feedback	Win	True
510.176	2.922	Win2	0.6667000000000001	n/a	Yes	2.922	n/a	n/a	GoodResponse	1	0.0	n/a	6	53	ISIslide	Win	True
513.125	0.25	Win2	0.6545000000000001	0.0	No	2.725	0.025	n/a	NoResponse	0	n/a	n/a	6	54	Cue	MissedWin	True
513.375	3.95	Win2	0.6545000000000001	0.0	No	2.725	0.0	n/a	NoResponse	0	n/a	n/a	6	54	Fixation	MissedWin	True
517.323	0.22	Win2	0.6545000000000001	0.002	No	2.725	-0.002	2.0	NoResponse	0	0.239	516.562	6	54	Target	MissedWin	True
517.556	0.48	Win2	0.6545000000000001	n/a	No	2.725	n/a	n/a	NoResponse	0	n/a	n/a	6	54	Blank	MissedWin	True
517.562	0.3	Win2	0.6545000000000001	0.002	No	2.725	-0.002	2.0	NoResponse	0	0.239	n/a	6	54	ButtonPress	MissedWin	True
518.023	1.45	Win2	0.6545000000000001	n/a	No	2.725	n/a	5.0	NoResponse	0	0.045	517.068	6	54	Feedback	MissedWin	True
519.472	2.725	Win2	0.6545000000000001	n/a	No	2.725	n/a	n/a	NoResponse	0	0.0	n/a	6	54	ISIslide	MissedWin	True
522.222	0.25	Control	0.6429	0.0	No	3.028	0.022	n/a	NoResponse	0	n/a	n/a	6	55	Cue	Neutral	True
522.471	3.95	Control	0.6429	0.001	No	3.028	-0.001	n/a	NoResponse	0	n/a	n/a	6	55	Fixation	Neutral	True
526.42	0.23	Control	0.6429	0.002	No	3.028	-0.002	2.0	NoResponse	0	0.279	525.699	6	55	Target	Neutral	True
526.653	0.47	Control	0.6429	n/a	No	3.028	n/a	n/a	NoResponse	0	n/a	n/a	6	55	Blank	Neutral	True
526.699	0.3	Control	0.6429	0.002	No	3.028	-0.002	2.0	NoResponse	0	0.279	n/a	6	55	ButtonPress	Neutral	True
527.12	1.45	Control	0.6429	n/a	No	3.028	n/a	5.0	NoResponse	0	0.021	526.141	6	55	Feedback	Neutral	True
528.569	3.028	Control	0.6429	n/a	No	3.028	n/a	n/a	NoResponse	0	0.0	n/a	6	55	ISIslide	Neutral	True
531.618	0.25	Control	0.6315999999999999	0.0	No	2.832	0.018	n/a	LatePress	0	n/a	n/a	6	56	Cue	Neutral	True
531.868	3.95	Control	0.6315999999999999	0.0	No	2.832	0.0	n/a	LatePress	0	n/a	n/a	6	56	Fixation	Neutral	True
535.817	0.24	Control	0.6315999999999999	0.001	No	2.832	-0.001	2.0	LatePress	0	0.25	535.067	6	56	Target	Neutral	True
536.067	0.46	Control	0.6315999999999999	n/a	No	2.832	n/a	n/a	LatePress	0	n/a	n/a	6	56	Blank	Neutral	True
536.067	0.3	Control	0.6315999999999999	0.001	No	2.832	-0.001	2.0	LatePress	0	0.25	n/a	6	56	ButtonPress	Neutral	True
536.516	1.45	Control	0.6315999999999999	n/a	No	2.832	n/a	5.0	LatePress	0	0.04	535.556	6	56	Feedback	Neutral	True
537.966	2.832	Control	0.6315999999999999	n/a	No	2.832	n/a	n/a	LatePress	0	0.0	n/a	6	56	ISIslide	Neutral	True
540.815	0.25	Control	0.6379	0.0	Yes	3.485	0.015	n/a	GoodResponse	0	n/a	n/a	6	57	Cue	Neutral	True
541.065	4.0	Control	0.6379	0.0	Yes	3.485	0.0	n/a	GoodResponse	0	n/a	n/a	6	57	Fixation	Neutral	True
545.063	0.25	Control	0.6379	0.002	Yes	3.485	-0.002	2.0	GoodResponse	0	0.208	544.271	6	57	Target	Neutral	True
545.271	0.3	Control	0.6379	0.002	Yes	3.485	-0.002	2.0	GoodResponse	0	0.208	n/a	6	57	ButtonPress	Neutral	True
545.313	0.45	Control	0.6379	n/a	Yes	3.485	n/a	n/a	GoodResponse	0	n/a	n/a	6	57	Blank	Neutral	True
545.763	1.45	Control	0.6379	n/a	Yes	3.485	n/a	5.0	GoodResponse	0	0.011	544.774	6	57	Feedback	Neutral	True
547.213	3.485	Control	0.6379	n/a	Yes	3.485	n/a	n/a	GoodResponse	0	0.0	n/a	6	57	ISIslide	Neutral	True
550.711	0.25	Win2	0.6441	0.001	Yes	2.739	0.011	n/a	GoodResponse	1	n/a	n/a	7	58	Cue	Win	True
550.961	4.05	Win2	0.6441	0.0	Yes	2.739	0.0	n/a	GoodResponse	1	n/a	n/a	7	58	Fixation	Win	True
555.01	0.26	Win2	0.6441	0.001	Yes	2.739	-0.001	2.0	GoodResponse	1	0.249	554.259	7	58	Target	Win	True
555.259	0.3	Win2	0.6441	0.001	Yes	2.739	-0.001	2.0	GoodResponse	1	0.249	n/a	7	58	ButtonPress	Win	True
555.277	0.44	Win2	0.6441	n/a	Yes	2.739	n/a	n/a	GoodResponse	1	n/a	n/a	7	58	Blank	Win	True
555.71	1.45	Win2	0.6441	n/a	Yes	2.739	n/a	5.0	GoodResponse	1	0.016	554.726	7	58	Feedback	Win	True
557.159	2.739	Win2	0.6441	n/a	Yes	2.739	n/a	n/a	GoodResponse	1	0.0	n/a	7	58	ISIslide	Win	True
559.925	0.25	Lose2	0.65	0.0	Yes	2.675	0.025	n/a	GoodResponse	0	n/a	n/a	7	59	Cue	AvoidedLoss	True
560.175	4.0	Lose2	0.65	0.0	Yes	2.675	0.0	n/a	GoodResponse	0	n/a	n/a	7	59	Fixation	AvoidedLoss	True
564.173	0.27	Lose2	0.65	0.002	Yes	2.675	-0.002	2.0	GoodResponse	0	0.257	563.43	7	59	Target	AvoidedLoss	True
564.43	0.3	Lose2	0.65	0.002	Yes	2.675	-0.002	2.0	GoodResponse	0	0.257	n/a	7	59	ButtonPress	AvoidedLoss	True
564.457	0.43	Lose2	0.65	n/a	Yes	2.675	n/a	n/a	GoodResponse	0	n/a	n/a	7	59	Blank	AvoidedLoss	True
564.873	1.45	Lose2	0.65	n/a	Yes	2.675	n/a	5.0	GoodResponse	0	0.024	563.897	7	59	Feedback	AvoidedLoss	True
566.323	2.675	Lose2	0.65	n/a	Yes	2.675	n/a	n/a	GoodResponse	0	0.0	n/a	7	59	ISIslide	AvoidedLoss	True
569.022	0.25	Control	0.6557	0.0	Yes	2.678	0.022	n/a	GoodResponse	0	n/a	n/a	7	60	Cue	Neutral	True
569.272	4.0	Control	0.6557	0.0	Yes	2.678	0.0	n/a	GoodResponse	0	n/a	n/a	7	60	Fixation	Neutral	True
573.27	0.28	Control	0.6557	0.002	Yes	2.678	-0.002	2.0	GoodResponse	0	0.237	572.507	7	60	Target	Neutral	True
573.507	0.3	Control	0.6557	0.002	Yes	2.678	-0.002	2.0	GoodResponse	0	0.237	n/a	7	60	ButtonPress	Neutral	True
573.553	0.42	Control	0.6557	n/a	Yes	2.678	n/a	n/a	GoodResponse	0	n/a	n/a	7	60	Blank	Neutral	True
573.97	1.45	Control	0.6557	n/a	Yes	2.678	n/a	5.0	GoodResponse	0	0.049	573.019	7	60	Feedback	Neutral	True
575.419	2.678	Control	0.6557	n/a	Yes	2.678	n/a	n/a	GoodResponse	0	0.0	n/a	7	60	ISIslide	Neutral	True
578.118	0.25	Lose2	0.6613	0.001	Yes	2.982	0.018	n/a	GoodResponse	0	n/a	n/a	7	61	Cue	AvoidedLoss	True
578.368	4.0	Lose2	0.6613	0.0	Yes	2.982	0.0	n/a	GoodResponse	0	n/a	n/a	7	61	Fixation	AvoidedLoss	True
582.367	0.28	Lose2	0.6613	0.001	Yes	2.982	-0.001	2.0	GoodResponse	0	0.23	581.597	7	61	Target	AvoidedLoss	True
582.597	0.3	Lose2	0.6613	0.001	Yes	2.982	-0.001	2.0	GoodResponse	0	0.23	n/a	7	61	ButtonPress	AvoidedLoss	True
582.65	0.42	Lose2	0.6613	n/a	Yes	2.982	n/a	n/a	GoodResponse	0	n/a	n/a	7	61	Blank	AvoidedLoss	True
583.067	1.45	Lose2	0.6613	n/a	Yes	2.982	n/a	5.0	GoodResponse	0	0.025	582.092	7	61	Feedback	AvoidedLoss	True
584.516	2.982	Lose2	0.6613	n/a	Yes	2.982	n/a	n/a	GoodResponse	0	0.0	n/a	7	61	ISIslide	AvoidedLoss	True
587.515	0.25	Lose2	0.6667000000000001	0.0	Yes	2.885	0.015	n/a	GoodResponse	0	n/a	n/a	7	62	Cue	AvoidedLoss	True
587.765	3.9	Lose2	0.6667000000000001	0.0	Yes	2.885	0.0	n/a	GoodResponse	0	n/a	n/a	7	62	Fixation	AvoidedLoss	True
591.664	0.28	Lose2	0.6667000000000001	0.001	Yes	2.885	-0.001	2.0	GoodResponse	0	0.21	590.874	7	62	Target	AvoidedLoss	True
591.874	0.3	Lose2	0.6667000000000001	0.001	Yes	2.885	-0.001	2.0	GoodResponse	0	0.21	n/a	7	62	ButtonPress	AvoidedLoss	True
591.947	0.42	Lose2	0.6667000000000001	n/a	Yes	2.885	n/a	n/a	GoodResponse	0	n/a	n/a	7	62	Blank	AvoidedLoss	True
592.363	1.45	Lose2	0.6667000000000001	n/a	Yes	2.885	n/a	5.0	GoodResponse	0	0.045	591.408	7	62	Feedback	AvoidedLoss	True
593.813	2.885	Lose2	0.6667000000000001	n/a	Yes	2.885	n/a	n/a	GoodResponse	0	0.0	n/a	7	62	ISIslide	AvoidedLoss	True
596.712	0.25	Lose2	0.6718999999999999	0.0	Yes	2.638	0.012	n/a	GoodResponse	0	n/a	n/a	7	63	Cue	AvoidedLoss	True
596.962	4.05	Lose2	0.6718999999999999	0.0	Yes	2.638	0.0	n/a	GoodResponse	0	n/a	n/a	7	63	Fixation	AvoidedLoss	True
601.01	0.27	Lose2	0.6718999999999999	0.002	Yes	2.638	-0.002	2.0	GoodResponse	0	0.241	600.251	7	63	Target	AvoidedLoss	True
601.251	0.3	Lose2	0.6718999999999999	0.002	Yes	2.638	-0.002	2.0	GoodResponse	0	0.241	n/a	7	63	ButtonPress	AvoidedLoss	True
601.294	0.43	Lose2	0.6718999999999999	n/a	Yes	2.638	n/a	n/a	GoodResponse	0	n/a	n/a	7	63	Blank	AvoidedLoss	True
601.71	1.45	Lose2	0.6718999999999999	n/a	Yes	2.638	n/a	5.0	GoodResponse	0	0.015	600.725	7	63	Feedback	AvoidedLoss	True
603.16	2.638	Lose2	0.6718999999999999	n/a	Yes	2.638	n/a	n/a	GoodResponse	0	0.0	n/a	7	63	ISIslide	AvoidedLoss	True
605.825	0.25	Win2	0.6615000000000001	0.0	No	3.125	0.025	n/a	NoResponse	0	n/a	n/a	7	64	Cue	MissedWin	True
606.075	4.15	Win2	0.6615000000000001	0.0	No	3.125	0.0	n/a	NoResponse	0	n/a	n/a	7	64	Fixation	MissedWin	True
610.224	0.26	Win2	0.6615000000000001	0.001	No	3.125	-0.001	2.0	NoResponse	0	0.396	609.62	7	64	Target	MissedWin	True
610.49	0.44	Win2	0.6615000000000001	n/a	No	3.125	n/a	n/a	NoResponse	0	n/a	n/a	7	64	Blank	MissedWin	True
610.62	0.3	Win2	0.6615000000000001	0.001	No	3.125	-0.001	2.0	NoResponse	0	0.396	n/a	7	64	ButtonPress	MissedWin	True
610.924	1.45	Win2	0.6615000000000001	n/a	No	3.125	n/a	5.0	NoResponse	0	0.021	609.945	7	64	Feedback	MissedWin	True
612.373	3.125	Win2	0.6615000000000001	n/a	No	3.125	n/a	n/a	NoResponse	0	0.0	n/a	7	64	ISIslide	MissedWin	True
615.522	0.25	Control	0.6667000000000001	0.0	Yes	2.778	0.022	n/a	GoodResponse	0	n/a	n/a	7	65	Cue	Neutral	True
615.772	4.0	Control	0.6667000000000001	0.0	Yes	2.778	0.0	n/a	GoodResponse	0	n/a	n/a	7	65	Fixation	Neutral	True
619.77	0.26	Control	0.6667000000000001	0.002	Yes	2.778	-0.002	2.0	GoodResponse	0	0.209	618.979	7	65	Target	Neutral	True
619.979	0.3	Control	0.6667000000000001	0.002	Yes	2.778	-0.002	2.0	GoodResponse	0	0.209	n/a	7	65	ButtonPress	Neutral	True
620.037	0.44	Control	0.6667000000000001	n/a	Yes	2.778	n/a	n/a	GoodResponse	0	n/a	n/a	7	65	Blank	Neutral	True
620.47	1.45	Control	0.6667000000000001	n/a	Yes	2.778	n/a	5.0	GoodResponse	0	0.036	619.506	7	65	Feedback	Neutral	True
621.92	2.778	Control	0.6667000000000001	n/a	Yes	2.778	n/a	n/a	GoodResponse	0	0.0	n/a	7	65	ISIslide	Neutral	True
624.719	0.25	Win2	0.6716	0.0	Yes	2.781	0.019	n/a	GoodResponse	1	n/a	n/a	8	66	Cue	Win	True
624.969	3.9	Win2	0.6716	0.0	Yes	2.781	0.0	n/a	GoodResponse	1	n/a	n/a	8	66	Fixation	Win	True
628.867	0.25	Win2	0.6716	0.002	Yes	2.781	-0.002	2.0	GoodResponse	1	0.184	628.051	8	66	Target	Win	True
629.051	0.3	Win2	0.6716	0.002	Yes	2.781	-0.002	2.0	GoodResponse	1	0.184	n/a	8	66	ButtonPress	Win	True
629.117	0.45	Win2	0.6716	n/a	Yes	2.781	n/a	n/a	GoodResponse	1	n/a	n/a	8	66	Blank	Win	True
629.567	1.45	Win2	0.6716	n/a	Yes	2.781	n/a	5.0	GoodResponse	1	0.011	628.578	8	66	Feedback	Win	True
631.017	2.781	Win2	0.6716	n/a	Yes	2.781	n/a	n/a	GoodResponse	1	0.0	n/a	8	66	ISIslide	Win	True
633.816	0.25	Control	0.6765000000000001	0.0	Yes	2.734	0.016	n/a	GoodResponse	0	n/a	n/a	8	67	Cue	Neutral	True
634.065	3.95	Control	0.6765000000000001	0.001	Yes	2.734	-0.001	n/a	GoodResponse	0	n/a	n/a	8	67	Fixation	Neutral	True
638.014	0.24	Control	0.6765000000000001	0.002	Yes	2.734	-0.002	2.0	GoodResponse	0	0.201	637.215	8	67	Target	Neutral	True
638.215	0.3	Control	0.6765000000000001	0.002	Yes	2.734	-0.002	2.0	GoodResponse	0	0.201	n/a	8	67	ButtonPress	Neutral	True
638.264	0.46	Control	0.6765000000000001	n/a	Yes	2.734	n/a	n/a	GoodResponse	0	n/a	n/a	8	67	Blank	Neutral	True
638.714	1.45	Control	0.6765000000000001	n/a	Yes	2.734	n/a	5.0	GoodResponse	0	0.035	637.749	8	67	Feedback	Neutral	True
640.163	2.734	Control	0.6765000000000001	n/a	Yes	2.734	n/a	n/a	GoodResponse	0	0.0	n/a	8	67	ISIslide	Neutral	True
642.912	0.25	Win2	0.6667000000000001	0.0	No	3.088	0.012	n/a	NoResponse	0	n/a	n/a	8	68	Cue	MissedWin	True
643.162	4.0	Win2	0.6667000000000001	0.0	No	3.088	0.0	n/a	NoResponse	0	n/a	n/a	8	68	Fixation	MissedWin	True
647.161	0.23	Win2	0.6667000000000001	0.001	No	3.088	-0.001	2.0	NoResponse	0	0.253	646.414	8	68	Target	MissedWin	True
647.394	0.47	Win2	0.6667000000000001	n/a	No	3.088	n/a	n/a	NoResponse	0	n/a	n/a	8	68	Blank	MissedWin	True
647.414	0.3	Win2	0.6667000000000001	0.001	No	3.088	-0.001	2.0	NoResponse	0	0.253	n/a	8	68	ButtonPress	MissedWin	True
647.861	1.45	Win2	0.6667000000000001	n/a	No	3.088	n/a	5.0	NoResponse	0	0.01	646.871	8	68	Feedback	MissedWin	True
649.31	3.088	Win2	0.6667000000000001	n/a	No	3.088	n/a	n/a	NoResponse	0	0.0	n/a	8	68	ISIslide	MissedWin	True
652.426	0.25	Win2	0.6714	0.0	Yes	3.224	0.026	n/a	GoodResponse	1	n/a	n/a	9	69	Cue	Win	True
652.676	3.95	Win2	0.6714	0.0	Yes	3.224	0.0	n/a	GoodResponse	1	n/a	n/a	9	69	Fixation	Win	True
656.624	0.22	Win2	0.6714	0.002	Yes	3.224	-0.002	2.0	GoodResponse	1	0.217	655.841	9	69	Target	Win	True
656.841	0.3	Win2	0.6714	0.002	Yes	3.224	-0.002	2.0	GoodResponse	1	0.217	n/a	9	69	ButtonPress	Win	True
656.857	0.48	Win2	0.6714	n/a	Yes	3.224	n/a	n/a	GoodResponse	1	n/a	n/a	9	69	Blank	Win	True
657.324	1.45	Win2	0.6714	n/a	Yes	3.224	n/a	5.0	GoodResponse	1	0.011	656.335	9	69	Feedback	Win	True
658.773	3.224	Win2	0.6714	n/a	Yes	3.224	n/a	n/a	GoodResponse	1	0.0	n/a	9	69	ISIslide	Win	True
662.022	0.25	Lose2	0.6761	0.0	Yes	3.028	0.022	n/a	GoodResponse	0	n/a	n/a	9	70	Cue	AvoidedLoss	True
662.272	4.05	Lose2	0.6761	0.0	Yes	3.028	0.0	n/a	GoodResponse	0	n/a	n/a	9	70	Fixation	AvoidedLoss	True
666.321	0.21	Lose2	0.6761	0.001	Yes	3.028	-0.001	2.0	GoodResponse	0	0.203	665.524	9	70	Target	AvoidedLoss	True
666.524	0.3	Lose2	0.6761	0.001	Yes	3.028	-0.001	2.0	GoodResponse	0	0.203	n/a	9	70	ButtonPress	AvoidedLoss	True
666.537	0.49	Lose2	0.6761	n/a	Yes	3.028	n/a	n/a	GoodResponse	0	n/a	n/a	9	70	Blank	AvoidedLoss	True
667.021	1.45	Lose2	0.6761	n/a	Yes	3.028	n/a	5.0	GoodResponse	0	0.021	666.042	9	70	Feedback	AvoidedLoss	True
668.47	3.028	Lose2	0.6761	n/a	Yes	3.028	n/a	n/a	GoodResponse	0	0.0	n/a	9	70	ISIslide	AvoidedLoss	True
671.519	0.25	Win2	0.6806	0.0	Yes	2.731	0.019	n/a	GoodResponse	1	n/a	n/a	10	71	Cue	Win	True
671.769	4.05	Win2	0.6806	0.0	Yes	2.731	0.0	n/a	GoodResponse	1	n/a	n/a	10	71	Fixation	Win	True
675.817	0.2	Win2	0.6806	0.002	Yes	2.731	-0.002	2.0	GoodResponse	1	0.183	675.0	10	71	Target	Win	True
676	0.3	Win2	0.6806	0.002	Yes	2.731	-0.002	2.0	GoodResponse	1	0.183	n/a	10	71	ButtonPress	Win	True
676.017	0.5	Win2	0.6806	n/a	Yes	2.731	n/a	n/a	GoodResponse	1	n/a	n/a	10	71	Blank	Win	True
676.517	1.45	Win2	0.6806	n/a	Yes	2.731	n/a	5.0	GoodResponse	1	0.036	675.553	10	71	Feedback	Win	True
677.967	2.731	Win2	0.6806	n/a	Yes	2.731	n/a	n/a	GoodResponse	1	0.0	n/a	10	71	ISIslide	Win	True
680.716	0.25	Win2	0.6712	0.0	No	2.784	0.016	n/a	NoResponse	0	n/a	n/a	10	72	Cue	MissedWin	False
680.966	4.1	Win2	0.6712	0.0	No	2.784	0.0	2.0	NoResponse	0	3.962	683.928	10	72	Fixation	MissedWin	False
684.928	0.3	Win2	0.6712	0.0	No	2.784	0.0	2.0	NoResponse	0	3.962	n/a	10	72	ButtonPress	MissedWin	False
685.064	0.19	Win2	0.6712	0.002	No	2.784	-0.002	2.0	NoResponse	0	0.283	684.347	10	72	Target	MissedWin	False
685.264	0.51	Win2	0.6712	n/a	No	2.784	n/a	n/a	NoResponse	0	n/a	n/a	10	72	Blank	MissedWin	False
685.347	0.3	Win2	0.6712	0.002	No	2.784	-0.002	2.0	NoResponse	0	0.283	n/a	10	72	ButtonPress	MissedWin	False
685.764	1.45	Win2	0.6712	n/a	No	2.784	n/a	5.0	NoResponse	0	0.009	684.773	10	72	Feedback	MissedWin	False
687.213	2.784	Win2	0.6712	n/a	No	2.784	n/a	n/a	NoResponse	0	0.0	n/a	10	72	ISIslide	MissedWin	False
690.012	0.25	Win2	0.6622	0.0	No	2.688	0.012	n/a	NoResponse	0	n/a	n/a	10	73	Cue	MissedWin	True
690.262	4.0	Win2	0.6622	0.0	No	2.688	0.0	n/a	NoResponse	0	n/a	n/a	10	73	Fixation	MissedWin	True
694.261	0.18	Win2	0.6622	0.001	No	2.688	-0.001	2.0	NoResponse	0	0.218	693.479	10	73	Target	MissedWin	True
694.444	0.52	Win2	0.6622	n/a	No	2.688	n/a	n/a	NoResponse	0	n/a	n/a	10	73	Blank	MissedWin	True
694.479	0.3	Win2	0.6622	0.001	No	2.688	-0.001	2.0	NoResponse	0	0.218	n/a	10	73	ButtonPress	MissedWin	True
694.961	1.45	Win2	0.6622	n/a	No	2.688	n/a	5.0	NoResponse	0	0.032	693.993	10	73	Feedback	MissedWin	True
696.41	2.688	Win2	0.6622	n/a	No	2.688	n/a	n/a	NoResponse	0	0.0	n/a	10	73	ISIslide	MissedWin	True
699.126	0.25	Lose2	0.6533	0.0	No	2.624	0.026	n/a	NoResponse	-1	n/a	n/a	9	74	Cue	Loss	True
699.376	4.05	Lose2	0.6533	0.0	No	2.624	0.0	n/a	NoResponse	-1	n/a	n/a	9	74	Fixation	Loss	True
703.424	0.18	Lose2	0.6533	0.002	No	2.624	-0.002	2.0	NoResponse	-1	0.322	702.746	9	74	Target	Loss	True
703.608	0.52	Lose2	0.6533	n/a	No	2.624	n/a	n/a	NoResponse	-1	n/a	n/a	9	74	Blank	Loss	True
703.746	0.3	Lose2	0.6533	0.002	No	2.624	-0.002	2.0	NoResponse	-1	0.322	n/a	9	74	ButtonPress	Loss	True
704.124	1.45	Lose2	0.6533	n/a	No	2.624	n/a	5.0	NoResponse	-1	0.04	703.164	9	74	Feedback	Loss	True
705.574	2.624	Lose2	0.6533	n/a	No	2.624	n/a	n/a	NoResponse	-1	0.0	n/a	9	74	ISIslide	Loss	True
708.223	0.25	Lose2	0.6446999999999999	0.0	No	2.927	0.023	n/a	NoResponse	-1	n/a	n/a	8	75	Cue	Loss	True
708.473	3.95	Lose2	0.6446999999999999	0.0	No	2.927	0.0	n/a	NoResponse	-1	n/a	n/a	8	75	Fixation	Loss	True
712.421	0.19	Lose2	0.6446999999999999	0.002	No	2.927	-0.002	2.0	NoResponse	-1	0.269	711.69	8	75	Target	Loss	True
712.621	0.51	Lose2	0.6446999999999999	n/a	No	2.927	n/a	n/a	NoResponse	-1	n/a	n/a	8	75	Blank	Loss	True
712.69	0.3	Lose2	0.6446999999999999	0.002	No	2.927	-0.002	2.0	NoResponse	-1	0.269	n/a	8	75	ButtonPress	Loss	True
713.121	1.45	Lose2	0.6446999999999999	n/a	No	2.927	n/a	5.0	NoResponse	-1	0.017	712.138	8	75	Feedback	Loss	True
714.57	2.927	Lose2	0.6446999999999999	n/a	No	2.927	n/a	n/a	NoResponse	-1	0.0	n/a	8	75	ISIslide	Loss	True
717.519	0.25	Control	0.6364	0.0	No	3.231	0.019	n/a	NoResponse	0	n/a	n/a	8	76	Cue	Neutral	True
717.769	4.05	Control	0.6364	0.0	No	3.231	0.0	2.0	NoResponse	0	4.023	720.792	8	76	Fixation	Neutral	True
721.792	0.3	Control	0.6364	0.0	No	3.231	0.0	2.0	NoResponse	0	4.023	n/a	8	76	ButtonPress	Neutral	True
721.818	0.2	Control	0.6364	0.001	No	3.231	-0.001	n/a	NoResponse	0	n/a	n/a	8	76	Target	Neutral	True
722.018	0.5	Control	0.6364	n/a	No	3.231	n/a	n/a	NoResponse	0	n/a	n/a	8	76	Blank	Neutral	True
722.518	1.45	Control	0.6364	n/a	No	3.231	n/a	5.0	NoResponse	0	0.035	721.553	8	76	Feedback	Neutral	True
723.967	3.231	Control	0.6364	n/a	No	3.231	n/a	n/a	NoResponse	0	0.0	n/a	8	76	ISIslide	Neutral	True
727.216	0.25	Lose2	0.6282	0.0	No	2.584	0.016	n/a	NoResponse	-1	n/a	n/a	7	77	Cue	Loss	True
727.466	3.95	Lose2	0.6282	0.0	No	2.584	0.0	n/a	NoResponse	-1	n/a	n/a	7	77	Fixation	Loss	True
731.414	0.21	Lose2	0.6282	0.002	No	2.584	-0.002	2.0	NoResponse	-1	0.225	730.639	7	77	Target	Loss	True
731.631	0.49	Lose2	0.6282	n/a	No	2.584	n/a	n/a	NoResponse	-1	n/a	n/a	7	77	Blank	Loss	True
731.639	0.3	Lose2	0.6282	0.002	No	2.584	-0.002	2.0	NoResponse	-1	0.225	n/a	7	77	ButtonPress	Loss	True
732.114	1.45	Lose2	0.6282	n/a	No	2.584	n/a	5.0	NoResponse	-1	0.001	731.115	7	77	Feedback	Loss	True
733.564	2.584	Lose2	0.6282	n/a	No	2.584	n/a	n/a	NoResponse	-1	0.0	n/a	7	77	ISIslide	Loss	True
