onset	duration	cue_type	current_mean_accuracy	duration_error	is_hit	isi_adjusted	onset_delay	response	response_type	reward	rt	rt_time	total_reward	trial_number	trial_phase	trial_type	one_press
11.103	0.25	Control	1.0	0.0	Yes	2.947	0.003	n/a	GoodResponse	0	n/a	n/a	0	0	Cue	Neutral	True
11.353	3.85	Control	1.0	0.001	Yes	2.947	0.0	n/a	GoodResponse	0	n/a	n/a	0	0	Fixation	Neutral	True
15.215	0.4	Control	1.0	0.0	Yes	2.947	0.012	4.0	GoodResponse	0	0.227	14.442	0	0	Target	Neutral	True
15.442	0.3	Control	1.0	0.0	Yes	2.947	0.012	4.0	GoodResponse	0	0.227	n/a	0	0	ButtonPress	Neutral	True
15.6	0.3	Control	1.0	n/a	Yes	2.947	n/a	n/a	GoodResponse	0	n/a	n/a	0	0	Blank	Neutral	True
15.9	1.45	Control	1.0	n/a	Yes	2.947	n/a	5.0	GoodResponse	0	0.027	14.927	0	0	Feedback	Neutral	True
17.355	2.947	Control	1.0	n/a	Yes	2.947	n/a	n/a	GoodResponse	0	0.0	n/a	0	0	ISIslide	Neutral	True
20.314	0.25	Lose2	1.0	0.0	Yes	2.786	0.014	n/a	GoodResponse	0	n/a	n/a	0	1	Cue	AvoidedLoss	True
20.564	4.0	Lose2	1.0	0.001	Yes	2.786	0.0	n/a	GoodResponse	0	n/a	n/a	0	1	Fixation	AvoidedLoss	True
24.56	0.39	Lose2	1.0	0.004	Yes	2.786	-0.004	4.0	GoodResponse	0	0.105	23.665	0	1	Target	AvoidedLoss	True
24.665	0.3	Lose2	1.0	0.004	Yes	2.786	-0.004	4.0	GoodResponse	0	0.105	n/a	0	1	ButtonPress	AvoidedLoss	True
24.961	0.31	Lose2	1.0	n/a	Yes	2.786	n/a	n/a	GoodResponse	0	n/a	n/a	0	1	Blank	AvoidedLoss	True
25.262	1.45	Lose2	1.0	n/a	Yes	2.786	n/a	5.0	GoodResponse	0	0.031	24.293	0	1	Feedback	AvoidedLoss	True
26.716	2.786	Lose2	1.0	n/a	Yes	2.786	n/a	n/a	GoodResponse	0	0.0	n/a	0	1	ISIslide	AvoidedLoss	True
29.525	0.25	Control	1.0	0.0	Yes	2.575	0.025	n/a	GoodResponse	0	n/a	n/a	0	2	Cue	Neutral	True
29.775	4.1	Control	1.0	0.0	Yes	2.575	0.0	n/a	GoodResponse	0	n/a	n/a	0	2	Fixation	Neutral	True
33.871	0.38	Control	1.0	0.004	Yes	2.575	-0.004	4.0	GoodResponse	0	0.208	33.079	0	2	Target	Neutral	True
34.079	0.3	Control	1.0	0.004	Yes	2.575	-0.004	4.0	GoodResponse	0	0.208	n/a	0	2	ButtonPress	Neutral	True
34.255	0.32	Control	1.0	n/a	Yes	2.575	n/a	n/a	GoodResponse	0	n/a	n/a	0	2	Blank	Neutral	True
34.573	1.45	Control	1.0	n/a	Yes	2.575	n/a	5.0	GoodResponse	0	0.037	33.61	0	2	Feedback	Neutral	True
36.027	2.575	Control	1.0	n/a	Yes	2.575	n/a	n/a	GoodResponse	0	0.0	n/a	0	2	ISIslide	Neutral	True
38.619	0.25	Win2	1.0	0.0	Yes	2.831	0.019	n/a	GoodResponse	1	n/a	n/a	1	3	Cue	Win	True
38.869	3.95	Win2	1.0	0.0	Yes	2.831	0.0	n/a	GoodResponse	1	n/a	n/a	1	3	Fixation	Win	True
42.831	0.37	Win2	1.0	0.0	Yes	2.831	0.012	4.0	GoodResponse	1	0.206	42.037	1	3	Target	Win	True
43.037	0.3	Win2	1.0	0.0	Yes	2.831	0.012	4.0	GoodResponse	1	0.206	n/a	1	3	ButtonPress	Win	True
43.199	0.33	Win2	1.0	n/a	Yes	2.831	n/a	n/a	GoodResponse	1	n/a	n/a	1	3	Blank	Win	True
43.517	1.45	Win2	1.0	n/a	Yes	2.831	n/a	5.0	GoodResponse	1	0.019	42.536	1	3	Feedback	Win	True
44.971	2.831	Win2	1.0	n/a	Yes	2.831	n/a	n/a	GoodResponse	1	0.0	n/a	1	3	ISIslide	Win	True
47.829	0.25	Win2	1.0	0.001	Yes	3.271	0.029	n/a	GoodResponse	1	n/a	n/a	2	4	Cue	Win	True
48.08	4.0	Win2	1.0	0.0	Yes	3.271	0.001	n/a	GoodResponse	1	n/a	n/a	2	4	Fixation	Win	True
52.076	0.36	Win2	1.0	0.003	Yes	3.271	-0.003	4.0	GoodResponse	1	0.201	51.277	2	4	Target	Win	True
52.277	0.3	Win2	1.0	0.003	Yes	3.271	-0.003	4.0	GoodResponse	1	0.201	n/a	2	4	ButtonPress	Win	True
52.443	0.34	Win2	1.0	n/a	Yes	3.271	n/a	n/a	GoodResponse	1	n/a	n/a	2	4	Blank	Win	True
52.778	1.45	Win2	1.0	n/a	Yes	3.271	n/a	5.0	GoodResponse	1	0.026	51.804	2	4	Feedback	Win	True
54.232	3.271	Win2	1.0	n/a	Yes	3.271	n/a	n/a	GoodResponse	1	0.0	n/a	2	4	ISIslide	Win	True
57.525	0.25	Win2	1.0	0.0	Yes	2.775	0.025	n/a	GoodResponse	1	n/a	n/a	3	5	Cue	Win	True
57.776	4.0	Win2	1.0	0.0	Yes	2.775	0.001	n/a	GoodResponse	1	n/a	n/a	3	5	Fixation	Win	True
61.771	0.35	Win2	1.0	0.004	Yes	2.775	-0.004	4.0	GoodResponse	1	0.189	60.96	3	5	Target	Win	True
61.96	0.3	Win2	1.0	0.004	Yes	2.775	-0.004	4.0	GoodResponse	1	0.189	n/a	3	5	ButtonPress	Win	True
62.122	0.35	Win2	1.0	n/a	Yes	2.775	n/a	n/a	GoodResponse	1	n/a	n/a	3	5	Blank	Win	True
62.473	1.45	Win2	1.0	n/a	Yes	2.775	n/a	5.0	GoodResponse	1	0.039	61.512	3	5	Feedback	Win	True
63.928	2.775	Win2	1.0	n/a	Yes	2.775	n/a	n/a	GoodResponse	1	0.0	n/a	3	5	ISIslide	Win	True
66.719	0.25	Lose2	1.0	0.0	Yes	2.731	0.019	n/a	GoodResponse	0	n/a	n/a	3	6	Cue	AvoidedLoss	True
66.97	3.95	Lose2	1.0	0.0	Yes	2.731	0.001	n/a	GoodResponse	0	n/a	n/a	3	6	Fixation	AvoidedLoss	True
70.915	0.34	Lose2	1.0	0.004	Yes	2.731	-0.004	4.0	GoodResponse	0	0.216	70.131	3	6	Target	AvoidedLoss	True
71.131	0.3	Lose2	1.0	0.004	Yes	2.731	-0.004	4.0	GoodResponse	0	0.216	n/a	3	6	ButtonPress	AvoidedLoss	True
71.266	0.36	Lose2	1.0	n/a	Yes	2.731	n/a	n/a	GoodResponse	0	n/a	n/a	3	6	Blank	AvoidedLoss	True
71.617	1.45	Lose2	1.0	n/a	Yes	2.731	n/a	5.0	GoodResponse	0	0.017	70.634	3	6	Feedback	AvoidedLoss	True
73.072	2.731	Lose2	1.0	n/a	Yes	2.731	n/a	n/a	GoodResponse	0	0.0	n/a	3	6	ISIslide	AvoidedLoss	True
75.813	0.25	Lose2	1.0	0.0	Yes	4.037	0.013	n/a	GoodResponse	0	n/a	n/a	3	7	Cue	AvoidedLoss	True
76.064	4.05	Lose2	1.0	0.0	Yes	4.037	0.001	n/a	GoodResponse	0	n/a	n/a	3	7	Fixation	AvoidedLoss	True
80.11	0.33	Lose2	1.0	0.003	Yes	4.037	-0.003	4.0	GoodResponse	0	0.212	79.322	3	7	Target	AvoidedLoss	True
80.322	0.3	Lose2	1.0	0.003	Yes	4.037	-0.003	4.0	GoodResponse	0	0.212	n/a	3	7	ButtonPress	AvoidedLoss	True
80.444	0.37	Lose2	1.0	n/a	Yes	4.037	n/a	n/a	GoodResponse	0	n/a	n/a	3	7	Blank	AvoidedLoss	True
80.812	1.45	Lose2	1.0	n/a	Yes	4.037	n/a	5.0	GoodResponse	0	0.041	79.853	3	7	Feedback	AvoidedLoss	True
82.266	4.037	Lose2	1.0	n/a	Yes	4.037	n/a	n/a	GoodResponse	0	0.0	n/a	3	7	ISIslide	AvoidedLoss	True
86.328	0.25	Lose2	1.0	0.0	Yes	3.022	0.028	n/a	GoodResponse	0	n/a	n/a	3	8	Cue	AvoidedLoss	True
86.579	3.95	Lose2	1.0	0.0	Yes	3.022	0.001	n/a	GoodResponse	0	n/a	n/a	3	8	Fixation	AvoidedLoss	True
90.524	0.32	Lose2	1.0	0.004	Yes	3.022	-0.004	4.0	GoodResponse	0	0.188	89.712	3	8	Target	AvoidedLoss	True
90.712	0.3	Lose2	1.0	0.004	Yes	3.022	-0.004	4.0	GoodResponse	0	0.188	n/a	3	8	ButtonPress	AvoidedLoss	True
90.858	0.38	Lose2	1.0	n/a	Yes	3.022	n/a	n/a	GoodResponse	0	n/a	n/a	3	8	Blank	AvoidedLoss	True
91.226	1.45	Lose2	1.0	n/a	Yes	3.022	n/a	5.0	GoodResponse	0	0.018	90.244	3	8	Feedback	AvoidedLoss	True
92.681	3.022	Lose2	1.0	n/a	Yes	3.022	n/a	n/a	GoodResponse	0	0.0	n/a	3	8	ISIslide	AvoidedLoss	True
95.723	0.25	Lose2	1.0	0.0	Yes	3.127	0.023	n/a	GoodResponse	0	n/a	n/a	3	9	Cue	AvoidedLoss	True
95.974	3.95	Lose2	1.0	0.0	Yes	3.127	0.001	n/a	GoodResponse	0	n/a	n/a	3	9	Fixation	AvoidedLoss	True
99.919	0.31	Lose2	1.0	0.004	Yes	3.127	-0.004	4.0	GoodResponse	0	0.222	99.141	3	9	Target	AvoidedLoss	True
100.141	0.3	Lose2	1.0	0.004	Yes	3.127	-0.004	4.0	GoodResponse	0	0.222	n/a	3	9	ButtonPress	AvoidedLoss	True
100.236	0.39	Lose2	1.0	n/a	Yes	3.127	n/a	n/a	GoodResponse	0	n/a	n/a	3	9	Blank	AvoidedLoss	True
100.621	1.45	Lose2	1.0	n/a	Yes	3.127	n/a	5.0	GoodResponse	0	0.038	99.659	3	9	Feedback	AvoidedLoss	True
102.075	3.127	Lose2	1.0	n/a	Yes	3.127	n/a	n/a	GoodResponse	0	0.0	n/a	3	9	ISIslide	AvoidedLoss	True
105.218	0.25	Control	1.0	0.0	Yes	3.282	0.018	n/a	GoodResponse	0	n/a	n/a	3	10	Cue	Neutral	True
105.469	4.0	Control	1.0	0.0	Yes	3.282	0.001	n/a	GoodResponse	0	n/a	n/a	3	10	Fixation	Neutral	True
109.464	0.3	Control	1.0	0.004	Yes	3.282	-0.004	4.0	GoodResponse	0	0.269	108.733	3	10	Target	Neutral	True
109.733	0.3	Control	1.0	0.004	Yes	3.282	-0.004	4.0	GoodResponse	0	0.269	n/a	3	10	ButtonPress	Neutral	True
109.765	0.4	Control	1.0	n/a	Yes	3.282	n/a	n/a	GoodResponse	0	n/a	n/a	3	10	Blank	Neutral	True
110.166	1.45	Control	1.0	n/a	Yes	3.282	n/a	5.0	GoodResponse	0	0.005	109.171	3	10	Feedback	Neutral	True
111.621	3.282	Control	1.0	n/a	Yes	3.282	n/a	n/a	GoodResponse	0	0.0	n/a	3	10	ISIslide	Neutral	True
114.914	0.25	Lose2	1.0	0.0	Yes	2.736	0.014	n/a	GoodResponse	0	n/a	n/a	3	11	Cue	AvoidedLoss	True
115.165	4.05	Lose2	1.0	0.0	Yes	2.736	0.001	n/a	GoodResponse	0	n/a	n/a	3	11	Fixation	AvoidedLoss	True
119.21	0.29	Lose2	1.0	0.004	Yes	2.736	-0.004	4.0	GoodResponse	0	0.197	118.407	3	11	Target	AvoidedLoss	True
119.407	0.3	Lose2	1.0	0.004	Yes	2.736	-0.004	4.0	GoodResponse	0	0.197	n/a	3	11	ButtonPress	AvoidedLoss	True
119.511	0.41	Lose2	1.0	n/a	Yes	2.736	n/a	n/a	GoodResponse	0	n/a	n/a	3	11	Blank	AvoidedLoss	True
119.912	1.45	Lose2	1.0	n/a	Yes	2.736	n/a	5.0	GoodResponse	0	0.014	118.926	3	11	Feedback	AvoidedLoss	True
121.366	2.736	Lose2	1.0	n/a	Yes	2.736	n/a	n/a	GoodResponse	0	0.0	n/a	3	11	ISIslide	AvoidedLoss	True
124.125	0.25	Control	1.0	0.0	Yes	2.975	0.025	n/a	GoodResponse	0	n/a	n/a	3	12	Cue	Neutral	False
124.375	3.9	Control	1.0	0.001	Yes	2.975	0.0	4.0	GoodResponse	0	3.733	127.108	3	12	Fixation	Neutral	False
128.108	0.3	Control	1.0	0.001	Yes	2.975	0.0	4.0	GoodResponse	0	3.733	n/a	3	12	ButtonPress	Neutral	False
128.287	0.28	Control	1.0	0.0	Yes	2.975	0.012	4.0	GoodResponse	0	0.175	127.462	3	12	Target	Neutral	False
128.462	0.3	Control	1.0	0.0	Yes	2.975	0.012	4.0	GoodResponse	0	0.175	n/a	3	12	ButtonPress	Neutral	False
128.555	0.42	Control	1.0	n/a	Yes	2.975	n/a	n/a	GoodResponse	0	n/a	n/a	3	12	Blank	Neutral	False
128.973	1.45	Control	1.0	n/a	Yes	2.975	n/a	5.0	GoodResponse	0	0.026	127.999	3	12	Feedback	Neutral	False
130.427	2.975	Control	1.0	n/a	Yes	2.975	n/a	n/a	GoodResponse	0	0.0	n/a	3	12	ISIslide	Neutral	False
133.419	0.25	Control	1.0	0.0	Yes	2.781	0.019	n/a	GoodResponse	0	n/a	n/a	3	13	Cue	Neutral	True
133.67	4.0	Control	1.0	0.0	Yes	2.781	0.001	n/a	GoodResponse	0	n/a	n/a	3	13	Fixation	Neutral	True
137.665	0.27	Control	1.0	0.004	Yes	2.781	-0.004	4.0	GoodResponse	0	0.215	136.88	3	13	Target	Neutral	True
137.88	0.3	Control	1.0	0.004	Yes	2.781	-0.004	4.0	GoodResponse	0	0.215	n/a	3	13	ButtonPress	Neutral	True
137.949	0.43	Control	1.0	n/a	Yes	2.781	n/a	n/a	GoodResponse	0	n/a	n/a	3	13	Blank	Neutral	True
138.367	1.45	Control	1.0	n/a	Yes	2.781	n/a	5.0	GoodResponse	0	0.047	137.414	3	13	Feedback	Neutral	True
139.822	2.781	Control	1.0	n/a	Yes	2.781	n/a	n/a	GoodResponse	0	0.0	n/a	3	13	ISIslide	Neutral	True
142.63	0.25	Win2	1.0	0.0	Yes	2.67	0.03	n/a	GoodResponse	1	n/a	n/a	4	14	Cue	Win	True
142.881	4.1	Win2	1.0	0.0	Yes	2.67	0.001	n/a	GoodResponse	1	n/a	n/a	4	14	Fixation	Win	True
146.977	0.26	Win2	1.0	0.003	Yes	2.67	-0.003	4.0	GoodResponse	1	0.217	146.194	4	14	Target	Win	True
147.194	0.3	Win2	1.0	0.003	Yes	2.67	-0.003	4.0	GoodResponse	1	0.217	n/a	4	14	ButtonPress	Win	True
147.244	0.44	Win2	1.0	n/a	Yes	2.67	n/a	n/a	GoodResponse	1	n/a	n/a	4	14	Blank	Win	True
147.679	1.45	Win2	1.0	n/a	Yes	2.67	n/a	5.0	GoodResponse	1	0.005	146.684	4	14	Feedback	Win	True
149.133	2.67	Win2	1.0	n/a	Yes	2.67	n/a	n/a	GoodResponse	1	0.0	n/a	4	14	ISIslide	Win	True
151.824	0.25	Control	1.0	0.0	Yes	2.976	0.024	n/a	GoodResponse	0	n/a	n/a	4	15	Cue	Neutral	True
152.075	4.0	Control	1.0	0.0	Yes	2.976	0.001	n/a	GoodResponse	0	n/a	n/a	4	15	Fixation	Neutral	True
156.07	0.25	Control	1.0	0.004	Yes	2.976	-0.004	4.0	GoodResponse	0	0.204	155.274	4	15	Target	Neutral	True
156.274	0.3	Control	1.0	0.004	Yes	2.976	-0.004	4.0	GoodResponse	0	0.204	n/a	4	15	ButtonPress	Neutral	True
156.321	0.45	Control	1.0	n/a	Yes	2.976	n/a	n/a	GoodResponse	0	n/a	n/a	4	15	Blank	Neutral	True
156.773	1.45	Control	1.0	n/a	Yes	2.976	n/a	5.0	GoodResponse	0	0.032	155.805	4	15	Feedback	Neutral	True
158.227	2.976	Control	1.0	n/a	Yes	2.976	n/a	n/a	GoodResponse	0	0.0	n/a	4	15	ISIslide	Neutral	True
161.219	0.25	Win2	1.0	0.0	Yes	2.881	0.019	n/a	GoodResponse	1	n/a	n/a	5	16	Cue	Win	True
161.47	4.0	Win2	1.0	0.0	Yes	2.881	0.001	n/a	GoodResponse	1	n/a	n/a	5	16	Fixation	Win	True
165.465	0.24	Win2	1.0	0.004	Yes	2.881	-0.004	4.0	GoodResponse	1	0.186	164.651	5	16	Target	Win	True
165.651	0.3	Win2	1.0	0.004	Yes	2.881	-0.004	4.0	GoodResponse	1	0.186	n/a	5	16	ButtonPress	Win	True
165.716	0.46	Win2	1.0	n/a	Yes	2.881	n/a	n/a	GoodResponse	1	n/a	n/a	5	16	Blank	Win	True
166.167	1.45	Win2	1.0	n/a	Yes	2.881	n/a	5.0	GoodResponse	1	0.007	165.174	5	16	Feedback	Win	True
167.622	2.881	Win2	1.0	n/a	Yes	2.881	n/a	n/a	GoodResponse	1	0.0	n/a	5	16	ISIslide	Win	True
170.53	0.25	Lose2	1.0	0.001	Yes	2.72	0.03	n/a	GoodResponse	0	n/a	n/a	5	17	Cue	AvoidedLoss	True
170.781	3.95	Lose2	1.0	0.0	Yes	2.72	0.001	n/a	GoodResponse	0	n/a	n/a	5	17	Fixation	AvoidedLoss	True
174.726	0.23	Lose2	1.0	0.004	Yes	2.72	-0.004	4.0	GoodResponse	0	0.225	173.951	5	17	Target	AvoidedLoss	True
174.951	0.3	Lose2	1.0	0.004	Yes	2.72	-0.004	4.0	GoodResponse	0	0.225	n/a	5	17	ButtonPress	AvoidedLoss	True
174.96	0.47	Lose2	1.0	n/a	Yes	2.72	n/a	n/a	GoodResponse	0	n/a	n/a	5	17	Blank	AvoidedLoss	True
175.428	1.45	Lose2	1.0	n/a	Yes	2.72	n/a	5.0	GoodResponse	0	0.01	174.438	5	17	Feedback	AvoidedLoss	True
176.883	2.72	Lose2	1.0	n/a	Yes	2.72	n/a	n/a	GoodResponse	0	0.0	n/a	5	17	ISIslide	AvoidedLoss	True
179.624	0.25	Lose2	1.0	0.0	Yes	2.726	0.024	n/a	GoodResponse	0	n/a	n/a	5	18	Cue	AvoidedLoss	True
179.875	4.05	Lose2	1.0	0.0	Yes	2.726	0.001	n/a	GoodResponse	0	n/a	n/a	5	18	Fixation	AvoidedLoss	True
183.921	0.22	Lose2	1.0	0.003	Yes	2.726	-0.003	4.0	GoodResponse	0	0.202	183.123	5	18	Target	AvoidedLoss	True
184.123	0.3	Lose2	1.0	0.003	Yes	2.726	-0.003	4.0	GoodResponse	0	0.202	n/a	5	18	ButtonPress	AvoidedLoss	True
184.155	0.48	Lose2	1.0	n/a	Yes	2.726	n/a	n/a	GoodResponse	0	n/a	n/a	5	18	Blank	AvoidedLoss	True
184.623	1.45	Lose2	1.0	n/a	Yes	2.726	n/a	5.0	GoodResponse	0	0.035	183.658	5	18	Feedback	AvoidedLoss	True
186.077	2.726	Lose2	1.0	n/a	Yes	2.726	n/a	n/a	GoodResponse	0	0.0	n/a	5	18	ISIslide	AvoidedLoss	True
188.819	0.25	Control	0.95	0.0	No	2.931	0.019	n/a	NoResponse	0	n/a	n/a	5	19	Cue	Neutral	True
189.069	3.95	Control	0.95	0.0	No	2.931	0.0	n/a	NoResponse	0	n/a	n/a	5	19	Fixation	Neutral	True
193.031	0.21	Control	0.95	0.0	No	2.931	0.012	4.0	NoResponse	0	0.231	192.262	5	19	Target	Neutral	True
193.232	0.49	Control	0.95	n/a	No	2.931	n/a	n/a	NoResponse	0	n/a	n/a	5	19	Blank	Neutral	True
193.262	0.3	Control	0.95	0.0	No	2.931	0.012	4.0	NoResponse	0	0.231	n/a	5	19	ButtonPress	Neutral	True
193.717	1.45	Control	0.95	n/a	No	2.931	n/a	5.0	NoResponse	0	0.014	192.731	5	19	Feedback	Neutral	True
195.171	2.931	Control	0.95	n/a	No	2.931	n/a	n/a	NoResponse	0	0.0	n/a	5	19	ISIslide	Neutral	True
198.13	0.25	Control	0.9048	0.0	No	2.62	0.03	n/a	NoResponse	0	n/a	n/a	5	20	Cue	Neutral	True
198.381	4.05	Control	0.9048	0.0	No	2.62	0.001	n/a	NoResponse	0	n/a	n/a	5	20	Fixation	Neutral	True
202.426	0.2	Control	0.9048	0.004	No	2.62	-0.004	4.0	NoResponse	0	0.298	201.724	5	20	Target	Neutral	True
202.627	0.5	Control	0.9048	n/a	No	2.62	n/a	n/a	NoResponse	0	n/a	n/a	5	20	Blank	Neutral	True
202.724	0.3	Control	0.9048	0.004	No	2.62	-0.004	4.0	NoResponse	0	0.298	n/a	5	20	ButtonPress	Neutral	True
203.128	1.45	Control	0.9048	n/a	No	2.62	n/a	5.0	NoResponse	0	0.018	202.146	5	20	Feedback	Neutral	True
204.582	2.62	Control	0.9048	n/a	No	2.62	n/a	n/a	NoResponse	0	0.0	n/a	5	20	ISIslide	Neutral	True
207.224	0.25	Control	0.8636	0.0	No	2.776	0.024	n/a	NoResponse	0	n/a	n/a	5	21	Cue	Neutral	True
207.474	4.1	Control	0.8636	0.001	No	2.776	0.0	n/a	NoResponse	0	n/a	n/a	5	21	Fixation	Neutral	True
211.57	0.19	Control	0.8636	0.004	No	2.776	-0.004	4.0	NoResponse	0	0.208	210.778	5	21	Target	Neutral	True
211.771	0.51	Control	0.8636	n/a	No	2.776	n/a	n/a	NoResponse	0	n/a	n/a	5	21	Blank	Neutral	True
211.778	0.3	Control	0.8636	0.004	No	2.776	-0.004	4.0	NoResponse	0	0.208	n/a	5	21	ButtonPress	Neutral	True
212.272	1.45	Control	0.8636	n/a	No	2.776	n/a	5.0	NoResponse	0	0.044	211.316	5	21	Feedback	Neutral	True
213.727	2.776	Control	0.8636	n/a	No	2.776	n/a	n/a	NoResponse	0	0.0	n/a	5	21	ISIslide	Neutral	True
216.518	0.25	Control	0.8261	0.0	No	2.782	0.018	n/a	NoResponse	0	n/a	n/a	5	22	Cue	Neutral	True
216.769	4.0	Control	0.8261	0.0	No	2.782	0.001	n/a	NoResponse	0	n/a	n/a	5	22	Fixation	Neutral	True
220.764	0.18	Control	0.8261	0.004	No	2.782	-0.004	4.0	NoResponse	0	0.21	219.974	5	22	Target	Neutral	True
220.948	0.52	Control	0.8261	n/a	No	2.782	n/a	n/a	NoResponse	0	n/a	n/a	5	22	Blank	Neutral	True
220.974	0.3	Control	0.8261	0.004	No	2.782	-0.004	4.0	NoResponse	0	0.21	n/a	5	22	ButtonPress	Neutral	True
221.466	1.45	Control	0.8261	n/a	No	2.782	n/a	5.0	NoResponse	0	0.021	220.487	5	22	Feedback	Neutral	True
222.921	2.782	Control	0.8261	n/a	No	2.782	n/a	n/a	NoResponse	0	0.0	n/a	5	22	ISIslide	Neutral	True
225.729	0.25	Control	0.7917000000000001	0.0	No	2.771	0.029	n/a	NoResponse	0	n/a	n/a	5	23	Cue	Neutral	True
225.98	3.9	Control	0.7917000000000001	0.0	No	2.771	0.001	n/a	NoResponse	0	n/a	n/a	5	23	Fixation	Neutral	True
229.875	0.17	Control	0.7917000000000001	0.004	No	2.771	-0.004	4.0	NoResponse	0	0.192	229.067	5	23	Target	Neutral	True
230.059	0.53	Control	0.7917000000000001	n/a	No	2.771	n/a	n/a	NoResponse	0	n/a	n/a	5	23	Blank	Neutral	True
230.067	0.3	Control	0.7917000000000001	0.004	No	2.771	-0.004	4.0	NoResponse	0	0.192	n/a	5	23	ButtonPress	Neutral	True
230.577	1.45	Control	0.7917000000000001	n/a	No	2.771	n/a	5.0	NoResponse	0	0.031	229.608	5	23	Feedback	Neutral	True
232.031	2.771	Control	0.7917000000000001	n/a	No	2.771	n/a	n/a	NoResponse	0	0.0	n/a	5	23	ISIslide	Neutral	True
234.823	0.25	Win2	0.76	0.0	No	3.127	0.023	n/a	NoResponse	0	n/a	n/a	5	24	Cue	MissedWin	True
235.074	3.95	Win2	0.76	0.0	No	3.127	0.001	n/a	NoResponse	0	n/a	n/a	5	24	Fixation	MissedWin	True
239.019	0.16	Win2	0.76	0.004	No	3.127	-0.004	4.0	NoResponse	0	0.189	238.208	5	24	Target	MissedWin	True
239.186	0.54	Win2	0.76	n/a	No	3.127	n/a	n/a	NoResponse	0	n/a	n/a	5	24	Blank	MissedWin	True
239.208	0.3	Win2	0.76	0.004	No	3.127	-0.004	4.0	NoResponse	0	0.189	n/a	5	24	ButtonPress	MissedWin	True
239.721	1.45	Win2	0.76	n/a	No	3.127	n/a	5.0	NoResponse	0	0.009	238.73	5	24	Feedback	MissedWin	True
241.175	3.127	Win2	0.76	n/a	No	3.127	n/a	n/a	NoResponse	0	0.0	n/a	5	24	ISIslide	MissedWin	True
244.318	0.25	Win2	0.7308	0.0	No	3.082	0.018	n/a	NoResponse	0	n/a	n/a	5	25	Cue	MissedWin	True
244.569	4.0	Win2	0.7308	0.0	No	3.082	0.001	n/a	NoResponse	0	n/a	n/a	5	25	Fixation	MissedWin	True
248.564	0.15	Win2	0.7308	0.004	No	3.082	-0.004	4.0	NoResponse	0	0.202	247.766	5	25	Target	MissedWin	True
248.715	0.55	Win2	0.7308	n/a	No	3.082	n/a	n/a	NoResponse	0	n/a	n/a	5	25	Blank	MissedWin	True
248.766	0.3	Win2	0.7308	0.004	No	3.082	-0.004	4.0	NoResponse	0	0.202	n/a	5	25	ButtonPress	MissedWin	True
249.266	1.45	Win2	0.7308	n/a	No	3.082	n/a	5.0	NoResponse	0	0.025	248.291	5	25	Feedback	MissedWin	True
250.721	3.082	Win2	0.7308	n/a	No	3.082	n/a	n/a	NoResponse	0	0.0	n/a	5	25	ISIslide	MissedWin	True
253.83	0.25	Win2	0.7037	0.0	No	2.92	0.03	n/a	NoResponse	0	n/a	n/a	5	26	Cue	MissedWin	True
254.081	3.95	Win2	0.7037	0.0	No	2.92	0.001	n/a	NoResponse	0	n/a	n/a	5	26	Fixation	MissedWin	True
258.026	0.15	Win2	0.7037	0.004	No	2.92	-0.004	4.0	NoResponse	0	0.19	257.216	5	26	Target	MissedWin	True
258.176	0.55	Win2	0.7037	n/a	No	2.92	n/a	n/a	NoResponse	0	n/a	n/a	5	26	Blank	MissedWin	True
258.216	0.3	Win2	0.7037	0.004	No	2.92	-0.004	4.0	NoResponse	0	0.19	n/a	5	26	ButtonPress	MissedWin	True
258.728	1.45	Win2	0.7037	n/a	No	2.92	n/a	5.0	NoResponse	0	0.027	257.755	5	26	Feedback	MissedWin	True
260.182	2.92	Win2	0.7037	n/a	No	2.92	n/a	n/a	NoResponse	0	0.0	n/a	5	26	ISIslide	MissedWin	True
263.125	0.25	Lose2	0.7143	0.0	Yes	2.825	0.025	n/a	GoodResponse	0	n/a	n/a	5	27	Cue	AvoidedLoss	False
263.375	4.05	Lose2	0.7143	0.0	Yes	2.825	0.0	4.0	GoodResponse	0	3.912	266.287	5	27	Fixation	AvoidedLoss	False
267.287	0.3	Lose2	0.7143	0.0	Yes	2.825	0.0	4.0	GoodResponse	0	3.912	n/a	5	27	ButtonPress	AvoidedLoss	False
267.421	0.15	Lose2	0.7143	0.004	Yes	2.825	-0.004	4.0	GoodResponse	0	0.113	266.534	5	27	Target	AvoidedLoss	False
267.534	0.3	Lose2	0.7143	0.004	Yes	2.825	-0.004	4.0	GoodResponse	0	0.113	n/a	5	27	ButtonPress	AvoidedLoss	False
267.571	0.55	Lose2	0.7143	n/a	Yes	2.825	n/a	n/a	GoodResponse	0	n/a	n/a	5	27	Blank	AvoidedLoss	False
268.123	1.45	Lose2	0.7143	n/a	Yes	2.825	n/a	5.0	GoodResponse	0	0.047	267.17	5	27	Feedback	AvoidedLoss	False
269.577	2.825	Lose2	0.7143	n/a	Yes	2.825	n/a	n/a	GoodResponse	0	0.0	n/a	5	27	ISIslide	AvoidedLoss	False
272.419	0.25	Control	0.6897	0.0	No	2.831	0.019	n/a	NoResponse	0	n/a	n/a	5	28	Cue	Neutral	True
272.67	4.05	Control	0.6897	0.0	No	2.831	0.001	n/a	NoResponse	0	n/a	n/a	5	28	Fixation	Neutral	True
276.715	0.15	Control	0.6897	0.004	No	2.831	-0.004	4.0	NoResponse	0	0.199	275.914	5	28	Target	Neutral	True
276.866	0.55	Control	0.6897	n/a	No	2.831	n/a	n/a	NoResponse	0	n/a	n/a	5	28	Blank	Neutral	True
276.914	0.3	Control	0.6897	0.004	No	2.831	-0.004	4.0	NoResponse	0	0.199	n/a	5	28	ButtonPress	Neutral	True
277.417	1.45	Control	0.6897	n/a	No	2.831	n/a	5.0	NoResponse	0	0.021	276.438	5	28	Feedback	Neutral	True
278.872	2.831	Control	0.6897	n/a	No	2.831	n/a	n/a	NoResponse	0	0.0	n/a	5	28	ISIslide	Neutral	True
281.73	0.25	Lose2	0.7	0.0	Yes	2.82	0.03	n/a	GoodResponse	0	n/a	n/a	5	29	Cue	AvoidedLoss	True
281.981	3.95	Lose2	0.7	0.0	Yes	2.82	0.001	n/a	GoodResponse	0	n/a	n/a	5	29	Fixation	AvoidedLoss	True
285.926	0.15	Lose2	0.7	0.004	Yes	2.82	-0.004	4.0	GoodResponse	0	0.122	285.048	5	29	Target	AvoidedLoss	True
286.048	0.3	Lose2	0.7	0.004	Yes	2.82	-0.004	4.0	GoodResponse	0	0.122	n/a	5	29	ButtonPress	AvoidedLoss	True
286.077	0.55	Lose2	0.7	n/a	Yes	2.82	n/a	n/a	GoodResponse	0	n/a	n/a	5	29	Blank	AvoidedLoss	True
286.628	1.45	Lose2	0.7	n/a	Yes	2.82	n/a	5.0	GoodResponse	0	0.029	285.657	5	29	Feedback	AvoidedLoss	True
288.083	2.82	Lose2	0.7	n/a	Yes	2.82	n/a	n/a	GoodResponse	0	0.0	n/a	5	29	ISIslide	AvoidedLoss	True
290.925	0.25	Win2	0.6774	0.0	No	2.775	0.025	n/a	NoResponse	0	n/a	n/a	5	30	Cue	MissedWin	True
291.175	3.9	Win2	0.6774	0.0	No	2.775	0.0	n/a	NoResponse	0	n/a	n/a	5	30	Fixation	MissedWin	True
295.087	0.15	Win2	0.6774	0.0	No	2.775	0.012	4.0	NoResponse	0	0.21	294.297	5	30	Target	MissedWin	True
295.221	0.55	Win2	0.6774	n/a	No	2.775	n/a	n/a	NoResponse	0	n/a	n/a	5	30	Blank	MissedWin	True
295.297	0.3	Win2	0.6774	0.0	No	2.775	0.012	4.0	NoResponse	0	0.21	n/a	5	30	ButtonPress	MissedWin	True
295.772	1.45	Win2	0.6774	n/a	No	2.775	n/a	5.0	NoResponse	0	0.009	294.781	5	30	Feedback	MissedWin	True
297.227	2.775	Win2	0.6774	n/a	No	2.775	n/a	n/a	NoResponse	0	0.0	n/a	5	30	ISIslide	MissedWin	True
300.018	0.25	Lose2	0.6562	0.001	No	2.832	0.018	n/a	NoResponse	-1	n/a	n/a	4	31	Cue	Loss	True
300.269	4.05	Lose2	0.6562	0.0	No	2.832	0.001	n/a	NoResponse	-1	n/a	n/a	4	31	Fixation	Loss	True
304.315	0.15	Lose2	0.6562	0.003	No	2.832	-0.003	4.0	NoResponse	-1	0.209	303.524	4	31	Target	Loss	True
304.465	0.55	Lose2	0.6562	n/a	No	2.832	n/a	n/a	NoResponse	-1	n/a	n/a	4	31	Blank	Loss	True
304.524	0.3	Lose2	0.6562	0.003	No	2.832	-0.003	4.0	NoResponse	-1	0.209	n/a	4	31	ButtonPress	Loss	True
305.017	1.45	Lose2	0.6562	n/a	No	2.832	n/a	5.0	NoResponse	-1	0.03	304.047	4	31	Feedback	Loss	True
306.471	2.832	Lose2	0.6562	n/a	No	2.832	n/a	n/a	NoResponse	-1	0.0	n/a	4	31	ISIslide	Loss	True
309.33	0.25	Lose2	0.6364	0.0	No	2.62	0.03	n/a	NoResponse	-1	n/a	n/a	3	32	Cue	Loss	False
309.58	4.15	Lose2	0.6364	0.0	No	2.62	0.0	n/a	NoResponse	-1	n/a	n/a	3	32	Fixation	Loss	False
313.726	0.15	Lose2	0.6364	0.004	No	2.62	-0.004	n/a	NoResponse	-1	n/a	n/a	3	32	Target	Loss	False
313.877	0.55	Lose2	0.6364	n/a	No	2.62	n/a	n/a	NoResponse	-1	n/a	n/a	3	32	Blank	Loss	False
314.428	1.45	Lose2	0.6364	n/a	No	2.62	n/a	5.0	NoResponse	-1	0.034	313.462	3	32	Feedback	Loss	False
315.883	2.62	Lose2	0.6364	n/a	No	2.62	n/a	n/a	NoResponse	-1	0.0	n/a	3	32	ISIslide	Loss	False
318.524	0.25	Win2	0.6175999999999999	0.0	No	2.676	0.024	n/a	NoResponse	0	n/a	n/a	3	33	Cue	MissedWin	True
318.775	4.0	Win2	0.6175999999999999	0.0	No	2.676	0.001	n/a	NoResponse	0	n/a	n/a	3	33	Fixation	MissedWin	True
322.77	0.16	Win2	0.6175999999999999	0.004	No	2.676	-0.004	4.0	NoResponse	0	0.208	321.978	3	33	Target	MissedWin	True
322.937	0.54	Win2	0.6175999999999999	n/a	No	2.676	n/a	n/a	NoResponse	0	n/a	n/a	3	33	Blank	MissedWin	True
322.978	0.3	Win2	0.6175999999999999	0.004	No	2.676	-0.004	4.0	NoResponse	0	0.208	n/a	3	33	ButtonPress	MissedWin	True
323.472	1.45	Win2	0.6175999999999999	n/a	No	2.676	n/a	5.0	NoResponse	0	0.014	322.486	3	33	Feedback	MissedWin	True
324.926	2.676	Win2	0.6175999999999999	n/a	No	2.676	n/a	n/a	NoResponse	0	0.0	n/a	3	33	ISIslide	MissedWin	True
327.618	0.25	Lose2	0.6	0.0	No	2.632	0.018	n/a	NoResponse	-1	n/a	n/a	2	34	Cue	Loss	True
327.869	4.05	Lose2	0.6	0.0	No	2.632	0.001	n/a	NoResponse	-1	n/a	n/a	2	34	Fixation	Loss	True
331.914	0.17	Lose2	0.6	0.004	No	2.632	-0.004	4.0	NoResponse	-1	0.196	331.11	2	34	Target	Loss	True
332.098	0.53	Lose2	0.6	n/a	No	2.632	n/a	n/a	NoResponse	-1	n/a	n/a	2	34	Blank	Loss	True
332.11	0.3	Lose2	0.6	0.004	No	2.632	-0.004	4.0	NoResponse	-1	0.196	n/a	2	34	ButtonPress	Loss	True
332.616	1.45	Lose2	0.6	n/a	No	2.632	n/a	5.0	NoResponse	-1	0.041	331.657	2	34	Feedback	Loss	True
334.07	2.632	Lose2	0.6	n/a	No	2.632	n/a	n/a	NoResponse	-1	0.0	n/a	2	34	ISIslide	Loss	True
336.728	0.25	Lose2	0.5832999999999999	0.001	No	2.672	0.028	n/a	NoResponse	-1	n/a	n/a	1	35	Cue	Loss	True
336.979	4.0	Lose2	0.5832999999999999	0.0	No	2.672	0.001	n/a	NoResponse	-1	n/a	n/a	1	35	Fixation	Loss	True
340.974	0.18	Lose2	0.5832999999999999	0.004	No	2.672	-0.004	4.0	NoResponse	-1	0.21	340.184	1	35	Target	Loss	True
341.158	0.52	Lose2	0.5832999999999999	n/a	No	2.672	n/a	n/a	NoResponse	-1	n/a	n/a	1	35	Blank	Loss	True
341.184	0.3	Lose2	0.5832999999999999	0.004	No	2.672	-0.004	4.0	NoResponse	-1	0.21	n/a	1	35	ButtonPress	Loss	True
341.677	1.45	Lose2	0.5832999999999999	n/a	No	2.672	n/a	5.0	NoResponse	-1	0.007	340.684	1	35	Feedback	Loss	True
343.131	2.672	Lose2	0.5832999999999999	n/a	No	2.672	n/a	n/a	NoResponse	-1	0.0	n/a	1	35	ISIslide	Loss	True
345.822	0.25	Control	0.5676	0.0	No	2.678	0.022	n/a	LatePress	0	n/a	n/a	1	36	Cue	Neutral	True
346.073	4.0	Control	0.5676	0.0	No	2.678	0.001	n/a	LatePress	0	n/a	n/a	1	36	Fixation	Neutral	True
350.068	0.19	Control	0.5676	0.004	No	2.678	-0.004	4.0	LatePress	0	0.201	349.269	1	36	Target	Neutral	True
350.269	0.51	Control	0.5676	n/a	No	2.678	n/a	n/a	LatePress	0	n/a	n/a	1	36	Blank	Neutral	True
350.269	0.3	Control	0.5676	0.004	No	2.678	-0.004	4.0	LatePress	0	0.201	n/a	1	36	ButtonPress	Neutral	True
350.771	1.45	Control	0.5676	n/a	No	2.678	n/a	5.0	LatePress	0	0.032	349.803	1	36	Feedback	Neutral	True
352.225	2.678	Control	0.5676	n/a	No	2.678	n/a	n/a	LatePress	0	0.0	n/a	1	36	ISIslide	Neutral	True
354.916	0.25	Win2	0.5789	0.0	Yes	2.884	0.016	n/a	GoodResponse	1	n/a	n/a	2	37	Cue	Win	True
355.167	4.0	Win2	0.5789	0.0	Yes	2.884	0.001	n/a	GoodResponse	1	n/a	n/a	2	37	Fixation	Win	True
359.162	0.2	Win2	0.5789	0.004	Yes	2.884	-0.004	4.0	GoodResponse	1	0.185	358.347	2	37	Target	Win	True
359.347	0.3	Win2	0.5789	0.004	Yes	2.884	-0.004	4.0	GoodResponse	1	0.185	n/a	2	37	ButtonPress	Win	True
359.363	0.5	Win2	0.5789	n/a	Yes	2.884	n/a	n/a	GoodResponse	1	n/a	n/a	2	37	Blank	Win	True
359.864	1.45	Win2	0.5789	n/a	Yes	2.884	n/a	5.0	GoodResponse	1	0.012	358.876	2	37	Feedback	Win	True
361.319	2.884	Win2	0.5789	n/a	Yes	2.884	n/a	n/a	GoodResponse	1	0.0	n/a	2	37	ISIslide	Win	True
364.228	0.25	Lose2	0.5640999999999999	0.0	No	2.822	0.028	n/a	NoResponse	-1	n/a	n/a	1	38	Cue	Loss	True
364.478	3.95	Lose2	0.5640999999999999	0.0	No	2.822	0.0	n/a	NoResponse	-1	n/a	n/a	1	38	Fixation	Loss	True
368.44	0.21	Lose2	0.5640999999999999	0.0	No	2.822	0.012	4.0	NoResponse	-1	0.22	367.66	1	38	Target	Loss	True
368.641	0.49	Lose2	0.5640999999999999	n/a	No	2.822	n/a	n/a	NoResponse	-1	n/a	n/a	1	38	Blank	Loss	True
368.66	0.3	Lose2	0.5640999999999999	0.0	No	2.822	0.012	4.0	NoResponse	-1	0.22	n/a	1	38	ButtonPress	Loss	True
369.126	1.45	Lose2	0.5640999999999999	n/a	No	2.822	n/a	5.0	NoResponse	-1	0.018	368.144	1	38	Feedback	Loss	True
370.58	2.822	Lose2	0.5640999999999999	n/a	No	2.822	n/a	n/a	NoResponse	-1	0.0	n/a	1	38	ISIslide	Loss	True
373.422	0.25	Win2	0.575	0.0	Yes	2.978	0.022	n/a	GoodResponse	1	n/a	n/a	2	39	Cue	Win	True
373.672	4.1	Win2	0.575	0.001	Yes	2.978	0.0	n/a	GoodResponse	1	n/a	n/a	2	39	Fixation	Win	True
377.768	0.22	Win2	0.575	0.004	Yes	2.978	-0.004	4.0	GoodResponse	1	0.188	376.956	2	39	Target	Win	True
377.956	0.3	Win2	0.575	0.004	Yes	2.978	-0.004	4.0	GoodResponse	1	0.188	n/a	2	39	ButtonPress	Win	True
378.002	0.48	Win2	0.575	n/a	Yes	2.978	n/a	n/a	GoodResponse	1	n/a	n/a	2	39	Blank	Win	True
378.47	1.45	Win2	0.575	n/a	Yes	2.978	n/a	5.0	GoodResponse	1	0.04	377.51	2	39	Feedback	Win	True
379.925	2.978	Win2	0.575	n/a	Yes	2.978	n/a	n/a	GoodResponse	1	0.0	n/a	2	39	ISIslide	Win	True
382.917	0.25	Win2	0.561	0.0	No	2.733	0.017	n/a	LatePress	0	n/a	n/a	2	40	Cue	MissedWin	True
383.168	3.95	Win2	0.561	0.0	No	2.733	0.001	n/a	LatePress	0	n/a	n/a	2	40	Fixation	MissedWin	True
387.113	0.23	Win2	0.561	0.004	No	2.733	-0.004	4.0	LatePress	0	0.232	386.345	2	40	Target	MissedWin	True
387.345	0.3	Win2	0.561	0.004	No	2.733	-0.004	4.0	LatePress	0	0.232	n/a	2	40	ButtonPress	MissedWin	True
387.347	0.47	Win2	0.561	n/a	No	2.733	n/a	n/a	LatePress	0	n/a	n/a	2	40	Blank	MissedWin	True
387.815	1.45	Win2	0.561	n/a	No	2.733	n/a	5.0	LatePress	0	0.012	386.827	2	40	Feedback	MissedWin	True
389.269	2.733	Win2	0.561	n/a	No	2.733	n/a	n/a	LatePress	0	0.0	n/a	2	40	ISIslide	MissedWin	True
392.027	0.25	Win2	0.5714	0.001	Yes	2.773	0.027	n/a	GoodResponse	1	n/a	n/a	3	41	Cue	Win	True
392.278	3.9	Win2	0.5714	0.0	Yes	2.773	0.001	n/a	GoodResponse	1	n/a	n/a	3	41	Fixation	Win	True
396.173	0.24	Win2	0.5714	0.004	Yes	2.773	-0.004	4.0	GoodResponse	1	0.205	395.378	3	41	Target	Win	True
396.378	0.3	Win2	0.5714	0.004	Yes	2.773	-0.004	4.0	GoodResponse	1	0.205	n/a	3	41	ButtonPress	Win	True
396.424	0.46	Win2	0.5714	n/a	Yes	2.773	n/a	n/a	GoodResponse	1	n/a	n/a	3	41	Blank	Win	True
396.875	1.45	Win2	0.5714	n/a	Yes	2.773	n/a	5.0	GoodResponse	1	0.026	395.901	3	41	Feedback	Win	True
398.33	2.773	Win2	0.5714	n/a	Yes	2.773	n/a	n/a	GoodResponse	1	0.0	n/a	3	41	ISIslide	Win	True
401.121	0.25	Control	0.5814	0.0	Yes	2.929	0.021	n/a	GoodResponse	0	n/a	n/a	3	42	Cue	Neutral	True
401.372	3.85	Control	0.5814	0.0	Yes	2.929	0.001	n/a	GoodResponse	0	n/a	n/a	3	42	Fixation	Neutral	True
405.217	0.25	Control	0.5814	0.004	Yes	2.929	-0.004	4.0	GoodResponse	0	0.209	404.426	3	42	Target	Neutral	True
405.426	0.3	Control	0.5814	0.004	Yes	2.929	-0.004	4.0	GoodResponse	0	0.209	n/a	3	42	ButtonPress	Neutral	True
405.468	0.45	Control	0.5814	n/a	Yes	2.929	n/a	n/a	GoodResponse	0	n/a	n/a	3	42	Blank	Neutral	True
405.919	1.45	Control	0.5814	n/a	Yes	2.929	n/a	5.0	GoodResponse	0	0.008	404.927	3	42	Feedback	Neutral	True
407.373	2.929	Control	0.5814	n/a	Yes	2.929	n/a	n/a	GoodResponse	0	0.0	n/a	3	42	ISIslide	Neutral	True
410.316	0.25	Win2	0.5909	0.0	Yes	3.184	0.016	n/a	GoodResponse	1	n/a	n/a	4	43	Cue	Win	True
410.566	4.0	Win2	0.5909	0.0	Yes	3.184	0.0	n/a	GoodResponse	1	n/a	n/a	4	43	Fixation	Win	True
414.562	0.26	Win2	0.5909	0.004	Yes	3.184	-0.004	4.0	GoodResponse	1	0.224	413.786	4	43	Target	Win	True
414.786	0.3	Win2	0.5909	0.004	Yes	3.184	-0.004	4.0	GoodResponse	1	0.224	n/a	4	43	ButtonPress	Win	True
414.829	0.44	Win2	0.5909	n/a	Yes	3.184	n/a	n/a	GoodResponse	1	n/a	n/a	4	43	Blank	Win	True
415.264	1.45	Win2	0.5909	n/a	Yes	3.184	n/a	5.0	GoodResponse	1	0.026	414.29	4	43	Feedback	Win	True
416.718	3.184	Win2	0.5909	n/a	Yes	3.184	n/a	n/a	GoodResponse	1	0.0	n/a	4	43	ISIslide	Win	True
419.928	0.25	Win2	0.5778	0.0	No	2.972	0.028	n/a	NoResponse	0	n/a	n/a	4	44	Cue	MissedWin	False
420.178	4.0	Win2	0.5778	0.001	No	2.972	0.0	n/a	NoResponse	0	n/a	n/a	4	44	Fixation	MissedWin	False
424.174	0.27	Win2	0.5778	0.004	No	2.972	-0.004	n/a	NoResponse	0	n/a	n/a	4	44	Target	MissedWin	False
424.458	0.43	Win2	0.5778	n/a	No	2.972	n/a	n/a	NoResponse	0	n/a	n/a	4	44	Blank	MissedWin	False
424.876	1.45	Win2	0.5778	n/a	No	2.972	n/a	5.0	NoResponse	0	0.024	423.9	4	44	Feedback	MissedWin	False
426.33	2.972	Win2	0.5778	n/a	No	2.972	n/a	n/a	NoResponse	0	0.0	n/a	4	44	ISIslide	MissedWin	False
429.323	0.25	Control	0.5652	0.0	No	2.877	0.023	n/a	NoResponse	0	n/a	n/a	4	45	Cue	Neutral	False
429.573	4.1	Control	0.5652	0.0	No	2.877	0.0	n/a	NoResponse	0	n/a	n/a	4	45	Fixation	Neutral	False
433.669	0.28	Control	0.5652	0.004	No	2.877	-0.004	n/a	NoResponse	0	n/a	n/a	4	45	Target	Neutral	False
433.953	0.42	Control	0.5652	n/a	No	2.877	n/a	n/a	NoResponse	0	n/a	n/a	4	45	Blank	Neutral	False
434.371	1.45	Control	0.5652	n/a	No	2.877	n/a	5.0	NoResponse	0	0.041	433.412	4	45	Feedback	Neutral	False
435.825	2.877	Control	0.5652	n/a	No	2.877	n/a	n/a	NoResponse	0	0.0	n/a	4	45	ISIslide	Neutral	False
438.717	0.25	Lose2	0.5745	0.0	Yes	3.383	0.017	n/a	GoodResponse	0	n/a	n/a	4	46	Cue	AvoidedLoss	True
438.968	4.0	Lose2	0.5745	0.0	Yes	3.383	0.001	n/a	GoodResponse	0	n/a	n/a	4	46	Fixation	AvoidedLoss	True
442.963	0.29	Lose2	0.5745	0.004	Yes	3.383	-0.004	4.0	GoodResponse	0	0.217	442.18	4	46	Target	AvoidedLoss	True
443.18	0.3	Lose2	0.5745	0.004	Yes	3.383	-0.004	4.0	GoodResponse	0	0.217	n/a	4	46	ButtonPress	AvoidedLoss	True
443.264	0.41	Lose2	0.5745	n/a	Yes	3.383	n/a	n/a	GoodResponse	0	n/a	n/a	4	46	Blank	AvoidedLoss	True
443.666	1.45	Lose2	0.5745	n/a	Yes	3.383	n/a	5.0	GoodResponse	0	0.015	442.681	4	46	Feedback	AvoidedLoss	True
445.12	3.383	Lose2	0.5745	n/a	Yes	3.383	n/a	n/a	GoodResponse	0	0.0	n/a	4	46	ISIslide	AvoidedLoss	True
448.53	0.25	Lose2	0.5832999999999999	0.0	Yes	2.67	0.03	n/a	GoodResponse	0	n/a	n/a	4	47	Cue	AvoidedLoss	True
448.781	4.0	Lose2	0.5832999999999999	0.0	Yes	2.67	0.001	n/a	GoodResponse	0	n/a	n/a	4	47	Fixation	AvoidedLoss	True
452.776	0.3	Lose2	0.5832999999999999	0.004	Yes	2.67	-0.004	4.0	GoodResponse	0	0.193	451.969	4	47	Target	AvoidedLoss	True
452.969	0.3	Lose2	0.5832999999999999	0.004	Yes	2.67	-0.004	4.0	GoodResponse	0	0.193	n/a	4	47	ButtonPress	AvoidedLoss	True
453.077	0.4	Lose2	0.5832999999999999	n/a	Yes	2.67	n/a	n/a	GoodResponse	0	n/a	n/a	4	47	Blank	AvoidedLoss	True
453.478	1.45	Lose2	0.5832999999999999	n/a	Yes	2.67	n/a	5.0	GoodResponse	0	0.008	452.486	4	47	Feedback	AvoidedLoss	True
454.933	2.67	Lose2	0.5832999999999999	n/a	Yes	2.67	n/a	n/a	GoodResponse	0	0.0	n/a	4	47	ISIslide	AvoidedLoss	True
457.624	0.25	Lose2	0.5918	0.0	Yes	3.026	0.024	n/a	GoodResponse	0	n/a	n/a	4	48	Cue	AvoidedLoss	True
457.875	3.95	Lose2	0.5918	0.0	Yes	3.026	0.001	n/a	GoodResponse	0	n/a	n/a	4	48	Fixation	AvoidedLoss	True
461.82	0.31	Lose2	0.5918	0.004	Yes	3.026	-0.004	4.0	GoodResponse	0	0.22	461.04	4	48	Target	AvoidedLoss	True
462.04	0.3	Lose2	0.5918	0.004	Yes	3.026	-0.004	4.0	GoodResponse	0	0.22	n/a	4	48	ButtonPress	AvoidedLoss	True
462.138	0.39	Lose2	0.5918	n/a	Yes	3.026	n/a	n/a	GoodResponse	0	n/a	n/a	4	48	Blank	AvoidedLoss	True
462.522	1.45	Lose2	0.5918	n/a	Yes	3.026	n/a	5.0	GoodResponse	0	0.036	461.558	4	48	Feedback	AvoidedLoss	True
463.976	3.026	Lose2	0.5918	n/a	Yes	3.026	n/a	n/a	GoodResponse	0	0.0	n/a	4	48	ISIslide	AvoidedLoss	True
467.019	0.25	Control	0.6	0.0	Yes	2.881	0.019	n/a	GoodResponse	0	n/a	n/a	4	49	Cue	Neutral	True
467.27	4.0	Control	0.6	0.0	Yes	2.881	0.001	n/a	GoodResponse	0	n/a	n/a	4	49	Fixation	Neutral	True
471.265	0.32	Control	0.6	0.004	Yes	2.881	-0.004	4.0	GoodResponse	0	0.204	470.469	4	49	Target	Neutral	True
471.469	0.3	Control	0.6	0.004	Yes	2.881	-0.004	4.0	GoodResponse	0	0.204	n/a	4	49	ButtonPress	Neutral	True
471.599	0.38	Control	0.6	n/a	Yes	2.881	n/a	n/a	GoodResponse	0	n/a	n/a	4	49	Blank	Neutral	True
471.967	1.45	Control	0.6	n/a	Yes	2.881	n/a	5.0	GoodResponse	0	0.008	470.975	4	49	Feedback	Neutral	True
473.421	2.881	Control	0.6	n/a	Yes	2.881	n/a	n/a	GoodResponse	0	0.0	n/a	4	49	ISIslide	Neutral	True
476.33	0.25	Control	0.6078	0.0	Yes	2.77	0.03	n/a	GoodResponse	0	n/a	n/a	4	50	Cue	Neutral	True
476.581	4.0	Control	0.6078	0.0	Yes	2.77	0.001	n/a	GoodResponse	0	n/a	n/a	4	50	Fixation	Neutral	True
480.576	0.33	Control	0.6078	0.004	Yes	2.77	-0.004	4.0	GoodResponse	0	0.192	479.768	4	50	Target	Neutral	True
480.768	0.3	Control	0.6078	0.004	Yes	2.77	-0.004	4.0	GoodResponse	0	0.192	n/a	4	50	ButtonPress	Neutral	True
480.91	0.37	Control	0.6078	n/a	Yes	2.77	n/a	n/a	GoodResponse	0	n/a	n/a	4	50	Blank	Neutral	True
481.278	1.45	Control	0.6078	n/a	Yes	2.77	n/a	5.0	GoodResponse	0	0.012	480.29	4	50	Feedback	Neutral	True
482.733	2.77	Control	0.6078	n/a	Yes	2.77	n/a	n/a	GoodResponse	0	0.0	n/a	4	50	ISIslide	Neutral	True
485.524	0.25	Control	0.6154	0.0	Yes	2.726	0.024	n/a	GoodResponse	0	n/a	n/a	4	51	Cue	Neutral	True
485.775	3.95	Control	0.6154	0.0	Yes	2.726	0.001	n/a	GoodResponse	0	n/a	n/a	4	51	Fixation	Neutral	True
489.72	0.34	Control	0.6154	0.004	Yes	2.726	-0.004	4.0	GoodResponse	0	0.205	488.925	4	51	Target	Neutral	True
489.925	0.3	Control	0.6154	0.004	Yes	2.726	-0.004	4.0	GoodResponse	0	0.205	n/a	4	51	ButtonPress	Neutral	True
490.071	0.36	Control	0.6154	n/a	Yes	2.726	n/a	n/a	GoodResponse	0	n/a	n/a	4	51	Blank	Neutral	True
490.422	1.45	Control	0.6154	n/a	Yes	2.726	n/a	5.0	GoodResponse	0	0.039	489.461	4	51	Feedback	Neutral	True
491.877	2.726	Control	0.6154	n/a	Yes	2.726	n/a	n/a	GoodResponse	0	0.0	n/a	4	51	ISIslide	Neutral	True
494.618	0.25	Control	0.6225999999999999	0.0	Yes	2.632	0.018	n/a	GoodResponse	0	n/a	n/a	4	52	Cue	Neutral	True
494.869	4.05	Control	0.6225999999999999	0.0	Yes	2.632	0.001	n/a	GoodResponse	0	n/a	n/a	4	52	Fixation	Neutral	True
498.914	0.35	Control	0.6225999999999999	0.004	Yes	2.632	-0.004	4.0	GoodResponse	0	0.222	498.136	4	52	Target	Neutral	True
499.136	0.3	Control	0.6225999999999999	0.004	Yes	2.632	-0.004	4.0	GoodResponse	0	0.222	n/a	4	52	ButtonPress	Neutral	True
499.265	0.35	Control	0.6225999999999999	n/a	Yes	2.632	n/a	n/a	GoodResponse	0	n/a	n/a	4	52	Blank	Neutral	True
499.617	1.45	Control	0.6225999999999999	n/a	Yes	2.632	n/a	5.0	GoodResponse	0	0.015	498.632	4	52	Feedback	Neutral	True
501.071	2.632	Control	0.6225999999999999	n/a	Yes	2.632	n/a	n/a	GoodResponse	0	0.0	n/a	4	52	ISIslide	Neutral	True
503.729	0.25	Win2	0.6296	0.0	Yes	2.921	0.029	n/a	GoodResponse	1	n/a	n/a	5	53	Cue	Win	True
503.98	4.05	Win2	0.6296	0.0	Yes	2.921	0.001	n/a	GoodResponse	1	n/a	n/a	5	53	Fixation	Win	True
508.025	0.36	Win2	0.6296	0.004	Yes	2.921	-0.004	4.0	GoodResponse	1	0.211	507.236	5	53	Target	Win	True
508.236	0.3	Win2	0.6296	0.004	Yes	2.921	-0.004	4.0	GoodResponse	1	0.211	n/a	5	53	ButtonPress	Win	True
508.393	0.34	Win2	0.6296	n/a	Yes	2.921	n/a	n/a	GoodResponse	1	n/a	n/a	5	53	Blank	Win	True
508.727	1.45	Win2	0.6296	n/a	Yes	2.921	n/a	5.0	GoodResponse	1	0.027	507.754	5	53	Feedback	Win	True
510.182	2.921	Win2	0.6296	n/a	Yes	2.921	n/a	n/a	GoodResponse	1	0.0	n/a	5	53	ISIslide	Win	True
513.124	0.25	Win2	0.6364	0.0	Yes	2.726	0.024	n/a	GoodResponse	1	n/a	n/a	6	54	Cue	Win	True
513.374	3.95	Win2	0.6364	0.0	Yes	2.726	0.0	n/a	GoodResponse	1	n/a	n/a	6	54	Fixation	Win	True
517.32	0.37	Win2	0.6364	0.004	Yes	2.726	-0.004	4.0	GoodResponse	1	0.199	516.519	6	54	Target	Win	True
517.519	0.3	Win2	0.6364	0.004	Yes	2.726	-0.004	4.0	GoodResponse	1	0.199	n/a	6	54	ButtonPress	Win	True
517.704	0.33	Win2	0.6364	n/a	Yes	2.726	n/a	n/a	GoodResponse	1	n/a	n/a	6	54	Blank	Win	True
518.022	1.45	Win2	0.6364	n/a	Yes	2.726	n/a	5.0	GoodResponse	1	0.049	517.071	6	54	Feedback	Win	True
519.476	2.726	Win2	0.6364	n/a	Yes	2.726	n/a	n/a	GoodResponse	1	0.0	n/a	6	54	ISIslide	Win	True
522.218	0.25	Control	0.6429	0.0	Yes	3.032	0.018	n/a	GoodResponse	0	n/a	n/a	6	55	Cue	Neutral	True
522.468	3.95	Control	0.6429	0.0	Yes	3.032	0.0	n/a	GoodResponse	0	n/a	n/a	6	55	Fixation	Neutral	True
526.413	0.38	Control	0.6429	0.005	Yes	3.032	-0.005	4.0	GoodResponse	0	0.231	525.644	6	55	Target	Neutral	True
526.644	0.3	Control	0.6429	0.005	Yes	3.032	-0.005	4.0	GoodResponse	0	0.231	n/a	6	55	ButtonPress	Neutral	True
526.798	0.32	Control	0.6429	n/a	Yes	3.032	n/a	n/a	GoodResponse	0	n/a	n/a	6	55	Blank	Neutral	True
527.116	1.45	Control	0.6429	n/a	Yes	3.032	n/a	5.0	GoodResponse	0	0.027	526.143	6	55	Feedback	Neutral	True
528.57	3.032	Control	0.6429	n/a	Yes	3.032	n/a	n/a	GoodResponse	0	0.0	n/a	6	55	ISIslide	Neutral	True
531.629	0.25	Control	0.6491	0.0	Yes	2.821	0.029	n/a	GoodResponse	0	n/a	n/a	6	56	Cue	Neutral	True
531.88	3.95	Control	0.6491	0.0	Yes	2.821	0.001	n/a	GoodResponse	0	n/a	n/a	6	56	Fixation	Neutral	True
535.825	0.39	Control	0.6491	0.004	Yes	2.821	-0.004	4.0	GoodResponse	0	0.195	535.02	6	56	Target	Neutral	True
536.02	0.3	Control	0.6491	0.004	Yes	2.821	-0.004	4.0	GoodResponse	0	0.195	n/a	6	56	ButtonPress	Neutral	True
536.226	0.31	Control	0.6491	n/a	Yes	2.821	n/a	n/a	GoodResponse	0	n/a	n/a	6	56	Blank	Neutral	True
536.527	1.45	Control	0.6491	n/a	Yes	2.821	n/a	5.0	GoodResponse	0	0.031	535.558	6	56	Feedback	Neutral	True
537.981	2.821	Control	0.6491	n/a	Yes	2.821	n/a	n/a	GoodResponse	0	0.0	n/a	6	56	ISIslide	Neutral	True
540.823	0.25	Control	0.6552	0.0	Yes	3.477	0.023	n/a	GoodResponse	0	n/a	n/a	6	57	Cue	Neutral	True
541.074	4.0	Control	0.6552	0.0	Yes	3.477	0.001	n/a	GoodResponse	0	n/a	n/a	6	57	Fixation	Neutral	True
545.069	0.4	Control	0.6552	0.004	Yes	3.477	-0.004	4.0	GoodResponse	0	0.25	544.319	6	57	Target	Neutral	True
545.319	0.3	Control	0.6552	0.004	Yes	3.477	-0.004	4.0	GoodResponse	0	0.25	n/a	6	57	ButtonPress	Neutral	True
545.471	0.3	Control	0.6552	n/a	Yes	3.477	n/a	n/a	GoodResponse	0	n/a	n/a	6	57	Blank	Neutral	True
545.771	1.45	Control	0.6552	n/a	Yes	3.477	n/a	5.0	GoodResponse	0	0.008	544.779	6	57	Feedback	Neutral	True
547.226	3.477	Control	0.6552	n/a	Yes	3.477	n/a	n/a	GoodResponse	0	0.0	n/a	6	57	ISIslide	Neutral	True
550.72	0.25	Win2	0.6609999999999999	0.0	Yes	2.73	0.02	n/a	GoodResponse	1	n/a	n/a	7	58	Cue	Win	True
550.97	4.05	Win2	0.6609999999999999	0.0	Yes	2.73	0.0	n/a	GoodResponse	1	n/a	n/a	7	58	Fixation	Win	True
555.016	0.4	Win2	0.6609999999999999	0.004	Yes	2.73	-0.004	4.0	GoodResponse	1	0.267	554.283	7	58	Target	Win	True
555.283	0.3	Win2	0.6609999999999999	0.004	Yes	2.73	-0.004	4.0	GoodResponse	1	0.267	n/a	7	58	ButtonPress	Win	True
555.417	0.3	Win2	0.6609999999999999	n/a	Yes	2.73	n/a	n/a	GoodResponse	1	n/a	n/a	7	58	Blank	Win	True
555.718	1.45	Win2	0.6609999999999999	n/a	Yes	2.73	n/a	5.0	GoodResponse	1	0.011	554.729	7	58	Feedback	Win	True
557.172	2.73	Win2	0.6609999999999999	n/a	Yes	2.73	n/a	n/a	GoodResponse	1	0.0	n/a	7	58	ISIslide	Win	True
559.931	0.25	Lose2	0.6667000000000001	0.0	Yes	2.669	0.031	n/a	GoodResponse	0	n/a	n/a	7	59	Cue	AvoidedLoss	True
560.181	4.0	Lose2	0.6667000000000001	0.0	Yes	2.669	0.0	n/a	GoodResponse	0	n/a	n/a	7	59	Fixation	AvoidedLoss	True
564.177	0.4	Lose2	0.6667000000000001	0.004	Yes	2.669	-0.004	4.0	GoodResponse	0	0.217	563.394	7	59	Target	AvoidedLoss	True
564.394	0.3	Lose2	0.6667000000000001	0.004	Yes	2.669	-0.004	4.0	GoodResponse	0	0.217	n/a	7	59	ButtonPress	AvoidedLoss	True
564.578	0.3	Lose2	0.6667000000000001	n/a	Yes	2.669	n/a	n/a	GoodResponse	0	n/a	n/a	7	59	Blank	AvoidedLoss	True
564.879	1.45	Lose2	0.6667000000000001	n/a	Yes	2.669	n/a	5.0	GoodResponse	0	0.021	563.9	7	59	Feedback	AvoidedLoss	True
566.333	2.669	Lose2	0.6667000000000001	n/a	Yes	2.669	n/a	n/a	GoodResponse	0	0.0	n/a	7	59	ISIslide	AvoidedLoss	True
569.024	0.25	Control	0.6720999999999999	0.001	Yes	2.676	0.024	n/a	GoodResponse	0	n/a	n/a	7	60	Cue	Neutral	True
569.275	4.0	Control	0.6720999999999999	0.0	Yes	2.676	0.001	n/a	GoodResponse	0	n/a	n/a	7	60	Fixation	Neutral	True
573.271	0.39	Control	0.6720999999999999	0.003	Yes	2.676	-0.003	4.0	GoodResponse	0	0.273	572.544	7	60	Target	Neutral	True
573.544	0.3	Control	0.6720999999999999	0.003	Yes	2.676	-0.003	4.0	GoodResponse	0	0.273	n/a	7	60	ButtonPress	Neutral	True
573.672	0.31	Control	0.6720999999999999	n/a	Yes	2.676	n/a	n/a	GoodResponse	0	n/a	n/a	7	60	Blank	Neutral	True
573.973	1.45	Control	0.6720999999999999	n/a	Yes	2.676	n/a	5.0	GoodResponse	0	0.049	573.022	7	60	Feedback	Neutral	True
575.427	2.676	Control	0.6720999999999999	n/a	Yes	2.676	n/a	n/a	GoodResponse	0	0.0	n/a	7	60	ISIslide	Neutral	True
578.118	0.25	Lose2	0.6774	0.0	Yes	2.982	0.018	n/a	GoodResponse	0	n/a	n/a	7	61	Cue	AvoidedLoss	True
578.369	4.0	Lose2	0.6774	0.0	Yes	2.982	0.001	n/a	GoodResponse	0	n/a	n/a	7	61	Fixation	AvoidedLoss	True
582.364	0.38	Lose2	0.6774	0.004	Yes	2.982	-0.004	4.0	GoodResponse	0	0.197	581.561	7	61	Target	AvoidedLoss	True
582.561	0.3	Lose2	0.6774	0.004	Yes	2.982	-0.004	4.0	GoodResponse	0	0.197	n/a	7	61	ButtonPress	AvoidedLoss	True
582.749	0.32	Lose2	0.6774	n/a	Yes	2.982	n/a	n/a	GoodResponse	0	n/a	n/a	7	61	Blank	AvoidedLoss	True
583.067	1.45	Lose2	0.6774	n/a	Yes	2.982	n/a	5.0	GoodResponse	0	0.027	582.094	7	61	Feedback	AvoidedLoss	True
584.521	2.982	Lose2	0.6774	n/a	Yes	2.982	n/a	n/a	GoodResponse	0	0.0	n/a	7	61	ISIslide	AvoidedLoss	True
587.53	0.25	Lose2	0.6825	0.0	Yes	2.87	0.03	n/a	GoodResponse	0	n/a	n/a	7	62	Cue	AvoidedLoss	True
587.781	3.9	Lose2	0.6825	0.0	Yes	2.87	0.001	n/a	GoodResponse	0	n/a	n/a	7	62	Fixation	AvoidedLoss	True
591.676	0.37	Lose2	0.6825	0.004	Yes	2.87	-0.004	4.0	GoodResponse	0	0.231	590.907	7	62	Target	AvoidedLoss	True
591.907	0.3	Lose2	0.6825	0.004	Yes	2.87	-0.004	4.0	GoodResponse	0	0.231	n/a	7	62	ButtonPress	AvoidedLoss	True
592.06	0.33	Lose2	0.6825	n/a	Yes	2.87	n/a	n/a	GoodResponse	0	n/a	n/a	7	62	Blank	AvoidedLoss	True
592.378	1.45	Lose2	0.6825	n/a	Yes	2.87	n/a	5.0	GoodResponse	0	0.033	591.411	7	62	Feedback	AvoidedLoss	True
593.832	2.87	Lose2	0.6825	n/a	Yes	2.87	n/a	n/a	GoodResponse	0	0.0	n/a	7	62	ISIslide	AvoidedLoss	True
596.724	0.25	Lose2	0.6875	0.0	Yes	2.626	0.024	n/a	GoodResponse	0	n/a	n/a	7	63	Cue	AvoidedLoss	True
596.975	4.05	Lose2	0.6875	0.0	Yes	2.626	0.001	n/a	GoodResponse	0	n/a	n/a	7	63	Fixation	AvoidedLoss	True
601.02	0.36	Lose2	0.6875	0.004	Yes	2.626	-0.004	4.0	GoodResponse	0	0.23	600.25	7	63	Target	AvoidedLoss	True
601.25	0.3	Lose2	0.6875	0.004	Yes	2.626	-0.004	4.0	GoodResponse	0	0.23	n/a	7	63	ButtonPress	AvoidedLoss	True
601.388	0.34	Lose2	0.6875	n/a	Yes	2.626	n/a	n/a	GoodResponse	0	n/a	n/a	7	63	Blank	AvoidedLoss	True
601.722	1.45	Lose2	0.6875	n/a	Yes	2.626	n/a	5.0	GoodResponse	0	0.007	600.729	7	63	Feedback	AvoidedLoss	True
603.177	2.626	Lose2	0.6875	n/a	Yes	2.626	n/a	n/a	GoodResponse	0	0.0	n/a	7	63	ISIslide	AvoidedLoss	True
605.818	0.25	Win2	0.6923	0.0	Yes	3.132	0.018	n/a	GoodResponse	1	n/a	n/a	8	64	Cue	Win	True
606.069	4.15	Win2	0.6923	0.0	Yes	3.132	0.001	n/a	GoodResponse	1	n/a	n/a	8	64	Fixation	Win	True
610.215	0.35	Win2	0.6923	0.003	Yes	3.132	-0.003	4.0	GoodResponse	1	0.21	609.425	8	64	Target	Win	True
610.425	0.3	Win2	0.6923	0.003	Yes	3.132	-0.003	4.0	GoodResponse	1	0.21	n/a	8	64	ButtonPress	Win	True
610.566	0.35	Win2	0.6923	n/a	Yes	3.132	n/a	n/a	GoodResponse	1	n/a	n/a	8	64	Blank	Win	True
610.917	1.45	Win2	0.6923	n/a	Yes	3.132	n/a	5.0	GoodResponse	1	0.031	609.948	8	64	Feedback	Win	True
612.371	3.132	Win2	0.6923	n/a	Yes	3.132	n/a	n/a	GoodResponse	1	0.0	n/a	8	64	ISIslide	Win	True
615.531	0.25	Control	0.6970000000000001	0.0	Yes	2.769	0.031	n/a	GoodResponse	0	n/a	n/a	8	65	Cue	Neutral	True
615.781	4.0	Control	0.6970000000000001	0.0	Yes	2.769	0.0	n/a	GoodResponse	0	n/a	n/a	8	65	Fixation	Neutral	True
619.777	0.34	Control	0.6970000000000001	0.004	Yes	2.769	-0.004	4.0	GoodResponse	0	0.298	619.075	8	65	Target	Neutral	True
620.075	0.3	Control	0.6970000000000001	0.004	Yes	2.769	-0.004	4.0	GoodResponse	0	0.298	n/a	8	65	ButtonPress	Neutral	True
620.128	0.36	Control	0.6970000000000001	n/a	Yes	2.769	n/a	n/a	GoodResponse	0	n/a	n/a	8	65	Blank	Neutral	True
620.479	1.45	Control	0.6970000000000001	n/a	Yes	2.769	n/a	5.0	GoodResponse	0	0.03	619.509	8	65	Feedback	Neutral	True
621.933	2.769	Control	0.6970000000000001	n/a	Yes	2.769	n/a	n/a	GoodResponse	0	0.0	n/a	8	65	ISIslide	Neutral	True
624.725	0.25	Win2	0.7015	0.0	Yes	2.775	0.025	n/a	GoodResponse	1	n/a	n/a	9	66	Cue	Win	True
624.975	3.9	Win2	0.7015	0.001	Yes	2.775	0.0	n/a	GoodResponse	1	n/a	n/a	9	66	Fixation	Win	True
628.887	0.33	Win2	0.7015	0.0	Yes	2.775	0.012	4.0	GoodResponse	1	0.245	628.132	9	66	Target	Win	True
629.132	0.3	Win2	0.7015	0.0	Yes	2.775	0.012	4.0	GoodResponse	1	0.245	n/a	9	66	ButtonPress	Win	True
629.205	0.37	Win2	0.7015	n/a	Yes	2.775	n/a	n/a	GoodResponse	1	n/a	n/a	9	66	Blank	Win	True
629.573	1.45	Win2	0.7015	n/a	Yes	2.775	n/a	5.0	GoodResponse	1	0.009	628.582	9	66	Feedback	Win	True
631.027	2.775	Win2	0.7015	n/a	Yes	2.775	n/a	n/a	GoodResponse	1	0.0	n/a	9	66	ISIslide	Win	True
633.819	0.25	Control	0.7059000000000001	0.0	Yes	2.731	0.019	n/a	GoodResponse	0	n/a	n/a	9	67	Cue	Neutral	True
634.069	3.95	Control	0.7059000000000001	0.0	Yes	2.731	0.0	n/a	GoodResponse	0	n/a	n/a	9	67	Fixation	Neutral	True
638.015	0.32	Control	0.7059000000000001	0.004	Yes	2.731	-0.004	4.0	GoodResponse	0	0.236	637.251	9	67	Target	Neutral	True
638.251	0.3	Control	0.7059000000000001	0.004	Yes	2.731	-0.004	4.0	GoodResponse	0	0.236	n/a	9	67	ButtonPress	Neutral	True
638.349	0.38	Control	0.7059000000000001	n/a	Yes	2.731	n/a	n/a	GoodResponse	0	n/a	n/a	9	67	Blank	Neutral	True
638.717	1.45	Control	0.7059000000000001	n/a	Yes	2.731	n/a	5.0	GoodResponse	0	0.035	637.752	9	67	Feedback	Neutral	True
640.171	2.731	Control	0.7059000000000001	n/a	Yes	2.731	n/a	n/a	GoodResponse	0	0.0	n/a	9	67	ISIslide	Neutral	True
642.929	0.25	Win2	0.7101000000000001	0.0	Yes	3.071	0.029	n/a	GoodResponse	1	n/a	n/a	10	68	Cue	Win	True
643.18	4.0	Win2	0.7101000000000001	0.0	Yes	3.071	0.001	n/a	GoodResponse	1	n/a	n/a	10	68	Fixation	Win	True
647.175	0.31	Win2	0.7101000000000001	0.004	Yes	3.071	-0.004	4.0	GoodResponse	1	0.205	646.38	10	68	Target	Win	True
647.38	0.3	Win2	0.7101000000000001	0.004	Yes	3.071	-0.004	4.0	GoodResponse	1	0.205	n/a	10	68	ButtonPress	Win	True
647.493	0.39	Win2	0.7101000000000001	n/a	Yes	3.071	n/a	n/a	GoodResponse	1	n/a	n/a	10	68	Blank	Win	True
647.877	1.45	Win2	0.7101000000000001	n/a	Yes	3.071	n/a	5.0	GoodResponse	1	0.046	646.923	10	68	Feedback	Win	True
649.332	3.071	Win2	0.7101000000000001	n/a	Yes	3.071	n/a	n/a	GoodResponse	1	0.0	n/a	10	68	ISIslide	Win	True
652.424	0.25	Win2	0.7	0.0	No	3.226	0.024	n/a	NoResponse	0	n/a	n/a	10	69	Cue	MissedWin	False
652.675	3.95	Win2	0.7	0.0	No	3.226	0.001	n/a	NoResponse	0	n/a	n/a	10	69	Fixation	MissedWin	False
656.62	0.3	Win2	0.7	0.004	No	3.226	-0.004	n/a	NoResponse	0	n/a	n/a	10	69	Target	MissedWin	False
656.921	0.4	Win2	0.7	n/a	No	3.226	n/a	n/a	NoResponse	0	n/a	n/a	10	69	Blank	MissedWin	False
657.322	1.45	Win2	0.7	n/a	No	3.226	n/a	5.0	NoResponse	0	0.016	656.338	10	69	Feedback	MissedWin	False
658.777	3.226	Win2	0.7	n/a	No	3.226	n/a	n/a	NoResponse	0	0.0	n/a	10	69	ISIslide	MissedWin	False
662.02	0.25	Lose2	0.7042	0.0	Yes	3.03	0.02	n/a	GoodResponse	0	n/a	n/a	10	70	Cue	AvoidedLoss	True
662.271	4.05	Lose2	0.7042	0.0	Yes	3.03	0.001	n/a	GoodResponse	0	n/a	n/a	10	70	Fixation	AvoidedLoss	True
666.316	0.29	Lose2	0.7042	0.004	Yes	3.03	-0.004	4.0	GoodResponse	0	0.224	665.54	10	70	Target	AvoidedLoss	True
666.54	0.3	Lose2	0.7042	0.004	Yes	3.03	-0.004	4.0	GoodResponse	0	0.224	n/a	10	70	ButtonPress	AvoidedLoss	True
666.617	0.41	Lose2	0.7042	n/a	Yes	3.03	n/a	n/a	GoodResponse	0	n/a	n/a	10	70	Blank	AvoidedLoss	True
667.018	1.45	Lose2	0.7042	n/a	Yes	3.03	n/a	5.0	GoodResponse	0	0.027	666.045	10	70	Feedback	AvoidedLoss	True
668.472	3.03	Lose2	0.7042	n/a	Yes	3.03	n/a	n/a	GoodResponse	0	0.0	n/a	10	70	ISIslide	AvoidedLoss	True
671.515	0.25	Win2	0.7082999999999999	0.0	Yes	2.735	0.015	n/a	GoodResponse	1	n/a	n/a	11	71	Cue	Win	True
671.766	4.05	Win2	0.7082999999999999	0.0	Yes	2.735	0.001	n/a	GoodResponse	1	n/a	n/a	11	71	Fixation	Win	True
675.811	0.28	Win2	0.7082999999999999	0.004	Yes	2.735	-0.004	4.0	GoodResponse	1	0.222	675.033	11	71	Target	Win	True
676.033	0.3	Win2	0.7082999999999999	0.004	Yes	2.735	-0.004	4.0	GoodResponse	1	0.222	n/a	11	71	ButtonPress	Win	True
676.095	0.42	Win2	0.7082999999999999	n/a	Yes	2.735	n/a	n/a	GoodResponse	1	n/a	n/a	11	71	Blank	Win	True
676.513	1.45	Win2	0.7082999999999999	n/a	Yes	2.735	n/a	5.0	GoodResponse	1	0.044	675.557	11	71	Feedback	Win	True
677.968	2.735	Win2	0.7082999999999999	n/a	Yes	2.735	n/a	n/a	GoodResponse	1	0.0	n/a	11	71	ISIslide	Win	True
680.726	0.25	Win2	0.7123	0.0	Yes	2.774	0.026	n/a	GoodResponse	1	n/a	n/a	12	72	Cue	Win	True
680.977	4.1	Win2	0.7123	0.0	Yes	2.774	0.001	n/a	GoodResponse	1	n/a	n/a	12	72	Fixation	Win	True
685.072	0.27	Win2	0.7123	0.004	Yes	2.774	-0.004	4.0	GoodResponse	1	0.236	684.308	12	72	Target	Win	True
685.308	0.3	Win2	0.7123	0.004	Yes	2.774	-0.004	4.0	GoodResponse	1	0.236	n/a	12	72	ButtonPress	Win	True
685.356	0.43	Win2	0.7123	n/a	Yes	2.774	n/a	n/a	GoodResponse	1	n/a	n/a	12	72	Blank	Win	True
685.774	1.45	Win2	0.7123	n/a	Yes	2.774	n/a	5.0	GoodResponse	1	0.005	684.779	12	72	Feedback	Win	True
687.229	2.774	Win2	0.7123	n/a	Yes	2.774	n/a	n/a	GoodResponse	1	0.0	n/a	12	72	ISIslide	Win	True
690.02	0.25	Win2	0.7027	0.0	No	2.68	0.02	n/a	LatePress	0	n/a	n/a	12	73	Cue	MissedWin	True
690.271	4.0	Win2	0.7027	0.0	No	2.68	0.001	n/a	LatePress	0	n/a	n/a	12	73	Fixation	MissedWin	True
694.266	0.26	Win2	0.7027	0.004	No	2.68	-0.004	4.0	LatePress	0	0.262	693.528	12	73	Target	MissedWin	True
694.528	0.3	Win2	0.7027	0.004	No	2.68	-0.004	4.0	LatePress	0	0.262	n/a	12	73	ButtonPress	MissedWin	True
694.534	0.44	Win2	0.7027	n/a	No	2.68	n/a	n/a	LatePress	0	n/a	n/a	12	73	Blank	MissedWin	True
694.969	1.45	Win2	0.7027	n/a	No	2.68	n/a	5.0	LatePress	0	0.028	693.997	12	73	Feedback	MissedWin	True
696.423	2.68	Win2	0.7027	n/a	No	2.68	n/a	n/a	LatePress	0	0.0	n/a	12	73	ISIslide	MissedWin	True
699.114	0.25	Lose2	0.7067	0.0	Yes	2.636	0.014	n/a	GoodResponse	0	n/a	n/a	12	74	Cue	AvoidedLoss	True
699.365	4.05	Lose2	0.7067	0.0	Yes	2.636	0.001	n/a	GoodResponse	0	n/a	n/a	12	74	Fixation	AvoidedLoss	True
703.41	0.25	Lose2	0.7067	0.004	Yes	2.636	-0.004	4.0	GoodResponse	0	0.204	702.614	12	74	Target	AvoidedLoss	True
703.614	0.3	Lose2	0.7067	0.004	Yes	2.636	-0.004	4.0	GoodResponse	0	0.204	n/a	12	74	ButtonPress	AvoidedLoss	True
703.661	0.45	Lose2	0.7067	n/a	Yes	2.636	n/a	n/a	GoodResponse	0	n/a	n/a	12	74	Blank	AvoidedLoss	True
704.113	1.45	Lose2	0.7067	n/a	Yes	2.636	n/a	5.0	GoodResponse	0	0.005	703.118	12	74	Feedback	AvoidedLoss	True
705.567	2.636	Lose2	0.7067	n/a	Yes	2.636	n/a	n/a	GoodResponse	0	0.0	n/a	12	74	ISIslide	AvoidedLoss	True
708.225	0.25	Lose2	0.7105	0.0	Yes	2.925	0.025	n/a	GoodResponse	0	n/a	n/a	12	75	Cue	AvoidedLoss	True
708.476	3.95	Lose2	0.7105	0.0	Yes	2.925	0.001	n/a	GoodResponse	0	n/a	n/a	12	75	Fixation	AvoidedLoss	True
712.421	0.24	Lose2	0.7105	0.004	Yes	2.925	-0.004	4.0	GoodResponse	0	0.204	711.625	12	75	Target	AvoidedLoss	True
712.625	0.3	Lose2	0.7105	0.004	Yes	2.925	-0.004	4.0	GoodResponse	0	0.204	n/a	12	75	ButtonPress	AvoidedLoss	True
712.672	0.46	Lose2	0.7105	n/a	Yes	2.925	n/a	n/a	GoodResponse	0	n/a	n/a	12	75	Blank	AvoidedLoss	True
713.123	1.45	Lose2	0.7105	n/a	Yes	2.925	n/a	5.0	GoodResponse	0	0.019	712.142	12	75	Feedback	AvoidedLoss	True
714.577	2.925	Lose2	0.7105	n/a	Yes	2.925	n/a	n/a	GoodResponse	0	0.0	n/a	12	75	ISIslide	AvoidedLoss	True
717.519	0.25	Control	0.7143	0.001	Yes	3.231	0.019	n/a	GoodResponse	0	n/a	n/a	12	76	Cue	Neutral	True
717.77	4.05	Control	0.7143	0.0	Yes	3.231	0.001	n/a	GoodResponse	0	n/a	n/a	12	76	Fixation	Neutral	True
721.816	0.23	Control	0.7143	0.003	Yes	3.231	-0.003	4.0	GoodResponse	0	0.218	721.034	12	76	Target	Neutral	True
722.034	0.3	Control	0.7143	0.003	Yes	3.231	-0.003	4.0	GoodResponse	0	0.218	n/a	12	76	ButtonPress	Neutral	True
722.05	0.47	Control	0.7143	n/a	Yes	3.231	n/a	n/a	GoodResponse	0	n/a	n/a	12	76	Blank	Neutral	True
722.518	1.45	Control	0.7143	n/a	Yes	3.231	n/a	5.0	GoodResponse	0	0.039	721.557	12	76	Feedback	Neutral	True
723.972	3.231	Control	0.7143	n/a	Yes	3.231	n/a	n/a	GoodResponse	0	0.0	n/a	12	76	ISIslide	Neutral	True
727.215	0.25	Lose2	0.7179000000000001	0.0	Yes	2.585	0.015	n/a	GoodResponse	0	n/a	n/a	12	77	Cue	AvoidedLoss	True
727.466	3.95	Lose2	0.7179000000000001	0.0	Yes	2.585	0.001	n/a	GoodResponse	0	n/a	n/a	12	77	Fixation	AvoidedLoss	True
731.411	0.22	Lose2	0.7179000000000001	0.004	Yes	2.585	-0.004	4.0	GoodResponse	0	0.205	730.616	12	77	Target	AvoidedLoss	True
731.616	0.3	Lose2	0.7179000000000001	0.004	Yes	2.585	-0.004	4.0	GoodResponse	0	0.205	n/a	12	77	ButtonPress	AvoidedLoss	True
731.645	0.48	Lose2	0.7179000000000001	n/a	Yes	2.585	n/a	n/a	GoodResponse	0	n/a	n/a	12	77	Blank	AvoidedLoss	True
732.113	1.45	Lose2	0.7179000000000001	n/a	Yes	2.585	n/a	5.0	GoodResponse	0	0.005	731.118	12	77	Feedback	AvoidedLoss	True
733.568	2.585	Lose2	0.7179000000000001	n/a	Yes	2.585	n/a	n/a	GoodResponse	0	0.0	n/a	12	77	ISIslide	AvoidedLoss	True
