onset	duration	cue_type	current_mean_accuracy	duration_error	is_hit	isi_adjusted	onset_delay	response	response_type	reward	rt	rt_time	total_reward	trial_number	trial_phase	trial_type	one_press
11.1	0.25	Control	1.0	0.0	Yes	2.95	0.0	n/a	GoodResponse	0	n/a	n/a	0	0	Cue	Neutral	True
11.351	3.85	Control	1.0	0.0	Yes	2.95	0.001	n/a	GoodResponse	0	n/a	n/a	0	0	Fixation	Neutral	True
15.196	0.4	Control	1.0	0.004	Yes	2.95	-0.004	2.0	GoodResponse	0	0.292	14.488	0	0	Target	Neutral	True
15.488	0.3	Control	1.0	0.004	Yes	2.95	-0.004	2.0	GoodResponse	0	0.292	n/a	0	0	ButtonPress	Neutral	True
15.597	0.3	Control	1.0	n/a	Yes	2.95	n/a	n/a	GoodResponse	0	n/a	n/a	0	0	Blank	Neutral	True
15.898	1.45	Control	1.0	n/a	Yes	2.95	n/a	5.0	GoodResponse	0	0.028	14.926	0	0	Feedback	Neutral	True
17.352	2.95	Control	1.0	n/a	Yes	2.95	n/a	n/a	GoodResponse	0	0.0	n/a	0	0	ISIslide	Neutral	True
20.328	0.25	Lose2	1.0	0.0	Yes	2.772	0.028	n/a	GoodResponse	0	n/a	n/a	0	1	Cue	AvoidedLoss	True
20.578	4.0	Lose2	1.0	0.0	Yes	2.772	0.0	n/a	GoodResponse	0	n/a	n/a	0	1	Fixation	AvoidedLoss	True
24.574	0.39	Lose2	1.0	0.004	Yes	2.772	-0.004	2.0	GoodResponse	0	0.293	23.867	0	1	Target	AvoidedLoss	True
24.867	0.3	Lose2	1.0	0.004	Yes	2.772	-0.004	2.0	GoodResponse	0	0.293	n/a	0	1	ButtonPress	AvoidedLoss	True
24.975	0.31	Lose2	1.0	n/a	Yes	2.772	n/a	n/a	GoodResponse	0	n/a	n/a	0	1	Blank	AvoidedLoss	True
25.276	1.45	Lose2	1.0	n/a	Yes	2.772	n/a	5.0	GoodResponse	0	0.015	24.291	0	1	Feedback	AvoidedLoss	True
26.73	2.772	Lose2	1.0	n/a	Yes	2.772	n/a	n/a	GoodResponse	0	0.0	n/a	0	1	ISIslide	AvoidedLoss	True
29.522	0.25	Control	1.0	0.0	Yes	2.578	0.022	n/a	GoodResponse	0	n/a	n/a	0	2	Cue	Neutral	True
29.772	4.1	Control	1.0	0.001	Yes	2.578	0.0	n/a	GoodResponse	0	n/a	n/a	0	2	Fixation	Neutral	True
33.868	0.38	Control	1.0	0.004	Yes	2.578	-0.004	2.0	GoodResponse	0	0.239	33.107	0	2	Target	Neutral	True
34.107	0.3	Control	1.0	0.004	Yes	2.578	-0.004	2.0	GoodResponse	0	0.239	n/a	0	2	ButtonPress	Neutral	True
34.253	0.32	Control	1.0	n/a	Yes	2.578	n/a	n/a	GoodResponse	0	n/a	n/a	0	2	Blank	Neutral	True
34.57	1.45	Control	1.0	n/a	Yes	2.578	n/a	5.0	GoodResponse	0	0.038	33.608	0	2	Feedback	Neutral	True
36.024	2.578	Control	1.0	n/a	Yes	2.578	n/a	n/a	GoodResponse	0	0.0	n/a	0	2	ISIslide	Neutral	True
38.616	0.25	Win2	1.0	0.0	Yes	2.834	0.016	n/a	GoodResponse	1	n/a	n/a	1	3	Cue	Win	True
38.866	3.95	Win2	1.0	0.0	Yes	2.834	0.0	n/a	GoodResponse	1	n/a	n/a	1	3	Fixation	Win	True
42.811	0.37	Win2	1.0	0.005	Yes	2.834	-0.005	2.0	GoodResponse	1	0.213	42.024	1	3	Target	Win	True
43.024	0.3	Win2	1.0	0.005	Yes	2.834	-0.005	2.0	GoodResponse	1	0.213	n/a	1	3	ButtonPress	Win	True
43.196	0.33	Win2	1.0	n/a	Yes	2.834	n/a	n/a	GoodResponse	1	n/a	n/a	1	3	Blank	Win	True
43.514	1.45	Win2	1.0	n/a	Yes	2.834	n/a	5.0	GoodResponse	1	0.021	42.535	1	3	Feedback	Win	True
44.968	2.834	Win2	1.0	n/a	Yes	2.834	n/a	n/a	GoodResponse	1	0.0	n/a	1	3	ISIslide	Win	True
47.826	0.25	Win2	1.0	0.0	Yes	3.274	0.026	n/a	GoodResponse	1	n/a	n/a	2	4	Cue	Win	True
48.077	4.0	Win2	1.0	0.0	Yes	3.274	0.001	n/a	GoodResponse	1	n/a	n/a	2	4	Fixation	Win	True
52.072	0.36	Win2	1.0	0.004	Yes	3.274	-0.004	2.0	GoodResponse	1	0.253	51.325	2	4	Target	Win	True
52.325	0.3	Win2	1.0	0.004	Yes	3.274	-0.004	2.0	GoodResponse	1	0.253	n/a	2	4	ButtonPress	Win	True
52.44	0.34	Win2	1.0	n/a	Yes	3.274	n/a	n/a	GoodResponse	1	n/a	n/a	2	4	Blank	Win	True
52.775	1.45	Win2	1.0	n/a	Yes	3.274	n/a	5.0	GoodResponse	1	0.029	51.804	2	4	Feedback	Win	True
54.229	3.274	Win2	1.0	n/a	Yes	3.274	n/a	n/a	GoodResponse	1	0.0	n/a	2	4	ISIslide	Win	True
57.522	0.25	Win2	1.0	0.0	Yes	2.778	0.022	n/a	GoodResponse	1	n/a	n/a	3	5	Cue	Win	True
57.773	4.0	Win2	1.0	0.0	Yes	2.778	0.001	n/a	GoodResponse	1	n/a	n/a	3	5	Fixation	Win	True
61.768	0.35	Win2	1.0	0.004	Yes	2.778	-0.004	2.0	GoodResponse	1	0.297	61.065	3	5	Target	Win	True
62.065	0.3	Win2	1.0	0.004	Yes	2.778	-0.004	2.0	GoodResponse	1	0.297	n/a	3	5	ButtonPress	Win	True
62.119	0.35	Win2	1.0	n/a	Yes	2.778	n/a	n/a	GoodResponse	1	n/a	n/a	3	5	Blank	Win	True
62.47	1.45	Win2	1.0	n/a	Yes	2.778	n/a	5.0	GoodResponse	1	0.04	61.51	3	5	Feedback	Win	True
63.924	2.778	Win2	1.0	n/a	Yes	2.778	n/a	n/a	GoodResponse	1	0.0	n/a	3	5	ISIslide	Win	True
66.716	0.25	Lose2	1.0	0.0	Yes	2.734	0.016	n/a	GoodResponse	0	n/a	n/a	3	6	Cue	AvoidedLoss	True
66.967	3.95	Lose2	1.0	0.0	Yes	2.734	0.001	n/a	GoodResponse	0	n/a	n/a	3	6	Fixation	AvoidedLoss	True
70.912	0.34	Lose2	1.0	0.004	Yes	2.734	-0.004	2.0	GoodResponse	0	0.231	70.143	3	6	Target	AvoidedLoss	True
71.143	0.3	Lose2	1.0	0.004	Yes	2.734	-0.004	2.0	GoodResponse	0	0.231	n/a	3	6	ButtonPress	AvoidedLoss	True
71.263	0.36	Lose2	1.0	n/a	Yes	2.734	n/a	n/a	GoodResponse	0	n/a	n/a	3	6	Blank	AvoidedLoss	True
71.614	1.45	Lose2	1.0	n/a	Yes	2.734	n/a	5.0	GoodResponse	0	0.018	70.632	3	6	Feedback	AvoidedLoss	True
73.068	2.734	Lose2	1.0	n/a	Yes	2.734	n/a	n/a	GoodResponse	0	0.0	n/a	3	6	ISIslide	AvoidedLoss	True
75.827	0.25	Lose2	1.0	0.0	Yes	4.023	0.027	n/a	GoodResponse	0	n/a	n/a	3	7	Cue	AvoidedLoss	False
76.077	4.05	Lose2	1.0	0.001	Yes	4.023	0.0	2.0	GoodResponse	0	0.056	75.133	3	7	Fixation	AvoidedLoss	False
76.133	0.3	Lose2	1.0	0.001	Yes	4.023	0.0	2.0	GoodResponse	0	0.056	n/a	3	7	ButtonPress	AvoidedLoss	False
80.123	0.33	Lose2	1.0	0.004	Yes	4.023	-0.004	2.0	GoodResponse	0	0.322	79.445	3	7	Target	AvoidedLoss	False
80.445	0.3	Lose2	1.0	0.004	Yes	4.023	-0.004	2.0	GoodResponse	0	0.322	n/a	3	7	ButtonPress	AvoidedLoss	False
80.457	0.37	Lose2	1.0	n/a	Yes	4.023	n/a	n/a	GoodResponse	0	n/a	n/a	3	7	Blank	AvoidedLoss	False
80.825	1.45	Lose2	1.0	n/a	Yes	4.023	n/a	5.0	GoodResponse	0	0.027	79.852	3	7	Feedback	AvoidedLoss	False
82.279	4.023	Lose2	1.0	n/a	Yes	4.023	n/a	n/a	GoodResponse	0	0.0	n/a	3	7	ISIslide	AvoidedLoss	False
86.325	0.25	Lose2	1.0	0.0	Yes	3.025	0.025	n/a	GoodResponse	0	n/a	n/a	3	8	Cue	AvoidedLoss	True
86.575	3.95	Lose2	1.0	0.001	Yes	3.025	0.0	n/a	GoodResponse	0	n/a	n/a	3	8	Fixation	AvoidedLoss	True
90.521	0.32	Lose2	1.0	0.004	Yes	3.025	-0.004	2.0	GoodResponse	0	0.245	89.766	3	8	Target	AvoidedLoss	True
90.766	0.3	Lose2	1.0	0.004	Yes	3.025	-0.004	2.0	GoodResponse	0	0.245	n/a	3	8	ButtonPress	AvoidedLoss	True
90.855	0.38	Lose2	1.0	n/a	Yes	3.025	n/a	n/a	GoodResponse	0	n/a	n/a	3	8	Blank	AvoidedLoss	True
91.223	1.45	Lose2	1.0	n/a	Yes	3.025	n/a	5.0	GoodResponse	0	0.019	90.242	3	8	Feedback	AvoidedLoss	True
92.677	3.025	Lose2	1.0	n/a	Yes	3.025	n/a	n/a	GoodResponse	0	0.0	n/a	3	8	ISIslide	AvoidedLoss	True
95.719	0.25	Lose2	0.9	0.0	No	3.131	0.019	n/a	NoResponse	-1	n/a	n/a	2	9	Cue	Loss	True
95.97	3.95	Lose2	0.9	0.0	No	3.131	0.001	n/a	NoResponse	-1	n/a	n/a	2	9	Fixation	Loss	True
99.915	0.31	Lose2	0.9	0.004	No	3.131	-0.004	2.0	NoResponse	-1	0.37	99.285	2	9	Target	Loss	True
100.233	0.39	Lose2	0.9	n/a	No	3.131	n/a	n/a	NoResponse	-1	n/a	n/a	2	9	Blank	Loss	True
100.285	0.3	Lose2	0.9	0.004	No	3.131	-0.004	2.0	NoResponse	-1	0.37	n/a	2	9	ButtonPress	Loss	True
100.617	1.45	Lose2	0.9	n/a	No	3.131	n/a	5.0	NoResponse	-1	0.039	99.656	2	9	Feedback	Loss	True
102.072	3.131	Lose2	0.9	n/a	No	3.131	n/a	n/a	NoResponse	-1	0.0	n/a	2	9	ISIslide	Loss	True
105.214	0.25	Control	0.8181999999999999	0.001	No	3.286	0.014	n/a	NoResponse	0	n/a	n/a	2	10	Cue	Neutral	True
105.465	4.0	Control	0.8181999999999999	0.0	No	3.286	0.001	n/a	NoResponse	0	n/a	n/a	2	10	Fixation	Neutral	True
109.46	0.3	Control	0.8181999999999999	0.004	No	3.286	-0.004	2.0	NoResponse	0	0.319	108.779	2	10	Target	Neutral	True
109.761	0.4	Control	0.8181999999999999	n/a	No	3.286	n/a	n/a	NoResponse	0	n/a	n/a	2	10	Blank	Neutral	True
109.779	0.3	Control	0.8181999999999999	0.004	No	3.286	-0.004	2.0	NoResponse	0	0.319	n/a	2	10	ButtonPress	Neutral	True
110.163	1.45	Control	0.8181999999999999	n/a	No	3.286	n/a	5.0	NoResponse	0	0.005	109.168	2	10	Feedback	Neutral	True
111.617	3.286	Control	0.8181999999999999	n/a	No	3.286	n/a	n/a	NoResponse	0	0.0	n/a	2	10	ISIslide	Neutral	True
114.927	0.25	Lose2	0.75	0.0	No	2.723	0.027	n/a	NoResponse	-1	n/a	n/a	1	11	Cue	Loss	True
115.178	4.05	Lose2	0.75	0.0	No	2.723	0.001	n/a	NoResponse	-1	n/a	n/a	1	11	Fixation	Loss	True
119.223	0.29	Lose2	0.75	0.004	No	2.723	-0.004	2.0	NoResponse	-1	0.311	118.534	1	11	Target	Loss	True
119.524	0.41	Lose2	0.75	n/a	No	2.723	n/a	n/a	NoResponse	-1	n/a	n/a	1	11	Blank	Loss	True
119.534	0.3	Lose2	0.75	0.004	No	2.723	-0.004	2.0	NoResponse	-1	0.311	n/a	1	11	ButtonPress	Loss	True
119.925	1.45	Lose2	0.75	n/a	No	2.723	n/a	5.0	NoResponse	-1	0.048	118.973	1	11	Feedback	Loss	True
121.379	2.723	Lose2	0.75	n/a	No	2.723	n/a	n/a	NoResponse	-1	0.0	n/a	1	11	ISIslide	Loss	True
124.121	0.25	Control	0.6923	0.0	No	2.979	0.021	n/a	NoResponse	0	n/a	n/a	1	12	Cue	Neutral	True
124.372	3.9	Control	0.6923	0.0	No	2.979	0.001	n/a	NoResponse	0	n/a	n/a	1	12	Fixation	Neutral	True
128.267	0.28	Control	0.6923	0.004	No	2.979	-0.004	2.0	NoResponse	0	0.436	127.703	1	12	Target	Neutral	True
128.551	0.42	Control	0.6923	n/a	No	2.979	n/a	n/a	NoResponse	0	n/a	n/a	1	12	Blank	Neutral	True
128.703	0.3	Control	0.6923	0.004	No	2.979	-0.004	2.0	NoResponse	0	0.436	n/a	1	12	ButtonPress	Neutral	True
128.969	1.45	Control	0.6923	n/a	No	2.979	n/a	5.0	NoResponse	0	0.029	127.998	1	12	Feedback	Neutral	True
130.423	2.979	Control	0.6923	n/a	No	2.979	n/a	n/a	NoResponse	0	0.0	n/a	1	12	ISIslide	Neutral	True
133.415	0.25	Control	0.6429	0.0	No	2.785	0.015	n/a	NoResponse	0	n/a	n/a	1	13	Cue	Neutral	True
133.666	4.0	Control	0.6429	0.0	No	2.785	0.001	n/a	NoResponse	0	n/a	n/a	1	13	Fixation	Neutral	True
137.661	0.27	Control	0.6429	0.004	No	2.785	-0.004	2.0	NoResponse	0	0.41	137.071	1	13	Target	Neutral	True
137.946	0.43	Control	0.6429	n/a	No	2.785	n/a	n/a	NoResponse	0	n/a	n/a	1	13	Blank	Neutral	True
138.071	0.3	Control	0.6429	0.004	No	2.785	-0.004	2.0	NoResponse	0	0.41	n/a	1	13	ButtonPress	Neutral	True
138.363	1.45	Control	0.6429	n/a	No	2.785	n/a	5.0	NoResponse	0	0.049	137.412	1	13	Feedback	Neutral	True
139.818	2.785	Control	0.6429	n/a	No	2.785	n/a	n/a	NoResponse	0	0.0	n/a	1	13	ISIslide	Neutral	True
142.626	0.25	Win2	0.6667000000000001	0.0	Yes	2.674	0.026	n/a	GoodResponse	1	n/a	n/a	2	14	Cue	Win	True
142.877	4.1	Win2	0.6667000000000001	0.0	Yes	2.674	0.001	n/a	GoodResponse	1	n/a	n/a	2	14	Fixation	Win	True
146.972	0.28	Win2	0.6667000000000001	0.004	Yes	2.674	-0.004	2.0	GoodResponse	1	0.205	146.177	2	14	Target	Win	True
147.177	0.3	Win2	0.6667000000000001	0.004	Yes	2.674	-0.004	2.0	GoodResponse	1	0.205	n/a	2	14	ButtonPress	Win	True
147.257	0.42	Win2	0.6667000000000001	n/a	Yes	2.674	n/a	n/a	GoodResponse	1	n/a	n/a	2	14	Blank	Win	True
147.675	1.45	Win2	0.6667000000000001	n/a	Yes	2.674	n/a	5.0	GoodResponse	1	0.005	146.68	2	14	Feedback	Win	True
149.129	2.674	Win2	0.6667000000000001	n/a	Yes	2.674	n/a	n/a	GoodResponse	1	0.0	n/a	2	14	ISIslide	Win	True
151.82	0.25	Control	0.6875	0.0	Yes	2.98	0.02	n/a	GoodResponse	0	n/a	n/a	2	15	Cue	Neutral	True
152.071	4.0	Control	0.6875	0.0	Yes	2.98	0.001	n/a	GoodResponse	0	n/a	n/a	2	15	Fixation	Neutral	True
156.066	0.27	Control	0.6875	0.004	Yes	2.98	-0.004	2.0	GoodResponse	0	0.233	155.299	2	15	Target	Neutral	True
156.299	0.3	Control	0.6875	0.004	Yes	2.98	-0.004	2.0	GoodResponse	0	0.233	n/a	2	15	ButtonPress	Neutral	True
156.351	0.43	Control	0.6875	n/a	Yes	2.98	n/a	n/a	GoodResponse	0	n/a	n/a	2	15	Blank	Neutral	True
156.768	1.45	Control	0.6875	n/a	Yes	2.98	n/a	5.0	GoodResponse	0	0.034	155.802	2	15	Feedback	Neutral	True
158.223	2.98	Control	0.6875	n/a	Yes	2.98	n/a	n/a	GoodResponse	0	0.0	n/a	2	15	ISIslide	Neutral	True
161.215	0.25	Win2	0.6470999999999999	0.0	No	2.885	0.015	n/a	NoResponse	0	n/a	n/a	2	16	Cue	MissedWin	True
161.466	4.0	Win2	0.6470999999999999	0.0	No	2.885	0.001	n/a	NoResponse	0	n/a	n/a	2	16	Fixation	MissedWin	True
165.461	0.26	Win2	0.6470999999999999	0.004	No	2.885	-0.004	2.0	NoResponse	0	0.314	164.775	2	16	Target	MissedWin	True
165.729	0.44	Win2	0.6470999999999999	n/a	No	2.885	n/a	n/a	NoResponse	0	n/a	n/a	2	16	Blank	MissedWin	True
165.775	0.3	Win2	0.6470999999999999	0.004	No	2.885	-0.004	2.0	NoResponse	0	0.314	n/a	2	16	ButtonPress	MissedWin	True
166.163	1.45	Win2	0.6470999999999999	n/a	No	2.885	n/a	5.0	NoResponse	0	0.007	165.17	2	16	Feedback	MissedWin	True
167.617	2.885	Win2	0.6470999999999999	n/a	No	2.885	n/a	n/a	NoResponse	0	0.0	n/a	2	16	ISIslide	MissedWin	True
170.526	0.25	Lose2	0.6667000000000001	0.0	Yes	2.724	0.026	n/a	GoodResponse	0	n/a	n/a	2	17	Cue	AvoidedLoss	True
170.777	3.95	Lose2	0.6667000000000001	0.0	Yes	2.724	0.001	n/a	GoodResponse	0	n/a	n/a	2	17	Fixation	AvoidedLoss	True
174.722	0.27	Lose2	0.6667000000000001	0.004	Yes	2.724	-0.004	2.0	GoodResponse	0	0.254	173.976	2	17	Target	AvoidedLoss	True
174.976	0.3	Lose2	0.6667000000000001	0.004	Yes	2.724	-0.004	2.0	GoodResponse	0	0.254	n/a	2	17	ButtonPress	AvoidedLoss	True
175.006	0.43	Lose2	0.6667000000000001	n/a	Yes	2.724	n/a	n/a	GoodResponse	0	n/a	n/a	2	17	Blank	AvoidedLoss	True
175.424	1.45	Lose2	0.6667000000000001	n/a	Yes	2.724	n/a	5.0	GoodResponse	0	0.011	174.435	2	17	Feedback	AvoidedLoss	True
176.878	2.724	Lose2	0.6667000000000001	n/a	Yes	2.724	n/a	n/a	GoodResponse	0	0.0	n/a	2	17	ISIslide	AvoidedLoss	True
179.62	0.25	Lose2	0.6842	0.0	Yes	2.73	0.02	n/a	GoodResponse	0	n/a	n/a	2	18	Cue	AvoidedLoss	True
179.871	4.05	Lose2	0.6842	0.0	Yes	2.73	0.001	n/a	GoodResponse	0	n/a	n/a	2	18	Fixation	AvoidedLoss	True
183.916	0.26	Lose2	0.6842	0.004	Yes	2.73	-0.004	2.0	GoodResponse	0	0.253	183.169	2	18	Target	AvoidedLoss	True
184.169	0.3	Lose2	0.6842	0.004	Yes	2.73	-0.004	2.0	GoodResponse	0	0.253	n/a	2	18	ButtonPress	AvoidedLoss	True
184.184	0.44	Lose2	0.6842	n/a	Yes	2.73	n/a	n/a	GoodResponse	0	n/a	n/a	2	18	Blank	AvoidedLoss	True
184.618	1.45	Lose2	0.6842	n/a	Yes	2.73	n/a	5.0	GoodResponse	0	0.037	183.655	2	18	Feedback	AvoidedLoss	True
186.073	2.73	Lose2	0.6842	n/a	Yes	2.73	n/a	n/a	GoodResponse	0	0.0	n/a	2	18	ISIslide	AvoidedLoss	True
188.814	0.25	Control	0.65	0.0	No	2.936	0.014	n/a	NoResponse	0	n/a	n/a	2	19	Cue	Neutral	True
189.065	3.95	Control	0.65	0.0	No	2.936	0.001	n/a	NoResponse	0	n/a	n/a	2	19	Fixation	Neutral	True
193.01	0.25	Control	0.65	0.004	No	2.936	-0.004	2.0	NoResponse	0	0.261	192.271	2	19	Target	Neutral	True
193.261	0.45	Control	0.65	n/a	No	2.936	n/a	n/a	NoResponse	0	n/a	n/a	2	19	Blank	Neutral	True
193.271	0.3	Control	0.65	0.004	No	2.936	-0.004	2.0	NoResponse	0	0.261	n/a	2	19	ButtonPress	Neutral	True
193.712	1.45	Control	0.65	n/a	No	2.936	n/a	5.0	NoResponse	0	0.016	192.728	2	19	Feedback	Neutral	True
195.166	2.936	Control	0.65	n/a	No	2.936	n/a	n/a	NoResponse	0	0.0	n/a	2	19	ISIslide	Neutral	True
198.125	0.25	Control	0.619	0.0	No	2.625	0.025	n/a	NoResponse	0	n/a	n/a	2	20	Cue	Neutral	True
198.376	4.05	Control	0.619	0.0	No	2.625	0.001	n/a	NoResponse	0	n/a	n/a	2	20	Fixation	Neutral	True
202.421	0.26	Control	0.619	0.004	No	2.625	-0.004	2.0	NoResponse	0	0.367	201.788	2	20	Target	Neutral	True
202.689	0.44	Control	0.619	n/a	No	2.625	n/a	n/a	NoResponse	0	n/a	n/a	2	20	Blank	Neutral	True
202.788	0.3	Control	0.619	0.004	No	2.625	-0.004	2.0	NoResponse	0	0.367	n/a	2	20	ButtonPress	Neutral	True
203.124	1.45	Control	0.619	n/a	No	2.625	n/a	5.0	NoResponse	0	0.019	202.143	2	20	Feedback	Neutral	True
204.578	2.625	Control	0.619	n/a	No	2.625	n/a	n/a	NoResponse	0	0.0	n/a	2	20	ISIslide	Neutral	True
207.219	0.25	Control	0.5909	0.0	No	2.781	0.019	n/a	LatePress	0	n/a	n/a	2	21	Cue	Neutral	True
207.47	4.1	Control	0.5909	0.0	No	2.781	0.001	n/a	LatePress	0	n/a	n/a	2	21	Fixation	Neutral	True
211.565	0.27	Control	0.5909	0.004	No	2.781	-0.004	2.0	LatePress	0	0.272	210.837	2	21	Target	Neutral	True
211.837	0.3	Control	0.5909	0.004	No	2.781	-0.004	2.0	LatePress	0	0.272	n/a	2	21	ButtonPress	Neutral	True
211.85	0.43	Control	0.5909	n/a	No	2.781	n/a	n/a	LatePress	0	n/a	n/a	2	21	Blank	Neutral	True
212.267	1.45	Control	0.5909	n/a	No	2.781	n/a	5.0	LatePress	0	0.046	211.313	2	21	Feedback	Neutral	True
213.722	2.781	Control	0.5909	n/a	No	2.781	n/a	n/a	LatePress	0	0.0	n/a	2	21	ISIslide	Neutral	True
216.514	0.25	Control	0.6087	0.0	Yes	2.786	0.014	n/a	GoodResponse	0	n/a	n/a	2	22	Cue	Neutral	True
216.764	4.0	Control	0.6087	0.0	Yes	2.786	0.0	n/a	GoodResponse	0	n/a	n/a	2	22	Fixation	Neutral	True
220.76	0.28	Control	0.6087	0.004	Yes	2.786	-0.004	2.0	GoodResponse	0	0.248	220.008	2	22	Target	Neutral	True
221.008	0.3	Control	0.6087	0.004	Yes	2.786	-0.004	2.0	GoodResponse	0	0.248	n/a	2	22	ButtonPress	Neutral	True
221.044	0.42	Control	0.6087	n/a	Yes	2.786	n/a	n/a	GoodResponse	0	n/a	n/a	2	22	Blank	Neutral	True
221.462	1.45	Control	0.6087	n/a	Yes	2.786	n/a	5.0	GoodResponse	0	0.022	220.484	2	22	Feedback	Neutral	True
222.916	2.786	Control	0.6087	n/a	Yes	2.786	n/a	n/a	GoodResponse	0	0.0	n/a	2	22	ISIslide	Neutral	True
225.724	0.25	Control	0.5832999999999999	0.0	No	2.776	0.024	n/a	NoResponse	0	n/a	n/a	2	23	Cue	Neutral	True
225.975	3.9	Control	0.5832999999999999	0.0	No	2.776	0.001	n/a	NoResponse	0	n/a	n/a	2	23	Fixation	Neutral	True
229.87	0.29	Control	0.5832999999999999	0.004	No	2.776	-0.004	2.0	NoResponse	0	0.392	229.262	2	23	Target	Neutral	True
230.171	0.41	Control	0.5832999999999999	n/a	No	2.776	n/a	n/a	NoResponse	0	n/a	n/a	2	23	Blank	Neutral	True
230.262	0.3	Control	0.5832999999999999	0.004	No	2.776	-0.004	2.0	NoResponse	0	0.392	n/a	2	23	ButtonPress	Neutral	True
230.572	1.45	Control	0.5832999999999999	n/a	No	2.776	n/a	5.0	NoResponse	0	0.034	229.606	2	23	Feedback	Neutral	True
232.027	2.776	Control	0.5832999999999999	n/a	No	2.776	n/a	n/a	NoResponse	0	0.0	n/a	2	23	ISIslide	Neutral	True
234.818	0.25	Win2	0.56	0.0	No	3.132	0.018	n/a	NoResponse	0	n/a	n/a	2	24	Cue	MissedWin	True
235.069	3.95	Win2	0.56	0.0	No	3.132	0.001	n/a	NoResponse	0	n/a	n/a	2	24	Fixation	MissedWin	True
239.014	0.3	Win2	0.56	0.004	No	3.132	-0.004	2.0	NoResponse	0	0.425	238.439	2	24	Target	MissedWin	True
239.315	0.4	Win2	0.56	n/a	No	3.132	n/a	n/a	NoResponse	0	n/a	n/a	2	24	Blank	MissedWin	True
239.439	0.3	Win2	0.56	0.004	No	3.132	-0.004	2.0	NoResponse	0	0.425	n/a	2	24	ButtonPress	MissedWin	True
239.716	1.45	Win2	0.56	n/a	No	3.132	n/a	5.0	NoResponse	0	0.012	238.728	2	24	Feedback	MissedWin	True
241.17	3.132	Win2	0.56	n/a	No	3.132	n/a	n/a	NoResponse	0	0.0	n/a	2	24	ISIslide	MissedWin	True
244.33	0.25	Win2	0.5769	0.0	Yes	3.07	0.03	n/a	GoodResponse	1	n/a	n/a	3	25	Cue	Win	True
244.581	4.0	Win2	0.5769	0.0	Yes	3.07	0.001	n/a	GoodResponse	1	n/a	n/a	3	25	Fixation	Win	True
248.576	0.31	Win2	0.5769	0.004	Yes	3.07	-0.004	2.0	GoodResponse	1	0.255	247.831	3	25	Target	Win	True
248.831	0.3	Win2	0.5769	0.004	Yes	3.07	-0.004	2.0	GoodResponse	1	0.255	n/a	3	25	ButtonPress	Win	True
248.894	0.39	Win2	0.5769	n/a	Yes	3.07	n/a	n/a	GoodResponse	1	n/a	n/a	3	25	Blank	Win	True
249.278	1.45	Win2	0.5769	n/a	Yes	3.07	n/a	5.0	GoodResponse	1	0.01	248.288	3	25	Feedback	Win	True
250.732	3.07	Win2	0.5769	n/a	Yes	3.07	n/a	n/a	GoodResponse	1	0.0	n/a	3	25	ISIslide	Win	True
253.825	0.25	Win2	0.5556	0.0	No	2.925	0.025	n/a	NoResponse	0	n/a	n/a	3	26	Cue	MissedWin	True
254.076	3.95	Win2	0.5556	0.0	No	2.925	0.001	n/a	NoResponse	0	n/a	n/a	3	26	Fixation	MissedWin	True
258.021	0.32	Win2	0.5556	0.004	No	2.925	-0.004	2.0	NoResponse	0	0.335	257.356	3	26	Target	MissedWin	True
258.355	0.38	Win2	0.5556	n/a	No	2.925	n/a	n/a	NoResponse	0	n/a	n/a	3	26	Blank	MissedWin	True
258.356	0.3	Win2	0.5556	0.004	No	2.925	-0.004	2.0	NoResponse	0	0.335	n/a	3	26	ButtonPress	MissedWin	True
258.723	1.45	Win2	0.5556	n/a	No	2.925	n/a	5.0	NoResponse	0	0.029	257.752	3	26	Feedback	MissedWin	True
260.177	2.925	Win2	0.5556	n/a	No	2.925	n/a	n/a	NoResponse	0	0.0	n/a	3	26	ISIslide	MissedWin	True
263.119	0.25	Lose2	0.5357	0.0	No	2.831	0.019	n/a	NoResponse	-1	n/a	n/a	2	27	Cue	Loss	True
263.37	4.05	Lose2	0.5357	0.0	No	2.831	0.001	n/a	NoResponse	-1	n/a	n/a	2	27	Fixation	Loss	True
267.416	0.33	Lose2	0.5357	0.003	No	2.831	-0.003	2.0	NoResponse	-1	0.373	266.789	2	27	Target	Loss	True
267.75	0.37	Lose2	0.5357	n/a	No	2.831	n/a	n/a	NoResponse	-1	n/a	n/a	2	27	Blank	Loss	True
267.789	0.3	Lose2	0.5357	0.003	No	2.831	-0.003	2.0	NoResponse	-1	0.373	n/a	2	27	ButtonPress	Loss	True
268.118	1.45	Lose2	0.5357	n/a	No	2.831	n/a	5.0	NoResponse	-1	0.0	267.118	2	27	Feedback	Loss	True
269.572	2.831	Lose2	0.5357	n/a	No	2.831	n/a	n/a	NoResponse	-1	0.0	n/a	2	27	ISIslide	Loss	True
272.414	0.25	Control	0.5517	0.0	Yes	2.836	0.014	n/a	GoodResponse	0	n/a	n/a	2	28	Cue	Neutral	True
272.665	4.05	Control	0.5517	0.0	Yes	2.836	0.001	n/a	GoodResponse	0	n/a	n/a	2	28	Fixation	Neutral	True
276.71	0.34	Control	0.5517	0.004	Yes	2.836	-0.004	2.0	GoodResponse	0	0.206	275.916	2	28	Target	Neutral	True
276.916	0.3	Control	0.5517	0.004	Yes	2.836	-0.004	2.0	GoodResponse	0	0.206	n/a	2	28	ButtonPress	Neutral	True
277.061	0.36	Control	0.5517	n/a	Yes	2.836	n/a	n/a	GoodResponse	0	n/a	n/a	2	28	Blank	Neutral	True
277.412	1.45	Control	0.5517	n/a	Yes	2.836	n/a	5.0	GoodResponse	0	0.023	276.435	2	28	Feedback	Neutral	True
278.866	2.836	Control	0.5517	n/a	Yes	2.836	n/a	n/a	GoodResponse	0	0.0	n/a	2	28	ISIslide	Neutral	True
281.725	0.25	Lose2	0.5667	0.0	Yes	2.825	0.025	n/a	GoodResponse	0	n/a	n/a	2	29	Cue	AvoidedLoss	True
281.976	3.95	Lose2	0.5667	0.0	Yes	2.825	0.001	n/a	GoodResponse	0	n/a	n/a	2	29	Fixation	AvoidedLoss	True
285.921	0.35	Lose2	0.5667	0.004	Yes	2.825	-0.004	2.0	GoodResponse	0	0.299	285.22	2	29	Target	AvoidedLoss	True
286.22	0.3	Lose2	0.5667	0.004	Yes	2.825	-0.004	2.0	GoodResponse	0	0.299	n/a	2	29	ButtonPress	AvoidedLoss	True
286.272	0.35	Lose2	0.5667	n/a	Yes	2.825	n/a	n/a	GoodResponse	0	n/a	n/a	2	29	Blank	AvoidedLoss	True
286.623	1.45	Lose2	0.5667	n/a	Yes	2.825	n/a	5.0	GoodResponse	0	0.03	285.653	2	29	Feedback	AvoidedLoss	True
288.077	2.825	Lose2	0.5667	n/a	Yes	2.825	n/a	n/a	GoodResponse	0	0.0	n/a	2	29	ISIslide	AvoidedLoss	True
290.919	0.25	Win2	0.5806	0.0	Yes	2.781	0.019	n/a	GoodResponse	1	n/a	n/a	3	30	Cue	Win	True
291.17	3.9	Win2	0.5806	0.0	Yes	2.781	0.001	n/a	GoodResponse	1	n/a	n/a	3	30	Fixation	Win	True
295.065	0.36	Win2	0.5806	0.004	Yes	2.781	-0.004	2.0	GoodResponse	1	0.193	294.258	3	30	Target	Win	True
295.258	0.3	Win2	0.5806	0.004	Yes	2.781	-0.004	2.0	GoodResponse	1	0.193	n/a	3	30	ButtonPress	Win	True
295.433	0.34	Win2	0.5806	n/a	Yes	2.781	n/a	n/a	GoodResponse	1	n/a	n/a	3	30	Blank	Win	True
295.767	1.45	Win2	0.5806	n/a	Yes	2.781	n/a	5.0	GoodResponse	1	0.008	294.775	3	30	Feedback	Win	True
297.221	2.781	Win2	0.5806	n/a	Yes	2.781	n/a	n/a	GoodResponse	1	0.0	n/a	3	30	ISIslide	Win	True
300.03	0.25	Lose2	0.5938	0.0	Yes	2.82	0.03	n/a	GoodResponse	0	n/a	n/a	3	31	Cue	AvoidedLoss	True
300.28	4.05	Lose2	0.5938	0.0	Yes	2.82	0.0	n/a	GoodResponse	0	n/a	n/a	3	31	Fixation	AvoidedLoss	True
304.326	0.37	Lose2	0.5938	0.004	Yes	2.82	-0.004	2.0	GoodResponse	0	0.24	303.566	3	31	Target	AvoidedLoss	True
304.566	0.3	Lose2	0.5938	0.004	Yes	2.82	-0.004	2.0	GoodResponse	0	0.24	n/a	3	31	ButtonPress	AvoidedLoss	True
304.71	0.33	Lose2	0.5938	n/a	Yes	2.82	n/a	n/a	GoodResponse	0	n/a	n/a	3	31	Blank	AvoidedLoss	True
305.028	1.45	Lose2	0.5938	n/a	Yes	2.82	n/a	5.0	GoodResponse	0	0.016	304.044	3	31	Feedback	AvoidedLoss	True
306.482	2.82	Lose2	0.5938	n/a	Yes	2.82	n/a	n/a	GoodResponse	0	0.0	n/a	3	31	ISIslide	AvoidedLoss	True
309.324	0.25	Lose2	0.6061	0.0	Yes	2.626	0.024	n/a	GoodResponse	0	n/a	n/a	3	32	Cue	AvoidedLoss	True
309.575	4.15	Lose2	0.6061	0.0	Yes	2.626	0.001	n/a	GoodResponse	0	n/a	n/a	3	32	Fixation	AvoidedLoss	True
313.72	0.38	Lose2	0.6061	0.004	Yes	2.626	-0.004	2.0	GoodResponse	0	0.376	313.096	3	32	Target	AvoidedLoss	True
314.096	0.3	Lose2	0.6061	0.004	Yes	2.626	-0.004	2.0	GoodResponse	0	0.376	n/a	3	32	ButtonPress	AvoidedLoss	True
314.105	0.32	Lose2	0.6061	n/a	Yes	2.626	n/a	n/a	GoodResponse	0	n/a	n/a	3	32	Blank	AvoidedLoss	True
314.423	1.45	Lose2	0.6061	n/a	Yes	2.626	n/a	5.0	GoodResponse	0	0.036	313.459	3	32	Feedback	AvoidedLoss	True
315.877	2.626	Lose2	0.6061	n/a	Yes	2.626	n/a	n/a	GoodResponse	0	0.0	n/a	3	32	ISIslide	AvoidedLoss	True
318.518	0.25	Win2	0.6175999999999999	0.0	Yes	2.682	0.018	n/a	GoodResponse	1	n/a	n/a	4	33	Cue	Win	True
318.769	4.0	Win2	0.6175999999999999	0.0	Yes	2.682	0.001	n/a	GoodResponse	1	n/a	n/a	4	33	Fixation	Win	True
322.764	0.39	Win2	0.6175999999999999	0.004	Yes	2.682	-0.004	2.0	GoodResponse	1	0.199	321.963	4	33	Target	Win	True
322.963	0.3	Win2	0.6175999999999999	0.004	Yes	2.682	-0.004	2.0	GoodResponse	1	0.199	n/a	4	33	ButtonPress	Win	True
323.165	0.31	Win2	0.6175999999999999	n/a	Yes	2.682	n/a	n/a	GoodResponse	1	n/a	n/a	4	33	Blank	Win	True
323.466	1.45	Win2	0.6175999999999999	n/a	Yes	2.682	n/a	5.0	GoodResponse	1	0.016	322.482	4	33	Feedback	Win	True
324.921	2.682	Win2	0.6175999999999999	n/a	Yes	2.682	n/a	n/a	GoodResponse	1	0.0	n/a	4	33	ISIslide	Win	True
327.629	0.25	Lose2	0.6286	0.0	Yes	2.621	0.029	n/a	GoodResponse	0	n/a	n/a	4	34	Cue	AvoidedLoss	True
327.879	4.05	Lose2	0.6286	0.001	Yes	2.621	0.0	n/a	GoodResponse	0	n/a	n/a	4	34	Fixation	AvoidedLoss	True
331.925	0.4	Lose2	0.6286	0.004	Yes	2.621	-0.004	2.0	GoodResponse	0	0.205	331.13	4	34	Target	AvoidedLoss	True
332.13	0.3	Lose2	0.6286	0.004	Yes	2.621	-0.004	2.0	GoodResponse	0	0.205	n/a	4	34	ButtonPress	AvoidedLoss	True
332.326	0.3	Lose2	0.6286	n/a	Yes	2.621	n/a	n/a	GoodResponse	0	n/a	n/a	4	34	Blank	AvoidedLoss	True
332.627	1.45	Lose2	0.6286	n/a	Yes	2.621	n/a	5.0	GoodResponse	0	0.026	331.653	4	34	Feedback	AvoidedLoss	True
334.081	2.621	Lose2	0.6286	n/a	Yes	2.621	n/a	n/a	GoodResponse	0	0.0	n/a	4	34	ISIslide	AvoidedLoss	True
336.723	0.25	Lose2	0.6389	0.0	Yes	2.677	0.023	n/a	GoodResponse	0	n/a	n/a	4	35	Cue	AvoidedLoss	True
336.973	4.0	Lose2	0.6389	0.0	Yes	2.677	0.0	n/a	GoodResponse	0	n/a	n/a	4	35	Fixation	AvoidedLoss	True
340.969	0.41	Lose2	0.6389	0.004	Yes	2.677	-0.004	2.0	GoodResponse	0	0.202	340.171	4	35	Target	AvoidedLoss	True
341.171	0.3	Lose2	0.6389	0.004	Yes	2.677	-0.004	2.0	GoodResponse	0	0.202	n/a	4	35	ButtonPress	AvoidedLoss	True
341.386	0.29	Lose2	0.6389	n/a	Yes	2.677	n/a	n/a	GoodResponse	0	n/a	n/a	4	35	Blank	AvoidedLoss	True
341.671	1.45	Lose2	0.6389	n/a	Yes	2.677	n/a	5.0	GoodResponse	0	0.006	340.677	4	35	Feedback	AvoidedLoss	True
343.125	2.677	Lose2	0.6389	n/a	Yes	2.677	n/a	n/a	GoodResponse	0	0.0	n/a	4	35	ISIslide	AvoidedLoss	True
345.816	0.25	Control	0.6486	0.0	Yes	2.684	0.016	n/a	GoodResponse	0	n/a	n/a	4	36	Cue	Neutral	True
346.067	4.0	Control	0.6486	0.0	Yes	2.684	0.001	n/a	GoodResponse	0	n/a	n/a	4	36	Fixation	Neutral	True
350.062	0.42	Control	0.6486	0.004	Yes	2.684	-0.004	2.0	GoodResponse	0	0.349	349.411	4	36	Target	Neutral	True
350.411	0.3	Control	0.6486	0.004	Yes	2.684	-0.004	2.0	GoodResponse	0	0.349	n/a	4	36	ButtonPress	Neutral	True
350.497	0.28	Control	0.6486	n/a	Yes	2.684	n/a	n/a	GoodResponse	0	n/a	n/a	4	36	Blank	Neutral	True
350.764	1.45	Control	0.6486	n/a	Yes	2.684	n/a	5.0	GoodResponse	0	0.036	349.8	4	36	Feedback	Neutral	True
352.219	2.684	Control	0.6486	n/a	Yes	2.684	n/a	n/a	GoodResponse	0	0.0	n/a	4	36	ISIslide	Neutral	True
354.927	0.25	Win2	0.6579	0.0	Yes	2.873	0.027	n/a	GoodResponse	1	n/a	n/a	5	37	Cue	Win	True
355.178	4.0	Win2	0.6579	0.0	Yes	2.873	0.001	n/a	GoodResponse	1	n/a	n/a	5	37	Fixation	Win	True
359.173	0.43	Win2	0.6579	0.004	Yes	2.873	-0.004	2.0	GoodResponse	1	0.222	358.395	5	37	Target	Win	True
359.395	0.3	Win2	0.6579	0.004	Yes	2.873	-0.004	2.0	GoodResponse	1	0.222	n/a	5	37	ButtonPress	Win	True
359.608	0.27	Win2	0.6579	n/a	Yes	2.873	n/a	n/a	GoodResponse	1	n/a	n/a	5	37	Blank	Win	True
359.875	1.45	Win2	0.6579	n/a	Yes	2.873	n/a	5.0	GoodResponse	1	0.046	358.921	5	37	Feedback	Win	True
361.329	2.873	Win2	0.6579	n/a	Yes	2.873	n/a	n/a	GoodResponse	1	0.0	n/a	5	37	ISIslide	Win	True
364.221	0.25	Lose2	0.6667000000000001	0.0	Yes	2.829	0.021	n/a	GoodResponse	0	n/a	n/a	5	38	Cue	AvoidedLoss	True
364.472	3.95	Lose2	0.6667000000000001	0.0	Yes	2.829	0.001	n/a	GoodResponse	0	n/a	n/a	5	38	Fixation	AvoidedLoss	True
368.417	0.43	Lose2	0.6667000000000001	0.004	Yes	2.829	-0.004	2.0	GoodResponse	0	0.287	367.704	5	38	Target	AvoidedLoss	True
368.704	0.3	Lose2	0.6667000000000001	0.004	Yes	2.829	-0.004	2.0	GoodResponse	0	0.287	n/a	5	38	ButtonPress	AvoidedLoss	True
368.852	0.27	Lose2	0.6667000000000001	n/a	Yes	2.829	n/a	n/a	GoodResponse	0	n/a	n/a	5	38	Blank	AvoidedLoss	True
369.119	1.45	Lose2	0.6667000000000001	n/a	Yes	2.829	n/a	5.0	GoodResponse	0	0.021	368.14	5	38	Feedback	AvoidedLoss	True
370.574	2.829	Lose2	0.6667000000000001	n/a	Yes	2.829	n/a	n/a	GoodResponse	0	0.0	n/a	5	38	ISIslide	AvoidedLoss	True
373.415	0.25	Win2	0.675	0.001	Yes	2.985	0.015	n/a	GoodResponse	1	n/a	n/a	6	39	Cue	Win	False
373.666	4.1	Win2	0.675	0.0	Yes	2.985	0.001	2.0	GoodResponse	1	0.053	372.719	6	39	Fixation	Win	False
373.719	0.3	Win2	0.675	0.0	Yes	2.985	0.001	2.0	GoodResponse	1	0.053	n/a	6	39	ButtonPress	Win	False
377.762	0.42	Win2	0.675	0.003	Yes	2.985	-0.003	2.0	GoodResponse	1	0.236	376.998	6	39	Target	Win	False
377.998	0.3	Win2	0.675	0.003	Yes	2.985	-0.003	2.0	GoodResponse	1	0.236	n/a	6	39	ButtonPress	Win	False
378.196	0.28	Win2	0.675	n/a	Yes	2.985	n/a	n/a	GoodResponse	1	n/a	n/a	6	39	Blank	Win	False
378.464	1.45	Win2	0.675	n/a	Yes	2.985	n/a	5.0	GoodResponse	1	0.042	377.506	6	39	Feedback	Win	False
379.918	2.985	Win2	0.675	n/a	Yes	2.985	n/a	n/a	GoodResponse	1	0.0	n/a	6	39	ISIslide	Win	False
382.927	0.25	Win2	0.6585	0.0	No	2.723	0.027	n/a	NoResponse	0	n/a	n/a	6	40	Cue	MissedWin	True
383.178	3.95	Win2	0.6585	0.0	No	2.723	0.001	n/a	NoResponse	0	n/a	n/a	6	40	Fixation	MissedWin	True
387.123	0.41	Win2	0.6585	0.004	No	2.723	-0.004	2.0	NoResponse	0	0.469	386.592	6	40	Target	MissedWin	True
387.541	0.29	Win2	0.6585	n/a	No	2.723	n/a	n/a	NoResponse	0	n/a	n/a	6	40	Blank	MissedWin	True
387.592	0.3	Win2	0.6585	0.004	No	2.723	-0.004	2.0	NoResponse	0	0.469	n/a	6	40	ButtonPress	MissedWin	True
387.825	1.45	Win2	0.6585	n/a	No	2.723	n/a	5.0	NoResponse	0	0.047	386.872	6	40	Feedback	MissedWin	True
389.279	2.723	Win2	0.6585	n/a	No	2.723	n/a	n/a	NoResponse	0	0.0	n/a	6	40	ISIslide	MissedWin	True
392.021	0.25	Win2	0.6667000000000001	0.0	Yes	2.779	0.021	n/a	GoodResponse	1	n/a	n/a	7	41	Cue	Win	True
392.272	3.9	Win2	0.6667000000000001	0.0	Yes	2.779	0.001	n/a	GoodResponse	1	n/a	n/a	7	41	Fixation	Win	True
396.167	0.41	Win2	0.6667000000000001	0.004	Yes	2.779	-0.004	2.0	GoodResponse	1	0.21	395.377	7	41	Target	Win	True
396.377	0.3	Win2	0.6667000000000001	0.004	Yes	2.779	-0.004	2.0	GoodResponse	1	0.21	n/a	7	41	ButtonPress	Win	True
396.585	0.29	Win2	0.6667000000000001	n/a	Yes	2.779	n/a	n/a	GoodResponse	1	n/a	n/a	7	41	Blank	Win	True
396.869	1.45	Win2	0.6667000000000001	n/a	Yes	2.779	n/a	5.0	GoodResponse	1	0.027	395.896	7	41	Feedback	Win	True
398.323	2.779	Win2	0.6667000000000001	n/a	Yes	2.779	n/a	n/a	GoodResponse	1	0.0	n/a	7	41	ISIslide	Win	True
401.115	0.25	Control	0.6744	0.0	Yes	2.935	0.015	n/a	GoodResponse	0	n/a	n/a	7	42	Cue	Neutral	True
401.366	3.85	Control	0.6744	0.0	Yes	2.935	0.001	n/a	GoodResponse	0	n/a	n/a	7	42	Fixation	Neutral	True
405.227	0.4	Control	0.6744	0.0	Yes	2.935	0.012	2.0	GoodResponse	0	0.244	404.471	7	42	Target	Neutral	True
405.471	0.3	Control	0.6744	0.0	Yes	2.935	0.012	2.0	GoodResponse	0	0.244	n/a	7	42	ButtonPress	Neutral	True
405.612	0.3	Control	0.6744	n/a	Yes	2.935	n/a	n/a	GoodResponse	0	n/a	n/a	7	42	Blank	Neutral	True
405.912	1.45	Control	0.6744	n/a	Yes	2.935	n/a	5.0	GoodResponse	0	0.008	404.92	7	42	Feedback	Neutral	True
407.367	2.935	Control	0.6744	n/a	Yes	2.935	n/a	n/a	GoodResponse	0	0.0	n/a	7	42	ISIslide	Neutral	True
410.326	0.25	Win2	0.6818000000000001	0.0	Yes	3.174	0.026	n/a	GoodResponse	1	n/a	n/a	8	43	Cue	Win	True
410.576	4.0	Win2	0.6818000000000001	0.001	Yes	3.174	0.0	n/a	GoodResponse	1	n/a	n/a	8	43	Fixation	Win	True
414.572	0.39	Win2	0.6818000000000001	0.004	Yes	3.174	-0.004	2.0	GoodResponse	1	0.218	413.79	8	43	Target	Win	True
414.79	0.3	Win2	0.6818000000000001	0.004	Yes	3.174	-0.004	2.0	GoodResponse	1	0.218	n/a	8	43	ButtonPress	Win	True
414.973	0.31	Win2	0.6818000000000001	n/a	Yes	3.174	n/a	n/a	GoodResponse	1	n/a	n/a	8	43	Blank	Win	True
415.274	1.45	Win2	0.6818000000000001	n/a	Yes	3.174	n/a	5.0	GoodResponse	1	0.012	414.286	8	43	Feedback	Win	True
416.728	3.174	Win2	0.6818000000000001	n/a	Yes	3.174	n/a	n/a	GoodResponse	1	0.0	n/a	8	43	ISIslide	Win	True
419.921	0.25	Win2	0.6889	0.0	Yes	2.979	0.021	n/a	GoodResponse	1	n/a	n/a	9	44	Cue	Win	True
420.172	4.0	Win2	0.6889	0.0	Yes	2.979	0.001	n/a	GoodResponse	1	n/a	n/a	9	44	Fixation	Win	True
424.167	0.38	Win2	0.6889	0.004	Yes	2.979	-0.004	2.0	GoodResponse	1	0.228	423.395	9	44	Target	Win	True
424.395	0.3	Win2	0.6889	0.004	Yes	2.979	-0.004	2.0	GoodResponse	1	0.228	n/a	9	44	ButtonPress	Win	True
424.551	0.32	Win2	0.6889	n/a	Yes	2.979	n/a	n/a	GoodResponse	1	n/a	n/a	9	44	Blank	Win	True
424.869	1.45	Win2	0.6889	n/a	Yes	2.979	n/a	5.0	GoodResponse	1	0.027	423.896	9	44	Feedback	Win	True
426.323	2.979	Win2	0.6889	n/a	Yes	2.979	n/a	n/a	GoodResponse	1	0.0	n/a	9	44	ISIslide	Win	True
429.316	0.25	Control	0.6957	0.0	Yes	2.884	0.016	n/a	GoodResponse	0	n/a	n/a	9	45	Cue	Neutral	True
429.566	4.1	Control	0.6957	0.001	Yes	2.884	0.0	n/a	GoodResponse	0	n/a	n/a	9	45	Fixation	Neutral	True
433.662	0.37	Control	0.6957	0.004	Yes	2.884	-0.004	2.0	GoodResponse	0	0.272	432.934	9	45	Target	Neutral	True
433.934	0.3	Control	0.6957	0.004	Yes	2.884	-0.004	2.0	GoodResponse	0	0.272	n/a	9	45	ButtonPress	Neutral	True
434.046	0.33	Control	0.6957	n/a	Yes	2.884	n/a	n/a	GoodResponse	0	n/a	n/a	9	45	Blank	Neutral	True
434.364	1.45	Control	0.6957	n/a	Yes	2.884	n/a	5.0	GoodResponse	0	0.043	433.407	9	45	Feedback	Neutral	True
435.818	2.884	Control	0.6957	n/a	Yes	2.884	n/a	n/a	GoodResponse	0	0.0	n/a	9	45	ISIslide	Neutral	True
438.727	0.25	Lose2	0.7021	0.0	Yes	3.373	0.027	n/a	GoodResponse	0	n/a	n/a	9	46	Cue	AvoidedLoss	True
438.978	4.0	Lose2	0.7021	0.0	Yes	3.373	0.001	n/a	GoodResponse	0	n/a	n/a	9	46	Fixation	AvoidedLoss	True
442.973	0.36	Lose2	0.7021	0.004	Yes	3.373	-0.004	2.0	GoodResponse	0	0.256	442.229	9	46	Target	AvoidedLoss	True
443.229	0.3	Lose2	0.7021	0.004	Yes	3.373	-0.004	2.0	GoodResponse	0	0.256	n/a	9	46	ButtonPress	AvoidedLoss	True
443.341	0.34	Lose2	0.7021	n/a	Yes	3.373	n/a	n/a	GoodResponse	0	n/a	n/a	9	46	Blank	AvoidedLoss	True
443.675	1.45	Lose2	0.7021	n/a	Yes	3.373	n/a	5.0	GoodResponse	0	0.001	442.676	9	46	Feedback	AvoidedLoss	True
445.13	3.373	Lose2	0.7021	n/a	Yes	3.373	n/a	n/a	GoodResponse	0	0.0	n/a	9	46	ISIslide	AvoidedLoss	True
448.523	0.25	Lose2	0.7082999999999999	0.0	Yes	2.677	0.023	n/a	GoodResponse	0	n/a	n/a	9	47	Cue	AvoidedLoss	True
448.774	4.0	Lose2	0.7082999999999999	0.0	Yes	2.677	0.001	n/a	GoodResponse	0	n/a	n/a	9	47	Fixation	AvoidedLoss	True
452.769	0.35	Lose2	0.7082999999999999	0.004	Yes	2.677	-0.004	2.0	GoodResponse	0	0.252	452.021	9	47	Target	AvoidedLoss	True
453.021	0.3	Lose2	0.7082999999999999	0.004	Yes	2.677	-0.004	2.0	GoodResponse	0	0.252	n/a	9	47	ButtonPress	AvoidedLoss	True
453.12	0.35	Lose2	0.7082999999999999	n/a	Yes	2.677	n/a	n/a	GoodResponse	0	n/a	n/a	9	47	Blank	AvoidedLoss	True
453.471	1.45	Lose2	0.7082999999999999	n/a	Yes	2.677	n/a	5.0	GoodResponse	0	0.01	452.481	9	47	Feedback	AvoidedLoss	True
454.926	2.677	Lose2	0.7082999999999999	n/a	Yes	2.677	n/a	n/a	GoodResponse	0	0.0	n/a	9	47	ISIslide	AvoidedLoss	True
457.617	0.25	Lose2	0.6939	0.0	No	3.033	0.017	n/a	NoResponse	-1	n/a	n/a	8	48	Cue	Loss	True
457.868	3.95	Lose2	0.6939	0.0	No	3.033	0.001	n/a	NoResponse	-1	n/a	n/a	8	48	Fixation	Loss	True
461.813	0.34	Lose2	0.6939	0.004	No	3.033	-0.004	2.0	NoResponse	-1	0.391	461.204	8	48	Target	Loss	True
462.164	0.36	Lose2	0.6939	n/a	No	3.033	n/a	n/a	NoResponse	-1	n/a	n/a	8	48	Blank	Loss	True
462.204	0.3	Lose2	0.6939	0.004	No	3.033	-0.004	2.0	NoResponse	-1	0.391	n/a	8	48	ButtonPress	Loss	True
462.515	1.45	Lose2	0.6939	n/a	No	3.033	n/a	5.0	NoResponse	-1	0.039	461.554	8	48	Feedback	Loss	True
463.969	3.033	Lose2	0.6939	n/a	No	3.033	n/a	n/a	NoResponse	-1	0.0	n/a	8	48	ISIslide	Loss	True
467.028	0.25	Control	0.7	0.0	Yes	2.872	0.028	n/a	GoodResponse	0	n/a	n/a	8	49	Cue	Neutral	True
467.279	4.0	Control	0.7	0.0	Yes	2.872	0.001	n/a	GoodResponse	0	n/a	n/a	8	49	Fixation	Neutral	True
471.274	0.33	Control	0.7	0.004	Yes	2.872	-0.004	2.0	GoodResponse	0	0.221	470.495	8	49	Target	Neutral	True
471.495	0.3	Control	0.7	0.004	Yes	2.872	-0.004	2.0	GoodResponse	0	0.221	n/a	8	49	ButtonPress	Neutral	True
471.609	0.37	Control	0.7	n/a	Yes	2.872	n/a	n/a	GoodResponse	0	n/a	n/a	8	49	Blank	Neutral	True
471.976	1.45	Control	0.7	n/a	Yes	2.872	n/a	5.0	GoodResponse	0	0.041	471.017	8	49	Feedback	Neutral	True
473.431	2.872	Control	0.7	n/a	Yes	2.872	n/a	n/a	GoodResponse	0	0.0	n/a	8	49	ISIslide	Neutral	True
476.323	0.25	Control	0.7059000000000001	0.0	Yes	2.777	0.023	n/a	GoodResponse	0	n/a	n/a	8	50	Cue	Neutral	True
476.574	4.0	Control	0.7059000000000001	0.0	Yes	2.777	0.001	n/a	GoodResponse	0	n/a	n/a	8	50	Fixation	Neutral	True
480.569	0.32	Control	0.7059000000000001	0.004	Yes	2.777	-0.004	2.0	GoodResponse	0	0.243	479.812	8	50	Target	Neutral	True
480.812	0.3	Control	0.7059000000000001	0.004	Yes	2.777	-0.004	2.0	GoodResponse	0	0.243	n/a	8	50	ButtonPress	Neutral	True
480.903	0.38	Control	0.7059000000000001	n/a	Yes	2.777	n/a	n/a	GoodResponse	0	n/a	n/a	8	50	Blank	Neutral	True
481.271	1.45	Control	0.7059000000000001	n/a	Yes	2.777	n/a	5.0	GoodResponse	0	0.014	480.285	8	50	Feedback	Neutral	True
482.725	2.777	Control	0.7059000000000001	n/a	Yes	2.777	n/a	n/a	GoodResponse	0	0.0	n/a	8	50	ISIslide	Neutral	True
485.517	0.25	Control	0.7115	0.0	Yes	2.733	0.017	n/a	GoodResponse	0	n/a	n/a	8	51	Cue	Neutral	True
485.768	3.95	Control	0.7115	0.0	Yes	2.733	0.001	n/a	GoodResponse	0	n/a	n/a	8	51	Fixation	Neutral	True
489.713	0.31	Control	0.7115	0.004	Yes	2.733	-0.004	2.0	GoodResponse	0	0.201	488.914	8	51	Target	Neutral	True
489.914	0.3	Control	0.7115	0.004	Yes	2.733	-0.004	2.0	GoodResponse	0	0.201	n/a	8	51	ButtonPress	Neutral	True
490.03	0.39	Control	0.7115	n/a	Yes	2.733	n/a	n/a	GoodResponse	0	n/a	n/a	8	51	Blank	Neutral	True
490.415	1.45	Control	0.7115	n/a	Yes	2.733	n/a	5.0	GoodResponse	0	0.041	489.456	8	51	Feedback	Neutral	True
491.869	2.733	Control	0.7115	n/a	Yes	2.733	n/a	n/a	GoodResponse	0	0.0	n/a	8	51	ISIslide	Neutral	True
494.627	0.25	Control	0.7170000000000001	0.001	Yes	2.623	0.027	n/a	GoodResponse	0	n/a	n/a	8	52	Cue	Neutral	True
494.878	4.05	Control	0.7170000000000001	0.0	Yes	2.623	0.001	n/a	GoodResponse	0	n/a	n/a	8	52	Fixation	Neutral	True
498.924	0.3	Control	0.7170000000000001	0.003	Yes	2.623	-0.003	2.0	GoodResponse	0	0.223	498.147	8	52	Target	Neutral	True
499.147	0.3	Control	0.7170000000000001	0.003	Yes	2.623	-0.003	2.0	GoodResponse	0	0.223	n/a	8	52	ButtonPress	Neutral	True
499.224	0.4	Control	0.7170000000000001	n/a	Yes	2.623	n/a	n/a	GoodResponse	0	n/a	n/a	8	52	Blank	Neutral	True
499.626	1.45	Control	0.7170000000000001	n/a	Yes	2.623	n/a	5.0	GoodResponse	0	0.001	498.627	8	52	Feedback	Neutral	True
501.08	2.623	Control	0.7170000000000001	n/a	Yes	2.623	n/a	n/a	GoodResponse	0	0.0	n/a	8	52	ISIslide	Neutral	True
503.721	0.25	Win2	0.7222	0.0	Yes	2.929	0.021	n/a	GoodResponse	1	n/a	n/a	9	53	Cue	Win	True
503.972	4.05	Win2	0.7222	0.0	Yes	2.929	0.001	n/a	GoodResponse	1	n/a	n/a	9	53	Fixation	Win	True
508.017	0.29	Win2	0.7222	0.004	Yes	2.929	-0.004	2.0	GoodResponse	1	0.194	507.211	9	53	Target	Win	True
508.211	0.3	Win2	0.7222	0.004	Yes	2.929	-0.004	2.0	GoodResponse	1	0.194	n/a	9	53	ButtonPress	Win	True
508.318	0.41	Win2	0.7222	n/a	Yes	2.929	n/a	n/a	GoodResponse	1	n/a	n/a	9	53	Blank	Win	True
508.72	1.45	Win2	0.7222	n/a	Yes	2.929	n/a	5.0	GoodResponse	1	0.028	507.748	9	53	Feedback	Win	True
510.174	2.929	Win2	0.7222	n/a	Yes	2.929	n/a	n/a	GoodResponse	1	0.0	n/a	9	53	ISIslide	Win	True
513.116	0.25	Win2	0.7273000000000001	0.0	Yes	2.734	0.016	n/a	GoodResponse	1	n/a	n/a	10	54	Cue	Win	True
513.367	3.95	Win2	0.7273000000000001	0.0	Yes	2.734	0.001	n/a	GoodResponse	1	n/a	n/a	10	54	Fixation	Win	True
517.312	0.28	Win2	0.7273000000000001	0.004	Yes	2.734	-0.004	2.0	GoodResponse	1	0.192	516.504	10	54	Target	Win	True
517.504	0.3	Win2	0.7273000000000001	0.004	Yes	2.734	-0.004	2.0	GoodResponse	1	0.192	n/a	10	54	ButtonPress	Win	True
517.596	0.42	Win2	0.7273000000000001	n/a	Yes	2.734	n/a	n/a	GoodResponse	1	n/a	n/a	10	54	Blank	Win	True
518.014	1.45	Win2	0.7273000000000001	n/a	Yes	2.734	n/a	5.0	GoodResponse	1	0.002	517.016	10	54	Feedback	Win	True
519.468	2.734	Win2	0.7273000000000001	n/a	Yes	2.734	n/a	n/a	GoodResponse	1	0.0	n/a	10	54	ISIslide	Win	True
522.227	0.25	Control	0.7321	0.0	Yes	3.023	0.027	n/a	GoodResponse	0	n/a	n/a	10	55	Cue	Neutral	True
522.477	3.95	Control	0.7321	0.0	Yes	3.023	0.0	n/a	GoodResponse	0	n/a	n/a	10	55	Fixation	Neutral	True
526.439	0.27	Control	0.7321	0.0	Yes	3.023	0.012	2.0	GoodResponse	0	0.222	525.661	10	55	Target	Neutral	True
526.661	0.3	Control	0.7321	0.0	Yes	3.023	0.012	2.0	GoodResponse	0	0.222	n/a	10	55	ButtonPress	Neutral	True
526.707	0.43	Control	0.7321	n/a	Yes	3.023	n/a	n/a	GoodResponse	0	n/a	n/a	10	55	Blank	Neutral	True
527.124	1.45	Control	0.7321	n/a	Yes	3.023	n/a	5.0	GoodResponse	0	0.014	526.138	10	55	Feedback	Neutral	True
528.579	3.023	Control	0.7321	n/a	Yes	3.023	n/a	n/a	GoodResponse	0	0.0	n/a	10	55	ISIslide	Neutral	True
531.621	0.25	Control	0.7368000000000001	0.0	Yes	2.829	0.021	n/a	GoodResponse	0	n/a	n/a	10	56	Cue	Neutral	True
531.872	3.95	Control	0.7368000000000001	0.0	Yes	2.829	0.001	n/a	GoodResponse	0	n/a	n/a	10	56	Fixation	Neutral	True
535.817	0.26	Control	0.7368000000000001	0.004	Yes	2.829	-0.004	2.0	GoodResponse	0	0.214	535.031	10	56	Target	Neutral	True
536.031	0.3	Control	0.7368000000000001	0.004	Yes	2.829	-0.004	2.0	GoodResponse	0	0.214	n/a	10	56	ButtonPress	Neutral	True
536.085	0.44	Control	0.7368000000000001	n/a	Yes	2.829	n/a	n/a	GoodResponse	0	n/a	n/a	10	56	Blank	Neutral	True
536.519	1.45	Control	0.7368000000000001	n/a	Yes	2.829	n/a	5.0	GoodResponse	0	0.034	535.553	10	56	Feedback	Neutral	True
537.974	2.829	Control	0.7368000000000001	n/a	Yes	2.829	n/a	n/a	GoodResponse	0	0.0	n/a	10	56	ISIslide	Neutral	True
540.815	0.25	Control	0.7414000000000001	0.0	Yes	3.485	0.015	n/a	GoodResponse	0	n/a	n/a	10	57	Cue	Neutral	True
541.066	4.0	Control	0.7414000000000001	0.0	Yes	3.485	0.001	n/a	GoodResponse	0	n/a	n/a	10	57	Fixation	Neutral	True
545.061	0.25	Control	0.7414000000000001	0.004	Yes	3.485	-0.004	2.0	GoodResponse	0	0.212	544.273	10	57	Target	Neutral	True
545.273	0.3	Control	0.7414000000000001	0.004	Yes	3.485	-0.004	2.0	GoodResponse	0	0.212	n/a	10	57	ButtonPress	Neutral	True
545.312	0.45	Control	0.7414000000000001	n/a	Yes	3.485	n/a	n/a	GoodResponse	0	n/a	n/a	10	57	Blank	Neutral	True
545.763	1.45	Control	0.7414000000000001	n/a	Yes	3.485	n/a	5.0	GoodResponse	0	0.009	544.772	10	57	Feedback	Neutral	True
547.218	3.485	Control	0.7414000000000001	n/a	Yes	3.485	n/a	n/a	GoodResponse	0	0.0	n/a	10	57	ISIslide	Neutral	True
550.728	0.25	Win2	0.7458	0.0	Yes	2.722	0.028	n/a	GoodResponse	1	n/a	n/a	11	58	Cue	Win	True
550.979	4.05	Win2	0.7458	0.0	Yes	2.722	0.001	n/a	GoodResponse	1	n/a	n/a	11	58	Fixation	Win	True
555.024	0.24	Win2	0.7458	0.004	Yes	2.722	-0.004	2.0	GoodResponse	1	0.198	554.222	11	58	Target	Win	True
555.222	0.3	Win2	0.7458	0.004	Yes	2.722	-0.004	2.0	GoodResponse	1	0.198	n/a	11	58	ButtonPress	Win	True
555.275	0.46	Win2	0.7458	n/a	Yes	2.722	n/a	n/a	GoodResponse	1	n/a	n/a	11	58	Blank	Win	True
555.727	1.45	Win2	0.7458	n/a	Yes	2.722	n/a	5.0	GoodResponse	1	0.045	554.772	11	58	Feedback	Win	True
557.181	2.722	Win2	0.7458	n/a	Yes	2.722	n/a	n/a	GoodResponse	1	0.0	n/a	11	58	ISIslide	Win	True
559.922	0.25	Lose2	0.7333	0.001	No	2.678	0.022	n/a	NoResponse	-1	n/a	n/a	10	59	Cue	Loss	True
560.173	4.0	Lose2	0.7333	0.0	No	2.678	0.001	n/a	NoResponse	-1	n/a	n/a	10	59	Fixation	Loss	True
564.168	0.23	Lose2	0.7333	0.004	No	2.678	-0.004	2.0	NoResponse	-1	0.254	563.422	10	59	Target	Loss	True
564.402	0.47	Lose2	0.7333	n/a	No	2.678	n/a	n/a	NoResponse	-1	n/a	n/a	10	59	Blank	Loss	True
564.422	0.3	Lose2	0.7333	0.004	No	2.678	-0.004	2.0	NoResponse	-1	0.254	n/a	10	59	ButtonPress	Loss	True
564.871	1.45	Lose2	0.7333	n/a	No	2.678	n/a	5.0	NoResponse	-1	0.023	563.894	10	59	Feedback	Loss	True
566.325	2.678	Lose2	0.7333	n/a	No	2.678	n/a	n/a	NoResponse	-1	0.0	n/a	10	59	ISIslide	Loss	True
569.016	0.25	Control	0.7212999999999999	0.0	No	2.684	0.016	n/a	NoResponse	0	n/a	n/a	10	60	Cue	Neutral	True
569.267	4.0	Control	0.7212999999999999	0.0	No	2.684	0.001	n/a	NoResponse	0	n/a	n/a	10	60	Fixation	Neutral	True
573.262	0.22	Control	0.7212999999999999	0.004	No	2.684	-0.004	2.0	NoResponse	0	0.487	572.749	10	60	Target	Neutral	True
573.496	0.48	Control	0.7212999999999999	n/a	No	2.684	n/a	n/a	NoResponse	0	n/a	n/a	10	60	Blank	Neutral	True
573.749	0.3	Control	0.7212999999999999	0.004	No	2.684	-0.004	2.0	NoResponse	0	0.487	n/a	10	60	ButtonPress	Neutral	True
573.964	1.45	Control	0.7212999999999999	n/a	No	2.684	n/a	5.0	NoResponse	0	0.006	572.97	10	60	Feedback	Neutral	True
575.419	2.684	Control	0.7212999999999999	n/a	No	2.684	n/a	n/a	NoResponse	0	0.0	n/a	10	60	ISIslide	Neutral	True
578.127	0.25	Lose2	0.7097	0.0	No	2.973	0.027	n/a	NoResponse	-1	n/a	n/a	9	61	Cue	Loss	True
578.378	4.0	Lose2	0.7097	0.0	No	2.973	0.001	n/a	NoResponse	-1	n/a	n/a	9	61	Fixation	Loss	True
582.373	0.21	Lose2	0.7097	0.004	No	2.973	-0.004	2.0	NoResponse	-1	0.31	581.683	9	61	Target	Loss	True
582.59	0.49	Lose2	0.7097	n/a	No	2.973	n/a	n/a	NoResponse	-1	n/a	n/a	9	61	Blank	Loss	True
582.683	0.3	Lose2	0.7097	0.004	No	2.973	-0.004	2.0	NoResponse	-1	0.31	n/a	9	61	ButtonPress	Loss	True
583.075	1.45	Lose2	0.7097	n/a	No	2.973	n/a	5.0	NoResponse	-1	0.013	582.088	9	61	Feedback	Loss	True
584.529	2.973	Lose2	0.7097	n/a	No	2.973	n/a	n/a	NoResponse	-1	0.0	n/a	9	61	ISIslide	Loss	True
587.522	0.25	Lose2	0.6984	0.0	No	2.878	0.022	2.0	NoResponse	-1	0.235	586.757	8	62	Cue	Loss	False
587.757	0.3	Lose2	0.6984	0.0	No	2.878	0.022	2.0	NoResponse	-1	0.235	n/a	8	62	ButtonPress	Loss	False
587.772	3.9	Lose2	0.6984	0.0	No	2.878	0.0	n/a	NoResponse	-1	n/a	n/a	8	62	Fixation	Loss	False
591.684	0.2	Lose2	0.6984	0.0	No	2.878	0.012	2.0	NoResponse	-1	0.236	590.92	8	62	Target	Loss	False
591.868	0.5	Lose2	0.6984	n/a	No	2.878	n/a	n/a	NoResponse	-1	n/a	n/a	8	62	Blank	Loss	False
591.92	0.3	Lose2	0.6984	0.0	No	2.878	0.012	2.0	NoResponse	-1	0.236	n/a	8	62	ButtonPress	Loss	False
592.369	1.45	Lose2	0.6984	n/a	No	2.878	n/a	5.0	NoResponse	-1	0.036	591.405	8	62	Feedback	Loss	False
593.824	2.878	Lose2	0.6984	n/a	No	2.878	n/a	n/a	NoResponse	-1	0.0	n/a	8	62	ISIslide	Loss	False
596.716	0.25	Lose2	0.6875	0.0	No	2.634	0.016	n/a	NoResponse	-1	n/a	n/a	7	63	Cue	Loss	True
596.966	4.05	Lose2	0.6875	0.001	No	2.634	0.0	n/a	NoResponse	-1	n/a	n/a	7	63	Fixation	Loss	True
601.012	0.19	Lose2	0.6875	0.004	No	2.634	-0.004	2.0	NoResponse	-1	0.245	600.257	7	63	Target	Loss	True
601.212	0.51	Lose2	0.6875	n/a	No	2.634	n/a	n/a	NoResponse	-1	n/a	n/a	7	63	Blank	Loss	True
601.257	0.3	Lose2	0.6875	0.004	No	2.634	-0.004	2.0	NoResponse	-1	0.245	n/a	7	63	ButtonPress	Loss	True
601.714	1.45	Lose2	0.6875	n/a	No	2.634	n/a	5.0	NoResponse	-1	0.009	600.723	7	63	Feedback	Loss	True
603.168	2.634	Lose2	0.6875	n/a	No	2.634	n/a	n/a	NoResponse	-1	0.0	n/a	7	63	ISIslide	Loss	True
605.826	0.25	Win2	0.6769	0.0	No	3.124	0.026	n/a	NoResponse	0	n/a	n/a	7	64	Cue	MissedWin	True
606.077	4.15	Win2	0.6769	0.0	No	3.124	0.001	n/a	NoResponse	0	n/a	n/a	7	64	Fixation	MissedWin	True
610.223	0.18	Win2	0.6769	0.003	No	3.124	-0.003	2.0	NoResponse	0	0.218	609.441	7	64	Target	MissedWin	True
610.407	0.52	Win2	0.6769	n/a	No	3.124	n/a	n/a	NoResponse	0	n/a	n/a	7	64	Blank	MissedWin	True
610.441	0.3	Win2	0.6769	0.003	No	3.124	-0.003	2.0	NoResponse	0	0.218	n/a	7	64	ButtonPress	MissedWin	True
610.925	1.45	Win2	0.6769	n/a	No	3.124	n/a	5.0	NoResponse	0	0.017	609.942	7	64	Feedback	MissedWin	True
612.379	3.124	Win2	0.6769	n/a	No	3.124	n/a	n/a	NoResponse	0	0.0	n/a	7	64	ISIslide	MissedWin	True
615.522	0.25	Control	0.6667000000000001	0.0	No	2.778	0.022	n/a	NoResponse	0	n/a	n/a	7	65	Cue	Neutral	True
615.773	4.0	Control	0.6667000000000001	0.0	No	2.778	0.001	n/a	NoResponse	0	n/a	n/a	7	65	Fixation	Neutral	True
619.768	0.17	Control	0.6667000000000001	0.004	No	2.778	-0.004	2.0	NoResponse	0	0.196	618.964	7	65	Target	Neutral	True
619.952	0.53	Control	0.6667000000000001	n/a	No	2.778	n/a	n/a	NoResponse	0	n/a	n/a	7	65	Blank	Neutral	True
619.964	0.3	Control	0.6667000000000001	0.004	No	2.778	-0.004	2.0	NoResponse	0	0.196	n/a	7	65	ButtonPress	Neutral	True
620.47	1.45	Control	0.6667000000000001	n/a	No	2.778	n/a	5.0	NoResponse	0	0.032	619.502	7	65	Feedback	Neutral	True
621.924	2.778	Control	0.6667000000000001	n/a	No	2.778	n/a	n/a	NoResponse	0	0.0	n/a	7	65	ISIslide	Neutral	True
624.716	0.25	Win2	0.6567000000000001	0.0	No	2.784	0.016	n/a	NoResponse	0	n/a	n/a	7	66	Cue	MissedWin	True
624.967	3.9	Win2	0.6567000000000001	0.0	No	2.784	0.001	n/a	NoResponse	0	n/a	n/a	7	66	Fixation	MissedWin	True
628.862	0.16	Win2	0.6567000000000001	0.004	No	2.784	-0.004	2.0	NoResponse	0	0.198	628.06	7	66	Target	MissedWin	True
629.029	0.54	Win2	0.6567000000000001	n/a	No	2.784	n/a	n/a	NoResponse	0	n/a	n/a	7	66	Blank	MissedWin	True
629.06	0.3	Win2	0.6567000000000001	0.004	No	2.784	-0.004	2.0	NoResponse	0	0.198	n/a	7	66	ButtonPress	MissedWin	True
629.564	1.45	Win2	0.6567000000000001	n/a	No	2.784	n/a	5.0	NoResponse	0	0.012	628.576	7	66	Feedback	MissedWin	True
631.018	2.784	Win2	0.6567000000000001	n/a	No	2.784	n/a	n/a	NoResponse	0	0.0	n/a	7	66	ISIslide	MissedWin	True
633.826	0.25	Control	0.6470999999999999	0.001	No	2.724	0.026	n/a	NoResponse	0	n/a	n/a	7	67	Cue	Neutral	True
634.077	3.95	Control	0.6470999999999999	0.0	No	2.724	0.001	n/a	NoResponse	0	n/a	n/a	7	67	Fixation	Neutral	True
638.022	0.16	Control	0.6470999999999999	0.004	No	2.724	-0.004	2.0	NoResponse	0	0.201	637.223	7	67	Target	Neutral	True
638.19	0.54	Control	0.6470999999999999	n/a	No	2.724	n/a	n/a	NoResponse	0	n/a	n/a	7	67	Blank	Neutral	True
638.223	0.3	Control	0.6470999999999999	0.004	No	2.724	-0.004	2.0	NoResponse	0	0.201	n/a	7	67	ButtonPress	Neutral	True
638.724	1.45	Control	0.6470999999999999	n/a	No	2.724	n/a	5.0	NoResponse	0	0.022	637.746	7	67	Feedback	Neutral	True
640.179	2.724	Control	0.6470999999999999	n/a	No	2.724	n/a	n/a	NoResponse	0	0.0	n/a	7	67	ISIslide	Neutral	True
642.92	0.25	Win2	0.6522	0.0	Yes	3.08	0.02	n/a	GoodResponse	1	n/a	n/a	8	68	Cue	Win	True
643.171	4.0	Win2	0.6522	0.0	Yes	3.08	0.001	n/a	GoodResponse	1	n/a	n/a	8	68	Fixation	Win	True
647.166	0.17	Win2	0.6522	0.004	Yes	3.08	-0.004	2.0	GoodResponse	1	0.168	646.334	8	68	Target	Win	True
647.334	0.3	Win2	0.6522	0.004	Yes	3.08	-0.004	2.0	GoodResponse	1	0.168	n/a	8	68	ButtonPress	Win	True
647.35	0.53	Win2	0.6522	n/a	Yes	3.08	n/a	n/a	GoodResponse	1	n/a	n/a	8	68	Blank	Win	True
647.868	1.45	Win2	0.6522	n/a	Yes	3.08	n/a	5.0	GoodResponse	1	0.001	646.869	8	68	Feedback	Win	True
649.323	3.08	Win2	0.6522	n/a	Yes	3.08	n/a	n/a	GoodResponse	1	0.0	n/a	8	68	ISIslide	Win	True
652.415	0.25	Win2	0.6429	0.0	No	3.235	0.015	n/a	NoResponse	0	n/a	n/a	8	69	Cue	MissedWin	True
652.666	3.95	Win2	0.6429	0.0	No	3.235	0.001	n/a	NoResponse	0	n/a	n/a	8	69	Fixation	MissedWin	True
656.611	0.18	Win2	0.6429	0.004	No	3.235	-0.004	2.0	NoResponse	0	0.195	655.806	8	69	Target	MissedWin	True
656.795	0.52	Win2	0.6429	n/a	No	3.235	n/a	n/a	NoResponse	0	n/a	n/a	8	69	Blank	MissedWin	True
656.806	0.3	Win2	0.6429	0.004	No	3.235	-0.004	2.0	NoResponse	0	0.195	n/a	8	69	ButtonPress	MissedWin	True
657.313	1.45	Win2	0.6429	n/a	No	3.235	n/a	5.0	NoResponse	0	0.018	656.331	8	69	Feedback	MissedWin	True
658.768	3.235	Win2	0.6429	n/a	No	3.235	n/a	n/a	NoResponse	0	0.0	n/a	8	69	ISIslide	MissedWin	True
662.027	0.25	Lose2	0.6479	0.0	Yes	3.023	0.027	n/a	GoodResponse	0	n/a	n/a	8	70	Cue	AvoidedLoss	True
662.278	4.05	Lose2	0.6479	0.0	Yes	3.023	0.001	n/a	GoodResponse	0	n/a	n/a	8	70	Fixation	AvoidedLoss	True
666.324	0.19	Lose2	0.6479	0.003	Yes	3.023	-0.003	2.0	GoodResponse	0	0.177	665.501	8	70	Target	AvoidedLoss	True
666.501	0.3	Lose2	0.6479	0.003	Yes	3.023	-0.003	2.0	GoodResponse	0	0.177	n/a	8	70	ButtonPress	AvoidedLoss	True
666.524	0.51	Lose2	0.6479	n/a	Yes	3.023	n/a	n/a	GoodResponse	0	n/a	n/a	8	70	Blank	AvoidedLoss	True
667.026	1.45	Lose2	0.6479	n/a	Yes	3.023	n/a	5.0	GoodResponse	0	0.012	666.038	8	70	Feedback	AvoidedLoss	True
668.48	3.023	Lose2	0.6479	n/a	Yes	3.023	n/a	n/a	GoodResponse	0	0.0	n/a	8	70	ISIslide	AvoidedLoss	True
671.522	0.25	Win2	0.6528	0.0	Yes	2.728	0.022	n/a	GoodResponse	1	n/a	n/a	9	71	Cue	Win	True
671.773	4.05	Win2	0.6528	0.0	Yes	2.728	0.001	n/a	GoodResponse	1	n/a	n/a	9	71	Fixation	Win	True
675.819	0.2	Win2	0.6528	0.003	Yes	2.728	-0.003	2.0	GoodResponse	1	0.163	674.982	9	71	Target	Win	True
675.982	0.3	Win2	0.6528	0.003	Yes	2.728	-0.003	2.0	GoodResponse	1	0.163	n/a	9	71	ButtonPress	Win	True
676.019	0.5	Win2	0.6528	n/a	Yes	2.728	n/a	n/a	GoodResponse	1	n/a	n/a	9	71	Blank	Win	True
676.521	1.45	Win2	0.6528	n/a	Yes	2.728	n/a	5.0	GoodResponse	1	0.03	675.551	9	71	Feedback	Win	True
677.975	2.728	Win2	0.6528	n/a	Yes	2.728	n/a	n/a	GoodResponse	1	0.0	n/a	9	71	ISIslide	Win	True
680.717	0.25	Win2	0.6575	0.0	Yes	2.783	0.017	n/a	GoodResponse	1	n/a	n/a	10	72	Cue	Win	True
680.967	4.1	Win2	0.6575	0.0	Yes	2.783	0.0	n/a	GoodResponse	1	n/a	n/a	10	72	Fixation	Win	True
685.063	0.21	Win2	0.6575	0.004	Yes	2.783	-0.004	2.0	GoodResponse	1	0.17	684.233	10	72	Target	Win	True
685.233	0.3	Win2	0.6575	0.004	Yes	2.783	-0.004	2.0	GoodResponse	1	0.17	n/a	10	72	ButtonPress	Win	True
685.28	0.49	Win2	0.6575	n/a	Yes	2.783	n/a	n/a	GoodResponse	1	n/a	n/a	10	72	Blank	Win	True
685.765	1.45	Win2	0.6575	n/a	Yes	2.783	n/a	5.0	GoodResponse	1	0.006	684.771	10	72	Feedback	Win	True
687.219	2.783	Win2	0.6575	n/a	Yes	2.783	n/a	n/a	GoodResponse	1	0.0	n/a	10	72	ISIslide	Win	True
690.028	0.25	Win2	0.6486	0.0	No	2.672	0.028	n/a	NoResponse	0	n/a	n/a	10	73	Cue	MissedWin	False
690.278	4.0	Win2	0.6486	0.001	No	2.672	0.0	n/a	NoResponse	0	n/a	n/a	10	73	Fixation	MissedWin	False
694.274	0.21	Win2	0.6486	0.004	No	2.672	-0.004	n/a	NoResponse	0	n/a	n/a	10	73	Target	MissedWin	False
694.491	0.49	Win2	0.6486	n/a	No	2.672	n/a	n/a	NoResponse	0	n/a	n/a	10	73	Blank	MissedWin	False
694.976	1.45	Win2	0.6486	n/a	No	2.672	n/a	5.0	NoResponse	0	0.013	693.989	10	73	Feedback	MissedWin	False
696.43	2.672	Win2	0.6486	n/a	No	2.672	n/a	n/a	NoResponse	0	0.0	n/a	10	73	ISIslide	MissedWin	False
699.121	0.25	Lose2	0.64	0.001	No	2.629	0.021	n/a	NoResponse	-1	n/a	n/a	9	74	Cue	Loss	True
699.372	4.05	Lose2	0.64	0.0	No	2.629	0.001	n/a	NoResponse	-1	n/a	n/a	9	74	Fixation	Loss	True
703.418	0.22	Lose2	0.64	0.003	No	2.629	-0.003	2.0	NoResponse	-1	0.488	702.906	9	74	Target	Loss	True
703.652	0.48	Lose2	0.64	n/a	No	2.629	n/a	n/a	NoResponse	-1	n/a	n/a	9	74	Blank	Loss	True
703.906	0.3	Lose2	0.64	0.003	No	2.629	-0.003	2.0	NoResponse	-1	0.488	n/a	9	74	ButtonPress	Loss	True
704.12	1.45	Lose2	0.64	n/a	No	2.629	n/a	5.0	NoResponse	-1	0.04	703.16	9	74	Feedback	Loss	True
705.574	2.629	Lose2	0.64	n/a	No	2.629	n/a	n/a	NoResponse	-1	0.0	n/a	9	74	ISIslide	Loss	True
708.215	0.25	Lose2	0.6446999999999999	0.0	Yes	2.935	0.015	n/a	GoodResponse	0	n/a	n/a	9	75	Cue	AvoidedLoss	True
708.466	3.95	Lose2	0.6446999999999999	0.0	Yes	2.935	0.001	n/a	GoodResponse	0	n/a	n/a	9	75	Fixation	AvoidedLoss	True
712.411	0.23	Lose2	0.6446999999999999	0.004	Yes	2.935	-0.004	2.0	GoodResponse	0	0.175	711.586	9	75	Target	AvoidedLoss	True
712.586	0.3	Lose2	0.6446999999999999	0.004	Yes	2.935	-0.004	2.0	GoodResponse	0	0.175	n/a	9	75	ButtonPress	AvoidedLoss	True
712.645	0.47	Lose2	0.6446999999999999	n/a	Yes	2.935	n/a	n/a	GoodResponse	0	n/a	n/a	9	75	Blank	AvoidedLoss	True
713.113	1.45	Lose2	0.6446999999999999	n/a	Yes	2.935	n/a	5.0	GoodResponse	0	0.023	712.136	9	75	Feedback	AvoidedLoss	True
714.568	2.935	Lose2	0.6446999999999999	n/a	Yes	2.935	n/a	n/a	GoodResponse	0	0.0	n/a	9	75	ISIslide	AvoidedLoss	True
717.526	0.25	Control	0.6364	0.001	No	3.224	0.026	n/a	NoResponse	0	n/a	n/a	9	76	Cue	Neutral	True
717.777	4.05	Control	0.6364	0.0	No	3.224	0.001	n/a	NoResponse	0	n/a	n/a	9	76	Fixation	Neutral	True
721.823	0.24	Control	0.6364	0.003	No	3.224	-0.003	2.0	NoResponse	0	0.489	721.312	9	76	Target	Neutral	True
722.073	0.46	Control	0.6364	n/a	No	3.224	n/a	n/a	NoResponse	0	n/a	n/a	9	76	Blank	Neutral	True
722.312	0.3	Control	0.6364	0.003	No	3.224	-0.003	2.0	NoResponse	0	0.489	n/a	9	76	ButtonPress	Neutral	True
722.525	1.45	Control	0.6364	n/a	No	3.224	n/a	5.0	NoResponse	0	0.025	721.55	9	76	Feedback	Neutral	True
723.979	3.224	Control	0.6364	n/a	No	3.224	n/a	n/a	NoResponse	0	0.0	n/a	9	76	ISIslide	Neutral	True
727.222	0.25	Lose2	0.6409999999999999	0.0	Yes	2.578	0.022	n/a	GoodResponse	0	n/a	n/a	9	77	Cue	AvoidedLoss	True
727.473	3.95	Lose2	0.6409999999999999	0.0	Yes	2.578	0.001	n/a	GoodResponse	0	n/a	n/a	9	77	Fixation	AvoidedLoss	True
731.418	0.25	Lose2	0.6409999999999999	0.004	Yes	2.578	-0.004	2.0	GoodResponse	0	0.227	730.645	9	77	Target	AvoidedLoss	True
731.645	0.3	Lose2	0.6409999999999999	0.004	Yes	2.578	-0.004	2.0	GoodResponse	0	0.227	n/a	9	77	ButtonPress	AvoidedLoss	True
731.669	0.45	Lose2	0.6409999999999999	n/a	Yes	2.578	n/a	n/a	GoodResponse	0	n/a	n/a	9	77	Blank	AvoidedLoss	True
732.12	1.45	Lose2	0.6409999999999999	n/a	Yes	2.578	n/a	5.0	GoodResponse	0	0.039	731.159	9	77	Feedback	AvoidedLoss	True
733.574	2.578	Lose2	0.6409999999999999	n/a	Yes	2.578	n/a	n/a	GoodResponse	0	0.0	n/a	9	77	ISIslide	AvoidedLoss	True
