onset	duration	cue_type	current_mean_accuracy	duration_error	is_hit	isi_adjusted	onset_delay	response	response_type	reward	rt	rt_time	total_reward	trial_number	trial_phase	trial_type	one_press
11.097	0.25	Control	0.0	0.0	No	2.953	-0.003	n/a	NoResponse	0	n/a	n/a	0	0	Cue	Neutral	True
11.347	3.85	Control	0.0	0.0	No	2.953	0.0	4.0	NoResponse	0	3.628	13.975	0	0	Fixation	Neutral	True
14.975	0.3	Control	0.0	0.0	No	2.953	0.0	4.0	NoResponse	0	3.628	n/a	0	0	ButtonPress	Neutral	True
15.196	0.4	Control	0.0	0.001	No	2.953	-0.001	n/a	NoResponse	0	n/a	n/a	0	0	Target	Neutral	True
15.596	0.3	Control	0.0	n/a	No	2.953	n/a	n/a	NoResponse	0	n/a	n/a	0	0	Blank	Neutral	True
15.896	1.45	Control	0.0	n/a	No	2.953	n/a	5.0	NoResponse	0	0.034	14.93	0	0	Feedback	Neutral	True
17.345	2.953	Control	0.0	n/a	No	2.953	n/a	n/a	NoResponse	0	0.0	n/a	0	0	ISIslide	Neutral	True
20.327	0.25	Lose2	0.0	0.001	No	2.773	0.027	n/a	NoResponse	-1	n/a	n/a	-1	1	Cue	Loss	True
20.577	4.0	Lose2	0.0	0.0	No	2.773	0.0	4.0	NoResponse	-1	3.776	23.353	-1	1	Fixation	Loss	True
24.353	0.3	Lose2	0.0	0.0	No	2.773	0.0	4.0	NoResponse	-1	3.776	n/a	-1	1	ButtonPress	Loss	True
24.576	0.41	Lose2	0.0	0.001	No	2.773	-0.001	n/a	NoResponse	-1	n/a	n/a	-1	1	Target	Loss	True
24.992	0.29	Lose2	0.0	n/a	No	2.773	n/a	n/a	NoResponse	-1	n/a	n/a	-1	1	Blank	Loss	True
25.276	1.45	Lose2	0.0	n/a	No	2.773	n/a	5.0	NoResponse	-1	0.02	24.296	-1	1	Feedback	Loss	True
26.725	2.773	Lose2	0.0	n/a	No	2.773	n/a	n/a	NoResponse	-1	0.0	n/a	-1	1	ISIslide	Loss	True
29.524	0.25	Control	0.0	0.0	No	2.576	0.024	n/a	NoResponse	0	n/a	n/a	-1	2	Cue	Neutral	True
29.774	4.1	Control	0.0	0.0	No	2.576	0.0	4.0	NoResponse	0	0.818	29.592	-1	2	Fixation	Neutral	True
30.592	0.3	Control	0.0	0.0	No	2.576	0.0	4.0	NoResponse	0	0.818	n/a	-1	2	ButtonPress	Neutral	True
33.873	0.42	Control	0.0	0.001	No	2.576	-0.001	n/a	NoResponse	0	n/a	n/a	-1	2	Target	Neutral	True
34.306	0.28	Control	0.0	n/a	No	2.576	n/a	n/a	NoResponse	0	n/a	n/a	-1	2	Blank	Neutral	True
34.573	1.45	Control	0.0	n/a	No	2.576	n/a	5.0	NoResponse	0	0.04	33.613	-1	2	Feedback	Neutral	True
36.022	2.576	Control	0.0	n/a	No	2.576	n/a	n/a	NoResponse	0	0.0	n/a	-1	2	ISIslide	Neutral	True
38.621	0.25	Win2	0.0	0.0	No	2.829	0.021	n/a	NoResponse	0	n/a	n/a	-1	3	Cue	MissedWin	True
38.871	3.95	Win2	0.0	0.0	No	2.829	0.0	4.0	NoResponse	0	0.431	38.302	-1	3	Fixation	MissedWin	True
39.302	0.3	Win2	0.0	0.0	No	2.829	0.0	4.0	NoResponse	0	0.431	n/a	-1	3	ButtonPress	MissedWin	True
42.82	0.43	Win2	0.0	0.001	No	2.829	-0.001	n/a	NoResponse	0	n/a	n/a	-1	3	Target	MissedWin	True
43.253	0.27	Win2	0.0	n/a	No	2.829	n/a	n/a	NoResponse	0	n/a	n/a	-1	3	Blank	MissedWin	True
43.519	1.45	Win2	0.0	n/a	No	2.829	n/a	5.0	NoResponse	0	0.021	42.54	-1	3	Feedback	MissedWin	True
44.969	2.829	Win2	0.0	n/a	No	2.829	n/a	n/a	NoResponse	0	0.0	n/a	-1	3	ISIslide	MissedWin	True
47.818	0.25	Win2	0.2	0.0	Yes	3.282	0.018	n/a	GoodResponse	1	n/a	n/a	0	4	Cue	Win	True
48.068	4.0	Win2	0.2	0.0	Yes	3.282	0.0	n/a	GoodResponse	1	n/a	n/a	0	4	Fixation	Win	True
52.067	0.44	Win2	0.2	0.001	Yes	3.282	-0.001	4.0	GoodResponse	1	0.206	51.273	0	4	Target	Win	True
52.273	0.3	Win2	0.2	0.001	Yes	3.282	-0.001	4.0	GoodResponse	1	0.206	n/a	0	4	ButtonPress	Win	True
52.516	0.26	Win2	0.2	n/a	Yes	3.282	n/a	n/a	GoodResponse	1	n/a	n/a	0	4	Blank	Win	True
52.766	1.45	Win2	0.2	n/a	Yes	3.282	n/a	5.0	GoodResponse	1	0.042	51.808	0	4	Feedback	Win	True
54.216	3.282	Win2	0.2	n/a	Yes	3.282	n/a	n/a	GoodResponse	1	0.0	n/a	0	4	ISIslide	Win	True
57.515	0.25	Win2	0.3333	0.0	Yes	2.785	0.015	n/a	GoodResponse	1	n/a	n/a	1	5	Cue	Win	True
57.765	4.0	Win2	0.3333	0.0	Yes	2.785	0.0	n/a	GoodResponse	1	n/a	n/a	1	5	Fixation	Win	True
61.763	0.45	Win2	0.3333	0.002	Yes	2.785	-0.002	4.0	GoodResponse	1	0.212	60.975	1	5	Target	Win	True
61.975	0.3	Win2	0.3333	0.002	Yes	2.785	-0.002	4.0	GoodResponse	1	0.212	n/a	1	5	ButtonPress	Win	True
62.213	0.25	Win2	0.3333	n/a	Yes	2.785	n/a	n/a	GoodResponse	1	n/a	n/a	1	5	Blank	Win	True
62.463	1.45	Win2	0.3333	n/a	Yes	2.785	n/a	5.0	GoodResponse	1	0.006	61.469	1	5	Feedback	Win	True
63.912	2.785	Win2	0.3333	n/a	Yes	2.785	n/a	n/a	GoodResponse	1	0.0	n/a	1	5	ISIslide	Win	True
66.728	0.25	Lose2	0.4286	0.0	Yes	2.722	0.028	n/a	GoodResponse	0	n/a	n/a	1	6	Cue	AvoidedLoss	True
66.978	3.95	Lose2	0.4286	0.0	Yes	2.722	0.0	n/a	GoodResponse	0	n/a	n/a	1	6	Fixation	AvoidedLoss	True
70.927	0.46	Lose2	0.4286	0.001	Yes	2.722	-0.001	4.0	GoodResponse	0	0.199	70.126	1	6	Target	AvoidedLoss	True
71.126	0.3	Lose2	0.4286	0.001	Yes	2.722	-0.001	4.0	GoodResponse	0	0.199	n/a	1	6	ButtonPress	AvoidedLoss	True
71.393	0.24	Lose2	0.4286	n/a	Yes	2.722	n/a	n/a	GoodResponse	0	n/a	n/a	1	6	Blank	AvoidedLoss	True
71.627	1.45	Lose2	0.4286	n/a	Yes	2.722	n/a	5.0	GoodResponse	0	0.011	70.638	1	6	Feedback	AvoidedLoss	True
73.076	2.722	Lose2	0.4286	n/a	Yes	2.722	n/a	n/a	GoodResponse	0	0.0	n/a	1	6	ISIslide	AvoidedLoss	True
75.825	0.25	Lose2	0.5	0.0	Yes	4.025	0.025	n/a	GoodResponse	0	n/a	n/a	1	7	Cue	AvoidedLoss	True
76.075	4.05	Lose2	0.5	0.0	Yes	4.025	0.0	n/a	GoodResponse	0	n/a	n/a	1	7	Fixation	AvoidedLoss	True
80.124	0.47	Lose2	0.5	0.001	Yes	4.025	-0.001	4.0	GoodResponse	0	0.229	79.353	1	7	Target	AvoidedLoss	True
80.353	0.3	Lose2	0.5	0.001	Yes	4.025	-0.001	4.0	GoodResponse	0	0.229	n/a	1	7	ButtonPress	AvoidedLoss	True
80.607	0.23	Lose2	0.5	n/a	Yes	4.025	n/a	n/a	GoodResponse	0	n/a	n/a	1	7	Blank	AvoidedLoss	True
80.823	1.45	Lose2	0.5	n/a	Yes	4.025	n/a	5.0	GoodResponse	0	0.033	79.856	1	7	Feedback	AvoidedLoss	True
82.273	4.025	Lose2	0.5	n/a	Yes	4.025	n/a	n/a	GoodResponse	0	0.0	n/a	1	7	ISIslide	AvoidedLoss	True
86.321	0.25	Lose2	0.5556	0.001	Yes	3.029	0.021	n/a	GoodResponse	0	n/a	n/a	1	8	Cue	AvoidedLoss	True
86.571	3.95	Lose2	0.5556	0.0	Yes	3.029	0.0	n/a	GoodResponse	0	n/a	n/a	1	8	Fixation	AvoidedLoss	True
90.52	0.48	Lose2	0.5556	0.001	Yes	3.029	-0.001	4.0	GoodResponse	0	0.21	89.73	1	8	Target	AvoidedLoss	True
90.73	0.3	Lose2	0.5556	0.001	Yes	3.029	-0.001	4.0	GoodResponse	0	0.21	n/a	1	8	ButtonPress	AvoidedLoss	True
91.003	0.22	Lose2	0.5556	n/a	Yes	3.029	n/a	n/a	GoodResponse	0	n/a	n/a	1	8	Blank	AvoidedLoss	True
91.22	1.45	Lose2	0.5556	n/a	Yes	3.029	n/a	5.0	GoodResponse	0	0.027	90.247	1	8	Feedback	AvoidedLoss	True
92.669	3.029	Lose2	0.5556	n/a	Yes	3.029	n/a	n/a	GoodResponse	0	0.0	n/a	1	8	ISIslide	AvoidedLoss	True
95.718	0.25	Lose2	0.5	0.0	No	3.132	0.018	n/a	NoResponse	-1	n/a	n/a	0	9	Cue	Loss	False
95.968	3.95	Lose2	0.5	0.0	No	3.132	0.0	4.0	NoResponse	-1	1.615	96.583	0	9	Fixation	Loss	False
97.583	0.3	Lose2	0.5	0.0	No	3.132	0.0	4.0	NoResponse	-1	1.615	n/a	0	9	ButtonPress	Loss	False
99.917	0.49	Lose2	0.5	0.001	No	3.132	-0.001	4.0	NoResponse	-1	0.528	99.445	0	9	Target	Loss	False
100.417	0.21	Lose2	0.5	n/a	No	3.132	n/a	n/a	NoResponse	-1	n/a	n/a	0	9	Blank	Loss	False
100.445	0.3	Lose2	0.5	0.001	No	3.132	-0.001	4.0	NoResponse	-1	0.528	n/a	0	9	ButtonPress	Loss	False
100.617	1.45	Lose2	0.5	n/a	No	3.132	n/a	5.0	NoResponse	-1	0.045	99.662	0	9	Feedback	Loss	False
102.066	3.132	Lose2	0.5	n/a	No	3.132	n/a	4.0	NoResponse	-1	2.276	n/a	0	9	ISIslide	Loss	False
105.198	0.25	Control	0.4545	0.0	No	3.302	-0.002	n/a	NoResponse	0	n/a	n/a	0	10	Cue	Neutral	True
105.448	4.0	Control	0.4545	0.0	No	3.302	0.0	n/a	NoResponse	0	n/a	n/a	0	10	Fixation	Neutral	True
109.447	0.5	Control	0.4545	0.001	No	3.302	-0.001	4.0	NoResponse	0	0.67	109.117	0	10	Target	Neutral	True
109.947	0.2	Control	0.4545	n/a	No	3.302	n/a	n/a	NoResponse	0	n/a	n/a	0	10	Blank	Neutral	True
110.117	0.3	Control	0.4545	0.001	No	3.302	-0.001	4.0	NoResponse	0	0.67	n/a	0	10	ButtonPress	Neutral	True
110.147	1.45	Control	0.4545	n/a	No	3.302	n/a	5.0	NoResponse	0	0.027	109.174	0	10	Feedback	Neutral	True
111.596	3.302	Control	0.4545	n/a	No	3.302	n/a	n/a	NoResponse	0	0.0	n/a	0	10	ISIslide	Neutral	True
114.928	0.25	Lose2	0.5	0.0	Yes	2.722	0.028	n/a	GoodResponse	0	n/a	n/a	0	11	Cue	AvoidedLoss	True
115.178	4.05	Lose2	0.5	0.0	Yes	2.722	0.0	n/a	GoodResponse	0	n/a	n/a	0	11	Fixation	AvoidedLoss	True
119.227	0.5	Lose2	0.5	0.001	Yes	2.722	-0.001	4.0	GoodResponse	0	0.186	118.413	0	11	Target	AvoidedLoss	True
119.413	0.3	Lose2	0.5	0.001	Yes	2.722	-0.001	4.0	GoodResponse	0	0.186	n/a	0	11	ButtonPress	AvoidedLoss	True
119.727	0.2	Lose2	0.5	n/a	Yes	2.722	n/a	n/a	GoodResponse	0	n/a	n/a	0	11	Blank	AvoidedLoss	True
119.927	1.45	Lose2	0.5	n/a	Yes	2.722	n/a	5.0	GoodResponse	0	0.005	118.932	0	11	Feedback	AvoidedLoss	True
121.376	2.722	Lose2	0.5	n/a	Yes	2.722	n/a	4.0	GoodResponse	0	0.02	n/a	0	11	ISIslide	AvoidedLoss	True
124.109	0.25	Control	0.5385	0.0	Yes	2.991	0.009	n/a	GoodResponse	0	n/a	n/a	0	12	Cue	Neutral	True
124.358	3.9	Control	0.5385	0.001	Yes	2.991	-0.001	n/a	GoodResponse	0	n/a	n/a	0	12	Fixation	Neutral	True
128.257	0.5	Control	0.5385	0.002	Yes	2.991	-0.002	4.0	GoodResponse	0	0.207	127.464	0	12	Target	Neutral	True
128.464	0.3	Control	0.5385	0.002	Yes	2.991	-0.002	4.0	GoodResponse	0	0.207	n/a	0	12	ButtonPress	Neutral	True
128.757	0.2	Control	0.5385	n/a	Yes	2.991	n/a	n/a	GoodResponse	0	n/a	n/a	0	12	Blank	Neutral	True
128.957	1.45	Control	0.5385	n/a	Yes	2.991	n/a	5.0	GoodResponse	0	0.046	128.003	0	12	Feedback	Neutral	True
130.406	2.991	Control	0.5385	n/a	Yes	2.991	n/a	n/a	GoodResponse	0	0.0	n/a	0	12	ISIslide	Neutral	True
133.422	0.25	Control	0.5	0.0	No	2.778	0.022	n/a	NoResponse	0	n/a	n/a	0	13	Cue	Neutral	True
133.672	4.0	Control	0.5	0.0	No	2.778	0.0	4.0	NoResponse	0	3.607	136.279	0	13	Fixation	Neutral	True
137.279	0.3	Control	0.5	0.0	No	2.778	0.0	4.0	NoResponse	0	3.607	n/a	0	13	ButtonPress	Neutral	True
137.671	0.5	Control	0.5	0.001	No	2.778	-0.001	n/a	NoResponse	0	n/a	n/a	0	13	Target	Neutral	True
138.17	0.2	Control	0.5	n/a	No	2.778	n/a	n/a	NoResponse	0	n/a	n/a	0	13	Blank	Neutral	True
138.37	1.45	Control	0.5	n/a	No	2.778	n/a	5.0	NoResponse	0	0.048	137.418	0	13	Feedback	Neutral	True
139.82	2.778	Control	0.5	n/a	No	2.778	n/a	n/a	NoResponse	0	0.0	n/a	0	13	ISIslide	Neutral	True
142.619	0.25	Win2	0.5333	0.0	Yes	2.681	0.019	n/a	GoodResponse	1	n/a	n/a	1	14	Cue	Win	True
142.869	4.1	Win2	0.5333	0.0	Yes	2.681	0.0	n/a	GoodResponse	1	n/a	n/a	1	14	Fixation	Win	True
146.967	0.5	Win2	0.5333	0.002	Yes	2.681	-0.002	4.0	GoodResponse	1	0.185	146.152	1	14	Target	Win	True
147.152	0.3	Win2	0.5333	0.002	Yes	2.681	-0.002	4.0	GoodResponse	1	0.185	n/a	1	14	ButtonPress	Win	True
147.467	0.2	Win2	0.5333	n/a	Yes	2.681	n/a	n/a	GoodResponse	1	n/a	n/a	1	14	Blank	Win	True
147.667	1.45	Win2	0.5333	n/a	Yes	2.681	n/a	5.0	GoodResponse	1	0.019	146.686	1	14	Feedback	Win	True
149.117	2.681	Win2	0.5333	n/a	Yes	2.681	n/a	n/a	GoodResponse	1	0.0	n/a	1	14	ISIslide	Win	True
151.816	0.25	Control	0.5625	0.0	Yes	2.984	0.016	n/a	GoodResponse	0	n/a	n/a	1	15	Cue	Neutral	True
152.066	4.0	Control	0.5625	0.0	Yes	2.984	0.0	n/a	GoodResponse	0	n/a	n/a	1	15	Fixation	Neutral	True
156.064	0.5	Control	0.5625	0.002	Yes	2.984	-0.002	4.0	GoodResponse	0	0.228	155.292	1	15	Target	Neutral	True
156.292	0.3	Control	0.5625	0.002	Yes	2.984	-0.002	4.0	GoodResponse	0	0.228	n/a	1	15	ButtonPress	Neutral	True
156.564	0.2	Control	0.5625	n/a	Yes	2.984	n/a	n/a	GoodResponse	0	n/a	n/a	1	15	Blank	Neutral	True
156.764	1.45	Control	0.5625	n/a	Yes	2.984	n/a	5.0	GoodResponse	0	0.044	155.808	1	15	Feedback	Neutral	True
158.214	2.984	Control	0.5625	n/a	Yes	2.984	n/a	4.0	GoodResponse	0	1.996	n/a	1	15	ISIslide	Neutral	True
161.196	0.25	Win2	0.5882000000000001	0.0	Yes	2.904	-0.004	n/a	GoodResponse	1	n/a	n/a	2	16	Cue	Win	True
161.446	4.0	Win2	0.5882000000000001	0.0	Yes	2.904	0.0	n/a	GoodResponse	1	n/a	n/a	2	16	Fixation	Win	True
165.444	0.5	Win2	0.5882000000000001	0.002	Yes	2.904	-0.002	4.0	GoodResponse	1	0.236	164.68	2	16	Target	Win	True
165.68	0.3	Win2	0.5882000000000001	0.002	Yes	2.904	-0.002	4.0	GoodResponse	1	0.236	n/a	2	16	ButtonPress	Win	True
165.944	0.2	Win2	0.5882000000000001	n/a	Yes	2.904	n/a	n/a	GoodResponse	1	n/a	n/a	2	16	Blank	Win	True
166.144	1.45	Win2	0.5882000000000001	n/a	Yes	2.904	n/a	5.0	GoodResponse	1	0.03	165.174	2	16	Feedback	Win	True
167.594	2.904	Win2	0.5882000000000001	n/a	Yes	2.904	n/a	4.0	GoodResponse	1	1.272	n/a	2	16	ISIslide	Win	True
170.509	0.25	Lose2	0.6111	0.0	Yes	2.741	0.009	n/a	GoodResponse	0	n/a	n/a	2	17	Cue	AvoidedLoss	True
170.759	3.95	Lose2	0.6111	0.0	Yes	2.741	0.0	n/a	GoodResponse	0	n/a	n/a	2	17	Fixation	AvoidedLoss	True
174.708	0.5	Lose2	0.6111	0.001	Yes	2.741	-0.001	4.0	GoodResponse	0	0.33	174.038	2	17	Target	AvoidedLoss	True
175.038	0.3	Lose2	0.6111	0.001	Yes	2.741	-0.001	4.0	GoodResponse	0	0.33	n/a	2	17	ButtonPress	AvoidedLoss	True
175.208	0.2	Lose2	0.6111	n/a	Yes	2.741	n/a	n/a	GoodResponse	0	n/a	n/a	2	17	Blank	AvoidedLoss	True
175.408	1.45	Lose2	0.6111	n/a	Yes	2.741	n/a	5.0	GoodResponse	0	0.034	174.442	2	17	Feedback	AvoidedLoss	True
176.857	2.741	Lose2	0.6111	n/a	Yes	2.741	n/a	n/a	GoodResponse	0	0.0	n/a	2	17	ISIslide	AvoidedLoss	True
179.623	0.25	Lose2	0.5789	0.0	No	2.727	0.023	n/a	NoResponse	-1	n/a	n/a	1	18	Cue	Loss	True
179.873	4.05	Lose2	0.5789	0.0	No	2.727	0.0	4.0	NoResponse	-1	3.081	181.954	1	18	Fixation	Loss	True
182.954	0.3	Lose2	0.5789	0.0	No	2.727	0.0	4.0	NoResponse	-1	3.081	n/a	1	18	ButtonPress	Loss	True
183.921	0.5	Lose2	0.5789	0.002	No	2.727	-0.002	n/a	NoResponse	-1	n/a	n/a	1	18	Target	Loss	True
184.421	0.2	Lose2	0.5789	n/a	No	2.727	n/a	n/a	NoResponse	-1	n/a	n/a	1	18	Blank	Loss	True
184.621	1.45	Lose2	0.5789	n/a	No	2.727	n/a	5.0	NoResponse	-1	0.041	183.662	1	18	Feedback	Loss	True
186.071	2.727	Lose2	0.5789	n/a	No	2.727	n/a	n/a	NoResponse	-1	0.0	n/a	1	18	ISIslide	Loss	True
188.82	0.25	Control	0.6	0.0	Yes	2.93	0.02	n/a	GoodResponse	0	n/a	n/a	1	19	Cue	Neutral	False
189.07	3.95	Control	0.6	0.0	Yes	2.93	0.0	4.0	GoodResponse	0	0.52	188.59	1	19	Fixation	Neutral	False
189.59	0.3	Control	0.6	0.0	Yes	2.93	0.0	4.0	GoodResponse	0	0.52	n/a	1	19	ButtonPress	Neutral	False
193.018	0.5	Control	0.6	0.002	Yes	2.93	-0.002	4.0	GoodResponse	0	0.286	192.304	1	19	Target	Neutral	False
193.304	0.3	Control	0.6	0.002	Yes	2.93	-0.002	4.0	GoodResponse	0	0.286	n/a	1	19	ButtonPress	Neutral	False
193.518	0.2	Control	0.6	n/a	Yes	2.93	n/a	n/a	GoodResponse	0	n/a	n/a	1	19	Blank	Neutral	False
193.718	1.45	Control	0.6	n/a	Yes	2.93	n/a	5.0	GoodResponse	0	0.017	192.735	1	19	Feedback	Neutral	False
195.168	2.93	Control	0.6	n/a	Yes	2.93	n/a	n/a	GoodResponse	0	0.0	n/a	1	19	ISIslide	Neutral	False
198.117	0.25	Control	0.5714	0.0	No	2.633	0.017	n/a	NoResponse	0	n/a	n/a	1	20	Cue	Neutral	True
198.366	4.05	Control	0.5714	0.001	No	2.633	-0.001	4.0	NoResponse	0	1.869	199.235	1	20	Fixation	Neutral	True
200.235	0.3	Control	0.5714	0.001	No	2.633	-0.001	4.0	NoResponse	0	1.869	n/a	1	20	ButtonPress	Neutral	True
202.415	0.5	Control	0.5714	0.002	No	2.633	-0.002	n/a	NoResponse	0	n/a	n/a	1	20	Target	Neutral	True
202.915	0.2	Control	0.5714	n/a	No	2.633	n/a	n/a	NoResponse	0	n/a	n/a	1	20	Blank	Neutral	True
203.115	1.45	Control	0.5714	n/a	No	2.633	n/a	5.0	NoResponse	0	0.035	202.15	1	20	Feedback	Neutral	True
204.564	2.633	Control	0.5714	n/a	No	2.633	n/a	n/a	NoResponse	0	0.0	n/a	1	20	ISIslide	Neutral	True
207.213	0.25	Control	0.5909	0.0	Yes	2.787	0.013	n/a	GoodResponse	0	n/a	n/a	1	21	Cue	Neutral	True
207.463	4.1	Control	0.5909	0.0	Yes	2.787	0.0	n/a	GoodResponse	0	n/a	n/a	1	21	Fixation	Neutral	True
211.562	0.5	Control	0.5909	0.001	Yes	2.787	-0.001	4.0	GoodResponse	0	0.294	210.856	1	21	Target	Neutral	True
211.856	0.3	Control	0.5909	0.001	Yes	2.787	-0.001	4.0	GoodResponse	0	0.294	n/a	1	21	ButtonPress	Neutral	True
212.062	0.2	Control	0.5909	n/a	Yes	2.787	n/a	n/a	GoodResponse	0	n/a	n/a	1	21	Blank	Neutral	True
212.262	1.45	Control	0.5909	n/a	Yes	2.787	n/a	5.0	GoodResponse	0	0.01	211.272	1	21	Feedback	Neutral	True
213.711	2.787	Control	0.5909	n/a	Yes	2.787	n/a	n/a	GoodResponse	0	0.0	n/a	1	21	ISIslide	Neutral	True
216.527	0.25	Control	0.6087	0.0	Yes	2.773	0.027	n/a	GoodResponse	0	n/a	n/a	1	22	Cue	Neutral	True
216.777	4.0	Control	0.6087	0.0	Yes	2.773	0.0	n/a	GoodResponse	0	n/a	n/a	1	22	Fixation	Neutral	True
220.775	0.5	Control	0.6087	0.002	Yes	2.773	-0.002	4.0	GoodResponse	0	0.236	220.011	1	22	Target	Neutral	True
221.011	0.3	Control	0.6087	0.002	Yes	2.773	-0.002	4.0	GoodResponse	0	0.236	n/a	1	22	ButtonPress	Neutral	True
221.275	0.2	Control	0.6087	n/a	Yes	2.773	n/a	n/a	GoodResponse	0	n/a	n/a	1	22	Blank	Neutral	True
221.475	1.45	Control	0.6087	n/a	Yes	2.773	n/a	5.0	GoodResponse	0	0.015	220.49	1	22	Feedback	Neutral	True
222.925	2.773	Control	0.6087	n/a	Yes	2.773	n/a	n/a	GoodResponse	0	0.0	n/a	1	22	ISIslide	Neutral	True
225.724	0.25	Control	0.625	0.0	Yes	2.776	0.024	n/a	GoodResponse	0	n/a	n/a	1	23	Cue	Neutral	True
225.974	3.9	Control	0.625	0.0	Yes	2.776	0.0	n/a	GoodResponse	0	n/a	n/a	1	23	Fixation	Neutral	True
229.872	0.5	Control	0.625	0.002	Yes	2.776	-0.002	4.0	GoodResponse	0	0.463	229.335	1	23	Target	Neutral	True
230.335	0.3	Control	0.625	0.002	Yes	2.776	-0.002	4.0	GoodResponse	0	0.463	n/a	1	23	ButtonPress	Neutral	True
230.372	0.2	Control	0.625	n/a	Yes	2.776	n/a	n/a	GoodResponse	0	n/a	n/a	1	23	Blank	Neutral	True
230.572	1.45	Control	0.625	n/a	Yes	2.776	n/a	5.0	GoodResponse	0	0.04	229.612	1	23	Feedback	Neutral	True
232.022	2.776	Control	0.625	n/a	Yes	2.776	n/a	n/a	GoodResponse	0	0.0	n/a	1	23	ISIslide	Neutral	True
234.821	0.25	Win2	0.64	0.0	Yes	3.129	0.021	n/a	GoodResponse	1	n/a	n/a	2	24	Cue	Win	True
235.071	3.95	Win2	0.64	0.0	Yes	3.129	0.0	n/a	GoodResponse	1	n/a	n/a	2	24	Fixation	Win	True
239.019	0.5	Win2	0.64	0.002	Yes	3.129	-0.002	4.0	GoodResponse	1	0.298	238.317	2	24	Target	Win	True
239.317	0.3	Win2	0.64	0.002	Yes	3.129	-0.002	4.0	GoodResponse	1	0.298	n/a	2	24	ButtonPress	Win	True
239.519	0.2	Win2	0.64	n/a	Yes	3.129	n/a	n/a	GoodResponse	1	n/a	n/a	2	24	Blank	Win	True
239.719	1.45	Win2	0.64	n/a	Yes	3.129	n/a	5.0	GoodResponse	1	0.016	238.735	2	24	Feedback	Win	True
241.168	3.129	Win2	0.64	n/a	Yes	3.129	n/a	n/a	GoodResponse	1	0.0	n/a	2	24	ISIslide	Win	True
244.317	0.25	Win2	0.6537999999999999	0.0	Yes	3.083	0.017	n/a	GoodResponse	1	n/a	n/a	3	25	Cue	Win	True
244.567	4.0	Win2	0.6537999999999999	0.0	Yes	3.083	0.0	n/a	GoodResponse	1	n/a	n/a	3	25	Fixation	Win	True
248.566	0.5	Win2	0.6537999999999999	0.001	Yes	3.083	-0.001	4.0	GoodResponse	1	0.237	247.803	3	25	Target	Win	True
248.803	0.3	Win2	0.6537999999999999	0.001	Yes	3.083	-0.001	4.0	GoodResponse	1	0.237	n/a	3	25	ButtonPress	Win	True
249.066	0.2	Win2	0.6537999999999999	n/a	Yes	3.083	n/a	n/a	GoodResponse	1	n/a	n/a	3	25	Blank	Win	True
249.266	1.45	Win2	0.6537999999999999	n/a	Yes	3.083	n/a	5.0	GoodResponse	1	0.03	248.296	3	25	Feedback	Win	True
250.715	3.083	Win2	0.6537999999999999	n/a	Yes	3.083	n/a	n/a	GoodResponse	1	0.0	n/a	3	25	ISIslide	Win	True
253.814	0.25	Win2	0.6667000000000001	0.0	Yes	2.936	0.014	n/a	GoodResponse	1	n/a	n/a	4	26	Cue	Win	True
254.064	3.95	Win2	0.6667000000000001	0.0	Yes	2.936	0.0	n/a	GoodResponse	1	n/a	n/a	4	26	Fixation	Win	True
258.013	0.5	Win2	0.6667000000000001	0.001	Yes	2.936	-0.001	4.0	GoodResponse	1	0.3	257.313	4	26	Target	Win	True
258.313	0.3	Win2	0.6667000000000001	0.001	Yes	2.936	-0.001	4.0	GoodResponse	1	0.3	n/a	4	26	ButtonPress	Win	True
258.513	0.2	Win2	0.6667000000000001	n/a	Yes	2.936	n/a	n/a	GoodResponse	1	n/a	n/a	4	26	Blank	Win	True
258.712	1.45	Win2	0.6667000000000001	n/a	Yes	2.936	n/a	5.0	GoodResponse	1	0.047	257.759	4	26	Feedback	Win	True
260.162	2.936	Win2	0.6667000000000001	n/a	Yes	2.936	n/a	n/a	GoodResponse	1	0.0	n/a	4	26	ISIslide	Win	True
263.128	0.25	Lose2	0.6786	0.0	Yes	2.822	0.028	n/a	GoodResponse	0	n/a	n/a	4	27	Cue	AvoidedLoss	True
263.378	4.05	Lose2	0.6786	0.0	Yes	2.822	0.0	n/a	GoodResponse	0	n/a	n/a	4	27	Fixation	AvoidedLoss	True
267.426	0.49	Lose2	0.6786	0.002	Yes	2.822	-0.002	4.0	GoodResponse	0	0.262	266.688	4	27	Target	AvoidedLoss	True
267.688	0.3	Lose2	0.6786	0.002	Yes	2.822	-0.002	4.0	GoodResponse	0	0.262	n/a	4	27	ButtonPress	AvoidedLoss	True
267.926	0.21	Lose2	0.6786	n/a	Yes	2.822	n/a	n/a	GoodResponse	0	n/a	n/a	4	27	Blank	AvoidedLoss	True
268.126	1.45	Lose2	0.6786	n/a	Yes	2.822	n/a	5.0	GoodResponse	0	0.048	267.174	4	27	Feedback	AvoidedLoss	True
269.575	2.822	Lose2	0.6786	n/a	Yes	2.822	n/a	n/a	GoodResponse	0	0.0	n/a	4	27	ISIslide	AvoidedLoss	True
272.424	0.25	Control	0.6897	0.001	Yes	2.826	0.024	n/a	GoodResponse	0	n/a	n/a	4	28	Cue	Neutral	True
272.674	4.05	Control	0.6897	0.0	Yes	2.826	0.0	n/a	GoodResponse	0	n/a	n/a	4	28	Fixation	Neutral	True
276.723	0.48	Control	0.6897	0.001	Yes	2.826	-0.001	4.0	GoodResponse	0	0.27	275.993	4	28	Target	Neutral	True
276.993	0.3	Control	0.6897	0.001	Yes	2.826	-0.001	4.0	GoodResponse	0	0.27	n/a	4	28	ButtonPress	Neutral	True
277.206	0.22	Control	0.6897	n/a	Yes	2.826	n/a	n/a	GoodResponse	0	n/a	n/a	4	28	Blank	Neutral	True
277.423	1.45	Control	0.6897	n/a	Yes	2.826	n/a	5.0	GoodResponse	0	0.019	276.442	4	28	Feedback	Neutral	True
278.872	2.826	Control	0.6897	n/a	Yes	2.826	n/a	4.0	GoodResponse	0	1.245	n/a	4	28	ISIslide	Neutral	True
281.705	0.25	Lose2	0.7	0.0	Yes	2.845	0.005	n/a	GoodResponse	0	n/a	n/a	4	29	Cue	AvoidedLoss	False
281.954	3.95	Lose2	0.7	0.001	Yes	2.845	-0.001	4.0	GoodResponse	0	0.624	281.578	4	29	Fixation	AvoidedLoss	False
282.578	0.3	Lose2	0.7	0.001	Yes	2.845	-0.001	4.0	GoodResponse	0	0.624	n/a	4	29	ButtonPress	AvoidedLoss	False
285.903	0.47	Lose2	0.7	0.002	Yes	2.845	-0.002	4.0	GoodResponse	0	0.285	285.188	4	29	Target	AvoidedLoss	False
286.188	0.3	Lose2	0.7	0.002	Yes	2.845	-0.002	4.0	GoodResponse	0	0.285	n/a	4	29	ButtonPress	AvoidedLoss	False
286.386	0.23	Lose2	0.7	n/a	Yes	2.845	n/a	n/a	GoodResponse	0	n/a	n/a	4	29	Blank	AvoidedLoss	False
286.603	1.45	Lose2	0.7	n/a	Yes	2.845	n/a	5.0	GoodResponse	0	0.01	285.613	4	29	Feedback	AvoidedLoss	False
288.052	2.845	Lose2	0.7	n/a	Yes	2.845	n/a	n/a	GoodResponse	0	0.0	n/a	4	29	ISIslide	AvoidedLoss	False
290.918	0.25	Win2	0.7097	0.0	Yes	2.782	0.018	n/a	GoodResponse	1	n/a	n/a	5	30	Cue	Win	True
291.168	3.9	Win2	0.7097	0.0	Yes	2.782	0.0	n/a	GoodResponse	1	n/a	n/a	5	30	Fixation	Win	True
295.067	0.46	Win2	0.7097	0.001	Yes	2.782	-0.001	4.0	GoodResponse	1	0.226	294.293	5	30	Target	Win	True
295.293	0.3	Win2	0.7097	0.001	Yes	2.782	-0.001	4.0	GoodResponse	1	0.226	n/a	5	30	ButtonPress	Win	True
295.533	0.24	Win2	0.7097	n/a	Yes	2.782	n/a	n/a	GoodResponse	1	n/a	n/a	5	30	Blank	Win	True
295.766	1.45	Win2	0.7097	n/a	Yes	2.782	n/a	5.0	GoodResponse	1	0.017	294.783	5	30	Feedback	Win	True
297.216	2.782	Win2	0.7097	n/a	Yes	2.782	n/a	n/a	GoodResponse	1	0.0	n/a	5	30	ISIslide	Win	True
300.015	0.25	Lose2	0.7188	0.0	Yes	2.835	0.015	n/a	GoodResponse	0	n/a	n/a	5	31	Cue	AvoidedLoss	True
300.265	4.05	Lose2	0.7188	0.0	Yes	2.835	0.0	n/a	GoodResponse	0	n/a	n/a	5	31	Fixation	AvoidedLoss	True
304.313	0.45	Lose2	0.7188	0.002	Yes	2.835	-0.002	4.0	GoodResponse	0	0.211	303.524	5	31	Target	AvoidedLoss	True
304.524	0.3	Lose2	0.7188	0.002	Yes	2.835	-0.002	4.0	GoodResponse	0	0.211	n/a	5	31	ButtonPress	AvoidedLoss	True
304.763	0.25	Lose2	0.7188	n/a	Yes	2.835	n/a	n/a	GoodResponse	0	n/a	n/a	5	31	Blank	AvoidedLoss	True
305.013	1.45	Lose2	0.7188	n/a	Yes	2.835	n/a	5.0	GoodResponse	0	0.038	304.051	5	31	Feedback	AvoidedLoss	True
306.463	2.835	Lose2	0.7188	n/a	Yes	2.835	n/a	n/a	GoodResponse	0	0.0	n/a	5	31	ISIslide	AvoidedLoss	True
309.328	0.25	Lose2	0.6970000000000001	0.001	No	2.622	0.028	n/a	NoResponse	-1	n/a	n/a	4	32	Cue	Loss	True
309.578	4.15	Lose2	0.6970000000000001	0.0	No	2.622	0.0	n/a	NoResponse	-1	n/a	n/a	4	32	Fixation	Loss	True
313.727	0.44	Lose2	0.6970000000000001	0.001	No	2.622	-0.001	4.0	NoResponse	-1	0.456	313.183	4	32	Target	Loss	True
314.177	0.26	Lose2	0.6970000000000001	n/a	No	2.622	n/a	n/a	NoResponse	-1	n/a	n/a	4	32	Blank	Loss	True
314.183	0.3	Lose2	0.6970000000000001	0.001	No	2.622	-0.001	4.0	NoResponse	-1	0.456	n/a	4	32	ButtonPress	Loss	True
314.427	1.45	Lose2	0.6970000000000001	n/a	No	2.622	n/a	5.0	NoResponse	-1	0.039	313.466	4	32	Feedback	Loss	True
315.876	2.622	Lose2	0.6970000000000001	n/a	No	2.622	n/a	n/a	NoResponse	-1	0.0	n/a	4	32	ISIslide	Loss	True
318.525	0.25	Win2	0.7059000000000001	0.0	Yes	2.675	0.025	n/a	GoodResponse	1	n/a	n/a	5	33	Cue	Win	True
318.775	4.0	Win2	0.7059000000000001	0.0	Yes	2.675	0.0	n/a	GoodResponse	1	n/a	n/a	5	33	Fixation	Win	True
322.774	0.43	Win2	0.7059000000000001	0.001	Yes	2.675	-0.001	4.0	GoodResponse	1	0.243	322.017	5	33	Target	Win	True
323.017	0.3	Win2	0.7059000000000001	0.001	Yes	2.675	-0.001	4.0	GoodResponse	1	0.243	n/a	5	33	ButtonPress	Win	True
323.207	0.27	Win2	0.7059000000000001	n/a	Yes	2.675	n/a	n/a	GoodResponse	1	n/a	n/a	5	33	Blank	Win	True
323.474	1.45	Win2	0.7059000000000001	n/a	Yes	2.675	n/a	5.0	GoodResponse	1	0.017	322.491	5	33	Feedback	Win	True
324.923	2.675	Win2	0.7059000000000001	n/a	Yes	2.675	n/a	n/a	GoodResponse	1	0.0	n/a	5	33	ISIslide	Win	True
327.622	0.25	Lose2	0.7143	0.0	Yes	2.628	0.022	n/a	GoodResponse	0	n/a	n/a	5	34	Cue	AvoidedLoss	True
327.872	4.05	Lose2	0.7143	0.0	Yes	2.628	0.0	n/a	GoodResponse	0	n/a	n/a	5	34	Fixation	AvoidedLoss	True
331.921	0.42	Lose2	0.7143	0.001	Yes	2.628	-0.001	4.0	GoodResponse	0	0.211	331.132	5	34	Target	AvoidedLoss	True
332.132	0.3	Lose2	0.7143	0.001	Yes	2.628	-0.001	4.0	GoodResponse	0	0.211	n/a	5	34	ButtonPress	AvoidedLoss	True
332.354	0.28	Lose2	0.7143	n/a	Yes	2.628	n/a	n/a	GoodResponse	0	n/a	n/a	5	34	Blank	AvoidedLoss	True
332.62	1.45	Lose2	0.7143	n/a	Yes	2.628	n/a	5.0	GoodResponse	0	0.042	331.662	5	34	Feedback	AvoidedLoss	True
334.07	2.628	Lose2	0.7143	n/a	Yes	2.628	n/a	4.0	GoodResponse	0	1.319	n/a	5	34	ISIslide	AvoidedLoss	True
336.702	0.25	Lose2	0.6944	0.0	No	2.698	0.002	n/a	NoResponse	-1	n/a	n/a	4	35	Cue	Loss	True
336.952	4.0	Lose2	0.6944	0.0	No	2.698	0.0	4.0	NoResponse	-1	3.516	339.468	4	35	Fixation	Loss	True
340.468	0.3	Lose2	0.6944	0.0	No	2.698	0.0	4.0	NoResponse	-1	3.516	n/a	4	35	ButtonPress	Loss	True
340.951	0.41	Lose2	0.6944	0.001	No	2.698	-0.001	n/a	NoResponse	-1	n/a	n/a	4	35	Target	Loss	True
341.367	0.29	Lose2	0.6944	n/a	No	2.698	n/a	n/a	NoResponse	-1	n/a	n/a	4	35	Blank	Loss	True
341.651	1.45	Lose2	0.6944	n/a	No	2.698	n/a	5.0	NoResponse	-1	0.035	340.686	4	35	Feedback	Loss	True
343.1	2.698	Lose2	0.6944	n/a	No	2.698	n/a	n/a	NoResponse	-1	0.0	n/a	4	35	ISIslide	Loss	True
345.816	0.25	Control	0.7027	0.0	Yes	2.684	0.016	n/a	GoodResponse	0	n/a	n/a	4	36	Cue	Neutral	True
346.066	4.0	Control	0.7027	0.0	Yes	2.684	0.0	n/a	GoodResponse	0	n/a	n/a	4	36	Fixation	Neutral	True
350.065	0.4	Control	0.7027	0.001	Yes	2.684	-0.001	4.0	GoodResponse	0	0.234	349.299	4	36	Target	Neutral	True
350.299	0.3	Control	0.7027	0.001	Yes	2.684	-0.001	4.0	GoodResponse	0	0.234	n/a	4	36	ButtonPress	Neutral	True
350.464	0.3	Control	0.7027	n/a	Yes	2.684	n/a	n/a	GoodResponse	0	n/a	n/a	4	36	Blank	Neutral	True
350.764	1.45	Control	0.7027	n/a	Yes	2.684	n/a	5.0	GoodResponse	0	0.044	349.808	4	36	Feedback	Neutral	True
352.214	2.684	Control	0.7027	n/a	Yes	2.684	n/a	n/a	GoodResponse	0	0.0	n/a	4	36	ISIslide	Neutral	True
354.93	0.25	Win2	0.7105	0.0	Yes	2.87	0.03	n/a	GoodResponse	1	n/a	n/a	5	37	Cue	Win	True
355.179	4.0	Win2	0.7105	0.001	Yes	2.87	-0.001	n/a	GoodResponse	1	n/a	n/a	5	37	Fixation	Win	True
359.178	0.39	Win2	0.7105	0.002	Yes	2.87	-0.002	4.0	GoodResponse	1	0.271	358.449	5	37	Target	Win	True
359.449	0.3	Win2	0.7105	0.002	Yes	2.87	-0.002	4.0	GoodResponse	1	0.271	n/a	5	37	ButtonPress	Win	True
359.578	0.31	Win2	0.7105	n/a	Yes	2.87	n/a	n/a	GoodResponse	1	n/a	n/a	5	37	Blank	Win	True
359.878	1.45	Win2	0.7105	n/a	Yes	2.87	n/a	5.0	GoodResponse	1	0.006	358.884	5	37	Feedback	Win	True
361.327	2.87	Win2	0.7105	n/a	Yes	2.87	n/a	n/a	GoodResponse	1	0.0	n/a	5	37	ISIslide	Win	True
364.226	0.25	Lose2	0.7179000000000001	0.0	Yes	2.824	0.026	n/a	GoodResponse	0	n/a	n/a	5	38	Cue	AvoidedLoss	True
364.476	3.95	Lose2	0.7179000000000001	0.0	Yes	2.824	0.0	n/a	GoodResponse	0	n/a	n/a	5	38	Fixation	AvoidedLoss	True
368.425	0.38	Lose2	0.7179000000000001	0.001	Yes	2.824	-0.001	4.0	GoodResponse	0	0.253	367.678	5	38	Target	AvoidedLoss	True
368.678	0.3	Lose2	0.7179000000000001	0.001	Yes	2.824	-0.001	4.0	GoodResponse	0	0.253	n/a	5	38	ButtonPress	AvoidedLoss	True
368.808	0.32	Lose2	0.7179000000000001	n/a	Yes	2.824	n/a	n/a	GoodResponse	0	n/a	n/a	5	38	Blank	AvoidedLoss	True
369.125	1.45	Lose2	0.7179000000000001	n/a	Yes	2.824	n/a	5.0	GoodResponse	0	0.024	368.149	5	38	Feedback	AvoidedLoss	True
370.574	2.824	Lose2	0.7179000000000001	n/a	Yes	2.824	n/a	n/a	GoodResponse	0	0.0	n/a	5	38	ISIslide	AvoidedLoss	True
373.423	0.25	Win2	0.725	0.0	Yes	2.977	0.023	n/a	GoodResponse	1	n/a	n/a	6	39	Cue	Win	True
373.673	4.1	Win2	0.725	0.0	Yes	2.977	0.0	n/a	GoodResponse	1	n/a	n/a	6	39	Fixation	Win	True
377.772	0.37	Win2	0.725	0.001	Yes	2.977	-0.001	4.0	GoodResponse	1	0.277	377.049	6	39	Target	Win	True
378.049	0.3	Win2	0.725	0.001	Yes	2.977	-0.001	4.0	GoodResponse	1	0.277	n/a	6	39	ButtonPress	Win	True
378.155	0.33	Win2	0.725	n/a	Yes	2.977	n/a	n/a	GoodResponse	1	n/a	n/a	6	39	Blank	Win	True
378.471	1.45	Win2	0.725	n/a	Yes	2.977	n/a	5.0	GoodResponse	1	0.044	377.515	6	39	Feedback	Win	True
379.921	2.977	Win2	0.725	n/a	Yes	2.977	n/a	n/a	GoodResponse	1	0.0	n/a	6	39	ISIslide	Win	True
382.92	0.25	Win2	0.7317	0.0	Yes	2.73	0.02	n/a	GoodResponse	1	n/a	n/a	7	40	Cue	Win	True
383.17	3.95	Win2	0.7317	0.0	Yes	2.73	0.0	n/a	GoodResponse	1	n/a	n/a	7	40	Fixation	Win	True
387.118	0.36	Win2	0.7317	0.002	Yes	2.73	-0.002	4.0	GoodResponse	1	0.271	386.389	7	40	Target	Win	True
387.389	0.3	Win2	0.7317	0.002	Yes	2.73	-0.002	4.0	GoodResponse	1	0.271	n/a	7	40	ButtonPress	Win	True
387.485	0.34	Win2	0.7317	n/a	Yes	2.73	n/a	n/a	GoodResponse	1	n/a	n/a	7	40	Blank	Win	True
387.818	1.45	Win2	0.7317	n/a	Yes	2.73	n/a	5.0	GoodResponse	1	0.014	386.832	7	40	Feedback	Win	True
389.268	2.73	Win2	0.7317	n/a	Yes	2.73	n/a	n/a	GoodResponse	1	0.0	n/a	7	40	ISIslide	Win	True
392.017	0.25	Win2	0.7381	0.0	Yes	2.783	0.017	n/a	GoodResponse	1	n/a	n/a	8	41	Cue	Win	True
392.267	3.9	Win2	0.7381	0.0	Yes	2.783	0.0	n/a	GoodResponse	1	n/a	n/a	8	41	Fixation	Win	True
396.165	0.35	Win2	0.7381	0.002	Yes	2.783	-0.002	4.0	GoodResponse	1	0.235	395.4	8	41	Target	Win	True
396.4	0.3	Win2	0.7381	0.002	Yes	2.783	-0.002	4.0	GoodResponse	1	0.235	n/a	8	41	ButtonPress	Win	True
396.515	0.35	Win2	0.7381	n/a	Yes	2.783	n/a	n/a	GoodResponse	1	n/a	n/a	8	41	Blank	Win	True
396.865	1.45	Win2	0.7381	n/a	Yes	2.783	n/a	5.0	GoodResponse	1	0.04	395.905	8	41	Feedback	Win	True
398.315	2.783	Win2	0.7381	n/a	Yes	2.783	n/a	n/a	GoodResponse	1	0.0	n/a	8	41	ISIslide	Win	True
401.114	0.25	Control	0.7442	0.0	Yes	2.936	0.014	n/a	GoodResponse	0	n/a	n/a	8	42	Cue	Neutral	True
401.364	3.85	Control	0.7442	0.0	Yes	2.936	0.0	n/a	GoodResponse	0	n/a	n/a	8	42	Fixation	Neutral	True
405.212	0.34	Control	0.7442	0.002	Yes	2.936	-0.002	4.0	GoodResponse	0	0.211	404.423	8	42	Target	Neutral	True
405.423	0.3	Control	0.7442	0.002	Yes	2.936	-0.002	4.0	GoodResponse	0	0.211	n/a	8	42	ButtonPress	Neutral	True
405.562	0.36	Control	0.7442	n/a	Yes	2.936	n/a	n/a	GoodResponse	0	n/a	n/a	8	42	Blank	Neutral	True
405.912	1.45	Control	0.7442	n/a	Yes	2.936	n/a	5.0	GoodResponse	0	0.018	404.93	8	42	Feedback	Neutral	True
407.362	2.936	Control	0.7442	n/a	Yes	2.936	n/a	n/a	GoodResponse	0	0.0	n/a	8	42	ISIslide	Neutral	True
410.327	0.25	Win2	0.75	0.0	Yes	3.173	0.027	n/a	GoodResponse	1	n/a	n/a	9	43	Cue	Win	True
410.577	4.0	Win2	0.75	0.0	Yes	3.173	0.0	n/a	GoodResponse	1	n/a	n/a	9	43	Fixation	Win	True
414.576	0.33	Win2	0.75	0.001	Yes	3.173	-0.001	4.0	GoodResponse	1	0.196	413.772	9	43	Target	Win	True
414.772	0.3	Win2	0.75	0.001	Yes	3.173	-0.001	4.0	GoodResponse	1	0.196	n/a	9	43	ButtonPress	Win	True
414.909	0.37	Win2	0.75	n/a	Yes	3.173	n/a	n/a	GoodResponse	1	n/a	n/a	9	43	Blank	Win	True
415.276	1.45	Win2	0.75	n/a	Yes	3.173	n/a	5.0	GoodResponse	1	0.02	414.296	9	43	Feedback	Win	True
416.725	3.173	Win2	0.75	n/a	Yes	3.173	n/a	n/a	GoodResponse	1	0.0	n/a	9	43	ISIslide	Win	True
419.924	0.25	Win2	0.7556	0.0	Yes	2.976	0.024	n/a	GoodResponse	1	n/a	n/a	10	44	Cue	Win	True
420.174	4.0	Win2	0.7556	0.0	Yes	2.976	0.0	n/a	GoodResponse	1	n/a	n/a	10	44	Fixation	Win	True
424.172	0.32	Win2	0.7556	0.002	Yes	2.976	-0.002	4.0	GoodResponse	1	0.251	423.423	10	44	Target	Win	True
424.423	0.3	Win2	0.7556	0.002	Yes	2.976	-0.002	4.0	GoodResponse	1	0.251	n/a	10	44	ButtonPress	Win	True
424.506	0.38	Win2	0.7556	n/a	Yes	2.976	n/a	n/a	GoodResponse	1	n/a	n/a	10	44	Blank	Win	True
424.872	1.45	Win2	0.7556	n/a	Yes	2.976	n/a	5.0	GoodResponse	1	0.034	423.906	10	44	Feedback	Win	True
426.322	2.976	Win2	0.7556	n/a	Yes	2.976	n/a	n/a	GoodResponse	1	0.0	n/a	10	44	ISIslide	Win	True
429.321	0.25	Control	0.7609	0.0	Yes	2.879	0.021	n/a	GoodResponse	0	n/a	n/a	10	45	Cue	Neutral	True
429.571	4.1	Control	0.7609	0.0	Yes	2.879	0.0	n/a	GoodResponse	0	n/a	n/a	10	45	Fixation	Neutral	True
433.669	0.31	Control	0.7609	0.002	Yes	2.879	-0.002	4.0	GoodResponse	0	0.207	432.876	10	45	Target	Neutral	True
433.876	0.3	Control	0.7609	0.002	Yes	2.879	-0.002	4.0	GoodResponse	0	0.207	n/a	10	45	ButtonPress	Neutral	True
433.986	0.39	Control	0.7609	n/a	Yes	2.879	n/a	n/a	GoodResponse	0	n/a	n/a	10	45	Blank	Neutral	True
434.369	1.45	Control	0.7609	n/a	Yes	2.879	n/a	5.0	GoodResponse	0	0.049	433.418	10	45	Feedback	Neutral	True
435.818	2.879	Control	0.7609	n/a	Yes	2.879	n/a	n/a	GoodResponse	0	0.0	n/a	10	45	ISIslide	Neutral	True
438.717	0.25	Lose2	0.7659999999999999	0.001	Yes	3.383	0.017	n/a	GoodResponse	0	n/a	n/a	10	46	Cue	AvoidedLoss	True
438.967	4.0	Lose2	0.7659999999999999	0.0	Yes	3.383	0.0	n/a	GoodResponse	0	n/a	n/a	10	46	Fixation	AvoidedLoss	True
442.966	0.3	Lose2	0.7659999999999999	0.001	Yes	3.383	-0.001	4.0	GoodResponse	0	0.228	442.194	10	46	Target	AvoidedLoss	True
443.194	0.3	Lose2	0.7659999999999999	0.001	Yes	3.383	-0.001	4.0	GoodResponse	0	0.228	n/a	10	46	ButtonPress	AvoidedLoss	True
443.266	0.4	Lose2	0.7659999999999999	n/a	Yes	3.383	n/a	n/a	GoodResponse	0	n/a	n/a	10	46	Blank	AvoidedLoss	True
443.666	1.45	Lose2	0.7659999999999999	n/a	Yes	3.383	n/a	5.0	GoodResponse	0	0.019	442.685	10	46	Feedback	AvoidedLoss	True
445.115	3.383	Lose2	0.7659999999999999	n/a	Yes	3.383	n/a	n/a	GoodResponse	0	0.0	n/a	10	46	ISIslide	AvoidedLoss	True
448.531	0.25	Lose2	0.7707999999999999	0.0	Yes	2.669	0.031	n/a	GoodResponse	0	n/a	n/a	10	47	Cue	AvoidedLoss	True
448.781	4.0	Lose2	0.7707999999999999	0.0	Yes	2.669	0.0	n/a	GoodResponse	0	n/a	n/a	10	47	Fixation	AvoidedLoss	True
452.779	0.29	Lose2	0.7707999999999999	0.002	Yes	2.669	-0.002	4.0	GoodResponse	0	0.248	452.027	10	47	Target	AvoidedLoss	True
453.027	0.3	Lose2	0.7707999999999999	0.002	Yes	2.669	-0.002	4.0	GoodResponse	0	0.248	n/a	10	47	ButtonPress	AvoidedLoss	True
453.079	0.41	Lose2	0.7707999999999999	n/a	Yes	2.669	n/a	n/a	GoodResponse	0	n/a	n/a	10	47	Blank	AvoidedLoss	True
453.479	1.45	Lose2	0.7707999999999999	n/a	Yes	2.669	n/a	5.0	GoodResponse	0	0.011	452.49	10	47	Feedback	AvoidedLoss	True
454.929	2.669	Lose2	0.7707999999999999	n/a	Yes	2.669	n/a	n/a	GoodResponse	0	0.0	n/a	10	47	ISIslide	AvoidedLoss	True
457.628	0.25	Lose2	0.7755	0.0	Yes	3.022	0.028	n/a	GoodResponse	0	n/a	n/a	10	48	Cue	AvoidedLoss	True
457.878	3.95	Lose2	0.7755	0.0	Yes	3.022	0.0	n/a	GoodResponse	0	n/a	n/a	10	48	Fixation	AvoidedLoss	True
461.826	0.28	Lose2	0.7755	0.002	Yes	3.022	-0.002	4.0	GoodResponse	0	0.203	461.029	10	48	Target	AvoidedLoss	True
462.029	0.3	Lose2	0.7755	0.002	Yes	3.022	-0.002	4.0	GoodResponse	0	0.203	n/a	10	48	ButtonPress	AvoidedLoss	True
462.109	0.42	Lose2	0.7755	n/a	Yes	3.022	n/a	n/a	GoodResponse	0	n/a	n/a	10	48	Blank	AvoidedLoss	True
462.526	1.45	Lose2	0.7755	n/a	Yes	3.022	n/a	5.0	GoodResponse	0	0.038	461.564	10	48	Feedback	AvoidedLoss	True
463.976	3.022	Lose2	0.7755	n/a	Yes	3.022	n/a	n/a	GoodResponse	0	0.0	n/a	10	48	ISIslide	AvoidedLoss	True
467.024	0.25	Control	0.76	0.001	No	2.876	0.024	n/a	NoResponse	0	n/a	n/a	10	49	Cue	Neutral	False
467.274	4.0	Control	0.76	0.0	No	2.876	0.0	4.0	NoResponse	0	0.053	466.327	10	49	Fixation	Neutral	False
467.327	0.3	Control	0.76	0.0	No	2.876	0.0	4.0	NoResponse	0	0.053	n/a	10	49	ButtonPress	Neutral	False
471.273	0.27	Control	0.76	0.001	No	2.876	-0.001	4.0	NoResponse	0	0.34	470.613	10	49	Target	Neutral	False
471.54	0.43	Control	0.76	n/a	No	2.876	n/a	n/a	NoResponse	0	n/a	n/a	10	49	Blank	Neutral	False
471.613	0.3	Control	0.76	0.001	No	2.876	-0.001	4.0	NoResponse	0	0.34	n/a	10	49	ButtonPress	Neutral	False
471.973	1.45	Control	0.76	n/a	No	2.876	n/a	5.0	NoResponse	0	0.005	470.978	10	49	Feedback	Neutral	False
473.422	2.876	Control	0.76	n/a	No	2.876	n/a	n/a	NoResponse	0	0.0	n/a	10	49	ISIslide	Neutral	False
476.321	0.25	Control	0.7646999999999999	0.0	Yes	2.779	0.021	n/a	GoodResponse	0	n/a	n/a	10	50	Cue	Neutral	True
476.571	4.0	Control	0.7646999999999999	0.0	Yes	2.779	0.0	n/a	GoodResponse	0	n/a	n/a	10	50	Fixation	Neutral	True
480.57	0.26	Control	0.7646999999999999	0.001	Yes	2.779	-0.001	4.0	GoodResponse	0	0.244	479.814	10	50	Target	Neutral	True
480.814	0.3	Control	0.7646999999999999	0.001	Yes	2.779	-0.001	4.0	GoodResponse	0	0.244	n/a	10	50	ButtonPress	Neutral	True
480.836	0.44	Control	0.7646999999999999	n/a	Yes	2.779	n/a	n/a	GoodResponse	0	n/a	n/a	10	50	Blank	Neutral	True
481.27	1.45	Control	0.7646999999999999	n/a	Yes	2.779	n/a	5.0	GoodResponse	0	0.026	480.296	10	50	Feedback	Neutral	True
482.719	2.779	Control	0.7646999999999999	n/a	Yes	2.779	n/a	n/a	GoodResponse	0	0.0	n/a	10	50	ISIslide	Neutral	True
485.518	0.25	Control	0.75	0.0	No	2.732	0.018	n/a	NoResponse	0	n/a	n/a	10	51	Cue	Neutral	True
485.768	3.95	Control	0.75	0.0	No	2.732	0.0	n/a	NoResponse	0	n/a	n/a	10	51	Fixation	Neutral	True
489.717	0.25	Control	0.75	0.001	No	2.732	-0.001	4.0	NoResponse	0	0.267	488.984	10	51	Target	Neutral	True
489.967	0.45	Control	0.75	n/a	No	2.732	n/a	n/a	NoResponse	0	n/a	n/a	10	51	Blank	Neutral	True
489.984	0.3	Control	0.75	0.001	No	2.732	-0.001	4.0	NoResponse	0	0.267	n/a	10	51	ButtonPress	Neutral	True
490.416	1.45	Control	0.75	n/a	No	2.732	n/a	5.0	NoResponse	0	0.002	489.418	10	51	Feedback	Neutral	True
491.866	2.732	Control	0.75	n/a	No	2.732	n/a	n/a	NoResponse	0	0.0	n/a	10	51	ISIslide	Neutral	True
494.615	0.25	Control	0.7358	0.0	No	2.635	0.015	n/a	NoResponse	0	n/a	n/a	10	52	Cue	Neutral	True
494.865	4.05	Control	0.7358	0.0	No	2.635	0.0	n/a	NoResponse	0	n/a	n/a	10	52	Fixation	Neutral	True
498.914	0.24	Control	0.7358	0.001	No	2.635	-0.001	4.0	NoResponse	0	0.264	498.178	10	52	Target	Neutral	True
499.163	0.46	Control	0.7358	n/a	No	2.635	n/a	n/a	NoResponse	0	n/a	n/a	10	52	Blank	Neutral	True
499.178	0.3	Control	0.7358	0.001	No	2.635	-0.001	4.0	NoResponse	0	0.264	n/a	10	52	ButtonPress	Neutral	True
499.613	1.45	Control	0.7358	n/a	No	2.635	n/a	5.0	NoResponse	0	0.024	498.637	10	52	Feedback	Neutral	True
501.063	2.635	Control	0.7358	n/a	No	2.635	n/a	n/a	NoResponse	0	0.0	n/a	10	52	ISIslide	Neutral	True
503.729	0.25	Win2	0.7406999999999999	0.0	Yes	2.921	0.029	n/a	GoodResponse	1	n/a	n/a	11	53	Cue	Win	True
503.978	4.05	Win2	0.7406999999999999	0.001	Yes	2.921	-0.001	n/a	GoodResponse	1	n/a	n/a	11	53	Fixation	Win	True
508.027	0.23	Win2	0.7406999999999999	0.002	Yes	2.921	-0.002	4.0	GoodResponse	1	0.198	507.225	11	53	Target	Win	True
508.225	0.3	Win2	0.7406999999999999	0.002	Yes	2.921	-0.002	4.0	GoodResponse	1	0.198	n/a	11	53	ButtonPress	Win	True
508.26	0.47	Win2	0.7406999999999999	n/a	Yes	2.921	n/a	n/a	GoodResponse	1	n/a	n/a	11	53	Blank	Win	True
508.727	1.45	Win2	0.7406999999999999	n/a	Yes	2.921	n/a	5.0	GoodResponse	1	0.032	507.759	11	53	Feedback	Win	True
510.176	2.921	Win2	0.7406999999999999	n/a	Yes	2.921	n/a	n/a	GoodResponse	1	0.0	n/a	11	53	ISIslide	Win	True
513.125	0.25	Win2	0.7454999999999999	0.0	Yes	2.725	0.025	n/a	GoodResponse	1	n/a	n/a	12	54	Cue	Win	True
513.375	3.95	Win2	0.7454999999999999	0.0	Yes	2.725	0.0	n/a	GoodResponse	1	n/a	n/a	12	54	Fixation	Win	True
517.324	0.22	Win2	0.7454999999999999	0.001	Yes	2.725	-0.001	4.0	GoodResponse	1	0.219	516.543	12	54	Target	Win	True
517.541	0.48	Win2	0.7454999999999999	n/a	Yes	2.725	n/a	n/a	GoodResponse	1	n/a	n/a	12	54	Blank	Win	True
517.543	0.3	Win2	0.7454999999999999	0.001	Yes	2.725	-0.001	4.0	GoodResponse	1	0.219	n/a	12	54	ButtonPress	Win	True
518.024	1.45	Win2	0.7454999999999999	n/a	Yes	2.725	n/a	5.0	GoodResponse	1	0.005	517.029	12	54	Feedback	Win	True
519.473	2.725	Win2	0.7454999999999999	n/a	Yes	2.725	n/a	n/a	GoodResponse	1	0.0	n/a	12	54	ISIslide	Win	True
522.222	0.25	Control	0.7321	0.0	No	3.028	0.022	n/a	NoResponse	0	n/a	n/a	12	55	Cue	Neutral	False
522.472	3.95	Control	0.7321	0.0	No	3.028	0.0	4.0	NoResponse	0	2.536	524.008	12	55	Fixation	Neutral	False
525.008	0.3	Control	0.7321	0.0	No	3.028	0.0	4.0	NoResponse	0	2.536	n/a	12	55	ButtonPress	Neutral	False
526.421	0.21	Control	0.7321	0.001	No	3.028	-0.001	4.0	NoResponse	0	0.223	525.644	12	55	Target	Neutral	False
526.637	0.49	Control	0.7321	n/a	No	3.028	n/a	n/a	NoResponse	0	n/a	n/a	12	55	Blank	Neutral	False
526.644	0.3	Control	0.7321	0.001	No	3.028	-0.001	4.0	NoResponse	0	0.223	n/a	12	55	ButtonPress	Neutral	False
527.121	1.45	Control	0.7321	n/a	No	3.028	n/a	5.0	NoResponse	0	0.028	526.149	12	55	Feedback	Neutral	False
528.57	3.028	Control	0.7321	n/a	No	3.028	n/a	n/a	NoResponse	0	0.0	n/a	12	55	ISIslide	Neutral	False
531.619	0.25	Control	0.7193	0.0	No	2.831	0.019	n/a	NoResponse	0	n/a	n/a	12	56	Cue	Neutral	False
531.869	3.95	Control	0.7193	0.0	No	2.831	0.0	4.0	NoResponse	0	1.088	531.957	12	56	Fixation	Neutral	False
532.957	0.3	Control	0.7193	0.0	No	2.831	0.0	4.0	NoResponse	0	1.088	n/a	12	56	ButtonPress	Neutral	False
535.818	0.2	Control	0.7193	0.001	No	2.831	-0.001	4.0	NoResponse	0	0.254	535.072	12	56	Target	Neutral	False
536.018	0.5	Control	0.7193	n/a	No	2.831	n/a	n/a	NoResponse	0	n/a	n/a	12	56	Blank	Neutral	False
536.072	0.3	Control	0.7193	0.001	No	2.831	-0.001	4.0	NoResponse	0	0.254	n/a	12	56	ButtonPress	Neutral	False
536.517	1.45	Control	0.7193	n/a	No	2.831	n/a	5.0	NoResponse	0	0.047	535.564	12	56	Feedback	Neutral	False
537.967	2.831	Control	0.7193	n/a	No	2.831	n/a	n/a	NoResponse	0	0.0	n/a	12	56	ISIslide	Neutral	False
540.816	0.25	Control	0.7069	0.0	No	3.484	0.016	n/a	NoResponse	0	n/a	n/a	12	57	Cue	Neutral	False
541.066	4.0	Control	0.7069	0.0	No	3.484	0.0	4.0	NoResponse	0	1.467	541.533	12	57	Fixation	Neutral	False
542.533	0.3	Control	0.7069	0.0	No	3.484	0.0	4.0	NoResponse	0	1.467	n/a	12	57	ButtonPress	Neutral	False
545.064	0.19	Control	0.7069	0.002	No	3.484	-0.002	4.0	NoResponse	0	0.25	544.314	12	57	Target	Neutral	False
545.264	0.51	Control	0.7069	n/a	No	3.484	n/a	n/a	NoResponse	0	n/a	n/a	12	57	Blank	Neutral	False
545.314	0.3	Control	0.7069	0.002	No	3.484	-0.002	4.0	NoResponse	0	0.25	n/a	12	57	ButtonPress	Neutral	False
545.764	1.45	Control	0.7069	n/a	No	3.484	n/a	5.0	NoResponse	0	0.019	544.783	12	57	Feedback	Neutral	False
547.214	3.484	Control	0.7069	n/a	No	3.484	n/a	n/a	NoResponse	0	0.0	n/a	12	57	ISIslide	Neutral	False
550.729	0.25	Win2	0.6949	0.0	No	2.721	0.029	n/a	NoResponse	0	n/a	n/a	12	58	Cue	MissedWin	True
550.979	4.05	Win2	0.6949	0.0	No	2.721	0.0	n/a	NoResponse	0	n/a	n/a	12	58	Fixation	MissedWin	True
555.028	0.18	Win2	0.6949	0.001	No	2.721	-0.001	4.0	NoResponse	0	0.242	554.27	12	58	Target	MissedWin	True
555.211	0.52	Win2	0.6949	n/a	No	2.721	n/a	n/a	NoResponse	0	n/a	n/a	12	58	Blank	MissedWin	True
555.27	0.3	Win2	0.6949	0.001	No	2.721	-0.001	4.0	NoResponse	0	0.242	n/a	12	58	ButtonPress	MissedWin	True
555.727	1.45	Win2	0.6949	n/a	No	2.721	n/a	5.0	NoResponse	0	0.008	554.735	12	58	Feedback	MissedWin	True
557.177	2.721	Win2	0.6949	n/a	No	2.721	n/a	n/a	NoResponse	0	0.0	n/a	12	58	ISIslide	MissedWin	True
559.926	0.25	Lose2	0.6833	0.0	No	2.674	0.026	n/a	NoResponse	-1	n/a	n/a	11	59	Cue	Loss	True
560.176	4.0	Lose2	0.6833	0.0	No	2.674	0.0	n/a	NoResponse	-1	n/a	n/a	11	59	Fixation	Loss	True
564.175	0.17	Lose2	0.6833	0.001	No	2.674	-0.001	4.0	NoResponse	-1	0.264	563.439	11	59	Target	Loss	True
564.358	0.53	Lose2	0.6833	n/a	No	2.674	n/a	n/a	NoResponse	-1	n/a	n/a	11	59	Blank	Loss	True
564.439	0.3	Lose2	0.6833	0.001	No	2.674	-0.001	4.0	NoResponse	-1	0.264	n/a	11	59	ButtonPress	Loss	True
564.874	1.45	Lose2	0.6833	n/a	No	2.674	n/a	5.0	NoResponse	-1	0.031	563.905	11	59	Feedback	Loss	True
566.324	2.674	Lose2	0.6833	n/a	No	2.674	n/a	n/a	NoResponse	-1	0.0	n/a	11	59	ISIslide	Loss	True
569.023	0.25	Control	0.6720999999999999	0.0	No	2.677	0.023	n/a	NoResponse	0	n/a	n/a	11	60	Cue	Neutral	True
569.273	4.0	Control	0.6720999999999999	0.0	No	2.677	0.0	n/a	NoResponse	0	n/a	n/a	11	60	Fixation	Neutral	True
573.271	0.16	Control	0.6720999999999999	0.002	No	2.677	-0.002	4.0	NoResponse	0	0.19	572.461	11	60	Target	Neutral	True
573.438	0.54	Control	0.6720999999999999	n/a	No	2.677	n/a	n/a	NoResponse	0	n/a	n/a	11	60	Blank	Neutral	True
573.461	0.3	Control	0.6720999999999999	0.002	No	2.677	-0.002	4.0	NoResponse	0	0.19	n/a	11	60	ButtonPress	Neutral	True
573.971	1.45	Control	0.6720999999999999	n/a	No	2.677	n/a	5.0	NoResponse	0	0.008	572.979	11	60	Feedback	Neutral	True
575.421	2.677	Control	0.6720999999999999	n/a	No	2.677	n/a	n/a	NoResponse	0	0.0	n/a	11	60	ISIslide	Neutral	True
578.12	0.25	Lose2	0.6613	0.0	No	2.98	0.02	n/a	NoResponse	-1	n/a	n/a	10	61	Cue	Loss	True
578.37	4.0	Lose2	0.6613	0.0	No	2.98	0.0	n/a	NoResponse	-1	n/a	n/a	10	61	Fixation	Loss	True
582.368	0.15	Lose2	0.6613	0.002	No	2.98	-0.002	4.0	NoResponse	-1	0.215	581.583	10	61	Target	Loss	True
582.518	0.55	Lose2	0.6613	n/a	No	2.98	n/a	n/a	NoResponse	-1	n/a	n/a	10	61	Blank	Loss	True
582.583	0.3	Lose2	0.6613	0.002	No	2.98	-0.002	4.0	NoResponse	-1	0.215	n/a	10	61	ButtonPress	Loss	True
583.068	1.45	Lose2	0.6613	n/a	No	2.98	n/a	5.0	NoResponse	-1	0.033	582.101	10	61	Feedback	Loss	True
584.518	2.98	Lose2	0.6613	n/a	No	2.98	n/a	n/a	NoResponse	-1	0.0	n/a	10	61	ISIslide	Loss	True
587.517	0.25	Lose2	0.6507999999999999	0.0	No	2.883	0.017	n/a	NoResponse	-1	n/a	n/a	9	62	Cue	Loss	True
587.766	3.9	Lose2	0.6507999999999999	0.001	No	2.883	-0.001	n/a	NoResponse	-1	n/a	n/a	9	62	Fixation	Loss	True
591.665	0.15	Lose2	0.6507999999999999	0.002	No	2.883	-0.002	4.0	NoResponse	-1	0.216	590.881	9	62	Target	Loss	True
591.815	0.55	Lose2	0.6507999999999999	n/a	No	2.883	n/a	n/a	NoResponse	-1	n/a	n/a	9	62	Blank	Loss	True
591.881	0.3	Lose2	0.6507999999999999	0.002	No	2.883	-0.002	4.0	NoResponse	-1	0.216	n/a	9	62	ButtonPress	Loss	True
592.365	1.45	Lose2	0.6507999999999999	n/a	No	2.883	n/a	5.0	NoResponse	-1	0.008	591.373	9	62	Feedback	Loss	True
593.814	2.883	Lose2	0.6507999999999999	n/a	No	2.883	n/a	n/a	NoResponse	-1	0.0	n/a	9	62	ISIslide	Loss	True
596.73	0.25	Lose2	0.6406000000000001	0.0	No	2.62	0.03	n/a	NoResponse	-1	n/a	n/a	8	63	Cue	Loss	True
596.98	4.05	Lose2	0.6406000000000001	0.0	No	2.62	0.0	4.0	NoResponse	-1	1.82	597.8	8	63	Fixation	Loss	True
598.8	0.3	Lose2	0.6406000000000001	0.0	No	2.62	0.0	4.0	NoResponse	-1	1.82	n/a	8	63	ButtonPress	Loss	True
601.029	0.16	Lose2	0.6406000000000001	0.001	No	2.62	-0.001	n/a	NoResponse	-1	n/a	n/a	8	63	Target	Loss	True
601.195	0.54	Lose2	0.6406000000000001	n/a	No	2.62	n/a	n/a	NoResponse	-1	n/a	n/a	8	63	Blank	Loss	True
601.728	1.45	Lose2	0.6406000000000001	n/a	No	2.62	n/a	5.0	NoResponse	-1	0.007	600.735	8	63	Feedback	Loss	True
603.178	2.62	Lose2	0.6406000000000001	n/a	No	2.62	n/a	n/a	NoResponse	-1	0.0	n/a	8	63	ISIslide	Loss	True
605.827	0.25	Win2	0.6308	0.0	No	3.123	0.027	n/a	NoResponse	0	n/a	n/a	8	64	Cue	MissedWin	False
606.077	4.15	Win2	0.6308	0.0	No	3.123	0.0	4.0	NoResponse	0	3.136	608.213	8	64	Fixation	MissedWin	False
609.213	0.3	Win2	0.6308	0.0	No	3.123	0.0	4.0	NoResponse	0	3.136	n/a	8	64	ButtonPress	MissedWin	False
610.225	0.17	Win2	0.6308	0.002	No	3.123	-0.002	4.0	NoResponse	0	0.267	609.492	8	64	Target	MissedWin	False
610.409	0.53	Win2	0.6308	n/a	No	3.123	n/a	n/a	NoResponse	0	n/a	n/a	8	64	Blank	MissedWin	False
610.492	0.3	Win2	0.6308	0.002	No	3.123	-0.002	4.0	NoResponse	0	0.267	n/a	8	64	ButtonPress	MissedWin	False
610.925	1.45	Win2	0.6308	n/a	No	3.123	n/a	5.0	NoResponse	0	0.029	609.954	8	64	Feedback	MissedWin	False
612.375	3.123	Win2	0.6308	n/a	No	3.123	n/a	n/a	NoResponse	0	0.0	n/a	8	64	ISIslide	MissedWin	False
615.524	0.25	Control	0.6212	0.0	No	2.776	0.024	n/a	NoResponse	0	n/a	n/a	8	65	Cue	Neutral	False
615.774	4.0	Control	0.6212	0.0	No	2.776	0.0	4.0	NoResponse	0	2.299	617.073	8	65	Fixation	Neutral	False
618.073	0.3	Control	0.6212	0.0	No	2.776	0.0	4.0	NoResponse	0	2.299	n/a	8	65	ButtonPress	Neutral	False
619.772	0.18	Control	0.6212	0.002	No	2.776	-0.002	4.0	NoResponse	0	0.221	618.993	8	65	Target	Neutral	False
619.955	0.52	Control	0.6212	n/a	No	2.776	n/a	n/a	NoResponse	0	n/a	n/a	8	65	Blank	Neutral	False
619.993	0.3	Control	0.6212	0.002	No	2.776	-0.002	4.0	NoResponse	0	0.221	n/a	8	65	ButtonPress	Neutral	False
620.472	1.45	Control	0.6212	n/a	No	2.776	n/a	5.0	NoResponse	0	0.043	619.515	8	65	Feedback	Neutral	False
621.921	2.776	Control	0.6212	n/a	No	2.776	n/a	4.0	NoResponse	0	1.092	n/a	8	65	ISIslide	Neutral	False
624.704	0.25	Win2	0.6119	0.0	No	2.796	0.004	n/a	NoResponse	0	n/a	n/a	8	66	Cue	MissedWin	True
624.954	3.9	Win2	0.6119	0.0	No	2.796	0.0	4.0	NoResponse	0	0.879	624.833	8	66	Fixation	MissedWin	True
625.833	0.3	Win2	0.6119	0.0	No	2.796	0.0	4.0	NoResponse	0	0.879	n/a	8	66	ButtonPress	MissedWin	True
628.852	0.19	Win2	0.6119	0.002	No	2.796	-0.002	n/a	NoResponse	0	n/a	n/a	8	66	Target	MissedWin	True
629.052	0.51	Win2	0.6119	n/a	No	2.796	n/a	n/a	NoResponse	0	n/a	n/a	8	66	Blank	MissedWin	True
629.552	1.45	Win2	0.6119	n/a	No	2.796	n/a	5.0	NoResponse	0	0.036	628.588	8	66	Feedback	MissedWin	True
631.002	2.796	Win2	0.6119	n/a	No	2.796	n/a	n/a	NoResponse	0	0.0	n/a	8	66	ISIslide	MissedWin	True
633.817	0.25	Control	0.6029	0.0	No	2.733	0.017	n/a	NoResponse	0	n/a	n/a	8	67	Cue	Neutral	False
634.067	3.95	Control	0.6029	0.0	No	2.733	0.0	4.0	NoResponse	0	0.054	633.121	8	67	Fixation	Neutral	False
634.121	0.3	Control	0.6029	0.0	No	2.733	0.0	4.0	NoResponse	0	0.054	n/a	8	67	ButtonPress	Neutral	False
638.016	0.2	Control	0.6029	0.001	No	2.733	-0.001	4.0	NoResponse	0	0.245	637.261	8	67	Target	Neutral	False
638.216	0.5	Control	0.6029	n/a	No	2.733	n/a	n/a	NoResponse	0	n/a	n/a	8	67	Blank	Neutral	False
638.261	0.3	Control	0.6029	0.001	No	2.733	-0.001	4.0	NoResponse	0	0.245	n/a	8	67	ButtonPress	Neutral	False
638.716	1.45	Control	0.6029	n/a	No	2.733	n/a	5.0	NoResponse	0	0.043	637.759	8	67	Feedback	Neutral	False
640.165	2.733	Control	0.6029	n/a	No	2.733	n/a	n/a	NoResponse	0	0.0	n/a	8	67	ISIslide	Neutral	False
642.914	0.25	Win2	0.5942000000000001	0.0	No	3.086	0.014	n/a	NoResponse	0	n/a	n/a	8	68	Cue	MissedWin	False
643.164	4.0	Win2	0.5942000000000001	0.0	No	3.086	0.0	4.0	NoResponse	0	0.055	642.219	8	68	Fixation	MissedWin	False
643.219	0.3	Win2	0.5942000000000001	0.0	No	3.086	0.0	4.0	NoResponse	0	0.055	n/a	8	68	ButtonPress	MissedWin	False
647.163	0.21	Win2	0.5942000000000001	0.001	No	3.086	-0.001	4.0	NoResponse	0	0.23	646.393	8	68	Target	MissedWin	False
647.379	0.49	Win2	0.5942000000000001	n/a	No	3.086	n/a	n/a	NoResponse	0	n/a	n/a	8	68	Blank	MissedWin	False
647.393	0.3	Win2	0.5942000000000001	0.001	No	3.086	-0.001	4.0	NoResponse	0	0.23	n/a	8	68	ButtonPress	MissedWin	False
647.863	1.45	Win2	0.5942000000000001	n/a	No	3.086	n/a	5.0	NoResponse	0	0.018	646.881	8	68	Feedback	MissedWin	False
649.312	3.086	Win2	0.5942000000000001	n/a	No	3.086	n/a	n/a	NoResponse	0	0.0	n/a	8	68	ISIslide	MissedWin	False
652.428	0.25	Win2	0.6	0.0	Yes	3.222	0.028	n/a	GoodResponse	1	n/a	n/a	9	69	Cue	Win	True
652.678	3.95	Win2	0.6	0.0	Yes	3.222	0.0	n/a	GoodResponse	1	n/a	n/a	9	69	Fixation	Win	True
656.626	0.22	Win2	0.6	0.002	Yes	3.222	-0.002	4.0	GoodResponse	1	0.201	655.827	9	69	Target	Win	True
656.827	0.3	Win2	0.6	0.002	Yes	3.222	-0.002	4.0	GoodResponse	1	0.201	n/a	9	69	ButtonPress	Win	True
656.859	0.48	Win2	0.6	n/a	Yes	3.222	n/a	n/a	GoodResponse	1	n/a	n/a	9	69	Blank	Win	True
657.326	1.45	Win2	0.6	n/a	Yes	3.222	n/a	5.0	GoodResponse	1	0.019	656.345	9	69	Feedback	Win	True
658.775	3.222	Win2	0.6	n/a	Yes	3.222	n/a	n/a	GoodResponse	1	0.0	n/a	9	69	ISIslide	Win	True
662.024	0.25	Lose2	0.6056	0.0	Yes	3.026	0.024	n/a	GoodResponse	0	n/a	n/a	9	70	Cue	AvoidedLoss	True
662.274	4.05	Lose2	0.6056	0.0	Yes	3.026	0.0	n/a	GoodResponse	0	n/a	n/a	9	70	Fixation	AvoidedLoss	True
666.323	0.23	Lose2	0.6056	0.001	Yes	3.026	-0.001	4.0	GoodResponse	0	0.194	665.517	9	70	Target	AvoidedLoss	True
666.517	0.3	Lose2	0.6056	0.001	Yes	3.026	-0.001	4.0	GoodResponse	0	0.194	n/a	9	70	ButtonPress	AvoidedLoss	True
666.556	0.47	Lose2	0.6056	n/a	Yes	3.026	n/a	n/a	GoodResponse	0	n/a	n/a	9	70	Blank	AvoidedLoss	True
667.023	1.45	Lose2	0.6056	n/a	Yes	3.026	n/a	5.0	GoodResponse	0	0.028	666.051	9	70	Feedback	AvoidedLoss	True
668.472	3.026	Lose2	0.6056	n/a	Yes	3.026	n/a	n/a	GoodResponse	0	0.0	n/a	9	70	ISIslide	AvoidedLoss	True
671.521	0.25	Win2	0.5972	0.0	No	2.729	0.021	n/a	PrematurePress	0	n/a	n/a	9	71	Cue	MissedWin	True
671.771	4.05	Win2	0.5972	0.0	No	2.729	0.0	n/a	PrematurePress	0	n/a	n/a	9	71	Fixation	MissedWin	True
675.82	0.24	Win2	0.5972	0.001	No	2.729	-0.001	4.0	PrematurePress	0	0.023	674.843	9	71	Target	MissedWin	True
675.843	0.3	Win2	0.5972	0.001	No	2.729	-0.001	4.0	PrematurePress	0	0.023	n/a	9	71	ButtonPress	MissedWin	True
676.07	0.46	Win2	0.5972	n/a	No	2.729	n/a	n/a	PrematurePress	0	n/a	n/a	9	71	Blank	MissedWin	True
676.519	1.45	Win2	0.5972	n/a	No	2.729	n/a	5.0	PrematurePress	0	0.044	675.563	9	71	Feedback	MissedWin	True
677.969	2.729	Win2	0.5972	n/a	No	2.729	n/a	n/a	PrematurePress	0	0.0	n/a	9	71	ISIslide	MissedWin	True
680.718	0.25	Win2	0.589	0.0	No	2.782	0.018	n/a	NoResponse	0	n/a	n/a	9	72	Cue	MissedWin	True
680.968	4.1	Win2	0.589	0.0	No	2.782	0.0	4.0	NoResponse	0	0.017	679.985	9	72	Fixation	MissedWin	True
680.985	0.3	Win2	0.589	0.0	No	2.782	0.0	4.0	NoResponse	0	0.017	n/a	9	72	ButtonPress	MissedWin	True
685.066	0.25	Win2	0.589	0.002	No	2.782	-0.002	n/a	NoResponse	0	n/a	n/a	9	72	Target	MissedWin	True
685.316	0.45	Win2	0.589	n/a	No	2.782	n/a	n/a	NoResponse	0	n/a	n/a	9	72	Blank	MissedWin	True
685.766	1.45	Win2	0.589	n/a	No	2.782	n/a	5.0	NoResponse	0	0.017	684.783	9	72	Feedback	MissedWin	True
687.216	2.782	Win2	0.589	n/a	No	2.782	n/a	4.0	NoResponse	0	0.574	n/a	9	72	ISIslide	MissedWin	True
689.998	0.25	Win2	0.5811	0.0	No	2.702	-0.002	n/a	NoResponse	0	n/a	n/a	9	73	Cue	MissedWin	False
690.248	4.0	Win2	0.5811	0.0	No	2.702	0.0	n/a	NoResponse	0	n/a	n/a	9	73	Fixation	MissedWin	False
694.247	0.26	Win2	0.5811	0.001	No	2.702	-0.001	n/a	NoResponse	0	n/a	n/a	9	73	Target	MissedWin	False
694.513	0.44	Win2	0.5811	n/a	No	2.702	n/a	n/a	NoResponse	0	n/a	n/a	9	73	Blank	MissedWin	False
694.946	1.45	Win2	0.5811	n/a	No	2.702	n/a	5.0	NoResponse	0	0.008	693.954	9	73	Feedback	MissedWin	False
696.396	2.702	Win2	0.5811	n/a	No	2.702	n/a	4.0	NoResponse	0	0.334	n/a	9	73	ISIslide	MissedWin	False
699.112	0.25	Lose2	0.5867	0.0	Yes	2.638	0.012	n/a	GoodResponse	0	n/a	n/a	9	74	Cue	AvoidedLoss	True
699.362	4.05	Lose2	0.5867	0.0	Yes	2.638	0.0	n/a	GoodResponse	0	n/a	n/a	9	74	Fixation	AvoidedLoss	True
703.41	0.27	Lose2	0.5867	0.002	Yes	2.638	-0.002	4.0	GoodResponse	0	0.174	702.584	9	74	Target	AvoidedLoss	True
703.584	0.3	Lose2	0.5867	0.002	Yes	2.638	-0.002	4.0	GoodResponse	0	0.174	n/a	9	74	ButtonPress	AvoidedLoss	True
703.693	0.43	Lose2	0.5867	n/a	Yes	2.638	n/a	n/a	GoodResponse	0	n/a	n/a	9	74	Blank	AvoidedLoss	True
704.11	1.45	Lose2	0.5867	n/a	Yes	2.638	n/a	5.0	GoodResponse	0	0.015	703.125	9	74	Feedback	AvoidedLoss	True
705.559	2.638	Lose2	0.5867	n/a	Yes	2.638	n/a	n/a	GoodResponse	0	0.0	n/a	9	74	ISIslide	AvoidedLoss	True
708.225	0.25	Lose2	0.5921	0.0	Yes	2.925	0.025	n/a	GoodResponse	0	n/a	n/a	9	75	Cue	AvoidedLoss	False
708.475	3.95	Lose2	0.5921	0.0	Yes	2.925	0.0	4.0	GoodResponse	0	1.788	709.263	9	75	Fixation	AvoidedLoss	False
710.263	0.3	Lose2	0.5921	0.0	Yes	2.925	0.0	4.0	GoodResponse	0	1.788	n/a	9	75	ButtonPress	AvoidedLoss	False
712.424	0.28	Lose2	0.5921	0.001	Yes	2.925	-0.001	4.0	GoodResponse	0	0.219	711.643	9	75	Target	AvoidedLoss	False
712.643	0.3	Lose2	0.5921	0.001	Yes	2.925	-0.001	4.0	GoodResponse	0	0.219	n/a	9	75	ButtonPress	AvoidedLoss	False
712.707	0.42	Lose2	0.5921	n/a	Yes	2.925	n/a	n/a	GoodResponse	0	n/a	n/a	9	75	Blank	AvoidedLoss	False
713.124	1.45	Lose2	0.5921	n/a	Yes	2.925	n/a	5.0	GoodResponse	0	0.025	712.149	9	75	Feedback	AvoidedLoss	False
714.573	2.925	Lose2	0.5921	n/a	Yes	2.925	n/a	n/a	GoodResponse	0	0.0	n/a	9	75	ISIslide	AvoidedLoss	False
717.522	0.25	Control	0.5974	0.0	Yes	3.228	0.022	n/a	GoodResponse	0	n/a	n/a	9	76	Cue	Neutral	True
717.772	4.05	Control	0.5974	0.0	Yes	3.228	0.0	n/a	GoodResponse	0	n/a	n/a	9	76	Fixation	Neutral	True
721.821	0.29	Control	0.5974	0.001	Yes	3.228	-0.001	4.0	GoodResponse	0	0.179	721.0	9	76	Target	Neutral	True
722	0.3	Control	0.5974	0.001	Yes	3.228	-0.001	4.0	GoodResponse	0	0.179	n/a	9	76	ButtonPress	Neutral	True
722.12	0.41	Control	0.5974	n/a	Yes	3.228	n/a	n/a	GoodResponse	0	n/a	n/a	9	76	Blank	Neutral	True
722.52	1.45	Control	0.5974	n/a	Yes	3.228	n/a	5.0	GoodResponse	0	0.044	721.564	9	76	Feedback	Neutral	True
723.97	3.228	Control	0.5974	n/a	Yes	3.228	n/a	4.0	GoodResponse	0	1.723	n/a	9	76	ISIslide	Neutral	True
727.202	0.25	Lose2	0.6026	0.0	Yes	2.598	0.002	n/a	GoodResponse	0	n/a	n/a	9	77	Cue	AvoidedLoss	True
727.452	3.95	Lose2	0.6026	0.0	Yes	2.598	0.0	n/a	GoodResponse	0	n/a	n/a	9	77	Fixation	AvoidedLoss	True
731.401	0.3	Lose2	0.6026	0.001	Yes	2.598	-0.001	4.0	GoodResponse	0	0.293	730.694	9	77	Target	AvoidedLoss	True
731.694	0.3	Lose2	0.6026	0.001	Yes	2.598	-0.001	4.0	GoodResponse	0	0.293	n/a	9	77	ButtonPress	AvoidedLoss	True
731.701	0.4	Lose2	0.6026	n/a	Yes	2.598	n/a	n/a	GoodResponse	0	n/a	n/a	9	77	Blank	AvoidedLoss	True
732.1	1.45	Lose2	0.6026	n/a	Yes	2.598	n/a	5.0	GoodResponse	0	0.025	731.125	9	77	Feedback	AvoidedLoss	True
733.55	2.598	Lose2	0.6026	n/a	Yes	2.598	n/a	n/a	GoodResponse	0	0.0	n/a	9	77	ISIslide	AvoidedLoss	True
