onset	duration	cue_type	current_mean_accuracy	duration_error	is_hit	isi_adjusted	onset_delay	response	response_type	reward	rt	rt_time	total_reward	trial_number	trial_phase	trial_type	one_press
11.097	0.25	Control	1.0	0.0	Yes	2.953	-0.003	n/a	GoodResponse	0	n/a	n/a	0	0	Cue	Neutral	True
11.348	3.85	Control	1.0	0.0	Yes	2.953	0.001	n/a	GoodResponse	0	n/a	n/a	0	0	Fixation	Neutral	True
15.193	0.4	Control	1.0	0.004	Yes	2.953	-0.004	4.0	GoodResponse	0	0.248	14.441	0	0	Target	Neutral	True
15.441	0.3	Control	1.0	0.004	Yes	2.953	-0.004	4.0	GoodResponse	0	0.248	n/a	0	0	ButtonPress	Neutral	True
15.594	0.3	Control	1.0	n/a	Yes	2.953	n/a	n/a	GoodResponse	0	n/a	n/a	0	0	Blank	Neutral	True
15.895	1.45	Control	1.0	n/a	Yes	2.953	n/a	5.0	GoodResponse	0	0.032	14.927	0	0	Feedback	Neutral	True
17.349	2.953	Control	1.0	n/a	Yes	2.953	n/a	n/a	GoodResponse	0	0.0	n/a	0	0	ISIslide	Neutral	True
20.325	0.25	Lose2	1.0	0.0	Yes	2.775	0.025	n/a	GoodResponse	0	n/a	n/a	0	1	Cue	AvoidedLoss	True
20.575	4.0	Lose2	1.0	0.0	Yes	2.775	0.0	n/a	GoodResponse	0	n/a	n/a	0	1	Fixation	AvoidedLoss	True
24.571	0.39	Lose2	1.0	0.004	Yes	2.775	-0.004	4.0	GoodResponse	0	0.194	23.765	0	1	Target	AvoidedLoss	True
24.765	0.3	Lose2	1.0	0.004	Yes	2.775	-0.004	4.0	GoodResponse	0	0.194	n/a	0	1	ButtonPress	AvoidedLoss	True
24.972	0.31	Lose2	1.0	n/a	Yes	2.775	n/a	n/a	GoodResponse	0	n/a	n/a	0	1	Blank	AvoidedLoss	True
25.273	1.45	Lose2	1.0	n/a	Yes	2.775	n/a	5.0	GoodResponse	0	0.019	24.292	0	1	Feedback	AvoidedLoss	True
26.727	2.775	Lose2	1.0	n/a	Yes	2.775	n/a	n/a	GoodResponse	0	0.0	n/a	0	1	ISIslide	AvoidedLoss	True
29.519	0.25	Control	1.0	0.0	Yes	2.581	0.019	n/a	GoodResponse	0	n/a	n/a	0	2	Cue	Neutral	True
29.77	4.1	Control	1.0	0.0	Yes	2.581	0.001	n/a	GoodResponse	0	n/a	n/a	0	2	Fixation	Neutral	True
33.865	0.38	Control	1.0	0.004	Yes	2.581	-0.004	4.0	GoodResponse	0	0.239	33.104	0	2	Target	Neutral	True
34.104	0.3	Control	1.0	0.004	Yes	2.581	-0.004	4.0	GoodResponse	0	0.239	n/a	0	2	ButtonPress	Neutral	True
34.25	0.32	Control	1.0	n/a	Yes	2.581	n/a	n/a	GoodResponse	0	n/a	n/a	0	2	Blank	Neutral	True
34.567	1.45	Control	1.0	n/a	Yes	2.581	n/a	5.0	GoodResponse	0	0.042	33.609	0	2	Feedback	Neutral	True
36.022	2.581	Control	1.0	n/a	Yes	2.581	n/a	n/a	GoodResponse	0	0.0	n/a	0	2	ISIslide	Neutral	True
38.629	0.25	Win2	1.0	0.0	Yes	2.821	0.029	n/a	GoodResponse	1	n/a	n/a	1	3	Cue	Win	True
38.88	3.95	Win2	1.0	0.0	Yes	2.821	0.001	n/a	GoodResponse	1	n/a	n/a	1	3	Fixation	Win	True
42.825	0.37	Win2	1.0	0.004	Yes	2.821	-0.004	4.0	GoodResponse	1	0.202	42.027	1	3	Target	Win	True
43.027	0.3	Win2	1.0	0.004	Yes	2.821	-0.004	4.0	GoodResponse	1	0.202	n/a	1	3	ButtonPress	Win	True
43.21	0.33	Win2	1.0	n/a	Yes	2.821	n/a	n/a	GoodResponse	1	n/a	n/a	1	3	Blank	Win	True
43.527	1.45	Win2	1.0	n/a	Yes	2.821	n/a	5.0	GoodResponse	1	0.009	42.536	1	3	Feedback	Win	True
44.982	2.821	Win2	1.0	n/a	Yes	2.821	n/a	n/a	GoodResponse	1	0.0	n/a	1	3	ISIslide	Win	True
47.824	0.25	Win2	1.0	0.0	Yes	3.276	0.024	n/a	GoodResponse	1	n/a	n/a	2	4	Cue	Win	True
48.074	4.0	Win2	1.0	0.0	Yes	3.276	0.0	n/a	GoodResponse	1	n/a	n/a	2	4	Fixation	Win	True
52.07	0.36	Win2	1.0	0.004	Yes	3.276	-0.004	4.0	GoodResponse	1	0.204	51.274	2	4	Target	Win	True
52.274	0.3	Win2	1.0	0.004	Yes	3.276	-0.004	4.0	GoodResponse	1	0.204	n/a	2	4	ButtonPress	Win	True
52.437	0.34	Win2	1.0	n/a	Yes	3.276	n/a	n/a	GoodResponse	1	n/a	n/a	2	4	Blank	Win	True
52.772	1.45	Win2	1.0	n/a	Yes	3.276	n/a	5.0	GoodResponse	1	0.032	51.804	2	4	Feedback	Win	True
54.226	3.276	Win2	1.0	n/a	Yes	3.276	n/a	n/a	GoodResponse	1	0.0	n/a	2	4	ISIslide	Win	True
57.519	0.25	Win2	1.0	0.0	Yes	2.781	0.019	n/a	GoodResponse	1	n/a	n/a	3	5	Cue	Win	True
57.77	4.0	Win2	1.0	0.0	Yes	2.781	0.001	n/a	GoodResponse	1	n/a	n/a	3	5	Fixation	Win	True
61.765	0.35	Win2	1.0	0.004	Yes	2.781	-0.004	4.0	GoodResponse	1	0.275	61.04	3	5	Target	Win	True
62.04	0.3	Win2	1.0	0.004	Yes	2.781	-0.004	4.0	GoodResponse	1	0.275	n/a	3	5	ButtonPress	Win	True
62.116	0.35	Win2	1.0	n/a	Yes	2.781	n/a	n/a	GoodResponse	1	n/a	n/a	3	5	Blank	Win	True
62.467	1.45	Win2	1.0	n/a	Yes	2.781	n/a	5.0	GoodResponse	1	0.045	61.512	3	5	Feedback	Win	True
63.922	2.781	Win2	1.0	n/a	Yes	2.781	n/a	n/a	GoodResponse	1	0.0	n/a	3	5	ISIslide	Win	True
66.73	0.25	Lose2	1.0	0.0	Yes	2.72	0.03	n/a	GoodResponse	0	n/a	n/a	3	6	Cue	AvoidedLoss	True
66.981	3.95	Lose2	1.0	0.0	Yes	2.72	0.001	n/a	GoodResponse	0	n/a	n/a	3	6	Fixation	AvoidedLoss	True
70.926	0.34	Lose2	1.0	0.004	Yes	2.72	-0.004	4.0	GoodResponse	0	0.197	70.123	3	6	Target	AvoidedLoss	True
71.123	0.3	Lose2	1.0	0.004	Yes	2.72	-0.004	4.0	GoodResponse	0	0.197	n/a	3	6	ButtonPress	AvoidedLoss	True
71.277	0.36	Lose2	1.0	n/a	Yes	2.72	n/a	n/a	GoodResponse	0	n/a	n/a	3	6	Blank	AvoidedLoss	True
71.628	1.45	Lose2	1.0	n/a	Yes	2.72	n/a	5.0	GoodResponse	0	0.007	70.635	3	6	Feedback	AvoidedLoss	True
73.083	2.72	Lose2	1.0	n/a	Yes	2.72	n/a	n/a	GoodResponse	0	0.0	n/a	3	6	ISIslide	AvoidedLoss	True
75.824	0.25	Lose2	1.0	0.0	Yes	4.026	0.024	n/a	GoodResponse	0	n/a	n/a	3	7	Cue	AvoidedLoss	True
76.075	4.05	Lose2	1.0	0.0	Yes	4.026	0.001	n/a	GoodResponse	0	n/a	n/a	3	7	Fixation	AvoidedLoss	True
80.12	0.33	Lose2	1.0	0.004	Yes	4.026	-0.004	4.0	GoodResponse	0	0.208	79.328	3	7	Target	AvoidedLoss	True
80.328	0.3	Lose2	1.0	0.004	Yes	4.026	-0.004	4.0	GoodResponse	0	0.208	n/a	3	7	ButtonPress	AvoidedLoss	True
80.455	0.37	Lose2	1.0	n/a	Yes	4.026	n/a	n/a	GoodResponse	0	n/a	n/a	3	7	Blank	AvoidedLoss	True
80.822	1.45	Lose2	1.0	n/a	Yes	4.026	n/a	5.0	GoodResponse	0	0.03	79.852	3	7	Feedback	AvoidedLoss	True
82.277	4.026	Lose2	1.0	n/a	Yes	4.026	n/a	n/a	GoodResponse	0	0.0	n/a	3	7	ISIslide	AvoidedLoss	True
86.322	0.25	Lose2	1.0	0.0	Yes	3.028	0.022	n/a	GoodResponse	0	n/a	n/a	3	8	Cue	AvoidedLoss	True
86.573	3.95	Lose2	1.0	0.0	Yes	3.028	0.001	n/a	GoodResponse	0	n/a	n/a	3	8	Fixation	AvoidedLoss	True
90.518	0.32	Lose2	1.0	0.004	Yes	3.028	-0.004	4.0	GoodResponse	0	0.216	89.734	3	8	Target	AvoidedLoss	True
90.734	0.3	Lose2	1.0	0.004	Yes	3.028	-0.004	4.0	GoodResponse	0	0.216	n/a	3	8	ButtonPress	AvoidedLoss	True
90.852	0.38	Lose2	1.0	n/a	Yes	3.028	n/a	n/a	GoodResponse	0	n/a	n/a	3	8	Blank	AvoidedLoss	True
91.22	1.45	Lose2	1.0	n/a	Yes	3.028	n/a	5.0	GoodResponse	0	0.023	90.243	3	8	Feedback	AvoidedLoss	True
92.674	3.028	Lose2	1.0	n/a	Yes	3.028	n/a	n/a	GoodResponse	0	0.0	n/a	3	8	ISIslide	AvoidedLoss	True
95.717	0.25	Lose2	1.0	0.0	Yes	3.133	0.017	n/a	GoodResponse	0	n/a	n/a	3	9	Cue	AvoidedLoss	True
95.968	3.95	Lose2	1.0	0.0	Yes	3.133	0.001	n/a	GoodResponse	0	n/a	n/a	3	9	Fixation	AvoidedLoss	True
99.913	0.31	Lose2	1.0	0.004	Yes	3.133	-0.004	4.0	GoodResponse	0	0.229	99.142	3	9	Target	AvoidedLoss	True
100.142	0.3	Lose2	1.0	0.004	Yes	3.133	-0.004	4.0	GoodResponse	0	0.229	n/a	3	9	ButtonPress	AvoidedLoss	True
100.23	0.39	Lose2	1.0	n/a	Yes	3.133	n/a	n/a	GoodResponse	0	n/a	n/a	3	9	Blank	AvoidedLoss	True
100.615	1.45	Lose2	1.0	n/a	Yes	3.133	n/a	5.0	GoodResponse	0	0.042	99.657	3	9	Feedback	AvoidedLoss	True
102.069	3.133	Lose2	1.0	n/a	Yes	3.133	n/a	n/a	GoodResponse	0	0.0	n/a	3	9	ISIslide	AvoidedLoss	True
105.229	0.25	Control	1.0	0.0	Yes	3.271	0.029	n/a	GoodResponse	0	n/a	n/a	3	10	Cue	Neutral	True
105.479	4.0	Control	1.0	0.001	Yes	3.271	0.0	n/a	GoodResponse	0	n/a	n/a	3	10	Fixation	Neutral	True
109.475	0.3	Control	1.0	0.004	Yes	3.271	-0.004	4.0	GoodResponse	0	0.251	108.726	3	10	Target	Neutral	True
109.726	0.3	Control	1.0	0.004	Yes	3.271	-0.004	4.0	GoodResponse	0	0.251	n/a	3	10	ButtonPress	Neutral	True
109.776	0.4	Control	1.0	n/a	Yes	3.271	n/a	n/a	GoodResponse	0	n/a	n/a	3	10	Blank	Neutral	True
110.177	1.45	Control	1.0	n/a	Yes	3.271	n/a	5.0	GoodResponse	0	0.042	109.219	3	10	Feedback	Neutral	True
111.631	3.271	Control	1.0	n/a	Yes	3.271	n/a	n/a	GoodResponse	0	0.0	n/a	3	10	ISIslide	Neutral	True
114.924	0.25	Lose2	1.0	0.001	Yes	2.726	0.024	n/a	GoodResponse	0	n/a	n/a	3	11	Cue	AvoidedLoss	True
115.175	4.05	Lose2	1.0	0.0	Yes	2.726	0.001	n/a	GoodResponse	0	n/a	n/a	3	11	Fixation	AvoidedLoss	True
119.221	0.29	Lose2	1.0	0.003	Yes	2.726	-0.003	4.0	GoodResponse	0	0.21	118.431	3	11	Target	AvoidedLoss	True
119.431	0.3	Lose2	1.0	0.003	Yes	2.726	-0.003	4.0	GoodResponse	0	0.21	n/a	3	11	ButtonPress	AvoidedLoss	True
119.522	0.41	Lose2	1.0	n/a	Yes	2.726	n/a	n/a	GoodResponse	0	n/a	n/a	3	11	Blank	AvoidedLoss	True
119.923	1.45	Lose2	1.0	n/a	Yes	2.726	n/a	5.0	GoodResponse	0	0.006	118.929	3	11	Feedback	AvoidedLoss	True
121.377	2.726	Lose2	1.0	n/a	Yes	2.726	n/a	n/a	GoodResponse	0	0.0	n/a	3	11	ISIslide	AvoidedLoss	True
124.119	0.25	Control	0.9231	0.0	No	2.981	0.019	n/a	NoResponse	0	n/a	n/a	3	12	Cue	Neutral	True
124.369	3.9	Control	0.9231	0.0	No	2.981	0.0	n/a	NoResponse	0	n/a	n/a	3	12	Fixation	Neutral	True
128.281	0.28	Control	0.9231	0.0	No	2.981	0.012	4.0	NoResponse	0	0.288	127.569	3	12	Target	Neutral	True
128.549	0.42	Control	0.9231	n/a	No	2.981	n/a	n/a	NoResponse	0	n/a	n/a	3	12	Blank	Neutral	True
128.569	0.3	Control	0.9231	0.0	No	2.981	0.012	4.0	NoResponse	0	0.288	n/a	3	12	ButtonPress	Neutral	True
128.966	1.45	Control	0.9231	n/a	No	2.981	n/a	5.0	NoResponse	0	0.032	127.998	3	12	Feedback	Neutral	True
130.421	2.981	Control	0.9231	n/a	No	2.981	n/a	n/a	NoResponse	0	0.0	n/a	3	12	ISIslide	Neutral	True
133.43	0.25	Control	0.9286	0.0	Yes	2.77	0.03	n/a	GoodResponse	0	n/a	n/a	3	13	Cue	Neutral	True
133.681	4.0	Control	0.9286	0.0	Yes	2.77	0.001	n/a	GoodResponse	0	n/a	n/a	3	13	Fixation	Neutral	True
137.676	0.27	Control	0.9286	0.004	Yes	2.77	-0.004	4.0	GoodResponse	0	0.208	136.884	3	13	Target	Neutral	True
137.884	0.3	Control	0.9286	0.004	Yes	2.77	-0.004	4.0	GoodResponse	0	0.208	n/a	3	13	ButtonPress	Neutral	True
137.96	0.43	Control	0.9286	n/a	Yes	2.77	n/a	n/a	GoodResponse	0	n/a	n/a	3	13	Blank	Neutral	True
138.378	1.45	Control	0.9286	n/a	Yes	2.77	n/a	5.0	GoodResponse	0	0.035	137.413	3	13	Feedback	Neutral	True
139.832	2.77	Control	0.9286	n/a	Yes	2.77	n/a	n/a	GoodResponse	0	0.0	n/a	3	13	ISIslide	Neutral	True
142.624	0.25	Win2	0.8667	0.0	No	2.676	0.024	n/a	NoResponse	0	n/a	n/a	3	14	Cue	MissedWin	True
142.875	4.1	Win2	0.8667	0.0	No	2.676	0.001	4.0	NoResponse	0	3.926	145.801	3	14	Fixation	MissedWin	True
146.801	0.3	Win2	0.8667	0.0	No	2.676	0.001	4.0	NoResponse	0	3.926	n/a	3	14	ButtonPress	MissedWin	True
146.97	0.26	Win2	0.8667	0.004	No	2.676	-0.004	n/a	NoResponse	0	n/a	n/a	3	14	Target	MissedWin	True
147.238	0.44	Win2	0.8667	n/a	No	2.676	n/a	n/a	NoResponse	0	n/a	n/a	3	14	Blank	MissedWin	True
147.672	1.45	Win2	0.8667	n/a	No	2.676	n/a	5.0	NoResponse	0	0.009	146.681	3	14	Feedback	MissedWin	True
149.127	2.676	Win2	0.8667	n/a	No	2.676	n/a	n/a	NoResponse	0	0.0	n/a	3	14	ISIslide	MissedWin	True
151.818	0.25	Control	0.875	0.0	Yes	2.982	0.018	n/a	GoodResponse	0	n/a	n/a	3	15	Cue	Neutral	True
152.069	4.0	Control	0.875	0.0	Yes	2.982	0.001	n/a	GoodResponse	0	n/a	n/a	3	15	Fixation	Neutral	True
156.064	0.25	Control	0.875	0.004	Yes	2.982	-0.004	4.0	GoodResponse	0	0.224	155.288	3	15	Target	Neutral	True
156.288	0.3	Control	0.875	0.004	Yes	2.982	-0.004	4.0	GoodResponse	0	0.224	n/a	3	15	ButtonPress	Neutral	True
156.315	0.45	Control	0.875	n/a	Yes	2.982	n/a	n/a	GoodResponse	0	n/a	n/a	3	15	Blank	Neutral	True
156.766	1.45	Control	0.875	n/a	Yes	2.982	n/a	5.0	GoodResponse	0	0.037	155.803	3	15	Feedback	Neutral	True
158.221	2.982	Control	0.875	n/a	Yes	2.982	n/a	n/a	GoodResponse	0	0.0	n/a	3	15	ISIslide	Neutral	True
161.23	0.25	Win2	0.8234999999999999	0.0	No	2.87	0.03	n/a	NoResponse	0	n/a	n/a	3	16	Cue	MissedWin	True
161.48	4.0	Win2	0.8234999999999999	0.001	No	2.87	0.0	n/a	NoResponse	0	n/a	n/a	3	16	Fixation	MissedWin	True
165.476	0.24	Win2	0.8234999999999999	0.004	No	2.87	-0.004	4.0	NoResponse	0	0.269	164.745	3	16	Target	MissedWin	True
165.727	0.46	Win2	0.8234999999999999	n/a	No	2.87	n/a	n/a	NoResponse	0	n/a	n/a	3	16	Blank	MissedWin	True
165.745	0.3	Win2	0.8234999999999999	0.004	No	2.87	-0.004	4.0	NoResponse	0	0.269	n/a	3	16	ButtonPress	MissedWin	True
166.178	1.45	Win2	0.8234999999999999	n/a	No	2.87	n/a	5.0	NoResponse	0	0.04	165.218	3	16	Feedback	MissedWin	True
167.632	2.87	Win2	0.8234999999999999	n/a	No	2.87	n/a	n/a	NoResponse	0	0.0	n/a	3	16	ISIslide	MissedWin	True
170.524	0.25	Lose2	0.8332999999999999	0.0	Yes	2.726	0.024	n/a	GoodResponse	0	n/a	n/a	3	17	Cue	AvoidedLoss	True
170.775	3.95	Lose2	0.8332999999999999	0.0	Yes	2.726	0.001	n/a	GoodResponse	0	n/a	n/a	3	17	Fixation	AvoidedLoss	True
174.72	0.23	Lose2	0.8332999999999999	0.004	Yes	2.726	-0.004	4.0	GoodResponse	0	0.193	173.913	3	17	Target	AvoidedLoss	True
174.913	0.3	Lose2	0.8332999999999999	0.004	Yes	2.726	-0.004	4.0	GoodResponse	0	0.193	n/a	3	17	ButtonPress	AvoidedLoss	True
174.954	0.47	Lose2	0.8332999999999999	n/a	Yes	2.726	n/a	n/a	GoodResponse	0	n/a	n/a	3	17	Blank	AvoidedLoss	True
175.422	1.45	Lose2	0.8332999999999999	n/a	Yes	2.726	n/a	5.0	GoodResponse	0	0.015	174.437	3	17	Feedback	AvoidedLoss	True
176.877	2.726	Lose2	0.8332999999999999	n/a	Yes	2.726	n/a	n/a	GoodResponse	0	0.0	n/a	3	17	ISIslide	AvoidedLoss	True
179.618	0.25	Lose2	0.8421	0.0	Yes	2.732	0.018	n/a	GoodResponse	0	n/a	n/a	3	18	Cue	AvoidedLoss	True
179.869	4.05	Lose2	0.8421	0.0	Yes	2.732	0.001	n/a	GoodResponse	0	n/a	n/a	3	18	Fixation	AvoidedLoss	True
183.914	0.22	Lose2	0.8421	0.004	Yes	2.732	-0.004	4.0	GoodResponse	0	0.203	183.117	3	18	Target	AvoidedLoss	True
184.117	0.3	Lose2	0.8421	0.004	Yes	2.732	-0.004	4.0	GoodResponse	0	0.203	n/a	3	18	ButtonPress	AvoidedLoss	True
184.148	0.48	Lose2	0.8421	n/a	Yes	2.732	n/a	n/a	GoodResponse	0	n/a	n/a	3	18	Blank	AvoidedLoss	True
184.616	1.45	Lose2	0.8421	n/a	Yes	2.732	n/a	5.0	GoodResponse	0	0.04	183.656	3	18	Feedback	AvoidedLoss	True
186.071	2.732	Lose2	0.8421	n/a	Yes	2.732	n/a	n/a	GoodResponse	0	0.0	n/a	3	18	ISIslide	AvoidedLoss	True
188.829	0.25	Control	0.8	0.0	No	2.921	0.029	n/a	NoResponse	0	n/a	n/a	3	19	Cue	Neutral	True
189.08	3.95	Control	0.8	0.0	No	2.921	0.001	n/a	NoResponse	0	n/a	n/a	3	19	Fixation	Neutral	True
193.025	0.21	Control	0.8	0.004	No	2.921	-0.004	4.0	NoResponse	0	0.233	192.258	3	19	Target	Neutral	True
193.242	0.49	Control	0.8	n/a	No	2.921	n/a	n/a	NoResponse	0	n/a	n/a	3	19	Blank	Neutral	True
193.258	0.3	Control	0.8	0.004	No	2.921	-0.004	4.0	NoResponse	0	0.233	n/a	3	19	ButtonPress	Neutral	True
193.727	1.45	Control	0.8	n/a	No	2.921	n/a	5.0	NoResponse	0	0.006	192.733	3	19	Feedback	Neutral	True
195.181	2.921	Control	0.8	n/a	No	2.921	n/a	n/a	NoResponse	0	0.0	n/a	3	19	ISIslide	Neutral	True
198.123	0.25	Control	0.7619	0.001	No	2.627	0.023	n/a	NoResponse	0	n/a	n/a	3	20	Cue	Neutral	True
198.374	4.05	Control	0.7619	0.0	No	2.627	0.001	n/a	NoResponse	0	n/a	n/a	3	20	Fixation	Neutral	True
202.42	0.2	Control	0.7619	0.003	No	2.627	-0.003	4.0	NoResponse	0	0.216	201.636	3	20	Target	Neutral	True
202.62	0.5	Control	0.7619	n/a	No	2.627	n/a	n/a	NoResponse	0	n/a	n/a	3	20	Blank	Neutral	True
202.636	0.3	Control	0.7619	0.003	No	2.627	-0.003	4.0	NoResponse	0	0.216	n/a	3	20	ButtonPress	Neutral	True
203.122	1.45	Control	0.7619	n/a	No	2.627	n/a	5.0	NoResponse	0	0.022	202.144	3	20	Feedback	Neutral	True
204.576	2.627	Control	0.7619	n/a	No	2.627	n/a	n/a	NoResponse	0	0.0	n/a	3	20	ISIslide	Neutral	True
207.217	0.25	Control	0.7273000000000001	0.0	No	2.783	0.017	n/a	NoResponse	0	n/a	n/a	3	21	Cue	Neutral	True
207.468	4.1	Control	0.7273000000000001	0.0	No	2.783	0.001	n/a	NoResponse	0	n/a	n/a	3	21	Fixation	Neutral	True
211.564	0.19	Control	0.7273000000000001	0.003	No	2.783	-0.003	4.0	NoResponse	0	0.295	210.859	3	21	Target	Neutral	True
211.764	0.51	Control	0.7273000000000001	n/a	No	2.783	n/a	n/a	NoResponse	0	n/a	n/a	3	21	Blank	Neutral	True
211.859	0.3	Control	0.7273000000000001	0.003	No	2.783	-0.003	4.0	NoResponse	0	0.295	n/a	3	21	ButtonPress	Neutral	True
212.266	1.45	Control	0.7273000000000001	n/a	No	2.783	n/a	5.0	NoResponse	0	0.049	211.315	3	21	Feedback	Neutral	True
213.72	2.783	Control	0.7273000000000001	n/a	No	2.783	n/a	n/a	NoResponse	0	0.0	n/a	3	21	ISIslide	Neutral	True
216.529	0.25	Control	0.6957	0.0	No	2.771	0.029	n/a	LatePress	0	n/a	n/a	3	22	Cue	Neutral	True
216.779	4.0	Control	0.6957	0.0	No	2.771	0.0	n/a	LatePress	0	n/a	n/a	3	22	Fixation	Neutral	True
220.775	0.18	Control	0.6957	0.004	No	2.771	-0.004	4.0	LatePress	0	0.182	219.957	3	22	Target	Neutral	True
220.957	0.3	Control	0.6957	0.004	No	2.771	-0.004	4.0	LatePress	0	0.182	n/a	3	22	ButtonPress	Neutral	True
220.958	0.52	Control	0.6957	n/a	No	2.771	n/a	n/a	LatePress	0	n/a	n/a	3	22	Blank	Neutral	True
221.477	1.45	Control	0.6957	n/a	No	2.771	n/a	5.0	LatePress	0	0.008	220.485	3	22	Feedback	Neutral	True
222.931	2.771	Control	0.6957	n/a	No	2.771	n/a	n/a	LatePress	0	0.0	n/a	3	22	ISIslide	Neutral	True
225.723	0.25	Control	0.6667000000000001	0.0	No	2.777	0.023	n/a	NoResponse	0	n/a	n/a	3	23	Cue	Neutral	True
225.973	3.9	Control	0.6667000000000001	0.001	No	2.777	0.0	n/a	NoResponse	0	n/a	n/a	3	23	Fixation	Neutral	True
229.868	0.17	Control	0.6667000000000001	0.005	No	2.777	-0.005	4.0	NoResponse	0	0.193	229.061	3	23	Target	Neutral	True
230.052	0.53	Control	0.6667000000000001	n/a	No	2.777	n/a	n/a	NoResponse	0	n/a	n/a	3	23	Blank	Neutral	True
230.061	0.3	Control	0.6667000000000001	0.005	No	2.777	-0.005	4.0	NoResponse	0	0.193	n/a	3	23	ButtonPress	Neutral	True
230.571	1.45	Control	0.6667000000000001	n/a	No	2.777	n/a	5.0	NoResponse	0	0.036	229.607	3	23	Feedback	Neutral	True
232.025	2.777	Control	0.6667000000000001	n/a	No	2.777	n/a	n/a	NoResponse	0	0.0	n/a	3	23	ISIslide	Neutral	True
234.817	0.25	Win2	0.64	0.0	No	3.133	0.017	n/a	NoResponse	0	n/a	n/a	3	24	Cue	MissedWin	True
235.067	3.95	Win2	0.64	0.0	No	3.133	0.0	n/a	NoResponse	0	n/a	n/a	3	24	Fixation	MissedWin	True
239.013	0.16	Win2	0.64	0.004	No	3.133	-0.004	4.0	NoResponse	0	0.174	238.187	3	24	Target	MissedWin	True
239.18	0.54	Win2	0.64	n/a	No	3.133	n/a	n/a	NoResponse	0	n/a	n/a	3	24	Blank	MissedWin	True
239.187	0.3	Win2	0.64	0.004	No	3.133	-0.004	4.0	NoResponse	0	0.174	n/a	3	24	ButtonPress	MissedWin	True
239.715	1.45	Win2	0.64	n/a	No	3.133	n/a	5.0	NoResponse	0	0.014	238.729	3	24	Feedback	MissedWin	True
241.169	3.133	Win2	0.64	n/a	No	3.133	n/a	n/a	NoResponse	0	0.0	n/a	3	24	ISIslide	MissedWin	True
244.328	0.25	Win2	0.6154	0.001	No	3.072	0.028	n/a	NoResponse	0	n/a	n/a	3	25	Cue	MissedWin	True
244.579	4.0	Win2	0.6154	0.0	No	3.072	0.001	n/a	NoResponse	0	n/a	n/a	3	25	Fixation	MissedWin	True
248.574	0.17	Win2	0.6154	0.004	No	3.072	-0.004	4.0	NoResponse	0	0.197	247.771	3	25	Target	MissedWin	True
248.758	0.53	Win2	0.6154	n/a	No	3.072	n/a	n/a	NoResponse	0	n/a	n/a	3	25	Blank	MissedWin	True
248.771	0.3	Win2	0.6154	0.004	No	3.072	-0.004	4.0	NoResponse	0	0.197	n/a	3	25	ButtonPress	MissedWin	True
249.277	1.45	Win2	0.6154	n/a	No	3.072	n/a	5.0	NoResponse	0	0.013	248.29	3	25	Feedback	MissedWin	True
250.731	3.072	Win2	0.6154	n/a	No	3.072	n/a	n/a	NoResponse	0	0.0	n/a	3	25	ISIslide	MissedWin	True
253.824	0.25	Win2	0.5926	0.0	No	2.926	0.024	n/a	NoResponse	0	n/a	n/a	3	26	Cue	MissedWin	True
254.074	3.95	Win2	0.5926	0.0	No	2.926	0.0	n/a	NoResponse	0	n/a	n/a	3	26	Fixation	MissedWin	True
258.036	0.18	Win2	0.5926	0.0	No	2.926	0.012	4.0	NoResponse	0	0.211	257.247	3	26	Target	MissedWin	True
258.203	0.52	Win2	0.5926	n/a	No	2.926	n/a	n/a	NoResponse	0	n/a	n/a	3	26	Blank	MissedWin	True
258.247	0.3	Win2	0.5926	0.0	No	2.926	0.012	4.0	NoResponse	0	0.211	n/a	3	26	ButtonPress	MissedWin	True
258.722	1.45	Win2	0.5926	n/a	No	2.926	n/a	5.0	NoResponse	0	0.032	257.754	3	26	Feedback	MissedWin	True
260.176	2.926	Win2	0.5926	n/a	No	2.926	n/a	n/a	NoResponse	0	0.0	n/a	3	26	ISIslide	MissedWin	True
263.118	0.25	Lose2	0.5714	0.0	No	2.832	0.018	n/a	NoResponse	-1	n/a	n/a	2	27	Cue	Loss	True
263.369	4.05	Lose2	0.5714	0.0	No	2.832	0.001	n/a	NoResponse	-1	n/a	n/a	2	27	Fixation	Loss	True
267.414	0.19	Lose2	0.5714	0.004	No	2.832	-0.004	4.0	NoResponse	-1	0.217	266.631	2	27	Target	Loss	True
267.615	0.51	Lose2	0.5714	n/a	No	2.832	n/a	n/a	NoResponse	-1	n/a	n/a	2	27	Blank	Loss	True
267.631	0.3	Lose2	0.5714	0.004	No	2.832	-0.004	4.0	NoResponse	-1	0.217	n/a	2	27	ButtonPress	Loss	True
268.116	1.45	Lose2	0.5714	n/a	No	2.832	n/a	5.0	NoResponse	-1	0.007	267.123	2	27	Feedback	Loss	True
269.571	2.832	Lose2	0.5714	n/a	No	2.832	n/a	n/a	NoResponse	-1	0.0	n/a	2	27	ISIslide	Loss	True
272.429	0.25	Control	0.5517	0.0	No	2.821	0.029	n/a	NoResponse	0	n/a	n/a	2	28	Cue	Neutral	True
272.68	4.05	Control	0.5517	0.0	No	2.821	0.001	n/a	NoResponse	0	n/a	n/a	2	28	Fixation	Neutral	True
276.725	0.2	Control	0.5517	0.004	No	2.821	-0.004	4.0	NoResponse	0	0.212	275.937	2	28	Target	Neutral	True
276.926	0.5	Control	0.5517	n/a	No	2.821	n/a	n/a	NoResponse	0	n/a	n/a	2	28	Blank	Neutral	True
276.937	0.3	Control	0.5517	0.004	No	2.821	-0.004	4.0	NoResponse	0	0.212	n/a	2	28	ButtonPress	Neutral	True
277.428	1.45	Control	0.5517	n/a	No	2.821	n/a	5.0	NoResponse	0	0.008	276.436	2	28	Feedback	Neutral	True
278.882	2.821	Control	0.5517	n/a	No	2.821	n/a	n/a	NoResponse	0	0.0	n/a	2	28	ISIslide	Neutral	True
281.724	0.25	Lose2	0.5667	0.0	Yes	2.826	0.024	n/a	GoodResponse	0	n/a	n/a	2	29	Cue	AvoidedLoss	True
281.974	3.95	Lose2	0.5667	0.001	Yes	2.826	0.0	n/a	GoodResponse	0	n/a	n/a	2	29	Fixation	AvoidedLoss	True
285.92	0.21	Lose2	0.5667	0.004	Yes	2.826	-0.004	4.0	GoodResponse	0	0.193	285.113	2	29	Target	AvoidedLoss	True
286.113	0.3	Lose2	0.5667	0.004	Yes	2.826	-0.004	4.0	GoodResponse	0	0.193	n/a	2	29	ButtonPress	AvoidedLoss	True
286.137	0.49	Lose2	0.5667	n/a	Yes	2.826	n/a	n/a	GoodResponse	0	n/a	n/a	2	29	Blank	AvoidedLoss	True
286.622	1.45	Lose2	0.5667	n/a	Yes	2.826	n/a	5.0	GoodResponse	0	0.033	285.655	2	29	Feedback	AvoidedLoss	True
288.076	2.826	Lose2	0.5667	n/a	Yes	2.826	n/a	n/a	GoodResponse	0	0.0	n/a	2	29	ISIslide	AvoidedLoss	True
290.918	0.25	Win2	0.5806	0.0	Yes	2.782	0.018	n/a	GoodResponse	1	n/a	n/a	3	30	Cue	Win	True
291.169	3.9	Win2	0.5806	0.0	Yes	2.782	0.001	n/a	GoodResponse	1	n/a	n/a	3	30	Fixation	Win	True
295.064	0.22	Win2	0.5806	0.004	Yes	2.782	-0.004	4.0	GoodResponse	1	0.189	294.253	3	30	Target	Win	True
295.253	0.3	Win2	0.5806	0.004	Yes	2.782	-0.004	4.0	GoodResponse	1	0.189	n/a	3	30	ButtonPress	Win	True
295.298	0.48	Win2	0.5806	n/a	Yes	2.782	n/a	n/a	GoodResponse	1	n/a	n/a	3	30	Blank	Win	True
295.766	1.45	Win2	0.5806	n/a	Yes	2.782	n/a	5.0	GoodResponse	1	0.012	294.778	3	30	Feedback	Win	True
297.22	2.782	Win2	0.5806	n/a	Yes	2.782	n/a	n/a	GoodResponse	1	0.0	n/a	3	30	ISIslide	Win	True
300.029	0.25	Lose2	0.5625	0.0	No	2.821	0.029	n/a	NoResponse	-1	n/a	n/a	2	31	Cue	Loss	True
300.279	4.05	Lose2	0.5625	0.0	No	2.821	0.0	n/a	NoResponse	-1	n/a	n/a	2	31	Fixation	Loss	True
304.325	0.23	Lose2	0.5625	0.004	No	2.821	-0.004	4.0	NoResponse	-1	0.243	303.568	2	31	Target	Loss	True
304.559	0.47	Lose2	0.5625	n/a	No	2.821	n/a	n/a	NoResponse	-1	n/a	n/a	2	31	Blank	Loss	True
304.568	0.3	Lose2	0.5625	0.004	No	2.821	-0.004	4.0	NoResponse	-1	0.243	n/a	2	31	ButtonPress	Loss	True
305.027	1.45	Lose2	0.5625	n/a	No	2.821	n/a	5.0	NoResponse	-1	0.019	304.046	2	31	Feedback	Loss	True
306.481	2.821	Lose2	0.5625	n/a	No	2.821	n/a	n/a	NoResponse	-1	0.0	n/a	2	31	ISIslide	Loss	True
309.323	0.25	Lose2	0.5758	0.0	Yes	2.627	0.023	n/a	GoodResponse	0	n/a	n/a	2	32	Cue	AvoidedLoss	True
309.574	4.15	Lose2	0.5758	0.0	Yes	2.627	0.001	n/a	GoodResponse	0	n/a	n/a	2	32	Fixation	AvoidedLoss	True
313.719	0.24	Lose2	0.5758	0.004	Yes	2.627	-0.004	4.0	GoodResponse	0	0.216	312.935	2	32	Target	AvoidedLoss	True
313.935	0.3	Lose2	0.5758	0.004	Yes	2.627	-0.004	4.0	GoodResponse	0	0.216	n/a	2	32	ButtonPress	AvoidedLoss	True
313.97	0.46	Lose2	0.5758	n/a	Yes	2.627	n/a	n/a	GoodResponse	0	n/a	n/a	2	32	Blank	AvoidedLoss	True
314.422	1.45	Lose2	0.5758	n/a	Yes	2.627	n/a	5.0	GoodResponse	0	0.039	313.461	2	32	Feedback	AvoidedLoss	True
315.876	2.627	Lose2	0.5758	n/a	Yes	2.627	n/a	n/a	GoodResponse	0	0.0	n/a	2	32	ISIslide	AvoidedLoss	True
318.517	0.25	Win2	0.5882000000000001	0.0	Yes	2.683	0.017	n/a	GoodResponse	1	n/a	n/a	3	33	Cue	Win	True
318.768	4.0	Win2	0.5882000000000001	0.0	Yes	2.683	0.001	n/a	GoodResponse	1	n/a	n/a	3	33	Fixation	Win	True
322.763	0.25	Win2	0.5882000000000001	0.004	Yes	2.683	-0.004	4.0	GoodResponse	1	0.201	321.964	3	33	Target	Win	True
322.964	0.3	Win2	0.5882000000000001	0.004	Yes	2.683	-0.004	4.0	GoodResponse	1	0.201	n/a	3	33	ButtonPress	Win	True
323.014	0.45	Win2	0.5882000000000001	n/a	Yes	2.683	n/a	n/a	GoodResponse	1	n/a	n/a	3	33	Blank	Win	True
323.465	1.45	Win2	0.5882000000000001	n/a	Yes	2.683	n/a	5.0	GoodResponse	1	0.019	322.484	3	33	Feedback	Win	True
324.92	2.683	Win2	0.5882000000000001	n/a	Yes	2.683	n/a	n/a	GoodResponse	1	0.0	n/a	3	33	ISIslide	Win	True
327.628	0.25	Lose2	0.6	0.0	Yes	2.622	0.028	n/a	GoodResponse	0	n/a	n/a	3	34	Cue	AvoidedLoss	True
327.879	4.05	Lose2	0.6	0.0	Yes	2.622	0.001	n/a	GoodResponse	0	n/a	n/a	3	34	Fixation	AvoidedLoss	True
331.924	0.26	Lose2	0.6	0.004	Yes	2.622	-0.004	4.0	GoodResponse	0	0.183	331.107	3	34	Target	AvoidedLoss	True
332.107	0.3	Lose2	0.6	0.004	Yes	2.622	-0.004	4.0	GoodResponse	0	0.183	n/a	3	34	ButtonPress	AvoidedLoss	True
332.191	0.44	Lose2	0.6	n/a	Yes	2.622	n/a	n/a	GoodResponse	0	n/a	n/a	3	34	Blank	AvoidedLoss	True
332.626	1.45	Lose2	0.6	n/a	Yes	2.622	n/a	5.0	GoodResponse	0	0.029	331.655	3	34	Feedback	AvoidedLoss	True
334.08	2.622	Lose2	0.6	n/a	Yes	2.622	n/a	n/a	GoodResponse	0	0.0	n/a	3	34	ISIslide	AvoidedLoss	True
336.722	0.25	Lose2	0.6111	0.0	Yes	2.678	0.022	n/a	GoodResponse	0	n/a	n/a	3	35	Cue	AvoidedLoss	True
336.972	4.0	Lose2	0.6111	0.001	Yes	2.678	0.0	n/a	GoodResponse	0	n/a	n/a	3	35	Fixation	AvoidedLoss	True
340.968	0.27	Lose2	0.6111	0.004	Yes	2.678	-0.004	4.0	GoodResponse	0	0.208	340.176	3	35	Target	AvoidedLoss	True
341.176	0.3	Lose2	0.6111	0.004	Yes	2.678	-0.004	4.0	GoodResponse	0	0.208	n/a	3	35	ButtonPress	AvoidedLoss	True
341.252	0.43	Lose2	0.6111	n/a	Yes	2.678	n/a	n/a	GoodResponse	0	n/a	n/a	3	35	Blank	AvoidedLoss	True
341.67	1.45	Lose2	0.6111	n/a	Yes	2.678	n/a	5.0	GoodResponse	0	0.01	340.68	3	35	Feedback	AvoidedLoss	True
343.124	2.678	Lose2	0.6111	n/a	Yes	2.678	n/a	n/a	GoodResponse	0	0.0	n/a	3	35	ISIslide	AvoidedLoss	True
345.816	0.25	Control	0.6215999999999999	0.0	Yes	2.684	0.016	n/a	GoodResponse	0	n/a	n/a	3	36	Cue	Neutral	True
346.066	4.0	Control	0.6215999999999999	0.0	Yes	2.684	0.0	n/a	GoodResponse	0	n/a	n/a	3	36	Fixation	Neutral	True
350.062	0.28	Control	0.6215999999999999	0.004	Yes	2.684	-0.004	4.0	GoodResponse	0	0.207	349.269	3	36	Target	Neutral	True
350.269	0.3	Control	0.6215999999999999	0.004	Yes	2.684	-0.004	4.0	GoodResponse	0	0.207	n/a	3	36	ButtonPress	Neutral	True
350.346	0.42	Control	0.6215999999999999	n/a	Yes	2.684	n/a	n/a	GoodResponse	0	n/a	n/a	3	36	Blank	Neutral	True
350.764	1.45	Control	0.6215999999999999	n/a	Yes	2.684	n/a	5.0	GoodResponse	0	0.038	349.802	3	36	Feedback	Neutral	True
352.218	2.684	Control	0.6215999999999999	n/a	Yes	2.684	n/a	n/a	GoodResponse	0	0.0	n/a	3	36	ISIslide	Neutral	True
354.926	0.25	Win2	0.6315999999999999	0.0	Yes	2.874	0.026	n/a	GoodResponse	1	n/a	n/a	4	37	Cue	Win	True
355.177	4.0	Win2	0.6315999999999999	0.0	Yes	2.874	0.001	n/a	GoodResponse	1	n/a	n/a	4	37	Fixation	Win	True
359.172	0.29	Win2	0.6315999999999999	0.004	Yes	2.874	-0.004	4.0	GoodResponse	1	0.174	358.346	4	37	Target	Win	True
359.346	0.3	Win2	0.6315999999999999	0.004	Yes	2.874	-0.004	4.0	GoodResponse	1	0.174	n/a	4	37	ButtonPress	Win	True
359.473	0.41	Win2	0.6315999999999999	n/a	Yes	2.874	n/a	n/a	GoodResponse	1	n/a	n/a	4	37	Blank	Win	True
359.874	1.45	Win2	0.6315999999999999	n/a	Yes	2.874	n/a	5.0	GoodResponse	1	0.001	358.875	4	37	Feedback	Win	True
361.329	2.874	Win2	0.6315999999999999	n/a	Yes	2.874	n/a	n/a	GoodResponse	1	0.0	n/a	4	37	ISIslide	Win	True
364.221	0.25	Lose2	0.6409999999999999	0.0	Yes	2.829	0.021	n/a	GoodResponse	0	n/a	n/a	4	38	Cue	AvoidedLoss	True
364.471	3.95	Lose2	0.6409999999999999	0.0	Yes	2.829	0.0	n/a	GoodResponse	0	n/a	n/a	4	38	Fixation	AvoidedLoss	True
368.417	0.3	Lose2	0.6409999999999999	0.004	Yes	2.829	-0.004	4.0	GoodResponse	0	0.245	367.662	4	38	Target	AvoidedLoss	True
368.662	0.3	Lose2	0.6409999999999999	0.004	Yes	2.829	-0.004	4.0	GoodResponse	0	0.245	n/a	4	38	ButtonPress	AvoidedLoss	True
368.717	0.4	Lose2	0.6409999999999999	n/a	Yes	2.829	n/a	n/a	GoodResponse	0	n/a	n/a	4	38	Blank	AvoidedLoss	True
369.119	1.45	Lose2	0.6409999999999999	n/a	Yes	2.829	n/a	5.0	GoodResponse	0	0.024	368.143	4	38	Feedback	AvoidedLoss	True
370.573	2.829	Lose2	0.6409999999999999	n/a	Yes	2.829	n/a	n/a	GoodResponse	0	0.0	n/a	4	38	ISIslide	AvoidedLoss	True
373.432	0.25	Win2	0.65	0.0	Yes	2.968	0.032	n/a	GoodResponse	1	n/a	n/a	5	39	Cue	Win	True
373.682	4.1	Win2	0.65	0.0	Yes	2.968	0.0	n/a	GoodResponse	1	n/a	n/a	5	39	Fixation	Win	True
377.778	0.31	Win2	0.65	0.004	Yes	2.968	-0.004	4.0	GoodResponse	1	0.217	376.995	5	39	Target	Win	True
377.995	0.3	Win2	0.65	0.004	Yes	2.968	-0.004	4.0	GoodResponse	1	0.217	n/a	5	39	ButtonPress	Win	True
378.096	0.39	Win2	0.65	n/a	Yes	2.968	n/a	n/a	GoodResponse	1	n/a	n/a	5	39	Blank	Win	True
378.48	1.45	Win2	0.65	n/a	Yes	2.968	n/a	5.0	GoodResponse	1	0.028	377.508	5	39	Feedback	Win	True
379.934	2.968	Win2	0.65	n/a	Yes	2.968	n/a	n/a	GoodResponse	1	0.0	n/a	5	39	ISIslide	Win	True
382.927	0.25	Win2	0.6585	0.0	Yes	2.723	0.027	n/a	GoodResponse	1	n/a	n/a	6	40	Cue	Win	True
383.177	3.95	Win2	0.6585	0.0	Yes	2.723	0.0	n/a	GoodResponse	1	n/a	n/a	6	40	Fixation	Win	True
387.123	0.32	Win2	0.6585	0.004	Yes	2.723	-0.004	4.0	GoodResponse	1	0.19	386.313	6	40	Target	Win	True
387.313	0.3	Win2	0.6585	0.004	Yes	2.723	-0.004	4.0	GoodResponse	1	0.19	n/a	6	40	ButtonPress	Win	True
387.457	0.38	Win2	0.6585	n/a	Yes	2.723	n/a	n/a	GoodResponse	1	n/a	n/a	6	40	Blank	Win	True
387.825	1.45	Win2	0.6585	n/a	Yes	2.723	n/a	5.0	GoodResponse	1	0.0	386.825	6	40	Feedback	Win	True
389.279	2.723	Win2	0.6585	n/a	Yes	2.723	n/a	n/a	GoodResponse	1	0.0	n/a	6	40	ISIslide	Win	True
392.021	0.25	Win2	0.6667000000000001	0.0	Yes	2.779	0.021	n/a	GoodResponse	1	n/a	n/a	7	41	Cue	Win	True
392.271	3.9	Win2	0.6667000000000001	0.0	Yes	2.779	0.0	n/a	GoodResponse	1	n/a	n/a	7	41	Fixation	Win	True
396.183	0.32	Win2	0.6667000000000001	0.0	Yes	2.779	0.012	4.0	GoodResponse	1	0.218	395.401	7	41	Target	Win	True
396.401	0.3	Win2	0.6667000000000001	0.0	Yes	2.779	0.012	4.0	GoodResponse	1	0.218	n/a	7	41	ButtonPress	Win	True
396.501	0.38	Win2	0.6667000000000001	n/a	Yes	2.779	n/a	n/a	GoodResponse	1	n/a	n/a	7	41	Blank	Win	True
396.868	1.45	Win2	0.6667000000000001	n/a	Yes	2.779	n/a	5.0	GoodResponse	1	0.031	395.899	7	41	Feedback	Win	True
398.323	2.779	Win2	0.6667000000000001	n/a	Yes	2.779	n/a	n/a	GoodResponse	1	0.0	n/a	7	41	ISIslide	Win	True
401.114	0.25	Control	0.6744	0.001	Yes	2.936	0.014	n/a	GoodResponse	0	n/a	n/a	7	42	Cue	Neutral	True
401.365	3.85	Control	0.6744	0.0	Yes	2.936	0.001	n/a	GoodResponse	0	n/a	n/a	7	42	Fixation	Neutral	True
405.21	0.31	Control	0.6744	0.004	Yes	2.936	-0.004	4.0	GoodResponse	0	0.218	404.428	7	42	Target	Neutral	True
405.428	0.3	Control	0.6744	0.004	Yes	2.936	-0.004	4.0	GoodResponse	0	0.218	n/a	7	42	ButtonPress	Neutral	True
405.528	0.39	Control	0.6744	n/a	Yes	2.936	n/a	n/a	GoodResponse	0	n/a	n/a	7	42	Blank	Neutral	True
405.912	1.45	Control	0.6744	n/a	Yes	2.936	n/a	5.0	GoodResponse	0	0.011	404.923	7	42	Feedback	Neutral	True
407.366	2.936	Control	0.6744	n/a	Yes	2.936	n/a	n/a	GoodResponse	0	0.0	n/a	7	42	ISIslide	Neutral	True
410.325	0.25	Win2	0.6818000000000001	0.0	Yes	3.175	0.025	n/a	GoodResponse	1	n/a	n/a	8	43	Cue	Win	True
410.576	4.0	Win2	0.6818000000000001	0.0	Yes	3.175	0.001	n/a	GoodResponse	1	n/a	n/a	8	43	Fixation	Win	True
414.571	0.3	Win2	0.6818000000000001	0.004	Yes	3.175	-0.004	4.0	GoodResponse	1	0.205	413.776	8	43	Target	Win	True
414.776	0.3	Win2	0.6818000000000001	0.004	Yes	3.175	-0.004	4.0	GoodResponse	1	0.205	n/a	8	43	ButtonPress	Win	True
414.872	0.4	Win2	0.6818000000000001	n/a	Yes	3.175	n/a	n/a	GoodResponse	1	n/a	n/a	8	43	Blank	Win	True
415.273	1.45	Win2	0.6818000000000001	n/a	Yes	3.175	n/a	5.0	GoodResponse	1	0.016	414.289	8	43	Feedback	Win	True
416.728	3.175	Win2	0.6818000000000001	n/a	Yes	3.175	n/a	n/a	GoodResponse	1	0.0	n/a	8	43	ISIslide	Win	True
419.921	0.25	Win2	0.6889	0.0	Yes	2.979	0.021	n/a	GoodResponse	1	n/a	n/a	9	44	Cue	Win	True
420.171	4.0	Win2	0.6889	0.001	Yes	2.979	0.0	n/a	GoodResponse	1	n/a	n/a	9	44	Fixation	Win	True
424.167	0.29	Win2	0.6889	0.004	Yes	2.979	-0.004	4.0	GoodResponse	1	0.213	423.38	9	44	Target	Win	True
424.38	0.3	Win2	0.6889	0.004	Yes	2.979	-0.004	4.0	GoodResponse	1	0.213	n/a	9	44	ButtonPress	Win	True
424.468	0.41	Win2	0.6889	n/a	Yes	2.979	n/a	n/a	GoodResponse	1	n/a	n/a	9	44	Blank	Win	True
424.869	1.45	Win2	0.6889	n/a	Yes	2.979	n/a	5.0	GoodResponse	1	0.029	423.898	9	44	Feedback	Win	True
426.323	2.979	Win2	0.6889	n/a	Yes	2.979	n/a	n/a	GoodResponse	1	0.0	n/a	9	44	ISIslide	Win	True
429.316	0.25	Control	0.6739	0.0	No	2.884	0.016	n/a	NoResponse	0	n/a	n/a	9	45	Cue	Neutral	True
429.566	4.1	Control	0.6739	0.0	No	2.884	0.0	n/a	NoResponse	0	n/a	n/a	9	45	Fixation	Neutral	True
433.662	0.28	Control	0.6739	0.004	No	2.884	-0.004	4.0	NoResponse	0	0.359	433.021	9	45	Target	Neutral	True
433.946	0.42	Control	0.6739	n/a	No	2.884	n/a	n/a	NoResponse	0	n/a	n/a	9	45	Blank	Neutral	True
434.021	0.3	Control	0.6739	0.004	No	2.884	-0.004	4.0	NoResponse	0	0.359	n/a	9	45	ButtonPress	Neutral	True
434.364	1.45	Control	0.6739	n/a	No	2.884	n/a	5.0	NoResponse	0	0.046	433.41	9	45	Feedback	Neutral	True
435.818	2.884	Control	0.6739	n/a	No	2.884	n/a	n/a	NoResponse	0	0.0	n/a	9	45	ISIslide	Neutral	True
438.727	0.25	Lose2	0.6809000000000001	0.0	Yes	3.373	0.027	n/a	GoodResponse	0	n/a	n/a	9	46	Cue	AvoidedLoss	True
438.978	4.0	Lose2	0.6809000000000001	0.0	Yes	3.373	0.001	n/a	GoodResponse	0	n/a	n/a	9	46	Fixation	AvoidedLoss	True
442.973	0.27	Lose2	0.6809000000000001	0.004	Yes	3.373	-0.004	4.0	GoodResponse	0	0.173	442.146	9	46	Target	AvoidedLoss	True
443.146	0.3	Lose2	0.6809000000000001	0.004	Yes	3.373	-0.004	4.0	GoodResponse	0	0.173	n/a	9	46	ButtonPress	AvoidedLoss	True
443.257	0.43	Lose2	0.6809000000000001	n/a	Yes	3.373	n/a	n/a	GoodResponse	0	n/a	n/a	9	46	Blank	AvoidedLoss	True
443.675	1.45	Lose2	0.6809000000000001	n/a	Yes	3.373	n/a	5.0	GoodResponse	0	0.007	442.682	9	46	Feedback	AvoidedLoss	True
445.13	3.373	Lose2	0.6809000000000001	n/a	Yes	3.373	n/a	n/a	GoodResponse	0	0.0	n/a	9	46	ISIslide	AvoidedLoss	True
448.523	0.25	Lose2	0.6875	0.0	Yes	2.677	0.023	n/a	GoodResponse	0	n/a	n/a	9	47	Cue	AvoidedLoss	True
448.774	4.0	Lose2	0.6875	0.0	Yes	2.677	0.001	n/a	GoodResponse	0	n/a	n/a	9	47	Fixation	AvoidedLoss	True
452.769	0.26	Lose2	0.6875	0.004	Yes	2.677	-0.004	4.0	GoodResponse	0	0.199	451.968	9	47	Target	AvoidedLoss	True
452.968	0.3	Lose2	0.6875	0.004	Yes	2.677	-0.004	4.0	GoodResponse	0	0.199	n/a	9	47	ButtonPress	AvoidedLoss	True
453.037	0.44	Lose2	0.6875	n/a	Yes	2.677	n/a	n/a	GoodResponse	0	n/a	n/a	9	47	Blank	AvoidedLoss	True
453.471	1.45	Lose2	0.6875	n/a	Yes	2.677	n/a	5.0	GoodResponse	0	0.013	452.484	9	47	Feedback	AvoidedLoss	True
454.925	2.677	Lose2	0.6875	n/a	Yes	2.677	n/a	n/a	GoodResponse	0	0.0	n/a	9	47	ISIslide	AvoidedLoss	True
457.617	0.25	Lose2	0.6939	0.0	Yes	3.033	0.017	n/a	GoodResponse	0	n/a	n/a	9	48	Cue	AvoidedLoss	True
457.868	3.95	Lose2	0.6939	0.0	Yes	3.033	0.001	n/a	GoodResponse	0	n/a	n/a	9	48	Fixation	AvoidedLoss	True
461.813	0.25	Lose2	0.6939	0.004	Yes	3.033	-0.004	4.0	GoodResponse	0	0.191	461.004	9	48	Target	AvoidedLoss	True
462.004	0.3	Lose2	0.6939	0.004	Yes	3.033	-0.004	4.0	GoodResponse	0	0.191	n/a	9	48	ButtonPress	AvoidedLoss	True
462.064	0.45	Lose2	0.6939	n/a	Yes	3.033	n/a	n/a	GoodResponse	0	n/a	n/a	9	48	Blank	AvoidedLoss	True
462.515	1.45	Lose2	0.6939	n/a	Yes	3.033	n/a	5.0	GoodResponse	0	0.042	461.557	9	48	Feedback	AvoidedLoss	True
463.969	3.033	Lose2	0.6939	n/a	Yes	3.033	n/a	n/a	GoodResponse	0	0.0	n/a	9	48	ISIslide	AvoidedLoss	True
467.028	0.25	Control	0.68	0.0	No	2.872	0.028	n/a	NoResponse	0	n/a	n/a	9	49	Cue	Neutral	True
467.279	4.0	Control	0.68	0.0	No	2.872	0.001	n/a	NoResponse	0	n/a	n/a	9	49	Fixation	Neutral	True
471.274	0.24	Control	0.68	0.004	No	2.872	-0.004	4.0	NoResponse	0	0.267	470.541	9	49	Target	Neutral	True
471.525	0.46	Control	0.68	n/a	No	2.872	n/a	n/a	NoResponse	0	n/a	n/a	9	49	Blank	Neutral	True
471.541	0.3	Control	0.68	0.004	No	2.872	-0.004	4.0	NoResponse	0	0.267	n/a	9	49	ButtonPress	Neutral	True
471.977	1.45	Control	0.68	n/a	No	2.872	n/a	5.0	NoResponse	0	0.043	471.02	9	49	Feedback	Neutral	True
473.431	2.872	Control	0.68	n/a	No	2.872	n/a	n/a	NoResponse	0	0.0	n/a	9	49	ISIslide	Neutral	True
476.323	0.25	Control	0.6667000000000001	0.0	No	2.777	0.023	n/a	NoResponse	0	n/a	n/a	9	50	Cue	Neutral	True
476.574	4.0	Control	0.6667000000000001	0.0	No	2.777	0.001	n/a	NoResponse	0	n/a	n/a	9	50	Fixation	Neutral	True
480.569	0.23	Control	0.6667000000000001	0.004	No	2.777	-0.004	4.0	NoResponse	0	0.258	479.827	9	50	Target	Neutral	True
480.803	0.47	Control	0.6667000000000001	n/a	No	2.777	n/a	n/a	NoResponse	0	n/a	n/a	9	50	Blank	Neutral	True
480.827	0.3	Control	0.6667000000000001	0.004	No	2.777	-0.004	4.0	NoResponse	0	0.258	n/a	9	50	ButtonPress	Neutral	True
481.271	1.45	Control	0.6667000000000001	n/a	No	2.777	n/a	5.0	NoResponse	0	0.017	480.288	9	50	Feedback	Neutral	True
482.725	2.777	Control	0.6667000000000001	n/a	No	2.777	n/a	n/a	NoResponse	0	0.0	n/a	9	50	ISIslide	Neutral	True
485.517	0.25	Control	0.6537999999999999	0.0	No	2.733	0.017	n/a	NoResponse	0	n/a	n/a	9	51	Cue	Neutral	True
485.768	3.95	Control	0.6537999999999999	0.0	No	2.733	0.001	n/a	NoResponse	0	n/a	n/a	9	51	Fixation	Neutral	True
489.713	0.22	Control	0.6537999999999999	0.004	No	2.733	-0.004	4.0	NoResponse	0	0.271	488.984	9	51	Target	Neutral	True
489.947	0.48	Control	0.6537999999999999	n/a	No	2.733	n/a	n/a	NoResponse	0	n/a	n/a	9	51	Blank	Neutral	True
489.984	0.3	Control	0.6537999999999999	0.004	No	2.733	-0.004	4.0	NoResponse	0	0.271	n/a	9	51	ButtonPress	Neutral	True
490.415	1.45	Control	0.6537999999999999	n/a	No	2.733	n/a	5.0	NoResponse	0	0.044	489.459	9	51	Feedback	Neutral	True
491.869	2.733	Control	0.6537999999999999	n/a	No	2.733	n/a	n/a	NoResponse	0	0.0	n/a	9	51	ISIslide	Neutral	True
494.628	0.25	Control	0.6415000000000001	0.0	No	2.622	0.028	n/a	NoResponse	0	n/a	n/a	9	52	Cue	Neutral	True
494.878	4.05	Control	0.6415000000000001	0.0	No	2.622	0.0	n/a	NoResponse	0	n/a	n/a	9	52	Fixation	Neutral	True
498.924	0.23	Control	0.6415000000000001	0.004	No	2.622	-0.004	4.0	NoResponse	0	0.278	498.202	9	52	Target	Neutral	True
499.158	0.47	Control	0.6415000000000001	n/a	No	2.622	n/a	n/a	NoResponse	0	n/a	n/a	9	52	Blank	Neutral	True
499.202	0.3	Control	0.6415000000000001	0.004	No	2.622	-0.004	4.0	NoResponse	0	0.278	n/a	9	52	ButtonPress	Neutral	True
499.626	1.45	Control	0.6415000000000001	n/a	No	2.622	n/a	5.0	NoResponse	0	0.007	498.633	9	52	Feedback	Neutral	True
501.08	2.622	Control	0.6415000000000001	n/a	No	2.622	n/a	n/a	NoResponse	0	0.0	n/a	9	52	ISIslide	Neutral	True
503.722	0.25	Win2	0.6481	0.0	Yes	2.928	0.022	n/a	GoodResponse	1	n/a	n/a	10	53	Cue	Win	True
503.972	4.05	Win2	0.6481	0.0	Yes	2.928	0.0	n/a	GoodResponse	1	n/a	n/a	10	53	Fixation	Win	True
508.018	0.24	Win2	0.6481	0.004	Yes	2.928	-0.004	4.0	GoodResponse	1	0.209	507.227	10	53	Target	Win	True
508.227	0.3	Win2	0.6481	0.004	Yes	2.928	-0.004	4.0	GoodResponse	1	0.209	n/a	10	53	ButtonPress	Win	True
508.269	0.46	Win2	0.6481	n/a	Yes	2.928	n/a	n/a	GoodResponse	1	n/a	n/a	10	53	Blank	Win	True
508.72	1.45	Win2	0.6481	n/a	Yes	2.928	n/a	5.0	GoodResponse	1	0.032	507.752	10	53	Feedback	Win	True
510.174	2.928	Win2	0.6481	n/a	Yes	2.928	n/a	n/a	GoodResponse	1	0.0	n/a	10	53	ISIslide	Win	True
513.116	0.25	Win2	0.6545000000000001	0.0	Yes	2.734	0.016	n/a	GoodResponse	1	n/a	n/a	11	54	Cue	Win	True
513.367	3.95	Win2	0.6545000000000001	0.0	Yes	2.734	0.001	n/a	GoodResponse	1	n/a	n/a	11	54	Fixation	Win	True
517.312	0.25	Win2	0.6545000000000001	0.004	Yes	2.734	-0.004	4.0	GoodResponse	1	0.215	516.527	11	54	Target	Win	True
517.527	0.3	Win2	0.6545000000000001	0.004	Yes	2.734	-0.004	4.0	GoodResponse	1	0.215	n/a	11	54	ButtonPress	Win	True
517.563	0.45	Win2	0.6545000000000001	n/a	Yes	2.734	n/a	n/a	GoodResponse	1	n/a	n/a	11	54	Blank	Win	True
518.014	1.45	Win2	0.6545000000000001	n/a	Yes	2.734	n/a	5.0	GoodResponse	1	0.007	517.021	11	54	Feedback	Win	True
519.469	2.734	Win2	0.6545000000000001	n/a	Yes	2.734	n/a	n/a	GoodResponse	1	0.0	n/a	11	54	ISIslide	Win	True
522.227	0.25	Control	0.6429	0.0	No	3.023	0.027	n/a	NoResponse	0	n/a	n/a	11	55	Cue	Neutral	True
522.478	3.95	Control	0.6429	0.0	No	3.023	0.001	n/a	NoResponse	0	n/a	n/a	11	55	Fixation	Neutral	True
526.423	0.26	Control	0.6429	0.004	No	3.023	-0.004	4.0	NoResponse	0	0.451	525.874	11	55	Target	Neutral	True
526.69	0.44	Control	0.6429	n/a	No	3.023	n/a	n/a	NoResponse	0	n/a	n/a	11	55	Blank	Neutral	True
526.874	0.3	Control	0.6429	0.004	No	3.023	-0.004	4.0	NoResponse	0	0.451	n/a	11	55	ButtonPress	Neutral	True
527.125	1.45	Control	0.6429	n/a	No	3.023	n/a	5.0	NoResponse	0	0.016	526.141	11	55	Feedback	Neutral	True
528.579	3.023	Control	0.6429	n/a	No	3.023	n/a	n/a	NoResponse	0	0.0	n/a	11	55	ISIslide	Neutral	True
531.622	0.25	Control	0.6491	0.0	Yes	2.828	0.022	n/a	GoodResponse	0	n/a	n/a	11	56	Cue	Neutral	True
531.872	3.95	Control	0.6491	0.001	Yes	2.828	0.0	n/a	GoodResponse	0	n/a	n/a	11	56	Fixation	Neutral	True
535.818	0.27	Control	0.6491	0.004	Yes	2.828	-0.004	4.0	GoodResponse	0	0.234	535.052	11	56	Target	Neutral	True
536.052	0.3	Control	0.6491	0.004	Yes	2.828	-0.004	4.0	GoodResponse	0	0.234	n/a	11	56	ButtonPress	Neutral	True
536.102	0.43	Control	0.6491	n/a	Yes	2.828	n/a	n/a	GoodResponse	0	n/a	n/a	11	56	Blank	Neutral	True
536.52	1.45	Control	0.6491	n/a	Yes	2.828	n/a	5.0	GoodResponse	0	0.036	535.556	11	56	Feedback	Neutral	True
537.974	2.828	Control	0.6491	n/a	Yes	2.828	n/a	n/a	GoodResponse	0	0.0	n/a	11	56	ISIslide	Neutral	True
540.816	0.25	Control	0.6552	0.0	Yes	3.484	0.016	n/a	GoodResponse	0	n/a	n/a	11	57	Cue	Neutral	True
541.067	4.0	Control	0.6552	0.0	Yes	3.484	0.001	n/a	GoodResponse	0	n/a	n/a	11	57	Fixation	Neutral	True
545.062	0.28	Control	0.6552	0.004	Yes	3.484	-0.004	4.0	GoodResponse	0	0.27	544.332	11	57	Target	Neutral	True
545.332	0.3	Control	0.6552	0.004	Yes	3.484	-0.004	4.0	GoodResponse	0	0.27	n/a	11	57	ButtonPress	Neutral	True
545.346	0.42	Control	0.6552	n/a	Yes	3.484	n/a	n/a	GoodResponse	0	n/a	n/a	11	57	Blank	Neutral	True
545.764	1.45	Control	0.6552	n/a	Yes	3.484	n/a	5.0	GoodResponse	0	0.011	544.775	11	57	Feedback	Neutral	True
547.218	3.484	Control	0.6552	n/a	Yes	3.484	n/a	n/a	GoodResponse	0	0.0	n/a	11	57	ISIslide	Neutral	True
550.729	0.25	Win2	0.6609999999999999	0.0	Yes	2.721	0.029	n/a	GoodResponse	1	n/a	n/a	12	58	Cue	Win	True
550.98	4.05	Win2	0.6609999999999999	0.0	Yes	2.721	0.001	n/a	GoodResponse	1	n/a	n/a	12	58	Fixation	Win	True
555.025	0.28	Win2	0.6609999999999999	0.004	Yes	2.721	-0.004	4.0	GoodResponse	1	0.179	554.204	12	58	Target	Win	True
555.204	0.3	Win2	0.6609999999999999	0.004	Yes	2.721	-0.004	4.0	GoodResponse	1	0.179	n/a	12	58	ButtonPress	Win	True
555.309	0.42	Win2	0.6609999999999999	n/a	Yes	2.721	n/a	n/a	GoodResponse	1	n/a	n/a	12	58	Blank	Win	True
555.727	1.45	Win2	0.6609999999999999	n/a	Yes	2.721	n/a	5.0	GoodResponse	1	0.048	554.775	12	58	Feedback	Win	True
557.182	2.721	Win2	0.6609999999999999	n/a	Yes	2.721	n/a	n/a	GoodResponse	1	0.0	n/a	12	58	ISIslide	Win	True
559.923	0.25	Lose2	0.6667000000000001	0.0	Yes	2.677	0.023	n/a	GoodResponse	0	n/a	n/a	12	59	Cue	AvoidedLoss	True
560.174	4.0	Lose2	0.6667000000000001	0.0	Yes	2.677	0.001	n/a	GoodResponse	0	n/a	n/a	12	59	Fixation	AvoidedLoss	True
564.169	0.28	Lose2	0.6667000000000001	0.004	Yes	2.677	-0.004	4.0	GoodResponse	0	0.219	563.388	12	59	Target	AvoidedLoss	True
564.388	0.3	Lose2	0.6667000000000001	0.004	Yes	2.677	-0.004	4.0	GoodResponse	0	0.219	n/a	12	59	ButtonPress	AvoidedLoss	True
564.453	0.42	Lose2	0.6667000000000001	n/a	Yes	2.677	n/a	n/a	GoodResponse	0	n/a	n/a	12	59	Blank	AvoidedLoss	True
564.871	1.45	Lose2	0.6667000000000001	n/a	Yes	2.677	n/a	5.0	GoodResponse	0	0.026	563.897	12	59	Feedback	AvoidedLoss	True
566.326	2.677	Lose2	0.6667000000000001	n/a	Yes	2.677	n/a	n/a	GoodResponse	0	0.0	n/a	12	59	ISIslide	AvoidedLoss	True
569.017	0.25	Control	0.6720999999999999	0.0	Yes	2.683	0.017	n/a	GoodResponse	0	n/a	n/a	12	60	Cue	Neutral	True
569.268	4.0	Control	0.6720999999999999	0.0	Yes	2.683	0.001	n/a	GoodResponse	0	n/a	n/a	12	60	Fixation	Neutral	True
573.263	0.27	Control	0.6720999999999999	0.004	Yes	2.683	-0.004	4.0	GoodResponse	0	0.188	572.451	12	60	Target	Neutral	True
573.451	0.3	Control	0.6720999999999999	0.004	Yes	2.683	-0.004	4.0	GoodResponse	0	0.188	n/a	12	60	ButtonPress	Neutral	True
573.547	0.43	Control	0.6720999999999999	n/a	Yes	2.683	n/a	n/a	GoodResponse	0	n/a	n/a	12	60	Blank	Neutral	True
573.965	1.45	Control	0.6720999999999999	n/a	Yes	2.683	n/a	5.0	GoodResponse	0	0.007	572.972	12	60	Feedback	Neutral	True
575.42	2.683	Control	0.6720999999999999	n/a	Yes	2.683	n/a	n/a	GoodResponse	0	0.0	n/a	12	60	ISIslide	Neutral	True
578.128	0.25	Lose2	0.6774	0.0	Yes	2.972	0.028	n/a	GoodResponse	0	n/a	n/a	12	61	Cue	AvoidedLoss	True
578.378	4.0	Lose2	0.6774	0.0	Yes	2.972	0.0	n/a	GoodResponse	0	n/a	n/a	12	61	Fixation	AvoidedLoss	True
582.374	0.26	Lose2	0.6774	0.004	Yes	2.972	-0.004	4.0	GoodResponse	0	0.207	581.581	12	61	Target	AvoidedLoss	True
582.581	0.3	Lose2	0.6774	0.004	Yes	2.972	-0.004	4.0	GoodResponse	0	0.207	n/a	12	61	ButtonPress	AvoidedLoss	True
582.641	0.44	Lose2	0.6774	n/a	Yes	2.972	n/a	n/a	GoodResponse	0	n/a	n/a	12	61	Blank	AvoidedLoss	True
583.076	1.45	Lose2	0.6774	n/a	Yes	2.972	n/a	5.0	GoodResponse	0	0.016	582.092	12	61	Feedback	AvoidedLoss	True
584.53	2.972	Lose2	0.6774	n/a	Yes	2.972	n/a	n/a	GoodResponse	0	0.0	n/a	12	61	ISIslide	AvoidedLoss	True
587.522	0.25	Lose2	0.6667000000000001	0.0	No	2.878	0.022	n/a	NoResponse	-1	n/a	n/a	11	62	Cue	Loss	True
587.773	3.9	Lose2	0.6667000000000001	0.0	No	2.878	0.001	n/a	NoResponse	-1	n/a	n/a	11	62	Fixation	Loss	True
591.668	0.25	Lose2	0.6667000000000001	0.004	No	2.878	-0.004	4.0	NoResponse	-1	0.268	590.936	11	62	Target	Loss	True
591.919	0.45	Lose2	0.6667000000000001	n/a	No	2.878	n/a	n/a	NoResponse	-1	n/a	n/a	11	62	Blank	Loss	True
591.936	0.3	Lose2	0.6667000000000001	0.004	No	2.878	-0.004	4.0	NoResponse	-1	0.268	n/a	11	62	ButtonPress	Loss	True
592.37	1.45	Lose2	0.6667000000000001	n/a	No	2.878	n/a	5.0	NoResponse	-1	0.039	591.409	11	62	Feedback	Loss	True
593.825	2.878	Lose2	0.6667000000000001	n/a	No	2.878	n/a	n/a	NoResponse	-1	0.0	n/a	11	62	ISIslide	Loss	True
596.717	0.25	Lose2	0.6718999999999999	0.0	Yes	2.633	0.017	n/a	GoodResponse	0	n/a	n/a	11	63	Cue	AvoidedLoss	True
596.967	4.05	Lose2	0.6718999999999999	0.0	Yes	2.633	0.0	n/a	GoodResponse	0	n/a	n/a	11	63	Fixation	AvoidedLoss	True
601.013	0.24	Lose2	0.6718999999999999	0.004	Yes	2.633	-0.004	4.0	GoodResponse	0	0.186	600.199	11	63	Target	AvoidedLoss	True
601.199	0.3	Lose2	0.6718999999999999	0.004	Yes	2.633	-0.004	4.0	GoodResponse	0	0.186	n/a	11	63	ButtonPress	AvoidedLoss	True
601.264	0.46	Lose2	0.6718999999999999	n/a	Yes	2.633	n/a	n/a	GoodResponse	0	n/a	n/a	11	63	Blank	AvoidedLoss	True
601.715	1.45	Lose2	0.6718999999999999	n/a	Yes	2.633	n/a	5.0	GoodResponse	0	0.011	600.726	11	63	Feedback	AvoidedLoss	True
603.169	2.633	Lose2	0.6718999999999999	n/a	Yes	2.633	n/a	n/a	GoodResponse	0	0.0	n/a	11	63	ISIslide	AvoidedLoss	True
605.827	0.25	Win2	0.6769	0.0	Yes	3.123	0.027	n/a	GoodResponse	1	n/a	n/a	12	64	Cue	Win	True
606.078	4.15	Win2	0.6769	0.0	Yes	3.123	0.001	n/a	GoodResponse	1	n/a	n/a	12	64	Fixation	Win	True
610.224	0.23	Win2	0.6769	0.003	Yes	3.123	-0.003	4.0	GoodResponse	1	0.178	609.402	12	64	Target	Win	True
610.402	0.3	Win2	0.6769	0.003	Yes	3.123	-0.003	4.0	GoodResponse	1	0.178	n/a	12	64	ButtonPress	Win	True
610.458	0.47	Win2	0.6769	n/a	Yes	3.123	n/a	n/a	GoodResponse	1	n/a	n/a	12	64	Blank	Win	True
610.926	1.45	Win2	0.6769	n/a	Yes	3.123	n/a	5.0	GoodResponse	1	0.02	609.946	12	64	Feedback	Win	True
612.38	3.123	Win2	0.6769	n/a	Yes	3.123	n/a	n/a	GoodResponse	1	0.0	n/a	12	64	ISIslide	Win	True
615.523	0.25	Control	0.6818000000000001	0.0	Yes	2.777	0.023	n/a	GoodResponse	0	n/a	n/a	12	65	Cue	Neutral	True
615.774	4.0	Control	0.6818000000000001	0.0	Yes	2.777	0.001	n/a	GoodResponse	0	n/a	n/a	12	65	Fixation	Neutral	True
619.769	0.22	Control	0.6818000000000001	0.004	Yes	2.777	-0.004	4.0	GoodResponse	0	0.213	618.982	12	65	Target	Neutral	True
619.982	0.3	Control	0.6818000000000001	0.004	Yes	2.777	-0.004	4.0	GoodResponse	0	0.213	n/a	12	65	ButtonPress	Neutral	True
620.003	0.48	Control	0.6818000000000001	n/a	Yes	2.777	n/a	n/a	GoodResponse	0	n/a	n/a	12	65	Blank	Neutral	True
620.471	1.45	Control	0.6818000000000001	n/a	Yes	2.777	n/a	5.0	GoodResponse	0	0.036	619.507	12	65	Feedback	Neutral	True
621.925	2.777	Control	0.6818000000000001	n/a	Yes	2.777	n/a	n/a	GoodResponse	0	0.0	n/a	12	65	ISIslide	Neutral	True
624.717	0.25	Win2	0.6866	0.0	Yes	2.783	0.017	n/a	GoodResponse	1	n/a	n/a	13	66	Cue	Win	True
624.968	3.9	Win2	0.6866	0.0	Yes	2.783	0.001	n/a	GoodResponse	1	n/a	n/a	13	66	Fixation	Win	True
628.863	0.21	Win2	0.6866	0.004	Yes	2.783	-0.004	4.0	GoodResponse	1	0.195	628.058	13	66	Target	Win	True
629.058	0.3	Win2	0.6866	0.004	Yes	2.783	-0.004	4.0	GoodResponse	1	0.195	n/a	13	66	ButtonPress	Win	True
629.08	0.49	Win2	0.6866	n/a	Yes	2.783	n/a	n/a	GoodResponse	1	n/a	n/a	13	66	Blank	Win	True
629.565	1.45	Win2	0.6866	n/a	Yes	2.783	n/a	5.0	GoodResponse	1	0.014	628.579	13	66	Feedback	Win	True
631.019	2.783	Win2	0.6866	n/a	Yes	2.783	n/a	n/a	GoodResponse	1	0.0	n/a	13	66	ISIslide	Win	True
633.828	0.25	Control	0.6912	0.0	Yes	2.722	0.028	n/a	GoodResponse	0	n/a	n/a	13	67	Cue	Neutral	True
634.078	3.95	Control	0.6912	0.0	Yes	2.722	0.0	n/a	GoodResponse	0	n/a	n/a	13	67	Fixation	Neutral	True
638.024	0.2	Control	0.6912	0.004	Yes	2.722	-0.004	4.0	GoodResponse	0	0.199	637.223	13	67	Target	Neutral	True
638.223	0.3	Control	0.6912	0.004	Yes	2.722	-0.004	4.0	GoodResponse	0	0.199	n/a	13	67	ButtonPress	Neutral	True
638.224	0.5	Control	0.6912	n/a	Yes	2.722	n/a	n/a	GoodResponse	0	n/a	n/a	13	67	Blank	Neutral	True
638.726	1.45	Control	0.6912	n/a	Yes	2.722	n/a	5.0	GoodResponse	0	0.024	637.75	13	67	Feedback	Neutral	True
640.18	2.722	Control	0.6912	n/a	Yes	2.722	n/a	n/a	GoodResponse	0	0.0	n/a	13	67	ISIslide	Neutral	True
642.922	0.25	Win2	0.6812	0.0	No	3.078	0.022	n/a	NoResponse	0	n/a	n/a	13	68	Cue	MissedWin	True
643.172	4.0	Win2	0.6812	0.0	No	3.078	0.0	n/a	NoResponse	0	n/a	n/a	13	68	Fixation	MissedWin	True
647.168	0.19	Win2	0.6812	0.004	No	3.078	-0.004	4.0	NoResponse	0	0.213	646.381	13	68	Target	MissedWin	True
647.368	0.51	Win2	0.6812	n/a	No	3.078	n/a	n/a	NoResponse	0	n/a	n/a	13	68	Blank	MissedWin	True
647.381	0.3	Win2	0.6812	0.004	No	3.078	-0.004	4.0	NoResponse	0	0.213	n/a	13	68	ButtonPress	MissedWin	True
647.87	1.45	Win2	0.6812	n/a	No	3.078	n/a	5.0	NoResponse	0	0.002	646.872	13	68	Feedback	MissedWin	True
649.324	3.078	Win2	0.6812	n/a	No	3.078	n/a	n/a	NoResponse	0	0.0	n/a	13	68	ISIslide	MissedWin	True
652.417	0.25	Win2	0.6714	0.0	No	3.233	0.017	n/a	NoResponse	0	n/a	n/a	13	69	Cue	MissedWin	True
652.667	3.95	Win2	0.6714	0.0	No	3.233	0.0	n/a	NoResponse	0	n/a	n/a	13	69	Fixation	MissedWin	True
656.613	0.18	Win2	0.6714	0.004	No	3.233	-0.004	4.0	NoResponse	0	0.256	655.869	13	69	Target	MissedWin	True
656.796	0.52	Win2	0.6714	n/a	No	3.233	n/a	n/a	NoResponse	0	n/a	n/a	13	69	Blank	MissedWin	True
656.869	0.3	Win2	0.6714	0.004	No	3.233	-0.004	4.0	NoResponse	0	0.256	n/a	13	69	ButtonPress	MissedWin	True
657.315	1.45	Win2	0.6714	n/a	No	3.233	n/a	5.0	NoResponse	0	0.021	656.336	13	69	Feedback	MissedWin	True
658.769	3.233	Win2	0.6714	n/a	No	3.233	n/a	n/a	NoResponse	0	0.0	n/a	13	69	ISIslide	MissedWin	True
662.029	0.25	Lose2	0.662	0.0	No	3.021	0.029	n/a	NoResponse	-1	n/a	n/a	12	70	Cue	Loss	True
662.28	4.05	Lose2	0.662	0.0	No	3.021	0.001	n/a	NoResponse	-1	n/a	n/a	12	70	Fixation	Loss	True
666.325	0.17	Lose2	0.662	0.004	No	3.021	-0.004	4.0	NoResponse	-1	0.193	665.518	12	70	Target	Loss	True
666.509	0.53	Lose2	0.662	n/a	No	3.021	n/a	n/a	NoResponse	-1	n/a	n/a	12	70	Blank	Loss	True
666.518	0.3	Lose2	0.662	0.004	No	3.021	-0.004	4.0	NoResponse	-1	0.193	n/a	12	70	ButtonPress	Loss	True
667.027	1.45	Lose2	0.662	n/a	No	3.021	n/a	5.0	NoResponse	-1	0.016	666.043	12	70	Feedback	Loss	True
668.481	3.021	Lose2	0.662	n/a	No	3.021	n/a	n/a	NoResponse	-1	0.0	n/a	12	70	ISIslide	Loss	True
671.524	0.25	Win2	0.6528	0.0	No	2.726	0.024	n/a	NoResponse	0	n/a	n/a	12	71	Cue	MissedWin	True
671.775	4.05	Win2	0.6528	0.0	No	2.726	0.001	n/a	NoResponse	0	n/a	n/a	12	71	Fixation	MissedWin	True
675.82	0.17	Win2	0.6528	0.004	No	2.726	-0.004	4.0	NoResponse	0	0.211	675.031	12	71	Target	MissedWin	True
676.004	0.53	Win2	0.6528	n/a	No	2.726	n/a	n/a	NoResponse	0	n/a	n/a	12	71	Blank	MissedWin	True
676.031	0.3	Win2	0.6528	0.004	No	2.726	-0.004	4.0	NoResponse	0	0.211	n/a	12	71	ButtonPress	MissedWin	True
676.522	1.45	Win2	0.6528	n/a	No	2.726	n/a	5.0	NoResponse	0	0.032	675.554	12	71	Feedback	MissedWin	True
677.976	2.726	Win2	0.6528	n/a	No	2.726	n/a	n/a	NoResponse	0	0.0	n/a	12	71	ISIslide	MissedWin	True
680.718	0.25	Win2	0.6437999999999999	0.0	No	2.782	0.018	n/a	NoResponse	0	n/a	n/a	12	72	Cue	MissedWin	True
680.969	4.1	Win2	0.6437999999999999	0.0	No	2.782	0.001	n/a	NoResponse	0	n/a	n/a	12	72	Fixation	MissedWin	True
685.064	0.18	Win2	0.6437999999999999	0.004	No	2.782	-0.004	4.0	NoResponse	0	0.21	684.274	12	72	Target	MissedWin	True
685.248	0.52	Win2	0.6437999999999999	n/a	No	2.782	n/a	n/a	NoResponse	0	n/a	n/a	12	72	Blank	MissedWin	True
685.274	0.3	Win2	0.6437999999999999	0.004	No	2.782	-0.004	4.0	NoResponse	0	0.21	n/a	12	72	ButtonPress	MissedWin	True
685.766	1.45	Win2	0.6437999999999999	n/a	No	2.782	n/a	5.0	NoResponse	0	0.008	684.774	12	72	Feedback	MissedWin	True
687.221	2.782	Win2	0.6437999999999999	n/a	No	2.782	n/a	n/a	NoResponse	0	0.0	n/a	12	72	ISIslide	MissedWin	True
690.029	0.25	Win2	0.6351	0.0	No	2.671	0.029	n/a	NoResponse	0	n/a	n/a	12	73	Cue	MissedWin	True
690.28	4.0	Win2	0.6351	0.0	No	2.671	0.001	n/a	NoResponse	0	n/a	n/a	12	73	Fixation	MissedWin	True
694.275	0.19	Win2	0.6351	0.004	No	2.671	-0.004	4.0	NoResponse	0	0.211	693.486	12	73	Target	MissedWin	True
694.476	0.51	Win2	0.6351	n/a	No	2.671	n/a	n/a	NoResponse	0	n/a	n/a	12	73	Blank	MissedWin	True
694.486	0.3	Win2	0.6351	0.004	No	2.671	-0.004	4.0	NoResponse	0	0.211	n/a	12	73	ButtonPress	MissedWin	True
694.977	1.45	Win2	0.6351	n/a	No	2.671	n/a	5.0	NoResponse	0	0.016	693.993	12	73	Feedback	MissedWin	True
696.432	2.671	Win2	0.6351	n/a	No	2.671	n/a	n/a	NoResponse	0	0.0	n/a	12	73	ISIslide	MissedWin	True
699.123	0.25	Lose2	0.64	0.0	Yes	2.627	0.023	n/a	GoodResponse	0	n/a	n/a	12	74	Cue	AvoidedLoss	True
699.374	4.05	Lose2	0.64	0.0	Yes	2.627	0.001	n/a	GoodResponse	0	n/a	n/a	12	74	Fixation	AvoidedLoss	True
703.419	0.2	Lose2	0.64	0.004	Yes	2.627	-0.004	4.0	GoodResponse	0	0.184	702.603	12	74	Target	AvoidedLoss	True
703.603	0.3	Lose2	0.64	0.004	Yes	2.627	-0.004	4.0	GoodResponse	0	0.184	n/a	12	74	ButtonPress	AvoidedLoss	True
703.62	0.5	Lose2	0.64	n/a	Yes	2.627	n/a	n/a	GoodResponse	0	n/a	n/a	12	74	Blank	AvoidedLoss	True
704.121	1.45	Lose2	0.64	n/a	Yes	2.627	n/a	5.0	GoodResponse	0	0.043	703.164	12	74	Feedback	AvoidedLoss	True
705.576	2.627	Lose2	0.64	n/a	Yes	2.627	n/a	n/a	GoodResponse	0	0.0	n/a	12	74	ISIslide	AvoidedLoss	True
708.217	0.25	Lose2	0.6446999999999999	0.0	Yes	2.933	0.017	n/a	GoodResponse	0	n/a	n/a	12	75	Cue	AvoidedLoss	True
708.468	3.95	Lose2	0.6446999999999999	0.0	Yes	2.933	0.001	n/a	GoodResponse	0	n/a	n/a	12	75	Fixation	AvoidedLoss	True
712.413	0.21	Lose2	0.6446999999999999	0.004	Yes	2.933	-0.004	4.0	GoodResponse	0	0.182	711.595	12	75	Target	AvoidedLoss	True
712.595	0.3	Lose2	0.6446999999999999	0.004	Yes	2.933	-0.004	4.0	GoodResponse	0	0.182	n/a	12	75	ButtonPress	AvoidedLoss	True
712.63	0.49	Lose2	0.6446999999999999	n/a	Yes	2.933	n/a	n/a	GoodResponse	0	n/a	n/a	12	75	Blank	AvoidedLoss	True
713.115	1.45	Lose2	0.6446999999999999	n/a	Yes	2.933	n/a	5.0	GoodResponse	0	0.025	712.14	12	75	Feedback	AvoidedLoss	True
714.569	2.933	Lose2	0.6446999999999999	n/a	Yes	2.933	n/a	n/a	GoodResponse	0	0.0	n/a	12	75	ISIslide	AvoidedLoss	True
717.528	0.25	Control	0.6494	0.0	Yes	3.222	0.028	n/a	GoodResponse	0	n/a	n/a	12	76	Cue	Neutral	True
717.779	4.05	Control	0.6494	0.0	Yes	3.222	0.001	n/a	GoodResponse	0	n/a	n/a	12	76	Fixation	Neutral	True
721.824	0.22	Control	0.6494	0.004	Yes	3.222	-0.004	4.0	GoodResponse	0	0.191	721.015	12	76	Target	Neutral	True
722.015	0.3	Control	0.6494	0.004	Yes	3.222	-0.004	4.0	GoodResponse	0	0.191	n/a	12	76	ButtonPress	Neutral	True
722.058	0.48	Control	0.6494	n/a	Yes	3.222	n/a	n/a	GoodResponse	0	n/a	n/a	12	76	Blank	Neutral	True
722.527	1.45	Control	0.6494	n/a	Yes	3.222	n/a	5.0	GoodResponse	0	0.028	721.555	12	76	Feedback	Neutral	True
723.981	3.222	Control	0.6494	n/a	Yes	3.222	n/a	n/a	GoodResponse	0	0.0	n/a	12	76	ISIslide	Neutral	True
727.224	0.25	Lose2	0.6537999999999999	0.0	Yes	2.576	0.024	n/a	GoodResponse	0	n/a	n/a	12	77	Cue	AvoidedLoss	True
727.475	3.95	Lose2	0.6537999999999999	0.0	Yes	2.576	0.001	n/a	GoodResponse	0	n/a	n/a	12	77	Fixation	AvoidedLoss	True
731.42	0.23	Lose2	0.6537999999999999	0.004	Yes	2.576	-0.004	4.0	GoodResponse	0	0.191	730.611	12	77	Target	AvoidedLoss	True
731.611	0.3	Lose2	0.6537999999999999	0.004	Yes	2.576	-0.004	4.0	GoodResponse	0	0.191	n/a	12	77	ButtonPress	AvoidedLoss	True
731.654	0.47	Lose2	0.6537999999999999	n/a	Yes	2.576	n/a	n/a	GoodResponse	0	n/a	n/a	12	77	Blank	AvoidedLoss	True
732.122	1.45	Lose2	0.6537999999999999	n/a	Yes	2.576	n/a	5.0	GoodResponse	0	0.042	731.164	12	77	Feedback	AvoidedLoss	True
733.576	2.576	Lose2	0.6537999999999999	n/a	Yes	2.576	n/a	n/a	GoodResponse	0	0.0	n/a	12	77	ISIslide	AvoidedLoss	True
