onset	duration	cue_type	current_mean_accuracy	duration_error	is_hit	isi_adjusted	onset_delay	response	response_type	reward	rt	rt_time	total_reward	trial_number	trial_phase	trial_type	one_press
11.11	0.25	Control	0.0	0.0	No	2.94	0.01	n/a	NoResponse	0	n/a	n/a	0	0	Cue	Neutral	True
11.36	3.85	Control	0.0	0.0	No	2.94	0.0	n/a	NoResponse	0	n/a	n/a	0	0	Fixation	Neutral	True
15.209	0.4	Control	0.0	0.001	No	2.94	-0.001	1.0	NoResponse	0	0.495	14.704	0	0	Target	Neutral	True
15.608	0.3	Control	0.0	n/a	No	2.94	n/a	n/a	NoResponse	0	n/a	n/a	0	0	Blank	Neutral	True
15.704	0.3	Control	0.0	0.001	No	2.94	-0.001	1.0	NoResponse	0	0.495	n/a	0	0	ButtonPress	Neutral	True
15.908	1.45	Control	0.0	n/a	No	2.94	n/a	5.0	NoResponse	0	0.022	14.93	0	0	Feedback	Neutral	True
17.358	2.94	Control	0.0	n/a	No	2.94	n/a	n/a	NoResponse	0	0.0	n/a	0	0	ISIslide	Neutral	True
20.324	0.25	Lose2	0.5	0.0	Yes	2.776	0.024	n/a	GoodResponse	0	n/a	n/a	0	1	Cue	AvoidedLoss	True
20.573	4.0	Lose2	0.5	0.001	Yes	2.776	-0.001	n/a	GoodResponse	0	n/a	n/a	0	1	Fixation	AvoidedLoss	True
24.572	0.41	Lose2	0.5	0.002	Yes	2.776	-0.002	1.0	GoodResponse	0	0.209	23.781	0	1	Target	AvoidedLoss	True
24.781	0.3	Lose2	0.5	0.002	Yes	2.776	-0.002	1.0	GoodResponse	0	0.209	n/a	0	1	ButtonPress	AvoidedLoss	True
24.989	0.29	Lose2	0.5	n/a	Yes	2.776	n/a	n/a	GoodResponse	0	n/a	n/a	0	1	Blank	AvoidedLoss	True
25.272	1.45	Lose2	0.5	n/a	Yes	2.776	n/a	5.0	GoodResponse	0	0.024	24.296	0	1	Feedback	AvoidedLoss	True
26.721	2.776	Lose2	0.5	n/a	Yes	2.776	n/a	n/a	GoodResponse	0	0.0	n/a	0	1	ISIslide	AvoidedLoss	True
29.52	0.25	Control	0.6667000000000001	0.0	Yes	2.58	0.02	n/a	GoodResponse	0	n/a	n/a	0	2	Cue	Neutral	True
29.77	4.1	Control	0.6667000000000001	0.0	Yes	2.58	0.0	n/a	GoodResponse	0	n/a	n/a	0	2	Fixation	Neutral	True
33.869	0.42	Control	0.6667000000000001	0.001	Yes	2.58	-0.001	1.0	GoodResponse	0	0.205	33.074	0	2	Target	Neutral	True
34.074	0.3	Control	0.6667000000000001	0.001	Yes	2.58	-0.001	1.0	GoodResponse	0	0.205	n/a	0	2	ButtonPress	Neutral	True
34.285	0.28	Control	0.6667000000000001	n/a	Yes	2.58	n/a	n/a	GoodResponse	0	n/a	n/a	0	2	Blank	Neutral	True
34.569	1.45	Control	0.6667000000000001	n/a	Yes	2.58	n/a	5.0	GoodResponse	0	0.044	33.613	0	2	Feedback	Neutral	True
36.018	2.58	Control	0.6667000000000001	n/a	Yes	2.58	n/a	n/a	GoodResponse	0	0.0	n/a	0	2	ISIslide	Neutral	True
38.617	0.25	Win2	0.75	0.0	Yes	2.833	0.017	n/a	GoodResponse	1	n/a	n/a	1	3	Cue	Win	True
38.867	3.95	Win2	0.75	0.0	Yes	2.833	0.0	n/a	GoodResponse	1	n/a	n/a	1	3	Fixation	Win	True
42.816	0.41	Win2	0.75	0.001	Yes	2.833	-0.001	1.0	GoodResponse	1	0.201	42.017	1	3	Target	Win	True
43.017	0.3	Win2	0.75	0.001	Yes	2.833	-0.001	1.0	GoodResponse	1	0.201	n/a	1	3	ButtonPress	Win	True
43.232	0.29	Win2	0.75	n/a	Yes	2.833	n/a	n/a	GoodResponse	1	n/a	n/a	1	3	Blank	Win	True
43.515	1.45	Win2	0.75	n/a	Yes	2.833	n/a	5.0	GoodResponse	1	0.025	42.54	1	3	Feedback	Win	True
44.965	2.833	Win2	0.75	n/a	Yes	2.833	n/a	n/a	GoodResponse	1	0.0	n/a	1	3	ISIslide	Win	True
47.814	0.25	Win2	0.8	0.0	Yes	3.286	0.014	n/a	GoodResponse	1	n/a	n/a	2	4	Cue	Win	True
48.064	4.0	Win2	0.8	0.0	Yes	3.286	0.0	n/a	GoodResponse	1	n/a	n/a	2	4	Fixation	Win	True
52.062	0.4	Win2	0.8	0.002	Yes	3.286	-0.002	1.0	GoodResponse	1	0.23	51.292	2	4	Target	Win	True
52.292	0.3	Win2	0.8	0.002	Yes	3.286	-0.002	1.0	GoodResponse	1	0.23	n/a	2	4	ButtonPress	Win	True
52.462	0.3	Win2	0.8	n/a	Yes	3.286	n/a	n/a	GoodResponse	1	n/a	n/a	2	4	Blank	Win	True
52.762	1.45	Win2	0.8	n/a	Yes	3.286	n/a	5.0	GoodResponse	1	0.045	51.807	2	4	Feedback	Win	True
54.212	3.286	Win2	0.8	n/a	Yes	3.286	n/a	n/a	GoodResponse	1	0.0	n/a	2	4	ISIslide	Win	True
57.527	0.25	Win2	0.8332999999999999	0.0	Yes	2.773	0.027	n/a	GoodResponse	1	n/a	n/a	3	5	Cue	Win	True
57.777	4.0	Win2	0.8332999999999999	0.0	Yes	2.773	0.0	n/a	GoodResponse	1	n/a	n/a	3	5	Fixation	Win	True
61.776	0.39	Win2	0.8332999999999999	0.001	Yes	2.773	-0.001	1.0	GoodResponse	1	0.204	60.98	3	5	Target	Win	True
61.98	0.3	Win2	0.8332999999999999	0.001	Yes	2.773	-0.001	1.0	GoodResponse	1	0.204	n/a	3	5	ButtonPress	Win	True
62.176	0.31	Win2	0.8332999999999999	n/a	Yes	2.773	n/a	n/a	GoodResponse	1	n/a	n/a	3	5	Blank	Win	True
62.475	1.45	Win2	0.8332999999999999	n/a	Yes	2.773	n/a	5.0	GoodResponse	1	0.04	61.515	3	5	Feedback	Win	True
63.925	2.773	Win2	0.8332999999999999	n/a	Yes	2.773	n/a	n/a	GoodResponse	1	0.0	n/a	3	5	ISIslide	Win	True
66.724	0.25	Lose2	0.8571	0.0	Yes	2.726	0.024	n/a	GoodResponse	0	n/a	n/a	3	6	Cue	AvoidedLoss	True
66.974	3.95	Lose2	0.8571	0.0	Yes	2.726	0.0	n/a	GoodResponse	0	n/a	n/a	3	6	Fixation	AvoidedLoss	True
70.923	0.38	Lose2	0.8571	0.001	Yes	2.726	-0.001	1.0	GoodResponse	0	0.202	70.125	3	6	Target	AvoidedLoss	True
71.125	0.3	Lose2	0.8571	0.001	Yes	2.726	-0.001	1.0	GoodResponse	0	0.202	n/a	3	6	ButtonPress	AvoidedLoss	True
71.306	0.32	Lose2	0.8571	n/a	Yes	2.726	n/a	n/a	GoodResponse	0	n/a	n/a	3	6	Blank	AvoidedLoss	True
71.622	1.45	Lose2	0.8571	n/a	Yes	2.726	n/a	5.0	GoodResponse	0	0.015	70.637	3	6	Feedback	AvoidedLoss	True
73.072	2.726	Lose2	0.8571	n/a	Yes	2.726	n/a	n/a	GoodResponse	0	0.0	n/a	3	6	ISIslide	AvoidedLoss	True
75.821	0.25	Lose2	0.875	0.0	Yes	4.029	0.021	n/a	GoodResponse	0	n/a	n/a	3	7	Cue	AvoidedLoss	True
76.071	4.05	Lose2	0.875	0.0	Yes	4.029	0.0	n/a	GoodResponse	0	n/a	n/a	3	7	Fixation	AvoidedLoss	True
80.119	0.37	Lose2	0.875	0.002	Yes	4.029	-0.002	1.0	GoodResponse	0	0.22	79.339	3	7	Target	AvoidedLoss	True
80.339	0.3	Lose2	0.875	0.002	Yes	4.029	-0.002	1.0	GoodResponse	0	0.22	n/a	3	7	ButtonPress	AvoidedLoss	True
80.503	0.33	Lose2	0.875	n/a	Yes	4.029	n/a	n/a	GoodResponse	0	n/a	n/a	3	7	Blank	AvoidedLoss	True
80.819	1.45	Lose2	0.875	n/a	Yes	4.029	n/a	5.0	GoodResponse	0	0.037	79.856	3	7	Feedback	AvoidedLoss	True
82.269	4.029	Lose2	0.875	n/a	Yes	4.029	n/a	n/a	GoodResponse	0	0.0	n/a	3	7	ISIslide	AvoidedLoss	True
86.317	0.25	Lose2	0.8889	0.0	Yes	3.033	0.017	n/a	GoodResponse	0	n/a	n/a	3	8	Cue	AvoidedLoss	True
86.567	3.95	Lose2	0.8889	0.0	Yes	3.033	0.0	n/a	GoodResponse	0	n/a	n/a	3	8	Fixation	AvoidedLoss	True
90.516	0.36	Lose2	0.8889	0.001	Yes	3.033	-0.001	1.0	GoodResponse	0	0.228	89.744	3	8	Target	AvoidedLoss	True
90.744	0.3	Lose2	0.8889	0.001	Yes	3.033	-0.001	1.0	GoodResponse	0	0.228	n/a	3	8	ButtonPress	AvoidedLoss	True
90.882	0.34	Lose2	0.8889	n/a	Yes	3.033	n/a	n/a	GoodResponse	0	n/a	n/a	3	8	Blank	AvoidedLoss	True
91.215	1.45	Lose2	0.8889	n/a	Yes	3.033	n/a	5.0	GoodResponse	0	0.032	90.247	3	8	Feedback	AvoidedLoss	True
92.665	3.033	Lose2	0.8889	n/a	Yes	3.033	n/a	n/a	GoodResponse	0	0.0	n/a	3	8	ISIslide	AvoidedLoss	True
95.714	0.25	Lose2	0.9	0.0	Yes	3.136	0.014	n/a	GoodResponse	0	n/a	n/a	3	9	Cue	AvoidedLoss	True
95.964	3.95	Lose2	0.9	0.0	Yes	3.136	0.0	n/a	GoodResponse	0	n/a	n/a	3	9	Fixation	AvoidedLoss	True
99.912	0.35	Lose2	0.9	0.002	Yes	3.136	-0.002	1.0	GoodResponse	0	0.237	99.149	3	9	Target	AvoidedLoss	True
100.149	0.3	Lose2	0.9	0.002	Yes	3.136	-0.002	1.0	GoodResponse	0	0.237	n/a	3	9	ButtonPress	AvoidedLoss	True
100.262	0.35	Lose2	0.9	n/a	Yes	3.136	n/a	n/a	GoodResponse	0	n/a	n/a	3	9	Blank	AvoidedLoss	True
100.612	1.45	Lose2	0.9	n/a	Yes	3.136	n/a	5.0	GoodResponse	0	0.0	99.612	3	9	Feedback	AvoidedLoss	True
102.062	3.136	Lose2	0.9	n/a	Yes	3.136	n/a	n/a	GoodResponse	0	0.0	n/a	3	9	ISIslide	AvoidedLoss	True
105.227	0.25	Control	0.9091	0.0	Yes	3.273	0.027	n/a	GoodResponse	0	n/a	n/a	3	10	Cue	Neutral	True
105.477	4.0	Control	0.9091	0.0	Yes	3.273	0.0	n/a	GoodResponse	0	n/a	n/a	3	10	Fixation	Neutral	True
109.476	0.34	Control	0.9091	0.001	Yes	3.273	-0.001	1.0	GoodResponse	0	0.214	108.69	3	10	Target	Neutral	True
109.69	0.3	Control	0.9091	0.001	Yes	3.273	-0.001	1.0	GoodResponse	0	0.214	n/a	3	10	ButtonPress	Neutral	True
109.826	0.36	Control	0.9091	n/a	Yes	3.273	n/a	n/a	GoodResponse	0	n/a	n/a	3	10	Blank	Neutral	True
110.175	1.45	Control	0.9091	n/a	Yes	3.273	n/a	5.0	GoodResponse	0	0.047	109.222	3	10	Feedback	Neutral	True
111.625	3.273	Control	0.9091	n/a	Yes	3.273	n/a	n/a	GoodResponse	0	0.0	n/a	3	10	ISIslide	Neutral	True
114.924	0.25	Lose2	0.9167000000000001	0.0	Yes	2.726	0.024	n/a	GoodResponse	0	n/a	n/a	3	11	Cue	AvoidedLoss	True
115.174	4.05	Lose2	0.9167000000000001	0.0	Yes	2.726	0.0	n/a	GoodResponse	0	n/a	n/a	3	11	Fixation	AvoidedLoss	True
119.222	0.33	Lose2	0.9167000000000001	0.002	Yes	2.726	-0.002	1.0	GoodResponse	0	0.201	118.423	3	11	Target	AvoidedLoss	True
119.423	0.3	Lose2	0.9167000000000001	0.002	Yes	2.726	-0.002	1.0	GoodResponse	0	0.201	n/a	3	11	ButtonPress	AvoidedLoss	True
119.556	0.37	Lose2	0.9167000000000001	n/a	Yes	2.726	n/a	n/a	GoodResponse	0	n/a	n/a	3	11	Blank	AvoidedLoss	True
119.922	1.45	Lose2	0.9167000000000001	n/a	Yes	2.726	n/a	5.0	GoodResponse	0	0.007	118.929	3	11	Feedback	AvoidedLoss	True
121.372	2.726	Lose2	0.9167000000000001	n/a	Yes	2.726	n/a	n/a	GoodResponse	0	0.0	n/a	3	11	ISIslide	AvoidedLoss	True
124.121	0.25	Control	0.9231	0.0	Yes	2.979	0.021	n/a	GoodResponse	0	n/a	n/a	3	12	Cue	Neutral	True
124.371	3.9	Control	0.9231	0.0	Yes	2.979	0.0	n/a	GoodResponse	0	n/a	n/a	3	12	Fixation	Neutral	True
128.269	0.32	Control	0.9231	0.002	Yes	2.979	-0.002	1.0	GoodResponse	0	0.236	127.505	3	12	Target	Neutral	True
128.505	0.3	Control	0.9231	0.002	Yes	2.979	-0.002	1.0	GoodResponse	0	0.236	n/a	3	12	ButtonPress	Neutral	True
128.602	0.38	Control	0.9231	n/a	Yes	2.979	n/a	n/a	GoodResponse	0	n/a	n/a	3	12	Blank	Neutral	True
128.969	1.45	Control	0.9231	n/a	Yes	2.979	n/a	5.0	GoodResponse	0	0.033	128.002	3	12	Feedback	Neutral	True
130.418	2.979	Control	0.9231	n/a	Yes	2.979	n/a	n/a	GoodResponse	0	0.0	n/a	3	12	ISIslide	Neutral	True
133.417	0.25	Control	0.9286	0.001	Yes	2.783	0.017	n/a	GoodResponse	0	n/a	n/a	3	13	Cue	Neutral	True
133.667	4.0	Control	0.9286	0.0	Yes	2.783	0.0	n/a	GoodResponse	0	n/a	n/a	3	13	Fixation	Neutral	True
137.666	0.31	Control	0.9286	0.001	Yes	2.783	-0.001	1.0	GoodResponse	0	0.181	136.847	3	13	Target	Neutral	True
137.847	0.3	Control	0.9286	0.001	Yes	2.783	-0.001	1.0	GoodResponse	0	0.181	n/a	3	13	ButtonPress	Neutral	True
137.982	0.39	Control	0.9286	n/a	Yes	2.783	n/a	n/a	GoodResponse	0	n/a	n/a	3	13	Blank	Neutral	True
138.366	1.45	Control	0.9286	n/a	Yes	2.783	n/a	5.0	GoodResponse	0	0.006	137.372	3	13	Feedback	Neutral	True
139.815	2.783	Control	0.9286	n/a	Yes	2.783	n/a	n/a	GoodResponse	0	0.0	n/a	3	13	ISIslide	Neutral	True
142.614	0.25	Win2	0.9333	0.0	Yes	2.686	0.014	n/a	GoodResponse	1	n/a	n/a	4	14	Cue	Win	True
142.864	4.1	Win2	0.9333	0.0	Yes	2.686	0.0	n/a	GoodResponse	1	n/a	n/a	4	14	Fixation	Win	True
146.963	0.3	Win2	0.9333	0.001	Yes	2.686	-0.001	1.0	GoodResponse	1	0.199	146.162	4	14	Target	Win	True
147.162	0.3	Win2	0.9333	0.001	Yes	2.686	-0.001	1.0	GoodResponse	1	0.199	n/a	4	14	ButtonPress	Win	True
147.263	0.4	Win2	0.9333	n/a	Yes	2.686	n/a	n/a	GoodResponse	1	n/a	n/a	4	14	Blank	Win	True
147.662	1.45	Win2	0.9333	n/a	Yes	2.686	n/a	5.0	GoodResponse	1	0.022	146.684	4	14	Feedback	Win	True
149.112	2.686	Win2	0.9333	n/a	Yes	2.686	n/a	n/a	GoodResponse	1	0.0	n/a	4	14	ISIslide	Win	True
151.828	0.25	Control	0.9375	0.0	Yes	2.972	0.028	n/a	GoodResponse	0	n/a	n/a	4	15	Cue	Neutral	True
152.078	4.0	Control	0.9375	0.0	Yes	2.972	0.0	n/a	GoodResponse	0	n/a	n/a	4	15	Fixation	Neutral	True
156.076	0.29	Control	0.9375	0.002	Yes	2.972	-0.002	1.0	GoodResponse	0	0.227	155.303	4	15	Target	Neutral	True
156.303	0.3	Control	0.9375	0.002	Yes	2.972	-0.002	1.0	GoodResponse	0	0.227	n/a	4	15	ButtonPress	Neutral	True
156.376	0.41	Control	0.9375	n/a	Yes	2.972	n/a	n/a	GoodResponse	0	n/a	n/a	4	15	Blank	Neutral	True
156.776	1.45	Control	0.9375	n/a	Yes	2.972	n/a	5.0	GoodResponse	0	0.03	155.806	4	15	Feedback	Neutral	True
158.225	2.972	Control	0.9375	n/a	Yes	2.972	n/a	n/a	GoodResponse	0	0.0	n/a	4	15	ISIslide	Neutral	True
161.224	0.25	Win2	0.9412	0.0	Yes	2.876	0.024	n/a	GoodResponse	1	n/a	n/a	5	16	Cue	Win	True
161.474	4.0	Win2	0.9412	0.0	Yes	2.876	0.0	n/a	GoodResponse	1	n/a	n/a	5	16	Fixation	Win	True
165.473	0.28	Win2	0.9412	0.001	Yes	2.876	-0.001	1.0	GoodResponse	1	0.198	164.671	5	16	Target	Win	True
165.671	0.3	Win2	0.9412	0.001	Yes	2.876	-0.001	1.0	GoodResponse	1	0.198	n/a	5	16	ButtonPress	Win	True
165.756	0.42	Win2	0.9412	n/a	Yes	2.876	n/a	n/a	GoodResponse	1	n/a	n/a	5	16	Blank	Win	True
166.173	1.45	Win2	0.9412	n/a	Yes	2.876	n/a	5.0	GoodResponse	1	0.0	165.173	5	16	Feedback	Win	True
167.622	2.876	Win2	0.9412	n/a	Yes	2.876	n/a	n/a	GoodResponse	1	0.0	n/a	5	16	ISIslide	Win	True
170.521	0.25	Lose2	0.9444	0.0	Yes	2.729	0.021	n/a	GoodResponse	0	n/a	n/a	5	17	Cue	AvoidedLoss	True
170.771	3.95	Lose2	0.9444	0.0	Yes	2.729	0.0	n/a	GoodResponse	0	n/a	n/a	5	17	Fixation	AvoidedLoss	True
174.72	0.27	Lose2	0.9444	0.001	Yes	2.729	-0.001	1.0	GoodResponse	0	0.204	173.924	5	17	Target	AvoidedLoss	True
174.924	0.3	Lose2	0.9444	0.001	Yes	2.729	-0.001	1.0	GoodResponse	0	0.204	n/a	5	17	ButtonPress	AvoidedLoss	True
175.003	0.43	Lose2	0.9444	n/a	Yes	2.729	n/a	n/a	GoodResponse	0	n/a	n/a	5	17	Blank	AvoidedLoss	True
175.419	1.45	Lose2	0.9444	n/a	Yes	2.729	n/a	5.0	GoodResponse	0	0.022	174.441	5	17	Feedback	AvoidedLoss	True
176.869	2.729	Lose2	0.9444	n/a	Yes	2.729	n/a	n/a	GoodResponse	0	0.0	n/a	5	17	ISIslide	AvoidedLoss	True
179.618	0.25	Lose2	0.9473999999999999	0.0	Yes	2.732	0.018	n/a	GoodResponse	0	n/a	n/a	5	18	Cue	AvoidedLoss	True
179.868	4.05	Lose2	0.9473999999999999	0.0	Yes	2.732	0.0	n/a	GoodResponse	0	n/a	n/a	5	18	Fixation	AvoidedLoss	True
183.916	0.26	Lose2	0.9473999999999999	0.002	Yes	2.732	-0.002	1.0	GoodResponse	0	0.192	183.108	5	18	Target	AvoidedLoss	True
184.108	0.3	Lose2	0.9473999999999999	0.002	Yes	2.732	-0.002	1.0	GoodResponse	0	0.192	n/a	5	18	ButtonPress	AvoidedLoss	True
184.183	0.44	Lose2	0.9473999999999999	n/a	Yes	2.732	n/a	n/a	GoodResponse	0	n/a	n/a	5	18	Blank	AvoidedLoss	True
184.616	1.45	Lose2	0.9473999999999999	n/a	Yes	2.732	n/a	5.0	GoodResponse	0	0.044	183.66	5	18	Feedback	AvoidedLoss	True
186.066	2.732	Lose2	0.9473999999999999	n/a	Yes	2.732	n/a	n/a	GoodResponse	0	0.0	n/a	5	18	ISIslide	AvoidedLoss	True
188.815	0.25	Control	0.95	0.0	Yes	2.935	0.015	n/a	GoodResponse	0	n/a	n/a	5	19	Cue	Neutral	True
189.065	3.95	Control	0.95	0.0	Yes	2.935	0.0	n/a	GoodResponse	0	n/a	n/a	5	19	Fixation	Neutral	True
193.013	0.25	Control	0.95	0.002	Yes	2.935	-0.002	1.0	GoodResponse	0	0.212	192.225	5	19	Target	Neutral	True
193.225	0.3	Control	0.95	0.002	Yes	2.935	-0.002	1.0	GoodResponse	0	0.212	n/a	5	19	ButtonPress	Neutral	True
193.263	0.45	Control	0.95	n/a	Yes	2.935	n/a	n/a	GoodResponse	0	n/a	n/a	5	19	Blank	Neutral	True
193.713	1.45	Control	0.95	n/a	Yes	2.935	n/a	5.0	GoodResponse	0	0.021	192.734	5	19	Feedback	Neutral	True
195.163	2.935	Control	0.95	n/a	Yes	2.935	n/a	n/a	GoodResponse	0	0.0	n/a	5	19	ISIslide	Neutral	True
198.128	0.25	Control	0.9523999999999999	0.0	Yes	2.622	0.028	n/a	GoodResponse	0	n/a	n/a	5	20	Cue	Neutral	True
198.378	4.05	Control	0.9523999999999999	0.0	Yes	2.622	0.0	n/a	GoodResponse	0	n/a	n/a	5	20	Fixation	Neutral	True
202.427	0.24	Control	0.9523999999999999	0.001	Yes	2.622	-0.001	1.0	GoodResponse	0	0.211	201.638	5	20	Target	Neutral	True
202.638	0.3	Control	0.9523999999999999	0.001	Yes	2.622	-0.001	1.0	GoodResponse	0	0.211	n/a	5	20	ButtonPress	Neutral	True
202.677	0.46	Control	0.9523999999999999	n/a	Yes	2.622	n/a	n/a	GoodResponse	0	n/a	n/a	5	20	Blank	Neutral	True
203.126	1.45	Control	0.9523999999999999	n/a	Yes	2.622	n/a	5.0	GoodResponse	0	0.022	202.148	5	20	Feedback	Neutral	True
204.576	2.622	Control	0.9523999999999999	n/a	Yes	2.622	n/a	n/a	GoodResponse	0	0.0	n/a	5	20	ISIslide	Neutral	True
207.225	0.25	Control	0.9545	0.0	Yes	2.775	0.025	n/a	GoodResponse	0	n/a	n/a	5	21	Cue	Neutral	True
207.475	4.1	Control	0.9545	0.0	Yes	2.775	0.0	n/a	GoodResponse	0	n/a	n/a	5	21	Fixation	Neutral	True
211.573	0.23	Control	0.9545	0.002	Yes	2.775	-0.002	1.0	GoodResponse	0	0.218	210.791	5	21	Target	Neutral	True
211.791	0.3	Control	0.9545	0.002	Yes	2.775	-0.002	1.0	GoodResponse	0	0.218	n/a	5	21	ButtonPress	Neutral	True
211.807	0.47	Control	0.9545	n/a	Yes	2.775	n/a	n/a	GoodResponse	0	n/a	n/a	5	21	Blank	Neutral	True
212.273	1.45	Control	0.9545	n/a	Yes	2.775	n/a	5.0	GoodResponse	0	0.045	211.318	5	21	Feedback	Neutral	True
213.723	2.775	Control	0.9545	n/a	Yes	2.775	n/a	n/a	GoodResponse	0	0.0	n/a	5	21	ISIslide	Neutral	True
216.522	0.25	Control	0.9565	0.0	Yes	2.778	0.022	n/a	GoodResponse	0	n/a	n/a	5	22	Cue	Neutral	True
216.772	4.0	Control	0.9565	0.0	Yes	2.778	0.0	n/a	GoodResponse	0	n/a	n/a	5	22	Fixation	Neutral	True
220.77	0.22	Control	0.9565	0.002	Yes	2.778	-0.002	1.0	GoodResponse	0	0.203	219.973	5	22	Target	Neutral	True
220.973	0.3	Control	0.9565	0.002	Yes	2.778	-0.002	1.0	GoodResponse	0	0.203	n/a	5	22	ButtonPress	Neutral	True
221.003	0.48	Control	0.9565	n/a	Yes	2.778	n/a	n/a	GoodResponse	0	n/a	n/a	5	22	Blank	Neutral	True
221.47	1.45	Control	0.9565	n/a	Yes	2.778	n/a	5.0	GoodResponse	0	0.019	220.489	5	22	Feedback	Neutral	True
222.919	2.778	Control	0.9565	n/a	Yes	2.778	n/a	n/a	GoodResponse	0	0.0	n/a	5	22	ISIslide	Neutral	True
225.719	0.25	Control	0.9582999999999999	0.0	Yes	2.781	0.019	n/a	GoodResponse	0	n/a	n/a	5	23	Cue	Neutral	True
225.968	3.9	Control	0.9582999999999999	0.001	Yes	2.781	-0.001	n/a	GoodResponse	0	n/a	n/a	5	23	Fixation	Neutral	True
229.867	0.21	Control	0.9582999999999999	0.002	Yes	2.781	-0.002	1.0	GoodResponse	0	0.182	229.049	5	23	Target	Neutral	True
230.049	0.3	Control	0.9582999999999999	0.002	Yes	2.781	-0.002	1.0	GoodResponse	0	0.182	n/a	5	23	ButtonPress	Neutral	True
230.084	0.49	Control	0.9582999999999999	n/a	Yes	2.781	n/a	n/a	GoodResponse	0	n/a	n/a	5	23	Blank	Neutral	True
230.567	1.45	Control	0.9582999999999999	n/a	Yes	2.781	n/a	5.0	GoodResponse	0	0.044	229.611	5	23	Feedback	Neutral	True
232.016	2.781	Control	0.9582999999999999	n/a	Yes	2.781	n/a	n/a	GoodResponse	0	0.0	n/a	5	23	ISIslide	Neutral	True
234.815	0.25	Win2	0.92	0.0	No	3.135	0.015	n/a	NoResponse	0	n/a	n/a	5	24	Cue	MissedWin	True
235.065	3.95	Win2	0.92	0.0	No	3.135	0.0	n/a	NoResponse	0	n/a	n/a	5	24	Fixation	MissedWin	True
239.014	0.2	Win2	0.92	0.001	No	3.135	-0.001	1.0	NoResponse	0	0.213	238.227	5	24	Target	MissedWin	True
239.214	0.5	Win2	0.92	n/a	No	3.135	n/a	n/a	NoResponse	0	n/a	n/a	5	24	Blank	MissedWin	True
239.227	0.3	Win2	0.92	0.001	No	3.135	-0.001	1.0	NoResponse	0	0.213	n/a	5	24	ButtonPress	MissedWin	True
239.714	1.45	Win2	0.92	n/a	No	3.135	n/a	5.0	NoResponse	0	0.019	238.733	5	24	Feedback	MissedWin	True
241.163	3.135	Win2	0.92	n/a	No	3.135	n/a	n/a	NoResponse	0	0.0	n/a	5	24	ISIslide	MissedWin	True
244.329	0.25	Win2	0.8845999999999999	0.0	No	3.071	0.029	n/a	NoResponse	0	n/a	n/a	5	25	Cue	MissedWin	True
244.579	4.0	Win2	0.8845999999999999	0.0	No	3.071	0.0	n/a	NoResponse	0	n/a	n/a	5	25	Fixation	MissedWin	True
248.577	0.19	Win2	0.8845999999999999	0.002	No	3.071	-0.002	1.0	NoResponse	0	0.213	247.79	5	25	Target	MissedWin	True
248.777	0.51	Win2	0.8845999999999999	n/a	No	3.071	n/a	n/a	NoResponse	0	n/a	n/a	5	25	Blank	MissedWin	True
248.79	0.3	Win2	0.8845999999999999	0.002	No	3.071	-0.002	1.0	NoResponse	0	0.213	n/a	5	25	ButtonPress	MissedWin	True
249.277	1.45	Win2	0.8845999999999999	n/a	No	3.071	n/a	5.0	NoResponse	0	0.016	248.293	5	25	Feedback	MissedWin	True
250.726	3.071	Win2	0.8845999999999999	n/a	No	3.071	n/a	n/a	NoResponse	0	0.0	n/a	5	25	ISIslide	MissedWin	True
253.825	0.25	Win2	0.8519	0.0	No	2.925	0.025	n/a	NoResponse	0	n/a	n/a	5	26	Cue	MissedWin	True
254.075	3.95	Win2	0.8519	0.0	No	2.925	0.0	n/a	NoResponse	0	n/a	n/a	5	26	Fixation	MissedWin	True
258.024	0.18	Win2	0.8519	0.001	No	2.925	-0.001	1.0	NoResponse	0	0.193	257.217	5	26	Target	MissedWin	True
258.207	0.52	Win2	0.8519	n/a	No	2.925	n/a	n/a	NoResponse	0	n/a	n/a	5	26	Blank	MissedWin	True
258.217	0.3	Win2	0.8519	0.001	No	2.925	-0.001	1.0	NoResponse	0	0.193	n/a	5	26	ButtonPress	MissedWin	True
258.724	1.45	Win2	0.8519	n/a	No	2.925	n/a	5.0	NoResponse	0	0.033	257.757	5	26	Feedback	MissedWin	True
260.173	2.925	Win2	0.8519	n/a	No	2.925	n/a	n/a	NoResponse	0	0.0	n/a	5	26	ISIslide	MissedWin	True
263.122	0.25	Lose2	0.8214	0.0	No	2.828	0.022	n/a	NoResponse	-1	n/a	n/a	4	27	Cue	Loss	True
263.372	4.05	Lose2	0.8214	0.0	No	2.828	0.0	n/a	NoResponse	-1	n/a	n/a	4	27	Fixation	Loss	True
267.421	0.17	Lose2	0.8214	0.001	No	2.828	-0.001	1.0	NoResponse	-1	0.191	266.612	4	27	Target	Loss	True
267.604	0.53	Lose2	0.8214	n/a	No	2.828	n/a	n/a	NoResponse	-1	n/a	n/a	4	27	Blank	Loss	True
267.612	0.3	Lose2	0.8214	0.001	No	2.828	-0.001	1.0	NoResponse	-1	0.191	n/a	4	27	ButtonPress	Loss	True
268.12	1.45	Lose2	0.8214	n/a	No	2.828	n/a	5.0	NoResponse	-1	0.006	267.126	4	27	Feedback	Loss	True
269.57	2.828	Lose2	0.8214	n/a	No	2.828	n/a	n/a	NoResponse	-1	0.0	n/a	4	27	ISIslide	Loss	True
272.419	0.25	Control	0.7931	0.0	No	2.831	0.019	n/a	NoResponse	0	n/a	n/a	4	28	Cue	Neutral	True
272.669	4.05	Control	0.7931	0.0	No	2.831	0.0	n/a	NoResponse	0	n/a	n/a	4	28	Fixation	Neutral	True
276.717	0.16	Control	0.7931	0.002	No	2.831	-0.002	1.0	NoResponse	0	0.203	275.92	4	28	Target	Neutral	True
276.884	0.54	Control	0.7931	n/a	No	2.831	n/a	n/a	NoResponse	0	n/a	n/a	4	28	Blank	Neutral	True
276.92	0.3	Control	0.7931	0.002	No	2.831	-0.002	1.0	NoResponse	0	0.203	n/a	4	28	ButtonPress	Neutral	True
277.417	1.45	Control	0.7931	n/a	No	2.831	n/a	5.0	NoResponse	0	0.023	276.44	4	28	Feedback	Neutral	True
278.867	2.831	Control	0.7931	n/a	No	2.831	n/a	n/a	NoResponse	0	0.0	n/a	4	28	ISIslide	Neutral	True
281.716	0.25	Lose2	0.7667	0.0	No	2.834	0.016	n/a	NoResponse	-1	n/a	n/a	3	29	Cue	Loss	True
281.966	3.95	Lose2	0.7667	0.0	No	2.834	0.0	n/a	NoResponse	-1	n/a	n/a	3	29	Fixation	Loss	True
285.914	0.15	Lose2	0.7667	0.002	No	2.834	-0.002	1.0	NoResponse	-1	0.192	285.106	3	29	Target	Loss	True
286.064	0.55	Lose2	0.7667	n/a	No	2.834	n/a	n/a	NoResponse	-1	n/a	n/a	3	29	Blank	Loss	True
286.106	0.3	Lose2	0.7667	0.002	No	2.834	-0.002	1.0	NoResponse	-1	0.192	n/a	3	29	ButtonPress	Loss	True
286.614	1.45	Lose2	0.7667	n/a	No	2.834	n/a	5.0	NoResponse	-1	0.046	285.66	3	29	Feedback	Loss	True
288.063	2.834	Lose2	0.7667	n/a	No	2.834	n/a	n/a	NoResponse	-1	0.0	n/a	3	29	ISIslide	Loss	True
290.929	0.25	Win2	0.7419	0.0	No	2.771	0.029	n/a	PrematurePress	0	n/a	n/a	3	30	Cue	MissedWin	True
291.179	3.9	Win2	0.7419	0.0	No	2.771	0.0	n/a	PrematurePress	0	n/a	n/a	3	30	Fixation	MissedWin	True
295.078	0.15	Win2	0.7419	0.001	No	2.771	-0.001	1.0	PrematurePress	0	0.089	294.167	3	30	Target	MissedWin	True
295.167	0.3	Win2	0.7419	0.001	No	2.771	-0.001	1.0	PrematurePress	0	0.089	n/a	3	30	ButtonPress	MissedWin	True
295.228	0.55	Win2	0.7419	n/a	No	2.771	n/a	n/a	PrematurePress	0	n/a	n/a	3	30	Blank	MissedWin	True
295.777	1.45	Win2	0.7419	n/a	No	2.771	n/a	5.0	PrematurePress	0	0.007	294.784	3	30	Feedback	MissedWin	True
297.227	2.771	Win2	0.7419	n/a	No	2.771	n/a	n/a	PrematurePress	0	0.0	n/a	3	30	ISIslide	MissedWin	True
300.026	0.25	Lose2	0.7188	0.0	No	2.824	0.026	n/a	NoResponse	-1	n/a	n/a	2	31	Cue	Loss	True
300.276	4.05	Lose2	0.7188	0.0	No	2.824	0.0	n/a	NoResponse	-1	n/a	n/a	2	31	Fixation	Loss	True
304.324	0.15	Lose2	0.7188	0.002	No	2.824	-0.002	1.0	NoResponse	-1	0.178	303.502	2	31	Target	Loss	True
304.474	0.55	Lose2	0.7188	n/a	No	2.824	n/a	n/a	NoResponse	-1	n/a	n/a	2	31	Blank	Loss	True
304.502	0.3	Lose2	0.7188	0.002	No	2.824	-0.002	1.0	NoResponse	-1	0.178	n/a	2	31	ButtonPress	Loss	True
305.024	1.45	Lose2	0.7188	n/a	No	2.824	n/a	5.0	NoResponse	-1	0.025	304.049	2	31	Feedback	Loss	True
306.474	2.824	Lose2	0.7188	n/a	No	2.824	n/a	n/a	NoResponse	-1	0.0	n/a	2	31	ISIslide	Loss	True
309.323	0.25	Lose2	0.7273000000000001	0.0	Yes	2.627	0.023	n/a	GoodResponse	0	n/a	n/a	2	32	Cue	AvoidedLoss	True
309.573	4.15	Lose2	0.7273000000000001	0.0	Yes	2.627	0.0	n/a	GoodResponse	0	n/a	n/a	2	32	Fixation	AvoidedLoss	True
313.721	0.15	Lose2	0.7273000000000001	0.002	Yes	2.627	-0.002	1.0	GoodResponse	0	0.105	312.826	2	32	Target	AvoidedLoss	True
313.826	0.3	Lose2	0.7273000000000001	0.002	Yes	2.627	-0.002	1.0	GoodResponse	0	0.105	n/a	2	32	ButtonPress	AvoidedLoss	True
313.871	0.55	Lose2	0.7273000000000001	n/a	Yes	2.627	n/a	n/a	GoodResponse	0	n/a	n/a	2	32	Blank	AvoidedLoss	True
314.421	1.45	Lose2	0.7273000000000001	n/a	Yes	2.627	n/a	5.0	GoodResponse	0	0.043	313.464	2	32	Feedback	AvoidedLoss	True
315.87	2.627	Lose2	0.7273000000000001	n/a	Yes	2.627	n/a	n/a	GoodResponse	0	0.0	n/a	2	32	ISIslide	AvoidedLoss	True
318.519	0.25	Win2	0.7059000000000001	0.001	No	2.681	0.019	n/a	NoResponse	0	n/a	n/a	2	33	Cue	MissedWin	True
318.769	4.0	Win2	0.7059000000000001	0.0	No	2.681	0.0	n/a	NoResponse	0	n/a	n/a	2	33	Fixation	MissedWin	True
322.768	0.15	Win2	0.7059000000000001	0.001	No	2.681	-0.001	1.0	NoResponse	0	0.176	321.944	2	33	Target	MissedWin	True
322.918	0.55	Win2	0.7059000000000001	n/a	No	2.681	n/a	n/a	NoResponse	0	n/a	n/a	2	33	Blank	MissedWin	True
322.944	0.3	Win2	0.7059000000000001	0.001	No	2.681	-0.001	1.0	NoResponse	0	0.176	n/a	2	33	ButtonPress	MissedWin	True
323.468	1.45	Win2	0.7059000000000001	n/a	No	2.681	n/a	5.0	NoResponse	0	0.021	322.489	2	33	Feedback	MissedWin	True
324.917	2.681	Win2	0.7059000000000001	n/a	No	2.681	n/a	n/a	NoResponse	0	0.0	n/a	2	33	ISIslide	MissedWin	True
327.616	0.25	Lose2	0.6857	0.0	No	2.634	0.016	n/a	NoResponse	-1	n/a	n/a	1	34	Cue	Loss	False
327.866	4.05	Lose2	0.6857	0.0	No	2.634	0.0	1.0	NoResponse	-1	3.931	330.797	1	34	Fixation	Loss	False
331.797	0.3	Lose2	0.6857	0.0	No	2.634	0.0	1.0	NoResponse	-1	3.931	n/a	1	34	ButtonPress	Loss	False
331.915	0.15	Lose2	0.6857	0.001	No	2.634	-0.001	1.0	NoResponse	-1	0.275	331.19	1	34	Target	Loss	False
332.065	0.55	Lose2	0.6857	n/a	No	2.634	n/a	n/a	NoResponse	-1	n/a	n/a	1	34	Blank	Loss	False
332.19	0.3	Lose2	0.6857	0.001	No	2.634	-0.001	1.0	NoResponse	-1	0.275	n/a	1	34	ButtonPress	Loss	False
332.615	1.45	Lose2	0.6857	n/a	No	2.634	n/a	5.0	NoResponse	-1	0.044	331.659	1	34	Feedback	Loss	False
334.064	2.634	Lose2	0.6857	n/a	No	2.634	n/a	n/a	NoResponse	-1	0.0	n/a	1	34	ISIslide	Loss	False
336.73	0.25	Lose2	0.6667000000000001	0.0	No	2.67	0.03	n/a	NoResponse	-1	n/a	n/a	0	35	Cue	Loss	True
336.98	4.0	Lose2	0.6667000000000001	0.0	No	2.67	0.0	n/a	NoResponse	-1	n/a	n/a	0	35	Fixation	Loss	True
340.978	0.15	Lose2	0.6667000000000001	0.002	No	2.67	-0.002	1.0	NoResponse	-1	0.19	340.168	0	35	Target	Loss	True
341.128	0.55	Lose2	0.6667000000000001	n/a	No	2.67	n/a	n/a	NoResponse	-1	n/a	n/a	0	35	Blank	Loss	True
341.168	0.3	Lose2	0.6667000000000001	0.002	No	2.67	-0.002	1.0	NoResponse	-1	0.19	n/a	0	35	ButtonPress	Loss	True
341.678	1.45	Lose2	0.6667000000000001	n/a	No	2.67	n/a	5.0	NoResponse	-1	0.006	340.684	0	35	Feedback	Loss	True
343.128	2.67	Lose2	0.6667000000000001	n/a	No	2.67	n/a	n/a	NoResponse	-1	0.0	n/a	0	35	ISIslide	Loss	True
345.827	0.25	Control	0.6486	0.0	No	2.673	0.027	n/a	NoResponse	0	n/a	n/a	0	36	Cue	Neutral	True
346.077	4.0	Control	0.6486	0.0	No	2.673	0.0	n/a	NoResponse	0	n/a	n/a	0	36	Fixation	Neutral	True
350.075	0.15	Control	0.6486	0.002	No	2.673	-0.002	1.0	NoResponse	0	0.188	349.263	0	36	Target	Neutral	True
350.225	0.55	Control	0.6486	n/a	No	2.673	n/a	n/a	NoResponse	0	n/a	n/a	0	36	Blank	Neutral	True
350.263	0.3	Control	0.6486	0.002	No	2.673	-0.002	1.0	NoResponse	0	0.188	n/a	0	36	ButtonPress	Neutral	True
350.775	1.45	Control	0.6486	n/a	No	2.673	n/a	5.0	NoResponse	0	0.03	349.805	0	36	Feedback	Neutral	True
352.224	2.673	Control	0.6486	n/a	No	2.673	n/a	n/a	NoResponse	0	0.0	n/a	0	36	ISIslide	Neutral	True
354.923	0.25	Win2	0.6315999999999999	0.001	No	2.877	0.023	n/a	NoResponse	0	n/a	n/a	0	37	Cue	MissedWin	True
355.173	4.0	Win2	0.6315999999999999	0.0	No	2.877	0.0	n/a	NoResponse	0	n/a	n/a	0	37	Fixation	MissedWin	True
359.172	0.16	Win2	0.6315999999999999	0.001	No	2.877	-0.001	1.0	NoResponse	0	0.197	358.369	0	37	Target	MissedWin	True
359.339	0.54	Win2	0.6315999999999999	n/a	No	2.877	n/a	n/a	NoResponse	0	n/a	n/a	0	37	Blank	MissedWin	True
359.369	0.3	Win2	0.6315999999999999	0.001	No	2.877	-0.001	1.0	NoResponse	0	0.197	n/a	0	37	ButtonPress	MissedWin	True
359.872	1.45	Win2	0.6315999999999999	n/a	No	2.877	n/a	5.0	NoResponse	0	0.006	358.878	0	37	Feedback	MissedWin	True
361.321	2.877	Win2	0.6315999999999999	n/a	No	2.877	n/a	n/a	NoResponse	0	0.0	n/a	0	37	ISIslide	MissedWin	True
364.22	0.25	Lose2	0.6154	0.0	No	2.83	0.02	n/a	LatePress	-1	n/a	n/a	-1	38	Cue	Loss	True
364.47	3.95	Lose2	0.6154	0.0	No	2.83	0.0	n/a	LatePress	-1	n/a	n/a	-1	38	Fixation	Loss	True
368.419	0.17	Lose2	0.6154	0.001	No	2.83	-0.001	1.0	LatePress	-1	0.179	367.598	-1	38	Target	Loss	True
368.598	0.3	Lose2	0.6154	0.001	No	2.83	-0.001	1.0	LatePress	-1	0.179	n/a	-1	38	ButtonPress	Loss	True
368.602	0.53	Lose2	0.6154	n/a	No	2.83	n/a	n/a	LatePress	-1	n/a	n/a	-1	38	Blank	Loss	True
369.118	1.45	Lose2	0.6154	n/a	No	2.83	n/a	5.0	LatePress	-1	0.029	368.147	-1	38	Feedback	Loss	True
370.568	2.83	Lose2	0.6154	n/a	No	2.83	n/a	n/a	LatePress	-1	0.0	n/a	-1	38	ISIslide	Loss	True
373.417	0.25	Win2	0.625	0.0	Yes	2.983	0.017	n/a	GoodResponse	1	n/a	n/a	0	39	Cue	Win	True
373.667	4.1	Win2	0.625	0.0	Yes	2.983	0.0	n/a	GoodResponse	1	n/a	n/a	0	39	Fixation	Win	True
377.765	0.18	Win2	0.625	0.002	Yes	2.983	-0.002	1.0	GoodResponse	1	0.153	376.918	0	39	Target	Win	True
377.918	0.3	Win2	0.625	0.002	Yes	2.983	-0.002	1.0	GoodResponse	1	0.153	n/a	0	39	ButtonPress	Win	True
377.949	0.52	Win2	0.625	n/a	Yes	2.983	n/a	n/a	GoodResponse	1	n/a	n/a	0	39	Blank	Win	True
378.465	1.45	Win2	0.625	n/a	Yes	2.983	n/a	5.0	GoodResponse	1	0.048	377.513	0	39	Feedback	Win	True
379.915	2.983	Win2	0.625	n/a	Yes	2.983	n/a	n/a	GoodResponse	1	0.0	n/a	0	39	ISIslide	Win	True
382.914	0.25	Win2	0.6098	0.0	No	2.736	0.014	n/a	NoResponse	0	n/a	n/a	0	40	Cue	MissedWin	True
383.164	3.95	Win2	0.6098	0.0	No	2.736	0.0	n/a	NoResponse	0	n/a	n/a	0	40	Fixation	MissedWin	True
387.112	0.19	Win2	0.6098	0.002	No	2.736	-0.002	1.0	NoResponse	0	0.208	386.32	0	40	Target	MissedWin	True
387.312	0.51	Win2	0.6098	n/a	No	2.736	n/a	n/a	NoResponse	0	n/a	n/a	0	40	Blank	MissedWin	True
387.32	0.3	Win2	0.6098	0.002	No	2.736	-0.002	1.0	NoResponse	0	0.208	n/a	0	40	ButtonPress	MissedWin	True
387.812	1.45	Win2	0.6098	n/a	No	2.736	n/a	5.0	NoResponse	0	0.018	386.83	0	40	Feedback	MissedWin	True
389.261	2.736	Win2	0.6098	n/a	No	2.736	n/a	n/a	NoResponse	0	0.0	n/a	0	40	ISIslide	MissedWin	True
392.027	0.25	Win2	0.5952000000000001	0.0	No	2.773	0.027	n/a	PrematurePress	0	n/a	n/a	0	41	Cue	MissedWin	True
392.277	3.9	Win2	0.5952000000000001	0.0	No	2.773	0.0	n/a	PrematurePress	0	n/a	n/a	0	41	Fixation	MissedWin	True
396.176	0.2	Win2	0.5952000000000001	0.001	No	2.773	-0.001	1.0	PrematurePress	0	0.075	395.251	0	41	Target	MissedWin	True
396.251	0.3	Win2	0.5952000000000001	0.001	No	2.773	-0.001	1.0	PrematurePress	0	0.075	n/a	0	41	ButtonPress	MissedWin	True
396.376	0.5	Win2	0.5952000000000001	n/a	No	2.773	n/a	n/a	PrematurePress	0	n/a	n/a	0	41	Blank	MissedWin	True
396.875	1.45	Win2	0.5952000000000001	n/a	No	2.773	n/a	5.0	PrematurePress	0	0.028	395.903	0	41	Feedback	MissedWin	True
398.325	2.773	Win2	0.5952000000000001	n/a	No	2.773	n/a	n/a	PrematurePress	0	0.0	n/a	0	41	ISIslide	MissedWin	True
401.124	0.25	Control	0.5814	0.0	No	2.926	0.024	n/a	NoResponse	0	n/a	n/a	0	42	Cue	Neutral	True
401.374	3.85	Control	0.5814	0.0	No	2.926	0.0	n/a	NoResponse	0	n/a	n/a	0	42	Fixation	Neutral	True
405.223	0.21	Control	0.5814	0.001	No	2.926	-0.001	1.0	NoResponse	0	0.379	404.602	0	42	Target	Neutral	True
405.439	0.49	Control	0.5814	n/a	No	2.926	n/a	n/a	NoResponse	0	n/a	n/a	0	42	Blank	Neutral	True
405.602	0.3	Control	0.5814	0.001	No	2.926	-0.001	1.0	NoResponse	0	0.379	n/a	0	42	ButtonPress	Neutral	True
405.922	1.45	Control	0.5814	n/a	No	2.926	n/a	5.0	NoResponse	0	0.006	404.928	0	42	Feedback	Neutral	True
407.372	2.926	Control	0.5814	n/a	No	2.926	n/a	n/a	NoResponse	0	0.0	n/a	0	42	ISIslide	Neutral	True
410.321	0.25	Win2	0.5682	0.0	No	3.179	0.021	n/a	NoResponse	0	n/a	n/a	0	43	Cue	MissedWin	True
410.571	4.0	Win2	0.5682	0.0	No	3.179	0.0	1.0	NoResponse	0	3.839	413.41	0	43	Fixation	MissedWin	True
414.41	0.3	Win2	0.5682	0.0	No	3.179	0.0	1.0	NoResponse	0	3.839	n/a	0	43	ButtonPress	MissedWin	True
414.569	0.22	Win2	0.5682	0.002	No	3.179	-0.002	n/a	NoResponse	0	n/a	n/a	0	43	Target	MissedWin	True
414.803	0.48	Win2	0.5682	n/a	No	3.179	n/a	n/a	NoResponse	0	n/a	n/a	0	43	Blank	MissedWin	True
415.269	1.45	Win2	0.5682	n/a	No	3.179	n/a	5.0	NoResponse	0	0.024	414.293	0	43	Feedback	MissedWin	True
416.719	3.179	Win2	0.5682	n/a	No	3.179	n/a	n/a	NoResponse	0	0.0	n/a	0	43	ISIslide	MissedWin	True
419.917	0.25	Win2	0.5778	0.0	Yes	2.983	0.017	n/a	GoodResponse	1	n/a	n/a	1	44	Cue	Win	True
420.167	4.0	Win2	0.5778	0.0	Yes	2.983	0.0	n/a	GoodResponse	1	n/a	n/a	1	44	Fixation	Win	True
424.166	0.23	Win2	0.5778	0.001	Yes	2.983	-0.001	1.0	GoodResponse	1	0.201	423.367	1	44	Target	Win	True
424.367	0.3	Win2	0.5778	0.001	Yes	2.983	-0.001	1.0	GoodResponse	1	0.201	n/a	1	44	ButtonPress	Win	True
424.399	0.47	Win2	0.5778	n/a	Yes	2.983	n/a	n/a	GoodResponse	1	n/a	n/a	1	44	Blank	Win	True
424.866	1.45	Win2	0.5778	n/a	Yes	2.983	n/a	5.0	GoodResponse	1	0.036	423.902	1	44	Feedback	Win	True
426.315	2.983	Win2	0.5778	n/a	Yes	2.983	n/a	n/a	GoodResponse	1	0.0	n/a	1	44	ISIslide	Win	True
429.314	0.25	Control	0.5870000000000001	0.0	Yes	2.886	0.014	n/a	GoodResponse	0	n/a	n/a	1	45	Cue	Neutral	True
429.564	4.1	Control	0.5870000000000001	0.0	Yes	2.886	0.0	n/a	GoodResponse	0	n/a	n/a	1	45	Fixation	Neutral	True
433.663	0.24	Control	0.5870000000000001	0.001	Yes	2.886	-0.001	1.0	GoodResponse	0	0.168	432.831	1	45	Target	Neutral	True
433.831	0.3	Control	0.5870000000000001	0.001	Yes	2.886	-0.001	1.0	GoodResponse	0	0.168	n/a	1	45	ButtonPress	Neutral	True
433.913	0.46	Control	0.5870000000000001	n/a	Yes	2.886	n/a	n/a	GoodResponse	0	n/a	n/a	1	45	Blank	Neutral	True
434.362	1.45	Control	0.5870000000000001	n/a	Yes	2.886	n/a	5.0	GoodResponse	0	0.007	433.369	1	45	Feedback	Neutral	True
435.812	2.886	Control	0.5870000000000001	n/a	Yes	2.886	n/a	n/a	GoodResponse	0	0.0	n/a	1	45	ISIslide	Neutral	True
438.728	0.25	Lose2	0.5957	0.0	Yes	3.372	0.028	n/a	GoodResponse	0	n/a	n/a	1	46	Cue	AvoidedLoss	True
438.977	4.0	Lose2	0.5957	0.001	Yes	3.372	-0.001	n/a	GoodResponse	0	n/a	n/a	1	46	Fixation	AvoidedLoss	True
442.976	0.25	Lose2	0.5957	0.002	Yes	3.372	-0.002	1.0	GoodResponse	0	0.186	442.162	1	46	Target	AvoidedLoss	True
443.162	0.3	Lose2	0.5957	0.002	Yes	3.372	-0.002	1.0	GoodResponse	0	0.186	n/a	1	46	ButtonPress	AvoidedLoss	True
443.226	0.45	Lose2	0.5957	n/a	Yes	3.372	n/a	n/a	GoodResponse	0	n/a	n/a	1	46	Blank	AvoidedLoss	True
443.676	1.45	Lose2	0.5957	n/a	Yes	3.372	n/a	5.0	GoodResponse	0	0.007	442.683	1	46	Feedback	AvoidedLoss	True
445.125	3.372	Lose2	0.5957	n/a	Yes	3.372	n/a	n/a	GoodResponse	0	0.0	n/a	1	46	ISIslide	AvoidedLoss	True
448.524	0.25	Lose2	0.6042000000000001	0.0	Yes	2.676	0.024	n/a	GoodResponse	0	n/a	n/a	1	47	Cue	AvoidedLoss	True
448.774	4.0	Lose2	0.6042000000000001	0.0	Yes	2.676	0.0	n/a	GoodResponse	0	n/a	n/a	1	47	Fixation	AvoidedLoss	True
452.773	0.26	Lose2	0.6042000000000001	0.001	Yes	2.676	-0.001	1.0	GoodResponse	0	0.177	451.95	1	47	Target	AvoidedLoss	True
452.95	0.3	Lose2	0.6042000000000001	0.001	Yes	2.676	-0.001	1.0	GoodResponse	0	0.177	n/a	1	47	ButtonPress	AvoidedLoss	True
453.039	0.44	Lose2	0.6042000000000001	n/a	Yes	2.676	n/a	n/a	GoodResponse	0	n/a	n/a	1	47	Blank	AvoidedLoss	True
453.472	1.45	Lose2	0.6042000000000001	n/a	Yes	2.676	n/a	5.0	GoodResponse	0	0.015	452.487	1	47	Feedback	AvoidedLoss	True
454.922	2.676	Lose2	0.6042000000000001	n/a	Yes	2.676	n/a	n/a	GoodResponse	0	0.0	n/a	1	47	ISIslide	AvoidedLoss	True
457.621	0.25	Lose2	0.6122	0.0	Yes	3.029	0.021	n/a	GoodResponse	0	n/a	n/a	1	48	Cue	AvoidedLoss	True
457.871	3.95	Lose2	0.6122	0.0	Yes	3.029	0.0	n/a	GoodResponse	0	n/a	n/a	1	48	Fixation	AvoidedLoss	True
461.819	0.27	Lose2	0.6122	0.002	Yes	3.029	-0.002	1.0	GoodResponse	0	0.209	461.028	1	48	Target	AvoidedLoss	True
462.028	0.3	Lose2	0.6122	0.002	Yes	3.029	-0.002	1.0	GoodResponse	0	0.209	n/a	1	48	ButtonPress	AvoidedLoss	True
462.103	0.43	Lose2	0.6122	n/a	Yes	3.029	n/a	n/a	GoodResponse	0	n/a	n/a	1	48	Blank	AvoidedLoss	True
462.519	1.45	Lose2	0.6122	n/a	Yes	3.029	n/a	5.0	GoodResponse	0	0.041	461.56	1	48	Feedback	AvoidedLoss	True
463.969	3.029	Lose2	0.6122	n/a	Yes	3.029	n/a	n/a	GoodResponse	0	0.0	n/a	1	48	ISIslide	AvoidedLoss	True
467.018	0.25	Control	0.62	0.0	Yes	2.882	0.018	n/a	GoodResponse	0	n/a	n/a	1	49	Cue	Neutral	True
467.268	4.0	Control	0.62	0.0	Yes	2.882	0.0	n/a	GoodResponse	0	n/a	n/a	1	49	Fixation	Neutral	True
471.266	0.28	Control	0.62	0.002	Yes	2.882	-0.002	1.0	GoodResponse	0	0.202	470.468	1	49	Target	Neutral	True
471.468	0.3	Control	0.62	0.002	Yes	2.882	-0.002	1.0	GoodResponse	0	0.202	n/a	1	49	ButtonPress	Neutral	True
471.549	0.42	Control	0.62	n/a	Yes	2.882	n/a	n/a	GoodResponse	0	n/a	n/a	1	49	Blank	Neutral	True
471.966	1.45	Control	0.62	n/a	Yes	2.882	n/a	5.0	GoodResponse	0	0.009	470.975	1	49	Feedback	Neutral	True
473.415	2.882	Control	0.62	n/a	Yes	2.882	n/a	n/a	GoodResponse	0	0.0	n/a	1	49	ISIslide	Neutral	True
476.314	0.25	Control	0.6275	0.001	Yes	2.786	0.014	n/a	GoodResponse	0	n/a	n/a	1	50	Cue	Neutral	True
476.564	4.0	Control	0.6275	0.001	Yes	2.786	0.0	n/a	GoodResponse	0	n/a	n/a	1	50	Fixation	Neutral	True
480.563	0.29	Control	0.6275	0.001	Yes	2.786	-0.001	1.0	GoodResponse	0	0.193	479.756	1	50	Target	Neutral	True
480.756	0.3	Control	0.6275	0.001	Yes	2.786	-0.001	1.0	GoodResponse	0	0.193	n/a	1	50	ButtonPress	Neutral	True
480.863	0.41	Control	0.6275	n/a	Yes	2.786	n/a	n/a	GoodResponse	0	n/a	n/a	1	50	Blank	Neutral	True
481.263	1.45	Control	0.6275	n/a	Yes	2.786	n/a	5.0	GoodResponse	0	0.029	480.292	1	50	Feedback	Neutral	True
482.712	2.786	Control	0.6275	n/a	Yes	2.786	n/a	n/a	GoodResponse	0	0.0	n/a	1	50	ISIslide	Neutral	True
485.528	0.25	Control	0.6346	0.0	Yes	2.722	0.028	n/a	GoodResponse	0	n/a	n/a	1	51	Cue	Neutral	True
485.778	3.95	Control	0.6346	0.0	Yes	2.722	0.0	n/a	GoodResponse	0	n/a	n/a	1	51	Fixation	Neutral	True
489.726	0.3	Control	0.6346	0.002	Yes	2.722	-0.002	1.0	GoodResponse	0	0.191	488.917	1	51	Target	Neutral	True
489.917	0.3	Control	0.6346	0.002	Yes	2.722	-0.002	1.0	GoodResponse	0	0.191	n/a	1	51	ButtonPress	Neutral	True
490.026	0.4	Control	0.6346	n/a	Yes	2.722	n/a	n/a	GoodResponse	0	n/a	n/a	1	51	Blank	Neutral	True
490.426	1.45	Control	0.6346	n/a	Yes	2.722	n/a	5.0	GoodResponse	0	0.037	489.463	1	51	Feedback	Neutral	True
491.876	2.722	Control	0.6346	n/a	Yes	2.722	n/a	n/a	GoodResponse	0	0.0	n/a	1	51	ISIslide	Neutral	True
494.625	0.25	Control	0.6415000000000001	0.0	Yes	2.625	0.025	n/a	GoodResponse	0	n/a	n/a	1	52	Cue	Neutral	True
494.875	4.05	Control	0.6415000000000001	0.0	Yes	2.625	0.0	n/a	GoodResponse	0	n/a	n/a	1	52	Fixation	Neutral	True
498.923	0.31	Control	0.6415000000000001	0.002	Yes	2.625	-0.002	1.0	GoodResponse	0	0.182	498.105	1	52	Target	Neutral	True
499.105	0.3	Control	0.6415000000000001	0.002	Yes	2.625	-0.002	1.0	GoodResponse	0	0.182	n/a	1	52	ButtonPress	Neutral	True
499.24	0.39	Control	0.6415000000000001	n/a	Yes	2.625	n/a	n/a	GoodResponse	0	n/a	n/a	1	52	Blank	Neutral	True
499.623	1.45	Control	0.6415000000000001	n/a	Yes	2.625	n/a	5.0	GoodResponse	0	0.01	498.633	1	52	Feedback	Neutral	True
501.072	2.625	Control	0.6415000000000001	n/a	Yes	2.625	n/a	n/a	GoodResponse	0	0.0	n/a	1	52	ISIslide	Neutral	True
503.722	0.25	Win2	0.6481	0.0	Yes	2.928	0.022	n/a	GoodResponse	1	n/a	n/a	2	53	Cue	Win	True
503.971	4.05	Win2	0.6481	0.001	Yes	2.928	-0.001	n/a	GoodResponse	1	n/a	n/a	2	53	Fixation	Win	True
508.02	0.32	Win2	0.6481	0.002	Yes	2.928	-0.002	2.0	GoodResponse	1	0.191	507.211	2	53	Target	Win	True
508.211	0.3	Win2	0.6481	0.002	Yes	2.928	-0.002	2.0	GoodResponse	1	0.191	n/a	2	53	ButtonPress	Win	True
508.353	0.38	Win2	0.6481	n/a	Yes	2.928	n/a	n/a	GoodResponse	1	n/a	n/a	2	53	Blank	Win	True
508.72	1.45	Win2	0.6481	n/a	Yes	2.928	n/a	5.0	GoodResponse	1	0.035	507.755	2	53	Feedback	Win	True
510.169	2.928	Win2	0.6481	n/a	Yes	2.928	n/a	n/a	GoodResponse	1	0.0	n/a	2	53	ISIslide	Win	True
513.118	0.25	Win2	0.6545000000000001	0.0	Yes	2.732	0.018	n/a	GoodResponse	1	n/a	n/a	3	54	Cue	Win	True
513.368	3.95	Win2	0.6545000000000001	0.0	Yes	2.732	0.0	n/a	GoodResponse	1	n/a	n/a	3	54	Fixation	Win	True
517.317	0.33	Win2	0.6545000000000001	0.001	Yes	2.732	-0.001	2.0	GoodResponse	1	0.183	516.5	3	54	Target	Win	True
517.5	0.3	Win2	0.6545000000000001	0.001	Yes	2.732	-0.001	2.0	GoodResponse	1	0.183	n/a	3	54	ButtonPress	Win	True
517.65	0.37	Win2	0.6545000000000001	n/a	Yes	2.732	n/a	n/a	GoodResponse	1	n/a	n/a	3	54	Blank	Win	True
518.017	1.45	Win2	0.6545000000000001	n/a	Yes	2.732	n/a	5.0	GoodResponse	1	0.007	517.024	3	54	Feedback	Win	True
519.466	2.732	Win2	0.6545000000000001	n/a	Yes	2.732	n/a	n/a	GoodResponse	1	0.0	n/a	3	54	ISIslide	Win	True
522.215	0.25	Control	0.6607	0.0	Yes	3.035	0.015	n/a	GoodResponse	0	n/a	n/a	3	55	Cue	Neutral	True
522.465	3.95	Control	0.6607	0.0	Yes	3.035	0.0	n/a	GoodResponse	0	n/a	n/a	3	55	Fixation	Neutral	True
526.414	0.34	Control	0.6607	0.001	Yes	3.035	-0.001	2.0	GoodResponse	0	0.203	525.617	3	55	Target	Neutral	True
526.617	0.3	Control	0.6607	0.001	Yes	3.035	-0.001	2.0	GoodResponse	0	0.203	n/a	3	55	ButtonPress	Neutral	True
526.763	0.36	Control	0.6607	n/a	Yes	3.035	n/a	n/a	GoodResponse	0	n/a	n/a	3	55	Blank	Neutral	True
527.113	1.45	Control	0.6607	n/a	Yes	3.035	n/a	5.0	GoodResponse	0	0.033	526.146	3	55	Feedback	Neutral	True
528.563	3.035	Control	0.6607	n/a	Yes	3.035	n/a	n/a	GoodResponse	0	0.0	n/a	3	55	ISIslide	Neutral	True
531.628	0.25	Control	0.6667000000000001	0.001	Yes	2.822	0.028	n/a	GoodResponse	0	n/a	n/a	3	56	Cue	Neutral	True
531.878	3.95	Control	0.6667000000000001	0.0	Yes	2.822	0.0	n/a	GoodResponse	0	n/a	n/a	3	56	Fixation	Neutral	True
535.827	0.34	Control	0.6667000000000001	0.001	Yes	2.822	-0.001	2.0	GoodResponse	0	0.208	535.035	3	56	Target	Neutral	True
536.035	0.3	Control	0.6667000000000001	0.001	Yes	2.822	-0.001	2.0	GoodResponse	0	0.208	n/a	3	56	ButtonPress	Neutral	True
536.177	0.36	Control	0.6667000000000001	n/a	Yes	2.822	n/a	n/a	GoodResponse	0	n/a	n/a	3	56	Blank	Neutral	True
536.527	1.45	Control	0.6667000000000001	n/a	Yes	2.822	n/a	5.0	GoodResponse	0	0.033	535.56	3	56	Feedback	Neutral	True
537.976	2.822	Control	0.6667000000000001	n/a	Yes	2.822	n/a	n/a	GoodResponse	0	0.0	n/a	3	56	ISIslide	Neutral	True
540.825	0.25	Control	0.6724	0.0	Yes	3.475	0.025	n/a	GoodResponse	0	n/a	n/a	3	57	Cue	Neutral	True
541.075	4.0	Control	0.6724	0.0	Yes	3.475	0.0	n/a	GoodResponse	0	n/a	n/a	3	57	Fixation	Neutral	True
545.074	0.33	Control	0.6724	0.001	Yes	3.475	-0.001	2.0	GoodResponse	0	0.189	544.263	3	57	Target	Neutral	True
545.263	0.3	Control	0.6724	0.001	Yes	3.475	-0.001	2.0	GoodResponse	0	0.189	n/a	3	57	ButtonPress	Neutral	True
545.407	0.37	Control	0.6724	n/a	Yes	3.475	n/a	n/a	GoodResponse	0	n/a	n/a	3	57	Blank	Neutral	True
545.774	1.45	Control	0.6724	n/a	Yes	3.475	n/a	5.0	GoodResponse	0	0.006	544.78	3	57	Feedback	Neutral	True
547.223	3.475	Control	0.6724	n/a	Yes	3.475	n/a	n/a	GoodResponse	0	0.0	n/a	3	57	ISIslide	Neutral	True
550.722	0.25	Win2	0.6779999999999999	0.0	Yes	2.728	0.022	n/a	GoodResponse	1	n/a	n/a	4	58	Cue	Win	True
550.972	4.05	Win2	0.6779999999999999	0.0	Yes	2.728	0.0	n/a	GoodResponse	1	n/a	n/a	4	58	Fixation	Win	True
555.02	0.32	Win2	0.6779999999999999	0.002	Yes	2.728	-0.002	2.0	GoodResponse	1	0.186	554.206	4	58	Target	Win	True
555.206	0.3	Win2	0.6779999999999999	0.002	Yes	2.728	-0.002	2.0	GoodResponse	1	0.186	n/a	4	58	ButtonPress	Win	True
555.354	0.38	Win2	0.6779999999999999	n/a	Yes	2.728	n/a	n/a	GoodResponse	1	n/a	n/a	4	58	Blank	Win	True
555.72	1.45	Win2	0.6779999999999999	n/a	Yes	2.728	n/a	5.0	GoodResponse	1	0.01	554.73	4	58	Feedback	Win	True
557.17	2.728	Win2	0.6779999999999999	n/a	Yes	2.728	n/a	n/a	GoodResponse	1	0.0	n/a	4	58	ISIslide	Win	True
559.919	0.25	Lose2	0.6833	0.0	Yes	2.681	0.019	n/a	GoodResponse	0	n/a	n/a	4	59	Cue	AvoidedLoss	True
560.169	4.0	Lose2	0.6833	0.0	Yes	2.681	0.0	n/a	GoodResponse	0	n/a	n/a	4	59	Fixation	AvoidedLoss	True
564.167	0.31	Lose2	0.6833	0.002	Yes	2.681	-0.002	2.0	GoodResponse	0	0.199	563.366	4	59	Target	AvoidedLoss	True
564.366	0.3	Lose2	0.6833	0.002	Yes	2.681	-0.002	2.0	GoodResponse	0	0.199	n/a	4	59	ButtonPress	AvoidedLoss	True
564.484	0.39	Lose2	0.6833	n/a	Yes	2.681	n/a	n/a	GoodResponse	0	n/a	n/a	4	59	Blank	AvoidedLoss	True
564.867	1.45	Lose2	0.6833	n/a	Yes	2.681	n/a	5.0	GoodResponse	0	0.034	563.901	4	59	Feedback	AvoidedLoss	True
566.316	2.681	Lose2	0.6833	n/a	Yes	2.681	n/a	n/a	GoodResponse	0	0.0	n/a	4	59	ISIslide	AvoidedLoss	True
569.015	0.25	Control	0.6884999999999999	0.001	Yes	2.685	0.015	n/a	GoodResponse	0	n/a	n/a	4	60	Cue	Neutral	True
569.265	4.0	Control	0.6884999999999999	0.0	Yes	2.685	0.0	n/a	GoodResponse	0	n/a	n/a	4	60	Fixation	Neutral	True
573.264	0.3	Control	0.6884999999999999	0.001	Yes	2.685	-0.001	2.0	GoodResponse	0	0.219	572.483	4	60	Target	Neutral	True
573.483	0.3	Control	0.6884999999999999	0.001	Yes	2.685	-0.001	2.0	GoodResponse	0	0.219	n/a	4	60	ButtonPress	Neutral	True
573.564	0.4	Control	0.6884999999999999	n/a	Yes	2.685	n/a	n/a	GoodResponse	0	n/a	n/a	4	60	Blank	Neutral	True
573.964	1.45	Control	0.6884999999999999	n/a	Yes	2.685	n/a	5.0	GoodResponse	0	0.011	572.975	4	60	Feedback	Neutral	True
575.413	2.685	Control	0.6884999999999999	n/a	Yes	2.685	n/a	n/a	GoodResponse	0	0.0	n/a	4	60	ISIslide	Neutral	True
578.129	0.25	Lose2	0.6934999999999999	0.0	Yes	2.971	0.029	n/a	GoodResponse	0	n/a	n/a	4	61	Cue	AvoidedLoss	True
578.379	4.0	Lose2	0.6934999999999999	0.0	Yes	2.971	0.0	n/a	GoodResponse	0	n/a	n/a	4	61	Fixation	AvoidedLoss	True
582.377	0.29	Lose2	0.6934999999999999	0.002	Yes	2.971	-0.002	2.0	GoodResponse	0	0.178	581.555	4	61	Target	AvoidedLoss	True
582.555	0.3	Lose2	0.6934999999999999	0.002	Yes	2.971	-0.002	2.0	GoodResponse	0	0.178	n/a	4	61	ButtonPress	AvoidedLoss	True
582.677	0.41	Lose2	0.6934999999999999	n/a	Yes	2.971	n/a	n/a	GoodResponse	0	n/a	n/a	4	61	Blank	AvoidedLoss	True
583.077	1.45	Lose2	0.6934999999999999	n/a	Yes	2.971	n/a	5.0	GoodResponse	0	0.02	582.097	4	61	Feedback	AvoidedLoss	True
584.527	2.971	Lose2	0.6934999999999999	n/a	Yes	2.971	n/a	n/a	GoodResponse	0	0.0	n/a	4	61	ISIslide	AvoidedLoss	True
587.526	0.25	Lose2	0.6984	0.0	Yes	2.874	0.026	n/a	GoodResponse	0	n/a	n/a	4	62	Cue	AvoidedLoss	True
587.776	3.9	Lose2	0.6984	0.0	Yes	2.874	0.0	n/a	GoodResponse	0	n/a	n/a	4	62	Fixation	AvoidedLoss	True
591.674	0.28	Lose2	0.6984	0.002	Yes	2.874	-0.002	2.0	GoodResponse	0	0.214	590.888	4	62	Target	AvoidedLoss	True
591.888	0.3	Lose2	0.6984	0.002	Yes	2.874	-0.002	2.0	GoodResponse	0	0.214	n/a	4	62	ButtonPress	AvoidedLoss	True
591.957	0.42	Lose2	0.6984	n/a	Yes	2.874	n/a	n/a	GoodResponse	0	n/a	n/a	4	62	Blank	AvoidedLoss	True
592.374	1.45	Lose2	0.6984	n/a	Yes	2.874	n/a	5.0	GoodResponse	0	0.04	591.414	4	62	Feedback	AvoidedLoss	True
593.823	2.874	Lose2	0.6984	n/a	Yes	2.874	n/a	n/a	GoodResponse	0	0.0	n/a	4	62	ISIslide	AvoidedLoss	True
596.722	0.25	Lose2	0.7031000000000001	0.0	Yes	2.628	0.022	n/a	GoodResponse	0	n/a	n/a	4	63	Cue	AvoidedLoss	True
596.972	4.05	Lose2	0.7031000000000001	0.0	Yes	2.628	0.0	n/a	GoodResponse	0	n/a	n/a	4	63	Fixation	AvoidedLoss	True
601.021	0.27	Lose2	0.7031000000000001	0.001	Yes	2.628	-0.001	2.0	GoodResponse	0	0.208	600.229	4	63	Target	AvoidedLoss	True
601.229	0.3	Lose2	0.7031000000000001	0.001	Yes	2.628	-0.001	2.0	GoodResponse	0	0.208	n/a	4	63	ButtonPress	AvoidedLoss	True
601.288	0.43	Lose2	0.7031000000000001	n/a	Yes	2.628	n/a	n/a	GoodResponse	0	n/a	n/a	4	63	Blank	AvoidedLoss	True
601.721	1.45	Lose2	0.7031000000000001	n/a	Yes	2.628	n/a	5.0	GoodResponse	0	0.009	600.73	4	63	Feedback	AvoidedLoss	True
603.17	2.628	Lose2	0.7031000000000001	n/a	Yes	2.628	n/a	n/a	GoodResponse	0	0.0	n/a	4	63	ISIslide	AvoidedLoss	True
605.819	0.25	Win2	0.6923	0.0	No	3.131	0.019	n/a	NoResponse	0	n/a	n/a	4	64	Cue	MissedWin	True
606.069	4.15	Win2	0.6923	0.0	No	3.131	0.0	2.0	NoResponse	0	3.949	609.018	4	64	Fixation	MissedWin	True
610.018	0.3	Win2	0.6923	0.0	No	3.131	0.0	2.0	NoResponse	0	3.949	n/a	4	64	ButtonPress	MissedWin	True
610.218	0.26	Win2	0.6923	0.001	No	3.131	-0.001	n/a	NoResponse	0	n/a	n/a	4	64	Target	MissedWin	True
610.484	0.44	Win2	0.6923	n/a	No	3.131	n/a	n/a	NoResponse	0	n/a	n/a	4	64	Blank	MissedWin	True
610.917	1.45	Win2	0.6923	n/a	No	3.131	n/a	5.0	NoResponse	0	0.033	609.95	4	64	Feedback	MissedWin	True
612.367	3.131	Win2	0.6923	n/a	No	3.131	n/a	n/a	NoResponse	0	0.0	n/a	4	64	ISIslide	MissedWin	True
615.516	0.25	Control	0.6970000000000001	0.0	Yes	2.784	0.016	n/a	GoodResponse	0	n/a	n/a	4	65	Cue	Neutral	True
615.766	4.0	Control	0.6970000000000001	0.0	Yes	2.784	0.0	n/a	GoodResponse	0	n/a	n/a	4	65	Fixation	Neutral	True
619.764	0.25	Control	0.6970000000000001	0.002	Yes	2.784	-0.002	2.0	GoodResponse	0	0.248	619.012	4	65	Target	Neutral	True
620.012	0.3	Control	0.6970000000000001	0.002	Yes	2.784	-0.002	2.0	GoodResponse	0	0.248	n/a	4	65	ButtonPress	Neutral	True
620.014	0.45	Control	0.6970000000000001	n/a	Yes	2.784	n/a	n/a	GoodResponse	0	n/a	n/a	4	65	Blank	Neutral	True
620.464	1.45	Control	0.6970000000000001	n/a	Yes	2.784	n/a	5.0	GoodResponse	0	0.047	619.511	4	65	Feedback	Neutral	True
621.914	2.784	Control	0.6970000000000001	n/a	Yes	2.784	n/a	n/a	GoodResponse	0	0.0	n/a	4	65	ISIslide	Neutral	True
624.729	0.25	Win2	0.7015	0.0	Yes	2.771	0.029	n/a	GoodResponse	1	n/a	n/a	5	66	Cue	Win	True
624.979	3.9	Win2	0.7015	0.0	Yes	2.771	0.0	n/a	GoodResponse	1	n/a	n/a	5	66	Fixation	Win	True
628.878	0.24	Win2	0.7015	0.001	Yes	2.771	-0.001	2.0	GoodResponse	1	0.222	628.1	5	66	Target	Win	True
629.1	0.3	Win2	0.7015	0.001	Yes	2.771	-0.001	2.0	GoodResponse	1	0.222	n/a	5	66	ButtonPress	Win	True
629.128	0.46	Win2	0.7015	n/a	Yes	2.771	n/a	n/a	GoodResponse	1	n/a	n/a	5	66	Blank	Win	True
629.578	1.45	Win2	0.7015	n/a	Yes	2.771	n/a	5.0	GoodResponse	1	0.006	628.584	5	66	Feedback	Win	True
631.027	2.771	Win2	0.7015	n/a	Yes	2.771	n/a	n/a	GoodResponse	1	0.0	n/a	5	66	ISIslide	Win	True
633.826	0.25	Control	0.7059000000000001	0.0	Yes	2.724	0.026	n/a	GoodResponse	0	n/a	n/a	5	67	Cue	Neutral	True
634.076	3.95	Control	0.7059000000000001	0.0	Yes	2.724	0.0	n/a	GoodResponse	0	n/a	n/a	5	67	Fixation	Neutral	True
638.025	0.23	Control	0.7059000000000001	0.001	Yes	2.724	-0.001	2.0	GoodResponse	0	0.206	637.231	5	67	Target	Neutral	True
638.231	0.3	Control	0.7059000000000001	0.001	Yes	2.724	-0.001	2.0	GoodResponse	0	0.206	n/a	5	67	ButtonPress	Neutral	True
638.258	0.47	Control	0.7059000000000001	n/a	Yes	2.724	n/a	n/a	GoodResponse	0	n/a	n/a	5	67	Blank	Neutral	True
638.724	1.45	Control	0.7059000000000001	n/a	Yes	2.724	n/a	5.0	GoodResponse	0	0.031	637.755	5	67	Feedback	Neutral	True
640.174	2.724	Control	0.7059000000000001	n/a	Yes	2.724	n/a	n/a	GoodResponse	0	0.0	n/a	5	67	ISIslide	Neutral	True
642.923	0.25	Win2	0.7101000000000001	0.0	Yes	3.077	0.023	n/a	GoodResponse	1	n/a	n/a	6	68	Cue	Win	True
643.173	4.0	Win2	0.7101000000000001	0.0	Yes	3.077	0.0	n/a	GoodResponse	1	n/a	n/a	6	68	Fixation	Win	True
647.171	0.22	Win2	0.7101000000000001	0.002	Yes	3.077	-0.002	2.0	GoodResponse	1	0.185	646.356	6	68	Target	Win	True
647.356	0.3	Win2	0.7101000000000001	0.002	Yes	3.077	-0.002	2.0	GoodResponse	1	0.185	n/a	6	68	ButtonPress	Win	True
647.405	0.48	Win2	0.7101000000000001	n/a	Yes	3.077	n/a	n/a	GoodResponse	1	n/a	n/a	6	68	Blank	Win	True
647.871	1.45	Win2	0.7101000000000001	n/a	Yes	3.077	n/a	5.0	GoodResponse	1	0.006	646.877	6	68	Feedback	Win	True
649.321	3.077	Win2	0.7101000000000001	n/a	Yes	3.077	n/a	n/a	GoodResponse	1	0.0	n/a	6	68	ISIslide	Win	True
652.42	0.25	Win2	0.7	0.0	No	3.23	0.02	n/a	NoResponse	0	n/a	n/a	6	69	Cue	MissedWin	True
652.67	3.95	Win2	0.7	0.0	No	3.23	0.0	n/a	NoResponse	0	n/a	n/a	6	69	Fixation	MissedWin	True
656.618	0.21	Win2	0.7	0.002	No	3.23	-0.002	2.0	NoResponse	0	0.217	655.835	6	69	Target	MissedWin	True
656.835	0.49	Win2	0.7	n/a	No	3.23	n/a	n/a	NoResponse	0	n/a	n/a	6	69	Blank	MissedWin	True
656.835	0.3	Win2	0.7	0.002	No	3.23	-0.002	2.0	NoResponse	0	0.217	n/a	6	69	ButtonPress	MissedWin	True
657.318	1.45	Win2	0.7	n/a	No	3.23	n/a	5.0	NoResponse	0	0.021	656.339	6	69	Feedback	MissedWin	True
658.767	3.23	Win2	0.7	n/a	No	3.23	n/a	n/a	NoResponse	0	0.0	n/a	6	69	ISIslide	MissedWin	True
662.016	0.25	Lose2	0.7042	0.0	Yes	3.034	0.016	n/a	GoodResponse	0	n/a	n/a	6	70	Cue	AvoidedLoss	True
662.266	4.05	Lose2	0.7042	0.0	Yes	3.034	0.0	n/a	GoodResponse	0	n/a	n/a	6	70	Fixation	AvoidedLoss	True
666.315	0.2	Lose2	0.7042	0.001	Yes	3.034	-0.001	2.0	GoodResponse	0	0.183	665.498	6	70	Target	AvoidedLoss	True
666.498	0.3	Lose2	0.7042	0.001	Yes	3.034	-0.001	2.0	GoodResponse	0	0.183	n/a	6	70	ButtonPress	AvoidedLoss	True
666.515	0.5	Lose2	0.7042	n/a	Yes	3.034	n/a	n/a	GoodResponse	0	n/a	n/a	6	70	Blank	AvoidedLoss	True
667.015	1.45	Lose2	0.7042	n/a	Yes	3.034	n/a	5.0	GoodResponse	0	0.032	666.047	6	70	Feedback	AvoidedLoss	True
668.464	3.034	Lose2	0.7042	n/a	Yes	3.034	n/a	n/a	GoodResponse	0	0.0	n/a	6	70	ISIslide	AvoidedLoss	True
671.513	0.25	Win2	0.6944	0.0	No	2.737	0.013	n/a	NoResponse	0	n/a	n/a	6	71	Cue	MissedWin	True
671.763	4.05	Win2	0.6944	0.0	No	2.737	0.0	n/a	NoResponse	0	n/a	n/a	6	71	Fixation	MissedWin	True
675.812	0.19	Win2	0.6944	0.001	No	2.737	-0.001	2.0	NoResponse	0	0.207	675.019	6	71	Target	MissedWin	True
676.011	0.51	Win2	0.6944	n/a	No	2.737	n/a	n/a	NoResponse	0	n/a	n/a	6	71	Blank	MissedWin	True
676.019	0.3	Win2	0.6944	0.001	No	2.737	-0.001	2.0	NoResponse	0	0.207	n/a	6	71	ButtonPress	MissedWin	True
676.511	1.45	Win2	0.6944	n/a	No	2.737	n/a	5.0	NoResponse	0	0.048	675.559	6	71	Feedback	MissedWin	True
677.961	2.737	Win2	0.6944	n/a	No	2.737	n/a	n/a	NoResponse	0	0.0	n/a	6	71	ISIslide	MissedWin	True
680.726	0.25	Win2	0.6849	0.001	No	2.774	0.026	n/a	NoResponse	0	n/a	n/a	6	72	Cue	MissedWin	True
680.976	4.1	Win2	0.6849	0.0	No	2.774	0.0	n/a	NoResponse	0	n/a	n/a	6	72	Fixation	MissedWin	True
685.075	0.18	Win2	0.6849	0.001	No	2.774	-0.001	2.0	NoResponse	0	0.192	684.267	6	72	Target	MissedWin	True
685.258	0.52	Win2	0.6849	n/a	No	2.774	n/a	n/a	NoResponse	0	n/a	n/a	6	72	Blank	MissedWin	True
685.267	0.3	Win2	0.6849	0.001	No	2.774	-0.001	2.0	NoResponse	0	0.192	n/a	6	72	ButtonPress	MissedWin	True
685.775	1.45	Win2	0.6849	n/a	No	2.774	n/a	5.0	NoResponse	0	0.006	684.781	6	72	Feedback	MissedWin	True
687.224	2.774	Win2	0.6849	n/a	No	2.774	n/a	n/a	NoResponse	0	0.0	n/a	6	72	ISIslide	MissedWin	True
690.023	0.25	Win2	0.6757	0.0	No	2.677	0.023	n/a	NoResponse	0	n/a	n/a	6	73	Cue	MissedWin	True
690.273	4.0	Win2	0.6757	0.0	No	2.677	0.0	n/a	NoResponse	0	n/a	n/a	6	73	Fixation	MissedWin	True
694.272	0.17	Win2	0.6757	0.001	No	2.677	-0.001	2.0	NoResponse	0	0.191	693.463	6	73	Target	MissedWin	True
694.455	0.53	Win2	0.6757	n/a	No	2.677	n/a	n/a	NoResponse	0	n/a	n/a	6	73	Blank	MissedWin	True
694.463	0.3	Win2	0.6757	0.001	No	2.677	-0.001	2.0	NoResponse	0	0.191	n/a	6	73	ButtonPress	MissedWin	True
694.971	1.45	Win2	0.6757	n/a	No	2.677	n/a	5.0	NoResponse	0	0.027	693.998	6	73	Feedback	MissedWin	True
696.421	2.677	Win2	0.6757	n/a	No	2.677	n/a	n/a	NoResponse	0	0.0	n/a	6	73	ISIslide	MissedWin	True
699.12	0.25	Lose2	0.6667000000000001	0.0	No	2.63	0.02	n/a	NoResponse	-1	n/a	n/a	5	74	Cue	Loss	True
699.37	4.05	Lose2	0.6667000000000001	0.0	No	2.63	0.0	n/a	NoResponse	-1	n/a	n/a	5	74	Fixation	Loss	True
703.419	0.16	Lose2	0.6667000000000001	0.001	No	2.63	-0.001	2.0	NoResponse	-1	0.185	702.604	5	74	Target	Loss	True
703.585	0.54	Lose2	0.6667000000000001	n/a	No	2.63	n/a	n/a	NoResponse	-1	n/a	n/a	5	74	Blank	Loss	True
703.604	0.3	Lose2	0.6667000000000001	0.001	No	2.63	-0.001	2.0	NoResponse	-1	0.185	n/a	5	74	ButtonPress	Loss	True
704.118	1.45	Lose2	0.6667000000000001	n/a	No	2.63	n/a	5.0	NoResponse	-1	0.001	703.119	5	74	Feedback	Loss	True
705.568	2.63	Lose2	0.6667000000000001	n/a	No	2.63	n/a	n/a	NoResponse	-1	0.0	n/a	5	74	ISIslide	Loss	True
708.217	0.25	Lose2	0.6579	0.0	No	2.933	0.017	n/a	NoResponse	-1	n/a	n/a	4	75	Cue	Loss	True
708.467	3.95	Lose2	0.6579	0.0	No	2.933	0.0	n/a	NoResponse	-1	n/a	n/a	4	75	Fixation	Loss	True
712.415	0.15	Lose2	0.6579	0.002	No	2.933	-0.002	2.0	NoResponse	-1	0.176	711.591	4	75	Target	Loss	True
712.565	0.55	Lose2	0.6579	n/a	No	2.933	n/a	n/a	NoResponse	-1	n/a	n/a	4	75	Blank	Loss	True
712.591	0.3	Lose2	0.6579	0.002	No	2.933	-0.002	2.0	NoResponse	-1	0.176	n/a	4	75	ButtonPress	Loss	True
713.115	1.45	Lose2	0.6579	n/a	No	2.933	n/a	5.0	NoResponse	-1	0.029	712.144	4	75	Feedback	Loss	True
714.565	2.933	Lose2	0.6579	n/a	No	2.933	n/a	n/a	NoResponse	-1	0.0	n/a	4	75	ISIslide	Loss	True
717.514	0.25	Control	0.6494	0.0	No	3.236	0.014	n/a	NoResponse	0	n/a	n/a	4	76	Cue	Neutral	True
717.764	4.05	Control	0.6494	0.0	No	3.236	0.0	n/a	NoResponse	0	n/a	n/a	4	76	Fixation	Neutral	True
721.812	0.15	Control	0.6494	0.002	No	3.236	-0.002	2.0	NoResponse	0	0.18	720.992	4	76	Target	Neutral	True
721.962	0.55	Control	0.6494	n/a	No	3.236	n/a	n/a	NoResponse	0	n/a	n/a	4	76	Blank	Neutral	True
721.992	0.3	Control	0.6494	0.002	No	3.236	-0.002	2.0	NoResponse	0	0.18	n/a	4	76	ButtonPress	Neutral	True
722.512	1.45	Control	0.6494	n/a	No	3.236	n/a	5.0	NoResponse	0	0.047	721.559	4	76	Feedback	Neutral	True
723.961	3.236	Control	0.6494	n/a	No	3.236	n/a	n/a	NoResponse	0	0.0	n/a	4	76	ISIslide	Neutral	True
727.227	0.25	Lose2	0.6409999999999999	0.0	No	2.573	0.027	n/a	NoResponse	-1	n/a	n/a	3	77	Cue	Loss	True
727.477	3.95	Lose2	0.6409999999999999	0.0	No	2.573	0.0	n/a	NoResponse	-1	n/a	n/a	3	77	Fixation	Loss	True
731.425	0.16	Lose2	0.6409999999999999	0.002	No	2.573	-0.002	2.0	NoResponse	-1	0.175	730.6	3	77	Target	Loss	True
731.592	0.54	Lose2	0.6409999999999999	n/a	No	2.573	n/a	n/a	NoResponse	-1	n/a	n/a	3	77	Blank	Loss	True
731.6	0.3	Lose2	0.6409999999999999	0.002	No	2.573	-0.002	2.0	NoResponse	-1	0.175	n/a	3	77	ButtonPress	Loss	True
732.125	1.45	Lose2	0.6409999999999999	n/a	No	2.573	n/a	5.0	NoResponse	-1	0.044	731.169	3	77	Feedback	Loss	True
733.575	2.573	Lose2	0.6409999999999999	n/a	No	2.573	n/a	n/a	NoResponse	-1	0.0	n/a	3	77	ISIslide	Loss	True
