onset	duration	cue_type	current_mean_accuracy	duration_error	is_hit	isi_adjusted	onset_delay	response	response_type	reward	rt	rt_time	total_reward	trial_number	trial_phase	trial_type	one_press
11.1	0.25	Control	1.0	0.0	Yes	2.95	0.0	n/a	GoodResponse	0	n/a	n/a	0	0	Cue	Neutral	True
11.351	3.85	Control	1.0	0.0	Yes	2.95	0.001	n/a	GoodResponse	0	n/a	n/a	0	0	Fixation	Neutral	True
15.196	0.4	Control	1.0	0.004	Yes	2.95	-0.004	4.0	GoodResponse	0	0.23	14.426	0	0	Target	Neutral	True
15.426	0.3	Control	1.0	0.004	Yes	2.95	-0.004	4.0	GoodResponse	0	0.23	n/a	0	0	ButtonPress	Neutral	True
15.597	0.3	Control	1.0	n/a	Yes	2.95	n/a	n/a	GoodResponse	0	n/a	n/a	0	0	Blank	Neutral	True
15.898	1.45	Control	1.0	n/a	Yes	2.95	n/a	5.0	GoodResponse	0	0.028	14.926	0	0	Feedback	Neutral	True
17.352	2.95	Control	1.0	n/a	Yes	2.95	n/a	n/a	GoodResponse	0	0.0	n/a	0	0	ISIslide	Neutral	True
20.328	0.25	Lose2	1.0	0.0	Yes	2.772	0.028	n/a	GoodResponse	0	n/a	n/a	0	1	Cue	AvoidedLoss	True
20.578	4.0	Lose2	1.0	0.0	Yes	2.772	0.0	n/a	GoodResponse	0	n/a	n/a	0	1	Fixation	AvoidedLoss	True
24.574	0.39	Lose2	1.0	0.004	Yes	2.772	-0.004	4.0	GoodResponse	0	0.229	23.803	0	1	Target	AvoidedLoss	True
24.803	0.3	Lose2	1.0	0.004	Yes	2.772	-0.004	4.0	GoodResponse	0	0.229	n/a	0	1	ButtonPress	AvoidedLoss	True
24.975	0.31	Lose2	1.0	n/a	Yes	2.772	n/a	n/a	GoodResponse	0	n/a	n/a	0	1	Blank	AvoidedLoss	True
25.276	1.45	Lose2	1.0	n/a	Yes	2.772	n/a	5.0	GoodResponse	0	0.015	24.291	0	1	Feedback	AvoidedLoss	True
26.73	2.772	Lose2	1.0	n/a	Yes	2.772	n/a	n/a	GoodResponse	0	0.0	n/a	0	1	ISIslide	AvoidedLoss	True
29.522	0.25	Control	1.0	0.0	Yes	2.578	0.022	n/a	GoodResponse	0	n/a	n/a	0	2	Cue	Neutral	True
29.772	4.1	Control	1.0	0.0	Yes	2.578	0.0	n/a	GoodResponse	0	n/a	n/a	0	2	Fixation	Neutral	True
33.868	0.38	Control	1.0	0.004	Yes	2.578	-0.004	4.0	GoodResponse	0	0.245	33.113	0	2	Target	Neutral	True
34.113	0.3	Control	1.0	0.004	Yes	2.578	-0.004	4.0	GoodResponse	0	0.245	n/a	0	2	ButtonPress	Neutral	True
34.252	0.32	Control	1.0	n/a	Yes	2.578	n/a	n/a	GoodResponse	0	n/a	n/a	0	2	Blank	Neutral	True
34.57	1.45	Control	1.0	n/a	Yes	2.578	n/a	5.0	GoodResponse	0	0.038	33.608	0	2	Feedback	Neutral	True
36.024	2.578	Control	1.0	n/a	Yes	2.578	n/a	n/a	GoodResponse	0	0.0	n/a	0	2	ISIslide	Neutral	True
38.616	0.25	Win2	1.0	0.0	Yes	2.834	0.016	n/a	GoodResponse	1	n/a	n/a	1	3	Cue	Win	True
38.866	3.95	Win2	1.0	0.0	Yes	2.834	0.0	n/a	GoodResponse	1	n/a	n/a	1	3	Fixation	Win	True
42.828	0.37	Win2	1.0	0.0	Yes	2.834	0.012	4.0	GoodResponse	1	0.228	42.056	1	3	Target	Win	True
43.056	0.3	Win2	1.0	0.0	Yes	2.834	0.012	4.0	GoodResponse	1	0.228	n/a	1	3	ButtonPress	Win	True
43.196	0.33	Win2	1.0	n/a	Yes	2.834	n/a	n/a	GoodResponse	1	n/a	n/a	1	3	Blank	Win	True
43.513	1.45	Win2	1.0	n/a	Yes	2.834	n/a	5.0	GoodResponse	1	0.022	42.535	1	3	Feedback	Win	True
44.968	2.834	Win2	1.0	n/a	Yes	2.834	n/a	n/a	GoodResponse	1	0.0	n/a	1	3	ISIslide	Win	True
47.826	0.25	Win2	1.0	0.0	Yes	3.274	0.026	n/a	GoodResponse	1	n/a	n/a	2	4	Cue	Win	True
48.077	4.0	Win2	1.0	0.0	Yes	3.274	0.001	n/a	GoodResponse	1	n/a	n/a	2	4	Fixation	Win	True
52.072	0.36	Win2	1.0	0.004	Yes	3.274	-0.004	4.0	GoodResponse	1	0.203	51.275	2	4	Target	Win	True
52.275	0.3	Win2	1.0	0.004	Yes	3.274	-0.004	4.0	GoodResponse	1	0.203	n/a	2	4	ButtonPress	Win	True
52.44	0.34	Win2	1.0	n/a	Yes	3.274	n/a	n/a	GoodResponse	1	n/a	n/a	2	4	Blank	Win	True
52.774	1.45	Win2	1.0	n/a	Yes	3.274	n/a	5.0	GoodResponse	1	0.03	51.804	2	4	Feedback	Win	True
54.229	3.274	Win2	1.0	n/a	Yes	3.274	n/a	n/a	GoodResponse	1	0.0	n/a	2	4	ISIslide	Win	True
57.522	0.25	Win2	1.0	0.0	Yes	2.778	0.022	n/a	GoodResponse	1	n/a	n/a	3	5	Cue	Win	True
57.773	4.0	Win2	1.0	0.0	Yes	2.778	0.001	n/a	GoodResponse	1	n/a	n/a	3	5	Fixation	Win	True
61.768	0.35	Win2	1.0	0.004	Yes	2.778	-0.004	4.0	GoodResponse	1	0.33	61.098	3	5	Target	Win	True
62.098	0.3	Win2	1.0	0.004	Yes	2.778	-0.004	4.0	GoodResponse	1	0.33	n/a	3	5	ButtonPress	Win	True
62.119	0.35	Win2	1.0	n/a	Yes	2.778	n/a	n/a	GoodResponse	1	n/a	n/a	3	5	Blank	Win	True
62.47	1.45	Win2	1.0	n/a	Yes	2.778	n/a	5.0	GoodResponse	1	0.04	61.51	3	5	Feedback	Win	True
63.924	2.778	Win2	1.0	n/a	Yes	2.778	n/a	n/a	GoodResponse	1	0.0	n/a	3	5	ISIslide	Win	True
66.716	0.25	Lose2	0.8571	0.0	No	2.734	0.016	n/a	NoResponse	-1	n/a	n/a	2	6	Cue	Loss	False
66.967	3.95	Lose2	0.8571	0.0	No	2.734	0.001	n/a	NoResponse	-1	n/a	n/a	2	6	Fixation	Loss	False
70.912	0.34	Lose2	0.8571	0.004	No	2.734	-0.004	n/a	NoResponse	-1	n/a	n/a	2	6	Target	Loss	False
71.263	0.36	Lose2	0.8571	n/a	No	2.734	n/a	n/a	NoResponse	-1	n/a	n/a	2	6	Blank	Loss	False
71.614	1.45	Lose2	0.8571	n/a	No	2.734	n/a	5.0	NoResponse	-1	0.018	70.632	2	6	Feedback	Loss	False
73.068	2.734	Lose2	0.8571	n/a	No	2.734	n/a	n/a	NoResponse	-1	0.0	n/a	2	6	ISIslide	Loss	False
75.827	0.25	Lose2	0.875	0.0	Yes	4.023	0.027	n/a	GoodResponse	0	n/a	n/a	2	7	Cue	AvoidedLoss	True
76.077	4.05	Lose2	0.875	0.0	Yes	4.023	0.0	n/a	GoodResponse	0	n/a	n/a	2	7	Fixation	AvoidedLoss	True
80.123	0.33	Lose2	0.875	0.004	Yes	4.023	-0.004	4.0	GoodResponse	0	0.209	79.332	2	7	Target	AvoidedLoss	True
80.332	0.3	Lose2	0.875	0.004	Yes	4.023	-0.004	4.0	GoodResponse	0	0.209	n/a	2	7	ButtonPress	AvoidedLoss	True
80.457	0.37	Lose2	0.875	n/a	Yes	4.023	n/a	n/a	GoodResponse	0	n/a	n/a	2	7	Blank	AvoidedLoss	True
80.825	1.45	Lose2	0.875	n/a	Yes	4.023	n/a	5.0	GoodResponse	0	0.027	79.852	2	7	Feedback	AvoidedLoss	True
82.279	4.023	Lose2	0.875	n/a	Yes	4.023	n/a	n/a	GoodResponse	0	0.0	n/a	2	7	ISIslide	AvoidedLoss	True
86.325	0.25	Lose2	0.8889	0.0	Yes	3.025	0.025	n/a	GoodResponse	0	n/a	n/a	2	8	Cue	AvoidedLoss	True
86.575	3.95	Lose2	0.8889	0.0	Yes	3.025	0.0	n/a	GoodResponse	0	n/a	n/a	2	8	Fixation	AvoidedLoss	True
90.521	0.32	Lose2	0.8889	0.004	Yes	3.025	-0.004	4.0	GoodResponse	0	0.218	89.739	2	8	Target	AvoidedLoss	True
90.739	0.3	Lose2	0.8889	0.004	Yes	3.025	-0.004	4.0	GoodResponse	0	0.218	n/a	2	8	ButtonPress	AvoidedLoss	True
90.855	0.38	Lose2	0.8889	n/a	Yes	3.025	n/a	n/a	GoodResponse	0	n/a	n/a	2	8	Blank	AvoidedLoss	True
91.223	1.45	Lose2	0.8889	n/a	Yes	3.025	n/a	5.0	GoodResponse	0	0.019	90.242	2	8	Feedback	AvoidedLoss	True
92.677	3.025	Lose2	0.8889	n/a	Yes	3.025	n/a	n/a	GoodResponse	0	0.0	n/a	2	8	ISIslide	AvoidedLoss	True
95.719	0.25	Lose2	0.9	0.0	Yes	3.131	0.019	n/a	GoodResponse	0	n/a	n/a	2	9	Cue	AvoidedLoss	True
95.97	3.95	Lose2	0.9	0.0	Yes	3.131	0.001	n/a	GoodResponse	0	n/a	n/a	2	9	Fixation	AvoidedLoss	True
99.915	0.31	Lose2	0.9	0.004	Yes	3.131	-0.004	4.0	GoodResponse	0	0.274	99.189	2	9	Target	AvoidedLoss	True
100.189	0.3	Lose2	0.9	0.004	Yes	3.131	-0.004	4.0	GoodResponse	0	0.274	n/a	2	9	ButtonPress	AvoidedLoss	True
100.233	0.39	Lose2	0.9	n/a	Yes	3.131	n/a	n/a	GoodResponse	0	n/a	n/a	2	9	Blank	AvoidedLoss	True
100.617	1.45	Lose2	0.9	n/a	Yes	3.131	n/a	5.0	GoodResponse	0	0.039	99.656	2	9	Feedback	AvoidedLoss	True
102.072	3.131	Lose2	0.9	n/a	Yes	3.131	n/a	n/a	GoodResponse	0	0.0	n/a	2	9	ISIslide	AvoidedLoss	True
105.214	0.25	Control	0.9091	0.0	Yes	3.286	0.014	n/a	GoodResponse	0	n/a	n/a	2	10	Cue	Neutral	True
105.465	4.0	Control	0.9091	0.0	Yes	3.286	0.001	n/a	GoodResponse	0	n/a	n/a	2	10	Fixation	Neutral	True
109.46	0.3	Control	0.9091	0.004	Yes	3.286	-0.004	4.0	GoodResponse	0	0.269	108.729	2	10	Target	Neutral	True
109.729	0.3	Control	0.9091	0.004	Yes	3.286	-0.004	4.0	GoodResponse	0	0.269	n/a	2	10	ButtonPress	Neutral	True
109.761	0.4	Control	0.9091	n/a	Yes	3.286	n/a	n/a	GoodResponse	0	n/a	n/a	2	10	Blank	Neutral	True
110.163	1.45	Control	0.9091	n/a	Yes	3.286	n/a	5.0	GoodResponse	0	0.007	109.17	2	10	Feedback	Neutral	True
111.617	3.286	Control	0.9091	n/a	Yes	3.286	n/a	n/a	GoodResponse	0	0.0	n/a	2	10	ISIslide	Neutral	True
114.927	0.25	Lose2	0.9167000000000001	0.0	Yes	2.723	0.027	n/a	GoodResponse	0	n/a	n/a	2	11	Cue	AvoidedLoss	True
115.177	4.05	Lose2	0.9167000000000001	0.001	Yes	2.723	0.0	n/a	GoodResponse	0	n/a	n/a	2	11	Fixation	AvoidedLoss	True
119.223	0.29	Lose2	0.9167000000000001	0.004	Yes	2.723	-0.004	4.0	GoodResponse	0	0.268	118.491	2	11	Target	AvoidedLoss	True
119.491	0.3	Lose2	0.9167000000000001	0.004	Yes	2.723	-0.004	4.0	GoodResponse	0	0.268	n/a	2	11	ButtonPress	AvoidedLoss	True
119.524	0.41	Lose2	0.9167000000000001	n/a	Yes	2.723	n/a	n/a	GoodResponse	0	n/a	n/a	2	11	Blank	AvoidedLoss	True
119.925	1.45	Lose2	0.9167000000000001	n/a	Yes	2.723	n/a	5.0	GoodResponse	0	0.048	118.973	2	11	Feedback	AvoidedLoss	True
121.379	2.723	Lose2	0.9167000000000001	n/a	Yes	2.723	n/a	n/a	GoodResponse	0	0.0	n/a	2	11	ISIslide	AvoidedLoss	True
124.121	0.25	Control	0.8462000000000001	0.0	No	2.979	0.021	n/a	NoResponse	0	n/a	n/a	2	12	Cue	Neutral	True
124.372	3.9	Control	0.8462000000000001	0.0	No	2.979	0.001	n/a	NoResponse	0	n/a	n/a	2	12	Fixation	Neutral	True
128.267	0.28	Control	0.8462000000000001	0.004	No	2.979	-0.004	4.0	NoResponse	0	0.338	127.605	2	12	Target	Neutral	True
128.551	0.42	Control	0.8462000000000001	n/a	No	2.979	n/a	n/a	NoResponse	0	n/a	n/a	2	12	Blank	Neutral	True
128.605	0.3	Control	0.8462000000000001	0.004	No	2.979	-0.004	4.0	NoResponse	0	0.338	n/a	2	12	ButtonPress	Neutral	True
128.969	1.45	Control	0.8462000000000001	n/a	No	2.979	n/a	5.0	NoResponse	0	0.029	127.998	2	12	Feedback	Neutral	True
130.423	2.979	Control	0.8462000000000001	n/a	No	2.979	n/a	n/a	NoResponse	0	0.0	n/a	2	12	ISIslide	Neutral	True
133.415	0.25	Control	0.7857	0.0	No	2.785	0.015	n/a	NoResponse	0	n/a	n/a	2	13	Cue	Neutral	True
133.666	4.0	Control	0.7857	0.0	No	2.785	0.001	n/a	NoResponse	0	n/a	n/a	2	13	Fixation	Neutral	True
137.661	0.27	Control	0.7857	0.004	No	2.785	-0.004	4.0	NoResponse	0	0.358	137.019	2	13	Target	Neutral	True
137.945	0.43	Control	0.7857	n/a	No	2.785	n/a	n/a	NoResponse	0	n/a	n/a	2	13	Blank	Neutral	True
138.019	0.3	Control	0.7857	0.004	No	2.785	-0.004	4.0	NoResponse	0	0.358	n/a	2	13	ButtonPress	Neutral	True
138.363	1.45	Control	0.7857	n/a	No	2.785	n/a	5.0	NoResponse	0	0.048	137.411	2	13	Feedback	Neutral	True
139.818	2.785	Control	0.7857	n/a	No	2.785	n/a	n/a	NoResponse	0	0.0	n/a	2	13	ISIslide	Neutral	True
142.626	0.25	Win2	0.8	0.0	Yes	2.674	0.026	n/a	GoodResponse	1	n/a	n/a	3	14	Cue	Win	False
142.877	4.1	Win2	0.8	0.0	Yes	2.674	0.001	4.0	GoodResponse	1	0.21	142.087	3	14	Fixation	Win	False
143.087	0.3	Win2	0.8	0.0	Yes	2.674	0.001	4.0	GoodResponse	1	0.21	n/a	3	14	ButtonPress	Win	False
146.972	0.26	Win2	0.8	0.004	Yes	2.674	-0.004	4.0	GoodResponse	1	0.216	146.188	3	14	Target	Win	False
147.188	0.3	Win2	0.8	0.004	Yes	2.674	-0.004	4.0	GoodResponse	1	0.216	n/a	3	14	ButtonPress	Win	False
147.24	0.44	Win2	0.8	n/a	Yes	2.674	n/a	n/a	GoodResponse	1	n/a	n/a	3	14	Blank	Win	False
147.675	1.45	Win2	0.8	n/a	Yes	2.674	n/a	5.0	GoodResponse	1	0.007	146.682	3	14	Feedback	Win	False
149.129	2.674	Win2	0.8	n/a	Yes	2.674	n/a	n/a	GoodResponse	1	0.0	n/a	3	14	ISIslide	Win	False
151.82	0.25	Control	0.75	0.0	No	2.98	0.02	n/a	NoResponse	0	n/a	n/a	3	15	Cue	Neutral	False
152.071	4.0	Control	0.75	0.0	No	2.98	0.001	n/a	NoResponse	0	n/a	n/a	3	15	Fixation	Neutral	False
156.066	0.25	Control	0.75	0.004	No	2.98	-0.004	n/a	NoResponse	0	n/a	n/a	3	15	Target	Neutral	False
156.317	0.45	Control	0.75	n/a	No	2.98	n/a	n/a	NoResponse	0	n/a	n/a	3	15	Blank	Neutral	False
156.768	1.45	Control	0.75	n/a	No	2.98	n/a	5.0	NoResponse	0	0.034	155.802	3	15	Feedback	Neutral	False
158.223	2.98	Control	0.75	n/a	No	2.98	n/a	n/a	NoResponse	0	0.0	n/a	3	15	ISIslide	Neutral	False
161.215	0.25	Win2	0.7646999999999999	0.0	Yes	2.885	0.015	n/a	GoodResponse	1	n/a	n/a	4	16	Cue	Win	True
161.466	4.0	Win2	0.7646999999999999	0.0	Yes	2.885	0.001	n/a	GoodResponse	1	n/a	n/a	4	16	Fixation	Win	True
165.461	0.24	Win2	0.7646999999999999	0.004	Yes	2.885	-0.004	4.0	GoodResponse	1	0.175	164.636	4	16	Target	Win	True
165.636	0.3	Win2	0.7646999999999999	0.004	Yes	2.885	-0.004	4.0	GoodResponse	1	0.175	n/a	4	16	ButtonPress	Win	True
165.712	0.46	Win2	0.7646999999999999	n/a	Yes	2.885	n/a	n/a	GoodResponse	1	n/a	n/a	4	16	Blank	Win	True
166.163	1.45	Win2	0.7646999999999999	n/a	Yes	2.885	n/a	5.0	GoodResponse	1	0.007	165.17	4	16	Feedback	Win	True
167.617	2.885	Win2	0.7646999999999999	n/a	Yes	2.885	n/a	n/a	GoodResponse	1	0.0	n/a	4	16	ISIslide	Win	True
170.526	0.25	Lose2	0.7778	0.0	Yes	2.724	0.026	n/a	GoodResponse	0	n/a	n/a	4	17	Cue	AvoidedLoss	True
170.777	3.95	Lose2	0.7778	0.0	Yes	2.724	0.001	n/a	GoodResponse	0	n/a	n/a	4	17	Fixation	AvoidedLoss	True
174.722	0.23	Lose2	0.7778	0.004	Yes	2.724	-0.004	4.0	GoodResponse	0	0.209	173.931	4	17	Target	AvoidedLoss	True
174.931	0.3	Lose2	0.7778	0.004	Yes	2.724	-0.004	4.0	GoodResponse	0	0.209	n/a	4	17	ButtonPress	AvoidedLoss	True
174.956	0.47	Lose2	0.7778	n/a	Yes	2.724	n/a	n/a	GoodResponse	0	n/a	n/a	4	17	Blank	AvoidedLoss	True
175.424	1.45	Lose2	0.7778	n/a	Yes	2.724	n/a	5.0	GoodResponse	0	0.011	174.435	4	17	Feedback	AvoidedLoss	True
176.878	2.724	Lose2	0.7778	n/a	Yes	2.724	n/a	n/a	GoodResponse	0	0.0	n/a	4	17	ISIslide	AvoidedLoss	True
179.62	0.25	Lose2	0.7368000000000001	0.0	No	2.73	0.02	n/a	NoResponse	-1	n/a	n/a	3	18	Cue	Loss	True
179.871	4.05	Lose2	0.7368000000000001	0.0	No	2.73	0.001	n/a	NoResponse	-1	n/a	n/a	3	18	Fixation	Loss	True
183.916	0.22	Lose2	0.7368000000000001	0.004	No	2.73	-0.004	4.0	NoResponse	-1	0.308	183.224	3	18	Target	Loss	True
184.15	0.48	Lose2	0.7368000000000001	n/a	No	2.73	n/a	n/a	NoResponse	-1	n/a	n/a	3	18	Blank	Loss	True
184.224	0.3	Lose2	0.7368000000000001	0.004	No	2.73	-0.004	4.0	NoResponse	-1	0.308	n/a	3	18	ButtonPress	Loss	True
184.618	1.45	Lose2	0.7368000000000001	n/a	No	2.73	n/a	5.0	NoResponse	-1	0.037	183.655	3	18	Feedback	Loss	True
186.073	2.73	Lose2	0.7368000000000001	n/a	No	2.73	n/a	n/a	NoResponse	-1	0.0	n/a	3	18	ISIslide	Loss	True
188.814	0.25	Control	0.7	0.0	No	2.936	0.014	n/a	NoResponse	0	n/a	n/a	3	19	Cue	Neutral	False
189.065	3.95	Control	0.7	0.0	No	2.936	0.001	n/a	NoResponse	0	n/a	n/a	3	19	Fixation	Neutral	False
193.01	0.21	Control	0.7	0.004	No	2.936	-0.004	n/a	NoResponse	0	n/a	n/a	3	19	Target	Neutral	False
193.227	0.49	Control	0.7	n/a	No	2.936	n/a	n/a	NoResponse	0	n/a	n/a	3	19	Blank	Neutral	False
193.712	1.45	Control	0.7	n/a	No	2.936	n/a	5.0	NoResponse	0	0.016	192.728	3	19	Feedback	Neutral	False
195.166	2.936	Control	0.7	n/a	No	2.936	n/a	n/a	NoResponse	0	0.0	n/a	3	19	ISIslide	Neutral	False
198.125	0.25	Control	0.6667000000000001	0.0	No	2.625	0.025	n/a	NoResponse	0	n/a	n/a	3	20	Cue	Neutral	False
198.376	4.05	Control	0.6667000000000001	0.0	No	2.625	0.001	n/a	NoResponse	0	n/a	n/a	3	20	Fixation	Neutral	False
202.421	0.2	Control	0.6667000000000001	0.004	No	2.625	-0.004	n/a	NoResponse	0	n/a	n/a	3	20	Target	Neutral	False
202.622	0.5	Control	0.6667000000000001	n/a	No	2.625	n/a	n/a	NoResponse	0	n/a	n/a	3	20	Blank	Neutral	False
203.123	1.45	Control	0.6667000000000001	n/a	No	2.625	n/a	5.0	NoResponse	0	0.02	202.143	3	20	Feedback	Neutral	False
204.578	2.625	Control	0.6667000000000001	n/a	No	2.625	n/a	n/a	NoResponse	0	0.0	n/a	3	20	ISIslide	Neutral	False
207.219	0.25	Control	0.6364	0.0	No	2.781	0.019	n/a	NoResponse	0	n/a	n/a	3	21	Cue	Neutral	False
207.47	4.1	Control	0.6364	0.0	No	2.781	0.001	n/a	NoResponse	0	n/a	n/a	3	21	Fixation	Neutral	False
211.565	0.19	Control	0.6364	0.004	No	2.781	-0.004	n/a	NoResponse	0	n/a	n/a	3	21	Target	Neutral	False
211.766	0.51	Control	0.6364	n/a	No	2.781	n/a	n/a	NoResponse	0	n/a	n/a	3	21	Blank	Neutral	False
212.267	1.45	Control	0.6364	n/a	No	2.781	n/a	5.0	NoResponse	0	0.045	211.312	3	21	Feedback	Neutral	False
213.722	2.781	Control	0.6364	n/a	No	2.781	n/a	n/a	NoResponse	0	0.0	n/a	3	21	ISIslide	Neutral	False
216.53	0.25	Control	0.6087	0.0	No	2.77	0.03	n/a	NoResponse	0	n/a	n/a	3	22	Cue	Neutral	False
216.781	4.0	Control	0.6087	0.0	No	2.77	0.001	n/a	NoResponse	0	n/a	n/a	3	22	Fixation	Neutral	False
220.776	0.2	Control	0.6087	0.004	No	2.77	-0.004	n/a	NoResponse	0	n/a	n/a	3	22	Target	Neutral	False
220.977	0.5	Control	0.6087	n/a	No	2.77	n/a	n/a	NoResponse	0	n/a	n/a	3	22	Blank	Neutral	False
221.478	1.45	Control	0.6087	n/a	No	2.77	n/a	5.0	NoResponse	0	0.008	220.486	3	22	Feedback	Neutral	False
222.933	2.77	Control	0.6087	n/a	No	2.77	n/a	n/a	NoResponse	0	0.0	n/a	3	22	ISIslide	Neutral	False
225.724	0.25	Control	0.5832999999999999	0.0	No	2.776	0.024	n/a	NoResponse	0	n/a	n/a	3	23	Cue	Neutral	False
225.975	3.9	Control	0.5832999999999999	0.0	No	2.776	0.001	n/a	NoResponse	0	n/a	n/a	3	23	Fixation	Neutral	False
229.87	0.21	Control	0.5832999999999999	0.004	No	2.776	-0.004	n/a	NoResponse	0	n/a	n/a	3	23	Target	Neutral	False
230.087	0.49	Control	0.5832999999999999	n/a	No	2.776	n/a	n/a	NoResponse	0	n/a	n/a	3	23	Blank	Neutral	False
230.572	1.45	Control	0.5832999999999999	n/a	No	2.776	n/a	5.0	NoResponse	0	0.033	229.605	3	23	Feedback	Neutral	False
232.026	2.776	Control	0.5832999999999999	n/a	No	2.776	n/a	n/a	NoResponse	0	0.0	n/a	3	23	ISIslide	Neutral	False
234.818	0.25	Win2	0.6	0.0	Yes	3.132	0.018	n/a	GoodResponse	1	n/a	n/a	4	24	Cue	Win	True
235.069	3.95	Win2	0.6	0.0	Yes	3.132	0.001	n/a	GoodResponse	1	n/a	n/a	4	24	Fixation	Win	True
239.014	0.22	Win2	0.6	0.004	Yes	3.132	-0.004	4.0	GoodResponse	1	0.205	238.219	4	24	Target	Win	True
239.219	0.3	Win2	0.6	0.004	Yes	3.132	-0.004	4.0	GoodResponse	1	0.205	n/a	4	24	ButtonPress	Win	True
239.248	0.48	Win2	0.6	n/a	Yes	3.132	n/a	n/a	GoodResponse	1	n/a	n/a	4	24	Blank	Win	True
239.716	1.45	Win2	0.6	n/a	Yes	3.132	n/a	5.0	GoodResponse	1	0.011	238.727	4	24	Feedback	Win	True
241.17	3.132	Win2	0.6	n/a	Yes	3.132	n/a	n/a	GoodResponse	1	0.0	n/a	4	24	ISIslide	Win	True
244.33	0.25	Win2	0.6154	0.0	Yes	3.07	0.03	n/a	GoodResponse	1	n/a	n/a	5	25	Cue	Win	True
244.581	4.0	Win2	0.6154	0.0	Yes	3.07	0.001	n/a	GoodResponse	1	n/a	n/a	5	25	Fixation	Win	True
248.576	0.23	Win2	0.6154	0.004	Yes	3.07	-0.004	4.0	GoodResponse	1	0.221	247.797	5	25	Target	Win	True
248.797	0.3	Win2	0.6154	0.004	Yes	3.07	-0.004	4.0	GoodResponse	1	0.221	n/a	5	25	ButtonPress	Win	True
248.81	0.47	Win2	0.6154	n/a	Yes	3.07	n/a	n/a	GoodResponse	1	n/a	n/a	5	25	Blank	Win	True
249.278	1.45	Win2	0.6154	n/a	Yes	3.07	n/a	5.0	GoodResponse	1	0.009	248.287	5	25	Feedback	Win	True
250.732	3.07	Win2	0.6154	n/a	Yes	3.07	n/a	n/a	GoodResponse	1	0.0	n/a	5	25	ISIslide	Win	True
253.825	0.25	Win2	0.5926	0.0	No	2.925	0.025	n/a	NoResponse	0	n/a	n/a	5	26	Cue	MissedWin	True
254.076	3.95	Win2	0.5926	0.0	No	2.925	0.001	n/a	NoResponse	0	n/a	n/a	5	26	Fixation	MissedWin	True
258.021	0.24	Win2	0.5926	0.004	No	2.925	-0.004	4.0	NoResponse	0	0.251	257.272	5	26	Target	MissedWin	True
258.272	0.46	Win2	0.5926	n/a	No	2.925	n/a	n/a	NoResponse	0	n/a	n/a	5	26	Blank	MissedWin	True
258.272	0.3	Win2	0.5926	0.004	No	2.925	-0.004	4.0	NoResponse	0	0.251	n/a	5	26	ButtonPress	MissedWin	True
258.723	1.45	Win2	0.5926	n/a	No	2.925	n/a	5.0	NoResponse	0	0.028	257.751	5	26	Feedback	MissedWin	True
260.177	2.925	Win2	0.5926	n/a	No	2.925	n/a	n/a	NoResponse	0	0.0	n/a	5	26	ISIslide	MissedWin	True
263.119	0.25	Lose2	0.6071	0.0	Yes	2.831	0.019	n/a	GoodResponse	0	n/a	n/a	5	27	Cue	AvoidedLoss	True
263.37	4.05	Lose2	0.6071	0.0	Yes	2.831	0.001	n/a	GoodResponse	0	n/a	n/a	5	27	Fixation	AvoidedLoss	True
267.415	0.25	Lose2	0.6071	0.004	Yes	2.831	-0.004	4.0	GoodResponse	0	0.206	266.621	5	27	Target	AvoidedLoss	True
267.621	0.3	Lose2	0.6071	0.004	Yes	2.831	-0.004	4.0	GoodResponse	0	0.206	n/a	5	27	ButtonPress	AvoidedLoss	True
267.666	0.45	Lose2	0.6071	n/a	Yes	2.831	n/a	n/a	GoodResponse	0	n/a	n/a	5	27	Blank	AvoidedLoss	True
268.118	1.45	Lose2	0.6071	n/a	Yes	2.831	n/a	5.0	GoodResponse	0	0.048	267.166	5	27	Feedback	AvoidedLoss	True
269.572	2.831	Lose2	0.6071	n/a	Yes	2.831	n/a	n/a	GoodResponse	0	0.0	n/a	5	27	ISIslide	AvoidedLoss	True
272.43	0.25	Control	0.5861999999999999	0.001	No	2.82	0.03	n/a	NoResponse	0	n/a	n/a	5	28	Cue	Neutral	False
272.681	4.05	Control	0.5861999999999999	0.0	No	2.82	0.001	n/a	NoResponse	0	n/a	n/a	5	28	Fixation	Neutral	False
276.727	0.26	Control	0.5861999999999999	0.003	No	2.82	-0.003	n/a	NoResponse	0	n/a	n/a	5	28	Target	Neutral	False
276.994	0.44	Control	0.5861999999999999	n/a	No	2.82	n/a	n/a	NoResponse	0	n/a	n/a	5	28	Blank	Neutral	False
277.429	1.45	Control	0.5861999999999999	n/a	No	2.82	n/a	5.0	NoResponse	0	0.007	276.436	5	28	Feedback	Neutral	False
278.883	2.82	Control	0.5861999999999999	n/a	No	2.82	n/a	n/a	NoResponse	0	0.0	n/a	5	28	ISIslide	Neutral	False
281.725	0.25	Lose2	0.6	0.0	Yes	2.825	0.025	n/a	GoodResponse	0	n/a	n/a	5	29	Cue	AvoidedLoss	True
281.976	3.95	Lose2	0.6	0.0	Yes	2.825	0.001	n/a	GoodResponse	0	n/a	n/a	5	29	Fixation	AvoidedLoss	True
285.921	0.27	Lose2	0.6	0.004	Yes	2.825	-0.004	4.0	GoodResponse	0	0.192	285.113	5	29	Target	AvoidedLoss	True
286.113	0.3	Lose2	0.6	0.004	Yes	2.825	-0.004	4.0	GoodResponse	0	0.192	n/a	5	29	ButtonPress	AvoidedLoss	True
286.205	0.43	Lose2	0.6	n/a	Yes	2.825	n/a	n/a	GoodResponse	0	n/a	n/a	5	29	Blank	AvoidedLoss	True
286.623	1.45	Lose2	0.6	n/a	Yes	2.825	n/a	5.0	GoodResponse	0	0.03	285.653	5	29	Feedback	AvoidedLoss	True
288.077	2.825	Lose2	0.6	n/a	Yes	2.825	n/a	n/a	GoodResponse	0	0.0	n/a	5	29	ISIslide	AvoidedLoss	True
290.919	0.25	Win2	0.6129	0.0	Yes	2.781	0.019	n/a	GoodResponse	1	n/a	n/a	6	30	Cue	Win	True
291.17	3.9	Win2	0.6129	0.0	Yes	2.781	0.001	n/a	GoodResponse	1	n/a	n/a	6	30	Fixation	Win	True
295.065	0.28	Win2	0.6129	0.004	Yes	2.781	-0.004	4.0	GoodResponse	1	0.188	294.253	6	30	Target	Win	True
295.253	0.3	Win2	0.6129	0.004	Yes	2.781	-0.004	4.0	GoodResponse	1	0.188	n/a	6	30	ButtonPress	Win	True
295.349	0.42	Win2	0.6129	n/a	Yes	2.781	n/a	n/a	GoodResponse	1	n/a	n/a	6	30	Blank	Win	True
295.767	1.45	Win2	0.6129	n/a	Yes	2.781	n/a	5.0	GoodResponse	1	0.008	294.775	6	30	Feedback	Win	True
297.221	2.781	Win2	0.6129	n/a	Yes	2.781	n/a	n/a	GoodResponse	1	0.0	n/a	6	30	ISIslide	Win	True
300.03	0.25	Lose2	0.5938	0.0	No	2.82	0.03	n/a	NoResponse	-1	n/a	n/a	5	31	Cue	Loss	False
300.28	4.05	Lose2	0.5938	0.0	No	2.82	0.0	4.0	NoResponse	-1	3.908	303.188	5	31	Fixation	Loss	False
304.188	0.3	Lose2	0.5938	0.0	No	2.82	0.0	4.0	NoResponse	-1	3.908	n/a	5	31	ButtonPress	Loss	False
304.326	0.29	Lose2	0.5938	0.004	No	2.82	-0.004	4.0	NoResponse	-1	0.333	303.659	5	31	Target	Loss	False
304.627	0.41	Lose2	0.5938	n/a	No	2.82	n/a	n/a	NoResponse	-1	n/a	n/a	5	31	Blank	Loss	False
304.659	0.3	Lose2	0.5938	0.004	No	2.82	-0.004	4.0	NoResponse	-1	0.333	n/a	5	31	ButtonPress	Loss	False
305.028	1.45	Lose2	0.5938	n/a	No	2.82	n/a	5.0	NoResponse	-1	0.015	304.043	5	31	Feedback	Loss	False
306.482	2.82	Lose2	0.5938	n/a	No	2.82	n/a	n/a	NoResponse	-1	0.0	n/a	5	31	ISIslide	Loss	False
309.324	0.25	Lose2	0.6061	0.0	Yes	2.626	0.024	n/a	GoodResponse	0	n/a	n/a	5	32	Cue	AvoidedLoss	True
309.575	4.15	Lose2	0.6061	0.0	Yes	2.626	0.001	n/a	GoodResponse	0	n/a	n/a	5	32	Fixation	AvoidedLoss	True
313.72	0.3	Lose2	0.6061	0.004	Yes	2.626	-0.004	4.0	GoodResponse	0	0.194	312.914	5	32	Target	AvoidedLoss	True
313.914	0.3	Lose2	0.6061	0.004	Yes	2.626	-0.004	4.0	GoodResponse	0	0.194	n/a	5	32	ButtonPress	AvoidedLoss	True
314.021	0.4	Lose2	0.6061	n/a	Yes	2.626	n/a	n/a	GoodResponse	0	n/a	n/a	5	32	Blank	AvoidedLoss	True
314.423	1.45	Lose2	0.6061	n/a	Yes	2.626	n/a	5.0	GoodResponse	0	0.035	313.458	5	32	Feedback	AvoidedLoss	True
315.877	2.626	Lose2	0.6061	n/a	Yes	2.626	n/a	n/a	GoodResponse	0	0.0	n/a	5	32	ISIslide	AvoidedLoss	True
318.518	0.25	Win2	0.6175999999999999	0.0	Yes	2.682	0.018	n/a	GoodResponse	1	n/a	n/a	6	33	Cue	Win	True
318.769	4.0	Win2	0.6175999999999999	0.0	Yes	2.682	0.001	n/a	GoodResponse	1	n/a	n/a	6	33	Fixation	Win	True
322.764	0.31	Win2	0.6175999999999999	0.004	Yes	2.682	-0.004	4.0	GoodResponse	1	0.223	321.987	6	33	Target	Win	True
322.987	0.3	Win2	0.6175999999999999	0.004	Yes	2.682	-0.004	4.0	GoodResponse	1	0.223	n/a	6	33	ButtonPress	Win	True
323.082	0.39	Win2	0.6175999999999999	n/a	Yes	2.682	n/a	n/a	GoodResponse	1	n/a	n/a	6	33	Blank	Win	True
323.466	1.45	Win2	0.6175999999999999	n/a	Yes	2.682	n/a	5.0	GoodResponse	1	0.015	322.481	6	33	Feedback	Win	True
324.921	2.682	Win2	0.6175999999999999	n/a	Yes	2.682	n/a	n/a	GoodResponse	1	0.0	n/a	6	33	ISIslide	Win	True
327.629	0.25	Lose2	0.6286	0.0	Yes	2.621	0.029	n/a	GoodResponse	0	n/a	n/a	6	34	Cue	AvoidedLoss	True
327.879	4.05	Lose2	0.6286	0.0	Yes	2.621	0.0	n/a	GoodResponse	0	n/a	n/a	6	34	Fixation	AvoidedLoss	True
331.925	0.32	Lose2	0.6286	0.004	Yes	2.621	-0.004	4.0	GoodResponse	0	0.227	331.152	6	34	Target	AvoidedLoss	True
332.152	0.3	Lose2	0.6286	0.004	Yes	2.621	-0.004	4.0	GoodResponse	0	0.227	n/a	6	34	ButtonPress	AvoidedLoss	True
332.259	0.38	Lose2	0.6286	n/a	Yes	2.621	n/a	n/a	GoodResponse	0	n/a	n/a	6	34	Blank	AvoidedLoss	True
332.627	1.45	Lose2	0.6286	n/a	Yes	2.621	n/a	5.0	GoodResponse	0	0.025	331.652	6	34	Feedback	AvoidedLoss	True
334.081	2.621	Lose2	0.6286	n/a	Yes	2.621	n/a	n/a	GoodResponse	0	0.0	n/a	6	34	ISIslide	AvoidedLoss	True
336.722	0.25	Lose2	0.6389	0.001	Yes	2.678	0.022	n/a	GoodResponse	0	n/a	n/a	6	35	Cue	AvoidedLoss	True
336.973	4.0	Lose2	0.6389	0.0	Yes	2.678	0.001	n/a	GoodResponse	0	n/a	n/a	6	35	Fixation	AvoidedLoss	True
340.968	0.33	Lose2	0.6389	0.004	Yes	2.678	-0.004	4.0	GoodResponse	0	0.212	340.18	6	35	Target	AvoidedLoss	True
341.18	0.3	Lose2	0.6389	0.004	Yes	2.678	-0.004	4.0	GoodResponse	0	0.212	n/a	6	35	ButtonPress	AvoidedLoss	True
341.303	0.37	Lose2	0.6389	n/a	Yes	2.678	n/a	n/a	GoodResponse	0	n/a	n/a	6	35	Blank	AvoidedLoss	True
341.671	1.45	Lose2	0.6389	n/a	Yes	2.678	n/a	5.0	GoodResponse	0	0.007	340.678	6	35	Feedback	AvoidedLoss	True
343.125	2.678	Lose2	0.6389	n/a	Yes	2.678	n/a	n/a	GoodResponse	0	0.0	n/a	6	35	ISIslide	AvoidedLoss	True
345.816	0.25	Control	0.6486	0.0	Yes	2.684	0.016	n/a	GoodResponse	0	n/a	n/a	6	36	Cue	Neutral	True
346.067	4.0	Control	0.6486	0.0	Yes	2.684	0.001	n/a	GoodResponse	0	n/a	n/a	6	36	Fixation	Neutral	True
350.062	0.34	Control	0.6486	0.004	Yes	2.684	-0.004	4.0	GoodResponse	0	0.297	349.359	6	36	Target	Neutral	True
350.359	0.3	Control	0.6486	0.004	Yes	2.684	-0.004	4.0	GoodResponse	0	0.297	n/a	6	36	ButtonPress	Neutral	True
350.413	0.36	Control	0.6486	n/a	Yes	2.684	n/a	n/a	GoodResponse	0	n/a	n/a	6	36	Blank	Neutral	True
350.764	1.45	Control	0.6486	n/a	Yes	2.684	n/a	5.0	GoodResponse	0	0.035	349.799	6	36	Feedback	Neutral	True
352.219	2.684	Control	0.6486	n/a	Yes	2.684	n/a	n/a	GoodResponse	0	0.0	n/a	6	36	ISIslide	Neutral	True
354.927	0.25	Win2	0.6579	0.0	Yes	2.873	0.027	n/a	GoodResponse	1	n/a	n/a	7	37	Cue	Win	True
355.178	4.0	Win2	0.6579	0.0	Yes	2.873	0.001	n/a	GoodResponse	1	n/a	n/a	7	37	Fixation	Win	True
359.173	0.35	Win2	0.6579	0.004	Yes	2.873	-0.004	4.0	GoodResponse	1	0.18	358.353	7	37	Target	Win	True
359.353	0.3	Win2	0.6579	0.004	Yes	2.873	-0.004	4.0	GoodResponse	1	0.18	n/a	7	37	ButtonPress	Win	True
359.524	0.35	Win2	0.6579	n/a	Yes	2.873	n/a	n/a	GoodResponse	1	n/a	n/a	7	37	Blank	Win	True
359.875	1.45	Win2	0.6579	n/a	Yes	2.873	n/a	5.0	GoodResponse	1	0.045	358.92	7	37	Feedback	Win	True
361.329	2.873	Win2	0.6579	n/a	Yes	2.873	n/a	n/a	GoodResponse	1	0.0	n/a	7	37	ISIslide	Win	True
364.221	0.25	Lose2	0.6667000000000001	0.0	Yes	2.829	0.021	n/a	GoodResponse	0	n/a	n/a	7	38	Cue	AvoidedLoss	True
364.472	3.95	Lose2	0.6667000000000001	0.0	Yes	2.829	0.001	n/a	GoodResponse	0	n/a	n/a	7	38	Fixation	AvoidedLoss	True
368.417	0.35	Lose2	0.6667000000000001	0.004	Yes	2.829	-0.004	4.0	GoodResponse	0	0.248	367.665	7	38	Target	AvoidedLoss	True
368.665	0.3	Lose2	0.6667000000000001	0.004	Yes	2.829	-0.004	4.0	GoodResponse	0	0.248	n/a	7	38	ButtonPress	AvoidedLoss	True
368.768	0.35	Lose2	0.6667000000000001	n/a	Yes	2.829	n/a	n/a	GoodResponse	0	n/a	n/a	7	38	Blank	AvoidedLoss	True
369.119	1.45	Lose2	0.6667000000000001	n/a	Yes	2.829	n/a	5.0	GoodResponse	0	0.02	368.139	7	38	Feedback	AvoidedLoss	True
370.574	2.829	Lose2	0.6667000000000001	n/a	Yes	2.829	n/a	n/a	GoodResponse	0	0.0	n/a	7	38	ISIslide	AvoidedLoss	True
373.415	0.25	Win2	0.675	0.0	Yes	2.985	0.015	n/a	GoodResponse	1	n/a	n/a	8	39	Cue	Win	True
373.666	4.1	Win2	0.675	0.0	Yes	2.985	0.001	n/a	GoodResponse	1	n/a	n/a	8	39	Fixation	Win	True
377.762	0.34	Win2	0.675	0.003	Yes	2.985	-0.003	4.0	GoodResponse	1	0.176	376.938	8	39	Target	Win	True
377.938	0.3	Win2	0.675	0.003	Yes	2.985	-0.003	4.0	GoodResponse	1	0.176	n/a	8	39	ButtonPress	Win	True
378.113	0.36	Win2	0.675	n/a	Yes	2.985	n/a	n/a	GoodResponse	1	n/a	n/a	8	39	Blank	Win	True
378.464	1.45	Win2	0.675	n/a	Yes	2.985	n/a	5.0	GoodResponse	1	0.041	377.505	8	39	Feedback	Win	True
379.918	2.985	Win2	0.675	n/a	Yes	2.985	n/a	n/a	GoodResponse	1	0.0	n/a	8	39	ISIslide	Win	True
382.927	0.25	Win2	0.6829000000000001	0.0	Yes	2.723	0.027	n/a	GoodResponse	1	n/a	n/a	9	40	Cue	Win	True
383.178	3.95	Win2	0.6829000000000001	0.0	Yes	2.723	0.001	n/a	GoodResponse	1	n/a	n/a	9	40	Fixation	Win	True
387.123	0.33	Win2	0.6829000000000001	0.004	Yes	2.723	-0.004	4.0	GoodResponse	1	0.176	386.299	9	40	Target	Win	True
387.299	0.3	Win2	0.6829000000000001	0.004	Yes	2.723	-0.004	4.0	GoodResponse	1	0.176	n/a	9	40	ButtonPress	Win	True
387.457	0.37	Win2	0.6829000000000001	n/a	Yes	2.723	n/a	n/a	GoodResponse	1	n/a	n/a	9	40	Blank	Win	True
387.825	1.45	Win2	0.6829000000000001	n/a	Yes	2.723	n/a	5.0	GoodResponse	1	0.046	386.871	9	40	Feedback	Win	True
389.279	2.723	Win2	0.6829000000000001	n/a	Yes	2.723	n/a	n/a	GoodResponse	1	0.0	n/a	9	40	ISIslide	Win	True
392.021	0.25	Win2	0.6905	0.0	Yes	2.779	0.021	n/a	GoodResponse	1	n/a	n/a	10	41	Cue	Win	True
392.272	3.9	Win2	0.6905	0.0	Yes	2.779	0.001	n/a	GoodResponse	1	n/a	n/a	10	41	Fixation	Win	True
396.167	0.32	Win2	0.6905	0.004	Yes	2.779	-0.004	4.0	GoodResponse	1	0.221	395.388	10	41	Target	Win	True
396.388	0.3	Win2	0.6905	0.004	Yes	2.779	-0.004	4.0	GoodResponse	1	0.221	n/a	10	41	ButtonPress	Win	True
396.501	0.38	Win2	0.6905	n/a	Yes	2.779	n/a	n/a	GoodResponse	1	n/a	n/a	10	41	Blank	Win	True
396.869	1.45	Win2	0.6905	n/a	Yes	2.779	n/a	5.0	GoodResponse	1	0.026	395.895	10	41	Feedback	Win	True
398.323	2.779	Win2	0.6905	n/a	Yes	2.779	n/a	n/a	GoodResponse	1	0.0	n/a	10	41	ISIslide	Win	True
401.115	0.25	Control	0.6744	0.0	No	2.935	0.015	n/a	NoResponse	0	n/a	n/a	10	42	Cue	Neutral	False
401.366	3.85	Control	0.6744	0.0	No	2.935	0.001	n/a	NoResponse	0	n/a	n/a	10	42	Fixation	Neutral	False
405.227	0.31	Control	0.6744	0.0	No	2.935	0.012	n/a	NoResponse	0	n/a	n/a	10	42	Target	Neutral	False
405.528	0.39	Control	0.6744	n/a	No	2.935	n/a	n/a	NoResponse	0	n/a	n/a	10	42	Blank	Neutral	False
405.912	1.45	Control	0.6744	n/a	No	2.935	n/a	5.0	NoResponse	0	0.009	404.921	10	42	Feedback	Neutral	False
407.367	2.935	Control	0.6744	n/a	No	2.935	n/a	n/a	NoResponse	0	0.0	n/a	10	42	ISIslide	Neutral	False
410.326	0.25	Win2	0.6818000000000001	0.0	Yes	3.174	0.026	n/a	GoodResponse	1	n/a	n/a	11	43	Cue	Win	True
410.576	4.0	Win2	0.6818000000000001	0.0	Yes	3.174	0.0	n/a	GoodResponse	1	n/a	n/a	11	43	Fixation	Win	True
414.572	0.3	Win2	0.6818000000000001	0.004	Yes	3.174	-0.004	4.0	GoodResponse	1	0.221	413.793	11	43	Target	Win	True
414.793	0.3	Win2	0.6818000000000001	0.004	Yes	3.174	-0.004	4.0	GoodResponse	1	0.221	n/a	11	43	ButtonPress	Win	True
414.873	0.4	Win2	0.6818000000000001	n/a	Yes	3.174	n/a	n/a	GoodResponse	1	n/a	n/a	11	43	Blank	Win	True
415.274	1.45	Win2	0.6818000000000001	n/a	Yes	3.174	n/a	5.0	GoodResponse	1	0.011	414.285	11	43	Feedback	Win	True
416.728	3.174	Win2	0.6818000000000001	n/a	Yes	3.174	n/a	n/a	GoodResponse	1	0.0	n/a	11	43	ISIslide	Win	True
419.921	0.25	Win2	0.6889	0.0	Yes	2.979	0.021	n/a	GoodResponse	1	n/a	n/a	12	44	Cue	Win	True
420.172	4.0	Win2	0.6889	0.0	Yes	2.979	0.001	n/a	GoodResponse	1	n/a	n/a	12	44	Fixation	Win	True
424.167	0.29	Win2	0.6889	0.004	Yes	2.979	-0.004	4.0	GoodResponse	1	0.192	423.359	12	44	Target	Win	True
424.359	0.3	Win2	0.6889	0.004	Yes	2.979	-0.004	4.0	GoodResponse	1	0.192	n/a	12	44	ButtonPress	Win	True
424.468	0.41	Win2	0.6889	n/a	Yes	2.979	n/a	n/a	GoodResponse	1	n/a	n/a	12	44	Blank	Win	True
424.869	1.45	Win2	0.6889	n/a	Yes	2.979	n/a	5.0	GoodResponse	1	0.026	423.895	12	44	Feedback	Win	True
426.323	2.979	Win2	0.6889	n/a	Yes	2.979	n/a	n/a	GoodResponse	1	0.0	n/a	12	44	ISIslide	Win	True
429.316	0.25	Control	0.6739	0.0	No	2.884	0.016	n/a	NoResponse	0	n/a	n/a	12	45	Cue	Neutral	False
429.566	4.1	Control	0.6739	0.0	No	2.884	0.0	n/a	NoResponse	0	n/a	n/a	12	45	Fixation	Neutral	False
433.662	0.28	Control	0.6739	0.004	No	2.884	-0.004	n/a	NoResponse	0	n/a	n/a	12	45	Target	Neutral	False
433.946	0.42	Control	0.6739	n/a	No	2.884	n/a	n/a	NoResponse	0	n/a	n/a	12	45	Blank	Neutral	False
434.364	1.45	Control	0.6739	n/a	No	2.884	n/a	5.0	NoResponse	0	0.042	433.406	12	45	Feedback	Neutral	False
435.818	2.884	Control	0.6739	n/a	No	2.884	n/a	n/a	NoResponse	0	0.0	n/a	12	45	ISIslide	Neutral	False
438.727	0.25	Lose2	0.6809000000000001	0.0	Yes	3.373	0.027	n/a	GoodResponse	0	n/a	n/a	12	46	Cue	AvoidedLoss	True
438.978	4.0	Lose2	0.6809000000000001	0.0	Yes	3.373	0.001	n/a	GoodResponse	0	n/a	n/a	12	46	Fixation	AvoidedLoss	True
442.973	0.27	Lose2	0.6809000000000001	0.004	Yes	3.373	-0.004	4.0	GoodResponse	0	0.198	442.171	12	46	Target	AvoidedLoss	True
443.171	0.3	Lose2	0.6809000000000001	0.004	Yes	3.373	-0.004	4.0	GoodResponse	0	0.198	n/a	12	46	ButtonPress	AvoidedLoss	True
443.257	0.43	Lose2	0.6809000000000001	n/a	Yes	3.373	n/a	n/a	GoodResponse	0	n/a	n/a	12	46	Blank	AvoidedLoss	True
443.675	1.45	Lose2	0.6809000000000001	n/a	Yes	3.373	n/a	5.0	GoodResponse	0	0.048	442.723	12	46	Feedback	AvoidedLoss	True
445.13	3.373	Lose2	0.6809000000000001	n/a	Yes	3.373	n/a	n/a	GoodResponse	0	0.0	n/a	12	46	ISIslide	AvoidedLoss	True
448.523	0.25	Lose2	0.6667000000000001	0.0	No	2.677	0.023	n/a	NoResponse	-1	n/a	n/a	11	47	Cue	Loss	False
448.774	4.0	Lose2	0.6667000000000001	0.0	No	2.677	0.001	n/a	NoResponse	-1	n/a	n/a	11	47	Fixation	Loss	False
452.769	0.26	Lose2	0.6667000000000001	0.004	No	2.677	-0.004	n/a	NoResponse	-1	n/a	n/a	11	47	Target	Loss	False
453.036	0.44	Lose2	0.6667000000000001	n/a	No	2.677	n/a	n/a	NoResponse	-1	n/a	n/a	11	47	Blank	Loss	False
453.471	1.45	Lose2	0.6667000000000001	n/a	No	2.677	n/a	5.0	NoResponse	-1	0.009	452.48	11	47	Feedback	Loss	False
454.925	2.677	Lose2	0.6667000000000001	n/a	No	2.677	n/a	n/a	NoResponse	-1	0.0	n/a	11	47	ISIslide	Loss	False
457.617	0.25	Lose2	0.6735	0.0	Yes	3.033	0.017	n/a	GoodResponse	0	n/a	n/a	11	48	Cue	AvoidedLoss	True
457.868	3.95	Lose2	0.6735	0.0	Yes	3.033	0.001	n/a	GoodResponse	0	n/a	n/a	11	48	Fixation	AvoidedLoss	True
461.813	0.25	Lose2	0.6735	0.004	Yes	3.033	-0.004	4.0	GoodResponse	0	0.183	460.996	11	48	Target	AvoidedLoss	True
461.996	0.3	Lose2	0.6735	0.004	Yes	3.033	-0.004	4.0	GoodResponse	0	0.183	n/a	11	48	ButtonPress	AvoidedLoss	True
462.063	0.45	Lose2	0.6735	n/a	Yes	3.033	n/a	n/a	GoodResponse	0	n/a	n/a	11	48	Blank	AvoidedLoss	True
462.515	1.45	Lose2	0.6735	n/a	Yes	3.033	n/a	5.0	GoodResponse	0	0.038	461.553	11	48	Feedback	AvoidedLoss	True
463.969	3.033	Lose2	0.6735	n/a	Yes	3.033	n/a	n/a	GoodResponse	0	0.0	n/a	11	48	ISIslide	AvoidedLoss	True
467.028	0.25	Control	0.66	0.0	No	2.872	0.028	n/a	NoResponse	0	n/a	n/a	11	49	Cue	Neutral	False
467.279	4.0	Control	0.66	0.0	No	2.872	0.001	n/a	NoResponse	0	n/a	n/a	11	49	Fixation	Neutral	False
471.274	0.24	Control	0.66	0.004	No	2.872	-0.004	n/a	NoResponse	0	n/a	n/a	11	49	Target	Neutral	False
471.525	0.46	Control	0.66	n/a	No	2.872	n/a	n/a	NoResponse	0	n/a	n/a	11	49	Blank	Neutral	False
471.976	1.45	Control	0.66	n/a	No	2.872	n/a	5.0	NoResponse	0	0.039	471.015	11	49	Feedback	Neutral	False
473.431	2.872	Control	0.66	n/a	No	2.872	n/a	n/a	NoResponse	0	0.0	n/a	11	49	ISIslide	Neutral	False
476.323	0.25	Control	0.6470999999999999	0.0	No	2.777	0.023	n/a	NoResponse	0	n/a	n/a	11	50	Cue	Neutral	False
476.573	4.0	Control	0.6470999999999999	0.001	No	2.777	0.0	n/a	NoResponse	0	n/a	n/a	11	50	Fixation	Neutral	False
480.569	0.24	Control	0.6470999999999999	0.004	No	2.777	-0.004	n/a	NoResponse	0	n/a	n/a	11	50	Target	Neutral	False
480.819	0.46	Control	0.6470999999999999	n/a	No	2.777	n/a	n/a	NoResponse	0	n/a	n/a	11	50	Blank	Neutral	False
481.271	1.45	Control	0.6470999999999999	n/a	No	2.777	n/a	5.0	NoResponse	0	0.013	480.284	11	50	Feedback	Neutral	False
482.725	2.777	Control	0.6470999999999999	n/a	No	2.777	n/a	n/a	NoResponse	0	0.0	n/a	11	50	ISIslide	Neutral	False
485.517	0.25	Control	0.6346	0.0	No	2.733	0.017	n/a	NoResponse	0	n/a	n/a	11	51	Cue	Neutral	False
485.768	3.95	Control	0.6346	0.0	No	2.733	0.001	n/a	NoResponse	0	n/a	n/a	11	51	Fixation	Neutral	False
489.713	0.25	Control	0.6346	0.004	No	2.733	-0.004	n/a	NoResponse	0	n/a	n/a	11	51	Target	Neutral	False
489.963	0.45	Control	0.6346	n/a	No	2.733	n/a	n/a	NoResponse	0	n/a	n/a	11	51	Blank	Neutral	False
490.415	1.45	Control	0.6346	n/a	No	2.733	n/a	5.0	NoResponse	0	0.04	489.455	11	51	Feedback	Neutral	False
491.869	2.733	Control	0.6346	n/a	No	2.733	n/a	n/a	NoResponse	0	0.0	n/a	11	51	ISIslide	Neutral	False
494.627	0.25	Control	0.6225999999999999	0.0	No	2.623	0.027	n/a	NoResponse	0	n/a	n/a	11	52	Cue	Neutral	False
494.878	4.05	Control	0.6225999999999999	0.0	No	2.623	0.001	n/a	NoResponse	0	n/a	n/a	11	52	Fixation	Neutral	False
498.924	0.26	Control	0.6225999999999999	0.003	No	2.623	-0.003	n/a	NoResponse	0	n/a	n/a	11	52	Target	Neutral	False
499.191	0.44	Control	0.6225999999999999	n/a	No	2.623	n/a	n/a	NoResponse	0	n/a	n/a	11	52	Blank	Neutral	False
499.626	1.45	Control	0.6225999999999999	n/a	No	2.623	n/a	5.0	NoResponse	0	0.048	498.674	11	52	Feedback	Neutral	False
501.08	2.623	Control	0.6225999999999999	n/a	No	2.623	n/a	n/a	NoResponse	0	0.0	n/a	11	52	ISIslide	Neutral	False
503.721	0.25	Win2	0.6296	0.0	Yes	2.929	0.021	n/a	GoodResponse	1	n/a	n/a	12	53	Cue	Win	True
503.972	4.05	Win2	0.6296	0.0	Yes	2.929	0.001	n/a	GoodResponse	1	n/a	n/a	12	53	Fixation	Win	True
508.017	0.27	Win2	0.6296	0.004	Yes	2.929	-0.004	4.0	GoodResponse	1	0.185	507.202	12	53	Target	Win	True
508.202	0.3	Win2	0.6296	0.004	Yes	2.929	-0.004	4.0	GoodResponse	1	0.185	n/a	12	53	ButtonPress	Win	True
508.302	0.43	Win2	0.6296	n/a	Yes	2.929	n/a	n/a	GoodResponse	1	n/a	n/a	12	53	Blank	Win	True
508.719	1.45	Win2	0.6296	n/a	Yes	2.929	n/a	5.0	GoodResponse	1	0.028	507.747	12	53	Feedback	Win	True
510.174	2.929	Win2	0.6296	n/a	Yes	2.929	n/a	n/a	GoodResponse	1	0.0	n/a	12	53	ISIslide	Win	True
513.116	0.25	Win2	0.6364	0.0	Yes	2.734	0.016	n/a	GoodResponse	1	n/a	n/a	13	54	Cue	Win	True
513.367	3.95	Win2	0.6364	0.0	Yes	2.734	0.001	n/a	GoodResponse	1	n/a	n/a	13	54	Fixation	Win	True
517.312	0.28	Win2	0.6364	0.004	Yes	2.734	-0.004	4.0	GoodResponse	1	0.176	516.488	13	54	Target	Win	True
517.488	0.3	Win2	0.6364	0.004	Yes	2.734	-0.004	4.0	GoodResponse	1	0.176	n/a	13	54	ButtonPress	Win	True
517.596	0.42	Win2	0.6364	n/a	Yes	2.734	n/a	n/a	GoodResponse	1	n/a	n/a	13	54	Blank	Win	True
518.014	1.45	Win2	0.6364	n/a	Yes	2.734	n/a	5.0	GoodResponse	1	0.001	517.015	13	54	Feedback	Win	True
519.468	2.734	Win2	0.6364	n/a	Yes	2.734	n/a	n/a	GoodResponse	1	0.0	n/a	13	54	ISIslide	Win	True
522.226	0.25	Control	0.6429	0.001	Yes	3.024	0.026	n/a	GoodResponse	0	n/a	n/a	13	55	Cue	Neutral	True
522.477	3.95	Control	0.6429	0.0	Yes	3.024	0.001	n/a	GoodResponse	0	n/a	n/a	13	55	Fixation	Neutral	True
526.422	0.29	Control	0.6429	0.004	Yes	3.024	-0.004	4.0	GoodResponse	0	0.221	525.643	13	55	Target	Neutral	True
526.643	0.3	Control	0.6429	0.004	Yes	3.024	-0.004	4.0	GoodResponse	0	0.221	n/a	13	55	ButtonPress	Neutral	True
526.723	0.41	Control	0.6429	n/a	Yes	3.024	n/a	n/a	GoodResponse	0	n/a	n/a	13	55	Blank	Neutral	True
527.124	1.45	Control	0.6429	n/a	Yes	3.024	n/a	5.0	GoodResponse	0	0.013	526.137	13	55	Feedback	Neutral	True
528.579	3.024	Control	0.6429	n/a	Yes	3.024	n/a	n/a	GoodResponse	0	0.0	n/a	13	55	ISIslide	Neutral	True
531.621	0.25	Control	0.6491	0.0	Yes	2.829	0.021	n/a	GoodResponse	0	n/a	n/a	13	56	Cue	Neutral	True
531.872	3.95	Control	0.6491	0.0	Yes	2.829	0.001	n/a	GoodResponse	0	n/a	n/a	13	56	Fixation	Neutral	True
535.817	0.3	Control	0.6491	0.004	Yes	2.829	-0.004	4.0	GoodResponse	0	0.173	534.99	13	56	Target	Neutral	True
535.99	0.3	Control	0.6491	0.004	Yes	2.829	-0.004	4.0	GoodResponse	0	0.173	n/a	13	56	ButtonPress	Neutral	True
536.118	0.4	Control	0.6491	n/a	Yes	2.829	n/a	n/a	GoodResponse	0	n/a	n/a	13	56	Blank	Neutral	True
536.519	1.45	Control	0.6491	n/a	Yes	2.829	n/a	5.0	GoodResponse	0	0.033	535.552	13	56	Feedback	Neutral	True
537.973	2.829	Control	0.6491	n/a	Yes	2.829	n/a	n/a	GoodResponse	0	0.0	n/a	13	56	ISIslide	Neutral	True
540.815	0.25	Control	0.6379	0.0	No	3.485	0.015	n/a	NoResponse	0	n/a	n/a	13	57	Cue	Neutral	False
541.066	4.0	Control	0.6379	0.0	No	3.485	0.001	n/a	NoResponse	0	n/a	n/a	13	57	Fixation	Neutral	False
545.061	0.31	Control	0.6379	0.004	No	3.485	-0.004	n/a	NoResponse	0	n/a	n/a	13	57	Target	Neutral	False
545.379	0.39	Control	0.6379	n/a	No	3.485	n/a	n/a	NoResponse	0	n/a	n/a	13	57	Blank	Neutral	False
545.763	1.45	Control	0.6379	n/a	No	3.485	n/a	5.0	NoResponse	0	0.008	544.771	13	57	Feedback	Neutral	False
547.218	3.485	Control	0.6379	n/a	No	3.485	n/a	n/a	NoResponse	0	0.0	n/a	13	57	ISIslide	Neutral	False
550.728	0.25	Win2	0.6441	0.0	Yes	2.722	0.028	n/a	GoodResponse	1	n/a	n/a	14	58	Cue	Win	True
550.979	4.05	Win2	0.6441	0.0	Yes	2.722	0.001	n/a	GoodResponse	1	n/a	n/a	14	58	Fixation	Win	True
555.024	0.32	Win2	0.6441	0.004	Yes	2.722	-0.004	4.0	GoodResponse	1	0.213	554.237	14	58	Target	Win	True
555.237	0.3	Win2	0.6441	0.004	Yes	2.722	-0.004	4.0	GoodResponse	1	0.213	n/a	14	58	ButtonPress	Win	True
555.359	0.38	Win2	0.6441	n/a	Yes	2.722	n/a	n/a	GoodResponse	1	n/a	n/a	14	58	Blank	Win	True
555.727	1.45	Win2	0.6441	n/a	Yes	2.722	n/a	5.0	GoodResponse	1	0.043	554.77	14	58	Feedback	Win	True
557.181	2.722	Win2	0.6441	n/a	Yes	2.722	n/a	n/a	GoodResponse	1	0.0	n/a	14	58	ISIslide	Win	True
559.922	0.25	Lose2	0.65	0.0	Yes	2.678	0.022	n/a	GoodResponse	0	n/a	n/a	14	59	Cue	AvoidedLoss	True
560.173	4.0	Lose2	0.65	0.0	Yes	2.678	0.001	n/a	GoodResponse	0	n/a	n/a	14	59	Fixation	AvoidedLoss	True
564.168	0.33	Lose2	0.65	0.004	Yes	2.678	-0.004	4.0	GoodResponse	0	0.192	563.36	14	59	Target	AvoidedLoss	True
564.36	0.3	Lose2	0.65	0.004	Yes	2.678	-0.004	4.0	GoodResponse	0	0.192	n/a	14	59	ButtonPress	AvoidedLoss	True
564.503	0.37	Lose2	0.65	n/a	Yes	2.678	n/a	n/a	GoodResponse	0	n/a	n/a	14	59	Blank	AvoidedLoss	True
564.87	1.45	Lose2	0.65	n/a	Yes	2.678	n/a	5.0	GoodResponse	0	0.022	563.892	14	59	Feedback	AvoidedLoss	True
566.325	2.678	Lose2	0.65	n/a	Yes	2.678	n/a	n/a	GoodResponse	0	0.0	n/a	14	59	ISIslide	AvoidedLoss	True
569.016	0.25	Control	0.6557	0.0	Yes	2.684	0.016	n/a	GoodResponse	0	n/a	n/a	14	60	Cue	Neutral	True
569.267	4.0	Control	0.6557	0.0	Yes	2.684	0.001	n/a	GoodResponse	0	n/a	n/a	14	60	Fixation	Neutral	True
573.262	0.34	Control	0.6557	0.004	Yes	2.684	-0.004	4.0	GoodResponse	0	0.222	572.484	14	60	Target	Neutral	True
573.484	0.3	Control	0.6557	0.004	Yes	2.684	-0.004	4.0	GoodResponse	0	0.222	n/a	14	60	ButtonPress	Neutral	True
573.613	0.36	Control	0.6557	n/a	Yes	2.684	n/a	n/a	GoodResponse	0	n/a	n/a	14	60	Blank	Neutral	True
573.964	1.45	Control	0.6557	n/a	Yes	2.684	n/a	5.0	GoodResponse	0	0.002	572.966	14	60	Feedback	Neutral	True
575.419	2.684	Control	0.6557	n/a	Yes	2.684	n/a	n/a	GoodResponse	0	0.0	n/a	14	60	ISIslide	Neutral	True
578.127	0.25	Lose2	0.6613	0.0	Yes	2.973	0.027	n/a	GoodResponse	0	n/a	n/a	14	61	Cue	AvoidedLoss	True
578.378	4.0	Lose2	0.6613	0.0	Yes	2.973	0.001	n/a	GoodResponse	0	n/a	n/a	14	61	Fixation	AvoidedLoss	True
582.373	0.34	Lose2	0.6613	0.004	Yes	2.973	-0.004	4.0	GoodResponse	0	0.223	581.596	14	61	Target	AvoidedLoss	True
582.596	0.3	Lose2	0.6613	0.004	Yes	2.973	-0.004	4.0	GoodResponse	0	0.223	n/a	14	61	ButtonPress	AvoidedLoss	True
582.724	0.36	Lose2	0.6613	n/a	Yes	2.973	n/a	n/a	GoodResponse	0	n/a	n/a	14	61	Blank	AvoidedLoss	True
583.075	1.45	Lose2	0.6613	n/a	Yes	2.973	n/a	5.0	GoodResponse	0	0.012	582.087	14	61	Feedback	AvoidedLoss	True
584.529	2.973	Lose2	0.6613	n/a	Yes	2.973	n/a	n/a	GoodResponse	0	0.0	n/a	14	61	ISIslide	AvoidedLoss	True
587.521	0.25	Lose2	0.6667000000000001	0.001	Yes	2.879	0.021	n/a	GoodResponse	0	n/a	n/a	14	62	Cue	AvoidedLoss	True
587.772	3.9	Lose2	0.6667000000000001	0.0	Yes	2.879	0.001	n/a	GoodResponse	0	n/a	n/a	14	62	Fixation	AvoidedLoss	True
591.667	0.34	Lose2	0.6667000000000001	0.004	Yes	2.879	-0.004	4.0	GoodResponse	0	0.271	590.938	14	62	Target	AvoidedLoss	True
591.938	0.3	Lose2	0.6667000000000001	0.004	Yes	2.879	-0.004	4.0	GoodResponse	0	0.271	n/a	14	62	ButtonPress	AvoidedLoss	True
592.018	0.36	Lose2	0.6667000000000001	n/a	Yes	2.879	n/a	n/a	GoodResponse	0	n/a	n/a	14	62	Blank	AvoidedLoss	True
592.369	1.45	Lose2	0.6667000000000001	n/a	Yes	2.879	n/a	5.0	GoodResponse	0	0.035	591.404	14	62	Feedback	AvoidedLoss	True
593.824	2.879	Lose2	0.6667000000000001	n/a	Yes	2.879	n/a	n/a	GoodResponse	0	0.0	n/a	14	62	ISIslide	AvoidedLoss	True
596.716	0.25	Lose2	0.6718999999999999	0.0	Yes	2.634	0.016	n/a	GoodResponse	0	n/a	n/a	14	63	Cue	AvoidedLoss	True
596.966	4.05	Lose2	0.6718999999999999	0.0	Yes	2.634	0.0	n/a	GoodResponse	0	n/a	n/a	14	63	Fixation	AvoidedLoss	True
601.012	0.33	Lose2	0.6718999999999999	0.004	Yes	2.634	-0.004	4.0	GoodResponse	0	0.265	600.277	14	63	Target	AvoidedLoss	True
601.277	0.3	Lose2	0.6718999999999999	0.004	Yes	2.634	-0.004	4.0	GoodResponse	0	0.265	n/a	14	63	ButtonPress	AvoidedLoss	True
601.346	0.37	Lose2	0.6718999999999999	n/a	Yes	2.634	n/a	n/a	GoodResponse	0	n/a	n/a	14	63	Blank	AvoidedLoss	True
601.714	1.45	Lose2	0.6718999999999999	n/a	Yes	2.634	n/a	5.0	GoodResponse	0	0.008	600.722	14	63	Feedback	AvoidedLoss	True
603.168	2.634	Lose2	0.6718999999999999	n/a	Yes	2.634	n/a	n/a	GoodResponse	0	0.0	n/a	14	63	ISIslide	AvoidedLoss	True
605.826	0.25	Win2	0.6769	0.0	Yes	3.124	0.026	n/a	GoodResponse	1	n/a	n/a	15	64	Cue	Win	True
606.077	4.15	Win2	0.6769	0.0	Yes	3.124	0.001	n/a	GoodResponse	1	n/a	n/a	15	64	Fixation	Win	True
610.223	0.32	Win2	0.6769	0.003	Yes	3.124	-0.003	4.0	GoodResponse	1	0.196	609.419	15	64	Target	Win	True
610.419	0.3	Win2	0.6769	0.003	Yes	3.124	-0.003	4.0	GoodResponse	1	0.196	n/a	15	64	ButtonPress	Win	True
610.557	0.38	Win2	0.6769	n/a	Yes	3.124	n/a	n/a	GoodResponse	1	n/a	n/a	15	64	Blank	Win	True
610.925	1.45	Win2	0.6769	n/a	Yes	3.124	n/a	5.0	GoodResponse	1	0.016	609.941	15	64	Feedback	Win	True
612.379	3.124	Win2	0.6769	n/a	Yes	3.124	n/a	n/a	GoodResponse	1	0.0	n/a	15	64	ISIslide	Win	True
615.522	0.25	Control	0.6667000000000001	0.0	No	2.778	0.022	n/a	NoResponse	0	n/a	n/a	15	65	Cue	Neutral	False
615.773	4.0	Control	0.6667000000000001	0.0	No	2.778	0.001	n/a	NoResponse	0	n/a	n/a	15	65	Fixation	Neutral	False
619.768	0.31	Control	0.6667000000000001	0.004	No	2.778	-0.004	n/a	NoResponse	0	n/a	n/a	15	65	Target	Neutral	False
620.085	0.39	Control	0.6667000000000001	n/a	No	2.778	n/a	n/a	NoResponse	0	n/a	n/a	15	65	Blank	Neutral	False
620.47	1.45	Control	0.6667000000000001	n/a	No	2.778	n/a	5.0	NoResponse	0	0.031	619.501	15	65	Feedback	Neutral	False
621.924	2.778	Control	0.6667000000000001	n/a	No	2.778	n/a	n/a	NoResponse	0	0.0	n/a	15	65	ISIslide	Neutral	False
624.716	0.25	Win2	0.6716	0.0	Yes	2.784	0.016	n/a	GoodResponse	1	n/a	n/a	16	66	Cue	Win	True
624.967	3.9	Win2	0.6716	0.0	Yes	2.784	0.001	n/a	GoodResponse	1	n/a	n/a	16	66	Fixation	Win	True
628.862	0.3	Win2	0.6716	0.004	Yes	2.784	-0.004	4.0	GoodResponse	1	0.174	628.036	16	66	Target	Win	True
629.036	0.3	Win2	0.6716	0.004	Yes	2.784	-0.004	4.0	GoodResponse	1	0.174	n/a	16	66	ButtonPress	Win	True
629.163	0.4	Win2	0.6716	n/a	Yes	2.784	n/a	n/a	GoodResponse	1	n/a	n/a	16	66	Blank	Win	True
629.564	1.45	Win2	0.6716	n/a	Yes	2.784	n/a	5.0	GoodResponse	1	0.01	628.574	16	66	Feedback	Win	True
631.018	2.784	Win2	0.6716	n/a	Yes	2.784	n/a	n/a	GoodResponse	1	0.0	n/a	16	66	ISIslide	Win	True
633.826	0.25	Control	0.6618	0.001	No	2.724	0.026	n/a	NoResponse	0	n/a	n/a	16	67	Cue	Neutral	False
634.077	3.95	Control	0.6618	0.0	No	2.724	0.001	n/a	NoResponse	0	n/a	n/a	16	67	Fixation	Neutral	False
638.022	0.29	Control	0.6618	0.004	No	2.724	-0.004	n/a	NoResponse	0	n/a	n/a	16	67	Target	Neutral	False
638.323	0.41	Control	0.6618	n/a	No	2.724	n/a	n/a	NoResponse	0	n/a	n/a	16	67	Blank	Neutral	False
638.724	1.45	Control	0.6618	n/a	No	2.724	n/a	5.0	NoResponse	0	0.021	637.745	16	67	Feedback	Neutral	False
640.179	2.724	Control	0.6618	n/a	No	2.724	n/a	n/a	NoResponse	0	0.0	n/a	16	67	ISIslide	Neutral	False
642.92	0.25	Win2	0.6667000000000001	0.0	Yes	3.08	0.02	n/a	GoodResponse	1	n/a	n/a	17	68	Cue	Win	True
643.171	4.0	Win2	0.6667000000000001	0.0	Yes	3.08	0.001	n/a	GoodResponse	1	n/a	n/a	17	68	Fixation	Win	True
647.166	0.29	Win2	0.6667000000000001	0.004	Yes	3.08	-0.004	4.0	GoodResponse	1	0.231	646.397	17	68	Target	Win	True
647.397	0.3	Win2	0.6667000000000001	0.004	Yes	3.08	-0.004	4.0	GoodResponse	1	0.231	n/a	17	68	ButtonPress	Win	True
647.467	0.41	Win2	0.6667000000000001	n/a	Yes	3.08	n/a	n/a	GoodResponse	1	n/a	n/a	17	68	Blank	Win	True
647.868	1.45	Win2	0.6667000000000001	n/a	Yes	3.08	n/a	5.0	GoodResponse	1	0.048	646.916	17	68	Feedback	Win	True
649.323	3.08	Win2	0.6667000000000001	n/a	Yes	3.08	n/a	n/a	GoodResponse	1	0.0	n/a	17	68	ISIslide	Win	True
652.415	0.25	Win2	0.6714	0.0	Yes	3.235	0.015	n/a	GoodResponse	1	n/a	n/a	18	69	Cue	Win	True
652.666	3.95	Win2	0.6714	0.0	Yes	3.235	0.001	n/a	GoodResponse	1	n/a	n/a	18	69	Fixation	Win	True
656.611	0.28	Win2	0.6714	0.004	Yes	3.235	-0.004	4.0	GoodResponse	1	0.204	655.815	18	69	Target	Win	True
656.815	0.3	Win2	0.6714	0.004	Yes	3.235	-0.004	4.0	GoodResponse	1	0.204	n/a	18	69	ButtonPress	Win	True
656.895	0.42	Win2	0.6714	n/a	Yes	3.235	n/a	n/a	GoodResponse	1	n/a	n/a	18	69	Blank	Win	True
657.313	1.45	Win2	0.6714	n/a	Yes	3.235	n/a	5.0	GoodResponse	1	0.016	656.329	18	69	Feedback	Win	True
658.768	3.235	Win2	0.6714	n/a	Yes	3.235	n/a	n/a	GoodResponse	1	0.0	n/a	18	69	ISIslide	Win	True
662.027	0.25	Lose2	0.6761	0.0	Yes	3.023	0.027	n/a	GoodResponse	0	n/a	n/a	18	70	Cue	AvoidedLoss	True
662.278	4.05	Lose2	0.6761	0.0	Yes	3.023	0.001	n/a	GoodResponse	0	n/a	n/a	18	70	Fixation	AvoidedLoss	True
666.323	0.27	Lose2	0.6761	0.004	Yes	3.023	-0.004	4.0	GoodResponse	0	0.216	665.539	18	70	Target	AvoidedLoss	True
666.539	0.3	Lose2	0.6761	0.004	Yes	3.023	-0.004	4.0	GoodResponse	0	0.216	n/a	18	70	ButtonPress	AvoidedLoss	True
666.608	0.43	Lose2	0.6761	n/a	Yes	3.023	n/a	n/a	GoodResponse	0	n/a	n/a	18	70	Blank	AvoidedLoss	True
667.026	1.45	Lose2	0.6761	n/a	Yes	3.023	n/a	5.0	GoodResponse	0	0.011	666.037	18	70	Feedback	AvoidedLoss	True
668.48	3.023	Lose2	0.6761	n/a	Yes	3.023	n/a	n/a	GoodResponse	0	0.0	n/a	18	70	ISIslide	AvoidedLoss	True
671.522	0.25	Win2	0.6806	0.0	Yes	2.728	0.022	n/a	GoodResponse	1	n/a	n/a	19	71	Cue	Win	True
671.773	4.05	Win2	0.6806	0.0	Yes	2.728	0.001	n/a	GoodResponse	1	n/a	n/a	19	71	Fixation	Win	True
675.819	0.26	Win2	0.6806	0.003	Yes	2.728	-0.003	4.0	GoodResponse	1	0.231	675.05	19	71	Target	Win	True
676.05	0.3	Win2	0.6806	0.003	Yes	2.728	-0.003	4.0	GoodResponse	1	0.231	n/a	19	71	ButtonPress	Win	True
676.086	0.44	Win2	0.6806	n/a	Yes	2.728	n/a	n/a	GoodResponse	1	n/a	n/a	19	71	Blank	Win	True
676.521	1.45	Win2	0.6806	n/a	Yes	2.728	n/a	5.0	GoodResponse	1	0.028	675.549	19	71	Feedback	Win	True
677.975	2.728	Win2	0.6806	n/a	Yes	2.728	n/a	n/a	GoodResponse	1	0.0	n/a	19	71	ISIslide	Win	True
680.716	0.25	Win2	0.6849	0.001	Yes	2.784	0.016	n/a	GoodResponse	1	n/a	n/a	20	72	Cue	Win	True
680.967	4.1	Win2	0.6849	0.0	Yes	2.784	0.001	n/a	GoodResponse	1	n/a	n/a	20	72	Fixation	Win	True
685.063	0.25	Win2	0.6849	0.003	Yes	2.784	-0.003	4.0	GoodResponse	1	0.204	684.267	20	72	Target	Win	True
685.267	0.3	Win2	0.6849	0.003	Yes	2.784	-0.003	4.0	GoodResponse	1	0.204	n/a	20	72	ButtonPress	Win	True
685.314	0.45	Win2	0.6849	n/a	Yes	2.784	n/a	n/a	GoodResponse	1	n/a	n/a	20	72	Blank	Win	True
685.765	1.45	Win2	0.6849	n/a	Yes	2.784	n/a	5.0	GoodResponse	1	0.007	684.772	20	72	Feedback	Win	True
687.219	2.784	Win2	0.6849	n/a	Yes	2.784	n/a	n/a	GoodResponse	1	0.0	n/a	20	72	ISIslide	Win	True
690.028	0.25	Win2	0.6892	0.0	Yes	2.672	0.028	n/a	GoodResponse	1	n/a	n/a	21	73	Cue	Win	True
690.278	4.0	Win2	0.6892	0.0	Yes	2.672	0.0	n/a	GoodResponse	1	n/a	n/a	21	73	Fixation	Win	True
694.274	0.24	Win2	0.6892	0.004	Yes	2.672	-0.004	4.0	GoodResponse	1	0.234	693.508	21	73	Target	Win	True
694.508	0.3	Win2	0.6892	0.004	Yes	2.672	-0.004	4.0	GoodResponse	1	0.234	n/a	21	73	ButtonPress	Win	True
694.524	0.46	Win2	0.6892	n/a	Yes	2.672	n/a	n/a	GoodResponse	1	n/a	n/a	21	73	Blank	Win	True
694.976	1.45	Win2	0.6892	n/a	Yes	2.672	n/a	5.0	GoodResponse	1	0.011	693.987	21	73	Feedback	Win	True
696.43	2.672	Win2	0.6892	n/a	Yes	2.672	n/a	n/a	GoodResponse	1	0.0	n/a	21	73	ISIslide	Win	True
699.121	0.25	Lose2	0.6933	0.001	Yes	2.629	0.021	n/a	GoodResponse	0	n/a	n/a	21	74	Cue	AvoidedLoss	True
699.372	4.05	Lose2	0.6933	0.0	Yes	2.629	0.001	n/a	GoodResponse	0	n/a	n/a	21	74	Fixation	AvoidedLoss	True
703.418	0.23	Lose2	0.6933	0.003	Yes	2.629	-0.003	4.0	GoodResponse	0	0.191	702.609	21	74	Target	AvoidedLoss	True
703.609	0.3	Lose2	0.6933	0.003	Yes	2.629	-0.003	4.0	GoodResponse	0	0.191	n/a	21	74	ButtonPress	AvoidedLoss	True
703.652	0.47	Lose2	0.6933	n/a	Yes	2.629	n/a	n/a	GoodResponse	0	n/a	n/a	21	74	Blank	AvoidedLoss	True
704.12	1.45	Lose2	0.6933	n/a	Yes	2.629	n/a	5.0	GoodResponse	0	0.038	703.158	21	74	Feedback	AvoidedLoss	True
705.574	2.629	Lose2	0.6933	n/a	Yes	2.629	n/a	n/a	GoodResponse	0	0.0	n/a	21	74	ISIslide	AvoidedLoss	True
708.215	0.25	Lose2	0.6842	0.0	No	2.935	0.015	n/a	NoResponse	-1	n/a	n/a	20	75	Cue	Loss	True
708.466	3.95	Lose2	0.6842	0.0	No	2.935	0.001	n/a	NoResponse	-1	n/a	n/a	20	75	Fixation	Loss	True
712.411	0.22	Lose2	0.6842	0.004	No	2.935	-0.004	4.0	NoResponse	-1	0.267	711.678	20	75	Target	Loss	True
712.645	0.48	Lose2	0.6842	n/a	No	2.935	n/a	n/a	NoResponse	-1	n/a	n/a	20	75	Blank	Loss	True
712.678	0.3	Lose2	0.6842	0.004	No	2.935	-0.004	4.0	NoResponse	-1	0.267	n/a	20	75	ButtonPress	Loss	True
713.113	1.45	Lose2	0.6842	n/a	No	2.935	n/a	5.0	NoResponse	-1	0.021	712.134	20	75	Feedback	Loss	True
714.568	2.935	Lose2	0.6842	n/a	No	2.935	n/a	n/a	NoResponse	-1	0.0	n/a	20	75	ISIslide	Loss	True
717.526	0.25	Control	0.6753	0.001	No	3.224	0.026	n/a	NoResponse	0	n/a	n/a	20	76	Cue	Neutral	False
717.777	4.05	Control	0.6753	0.0	No	3.224	0.001	n/a	NoResponse	0	n/a	n/a	20	76	Fixation	Neutral	False
721.823	0.21	Control	0.6753	0.003	No	3.224	-0.003	n/a	NoResponse	0	n/a	n/a	20	76	Target	Neutral	False
722.04	0.49	Control	0.6753	n/a	No	3.224	n/a	n/a	NoResponse	0	n/a	n/a	20	76	Blank	Neutral	False
722.525	1.45	Control	0.6753	n/a	No	3.224	n/a	5.0	NoResponse	0	0.024	721.549	20	76	Feedback	Neutral	False
723.979	3.224	Control	0.6753	n/a	No	3.224	n/a	n/a	NoResponse	0	0.0	n/a	20	76	ISIslide	Neutral	False
727.222	0.25	Lose2	0.6667000000000001	0.0	No	2.578	0.022	n/a	LatePress	-1	n/a	n/a	19	77	Cue	Loss	True
727.473	3.95	Lose2	0.6667000000000001	0.0	No	2.578	0.001	n/a	LatePress	-1	n/a	n/a	19	77	Fixation	Loss	True
731.418	0.2	Lose2	0.6667000000000001	0.004	No	2.578	-0.004	4.0	LatePress	-1	0.201	730.619	19	77	Target	Loss	True
731.618	0.5	Lose2	0.6667000000000001	n/a	No	2.578	n/a	n/a	LatePress	-1	n/a	n/a	19	77	Blank	Loss	True
731.619	0.3	Lose2	0.6667000000000001	0.004	No	2.578	-0.004	4.0	LatePress	-1	0.201	n/a	19	77	ButtonPress	Loss	True
732.12	1.45	Lose2	0.6667000000000001	n/a	No	2.578	n/a	5.0	LatePress	-1	0.037	731.157	19	77	Feedback	Loss	True
733.574	2.578	Lose2	0.6667000000000001	n/a	No	2.578	n/a	n/a	LatePress	-1	0.0	n/a	19	77	ISIslide	Loss	True
