onset	duration	cue_type	current_mean_accuracy	duration_error	is_hit	isi_adjusted	onset_delay	response	response_type	reward	rt	rt_time	total_reward	trial_number	trial_phase	trial_type	one_press
11.103	0.25	Control	1.0	0.0	Yes	2.947	0.003	n/a	GoodResponse	0	n/a	n/a	0	0	Cue	Neutral	True
11.354	3.85	Control	1.0	0.0	Yes	2.947	0.001	n/a	GoodResponse	0	n/a	n/a	0	0	Fixation	Neutral	True
15.199	0.4	Control	1.0	0.004	Yes	2.947	-0.004	2.0	GoodResponse	0	0.234	14.433	0	0	Target	Neutral	True
15.433	0.3	Control	1.0	0.004	Yes	2.947	-0.004	2.0	GoodResponse	0	0.234	n/a	0	0	ButtonPress	Neutral	True
15.6	0.3	Control	1.0	n/a	Yes	2.947	n/a	n/a	GoodResponse	0	n/a	n/a	0	0	Blank	Neutral	True
15.901	1.45	Control	1.0	n/a	Yes	2.947	n/a	5.0	GoodResponse	0	0.026	14.927	0	0	Feedback	Neutral	True
17.355	2.947	Control	1.0	n/a	Yes	2.947	n/a	n/a	GoodResponse	0	0.0	n/a	0	0	ISIslide	Neutral	True
20.331	0.25	Lose2	1.0	0.0	Yes	2.769	0.031	n/a	GoodResponse	0	n/a	n/a	0	1	Cue	AvoidedLoss	True
20.582	4.0	Lose2	1.0	0.0	Yes	2.769	0.001	n/a	GoodResponse	0	n/a	n/a	0	1	Fixation	AvoidedLoss	True
24.577	0.39	Lose2	1.0	0.004	Yes	2.769	-0.004	2.0	GoodResponse	0	0.193	23.77	0	1	Target	AvoidedLoss	True
24.77	0.3	Lose2	1.0	0.004	Yes	2.769	-0.004	2.0	GoodResponse	0	0.193	n/a	0	1	ButtonPress	AvoidedLoss	True
24.978	0.31	Lose2	1.0	n/a	Yes	2.769	n/a	n/a	GoodResponse	0	n/a	n/a	0	1	Blank	AvoidedLoss	True
25.279	1.45	Lose2	1.0	n/a	Yes	2.769	n/a	5.0	GoodResponse	0	0.013	24.292	0	1	Feedback	AvoidedLoss	True
26.733	2.769	Lose2	1.0	n/a	Yes	2.769	n/a	n/a	GoodResponse	0	0.0	n/a	0	1	ISIslide	AvoidedLoss	True
29.525	0.25	Control	1.0	0.0	Yes	2.575	0.025	n/a	GoodResponse	0	n/a	n/a	0	2	Cue	Neutral	True
29.776	4.1	Control	1.0	0.0	Yes	2.575	0.001	n/a	GoodResponse	0	n/a	n/a	0	2	Fixation	Neutral	True
33.871	0.38	Control	1.0	0.004	Yes	2.575	-0.004	2.0	GoodResponse	0	0.231	33.102	0	2	Target	Neutral	True
34.102	0.3	Control	1.0	0.004	Yes	2.575	-0.004	2.0	GoodResponse	0	0.231	n/a	0	2	ButtonPress	Neutral	True
34.256	0.32	Control	1.0	n/a	Yes	2.575	n/a	n/a	GoodResponse	0	n/a	n/a	0	2	Blank	Neutral	True
34.574	1.45	Control	1.0	n/a	Yes	2.575	n/a	5.0	GoodResponse	0	0.035	33.609	0	2	Feedback	Neutral	True
36.028	2.575	Control	1.0	n/a	Yes	2.575	n/a	n/a	GoodResponse	0	0.0	n/a	0	2	ISIslide	Neutral	True
38.619	0.25	Win2	1.0	0.0	Yes	2.831	0.019	n/a	GoodResponse	1	n/a	n/a	1	3	Cue	Win	True
38.87	3.95	Win2	1.0	0.0	Yes	2.831	0.001	n/a	GoodResponse	1	n/a	n/a	1	3	Fixation	Win	True
42.815	0.37	Win2	1.0	0.004	Yes	2.831	-0.004	2.0	GoodResponse	1	0.242	42.057	1	3	Target	Win	True
43.057	0.3	Win2	1.0	0.004	Yes	2.831	-0.004	2.0	GoodResponse	1	0.242	n/a	1	3	ButtonPress	Win	True
43.199	0.33	Win2	1.0	n/a	Yes	2.831	n/a	n/a	GoodResponse	1	n/a	n/a	1	3	Blank	Win	True
43.517	1.45	Win2	1.0	n/a	Yes	2.831	n/a	5.0	GoodResponse	1	0.019	42.536	1	3	Feedback	Win	True
44.971	2.831	Win2	1.0	n/a	Yes	2.831	n/a	n/a	GoodResponse	1	0.0	n/a	1	3	ISIslide	Win	True
47.83	0.25	Win2	1.0	0.0	Yes	3.27	0.03	n/a	GoodResponse	1	n/a	n/a	2	4	Cue	Win	True
48.081	4.0	Win2	1.0	0.0	Yes	3.27	0.001	n/a	GoodResponse	1	n/a	n/a	2	4	Fixation	Win	True
52.076	0.36	Win2	1.0	0.004	Yes	3.27	-0.004	2.0	GoodResponse	1	0.216	51.292	2	4	Target	Win	True
52.292	0.3	Win2	1.0	0.004	Yes	3.27	-0.004	2.0	GoodResponse	1	0.216	n/a	2	4	ButtonPress	Win	True
52.444	0.34	Win2	1.0	n/a	Yes	3.27	n/a	n/a	GoodResponse	1	n/a	n/a	2	4	Blank	Win	True
52.778	1.45	Win2	1.0	n/a	Yes	3.27	n/a	5.0	GoodResponse	1	0.026	51.804	2	4	Feedback	Win	True
54.233	3.27	Win2	1.0	n/a	Yes	3.27	n/a	n/a	GoodResponse	1	0.0	n/a	2	4	ISIslide	Win	True
57.526	0.25	Win2	1.0	0.0	Yes	2.774	0.026	n/a	GoodResponse	1	n/a	n/a	3	5	Cue	Win	True
57.776	4.0	Win2	1.0	0.001	Yes	2.774	0.0	n/a	GoodResponse	1	n/a	n/a	3	5	Fixation	Win	True
61.772	0.35	Win2	1.0	0.004	Yes	2.774	-0.004	2.0	GoodResponse	1	0.224	60.996	3	5	Target	Win	True
61.996	0.3	Win2	1.0	0.004	Yes	2.774	-0.004	2.0	GoodResponse	1	0.224	n/a	3	5	ButtonPress	Win	True
62.123	0.35	Win2	1.0	n/a	Yes	2.774	n/a	n/a	GoodResponse	1	n/a	n/a	3	5	Blank	Win	True
62.474	1.45	Win2	1.0	n/a	Yes	2.774	n/a	5.0	GoodResponse	1	0.038	61.512	3	5	Feedback	Win	True
63.928	2.774	Win2	1.0	n/a	Yes	2.774	n/a	n/a	GoodResponse	1	0.0	n/a	3	5	ISIslide	Win	True
66.72	0.25	Lose2	1.0	0.0	Yes	2.73	0.02	n/a	GoodResponse	0	n/a	n/a	3	6	Cue	AvoidedLoss	True
66.971	3.95	Lose2	1.0	0.0	Yes	2.73	0.001	n/a	GoodResponse	0	n/a	n/a	3	6	Fixation	AvoidedLoss	True
70.916	0.34	Lose2	1.0	0.004	Yes	2.73	-0.004	2.0	GoodResponse	0	0.194	70.11	3	6	Target	AvoidedLoss	True
71.11	0.3	Lose2	1.0	0.004	Yes	2.73	-0.004	2.0	GoodResponse	0	0.194	n/a	3	6	ButtonPress	AvoidedLoss	True
71.267	0.36	Lose2	1.0	n/a	Yes	2.73	n/a	n/a	GoodResponse	0	n/a	n/a	3	6	Blank	AvoidedLoss	True
71.618	1.45	Lose2	1.0	n/a	Yes	2.73	n/a	5.0	GoodResponse	0	0.016	70.634	3	6	Feedback	AvoidedLoss	True
73.072	2.73	Lose2	1.0	n/a	Yes	2.73	n/a	n/a	GoodResponse	0	0.0	n/a	3	6	ISIslide	AvoidedLoss	True
75.831	0.25	Lose2	1.0	0.0	Yes	4.019	0.031	n/a	GoodResponse	0	n/a	n/a	3	7	Cue	AvoidedLoss	True
76.081	4.05	Lose2	1.0	0.0	Yes	4.019	0.0	n/a	GoodResponse	0	n/a	n/a	3	7	Fixation	AvoidedLoss	True
80.127	0.33	Lose2	1.0	0.004	Yes	4.019	-0.004	2.0	GoodResponse	0	0.202	79.329	3	7	Target	AvoidedLoss	True
80.329	0.3	Lose2	1.0	0.004	Yes	4.019	-0.004	2.0	GoodResponse	0	0.202	n/a	3	7	ButtonPress	AvoidedLoss	True
80.461	0.37	Lose2	1.0	n/a	Yes	4.019	n/a	n/a	GoodResponse	0	n/a	n/a	3	7	Blank	AvoidedLoss	True
80.829	1.45	Lose2	1.0	n/a	Yes	4.019	n/a	5.0	GoodResponse	0	0.023	79.852	3	7	Feedback	AvoidedLoss	True
82.283	4.019	Lose2	1.0	n/a	Yes	4.019	n/a	n/a	GoodResponse	0	0.0	n/a	3	7	ISIslide	AvoidedLoss	True
86.329	0.25	Lose2	1.0	0.0	Yes	3.021	0.029	n/a	GoodResponse	0	n/a	n/a	3	8	Cue	AvoidedLoss	True
86.579	3.95	Lose2	1.0	0.0	Yes	3.021	0.0	n/a	GoodResponse	0	n/a	n/a	3	8	Fixation	AvoidedLoss	True
90.525	0.32	Lose2	1.0	0.004	Yes	3.021	-0.004	2.0	GoodResponse	0	0.294	89.819	3	8	Target	AvoidedLoss	True
90.819	0.3	Lose2	1.0	0.004	Yes	3.021	-0.004	2.0	GoodResponse	0	0.294	n/a	3	8	ButtonPress	AvoidedLoss	True
90.859	0.38	Lose2	1.0	n/a	Yes	3.021	n/a	n/a	GoodResponse	0	n/a	n/a	3	8	Blank	AvoidedLoss	True
91.227	1.45	Lose2	1.0	n/a	Yes	3.021	n/a	5.0	GoodResponse	0	0.016	90.243	3	8	Feedback	AvoidedLoss	True
92.681	3.021	Lose2	1.0	n/a	Yes	3.021	n/a	n/a	GoodResponse	0	0.0	n/a	3	8	ISIslide	AvoidedLoss	True
95.723	0.25	Lose2	1.0	0.001	Yes	3.127	0.023	n/a	GoodResponse	0	n/a	n/a	3	9	Cue	AvoidedLoss	True
95.974	3.95	Lose2	1.0	0.0	Yes	3.127	0.001	n/a	GoodResponse	0	n/a	n/a	3	9	Fixation	AvoidedLoss	True
99.919	0.31	Lose2	1.0	0.004	Yes	3.127	-0.004	2.0	GoodResponse	0	0.223	99.142	3	9	Target	AvoidedLoss	True
100.142	0.3	Lose2	1.0	0.004	Yes	3.127	-0.004	2.0	GoodResponse	0	0.223	n/a	3	9	ButtonPress	AvoidedLoss	True
100.237	0.39	Lose2	1.0	n/a	Yes	3.127	n/a	n/a	GoodResponse	0	n/a	n/a	3	9	Blank	AvoidedLoss	True
100.622	1.45	Lose2	1.0	n/a	Yes	3.127	n/a	5.0	GoodResponse	0	0.035	99.657	3	9	Feedback	AvoidedLoss	True
102.076	3.127	Lose2	1.0	n/a	Yes	3.127	n/a	n/a	GoodResponse	0	0.0	n/a	3	9	ISIslide	AvoidedLoss	True
105.219	0.25	Control	1.0	0.0	Yes	3.281	0.019	n/a	GoodResponse	0	n/a	n/a	3	10	Cue	Neutral	True
105.469	4.0	Control	1.0	0.0	Yes	3.281	0.0	n/a	GoodResponse	0	n/a	n/a	3	10	Fixation	Neutral	True
109.465	0.3	Control	1.0	0.004	Yes	3.281	-0.004	2.0	GoodResponse	0	0.213	108.678	3	10	Target	Neutral	True
109.678	0.3	Control	1.0	0.004	Yes	3.281	-0.004	2.0	GoodResponse	0	0.213	n/a	3	10	ButtonPress	Neutral	True
109.766	0.4	Control	1.0	n/a	Yes	3.281	n/a	n/a	GoodResponse	0	n/a	n/a	3	10	Blank	Neutral	True
110.167	1.45	Control	1.0	n/a	Yes	3.281	n/a	5.0	GoodResponse	0	0.008	109.175	3	10	Feedback	Neutral	True
111.621	3.281	Control	1.0	n/a	Yes	3.281	n/a	n/a	GoodResponse	0	0.0	n/a	3	10	ISIslide	Neutral	True
114.931	0.25	Lose2	1.0	0.0	Yes	2.719	0.031	n/a	GoodResponse	0	n/a	n/a	3	11	Cue	AvoidedLoss	True
115.182	4.05	Lose2	1.0	0.0	Yes	2.719	0.001	n/a	GoodResponse	0	n/a	n/a	3	11	Fixation	AvoidedLoss	True
119.227	0.29	Lose2	1.0	0.004	Yes	2.719	-0.004	2.0	GoodResponse	0	0.225	118.452	3	11	Target	AvoidedLoss	True
119.452	0.3	Lose2	1.0	0.004	Yes	2.719	-0.004	2.0	GoodResponse	0	0.225	n/a	3	11	ButtonPress	AvoidedLoss	True
119.528	0.41	Lose2	1.0	n/a	Yes	2.719	n/a	n/a	GoodResponse	0	n/a	n/a	3	11	Blank	AvoidedLoss	True
119.929	1.45	Lose2	1.0	n/a	Yes	2.719	n/a	5.0	GoodResponse	0	0.046	118.975	3	11	Feedback	AvoidedLoss	True
121.384	2.719	Lose2	1.0	n/a	Yes	2.719	n/a	n/a	GoodResponse	0	0.0	n/a	3	11	ISIslide	AvoidedLoss	True
124.125	0.25	Control	1.0	0.0	Yes	2.975	0.025	n/a	GoodResponse	0	n/a	n/a	3	12	Cue	Neutral	True
124.376	3.9	Control	1.0	0.0	Yes	2.975	0.001	n/a	GoodResponse	0	n/a	n/a	3	12	Fixation	Neutral	True
128.271	0.28	Control	1.0	0.004	Yes	2.975	-0.004	2.0	GoodResponse	0	0.184	127.455	3	12	Target	Neutral	True
128.455	0.3	Control	1.0	0.004	Yes	2.975	-0.004	2.0	GoodResponse	0	0.184	n/a	3	12	ButtonPress	Neutral	True
128.555	0.42	Control	1.0	n/a	Yes	2.975	n/a	n/a	GoodResponse	0	n/a	n/a	3	12	Blank	Neutral	True
128.973	1.45	Control	1.0	n/a	Yes	2.975	n/a	5.0	GoodResponse	0	0.026	127.999	3	12	Feedback	Neutral	True
130.427	2.975	Control	1.0	n/a	Yes	2.975	n/a	n/a	GoodResponse	0	0.0	n/a	3	12	ISIslide	Neutral	True
133.42	0.25	Control	1.0	0.0	Yes	2.78	0.02	n/a	GoodResponse	0	n/a	n/a	3	13	Cue	Neutral	True
133.671	4.0	Control	1.0	0.0	Yes	2.78	0.001	n/a	GoodResponse	0	n/a	n/a	3	13	Fixation	Neutral	True
137.666	0.27	Control	1.0	0.004	Yes	2.78	-0.004	2.0	GoodResponse	0	0.257	136.923	3	13	Target	Neutral	True
137.923	0.3	Control	1.0	0.004	Yes	2.78	-0.004	2.0	GoodResponse	0	0.257	n/a	3	13	ButtonPress	Neutral	True
137.95	0.43	Control	1.0	n/a	Yes	2.78	n/a	n/a	GoodResponse	0	n/a	n/a	3	13	Blank	Neutral	True
138.368	1.45	Control	1.0	n/a	Yes	2.78	n/a	5.0	GoodResponse	0	0.045	137.413	3	13	Feedback	Neutral	True
139.822	2.78	Control	1.0	n/a	Yes	2.78	n/a	n/a	GoodResponse	0	0.0	n/a	3	13	ISIslide	Neutral	True
142.631	0.25	Win2	1.0	0.0	Yes	2.669	0.031	n/a	GoodResponse	1	n/a	n/a	4	14	Cue	Win	True
142.881	4.1	Win2	1.0	0.001	Yes	2.669	0.0	n/a	GoodResponse	1	n/a	n/a	4	14	Fixation	Win	True
146.977	0.26	Win2	1.0	0.004	Yes	2.669	-0.004	2.0	GoodResponse	1	0.211	146.188	4	14	Target	Win	True
147.188	0.3	Win2	1.0	0.004	Yes	2.669	-0.004	2.0	GoodResponse	1	0.211	n/a	4	14	ButtonPress	Win	True
147.245	0.44	Win2	1.0	n/a	Yes	2.669	n/a	n/a	GoodResponse	1	n/a	n/a	4	14	Blank	Win	True
147.679	1.45	Win2	1.0	n/a	Yes	2.669	n/a	5.0	GoodResponse	1	0.007	146.686	4	14	Feedback	Win	True
149.134	2.669	Win2	1.0	n/a	Yes	2.669	n/a	n/a	GoodResponse	1	0.0	n/a	4	14	ISIslide	Win	True
151.825	0.25	Control	1.0	0.0	Yes	2.975	0.025	n/a	GoodResponse	0	n/a	n/a	4	15	Cue	Neutral	True
152.076	4.0	Control	1.0	0.0	Yes	2.975	0.001	n/a	GoodResponse	0	n/a	n/a	4	15	Fixation	Neutral	True
156.071	0.25	Control	1.0	0.004	Yes	2.975	-0.004	2.0	GoodResponse	0	0.223	155.294	4	15	Target	Neutral	True
156.294	0.3	Control	1.0	0.004	Yes	2.975	-0.004	2.0	GoodResponse	0	0.223	n/a	4	15	ButtonPress	Neutral	True
156.322	0.45	Control	1.0	n/a	Yes	2.975	n/a	n/a	GoodResponse	0	n/a	n/a	4	15	Blank	Neutral	True
156.773	1.45	Control	1.0	n/a	Yes	2.975	n/a	5.0	GoodResponse	0	0.03	155.803	4	15	Feedback	Neutral	True
158.227	2.975	Control	1.0	n/a	Yes	2.975	n/a	n/a	GoodResponse	0	0.0	n/a	4	15	ISIslide	Neutral	True
161.22	0.25	Win2	1.0	0.0	Yes	2.88	0.02	n/a	GoodResponse	1	n/a	n/a	5	16	Cue	Win	True
161.47	4.0	Win2	1.0	0.001	Yes	2.88	0.0	n/a	GoodResponse	1	n/a	n/a	5	16	Fixation	Win	True
165.466	0.24	Win2	1.0	0.004	Yes	2.88	-0.004	2.0	GoodResponse	1	0.238	164.704	5	16	Target	Win	True
165.704	0.3	Win2	1.0	0.004	Yes	2.88	-0.004	2.0	GoodResponse	1	0.238	n/a	5	16	ButtonPress	Win	True
165.717	0.46	Win2	1.0	n/a	Yes	2.88	n/a	n/a	GoodResponse	1	n/a	n/a	5	16	Blank	Win	True
166.168	1.45	Win2	1.0	n/a	Yes	2.88	n/a	5.0	GoodResponse	1	0.001	165.169	5	16	Feedback	Win	True
167.622	2.88	Win2	1.0	n/a	Yes	2.88	n/a	n/a	GoodResponse	1	0.0	n/a	5	16	ISIslide	Win	True
170.531	0.25	Lose2	1.0	0.0	Yes	2.719	0.031	n/a	GoodResponse	0	n/a	n/a	5	17	Cue	AvoidedLoss	True
170.782	3.95	Lose2	1.0	0.0	Yes	2.719	0.001	n/a	GoodResponse	0	n/a	n/a	5	17	Fixation	AvoidedLoss	True
174.727	0.23	Lose2	1.0	0.004	Yes	2.719	-0.004	2.0	GoodResponse	0	0.206	173.933	5	17	Target	AvoidedLoss	True
174.933	0.3	Lose2	1.0	0.004	Yes	2.719	-0.004	2.0	GoodResponse	0	0.206	n/a	5	17	ButtonPress	AvoidedLoss	True
174.961	0.47	Lose2	1.0	n/a	Yes	2.719	n/a	n/a	GoodResponse	0	n/a	n/a	5	17	Blank	AvoidedLoss	True
175.429	1.45	Lose2	1.0	n/a	Yes	2.719	n/a	5.0	GoodResponse	0	0.009	174.438	5	17	Feedback	AvoidedLoss	True
176.883	2.719	Lose2	1.0	n/a	Yes	2.719	n/a	n/a	GoodResponse	0	0.0	n/a	5	17	ISIslide	AvoidedLoss	True
179.625	0.25	Lose2	1.0	0.0	Yes	2.725	0.025	n/a	GoodResponse	0	n/a	n/a	5	18	Cue	AvoidedLoss	True
179.876	4.05	Lose2	1.0	0.0	Yes	2.725	0.001	n/a	GoodResponse	0	n/a	n/a	5	18	Fixation	AvoidedLoss	True
183.921	0.22	Lose2	1.0	0.004	Yes	2.725	-0.004	2.0	GoodResponse	0	0.205	183.126	5	18	Target	AvoidedLoss	True
184.126	0.3	Lose2	1.0	0.004	Yes	2.725	-0.004	2.0	GoodResponse	0	0.205	n/a	5	18	ButtonPress	AvoidedLoss	True
184.155	0.48	Lose2	1.0	n/a	Yes	2.725	n/a	n/a	GoodResponse	0	n/a	n/a	5	18	Blank	AvoidedLoss	True
184.623	1.45	Lose2	1.0	n/a	Yes	2.725	n/a	5.0	GoodResponse	0	0.034	183.657	5	18	Feedback	AvoidedLoss	True
186.078	2.725	Lose2	1.0	n/a	Yes	2.725	n/a	n/a	GoodResponse	0	0.0	n/a	5	18	ISIslide	AvoidedLoss	True
188.819	0.25	Control	1.0	0.0	Yes	2.931	0.019	n/a	GoodResponse	0	n/a	n/a	5	19	Cue	Neutral	True
189.07	3.95	Control	1.0	0.0	Yes	2.931	0.001	n/a	GoodResponse	0	n/a	n/a	5	19	Fixation	Neutral	True
193.015	0.21	Control	1.0	0.004	Yes	2.931	-0.004	2.0	GoodResponse	0	0.192	192.207	5	19	Target	Neutral	True
193.207	0.3	Control	1.0	0.004	Yes	2.931	-0.004	2.0	GoodResponse	0	0.192	n/a	5	19	ButtonPress	Neutral	True
193.232	0.49	Control	1.0	n/a	Yes	2.931	n/a	n/a	GoodResponse	0	n/a	n/a	5	19	Blank	Neutral	True
193.717	1.45	Control	1.0	n/a	Yes	2.931	n/a	5.0	GoodResponse	0	0.014	192.731	5	19	Feedback	Neutral	True
195.171	2.931	Control	1.0	n/a	Yes	2.931	n/a	n/a	GoodResponse	0	0.0	n/a	5	19	ISIslide	Neutral	True
198.13	0.25	Control	0.9523999999999999	0.0	No	2.62	0.03	n/a	NoResponse	0	n/a	n/a	5	20	Cue	Neutral	True
198.381	4.05	Control	0.9523999999999999	0.0	No	2.62	0.001	n/a	NoResponse	0	n/a	n/a	5	20	Fixation	Neutral	True
202.427	0.2	Control	0.9523999999999999	0.003	No	2.62	-0.003	2.0	NoResponse	0	0.211	201.638	5	20	Target	Neutral	True
202.627	0.5	Control	0.9523999999999999	n/a	No	2.62	n/a	n/a	NoResponse	0	n/a	n/a	5	20	Blank	Neutral	True
202.638	0.3	Control	0.9523999999999999	0.003	No	2.62	-0.003	2.0	NoResponse	0	0.211	n/a	5	20	ButtonPress	Neutral	True
203.129	1.45	Control	0.9523999999999999	n/a	No	2.62	n/a	5.0	NoResponse	0	0.015	202.144	5	20	Feedback	Neutral	True
204.583	2.62	Control	0.9523999999999999	n/a	No	2.62	n/a	n/a	NoResponse	0	0.0	n/a	5	20	ISIslide	Neutral	True
207.224	0.25	Control	0.9091	0.0	No	2.776	0.024	n/a	LatePress	0	n/a	n/a	5	21	Cue	Neutral	True
207.475	4.1	Control	0.9091	0.0	No	2.776	0.001	n/a	LatePress	0	n/a	n/a	5	21	Fixation	Neutral	True
211.571	0.19	Control	0.9091	0.003	No	2.776	-0.003	2.0	LatePress	0	0.19	210.761	5	21	Target	Neutral	True
211.761	0.3	Control	0.9091	0.003	No	2.776	-0.003	2.0	LatePress	0	0.19	n/a	5	21	ButtonPress	Neutral	True
211.771	0.51	Control	0.9091	n/a	No	2.776	n/a	n/a	LatePress	0	n/a	n/a	5	21	Blank	Neutral	True
212.273	1.45	Control	0.9091	n/a	No	2.776	n/a	5.0	LatePress	0	0.042	211.315	5	21	Feedback	Neutral	True
213.727	2.776	Control	0.9091	n/a	No	2.776	n/a	n/a	LatePress	0	0.0	n/a	5	21	ISIslide	Neutral	True
216.519	0.25	Control	0.8695999999999999	0.0	No	2.781	0.019	n/a	NoResponse	0	n/a	n/a	5	22	Cue	Neutral	True
216.77	4.0	Control	0.8695999999999999	0.0	No	2.781	0.001	n/a	NoResponse	0	n/a	n/a	5	22	Fixation	Neutral	True
220.765	0.18	Control	0.8695999999999999	0.004	No	2.781	-0.004	2.0	NoResponse	0	0.184	219.949	5	22	Target	Neutral	True
220.949	0.52	Control	0.8695999999999999	n/a	No	2.781	n/a	n/a	NoResponse	0	n/a	n/a	5	22	Blank	Neutral	True
220.949	0.3	Control	0.8695999999999999	0.004	No	2.781	-0.004	2.0	NoResponse	0	0.184	n/a	5	22	ButtonPress	Neutral	True
221.467	1.45	Control	0.8695999999999999	n/a	No	2.781	n/a	5.0	NoResponse	0	0.019	220.486	5	22	Feedback	Neutral	True
222.921	2.781	Control	0.8695999999999999	n/a	No	2.781	n/a	n/a	NoResponse	0	0.0	n/a	5	22	ISIslide	Neutral	True
225.73	0.25	Control	0.8332999999999999	0.0	No	2.77	0.03	n/a	NoResponse	0	n/a	n/a	5	23	Cue	Neutral	True
225.98	3.9	Control	0.8332999999999999	0.001	No	2.77	0.0	n/a	NoResponse	0	n/a	n/a	5	23	Fixation	Neutral	True
229.892	0.17	Control	0.8332999999999999	0.0	No	2.77	0.012	2.0	NoResponse	0	0.2	229.092	5	23	Target	Neutral	True
230.059	0.53	Control	0.8332999999999999	n/a	No	2.77	n/a	n/a	NoResponse	0	n/a	n/a	5	23	Blank	Neutral	True
230.092	0.3	Control	0.8332999999999999	0.0	No	2.77	0.012	2.0	NoResponse	0	0.2	n/a	5	23	ButtonPress	Neutral	True
230.578	1.45	Control	0.8332999999999999	n/a	No	2.77	n/a	5.0	NoResponse	0	0.03	229.608	5	23	Feedback	Neutral	True
232.032	2.77	Control	0.8332999999999999	n/a	No	2.77	n/a	n/a	NoResponse	0	0.0	n/a	5	23	ISIslide	Neutral	True
234.824	0.25	Win2	0.8	0.0	No	3.126	0.024	n/a	NoResponse	0	n/a	n/a	5	24	Cue	MissedWin	True
235.074	3.95	Win2	0.8	0.0	No	3.126	0.0	n/a	NoResponse	0	n/a	n/a	5	24	Fixation	MissedWin	True
239.02	0.16	Win2	0.8	0.004	No	3.126	-0.004	2.0	NoResponse	0	0.199	238.219	5	24	Target	MissedWin	True
239.187	0.54	Win2	0.8	n/a	No	3.126	n/a	n/a	NoResponse	0	n/a	n/a	5	24	Blank	MissedWin	True
239.219	0.3	Win2	0.8	0.004	No	3.126	-0.004	2.0	NoResponse	0	0.199	n/a	5	24	ButtonPress	MissedWin	True
239.722	1.45	Win2	0.8	n/a	No	3.126	n/a	5.0	NoResponse	0	0.008	238.73	5	24	Feedback	MissedWin	True
241.176	3.126	Win2	0.8	n/a	No	3.126	n/a	n/a	NoResponse	0	0.0	n/a	5	24	ISIslide	MissedWin	True
244.319	0.25	Win2	0.7692	0.0	No	3.081	0.019	n/a	NoResponse	0	n/a	n/a	5	25	Cue	MissedWin	True
244.569	4.0	Win2	0.7692	0.001	No	3.081	0.0	n/a	NoResponse	0	n/a	n/a	5	25	Fixation	MissedWin	True
248.565	0.15	Win2	0.7692	0.004	No	3.081	-0.004	2.0	NoResponse	0	0.198	247.763	5	25	Target	MissedWin	True
248.715	0.55	Win2	0.7692	n/a	No	3.081	n/a	n/a	NoResponse	0	n/a	n/a	5	25	Blank	MissedWin	True
248.763	0.3	Win2	0.7692	0.004	No	3.081	-0.004	2.0	NoResponse	0	0.198	n/a	5	25	ButtonPress	MissedWin	True
249.267	1.45	Win2	0.7692	n/a	No	3.081	n/a	5.0	NoResponse	0	0.024	248.291	5	25	Feedback	MissedWin	True
250.721	3.081	Win2	0.7692	n/a	No	3.081	n/a	n/a	NoResponse	0	0.0	n/a	5	25	ISIslide	MissedWin	True
253.831	0.25	Win2	0.7406999999999999	0.0	No	2.919	0.031	n/a	NoResponse	0	n/a	n/a	5	26	Cue	MissedWin	True
254.081	3.95	Win2	0.7406999999999999	0.0	No	2.919	0.0	n/a	NoResponse	0	n/a	n/a	5	26	Fixation	MissedWin	True
258.043	0.15	Win2	0.7406999999999999	0.0	No	2.919	0.012	2.0	NoResponse	0	0.178	257.221	5	26	Target	MissedWin	True
258.177	0.55	Win2	0.7406999999999999	n/a	No	2.919	n/a	n/a	NoResponse	0	n/a	n/a	5	26	Blank	MissedWin	True
258.221	0.3	Win2	0.7406999999999999	0.0	No	2.919	0.012	2.0	NoResponse	0	0.178	n/a	5	26	ButtonPress	MissedWin	True
258.729	1.45	Win2	0.7406999999999999	n/a	No	2.919	n/a	5.0	NoResponse	0	0.026	257.755	5	26	Feedback	MissedWin	True
260.183	2.919	Win2	0.7406999999999999	n/a	No	2.919	n/a	n/a	NoResponse	0	0.0	n/a	5	26	ISIslide	MissedWin	True
263.125	0.25	Lose2	0.7143	0.0	No	2.825	0.025	n/a	NoResponse	-1	n/a	n/a	4	27	Cue	Loss	False
263.376	4.05	Lose2	0.7143	0.0	No	2.825	0.001	2.0	NoResponse	-1	3.26	265.636	4	27	Fixation	Loss	False
266.636	0.3	Lose2	0.7143	0.0	No	2.825	0.001	2.0	NoResponse	-1	3.26	n/a	4	27	ButtonPress	Loss	False
267.421	0.15	Lose2	0.7143	0.004	No	2.825	-0.004	2.0	NoResponse	-1	0.244	266.665	4	27	Target	Loss	False
267.572	0.55	Lose2	0.7143	n/a	No	2.825	n/a	n/a	NoResponse	-1	n/a	n/a	4	27	Blank	Loss	False
267.665	0.3	Lose2	0.7143	0.004	No	2.825	-0.004	2.0	NoResponse	-1	0.244	n/a	4	27	ButtonPress	Loss	False
268.123	1.45	Lose2	0.7143	n/a	No	2.825	n/a	5.0	NoResponse	-1	0.045	267.168	4	27	Feedback	Loss	False
269.578	2.825	Lose2	0.7143	n/a	No	2.825	n/a	n/a	NoResponse	-1	0.0	n/a	4	27	ISIslide	Loss	False
272.42	0.25	Control	0.6897	0.0	No	2.83	0.02	n/a	NoResponse	0	n/a	n/a	4	28	Cue	Neutral	True
272.67	4.05	Control	0.6897	0.0	No	2.83	0.0	n/a	NoResponse	0	n/a	n/a	4	28	Fixation	Neutral	True
276.716	0.15	Control	0.6897	0.004	No	2.83	-0.004	2.0	NoResponse	0	0.208	275.924	4	28	Target	Neutral	True
276.866	0.55	Control	0.6897	n/a	No	2.83	n/a	n/a	NoResponse	0	n/a	n/a	4	28	Blank	Neutral	True
276.924	0.3	Control	0.6897	0.004	No	2.83	-0.004	2.0	NoResponse	0	0.208	n/a	4	28	ButtonPress	Neutral	True
277.418	1.45	Control	0.6897	n/a	No	2.83	n/a	5.0	NoResponse	0	0.019	276.437	4	28	Feedback	Neutral	True
278.872	2.83	Control	0.6897	n/a	No	2.83	n/a	n/a	NoResponse	0	0.0	n/a	4	28	ISIslide	Neutral	True
281.731	0.25	Lose2	0.6667000000000001	0.0	No	2.819	0.031	n/a	NoResponse	-1	n/a	n/a	3	29	Cue	Loss	True
281.982	3.95	Lose2	0.6667000000000001	0.0	No	2.819	0.001	n/a	NoResponse	-1	n/a	n/a	3	29	Fixation	Loss	True
285.927	0.15	Lose2	0.6667000000000001	0.004	No	2.819	-0.004	2.0	NoResponse	-1	0.184	285.111	3	29	Target	Loss	True
286.077	0.55	Lose2	0.6667000000000001	n/a	No	2.819	n/a	n/a	NoResponse	-1	n/a	n/a	3	29	Blank	Loss	True
286.111	0.3	Lose2	0.6667000000000001	0.004	No	2.819	-0.004	2.0	NoResponse	-1	0.184	n/a	3	29	ButtonPress	Loss	True
286.629	1.45	Lose2	0.6667000000000001	n/a	No	2.819	n/a	5.0	NoResponse	-1	0.027	285.656	3	29	Feedback	Loss	True
288.083	2.819	Lose2	0.6667000000000001	n/a	No	2.819	n/a	n/a	NoResponse	-1	0.0	n/a	3	29	ISIslide	Loss	True
290.925	0.25	Win2	0.6452	0.0	No	2.775	0.025	n/a	NoResponse	0	n/a	n/a	3	30	Cue	MissedWin	True
291.176	3.9	Win2	0.6452	0.0	No	2.775	0.001	n/a	NoResponse	0	n/a	n/a	3	30	Fixation	MissedWin	True
295.071	0.15	Win2	0.6452	0.004	No	2.775	-0.004	2.0	NoResponse	0	0.186	294.257	3	30	Target	MissedWin	True
295.221	0.55	Win2	0.6452	n/a	No	2.775	n/a	n/a	NoResponse	0	n/a	n/a	3	30	Blank	MissedWin	True
295.257	0.3	Win2	0.6452	0.004	No	2.775	-0.004	2.0	NoResponse	0	0.186	n/a	3	30	ButtonPress	MissedWin	True
295.773	1.45	Win2	0.6452	n/a	No	2.775	n/a	5.0	NoResponse	0	0.008	294.781	3	30	Feedback	MissedWin	True
297.227	2.775	Win2	0.6452	n/a	No	2.775	n/a	n/a	NoResponse	0	0.0	n/a	3	30	ISIslide	MissedWin	True
300.019	0.25	Lose2	0.625	0.0	No	2.831	0.019	n/a	NoResponse	-1	n/a	n/a	2	31	Cue	Loss	True
300.27	4.05	Lose2	0.625	0.0	No	2.831	0.001	n/a	NoResponse	-1	n/a	n/a	2	31	Fixation	Loss	True
304.315	0.16	Lose2	0.625	0.004	No	2.831	-0.004	2.0	NoResponse	-1	0.186	303.501	2	31	Target	Loss	True
304.482	0.54	Lose2	0.625	n/a	No	2.831	n/a	n/a	NoResponse	-1	n/a	n/a	2	31	Blank	Loss	True
304.501	0.3	Lose2	0.625	0.004	No	2.831	-0.004	2.0	NoResponse	-1	0.186	n/a	2	31	ButtonPress	Loss	True
305.017	1.45	Lose2	0.625	n/a	No	2.831	n/a	5.0	NoResponse	-1	0.03	304.047	2	31	Feedback	Loss	True
306.472	2.831	Lose2	0.625	n/a	No	2.831	n/a	n/a	NoResponse	-1	0.0	n/a	2	31	ISIslide	Loss	True
309.33	0.25	Lose2	0.6061	0.0	No	2.62	0.03	n/a	NoResponse	-1	n/a	n/a	1	32	Cue	Loss	True
309.581	4.15	Lose2	0.6061	0.0	No	2.62	0.001	n/a	NoResponse	-1	n/a	n/a	1	32	Fixation	Loss	True
313.727	0.17	Lose2	0.6061	0.003	No	2.62	-0.003	2.0	NoResponse	-1	0.197	312.924	1	32	Target	Loss	True
313.911	0.53	Lose2	0.6061	n/a	No	2.62	n/a	n/a	NoResponse	-1	n/a	n/a	1	32	Blank	Loss	True
313.924	0.3	Lose2	0.6061	0.003	No	2.62	-0.003	2.0	NoResponse	-1	0.197	n/a	1	32	ButtonPress	Loss	True
314.429	1.45	Lose2	0.6061	n/a	No	2.62	n/a	5.0	NoResponse	-1	0.033	313.462	1	32	Feedback	Loss	True
315.883	2.62	Lose2	0.6061	n/a	No	2.62	n/a	n/a	NoResponse	-1	0.0	n/a	1	32	ISIslide	Loss	True
318.524	0.25	Win2	0.5882000000000001	0.0	No	2.676	0.024	n/a	NoResponse	0	n/a	n/a	1	33	Cue	MissedWin	True
318.775	4.0	Win2	0.5882000000000001	0.0	No	2.676	0.001	n/a	NoResponse	0	n/a	n/a	1	33	Fixation	MissedWin	True
322.77	0.18	Win2	0.5882000000000001	0.004	No	2.676	-0.004	2.0	NoResponse	0	0.196	321.966	1	33	Target	MissedWin	True
322.954	0.52	Win2	0.5882000000000001	n/a	No	2.676	n/a	n/a	NoResponse	0	n/a	n/a	1	33	Blank	MissedWin	True
322.966	0.3	Win2	0.5882000000000001	0.004	No	2.676	-0.004	2.0	NoResponse	0	0.196	n/a	1	33	ButtonPress	MissedWin	True
323.473	1.45	Win2	0.5882000000000001	n/a	No	2.676	n/a	5.0	NoResponse	0	0.012	322.485	1	33	Feedback	MissedWin	True
324.927	2.676	Win2	0.5882000000000001	n/a	No	2.676	n/a	n/a	NoResponse	0	0.0	n/a	1	33	ISIslide	MissedWin	True
327.618	0.25	Lose2	0.5714	0.0	No	2.632	0.018	n/a	NoResponse	-1	n/a	n/a	0	34	Cue	Loss	False
327.869	4.05	Lose2	0.5714	0.0	No	2.632	0.001	2.0	NoResponse	-1	3.556	330.425	0	34	Fixation	Loss	False
331.425	0.3	Lose2	0.5714	0.0	No	2.632	0.001	2.0	NoResponse	-1	3.556	n/a	0	34	ButtonPress	Loss	False
331.915	0.19	Lose2	0.5714	0.003	No	2.632	-0.003	2.0	NoResponse	-1	0.241	331.156	0	34	Target	Loss	False
332.115	0.51	Lose2	0.5714	n/a	No	2.632	n/a	n/a	NoResponse	-1	n/a	n/a	0	34	Blank	Loss	False
332.156	0.3	Lose2	0.5714	0.003	No	2.632	-0.003	2.0	NoResponse	-1	0.241	n/a	0	34	ButtonPress	Loss	False
332.617	1.45	Lose2	0.5714	n/a	No	2.632	n/a	5.0	NoResponse	-1	0.039	331.656	0	34	Feedback	Loss	False
334.071	2.632	Lose2	0.5714	n/a	No	2.632	n/a	n/a	NoResponse	-1	0.0	n/a	0	34	ISIslide	Loss	False
336.729	0.25	Lose2	0.5832999999999999	0.0	Yes	2.671	0.029	n/a	GoodResponse	0	n/a	n/a	0	35	Cue	AvoidedLoss	True
336.98	4.0	Lose2	0.5832999999999999	0.0	Yes	2.671	0.001	n/a	GoodResponse	0	n/a	n/a	0	35	Fixation	AvoidedLoss	True
340.975	0.2	Lose2	0.5832999999999999	0.004	Yes	2.671	-0.004	2.0	GoodResponse	0	0.195	340.17	0	35	Target	AvoidedLoss	True
341.17	0.3	Lose2	0.5832999999999999	0.004	Yes	2.671	-0.004	2.0	GoodResponse	0	0.195	n/a	0	35	ButtonPress	AvoidedLoss	True
341.176	0.5	Lose2	0.5832999999999999	n/a	Yes	2.671	n/a	n/a	GoodResponse	0	n/a	n/a	0	35	Blank	AvoidedLoss	True
341.677	1.45	Lose2	0.5832999999999999	n/a	Yes	2.671	n/a	5.0	GoodResponse	0	0.007	340.684	0	35	Feedback	AvoidedLoss	True
343.131	2.671	Lose2	0.5832999999999999	n/a	Yes	2.671	n/a	n/a	GoodResponse	0	0.0	n/a	0	35	ISIslide	AvoidedLoss	True
345.823	0.25	Control	0.5676	0.0	No	2.677	0.023	n/a	NoResponse	0	n/a	n/a	0	36	Cue	Neutral	True
346.074	4.0	Control	0.5676	0.0	No	2.677	0.001	n/a	NoResponse	0	n/a	n/a	0	36	Fixation	Neutral	True
350.069	0.21	Control	0.5676	0.004	No	2.677	-0.004	2.0	NoResponse	0	0.226	349.295	0	36	Target	Neutral	True
350.286	0.49	Control	0.5676	n/a	No	2.677	n/a	n/a	NoResponse	0	n/a	n/a	0	36	Blank	Neutral	True
350.295	0.3	Control	0.5676	0.004	No	2.677	-0.004	2.0	NoResponse	0	0.226	n/a	0	36	ButtonPress	Neutral	True
350.771	1.45	Control	0.5676	n/a	No	2.677	n/a	5.0	NoResponse	0	0.031	349.802	0	36	Feedback	Neutral	True
352.225	2.677	Control	0.5676	n/a	No	2.677	n/a	n/a	NoResponse	0	0.0	n/a	0	36	ISIslide	Neutral	True
354.917	0.25	Win2	0.5789	0.0	Yes	2.883	0.017	n/a	GoodResponse	1	n/a	n/a	1	37	Cue	Win	True
355.168	4.0	Win2	0.5789	0.0	Yes	2.883	0.001	n/a	GoodResponse	1	n/a	n/a	1	37	Fixation	Win	True
359.163	0.22	Win2	0.5789	0.004	Yes	2.883	-0.004	2.0	GoodResponse	1	0.18	358.343	1	37	Target	Win	True
359.343	0.3	Win2	0.5789	0.004	Yes	2.883	-0.004	2.0	GoodResponse	1	0.18	n/a	1	37	ButtonPress	Win	True
359.397	0.48	Win2	0.5789	n/a	Yes	2.883	n/a	n/a	GoodResponse	1	n/a	n/a	1	37	Blank	Win	True
359.865	1.45	Win2	0.5789	n/a	Yes	2.883	n/a	5.0	GoodResponse	1	0.011	358.876	1	37	Feedback	Win	True
361.319	2.883	Win2	0.5789	n/a	Yes	2.883	n/a	n/a	GoodResponse	1	0.0	n/a	1	37	ISIslide	Win	True
364.228	0.25	Lose2	0.5897	0.0	Yes	2.822	0.028	n/a	GoodResponse	0	n/a	n/a	1	38	Cue	AvoidedLoss	True
364.479	3.95	Lose2	0.5897	0.0	Yes	2.822	0.001	n/a	GoodResponse	0	n/a	n/a	1	38	Fixation	AvoidedLoss	True
368.424	0.23	Lose2	0.5897	0.004	Yes	2.822	-0.004	2.0	GoodResponse	0	0.171	367.595	1	38	Target	AvoidedLoss	True
368.595	0.3	Lose2	0.5897	0.004	Yes	2.822	-0.004	2.0	GoodResponse	0	0.171	n/a	1	38	ButtonPress	AvoidedLoss	True
368.658	0.47	Lose2	0.5897	n/a	Yes	2.822	n/a	n/a	GoodResponse	0	n/a	n/a	1	38	Blank	AvoidedLoss	True
369.126	1.45	Lose2	0.5897	n/a	Yes	2.822	n/a	5.0	GoodResponse	0	0.018	368.144	1	38	Feedback	AvoidedLoss	True
370.58	2.822	Lose2	0.5897	n/a	Yes	2.822	n/a	n/a	GoodResponse	0	0.0	n/a	1	38	ISIslide	AvoidedLoss	True
373.422	0.25	Win2	0.6	0.0	Yes	2.978	0.022	n/a	GoodResponse	1	n/a	n/a	2	39	Cue	Win	True
373.673	4.1	Win2	0.6	0.0	Yes	2.978	0.001	n/a	GoodResponse	1	n/a	n/a	2	39	Fixation	Win	True
377.769	0.24	Win2	0.6	0.003	Yes	2.978	-0.003	2.0	GoodResponse	1	0.22	376.989	2	39	Target	Win	True
377.989	0.3	Win2	0.6	0.003	Yes	2.978	-0.003	2.0	GoodResponse	1	0.22	n/a	2	39	ButtonPress	Win	True
378.019	0.46	Win2	0.6	n/a	Yes	2.978	n/a	n/a	GoodResponse	1	n/a	n/a	2	39	Blank	Win	True
378.471	1.45	Win2	0.6	n/a	Yes	2.978	n/a	5.0	GoodResponse	1	0.038	377.509	2	39	Feedback	Win	True
379.925	2.978	Win2	0.6	n/a	Yes	2.978	n/a	n/a	GoodResponse	1	0.0	n/a	2	39	ISIslide	Win	True
382.917	0.25	Win2	0.6098	0.0	Yes	2.733	0.017	n/a	GoodResponse	1	n/a	n/a	3	40	Cue	Win	True
383.168	3.95	Win2	0.6098	0.0	Yes	2.733	0.001	n/a	GoodResponse	1	n/a	n/a	3	40	Fixation	Win	True
387.113	0.25	Win2	0.6098	0.004	Yes	2.733	-0.004	2.0	GoodResponse	1	0.179	386.292	3	40	Target	Win	True
387.292	0.3	Win2	0.6098	0.004	Yes	2.733	-0.004	2.0	GoodResponse	1	0.179	n/a	3	40	ButtonPress	Win	True
387.364	0.45	Win2	0.6098	n/a	Yes	2.733	n/a	n/a	GoodResponse	1	n/a	n/a	3	40	Blank	Win	True
387.815	1.45	Win2	0.6098	n/a	Yes	2.733	n/a	5.0	GoodResponse	1	0.011	386.826	3	40	Feedback	Win	True
389.27	2.733	Win2	0.6098	n/a	Yes	2.733	n/a	n/a	GoodResponse	1	0.0	n/a	3	40	ISIslide	Win	True
392.028	0.25	Win2	0.619	0.0	Yes	2.772	0.028	n/a	GoodResponse	1	n/a	n/a	4	41	Cue	Win	True
392.279	3.9	Win2	0.619	0.0	Yes	2.772	0.001	n/a	GoodResponse	1	n/a	n/a	4	41	Fixation	Win	True
396.174	0.26	Win2	0.619	0.004	Yes	2.772	-0.004	2.0	GoodResponse	1	0.19	395.364	4	41	Target	Win	True
396.364	0.3	Win2	0.619	0.004	Yes	2.772	-0.004	2.0	GoodResponse	1	0.19	n/a	4	41	ButtonPress	Win	True
396.441	0.44	Win2	0.619	n/a	Yes	2.772	n/a	n/a	GoodResponse	1	n/a	n/a	4	41	Blank	Win	True
396.876	1.45	Win2	0.619	n/a	Yes	2.772	n/a	5.0	GoodResponse	1	0.023	395.899	4	41	Feedback	Win	True
398.33	2.772	Win2	0.619	n/a	Yes	2.772	n/a	n/a	GoodResponse	1	0.0	n/a	4	41	ISIslide	Win	True
401.122	0.25	Control	0.6279	0.0	Yes	2.928	0.022	n/a	GoodResponse	0	n/a	n/a	4	42	Cue	Neutral	True
401.373	3.85	Control	0.6279	0.0	Yes	2.928	0.001	n/a	GoodResponse	0	n/a	n/a	4	42	Fixation	Neutral	True
405.218	0.27	Control	0.6279	0.004	Yes	2.928	-0.004	2.0	GoodResponse	0	0.199	404.417	4	42	Target	Neutral	True
405.417	0.3	Control	0.6279	0.004	Yes	2.928	-0.004	2.0	GoodResponse	0	0.199	n/a	4	42	ButtonPress	Neutral	True
405.502	0.43	Control	0.6279	n/a	Yes	2.928	n/a	n/a	GoodResponse	0	n/a	n/a	4	42	Blank	Neutral	True
405.92	1.45	Control	0.6279	n/a	Yes	2.928	n/a	5.0	GoodResponse	0	0.007	404.927	4	42	Feedback	Neutral	True
407.374	2.928	Control	0.6279	n/a	Yes	2.928	n/a	n/a	GoodResponse	0	0.0	n/a	4	42	ISIslide	Neutral	True
410.316	0.25	Win2	0.6364	0.0	Yes	3.184	0.016	n/a	GoodResponse	1	n/a	n/a	5	43	Cue	Win	True
410.567	4.0	Win2	0.6364	0.0	Yes	3.184	0.001	n/a	GoodResponse	1	n/a	n/a	5	43	Fixation	Win	True
414.562	0.28	Win2	0.6364	0.004	Yes	3.184	-0.004	2.0	GoodResponse	1	0.248	413.81	5	43	Target	Win	True
414.81	0.3	Win2	0.6364	0.004	Yes	3.184	-0.004	2.0	GoodResponse	1	0.248	n/a	5	43	ButtonPress	Win	True
414.846	0.42	Win2	0.6364	n/a	Yes	3.184	n/a	n/a	GoodResponse	1	n/a	n/a	5	43	Blank	Win	True
415.264	1.45	Win2	0.6364	n/a	Yes	3.184	n/a	5.0	GoodResponse	1	0.026	414.29	5	43	Feedback	Win	True
416.719	3.184	Win2	0.6364	n/a	Yes	3.184	n/a	n/a	GoodResponse	1	0.0	n/a	5	43	ISIslide	Win	True
419.928	0.25	Win2	0.6444	0.0	Yes	2.972	0.028	n/a	GoodResponse	1	n/a	n/a	6	44	Cue	Win	True
420.179	4.0	Win2	0.6444	0.0	Yes	2.972	0.001	n/a	GoodResponse	1	n/a	n/a	6	44	Fixation	Win	True
424.174	0.29	Win2	0.6444	0.004	Yes	2.972	-0.004	2.0	GoodResponse	1	0.191	423.365	6	44	Target	Win	True
424.365	0.3	Win2	0.6444	0.004	Yes	2.972	-0.004	2.0	GoodResponse	1	0.191	n/a	6	44	ButtonPress	Win	True
424.475	0.41	Win2	0.6444	n/a	Yes	2.972	n/a	n/a	GoodResponse	1	n/a	n/a	6	44	Blank	Win	True
424.876	1.45	Win2	0.6444	n/a	Yes	2.972	n/a	5.0	GoodResponse	1	0.024	423.9	6	44	Feedback	Win	True
426.331	2.972	Win2	0.6444	n/a	Yes	2.972	n/a	n/a	GoodResponse	1	0.0	n/a	6	44	ISIslide	Win	True
429.323	0.25	Control	0.6522	0.0	Yes	2.877	0.023	n/a	GoodResponse	0	n/a	n/a	6	45	Cue	Neutral	True
429.574	4.1	Control	0.6522	0.0	Yes	2.877	0.001	n/a	GoodResponse	0	n/a	n/a	6	45	Fixation	Neutral	True
433.669	0.3	Control	0.6522	0.004	Yes	2.877	-0.004	2.0	GoodResponse	0	0.253	432.922	6	45	Target	Neutral	True
433.922	0.3	Control	0.6522	0.004	Yes	2.877	-0.004	2.0	GoodResponse	0	0.253	n/a	6	45	ButtonPress	Neutral	True
433.97	0.4	Control	0.6522	n/a	Yes	2.877	n/a	n/a	GoodResponse	0	n/a	n/a	6	45	Blank	Neutral	True
434.372	1.45	Control	0.6522	n/a	Yes	2.877	n/a	5.0	GoodResponse	0	0.04	433.412	6	45	Feedback	Neutral	True
435.826	2.877	Control	0.6522	n/a	Yes	2.877	n/a	n/a	GoodResponse	0	0.0	n/a	6	45	ISIslide	Neutral	True
438.718	0.25	Lose2	0.6596	0.0	Yes	3.382	0.018	n/a	GoodResponse	0	n/a	n/a	6	46	Cue	AvoidedLoss	True
438.969	4.0	Lose2	0.6596	0.0	Yes	3.382	0.001	n/a	GoodResponse	0	n/a	n/a	6	46	Fixation	AvoidedLoss	True
442.964	0.31	Lose2	0.6596	0.004	Yes	3.382	-0.004	2.0	GoodResponse	0	0.219	442.183	6	46	Target	AvoidedLoss	True
443.183	0.3	Lose2	0.6596	0.004	Yes	3.382	-0.004	2.0	GoodResponse	0	0.219	n/a	6	46	ButtonPress	AvoidedLoss	True
443.282	0.39	Lose2	0.6596	n/a	Yes	3.382	n/a	n/a	GoodResponse	0	n/a	n/a	6	46	Blank	AvoidedLoss	True
443.666	1.45	Lose2	0.6596	n/a	Yes	3.382	n/a	5.0	GoodResponse	0	0.013	442.679	6	46	Feedback	AvoidedLoss	True
445.12	3.382	Lose2	0.6596	n/a	Yes	3.382	n/a	n/a	GoodResponse	0	0.0	n/a	6	46	ISIslide	AvoidedLoss	True
448.531	0.25	Lose2	0.6667000000000001	0.0	Yes	2.669	0.031	n/a	GoodResponse	0	n/a	n/a	6	47	Cue	AvoidedLoss	True
448.781	4.0	Lose2	0.6667000000000001	0.0	Yes	2.669	0.0	n/a	GoodResponse	0	n/a	n/a	6	47	Fixation	AvoidedLoss	True
452.777	0.31	Lose2	0.6667000000000001	0.004	Yes	2.669	-0.004	2.0	GoodResponse	0	0.205	451.982	6	47	Target	AvoidedLoss	True
452.982	0.3	Lose2	0.6667000000000001	0.004	Yes	2.669	-0.004	2.0	GoodResponse	0	0.205	n/a	6	47	ButtonPress	AvoidedLoss	True
453.094	0.39	Lose2	0.6667000000000001	n/a	Yes	2.669	n/a	n/a	GoodResponse	0	n/a	n/a	6	47	Blank	AvoidedLoss	True
453.479	1.45	Lose2	0.6667000000000001	n/a	Yes	2.669	n/a	5.0	GoodResponse	0	0.008	452.487	6	47	Feedback	AvoidedLoss	True
454.933	2.669	Lose2	0.6667000000000001	n/a	Yes	2.669	n/a	n/a	GoodResponse	0	0.0	n/a	6	47	ISIslide	AvoidedLoss	True
457.625	0.25	Lose2	0.6735	0.0	Yes	3.025	0.025	n/a	GoodResponse	0	n/a	n/a	6	48	Cue	AvoidedLoss	True
457.875	3.95	Lose2	0.6735	0.0	Yes	3.025	0.0	n/a	GoodResponse	0	n/a	n/a	6	48	Fixation	AvoidedLoss	True
461.82	0.3	Lose2	0.6735	0.005	Yes	3.025	-0.005	2.0	GoodResponse	0	0.244	461.064	6	48	Target	AvoidedLoss	True
462.064	0.3	Lose2	0.6735	0.005	Yes	3.025	-0.005	2.0	GoodResponse	0	0.244	n/a	6	48	ButtonPress	AvoidedLoss	True
462.121	0.4	Lose2	0.6735	n/a	Yes	3.025	n/a	n/a	GoodResponse	0	n/a	n/a	6	48	Blank	AvoidedLoss	True
462.523	1.45	Lose2	0.6735	n/a	Yes	3.025	n/a	5.0	GoodResponse	0	0.035	461.558	6	48	Feedback	AvoidedLoss	True
463.977	3.025	Lose2	0.6735	n/a	Yes	3.025	n/a	n/a	GoodResponse	0	0.0	n/a	6	48	ISIslide	AvoidedLoss	True
467.019	0.25	Control	0.66	0.0	No	2.881	0.019	n/a	NoResponse	0	n/a	n/a	6	49	Cue	Neutral	True
467.27	4.0	Control	0.66	0.0	No	2.881	0.001	n/a	NoResponse	0	n/a	n/a	6	49	Fixation	Neutral	True
471.265	0.29	Control	0.66	0.004	No	2.881	-0.004	2.0	NoResponse	0	0.445	470.71	6	49	Target	Neutral	True
471.566	0.41	Control	0.66	n/a	No	2.881	n/a	n/a	NoResponse	0	n/a	n/a	6	49	Blank	Neutral	True
471.71	0.3	Control	0.66	0.004	No	2.881	-0.004	2.0	NoResponse	0	0.445	n/a	6	49	ButtonPress	Neutral	True
471.968	1.45	Control	0.66	n/a	No	2.881	n/a	5.0	NoResponse	0	0.006	470.974	6	49	Feedback	Neutral	True
473.422	2.881	Control	0.66	n/a	No	2.881	n/a	n/a	NoResponse	0	0.0	n/a	6	49	ISIslide	Neutral	True
476.314	0.25	Control	0.6667000000000001	0.0	Yes	2.786	0.014	n/a	GoodResponse	0	n/a	n/a	6	50	Cue	Neutral	True
476.565	4.0	Control	0.6667000000000001	0.0	Yes	2.786	0.001	n/a	GoodResponse	0	n/a	n/a	6	50	Fixation	Neutral	True
480.56	0.29	Control	0.6667000000000001	0.004	Yes	2.786	-0.004	2.0	GoodResponse	0	0.206	479.766	6	50	Target	Neutral	True
480.766	0.3	Control	0.6667000000000001	0.004	Yes	2.786	-0.004	2.0	GoodResponse	0	0.206	n/a	6	50	ButtonPress	Neutral	True
480.861	0.41	Control	0.6667000000000001	n/a	Yes	2.786	n/a	n/a	GoodResponse	0	n/a	n/a	6	50	Blank	Neutral	True
481.262	1.45	Control	0.6667000000000001	n/a	Yes	2.786	n/a	5.0	GoodResponse	0	0.028	480.29	6	50	Feedback	Neutral	True
482.716	2.786	Control	0.6667000000000001	n/a	Yes	2.786	n/a	n/a	GoodResponse	0	0.0	n/a	6	50	ISIslide	Neutral	True
485.525	0.25	Control	0.6731	0.0	Yes	2.725	0.025	n/a	GoodResponse	0	n/a	n/a	6	51	Cue	Neutral	True
485.776	3.95	Control	0.6731	0.0	Yes	2.725	0.001	n/a	GoodResponse	0	n/a	n/a	6	51	Fixation	Neutral	True
489.721	0.28	Control	0.6731	0.004	Yes	2.725	-0.004	2.0	GoodResponse	0	0.204	488.925	6	51	Target	Neutral	True
489.925	0.3	Control	0.6731	0.004	Yes	2.725	-0.004	2.0	GoodResponse	0	0.204	n/a	6	51	ButtonPress	Neutral	True
490.005	0.42	Control	0.6731	n/a	Yes	2.725	n/a	n/a	GoodResponse	0	n/a	n/a	6	51	Blank	Neutral	True
490.423	1.45	Control	0.6731	n/a	Yes	2.725	n/a	5.0	GoodResponse	0	0.037	489.46	6	51	Feedback	Neutral	True
491.877	2.725	Control	0.6731	n/a	Yes	2.725	n/a	n/a	GoodResponse	0	0.0	n/a	6	51	ISIslide	Neutral	True
494.619	0.25	Control	0.6792	0.0	Yes	2.631	0.019	n/a	GoodResponse	0	n/a	n/a	6	52	Cue	Neutral	True
494.869	4.05	Control	0.6792	0.001	Yes	2.631	0.0	n/a	GoodResponse	0	n/a	n/a	6	52	Fixation	Neutral	True
498.915	0.27	Control	0.6792	0.004	Yes	2.631	-0.004	2.0	GoodResponse	0	0.205	498.12	6	52	Target	Neutral	True
499.12	0.3	Control	0.6792	0.004	Yes	2.631	-0.004	2.0	GoodResponse	0	0.205	n/a	6	52	ButtonPress	Neutral	True
499.199	0.43	Control	0.6792	n/a	Yes	2.631	n/a	n/a	GoodResponse	0	n/a	n/a	6	52	Blank	Neutral	True
499.617	1.45	Control	0.6792	n/a	Yes	2.631	n/a	5.0	GoodResponse	0	0.013	498.63	6	52	Feedback	Neutral	True
501.071	2.631	Control	0.6792	n/a	Yes	2.631	n/a	n/a	GoodResponse	0	0.0	n/a	6	52	ISIslide	Neutral	True
503.729	0.25	Win2	0.6851999999999999	0.0	Yes	2.921	0.029	n/a	GoodResponse	1	n/a	n/a	7	53	Cue	Win	True
503.98	4.05	Win2	0.6851999999999999	0.0	Yes	2.921	0.001	n/a	GoodResponse	1	n/a	n/a	7	53	Fixation	Win	True
508.026	0.26	Win2	0.6851999999999999	0.003	Yes	2.921	-0.003	2.0	GoodResponse	1	0.206	507.232	7	53	Target	Win	True
508.232	0.3	Win2	0.6851999999999999	0.003	Yes	2.921	-0.003	2.0	GoodResponse	1	0.206	n/a	7	53	ButtonPress	Win	True
508.293	0.44	Win2	0.6851999999999999	n/a	Yes	2.921	n/a	n/a	GoodResponse	1	n/a	n/a	7	53	Blank	Win	True
508.728	1.45	Win2	0.6851999999999999	n/a	Yes	2.921	n/a	5.0	GoodResponse	1	0.024	507.752	7	53	Feedback	Win	True
510.182	2.921	Win2	0.6851999999999999	n/a	Yes	2.921	n/a	n/a	GoodResponse	1	0.0	n/a	7	53	ISIslide	Win	True
513.124	0.25	Win2	0.6909000000000001	0.0	Yes	2.726	0.024	n/a	GoodResponse	1	n/a	n/a	8	54	Cue	Win	True
513.375	3.95	Win2	0.6909000000000001	0.0	Yes	2.726	0.001	n/a	GoodResponse	1	n/a	n/a	8	54	Fixation	Win	True
517.32	0.25	Win2	0.6909000000000001	0.004	Yes	2.726	-0.004	2.0	GoodResponse	1	0.206	516.526	8	54	Target	Win	True
517.526	0.3	Win2	0.6909000000000001	0.004	Yes	2.726	-0.004	2.0	GoodResponse	1	0.206	n/a	8	54	ButtonPress	Win	True
517.571	0.45	Win2	0.6909000000000001	n/a	Yes	2.726	n/a	n/a	GoodResponse	1	n/a	n/a	8	54	Blank	Win	True
518.022	1.45	Win2	0.6909000000000001	n/a	Yes	2.726	n/a	5.0	GoodResponse	1	0.047	517.069	8	54	Feedback	Win	True
519.477	2.726	Win2	0.6909000000000001	n/a	Yes	2.726	n/a	n/a	GoodResponse	1	0.0	n/a	8	54	ISIslide	Win	True
522.218	0.25	Control	0.6786	0.0	No	3.032	0.018	n/a	NoResponse	0	n/a	n/a	8	55	Cue	Neutral	True
522.469	3.95	Control	0.6786	0.0	No	3.032	0.001	n/a	NoResponse	0	n/a	n/a	8	55	Fixation	Neutral	True
526.414	0.24	Control	0.6786	0.004	No	3.032	-0.004	2.0	NoResponse	0	0.263	525.677	8	55	Target	Neutral	True
526.665	0.46	Control	0.6786	n/a	No	3.032	n/a	n/a	NoResponse	0	n/a	n/a	8	55	Blank	Neutral	True
526.677	0.3	Control	0.6786	0.004	No	3.032	-0.004	2.0	NoResponse	0	0.263	n/a	8	55	ButtonPress	Neutral	True
527.116	1.45	Control	0.6786	n/a	No	3.032	n/a	5.0	NoResponse	0	0.027	526.143	8	55	Feedback	Neutral	True
528.57	3.032	Control	0.6786	n/a	No	3.032	n/a	n/a	NoResponse	0	0.0	n/a	8	55	ISIslide	Neutral	True
531.63	0.25	Control	0.6842	0.0	Yes	2.82	0.03	n/a	GoodResponse	0	n/a	n/a	8	56	Cue	Neutral	True
531.88	3.95	Control	0.6842	0.0	Yes	2.82	0.0	n/a	GoodResponse	0	n/a	n/a	8	56	Fixation	Neutral	True
535.826	0.23	Control	0.6842	0.004	Yes	2.82	-0.004	2.0	GoodResponse	0	0.197	535.023	8	56	Target	Neutral	True
536.023	0.3	Control	0.6842	0.004	Yes	2.82	-0.004	2.0	GoodResponse	0	0.197	n/a	8	56	ButtonPress	Neutral	True
536.06	0.47	Control	0.6842	n/a	Yes	2.82	n/a	n/a	GoodResponse	0	n/a	n/a	8	56	Blank	Neutral	True
536.528	1.45	Control	0.6842	n/a	Yes	2.82	n/a	5.0	GoodResponse	0	0.029	535.557	8	56	Feedback	Neutral	True
537.982	2.82	Control	0.6842	n/a	Yes	2.82	n/a	n/a	GoodResponse	0	0.0	n/a	8	56	ISIslide	Neutral	True
540.824	0.25	Control	0.6897	0.0	Yes	3.476	0.024	n/a	GoodResponse	0	n/a	n/a	8	57	Cue	Neutral	True
541.075	4.0	Control	0.6897	0.0	Yes	3.476	0.001	n/a	GoodResponse	0	n/a	n/a	8	57	Fixation	Neutral	True
545.07	0.22	Control	0.6897	0.004	Yes	3.476	-0.004	2.0	GoodResponse	0	0.195	544.265	8	57	Target	Neutral	True
545.265	0.3	Control	0.6897	0.004	Yes	3.476	-0.004	2.0	GoodResponse	0	0.195	n/a	8	57	ButtonPress	Neutral	True
545.304	0.48	Control	0.6897	n/a	Yes	3.476	n/a	n/a	GoodResponse	0	n/a	n/a	8	57	Blank	Neutral	True
545.772	1.45	Control	0.6897	n/a	Yes	3.476	n/a	5.0	GoodResponse	0	0.007	544.779	8	57	Feedback	Neutral	True
547.226	3.476	Control	0.6897	n/a	Yes	3.476	n/a	n/a	GoodResponse	0	0.0	n/a	8	57	ISIslide	Neutral	True
550.72	0.25	Win2	0.6779999999999999	0.0	No	2.73	0.02	n/a	LatePress	0	n/a	n/a	8	58	Cue	MissedWin	True
550.971	4.05	Win2	0.6779999999999999	0.0	No	2.73	0.001	n/a	LatePress	0	n/a	n/a	8	58	Fixation	MissedWin	True
555.016	0.21	Win2	0.6779999999999999	0.004	No	2.73	-0.004	2.0	LatePress	0	0.21	554.226	8	58	Target	MissedWin	True
555.226	0.3	Win2	0.6779999999999999	0.004	No	2.73	-0.004	2.0	LatePress	0	0.21	n/a	8	58	ButtonPress	MissedWin	True
555.234	0.49	Win2	0.6779999999999999	n/a	No	2.73	n/a	n/a	LatePress	0	n/a	n/a	8	58	Blank	MissedWin	True
555.718	1.45	Win2	0.6779999999999999	n/a	No	2.73	n/a	5.0	LatePress	0	0.009	554.727	8	58	Feedback	MissedWin	True
557.173	2.73	Win2	0.6779999999999999	n/a	No	2.73	n/a	n/a	LatePress	0	0.0	n/a	8	58	ISIslide	MissedWin	True
559.914	0.25	Lose2	0.6833	0.0	Yes	2.686	0.014	n/a	GoodResponse	0	n/a	n/a	8	59	Cue	AvoidedLoss	True
560.165	4.0	Lose2	0.6833	0.0	Yes	2.686	0.001	n/a	GoodResponse	0	n/a	n/a	8	59	Fixation	AvoidedLoss	True
564.16	0.2	Lose2	0.6833	0.004	Yes	2.686	-0.004	2.0	GoodResponse	0	0.198	563.358	8	59	Target	AvoidedLoss	True
564.358	0.3	Lose2	0.6833	0.004	Yes	2.686	-0.004	2.0	GoodResponse	0	0.198	n/a	8	59	ButtonPress	AvoidedLoss	True
564.361	0.5	Lose2	0.6833	n/a	Yes	2.686	n/a	n/a	GoodResponse	0	n/a	n/a	8	59	Blank	AvoidedLoss	True
564.863	1.45	Lose2	0.6833	n/a	Yes	2.686	n/a	5.0	GoodResponse	0	0.035	563.898	8	59	Feedback	AvoidedLoss	True
566.317	2.686	Lose2	0.6833	n/a	Yes	2.686	n/a	n/a	GoodResponse	0	0.0	n/a	8	59	ISIslide	AvoidedLoss	True
569.025	0.25	Control	0.6720999999999999	0.0	No	2.675	0.025	n/a	NoResponse	0	n/a	n/a	8	60	Cue	Neutral	True
569.276	4.0	Control	0.6720999999999999	0.0	No	2.675	0.001	n/a	NoResponse	0	n/a	n/a	8	60	Fixation	Neutral	True
573.271	0.19	Control	0.6720999999999999	0.004	No	2.675	-0.004	2.0	NoResponse	0	0.201	572.472	8	60	Target	Neutral	True
573.472	0.51	Control	0.6720999999999999	n/a	No	2.675	n/a	n/a	NoResponse	0	n/a	n/a	8	60	Blank	Neutral	True
573.472	0.3	Control	0.6720999999999999	0.004	No	2.675	-0.004	2.0	NoResponse	0	0.201	n/a	8	60	ButtonPress	Neutral	True
573.973	1.45	Control	0.6720999999999999	n/a	No	2.675	n/a	5.0	NoResponse	0	0.047	573.02	8	60	Feedback	Neutral	True
575.428	2.675	Control	0.6720999999999999	n/a	No	2.675	n/a	n/a	NoResponse	0	0.0	n/a	8	60	ISIslide	Neutral	True
578.119	0.25	Lose2	0.6774	0.0	Yes	2.981	0.019	n/a	GoodResponse	0	n/a	n/a	8	61	Cue	AvoidedLoss	True
578.37	4.0	Lose2	0.6774	0.0	Yes	2.981	0.001	n/a	GoodResponse	0	n/a	n/a	8	61	Fixation	AvoidedLoss	True
582.365	0.18	Lose2	0.6774	0.004	Yes	2.981	-0.004	2.0	GoodResponse	0	0.175	581.54	8	61	Target	AvoidedLoss	True
582.54	0.3	Lose2	0.6774	0.004	Yes	2.981	-0.004	2.0	GoodResponse	0	0.175	n/a	8	61	ButtonPress	AvoidedLoss	True
582.549	0.52	Lose2	0.6774	n/a	Yes	2.981	n/a	n/a	GoodResponse	0	n/a	n/a	8	61	Blank	AvoidedLoss	True
583.067	1.45	Lose2	0.6774	n/a	Yes	2.981	n/a	5.0	GoodResponse	0	0.027	582.094	8	61	Feedback	AvoidedLoss	True
584.521	2.981	Lose2	0.6774	n/a	Yes	2.981	n/a	n/a	GoodResponse	0	0.0	n/a	8	61	ISIslide	AvoidedLoss	True
587.53	0.25	Lose2	0.6667000000000001	0.001	No	2.87	0.03	n/a	NoResponse	-1	n/a	n/a	7	62	Cue	Loss	True
587.781	3.9	Lose2	0.6667000000000001	0.0	No	2.87	0.001	n/a	NoResponse	-1	n/a	n/a	7	62	Fixation	Loss	True
591.676	0.17	Lose2	0.6667000000000001	0.004	No	2.87	-0.004	2.0	NoResponse	-1	0.192	590.868	7	62	Target	Loss	True
591.86	0.53	Lose2	0.6667000000000001	n/a	No	2.87	n/a	n/a	NoResponse	-1	n/a	n/a	7	62	Blank	Loss	True
591.868	0.3	Lose2	0.6667000000000001	0.004	No	2.87	-0.004	2.0	NoResponse	-1	0.192	n/a	7	62	ButtonPress	Loss	True
592.378	1.45	Lose2	0.6667000000000001	n/a	No	2.87	n/a	5.0	NoResponse	-1	0.033	591.411	7	62	Feedback	Loss	True
593.833	2.87	Lose2	0.6667000000000001	n/a	No	2.87	n/a	n/a	NoResponse	-1	0.0	n/a	7	62	ISIslide	Loss	True
596.725	0.25	Lose2	0.6562	0.0	No	2.625	0.025	n/a	NoResponse	-1	n/a	n/a	6	63	Cue	Loss	True
596.975	4.05	Lose2	0.6562	0.001	No	2.625	0.0	n/a	NoResponse	-1	n/a	n/a	6	63	Fixation	Loss	True
601.021	0.16	Lose2	0.6562	0.004	No	2.625	-0.004	2.0	NoResponse	-1	0.189	600.21	6	63	Target	Loss	True
601.188	0.54	Lose2	0.6562	n/a	No	2.625	n/a	n/a	NoResponse	-1	n/a	n/a	6	63	Blank	Loss	True
601.21	0.3	Lose2	0.6562	0.004	No	2.625	-0.004	2.0	NoResponse	-1	0.189	n/a	6	63	ButtonPress	Loss	True
601.723	1.45	Lose2	0.6562	n/a	No	2.625	n/a	5.0	NoResponse	-1	0.007	600.73	6	63	Feedback	Loss	True
603.177	2.625	Lose2	0.6562	n/a	No	2.625	n/a	n/a	NoResponse	-1	0.0	n/a	6	63	ISIslide	Loss	True
605.819	0.25	Win2	0.6462	0.0	No	3.131	0.019	n/a	NoResponse	0	n/a	n/a	6	64	Cue	MissedWin	True
606.069	4.15	Win2	0.6462	0.0	No	3.131	0.0	n/a	NoResponse	0	n/a	n/a	6	64	Fixation	MissedWin	True
610.215	0.16	Win2	0.6462	0.004	No	3.131	-0.004	2.0	NoResponse	0	0.188	609.403	6	64	Target	MissedWin	True
610.382	0.54	Win2	0.6462	n/a	No	3.131	n/a	n/a	NoResponse	0	n/a	n/a	6	64	Blank	MissedWin	True
610.403	0.3	Win2	0.6462	0.004	No	3.131	-0.004	2.0	NoResponse	0	0.188	n/a	6	64	ButtonPress	MissedWin	True
610.917	1.45	Win2	0.6462	n/a	No	3.131	n/a	5.0	NoResponse	0	0.03	609.947	6	64	Feedback	MissedWin	True
612.372	3.131	Win2	0.6462	n/a	No	3.131	n/a	n/a	NoResponse	0	0.0	n/a	6	64	ISIslide	MissedWin	True
615.514	0.25	Control	0.6364	0.0	No	2.786	0.014	n/a	NoResponse	0	n/a	n/a	6	65	Cue	Neutral	True
615.765	4.0	Control	0.6364	0.0	No	2.786	0.001	n/a	NoResponse	0	n/a	n/a	6	65	Fixation	Neutral	True
619.76	0.17	Control	0.6364	0.004	No	2.786	-0.004	2.0	NoResponse	0	0.213	618.973	6	65	Target	Neutral	True
619.944	0.53	Control	0.6364	n/a	No	2.786	n/a	n/a	NoResponse	0	n/a	n/a	6	65	Blank	Neutral	True
619.973	0.3	Control	0.6364	0.004	No	2.786	-0.004	2.0	NoResponse	0	0.213	n/a	6	65	ButtonPress	Neutral	True
620.462	1.45	Control	0.6364	n/a	No	2.786	n/a	5.0	NoResponse	0	0.046	619.508	6	65	Feedback	Neutral	True
621.917	2.786	Control	0.6364	n/a	No	2.786	n/a	n/a	NoResponse	0	0.0	n/a	6	65	ISIslide	Neutral	True
624.725	0.25	Win2	0.6269	0.0	No	2.775	0.025	n/a	NoResponse	0	n/a	n/a	6	66	Cue	MissedWin	True
624.976	3.9	Win2	0.6269	0.0	No	2.775	0.001	n/a	NoResponse	0	n/a	n/a	6	66	Fixation	MissedWin	True
628.871	0.18	Win2	0.6269	0.004	No	2.775	-0.004	2.0	NoResponse	0	0.195	628.066	6	66	Target	MissedWin	True
629.055	0.52	Win2	0.6269	n/a	No	2.775	n/a	n/a	NoResponse	0	n/a	n/a	6	66	Blank	MissedWin	True
629.066	0.3	Win2	0.6269	0.004	No	2.775	-0.004	2.0	NoResponse	0	0.195	n/a	6	66	ButtonPress	MissedWin	True
629.573	1.45	Win2	0.6269	n/a	No	2.775	n/a	5.0	NoResponse	0	0.008	628.581	6	66	Feedback	MissedWin	True
631.027	2.775	Win2	0.6269	n/a	No	2.775	n/a	n/a	NoResponse	0	0.0	n/a	6	66	ISIslide	MissedWin	True
633.819	0.25	Control	0.6175999999999999	0.0	No	2.731	0.019	n/a	NoResponse	0	n/a	n/a	6	67	Cue	Neutral	True
634.07	3.95	Control	0.6175999999999999	0.0	No	2.731	0.001	n/a	NoResponse	0	n/a	n/a	6	67	Fixation	Neutral	True
638.015	0.19	Control	0.6175999999999999	0.004	No	2.731	-0.004	2.0	NoResponse	0	0.212	637.227	6	67	Target	Neutral	True
638.216	0.51	Control	0.6175999999999999	n/a	No	2.731	n/a	n/a	NoResponse	0	n/a	n/a	6	67	Blank	Neutral	True
638.227	0.3	Control	0.6175999999999999	0.004	No	2.731	-0.004	2.0	NoResponse	0	0.212	n/a	6	67	ButtonPress	Neutral	True
638.717	1.45	Control	0.6175999999999999	n/a	No	2.731	n/a	5.0	NoResponse	0	0.035	637.752	6	67	Feedback	Neutral	True
640.172	2.731	Control	0.6175999999999999	n/a	No	2.731	n/a	n/a	NoResponse	0	0.0	n/a	6	67	ISIslide	Neutral	True
642.93	0.25	Win2	0.6232	0.0	Yes	3.07	0.03	n/a	GoodResponse	1	n/a	n/a	7	68	Cue	Win	True
643.181	4.0	Win2	0.6232	0.0	Yes	3.07	0.001	n/a	GoodResponse	1	n/a	n/a	7	68	Fixation	Win	True
647.176	0.2	Win2	0.6232	0.004	Yes	3.07	-0.004	2.0	GoodResponse	1	0.195	646.371	7	68	Target	Win	True
647.371	0.3	Win2	0.6232	0.004	Yes	3.07	-0.004	2.0	GoodResponse	1	0.195	n/a	7	68	ButtonPress	Win	True
647.376	0.5	Win2	0.6232	n/a	Yes	3.07	n/a	n/a	GoodResponse	1	n/a	n/a	7	68	Blank	Win	True
647.878	1.45	Win2	0.6232	n/a	Yes	3.07	n/a	5.0	GoodResponse	1	0.044	646.922	7	68	Feedback	Win	True
649.332	3.07	Win2	0.6232	n/a	Yes	3.07	n/a	n/a	GoodResponse	1	0.0	n/a	7	68	ISIslide	Win	True
652.425	0.25	Win2	0.6286	0.0	Yes	3.225	0.025	n/a	GoodResponse	1	n/a	n/a	8	69	Cue	Win	True
652.676	3.95	Win2	0.6286	0.0	Yes	3.225	0.001	n/a	GoodResponse	1	n/a	n/a	8	69	Fixation	Win	True
656.621	0.21	Win2	0.6286	0.004	Yes	3.225	-0.004	2.0	GoodResponse	1	0.175	655.796	8	69	Target	Win	True
656.796	0.3	Win2	0.6286	0.004	Yes	3.225	-0.004	2.0	GoodResponse	1	0.175	n/a	8	69	ButtonPress	Win	True
656.838	0.49	Win2	0.6286	n/a	Yes	3.225	n/a	n/a	GoodResponse	1	n/a	n/a	8	69	Blank	Win	True
657.323	1.45	Win2	0.6286	n/a	Yes	3.225	n/a	5.0	GoodResponse	1	0.014	656.337	8	69	Feedback	Win	True
658.777	3.225	Win2	0.6286	n/a	Yes	3.225	n/a	n/a	GoodResponse	1	0.0	n/a	8	69	ISIslide	Win	True
662.02	0.25	Lose2	0.6197	0.0	No	3.03	0.02	n/a	LatePress	-1	n/a	n/a	7	70	Cue	Loss	True
662.271	4.05	Lose2	0.6197	0.0	No	3.03	0.001	n/a	LatePress	-1	n/a	n/a	7	70	Fixation	Loss	True
666.317	0.22	Lose2	0.6197	0.003	No	3.03	-0.003	2.0	LatePress	-1	0.228	665.545	7	70	Target	Loss	True
666.545	0.3	Lose2	0.6197	0.003	No	3.03	-0.003	2.0	LatePress	-1	0.228	n/a	7	70	ButtonPress	Loss	True
666.551	0.48	Lose2	0.6197	n/a	No	3.03	n/a	n/a	LatePress	-1	n/a	n/a	7	70	Blank	Loss	True
667.019	1.45	Lose2	0.6197	n/a	No	3.03	n/a	5.0	LatePress	-1	0.026	666.045	7	70	Feedback	Loss	True
668.473	3.03	Lose2	0.6197	n/a	No	3.03	n/a	n/a	LatePress	-1	0.0	n/a	7	70	ISIslide	Loss	True
671.515	0.25	Win2	0.625	0.001	Yes	2.735	0.015	n/a	GoodResponse	1	n/a	n/a	8	71	Cue	Win	True
671.766	4.05	Win2	0.625	0.0	Yes	2.735	0.001	n/a	GoodResponse	1	n/a	n/a	8	71	Fixation	Win	True
675.812	0.23	Win2	0.625	0.003	Yes	2.735	-0.003	2.0	GoodResponse	1	0.195	675.007	8	71	Target	Win	True
676.007	0.3	Win2	0.625	0.003	Yes	2.735	-0.003	2.0	GoodResponse	1	0.195	n/a	8	71	ButtonPress	Win	True
676.046	0.47	Win2	0.625	n/a	Yes	2.735	n/a	n/a	GoodResponse	1	n/a	n/a	8	71	Blank	Win	True
676.514	1.45	Win2	0.625	n/a	Yes	2.735	n/a	5.0	GoodResponse	1	0.042	675.556	8	71	Feedback	Win	True
677.968	2.735	Win2	0.625	n/a	Yes	2.735	n/a	n/a	GoodResponse	1	0.0	n/a	8	71	ISIslide	Win	True
680.726	0.25	Win2	0.6301	0.0	Yes	2.774	0.026	n/a	GoodResponse	1	n/a	n/a	9	72	Cue	Win	True
680.977	4.1	Win2	0.6301	0.0	Yes	2.774	0.001	n/a	GoodResponse	1	n/a	n/a	9	72	Fixation	Win	True
685.073	0.24	Win2	0.6301	0.003	Yes	2.774	-0.003	2.0	GoodResponse	1	0.216	684.289	9	72	Target	Win	True
685.289	0.3	Win2	0.6301	0.003	Yes	2.774	-0.003	2.0	GoodResponse	1	0.216	n/a	9	72	ButtonPress	Win	True
685.323	0.46	Win2	0.6301	n/a	Yes	2.774	n/a	n/a	GoodResponse	1	n/a	n/a	9	72	Blank	Win	True
685.775	1.45	Win2	0.6301	n/a	Yes	2.774	n/a	5.0	GoodResponse	1	0.007	684.782	9	72	Feedback	Win	True
687.229	2.774	Win2	0.6301	n/a	Yes	2.774	n/a	n/a	GoodResponse	1	0.0	n/a	9	72	ISIslide	Win	True
690.021	0.25	Win2	0.6351	0.0	Yes	2.679	0.021	n/a	GoodResponse	1	n/a	n/a	10	73	Cue	Win	True
690.272	4.0	Win2	0.6351	0.0	Yes	2.679	0.001	n/a	GoodResponse	1	n/a	n/a	10	73	Fixation	Win	True
694.267	0.25	Win2	0.6351	0.004	Yes	2.679	-0.004	2.0	GoodResponse	1	0.19	693.457	10	73	Target	Win	True
694.457	0.3	Win2	0.6351	0.004	Yes	2.679	-0.004	2.0	GoodResponse	1	0.19	n/a	10	73	ButtonPress	Win	True
694.518	0.45	Win2	0.6351	n/a	Yes	2.679	n/a	n/a	GoodResponse	1	n/a	n/a	10	73	Blank	Win	True
694.969	1.45	Win2	0.6351	n/a	Yes	2.679	n/a	5.0	GoodResponse	1	0.026	693.995	10	73	Feedback	Win	True
696.423	2.679	Win2	0.6351	n/a	Yes	2.679	n/a	n/a	GoodResponse	1	0.0	n/a	10	73	ISIslide	Win	True
699.132	0.25	Lose2	0.64	0.0	Yes	2.618	0.032	n/a	GoodResponse	0	n/a	n/a	10	74	Cue	AvoidedLoss	True
699.382	4.05	Lose2	0.64	0.0	Yes	2.618	0.0	n/a	GoodResponse	0	n/a	n/a	10	74	Fixation	AvoidedLoss	True
703.428	0.26	Lose2	0.64	0.004	Yes	2.618	-0.004	2.0	GoodResponse	0	0.193	702.621	10	74	Target	AvoidedLoss	True
703.621	0.3	Lose2	0.64	0.004	Yes	2.618	-0.004	2.0	GoodResponse	0	0.193	n/a	10	74	ButtonPress	AvoidedLoss	True
703.695	0.44	Lose2	0.64	n/a	Yes	2.618	n/a	n/a	GoodResponse	0	n/a	n/a	10	74	Blank	AvoidedLoss	True
704.13	1.45	Lose2	0.64	n/a	Yes	2.618	n/a	5.0	GoodResponse	0	0.036	703.166	10	74	Feedback	AvoidedLoss	True
705.584	2.618	Lose2	0.64	n/a	Yes	2.618	n/a	n/a	GoodResponse	0	0.0	n/a	10	74	ISIslide	AvoidedLoss	True
708.225	0.25	Lose2	0.6446999999999999	0.001	Yes	2.925	0.025	n/a	GoodResponse	0	n/a	n/a	10	75	Cue	AvoidedLoss	True
708.476	3.95	Lose2	0.6446999999999999	0.0	Yes	2.925	0.001	n/a	GoodResponse	0	n/a	n/a	10	75	Fixation	AvoidedLoss	True
712.421	0.27	Lose2	0.6446999999999999	0.004	Yes	2.925	-0.004	2.0	GoodResponse	0	0.205	711.626	10	75	Target	AvoidedLoss	True
712.626	0.3	Lose2	0.6446999999999999	0.004	Yes	2.925	-0.004	2.0	GoodResponse	0	0.205	n/a	10	75	ButtonPress	AvoidedLoss	True
712.706	0.43	Lose2	0.6446999999999999	n/a	Yes	2.925	n/a	n/a	GoodResponse	0	n/a	n/a	10	75	Blank	AvoidedLoss	True
713.123	1.45	Lose2	0.6446999999999999	n/a	Yes	2.925	n/a	5.0	GoodResponse	0	0.019	712.142	10	75	Feedback	AvoidedLoss	True
714.578	2.925	Lose2	0.6446999999999999	n/a	Yes	2.925	n/a	n/a	GoodResponse	0	0.0	n/a	10	75	ISIslide	AvoidedLoss	True
717.52	0.25	Control	0.6494	0.0	Yes	3.23	0.02	n/a	GoodResponse	0	n/a	n/a	10	76	Cue	Neutral	True
717.771	4.05	Control	0.6494	0.0	Yes	3.23	0.001	n/a	GoodResponse	0	n/a	n/a	10	76	Fixation	Neutral	True
721.816	0.28	Control	0.6494	0.004	Yes	3.23	-0.004	2.0	GoodResponse	0	0.202	721.018	10	76	Target	Neutral	True
722.018	0.3	Control	0.6494	0.004	Yes	3.23	-0.004	2.0	GoodResponse	0	0.202	n/a	10	76	ButtonPress	Neutral	True
722.1	0.42	Control	0.6494	n/a	Yes	3.23	n/a	n/a	GoodResponse	0	n/a	n/a	10	76	Blank	Neutral	True
722.518	1.45	Control	0.6494	n/a	Yes	3.23	n/a	5.0	GoodResponse	0	0.038	721.556	10	76	Feedback	Neutral	True
723.973	3.23	Control	0.6494	n/a	Yes	3.23	n/a	n/a	GoodResponse	0	0.0	n/a	10	76	ISIslide	Neutral	True
727.216	0.25	Lose2	0.6537999999999999	0.0	Yes	2.584	0.016	n/a	GoodResponse	0	n/a	n/a	10	77	Cue	AvoidedLoss	True
727.466	3.95	Lose2	0.6537999999999999	0.001	Yes	2.584	0.0	n/a	GoodResponse	0	n/a	n/a	10	77	Fixation	AvoidedLoss	True
731.412	0.29	Lose2	0.6537999999999999	0.004	Yes	2.584	-0.004	2.0	GoodResponse	0	0.158	730.57	10	77	Target	AvoidedLoss	True
731.57	0.3	Lose2	0.6537999999999999	0.004	Yes	2.584	-0.004	2.0	GoodResponse	0	0.158	n/a	10	77	ButtonPress	AvoidedLoss	True
731.712	0.41	Lose2	0.6537999999999999	n/a	Yes	2.584	n/a	n/a	GoodResponse	0	n/a	n/a	10	77	Blank	AvoidedLoss	True
732.114	1.45	Lose2	0.6537999999999999	n/a	Yes	2.584	n/a	5.0	GoodResponse	0	0.008	731.122	10	77	Feedback	AvoidedLoss	True
733.568	2.584	Lose2	0.6537999999999999	n/a	Yes	2.584	n/a	n/a	GoodResponse	0	0.0	n/a	10	77	ISIslide	AvoidedLoss	True
