onset	duration	cue_type	current_mean_accuracy	duration_error	is_hit	isi_adjusted	onset_delay	response	response_type	reward	rt	rt_time	total_reward	trial_number	trial_phase	trial_type	one_press
11.098	0.25	Control	1.0	0.0	Yes	2.952	-0.002	n/a	GoodResponse	0	n/a	n/a	0	0	Cue	Neutral	False
11.348	3.85	Control	1.0	0.0	Yes	2.952	0.0	1.0	GoodResponse	0	0.605	10.953	0	0	Fixation	Neutral	False
11.953	0.3	Control	1.0	0.0	Yes	2.952	0.0	1.0	GoodResponse	0	0.605	n/a	0	0	ButtonPress	Neutral	False
15.196	0.4	Control	1.0	0.002	Yes	2.952	-0.002	1.0	GoodResponse	0	0.217	14.413	0	0	Target	Neutral	False
15.413	0.3	Control	1.0	0.002	Yes	2.952	-0.002	1.0	GoodResponse	0	0.217	n/a	0	0	ButtonPress	Neutral	False
15.596	0.3	Control	1.0	n/a	Yes	2.952	n/a	n/a	GoodResponse	0	n/a	n/a	0	0	Blank	Neutral	False
15.896	1.45	Control	1.0	n/a	Yes	2.952	n/a	5.0	GoodResponse	0	0.03	14.926	0	0	Feedback	Neutral	False
17.346	2.952	Control	1.0	n/a	Yes	2.952	n/a	n/a	GoodResponse	0	0.0	n/a	0	0	ISIslide	Neutral	False
20.328	0.25	Lose2	1.0	0.0	Yes	2.772	0.028	n/a	GoodResponse	0	n/a	n/a	0	1	Cue	AvoidedLoss	True
20.578	4.0	Lose2	1.0	0.0	Yes	2.772	0.0	n/a	GoodResponse	0	n/a	n/a	0	1	Fixation	AvoidedLoss	True
24.577	0.39	Lose2	1.0	0.001	Yes	2.772	-0.001	1.0	GoodResponse	0	0.197	23.774	0	1	Target	AvoidedLoss	True
24.774	0.3	Lose2	1.0	0.001	Yes	2.772	-0.001	1.0	GoodResponse	0	0.197	n/a	0	1	ButtonPress	AvoidedLoss	True
24.976	0.31	Lose2	1.0	n/a	Yes	2.772	n/a	n/a	GoodResponse	0	n/a	n/a	0	1	Blank	AvoidedLoss	True
25.276	1.45	Lose2	1.0	n/a	Yes	2.772	n/a	5.0	GoodResponse	0	0.016	24.292	0	1	Feedback	AvoidedLoss	True
26.726	2.772	Lose2	1.0	n/a	Yes	2.772	n/a	n/a	GoodResponse	0	0.0	n/a	0	1	ISIslide	AvoidedLoss	True
29.525	0.25	Control	1.0	0.0	Yes	2.575	0.025	n/a	GoodResponse	0	n/a	n/a	0	2	Cue	Neutral	True
29.775	4.1	Control	1.0	0.0	Yes	2.575	0.0	n/a	GoodResponse	0	n/a	n/a	0	2	Fixation	Neutral	True
33.873	0.38	Control	1.0	0.002	Yes	2.575	-0.002	1.0	GoodResponse	0	0.215	33.088	0	2	Target	Neutral	True
34.088	0.3	Control	1.0	0.002	Yes	2.575	-0.002	1.0	GoodResponse	0	0.215	n/a	0	2	ButtonPress	Neutral	True
34.257	0.32	Control	1.0	n/a	Yes	2.575	n/a	n/a	GoodResponse	0	n/a	n/a	0	2	Blank	Neutral	True
34.573	1.45	Control	1.0	n/a	Yes	2.575	n/a	5.0	GoodResponse	0	0.036	33.609	0	2	Feedback	Neutral	True
36.023	2.575	Control	1.0	n/a	Yes	2.575	n/a	n/a	GoodResponse	0	0.0	n/a	0	2	ISIslide	Neutral	True
38.622	0.25	Win2	1.0	0.0	Yes	2.828	0.022	n/a	GoodResponse	1	n/a	n/a	1	3	Cue	Win	True
38.872	3.95	Win2	1.0	0.0	Yes	2.828	0.0	n/a	GoodResponse	1	n/a	n/a	1	3	Fixation	Win	True
42.82	0.37	Win2	1.0	0.002	Yes	2.828	-0.002	1.0	GoodResponse	1	0.24	42.06	1	3	Target	Win	True
43.06	0.3	Win2	1.0	0.002	Yes	2.828	-0.002	1.0	GoodResponse	1	0.24	n/a	1	3	ButtonPress	Win	True
43.203	0.33	Win2	1.0	n/a	Yes	2.828	n/a	n/a	GoodResponse	1	n/a	n/a	1	3	Blank	Win	True
43.52	1.45	Win2	1.0	n/a	Yes	2.828	n/a	5.0	GoodResponse	1	0.016	42.536	1	3	Feedback	Win	True
44.969	2.828	Win2	1.0	n/a	Yes	2.828	n/a	n/a	GoodResponse	1	0.0	n/a	1	3	ISIslide	Win	True
47.818	0.25	Win2	1.0	0.001	Yes	3.282	0.018	n/a	GoodResponse	1	n/a	n/a	2	4	Cue	Win	True
48.068	4.0	Win2	1.0	0.0	Yes	3.282	0.0	n/a	GoodResponse	1	n/a	n/a	2	4	Fixation	Win	True
52.067	0.36	Win2	1.0	0.001	Yes	3.282	-0.001	1.0	GoodResponse	1	0.217	51.284	2	4	Target	Win	True
52.284	0.3	Win2	1.0	0.001	Yes	3.282	-0.001	1.0	GoodResponse	1	0.217	n/a	2	4	ButtonPress	Win	True
52.434	0.34	Win2	1.0	n/a	Yes	3.282	n/a	n/a	GoodResponse	1	n/a	n/a	2	4	Blank	Win	True
52.767	1.45	Win2	1.0	n/a	Yes	3.282	n/a	5.0	GoodResponse	1	0.038	51.805	2	4	Feedback	Win	True
54.216	3.282	Win2	1.0	n/a	Yes	3.282	n/a	n/a	GoodResponse	1	0.0	n/a	2	4	ISIslide	Win	True
57.515	0.25	Win2	1.0	0.0	Yes	2.785	0.015	n/a	GoodResponse	1	n/a	n/a	3	5	Cue	Win	True
57.765	4.0	Win2	1.0	0.0	Yes	2.785	0.0	n/a	GoodResponse	1	n/a	n/a	3	5	Fixation	Win	True
61.764	0.35	Win2	1.0	0.001	Yes	2.785	-0.001	1.0	GoodResponse	1	0.277	61.041	3	5	Target	Win	True
62.041	0.3	Win2	1.0	0.001	Yes	2.785	-0.001	1.0	GoodResponse	1	0.277	n/a	3	5	ButtonPress	Win	True
62.114	0.35	Win2	1.0	n/a	Yes	2.785	n/a	n/a	GoodResponse	1	n/a	n/a	3	5	Blank	Win	True
62.463	1.45	Win2	1.0	n/a	Yes	2.785	n/a	5.0	GoodResponse	1	0.048	61.511	3	5	Feedback	Win	True
63.913	2.785	Win2	1.0	n/a	Yes	2.785	n/a	n/a	GoodResponse	1	0.0	n/a	3	5	ISIslide	Win	True
66.729	0.25	Lose2	1.0	0.0	Yes	2.721	0.029	n/a	GoodResponse	0	n/a	n/a	3	6	Cue	AvoidedLoss	True
66.979	3.95	Lose2	1.0	0.0	Yes	2.721	0.0	n/a	GoodResponse	0	n/a	n/a	3	6	Fixation	AvoidedLoss	True
70.927	0.34	Lose2	1.0	0.002	Yes	2.721	-0.002	1.0	GoodResponse	0	0.234	70.161	3	6	Target	AvoidedLoss	True
71.161	0.3	Lose2	1.0	0.002	Yes	2.721	-0.002	1.0	GoodResponse	0	0.234	n/a	3	6	ButtonPress	AvoidedLoss	True
71.277	0.36	Lose2	1.0	n/a	Yes	2.721	n/a	n/a	GoodResponse	0	n/a	n/a	3	6	Blank	AvoidedLoss	True
71.627	1.45	Lose2	1.0	n/a	Yes	2.721	n/a	5.0	GoodResponse	0	0.007	70.634	3	6	Feedback	AvoidedLoss	True
73.076	2.721	Lose2	1.0	n/a	Yes	2.721	n/a	n/a	GoodResponse	0	0.0	n/a	3	6	ISIslide	AvoidedLoss	True
75.825	0.25	Lose2	1.0	0.001	Yes	4.025	0.025	n/a	GoodResponse	0	n/a	n/a	3	7	Cue	AvoidedLoss	True
76.075	4.05	Lose2	1.0	0.0	Yes	4.025	0.0	n/a	GoodResponse	0	n/a	n/a	3	7	Fixation	AvoidedLoss	True
80.124	0.33	Lose2	1.0	0.001	Yes	4.025	-0.001	1.0	GoodResponse	0	0.236	79.36	3	7	Target	AvoidedLoss	True
80.36	0.3	Lose2	1.0	0.001	Yes	4.025	-0.001	1.0	GoodResponse	0	0.236	n/a	3	7	ButtonPress	AvoidedLoss	True
80.457	0.37	Lose2	1.0	n/a	Yes	4.025	n/a	n/a	GoodResponse	0	n/a	n/a	3	7	Blank	AvoidedLoss	True
80.824	1.45	Lose2	1.0	n/a	Yes	4.025	n/a	5.0	GoodResponse	0	0.029	79.853	3	7	Feedback	AvoidedLoss	True
82.273	4.025	Lose2	1.0	n/a	Yes	4.025	n/a	n/a	GoodResponse	0	0.0	n/a	3	7	ISIslide	AvoidedLoss	True
86.322	0.25	Lose2	1.0	0.0	Yes	3.028	0.022	n/a	GoodResponse	0	n/a	n/a	3	8	Cue	AvoidedLoss	True
86.572	3.95	Lose2	1.0	0.0	Yes	3.028	0.0	n/a	GoodResponse	0	n/a	n/a	3	8	Fixation	AvoidedLoss	True
90.52	0.32	Lose2	1.0	0.002	Yes	3.028	-0.002	1.0	GoodResponse	0	0.212	89.732	3	8	Target	AvoidedLoss	True
90.732	0.3	Lose2	1.0	0.002	Yes	3.028	-0.002	1.0	GoodResponse	0	0.212	n/a	3	8	ButtonPress	AvoidedLoss	True
90.854	0.38	Lose2	1.0	n/a	Yes	3.028	n/a	n/a	GoodResponse	0	n/a	n/a	3	8	Blank	AvoidedLoss	True
91.22	1.45	Lose2	1.0	n/a	Yes	3.028	n/a	5.0	GoodResponse	0	0.023	90.243	3	8	Feedback	AvoidedLoss	True
92.67	3.028	Lose2	1.0	n/a	Yes	3.028	n/a	n/a	GoodResponse	0	0.0	n/a	3	8	ISIslide	AvoidedLoss	True
95.719	0.25	Lose2	1.0	0.0	Yes	3.131	0.019	n/a	GoodResponse	0	n/a	n/a	3	9	Cue	AvoidedLoss	True
95.969	3.95	Lose2	1.0	0.0	Yes	3.131	0.0	n/a	GoodResponse	0	n/a	n/a	3	9	Fixation	AvoidedLoss	True
99.917	0.31	Lose2	1.0	0.002	Yes	3.131	-0.002	1.0	GoodResponse	0	0.229	99.146	3	9	Target	AvoidedLoss	True
100.146	0.3	Lose2	1.0	0.002	Yes	3.131	-0.002	1.0	GoodResponse	0	0.229	n/a	3	9	ButtonPress	AvoidedLoss	True
100.234	0.39	Lose2	1.0	n/a	Yes	3.131	n/a	n/a	GoodResponse	0	n/a	n/a	3	9	Blank	AvoidedLoss	True
100.617	1.45	Lose2	1.0	n/a	Yes	3.131	n/a	5.0	GoodResponse	0	0.041	99.658	3	9	Feedback	AvoidedLoss	True
102.066	3.131	Lose2	1.0	n/a	Yes	3.131	n/a	n/a	GoodResponse	0	0.0	n/a	3	9	ISIslide	AvoidedLoss	True
105.215	0.25	Control	1.0	0.0	Yes	3.285	0.015	n/a	GoodResponse	0	n/a	n/a	3	10	Cue	Neutral	True
105.465	4.0	Control	1.0	0.0	Yes	3.285	0.0	n/a	GoodResponse	0	n/a	n/a	3	10	Fixation	Neutral	True
109.464	0.3	Control	1.0	0.001	Yes	3.285	-0.001	1.0	GoodResponse	0	0.215	108.679	3	10	Target	Neutral	True
109.679	0.3	Control	1.0	0.001	Yes	3.285	-0.001	1.0	GoodResponse	0	0.215	n/a	3	10	ButtonPress	Neutral	True
109.764	0.4	Control	1.0	n/a	Yes	3.285	n/a	n/a	GoodResponse	0	n/a	n/a	3	10	Blank	Neutral	True
110.164	1.45	Control	1.0	n/a	Yes	3.285	n/a	5.0	GoodResponse	0	0.006	109.17	3	10	Feedback	Neutral	True
111.613	3.285	Control	1.0	n/a	Yes	3.285	n/a	n/a	GoodResponse	0	0.0	n/a	3	10	ISIslide	Neutral	True
114.929	0.25	Lose2	1.0	0.0	Yes	2.721	0.029	n/a	GoodResponse	0	n/a	n/a	3	11	Cue	AvoidedLoss	True
115.179	4.05	Lose2	1.0	0.0	Yes	2.721	0.0	n/a	GoodResponse	0	n/a	n/a	3	11	Fixation	AvoidedLoss	True
119.227	0.29	Lose2	1.0	0.002	Yes	2.721	-0.002	1.0	GoodResponse	0	0.229	118.456	3	11	Target	AvoidedLoss	True
119.456	0.3	Lose2	1.0	0.002	Yes	2.721	-0.002	1.0	GoodResponse	0	0.229	n/a	3	11	ButtonPress	AvoidedLoss	True
119.527	0.41	Lose2	1.0	n/a	Yes	2.721	n/a	n/a	GoodResponse	0	n/a	n/a	3	11	Blank	AvoidedLoss	True
119.927	1.45	Lose2	1.0	n/a	Yes	2.721	n/a	5.0	GoodResponse	0	0.047	118.974	3	11	Feedback	AvoidedLoss	True
121.376	2.721	Lose2	1.0	n/a	Yes	2.721	n/a	n/a	GoodResponse	0	0.0	n/a	3	11	ISIslide	AvoidedLoss	True
124.125	0.25	Control	1.0	0.001	Yes	2.975	0.025	n/a	GoodResponse	0	n/a	n/a	3	12	Cue	Neutral	True
124.375	3.9	Control	1.0	0.0	Yes	2.975	0.0	n/a	GoodResponse	0	n/a	n/a	3	12	Fixation	Neutral	True
128.274	0.28	Control	1.0	0.001	Yes	2.975	-0.001	1.0	GoodResponse	0	0.261	127.535	3	12	Target	Neutral	True
128.535	0.3	Control	1.0	0.001	Yes	2.975	-0.001	1.0	GoodResponse	0	0.261	n/a	3	12	ButtonPress	Neutral	True
128.557	0.42	Control	1.0	n/a	Yes	2.975	n/a	n/a	GoodResponse	0	n/a	n/a	3	12	Blank	Neutral	True
128.974	1.45	Control	1.0	n/a	Yes	2.975	n/a	5.0	GoodResponse	0	0.025	127.999	3	12	Feedback	Neutral	True
130.423	2.975	Control	1.0	n/a	Yes	2.975	n/a	n/a	GoodResponse	0	0.0	n/a	3	12	ISIslide	Neutral	True
133.422	0.25	Control	0.9286	0.0	No	2.778	0.022	n/a	NoResponse	0	n/a	n/a	3	13	Cue	Neutral	True
133.672	4.0	Control	0.9286	0.0	No	2.778	0.0	n/a	NoResponse	0	n/a	n/a	3	13	Fixation	Neutral	True
137.671	0.27	Control	0.9286	0.001	No	2.778	-0.001	1.0	NoResponse	0	0.277	136.948	3	13	Target	Neutral	True
137.937	0.43	Control	0.9286	n/a	No	2.778	n/a	n/a	NoResponse	0	n/a	n/a	3	13	Blank	Neutral	True
137.948	0.3	Control	0.9286	0.001	No	2.778	-0.001	1.0	NoResponse	0	0.277	n/a	3	13	ButtonPress	Neutral	True
138.371	1.45	Control	0.9286	n/a	No	2.778	n/a	5.0	NoResponse	0	0.043	137.414	3	13	Feedback	Neutral	True
139.82	2.778	Control	0.9286	n/a	No	2.778	n/a	n/a	NoResponse	0	0.0	n/a	3	13	ISIslide	Neutral	True
142.619	0.25	Win2	0.9333	0.0	Yes	2.681	0.019	n/a	GoodResponse	1	n/a	n/a	4	14	Cue	Win	True
142.869	4.1	Win2	0.9333	0.0	Yes	2.681	0.0	n/a	GoodResponse	1	n/a	n/a	4	14	Fixation	Win	True
146.968	0.26	Win2	0.9333	0.001	Yes	2.681	-0.001	1.0	GoodResponse	1	0.239	146.207	4	14	Target	Win	True
147.207	0.3	Win2	0.9333	0.001	Yes	2.681	-0.001	1.0	GoodResponse	1	0.239	n/a	4	14	ButtonPress	Win	True
147.234	0.44	Win2	0.9333	n/a	Yes	2.681	n/a	n/a	GoodResponse	1	n/a	n/a	4	14	Blank	Win	True
147.667	1.45	Win2	0.9333	n/a	Yes	2.681	n/a	5.0	GoodResponse	1	0.015	146.682	4	14	Feedback	Win	True
149.117	2.681	Win2	0.9333	n/a	Yes	2.681	n/a	n/a	GoodResponse	1	0.0	n/a	4	14	ISIslide	Win	True
151.816	0.25	Control	0.9375	0.0	Yes	2.984	0.016	n/a	GoodResponse	0	n/a	n/a	4	15	Cue	Neutral	True
152.066	4.0	Control	0.9375	0.0	Yes	2.984	0.0	n/a	GoodResponse	0	n/a	n/a	4	15	Fixation	Neutral	True
156.064	0.25	Control	0.9375	0.002	Yes	2.984	-0.002	1.0	GoodResponse	0	0.241	155.305	4	15	Target	Neutral	True
156.305	0.3	Control	0.9375	0.002	Yes	2.984	-0.002	1.0	GoodResponse	0	0.241	n/a	4	15	ButtonPress	Neutral	True
156.314	0.45	Control	0.9375	n/a	Yes	2.984	n/a	n/a	GoodResponse	0	n/a	n/a	4	15	Blank	Neutral	True
156.764	1.45	Control	0.9375	n/a	Yes	2.984	n/a	5.0	GoodResponse	0	0.04	155.804	4	15	Feedback	Neutral	True
158.214	2.984	Control	0.9375	n/a	Yes	2.984	n/a	n/a	GoodResponse	0	0.0	n/a	4	15	ISIslide	Neutral	True
161.229	0.25	Win2	0.9412	0.0	Yes	2.871	0.029	n/a	GoodResponse	1	n/a	n/a	5	16	Cue	Win	True
161.479	4.0	Win2	0.9412	0.0	Yes	2.871	0.0	n/a	GoodResponse	1	n/a	n/a	5	16	Fixation	Win	True
165.478	0.24	Win2	0.9412	0.001	Yes	2.871	-0.001	1.0	GoodResponse	1	0.181	164.659	5	16	Target	Win	True
165.659	0.3	Win2	0.9412	0.001	Yes	2.871	-0.001	1.0	GoodResponse	1	0.181	n/a	5	16	ButtonPress	Win	True
165.728	0.46	Win2	0.9412	n/a	Yes	2.871	n/a	n/a	GoodResponse	1	n/a	n/a	5	16	Blank	Win	True
166.178	1.45	Win2	0.9412	n/a	Yes	2.871	n/a	5.0	GoodResponse	1	0.041	165.219	5	16	Feedback	Win	True
167.627	2.871	Win2	0.9412	n/a	Yes	2.871	n/a	n/a	GoodResponse	1	0.0	n/a	5	16	ISIslide	Win	True
170.526	0.25	Lose2	0.8889	0.0	No	2.724	0.026	n/a	NoResponse	-1	n/a	n/a	4	17	Cue	Loss	True
170.776	3.95	Lose2	0.8889	0.0	No	2.724	0.0	n/a	NoResponse	-1	n/a	n/a	4	17	Fixation	Loss	True
174.725	0.23	Lose2	0.8889	0.001	No	2.724	-0.001	1.0	NoResponse	-1	0.24	173.965	4	17	Target	Loss	True
174.958	0.47	Lose2	0.8889	n/a	No	2.724	n/a	n/a	NoResponse	-1	n/a	n/a	4	17	Blank	Loss	True
174.965	0.3	Lose2	0.8889	0.001	No	2.724	-0.001	1.0	NoResponse	-1	0.24	n/a	4	17	ButtonPress	Loss	True
175.424	1.45	Lose2	0.8889	n/a	No	2.724	n/a	5.0	NoResponse	-1	0.013	174.437	4	17	Feedback	Loss	True
176.874	2.724	Lose2	0.8889	n/a	No	2.724	n/a	n/a	NoResponse	-1	0.0	n/a	4	17	ISIslide	Loss	True
179.623	0.25	Lose2	0.8421	0.0	No	2.727	0.023	n/a	NoResponse	-1	n/a	n/a	3	18	Cue	Loss	True
179.873	4.05	Lose2	0.8421	0.0	No	2.727	0.0	n/a	NoResponse	-1	n/a	n/a	3	18	Fixation	Loss	True
183.921	0.22	Lose2	0.8421	0.002	No	2.727	-0.002	1.0	NoResponse	-1	0.235	183.156	3	18	Target	Loss	True
184.155	0.48	Lose2	0.8421	n/a	No	2.727	n/a	n/a	NoResponse	-1	n/a	n/a	3	18	Blank	Loss	True
184.156	0.3	Lose2	0.8421	0.002	No	2.727	-0.002	1.0	NoResponse	-1	0.235	n/a	3	18	ButtonPress	Loss	True
184.621	1.45	Lose2	0.8421	n/a	No	2.727	n/a	5.0	NoResponse	-1	0.036	183.657	3	18	Feedback	Loss	True
186.071	2.727	Lose2	0.8421	n/a	No	2.727	n/a	n/a	NoResponse	-1	0.0	n/a	3	18	ISIslide	Loss	True
188.82	0.25	Control	0.8	0.0	No	2.93	0.02	n/a	NoResponse	0	n/a	n/a	3	19	Cue	Neutral	True
189.07	3.95	Control	0.8	0.0	No	2.93	0.0	n/a	NoResponse	0	n/a	n/a	3	19	Fixation	Neutral	True
193.018	0.21	Control	0.8	0.002	No	2.93	-0.002	1.0	NoResponse	0	0.228	192.246	3	19	Target	Neutral	True
193.235	0.49	Control	0.8	n/a	No	2.93	n/a	n/a	NoResponse	0	n/a	n/a	3	19	Blank	Neutral	True
193.246	0.3	Control	0.8	0.002	No	2.93	-0.002	1.0	NoResponse	0	0.228	n/a	3	19	ButtonPress	Neutral	True
193.718	1.45	Control	0.8	n/a	No	2.93	n/a	5.0	NoResponse	0	0.012	192.73	3	19	Feedback	Neutral	True
195.168	2.93	Control	0.8	n/a	No	2.93	n/a	n/a	NoResponse	0	0.0	n/a	3	19	ISIslide	Neutral	True
198.117	0.25	Control	0.7619	0.0	No	2.633	0.017	n/a	NoResponse	0	n/a	n/a	3	20	Cue	Neutral	True
198.366	4.05	Control	0.7619	0.001	No	2.633	-0.001	n/a	NoResponse	0	n/a	n/a	3	20	Fixation	Neutral	True
202.415	0.2	Control	0.7619	0.002	No	2.633	-0.002	1.0	NoResponse	0	0.209	201.624	3	20	Target	Neutral	True
202.615	0.5	Control	0.7619	n/a	No	2.633	n/a	n/a	NoResponse	0	n/a	n/a	3	20	Blank	Neutral	True
202.624	0.3	Control	0.7619	0.002	No	2.633	-0.002	1.0	NoResponse	0	0.209	n/a	3	20	ButtonPress	Neutral	True
203.115	1.45	Control	0.7619	n/a	No	2.633	n/a	5.0	NoResponse	0	0.03	202.145	3	20	Feedback	Neutral	True
204.564	2.633	Control	0.7619	n/a	No	2.633	n/a	n/a	NoResponse	0	0.0	n/a	3	20	ISIslide	Neutral	True
207.23	0.25	Control	0.7726999999999999	0.0	Yes	2.77	0.03	n/a	GoodResponse	0	n/a	n/a	3	21	Cue	Neutral	True
207.48	4.1	Control	0.7726999999999999	0.0	Yes	2.77	0.0	n/a	GoodResponse	0	n/a	n/a	3	21	Fixation	Neutral	True
211.579	0.19	Control	0.7726999999999999	0.001	Yes	2.77	-0.001	1.0	GoodResponse	0	0.184	210.763	3	21	Target	Neutral	True
211.763	0.3	Control	0.7726999999999999	0.001	Yes	2.77	-0.001	1.0	GoodResponse	0	0.184	n/a	3	21	ButtonPress	Neutral	True
211.778	0.51	Control	0.7726999999999999	n/a	Yes	2.77	n/a	n/a	GoodResponse	0	n/a	n/a	3	21	Blank	Neutral	True
212.278	1.45	Control	0.7726999999999999	n/a	Yes	2.77	n/a	5.0	GoodResponse	0	0.038	211.316	3	21	Feedback	Neutral	True
213.728	2.77	Control	0.7726999999999999	n/a	Yes	2.77	n/a	n/a	GoodResponse	0	0.0	n/a	3	21	ISIslide	Neutral	True
216.527	0.25	Control	0.7391	0.0	No	2.773	0.027	n/a	NoResponse	0	n/a	n/a	3	22	Cue	Neutral	True
216.777	4.0	Control	0.7391	0.0	No	2.773	0.0	n/a	NoResponse	0	n/a	n/a	3	22	Fixation	Neutral	True
220.775	0.18	Control	0.7391	0.002	No	2.773	-0.002	1.0	NoResponse	0	0.245	220.02	3	22	Target	Neutral	True
220.959	0.52	Control	0.7391	n/a	No	2.773	n/a	n/a	NoResponse	0	n/a	n/a	3	22	Blank	Neutral	True
221.02	0.3	Control	0.7391	0.002	No	2.773	-0.002	1.0	NoResponse	0	0.245	n/a	3	22	ButtonPress	Neutral	True
221.475	1.45	Control	0.7391	n/a	No	2.773	n/a	5.0	NoResponse	0	0.012	220.487	3	22	Feedback	Neutral	True
222.925	2.773	Control	0.7391	n/a	No	2.773	n/a	n/a	NoResponse	0	0.0	n/a	3	22	ISIslide	Neutral	True
225.724	0.25	Control	0.7082999999999999	0.0	No	2.776	0.024	n/a	NoResponse	0	n/a	n/a	3	23	Cue	Neutral	True
225.974	3.9	Control	0.7082999999999999	0.0	No	2.776	0.0	n/a	NoResponse	0	n/a	n/a	3	23	Fixation	Neutral	True
229.872	0.17	Control	0.7082999999999999	0.002	No	2.776	-0.002	1.0	NoResponse	0	0.225	229.097	3	23	Target	Neutral	True
230.055	0.53	Control	0.7082999999999999	n/a	No	2.776	n/a	n/a	NoResponse	0	n/a	n/a	3	23	Blank	Neutral	True
230.097	0.3	Control	0.7082999999999999	0.002	No	2.776	-0.002	1.0	NoResponse	0	0.225	n/a	3	23	ButtonPress	Neutral	True
230.572	1.45	Control	0.7082999999999999	n/a	No	2.776	n/a	5.0	NoResponse	0	0.037	229.609	3	23	Feedback	Neutral	True
232.021	2.776	Control	0.7082999999999999	n/a	No	2.776	n/a	n/a	NoResponse	0	0.0	n/a	3	23	ISIslide	Neutral	True
234.82	0.25	Win2	0.68	0.001	No	3.13	0.02	n/a	NoResponse	0	n/a	n/a	3	24	Cue	MissedWin	True
235.07	3.95	Win2	0.68	0.001	No	3.13	0.0	n/a	NoResponse	0	n/a	n/a	3	24	Fixation	MissedWin	True
239.019	0.16	Win2	0.68	0.001	No	3.13	-0.001	1.0	NoResponse	0	0.263	238.282	3	24	Target	MissedWin	True
239.186	0.54	Win2	0.68	n/a	No	3.13	n/a	n/a	NoResponse	0	n/a	n/a	3	24	Blank	MissedWin	True
239.282	0.3	Win2	0.68	0.001	No	3.13	-0.001	1.0	NoResponse	0	0.263	n/a	3	24	ButtonPress	MissedWin	True
239.719	1.45	Win2	0.68	n/a	No	3.13	n/a	5.0	NoResponse	0	0.011	238.73	3	24	Feedback	MissedWin	True
241.168	3.13	Win2	0.68	n/a	No	3.13	n/a	n/a	NoResponse	0	0.0	n/a	3	24	ISIslide	MissedWin	True
244.317	0.25	Win2	0.6537999999999999	0.0	No	3.083	0.017	n/a	PrematurePress	0	n/a	n/a	3	25	Cue	MissedWin	True
244.567	4.0	Win2	0.6537999999999999	0.0	No	3.083	0.0	n/a	PrematurePress	0	n/a	n/a	3	25	Fixation	MissedWin	True
248.566	0.15	Win2	0.6537999999999999	0.001	No	3.083	-0.001	1.0	PrematurePress	0	0.006	247.572	3	25	Target	MissedWin	True
248.572	0.3	Win2	0.6537999999999999	0.001	No	3.083	-0.001	1.0	PrematurePress	0	0.006	n/a	3	25	ButtonPress	MissedWin	True
248.716	0.55	Win2	0.6537999999999999	n/a	No	3.083	n/a	n/a	PrematurePress	0	n/a	n/a	3	25	Blank	MissedWin	True
249.265	1.45	Win2	0.6537999999999999	n/a	No	3.083	n/a	5.0	PrematurePress	0	0.026	248.291	3	25	Feedback	MissedWin	True
250.715	3.083	Win2	0.6537999999999999	n/a	No	3.083	n/a	n/a	PrematurePress	0	0.0	n/a	3	25	ISIslide	MissedWin	True
253.814	0.25	Win2	0.6296	0.0	No	2.936	0.014	n/a	NoResponse	0	n/a	n/a	3	26	Cue	MissedWin	True
254.064	3.95	Win2	0.6296	0.0	No	2.936	0.0	n/a	NoResponse	0	n/a	n/a	3	26	Fixation	MissedWin	True
258.012	0.16	Win2	0.6296	0.002	No	2.936	-0.002	1.0	NoResponse	0	0.193	257.205	3	26	Target	MissedWin	True
258.179	0.54	Win2	0.6296	n/a	No	2.936	n/a	n/a	NoResponse	0	n/a	n/a	3	26	Blank	MissedWin	True
258.205	0.3	Win2	0.6296	0.002	No	2.936	-0.002	1.0	NoResponse	0	0.193	n/a	3	26	ButtonPress	MissedWin	True
258.712	1.45	Win2	0.6296	n/a	No	2.936	n/a	5.0	NoResponse	0	0.043	257.755	3	26	Feedback	MissedWin	True
260.162	2.936	Win2	0.6296	n/a	No	2.936	n/a	n/a	NoResponse	0	0.0	n/a	3	26	ISIslide	MissedWin	True
263.127	0.25	Lose2	0.6071	0.0	No	2.823	0.027	n/a	NoResponse	-1	n/a	n/a	2	27	Cue	Loss	True
263.377	4.05	Lose2	0.6071	0.0	No	2.823	0.0	n/a	NoResponse	-1	n/a	n/a	2	27	Fixation	Loss	True
267.426	0.17	Lose2	0.6071	0.001	No	2.823	-0.001	1.0	NoResponse	-1	0.215	266.641	2	27	Target	Loss	True
267.592	0.53	Lose2	0.6071	n/a	No	2.823	n/a	n/a	NoResponse	-1	n/a	n/a	2	27	Blank	Loss	True
267.641	0.3	Lose2	0.6071	0.001	No	2.823	-0.001	1.0	NoResponse	-1	0.215	n/a	2	27	ButtonPress	Loss	True
268.126	1.45	Lose2	0.6071	n/a	No	2.823	n/a	5.0	NoResponse	-1	0.043	267.169	2	27	Feedback	Loss	True
269.575	2.823	Lose2	0.6071	n/a	No	2.823	n/a	n/a	NoResponse	-1	0.0	n/a	2	27	ISIslide	Loss	True
272.424	0.25	Control	0.5861999999999999	0.0	No	2.826	0.024	n/a	NoResponse	0	n/a	n/a	2	28	Cue	Neutral	True
272.674	4.05	Control	0.5861999999999999	0.0	No	2.826	0.0	n/a	NoResponse	0	n/a	n/a	2	28	Fixation	Neutral	True
276.723	0.18	Control	0.5861999999999999	0.001	No	2.826	-0.001	1.0	NoResponse	0	0.216	275.939	2	28	Target	Neutral	True
276.906	0.52	Control	0.5861999999999999	n/a	No	2.826	n/a	n/a	NoResponse	0	n/a	n/a	2	28	Blank	Neutral	True
276.939	0.3	Control	0.5861999999999999	0.001	No	2.826	-0.001	1.0	NoResponse	0	0.216	n/a	2	28	ButtonPress	Neutral	True
277.422	1.45	Control	0.5861999999999999	n/a	No	2.826	n/a	5.0	NoResponse	0	0.016	276.438	2	28	Feedback	Neutral	True
278.872	2.826	Control	0.5861999999999999	n/a	No	2.826	n/a	n/a	NoResponse	0	0.0	n/a	2	28	ISIslide	Neutral	True
281.721	0.25	Lose2	0.5667	0.0	No	2.829	0.021	n/a	NoResponse	-1	n/a	n/a	1	29	Cue	Loss	False
281.971	3.95	Lose2	0.5667	0.0	No	2.829	0.0	1.0	NoResponse	-1	2.679	283.65	1	29	Fixation	Loss	False
284.65	0.3	Lose2	0.5667	0.0	No	2.829	0.0	1.0	NoResponse	-1	2.679	n/a	1	29	ButtonPress	Loss	False
285.919	0.19	Lose2	0.5667	0.002	No	2.829	-0.002	1.0	NoResponse	-1	0.212	285.131	1	29	Target	Loss	False
286.119	0.51	Lose2	0.5667	n/a	No	2.829	n/a	n/a	NoResponse	-1	n/a	n/a	1	29	Blank	Loss	False
286.131	0.3	Lose2	0.5667	0.002	No	2.829	-0.002	1.0	NoResponse	-1	0.212	n/a	1	29	ButtonPress	Loss	False
286.619	1.45	Lose2	0.5667	n/a	No	2.829	n/a	5.0	NoResponse	-1	0.038	285.657	1	29	Feedback	Loss	False
288.069	2.829	Lose2	0.5667	n/a	No	2.829	n/a	n/a	NoResponse	-1	0.0	n/a	1	29	ISIslide	Loss	False
290.918	0.25	Win2	0.5484	0.0	No	2.782	0.018	n/a	NoResponse	0	n/a	n/a	1	30	Cue	MissedWin	True
291.168	3.9	Win2	0.5484	0.0	No	2.782	0.0	n/a	NoResponse	0	n/a	n/a	1	30	Fixation	MissedWin	True
295.066	0.2	Win2	0.5484	0.002	No	2.782	-0.002	1.0	NoResponse	0	0.212	294.278	1	30	Target	MissedWin	True
295.266	0.5	Win2	0.5484	n/a	No	2.782	n/a	n/a	NoResponse	0	n/a	n/a	1	30	Blank	MissedWin	True
295.278	0.3	Win2	0.5484	0.002	No	2.782	-0.002	1.0	NoResponse	0	0.212	n/a	1	30	ButtonPress	MissedWin	True
295.766	1.45	Win2	0.5484	n/a	No	2.782	n/a	5.0	NoResponse	0	0.012	294.778	1	30	Feedback	MissedWin	True
297.216	2.782	Win2	0.5484	n/a	No	2.782	n/a	n/a	NoResponse	0	0.0	n/a	1	30	ISIslide	MissedWin	True
300.031	0.25	Lose2	0.5312	0.0	No	2.819	0.031	n/a	NoResponse	-1	n/a	n/a	0	31	Cue	Loss	True
300.281	4.05	Lose2	0.5312	0.0	No	2.819	0.0	n/a	NoResponse	-1	n/a	n/a	0	31	Fixation	Loss	True
304.33	0.21	Lose2	0.5312	0.001	No	2.819	-0.001	1.0	NoResponse	-1	0.218	303.548	0	31	Target	Loss	True
304.546	0.49	Lose2	0.5312	n/a	No	2.819	n/a	n/a	NoResponse	-1	n/a	n/a	0	31	Blank	Loss	True
304.548	0.3	Lose2	0.5312	0.001	No	2.819	-0.001	1.0	NoResponse	-1	0.218	n/a	0	31	ButtonPress	Loss	True
305.03	1.45	Lose2	0.5312	n/a	No	2.819	n/a	5.0	NoResponse	-1	0.017	304.047	0	31	Feedback	Loss	True
306.479	2.819	Lose2	0.5312	n/a	No	2.819	n/a	n/a	NoResponse	-1	0.0	n/a	0	31	ISIslide	Loss	True
309.328	0.25	Lose2	0.5152	0.0	No	2.622	0.028	n/a	LatePress	-1	n/a	n/a	-1	32	Cue	Loss	True
309.578	4.15	Lose2	0.5152	0.0	No	2.622	0.0	n/a	LatePress	-1	n/a	n/a	-1	32	Fixation	Loss	True
313.727	0.22	Lose2	0.5152	0.001	No	2.622	-0.001	1.0	LatePress	-1	0.223	312.95	-1	32	Target	Loss	True
313.95	0.3	Lose2	0.5152	0.001	No	2.622	-0.001	1.0	LatePress	-1	0.223	n/a	-1	32	ButtonPress	Loss	True
313.96	0.48	Lose2	0.5152	n/a	No	2.622	n/a	n/a	LatePress	-1	n/a	n/a	-1	32	Blank	Loss	True
314.426	1.45	Lose2	0.5152	n/a	No	2.622	n/a	5.0	LatePress	-1	0.036	313.462	-1	32	Feedback	Loss	True
315.876	2.622	Lose2	0.5152	n/a	No	2.622	n/a	n/a	LatePress	-1	0.0	n/a	-1	32	ISIslide	Loss	True
318.525	0.25	Win2	0.5	0.0	No	2.675	0.025	n/a	NoResponse	0	n/a	n/a	-1	33	Cue	MissedWin	True
318.775	4.0	Win2	0.5	0.0	No	2.675	0.0	n/a	NoResponse	0	n/a	n/a	-1	33	Fixation	MissedWin	True
322.773	0.23	Win2	0.5	0.002	No	2.675	-0.002	1.0	NoResponse	0	0.241	322.014	-1	33	Target	MissedWin	True
323.007	0.47	Win2	0.5	n/a	No	2.675	n/a	n/a	NoResponse	0	n/a	n/a	-1	33	Blank	MissedWin	True
323.014	0.3	Win2	0.5	0.002	No	2.675	-0.002	1.0	NoResponse	0	0.241	n/a	-1	33	ButtonPress	MissedWin	True
323.473	1.45	Win2	0.5	n/a	No	2.675	n/a	5.0	NoResponse	0	0.013	322.486	-1	33	Feedback	MissedWin	True
324.923	2.675	Win2	0.5	n/a	No	2.675	n/a	n/a	NoResponse	0	0.0	n/a	-1	33	ISIslide	MissedWin	True
327.622	0.25	Lose2	0.5143	0.0	Yes	2.628	0.022	n/a	GoodResponse	0	n/a	n/a	-1	34	Cue	AvoidedLoss	True
327.872	4.05	Lose2	0.5143	0.0	Yes	2.628	0.0	n/a	GoodResponse	0	n/a	n/a	-1	34	Fixation	AvoidedLoss	True
331.92	0.24	Lose2	0.5143	0.002	Yes	2.628	-0.002	1.0	GoodResponse	0	0.212	331.132	-1	34	Target	AvoidedLoss	True
332.132	0.3	Lose2	0.5143	0.002	Yes	2.628	-0.002	1.0	GoodResponse	0	0.212	n/a	-1	34	ButtonPress	AvoidedLoss	True
332.17	0.46	Lose2	0.5143	n/a	Yes	2.628	n/a	n/a	GoodResponse	0	n/a	n/a	-1	34	Blank	AvoidedLoss	True
332.62	1.45	Lose2	0.5143	n/a	Yes	2.628	n/a	5.0	GoodResponse	0	0.037	331.657	-1	34	Feedback	AvoidedLoss	True
334.07	2.628	Lose2	0.5143	n/a	Yes	2.628	n/a	n/a	GoodResponse	0	0.0	n/a	-1	34	ISIslide	AvoidedLoss	True
336.719	0.25	Lose2	0.5278	0.0	Yes	2.681	0.019	n/a	GoodResponse	0	n/a	n/a	-1	35	Cue	AvoidedLoss	True
336.968	4.0	Lose2	0.5278	0.001	Yes	2.681	-0.001	n/a	GoodResponse	0	n/a	n/a	-1	35	Fixation	AvoidedLoss	True
340.967	0.25	Lose2	0.5278	0.002	Yes	2.681	-0.002	1.0	GoodResponse	0	0.206	340.173	-1	35	Target	AvoidedLoss	True
341.173	0.3	Lose2	0.5278	0.002	Yes	2.681	-0.002	1.0	GoodResponse	0	0.206	n/a	-1	35	ButtonPress	AvoidedLoss	True
341.217	0.45	Lose2	0.5278	n/a	Yes	2.681	n/a	n/a	GoodResponse	0	n/a	n/a	-1	35	Blank	AvoidedLoss	True
341.667	1.45	Lose2	0.5278	n/a	Yes	2.681	n/a	5.0	GoodResponse	0	0.014	340.681	-1	35	Feedback	AvoidedLoss	True
343.116	2.681	Lose2	0.5278	n/a	Yes	2.681	n/a	n/a	GoodResponse	0	0.0	n/a	-1	35	ISIslide	AvoidedLoss	True
345.815	0.25	Control	0.5405	0.001	Yes	2.685	0.015	n/a	GoodResponse	0	n/a	n/a	-1	36	Cue	Neutral	True
346.065	4.0	Control	0.5405	0.0	Yes	2.685	0.0	n/a	GoodResponse	0	n/a	n/a	-1	36	Fixation	Neutral	True
350.064	0.26	Control	0.5405	0.001	Yes	2.685	-0.001	1.0	GoodResponse	0	0.219	349.283	-1	36	Target	Neutral	True
350.283	0.3	Control	0.5405	0.001	Yes	2.685	-0.001	1.0	GoodResponse	0	0.219	n/a	-1	36	ButtonPress	Neutral	True
350.331	0.44	Control	0.5405	n/a	Yes	2.685	n/a	n/a	GoodResponse	0	n/a	n/a	-1	36	Blank	Neutral	True
350.764	1.45	Control	0.5405	n/a	Yes	2.685	n/a	5.0	GoodResponse	0	0.039	349.803	-1	36	Feedback	Neutral	True
352.213	2.685	Control	0.5405	n/a	Yes	2.685	n/a	n/a	GoodResponse	0	0.0	n/a	-1	36	ISIslide	Neutral	True
354.929	0.25	Win2	0.5526	0.0	Yes	2.871	0.029	n/a	GoodResponse	1	n/a	n/a	0	37	Cue	Win	True
355.179	4.0	Win2	0.5526	0.0	Yes	2.871	0.0	n/a	GoodResponse	1	n/a	n/a	0	37	Fixation	Win	True
359.177	0.27	Win2	0.5526	0.002	Yes	2.871	-0.002	1.0	GoodResponse	1	0.212	358.389	0	37	Target	Win	True
359.389	0.3	Win2	0.5526	0.002	Yes	2.871	-0.002	1.0	GoodResponse	1	0.212	n/a	0	37	ButtonPress	Win	True
359.461	0.43	Win2	0.5526	n/a	Yes	2.871	n/a	n/a	GoodResponse	1	n/a	n/a	0	37	Blank	Win	True
359.877	1.45	Win2	0.5526	n/a	Yes	2.871	n/a	5.0	GoodResponse	1	0.047	358.924	0	37	Feedback	Win	True
361.327	2.871	Win2	0.5526	n/a	Yes	2.871	n/a	n/a	GoodResponse	1	0.0	n/a	0	37	ISIslide	Win	True
364.226	0.25	Lose2	0.5640999999999999	0.0	Yes	2.824	0.026	n/a	GoodResponse	0	n/a	n/a	0	38	Cue	AvoidedLoss	True
364.476	3.95	Lose2	0.5640999999999999	0.0	Yes	2.824	0.0	n/a	GoodResponse	0	n/a	n/a	0	38	Fixation	AvoidedLoss	True
368.424	0.28	Lose2	0.5640999999999999	0.002	Yes	2.824	-0.002	1.0	GoodResponse	0	0.173	367.597	0	38	Target	AvoidedLoss	True
368.597	0.3	Lose2	0.5640999999999999	0.002	Yes	2.824	-0.002	1.0	GoodResponse	0	0.173	n/a	0	38	ButtonPress	AvoidedLoss	True
368.708	0.42	Lose2	0.5640999999999999	n/a	Yes	2.824	n/a	n/a	GoodResponse	0	n/a	n/a	0	38	Blank	AvoidedLoss	True
369.124	1.45	Lose2	0.5640999999999999	n/a	Yes	2.824	n/a	5.0	GoodResponse	0	0.02	368.144	0	38	Feedback	AvoidedLoss	True
370.574	2.824	Lose2	0.5640999999999999	n/a	Yes	2.824	n/a	n/a	GoodResponse	0	0.0	n/a	0	38	ISIslide	AvoidedLoss	True
373.423	0.25	Win2	0.575	0.0	Yes	2.977	0.023	n/a	GoodResponse	1	n/a	n/a	1	39	Cue	Win	True
373.672	4.1	Win2	0.575	0.001	Yes	2.977	-0.001	n/a	GoodResponse	1	n/a	n/a	1	39	Fixation	Win	True
377.771	0.29	Win2	0.575	0.002	Yes	2.977	-0.002	1.0	GoodResponse	1	0.247	377.018	1	39	Target	Win	True
378.018	0.3	Win2	0.575	0.002	Yes	2.977	-0.002	1.0	GoodResponse	1	0.247	n/a	1	39	ButtonPress	Win	True
378.071	0.41	Win2	0.575	n/a	Yes	2.977	n/a	n/a	GoodResponse	1	n/a	n/a	1	39	Blank	Win	True
378.471	1.45	Win2	0.575	n/a	Yes	2.977	n/a	5.0	GoodResponse	1	0.039	377.51	1	39	Feedback	Win	True
379.92	2.977	Win2	0.575	n/a	Yes	2.977	n/a	n/a	GoodResponse	1	0.0	n/a	1	39	ISIslide	Win	True
382.919	0.25	Win2	0.5854	0.0	Yes	2.731	0.019	n/a	GoodResponse	1	n/a	n/a	2	40	Cue	Win	True
383.169	3.95	Win2	0.5854	0.0	Yes	2.731	0.0	n/a	GoodResponse	1	n/a	n/a	2	40	Fixation	Win	True
387.118	0.3	Win2	0.5854	0.001	Yes	2.731	-0.001	1.0	GoodResponse	1	0.246	386.364	2	40	Target	Win	True
387.364	0.3	Win2	0.5854	0.001	Yes	2.731	-0.001	1.0	GoodResponse	1	0.246	n/a	2	40	ButtonPress	Win	True
387.418	0.4	Win2	0.5854	n/a	Yes	2.731	n/a	n/a	GoodResponse	1	n/a	n/a	2	40	Blank	Win	True
387.818	1.45	Win2	0.5854	n/a	Yes	2.731	n/a	5.0	GoodResponse	1	0.009	386.827	2	40	Feedback	Win	True
389.267	2.731	Win2	0.5854	n/a	Yes	2.731	n/a	n/a	GoodResponse	1	0.0	n/a	2	40	ISIslide	Win	True
392.016	0.25	Win2	0.5952000000000001	0.0	Yes	2.784	0.016	n/a	GoodResponse	1	n/a	n/a	3	41	Cue	Win	True
392.266	3.9	Win2	0.5952000000000001	0.0	Yes	2.784	0.0	n/a	GoodResponse	1	n/a	n/a	3	41	Fixation	Win	True
396.165	0.31	Win2	0.5952000000000001	0.001	Yes	2.784	-0.001	1.0	GoodResponse	1	0.172	395.337	3	41	Target	Win	True
396.337	0.3	Win2	0.5952000000000001	0.001	Yes	2.784	-0.001	1.0	GoodResponse	1	0.172	n/a	3	41	ButtonPress	Win	True
396.481	0.39	Win2	0.5952000000000001	n/a	Yes	2.784	n/a	n/a	GoodResponse	1	n/a	n/a	3	41	Blank	Win	True
396.864	1.45	Win2	0.5952000000000001	n/a	Yes	2.784	n/a	5.0	GoodResponse	1	0.037	395.901	3	41	Feedback	Win	True
398.314	2.784	Win2	0.5952000000000001	n/a	Yes	2.784	n/a	n/a	GoodResponse	1	0.0	n/a	3	41	ISIslide	Win	True
401.113	0.25	Control	0.6047	0.0	Yes	2.937	0.013	n/a	GoodResponse	0	n/a	n/a	3	42	Cue	Neutral	True
401.363	3.85	Control	0.6047	0.0	Yes	2.937	0.0	n/a	GoodResponse	0	n/a	n/a	3	42	Fixation	Neutral	True
405.212	0.32	Control	0.6047	0.001	Yes	2.937	-0.001	1.0	GoodResponse	0	0.281	404.493	3	42	Target	Neutral	True
405.493	0.3	Control	0.6047	0.001	Yes	2.937	-0.001	1.0	GoodResponse	0	0.281	n/a	3	42	ButtonPress	Neutral	True
405.545	0.38	Control	0.6047	n/a	Yes	2.937	n/a	n/a	GoodResponse	0	n/a	n/a	3	42	Blank	Neutral	True
405.911	1.45	Control	0.6047	n/a	Yes	2.937	n/a	5.0	GoodResponse	0	0.014	404.925	3	42	Feedback	Neutral	True
407.361	2.937	Control	0.6047	n/a	Yes	2.937	n/a	n/a	GoodResponse	0	0.0	n/a	3	42	ISIslide	Neutral	True
410.326	0.25	Win2	0.6136	0.001	Yes	3.174	0.026	n/a	GoodResponse	1	n/a	n/a	4	43	Cue	Win	True
410.576	4.0	Win2	0.6136	0.0	Yes	3.174	0.0	n/a	GoodResponse	1	n/a	n/a	4	43	Fixation	Win	True
414.575	0.33	Win2	0.6136	0.001	Yes	3.174	-0.001	1.0	GoodResponse	1	0.229	413.804	4	43	Target	Win	True
414.804	0.3	Win2	0.6136	0.001	Yes	3.174	-0.001	1.0	GoodResponse	1	0.229	n/a	4	43	ButtonPress	Win	True
414.908	0.37	Win2	0.6136	n/a	Yes	3.174	n/a	n/a	GoodResponse	1	n/a	n/a	4	43	Blank	Win	True
415.275	1.45	Win2	0.6136	n/a	Yes	3.174	n/a	5.0	GoodResponse	1	0.015	414.29	4	43	Feedback	Win	True
416.724	3.174	Win2	0.6136	n/a	Yes	3.174	n/a	n/a	GoodResponse	1	0.0	n/a	4	43	ISIslide	Win	True
419.923	0.25	Win2	0.6222	0.0	Yes	2.977	0.023	n/a	GoodResponse	1	n/a	n/a	5	44	Cue	Win	True
420.173	4.0	Win2	0.6222	0.0	Yes	2.977	0.0	n/a	GoodResponse	1	n/a	n/a	5	44	Fixation	Win	True
424.172	0.34	Win2	0.6222	0.001	Yes	2.977	-0.001	1.0	GoodResponse	1	0.227	423.399	5	44	Target	Win	True
424.399	0.3	Win2	0.6222	0.001	Yes	2.977	-0.001	1.0	GoodResponse	1	0.227	n/a	5	44	ButtonPress	Win	True
424.522	0.36	Win2	0.6222	n/a	Yes	2.977	n/a	n/a	GoodResponse	1	n/a	n/a	5	44	Blank	Win	True
424.871	1.45	Win2	0.6222	n/a	Yes	2.977	n/a	5.0	GoodResponse	1	0.029	423.9	5	44	Feedback	Win	True
426.321	2.977	Win2	0.6222	n/a	Yes	2.977	n/a	n/a	GoodResponse	1	0.0	n/a	5	44	ISIslide	Win	True
429.32	0.25	Control	0.6304	0.0	Yes	2.88	0.02	n/a	GoodResponse	0	n/a	n/a	5	45	Cue	Neutral	True
429.57	4.1	Control	0.6304	0.0	Yes	2.88	0.0	n/a	GoodResponse	0	n/a	n/a	5	45	Fixation	Neutral	True
433.668	0.35	Control	0.6304	0.002	Yes	2.88	-0.002	1.0	GoodResponse	0	0.223	432.891	5	45	Target	Neutral	True
433.891	0.3	Control	0.6304	0.002	Yes	2.88	-0.002	1.0	GoodResponse	0	0.223	n/a	5	45	ButtonPress	Neutral	True
434.018	0.35	Control	0.6304	n/a	Yes	2.88	n/a	n/a	GoodResponse	0	n/a	n/a	5	45	Blank	Neutral	True
434.368	1.45	Control	0.6304	n/a	Yes	2.88	n/a	5.0	GoodResponse	0	0.044	433.412	5	45	Feedback	Neutral	True
435.818	2.88	Control	0.6304	n/a	Yes	2.88	n/a	n/a	GoodResponse	0	0.0	n/a	5	45	ISIslide	Neutral	True
438.717	0.25	Lose2	0.6383	0.0	Yes	3.383	0.017	n/a	GoodResponse	0	n/a	n/a	5	46	Cue	AvoidedLoss	False
438.967	4.0	Lose2	0.6383	0.0	Yes	3.383	0.0	1.0	GoodResponse	0	3.535	441.502	5	46	Fixation	AvoidedLoss	False
442.502	0.3	Lose2	0.6383	0.0	Yes	3.383	0.0	1.0	GoodResponse	0	3.535	n/a	5	46	ButtonPress	AvoidedLoss	False
442.965	0.36	Lose2	0.6383	0.002	Yes	3.383	-0.002	1.0	GoodResponse	0	0.246	442.211	5	46	Target	AvoidedLoss	False
443.211	0.3	Lose2	0.6383	0.002	Yes	3.383	-0.002	1.0	GoodResponse	0	0.246	n/a	5	46	ButtonPress	AvoidedLoss	False
443.332	0.34	Lose2	0.6383	n/a	Yes	3.383	n/a	n/a	GoodResponse	0	n/a	n/a	5	46	Blank	AvoidedLoss	False
443.665	1.45	Lose2	0.6383	n/a	Yes	3.383	n/a	5.0	GoodResponse	0	0.016	442.681	5	46	Feedback	AvoidedLoss	False
445.114	3.383	Lose2	0.6383	n/a	Yes	3.383	n/a	n/a	GoodResponse	0	0.0	n/a	5	46	ISIslide	AvoidedLoss	False
448.513	0.25	Lose2	0.6457999999999999	0.0	Yes	2.687	0.013	n/a	GoodResponse	0	n/a	n/a	5	47	Cue	AvoidedLoss	True
448.763	4.0	Lose2	0.6457999999999999	0.0	Yes	2.687	0.0	n/a	GoodResponse	0	n/a	n/a	5	47	Fixation	AvoidedLoss	True
452.762	0.37	Lose2	0.6457999999999999	0.001	Yes	2.687	-0.001	1.0	GoodResponse	0	0.252	452.014	5	47	Target	AvoidedLoss	True
453.014	0.3	Lose2	0.6457999999999999	0.001	Yes	2.687	-0.001	1.0	GoodResponse	0	0.252	n/a	5	47	ButtonPress	AvoidedLoss	True
453.145	0.33	Lose2	0.6457999999999999	n/a	Yes	2.687	n/a	n/a	GoodResponse	0	n/a	n/a	5	47	Blank	AvoidedLoss	True
453.462	1.45	Lose2	0.6457999999999999	n/a	Yes	2.687	n/a	5.0	GoodResponse	0	0.024	452.486	5	47	Feedback	AvoidedLoss	True
454.911	2.687	Lose2	0.6457999999999999	n/a	Yes	2.687	n/a	n/a	GoodResponse	0	0.0	n/a	5	47	ISIslide	AvoidedLoss	True
457.627	0.25	Lose2	0.6531	0.0	Yes	3.023	0.027	n/a	GoodResponse	0	n/a	n/a	5	48	Cue	AvoidedLoss	True
457.877	3.95	Lose2	0.6531	0.0	Yes	3.023	0.0	n/a	GoodResponse	0	n/a	n/a	5	48	Fixation	AvoidedLoss	True
461.825	0.38	Lose2	0.6531	0.002	Yes	3.023	-0.002	1.0	GoodResponse	0	0.232	461.057	5	48	Target	AvoidedLoss	True
462.057	0.3	Lose2	0.6531	0.002	Yes	3.023	-0.002	1.0	GoodResponse	0	0.232	n/a	5	48	ButtonPress	AvoidedLoss	True
462.209	0.32	Lose2	0.6531	n/a	Yes	3.023	n/a	n/a	GoodResponse	0	n/a	n/a	5	48	Blank	AvoidedLoss	True
462.525	1.45	Lose2	0.6531	n/a	Yes	3.023	n/a	5.0	GoodResponse	0	0.034	461.559	5	48	Feedback	AvoidedLoss	True
463.975	3.023	Lose2	0.6531	n/a	Yes	3.023	n/a	n/a	GoodResponse	0	0.0	n/a	5	48	ISIslide	AvoidedLoss	True
467.024	0.25	Control	0.66	0.0	Yes	2.876	0.024	n/a	GoodResponse	0	n/a	n/a	5	49	Cue	Neutral	True
467.273	4.0	Control	0.66	0.001	Yes	2.876	-0.001	n/a	GoodResponse	0	n/a	n/a	5	49	Fixation	Neutral	True
471.272	0.39	Control	0.66	0.002	Yes	2.876	-0.002	1.0	GoodResponse	0	0.256	470.528	5	49	Target	Neutral	True
471.528	0.3	Control	0.66	0.002	Yes	2.876	-0.002	1.0	GoodResponse	0	0.256	n/a	5	49	ButtonPress	Neutral	True
471.672	0.31	Control	0.66	n/a	Yes	2.876	n/a	n/a	GoodResponse	0	n/a	n/a	5	49	Blank	Neutral	True
471.972	1.45	Control	0.66	n/a	Yes	2.876	n/a	5.0	GoodResponse	0	0.002	470.974	5	49	Feedback	Neutral	True
473.421	2.876	Control	0.66	n/a	Yes	2.876	n/a	n/a	GoodResponse	0	0.0	n/a	5	49	ISIslide	Neutral	True
476.32	0.25	Control	0.6667000000000001	0.0	Yes	2.78	0.02	n/a	GoodResponse	0	n/a	n/a	5	50	Cue	Neutral	True
476.57	4.0	Control	0.6667000000000001	0.0	Yes	2.78	0.0	n/a	GoodResponse	0	n/a	n/a	5	50	Fixation	Neutral	True
480.569	0.39	Control	0.6667000000000001	0.001	Yes	2.78	-0.001	1.0	GoodResponse	0	0.238	479.807	5	50	Target	Neutral	True
480.807	0.3	Control	0.6667000000000001	0.001	Yes	2.78	-0.001	1.0	GoodResponse	0	0.238	n/a	5	50	ButtonPress	Neutral	True
480.969	0.31	Control	0.6667000000000001	n/a	Yes	2.78	n/a	n/a	GoodResponse	0	n/a	n/a	5	50	Blank	Neutral	True
481.269	1.45	Control	0.6667000000000001	n/a	Yes	2.78	n/a	5.0	GoodResponse	0	0.021	480.29	5	50	Feedback	Neutral	True
482.718	2.78	Control	0.6667000000000001	n/a	Yes	2.78	n/a	n/a	GoodResponse	0	0.0	n/a	5	50	ISIslide	Neutral	True
485.517	0.25	Control	0.6731	0.0	Yes	2.733	0.017	n/a	GoodResponse	0	n/a	n/a	5	51	Cue	Neutral	True
485.767	3.95	Control	0.6731	0.0	Yes	2.733	0.0	n/a	GoodResponse	0	n/a	n/a	5	51	Fixation	Neutral	True
489.716	0.38	Control	0.6731	0.001	Yes	2.733	-0.001	1.0	GoodResponse	0	0.252	488.968	5	51	Target	Neutral	True
489.968	0.3	Control	0.6731	0.001	Yes	2.733	-0.001	1.0	GoodResponse	0	0.252	n/a	5	51	ButtonPress	Neutral	True
490.099	0.32	Control	0.6731	n/a	Yes	2.733	n/a	n/a	GoodResponse	0	n/a	n/a	5	51	Blank	Neutral	True
490.415	1.45	Control	0.6731	n/a	Yes	2.733	n/a	5.0	GoodResponse	0	0.046	489.461	5	51	Feedback	Neutral	True
491.865	2.733	Control	0.6731	n/a	Yes	2.733	n/a	n/a	GoodResponse	0	0.0	n/a	5	51	ISIslide	Neutral	True
494.614	0.25	Control	0.6792	0.0	Yes	2.636	0.014	n/a	GoodResponse	0	n/a	n/a	5	52	Cue	Neutral	True
494.864	4.05	Control	0.6792	0.0	Yes	2.636	0.0	n/a	GoodResponse	0	n/a	n/a	5	52	Fixation	Neutral	True
498.912	0.37	Control	0.6792	0.002	Yes	2.636	-0.002	1.0	GoodResponse	0	0.313	498.225	5	52	Target	Neutral	True
499.225	0.3	Control	0.6792	0.002	Yes	2.636	-0.002	1.0	GoodResponse	0	0.313	n/a	5	52	ButtonPress	Neutral	True
499.296	0.33	Control	0.6792	n/a	Yes	2.636	n/a	n/a	GoodResponse	0	n/a	n/a	5	52	Blank	Neutral	True
499.612	1.45	Control	0.6792	n/a	Yes	2.636	n/a	5.0	GoodResponse	0	0.02	498.632	5	52	Feedback	Neutral	True
501.062	2.636	Control	0.6792	n/a	Yes	2.636	n/a	n/a	GoodResponse	0	0.0	n/a	5	52	ISIslide	Neutral	True
503.728	0.25	Win2	0.6851999999999999	0.0	Yes	2.922	0.028	n/a	GoodResponse	1	n/a	n/a	6	53	Cue	Win	True
503.977	4.05	Win2	0.6851999999999999	0.001	Yes	2.922	-0.001	n/a	GoodResponse	1	n/a	n/a	6	53	Fixation	Win	True
508.026	0.36	Win2	0.6851999999999999	0.002	Yes	2.922	-0.002	1.0	GoodResponse	1	0.277	507.303	6	53	Target	Win	True
508.303	0.3	Win2	0.6851999999999999	0.002	Yes	2.922	-0.002	1.0	GoodResponse	1	0.277	n/a	6	53	ButtonPress	Win	True
508.393	0.34	Win2	0.6851999999999999	n/a	Yes	2.922	n/a	n/a	GoodResponse	1	n/a	n/a	6	53	Blank	Win	True
508.726	1.45	Win2	0.6851999999999999	n/a	Yes	2.922	n/a	5.0	GoodResponse	1	0.028	507.754	6	53	Feedback	Win	True
510.175	2.922	Win2	0.6851999999999999	n/a	Yes	2.922	n/a	n/a	GoodResponse	1	0.0	n/a	6	53	ISIslide	Win	True
513.124	0.25	Win2	0.6909000000000001	0.0	Yes	2.726	0.024	n/a	GoodResponse	1	n/a	n/a	7	54	Cue	Win	False
513.374	3.95	Win2	0.6909000000000001	0.0	Yes	2.726	0.0	1.0	GoodResponse	1	3.768	516.142	7	54	Fixation	Win	False
517.142	0.3	Win2	0.6909000000000001	0.0	Yes	2.726	0.0	1.0	GoodResponse	1	3.768	n/a	7	54	ButtonPress	Win	False
517.323	0.35	Win2	0.6909000000000001	0.001	Yes	2.726	-0.001	1.0	GoodResponse	1	0.254	516.577	7	54	Target	Win	False
517.577	0.3	Win2	0.6909000000000001	0.001	Yes	2.726	-0.001	1.0	GoodResponse	1	0.254	n/a	7	54	ButtonPress	Win	False
517.673	0.35	Win2	0.6909000000000001	n/a	Yes	2.726	n/a	n/a	GoodResponse	1	n/a	n/a	7	54	Blank	Win	False
518.023	1.45	Win2	0.6909000000000001	n/a	Yes	2.726	n/a	5.0	GoodResponse	1	0.048	517.071	7	54	Feedback	Win	False
519.472	2.726	Win2	0.6909000000000001	n/a	Yes	2.726	n/a	n/a	GoodResponse	1	0.0	n/a	7	54	ISIslide	Win	False
522.221	0.25	Control	0.6786	0.0	No	3.029	0.021	n/a	LatePress	0	n/a	n/a	7	55	Cue	Neutral	True
522.471	3.95	Control	0.6786	0.0	No	3.029	0.0	n/a	LatePress	0	n/a	n/a	7	55	Fixation	Neutral	True
526.42	0.34	Control	0.6786	0.001	No	3.029	-0.001	1.0	LatePress	0	0.35	525.77	7	55	Target	Neutral	True
526.77	0.36	Control	0.6786	n/a	No	3.029	n/a	n/a	LatePress	0	n/a	n/a	7	55	Blank	Neutral	True
526.77	0.3	Control	0.6786	0.001	No	3.029	-0.001	1.0	LatePress	0	0.35	n/a	7	55	ButtonPress	Neutral	True
527.119	1.45	Control	0.6786	n/a	No	3.029	n/a	5.0	LatePress	0	0.025	526.144	7	55	Feedback	Neutral	True
528.569	3.029	Control	0.6786	n/a	No	3.029	n/a	n/a	LatePress	0	0.0	n/a	7	55	ISIslide	Neutral	True
531.618	0.25	Control	0.6667000000000001	0.0	No	2.832	0.018	n/a	LatePress	0	n/a	n/a	7	56	Cue	Neutral	True
531.868	3.95	Control	0.6667000000000001	0.0	No	2.832	0.0	n/a	LatePress	0	n/a	n/a	7	56	Fixation	Neutral	True
535.816	0.33	Control	0.6667000000000001	0.002	No	2.832	-0.002	1.0	LatePress	0	0.333	535.149	7	56	Target	Neutral	True
536.149	0.3	Control	0.6667000000000001	0.002	No	2.832	-0.002	1.0	LatePress	0	0.333	n/a	7	56	ButtonPress	Neutral	True
536.15	0.37	Control	0.6667000000000001	n/a	No	2.832	n/a	n/a	LatePress	0	n/a	n/a	7	56	Blank	Neutral	True
536.516	1.45	Control	0.6667000000000001	n/a	No	2.832	n/a	5.0	LatePress	0	0.042	535.558	7	56	Feedback	Neutral	True
537.966	2.832	Control	0.6667000000000001	n/a	No	2.832	n/a	n/a	LatePress	0	0.0	n/a	7	56	ISIslide	Neutral	True
540.815	0.25	Control	0.6552	0.0	No	3.485	0.015	n/a	LatePress	0	n/a	n/a	7	57	Cue	Neutral	True
541.065	4.0	Control	0.6552	0.0	No	3.485	0.0	n/a	LatePress	0	n/a	n/a	7	57	Fixation	Neutral	True
545.063	0.32	Control	0.6552	0.002	No	3.485	-0.002	1.0	LatePress	0	0.332	544.395	7	57	Target	Neutral	True
545.395	0.3	Control	0.6552	0.002	No	3.485	-0.002	1.0	LatePress	0	0.332	n/a	7	57	ButtonPress	Neutral	True
545.396	0.38	Control	0.6552	n/a	No	3.485	n/a	n/a	LatePress	0	n/a	n/a	7	57	Blank	Neutral	True
545.763	1.45	Control	0.6552	n/a	No	3.485	n/a	5.0	LatePress	0	0.014	544.777	7	57	Feedback	Neutral	True
547.212	3.485	Control	0.6552	n/a	No	3.485	n/a	n/a	LatePress	0	0.0	n/a	7	57	ISIslide	Neutral	True
550.728	0.25	Win2	0.6609999999999999	0.0	Yes	2.722	0.028	n/a	GoodResponse	1	n/a	n/a	8	58	Cue	Win	True
550.978	4.05	Win2	0.6609999999999999	0.0	Yes	2.722	0.0	n/a	GoodResponse	1	n/a	n/a	8	58	Fixation	Win	True
555.026	0.32	Win2	0.6609999999999999	0.002	Yes	2.722	-0.002	1.0	GoodResponse	1	0.286	554.312	8	58	Target	Win	True
555.312	0.3	Win2	0.6609999999999999	0.002	Yes	2.722	-0.002	1.0	GoodResponse	1	0.286	n/a	8	58	ButtonPress	Win	True
555.36	0.38	Win2	0.6609999999999999	n/a	Yes	2.722	n/a	n/a	GoodResponse	1	n/a	n/a	8	58	Blank	Win	True
555.726	1.45	Win2	0.6609999999999999	n/a	Yes	2.722	n/a	5.0	GoodResponse	1	0.007	554.733	8	58	Feedback	Win	True
557.176	2.722	Win2	0.6609999999999999	n/a	Yes	2.722	n/a	n/a	GoodResponse	1	0.0	n/a	8	58	ISIslide	Win	True
559.925	0.25	Lose2	0.6667000000000001	0.0	Yes	2.675	0.025	n/a	GoodResponse	0	n/a	n/a	8	59	Cue	AvoidedLoss	True
560.175	4.0	Lose2	0.6667000000000001	0.0	Yes	2.675	0.0	n/a	GoodResponse	0	n/a	n/a	8	59	Fixation	AvoidedLoss	True
564.173	0.32	Lose2	0.6667000000000001	0.002	Yes	2.675	-0.002	1.0	GoodResponse	0	0.211	563.384	8	59	Target	AvoidedLoss	True
564.384	0.3	Lose2	0.6667000000000001	0.002	Yes	2.675	-0.002	1.0	GoodResponse	0	0.211	n/a	8	59	ButtonPress	AvoidedLoss	True
564.506	0.38	Lose2	0.6667000000000001	n/a	Yes	2.675	n/a	n/a	GoodResponse	0	n/a	n/a	8	59	Blank	AvoidedLoss	True
564.873	1.45	Lose2	0.6667000000000001	n/a	Yes	2.675	n/a	5.0	GoodResponse	0	0.027	563.9	8	59	Feedback	AvoidedLoss	True
566.323	2.675	Lose2	0.6667000000000001	n/a	Yes	2.675	n/a	n/a	GoodResponse	0	0.0	n/a	8	59	ISIslide	AvoidedLoss	True
569.022	0.25	Control	0.6557	0.0	No	2.678	0.022	n/a	NoResponse	0	n/a	n/a	8	60	Cue	Neutral	True
569.272	4.0	Control	0.6557	0.0	No	2.678	0.0	n/a	NoResponse	0	n/a	n/a	8	60	Fixation	Neutral	True
573.27	0.31	Control	0.6557	0.002	No	2.678	-0.002	1.0	NoResponse	0	0.344	572.614	8	60	Target	Neutral	True
573.587	0.39	Control	0.6557	n/a	No	2.678	n/a	n/a	NoResponse	0	n/a	n/a	8	60	Blank	Neutral	True
573.614	0.3	Control	0.6557	0.002	No	2.678	-0.002	1.0	NoResponse	0	0.344	n/a	8	60	ButtonPress	Neutral	True
573.97	1.45	Control	0.6557	n/a	No	2.678	n/a	5.0	NoResponse	0	0.008	572.978	8	60	Feedback	Neutral	True
575.419	2.678	Control	0.6557	n/a	No	2.678	n/a	n/a	NoResponse	0	0.0	n/a	8	60	ISIslide	Neutral	True
578.118	0.25	Lose2	0.6613	0.001	Yes	2.982	0.018	n/a	GoodResponse	0	n/a	n/a	8	61	Cue	AvoidedLoss	True
578.368	4.0	Lose2	0.6613	0.0	Yes	2.982	0.0	n/a	GoodResponse	0	n/a	n/a	8	61	Fixation	AvoidedLoss	True
582.367	0.31	Lose2	0.6613	0.001	Yes	2.982	-0.001	1.0	GoodResponse	0	0.307	581.674	8	61	Target	AvoidedLoss	True
582.674	0.3	Lose2	0.6613	0.001	Yes	2.982	-0.001	1.0	GoodResponse	0	0.307	n/a	8	61	ButtonPress	AvoidedLoss	True
582.684	0.39	Lose2	0.6613	n/a	Yes	2.982	n/a	n/a	GoodResponse	0	n/a	n/a	8	61	Blank	AvoidedLoss	True
583.067	1.45	Lose2	0.6613	n/a	Yes	2.982	n/a	5.0	GoodResponse	0	0.028	582.095	8	61	Feedback	AvoidedLoss	True
584.516	2.982	Lose2	0.6613	n/a	Yes	2.982	n/a	n/a	GoodResponse	0	0.0	n/a	8	61	ISIslide	AvoidedLoss	True
587.515	0.25	Lose2	0.6667000000000001	0.0	Yes	2.885	0.015	n/a	GoodResponse	0	n/a	n/a	8	62	Cue	AvoidedLoss	True
587.765	3.9	Lose2	0.6667000000000001	0.0	Yes	2.885	0.0	n/a	GoodResponse	0	n/a	n/a	8	62	Fixation	AvoidedLoss	True
591.664	0.31	Lose2	0.6667000000000001	0.001	Yes	2.885	-0.001	1.0	GoodResponse	0	0.231	590.895	8	62	Target	AvoidedLoss	True
591.895	0.3	Lose2	0.6667000000000001	0.001	Yes	2.885	-0.001	1.0	GoodResponse	0	0.231	n/a	8	62	ButtonPress	AvoidedLoss	True
591.98	0.39	Lose2	0.6667000000000001	n/a	Yes	2.885	n/a	n/a	GoodResponse	0	n/a	n/a	8	62	Blank	AvoidedLoss	True
592.364	1.45	Lose2	0.6667000000000001	n/a	Yes	2.885	n/a	5.0	GoodResponse	0	0.047	591.411	8	62	Feedback	AvoidedLoss	True
593.813	2.885	Lose2	0.6667000000000001	n/a	Yes	2.885	n/a	n/a	GoodResponse	0	0.0	n/a	8	62	ISIslide	AvoidedLoss	True
596.729	0.25	Lose2	0.6562	0.0	No	2.621	0.029	n/a	NoResponse	-1	n/a	n/a	7	63	Cue	Loss	True
596.979	4.05	Lose2	0.6562	0.0	No	2.621	0.0	n/a	NoResponse	-1	n/a	n/a	7	63	Fixation	Loss	True
601.027	0.3	Lose2	0.6562	0.002	No	2.621	-0.002	1.0	NoResponse	-1	0.328	600.355	7	63	Target	Loss	True
601.327	0.4	Lose2	0.6562	n/a	No	2.621	n/a	n/a	NoResponse	-1	n/a	n/a	7	63	Blank	Loss	True
601.355	0.3	Lose2	0.6562	0.002	No	2.621	-0.002	1.0	NoResponse	-1	0.328	n/a	7	63	ButtonPress	Loss	True
601.727	1.45	Lose2	0.6562	n/a	No	2.621	n/a	5.0	NoResponse	-1	0.001	600.728	7	63	Feedback	Loss	True
603.176	2.621	Lose2	0.6562	n/a	No	2.621	n/a	n/a	NoResponse	-1	0.0	n/a	7	63	ISIslide	Loss	True
605.826	0.25	Win2	0.6462	0.0	No	3.124	0.026	n/a	NoResponse	0	n/a	n/a	7	64	Cue	MissedWin	True
606.075	4.15	Win2	0.6462	0.001	No	3.124	-0.001	n/a	NoResponse	0	n/a	n/a	7	64	Fixation	MissedWin	True
610.224	0.3	Win2	0.6462	0.002	No	3.124	-0.002	1.0	NoResponse	0	0.318	609.542	7	64	Target	MissedWin	True
610.524	0.4	Win2	0.6462	n/a	No	3.124	n/a	n/a	NoResponse	0	n/a	n/a	7	64	Blank	MissedWin	True
610.542	0.3	Win2	0.6462	0.002	No	3.124	-0.002	1.0	NoResponse	0	0.318	n/a	7	64	ButtonPress	MissedWin	True
610.924	1.45	Win2	0.6462	n/a	No	3.124	n/a	5.0	NoResponse	0	0.024	609.948	7	64	Feedback	MissedWin	True
612.373	3.124	Win2	0.6462	n/a	No	3.124	n/a	n/a	NoResponse	0	0.0	n/a	7	64	ISIslide	MissedWin	True
615.522	0.25	Control	0.6364	0.0	No	2.778	0.022	n/a	NoResponse	0	n/a	n/a	7	65	Cue	Neutral	False
615.772	4.0	Control	0.6364	0.0	No	2.778	0.0	n/a	NoResponse	0	n/a	n/a	7	65	Fixation	Neutral	False
619.771	0.31	Control	0.6364	0.001	No	2.778	-0.001	n/a	NoResponse	0	n/a	n/a	7	65	Target	Neutral	False
620.087	0.39	Control	0.6364	n/a	No	2.778	n/a	n/a	NoResponse	0	n/a	n/a	7	65	Blank	Neutral	False
620.47	1.45	Control	0.6364	n/a	No	2.778	n/a	5.0	NoResponse	0	0.039	619.509	7	65	Feedback	Neutral	False
621.92	2.778	Control	0.6364	n/a	No	2.778	n/a	n/a	NoResponse	0	0.0	n/a	7	65	ISIslide	Neutral	False
624.719	0.25	Win2	0.6418	0.0	Yes	2.781	0.019	n/a	GoodResponse	1	n/a	n/a	8	66	Cue	Win	True
624.969	3.9	Win2	0.6418	0.0	Yes	2.781	0.0	n/a	GoodResponse	1	n/a	n/a	8	66	Fixation	Win	True
628.868	0.32	Win2	0.6418	0.001	Yes	2.781	-0.001	1.0	GoodResponse	1	0.218	628.086	8	66	Target	Win	True
629.086	0.3	Win2	0.6418	0.001	Yes	2.781	-0.001	1.0	GoodResponse	1	0.218	n/a	8	66	ButtonPress	Win	True
629.201	0.38	Win2	0.6418	n/a	Yes	2.781	n/a	n/a	GoodResponse	1	n/a	n/a	8	66	Blank	Win	True
629.567	1.45	Win2	0.6418	n/a	Yes	2.781	n/a	5.0	GoodResponse	1	0.015	628.582	8	66	Feedback	Win	True
631.017	2.781	Win2	0.6418	n/a	Yes	2.781	n/a	n/a	GoodResponse	1	0.0	n/a	8	66	ISIslide	Win	True
633.816	0.25	Control	0.6470999999999999	0.0	Yes	2.734	0.016	n/a	GoodResponse	0	n/a	n/a	8	67	Cue	Neutral	True
634.066	3.95	Control	0.6470999999999999	0.0	Yes	2.734	0.0	n/a	GoodResponse	0	n/a	n/a	8	67	Fixation	Neutral	True
638.014	0.33	Control	0.6470999999999999	0.002	Yes	2.734	-0.002	1.0	GoodResponse	0	0.298	637.312	8	67	Target	Neutral	True
638.312	0.3	Control	0.6470999999999999	0.002	Yes	2.734	-0.002	1.0	GoodResponse	0	0.298	n/a	8	67	ButtonPress	Neutral	True
638.348	0.37	Control	0.6470999999999999	n/a	Yes	2.734	n/a	n/a	GoodResponse	0	n/a	n/a	8	67	Blank	Neutral	True
638.714	1.45	Control	0.6470999999999999	n/a	Yes	2.734	n/a	5.0	GoodResponse	0	0.039	637.753	8	67	Feedback	Neutral	True
640.164	2.734	Control	0.6470999999999999	n/a	Yes	2.734	n/a	n/a	GoodResponse	0	0.0	n/a	8	67	ISIslide	Neutral	True
642.913	0.25	Win2	0.6377	0.0	No	3.087	0.013	n/a	PrematurePress	0	n/a	n/a	8	68	Cue	MissedWin	True
643.163	4.0	Win2	0.6377	0.0	No	3.087	0.0	n/a	PrematurePress	0	n/a	n/a	8	68	Fixation	MissedWin	True
647.161	0.34	Win2	0.6377	0.002	No	3.087	-0.002	1.0	PrematurePress	0	0.074	646.235	8	68	Target	MissedWin	True
647.235	0.3	Win2	0.6377	0.002	No	3.087	-0.002	1.0	PrematurePress	0	0.074	n/a	8	68	ButtonPress	MissedWin	True
647.511	0.36	Win2	0.6377	n/a	No	3.087	n/a	n/a	PrematurePress	0	n/a	n/a	8	68	Blank	MissedWin	True
647.861	1.45	Win2	0.6377	n/a	No	3.087	n/a	5.0	PrematurePress	0	0.014	646.875	8	68	Feedback	MissedWin	True
649.311	3.087	Win2	0.6377	n/a	No	3.087	n/a	n/a	PrematurePress	0	0.0	n/a	8	68	ISIslide	MissedWin	True
652.426	0.25	Win2	0.6429	0.0	Yes	3.224	0.026	n/a	GoodResponse	1	n/a	n/a	9	69	Cue	Win	True
652.676	3.95	Win2	0.6429	0.0	Yes	3.224	0.0	n/a	GoodResponse	1	n/a	n/a	9	69	Fixation	Win	True
656.625	0.35	Win2	0.6429	0.001	Yes	3.224	-0.001	1.0	GoodResponse	1	0.336	655.961	9	69	Target	Win	True
656.961	0.3	Win2	0.6429	0.001	Yes	3.224	-0.001	1.0	GoodResponse	1	0.336	n/a	9	69	ButtonPress	Win	True
656.975	0.35	Win2	0.6429	n/a	Yes	3.224	n/a	n/a	GoodResponse	1	n/a	n/a	9	69	Blank	Win	True
657.324	1.45	Win2	0.6429	n/a	Yes	3.224	n/a	5.0	GoodResponse	1	0.014	656.338	9	69	Feedback	Win	True
658.774	3.224	Win2	0.6429	n/a	Yes	3.224	n/a	n/a	GoodResponse	1	0.0	n/a	9	69	ISIslide	Win	True
662.023	0.25	Lose2	0.6479	0.0	Yes	3.027	0.023	n/a	GoodResponse	0	n/a	n/a	9	70	Cue	AvoidedLoss	True
662.273	4.05	Lose2	0.6479	0.0	Yes	3.027	0.0	n/a	GoodResponse	0	n/a	n/a	9	70	Fixation	AvoidedLoss	True
666.321	0.36	Lose2	0.6479	0.002	Yes	3.027	-0.002	1.0	GoodResponse	0	0.242	665.563	9	70	Target	AvoidedLoss	True
666.563	0.3	Lose2	0.6479	0.002	Yes	3.027	-0.002	1.0	GoodResponse	0	0.242	n/a	9	70	ButtonPress	AvoidedLoss	True
666.688	0.34	Lose2	0.6479	n/a	Yes	3.027	n/a	n/a	GoodResponse	0	n/a	n/a	9	70	Blank	AvoidedLoss	True
667.021	1.45	Lose2	0.6479	n/a	Yes	3.027	n/a	5.0	GoodResponse	0	0.024	666.045	9	70	Feedback	AvoidedLoss	True
668.471	3.027	Lose2	0.6479	n/a	Yes	3.027	n/a	n/a	GoodResponse	0	0.0	n/a	9	70	ISIslide	AvoidedLoss	True
671.519	0.25	Win2	0.6528	0.001	Yes	2.731	0.019	n/a	GoodResponse	1	n/a	n/a	10	71	Cue	Win	True
671.769	4.05	Win2	0.6528	0.0	Yes	2.731	0.0	n/a	GoodResponse	1	n/a	n/a	10	71	Fixation	Win	True
675.818	0.37	Win2	0.6528	0.001	Yes	2.731	-0.001	1.0	GoodResponse	1	0.318	675.136	10	71	Target	Win	True
676.136	0.3	Win2	0.6528	0.001	Yes	2.731	-0.001	1.0	GoodResponse	1	0.318	n/a	10	71	ButtonPress	Win	True
676.185	0.33	Win2	0.6528	n/a	Yes	2.731	n/a	n/a	GoodResponse	1	n/a	n/a	10	71	Blank	Win	True
676.518	1.45	Win2	0.6528	n/a	Yes	2.731	n/a	5.0	GoodResponse	1	0.04	675.558	10	71	Feedback	Win	True
677.967	2.731	Win2	0.6528	n/a	Yes	2.731	n/a	n/a	GoodResponse	1	0.0	n/a	10	71	ISIslide	Win	True
680.716	0.25	Win2	0.6575	0.0	Yes	2.784	0.016	n/a	GoodResponse	1	n/a	n/a	11	72	Cue	Win	True
680.966	4.1	Win2	0.6575	0.0	Yes	2.784	0.0	n/a	GoodResponse	1	n/a	n/a	11	72	Fixation	Win	True
685.065	0.38	Win2	0.6575	0.001	Yes	2.784	-0.001	1.0	GoodResponse	1	0.193	684.258	11	72	Target	Win	True
685.258	0.3	Win2	0.6575	0.001	Yes	2.784	-0.001	1.0	GoodResponse	1	0.193	n/a	11	72	ButtonPress	Win	True
685.448	0.32	Win2	0.6575	n/a	Yes	2.784	n/a	n/a	GoodResponse	1	n/a	n/a	11	72	Blank	Win	True
685.765	1.45	Win2	0.6575	n/a	Yes	2.784	n/a	5.0	GoodResponse	1	0.012	684.777	11	72	Feedback	Win	True
687.214	2.784	Win2	0.6575	n/a	Yes	2.784	n/a	n/a	GoodResponse	1	0.0	n/a	11	72	ISIslide	Win	True
690.013	0.25	Win2	0.6622	0.0	Yes	2.687	0.013	n/a	GoodResponse	1	n/a	n/a	12	73	Cue	Win	True
690.263	4.0	Win2	0.6622	0.0	Yes	2.687	0.0	n/a	GoodResponse	1	n/a	n/a	12	73	Fixation	Win	True
694.262	0.38	Win2	0.6622	0.001	Yes	2.687	-0.001	1.0	GoodResponse	1	0.27	693.532	12	73	Target	Win	True
694.532	0.3	Win2	0.6622	0.001	Yes	2.687	-0.001	1.0	GoodResponse	1	0.27	n/a	12	73	ButtonPress	Win	True
694.645	0.32	Win2	0.6622	n/a	Yes	2.687	n/a	n/a	GoodResponse	1	n/a	n/a	12	73	Blank	Win	True
694.961	1.45	Win2	0.6622	n/a	Yes	2.687	n/a	5.0	GoodResponse	1	0.036	693.997	12	73	Feedback	Win	True
696.411	2.687	Win2	0.6622	n/a	Yes	2.687	n/a	n/a	GoodResponse	1	0.0	n/a	12	73	ISIslide	Win	True
699.127	0.25	Lose2	0.6667000000000001	0.0	Yes	2.623	0.027	n/a	GoodResponse	0	n/a	n/a	12	74	Cue	AvoidedLoss	True
699.377	4.05	Lose2	0.6667000000000001	0.0	Yes	2.623	0.0	n/a	GoodResponse	0	n/a	n/a	12	74	Fixation	AvoidedLoss	True
703.425	0.38	Lose2	0.6667000000000001	0.002	Yes	2.623	-0.002	1.0	GoodResponse	0	0.318	702.743	12	74	Target	AvoidedLoss	True
703.743	0.3	Lose2	0.6667000000000001	0.002	Yes	2.623	-0.002	1.0	GoodResponse	0	0.318	n/a	12	74	ButtonPress	AvoidedLoss	True
703.808	0.32	Lose2	0.6667000000000001	n/a	Yes	2.623	n/a	n/a	GoodResponse	0	n/a	n/a	12	74	Blank	AvoidedLoss	True
704.125	1.45	Lose2	0.6667000000000001	n/a	Yes	2.623	n/a	5.0	GoodResponse	0	0.043	703.168	12	74	Feedback	AvoidedLoss	True
705.574	2.623	Lose2	0.6667000000000001	n/a	Yes	2.623	n/a	n/a	GoodResponse	0	0.0	n/a	12	74	ISIslide	AvoidedLoss	True
708.223	0.25	Lose2	0.6711	0.001	Yes	2.927	0.023	n/a	GoodResponse	0	n/a	n/a	12	75	Cue	AvoidedLoss	True
708.473	3.95	Lose2	0.6711	0.0	Yes	2.927	0.0	n/a	GoodResponse	0	n/a	n/a	12	75	Fixation	AvoidedLoss	True
712.422	0.37	Lose2	0.6711	0.001	Yes	2.927	-0.001	1.0	GoodResponse	0	0.261	711.683	12	75	Target	AvoidedLoss	True
712.683	0.3	Lose2	0.6711	0.001	Yes	2.927	-0.001	1.0	GoodResponse	0	0.261	n/a	12	75	ButtonPress	AvoidedLoss	True
712.789	0.33	Lose2	0.6711	n/a	Yes	2.927	n/a	n/a	GoodResponse	0	n/a	n/a	12	75	Blank	AvoidedLoss	True
713.122	1.45	Lose2	0.6711	n/a	Yes	2.927	n/a	5.0	GoodResponse	0	0.02	712.142	12	75	Feedback	AvoidedLoss	True
714.571	2.927	Lose2	0.6711	n/a	Yes	2.927	n/a	n/a	GoodResponse	0	0.0	n/a	12	75	ISIslide	AvoidedLoss	True
717.52	0.25	Control	0.6753	0.0	Yes	3.23	0.02	n/a	GoodResponse	0	n/a	n/a	12	76	Cue	Neutral	True
717.77	4.05	Control	0.6753	0.0	Yes	3.23	0.0	n/a	GoodResponse	0	n/a	n/a	12	76	Fixation	Neutral	True
721.819	0.36	Control	0.6753	0.001	Yes	3.23	-0.001	1.0	GoodResponse	0	0.285	721.104	12	76	Target	Neutral	True
722.104	0.3	Control	0.6753	0.001	Yes	3.23	-0.001	1.0	GoodResponse	0	0.285	n/a	12	76	ButtonPress	Neutral	True
722.185	0.34	Control	0.6753	n/a	Yes	3.23	n/a	n/a	GoodResponse	0	n/a	n/a	12	76	Blank	Neutral	True
722.519	1.45	Control	0.6753	n/a	Yes	3.23	n/a	5.0	GoodResponse	0	0.038	721.557	12	76	Feedback	Neutral	True
723.968	3.23	Control	0.6753	n/a	Yes	3.23	n/a	n/a	GoodResponse	0	0.0	n/a	12	76	ISIslide	Neutral	True
727.217	0.25	Lose2	0.6795	0.0	Yes	2.583	0.017	n/a	GoodResponse	0	n/a	n/a	12	77	Cue	AvoidedLoss	True
727.467	3.95	Lose2	0.6795	0.0	Yes	2.583	0.0	n/a	GoodResponse	0	n/a	n/a	12	77	Fixation	AvoidedLoss	True
731.415	0.35	Lose2	0.6795	0.002	Yes	2.583	-0.002	1.0	GoodResponse	0	0.273	730.688	12	77	Target	AvoidedLoss	True
731.688	0.3	Lose2	0.6795	0.002	Yes	2.583	-0.002	1.0	GoodResponse	0	0.273	n/a	12	77	ButtonPress	AvoidedLoss	True
731.765	0.35	Lose2	0.6795	n/a	Yes	2.583	n/a	n/a	GoodResponse	0	n/a	n/a	12	77	Blank	AvoidedLoss	True
732.115	1.45	Lose2	0.6795	n/a	Yes	2.583	n/a	5.0	GoodResponse	0	0.007	731.122	12	77	Feedback	AvoidedLoss	True
733.565	2.583	Lose2	0.6795	n/a	Yes	2.583	n/a	n/a	GoodResponse	0	0.0	n/a	12	77	ISIslide	AvoidedLoss	True
