onset	duration	cue_type	current_mean_accuracy	duration_error	is_hit	isi_adjusted	onset_delay	response	response_type	reward	rt	rt_time	total_reward	trial_number	trial_phase	trial_type	one_press
11.098	0.25	Control	1.0	0.0	Yes	2.952	-0.002	n/a	GoodResponse	0	n/a	n/a	0	0	Cue	Neutral	True
11.349	3.85	Control	1.0	0.0	Yes	2.952	0.001	n/a	GoodResponse	0	n/a	n/a	0	0	Fixation	Neutral	True
15.21	0.4	Control	1.0	0.0	Yes	2.952	0.012	4.0	GoodResponse	0	0.216	14.426	0	0	Target	Neutral	True
15.426	0.3	Control	1.0	0.0	Yes	2.952	0.012	4.0	GoodResponse	0	0.216	n/a	0	0	ButtonPress	Neutral	True
15.595	0.3	Control	1.0	n/a	Yes	2.952	n/a	n/a	GoodResponse	0	n/a	n/a	0	0	Blank	Neutral	True
15.895	1.45	Control	1.0	n/a	Yes	2.952	n/a	5.0	GoodResponse	0	0.031	14.926	0	0	Feedback	Neutral	True
17.35	2.952	Control	1.0	n/a	Yes	2.952	n/a	n/a	GoodResponse	0	0.0	n/a	0	0	ISIslide	Neutral	True
20.325	0.25	Lose2	1.0	0.0	Yes	2.775	0.025	n/a	GoodResponse	0	n/a	n/a	0	1	Cue	AvoidedLoss	True
20.576	4.0	Lose2	1.0	0.0	Yes	2.775	0.001	n/a	GoodResponse	0	n/a	n/a	0	1	Fixation	AvoidedLoss	True
24.571	0.39	Lose2	1.0	0.004	Yes	2.775	-0.004	4.0	GoodResponse	0	0.215	23.786	0	1	Target	AvoidedLoss	True
24.786	0.3	Lose2	1.0	0.004	Yes	2.775	-0.004	4.0	GoodResponse	0	0.215	n/a	0	1	ButtonPress	AvoidedLoss	True
24.973	0.31	Lose2	1.0	n/a	Yes	2.775	n/a	n/a	GoodResponse	0	n/a	n/a	0	1	Blank	AvoidedLoss	True
25.274	1.45	Lose2	1.0	n/a	Yes	2.775	n/a	5.0	GoodResponse	0	0.018	24.292	0	1	Feedback	AvoidedLoss	True
26.728	2.775	Lose2	1.0	n/a	Yes	2.775	n/a	n/a	GoodResponse	0	0.0	n/a	0	1	ISIslide	AvoidedLoss	True
29.52	0.25	Control	1.0	0.0	Yes	2.58	0.02	n/a	GoodResponse	0	n/a	n/a	0	2	Cue	Neutral	True
29.77	4.1	Control	1.0	0.0	Yes	2.58	0.0	n/a	GoodResponse	0	n/a	n/a	0	2	Fixation	Neutral	True
33.866	0.38	Control	1.0	0.004	Yes	2.58	-0.004	4.0	GoodResponse	0	0.225	33.091	0	2	Target	Neutral	True
34.091	0.3	Control	1.0	0.004	Yes	2.58	-0.004	4.0	GoodResponse	0	0.225	n/a	0	2	ButtonPress	Neutral	True
34.25	0.32	Control	1.0	n/a	Yes	2.58	n/a	n/a	GoodResponse	0	n/a	n/a	0	2	Blank	Neutral	True
34.568	1.45	Control	1.0	n/a	Yes	2.58	n/a	5.0	GoodResponse	0	0.041	33.609	0	2	Feedback	Neutral	True
36.022	2.58	Control	1.0	n/a	Yes	2.58	n/a	n/a	GoodResponse	0	0.0	n/a	0	2	ISIslide	Neutral	True
38.613	0.25	Win2	1.0	0.0	Yes	2.837	0.013	n/a	GoodResponse	1	n/a	n/a	1	3	Cue	Win	True
38.864	3.95	Win2	1.0	0.0	Yes	2.837	0.001	n/a	GoodResponse	1	n/a	n/a	1	3	Fixation	Win	True
42.809	0.37	Win2	1.0	0.004	Yes	2.837	-0.004	4.0	GoodResponse	1	0.224	42.033	1	3	Target	Win	True
43.033	0.3	Win2	1.0	0.004	Yes	2.837	-0.004	4.0	GoodResponse	1	0.224	n/a	1	3	ButtonPress	Win	True
43.194	0.33	Win2	1.0	n/a	Yes	2.837	n/a	n/a	GoodResponse	1	n/a	n/a	1	3	Blank	Win	True
43.511	1.45	Win2	1.0	n/a	Yes	2.837	n/a	5.0	GoodResponse	1	0.025	42.536	1	3	Feedback	Win	True
44.966	2.837	Win2	1.0	n/a	Yes	2.837	n/a	n/a	GoodResponse	1	0.0	n/a	1	3	ISIslide	Win	True
47.824	0.25	Win2	1.0	0.0	Yes	3.276	0.024	n/a	GoodResponse	1	n/a	n/a	2	4	Cue	Win	True
48.075	4.0	Win2	1.0	0.0	Yes	3.276	0.001	n/a	GoodResponse	1	n/a	n/a	2	4	Fixation	Win	True
52.07	0.36	Win2	1.0	0.004	Yes	3.276	-0.004	4.0	GoodResponse	1	0.197	51.267	2	4	Target	Win	True
52.267	0.3	Win2	1.0	0.004	Yes	3.276	-0.004	4.0	GoodResponse	1	0.197	n/a	2	4	ButtonPress	Win	True
52.438	0.34	Win2	1.0	n/a	Yes	3.276	n/a	n/a	GoodResponse	1	n/a	n/a	2	4	Blank	Win	True
52.772	1.45	Win2	1.0	n/a	Yes	3.276	n/a	5.0	GoodResponse	1	0.032	51.804	2	4	Feedback	Win	True
54.227	3.276	Win2	1.0	n/a	Yes	3.276	n/a	n/a	GoodResponse	1	0.0	n/a	2	4	ISIslide	Win	True
57.52	0.25	Win2	1.0	0.0	Yes	2.78	0.02	n/a	GoodResponse	1	n/a	n/a	3	5	Cue	Win	True
57.771	4.0	Win2	1.0	0.0	Yes	2.78	0.001	n/a	GoodResponse	1	n/a	n/a	3	5	Fixation	Win	True
61.766	0.35	Win2	1.0	0.004	Yes	2.78	-0.004	4.0	GoodResponse	1	0.216	60.982	3	5	Target	Win	True
61.982	0.3	Win2	1.0	0.004	Yes	2.78	-0.004	4.0	GoodResponse	1	0.216	n/a	3	5	ButtonPress	Win	True
62.117	0.35	Win2	1.0	n/a	Yes	2.78	n/a	n/a	GoodResponse	1	n/a	n/a	3	5	Blank	Win	True
62.468	1.45	Win2	1.0	n/a	Yes	2.78	n/a	5.0	GoodResponse	1	0.043	61.511	3	5	Feedback	Win	True
63.922	2.78	Win2	1.0	n/a	Yes	2.78	n/a	n/a	GoodResponse	1	0.0	n/a	3	5	ISIslide	Win	True
66.714	0.25	Lose2	1.0	0.0	Yes	2.736	0.014	n/a	GoodResponse	0	n/a	n/a	3	6	Cue	AvoidedLoss	True
66.965	3.95	Lose2	1.0	0.0	Yes	2.736	0.001	n/a	GoodResponse	0	n/a	n/a	3	6	Fixation	AvoidedLoss	True
70.91	0.34	Lose2	1.0	0.004	Yes	2.736	-0.004	4.0	GoodResponse	0	0.234	70.144	3	6	Target	AvoidedLoss	True
71.144	0.3	Lose2	1.0	0.004	Yes	2.736	-0.004	4.0	GoodResponse	0	0.234	n/a	3	6	ButtonPress	AvoidedLoss	True
71.261	0.36	Lose2	1.0	n/a	Yes	2.736	n/a	n/a	GoodResponse	0	n/a	n/a	3	6	Blank	AvoidedLoss	True
71.612	1.45	Lose2	1.0	n/a	Yes	2.736	n/a	5.0	GoodResponse	0	0.021	70.633	3	6	Feedback	AvoidedLoss	True
73.066	2.736	Lose2	1.0	n/a	Yes	2.736	n/a	n/a	GoodResponse	0	0.0	n/a	3	6	ISIslide	AvoidedLoss	True
75.825	0.25	Lose2	1.0	0.0	Yes	4.025	0.025	n/a	GoodResponse	0	n/a	n/a	3	7	Cue	AvoidedLoss	True
76.075	4.05	Lose2	1.0	0.0	Yes	4.025	0.0	n/a	GoodResponse	0	n/a	n/a	3	7	Fixation	AvoidedLoss	True
80.121	0.33	Lose2	1.0	0.004	Yes	4.025	-0.004	4.0	GoodResponse	0	0.196	79.317	3	7	Target	AvoidedLoss	True
80.317	0.3	Lose2	1.0	0.004	Yes	4.025	-0.004	4.0	GoodResponse	0	0.196	n/a	3	7	ButtonPress	AvoidedLoss	True
80.455	0.37	Lose2	1.0	n/a	Yes	4.025	n/a	n/a	GoodResponse	0	n/a	n/a	3	7	Blank	AvoidedLoss	True
80.823	1.45	Lose2	1.0	n/a	Yes	4.025	n/a	5.0	GoodResponse	0	0.029	79.852	3	7	Feedback	AvoidedLoss	True
82.277	4.025	Lose2	1.0	n/a	Yes	4.025	n/a	n/a	GoodResponse	0	0.0	n/a	3	7	ISIslide	AvoidedLoss	True
86.323	0.25	Lose2	1.0	0.0	Yes	3.027	0.023	n/a	GoodResponse	0	n/a	n/a	3	8	Cue	AvoidedLoss	True
86.573	3.95	Lose2	1.0	0.001	Yes	3.027	0.0	n/a	GoodResponse	0	n/a	n/a	3	8	Fixation	AvoidedLoss	True
90.519	0.32	Lose2	1.0	0.004	Yes	3.027	-0.004	4.0	GoodResponse	0	0.21	89.729	3	8	Target	AvoidedLoss	True
90.729	0.3	Lose2	1.0	0.004	Yes	3.027	-0.004	4.0	GoodResponse	0	0.21	n/a	3	8	ButtonPress	AvoidedLoss	True
90.853	0.38	Lose2	1.0	n/a	Yes	3.027	n/a	n/a	GoodResponse	0	n/a	n/a	3	8	Blank	AvoidedLoss	True
91.221	1.45	Lose2	1.0	n/a	Yes	3.027	n/a	5.0	GoodResponse	0	0.022	90.243	3	8	Feedback	AvoidedLoss	True
92.675	3.027	Lose2	1.0	n/a	Yes	3.027	n/a	n/a	GoodResponse	0	0.0	n/a	3	8	ISIslide	AvoidedLoss	True
95.717	0.25	Lose2	1.0	0.001	Yes	3.133	0.017	n/a	GoodResponse	0	n/a	n/a	3	9	Cue	AvoidedLoss	True
95.968	3.95	Lose2	1.0	0.0	Yes	3.133	0.001	n/a	GoodResponse	0	n/a	n/a	3	9	Fixation	AvoidedLoss	True
99.913	0.31	Lose2	1.0	0.004	Yes	3.133	-0.004	4.0	GoodResponse	0	0.183	99.096	3	9	Target	AvoidedLoss	True
100.096	0.3	Lose2	1.0	0.004	Yes	3.133	-0.004	4.0	GoodResponse	0	0.183	n/a	3	9	ButtonPress	AvoidedLoss	True
100.231	0.39	Lose2	1.0	n/a	Yes	3.133	n/a	n/a	GoodResponse	0	n/a	n/a	3	9	Blank	AvoidedLoss	True
100.615	1.45	Lose2	1.0	n/a	Yes	3.133	n/a	5.0	GoodResponse	0	0.041	99.656	3	9	Feedback	AvoidedLoss	True
102.07	3.133	Lose2	1.0	n/a	Yes	3.133	n/a	n/a	GoodResponse	0	0.0	n/a	3	9	ISIslide	AvoidedLoss	True
105.213	0.25	Control	1.0	0.0	Yes	3.287	0.013	n/a	GoodResponse	0	n/a	n/a	3	10	Cue	Neutral	True
105.463	4.0	Control	1.0	0.0	Yes	3.287	0.0	n/a	GoodResponse	0	n/a	n/a	3	10	Fixation	Neutral	True
109.459	0.3	Control	1.0	0.004	Yes	3.287	-0.004	4.0	GoodResponse	0	0.171	108.63	3	10	Target	Neutral	True
109.63	0.3	Control	1.0	0.004	Yes	3.287	-0.004	4.0	GoodResponse	0	0.171	n/a	3	10	ButtonPress	Neutral	True
109.759	0.4	Control	1.0	n/a	Yes	3.287	n/a	n/a	GoodResponse	0	n/a	n/a	3	10	Blank	Neutral	True
110.161	1.45	Control	1.0	n/a	Yes	3.287	n/a	5.0	GoodResponse	0	0.008	109.169	3	10	Feedback	Neutral	True
111.615	3.287	Control	1.0	n/a	Yes	3.287	n/a	n/a	GoodResponse	0	0.0	n/a	3	10	ISIslide	Neutral	True
114.925	0.25	Lose2	1.0	0.0	Yes	2.725	0.025	n/a	GoodResponse	0	n/a	n/a	3	11	Cue	AvoidedLoss	True
115.176	4.05	Lose2	1.0	0.0	Yes	2.725	0.001	n/a	GoodResponse	0	n/a	n/a	3	11	Fixation	AvoidedLoss	True
119.221	0.29	Lose2	1.0	0.004	Yes	2.725	-0.004	4.0	GoodResponse	0	0.192	118.413	3	11	Target	AvoidedLoss	True
119.413	0.3	Lose2	1.0	0.004	Yes	2.725	-0.004	4.0	GoodResponse	0	0.192	n/a	3	11	ButtonPress	AvoidedLoss	True
119.522	0.41	Lose2	1.0	n/a	Yes	2.725	n/a	n/a	GoodResponse	0	n/a	n/a	3	11	Blank	AvoidedLoss	True
119.923	1.45	Lose2	1.0	n/a	Yes	2.725	n/a	5.0	GoodResponse	0	0.002	118.925	3	11	Feedback	AvoidedLoss	True
121.378	2.725	Lose2	1.0	n/a	Yes	2.725	n/a	n/a	GoodResponse	0	0.0	n/a	3	11	ISIslide	AvoidedLoss	True
124.119	0.25	Control	1.0	0.0	Yes	2.981	0.019	n/a	GoodResponse	0	n/a	n/a	3	12	Cue	Neutral	True
124.37	3.9	Control	1.0	0.0	Yes	2.981	0.001	n/a	GoodResponse	0	n/a	n/a	3	12	Fixation	Neutral	True
128.265	0.28	Control	1.0	0.004	Yes	2.981	-0.004	4.0	GoodResponse	0	0.219	127.484	3	12	Target	Neutral	True
128.484	0.3	Control	1.0	0.004	Yes	2.981	-0.004	4.0	GoodResponse	0	0.219	n/a	3	12	ButtonPress	Neutral	True
128.549	0.42	Control	1.0	n/a	Yes	2.981	n/a	n/a	GoodResponse	0	n/a	n/a	3	12	Blank	Neutral	True
128.967	1.45	Control	1.0	n/a	Yes	2.981	n/a	5.0	GoodResponse	0	0.031	127.998	3	12	Feedback	Neutral	True
130.421	2.981	Control	1.0	n/a	Yes	2.981	n/a	n/a	GoodResponse	0	0.0	n/a	3	12	ISIslide	Neutral	True
133.414	0.25	Control	1.0	0.0	Yes	2.786	0.014	n/a	GoodResponse	0	n/a	n/a	3	13	Cue	Neutral	True
133.664	4.0	Control	1.0	0.0	Yes	2.786	0.0	n/a	GoodResponse	0	n/a	n/a	3	13	Fixation	Neutral	True
137.66	0.27	Control	1.0	0.004	Yes	2.786	-0.004	4.0	GoodResponse	0	0.181	136.841	3	13	Target	Neutral	True
137.841	0.3	Control	1.0	0.004	Yes	2.786	-0.004	4.0	GoodResponse	0	0.181	n/a	3	13	ButtonPress	Neutral	True
137.944	0.43	Control	1.0	n/a	Yes	2.786	n/a	n/a	GoodResponse	0	n/a	n/a	3	13	Blank	Neutral	True
138.362	1.45	Control	1.0	n/a	Yes	2.786	n/a	5.0	GoodResponse	0	0.002	137.364	3	13	Feedback	Neutral	True
139.816	2.786	Control	1.0	n/a	Yes	2.786	n/a	n/a	GoodResponse	0	0.0	n/a	3	13	ISIslide	Neutral	True
142.624	0.25	Win2	1.0	0.0	Yes	2.676	0.024	n/a	GoodResponse	1	n/a	n/a	4	14	Cue	Win	True
142.875	4.1	Win2	1.0	0.0	Yes	2.676	0.001	n/a	GoodResponse	1	n/a	n/a	4	14	Fixation	Win	True
146.971	0.26	Win2	1.0	0.003	Yes	2.676	-0.003	4.0	GoodResponse	1	0.186	146.157	4	14	Target	Win	True
147.157	0.3	Win2	1.0	0.003	Yes	2.676	-0.003	4.0	GoodResponse	1	0.186	n/a	4	14	ButtonPress	Win	True
147.238	0.44	Win2	1.0	n/a	Yes	2.676	n/a	n/a	GoodResponse	1	n/a	n/a	4	14	Blank	Win	True
147.673	1.45	Win2	1.0	n/a	Yes	2.676	n/a	5.0	GoodResponse	1	0.007	146.68	4	14	Feedback	Win	True
149.127	2.676	Win2	1.0	n/a	Yes	2.676	n/a	n/a	GoodResponse	1	0.0	n/a	4	14	ISIslide	Win	True
151.819	0.25	Control	1.0	0.0	Yes	2.981	0.019	n/a	GoodResponse	0	n/a	n/a	4	15	Cue	Neutral	True
152.069	4.0	Control	1.0	0.0	Yes	2.981	0.0	n/a	GoodResponse	0	n/a	n/a	4	15	Fixation	Neutral	True
156.065	0.25	Control	1.0	0.004	Yes	2.981	-0.004	4.0	GoodResponse	0	0.212	155.277	4	15	Target	Neutral	True
156.277	0.3	Control	1.0	0.004	Yes	2.981	-0.004	4.0	GoodResponse	0	0.212	n/a	4	15	ButtonPress	Neutral	True
156.315	0.45	Control	1.0	n/a	Yes	2.981	n/a	n/a	GoodResponse	0	n/a	n/a	4	15	Blank	Neutral	True
156.767	1.45	Control	1.0	n/a	Yes	2.981	n/a	5.0	GoodResponse	0	0.035	155.802	4	15	Feedback	Neutral	True
158.221	2.981	Control	1.0	n/a	Yes	2.981	n/a	n/a	GoodResponse	0	0.0	n/a	4	15	ISIslide	Neutral	True
161.213	0.25	Win2	1.0	0.0	Yes	2.887	0.013	n/a	GoodResponse	1	n/a	n/a	5	16	Cue	Win	True
161.464	4.0	Win2	1.0	0.0	Yes	2.887	0.001	n/a	GoodResponse	1	n/a	n/a	5	16	Fixation	Win	True
165.459	0.24	Win2	1.0	0.004	Yes	2.887	-0.004	4.0	GoodResponse	1	0.167	164.626	5	16	Target	Win	True
165.626	0.3	Win2	1.0	0.004	Yes	2.887	-0.004	4.0	GoodResponse	1	0.167	n/a	5	16	ButtonPress	Win	True
165.71	0.46	Win2	1.0	n/a	Yes	2.887	n/a	n/a	GoodResponse	1	n/a	n/a	5	16	Blank	Win	True
166.161	1.45	Win2	1.0	n/a	Yes	2.887	n/a	5.0	GoodResponse	1	0.007	165.168	5	16	Feedback	Win	True
167.616	2.887	Win2	1.0	n/a	Yes	2.887	n/a	n/a	GoodResponse	1	0.0	n/a	5	16	ISIslide	Win	True
170.524	0.25	Lose2	1.0	0.001	Yes	2.726	0.024	n/a	GoodResponse	0	n/a	n/a	5	17	Cue	AvoidedLoss	True
170.775	3.95	Lose2	1.0	0.0	Yes	2.726	0.001	n/a	GoodResponse	0	n/a	n/a	5	17	Fixation	AvoidedLoss	True
174.72	0.23	Lose2	1.0	0.004	Yes	2.726	-0.004	4.0	GoodResponse	0	0.201	173.921	5	17	Target	AvoidedLoss	True
174.921	0.3	Lose2	1.0	0.004	Yes	2.726	-0.004	4.0	GoodResponse	0	0.201	n/a	5	17	ButtonPress	AvoidedLoss	True
174.954	0.47	Lose2	1.0	n/a	Yes	2.726	n/a	n/a	GoodResponse	0	n/a	n/a	5	17	Blank	AvoidedLoss	True
175.422	1.45	Lose2	1.0	n/a	Yes	2.726	n/a	5.0	GoodResponse	0	0.015	174.437	5	17	Feedback	AvoidedLoss	True
176.877	2.726	Lose2	1.0	n/a	Yes	2.726	n/a	n/a	GoodResponse	0	0.0	n/a	5	17	ISIslide	AvoidedLoss	True
179.618	0.25	Lose2	1.0	0.0	Yes	2.732	0.018	n/a	GoodResponse	0	n/a	n/a	5	18	Cue	AvoidedLoss	True
179.869	4.05	Lose2	1.0	0.0	Yes	2.732	0.001	n/a	GoodResponse	0	n/a	n/a	5	18	Fixation	AvoidedLoss	True
183.914	0.22	Lose2	1.0	0.004	Yes	2.732	-0.004	4.0	GoodResponse	0	0.19	183.104	5	18	Target	AvoidedLoss	True
184.104	0.3	Lose2	1.0	0.004	Yes	2.732	-0.004	4.0	GoodResponse	0	0.19	n/a	5	18	ButtonPress	AvoidedLoss	True
184.149	0.48	Lose2	1.0	n/a	Yes	2.732	n/a	n/a	GoodResponse	0	n/a	n/a	5	18	Blank	AvoidedLoss	True
184.617	1.45	Lose2	1.0	n/a	Yes	2.732	n/a	5.0	GoodResponse	0	0.038	183.655	5	18	Feedback	AvoidedLoss	True
186.071	2.732	Lose2	1.0	n/a	Yes	2.732	n/a	n/a	GoodResponse	0	0.0	n/a	5	18	ISIslide	AvoidedLoss	True
188.812	0.25	Control	0.95	0.001	No	2.938	0.012	n/a	NoResponse	0	n/a	n/a	5	19	Cue	Neutral	True
189.063	3.95	Control	0.95	0.0	No	2.938	0.001	n/a	NoResponse	0	n/a	n/a	5	19	Fixation	Neutral	True
193.008	0.21	Control	0.95	0.004	No	2.938	-0.004	4.0	NoResponse	0	0.228	192.236	5	19	Target	Neutral	True
193.226	0.49	Control	0.95	n/a	No	2.938	n/a	n/a	NoResponse	0	n/a	n/a	5	19	Blank	Neutral	True
193.236	0.3	Control	0.95	0.004	No	2.938	-0.004	4.0	NoResponse	0	0.228	n/a	5	19	ButtonPress	Neutral	True
193.71	1.45	Control	0.95	n/a	No	2.938	n/a	5.0	NoResponse	0	0.019	192.729	5	19	Feedback	Neutral	True
195.165	2.938	Control	0.95	n/a	No	2.938	n/a	n/a	NoResponse	0	0.0	n/a	5	19	ISIslide	Neutral	True
198.124	0.25	Control	0.9523999999999999	0.0	Yes	2.626	0.024	n/a	GoodResponse	0	n/a	n/a	5	20	Cue	Neutral	True
198.374	4.05	Control	0.9523999999999999	0.0	Yes	2.626	0.0	n/a	GoodResponse	0	n/a	n/a	5	20	Fixation	Neutral	True
202.42	0.2	Control	0.9523999999999999	0.004	Yes	2.626	-0.004	4.0	GoodResponse	0	0.184	201.604	5	20	Target	Neutral	True
202.604	0.3	Control	0.9523999999999999	0.004	Yes	2.626	-0.004	4.0	GoodResponse	0	0.184	n/a	5	20	ButtonPress	Neutral	True
202.62	0.5	Control	0.9523999999999999	n/a	Yes	2.626	n/a	n/a	GoodResponse	0	n/a	n/a	5	20	Blank	Neutral	True
203.122	1.45	Control	0.9523999999999999	n/a	Yes	2.626	n/a	5.0	GoodResponse	0	0.021	202.143	5	20	Feedback	Neutral	True
204.576	2.626	Control	0.9523999999999999	n/a	Yes	2.626	n/a	n/a	GoodResponse	0	0.0	n/a	5	20	ISIslide	Neutral	True
207.218	0.25	Control	0.9545	0.0	Yes	2.782	0.018	n/a	GoodResponse	0	n/a	n/a	5	21	Cue	Neutral	True
207.468	4.1	Control	0.9545	0.0	Yes	2.782	0.0	n/a	GoodResponse	0	n/a	n/a	5	21	Fixation	Neutral	True
211.564	0.19	Control	0.9545	0.004	Yes	2.782	-0.004	4.0	GoodResponse	0	0.186	210.75	5	21	Target	Neutral	True
211.75	0.3	Control	0.9545	0.004	Yes	2.782	-0.004	4.0	GoodResponse	0	0.186	n/a	5	21	ButtonPress	Neutral	True
211.764	0.51	Control	0.9545	n/a	Yes	2.782	n/a	n/a	GoodResponse	0	n/a	n/a	5	21	Blank	Neutral	True
212.266	1.45	Control	0.9545	n/a	Yes	2.782	n/a	5.0	GoodResponse	0	0.048	211.314	5	21	Feedback	Neutral	True
213.72	2.782	Control	0.9545	n/a	Yes	2.782	n/a	4.0	GoodResponse	0	1.258	n/a	5	21	ISIslide	Neutral	True
216.512	0.25	Control	0.9565	0.0	Yes	2.788	0.012	n/a	GoodResponse	0	n/a	n/a	5	22	Cue	Neutral	True
216.763	4.0	Control	0.9565	0.0	Yes	2.788	0.001	n/a	GoodResponse	0	n/a	n/a	5	22	Fixation	Neutral	True
220.758	0.18	Control	0.9565	0.004	Yes	2.788	-0.004	4.0	GoodResponse	0	0.177	219.935	5	22	Target	Neutral	True
220.935	0.3	Control	0.9565	0.004	Yes	2.788	-0.004	4.0	GoodResponse	0	0.177	n/a	5	22	ButtonPress	Neutral	True
220.942	0.52	Control	0.9565	n/a	Yes	2.788	n/a	n/a	GoodResponse	0	n/a	n/a	5	22	Blank	Neutral	True
221.46	1.45	Control	0.9565	n/a	Yes	2.788	n/a	5.0	GoodResponse	0	0.025	220.485	5	22	Feedback	Neutral	True
222.914	2.788	Control	0.9565	n/a	Yes	2.788	n/a	n/a	GoodResponse	0	0.0	n/a	5	22	ISIslide	Neutral	True
225.723	0.25	Control	0.9167000000000001	0.0	No	2.777	0.023	n/a	NoResponse	0	n/a	n/a	5	23	Cue	Neutral	True
225.974	3.9	Control	0.9167000000000001	0.0	No	2.777	0.001	n/a	NoResponse	0	n/a	n/a	5	23	Fixation	Neutral	True
229.869	0.17	Control	0.9167000000000001	0.004	No	2.777	-0.004	4.0	NoResponse	0	0.237	229.106	5	23	Target	Neutral	True
230.052	0.53	Control	0.9167000000000001	n/a	No	2.777	n/a	n/a	NoResponse	0	n/a	n/a	5	23	Blank	Neutral	True
230.106	0.3	Control	0.9167000000000001	0.004	No	2.777	-0.004	4.0	NoResponse	0	0.237	n/a	5	23	ButtonPress	Neutral	True
230.571	1.45	Control	0.9167000000000001	n/a	No	2.777	n/a	5.0	NoResponse	0	0.035	229.606	5	23	Feedback	Neutral	True
232.025	2.777	Control	0.9167000000000001	n/a	No	2.777	n/a	n/a	NoResponse	0	0.0	n/a	5	23	ISIslide	Neutral	True
234.817	0.25	Win2	0.88	0.0	No	3.133	0.017	n/a	NoResponse	0	n/a	n/a	5	24	Cue	MissedWin	True
235.067	3.95	Win2	0.88	0.001	No	3.133	0.0	n/a	NoResponse	0	n/a	n/a	5	24	Fixation	MissedWin	True
239.013	0.16	Win2	0.88	0.004	No	3.133	-0.004	4.0	NoResponse	0	0.178	238.191	5	24	Target	MissedWin	True
239.18	0.54	Win2	0.88	n/a	No	3.133	n/a	n/a	NoResponse	0	n/a	n/a	5	24	Blank	MissedWin	True
239.191	0.3	Win2	0.88	0.004	No	3.133	-0.004	4.0	NoResponse	0	0.178	n/a	5	24	ButtonPress	MissedWin	True
239.715	1.45	Win2	0.88	n/a	No	3.133	n/a	5.0	NoResponse	0	0.013	238.728	5	24	Feedback	MissedWin	True
241.169	3.133	Win2	0.88	n/a	No	3.133	n/a	n/a	NoResponse	0	0.0	n/a	5	24	ISIslide	MissedWin	True
244.328	0.25	Win2	0.8462000000000001	0.001	No	3.072	0.028	n/a	NoResponse	0	n/a	n/a	5	25	Cue	MissedWin	True
244.579	4.0	Win2	0.8462000000000001	0.0	No	3.072	0.001	n/a	NoResponse	0	n/a	n/a	5	25	Fixation	MissedWin	True
248.574	0.15	Win2	0.8462000000000001	0.004	No	3.072	-0.004	4.0	NoResponse	0	0.167	247.741	5	25	Target	MissedWin	True
248.725	0.55	Win2	0.8462000000000001	n/a	No	3.072	n/a	n/a	NoResponse	0	n/a	n/a	5	25	Blank	MissedWin	True
248.741	0.3	Win2	0.8462000000000001	0.004	No	3.072	-0.004	4.0	NoResponse	0	0.167	n/a	5	25	ButtonPress	MissedWin	True
249.277	1.45	Win2	0.8462000000000001	n/a	No	3.072	n/a	5.0	NoResponse	0	0.012	248.289	5	25	Feedback	MissedWin	True
250.731	3.072	Win2	0.8462000000000001	n/a	No	3.072	n/a	n/a	NoResponse	0	0.0	n/a	5	25	ISIslide	MissedWin	True
253.824	0.25	Win2	0.8148000000000001	0.0	No	2.926	0.024	n/a	NoResponse	0	n/a	n/a	5	26	Cue	MissedWin	True
254.074	3.95	Win2	0.8148000000000001	0.0	No	2.926	0.0	n/a	NoResponse	0	n/a	n/a	5	26	Fixation	MissedWin	True
258.036	0.15	Win2	0.8148000000000001	0.0	No	2.926	0.012	4.0	NoResponse	0	0.217	257.253	5	26	Target	MissedWin	True
258.17	0.55	Win2	0.8148000000000001	n/a	No	2.926	n/a	n/a	NoResponse	0	n/a	n/a	5	26	Blank	MissedWin	True
258.253	0.3	Win2	0.8148000000000001	0.0	No	2.926	0.012	4.0	NoResponse	0	0.217	n/a	5	26	ButtonPress	MissedWin	True
258.721	1.45	Win2	0.8148000000000001	n/a	No	2.926	n/a	5.0	NoResponse	0	0.032	257.753	5	26	Feedback	MissedWin	True
260.176	2.926	Win2	0.8148000000000001	n/a	No	2.926	n/a	n/a	NoResponse	0	0.0	n/a	5	26	ISIslide	MissedWin	True
263.118	0.25	Lose2	0.7857	0.0	No	2.832	0.018	n/a	NoResponse	-1	n/a	n/a	4	27	Cue	Loss	True
263.369	4.05	Lose2	0.7857	0.0	No	2.832	0.001	n/a	NoResponse	-1	n/a	n/a	4	27	Fixation	Loss	True
267.414	0.15	Lose2	0.7857	0.004	No	2.832	-0.004	4.0	NoResponse	-1	0.186	266.6	4	27	Target	Loss	True
267.565	0.55	Lose2	0.7857	n/a	No	2.832	n/a	n/a	NoResponse	-1	n/a	n/a	4	27	Blank	Loss	True
267.6	0.3	Lose2	0.7857	0.004	No	2.832	-0.004	4.0	NoResponse	-1	0.186	n/a	4	27	ButtonPress	Loss	True
268.116	1.45	Lose2	0.7857	n/a	No	2.832	n/a	5.0	NoResponse	-1	0.005	267.121	4	27	Feedback	Loss	True
269.571	2.832	Lose2	0.7857	n/a	No	2.832	n/a	n/a	NoResponse	-1	0.0	n/a	4	27	ISIslide	Loss	True
272.412	0.25	Control	0.7585999999999999	0.001	No	2.838	0.012	n/a	NoResponse	0	n/a	n/a	4	28	Cue	Neutral	True
272.663	4.05	Control	0.7585999999999999	0.0	No	2.838	0.001	4.0	NoResponse	0	3.538	275.201	4	28	Fixation	Neutral	True
276.201	0.3	Control	0.7585999999999999	0.0	No	2.838	0.001	4.0	NoResponse	0	3.538	n/a	4	28	ButtonPress	Neutral	True
276.709	0.15	Control	0.7585999999999999	0.003	No	2.838	-0.003	n/a	NoResponse	0	n/a	n/a	4	28	Target	Neutral	True
276.859	0.55	Control	0.7585999999999999	n/a	No	2.838	n/a	n/a	NoResponse	0	n/a	n/a	4	28	Blank	Neutral	True
277.411	1.45	Control	0.7585999999999999	n/a	No	2.838	n/a	5.0	NoResponse	0	0.024	276.435	4	28	Feedback	Neutral	True
278.865	2.838	Control	0.7585999999999999	n/a	No	2.838	n/a	n/a	NoResponse	0	0.0	n/a	4	28	ISIslide	Neutral	True
281.724	0.25	Lose2	0.7333	0.0	No	2.826	0.024	n/a	NoResponse	-1	n/a	n/a	3	29	Cue	Loss	True
281.974	3.95	Lose2	0.7333	0.0	No	2.826	0.0	n/a	NoResponse	-1	n/a	n/a	3	29	Fixation	Loss	True
285.919	0.15	Lose2	0.7333	0.005	No	2.826	-0.005	4.0	NoResponse	-1	0.229	285.148	3	29	Target	Loss	True
286.07	0.55	Lose2	0.7333	n/a	No	2.826	n/a	n/a	NoResponse	-1	n/a	n/a	3	29	Blank	Loss	True
286.148	0.3	Lose2	0.7333	0.005	No	2.826	-0.005	4.0	NoResponse	-1	0.229	n/a	3	29	ButtonPress	Loss	True
286.622	1.45	Lose2	0.7333	n/a	No	2.826	n/a	5.0	NoResponse	-1	0.033	285.655	3	29	Feedback	Loss	True
288.076	2.826	Lose2	0.7333	n/a	No	2.826	n/a	n/a	NoResponse	-1	0.0	n/a	3	29	ISIslide	Loss	True
290.918	0.25	Win2	0.7097	0.0	No	2.782	0.018	n/a	NoResponse	0	n/a	n/a	3	30	Cue	MissedWin	True
291.169	3.9	Win2	0.7097	0.0	No	2.782	0.001	n/a	NoResponse	0	n/a	n/a	3	30	Fixation	MissedWin	True
295.063	0.15	Win2	0.7097	0.005	No	2.782	-0.005	4.0	NoResponse	0	0.181	294.244	3	30	Target	MissedWin	True
295.214	0.55	Win2	0.7097	n/a	No	2.782	n/a	n/a	NoResponse	0	n/a	n/a	3	30	Blank	MissedWin	True
295.244	0.3	Win2	0.7097	0.005	No	2.782	-0.005	4.0	NoResponse	0	0.181	n/a	3	30	ButtonPress	MissedWin	True
295.766	1.45	Win2	0.7097	n/a	No	2.782	n/a	5.0	NoResponse	0	0.011	294.777	3	30	Feedback	MissedWin	True
297.22	2.782	Win2	0.7097	n/a	No	2.782	n/a	n/a	NoResponse	0	0.0	n/a	3	30	ISIslide	MissedWin	True
300.028	0.25	Lose2	0.6875	0.0	No	2.822	0.028	n/a	NoResponse	-1	n/a	n/a	2	31	Cue	Loss	True
300.279	4.05	Lose2	0.6875	0.0	No	2.822	0.001	n/a	NoResponse	-1	n/a	n/a	2	31	Fixation	Loss	True
304.325	0.15	Lose2	0.6875	0.003	No	2.822	-0.003	4.0	NoResponse	-1	0.167	303.492	2	31	Target	Loss	True
304.475	0.55	Lose2	0.6875	n/a	No	2.822	n/a	n/a	NoResponse	-1	n/a	n/a	2	31	Blank	Loss	True
304.492	0.3	Lose2	0.6875	0.003	No	2.822	-0.003	4.0	NoResponse	-1	0.167	n/a	2	31	ButtonPress	Loss	True
305.027	1.45	Lose2	0.6875	n/a	No	2.822	n/a	5.0	NoResponse	-1	0.018	304.045	2	31	Feedback	Loss	True
306.481	2.822	Lose2	0.6875	n/a	No	2.822	n/a	n/a	NoResponse	-1	0.0	n/a	2	31	ISIslide	Loss	True
309.323	0.25	Lose2	0.6667000000000001	0.0	No	2.627	0.023	n/a	NoResponse	-1	n/a	n/a	1	32	Cue	Loss	True
309.574	4.15	Lose2	0.6667000000000001	0.0	No	2.627	0.001	n/a	NoResponse	-1	n/a	n/a	1	32	Fixation	Loss	True
313.719	0.15	Lose2	0.6667000000000001	0.004	No	2.627	-0.004	4.0	NoResponse	-1	0.217	312.936	1	32	Target	Loss	True
313.87	0.55	Lose2	0.6667000000000001	n/a	No	2.627	n/a	n/a	NoResponse	-1	n/a	n/a	1	32	Blank	Loss	True
313.936	0.3	Lose2	0.6667000000000001	0.004	No	2.627	-0.004	4.0	NoResponse	-1	0.217	n/a	1	32	ButtonPress	Loss	True
314.421	1.45	Lose2	0.6667000000000001	n/a	No	2.627	n/a	5.0	NoResponse	-1	0.039	313.46	1	32	Feedback	Loss	True
315.876	2.627	Lose2	0.6667000000000001	n/a	No	2.627	n/a	n/a	NoResponse	-1	0.0	n/a	1	32	ISIslide	Loss	True
318.517	0.25	Win2	0.6470999999999999	0.0	No	2.683	0.017	n/a	NoResponse	0	n/a	n/a	1	33	Cue	MissedWin	True
318.768	4.0	Win2	0.6470999999999999	0.0	No	2.683	0.001	n/a	NoResponse	0	n/a	n/a	1	33	Fixation	MissedWin	True
322.763	0.15	Win2	0.6470999999999999	0.004	No	2.683	-0.004	4.0	NoResponse	0	0.159	321.922	1	33	Target	MissedWin	True
322.913	0.55	Win2	0.6470999999999999	n/a	No	2.683	n/a	n/a	NoResponse	0	n/a	n/a	1	33	Blank	MissedWin	True
322.922	0.3	Win2	0.6470999999999999	0.004	No	2.683	-0.004	4.0	NoResponse	0	0.159	n/a	1	33	ButtonPress	MissedWin	True
323.465	1.45	Win2	0.6470999999999999	n/a	No	2.683	n/a	5.0	NoResponse	0	0.018	322.483	1	33	Feedback	MissedWin	True
324.919	2.683	Win2	0.6470999999999999	n/a	No	2.683	n/a	n/a	NoResponse	0	0.0	n/a	1	33	ISIslide	MissedWin	True
327.628	0.25	Lose2	0.6286	0.0	No	2.622	0.028	n/a	NoResponse	-1	n/a	n/a	0	34	Cue	Loss	True
327.878	4.05	Lose2	0.6286	0.0	No	2.622	0.0	n/a	NoResponse	-1	n/a	n/a	0	34	Fixation	Loss	True
331.924	0.16	Lose2	0.6286	0.004	No	2.622	-0.004	4.0	NoResponse	-1	0.185	331.109	0	34	Target	Loss	True
332.091	0.54	Lose2	0.6286	n/a	No	2.622	n/a	n/a	NoResponse	-1	n/a	n/a	0	34	Blank	Loss	True
332.109	0.3	Lose2	0.6286	0.004	No	2.622	-0.004	4.0	NoResponse	-1	0.185	n/a	0	34	ButtonPress	Loss	True
332.626	1.45	Lose2	0.6286	n/a	No	2.622	n/a	5.0	NoResponse	-1	0.028	331.654	0	34	Feedback	Loss	True
334.08	2.622	Lose2	0.6286	n/a	No	2.622	n/a	n/a	NoResponse	-1	0.0	n/a	0	34	ISIslide	Loss	True
336.721	0.25	Lose2	0.6389	0.0	Yes	2.679	0.021	n/a	GoodResponse	0	n/a	n/a	0	35	Cue	AvoidedLoss	True
336.972	4.0	Lose2	0.6389	0.0	Yes	2.679	0.001	n/a	GoodResponse	0	n/a	n/a	0	35	Fixation	AvoidedLoss	True
340.967	0.17	Lose2	0.6389	0.004	Yes	2.679	-0.004	4.0	GoodResponse	0	0.163	340.13	0	35	Target	AvoidedLoss	True
341.13	0.3	Lose2	0.6389	0.004	Yes	2.679	-0.004	4.0	GoodResponse	0	0.163	n/a	0	35	ButtonPress	AvoidedLoss	True
341.151	0.53	Lose2	0.6389	n/a	Yes	2.679	n/a	n/a	GoodResponse	0	n/a	n/a	0	35	Blank	AvoidedLoss	True
341.67	1.45	Lose2	0.6389	n/a	Yes	2.679	n/a	5.0	GoodResponse	0	0.009	340.679	0	35	Feedback	AvoidedLoss	True
343.124	2.679	Lose2	0.6389	n/a	Yes	2.679	n/a	n/a	GoodResponse	0	0.0	n/a	0	35	ISIslide	AvoidedLoss	True
345.815	0.25	Control	0.6215999999999999	0.0	No	2.685	0.015	n/a	NoResponse	0	n/a	n/a	0	36	Cue	Neutral	False
346.066	4.0	Control	0.6215999999999999	0.0	No	2.685	0.001	4.0	NoResponse	0	2.931	347.997	0	36	Fixation	Neutral	False
348.997	0.3	Control	0.6215999999999999	0.0	No	2.685	0.001	4.0	NoResponse	0	2.931	n/a	0	36	ButtonPress	Neutral	False
350.061	0.18	Control	0.6215999999999999	0.004	No	2.685	-0.004	4.0	NoResponse	0	0.264	349.325	0	36	Target	Neutral	False
350.245	0.52	Control	0.6215999999999999	n/a	No	2.685	n/a	n/a	NoResponse	0	n/a	n/a	0	36	Blank	Neutral	False
350.325	0.3	Control	0.6215999999999999	0.004	No	2.685	-0.004	4.0	NoResponse	0	0.264	n/a	0	36	ButtonPress	Neutral	False
350.763	1.45	Control	0.6215999999999999	n/a	No	2.685	n/a	5.0	NoResponse	0	0.038	349.801	0	36	Feedback	Neutral	False
352.218	2.685	Control	0.6215999999999999	n/a	No	2.685	n/a	n/a	NoResponse	0	0.0	n/a	0	36	ISIslide	Neutral	False
354.926	0.25	Win2	0.6053000000000001	0.0	No	2.874	0.026	n/a	PrematurePress	0	n/a	n/a	0	37	Cue	MissedWin	True
355.177	4.0	Win2	0.6053000000000001	0.0	No	2.874	0.001	n/a	PrematurePress	0	n/a	n/a	0	37	Fixation	MissedWin	True
359.172	0.19	Win2	0.6053000000000001	0.004	No	2.874	-0.004	4.0	PrematurePress	0	0.032	358.204	0	37	Target	MissedWin	True
359.204	0.3	Win2	0.6053000000000001	0.004	No	2.874	-0.004	4.0	PrematurePress	0	0.032	n/a	0	37	ButtonPress	MissedWin	True
359.372	0.51	Win2	0.6053000000000001	n/a	No	2.874	n/a	n/a	PrematurePress	0	n/a	n/a	0	37	Blank	MissedWin	True
359.874	1.45	Win2	0.6053000000000001	n/a	No	2.874	n/a	5.0	PrematurePress	0	0.048	358.922	0	37	Feedback	MissedWin	True
361.328	2.874	Win2	0.6053000000000001	n/a	No	2.874	n/a	n/a	PrematurePress	0	0.0	n/a	0	37	ISIslide	MissedWin	True
364.22	0.25	Lose2	0.6154	0.0	Yes	2.83	0.02	n/a	GoodResponse	0	n/a	n/a	0	38	Cue	AvoidedLoss	True
364.471	3.95	Lose2	0.6154	0.0	Yes	2.83	0.001	n/a	GoodResponse	0	n/a	n/a	0	38	Fixation	AvoidedLoss	True
368.416	0.2	Lose2	0.6154	0.004	Yes	2.83	-0.004	4.0	GoodResponse	0	0.154	367.57	0	38	Target	AvoidedLoss	True
368.57	0.3	Lose2	0.6154	0.004	Yes	2.83	-0.004	4.0	GoodResponse	0	0.154	n/a	0	38	ButtonPress	AvoidedLoss	True
368.617	0.5	Lose2	0.6154	n/a	Yes	2.83	n/a	n/a	GoodResponse	0	n/a	n/a	0	38	Blank	AvoidedLoss	True
369.118	1.45	Lose2	0.6154	n/a	Yes	2.83	n/a	5.0	GoodResponse	0	0.023	368.141	0	38	Feedback	AvoidedLoss	True
370.573	2.83	Lose2	0.6154	n/a	Yes	2.83	n/a	n/a	GoodResponse	0	0.0	n/a	0	38	ISIslide	AvoidedLoss	True
373.414	0.25	Win2	0.625	0.0	Yes	2.986	0.014	n/a	GoodResponse	1	n/a	n/a	1	39	Cue	Win	True
373.665	4.1	Win2	0.625	0.0	Yes	2.986	0.001	n/a	GoodResponse	1	n/a	n/a	1	39	Fixation	Win	True
377.761	0.21	Win2	0.625	0.003	Yes	2.986	-0.003	4.0	GoodResponse	1	0.183	376.944	1	39	Target	Win	True
377.944	0.3	Win2	0.625	0.003	Yes	2.986	-0.003	4.0	GoodResponse	1	0.183	n/a	1	39	ButtonPress	Win	True
377.978	0.49	Win2	0.625	n/a	Yes	2.986	n/a	n/a	GoodResponse	1	n/a	n/a	1	39	Blank	Win	True
378.463	1.45	Win2	0.625	n/a	Yes	2.986	n/a	5.0	GoodResponse	1	0.044	377.507	1	39	Feedback	Win	True
379.917	2.986	Win2	0.625	n/a	Yes	2.986	n/a	n/a	GoodResponse	1	0.0	n/a	1	39	ISIslide	Win	True
382.926	0.25	Win2	0.6341	0.0	Yes	2.724	0.026	n/a	GoodResponse	1	n/a	n/a	2	40	Cue	Win	True
383.177	3.95	Win2	0.6341	0.0	Yes	2.724	0.001	n/a	GoodResponse	1	n/a	n/a	2	40	Fixation	Win	True
387.122	0.22	Win2	0.6341	0.004	Yes	2.724	-0.004	4.0	GoodResponse	1	0.182	386.304	2	40	Target	Win	True
387.304	0.3	Win2	0.6341	0.004	Yes	2.724	-0.004	4.0	GoodResponse	1	0.182	n/a	2	40	ButtonPress	Win	True
387.356	0.48	Win2	0.6341	n/a	Yes	2.724	n/a	n/a	GoodResponse	1	n/a	n/a	2	40	Blank	Win	True
387.824	1.45	Win2	0.6341	n/a	Yes	2.724	n/a	5.0	GoodResponse	1	0.049	386.873	2	40	Feedback	Win	True
389.279	2.724	Win2	0.6341	n/a	Yes	2.724	n/a	n/a	GoodResponse	1	0.0	n/a	2	40	ISIslide	Win	True
392.02	0.25	Win2	0.6429	0.0	Yes	2.78	0.02	n/a	GoodResponse	1	n/a	n/a	3	41	Cue	Win	True
392.271	3.9	Win2	0.6429	0.0	Yes	2.78	0.001	n/a	GoodResponse	1	n/a	n/a	3	41	Fixation	Win	True
396.166	0.23	Win2	0.6429	0.004	Yes	2.78	-0.004	4.0	GoodResponse	1	0.219	395.385	3	41	Target	Win	True
396.385	0.3	Win2	0.6429	0.004	Yes	2.78	-0.004	4.0	GoodResponse	1	0.219	n/a	3	41	ButtonPress	Win	True
396.4	0.47	Win2	0.6429	n/a	Yes	2.78	n/a	n/a	GoodResponse	1	n/a	n/a	3	41	Blank	Win	True
396.868	1.45	Win2	0.6429	n/a	Yes	2.78	n/a	5.0	GoodResponse	1	0.03	395.898	3	41	Feedback	Win	True
398.322	2.78	Win2	0.6429	n/a	Yes	2.78	n/a	n/a	GoodResponse	1	0.0	n/a	3	41	ISIslide	Win	True
401.114	0.25	Control	0.6279	0.0	No	2.936	0.014	n/a	NoResponse	0	n/a	n/a	3	42	Cue	Neutral	True
401.365	3.85	Control	0.6279	0.0	No	2.936	0.001	n/a	NoResponse	0	n/a	n/a	3	42	Fixation	Neutral	True
405.209	0.24	Control	0.6279	0.005	No	2.936	-0.005	4.0	NoResponse	0	0.394	404.603	3	42	Target	Neutral	True
405.46	0.46	Control	0.6279	n/a	No	2.936	n/a	n/a	NoResponse	0	n/a	n/a	3	42	Blank	Neutral	True
405.603	0.3	Control	0.6279	0.005	No	2.936	-0.005	4.0	NoResponse	0	0.394	n/a	3	42	ButtonPress	Neutral	True
405.912	1.45	Control	0.6279	n/a	No	2.936	n/a	5.0	NoResponse	0	0.009	404.921	3	42	Feedback	Neutral	True
407.366	2.936	Control	0.6279	n/a	No	2.936	n/a	n/a	NoResponse	0	0.0	n/a	3	42	ISIslide	Neutral	True
410.325	0.25	Win2	0.6364	0.0	Yes	3.175	0.025	n/a	GoodResponse	1	n/a	n/a	4	43	Cue	Win	False
410.576	4.0	Win2	0.6364	0.0	Yes	3.175	0.001	4.0	GoodResponse	1	2.771	412.347	4	43	Fixation	Win	False
413.347	0.3	Win2	0.6364	0.0	Yes	3.175	0.001	4.0	GoodResponse	1	2.771	n/a	4	43	ButtonPress	Win	False
414.571	0.25	Win2	0.6364	0.004	Yes	3.175	-0.004	4.0	GoodResponse	1	0.189	413.76	4	43	Target	Win	False
414.76	0.3	Win2	0.6364	0.004	Yes	3.175	-0.004	4.0	GoodResponse	1	0.189	n/a	4	43	ButtonPress	Win	False
414.822	0.45	Win2	0.6364	n/a	Yes	3.175	n/a	n/a	GoodResponse	1	n/a	n/a	4	43	Blank	Win	False
415.273	1.45	Win2	0.6364	n/a	Yes	3.175	n/a	5.0	GoodResponse	1	0.014	414.287	4	43	Feedback	Win	False
416.727	3.175	Win2	0.6364	n/a	Yes	3.175	n/a	n/a	GoodResponse	1	0.0	n/a	4	43	ISIslide	Win	False
419.92	0.25	Win2	0.6444	0.0	Yes	2.98	0.02	n/a	GoodResponse	1	n/a	n/a	5	44	Cue	Win	False
420.171	4.0	Win2	0.6444	0.0	Yes	2.98	0.001	4.0	GoodResponse	1	1.4	420.571	5	44	Fixation	Win	False
421.571	0.3	Win2	0.6444	0.0	Yes	2.98	0.001	4.0	GoodResponse	1	1.4	n/a	5	44	ButtonPress	Win	False
424.166	0.26	Win2	0.6444	0.004	Yes	2.98	-0.004	4.0	GoodResponse	1	0.153	423.319	5	44	Target	Win	False
424.319	0.3	Win2	0.6444	0.004	Yes	2.98	-0.004	4.0	GoodResponse	1	0.153	n/a	5	44	ButtonPress	Win	False
424.434	0.44	Win2	0.6444	n/a	Yes	2.98	n/a	n/a	GoodResponse	1	n/a	n/a	5	44	Blank	Win	False
424.868	1.45	Win2	0.6444	n/a	Yes	2.98	n/a	5.0	GoodResponse	1	0.029	423.897	5	44	Feedback	Win	False
426.323	2.98	Win2	0.6444	n/a	Yes	2.98	n/a	n/a	GoodResponse	1	0.0	n/a	5	44	ISIslide	Win	False
429.315	0.25	Control	0.6522	0.0	Yes	2.885	0.015	n/a	GoodResponse	0	n/a	n/a	5	45	Cue	Neutral	True
429.566	4.1	Control	0.6522	0.0	Yes	2.885	0.001	n/a	GoodResponse	0	n/a	n/a	5	45	Fixation	Neutral	True
433.661	0.27	Control	0.6522	0.004	Yes	2.885	-0.004	4.0	GoodResponse	0	0.23	432.891	5	45	Target	Neutral	True
433.891	0.3	Control	0.6522	0.004	Yes	2.885	-0.004	4.0	GoodResponse	0	0.23	n/a	5	45	ButtonPress	Neutral	True
433.945	0.43	Control	0.6522	n/a	Yes	2.885	n/a	n/a	GoodResponse	0	n/a	n/a	5	45	Blank	Neutral	True
434.363	1.45	Control	0.6522	n/a	Yes	2.885	n/a	5.0	GoodResponse	0	0.046	433.409	5	45	Feedback	Neutral	True
435.818	2.885	Control	0.6522	n/a	Yes	2.885	n/a	4.0	GoodResponse	0	0.995	n/a	5	45	ISIslide	Neutral	True
438.71	0.25	Lose2	0.6596	0.0	Yes	3.39	0.01	n/a	GoodResponse	0	n/a	n/a	5	46	Cue	AvoidedLoss	False
438.96	4.0	Lose2	0.6596	0.0	Yes	3.39	0.0	2.0	GoodResponse	0	1.269	439.229	5	46	Fixation	AvoidedLoss	False
440.229	0.3	Lose2	0.6596	0.0	Yes	3.39	0.0	2.0	GoodResponse	0	1.269	n/a	5	46	ButtonPress	AvoidedLoss	False
442.956	0.28	Lose2	0.6596	0.004	Yes	3.39	-0.004	2.0	GoodResponse	0	0.125	442.081	5	46	Target	AvoidedLoss	False
443.081	0.3	Lose2	0.6596	0.004	Yes	3.39	-0.004	2.0	GoodResponse	0	0.125	n/a	5	46	ButtonPress	AvoidedLoss	False
443.24	0.42	Lose2	0.6596	n/a	Yes	3.39	n/a	n/a	GoodResponse	0	n/a	n/a	5	46	Blank	AvoidedLoss	False
443.658	1.45	Lose2	0.6596	n/a	Yes	3.39	n/a	5.0	GoodResponse	0	0.019	442.677	5	46	Feedback	AvoidedLoss	False
445.112	3.39	Lose2	0.6596	n/a	Yes	3.39	n/a	n/a	GoodResponse	0	0.0	n/a	5	46	ISIslide	AvoidedLoss	False
448.522	0.25	Lose2	0.6457999999999999	0.0	No	2.678	0.022	n/a	PrematurePress	-1	n/a	n/a	4	47	Cue	Loss	False
448.773	4.0	Lose2	0.6457999999999999	0.0	No	2.678	0.001	2.0	PrematurePress	-1	0.822	448.595	4	47	Fixation	Loss	False
449.595	0.3	Lose2	0.6457999999999999	0.0	No	2.678	0.001	2.0	PrematurePress	-1	0.822	n/a	4	47	ButtonPress	Loss	False
452.768	0.28	Lose2	0.6457999999999999	0.004	No	2.678	-0.004	2.0	PrematurePress	-1	0.066	451.834	4	47	Target	Loss	False
452.834	0.3	Lose2	0.6457999999999999	0.004	No	2.678	-0.004	2.0	PrematurePress	-1	0.066	n/a	4	47	ButtonPress	Loss	False
453.053	0.42	Lose2	0.6457999999999999	n/a	No	2.678	n/a	n/a	PrematurePress	-1	n/a	n/a	4	47	Blank	Loss	False
453.47	1.45	Lose2	0.6457999999999999	n/a	No	2.678	n/a	5.0	PrematurePress	-1	0.012	452.482	4	47	Feedback	Loss	False
454.925	2.678	Lose2	0.6457999999999999	n/a	No	2.678	n/a	n/a	PrematurePress	-1	0.0	n/a	4	47	ISIslide	Loss	False
457.616	0.25	Lose2	0.6531	0.0	Yes	3.034	0.016	n/a	GoodResponse	0	n/a	n/a	4	48	Cue	AvoidedLoss	False
457.867	3.95	Lose2	0.6531	0.0	Yes	3.034	0.001	2.0	GoodResponse	0	0.664	457.531	4	48	Fixation	AvoidedLoss	False
458.531	0.3	Lose2	0.6531	0.0	Yes	3.034	0.001	2.0	GoodResponse	0	0.664	n/a	4	48	ButtonPress	AvoidedLoss	False
461.812	0.29	Lose2	0.6531	0.004	Yes	3.034	-0.004	4.0	GoodResponse	0	0.113	460.925	4	48	Target	AvoidedLoss	False
461.925	0.3	Lose2	0.6531	0.004	Yes	3.034	-0.004	4.0	GoodResponse	0	0.113	n/a	4	48	ButtonPress	AvoidedLoss	False
462.113	0.41	Lose2	0.6531	n/a	Yes	3.034	n/a	n/a	GoodResponse	0	n/a	n/a	4	48	Blank	AvoidedLoss	False
462.514	1.45	Lose2	0.6531	n/a	Yes	3.034	n/a	5.0	GoodResponse	0	0.041	461.555	4	48	Feedback	AvoidedLoss	False
463.969	3.034	Lose2	0.6531	n/a	Yes	3.034	n/a	n/a	GoodResponse	0	0.0	n/a	4	48	ISIslide	AvoidedLoss	False
467.028	0.25	Control	0.64	0.0	No	2.872	0.028	n/a	PrematurePress	0	n/a	n/a	4	49	Cue	Neutral	False
467.278	4.0	Control	0.64	0.0	No	2.872	0.0	2.0	PrematurePress	0	1.432	467.71	4	49	Fixation	Neutral	False
468.71	0.3	Control	0.64	0.0	No	2.872	0.0	2.0	PrematurePress	0	1.432	n/a	4	49	ButtonPress	Neutral	False
471.274	0.3	Control	0.64	0.004	No	2.872	-0.004	2.0	PrematurePress	0	0.023	470.297	4	49	Target	Neutral	False
471.297	0.3	Control	0.64	0.004	No	2.872	-0.004	2.0	PrematurePress	0	0.023	n/a	4	49	ButtonPress	Neutral	False
471.575	0.4	Control	0.64	n/a	No	2.872	n/a	n/a	PrematurePress	0	n/a	n/a	4	49	Blank	Neutral	False
471.976	1.45	Control	0.64	n/a	No	2.872	n/a	5.0	PrematurePress	0	0.043	471.019	4	49	Feedback	Neutral	False
473.43	2.872	Control	0.64	n/a	No	2.872	n/a	n/a	PrematurePress	0	0.0	n/a	4	49	ISIslide	Neutral	False
476.322	0.25	Control	0.6470999999999999	0.0	Yes	2.778	0.022	n/a	GoodResponse	0	n/a	n/a	4	50	Cue	Neutral	True
476.573	4.0	Control	0.6470999999999999	0.0	Yes	2.778	0.001	n/a	GoodResponse	0	n/a	n/a	4	50	Fixation	Neutral	True
480.568	0.31	Control	0.6470999999999999	0.004	Yes	2.778	-0.004	4.0	GoodResponse	0	0.219	479.787	4	50	Target	Neutral	True
480.787	0.3	Control	0.6470999999999999	0.004	Yes	2.778	-0.004	4.0	GoodResponse	0	0.219	n/a	4	50	ButtonPress	Neutral	True
480.886	0.39	Control	0.6470999999999999	n/a	Yes	2.778	n/a	n/a	GoodResponse	0	n/a	n/a	4	50	Blank	Neutral	True
481.27	1.45	Control	0.6470999999999999	n/a	Yes	2.778	n/a	5.0	GoodResponse	0	0.017	480.287	4	50	Feedback	Neutral	True
482.725	2.778	Control	0.6470999999999999	n/a	Yes	2.778	n/a	n/a	GoodResponse	0	0.0	n/a	4	50	ISIslide	Neutral	True
485.516	0.25	Control	0.6537999999999999	0.0	Yes	2.734	0.016	n/a	GoodResponse	0	n/a	n/a	4	51	Cue	Neutral	True
485.767	3.95	Control	0.6537999999999999	0.0	Yes	2.734	0.001	n/a	GoodResponse	0	n/a	n/a	4	51	Fixation	Neutral	True
489.712	0.32	Control	0.6537999999999999	0.004	Yes	2.734	-0.004	4.0	GoodResponse	0	0.241	488.953	4	51	Target	Neutral	True
489.953	0.3	Control	0.6537999999999999	0.004	Yes	2.734	-0.004	4.0	GoodResponse	0	0.241	n/a	4	51	ButtonPress	Neutral	True
490.046	0.38	Control	0.6537999999999999	n/a	Yes	2.734	n/a	n/a	GoodResponse	0	n/a	n/a	4	51	Blank	Neutral	True
490.414	1.45	Control	0.6537999999999999	n/a	Yes	2.734	n/a	5.0	GoodResponse	0	0.043	489.457	4	51	Feedback	Neutral	True
491.869	2.734	Control	0.6537999999999999	n/a	Yes	2.734	n/a	n/a	GoodResponse	0	0.0	n/a	4	51	ISIslide	Neutral	True
494.627	0.25	Control	0.6415000000000001	0.0	No	2.623	0.027	n/a	NoResponse	0	n/a	n/a	4	52	Cue	Neutral	False
494.878	4.05	Control	0.6415000000000001	0.0	No	2.623	0.001	n/a	NoResponse	0	n/a	n/a	4	52	Fixation	Neutral	False
498.923	0.33	Control	0.6415000000000001	0.004	No	2.623	-0.004	n/a	NoResponse	0	n/a	n/a	4	52	Target	Neutral	False
499.257	0.37	Control	0.6415000000000001	n/a	No	2.623	n/a	n/a	NoResponse	0	n/a	n/a	4	52	Blank	Neutral	False
499.625	1.45	Control	0.6415000000000001	n/a	No	2.623	n/a	5.0	NoResponse	0	0.004	498.629	4	52	Feedback	Neutral	False
501.079	2.623	Control	0.6415000000000001	n/a	No	2.623	n/a	n/a	NoResponse	0	0.0	n/a	4	52	ISIslide	Neutral	False
503.721	0.25	Win2	0.6296	0.0	No	2.929	0.021	n/a	NoResponse	0	n/a	n/a	4	53	Cue	MissedWin	False
503.971	4.05	Win2	0.6296	0.001	No	2.929	0.0	n/a	NoResponse	0	n/a	n/a	4	53	Fixation	MissedWin	False
508.017	0.34	Win2	0.6296	0.004	No	2.929	-0.004	n/a	NoResponse	0	n/a	n/a	4	53	Target	MissedWin	False
508.368	0.36	Win2	0.6296	n/a	No	2.929	n/a	n/a	NoResponse	0	n/a	n/a	4	53	Blank	MissedWin	False
508.719	1.45	Win2	0.6296	n/a	No	2.929	n/a	n/a	NoResponse	0	n/a	n/a	4	53	Feedback	MissedWin	False
510.173	2.929	Win2	0.6296	n/a	No	2.929	n/a	n/a	NoResponse	0	0.0	n/a	4	53	ISIslide	MissedWin	False
513.115	0.25	Win2	0.6182	0.001	No	2.735	0.015	n/a	NoResponse	0	n/a	n/a	4	54	Cue	MissedWin	False
513.366	3.95	Win2	0.6182	0.0	No	2.735	0.001	n/a	NoResponse	0	n/a	n/a	4	54	Fixation	MissedWin	False
517.311	0.35	Win2	0.6182	0.004	No	2.735	-0.004	n/a	NoResponse	0	n/a	n/a	4	54	Target	MissedWin	False
517.662	0.35	Win2	0.6182	n/a	No	2.735	n/a	n/a	NoResponse	0	n/a	n/a	4	54	Blank	MissedWin	False
518.013	1.45	Win2	0.6182	n/a	No	2.735	n/a	n/a	NoResponse	0	n/a	n/a	4	54	Feedback	MissedWin	False
519.468	2.735	Win2	0.6182	n/a	No	2.735	n/a	n/a	NoResponse	0	0.0	n/a	4	54	ISIslide	MissedWin	False
522.226	0.25	Control	0.6071	0.0	No	3.024	0.026	n/a	NoResponse	0	n/a	n/a	4	55	Cue	Neutral	False
522.477	3.95	Control	0.6071	0.0	No	3.024	0.001	n/a	NoResponse	0	n/a	n/a	4	55	Fixation	Neutral	False
526.422	0.36	Control	0.6071	0.004	No	3.024	-0.004	n/a	NoResponse	0	n/a	n/a	4	55	Target	Neutral	False
526.79	0.34	Control	0.6071	n/a	No	3.024	n/a	n/a	NoResponse	0	n/a	n/a	4	55	Blank	Neutral	False
527.124	1.45	Control	0.6071	n/a	No	3.024	n/a	n/a	NoResponse	0	n/a	n/a	4	55	Feedback	Neutral	False
528.579	3.024	Control	0.6071	n/a	No	3.024	n/a	n/a	NoResponse	0	0.0	n/a	4	55	ISIslide	Neutral	False
531.621	0.25	Control	0.5965	0.0	No	2.829	0.021	n/a	NoResponse	0	n/a	n/a	4	56	Cue	Neutral	False
531.872	3.95	Control	0.5965	0.0	No	2.829	0.001	n/a	NoResponse	0	n/a	n/a	4	56	Fixation	Neutral	False
535.817	0.37	Control	0.5965	0.004	No	2.829	-0.004	n/a	NoResponse	0	n/a	n/a	4	56	Target	Neutral	False
536.201	0.33	Control	0.5965	n/a	No	2.829	n/a	n/a	NoResponse	0	n/a	n/a	4	56	Blank	Neutral	False
536.519	1.45	Control	0.5965	n/a	No	2.829	n/a	n/a	NoResponse	0	n/a	n/a	4	56	Feedback	Neutral	False
537.973	2.829	Control	0.5965	n/a	No	2.829	n/a	n/a	NoResponse	0	0.0	n/a	4	56	ISIslide	Neutral	False
540.815	0.25	Control	0.5861999999999999	0.0	No	3.485	0.015	n/a	NoResponse	0	n/a	n/a	4	57	Cue	Neutral	False
541.066	4.0	Control	0.5861999999999999	0.0	No	3.485	0.001	n/a	NoResponse	0	n/a	n/a	4	57	Fixation	Neutral	False
545.061	0.38	Control	0.5861999999999999	0.004	No	3.485	-0.004	n/a	NoResponse	0	n/a	n/a	4	57	Target	Neutral	False
545.445	0.32	Control	0.5861999999999999	n/a	No	3.485	n/a	n/a	NoResponse	0	n/a	n/a	4	57	Blank	Neutral	False
545.763	1.45	Control	0.5861999999999999	n/a	No	3.485	n/a	n/a	NoResponse	0	n/a	n/a	4	57	Feedback	Neutral	False
547.217	3.485	Control	0.5861999999999999	n/a	No	3.485	n/a	n/a	NoResponse	0	0.0	n/a	4	57	ISIslide	Neutral	False
550.728	0.25	Win2	0.5763	0.0	No	2.722	0.028	n/a	NoResponse	0	n/a	n/a	4	58	Cue	MissedWin	False
550.979	4.05	Win2	0.5763	0.0	No	2.722	0.001	n/a	NoResponse	0	n/a	n/a	4	58	Fixation	MissedWin	False
555.024	0.39	Win2	0.5763	0.004	No	2.722	-0.004	n/a	NoResponse	0	n/a	n/a	4	58	Target	MissedWin	False
555.425	0.31	Win2	0.5763	n/a	No	2.722	n/a	n/a	NoResponse	0	n/a	n/a	4	58	Blank	MissedWin	False
555.726	1.45	Win2	0.5763	n/a	No	2.722	n/a	n/a	NoResponse	0	n/a	n/a	4	58	Feedback	MissedWin	False
557.181	2.722	Win2	0.5763	n/a	No	2.722	n/a	n/a	NoResponse	0	0.0	n/a	4	58	ISIslide	MissedWin	False
559.922	0.25	Lose2	0.5667	0.0	No	2.678	0.022	n/a	NoResponse	-1	n/a	n/a	3	59	Cue	Loss	False
560.173	4.0	Lose2	0.5667	0.0	No	2.678	0.001	n/a	NoResponse	-1	n/a	n/a	3	59	Fixation	Loss	False
564.168	0.4	Lose2	0.5667	0.004	No	2.678	-0.004	n/a	NoResponse	-1	n/a	n/a	3	59	Target	Loss	False
564.569	0.3	Lose2	0.5667	n/a	No	2.678	n/a	n/a	NoResponse	-1	n/a	n/a	3	59	Blank	Loss	False
564.87	1.45	Lose2	0.5667	n/a	No	2.678	n/a	n/a	NoResponse	-1	n/a	n/a	3	59	Feedback	Loss	False
566.325	2.678	Lose2	0.5667	n/a	No	2.678	n/a	n/a	NoResponse	-1	0.0	n/a	3	59	ISIslide	Loss	False
569.016	0.25	Control	0.5574	0.0	No	2.684	0.016	n/a	NoResponse	0	n/a	n/a	3	60	Cue	Neutral	False
569.267	4.0	Control	0.5574	0.0	No	2.684	0.001	n/a	NoResponse	0	n/a	n/a	3	60	Fixation	Neutral	False
573.262	0.41	Control	0.5574	0.004	No	2.684	-0.004	n/a	NoResponse	0	n/a	n/a	3	60	Target	Neutral	False
573.68	0.29	Control	0.5574	n/a	No	2.684	n/a	n/a	NoResponse	0	n/a	n/a	3	60	Blank	Neutral	False
573.964	1.45	Control	0.5574	n/a	No	2.684	n/a	n/a	NoResponse	0	n/a	n/a	3	60	Feedback	Neutral	False
575.418	2.684	Control	0.5574	n/a	No	2.684	n/a	n/a	NoResponse	0	0.0	n/a	3	60	ISIslide	Neutral	False
