onset	duration	cue_type	current_mean_accuracy	duration_error	is_hit	isi_adjusted	onset_delay	response	response_type	reward	rt	rt_time	total_reward	trial_number	trial_phase	trial_type	one_press
11.098	0.25	Control	1.0	0.0	Yes	2.952	-0.002	n/a	GoodResponse	0	n/a	n/a	0	0	Cue	Neutral	True
11.349	3.85	Control	1.0	0.0	Yes	2.952	0.001	n/a	GoodResponse	0	n/a	n/a	0	0	Fixation	Neutral	True
15.194	0.4	Control	1.0	0.004	Yes	2.952	-0.004	4.0	GoodResponse	0	0.191	14.385	0	0	Target	Neutral	True
15.385	0.3	Control	1.0	0.004	Yes	2.952	-0.004	4.0	GoodResponse	0	0.191	n/a	0	0	ButtonPress	Neutral	True
15.595	0.3	Control	1.0	n/a	Yes	2.952	n/a	n/a	GoodResponse	0	n/a	n/a	0	0	Blank	Neutral	True
15.896	1.45	Control	1.0	n/a	Yes	2.952	n/a	5.0	GoodResponse	0	0.03	14.926	0	0	Feedback	Neutral	True
17.35	2.952	Control	1.0	n/a	Yes	2.952	n/a	n/a	GoodResponse	0	0.0	n/a	0	0	ISIslide	Neutral	True
20.326	0.25	Lose2	1.0	0.0	Yes	2.774	0.026	n/a	GoodResponse	0	n/a	n/a	0	1	Cue	AvoidedLoss	True
20.577	4.0	Lose2	1.0	0.0	Yes	2.774	0.001	n/a	GoodResponse	0	n/a	n/a	0	1	Fixation	AvoidedLoss	True
24.572	0.39	Lose2	1.0	0.004	Yes	2.774	-0.004	4.0	GoodResponse	0	0.19	23.762	0	1	Target	AvoidedLoss	True
24.762	0.3	Lose2	1.0	0.004	Yes	2.774	-0.004	4.0	GoodResponse	0	0.19	n/a	0	1	ButtonPress	AvoidedLoss	True
24.973	0.31	Lose2	1.0	n/a	Yes	2.774	n/a	n/a	GoodResponse	0	n/a	n/a	0	1	Blank	AvoidedLoss	True
25.274	1.45	Lose2	1.0	n/a	Yes	2.774	n/a	5.0	GoodResponse	0	0.017	24.291	0	1	Feedback	AvoidedLoss	True
26.728	2.774	Lose2	1.0	n/a	Yes	2.774	n/a	n/a	GoodResponse	0	0.0	n/a	0	1	ISIslide	AvoidedLoss	True
29.52	0.25	Control	1.0	0.0	Yes	2.58	0.02	n/a	GoodResponse	0	n/a	n/a	0	2	Cue	Neutral	True
29.771	4.1	Control	1.0	0.0	Yes	2.58	0.001	n/a	GoodResponse	0	n/a	n/a	0	2	Fixation	Neutral	True
33.866	0.38	Control	1.0	0.004	Yes	2.58	-0.004	4.0	GoodResponse	0	0.182	33.048	0	2	Target	Neutral	True
34.048	0.3	Control	1.0	0.004	Yes	2.58	-0.004	4.0	GoodResponse	0	0.182	n/a	0	2	ButtonPress	Neutral	True
34.251	0.32	Control	1.0	n/a	Yes	2.58	n/a	n/a	GoodResponse	0	n/a	n/a	0	2	Blank	Neutral	True
34.568	1.45	Control	1.0	n/a	Yes	2.58	n/a	5.0	GoodResponse	0	0.04	33.608	0	2	Feedback	Neutral	True
36.023	2.58	Control	1.0	n/a	Yes	2.58	n/a	n/a	GoodResponse	0	0.0	n/a	0	2	ISIslide	Neutral	True
38.614	0.25	Win2	1.0	0.0	Yes	2.836	0.014	n/a	GoodResponse	1	n/a	n/a	1	3	Cue	Win	True
38.865	3.95	Win2	1.0	0.0	Yes	2.836	0.001	n/a	GoodResponse	1	n/a	n/a	1	3	Fixation	Win	True
42.81	0.37	Win2	1.0	0.004	Yes	2.836	-0.004	4.0	GoodResponse	1	0.168	41.978	1	3	Target	Win	True
42.978	0.3	Win2	1.0	0.004	Yes	2.836	-0.004	4.0	GoodResponse	1	0.168	n/a	1	3	ButtonPress	Win	True
43.194	0.33	Win2	1.0	n/a	Yes	2.836	n/a	n/a	GoodResponse	1	n/a	n/a	1	3	Blank	Win	True
43.512	1.45	Win2	1.0	n/a	Yes	2.836	n/a	5.0	GoodResponse	1	0.023	42.535	1	3	Feedback	Win	True
44.966	2.836	Win2	1.0	n/a	Yes	2.836	n/a	n/a	GoodResponse	1	0.0	n/a	1	3	ISIslide	Win	True
47.825	0.25	Win2	1.0	0.0	Yes	3.275	0.025	n/a	GoodResponse	1	n/a	n/a	2	4	Cue	Win	True
48.075	4.0	Win2	1.0	0.001	Yes	3.275	0.0	n/a	GoodResponse	1	n/a	n/a	2	4	Fixation	Win	True
52.071	0.36	Win2	1.0	0.004	Yes	3.275	-0.004	4.0	GoodResponse	1	0.191	51.262	2	4	Target	Win	True
52.262	0.3	Win2	1.0	0.004	Yes	3.275	-0.004	4.0	GoodResponse	1	0.191	n/a	2	4	ButtonPress	Win	True
52.439	0.34	Win2	1.0	n/a	Yes	3.275	n/a	n/a	GoodResponse	1	n/a	n/a	2	4	Blank	Win	True
52.773	1.45	Win2	1.0	n/a	Yes	3.275	n/a	5.0	GoodResponse	1	0.03	51.803	2	4	Feedback	Win	True
54.227	3.275	Win2	1.0	n/a	Yes	3.275	n/a	n/a	GoodResponse	1	0.0	n/a	2	4	ISIslide	Win	True
57.52	0.25	Win2	1.0	0.0	Yes	2.78	0.02	n/a	GoodResponse	1	n/a	n/a	3	5	Cue	Win	True
57.771	4.0	Win2	1.0	0.0	Yes	2.78	0.001	n/a	GoodResponse	1	n/a	n/a	3	5	Fixation	Win	True
61.766	0.35	Win2	1.0	0.004	Yes	2.78	-0.004	4.0	GoodResponse	1	0.217	60.983	3	5	Target	Win	True
61.983	0.3	Win2	1.0	0.004	Yes	2.78	-0.004	4.0	GoodResponse	1	0.217	n/a	3	5	ButtonPress	Win	True
62.117	0.35	Win2	1.0	n/a	Yes	2.78	n/a	n/a	GoodResponse	1	n/a	n/a	3	5	Blank	Win	True
62.469	1.45	Win2	1.0	n/a	Yes	2.78	n/a	5.0	GoodResponse	1	0.042	61.511	3	5	Feedback	Win	True
63.923	2.78	Win2	1.0	n/a	Yes	2.78	n/a	n/a	GoodResponse	1	0.0	n/a	3	5	ISIslide	Win	True
66.715	0.25	Lose2	1.0	0.0	Yes	2.735	0.015	n/a	GoodResponse	0	n/a	n/a	3	6	Cue	AvoidedLoss	True
66.965	3.95	Lose2	1.0	0.0	Yes	2.735	0.0	n/a	GoodResponse	0	n/a	n/a	3	6	Fixation	AvoidedLoss	True
70.927	0.34	Lose2	1.0	0.0	Yes	2.735	0.012	4.0	GoodResponse	0	0.201	70.128	3	6	Target	AvoidedLoss	True
71.128	0.3	Lose2	1.0	0.0	Yes	2.735	0.012	4.0	GoodResponse	0	0.201	n/a	3	6	ButtonPress	AvoidedLoss	True
71.261	0.36	Lose2	1.0	n/a	Yes	2.735	n/a	n/a	GoodResponse	0	n/a	n/a	3	6	Blank	AvoidedLoss	True
71.613	1.45	Lose2	1.0	n/a	Yes	2.735	n/a	5.0	GoodResponse	0	0.019	70.632	3	6	Feedback	AvoidedLoss	True
73.067	2.735	Lose2	1.0	n/a	Yes	2.735	n/a	n/a	GoodResponse	0	0.0	n/a	3	6	ISIslide	AvoidedLoss	True
75.825	0.25	Lose2	1.0	0.0	Yes	4.025	0.025	n/a	GoodResponse	0	n/a	n/a	3	7	Cue	AvoidedLoss	True
76.076	4.05	Lose2	1.0	0.0	Yes	4.025	0.001	n/a	GoodResponse	0	n/a	n/a	3	7	Fixation	AvoidedLoss	True
80.121	0.33	Lose2	1.0	0.004	Yes	4.025	-0.004	4.0	GoodResponse	0	0.188	79.309	3	7	Target	AvoidedLoss	True
80.309	0.3	Lose2	1.0	0.004	Yes	4.025	-0.004	4.0	GoodResponse	0	0.188	n/a	3	7	ButtonPress	AvoidedLoss	True
80.456	0.37	Lose2	1.0	n/a	Yes	4.025	n/a	n/a	GoodResponse	0	n/a	n/a	3	7	Blank	AvoidedLoss	True
80.823	1.45	Lose2	1.0	n/a	Yes	4.025	n/a	5.0	GoodResponse	0	0.029	79.852	3	7	Feedback	AvoidedLoss	True
82.278	4.025	Lose2	1.0	n/a	Yes	4.025	n/a	n/a	GoodResponse	0	0.0	n/a	3	7	ISIslide	AvoidedLoss	True
86.323	0.25	Lose2	1.0	0.0	Yes	3.027	0.023	n/a	GoodResponse	0	n/a	n/a	3	8	Cue	AvoidedLoss	True
86.574	3.95	Lose2	1.0	0.0	Yes	3.027	0.001	n/a	GoodResponse	0	n/a	n/a	3	8	Fixation	AvoidedLoss	True
90.519	0.32	Lose2	1.0	0.004	Yes	3.027	-0.004	4.0	GoodResponse	0	0.183	89.702	3	8	Target	AvoidedLoss	True
90.702	0.3	Lose2	1.0	0.004	Yes	3.027	-0.004	4.0	GoodResponse	0	0.183	n/a	3	8	ButtonPress	AvoidedLoss	True
90.853	0.38	Lose2	1.0	n/a	Yes	3.027	n/a	n/a	GoodResponse	0	n/a	n/a	3	8	Blank	AvoidedLoss	True
91.221	1.45	Lose2	1.0	n/a	Yes	3.027	n/a	5.0	GoodResponse	0	0.021	90.242	3	8	Feedback	AvoidedLoss	True
92.675	3.027	Lose2	1.0	n/a	Yes	3.027	n/a	n/a	GoodResponse	0	0.0	n/a	3	8	ISIslide	AvoidedLoss	True
95.718	0.25	Lose2	1.0	0.0	Yes	3.132	0.018	n/a	GoodResponse	0	n/a	n/a	3	9	Cue	AvoidedLoss	True
95.969	3.95	Lose2	1.0	0.0	Yes	3.132	0.001	n/a	GoodResponse	0	n/a	n/a	3	9	Fixation	AvoidedLoss	True
99.914	0.31	Lose2	1.0	0.004	Yes	3.132	-0.004	4.0	GoodResponse	0	0.196	99.11	3	9	Target	AvoidedLoss	True
100.11	0.3	Lose2	1.0	0.004	Yes	3.132	-0.004	4.0	GoodResponse	0	0.196	n/a	3	9	ButtonPress	AvoidedLoss	True
100.231	0.39	Lose2	1.0	n/a	Yes	3.132	n/a	n/a	GoodResponse	0	n/a	n/a	3	9	Blank	AvoidedLoss	True
100.616	1.45	Lose2	1.0	n/a	Yes	3.132	n/a	5.0	GoodResponse	0	0.041	99.657	3	9	Feedback	AvoidedLoss	True
102.07	3.132	Lose2	1.0	n/a	Yes	3.132	n/a	n/a	GoodResponse	0	0.0	n/a	3	9	ISIslide	AvoidedLoss	True
105.213	0.25	Control	1.0	0.0	Yes	3.287	0.013	n/a	GoodResponse	0	n/a	n/a	3	10	Cue	Neutral	True
105.464	4.0	Control	1.0	0.0	Yes	3.287	0.001	n/a	GoodResponse	0	n/a	n/a	3	10	Fixation	Neutral	True
109.459	0.3	Control	1.0	0.004	Yes	3.287	-0.004	4.0	GoodResponse	0	0.182	108.641	3	10	Target	Neutral	True
109.641	0.3	Control	1.0	0.004	Yes	3.287	-0.004	4.0	GoodResponse	0	0.182	n/a	3	10	ButtonPress	Neutral	True
109.76	0.4	Control	1.0	n/a	Yes	3.287	n/a	n/a	GoodResponse	0	n/a	n/a	3	10	Blank	Neutral	True
110.161	1.45	Control	1.0	n/a	Yes	3.287	n/a	5.0	GoodResponse	0	0.007	109.168	3	10	Feedback	Neutral	True
111.615	3.287	Control	1.0	n/a	Yes	3.287	n/a	n/a	GoodResponse	0	0.0	n/a	3	10	ISIslide	Neutral	True
114.925	0.25	Lose2	1.0	0.0	Yes	2.725	0.025	n/a	GoodResponse	0	n/a	n/a	3	11	Cue	AvoidedLoss	True
115.176	4.05	Lose2	1.0	0.0	Yes	2.725	0.001	n/a	GoodResponse	0	n/a	n/a	3	11	Fixation	AvoidedLoss	True
119.222	0.29	Lose2	1.0	0.003	Yes	2.725	-0.003	4.0	GoodResponse	0	0.159	118.381	3	11	Target	AvoidedLoss	True
119.381	0.3	Lose2	1.0	0.003	Yes	2.725	-0.003	4.0	GoodResponse	0	0.159	n/a	3	11	ButtonPress	AvoidedLoss	True
119.522	0.41	Lose2	1.0	n/a	Yes	2.725	n/a	n/a	GoodResponse	0	n/a	n/a	3	11	Blank	AvoidedLoss	True
119.924	1.45	Lose2	1.0	n/a	Yes	2.725	n/a	5.0	GoodResponse	0	0.0	118.924	3	11	Feedback	AvoidedLoss	True
121.378	2.725	Lose2	1.0	n/a	Yes	2.725	n/a	n/a	GoodResponse	0	0.0	n/a	3	11	ISIslide	AvoidedLoss	True
124.119	0.25	Control	1.0	0.001	Yes	2.981	0.019	n/a	GoodResponse	0	n/a	n/a	3	12	Cue	Neutral	True
124.37	3.9	Control	1.0	0.0	Yes	2.981	0.001	n/a	GoodResponse	0	n/a	n/a	3	12	Fixation	Neutral	True
128.265	0.28	Control	1.0	0.004	Yes	2.981	-0.004	4.0	GoodResponse	0	0.217	127.482	3	12	Target	Neutral	True
128.482	0.3	Control	1.0	0.004	Yes	2.981	-0.004	4.0	GoodResponse	0	0.217	n/a	3	12	ButtonPress	Neutral	True
128.549	0.42	Control	1.0	n/a	Yes	2.981	n/a	n/a	GoodResponse	0	n/a	n/a	3	12	Blank	Neutral	True
128.967	1.45	Control	1.0	n/a	Yes	2.981	n/a	5.0	GoodResponse	0	0.03	127.997	3	12	Feedback	Neutral	True
130.422	2.981	Control	1.0	n/a	Yes	2.981	n/a	n/a	GoodResponse	0	0.0	n/a	3	12	ISIslide	Neutral	True
133.414	0.25	Control	1.0	0.0	Yes	2.786	0.014	n/a	GoodResponse	0	n/a	n/a	3	13	Cue	Neutral	True
133.665	4.0	Control	1.0	0.0	Yes	2.786	0.001	n/a	GoodResponse	0	n/a	n/a	3	13	Fixation	Neutral	True
137.66	0.27	Control	1.0	0.004	Yes	2.786	-0.004	4.0	GoodResponse	0	0.171	136.831	3	13	Target	Neutral	True
137.831	0.3	Control	1.0	0.004	Yes	2.786	-0.004	4.0	GoodResponse	0	0.171	n/a	3	13	ButtonPress	Neutral	True
137.944	0.43	Control	1.0	n/a	Yes	2.786	n/a	n/a	GoodResponse	0	n/a	n/a	3	13	Blank	Neutral	True
138.362	1.45	Control	1.0	n/a	Yes	2.786	n/a	5.0	GoodResponse	0	0.001	137.363	3	13	Feedback	Neutral	True
139.816	2.786	Control	1.0	n/a	Yes	2.786	n/a	n/a	GoodResponse	0	0.0	n/a	3	13	ISIslide	Neutral	True
142.625	0.25	Win2	1.0	0.0	Yes	2.675	0.025	n/a	GoodResponse	1	n/a	n/a	4	14	Cue	Win	True
142.876	4.1	Win2	1.0	0.0	Yes	2.675	0.001	n/a	GoodResponse	1	n/a	n/a	4	14	Fixation	Win	True
146.971	0.26	Win2	1.0	0.004	Yes	2.675	-0.004	4.0	GoodResponse	1	0.159	146.13	4	14	Target	Win	True
147.13	0.3	Win2	1.0	0.004	Yes	2.675	-0.004	4.0	GoodResponse	1	0.159	n/a	4	14	ButtonPress	Win	True
147.239	0.44	Win2	1.0	n/a	Yes	2.675	n/a	n/a	GoodResponse	1	n/a	n/a	4	14	Blank	Win	True
147.673	1.45	Win2	1.0	n/a	Yes	2.675	n/a	5.0	GoodResponse	1	0.008	146.681	4	14	Feedback	Win	True
149.128	2.675	Win2	1.0	n/a	Yes	2.675	n/a	n/a	GoodResponse	1	0.0	n/a	4	14	ISIslide	Win	True
151.819	0.25	Control	1.0	0.0	Yes	2.981	0.019	n/a	GoodResponse	0	n/a	n/a	4	15	Cue	Neutral	True
152.07	4.0	Control	1.0	0.0	Yes	2.981	0.001	n/a	GoodResponse	0	n/a	n/a	4	15	Fixation	Neutral	True
156.065	0.25	Control	1.0	0.004	Yes	2.981	-0.004	4.0	GoodResponse	0	0.182	155.247	4	15	Target	Neutral	True
156.247	0.3	Control	1.0	0.004	Yes	2.981	-0.004	4.0	GoodResponse	0	0.182	n/a	4	15	ButtonPress	Neutral	True
156.316	0.45	Control	1.0	n/a	Yes	2.981	n/a	n/a	GoodResponse	0	n/a	n/a	4	15	Blank	Neutral	True
156.767	1.45	Control	1.0	n/a	Yes	2.981	n/a	5.0	GoodResponse	0	0.035	155.802	4	15	Feedback	Neutral	True
158.221	2.981	Control	1.0	n/a	Yes	2.981	n/a	n/a	GoodResponse	0	0.0	n/a	4	15	ISIslide	Neutral	True
161.214	0.25	Win2	1.0	0.0	Yes	2.886	0.014	n/a	GoodResponse	1	n/a	n/a	5	16	Cue	Win	True
161.464	4.0	Win2	1.0	0.001	Yes	2.886	0.0	n/a	GoodResponse	1	n/a	n/a	5	16	Fixation	Win	True
165.46	0.24	Win2	1.0	0.004	Yes	2.886	-0.004	4.0	GoodResponse	1	0.172	164.632	5	16	Target	Win	True
165.632	0.3	Win2	1.0	0.004	Yes	2.886	-0.004	4.0	GoodResponse	1	0.172	n/a	5	16	ButtonPress	Win	True
165.711	0.46	Win2	1.0	n/a	Yes	2.886	n/a	n/a	GoodResponse	1	n/a	n/a	5	16	Blank	Win	True
166.162	1.45	Win2	1.0	n/a	Yes	2.886	n/a	5.0	GoodResponse	1	0.006	165.168	5	16	Feedback	Win	True
167.616	2.886	Win2	1.0	n/a	Yes	2.886	n/a	n/a	GoodResponse	1	0.0	n/a	5	16	ISIslide	Win	True
170.525	0.25	Lose2	1.0	0.0	Yes	2.725	0.025	n/a	GoodResponse	0	n/a	n/a	5	17	Cue	AvoidedLoss	True
170.776	3.95	Lose2	1.0	0.0	Yes	2.725	0.001	n/a	GoodResponse	0	n/a	n/a	5	17	Fixation	AvoidedLoss	True
174.721	0.23	Lose2	1.0	0.004	Yes	2.725	-0.004	4.0	GoodResponse	0	0.199	173.92	5	17	Target	AvoidedLoss	True
174.92	0.3	Lose2	1.0	0.004	Yes	2.725	-0.004	4.0	GoodResponse	0	0.199	n/a	5	17	ButtonPress	AvoidedLoss	True
174.955	0.47	Lose2	1.0	n/a	Yes	2.725	n/a	n/a	GoodResponse	0	n/a	n/a	5	17	Blank	AvoidedLoss	True
175.423	1.45	Lose2	1.0	n/a	Yes	2.725	n/a	5.0	GoodResponse	0	0.013	174.436	5	17	Feedback	AvoidedLoss	True
176.877	2.725	Lose2	1.0	n/a	Yes	2.725	n/a	n/a	GoodResponse	0	0.0	n/a	5	17	ISIslide	AvoidedLoss	True
179.619	0.25	Lose2	1.0	0.0	Yes	2.731	0.019	n/a	GoodResponse	0	n/a	n/a	5	18	Cue	AvoidedLoss	True
179.87	4.05	Lose2	1.0	0.0	Yes	2.731	0.001	n/a	GoodResponse	0	n/a	n/a	5	18	Fixation	AvoidedLoss	True
183.915	0.22	Lose2	1.0	0.004	Yes	2.731	-0.004	4.0	GoodResponse	0	0.19	183.105	5	18	Target	AvoidedLoss	True
184.105	0.3	Lose2	1.0	0.004	Yes	2.731	-0.004	4.0	GoodResponse	0	0.19	n/a	5	18	ButtonPress	AvoidedLoss	True
184.149	0.48	Lose2	1.0	n/a	Yes	2.731	n/a	n/a	GoodResponse	0	n/a	n/a	5	18	Blank	AvoidedLoss	True
184.617	1.45	Lose2	1.0	n/a	Yes	2.731	n/a	5.0	GoodResponse	0	0.039	183.656	5	18	Feedback	AvoidedLoss	True
186.071	2.731	Lose2	1.0	n/a	Yes	2.731	n/a	n/a	GoodResponse	0	0.0	n/a	5	18	ISIslide	AvoidedLoss	True
188.813	0.25	Control	1.0	0.0	Yes	2.937	0.013	n/a	GoodResponse	0	n/a	n/a	5	19	Cue	Neutral	True
189.064	3.95	Control	1.0	0.0	Yes	2.937	0.001	n/a	GoodResponse	0	n/a	n/a	5	19	Fixation	Neutral	True
193.009	0.21	Control	1.0	0.004	Yes	2.937	-0.004	4.0	GoodResponse	0	0.172	192.181	5	19	Target	Neutral	True
193.181	0.3	Control	1.0	0.004	Yes	2.937	-0.004	4.0	GoodResponse	0	0.172	n/a	5	19	ButtonPress	Neutral	True
193.226	0.49	Control	1.0	n/a	Yes	2.937	n/a	n/a	GoodResponse	0	n/a	n/a	5	19	Blank	Neutral	True
193.711	1.45	Control	1.0	n/a	Yes	2.937	n/a	5.0	GoodResponse	0	0.018	192.729	5	19	Feedback	Neutral	True
195.165	2.937	Control	1.0	n/a	Yes	2.937	n/a	n/a	GoodResponse	0	0.0	n/a	5	19	ISIslide	Neutral	True
198.124	0.25	Control	1.0	0.0	Yes	2.626	0.024	n/a	GoodResponse	0	n/a	n/a	5	20	Cue	Neutral	True
198.375	4.05	Control	1.0	0.0	Yes	2.626	0.001	n/a	GoodResponse	0	n/a	n/a	5	20	Fixation	Neutral	True
202.42	0.2	Control	1.0	0.004	Yes	2.626	-0.004	4.0	GoodResponse	0	0.191	201.611	5	20	Target	Neutral	True
202.611	0.3	Control	1.0	0.004	Yes	2.626	-0.004	4.0	GoodResponse	0	0.191	n/a	5	20	ButtonPress	Neutral	True
202.621	0.5	Control	1.0	n/a	Yes	2.626	n/a	n/a	GoodResponse	0	n/a	n/a	5	20	Blank	Neutral	True
203.122	1.45	Control	1.0	n/a	Yes	2.626	n/a	5.0	GoodResponse	0	0.021	202.143	5	20	Feedback	Neutral	True
204.577	2.626	Control	1.0	n/a	Yes	2.626	n/a	n/a	GoodResponse	0	0.0	n/a	5	20	ISIslide	Neutral	True
207.218	0.25	Control	1.0	0.0	Yes	2.782	0.018	n/a	GoodResponse	0	n/a	n/a	5	21	Cue	Neutral	True
207.469	4.1	Control	1.0	0.0	Yes	2.782	0.001	n/a	GoodResponse	0	n/a	n/a	5	21	Fixation	Neutral	True
211.564	0.19	Control	1.0	0.004	Yes	2.782	-0.004	4.0	GoodResponse	0	0.185	210.749	5	21	Target	Neutral	True
211.749	0.3	Control	1.0	0.004	Yes	2.782	-0.004	4.0	GoodResponse	0	0.185	n/a	5	21	ButtonPress	Neutral	True
211.765	0.51	Control	1.0	n/a	Yes	2.782	n/a	n/a	GoodResponse	0	n/a	n/a	5	21	Blank	Neutral	True
212.266	1.45	Control	1.0	n/a	Yes	2.782	n/a	5.0	GoodResponse	0	0.047	211.313	5	21	Feedback	Neutral	True
213.721	2.782	Control	1.0	n/a	Yes	2.782	n/a	n/a	GoodResponse	0	0.0	n/a	5	21	ISIslide	Neutral	True
216.512	0.25	Control	0.9565	0.001	No	2.788	0.012	n/a	NoResponse	0	n/a	n/a	5	22	Cue	Neutral	True
216.763	4.0	Control	0.9565	0.0	No	2.788	0.001	n/a	NoResponse	0	n/a	n/a	5	22	Fixation	Neutral	True
220.758	0.18	Control	0.9565	0.004	No	2.788	-0.004	4.0	NoResponse	0	0.203	219.961	5	22	Target	Neutral	True
220.942	0.52	Control	0.9565	n/a	No	2.788	n/a	n/a	NoResponse	0	n/a	n/a	5	22	Blank	Neutral	True
220.961	0.3	Control	0.9565	0.004	No	2.788	-0.004	4.0	NoResponse	0	0.203	n/a	5	22	ButtonPress	Neutral	True
221.461	1.45	Control	0.9565	n/a	No	2.788	n/a	5.0	NoResponse	0	0.023	220.484	5	22	Feedback	Neutral	True
222.915	2.788	Control	0.9565	n/a	No	2.788	n/a	n/a	NoResponse	0	0.0	n/a	5	22	ISIslide	Neutral	True
225.723	0.25	Control	0.9582999999999999	0.0	Yes	2.777	0.023	n/a	GoodResponse	0	n/a	n/a	5	23	Cue	Neutral	True
225.974	3.9	Control	0.9582999999999999	0.0	Yes	2.777	0.001	n/a	GoodResponse	0	n/a	n/a	5	23	Fixation	Neutral	True
229.869	0.17	Control	0.9582999999999999	0.004	Yes	2.777	-0.004	4.0	GoodResponse	0	0.166	229.035	5	23	Target	Neutral	True
230.035	0.3	Control	0.9582999999999999	0.004	Yes	2.777	-0.004	4.0	GoodResponse	0	0.166	n/a	5	23	ButtonPress	Neutral	True
230.053	0.53	Control	0.9582999999999999	n/a	Yes	2.777	n/a	n/a	GoodResponse	0	n/a	n/a	5	23	Blank	Neutral	True
230.571	1.45	Control	0.9582999999999999	n/a	Yes	2.777	n/a	5.0	GoodResponse	0	0.035	229.606	5	23	Feedback	Neutral	True
232.025	2.777	Control	0.9582999999999999	n/a	Yes	2.777	n/a	n/a	GoodResponse	0	0.0	n/a	5	23	ISIslide	Neutral	True
234.817	0.25	Win2	0.92	0.0	No	3.133	0.017	n/a	NoResponse	0	n/a	n/a	5	24	Cue	MissedWin	True
235.068	3.95	Win2	0.92	0.0	No	3.133	0.001	n/a	NoResponse	0	n/a	n/a	5	24	Fixation	MissedWin	True
239.013	0.16	Win2	0.92	0.004	No	3.133	-0.004	4.0	NoResponse	0	0.172	238.185	5	24	Target	MissedWin	True
239.18	0.54	Win2	0.92	n/a	No	3.133	n/a	n/a	NoResponse	0	n/a	n/a	5	24	Blank	MissedWin	True
239.185	0.3	Win2	0.92	0.004	No	3.133	-0.004	4.0	NoResponse	0	0.172	n/a	5	24	ButtonPress	MissedWin	True
239.715	1.45	Win2	0.92	n/a	No	3.133	n/a	5.0	NoResponse	0	0.012	238.727	5	24	Feedback	MissedWin	True
241.169	3.133	Win2	0.92	n/a	No	3.133	n/a	n/a	NoResponse	0	0.0	n/a	5	24	ISIslide	MissedWin	True
244.329	0.25	Win2	0.8845999999999999	0.0	No	3.071	0.029	n/a	NoResponse	0	n/a	n/a	5	25	Cue	MissedWin	True
244.58	4.0	Win2	0.8845999999999999	0.0	No	3.071	0.001	n/a	NoResponse	0	n/a	n/a	5	25	Fixation	MissedWin	True
248.575	0.15	Win2	0.8845999999999999	0.004	No	3.071	-0.004	4.0	NoResponse	0	0.181	247.756	5	25	Target	MissedWin	True
248.725	0.55	Win2	0.8845999999999999	n/a	No	3.071	n/a	n/a	NoResponse	0	n/a	n/a	5	25	Blank	MissedWin	True
248.756	0.3	Win2	0.8845999999999999	0.004	No	3.071	-0.004	4.0	NoResponse	0	0.181	n/a	5	25	ButtonPress	MissedWin	True
249.277	1.45	Win2	0.8845999999999999	n/a	No	3.071	n/a	5.0	NoResponse	0	0.011	248.288	5	25	Feedback	MissedWin	True
250.731	3.071	Win2	0.8845999999999999	n/a	No	3.071	n/a	n/a	NoResponse	0	0.0	n/a	5	25	ISIslide	MissedWin	True
253.824	0.25	Win2	0.8519	0.0	No	2.926	0.024	n/a	NoResponse	0	n/a	n/a	5	26	Cue	MissedWin	True
254.075	3.95	Win2	0.8519	0.0	No	2.926	0.001	n/a	NoResponse	0	n/a	n/a	5	26	Fixation	MissedWin	True
258.02	0.15	Win2	0.8519	0.004	No	2.926	-0.004	4.0	NoResponse	0	0.2	257.22	5	26	Target	MissedWin	True
258.17	0.55	Win2	0.8519	n/a	No	2.926	n/a	n/a	NoResponse	0	n/a	n/a	5	26	Blank	MissedWin	True
258.22	0.3	Win2	0.8519	0.004	No	2.926	-0.004	4.0	NoResponse	0	0.2	n/a	5	26	ButtonPress	MissedWin	True
258.722	1.45	Win2	0.8519	n/a	No	2.926	n/a	5.0	NoResponse	0	0.03	257.752	5	26	Feedback	MissedWin	True
260.176	2.926	Win2	0.8519	n/a	No	2.926	n/a	n/a	NoResponse	0	0.0	n/a	5	26	ISIslide	MissedWin	True
263.118	0.25	Lose2	0.8214	0.001	No	2.832	0.018	n/a	NoResponse	-1	n/a	n/a	4	27	Cue	Loss	True
263.369	4.05	Lose2	0.8214	0.0	No	2.832	0.001	n/a	NoResponse	-1	n/a	n/a	4	27	Fixation	Loss	True
267.415	0.15	Lose2	0.8214	0.003	No	2.832	-0.003	4.0	NoResponse	-1	0.158	266.573	4	27	Target	Loss	True
267.565	0.55	Lose2	0.8214	n/a	No	2.832	n/a	n/a	NoResponse	-1	n/a	n/a	4	27	Blank	Loss	True
267.573	0.3	Lose2	0.8214	0.003	No	2.832	-0.003	4.0	NoResponse	-1	0.158	n/a	4	27	ButtonPress	Loss	True
268.117	1.45	Lose2	0.8214	n/a	No	2.832	n/a	5.0	NoResponse	-1	0.001	267.118	4	27	Feedback	Loss	True
269.571	2.832	Lose2	0.8214	n/a	No	2.832	n/a	n/a	NoResponse	-1	0.0	n/a	4	27	ISIslide	Loss	True
272.413	0.25	Control	0.7931	0.0	No	2.837	0.013	n/a	NoResponse	0	n/a	n/a	4	28	Cue	Neutral	True
272.664	4.05	Control	0.7931	0.0	No	2.837	0.001	n/a	NoResponse	0	n/a	n/a	4	28	Fixation	Neutral	True
276.709	0.15	Control	0.7931	0.004	No	2.837	-0.004	4.0	NoResponse	0	0.187	275.896	4	28	Target	Neutral	True
276.86	0.55	Control	0.7931	n/a	No	2.837	n/a	n/a	NoResponse	0	n/a	n/a	4	28	Blank	Neutral	True
276.896	0.3	Control	0.7931	0.004	No	2.837	-0.004	4.0	NoResponse	0	0.187	n/a	4	28	ButtonPress	Neutral	True
277.411	1.45	Control	0.7931	n/a	No	2.837	n/a	5.0	NoResponse	0	0.024	276.435	4	28	Feedback	Neutral	True
278.866	2.837	Control	0.7931	n/a	No	2.837	n/a	n/a	NoResponse	0	0.0	n/a	4	28	ISIslide	Neutral	True
281.724	0.25	Lose2	0.7667	0.0	No	2.826	0.024	n/a	NoResponse	-1	n/a	n/a	3	29	Cue	Loss	True
281.975	3.95	Lose2	0.7667	0.0	No	2.826	0.001	4.0	NoResponse	-1	3.28	284.255	3	29	Fixation	Loss	True
285.255	0.3	Lose2	0.7667	0.0	No	2.826	0.001	4.0	NoResponse	-1	3.28	n/a	3	29	ButtonPress	Loss	True
285.92	0.15	Lose2	0.7667	0.004	No	2.826	-0.004	n/a	NoResponse	-1	n/a	n/a	3	29	Target	Loss	True
286.07	0.55	Lose2	0.7667	n/a	No	2.826	n/a	n/a	NoResponse	-1	n/a	n/a	3	29	Blank	Loss	True
286.622	1.45	Lose2	0.7667	n/a	No	2.826	n/a	5.0	NoResponse	-1	0.032	285.654	3	29	Feedback	Loss	True
288.076	2.826	Lose2	0.7667	n/a	No	2.826	n/a	n/a	NoResponse	-1	0.0	n/a	3	29	ISIslide	Loss	True
290.918	0.25	Win2	0.7419	0.0	No	2.782	0.018	n/a	NoResponse	0	n/a	n/a	3	30	Cue	MissedWin	True
291.169	3.9	Win2	0.7419	0.0	No	2.782	0.001	n/a	NoResponse	0	n/a	n/a	3	30	Fixation	MissedWin	True
295.064	0.15	Win2	0.7419	0.004	No	2.782	-0.004	4.0	NoResponse	0	0.202	294.266	3	30	Target	MissedWin	True
295.214	0.55	Win2	0.7419	n/a	No	2.782	n/a	n/a	NoResponse	0	n/a	n/a	3	30	Blank	MissedWin	True
295.266	0.3	Win2	0.7419	0.004	No	2.782	-0.004	4.0	NoResponse	0	0.202	n/a	3	30	ButtonPress	MissedWin	True
295.766	1.45	Win2	0.7419	n/a	No	2.782	n/a	5.0	NoResponse	0	0.01	294.776	3	30	Feedback	MissedWin	True
297.22	2.782	Win2	0.7419	n/a	No	2.782	n/a	n/a	NoResponse	0	0.0	n/a	3	30	ISIslide	MissedWin	True
300.029	0.25	Lose2	0.7188	0.0	No	2.821	0.029	n/a	NoResponse	-1	n/a	n/a	2	31	Cue	Loss	True
300.28	4.05	Lose2	0.7188	0.0	No	2.821	0.001	n/a	NoResponse	-1	n/a	n/a	2	31	Fixation	Loss	True
304.325	0.15	Lose2	0.7188	0.004	No	2.821	-0.004	4.0	NoResponse	-1	0.183	303.508	2	31	Target	Loss	True
304.475	0.55	Lose2	0.7188	n/a	No	2.821	n/a	n/a	NoResponse	-1	n/a	n/a	2	31	Blank	Loss	True
304.508	0.3	Lose2	0.7188	0.004	No	2.821	-0.004	4.0	NoResponse	-1	0.183	n/a	2	31	ButtonPress	Loss	True
305.027	1.45	Lose2	0.7188	n/a	No	2.821	n/a	5.0	NoResponse	-1	0.017	304.044	2	31	Feedback	Loss	True
306.481	2.821	Lose2	0.7188	n/a	No	2.821	n/a	n/a	NoResponse	-1	0.0	n/a	2	31	ISIslide	Loss	True
309.323	0.25	Lose2	0.6970000000000001	0.0	No	2.627	0.023	n/a	NoResponse	-1	n/a	n/a	1	32	Cue	Loss	True
309.574	4.15	Lose2	0.6970000000000001	0.0	No	2.627	0.001	n/a	NoResponse	-1	n/a	n/a	1	32	Fixation	Loss	True
313.72	0.15	Lose2	0.6970000000000001	0.003	No	2.627	-0.003	4.0	NoResponse	-1	0.182	312.902	1	32	Target	Loss	True
313.87	0.55	Lose2	0.6970000000000001	n/a	No	2.627	n/a	n/a	NoResponse	-1	n/a	n/a	1	32	Blank	Loss	True
313.902	0.3	Lose2	0.6970000000000001	0.003	No	2.627	-0.003	4.0	NoResponse	-1	0.182	n/a	1	32	ButtonPress	Loss	True
314.422	1.45	Lose2	0.6970000000000001	n/a	No	2.627	n/a	5.0	NoResponse	-1	0.037	313.459	1	32	Feedback	Loss	True
315.876	2.627	Lose2	0.6970000000000001	n/a	No	2.627	n/a	n/a	NoResponse	-1	0.0	n/a	1	32	ISIslide	Loss	True
318.517	0.25	Win2	0.6765000000000001	0.0	No	2.683	0.017	n/a	NoResponse	0	n/a	n/a	1	33	Cue	MissedWin	True
318.768	4.0	Win2	0.6765000000000001	0.0	No	2.683	0.001	n/a	NoResponse	0	n/a	n/a	1	33	Fixation	MissedWin	True
322.763	0.15	Win2	0.6765000000000001	0.004	No	2.683	-0.004	4.0	NoResponse	0	0.187	321.95	1	33	Target	MissedWin	True
322.914	0.55	Win2	0.6765000000000001	n/a	No	2.683	n/a	n/a	NoResponse	0	n/a	n/a	1	33	Blank	MissedWin	True
322.95	0.3	Win2	0.6765000000000001	0.004	No	2.683	-0.004	4.0	NoResponse	0	0.187	n/a	1	33	ButtonPress	MissedWin	True
323.466	1.45	Win2	0.6765000000000001	n/a	No	2.683	n/a	5.0	NoResponse	0	0.016	322.482	1	33	Feedback	MissedWin	True
324.92	2.683	Win2	0.6765000000000001	n/a	No	2.683	n/a	n/a	NoResponse	0	0.0	n/a	1	33	ISIslide	MissedWin	True
327.628	0.25	Lose2	0.6570999999999999	0.0	No	2.622	0.028	n/a	NoResponse	-1	n/a	n/a	0	34	Cue	Loss	True
327.879	4.05	Lose2	0.6570999999999999	0.0	No	2.622	0.001	n/a	NoResponse	-1	n/a	n/a	0	34	Fixation	Loss	True
331.924	0.15	Lose2	0.6570999999999999	0.004	No	2.622	-0.004	4.0	NoResponse	-1	0.199	331.123	0	34	Target	Loss	True
332.075	0.55	Lose2	0.6570999999999999	n/a	No	2.622	n/a	n/a	NoResponse	-1	n/a	n/a	0	34	Blank	Loss	True
332.123	0.3	Lose2	0.6570999999999999	0.004	No	2.622	-0.004	4.0	NoResponse	-1	0.199	n/a	0	34	ButtonPress	Loss	True
332.626	1.45	Lose2	0.6570999999999999	n/a	No	2.622	n/a	5.0	NoResponse	-1	0.027	331.653	0	34	Feedback	Loss	True
334.081	2.622	Lose2	0.6570999999999999	n/a	No	2.622	n/a	n/a	NoResponse	-1	0.0	n/a	0	34	ISIslide	Loss	True
336.722	0.25	Lose2	0.6389	0.0	No	2.678	0.022	n/a	NoResponse	-1	n/a	n/a	-1	35	Cue	Loss	True
336.973	4.0	Lose2	0.6389	0.0	No	2.678	0.001	n/a	NoResponse	-1	n/a	n/a	-1	35	Fixation	Loss	True
340.968	0.15	Lose2	0.6389	0.004	No	2.678	-0.004	4.0	NoResponse	-1	0.192	340.16	-1	35	Target	Loss	True
341.118	0.55	Lose2	0.6389	n/a	No	2.678	n/a	n/a	NoResponse	-1	n/a	n/a	-1	35	Blank	Loss	True
341.16	0.3	Lose2	0.6389	0.004	No	2.678	-0.004	4.0	NoResponse	-1	0.192	n/a	-1	35	ButtonPress	Loss	True
341.67	1.45	Lose2	0.6389	n/a	No	2.678	n/a	5.0	NoResponse	-1	0.008	340.678	-1	35	Feedback	Loss	True
343.124	2.678	Lose2	0.6389	n/a	No	2.678	n/a	n/a	NoResponse	-1	0.0	n/a	-1	35	ISIslide	Loss	True
345.816	0.25	Control	0.6215999999999999	0.0	No	2.684	0.016	n/a	NoResponse	0	n/a	n/a	-1	36	Cue	Neutral	True
346.066	4.0	Control	0.6215999999999999	0.001	No	2.684	0.0	n/a	NoResponse	0	n/a	n/a	-1	36	Fixation	Neutral	True
350.062	0.16	Control	0.6215999999999999	0.004	No	2.684	-0.004	4.0	NoResponse	0	0.199	349.261	-1	36	Target	Neutral	True
350.229	0.54	Control	0.6215999999999999	n/a	No	2.684	n/a	n/a	NoResponse	0	n/a	n/a	-1	36	Blank	Neutral	True
350.261	0.3	Control	0.6215999999999999	0.004	No	2.684	-0.004	4.0	NoResponse	0	0.199	n/a	-1	36	ButtonPress	Neutral	True
350.764	1.45	Control	0.6215999999999999	n/a	No	2.684	n/a	5.0	NoResponse	0	0.036	349.8	-1	36	Feedback	Neutral	True
352.218	2.684	Control	0.6215999999999999	n/a	No	2.684	n/a	n/a	NoResponse	0	0.0	n/a	-1	36	ISIslide	Neutral	True
354.926	0.25	Win2	0.6053000000000001	0.0	No	2.874	0.026	n/a	LatePress	0	n/a	n/a	-1	37	Cue	MissedWin	False
355.177	4.0	Win2	0.6053000000000001	0.0	No	2.874	0.001	4.0	LatePress	0	3.691	357.868	-1	37	Fixation	MissedWin	False
358.868	0.3	Win2	0.6053000000000001	0.0	No	2.874	0.001	4.0	LatePress	0	3.691	n/a	-1	37	ButtonPress	MissedWin	False
359.172	0.17	Win2	0.6053000000000001	0.004	No	2.874	-0.004	4.0	LatePress	0	0.18	358.352	-1	37	Target	MissedWin	False
359.352	0.3	Win2	0.6053000000000001	0.004	No	2.874	-0.004	4.0	LatePress	0	0.18	n/a	-1	37	ButtonPress	MissedWin	False
359.356	0.53	Win2	0.6053000000000001	n/a	No	2.874	n/a	n/a	LatePress	0	n/a	n/a	-1	37	Blank	MissedWin	False
359.874	1.45	Win2	0.6053000000000001	n/a	No	2.874	n/a	5.0	LatePress	0	0.048	358.922	-1	37	Feedback	MissedWin	False
361.329	2.874	Win2	0.6053000000000001	n/a	No	2.874	n/a	n/a	LatePress	0	0.0	n/a	-1	37	ISIslide	MissedWin	False
364.221	0.25	Lose2	0.5897	0.0	No	2.829	0.021	n/a	NoResponse	-1	n/a	n/a	-2	38	Cue	Loss	False
364.471	3.95	Lose2	0.5897	0.001	No	2.829	0.0	4.0	NoResponse	-1	3.734	367.205	-2	38	Fixation	Loss	False
368.205	0.3	Lose2	0.5897	0.001	No	2.829	0.0	4.0	NoResponse	-1	3.734	n/a	-2	38	ButtonPress	Loss	False
368.417	0.18	Lose2	0.5897	0.004	No	2.829	-0.004	4.0	NoResponse	-1	0.196	367.613	-2	38	Target	Loss	False
368.6	0.52	Lose2	0.5897	n/a	No	2.829	n/a	n/a	NoResponse	-1	n/a	n/a	-2	38	Blank	Loss	False
368.613	0.3	Lose2	0.5897	0.004	No	2.829	-0.004	4.0	NoResponse	-1	0.196	n/a	-2	38	ButtonPress	Loss	False
369.119	1.45	Lose2	0.5897	n/a	No	2.829	n/a	5.0	NoResponse	-1	0.022	368.141	-2	38	Feedback	Loss	False
370.573	2.829	Lose2	0.5897	n/a	No	2.829	n/a	n/a	NoResponse	-1	0.0	n/a	-2	38	ISIslide	Loss	False
373.415	0.25	Win2	0.6	0.0	Yes	2.985	0.015	n/a	GoodResponse	1	n/a	n/a	-1	39	Cue	Win	True
373.666	4.1	Win2	0.6	0.0	Yes	2.985	0.001	n/a	GoodResponse	1	n/a	n/a	-1	39	Fixation	Win	True
377.761	0.19	Win2	0.6	0.004	Yes	2.985	-0.004	4.0	GoodResponse	1	0.182	376.943	-1	39	Target	Win	True
377.943	0.3	Win2	0.6	0.004	Yes	2.985	-0.004	4.0	GoodResponse	1	0.182	n/a	-1	39	ButtonPress	Win	True
377.962	0.51	Win2	0.6	n/a	Yes	2.985	n/a	n/a	GoodResponse	1	n/a	n/a	-1	39	Blank	Win	True
378.463	1.45	Win2	0.6	n/a	Yes	2.985	n/a	5.0	GoodResponse	1	0.043	377.506	-1	39	Feedback	Win	True
379.918	2.985	Win2	0.6	n/a	Yes	2.985	n/a	n/a	GoodResponse	1	0.0	n/a	-1	39	ISIslide	Win	True
382.927	0.25	Win2	0.5854	0.0	No	2.723	0.027	n/a	NoResponse	0	n/a	n/a	-1	40	Cue	MissedWin	True
383.177	3.95	Win2	0.5854	0.0	No	2.723	0.0	n/a	NoResponse	0	n/a	n/a	-1	40	Fixation	MissedWin	True
387.123	0.2	Win2	0.5854	0.004	No	2.723	-0.004	4.0	NoResponse	0	0.242	386.365	-1	40	Target	MissedWin	True
387.323	0.5	Win2	0.5854	n/a	No	2.723	n/a	n/a	NoResponse	0	n/a	n/a	-1	40	Blank	MissedWin	True
387.365	0.3	Win2	0.5854	0.004	No	2.723	-0.004	4.0	NoResponse	0	0.242	n/a	-1	40	ButtonPress	MissedWin	True
387.825	1.45	Win2	0.5854	n/a	No	2.723	n/a	5.0	NoResponse	0	0.047	386.872	-1	40	Feedback	MissedWin	True
389.279	2.723	Win2	0.5854	n/a	No	2.723	n/a	n/a	NoResponse	0	0.0	n/a	-1	40	ISIslide	MissedWin	True
392.021	0.25	Win2	0.5952000000000001	0.0	Yes	2.779	0.021	n/a	GoodResponse	1	n/a	n/a	0	41	Cue	Win	True
392.271	3.9	Win2	0.5952000000000001	0.0	Yes	2.779	0.0	n/a	GoodResponse	1	n/a	n/a	0	41	Fixation	Win	True
396.183	0.21	Win2	0.5952000000000001	0.0	Yes	2.779	0.012	4.0	GoodResponse	1	0.159	395.342	0	41	Target	Win	True
396.342	0.3	Win2	0.5952000000000001	0.0	Yes	2.779	0.012	4.0	GoodResponse	1	0.159	n/a	0	41	ButtonPress	Win	True
396.384	0.49	Win2	0.5952000000000001	n/a	Yes	2.779	n/a	n/a	GoodResponse	1	n/a	n/a	0	41	Blank	Win	True
396.868	1.45	Win2	0.5952000000000001	n/a	Yes	2.779	n/a	5.0	GoodResponse	1	0.029	395.897	0	41	Feedback	Win	True
398.323	2.779	Win2	0.5952000000000001	n/a	Yes	2.779	n/a	n/a	GoodResponse	1	0.0	n/a	0	41	ISIslide	Win	True
401.114	0.25	Control	0.6047	0.0	Yes	2.936	0.014	n/a	GoodResponse	0	n/a	n/a	0	42	Cue	Neutral	True
401.365	3.85	Control	0.6047	0.0	Yes	2.936	0.001	n/a	GoodResponse	0	n/a	n/a	0	42	Fixation	Neutral	True
405.21	0.22	Control	0.6047	0.004	Yes	2.936	-0.004	4.0	GoodResponse	0	0.196	404.406	0	42	Target	Neutral	True
405.406	0.3	Control	0.6047	0.004	Yes	2.936	-0.004	4.0	GoodResponse	0	0.196	n/a	0	42	ButtonPress	Neutral	True
405.444	0.48	Control	0.6047	n/a	Yes	2.936	n/a	n/a	GoodResponse	0	n/a	n/a	0	42	Blank	Neutral	True
405.912	1.45	Control	0.6047	n/a	Yes	2.936	n/a	5.0	GoodResponse	0	0.009	404.921	0	42	Feedback	Neutral	True
407.366	2.936	Control	0.6047	n/a	Yes	2.936	n/a	n/a	GoodResponse	0	0.0	n/a	0	42	ISIslide	Neutral	True
410.325	0.25	Win2	0.6136	0.0	Yes	3.175	0.025	n/a	GoodResponse	1	n/a	n/a	1	43	Cue	Win	True
410.576	4.0	Win2	0.6136	0.0	Yes	3.175	0.001	n/a	GoodResponse	1	n/a	n/a	1	43	Fixation	Win	True
414.571	0.23	Win2	0.6136	0.004	Yes	3.175	-0.004	4.0	GoodResponse	1	0.169	413.74	1	43	Target	Win	True
414.74	0.3	Win2	0.6136	0.004	Yes	3.175	-0.004	4.0	GoodResponse	1	0.169	n/a	1	43	ButtonPress	Win	True
414.805	0.47	Win2	0.6136	n/a	Yes	3.175	n/a	n/a	GoodResponse	1	n/a	n/a	1	43	Blank	Win	True
415.273	1.45	Win2	0.6136	n/a	Yes	3.175	n/a	5.0	GoodResponse	1	0.013	414.286	1	43	Feedback	Win	True
416.728	3.175	Win2	0.6136	n/a	Yes	3.175	n/a	n/a	GoodResponse	1	0.0	n/a	1	43	ISIslide	Win	True
419.921	0.25	Win2	0.6222	0.0	Yes	2.979	0.021	n/a	GoodResponse	1	n/a	n/a	2	44	Cue	Win	True
420.171	4.0	Win2	0.6222	0.0	Yes	2.979	0.0	n/a	GoodResponse	1	n/a	n/a	2	44	Fixation	Win	True
424.167	0.24	Win2	0.6222	0.004	Yes	2.979	-0.004	4.0	GoodResponse	1	0.188	423.355	2	44	Target	Win	True
424.355	0.3	Win2	0.6222	0.004	Yes	2.979	-0.004	4.0	GoodResponse	1	0.188	n/a	2	44	ButtonPress	Win	True
424.417	0.46	Win2	0.6222	n/a	Yes	2.979	n/a	n/a	GoodResponse	1	n/a	n/a	2	44	Blank	Win	True
424.869	1.45	Win2	0.6222	n/a	Yes	2.979	n/a	5.0	GoodResponse	1	0.027	423.896	2	44	Feedback	Win	True
426.323	2.979	Win2	0.6222	n/a	Yes	2.979	n/a	n/a	GoodResponse	1	0.0	n/a	2	44	ISIslide	Win	True
429.315	0.25	Control	0.6087	0.0	No	2.885	0.015	n/a	NoResponse	0	n/a	n/a	2	45	Cue	Neutral	False
429.566	4.1	Control	0.6087	0.0	No	2.885	0.001	n/a	NoResponse	0	n/a	n/a	2	45	Fixation	Neutral	False
433.662	0.25	Control	0.6087	0.003	No	2.885	-0.003	n/a	NoResponse	0	n/a	n/a	2	45	Target	Neutral	False
433.912	0.45	Control	0.6087	n/a	No	2.885	n/a	n/a	NoResponse	0	n/a	n/a	2	45	Blank	Neutral	False
434.364	1.45	Control	0.6087	n/a	No	2.885	n/a	5.0	NoResponse	0	0.045	433.409	2	45	Feedback	Neutral	False
435.818	2.885	Control	0.6087	n/a	No	2.885	n/a	n/a	NoResponse	0	0.0	n/a	2	45	ISIslide	Neutral	False
438.727	0.25	Lose2	0.617	0.0	Yes	3.373	0.027	n/a	GoodResponse	0	n/a	n/a	2	46	Cue	AvoidedLoss	True
438.978	4.0	Lose2	0.617	0.0	Yes	3.373	0.001	n/a	GoodResponse	0	n/a	n/a	2	46	Fixation	AvoidedLoss	True
442.973	0.26	Lose2	0.617	0.004	Yes	3.373	-0.004	4.0	GoodResponse	0	0.179	442.152	2	46	Target	AvoidedLoss	True
443.152	0.3	Lose2	0.617	0.004	Yes	3.373	-0.004	4.0	GoodResponse	0	0.179	n/a	2	46	ButtonPress	AvoidedLoss	True
443.24	0.44	Lose2	0.617	n/a	Yes	3.373	n/a	n/a	GoodResponse	0	n/a	n/a	2	46	Blank	AvoidedLoss	True
443.675	1.45	Lose2	0.617	n/a	Yes	3.373	n/a	5.0	GoodResponse	0	0.002	442.677	2	46	Feedback	AvoidedLoss	True
445.129	3.373	Lose2	0.617	n/a	Yes	3.373	n/a	n/a	GoodResponse	0	0.0	n/a	2	46	ISIslide	AvoidedLoss	True
448.523	0.25	Lose2	0.625	0.0	Yes	2.677	0.023	n/a	GoodResponse	0	n/a	n/a	2	47	Cue	AvoidedLoss	True
448.774	4.0	Lose2	0.625	0.0	Yes	2.677	0.001	n/a	GoodResponse	0	n/a	n/a	2	47	Fixation	AvoidedLoss	True
452.769	0.27	Lose2	0.625	0.004	Yes	2.677	-0.004	4.0	GoodResponse	0	0.185	451.954	2	47	Target	AvoidedLoss	True
452.954	0.3	Lose2	0.625	0.004	Yes	2.677	-0.004	4.0	GoodResponse	0	0.185	n/a	2	47	ButtonPress	AvoidedLoss	True
453.053	0.43	Lose2	0.625	n/a	Yes	2.677	n/a	n/a	GoodResponse	0	n/a	n/a	2	47	Blank	AvoidedLoss	True
453.471	1.45	Lose2	0.625	n/a	Yes	2.677	n/a	5.0	GoodResponse	0	0.01	452.481	2	47	Feedback	AvoidedLoss	True
454.925	2.677	Lose2	0.625	n/a	Yes	2.677	n/a	n/a	GoodResponse	0	0.0	n/a	2	47	ISIslide	AvoidedLoss	True
457.617	0.25	Lose2	0.6327	0.0	Yes	3.033	0.017	n/a	GoodResponse	0	n/a	n/a	2	48	Cue	AvoidedLoss	True
457.867	3.95	Lose2	0.6327	0.0	Yes	3.033	0.0	n/a	GoodResponse	0	n/a	n/a	2	48	Fixation	AvoidedLoss	True
461.813	0.28	Lose2	0.6327	0.004	Yes	3.033	-0.004	4.0	GoodResponse	0	0.185	460.998	2	48	Target	AvoidedLoss	True
461.998	0.3	Lose2	0.6327	0.004	Yes	3.033	-0.004	4.0	GoodResponse	0	0.185	n/a	2	48	ButtonPress	AvoidedLoss	True
462.097	0.42	Lose2	0.6327	n/a	Yes	3.033	n/a	n/a	GoodResponse	0	n/a	n/a	2	48	Blank	AvoidedLoss	True
462.515	1.45	Lose2	0.6327	n/a	Yes	3.033	n/a	5.0	GoodResponse	0	0.039	461.554	2	48	Feedback	AvoidedLoss	True
463.969	3.033	Lose2	0.6327	n/a	Yes	3.033	n/a	n/a	GoodResponse	0	0.0	n/a	2	48	ISIslide	AvoidedLoss	True
467.028	0.25	Control	0.64	0.0	Yes	2.872	0.028	n/a	GoodResponse	0	n/a	n/a	2	49	Cue	Neutral	True
467.279	4.0	Control	0.64	0.0	Yes	2.872	0.001	n/a	GoodResponse	0	n/a	n/a	2	49	Fixation	Neutral	True
471.274	0.29	Control	0.64	0.004	Yes	2.872	-0.004	4.0	GoodResponse	0	0.217	470.491	2	49	Target	Neutral	True
471.491	0.3	Control	0.64	0.004	Yes	2.872	-0.004	4.0	GoodResponse	0	0.217	n/a	2	49	ButtonPress	Neutral	True
471.575	0.41	Control	0.64	n/a	Yes	2.872	n/a	n/a	GoodResponse	0	n/a	n/a	2	49	Blank	Neutral	True
471.976	1.45	Control	0.64	n/a	Yes	2.872	n/a	5.0	GoodResponse	0	0.042	471.018	2	49	Feedback	Neutral	True
473.431	2.872	Control	0.64	n/a	Yes	2.872	n/a	n/a	GoodResponse	0	0.0	n/a	2	49	ISIslide	Neutral	True
476.323	0.25	Control	0.6470999999999999	0.0	Yes	2.777	0.023	n/a	GoodResponse	0	n/a	n/a	2	50	Cue	Neutral	True
476.573	4.0	Control	0.6470999999999999	0.0	Yes	2.777	0.0	n/a	GoodResponse	0	n/a	n/a	2	50	Fixation	Neutral	True
480.569	0.3	Control	0.6470999999999999	0.004	Yes	2.777	-0.004	4.0	GoodResponse	0	0.245	479.814	2	50	Target	Neutral	True
480.814	0.3	Control	0.6470999999999999	0.004	Yes	2.777	-0.004	4.0	GoodResponse	0	0.245	n/a	2	50	ButtonPress	Neutral	True
480.869	0.4	Control	0.6470999999999999	n/a	Yes	2.777	n/a	n/a	GoodResponse	0	n/a	n/a	2	50	Blank	Neutral	True
481.271	1.45	Control	0.6470999999999999	n/a	Yes	2.777	n/a	5.0	GoodResponse	0	0.015	480.286	2	50	Feedback	Neutral	True
482.725	2.777	Control	0.6470999999999999	n/a	Yes	2.777	n/a	n/a	GoodResponse	0	0.0	n/a	2	50	ISIslide	Neutral	True
485.517	0.25	Control	0.6537999999999999	0.0	Yes	2.733	0.017	n/a	GoodResponse	0	n/a	n/a	2	51	Cue	Neutral	True
485.767	3.95	Control	0.6537999999999999	0.001	Yes	2.733	0.0	n/a	GoodResponse	0	n/a	n/a	2	51	Fixation	Neutral	True
489.713	0.31	Control	0.6537999999999999	0.004	Yes	2.733	-0.004	4.0	GoodResponse	0	0.18	488.893	2	51	Target	Neutral	True
489.893	0.3	Control	0.6537999999999999	0.004	Yes	2.733	-0.004	4.0	GoodResponse	0	0.18	n/a	2	51	ButtonPress	Neutral	True
490.03	0.39	Control	0.6537999999999999	n/a	Yes	2.733	n/a	n/a	GoodResponse	0	n/a	n/a	2	51	Blank	Neutral	True
490.415	1.45	Control	0.6537999999999999	n/a	Yes	2.733	n/a	5.0	GoodResponse	0	0.042	489.457	2	51	Feedback	Neutral	True
491.869	2.733	Control	0.6537999999999999	n/a	Yes	2.733	n/a	n/a	GoodResponse	0	0.0	n/a	2	51	ISIslide	Neutral	True
494.627	0.25	Control	0.6604000000000001	0.0	Yes	2.623	0.027	n/a	GoodResponse	0	n/a	n/a	2	52	Cue	Neutral	True
494.878	4.05	Control	0.6604000000000001	0.0	Yes	2.623	0.001	n/a	GoodResponse	0	n/a	n/a	2	52	Fixation	Neutral	True
498.923	0.32	Control	0.6604000000000001	0.004	Yes	2.623	-0.004	4.0	GoodResponse	0	0.211	498.134	2	52	Target	Neutral	True
499.134	0.3	Control	0.6604000000000001	0.004	Yes	2.623	-0.004	4.0	GoodResponse	0	0.211	n/a	2	52	ButtonPress	Neutral	True
499.258	0.38	Control	0.6604000000000001	n/a	Yes	2.623	n/a	n/a	GoodResponse	0	n/a	n/a	2	52	Blank	Neutral	True
499.626	1.45	Control	0.6604000000000001	n/a	Yes	2.623	n/a	5.0	GoodResponse	0	0.005	498.631	2	52	Feedback	Neutral	True
501.08	2.623	Control	0.6604000000000001	n/a	Yes	2.623	n/a	n/a	GoodResponse	0	0.0	n/a	2	52	ISIslide	Neutral	True
503.721	0.25	Win2	0.6667000000000001	0.0	Yes	2.929	0.021	n/a	GoodResponse	1	n/a	n/a	3	53	Cue	Win	True
503.972	4.05	Win2	0.6667000000000001	0.0	Yes	2.929	0.001	n/a	GoodResponse	1	n/a	n/a	3	53	Fixation	Win	True
508.017	0.32	Win2	0.6667000000000001	0.004	Yes	2.929	-0.004	4.0	GoodResponse	1	0.181	507.198	3	53	Target	Win	True
508.198	0.3	Win2	0.6667000000000001	0.004	Yes	2.929	-0.004	4.0	GoodResponse	1	0.181	n/a	3	53	ButtonPress	Win	True
508.352	0.38	Win2	0.6667000000000001	n/a	Yes	2.929	n/a	n/a	GoodResponse	1	n/a	n/a	3	53	Blank	Win	True
508.719	1.45	Win2	0.6667000000000001	n/a	Yes	2.929	n/a	5.0	GoodResponse	1	0.03	507.749	3	53	Feedback	Win	True
510.174	2.929	Win2	0.6667000000000001	n/a	Yes	2.929	n/a	n/a	GoodResponse	1	0.0	n/a	3	53	ISIslide	Win	True
513.116	0.25	Win2	0.6727	0.0	Yes	2.734	0.016	n/a	GoodResponse	1	n/a	n/a	4	54	Cue	Win	True
513.367	3.95	Win2	0.6727	0.0	Yes	2.734	0.001	n/a	GoodResponse	1	n/a	n/a	4	54	Fixation	Win	True
517.312	0.31	Win2	0.6727	0.004	Yes	2.734	-0.004	4.0	GoodResponse	1	0.197	516.509	4	54	Target	Win	True
517.509	0.3	Win2	0.6727	0.004	Yes	2.734	-0.004	4.0	GoodResponse	1	0.197	n/a	4	54	ButtonPress	Win	True
517.629	0.39	Win2	0.6727	n/a	Yes	2.734	n/a	n/a	GoodResponse	1	n/a	n/a	4	54	Blank	Win	True
518.014	1.45	Win2	0.6727	n/a	Yes	2.734	n/a	5.0	GoodResponse	1	0.007	517.021	4	54	Feedback	Win	True
519.468	2.734	Win2	0.6727	n/a	Yes	2.734	n/a	n/a	GoodResponse	1	0.0	n/a	4	54	ISIslide	Win	True
522.226	0.25	Control	0.6786	0.001	Yes	3.024	0.026	n/a	GoodResponse	0	n/a	n/a	4	55	Cue	Neutral	True
522.477	3.95	Control	0.6786	0.0	Yes	3.024	0.001	n/a	GoodResponse	0	n/a	n/a	4	55	Fixation	Neutral	True
526.422	0.3	Control	0.6786	0.004	Yes	3.024	-0.004	4.0	GoodResponse	0	0.193	525.615	4	55	Target	Neutral	True
526.615	0.3	Control	0.6786	0.004	Yes	3.024	-0.004	4.0	GoodResponse	0	0.193	n/a	4	55	ButtonPress	Neutral	True
526.723	0.4	Control	0.6786	n/a	Yes	3.024	n/a	n/a	GoodResponse	0	n/a	n/a	4	55	Blank	Neutral	True
527.124	1.45	Control	0.6786	n/a	Yes	3.024	n/a	5.0	GoodResponse	0	0.015	526.139	4	55	Feedback	Neutral	True
528.579	3.024	Control	0.6786	n/a	Yes	3.024	n/a	n/a	GoodResponse	0	0.0	n/a	4	55	ISIslide	Neutral	True
531.621	0.25	Control	0.6842	0.0	Yes	2.829	0.021	n/a	GoodResponse	0	n/a	n/a	4	56	Cue	Neutral	True
531.872	3.95	Control	0.6842	0.0	Yes	2.829	0.001	n/a	GoodResponse	0	n/a	n/a	4	56	Fixation	Neutral	True
535.817	0.29	Control	0.6842	0.004	Yes	2.829	-0.004	4.0	GoodResponse	0	0.212	535.029	4	56	Target	Neutral	True
536.029	0.3	Control	0.6842	0.004	Yes	2.829	-0.004	4.0	GoodResponse	0	0.212	n/a	4	56	ButtonPress	Neutral	True
536.118	0.41	Control	0.6842	n/a	Yes	2.829	n/a	n/a	GoodResponse	0	n/a	n/a	4	56	Blank	Neutral	True
536.519	1.45	Control	0.6842	n/a	Yes	2.829	n/a	5.0	GoodResponse	0	0.034	535.553	4	56	Feedback	Neutral	True
537.974	2.829	Control	0.6842	n/a	Yes	2.829	n/a	n/a	GoodResponse	0	0.0	n/a	4	56	ISIslide	Neutral	True
540.815	0.25	Control	0.6897	0.0	Yes	3.485	0.015	n/a	GoodResponse	0	n/a	n/a	4	57	Cue	Neutral	True
541.066	4.0	Control	0.6897	0.0	Yes	3.485	0.001	n/a	GoodResponse	0	n/a	n/a	4	57	Fixation	Neutral	True
545.061	0.28	Control	0.6897	0.004	Yes	3.485	-0.004	4.0	GoodResponse	0	0.227	544.288	4	57	Target	Neutral	True
545.288	0.3	Control	0.6897	0.004	Yes	3.485	-0.004	4.0	GoodResponse	0	0.227	n/a	4	57	ButtonPress	Neutral	True
545.346	0.42	Control	0.6897	n/a	Yes	3.485	n/a	n/a	GoodResponse	0	n/a	n/a	4	57	Blank	Neutral	True
545.764	1.45	Control	0.6897	n/a	Yes	3.485	n/a	5.0	GoodResponse	0	0.009	544.773	4	57	Feedback	Neutral	True
547.218	3.485	Control	0.6897	n/a	Yes	3.485	n/a	n/a	GoodResponse	0	0.0	n/a	4	57	ISIslide	Neutral	True
550.728	0.25	Win2	0.6949	0.0	Yes	2.722	0.028	n/a	GoodResponse	1	n/a	n/a	5	58	Cue	Win	True
550.979	4.05	Win2	0.6949	0.0	Yes	2.722	0.001	n/a	GoodResponse	1	n/a	n/a	5	58	Fixation	Win	True
555.025	0.27	Win2	0.6949	0.003	Yes	2.722	-0.003	4.0	GoodResponse	1	0.199	554.224	5	58	Target	Win	True
555.224	0.3	Win2	0.6949	0.003	Yes	2.722	-0.003	4.0	GoodResponse	1	0.199	n/a	5	58	ButtonPress	Win	True
555.309	0.43	Win2	0.6949	n/a	Yes	2.722	n/a	n/a	GoodResponse	1	n/a	n/a	5	58	Blank	Win	True
555.727	1.45	Win2	0.6949	n/a	Yes	2.722	n/a	5.0	GoodResponse	1	0.046	554.773	5	58	Feedback	Win	True
557.181	2.722	Win2	0.6949	n/a	Yes	2.722	n/a	n/a	GoodResponse	1	0.0	n/a	5	58	ISIslide	Win	True
559.923	0.25	Lose2	0.7	0.0	Yes	2.677	0.023	n/a	GoodResponse	0	n/a	n/a	5	59	Cue	AvoidedLoss	True
560.173	4.0	Lose2	0.7	0.0	Yes	2.677	0.0	n/a	GoodResponse	0	n/a	n/a	5	59	Fixation	AvoidedLoss	True
564.169	0.26	Lose2	0.7	0.004	Yes	2.677	-0.004	4.0	GoodResponse	0	0.211	563.38	5	59	Target	AvoidedLoss	True
564.38	0.3	Lose2	0.7	0.004	Yes	2.677	-0.004	4.0	GoodResponse	0	0.211	n/a	5	59	ButtonPress	AvoidedLoss	True
564.436	0.44	Lose2	0.7	n/a	Yes	2.677	n/a	n/a	GoodResponse	0	n/a	n/a	5	59	Blank	AvoidedLoss	True
564.871	1.45	Lose2	0.7	n/a	Yes	2.677	n/a	5.0	GoodResponse	0	0.024	563.895	5	59	Feedback	AvoidedLoss	True
566.325	2.677	Lose2	0.7	n/a	Yes	2.677	n/a	n/a	GoodResponse	0	0.0	n/a	5	59	ISIslide	AvoidedLoss	True
569.016	0.25	Control	0.7049	0.0	Yes	2.684	0.016	n/a	GoodResponse	0	n/a	n/a	5	60	Cue	Neutral	False
569.267	4.0	Control	0.7049	0.0	Yes	2.684	0.001	4.0	GoodResponse	0	3.871	572.138	5	60	Fixation	Neutral	False
573.138	0.3	Control	0.7049	0.0	Yes	2.684	0.001	4.0	GoodResponse	0	3.871	n/a	5	60	ButtonPress	Neutral	False
573.262	0.25	Control	0.7049	0.004	Yes	2.684	-0.004	4.0	GoodResponse	0	0.239	572.501	5	60	Target	Neutral	False
573.501	0.3	Control	0.7049	0.004	Yes	2.684	-0.004	4.0	GoodResponse	0	0.239	n/a	5	60	ButtonPress	Neutral	False
573.513	0.45	Control	0.7049	n/a	Yes	2.684	n/a	n/a	GoodResponse	0	n/a	n/a	5	60	Blank	Neutral	False
573.965	1.45	Control	0.7049	n/a	Yes	2.684	n/a	5.0	GoodResponse	0	0.005	572.97	5	60	Feedback	Neutral	False
575.419	2.684	Control	0.7049	n/a	Yes	2.684	n/a	n/a	GoodResponse	0	0.0	n/a	5	60	ISIslide	Neutral	False
578.127	0.25	Lose2	0.7097	0.0	Yes	2.973	0.027	n/a	GoodResponse	0	n/a	n/a	5	61	Cue	AvoidedLoss	True
578.378	4.0	Lose2	0.7097	0.0	Yes	2.973	0.001	n/a	GoodResponse	0	n/a	n/a	5	61	Fixation	AvoidedLoss	True
582.373	0.24	Lose2	0.7097	0.004	Yes	2.973	-0.004	4.0	GoodResponse	0	0.196	581.569	5	61	Target	AvoidedLoss	True
582.569	0.3	Lose2	0.7097	0.004	Yes	2.973	-0.004	4.0	GoodResponse	0	0.196	n/a	5	61	ButtonPress	AvoidedLoss	True
582.624	0.46	Lose2	0.7097	n/a	Yes	2.973	n/a	n/a	GoodResponse	0	n/a	n/a	5	61	Blank	AvoidedLoss	True
583.075	1.45	Lose2	0.7097	n/a	Yes	2.973	n/a	5.0	GoodResponse	0	0.014	582.089	5	61	Feedback	AvoidedLoss	True
584.529	2.973	Lose2	0.7097	n/a	Yes	2.973	n/a	n/a	GoodResponse	0	0.0	n/a	5	61	ISIslide	AvoidedLoss	True
587.522	0.25	Lose2	0.7143	0.0	Yes	2.878	0.022	n/a	GoodResponse	0	n/a	n/a	5	62	Cue	AvoidedLoss	True
587.772	3.9	Lose2	0.7143	0.001	Yes	2.878	0.0	n/a	GoodResponse	0	n/a	n/a	5	62	Fixation	AvoidedLoss	True
591.684	0.23	Lose2	0.7143	0.0	Yes	2.878	0.012	4.0	GoodResponse	0	0.191	590.875	5	62	Target	AvoidedLoss	True
591.875	0.3	Lose2	0.7143	0.0	Yes	2.878	0.012	4.0	GoodResponse	0	0.191	n/a	5	62	ButtonPress	AvoidedLoss	True
591.901	0.47	Lose2	0.7143	n/a	Yes	2.878	n/a	n/a	GoodResponse	0	n/a	n/a	5	62	Blank	AvoidedLoss	True
592.37	1.45	Lose2	0.7143	n/a	Yes	2.878	n/a	5.0	GoodResponse	0	0.036	591.406	5	62	Feedback	AvoidedLoss	True
593.824	2.878	Lose2	0.7143	n/a	Yes	2.878	n/a	n/a	GoodResponse	0	0.0	n/a	5	62	ISIslide	AvoidedLoss	True
596.716	0.25	Lose2	0.7031000000000001	0.0	No	2.634	0.016	n/a	NoResponse	-1	n/a	n/a	4	63	Cue	Loss	True
596.967	4.05	Lose2	0.7031000000000001	0.0	No	2.634	0.001	n/a	NoResponse	-1	n/a	n/a	4	63	Fixation	Loss	True
601.012	0.22	Lose2	0.7031000000000001	0.004	No	2.634	-0.004	4.0	NoResponse	-1	0.258	600.27	4	63	Target	Loss	True
601.246	0.48	Lose2	0.7031000000000001	n/a	No	2.634	n/a	n/a	NoResponse	-1	n/a	n/a	4	63	Blank	Loss	True
601.27	0.3	Lose2	0.7031000000000001	0.004	No	2.634	-0.004	4.0	NoResponse	-1	0.258	n/a	4	63	ButtonPress	Loss	True
601.714	1.45	Lose2	0.7031000000000001	n/a	No	2.634	n/a	5.0	NoResponse	-1	0.01	600.724	4	63	Feedback	Loss	True
603.168	2.634	Lose2	0.7031000000000001	n/a	No	2.634	n/a	n/a	NoResponse	-1	0.0	n/a	4	63	ISIslide	Loss	True
605.826	0.25	Win2	0.7077	0.001	Yes	3.124	0.026	n/a	GoodResponse	1	n/a	n/a	5	64	Cue	Win	True
606.077	4.15	Win2	0.7077	0.0	Yes	3.124	0.001	n/a	GoodResponse	1	n/a	n/a	5	64	Fixation	Win	True
610.223	0.21	Win2	0.7077	0.003	Yes	3.124	-0.003	4.0	GoodResponse	1	0.191	609.414	5	64	Target	Win	True
610.414	0.3	Win2	0.7077	0.003	Yes	3.124	-0.003	4.0	GoodResponse	1	0.191	n/a	5	64	ButtonPress	Win	True
610.44	0.49	Win2	0.7077	n/a	Yes	3.124	n/a	n/a	GoodResponse	1	n/a	n/a	5	64	Blank	Win	True
610.925	1.45	Win2	0.7077	n/a	Yes	3.124	n/a	5.0	GoodResponse	1	0.018	609.943	5	64	Feedback	Win	True
612.379	3.124	Win2	0.7077	n/a	Yes	3.124	n/a	n/a	GoodResponse	1	0.0	n/a	5	64	ISIslide	Win	True
615.522	0.25	Control	0.7121	0.0	Yes	2.778	0.022	n/a	GoodResponse	0	n/a	n/a	5	65	Cue	Neutral	True
615.773	4.0	Control	0.7121	0.0	Yes	2.778	0.001	n/a	GoodResponse	0	n/a	n/a	5	65	Fixation	Neutral	True
619.768	0.2	Control	0.7121	0.004	Yes	2.778	-0.004	4.0	GoodResponse	0	0.196	618.964	5	65	Target	Neutral	True
619.964	0.3	Control	0.7121	0.004	Yes	2.778	-0.004	4.0	GoodResponse	0	0.196	n/a	5	65	ButtonPress	Neutral	True
619.969	0.5	Control	0.7121	n/a	Yes	2.778	n/a	n/a	GoodResponse	0	n/a	n/a	5	65	Blank	Neutral	True
620.47	1.45	Control	0.7121	n/a	Yes	2.778	n/a	5.0	GoodResponse	0	0.033	619.503	5	65	Feedback	Neutral	True
621.925	2.778	Control	0.7121	n/a	Yes	2.778	n/a	n/a	GoodResponse	0	0.0	n/a	5	65	ISIslide	Neutral	True
624.716	0.25	Win2	0.7015	0.0	No	2.784	0.016	n/a	LatePress	0	n/a	n/a	5	66	Cue	MissedWin	True
624.967	3.9	Win2	0.7015	0.0	No	2.784	0.001	n/a	LatePress	0	n/a	n/a	5	66	Fixation	MissedWin	True
628.862	0.19	Win2	0.7015	0.004	No	2.784	-0.004	4.0	LatePress	0	0.194	628.056	5	66	Target	MissedWin	True
629.056	0.3	Win2	0.7015	0.004	No	2.784	-0.004	4.0	LatePress	0	0.194	n/a	5	66	ButtonPress	MissedWin	True
629.063	0.51	Win2	0.7015	n/a	No	2.784	n/a	n/a	LatePress	0	n/a	n/a	5	66	Blank	MissedWin	True
629.564	1.45	Win2	0.7015	n/a	No	2.784	n/a	5.0	LatePress	0	0.013	628.577	5	66	Feedback	MissedWin	True
631.018	2.784	Win2	0.7015	n/a	No	2.784	n/a	n/a	LatePress	0	0.0	n/a	5	66	ISIslide	MissedWin	True
633.827	0.25	Control	0.6912	0.0	No	2.723	0.027	n/a	NoResponse	0	n/a	n/a	5	67	Cue	Neutral	True
634.078	3.95	Control	0.6912	0.0	No	2.723	0.001	n/a	NoResponse	0	n/a	n/a	5	67	Fixation	Neutral	True
638.023	0.18	Control	0.6912	0.004	No	2.723	-0.004	4.0	NoResponse	0	0.215	637.238	5	67	Target	Neutral	True
638.207	0.52	Control	0.6912	n/a	No	2.723	n/a	n/a	NoResponse	0	n/a	n/a	5	67	Blank	Neutral	True
638.238	0.3	Control	0.6912	0.004	No	2.723	-0.004	4.0	NoResponse	0	0.215	n/a	5	67	ButtonPress	Neutral	True
638.725	1.45	Control	0.6912	n/a	No	2.723	n/a	5.0	NoResponse	0	0.022	637.747	5	67	Feedback	Neutral	True
640.179	2.723	Control	0.6912	n/a	No	2.723	n/a	n/a	NoResponse	0	0.0	n/a	5	67	ISIslide	Neutral	True
642.921	0.25	Win2	0.6812	0.0	No	3.079	0.021	n/a	NoResponse	0	n/a	n/a	5	68	Cue	MissedWin	True
643.171	4.0	Win2	0.6812	0.0	No	3.079	0.0	n/a	NoResponse	0	n/a	n/a	5	68	Fixation	MissedWin	True
647.167	0.17	Win2	0.6812	0.004	No	3.079	-0.004	4.0	NoResponse	0	0.199	646.366	5	68	Target	MissedWin	True
647.351	0.53	Win2	0.6812	n/a	No	3.079	n/a	n/a	NoResponse	0	n/a	n/a	5	68	Blank	MissedWin	True
647.366	0.3	Win2	0.6812	0.004	No	3.079	-0.004	4.0	NoResponse	0	0.199	n/a	5	68	ButtonPress	MissedWin	True
647.869	1.45	Win2	0.6812	n/a	No	3.079	n/a	5.0	NoResponse	0	0.0	646.869	5	68	Feedback	MissedWin	True
649.323	3.079	Win2	0.6812	n/a	No	3.079	n/a	n/a	NoResponse	0	0.0	n/a	5	68	ISIslide	MissedWin	True
652.416	0.25	Win2	0.6857	0.0	Yes	3.234	0.016	n/a	GoodResponse	1	n/a	n/a	6	69	Cue	Win	True
652.666	3.95	Win2	0.6857	0.001	Yes	3.234	0.0	n/a	GoodResponse	1	n/a	n/a	6	69	Fixation	Win	True
656.612	0.16	Win2	0.6857	0.004	Yes	3.234	-0.004	4.0	GoodResponse	1	0.159	655.771	6	69	Target	Win	True
656.771	0.3	Win2	0.6857	0.004	Yes	3.234	-0.004	4.0	GoodResponse	1	0.159	n/a	6	69	ButtonPress	Win	True
656.779	0.54	Win2	0.6857	n/a	Yes	3.234	n/a	n/a	GoodResponse	1	n/a	n/a	6	69	Blank	Win	True
657.314	1.45	Win2	0.6857	n/a	Yes	3.234	n/a	5.0	GoodResponse	1	0.019	656.333	6	69	Feedback	Win	True
658.768	3.234	Win2	0.6857	n/a	Yes	3.234	n/a	n/a	GoodResponse	1	0.0	n/a	6	69	ISIslide	Win	True
662.028	0.25	Lose2	0.6761	0.0	No	3.022	0.028	n/a	NoResponse	-1	n/a	n/a	5	70	Cue	Loss	True
662.279	4.05	Lose2	0.6761	0.0	No	3.022	0.001	n/a	NoResponse	-1	n/a	n/a	5	70	Fixation	Loss	True
666.324	0.15	Lose2	0.6761	0.004	No	3.022	-0.004	4.0	NoResponse	-1	0.206	665.53	5	70	Target	Loss	True
666.474	0.55	Lose2	0.6761	n/a	No	3.022	n/a	n/a	NoResponse	-1	n/a	n/a	5	70	Blank	Loss	True
666.53	0.3	Lose2	0.6761	0.004	No	3.022	-0.004	4.0	NoResponse	-1	0.206	n/a	5	70	ButtonPress	Loss	True
667.026	1.45	Lose2	0.6761	n/a	No	3.022	n/a	5.0	NoResponse	-1	0.013	666.039	5	70	Feedback	Loss	True
668.48	3.022	Lose2	0.6761	n/a	No	3.022	n/a	n/a	NoResponse	-1	0.0	n/a	5	70	ISIslide	Loss	True
671.523	0.25	Win2	0.6667000000000001	0.0	No	2.727	0.023	n/a	NoResponse	0	n/a	n/a	5	71	Cue	MissedWin	True
671.774	4.05	Win2	0.6667000000000001	0.0	No	2.727	0.001	n/a	NoResponse	0	n/a	n/a	5	71	Fixation	MissedWin	True
675.819	0.15	Win2	0.6667000000000001	0.004	No	2.727	-0.004	4.0	NoResponse	0	0.226	675.045	5	71	Target	MissedWin	True
675.969	0.55	Win2	0.6667000000000001	n/a	No	2.727	n/a	n/a	NoResponse	0	n/a	n/a	5	71	Blank	MissedWin	True
676.045	0.3	Win2	0.6667000000000001	0.004	No	2.727	-0.004	4.0	NoResponse	0	0.226	n/a	5	71	ButtonPress	MissedWin	True
676.521	1.45	Win2	0.6667000000000001	n/a	No	2.727	n/a	5.0	NoResponse	0	0.031	675.552	5	71	Feedback	MissedWin	True
677.975	2.727	Win2	0.6667000000000001	n/a	No	2.727	n/a	n/a	NoResponse	0	0.0	n/a	5	71	ISIslide	MissedWin	True
680.717	0.25	Win2	0.6575	0.0	No	2.783	0.017	n/a	NoResponse	0	n/a	n/a	5	72	Cue	MissedWin	True
680.968	4.1	Win2	0.6575	0.0	No	2.783	0.001	n/a	NoResponse	0	n/a	n/a	5	72	Fixation	MissedWin	True
685.063	0.15	Win2	0.6575	0.004	No	2.783	-0.004	4.0	NoResponse	0	0.219	684.282	5	72	Target	MissedWin	True
685.214	0.55	Win2	0.6575	n/a	No	2.783	n/a	n/a	NoResponse	0	n/a	n/a	5	72	Blank	MissedWin	True
685.282	0.3	Win2	0.6575	0.004	No	2.783	-0.004	4.0	NoResponse	0	0.219	n/a	5	72	ButtonPress	MissedWin	True
685.765	1.45	Win2	0.6575	n/a	No	2.783	n/a	5.0	NoResponse	0	0.006	684.771	5	72	Feedback	MissedWin	True
687.22	2.783	Win2	0.6575	n/a	No	2.783	n/a	n/a	NoResponse	0	0.0	n/a	5	72	ISIslide	MissedWin	True
690.028	0.25	Win2	0.6486	0.0	No	2.672	0.028	n/a	NoResponse	0	n/a	n/a	5	73	Cue	MissedWin	True
690.279	4.0	Win2	0.6486	0.0	No	2.672	0.001	n/a	NoResponse	0	n/a	n/a	5	73	Fixation	MissedWin	True
694.274	0.15	Win2	0.6486	0.004	No	2.672	-0.004	4.0	NoResponse	0	0.184	693.458	5	73	Target	MissedWin	True
694.425	0.55	Win2	0.6486	n/a	No	2.672	n/a	n/a	NoResponse	0	n/a	n/a	5	73	Blank	MissedWin	True
694.458	0.3	Win2	0.6486	0.004	No	2.672	-0.004	4.0	NoResponse	0	0.184	n/a	5	73	ButtonPress	MissedWin	True
694.976	1.45	Win2	0.6486	n/a	No	2.672	n/a	5.0	NoResponse	0	0.015	693.991	5	73	Feedback	MissedWin	True
696.431	2.672	Win2	0.6486	n/a	No	2.672	n/a	n/a	NoResponse	0	0.0	n/a	5	73	ISIslide	MissedWin	True
699.122	0.25	Lose2	0.64	0.0	No	2.628	0.022	n/a	NoResponse	-1	n/a	n/a	4	74	Cue	Loss	True
699.373	4.05	Lose2	0.64	0.0	No	2.628	0.001	n/a	NoResponse	-1	n/a	n/a	4	74	Fixation	Loss	True
703.418	0.16	Lose2	0.64	0.004	No	2.628	-0.004	4.0	NoResponse	-1	0.23	702.648	4	74	Target	Loss	True
703.585	0.54	Lose2	0.64	n/a	No	2.628	n/a	n/a	NoResponse	-1	n/a	n/a	4	74	Blank	Loss	True
703.648	0.3	Lose2	0.64	0.004	No	2.628	-0.004	4.0	NoResponse	-1	0.23	n/a	4	74	ButtonPress	Loss	True
704.12	1.45	Lose2	0.64	n/a	No	2.628	n/a	5.0	NoResponse	-1	0.042	703.162	4	74	Feedback	Loss	True
705.575	2.628	Lose2	0.64	n/a	No	2.628	n/a	n/a	NoResponse	-1	0.0	n/a	4	74	ISIslide	Loss	True
708.216	0.25	Lose2	0.6446999999999999	0.0	Yes	2.934	0.016	n/a	GoodResponse	0	n/a	n/a	4	75	Cue	AvoidedLoss	True
708.467	3.95	Lose2	0.6446999999999999	0.0	Yes	2.934	0.001	n/a	GoodResponse	0	n/a	n/a	4	75	Fixation	AvoidedLoss	True
712.412	0.17	Lose2	0.6446999999999999	0.004	Yes	2.934	-0.004	4.0	GoodResponse	0	0.162	711.574	4	75	Target	AvoidedLoss	True
712.574	0.3	Lose2	0.6446999999999999	0.004	Yes	2.934	-0.004	4.0	GoodResponse	0	0.162	n/a	4	75	ButtonPress	AvoidedLoss	True
712.596	0.53	Lose2	0.6446999999999999	n/a	Yes	2.934	n/a	n/a	GoodResponse	0	n/a	n/a	4	75	Blank	AvoidedLoss	True
713.114	1.45	Lose2	0.6446999999999999	n/a	Yes	2.934	n/a	5.0	GoodResponse	0	0.022	712.136	4	75	Feedback	AvoidedLoss	True
714.568	2.934	Lose2	0.6446999999999999	n/a	Yes	2.934	n/a	n/a	GoodResponse	0	0.0	n/a	4	75	ISIslide	AvoidedLoss	True
717.527	0.25	Control	0.6364	0.0	No	3.223	0.027	n/a	NoResponse	0	n/a	n/a	4	76	Cue	Neutral	True
717.778	4.05	Control	0.6364	0.0	No	3.223	0.001	n/a	NoResponse	0	n/a	n/a	4	76	Fixation	Neutral	True
721.823	0.18	Control	0.6364	0.004	No	3.223	-0.004	4.0	NoResponse	0	0.234	721.057	4	76	Target	Neutral	True
722.007	0.52	Control	0.6364	n/a	No	3.223	n/a	n/a	NoResponse	0	n/a	n/a	4	76	Blank	Neutral	True
722.057	0.3	Control	0.6364	0.004	No	3.223	-0.004	4.0	NoResponse	0	0.234	n/a	4	76	ButtonPress	Neutral	True
722.525	1.45	Control	0.6364	n/a	No	3.223	n/a	5.0	NoResponse	0	0.026	721.551	4	76	Feedback	Neutral	True
723.98	3.223	Control	0.6364	n/a	No	3.223	n/a	n/a	NoResponse	0	0.0	n/a	4	76	ISIslide	Neutral	True
727.223	0.25	Lose2	0.6282	0.0	No	2.577	0.023	n/a	NoResponse	-1	n/a	n/a	3	77	Cue	Loss	True
727.473	3.95	Lose2	0.6282	0.001	No	2.577	0.0	n/a	NoResponse	-1	n/a	n/a	3	77	Fixation	Loss	True
731.419	0.19	Lose2	0.6282	0.004	No	2.577	-0.004	4.0	NoResponse	-1	0.207	730.626	3	77	Target	Loss	True
731.619	0.51	Lose2	0.6282	n/a	No	2.577	n/a	n/a	NoResponse	-1	n/a	n/a	3	77	Blank	Loss	True
731.626	0.3	Lose2	0.6282	0.004	No	2.577	-0.004	4.0	NoResponse	-1	0.207	n/a	3	77	ButtonPress	Loss	True
732.121	1.45	Lose2	0.6282	n/a	No	2.577	n/a	5.0	NoResponse	-1	0.04	731.161	3	77	Feedback	Loss	True
733.575	2.577	Lose2	0.6282	n/a	No	2.577	n/a	n/a	NoResponse	-1	0.0	n/a	3	77	ISIslide	Loss	True
