onset	duration	cue_type	current_mean_accuracy	duration_error	is_hit	isi_adjusted	onset_delay	response	response_type	reward	rt	rt_time	total_reward	trial_number	trial_phase	trial_type	one_press
11.096	0.25	Control	1.0	0.0	Yes	2.954	-0.004	n/a	GoodResponse	0	n/a	n/a	0	0	Cue	Neutral	True
11.347	3.85	Control	1.0	0.0	Yes	2.954	0.001	n/a	GoodResponse	0	n/a	n/a	0	0	Fixation	Neutral	True
15.192	0.4	Control	1.0	0.004	Yes	2.954	-0.004	2.0	GoodResponse	0	0.173	14.365	0	0	Target	Neutral	True
15.365	0.3	Control	1.0	0.004	Yes	2.954	-0.004	2.0	GoodResponse	0	0.173	n/a	0	0	ButtonPress	Neutral	True
15.593	0.3	Control	1.0	n/a	Yes	2.954	n/a	n/a	GoodResponse	0	n/a	n/a	0	0	Blank	Neutral	True
15.894	1.45	Control	1.0	n/a	Yes	2.954	n/a	5.0	GoodResponse	0	0.033	14.927	0	0	Feedback	Neutral	True
17.348	2.954	Control	1.0	n/a	Yes	2.954	n/a	n/a	GoodResponse	0	0.0	n/a	0	0	ISIslide	Neutral	True
20.391	0.25	Lose2	1.0	0.0	Yes	2.709	0.091	n/a	GoodResponse	0	n/a	n/a	0	1	Cue	AvoidedLoss	True
20.642	4.0	Lose2	1.0	0.0	Yes	2.709	0.001	n/a	GoodResponse	0	n/a	n/a	0	1	Fixation	AvoidedLoss	True
24.637	0.39	Lose2	1.0	0.004	Yes	2.709	-0.004	2.0	GoodResponse	0	0.189	23.826	0	1	Target	AvoidedLoss	True
24.826	0.3	Lose2	1.0	0.004	Yes	2.709	-0.004	2.0	GoodResponse	0	0.189	n/a	0	1	ButtonPress	AvoidedLoss	True
25.038	0.31	Lose2	1.0	n/a	Yes	2.709	n/a	n/a	GoodResponse	0	n/a	n/a	0	1	Blank	AvoidedLoss	True
25.339	1.45	Lose2	1.0	n/a	Yes	2.709	n/a	5.0	GoodResponse	0	0.002	24.341	0	1	Feedback	AvoidedLoss	True
26.793	2.709	Lose2	1.0	n/a	Yes	2.709	n/a	n/a	GoodResponse	0	0.0	n/a	0	1	ISIslide	AvoidedLoss	True
29.518	0.25	Control	1.0	0.0	Yes	2.582	0.018	n/a	GoodResponse	0	n/a	n/a	0	2	Cue	Neutral	True
29.769	4.1	Control	1.0	0.0	Yes	2.582	0.001	n/a	GoodResponse	0	n/a	n/a	0	2	Fixation	Neutral	True
33.864	0.38	Control	1.0	0.004	Yes	2.582	-0.004	2.0	GoodResponse	0	0.181	33.045	0	2	Target	Neutral	True
34.045	0.3	Control	1.0	0.004	Yes	2.582	-0.004	2.0	GoodResponse	0	0.181	n/a	0	2	ButtonPress	Neutral	True
34.249	0.32	Control	1.0	n/a	Yes	2.582	n/a	n/a	GoodResponse	0	n/a	n/a	0	2	Blank	Neutral	True
34.567	1.45	Control	1.0	n/a	Yes	2.582	n/a	5.0	GoodResponse	0	0.043	33.61	0	2	Feedback	Neutral	True
36.021	2.582	Control	1.0	n/a	Yes	2.582	n/a	n/a	GoodResponse	0	0.0	n/a	0	2	ISIslide	Neutral	True
38.696	0.25	Win2	1.0	0.0	Yes	2.754	0.096	n/a	GoodResponse	1	n/a	n/a	1	3	Cue	Win	True
38.946	3.95	Win2	1.0	0.0	Yes	2.754	0.0	n/a	GoodResponse	1	n/a	n/a	1	3	Fixation	Win	True
42.891	0.37	Win2	1.0	0.005	Yes	2.754	-0.005	2.0	GoodResponse	1	0.229	42.12	1	3	Target	Win	True
43.12	0.3	Win2	1.0	0.005	Yes	2.754	-0.005	2.0	GoodResponse	1	0.229	n/a	1	3	ButtonPress	Win	True
43.276	0.33	Win2	1.0	n/a	Yes	2.754	n/a	n/a	GoodResponse	1	n/a	n/a	1	3	Blank	Win	True
43.594	1.45	Win2	1.0	n/a	Yes	2.754	n/a	5.0	GoodResponse	1	0.039	42.633	1	3	Feedback	Win	True
45.048	2.754	Win2	1.0	n/a	Yes	2.754	n/a	n/a	GoodResponse	1	0.0	n/a	1	3	ISIslide	Win	True
47.823	0.25	Win2	1.0	0.0	Yes	3.277	0.023	n/a	GoodResponse	1	n/a	n/a	2	4	Cue	Win	True
48.074	4.0	Win2	1.0	0.0	Yes	3.277	0.001	n/a	GoodResponse	1	n/a	n/a	2	4	Fixation	Win	True
52.069	0.36	Win2	1.0	0.004	Yes	3.277	-0.004	2.0	GoodResponse	1	0.236	51.305	2	4	Target	Win	True
52.305	0.3	Win2	1.0	0.004	Yes	3.277	-0.004	2.0	GoodResponse	1	0.236	n/a	2	4	ButtonPress	Win	True
52.437	0.34	Win2	1.0	n/a	Yes	3.277	n/a	n/a	GoodResponse	1	n/a	n/a	2	4	Blank	Win	True
52.771	1.45	Win2	1.0	n/a	Yes	3.277	n/a	5.0	GoodResponse	1	0.033	51.804	2	4	Feedback	Win	True
54.225	3.277	Win2	1.0	n/a	Yes	3.277	n/a	n/a	GoodResponse	1	0.0	n/a	2	4	ISIslide	Win	True
57.519	0.25	Win2	1.0	0.0	Yes	2.781	0.019	n/a	GoodResponse	1	n/a	n/a	3	5	Cue	Win	True
57.769	4.0	Win2	1.0	0.0	Yes	2.781	0.0	n/a	GoodResponse	1	n/a	n/a	3	5	Fixation	Win	True
61.765	0.35	Win2	1.0	0.004	Yes	2.781	-0.004	2.0	GoodResponse	1	0.194	60.959	3	5	Target	Win	True
61.959	0.3	Win2	1.0	0.004	Yes	2.781	-0.004	2.0	GoodResponse	1	0.194	n/a	3	5	ButtonPress	Win	True
62.116	0.35	Win2	1.0	n/a	Yes	2.781	n/a	n/a	GoodResponse	1	n/a	n/a	3	5	Blank	Win	True
62.467	1.45	Win2	1.0	n/a	Yes	2.781	n/a	5.0	GoodResponse	1	0.044	61.511	3	5	Feedback	Win	True
63.921	2.781	Win2	1.0	n/a	Yes	2.781	n/a	n/a	GoodResponse	1	0.0	n/a	3	5	ISIslide	Win	True
66.729	0.25	Lose2	1.0	0.0	Yes	2.721	0.029	n/a	GoodResponse	0	n/a	n/a	3	6	Cue	AvoidedLoss	True
66.98	3.95	Lose2	1.0	0.0	Yes	2.721	0.001	n/a	GoodResponse	0	n/a	n/a	3	6	Fixation	AvoidedLoss	True
70.925	0.34	Lose2	1.0	0.004	Yes	2.721	-0.004	2.0	GoodResponse	0	0.204	70.129	3	6	Target	AvoidedLoss	True
71.129	0.3	Lose2	1.0	0.004	Yes	2.721	-0.004	2.0	GoodResponse	0	0.204	n/a	3	6	ButtonPress	AvoidedLoss	True
71.276	0.36	Lose2	1.0	n/a	Yes	2.721	n/a	n/a	GoodResponse	0	n/a	n/a	3	6	Blank	AvoidedLoss	True
71.627	1.45	Lose2	1.0	n/a	Yes	2.721	n/a	5.0	GoodResponse	0	0.007	70.634	3	6	Feedback	AvoidedLoss	True
73.082	2.721	Lose2	1.0	n/a	Yes	2.721	n/a	n/a	GoodResponse	0	0.0	n/a	3	6	ISIslide	AvoidedLoss	True
75.823	0.25	Lose2	1.0	0.0	Yes	4.027	0.023	n/a	GoodResponse	0	n/a	n/a	3	7	Cue	AvoidedLoss	True
76.074	4.05	Lose2	1.0	0.0	Yes	4.027	0.001	n/a	GoodResponse	0	n/a	n/a	3	7	Fixation	AvoidedLoss	True
80.119	0.33	Lose2	1.0	0.004	Yes	4.027	-0.004	2.0	GoodResponse	0	0.199	79.318	3	7	Target	AvoidedLoss	True
80.318	0.3	Lose2	1.0	0.004	Yes	4.027	-0.004	2.0	GoodResponse	0	0.199	n/a	3	7	ButtonPress	AvoidedLoss	True
80.454	0.37	Lose2	1.0	n/a	Yes	4.027	n/a	n/a	GoodResponse	0	n/a	n/a	3	7	Blank	AvoidedLoss	True
80.822	1.45	Lose2	1.0	n/a	Yes	4.027	n/a	5.0	GoodResponse	0	0.03	79.852	3	7	Feedback	AvoidedLoss	True
82.276	4.027	Lose2	1.0	n/a	Yes	4.027	n/a	n/a	GoodResponse	0	0.0	n/a	3	7	ISIslide	AvoidedLoss	True
86.321	0.25	Lose2	1.0	0.0	Yes	3.029	0.021	n/a	GoodResponse	0	n/a	n/a	3	8	Cue	AvoidedLoss	True
86.572	3.95	Lose2	1.0	0.0	Yes	3.029	0.001	n/a	GoodResponse	0	n/a	n/a	3	8	Fixation	AvoidedLoss	True
90.517	0.32	Lose2	1.0	0.004	Yes	3.029	-0.004	2.0	GoodResponse	0	0.233	89.75	3	8	Target	AvoidedLoss	True
90.75	0.3	Lose2	1.0	0.004	Yes	3.029	-0.004	2.0	GoodResponse	0	0.233	n/a	3	8	ButtonPress	AvoidedLoss	True
90.852	0.38	Lose2	1.0	n/a	Yes	3.029	n/a	n/a	GoodResponse	0	n/a	n/a	3	8	Blank	AvoidedLoss	True
91.219	1.45	Lose2	1.0	n/a	Yes	3.029	n/a	5.0	GoodResponse	0	0.024	90.243	3	8	Feedback	AvoidedLoss	True
92.674	3.029	Lose2	1.0	n/a	Yes	3.029	n/a	n/a	GoodResponse	0	0.0	n/a	3	8	ISIslide	AvoidedLoss	True
95.716	0.25	Lose2	1.0	0.0	Yes	3.134	0.016	n/a	GoodResponse	0	n/a	n/a	3	9	Cue	AvoidedLoss	True
95.967	3.95	Lose2	1.0	0.0	Yes	3.134	0.001	n/a	GoodResponse	0	n/a	n/a	3	9	Fixation	AvoidedLoss	True
99.912	0.31	Lose2	1.0	0.004	Yes	3.134	-0.004	2.0	GoodResponse	0	0.173	99.085	3	9	Target	AvoidedLoss	True
100.085	0.3	Lose2	1.0	0.004	Yes	3.134	-0.004	2.0	GoodResponse	0	0.173	n/a	3	9	ButtonPress	AvoidedLoss	True
100.23	0.39	Lose2	1.0	n/a	Yes	3.134	n/a	n/a	GoodResponse	0	n/a	n/a	3	9	Blank	AvoidedLoss	True
100.614	1.45	Lose2	1.0	n/a	Yes	3.134	n/a	5.0	GoodResponse	0	0.043	99.657	3	9	Feedback	AvoidedLoss	True
102.068	3.134	Lose2	1.0	n/a	Yes	3.134	n/a	n/a	GoodResponse	0	0.0	n/a	3	9	ISIslide	AvoidedLoss	True
105.228	0.25	Control	1.0	0.0	Yes	3.272	0.028	n/a	GoodResponse	0	n/a	n/a	3	10	Cue	Neutral	True
105.479	4.0	Control	1.0	0.0	Yes	3.272	0.001	n/a	GoodResponse	0	n/a	n/a	3	10	Fixation	Neutral	True
109.474	0.3	Control	1.0	0.004	Yes	3.272	-0.004	2.0	GoodResponse	0	0.184	108.658	3	10	Target	Neutral	True
109.658	0.3	Control	1.0	0.004	Yes	3.272	-0.004	2.0	GoodResponse	0	0.184	n/a	3	10	ButtonPress	Neutral	True
109.775	0.4	Control	1.0	n/a	Yes	3.272	n/a	n/a	GoodResponse	0	n/a	n/a	3	10	Blank	Neutral	True
110.176	1.45	Control	1.0	n/a	Yes	3.272	n/a	5.0	GoodResponse	0	0.042	109.218	3	10	Feedback	Neutral	True
111.63	3.272	Control	1.0	n/a	Yes	3.272	n/a	n/a	GoodResponse	0	0.0	n/a	3	10	ISIslide	Neutral	True
114.923	0.25	Lose2	1.0	0.001	Yes	2.727	0.023	n/a	GoodResponse	0	n/a	n/a	3	11	Cue	AvoidedLoss	True
115.174	4.05	Lose2	1.0	0.0	Yes	2.727	0.001	n/a	GoodResponse	0	n/a	n/a	3	11	Fixation	AvoidedLoss	True
119.22	0.29	Lose2	1.0	0.003	Yes	2.727	-0.003	2.0	GoodResponse	0	0.191	118.411	3	11	Target	AvoidedLoss	True
119.411	0.3	Lose2	1.0	0.003	Yes	2.727	-0.003	2.0	GoodResponse	0	0.191	n/a	3	11	ButtonPress	AvoidedLoss	True
119.521	0.41	Lose2	1.0	n/a	Yes	2.727	n/a	n/a	GoodResponse	0	n/a	n/a	3	11	Blank	AvoidedLoss	True
119.922	1.45	Lose2	1.0	n/a	Yes	2.727	n/a	5.0	GoodResponse	0	0.006	118.928	3	11	Feedback	AvoidedLoss	True
121.376	2.727	Lose2	1.0	n/a	Yes	2.727	n/a	n/a	GoodResponse	0	0.0	n/a	3	11	ISIslide	AvoidedLoss	True
124.118	0.25	Control	0.9231	0.0	No	2.982	0.018	n/a	NoResponse	0	n/a	n/a	3	12	Cue	Neutral	True
124.368	3.9	Control	0.9231	0.0	No	2.982	0.0	n/a	NoResponse	0	n/a	n/a	3	12	Fixation	Neutral	True
128.28	0.28	Control	0.9231	0.0	No	2.982	0.012	2.0	NoResponse	0	0.329	127.609	3	12	Target	Neutral	True
128.548	0.42	Control	0.9231	n/a	No	2.982	n/a	n/a	NoResponse	0	n/a	n/a	3	12	Blank	Neutral	True
128.609	0.3	Control	0.9231	0.0	No	2.982	0.012	2.0	NoResponse	0	0.329	n/a	3	12	ButtonPress	Neutral	True
128.965	1.45	Control	0.9231	n/a	No	2.982	n/a	5.0	NoResponse	0	0.033	127.998	3	12	Feedback	Neutral	True
130.42	2.982	Control	0.9231	n/a	No	2.982	n/a	n/a	NoResponse	0	0.0	n/a	3	12	ISIslide	Neutral	True
133.429	0.25	Control	0.9286	0.0	Yes	2.771	0.029	n/a	GoodResponse	0	n/a	n/a	3	13	Cue	Neutral	True
133.68	4.0	Control	0.9286	0.0	Yes	2.771	0.001	n/a	GoodResponse	0	n/a	n/a	3	13	Fixation	Neutral	True
137.675	0.27	Control	0.9286	0.004	Yes	2.771	-0.004	2.0	GoodResponse	0	0.195	136.87	3	13	Target	Neutral	True
137.87	0.3	Control	0.9286	0.004	Yes	2.771	-0.004	2.0	GoodResponse	0	0.195	n/a	3	13	ButtonPress	Neutral	True
137.959	0.43	Control	0.9286	n/a	Yes	2.771	n/a	n/a	GoodResponse	0	n/a	n/a	3	13	Blank	Neutral	True
138.377	1.45	Control	0.9286	n/a	Yes	2.771	n/a	5.0	GoodResponse	0	0.036	137.413	3	13	Feedback	Neutral	True
139.831	2.771	Control	0.9286	n/a	Yes	2.771	n/a	n/a	GoodResponse	0	0.0	n/a	3	13	ISIslide	Neutral	True
142.623	0.25	Win2	0.9333	0.0	Yes	2.677	0.023	n/a	GoodResponse	1	n/a	n/a	4	14	Cue	Win	True
142.874	4.1	Win2	0.9333	0.0	Yes	2.677	0.001	n/a	GoodResponse	1	n/a	n/a	4	14	Fixation	Win	True
146.969	0.26	Win2	0.9333	0.004	Yes	2.677	-0.004	2.0	GoodResponse	1	0.186	146.155	4	14	Target	Win	True
147.155	0.3	Win2	0.9333	0.004	Yes	2.677	-0.004	2.0	GoodResponse	1	0.186	n/a	4	14	ButtonPress	Win	True
147.237	0.44	Win2	0.9333	n/a	Yes	2.677	n/a	n/a	GoodResponse	1	n/a	n/a	4	14	Blank	Win	True
147.671	1.45	Win2	0.9333	n/a	Yes	2.677	n/a	5.0	GoodResponse	1	0.01	146.681	4	14	Feedback	Win	True
149.126	2.677	Win2	0.9333	n/a	Yes	2.677	n/a	n/a	GoodResponse	1	0.0	n/a	4	14	ISIslide	Win	True
151.817	0.25	Control	0.9375	0.0	Yes	2.983	0.017	n/a	GoodResponse	0	n/a	n/a	4	15	Cue	Neutral	True
152.068	4.0	Control	0.9375	0.0	Yes	2.983	0.001	n/a	GoodResponse	0	n/a	n/a	4	15	Fixation	Neutral	True
156.063	0.25	Control	0.9375	0.004	Yes	2.983	-0.004	2.0	GoodResponse	0	0.201	155.264	4	15	Target	Neutral	True
156.264	0.3	Control	0.9375	0.004	Yes	2.983	-0.004	2.0	GoodResponse	0	0.201	n/a	4	15	ButtonPress	Neutral	True
156.314	0.45	Control	0.9375	n/a	Yes	2.983	n/a	n/a	GoodResponse	0	n/a	n/a	4	15	Blank	Neutral	True
156.765	1.45	Control	0.9375	n/a	Yes	2.983	n/a	5.0	GoodResponse	0	0.038	155.803	4	15	Feedback	Neutral	True
158.22	2.983	Control	0.9375	n/a	Yes	2.983	n/a	n/a	GoodResponse	0	0.0	n/a	4	15	ISIslide	Neutral	True
161.229	0.25	Win2	0.8824	0.0	No	2.871	0.029	n/a	PrematurePress	0	n/a	n/a	4	16	Cue	MissedWin	True
161.479	4.0	Win2	0.8824	0.0	No	2.871	0.0	n/a	PrematurePress	0	n/a	n/a	4	16	Fixation	MissedWin	True
165.475	0.24	Win2	0.8824	0.004	No	2.871	-0.004	2.0	PrematurePress	0	0.05	164.525	4	16	Target	MissedWin	True
165.525	0.3	Win2	0.8824	0.004	No	2.871	-0.004	2.0	PrematurePress	0	0.05	n/a	4	16	ButtonPress	MissedWin	True
165.725	0.46	Win2	0.8824	n/a	No	2.871	n/a	n/a	PrematurePress	0	n/a	n/a	4	16	Blank	MissedWin	True
166.177	1.45	Win2	0.8824	n/a	No	2.871	n/a	5.0	PrematurePress	0	0.041	165.218	4	16	Feedback	MissedWin	True
167.631	2.871	Win2	0.8824	n/a	No	2.871	n/a	n/a	PrematurePress	0	0.0	n/a	4	16	ISIslide	MissedWin	True
170.523	0.25	Lose2	0.8889	0.0	Yes	2.727	0.023	n/a	GoodResponse	0	n/a	n/a	4	17	Cue	AvoidedLoss	True
170.774	3.95	Lose2	0.8889	0.0	Yes	2.727	0.001	n/a	GoodResponse	0	n/a	n/a	4	17	Fixation	AvoidedLoss	True
174.719	0.23	Lose2	0.8889	0.004	Yes	2.727	-0.004	2.0	GoodResponse	0	0.198	173.917	4	17	Target	AvoidedLoss	True
174.917	0.3	Lose2	0.8889	0.004	Yes	2.727	-0.004	2.0	GoodResponse	0	0.198	n/a	4	17	ButtonPress	AvoidedLoss	True
174.953	0.47	Lose2	0.8889	n/a	Yes	2.727	n/a	n/a	GoodResponse	0	n/a	n/a	4	17	Blank	AvoidedLoss	True
175.421	1.45	Lose2	0.8889	n/a	Yes	2.727	n/a	5.0	GoodResponse	0	0.016	174.437	4	17	Feedback	AvoidedLoss	True
176.875	2.727	Lose2	0.8889	n/a	Yes	2.727	n/a	n/a	GoodResponse	0	0.0	n/a	4	17	ISIslide	AvoidedLoss	True
179.617	0.25	Lose2	0.8946999999999999	0.0	Yes	2.733	0.017	n/a	GoodResponse	0	n/a	n/a	4	18	Cue	AvoidedLoss	False
179.868	4.05	Lose2	0.8946999999999999	0.0	Yes	2.733	0.001	2.0	GoodResponse	0	3.215	182.083	4	18	Fixation	AvoidedLoss	False
183.083	0.3	Lose2	0.8946999999999999	0.0	Yes	2.733	0.001	2.0	GoodResponse	0	3.215	n/a	4	18	ButtonPress	AvoidedLoss	False
183.913	0.22	Lose2	0.8946999999999999	0.004	Yes	2.733	-0.004	2.0	GoodResponse	0	0.194	183.107	4	18	Target	AvoidedLoss	False
184.107	0.3	Lose2	0.8946999999999999	0.004	Yes	2.733	-0.004	2.0	GoodResponse	0	0.194	n/a	4	18	ButtonPress	AvoidedLoss	False
184.147	0.48	Lose2	0.8946999999999999	n/a	Yes	2.733	n/a	n/a	GoodResponse	0	n/a	n/a	4	18	Blank	AvoidedLoss	False
184.615	1.45	Lose2	0.8946999999999999	n/a	Yes	2.733	n/a	5.0	GoodResponse	0	0.041	183.656	4	18	Feedback	AvoidedLoss	False
186.07	2.733	Lose2	0.8946999999999999	n/a	Yes	2.733	n/a	n/a	GoodResponse	0	0.0	n/a	4	18	ISIslide	AvoidedLoss	False
188.828	0.25	Control	0.9	0.0	Yes	2.922	0.028	n/a	GoodResponse	0	n/a	n/a	4	19	Cue	Neutral	True
189.079	3.95	Control	0.9	0.0	Yes	2.922	0.001	n/a	GoodResponse	0	n/a	n/a	4	19	Fixation	Neutral	True
193.024	0.21	Control	0.9	0.004	Yes	2.922	-0.004	2.0	GoodResponse	0	0.181	192.205	4	19	Target	Neutral	True
193.205	0.3	Control	0.9	0.004	Yes	2.922	-0.004	2.0	GoodResponse	0	0.181	n/a	4	19	ButtonPress	Neutral	True
193.241	0.49	Control	0.9	n/a	Yes	2.922	n/a	n/a	GoodResponse	0	n/a	n/a	4	19	Blank	Neutral	True
193.726	1.45	Control	0.9	n/a	Yes	2.922	n/a	5.0	GoodResponse	0	0.006	192.732	4	19	Feedback	Neutral	True
195.18	2.922	Control	0.9	n/a	Yes	2.922	n/a	n/a	GoodResponse	0	0.0	n/a	4	19	ISIslide	Neutral	True
198.122	0.25	Control	0.8571	0.0	No	2.628	0.022	n/a	NoResponse	0	n/a	n/a	4	20	Cue	Neutral	True
198.373	4.05	Control	0.8571	0.0	No	2.628	0.001	n/a	NoResponse	0	n/a	n/a	4	20	Fixation	Neutral	True
202.418	0.2	Control	0.8571	0.004	No	2.628	-0.004	2.0	NoResponse	0	0.212	201.63	4	20	Target	Neutral	True
202.619	0.5	Control	0.8571	n/a	No	2.628	n/a	n/a	NoResponse	0	n/a	n/a	4	20	Blank	Neutral	True
202.63	0.3	Control	0.8571	0.004	No	2.628	-0.004	2.0	NoResponse	0	0.212	n/a	4	20	ButtonPress	Neutral	True
203.121	1.45	Control	0.8571	n/a	No	2.628	n/a	5.0	NoResponse	0	0.023	202.144	4	20	Feedback	Neutral	True
204.575	2.628	Control	0.8571	n/a	No	2.628	n/a	n/a	NoResponse	0	0.0	n/a	4	20	ISIslide	Neutral	True
207.216	0.25	Control	0.8181999999999999	0.0	No	2.784	0.016	n/a	NoResponse	0	n/a	n/a	4	21	Cue	Neutral	True
207.467	4.1	Control	0.8181999999999999	0.0	No	2.784	0.001	n/a	NoResponse	0	n/a	n/a	4	21	Fixation	Neutral	True
211.562	0.19	Control	0.8181999999999999	0.004	No	2.784	-0.004	2.0	NoResponse	0	0.201	210.763	4	21	Target	Neutral	True
211.763	0.51	Control	0.8181999999999999	n/a	No	2.784	n/a	n/a	NoResponse	0	n/a	n/a	4	21	Blank	Neutral	True
211.763	0.3	Control	0.8181999999999999	0.004	No	2.784	-0.004	2.0	NoResponse	0	0.201	n/a	4	21	ButtonPress	Neutral	True
212.265	1.45	Control	0.8181999999999999	n/a	No	2.784	n/a	5.0	NoResponse	0	0.0	211.265	4	21	Feedback	Neutral	True
213.719	2.784	Control	0.8181999999999999	n/a	No	2.784	n/a	n/a	NoResponse	0	0.0	n/a	4	21	ISIslide	Neutral	True
216.527	0.25	Control	0.7826000000000001	0.0	No	2.773	0.027	n/a	NoResponse	0	n/a	n/a	4	22	Cue	Neutral	True
216.778	4.0	Control	0.7826000000000001	0.0	No	2.773	0.001	n/a	NoResponse	0	n/a	n/a	4	22	Fixation	Neutral	True
220.773	0.18	Control	0.7826000000000001	0.004	No	2.773	-0.004	2.0	NoResponse	0	0.21	219.983	4	22	Target	Neutral	True
220.957	0.52	Control	0.7826000000000001	n/a	No	2.773	n/a	n/a	NoResponse	0	n/a	n/a	4	22	Blank	Neutral	True
220.983	0.3	Control	0.7826000000000001	0.004	No	2.773	-0.004	2.0	NoResponse	0	0.21	n/a	4	22	ButtonPress	Neutral	True
221.475	1.45	Control	0.7826000000000001	n/a	No	2.773	n/a	5.0	NoResponse	0	0.01	220.485	4	22	Feedback	Neutral	True
222.93	2.773	Control	0.7826000000000001	n/a	No	2.773	n/a	n/a	NoResponse	0	0.0	n/a	4	22	ISIslide	Neutral	True
225.721	0.25	Control	0.75	0.001	No	2.779	0.021	n/a	NoResponse	0	n/a	n/a	4	23	Cue	Neutral	True
225.972	3.9	Control	0.75	0.0	No	2.779	0.001	n/a	NoResponse	0	n/a	n/a	4	23	Fixation	Neutral	True
229.867	0.17	Control	0.75	0.004	No	2.779	-0.004	2.0	NoResponse	0	0.193	229.06	4	23	Target	Neutral	True
230.051	0.53	Control	0.75	n/a	No	2.779	n/a	n/a	NoResponse	0	n/a	n/a	4	23	Blank	Neutral	True
230.06	0.3	Control	0.75	0.004	No	2.779	-0.004	2.0	NoResponse	0	0.193	n/a	4	23	ButtonPress	Neutral	True
230.569	1.45	Control	0.75	n/a	No	2.779	n/a	5.0	NoResponse	0	0.038	229.607	4	23	Feedback	Neutral	True
232.024	2.779	Control	0.75	n/a	No	2.779	n/a	n/a	NoResponse	0	0.0	n/a	4	23	ISIslide	Neutral	True
234.815	0.25	Win2	0.72	0.0	No	3.135	0.015	n/a	NoResponse	0	n/a	n/a	4	24	Cue	MissedWin	True
235.066	3.95	Win2	0.72	0.0	No	3.135	0.001	n/a	NoResponse	0	n/a	n/a	4	24	Fixation	MissedWin	True
239.011	0.16	Win2	0.72	0.004	No	3.135	-0.004	2.0	NoResponse	0	0.222	238.233	4	24	Target	MissedWin	True
239.178	0.54	Win2	0.72	n/a	No	3.135	n/a	n/a	NoResponse	0	n/a	n/a	4	24	Blank	MissedWin	True
239.233	0.3	Win2	0.72	0.004	No	3.135	-0.004	2.0	NoResponse	0	0.222	n/a	4	24	ButtonPress	MissedWin	True
239.713	1.45	Win2	0.72	n/a	No	3.135	n/a	5.0	NoResponse	0	0.016	238.729	4	24	Feedback	MissedWin	True
241.168	3.135	Win2	0.72	n/a	No	3.135	n/a	n/a	NoResponse	0	0.0	n/a	4	24	ISIslide	MissedWin	True
244.327	0.25	Win2	0.6923	0.0	No	3.073	0.027	n/a	PrematurePress	0	n/a	n/a	4	25	Cue	MissedWin	True
244.578	4.0	Win2	0.6923	0.0	No	3.073	0.001	n/a	PrematurePress	0	n/a	n/a	4	25	Fixation	MissedWin	True
248.573	0.15	Win2	0.6923	0.004	No	3.073	-0.004	2.0	PrematurePress	0	0.041	247.614	4	25	Target	MissedWin	True
248.614	0.3	Win2	0.6923	0.004	No	3.073	-0.004	2.0	PrematurePress	0	0.041	n/a	4	25	ButtonPress	MissedWin	True
248.724	0.55	Win2	0.6923	n/a	No	3.073	n/a	n/a	PrematurePress	0	n/a	n/a	4	25	Blank	MissedWin	True
249.275	1.45	Win2	0.6923	n/a	No	3.073	n/a	5.0	PrematurePress	0	0.015	248.29	4	25	Feedback	MissedWin	True
250.73	3.073	Win2	0.6923	n/a	No	3.073	n/a	n/a	PrematurePress	0	0.0	n/a	4	25	ISIslide	MissedWin	True
253.822	0.25	Win2	0.6667000000000001	0.0	No	2.928	0.022	n/a	NoResponse	0	n/a	n/a	4	26	Cue	MissedWin	True
254.073	3.95	Win2	0.6667000000000001	0.0	No	2.928	0.001	n/a	NoResponse	0	n/a	n/a	4	26	Fixation	MissedWin	True
258.018	0.15	Win2	0.6667000000000001	0.004	No	2.928	-0.004	2.0	NoResponse	0	0.17	257.188	4	26	Target	MissedWin	True
258.168	0.55	Win2	0.6667000000000001	n/a	No	2.928	n/a	n/a	NoResponse	0	n/a	n/a	4	26	Blank	MissedWin	True
258.188	0.3	Win2	0.6667000000000001	0.004	No	2.928	-0.004	2.0	NoResponse	0	0.17	n/a	4	26	ButtonPress	MissedWin	True
258.72	1.45	Win2	0.6667000000000001	n/a	No	2.928	n/a	5.0	NoResponse	0	0.032	257.752	4	26	Feedback	MissedWin	True
260.174	2.928	Win2	0.6667000000000001	n/a	No	2.928	n/a	n/a	NoResponse	0	0.0	n/a	4	26	ISIslide	MissedWin	True
263.117	0.25	Lose2	0.6429	0.0	No	2.833	0.017	n/a	NoResponse	-1	n/a	n/a	3	27	Cue	Loss	True
263.367	4.05	Lose2	0.6429	0.0	No	2.833	0.0	n/a	NoResponse	-1	n/a	n/a	3	27	Fixation	Loss	True
267.413	0.15	Lose2	0.6429	0.004	No	2.833	-0.004	2.0	NoResponse	-1	0.194	266.607	3	27	Target	Loss	True
267.563	0.55	Lose2	0.6429	n/a	No	2.833	n/a	n/a	NoResponse	-1	n/a	n/a	3	27	Blank	Loss	True
267.607	0.3	Lose2	0.6429	0.004	No	2.833	-0.004	2.0	NoResponse	-1	0.194	n/a	3	27	ButtonPress	Loss	True
268.115	1.45	Lose2	0.6429	n/a	No	2.833	n/a	5.0	NoResponse	-1	0.007	267.122	3	27	Feedback	Loss	True
269.569	2.833	Lose2	0.6429	n/a	No	2.833	n/a	n/a	NoResponse	-1	0.0	n/a	3	27	ISIslide	Loss	True
272.428	0.25	Control	0.6207	0.0	No	2.822	0.028	n/a	NoResponse	0	n/a	n/a	3	28	Cue	Neutral	True
272.678	4.05	Control	0.6207	0.001	No	2.822	0.0	n/a	NoResponse	0	n/a	n/a	3	28	Fixation	Neutral	True
276.724	0.16	Control	0.6207	0.004	No	2.822	-0.004	2.0	NoResponse	0	0.184	275.908	3	28	Target	Neutral	True
276.891	0.54	Control	0.6207	n/a	No	2.822	n/a	n/a	NoResponse	0	n/a	n/a	3	28	Blank	Neutral	True
276.908	0.3	Control	0.6207	0.004	No	2.822	-0.004	2.0	NoResponse	0	0.184	n/a	3	28	ButtonPress	Neutral	True
277.426	1.45	Control	0.6207	n/a	No	2.822	n/a	5.0	NoResponse	0	0.01	276.436	3	28	Feedback	Neutral	True
278.88	2.822	Control	0.6207	n/a	No	2.822	n/a	n/a	NoResponse	0	0.0	n/a	3	28	ISIslide	Neutral	True
281.722	0.25	Lose2	0.6	0.0	No	2.828	0.022	n/a	NoResponse	-1	n/a	n/a	2	29	Cue	Loss	True
281.973	3.95	Lose2	0.6	0.0	No	2.828	0.001	n/a	NoResponse	-1	n/a	n/a	2	29	Fixation	Loss	True
285.918	0.17	Lose2	0.6	0.004	No	2.828	-0.004	2.0	NoResponse	-1	0.192	285.11	2	29	Target	Loss	True
286.102	0.53	Lose2	0.6	n/a	No	2.828	n/a	n/a	NoResponse	-1	n/a	n/a	2	29	Blank	Loss	True
286.11	0.3	Lose2	0.6	0.004	No	2.828	-0.004	2.0	NoResponse	-1	0.192	n/a	2	29	ButtonPress	Loss	True
286.62	1.45	Lose2	0.6	n/a	No	2.828	n/a	5.0	NoResponse	-1	0.035	285.655	2	29	Feedback	Loss	True
288.075	2.828	Lose2	0.6	n/a	No	2.828	n/a	n/a	NoResponse	-1	0.0	n/a	2	29	ISIslide	Loss	True
290.916	0.25	Win2	0.5806	0.0	No	2.784	0.016	n/a	NoResponse	0	n/a	n/a	2	30	Cue	MissedWin	True
291.167	3.9	Win2	0.5806	0.0	No	2.784	0.001	n/a	NoResponse	0	n/a	n/a	2	30	Fixation	MissedWin	True
295.062	0.18	Win2	0.5806	0.004	No	2.784	-0.004	2.0	NoResponse	0	0.197	294.259	2	30	Target	MissedWin	True
295.246	0.52	Win2	0.5806	n/a	No	2.784	n/a	n/a	NoResponse	0	n/a	n/a	2	30	Blank	MissedWin	True
295.259	0.3	Win2	0.5806	0.004	No	2.784	-0.004	2.0	NoResponse	0	0.197	n/a	2	30	ButtonPress	MissedWin	True
295.764	1.45	Win2	0.5806	n/a	No	2.784	n/a	5.0	NoResponse	0	0.013	294.777	2	30	Feedback	MissedWin	True
297.219	2.784	Win2	0.5806	n/a	No	2.784	n/a	n/a	NoResponse	0	0.0	n/a	2	30	ISIslide	MissedWin	True
300.027	0.25	Lose2	0.5938	0.0	Yes	2.823	0.027	n/a	GoodResponse	0	n/a	n/a	2	31	Cue	AvoidedLoss	True
300.278	4.05	Lose2	0.5938	0.0	Yes	2.823	0.001	n/a	GoodResponse	0	n/a	n/a	2	31	Fixation	AvoidedLoss	True
304.323	0.19	Lose2	0.5938	0.004	Yes	2.823	-0.004	2.0	GoodResponse	0	0.188	303.511	2	31	Target	AvoidedLoss	True
304.511	0.3	Lose2	0.5938	0.004	Yes	2.823	-0.004	2.0	GoodResponse	0	0.188	n/a	2	31	ButtonPress	AvoidedLoss	True
304.524	0.51	Lose2	0.5938	n/a	Yes	2.823	n/a	n/a	GoodResponse	0	n/a	n/a	2	31	Blank	AvoidedLoss	True
305.025	1.45	Lose2	0.5938	n/a	Yes	2.823	n/a	5.0	GoodResponse	0	0.02	304.045	2	31	Feedback	AvoidedLoss	True
306.48	2.823	Lose2	0.5938	n/a	Yes	2.823	n/a	n/a	GoodResponse	0	0.0	n/a	2	31	ISIslide	AvoidedLoss	True
309.321	0.25	Lose2	0.5758	0.0	No	2.629	0.021	n/a	NoResponse	-1	n/a	n/a	1	32	Cue	Loss	False
309.572	4.15	Lose2	0.5758	0.0	No	2.629	0.001	2.0	NoResponse	-1	4.02	312.592	1	32	Fixation	Loss	False
313.592	0.3	Lose2	0.5758	0.0	No	2.629	0.001	2.0	NoResponse	-1	4.02	n/a	1	32	ButtonPress	Loss	False
313.718	0.2	Lose2	0.5758	0.003	No	2.629	-0.003	2.0	NoResponse	-1	0.271	312.989	1	32	Target	Loss	False
313.918	0.5	Lose2	0.5758	n/a	No	2.629	n/a	n/a	NoResponse	-1	n/a	n/a	1	32	Blank	Loss	False
313.989	0.3	Lose2	0.5758	0.003	No	2.629	-0.003	2.0	NoResponse	-1	0.271	n/a	1	32	ButtonPress	Loss	False
314.42	1.45	Lose2	0.5758	n/a	No	2.629	n/a	5.0	NoResponse	-1	0.039	313.459	1	32	Feedback	Loss	False
315.874	2.629	Lose2	0.5758	n/a	No	2.629	n/a	n/a	NoResponse	-1	0.0	n/a	1	32	ISIslide	Loss	False
318.516	0.25	Win2	0.5882000000000001	0.0	Yes	2.684	0.016	n/a	GoodResponse	1	n/a	n/a	2	33	Cue	Win	True
318.766	4.0	Win2	0.5882000000000001	0.0	Yes	2.684	0.0	n/a	GoodResponse	1	n/a	n/a	2	33	Fixation	Win	True
322.762	0.21	Win2	0.5882000000000001	0.004	Yes	2.684	-0.004	2.0	GoodResponse	1	0.199	321.961	2	33	Target	Win	True
322.961	0.3	Win2	0.5882000000000001	0.004	Yes	2.684	-0.004	2.0	GoodResponse	1	0.199	n/a	2	33	ButtonPress	Win	True
322.979	0.49	Win2	0.5882000000000001	n/a	Yes	2.684	n/a	n/a	GoodResponse	1	n/a	n/a	2	33	Blank	Win	True
323.464	1.45	Win2	0.5882000000000001	n/a	Yes	2.684	n/a	5.0	GoodResponse	1	0.02	322.484	2	33	Feedback	Win	True
324.918	2.684	Win2	0.5882000000000001	n/a	Yes	2.684	n/a	n/a	GoodResponse	1	0.0	n/a	2	33	ISIslide	Win	True
327.626	0.25	Lose2	0.6	0.0	Yes	2.624	0.026	n/a	GoodResponse	0	n/a	n/a	2	34	Cue	AvoidedLoss	True
327.877	4.05	Lose2	0.6	0.0	Yes	2.624	0.001	n/a	GoodResponse	0	n/a	n/a	2	34	Fixation	AvoidedLoss	True
331.922	0.22	Lose2	0.6	0.004	Yes	2.624	-0.004	2.0	GoodResponse	0	0.187	331.109	2	34	Target	AvoidedLoss	True
332.109	0.3	Lose2	0.6	0.004	Yes	2.624	-0.004	2.0	GoodResponse	0	0.187	n/a	2	34	ButtonPress	AvoidedLoss	True
332.156	0.48	Lose2	0.6	n/a	Yes	2.624	n/a	n/a	GoodResponse	0	n/a	n/a	2	34	Blank	AvoidedLoss	True
332.624	1.45	Lose2	0.6	n/a	Yes	2.624	n/a	5.0	GoodResponse	0	0.031	331.655	2	34	Feedback	AvoidedLoss	True
334.079	2.624	Lose2	0.6	n/a	Yes	2.624	n/a	n/a	GoodResponse	0	0.0	n/a	2	34	ISIslide	AvoidedLoss	True
336.72	0.25	Lose2	0.6111	0.0	Yes	2.68	0.02	n/a	GoodResponse	0	n/a	n/a	2	35	Cue	AvoidedLoss	True
336.971	4.0	Lose2	0.6111	0.0	Yes	2.68	0.001	n/a	GoodResponse	0	n/a	n/a	2	35	Fixation	AvoidedLoss	True
340.966	0.23	Lose2	0.6111	0.004	Yes	2.68	-0.004	2.0	GoodResponse	0	0.197	340.163	2	35	Target	AvoidedLoss	True
341.163	0.3	Lose2	0.6111	0.004	Yes	2.68	-0.004	2.0	GoodResponse	0	0.197	n/a	2	35	ButtonPress	AvoidedLoss	True
341.2	0.47	Lose2	0.6111	n/a	Yes	2.68	n/a	n/a	GoodResponse	0	n/a	n/a	2	35	Blank	AvoidedLoss	True
341.668	1.45	Lose2	0.6111	n/a	Yes	2.68	n/a	5.0	GoodResponse	0	0.01	340.678	2	35	Feedback	AvoidedLoss	True
343.122	2.68	Lose2	0.6111	n/a	Yes	2.68	n/a	n/a	GoodResponse	0	0.0	n/a	2	35	ISIslide	AvoidedLoss	True
345.814	0.25	Control	0.6215999999999999	0.0	Yes	2.686	0.014	n/a	GoodResponse	0	n/a	n/a	2	36	Cue	Neutral	True
346.065	4.0	Control	0.6215999999999999	0.0	Yes	2.686	0.001	n/a	GoodResponse	0	n/a	n/a	2	36	Fixation	Neutral	True
350.06	0.24	Control	0.6215999999999999	0.004	Yes	2.686	-0.004	2.0	GoodResponse	0	0.18	349.24	2	36	Target	Neutral	True
350.24	0.3	Control	0.6215999999999999	0.004	Yes	2.686	-0.004	2.0	GoodResponse	0	0.18	n/a	2	36	ButtonPress	Neutral	True
350.311	0.46	Control	0.6215999999999999	n/a	Yes	2.686	n/a	n/a	GoodResponse	0	n/a	n/a	2	36	Blank	Neutral	True
350.762	1.45	Control	0.6215999999999999	n/a	Yes	2.686	n/a	5.0	GoodResponse	0	0.038	349.8	2	36	Feedback	Neutral	True
352.216	2.686	Control	0.6215999999999999	n/a	Yes	2.686	n/a	n/a	GoodResponse	0	0.0	n/a	2	36	ISIslide	Neutral	True
354.924	0.25	Win2	0.6315999999999999	0.001	Yes	2.876	0.024	n/a	GoodResponse	1	n/a	n/a	3	37	Cue	Win	True
355.175	4.0	Win2	0.6315999999999999	0.0	Yes	2.876	0.001	n/a	GoodResponse	1	n/a	n/a	3	37	Fixation	Win	True
359.17	0.25	Win2	0.6315999999999999	0.004	Yes	2.876	-0.004	2.0	GoodResponse	1	0.188	358.358	3	37	Target	Win	True
359.358	0.3	Win2	0.6315999999999999	0.004	Yes	2.876	-0.004	2.0	GoodResponse	1	0.188	n/a	3	37	ButtonPress	Win	True
359.421	0.45	Win2	0.6315999999999999	n/a	Yes	2.876	n/a	n/a	GoodResponse	1	n/a	n/a	3	37	Blank	Win	True
359.873	1.45	Win2	0.6315999999999999	n/a	Yes	2.876	n/a	5.0	GoodResponse	1	0.001	358.874	3	37	Feedback	Win	True
361.327	2.876	Win2	0.6315999999999999	n/a	Yes	2.876	n/a	n/a	GoodResponse	1	0.0	n/a	3	37	ISIslide	Win	True
364.219	0.25	Lose2	0.6409999999999999	0.0	Yes	2.831	0.019	n/a	GoodResponse	0	n/a	n/a	3	38	Cue	AvoidedLoss	True
364.47	3.95	Lose2	0.6409999999999999	0.0	Yes	2.831	0.001	n/a	GoodResponse	0	n/a	n/a	3	38	Fixation	AvoidedLoss	True
368.415	0.26	Lose2	0.6409999999999999	0.004	Yes	2.831	-0.004	2.0	GoodResponse	0	0.197	367.612	3	38	Target	AvoidedLoss	True
368.612	0.3	Lose2	0.6409999999999999	0.004	Yes	2.831	-0.004	2.0	GoodResponse	0	0.197	n/a	3	38	ButtonPress	AvoidedLoss	True
368.682	0.44	Lose2	0.6409999999999999	n/a	Yes	2.831	n/a	n/a	GoodResponse	0	n/a	n/a	3	38	Blank	AvoidedLoss	True
369.117	1.45	Lose2	0.6409999999999999	n/a	Yes	2.831	n/a	5.0	GoodResponse	0	0.025	368.142	3	38	Feedback	AvoidedLoss	True
370.571	2.831	Lose2	0.6409999999999999	n/a	Yes	2.831	n/a	n/a	GoodResponse	0	0.0	n/a	3	38	ISIslide	AvoidedLoss	True
373.43	0.25	Win2	0.65	0.0	Yes	2.97	0.03	n/a	GoodResponse	1	n/a	n/a	4	39	Cue	Win	True
373.68	4.1	Win2	0.65	0.001	Yes	2.97	0.0	n/a	GoodResponse	1	n/a	n/a	4	39	Fixation	Win	True
377.776	0.27	Win2	0.65	0.004	Yes	2.97	-0.004	2.0	GoodResponse	1	0.2	376.976	4	39	Target	Win	True
377.976	0.3	Win2	0.65	0.004	Yes	2.97	-0.004	2.0	GoodResponse	1	0.2	n/a	4	39	ButtonPress	Win	True
378.06	0.43	Win2	0.65	n/a	Yes	2.97	n/a	n/a	GoodResponse	1	n/a	n/a	4	39	Blank	Win	True
378.478	1.45	Win2	0.65	n/a	Yes	2.97	n/a	5.0	GoodResponse	1	0.03	377.508	4	39	Feedback	Win	True
379.933	2.97	Win2	0.65	n/a	Yes	2.97	n/a	n/a	GoodResponse	1	0.0	n/a	4	39	ISIslide	Win	True
382.925	0.25	Win2	0.6585	0.0	Yes	2.725	0.025	n/a	GoodResponse	1	n/a	n/a	5	40	Cue	Win	True
383.176	3.95	Win2	0.6585	0.0	Yes	2.725	0.001	n/a	GoodResponse	1	n/a	n/a	5	40	Fixation	Win	True
387.121	0.28	Win2	0.6585	0.004	Yes	2.725	-0.004	2.0	GoodResponse	1	0.211	386.332	5	40	Target	Win	True
387.332	0.3	Win2	0.6585	0.004	Yes	2.725	-0.004	2.0	GoodResponse	1	0.211	n/a	5	40	ButtonPress	Win	True
387.405	0.42	Win2	0.6585	n/a	Yes	2.725	n/a	n/a	GoodResponse	1	n/a	n/a	5	40	Blank	Win	True
387.823	1.45	Win2	0.6585	n/a	Yes	2.725	n/a	5.0	GoodResponse	1	0.001	386.824	5	40	Feedback	Win	True
389.277	2.725	Win2	0.6585	n/a	Yes	2.725	n/a	n/a	GoodResponse	1	0.0	n/a	5	40	ISIslide	Win	True
392.019	0.25	Win2	0.6667000000000001	0.0	Yes	2.781	0.019	n/a	GoodResponse	1	n/a	n/a	6	41	Cue	Win	True
392.269	3.9	Win2	0.6667000000000001	0.0	Yes	2.781	0.0	n/a	GoodResponse	1	n/a	n/a	6	41	Fixation	Win	True
396.181	0.28	Win2	0.6667000000000001	0.0	Yes	2.781	0.012	2.0	GoodResponse	1	0.172	395.353	6	41	Target	Win	True
396.353	0.3	Win2	0.6667000000000001	0.0	Yes	2.781	0.012	2.0	GoodResponse	1	0.172	n/a	6	41	ButtonPress	Win	True
396.449	0.42	Win2	0.6667000000000001	n/a	Yes	2.781	n/a	n/a	GoodResponse	1	n/a	n/a	6	41	Blank	Win	True
396.866	1.45	Win2	0.6667000000000001	n/a	Yes	2.781	n/a	5.0	GoodResponse	1	0.031	395.897	6	41	Feedback	Win	True
398.321	2.781	Win2	0.6667000000000001	n/a	Yes	2.781	n/a	n/a	GoodResponse	1	0.0	n/a	6	41	ISIslide	Win	True
401.129	0.25	Control	0.6744	0.0	Yes	2.921	0.029	n/a	GoodResponse	0	n/a	n/a	6	42	Cue	Neutral	True
401.38	3.85	Control	0.6744	0.0	Yes	2.921	0.001	n/a	GoodResponse	0	n/a	n/a	6	42	Fixation	Neutral	True
405.225	0.27	Control	0.6744	0.004	Yes	2.921	-0.004	2.0	GoodResponse	0	0.188	404.413	6	42	Target	Neutral	True
405.413	0.3	Control	0.6744	0.004	Yes	2.921	-0.004	2.0	GoodResponse	0	0.188	n/a	6	42	ButtonPress	Neutral	True
405.509	0.43	Control	0.6744	n/a	Yes	2.921	n/a	n/a	GoodResponse	0	n/a	n/a	6	42	Blank	Neutral	True
405.927	1.45	Control	0.6744	n/a	Yes	2.921	n/a	5.0	GoodResponse	0	0.044	404.971	6	42	Feedback	Neutral	True
407.381	2.921	Control	0.6744	n/a	Yes	2.921	n/a	n/a	GoodResponse	0	0.0	n/a	6	42	ISIslide	Neutral	True
410.323	0.25	Win2	0.6818000000000001	0.0	Yes	3.177	0.023	n/a	GoodResponse	1	n/a	n/a	7	43	Cue	Win	True
410.574	4.0	Win2	0.6818000000000001	0.0	Yes	3.177	0.001	n/a	GoodResponse	1	n/a	n/a	7	43	Fixation	Win	True
414.569	0.26	Win2	0.6818000000000001	0.004	Yes	3.177	-0.004	2.0	GoodResponse	1	0.188	413.757	7	43	Target	Win	True
414.757	0.3	Win2	0.6818000000000001	0.004	Yes	3.177	-0.004	2.0	GoodResponse	1	0.188	n/a	7	43	ButtonPress	Win	True
414.837	0.44	Win2	0.6818000000000001	n/a	Yes	3.177	n/a	n/a	GoodResponse	1	n/a	n/a	7	43	Blank	Win	True
415.271	1.45	Win2	0.6818000000000001	n/a	Yes	3.177	n/a	5.0	GoodResponse	1	0.017	414.288	7	43	Feedback	Win	True
416.726	3.177	Win2	0.6818000000000001	n/a	Yes	3.177	n/a	n/a	GoodResponse	1	0.0	n/a	7	43	ISIslide	Win	True
419.919	0.25	Win2	0.6667000000000001	0.0	No	2.981	0.019	n/a	NoResponse	0	n/a	n/a	7	44	Cue	MissedWin	True
420.169	4.0	Win2	0.6667000000000001	0.001	No	2.981	0.0	n/a	NoResponse	0	n/a	n/a	7	44	Fixation	MissedWin	True
424.165	0.25	Win2	0.6667000000000001	0.004	No	2.981	-0.004	2.0	NoResponse	0	0.265	423.43	7	44	Target	MissedWin	True
424.416	0.45	Win2	0.6667000000000001	n/a	No	2.981	n/a	n/a	NoResponse	0	n/a	n/a	7	44	Blank	MissedWin	True
424.43	0.3	Win2	0.6667000000000001	0.004	No	2.981	-0.004	2.0	NoResponse	0	0.265	n/a	7	44	ButtonPress	MissedWin	True
424.867	1.45	Win2	0.6667000000000001	n/a	No	2.981	n/a	5.0	NoResponse	0	0.03	423.897	7	44	Feedback	MissedWin	True
426.321	2.981	Win2	0.6667000000000001	n/a	No	2.981	n/a	n/a	NoResponse	0	0.0	n/a	7	44	ISIslide	MissedWin	True
429.33	0.25	Control	0.6739	0.0	Yes	2.87	0.03	n/a	GoodResponse	0	n/a	n/a	7	45	Cue	Neutral	True
429.581	4.1	Control	0.6739	0.0	Yes	2.87	0.001	n/a	GoodResponse	0	n/a	n/a	7	45	Fixation	Neutral	True
433.677	0.24	Control	0.6739	0.003	Yes	2.87	-0.003	2.0	GoodResponse	0	0.114	432.791	7	45	Target	Neutral	True
433.791	0.3	Control	0.6739	0.003	Yes	2.87	-0.003	2.0	GoodResponse	0	0.114	n/a	7	45	ButtonPress	Neutral	True
433.927	0.46	Control	0.6739	n/a	Yes	2.87	n/a	n/a	GoodResponse	0	n/a	n/a	7	45	Blank	Neutral	True
434.379	1.45	Control	0.6739	n/a	Yes	2.87	n/a	5.0	GoodResponse	0	0.03	433.409	7	45	Feedback	Neutral	True
435.833	2.87	Control	0.6739	n/a	Yes	2.87	n/a	n/a	GoodResponse	0	0.0	n/a	7	45	ISIslide	Neutral	True
438.725	0.25	Lose2	0.6809000000000001	0.0	Yes	3.375	0.025	n/a	GoodResponse	0	n/a	n/a	7	46	Cue	AvoidedLoss	True
438.976	4.0	Lose2	0.6809000000000001	0.0	Yes	3.375	0.001	n/a	GoodResponse	0	n/a	n/a	7	46	Fixation	AvoidedLoss	True
442.971	0.23	Lose2	0.6809000000000001	0.004	Yes	3.375	-0.004	2.0	GoodResponse	0	0.182	442.153	7	46	Target	AvoidedLoss	True
443.153	0.3	Lose2	0.6809000000000001	0.004	Yes	3.375	-0.004	2.0	GoodResponse	0	0.182	n/a	7	46	ButtonPress	AvoidedLoss	True
443.205	0.47	Lose2	0.6809000000000001	n/a	Yes	3.375	n/a	n/a	GoodResponse	0	n/a	n/a	7	46	Blank	AvoidedLoss	True
443.673	1.45	Lose2	0.6809000000000001	n/a	Yes	3.375	n/a	5.0	GoodResponse	0	0.007	442.68	7	46	Feedback	AvoidedLoss	True
445.127	3.375	Lose2	0.6809000000000001	n/a	Yes	3.375	n/a	n/a	GoodResponse	0	0.0	n/a	7	46	ISIslide	AvoidedLoss	True
448.521	0.25	Lose2	0.6875	0.0	Yes	2.679	0.021	n/a	GoodResponse	0	n/a	n/a	7	47	Cue	AvoidedLoss	True
448.772	4.0	Lose2	0.6875	0.0	Yes	2.679	0.001	n/a	GoodResponse	0	n/a	n/a	7	47	Fixation	AvoidedLoss	True
452.767	0.22	Lose2	0.6875	0.004	Yes	2.679	-0.004	2.0	GoodResponse	0	0.167	451.934	7	47	Target	AvoidedLoss	True
452.934	0.3	Lose2	0.6875	0.004	Yes	2.679	-0.004	2.0	GoodResponse	0	0.167	n/a	7	47	ButtonPress	AvoidedLoss	True
453.001	0.48	Lose2	0.6875	n/a	Yes	2.679	n/a	n/a	GoodResponse	0	n/a	n/a	7	47	Blank	AvoidedLoss	True
453.469	1.45	Lose2	0.6875	n/a	Yes	2.679	n/a	5.0	GoodResponse	0	0.013	452.482	7	47	Feedback	AvoidedLoss	True
454.923	2.679	Lose2	0.6875	n/a	Yes	2.679	n/a	n/a	GoodResponse	0	0.0	n/a	7	47	ISIslide	AvoidedLoss	True
457.615	0.25	Lose2	0.6939	0.0	Yes	3.035	0.015	n/a	GoodResponse	0	n/a	n/a	7	48	Cue	AvoidedLoss	True
457.866	3.95	Lose2	0.6939	0.0	Yes	3.035	0.001	n/a	GoodResponse	0	n/a	n/a	7	48	Fixation	AvoidedLoss	True
461.811	0.21	Lose2	0.6939	0.004	Yes	3.035	-0.004	2.0	GoodResponse	0	0.18	460.991	7	48	Target	AvoidedLoss	True
461.991	0.3	Lose2	0.6939	0.004	Yes	3.035	-0.004	2.0	GoodResponse	0	0.18	n/a	7	48	ButtonPress	AvoidedLoss	True
462.028	0.49	Lose2	0.6939	n/a	Yes	3.035	n/a	n/a	GoodResponse	0	n/a	n/a	7	48	Blank	AvoidedLoss	True
462.513	1.45	Lose2	0.6939	n/a	Yes	3.035	n/a	5.0	GoodResponse	0	0.043	461.556	7	48	Feedback	AvoidedLoss	True
463.967	3.035	Lose2	0.6939	n/a	Yes	3.035	n/a	n/a	GoodResponse	0	0.0	n/a	7	48	ISIslide	AvoidedLoss	True
467.026	0.25	Control	0.68	0.0	No	2.874	0.026	n/a	NoResponse	0	n/a	n/a	7	49	Cue	Neutral	True
467.277	4.0	Control	0.68	0.0	No	2.874	0.001	n/a	NoResponse	0	n/a	n/a	7	49	Fixation	Neutral	True
471.272	0.2	Control	0.68	0.004	No	2.874	-0.004	2.0	NoResponse	0	0.204	470.476	7	49	Target	Neutral	True
471.473	0.5	Control	0.68	n/a	No	2.874	n/a	n/a	NoResponse	0	n/a	n/a	7	49	Blank	Neutral	True
471.476	0.3	Control	0.68	0.004	No	2.874	-0.004	2.0	NoResponse	0	0.204	n/a	7	49	ButtonPress	Neutral	True
471.974	1.45	Control	0.68	n/a	No	2.874	n/a	5.0	NoResponse	0	0.044	471.018	7	49	Feedback	Neutral	True
473.429	2.874	Control	0.68	n/a	No	2.874	n/a	n/a	NoResponse	0	0.0	n/a	7	49	ISIslide	Neutral	True
476.321	0.25	Control	0.6667000000000001	0.0	No	2.779	0.021	n/a	NoResponse	0	n/a	n/a	7	50	Cue	Neutral	True
476.571	4.0	Control	0.6667000000000001	0.001	No	2.779	0.0	2.0	NoResponse	0	3.917	479.488	7	50	Fixation	Neutral	True
480.488	0.3	Control	0.6667000000000001	0.001	No	2.779	0.0	2.0	NoResponse	0	3.917	n/a	7	50	ButtonPress	Neutral	True
480.567	0.19	Control	0.6667000000000001	0.004	No	2.779	-0.004	n/a	NoResponse	0	n/a	n/a	7	50	Target	Neutral	True
480.767	0.51	Control	0.6667000000000001	n/a	No	2.779	n/a	n/a	NoResponse	0	n/a	n/a	7	50	Blank	Neutral	True
481.269	1.45	Control	0.6667000000000001	n/a	No	2.779	n/a	5.0	NoResponse	0	0.017	480.286	7	50	Feedback	Neutral	True
482.723	2.779	Control	0.6667000000000001	n/a	No	2.779	n/a	n/a	NoResponse	0	0.0	n/a	7	50	ISIslide	Neutral	True
485.515	0.25	Control	0.6537999999999999	0.0	No	2.735	0.015	n/a	NoResponse	0	n/a	n/a	7	51	Cue	Neutral	True
485.766	3.95	Control	0.6537999999999999	0.0	No	2.735	0.001	n/a	NoResponse	0	n/a	n/a	7	51	Fixation	Neutral	True
489.711	0.18	Control	0.6537999999999999	0.004	No	2.735	-0.004	2.0	NoResponse	0	0.203	488.914	7	51	Target	Neutral	True
489.895	0.52	Control	0.6537999999999999	n/a	No	2.735	n/a	n/a	NoResponse	0	n/a	n/a	7	51	Blank	Neutral	True
489.914	0.3	Control	0.6537999999999999	0.004	No	2.735	-0.004	2.0	NoResponse	0	0.203	n/a	7	51	ButtonPress	Neutral	True
490.413	1.45	Control	0.6537999999999999	n/a	No	2.735	n/a	5.0	NoResponse	0	0.044	489.457	7	51	Feedback	Neutral	True
491.867	2.735	Control	0.6537999999999999	n/a	No	2.735	n/a	n/a	NoResponse	0	0.0	n/a	7	51	ISIslide	Neutral	True
494.625	0.25	Control	0.6415000000000001	0.001	No	2.625	0.025	n/a	LatePress	0	n/a	n/a	7	52	Cue	Neutral	True
494.876	4.05	Control	0.6415000000000001	0.0	No	2.625	0.001	n/a	LatePress	0	n/a	n/a	7	52	Fixation	Neutral	True
498.922	0.19	Control	0.6415000000000001	0.003	No	2.625	-0.003	2.0	LatePress	0	0.197	498.119	7	52	Target	Neutral	True
499.119	0.3	Control	0.6415000000000001	0.003	No	2.625	-0.003	2.0	LatePress	0	0.197	n/a	7	52	ButtonPress	Neutral	True
499.122	0.51	Control	0.6415000000000001	n/a	No	2.625	n/a	n/a	LatePress	0	n/a	n/a	7	52	Blank	Neutral	True
499.624	1.45	Control	0.6415000000000001	n/a	No	2.625	n/a	5.0	LatePress	0	0.006	498.63	7	52	Feedback	Neutral	True
501.078	2.625	Control	0.6415000000000001	n/a	No	2.625	n/a	n/a	LatePress	0	0.0	n/a	7	52	ISIslide	Neutral	True
503.719	0.25	Win2	0.6296	0.0	No	2.931	0.019	n/a	PrematurePress	0	n/a	n/a	7	53	Cue	MissedWin	True
503.97	4.05	Win2	0.6296	0.0	No	2.931	0.001	n/a	PrematurePress	0	n/a	n/a	7	53	Fixation	MissedWin	True
508.015	0.2	Win2	0.6296	0.004	No	2.931	-0.004	2.0	PrematurePress	0	0.045	507.06	7	53	Target	MissedWin	True
508.06	0.3	Win2	0.6296	0.004	No	2.931	-0.004	2.0	PrematurePress	0	0.045	n/a	7	53	ButtonPress	MissedWin	True
508.216	0.5	Win2	0.6296	n/a	No	2.931	n/a	n/a	PrematurePress	0	n/a	n/a	7	53	Blank	MissedWin	True
508.718	1.45	Win2	0.6296	n/a	No	2.931	n/a	5.0	PrematurePress	0	0.032	507.75	7	53	Feedback	MissedWin	True
510.172	2.931	Win2	0.6296	n/a	No	2.931	n/a	n/a	PrematurePress	0	0.0	n/a	7	53	ISIslide	MissedWin	True
513.131	0.25	Win2	0.6182	0.0	No	2.719	0.031	n/a	NoResponse	0	n/a	n/a	7	54	Cue	MissedWin	True
513.382	3.95	Win2	0.6182	0.0	No	2.719	0.001	n/a	NoResponse	0	n/a	n/a	7	54	Fixation	MissedWin	True
517.327	0.21	Win2	0.6182	0.004	No	2.719	-0.004	2.0	NoResponse	0	0.224	516.551	7	54	Target	MissedWin	True
517.544	0.49	Win2	0.6182	n/a	No	2.719	n/a	n/a	NoResponse	0	n/a	n/a	7	54	Blank	MissedWin	True
517.551	0.3	Win2	0.6182	0.004	No	2.719	-0.004	2.0	NoResponse	0	0.224	n/a	7	54	ButtonPress	MissedWin	True
518.029	1.45	Win2	0.6182	n/a	No	2.719	n/a	5.0	NoResponse	0	0.037	517.066	7	54	Feedback	MissedWin	True
519.483	2.719	Win2	0.6182	n/a	No	2.719	n/a	n/a	NoResponse	0	0.0	n/a	7	54	ISIslide	MissedWin	True
522.225	0.25	Control	0.6071	0.0	No	3.025	0.025	n/a	NoResponse	0	n/a	n/a	7	55	Cue	Neutral	True
522.475	3.95	Control	0.6071	0.0	No	3.025	0.0	2.0	NoResponse	0	3.756	525.231	7	55	Fixation	Neutral	True
526.231	0.3	Control	0.6071	0.0	No	3.025	0.0	2.0	NoResponse	0	3.756	n/a	7	55	ButtonPress	Neutral	True
526.42	0.22	Control	0.6071	0.005	No	3.025	-0.005	n/a	NoResponse	0	n/a	n/a	7	55	Target	Neutral	True
526.655	0.48	Control	0.6071	n/a	No	3.025	n/a	n/a	NoResponse	0	n/a	n/a	7	55	Blank	Neutral	True
527.123	1.45	Control	0.6071	n/a	No	3.025	n/a	5.0	NoResponse	0	0.017	526.14	7	55	Feedback	Neutral	True
528.577	3.025	Control	0.6071	n/a	No	3.025	n/a	n/a	NoResponse	0	0.0	n/a	7	55	ISIslide	Neutral	True
531.619	0.25	Control	0.614	0.0	Yes	2.831	0.019	n/a	GoodResponse	0	n/a	n/a	7	56	Cue	Neutral	True
531.87	3.95	Control	0.614	0.0	Yes	2.831	0.001	n/a	GoodResponse	0	n/a	n/a	7	56	Fixation	Neutral	True
535.815	0.23	Control	0.614	0.004	Yes	2.831	-0.004	2.0	GoodResponse	0	0.207	535.022	7	56	Target	Neutral	True
536.022	0.3	Control	0.614	0.004	Yes	2.831	-0.004	2.0	GoodResponse	0	0.207	n/a	7	56	ButtonPress	Neutral	True
536.049	0.47	Control	0.614	n/a	Yes	2.831	n/a	n/a	GoodResponse	0	n/a	n/a	7	56	Blank	Neutral	True
536.517	1.45	Control	0.614	n/a	Yes	2.831	n/a	5.0	GoodResponse	0	0.037	535.554	7	56	Feedback	Neutral	True
537.972	2.831	Control	0.614	n/a	Yes	2.831	n/a	n/a	GoodResponse	0	0.0	n/a	7	56	ISIslide	Neutral	True
540.83	0.25	Control	0.6207	0.0	Yes	3.47	0.03	n/a	GoodResponse	0	n/a	n/a	7	57	Cue	Neutral	True
541.081	4.0	Control	0.6207	0.0	Yes	3.47	0.001	n/a	GoodResponse	0	n/a	n/a	7	57	Fixation	Neutral	True
545.076	0.24	Control	0.6207	0.004	Yes	3.47	-0.004	2.0	GoodResponse	0	0.208	544.284	7	57	Target	Neutral	True
545.284	0.3	Control	0.6207	0.004	Yes	3.47	-0.004	2.0	GoodResponse	0	0.208	n/a	7	57	ButtonPress	Neutral	True
545.327	0.46	Control	0.6207	n/a	Yes	3.47	n/a	n/a	GoodResponse	0	n/a	n/a	7	57	Blank	Neutral	True
545.778	1.45	Control	0.6207	n/a	Yes	3.47	n/a	5.0	GoodResponse	0	0.045	544.823	7	57	Feedback	Neutral	True
547.233	3.47	Control	0.6207	n/a	Yes	3.47	n/a	n/a	GoodResponse	0	0.0	n/a	7	57	ISIslide	Neutral	True
550.726	0.25	Win2	0.6271	0.001	Yes	2.724	0.026	n/a	GoodResponse	1	n/a	n/a	8	58	Cue	Win	True
550.977	4.05	Win2	0.6271	0.0	Yes	2.724	0.001	n/a	GoodResponse	1	n/a	n/a	8	58	Fixation	Win	True
555.023	0.25	Win2	0.6271	0.003	Yes	2.724	-0.003	2.0	GoodResponse	1	0.188	554.211	8	58	Target	Win	True
555.211	0.3	Win2	0.6271	0.003	Yes	2.724	-0.003	2.0	GoodResponse	1	0.188	n/a	8	58	ButtonPress	Win	True
555.273	0.45	Win2	0.6271	n/a	Yes	2.724	n/a	n/a	GoodResponse	1	n/a	n/a	8	58	Blank	Win	True
555.725	1.45	Win2	0.6271	n/a	Yes	2.724	n/a	5.0	GoodResponse	1	0.048	554.773	8	58	Feedback	Win	True
557.179	2.724	Win2	0.6271	n/a	Yes	2.724	n/a	n/a	GoodResponse	1	0.0	n/a	8	58	ISIslide	Win	True
559.921	0.25	Lose2	0.6333	0.0	Yes	2.679	0.021	n/a	GoodResponse	0	n/a	n/a	8	59	Cue	AvoidedLoss	True
560.171	4.0	Lose2	0.6333	0.0	Yes	2.679	0.0	n/a	GoodResponse	0	n/a	n/a	8	59	Fixation	AvoidedLoss	True
564.167	0.26	Lose2	0.6333	0.004	Yes	2.679	-0.004	2.0	GoodResponse	0	0.201	563.368	8	59	Target	AvoidedLoss	True
564.368	0.3	Lose2	0.6333	0.004	Yes	2.679	-0.004	2.0	GoodResponse	0	0.201	n/a	8	59	ButtonPress	AvoidedLoss	True
564.434	0.44	Lose2	0.6333	n/a	Yes	2.679	n/a	n/a	GoodResponse	0	n/a	n/a	8	59	Blank	AvoidedLoss	True
564.869	1.45	Lose2	0.6333	n/a	Yes	2.679	n/a	5.0	GoodResponse	0	0.026	563.895	8	59	Feedback	AvoidedLoss	True
566.323	2.679	Lose2	0.6333	n/a	Yes	2.679	n/a	n/a	GoodResponse	0	0.0	n/a	8	59	ISIslide	AvoidedLoss	True
569.015	0.25	Control	0.6393	0.0	Yes	2.685	0.015	n/a	GoodResponse	0	n/a	n/a	8	60	Cue	Neutral	True
569.265	4.0	Control	0.6393	0.0	Yes	2.685	0.0	n/a	GoodResponse	0	n/a	n/a	8	60	Fixation	Neutral	True
573.261	0.27	Control	0.6393	0.004	Yes	2.685	-0.004	2.0	GoodResponse	0	0.178	572.439	8	60	Target	Neutral	True
573.439	0.3	Control	0.6393	0.004	Yes	2.685	-0.004	2.0	GoodResponse	0	0.178	n/a	8	60	ButtonPress	Neutral	True
573.545	0.43	Control	0.6393	n/a	Yes	2.685	n/a	n/a	GoodResponse	0	n/a	n/a	8	60	Blank	Neutral	True
573.963	1.45	Control	0.6393	n/a	Yes	2.685	n/a	5.0	GoodResponse	0	0.007	572.97	8	60	Feedback	Neutral	True
575.417	2.685	Control	0.6393	n/a	Yes	2.685	n/a	n/a	GoodResponse	0	0.0	n/a	8	60	ISIslide	Neutral	True
578.125	0.25	Lose2	0.6452	0.0	Yes	2.975	0.025	n/a	GoodResponse	0	n/a	n/a	8	61	Cue	AvoidedLoss	True
578.376	4.0	Lose2	0.6452	0.0	Yes	2.975	0.001	n/a	GoodResponse	0	n/a	n/a	8	61	Fixation	AvoidedLoss	True
582.371	0.28	Lose2	0.6452	0.004	Yes	2.975	-0.004	2.0	GoodResponse	0	0.225	581.596	8	61	Target	AvoidedLoss	True
582.596	0.3	Lose2	0.6452	0.004	Yes	2.975	-0.004	2.0	GoodResponse	0	0.225	n/a	8	61	ButtonPress	AvoidedLoss	True
582.655	0.42	Lose2	0.6452	n/a	Yes	2.975	n/a	n/a	GoodResponse	0	n/a	n/a	8	61	Blank	AvoidedLoss	True
583.073	1.45	Lose2	0.6452	n/a	Yes	2.975	n/a	5.0	GoodResponse	0	0.017	582.09	8	61	Feedback	AvoidedLoss	True
584.528	2.975	Lose2	0.6452	n/a	Yes	2.975	n/a	n/a	GoodResponse	0	0.0	n/a	8	61	ISIslide	AvoidedLoss	True
587.52	0.25	Lose2	0.6507999999999999	0.0	Yes	2.88	0.02	n/a	GoodResponse	0	n/a	n/a	8	62	Cue	AvoidedLoss	True
587.771	3.9	Lose2	0.6507999999999999	0.0	Yes	2.88	0.001	n/a	GoodResponse	0	n/a	n/a	8	62	Fixation	AvoidedLoss	True
591.666	0.29	Lose2	0.6507999999999999	0.004	Yes	2.88	-0.004	2.0	GoodResponse	0	0.202	590.868	8	62	Target	AvoidedLoss	True
591.868	0.3	Lose2	0.6507999999999999	0.004	Yes	2.88	-0.004	2.0	GoodResponse	0	0.202	n/a	8	62	ButtonPress	AvoidedLoss	True
591.966	0.41	Lose2	0.6507999999999999	n/a	Yes	2.88	n/a	n/a	GoodResponse	0	n/a	n/a	8	62	Blank	AvoidedLoss	True
592.368	1.45	Lose2	0.6507999999999999	n/a	Yes	2.88	n/a	5.0	GoodResponse	0	0.04	591.408	8	62	Feedback	AvoidedLoss	True
593.822	2.88	Lose2	0.6507999999999999	n/a	Yes	2.88	n/a	n/a	GoodResponse	0	0.0	n/a	8	62	ISIslide	AvoidedLoss	True
596.731	0.25	Lose2	0.6562	0.0	Yes	2.619	0.031	n/a	GoodResponse	0	n/a	n/a	8	63	Cue	AvoidedLoss	True
596.981	4.05	Lose2	0.6562	0.001	Yes	2.619	0.0	n/a	GoodResponse	0	n/a	n/a	8	63	Fixation	AvoidedLoss	True
601.027	0.3	Lose2	0.6562	0.004	Yes	2.619	-0.004	2.0	GoodResponse	0	0.181	600.208	8	63	Target	AvoidedLoss	True
601.208	0.3	Lose2	0.6562	0.004	Yes	2.619	-0.004	2.0	GoodResponse	0	0.181	n/a	8	63	ButtonPress	AvoidedLoss	True
601.328	0.4	Lose2	0.6562	n/a	Yes	2.619	n/a	n/a	GoodResponse	0	n/a	n/a	8	63	Blank	AvoidedLoss	True
601.729	1.45	Lose2	0.6562	n/a	Yes	2.619	n/a	5.0	GoodResponse	0	0.044	600.773	8	63	Feedback	AvoidedLoss	True
603.183	2.619	Lose2	0.6562	n/a	Yes	2.619	n/a	n/a	GoodResponse	0	0.0	n/a	8	63	ISIslide	AvoidedLoss	True
605.825	0.25	Win2	0.6615000000000001	0.0	Yes	3.125	0.025	n/a	GoodResponse	1	n/a	n/a	9	64	Cue	Win	True
606.075	4.15	Win2	0.6615000000000001	0.0	Yes	3.125	0.0	n/a	GoodResponse	1	n/a	n/a	9	64	Fixation	Win	True
610.221	0.3	Win2	0.6615000000000001	0.004	Yes	3.125	-0.004	2.0	GoodResponse	1	0.185	609.406	9	64	Target	Win	True
610.406	0.3	Win2	0.6615000000000001	0.004	Yes	3.125	-0.004	2.0	GoodResponse	1	0.185	n/a	9	64	ButtonPress	Win	True
610.522	0.4	Win2	0.6615000000000001	n/a	Yes	3.125	n/a	n/a	GoodResponse	1	n/a	n/a	9	64	Blank	Win	True
610.923	1.45	Win2	0.6615000000000001	n/a	Yes	3.125	n/a	5.0	GoodResponse	1	0.02	609.943	9	64	Feedback	Win	True
612.377	3.125	Win2	0.6615000000000001	n/a	Yes	3.125	n/a	n/a	GoodResponse	1	0.0	n/a	9	64	ISIslide	Win	True
615.52	0.25	Control	0.6667000000000001	0.0	Yes	2.78	0.02	n/a	GoodResponse	0	n/a	n/a	9	65	Cue	Neutral	True
615.771	4.0	Control	0.6667000000000001	0.0	Yes	2.78	0.001	n/a	GoodResponse	0	n/a	n/a	9	65	Fixation	Neutral	True
619.766	0.3	Control	0.6667000000000001	0.004	Yes	2.78	-0.004	2.0	GoodResponse	0	0.228	618.994	9	65	Target	Neutral	True
619.994	0.3	Control	0.6667000000000001	0.004	Yes	2.78	-0.004	2.0	GoodResponse	0	0.228	n/a	9	65	ButtonPress	Neutral	True
620.067	0.4	Control	0.6667000000000001	n/a	Yes	2.78	n/a	n/a	GoodResponse	0	n/a	n/a	9	65	Blank	Neutral	True
620.468	1.45	Control	0.6667000000000001	n/a	Yes	2.78	n/a	5.0	GoodResponse	0	0.036	619.504	9	65	Feedback	Neutral	True
621.923	2.78	Control	0.6667000000000001	n/a	Yes	2.78	n/a	n/a	GoodResponse	0	0.0	n/a	9	65	ISIslide	Neutral	True
624.714	0.25	Win2	0.6716	0.0	Yes	2.786	0.014	n/a	GoodResponse	1	n/a	n/a	10	66	Cue	Win	True
624.965	3.9	Win2	0.6716	0.0	Yes	2.786	0.001	n/a	GoodResponse	1	n/a	n/a	10	66	Fixation	Win	True
628.86	0.29	Win2	0.6716	0.004	Yes	2.786	-0.004	2.0	GoodResponse	1	0.192	628.052	10	66	Target	Win	True
629.052	0.3	Win2	0.6716	0.004	Yes	2.786	-0.004	2.0	GoodResponse	1	0.192	n/a	10	66	ButtonPress	Win	True
629.161	0.41	Win2	0.6716	n/a	Yes	2.786	n/a	n/a	GoodResponse	1	n/a	n/a	10	66	Blank	Win	True
629.562	1.45	Win2	0.6716	n/a	Yes	2.786	n/a	5.0	GoodResponse	1	0.016	628.578	10	66	Feedback	Win	True
631.017	2.786	Win2	0.6716	n/a	Yes	2.786	n/a	n/a	GoodResponse	1	0.0	n/a	10	66	ISIslide	Win	True
633.825	0.25	Control	0.6765000000000001	0.0	Yes	2.725	0.025	n/a	GoodResponse	0	n/a	n/a	10	67	Cue	Neutral	True
634.076	3.95	Control	0.6765000000000001	0.0	Yes	2.725	0.001	n/a	GoodResponse	0	n/a	n/a	10	67	Fixation	Neutral	True
638.021	0.28	Control	0.6765000000000001	0.004	Yes	2.725	-0.004	2.0	GoodResponse	0	0.148	637.169	10	67	Target	Neutral	True
638.169	0.3	Control	0.6765000000000001	0.004	Yes	2.725	-0.004	2.0	GoodResponse	0	0.148	n/a	10	67	ButtonPress	Neutral	True
638.305	0.42	Control	0.6765000000000001	n/a	Yes	2.725	n/a	n/a	GoodResponse	0	n/a	n/a	10	67	Blank	Neutral	True
638.723	1.45	Control	0.6765000000000001	n/a	Yes	2.725	n/a	5.0	GoodResponse	0	0.026	637.749	10	67	Feedback	Neutral	True
640.177	2.725	Control	0.6765000000000001	n/a	Yes	2.725	n/a	n/a	GoodResponse	0	0.0	n/a	10	67	ISIslide	Neutral	True
642.919	0.25	Win2	0.6812	0.0	Yes	3.081	0.019	n/a	GoodResponse	1	n/a	n/a	11	68	Cue	Win	True
643.17	4.0	Win2	0.6812	0.0	Yes	3.081	0.001	n/a	GoodResponse	1	n/a	n/a	11	68	Fixation	Win	True
647.165	0.27	Win2	0.6812	0.004	Yes	3.081	-0.004	2.0	GoodResponse	1	0.182	646.347	11	68	Target	Win	True
647.347	0.3	Win2	0.6812	0.004	Yes	3.081	-0.004	2.0	GoodResponse	1	0.182	n/a	11	68	ButtonPress	Win	True
647.449	0.43	Win2	0.6812	n/a	Yes	3.081	n/a	n/a	GoodResponse	1	n/a	n/a	11	68	Blank	Win	True
647.867	1.45	Win2	0.6812	n/a	Yes	3.081	n/a	5.0	GoodResponse	1	0.007	646.874	11	68	Feedback	Win	True
649.321	3.081	Win2	0.6812	n/a	Yes	3.081	n/a	n/a	GoodResponse	1	0.0	n/a	11	68	ISIslide	Win	True
652.431	0.25	Win2	0.6857	0.0	Yes	3.219	0.031	n/a	GoodResponse	1	n/a	n/a	12	69	Cue	Win	True
652.681	3.95	Win2	0.6857	0.0	Yes	3.219	0.0	n/a	GoodResponse	1	n/a	n/a	12	69	Fixation	Win	True
656.643	0.26	Win2	0.6857	0.0	Yes	3.219	0.012	2.0	GoodResponse	1	0.201	655.844	12	69	Target	Win	True
656.844	0.3	Win2	0.6857	0.0	Yes	3.219	0.012	2.0	GoodResponse	1	0.201	n/a	12	69	ButtonPress	Win	True
656.894	0.44	Win2	0.6857	n/a	Yes	3.219	n/a	n/a	GoodResponse	1	n/a	n/a	12	69	Blank	Win	True
657.329	1.45	Win2	0.6857	n/a	Yes	3.219	n/a	5.0	GoodResponse	1	0.007	656.336	12	69	Feedback	Win	True
658.783	3.219	Win2	0.6857	n/a	Yes	3.219	n/a	n/a	GoodResponse	1	0.0	n/a	12	69	ISIslide	Win	True
662.026	0.25	Lose2	0.6901	0.0	Yes	3.024	0.026	n/a	GoodResponse	0	n/a	n/a	12	70	Cue	AvoidedLoss	True
662.277	4.05	Lose2	0.6901	0.0	Yes	3.024	0.001	n/a	GoodResponse	0	n/a	n/a	12	70	Fixation	AvoidedLoss	True
666.322	0.25	Lose2	0.6901	0.004	Yes	3.024	-0.004	2.0	GoodResponse	0	0.178	665.5	12	70	Target	AvoidedLoss	True
666.5	0.3	Lose2	0.6901	0.004	Yes	3.024	-0.004	2.0	GoodResponse	0	0.178	n/a	12	70	ButtonPress	AvoidedLoss	True
666.573	0.45	Lose2	0.6901	n/a	Yes	3.024	n/a	n/a	GoodResponse	0	n/a	n/a	12	70	Blank	AvoidedLoss	True
667.024	1.45	Lose2	0.6901	n/a	Yes	3.024	n/a	5.0	GoodResponse	0	0.017	666.041	12	70	Feedback	AvoidedLoss	True
668.479	3.024	Lose2	0.6901	n/a	Yes	3.024	n/a	n/a	GoodResponse	0	0.0	n/a	12	70	ISIslide	AvoidedLoss	True
671.521	0.25	Win2	0.6806	0.0	No	2.729	0.021	n/a	NoResponse	0	n/a	n/a	12	71	Cue	MissedWin	True
671.772	4.05	Win2	0.6806	0.0	No	2.729	0.001	n/a	NoResponse	0	n/a	n/a	12	71	Fixation	MissedWin	True
675.817	0.24	Win2	0.6806	0.004	No	2.729	-0.004	2.0	NoResponse	0	0.27	675.087	12	71	Target	MissedWin	True
676.068	0.46	Win2	0.6806	n/a	No	2.729	n/a	n/a	NoResponse	0	n/a	n/a	12	71	Blank	MissedWin	True
676.087	0.3	Win2	0.6806	0.004	No	2.729	-0.004	2.0	NoResponse	0	0.27	n/a	12	71	ButtonPress	MissedWin	True
676.519	1.45	Win2	0.6806	n/a	No	2.729	n/a	5.0	NoResponse	0	0.034	675.553	12	71	Feedback	MissedWin	True
677.974	2.729	Win2	0.6806	n/a	No	2.729	n/a	n/a	NoResponse	0	0.0	n/a	12	71	ISIslide	MissedWin	True
680.715	0.25	Win2	0.6849	0.0	Yes	2.785	0.015	n/a	GoodResponse	1	n/a	n/a	13	72	Cue	Win	True
680.966	4.1	Win2	0.6849	0.0	Yes	2.785	0.001	n/a	GoodResponse	1	n/a	n/a	13	72	Fixation	Win	True
685.061	0.23	Win2	0.6849	0.004	Yes	2.785	-0.004	2.0	GoodResponse	1	0.206	684.267	13	72	Target	Win	True
685.267	0.3	Win2	0.6849	0.004	Yes	2.785	-0.004	2.0	GoodResponse	1	0.206	n/a	13	72	ButtonPress	Win	True
685.296	0.47	Win2	0.6849	n/a	Yes	2.785	n/a	n/a	GoodResponse	1	n/a	n/a	13	72	Blank	Win	True
685.764	1.45	Win2	0.6849	n/a	Yes	2.785	n/a	5.0	GoodResponse	1	0.008	684.772	13	72	Feedback	Win	True
687.218	2.785	Win2	0.6849	n/a	Yes	2.785	n/a	n/a	GoodResponse	1	0.0	n/a	13	72	ISIslide	Win	True
690.026	0.25	Win2	0.6892	0.0	Yes	2.674	0.026	n/a	GoodResponse	1	n/a	n/a	14	73	Cue	Win	True
690.277	4.0	Win2	0.6892	0.0	Yes	2.674	0.001	n/a	GoodResponse	1	n/a	n/a	14	73	Fixation	Win	True
694.272	0.22	Win2	0.6892	0.004	Yes	2.674	-0.004	2.0	GoodResponse	1	0.186	693.458	14	73	Target	Win	True
694.458	0.3	Win2	0.6892	0.004	Yes	2.674	-0.004	2.0	GoodResponse	1	0.186	n/a	14	73	ButtonPress	Win	True
694.506	0.48	Win2	0.6892	n/a	Yes	2.674	n/a	n/a	GoodResponse	1	n/a	n/a	14	73	Blank	Win	True
694.974	1.45	Win2	0.6892	n/a	Yes	2.674	n/a	5.0	GoodResponse	1	0.017	693.991	14	73	Feedback	Win	True
696.429	2.674	Win2	0.6892	n/a	Yes	2.674	n/a	n/a	GoodResponse	1	0.0	n/a	14	73	ISIslide	Win	True
699.12	0.25	Lose2	0.68	0.0	No	2.63	0.02	n/a	PrematurePress	-1	n/a	n/a	13	74	Cue	Loss	True
699.371	4.05	Lose2	0.68	0.0	No	2.63	0.001	n/a	PrematurePress	-1	n/a	n/a	13	74	Fixation	Loss	True
703.416	0.21	Lose2	0.68	0.004	No	2.63	-0.004	2.0	PrematurePress	-1	0.045	702.461	13	74	Target	Loss	True
703.461	0.3	Lose2	0.68	0.004	No	2.63	-0.004	2.0	PrematurePress	-1	0.045	n/a	13	74	ButtonPress	Loss	True
703.634	0.49	Lose2	0.68	n/a	No	2.63	n/a	n/a	PrematurePress	-1	n/a	n/a	13	74	Blank	Loss	True
704.118	1.45	Lose2	0.68	n/a	No	2.63	n/a	5.0	PrematurePress	-1	0.044	703.162	13	74	Feedback	Loss	True
705.573	2.63	Lose2	0.68	n/a	No	2.63	n/a	n/a	PrematurePress	-1	0.0	n/a	13	74	ISIslide	Loss	True
708.231	0.25	Lose2	0.6711	0.0	No	2.919	0.031	n/a	NoResponse	-1	n/a	n/a	12	75	Cue	Loss	True
708.482	3.95	Lose2	0.6711	0.0	No	2.919	0.001	n/a	NoResponse	-1	n/a	n/a	12	75	Fixation	Loss	True
712.427	0.2	Lose2	0.6711	0.004	No	2.919	-0.004	2.0	NoResponse	-1	0.22	711.647	12	75	Target	Loss	True
712.627	0.5	Lose2	0.6711	n/a	No	2.919	n/a	n/a	NoResponse	-1	n/a	n/a	12	75	Blank	Loss	True
712.647	0.3	Lose2	0.6711	0.004	No	2.919	-0.004	2.0	NoResponse	-1	0.22	n/a	12	75	ButtonPress	Loss	True
713.129	1.45	Lose2	0.6711	n/a	No	2.919	n/a	5.0	NoResponse	-1	0.009	712.138	12	75	Feedback	Loss	True
714.583	2.919	Lose2	0.6711	n/a	No	2.919	n/a	n/a	NoResponse	-1	0.0	n/a	12	75	ISIslide	Loss	True
717.525	0.25	Control	0.6753	0.0	Yes	3.225	0.025	n/a	GoodResponse	0	n/a	n/a	12	76	Cue	Neutral	False
717.776	4.05	Control	0.6753	0.0	Yes	3.225	0.001	2.0	GoodResponse	0	3.519	720.295	12	76	Fixation	Neutral	False
721.295	0.3	Control	0.6753	0.0	Yes	3.225	0.001	2.0	GoodResponse	0	3.519	n/a	12	76	ButtonPress	Neutral	False
721.821	0.19	Control	0.6753	0.004	Yes	3.225	-0.004	2.0	GoodResponse	0	0.156	720.977	12	76	Target	Neutral	False
721.977	0.3	Control	0.6753	0.004	Yes	3.225	-0.004	2.0	GoodResponse	0	0.156	n/a	12	76	ButtonPress	Neutral	False
722.022	0.51	Control	0.6753	n/a	Yes	3.225	n/a	n/a	GoodResponse	0	n/a	n/a	12	76	Blank	Neutral	False
722.524	1.45	Control	0.6753	n/a	Yes	3.225	n/a	5.0	GoodResponse	0	0.028	721.552	12	76	Feedback	Neutral	False
723.978	3.225	Control	0.6753	n/a	Yes	3.225	n/a	n/a	GoodResponse	0	0.0	n/a	12	76	ISIslide	Neutral	False
727.221	0.25	Lose2	0.6667000000000001	0.0	No	2.579	0.021	n/a	NoResponse	-1	n/a	n/a	11	77	Cue	Loss	True
727.472	3.95	Lose2	0.6667000000000001	0.0	No	2.579	0.001	n/a	NoResponse	-1	n/a	n/a	11	77	Fixation	Loss	True
731.417	0.18	Lose2	0.6667000000000001	0.004	No	2.579	-0.004	2.0	NoResponse	-1	0.404	730.821	11	77	Target	Loss	True
731.601	0.52	Lose2	0.6667000000000001	n/a	No	2.579	n/a	n/a	NoResponse	-1	n/a	n/a	11	77	Blank	Loss	True
731.821	0.3	Lose2	0.6667000000000001	0.004	No	2.579	-0.004	2.0	NoResponse	-1	0.404	n/a	11	77	ButtonPress	Loss	True
732.119	1.45	Lose2	0.6667000000000001	n/a	No	2.579	n/a	5.0	NoResponse	-1	0.042	731.161	11	77	Feedback	Loss	True
733.573	2.579	Lose2	0.6667000000000001	n/a	No	2.579	n/a	n/a	NoResponse	-1	0.0	n/a	11	77	ISIslide	Loss	True
