onset	duration	cue_type	current_mean_accuracy	duration_error	is_hit	isi_adjusted	onset_delay	response	response_type	reward	rt	rt_time	total_reward	trial_number	trial_phase	trial_type	one_press
11.109	0.25	Control	1.0	0.0	Yes	2.941	0.009	n/a	GoodResponse	0	n/a	n/a	0	0	Cue	Neutral	True
11.36	3.85	Control	1.0	0.0	Yes	2.941	0.001	n/a	GoodResponse	0	n/a	n/a	0	0	Fixation	Neutral	True
15.205	0.4	Control	1.0	0.004	Yes	2.941	-0.004	2.0	GoodResponse	0	0.278	14.483	0	0	Target	Neutral	True
15.483	0.3	Control	1.0	0.004	Yes	2.941	-0.004	2.0	GoodResponse	0	0.278	n/a	0	0	ButtonPress	Neutral	True
15.606	0.3	Control	1.0	n/a	Yes	2.941	n/a	n/a	GoodResponse	0	n/a	n/a	0	0	Blank	Neutral	True
15.907	1.45	Control	1.0	n/a	Yes	2.941	n/a	5.0	GoodResponse	0	0.02	14.927	0	0	Feedback	Neutral	True
17.361	2.941	Control	1.0	n/a	Yes	2.941	n/a	n/a	GoodResponse	0	0.0	n/a	0	0	ISIslide	Neutral	True
20.37	0.25	Lose2	1.0	0.001	Yes	2.73	0.07	n/a	GoodResponse	0	n/a	n/a	0	1	Cue	AvoidedLoss	True
20.621	4.0	Lose2	1.0	0.0	Yes	2.73	0.001	n/a	GoodResponse	0	n/a	n/a	0	1	Fixation	AvoidedLoss	True
24.616	0.39	Lose2	1.0	0.004	Yes	2.73	-0.004	2.0	GoodResponse	0	0.22	23.836	0	1	Target	AvoidedLoss	True
24.836	0.3	Lose2	1.0	0.004	Yes	2.73	-0.004	2.0	GoodResponse	0	0.22	n/a	0	1	ButtonPress	AvoidedLoss	True
25.018	0.31	Lose2	1.0	n/a	Yes	2.73	n/a	n/a	GoodResponse	0	n/a	n/a	0	1	Blank	AvoidedLoss	True
25.318	1.45	Lose2	1.0	n/a	Yes	2.73	n/a	5.0	GoodResponse	0	0.024	24.342	0	1	Feedback	AvoidedLoss	True
26.773	2.73	Lose2	1.0	n/a	Yes	2.73	n/a	n/a	GoodResponse	0	0.0	n/a	0	1	ISIslide	AvoidedLoss	True
29.514	0.25	Control	1.0	0.001	Yes	2.586	0.014	n/a	GoodResponse	0	n/a	n/a	0	2	Cue	Neutral	True
29.765	4.1	Control	1.0	0.0	Yes	2.586	0.001	n/a	GoodResponse	0	n/a	n/a	0	2	Fixation	Neutral	True
33.861	0.38	Control	1.0	0.003	Yes	2.586	-0.003	2.0	GoodResponse	0	0.114	32.975	0	2	Target	Neutral	True
33.975	0.3	Control	1.0	0.003	Yes	2.586	-0.003	2.0	GoodResponse	0	0.114	n/a	0	2	ButtonPress	Neutral	True
34.245	0.32	Control	1.0	n/a	Yes	2.586	n/a	n/a	GoodResponse	0	n/a	n/a	0	2	Blank	Neutral	True
34.563	1.45	Control	1.0	n/a	Yes	2.586	n/a	5.0	GoodResponse	0	0.047	33.61	0	2	Feedback	Neutral	True
36.017	2.586	Control	1.0	n/a	Yes	2.586	n/a	n/a	GoodResponse	0	0.0	n/a	0	2	ISIslide	Neutral	True
38.675	0.25	Win2	1.0	0.0	Yes	2.775	0.075	n/a	GoodResponse	1	n/a	n/a	1	3	Cue	Win	True
38.926	3.95	Win2	1.0	0.0	Yes	2.775	0.001	n/a	GoodResponse	1	n/a	n/a	1	3	Fixation	Win	True
42.871	0.37	Win2	1.0	0.004	Yes	2.775	-0.004	2.0	GoodResponse	1	0.279	42.15	1	3	Target	Win	True
43.15	0.3	Win2	1.0	0.004	Yes	2.775	-0.004	2.0	GoodResponse	1	0.279	n/a	1	3	ButtonPress	Win	True
43.256	0.33	Win2	1.0	n/a	Yes	2.775	n/a	n/a	GoodResponse	1	n/a	n/a	1	3	Blank	Win	True
43.573	1.45	Win2	1.0	n/a	Yes	2.775	n/a	5.0	GoodResponse	1	0.013	42.586	1	3	Feedback	Win	True
45.028	2.775	Win2	1.0	n/a	Yes	2.775	n/a	n/a	GoodResponse	1	0.0	n/a	1	3	ISIslide	Win	True
47.819	0.25	Win2	1.0	0.0	Yes	3.281	0.019	n/a	GoodResponse	1	n/a	n/a	2	4	Cue	Win	True
48.07	4.0	Win2	1.0	0.0	Yes	3.281	0.001	n/a	GoodResponse	1	n/a	n/a	2	4	Fixation	Win	True
52.065	0.36	Win2	1.0	0.004	Yes	3.281	-0.004	2.0	GoodResponse	1	0.21	51.275	2	4	Target	Win	True
52.275	0.3	Win2	1.0	0.004	Yes	3.281	-0.004	2.0	GoodResponse	1	0.21	n/a	2	4	ButtonPress	Win	True
52.433	0.34	Win2	1.0	n/a	Yes	3.281	n/a	n/a	GoodResponse	1	n/a	n/a	2	4	Blank	Win	True
52.767	1.45	Win2	1.0	n/a	Yes	3.281	n/a	5.0	GoodResponse	1	0.037	51.804	2	4	Feedback	Win	True
54.222	3.281	Win2	1.0	n/a	Yes	3.281	n/a	n/a	GoodResponse	1	0.0	n/a	2	4	ISIslide	Win	True
57.515	0.25	Win2	1.0	0.0	Yes	2.785	0.015	n/a	GoodResponse	1	n/a	n/a	3	5	Cue	Win	True
57.766	4.0	Win2	1.0	0.0	Yes	2.785	0.001	n/a	GoodResponse	1	n/a	n/a	3	5	Fixation	Win	True
61.761	0.35	Win2	1.0	0.004	Yes	2.785	-0.004	2.0	GoodResponse	1	0.214	60.975	3	5	Target	Win	True
61.975	0.3	Win2	1.0	0.004	Yes	2.785	-0.004	2.0	GoodResponse	1	0.214	n/a	3	5	ButtonPress	Win	True
62.112	0.35	Win2	1.0	n/a	Yes	2.785	n/a	n/a	GoodResponse	1	n/a	n/a	3	5	Blank	Win	True
62.463	1.45	Win2	1.0	n/a	Yes	2.785	n/a	5.0	GoodResponse	1	0.0	61.463	3	5	Feedback	Win	True
63.917	2.785	Win2	1.0	n/a	Yes	2.785	n/a	n/a	GoodResponse	1	0.0	n/a	3	5	ISIslide	Win	True
66.726	0.25	Lose2	1.0	0.0	Yes	2.724	0.026	n/a	GoodResponse	0	n/a	n/a	3	6	Cue	AvoidedLoss	True
66.977	3.95	Lose2	1.0	0.0	Yes	2.724	0.001	n/a	GoodResponse	0	n/a	n/a	3	6	Fixation	AvoidedLoss	True
70.922	0.34	Lose2	1.0	0.004	Yes	2.724	-0.004	2.0	GoodResponse	0	0.225	70.147	3	6	Target	AvoidedLoss	True
71.147	0.3	Lose2	1.0	0.004	Yes	2.724	-0.004	2.0	GoodResponse	0	0.225	n/a	3	6	ButtonPress	AvoidedLoss	True
71.273	0.36	Lose2	1.0	n/a	Yes	2.724	n/a	n/a	GoodResponse	0	n/a	n/a	3	6	Blank	AvoidedLoss	True
71.624	1.45	Lose2	1.0	n/a	Yes	2.724	n/a	5.0	GoodResponse	0	0.01	70.634	3	6	Feedback	AvoidedLoss	True
73.078	2.724	Lose2	1.0	n/a	Yes	2.724	n/a	n/a	GoodResponse	0	0.0	n/a	3	6	ISIslide	AvoidedLoss	True
75.82	0.25	Lose2	1.0	0.0	Yes	4.03	0.02	n/a	GoodResponse	0	n/a	n/a	3	7	Cue	AvoidedLoss	True
76.071	4.05	Lose2	1.0	0.0	Yes	4.03	0.001	n/a	GoodResponse	0	n/a	n/a	3	7	Fixation	AvoidedLoss	True
80.116	0.33	Lose2	1.0	0.004	Yes	4.03	-0.004	2.0	GoodResponse	0	0.205	79.321	3	7	Target	AvoidedLoss	True
80.321	0.3	Lose2	1.0	0.004	Yes	4.03	-0.004	2.0	GoodResponse	0	0.205	n/a	3	7	ButtonPress	AvoidedLoss	True
80.45	0.37	Lose2	1.0	n/a	Yes	4.03	n/a	n/a	GoodResponse	0	n/a	n/a	3	7	Blank	AvoidedLoss	True
80.818	1.45	Lose2	1.0	n/a	Yes	4.03	n/a	5.0	GoodResponse	0	0.036	79.854	3	7	Feedback	AvoidedLoss	True
82.272	4.03	Lose2	1.0	n/a	Yes	4.03	n/a	n/a	GoodResponse	0	0.0	n/a	3	7	ISIslide	AvoidedLoss	True
86.318	0.25	Lose2	1.0	0.0	Yes	3.032	0.018	n/a	GoodResponse	0	n/a	n/a	3	8	Cue	AvoidedLoss	True
86.569	3.95	Lose2	1.0	0.0	Yes	3.032	0.001	n/a	GoodResponse	0	n/a	n/a	3	8	Fixation	AvoidedLoss	True
90.514	0.32	Lose2	1.0	0.004	Yes	3.032	-0.004	2.0	GoodResponse	0	0.204	89.718	3	8	Target	AvoidedLoss	True
90.718	0.3	Lose2	1.0	0.004	Yes	3.032	-0.004	2.0	GoodResponse	0	0.204	n/a	3	8	ButtonPress	AvoidedLoss	True
90.848	0.38	Lose2	1.0	n/a	Yes	3.032	n/a	n/a	GoodResponse	0	n/a	n/a	3	8	Blank	AvoidedLoss	True
91.216	1.45	Lose2	1.0	n/a	Yes	3.032	n/a	5.0	GoodResponse	0	0.028	90.244	3	8	Feedback	AvoidedLoss	True
92.67	3.032	Lose2	1.0	n/a	Yes	3.032	n/a	n/a	GoodResponse	0	0.0	n/a	3	8	ISIslide	AvoidedLoss	True
95.729	0.25	Lose2	1.0	0.001	Yes	3.121	0.029	n/a	GoodResponse	0	n/a	n/a	3	9	Cue	AvoidedLoss	True
95.98	3.95	Lose2	1.0	0.0	Yes	3.121	0.001	n/a	GoodResponse	0	n/a	n/a	3	9	Fixation	AvoidedLoss	True
99.925	0.31	Lose2	1.0	0.004	Yes	3.121	-0.004	2.0	GoodResponse	0	0.263	99.188	3	9	Target	AvoidedLoss	True
100.188	0.3	Lose2	1.0	0.004	Yes	3.121	-0.004	2.0	GoodResponse	0	0.263	n/a	3	9	ButtonPress	AvoidedLoss	True
100.243	0.39	Lose2	1.0	n/a	Yes	3.121	n/a	n/a	GoodResponse	0	n/a	n/a	3	9	Blank	AvoidedLoss	True
100.627	1.45	Lose2	1.0	n/a	Yes	3.121	n/a	5.0	GoodResponse	0	0.032	99.659	3	9	Feedback	AvoidedLoss	True
102.082	3.121	Lose2	1.0	n/a	Yes	3.121	n/a	n/a	GoodResponse	0	0.0	n/a	3	9	ISIslide	AvoidedLoss	True
105.225	0.25	Control	1.0	0.0	Yes	3.275	0.025	n/a	GoodResponse	0	n/a	n/a	3	10	Cue	Neutral	True
105.475	4.0	Control	1.0	0.0	Yes	3.275	0.0	n/a	GoodResponse	0	n/a	n/a	3	10	Fixation	Neutral	True
109.471	0.3	Control	1.0	0.004	Yes	3.275	-0.004	2.0	GoodResponse	0	0.201	108.672	3	10	Target	Neutral	True
109.672	0.3	Control	1.0	0.004	Yes	3.275	-0.004	2.0	GoodResponse	0	0.201	n/a	3	10	ButtonPress	Neutral	True
109.772	0.4	Control	1.0	n/a	Yes	3.275	n/a	n/a	GoodResponse	0	n/a	n/a	3	10	Blank	Neutral	True
110.173	1.45	Control	1.0	n/a	Yes	3.275	n/a	5.0	GoodResponse	0	0.046	109.219	3	10	Feedback	Neutral	True
111.627	3.275	Control	1.0	n/a	Yes	3.275	n/a	n/a	GoodResponse	0	0.0	n/a	3	10	ISIslide	Neutral	True
114.92	0.25	Lose2	1.0	0.0	Yes	2.73	0.02	n/a	GoodResponse	0	n/a	n/a	3	11	Cue	AvoidedLoss	False
115.171	4.05	Lose2	1.0	0.0	Yes	2.73	0.001	2.0	GoodResponse	0	3.626	117.797	3	11	Fixation	AvoidedLoss	False
118.797	0.3	Lose2	1.0	0.0	Yes	2.73	0.001	2.0	GoodResponse	0	3.626	n/a	3	11	ButtonPress	AvoidedLoss	False
119.217	0.29	Lose2	1.0	0.003	Yes	2.73	-0.003	2.0	GoodResponse	0	0.177	118.394	3	11	Target	AvoidedLoss	False
119.394	0.3	Lose2	1.0	0.003	Yes	2.73	-0.003	2.0	GoodResponse	0	0.177	n/a	3	11	ButtonPress	AvoidedLoss	False
119.517	0.41	Lose2	1.0	n/a	Yes	2.73	n/a	n/a	GoodResponse	0	n/a	n/a	3	11	Blank	AvoidedLoss	False
119.919	1.45	Lose2	1.0	n/a	Yes	2.73	n/a	5.0	GoodResponse	0	0.007	118.926	3	11	Feedback	AvoidedLoss	False
121.373	2.73	Lose2	1.0	n/a	Yes	2.73	n/a	n/a	GoodResponse	0	0.0	n/a	3	11	ISIslide	AvoidedLoss	False
124.115	0.25	Control	1.0	0.0	Yes	2.985	0.015	n/a	GoodResponse	0	n/a	n/a	3	12	Cue	Neutral	True
124.365	3.9	Control	1.0	0.0	Yes	2.985	0.0	n/a	GoodResponse	0	n/a	n/a	3	12	Fixation	Neutral	True
128.277	0.28	Control	1.0	0.0	Yes	2.985	0.012	2.0	GoodResponse	0	0.234	127.511	3	12	Target	Neutral	True
128.511	0.3	Control	1.0	0.0	Yes	2.985	0.012	2.0	GoodResponse	0	0.234	n/a	3	12	ButtonPress	Neutral	True
128.544	0.42	Control	1.0	n/a	Yes	2.985	n/a	n/a	GoodResponse	0	n/a	n/a	3	12	Blank	Neutral	True
128.962	1.45	Control	1.0	n/a	Yes	2.985	n/a	5.0	GoodResponse	0	0.037	127.999	3	12	Feedback	Neutral	True
130.417	2.985	Control	1.0	n/a	Yes	2.985	n/a	n/a	GoodResponse	0	0.0	n/a	3	12	ISIslide	Neutral	True
133.426	0.25	Control	1.0	0.0	Yes	2.774	0.026	n/a	GoodResponse	0	n/a	n/a	3	13	Cue	Neutral	True
133.677	4.0	Control	1.0	0.0	Yes	2.774	0.001	n/a	GoodResponse	0	n/a	n/a	3	13	Fixation	Neutral	True
137.672	0.27	Control	1.0	0.004	Yes	2.774	-0.004	2.0	GoodResponse	0	0.202	136.874	3	13	Target	Neutral	True
137.874	0.3	Control	1.0	0.004	Yes	2.774	-0.004	2.0	GoodResponse	0	0.202	n/a	3	13	ButtonPress	Neutral	True
137.956	0.43	Control	1.0	n/a	Yes	2.774	n/a	n/a	GoodResponse	0	n/a	n/a	3	13	Blank	Neutral	True
138.374	1.45	Control	1.0	n/a	Yes	2.774	n/a	5.0	GoodResponse	0	0.04	137.414	3	13	Feedback	Neutral	True
139.828	2.774	Control	1.0	n/a	Yes	2.774	n/a	n/a	GoodResponse	0	0.0	n/a	3	13	ISIslide	Neutral	True
142.62	0.25	Win2	1.0	0.0	Yes	2.68	0.02	n/a	GoodResponse	1	n/a	n/a	4	14	Cue	Win	True
142.871	4.1	Win2	1.0	0.0	Yes	2.68	0.001	n/a	GoodResponse	1	n/a	n/a	4	14	Fixation	Win	True
146.966	0.26	Win2	1.0	0.004	Yes	2.68	-0.004	2.0	GoodResponse	1	0.114	146.08	4	14	Target	Win	True
147.08	0.3	Win2	1.0	0.004	Yes	2.68	-0.004	2.0	GoodResponse	1	0.114	n/a	4	14	ButtonPress	Win	True
147.234	0.44	Win2	1.0	n/a	Yes	2.68	n/a	n/a	GoodResponse	1	n/a	n/a	4	14	Blank	Win	True
147.668	1.45	Win2	1.0	n/a	Yes	2.68	n/a	5.0	GoodResponse	1	0.014	146.682	4	14	Feedback	Win	True
149.123	2.68	Win2	1.0	n/a	Yes	2.68	n/a	n/a	GoodResponse	1	0.0	n/a	4	14	ISIslide	Win	True
151.814	0.25	Control	1.0	0.0	Yes	2.986	0.014	n/a	GoodResponse	0	n/a	n/a	4	15	Cue	Neutral	True
152.065	4.0	Control	1.0	0.0	Yes	2.986	0.001	n/a	GoodResponse	0	n/a	n/a	4	15	Fixation	Neutral	True
156.06	0.25	Control	1.0	0.004	Yes	2.986	-0.004	2.0	GoodResponse	0	0.217	155.277	4	15	Target	Neutral	True
156.277	0.3	Control	1.0	0.004	Yes	2.986	-0.004	2.0	GoodResponse	0	0.217	n/a	4	15	ButtonPress	Neutral	True
156.311	0.45	Control	1.0	n/a	Yes	2.986	n/a	n/a	GoodResponse	0	n/a	n/a	4	15	Blank	Neutral	True
156.762	1.45	Control	1.0	n/a	Yes	2.986	n/a	5.0	GoodResponse	0	0.043	155.805	4	15	Feedback	Neutral	True
158.217	2.986	Control	1.0	n/a	Yes	2.986	n/a	n/a	GoodResponse	0	0.0	n/a	4	15	ISIslide	Neutral	True
161.226	0.25	Win2	1.0	0.0	Yes	2.874	0.026	n/a	GoodResponse	1	n/a	n/a	5	16	Cue	Win	True
161.476	4.0	Win2	1.0	0.001	Yes	2.874	0.0	n/a	GoodResponse	1	n/a	n/a	5	16	Fixation	Win	True
165.472	0.24	Win2	1.0	0.004	Yes	2.874	-0.004	2.0	GoodResponse	1	0.203	164.675	5	16	Target	Win	True
165.675	0.3	Win2	1.0	0.004	Yes	2.874	-0.004	2.0	GoodResponse	1	0.203	n/a	5	16	ButtonPress	Win	True
165.723	0.46	Win2	1.0	n/a	Yes	2.874	n/a	n/a	GoodResponse	1	n/a	n/a	5	16	Blank	Win	True
166.174	1.45	Win2	1.0	n/a	Yes	2.874	n/a	5.0	GoodResponse	1	0.045	165.219	5	16	Feedback	Win	True
167.628	2.874	Win2	1.0	n/a	Yes	2.874	n/a	n/a	GoodResponse	1	0.0	n/a	5	16	ISIslide	Win	True
170.52	0.25	Lose2	0.9444	0.0	No	2.73	0.02	n/a	NoResponse	-1	n/a	n/a	4	17	Cue	Loss	True
170.771	3.95	Lose2	0.9444	0.0	No	2.73	0.001	n/a	NoResponse	-1	n/a	n/a	4	17	Fixation	Loss	True
174.716	0.23	Lose2	0.9444	0.004	No	2.73	-0.004	2.0	NoResponse	-1	0.255	173.971	4	17	Target	Loss	True
174.95	0.47	Lose2	0.9444	n/a	No	2.73	n/a	n/a	NoResponse	-1	n/a	n/a	4	17	Blank	Loss	True
174.971	0.3	Lose2	0.9444	0.004	No	2.73	-0.004	2.0	NoResponse	-1	0.255	n/a	4	17	ButtonPress	Loss	True
175.418	1.45	Lose2	0.9444	n/a	No	2.73	n/a	5.0	NoResponse	-1	0.02	174.438	4	17	Feedback	Loss	True
176.873	2.73	Lose2	0.9444	n/a	No	2.73	n/a	n/a	NoResponse	-1	0.0	n/a	4	17	ISIslide	Loss	True
179.631	0.25	Lose2	0.9473999999999999	0.0	Yes	2.719	0.031	n/a	GoodResponse	0	n/a	n/a	4	18	Cue	AvoidedLoss	True
179.882	4.05	Lose2	0.9473999999999999	0.0	Yes	2.719	0.001	n/a	GoodResponse	0	n/a	n/a	4	18	Fixation	AvoidedLoss	True
183.927	0.22	Lose2	0.9473999999999999	0.004	Yes	2.719	-0.004	2.0	GoodResponse	0	0.219	183.146	4	18	Target	AvoidedLoss	True
184.146	0.3	Lose2	0.9473999999999999	0.004	Yes	2.719	-0.004	2.0	GoodResponse	0	0.219	n/a	4	18	ButtonPress	AvoidedLoss	True
184.161	0.48	Lose2	0.9473999999999999	n/a	Yes	2.719	n/a	n/a	GoodResponse	0	n/a	n/a	4	18	Blank	AvoidedLoss	True
184.629	1.45	Lose2	0.9473999999999999	n/a	Yes	2.719	n/a	5.0	GoodResponse	0	0.029	183.658	4	18	Feedback	AvoidedLoss	True
186.084	2.719	Lose2	0.9473999999999999	n/a	Yes	2.719	n/a	n/a	GoodResponse	0	0.0	n/a	4	18	ISIslide	AvoidedLoss	True
188.825	0.25	Control	0.9	0.0	No	2.925	0.025	n/a	NoResponse	0	n/a	n/a	4	19	Cue	Neutral	True
189.076	3.95	Control	0.9	0.0	No	2.925	0.001	n/a	NoResponse	0	n/a	n/a	4	19	Fixation	Neutral	True
193.021	0.21	Control	0.9	0.004	No	2.925	-0.004	2.0	NoResponse	0	0.246	192.267	4	19	Target	Neutral	True
193.238	0.49	Control	0.9	n/a	No	2.925	n/a	n/a	NoResponse	0	n/a	n/a	4	19	Blank	Neutral	True
193.267	0.3	Control	0.9	0.004	No	2.925	-0.004	2.0	NoResponse	0	0.246	n/a	4	19	ButtonPress	Neutral	True
193.723	1.45	Control	0.9	n/a	No	2.925	n/a	5.0	NoResponse	0	0.008	192.731	4	19	Feedback	Neutral	True
195.177	2.925	Control	0.9	n/a	No	2.925	n/a	n/a	NoResponse	0	0.0	n/a	4	19	ISIslide	Neutral	True
198.12	0.25	Control	0.8571	0.0	No	2.63	0.02	n/a	NoResponse	0	n/a	n/a	4	20	Cue	Neutral	True
198.37	4.05	Control	0.8571	0.0	No	2.63	0.0	n/a	NoResponse	0	n/a	n/a	4	20	Fixation	Neutral	True
202.416	0.2	Control	0.8571	0.004	No	2.63	-0.004	2.0	NoResponse	0	0.222	201.638	4	20	Target	Neutral	True
202.616	0.5	Control	0.8571	n/a	No	2.63	n/a	n/a	NoResponse	0	n/a	n/a	4	20	Blank	Neutral	True
202.638	0.3	Control	0.8571	0.004	No	2.63	-0.004	2.0	NoResponse	0	0.222	n/a	4	20	ButtonPress	Neutral	True
203.118	1.45	Control	0.8571	n/a	No	2.63	n/a	5.0	NoResponse	0	0.028	202.146	4	20	Feedback	Neutral	True
204.572	2.63	Control	0.8571	n/a	No	2.63	n/a	n/a	NoResponse	0	0.0	n/a	4	20	ISIslide	Neutral	True
207.23	0.25	Control	0.8181999999999999	0.0	No	2.77	0.03	n/a	LatePress	0	n/a	n/a	4	21	Cue	Neutral	True
207.481	4.1	Control	0.8181999999999999	0.0	No	2.77	0.001	n/a	LatePress	0	n/a	n/a	4	21	Fixation	Neutral	True
211.577	0.19	Control	0.8181999999999999	0.003	No	2.77	-0.003	2.0	LatePress	0	0.194	210.771	4	21	Target	Neutral	True
211.771	0.3	Control	0.8181999999999999	0.003	No	2.77	-0.003	2.0	LatePress	0	0.194	n/a	4	21	ButtonPress	Neutral	True
211.777	0.51	Control	0.8181999999999999	n/a	No	2.77	n/a	n/a	LatePress	0	n/a	n/a	4	21	Blank	Neutral	True
212.279	1.45	Control	0.8181999999999999	n/a	No	2.77	n/a	5.0	LatePress	0	0.037	211.316	4	21	Feedback	Neutral	True
213.733	2.77	Control	0.8181999999999999	n/a	No	2.77	n/a	n/a	LatePress	0	0.0	n/a	4	21	ISIslide	Neutral	True
216.525	0.25	Control	0.7826000000000001	0.0	No	2.775	0.025	n/a	NoResponse	0	n/a	n/a	4	22	Cue	Neutral	True
216.776	4.0	Control	0.7826000000000001	0.0	No	2.775	0.001	n/a	NoResponse	0	n/a	n/a	4	22	Fixation	Neutral	True
220.771	0.18	Control	0.7826000000000001	0.004	No	2.775	-0.004	2.0	NoResponse	0	0.268	220.039	4	22	Target	Neutral	True
220.955	0.52	Control	0.7826000000000001	n/a	No	2.775	n/a	n/a	NoResponse	0	n/a	n/a	4	22	Blank	Neutral	True
221.039	0.3	Control	0.7826000000000001	0.004	No	2.775	-0.004	2.0	NoResponse	0	0.268	n/a	4	22	ButtonPress	Neutral	True
221.473	1.45	Control	0.7826000000000001	n/a	No	2.775	n/a	5.0	NoResponse	0	0.014	220.487	4	22	Feedback	Neutral	True
222.927	2.775	Control	0.7826000000000001	n/a	No	2.775	n/a	n/a	NoResponse	0	0.0	n/a	4	22	ISIslide	Neutral	True
225.719	0.25	Control	0.75	0.0	No	2.781	0.019	n/a	NoResponse	0	n/a	n/a	4	23	Cue	Neutral	True
225.97	3.9	Control	0.75	0.0	No	2.781	0.001	n/a	NoResponse	0	n/a	n/a	4	23	Fixation	Neutral	True
229.865	0.17	Control	0.75	0.004	No	2.781	-0.004	2.0	NoResponse	0	0.263	229.128	4	23	Target	Neutral	True
230.049	0.53	Control	0.75	n/a	No	2.781	n/a	n/a	NoResponse	0	n/a	n/a	4	23	Blank	Neutral	True
230.128	0.3	Control	0.75	0.004	No	2.781	-0.004	2.0	NoResponse	0	0.263	n/a	4	23	ButtonPress	Neutral	True
230.567	1.45	Control	0.75	n/a	No	2.781	n/a	5.0	NoResponse	0	0.041	229.608	4	23	Feedback	Neutral	True
232.021	2.781	Control	0.75	n/a	No	2.781	n/a	n/a	NoResponse	0	0.0	n/a	4	23	ISIslide	Neutral	True
234.83	0.25	Win2	0.72	0.0	No	3.12	0.03	n/a	NoResponse	0	n/a	n/a	4	24	Cue	MissedWin	True
235.08	3.95	Win2	0.72	0.0	No	3.12	0.0	n/a	NoResponse	0	n/a	n/a	4	24	Fixation	MissedWin	True
239.042	0.16	Win2	0.72	0.0	No	3.12	0.012	2.0	NoResponse	0	0.185	238.227	4	24	Target	MissedWin	True
239.193	0.54	Win2	0.72	n/a	No	3.12	n/a	n/a	NoResponse	0	n/a	n/a	4	24	Blank	MissedWin	True
239.227	0.3	Win2	0.72	0.0	No	3.12	0.012	2.0	NoResponse	0	0.185	n/a	4	24	ButtonPress	MissedWin	True
239.728	1.45	Win2	0.72	n/a	No	3.12	n/a	5.0	NoResponse	0	0.008	238.736	4	24	Feedback	MissedWin	True
241.182	3.12	Win2	0.72	n/a	No	3.12	n/a	n/a	NoResponse	0	0.0	n/a	4	24	ISIslide	MissedWin	True
244.325	0.25	Win2	0.6923	0.0	No	3.075	0.025	n/a	NoResponse	0	n/a	n/a	4	25	Cue	MissedWin	True
244.575	4.0	Win2	0.6923	0.001	No	3.075	0.0	n/a	NoResponse	0	n/a	n/a	4	25	Fixation	MissedWin	True
248.571	0.15	Win2	0.6923	0.004	No	3.075	-0.004	2.0	NoResponse	0	0.21	247.781	4	25	Target	MissedWin	True
248.721	0.55	Win2	0.6923	n/a	No	3.075	n/a	n/a	NoResponse	0	n/a	n/a	4	25	Blank	MissedWin	True
248.781	0.3	Win2	0.6923	0.004	No	3.075	-0.004	2.0	NoResponse	0	0.21	n/a	4	25	ButtonPress	MissedWin	True
249.273	1.45	Win2	0.6923	n/a	No	3.075	n/a	5.0	NoResponse	0	0.018	248.291	4	25	Feedback	MissedWin	True
250.727	3.075	Win2	0.6923	n/a	No	3.075	n/a	n/a	NoResponse	0	0.0	n/a	4	25	ISIslide	MissedWin	True
253.82	0.25	Win2	0.6667000000000001	0.0	No	2.93	0.02	n/a	NoResponse	0	n/a	n/a	4	26	Cue	MissedWin	True
254.071	3.95	Win2	0.6667000000000001	0.0	No	2.93	0.001	2.0	NoResponse	0	3.846	256.917	4	26	Fixation	MissedWin	True
257.917	0.3	Win2	0.6667000000000001	0.0	No	2.93	0.001	2.0	NoResponse	0	3.846	n/a	4	26	ButtonPress	MissedWin	True
258.016	0.15	Win2	0.6667000000000001	0.004	No	2.93	-0.004	n/a	NoResponse	0	n/a	n/a	4	26	Target	MissedWin	True
258.166	0.55	Win2	0.6667000000000001	n/a	No	2.93	n/a	n/a	NoResponse	0	n/a	n/a	4	26	Blank	MissedWin	True
258.718	1.45	Win2	0.6667000000000001	n/a	No	2.93	n/a	5.0	NoResponse	0	0.037	257.755	4	26	Feedback	MissedWin	True
260.172	2.93	Win2	0.6667000000000001	n/a	No	2.93	n/a	n/a	NoResponse	0	0.0	n/a	4	26	ISIslide	MissedWin	True
263.131	0.25	Lose2	0.6429	0.0	No	2.819	0.031	n/a	NoResponse	-1	n/a	n/a	3	27	Cue	Loss	True
263.382	4.05	Lose2	0.6429	0.0	No	2.819	0.001	n/a	NoResponse	-1	n/a	n/a	3	27	Fixation	Loss	True
267.427	0.15	Lose2	0.6429	0.004	No	2.819	-0.004	2.0	NoResponse	-1	0.233	266.66	3	27	Target	Loss	True
267.578	0.55	Lose2	0.6429	n/a	No	2.819	n/a	n/a	NoResponse	-1	n/a	n/a	3	27	Blank	Loss	True
267.66	0.3	Lose2	0.6429	0.004	No	2.819	-0.004	2.0	NoResponse	-1	0.233	n/a	3	27	ButtonPress	Loss	True
268.129	1.45	Lose2	0.6429	n/a	No	2.819	n/a	5.0	NoResponse	-1	0.041	267.17	3	27	Feedback	Loss	True
269.584	2.819	Lose2	0.6429	n/a	No	2.819	n/a	n/a	NoResponse	-1	0.0	n/a	3	27	ISIslide	Loss	True
272.426	0.25	Control	0.6207	0.0	No	2.824	0.026	n/a	NoResponse	0	n/a	n/a	3	28	Cue	Neutral	True
272.676	4.05	Control	0.6207	0.0	No	2.824	0.0	n/a	NoResponse	0	n/a	n/a	3	28	Fixation	Neutral	True
276.722	0.16	Control	0.6207	0.004	No	2.824	-0.004	2.0	NoResponse	0	0.219	275.941	3	28	Target	Neutral	True
276.889	0.54	Control	0.6207	n/a	No	2.824	n/a	n/a	NoResponse	0	n/a	n/a	3	28	Blank	Neutral	True
276.941	0.3	Control	0.6207	0.004	No	2.824	-0.004	2.0	NoResponse	0	0.219	n/a	3	28	ButtonPress	Neutral	True
277.424	1.45	Control	0.6207	n/a	No	2.824	n/a	5.0	NoResponse	0	0.014	276.438	3	28	Feedback	Neutral	True
278.878	2.824	Control	0.6207	n/a	No	2.824	n/a	n/a	NoResponse	0	0.0	n/a	3	28	ISIslide	Neutral	True
281.72	0.25	Lose2	0.6	0.0	No	2.83	0.02	n/a	NoResponse	-1	n/a	n/a	2	29	Cue	Loss	True
281.971	3.95	Lose2	0.6	0.0	No	2.83	0.001	n/a	NoResponse	-1	n/a	n/a	2	29	Fixation	Loss	True
285.916	0.17	Lose2	0.6	0.004	No	2.83	-0.004	2.0	NoResponse	-1	0.195	285.111	2	29	Target	Loss	True
286.1	0.53	Lose2	0.6	n/a	No	2.83	n/a	n/a	NoResponse	-1	n/a	n/a	2	29	Blank	Loss	True
286.111	0.3	Lose2	0.6	0.004	No	2.83	-0.004	2.0	NoResponse	-1	0.195	n/a	2	29	ButtonPress	Loss	True
286.618	1.45	Lose2	0.6	n/a	No	2.83	n/a	5.0	NoResponse	-1	0.039	285.657	2	29	Feedback	Loss	True
288.072	2.83	Lose2	0.6	n/a	No	2.83	n/a	n/a	NoResponse	-1	0.0	n/a	2	29	ISIslide	Loss	True
290.931	0.25	Win2	0.5806	0.0	No	2.769	0.031	n/a	NoResponse	0	n/a	n/a	2	30	Cue	MissedWin	True
291.182	3.9	Win2	0.5806	0.0	No	2.769	0.001	n/a	NoResponse	0	n/a	n/a	2	30	Fixation	MissedWin	True
295.077	0.18	Win2	0.5806	0.004	No	2.769	-0.004	2.0	NoResponse	0	0.227	294.304	2	30	Target	MissedWin	True
295.261	0.52	Win2	0.5806	n/a	No	2.769	n/a	n/a	NoResponse	0	n/a	n/a	2	30	Blank	MissedWin	True
295.304	0.3	Win2	0.5806	0.004	No	2.769	-0.004	2.0	NoResponse	0	0.227	n/a	2	30	ButtonPress	MissedWin	True
295.779	1.45	Win2	0.5806	n/a	No	2.769	n/a	5.0	NoResponse	0	0.0	294.779	2	30	Feedback	MissedWin	True
297.233	2.769	Win2	0.5806	n/a	No	2.769	n/a	n/a	NoResponse	0	0.0	n/a	2	30	ISIslide	MissedWin	True
300.025	0.25	Lose2	0.5938	0.0	Yes	2.825	0.025	n/a	GoodResponse	0	n/a	n/a	2	31	Cue	AvoidedLoss	True
300.276	4.05	Lose2	0.5938	0.0	Yes	2.825	0.001	n/a	GoodResponse	0	n/a	n/a	2	31	Fixation	AvoidedLoss	True
304.321	0.19	Lose2	0.5938	0.004	Yes	2.825	-0.004	2.0	GoodResponse	0	0.183	303.504	2	31	Target	AvoidedLoss	True
304.504	0.3	Lose2	0.5938	0.004	Yes	2.825	-0.004	2.0	GoodResponse	0	0.183	n/a	2	31	ButtonPress	AvoidedLoss	True
304.522	0.51	Lose2	0.5938	n/a	Yes	2.825	n/a	n/a	GoodResponse	0	n/a	n/a	2	31	Blank	AvoidedLoss	True
305.023	1.45	Lose2	0.5938	n/a	Yes	2.825	n/a	5.0	GoodResponse	0	0.024	304.047	2	31	Feedback	AvoidedLoss	True
306.478	2.825	Lose2	0.5938	n/a	Yes	2.825	n/a	n/a	GoodResponse	0	0.0	n/a	2	31	ISIslide	AvoidedLoss	True
309.319	0.25	Lose2	0.5758	0.001	No	2.631	0.019	n/a	NoResponse	-1	n/a	n/a	1	32	Cue	Loss	True
309.57	4.15	Lose2	0.5758	0.0	No	2.631	0.001	n/a	NoResponse	-1	n/a	n/a	1	32	Fixation	Loss	True
313.716	0.2	Lose2	0.5758	0.003	No	2.631	-0.003	2.0	NoResponse	-1	0.215	312.931	1	32	Target	Loss	True
313.917	0.5	Lose2	0.5758	n/a	No	2.631	n/a	n/a	NoResponse	-1	n/a	n/a	1	32	Blank	Loss	True
313.931	0.3	Lose2	0.5758	0.003	No	2.631	-0.003	2.0	NoResponse	-1	0.215	n/a	1	32	ButtonPress	Loss	True
314.418	1.45	Lose2	0.5758	n/a	No	2.631	n/a	5.0	NoResponse	-1	0.044	313.462	1	32	Feedback	Loss	True
315.872	2.631	Lose2	0.5758	n/a	No	2.631	n/a	n/a	NoResponse	-1	0.0	n/a	1	32	ISIslide	Loss	True
318.53	0.25	Win2	0.5882000000000001	0.0	Yes	2.67	0.03	n/a	GoodResponse	1	n/a	n/a	2	33	Cue	Win	True
318.781	4.0	Win2	0.5882000000000001	0.0	Yes	2.67	0.001	n/a	GoodResponse	1	n/a	n/a	2	33	Fixation	Win	True
322.776	0.21	Win2	0.5882000000000001	0.004	Yes	2.67	-0.004	2.0	GoodResponse	1	0.187	321.963	2	33	Target	Win	True
322.963	0.3	Win2	0.5882000000000001	0.004	Yes	2.67	-0.004	2.0	GoodResponse	1	0.187	n/a	2	33	ButtonPress	Win	True
322.994	0.49	Win2	0.5882000000000001	n/a	Yes	2.67	n/a	n/a	GoodResponse	1	n/a	n/a	2	33	Blank	Win	True
323.479	1.45	Win2	0.5882000000000001	n/a	Yes	2.67	n/a	5.0	GoodResponse	1	0.007	322.486	2	33	Feedback	Win	True
324.933	2.67	Win2	0.5882000000000001	n/a	Yes	2.67	n/a	n/a	GoodResponse	1	0.0	n/a	2	33	ISIslide	Win	True
327.624	0.25	Lose2	0.6	0.0	Yes	2.626	0.024	n/a	GoodResponse	0	n/a	n/a	2	34	Cue	AvoidedLoss	True
327.875	4.05	Lose2	0.6	0.0	Yes	2.626	0.001	n/a	GoodResponse	0	n/a	n/a	2	34	Fixation	AvoidedLoss	True
331.921	0.22	Lose2	0.6	0.003	Yes	2.626	-0.003	2.0	GoodResponse	0	0.185	331.106	2	34	Target	AvoidedLoss	True
332.106	0.3	Lose2	0.6	0.003	Yes	2.626	-0.003	2.0	GoodResponse	0	0.185	n/a	2	34	ButtonPress	AvoidedLoss	True
332.155	0.48	Lose2	0.6	n/a	Yes	2.626	n/a	n/a	GoodResponse	0	n/a	n/a	2	34	Blank	AvoidedLoss	True
332.623	1.45	Lose2	0.6	n/a	Yes	2.626	n/a	5.0	GoodResponse	0	0.034	331.657	2	34	Feedback	AvoidedLoss	True
334.077	2.626	Lose2	0.6	n/a	Yes	2.626	n/a	n/a	GoodResponse	0	0.0	n/a	2	34	ISIslide	AvoidedLoss	True
336.718	0.25	Lose2	0.6111	0.0	Yes	2.682	0.018	n/a	GoodResponse	0	n/a	n/a	2	35	Cue	AvoidedLoss	True
336.969	4.0	Lose2	0.6111	0.0	Yes	2.682	0.001	n/a	GoodResponse	0	n/a	n/a	2	35	Fixation	AvoidedLoss	True
340.964	0.23	Lose2	0.6111	0.004	Yes	2.682	-0.004	2.0	GoodResponse	0	0.173	340.137	2	35	Target	AvoidedLoss	True
341.137	0.3	Lose2	0.6111	0.004	Yes	2.682	-0.004	2.0	GoodResponse	0	0.173	n/a	2	35	ButtonPress	AvoidedLoss	True
341.198	0.47	Lose2	0.6111	n/a	Yes	2.682	n/a	n/a	GoodResponse	0	n/a	n/a	2	35	Blank	AvoidedLoss	True
341.666	1.45	Lose2	0.6111	n/a	Yes	2.682	n/a	5.0	GoodResponse	0	0.016	340.682	2	35	Feedback	AvoidedLoss	True
343.121	2.682	Lose2	0.6111	n/a	Yes	2.682	n/a	n/a	GoodResponse	0	0.0	n/a	2	35	ISIslide	AvoidedLoss	True
345.829	0.25	Control	0.5946	0.0	No	2.671	0.029	n/a	NoResponse	0	n/a	n/a	2	36	Cue	Neutral	True
346.08	4.0	Control	0.5946	0.0	No	2.671	0.001	2.0	NoResponse	0	3.963	349.043	2	36	Fixation	Neutral	True
350.043	0.3	Control	0.5946	0.0	No	2.671	0.001	2.0	NoResponse	0	3.963	n/a	2	36	ButtonPress	Neutral	True
350.075	0.24	Control	0.5946	0.004	No	2.671	-0.004	n/a	NoResponse	0	n/a	n/a	2	36	Target	Neutral	True
350.326	0.46	Control	0.5946	n/a	No	2.671	n/a	n/a	NoResponse	0	n/a	n/a	2	36	Blank	Neutral	True
350.777	1.45	Control	0.5946	n/a	No	2.671	n/a	5.0	NoResponse	0	0.026	349.803	2	36	Feedback	Neutral	True
352.231	2.671	Control	0.5946	n/a	No	2.671	n/a	n/a	NoResponse	0	0.0	n/a	2	36	ISIslide	Neutral	True
354.923	0.25	Win2	0.6053000000000001	0.0	Yes	2.877	0.023	n/a	GoodResponse	1	n/a	n/a	3	37	Cue	Win	True
355.174	4.0	Win2	0.6053000000000001	0.0	Yes	2.877	0.001	n/a	GoodResponse	1	n/a	n/a	3	37	Fixation	Win	True
359.169	0.25	Win2	0.6053000000000001	0.004	Yes	2.877	-0.004	2.0	GoodResponse	1	0.224	358.393	3	37	Target	Win	True
359.393	0.3	Win2	0.6053000000000001	0.004	Yes	2.877	-0.004	2.0	GoodResponse	1	0.224	n/a	3	37	ButtonPress	Win	True
359.42	0.45	Win2	0.6053000000000001	n/a	Yes	2.877	n/a	n/a	GoodResponse	1	n/a	n/a	3	37	Blank	Win	True
359.871	1.45	Win2	0.6053000000000001	n/a	Yes	2.877	n/a	5.0	GoodResponse	1	0.007	358.878	3	37	Feedback	Win	True
361.325	2.877	Win2	0.6053000000000001	n/a	Yes	2.877	n/a	n/a	GoodResponse	1	0.0	n/a	3	37	ISIslide	Win	True
364.217	0.25	Lose2	0.5897	0.0	No	2.833	0.017	n/a	LatePress	-1	n/a	n/a	2	38	Cue	Loss	True
364.468	3.95	Lose2	0.5897	0.0	No	2.833	0.001	n/a	LatePress	-1	n/a	n/a	2	38	Fixation	Loss	True
368.413	0.26	Lose2	0.5897	0.004	No	2.833	-0.004	2.0	LatePress	-1	0.265	367.678	2	38	Target	Loss	True
368.678	0.3	Lose2	0.5897	0.004	No	2.833	-0.004	2.0	LatePress	-1	0.265	n/a	2	38	ButtonPress	Loss	True
368.681	0.44	Lose2	0.5897	n/a	No	2.833	n/a	n/a	LatePress	-1	n/a	n/a	2	38	Blank	Loss	True
369.115	1.45	Lose2	0.5897	n/a	No	2.833	n/a	5.0	LatePress	-1	0.029	368.144	2	38	Feedback	Loss	True
370.57	2.833	Lose2	0.5897	n/a	No	2.833	n/a	n/a	LatePress	-1	0.0	n/a	2	38	ISIslide	Loss	True
373.428	0.25	Win2	0.6	0.0	Yes	2.972	0.028	n/a	GoodResponse	1	n/a	n/a	3	39	Cue	Win	True
373.679	4.1	Win2	0.6	0.0	Yes	2.972	0.001	n/a	GoodResponse	1	n/a	n/a	3	39	Fixation	Win	True
377.775	0.27	Win2	0.6	0.003	Yes	2.972	-0.003	2.0	GoodResponse	1	0.21	376.985	3	39	Target	Win	True
377.985	0.3	Win2	0.6	0.003	Yes	2.972	-0.003	2.0	GoodResponse	1	0.21	n/a	3	39	ButtonPress	Win	True
378.059	0.43	Win2	0.6	n/a	Yes	2.972	n/a	n/a	GoodResponse	1	n/a	n/a	3	39	Blank	Win	True
378.477	1.45	Win2	0.6	n/a	Yes	2.972	n/a	5.0	GoodResponse	1	0.033	377.51	3	39	Feedback	Win	True
379.931	2.972	Win2	0.6	n/a	Yes	2.972	n/a	n/a	GoodResponse	1	0.0	n/a	3	39	ISIslide	Win	True
382.923	0.25	Win2	0.6098	0.0	Yes	2.727	0.023	n/a	GoodResponse	1	n/a	n/a	4	40	Cue	Win	True
383.174	3.95	Win2	0.6098	0.0	Yes	2.727	0.001	n/a	GoodResponse	1	n/a	n/a	4	40	Fixation	Win	True
387.119	0.28	Win2	0.6098	0.004	Yes	2.727	-0.004	2.0	GoodResponse	1	0.229	386.348	4	40	Target	Win	True
387.348	0.3	Win2	0.6098	0.004	Yes	2.727	-0.004	2.0	GoodResponse	1	0.229	n/a	4	40	ButtonPress	Win	True
387.403	0.42	Win2	0.6098	n/a	Yes	2.727	n/a	n/a	GoodResponse	1	n/a	n/a	4	40	Blank	Win	True
387.821	1.45	Win2	0.6098	n/a	Yes	2.727	n/a	5.0	GoodResponse	1	0.008	386.829	4	40	Feedback	Win	True
389.276	2.727	Win2	0.6098	n/a	Yes	2.727	n/a	n/a	GoodResponse	1	0.0	n/a	4	40	ISIslide	Win	True
392.017	0.25	Win2	0.619	0.0	Yes	2.783	0.017	n/a	GoodResponse	1	n/a	n/a	5	41	Cue	Win	True
392.268	3.9	Win2	0.619	0.0	Yes	2.783	0.001	n/a	GoodResponse	1	n/a	n/a	5	41	Fixation	Win	True
396.163	0.29	Win2	0.619	0.004	Yes	2.783	-0.004	2.0	GoodResponse	1	0.209	395.372	5	41	Target	Win	True
396.372	0.3	Win2	0.619	0.004	Yes	2.783	-0.004	2.0	GoodResponse	1	0.209	n/a	5	41	ButtonPress	Win	True
396.464	0.41	Win2	0.619	n/a	Yes	2.783	n/a	n/a	GoodResponse	1	n/a	n/a	5	41	Blank	Win	True
396.865	1.45	Win2	0.619	n/a	Yes	2.783	n/a	5.0	GoodResponse	1	0.036	395.901	5	41	Feedback	Win	True
398.319	2.783	Win2	0.619	n/a	Yes	2.783	n/a	n/a	GoodResponse	1	0.0	n/a	5	41	ISIslide	Win	True
401.128	0.25	Control	0.6279	0.0	Yes	2.922	0.028	n/a	GoodResponse	0	n/a	n/a	5	42	Cue	Neutral	True
401.379	3.85	Control	0.6279	0.0	Yes	2.922	0.001	n/a	GoodResponse	0	n/a	n/a	5	42	Fixation	Neutral	True
405.24	0.3	Control	0.6279	0.0	Yes	2.922	0.012	2.0	GoodResponse	0	0.203	404.443	5	42	Target	Neutral	True
405.443	0.3	Control	0.6279	0.0	Yes	2.922	0.012	2.0	GoodResponse	0	0.203	n/a	5	42	ButtonPress	Neutral	True
405.524	0.4	Control	0.6279	n/a	Yes	2.922	n/a	n/a	GoodResponse	0	n/a	n/a	5	42	Blank	Neutral	True
405.926	1.45	Control	0.6279	n/a	Yes	2.922	n/a	5.0	GoodResponse	0	0.048	404.974	5	42	Feedback	Neutral	True
407.38	2.922	Control	0.6279	n/a	Yes	2.922	n/a	n/a	GoodResponse	0	0.0	n/a	5	42	ISIslide	Neutral	True
410.322	0.25	Win2	0.6136	0.0	No	3.178	0.022	n/a	LatePress	0	n/a	n/a	5	43	Cue	MissedWin	True
410.573	4.0	Win2	0.6136	0.0	No	3.178	0.001	n/a	LatePress	0	n/a	n/a	5	43	Fixation	MissedWin	True
414.568	0.31	Win2	0.6136	0.004	No	3.178	-0.004	2.0	LatePress	0	0.314	413.882	5	43	Target	MissedWin	True
414.882	0.3	Win2	0.6136	0.004	No	3.178	-0.004	2.0	LatePress	0	0.314	n/a	5	43	ButtonPress	MissedWin	True
414.886	0.39	Win2	0.6136	n/a	No	3.178	n/a	n/a	LatePress	0	n/a	n/a	5	43	Blank	MissedWin	True
415.27	1.45	Win2	0.6136	n/a	No	3.178	n/a	5.0	LatePress	0	0.02	414.29	5	43	Feedback	MissedWin	True
416.725	3.178	Win2	0.6136	n/a	No	3.178	n/a	n/a	LatePress	0	0.0	n/a	5	43	ISIslide	MissedWin	True
419.918	0.25	Win2	0.6222	0.0	Yes	2.982	0.018	n/a	GoodResponse	1	n/a	n/a	6	44	Cue	Win	True
420.168	4.0	Win2	0.6222	0.0	Yes	2.982	0.0	n/a	GoodResponse	1	n/a	n/a	6	44	Fixation	Win	True
424.164	0.32	Win2	0.6222	0.004	Yes	2.982	-0.004	2.0	GoodResponse	1	0.205	423.369	6	44	Target	Win	True
424.369	0.3	Win2	0.6222	0.004	Yes	2.982	-0.004	2.0	GoodResponse	1	0.205	n/a	6	44	ButtonPress	Win	True
424.498	0.38	Win2	0.6222	n/a	Yes	2.982	n/a	n/a	GoodResponse	1	n/a	n/a	6	44	Blank	Win	True
424.866	1.45	Win2	0.6222	n/a	Yes	2.982	n/a	5.0	GoodResponse	1	0.034	423.9	6	44	Feedback	Win	True
426.32	2.982	Win2	0.6222	n/a	Yes	2.982	n/a	n/a	GoodResponse	1	0.0	n/a	6	44	ISIslide	Win	True
429.329	0.25	Control	0.6087	0.0	No	2.871	0.029	n/a	PrematurePress	0	n/a	n/a	6	45	Cue	Neutral	True
429.58	4.1	Control	0.6087	0.0	No	2.871	0.001	n/a	PrematurePress	0	n/a	n/a	6	45	Fixation	Neutral	True
433.675	0.33	Control	0.6087	0.004	No	2.871	-0.004	2.0	PrematurePress	0	0.038	432.713	6	45	Target	Neutral	True
433.713	0.3	Control	0.6087	0.004	No	2.871	-0.004	2.0	PrematurePress	0	0.038	n/a	6	45	ButtonPress	Neutral	True
434.01	0.37	Control	0.6087	n/a	No	2.871	n/a	n/a	PrematurePress	0	n/a	n/a	6	45	Blank	Neutral	True
434.378	1.45	Control	0.6087	n/a	No	2.871	n/a	5.0	PrematurePress	0	0.034	433.412	6	45	Feedback	Neutral	True
435.832	2.871	Control	0.6087	n/a	No	2.871	n/a	n/a	PrematurePress	0	0.0	n/a	6	45	ISIslide	Neutral	True
438.724	0.25	Lose2	0.617	0.0	Yes	3.376	0.024	n/a	GoodResponse	0	n/a	n/a	6	46	Cue	AvoidedLoss	True
438.975	4.0	Lose2	0.617	0.0	Yes	3.376	0.001	n/a	GoodResponse	0	n/a	n/a	6	46	Fixation	AvoidedLoss	True
442.97	0.34	Lose2	0.617	0.004	Yes	3.376	-0.004	2.0	GoodResponse	0	0.204	442.174	6	46	Target	AvoidedLoss	True
443.174	0.3	Lose2	0.617	0.004	Yes	3.376	-0.004	2.0	GoodResponse	0	0.204	n/a	6	46	ButtonPress	AvoidedLoss	True
443.321	0.36	Lose2	0.617	n/a	Yes	3.376	n/a	n/a	GoodResponse	0	n/a	n/a	6	46	Blank	AvoidedLoss	True
443.672	1.45	Lose2	0.617	n/a	Yes	3.376	n/a	5.0	GoodResponse	0	0.009	442.681	6	46	Feedback	AvoidedLoss	True
445.126	3.376	Lose2	0.617	n/a	Yes	3.376	n/a	n/a	GoodResponse	0	0.0	n/a	6	46	ISIslide	AvoidedLoss	True
448.52	0.25	Lose2	0.625	0.0	Yes	2.68	0.02	n/a	GoodResponse	0	n/a	n/a	6	47	Cue	AvoidedLoss	True
448.771	4.0	Lose2	0.625	0.0	Yes	2.68	0.001	n/a	GoodResponse	0	n/a	n/a	6	47	Fixation	AvoidedLoss	True
452.766	0.35	Lose2	0.625	0.004	Yes	2.68	-0.004	2.0	GoodResponse	0	0.224	451.99	6	47	Target	AvoidedLoss	True
452.99	0.3	Lose2	0.625	0.004	Yes	2.68	-0.004	2.0	GoodResponse	0	0.224	n/a	6	47	ButtonPress	AvoidedLoss	True
453.117	0.35	Lose2	0.625	n/a	Yes	2.68	n/a	n/a	GoodResponse	0	n/a	n/a	6	47	Blank	AvoidedLoss	True
453.468	1.45	Lose2	0.625	n/a	Yes	2.68	n/a	5.0	GoodResponse	0	0.018	452.486	6	47	Feedback	AvoidedLoss	True
454.922	2.68	Lose2	0.625	n/a	Yes	2.68	n/a	n/a	GoodResponse	0	0.0	n/a	6	47	ISIslide	AvoidedLoss	True
457.631	0.25	Lose2	0.6327	0.0	Yes	3.019	0.031	n/a	GoodResponse	0	n/a	n/a	6	48	Cue	AvoidedLoss	True
457.881	3.95	Lose2	0.6327	0.0	Yes	3.019	0.0	n/a	GoodResponse	0	n/a	n/a	6	48	Fixation	AvoidedLoss	True
461.843	0.36	Lose2	0.6327	0.0	Yes	3.019	0.012	2.0	GoodResponse	0	0.194	461.037	6	48	Target	AvoidedLoss	True
462.037	0.3	Lose2	0.6327	0.0	Yes	3.019	0.012	2.0	GoodResponse	0	0.194	n/a	6	48	ButtonPress	AvoidedLoss	True
462.194	0.34	Lose2	0.6327	n/a	Yes	3.019	n/a	n/a	GoodResponse	0	n/a	n/a	6	48	Blank	AvoidedLoss	True
462.529	1.45	Lose2	0.6327	n/a	Yes	3.019	n/a	5.0	GoodResponse	0	0.03	461.559	6	48	Feedback	AvoidedLoss	True
463.983	3.019	Lose2	0.6327	n/a	Yes	3.019	n/a	n/a	GoodResponse	0	0.0	n/a	6	48	ISIslide	AvoidedLoss	True
467.025	0.25	Control	0.64	0.0	Yes	2.875	0.025	n/a	GoodResponse	0	n/a	n/a	6	49	Cue	Neutral	True
467.276	4.0	Control	0.64	0.0	Yes	2.875	0.001	n/a	GoodResponse	0	n/a	n/a	6	49	Fixation	Neutral	True
471.271	0.37	Control	0.64	0.004	Yes	2.875	-0.004	2.0	GoodResponse	0	0.2	470.471	6	49	Target	Neutral	True
471.471	0.3	Control	0.64	0.004	Yes	2.875	-0.004	2.0	GoodResponse	0	0.2	n/a	6	49	ButtonPress	Neutral	True
471.656	0.33	Control	0.64	n/a	Yes	2.875	n/a	n/a	GoodResponse	0	n/a	n/a	6	49	Blank	Neutral	True
471.974	1.45	Control	0.64	n/a	Yes	2.875	n/a	5.0	GoodResponse	0	0.047	471.021	6	49	Feedback	Neutral	True
473.428	2.875	Control	0.64	n/a	Yes	2.875	n/a	n/a	GoodResponse	0	0.0	n/a	6	49	ISIslide	Neutral	True
476.32	0.25	Control	0.6275	0.0	No	2.78	0.02	n/a	NoResponse	0	n/a	n/a	6	50	Cue	Neutral	False
476.571	4.0	Control	0.6275	0.0	No	2.78	0.001	n/a	NoResponse	0	n/a	n/a	6	50	Fixation	Neutral	False
480.566	0.38	Control	0.6275	0.004	No	2.78	-0.004	n/a	NoResponse	0	n/a	n/a	6	50	Target	Neutral	False
480.95	0.32	Control	0.6275	n/a	No	2.78	n/a	n/a	NoResponse	0	n/a	n/a	6	50	Blank	Neutral	False
481.268	1.45	Control	0.6275	n/a	No	2.78	n/a	5.0	NoResponse	0	0.022	480.29	6	50	Feedback	Neutral	False
482.722	2.78	Control	0.6275	n/a	No	2.78	n/a	n/a	NoResponse	0	0.0	n/a	6	50	ISIslide	Neutral	False
485.531	0.25	Control	0.6346	0.0	Yes	2.719	0.031	n/a	GoodResponse	0	n/a	n/a	6	51	Cue	Neutral	True
485.782	3.95	Control	0.6346	0.0	Yes	2.719	0.001	n/a	GoodResponse	0	n/a	n/a	6	51	Fixation	Neutral	True
489.727	0.39	Control	0.6346	0.004	Yes	2.719	-0.004	2.0	GoodResponse	0	0.189	488.916	6	51	Target	Neutral	True
489.916	0.3	Control	0.6346	0.004	Yes	2.719	-0.004	2.0	GoodResponse	0	0.189	n/a	6	51	ButtonPress	Neutral	True
490.128	0.31	Control	0.6346	n/a	Yes	2.719	n/a	n/a	GoodResponse	0	n/a	n/a	6	51	Blank	Neutral	True
490.429	1.45	Control	0.6346	n/a	Yes	2.719	n/a	5.0	GoodResponse	0	0.032	489.461	6	51	Feedback	Neutral	True
491.883	2.719	Control	0.6346	n/a	Yes	2.719	n/a	n/a	GoodResponse	0	0.0	n/a	6	51	ISIslide	Neutral	True
494.625	0.25	Control	0.6415000000000001	0.0	Yes	2.625	0.025	n/a	GoodResponse	0	n/a	n/a	6	52	Cue	Neutral	True
494.875	4.05	Control	0.6415000000000001	0.001	Yes	2.625	0.0	n/a	GoodResponse	0	n/a	n/a	6	52	Fixation	Neutral	True
498.921	0.4	Control	0.6415000000000001	0.004	Yes	2.625	-0.004	2.0	GoodResponse	0	0.273	498.194	6	52	Target	Neutral	True
499.194	0.3	Control	0.6415000000000001	0.004	Yes	2.625	-0.004	2.0	GoodResponse	0	0.273	n/a	6	52	ButtonPress	Neutral	True
499.322	0.3	Control	0.6415000000000001	n/a	Yes	2.625	n/a	n/a	GoodResponse	0	n/a	n/a	6	52	Blank	Neutral	True
499.623	1.45	Control	0.6415000000000001	n/a	Yes	2.625	n/a	5.0	GoodResponse	0	0.008	498.631	6	52	Feedback	Neutral	True
501.077	2.625	Control	0.6415000000000001	n/a	Yes	2.625	n/a	n/a	GoodResponse	0	0.0	n/a	6	52	ISIslide	Neutral	True
503.719	0.25	Win2	0.6481	0.0	Yes	2.931	0.019	n/a	GoodResponse	1	n/a	n/a	7	53	Cue	Win	True
503.969	4.05	Win2	0.6481	0.0	Yes	2.931	0.0	n/a	GoodResponse	1	n/a	n/a	7	53	Fixation	Win	True
508.015	0.41	Win2	0.6481	0.004	Yes	2.931	-0.004	2.0	GoodResponse	1	0.176	507.191	7	53	Target	Win	True
508.191	0.3	Win2	0.6481	0.004	Yes	2.931	-0.004	2.0	GoodResponse	1	0.176	n/a	7	53	ButtonPress	Win	True
508.433	0.29	Win2	0.6481	n/a	Yes	2.931	n/a	n/a	GoodResponse	1	n/a	n/a	7	53	Blank	Win	True
508.717	1.45	Win2	0.6481	n/a	Yes	2.931	n/a	5.0	GoodResponse	1	0.036	507.753	7	53	Feedback	Win	True
510.171	2.931	Win2	0.6481	n/a	Yes	2.931	n/a	n/a	GoodResponse	1	0.0	n/a	7	53	ISIslide	Win	True
513.13	0.25	Win2	0.6545000000000001	0.0	Yes	2.72	0.03	n/a	GoodResponse	1	n/a	n/a	8	54	Cue	Win	True
513.381	3.95	Win2	0.6545000000000001	0.0	Yes	2.72	0.001	n/a	GoodResponse	1	n/a	n/a	8	54	Fixation	Win	True
517.326	0.42	Win2	0.6545000000000001	0.004	Yes	2.72	-0.004	2.0	GoodResponse	1	0.191	516.517	8	54	Target	Win	True
517.517	0.3	Win2	0.6545000000000001	0.004	Yes	2.72	-0.004	2.0	GoodResponse	1	0.191	n/a	8	54	ButtonPress	Win	True
517.761	0.28	Win2	0.6545000000000001	n/a	Yes	2.72	n/a	n/a	GoodResponse	1	n/a	n/a	8	54	Blank	Win	True
518.028	1.45	Win2	0.6545000000000001	n/a	Yes	2.72	n/a	5.0	GoodResponse	1	0.043	517.071	8	54	Feedback	Win	True
519.483	2.72	Win2	0.6545000000000001	n/a	Yes	2.72	n/a	n/a	GoodResponse	1	0.0	n/a	8	54	ISIslide	Win	True
522.224	0.25	Control	0.6607	0.0	Yes	3.026	0.024	n/a	GoodResponse	0	n/a	n/a	8	55	Cue	Neutral	True
522.475	3.95	Control	0.6607	0.0	Yes	3.026	0.001	n/a	GoodResponse	0	n/a	n/a	8	55	Fixation	Neutral	True
526.42	0.43	Control	0.6607	0.004	Yes	3.026	-0.004	2.0	GoodResponse	0	0.197	525.617	8	55	Target	Neutral	True
526.617	0.3	Control	0.6607	0.004	Yes	3.026	-0.004	2.0	GoodResponse	0	0.197	n/a	8	55	ButtonPress	Neutral	True
526.855	0.27	Control	0.6607	n/a	Yes	3.026	n/a	n/a	GoodResponse	0	n/a	n/a	8	55	Blank	Neutral	True
527.122	1.45	Control	0.6607	n/a	Yes	3.026	n/a	5.0	GoodResponse	0	0.021	526.143	8	55	Feedback	Neutral	True
528.576	3.026	Control	0.6607	n/a	Yes	3.026	n/a	n/a	GoodResponse	0	0.0	n/a	8	55	ISIslide	Neutral	True
531.619	0.25	Control	0.6667000000000001	0.0	Yes	2.831	0.019	n/a	GoodResponse	0	n/a	n/a	8	56	Cue	Neutral	True
531.87	3.95	Control	0.6667000000000001	0.0	Yes	2.831	0.001	n/a	GoodResponse	0	n/a	n/a	8	56	Fixation	Neutral	True
535.815	0.43	Control	0.6667000000000001	0.004	Yes	2.831	-0.004	2.0	GoodResponse	0	0.256	535.071	8	56	Target	Neutral	True
536.071	0.3	Control	0.6667000000000001	0.004	Yes	2.831	-0.004	2.0	GoodResponse	0	0.256	n/a	8	56	ButtonPress	Neutral	True
536.249	0.27	Control	0.6667000000000001	n/a	Yes	2.831	n/a	n/a	GoodResponse	0	n/a	n/a	8	56	Blank	Neutral	True
536.517	1.45	Control	0.6667000000000001	n/a	Yes	2.831	n/a	5.0	GoodResponse	0	0.041	535.558	8	56	Feedback	Neutral	True
537.971	2.831	Control	0.6667000000000001	n/a	Yes	2.831	n/a	n/a	GoodResponse	0	0.0	n/a	8	56	ISIslide	Neutral	True
540.83	0.25	Control	0.6724	0.0	Yes	3.47	0.03	n/a	GoodResponse	0	n/a	n/a	8	57	Cue	Neutral	True
541.081	4.0	Control	0.6724	0.0	Yes	3.47	0.001	n/a	GoodResponse	0	n/a	n/a	8	57	Fixation	Neutral	True
545.076	0.42	Control	0.6724	0.004	Yes	3.47	-0.004	2.0	GoodResponse	0	0.196	544.272	8	57	Target	Neutral	True
545.272	0.3	Control	0.6724	0.004	Yes	3.47	-0.004	2.0	GoodResponse	0	0.196	n/a	8	57	ButtonPress	Neutral	True
545.511	0.28	Control	0.6724	n/a	Yes	3.47	n/a	n/a	GoodResponse	0	n/a	n/a	8	57	Blank	Neutral	True
545.778	1.45	Control	0.6724	n/a	Yes	3.47	n/a	5.0	GoodResponse	0	0.048	544.826	8	57	Feedback	Neutral	True
547.232	3.47	Control	0.6724	n/a	Yes	3.47	n/a	n/a	GoodResponse	0	0.0	n/a	8	57	ISIslide	Neutral	True
550.726	0.25	Win2	0.6779999999999999	0.0	Yes	2.724	0.026	n/a	GoodResponse	1	n/a	n/a	9	58	Cue	Win	True
550.977	4.05	Win2	0.6779999999999999	0.0	Yes	2.724	0.001	n/a	GoodResponse	1	n/a	n/a	9	58	Fixation	Win	True
555.022	0.41	Win2	0.6779999999999999	0.004	Yes	2.724	-0.004	2.0	GoodResponse	1	0.197	554.219	9	58	Target	Win	True
555.219	0.3	Win2	0.6779999999999999	0.004	Yes	2.724	-0.004	2.0	GoodResponse	1	0.197	n/a	9	58	ButtonPress	Win	True
555.44	0.29	Win2	0.6779999999999999	n/a	Yes	2.724	n/a	n/a	GoodResponse	1	n/a	n/a	9	58	Blank	Win	True
555.724	1.45	Win2	0.6779999999999999	n/a	Yes	2.724	n/a	5.0	GoodResponse	1	0.008	554.732	9	58	Feedback	Win	True
557.179	2.724	Win2	0.6779999999999999	n/a	Yes	2.724	n/a	n/a	GoodResponse	1	0.0	n/a	9	58	ISIslide	Win	True
559.92	0.25	Lose2	0.6833	0.0	Yes	2.68	0.02	n/a	GoodResponse	0	n/a	n/a	9	59	Cue	AvoidedLoss	True
560.171	4.0	Lose2	0.6833	0.0	Yes	2.68	0.001	n/a	GoodResponse	0	n/a	n/a	9	59	Fixation	AvoidedLoss	True
564.166	0.4	Lose2	0.6833	0.004	Yes	2.68	-0.004	2.0	GoodResponse	0	0.219	563.385	9	59	Target	AvoidedLoss	True
564.385	0.3	Lose2	0.6833	0.004	Yes	2.68	-0.004	2.0	GoodResponse	0	0.219	n/a	9	59	ButtonPress	AvoidedLoss	True
564.568	0.3	Lose2	0.6833	n/a	Yes	2.68	n/a	n/a	GoodResponse	0	n/a	n/a	9	59	Blank	AvoidedLoss	True
564.869	1.45	Lose2	0.6833	n/a	Yes	2.68	n/a	5.0	GoodResponse	0	0.03	563.899	9	59	Feedback	AvoidedLoss	True
566.323	2.68	Lose2	0.6833	n/a	Yes	2.68	n/a	n/a	GoodResponse	0	0.0	n/a	9	59	ISIslide	AvoidedLoss	True
569.031	0.25	Control	0.6884999999999999	0.0	Yes	2.669	0.031	n/a	GoodResponse	0	n/a	n/a	9	60	Cue	Neutral	True
569.282	4.0	Control	0.6884999999999999	0.0	Yes	2.669	0.001	n/a	GoodResponse	0	n/a	n/a	9	60	Fixation	Neutral	True
573.277	0.39	Control	0.6884999999999999	0.004	Yes	2.669	-0.004	2.0	GoodResponse	0	0.203	572.48	9	60	Target	Neutral	True
573.48	0.3	Control	0.6884999999999999	0.004	Yes	2.669	-0.004	2.0	GoodResponse	0	0.203	n/a	9	60	ButtonPress	Neutral	True
573.678	0.31	Control	0.6884999999999999	n/a	Yes	2.669	n/a	n/a	GoodResponse	0	n/a	n/a	9	60	Blank	Neutral	True
573.979	1.45	Control	0.6884999999999999	n/a	Yes	2.669	n/a	5.0	GoodResponse	0	0.042	573.021	9	60	Feedback	Neutral	True
575.434	2.669	Control	0.6884999999999999	n/a	Yes	2.669	n/a	n/a	GoodResponse	0	0.0	n/a	9	60	ISIslide	Neutral	True
578.125	0.25	Lose2	0.6934999999999999	0.0	Yes	2.975	0.025	n/a	GoodResponse	0	n/a	n/a	9	61	Cue	AvoidedLoss	True
578.376	4.0	Lose2	0.6934999999999999	0.0	Yes	2.975	0.001	n/a	GoodResponse	0	n/a	n/a	9	61	Fixation	AvoidedLoss	True
582.371	0.38	Lose2	0.6934999999999999	0.004	Yes	2.975	-0.004	2.0	GoodResponse	0	0.232	581.603	9	61	Target	AvoidedLoss	True
582.603	0.3	Lose2	0.6934999999999999	0.004	Yes	2.975	-0.004	2.0	GoodResponse	0	0.232	n/a	9	61	ButtonPress	AvoidedLoss	True
582.755	0.32	Lose2	0.6934999999999999	n/a	Yes	2.975	n/a	n/a	GoodResponse	0	n/a	n/a	9	61	Blank	AvoidedLoss	True
583.073	1.45	Lose2	0.6934999999999999	n/a	Yes	2.975	n/a	5.0	GoodResponse	0	0.022	582.095	9	61	Feedback	AvoidedLoss	True
584.527	2.975	Lose2	0.6934999999999999	n/a	Yes	2.975	n/a	n/a	GoodResponse	0	0.0	n/a	9	61	ISIslide	AvoidedLoss	True
587.52	0.25	Lose2	0.6984	0.0	Yes	2.88	0.02	n/a	GoodResponse	0	n/a	n/a	9	62	Cue	AvoidedLoss	True
587.77	3.9	Lose2	0.6984	0.001	Yes	2.88	0.0	n/a	GoodResponse	0	n/a	n/a	9	62	Fixation	AvoidedLoss	True
591.682	0.37	Lose2	0.6984	0.0	Yes	2.88	0.012	2.0	GoodResponse	0	0.212	590.894	9	62	Target	AvoidedLoss	True
591.894	0.3	Lose2	0.6984	0.0	Yes	2.88	0.012	2.0	GoodResponse	0	0.212	n/a	9	62	ButtonPress	AvoidedLoss	True
592.05	0.33	Lose2	0.6984	n/a	Yes	2.88	n/a	n/a	GoodResponse	0	n/a	n/a	9	62	Blank	AvoidedLoss	True
592.368	1.45	Lose2	0.6984	n/a	Yes	2.88	n/a	5.0	GoodResponse	0	0.043	591.411	9	62	Feedback	AvoidedLoss	True
593.822	2.88	Lose2	0.6984	n/a	Yes	2.88	n/a	n/a	GoodResponse	0	0.0	n/a	9	62	ISIslide	AvoidedLoss	True
596.731	0.25	Lose2	0.7031000000000001	0.0	Yes	2.619	0.031	n/a	GoodResponse	0	n/a	n/a	9	63	Cue	AvoidedLoss	True
596.981	4.05	Lose2	0.7031000000000001	0.0	Yes	2.619	0.0	n/a	GoodResponse	0	n/a	n/a	9	63	Fixation	AvoidedLoss	True
601.027	0.36	Lose2	0.7031000000000001	0.004	Yes	2.619	-0.004	2.0	GoodResponse	0	0.19	600.217	9	63	Target	AvoidedLoss	True
601.217	0.3	Lose2	0.7031000000000001	0.004	Yes	2.619	-0.004	2.0	GoodResponse	0	0.19	n/a	9	63	ButtonPress	AvoidedLoss	True
601.395	0.34	Lose2	0.7031000000000001	n/a	Yes	2.619	n/a	n/a	GoodResponse	0	n/a	n/a	9	63	Blank	AvoidedLoss	True
601.729	1.45	Lose2	0.7031000000000001	n/a	Yes	2.619	n/a	5.0	GoodResponse	0	0.048	600.777	9	63	Feedback	AvoidedLoss	True
603.183	2.619	Lose2	0.7031000000000001	n/a	Yes	2.619	n/a	2.0	GoodResponse	0	0.851	n/a	9	63	ISIslide	AvoidedLoss	True
605.808	0.25	Win2	0.7077	0.0	Yes	3.142	0.008	n/a	GoodResponse	1	n/a	n/a	10	64	Cue	Win	True
606.059	4.15	Win2	0.7077	0.0	Yes	3.142	0.001	n/a	GoodResponse	1	n/a	n/a	10	64	Fixation	Win	True
610.204	0.35	Win2	0.7077	0.004	Yes	3.142	-0.004	2.0	GoodResponse	1	0.228	609.432	10	64	Target	Win	True
610.432	0.3	Win2	0.7077	0.004	Yes	3.142	-0.004	2.0	GoodResponse	1	0.228	n/a	10	64	ButtonPress	Win	True
610.555	0.35	Win2	0.7077	n/a	Yes	3.142	n/a	n/a	GoodResponse	1	n/a	n/a	10	64	Blank	Win	True
610.906	1.45	Win2	0.7077	n/a	Yes	3.142	n/a	5.0	GoodResponse	1	0.042	609.948	10	64	Feedback	Win	True
612.361	3.142	Win2	0.7077	n/a	Yes	3.142	n/a	n/a	GoodResponse	1	0.0	n/a	10	64	ISIslide	Win	True
615.52	0.25	Control	0.7121	0.0	Yes	2.78	0.02	n/a	GoodResponse	0	n/a	n/a	10	65	Cue	Neutral	True
615.771	4.0	Control	0.7121	0.0	Yes	2.78	0.001	n/a	GoodResponse	0	n/a	n/a	10	65	Fixation	Neutral	True
619.766	0.34	Control	0.7121	0.004	Yes	2.78	-0.004	2.0	GoodResponse	0	0.223	618.989	10	65	Target	Neutral	True
619.989	0.3	Control	0.7121	0.004	Yes	2.78	-0.004	2.0	GoodResponse	0	0.223	n/a	10	65	ButtonPress	Neutral	True
620.117	0.36	Control	0.7121	n/a	Yes	2.78	n/a	n/a	GoodResponse	0	n/a	n/a	10	65	Blank	Neutral	True
620.468	1.45	Control	0.7121	n/a	Yes	2.78	n/a	5.0	GoodResponse	0	0.041	619.509	10	65	Feedback	Neutral	True
621.923	2.78	Control	0.7121	n/a	Yes	2.78	n/a	n/a	GoodResponse	0	0.0	n/a	10	65	ISIslide	Neutral	True
624.731	0.25	Win2	0.7015	0.0	No	2.769	0.031	n/a	NoResponse	0	n/a	n/a	10	66	Cue	MissedWin	False
624.982	3.9	Win2	0.7015	0.0	No	2.769	0.001	n/a	NoResponse	0	n/a	n/a	10	66	Fixation	MissedWin	False
628.877	0.33	Win2	0.7015	0.004	No	2.769	-0.004	n/a	NoResponse	0	n/a	n/a	10	66	Target	MissedWin	False
629.211	0.37	Win2	0.7015	n/a	No	2.769	n/a	n/a	NoResponse	0	n/a	n/a	10	66	Blank	MissedWin	False
629.579	1.45	Win2	0.7015	n/a	No	2.769	n/a	5.0	NoResponse	0	0.008	628.587	10	66	Feedback	MissedWin	False
631.033	2.769	Win2	0.7015	n/a	No	2.769	n/a	n/a	NoResponse	0	0.0	n/a	10	66	ISIslide	MissedWin	False
633.825	0.25	Control	0.7059000000000001	0.0	Yes	2.725	0.025	n/a	GoodResponse	0	n/a	n/a	10	67	Cue	Neutral	True
634.076	3.95	Control	0.7059000000000001	0.0	Yes	2.725	0.001	n/a	GoodResponse	0	n/a	n/a	10	67	Fixation	Neutral	True
638.021	0.32	Control	0.7059000000000001	0.004	Yes	2.725	-0.004	2.0	GoodResponse	0	0.258	637.279	10	67	Target	Neutral	True
638.279	0.3	Control	0.7059000000000001	0.004	Yes	2.725	-0.004	2.0	GoodResponse	0	0.258	n/a	10	67	ButtonPress	Neutral	True
638.355	0.38	Control	0.7059000000000001	n/a	Yes	2.725	n/a	n/a	GoodResponse	0	n/a	n/a	10	67	Blank	Neutral	True
638.723	1.45	Control	0.7059000000000001	n/a	Yes	2.725	n/a	5.0	GoodResponse	0	0.03	637.753	10	67	Feedback	Neutral	True
640.178	2.725	Control	0.7059000000000001	n/a	Yes	2.725	n/a	n/a	GoodResponse	0	0.0	n/a	10	67	ISIslide	Neutral	True
642.919	0.25	Win2	0.7101000000000001	0.0	Yes	3.081	0.019	n/a	GoodResponse	1	n/a	n/a	11	68	Cue	Win	True
643.17	4.0	Win2	0.7101000000000001	0.0	Yes	3.081	0.001	n/a	GoodResponse	1	n/a	n/a	11	68	Fixation	Win	True
647.165	0.31	Win2	0.7101000000000001	0.004	Yes	3.081	-0.004	2.0	GoodResponse	1	0.239	646.404	11	68	Target	Win	True
647.404	0.3	Win2	0.7101000000000001	0.004	Yes	3.081	-0.004	2.0	GoodResponse	1	0.239	n/a	11	68	ButtonPress	Win	True
647.483	0.39	Win2	0.7101000000000001	n/a	Yes	3.081	n/a	n/a	GoodResponse	1	n/a	n/a	11	68	Blank	Win	True
647.867	1.45	Win2	0.7101000000000001	n/a	Yes	3.081	n/a	5.0	GoodResponse	1	0.007	646.874	11	68	Feedback	Win	True
649.322	3.081	Win2	0.7101000000000001	n/a	Yes	3.081	n/a	n/a	GoodResponse	1	0.0	n/a	11	68	ISIslide	Win	True
652.431	0.25	Win2	0.7143	0.0	Yes	3.219	0.031	n/a	GoodResponse	1	n/a	n/a	12	69	Cue	Win	True
652.682	3.95	Win2	0.7143	0.0	Yes	3.219	0.001	n/a	GoodResponse	1	n/a	n/a	12	69	Fixation	Win	True
656.627	0.3	Win2	0.7143	0.004	Yes	3.219	-0.004	2.0	GoodResponse	1	0.213	655.84	12	69	Target	Win	True
656.84	0.3	Win2	0.7143	0.004	Yes	3.219	-0.004	2.0	GoodResponse	1	0.213	n/a	12	69	ButtonPress	Win	True
656.928	0.4	Win2	0.7143	n/a	Yes	3.219	n/a	n/a	GoodResponse	1	n/a	n/a	12	69	Blank	Win	True
657.329	1.45	Win2	0.7143	n/a	Yes	3.219	n/a	5.0	GoodResponse	1	0.008	656.337	12	69	Feedback	Win	True
658.783	3.219	Win2	0.7143	n/a	Yes	3.219	n/a	n/a	GoodResponse	1	0.0	n/a	12	69	ISIslide	Win	True
662.026	0.25	Lose2	0.7182999999999999	0.0	Yes	3.024	0.026	n/a	GoodResponse	0	n/a	n/a	12	70	Cue	AvoidedLoss	True
662.277	4.05	Lose2	0.7182999999999999	0.0	Yes	3.024	0.001	n/a	GoodResponse	0	n/a	n/a	12	70	Fixation	AvoidedLoss	True
666.323	0.29	Lose2	0.7182999999999999	0.003	Yes	3.024	-0.003	2.0	GoodResponse	0	0.2	665.523	12	70	Target	AvoidedLoss	True
666.523	0.3	Lose2	0.7182999999999999	0.003	Yes	3.024	-0.003	2.0	GoodResponse	0	0.2	n/a	12	70	ButtonPress	AvoidedLoss	True
666.623	0.41	Lose2	0.7182999999999999	n/a	Yes	3.024	n/a	n/a	GoodResponse	0	n/a	n/a	12	70	Blank	AvoidedLoss	True
667.025	1.45	Lose2	0.7182999999999999	n/a	Yes	3.024	n/a	5.0	GoodResponse	0	0.02	666.045	12	70	Feedback	AvoidedLoss	True
668.479	3.024	Lose2	0.7182999999999999	n/a	Yes	3.024	n/a	n/a	GoodResponse	0	0.0	n/a	12	70	ISIslide	AvoidedLoss	True
671.521	0.25	Win2	0.7222	0.001	Yes	2.729	0.021	n/a	GoodResponse	1	n/a	n/a	13	71	Cue	Win	True
671.772	4.05	Win2	0.7222	0.0	Yes	2.729	0.001	n/a	GoodResponse	1	n/a	n/a	13	71	Fixation	Win	True
675.818	0.28	Win2	0.7222	0.003	Yes	2.729	-0.003	2.0	GoodResponse	1	0.206	675.024	13	71	Target	Win	True
676.024	0.3	Win2	0.7222	0.003	Yes	2.729	-0.003	2.0	GoodResponse	1	0.206	n/a	13	71	ButtonPress	Win	True
676.102	0.42	Win2	0.7222	n/a	Yes	2.729	n/a	n/a	GoodResponse	1	n/a	n/a	13	71	Blank	Win	True
676.52	1.45	Win2	0.7222	n/a	Yes	2.729	n/a	5.0	GoodResponse	1	0.037	675.557	13	71	Feedback	Win	True
677.974	2.729	Win2	0.7222	n/a	Yes	2.729	n/a	n/a	GoodResponse	1	0.0	n/a	13	71	ISIslide	Win	True
680.716	0.25	Win2	0.726	0.0	Yes	2.784	0.016	n/a	GoodResponse	1	n/a	n/a	14	72	Cue	Win	True
680.966	4.1	Win2	0.726	0.0	Yes	2.784	0.0	n/a	GoodResponse	1	n/a	n/a	14	72	Fixation	Win	True
685.062	0.27	Win2	0.726	0.004	Yes	2.784	-0.004	2.0	GoodResponse	1	0.212	684.274	14	72	Target	Win	True
685.274	0.3	Win2	0.726	0.004	Yes	2.784	-0.004	2.0	GoodResponse	1	0.212	n/a	14	72	ButtonPress	Win	True
685.346	0.43	Win2	0.726	n/a	Yes	2.784	n/a	n/a	GoodResponse	1	n/a	n/a	14	72	Blank	Win	True
685.764	1.45	Win2	0.726	n/a	Yes	2.784	n/a	5.0	GoodResponse	1	0.013	684.777	14	72	Feedback	Win	True
687.218	2.784	Win2	0.726	n/a	Yes	2.784	n/a	n/a	GoodResponse	1	0.0	n/a	14	72	ISIslide	Win	True
690.027	0.25	Win2	0.7297	0.0	Yes	2.673	0.027	n/a	GoodResponse	1	n/a	n/a	15	73	Cue	Win	True
690.278	4.0	Win2	0.7297	0.0	Yes	2.673	0.001	n/a	GoodResponse	1	n/a	n/a	15	73	Fixation	Win	True
694.273	0.26	Win2	0.7297	0.004	Yes	2.673	-0.004	2.0	GoodResponse	1	0.206	693.479	15	73	Target	Win	True
694.479	0.3	Win2	0.7297	0.004	Yes	2.673	-0.004	2.0	GoodResponse	1	0.206	n/a	15	73	ButtonPress	Win	True
694.54	0.44	Win2	0.7297	n/a	Yes	2.673	n/a	n/a	GoodResponse	1	n/a	n/a	15	73	Blank	Win	True
694.975	1.45	Win2	0.7297	n/a	Yes	2.673	n/a	5.0	GoodResponse	1	0.021	693.996	15	73	Feedback	Win	True
696.429	2.673	Win2	0.7297	n/a	Yes	2.673	n/a	n/a	GoodResponse	1	0.0	n/a	15	73	ISIslide	Win	True
699.121	0.25	Lose2	0.7333	0.0	Yes	2.629	0.021	n/a	GoodResponse	0	n/a	n/a	15	74	Cue	AvoidedLoss	True
699.372	4.05	Lose2	0.7333	0.0	Yes	2.629	0.001	n/a	GoodResponse	0	n/a	n/a	15	74	Fixation	AvoidedLoss	True
703.417	0.25	Lose2	0.7333	0.004	Yes	2.629	-0.004	2.0	GoodResponse	0	0.227	702.644	15	74	Target	AvoidedLoss	True
703.644	0.3	Lose2	0.7333	0.004	Yes	2.629	-0.004	2.0	GoodResponse	0	0.227	n/a	15	74	ButtonPress	AvoidedLoss	True
703.668	0.45	Lose2	0.7333	n/a	Yes	2.629	n/a	n/a	GoodResponse	0	n/a	n/a	15	74	Blank	AvoidedLoss	True
704.119	1.45	Lose2	0.7333	n/a	Yes	2.629	n/a	5.0	GoodResponse	0	0.048	703.167	15	74	Feedback	AvoidedLoss	True
705.573	2.629	Lose2	0.7333	n/a	Yes	2.629	n/a	n/a	GoodResponse	0	0.0	n/a	15	74	ISIslide	AvoidedLoss	True
708.231	0.25	Lose2	0.7368000000000001	0.001	Yes	2.919	0.031	n/a	GoodResponse	0	n/a	n/a	15	75	Cue	AvoidedLoss	True
708.482	3.95	Lose2	0.7368000000000001	0.0	Yes	2.919	0.001	n/a	GoodResponse	0	n/a	n/a	15	75	Fixation	AvoidedLoss	True
712.427	0.24	Lose2	0.7368000000000001	0.004	Yes	2.919	-0.004	2.0	GoodResponse	0	0.196	711.623	15	75	Target	AvoidedLoss	True
712.623	0.3	Lose2	0.7368000000000001	0.004	Yes	2.919	-0.004	2.0	GoodResponse	0	0.196	n/a	15	75	ButtonPress	AvoidedLoss	True
712.678	0.46	Lose2	0.7368000000000001	n/a	Yes	2.919	n/a	n/a	GoodResponse	0	n/a	n/a	15	75	Blank	AvoidedLoss	True
713.129	1.45	Lose2	0.7368000000000001	n/a	Yes	2.919	n/a	5.0	GoodResponse	0	0.013	712.142	15	75	Feedback	AvoidedLoss	True
714.584	2.919	Lose2	0.7368000000000001	n/a	Yes	2.919	n/a	n/a	GoodResponse	0	0.0	n/a	15	75	ISIslide	AvoidedLoss	True
717.526	0.25	Control	0.7273000000000001	0.0	No	3.224	0.026	n/a	NoResponse	0	n/a	n/a	15	76	Cue	Neutral	True
717.777	4.05	Control	0.7273000000000001	0.0	No	3.224	0.001	n/a	NoResponse	0	n/a	n/a	15	76	Fixation	Neutral	True
721.822	0.23	Control	0.7273000000000001	0.004	No	3.224	-0.004	2.0	NoResponse	0	0.554	721.376	15	76	Target	Neutral	True
722.056	0.47	Control	0.7273000000000001	n/a	No	3.224	n/a	n/a	NoResponse	0	n/a	n/a	15	76	Blank	Neutral	True
722.376	0.3	Control	0.7273000000000001	0.004	No	3.224	-0.004	2.0	NoResponse	0	0.554	n/a	15	76	ButtonPress	Neutral	True
722.524	1.45	Control	0.7273000000000001	n/a	No	3.224	n/a	5.0	NoResponse	0	0.032	721.556	15	76	Feedback	Neutral	True
723.979	3.224	Control	0.7273000000000001	n/a	No	3.224	n/a	n/a	NoResponse	0	0.0	n/a	15	76	ISIslide	Neutral	True
727.222	0.25	Lose2	0.7179000000000001	0.0	No	2.578	0.022	n/a	LatePress	-1	n/a	n/a	14	77	Cue	Loss	True
727.472	3.95	Lose2	0.7179000000000001	0.0	No	2.578	0.0	n/a	LatePress	-1	n/a	n/a	14	77	Fixation	Loss	True
731.418	0.22	Lose2	0.7179000000000001	0.004	No	2.578	-0.004	2.0	LatePress	-1	0.224	730.642	14	77	Target	Loss	True
731.642	0.3	Lose2	0.7179000000000001	0.004	No	2.578	-0.004	2.0	LatePress	-1	0.224	n/a	14	77	ButtonPress	Loss	True
731.652	0.48	Lose2	0.7179000000000001	n/a	No	2.578	n/a	n/a	LatePress	-1	n/a	n/a	14	77	Blank	Loss	True
732.12	1.45	Lose2	0.7179000000000001	n/a	No	2.578	n/a	5.0	LatePress	-1	0.046	731.166	14	77	Feedback	Loss	True
733.574	2.578	Lose2	0.7179000000000001	n/a	No	2.578	n/a	n/a	LatePress	-1	0.0	n/a	14	77	ISIslide	Loss	True
