onset	duration	cue_type	current_mean_accuracy	duration_error	is_hit	isi_adjusted	onset_delay	response	response_type	reward	rt	rt_time	total_reward	trial_number	trial_phase	trial_type	one_press
11.104	0.25	Control	1.0	0.0	Yes	2.946	0.004	n/a	GoodResponse	0	n/a	n/a	0	0	Cue	Neutral	True
11.354	3.85	Control	1.0	0.0	Yes	2.946	0.0	n/a	GoodResponse	0	n/a	n/a	0	0	Fixation	Neutral	True
15.216	0.4	Control	1.0	0.0	Yes	2.946	0.012	3.0	GoodResponse	0	0.192	14.408	0	0	Target	Neutral	True
15.408	0.3	Control	1.0	0.0	Yes	2.946	0.012	3.0	GoodResponse	0	0.192	n/a	0	0	ButtonPress	Neutral	True
15.6	0.3	Control	1.0	n/a	Yes	2.946	n/a	n/a	GoodResponse	0	n/a	n/a	0	0	Blank	Neutral	True
15.901	1.45	Control	1.0	n/a	Yes	2.946	n/a	5.0	GoodResponse	0	0.026	14.927	0	0	Feedback	Neutral	True
17.356	2.946	Control	1.0	n/a	Yes	2.946	n/a	n/a	GoodResponse	0	0.0	n/a	0	0	ISIslide	Neutral	True
20.314	0.25	Lose2	1.0	0.001	Yes	2.786	0.014	n/a	GoodResponse	0	n/a	n/a	0	1	Cue	AvoidedLoss	True
20.565	4.0	Lose2	1.0	0.0	Yes	2.786	0.001	n/a	GoodResponse	0	n/a	n/a	0	1	Fixation	AvoidedLoss	True
24.561	0.39	Lose2	1.0	0.003	Yes	2.786	-0.003	3.0	GoodResponse	0	0.202	23.763	0	1	Target	AvoidedLoss	True
24.763	0.3	Lose2	1.0	0.003	Yes	2.786	-0.003	3.0	GoodResponse	0	0.202	n/a	0	1	ButtonPress	AvoidedLoss	True
24.962	0.31	Lose2	1.0	n/a	Yes	2.786	n/a	n/a	GoodResponse	0	n/a	n/a	0	1	Blank	AvoidedLoss	True
25.263	1.45	Lose2	1.0	n/a	Yes	2.786	n/a	5.0	GoodResponse	0	0.03	24.293	0	1	Feedback	AvoidedLoss	True
26.717	2.786	Lose2	1.0	n/a	Yes	2.786	n/a	n/a	GoodResponse	0	0.0	n/a	0	1	ISIslide	AvoidedLoss	True
29.525	0.25	Control	1.0	0.0	Yes	2.575	0.025	n/a	GoodResponse	0	n/a	n/a	0	2	Cue	Neutral	False
29.776	4.1	Control	1.0	0.0	Yes	2.575	0.001	3.0	GoodResponse	0	3.373	32.149	0	2	Fixation	Neutral	False
33.149	0.3	Control	1.0	0.0	Yes	2.575	0.001	3.0	GoodResponse	0	3.373	n/a	0	2	ButtonPress	Neutral	False
33.872	0.38	Control	1.0	0.003	Yes	2.575	-0.003	3.0	GoodResponse	0	0.185	33.057	0	2	Target	Neutral	False
34.057	0.3	Control	1.0	0.003	Yes	2.575	-0.003	3.0	GoodResponse	0	0.185	n/a	0	2	ButtonPress	Neutral	False
34.256	0.32	Control	1.0	n/a	Yes	2.575	n/a	n/a	GoodResponse	0	n/a	n/a	0	2	Blank	Neutral	False
34.574	1.45	Control	1.0	n/a	Yes	2.575	n/a	5.0	GoodResponse	0	0.036	33.61	0	2	Feedback	Neutral	False
36.028	2.575	Control	1.0	n/a	Yes	2.575	n/a	n/a	GoodResponse	0	0.0	n/a	0	2	ISIslide	Neutral	False
38.619	0.25	Win2	1.0	0.0	Yes	2.831	0.019	n/a	GoodResponse	1	n/a	n/a	1	3	Cue	Win	False
38.87	3.95	Win2	1.0	0.0	Yes	2.831	0.001	3.0	GoodResponse	1	3.641	41.511	1	3	Fixation	Win	False
42.511	0.3	Win2	1.0	0.0	Yes	2.831	0.001	3.0	GoodResponse	1	3.641	n/a	1	3	ButtonPress	Win	False
42.815	0.37	Win2	1.0	0.004	Yes	2.831	-0.004	3.0	GoodResponse	1	0.196	42.011	1	3	Target	Win	False
43.011	0.3	Win2	1.0	0.004	Yes	2.831	-0.004	3.0	GoodResponse	1	0.196	n/a	1	3	ButtonPress	Win	False
43.2	0.33	Win2	1.0	n/a	Yes	2.831	n/a	n/a	GoodResponse	1	n/a	n/a	1	3	Blank	Win	False
43.517	1.45	Win2	1.0	n/a	Yes	2.831	n/a	5.0	GoodResponse	1	0.019	42.536	1	3	Feedback	Win	False
44.972	2.831	Win2	1.0	n/a	Yes	2.831	n/a	n/a	GoodResponse	1	0.0	n/a	1	3	ISIslide	Win	False
47.814	0.25	Win2	1.0	0.0	Yes	3.286	0.014	n/a	GoodResponse	1	n/a	n/a	2	4	Cue	Win	True
48.064	4.0	Win2	1.0	0.0	Yes	3.286	0.0	n/a	GoodResponse	1	n/a	n/a	2	4	Fixation	Win	True
52.06	0.36	Win2	1.0	0.004	Yes	3.286	-0.004	3.0	GoodResponse	1	0.207	51.267	2	4	Target	Win	True
52.267	0.3	Win2	1.0	0.004	Yes	3.286	-0.004	3.0	GoodResponse	1	0.207	n/a	2	4	ButtonPress	Win	True
52.427	0.34	Win2	1.0	n/a	Yes	3.286	n/a	n/a	GoodResponse	1	n/a	n/a	2	4	Blank	Win	True
52.762	1.45	Win2	1.0	n/a	Yes	3.286	n/a	5.0	GoodResponse	1	0.042	51.804	2	4	Feedback	Win	True
54.216	3.286	Win2	1.0	n/a	Yes	3.286	n/a	n/a	GoodResponse	1	0.0	n/a	2	4	ISIslide	Win	True
57.526	0.25	Win2	1.0	0.0	Yes	2.774	0.026	n/a	GoodResponse	1	n/a	n/a	3	5	Cue	Win	True
57.777	4.0	Win2	1.0	0.0	Yes	2.774	0.001	n/a	GoodResponse	1	n/a	n/a	3	5	Fixation	Win	True
61.772	0.35	Win2	1.0	0.004	Yes	2.774	-0.004	3.0	GoodResponse	1	0.152	60.924	3	5	Target	Win	True
61.924	0.3	Win2	1.0	0.004	Yes	2.774	-0.004	3.0	GoodResponse	1	0.152	n/a	3	5	ButtonPress	Win	True
62.123	0.35	Win2	1.0	n/a	Yes	2.774	n/a	n/a	GoodResponse	1	n/a	n/a	3	5	Blank	Win	True
62.474	1.45	Win2	1.0	n/a	Yes	2.774	n/a	5.0	GoodResponse	1	0.038	61.512	3	5	Feedback	Win	True
63.928	2.774	Win2	1.0	n/a	Yes	2.774	n/a	n/a	GoodResponse	1	0.0	n/a	3	5	ISIslide	Win	True
66.72	0.25	Lose2	1.0	0.0	Yes	2.73	0.02	n/a	GoodResponse	0	n/a	n/a	3	6	Cue	AvoidedLoss	True
66.971	3.95	Lose2	1.0	0.0	Yes	2.73	0.001	n/a	GoodResponse	0	n/a	n/a	3	6	Fixation	AvoidedLoss	True
70.916	0.34	Lose2	1.0	0.004	Yes	2.73	-0.004	3.0	GoodResponse	0	0.185	70.101	3	6	Target	AvoidedLoss	True
71.101	0.3	Lose2	1.0	0.004	Yes	2.73	-0.004	3.0	GoodResponse	0	0.185	n/a	3	6	ButtonPress	AvoidedLoss	True
71.267	0.36	Lose2	1.0	n/a	Yes	2.73	n/a	n/a	GoodResponse	0	n/a	n/a	3	6	Blank	AvoidedLoss	True
71.618	1.45	Lose2	1.0	n/a	Yes	2.73	n/a	5.0	GoodResponse	0	0.016	70.634	3	6	Feedback	AvoidedLoss	True
73.073	2.73	Lose2	1.0	n/a	Yes	2.73	n/a	n/a	GoodResponse	0	0.0	n/a	3	6	ISIslide	AvoidedLoss	True
75.814	0.25	Lose2	1.0	0.0	Yes	4.036	0.014	n/a	GoodResponse	0	n/a	n/a	3	7	Cue	AvoidedLoss	True
76.065	4.05	Lose2	1.0	0.0	Yes	4.036	0.001	n/a	GoodResponse	0	n/a	n/a	3	7	Fixation	AvoidedLoss	True
80.11	0.33	Lose2	1.0	0.004	Yes	4.036	-0.004	3.0	GoodResponse	0	0.206	79.316	3	7	Target	AvoidedLoss	True
80.316	0.3	Lose2	1.0	0.004	Yes	4.036	-0.004	3.0	GoodResponse	0	0.206	n/a	3	7	ButtonPress	AvoidedLoss	True
80.445	0.37	Lose2	1.0	n/a	Yes	4.036	n/a	n/a	GoodResponse	0	n/a	n/a	3	7	Blank	AvoidedLoss	True
80.812	1.45	Lose2	1.0	n/a	Yes	4.036	n/a	5.0	GoodResponse	0	0.041	79.853	3	7	Feedback	AvoidedLoss	True
82.267	4.036	Lose2	1.0	n/a	Yes	4.036	n/a	n/a	GoodResponse	0	0.0	n/a	3	7	ISIslide	AvoidedLoss	True
86.329	0.25	Lose2	1.0	0.0	Yes	3.021	0.029	n/a	GoodResponse	0	n/a	n/a	3	8	Cue	AvoidedLoss	True
86.58	3.95	Lose2	1.0	0.0	Yes	3.021	0.001	n/a	GoodResponse	0	n/a	n/a	3	8	Fixation	AvoidedLoss	True
90.525	0.32	Lose2	1.0	0.004	Yes	3.021	-0.004	3.0	GoodResponse	0	0.195	89.72	3	8	Target	AvoidedLoss	True
90.72	0.3	Lose2	1.0	0.004	Yes	3.021	-0.004	3.0	GoodResponse	0	0.195	n/a	3	8	ButtonPress	AvoidedLoss	True
90.859	0.38	Lose2	1.0	n/a	Yes	3.021	n/a	n/a	GoodResponse	0	n/a	n/a	3	8	Blank	AvoidedLoss	True
91.227	1.45	Lose2	1.0	n/a	Yes	3.021	n/a	5.0	GoodResponse	0	0.017	90.244	3	8	Feedback	AvoidedLoss	True
92.681	3.021	Lose2	1.0	n/a	Yes	3.021	n/a	n/a	GoodResponse	0	0.0	n/a	3	8	ISIslide	AvoidedLoss	True
95.724	0.25	Lose2	1.0	0.0	Yes	3.126	0.024	n/a	GoodResponse	0	n/a	n/a	3	9	Cue	AvoidedLoss	True
95.974	3.95	Lose2	1.0	0.001	Yes	3.126	0.0	n/a	GoodResponse	0	n/a	n/a	3	9	Fixation	AvoidedLoss	True
99.92	0.31	Lose2	1.0	0.004	Yes	3.126	-0.004	3.0	GoodResponse	0	0.264	99.184	3	9	Target	AvoidedLoss	True
100.184	0.3	Lose2	1.0	0.004	Yes	3.126	-0.004	3.0	GoodResponse	0	0.264	n/a	3	9	ButtonPress	AvoidedLoss	True
100.237	0.39	Lose2	1.0	n/a	Yes	3.126	n/a	n/a	GoodResponse	0	n/a	n/a	3	9	Blank	AvoidedLoss	True
100.622	1.45	Lose2	1.0	n/a	Yes	3.126	n/a	5.0	GoodResponse	0	0.035	99.657	3	9	Feedback	AvoidedLoss	True
102.076	3.126	Lose2	1.0	n/a	Yes	3.126	n/a	n/a	GoodResponse	0	0.0	n/a	3	9	ISIslide	AvoidedLoss	True
105.219	0.25	Control	0.9091	0.0	No	3.281	0.019	n/a	NoResponse	0	n/a	n/a	3	10	Cue	Neutral	True
105.47	4.0	Control	0.9091	0.0	No	3.281	0.001	n/a	NoResponse	0	n/a	n/a	3	10	Fixation	Neutral	True
109.465	0.3	Control	0.9091	0.004	No	3.281	-0.004	3.0	NoResponse	0	0.314	108.779	3	10	Target	Neutral	True
109.766	0.4	Control	0.9091	n/a	No	3.281	n/a	n/a	NoResponse	0	n/a	n/a	3	10	Blank	Neutral	True
109.779	0.3	Control	0.9091	0.004	No	3.281	-0.004	3.0	NoResponse	0	0.314	n/a	3	10	ButtonPress	Neutral	True
110.167	1.45	Control	0.9091	n/a	No	3.281	n/a	5.0	NoResponse	0	0.004	109.171	3	10	Feedback	Neutral	True
111.621	3.281	Control	0.9091	n/a	No	3.281	n/a	n/a	NoResponse	0	0.0	n/a	3	10	ISIslide	Neutral	True
114.915	0.25	Lose2	0.9167000000000001	0.0	Yes	2.735	0.015	n/a	GoodResponse	0	n/a	n/a	3	11	Cue	AvoidedLoss	True
115.165	4.05	Lose2	0.9167000000000001	0.0	Yes	2.735	0.0	n/a	GoodResponse	0	n/a	n/a	3	11	Fixation	AvoidedLoss	True
119.211	0.29	Lose2	0.9167000000000001	0.004	Yes	2.735	-0.004	3.0	GoodResponse	0	0.229	118.44	3	11	Target	AvoidedLoss	True
119.44	0.3	Lose2	0.9167000000000001	0.004	Yes	2.735	-0.004	3.0	GoodResponse	0	0.229	n/a	3	11	ButtonPress	AvoidedLoss	True
119.512	0.41	Lose2	0.9167000000000001	n/a	Yes	2.735	n/a	n/a	GoodResponse	0	n/a	n/a	3	11	Blank	AvoidedLoss	True
119.913	1.45	Lose2	0.9167000000000001	n/a	Yes	2.735	n/a	5.0	GoodResponse	0	0.013	118.926	3	11	Feedback	AvoidedLoss	True
121.367	2.735	Lose2	0.9167000000000001	n/a	Yes	2.735	n/a	n/a	GoodResponse	0	0.0	n/a	3	11	ISIslide	AvoidedLoss	True
124.126	0.25	Control	0.8462000000000001	0.0	No	2.974	0.026	n/a	NoResponse	0	n/a	n/a	3	12	Cue	Neutral	True
124.376	3.9	Control	0.8462000000000001	0.0	No	2.974	0.0	n/a	NoResponse	0	n/a	n/a	3	12	Fixation	Neutral	True
128.288	0.28	Control	0.8462000000000001	0.0	No	2.974	0.012	3.0	NoResponse	0	0.497	127.785	3	12	Target	Neutral	True
128.555	0.42	Control	0.8462000000000001	n/a	No	2.974	n/a	n/a	NoResponse	0	n/a	n/a	3	12	Blank	Neutral	True
128.785	0.3	Control	0.8462000000000001	0.0	No	2.974	0.012	3.0	NoResponse	0	0.497	n/a	3	12	ButtonPress	Neutral	True
128.973	1.45	Control	0.8462000000000001	n/a	No	2.974	n/a	5.0	NoResponse	0	0.026	127.999	3	12	Feedback	Neutral	True
130.428	2.974	Control	0.8462000000000001	n/a	No	2.974	n/a	n/a	NoResponse	0	0.0	n/a	3	12	ISIslide	Neutral	True
133.42	0.25	Control	0.8571	0.0	Yes	2.78	0.02	n/a	GoodResponse	0	n/a	n/a	3	13	Cue	Neutral	True
133.671	4.0	Control	0.8571	0.0	Yes	2.78	0.001	n/a	GoodResponse	0	n/a	n/a	3	13	Fixation	Neutral	True
137.666	0.27	Control	0.8571	0.004	Yes	2.78	-0.004	3.0	GoodResponse	0	0.194	136.86	3	13	Target	Neutral	True
137.86	0.3	Control	0.8571	0.004	Yes	2.78	-0.004	3.0	GoodResponse	0	0.194	n/a	3	13	ButtonPress	Neutral	True
137.95	0.43	Control	0.8571	n/a	Yes	2.78	n/a	n/a	GoodResponse	0	n/a	n/a	3	13	Blank	Neutral	True
138.368	1.45	Control	0.8571	n/a	Yes	2.78	n/a	5.0	GoodResponse	0	0.046	137.414	3	13	Feedback	Neutral	True
139.823	2.78	Control	0.8571	n/a	Yes	2.78	n/a	n/a	GoodResponse	0	0.0	n/a	3	13	ISIslide	Neutral	True
142.614	0.25	Win2	0.8667	0.0	Yes	2.686	0.014	n/a	GoodResponse	1	n/a	n/a	4	14	Cue	Win	True
142.865	4.1	Win2	0.8667	0.0	Yes	2.686	0.001	n/a	GoodResponse	1	n/a	n/a	4	14	Fixation	Win	True
146.961	0.26	Win2	0.8667	0.003	Yes	2.686	-0.003	3.0	GoodResponse	1	0.157	146.118	4	14	Target	Win	True
147.118	0.3	Win2	0.8667	0.003	Yes	2.686	-0.003	3.0	GoodResponse	1	0.157	n/a	4	14	ButtonPress	Win	True
147.228	0.44	Win2	0.8667	n/a	Yes	2.686	n/a	n/a	GoodResponse	1	n/a	n/a	4	14	Blank	Win	True
147.663	1.45	Win2	0.8667	n/a	Yes	2.686	n/a	5.0	GoodResponse	1	0.019	146.682	4	14	Feedback	Win	True
149.117	2.686	Win2	0.8667	n/a	Yes	2.686	n/a	n/a	GoodResponse	1	0.0	n/a	4	14	ISIslide	Win	True
151.825	0.25	Control	0.8125	0.0	No	2.975	0.025	n/a	NoResponse	0	n/a	n/a	4	15	Cue	Neutral	True
152.076	4.0	Control	0.8125	0.0	No	2.975	0.001	n/a	NoResponse	0	n/a	n/a	4	15	Fixation	Neutral	True
156.071	0.25	Control	0.8125	0.004	No	2.975	-0.004	3.0	NoResponse	0	0.36	155.431	4	15	Target	Neutral	True
156.322	0.45	Control	0.8125	n/a	No	2.975	n/a	n/a	NoResponse	0	n/a	n/a	4	15	Blank	Neutral	True
156.431	0.3	Control	0.8125	0.004	No	2.975	-0.004	3.0	NoResponse	0	0.36	n/a	4	15	ButtonPress	Neutral	True
156.773	1.45	Control	0.8125	n/a	No	2.975	n/a	5.0	NoResponse	0	0.031	155.804	4	15	Feedback	Neutral	True
158.228	2.975	Control	0.8125	n/a	No	2.975	n/a	n/a	NoResponse	0	0.0	n/a	4	15	ISIslide	Neutral	True
161.22	0.25	Win2	0.8234999999999999	0.0	Yes	2.88	0.02	n/a	GoodResponse	1	n/a	n/a	5	16	Cue	Win	True
161.471	4.0	Win2	0.8234999999999999	0.0	Yes	2.88	0.001	n/a	GoodResponse	1	n/a	n/a	5	16	Fixation	Win	True
165.466	0.24	Win2	0.8234999999999999	0.004	Yes	2.88	-0.004	3.0	GoodResponse	1	0.185	164.651	5	16	Target	Win	True
165.651	0.3	Win2	0.8234999999999999	0.004	Yes	2.88	-0.004	3.0	GoodResponse	1	0.185	n/a	5	16	ButtonPress	Win	True
165.717	0.46	Win2	0.8234999999999999	n/a	Yes	2.88	n/a	n/a	GoodResponse	1	n/a	n/a	5	16	Blank	Win	True
166.168	1.45	Win2	0.8234999999999999	n/a	Yes	2.88	n/a	5.0	GoodResponse	1	0.001	165.169	5	16	Feedback	Win	True
167.623	2.88	Win2	0.8234999999999999	n/a	Yes	2.88	n/a	n/a	GoodResponse	1	0.0	n/a	5	16	ISIslide	Win	True
170.515	0.25	Lose2	0.8332999999999999	0.0	Yes	2.735	0.015	n/a	GoodResponse	0	n/a	n/a	5	17	Cue	AvoidedLoss	True
170.765	3.95	Lose2	0.8332999999999999	0.0	Yes	2.735	0.0	n/a	GoodResponse	0	n/a	n/a	5	17	Fixation	AvoidedLoss	True
174.727	0.23	Lose2	0.8332999999999999	0.0	Yes	2.735	0.012	3.0	GoodResponse	0	0.176	173.903	5	17	Target	AvoidedLoss	True
174.903	0.3	Lose2	0.8332999999999999	0.0	Yes	2.735	0.012	3.0	GoodResponse	0	0.176	n/a	5	17	ButtonPress	AvoidedLoss	True
174.944	0.47	Lose2	0.8332999999999999	n/a	Yes	2.735	n/a	n/a	GoodResponse	0	n/a	n/a	5	17	Blank	AvoidedLoss	True
175.413	1.45	Lose2	0.8332999999999999	n/a	Yes	2.735	n/a	5.0	GoodResponse	0	0.025	174.438	5	17	Feedback	AvoidedLoss	True
176.867	2.735	Lose2	0.8332999999999999	n/a	Yes	2.735	n/a	n/a	GoodResponse	0	0.0	n/a	5	17	ISIslide	AvoidedLoss	True
179.625	0.25	Lose2	0.7895	0.0	No	2.725	0.025	n/a	NoResponse	-1	n/a	n/a	4	18	Cue	Loss	True
179.876	4.05	Lose2	0.7895	0.0	No	2.725	0.001	n/a	NoResponse	-1	n/a	n/a	4	18	Fixation	Loss	True
183.921	0.22	Lose2	0.7895	0.004	No	2.725	-0.004	3.0	NoResponse	-1	0.265	183.186	4	18	Target	Loss	True
184.155	0.48	Lose2	0.7895	n/a	No	2.725	n/a	n/a	NoResponse	-1	n/a	n/a	4	18	Blank	Loss	True
184.186	0.3	Lose2	0.7895	0.004	No	2.725	-0.004	3.0	NoResponse	-1	0.265	n/a	4	18	ButtonPress	Loss	True
184.623	1.45	Lose2	0.7895	n/a	No	2.725	n/a	5.0	NoResponse	-1	0.034	183.657	4	18	Feedback	Loss	True
186.078	2.725	Lose2	0.7895	n/a	No	2.725	n/a	n/a	NoResponse	-1	0.0	n/a	4	18	ISIslide	Loss	True
188.819	0.25	Control	0.75	0.0	No	2.931	0.019	n/a	NoResponse	0	n/a	n/a	4	19	Cue	Neutral	True
189.07	3.95	Control	0.75	0.0	No	2.931	0.001	n/a	NoResponse	0	n/a	n/a	4	19	Fixation	Neutral	True
193.015	0.21	Control	0.75	0.004	No	2.931	-0.004	3.0	NoResponse	0	0.26	192.275	4	19	Target	Neutral	True
193.233	0.49	Control	0.75	n/a	No	2.931	n/a	n/a	NoResponse	0	n/a	n/a	4	19	Blank	Neutral	True
193.275	0.3	Control	0.75	0.004	No	2.931	-0.004	3.0	NoResponse	0	0.26	n/a	4	19	ButtonPress	Neutral	True
193.717	1.45	Control	0.75	n/a	No	2.931	n/a	5.0	NoResponse	0	0.014	192.731	4	19	Feedback	Neutral	True
195.172	2.931	Control	0.75	n/a	No	2.931	n/a	n/a	NoResponse	0	0.0	n/a	4	19	ISIslide	Neutral	True
198.114	0.25	Control	0.7143	0.0	No	2.636	0.014	n/a	NoResponse	0	n/a	n/a	4	20	Cue	Neutral	True
198.365	4.05	Control	0.7143	0.0	No	2.636	0.001	n/a	NoResponse	0	n/a	n/a	4	20	Fixation	Neutral	True
202.41	0.2	Control	0.7143	0.004	No	2.636	-0.004	3.0	NoResponse	0	0.393	201.803	4	20	Target	Neutral	True
202.611	0.5	Control	0.7143	n/a	No	2.636	n/a	n/a	NoResponse	0	n/a	n/a	4	20	Blank	Neutral	True
202.803	0.3	Control	0.7143	0.004	No	2.636	-0.004	3.0	NoResponse	0	0.393	n/a	4	20	ButtonPress	Neutral	True
203.112	1.45	Control	0.7143	n/a	No	2.636	n/a	5.0	NoResponse	0	0.033	202.145	4	20	Feedback	Neutral	True
204.567	2.636	Control	0.7143	n/a	No	2.636	n/a	n/a	NoResponse	0	0.0	n/a	4	20	ISIslide	Neutral	True
207.225	0.25	Control	0.6818000000000001	0.0	No	2.775	0.025	n/a	NoResponse	0	n/a	n/a	4	21	Cue	Neutral	True
207.475	4.1	Control	0.6818000000000001	0.0	No	2.775	0.0	n/a	NoResponse	0	n/a	n/a	4	21	Fixation	Neutral	True
211.571	0.19	Control	0.6818000000000001	0.004	No	2.775	-0.004	3.0	NoResponse	0	0.294	210.865	4	21	Target	Neutral	True
211.771	0.51	Control	0.6818000000000001	n/a	No	2.775	n/a	n/a	NoResponse	0	n/a	n/a	4	21	Blank	Neutral	True
211.865	0.3	Control	0.6818000000000001	0.004	No	2.775	-0.004	3.0	NoResponse	0	0.294	n/a	4	21	ButtonPress	Neutral	True
212.273	1.45	Control	0.6818000000000001	n/a	No	2.775	n/a	5.0	NoResponse	0	0.043	211.316	4	21	Feedback	Neutral	True
213.727	2.775	Control	0.6818000000000001	n/a	No	2.775	n/a	n/a	NoResponse	0	0.0	n/a	4	21	ISIslide	Neutral	True
216.519	0.25	Control	0.6522	0.0	No	2.781	0.019	n/a	NoResponse	0	n/a	n/a	4	22	Cue	Neutral	True
216.77	4.0	Control	0.6522	0.0	No	2.781	0.001	n/a	NoResponse	0	n/a	n/a	4	22	Fixation	Neutral	True
220.765	0.18	Control	0.6522	0.004	No	2.781	-0.004	3.0	NoResponse	0	0.321	220.086	4	22	Target	Neutral	True
220.949	0.52	Control	0.6522	n/a	No	2.781	n/a	n/a	NoResponse	0	n/a	n/a	4	22	Blank	Neutral	True
221.086	0.3	Control	0.6522	0.004	No	2.781	-0.004	3.0	NoResponse	0	0.321	n/a	4	22	ButtonPress	Neutral	True
221.467	1.45	Control	0.6522	n/a	No	2.781	n/a	5.0	NoResponse	0	0.019	220.486	4	22	Feedback	Neutral	True
222.922	2.781	Control	0.6522	n/a	No	2.781	n/a	n/a	NoResponse	0	0.0	n/a	4	22	ISIslide	Neutral	True
225.713	0.25	Control	0.6667000000000001	0.0	Yes	2.787	0.013	n/a	GoodResponse	0	n/a	n/a	4	23	Cue	Neutral	False
225.964	3.9	Control	0.6667000000000001	0.0	Yes	2.787	0.001	3.0	GoodResponse	0	2.948	227.912	4	23	Fixation	Neutral	False
228.912	0.3	Control	0.6667000000000001	0.0	Yes	2.787	0.001	3.0	GoodResponse	0	2.948	n/a	4	23	ButtonPress	Neutral	False
229.859	0.19	Control	0.6667000000000001	0.004	Yes	2.787	-0.004	3.0	GoodResponse	0	0.163	229.022	4	23	Target	Neutral	False
230.022	0.3	Control	0.6667000000000001	0.004	Yes	2.787	-0.004	3.0	GoodResponse	0	0.163	n/a	4	23	ButtonPress	Neutral	False
230.06	0.51	Control	0.6667000000000001	n/a	Yes	2.787	n/a	n/a	GoodResponse	0	n/a	n/a	4	23	Blank	Neutral	False
230.561	1.45	Control	0.6667000000000001	n/a	Yes	2.787	n/a	5.0	GoodResponse	0	0.047	229.608	4	23	Feedback	Neutral	False
232.015	2.787	Control	0.6667000000000001	n/a	Yes	2.787	n/a	n/a	GoodResponse	0	0.0	n/a	4	23	ISIslide	Neutral	False
234.824	0.25	Win2	0.68	0.0	Yes	3.126	0.024	n/a	GoodResponse	1	n/a	n/a	5	24	Cue	Win	False
235.075	3.95	Win2	0.68	0.0	Yes	3.126	0.001	3.0	GoodResponse	1	3.804	237.879	5	24	Fixation	Win	False
238.879	0.3	Win2	0.68	0.0	Yes	3.126	0.001	3.0	GoodResponse	1	3.804	n/a	5	24	ButtonPress	Win	False
239.02	0.18	Win2	0.68	0.004	Yes	3.126	-0.004	3.0	GoodResponse	1	0.159	238.179	5	24	Target	Win	False
239.179	0.3	Win2	0.68	0.004	Yes	3.126	-0.004	3.0	GoodResponse	1	0.159	n/a	5	24	ButtonPress	Win	False
239.204	0.52	Win2	0.68	n/a	Yes	3.126	n/a	n/a	GoodResponse	1	n/a	n/a	5	24	Blank	Win	False
239.722	1.45	Win2	0.68	n/a	Yes	3.126	n/a	5.0	GoodResponse	1	0.008	238.73	5	24	Feedback	Win	False
241.176	3.126	Win2	0.68	n/a	Yes	3.126	n/a	n/a	GoodResponse	1	0.0	n/a	5	24	ISIslide	Win	False
244.319	0.25	Win2	0.6537999999999999	0.0	No	3.081	0.019	n/a	LatePress	0	n/a	n/a	5	25	Cue	MissedWin	True
244.57	4.0	Win2	0.6537999999999999	0.0	No	3.081	0.001	n/a	LatePress	0	n/a	n/a	5	25	Fixation	MissedWin	True
248.565	0.17	Win2	0.6537999999999999	0.004	No	3.081	-0.004	3.0	LatePress	0	0.172	247.737	5	25	Target	MissedWin	True
248.737	0.3	Win2	0.6537999999999999	0.004	No	3.081	-0.004	3.0	LatePress	0	0.172	n/a	5	25	ButtonPress	MissedWin	True
248.749	0.53	Win2	0.6537999999999999	n/a	No	3.081	n/a	n/a	LatePress	0	n/a	n/a	5	25	Blank	MissedWin	True
249.267	1.45	Win2	0.6537999999999999	n/a	No	3.081	n/a	5.0	LatePress	0	0.024	248.291	5	25	Feedback	MissedWin	True
250.722	3.081	Win2	0.6537999999999999	n/a	No	3.081	n/a	n/a	LatePress	0	0.0	n/a	5	25	ISIslide	MissedWin	True
253.814	0.25	Win2	0.6667000000000001	0.0	Yes	2.936	0.014	n/a	GoodResponse	1	n/a	n/a	6	26	Cue	Win	True
254.065	3.95	Win2	0.6667000000000001	0.0	Yes	2.936	0.001	n/a	GoodResponse	1	n/a	n/a	6	26	Fixation	Win	True
258.01	0.18	Win2	0.6667000000000001	0.004	Yes	2.936	-0.004	3.0	GoodResponse	1	0.16	257.17	6	26	Target	Win	True
258.17	0.3	Win2	0.6667000000000001	0.004	Yes	2.936	-0.004	3.0	GoodResponse	1	0.16	n/a	6	26	ButtonPress	Win	True
258.194	0.52	Win2	0.6667000000000001	n/a	Yes	2.936	n/a	n/a	GoodResponse	1	n/a	n/a	6	26	Blank	Win	True
258.712	1.45	Win2	0.6667000000000001	n/a	Yes	2.936	n/a	5.0	GoodResponse	1	0.043	257.755	6	26	Feedback	Win	True
260.166	2.936	Win2	0.6667000000000001	n/a	Yes	2.936	n/a	n/a	GoodResponse	1	0.0	n/a	6	26	ISIslide	Win	True
263.125	0.25	Lose2	0.6429	0.0	No	2.825	0.025	n/a	NoResponse	-1	n/a	n/a	5	27	Cue	Loss	True
263.376	4.05	Lose2	0.6429	0.0	No	2.825	0.001	n/a	NoResponse	-1	n/a	n/a	5	27	Fixation	Loss	True
267.422	0.17	Lose2	0.6429	0.003	No	2.825	-0.003	3.0	NoResponse	-1	0.293	266.715	5	27	Target	Loss	True
267.605	0.53	Lose2	0.6429	n/a	No	2.825	n/a	n/a	NoResponse	-1	n/a	n/a	5	27	Blank	Loss	True
267.715	0.3	Lose2	0.6429	0.003	No	2.825	-0.003	3.0	NoResponse	-1	0.293	n/a	5	27	ButtonPress	Loss	True
268.124	1.45	Lose2	0.6429	n/a	No	2.825	n/a	5.0	NoResponse	-1	0.046	267.17	5	27	Feedback	Loss	True
269.578	2.825	Lose2	0.6429	n/a	No	2.825	n/a	n/a	NoResponse	-1	0.0	n/a	5	27	ISIslide	Loss	True
272.42	0.25	Control	0.6207	0.0	No	2.83	0.02	n/a	NoResponse	0	n/a	n/a	5	28	Cue	Neutral	True
272.671	4.05	Control	0.6207	0.0	No	2.83	0.001	n/a	NoResponse	0	n/a	n/a	5	28	Fixation	Neutral	True
276.716	0.18	Control	0.6207	0.004	No	2.83	-0.004	3.0	NoResponse	0	0.275	275.991	5	28	Target	Neutral	True
276.9	0.52	Control	0.6207	n/a	No	2.83	n/a	n/a	NoResponse	0	n/a	n/a	5	28	Blank	Neutral	True
276.991	0.3	Control	0.6207	0.004	No	2.83	-0.004	3.0	NoResponse	0	0.275	n/a	5	28	ButtonPress	Neutral	True
277.418	1.45	Control	0.6207	n/a	No	2.83	n/a	5.0	NoResponse	0	0.02	276.438	5	28	Feedback	Neutral	True
278.873	2.83	Control	0.6207	n/a	No	2.83	n/a	n/a	NoResponse	0	0.0	n/a	5	28	ISIslide	Neutral	True
281.714	0.25	Lose2	0.6	0.0	No	2.836	0.014	n/a	NoResponse	-1	n/a	n/a	4	29	Cue	Loss	True
281.965	3.95	Lose2	0.6	0.0	No	2.836	0.001	n/a	NoResponse	-1	n/a	n/a	4	29	Fixation	Loss	True
285.91	0.19	Lose2	0.6	0.004	No	2.836	-0.004	3.0	NoResponse	-1	0.211	285.121	4	29	Target	Loss	True
286.111	0.51	Lose2	0.6	n/a	No	2.836	n/a	n/a	NoResponse	-1	n/a	n/a	4	29	Blank	Loss	True
286.121	0.3	Lose2	0.6	0.004	No	2.836	-0.004	3.0	NoResponse	-1	0.211	n/a	4	29	ButtonPress	Loss	True
286.612	1.45	Lose2	0.6	n/a	No	2.836	n/a	5.0	NoResponse	-1	0.045	285.657	4	29	Feedback	Loss	True
288.067	2.836	Lose2	0.6	n/a	No	2.836	n/a	n/a	NoResponse	-1	0.0	n/a	4	29	ISIslide	Loss	True
290.925	0.25	Win2	0.6129	0.0	Yes	2.775	0.025	n/a	GoodResponse	1	n/a	n/a	5	30	Cue	Win	True
291.176	3.9	Win2	0.6129	0.0	Yes	2.775	0.001	n/a	GoodResponse	1	n/a	n/a	5	30	Fixation	Win	True
295.071	0.2	Win2	0.6129	0.004	Yes	2.775	-0.004	3.0	GoodResponse	1	0.17	294.241	5	30	Target	Win	True
295.241	0.3	Win2	0.6129	0.004	Yes	2.775	-0.004	3.0	GoodResponse	1	0.17	n/a	5	30	ButtonPress	Win	True
295.272	0.5	Win2	0.6129	n/a	Yes	2.775	n/a	n/a	GoodResponse	1	n/a	n/a	5	30	Blank	Win	True
295.773	1.45	Win2	0.6129	n/a	Yes	2.775	n/a	5.0	GoodResponse	1	0.006	294.779	5	30	Feedback	Win	True
297.228	2.775	Win2	0.6129	n/a	Yes	2.775	n/a	n/a	GoodResponse	1	0.0	n/a	5	30	ISIslide	Win	True
300.019	0.25	Lose2	0.625	0.0	Yes	2.831	0.019	n/a	GoodResponse	0	n/a	n/a	5	31	Cue	AvoidedLoss	False
300.27	4.05	Lose2	0.625	0.0	Yes	2.831	0.001	3.0	GoodResponse	0	3.752	303.022	5	31	Fixation	AvoidedLoss	False
304.022	0.3	Lose2	0.625	0.0	Yes	2.831	0.001	3.0	GoodResponse	0	3.752	n/a	5	31	ButtonPress	AvoidedLoss	False
304.315	0.21	Lose2	0.625	0.004	Yes	2.831	-0.004	3.0	GoodResponse	0	0.159	303.474	5	31	Target	AvoidedLoss	False
304.474	0.3	Lose2	0.625	0.004	Yes	2.831	-0.004	3.0	GoodResponse	0	0.159	n/a	5	31	ButtonPress	AvoidedLoss	False
304.533	0.49	Lose2	0.625	n/a	Yes	2.831	n/a	n/a	GoodResponse	0	n/a	n/a	5	31	Blank	AvoidedLoss	False
305.018	1.45	Lose2	0.625	n/a	Yes	2.831	n/a	5.0	GoodResponse	0	0.029	304.047	5	31	Feedback	AvoidedLoss	False
306.472	2.831	Lose2	0.625	n/a	Yes	2.831	n/a	n/a	GoodResponse	0	0.0	n/a	5	31	ISIslide	AvoidedLoss	False
309.314	0.25	Lose2	0.6364	0.0	Yes	2.636	0.014	n/a	GoodResponse	0	n/a	n/a	5	32	Cue	AvoidedLoss	True
309.564	4.15	Lose2	0.6364	0.001	Yes	2.636	0.0	n/a	GoodResponse	0	n/a	n/a	5	32	Fixation	AvoidedLoss	True
313.71	0.22	Lose2	0.6364	0.004	Yes	2.636	-0.004	3.0	GoodResponse	0	0.178	312.888	5	32	Target	AvoidedLoss	True
313.888	0.3	Lose2	0.6364	0.004	Yes	2.636	-0.004	3.0	GoodResponse	0	0.178	n/a	5	32	ButtonPress	AvoidedLoss	True
313.944	0.48	Lose2	0.6364	n/a	Yes	2.636	n/a	n/a	GoodResponse	0	n/a	n/a	5	32	Blank	AvoidedLoss	True
314.412	1.45	Lose2	0.6364	n/a	Yes	2.636	n/a	5.0	GoodResponse	0	0.001	313.413	5	32	Feedback	AvoidedLoss	True
315.867	2.636	Lose2	0.6364	n/a	Yes	2.636	n/a	n/a	GoodResponse	0	0.0	n/a	5	32	ISIslide	AvoidedLoss	True
318.525	0.25	Win2	0.6175999999999999	0.0	No	2.675	0.025	n/a	NoResponse	0	n/a	n/a	5	33	Cue	MissedWin	True
318.775	4.0	Win2	0.6175999999999999	0.001	No	2.675	0.0	n/a	NoResponse	0	n/a	n/a	5	33	Fixation	MissedWin	True
322.771	0.23	Win2	0.6175999999999999	0.004	No	2.675	-0.004	3.0	NoResponse	0	0.3	322.071	5	33	Target	MissedWin	True
323.005	0.47	Win2	0.6175999999999999	n/a	No	2.675	n/a	n/a	NoResponse	0	n/a	n/a	5	33	Blank	MissedWin	True
323.071	0.3	Win2	0.6175999999999999	0.004	No	2.675	-0.004	3.0	NoResponse	0	0.3	n/a	5	33	ButtonPress	MissedWin	True
323.473	1.45	Win2	0.6175999999999999	n/a	No	2.675	n/a	5.0	NoResponse	0	0.013	322.486	5	33	Feedback	MissedWin	True
324.927	2.675	Win2	0.6175999999999999	n/a	No	2.675	n/a	n/a	NoResponse	0	0.0	n/a	5	33	ISIslide	MissedWin	True
327.619	0.25	Lose2	0.6286	0.0	Yes	2.631	0.019	n/a	GoodResponse	0	n/a	n/a	5	34	Cue	AvoidedLoss	True
327.869	4.05	Lose2	0.6286	0.0	Yes	2.631	0.0	n/a	GoodResponse	0	n/a	n/a	5	34	Fixation	AvoidedLoss	True
331.915	0.24	Lose2	0.6286	0.004	Yes	2.631	-0.004	3.0	GoodResponse	0	0.18	331.095	5	34	Target	AvoidedLoss	True
332.095	0.3	Lose2	0.6286	0.004	Yes	2.631	-0.004	3.0	GoodResponse	0	0.18	n/a	5	34	ButtonPress	AvoidedLoss	True
332.166	0.46	Lose2	0.6286	n/a	Yes	2.631	n/a	n/a	GoodResponse	0	n/a	n/a	5	34	Blank	AvoidedLoss	True
332.617	1.45	Lose2	0.6286	n/a	Yes	2.631	n/a	5.0	GoodResponse	0	0.04	331.657	5	34	Feedback	AvoidedLoss	True
334.071	2.631	Lose2	0.6286	n/a	Yes	2.631	n/a	n/a	GoodResponse	0	0.0	n/a	5	34	ISIslide	AvoidedLoss	True
336.729	0.25	Lose2	0.6389	0.0	Yes	2.671	0.029	n/a	GoodResponse	0	n/a	n/a	5	35	Cue	AvoidedLoss	False
336.98	4.0	Lose2	0.6389	0.0	Yes	2.671	0.001	3.0	GoodResponse	0	3.603	339.583	5	35	Fixation	AvoidedLoss	False
340.583	0.3	Lose2	0.6389	0.0	Yes	2.671	0.001	3.0	GoodResponse	0	3.603	n/a	5	35	ButtonPress	AvoidedLoss	False
340.975	0.25	Lose2	0.6389	0.004	Yes	2.671	-0.004	3.0	GoodResponse	0	0.205	340.18	5	35	Target	AvoidedLoss	False
341.18	0.3	Lose2	0.6389	0.004	Yes	2.671	-0.004	3.0	GoodResponse	0	0.205	n/a	5	35	ButtonPress	AvoidedLoss	False
341.226	0.45	Lose2	0.6389	n/a	Yes	2.671	n/a	n/a	GoodResponse	0	n/a	n/a	5	35	Blank	AvoidedLoss	False
341.677	1.45	Lose2	0.6389	n/a	Yes	2.671	n/a	5.0	GoodResponse	0	0.004	340.681	5	35	Feedback	AvoidedLoss	False
343.132	2.671	Lose2	0.6389	n/a	Yes	2.671	n/a	n/a	GoodResponse	0	0.0	n/a	5	35	ISIslide	AvoidedLoss	False
345.823	0.25	Control	0.6486	0.0	Yes	2.677	0.023	n/a	GoodResponse	0	n/a	n/a	5	36	Cue	Neutral	True
346.074	4.0	Control	0.6486	0.0	Yes	2.677	0.001	n/a	GoodResponse	0	n/a	n/a	5	36	Fixation	Neutral	True
350.069	0.26	Control	0.6486	0.004	Yes	2.677	-0.004	3.0	GoodResponse	0	0.201	349.27	5	36	Target	Neutral	True
350.27	0.3	Control	0.6486	0.004	Yes	2.677	-0.004	3.0	GoodResponse	0	0.201	n/a	5	36	ButtonPress	Neutral	True
350.337	0.44	Control	0.6486	n/a	Yes	2.677	n/a	n/a	GoodResponse	0	n/a	n/a	5	36	Blank	Neutral	True
350.771	1.45	Control	0.6486	n/a	Yes	2.677	n/a	5.0	GoodResponse	0	0.032	349.803	5	36	Feedback	Neutral	True
352.226	2.677	Control	0.6486	n/a	Yes	2.677	n/a	n/a	GoodResponse	0	0.0	n/a	5	36	ISIslide	Neutral	True
354.917	0.25	Win2	0.6315999999999999	0.0	No	2.883	0.017	n/a	LatePress	0	n/a	n/a	5	37	Cue	MissedWin	True
355.168	4.0	Win2	0.6315999999999999	0.0	No	2.883	0.001	n/a	LatePress	0	n/a	n/a	5	37	Fixation	MissedWin	True
359.163	0.27	Win2	0.6315999999999999	0.004	No	2.883	-0.004	3.0	LatePress	0	0.277	358.44	5	37	Target	MissedWin	True
359.44	0.3	Win2	0.6315999999999999	0.004	No	2.883	-0.004	3.0	LatePress	0	0.277	n/a	5	37	ButtonPress	MissedWin	True
359.447	0.43	Win2	0.6315999999999999	n/a	No	2.883	n/a	n/a	LatePress	0	n/a	n/a	5	37	Blank	MissedWin	True
359.865	1.45	Win2	0.6315999999999999	n/a	No	2.883	n/a	5.0	LatePress	0	0.011	358.876	5	37	Feedback	MissedWin	True
361.32	2.883	Win2	0.6315999999999999	n/a	No	2.883	n/a	n/a	LatePress	0	0.0	n/a	5	37	ISIslide	MissedWin	True
364.228	0.25	Lose2	0.6409999999999999	0.0	Yes	2.822	0.028	n/a	GoodResponse	0	n/a	n/a	5	38	Cue	AvoidedLoss	True
364.479	3.95	Lose2	0.6409999999999999	0.0	Yes	2.822	0.001	n/a	GoodResponse	0	n/a	n/a	5	38	Fixation	AvoidedLoss	True
368.424	0.28	Lose2	0.6409999999999999	0.004	Yes	2.822	-0.004	3.0	GoodResponse	0	0.148	367.572	5	38	Target	AvoidedLoss	True
368.572	0.3	Lose2	0.6409999999999999	0.004	Yes	2.822	-0.004	3.0	GoodResponse	0	0.148	n/a	5	38	ButtonPress	AvoidedLoss	True
368.708	0.42	Lose2	0.6409999999999999	n/a	Yes	2.822	n/a	n/a	GoodResponse	0	n/a	n/a	5	38	Blank	AvoidedLoss	True
369.126	1.45	Lose2	0.6409999999999999	n/a	Yes	2.822	n/a	5.0	GoodResponse	0	0.018	368.144	5	38	Feedback	AvoidedLoss	True
370.581	2.822	Lose2	0.6409999999999999	n/a	Yes	2.822	n/a	n/a	GoodResponse	0	0.0	n/a	5	38	ISIslide	AvoidedLoss	True
373.423	0.25	Win2	0.65	0.0	Yes	2.977	0.023	n/a	GoodResponse	1	n/a	n/a	6	39	Cue	Win	True
373.673	4.1	Win2	0.65	0.0	Yes	2.977	0.0	n/a	GoodResponse	1	n/a	n/a	6	39	Fixation	Win	True
377.769	0.29	Win2	0.65	0.004	Yes	2.977	-0.004	3.0	GoodResponse	1	0.155	376.924	6	39	Target	Win	True
377.924	0.3	Win2	0.65	0.004	Yes	2.977	-0.004	3.0	GoodResponse	1	0.155	n/a	6	39	ButtonPress	Win	True
378.07	0.41	Win2	0.65	n/a	Yes	2.977	n/a	n/a	GoodResponse	1	n/a	n/a	6	39	Blank	Win	True
378.471	1.45	Win2	0.65	n/a	Yes	2.977	n/a	5.0	GoodResponse	1	0.039	377.51	6	39	Feedback	Win	True
379.925	2.977	Win2	0.65	n/a	Yes	2.977	n/a	n/a	GoodResponse	1	0.0	n/a	6	39	ISIslide	Win	True
382.918	0.25	Win2	0.6341	0.0	No	2.732	0.018	n/a	PrematurePress	0	n/a	n/a	6	40	Cue	MissedWin	True
383.168	3.95	Win2	0.6341	0.0	No	2.732	0.0	n/a	PrematurePress	0	n/a	n/a	6	40	Fixation	MissedWin	True
387.114	0.3	Win2	0.6341	0.004	No	2.732	-0.004	3.0	PrematurePress	0	0.065	386.179	6	40	Target	MissedWin	True
387.179	0.3	Win2	0.6341	0.004	No	2.732	-0.004	3.0	PrematurePress	0	0.065	n/a	6	40	ButtonPress	MissedWin	True
387.414	0.4	Win2	0.6341	n/a	No	2.732	n/a	n/a	PrematurePress	0	n/a	n/a	6	40	Blank	MissedWin	True
387.816	1.45	Win2	0.6341	n/a	No	2.732	n/a	5.0	PrematurePress	0	0.012	386.828	6	40	Feedback	MissedWin	True
389.27	2.732	Win2	0.6341	n/a	No	2.732	n/a	3.0	PrematurePress	0	1.578	n/a	6	40	ISIslide	MissedWin	True
392.012	0.25	Win2	0.619	0.0	No	2.788	0.012	n/a	PrematurePress	0	n/a	n/a	6	41	Cue	MissedWin	False
392.262	3.9	Win2	0.619	0.0	No	2.788	0.0	3.0	PrematurePress	0	2.568	393.83	6	41	Fixation	MissedWin	False
394.83	0.3	Win2	0.619	0.0	No	2.788	0.0	3.0	PrematurePress	0	2.568	n/a	6	41	ButtonPress	MissedWin	False
396.174	0.31	Win2	0.619	0.0	No	2.788	0.012	3.0	PrematurePress	0	0.055	395.229	6	41	Target	MissedWin	False
396.229	0.3	Win2	0.619	0.0	No	2.788	0.012	3.0	PrematurePress	0	0.055	n/a	6	41	ButtonPress	MissedWin	False
396.475	0.39	Win2	0.619	n/a	No	2.788	n/a	n/a	PrematurePress	0	n/a	n/a	6	41	Blank	MissedWin	False
396.859	1.45	Win2	0.619	n/a	No	2.788	n/a	5.0	PrematurePress	0	0.041	395.9	6	41	Feedback	MissedWin	False
398.314	2.788	Win2	0.619	n/a	No	2.788	n/a	n/a	PrematurePress	0	0.0	n/a	6	41	ISIslide	MissedWin	False
401.122	0.25	Control	0.6279	0.0	Yes	2.928	0.022	n/a	GoodResponse	0	n/a	n/a	6	42	Cue	Neutral	True
401.373	3.85	Control	0.6279	0.0	Yes	2.928	0.001	n/a	GoodResponse	0	n/a	n/a	6	42	Fixation	Neutral	True
405.218	0.32	Control	0.6279	0.004	Yes	2.928	-0.004	3.0	GoodResponse	0	0.228	404.446	6	42	Target	Neutral	True
405.446	0.3	Control	0.6279	0.004	Yes	2.928	-0.004	3.0	GoodResponse	0	0.228	n/a	6	42	ButtonPress	Neutral	True
405.552	0.38	Control	0.6279	n/a	Yes	2.928	n/a	n/a	GoodResponse	0	n/a	n/a	6	42	Blank	Neutral	True
405.92	1.45	Control	0.6279	n/a	Yes	2.928	n/a	5.0	GoodResponse	0	0.004	404.924	6	42	Feedback	Neutral	True
407.374	2.928	Control	0.6279	n/a	Yes	2.928	n/a	n/a	GoodResponse	0	0.0	n/a	6	42	ISIslide	Neutral	True
410.316	0.25	Win2	0.6364	0.0	Yes	3.184	0.016	n/a	GoodResponse	1	n/a	n/a	7	43	Cue	Win	True
410.567	4.0	Win2	0.6364	0.0	Yes	3.184	0.001	n/a	GoodResponse	1	n/a	n/a	7	43	Fixation	Win	True
414.562	0.33	Win2	0.6364	0.004	Yes	3.184	-0.004	3.0	GoodResponse	1	0.185	413.747	7	43	Target	Win	True
414.747	0.3	Win2	0.6364	0.004	Yes	3.184	-0.004	3.0	GoodResponse	1	0.185	n/a	7	43	ButtonPress	Win	True
414.897	0.37	Win2	0.6364	n/a	Yes	3.184	n/a	n/a	GoodResponse	1	n/a	n/a	7	43	Blank	Win	True
415.265	1.45	Win2	0.6364	n/a	Yes	3.184	n/a	5.0	GoodResponse	1	0.025	414.29	7	43	Feedback	Win	True
416.719	3.184	Win2	0.6364	n/a	Yes	3.184	n/a	n/a	GoodResponse	1	0.0	n/a	7	43	ISIslide	Win	True
419.929	0.25	Win2	0.6444	0.0	Yes	2.971	0.029	n/a	GoodResponse	1	n/a	n/a	8	44	Cue	Win	True
420.179	4.0	Win2	0.6444	0.0	Yes	2.971	0.0	n/a	GoodResponse	1	n/a	n/a	8	44	Fixation	Win	True
424.175	0.34	Win2	0.6444	0.004	Yes	2.971	-0.004	3.0	GoodResponse	1	0.181	423.356	8	44	Target	Win	True
424.356	0.3	Win2	0.6444	0.004	Yes	2.971	-0.004	3.0	GoodResponse	1	0.181	n/a	8	44	ButtonPress	Win	True
424.526	0.36	Win2	0.6444	n/a	Yes	2.971	n/a	n/a	GoodResponse	1	n/a	n/a	8	44	Blank	Win	True
424.877	1.45	Win2	0.6444	n/a	Yes	2.971	n/a	5.0	GoodResponse	1	0.023	423.9	8	44	Feedback	Win	True
426.331	2.971	Win2	0.6444	n/a	Yes	2.971	n/a	n/a	GoodResponse	1	0.0	n/a	8	44	ISIslide	Win	True
429.323	0.25	Control	0.6522	0.0	Yes	2.877	0.023	n/a	GoodResponse	0	n/a	n/a	8	45	Cue	Neutral	True
429.574	4.1	Control	0.6522	0.0	Yes	2.877	0.001	n/a	GoodResponse	0	n/a	n/a	8	45	Fixation	Neutral	True
433.67	0.35	Control	0.6522	0.003	Yes	2.877	-0.003	3.0	GoodResponse	0	0.332	433.002	8	45	Target	Neutral	True
434.002	0.3	Control	0.6522	0.003	Yes	2.877	-0.003	3.0	GoodResponse	0	0.332	n/a	8	45	ButtonPress	Neutral	True
434.021	0.35	Control	0.6522	n/a	Yes	2.877	n/a	n/a	GoodResponse	0	n/a	n/a	8	45	Blank	Neutral	True
434.372	1.45	Control	0.6522	n/a	Yes	2.877	n/a	5.0	GoodResponse	0	0.04	433.412	8	45	Feedback	Neutral	True
435.826	2.877	Control	0.6522	n/a	Yes	2.877	n/a	n/a	GoodResponse	0	0.0	n/a	8	45	ISIslide	Neutral	True
438.718	0.25	Lose2	0.6383	0.0	No	3.382	0.018	n/a	NoResponse	-1	n/a	n/a	7	46	Cue	Loss	True
438.969	4.0	Lose2	0.6383	0.0	No	3.382	0.001	n/a	NoResponse	-1	n/a	n/a	7	46	Fixation	Loss	True
442.964	0.36	Lose2	0.6383	0.004	No	3.382	-0.004	3.0	NoResponse	-1	0.465	442.429	7	46	Target	Loss	True
443.332	0.34	Lose2	0.6383	n/a	No	3.382	n/a	n/a	NoResponse	-1	n/a	n/a	7	46	Blank	Loss	True
443.429	0.3	Lose2	0.6383	0.004	No	3.382	-0.004	3.0	NoResponse	-1	0.465	n/a	7	46	ButtonPress	Loss	True
443.666	1.45	Lose2	0.6383	n/a	No	3.382	n/a	5.0	NoResponse	-1	0.015	442.681	7	46	Feedback	Loss	True
445.121	3.382	Lose2	0.6383	n/a	No	3.382	n/a	n/a	NoResponse	-1	0.0	n/a	7	46	ISIslide	Loss	True
448.531	0.25	Lose2	0.6457999999999999	0.0	Yes	2.669	0.031	n/a	GoodResponse	0	n/a	n/a	7	47	Cue	AvoidedLoss	True
448.782	4.0	Lose2	0.6457999999999999	0.0	Yes	2.669	0.001	n/a	GoodResponse	0	n/a	n/a	7	47	Fixation	AvoidedLoss	True
452.777	0.37	Lose2	0.6457999999999999	0.004	Yes	2.669	-0.004	3.0	GoodResponse	0	0.323	452.1	7	47	Target	AvoidedLoss	True
453.1	0.3	Lose2	0.6457999999999999	0.004	Yes	2.669	-0.004	3.0	GoodResponse	0	0.323	n/a	7	47	ButtonPress	AvoidedLoss	True
453.161	0.33	Lose2	0.6457999999999999	n/a	Yes	2.669	n/a	n/a	GoodResponse	0	n/a	n/a	7	47	Blank	AvoidedLoss	True
453.479	1.45	Lose2	0.6457999999999999	n/a	Yes	2.669	n/a	5.0	GoodResponse	0	0.007	452.486	7	47	Feedback	AvoidedLoss	True
454.933	2.669	Lose2	0.6457999999999999	n/a	Yes	2.669	n/a	n/a	GoodResponse	0	0.0	n/a	7	47	ISIslide	AvoidedLoss	True
457.625	0.25	Lose2	0.6327	0.0	No	3.025	0.025	n/a	PrematurePress	-1	n/a	n/a	6	48	Cue	Loss	False
457.876	3.95	Lose2	0.6327	0.0	No	3.025	0.001	3.0	PrematurePress	-1	1.036	457.912	6	48	Fixation	Loss	False
458.912	0.3	Lose2	0.6327	0.0	No	3.025	0.001	3.0	PrematurePress	-1	1.036	n/a	6	48	ButtonPress	Loss	False
461.821	0.38	Lose2	0.6327	0.004	No	3.025	-0.004	3.0	PrematurePress	-1	0.015	460.836	6	48	Target	Loss	False
461.836	0.3	Lose2	0.6327	0.004	No	3.025	-0.004	3.0	PrematurePress	-1	0.015	n/a	6	48	ButtonPress	Loss	False
462.205	0.32	Lose2	0.6327	n/a	No	3.025	n/a	n/a	PrematurePress	-1	n/a	n/a	6	48	Blank	Loss	False
462.523	1.45	Lose2	0.6327	n/a	No	3.025	n/a	5.0	PrematurePress	-1	0.035	461.558	6	48	Feedback	Loss	False
463.977	3.025	Lose2	0.6327	n/a	No	3.025	n/a	n/a	PrematurePress	-1	0.0	n/a	6	48	ISIslide	Loss	False
467.02	0.25	Control	0.64	0.0	Yes	2.88	0.02	n/a	GoodResponse	0	n/a	n/a	6	49	Cue	Neutral	True
467.27	4.0	Control	0.64	0.0	Yes	2.88	0.0	n/a	GoodResponse	0	n/a	n/a	6	49	Fixation	Neutral	True
471.266	0.39	Control	0.64	0.004	Yes	2.88	-0.004	3.0	GoodResponse	0	0.229	470.495	6	49	Target	Neutral	True
471.495	0.3	Control	0.64	0.004	Yes	2.88	-0.004	3.0	GoodResponse	0	0.229	n/a	6	49	ButtonPress	Neutral	True
471.667	0.31	Control	0.64	n/a	Yes	2.88	n/a	n/a	GoodResponse	0	n/a	n/a	6	49	Blank	Neutral	True
471.968	1.45	Control	0.64	n/a	Yes	2.88	n/a	5.0	GoodResponse	0	0.005	470.973	6	49	Feedback	Neutral	True
473.422	2.88	Control	0.64	n/a	Yes	2.88	n/a	n/a	GoodResponse	0	0.0	n/a	6	49	ISIslide	Neutral	True
476.314	0.25	Control	0.6470999999999999	0.0	Yes	2.786	0.014	n/a	GoodResponse	0	n/a	n/a	6	50	Cue	Neutral	True
476.565	4.0	Control	0.6470999999999999	0.0	Yes	2.786	0.001	n/a	GoodResponse	0	n/a	n/a	6	50	Fixation	Neutral	True
480.56	0.4	Control	0.6470999999999999	0.004	Yes	2.786	-0.004	3.0	GoodResponse	0	0.282	479.842	6	50	Target	Neutral	True
480.842	0.3	Control	0.6470999999999999	0.004	Yes	2.786	-0.004	3.0	GoodResponse	0	0.282	n/a	6	50	ButtonPress	Neutral	True
480.961	0.3	Control	0.6470999999999999	n/a	Yes	2.786	n/a	n/a	GoodResponse	0	n/a	n/a	6	50	Blank	Neutral	True
481.262	1.45	Control	0.6470999999999999	n/a	Yes	2.786	n/a	5.0	GoodResponse	0	0.028	480.29	6	50	Feedback	Neutral	True
482.717	2.786	Control	0.6470999999999999	n/a	Yes	2.786	n/a	n/a	GoodResponse	0	0.0	n/a	6	50	ISIslide	Neutral	True
485.525	0.25	Control	0.6537999999999999	0.0	Yes	2.725	0.025	n/a	GoodResponse	0	n/a	n/a	6	51	Cue	Neutral	True
485.776	3.95	Control	0.6537999999999999	0.0	Yes	2.725	0.001	n/a	GoodResponse	0	n/a	n/a	6	51	Fixation	Neutral	True
489.721	0.41	Control	0.6537999999999999	0.004	Yes	2.725	-0.004	3.0	GoodResponse	0	0.326	489.047	6	51	Target	Neutral	True
490.047	0.3	Control	0.6537999999999999	0.004	Yes	2.725	-0.004	3.0	GoodResponse	0	0.326	n/a	6	51	ButtonPress	Neutral	True
490.139	0.29	Control	0.6537999999999999	n/a	Yes	2.725	n/a	n/a	GoodResponse	0	n/a	n/a	6	51	Blank	Neutral	True
490.423	1.45	Control	0.6537999999999999	n/a	Yes	2.725	n/a	5.0	GoodResponse	0	0.038	489.461	6	51	Feedback	Neutral	True
491.877	2.725	Control	0.6537999999999999	n/a	Yes	2.725	n/a	n/a	GoodResponse	0	0.0	n/a	6	51	ISIslide	Neutral	True
494.619	0.25	Control	0.6604000000000001	0.0	Yes	2.631	0.019	n/a	GoodResponse	0	n/a	n/a	6	52	Cue	Neutral	True
494.87	4.05	Control	0.6604000000000001	0.0	Yes	2.631	0.001	n/a	GoodResponse	0	n/a	n/a	6	52	Fixation	Neutral	True
498.915	0.42	Control	0.6604000000000001	0.004	Yes	2.631	-0.004	3.0	GoodResponse	0	0.22	498.135	6	52	Target	Neutral	True
499.135	0.3	Control	0.6604000000000001	0.004	Yes	2.631	-0.004	3.0	GoodResponse	0	0.22	n/a	6	52	ButtonPress	Neutral	True
499.35	0.28	Control	0.6604000000000001	n/a	Yes	2.631	n/a	n/a	GoodResponse	0	n/a	n/a	6	52	Blank	Neutral	True
499.617	1.45	Control	0.6604000000000001	n/a	Yes	2.631	n/a	5.0	GoodResponse	0	0.015	498.632	6	52	Feedback	Neutral	True
501.072	2.631	Control	0.6604000000000001	n/a	Yes	2.631	n/a	n/a	GoodResponse	0	0.0	n/a	6	52	ISIslide	Neutral	True
503.73	0.25	Win2	0.6667000000000001	0.0	Yes	2.92	0.03	n/a	GoodResponse	1	n/a	n/a	7	53	Cue	Win	False
503.98	4.05	Win2	0.6667000000000001	0.0	Yes	2.92	0.0	3.0	GoodResponse	1	0.292	503.272	7	53	Fixation	Win	False
504.272	0.3	Win2	0.6667000000000001	0.0	Yes	2.92	0.0	3.0	GoodResponse	1	0.292	n/a	7	53	ButtonPress	Win	False
508.026	0.42	Win2	0.6667000000000001	0.004	Yes	2.92	-0.004	3.0	GoodResponse	1	0.199	507.225	7	53	Target	Win	False
508.225	0.3	Win2	0.6667000000000001	0.004	Yes	2.92	-0.004	3.0	GoodResponse	1	0.199	n/a	7	53	ButtonPress	Win	False
508.46	0.28	Win2	0.6667000000000001	n/a	Yes	2.92	n/a	n/a	GoodResponse	1	n/a	n/a	7	53	Blank	Win	False
508.728	1.45	Win2	0.6667000000000001	n/a	Yes	2.92	n/a	5.0	GoodResponse	1	0.026	507.754	7	53	Feedback	Win	False
510.182	2.92	Win2	0.6667000000000001	n/a	Yes	2.92	n/a	n/a	GoodResponse	1	0.0	n/a	7	53	ISIslide	Win	False
513.124	0.25	Win2	0.6727	0.001	Yes	2.726	0.024	n/a	GoodResponse	1	n/a	n/a	8	54	Cue	Win	True
513.375	3.95	Win2	0.6727	0.0	Yes	2.726	0.001	n/a	GoodResponse	1	n/a	n/a	8	54	Fixation	Win	True
517.32	0.41	Win2	0.6727	0.004	Yes	2.726	-0.004	3.0	GoodResponse	1	0.245	516.565	8	54	Target	Win	True
517.565	0.3	Win2	0.6727	0.004	Yes	2.726	-0.004	3.0	GoodResponse	1	0.245	n/a	8	54	ButtonPress	Win	True
517.738	0.29	Win2	0.6727	n/a	Yes	2.726	n/a	n/a	GoodResponse	1	n/a	n/a	8	54	Blank	Win	True
518.022	1.45	Win2	0.6727	n/a	Yes	2.726	n/a	5.0	GoodResponse	1	0.048	517.07	8	54	Feedback	Win	True
519.477	2.726	Win2	0.6727	n/a	Yes	2.726	n/a	n/a	GoodResponse	1	0.0	n/a	8	54	ISIslide	Win	True
522.218	0.25	Control	0.6786	0.0	Yes	3.032	0.018	n/a	GoodResponse	0	n/a	n/a	8	55	Cue	Neutral	True
522.469	3.95	Control	0.6786	0.0	Yes	3.032	0.001	n/a	GoodResponse	0	n/a	n/a	8	55	Fixation	Neutral	True
526.414	0.4	Control	0.6786	0.004	Yes	3.032	-0.004	3.0	GoodResponse	0	0.218	525.632	8	55	Target	Neutral	True
526.632	0.3	Control	0.6786	0.004	Yes	3.032	-0.004	3.0	GoodResponse	0	0.218	n/a	8	55	ButtonPress	Neutral	True
526.815	0.3	Control	0.6786	n/a	Yes	3.032	n/a	n/a	GoodResponse	0	n/a	n/a	8	55	Blank	Neutral	True
527.116	1.45	Control	0.6786	n/a	Yes	3.032	n/a	5.0	GoodResponse	0	0.027	526.143	8	55	Feedback	Neutral	True
528.571	3.032	Control	0.6786	n/a	Yes	3.032	n/a	n/a	GoodResponse	0	0.0	n/a	8	55	ISIslide	Neutral	True
531.613	0.25	Control	0.6667000000000001	0.0	No	2.837	0.013	n/a	NoResponse	0	n/a	n/a	8	56	Cue	Neutral	True
531.864	3.95	Control	0.6667000000000001	0.0	No	2.837	0.001	n/a	NoResponse	0	n/a	n/a	8	56	Fixation	Neutral	True
535.809	0.39	Control	0.6667000000000001	0.004	No	2.837	-0.004	3.0	NoResponse	0	0.429	535.238	8	56	Target	Neutral	True
536.21	0.31	Control	0.6667000000000001	n/a	No	2.837	n/a	n/a	NoResponse	0	n/a	n/a	8	56	Blank	Neutral	True
536.238	0.3	Control	0.6667000000000001	0.004	No	2.837	-0.004	3.0	NoResponse	0	0.429	n/a	8	56	ButtonPress	Neutral	True
536.511	1.45	Control	0.6667000000000001	n/a	No	2.837	n/a	5.0	NoResponse	0	0.047	535.558	8	56	Feedback	Neutral	True
537.966	2.837	Control	0.6667000000000001	n/a	No	2.837	n/a	n/a	NoResponse	0	0.0	n/a	8	56	ISIslide	Neutral	True
540.824	0.25	Control	0.6724	0.0	Yes	3.476	0.024	n/a	GoodResponse	0	n/a	n/a	8	57	Cue	Neutral	False
541.075	4.0	Control	0.6724	0.0	Yes	3.476	0.001	3.0	GoodResponse	0	3.814	543.889	8	57	Fixation	Neutral	False
544.889	0.3	Control	0.6724	0.0	Yes	3.476	0.001	3.0	GoodResponse	0	3.814	n/a	8	57	ButtonPress	Neutral	False
545.07	0.38	Control	0.6724	0.004	Yes	3.476	-0.004	3.0	GoodResponse	0	0.244	544.314	8	57	Target	Neutral	False
545.314	0.3	Control	0.6724	0.004	Yes	3.476	-0.004	3.0	GoodResponse	0	0.244	n/a	8	57	ButtonPress	Neutral	False
545.455	0.32	Control	0.6724	n/a	Yes	3.476	n/a	n/a	GoodResponse	0	n/a	n/a	8	57	Blank	Neutral	False
545.772	1.45	Control	0.6724	n/a	Yes	3.476	n/a	5.0	GoodResponse	0	0.006	544.778	8	57	Feedback	Neutral	False
547.227	3.476	Control	0.6724	n/a	Yes	3.476	n/a	n/a	GoodResponse	0	0.0	n/a	8	57	ISIslide	Neutral	False
550.72	0.25	Win2	0.6779999999999999	0.0	Yes	2.73	0.02	n/a	GoodResponse	1	n/a	n/a	9	58	Cue	Win	False
550.971	4.05	Win2	0.6779999999999999	0.0	Yes	2.73	0.001	3.0	GoodResponse	1	0.414	550.385	9	58	Fixation	Win	False
551.385	0.3	Win2	0.6779999999999999	0.0	Yes	2.73	0.001	3.0	GoodResponse	1	0.414	n/a	9	58	ButtonPress	Win	False
555.017	0.37	Win2	0.6779999999999999	0.003	Yes	2.73	-0.003	3.0	GoodResponse	1	0.21	554.227	9	58	Target	Win	False
555.227	0.3	Win2	0.6779999999999999	0.003	Yes	2.73	-0.003	3.0	GoodResponse	1	0.21	n/a	9	58	ButtonPress	Win	False
555.401	0.33	Win2	0.6779999999999999	n/a	Yes	2.73	n/a	n/a	GoodResponse	1	n/a	n/a	9	58	Blank	Win	False
555.719	1.45	Win2	0.6779999999999999	n/a	Yes	2.73	n/a	5.0	GoodResponse	1	0.01	554.729	9	58	Feedback	Win	False
557.173	2.73	Win2	0.6779999999999999	n/a	Yes	2.73	n/a	n/a	GoodResponse	1	0.0	n/a	9	58	ISIslide	Win	False
559.915	0.25	Lose2	0.6833	0.0	Yes	2.685	0.015	n/a	GoodResponse	0	n/a	n/a	9	59	Cue	AvoidedLoss	True
560.165	4.0	Lose2	0.6833	0.0	Yes	2.685	0.0	n/a	GoodResponse	0	n/a	n/a	9	59	Fixation	AvoidedLoss	True
564.161	0.36	Lose2	0.6833	0.004	Yes	2.685	-0.004	3.0	GoodResponse	0	0.191	563.352	9	59	Target	AvoidedLoss	True
564.352	0.3	Lose2	0.6833	0.004	Yes	2.685	-0.004	3.0	GoodResponse	0	0.191	n/a	9	59	ButtonPress	AvoidedLoss	True
564.528	0.34	Lose2	0.6833	n/a	Yes	2.685	n/a	n/a	GoodResponse	0	n/a	n/a	9	59	Blank	AvoidedLoss	True
564.863	1.45	Lose2	0.6833	n/a	Yes	2.685	n/a	5.0	GoodResponse	0	0.037	563.9	9	59	Feedback	AvoidedLoss	True
566.317	2.685	Lose2	0.6833	n/a	Yes	2.685	n/a	n/a	GoodResponse	0	0.0	n/a	9	59	ISIslide	AvoidedLoss	True
569.025	0.25	Control	0.6884999999999999	0.0	Yes	2.675	0.025	n/a	GoodResponse	0	n/a	n/a	9	60	Cue	Neutral	True
569.276	4.0	Control	0.6884999999999999	0.0	Yes	2.675	0.001	n/a	GoodResponse	0	n/a	n/a	9	60	Fixation	Neutral	True
573.271	0.35	Control	0.6884999999999999	0.004	Yes	2.675	-0.004	3.0	GoodResponse	0	0.272	572.543	9	60	Target	Neutral	True
573.543	0.3	Control	0.6884999999999999	0.004	Yes	2.675	-0.004	3.0	GoodResponse	0	0.272	n/a	9	60	ButtonPress	Neutral	True
573.622	0.35	Control	0.6884999999999999	n/a	Yes	2.675	n/a	n/a	GoodResponse	0	n/a	n/a	9	60	Blank	Neutral	True
573.973	1.45	Control	0.6884999999999999	n/a	Yes	2.675	n/a	5.0	GoodResponse	0	0.049	573.022	9	60	Feedback	Neutral	True
575.428	2.675	Control	0.6884999999999999	n/a	Yes	2.675	n/a	n/a	GoodResponse	0	0.0	n/a	9	60	ISIslide	Neutral	True
578.119	0.25	Lose2	0.6934999999999999	0.0	Yes	2.981	0.019	n/a	GoodResponse	0	n/a	n/a	9	61	Cue	AvoidedLoss	True
578.37	4.0	Lose2	0.6934999999999999	0.0	Yes	2.981	0.001	n/a	GoodResponse	0	n/a	n/a	9	61	Fixation	AvoidedLoss	True
582.365	0.34	Lose2	0.6934999999999999	0.004	Yes	2.981	-0.004	3.0	GoodResponse	0	0.173	581.538	9	61	Target	AvoidedLoss	True
582.538	0.3	Lose2	0.6934999999999999	0.004	Yes	2.981	-0.004	3.0	GoodResponse	0	0.173	n/a	9	61	ButtonPress	AvoidedLoss	True
582.716	0.36	Lose2	0.6934999999999999	n/a	Yes	2.981	n/a	n/a	GoodResponse	0	n/a	n/a	9	61	Blank	AvoidedLoss	True
583.067	1.45	Lose2	0.6934999999999999	n/a	Yes	2.981	n/a	5.0	GoodResponse	0	0.027	582.094	9	61	Feedback	AvoidedLoss	True
584.522	2.981	Lose2	0.6934999999999999	n/a	Yes	2.981	n/a	n/a	GoodResponse	0	0.0	n/a	9	61	ISIslide	AvoidedLoss	True
587.514	0.25	Lose2	0.6984	0.0	Yes	2.886	0.014	n/a	GoodResponse	0	n/a	n/a	9	62	Cue	AvoidedLoss	True
587.765	3.9	Lose2	0.6984	0.0	Yes	2.886	0.001	n/a	GoodResponse	0	n/a	n/a	9	62	Fixation	AvoidedLoss	True
591.66	0.33	Lose2	0.6984	0.004	Yes	2.886	-0.004	3.0	GoodResponse	0	0.223	590.883	9	62	Target	AvoidedLoss	True
591.883	0.3	Lose2	0.6984	0.004	Yes	2.886	-0.004	3.0	GoodResponse	0	0.223	n/a	9	62	ButtonPress	AvoidedLoss	True
591.994	0.37	Lose2	0.6984	n/a	Yes	2.886	n/a	n/a	GoodResponse	0	n/a	n/a	9	62	Blank	AvoidedLoss	True
592.362	1.45	Lose2	0.6984	n/a	Yes	2.886	n/a	5.0	GoodResponse	0	0.0	591.362	9	62	Feedback	AvoidedLoss	True
593.816	2.886	Lose2	0.6984	n/a	Yes	2.886	n/a	n/a	GoodResponse	0	0.0	n/a	9	62	ISIslide	AvoidedLoss	True
596.725	0.25	Lose2	0.7031000000000001	0.0	Yes	2.625	0.025	n/a	GoodResponse	0	n/a	n/a	9	63	Cue	AvoidedLoss	True
596.976	4.05	Lose2	0.7031000000000001	0.0	Yes	2.625	0.001	n/a	GoodResponse	0	n/a	n/a	9	63	Fixation	AvoidedLoss	True
601.021	0.32	Lose2	0.7031000000000001	0.004	Yes	2.625	-0.004	3.0	GoodResponse	0	0.201	600.222	9	63	Target	AvoidedLoss	True
601.222	0.3	Lose2	0.7031000000000001	0.004	Yes	2.625	-0.004	3.0	GoodResponse	0	0.201	n/a	9	63	ButtonPress	AvoidedLoss	True
601.355	0.38	Lose2	0.7031000000000001	n/a	Yes	2.625	n/a	n/a	GoodResponse	0	n/a	n/a	9	63	Blank	AvoidedLoss	True
601.723	1.45	Lose2	0.7031000000000001	n/a	Yes	2.625	n/a	5.0	GoodResponse	0	0.005	600.728	9	63	Feedback	AvoidedLoss	True
603.178	2.625	Lose2	0.7031000000000001	n/a	Yes	2.625	n/a	n/a	GoodResponse	0	0.0	n/a	9	63	ISIslide	AvoidedLoss	True
605.819	0.25	Win2	0.7077	0.0	Yes	3.131	0.019	n/a	GoodResponse	1	n/a	n/a	10	64	Cue	Win	True
606.07	4.15	Win2	0.7077	0.0	Yes	3.131	0.001	n/a	GoodResponse	1	n/a	n/a	10	64	Fixation	Win	True
610.215	0.31	Win2	0.7077	0.004	Yes	3.131	-0.004	3.0	GoodResponse	1	0.231	609.446	10	64	Target	Win	True
610.446	0.3	Win2	0.7077	0.004	Yes	3.131	-0.004	3.0	GoodResponse	1	0.231	n/a	10	64	ButtonPress	Win	True
610.533	0.39	Win2	0.7077	n/a	Yes	3.131	n/a	n/a	GoodResponse	1	n/a	n/a	10	64	Blank	Win	True
610.917	1.45	Win2	0.7077	n/a	Yes	3.131	n/a	5.0	GoodResponse	1	0.031	609.948	10	64	Feedback	Win	True
612.372	3.131	Win2	0.7077	n/a	Yes	3.131	n/a	n/a	GoodResponse	1	0.0	n/a	10	64	ISIslide	Win	True
615.515	0.25	Control	0.7121	0.0	Yes	2.785	0.015	n/a	GoodResponse	0	n/a	n/a	10	65	Cue	Neutral	True
615.765	4.0	Control	0.7121	0.0	Yes	2.785	0.0	n/a	GoodResponse	0	n/a	n/a	10	65	Fixation	Neutral	True
619.761	0.3	Control	0.7121	0.004	Yes	2.785	-0.004	3.0	GoodResponse	0	0.179	618.94	10	65	Target	Neutral	True
619.94	0.3	Control	0.7121	0.004	Yes	2.785	-0.004	3.0	GoodResponse	0	0.179	n/a	10	65	ButtonPress	Neutral	True
620.062	0.4	Control	0.7121	n/a	Yes	2.785	n/a	n/a	GoodResponse	0	n/a	n/a	10	65	Blank	Neutral	True
620.463	1.45	Control	0.7121	n/a	Yes	2.785	n/a	5.0	GoodResponse	0	0.046	619.509	10	65	Feedback	Neutral	True
621.917	2.785	Control	0.7121	n/a	Yes	2.785	n/a	n/a	GoodResponse	0	0.0	n/a	10	65	ISIslide	Neutral	True
624.726	0.25	Win2	0.7164	0.0	Yes	2.774	0.026	n/a	GoodResponse	1	n/a	n/a	11	66	Cue	Win	False
624.976	3.9	Win2	0.7164	0.0	Yes	2.774	0.0	3.0	GoodResponse	1	0.463	624.439	11	66	Fixation	Win	False
625.439	0.3	Win2	0.7164	0.0	Yes	2.774	0.0	3.0	GoodResponse	1	0.463	n/a	11	66	ButtonPress	Win	False
628.888	0.29	Win2	0.7164	0.0	Yes	2.774	0.012	3.0	GoodResponse	1	0.207	628.095	11	66	Target	Win	False
629.095	0.3	Win2	0.7164	0.0	Yes	2.774	0.012	3.0	GoodResponse	1	0.207	n/a	11	66	ButtonPress	Win	False
629.172	0.41	Win2	0.7164	n/a	Yes	2.774	n/a	n/a	GoodResponse	1	n/a	n/a	11	66	Blank	Win	False
629.573	1.45	Win2	0.7164	n/a	Yes	2.774	n/a	5.0	GoodResponse	1	0.009	628.582	11	66	Feedback	Win	False
631.028	2.774	Win2	0.7164	n/a	Yes	2.774	n/a	n/a	GoodResponse	1	0.0	n/a	11	66	ISIslide	Win	False
633.819	0.25	Control	0.7059000000000001	0.0	No	2.731	0.019	n/a	NoResponse	0	n/a	n/a	11	67	Cue	Neutral	True
634.07	3.95	Control	0.7059000000000001	0.0	No	2.731	0.001	n/a	NoResponse	0	n/a	n/a	11	67	Fixation	Neutral	True
638.015	0.28	Control	0.7059000000000001	0.004	No	2.731	-0.004	3.0	NoResponse	0	0.365	637.38	11	67	Target	Neutral	True
638.3	0.42	Control	0.7059000000000001	n/a	No	2.731	n/a	n/a	NoResponse	0	n/a	n/a	11	67	Blank	Neutral	True
638.38	0.3	Control	0.7059000000000001	0.004	No	2.731	-0.004	3.0	NoResponse	0	0.365	n/a	11	67	ButtonPress	Neutral	True
638.717	1.45	Control	0.7059000000000001	n/a	No	2.731	n/a	5.0	NoResponse	0	0.035	637.752	11	67	Feedback	Neutral	True
640.172	2.731	Control	0.7059000000000001	n/a	No	2.731	n/a	n/a	NoResponse	0	0.0	n/a	11	67	ISIslide	Neutral	True
642.913	0.25	Win2	0.6957	0.0	No	3.087	0.013	n/a	NoResponse	0	n/a	n/a	11	68	Cue	MissedWin	False
643.164	4.0	Win2	0.6957	0.0	No	3.087	0.001	3.0	NoResponse	0	0.364	642.528	11	68	Fixation	MissedWin	False
643.528	0.3	Win2	0.6957	0.0	No	3.087	0.001	3.0	NoResponse	0	0.364	n/a	11	68	ButtonPress	MissedWin	False
647.159	0.27	Win2	0.6957	0.004	No	3.087	-0.004	3.0	NoResponse	0	0.344	646.503	11	68	Target	MissedWin	False
647.444	0.43	Win2	0.6957	n/a	No	3.087	n/a	n/a	NoResponse	0	n/a	n/a	11	68	Blank	MissedWin	False
647.503	0.3	Win2	0.6957	0.004	No	3.087	-0.004	3.0	NoResponse	0	0.344	n/a	11	68	ButtonPress	MissedWin	False
647.861	1.45	Win2	0.6957	n/a	No	3.087	n/a	5.0	NoResponse	0	0.013	646.874	11	68	Feedback	MissedWin	False
649.316	3.087	Win2	0.6957	n/a	No	3.087	n/a	n/a	NoResponse	0	0.0	n/a	11	68	ISIslide	MissedWin	False
652.425	0.25	Win2	0.7	0.0	Yes	3.225	0.025	n/a	GoodResponse	1	n/a	n/a	12	69	Cue	Win	True
652.676	3.95	Win2	0.7	0.0	Yes	3.225	0.001	n/a	GoodResponse	1	n/a	n/a	12	69	Fixation	Win	True
656.621	0.26	Win2	0.7	0.004	Yes	3.225	-0.004	3.0	GoodResponse	1	0.164	655.785	12	69	Target	Win	True
656.785	0.3	Win2	0.7	0.004	Yes	3.225	-0.004	3.0	GoodResponse	1	0.164	n/a	12	69	ButtonPress	Win	True
656.889	0.44	Win2	0.7	n/a	Yes	3.225	n/a	n/a	GoodResponse	1	n/a	n/a	12	69	Blank	Win	True
657.323	1.45	Win2	0.7	n/a	Yes	3.225	n/a	5.0	GoodResponse	1	0.015	656.338	12	69	Feedback	Win	True
658.778	3.225	Win2	0.7	n/a	Yes	3.225	n/a	n/a	GoodResponse	1	0.0	n/a	12	69	ISIslide	Win	True
662.021	0.25	Lose2	0.7042	0.0	Yes	3.029	0.021	n/a	GoodResponse	0	n/a	n/a	12	70	Cue	AvoidedLoss	True
662.271	4.05	Lose2	0.7042	0.0	Yes	3.029	0.0	n/a	GoodResponse	0	n/a	n/a	12	70	Fixation	AvoidedLoss	True
666.317	0.25	Lose2	0.7042	0.004	Yes	3.029	-0.004	3.0	GoodResponse	0	0.188	665.505	12	70	Target	AvoidedLoss	True
666.505	0.3	Lose2	0.7042	0.004	Yes	3.029	-0.004	3.0	GoodResponse	0	0.188	n/a	12	70	ButtonPress	AvoidedLoss	True
666.568	0.45	Lose2	0.7042	n/a	Yes	3.029	n/a	n/a	GoodResponse	0	n/a	n/a	12	70	Blank	AvoidedLoss	True
667.019	1.45	Lose2	0.7042	n/a	Yes	3.029	n/a	5.0	GoodResponse	0	0.026	666.045	12	70	Feedback	AvoidedLoss	True
668.473	3.029	Lose2	0.7042	n/a	Yes	3.029	n/a	n/a	GoodResponse	0	0.0	n/a	12	70	ISIslide	AvoidedLoss	True
671.516	0.25	Win2	0.6944	0.0	No	2.734	0.016	n/a	NoResponse	0	n/a	n/a	12	71	Cue	MissedWin	True
671.766	4.05	Win2	0.6944	0.001	No	2.734	0.0	n/a	NoResponse	0	n/a	n/a	12	71	Fixation	MissedWin	True
675.812	0.24	Win2	0.6944	0.004	No	2.734	-0.004	3.0	NoResponse	0	0.272	675.084	12	71	Target	MissedWin	True
676.063	0.46	Win2	0.6944	n/a	No	2.734	n/a	n/a	NoResponse	0	n/a	n/a	12	71	Blank	MissedWin	True
676.084	0.3	Win2	0.6944	0.004	No	2.734	-0.004	3.0	NoResponse	0	0.272	n/a	12	71	ButtonPress	MissedWin	True
676.514	1.45	Win2	0.6944	n/a	No	2.734	n/a	5.0	NoResponse	0	0.044	675.558	12	71	Feedback	MissedWin	True
677.968	2.734	Win2	0.6944	n/a	No	2.734	n/a	n/a	NoResponse	0	0.0	n/a	12	71	ISIslide	MissedWin	True
680.727	0.25	Win2	0.6849	0.0	No	2.773	0.027	n/a	LatePress	0	n/a	n/a	12	72	Cue	MissedWin	True
680.977	4.1	Win2	0.6849	0.0	No	2.773	0.0	n/a	LatePress	0	n/a	n/a	12	72	Fixation	MissedWin	True
685.073	0.23	Win2	0.6849	0.004	No	2.773	-0.004	3.0	LatePress	0	0.231	684.304	12	72	Target	MissedWin	True
685.304	0.3	Win2	0.6849	0.004	No	2.773	-0.004	3.0	LatePress	0	0.231	n/a	12	72	ButtonPress	MissedWin	True
685.307	0.47	Win2	0.6849	n/a	No	2.773	n/a	n/a	LatePress	0	n/a	n/a	12	72	Blank	MissedWin	True
685.775	1.45	Win2	0.6849	n/a	No	2.773	n/a	5.0	LatePress	0	0.002	684.777	12	72	Feedback	MissedWin	True
687.229	2.773	Win2	0.6849	n/a	No	2.773	n/a	n/a	LatePress	0	0.0	n/a	12	72	ISIslide	MissedWin	True
690.021	0.25	Win2	0.6757	0.0	No	2.679	0.021	n/a	NoResponse	0	n/a	n/a	12	73	Cue	MissedWin	True
690.272	4.0	Win2	0.6757	0.0	No	2.679	0.001	n/a	NoResponse	0	n/a	n/a	12	73	Fixation	MissedWin	True
694.267	0.22	Win2	0.6757	0.004	No	2.679	-0.004	3.0	NoResponse	0	0.32	693.587	12	73	Target	MissedWin	True
694.501	0.48	Win2	0.6757	n/a	No	2.679	n/a	n/a	NoResponse	0	n/a	n/a	12	73	Blank	MissedWin	True
694.587	0.3	Win2	0.6757	0.004	No	2.679	-0.004	3.0	NoResponse	0	0.32	n/a	12	73	ButtonPress	MissedWin	True
694.969	1.45	Win2	0.6757	n/a	No	2.679	n/a	5.0	NoResponse	0	0.028	693.997	12	73	Feedback	MissedWin	True
696.424	2.679	Win2	0.6757	n/a	No	2.679	n/a	n/a	NoResponse	0	0.0	n/a	12	73	ISIslide	MissedWin	True
699.115	0.25	Lose2	0.68	0.0	Yes	2.635	0.015	n/a	GoodResponse	0	n/a	n/a	12	74	Cue	AvoidedLoss	False
699.366	4.05	Lose2	0.68	0.0	Yes	2.635	0.001	3.0	GoodResponse	0	0.149	698.515	12	74	Fixation	AvoidedLoss	False
699.515	0.3	Lose2	0.68	0.0	Yes	2.635	0.001	3.0	GoodResponse	0	0.149	n/a	12	74	ButtonPress	AvoidedLoss	False
703.411	0.21	Lose2	0.68	0.004	Yes	2.635	-0.004	3.0	GoodResponse	0	0.183	702.594	12	74	Target	AvoidedLoss	False
703.594	0.3	Lose2	0.68	0.004	Yes	2.635	-0.004	3.0	GoodResponse	0	0.183	n/a	12	74	ButtonPress	AvoidedLoss	False
703.629	0.49	Lose2	0.68	n/a	Yes	2.635	n/a	n/a	GoodResponse	0	n/a	n/a	12	74	Blank	AvoidedLoss	False
704.113	1.45	Lose2	0.68	n/a	Yes	2.635	n/a	5.0	GoodResponse	0	0.005	703.118	12	74	Feedback	AvoidedLoss	False
705.568	2.635	Lose2	0.68	n/a	Yes	2.635	n/a	n/a	GoodResponse	0	0.0	n/a	12	74	ISIslide	AvoidedLoss	False
708.226	0.25	Lose2	0.6842	0.0	Yes	2.924	0.026	n/a	GoodResponse	0	n/a	n/a	12	75	Cue	AvoidedLoss	True
708.476	3.95	Lose2	0.6842	0.001	Yes	2.924	0.0	n/a	GoodResponse	0	n/a	n/a	12	75	Fixation	AvoidedLoss	True
712.422	0.2	Lose2	0.6842	0.004	Yes	2.924	-0.004	3.0	GoodResponse	0	0.169	711.591	12	75	Target	AvoidedLoss	True
712.591	0.3	Lose2	0.6842	0.004	Yes	2.924	-0.004	3.0	GoodResponse	0	0.169	n/a	12	75	ButtonPress	AvoidedLoss	True
712.622	0.5	Lose2	0.6842	n/a	Yes	2.924	n/a	n/a	GoodResponse	0	n/a	n/a	12	75	Blank	AvoidedLoss	True
713.124	1.45	Lose2	0.6842	n/a	Yes	2.924	n/a	5.0	GoodResponse	0	0.018	712.142	12	75	Feedback	AvoidedLoss	True
714.578	2.924	Lose2	0.6842	n/a	Yes	2.924	n/a	n/a	GoodResponse	0	0.0	n/a	12	75	ISIslide	AvoidedLoss	True
717.52	0.25	Control	0.6753	0.0	No	3.23	0.02	n/a	NoResponse	0	n/a	n/a	12	76	Cue	Neutral	True
717.771	4.05	Control	0.6753	0.0	No	3.23	0.001	n/a	NoResponse	0	n/a	n/a	12	76	Fixation	Neutral	True
721.816	0.19	Control	0.6753	0.004	No	3.23	-0.004	3.0	NoResponse	0	0.262	721.078	12	76	Target	Neutral	True
722.017	0.51	Control	0.6753	n/a	No	3.23	n/a	n/a	NoResponse	0	n/a	n/a	12	76	Blank	Neutral	True
722.078	0.3	Control	0.6753	0.004	No	3.23	-0.004	3.0	NoResponse	0	0.262	n/a	12	76	ButtonPress	Neutral	True
722.519	1.45	Control	0.6753	n/a	No	3.23	n/a	5.0	NoResponse	0	0.038	721.557	12	76	Feedback	Neutral	True
723.973	3.23	Control	0.6753	n/a	No	3.23	n/a	n/a	NoResponse	0	0.0	n/a	12	76	ISIslide	Neutral	True
727.216	0.25	Lose2	0.6667000000000001	0.0	No	2.584	0.016	n/a	NoResponse	-1	n/a	n/a	11	77	Cue	Loss	True
727.467	3.95	Lose2	0.6667000000000001	0.0	No	2.584	0.001	3.0	NoResponse	-1	3.894	730.361	11	77	Fixation	Loss	True
731.361	0.3	Lose2	0.6667000000000001	0.0	No	2.584	0.001	3.0	NoResponse	-1	3.894	n/a	11	77	ButtonPress	Loss	True
731.412	0.18	Lose2	0.6667000000000001	0.004	No	2.584	-0.004	n/a	NoResponse	-1	n/a	n/a	11	77	Target	Loss	True
731.596	0.52	Lose2	0.6667000000000001	n/a	No	2.584	n/a	n/a	NoResponse	-1	n/a	n/a	11	77	Blank	Loss	True
732.114	1.45	Lose2	0.6667000000000001	n/a	No	2.584	n/a	5.0	NoResponse	-1	0.004	731.118	11	77	Feedback	Loss	True
733.568	2.584	Lose2	0.6667000000000001	n/a	No	2.584	n/a	n/a	NoResponse	-1	0.0	n/a	11	77	ISIslide	Loss	True
