onset	duration	cue_type	current_mean_accuracy	duration_error	is_hit	isi_adjusted	onset_delay	response	response_type	reward	rt	rt_time	total_reward	trial_number	trial_phase	trial_type	one_press
11.109	0.25	Control	0.0	0.0	No	2.941	0.009	n/a	NoResponse	0	n/a	n/a	0	0	Cue	Neutral	False
11.36	3.85	Control	0.0	0.0	No	2.941	0.001	n/a	NoResponse	0	n/a	n/a	0	0	Fixation	Neutral	False
15.205	0.4	Control	0.0	0.004	No	2.941	-0.004	n/a	NoResponse	0	n/a	n/a	0	0	Target	Neutral	False
15.606	0.3	Control	0.0	n/a	No	2.941	n/a	n/a	NoResponse	0	n/a	n/a	0	0	Blank	Neutral	False
15.907	1.45	Control	0.0	n/a	No	2.941	n/a	5.0	NoResponse	0	0.019	14.926	0	0	Feedback	Neutral	False
17.361	2.941	Control	0.0	n/a	No	2.941	n/a	n/a	NoResponse	0	0.0	n/a	0	0	ISIslide	Neutral	False
20.32	0.25	Lose2	0.0	0.0	No	2.78	0.02	n/a	NoResponse	-1	n/a	n/a	-1	1	Cue	Loss	False
20.571	4.0	Lose2	0.0	0.0	No	2.78	0.001	n/a	NoResponse	-1	n/a	n/a	-1	1	Fixation	Loss	False
24.566	0.41	Lose2	0.0	0.004	No	2.78	-0.004	n/a	NoResponse	-1	n/a	n/a	-1	1	Target	Loss	False
24.984	0.29	Lose2	0.0	n/a	No	2.78	n/a	n/a	NoResponse	-1	n/a	n/a	-1	1	Blank	Loss	False
25.268	1.45	Lose2	0.0	n/a	No	2.78	n/a	5.0	NoResponse	-1	0.023	24.291	-1	1	Feedback	Loss	False
26.723	2.78	Lose2	0.0	n/a	No	2.78	n/a	n/a	NoResponse	-1	0.0	n/a	-1	1	ISIslide	Loss	False
29.515	0.25	Control	0.0	0.0	No	2.585	0.015	n/a	NoResponse	0	n/a	n/a	-1	2	Cue	Neutral	False
29.765	4.1	Control	0.0	0.0	No	2.585	0.0	n/a	NoResponse	0	n/a	n/a	-1	2	Fixation	Neutral	False
33.861	0.42	Control	0.0	0.004	No	2.585	-0.004	n/a	NoResponse	0	n/a	n/a	-1	2	Target	Neutral	False
34.296	0.28	Control	0.0	n/a	No	2.585	n/a	n/a	NoResponse	0	n/a	n/a	-1	2	Blank	Neutral	False
34.563	1.45	Control	0.0	n/a	No	2.585	n/a	5.0	NoResponse	0	0.046	33.609	-1	2	Feedback	Neutral	False
36.017	2.585	Control	0.0	n/a	No	2.585	n/a	n/a	NoResponse	0	0.0	n/a	-1	2	ISIslide	Neutral	False
38.625	0.25	Win2	0.0	0.0	No	2.825	0.025	n/a	NoResponse	0	n/a	n/a	-1	3	Cue	MissedWin	False
38.876	3.95	Win2	0.0	0.0	No	2.825	0.001	n/a	NoResponse	0	n/a	n/a	-1	3	Fixation	MissedWin	False
42.821	0.43	Win2	0.0	0.004	No	2.825	-0.004	n/a	NoResponse	0	n/a	n/a	-1	3	Target	MissedWin	False
43.256	0.27	Win2	0.0	n/a	No	2.825	n/a	n/a	NoResponse	0	n/a	n/a	-1	3	Blank	MissedWin	False
43.523	1.45	Win2	0.0	n/a	No	2.825	n/a	5.0	NoResponse	0	0.012	42.535	-1	3	Feedback	MissedWin	False
44.978	2.825	Win2	0.0	n/a	No	2.825	n/a	n/a	NoResponse	0	0.0	n/a	-1	3	ISIslide	MissedWin	False
47.819	0.25	Win2	0.0	0.0	No	3.281	0.019	n/a	NoResponse	0	n/a	n/a	-1	4	Cue	MissedWin	False
48.07	4.0	Win2	0.0	0.0	No	3.281	0.001	n/a	NoResponse	0	n/a	n/a	-1	4	Fixation	MissedWin	False
52.066	0.44	Win2	0.0	0.003	No	3.281	-0.003	n/a	NoResponse	0	n/a	n/a	-1	4	Target	MissedWin	False
52.517	0.26	Win2	0.0	n/a	No	3.281	n/a	n/a	NoResponse	0	n/a	n/a	-1	4	Blank	MissedWin	False
52.768	1.45	Win2	0.0	n/a	No	3.281	n/a	5.0	NoResponse	0	0.036	51.804	-1	4	Feedback	MissedWin	False
54.222	3.281	Win2	0.0	n/a	No	3.281	n/a	n/a	NoResponse	0	0.0	n/a	-1	4	ISIslide	MissedWin	False
57.515	0.25	Win2	0.0	0.0	No	2.785	0.015	n/a	NoResponse	0	n/a	n/a	-1	5	Cue	MissedWin	False
57.766	4.0	Win2	0.0	0.0	No	2.785	0.001	n/a	NoResponse	0	n/a	n/a	-1	5	Fixation	MissedWin	False
61.761	0.45	Win2	0.0	0.004	No	2.785	-0.004	n/a	NoResponse	0	n/a	n/a	-1	5	Target	MissedWin	False
62.213	0.25	Win2	0.0	n/a	No	2.785	n/a	n/a	NoResponse	0	n/a	n/a	-1	5	Blank	MissedWin	False
62.463	1.45	Win2	0.0	n/a	No	2.785	n/a	5.0	NoResponse	0	0.048	61.511	-1	5	Feedback	MissedWin	False
63.918	2.785	Win2	0.0	n/a	No	2.785	n/a	n/a	NoResponse	0	0.0	n/a	-1	5	ISIslide	MissedWin	False
66.726	0.25	Lose2	0.0	0.0	No	2.724	0.026	n/a	NoResponse	-1	n/a	n/a	-2	6	Cue	Loss	False
66.977	3.95	Lose2	0.0	0.0	No	2.724	0.001	n/a	NoResponse	-1	n/a	n/a	-2	6	Fixation	Loss	False
70.922	0.46	Lose2	0.0	0.004	No	2.724	-0.004	n/a	NoResponse	-1	n/a	n/a	-2	6	Target	Loss	False
71.39	0.24	Lose2	0.0	n/a	No	2.724	n/a	n/a	NoResponse	-1	n/a	n/a	-2	6	Blank	Loss	False
71.624	1.45	Lose2	0.0	n/a	No	2.724	n/a	5.0	NoResponse	-1	0.009	70.633	-2	6	Feedback	Loss	False
73.079	2.724	Lose2	0.0	n/a	No	2.724	n/a	n/a	NoResponse	-1	0.0	n/a	-2	6	ISIslide	Loss	False
75.82	0.25	Lose2	0.0	0.0	No	4.03	0.02	n/a	NoResponse	-1	n/a	n/a	-3	7	Cue	Loss	False
76.071	4.05	Lose2	0.0	0.0	No	4.03	0.001	n/a	NoResponse	-1	n/a	n/a	-3	7	Fixation	Loss	False
80.116	0.47	Lose2	0.0	0.004	No	4.03	-0.004	n/a	NoResponse	-1	n/a	n/a	-3	7	Target	Loss	False
80.601	0.23	Lose2	0.0	n/a	No	4.03	n/a	n/a	NoResponse	-1	n/a	n/a	-3	7	Blank	Loss	False
80.818	1.45	Lose2	0.0	n/a	No	4.03	n/a	5.0	NoResponse	-1	0.035	79.853	-3	7	Feedback	Loss	False
82.273	4.03	Lose2	0.0	n/a	No	4.03	n/a	n/a	NoResponse	-1	0.0	n/a	-3	7	ISIslide	Loss	False
86.318	0.25	Lose2	0.0	0.0	No	3.032	0.018	n/a	NoResponse	-1	n/a	n/a	-4	8	Cue	Loss	False
86.569	3.95	Lose2	0.0	0.0	No	3.032	0.001	n/a	NoResponse	-1	n/a	n/a	-4	8	Fixation	Loss	False
90.514	0.48	Lose2	0.0	0.004	No	3.032	-0.004	n/a	NoResponse	-1	n/a	n/a	-4	8	Target	Loss	False
90.999	0.22	Lose2	0.0	n/a	No	3.032	n/a	n/a	NoResponse	-1	n/a	n/a	-4	8	Blank	Loss	False
91.216	1.45	Lose2	0.0	n/a	No	3.032	n/a	5.0	NoResponse	-1	0.027	90.243	-4	8	Feedback	Loss	False
92.671	3.032	Lose2	0.0	n/a	No	3.032	n/a	n/a	NoResponse	-1	0.0	n/a	-4	8	ISIslide	Loss	False
95.73	0.25	Lose2	0.0	0.0	No	3.12	0.03	n/a	NoResponse	-1	n/a	n/a	-5	9	Cue	Loss	False
95.981	3.95	Lose2	0.0	0.0	No	3.12	0.001	n/a	NoResponse	-1	n/a	n/a	-5	9	Fixation	Loss	False
99.926	0.49	Lose2	0.0	0.004	No	3.12	-0.004	n/a	NoResponse	-1	n/a	n/a	-5	9	Target	Loss	False
100.427	0.21	Lose2	0.0	n/a	No	3.12	n/a	n/a	NoResponse	-1	n/a	n/a	-5	9	Blank	Loss	False
100.628	1.45	Lose2	0.0	n/a	No	3.12	n/a	5.0	NoResponse	-1	0.029	99.657	-5	9	Feedback	Loss	False
102.082	3.12	Lose2	0.0	n/a	No	3.12	n/a	n/a	NoResponse	-1	0.0	n/a	-5	9	ISIslide	Loss	False
105.225	0.25	Control	0.0	0.0	No	3.275	0.025	n/a	NoResponse	0	n/a	n/a	-5	10	Cue	Neutral	False
105.476	4.0	Control	0.0	0.0	No	3.275	0.001	n/a	NoResponse	0	n/a	n/a	-5	10	Fixation	Neutral	False
109.471	0.5	Control	0.0	0.004	No	3.275	-0.004	n/a	NoResponse	0	n/a	n/a	-5	10	Target	Neutral	False
109.973	0.2	Control	0.0	n/a	No	3.275	n/a	n/a	NoResponse	0	n/a	n/a	-5	10	Blank	Neutral	False
110.173	1.45	Control	0.0	n/a	No	3.275	n/a	5.0	NoResponse	0	0.045	109.218	-5	10	Feedback	Neutral	False
111.628	3.275	Control	0.0	n/a	No	3.275	n/a	n/a	NoResponse	0	0.0	n/a	-5	10	ISIslide	Neutral	False
114.921	0.25	Lose2	0.0	0.0	No	2.729	0.021	n/a	NoResponse	-1	n/a	n/a	-6	11	Cue	Loss	False
115.171	4.05	Lose2	0.0	0.001	No	2.729	0.0	n/a	NoResponse	-1	n/a	n/a	-6	11	Fixation	Loss	False
119.217	0.5	Lose2	0.0	0.004	No	2.729	-0.004	n/a	NoResponse	-1	n/a	n/a	-6	11	Target	Loss	False
119.718	0.2	Lose2	0.0	n/a	No	2.729	n/a	n/a	NoResponse	-1	n/a	n/a	-6	11	Blank	Loss	False
119.919	1.45	Lose2	0.0	n/a	No	2.729	n/a	5.0	NoResponse	-1	0.007	118.926	-6	11	Feedback	Loss	False
121.373	2.729	Lose2	0.0	n/a	No	2.729	n/a	n/a	NoResponse	-1	0.0	n/a	-6	11	ISIslide	Loss	False
124.115	0.25	Control	0.0	0.0	No	2.985	0.015	n/a	NoResponse	0	n/a	n/a	-6	12	Cue	Neutral	False
124.366	3.9	Control	0.0	0.0	No	2.985	0.001	n/a	NoResponse	0	n/a	n/a	-6	12	Fixation	Neutral	False
128.261	0.5	Control	0.0	0.004	No	2.985	-0.004	n/a	NoResponse	0	n/a	n/a	-6	12	Target	Neutral	False
128.762	0.2	Control	0.0	n/a	No	2.985	n/a	n/a	NoResponse	0	n/a	n/a	-6	12	Blank	Neutral	False
128.963	1.45	Control	0.0	n/a	No	2.985	n/a	5.0	NoResponse	0	0.036	127.999	-6	12	Feedback	Neutral	False
130.417	2.985	Control	0.0	n/a	No	2.985	n/a	n/a	NoResponse	0	0.0	n/a	-6	12	ISIslide	Neutral	False
133.426	0.25	Control	0.0	0.0	No	2.774	0.026	n/a	NoResponse	0	n/a	n/a	-6	13	Cue	Neutral	False
133.677	4.0	Control	0.0	0.0	No	2.774	0.001	n/a	NoResponse	0	n/a	n/a	-6	13	Fixation	Neutral	False
137.672	0.5	Control	0.0	0.004	No	2.774	-0.004	n/a	NoResponse	0	n/a	n/a	-6	13	Target	Neutral	False
138.174	0.2	Control	0.0	n/a	No	2.774	n/a	n/a	NoResponse	0	n/a	n/a	-6	13	Blank	Neutral	False
138.374	1.45	Control	0.0	n/a	No	2.774	n/a	5.0	NoResponse	0	0.04	137.414	-6	13	Feedback	Neutral	False
139.829	2.774	Control	0.0	n/a	No	2.774	n/a	n/a	NoResponse	0	0.0	n/a	-6	13	ISIslide	Neutral	False
142.62	0.25	Win2	0.0	0.001	No	2.68	0.02	n/a	NoResponse	0	n/a	n/a	-6	14	Cue	MissedWin	False
142.871	4.1	Win2	0.0	0.0	No	2.68	0.001	n/a	NoResponse	0	n/a	n/a	-6	14	Fixation	MissedWin	False
146.967	0.5	Win2	0.0	0.003	No	2.68	-0.003	n/a	NoResponse	0	n/a	n/a	-6	14	Target	MissedWin	False
147.468	0.2	Win2	0.0	n/a	No	2.68	n/a	n/a	NoResponse	0	n/a	n/a	-6	14	Blank	MissedWin	False
147.669	1.45	Win2	0.0	n/a	No	2.68	n/a	5.0	NoResponse	0	0.013	146.682	-6	14	Feedback	MissedWin	False
149.123	2.68	Win2	0.0	n/a	No	2.68	n/a	n/a	NoResponse	0	0.0	n/a	-6	14	ISIslide	MissedWin	False
151.815	0.25	Control	0.0	0.0	No	2.985	0.015	n/a	NoResponse	0	n/a	n/a	-6	15	Cue	Neutral	False
152.065	4.0	Control	0.0	0.001	No	2.985	0.0	n/a	NoResponse	0	n/a	n/a	-6	15	Fixation	Neutral	False
156.061	0.5	Control	0.0	0.004	No	2.985	-0.004	n/a	NoResponse	0	n/a	n/a	-6	15	Target	Neutral	False
156.562	0.2	Control	0.0	n/a	No	2.985	n/a	n/a	NoResponse	0	n/a	n/a	-6	15	Blank	Neutral	False
156.763	1.45	Control	0.0	n/a	No	2.985	n/a	5.0	NoResponse	0	0.041	155.804	-6	15	Feedback	Neutral	False
158.217	2.985	Control	0.0	n/a	No	2.985	n/a	n/a	NoResponse	0	0.0	n/a	-6	15	ISIslide	Neutral	False
161.226	0.25	Win2	0.0	0.0	No	2.874	0.026	n/a	NoResponse	0	n/a	n/a	-6	16	Cue	MissedWin	False
161.477	4.0	Win2	0.0	0.0	No	2.874	0.001	n/a	NoResponse	0	n/a	n/a	-6	16	Fixation	MissedWin	False
165.472	0.5	Win2	0.0	0.004	No	2.874	-0.004	n/a	NoResponse	0	n/a	n/a	-6	16	Target	MissedWin	False
165.974	0.2	Win2	0.0	n/a	No	2.874	n/a	n/a	NoResponse	0	n/a	n/a	-6	16	Blank	MissedWin	False
166.174	1.45	Win2	0.0	n/a	No	2.874	n/a	5.0	NoResponse	0	0.045	165.219	-6	16	Feedback	MissedWin	False
167.629	2.874	Win2	0.0	n/a	No	2.874	n/a	n/a	NoResponse	0	0.0	n/a	-6	16	ISIslide	MissedWin	False
170.521	0.25	Lose2	0.0	0.0	No	2.729	0.021	n/a	NoResponse	-1	n/a	n/a	-7	17	Cue	Loss	False
170.772	3.95	Lose2	0.0	0.0	No	2.729	0.001	n/a	NoResponse	-1	n/a	n/a	-7	17	Fixation	Loss	False
174.717	0.5	Lose2	0.0	0.004	No	2.729	-0.004	n/a	NoResponse	-1	n/a	n/a	-7	17	Target	Loss	False
175.218	0.2	Lose2	0.0	n/a	No	2.729	n/a	n/a	NoResponse	-1	n/a	n/a	-7	17	Blank	Loss	False
175.419	1.45	Lose2	0.0	n/a	No	2.729	n/a	5.0	NoResponse	-1	0.018	174.437	-7	17	Feedback	Loss	False
176.873	2.729	Lose2	0.0	n/a	No	2.729	n/a	n/a	NoResponse	-1	0.0	n/a	-7	17	ISIslide	Loss	False
179.615	0.25	Lose2	0.0	0.0	No	2.735	0.015	n/a	NoResponse	-1	n/a	n/a	-8	18	Cue	Loss	False
179.866	4.05	Lose2	0.0	0.0	No	2.735	0.001	n/a	NoResponse	-1	n/a	n/a	-8	18	Fixation	Loss	False
183.911	0.5	Lose2	0.0	0.004	No	2.735	-0.004	n/a	NoResponse	-1	n/a	n/a	-8	18	Target	Loss	False
184.413	0.2	Lose2	0.0	n/a	No	2.735	n/a	n/a	NoResponse	-1	n/a	n/a	-8	18	Blank	Loss	False
184.613	1.45	Lose2	0.0	n/a	No	2.735	n/a	5.0	NoResponse	-1	0.044	183.657	-8	18	Feedback	Loss	False
186.067	2.735	Lose2	0.0	n/a	No	2.735	n/a	n/a	NoResponse	-1	0.0	n/a	-8	18	ISIslide	Loss	False
188.826	0.25	Control	0.0	0.0	No	2.924	0.026	n/a	NoResponse	0	n/a	n/a	-8	19	Cue	Neutral	False
189.077	3.95	Control	0.0	0.0	No	2.924	0.001	n/a	NoResponse	0	n/a	n/a	-8	19	Fixation	Neutral	False
193.022	0.5	Control	0.0	0.004	No	2.924	-0.004	n/a	NoResponse	0	n/a	n/a	-8	19	Target	Neutral	False
193.523	0.2	Control	0.0	n/a	No	2.924	n/a	n/a	NoResponse	0	n/a	n/a	-8	19	Blank	Neutral	False
193.724	1.45	Control	0.0	n/a	No	2.924	n/a	5.0	NoResponse	0	0.007	192.731	-8	19	Feedback	Neutral	False
195.178	2.924	Control	0.0	n/a	No	2.924	n/a	n/a	NoResponse	0	0.0	n/a	-8	19	ISIslide	Neutral	False
198.12	0.25	Control	0.0	0.0	No	2.63	0.02	n/a	NoResponse	0	n/a	n/a	-8	20	Cue	Neutral	False
198.371	4.05	Control	0.0	0.0	No	2.63	0.001	n/a	NoResponse	0	n/a	n/a	-8	20	Fixation	Neutral	False
202.417	0.5	Control	0.0	0.003	No	2.63	-0.003	n/a	NoResponse	0	n/a	n/a	-8	20	Target	Neutral	False
202.918	0.2	Control	0.0	n/a	No	2.63	n/a	n/a	NoResponse	0	n/a	n/a	-8	20	Blank	Neutral	False
203.119	1.45	Control	0.0	n/a	No	2.63	n/a	5.0	NoResponse	0	0.026	202.145	-8	20	Feedback	Neutral	False
204.573	2.63	Control	0.0	n/a	No	2.63	n/a	n/a	NoResponse	0	0.0	n/a	-8	20	ISIslide	Neutral	False
207.231	0.25	Control	0.0	0.0	No	2.769	0.031	n/a	NoResponse	0	n/a	n/a	-8	21	Cue	Neutral	False
207.482	4.1	Control	0.0	0.0	No	2.769	0.001	n/a	NoResponse	0	n/a	n/a	-8	21	Fixation	Neutral	False
211.577	0.5	Control	0.0	0.004	No	2.769	-0.004	n/a	NoResponse	0	n/a	n/a	-8	21	Target	Neutral	False
212.079	0.2	Control	0.0	n/a	No	2.769	n/a	n/a	NoResponse	0	n/a	n/a	-8	21	Blank	Neutral	False
212.279	1.45	Control	0.0	n/a	No	2.769	n/a	5.0	NoResponse	0	0.037	211.316	-8	21	Feedback	Neutral	False
213.734	2.769	Control	0.0	n/a	No	2.769	n/a	n/a	NoResponse	0	0.0	n/a	-8	21	ISIslide	Neutral	False
216.526	0.25	Control	0.0	0.0	No	2.774	0.026	n/a	NoResponse	0	n/a	n/a	-8	22	Cue	Neutral	False
216.776	4.0	Control	0.0	0.0	No	2.774	0.0	n/a	NoResponse	0	n/a	n/a	-8	22	Fixation	Neutral	False
220.772	0.5	Control	0.0	0.004	No	2.774	-0.004	n/a	NoResponse	0	n/a	n/a	-8	22	Target	Neutral	False
221.273	0.2	Control	0.0	n/a	No	2.774	n/a	n/a	NoResponse	0	n/a	n/a	-8	22	Blank	Neutral	False
221.474	1.45	Control	0.0	n/a	No	2.774	n/a	5.0	NoResponse	0	0.013	220.487	-8	22	Feedback	Neutral	False
222.928	2.774	Control	0.0	n/a	No	2.774	n/a	n/a	NoResponse	0	0.0	n/a	-8	22	ISIslide	Neutral	False
225.72	0.25	Control	0.0	0.0	No	2.78	0.02	n/a	NoResponse	0	n/a	n/a	-8	23	Cue	Neutral	False
225.971	3.9	Control	0.0	0.0	No	2.78	0.001	n/a	NoResponse	0	n/a	n/a	-8	23	Fixation	Neutral	False
229.866	0.5	Control	0.0	0.004	No	2.78	-0.004	n/a	NoResponse	0	n/a	n/a	-8	23	Target	Neutral	False
230.367	0.2	Control	0.0	n/a	No	2.78	n/a	n/a	NoResponse	0	n/a	n/a	-8	23	Blank	Neutral	False
230.568	1.45	Control	0.0	n/a	No	2.78	n/a	5.0	NoResponse	0	0.041	229.609	-8	23	Feedback	Neutral	False
232.022	2.78	Control	0.0	n/a	No	2.78	n/a	n/a	NoResponse	0	0.0	n/a	-8	23	ISIslide	Neutral	False
234.83	0.25	Win2	0.0	0.001	No	3.12	0.03	n/a	NoResponse	0	n/a	n/a	-8	24	Cue	MissedWin	False
235.081	3.95	Win2	0.0	0.0	No	3.12	0.001	n/a	NoResponse	0	n/a	n/a	-8	24	Fixation	MissedWin	False
239.026	0.5	Win2	0.0	0.004	No	3.12	-0.004	n/a	NoResponse	0	n/a	n/a	-8	24	Target	MissedWin	False
239.528	0.2	Win2	0.0	n/a	No	3.12	n/a	n/a	NoResponse	0	n/a	n/a	-8	24	Blank	MissedWin	False
239.728	1.45	Win2	0.0	n/a	No	3.12	n/a	5.0	NoResponse	0	0.007	238.735	-8	24	Feedback	MissedWin	False
241.183	3.12	Win2	0.0	n/a	No	3.12	n/a	n/a	NoResponse	0	0.0	n/a	-8	24	ISIslide	MissedWin	False
244.326	0.25	Win2	0.0	0.0	No	3.074	0.026	n/a	NoResponse	0	n/a	n/a	-8	25	Cue	MissedWin	False
244.576	4.0	Win2	0.0	0.0	No	3.074	0.0	n/a	NoResponse	0	n/a	n/a	-8	25	Fixation	MissedWin	False
248.572	0.5	Win2	0.0	0.004	No	3.074	-0.004	n/a	NoResponse	0	n/a	n/a	-8	25	Target	MissedWin	False
249.073	0.2	Win2	0.0	n/a	No	3.074	n/a	n/a	NoResponse	0	n/a	n/a	-8	25	Blank	MissedWin	False
249.274	1.45	Win2	0.0	n/a	No	3.074	n/a	5.0	NoResponse	0	0.017	248.291	-8	25	Feedback	MissedWin	False
250.728	3.074	Win2	0.0	n/a	No	3.074	n/a	n/a	NoResponse	0	0.0	n/a	-8	25	ISIslide	MissedWin	False
253.821	0.25	Win2	0.0	0.0	No	2.929	0.021	n/a	NoResponse	0	n/a	n/a	-8	26	Cue	MissedWin	False
254.071	3.95	Win2	0.0	0.001	No	2.929	0.0	n/a	NoResponse	0	n/a	n/a	-8	26	Fixation	MissedWin	False
258.017	0.5	Win2	0.0	0.004	No	2.929	-0.004	n/a	NoResponse	0	n/a	n/a	-8	26	Target	MissedWin	False
258.518	0.2	Win2	0.0	n/a	No	2.929	n/a	n/a	NoResponse	0	n/a	n/a	-8	26	Blank	MissedWin	False
258.719	1.45	Win2	0.0	n/a	No	2.929	n/a	5.0	NoResponse	0	0.035	257.754	-8	26	Feedback	MissedWin	False
260.173	2.929	Win2	0.0	n/a	No	2.929	n/a	n/a	NoResponse	0	0.0	n/a	-8	26	ISIslide	MissedWin	False
263.115	0.25	Lose2	0.035699999999999996	0.0	Yes	2.835	0.015	n/a	GoodResponse	0	n/a	n/a	-8	27	Cue	AvoidedLoss	True
263.366	4.05	Lose2	0.035699999999999996	0.0	Yes	2.835	0.001	n/a	GoodResponse	0	n/a	n/a	-8	27	Fixation	AvoidedLoss	True
267.411	0.5	Lose2	0.035699999999999996	0.004	Yes	2.835	-0.004	3.0	GoodResponse	0	0.206	266.617	-8	27	Target	AvoidedLoss	True
267.617	0.3	Lose2	0.035699999999999996	0.004	Yes	2.835	-0.004	3.0	GoodResponse	0	0.206	n/a	-8	27	ButtonPress	AvoidedLoss	True
267.913	0.2	Lose2	0.035699999999999996	n/a	Yes	2.835	n/a	n/a	GoodResponse	0	n/a	n/a	-8	27	Blank	AvoidedLoss	True
268.114	1.45	Lose2	0.035699999999999996	n/a	Yes	2.835	n/a	5.0	GoodResponse	0	0.006	267.12	-8	27	Feedback	AvoidedLoss	True
269.568	2.835	Lose2	0.035699999999999996	n/a	Yes	2.835	n/a	n/a	GoodResponse	0	0.0	n/a	-8	27	ISIslide	AvoidedLoss	True
272.427	0.25	Control	0.069	0.0	Yes	2.823	0.027	n/a	GoodResponse	0	n/a	n/a	-8	28	Cue	Neutral	True
272.677	4.05	Control	0.069	0.0	Yes	2.823	0.0	n/a	GoodResponse	0	n/a	n/a	-8	28	Fixation	Neutral	True
276.723	0.5	Control	0.069	0.004	Yes	2.823	-0.004	3.0	GoodResponse	0	0.189	275.912	-8	28	Target	Neutral	True
276.912	0.3	Control	0.069	0.004	Yes	2.823	-0.004	3.0	GoodResponse	0	0.189	n/a	-8	28	ButtonPress	Neutral	True
277.224	0.2	Control	0.069	n/a	Yes	2.823	n/a	n/a	GoodResponse	0	n/a	n/a	-8	28	Blank	Neutral	True
277.425	1.45	Control	0.069	n/a	Yes	2.823	n/a	5.0	GoodResponse	0	0.013	276.438	-8	28	Feedback	Neutral	True
278.879	2.823	Control	0.069	n/a	Yes	2.823	n/a	n/a	GoodResponse	0	0.0	n/a	-8	28	ISIslide	Neutral	True
281.721	0.25	Lose2	0.1	0.0	Yes	2.829	0.021	n/a	GoodResponse	0	n/a	n/a	-8	29	Cue	AvoidedLoss	True
281.972	3.95	Lose2	0.1	0.0	Yes	2.829	0.001	n/a	GoodResponse	0	n/a	n/a	-8	29	Fixation	AvoidedLoss	True
285.917	0.5	Lose2	0.1	0.004	Yes	2.829	-0.004	3.0	GoodResponse	0	0.206	285.123	-8	29	Target	AvoidedLoss	True
286.123	0.3	Lose2	0.1	0.004	Yes	2.829	-0.004	3.0	GoodResponse	0	0.206	n/a	-8	29	ButtonPress	AvoidedLoss	True
286.419	0.2	Lose2	0.1	n/a	Yes	2.829	n/a	n/a	GoodResponse	0	n/a	n/a	-8	29	Blank	AvoidedLoss	True
286.619	1.45	Lose2	0.1	n/a	Yes	2.829	n/a	5.0	GoodResponse	0	0.038	285.657	-8	29	Feedback	AvoidedLoss	True
288.073	2.829	Lose2	0.1	n/a	Yes	2.829	n/a	n/a	GoodResponse	0	0.0	n/a	-8	29	ISIslide	AvoidedLoss	True
290.915	0.25	Win2	0.129	0.0	Yes	2.785	0.015	n/a	GoodResponse	1	n/a	n/a	-7	30	Cue	Win	True
291.166	3.9	Win2	0.129	0.0	Yes	2.785	0.001	n/a	GoodResponse	1	n/a	n/a	-7	30	Fixation	Win	True
295.061	0.5	Win2	0.129	0.004	Yes	2.785	-0.004	3.0	GoodResponse	1	0.188	294.249	-7	30	Target	Win	True
295.249	0.3	Win2	0.129	0.004	Yes	2.785	-0.004	3.0	GoodResponse	1	0.188	n/a	-7	30	ButtonPress	Win	True
295.563	0.2	Win2	0.129	n/a	Yes	2.785	n/a	n/a	GoodResponse	1	n/a	n/a	-7	30	Blank	Win	True
295.763	1.45	Win2	0.129	n/a	Yes	2.785	n/a	5.0	GoodResponse	1	0.016	294.779	-7	30	Feedback	Win	True
297.218	2.785	Win2	0.129	n/a	Yes	2.785	n/a	n/a	GoodResponse	1	0.0	n/a	-7	30	ISIslide	Win	True
300.026	0.25	Lose2	0.1562	0.0	Yes	2.824	0.026	n/a	GoodResponse	0	n/a	n/a	-7	31	Cue	AvoidedLoss	True
300.277	4.05	Lose2	0.1562	0.0	Yes	2.824	0.001	n/a	GoodResponse	0	n/a	n/a	-7	31	Fixation	AvoidedLoss	True
304.322	0.5	Lose2	0.1562	0.004	Yes	2.824	-0.004	3.0	GoodResponse	0	0.196	303.518	-7	31	Target	AvoidedLoss	True
304.518	0.3	Lose2	0.1562	0.004	Yes	2.824	-0.004	3.0	GoodResponse	0	0.196	n/a	-7	31	ButtonPress	AvoidedLoss	True
304.824	0.2	Lose2	0.1562	n/a	Yes	2.824	n/a	n/a	GoodResponse	0	n/a	n/a	-7	31	Blank	AvoidedLoss	True
305.024	1.45	Lose2	0.1562	n/a	Yes	2.824	n/a	5.0	GoodResponse	0	0.024	304.048	-7	31	Feedback	AvoidedLoss	True
306.479	2.824	Lose2	0.1562	n/a	Yes	2.824	n/a	n/a	GoodResponse	0	0.0	n/a	-7	31	ISIslide	AvoidedLoss	True
309.321	0.25	Lose2	0.1818	0.0	Yes	2.629	0.021	n/a	GoodResponse	0	n/a	n/a	-7	32	Cue	AvoidedLoss	True
309.571	4.15	Lose2	0.1818	0.0	Yes	2.629	0.0	n/a	GoodResponse	0	n/a	n/a	-7	32	Fixation	AvoidedLoss	True
313.717	0.5	Lose2	0.1818	0.004	Yes	2.629	-0.004	3.0	GoodResponse	0	0.256	312.973	-7	32	Target	AvoidedLoss	True
313.973	0.3	Lose2	0.1818	0.004	Yes	2.629	-0.004	3.0	GoodResponse	0	0.256	n/a	-7	32	ButtonPress	AvoidedLoss	True
314.219	0.2	Lose2	0.1818	n/a	Yes	2.629	n/a	n/a	GoodResponse	0	n/a	n/a	-7	32	Blank	AvoidedLoss	True
314.419	1.45	Lose2	0.1818	n/a	Yes	2.629	n/a	5.0	GoodResponse	0	0.043	313.462	-7	32	Feedback	AvoidedLoss	True
315.874	2.629	Lose2	0.1818	n/a	Yes	2.629	n/a	n/a	GoodResponse	0	0.0	n/a	-7	32	ISIslide	AvoidedLoss	True
318.515	0.25	Win2	0.2059	0.0	Yes	2.685	0.015	n/a	GoodResponse	1	n/a	n/a	-6	33	Cue	Win	True
318.766	4.0	Win2	0.2059	0.0	Yes	2.685	0.001	n/a	GoodResponse	1	n/a	n/a	-6	33	Fixation	Win	True
322.761	0.5	Win2	0.2059	0.004	Yes	2.685	-0.004	3.0	GoodResponse	1	0.211	321.972	-6	33	Target	Win	True
322.972	0.3	Win2	0.2059	0.004	Yes	2.685	-0.004	3.0	GoodResponse	1	0.211	n/a	-6	33	ButtonPress	Win	True
323.262	0.2	Win2	0.2059	n/a	Yes	2.685	n/a	n/a	GoodResponse	1	n/a	n/a	-6	33	Blank	Win	True
323.463	1.45	Win2	0.2059	n/a	Yes	2.685	n/a	5.0	GoodResponse	1	0.023	322.486	-6	33	Feedback	Win	True
324.917	2.685	Win2	0.2059	n/a	Yes	2.685	n/a	n/a	GoodResponse	1	0.0	n/a	-6	33	ISIslide	Win	True
327.625	0.25	Lose2	0.2286	0.001	Yes	2.625	0.025	n/a	GoodResponse	0	n/a	n/a	-6	34	Cue	AvoidedLoss	True
327.876	4.05	Lose2	0.2286	0.0	Yes	2.625	0.001	n/a	GoodResponse	0	n/a	n/a	-6	34	Fixation	AvoidedLoss	True
331.922	0.5	Lose2	0.2286	0.003	Yes	2.625	-0.003	3.0	GoodResponse	0	0.196	331.118	-6	34	Target	AvoidedLoss	True
332.118	0.3	Lose2	0.2286	0.003	Yes	2.625	-0.003	3.0	GoodResponse	0	0.196	n/a	-6	34	ButtonPress	AvoidedLoss	True
332.423	0.2	Lose2	0.2286	n/a	Yes	2.625	n/a	n/a	GoodResponse	0	n/a	n/a	-6	34	Blank	AvoidedLoss	True
332.624	1.45	Lose2	0.2286	n/a	Yes	2.625	n/a	5.0	GoodResponse	0	0.033	331.657	-6	34	Feedback	AvoidedLoss	True
334.078	2.625	Lose2	0.2286	n/a	Yes	2.625	n/a	n/a	GoodResponse	0	0.0	n/a	-6	34	ISIslide	AvoidedLoss	True
336.719	0.25	Lose2	0.25	0.0	Yes	2.681	0.019	n/a	GoodResponse	0	n/a	n/a	-6	35	Cue	AvoidedLoss	True
336.97	4.0	Lose2	0.25	0.0	Yes	2.681	0.001	n/a	GoodResponse	0	n/a	n/a	-6	35	Fixation	AvoidedLoss	True
340.965	0.5	Lose2	0.25	0.004	Yes	2.681	-0.004	3.0	GoodResponse	0	0.204	340.169	-6	35	Target	AvoidedLoss	True
341.169	0.3	Lose2	0.25	0.004	Yes	2.681	-0.004	3.0	GoodResponse	0	0.204	n/a	-6	35	ButtonPress	AvoidedLoss	True
341.467	0.2	Lose2	0.25	n/a	Yes	2.681	n/a	n/a	GoodResponse	0	n/a	n/a	-6	35	Blank	AvoidedLoss	True
341.668	1.45	Lose2	0.25	n/a	Yes	2.681	n/a	5.0	GoodResponse	0	0.013	340.681	-6	35	Feedback	AvoidedLoss	True
343.122	2.681	Lose2	0.25	n/a	Yes	2.681	n/a	n/a	GoodResponse	0	0.0	n/a	-6	35	ISIslide	AvoidedLoss	True
345.83	0.25	Control	0.2703	0.0	Yes	2.67	0.03	n/a	GoodResponse	0	n/a	n/a	-6	36	Cue	Neutral	True
346.081	4.0	Control	0.2703	0.0	Yes	2.67	0.001	n/a	GoodResponse	0	n/a	n/a	-6	36	Fixation	Neutral	True
350.076	0.5	Control	0.2703	0.004	Yes	2.67	-0.004	3.0	GoodResponse	0	0.281	349.357	-6	36	Target	Neutral	True
350.357	0.3	Control	0.2703	0.004	Yes	2.67	-0.004	3.0	GoodResponse	0	0.281	n/a	-6	36	ButtonPress	Neutral	True
350.578	0.2	Control	0.2703	n/a	Yes	2.67	n/a	n/a	GoodResponse	0	n/a	n/a	-6	36	Blank	Neutral	True
350.778	1.45	Control	0.2703	n/a	Yes	2.67	n/a	5.0	GoodResponse	0	0.025	349.803	-6	36	Feedback	Neutral	True
352.233	2.67	Control	0.2703	n/a	Yes	2.67	n/a	n/a	GoodResponse	0	0.0	n/a	-6	36	ISIslide	Neutral	True
354.924	0.25	Win2	0.2895	0.0	Yes	2.876	0.024	n/a	GoodResponse	1	n/a	n/a	-5	37	Cue	Win	True
355.175	4.0	Win2	0.2895	0.0	Yes	2.876	0.001	n/a	GoodResponse	1	n/a	n/a	-5	37	Fixation	Win	True
359.17	0.5	Win2	0.2895	0.004	Yes	2.876	-0.004	3.0	GoodResponse	1	0.196	358.366	-5	37	Target	Win	True
359.366	0.3	Win2	0.2895	0.004	Yes	2.876	-0.004	3.0	GoodResponse	1	0.196	n/a	-5	37	ButtonPress	Win	True
359.672	0.2	Win2	0.2895	n/a	Yes	2.876	n/a	n/a	GoodResponse	1	n/a	n/a	-5	37	Blank	Win	True
359.872	1.45	Win2	0.2895	n/a	Yes	2.876	n/a	5.0	GoodResponse	1	0.007	358.879	-5	37	Feedback	Win	True
361.327	2.876	Win2	0.2895	n/a	Yes	2.876	n/a	n/a	GoodResponse	1	0.0	n/a	-5	37	ISIslide	Win	True
364.219	0.25	Lose2	0.3077	0.0	Yes	2.831	0.019	n/a	GoodResponse	0	n/a	n/a	-5	38	Cue	AvoidedLoss	True
364.469	3.95	Lose2	0.3077	0.0	Yes	2.831	0.0	n/a	GoodResponse	0	n/a	n/a	-5	38	Fixation	AvoidedLoss	True
368.431	0.5	Lose2	0.3077	0.0	Yes	2.831	0.012	3.0	GoodResponse	0	0.276	367.707	-5	38	Target	AvoidedLoss	True
368.707	0.3	Lose2	0.3077	0.0	Yes	2.831	0.012	3.0	GoodResponse	0	0.276	n/a	-5	38	ButtonPress	AvoidedLoss	True
368.916	0.2	Lose2	0.3077	n/a	Yes	2.831	n/a	n/a	GoodResponse	0	n/a	n/a	-5	38	Blank	AvoidedLoss	True
369.117	1.45	Lose2	0.3077	n/a	Yes	2.831	n/a	5.0	GoodResponse	0	0.028	368.145	-5	38	Feedback	AvoidedLoss	True
370.571	2.831	Lose2	0.3077	n/a	Yes	2.831	n/a	n/a	GoodResponse	0	0.0	n/a	-5	38	ISIslide	AvoidedLoss	True
373.43	0.25	Win2	0.325	0.0	Yes	2.97	0.03	n/a	GoodResponse	1	n/a	n/a	-4	39	Cue	Win	True
373.68	4.1	Win2	0.325	0.0	Yes	2.97	0.0	n/a	GoodResponse	1	n/a	n/a	-4	39	Fixation	Win	True
377.776	0.5	Win2	0.325	0.004	Yes	2.97	-0.004	3.0	GoodResponse	1	0.203	376.979	-4	39	Target	Win	True
377.979	0.3	Win2	0.325	0.004	Yes	2.97	-0.004	3.0	GoodResponse	1	0.203	n/a	-4	39	ButtonPress	Win	True
378.277	0.2	Win2	0.325	n/a	Yes	2.97	n/a	n/a	GoodResponse	1	n/a	n/a	-4	39	Blank	Win	True
378.478	1.45	Win2	0.325	n/a	Yes	2.97	n/a	5.0	GoodResponse	1	0.033	377.511	-4	39	Feedback	Win	True
379.932	2.97	Win2	0.325	n/a	Yes	2.97	n/a	n/a	GoodResponse	1	0.0	n/a	-4	39	ISIslide	Win	True
382.925	0.25	Win2	0.34149999999999997	0.0	Yes	2.725	0.025	n/a	GoodResponse	1	n/a	n/a	-3	40	Cue	Win	True
383.175	3.95	Win2	0.34149999999999997	0.001	Yes	2.725	0.0	n/a	GoodResponse	1	n/a	n/a	-3	40	Fixation	Win	True
387.121	0.5	Win2	0.34149999999999997	0.004	Yes	2.725	-0.004	3.0	GoodResponse	1	0.183	386.304	-3	40	Target	Win	True
387.304	0.3	Win2	0.34149999999999997	0.004	Yes	2.725	-0.004	3.0	GoodResponse	1	0.183	n/a	-3	40	ButtonPress	Win	True
387.622	0.2	Win2	0.34149999999999997	n/a	Yes	2.725	n/a	n/a	GoodResponse	1	n/a	n/a	-3	40	Blank	Win	True
387.823	1.45	Win2	0.34149999999999997	n/a	Yes	2.725	n/a	5.0	GoodResponse	1	0.007	386.83	-3	40	Feedback	Win	True
389.277	2.725	Win2	0.34149999999999997	n/a	Yes	2.725	n/a	n/a	GoodResponse	1	0.0	n/a	-3	40	ISIslide	Win	True
392.019	0.25	Win2	0.35710000000000003	0.0	Yes	2.781	0.019	n/a	GoodResponse	1	n/a	n/a	-2	41	Cue	Win	True
392.269	3.9	Win2	0.35710000000000003	0.0	Yes	2.781	0.0	n/a	GoodResponse	1	n/a	n/a	-2	41	Fixation	Win	True
396.181	0.5	Win2	0.35710000000000003	0.0	Yes	2.781	0.012	3.0	GoodResponse	1	0.208	395.389	-2	41	Target	Win	True
396.389	0.3	Win2	0.35710000000000003	0.0	Yes	2.781	0.012	3.0	GoodResponse	1	0.208	n/a	-2	41	ButtonPress	Win	True
396.666	0.2	Win2	0.35710000000000003	n/a	Yes	2.781	n/a	n/a	GoodResponse	1	n/a	n/a	-2	41	Blank	Win	True
396.867	1.45	Win2	0.35710000000000003	n/a	Yes	2.781	n/a	5.0	GoodResponse	1	0.033	395.9	-2	41	Feedback	Win	True
398.321	2.781	Win2	0.35710000000000003	n/a	Yes	2.781	n/a	n/a	GoodResponse	1	0.0	n/a	-2	41	ISIslide	Win	True
401.129	0.25	Control	0.3721	0.0	Yes	2.921	0.029	n/a	GoodResponse	0	n/a	n/a	-2	42	Cue	Neutral	True
401.38	3.85	Control	0.3721	0.0	Yes	2.921	0.001	n/a	GoodResponse	0	n/a	n/a	-2	42	Fixation	Neutral	True
405.225	0.5	Control	0.3721	0.004	Yes	2.921	-0.004	3.0	GoodResponse	0	0.295	404.52	-2	42	Target	Neutral	True
405.52	0.3	Control	0.3721	0.004	Yes	2.921	-0.004	3.0	GoodResponse	0	0.295	n/a	-2	42	ButtonPress	Neutral	True
405.726	0.2	Control	0.3721	n/a	Yes	2.921	n/a	n/a	GoodResponse	0	n/a	n/a	-2	42	Blank	Neutral	True
405.927	1.45	Control	0.3721	n/a	Yes	2.921	n/a	5.0	GoodResponse	0	0.047	404.974	-2	42	Feedback	Neutral	True
407.381	2.921	Control	0.3721	n/a	Yes	2.921	n/a	n/a	GoodResponse	0	0.0	n/a	-2	42	ISIslide	Neutral	True
410.324	0.25	Win2	0.3864	0.0	Yes	3.176	0.024	n/a	GoodResponse	1	n/a	n/a	-1	43	Cue	Win	True
410.574	4.0	Win2	0.3864	0.0	Yes	3.176	0.0	n/a	GoodResponse	1	n/a	n/a	-1	43	Fixation	Win	True
414.57	0.5	Win2	0.3864	0.004	Yes	3.176	-0.004	3.0	GoodResponse	1	0.174	413.744	-1	43	Target	Win	True
414.744	0.3	Win2	0.3864	0.004	Yes	3.176	-0.004	3.0	GoodResponse	1	0.174	n/a	-1	43	ButtonPress	Win	True
415.071	0.2	Win2	0.3864	n/a	Yes	3.176	n/a	n/a	GoodResponse	1	n/a	n/a	-1	43	Blank	Win	True
415.272	1.45	Win2	0.3864	n/a	Yes	3.176	n/a	5.0	GoodResponse	1	0.019	414.291	-1	43	Feedback	Win	True
416.726	3.176	Win2	0.3864	n/a	Yes	3.176	n/a	n/a	GoodResponse	1	0.0	n/a	-1	43	ISIslide	Win	True
419.919	0.25	Win2	0.4	0.0	Yes	2.981	0.019	n/a	GoodResponse	1	n/a	n/a	0	44	Cue	Win	True
420.17	4.0	Win2	0.4	0.0	Yes	2.981	0.001	n/a	GoodResponse	1	n/a	n/a	0	44	Fixation	Win	True
424.165	0.5	Win2	0.4	0.004	Yes	2.981	-0.004	3.0	GoodResponse	1	0.184	423.349	0	44	Target	Win	True
424.349	0.3	Win2	0.4	0.004	Yes	2.981	-0.004	3.0	GoodResponse	1	0.184	n/a	0	44	ButtonPress	Win	True
424.667	0.2	Win2	0.4	n/a	Yes	2.981	n/a	n/a	GoodResponse	1	n/a	n/a	0	44	Blank	Win	True
424.867	1.45	Win2	0.4	n/a	Yes	2.981	n/a	5.0	GoodResponse	1	0.034	423.901	0	44	Feedback	Win	True
426.322	2.981	Win2	0.4	n/a	Yes	2.981	n/a	n/a	GoodResponse	1	0.0	n/a	0	44	ISIslide	Win	True
429.331	0.25	Control	0.413	0.0	Yes	2.869	0.031	n/a	GoodResponse	0	n/a	n/a	0	45	Cue	Neutral	True
429.581	4.1	Control	0.413	0.0	Yes	2.869	0.0	n/a	GoodResponse	0	n/a	n/a	0	45	Fixation	Neutral	True
433.677	0.5	Control	0.413	0.004	Yes	2.869	-0.004	3.0	GoodResponse	0	0.198	432.875	0	45	Target	Neutral	True
433.875	0.3	Control	0.413	0.004	Yes	2.869	-0.004	3.0	GoodResponse	0	0.198	n/a	0	45	ButtonPress	Neutral	True
434.178	0.2	Control	0.413	n/a	Yes	2.869	n/a	n/a	GoodResponse	0	n/a	n/a	0	45	Blank	Neutral	True
434.379	1.45	Control	0.413	n/a	Yes	2.869	n/a	5.0	GoodResponse	0	0.034	433.413	0	45	Feedback	Neutral	True
435.833	2.869	Control	0.413	n/a	Yes	2.869	n/a	n/a	GoodResponse	0	0.0	n/a	0	45	ISIslide	Neutral	True
438.725	0.25	Lose2	0.4255	0.0	Yes	3.375	0.025	n/a	GoodResponse	0	n/a	n/a	0	46	Cue	AvoidedLoss	True
438.976	4.0	Lose2	0.4255	0.0	Yes	3.375	0.001	n/a	GoodResponse	0	n/a	n/a	0	46	Fixation	AvoidedLoss	True
442.971	0.5	Lose2	0.4255	0.004	Yes	3.375	-0.004	3.0	GoodResponse	0	0.206	442.177	0	46	Target	AvoidedLoss	True
443.177	0.3	Lose2	0.4255	0.004	Yes	3.375	-0.004	3.0	GoodResponse	0	0.206	n/a	0	46	ButtonPress	AvoidedLoss	True
443.473	0.2	Lose2	0.4255	n/a	Yes	3.375	n/a	n/a	GoodResponse	0	n/a	n/a	0	46	Blank	AvoidedLoss	True
443.674	1.45	Lose2	0.4255	n/a	Yes	3.375	n/a	5.0	GoodResponse	0	0.007	442.681	0	46	Feedback	AvoidedLoss	True
445.128	3.375	Lose2	0.4255	n/a	Yes	3.375	n/a	n/a	GoodResponse	0	0.0	n/a	0	46	ISIslide	AvoidedLoss	True
448.521	0.25	Lose2	0.4375	0.001	Yes	2.679	0.021	n/a	GoodResponse	0	n/a	n/a	0	47	Cue	AvoidedLoss	True
448.772	4.0	Lose2	0.4375	0.0	Yes	2.679	0.001	n/a	GoodResponse	0	n/a	n/a	0	47	Fixation	AvoidedLoss	True
452.768	0.5	Lose2	0.4375	0.003	Yes	2.679	-0.003	3.0	GoodResponse	0	0.189	451.957	0	47	Target	AvoidedLoss	True
452.957	0.3	Lose2	0.4375	0.003	Yes	2.679	-0.003	3.0	GoodResponse	0	0.189	n/a	0	47	ButtonPress	AvoidedLoss	True
453.269	0.2	Lose2	0.4375	n/a	Yes	2.679	n/a	n/a	GoodResponse	0	n/a	n/a	0	47	Blank	AvoidedLoss	True
453.47	1.45	Lose2	0.4375	n/a	Yes	2.679	n/a	5.0	GoodResponse	0	0.016	452.486	0	47	Feedback	AvoidedLoss	True
454.924	2.679	Lose2	0.4375	n/a	Yes	2.679	n/a	n/a	GoodResponse	0	0.0	n/a	0	47	ISIslide	AvoidedLoss	True
457.615	0.25	Lose2	0.449	0.0	Yes	3.035	0.015	n/a	GoodResponse	0	n/a	n/a	0	48	Cue	AvoidedLoss	True
457.866	3.95	Lose2	0.449	0.0	Yes	3.035	0.001	n/a	GoodResponse	0	n/a	n/a	0	48	Fixation	AvoidedLoss	True
461.811	0.5	Lose2	0.449	0.004	Yes	3.035	-0.004	3.0	GoodResponse	0	0.284	461.095	0	48	Target	AvoidedLoss	True
462.095	0.3	Lose2	0.449	0.004	Yes	3.035	-0.004	3.0	GoodResponse	0	0.284	n/a	0	48	ButtonPress	AvoidedLoss	True
462.313	0.2	Lose2	0.449	n/a	Yes	3.035	n/a	n/a	GoodResponse	0	n/a	n/a	0	48	Blank	AvoidedLoss	True
462.513	1.45	Lose2	0.449	n/a	Yes	3.035	n/a	5.0	GoodResponse	0	0.047	461.56	0	48	Feedback	AvoidedLoss	True
463.968	3.035	Lose2	0.449	n/a	Yes	3.035	n/a	n/a	GoodResponse	0	0.0	n/a	0	48	ISIslide	AvoidedLoss	True
467.027	0.25	Control	0.46	0.0	Yes	2.873	0.027	n/a	GoodResponse	0	n/a	n/a	0	49	Cue	Neutral	True
467.278	4.0	Control	0.46	0.0	Yes	2.873	0.001	n/a	GoodResponse	0	n/a	n/a	0	49	Fixation	Neutral	True
471.273	0.5	Control	0.46	0.004	Yes	2.873	-0.004	3.0	GoodResponse	0	0.213	470.486	0	49	Target	Neutral	True
471.486	0.3	Control	0.46	0.004	Yes	2.873	-0.004	3.0	GoodResponse	0	0.213	n/a	0	49	ButtonPress	Neutral	True
471.775	0.2	Control	0.46	n/a	Yes	2.873	n/a	n/a	GoodResponse	0	n/a	n/a	0	49	Blank	Neutral	True
471.975	1.45	Control	0.46	n/a	Yes	2.873	n/a	5.0	GoodResponse	0	0.047	471.022	0	49	Feedback	Neutral	True
473.43	2.873	Control	0.46	n/a	Yes	2.873	n/a	n/a	GoodResponse	0	0.0	n/a	0	49	ISIslide	Neutral	True
476.322	0.25	Control	0.4706	0.0	Yes	2.778	0.022	n/a	GoodResponse	0	n/a	n/a	0	50	Cue	Neutral	True
476.572	4.0	Control	0.4706	0.0	Yes	2.778	0.0	n/a	GoodResponse	0	n/a	n/a	0	50	Fixation	Neutral	True
480.568	0.5	Control	0.4706	0.004	Yes	2.778	-0.004	3.0	GoodResponse	0	0.224	479.792	0	50	Target	Neutral	True
480.792	0.3	Control	0.4706	0.004	Yes	2.778	-0.004	3.0	GoodResponse	0	0.224	n/a	0	50	ButtonPress	Neutral	True
481.069	0.2	Control	0.4706	n/a	Yes	2.778	n/a	n/a	GoodResponse	0	n/a	n/a	0	50	Blank	Neutral	True
481.27	1.45	Control	0.4706	n/a	Yes	2.778	n/a	5.0	GoodResponse	0	0.021	480.291	0	50	Feedback	Neutral	True
482.724	2.778	Control	0.4706	n/a	Yes	2.778	n/a	n/a	GoodResponse	0	0.0	n/a	0	50	ISIslide	Neutral	True
485.516	0.25	Control	0.4808	0.0	Yes	2.734	0.016	n/a	GoodResponse	0	n/a	n/a	0	51	Cue	Neutral	True
485.767	3.95	Control	0.4808	0.0	Yes	2.734	0.001	n/a	GoodResponse	0	n/a	n/a	0	51	Fixation	Neutral	True
489.712	0.5	Control	0.4808	0.004	Yes	2.734	-0.004	3.0	GoodResponse	0	0.289	489.001	0	51	Target	Neutral	True
490.001	0.3	Control	0.4808	0.004	Yes	2.734	-0.004	3.0	GoodResponse	0	0.289	n/a	0	51	ButtonPress	Neutral	True
490.213	0.2	Control	0.4808	n/a	Yes	2.734	n/a	n/a	GoodResponse	0	n/a	n/a	0	51	Blank	Neutral	True
490.414	1.45	Control	0.4808	n/a	Yes	2.734	n/a	5.0	GoodResponse	0	0.047	489.461	0	51	Feedback	Neutral	True
491.868	2.734	Control	0.4808	n/a	Yes	2.734	n/a	n/a	GoodResponse	0	0.0	n/a	0	51	ISIslide	Neutral	True
494.626	0.25	Control	0.49060000000000004	0.0	Yes	2.624	0.026	n/a	GoodResponse	0	n/a	n/a	0	52	Cue	Neutral	True
494.877	4.05	Control	0.49060000000000004	0.0	Yes	2.624	0.001	n/a	GoodResponse	0	n/a	n/a	0	52	Fixation	Neutral	True
498.923	0.5	Control	0.49060000000000004	0.003	Yes	2.624	-0.003	3.0	GoodResponse	0	0.199	498.122	0	52	Target	Neutral	True
499.122	0.3	Control	0.49060000000000004	0.003	Yes	2.624	-0.003	3.0	GoodResponse	0	0.199	n/a	0	52	ButtonPress	Neutral	True
499.424	0.2	Control	0.49060000000000004	n/a	Yes	2.624	n/a	n/a	GoodResponse	0	n/a	n/a	0	52	Blank	Neutral	True
499.625	1.45	Control	0.49060000000000004	n/a	Yes	2.624	n/a	5.0	GoodResponse	0	0.007	498.632	0	52	Feedback	Neutral	True
501.079	2.624	Control	0.49060000000000004	n/a	Yes	2.624	n/a	n/a	GoodResponse	0	0.0	n/a	0	52	ISIslide	Neutral	True
503.72	0.25	Win2	0.5	0.0	Yes	2.93	0.02	n/a	GoodResponse	1	n/a	n/a	1	53	Cue	Win	True
503.971	4.05	Win2	0.5	0.0	Yes	2.93	0.001	n/a	GoodResponse	1	n/a	n/a	1	53	Fixation	Win	True
508.017	0.5	Win2	0.5	0.003	Yes	2.93	-0.003	3.0	GoodResponse	1	0.199	507.216	1	53	Target	Win	True
508.216	0.3	Win2	0.5	0.003	Yes	2.93	-0.003	3.0	GoodResponse	1	0.199	n/a	1	53	ButtonPress	Win	True
508.518	0.2	Win2	0.5	n/a	Yes	2.93	n/a	n/a	GoodResponse	1	n/a	n/a	1	53	Blank	Win	True
508.719	1.45	Win2	0.5	n/a	Yes	2.93	n/a	5.0	GoodResponse	1	0.035	507.754	1	53	Feedback	Win	True
510.173	2.93	Win2	0.5	n/a	Yes	2.93	n/a	n/a	GoodResponse	1	0.0	n/a	1	53	ISIslide	Win	True
513.115	0.25	Win2	0.5091	0.0	Yes	2.735	0.015	n/a	GoodResponse	1	n/a	n/a	2	54	Cue	Win	True
513.366	3.95	Win2	0.5091	0.0	Yes	2.735	0.001	n/a	GoodResponse	1	n/a	n/a	2	54	Fixation	Win	True
517.311	0.5	Win2	0.5091	0.004	Yes	2.735	-0.004	3.0	GoodResponse	1	0.221	516.532	2	54	Target	Win	True
517.532	0.3	Win2	0.5091	0.004	Yes	2.735	-0.004	3.0	GoodResponse	1	0.221	n/a	2	54	ButtonPress	Win	True
517.813	0.2	Win2	0.5091	n/a	Yes	2.735	n/a	n/a	GoodResponse	1	n/a	n/a	2	54	Blank	Win	True
518.013	1.45	Win2	0.5091	n/a	Yes	2.735	n/a	5.0	GoodResponse	1	0.01	517.023	2	54	Feedback	Win	True
519.468	2.735	Win2	0.5091	n/a	Yes	2.735	n/a	n/a	GoodResponse	1	0.0	n/a	2	54	ISIslide	Win	True
522.226	0.25	Control	0.5179	0.0	Yes	3.024	0.026	n/a	GoodResponse	0	n/a	n/a	2	55	Cue	Neutral	True
522.477	3.95	Control	0.5179	0.0	Yes	3.024	0.001	n/a	GoodResponse	0	n/a	n/a	2	55	Fixation	Neutral	True
526.422	0.5	Control	0.5179	0.004	Yes	3.024	-0.004	3.0	GoodResponse	0	0.283	525.705	2	55	Target	Neutral	True
526.705	0.3	Control	0.5179	0.004	Yes	3.024	-0.004	3.0	GoodResponse	0	0.283	n/a	2	55	ButtonPress	Neutral	True
526.923	0.2	Control	0.5179	n/a	Yes	3.024	n/a	n/a	GoodResponse	0	n/a	n/a	2	55	Blank	Neutral	True
527.124	1.45	Control	0.5179	n/a	Yes	3.024	n/a	5.0	GoodResponse	0	0.021	526.145	2	55	Feedback	Neutral	True
528.578	3.024	Control	0.5179	n/a	Yes	3.024	n/a	n/a	GoodResponse	0	0.0	n/a	2	55	ISIslide	Neutral	True
531.621	0.25	Control	0.5263	0.0	Yes	2.829	0.021	n/a	GoodResponse	0	n/a	n/a	2	56	Cue	Neutral	True
531.871	3.95	Control	0.5263	0.001	Yes	2.829	0.0	n/a	GoodResponse	0	n/a	n/a	2	56	Fixation	Neutral	True
535.817	0.5	Control	0.5263	0.004	Yes	2.829	-0.004	3.0	GoodResponse	0	0.183	535.0	2	56	Target	Neutral	True
536	0.3	Control	0.5263	0.004	Yes	2.829	-0.004	3.0	GoodResponse	0	0.183	n/a	2	56	ButtonPress	Neutral	True
536.318	0.2	Control	0.5263	n/a	Yes	2.829	n/a	n/a	GoodResponse	0	n/a	n/a	2	56	Blank	Neutral	True
536.519	1.45	Control	0.5263	n/a	Yes	2.829	n/a	5.0	GoodResponse	0	0.04	535.559	2	56	Feedback	Neutral	True
537.973	2.829	Control	0.5263	n/a	Yes	2.829	n/a	n/a	GoodResponse	0	0.0	n/a	2	56	ISIslide	Neutral	True
540.815	0.25	Control	0.5345	0.0	Yes	3.485	0.015	n/a	GoodResponse	0	n/a	n/a	2	57	Cue	Neutral	True
541.066	4.0	Control	0.5345	0.0	Yes	3.485	0.001	n/a	GoodResponse	0	n/a	n/a	2	57	Fixation	Neutral	True
545.061	0.5	Control	0.5345	0.004	Yes	3.485	-0.004	3.0	GoodResponse	0	0.182	544.243	2	57	Target	Neutral	True
545.243	0.3	Control	0.5345	0.004	Yes	3.485	-0.004	3.0	GoodResponse	0	0.182	n/a	2	57	ButtonPress	Neutral	True
545.563	0.2	Control	0.5345	n/a	Yes	3.485	n/a	n/a	GoodResponse	0	n/a	n/a	2	57	Blank	Neutral	True
545.763	1.45	Control	0.5345	n/a	Yes	3.485	n/a	5.0	GoodResponse	0	0.016	544.779	2	57	Feedback	Neutral	True
547.218	3.485	Control	0.5345	n/a	Yes	3.485	n/a	n/a	GoodResponse	0	0.0	n/a	2	57	ISIslide	Neutral	True
550.728	0.25	Win2	0.5424	0.0	Yes	2.722	0.028	n/a	GoodResponse	1	n/a	n/a	3	58	Cue	Win	True
550.979	4.05	Win2	0.5424	0.0	Yes	2.722	0.001	n/a	GoodResponse	1	n/a	n/a	3	58	Fixation	Win	True
555.024	0.5	Win2	0.5424	0.004	Yes	2.722	-0.004	3.0	GoodResponse	1	0.205	554.229	3	58	Target	Win	True
555.229	0.3	Win2	0.5424	0.004	Yes	2.722	-0.004	3.0	GoodResponse	1	0.205	n/a	3	58	ButtonPress	Win	True
555.526	0.2	Win2	0.5424	n/a	Yes	2.722	n/a	n/a	GoodResponse	1	n/a	n/a	3	58	Blank	Win	True
555.726	1.45	Win2	0.5424	n/a	Yes	2.722	n/a	5.0	GoodResponse	1	0.007	554.733	3	58	Feedback	Win	True
557.181	2.722	Win2	0.5424	n/a	Yes	2.722	n/a	n/a	GoodResponse	1	0.0	n/a	3	58	ISIslide	Win	True
559.922	0.25	Lose2	0.55	0.0	Yes	2.678	0.022	n/a	GoodResponse	0	n/a	n/a	3	59	Cue	AvoidedLoss	True
560.173	4.0	Lose2	0.55	0.0	Yes	2.678	0.001	n/a	GoodResponse	0	n/a	n/a	3	59	Fixation	AvoidedLoss	True
564.168	0.5	Lose2	0.55	0.004	Yes	2.678	-0.004	3.0	GoodResponse	0	0.201	563.369	3	59	Target	AvoidedLoss	True
564.369	0.3	Lose2	0.55	0.004	Yes	2.678	-0.004	3.0	GoodResponse	0	0.201	n/a	3	59	ButtonPress	AvoidedLoss	True
564.67	0.2	Lose2	0.55	n/a	Yes	2.678	n/a	n/a	GoodResponse	0	n/a	n/a	3	59	Blank	AvoidedLoss	True
564.87	1.45	Lose2	0.55	n/a	Yes	2.678	n/a	5.0	GoodResponse	0	0.03	563.9	3	59	Feedback	AvoidedLoss	True
566.325	2.678	Lose2	0.55	n/a	Yes	2.678	n/a	n/a	GoodResponse	0	0.0	n/a	3	59	ISIslide	AvoidedLoss	True
569.016	0.25	Control	0.5574	0.0	Yes	2.684	0.016	n/a	GoodResponse	0	n/a	n/a	3	60	Cue	Neutral	True
569.267	4.0	Control	0.5574	0.0	Yes	2.684	0.001	n/a	GoodResponse	0	n/a	n/a	3	60	Fixation	Neutral	True
573.262	0.5	Control	0.5574	0.004	Yes	2.684	-0.004	3.0	GoodResponse	0	0.216	572.478	3	60	Target	Neutral	True
573.478	0.3	Control	0.5574	0.004	Yes	2.684	-0.004	3.0	GoodResponse	0	0.216	n/a	3	60	ButtonPress	Neutral	True
573.764	0.2	Control	0.5574	n/a	Yes	2.684	n/a	n/a	GoodResponse	0	n/a	n/a	3	60	Blank	Neutral	True
573.964	1.45	Control	0.5574	n/a	Yes	2.684	n/a	5.0	GoodResponse	0	0.009	572.973	3	60	Feedback	Neutral	True
575.419	2.684	Control	0.5574	n/a	Yes	2.684	n/a	n/a	GoodResponse	0	0.0	n/a	3	60	ISIslide	Neutral	True
578.127	0.25	Lose2	0.5645	0.0	Yes	2.973	0.027	n/a	GoodResponse	0	n/a	n/a	3	61	Cue	AvoidedLoss	True
578.378	4.0	Lose2	0.5645	0.0	Yes	2.973	0.001	n/a	GoodResponse	0	n/a	n/a	3	61	Fixation	AvoidedLoss	True
582.373	0.5	Lose2	0.5645	0.004	Yes	2.973	-0.004	3.0	GoodResponse	0	0.207	581.58	3	61	Target	AvoidedLoss	True
582.58	0.3	Lose2	0.5645	0.004	Yes	2.973	-0.004	3.0	GoodResponse	0	0.207	n/a	3	61	ButtonPress	AvoidedLoss	True
582.874	0.2	Lose2	0.5645	n/a	Yes	2.973	n/a	n/a	GoodResponse	0	n/a	n/a	3	61	Blank	AvoidedLoss	True
583.075	1.45	Lose2	0.5645	n/a	Yes	2.973	n/a	5.0	GoodResponse	0	0.021	582.096	3	61	Feedback	AvoidedLoss	True
584.529	2.973	Lose2	0.5645	n/a	Yes	2.973	n/a	n/a	GoodResponse	0	0.0	n/a	3	61	ISIslide	AvoidedLoss	True
587.522	0.25	Lose2	0.5714	0.0	Yes	2.878	0.022	n/a	GoodResponse	0	n/a	n/a	3	62	Cue	AvoidedLoss	True
587.773	3.9	Lose2	0.5714	0.0	Yes	2.878	0.001	n/a	GoodResponse	0	n/a	n/a	3	62	Fixation	AvoidedLoss	True
591.668	0.5	Lose2	0.5714	0.004	Yes	2.878	-0.004	3.0	GoodResponse	0	0.249	590.917	3	62	Target	AvoidedLoss	True
591.917	0.3	Lose2	0.5714	0.004	Yes	2.878	-0.004	3.0	GoodResponse	0	0.249	n/a	3	62	ButtonPress	AvoidedLoss	True
592.169	0.2	Lose2	0.5714	n/a	Yes	2.878	n/a	n/a	GoodResponse	0	n/a	n/a	3	62	Blank	AvoidedLoss	True
592.37	1.45	Lose2	0.5714	n/a	Yes	2.878	n/a	5.0	GoodResponse	0	0.043	591.413	3	62	Feedback	AvoidedLoss	True
593.824	2.878	Lose2	0.5714	n/a	Yes	2.878	n/a	n/a	GoodResponse	0	0.0	n/a	3	62	ISIslide	AvoidedLoss	True
596.716	0.25	Lose2	0.5781000000000001	0.0	Yes	2.634	0.016	n/a	GoodResponse	0	n/a	n/a	3	63	Cue	AvoidedLoss	True
596.967	4.05	Lose2	0.5781000000000001	0.0	Yes	2.634	0.001	n/a	GoodResponse	0	n/a	n/a	3	63	Fixation	AvoidedLoss	True
601.012	0.5	Lose2	0.5781000000000001	0.004	Yes	2.634	-0.004	3.0	GoodResponse	0	0.232	600.244	3	63	Target	AvoidedLoss	True
601.244	0.3	Lose2	0.5781000000000001	0.004	Yes	2.634	-0.004	3.0	GoodResponse	0	0.232	n/a	3	63	ButtonPress	AvoidedLoss	True
601.514	0.2	Lose2	0.5781000000000001	n/a	Yes	2.634	n/a	n/a	GoodResponse	0	n/a	n/a	3	63	Blank	AvoidedLoss	True
601.714	1.45	Lose2	0.5781000000000001	n/a	Yes	2.634	n/a	5.0	GoodResponse	0	0.016	600.73	3	63	Feedback	AvoidedLoss	True
603.169	2.634	Lose2	0.5781000000000001	n/a	Yes	2.634	n/a	n/a	GoodResponse	0	0.0	n/a	3	63	ISIslide	AvoidedLoss	True
605.827	0.25	Win2	0.5846	0.0	Yes	3.123	0.027	n/a	GoodResponse	1	n/a	n/a	4	64	Cue	Win	True
606.077	4.15	Win2	0.5846	0.001	Yes	3.123	0.0	n/a	GoodResponse	1	n/a	n/a	4	64	Fixation	Win	True
610.223	0.5	Win2	0.5846	0.004	Yes	3.123	-0.004	3.0	GoodResponse	1	0.184	609.407	4	64	Target	Win	True
610.407	0.3	Win2	0.5846	0.004	Yes	3.123	-0.004	3.0	GoodResponse	1	0.184	n/a	4	64	ButtonPress	Win	True
610.725	0.2	Win2	0.5846	n/a	Yes	3.123	n/a	n/a	GoodResponse	1	n/a	n/a	4	64	Blank	Win	True
610.925	1.45	Win2	0.5846	n/a	Yes	3.123	n/a	5.0	GoodResponse	1	0.025	609.95	4	64	Feedback	Win	True
612.38	3.123	Win2	0.5846	n/a	Yes	3.123	n/a	n/a	GoodResponse	1	0.0	n/a	4	64	ISIslide	Win	True
615.522	0.25	Control	0.5909	0.0	Yes	2.778	0.022	n/a	GoodResponse	0	n/a	n/a	4	65	Cue	Neutral	True
615.773	4.0	Control	0.5909	0.0	Yes	2.778	0.001	n/a	GoodResponse	0	n/a	n/a	4	65	Fixation	Neutral	True
619.768	0.5	Control	0.5909	0.004	Yes	2.778	-0.004	3.0	GoodResponse	0	0.195	618.963	4	65	Target	Neutral	True
619.963	0.3	Control	0.5909	0.004	Yes	2.778	-0.004	3.0	GoodResponse	0	0.195	n/a	4	65	ButtonPress	Neutral	True
620.27	0.2	Control	0.5909	n/a	Yes	2.778	n/a	n/a	GoodResponse	0	n/a	n/a	4	65	Blank	Neutral	True
620.471	1.45	Control	0.5909	n/a	Yes	2.778	n/a	5.0	GoodResponse	0	0.039	619.51	4	65	Feedback	Neutral	True
621.925	2.778	Control	0.5909	n/a	Yes	2.778	n/a	n/a	GoodResponse	0	0.0	n/a	4	65	ISIslide	Neutral	True
624.717	0.25	Win2	0.597	0.0	Yes	2.783	0.017	n/a	GoodResponse	1	n/a	n/a	5	66	Cue	Win	True
624.967	3.9	Win2	0.597	0.0	Yes	2.783	0.0	n/a	GoodResponse	1	n/a	n/a	5	66	Fixation	Win	True
628.879	0.5	Win2	0.597	0.0	Yes	2.783	0.012	3.0	GoodResponse	1	0.215	628.094	5	66	Target	Win	True
629.094	0.3	Win2	0.597	0.0	Yes	2.783	0.012	3.0	GoodResponse	1	0.215	n/a	5	66	ButtonPress	Win	True
629.364	0.2	Win2	0.597	n/a	Yes	2.783	n/a	n/a	GoodResponse	1	n/a	n/a	5	66	Blank	Win	True
629.565	1.45	Win2	0.597	n/a	Yes	2.783	n/a	5.0	GoodResponse	1	0.018	628.583	5	66	Feedback	Win	True
631.019	2.783	Win2	0.597	n/a	Yes	2.783	n/a	n/a	GoodResponse	1	0.0	n/a	5	66	ISIslide	Win	True
633.827	0.25	Control	0.6029	0.0	Yes	2.723	0.027	n/a	GoodResponse	0	n/a	n/a	5	67	Cue	Neutral	True
634.078	3.95	Control	0.6029	0.0	Yes	2.723	0.001	n/a	GoodResponse	0	n/a	n/a	5	67	Fixation	Neutral	True
638.023	0.5	Control	0.6029	0.004	Yes	2.723	-0.004	3.0	GoodResponse	0	0.203	637.226	5	67	Target	Neutral	True
638.226	0.3	Control	0.6029	0.004	Yes	2.723	-0.004	3.0	GoodResponse	0	0.203	n/a	5	67	ButtonPress	Neutral	True
638.525	0.2	Control	0.6029	n/a	Yes	2.723	n/a	n/a	GoodResponse	0	n/a	n/a	5	67	Blank	Neutral	True
638.725	1.45	Control	0.6029	n/a	Yes	2.723	n/a	5.0	GoodResponse	0	0.029	637.754	5	67	Feedback	Neutral	True
640.18	2.723	Control	0.6029	n/a	Yes	2.723	n/a	n/a	GoodResponse	0	0.0	n/a	5	67	ISIslide	Neutral	True
642.921	0.25	Win2	0.6087	0.0	Yes	3.079	0.021	n/a	GoodResponse	1	n/a	n/a	6	68	Cue	Win	True
643.172	4.0	Win2	0.6087	0.0	Yes	3.079	0.001	n/a	GoodResponse	1	n/a	n/a	6	68	Fixation	Win	True
647.167	0.5	Win2	0.6087	0.004	Yes	3.079	-0.004	3.0	GoodResponse	1	0.183	646.35	6	68	Target	Win	True
647.35	0.3	Win2	0.6087	0.004	Yes	3.079	-0.004	3.0	GoodResponse	1	0.183	n/a	6	68	ButtonPress	Win	True
647.669	0.2	Win2	0.6087	n/a	Yes	3.079	n/a	n/a	GoodResponse	1	n/a	n/a	6	68	Blank	Win	True
647.869	1.45	Win2	0.6087	n/a	Yes	3.079	n/a	5.0	GoodResponse	1	0.007	646.876	6	68	Feedback	Win	True
649.324	3.079	Win2	0.6087	n/a	Yes	3.079	n/a	n/a	GoodResponse	1	0.0	n/a	6	68	ISIslide	Win	True
652.416	0.25	Win2	0.6143	0.001	Yes	3.234	0.016	n/a	GoodResponse	1	n/a	n/a	7	69	Cue	Win	True
652.667	3.95	Win2	0.6143	0.0	Yes	3.234	0.001	n/a	GoodResponse	1	n/a	n/a	7	69	Fixation	Win	True
656.612	0.5	Win2	0.6143	0.004	Yes	3.234	-0.004	3.0	GoodResponse	1	0.254	655.866	7	69	Target	Win	True
656.866	0.3	Win2	0.6143	0.004	Yes	3.234	-0.004	3.0	GoodResponse	1	0.254	n/a	7	69	ButtonPress	Win	True
657.114	0.2	Win2	0.6143	n/a	Yes	3.234	n/a	n/a	GoodResponse	1	n/a	n/a	7	69	Blank	Win	True
657.314	1.45	Win2	0.6143	n/a	Yes	3.234	n/a	5.0	GoodResponse	1	0.025	656.339	7	69	Feedback	Win	True
658.769	3.234	Win2	0.6143	n/a	Yes	3.234	n/a	n/a	GoodResponse	1	0.0	n/a	7	69	ISIslide	Win	True
662.029	0.25	Lose2	0.6197	0.0	Yes	3.021	0.029	n/a	GoodResponse	0	n/a	n/a	7	70	Cue	AvoidedLoss	True
662.279	4.05	Lose2	0.6197	0.0	Yes	3.021	0.0	n/a	GoodResponse	0	n/a	n/a	7	70	Fixation	AvoidedLoss	True
666.325	0.5	Lose2	0.6197	0.004	Yes	3.021	-0.004	3.0	GoodResponse	0	0.192	665.517	7	70	Target	AvoidedLoss	True
666.517	0.3	Lose2	0.6197	0.004	Yes	3.021	-0.004	3.0	GoodResponse	0	0.192	n/a	7	70	ButtonPress	AvoidedLoss	True
666.826	0.2	Lose2	0.6197	n/a	Yes	3.021	n/a	n/a	GoodResponse	0	n/a	n/a	7	70	Blank	AvoidedLoss	True
667.027	1.45	Lose2	0.6197	n/a	Yes	3.021	n/a	5.0	GoodResponse	0	0.02	666.047	7	70	Feedback	AvoidedLoss	True
668.481	3.021	Lose2	0.6197	n/a	Yes	3.021	n/a	n/a	GoodResponse	0	0.0	n/a	7	70	ISIslide	AvoidedLoss	True
671.524	0.25	Win2	0.625	0.0	Yes	2.726	0.024	n/a	GoodResponse	1	n/a	n/a	8	71	Cue	Win	True
671.775	4.05	Win2	0.625	0.0	Yes	2.726	0.001	n/a	GoodResponse	1	n/a	n/a	8	71	Fixation	Win	True
675.82	0.5	Win2	0.625	0.004	Yes	2.726	-0.004	3.0	GoodResponse	1	0.18	675.0	8	71	Target	Win	True
676	0.3	Win2	0.625	0.004	Yes	2.726	-0.004	3.0	GoodResponse	1	0.18	n/a	8	71	ButtonPress	Win	True
676.321	0.2	Win2	0.625	n/a	Yes	2.726	n/a	n/a	GoodResponse	1	n/a	n/a	8	71	Blank	Win	True
676.522	1.45	Win2	0.625	n/a	Yes	2.726	n/a	5.0	GoodResponse	1	0.037	675.559	8	71	Feedback	Win	True
677.976	2.726	Win2	0.625	n/a	Yes	2.726	n/a	n/a	GoodResponse	1	0.0	n/a	8	71	ISIslide	Win	True
680.718	0.25	Win2	0.6301	0.0	Yes	2.782	0.018	n/a	GoodResponse	1	n/a	n/a	9	72	Cue	Win	True
680.969	4.1	Win2	0.6301	0.0	Yes	2.782	0.001	n/a	GoodResponse	1	n/a	n/a	9	72	Fixation	Win	True
685.064	0.5	Win2	0.6301	0.004	Yes	2.782	-0.004	3.0	GoodResponse	1	0.218	684.282	9	72	Target	Win	True
685.282	0.3	Win2	0.6301	0.004	Yes	2.782	-0.004	3.0	GoodResponse	1	0.218	n/a	9	72	ButtonPress	Win	True
685.566	0.2	Win2	0.6301	n/a	Yes	2.782	n/a	n/a	GoodResponse	1	n/a	n/a	9	72	Blank	Win	True
685.766	1.45	Win2	0.6301	n/a	Yes	2.782	n/a	5.0	GoodResponse	1	0.013	684.779	9	72	Feedback	Win	True
687.221	2.782	Win2	0.6301	n/a	Yes	2.782	n/a	n/a	GoodResponse	1	0.0	n/a	9	72	ISIslide	Win	True
690.029	0.25	Win2	0.6351	0.0	Yes	2.671	0.029	n/a	GoodResponse	1	n/a	n/a	10	73	Cue	Win	True
690.28	4.0	Win2	0.6351	0.0	Yes	2.671	0.001	n/a	GoodResponse	1	n/a	n/a	10	73	Fixation	Win	True
694.275	0.5	Win2	0.6351	0.004	Yes	2.671	-0.004	3.0	GoodResponse	1	0.18	693.455	10	73	Target	Win	True
694.455	0.3	Win2	0.6351	0.004	Yes	2.671	-0.004	3.0	GoodResponse	1	0.18	n/a	10	73	ButtonPress	Win	True
694.777	0.2	Win2	0.6351	n/a	Yes	2.671	n/a	n/a	GoodResponse	1	n/a	n/a	10	73	Blank	Win	True
694.977	1.45	Win2	0.6351	n/a	Yes	2.671	n/a	5.0	GoodResponse	1	0.021	693.998	10	73	Feedback	Win	True
696.432	2.671	Win2	0.6351	n/a	Yes	2.671	n/a	n/a	GoodResponse	1	0.0	n/a	10	73	ISIslide	Win	True
699.123	0.25	Lose2	0.64	0.0	Yes	2.627	0.023	n/a	GoodResponse	0	n/a	n/a	10	74	Cue	AvoidedLoss	True
699.374	4.05	Lose2	0.64	0.0	Yes	2.627	0.001	n/a	GoodResponse	0	n/a	n/a	10	74	Fixation	AvoidedLoss	True
703.419	0.5	Lose2	0.64	0.004	Yes	2.627	-0.004	3.0	GoodResponse	0	0.18	702.599	10	74	Target	AvoidedLoss	True
703.599	0.3	Lose2	0.64	0.004	Yes	2.627	-0.004	3.0	GoodResponse	0	0.18	n/a	10	74	ButtonPress	AvoidedLoss	True
703.921	0.2	Lose2	0.64	n/a	Yes	2.627	n/a	n/a	GoodResponse	0	n/a	n/a	10	74	Blank	AvoidedLoss	True
704.122	1.45	Lose2	0.64	n/a	Yes	2.627	n/a	5.0	GoodResponse	0	0.046	703.168	10	74	Feedback	AvoidedLoss	True
705.576	2.627	Lose2	0.64	n/a	Yes	2.627	n/a	n/a	GoodResponse	0	0.0	n/a	10	74	ISIslide	AvoidedLoss	True
708.217	0.25	Lose2	0.6446999999999999	0.0	Yes	2.933	0.017	n/a	GoodResponse	0	n/a	n/a	10	75	Cue	AvoidedLoss	True
708.468	3.95	Lose2	0.6446999999999999	0.0	Yes	2.933	0.001	n/a	GoodResponse	0	n/a	n/a	10	75	Fixation	AvoidedLoss	True
712.413	0.5	Lose2	0.6446999999999999	0.004	Yes	2.933	-0.004	3.0	GoodResponse	0	0.203	711.616	10	75	Target	AvoidedLoss	True
712.616	0.3	Lose2	0.6446999999999999	0.004	Yes	2.933	-0.004	3.0	GoodResponse	0	0.203	n/a	10	75	ButtonPress	AvoidedLoss	True
712.915	0.2	Lose2	0.6446999999999999	n/a	Yes	2.933	n/a	n/a	GoodResponse	0	n/a	n/a	10	75	Blank	AvoidedLoss	True
713.115	1.45	Lose2	0.6446999999999999	n/a	Yes	2.933	n/a	5.0	GoodResponse	0	0.029	712.144	10	75	Feedback	AvoidedLoss	True
714.57	2.933	Lose2	0.6446999999999999	n/a	Yes	2.933	n/a	n/a	GoodResponse	0	0.0	n/a	10	75	ISIslide	AvoidedLoss	True
717.528	0.25	Control	0.6494	0.0	Yes	3.222	0.028	n/a	GoodResponse	0	n/a	n/a	10	76	Cue	Neutral	True
717.779	4.05	Control	0.6494	0.0	Yes	3.222	0.001	n/a	GoodResponse	0	n/a	n/a	10	76	Fixation	Neutral	True
721.825	0.5	Control	0.6494	0.003	Yes	3.222	-0.003	3.0	GoodResponse	0	0.198	721.023	10	76	Target	Neutral	True
722.023	0.3	Control	0.6494	0.003	Yes	3.222	-0.003	3.0	GoodResponse	0	0.198	n/a	10	76	ButtonPress	Neutral	True
722.326	0.2	Control	0.6494	n/a	Yes	3.222	n/a	n/a	GoodResponse	0	n/a	n/a	10	76	Blank	Neutral	True
722.527	1.45	Control	0.6494	n/a	Yes	3.222	n/a	5.0	GoodResponse	0	0.032	721.559	10	76	Feedback	Neutral	True
723.981	3.222	Control	0.6494	n/a	Yes	3.222	n/a	n/a	GoodResponse	0	0.0	n/a	10	76	ISIslide	Neutral	True
727.224	0.25	Lose2	0.6537999999999999	0.0	Yes	2.576	0.024	n/a	GoodResponse	0	n/a	n/a	10	77	Cue	AvoidedLoss	True
727.475	3.95	Lose2	0.6537999999999999	0.0	Yes	2.576	0.001	n/a	GoodResponse	0	n/a	n/a	10	77	Fixation	AvoidedLoss	True
731.42	0.5	Lose2	0.6537999999999999	0.004	Yes	2.576	-0.004	3.0	GoodResponse	0	0.178	730.598	10	77	Target	AvoidedLoss	True
731.598	0.3	Lose2	0.6537999999999999	0.004	Yes	2.576	-0.004	3.0	GoodResponse	0	0.178	n/a	10	77	ButtonPress	AvoidedLoss	True
731.922	0.2	Lose2	0.6537999999999999	n/a	Yes	2.576	n/a	n/a	GoodResponse	0	n/a	n/a	10	77	Blank	AvoidedLoss	True
732.122	1.45	Lose2	0.6537999999999999	n/a	Yes	2.576	n/a	5.0	GoodResponse	0	0.046	731.168	10	77	Feedback	AvoidedLoss	True
733.577	2.576	Lose2	0.6537999999999999	n/a	Yes	2.576	n/a	n/a	GoodResponse	0	0.0	n/a	10	77	ISIslide	AvoidedLoss	True
