onset	duration	cue_type	current_mean_accuracy	duration_error	is_hit	isi_adjusted	onset_delay	response	response_type	reward	rt	rt_time	total_reward	trial_number	trial_phase	trial_type	one_press
11.111	0.25	Control	0.0	0.0	No	2.939	0.011	n/a	NoResponse	0	n/a	n/a	0	0	Cue	Neutral	True
11.362	3.85	Control	0.0	0.0	No	2.939	0.001	n/a	NoResponse	0	n/a	n/a	0	0	Fixation	Neutral	True
15.223	0.4	Control	0.0	0.0	No	2.939	0.012	4.0	NoResponse	0	0.399	14.622	0	0	Target	Neutral	True
15.608	0.3	Control	0.0	n/a	No	2.939	n/a	n/a	NoResponse	0	n/a	n/a	0	0	Blank	Neutral	True
15.622	0.3	Control	0.0	0.0	No	2.939	0.012	4.0	NoResponse	0	0.399	n/a	0	0	ButtonPress	Neutral	True
15.908	1.45	Control	0.0	n/a	No	2.939	n/a	5.0	NoResponse	0	1.094	16.002	0	0	Feedback	Neutral	True
17.363	2.939	Control	0.0	n/a	No	2.939	n/a	4.0	NoResponse	0	0.638	n/a	0	0	ISIslide	Neutral	True
20.305	0.25	Lose2	0.5	0.0	Yes	2.795	0.005	n/a	GoodResponse	0	n/a	n/a	0	1	Cue	AvoidedLoss	True
20.556	4.0	Lose2	0.5	0.0	Yes	2.795	0.001	n/a	GoodResponse	0	n/a	n/a	0	1	Fixation	AvoidedLoss	True
24.551	0.41	Lose2	0.5	0.004	Yes	2.795	-0.004	4.0	GoodResponse	0	0.294	23.845	0	1	Target	AvoidedLoss	True
24.845	0.3	Lose2	0.5	0.004	Yes	2.795	-0.004	4.0	GoodResponse	0	0.294	n/a	0	1	ButtonPress	AvoidedLoss	True
24.969	0.29	Lose2	0.5	n/a	Yes	2.795	n/a	n/a	GoodResponse	0	n/a	n/a	0	1	Blank	AvoidedLoss	True
25.253	1.45	Lose2	0.5	n/a	Yes	2.795	n/a	n/a	GoodResponse	0	n/a	n/a	0	1	Feedback	AvoidedLoss	True
26.707	2.795	Lose2	0.5	n/a	Yes	2.795	n/a	n/a	GoodResponse	0	0.0	n/a	0	1	ISIslide	AvoidedLoss	True
29.516	0.25	Control	0.6667000000000001	0.0	Yes	2.584	0.016	n/a	GoodResponse	0	n/a	n/a	0	2	Cue	Neutral	True
29.767	4.1	Control	0.6667000000000001	0.0	Yes	2.584	0.001	n/a	GoodResponse	0	n/a	n/a	0	2	Fixation	Neutral	True
33.862	0.42	Control	0.6667000000000001	0.004	Yes	2.584	-0.004	4.0	GoodResponse	0	0.295	33.157	0	2	Target	Neutral	True
34.157	0.3	Control	0.6667000000000001	0.004	Yes	2.584	-0.004	4.0	GoodResponse	0	0.295	n/a	0	2	ButtonPress	Neutral	True
34.297	0.28	Control	0.6667000000000001	n/a	Yes	2.584	n/a	n/a	GoodResponse	0	n/a	n/a	0	2	Blank	Neutral	True
34.564	1.45	Control	0.6667000000000001	n/a	Yes	2.584	n/a	5.0	GoodResponse	0	0.438	34.002	0	2	Feedback	Neutral	True
36.019	2.584	Control	0.6667000000000001	n/a	Yes	2.584	n/a	n/a	GoodResponse	0	0.0	n/a	0	2	ISIslide	Neutral	True
38.626	0.25	Win2	0.75	0.0	Yes	2.824	0.026	n/a	GoodResponse	1	n/a	n/a	1	3	Cue	Win	True
38.877	3.95	Win2	0.75	0.0	Yes	2.824	0.001	n/a	GoodResponse	1	n/a	n/a	1	3	Fixation	Win	True
42.822	0.41	Win2	0.75	0.004	Yes	2.824	-0.004	4.0	GoodResponse	1	0.289	42.111	1	3	Target	Win	True
43.111	0.3	Win2	0.75	0.004	Yes	2.824	-0.004	4.0	GoodResponse	1	0.289	n/a	1	3	ButtonPress	Win	True
43.24	0.29	Win2	0.75	n/a	Yes	2.824	n/a	n/a	GoodResponse	1	n/a	n/a	1	3	Blank	Win	True
43.524	1.45	Win2	0.75	n/a	Yes	2.824	n/a	n/a	GoodResponse	1	n/a	n/a	1	3	Feedback	Win	True
44.979	2.824	Win2	0.75	n/a	Yes	2.824	n/a	n/a	GoodResponse	1	0.0	n/a	1	3	ISIslide	Win	True
47.82	0.25	Win2	0.8	0.0	Yes	3.28	0.02	n/a	GoodResponse	1	n/a	n/a	2	4	Cue	Win	True
48.071	4.0	Win2	0.8	0.0	Yes	3.28	0.001	n/a	GoodResponse	1	n/a	n/a	2	4	Fixation	Win	True
52.066	0.4	Win2	0.8	0.004	Yes	3.28	-0.004	4.0	GoodResponse	1	0.261	51.327	2	4	Target	Win	True
52.327	0.3	Win2	0.8	0.004	Yes	3.28	-0.004	4.0	GoodResponse	1	0.261	n/a	2	4	ButtonPress	Win	True
52.468	0.3	Win2	0.8	n/a	Yes	3.28	n/a	n/a	GoodResponse	1	n/a	n/a	2	4	Blank	Win	True
52.769	1.45	Win2	0.8	n/a	Yes	3.28	n/a	5.0	GoodResponse	1	0.232	52.001	2	4	Feedback	Win	True
54.223	3.28	Win2	0.8	n/a	Yes	3.28	n/a	n/a	GoodResponse	1	0.0	n/a	2	4	ISIslide	Win	True
57.516	0.25	Win2	0.8332999999999999	0.0	Yes	2.784	0.016	n/a	GoodResponse	1	n/a	n/a	3	5	Cue	Win	True
57.767	4.0	Win2	0.8332999999999999	0.0	Yes	2.784	0.001	n/a	GoodResponse	1	n/a	n/a	3	5	Fixation	Win	True
61.762	0.39	Win2	0.8332999999999999	0.004	Yes	2.784	-0.004	4.0	GoodResponse	1	0.245	61.007	3	5	Target	Win	True
62.007	0.3	Win2	0.8332999999999999	0.004	Yes	2.784	-0.004	4.0	GoodResponse	1	0.245	n/a	3	5	ButtonPress	Win	True
62.163	0.31	Win2	0.8332999999999999	n/a	Yes	2.784	n/a	n/a	GoodResponse	1	n/a	n/a	3	5	Blank	Win	True
62.464	1.45	Win2	0.8332999999999999	n/a	Yes	2.784	n/a	5.0	GoodResponse	1	0.538	62.002	3	5	Feedback	Win	True
63.918	2.784	Win2	0.8332999999999999	n/a	Yes	2.784	n/a	n/a	GoodResponse	1	0.0	n/a	3	5	ISIslide	Win	True
66.727	0.25	Lose2	0.8571	0.0	Yes	2.723	0.027	n/a	GoodResponse	0	n/a	n/a	3	6	Cue	AvoidedLoss	True
66.978	3.95	Lose2	0.8571	0.0	Yes	2.723	0.001	n/a	GoodResponse	0	n/a	n/a	3	6	Fixation	AvoidedLoss	True
70.923	0.38	Lose2	0.8571	0.004	Yes	2.723	-0.004	4.0	GoodResponse	0	0.222	70.145	3	6	Target	AvoidedLoss	True
71.145	0.3	Lose2	0.8571	0.004	Yes	2.723	-0.004	4.0	GoodResponse	0	0.222	n/a	3	6	ButtonPress	AvoidedLoss	True
71.307	0.32	Lose2	0.8571	n/a	Yes	2.723	n/a	n/a	GoodResponse	0	n/a	n/a	3	6	Blank	AvoidedLoss	True
71.625	1.45	Lose2	0.8571	n/a	Yes	2.723	n/a	5.0	GoodResponse	0	1.377	72.002	3	6	Feedback	AvoidedLoss	True
73.079	2.723	Lose2	0.8571	n/a	Yes	2.723	n/a	n/a	GoodResponse	0	0.0	n/a	3	6	ISIslide	AvoidedLoss	True
75.821	0.25	Lose2	0.875	0.0	Yes	4.029	0.021	n/a	GoodResponse	0	n/a	n/a	3	7	Cue	AvoidedLoss	True
76.071	4.05	Lose2	0.875	0.001	Yes	4.029	0.0	n/a	GoodResponse	0	n/a	n/a	3	7	Fixation	AvoidedLoss	True
80.117	0.37	Lose2	0.875	0.004	Yes	4.029	-0.004	4.0	GoodResponse	0	0.228	79.345	3	7	Target	AvoidedLoss	True
80.345	0.3	Lose2	0.875	0.004	Yes	4.029	-0.004	4.0	GoodResponse	0	0.228	n/a	3	7	ButtonPress	AvoidedLoss	True
80.501	0.33	Lose2	0.875	n/a	Yes	4.029	n/a	n/a	GoodResponse	0	n/a	n/a	3	7	Blank	AvoidedLoss	True
80.819	1.45	Lose2	0.875	n/a	Yes	4.029	n/a	5.0	GoodResponse	0	0.183	80.002	3	7	Feedback	AvoidedLoss	True
82.273	4.029	Lose2	0.875	n/a	Yes	4.029	n/a	n/a	GoodResponse	0	0.0	n/a	3	7	ISIslide	AvoidedLoss	True
86.319	0.25	Lose2	0.8889	0.0	Yes	3.031	0.019	n/a	GoodResponse	0	n/a	n/a	3	8	Cue	AvoidedLoss	True
86.569	3.95	Lose2	0.8889	0.001	Yes	3.031	0.0	n/a	GoodResponse	0	n/a	n/a	3	8	Fixation	AvoidedLoss	True
90.515	0.36	Lose2	0.8889	0.004	Yes	3.031	-0.004	4.0	GoodResponse	0	0.348	89.863	3	8	Target	AvoidedLoss	True
90.863	0.3	Lose2	0.8889	0.004	Yes	3.031	-0.004	4.0	GoodResponse	0	0.348	n/a	3	8	ButtonPress	AvoidedLoss	True
90.882	0.34	Lose2	0.8889	n/a	Yes	3.031	n/a	n/a	GoodResponse	0	n/a	n/a	3	8	Blank	AvoidedLoss	True
91.217	1.45	Lose2	0.8889	n/a	Yes	3.031	n/a	n/a	GoodResponse	0	n/a	n/a	3	8	Feedback	AvoidedLoss	True
92.671	3.031	Lose2	0.8889	n/a	Yes	3.031	n/a	n/a	GoodResponse	0	0.0	n/a	3	8	ISIslide	AvoidedLoss	True
95.73	0.25	Lose2	0.9	0.0	Yes	3.12	0.03	n/a	GoodResponse	0	n/a	n/a	3	9	Cue	AvoidedLoss	True
95.981	3.95	Lose2	0.9	0.0	Yes	3.12	0.001	n/a	GoodResponse	0	n/a	n/a	3	9	Fixation	AvoidedLoss	True
99.926	0.35	Lose2	0.9	0.004	Yes	3.12	-0.004	4.0	GoodResponse	0	0.337	99.263	3	9	Target	AvoidedLoss	True
100.263	0.3	Lose2	0.9	0.004	Yes	3.12	-0.004	4.0	GoodResponse	0	0.337	n/a	3	9	ButtonPress	AvoidedLoss	True
100.277	0.35	Lose2	0.9	n/a	Yes	3.12	n/a	n/a	GoodResponse	0	n/a	n/a	3	9	Blank	AvoidedLoss	True
100.628	1.45	Lose2	0.9	n/a	Yes	3.12	n/a	5.0	GoodResponse	0	0.373	100.001	3	9	Feedback	AvoidedLoss	True
102.082	3.12	Lose2	0.9	n/a	Yes	3.12	n/a	n/a	GoodResponse	0	0.0	n/a	3	9	ISIslide	AvoidedLoss	True
105.225	0.25	Control	0.9091	0.0	Yes	3.275	0.025	n/a	GoodResponse	0	n/a	n/a	3	10	Cue	Neutral	True
105.476	4.0	Control	0.9091	0.0	Yes	3.275	0.001	n/a	GoodResponse	0	n/a	n/a	3	10	Fixation	Neutral	True
109.471	0.34	Control	0.9091	0.004	Yes	3.275	-0.004	4.0	GoodResponse	0	0.241	108.712	3	10	Target	Neutral	True
109.712	0.3	Control	0.9091	0.004	Yes	3.275	-0.004	4.0	GoodResponse	0	0.241	n/a	3	10	ButtonPress	Neutral	True
109.822	0.36	Control	0.9091	n/a	Yes	3.275	n/a	n/a	GoodResponse	0	n/a	n/a	3	10	Blank	Neutral	True
110.173	1.45	Control	0.9091	n/a	Yes	3.275	n/a	5.0	GoodResponse	0	0.828	110.001	3	10	Feedback	Neutral	True
111.628	3.275	Control	0.9091	n/a	Yes	3.275	n/a	n/a	GoodResponse	0	0.0	n/a	3	10	ISIslide	Neutral	True
114.921	0.25	Lose2	0.9167000000000001	0.0	Yes	2.729	0.021	n/a	GoodResponse	0	n/a	n/a	3	11	Cue	AvoidedLoss	True
115.172	4.05	Lose2	0.9167000000000001	0.0	Yes	2.729	0.001	n/a	GoodResponse	0	n/a	n/a	3	11	Fixation	AvoidedLoss	True
119.217	0.33	Lose2	0.9167000000000001	0.004	Yes	2.729	-0.004	4.0	GoodResponse	0	0.253	118.47	3	11	Target	AvoidedLoss	True
119.47	0.3	Lose2	0.9167000000000001	0.004	Yes	2.729	-0.004	4.0	GoodResponse	0	0.253	n/a	3	11	ButtonPress	AvoidedLoss	True
119.551	0.37	Lose2	0.9167000000000001	n/a	Yes	2.729	n/a	n/a	GoodResponse	0	n/a	n/a	3	11	Blank	AvoidedLoss	True
119.919	1.45	Lose2	0.9167000000000001	n/a	Yes	2.729	n/a	5.0	GoodResponse	0	1.082	120.001	3	11	Feedback	AvoidedLoss	True
121.373	2.729	Lose2	0.9167000000000001	n/a	Yes	2.729	n/a	n/a	GoodResponse	0	0.0	n/a	3	11	ISIslide	AvoidedLoss	True
124.115	0.25	Control	0.9231	0.0	Yes	2.985	0.015	n/a	GoodResponse	0	n/a	n/a	3	12	Cue	Neutral	False
124.366	3.9	Control	0.9231	0.0	Yes	2.985	0.001	4.0	GoodResponse	0	0.156	123.522	3	12	Fixation	Neutral	False
124.522	0.3	Control	0.9231	0.0	Yes	2.985	0.001	4.0	GoodResponse	0	0.156	n/a	3	12	ButtonPress	Neutral	False
128.261	0.32	Control	0.9231	0.004	Yes	2.985	-0.004	4.0	GoodResponse	0	0.257	127.518	3	12	Target	Neutral	False
128.518	0.3	Control	0.9231	0.004	Yes	2.985	-0.004	4.0	GoodResponse	0	0.257	n/a	3	12	ButtonPress	Neutral	False
128.595	0.38	Control	0.9231	n/a	Yes	2.985	n/a	n/a	GoodResponse	0	n/a	n/a	3	12	Blank	Neutral	False
128.963	1.45	Control	0.9231	n/a	Yes	2.985	n/a	5.0	GoodResponse	0	0.037	128.0	3	12	Feedback	Neutral	False
130.417	2.985	Control	0.9231	n/a	Yes	2.985	n/a	n/a	GoodResponse	0	0.0	n/a	3	12	ISIslide	Neutral	False
133.426	0.25	Control	0.9286	0.0	Yes	2.774	0.026	n/a	GoodResponse	0	n/a	n/a	3	13	Cue	Neutral	True
133.677	4.0	Control	0.9286	0.0	Yes	2.774	0.001	n/a	GoodResponse	0	n/a	n/a	3	13	Fixation	Neutral	True
137.672	0.31	Control	0.9286	0.004	Yes	2.774	-0.004	4.0	GoodResponse	0	0.274	136.946	3	13	Target	Neutral	True
137.946	0.3	Control	0.9286	0.004	Yes	2.774	-0.004	4.0	GoodResponse	0	0.274	n/a	3	13	ButtonPress	Neutral	True
137.99	0.39	Control	0.9286	n/a	Yes	2.774	n/a	n/a	GoodResponse	0	n/a	n/a	3	13	Blank	Neutral	True
138.374	1.45	Control	0.9286	n/a	Yes	2.774	n/a	5.0	GoodResponse	0	0.626	138.0	3	13	Feedback	Neutral	True
139.829	2.774	Control	0.9286	n/a	Yes	2.774	n/a	n/a	GoodResponse	0	0.0	n/a	3	13	ISIslide	Neutral	True
142.62	0.25	Win2	0.9333	0.0	Yes	2.68	0.02	n/a	GoodResponse	1	n/a	n/a	4	14	Cue	Win	True
142.871	4.1	Win2	0.9333	0.0	Yes	2.68	0.001	n/a	GoodResponse	1	n/a	n/a	4	14	Fixation	Win	True
146.967	0.3	Win2	0.9333	0.003	Yes	2.68	-0.003	4.0	GoodResponse	1	0.242	146.209	4	14	Target	Win	True
147.209	0.3	Win2	0.9333	0.003	Yes	2.68	-0.003	4.0	GoodResponse	1	0.242	n/a	4	14	ButtonPress	Win	True
147.267	0.4	Win2	0.9333	n/a	Yes	2.68	n/a	n/a	GoodResponse	1	n/a	n/a	4	14	Blank	Win	True
147.669	1.45	Win2	0.9333	n/a	Yes	2.68	n/a	5.0	GoodResponse	1	1.332	148.001	4	14	Feedback	Win	True
149.123	2.68	Win2	0.9333	n/a	Yes	2.68	n/a	n/a	GoodResponse	1	0.0	n/a	4	14	ISIslide	Win	True
151.831	0.25	Control	0.9375	0.0	Yes	2.969	0.031	n/a	GoodResponse	0	n/a	n/a	4	15	Cue	Neutral	True
152.082	4.0	Control	0.9375	0.0	Yes	2.969	0.001	n/a	GoodResponse	0	n/a	n/a	4	15	Fixation	Neutral	True
156.077	0.29	Control	0.9375	0.004	Yes	2.969	-0.004	4.0	GoodResponse	0	0.246	155.323	4	15	Target	Neutral	True
156.323	0.3	Control	0.9375	0.004	Yes	2.969	-0.004	4.0	GoodResponse	0	0.246	n/a	4	15	ButtonPress	Neutral	True
156.378	0.41	Control	0.9375	n/a	Yes	2.969	n/a	n/a	GoodResponse	0	n/a	n/a	4	15	Blank	Neutral	True
156.779	1.45	Control	0.9375	n/a	Yes	2.969	n/a	5.0	GoodResponse	0	0.222	156.001	4	15	Feedback	Neutral	True
158.234	2.969	Control	0.9375	n/a	Yes	2.969	n/a	n/a	GoodResponse	0	0.0	n/a	4	15	ISIslide	Neutral	True
161.226	0.25	Win2	0.9412	0.0	Yes	2.874	0.026	n/a	GoodResponse	1	n/a	n/a	5	16	Cue	Win	True
161.477	4.0	Win2	0.9412	0.0	Yes	2.874	0.001	n/a	GoodResponse	1	n/a	n/a	5	16	Fixation	Win	True
165.472	0.28	Win2	0.9412	0.004	Yes	2.874	-0.004	4.0	GoodResponse	1	0.229	164.701	5	16	Target	Win	True
165.701	0.3	Win2	0.9412	0.004	Yes	2.874	-0.004	4.0	GoodResponse	1	0.229	n/a	5	16	ButtonPress	Win	True
165.756	0.42	Win2	0.9412	n/a	Yes	2.874	n/a	n/a	GoodResponse	1	n/a	n/a	5	16	Blank	Win	True
166.174	1.45	Win2	0.9412	n/a	Yes	2.874	n/a	5.0	GoodResponse	1	0.826	166.0	5	16	Feedback	Win	True
167.628	2.874	Win2	0.9412	n/a	Yes	2.874	n/a	n/a	GoodResponse	1	0.0	n/a	5	16	ISIslide	Win	True
170.52	0.25	Lose2	0.9444	0.0	Yes	2.73	0.02	n/a	GoodResponse	0	n/a	n/a	5	17	Cue	AvoidedLoss	True
170.771	3.95	Lose2	0.9444	0.0	Yes	2.73	0.001	n/a	GoodResponse	0	n/a	n/a	5	17	Fixation	AvoidedLoss	True
174.716	0.27	Lose2	0.9444	0.004	Yes	2.73	-0.004	4.0	GoodResponse	0	0.206	173.922	5	17	Target	AvoidedLoss	True
174.922	0.3	Lose2	0.9444	0.004	Yes	2.73	-0.004	4.0	GoodResponse	0	0.206	n/a	5	17	ButtonPress	AvoidedLoss	True
175	0.43	Lose2	0.9444	n/a	Yes	2.73	n/a	n/a	GoodResponse	0	n/a	n/a	5	17	Blank	AvoidedLoss	True
175.418	1.45	Lose2	0.9444	n/a	Yes	2.73	n/a	n/a	GoodResponse	0	n/a	n/a	5	17	Feedback	AvoidedLoss	True
176.872	2.73	Lose2	0.9444	n/a	Yes	2.73	n/a	n/a	GoodResponse	0	0.0	n/a	5	17	ISIslide	AvoidedLoss	True
179.631	0.25	Lose2	0.9473999999999999	0.0	Yes	2.719	0.031	n/a	GoodResponse	0	n/a	n/a	5	18	Cue	AvoidedLoss	True
179.881	4.05	Lose2	0.9473999999999999	0.001	Yes	2.719	0.0	n/a	GoodResponse	0	n/a	n/a	5	18	Fixation	AvoidedLoss	True
183.927	0.26	Lose2	0.9473999999999999	0.004	Yes	2.719	-0.004	4.0	GoodResponse	0	0.228	183.155	5	18	Target	AvoidedLoss	True
184.155	0.3	Lose2	0.9473999999999999	0.004	Yes	2.719	-0.004	4.0	GoodResponse	0	0.228	n/a	5	18	ButtonPress	AvoidedLoss	True
184.194	0.44	Lose2	0.9473999999999999	n/a	Yes	2.719	n/a	n/a	GoodResponse	0	n/a	n/a	5	18	Blank	AvoidedLoss	True
184.629	1.45	Lose2	0.9473999999999999	n/a	Yes	2.719	n/a	5.0	GoodResponse	0	0.371	184.0	5	18	Feedback	AvoidedLoss	True
186.083	2.719	Lose2	0.9473999999999999	n/a	Yes	2.719	n/a	n/a	GoodResponse	0	0.0	n/a	5	18	ISIslide	AvoidedLoss	True
188.825	0.25	Control	0.95	0.0	Yes	2.925	0.025	n/a	GoodResponse	0	n/a	n/a	5	19	Cue	Neutral	True
189.076	3.95	Control	0.95	0.0	Yes	2.925	0.001	n/a	GoodResponse	0	n/a	n/a	5	19	Fixation	Neutral	True
193.021	0.25	Control	0.95	0.004	Yes	2.925	-0.004	4.0	GoodResponse	0	0.23	192.251	5	19	Target	Neutral	True
193.251	0.3	Control	0.95	0.004	Yes	2.925	-0.004	4.0	GoodResponse	0	0.23	n/a	5	19	ButtonPress	Neutral	True
193.271	0.45	Control	0.95	n/a	Yes	2.925	n/a	n/a	GoodResponse	0	n/a	n/a	5	19	Blank	Neutral	True
193.723	1.45	Control	0.95	n/a	Yes	2.925	n/a	5.0	GoodResponse	0	1.277	194.0	5	19	Feedback	Neutral	True
195.177	2.925	Control	0.95	n/a	Yes	2.925	n/a	n/a	GoodResponse	0	0.0	n/a	5	19	ISIslide	Neutral	True
198.119	0.25	Control	0.9523999999999999	0.0	Yes	2.631	0.019	n/a	GoodResponse	0	n/a	n/a	5	20	Cue	Neutral	True
198.37	4.05	Control	0.9523999999999999	0.0	Yes	2.631	0.001	n/a	GoodResponse	0	n/a	n/a	5	20	Fixation	Neutral	True
202.415	0.24	Control	0.9523999999999999	0.004	Yes	2.631	-0.004	4.0	GoodResponse	0	0.229	201.644	5	20	Target	Neutral	True
202.644	0.3	Control	0.9523999999999999	0.004	Yes	2.631	-0.004	4.0	GoodResponse	0	0.229	n/a	5	20	ButtonPress	Neutral	True
202.666	0.46	Control	0.9523999999999999	n/a	Yes	2.631	n/a	n/a	GoodResponse	0	n/a	n/a	5	20	Blank	Neutral	True
203.118	1.45	Control	0.9523999999999999	n/a	Yes	2.631	n/a	n/a	GoodResponse	0	n/a	n/a	5	20	Feedback	Neutral	True
204.572	2.631	Control	0.9523999999999999	n/a	Yes	2.631	n/a	n/a	GoodResponse	0	0.0	n/a	5	20	ISIslide	Neutral	True
207.23	0.25	Control	0.9545	0.0	Yes	2.77	0.03	n/a	GoodResponse	0	n/a	n/a	5	21	Cue	Neutral	True
207.481	4.1	Control	0.9545	0.0	Yes	2.77	0.001	n/a	GoodResponse	0	n/a	n/a	5	21	Fixation	Neutral	True
211.576	0.23	Control	0.9545	0.004	Yes	2.77	-0.004	4.0	GoodResponse	0	0.215	210.791	5	21	Target	Neutral	True
211.791	0.3	Control	0.9545	0.004	Yes	2.77	-0.004	4.0	GoodResponse	0	0.215	n/a	5	21	ButtonPress	Neutral	True
211.81	0.47	Control	0.9545	n/a	Yes	2.77	n/a	n/a	GoodResponse	0	n/a	n/a	5	21	Blank	Neutral	True
212.278	1.45	Control	0.9545	n/a	Yes	2.77	n/a	5.0	GoodResponse	0	0.722	212.0	5	21	Feedback	Neutral	True
213.733	2.77	Control	0.9545	n/a	Yes	2.77	n/a	n/a	GoodResponse	0	0.0	n/a	5	21	ISIslide	Neutral	True
216.524	0.25	Control	0.9129999999999999	0.0	No	2.776	0.024	n/a	NoResponse	0	n/a	n/a	5	22	Cue	Neutral	True
216.775	4.0	Control	0.9129999999999999	0.0	No	2.776	0.001	n/a	NoResponse	0	n/a	n/a	5	22	Fixation	Neutral	True
220.77	0.22	Control	0.9129999999999999	0.004	No	2.776	-0.004	4.0	NoResponse	0	0.256	220.026	5	22	Target	Neutral	True
221.004	0.48	Control	0.9129999999999999	n/a	No	2.776	n/a	n/a	NoResponse	0	n/a	n/a	5	22	Blank	Neutral	True
221.026	0.3	Control	0.9129999999999999	0.004	No	2.776	-0.004	4.0	NoResponse	0	0.256	n/a	5	22	ButtonPress	Neutral	True
221.472	1.45	Control	0.9129999999999999	n/a	No	2.776	n/a	n/a	NoResponse	0	n/a	n/a	5	22	Feedback	Neutral	True
222.927	2.776	Control	0.9129999999999999	n/a	No	2.776	n/a	n/a	NoResponse	0	0.0	n/a	5	22	ISIslide	Neutral	True
225.718	0.25	Control	0.9167000000000001	0.0	Yes	2.782	0.018	n/a	GoodResponse	0	n/a	n/a	5	23	Cue	Neutral	True
225.969	3.9	Control	0.9167000000000001	0.0	Yes	2.782	0.001	n/a	GoodResponse	0	n/a	n/a	5	23	Fixation	Neutral	True
229.864	0.21	Control	0.9167000000000001	0.004	Yes	2.782	-0.004	4.0	GoodResponse	0	0.19	229.054	5	23	Target	Neutral	True
230.054	0.3	Control	0.9167000000000001	0.004	Yes	2.782	-0.004	4.0	GoodResponse	0	0.19	n/a	5	23	ButtonPress	Neutral	True
230.081	0.49	Control	0.9167000000000001	n/a	Yes	2.782	n/a	n/a	GoodResponse	0	n/a	n/a	5	23	Blank	Neutral	True
230.566	1.45	Control	0.9167000000000001	n/a	Yes	2.782	n/a	5.0	GoodResponse	0	0.434	230.0	5	23	Feedback	Neutral	True
232.021	2.782	Control	0.9167000000000001	n/a	Yes	2.782	n/a	n/a	GoodResponse	0	0.0	n/a	5	23	ISIslide	Neutral	True
234.829	0.25	Win2	0.88	0.0	No	3.121	0.029	n/a	NoResponse	0	n/a	n/a	5	24	Cue	MissedWin	True
235.08	3.95	Win2	0.88	0.0	No	3.121	0.001	n/a	NoResponse	0	n/a	n/a	5	24	Fixation	MissedWin	True
239.025	0.2	Win2	0.88	0.004	No	3.121	-0.004	4.0	NoResponse	0	0.226	238.251	5	24	Target	MissedWin	True
239.225	0.5	Win2	0.88	n/a	No	3.121	n/a	n/a	NoResponse	0	n/a	n/a	5	24	Blank	MissedWin	True
239.251	0.3	Win2	0.88	0.004	No	3.121	-0.004	4.0	NoResponse	0	0.226	n/a	5	24	ButtonPress	MissedWin	True
239.727	1.45	Win2	0.88	n/a	No	3.121	n/a	5.0	NoResponse	0	1.272	239.999	5	24	Feedback	MissedWin	True
241.181	3.121	Win2	0.88	n/a	No	3.121	n/a	n/a	NoResponse	0	0.0	n/a	5	24	ISIslide	MissedWin	True
244.324	0.25	Win2	0.8462000000000001	0.0	No	3.076	0.024	n/a	NoResponse	0	n/a	n/a	5	25	Cue	MissedWin	True
244.575	4.0	Win2	0.8462000000000001	0.0	No	3.076	0.001	n/a	NoResponse	0	n/a	n/a	5	25	Fixation	MissedWin	True
248.57	0.19	Win2	0.8462000000000001	0.004	No	3.076	-0.004	4.0	NoResponse	0	0.209	247.779	5	25	Target	MissedWin	True
248.771	0.51	Win2	0.8462000000000001	n/a	No	3.076	n/a	n/a	NoResponse	0	n/a	n/a	5	25	Blank	MissedWin	True
248.779	0.3	Win2	0.8462000000000001	0.004	No	3.076	-0.004	4.0	NoResponse	0	0.209	n/a	5	25	ButtonPress	MissedWin	True
249.272	1.45	Win2	0.8462000000000001	n/a	No	3.076	n/a	n/a	NoResponse	0	n/a	n/a	5	25	Feedback	MissedWin	True
250.726	3.076	Win2	0.8462000000000001	n/a	No	3.076	n/a	n/a	NoResponse	0	0.0	n/a	5	25	ISIslide	MissedWin	True
253.819	0.25	Win2	0.8148000000000001	0.0	No	2.931	0.019	n/a	NoResponse	0	n/a	n/a	5	26	Cue	MissedWin	True
254.07	3.95	Win2	0.8148000000000001	0.0	No	2.931	0.001	n/a	NoResponse	0	n/a	n/a	5	26	Fixation	MissedWin	True
258.015	0.18	Win2	0.8148000000000001	0.004	No	2.931	-0.004	4.0	NoResponse	0	0.205	257.22	5	26	Target	MissedWin	True
258.199	0.52	Win2	0.8148000000000001	n/a	No	2.931	n/a	n/a	NoResponse	0	n/a	n/a	5	26	Blank	MissedWin	True
258.22	0.3	Win2	0.8148000000000001	0.004	No	2.931	-0.004	4.0	NoResponse	0	0.205	n/a	5	26	ButtonPress	MissedWin	True
258.717	1.45	Win2	0.8148000000000001	n/a	No	2.931	n/a	5.0	NoResponse	0	0.282	257.999	5	26	Feedback	MissedWin	True
260.171	2.931	Win2	0.8148000000000001	n/a	No	2.931	n/a	n/a	NoResponse	0	0.0	n/a	5	26	ISIslide	MissedWin	True
263.13	0.25	Lose2	0.7857	0.0	No	2.82	0.03	n/a	NoResponse	-1	n/a	n/a	4	27	Cue	Loss	True
263.381	4.05	Lose2	0.7857	0.0	No	2.82	0.001	n/a	NoResponse	-1	n/a	n/a	4	27	Fixation	Loss	True
267.426	0.17	Lose2	0.7857	0.004	No	2.82	-0.004	4.0	NoResponse	-1	0.193	266.619	4	27	Target	Loss	True
267.61	0.53	Lose2	0.7857	n/a	No	2.82	n/a	n/a	NoResponse	-1	n/a	n/a	4	27	Blank	Loss	True
267.619	0.3	Lose2	0.7857	0.004	No	2.82	-0.004	4.0	NoResponse	-1	0.193	n/a	4	27	ButtonPress	Loss	True
268.128	1.45	Lose2	0.7857	n/a	No	2.82	n/a	5.0	NoResponse	-1	0.871	267.999	4	27	Feedback	Loss	True
269.583	2.82	Lose2	0.7857	n/a	No	2.82	n/a	n/a	NoResponse	-1	0.0	n/a	4	27	ISIslide	Loss	True
272.425	0.25	Control	0.7585999999999999	0.0	No	2.825	0.025	n/a	NoResponse	0	n/a	n/a	4	28	Cue	Neutral	False
272.675	4.05	Control	0.7585999999999999	0.0	No	2.825	0.0	4.0	NoResponse	0	3.419	275.094	4	28	Fixation	Neutral	False
276.094	0.3	Control	0.7585999999999999	0.0	No	2.825	0.0	4.0	NoResponse	0	3.419	n/a	4	28	ButtonPress	Neutral	False
276.721	0.16	Control	0.7585999999999999	0.004	No	2.825	-0.004	4.0	NoResponse	0	0.315	276.036	4	28	Target	Neutral	False
276.888	0.54	Control	0.7585999999999999	n/a	No	2.825	n/a	n/a	NoResponse	0	n/a	n/a	4	28	Blank	Neutral	False
277.036	0.3	Control	0.7585999999999999	0.004	No	2.825	-0.004	4.0	NoResponse	0	0.315	n/a	4	28	ButtonPress	Neutral	False
277.423	1.45	Control	0.7585999999999999	n/a	No	2.825	n/a	n/a	NoResponse	0	n/a	n/a	4	28	Feedback	Neutral	False
278.877	2.825	Control	0.7585999999999999	n/a	No	2.825	n/a	n/a	NoResponse	0	0.0	n/a	4	28	ISIslide	Neutral	False
281.719	0.25	Lose2	0.7333	0.0	No	2.831	0.019	n/a	NoResponse	-1	n/a	n/a	3	29	Cue	Loss	True
281.97	3.95	Lose2	0.7333	0.0	No	2.831	0.001	n/a	NoResponse	-1	n/a	n/a	3	29	Fixation	Loss	True
285.915	0.15	Lose2	0.7333	0.004	No	2.831	-0.004	4.0	NoResponse	-1	0.23	285.145	3	29	Target	Loss	True
286.065	0.55	Lose2	0.7333	n/a	No	2.831	n/a	n/a	NoResponse	-1	n/a	n/a	3	29	Blank	Loss	True
286.145	0.3	Lose2	0.7333	0.004	No	2.831	-0.004	4.0	NoResponse	-1	0.23	n/a	3	29	ButtonPress	Loss	True
286.617	1.45	Lose2	0.7333	n/a	No	2.831	n/a	5.0	NoResponse	-1	0.381	285.998	3	29	Feedback	Loss	True
288.071	2.831	Lose2	0.7333	n/a	No	2.831	n/a	n/a	NoResponse	-1	0.0	n/a	3	29	ISIslide	Loss	True
290.93	0.25	Win2	0.7097	0.0	No	2.77	0.03	n/a	NoResponse	0	n/a	n/a	3	30	Cue	MissedWin	True
291.181	3.9	Win2	0.7097	0.0	No	2.77	0.001	n/a	NoResponse	0	n/a	n/a	3	30	Fixation	MissedWin	True
295.076	0.15	Win2	0.7097	0.004	No	2.77	-0.004	4.0	NoResponse	0	0.221	294.297	3	30	Target	MissedWin	True
295.226	0.55	Win2	0.7097	n/a	No	2.77	n/a	n/a	NoResponse	0	n/a	n/a	3	30	Blank	MissedWin	True
295.297	0.3	Win2	0.7097	0.004	No	2.77	-0.004	4.0	NoResponse	0	0.221	n/a	3	30	ButtonPress	MissedWin	True
295.778	1.45	Win2	0.7097	n/a	No	2.77	n/a	5.0	NoResponse	0	1.221	295.999	3	30	Feedback	MissedWin	True
297.232	2.77	Win2	0.7097	n/a	No	2.77	n/a	n/a	NoResponse	0	0.0	n/a	3	30	ISIslide	MissedWin	True
300.024	0.25	Lose2	0.6875	0.0	No	2.826	0.024	n/a	NoResponse	-1	n/a	n/a	2	31	Cue	Loss	True
300.274	4.05	Lose2	0.6875	0.0	No	2.826	0.0	n/a	NoResponse	-1	n/a	n/a	2	31	Fixation	Loss	True
304.32	0.15	Lose2	0.6875	0.004	No	2.826	-0.004	4.0	NoResponse	-1	0.221	303.541	2	31	Target	Loss	True
304.47	0.55	Lose2	0.6875	n/a	No	2.826	n/a	n/a	NoResponse	-1	n/a	n/a	2	31	Blank	Loss	True
304.541	0.3	Lose2	0.6875	0.004	No	2.826	-0.004	4.0	NoResponse	-1	0.221	n/a	2	31	ButtonPress	Loss	True
305.022	1.45	Lose2	0.6875	n/a	No	2.826	n/a	n/a	NoResponse	-1	n/a	n/a	2	31	Feedback	Loss	True
306.476	2.826	Lose2	0.6875	n/a	No	2.826	n/a	n/a	NoResponse	-1	0.0	n/a	2	31	ISIslide	Loss	True
309.318	0.25	Lose2	0.6667000000000001	0.0	No	2.632	0.018	n/a	NoResponse	-1	n/a	n/a	1	32	Cue	Loss	True
309.569	4.15	Lose2	0.6667000000000001	0.0	No	2.632	0.001	n/a	NoResponse	-1	n/a	n/a	1	32	Fixation	Loss	True
313.715	0.15	Lose2	0.6667000000000001	0.003	No	2.632	-0.003	4.0	NoResponse	-1	0.226	312.941	1	32	Target	Loss	True
313.865	0.55	Lose2	0.6667000000000001	n/a	No	2.632	n/a	n/a	NoResponse	-1	n/a	n/a	1	32	Blank	Loss	True
313.941	0.3	Lose2	0.6667000000000001	0.003	No	2.632	-0.003	4.0	NoResponse	-1	0.226	n/a	1	32	ButtonPress	Loss	True
314.417	1.45	Lose2	0.6667000000000001	n/a	No	2.632	n/a	5.0	NoResponse	-1	0.581	313.998	1	32	Feedback	Loss	True
315.871	2.632	Lose2	0.6667000000000001	n/a	No	2.632	n/a	n/a	NoResponse	-1	0.0	n/a	1	32	ISIslide	Loss	True
318.529	0.25	Win2	0.6470999999999999	0.0	No	2.671	0.029	n/a	NoResponse	0	n/a	n/a	1	33	Cue	MissedWin	True
318.78	4.0	Win2	0.6470999999999999	0.0	No	2.671	0.001	n/a	NoResponse	0	n/a	n/a	1	33	Fixation	MissedWin	True
322.775	0.15	Win2	0.6470999999999999	0.004	No	2.671	-0.004	4.0	NoResponse	0	0.218	321.993	1	33	Target	MissedWin	True
322.925	0.55	Win2	0.6470999999999999	n/a	No	2.671	n/a	n/a	NoResponse	0	n/a	n/a	1	33	Blank	MissedWin	True
322.993	0.3	Win2	0.6470999999999999	0.004	No	2.671	-0.004	4.0	NoResponse	0	0.218	n/a	1	33	ButtonPress	MissedWin	True
323.477	1.45	Win2	0.6470999999999999	n/a	No	2.671	n/a	n/a	NoResponse	0	n/a	n/a	1	33	Feedback	MissedWin	True
324.931	2.671	Win2	0.6470999999999999	n/a	No	2.671	n/a	n/a	NoResponse	0	0.0	n/a	1	33	ISIslide	MissedWin	True
327.623	0.25	Lose2	0.6286	0.0	No	2.627	0.023	n/a	NoResponse	-1	n/a	n/a	0	34	Cue	Loss	True
327.873	4.05	Lose2	0.6286	0.001	No	2.627	0.0	n/a	NoResponse	-1	n/a	n/a	0	34	Fixation	Loss	True
331.919	0.16	Lose2	0.6286	0.004	No	2.627	-0.004	4.0	NoResponse	-1	0.235	331.154	0	34	Target	Loss	True
332.086	0.54	Lose2	0.6286	n/a	No	2.627	n/a	n/a	NoResponse	-1	n/a	n/a	0	34	Blank	Loss	True
332.154	0.3	Lose2	0.6286	0.004	No	2.627	-0.004	4.0	NoResponse	-1	0.235	n/a	0	34	ButtonPress	Loss	True
332.621	1.45	Lose2	0.6286	n/a	No	2.627	n/a	5.0	NoResponse	-1	0.377	331.998	0	34	Feedback	Loss	True
334.075	2.627	Lose2	0.6286	n/a	No	2.627	n/a	n/a	NoResponse	-1	0.0	n/a	0	34	ISIslide	Loss	True
336.717	0.25	Lose2	0.6111	0.0	No	2.683	0.017	n/a	NoResponse	-1	n/a	n/a	-1	35	Cue	Loss	True
336.967	4.0	Lose2	0.6111	0.0	No	2.683	0.0	n/a	NoResponse	-1	n/a	n/a	-1	35	Fixation	Loss	True
340.963	0.17	Lose2	0.6111	0.004	No	2.683	-0.004	4.0	NoResponse	-1	0.219	340.182	-1	35	Target	Loss	True
341.146	0.53	Lose2	0.6111	n/a	No	2.683	n/a	n/a	NoResponse	-1	n/a	n/a	-1	35	Blank	Loss	True
341.182	0.3	Lose2	0.6111	0.004	No	2.683	-0.004	4.0	NoResponse	-1	0.219	n/a	-1	35	ButtonPress	Loss	True
341.665	1.45	Lose2	0.6111	n/a	No	2.683	n/a	5.0	NoResponse	-1	1.333	341.998	-1	35	Feedback	Loss	True
343.119	2.683	Lose2	0.6111	n/a	No	2.683	n/a	n/a	NoResponse	-1	0.0	n/a	-1	35	ISIslide	Loss	True
345.827	0.25	Control	0.5946	0.0	No	2.673	0.027	n/a	NoResponse	0	n/a	n/a	-1	36	Cue	Neutral	True
346.078	4.0	Control	0.5946	0.0	No	2.673	0.001	n/a	NoResponse	0	n/a	n/a	-1	36	Fixation	Neutral	True
350.073	0.18	Control	0.5946	0.004	No	2.673	-0.004	4.0	NoResponse	0	0.258	349.331	-1	36	Target	Neutral	True
350.257	0.52	Control	0.5946	n/a	No	2.673	n/a	n/a	NoResponse	0	n/a	n/a	-1	36	Blank	Neutral	True
350.331	0.3	Control	0.5946	0.004	No	2.673	-0.004	4.0	NoResponse	0	0.258	n/a	-1	36	ButtonPress	Neutral	True
350.775	1.45	Control	0.5946	n/a	No	2.673	n/a	5.0	NoResponse	0	0.222	349.997	-1	36	Feedback	Neutral	True
352.23	2.673	Control	0.5946	n/a	No	2.673	n/a	4.0	NoResponse	0	0.159	n/a	-1	36	ISIslide	Neutral	True
354.904	0.25	Win2	0.5789	0.0	No	2.896	0.004	4.0	NoResponse	0	0.094	353.998	-1	37	Cue	MissedWin	False
354.998	0.3	Win2	0.5789	0.0	No	2.896	0.004	4.0	NoResponse	0	0.094	n/a	-1	37	ButtonPress	MissedWin	False
355.155	4.0	Win2	0.5789	0.0	No	2.896	0.001	n/a	NoResponse	0	n/a	n/a	-1	37	Fixation	MissedWin	False
359.15	0.19	Win2	0.5789	0.004	No	2.896	-0.004	4.0	NoResponse	0	0.24	358.39	-1	37	Target	MissedWin	False
359.351	0.51	Win2	0.5789	n/a	No	2.896	n/a	n/a	NoResponse	0	n/a	n/a	-1	37	Blank	MissedWin	False
359.39	0.3	Win2	0.5789	0.004	No	2.896	-0.004	4.0	NoResponse	0	0.24	n/a	-1	37	ButtonPress	MissedWin	False
359.852	1.45	Win2	0.5789	n/a	No	2.896	n/a	4.0	NoResponse	0	1.134	359.986	-1	37	Feedback	MissedWin	False
360.986	0.3	Win2	0.5789	n/a	No	2.896	n/a	4.0	NoResponse	0	1.134	n/a	-1	37	ButtonPress	MissedWin	False
361.307	2.896	Win2	0.5789	n/a	No	2.896	n/a	4.0	NoResponse	0	0.865	n/a	-1	37	ISIslide	MissedWin	False
364.199	0.25	Lose2	0.5640999999999999	0.0	No	2.851	-0.001	n/a	NoResponse	-1	n/a	n/a	-2	38	Cue	Loss	True
364.449	3.95	Lose2	0.5640999999999999	0.0	No	2.851	0.0	n/a	NoResponse	-1	n/a	n/a	-2	38	Fixation	Loss	True
368.394	0.2	Lose2	0.5640999999999999	0.005	No	2.851	-0.005	4.0	NoResponse	-1	0.213	367.607	-2	38	Target	Loss	True
368.595	0.5	Lose2	0.5640999999999999	n/a	No	2.851	n/a	n/a	NoResponse	-1	n/a	n/a	-2	38	Blank	Loss	True
368.607	0.3	Lose2	0.5640999999999999	0.005	No	2.851	-0.005	4.0	NoResponse	-1	0.213	n/a	-2	38	ButtonPress	Loss	True
369.097	1.45	Lose2	0.5640999999999999	n/a	No	2.851	n/a	n/a	NoResponse	-1	n/a	n/a	-2	38	Feedback	Loss	True
370.551	2.851	Lose2	0.5640999999999999	n/a	No	2.851	n/a	n/a	NoResponse	-1	0.0	n/a	-2	38	ISIslide	Loss	True
373.426	0.25	Win2	0.575	0.0	Yes	2.974	0.026	n/a	GoodResponse	1	n/a	n/a	-1	39	Cue	Win	True
373.677	4.1	Win2	0.575	0.0	Yes	2.974	0.001	n/a	GoodResponse	1	n/a	n/a	-1	39	Fixation	Win	True
377.772	0.21	Win2	0.575	0.004	Yes	2.974	-0.004	4.0	GoodResponse	1	0.2	376.972	-1	39	Target	Win	True
377.972	0.3	Win2	0.575	0.004	Yes	2.974	-0.004	4.0	GoodResponse	1	0.2	n/a	-1	39	ButtonPress	Win	True
377.99	0.49	Win2	0.575	n/a	Yes	2.974	n/a	n/a	GoodResponse	1	n/a	n/a	-1	39	Blank	Win	True
378.475	1.45	Win2	0.575	n/a	Yes	2.974	n/a	5.0	GoodResponse	1	0.523	377.998	-1	39	Feedback	Win	True
379.929	2.974	Win2	0.575	n/a	Yes	2.974	n/a	n/a	GoodResponse	1	0.0	n/a	-1	39	ISIslide	Win	True
382.921	0.25	Win2	0.5854	0.0	Yes	2.729	0.021	n/a	GoodResponse	1	n/a	n/a	0	40	Cue	Win	True
383.172	3.95	Win2	0.5854	0.0	Yes	2.729	0.001	n/a	GoodResponse	1	n/a	n/a	0	40	Fixation	Win	True
387.117	0.22	Win2	0.5854	0.004	Yes	2.729	-0.004	4.0	GoodResponse	1	0.213	386.33	0	40	Target	Win	True
387.33	0.3	Win2	0.5854	0.004	Yes	2.729	-0.004	4.0	GoodResponse	1	0.213	n/a	0	40	ButtonPress	Win	True
387.351	0.48	Win2	0.5854	n/a	Yes	2.729	n/a	n/a	GoodResponse	1	n/a	n/a	0	40	Blank	Win	True
387.819	1.45	Win2	0.5854	n/a	Yes	2.729	n/a	5.0	GoodResponse	1	1.178	387.997	0	40	Feedback	Win	True
389.273	2.729	Win2	0.5854	n/a	Yes	2.729	n/a	n/a	GoodResponse	1	0.0	n/a	0	40	ISIslide	Win	True
392.032	0.25	Win2	0.5714	0.0	No	2.768	0.032	n/a	NoResponse	0	n/a	n/a	0	41	Cue	MissedWin	True
392.282	3.9	Win2	0.5714	0.001	No	2.768	0.0	n/a	NoResponse	0	n/a	n/a	0	41	Fixation	MissedWin	True
396.194	0.23	Win2	0.5714	0.0	No	2.768	0.012	4.0	NoResponse	0	0.23	395.424	0	41	Target	MissedWin	True
396.411	0.47	Win2	0.5714	n/a	No	2.768	n/a	n/a	NoResponse	0	n/a	n/a	0	41	Blank	MissedWin	True
396.424	0.3	Win2	0.5714	0.0	No	2.768	0.012	4.0	NoResponse	0	0.23	n/a	0	41	ButtonPress	MissedWin	True
396.88	1.45	Win2	0.5714	n/a	No	2.768	n/a	5.0	NoResponse	0	0.117	395.997	0	41	Feedback	MissedWin	True
398.334	2.768	Win2	0.5714	n/a	No	2.768	n/a	n/a	NoResponse	0	0.0	n/a	0	41	ISIslide	MissedWin	True
401.126	0.25	Control	0.5581	0.0	No	2.924	0.026	n/a	NoResponse	0	n/a	n/a	0	42	Cue	Neutral	True
401.376	3.85	Control	0.5581	0.0	No	2.924	0.0	n/a	NoResponse	0	n/a	n/a	0	42	Fixation	Neutral	True
405.238	0.24	Control	0.5581	0.0	No	2.924	0.012	4.0	NoResponse	0	0.378	404.616	0	42	Target	Neutral	True
405.472	0.46	Control	0.5581	n/a	No	2.924	n/a	n/a	NoResponse	0	n/a	n/a	0	42	Blank	Neutral	True
405.616	0.3	Control	0.5581	0.0	No	2.924	0.012	4.0	NoResponse	0	0.378	n/a	0	42	ButtonPress	Neutral	True
405.923	1.45	Control	0.5581	n/a	No	2.924	n/a	5.0	NoResponse	0	1.074	405.997	0	42	Feedback	Neutral	True
407.378	2.924	Control	0.5581	n/a	No	2.924	n/a	n/a	NoResponse	0	0.0	n/a	0	42	ISIslide	Neutral	True
410.32	0.25	Win2	0.5682	0.0	Yes	3.18	0.02	n/a	GoodResponse	1	n/a	n/a	1	43	Cue	Win	True
410.57	4.0	Win2	0.5682	0.001	Yes	3.18	0.0	n/a	GoodResponse	1	n/a	n/a	1	43	Fixation	Win	True
414.566	0.25	Win2	0.5682	0.004	Yes	3.18	-0.004	4.0	GoodResponse	1	0.233	413.799	1	43	Target	Win	True
414.799	0.3	Win2	0.5682	0.004	Yes	3.18	-0.004	4.0	GoodResponse	1	0.233	n/a	1	43	ButtonPress	Win	True
414.816	0.45	Win2	0.5682	n/a	Yes	3.18	n/a	n/a	GoodResponse	1	n/a	n/a	1	43	Blank	Win	True
415.268	1.45	Win2	0.5682	n/a	Yes	3.18	n/a	n/a	GoodResponse	1	n/a	n/a	1	43	Feedback	Win	True
416.722	3.18	Win2	0.5682	n/a	Yes	3.18	n/a	n/a	GoodResponse	1	0.0	n/a	1	43	ISIslide	Win	True
419.932	0.25	Win2	0.5778	0.0	Yes	2.968	0.032	n/a	GoodResponse	1	n/a	n/a	2	44	Cue	Win	True
420.182	4.0	Win2	0.5778	0.001	Yes	2.968	0.0	n/a	GoodResponse	1	n/a	n/a	2	44	Fixation	Win	True
424.178	0.26	Win2	0.5778	0.004	Yes	2.968	-0.004	4.0	GoodResponse	1	0.227	423.405	2	44	Target	Win	True
424.405	0.3	Win2	0.5778	0.004	Yes	2.968	-0.004	4.0	GoodResponse	1	0.227	n/a	2	44	ButtonPress	Win	True
424.445	0.44	Win2	0.5778	n/a	Yes	2.968	n/a	n/a	GoodResponse	1	n/a	n/a	2	44	Blank	Win	True
424.88	1.45	Win2	0.5778	n/a	Yes	2.968	n/a	5.0	GoodResponse	1	0.116	423.996	2	44	Feedback	Win	True
426.334	2.968	Win2	0.5778	n/a	Yes	2.968	n/a	n/a	GoodResponse	1	0.0	n/a	2	44	ISIslide	Win	True
429.326	0.25	Control	0.5870000000000001	0.001	Yes	2.874	0.026	n/a	GoodResponse	0	n/a	n/a	2	45	Cue	Neutral	True
429.577	4.1	Control	0.5870000000000001	0.0	Yes	2.874	0.001	n/a	GoodResponse	0	n/a	n/a	2	45	Fixation	Neutral	True
433.673	0.27	Control	0.5870000000000001	0.003	Yes	2.874	-0.003	4.0	GoodResponse	0	0.214	432.887	2	45	Target	Neutral	True
433.887	0.3	Control	0.5870000000000001	0.003	Yes	2.874	-0.003	4.0	GoodResponse	0	0.214	n/a	2	45	ButtonPress	Neutral	True
433.957	0.43	Control	0.5870000000000001	n/a	Yes	2.874	n/a	n/a	GoodResponse	0	n/a	n/a	2	45	Blank	Neutral	True
434.375	1.45	Control	0.5870000000000001	n/a	Yes	2.874	n/a	5.0	GoodResponse	0	0.621	433.996	2	45	Feedback	Neutral	True
435.829	2.874	Control	0.5870000000000001	n/a	Yes	2.874	n/a	n/a	GoodResponse	0	0.0	n/a	2	45	ISIslide	Neutral	True
438.721	0.25	Lose2	0.5957	0.0	Yes	3.379	0.021	n/a	GoodResponse	0	n/a	n/a	2	46	Cue	AvoidedLoss	True
438.972	4.0	Lose2	0.5957	0.0	Yes	3.379	0.001	n/a	GoodResponse	0	n/a	n/a	2	46	Fixation	AvoidedLoss	True
442.967	0.28	Lose2	0.5957	0.004	Yes	3.379	-0.004	4.0	GoodResponse	0	0.221	442.188	2	46	Target	AvoidedLoss	True
443.188	0.3	Lose2	0.5957	0.004	Yes	3.379	-0.004	4.0	GoodResponse	0	0.221	n/a	2	46	ButtonPress	AvoidedLoss	True
443.251	0.42	Lose2	0.5957	n/a	Yes	3.379	n/a	n/a	GoodResponse	0	n/a	n/a	2	46	Blank	AvoidedLoss	True
443.669	1.45	Lose2	0.5957	n/a	Yes	3.379	n/a	5.0	GoodResponse	0	1.328	443.997	2	46	Feedback	AvoidedLoss	True
445.124	3.379	Lose2	0.5957	n/a	Yes	3.379	n/a	n/a	GoodResponse	0	0.0	n/a	2	46	ISIslide	AvoidedLoss	True
448.517	0.25	Lose2	0.5832999999999999	0.0	No	2.683	0.017	n/a	NoResponse	-1	n/a	n/a	1	47	Cue	Loss	False
448.768	4.0	Lose2	0.5832999999999999	0.0	No	2.683	0.001	n/a	NoResponse	-1	n/a	n/a	1	47	Fixation	Loss	False
452.763	0.29	Lose2	0.5832999999999999	0.004	No	2.683	-0.004	n/a	NoResponse	-1	n/a	n/a	1	47	Target	Loss	False
453.064	0.41	Lose2	0.5832999999999999	n/a	No	2.683	n/a	n/a	NoResponse	-1	n/a	n/a	1	47	Blank	Loss	False
453.465	1.45	Lose2	0.5832999999999999	n/a	No	2.683	n/a	n/a	NoResponse	-1	n/a	n/a	1	47	Feedback	Loss	False
454.92	2.683	Lose2	0.5832999999999999	n/a	No	2.683	n/a	n/a	NoResponse	-1	0.0	n/a	1	47	ISIslide	Loss	False
457.628	0.25	Lose2	0.5918	0.0	Yes	3.022	0.028	n/a	GoodResponse	0	n/a	n/a	1	48	Cue	AvoidedLoss	True
457.878	3.95	Lose2	0.5918	0.0	Yes	3.022	0.0	n/a	GoodResponse	0	n/a	n/a	1	48	Fixation	AvoidedLoss	True
461.824	0.3	Lose2	0.5918	0.004	Yes	3.022	-0.004	4.0	GoodResponse	0	0.206	461.03	1	48	Target	AvoidedLoss	True
462.03	0.3	Lose2	0.5918	0.004	Yes	3.022	-0.004	4.0	GoodResponse	0	0.206	n/a	1	48	ButtonPress	AvoidedLoss	True
462.124	0.4	Lose2	0.5918	n/a	Yes	3.022	n/a	n/a	GoodResponse	0	n/a	n/a	1	48	Blank	AvoidedLoss	True
462.526	1.45	Lose2	0.5918	n/a	Yes	3.022	n/a	5.0	GoodResponse	0	0.471	461.997	1	48	Feedback	AvoidedLoss	True
463.98	3.022	Lose2	0.5918	n/a	Yes	3.022	n/a	n/a	GoodResponse	0	0.0	n/a	1	48	ISIslide	AvoidedLoss	True
467.022	0.25	Control	0.6	0.0	Yes	2.878	0.022	n/a	GoodResponse	0	n/a	n/a	1	49	Cue	Neutral	True
467.273	4.0	Control	0.6	0.0	Yes	2.878	0.001	n/a	GoodResponse	0	n/a	n/a	1	49	Fixation	Neutral	True
471.268	0.31	Control	0.6	0.004	Yes	2.878	-0.004	4.0	GoodResponse	0	0.226	470.494	1	49	Target	Neutral	True
471.494	0.3	Control	0.6	0.004	Yes	2.878	-0.004	4.0	GoodResponse	0	0.226	n/a	1	49	ButtonPress	Neutral	True
471.586	0.39	Control	0.6	n/a	Yes	2.878	n/a	n/a	GoodResponse	0	n/a	n/a	1	49	Blank	Neutral	True
471.97	1.45	Control	0.6	n/a	Yes	2.878	n/a	5.0	GoodResponse	0	1.026	471.996	1	49	Feedback	Neutral	True
473.425	2.878	Control	0.6	n/a	Yes	2.878	n/a	n/a	GoodResponse	0	0.0	n/a	1	49	ISIslide	Neutral	True
476.317	0.25	Control	0.6078	0.0	Yes	2.783	0.017	n/a	GoodResponse	0	n/a	n/a	1	50	Cue	Neutral	True
476.568	4.0	Control	0.6078	0.0	Yes	2.783	0.001	n/a	GoodResponse	0	n/a	n/a	1	50	Fixation	Neutral	True
480.563	0.32	Control	0.6078	0.004	Yes	2.783	-0.004	4.0	GoodResponse	0	0.219	479.782	1	50	Target	Neutral	True
480.782	0.3	Control	0.6078	0.004	Yes	2.783	-0.004	4.0	GoodResponse	0	0.219	n/a	1	50	ButtonPress	Neutral	True
480.897	0.38	Control	0.6078	n/a	Yes	2.783	n/a	n/a	GoodResponse	0	n/a	n/a	1	50	Blank	Neutral	True
481.265	1.45	Control	0.6078	n/a	Yes	2.783	n/a	n/a	GoodResponse	0	n/a	n/a	1	50	Feedback	Neutral	True
482.719	2.783	Control	0.6078	n/a	Yes	2.783	n/a	n/a	GoodResponse	0	0.0	n/a	1	50	ISIslide	Neutral	True
485.528	0.25	Control	0.6154	0.0	Yes	2.722	0.028	n/a	GoodResponse	0	n/a	n/a	1	51	Cue	Neutral	True
485.778	3.95	Control	0.6154	0.0	Yes	2.722	0.0	n/a	GoodResponse	0	n/a	n/a	1	51	Fixation	Neutral	True
489.724	0.33	Control	0.6154	0.004	Yes	2.722	-0.004	4.0	GoodResponse	0	0.229	488.953	1	51	Target	Neutral	True
489.953	0.3	Control	0.6154	0.004	Yes	2.722	-0.004	4.0	GoodResponse	0	0.229	n/a	1	51	ButtonPress	Neutral	True
490.058	0.37	Control	0.6154	n/a	Yes	2.722	n/a	n/a	GoodResponse	0	n/a	n/a	1	51	Blank	Neutral	True
490.426	1.45	Control	0.6154	n/a	Yes	2.722	n/a	5.0	GoodResponse	0	0.57	489.996	1	51	Feedback	Neutral	True
491.88	2.722	Control	0.6154	n/a	Yes	2.722	n/a	n/a	GoodResponse	0	0.0	n/a	1	51	ISIslide	Neutral	True
494.621	0.25	Control	0.6225999999999999	0.001	Yes	2.629	0.021	n/a	GoodResponse	0	n/a	n/a	1	52	Cue	Neutral	True
494.872	4.05	Control	0.6225999999999999	0.0	Yes	2.629	0.001	n/a	GoodResponse	0	n/a	n/a	1	52	Fixation	Neutral	True
498.918	0.34	Control	0.6225999999999999	0.003	Yes	2.629	-0.003	4.0	GoodResponse	0	0.219	498.137	1	52	Target	Neutral	True
499.137	0.3	Control	0.6225999999999999	0.003	Yes	2.629	-0.003	4.0	GoodResponse	0	0.219	n/a	1	52	ButtonPress	Neutral	True
499.269	0.36	Control	0.6225999999999999	n/a	Yes	2.629	n/a	n/a	GoodResponse	0	n/a	n/a	1	52	Blank	Neutral	True
499.62	1.45	Control	0.6225999999999999	n/a	Yes	2.629	n/a	5.0	GoodResponse	0	1.375	499.995	1	52	Feedback	Neutral	True
501.074	2.629	Control	0.6225999999999999	n/a	Yes	2.629	n/a	n/a	GoodResponse	0	0.0	n/a	1	52	ISIslide	Neutral	True
503.732	0.25	Win2	0.6296	0.0	Yes	2.918	0.032	n/a	GoodResponse	1	n/a	n/a	2	53	Cue	Win	True
503.983	4.05	Win2	0.6296	0.0	Yes	2.918	0.001	n/a	GoodResponse	1	n/a	n/a	2	53	Fixation	Win	True
508.028	0.35	Win2	0.6296	0.004	Yes	2.918	-0.004	4.0	GoodResponse	1	0.229	507.257	2	53	Target	Win	True
508.257	0.3	Win2	0.6296	0.004	Yes	2.918	-0.004	4.0	GoodResponse	1	0.229	n/a	2	53	ButtonPress	Win	True
508.379	0.35	Win2	0.6296	n/a	Yes	2.918	n/a	n/a	GoodResponse	1	n/a	n/a	2	53	Blank	Win	True
508.73	1.45	Win2	0.6296	n/a	Yes	2.918	n/a	5.0	GoodResponse	1	0.265	507.995	2	53	Feedback	Win	True
510.185	2.918	Win2	0.6296	n/a	Yes	2.918	n/a	n/a	GoodResponse	1	0.0	n/a	2	53	ISIslide	Win	True
513.127	0.25	Win2	0.6364	0.0	Yes	2.723	0.027	n/a	GoodResponse	1	n/a	n/a	3	54	Cue	Win	True
513.377	3.95	Win2	0.6364	0.001	Yes	2.723	0.0	n/a	GoodResponse	1	n/a	n/a	3	54	Fixation	Win	True
517.323	0.36	Win2	0.6364	0.004	Yes	2.723	-0.004	4.0	GoodResponse	1	0.21	516.533	3	54	Target	Win	True
517.533	0.3	Win2	0.6364	0.004	Yes	2.723	-0.004	4.0	GoodResponse	1	0.21	n/a	3	54	ButtonPress	Win	True
517.69	0.34	Win2	0.6364	n/a	Yes	2.723	n/a	n/a	GoodResponse	1	n/a	n/a	3	54	Blank	Win	True
518.025	1.45	Win2	0.6364	n/a	Yes	2.723	n/a	5.0	GoodResponse	1	0.971	517.996	3	54	Feedback	Win	True
519.479	2.723	Win2	0.6364	n/a	Yes	2.723	n/a	n/a	GoodResponse	1	0.0	n/a	3	54	ISIslide	Win	True
522.221	0.25	Control	0.6429	0.0	Yes	3.029	0.021	n/a	GoodResponse	0	n/a	n/a	3	55	Cue	Neutral	True
522.471	3.95	Control	0.6429	0.0	Yes	3.029	0.0	n/a	GoodResponse	0	n/a	n/a	3	55	Fixation	Neutral	True
526.433	0.37	Control	0.6429	0.0	Yes	3.029	0.012	4.0	GoodResponse	0	0.253	525.686	3	55	Target	Neutral	True
526.686	0.3	Control	0.6429	0.0	Yes	3.029	0.012	4.0	GoodResponse	0	0.253	n/a	3	55	ButtonPress	Neutral	True
526.801	0.33	Control	0.6429	n/a	Yes	3.029	n/a	n/a	GoodResponse	0	n/a	n/a	3	55	Blank	Neutral	True
527.119	1.45	Control	0.6429	n/a	Yes	3.029	n/a	n/a	GoodResponse	0	n/a	n/a	3	55	Feedback	Neutral	True
528.573	3.029	Control	0.6429	n/a	Yes	3.029	n/a	n/a	GoodResponse	0	0.0	n/a	3	55	ISIslide	Neutral	True
531.615	0.25	Control	0.6491	0.0	Yes	2.835	0.015	n/a	GoodResponse	0	n/a	n/a	3	56	Cue	Neutral	True
531.866	3.95	Control	0.6491	0.0	Yes	2.835	0.001	n/a	GoodResponse	0	n/a	n/a	3	56	Fixation	Neutral	True
535.811	0.38	Control	0.6491	0.004	Yes	2.835	-0.004	4.0	GoodResponse	0	0.228	535.039	3	56	Target	Neutral	True
536.039	0.3	Control	0.6491	0.004	Yes	2.835	-0.004	4.0	GoodResponse	0	0.228	n/a	3	56	ButtonPress	Neutral	True
536.196	0.32	Control	0.6491	n/a	Yes	2.835	n/a	n/a	GoodResponse	0	n/a	n/a	3	56	Blank	Neutral	True
536.513	1.45	Control	0.6491	n/a	Yes	2.835	n/a	5.0	GoodResponse	0	0.482	535.995	3	56	Feedback	Neutral	True
537.968	2.835	Control	0.6491	n/a	Yes	2.835	n/a	n/a	GoodResponse	0	0.0	n/a	3	56	ISIslide	Neutral	True
540.826	0.25	Control	0.6552	0.0	Yes	3.474	0.026	n/a	GoodResponse	0	n/a	n/a	3	57	Cue	Neutral	True
541.077	4.0	Control	0.6552	0.0	Yes	3.474	0.001	n/a	GoodResponse	0	n/a	n/a	3	57	Fixation	Neutral	True
545.072	0.39	Control	0.6552	0.004	Yes	3.474	-0.004	4.0	GoodResponse	0	0.307	544.379	3	57	Target	Neutral	True
545.379	0.3	Control	0.6552	0.004	Yes	3.474	-0.004	4.0	GoodResponse	0	0.307	n/a	3	57	ButtonPress	Neutral	True
545.473	0.31	Control	0.6552	n/a	Yes	3.474	n/a	n/a	GoodResponse	0	n/a	n/a	3	57	Blank	Neutral	True
545.774	1.45	Control	0.6552	n/a	Yes	3.474	n/a	5.0	GoodResponse	0	1.221	545.995	3	57	Feedback	Neutral	True
547.229	3.474	Control	0.6552	n/a	Yes	3.474	n/a	n/a	GoodResponse	0	0.0	n/a	3	57	ISIslide	Neutral	True
550.722	0.25	Win2	0.6609999999999999	0.0	Yes	2.728	0.022	n/a	GoodResponse	1	n/a	n/a	4	58	Cue	Win	False
550.973	4.05	Win2	0.6609999999999999	0.0	Yes	2.728	0.001	4.0	GoodResponse	1	0.016	549.989	4	58	Fixation	Win	False
550.989	0.3	Win2	0.6609999999999999	0.0	Yes	2.728	0.001	4.0	GoodResponse	1	0.016	n/a	4	58	ButtonPress	Win	False
555.019	0.39	Win2	0.6609999999999999	0.003	Yes	2.728	-0.003	4.0	GoodResponse	1	0.197	554.216	4	58	Target	Win	False
555.216	0.3	Win2	0.6609999999999999	0.003	Yes	2.728	-0.003	4.0	GoodResponse	1	0.197	n/a	4	58	ButtonPress	Win	False
555.42	0.31	Win2	0.6609999999999999	n/a	Yes	2.728	n/a	n/a	GoodResponse	1	n/a	n/a	4	58	Blank	Win	False
555.721	1.45	Win2	0.6609999999999999	n/a	Yes	2.728	n/a	5.0	GoodResponse	1	1.274	555.995	4	58	Feedback	Win	False
557.175	2.728	Win2	0.6609999999999999	n/a	Yes	2.728	n/a	n/a	GoodResponse	1	0.0	n/a	4	58	ISIslide	Win	False
559.916	0.25	Lose2	0.6667000000000001	0.001	Yes	2.684	0.016	n/a	GoodResponse	0	n/a	n/a	4	59	Cue	AvoidedLoss	True
560.167	4.0	Lose2	0.6667000000000001	0.0	Yes	2.684	0.001	n/a	GoodResponse	0	n/a	n/a	4	59	Fixation	AvoidedLoss	True
564.162	0.39	Lose2	0.6667000000000001	0.004	Yes	2.684	-0.004	4.0	GoodResponse	0	0.229	563.391	4	59	Target	AvoidedLoss	True
564.391	0.3	Lose2	0.6667000000000001	0.004	Yes	2.684	-0.004	4.0	GoodResponse	0	0.229	n/a	4	59	ButtonPress	AvoidedLoss	True
564.564	0.31	Lose2	0.6667000000000001	n/a	Yes	2.684	n/a	n/a	GoodResponse	0	n/a	n/a	4	59	Blank	AvoidedLoss	True
564.865	1.45	Lose2	0.6667000000000001	n/a	Yes	2.684	n/a	5.0	GoodResponse	0	0.13	563.995	4	59	Feedback	AvoidedLoss	True
566.319	2.684	Lose2	0.6667000000000001	n/a	Yes	2.684	n/a	n/a	GoodResponse	0	0.0	n/a	4	59	ISIslide	AvoidedLoss	True
569.027	0.25	Control	0.6720999999999999	0.0	Yes	2.673	0.027	n/a	GoodResponse	0	n/a	n/a	4	60	Cue	Neutral	True
569.278	4.0	Control	0.6720999999999999	0.0	Yes	2.673	0.001	n/a	GoodResponse	0	n/a	n/a	4	60	Fixation	Neutral	True
573.273	0.38	Control	0.6720999999999999	0.004	Yes	2.673	-0.004	4.0	GoodResponse	0	0.229	572.502	4	60	Target	Neutral	True
573.502	0.3	Control	0.6720999999999999	0.004	Yes	2.673	-0.004	4.0	GoodResponse	0	0.229	n/a	4	60	ButtonPress	Neutral	True
573.658	0.32	Control	0.6720999999999999	n/a	Yes	2.673	n/a	n/a	GoodResponse	0	n/a	n/a	4	60	Blank	Neutral	True
573.975	1.45	Control	0.6720999999999999	n/a	Yes	2.673	n/a	5.0	GoodResponse	0	1.019	573.994	4	60	Feedback	Neutral	True
575.429	2.673	Control	0.6720999999999999	n/a	Yes	2.673	n/a	n/a	GoodResponse	0	0.0	n/a	4	60	ISIslide	Neutral	True
578.121	0.25	Lose2	0.6774	0.0	Yes	2.979	0.021	n/a	GoodResponse	0	n/a	n/a	4	61	Cue	AvoidedLoss	True
578.372	4.0	Lose2	0.6774	0.0	Yes	2.979	0.001	n/a	GoodResponse	0	n/a	n/a	4	61	Fixation	AvoidedLoss	True
582.367	0.37	Lose2	0.6774	0.004	Yes	2.979	-0.004	4.0	GoodResponse	0	0.229	581.596	4	61	Target	AvoidedLoss	True
582.596	0.3	Lose2	0.6774	0.004	Yes	2.979	-0.004	4.0	GoodResponse	0	0.229	n/a	4	61	ButtonPress	AvoidedLoss	True
582.751	0.33	Lose2	0.6774	n/a	Yes	2.979	n/a	n/a	GoodResponse	0	n/a	n/a	4	61	Blank	AvoidedLoss	True
583.069	1.45	Lose2	0.6774	n/a	Yes	2.979	n/a	n/a	GoodResponse	0	n/a	n/a	4	61	Feedback	AvoidedLoss	True
584.523	2.979	Lose2	0.6774	n/a	Yes	2.979	n/a	n/a	GoodResponse	0	0.0	n/a	4	61	ISIslide	AvoidedLoss	True
587.516	0.25	Lose2	0.6825	0.0	Yes	2.884	0.016	n/a	GoodResponse	0	n/a	n/a	4	62	Cue	AvoidedLoss	True
587.766	3.9	Lose2	0.6825	0.0	Yes	2.884	0.0	n/a	GoodResponse	0	n/a	n/a	4	62	Fixation	AvoidedLoss	True
591.678	0.36	Lose2	0.6825	0.0	Yes	2.884	0.012	4.0	GoodResponse	0	0.238	590.916	4	62	Target	AvoidedLoss	True
591.916	0.3	Lose2	0.6825	0.0	Yes	2.884	0.012	4.0	GoodResponse	0	0.238	n/a	4	62	ButtonPress	AvoidedLoss	True
592.029	0.34	Lose2	0.6825	n/a	Yes	2.884	n/a	n/a	GoodResponse	0	n/a	n/a	4	62	Blank	AvoidedLoss	True
592.363	1.45	Lose2	0.6825	n/a	Yes	2.884	n/a	5.0	GoodResponse	0	0.632	591.995	4	62	Feedback	AvoidedLoss	True
593.818	2.884	Lose2	0.6825	n/a	Yes	2.884	n/a	n/a	GoodResponse	0	0.0	n/a	4	62	ISIslide	AvoidedLoss	True
596.726	0.25	Lose2	0.6875	0.0	Yes	2.624	0.026	n/a	GoodResponse	0	n/a	n/a	4	63	Cue	AvoidedLoss	True
596.977	4.05	Lose2	0.6875	0.0	Yes	2.624	0.001	n/a	GoodResponse	0	n/a	n/a	4	63	Fixation	AvoidedLoss	True
601.023	0.35	Lose2	0.6875	0.003	Yes	2.624	-0.003	4.0	GoodResponse	0	0.247	600.27	4	63	Target	AvoidedLoss	True
601.27	0.3	Lose2	0.6875	0.003	Yes	2.624	-0.003	4.0	GoodResponse	0	0.247	n/a	4	63	ButtonPress	AvoidedLoss	True
601.374	0.35	Lose2	0.6875	n/a	Yes	2.624	n/a	n/a	GoodResponse	0	n/a	n/a	4	63	Blank	AvoidedLoss	True
601.725	1.45	Lose2	0.6875	n/a	Yes	2.624	n/a	5.0	GoodResponse	0	1.27	601.995	4	63	Feedback	AvoidedLoss	True
603.179	2.624	Lose2	0.6875	n/a	Yes	2.624	n/a	n/a	GoodResponse	0	0.0	n/a	4	63	ISIslide	AvoidedLoss	True
605.82	0.25	Win2	0.6923	0.0	Yes	3.13	0.02	n/a	GoodResponse	1	n/a	n/a	5	64	Cue	Win	True
606.071	4.15	Win2	0.6923	0.0	Yes	3.13	0.001	n/a	GoodResponse	1	n/a	n/a	5	64	Fixation	Win	True
610.217	0.34	Win2	0.6923	0.003	Yes	3.13	-0.003	4.0	GoodResponse	1	0.236	609.453	5	64	Target	Win	True
610.453	0.3	Win2	0.6923	0.003	Yes	3.13	-0.003	4.0	GoodResponse	1	0.236	n/a	5	64	ButtonPress	Win	True
610.568	0.36	Win2	0.6923	n/a	Yes	3.13	n/a	n/a	GoodResponse	1	n/a	n/a	5	64	Blank	Win	True
610.919	1.45	Win2	0.6923	n/a	Yes	3.13	n/a	5.0	GoodResponse	1	0.075	609.994	5	64	Feedback	Win	True
612.373	3.13	Win2	0.6923	n/a	Yes	3.13	n/a	n/a	GoodResponse	1	0.0	n/a	5	64	ISIslide	Win	True
615.516	0.25	Control	0.6970000000000001	0.0	Yes	2.784	0.016	n/a	GoodResponse	0	n/a	n/a	5	65	Cue	Neutral	True
615.767	4.0	Control	0.6970000000000001	0.0	Yes	2.784	0.001	n/a	GoodResponse	0	n/a	n/a	5	65	Fixation	Neutral	True
619.762	0.33	Control	0.6970000000000001	0.004	Yes	2.784	-0.004	4.0	GoodResponse	0	0.244	619.006	5	65	Target	Neutral	True
620.006	0.3	Control	0.6970000000000001	0.004	Yes	2.784	-0.004	4.0	GoodResponse	0	0.244	n/a	5	65	ButtonPress	Neutral	True
620.096	0.37	Control	0.6970000000000001	n/a	Yes	2.784	n/a	n/a	GoodResponse	0	n/a	n/a	5	65	Blank	Neutral	True
620.464	1.45	Control	0.6970000000000001	n/a	Yes	2.784	n/a	5.0	GoodResponse	0	0.53	619.994	5	65	Feedback	Neutral	True
621.918	2.784	Control	0.6970000000000001	n/a	Yes	2.784	n/a	n/a	GoodResponse	0	0.0	n/a	5	65	ISIslide	Neutral	True
624.727	0.25	Win2	0.7015	0.0	Yes	2.773	0.027	n/a	GoodResponse	1	n/a	n/a	6	66	Cue	Win	True
624.977	3.9	Win2	0.7015	0.001	Yes	2.773	0.0	n/a	GoodResponse	1	n/a	n/a	6	66	Fixation	Win	True
628.889	0.32	Win2	0.7015	0.0	Yes	2.773	0.012	4.0	GoodResponse	1	0.244	628.133	6	66	Target	Win	True
629.133	0.3	Win2	0.7015	0.0	Yes	2.773	0.012	4.0	GoodResponse	1	0.244	n/a	6	66	ButtonPress	Win	True
629.207	0.38	Win2	0.7015	n/a	Yes	2.773	n/a	n/a	GoodResponse	1	n/a	n/a	6	66	Blank	Win	True
629.574	1.45	Win2	0.7015	n/a	Yes	2.773	n/a	5.0	GoodResponse	1	1.42	629.994	6	66	Feedback	Win	True
631.029	2.773	Win2	0.7015	n/a	Yes	2.773	n/a	n/a	GoodResponse	1	0.0	n/a	6	66	ISIslide	Win	True
633.821	0.25	Control	0.6912	0.0	No	2.729	0.021	n/a	NoResponse	0	n/a	n/a	6	67	Cue	Neutral	False
634.071	3.95	Control	0.6912	0.0	No	2.729	0.0	n/a	NoResponse	0	n/a	n/a	6	67	Fixation	Neutral	False
638.033	0.31	Control	0.6912	0.0	No	2.729	0.012	n/a	NoResponse	0	n/a	n/a	6	67	Target	Neutral	False
638.334	0.39	Control	0.6912	n/a	No	2.729	n/a	n/a	NoResponse	0	n/a	n/a	6	67	Blank	Neutral	False
638.718	1.45	Control	0.6912	n/a	No	2.729	n/a	5.0	NoResponse	0	0.276	637.994	6	67	Feedback	Neutral	False
640.173	2.729	Control	0.6912	n/a	No	2.729	n/a	n/a	NoResponse	0	0.0	n/a	6	67	ISIslide	Neutral	False
642.931	0.25	Win2	0.6957	0.0	Yes	3.069	0.031	n/a	GoodResponse	1	n/a	n/a	7	68	Cue	Win	True
643.182	4.0	Win2	0.6957	0.0	Yes	3.069	0.001	n/a	GoodResponse	1	n/a	n/a	7	68	Fixation	Win	True
647.177	0.3	Win2	0.6957	0.004	Yes	3.069	-0.004	4.0	GoodResponse	1	0.234	646.411	7	68	Target	Win	True
647.411	0.3	Win2	0.6957	0.004	Yes	3.069	-0.004	4.0	GoodResponse	1	0.234	n/a	7	68	ButtonPress	Win	True
647.478	0.4	Win2	0.6957	n/a	Yes	3.069	n/a	n/a	GoodResponse	1	n/a	n/a	7	68	Blank	Win	True
647.879	1.45	Win2	0.6957	n/a	Yes	3.069	n/a	5.0	GoodResponse	1	1.114	647.993	7	68	Feedback	Win	True
649.333	3.069	Win2	0.6957	n/a	Yes	3.069	n/a	n/a	GoodResponse	1	0.0	n/a	7	68	ISIslide	Win	True
652.426	0.25	Win2	0.7	0.0	Yes	3.224	0.026	n/a	GoodResponse	1	n/a	n/a	8	69	Cue	Win	True
652.677	3.95	Win2	0.7	0.0	Yes	3.224	0.001	n/a	GoodResponse	1	n/a	n/a	8	69	Fixation	Win	True
656.622	0.29	Win2	0.7	0.004	Yes	3.224	-0.004	4.0	GoodResponse	1	0.244	655.866	8	69	Target	Win	True
656.866	0.3	Win2	0.7	0.004	Yes	3.224	-0.004	4.0	GoodResponse	1	0.244	n/a	8	69	ButtonPress	Win	True
656.923	0.41	Win2	0.7	n/a	Yes	3.224	n/a	n/a	GoodResponse	1	n/a	n/a	8	69	Blank	Win	True
657.324	1.45	Win2	0.7	n/a	Yes	3.224	n/a	n/a	GoodResponse	1	n/a	n/a	8	69	Feedback	Win	True
658.778	3.224	Win2	0.7	n/a	Yes	3.224	n/a	n/a	GoodResponse	1	0.0	n/a	8	69	ISIslide	Win	True
662.021	0.25	Lose2	0.7042	0.0	Yes	3.029	0.021	n/a	GoodResponse	0	n/a	n/a	8	70	Cue	AvoidedLoss	True
662.272	4.05	Lose2	0.7042	0.0	Yes	3.029	0.001	n/a	GoodResponse	0	n/a	n/a	8	70	Fixation	AvoidedLoss	True
666.318	0.28	Lose2	0.7042	0.003	Yes	3.029	-0.003	4.0	GoodResponse	0	0.225	665.543	8	70	Target	AvoidedLoss	True
666.543	0.3	Lose2	0.7042	0.003	Yes	3.029	-0.003	4.0	GoodResponse	0	0.225	n/a	8	70	ButtonPress	AvoidedLoss	True
666.602	0.42	Lose2	0.7042	n/a	Yes	3.029	n/a	n/a	GoodResponse	0	n/a	n/a	8	70	Blank	AvoidedLoss	True
667.02	1.45	Lose2	0.7042	n/a	Yes	3.029	n/a	n/a	GoodResponse	0	n/a	n/a	8	70	Feedback	AvoidedLoss	True
668.474	3.029	Lose2	0.7042	n/a	Yes	3.029	n/a	n/a	GoodResponse	0	0.0	n/a	8	70	ISIslide	AvoidedLoss	True
671.516	0.25	Win2	0.7082999999999999	0.0	Yes	2.734	0.016	n/a	GoodResponse	1	n/a	n/a	9	71	Cue	Win	True
671.767	4.05	Win2	0.7082999999999999	0.0	Yes	2.734	0.001	n/a	GoodResponse	1	n/a	n/a	9	71	Fixation	Win	True
675.813	0.27	Win2	0.7082999999999999	0.003	Yes	2.734	-0.003	4.0	GoodResponse	1	0.237	675.05	9	71	Target	Win	True
676.05	0.3	Win2	0.7082999999999999	0.003	Yes	2.734	-0.003	4.0	GoodResponse	1	0.237	n/a	9	71	ButtonPress	Win	True
676.097	0.43	Win2	0.7082999999999999	n/a	Yes	2.734	n/a	n/a	GoodResponse	1	n/a	n/a	9	71	Blank	Win	True
676.515	1.45	Win2	0.7082999999999999	n/a	Yes	2.734	n/a	5.0	GoodResponse	1	0.479	675.994	9	71	Feedback	Win	True
677.969	2.734	Win2	0.7082999999999999	n/a	Yes	2.734	n/a	n/a	GoodResponse	1	0.0	n/a	9	71	ISIslide	Win	True
680.727	0.25	Win2	0.7123	0.0	Yes	2.773	0.027	n/a	GoodResponse	1	n/a	n/a	10	72	Cue	Win	True
680.978	4.1	Win2	0.7123	0.0	Yes	2.773	0.001	n/a	GoodResponse	1	n/a	n/a	10	72	Fixation	Win	True
685.074	0.26	Win2	0.7123	0.003	Yes	2.773	-0.003	4.0	GoodResponse	1	0.245	684.319	10	72	Target	Win	True
685.319	0.3	Win2	0.7123	0.003	Yes	2.773	-0.003	4.0	GoodResponse	1	0.245	n/a	10	72	ButtonPress	Win	True
685.341	0.44	Win2	0.7123	n/a	Yes	2.773	n/a	n/a	GoodResponse	1	n/a	n/a	10	72	Blank	Win	True
685.776	1.45	Win2	0.7123	n/a	Yes	2.773	n/a	5.0	GoodResponse	1	1.217	685.993	10	72	Feedback	Win	True
687.23	2.773	Win2	0.7123	n/a	Yes	2.773	n/a	n/a	GoodResponse	1	0.0	n/a	10	72	ISIslide	Win	True
690.022	0.25	Win2	0.7027	0.0	No	2.678	0.022	n/a	NoResponse	0	n/a	n/a	10	73	Cue	MissedWin	True
690.272	4.0	Win2	0.7027	0.001	No	2.678	0.0	n/a	NoResponse	0	n/a	n/a	10	73	Fixation	MissedWin	True
694.268	0.25	Win2	0.7027	0.004	No	2.678	-0.004	4.0	NoResponse	0	0.263	693.531	10	73	Target	MissedWin	True
694.518	0.45	Win2	0.7027	n/a	No	2.678	n/a	n/a	NoResponse	0	n/a	n/a	10	73	Blank	MissedWin	True
694.531	0.3	Win2	0.7027	0.004	No	2.678	-0.004	4.0	NoResponse	0	0.263	n/a	10	73	ButtonPress	MissedWin	True
694.97	1.45	Win2	0.7027	n/a	No	2.678	n/a	5.0	NoResponse	0	0.023	693.993	10	73	Feedback	MissedWin	True
696.424	2.678	Win2	0.7027	n/a	No	2.678	n/a	n/a	NoResponse	0	0.0	n/a	10	73	ISIslide	MissedWin	True
699.116	0.25	Lose2	0.7067	0.0	Yes	2.634	0.016	n/a	GoodResponse	0	n/a	n/a	10	74	Cue	AvoidedLoss	True
699.366	4.05	Lose2	0.7067	0.0	Yes	2.634	0.0	n/a	GoodResponse	0	n/a	n/a	10	74	Fixation	AvoidedLoss	True
703.412	0.24	Lose2	0.7067	0.004	Yes	2.634	-0.004	4.0	GoodResponse	0	0.226	702.638	10	74	Target	AvoidedLoss	True
703.638	0.3	Lose2	0.7067	0.004	Yes	2.634	-0.004	4.0	GoodResponse	0	0.226	n/a	10	74	ButtonPress	AvoidedLoss	True
703.662	0.46	Lose2	0.7067	n/a	Yes	2.634	n/a	n/a	GoodResponse	0	n/a	n/a	10	74	Blank	AvoidedLoss	True
704.114	1.45	Lose2	0.7067	n/a	Yes	2.634	n/a	5.0	GoodResponse	0	0.879	703.993	10	74	Feedback	AvoidedLoss	True
705.568	2.634	Lose2	0.7067	n/a	Yes	2.634	n/a	n/a	GoodResponse	0	0.0	n/a	10	74	ISIslide	AvoidedLoss	True
708.226	0.25	Lose2	0.6973999999999999	0.0	No	2.924	0.026	n/a	NoResponse	-1	n/a	n/a	9	75	Cue	Loss	True
708.477	3.95	Lose2	0.6973999999999999	0.0	No	2.924	0.001	n/a	NoResponse	-1	n/a	n/a	9	75	Fixation	Loss	True
712.422	0.23	Lose2	0.6973999999999999	0.004	No	2.924	-0.004	4.0	NoResponse	-1	0.268	711.69	9	75	Target	Loss	True
712.656	0.47	Lose2	0.6973999999999999	n/a	No	2.924	n/a	n/a	NoResponse	-1	n/a	n/a	9	75	Blank	Loss	True
712.69	0.3	Lose2	0.6973999999999999	0.004	No	2.924	-0.004	4.0	NoResponse	-1	0.268	n/a	9	75	ButtonPress	Loss	True
713.124	1.45	Lose2	0.6973999999999999	n/a	No	2.924	n/a	n/a	NoResponse	-1	n/a	n/a	9	75	Feedback	Loss	True
714.578	2.924	Lose2	0.6973999999999999	n/a	No	2.924	n/a	n/a	NoResponse	-1	0.0	n/a	9	75	ISIslide	Loss	True
717.52	0.25	Control	0.6883	0.001	No	3.23	0.02	n/a	NoResponse	0	n/a	n/a	9	76	Cue	Neutral	True
717.771	4.05	Control	0.6883	0.0	No	3.23	0.001	n/a	NoResponse	0	n/a	n/a	9	76	Fixation	Neutral	True
721.817	0.22	Control	0.6883	0.003	No	3.23	-0.003	4.0	NoResponse	0	0.265	721.082	9	76	Target	Neutral	True
722.051	0.48	Control	0.6883	n/a	No	3.23	n/a	n/a	NoResponse	0	n/a	n/a	9	76	Blank	Neutral	True
722.082	0.3	Control	0.6883	0.003	No	3.23	-0.003	4.0	NoResponse	0	0.265	n/a	9	76	ButtonPress	Neutral	True
722.519	1.45	Control	0.6883	n/a	No	3.23	n/a	5.0	NoResponse	0	0.473	721.992	9	76	Feedback	Neutral	True
723.973	3.23	Control	0.6883	n/a	No	3.23	n/a	n/a	NoResponse	0	0.0	n/a	9	76	ISIslide	Neutral	True
727.216	0.25	Lose2	0.6795	0.0	No	2.584	0.016	n/a	NoResponse	-1	n/a	n/a	8	77	Cue	Loss	True
727.467	3.95	Lose2	0.6795	0.0	No	2.584	0.001	n/a	NoResponse	-1	n/a	n/a	8	77	Fixation	Loss	True
731.412	0.21	Lose2	0.6795	0.004	No	2.584	-0.004	4.0	NoResponse	-1	0.218	730.63	8	77	Target	Loss	True
731.629	0.49	Lose2	0.6795	n/a	No	2.584	n/a	n/a	NoResponse	-1	n/a	n/a	8	77	Blank	Loss	True
731.63	0.3	Lose2	0.6795	0.004	No	2.584	-0.004	4.0	NoResponse	-1	0.218	n/a	8	77	ButtonPress	Loss	True
732.114	1.45	Lose2	0.6795	n/a	No	2.584	n/a	n/a	NoResponse	-1	n/a	n/a	8	77	Feedback	Loss	True
733.568	2.584	Lose2	0.6795	n/a	No	2.584	n/a	n/a	NoResponse	-1	0.0	n/a	8	77	ISIslide	Loss	True
