onset	duration	cue_type	current_mean_accuracy	duration_error	is_hit	isi_adjusted	onset_delay	response	response_type	reward	rt	rt_time	total_reward	trial_number	trial_phase	trial_type	one_press
11.098	0.25	Control	1.0	0.0	Yes	2.952	-0.002	n/a	GoodResponse	0	n/a	n/a	0	0	Cue	Neutral	True
11.348	3.85	Control	1.0	0.0	Yes	2.952	0.0	n/a	GoodResponse	0	n/a	n/a	0	0	Fixation	Neutral	True
15.21	0.4	Control	1.0	0.0	Yes	2.952	0.012	2.0	GoodResponse	0	0.241	14.451	0	0	Target	Neutral	True
15.451	0.3	Control	1.0	0.0	Yes	2.952	0.012	2.0	GoodResponse	0	0.241	n/a	0	0	ButtonPress	Neutral	True
15.594	0.3	Control	1.0	n/a	Yes	2.952	n/a	n/a	GoodResponse	0	n/a	n/a	0	0	Blank	Neutral	True
15.895	1.45	Control	1.0	n/a	Yes	2.952	n/a	5.0	GoodResponse	0	0.031	14.926	0	0	Feedback	Neutral	True
17.35	2.952	Control	1.0	n/a	Yes	2.952	n/a	n/a	GoodResponse	0	0.0	n/a	0	0	ISIslide	Neutral	True
20.325	0.25	Lose2	1.0	0.0	Yes	2.775	0.025	n/a	GoodResponse	0	n/a	n/a	0	1	Cue	AvoidedLoss	True
20.576	4.0	Lose2	1.0	0.0	Yes	2.775	0.001	n/a	GoodResponse	0	n/a	n/a	0	1	Fixation	AvoidedLoss	True
24.571	0.39	Lose2	1.0	0.004	Yes	2.775	-0.004	2.0	GoodResponse	0	0.275	23.846	0	1	Target	AvoidedLoss	True
24.846	0.3	Lose2	1.0	0.004	Yes	2.775	-0.004	2.0	GoodResponse	0	0.275	n/a	0	1	ButtonPress	AvoidedLoss	True
24.972	0.31	Lose2	1.0	n/a	Yes	2.775	n/a	n/a	GoodResponse	0	n/a	n/a	0	1	Blank	AvoidedLoss	True
25.273	1.45	Lose2	1.0	n/a	Yes	2.775	n/a	5.0	GoodResponse	0	0.019	24.292	0	1	Feedback	AvoidedLoss	True
26.728	2.775	Lose2	1.0	n/a	Yes	2.775	n/a	n/a	GoodResponse	0	0.0	n/a	0	1	ISIslide	AvoidedLoss	True
29.519	0.25	Control	1.0	0.0	Yes	2.581	0.019	n/a	GoodResponse	0	n/a	n/a	0	2	Cue	Neutral	True
29.77	4.1	Control	1.0	0.0	Yes	2.581	0.001	n/a	GoodResponse	0	n/a	n/a	0	2	Fixation	Neutral	True
33.866	0.38	Control	1.0	0.003	Yes	2.581	-0.003	2.0	GoodResponse	0	0.223	33.089	0	2	Target	Neutral	True
34.089	0.3	Control	1.0	0.003	Yes	2.581	-0.003	2.0	GoodResponse	0	0.223	n/a	0	2	ButtonPress	Neutral	True
34.25	0.32	Control	1.0	n/a	Yes	2.581	n/a	n/a	GoodResponse	0	n/a	n/a	0	2	Blank	Neutral	True
34.568	1.45	Control	1.0	n/a	Yes	2.581	n/a	5.0	GoodResponse	0	0.041	33.609	0	2	Feedback	Neutral	True
36.022	2.581	Control	1.0	n/a	Yes	2.581	n/a	n/a	GoodResponse	0	0.0	n/a	0	2	ISIslide	Neutral	True
38.63	0.25	Win2	1.0	0.0	Yes	2.82	0.03	n/a	GoodResponse	1	n/a	n/a	1	3	Cue	Win	True
38.881	3.95	Win2	1.0	0.0	Yes	2.82	0.001	n/a	GoodResponse	1	n/a	n/a	1	3	Fixation	Win	True
42.826	0.37	Win2	1.0	0.004	Yes	2.82	-0.004	2.0	GoodResponse	1	0.3	42.126	1	3	Target	Win	True
43.126	0.3	Win2	1.0	0.004	Yes	2.82	-0.004	2.0	GoodResponse	1	0.3	n/a	1	3	ButtonPress	Win	True
43.21	0.33	Win2	1.0	n/a	Yes	2.82	n/a	n/a	GoodResponse	1	n/a	n/a	1	3	Blank	Win	True
43.528	1.45	Win2	1.0	n/a	Yes	2.82	n/a	5.0	GoodResponse	1	0.008	42.536	1	3	Feedback	Win	True
44.982	2.82	Win2	1.0	n/a	Yes	2.82	n/a	n/a	GoodResponse	1	0.0	n/a	1	3	ISIslide	Win	True
47.824	0.25	Win2	1.0	0.0	Yes	3.276	0.024	n/a	GoodResponse	1	n/a	n/a	2	4	Cue	Win	True
48.075	4.0	Win2	1.0	0.0	Yes	3.276	0.001	n/a	GoodResponse	1	n/a	n/a	2	4	Fixation	Win	True
52.07	0.36	Win2	1.0	0.004	Yes	3.276	-0.004	2.0	GoodResponse	1	0.204	51.274	2	4	Target	Win	True
52.274	0.3	Win2	1.0	0.004	Yes	3.276	-0.004	2.0	GoodResponse	1	0.204	n/a	2	4	ButtonPress	Win	True
52.438	0.34	Win2	1.0	n/a	Yes	3.276	n/a	n/a	GoodResponse	1	n/a	n/a	2	4	Blank	Win	True
52.772	1.45	Win2	1.0	n/a	Yes	3.276	n/a	5.0	GoodResponse	1	0.031	51.803	2	4	Feedback	Win	True
54.226	3.276	Win2	1.0	n/a	Yes	3.276	n/a	n/a	GoodResponse	1	0.0	n/a	2	4	ISIslide	Win	True
57.52	0.25	Win2	1.0	0.0	Yes	2.78	0.02	n/a	GoodResponse	1	n/a	n/a	3	5	Cue	Win	True
57.77	4.0	Win2	1.0	0.0	Yes	2.78	0.0	n/a	GoodResponse	1	n/a	n/a	3	5	Fixation	Win	True
61.766	0.35	Win2	1.0	0.004	Yes	2.78	-0.004	2.0	GoodResponse	1	0.303	61.069	3	5	Target	Win	True
62.069	0.3	Win2	1.0	0.004	Yes	2.78	-0.004	2.0	GoodResponse	1	0.303	n/a	3	5	ButtonPress	Win	True
62.117	0.35	Win2	1.0	n/a	Yes	2.78	n/a	n/a	GoodResponse	1	n/a	n/a	3	5	Blank	Win	True
62.468	1.45	Win2	1.0	n/a	Yes	2.78	n/a	5.0	GoodResponse	1	0.042	61.51	3	5	Feedback	Win	True
63.922	2.78	Win2	1.0	n/a	Yes	2.78	n/a	n/a	GoodResponse	1	0.0	n/a	3	5	ISIslide	Win	True
66.731	0.25	Lose2	1.0	0.0	Yes	2.719	0.031	n/a	GoodResponse	0	n/a	n/a	3	6	Cue	AvoidedLoss	True
66.981	3.95	Lose2	1.0	0.0	Yes	2.719	0.0	n/a	GoodResponse	0	n/a	n/a	3	6	Fixation	AvoidedLoss	True
70.943	0.34	Lose2	1.0	0.0	Yes	2.719	0.012	2.0	GoodResponse	0	0.227	70.17	3	6	Target	AvoidedLoss	True
71.17	0.3	Lose2	1.0	0.0	Yes	2.719	0.012	2.0	GoodResponse	0	0.227	n/a	3	6	ButtonPress	AvoidedLoss	True
71.277	0.36	Lose2	1.0	n/a	Yes	2.719	n/a	n/a	GoodResponse	0	n/a	n/a	3	6	Blank	AvoidedLoss	True
71.628	1.45	Lose2	1.0	n/a	Yes	2.719	n/a	5.0	GoodResponse	0	0.009	70.637	3	6	Feedback	AvoidedLoss	True
73.083	2.719	Lose2	1.0	n/a	Yes	2.719	n/a	n/a	GoodResponse	0	0.0	n/a	3	6	ISIslide	AvoidedLoss	True
75.824	0.25	Lose2	1.0	0.0	Yes	4.026	0.024	n/a	GoodResponse	0	n/a	n/a	3	7	Cue	AvoidedLoss	True
76.075	4.05	Lose2	1.0	0.0	Yes	4.026	0.001	n/a	GoodResponse	0	n/a	n/a	3	7	Fixation	AvoidedLoss	True
80.121	0.33	Lose2	1.0	0.003	Yes	4.026	-0.003	2.0	GoodResponse	0	0.226	79.347	3	7	Target	AvoidedLoss	True
80.347	0.3	Lose2	1.0	0.003	Yes	4.026	-0.003	2.0	GoodResponse	0	0.226	n/a	3	7	ButtonPress	AvoidedLoss	True
80.455	0.37	Lose2	1.0	n/a	Yes	4.026	n/a	n/a	GoodResponse	0	n/a	n/a	3	7	Blank	AvoidedLoss	True
80.823	1.45	Lose2	1.0	n/a	Yes	4.026	n/a	5.0	GoodResponse	0	0.029	79.852	3	7	Feedback	AvoidedLoss	True
82.277	4.026	Lose2	1.0	n/a	Yes	4.026	n/a	n/a	GoodResponse	0	0.0	n/a	3	7	ISIslide	AvoidedLoss	True
86.322	0.25	Lose2	1.0	0.001	Yes	3.028	0.022	n/a	GoodResponse	0	n/a	n/a	3	8	Cue	AvoidedLoss	True
86.573	3.95	Lose2	1.0	0.0	Yes	3.028	0.001	n/a	GoodResponse	0	n/a	n/a	3	8	Fixation	AvoidedLoss	True
90.518	0.32	Lose2	1.0	0.004	Yes	3.028	-0.004	2.0	GoodResponse	0	0.221	89.739	3	8	Target	AvoidedLoss	True
90.739	0.3	Lose2	1.0	0.004	Yes	3.028	-0.004	2.0	GoodResponse	0	0.221	n/a	3	8	ButtonPress	AvoidedLoss	True
90.853	0.38	Lose2	1.0	n/a	Yes	3.028	n/a	n/a	GoodResponse	0	n/a	n/a	3	8	Blank	AvoidedLoss	True
91.22	1.45	Lose2	1.0	n/a	Yes	3.028	n/a	5.0	GoodResponse	0	0.023	90.243	3	8	Feedback	AvoidedLoss	True
92.675	3.028	Lose2	1.0	n/a	Yes	3.028	n/a	n/a	GoodResponse	0	0.0	n/a	3	8	ISIslide	AvoidedLoss	True
95.717	0.25	Lose2	1.0	0.0	Yes	3.133	0.017	n/a	GoodResponse	0	n/a	n/a	3	9	Cue	AvoidedLoss	True
95.968	3.95	Lose2	1.0	0.0	Yes	3.133	0.001	n/a	GoodResponse	0	n/a	n/a	3	9	Fixation	AvoidedLoss	True
99.913	0.31	Lose2	1.0	0.004	Yes	3.133	-0.004	2.0	GoodResponse	0	0.235	99.148	3	9	Target	AvoidedLoss	True
100.148	0.3	Lose2	1.0	0.004	Yes	3.133	-0.004	2.0	GoodResponse	0	0.235	n/a	3	9	ButtonPress	AvoidedLoss	True
100.231	0.39	Lose2	1.0	n/a	Yes	3.133	n/a	n/a	GoodResponse	0	n/a	n/a	3	9	Blank	AvoidedLoss	True
100.615	1.45	Lose2	1.0	n/a	Yes	3.133	n/a	5.0	GoodResponse	0	0.041	99.656	3	9	Feedback	AvoidedLoss	True
102.069	3.133	Lose2	1.0	n/a	Yes	3.133	n/a	n/a	GoodResponse	0	0.0	n/a	3	9	ISIslide	AvoidedLoss	True
105.229	0.25	Control	0.9091	0.0	No	3.271	0.029	n/a	NoResponse	0	n/a	n/a	3	10	Cue	Neutral	True
105.48	4.0	Control	0.9091	0.0	No	3.271	0.001	n/a	NoResponse	0	n/a	n/a	3	10	Fixation	Neutral	True
109.475	0.3	Control	0.9091	0.004	No	3.271	-0.004	2.0	NoResponse	0	0.312	108.787	3	10	Target	Neutral	True
109.776	0.4	Control	0.9091	n/a	No	3.271	n/a	n/a	NoResponse	0	n/a	n/a	3	10	Blank	Neutral	True
109.787	0.3	Control	0.9091	0.004	No	3.271	-0.004	2.0	NoResponse	0	0.312	n/a	3	10	ButtonPress	Neutral	True
110.177	1.45	Control	0.9091	n/a	No	3.271	n/a	5.0	NoResponse	0	0.04	109.217	3	10	Feedback	Neutral	True
111.631	3.271	Control	0.9091	n/a	No	3.271	n/a	n/a	NoResponse	0	0.0	n/a	3	10	ISIslide	Neutral	True
114.925	0.25	Lose2	0.9167000000000001	0.0	Yes	2.725	0.025	n/a	GoodResponse	0	n/a	n/a	3	11	Cue	AvoidedLoss	True
115.175	4.05	Lose2	0.9167000000000001	0.0	Yes	2.725	0.0	n/a	GoodResponse	0	n/a	n/a	3	11	Fixation	AvoidedLoss	True
119.221	0.29	Lose2	0.9167000000000001	0.004	Yes	2.725	-0.004	2.0	GoodResponse	0	0.218	118.439	3	11	Target	AvoidedLoss	True
119.439	0.3	Lose2	0.9167000000000001	0.004	Yes	2.725	-0.004	2.0	GoodResponse	0	0.218	n/a	3	11	ButtonPress	AvoidedLoss	True
119.522	0.41	Lose2	0.9167000000000001	n/a	Yes	2.725	n/a	n/a	GoodResponse	0	n/a	n/a	3	11	Blank	AvoidedLoss	True
119.923	1.45	Lose2	0.9167000000000001	n/a	Yes	2.725	n/a	5.0	GoodResponse	0	0.002	118.925	3	11	Feedback	AvoidedLoss	True
121.377	2.725	Lose2	0.9167000000000001	n/a	Yes	2.725	n/a	n/a	GoodResponse	0	0.0	n/a	3	11	ISIslide	AvoidedLoss	True
124.119	0.25	Control	0.9231	0.0	Yes	2.981	0.019	n/a	GoodResponse	0	n/a	n/a	3	12	Cue	Neutral	True
124.37	3.9	Control	0.9231	0.0	Yes	2.981	0.001	n/a	GoodResponse	0	n/a	n/a	3	12	Fixation	Neutral	True
128.264	0.28	Control	0.9231	0.005	Yes	2.981	-0.005	2.0	GoodResponse	0	0.194	127.458	3	12	Target	Neutral	True
128.458	0.3	Control	0.9231	0.005	Yes	2.981	-0.005	2.0	GoodResponse	0	0.194	n/a	3	12	ButtonPress	Neutral	True
128.549	0.42	Control	0.9231	n/a	Yes	2.981	n/a	n/a	GoodResponse	0	n/a	n/a	3	12	Blank	Neutral	True
128.967	1.45	Control	0.9231	n/a	Yes	2.981	n/a	5.0	GoodResponse	0	0.031	127.998	3	12	Feedback	Neutral	True
130.421	2.981	Control	0.9231	n/a	Yes	2.981	n/a	n/a	GoodResponse	0	0.0	n/a	3	12	ISIslide	Neutral	True
133.43	0.25	Control	0.9286	0.0	Yes	2.77	0.03	n/a	GoodResponse	0	n/a	n/a	3	13	Cue	Neutral	True
133.681	4.0	Control	0.9286	0.0	Yes	2.77	0.001	n/a	GoodResponse	0	n/a	n/a	3	13	Fixation	Neutral	True
137.676	0.27	Control	0.9286	0.004	Yes	2.77	-0.004	2.0	GoodResponse	0	0.193	136.869	3	13	Target	Neutral	True
137.869	0.3	Control	0.9286	0.004	Yes	2.77	-0.004	2.0	GoodResponse	0	0.193	n/a	3	13	ButtonPress	Neutral	True
137.96	0.43	Control	0.9286	n/a	Yes	2.77	n/a	n/a	GoodResponse	0	n/a	n/a	3	13	Blank	Neutral	True
138.378	1.45	Control	0.9286	n/a	Yes	2.77	n/a	5.0	GoodResponse	0	0.034	137.412	3	13	Feedback	Neutral	True
139.832	2.77	Control	0.9286	n/a	Yes	2.77	n/a	n/a	GoodResponse	0	0.0	n/a	3	13	ISIslide	Neutral	True
142.624	0.25	Win2	0.9333	0.0	Yes	2.676	0.024	n/a	GoodResponse	1	n/a	n/a	4	14	Cue	Win	True
142.875	4.1	Win2	0.9333	0.0	Yes	2.676	0.001	n/a	GoodResponse	1	n/a	n/a	4	14	Fixation	Win	True
146.97	0.26	Win2	0.9333	0.004	Yes	2.676	-0.004	2.0	GoodResponse	1	0.216	146.186	4	14	Target	Win	True
147.186	0.3	Win2	0.9333	0.004	Yes	2.676	-0.004	2.0	GoodResponse	1	0.216	n/a	4	14	ButtonPress	Win	True
147.238	0.44	Win2	0.9333	n/a	Yes	2.676	n/a	n/a	GoodResponse	1	n/a	n/a	4	14	Blank	Win	True
147.673	1.45	Win2	0.9333	n/a	Yes	2.676	n/a	5.0	GoodResponse	1	0.007	146.68	4	14	Feedback	Win	True
149.127	2.676	Win2	0.9333	n/a	Yes	2.676	n/a	n/a	GoodResponse	1	0.0	n/a	4	14	ISIslide	Win	True
151.818	0.25	Control	0.9375	0.0	Yes	2.982	0.018	n/a	GoodResponse	0	n/a	n/a	4	15	Cue	Neutral	True
152.069	4.0	Control	0.9375	0.0	Yes	2.982	0.001	n/a	GoodResponse	0	n/a	n/a	4	15	Fixation	Neutral	True
156.064	0.25	Control	0.9375	0.004	Yes	2.982	-0.004	2.0	GoodResponse	0	0.237	155.301	4	15	Target	Neutral	True
156.301	0.3	Control	0.9375	0.004	Yes	2.982	-0.004	2.0	GoodResponse	0	0.237	n/a	4	15	ButtonPress	Neutral	True
156.315	0.45	Control	0.9375	n/a	Yes	2.982	n/a	n/a	GoodResponse	0	n/a	n/a	4	15	Blank	Neutral	True
156.766	1.45	Control	0.9375	n/a	Yes	2.982	n/a	5.0	GoodResponse	0	0.036	155.802	4	15	Feedback	Neutral	True
158.221	2.982	Control	0.9375	n/a	Yes	2.982	n/a	n/a	GoodResponse	0	0.0	n/a	4	15	ISIslide	Neutral	True
161.23	0.25	Win2	0.8824	0.0	No	2.87	0.03	n/a	LatePress	0	n/a	n/a	4	16	Cue	MissedWin	True
161.48	4.0	Win2	0.8824	0.001	No	2.87	0.0	n/a	LatePress	0	n/a	n/a	4	16	Fixation	MissedWin	True
165.476	0.24	Win2	0.8824	0.004	No	2.87	-0.004	2.0	LatePress	0	0.244	164.72	4	16	Target	MissedWin	True
165.72	0.3	Win2	0.8824	0.004	No	2.87	-0.004	2.0	LatePress	0	0.244	n/a	4	16	ButtonPress	MissedWin	True
165.727	0.46	Win2	0.8824	n/a	No	2.87	n/a	n/a	LatePress	0	n/a	n/a	4	16	Blank	MissedWin	True
166.178	1.45	Win2	0.8824	n/a	No	2.87	n/a	5.0	LatePress	0	0.039	165.217	4	16	Feedback	MissedWin	True
167.632	2.87	Win2	0.8824	n/a	No	2.87	n/a	n/a	LatePress	0	0.0	n/a	4	16	ISIslide	MissedWin	True
170.524	0.25	Lose2	0.8332999999999999	0.0	No	2.726	0.024	n/a	NoResponse	-1	n/a	n/a	3	17	Cue	Loss	True
170.775	3.95	Lose2	0.8332999999999999	0.0	No	2.726	0.001	n/a	NoResponse	-1	n/a	n/a	3	17	Fixation	Loss	True
174.72	0.23	Lose2	0.8332999999999999	0.004	No	2.726	-0.004	2.0	NoResponse	-1	0.279	173.999	3	17	Target	Loss	True
174.954	0.47	Lose2	0.8332999999999999	n/a	No	2.726	n/a	n/a	NoResponse	-1	n/a	n/a	3	17	Blank	Loss	True
174.999	0.3	Lose2	0.8332999999999999	0.004	No	2.726	-0.004	2.0	NoResponse	-1	0.279	n/a	3	17	ButtonPress	Loss	True
175.422	1.45	Lose2	0.8332999999999999	n/a	No	2.726	n/a	5.0	NoResponse	-1	0.015	174.437	3	17	Feedback	Loss	True
176.877	2.726	Lose2	0.8332999999999999	n/a	No	2.726	n/a	n/a	NoResponse	-1	0.0	n/a	3	17	ISIslide	Loss	True
179.618	0.25	Lose2	0.7895	0.0	No	2.732	0.018	n/a	LatePress	-1	n/a	n/a	2	18	Cue	Loss	True
179.869	4.05	Lose2	0.7895	0.0	No	2.732	0.001	n/a	LatePress	-1	n/a	n/a	2	18	Fixation	Loss	True
183.914	0.22	Lose2	0.7895	0.004	No	2.732	-0.004	2.0	LatePress	-1	0.222	183.136	2	18	Target	Loss	True
184.136	0.3	Lose2	0.7895	0.004	No	2.732	-0.004	2.0	LatePress	-1	0.222	n/a	2	18	ButtonPress	Loss	True
184.148	0.48	Lose2	0.7895	n/a	No	2.732	n/a	n/a	LatePress	-1	n/a	n/a	2	18	Blank	Loss	True
184.616	1.45	Lose2	0.7895	n/a	No	2.732	n/a	5.0	LatePress	-1	0.039	183.655	2	18	Feedback	Loss	True
186.071	2.732	Lose2	0.7895	n/a	No	2.732	n/a	n/a	LatePress	-1	0.0	n/a	2	18	ISIslide	Loss	True
188.829	0.25	Control	0.75	0.0	No	2.921	0.029	n/a	NoResponse	0	n/a	n/a	2	19	Cue	Neutral	True
189.08	3.95	Control	0.75	0.0	No	2.921	0.001	n/a	NoResponse	0	n/a	n/a	2	19	Fixation	Neutral	True
193.025	0.21	Control	0.75	0.004	No	2.921	-0.004	2.0	NoResponse	0	0.225	192.25	2	19	Target	Neutral	True
193.242	0.49	Control	0.75	n/a	No	2.921	n/a	n/a	NoResponse	0	n/a	n/a	2	19	Blank	Neutral	True
193.25	0.3	Control	0.75	0.004	No	2.921	-0.004	2.0	NoResponse	0	0.225	n/a	2	19	ButtonPress	Neutral	True
193.727	1.45	Control	0.75	n/a	No	2.921	n/a	5.0	NoResponse	0	0.001	192.728	2	19	Feedback	Neutral	True
195.181	2.921	Control	0.75	n/a	No	2.921	n/a	n/a	NoResponse	0	0.0	n/a	2	19	ISIslide	Neutral	True
198.123	0.25	Control	0.7143	0.0	No	2.627	0.023	n/a	NoResponse	0	n/a	n/a	2	20	Cue	Neutral	True
198.374	4.05	Control	0.7143	0.0	No	2.627	0.001	n/a	NoResponse	0	n/a	n/a	2	20	Fixation	Neutral	True
202.42	0.2	Control	0.7143	0.003	No	2.627	-0.003	2.0	NoResponse	0	0.211	201.631	2	20	Target	Neutral	True
202.62	0.5	Control	0.7143	n/a	No	2.627	n/a	n/a	NoResponse	0	n/a	n/a	2	20	Blank	Neutral	True
202.631	0.3	Control	0.7143	0.003	No	2.627	-0.003	2.0	NoResponse	0	0.211	n/a	2	20	ButtonPress	Neutral	True
203.122	1.45	Control	0.7143	n/a	No	2.627	n/a	5.0	NoResponse	0	0.021	202.143	2	20	Feedback	Neutral	True
204.576	2.627	Control	0.7143	n/a	No	2.627	n/a	n/a	NoResponse	0	0.0	n/a	2	20	ISIslide	Neutral	True
207.217	0.25	Control	0.6818000000000001	0.0	No	2.783	0.017	n/a	NoResponse	0	n/a	n/a	2	21	Cue	Neutral	True
207.468	4.1	Control	0.6818000000000001	0.0	No	2.783	0.001	n/a	NoResponse	0	n/a	n/a	2	21	Fixation	Neutral	True
211.564	0.19	Control	0.6818000000000001	0.003	No	2.783	-0.003	2.0	NoResponse	0	0.201	210.765	2	21	Target	Neutral	True
211.764	0.51	Control	0.6818000000000001	n/a	No	2.783	n/a	n/a	NoResponse	0	n/a	n/a	2	21	Blank	Neutral	True
211.765	0.3	Control	0.6818000000000001	0.003	No	2.783	-0.003	2.0	NoResponse	0	0.201	n/a	2	21	ButtonPress	Neutral	True
212.266	1.45	Control	0.6818000000000001	n/a	No	2.783	n/a	5.0	NoResponse	0	0.048	211.314	2	21	Feedback	Neutral	True
213.72	2.783	Control	0.6818000000000001	n/a	No	2.783	n/a	n/a	NoResponse	0	0.0	n/a	2	21	ISIslide	Neutral	True
216.528	0.25	Control	0.6522	0.0	No	2.772	0.028	n/a	NoResponse	0	n/a	n/a	2	22	Cue	Neutral	True
216.779	4.0	Control	0.6522	0.0	No	2.772	0.001	n/a	NoResponse	0	n/a	n/a	2	22	Fixation	Neutral	True
220.774	0.18	Control	0.6522	0.004	No	2.772	-0.004	2.0	NoResponse	0	0.251	220.025	2	22	Target	Neutral	True
220.958	0.52	Control	0.6522	n/a	No	2.772	n/a	n/a	NoResponse	0	n/a	n/a	2	22	Blank	Neutral	True
221.025	0.3	Control	0.6522	0.004	No	2.772	-0.004	2.0	NoResponse	0	0.251	n/a	2	22	ButtonPress	Neutral	True
221.477	1.45	Control	0.6522	n/a	No	2.772	n/a	5.0	NoResponse	0	0.008	220.485	2	22	Feedback	Neutral	True
222.931	2.772	Control	0.6522	n/a	No	2.772	n/a	n/a	NoResponse	0	0.0	n/a	2	22	ISIslide	Neutral	True
225.723	0.25	Control	0.625	0.0	No	2.777	0.023	n/a	NoResponse	0	n/a	n/a	2	23	Cue	Neutral	True
225.973	3.9	Control	0.625	0.0	No	2.777	0.0	n/a	NoResponse	0	n/a	n/a	2	23	Fixation	Neutral	True
229.885	0.19	Control	0.625	0.0	No	2.777	0.012	2.0	NoResponse	0	0.205	229.09	2	23	Target	Neutral	True
230.069	0.51	Control	0.625	n/a	No	2.777	n/a	n/a	NoResponse	0	n/a	n/a	2	23	Blank	Neutral	True
230.09	0.3	Control	0.625	0.0	No	2.777	0.012	2.0	NoResponse	0	0.205	n/a	2	23	ButtonPress	Neutral	True
230.57	1.45	Control	0.625	n/a	No	2.777	n/a	5.0	NoResponse	0	0.036	229.606	2	23	Feedback	Neutral	True
232.025	2.777	Control	0.625	n/a	No	2.777	n/a	n/a	NoResponse	0	0.0	n/a	2	23	ISIslide	Neutral	True
234.816	0.25	Win2	0.6	0.0	No	3.134	0.016	n/a	NoResponse	0	n/a	n/a	2	24	Cue	MissedWin	True
235.067	3.95	Win2	0.6	0.0	No	3.134	0.001	n/a	NoResponse	0	n/a	n/a	2	24	Fixation	MissedWin	True
239.012	0.2	Win2	0.6	0.004	No	3.134	-0.004	2.0	NoResponse	0	0.212	238.224	2	24	Target	MissedWin	True
239.213	0.5	Win2	0.6	n/a	No	3.134	n/a	n/a	NoResponse	0	n/a	n/a	2	24	Blank	MissedWin	True
239.224	0.3	Win2	0.6	0.004	No	3.134	-0.004	2.0	NoResponse	0	0.212	n/a	2	24	ButtonPress	MissedWin	True
239.714	1.45	Win2	0.6	n/a	No	3.134	n/a	5.0	NoResponse	0	0.014	238.728	2	24	Feedback	MissedWin	True
241.169	3.134	Win2	0.6	n/a	No	3.134	n/a	n/a	NoResponse	0	0.0	n/a	2	24	ISIslide	MissedWin	True
244.328	0.25	Win2	0.5769	0.0	No	3.072	0.028	n/a	NoResponse	0	n/a	n/a	2	25	Cue	MissedWin	True
244.579	4.0	Win2	0.5769	0.0	No	3.072	0.001	n/a	NoResponse	0	n/a	n/a	2	25	Fixation	MissedWin	True
248.574	0.21	Win2	0.5769	0.004	No	3.072	-0.004	2.0	NoResponse	0	0.445	248.019	2	25	Target	MissedWin	True
248.792	0.49	Win2	0.5769	n/a	No	3.072	n/a	n/a	NoResponse	0	n/a	n/a	2	25	Blank	MissedWin	True
249.019	0.3	Win2	0.5769	0.004	No	3.072	-0.004	2.0	NoResponse	0	0.445	n/a	2	25	ButtonPress	MissedWin	True
249.276	1.45	Win2	0.5769	n/a	No	3.072	n/a	5.0	NoResponse	0	0.013	248.289	2	25	Feedback	MissedWin	True
250.731	3.072	Win2	0.5769	n/a	No	3.072	n/a	n/a	NoResponse	0	0.0	n/a	2	25	ISIslide	MissedWin	True
253.823	0.25	Win2	0.5926	0.0	Yes	2.927	0.023	n/a	GoodResponse	1	n/a	n/a	3	26	Cue	Win	True
254.074	3.95	Win2	0.5926	0.0	Yes	2.927	0.001	n/a	GoodResponse	1	n/a	n/a	3	26	Fixation	Win	True
258.019	0.22	Win2	0.5926	0.004	Yes	2.927	-0.004	2.0	GoodResponse	1	0.199	257.218	3	26	Target	Win	True
258.218	0.3	Win2	0.5926	0.004	Yes	2.927	-0.004	2.0	GoodResponse	1	0.199	n/a	3	26	ButtonPress	Win	True
258.253	0.48	Win2	0.5926	n/a	Yes	2.927	n/a	n/a	GoodResponse	1	n/a	n/a	3	26	Blank	Win	True
258.721	1.45	Win2	0.5926	n/a	Yes	2.927	n/a	5.0	GoodResponse	1	0.032	257.753	3	26	Feedback	Win	True
260.176	2.927	Win2	0.5926	n/a	Yes	2.927	n/a	n/a	GoodResponse	1	0.0	n/a	3	26	ISIslide	Win	True
263.118	0.25	Lose2	0.6071	0.0	Yes	2.832	0.018	n/a	GoodResponse	0	n/a	n/a	3	27	Cue	AvoidedLoss	True
263.368	4.05	Lose2	0.6071	0.001	Yes	2.832	0.0	n/a	GoodResponse	0	n/a	n/a	3	27	Fixation	AvoidedLoss	True
267.414	0.23	Lose2	0.6071	0.004	Yes	2.832	-0.004	2.0	GoodResponse	0	0.209	266.623	3	27	Target	AvoidedLoss	True
267.623	0.3	Lose2	0.6071	0.004	Yes	2.832	-0.004	2.0	GoodResponse	0	0.209	n/a	3	27	ButtonPress	AvoidedLoss	True
267.648	0.47	Lose2	0.6071	n/a	Yes	2.832	n/a	n/a	GoodResponse	0	n/a	n/a	3	27	Blank	AvoidedLoss	True
268.116	1.45	Lose2	0.6071	n/a	Yes	2.832	n/a	5.0	GoodResponse	0	0.008	267.124	3	27	Feedback	AvoidedLoss	True
269.57	2.832	Lose2	0.6071	n/a	Yes	2.832	n/a	n/a	GoodResponse	0	0.0	n/a	3	27	ISIslide	AvoidedLoss	True
272.429	0.25	Control	0.5861999999999999	0.0	No	2.821	0.029	n/a	NoResponse	0	n/a	n/a	3	28	Cue	Neutral	True
272.68	4.05	Control	0.5861999999999999	0.0	No	2.821	0.001	n/a	NoResponse	0	n/a	n/a	3	28	Fixation	Neutral	True
276.725	0.24	Control	0.5861999999999999	0.004	No	2.821	-0.004	2.0	NoResponse	0	0.318	276.043	3	28	Target	Neutral	True
276.976	0.46	Control	0.5861999999999999	n/a	No	2.821	n/a	n/a	NoResponse	0	n/a	n/a	3	28	Blank	Neutral	True
277.043	0.3	Control	0.5861999999999999	0.004	No	2.821	-0.004	2.0	NoResponse	0	0.318	n/a	3	28	ButtonPress	Neutral	True
277.427	1.45	Control	0.5861999999999999	n/a	No	2.821	n/a	5.0	NoResponse	0	0.008	276.435	3	28	Feedback	Neutral	True
278.881	2.821	Control	0.5861999999999999	n/a	No	2.821	n/a	n/a	NoResponse	0	0.0	n/a	3	28	ISIslide	Neutral	True
281.723	0.25	Lose2	0.6	0.0	Yes	2.827	0.023	n/a	GoodResponse	0	n/a	n/a	3	29	Cue	AvoidedLoss	True
281.974	3.95	Lose2	0.6	0.0	Yes	2.827	0.001	n/a	GoodResponse	0	n/a	n/a	3	29	Fixation	AvoidedLoss	True
285.919	0.25	Lose2	0.6	0.004	Yes	2.827	-0.004	2.0	GoodResponse	0	0.181	285.1	3	29	Target	AvoidedLoss	True
286.1	0.3	Lose2	0.6	0.004	Yes	2.827	-0.004	2.0	GoodResponse	0	0.181	n/a	3	29	ButtonPress	AvoidedLoss	True
286.17	0.45	Lose2	0.6	n/a	Yes	2.827	n/a	n/a	GoodResponse	0	n/a	n/a	3	29	Blank	AvoidedLoss	True
286.621	1.45	Lose2	0.6	n/a	Yes	2.827	n/a	5.0	GoodResponse	0	0.033	285.654	3	29	Feedback	AvoidedLoss	True
288.076	2.827	Lose2	0.6	n/a	Yes	2.827	n/a	n/a	GoodResponse	0	0.0	n/a	3	29	ISIslide	AvoidedLoss	True
290.917	0.25	Win2	0.6129	0.001	Yes	2.783	0.017	n/a	GoodResponse	1	n/a	n/a	4	30	Cue	Win	True
291.168	3.9	Win2	0.6129	0.0	Yes	2.783	0.001	n/a	GoodResponse	1	n/a	n/a	4	30	Fixation	Win	True
295.063	0.26	Win2	0.6129	0.004	Yes	2.783	-0.004	2.0	GoodResponse	1	0.235	294.298	4	30	Target	Win	True
295.298	0.3	Win2	0.6129	0.004	Yes	2.783	-0.004	2.0	GoodResponse	1	0.235	n/a	4	30	ButtonPress	Win	True
295.331	0.44	Win2	0.6129	n/a	Yes	2.783	n/a	n/a	GoodResponse	1	n/a	n/a	4	30	Blank	Win	True
295.765	1.45	Win2	0.6129	n/a	Yes	2.783	n/a	5.0	GoodResponse	1	0.011	294.776	4	30	Feedback	Win	True
297.22	2.783	Win2	0.6129	n/a	Yes	2.783	n/a	n/a	GoodResponse	1	0.0	n/a	4	30	ISIslide	Win	True
300.028	0.25	Lose2	0.625	0.0	Yes	2.822	0.028	n/a	GoodResponse	0	n/a	n/a	4	31	Cue	AvoidedLoss	True
300.279	4.05	Lose2	0.625	0.0	Yes	2.822	0.001	n/a	GoodResponse	0	n/a	n/a	4	31	Fixation	AvoidedLoss	True
304.324	0.27	Lose2	0.625	0.004	Yes	2.822	-0.004	2.0	GoodResponse	0	0.209	303.533	4	31	Target	AvoidedLoss	True
304.533	0.3	Lose2	0.625	0.004	Yes	2.822	-0.004	2.0	GoodResponse	0	0.209	n/a	4	31	ButtonPress	AvoidedLoss	True
304.608	0.43	Lose2	0.625	n/a	Yes	2.822	n/a	n/a	GoodResponse	0	n/a	n/a	4	31	Blank	AvoidedLoss	True
305.026	1.45	Lose2	0.625	n/a	Yes	2.822	n/a	5.0	GoodResponse	0	0.019	304.045	4	31	Feedback	AvoidedLoss	True
306.481	2.822	Lose2	0.625	n/a	Yes	2.822	n/a	n/a	GoodResponse	0	0.0	n/a	4	31	ISIslide	AvoidedLoss	True
309.323	0.25	Lose2	0.6364	0.0	Yes	2.627	0.023	n/a	GoodResponse	0	n/a	n/a	4	32	Cue	AvoidedLoss	True
309.573	4.15	Lose2	0.6364	0.0	Yes	2.627	0.0	n/a	GoodResponse	0	n/a	n/a	4	32	Fixation	AvoidedLoss	True
313.719	0.28	Lose2	0.6364	0.004	Yes	2.627	-0.004	2.0	GoodResponse	0	0.196	312.915	4	32	Target	AvoidedLoss	True
313.915	0.3	Lose2	0.6364	0.004	Yes	2.627	-0.004	2.0	GoodResponse	0	0.196	n/a	4	32	ButtonPress	AvoidedLoss	True
314.003	0.42	Lose2	0.6364	n/a	Yes	2.627	n/a	n/a	GoodResponse	0	n/a	n/a	4	32	Blank	AvoidedLoss	True
314.421	1.45	Lose2	0.6364	n/a	Yes	2.627	n/a	5.0	GoodResponse	0	0.037	313.458	4	32	Feedback	AvoidedLoss	True
315.875	2.627	Lose2	0.6364	n/a	Yes	2.627	n/a	n/a	GoodResponse	0	0.0	n/a	4	32	ISIslide	AvoidedLoss	True
318.517	0.25	Win2	0.6470999999999999	0.0	Yes	2.683	0.017	n/a	GoodResponse	1	n/a	n/a	5	33	Cue	Win	True
318.767	4.0	Win2	0.6470999999999999	0.0	Yes	2.683	0.0	n/a	GoodResponse	1	n/a	n/a	5	33	Fixation	Win	True
322.763	0.29	Win2	0.6470999999999999	0.004	Yes	2.683	-0.004	2.0	GoodResponse	1	0.19	321.953	5	33	Target	Win	True
322.953	0.3	Win2	0.6470999999999999	0.004	Yes	2.683	-0.004	2.0	GoodResponse	1	0.19	n/a	5	33	ButtonPress	Win	True
323.064	0.41	Win2	0.6470999999999999	n/a	Yes	2.683	n/a	n/a	GoodResponse	1	n/a	n/a	5	33	Blank	Win	True
323.465	1.45	Win2	0.6470999999999999	n/a	Yes	2.683	n/a	5.0	GoodResponse	1	0.018	322.483	5	33	Feedback	Win	True
324.919	2.683	Win2	0.6470999999999999	n/a	Yes	2.683	n/a	n/a	GoodResponse	1	0.0	n/a	5	33	ISIslide	Win	True
327.627	0.25	Lose2	0.6570999999999999	0.0	Yes	2.623	0.027	n/a	GoodResponse	0	n/a	n/a	5	34	Cue	AvoidedLoss	True
327.878	4.05	Lose2	0.6570999999999999	0.0	Yes	2.623	0.001	n/a	GoodResponse	0	n/a	n/a	5	34	Fixation	AvoidedLoss	True
331.923	0.3	Lose2	0.6570999999999999	0.004	Yes	2.623	-0.004	2.0	GoodResponse	0	0.198	331.121	5	34	Target	AvoidedLoss	True
332.121	0.3	Lose2	0.6570999999999999	0.004	Yes	2.623	-0.004	2.0	GoodResponse	0	0.198	n/a	5	34	ButtonPress	AvoidedLoss	True
332.224	0.4	Lose2	0.6570999999999999	n/a	Yes	2.623	n/a	n/a	GoodResponse	0	n/a	n/a	5	34	Blank	AvoidedLoss	True
332.626	1.45	Lose2	0.6570999999999999	n/a	Yes	2.623	n/a	5.0	GoodResponse	0	0.028	331.654	5	34	Feedback	AvoidedLoss	True
334.08	2.623	Lose2	0.6570999999999999	n/a	Yes	2.623	n/a	n/a	GoodResponse	0	0.0	n/a	5	34	ISIslide	AvoidedLoss	True
336.721	0.25	Lose2	0.6389	0.0	No	2.679	0.021	n/a	NoResponse	-1	n/a	n/a	4	35	Cue	Loss	True
336.972	4.0	Lose2	0.6389	0.0	No	2.679	0.001	n/a	NoResponse	-1	n/a	n/a	4	35	Fixation	Loss	True
340.967	0.3	Lose2	0.6389	0.004	No	2.679	-0.004	2.0	NoResponse	-1	0.458	340.425	4	35	Target	Loss	True
341.268	0.4	Lose2	0.6389	n/a	No	2.679	n/a	n/a	NoResponse	-1	n/a	n/a	4	35	Blank	Loss	True
341.425	0.3	Lose2	0.6389	0.004	No	2.679	-0.004	2.0	NoResponse	-1	0.458	n/a	4	35	ButtonPress	Loss	True
341.669	1.45	Lose2	0.6389	n/a	No	2.679	n/a	5.0	NoResponse	-1	0.009	340.678	4	35	Feedback	Loss	True
343.124	2.679	Lose2	0.6389	n/a	No	2.679	n/a	n/a	NoResponse	-1	0.0	n/a	4	35	ISIslide	Loss	True
345.815	0.25	Control	0.6486	0.0	Yes	2.685	0.015	n/a	GoodResponse	0	n/a	n/a	4	36	Cue	Neutral	True
346.066	4.0	Control	0.6486	0.0	Yes	2.685	0.001	n/a	GoodResponse	0	n/a	n/a	4	36	Fixation	Neutral	True
350.061	0.31	Control	0.6486	0.004	Yes	2.685	-0.004	2.0	GoodResponse	0	0.227	349.288	4	36	Target	Neutral	True
350.288	0.3	Control	0.6486	0.004	Yes	2.685	-0.004	2.0	GoodResponse	0	0.227	n/a	4	36	ButtonPress	Neutral	True
350.379	0.39	Control	0.6486	n/a	Yes	2.685	n/a	n/a	GoodResponse	0	n/a	n/a	4	36	Blank	Neutral	True
350.763	1.45	Control	0.6486	n/a	Yes	2.685	n/a	5.0	GoodResponse	0	0.037	349.8	4	36	Feedback	Neutral	True
352.217	2.685	Control	0.6486	n/a	Yes	2.685	n/a	n/a	GoodResponse	0	0.0	n/a	4	36	ISIslide	Neutral	True
354.926	0.25	Win2	0.6579	0.0	Yes	2.874	0.026	n/a	GoodResponse	1	n/a	n/a	5	37	Cue	Win	False
355.176	4.0	Win2	0.6579	0.0	Yes	2.874	0.0	2.0	GoodResponse	1	0.148	354.324	5	37	Fixation	Win	False
355.324	0.3	Win2	0.6579	0.0	Yes	2.874	0.0	2.0	GoodResponse	1	0.148	n/a	5	37	ButtonPress	Win	False
359.172	0.32	Win2	0.6579	0.004	Yes	2.874	-0.004	2.0	GoodResponse	1	0.243	358.415	5	37	Target	Win	False
359.415	0.3	Win2	0.6579	0.004	Yes	2.874	-0.004	2.0	GoodResponse	1	0.243	n/a	5	37	ButtonPress	Win	False
359.506	0.38	Win2	0.6579	n/a	Yes	2.874	n/a	n/a	GoodResponse	1	n/a	n/a	5	37	Blank	Win	False
359.874	1.45	Win2	0.6579	n/a	Yes	2.874	n/a	5.0	GoodResponse	1	0.047	358.921	5	37	Feedback	Win	False
361.328	2.874	Win2	0.6579	n/a	Yes	2.874	n/a	n/a	GoodResponse	1	0.0	n/a	5	37	ISIslide	Win	False
364.22	0.25	Lose2	0.6667000000000001	0.0	Yes	2.83	0.02	n/a	GoodResponse	0	n/a	n/a	5	38	Cue	AvoidedLoss	True
364.471	3.95	Lose2	0.6667000000000001	0.0	Yes	2.83	0.001	n/a	GoodResponse	0	n/a	n/a	5	38	Fixation	AvoidedLoss	True
368.416	0.32	Lose2	0.6667000000000001	0.004	Yes	2.83	-0.004	2.0	GoodResponse	0	0.219	367.635	5	38	Target	AvoidedLoss	True
368.635	0.3	Lose2	0.6667000000000001	0.004	Yes	2.83	-0.004	2.0	GoodResponse	0	0.219	n/a	5	38	ButtonPress	AvoidedLoss	True
368.75	0.38	Lose2	0.6667000000000001	n/a	Yes	2.83	n/a	n/a	GoodResponse	0	n/a	n/a	5	38	Blank	AvoidedLoss	True
369.118	1.45	Lose2	0.6667000000000001	n/a	Yes	2.83	n/a	5.0	GoodResponse	0	0.023	368.141	5	38	Feedback	AvoidedLoss	True
370.572	2.83	Lose2	0.6667000000000001	n/a	Yes	2.83	n/a	n/a	GoodResponse	0	0.0	n/a	5	38	ISIslide	AvoidedLoss	True
373.414	0.25	Win2	0.65	0.0	No	2.986	0.014	n/a	NoResponse	0	n/a	n/a	5	39	Cue	MissedWin	True
373.665	4.1	Win2	0.65	0.0	No	2.986	0.001	n/a	NoResponse	0	n/a	n/a	5	39	Fixation	MissedWin	True
377.76	0.31	Win2	0.65	0.004	No	2.986	-0.004	2.0	NoResponse	0	0.327	377.087	5	39	Target	MissedWin	True
378.078	0.39	Win2	0.65	n/a	No	2.986	n/a	n/a	NoResponse	0	n/a	n/a	5	39	Blank	MissedWin	True
378.087	0.3	Win2	0.65	0.004	No	2.986	-0.004	2.0	NoResponse	0	0.327	n/a	5	39	ButtonPress	MissedWin	True
378.463	1.45	Win2	0.65	n/a	No	2.986	n/a	5.0	NoResponse	0	0.044	377.507	5	39	Feedback	MissedWin	True
379.917	2.986	Win2	0.65	n/a	No	2.986	n/a	n/a	NoResponse	0	0.0	n/a	5	39	ISIslide	MissedWin	True
382.926	0.25	Win2	0.6585	0.0	Yes	2.724	0.026	n/a	GoodResponse	1	n/a	n/a	6	40	Cue	Win	True
383.177	3.95	Win2	0.6585	0.0	Yes	2.724	0.001	n/a	GoodResponse	1	n/a	n/a	6	40	Fixation	Win	True
387.122	0.32	Win2	0.6585	0.004	Yes	2.724	-0.004	2.0	GoodResponse	1	0.233	386.355	6	40	Target	Win	True
387.355	0.3	Win2	0.6585	0.004	Yes	2.724	-0.004	2.0	GoodResponse	1	0.233	n/a	6	40	ButtonPress	Win	True
387.456	0.38	Win2	0.6585	n/a	Yes	2.724	n/a	n/a	GoodResponse	1	n/a	n/a	6	40	Blank	Win	True
387.824	1.45	Win2	0.6585	n/a	Yes	2.724	n/a	5.0	GoodResponse	1	0.049	386.873	6	40	Feedback	Win	True
389.278	2.724	Win2	0.6585	n/a	Yes	2.724	n/a	n/a	GoodResponse	1	0.0	n/a	6	40	ISIslide	Win	True
392.02	0.25	Win2	0.6429	0.0	No	2.78	0.02	n/a	NoResponse	0	n/a	n/a	6	41	Cue	MissedWin	True
392.271	3.9	Win2	0.6429	0.0	No	2.78	0.001	n/a	NoResponse	0	n/a	n/a	6	41	Fixation	MissedWin	True
396.165	0.32	Win2	0.6429	0.005	No	2.78	-0.005	2.0	NoResponse	0	0.344	395.509	6	41	Target	MissedWin	True
396.5	0.38	Win2	0.6429	n/a	No	2.78	n/a	n/a	NoResponse	0	n/a	n/a	6	41	Blank	MissedWin	True
396.509	0.3	Win2	0.6429	0.005	No	2.78	-0.005	2.0	NoResponse	0	0.344	n/a	6	41	ButtonPress	MissedWin	True
396.868	1.45	Win2	0.6429	n/a	No	2.78	n/a	5.0	NoResponse	0	0.028	395.896	6	41	Feedback	MissedWin	True
398.322	2.78	Win2	0.6429	n/a	No	2.78	n/a	n/a	NoResponse	0	0.0	n/a	6	41	ISIslide	MissedWin	True
401.13	0.25	Control	0.6512	0.0	Yes	2.92	0.03	n/a	GoodResponse	0	n/a	n/a	6	42	Cue	Neutral	True
401.381	3.85	Control	0.6512	0.0	Yes	2.92	0.001	n/a	GoodResponse	0	n/a	n/a	6	42	Fixation	Neutral	True
405.226	0.33	Control	0.6512	0.004	Yes	2.92	-0.004	2.0	GoodResponse	0	0.246	404.472	6	42	Target	Neutral	True
405.472	0.3	Control	0.6512	0.004	Yes	2.92	-0.004	2.0	GoodResponse	0	0.246	n/a	6	42	ButtonPress	Neutral	True
405.56	0.37	Control	0.6512	n/a	Yes	2.92	n/a	n/a	GoodResponse	0	n/a	n/a	6	42	Blank	Neutral	True
405.928	1.45	Control	0.6512	n/a	Yes	2.92	n/a	5.0	GoodResponse	0	0.042	404.97	6	42	Feedback	Neutral	True
407.382	2.92	Control	0.6512	n/a	Yes	2.92	n/a	n/a	GoodResponse	0	0.0	n/a	6	42	ISIslide	Neutral	True
410.324	0.25	Win2	0.6591	0.001	Yes	3.176	0.024	n/a	GoodResponse	1	n/a	n/a	7	43	Cue	Win	True
410.575	4.0	Win2	0.6591	0.0	Yes	3.176	0.001	n/a	GoodResponse	1	n/a	n/a	7	43	Fixation	Win	True
414.571	0.34	Win2	0.6591	0.003	Yes	3.176	-0.003	2.0	GoodResponse	1	0.209	413.78	7	43	Target	Win	True
414.78	0.3	Win2	0.6591	0.003	Yes	3.176	-0.003	2.0	GoodResponse	1	0.209	n/a	7	43	ButtonPress	Win	True
414.922	0.36	Win2	0.6591	n/a	Yes	3.176	n/a	n/a	GoodResponse	1	n/a	n/a	7	43	Blank	Win	True
415.273	1.45	Win2	0.6591	n/a	Yes	3.176	n/a	5.0	GoodResponse	1	0.014	414.287	7	43	Feedback	Win	True
416.727	3.176	Win2	0.6591	n/a	Yes	3.176	n/a	n/a	GoodResponse	1	0.0	n/a	7	43	ISIslide	Win	True
419.92	0.25	Win2	0.6667000000000001	0.0	Yes	2.98	0.02	n/a	GoodResponse	1	n/a	n/a	8	44	Cue	Win	True
420.171	4.0	Win2	0.6667000000000001	0.0	Yes	2.98	0.001	n/a	GoodResponse	1	n/a	n/a	8	44	Fixation	Win	True
424.166	0.34	Win2	0.6667000000000001	0.005	Yes	2.98	-0.004	2.0	GoodResponse	1	0.223	423.389	8	44	Target	Win	True
424.389	0.3	Win2	0.6667000000000001	0.005	Yes	2.98	-0.004	2.0	GoodResponse	1	0.223	n/a	8	44	ButtonPress	Win	True
424.517	0.36	Win2	0.6667000000000001	n/a	Yes	2.98	n/a	n/a	GoodResponse	1	n/a	n/a	8	44	Blank	Win	True
424.868	1.45	Win2	0.6667000000000001	n/a	Yes	2.98	n/a	5.0	GoodResponse	1	0.029	423.897	8	44	Feedback	Win	True
426.322	2.98	Win2	0.6667000000000001	n/a	Yes	2.98	n/a	n/a	GoodResponse	1	0.0	n/a	8	44	ISIslide	Win	True
429.315	0.25	Control	0.6739	0.0	Yes	2.885	0.015	n/a	GoodResponse	0	n/a	n/a	8	45	Cue	Neutral	True
429.565	4.1	Control	0.6739	0.0	Yes	2.885	0.0	n/a	GoodResponse	0	n/a	n/a	8	45	Fixation	Neutral	True
433.661	0.33	Control	0.6739	0.004	Yes	2.885	-0.004	2.0	GoodResponse	0	0.247	432.908	8	45	Target	Neutral	True
433.908	0.3	Control	0.6739	0.004	Yes	2.885	-0.004	2.0	GoodResponse	0	0.247	n/a	8	45	ButtonPress	Neutral	True
433.995	0.37	Control	0.6739	n/a	Yes	2.885	n/a	n/a	GoodResponse	0	n/a	n/a	8	45	Blank	Neutral	True
434.363	1.45	Control	0.6739	n/a	Yes	2.885	n/a	5.0	GoodResponse	0	0.046	433.409	8	45	Feedback	Neutral	True
435.817	2.885	Control	0.6739	n/a	Yes	2.885	n/a	n/a	GoodResponse	0	0.0	n/a	8	45	ISIslide	Neutral	True
438.726	0.25	Lose2	0.6809000000000001	0.0	Yes	3.374	0.026	n/a	GoodResponse	0	n/a	n/a	8	46	Cue	AvoidedLoss	True
438.977	4.0	Lose2	0.6809000000000001	0.0	Yes	3.374	0.001	n/a	GoodResponse	0	n/a	n/a	8	46	Fixation	AvoidedLoss	True
442.972	0.32	Lose2	0.6809000000000001	0.004	Yes	3.374	-0.004	2.0	GoodResponse	0	0.278	442.25	8	46	Target	AvoidedLoss	True
443.25	0.3	Lose2	0.6809000000000001	0.004	Yes	3.374	-0.004	2.0	GoodResponse	0	0.278	n/a	8	46	ButtonPress	AvoidedLoss	True
443.306	0.38	Lose2	0.6809000000000001	n/a	Yes	3.374	n/a	n/a	GoodResponse	0	n/a	n/a	8	46	Blank	AvoidedLoss	True
443.674	1.45	Lose2	0.6809000000000001	n/a	Yes	3.374	n/a	5.0	GoodResponse	0	0.008	442.682	8	46	Feedback	AvoidedLoss	True
445.129	3.374	Lose2	0.6809000000000001	n/a	Yes	3.374	n/a	n/a	GoodResponse	0	0.0	n/a	8	46	ISIslide	AvoidedLoss	True
448.522	0.25	Lose2	0.6875	0.0	Yes	2.678	0.022	n/a	GoodResponse	0	n/a	n/a	8	47	Cue	AvoidedLoss	True
448.773	4.0	Lose2	0.6875	0.0	Yes	2.678	0.001	n/a	GoodResponse	0	n/a	n/a	8	47	Fixation	AvoidedLoss	True
452.768	0.31	Lose2	0.6875	0.004	Yes	2.678	-0.004	2.0	GoodResponse	0	0.231	451.999	8	47	Target	AvoidedLoss	True
452.999	0.3	Lose2	0.6875	0.004	Yes	2.678	-0.004	2.0	GoodResponse	0	0.231	n/a	8	47	ButtonPress	AvoidedLoss	True
453.086	0.39	Lose2	0.6875	n/a	Yes	2.678	n/a	n/a	GoodResponse	0	n/a	n/a	8	47	Blank	AvoidedLoss	True
453.47	1.45	Lose2	0.6875	n/a	Yes	2.678	n/a	5.0	GoodResponse	0	0.011	452.481	8	47	Feedback	AvoidedLoss	True
454.925	2.678	Lose2	0.6875	n/a	Yes	2.678	n/a	n/a	GoodResponse	0	0.0	n/a	8	47	ISIslide	AvoidedLoss	True
457.616	0.25	Lose2	0.6939	0.0	Yes	3.034	0.016	n/a	GoodResponse	0	n/a	n/a	8	48	Cue	AvoidedLoss	True
457.867	3.95	Lose2	0.6939	0.0	Yes	3.034	0.001	n/a	GoodResponse	0	n/a	n/a	8	48	Fixation	AvoidedLoss	True
461.812	0.3	Lose2	0.6939	0.004	Yes	3.034	-0.004	2.0	GoodResponse	0	0.241	461.053	8	48	Target	AvoidedLoss	True
462.053	0.3	Lose2	0.6939	0.004	Yes	3.034	-0.004	2.0	GoodResponse	0	0.241	n/a	8	48	ButtonPress	AvoidedLoss	True
462.113	0.4	Lose2	0.6939	n/a	Yes	3.034	n/a	n/a	GoodResponse	0	n/a	n/a	8	48	Blank	AvoidedLoss	True
462.514	1.45	Lose2	0.6939	n/a	Yes	3.034	n/a	5.0	GoodResponse	0	0.041	461.555	8	48	Feedback	AvoidedLoss	True
463.968	3.034	Lose2	0.6939	n/a	Yes	3.034	n/a	n/a	GoodResponse	0	0.0	n/a	8	48	ISIslide	AvoidedLoss	True
467.027	0.25	Control	0.7	0.0	Yes	2.873	0.027	n/a	GoodResponse	0	n/a	n/a	8	49	Cue	Neutral	True
467.278	4.0	Control	0.7	0.0	Yes	2.873	0.001	n/a	GoodResponse	0	n/a	n/a	8	49	Fixation	Neutral	True
471.273	0.29	Control	0.7	0.004	Yes	2.873	-0.004	2.0	GoodResponse	0	0.275	470.548	8	49	Target	Neutral	True
471.548	0.3	Control	0.7	0.004	Yes	2.873	-0.004	2.0	GoodResponse	0	0.275	n/a	8	49	ButtonPress	Neutral	True
471.574	0.41	Control	0.7	n/a	Yes	2.873	n/a	n/a	GoodResponse	0	n/a	n/a	8	49	Blank	Neutral	True
471.975	1.45	Control	0.7	n/a	Yes	2.873	n/a	5.0	GoodResponse	0	0.043	471.018	8	49	Feedback	Neutral	True
473.43	2.873	Control	0.7	n/a	Yes	2.873	n/a	n/a	GoodResponse	0	0.0	n/a	8	49	ISIslide	Neutral	True
476.322	0.25	Control	0.6862999999999999	0.0	No	2.778	0.022	n/a	NoResponse	0	n/a	n/a	8	50	Cue	Neutral	True
476.573	4.0	Control	0.6862999999999999	0.0	No	2.778	0.001	n/a	NoResponse	0	n/a	n/a	8	50	Fixation	Neutral	True
480.568	0.28	Control	0.6862999999999999	0.004	No	2.778	-0.004	2.0	NoResponse	0	0.492	480.06	8	50	Target	Neutral	True
480.852	0.42	Control	0.6862999999999999	n/a	No	2.778	n/a	n/a	NoResponse	0	n/a	n/a	8	50	Blank	Neutral	True
481.06	0.3	Control	0.6862999999999999	0.004	No	2.778	-0.004	2.0	NoResponse	0	0.492	n/a	8	50	ButtonPress	Neutral	True
481.27	1.45	Control	0.6862999999999999	n/a	No	2.778	n/a	5.0	NoResponse	0	0.017	480.287	8	50	Feedback	Neutral	True
482.724	2.778	Control	0.6862999999999999	n/a	No	2.778	n/a	n/a	NoResponse	0	0.0	n/a	8	50	ISIslide	Neutral	True
485.516	0.25	Control	0.6923	0.0	Yes	2.734	0.016	n/a	GoodResponse	0	n/a	n/a	8	51	Cue	Neutral	True
485.767	3.95	Control	0.6923	0.0	Yes	2.734	0.001	n/a	GoodResponse	0	n/a	n/a	8	51	Fixation	Neutral	True
489.712	0.27	Control	0.6923	0.004	Yes	2.734	-0.004	2.0	GoodResponse	0	0.226	488.938	8	51	Target	Neutral	True
489.938	0.3	Control	0.6923	0.004	Yes	2.734	-0.004	2.0	GoodResponse	0	0.226	n/a	8	51	ButtonPress	Neutral	True
489.996	0.43	Control	0.6923	n/a	Yes	2.734	n/a	n/a	GoodResponse	0	n/a	n/a	8	51	Blank	Neutral	True
490.414	1.45	Control	0.6923	n/a	Yes	2.734	n/a	5.0	GoodResponse	0	0.042	489.456	8	51	Feedback	Neutral	True
491.868	2.734	Control	0.6923	n/a	Yes	2.734	n/a	n/a	GoodResponse	0	0.0	n/a	8	51	ISIslide	Neutral	True
494.627	0.25	Control	0.6792	0.0	No	2.623	0.027	n/a	NoResponse	0	n/a	n/a	8	52	Cue	Neutral	True
494.877	4.05	Control	0.6792	0.0	No	2.623	0.0	n/a	NoResponse	0	n/a	n/a	8	52	Fixation	Neutral	True
498.923	0.26	Control	0.6792	0.004	No	2.623	-0.004	2.0	NoResponse	0	0.321	498.244	8	52	Target	Neutral	True
499.19	0.44	Control	0.6792	n/a	No	2.623	n/a	n/a	NoResponse	0	n/a	n/a	8	52	Blank	Neutral	True
499.244	0.3	Control	0.6792	0.004	No	2.623	-0.004	2.0	NoResponse	0	0.321	n/a	8	52	ButtonPress	Neutral	True
499.625	1.45	Control	0.6792	n/a	No	2.623	n/a	5.0	NoResponse	0	0.002	498.627	8	52	Feedback	Neutral	True
501.079	2.623	Control	0.6792	n/a	No	2.623	n/a	n/a	NoResponse	0	0.0	n/a	8	52	ISIslide	Neutral	True
503.72	0.25	Win2	0.6851999999999999	0.0	Yes	2.93	0.02	n/a	GoodResponse	1	n/a	n/a	9	53	Cue	Win	True
503.971	4.05	Win2	0.6851999999999999	0.0	Yes	2.93	0.001	n/a	GoodResponse	1	n/a	n/a	9	53	Fixation	Win	True
508.017	0.25	Win2	0.6851999999999999	0.003	Yes	2.93	-0.003	2.0	GoodResponse	1	0.215	507.232	9	53	Target	Win	True
508.232	0.3	Win2	0.6851999999999999	0.003	Yes	2.93	-0.003	2.0	GoodResponse	1	0.215	n/a	9	53	ButtonPress	Win	True
508.267	0.45	Win2	0.6851999999999999	n/a	Yes	2.93	n/a	n/a	GoodResponse	1	n/a	n/a	9	53	Blank	Win	True
508.719	1.45	Win2	0.6851999999999999	n/a	Yes	2.93	n/a	5.0	GoodResponse	1	0.03	507.749	9	53	Feedback	Win	True
510.173	2.93	Win2	0.6851999999999999	n/a	Yes	2.93	n/a	n/a	GoodResponse	1	0.0	n/a	9	53	ISIslide	Win	True
513.115	0.25	Win2	0.6909000000000001	0.0	Yes	2.735	0.015	n/a	GoodResponse	1	n/a	n/a	10	54	Cue	Win	True
513.366	3.95	Win2	0.6909000000000001	0.0	Yes	2.735	0.001	n/a	GoodResponse	1	n/a	n/a	10	54	Fixation	Win	True
517.311	0.24	Win2	0.6909000000000001	0.004	Yes	2.735	-0.004	2.0	GoodResponse	1	0.227	516.538	10	54	Target	Win	True
517.538	0.3	Win2	0.6909000000000001	0.004	Yes	2.735	-0.004	2.0	GoodResponse	1	0.227	n/a	10	54	ButtonPress	Win	True
517.562	0.46	Win2	0.6909000000000001	n/a	Yes	2.735	n/a	n/a	GoodResponse	1	n/a	n/a	10	54	Blank	Win	True
518.013	1.45	Win2	0.6909000000000001	n/a	Yes	2.735	n/a	5.0	GoodResponse	1	0.006	517.019	10	54	Feedback	Win	True
519.467	2.735	Win2	0.6909000000000001	n/a	Yes	2.735	n/a	n/a	GoodResponse	1	0.0	n/a	10	54	ISIslide	Win	True
522.226	0.25	Control	0.6786	0.0	No	3.024	0.026	n/a	NoResponse	0	n/a	n/a	10	55	Cue	Neutral	True
522.477	3.95	Control	0.6786	0.0	No	3.024	0.001	n/a	NoResponse	0	n/a	n/a	10	55	Fixation	Neutral	True
526.422	0.23	Control	0.6786	0.004	No	3.024	-0.004	2.0	NoResponse	0	0.342	525.764	10	55	Target	Neutral	True
526.656	0.47	Control	0.6786	n/a	No	3.024	n/a	n/a	NoResponse	0	n/a	n/a	10	55	Blank	Neutral	True
526.764	0.3	Control	0.6786	0.004	No	3.024	-0.004	2.0	NoResponse	0	0.342	n/a	10	55	ButtonPress	Neutral	True
527.124	1.45	Control	0.6786	n/a	No	3.024	n/a	5.0	NoResponse	0	0.015	526.139	10	55	Feedback	Neutral	True
528.578	3.024	Control	0.6786	n/a	No	3.024	n/a	n/a	NoResponse	0	0.0	n/a	10	55	ISIslide	Neutral	True
531.62	0.25	Control	0.6667000000000001	0.001	No	2.83	0.02	n/a	NoResponse	0	n/a	n/a	10	56	Cue	Neutral	True
531.871	3.95	Control	0.6667000000000001	0.0	No	2.83	0.001	n/a	NoResponse	0	n/a	n/a	10	56	Fixation	Neutral	True
535.816	0.22	Control	0.6667000000000001	0.004	No	2.83	-0.004	2.0	NoResponse	0	0.289	535.105	10	56	Target	Neutral	True
536.05	0.48	Control	0.6667000000000001	n/a	No	2.83	n/a	n/a	NoResponse	0	n/a	n/a	10	56	Blank	Neutral	True
536.105	0.3	Control	0.6667000000000001	0.004	No	2.83	-0.004	2.0	NoResponse	0	0.289	n/a	10	56	ButtonPress	Neutral	True
536.518	1.45	Control	0.6667000000000001	n/a	No	2.83	n/a	5.0	NoResponse	0	0.035	535.553	10	56	Feedback	Neutral	True
537.973	2.83	Control	0.6667000000000001	n/a	No	2.83	n/a	n/a	NoResponse	0	0.0	n/a	10	56	ISIslide	Neutral	True
540.815	0.25	Control	0.6552	0.0	No	3.485	0.015	n/a	LatePress	0	n/a	n/a	10	57	Cue	Neutral	True
541.065	4.0	Control	0.6552	0.0	No	3.485	0.0	n/a	LatePress	0	n/a	n/a	10	57	Fixation	Neutral	True
545.061	0.21	Control	0.6552	0.004	No	3.485	-0.004	2.0	LatePress	0	0.212	544.273	10	57	Target	Neutral	True
545.273	0.3	Control	0.6552	0.004	No	3.485	-0.004	2.0	LatePress	0	0.212	n/a	10	57	ButtonPress	Neutral	True
545.278	0.49	Control	0.6552	n/a	No	3.485	n/a	n/a	LatePress	0	n/a	n/a	10	57	Blank	Neutral	True
545.763	1.45	Control	0.6552	n/a	No	3.485	n/a	5.0	LatePress	0	0.01	544.773	10	57	Feedback	Neutral	True
547.217	3.485	Control	0.6552	n/a	No	3.485	n/a	n/a	LatePress	0	0.0	n/a	10	57	ISIslide	Neutral	True
550.728	0.25	Win2	0.6609999999999999	0.0	Yes	2.722	0.028	n/a	GoodResponse	1	n/a	n/a	11	58	Cue	Win	True
550.978	4.05	Win2	0.6609999999999999	0.0	Yes	2.722	0.0	n/a	GoodResponse	1	n/a	n/a	11	58	Fixation	Win	True
555.024	0.21	Win2	0.6609999999999999	0.004	Yes	2.722	-0.004	2.0	GoodResponse	1	0.207	554.231	11	58	Target	Win	True
555.231	0.3	Win2	0.6609999999999999	0.004	Yes	2.722	-0.004	2.0	GoodResponse	1	0.207	n/a	11	58	ButtonPress	Win	True
555.241	0.49	Win2	0.6609999999999999	n/a	Yes	2.722	n/a	n/a	GoodResponse	1	n/a	n/a	11	58	Blank	Win	True
555.726	1.45	Win2	0.6609999999999999	n/a	Yes	2.722	n/a	5.0	GoodResponse	1	0.047	554.773	11	58	Feedback	Win	True
557.18	2.722	Win2	0.6609999999999999	n/a	Yes	2.722	n/a	n/a	GoodResponse	1	0.0	n/a	11	58	ISIslide	Win	True
559.922	0.25	Lose2	0.6667000000000001	0.0	Yes	2.678	0.022	n/a	GoodResponse	0	n/a	n/a	11	59	Cue	AvoidedLoss	True
560.173	4.0	Lose2	0.6667000000000001	0.0	Yes	2.678	0.001	n/a	GoodResponse	0	n/a	n/a	11	59	Fixation	AvoidedLoss	True
564.168	0.21	Lose2	0.6667000000000001	0.004	Yes	2.678	-0.004	2.0	GoodResponse	0	0.2	563.368	11	59	Target	AvoidedLoss	True
564.368	0.3	Lose2	0.6667000000000001	0.004	Yes	2.678	-0.004	2.0	GoodResponse	0	0.2	n/a	11	59	ButtonPress	AvoidedLoss	True
564.385	0.49	Lose2	0.6667000000000001	n/a	Yes	2.678	n/a	n/a	GoodResponse	0	n/a	n/a	11	59	Blank	AvoidedLoss	True
564.87	1.45	Lose2	0.6667000000000001	n/a	Yes	2.678	n/a	5.0	GoodResponse	0	0.025	563.895	11	59	Feedback	AvoidedLoss	True
566.324	2.678	Lose2	0.6667000000000001	n/a	Yes	2.678	n/a	n/a	GoodResponse	0	0.0	n/a	11	59	ISIslide	AvoidedLoss	True
569.016	0.25	Control	0.6557	0.0	No	2.684	0.016	n/a	NoResponse	0	n/a	n/a	11	60	Cue	Neutral	False
569.266	4.0	Control	0.6557	0.0	No	2.684	0.0	n/a	NoResponse	0	n/a	n/a	11	60	Fixation	Neutral	False
573.262	0.2	Control	0.6557	0.004	No	2.684	-0.004	n/a	NoResponse	0	n/a	n/a	11	60	Target	Neutral	False
573.462	0.5	Control	0.6557	n/a	No	2.684	n/a	n/a	NoResponse	0	n/a	n/a	11	60	Blank	Neutral	False
573.964	1.45	Control	0.6557	n/a	No	2.684	n/a	5.0	NoResponse	0	0.007	572.971	11	60	Feedback	Neutral	False
575.418	2.684	Control	0.6557	n/a	No	2.684	n/a	n/a	NoResponse	0	0.0	n/a	11	60	ISIslide	Neutral	False
578.126	0.25	Lose2	0.6452	0.0	No	2.974	0.026	n/a	NoResponse	-1	n/a	n/a	10	61	Cue	Loss	True
578.377	4.0	Lose2	0.6452	0.0	No	2.974	0.001	n/a	NoResponse	-1	n/a	n/a	10	61	Fixation	Loss	True
582.372	0.2	Lose2	0.6452	0.004	No	2.974	-0.004	2.0	NoResponse	-1	0.213	581.585	10	61	Target	Loss	True
582.573	0.5	Lose2	0.6452	n/a	No	2.974	n/a	n/a	NoResponse	-1	n/a	n/a	10	61	Blank	Loss	True
582.585	0.3	Lose2	0.6452	0.004	No	2.974	-0.004	2.0	NoResponse	-1	0.213	n/a	10	61	ButtonPress	Loss	True
583.074	1.45	Lose2	0.6452	n/a	No	2.974	n/a	5.0	NoResponse	-1	0.016	582.09	10	61	Feedback	Loss	True
584.529	2.974	Lose2	0.6452	n/a	No	2.974	n/a	n/a	NoResponse	-1	0.0	n/a	10	61	ISIslide	Loss	True
587.521	0.25	Lose2	0.6507999999999999	0.0	Yes	2.879	0.021	n/a	GoodResponse	0	n/a	n/a	10	62	Cue	AvoidedLoss	True
587.772	3.9	Lose2	0.6507999999999999	0.0	Yes	2.879	0.001	n/a	GoodResponse	0	n/a	n/a	10	62	Fixation	AvoidedLoss	True
591.667	0.21	Lose2	0.6507999999999999	0.004	Yes	2.879	-0.004	2.0	GoodResponse	0	0.197	590.864	10	62	Target	AvoidedLoss	True
591.864	0.3	Lose2	0.6507999999999999	0.004	Yes	2.879	-0.004	2.0	GoodResponse	0	0.197	n/a	10	62	ButtonPress	AvoidedLoss	True
591.884	0.49	Lose2	0.6507999999999999	n/a	Yes	2.879	n/a	n/a	GoodResponse	0	n/a	n/a	10	62	Blank	AvoidedLoss	True
592.369	1.45	Lose2	0.6507999999999999	n/a	Yes	2.879	n/a	5.0	GoodResponse	0	0.038	591.407	10	62	Feedback	AvoidedLoss	True
593.823	2.879	Lose2	0.6507999999999999	n/a	Yes	2.879	n/a	n/a	GoodResponse	0	0.0	n/a	10	62	ISIslide	AvoidedLoss	True
596.715	0.25	Lose2	0.6562	0.0	Yes	2.635	0.015	n/a	GoodResponse	0	n/a	n/a	10	63	Cue	AvoidedLoss	True
596.966	4.05	Lose2	0.6562	0.0	Yes	2.635	0.001	n/a	GoodResponse	0	n/a	n/a	10	63	Fixation	AvoidedLoss	True
601.011	0.22	Lose2	0.6562	0.004	Yes	2.635	-0.004	2.0	GoodResponse	0	0.205	600.216	10	63	Target	AvoidedLoss	True
601.216	0.3	Lose2	0.6562	0.004	Yes	2.635	-0.004	2.0	GoodResponse	0	0.205	n/a	10	63	ButtonPress	AvoidedLoss	True
601.245	0.48	Lose2	0.6562	n/a	Yes	2.635	n/a	n/a	GoodResponse	0	n/a	n/a	10	63	Blank	AvoidedLoss	True
601.713	1.45	Lose2	0.6562	n/a	Yes	2.635	n/a	5.0	GoodResponse	0	0.011	600.724	10	63	Feedback	AvoidedLoss	True
603.168	2.635	Lose2	0.6562	n/a	Yes	2.635	n/a	n/a	GoodResponse	0	0.0	n/a	10	63	ISIslide	AvoidedLoss	True
605.826	0.25	Win2	0.6615000000000001	0.0	Yes	3.124	0.026	n/a	GoodResponse	1	n/a	n/a	11	64	Cue	Win	True
606.076	4.15	Win2	0.6615000000000001	0.001	Yes	3.124	0.0	n/a	GoodResponse	1	n/a	n/a	11	64	Fixation	Win	True
610.222	0.22	Win2	0.6615000000000001	0.004	Yes	3.124	-0.004	2.0	GoodResponse	1	0.213	609.435	11	64	Target	Win	True
610.435	0.3	Win2	0.6615000000000001	0.004	Yes	3.124	-0.004	2.0	GoodResponse	1	0.213	n/a	11	64	ButtonPress	Win	True
610.456	0.48	Win2	0.6615000000000001	n/a	Yes	3.124	n/a	n/a	GoodResponse	1	n/a	n/a	11	64	Blank	Win	True
610.924	1.45	Win2	0.6615000000000001	n/a	Yes	3.124	n/a	5.0	GoodResponse	1	0.02	609.944	11	64	Feedback	Win	True
612.379	3.124	Win2	0.6615000000000001	n/a	Yes	3.124	n/a	n/a	GoodResponse	1	0.0	n/a	11	64	ISIslide	Win	True
615.521	0.25	Control	0.6515000000000001	0.0	No	2.779	0.021	n/a	NoResponse	0	n/a	n/a	11	65	Cue	Neutral	True
615.772	4.0	Control	0.6515000000000001	0.0	No	2.779	0.001	n/a	NoResponse	0	n/a	n/a	11	65	Fixation	Neutral	True
619.767	0.22	Control	0.6515000000000001	0.004	No	2.779	-0.004	2.0	NoResponse	0	0.236	619.003	11	65	Target	Neutral	True
620.001	0.48	Control	0.6515000000000001	n/a	No	2.779	n/a	n/a	NoResponse	0	n/a	n/a	11	65	Blank	Neutral	True
620.003	0.3	Control	0.6515000000000001	0.004	No	2.779	-0.004	2.0	NoResponse	0	0.236	n/a	11	65	ButtonPress	Neutral	True
620.469	1.45	Control	0.6515000000000001	n/a	No	2.779	n/a	5.0	NoResponse	0	0.035	619.504	11	65	Feedback	Neutral	True
621.924	2.779	Control	0.6515000000000001	n/a	No	2.779	n/a	n/a	NoResponse	0	0.0	n/a	11	65	ISIslide	Neutral	True
624.715	0.25	Win2	0.6567000000000001	0.001	Yes	2.785	0.015	n/a	GoodResponse	1	n/a	n/a	12	66	Cue	Win	True
624.966	3.9	Win2	0.6567000000000001	0.0	Yes	2.785	0.001	n/a	GoodResponse	1	n/a	n/a	12	66	Fixation	Win	True
628.861	0.23	Win2	0.6567000000000001	0.004	Yes	2.785	-0.004	2.0	GoodResponse	1	0.201	628.062	12	66	Target	Win	True
629.062	0.3	Win2	0.6567000000000001	0.004	Yes	2.785	-0.004	2.0	GoodResponse	1	0.201	n/a	12	66	ButtonPress	Win	True
629.095	0.47	Win2	0.6567000000000001	n/a	Yes	2.785	n/a	n/a	GoodResponse	1	n/a	n/a	12	66	Blank	Win	True
629.563	1.45	Win2	0.6567000000000001	n/a	Yes	2.785	n/a	5.0	GoodResponse	1	0.014	628.577	12	66	Feedback	Win	True
631.018	2.785	Win2	0.6567000000000001	n/a	Yes	2.785	n/a	n/a	GoodResponse	1	0.0	n/a	12	66	ISIslide	Win	True
633.826	0.25	Control	0.6470999999999999	0.0	No	2.724	0.026	n/a	NoResponse	0	n/a	n/a	12	67	Cue	Neutral	True
634.077	3.95	Control	0.6470999999999999	0.0	No	2.724	0.001	n/a	NoResponse	0	n/a	n/a	12	67	Fixation	Neutral	True
638.022	0.23	Control	0.6470999999999999	0.004	No	2.724	-0.004	2.0	NoResponse	0	0.377	637.399	12	67	Target	Neutral	True
638.256	0.47	Control	0.6470999999999999	n/a	No	2.724	n/a	n/a	NoResponse	0	n/a	n/a	12	67	Blank	Neutral	True
638.399	0.3	Control	0.6470999999999999	0.004	No	2.724	-0.004	2.0	NoResponse	0	0.377	n/a	12	67	ButtonPress	Neutral	True
638.724	1.45	Control	0.6470999999999999	n/a	No	2.724	n/a	5.0	NoResponse	0	0.024	637.748	12	67	Feedback	Neutral	True
640.178	2.724	Control	0.6470999999999999	n/a	No	2.724	n/a	n/a	NoResponse	0	0.0	n/a	12	67	ISIslide	Neutral	True
642.92	0.25	Win2	0.6522	0.0	Yes	3.08	0.02	n/a	GoodResponse	1	n/a	n/a	13	68	Cue	Win	True
643.171	4.0	Win2	0.6522	0.0	Yes	3.08	0.001	n/a	GoodResponse	1	n/a	n/a	13	68	Fixation	Win	True
647.166	0.24	Win2	0.6522	0.004	Yes	3.08	-0.004	2.0	GoodResponse	1	0.196	646.362	13	68	Target	Win	True
647.362	0.3	Win2	0.6522	0.004	Yes	3.08	-0.004	2.0	GoodResponse	1	0.196	n/a	13	68	ButtonPress	Win	True
647.417	0.46	Win2	0.6522	n/a	Yes	3.08	n/a	n/a	GoodResponse	1	n/a	n/a	13	68	Blank	Win	True
647.868	1.45	Win2	0.6522	n/a	Yes	3.08	n/a	5.0	GoodResponse	1	0.002	646.87	13	68	Feedback	Win	True
649.322	3.08	Win2	0.6522	n/a	Yes	3.08	n/a	n/a	GoodResponse	1	0.0	n/a	13	68	ISIslide	Win	True
652.432	0.25	Win2	0.6429	0.0	No	3.218	0.032	n/a	NoResponse	0	n/a	n/a	13	69	Cue	MissedWin	True
652.682	3.95	Win2	0.6429	0.001	No	3.218	0.0	n/a	NoResponse	0	n/a	n/a	13	69	Fixation	MissedWin	True
656.628	0.25	Win2	0.6429	0.004	No	3.218	-0.004	2.0	NoResponse	0	0.333	655.961	13	69	Target	MissedWin	True
656.878	0.45	Win2	0.6429	n/a	No	3.218	n/a	n/a	NoResponse	0	n/a	n/a	13	69	Blank	MissedWin	True
656.961	0.3	Win2	0.6429	0.004	No	3.218	-0.004	2.0	NoResponse	0	0.333	n/a	13	69	ButtonPress	MissedWin	True
657.33	1.45	Win2	0.6429	n/a	No	3.218	n/a	5.0	NoResponse	0	0.008	656.338	13	69	Feedback	MissedWin	True
658.784	3.218	Win2	0.6429	n/a	No	3.218	n/a	n/a	NoResponse	0	0.0	n/a	13	69	ISIslide	MissedWin	True
662.027	0.25	Lose2	0.6479	0.0	Yes	3.023	0.027	n/a	GoodResponse	0	n/a	n/a	13	70	Cue	AvoidedLoss	True
662.278	4.05	Lose2	0.6479	0.0	Yes	3.023	0.001	n/a	GoodResponse	0	n/a	n/a	13	70	Fixation	AvoidedLoss	True
666.323	0.26	Lose2	0.6479	0.004	Yes	3.023	-0.004	2.0	GoodResponse	0	0.206	665.529	13	70	Target	AvoidedLoss	True
666.529	0.3	Lose2	0.6479	0.004	Yes	3.023	-0.004	2.0	GoodResponse	0	0.206	n/a	13	70	ButtonPress	AvoidedLoss	True
666.591	0.44	Lose2	0.6479	n/a	Yes	3.023	n/a	n/a	GoodResponse	0	n/a	n/a	13	70	Blank	AvoidedLoss	True
667.025	1.45	Lose2	0.6479	n/a	Yes	3.023	n/a	5.0	GoodResponse	0	0.015	666.04	13	70	Feedback	AvoidedLoss	True
668.48	3.023	Lose2	0.6479	n/a	Yes	3.023	n/a	n/a	GoodResponse	0	0.0	n/a	13	70	ISIslide	AvoidedLoss	True
671.522	0.25	Win2	0.6528	0.0	Yes	2.728	0.022	n/a	GoodResponse	1	n/a	n/a	14	71	Cue	Win	True
671.773	4.05	Win2	0.6528	0.0	Yes	2.728	0.001	n/a	GoodResponse	1	n/a	n/a	14	71	Fixation	Win	True
675.818	0.27	Win2	0.6528	0.004	Yes	2.728	-0.004	2.0	GoodResponse	1	0.196	675.014	14	71	Target	Win	True
676.014	0.3	Win2	0.6528	0.004	Yes	2.728	-0.004	2.0	GoodResponse	1	0.196	n/a	14	71	ButtonPress	Win	True
676.102	0.43	Win2	0.6528	n/a	Yes	2.728	n/a	n/a	GoodResponse	1	n/a	n/a	14	71	Blank	Win	True
676.52	1.45	Win2	0.6528	n/a	Yes	2.728	n/a	5.0	GoodResponse	1	0.032	675.552	14	71	Feedback	Win	True
677.975	2.728	Win2	0.6528	n/a	Yes	2.728	n/a	n/a	GoodResponse	1	0.0	n/a	14	71	ISIslide	Win	True
680.716	0.25	Win2	0.6575	0.0	Yes	2.784	0.016	n/a	GoodResponse	1	n/a	n/a	15	72	Cue	Win	True
680.967	4.1	Win2	0.6575	0.0	Yes	2.784	0.001	n/a	GoodResponse	1	n/a	n/a	15	72	Fixation	Win	True
685.063	0.28	Win2	0.6575	0.003	Yes	2.784	-0.003	2.0	GoodResponse	1	0.198	684.261	15	72	Target	Win	True
685.261	0.3	Win2	0.6575	0.003	Yes	2.784	-0.003	2.0	GoodResponse	1	0.198	n/a	15	72	ButtonPress	Win	True
685.347	0.42	Win2	0.6575	n/a	Yes	2.784	n/a	n/a	GoodResponse	1	n/a	n/a	15	72	Blank	Win	True
685.765	1.45	Win2	0.6575	n/a	Yes	2.784	n/a	5.0	GoodResponse	1	0.007	684.772	15	72	Feedback	Win	True
687.219	2.784	Win2	0.6575	n/a	Yes	2.784	n/a	n/a	GoodResponse	1	0.0	n/a	15	72	ISIslide	Win	True
690.027	0.25	Win2	0.6622	0.001	Yes	2.673	0.027	n/a	GoodResponse	1	n/a	n/a	16	73	Cue	Win	True
690.278	4.0	Win2	0.6622	0.0	Yes	2.673	0.001	n/a	GoodResponse	1	n/a	n/a	16	73	Fixation	Win	True
694.273	0.28	Win2	0.6622	0.004	Yes	2.673	-0.004	2.0	GoodResponse	1	0.195	693.468	16	73	Target	Win	True
694.468	0.3	Win2	0.6622	0.004	Yes	2.673	-0.004	2.0	GoodResponse	1	0.195	n/a	16	73	ButtonPress	Win	True
694.558	0.42	Win2	0.6622	n/a	Yes	2.673	n/a	n/a	GoodResponse	1	n/a	n/a	16	73	Blank	Win	True
694.976	1.45	Win2	0.6622	n/a	Yes	2.673	n/a	5.0	GoodResponse	1	0.015	693.991	16	73	Feedback	Win	True
696.43	2.673	Win2	0.6622	n/a	Yes	2.673	n/a	n/a	GoodResponse	1	0.0	n/a	16	73	ISIslide	Win	True
699.121	0.25	Lose2	0.6667000000000001	0.0	Yes	2.629	0.021	n/a	GoodResponse	0	n/a	n/a	16	74	Cue	AvoidedLoss	True
699.372	4.05	Lose2	0.6667000000000001	0.0	Yes	2.629	0.001	n/a	GoodResponse	0	n/a	n/a	16	74	Fixation	AvoidedLoss	True
703.417	0.28	Lose2	0.6667000000000001	0.004	Yes	2.629	-0.004	2.0	GoodResponse	0	0.207	702.624	16	74	Target	AvoidedLoss	True
703.624	0.3	Lose2	0.6667000000000001	0.004	Yes	2.629	-0.004	2.0	GoodResponse	0	0.207	n/a	16	74	ButtonPress	AvoidedLoss	True
703.702	0.42	Lose2	0.6667000000000001	n/a	Yes	2.629	n/a	n/a	GoodResponse	0	n/a	n/a	16	74	Blank	AvoidedLoss	True
704.12	1.45	Lose2	0.6667000000000001	n/a	Yes	2.629	n/a	5.0	GoodResponse	0	0.041	703.161	16	74	Feedback	AvoidedLoss	True
705.574	2.629	Lose2	0.6667000000000001	n/a	Yes	2.629	n/a	n/a	GoodResponse	0	0.0	n/a	16	74	ISIslide	AvoidedLoss	True
708.215	0.25	Lose2	0.6711	0.0	Yes	2.935	0.015	n/a	GoodResponse	0	n/a	n/a	16	75	Cue	AvoidedLoss	True
708.466	3.95	Lose2	0.6711	0.0	Yes	2.935	0.001	n/a	GoodResponse	0	n/a	n/a	16	75	Fixation	AvoidedLoss	True
712.411	0.27	Lose2	0.6711	0.004	Yes	2.935	-0.004	2.0	GoodResponse	0	0.225	711.636	16	75	Target	AvoidedLoss	True
712.636	0.3	Lose2	0.6711	0.004	Yes	2.935	-0.004	2.0	GoodResponse	0	0.225	n/a	16	75	ButtonPress	AvoidedLoss	True
712.695	0.43	Lose2	0.6711	n/a	Yes	2.935	n/a	n/a	GoodResponse	0	n/a	n/a	16	75	Blank	AvoidedLoss	True
713.113	1.45	Lose2	0.6711	n/a	Yes	2.935	n/a	5.0	GoodResponse	0	0.024	712.137	16	75	Feedback	AvoidedLoss	True
714.567	2.935	Lose2	0.6711	n/a	Yes	2.935	n/a	n/a	GoodResponse	0	0.0	n/a	16	75	ISIslide	AvoidedLoss	True
717.526	0.25	Control	0.6753	0.0	Yes	3.224	0.026	n/a	GoodResponse	0	n/a	n/a	16	76	Cue	Neutral	True
717.777	4.05	Control	0.6753	0.0	Yes	3.224	0.001	n/a	GoodResponse	0	n/a	n/a	16	76	Fixation	Neutral	True
721.823	0.26	Control	0.6753	0.003	Yes	3.224	-0.003	2.0	GoodResponse	0	0.231	721.054	16	76	Target	Neutral	True
722.054	0.3	Control	0.6753	0.003	Yes	3.224	-0.003	2.0	GoodResponse	0	0.231	n/a	16	76	ButtonPress	Neutral	True
722.09	0.44	Control	0.6753	n/a	Yes	3.224	n/a	n/a	GoodResponse	0	n/a	n/a	16	76	Blank	Neutral	True
722.525	1.45	Control	0.6753	n/a	Yes	3.224	n/a	5.0	GoodResponse	0	0.027	721.552	16	76	Feedback	Neutral	True
723.979	3.224	Control	0.6753	n/a	Yes	3.224	n/a	n/a	GoodResponse	0	0.0	n/a	16	76	ISIslide	Neutral	True
727.222	0.25	Lose2	0.6795	0.0	Yes	2.578	0.022	n/a	GoodResponse	0	n/a	n/a	16	77	Cue	AvoidedLoss	True
727.473	3.95	Lose2	0.6795	0.0	Yes	2.578	0.001	n/a	GoodResponse	0	n/a	n/a	16	77	Fixation	AvoidedLoss	True
731.418	0.25	Lose2	0.6795	0.004	Yes	2.578	-0.004	2.0	GoodResponse	0	0.207	730.625	16	77	Target	AvoidedLoss	True
731.625	0.3	Lose2	0.6795	0.004	Yes	2.578	-0.004	2.0	GoodResponse	0	0.207	n/a	16	77	ButtonPress	AvoidedLoss	True
731.669	0.45	Lose2	0.6795	n/a	Yes	2.578	n/a	n/a	GoodResponse	0	n/a	n/a	16	77	Blank	AvoidedLoss	True
732.12	1.45	Lose2	0.6795	n/a	Yes	2.578	n/a	5.0	GoodResponse	0	0.041	731.161	16	77	Feedback	AvoidedLoss	True
733.574	2.578	Lose2	0.6795	n/a	Yes	2.578	n/a	n/a	GoodResponse	0	0.0	n/a	16	77	ISIslide	AvoidedLoss	True
