onset	duration	cue_type	current_mean_accuracy	duration_error	is_hit	isi_adjusted	onset_delay	response	response_type	reward	rt	rt_time	total_reward	trial_number	trial_phase	trial_type	one_press
11.107	0.25	Control	1.0	0.0	Yes	2.943	0.007	n/a	GoodResponse	0	n/a	n/a	0	0	Cue	Neutral	True
11.358	3.85	Control	1.0	0.0	Yes	2.943	0.001	n/a	GoodResponse	0	n/a	n/a	0	0	Fixation	Neutral	True
15.203	0.4	Control	1.0	0.004	Yes	2.943	-0.004	2.0	GoodResponse	0	0.211	14.414	0	0	Target	Neutral	True
15.414	0.3	Control	1.0	0.004	Yes	2.943	-0.004	2.0	GoodResponse	0	0.211	n/a	0	0	ButtonPress	Neutral	True
15.604	0.3	Control	1.0	n/a	Yes	2.943	n/a	n/a	GoodResponse	0	n/a	n/a	0	0	Blank	Neutral	True
15.905	1.45	Control	1.0	n/a	Yes	2.943	n/a	5.0	GoodResponse	0	0.021	14.926	0	0	Feedback	Neutral	True
17.359	2.943	Control	1.0	n/a	Yes	2.943	n/a	n/a	GoodResponse	0	0.0	n/a	0	0	ISIslide	Neutral	True
20.402	0.25	Lose2	1.0	0.0	Yes	2.698	0.102	n/a	GoodResponse	0	n/a	n/a	0	1	Cue	AvoidedLoss	True
20.652	4.0	Lose2	1.0	0.0	Yes	2.698	0.0	n/a	GoodResponse	0	n/a	n/a	0	1	Fixation	AvoidedLoss	True
24.648	0.39	Lose2	1.0	0.004	Yes	2.698	-0.004	2.0	GoodResponse	0	0.192	23.84	0	1	Target	AvoidedLoss	True
24.84	0.3	Lose2	1.0	0.004	Yes	2.698	-0.004	2.0	GoodResponse	0	0.192	n/a	0	1	ButtonPress	AvoidedLoss	True
25.049	0.31	Lose2	1.0	n/a	Yes	2.698	n/a	n/a	GoodResponse	0	n/a	n/a	0	1	Blank	AvoidedLoss	True
25.35	1.45	Lose2	1.0	n/a	Yes	2.698	n/a	5.0	GoodResponse	0	0.04	24.39	0	1	Feedback	AvoidedLoss	True
26.804	2.698	Lose2	1.0	n/a	Yes	2.698	n/a	n/a	GoodResponse	0	0.0	n/a	0	1	ISIslide	AvoidedLoss	True
29.529	0.25	Control	1.0	0.0	Yes	2.571	0.029	n/a	GoodResponse	0	n/a	n/a	0	2	Cue	Neutral	True
29.78	4.1	Control	1.0	0.0	Yes	2.571	0.001	n/a	GoodResponse	0	n/a	n/a	0	2	Fixation	Neutral	True
33.875	0.38	Control	1.0	0.004	Yes	2.571	-0.004	2.0	GoodResponse	0	0.188	33.063	0	2	Target	Neutral	True
34.063	0.3	Control	1.0	0.004	Yes	2.571	-0.004	2.0	GoodResponse	0	0.188	n/a	0	2	ButtonPress	Neutral	True
34.26	0.32	Control	1.0	n/a	Yes	2.571	n/a	n/a	GoodResponse	0	n/a	n/a	0	2	Blank	Neutral	True
34.577	1.45	Control	1.0	n/a	Yes	2.571	n/a	5.0	GoodResponse	0	0.032	33.609	0	2	Feedback	Neutral	True
36.032	2.571	Control	1.0	n/a	Yes	2.571	n/a	n/a	GoodResponse	0	0.0	n/a	0	2	ISIslide	Neutral	True
38.69	0.25	Win2	1.0	0.0	Yes	2.76	0.09	n/a	GoodResponse	1	n/a	n/a	1	3	Cue	Win	True
38.94	3.95	Win2	1.0	0.0	Yes	2.76	0.0	n/a	GoodResponse	1	n/a	n/a	1	3	Fixation	Win	True
42.902	0.37	Win2	1.0	0.0	Yes	2.76	0.012	2.0	GoodResponse	1	0.204	42.106	1	3	Target	Win	True
43.106	0.3	Win2	1.0	0.0	Yes	2.76	0.012	2.0	GoodResponse	1	0.204	n/a	1	3	ButtonPress	Win	True
43.27	0.33	Win2	1.0	n/a	Yes	2.76	n/a	n/a	GoodResponse	1	n/a	n/a	1	3	Blank	Win	True
43.588	1.45	Win2	1.0	n/a	Yes	2.76	n/a	5.0	GoodResponse	1	0.046	42.634	1	3	Feedback	Win	True
45.042	2.76	Win2	1.0	n/a	Yes	2.76	n/a	n/a	GoodResponse	1	0.0	n/a	1	3	ISIslide	Win	True
47.817	0.25	Win2	1.0	0.0	Yes	3.283	0.017	n/a	GoodResponse	1	n/a	n/a	2	4	Cue	Win	True
48.068	4.0	Win2	1.0	0.0	Yes	3.283	0.001	n/a	GoodResponse	1	n/a	n/a	2	4	Fixation	Win	True
52.063	0.36	Win2	1.0	0.004	Yes	3.283	-0.004	2.0	GoodResponse	1	0.233	51.296	2	4	Target	Win	True
52.296	0.3	Win2	1.0	0.004	Yes	3.283	-0.004	2.0	GoodResponse	1	0.233	n/a	2	4	ButtonPress	Win	True
52.431	0.34	Win2	1.0	n/a	Yes	3.283	n/a	n/a	GoodResponse	1	n/a	n/a	2	4	Blank	Win	True
52.765	1.45	Win2	1.0	n/a	Yes	3.283	n/a	5.0	GoodResponse	1	0.04	51.805	2	4	Feedback	Win	True
54.219	3.283	Win2	1.0	n/a	Yes	3.283	n/a	n/a	GoodResponse	1	0.0	n/a	2	4	ISIslide	Win	True
57.529	0.25	Win2	1.0	0.0	Yes	2.771	0.029	n/a	GoodResponse	1	n/a	n/a	3	5	Cue	Win	True
57.78	4.0	Win2	1.0	0.0	Yes	2.771	0.001	n/a	GoodResponse	1	n/a	n/a	3	5	Fixation	Win	True
61.775	0.35	Win2	1.0	0.004	Yes	2.771	-0.004	2.0	GoodResponse	1	0.214	60.989	3	5	Target	Win	True
61.989	0.3	Win2	1.0	0.004	Yes	2.771	-0.004	2.0	GoodResponse	1	0.214	n/a	3	5	ButtonPress	Win	True
62.126	0.35	Win2	1.0	n/a	Yes	2.771	n/a	n/a	GoodResponse	1	n/a	n/a	3	5	Blank	Win	True
62.477	1.45	Win2	1.0	n/a	Yes	2.771	n/a	5.0	GoodResponse	1	0.034	61.511	3	5	Feedback	Win	True
63.932	2.771	Win2	1.0	n/a	Yes	2.771	n/a	n/a	GoodResponse	1	0.0	n/a	3	5	ISIslide	Win	True
66.724	0.25	Lose2	1.0	0.0	Yes	2.726	0.024	n/a	GoodResponse	0	n/a	n/a	3	6	Cue	AvoidedLoss	True
66.974	3.95	Lose2	1.0	0.0	Yes	2.726	0.0	n/a	GoodResponse	0	n/a	n/a	3	6	Fixation	AvoidedLoss	True
70.936	0.34	Lose2	1.0	0.0	Yes	2.726	0.012	2.0	GoodResponse	0	0.199	70.135	3	6	Target	AvoidedLoss	True
71.135	0.3	Lose2	1.0	0.0	Yes	2.726	0.012	2.0	GoodResponse	0	0.199	n/a	3	6	ButtonPress	AvoidedLoss	True
71.27	0.36	Lose2	1.0	n/a	Yes	2.726	n/a	n/a	GoodResponse	0	n/a	n/a	3	6	Blank	AvoidedLoss	True
71.622	1.45	Lose2	1.0	n/a	Yes	2.726	n/a	5.0	GoodResponse	0	0.011	70.633	3	6	Feedback	AvoidedLoss	True
73.076	2.726	Lose2	1.0	n/a	Yes	2.726	n/a	n/a	GoodResponse	0	0.0	n/a	3	6	ISIslide	AvoidedLoss	True
75.817	0.25	Lose2	0.875	0.0	No	4.033	0.017	n/a	PrematurePress	-1	n/a	n/a	2	7	Cue	Loss	True
76.068	4.05	Lose2	0.875	0.0	No	4.033	0.001	n/a	PrematurePress	-1	n/a	n/a	2	7	Fixation	Loss	True
80.114	0.33	Lose2	0.875	0.003	No	4.033	-0.003	2.0	PrematurePress	-1	0.047	79.161	2	7	Target	Loss	True
80.161	0.3	Lose2	0.875	0.003	No	4.033	-0.003	2.0	PrematurePress	-1	0.047	n/a	2	7	ButtonPress	Loss	True
80.448	0.37	Lose2	0.875	n/a	No	4.033	n/a	n/a	PrematurePress	-1	n/a	n/a	2	7	Blank	Loss	True
80.816	1.45	Lose2	0.875	n/a	No	4.033	n/a	5.0	PrematurePress	-1	0.037	79.853	2	7	Feedback	Loss	True
82.27	4.033	Lose2	0.875	n/a	No	4.033	n/a	n/a	PrematurePress	-1	0.0	n/a	2	7	ISIslide	Loss	True
86.315	0.25	Lose2	0.8889	0.001	Yes	3.035	0.015	n/a	GoodResponse	0	n/a	n/a	2	8	Cue	AvoidedLoss	True
86.566	3.95	Lose2	0.8889	0.0	Yes	3.035	0.001	n/a	GoodResponse	0	n/a	n/a	2	8	Fixation	AvoidedLoss	True
90.511	0.32	Lose2	0.8889	0.004	Yes	3.035	-0.004	2.0	GoodResponse	0	0.278	89.789	2	8	Target	AvoidedLoss	True
90.789	0.3	Lose2	0.8889	0.004	Yes	3.035	-0.004	2.0	GoodResponse	0	0.278	n/a	2	8	ButtonPress	AvoidedLoss	True
90.846	0.38	Lose2	0.8889	n/a	Yes	3.035	n/a	n/a	GoodResponse	0	n/a	n/a	2	8	Blank	AvoidedLoss	True
91.213	1.45	Lose2	0.8889	n/a	Yes	3.035	n/a	5.0	GoodResponse	0	0.03	90.243	2	8	Feedback	AvoidedLoss	True
92.668	3.035	Lose2	0.8889	n/a	Yes	3.035	n/a	n/a	GoodResponse	0	0.0	n/a	2	8	ISIslide	AvoidedLoss	True
95.727	0.25	Lose2	0.9	0.0	Yes	3.123	0.027	n/a	GoodResponse	0	n/a	n/a	2	9	Cue	AvoidedLoss	True
95.978	3.95	Lose2	0.9	0.0	Yes	3.123	0.001	n/a	GoodResponse	0	n/a	n/a	2	9	Fixation	AvoidedLoss	True
99.923	0.31	Lose2	0.9	0.004	Yes	3.123	-0.004	2.0	GoodResponse	0	0.185	99.108	2	9	Target	AvoidedLoss	True
100.108	0.3	Lose2	0.9	0.004	Yes	3.123	-0.004	2.0	GoodResponse	0	0.185	n/a	2	9	ButtonPress	AvoidedLoss	True
100.241	0.39	Lose2	0.9	n/a	Yes	3.123	n/a	n/a	GoodResponse	0	n/a	n/a	2	9	Blank	AvoidedLoss	True
100.625	1.45	Lose2	0.9	n/a	Yes	3.123	n/a	5.0	GoodResponse	0	0.033	99.658	2	9	Feedback	AvoidedLoss	True
102.079	3.123	Lose2	0.9	n/a	Yes	3.123	n/a	n/a	GoodResponse	0	0.0	n/a	2	9	ISIslide	AvoidedLoss	True
105.222	0.25	Control	0.9091	0.0	Yes	3.278	0.022	n/a	GoodResponse	0	n/a	n/a	2	10	Cue	Neutral	True
105.473	4.0	Control	0.9091	0.0	Yes	3.278	0.001	n/a	GoodResponse	0	n/a	n/a	2	10	Fixation	Neutral	True
109.468	0.3	Control	0.9091	0.004	Yes	3.278	-0.004	2.0	GoodResponse	0	0.241	108.709	2	10	Target	Neutral	True
109.709	0.3	Control	0.9091	0.004	Yes	3.278	-0.004	2.0	GoodResponse	0	0.241	n/a	2	10	ButtonPress	Neutral	True
109.769	0.4	Control	0.9091	n/a	Yes	3.278	n/a	n/a	GoodResponse	0	n/a	n/a	2	10	Blank	Neutral	True
110.17	1.45	Control	0.9091	n/a	Yes	3.278	n/a	5.0	GoodResponse	0	0.049	109.219	2	10	Feedback	Neutral	True
111.625	3.278	Control	0.9091	n/a	Yes	3.278	n/a	n/a	GoodResponse	0	0.0	n/a	2	10	ISIslide	Neutral	True
114.918	0.25	Lose2	0.9167000000000001	0.0	Yes	2.732	0.018	n/a	GoodResponse	0	n/a	n/a	2	11	Cue	AvoidedLoss	True
115.169	4.05	Lose2	0.9167000000000001	0.0	Yes	2.732	0.001	n/a	GoodResponse	0	n/a	n/a	2	11	Fixation	AvoidedLoss	True
119.214	0.29	Lose2	0.9167000000000001	0.004	Yes	2.732	-0.004	2.0	GoodResponse	0	0.217	118.431	2	11	Target	AvoidedLoss	True
119.431	0.3	Lose2	0.9167000000000001	0.004	Yes	2.732	-0.004	2.0	GoodResponse	0	0.217	n/a	2	11	ButtonPress	AvoidedLoss	True
119.515	0.41	Lose2	0.9167000000000001	n/a	Yes	2.732	n/a	n/a	GoodResponse	0	n/a	n/a	2	11	Blank	AvoidedLoss	True
119.916	1.45	Lose2	0.9167000000000001	n/a	Yes	2.732	n/a	5.0	GoodResponse	0	0.009	118.925	2	11	Feedback	AvoidedLoss	True
121.37	2.732	Lose2	0.9167000000000001	n/a	Yes	2.732	n/a	n/a	GoodResponse	0	0.0	n/a	2	11	ISIslide	AvoidedLoss	True
124.129	0.25	Control	0.9231	0.0	Yes	2.971	0.029	n/a	GoodResponse	0	n/a	n/a	2	12	Cue	Neutral	True
124.379	3.9	Control	0.9231	0.0	Yes	2.971	0.0	n/a	GoodResponse	0	n/a	n/a	2	12	Fixation	Neutral	True
128.291	0.28	Control	0.9231	0.0	Yes	2.971	0.012	2.0	GoodResponse	0	0.193	127.484	2	12	Target	Neutral	True
128.484	0.3	Control	0.9231	0.0	Yes	2.971	0.012	2.0	GoodResponse	0	0.193	n/a	2	12	ButtonPress	Neutral	True
128.559	0.42	Control	0.9231	n/a	Yes	2.971	n/a	n/a	GoodResponse	0	n/a	n/a	2	12	Blank	Neutral	True
128.977	1.45	Control	0.9231	n/a	Yes	2.971	n/a	5.0	GoodResponse	0	0.022	127.999	2	12	Feedback	Neutral	True
130.431	2.971	Control	0.9231	n/a	Yes	2.971	n/a	n/a	GoodResponse	0	0.0	n/a	2	12	ISIslide	Neutral	True
133.423	0.25	Control	0.9286	0.0	Yes	2.777	0.023	n/a	GoodResponse	0	n/a	n/a	2	13	Cue	Neutral	True
133.674	4.0	Control	0.9286	0.0	Yes	2.777	0.001	n/a	GoodResponse	0	n/a	n/a	2	13	Fixation	Neutral	True
137.669	0.27	Control	0.9286	0.004	Yes	2.777	-0.004	2.0	GoodResponse	0	0.209	136.878	2	13	Target	Neutral	True
137.878	0.3	Control	0.9286	0.004	Yes	2.777	-0.004	2.0	GoodResponse	0	0.209	n/a	2	13	ButtonPress	Neutral	True
137.953	0.43	Control	0.9286	n/a	Yes	2.777	n/a	n/a	GoodResponse	0	n/a	n/a	2	13	Blank	Neutral	True
138.371	1.45	Control	0.9286	n/a	Yes	2.777	n/a	5.0	GoodResponse	0	0.042	137.413	2	13	Feedback	Neutral	True
139.826	2.777	Control	0.9286	n/a	Yes	2.777	n/a	n/a	GoodResponse	0	0.0	n/a	2	13	ISIslide	Neutral	True
142.617	0.25	Win2	0.9333	0.0	Yes	2.683	0.017	n/a	GoodResponse	1	n/a	n/a	3	14	Cue	Win	True
142.868	4.1	Win2	0.9333	0.0	Yes	2.683	0.001	n/a	GoodResponse	1	n/a	n/a	3	14	Fixation	Win	True
146.964	0.26	Win2	0.9333	0.003	Yes	2.683	-0.003	2.0	GoodResponse	1	0.161	146.125	3	14	Target	Win	True
147.125	0.3	Win2	0.9333	0.003	Yes	2.683	-0.003	2.0	GoodResponse	1	0.161	n/a	3	14	ButtonPress	Win	True
147.231	0.44	Win2	0.9333	n/a	Yes	2.683	n/a	n/a	GoodResponse	1	n/a	n/a	3	14	Blank	Win	True
147.666	1.45	Win2	0.9333	n/a	Yes	2.683	n/a	5.0	GoodResponse	1	0.016	146.682	3	14	Feedback	Win	True
149.12	2.683	Win2	0.9333	n/a	Yes	2.683	n/a	n/a	GoodResponse	1	0.0	n/a	3	14	ISIslide	Win	True
151.828	0.25	Control	0.9375	0.0	Yes	2.972	0.028	n/a	GoodResponse	0	n/a	n/a	3	15	Cue	Neutral	True
152.079	4.0	Control	0.9375	0.0	Yes	2.972	0.001	n/a	GoodResponse	0	n/a	n/a	3	15	Fixation	Neutral	True
156.074	0.25	Control	0.9375	0.004	Yes	2.972	-0.004	2.0	GoodResponse	0	0.21	155.284	3	15	Target	Neutral	True
156.284	0.3	Control	0.9375	0.004	Yes	2.972	-0.004	2.0	GoodResponse	0	0.21	n/a	3	15	ButtonPress	Neutral	True
156.325	0.45	Control	0.9375	n/a	Yes	2.972	n/a	n/a	GoodResponse	0	n/a	n/a	3	15	Blank	Neutral	True
156.776	1.45	Control	0.9375	n/a	Yes	2.972	n/a	5.0	GoodResponse	0	0.028	155.804	3	15	Feedback	Neutral	True
158.231	2.972	Control	0.9375	n/a	Yes	2.972	n/a	n/a	GoodResponse	0	0.0	n/a	3	15	ISIslide	Neutral	True
161.223	0.25	Win2	0.9412	0.0	Yes	2.877	0.023	n/a	GoodResponse	1	n/a	n/a	4	16	Cue	Win	True
161.474	4.0	Win2	0.9412	0.0	Yes	2.877	0.001	n/a	GoodResponse	1	n/a	n/a	4	16	Fixation	Win	True
165.469	0.24	Win2	0.9412	0.004	Yes	2.877	-0.004	2.0	GoodResponse	1	0.192	164.661	4	16	Target	Win	True
165.661	0.3	Win2	0.9412	0.004	Yes	2.877	-0.004	2.0	GoodResponse	1	0.192	n/a	4	16	ButtonPress	Win	True
165.72	0.46	Win2	0.9412	n/a	Yes	2.877	n/a	n/a	GoodResponse	1	n/a	n/a	4	16	Blank	Win	True
166.171	1.45	Win2	0.9412	n/a	Yes	2.877	n/a	5.0	GoodResponse	1	0.047	165.218	4	16	Feedback	Win	True
167.626	2.877	Win2	0.9412	n/a	Yes	2.877	n/a	n/a	GoodResponse	1	0.0	n/a	4	16	ISIslide	Win	True
170.518	0.25	Lose2	0.8889	0.0	No	2.732	0.018	n/a	NoResponse	-1	n/a	n/a	3	17	Cue	Loss	True
170.768	3.95	Lose2	0.8889	0.0	No	2.732	0.0	2.0	NoResponse	-1	3.949	173.717	3	17	Fixation	Loss	True
174.717	0.3	Lose2	0.8889	0.0	No	2.732	0.0	2.0	NoResponse	-1	3.949	n/a	3	17	ButtonPress	Loss	True
174.73	0.23	Lose2	0.8889	0.0	No	2.732	0.012	n/a	NoResponse	-1	n/a	n/a	3	17	Target	Loss	True
174.947	0.47	Lose2	0.8889	n/a	No	2.732	n/a	n/a	NoResponse	-1	n/a	n/a	3	17	Blank	Loss	True
175.416	1.45	Lose2	0.8889	n/a	No	2.732	n/a	5.0	NoResponse	-1	0.021	174.437	3	17	Feedback	Loss	True
176.87	2.732	Lose2	0.8889	n/a	No	2.732	n/a	n/a	NoResponse	-1	0.0	n/a	3	17	ISIslide	Loss	True
179.628	0.25	Lose2	0.8421	0.0	No	2.722	0.028	n/a	LatePress	-1	n/a	n/a	2	18	Cue	Loss	True
179.879	4.05	Lose2	0.8421	0.0	No	2.722	0.001	n/a	LatePress	-1	n/a	n/a	2	18	Fixation	Loss	True
183.924	0.22	Lose2	0.8421	0.004	No	2.722	-0.004	2.0	LatePress	-1	0.22	183.144	2	18	Target	Loss	True
184.144	0.3	Lose2	0.8421	0.004	No	2.722	-0.004	2.0	LatePress	-1	0.22	n/a	2	18	ButtonPress	Loss	True
184.158	0.48	Lose2	0.8421	n/a	No	2.722	n/a	n/a	LatePress	-1	n/a	n/a	2	18	Blank	Loss	True
184.626	1.45	Lose2	0.8421	n/a	No	2.722	n/a	5.0	LatePress	-1	0.031	183.657	2	18	Feedback	Loss	True
186.081	2.722	Lose2	0.8421	n/a	No	2.722	n/a	n/a	LatePress	-1	0.0	n/a	2	18	ISIslide	Loss	True
188.822	0.25	Control	0.85	0.0	Yes	2.928	0.022	n/a	GoodResponse	0	n/a	n/a	2	19	Cue	Neutral	True
189.073	3.95	Control	0.85	0.0	Yes	2.928	0.001	n/a	GoodResponse	0	n/a	n/a	2	19	Fixation	Neutral	True
193.018	0.21	Control	0.85	0.004	Yes	2.928	-0.004	2.0	GoodResponse	0	0.165	192.183	2	19	Target	Neutral	True
193.183	0.3	Control	0.85	0.004	Yes	2.928	-0.004	2.0	GoodResponse	0	0.165	n/a	2	19	ButtonPress	Neutral	True
193.236	0.49	Control	0.85	n/a	Yes	2.928	n/a	n/a	GoodResponse	0	n/a	n/a	2	19	Blank	Neutral	True
193.72	1.45	Control	0.85	n/a	Yes	2.928	n/a	5.0	GoodResponse	0	0.01	192.73	2	19	Feedback	Neutral	True
195.175	2.928	Control	0.85	n/a	Yes	2.928	n/a	n/a	GoodResponse	0	0.0	n/a	2	19	ISIslide	Neutral	True
198.117	0.25	Control	0.8095	0.0	No	2.633	0.017	n/a	NoResponse	0	n/a	n/a	2	20	Cue	Neutral	True
198.368	4.05	Control	0.8095	0.0	No	2.633	0.001	n/a	NoResponse	0	n/a	n/a	2	20	Fixation	Neutral	True
202.413	0.2	Control	0.8095	0.004	No	2.633	-0.004	2.0	NoResponse	0	0.247	201.66	2	20	Target	Neutral	True
202.614	0.5	Control	0.8095	n/a	No	2.633	n/a	n/a	NoResponse	0	n/a	n/a	2	20	Blank	Neutral	True
202.66	0.3	Control	0.8095	0.004	No	2.633	-0.004	2.0	NoResponse	0	0.247	n/a	2	20	ButtonPress	Neutral	True
203.115	1.45	Control	0.8095	n/a	No	2.633	n/a	5.0	NoResponse	0	0.03	202.145	2	20	Feedback	Neutral	True
204.569	2.633	Control	0.8095	n/a	No	2.633	n/a	n/a	NoResponse	0	0.0	n/a	2	20	ISIslide	Neutral	True
207.227	0.25	Control	0.8181999999999999	0.0	Yes	2.773	0.027	n/a	GoodResponse	0	n/a	n/a	2	21	Cue	Neutral	True
207.478	4.1	Control	0.8181999999999999	0.0	Yes	2.773	0.001	n/a	GoodResponse	0	n/a	n/a	2	21	Fixation	Neutral	True
211.574	0.19	Control	0.8181999999999999	0.003	Yes	2.773	-0.003	2.0	GoodResponse	0	0.164	210.738	2	21	Target	Neutral	True
211.738	0.3	Control	0.8181999999999999	0.003	Yes	2.773	-0.003	2.0	GoodResponse	0	0.164	n/a	2	21	ButtonPress	Neutral	True
211.774	0.51	Control	0.8181999999999999	n/a	Yes	2.773	n/a	n/a	GoodResponse	0	n/a	n/a	2	21	Blank	Neutral	True
212.276	1.45	Control	0.8181999999999999	n/a	Yes	2.773	n/a	5.0	GoodResponse	0	0.04	211.316	2	21	Feedback	Neutral	True
213.73	2.773	Control	0.8181999999999999	n/a	Yes	2.773	n/a	n/a	GoodResponse	0	0.0	n/a	2	21	ISIslide	Neutral	True
216.522	0.25	Control	0.7826000000000001	0.0	No	2.778	0.022	n/a	NoResponse	0	n/a	n/a	2	22	Cue	Neutral	True
216.773	4.0	Control	0.7826000000000001	0.0	No	2.778	0.001	n/a	NoResponse	0	n/a	n/a	2	22	Fixation	Neutral	True
220.768	0.18	Control	0.7826000000000001	0.004	No	2.778	-0.004	2.0	NoResponse	0	0.214	219.982	2	22	Target	Neutral	True
220.952	0.52	Control	0.7826000000000001	n/a	No	2.778	n/a	n/a	NoResponse	0	n/a	n/a	2	22	Blank	Neutral	True
220.982	0.3	Control	0.7826000000000001	0.004	No	2.778	-0.004	2.0	NoResponse	0	0.214	n/a	2	22	ButtonPress	Neutral	True
221.47	1.45	Control	0.7826000000000001	n/a	No	2.778	n/a	5.0	NoResponse	0	0.015	220.485	2	22	Feedback	Neutral	True
222.924	2.778	Control	0.7826000000000001	n/a	No	2.778	n/a	n/a	NoResponse	0	0.0	n/a	2	22	ISIslide	Neutral	True
225.716	0.25	Control	0.75	0.0	No	2.784	0.016	n/a	NoResponse	0	n/a	n/a	2	23	Cue	Neutral	True
225.967	3.9	Control	0.75	0.0	No	2.784	0.001	2.0	NoResponse	0	3.595	228.562	2	23	Fixation	Neutral	True
229.562	0.3	Control	0.75	0.0	No	2.784	0.001	2.0	NoResponse	0	3.595	n/a	2	23	ButtonPress	Neutral	True
229.862	0.17	Control	0.75	0.004	No	2.784	-0.004	n/a	NoResponse	0	n/a	n/a	2	23	Target	Neutral	True
230.046	0.53	Control	0.75	n/a	No	2.784	n/a	n/a	NoResponse	0	n/a	n/a	2	23	Blank	Neutral	True
230.564	1.45	Control	0.75	n/a	No	2.784	n/a	5.0	NoResponse	0	0.044	229.608	2	23	Feedback	Neutral	True
232.018	2.784	Control	0.75	n/a	No	2.784	n/a	n/a	NoResponse	0	0.0	n/a	2	23	ISIslide	Neutral	True
234.827	0.25	Win2	0.72	0.0	No	3.123	0.027	n/a	NoResponse	0	n/a	n/a	2	24	Cue	MissedWin	True
235.077	3.95	Win2	0.72	0.001	No	3.123	0.0	n/a	NoResponse	0	n/a	n/a	2	24	Fixation	MissedWin	True
239.023	0.16	Win2	0.72	0.004	No	3.123	-0.004	2.0	NoResponse	0	0.19	238.213	2	24	Target	MissedWin	True
239.19	0.54	Win2	0.72	n/a	No	3.123	n/a	n/a	NoResponse	0	n/a	n/a	2	24	Blank	MissedWin	True
239.213	0.3	Win2	0.72	0.004	No	3.123	-0.004	2.0	NoResponse	0	0.19	n/a	2	24	ButtonPress	MissedWin	True
239.725	1.45	Win2	0.72	n/a	No	3.123	n/a	5.0	NoResponse	0	0.007	238.732	2	24	Feedback	MissedWin	True
241.179	3.123	Win2	0.72	n/a	No	3.123	n/a	n/a	NoResponse	0	0.0	n/a	2	24	ISIslide	MissedWin	True
244.322	0.25	Win2	0.7308	0.0	Yes	3.078	0.022	n/a	GoodResponse	1	n/a	n/a	3	25	Cue	Win	True
244.573	4.0	Win2	0.7308	0.0	Yes	3.078	0.001	n/a	GoodResponse	1	n/a	n/a	3	25	Fixation	Win	True
248.568	0.15	Win2	0.7308	0.004	Yes	3.078	-0.004	2.0	GoodResponse	1	0.106	247.674	3	25	Target	Win	True
248.674	0.3	Win2	0.7308	0.004	Yes	3.078	-0.004	2.0	GoodResponse	1	0.106	n/a	3	25	ButtonPress	Win	True
248.718	0.55	Win2	0.7308	n/a	Yes	3.078	n/a	n/a	GoodResponse	1	n/a	n/a	3	25	Blank	Win	True
249.27	1.45	Win2	0.7308	n/a	Yes	3.078	n/a	5.0	GoodResponse	1	0.021	248.291	3	25	Feedback	Win	True
250.724	3.078	Win2	0.7308	n/a	Yes	3.078	n/a	n/a	GoodResponse	1	0.0	n/a	3	25	ISIslide	Win	True
253.817	0.25	Win2	0.7037	0.0	No	2.933	0.017	n/a	NoResponse	0	n/a	n/a	3	26	Cue	MissedWin	True
254.068	3.95	Win2	0.7037	0.0	No	2.933	0.001	n/a	NoResponse	0	n/a	n/a	3	26	Fixation	MissedWin	True
258.013	0.15	Win2	0.7037	0.004	No	2.933	-0.004	2.0	NoResponse	0	0.216	257.229	3	26	Target	MissedWin	True
258.163	0.55	Win2	0.7037	n/a	No	2.933	n/a	n/a	NoResponse	0	n/a	n/a	3	26	Blank	MissedWin	True
258.229	0.3	Win2	0.7037	0.004	No	2.933	-0.004	2.0	NoResponse	0	0.216	n/a	3	26	ButtonPress	MissedWin	True
258.715	1.45	Win2	0.7037	n/a	No	2.933	n/a	5.0	NoResponse	0	0.039	257.754	3	26	Feedback	MissedWin	True
260.169	2.933	Win2	0.7037	n/a	No	2.933	n/a	n/a	NoResponse	0	0.0	n/a	3	26	ISIslide	MissedWin	True
263.128	0.25	Lose2	0.6786	0.0	No	2.822	0.028	n/a	NoResponse	-1	n/a	n/a	2	27	Cue	Loss	True
263.379	4.05	Lose2	0.6786	0.0	No	2.822	0.001	n/a	NoResponse	-1	n/a	n/a	2	27	Fixation	Loss	True
267.424	0.15	Lose2	0.6786	0.004	No	2.822	-0.004	2.0	NoResponse	-1	0.19	266.614	2	27	Target	Loss	True
267.575	0.55	Lose2	0.6786	n/a	No	2.822	n/a	n/a	NoResponse	-1	n/a	n/a	2	27	Blank	Loss	True
267.614	0.3	Lose2	0.6786	0.004	No	2.822	-0.004	2.0	NoResponse	-1	0.19	n/a	2	27	ButtonPress	Loss	True
268.126	1.45	Lose2	0.6786	n/a	No	2.822	n/a	5.0	NoResponse	-1	0.042	267.168	2	27	Feedback	Loss	True
269.581	2.822	Lose2	0.6786	n/a	No	2.822	n/a	n/a	NoResponse	-1	0.0	n/a	2	27	ISIslide	Loss	True
272.423	0.25	Control	0.6552	0.0	No	2.827	0.023	n/a	NoResponse	0	n/a	n/a	2	28	Cue	Neutral	True
272.673	4.05	Control	0.6552	0.0	No	2.827	0.0	2.0	NoResponse	0	3.917	275.59	2	28	Fixation	Neutral	True
276.59	0.3	Control	0.6552	0.0	No	2.827	0.0	2.0	NoResponse	0	3.917	n/a	2	28	ButtonPress	Neutral	True
276.719	0.15	Control	0.6552	0.004	No	2.827	-0.004	n/a	NoResponse	0	n/a	n/a	2	28	Target	Neutral	True
276.869	0.55	Control	0.6552	n/a	No	2.827	n/a	n/a	NoResponse	0	n/a	n/a	2	28	Blank	Neutral	True
277.421	1.45	Control	0.6552	n/a	No	2.827	n/a	5.0	NoResponse	0	0.015	276.436	2	28	Feedback	Neutral	True
278.875	2.827	Control	0.6552	n/a	No	2.827	n/a	n/a	NoResponse	0	0.0	n/a	2	28	ISIslide	Neutral	True
281.717	0.25	Lose2	0.6333	0.0	No	2.833	0.017	n/a	NoResponse	-1	n/a	n/a	1	29	Cue	Loss	True
281.968	3.95	Lose2	0.6333	0.0	No	2.833	0.001	n/a	NoResponse	-1	n/a	n/a	1	29	Fixation	Loss	True
285.913	0.15	Lose2	0.6333	0.004	No	2.833	-0.004	2.0	NoResponse	-1	0.221	285.134	1	29	Target	Loss	True
286.063	0.55	Lose2	0.6333	n/a	No	2.833	n/a	n/a	NoResponse	-1	n/a	n/a	1	29	Blank	Loss	True
286.134	0.3	Lose2	0.6333	0.004	No	2.833	-0.004	2.0	NoResponse	-1	0.221	n/a	1	29	ButtonPress	Loss	True
286.615	1.45	Lose2	0.6333	n/a	No	2.833	n/a	5.0	NoResponse	-1	0.041	285.656	1	29	Feedback	Loss	True
288.069	2.833	Lose2	0.6333	n/a	No	2.833	n/a	n/a	NoResponse	-1	0.0	n/a	1	29	ISIslide	Loss	True
290.928	0.25	Win2	0.6129	0.0	No	2.772	0.028	n/a	NoResponse	0	n/a	n/a	1	30	Cue	MissedWin	True
291.179	3.9	Win2	0.6129	0.0	No	2.772	0.001	n/a	NoResponse	0	n/a	n/a	1	30	Fixation	MissedWin	True
295.074	0.16	Win2	0.6129	0.004	No	2.772	-0.004	2.0	NoResponse	0	0.214	294.288	1	30	Target	MissedWin	True
295.241	0.54	Win2	0.6129	n/a	No	2.772	n/a	n/a	NoResponse	0	n/a	n/a	1	30	Blank	MissedWin	True
295.288	0.3	Win2	0.6129	0.004	No	2.772	-0.004	2.0	NoResponse	0	0.214	n/a	1	30	ButtonPress	MissedWin	True
295.776	1.45	Win2	0.6129	n/a	No	2.772	n/a	5.0	NoResponse	0	0.002	294.778	1	30	Feedback	MissedWin	True
297.23	2.772	Win2	0.6129	n/a	No	2.772	n/a	n/a	NoResponse	0	0.0	n/a	1	30	ISIslide	MissedWin	True
300.022	0.25	Lose2	0.5938	0.0	No	2.828	0.022	n/a	NoResponse	-1	n/a	n/a	0	31	Cue	Loss	True
300.273	4.05	Lose2	0.5938	0.0	No	2.828	0.001	2.0	NoResponse	-1	3.339	302.612	0	31	Fixation	Loss	True
303.612	0.3	Lose2	0.5938	0.0	No	2.828	0.001	2.0	NoResponse	-1	3.339	n/a	0	31	ButtonPress	Loss	True
304.318	0.17	Lose2	0.5938	0.004	No	2.828	-0.004	n/a	NoResponse	-1	n/a	n/a	0	31	Target	Loss	True
304.502	0.53	Lose2	0.5938	n/a	No	2.828	n/a	n/a	NoResponse	-1	n/a	n/a	0	31	Blank	Loss	True
305.02	1.45	Lose2	0.5938	n/a	No	2.828	n/a	5.0	NoResponse	-1	0.026	304.046	0	31	Feedback	Loss	True
306.474	2.828	Lose2	0.5938	n/a	No	2.828	n/a	n/a	NoResponse	-1	0.0	n/a	0	31	ISIslide	Loss	True
309.316	0.25	Lose2	0.5758	0.0	No	2.634	0.016	n/a	NoResponse	-1	n/a	n/a	-1	32	Cue	Loss	True
309.567	4.15	Lose2	0.5758	0.0	No	2.634	0.001	n/a	NoResponse	-1	n/a	n/a	-1	32	Fixation	Loss	True
313.713	0.18	Lose2	0.5758	0.003	No	2.634	-0.003	2.0	NoResponse	-1	0.192	312.905	-1	32	Target	Loss	True
313.897	0.52	Lose2	0.5758	n/a	No	2.634	n/a	n/a	NoResponse	-1	n/a	n/a	-1	32	Blank	Loss	True
313.905	0.3	Lose2	0.5758	0.003	No	2.634	-0.003	2.0	NoResponse	-1	0.192	n/a	-1	32	ButtonPress	Loss	True
314.415	1.45	Lose2	0.5758	n/a	No	2.634	n/a	5.0	NoResponse	-1	0.045	313.46	-1	32	Feedback	Loss	True
315.869	2.634	Lose2	0.5758	n/a	No	2.634	n/a	n/a	NoResponse	-1	0.0	n/a	-1	32	ISIslide	Loss	True
318.527	0.25	Win2	0.5882000000000001	0.0	Yes	2.673	0.027	n/a	GoodResponse	1	n/a	n/a	0	33	Cue	Win	True
318.778	4.0	Win2	0.5882000000000001	0.0	Yes	2.673	0.001	n/a	GoodResponse	1	n/a	n/a	0	33	Fixation	Win	True
322.773	0.19	Win2	0.5882000000000001	0.004	Yes	2.673	-0.004	2.0	GoodResponse	1	0.188	321.961	0	33	Target	Win	True
322.961	0.3	Win2	0.5882000000000001	0.004	Yes	2.673	-0.004	2.0	GoodResponse	1	0.188	n/a	0	33	ButtonPress	Win	True
322.974	0.51	Win2	0.5882000000000001	n/a	Yes	2.673	n/a	n/a	GoodResponse	1	n/a	n/a	0	33	Blank	Win	True
323.475	1.45	Win2	0.5882000000000001	n/a	Yes	2.673	n/a	5.0	GoodResponse	1	0.01	322.485	0	33	Feedback	Win	True
324.93	2.673	Win2	0.5882000000000001	n/a	Yes	2.673	n/a	n/a	GoodResponse	1	0.0	n/a	0	33	ISIslide	Win	True
327.621	0.25	Lose2	0.5714	0.0	No	2.629	0.021	n/a	LatePress	-1	n/a	n/a	-1	34	Cue	Loss	True
327.872	4.05	Lose2	0.5714	0.0	No	2.629	0.001	n/a	LatePress	-1	n/a	n/a	-1	34	Fixation	Loss	True
331.917	0.2	Lose2	0.5714	0.004	No	2.629	-0.004	2.0	LatePress	-1	0.201	331.118	-1	34	Target	Loss	True
332.118	0.5	Lose2	0.5714	n/a	No	2.629	n/a	n/a	LatePress	-1	n/a	n/a	-1	34	Blank	Loss	True
332.118	0.3	Lose2	0.5714	0.004	No	2.629	-0.004	2.0	LatePress	-1	0.201	n/a	-1	34	ButtonPress	Loss	True
332.619	1.45	Lose2	0.5714	n/a	No	2.629	n/a	5.0	LatePress	-1	0.036	331.655	-1	34	Feedback	Loss	True
334.074	2.629	Lose2	0.5714	n/a	No	2.629	n/a	n/a	LatePress	-1	0.0	n/a	-1	34	ISIslide	Loss	True
336.715	0.25	Lose2	0.5832999999999999	0.0	Yes	2.685	0.015	n/a	GoodResponse	0	n/a	n/a	-1	35	Cue	AvoidedLoss	True
336.966	4.0	Lose2	0.5832999999999999	0.0	Yes	2.685	0.001	n/a	GoodResponse	0	n/a	n/a	-1	35	Fixation	AvoidedLoss	True
340.961	0.21	Lose2	0.5832999999999999	0.004	Yes	2.685	-0.004	2.0	GoodResponse	0	0.201	340.162	-1	35	Target	AvoidedLoss	True
341.162	0.3	Lose2	0.5832999999999999	0.004	Yes	2.685	-0.004	2.0	GoodResponse	0	0.201	n/a	-1	35	ButtonPress	AvoidedLoss	True
341.178	0.49	Lose2	0.5832999999999999	n/a	Yes	2.685	n/a	n/a	GoodResponse	0	n/a	n/a	-1	35	Blank	AvoidedLoss	True
341.663	1.45	Lose2	0.5832999999999999	n/a	Yes	2.685	n/a	5.0	GoodResponse	0	0.017	340.68	-1	35	Feedback	AvoidedLoss	True
343.118	2.685	Lose2	0.5832999999999999	n/a	Yes	2.685	n/a	n/a	GoodResponse	0	0.0	n/a	-1	35	ISIslide	AvoidedLoss	True
345.826	0.25	Control	0.5946	0.0	Yes	2.674	0.026	n/a	GoodResponse	0	n/a	n/a	-1	36	Cue	Neutral	True
346.076	4.0	Control	0.5946	0.0	Yes	2.674	0.0	n/a	GoodResponse	0	n/a	n/a	-1	36	Fixation	Neutral	True
350.072	0.22	Control	0.5946	0.004	Yes	2.674	-0.004	2.0	GoodResponse	0	0.175	349.247	-1	36	Target	Neutral	True
350.247	0.3	Control	0.5946	0.004	Yes	2.674	-0.004	2.0	GoodResponse	0	0.175	n/a	-1	36	ButtonPress	Neutral	True
350.306	0.48	Control	0.5946	n/a	Yes	2.674	n/a	n/a	GoodResponse	0	n/a	n/a	-1	36	Blank	Neutral	True
350.774	1.45	Control	0.5946	n/a	Yes	2.674	n/a	5.0	GoodResponse	0	0.028	349.802	-1	36	Feedback	Neutral	True
352.228	2.674	Control	0.5946	n/a	Yes	2.674	n/a	n/a	GoodResponse	0	0.0	n/a	-1	36	ISIslide	Neutral	True
354.92	0.25	Win2	0.6053000000000001	0.0	Yes	2.88	0.02	n/a	GoodResponse	1	n/a	n/a	0	37	Cue	Win	True
355.17	4.0	Win2	0.6053000000000001	0.0	Yes	2.88	0.0	n/a	GoodResponse	1	n/a	n/a	0	37	Fixation	Win	True
359.166	0.23	Win2	0.6053000000000001	0.004	Yes	2.88	-0.004	2.0	GoodResponse	1	0.199	358.365	0	37	Target	Win	True
359.365	0.3	Win2	0.6053000000000001	0.004	Yes	2.88	-0.004	2.0	GoodResponse	1	0.199	n/a	0	37	ButtonPress	Win	True
359.4	0.47	Win2	0.6053000000000001	n/a	Yes	2.88	n/a	n/a	GoodResponse	1	n/a	n/a	0	37	Blank	Win	True
359.868	1.45	Win2	0.6053000000000001	n/a	Yes	2.88	n/a	5.0	GoodResponse	1	0.007	358.875	0	37	Feedback	Win	True
361.322	2.88	Win2	0.6053000000000001	n/a	Yes	2.88	n/a	n/a	GoodResponse	1	0.0	n/a	0	37	ISIslide	Win	True
364.231	0.25	Lose2	0.5897	0.0	No	2.819	0.031	n/a	NoResponse	-1	n/a	n/a	-1	38	Cue	Loss	True
364.481	3.95	Lose2	0.5897	0.001	No	2.819	0.0	2.0	NoResponse	-1	3.55	367.031	-1	38	Fixation	Loss	True
368.031	0.3	Lose2	0.5897	0.001	No	2.819	0.0	2.0	NoResponse	-1	3.55	n/a	-1	38	ButtonPress	Loss	True
368.427	0.24	Lose2	0.5897	0.004	No	2.819	-0.004	n/a	NoResponse	-1	n/a	n/a	-1	38	Target	Loss	True
368.677	0.46	Lose2	0.5897	n/a	No	2.819	n/a	n/a	NoResponse	-1	n/a	n/a	-1	38	Blank	Loss	True
369.129	1.45	Lose2	0.5897	n/a	No	2.819	n/a	5.0	NoResponse	-1	0.014	368.143	-1	38	Feedback	Loss	True
370.583	2.819	Lose2	0.5897	n/a	No	2.819	n/a	n/a	NoResponse	-1	0.0	n/a	-1	38	ISIslide	Loss	True
373.425	0.25	Win2	0.6	0.0	Yes	2.975	0.025	n/a	GoodResponse	1	n/a	n/a	0	39	Cue	Win	True
373.676	4.1	Win2	0.6	0.0	Yes	2.975	0.001	n/a	GoodResponse	1	n/a	n/a	0	39	Fixation	Win	True
377.771	0.25	Win2	0.6	0.004	Yes	2.975	-0.004	2.0	GoodResponse	1	0.22	376.991	0	39	Target	Win	True
377.991	0.3	Win2	0.6	0.004	Yes	2.975	-0.004	2.0	GoodResponse	1	0.22	n/a	0	39	ButtonPress	Win	True
378.022	0.45	Win2	0.6	n/a	Yes	2.975	n/a	n/a	GoodResponse	1	n/a	n/a	0	39	Blank	Win	True
378.473	1.45	Win2	0.6	n/a	Yes	2.975	n/a	5.0	GoodResponse	1	0.036	377.509	0	39	Feedback	Win	True
379.928	2.975	Win2	0.6	n/a	Yes	2.975	n/a	n/a	GoodResponse	1	0.0	n/a	0	39	ISIslide	Win	True
382.92	0.25	Win2	0.6098	0.0	Yes	2.73	0.02	n/a	GoodResponse	1	n/a	n/a	1	40	Cue	Win	True
383.171	3.95	Win2	0.6098	0.0	Yes	2.73	0.001	n/a	GoodResponse	1	n/a	n/a	1	40	Fixation	Win	True
387.116	0.26	Win2	0.6098	0.004	Yes	2.73	-0.004	2.0	GoodResponse	1	0.209	386.325	1	40	Target	Win	True
387.325	0.3	Win2	0.6098	0.004	Yes	2.73	-0.004	2.0	GoodResponse	1	0.209	n/a	1	40	ButtonPress	Win	True
387.383	0.44	Win2	0.6098	n/a	Yes	2.73	n/a	n/a	GoodResponse	1	n/a	n/a	1	40	Blank	Win	True
387.818	1.45	Win2	0.6098	n/a	Yes	2.73	n/a	5.0	GoodResponse	1	0.008	386.826	1	40	Feedback	Win	True
389.272	2.73	Win2	0.6098	n/a	Yes	2.73	n/a	n/a	GoodResponse	1	0.0	n/a	1	40	ISIslide	Win	True
392.031	0.25	Win2	0.619	0.0	Yes	2.769	0.031	n/a	GoodResponse	1	n/a	n/a	2	41	Cue	Win	True
392.281	3.9	Win2	0.619	0.0	Yes	2.769	0.0	n/a	GoodResponse	1	n/a	n/a	2	41	Fixation	Win	True
396.193	0.27	Win2	0.619	0.0	Yes	2.769	0.012	2.0	GoodResponse	1	0.264	395.457	2	41	Target	Win	True
396.457	0.3	Win2	0.619	0.0	Yes	2.769	0.012	2.0	GoodResponse	1	0.264	n/a	2	41	ButtonPress	Win	True
396.461	0.43	Win2	0.619	n/a	Yes	2.769	n/a	n/a	GoodResponse	1	n/a	n/a	2	41	Blank	Win	True
396.878	1.45	Win2	0.619	n/a	Yes	2.769	n/a	5.0	GoodResponse	1	0.021	395.899	2	41	Feedback	Win	True
398.333	2.769	Win2	0.619	n/a	Yes	2.769	n/a	n/a	GoodResponse	1	0.0	n/a	2	41	ISIslide	Win	True
401.124	0.25	Control	0.6279	0.001	Yes	2.926	0.024	n/a	GoodResponse	0	n/a	n/a	2	42	Cue	Neutral	True
401.375	3.85	Control	0.6279	0.0	Yes	2.926	0.001	n/a	GoodResponse	0	n/a	n/a	2	42	Fixation	Neutral	True
405.22	0.28	Control	0.6279	0.004	Yes	2.926	-0.004	2.0	GoodResponse	0	0.219	404.439	2	42	Target	Neutral	True
405.439	0.3	Control	0.6279	0.004	Yes	2.926	-0.004	2.0	GoodResponse	0	0.219	n/a	2	42	ButtonPress	Neutral	True
405.504	0.42	Control	0.6279	n/a	Yes	2.926	n/a	n/a	GoodResponse	0	n/a	n/a	2	42	Blank	Neutral	True
405.922	1.45	Control	0.6279	n/a	Yes	2.926	n/a	5.0	GoodResponse	0	0.002	404.924	2	42	Feedback	Neutral	True
407.377	2.926	Control	0.6279	n/a	Yes	2.926	n/a	n/a	GoodResponse	0	0.0	n/a	2	42	ISIslide	Neutral	True
410.319	0.25	Win2	0.6364	0.0	Yes	3.181	0.019	n/a	GoodResponse	1	n/a	n/a	3	43	Cue	Win	True
410.569	4.0	Win2	0.6364	0.0	Yes	3.181	0.0	n/a	GoodResponse	1	n/a	n/a	3	43	Fixation	Win	True
414.565	0.29	Win2	0.6364	0.004	Yes	3.181	-0.004	2.0	GoodResponse	1	0.283	413.848	3	43	Target	Win	True
414.848	0.3	Win2	0.6364	0.004	Yes	3.181	-0.004	2.0	GoodResponse	1	0.283	n/a	3	43	ButtonPress	Win	True
414.866	0.41	Win2	0.6364	n/a	Yes	3.181	n/a	n/a	GoodResponse	1	n/a	n/a	3	43	Blank	Win	True
415.267	1.45	Win2	0.6364	n/a	Yes	3.181	n/a	5.0	GoodResponse	1	0.022	414.289	3	43	Feedback	Win	True
416.721	3.181	Win2	0.6364	n/a	Yes	3.181	n/a	n/a	GoodResponse	1	0.0	n/a	3	43	ISIslide	Win	True
419.931	0.25	Win2	0.6444	0.0	Yes	2.969	0.031	n/a	GoodResponse	1	n/a	n/a	4	44	Cue	Win	True
420.182	4.0	Win2	0.6444	0.0	Yes	2.969	0.001	n/a	GoodResponse	1	n/a	n/a	4	44	Fixation	Win	True
424.177	0.3	Win2	0.6444	0.004	Yes	2.969	-0.004	2.0	GoodResponse	1	0.221	423.398	4	44	Target	Win	True
424.398	0.3	Win2	0.6444	0.004	Yes	2.969	-0.004	2.0	GoodResponse	1	0.221	n/a	4	44	ButtonPress	Win	True
424.478	0.4	Win2	0.6444	n/a	Yes	2.969	n/a	n/a	GoodResponse	1	n/a	n/a	4	44	Blank	Win	True
424.879	1.45	Win2	0.6444	n/a	Yes	2.969	n/a	5.0	GoodResponse	1	0.019	423.898	4	44	Feedback	Win	True
426.333	2.969	Win2	0.6444	n/a	Yes	2.969	n/a	n/a	GoodResponse	1	0.0	n/a	4	44	ISIslide	Win	True
429.326	0.25	Control	0.6522	0.0	Yes	2.874	0.026	n/a	GoodResponse	0	n/a	n/a	4	45	Cue	Neutral	True
429.576	4.1	Control	0.6522	0.0	Yes	2.874	0.0	n/a	GoodResponse	0	n/a	n/a	4	45	Fixation	Neutral	True
433.672	0.31	Control	0.6522	0.004	Yes	2.874	-0.004	2.0	GoodResponse	0	0.122	432.794	4	45	Target	Neutral	True
433.794	0.3	Control	0.6522	0.004	Yes	2.874	-0.004	2.0	GoodResponse	0	0.122	n/a	4	45	ButtonPress	Neutral	True
433.99	0.39	Control	0.6522	n/a	Yes	2.874	n/a	n/a	GoodResponse	0	n/a	n/a	4	45	Blank	Neutral	True
434.374	1.45	Control	0.6522	n/a	Yes	2.874	n/a	5.0	GoodResponse	0	0.037	433.411	4	45	Feedback	Neutral	True
435.828	2.874	Control	0.6522	n/a	Yes	2.874	n/a	n/a	GoodResponse	0	0.0	n/a	4	45	ISIslide	Neutral	True
438.72	0.25	Lose2	0.6596	0.0	Yes	3.38	0.02	n/a	GoodResponse	0	n/a	n/a	4	46	Cue	AvoidedLoss	True
438.971	4.0	Lose2	0.6596	0.0	Yes	3.38	0.001	n/a	GoodResponse	0	n/a	n/a	4	46	Fixation	AvoidedLoss	True
442.966	0.32	Lose2	0.6596	0.004	Yes	3.38	-0.004	2.0	GoodResponse	0	0.219	442.185	4	46	Target	AvoidedLoss	True
443.185	0.3	Lose2	0.6596	0.004	Yes	3.38	-0.004	2.0	GoodResponse	0	0.219	n/a	4	46	ButtonPress	AvoidedLoss	True
443.301	0.38	Lose2	0.6596	n/a	Yes	3.38	n/a	n/a	GoodResponse	0	n/a	n/a	4	46	Blank	AvoidedLoss	True
443.668	1.45	Lose2	0.6596	n/a	Yes	3.38	n/a	5.0	GoodResponse	0	0.011	442.679	4	46	Feedback	AvoidedLoss	True
445.123	3.38	Lose2	0.6596	n/a	Yes	3.38	n/a	n/a	GoodResponse	0	0.0	n/a	4	46	ISIslide	AvoidedLoss	True
448.516	0.25	Lose2	0.6667000000000001	0.0	Yes	2.684	0.016	n/a	GoodResponse	0	n/a	n/a	4	47	Cue	AvoidedLoss	True
448.767	4.0	Lose2	0.6667000000000001	0.0	Yes	2.684	0.001	n/a	GoodResponse	0	n/a	n/a	4	47	Fixation	AvoidedLoss	True
452.762	0.32	Lose2	0.6667000000000001	0.004	Yes	2.684	-0.004	2.0	GoodResponse	0	0.22	451.982	4	47	Target	AvoidedLoss	True
452.982	0.3	Lose2	0.6667000000000001	0.004	Yes	2.684	-0.004	2.0	GoodResponse	0	0.22	n/a	4	47	ButtonPress	AvoidedLoss	True
453.097	0.38	Lose2	0.6667000000000001	n/a	Yes	2.684	n/a	n/a	GoodResponse	0	n/a	n/a	4	47	Blank	AvoidedLoss	True
453.464	1.45	Lose2	0.6667000000000001	n/a	Yes	2.684	n/a	5.0	GoodResponse	0	0.02	452.484	4	47	Feedback	AvoidedLoss	True
454.919	2.684	Lose2	0.6667000000000001	n/a	Yes	2.684	n/a	n/a	GoodResponse	0	0.0	n/a	4	47	ISIslide	AvoidedLoss	True
457.627	0.25	Lose2	0.6735	0.0	Yes	3.023	0.027	n/a	GoodResponse	0	n/a	n/a	4	48	Cue	AvoidedLoss	True
457.878	3.95	Lose2	0.6735	0.0	Yes	3.023	0.001	n/a	GoodResponse	0	n/a	n/a	4	48	Fixation	AvoidedLoss	True
461.823	0.31	Lose2	0.6735	0.004	Yes	3.023	-0.004	2.0	GoodResponse	0	0.236	461.059	4	48	Target	AvoidedLoss	True
462.059	0.3	Lose2	0.6735	0.004	Yes	3.023	-0.004	2.0	GoodResponse	0	0.236	n/a	4	48	ButtonPress	AvoidedLoss	True
462.14	0.39	Lose2	0.6735	n/a	Yes	3.023	n/a	n/a	GoodResponse	0	n/a	n/a	4	48	Blank	AvoidedLoss	True
462.525	1.45	Lose2	0.6735	n/a	Yes	3.023	n/a	5.0	GoodResponse	0	0.032	461.557	4	48	Feedback	AvoidedLoss	True
463.979	3.023	Lose2	0.6735	n/a	Yes	3.023	n/a	n/a	GoodResponse	0	0.0	n/a	4	48	ISIslide	AvoidedLoss	True
467.022	0.25	Control	0.68	0.0	Yes	2.878	0.022	n/a	GoodResponse	0	n/a	n/a	4	49	Cue	Neutral	True
467.272	4.0	Control	0.68	0.001	Yes	2.878	0.0	n/a	GoodResponse	0	n/a	n/a	4	49	Fixation	Neutral	True
471.268	0.3	Control	0.68	0.004	Yes	2.878	-0.004	2.0	GoodResponse	0	0.259	470.527	4	49	Target	Neutral	True
471.527	0.3	Control	0.68	0.004	Yes	2.878	-0.004	2.0	GoodResponse	0	0.259	n/a	4	49	ButtonPress	Neutral	True
471.569	0.4	Control	0.68	n/a	Yes	2.878	n/a	n/a	GoodResponse	0	n/a	n/a	4	49	Blank	Neutral	True
471.97	1.45	Control	0.68	n/a	Yes	2.878	n/a	5.0	GoodResponse	0	0.001	470.971	4	49	Feedback	Neutral	True
473.424	2.878	Control	0.68	n/a	Yes	2.878	n/a	n/a	GoodResponse	0	0.0	n/a	4	49	ISIslide	Neutral	True
476.316	0.25	Control	0.6862999999999999	0.0	Yes	2.784	0.016	n/a	GoodResponse	0	n/a	n/a	4	50	Cue	Neutral	True
476.567	4.0	Control	0.6862999999999999	0.0	Yes	2.784	0.001	n/a	GoodResponse	0	n/a	n/a	4	50	Fixation	Neutral	True
480.562	0.29	Control	0.6862999999999999	0.004	Yes	2.784	-0.004	2.0	GoodResponse	0	0.194	479.756	4	50	Target	Neutral	True
480.756	0.3	Control	0.6862999999999999	0.004	Yes	2.784	-0.004	2.0	GoodResponse	0	0.194	n/a	4	50	ButtonPress	Neutral	True
480.863	0.41	Control	0.6862999999999999	n/a	Yes	2.784	n/a	n/a	GoodResponse	0	n/a	n/a	4	50	Blank	Neutral	True
481.264	1.45	Control	0.6862999999999999	n/a	Yes	2.784	n/a	5.0	GoodResponse	0	0.024	480.288	4	50	Feedback	Neutral	True
482.719	2.784	Control	0.6862999999999999	n/a	Yes	2.784	n/a	n/a	GoodResponse	0	0.0	n/a	4	50	ISIslide	Neutral	True
485.527	0.25	Control	0.6923	0.0	Yes	2.723	0.027	n/a	GoodResponse	0	n/a	n/a	4	51	Cue	Neutral	True
485.778	3.95	Control	0.6923	0.0	Yes	2.723	0.001	n/a	GoodResponse	0	n/a	n/a	4	51	Fixation	Neutral	True
489.723	0.28	Control	0.6923	0.004	Yes	2.723	-0.004	2.0	GoodResponse	0	0.212	488.935	4	51	Target	Neutral	True
489.935	0.3	Control	0.6923	0.004	Yes	2.723	-0.004	2.0	GoodResponse	0	0.212	n/a	4	51	ButtonPress	Neutral	True
490.007	0.42	Control	0.6923	n/a	Yes	2.723	n/a	n/a	GoodResponse	0	n/a	n/a	4	51	Blank	Neutral	True
490.425	1.45	Control	0.6923	n/a	Yes	2.723	n/a	5.0	GoodResponse	0	0.034	489.459	4	51	Feedback	Neutral	True
491.879	2.723	Control	0.6923	n/a	Yes	2.723	n/a	n/a	GoodResponse	0	0.0	n/a	4	51	ISIslide	Neutral	True
494.621	0.25	Control	0.6981	0.0	Yes	2.629	0.021	n/a	GoodResponse	0	n/a	n/a	4	52	Cue	Neutral	True
494.872	4.05	Control	0.6981	0.0	Yes	2.629	0.001	n/a	GoodResponse	0	n/a	n/a	4	52	Fixation	Neutral	True
498.917	0.27	Control	0.6981	0.004	Yes	2.629	-0.004	2.0	GoodResponse	0	0.213	498.13	4	52	Target	Neutral	True
499.13	0.3	Control	0.6981	0.004	Yes	2.629	-0.004	2.0	GoodResponse	0	0.213	n/a	4	52	ButtonPress	Neutral	True
499.201	0.43	Control	0.6981	n/a	Yes	2.629	n/a	n/a	GoodResponse	0	n/a	n/a	4	52	Blank	Neutral	True
499.619	1.45	Control	0.6981	n/a	Yes	2.629	n/a	5.0	GoodResponse	0	0.011	498.63	4	52	Feedback	Neutral	True
501.074	2.629	Control	0.6981	n/a	Yes	2.629	n/a	n/a	GoodResponse	0	0.0	n/a	4	52	ISIslide	Neutral	True
503.715	0.25	Win2	0.7037	0.0	Yes	2.935	0.015	n/a	GoodResponse	1	n/a	n/a	5	53	Cue	Win	True
503.966	4.05	Win2	0.7037	0.0	Yes	2.935	0.001	n/a	GoodResponse	1	n/a	n/a	5	53	Fixation	Win	True
508.011	0.26	Win2	0.7037	0.004	Yes	2.935	-0.004	2.0	GoodResponse	1	0.185	507.196	5	53	Target	Win	True
508.196	0.3	Win2	0.7037	0.004	Yes	2.935	-0.004	2.0	GoodResponse	1	0.185	n/a	5	53	ButtonPress	Win	True
508.279	0.44	Win2	0.7037	n/a	Yes	2.935	n/a	n/a	GoodResponse	1	n/a	n/a	5	53	Blank	Win	True
508.713	1.45	Win2	0.7037	n/a	Yes	2.935	n/a	5.0	GoodResponse	1	0.039	507.752	5	53	Feedback	Win	True
510.168	2.935	Win2	0.7037	n/a	Yes	2.935	n/a	n/a	GoodResponse	1	0.0	n/a	5	53	ISIslide	Win	True
513.126	0.25	Win2	0.7091	0.0	Yes	2.724	0.026	n/a	GoodResponse	1	n/a	n/a	6	54	Cue	Win	True
513.377	3.95	Win2	0.7091	0.0	Yes	2.724	0.001	n/a	GoodResponse	1	n/a	n/a	6	54	Fixation	Win	True
517.322	0.25	Win2	0.7091	0.004	Yes	2.724	-0.004	2.0	GoodResponse	1	0.188	516.51	6	54	Target	Win	True
517.51	0.3	Win2	0.7091	0.004	Yes	2.724	-0.004	2.0	GoodResponse	1	0.188	n/a	6	54	ButtonPress	Win	True
517.573	0.45	Win2	0.7091	n/a	Yes	2.724	n/a	n/a	GoodResponse	1	n/a	n/a	6	54	Blank	Win	True
518.024	1.45	Win2	0.7091	n/a	Yes	2.724	n/a	5.0	GoodResponse	1	0.044	517.068	6	54	Feedback	Win	True
519.479	2.724	Win2	0.7091	n/a	Yes	2.724	n/a	n/a	GoodResponse	1	0.0	n/a	6	54	ISIslide	Win	True
522.22	0.25	Control	0.6964	0.0	No	3.03	0.02	n/a	PrematurePress	0	n/a	n/a	6	55	Cue	Neutral	True
522.471	3.95	Control	0.6964	0.0	No	3.03	0.001	n/a	PrematurePress	0	n/a	n/a	6	55	Fixation	Neutral	True
526.416	0.24	Control	0.6964	0.004	No	3.03	-0.004	2.0	PrematurePress	0	0.024	525.44	6	55	Target	Neutral	True
526.44	0.3	Control	0.6964	0.004	No	3.03	-0.004	2.0	PrematurePress	0	0.024	n/a	6	55	ButtonPress	Neutral	True
526.667	0.46	Control	0.6964	n/a	No	3.03	n/a	n/a	PrematurePress	0	n/a	n/a	6	55	Blank	Neutral	True
527.118	1.45	Control	0.6964	n/a	No	3.03	n/a	5.0	PrematurePress	0	0.023	526.141	6	55	Feedback	Neutral	True
528.573	3.03	Control	0.6964	n/a	No	3.03	n/a	n/a	PrematurePress	0	0.0	n/a	6	55	ISIslide	Neutral	True
531.615	0.25	Control	0.6842	0.0	No	2.835	0.015	n/a	NoResponse	0	n/a	n/a	6	56	Cue	Neutral	True
531.866	3.95	Control	0.6842	0.0	No	2.835	0.001	n/a	NoResponse	0	n/a	n/a	6	56	Fixation	Neutral	True
535.811	0.23	Control	0.6842	0.004	No	2.835	-0.004	2.0	NoResponse	0	0.259	535.07	6	56	Target	Neutral	True
536.045	0.47	Control	0.6842	n/a	No	2.835	n/a	n/a	NoResponse	0	n/a	n/a	6	56	Blank	Neutral	True
536.07	0.3	Control	0.6842	0.004	No	2.835	-0.004	2.0	NoResponse	0	0.259	n/a	6	56	ButtonPress	Neutral	True
536.513	1.45	Control	0.6842	n/a	No	2.835	n/a	5.0	NoResponse	0	0.043	535.556	6	56	Feedback	Neutral	True
537.967	2.835	Control	0.6842	n/a	No	2.835	n/a	n/a	NoResponse	0	0.0	n/a	6	56	ISIslide	Neutral	True
540.826	0.25	Control	0.6724	0.0	No	3.474	0.026	n/a	NoResponse	0	n/a	n/a	6	57	Cue	Neutral	True
541.077	4.0	Control	0.6724	0.0	No	3.474	0.001	n/a	NoResponse	0	n/a	n/a	6	57	Fixation	Neutral	True
545.072	0.22	Control	0.6724	0.004	No	3.474	-0.004	2.0	NoResponse	0	0.242	544.314	6	57	Target	Neutral	True
545.306	0.48	Control	0.6724	n/a	No	3.474	n/a	n/a	NoResponse	0	n/a	n/a	6	57	Blank	Neutral	True
545.314	0.3	Control	0.6724	0.004	No	3.474	-0.004	2.0	NoResponse	0	0.242	n/a	6	57	ButtonPress	Neutral	True
545.774	1.45	Control	0.6724	n/a	No	3.474	n/a	5.0	NoResponse	0	0.002	544.776	6	57	Feedback	Neutral	True
547.228	3.474	Control	0.6724	n/a	No	3.474	n/a	n/a	NoResponse	0	0.0	n/a	6	57	ISIslide	Neutral	True
550.722	0.25	Win2	0.6609999999999999	0.0	No	2.728	0.022	n/a	PrematurePress	0	n/a	n/a	6	58	Cue	MissedWin	True
550.973	4.05	Win2	0.6609999999999999	0.0	No	2.728	0.001	n/a	PrematurePress	0	n/a	n/a	6	58	Fixation	MissedWin	True
555.018	0.21	Win2	0.6609999999999999	0.004	No	2.728	-0.004	2.0	PrematurePress	0	0.058	554.076	6	58	Target	MissedWin	True
555.076	0.3	Win2	0.6609999999999999	0.004	No	2.728	-0.004	2.0	PrematurePress	0	0.058	n/a	6	58	ButtonPress	MissedWin	True
555.236	0.49	Win2	0.6609999999999999	n/a	No	2.728	n/a	n/a	PrematurePress	0	n/a	n/a	6	58	Blank	MissedWin	True
555.721	1.45	Win2	0.6609999999999999	n/a	No	2.728	n/a	5.0	PrematurePress	0	0.006	554.727	6	58	Feedback	MissedWin	True
557.175	2.728	Win2	0.6609999999999999	n/a	No	2.728	n/a	n/a	PrematurePress	0	0.0	n/a	6	58	ISIslide	MissedWin	True
559.916	0.25	Lose2	0.6667000000000001	0.001	Yes	2.684	0.016	n/a	GoodResponse	0	n/a	n/a	6	59	Cue	AvoidedLoss	True
560.167	4.0	Lose2	0.6667000000000001	0.0	Yes	2.684	0.001	n/a	GoodResponse	0	n/a	n/a	6	59	Fixation	AvoidedLoss	True
564.163	0.21	Lose2	0.6667000000000001	0.003	Yes	2.684	-0.003	2.0	GoodResponse	0	0.204	563.367	6	59	Target	AvoidedLoss	True
564.367	0.3	Lose2	0.6667000000000001	0.003	Yes	2.684	-0.003	2.0	GoodResponse	0	0.204	n/a	6	59	ButtonPress	AvoidedLoss	True
564.38	0.49	Lose2	0.6667000000000001	n/a	Yes	2.684	n/a	n/a	GoodResponse	0	n/a	n/a	6	59	Blank	AvoidedLoss	True
564.865	1.45	Lose2	0.6667000000000001	n/a	Yes	2.684	n/a	5.0	GoodResponse	0	0.033	563.898	6	59	Feedback	AvoidedLoss	True
566.319	2.684	Lose2	0.6667000000000001	n/a	Yes	2.684	n/a	n/a	GoodResponse	0	0.0	n/a	6	59	ISIslide	AvoidedLoss	True
569.027	0.25	Control	0.6557	0.0	No	2.673	0.027	n/a	NoResponse	0	n/a	n/a	6	60	Cue	Neutral	True
569.278	4.0	Control	0.6557	0.0	No	2.673	0.001	n/a	NoResponse	0	n/a	n/a	6	60	Fixation	Neutral	True
573.273	0.2	Control	0.6557	0.004	No	2.673	-0.004	2.0	NoResponse	0	0.236	572.509	6	60	Target	Neutral	True
573.474	0.5	Control	0.6557	n/a	No	2.673	n/a	n/a	NoResponse	0	n/a	n/a	6	60	Blank	Neutral	True
573.509	0.3	Control	0.6557	0.004	No	2.673	-0.004	2.0	NoResponse	0	0.236	n/a	6	60	ButtonPress	Neutral	True
573.975	1.45	Control	0.6557	n/a	No	2.673	n/a	5.0	NoResponse	0	0.044	573.019	6	60	Feedback	Neutral	True
575.43	2.673	Control	0.6557	n/a	No	2.673	n/a	n/a	NoResponse	0	0.0	n/a	6	60	ISIslide	Neutral	True
578.121	0.25	Lose2	0.6452	0.0	No	2.979	0.021	n/a	NoResponse	-1	n/a	n/a	5	61	Cue	Loss	True
578.372	4.0	Lose2	0.6452	0.0	No	2.979	0.001	n/a	NoResponse	-1	n/a	n/a	5	61	Fixation	Loss	True
582.367	0.2	Lose2	0.6452	0.004	No	2.979	-0.004	2.0	NoResponse	-1	0.258	581.625	5	61	Target	Loss	True
582.568	0.5	Lose2	0.6452	n/a	No	2.979	n/a	n/a	NoResponse	-1	n/a	n/a	5	61	Blank	Loss	True
582.625	0.3	Lose2	0.6452	0.004	No	2.979	-0.004	2.0	NoResponse	-1	0.258	n/a	5	61	ButtonPress	Loss	True
583.069	1.45	Lose2	0.6452	n/a	No	2.979	n/a	5.0	NoResponse	-1	0.023	582.092	5	61	Feedback	Loss	True
584.523	2.979	Lose2	0.6452	n/a	No	2.979	n/a	n/a	NoResponse	-1	0.0	n/a	5	61	ISIslide	Loss	True
587.516	0.25	Lose2	0.6349	0.0	No	2.884	0.016	n/a	NoResponse	-1	n/a	n/a	4	62	Cue	Loss	True
587.766	3.9	Lose2	0.6349	0.001	No	2.884	0.0	n/a	NoResponse	-1	n/a	n/a	4	62	Fixation	Loss	True
591.678	0.21	Lose2	0.6349	0.0	No	2.884	0.012	2.0	NoResponse	-1	0.209	590.887	4	62	Target	Loss	True
591.879	0.49	Lose2	0.6349	n/a	No	2.884	n/a	n/a	NoResponse	-1	n/a	n/a	4	62	Blank	Loss	True
591.887	0.3	Lose2	0.6349	0.0	No	2.884	0.012	2.0	NoResponse	-1	0.209	n/a	4	62	ButtonPress	Loss	True
592.364	1.45	Lose2	0.6349	n/a	No	2.884	n/a	5.0	NoResponse	-1	0.045	591.409	4	62	Feedback	Loss	True
593.818	2.884	Lose2	0.6349	n/a	No	2.884	n/a	n/a	NoResponse	-1	0.0	n/a	4	62	ISIslide	Loss	True
596.727	0.25	Lose2	0.6406000000000001	0.0	Yes	2.623	0.027	n/a	GoodResponse	0	n/a	n/a	4	63	Cue	AvoidedLoss	True
596.977	4.05	Lose2	0.6406000000000001	0.0	Yes	2.623	0.0	n/a	GoodResponse	0	n/a	n/a	4	63	Fixation	AvoidedLoss	True
601.023	0.22	Lose2	0.6406000000000001	0.004	Yes	2.623	-0.004	2.0	GoodResponse	0	0.168	600.191	4	63	Target	AvoidedLoss	True
601.191	0.3	Lose2	0.6406000000000001	0.004	Yes	2.623	-0.004	2.0	GoodResponse	0	0.168	n/a	4	63	ButtonPress	AvoidedLoss	True
601.257	0.48	Lose2	0.6406000000000001	n/a	Yes	2.623	n/a	n/a	GoodResponse	0	n/a	n/a	4	63	Blank	AvoidedLoss	True
601.725	1.45	Lose2	0.6406000000000001	n/a	Yes	2.623	n/a	5.0	GoodResponse	0	0.002	600.727	4	63	Feedback	AvoidedLoss	True
603.179	2.623	Lose2	0.6406000000000001	n/a	Yes	2.623	n/a	n/a	GoodResponse	0	0.0	n/a	4	63	ISIslide	AvoidedLoss	True
605.821	0.25	Win2	0.6462	0.0	Yes	3.129	0.021	n/a	GoodResponse	1	n/a	n/a	5	64	Cue	Win	True
606.071	4.15	Win2	0.6462	0.0	Yes	3.129	0.0	n/a	GoodResponse	1	n/a	n/a	5	64	Fixation	Win	True
610.217	0.23	Win2	0.6462	0.004	Yes	3.129	-0.004	2.0	GoodResponse	1	0.174	609.391	5	64	Target	Win	True
610.391	0.3	Win2	0.6462	0.004	Yes	3.129	-0.004	2.0	GoodResponse	1	0.174	n/a	5	64	ButtonPress	Win	True
610.451	0.47	Win2	0.6462	n/a	Yes	3.129	n/a	n/a	GoodResponse	1	n/a	n/a	5	64	Blank	Win	True
610.919	1.45	Win2	0.6462	n/a	Yes	3.129	n/a	5.0	GoodResponse	1	0.027	609.946	5	64	Feedback	Win	True
612.373	3.129	Win2	0.6462	n/a	Yes	3.129	n/a	n/a	GoodResponse	1	0.0	n/a	5	64	ISIslide	Win	True
615.516	0.25	Control	0.6515000000000001	0.0	Yes	2.784	0.016	n/a	GoodResponse	0	n/a	n/a	5	65	Cue	Neutral	True
615.767	4.0	Control	0.6515000000000001	0.0	Yes	2.784	0.001	n/a	GoodResponse	0	n/a	n/a	5	65	Fixation	Neutral	True
619.762	0.24	Control	0.6515000000000001	0.004	Yes	2.784	-0.004	2.0	GoodResponse	0	0.182	618.944	5	65	Target	Neutral	True
619.944	0.3	Control	0.6515000000000001	0.004	Yes	2.784	-0.004	2.0	GoodResponse	0	0.182	n/a	5	65	ButtonPress	Neutral	True
620.013	0.46	Control	0.6515000000000001	n/a	Yes	2.784	n/a	n/a	GoodResponse	0	n/a	n/a	5	65	Blank	Neutral	True
620.464	1.45	Control	0.6515000000000001	n/a	Yes	2.784	n/a	5.0	GoodResponse	0	0.042	619.506	5	65	Feedback	Neutral	True
621.919	2.784	Control	0.6515000000000001	n/a	Yes	2.784	n/a	n/a	GoodResponse	0	0.0	n/a	5	65	ISIslide	Neutral	True
624.727	0.25	Win2	0.6567000000000001	0.0	Yes	2.773	0.027	n/a	GoodResponse	1	n/a	n/a	6	66	Cue	Win	True
624.978	3.9	Win2	0.6567000000000001	0.0	Yes	2.773	0.001	n/a	GoodResponse	1	n/a	n/a	6	66	Fixation	Win	True
628.873	0.25	Win2	0.6567000000000001	0.004	Yes	2.773	-0.004	2.0	GoodResponse	1	0.221	628.094	6	66	Target	Win	True
629.094	0.3	Win2	0.6567000000000001	0.004	Yes	2.773	-0.004	2.0	GoodResponse	1	0.221	n/a	6	66	ButtonPress	Win	True
629.124	0.45	Win2	0.6567000000000001	n/a	Yes	2.773	n/a	n/a	GoodResponse	1	n/a	n/a	6	66	Blank	Win	True
629.575	1.45	Win2	0.6567000000000001	n/a	Yes	2.773	n/a	5.0	GoodResponse	1	0.007	628.582	6	66	Feedback	Win	True
631.029	2.773	Win2	0.6567000000000001	n/a	Yes	2.773	n/a	n/a	GoodResponse	1	0.0	n/a	6	66	ISIslide	Win	True
633.821	0.25	Control	0.6618	0.0	Yes	2.729	0.021	n/a	GoodResponse	0	n/a	n/a	6	67	Cue	Neutral	True
634.072	3.95	Control	0.6618	0.0	Yes	2.729	0.001	n/a	GoodResponse	0	n/a	n/a	6	67	Fixation	Neutral	True
638.017	0.25	Control	0.6618	0.004	Yes	2.729	-0.004	2.0	GoodResponse	0	0.198	637.215	6	67	Target	Neutral	True
638.215	0.3	Control	0.6618	0.004	Yes	2.729	-0.004	2.0	GoodResponse	0	0.198	n/a	6	67	ButtonPress	Neutral	True
638.268	0.45	Control	0.6618	n/a	Yes	2.729	n/a	n/a	GoodResponse	0	n/a	n/a	6	67	Blank	Neutral	True
638.719	1.45	Control	0.6618	n/a	Yes	2.729	n/a	5.0	GoodResponse	0	0.031	637.75	6	67	Feedback	Neutral	True
640.173	2.729	Control	0.6618	n/a	Yes	2.729	n/a	n/a	GoodResponse	0	0.0	n/a	6	67	ISIslide	Neutral	True
642.915	0.25	Win2	0.6667000000000001	0.0	Yes	3.085	0.015	n/a	GoodResponse	1	n/a	n/a	7	68	Cue	Win	True
643.166	4.0	Win2	0.6667000000000001	0.0	Yes	3.085	0.001	n/a	GoodResponse	1	n/a	n/a	7	68	Fixation	Win	True
647.161	0.25	Win2	0.6667000000000001	0.004	Yes	3.085	-0.004	2.0	GoodResponse	1	0.207	646.368	7	68	Target	Win	True
647.368	0.3	Win2	0.6667000000000001	0.004	Yes	3.085	-0.004	2.0	GoodResponse	1	0.207	n/a	7	68	ButtonPress	Win	True
647.412	0.45	Win2	0.6667000000000001	n/a	Yes	3.085	n/a	n/a	GoodResponse	1	n/a	n/a	7	68	Blank	Win	True
647.863	1.45	Win2	0.6667000000000001	n/a	Yes	3.085	n/a	5.0	GoodResponse	1	0.009	646.872	7	68	Feedback	Win	True
649.317	3.085	Win2	0.6667000000000001	n/a	Yes	3.085	n/a	n/a	GoodResponse	1	0.0	n/a	7	68	ISIslide	Win	True
652.427	0.25	Win2	0.6714	0.0	Yes	3.223	0.027	n/a	GoodResponse	1	n/a	n/a	8	69	Cue	Win	True
652.677	3.95	Win2	0.6714	0.001	Yes	3.223	0.0	n/a	GoodResponse	1	n/a	n/a	8	69	Fixation	Win	True
656.623	0.24	Win2	0.6714	0.004	Yes	3.223	-0.004	2.0	GoodResponse	1	0.224	655.847	8	69	Target	Win	True
656.847	0.3	Win2	0.6714	0.004	Yes	3.223	-0.004	2.0	GoodResponse	1	0.224	n/a	8	69	ButtonPress	Win	True
656.873	0.46	Win2	0.6714	n/a	Yes	3.223	n/a	n/a	GoodResponse	1	n/a	n/a	8	69	Blank	Win	True
657.325	1.45	Win2	0.6714	n/a	Yes	3.223	n/a	5.0	GoodResponse	1	0.011	656.336	8	69	Feedback	Win	True
658.779	3.223	Win2	0.6714	n/a	Yes	3.223	n/a	n/a	GoodResponse	1	0.0	n/a	8	69	ISIslide	Win	True
662.022	0.25	Lose2	0.6761	0.0	Yes	3.028	0.022	n/a	GoodResponse	0	n/a	n/a	8	70	Cue	AvoidedLoss	True
662.273	4.05	Lose2	0.6761	0.0	Yes	3.028	0.001	n/a	GoodResponse	0	n/a	n/a	8	70	Fixation	AvoidedLoss	True
666.318	0.23	Lose2	0.6761	0.004	Yes	3.028	-0.004	2.0	GoodResponse	0	0.224	665.542	8	70	Target	AvoidedLoss	True
666.542	0.3	Lose2	0.6761	0.004	Yes	3.028	-0.004	2.0	GoodResponse	0	0.224	n/a	8	70	ButtonPress	AvoidedLoss	True
666.552	0.47	Lose2	0.6761	n/a	Yes	3.028	n/a	n/a	GoodResponse	0	n/a	n/a	8	70	Blank	AvoidedLoss	True
667.02	1.45	Lose2	0.6761	n/a	Yes	3.028	n/a	5.0	GoodResponse	0	0.022	666.042	8	70	Feedback	AvoidedLoss	True
668.475	3.028	Lose2	0.6761	n/a	Yes	3.028	n/a	n/a	GoodResponse	0	0.0	n/a	8	70	ISIslide	AvoidedLoss	True
671.517	0.25	Win2	0.6806	0.0	Yes	2.733	0.017	n/a	GoodResponse	1	n/a	n/a	9	71	Cue	Win	True
671.768	4.05	Win2	0.6806	0.0	Yes	2.733	0.001	n/a	GoodResponse	1	n/a	n/a	9	71	Fixation	Win	True
675.813	0.22	Win2	0.6806	0.004	Yes	2.733	-0.004	2.0	GoodResponse	1	0.209	675.022	9	71	Target	Win	True
676.022	0.3	Win2	0.6806	0.004	Yes	2.733	-0.004	2.0	GoodResponse	1	0.209	n/a	9	71	ButtonPress	Win	True
676.047	0.48	Win2	0.6806	n/a	Yes	2.733	n/a	n/a	GoodResponse	1	n/a	n/a	9	71	Blank	Win	True
676.515	1.45	Win2	0.6806	n/a	Yes	2.733	n/a	5.0	GoodResponse	1	0.04	675.555	9	71	Feedback	Win	True
677.97	2.733	Win2	0.6806	n/a	Yes	2.733	n/a	n/a	GoodResponse	1	0.0	n/a	9	71	ISIslide	Win	True
680.728	0.25	Win2	0.6712	0.0	No	2.772	0.028	n/a	NoResponse	0	n/a	n/a	9	72	Cue	MissedWin	True
680.979	4.1	Win2	0.6712	0.0	No	2.772	0.001	n/a	NoResponse	0	n/a	n/a	9	72	Fixation	MissedWin	True
685.074	0.21	Win2	0.6712	0.004	No	2.772	-0.004	2.0	NoResponse	0	0.232	684.306	9	72	Target	MissedWin	True
685.292	0.49	Win2	0.6712	n/a	No	2.772	n/a	n/a	NoResponse	0	n/a	n/a	9	72	Blank	MissedWin	True
685.306	0.3	Win2	0.6712	0.004	No	2.772	-0.004	2.0	NoResponse	0	0.232	n/a	9	72	ButtonPress	MissedWin	True
685.777	1.45	Win2	0.6712	n/a	No	2.772	n/a	5.0	NoResponse	0	0.046	684.823	9	72	Feedback	MissedWin	True
687.231	2.772	Win2	0.6712	n/a	No	2.772	n/a	n/a	NoResponse	0	0.0	n/a	9	72	ISIslide	MissedWin	True
690.023	0.25	Win2	0.6622	0.0	No	2.677	0.023	n/a	NoResponse	0	n/a	n/a	9	73	Cue	MissedWin	True
690.273	4.0	Win2	0.6622	0.0	No	2.677	0.0	n/a	NoResponse	0	n/a	n/a	9	73	Fixation	MissedWin	True
694.269	0.2	Win2	0.6622	0.004	No	2.677	-0.004	2.0	NoResponse	0	0.307	693.576	9	73	Target	MissedWin	True
694.469	0.5	Win2	0.6622	n/a	No	2.677	n/a	n/a	NoResponse	0	n/a	n/a	9	73	Blank	MissedWin	True
694.576	0.3	Win2	0.6622	0.004	No	2.677	-0.004	2.0	NoResponse	0	0.307	n/a	9	73	ButtonPress	MissedWin	True
694.971	1.45	Win2	0.6622	n/a	No	2.677	n/a	5.0	NoResponse	0	0.023	693.994	9	73	Feedback	MissedWin	True
696.425	2.677	Win2	0.6622	n/a	No	2.677	n/a	n/a	NoResponse	0	0.0	n/a	9	73	ISIslide	MissedWin	True
699.116	0.25	Lose2	0.6667000000000001	0.001	Yes	2.634	0.016	n/a	GoodResponse	0	n/a	n/a	9	74	Cue	AvoidedLoss	True
699.367	4.05	Lose2	0.6667000000000001	0.0	Yes	2.634	0.001	n/a	GoodResponse	0	n/a	n/a	9	74	Fixation	AvoidedLoss	True
703.413	0.2	Lose2	0.6667000000000001	0.003	Yes	2.634	-0.003	2.0	GoodResponse	0	0.17	702.583	9	74	Target	AvoidedLoss	True
703.583	0.3	Lose2	0.6667000000000001	0.003	Yes	2.634	-0.003	2.0	GoodResponse	0	0.17	n/a	9	74	ButtonPress	AvoidedLoss	True
703.613	0.5	Lose2	0.6667000000000001	n/a	Yes	2.634	n/a	n/a	GoodResponse	0	n/a	n/a	9	74	Blank	AvoidedLoss	True
704.115	1.45	Lose2	0.6667000000000001	n/a	Yes	2.634	n/a	5.0	GoodResponse	0	0.001	703.116	9	74	Feedback	AvoidedLoss	True
705.569	2.634	Lose2	0.6667000000000001	n/a	Yes	2.634	n/a	n/a	GoodResponse	0	0.0	n/a	9	74	ISIslide	AvoidedLoss	True
708.227	0.25	Lose2	0.6711	0.0	Yes	2.923	0.027	n/a	GoodResponse	0	n/a	n/a	9	75	Cue	AvoidedLoss	True
708.478	3.95	Lose2	0.6711	0.0	Yes	2.923	0.001	n/a	GoodResponse	0	n/a	n/a	9	75	Fixation	AvoidedLoss	True
712.423	0.19	Lose2	0.6711	0.004	Yes	2.923	-0.004	2.0	GoodResponse	0	0.188	711.611	9	75	Target	AvoidedLoss	True
712.611	0.3	Lose2	0.6711	0.004	Yes	2.923	-0.004	2.0	GoodResponse	0	0.188	n/a	9	75	ButtonPress	AvoidedLoss	True
712.624	0.51	Lose2	0.6711	n/a	Yes	2.923	n/a	n/a	GoodResponse	0	n/a	n/a	9	75	Blank	AvoidedLoss	True
713.125	1.45	Lose2	0.6711	n/a	Yes	2.923	n/a	5.0	GoodResponse	0	0.015	712.14	9	75	Feedback	AvoidedLoss	True
714.579	2.923	Lose2	0.6711	n/a	Yes	2.923	n/a	n/a	GoodResponse	0	0.0	n/a	9	75	ISIslide	AvoidedLoss	True
717.522	0.25	Control	0.6623	0.0	No	3.228	0.022	n/a	NoResponse	0	n/a	n/a	9	76	Cue	Neutral	True
717.772	4.05	Control	0.6623	0.0	No	3.228	0.0	n/a	NoResponse	0	n/a	n/a	9	76	Fixation	Neutral	True
721.818	0.18	Control	0.6623	0.004	No	3.228	-0.004	2.0	NoResponse	0	0.223	721.041	9	76	Target	Neutral	True
722.002	0.52	Control	0.6623	n/a	No	3.228	n/a	n/a	NoResponse	0	n/a	n/a	9	76	Blank	Neutral	True
722.041	0.3	Control	0.6623	0.004	No	3.228	-0.004	2.0	NoResponse	0	0.223	n/a	9	76	ButtonPress	Neutral	True
722.52	1.45	Control	0.6623	n/a	No	3.228	n/a	5.0	NoResponse	0	0.034	721.554	9	76	Feedback	Neutral	True
723.974	3.228	Control	0.6623	n/a	No	3.228	n/a	n/a	NoResponse	0	0.0	n/a	9	76	ISIslide	Neutral	True
727.217	0.25	Lose2	0.6537999999999999	0.0	No	2.583	0.017	n/a	NoResponse	-1	n/a	n/a	8	77	Cue	Loss	True
727.468	3.95	Lose2	0.6537999999999999	0.0	No	2.583	0.001	n/a	NoResponse	-1	n/a	n/a	8	77	Fixation	Loss	True
731.413	0.18	Lose2	0.6537999999999999	0.004	No	2.583	-0.004	2.0	NoResponse	-1	0.192	730.605	8	77	Target	Loss	True
731.597	0.52	Lose2	0.6537999999999999	n/a	No	2.583	n/a	n/a	NoResponse	-1	n/a	n/a	8	77	Blank	Loss	True
731.605	0.3	Lose2	0.6537999999999999	0.004	No	2.583	-0.004	2.0	NoResponse	-1	0.192	n/a	8	77	ButtonPress	Loss	True
732.115	1.45	Lose2	0.6537999999999999	n/a	No	2.583	n/a	5.0	NoResponse	-1	0.049	731.164	8	77	Feedback	Loss	True
733.57	2.583	Lose2	0.6537999999999999	n/a	No	2.583	n/a	n/a	NoResponse	-1	0.0	n/a	8	77	ISIslide	Loss	True
