onset	duration	cue_type	current_mean_accuracy	duration_error	is_hit	isi_adjusted	onset_delay	response	response_type	reward	rt	rt_time	total_reward	trial_number	trial_phase	trial_type	one_press
11.111	0.25	Control	1.0	0.0	Yes	2.939	0.011	n/a	GoodResponse	0	n/a	n/a	0	0	Cue	Neutral	True
11.362	3.85	Control	1.0	0.0	Yes	2.939	0.001	n/a	GoodResponse	0	n/a	n/a	0	0	Fixation	Neutral	True
15.207	0.4	Control	1.0	0.004	Yes	2.939	-0.004	2.0	GoodResponse	0	0.274	14.481	0	0	Target	Neutral	True
15.481	0.3	Control	1.0	0.004	Yes	2.939	-0.004	2.0	GoodResponse	0	0.274	n/a	0	0	ButtonPress	Neutral	True
15.608	0.3	Control	1.0	n/a	Yes	2.939	n/a	n/a	GoodResponse	0	n/a	n/a	0	0	Blank	Neutral	True
15.909	1.45	Control	1.0	n/a	Yes	2.939	n/a	5.0	GoodResponse	0	0.016	14.925	0	0	Feedback	Neutral	True
17.363	2.939	Control	1.0	n/a	Yes	2.939	n/a	n/a	GoodResponse	0	0.0	n/a	0	0	ISIslide	Neutral	True
20.322	0.25	Lose2	1.0	0.0	Yes	2.778	0.022	n/a	GoodResponse	0	n/a	n/a	0	1	Cue	AvoidedLoss	True
20.573	4.0	Lose2	1.0	0.0	Yes	2.778	0.001	n/a	GoodResponse	0	n/a	n/a	0	1	Fixation	AvoidedLoss	True
24.568	0.39	Lose2	1.0	0.004	Yes	2.778	-0.004	2.0	GoodResponse	0	0.239	23.807	0	1	Target	AvoidedLoss	True
24.807	0.3	Lose2	1.0	0.004	Yes	2.778	-0.004	2.0	GoodResponse	0	0.239	n/a	0	1	ButtonPress	AvoidedLoss	True
24.969	0.31	Lose2	1.0	n/a	Yes	2.778	n/a	n/a	GoodResponse	0	n/a	n/a	0	1	Blank	AvoidedLoss	True
25.27	1.45	Lose2	1.0	n/a	Yes	2.778	n/a	5.0	GoodResponse	0	0.021	24.291	0	1	Feedback	AvoidedLoss	True
26.725	2.778	Lose2	1.0	n/a	Yes	2.778	n/a	n/a	GoodResponse	0	0.0	n/a	0	1	ISIslide	AvoidedLoss	True
29.516	0.25	Control	1.0	0.0	Yes	2.584	0.016	n/a	GoodResponse	0	n/a	n/a	0	2	Cue	Neutral	True
29.767	4.1	Control	1.0	0.0	Yes	2.584	0.001	n/a	GoodResponse	0	n/a	n/a	0	2	Fixation	Neutral	True
33.863	0.38	Control	1.0	0.003	Yes	2.584	-0.003	2.0	GoodResponse	0	0.253	33.116	0	2	Target	Neutral	True
34.116	0.3	Control	1.0	0.003	Yes	2.584	-0.003	2.0	GoodResponse	0	0.253	n/a	0	2	ButtonPress	Neutral	True
34.247	0.32	Control	1.0	n/a	Yes	2.584	n/a	n/a	GoodResponse	0	n/a	n/a	0	2	Blank	Neutral	True
34.565	1.45	Control	1.0	n/a	Yes	2.584	n/a	5.0	GoodResponse	0	0.044	33.609	0	2	Feedback	Neutral	True
36.019	2.584	Control	1.0	n/a	Yes	2.584	n/a	n/a	GoodResponse	0	0.0	n/a	0	2	ISIslide	Neutral	True
38.627	0.25	Win2	1.0	0.0	Yes	2.823	0.027	n/a	GoodResponse	1	n/a	n/a	1	3	Cue	Win	True
38.878	3.95	Win2	1.0	0.0	Yes	2.823	0.001	n/a	GoodResponse	1	n/a	n/a	1	3	Fixation	Win	True
42.823	0.37	Win2	1.0	0.004	Yes	2.823	-0.004	2.0	GoodResponse	1	0.241	42.064	1	3	Target	Win	True
43.064	0.3	Win2	1.0	0.004	Yes	2.823	-0.004	2.0	GoodResponse	1	0.241	n/a	1	3	ButtonPress	Win	True
43.207	0.33	Win2	1.0	n/a	Yes	2.823	n/a	n/a	GoodResponse	1	n/a	n/a	1	3	Blank	Win	True
43.525	1.45	Win2	1.0	n/a	Yes	2.823	n/a	5.0	GoodResponse	1	0.011	42.536	1	3	Feedback	Win	True
44.979	2.823	Win2	1.0	n/a	Yes	2.823	n/a	n/a	GoodResponse	1	0.0	n/a	1	3	ISIslide	Win	True
47.821	0.25	Win2	1.0	0.0	Yes	3.279	0.021	n/a	GoodResponse	1	n/a	n/a	2	4	Cue	Win	True
48.072	4.0	Win2	1.0	0.0	Yes	3.279	0.001	n/a	GoodResponse	1	n/a	n/a	2	4	Fixation	Win	True
52.067	0.36	Win2	1.0	0.004	Yes	3.279	-0.004	2.0	GoodResponse	1	0.26	51.327	2	4	Target	Win	True
52.327	0.3	Win2	1.0	0.004	Yes	3.279	-0.004	2.0	GoodResponse	1	0.26	n/a	2	4	ButtonPress	Win	True
52.435	0.34	Win2	1.0	n/a	Yes	3.279	n/a	n/a	GoodResponse	1	n/a	n/a	2	4	Blank	Win	True
52.769	1.45	Win2	1.0	n/a	Yes	3.279	n/a	5.0	GoodResponse	1	0.035	51.804	2	4	Feedback	Win	True
54.224	3.279	Win2	1.0	n/a	Yes	3.279	n/a	n/a	GoodResponse	1	0.0	n/a	2	4	ISIslide	Win	True
57.517	0.25	Win2	1.0	0.0	Yes	2.783	0.017	n/a	GoodResponse	1	n/a	n/a	3	5	Cue	Win	True
57.768	4.0	Win2	1.0	0.0	Yes	2.783	0.001	n/a	GoodResponse	1	n/a	n/a	3	5	Fixation	Win	True
61.763	0.35	Win2	1.0	0.004	Yes	2.783	-0.004	2.0	GoodResponse	1	0.349	61.112	3	5	Target	Win	True
62.112	0.3	Win2	1.0	0.004	Yes	2.783	-0.004	2.0	GoodResponse	1	0.349	n/a	3	5	ButtonPress	Win	True
62.114	0.35	Win2	1.0	n/a	Yes	2.783	n/a	n/a	GoodResponse	1	n/a	n/a	3	5	Blank	Win	True
62.465	1.45	Win2	1.0	n/a	Yes	2.783	n/a	5.0	GoodResponse	1	0.046	61.511	3	5	Feedback	Win	True
63.919	2.783	Win2	1.0	n/a	Yes	2.783	n/a	n/a	GoodResponse	1	0.0	n/a	3	5	ISIslide	Win	True
66.728	0.25	Lose2	0.8571	0.0	No	2.722	0.028	n/a	NoResponse	-1	n/a	n/a	2	6	Cue	Loss	True
66.978	3.95	Lose2	0.8571	0.001	No	2.722	0.0	n/a	NoResponse	-1	n/a	n/a	2	6	Fixation	Loss	True
70.924	0.34	Lose2	0.8571	0.004	No	2.722	-0.004	2.0	NoResponse	-1	0.358	70.282	2	6	Target	Loss	True
71.275	0.36	Lose2	0.8571	n/a	No	2.722	n/a	n/a	NoResponse	-1	n/a	n/a	2	6	Blank	Loss	True
71.282	0.3	Lose2	0.8571	0.004	No	2.722	-0.004	2.0	NoResponse	-1	0.358	n/a	2	6	ButtonPress	Loss	True
71.626	1.45	Lose2	0.8571	n/a	No	2.722	n/a	5.0	NoResponse	-1	0.007	70.633	2	6	Feedback	Loss	True
73.08	2.722	Lose2	0.8571	n/a	No	2.722	n/a	n/a	NoResponse	-1	0.0	n/a	2	6	ISIslide	Loss	True
75.822	0.25	Lose2	0.875	0.0	Yes	4.028	0.022	n/a	GoodResponse	0	n/a	n/a	2	7	Cue	AvoidedLoss	True
76.072	4.05	Lose2	0.875	0.001	Yes	4.028	0.0	n/a	GoodResponse	0	n/a	n/a	2	7	Fixation	AvoidedLoss	True
80.118	0.33	Lose2	0.875	0.004	Yes	4.028	-0.004	2.0	GoodResponse	0	0.224	79.342	2	7	Target	AvoidedLoss	True
80.342	0.3	Lose2	0.875	0.004	Yes	4.028	-0.004	2.0	GoodResponse	0	0.224	n/a	2	7	ButtonPress	AvoidedLoss	True
80.452	0.37	Lose2	0.875	n/a	Yes	4.028	n/a	n/a	GoodResponse	0	n/a	n/a	2	7	Blank	AvoidedLoss	True
80.82	1.45	Lose2	0.875	n/a	Yes	4.028	n/a	5.0	GoodResponse	0	0.032	79.852	2	7	Feedback	AvoidedLoss	True
82.274	4.028	Lose2	0.875	n/a	Yes	4.028	n/a	n/a	GoodResponse	0	0.0	n/a	2	7	ISIslide	AvoidedLoss	True
86.32	0.25	Lose2	0.8889	0.0	Yes	3.03	0.02	n/a	GoodResponse	0	n/a	n/a	2	8	Cue	AvoidedLoss	True
86.571	3.95	Lose2	0.8889	0.0	Yes	3.03	0.001	n/a	GoodResponse	0	n/a	n/a	2	8	Fixation	AvoidedLoss	True
90.516	0.32	Lose2	0.8889	0.004	Yes	3.03	-0.004	2.0	GoodResponse	0	0.237	89.753	2	8	Target	AvoidedLoss	True
90.753	0.3	Lose2	0.8889	0.004	Yes	3.03	-0.004	2.0	GoodResponse	0	0.237	n/a	2	8	ButtonPress	AvoidedLoss	True
90.85	0.38	Lose2	0.8889	n/a	Yes	3.03	n/a	n/a	GoodResponse	0	n/a	n/a	2	8	Blank	AvoidedLoss	True
91.218	1.45	Lose2	0.8889	n/a	Yes	3.03	n/a	5.0	GoodResponse	0	0.024	90.242	2	8	Feedback	AvoidedLoss	True
92.672	3.03	Lose2	0.8889	n/a	Yes	3.03	n/a	n/a	GoodResponse	0	0.0	n/a	2	8	ISIslide	AvoidedLoss	True
95.715	0.25	Lose2	0.9	0.0	Yes	3.135	0.015	n/a	GoodResponse	0	n/a	n/a	2	9	Cue	AvoidedLoss	True
95.965	3.95	Lose2	0.9	0.0	Yes	3.135	0.0	n/a	GoodResponse	0	n/a	n/a	2	9	Fixation	AvoidedLoss	True
99.927	0.31	Lose2	0.9	0.0	Yes	3.135	0.012	2.0	GoodResponse	0	0.225	99.152	2	9	Target	AvoidedLoss	True
100.152	0.3	Lose2	0.9	0.0	Yes	3.135	0.012	2.0	GoodResponse	0	0.225	n/a	2	9	ButtonPress	AvoidedLoss	True
100.228	0.39	Lose2	0.9	n/a	Yes	3.135	n/a	n/a	GoodResponse	0	n/a	n/a	2	9	Blank	AvoidedLoss	True
100.613	1.45	Lose2	0.9	n/a	Yes	3.135	n/a	5.0	GoodResponse	0	0.044	99.657	2	9	Feedback	AvoidedLoss	True
102.067	3.135	Lose2	0.9	n/a	Yes	3.135	n/a	n/a	GoodResponse	0	0.0	n/a	2	9	ISIslide	AvoidedLoss	True
105.226	0.25	Control	0.9091	0.001	Yes	3.274	0.026	n/a	GoodResponse	0	n/a	n/a	2	10	Cue	Neutral	True
105.477	4.0	Control	0.9091	0.0	Yes	3.274	0.001	n/a	GoodResponse	0	n/a	n/a	2	10	Fixation	Neutral	True
109.472	0.3	Control	0.9091	0.004	Yes	3.274	-0.004	2.0	GoodResponse	0	0.267	108.739	2	10	Target	Neutral	True
109.739	0.3	Control	0.9091	0.004	Yes	3.274	-0.004	2.0	GoodResponse	0	0.267	n/a	2	10	ButtonPress	Neutral	True
109.773	0.4	Control	0.9091	n/a	Yes	3.274	n/a	n/a	GoodResponse	0	n/a	n/a	2	10	Blank	Neutral	True
110.175	1.45	Control	0.9091	n/a	Yes	3.274	n/a	5.0	GoodResponse	0	0.043	109.218	2	10	Feedback	Neutral	True
111.629	3.274	Control	0.9091	n/a	Yes	3.274	n/a	n/a	GoodResponse	0	0.0	n/a	2	10	ISIslide	Neutral	True
114.922	0.25	Lose2	0.9167000000000001	0.0	Yes	2.728	0.022	n/a	GoodResponse	0	n/a	n/a	2	11	Cue	AvoidedLoss	True
115.173	4.05	Lose2	0.9167000000000001	0.0	Yes	2.728	0.001	n/a	GoodResponse	0	n/a	n/a	2	11	Fixation	AvoidedLoss	True
119.218	0.29	Lose2	0.9167000000000001	0.004	Yes	2.728	-0.004	2.0	GoodResponse	0	0.226	118.444	2	11	Target	AvoidedLoss	True
119.444	0.3	Lose2	0.9167000000000001	0.004	Yes	2.728	-0.004	2.0	GoodResponse	0	0.226	n/a	2	11	ButtonPress	AvoidedLoss	True
119.519	0.41	Lose2	0.9167000000000001	n/a	Yes	2.728	n/a	n/a	GoodResponse	0	n/a	n/a	2	11	Blank	AvoidedLoss	True
119.92	1.45	Lose2	0.9167000000000001	n/a	Yes	2.728	n/a	5.0	GoodResponse	0	0.008	118.928	2	11	Feedback	AvoidedLoss	True
121.375	2.728	Lose2	0.9167000000000001	n/a	Yes	2.728	n/a	n/a	GoodResponse	0	0.0	n/a	2	11	ISIslide	AvoidedLoss	True
124.116	0.25	Control	0.9231	0.0	Yes	2.984	0.016	n/a	GoodResponse	0	n/a	n/a	2	12	Cue	Neutral	True
124.367	3.9	Control	0.9231	0.0	Yes	2.984	0.001	n/a	GoodResponse	0	n/a	n/a	2	12	Fixation	Neutral	True
128.262	0.28	Control	0.9231	0.004	Yes	2.984	-0.004	2.0	GoodResponse	0	0.203	127.465	2	12	Target	Neutral	True
128.465	0.3	Control	0.9231	0.004	Yes	2.984	-0.004	2.0	GoodResponse	0	0.203	n/a	2	12	ButtonPress	Neutral	True
128.546	0.42	Control	0.9231	n/a	Yes	2.984	n/a	n/a	GoodResponse	0	n/a	n/a	2	12	Blank	Neutral	True
128.964	1.45	Control	0.9231	n/a	Yes	2.984	n/a	5.0	GoodResponse	0	0.035	127.999	2	12	Feedback	Neutral	True
130.419	2.984	Control	0.9231	n/a	Yes	2.984	n/a	n/a	GoodResponse	0	0.0	n/a	2	12	ISIslide	Neutral	True
133.428	0.25	Control	0.9286	0.0	Yes	2.772	0.028	n/a	GoodResponse	0	n/a	n/a	2	13	Cue	Neutral	True
133.678	4.0	Control	0.9286	0.0	Yes	2.772	0.0	n/a	GoodResponse	0	n/a	n/a	2	13	Fixation	Neutral	True
137.674	0.27	Control	0.9286	0.004	Yes	2.772	-0.004	2.0	GoodResponse	0	0.229	136.903	2	13	Target	Neutral	True
137.903	0.3	Control	0.9286	0.004	Yes	2.772	-0.004	2.0	GoodResponse	0	0.229	n/a	2	13	ButtonPress	Neutral	True
137.958	0.43	Control	0.9286	n/a	Yes	2.772	n/a	n/a	GoodResponse	0	n/a	n/a	2	13	Blank	Neutral	True
138.376	1.45	Control	0.9286	n/a	Yes	2.772	n/a	5.0	GoodResponse	0	0.037	137.413	2	13	Feedback	Neutral	True
139.83	2.772	Control	0.9286	n/a	Yes	2.772	n/a	n/a	GoodResponse	0	0.0	n/a	2	13	ISIslide	Neutral	True
142.622	0.25	Win2	0.8667	0.0	No	2.678	0.022	n/a	NoResponse	0	n/a	n/a	2	14	Cue	MissedWin	True
142.873	4.1	Win2	0.8667	0.0	No	2.678	0.001	n/a	NoResponse	0	n/a	n/a	2	14	Fixation	MissedWin	True
146.968	0.26	Win2	0.8667	0.004	No	2.678	-0.004	2.0	NoResponse	0	0.286	146.254	2	14	Target	MissedWin	True
147.236	0.44	Win2	0.8667	n/a	No	2.678	n/a	n/a	NoResponse	0	n/a	n/a	2	14	Blank	MissedWin	True
147.254	0.3	Win2	0.8667	0.004	No	2.678	-0.004	2.0	NoResponse	0	0.286	n/a	2	14	ButtonPress	MissedWin	True
147.67	1.45	Win2	0.8667	n/a	No	2.678	n/a	5.0	NoResponse	0	0.011	146.681	2	14	Feedback	MissedWin	True
149.125	2.678	Win2	0.8667	n/a	No	2.678	n/a	n/a	NoResponse	0	0.0	n/a	2	14	ISIslide	MissedWin	True
151.816	0.25	Control	0.875	0.0	Yes	2.984	0.016	n/a	GoodResponse	0	n/a	n/a	2	15	Cue	Neutral	True
152.067	4.0	Control	0.875	0.0	Yes	2.984	0.001	n/a	GoodResponse	0	n/a	n/a	2	15	Fixation	Neutral	True
156.062	0.25	Control	0.875	0.004	Yes	2.984	-0.004	2.0	GoodResponse	0	0.218	155.28	2	15	Target	Neutral	True
156.28	0.3	Control	0.875	0.004	Yes	2.984	-0.004	2.0	GoodResponse	0	0.218	n/a	2	15	ButtonPress	Neutral	True
156.313	0.45	Control	0.875	n/a	Yes	2.984	n/a	n/a	GoodResponse	0	n/a	n/a	2	15	Blank	Neutral	True
156.764	1.45	Control	0.875	n/a	Yes	2.984	n/a	5.0	GoodResponse	0	0.039	155.803	2	15	Feedback	Neutral	True
158.219	2.984	Control	0.875	n/a	Yes	2.984	n/a	n/a	GoodResponse	0	0.0	n/a	2	15	ISIslide	Neutral	True
161.228	0.25	Win2	0.8824	0.0	Yes	2.872	0.028	n/a	GoodResponse	1	n/a	n/a	3	16	Cue	Win	True
161.478	4.0	Win2	0.8824	0.0	Yes	2.872	0.0	n/a	GoodResponse	1	n/a	n/a	3	16	Fixation	Win	True
165.474	0.24	Win2	0.8824	0.004	Yes	2.872	-0.004	2.0	GoodResponse	1	0.229	164.703	3	16	Target	Win	True
165.703	0.3	Win2	0.8824	0.004	Yes	2.872	-0.004	2.0	GoodResponse	1	0.229	n/a	3	16	ButtonPress	Win	True
165.724	0.46	Win2	0.8824	n/a	Yes	2.872	n/a	n/a	GoodResponse	1	n/a	n/a	3	16	Blank	Win	True
166.176	1.45	Win2	0.8824	n/a	Yes	2.872	n/a	5.0	GoodResponse	1	0.042	165.218	3	16	Feedback	Win	True
167.63	2.872	Win2	0.8824	n/a	Yes	2.872	n/a	n/a	GoodResponse	1	0.0	n/a	3	16	ISIslide	Win	True
170.522	0.25	Lose2	0.8332999999999999	0.0	No	2.728	0.022	n/a	NoResponse	-1	n/a	n/a	2	17	Cue	Loss	True
170.773	3.95	Lose2	0.8332999999999999	0.0	No	2.728	0.001	2.0	NoResponse	-1	2.084	171.857	2	17	Fixation	Loss	True
172.857	0.3	Lose2	0.8332999999999999	0.0	No	2.728	0.001	2.0	NoResponse	-1	2.084	n/a	2	17	ButtonPress	Loss	True
174.718	0.23	Lose2	0.8332999999999999	0.004	No	2.728	-0.004	n/a	NoResponse	-1	n/a	n/a	2	17	Target	Loss	True
174.952	0.47	Lose2	0.8332999999999999	n/a	No	2.728	n/a	n/a	NoResponse	-1	n/a	n/a	2	17	Blank	Loss	True
175.42	1.45	Lose2	0.8332999999999999	n/a	No	2.728	n/a	5.0	NoResponse	-1	0.017	174.437	2	17	Feedback	Loss	True
176.874	2.728	Lose2	0.8332999999999999	n/a	No	2.728	n/a	n/a	NoResponse	-1	0.0	n/a	2	17	ISIslide	Loss	True
179.616	0.25	Lose2	0.7895	0.0	No	2.734	0.016	n/a	NoResponse	-1	n/a	n/a	1	18	Cue	Loss	True
179.867	4.05	Lose2	0.7895	0.0	No	2.734	0.001	2.0	NoResponse	-1	2.991	181.858	1	18	Fixation	Loss	True
182.858	0.3	Lose2	0.7895	0.0	No	2.734	0.001	2.0	NoResponse	-1	2.991	n/a	1	18	ButtonPress	Loss	True
183.912	0.22	Lose2	0.7895	0.004	No	2.734	-0.004	n/a	NoResponse	-1	n/a	n/a	1	18	Target	Loss	True
184.146	0.48	Lose2	0.7895	n/a	No	2.734	n/a	n/a	NoResponse	-1	n/a	n/a	1	18	Blank	Loss	True
184.614	1.45	Lose2	0.7895	n/a	No	2.734	n/a	5.0	NoResponse	-1	0.043	183.657	1	18	Feedback	Loss	True
186.069	2.734	Lose2	0.7895	n/a	No	2.734	n/a	n/a	NoResponse	-1	0.0	n/a	1	18	ISIslide	Loss	True
188.827	0.25	Control	0.75	0.0	No	2.923	0.027	n/a	NoResponse	0	n/a	n/a	1	19	Cue	Neutral	True
189.078	3.95	Control	0.75	0.0	No	2.923	0.001	n/a	NoResponse	0	n/a	n/a	1	19	Fixation	Neutral	True
193.023	0.21	Control	0.75	0.004	No	2.923	-0.004	2.0	NoResponse	0	0.274	192.297	1	19	Target	Neutral	True
193.24	0.49	Control	0.75	n/a	No	2.923	n/a	n/a	NoResponse	0	n/a	n/a	1	19	Blank	Neutral	True
193.297	0.3	Control	0.75	0.004	No	2.923	-0.004	2.0	NoResponse	0	0.274	n/a	1	19	ButtonPress	Neutral	True
193.725	1.45	Control	0.75	n/a	No	2.923	n/a	5.0	NoResponse	0	0.007	192.732	1	19	Feedback	Neutral	True
195.179	2.923	Control	0.75	n/a	No	2.923	n/a	n/a	NoResponse	0	0.0	n/a	1	19	ISIslide	Neutral	True
198.121	0.25	Control	0.7143	0.001	No	2.629	0.021	n/a	NoResponse	0	n/a	n/a	1	20	Cue	Neutral	True
198.372	4.05	Control	0.7143	0.0	No	2.629	0.001	n/a	NoResponse	0	n/a	n/a	1	20	Fixation	Neutral	True
202.418	0.2	Control	0.7143	0.003	No	2.629	-0.003	2.0	NoResponse	0	0.228	201.646	1	20	Target	Neutral	True
202.618	0.5	Control	0.7143	n/a	No	2.629	n/a	n/a	NoResponse	0	n/a	n/a	1	20	Blank	Neutral	True
202.646	0.3	Control	0.7143	0.003	No	2.629	-0.003	2.0	NoResponse	0	0.228	n/a	1	20	ButtonPress	Neutral	True
203.12	1.45	Control	0.7143	n/a	No	2.629	n/a	5.0	NoResponse	0	0.024	202.144	1	20	Feedback	Neutral	True
204.574	2.629	Control	0.7143	n/a	No	2.629	n/a	n/a	NoResponse	0	0.0	n/a	1	20	ISIslide	Neutral	True
207.215	0.25	Control	0.6818000000000001	0.0	No	2.785	0.015	n/a	NoResponse	0	n/a	n/a	1	21	Cue	Neutral	True
207.466	4.1	Control	0.6818000000000001	0.0	No	2.785	0.001	n/a	NoResponse	0	n/a	n/a	1	21	Fixation	Neutral	True
211.562	0.19	Control	0.6818000000000001	0.003	No	2.785	-0.003	2.0	NoResponse	0	0.243	210.805	1	21	Target	Neutral	True
211.762	0.51	Control	0.6818000000000001	n/a	No	2.785	n/a	n/a	NoResponse	0	n/a	n/a	1	21	Blank	Neutral	True
211.805	0.3	Control	0.6818000000000001	0.003	No	2.785	-0.003	2.0	NoResponse	0	0.243	n/a	1	21	ButtonPress	Neutral	True
212.264	1.45	Control	0.6818000000000001	n/a	No	2.785	n/a	5.0	NoResponse	0	0.007	211.271	1	21	Feedback	Neutral	True
213.718	2.785	Control	0.6818000000000001	n/a	No	2.785	n/a	n/a	NoResponse	0	0.0	n/a	1	21	ISIslide	Neutral	True
216.527	0.25	Control	0.6522	0.0	No	2.773	0.027	n/a	NoResponse	0	n/a	n/a	1	22	Cue	Neutral	True
216.777	4.0	Control	0.6522	0.0	No	2.773	0.0	n/a	NoResponse	0	n/a	n/a	1	22	Fixation	Neutral	True
220.773	0.18	Control	0.6522	0.004	No	2.773	-0.004	2.0	NoResponse	0	0.3	220.073	1	22	Target	Neutral	True
220.957	0.52	Control	0.6522	n/a	No	2.773	n/a	n/a	NoResponse	0	n/a	n/a	1	22	Blank	Neutral	True
221.073	0.3	Control	0.6522	0.004	No	2.773	-0.004	2.0	NoResponse	0	0.3	n/a	1	22	ButtonPress	Neutral	True
221.475	1.45	Control	0.6522	n/a	No	2.773	n/a	5.0	NoResponse	0	0.011	220.486	1	22	Feedback	Neutral	True
222.929	2.773	Control	0.6522	n/a	No	2.773	n/a	n/a	NoResponse	0	0.0	n/a	1	22	ISIslide	Neutral	True
225.721	0.25	Control	0.625	0.0	No	2.779	0.021	n/a	NoResponse	0	n/a	n/a	1	23	Cue	Neutral	True
225.972	3.9	Control	0.625	0.0	No	2.779	0.001	n/a	NoResponse	0	n/a	n/a	1	23	Fixation	Neutral	True
229.867	0.19	Control	0.625	0.004	No	2.779	-0.004	2.0	NoResponse	0	0.238	229.105	1	23	Target	Neutral	True
230.067	0.51	Control	0.625	n/a	No	2.779	n/a	n/a	NoResponse	0	n/a	n/a	1	23	Blank	Neutral	True
230.105	0.3	Control	0.625	0.004	No	2.779	-0.004	2.0	NoResponse	0	0.238	n/a	1	23	ButtonPress	Neutral	True
230.569	1.45	Control	0.625	n/a	No	2.779	n/a	5.0	NoResponse	0	0.039	229.608	1	23	Feedback	Neutral	True
232.023	2.779	Control	0.625	n/a	No	2.779	n/a	n/a	NoResponse	0	0.0	n/a	1	23	ISIslide	Neutral	True
234.831	0.25	Win2	0.6	0.001	No	3.119	0.031	n/a	NoResponse	0	n/a	n/a	1	24	Cue	MissedWin	True
235.082	3.95	Win2	0.6	0.0	No	3.119	0.001	n/a	NoResponse	0	n/a	n/a	1	24	Fixation	MissedWin	True
239.027	0.2	Win2	0.6	0.004	No	3.119	-0.004	2.0	NoResponse	0	0.213	238.24	1	24	Target	MissedWin	True
239.228	0.5	Win2	0.6	n/a	No	3.119	n/a	n/a	NoResponse	0	n/a	n/a	1	24	Blank	MissedWin	True
239.24	0.3	Win2	0.6	0.004	No	3.119	-0.004	2.0	NoResponse	0	0.213	n/a	1	24	ButtonPress	MissedWin	True
239.729	1.45	Win2	0.6	n/a	No	3.119	n/a	5.0	NoResponse	0	0.001	238.73	1	24	Feedback	MissedWin	True
241.184	3.119	Win2	0.6	n/a	No	3.119	n/a	n/a	NoResponse	0	0.0	n/a	1	24	ISIslide	MissedWin	True
244.327	0.25	Win2	0.5769	0.0	No	3.073	0.027	n/a	NoResponse	0	n/a	n/a	1	25	Cue	MissedWin	True
244.577	4.0	Win2	0.5769	0.0	No	3.073	0.0	n/a	NoResponse	0	n/a	n/a	1	25	Fixation	MissedWin	True
248.573	0.21	Win2	0.5769	0.004	No	3.073	-0.004	2.0	NoResponse	0	0.218	247.791	1	25	Target	MissedWin	True
248.79	0.49	Win2	0.5769	n/a	No	3.073	n/a	n/a	NoResponse	0	n/a	n/a	1	25	Blank	MissedWin	True
248.791	0.3	Win2	0.5769	0.004	No	3.073	-0.004	2.0	NoResponse	0	0.218	n/a	1	25	ButtonPress	MissedWin	True
249.275	1.45	Win2	0.5769	n/a	No	3.073	n/a	5.0	NoResponse	0	0.016	248.291	1	25	Feedback	MissedWin	True
250.729	3.073	Win2	0.5769	n/a	No	3.073	n/a	n/a	NoResponse	0	0.0	n/a	1	25	ISIslide	MissedWin	True
253.822	0.25	Win2	0.5926	0.0	Yes	2.928	0.022	n/a	GoodResponse	1	n/a	n/a	2	26	Cue	Win	True
254.072	3.95	Win2	0.5926	0.001	Yes	2.928	0.0	n/a	GoodResponse	1	n/a	n/a	2	26	Fixation	Win	True
258.018	0.22	Win2	0.5926	0.004	Yes	2.928	-0.004	2.0	GoodResponse	1	0.215	257.233	2	26	Target	Win	True
258.233	0.3	Win2	0.5926	0.004	Yes	2.928	-0.004	2.0	GoodResponse	1	0.215	n/a	2	26	ButtonPress	Win	True
258.252	0.48	Win2	0.5926	n/a	Yes	2.928	n/a	n/a	GoodResponse	1	n/a	n/a	2	26	Blank	Win	True
258.72	1.45	Win2	0.5926	n/a	Yes	2.928	n/a	5.0	GoodResponse	1	0.033	257.753	2	26	Feedback	Win	True
260.174	2.928	Win2	0.5926	n/a	Yes	2.928	n/a	n/a	GoodResponse	1	0.0	n/a	2	26	ISIslide	Win	True
263.116	0.25	Lose2	0.6071	0.0	Yes	2.834	0.016	n/a	GoodResponse	0	n/a	n/a	2	27	Cue	AvoidedLoss	True
263.367	4.05	Lose2	0.6071	0.0	Yes	2.834	0.001	n/a	GoodResponse	0	n/a	n/a	2	27	Fixation	AvoidedLoss	True
267.412	0.23	Lose2	0.6071	0.004	Yes	2.834	-0.004	2.0	GoodResponse	0	0.21	266.622	2	27	Target	AvoidedLoss	True
267.622	0.3	Lose2	0.6071	0.004	Yes	2.834	-0.004	2.0	GoodResponse	0	0.21	n/a	2	27	ButtonPress	AvoidedLoss	True
267.646	0.47	Lose2	0.6071	n/a	Yes	2.834	n/a	n/a	GoodResponse	0	n/a	n/a	2	27	Blank	AvoidedLoss	True
268.114	1.45	Lose2	0.6071	n/a	Yes	2.834	n/a	5.0	GoodResponse	0	0.007	267.121	2	27	Feedback	AvoidedLoss	True
269.569	2.834	Lose2	0.6071	n/a	Yes	2.834	n/a	n/a	GoodResponse	0	0.0	n/a	2	27	ISIslide	AvoidedLoss	True
272.427	0.25	Control	0.5861999999999999	0.001	No	2.823	0.027	n/a	NoResponse	0	n/a	n/a	2	28	Cue	Neutral	True
272.678	4.05	Control	0.5861999999999999	0.0	No	2.823	0.001	n/a	NoResponse	0	n/a	n/a	2	28	Fixation	Neutral	True
276.724	0.24	Control	0.5861999999999999	0.003	No	2.823	-0.003	2.0	NoResponse	0	0.295	276.019	2	28	Target	Neutral	True
276.974	0.46	Control	0.5861999999999999	n/a	No	2.823	n/a	n/a	NoResponse	0	n/a	n/a	2	28	Blank	Neutral	True
277.019	0.3	Control	0.5861999999999999	0.003	No	2.823	-0.003	2.0	NoResponse	0	0.295	n/a	2	28	ButtonPress	Neutral	True
277.426	1.45	Control	0.5861999999999999	n/a	No	2.823	n/a	5.0	NoResponse	0	0.011	276.437	2	28	Feedback	Neutral	True
278.88	2.823	Control	0.5861999999999999	n/a	No	2.823	n/a	n/a	NoResponse	0	0.0	n/a	2	28	ISIslide	Neutral	True
281.722	0.25	Lose2	0.5667	0.0	No	2.828	0.022	n/a	NoResponse	-1	n/a	n/a	1	29	Cue	Loss	True
281.973	3.95	Lose2	0.5667	0.0	No	2.828	0.001	n/a	NoResponse	-1	n/a	n/a	1	29	Fixation	Loss	True
285.918	0.25	Lose2	0.5667	0.004	No	2.828	-0.004	2.0	NoResponse	-1	0.263	285.181	1	29	Target	Loss	True
286.169	0.45	Lose2	0.5667	n/a	No	2.828	n/a	n/a	NoResponse	-1	n/a	n/a	1	29	Blank	Loss	True
286.181	0.3	Lose2	0.5667	0.004	No	2.828	-0.004	2.0	NoResponse	-1	0.263	n/a	1	29	ButtonPress	Loss	True
286.62	1.45	Lose2	0.5667	n/a	No	2.828	n/a	5.0	NoResponse	-1	0.036	285.656	1	29	Feedback	Loss	True
288.074	2.828	Lose2	0.5667	n/a	No	2.828	n/a	n/a	NoResponse	-1	0.0	n/a	1	29	ISIslide	Loss	True
290.916	0.25	Win2	0.5806	0.0	Yes	2.784	0.016	n/a	GoodResponse	1	n/a	n/a	2	30	Cue	Win	True
291.167	3.9	Win2	0.5806	0.0	Yes	2.784	0.001	n/a	GoodResponse	1	n/a	n/a	2	30	Fixation	Win	True
295.062	0.26	Win2	0.5806	0.004	Yes	2.784	-0.004	2.0	GoodResponse	1	0.209	294.271	2	30	Target	Win	True
295.271	0.3	Win2	0.5806	0.004	Yes	2.784	-0.004	2.0	GoodResponse	1	0.209	n/a	2	30	ButtonPress	Win	True
295.329	0.44	Win2	0.5806	n/a	Yes	2.784	n/a	n/a	GoodResponse	1	n/a	n/a	2	30	Blank	Win	True
295.764	1.45	Win2	0.5806	n/a	Yes	2.784	n/a	5.0	GoodResponse	1	0.014	294.778	2	30	Feedback	Win	True
297.218	2.784	Win2	0.5806	n/a	Yes	2.784	n/a	n/a	GoodResponse	1	0.0	n/a	2	30	ISIslide	Win	True
300.027	0.25	Lose2	0.5625	0.0	No	2.823	0.027	n/a	LatePress	-1	n/a	n/a	1	31	Cue	Loss	True
300.278	4.05	Lose2	0.5625	0.0	No	2.823	0.001	n/a	LatePress	-1	n/a	n/a	1	31	Fixation	Loss	True
304.323	0.27	Lose2	0.5625	0.004	No	2.823	-0.004	2.0	LatePress	-1	0.273	303.596	1	31	Target	Loss	True
304.596	0.3	Lose2	0.5625	0.004	No	2.823	-0.004	2.0	LatePress	-1	0.273	n/a	1	31	ButtonPress	Loss	True
304.607	0.43	Lose2	0.5625	n/a	No	2.823	n/a	n/a	LatePress	-1	n/a	n/a	1	31	Blank	Loss	True
305.025	1.45	Lose2	0.5625	n/a	No	2.823	n/a	5.0	LatePress	-1	0.022	304.047	1	31	Feedback	Loss	True
306.479	2.823	Lose2	0.5625	n/a	No	2.823	n/a	n/a	LatePress	-1	0.0	n/a	1	31	ISIslide	Loss	True
309.321	0.25	Lose2	0.5758	0.0	Yes	2.629	0.021	n/a	GoodResponse	0	n/a	n/a	1	32	Cue	AvoidedLoss	True
309.572	4.15	Lose2	0.5758	0.0	Yes	2.629	0.001	n/a	GoodResponse	0	n/a	n/a	1	32	Fixation	AvoidedLoss	True
313.718	0.28	Lose2	0.5758	0.003	Yes	2.629	-0.003	2.0	GoodResponse	0	0.201	312.919	1	32	Target	AvoidedLoss	True
313.919	0.3	Lose2	0.5758	0.003	Yes	2.629	-0.003	2.0	GoodResponse	0	0.201	n/a	1	32	ButtonPress	AvoidedLoss	True
314.002	0.42	Lose2	0.5758	n/a	Yes	2.629	n/a	n/a	GoodResponse	0	n/a	n/a	1	32	Blank	AvoidedLoss	True
314.42	1.45	Lose2	0.5758	n/a	Yes	2.629	n/a	5.0	GoodResponse	0	0.04	313.46	1	32	Feedback	AvoidedLoss	True
315.874	2.629	Lose2	0.5758	n/a	Yes	2.629	n/a	n/a	GoodResponse	0	0.0	n/a	1	32	ISIslide	AvoidedLoss	True
318.516	0.25	Win2	0.5588000000000001	0.0	No	2.684	0.016	n/a	NoResponse	0	n/a	n/a	1	33	Cue	MissedWin	True
318.766	4.0	Win2	0.5588000000000001	0.0	No	2.684	0.0	2.0	NoResponse	0	2.73	320.496	1	33	Fixation	MissedWin	True
321.496	0.3	Win2	0.5588000000000001	0.0	No	2.684	0.0	2.0	NoResponse	0	2.73	n/a	1	33	ButtonPress	MissedWin	True
322.762	0.29	Win2	0.5588000000000001	0.004	No	2.684	-0.004	n/a	NoResponse	0	n/a	n/a	1	33	Target	MissedWin	True
323.062	0.41	Win2	0.5588000000000001	n/a	No	2.684	n/a	n/a	NoResponse	0	n/a	n/a	1	33	Blank	MissedWin	True
323.464	1.45	Win2	0.5588000000000001	n/a	No	2.684	n/a	5.0	NoResponse	0	0.021	322.485	1	33	Feedback	MissedWin	True
324.918	2.684	Win2	0.5588000000000001	n/a	No	2.684	n/a	n/a	NoResponse	0	0.0	n/a	1	33	ISIslide	MissedWin	True
327.626	0.25	Lose2	0.5428999999999999	0.0	No	2.624	0.026	n/a	NoResponse	-1	n/a	n/a	0	34	Cue	Loss	True
327.877	4.05	Lose2	0.5428999999999999	0.0	No	2.624	0.001	n/a	NoResponse	-1	n/a	n/a	0	34	Fixation	Loss	True
331.922	0.3	Lose2	0.5428999999999999	0.004	No	2.624	-0.004	2.0	NoResponse	-1	0.309	331.231	0	34	Target	Loss	True
332.223	0.4	Lose2	0.5428999999999999	n/a	No	2.624	n/a	n/a	NoResponse	-1	n/a	n/a	0	34	Blank	Loss	True
332.231	0.3	Lose2	0.5428999999999999	0.004	No	2.624	-0.004	2.0	NoResponse	-1	0.309	n/a	0	34	ButtonPress	Loss	True
332.624	1.45	Lose2	0.5428999999999999	n/a	No	2.624	n/a	5.0	NoResponse	-1	0.032	331.656	0	34	Feedback	Loss	True
334.079	2.624	Lose2	0.5428999999999999	n/a	No	2.624	n/a	n/a	NoResponse	-1	0.0	n/a	0	34	ISIslide	Loss	True
336.72	0.25	Lose2	0.5278	0.0	No	2.68	0.02	n/a	NoResponse	-1	n/a	n/a	-1	35	Cue	Loss	True
336.971	4.0	Lose2	0.5278	0.0	No	2.68	0.001	n/a	NoResponse	-1	n/a	n/a	-1	35	Fixation	Loss	True
340.966	0.31	Lose2	0.5278	0.004	No	2.68	-0.004	2.0	NoResponse	-1	0.356	340.322	-1	35	Target	Loss	True
341.284	0.39	Lose2	0.5278	n/a	No	2.68	n/a	n/a	NoResponse	-1	n/a	n/a	-1	35	Blank	Loss	True
341.322	0.3	Lose2	0.5278	0.004	No	2.68	-0.004	2.0	NoResponse	-1	0.356	n/a	-1	35	ButtonPress	Loss	True
341.668	1.45	Lose2	0.5278	n/a	No	2.68	n/a	5.0	NoResponse	-1	0.012	340.68	-1	35	Feedback	Loss	True
343.123	2.68	Lose2	0.5278	n/a	No	2.68	n/a	n/a	NoResponse	-1	0.0	n/a	-1	35	ISIslide	Loss	True
345.814	0.25	Control	0.5405	0.0	Yes	2.686	0.014	n/a	GoodResponse	0	n/a	n/a	-1	36	Cue	Neutral	True
346.065	4.0	Control	0.5405	0.0	Yes	2.686	0.001	n/a	GoodResponse	0	n/a	n/a	-1	36	Fixation	Neutral	True
350.06	0.32	Control	0.5405	0.004	Yes	2.686	-0.004	2.0	GoodResponse	0	0.211	349.271	-1	36	Target	Neutral	True
350.271	0.3	Control	0.5405	0.004	Yes	2.686	-0.004	2.0	GoodResponse	0	0.211	n/a	-1	36	ButtonPress	Neutral	True
350.394	0.38	Control	0.5405	n/a	Yes	2.686	n/a	n/a	GoodResponse	0	n/a	n/a	-1	36	Blank	Neutral	True
350.762	1.45	Control	0.5405	n/a	Yes	2.686	n/a	5.0	GoodResponse	0	0.04	349.802	-1	36	Feedback	Neutral	True
352.217	2.686	Control	0.5405	n/a	Yes	2.686	n/a	n/a	GoodResponse	0	0.0	n/a	-1	36	ISIslide	Neutral	True
354.925	0.25	Win2	0.5526	0.0	Yes	2.875	0.025	n/a	GoodResponse	1	n/a	n/a	0	37	Cue	Win	True
355.175	4.0	Win2	0.5526	0.0	Yes	2.875	0.0	n/a	GoodResponse	1	n/a	n/a	0	37	Fixation	Win	True
359.171	0.33	Win2	0.5526	0.004	Yes	2.875	-0.004	2.0	GoodResponse	1	0.225	358.396	0	37	Target	Win	True
359.396	0.3	Win2	0.5526	0.004	Yes	2.875	-0.004	2.0	GoodResponse	1	0.225	n/a	0	37	ButtonPress	Win	True
359.505	0.37	Win2	0.5526	n/a	Yes	2.875	n/a	n/a	GoodResponse	1	n/a	n/a	0	37	Blank	Win	True
359.873	1.45	Win2	0.5526	n/a	Yes	2.875	n/a	5.0	GoodResponse	1	0.002	358.875	0	37	Feedback	Win	True
361.327	2.875	Win2	0.5526	n/a	Yes	2.875	n/a	n/a	GoodResponse	1	0.0	n/a	0	37	ISIslide	Win	True
364.219	0.25	Lose2	0.5640999999999999	0.0	Yes	2.831	0.019	n/a	GoodResponse	0	n/a	n/a	0	38	Cue	AvoidedLoss	True
364.47	3.95	Lose2	0.5640999999999999	0.0	Yes	2.831	0.001	n/a	GoodResponse	0	n/a	n/a	0	38	Fixation	AvoidedLoss	True
368.415	0.34	Lose2	0.5640999999999999	0.004	Yes	2.831	-0.004	2.0	GoodResponse	0	0.234	367.649	0	38	Target	AvoidedLoss	True
368.649	0.3	Lose2	0.5640999999999999	0.004	Yes	2.831	-0.004	2.0	GoodResponse	0	0.234	n/a	0	38	ButtonPress	AvoidedLoss	True
368.766	0.36	Lose2	0.5640999999999999	n/a	Yes	2.831	n/a	n/a	GoodResponse	0	n/a	n/a	0	38	Blank	AvoidedLoss	True
369.117	1.45	Lose2	0.5640999999999999	n/a	Yes	2.831	n/a	5.0	GoodResponse	0	0.027	368.144	0	38	Feedback	AvoidedLoss	True
370.572	2.831	Lose2	0.5640999999999999	n/a	Yes	2.831	n/a	n/a	GoodResponse	0	0.0	n/a	0	38	ISIslide	AvoidedLoss	True
373.413	0.25	Win2	0.575	0.0	Yes	2.987	0.013	n/a	GoodResponse	1	n/a	n/a	1	39	Cue	Win	True
373.664	4.1	Win2	0.575	0.0	Yes	2.987	0.001	n/a	GoodResponse	1	n/a	n/a	1	39	Fixation	Win	True
377.76	0.35	Win2	0.575	0.003	Yes	2.987	-0.003	2.0	GoodResponse	1	0.279	377.039	1	39	Target	Win	True
378.039	0.3	Win2	0.575	0.003	Yes	2.987	-0.003	2.0	GoodResponse	1	0.279	n/a	1	39	ButtonPress	Win	True
378.111	0.35	Win2	0.575	n/a	Yes	2.987	n/a	n/a	GoodResponse	1	n/a	n/a	1	39	Blank	Win	True
378.462	1.45	Win2	0.575	n/a	Yes	2.987	n/a	5.0	GoodResponse	1	0.047	377.509	1	39	Feedback	Win	True
379.916	2.987	Win2	0.575	n/a	Yes	2.987	n/a	n/a	GoodResponse	1	0.0	n/a	1	39	ISIslide	Win	True
382.925	0.25	Win2	0.5854	0.0	Yes	2.725	0.025	n/a	GoodResponse	1	n/a	n/a	2	40	Cue	Win	True
383.176	3.95	Win2	0.5854	0.0	Yes	2.725	0.001	n/a	GoodResponse	1	n/a	n/a	2	40	Fixation	Win	True
387.121	0.36	Win2	0.5854	0.004	Yes	2.725	-0.004	2.0	GoodResponse	1	0.273	386.394	2	40	Target	Win	True
387.394	0.3	Win2	0.5854	0.004	Yes	2.725	-0.004	2.0	GoodResponse	1	0.273	n/a	2	40	ButtonPress	Win	True
387.489	0.34	Win2	0.5854	n/a	Yes	2.725	n/a	n/a	GoodResponse	1	n/a	n/a	2	40	Blank	Win	True
387.823	1.45	Win2	0.5854	n/a	Yes	2.725	n/a	5.0	GoodResponse	1	0.004	386.827	2	40	Feedback	Win	True
389.278	2.725	Win2	0.5854	n/a	Yes	2.725	n/a	n/a	GoodResponse	1	0.0	n/a	2	40	ISIslide	Win	True
392.019	0.25	Win2	0.5952000000000001	0.0	Yes	2.781	0.019	n/a	GoodResponse	1	n/a	n/a	3	41	Cue	Win	True
392.27	3.9	Win2	0.5952000000000001	0.0	Yes	2.781	0.001	n/a	GoodResponse	1	n/a	n/a	3	41	Fixation	Win	True
396.165	0.37	Win2	0.5952000000000001	0.004	Yes	2.781	-0.004	2.0	GoodResponse	1	0.252	395.417	3	41	Target	Win	True
396.417	0.3	Win2	0.5952000000000001	0.004	Yes	2.781	-0.004	2.0	GoodResponse	1	0.252	n/a	3	41	ButtonPress	Win	True
396.549	0.33	Win2	0.5952000000000001	n/a	Yes	2.781	n/a	n/a	GoodResponse	1	n/a	n/a	3	41	Blank	Win	True
396.867	1.45	Win2	0.5952000000000001	n/a	Yes	2.781	n/a	5.0	GoodResponse	1	0.032	395.899	3	41	Feedback	Win	True
398.321	2.781	Win2	0.5952000000000001	n/a	Yes	2.781	n/a	n/a	GoodResponse	1	0.0	n/a	3	41	ISIslide	Win	True
401.113	0.25	Control	0.6047	0.0	Yes	2.937	0.013	n/a	GoodResponse	0	n/a	n/a	3	42	Cue	Neutral	True
401.364	3.85	Control	0.6047	0.0	Yes	2.937	0.001	n/a	GoodResponse	0	n/a	n/a	3	42	Fixation	Neutral	True
405.209	0.38	Control	0.6047	0.004	Yes	2.937	-0.004	2.0	GoodResponse	0	0.358	404.567	3	42	Target	Neutral	True
405.567	0.3	Control	0.6047	0.004	Yes	2.937	-0.004	2.0	GoodResponse	0	0.358	n/a	3	42	ButtonPress	Neutral	True
405.593	0.32	Control	0.6047	n/a	Yes	2.937	n/a	n/a	GoodResponse	0	n/a	n/a	3	42	Blank	Neutral	True
405.911	1.45	Control	0.6047	n/a	Yes	2.937	n/a	5.0	GoodResponse	0	0.013	404.924	3	42	Feedback	Neutral	True
407.365	2.937	Control	0.6047	n/a	Yes	2.937	n/a	n/a	GoodResponse	0	0.0	n/a	3	42	ISIslide	Neutral	True
410.324	0.25	Win2	0.5909	0.0	No	3.176	0.024	n/a	NoResponse	0	n/a	n/a	3	43	Cue	MissedWin	False
410.575	4.0	Win2	0.5909	0.0	No	3.176	0.001	n/a	NoResponse	0	n/a	n/a	3	43	Fixation	MissedWin	False
414.57	0.39	Win2	0.5909	0.004	No	3.176	-0.004	n/a	NoResponse	0	n/a	n/a	3	43	Target	MissedWin	False
414.971	0.31	Win2	0.5909	n/a	No	3.176	n/a	n/a	NoResponse	0	n/a	n/a	3	43	Blank	MissedWin	False
415.272	1.45	Win2	0.5909	n/a	No	3.176	n/a	5.0	NoResponse	0	0.018	414.29	3	43	Feedback	MissedWin	False
416.726	3.176	Win2	0.5909	n/a	No	3.176	n/a	n/a	NoResponse	0	0.0	n/a	3	43	ISIslide	MissedWin	False
419.919	0.25	Win2	0.6	0.0	Yes	2.981	0.019	n/a	GoodResponse	1	n/a	n/a	4	44	Cue	Win	True
420.17	4.0	Win2	0.6	0.0	Yes	2.981	0.001	n/a	GoodResponse	1	n/a	n/a	4	44	Fixation	Win	True
424.165	0.4	Win2	0.6	0.004	Yes	2.981	-0.004	2.0	GoodResponse	1	0.317	423.482	4	44	Target	Win	True
424.482	0.3	Win2	0.6	0.004	Yes	2.981	-0.004	2.0	GoodResponse	1	0.317	n/a	4	44	ButtonPress	Win	True
424.567	0.3	Win2	0.6	n/a	Yes	2.981	n/a	n/a	GoodResponse	1	n/a	n/a	4	44	Blank	Win	True
424.868	1.45	Win2	0.6	n/a	Yes	2.981	n/a	5.0	GoodResponse	1	0.032	423.9	4	44	Feedback	Win	True
426.322	2.981	Win2	0.6	n/a	Yes	2.981	n/a	n/a	GoodResponse	1	0.0	n/a	4	44	ISIslide	Win	True
429.314	0.25	Control	0.6087	0.0	Yes	2.886	0.014	n/a	GoodResponse	0	n/a	n/a	4	45	Cue	Neutral	True
429.565	4.1	Control	0.6087	0.0	Yes	2.886	0.001	n/a	GoodResponse	0	n/a	n/a	4	45	Fixation	Neutral	True
433.661	0.41	Control	0.6087	0.003	Yes	2.886	-0.003	2.0	GoodResponse	0	0.269	432.93	4	45	Target	Neutral	True
433.93	0.3	Control	0.6087	0.003	Yes	2.886	-0.003	2.0	GoodResponse	0	0.269	n/a	4	45	ButtonPress	Neutral	True
434.078	0.29	Control	0.6087	n/a	Yes	2.886	n/a	n/a	GoodResponse	0	n/a	n/a	4	45	Blank	Neutral	True
434.363	1.45	Control	0.6087	n/a	Yes	2.886	n/a	5.0	GoodResponse	0	0.048	433.411	4	45	Feedback	Neutral	True
435.817	2.886	Control	0.6087	n/a	Yes	2.886	n/a	n/a	GoodResponse	0	0.0	n/a	4	45	ISIslide	Neutral	True
438.726	0.25	Lose2	0.617	0.0	Yes	3.374	0.026	n/a	GoodResponse	0	n/a	n/a	4	46	Cue	AvoidedLoss	True
438.976	4.0	Lose2	0.617	0.001	Yes	3.374	0.0	n/a	GoodResponse	0	n/a	n/a	4	46	Fixation	AvoidedLoss	True
442.972	0.42	Lose2	0.617	0.004	Yes	3.374	-0.004	2.0	GoodResponse	0	0.298	442.27	4	46	Target	AvoidedLoss	True
443.27	0.3	Lose2	0.617	0.004	Yes	3.374	-0.004	2.0	GoodResponse	0	0.298	n/a	4	46	ButtonPress	AvoidedLoss	True
443.406	0.28	Lose2	0.617	n/a	Yes	3.374	n/a	n/a	GoodResponse	0	n/a	n/a	4	46	Blank	AvoidedLoss	True
443.674	1.45	Lose2	0.617	n/a	Yes	3.374	n/a	5.0	GoodResponse	0	0.005	442.679	4	46	Feedback	AvoidedLoss	True
445.128	3.374	Lose2	0.617	n/a	Yes	3.374	n/a	n/a	GoodResponse	0	0.0	n/a	4	46	ISIslide	AvoidedLoss	True
448.522	0.25	Lose2	0.625	0.0	Yes	2.678	0.022	n/a	GoodResponse	0	n/a	n/a	4	47	Cue	AvoidedLoss	True
448.772	4.0	Lose2	0.625	0.001	Yes	2.678	0.0	n/a	GoodResponse	0	n/a	n/a	4	47	Fixation	AvoidedLoss	True
452.768	0.43	Lose2	0.625	0.004	Yes	2.678	-0.004	2.0	GoodResponse	0	0.312	452.08	4	47	Target	AvoidedLoss	True
453.08	0.3	Lose2	0.625	0.004	Yes	2.678	-0.004	2.0	GoodResponse	0	0.312	n/a	4	47	ButtonPress	AvoidedLoss	True
453.202	0.27	Lose2	0.625	n/a	Yes	2.678	n/a	n/a	GoodResponse	0	n/a	n/a	4	47	Blank	AvoidedLoss	True
453.47	1.45	Lose2	0.625	n/a	Yes	2.678	n/a	5.0	GoodResponse	0	0.014	452.484	4	47	Feedback	AvoidedLoss	True
454.924	2.678	Lose2	0.625	n/a	Yes	2.678	n/a	n/a	GoodResponse	0	0.0	n/a	4	47	ISIslide	AvoidedLoss	True
457.616	0.25	Lose2	0.6327	0.0	Yes	3.034	0.016	n/a	GoodResponse	0	n/a	n/a	4	48	Cue	AvoidedLoss	True
457.866	3.95	Lose2	0.6327	0.0	Yes	3.034	0.0	n/a	GoodResponse	0	n/a	n/a	4	48	Fixation	AvoidedLoss	True
461.812	0.44	Lose2	0.6327	0.004	Yes	3.034	-0.004	2.0	GoodResponse	0	0.322	461.134	4	48	Target	AvoidedLoss	True
462.134	0.3	Lose2	0.6327	0.004	Yes	3.034	-0.004	2.0	GoodResponse	0	0.322	n/a	4	48	ButtonPress	AvoidedLoss	True
462.263	0.26	Lose2	0.6327	n/a	Yes	3.034	n/a	n/a	GoodResponse	0	n/a	n/a	4	48	Blank	AvoidedLoss	True
462.514	1.45	Lose2	0.6327	n/a	Yes	3.034	n/a	5.0	GoodResponse	0	0.044	461.558	4	48	Feedback	AvoidedLoss	True
463.968	3.034	Lose2	0.6327	n/a	Yes	3.034	n/a	n/a	GoodResponse	0	0.0	n/a	4	48	ISIslide	AvoidedLoss	True
467.027	0.25	Control	0.64	0.0	Yes	2.873	0.027	n/a	GoodResponse	0	n/a	n/a	4	49	Cue	Neutral	True
467.278	4.0	Control	0.64	0.0	Yes	2.873	0.001	n/a	GoodResponse	0	n/a	n/a	4	49	Fixation	Neutral	True
471.273	0.45	Control	0.64	0.004	Yes	2.873	-0.004	2.0	GoodResponse	0	0.318	470.591	4	49	Target	Neutral	True
471.591	0.3	Control	0.64	0.004	Yes	2.873	-0.004	2.0	GoodResponse	0	0.318	n/a	4	49	ButtonPress	Neutral	True
471.725	0.25	Control	0.64	n/a	Yes	2.873	n/a	n/a	GoodResponse	0	n/a	n/a	4	49	Blank	Neutral	True
471.975	1.45	Control	0.64	n/a	Yes	2.873	n/a	5.0	GoodResponse	0	0.046	471.021	4	49	Feedback	Neutral	True
473.43	2.873	Control	0.64	n/a	Yes	2.873	n/a	n/a	GoodResponse	0	0.0	n/a	4	49	ISIslide	Neutral	True
476.322	0.25	Control	0.6470999999999999	0.0	Yes	2.778	0.022	n/a	GoodResponse	0	n/a	n/a	4	50	Cue	Neutral	True
476.572	4.0	Control	0.6470999999999999	0.001	Yes	2.778	0.0	n/a	GoodResponse	0	n/a	n/a	4	50	Fixation	Neutral	True
480.568	0.46	Control	0.6470999999999999	0.004	Yes	2.778	-0.004	2.0	GoodResponse	0	0.309	479.877	4	50	Target	Neutral	True
480.877	0.3	Control	0.6470999999999999	0.004	Yes	2.778	-0.004	2.0	GoodResponse	0	0.309	n/a	4	50	ButtonPress	Neutral	True
481.036	0.24	Control	0.6470999999999999	n/a	Yes	2.778	n/a	n/a	GoodResponse	0	n/a	n/a	4	50	Blank	Neutral	True
481.27	1.45	Control	0.6470999999999999	n/a	Yes	2.778	n/a	5.0	GoodResponse	0	0.02	480.29	4	50	Feedback	Neutral	True
482.724	2.778	Control	0.6470999999999999	n/a	Yes	2.778	n/a	n/a	GoodResponse	0	0.0	n/a	4	50	ISIslide	Neutral	True
485.516	0.25	Control	0.6346	0.0	No	2.734	0.016	n/a	NoResponse	0	n/a	n/a	4	51	Cue	Neutral	True
485.767	3.95	Control	0.6346	0.0	No	2.734	0.001	n/a	NoResponse	0	n/a	n/a	4	51	Fixation	Neutral	True
489.712	0.47	Control	0.6346	0.004	No	2.734	-0.004	2.0	NoResponse	0	0.625	489.337	4	51	Target	Neutral	True
490.197	0.23	Control	0.6346	n/a	No	2.734	n/a	n/a	NoResponse	0	n/a	n/a	4	51	Blank	Neutral	True
490.337	0.3	Control	0.6346	0.004	No	2.734	-0.004	2.0	NoResponse	0	0.625	n/a	4	51	ButtonPress	Neutral	True
490.414	1.45	Control	0.6346	n/a	No	2.734	n/a	5.0	NoResponse	0	0.045	489.459	4	51	Feedback	Neutral	True
491.868	2.734	Control	0.6346	n/a	No	2.734	n/a	n/a	NoResponse	0	0.0	n/a	4	51	ISIslide	Neutral	True
494.627	0.25	Control	0.6415000000000001	0.0	Yes	2.623	0.027	n/a	GoodResponse	0	n/a	n/a	4	52	Cue	Neutral	True
494.877	4.05	Control	0.6415000000000001	0.0	Yes	2.623	0.0	n/a	GoodResponse	0	n/a	n/a	4	52	Fixation	Neutral	True
498.923	0.48	Control	0.6415000000000001	0.004	Yes	2.623	-0.004	2.0	GoodResponse	0	0.307	498.23	4	52	Target	Neutral	True
499.23	0.3	Control	0.6415000000000001	0.004	Yes	2.623	-0.004	2.0	GoodResponse	0	0.307	n/a	4	52	ButtonPress	Neutral	True
499.408	0.22	Control	0.6415000000000001	n/a	Yes	2.623	n/a	n/a	GoodResponse	0	n/a	n/a	4	52	Blank	Neutral	True
499.625	1.45	Control	0.6415000000000001	n/a	Yes	2.623	n/a	5.0	GoodResponse	0	0.005	498.63	4	52	Feedback	Neutral	True
501.079	2.623	Control	0.6415000000000001	n/a	Yes	2.623	n/a	n/a	GoodResponse	0	0.0	n/a	4	52	ISIslide	Neutral	True
503.72	0.25	Win2	0.6296	0.001	No	2.93	0.02	n/a	NoResponse	0	n/a	n/a	4	53	Cue	MissedWin	True
503.971	4.05	Win2	0.6296	0.0	No	2.93	0.001	n/a	NoResponse	0	n/a	n/a	4	53	Fixation	MissedWin	True
508.017	0.49	Win2	0.6296	0.003	No	2.93	-0.003	2.0	NoResponse	0	0.529	507.546	4	53	Target	MissedWin	True
508.518	0.21	Win2	0.6296	n/a	No	2.93	n/a	n/a	NoResponse	0	n/a	n/a	4	53	Blank	MissedWin	True
508.546	0.3	Win2	0.6296	0.003	No	2.93	-0.003	2.0	NoResponse	0	0.529	n/a	4	53	ButtonPress	MissedWin	True
508.719	1.45	Win2	0.6296	n/a	No	2.93	n/a	5.0	NoResponse	0	0.033	507.752	4	53	Feedback	MissedWin	True
510.173	2.93	Win2	0.6296	n/a	No	2.93	n/a	n/a	NoResponse	0	0.0	n/a	4	53	ISIslide	MissedWin	True
513.115	0.25	Win2	0.6364	0.0	Yes	2.735	0.015	n/a	GoodResponse	1	n/a	n/a	5	54	Cue	Win	True
513.366	3.95	Win2	0.6364	0.0	Yes	2.735	0.001	n/a	GoodResponse	1	n/a	n/a	5	54	Fixation	Win	True
517.311	0.5	Win2	0.6364	0.004	Yes	2.735	-0.004	2.0	GoodResponse	1	0.245	516.556	5	54	Target	Win	True
517.556	0.3	Win2	0.6364	0.004	Yes	2.735	-0.004	2.0	GoodResponse	1	0.245	n/a	5	54	ButtonPress	Win	True
517.813	0.2	Win2	0.6364	n/a	Yes	2.735	n/a	n/a	GoodResponse	1	n/a	n/a	5	54	Blank	Win	True
518.013	1.45	Win2	0.6364	n/a	Yes	2.735	n/a	5.0	GoodResponse	1	0.008	517.021	5	54	Feedback	Win	True
519.468	2.735	Win2	0.6364	n/a	Yes	2.735	n/a	n/a	GoodResponse	1	0.0	n/a	5	54	ISIslide	Win	True
522.226	0.25	Control	0.6429	0.0	Yes	3.024	0.026	n/a	GoodResponse	0	n/a	n/a	5	55	Cue	Neutral	True
522.477	3.95	Control	0.6429	0.0	Yes	3.024	0.001	n/a	GoodResponse	0	n/a	n/a	5	55	Fixation	Neutral	True
526.422	0.5	Control	0.6429	0.004	Yes	3.024	-0.004	2.0	GoodResponse	0	0.393	525.815	5	55	Target	Neutral	True
526.815	0.3	Control	0.6429	0.004	Yes	3.024	-0.004	2.0	GoodResponse	0	0.393	n/a	5	55	ButtonPress	Neutral	True
526.923	0.2	Control	0.6429	n/a	Yes	3.024	n/a	n/a	GoodResponse	0	n/a	n/a	5	55	Blank	Neutral	True
527.124	1.45	Control	0.6429	n/a	Yes	3.024	n/a	5.0	GoodResponse	0	0.019	526.143	5	55	Feedback	Neutral	True
528.578	3.024	Control	0.6429	n/a	Yes	3.024	n/a	n/a	GoodResponse	0	0.0	n/a	5	55	ISIslide	Neutral	True
531.621	0.25	Control	0.6491	0.0	Yes	2.829	0.021	n/a	GoodResponse	0	n/a	n/a	5	56	Cue	Neutral	True
531.871	3.95	Control	0.6491	0.001	Yes	2.829	0.0	n/a	GoodResponse	0	n/a	n/a	5	56	Fixation	Neutral	True
535.817	0.5	Control	0.6491	0.004	Yes	2.829	-0.004	2.0	GoodResponse	0	0.295	535.112	5	56	Target	Neutral	True
536.112	0.3	Control	0.6491	0.004	Yes	2.829	-0.004	2.0	GoodResponse	0	0.295	n/a	5	56	ButtonPress	Neutral	True
536.318	0.2	Control	0.6491	n/a	Yes	2.829	n/a	n/a	GoodResponse	0	n/a	n/a	5	56	Blank	Neutral	True
536.519	1.45	Control	0.6491	n/a	Yes	2.829	n/a	5.0	GoodResponse	0	0.038	535.557	5	56	Feedback	Neutral	True
537.973	2.829	Control	0.6491	n/a	Yes	2.829	n/a	n/a	GoodResponse	0	0.0	n/a	5	56	ISIslide	Neutral	True
540.815	0.25	Control	0.6379	0.0	No	3.485	0.015	n/a	NoResponse	0	n/a	n/a	5	57	Cue	Neutral	True
541.066	4.0	Control	0.6379	0.0	No	3.485	0.001	n/a	NoResponse	0	n/a	n/a	5	57	Fixation	Neutral	True
545.061	0.5	Control	0.6379	0.004	No	3.485	-0.004	2.0	NoResponse	0	0.547	544.608	5	57	Target	Neutral	True
545.563	0.2	Control	0.6379	n/a	No	3.485	n/a	n/a	NoResponse	0	n/a	n/a	5	57	Blank	Neutral	True
545.608	0.3	Control	0.6379	0.004	No	3.485	-0.004	2.0	NoResponse	0	0.547	n/a	5	57	ButtonPress	Neutral	True
545.763	1.45	Control	0.6379	n/a	No	3.485	n/a	5.0	NoResponse	0	0.014	544.777	5	57	Feedback	Neutral	True
547.217	3.485	Control	0.6379	n/a	No	3.485	n/a	n/a	NoResponse	0	0.0	n/a	5	57	ISIslide	Neutral	True
550.728	0.25	Win2	0.6271	0.0	No	2.722	0.028	n/a	NoResponse	0	n/a	n/a	5	58	Cue	MissedWin	True
550.979	4.05	Win2	0.6271	0.0	No	2.722	0.001	n/a	NoResponse	0	n/a	n/a	5	58	Fixation	MissedWin	True
555.024	0.5	Win2	0.6271	0.004	No	2.722	-0.004	2.0	NoResponse	0	0.55	554.574	5	58	Target	MissedWin	True
555.526	0.2	Win2	0.6271	n/a	No	2.722	n/a	n/a	NoResponse	0	n/a	n/a	5	58	Blank	MissedWin	True
555.574	0.3	Win2	0.6271	0.004	No	2.722	-0.004	2.0	NoResponse	0	0.55	n/a	5	58	ButtonPress	MissedWin	True
555.726	1.45	Win2	0.6271	n/a	No	2.722	n/a	5.0	NoResponse	0	0.001	554.727	5	58	Feedback	MissedWin	True
557.181	2.722	Win2	0.6271	n/a	No	2.722	n/a	n/a	NoResponse	0	0.0	n/a	5	58	ISIslide	MissedWin	True
559.922	0.25	Lose2	0.6333	0.0	Yes	2.678	0.022	n/a	GoodResponse	0	n/a	n/a	5	59	Cue	AvoidedLoss	True
560.173	4.0	Lose2	0.6333	0.0	Yes	2.678	0.001	n/a	GoodResponse	0	n/a	n/a	5	59	Fixation	AvoidedLoss	True
564.168	0.5	Lose2	0.6333	0.004	Yes	2.678	-0.004	2.0	GoodResponse	0	0.435	563.603	5	59	Target	AvoidedLoss	True
564.603	0.3	Lose2	0.6333	0.004	Yes	2.678	-0.004	2.0	GoodResponse	0	0.435	n/a	5	59	ButtonPress	AvoidedLoss	True
564.67	0.2	Lose2	0.6333	n/a	Yes	2.678	n/a	n/a	GoodResponse	0	n/a	n/a	5	59	Blank	AvoidedLoss	True
564.87	1.45	Lose2	0.6333	n/a	Yes	2.678	n/a	5.0	GoodResponse	0	0.028	563.898	5	59	Feedback	AvoidedLoss	True
566.325	2.678	Lose2	0.6333	n/a	Yes	2.678	n/a	n/a	GoodResponse	0	0.0	n/a	5	59	ISIslide	AvoidedLoss	True
569.016	0.25	Control	0.6393	0.0	Yes	2.684	0.016	n/a	GoodResponse	0	n/a	n/a	5	60	Cue	Neutral	True
569.267	4.0	Control	0.6393	0.0	Yes	2.684	0.001	n/a	GoodResponse	0	n/a	n/a	5	60	Fixation	Neutral	True
573.262	0.5	Control	0.6393	0.004	Yes	2.684	-0.004	2.0	GoodResponse	0	0.322	572.584	5	60	Target	Neutral	True
573.584	0.3	Control	0.6393	0.004	Yes	2.684	-0.004	2.0	GoodResponse	0	0.322	n/a	5	60	ButtonPress	Neutral	True
573.764	0.2	Control	0.6393	n/a	Yes	2.684	n/a	n/a	GoodResponse	0	n/a	n/a	5	60	Blank	Neutral	True
573.964	1.45	Control	0.6393	n/a	Yes	2.684	n/a	5.0	GoodResponse	0	0.007	572.971	5	60	Feedback	Neutral	True
575.419	2.684	Control	0.6393	n/a	Yes	2.684	n/a	n/a	GoodResponse	0	0.0	n/a	5	60	ISIslide	Neutral	True
578.127	0.25	Lose2	0.6452	0.0	Yes	2.973	0.027	n/a	GoodResponse	0	n/a	n/a	5	61	Cue	AvoidedLoss	True
578.378	4.0	Lose2	0.6452	0.0	Yes	2.973	0.001	n/a	GoodResponse	0	n/a	n/a	5	61	Fixation	AvoidedLoss	True
582.373	0.5	Lose2	0.6452	0.004	Yes	2.973	-0.004	2.0	GoodResponse	0	0.3	581.673	5	61	Target	AvoidedLoss	True
582.673	0.3	Lose2	0.6452	0.004	Yes	2.973	-0.004	2.0	GoodResponse	0	0.3	n/a	5	61	ButtonPress	AvoidedLoss	True
582.874	0.2	Lose2	0.6452	n/a	Yes	2.973	n/a	n/a	GoodResponse	0	n/a	n/a	5	61	Blank	AvoidedLoss	True
583.075	1.45	Lose2	0.6452	n/a	Yes	2.973	n/a	5.0	GoodResponse	0	0.019	582.094	5	61	Feedback	AvoidedLoss	True
584.529	2.973	Lose2	0.6452	n/a	Yes	2.973	n/a	n/a	GoodResponse	0	0.0	n/a	5	61	ISIslide	AvoidedLoss	True
587.522	0.25	Lose2	0.6349	0.0	No	2.878	0.022	n/a	NoResponse	-1	n/a	n/a	4	62	Cue	Loss	True
587.772	3.9	Lose2	0.6349	0.0	No	2.878	0.0	n/a	NoResponse	-1	n/a	n/a	4	62	Fixation	Loss	True
591.684	0.5	Lose2	0.6349	0.0	No	2.878	0.012	n/a	NoResponse	-1	n/a	n/a	4	62	Target	Loss	True
592.169	0.2	Lose2	0.6349	n/a	No	2.878	n/a	n/a	NoResponse	-1	n/a	n/a	4	62	Blank	Loss	True
592.369	1.45	Lose2	0.6349	n/a	No	2.878	n/a	2.0	NoResponse	-1	0.032	591.401	4	62	Feedback	Loss	True
592.401	0.3	Lose2	0.6349	n/a	No	2.878	n/a	2.0	NoResponse	-1	0.032	n/a	4	62	ButtonPress	Loss	True
593.824	2.878	Lose2	0.6349	n/a	No	2.878	n/a	n/a	NoResponse	-1	0.0	n/a	4	62	ISIslide	Loss	True
596.716	0.25	Lose2	0.6406000000000001	0.0	Yes	2.634	0.016	n/a	GoodResponse	0	n/a	n/a	4	63	Cue	AvoidedLoss	True
596.967	4.05	Lose2	0.6406000000000001	0.0	Yes	2.634	0.001	n/a	GoodResponse	0	n/a	n/a	4	63	Fixation	AvoidedLoss	True
601.012	0.5	Lose2	0.6406000000000001	0.004	Yes	2.634	-0.004	2.0	GoodResponse	0	0.24	600.252	4	63	Target	AvoidedLoss	True
601.252	0.3	Lose2	0.6406000000000001	0.004	Yes	2.634	-0.004	2.0	GoodResponse	0	0.24	n/a	4	63	ButtonPress	AvoidedLoss	True
601.513	0.2	Lose2	0.6406000000000001	n/a	Yes	2.634	n/a	n/a	GoodResponse	0	n/a	n/a	4	63	Blank	AvoidedLoss	True
601.714	1.45	Lose2	0.6406000000000001	n/a	Yes	2.634	n/a	5.0	GoodResponse	0	0.014	600.728	4	63	Feedback	AvoidedLoss	True
603.168	2.634	Lose2	0.6406000000000001	n/a	Yes	2.634	n/a	n/a	GoodResponse	0	0.0	n/a	4	63	ISIslide	AvoidedLoss	True
605.826	0.25	Win2	0.6462	0.001	Yes	3.124	0.026	n/a	GoodResponse	1	n/a	n/a	5	64	Cue	Win	True
606.077	4.15	Win2	0.6462	0.0	Yes	3.124	0.001	n/a	GoodResponse	1	n/a	n/a	5	64	Fixation	Win	True
610.223	0.5	Win2	0.6462	0.003	Yes	3.124	-0.003	2.0	GoodResponse	1	0.243	609.466	5	64	Target	Win	True
610.466	0.3	Win2	0.6462	0.003	Yes	3.124	-0.003	2.0	GoodResponse	1	0.243	n/a	5	64	ButtonPress	Win	True
610.724	0.2	Win2	0.6462	n/a	Yes	3.124	n/a	n/a	GoodResponse	1	n/a	n/a	5	64	Blank	Win	True
610.925	1.45	Win2	0.6462	n/a	Yes	3.124	n/a	5.0	GoodResponse	1	0.021	609.946	5	64	Feedback	Win	True
612.379	3.124	Win2	0.6462	n/a	Yes	3.124	n/a	n/a	GoodResponse	1	0.0	n/a	5	64	ISIslide	Win	True
615.522	0.25	Control	0.6515000000000001	0.0	Yes	2.778	0.022	n/a	GoodResponse	0	n/a	n/a	5	65	Cue	Neutral	True
615.773	4.0	Control	0.6515000000000001	0.0	Yes	2.778	0.001	n/a	GoodResponse	0	n/a	n/a	5	65	Fixation	Neutral	True
619.768	0.5	Control	0.6515000000000001	0.004	Yes	2.778	-0.004	2.0	GoodResponse	0	0.316	619.084	5	65	Target	Neutral	True
620.084	0.3	Control	0.6515000000000001	0.004	Yes	2.778	-0.004	2.0	GoodResponse	0	0.316	n/a	5	65	ButtonPress	Neutral	True
620.27	0.2	Control	0.6515000000000001	n/a	Yes	2.778	n/a	n/a	GoodResponse	0	n/a	n/a	5	65	Blank	Neutral	True
620.47	1.45	Control	0.6515000000000001	n/a	Yes	2.778	n/a	5.0	GoodResponse	0	0.038	619.508	5	65	Feedback	Neutral	True
621.925	2.778	Control	0.6515000000000001	n/a	Yes	2.778	n/a	n/a	GoodResponse	0	0.0	n/a	5	65	ISIslide	Neutral	True
624.716	0.25	Win2	0.6567000000000001	0.0	Yes	2.784	0.016	n/a	GoodResponse	1	n/a	n/a	6	66	Cue	Win	True
624.967	3.9	Win2	0.6567000000000001	0.0	Yes	2.784	0.001	n/a	GoodResponse	1	n/a	n/a	6	66	Fixation	Win	True
628.862	0.5	Win2	0.6567000000000001	0.004	Yes	2.784	-0.004	2.0	GoodResponse	1	0.462	628.324	6	66	Target	Win	True
629.324	0.3	Win2	0.6567000000000001	0.004	Yes	2.784	-0.004	2.0	GoodResponse	1	0.462	n/a	6	66	ButtonPress	Win	True
629.364	0.2	Win2	0.6567000000000001	n/a	Yes	2.784	n/a	n/a	GoodResponse	1	n/a	n/a	6	66	Blank	Win	True
629.564	1.45	Win2	0.6567000000000001	n/a	Yes	2.784	n/a	5.0	GoodResponse	1	0.017	628.581	6	66	Feedback	Win	True
631.019	2.784	Win2	0.6567000000000001	n/a	Yes	2.784	n/a	n/a	GoodResponse	1	0.0	n/a	6	66	ISIslide	Win	True
633.827	0.25	Control	0.6618	0.0	Yes	2.723	0.027	n/a	GoodResponse	0	n/a	n/a	6	67	Cue	Neutral	True
634.078	3.95	Control	0.6618	0.0	Yes	2.723	0.001	n/a	GoodResponse	0	n/a	n/a	6	67	Fixation	Neutral	True
638.023	0.5	Control	0.6618	0.004	Yes	2.723	-0.004	2.0	GoodResponse	0	0.307	637.33	6	67	Target	Neutral	True
638.33	0.3	Control	0.6618	0.004	Yes	2.723	-0.004	2.0	GoodResponse	0	0.307	n/a	6	67	ButtonPress	Neutral	True
638.524	0.2	Control	0.6618	n/a	Yes	2.723	n/a	n/a	GoodResponse	0	n/a	n/a	6	67	Blank	Neutral	True
638.725	1.45	Control	0.6618	n/a	Yes	2.723	n/a	5.0	GoodResponse	0	0.027	637.752	6	67	Feedback	Neutral	True
640.179	2.723	Control	0.6618	n/a	Yes	2.723	n/a	n/a	GoodResponse	0	0.0	n/a	6	67	ISIslide	Neutral	True
642.921	0.25	Win2	0.6667000000000001	0.0	Yes	3.079	0.021	n/a	GoodResponse	1	n/a	n/a	7	68	Cue	Win	True
643.172	4.0	Win2	0.6667000000000001	0.0	Yes	3.079	0.001	n/a	GoodResponse	1	n/a	n/a	7	68	Fixation	Win	True
647.167	0.5	Win2	0.6667000000000001	0.004	Yes	3.079	-0.004	2.0	GoodResponse	1	0.293	646.46	7	68	Target	Win	True
647.46	0.3	Win2	0.6667000000000001	0.004	Yes	3.079	-0.004	2.0	GoodResponse	1	0.293	n/a	7	68	ButtonPress	Win	True
647.668	0.2	Win2	0.6667000000000001	n/a	Yes	3.079	n/a	n/a	GoodResponse	1	n/a	n/a	7	68	Blank	Win	True
647.869	1.45	Win2	0.6667000000000001	n/a	Yes	3.079	n/a	5.0	GoodResponse	1	0.005	646.874	7	68	Feedback	Win	True
649.323	3.079	Win2	0.6667000000000001	n/a	Yes	3.079	n/a	n/a	GoodResponse	1	0.0	n/a	7	68	ISIslide	Win	True
652.416	0.25	Win2	0.6714	0.0	Yes	3.234	0.016	n/a	GoodResponse	1	n/a	n/a	8	69	Cue	Win	True
652.667	3.95	Win2	0.6714	0.0	Yes	3.234	0.001	n/a	GoodResponse	1	n/a	n/a	8	69	Fixation	Win	True
656.612	0.49	Win2	0.6714	0.004	Yes	3.234	-0.004	2.0	GoodResponse	1	0.229	655.841	8	69	Target	Win	True
656.841	0.3	Win2	0.6714	0.004	Yes	3.234	-0.004	2.0	GoodResponse	1	0.229	n/a	8	69	ButtonPress	Win	True
657.113	0.21	Win2	0.6714	n/a	Yes	3.234	n/a	n/a	GoodResponse	1	n/a	n/a	8	69	Blank	Win	True
657.314	1.45	Win2	0.6714	n/a	Yes	3.234	n/a	5.0	GoodResponse	1	0.023	656.337	8	69	Feedback	Win	True
658.768	3.234	Win2	0.6714	n/a	Yes	3.234	n/a	n/a	GoodResponse	1	0.0	n/a	8	69	ISIslide	Win	True
662.028	0.25	Lose2	0.6761	0.0	Yes	3.022	0.028	n/a	GoodResponse	0	n/a	n/a	8	70	Cue	AvoidedLoss	True
662.279	4.05	Lose2	0.6761	0.0	Yes	3.022	0.001	n/a	GoodResponse	0	n/a	n/a	8	70	Fixation	AvoidedLoss	True
666.324	0.48	Lose2	0.6761	0.004	Yes	3.022	-0.004	2.0	GoodResponse	0	0.412	665.736	8	70	Target	AvoidedLoss	True
666.736	0.3	Lose2	0.6761	0.004	Yes	3.022	-0.004	2.0	GoodResponse	0	0.412	n/a	8	70	ButtonPress	AvoidedLoss	True
666.809	0.22	Lose2	0.6761	n/a	Yes	3.022	n/a	n/a	GoodResponse	0	n/a	n/a	8	70	Blank	AvoidedLoss	True
667.026	1.45	Lose2	0.6761	n/a	Yes	3.022	n/a	5.0	GoodResponse	0	0.019	666.045	8	70	Feedback	AvoidedLoss	True
668.481	3.022	Lose2	0.6761	n/a	Yes	3.022	n/a	n/a	GoodResponse	0	0.0	n/a	8	70	ISIslide	AvoidedLoss	True
671.523	0.25	Win2	0.6806	0.0	Yes	2.727	0.023	n/a	GoodResponse	1	n/a	n/a	9	71	Cue	Win	True
671.774	4.05	Win2	0.6806	0.0	Yes	2.727	0.001	n/a	GoodResponse	1	n/a	n/a	9	71	Fixation	Win	True
675.819	0.47	Win2	0.6806	0.004	Yes	2.727	-0.004	2.0	GoodResponse	1	0.254	675.073	9	71	Target	Win	True
676.073	0.3	Win2	0.6806	0.004	Yes	2.727	-0.004	2.0	GoodResponse	1	0.254	n/a	9	71	ButtonPress	Win	True
676.304	0.23	Win2	0.6806	n/a	Yes	2.727	n/a	n/a	GoodResponse	1	n/a	n/a	9	71	Blank	Win	True
676.522	1.45	Win2	0.6806	n/a	Yes	2.727	n/a	5.0	GoodResponse	1	0.034	675.556	9	71	Feedback	Win	True
677.976	2.727	Win2	0.6806	n/a	Yes	2.727	n/a	n/a	GoodResponse	1	0.0	n/a	9	71	ISIslide	Win	True
680.717	0.25	Win2	0.6849	0.001	Yes	2.783	0.017	n/a	GoodResponse	1	n/a	n/a	10	72	Cue	Win	True
680.968	4.1	Win2	0.6849	0.0	Yes	2.783	0.001	n/a	GoodResponse	1	n/a	n/a	10	72	Fixation	Win	True
685.064	0.46	Win2	0.6849	0.003	Yes	2.783	-0.003	2.0	GoodResponse	1	0.242	684.306	10	72	Target	Win	True
685.306	0.3	Win2	0.6849	0.003	Yes	2.783	-0.003	2.0	GoodResponse	1	0.242	n/a	10	72	ButtonPress	Win	True
685.532	0.24	Win2	0.6849	n/a	Yes	2.783	n/a	n/a	GoodResponse	1	n/a	n/a	10	72	Blank	Win	True
685.766	1.45	Win2	0.6849	n/a	Yes	2.783	n/a	5.0	GoodResponse	1	0.01	684.776	10	72	Feedback	Win	True
687.22	2.783	Win2	0.6849	n/a	Yes	2.783	n/a	n/a	GoodResponse	1	0.0	n/a	10	72	ISIslide	Win	True
690.029	0.25	Win2	0.6757	0.0	No	2.671	0.029	n/a	NoResponse	0	n/a	n/a	10	73	Cue	MissedWin	True
690.279	4.0	Win2	0.6757	0.001	No	2.671	0.0	2.0	NoResponse	0	2.812	692.091	10	73	Fixation	MissedWin	True
693.091	0.3	Win2	0.6757	0.001	No	2.671	0.0	2.0	NoResponse	0	2.812	n/a	10	73	ButtonPress	MissedWin	True
694.275	0.45	Win2	0.6757	0.004	No	2.671	-0.004	n/a	NoResponse	0	n/a	n/a	10	73	Target	MissedWin	True
694.726	0.25	Win2	0.6757	n/a	No	2.671	n/a	n/a	NoResponse	0	n/a	n/a	10	73	Blank	MissedWin	True
694.977	1.45	Win2	0.6757	n/a	No	2.671	n/a	5.0	NoResponse	0	0.018	693.995	10	73	Feedback	MissedWin	True
696.431	2.671	Win2	0.6757	n/a	No	2.671	n/a	n/a	NoResponse	0	0.0	n/a	10	73	ISIslide	MissedWin	True
699.123	0.25	Lose2	0.68	0.0	Yes	2.627	0.023	n/a	GoodResponse	0	n/a	n/a	10	74	Cue	AvoidedLoss	True
699.373	4.05	Lose2	0.68	0.0	Yes	2.627	0.0	n/a	GoodResponse	0	n/a	n/a	10	74	Fixation	AvoidedLoss	True
703.419	0.44	Lose2	0.68	0.004	Yes	2.627	-0.004	2.0	GoodResponse	0	0.278	702.697	10	74	Target	AvoidedLoss	True
703.697	0.3	Lose2	0.68	0.004	Yes	2.627	-0.004	2.0	GoodResponse	0	0.278	n/a	10	74	ButtonPress	AvoidedLoss	True
703.87	0.26	Lose2	0.68	n/a	Yes	2.627	n/a	n/a	GoodResponse	0	n/a	n/a	10	74	Blank	AvoidedLoss	True
704.121	1.45	Lose2	0.68	n/a	Yes	2.627	n/a	5.0	GoodResponse	0	0.045	703.166	10	74	Feedback	AvoidedLoss	True
705.575	2.627	Lose2	0.68	n/a	Yes	2.627	n/a	n/a	GoodResponse	0	0.0	n/a	10	74	ISIslide	AvoidedLoss	True
708.217	0.25	Lose2	0.6842	0.0	Yes	2.933	0.017	n/a	GoodResponse	0	n/a	n/a	10	75	Cue	AvoidedLoss	True
708.467	3.95	Lose2	0.6842	0.0	Yes	2.933	0.0	n/a	GoodResponse	0	n/a	n/a	10	75	Fixation	AvoidedLoss	True
712.429	0.43	Lose2	0.6842	0.0	Yes	2.933	0.012	2.0	GoodResponse	0	0.331	711.76	10	75	Target	AvoidedLoss	True
712.76	0.3	Lose2	0.6842	0.0	Yes	2.933	0.012	2.0	GoodResponse	0	0.331	n/a	10	75	ButtonPress	AvoidedLoss	True
712.847	0.27	Lose2	0.6842	n/a	Yes	2.933	n/a	n/a	GoodResponse	0	n/a	n/a	10	75	Blank	AvoidedLoss	True
713.115	1.45	Lose2	0.6842	n/a	Yes	2.933	n/a	5.0	GoodResponse	0	0.027	712.142	10	75	Feedback	AvoidedLoss	True
714.569	2.933	Lose2	0.6842	n/a	Yes	2.933	n/a	n/a	GoodResponse	0	0.0	n/a	10	75	ISIslide	AvoidedLoss	True
717.528	0.25	Control	0.6753	0.0	No	3.222	0.028	n/a	NoResponse	0	n/a	n/a	10	76	Cue	Neutral	True
717.779	4.05	Control	0.6753	0.0	No	3.222	0.001	n/a	NoResponse	0	n/a	n/a	10	76	Fixation	Neutral	True
721.824	0.42	Control	0.6753	0.004	No	3.222	-0.004	2.0	NoResponse	0	0.456	721.28	10	76	Target	Neutral	True
722.259	0.28	Control	0.6753	n/a	No	3.222	n/a	n/a	NoResponse	0	n/a	n/a	10	76	Blank	Neutral	True
722.28	0.3	Control	0.6753	0.004	No	3.222	-0.004	2.0	NoResponse	0	0.456	n/a	10	76	ButtonPress	Neutral	True
722.526	1.45	Control	0.6753	n/a	No	3.222	n/a	5.0	NoResponse	0	0.031	721.557	10	76	Feedback	Neutral	True
723.98	3.222	Control	0.6753	n/a	No	3.222	n/a	n/a	NoResponse	0	0.0	n/a	10	76	ISIslide	Neutral	True
727.224	0.25	Lose2	0.6795	0.0	Yes	2.576	0.024	n/a	GoodResponse	0	n/a	n/a	10	77	Cue	AvoidedLoss	True
727.474	3.95	Lose2	0.6795	0.0	Yes	2.576	0.0	n/a	GoodResponse	0	n/a	n/a	10	77	Fixation	AvoidedLoss	True
731.436	0.41	Lose2	0.6795	0.0	Yes	2.576	0.012	2.0	GoodResponse	0	0.359	730.795	10	77	Target	AvoidedLoss	True
731.795	0.3	Lose2	0.6795	0.0	Yes	2.576	0.012	2.0	GoodResponse	0	0.359	n/a	10	77	ButtonPress	AvoidedLoss	True
731.837	0.29	Lose2	0.6795	n/a	Yes	2.576	n/a	n/a	GoodResponse	0	n/a	n/a	10	77	Blank	AvoidedLoss	True
732.122	1.45	Lose2	0.6795	n/a	Yes	2.576	n/a	5.0	GoodResponse	0	0.043	731.165	10	77	Feedback	AvoidedLoss	True
733.576	2.576	Lose2	0.6795	n/a	Yes	2.576	n/a	n/a	GoodResponse	0	0.0	n/a	10	77	ISIslide	AvoidedLoss	True
