onset	duration	cue_type	current_mean_accuracy	duration_error	is_hit	isi_adjusted	onset_delay	response	response_type	reward	rt	rt_time	total_reward	trial_number	trial_phase	trial_type	one_press
11.11	0.25	Control	1.0	0.0	Yes	2.94	0.01	n/a	GoodResponse	0	n/a	n/a	0	0	Cue	Neutral	True
11.361	3.85	Control	1.0	0.0	Yes	2.94	0.001	n/a	GoodResponse	0	n/a	n/a	0	0	Fixation	Neutral	True
15.206	0.4	Control	1.0	0.004	Yes	2.94	-0.004	4.0	GoodResponse	0	0.262	14.468	0	0	Target	Neutral	True
15.468	0.3	Control	1.0	0.004	Yes	2.94	-0.004	4.0	GoodResponse	0	0.262	n/a	0	0	ButtonPress	Neutral	True
15.607	0.3	Control	1.0	n/a	Yes	2.94	n/a	n/a	GoodResponse	0	n/a	n/a	0	0	Blank	Neutral	True
15.908	1.45	Control	1.0	n/a	Yes	2.94	n/a	5.0	GoodResponse	0	0.018	14.926	0	0	Feedback	Neutral	True
17.362	2.94	Control	1.0	n/a	Yes	2.94	n/a	n/a	GoodResponse	0	0.0	n/a	0	0	ISIslide	Neutral	True
20.321	0.25	Lose2	1.0	0.0	Yes	2.779	0.021	n/a	GoodResponse	0	n/a	n/a	0	1	Cue	AvoidedLoss	True
20.572	4.0	Lose2	1.0	0.0	Yes	2.779	0.001	n/a	GoodResponse	0	n/a	n/a	0	1	Fixation	AvoidedLoss	True
24.567	0.39	Lose2	1.0	0.004	Yes	2.779	-0.004	4.0	GoodResponse	0	0.245	23.812	0	1	Target	AvoidedLoss	True
24.812	0.3	Lose2	1.0	0.004	Yes	2.779	-0.004	4.0	GoodResponse	0	0.245	n/a	0	1	ButtonPress	AvoidedLoss	True
24.968	0.31	Lose2	1.0	n/a	Yes	2.779	n/a	n/a	GoodResponse	0	n/a	n/a	0	1	Blank	AvoidedLoss	True
25.269	1.45	Lose2	1.0	n/a	Yes	2.779	n/a	5.0	GoodResponse	0	0.023	24.292	0	1	Feedback	AvoidedLoss	True
26.724	2.779	Lose2	1.0	n/a	Yes	2.779	n/a	n/a	GoodResponse	0	0.0	n/a	0	1	ISIslide	AvoidedLoss	True
29.515	0.25	Control	1.0	0.0	Yes	2.585	0.015	n/a	GoodResponse	0	n/a	n/a	0	2	Cue	Neutral	True
29.766	4.1	Control	1.0	0.0	Yes	2.585	0.001	n/a	GoodResponse	0	n/a	n/a	0	2	Fixation	Neutral	True
33.862	0.38	Control	1.0	0.003	Yes	2.585	-0.003	4.0	GoodResponse	0	0.253	33.115	0	2	Target	Neutral	True
34.115	0.3	Control	1.0	0.003	Yes	2.585	-0.003	4.0	GoodResponse	0	0.253	n/a	0	2	ButtonPress	Neutral	True
34.246	0.32	Control	1.0	n/a	Yes	2.585	n/a	n/a	GoodResponse	0	n/a	n/a	0	2	Blank	Neutral	True
34.564	1.45	Control	1.0	n/a	Yes	2.585	n/a	5.0	GoodResponse	0	0.045	33.609	0	2	Feedback	Neutral	True
36.018	2.585	Control	1.0	n/a	Yes	2.585	n/a	n/a	GoodResponse	0	0.0	n/a	0	2	ISIslide	Neutral	True
38.626	0.25	Win2	1.0	0.0	Yes	2.824	0.026	n/a	GoodResponse	1	n/a	n/a	1	3	Cue	Win	True
38.877	3.95	Win2	1.0	0.0	Yes	2.824	0.001	n/a	GoodResponse	1	n/a	n/a	1	3	Fixation	Win	True
42.822	0.37	Win2	1.0	0.004	Yes	2.824	-0.004	4.0	GoodResponse	1	0.249	42.071	1	3	Target	Win	True
43.071	0.3	Win2	1.0	0.004	Yes	2.824	-0.004	4.0	GoodResponse	1	0.249	n/a	1	3	ButtonPress	Win	True
43.206	0.33	Win2	1.0	n/a	Yes	2.824	n/a	n/a	GoodResponse	1	n/a	n/a	1	3	Blank	Win	True
43.524	1.45	Win2	1.0	n/a	Yes	2.824	n/a	5.0	GoodResponse	1	0.012	42.536	1	3	Feedback	Win	True
44.978	2.824	Win2	1.0	n/a	Yes	2.824	n/a	n/a	GoodResponse	1	0.0	n/a	1	3	ISIslide	Win	True
47.82	0.25	Win2	1.0	0.0	Yes	3.28	0.02	n/a	GoodResponse	1	n/a	n/a	2	4	Cue	Win	True
48.071	4.0	Win2	1.0	0.0	Yes	3.28	0.001	n/a	GoodResponse	1	n/a	n/a	2	4	Fixation	Win	True
52.066	0.36	Win2	1.0	0.004	Yes	3.28	-0.004	4.0	GoodResponse	1	0.229	51.295	2	4	Target	Win	True
52.295	0.3	Win2	1.0	0.004	Yes	3.28	-0.004	4.0	GoodResponse	1	0.229	n/a	2	4	ButtonPress	Win	True
52.434	0.34	Win2	1.0	n/a	Yes	3.28	n/a	n/a	GoodResponse	1	n/a	n/a	2	4	Blank	Win	True
52.768	1.45	Win2	1.0	n/a	Yes	3.28	n/a	5.0	GoodResponse	1	0.036	51.804	2	4	Feedback	Win	True
54.223	3.28	Win2	1.0	n/a	Yes	3.28	n/a	n/a	GoodResponse	1	0.0	n/a	2	4	ISIslide	Win	True
57.516	0.25	Win2	1.0	0.0	Yes	2.784	0.016	n/a	GoodResponse	1	n/a	n/a	3	5	Cue	Win	True
57.767	4.0	Win2	1.0	0.0	Yes	2.784	0.001	n/a	GoodResponse	1	n/a	n/a	3	5	Fixation	Win	True
61.762	0.35	Win2	1.0	0.004	Yes	2.784	-0.004	4.0	GoodResponse	1	0.22	60.982	3	5	Target	Win	True
61.982	0.3	Win2	1.0	0.004	Yes	2.784	-0.004	4.0	GoodResponse	1	0.22	n/a	3	5	ButtonPress	Win	True
62.113	0.35	Win2	1.0	n/a	Yes	2.784	n/a	n/a	GoodResponse	1	n/a	n/a	3	5	Blank	Win	True
62.464	1.45	Win2	1.0	n/a	Yes	2.784	n/a	5.0	GoodResponse	1	0.047	61.511	3	5	Feedback	Win	True
63.918	2.784	Win2	1.0	n/a	Yes	2.784	n/a	n/a	GoodResponse	1	0.0	n/a	3	5	ISIslide	Win	True
66.727	0.25	Lose2	1.0	0.0	Yes	2.723	0.027	n/a	GoodResponse	0	n/a	n/a	3	6	Cue	AvoidedLoss	True
66.978	3.95	Lose2	1.0	0.0	Yes	2.723	0.001	n/a	GoodResponse	0	n/a	n/a	3	6	Fixation	AvoidedLoss	True
70.923	0.34	Lose2	1.0	0.004	Yes	2.723	-0.004	4.0	GoodResponse	0	0.219	70.142	3	6	Target	AvoidedLoss	True
71.142	0.3	Lose2	1.0	0.004	Yes	2.723	-0.004	4.0	GoodResponse	0	0.219	n/a	3	6	ButtonPress	AvoidedLoss	True
71.274	0.36	Lose2	1.0	n/a	Yes	2.723	n/a	n/a	GoodResponse	0	n/a	n/a	3	6	Blank	AvoidedLoss	True
71.625	1.45	Lose2	1.0	n/a	Yes	2.723	n/a	5.0	GoodResponse	0	0.008	70.633	3	6	Feedback	AvoidedLoss	True
73.079	2.723	Lose2	1.0	n/a	Yes	2.723	n/a	n/a	GoodResponse	0	0.0	n/a	3	6	ISIslide	AvoidedLoss	True
75.821	0.25	Lose2	1.0	0.0	Yes	4.029	0.021	n/a	GoodResponse	0	n/a	n/a	3	7	Cue	AvoidedLoss	True
76.071	4.05	Lose2	1.0	0.001	Yes	4.029	0.0	n/a	GoodResponse	0	n/a	n/a	3	7	Fixation	AvoidedLoss	True
80.117	0.33	Lose2	1.0	0.004	Yes	4.029	-0.004	4.0	GoodResponse	0	0.209	79.326	3	7	Target	AvoidedLoss	True
80.326	0.3	Lose2	1.0	0.004	Yes	4.029	-0.004	4.0	GoodResponse	0	0.209	n/a	3	7	ButtonPress	AvoidedLoss	True
80.451	0.37	Lose2	1.0	n/a	Yes	4.029	n/a	n/a	GoodResponse	0	n/a	n/a	3	7	Blank	AvoidedLoss	True
80.819	1.45	Lose2	1.0	n/a	Yes	4.029	n/a	5.0	GoodResponse	0	0.034	79.853	3	7	Feedback	AvoidedLoss	True
82.273	4.029	Lose2	1.0	n/a	Yes	4.029	n/a	n/a	GoodResponse	0	0.0	n/a	3	7	ISIslide	AvoidedLoss	True
86.319	0.25	Lose2	1.0	0.0	Yes	3.031	0.019	n/a	GoodResponse	0	n/a	n/a	3	8	Cue	AvoidedLoss	True
86.57	3.95	Lose2	1.0	0.0	Yes	3.031	0.001	n/a	GoodResponse	0	n/a	n/a	3	8	Fixation	AvoidedLoss	True
90.515	0.32	Lose2	1.0	0.004	Yes	3.031	-0.004	4.0	GoodResponse	0	0.213	89.728	3	8	Target	AvoidedLoss	True
90.728	0.3	Lose2	1.0	0.004	Yes	3.031	-0.004	4.0	GoodResponse	0	0.213	n/a	3	8	ButtonPress	AvoidedLoss	True
90.849	0.38	Lose2	1.0	n/a	Yes	3.031	n/a	n/a	GoodResponse	0	n/a	n/a	3	8	Blank	AvoidedLoss	True
91.217	1.45	Lose2	1.0	n/a	Yes	3.031	n/a	5.0	GoodResponse	0	0.026	90.243	3	8	Feedback	AvoidedLoss	True
92.671	3.031	Lose2	1.0	n/a	Yes	3.031	n/a	n/a	GoodResponse	0	0.0	n/a	3	8	ISIslide	AvoidedLoss	True
95.73	0.25	Lose2	1.0	0.0	Yes	3.12	0.03	n/a	GoodResponse	0	n/a	n/a	3	9	Cue	AvoidedLoss	True
95.981	3.95	Lose2	1.0	0.0	Yes	3.12	0.001	n/a	GoodResponse	0	n/a	n/a	3	9	Fixation	AvoidedLoss	True
99.926	0.31	Lose2	1.0	0.004	Yes	3.12	-0.004	4.0	GoodResponse	0	0.207	99.133	3	9	Target	AvoidedLoss	True
100.133	0.3	Lose2	1.0	0.004	Yes	3.12	-0.004	4.0	GoodResponse	0	0.207	n/a	3	9	ButtonPress	AvoidedLoss	True
100.244	0.39	Lose2	1.0	n/a	Yes	3.12	n/a	n/a	GoodResponse	0	n/a	n/a	3	9	Blank	AvoidedLoss	True
100.628	1.45	Lose2	1.0	n/a	Yes	3.12	n/a	5.0	GoodResponse	0	0.03	99.658	3	9	Feedback	AvoidedLoss	True
102.083	3.12	Lose2	1.0	n/a	Yes	3.12	n/a	n/a	GoodResponse	0	0.0	n/a	3	9	ISIslide	AvoidedLoss	True
105.225	0.25	Control	1.0	0.001	Yes	3.275	0.025	n/a	GoodResponse	0	n/a	n/a	3	10	Cue	Neutral	True
105.476	4.0	Control	1.0	0.0	Yes	3.275	0.001	n/a	GoodResponse	0	n/a	n/a	3	10	Fixation	Neutral	True
109.472	0.3	Control	1.0	0.003	Yes	3.275	-0.003	4.0	GoodResponse	0	0.234	108.706	3	10	Target	Neutral	True
109.706	0.3	Control	1.0	0.003	Yes	3.275	-0.003	4.0	GoodResponse	0	0.234	n/a	3	10	ButtonPress	Neutral	True
109.772	0.4	Control	1.0	n/a	Yes	3.275	n/a	n/a	GoodResponse	0	n/a	n/a	3	10	Blank	Neutral	True
110.174	1.45	Control	1.0	n/a	Yes	3.275	n/a	5.0	GoodResponse	0	0.044	109.218	3	10	Feedback	Neutral	True
111.628	3.275	Control	1.0	n/a	Yes	3.275	n/a	n/a	GoodResponse	0	0.0	n/a	3	10	ISIslide	Neutral	True
114.921	0.25	Lose2	1.0	0.0	Yes	2.729	0.021	n/a	GoodResponse	0	n/a	n/a	3	11	Cue	AvoidedLoss	True
115.172	4.05	Lose2	1.0	0.0	Yes	2.729	0.001	n/a	GoodResponse	0	n/a	n/a	3	11	Fixation	AvoidedLoss	True
119.217	0.29	Lose2	1.0	0.004	Yes	2.729	-0.004	4.0	GoodResponse	0	0.214	118.431	3	11	Target	AvoidedLoss	True
119.431	0.3	Lose2	1.0	0.004	Yes	2.729	-0.004	4.0	GoodResponse	0	0.214	n/a	3	11	ButtonPress	AvoidedLoss	True
119.518	0.41	Lose2	1.0	n/a	Yes	2.729	n/a	n/a	GoodResponse	0	n/a	n/a	3	11	Blank	AvoidedLoss	True
119.92	1.45	Lose2	1.0	n/a	Yes	2.729	n/a	5.0	GoodResponse	0	0.006	118.926	3	11	Feedback	AvoidedLoss	True
121.374	2.729	Lose2	1.0	n/a	Yes	2.729	n/a	n/a	GoodResponse	0	0.0	n/a	3	11	ISIslide	AvoidedLoss	True
124.115	0.25	Control	1.0	0.0	Yes	2.985	0.015	n/a	GoodResponse	0	n/a	n/a	3	12	Cue	Neutral	True
124.366	3.9	Control	1.0	0.0	Yes	2.985	0.001	n/a	GoodResponse	0	n/a	n/a	3	12	Fixation	Neutral	True
128.261	0.28	Control	1.0	0.004	Yes	2.985	-0.004	4.0	GoodResponse	0	0.236	127.497	3	12	Target	Neutral	True
128.497	0.3	Control	1.0	0.004	Yes	2.985	-0.004	4.0	GoodResponse	0	0.236	n/a	3	12	ButtonPress	Neutral	True
128.545	0.42	Control	1.0	n/a	Yes	2.985	n/a	n/a	GoodResponse	0	n/a	n/a	3	12	Blank	Neutral	True
128.963	1.45	Control	1.0	n/a	Yes	2.985	n/a	5.0	GoodResponse	0	0.036	127.999	3	12	Feedback	Neutral	True
130.418	2.985	Control	1.0	n/a	Yes	2.985	n/a	n/a	GoodResponse	0	0.0	n/a	3	12	ISIslide	Neutral	True
133.427	0.25	Control	1.0	0.0	Yes	2.773	0.027	n/a	GoodResponse	0	n/a	n/a	3	13	Cue	Neutral	True
133.677	4.0	Control	1.0	0.0	Yes	2.773	0.0	n/a	GoodResponse	0	n/a	n/a	3	13	Fixation	Neutral	True
137.673	0.27	Control	1.0	0.004	Yes	2.773	-0.004	4.0	GoodResponse	0	0.239	136.912	3	13	Target	Neutral	True
137.912	0.3	Control	1.0	0.004	Yes	2.773	-0.004	4.0	GoodResponse	0	0.239	n/a	3	13	ButtonPress	Neutral	True
137.957	0.43	Control	1.0	n/a	Yes	2.773	n/a	n/a	GoodResponse	0	n/a	n/a	3	13	Blank	Neutral	True
138.375	1.45	Control	1.0	n/a	Yes	2.773	n/a	5.0	GoodResponse	0	0.038	137.413	3	13	Feedback	Neutral	True
139.829	2.773	Control	1.0	n/a	Yes	2.773	n/a	n/a	GoodResponse	0	0.0	n/a	3	13	ISIslide	Neutral	True
142.621	0.25	Win2	1.0	0.0	Yes	2.679	0.021	n/a	GoodResponse	1	n/a	n/a	4	14	Cue	Win	True
142.872	4.1	Win2	1.0	0.0	Yes	2.679	0.001	n/a	GoodResponse	1	n/a	n/a	4	14	Fixation	Win	True
146.967	0.26	Win2	1.0	0.004	Yes	2.679	-0.004	4.0	GoodResponse	1	0.216	146.183	4	14	Target	Win	True
147.183	0.3	Win2	1.0	0.004	Yes	2.679	-0.004	4.0	GoodResponse	1	0.216	n/a	4	14	ButtonPress	Win	True
147.235	0.44	Win2	1.0	n/a	Yes	2.679	n/a	n/a	GoodResponse	1	n/a	n/a	4	14	Blank	Win	True
147.669	1.45	Win2	1.0	n/a	Yes	2.679	n/a	5.0	GoodResponse	1	0.013	146.682	4	14	Feedback	Win	True
149.124	2.679	Win2	1.0	n/a	Yes	2.679	n/a	n/a	GoodResponse	1	0.0	n/a	4	14	ISIslide	Win	True
151.815	0.25	Control	1.0	0.0	Yes	2.985	0.015	n/a	GoodResponse	0	n/a	n/a	4	15	Cue	Neutral	True
152.066	4.0	Control	1.0	0.0	Yes	2.985	0.001	n/a	GoodResponse	0	n/a	n/a	4	15	Fixation	Neutral	True
156.061	0.25	Control	1.0	0.004	Yes	2.985	-0.004	4.0	GoodResponse	0	0.228	155.289	4	15	Target	Neutral	True
156.289	0.3	Control	1.0	0.004	Yes	2.985	-0.004	4.0	GoodResponse	0	0.228	n/a	4	15	ButtonPress	Neutral	True
156.312	0.45	Control	1.0	n/a	Yes	2.985	n/a	n/a	GoodResponse	0	n/a	n/a	4	15	Blank	Neutral	True
156.763	1.45	Control	1.0	n/a	Yes	2.985	n/a	5.0	GoodResponse	0	0.041	155.804	4	15	Feedback	Neutral	True
158.218	2.985	Control	1.0	n/a	Yes	2.985	n/a	n/a	GoodResponse	0	0.0	n/a	4	15	ISIslide	Neutral	True
161.227	0.25	Win2	1.0	0.0	Yes	2.873	0.027	n/a	GoodResponse	1	n/a	n/a	5	16	Cue	Win	True
161.477	4.0	Win2	1.0	0.0	Yes	2.873	0.0	n/a	GoodResponse	1	n/a	n/a	5	16	Fixation	Win	True
165.473	0.24	Win2	1.0	0.004	Yes	2.873	-0.004	4.0	GoodResponse	1	0.201	164.674	5	16	Target	Win	True
165.674	0.3	Win2	1.0	0.004	Yes	2.873	-0.004	4.0	GoodResponse	1	0.201	n/a	5	16	ButtonPress	Win	True
165.723	0.46	Win2	1.0	n/a	Yes	2.873	n/a	n/a	GoodResponse	1	n/a	n/a	5	16	Blank	Win	True
166.175	1.45	Win2	1.0	n/a	Yes	2.873	n/a	5.0	GoodResponse	1	0.043	165.218	5	16	Feedback	Win	True
167.629	2.873	Win2	1.0	n/a	Yes	2.873	n/a	n/a	GoodResponse	1	0.0	n/a	5	16	ISIslide	Win	True
170.521	0.25	Lose2	1.0	0.0	Yes	2.729	0.021	n/a	GoodResponse	0	n/a	n/a	5	17	Cue	AvoidedLoss	True
170.772	3.95	Lose2	1.0	0.0	Yes	2.729	0.001	n/a	GoodResponse	0	n/a	n/a	5	17	Fixation	AvoidedLoss	True
174.717	0.23	Lose2	1.0	0.004	Yes	2.729	-0.004	4.0	GoodResponse	0	0.22	173.937	5	17	Target	AvoidedLoss	True
174.937	0.3	Lose2	1.0	0.004	Yes	2.729	-0.004	4.0	GoodResponse	0	0.22	n/a	5	17	ButtonPress	AvoidedLoss	True
174.951	0.47	Lose2	1.0	n/a	Yes	2.729	n/a	n/a	GoodResponse	0	n/a	n/a	5	17	Blank	AvoidedLoss	True
175.419	1.45	Lose2	1.0	n/a	Yes	2.729	n/a	5.0	GoodResponse	0	0.018	174.437	5	17	Feedback	AvoidedLoss	True
176.874	2.729	Lose2	1.0	n/a	Yes	2.729	n/a	n/a	GoodResponse	0	0.0	n/a	5	17	ISIslide	AvoidedLoss	True
179.615	0.25	Lose2	0.9473999999999999	0.0	No	2.735	0.015	n/a	NoResponse	-1	n/a	n/a	4	18	Cue	Loss	True
179.866	4.05	Lose2	0.9473999999999999	0.0	No	2.735	0.001	n/a	NoResponse	-1	n/a	n/a	4	18	Fixation	Loss	True
183.911	0.22	Lose2	0.9473999999999999	0.004	No	2.735	-0.004	4.0	NoResponse	-1	0.259	183.17	4	18	Target	Loss	True
184.145	0.48	Lose2	0.9473999999999999	n/a	No	2.735	n/a	n/a	NoResponse	-1	n/a	n/a	4	18	Blank	Loss	True
184.17	0.3	Lose2	0.9473999999999999	0.004	No	2.735	-0.004	4.0	NoResponse	-1	0.259	n/a	4	18	ButtonPress	Loss	True
184.613	1.45	Lose2	0.9473999999999999	n/a	No	2.735	n/a	5.0	NoResponse	-1	0.044	183.657	4	18	Feedback	Loss	True
186.068	2.735	Lose2	0.9473999999999999	n/a	No	2.735	n/a	n/a	NoResponse	-1	0.0	n/a	4	18	ISIslide	Loss	True
188.826	0.25	Control	0.9	0.0	No	2.924	0.026	n/a	LatePress	0	n/a	n/a	4	19	Cue	Neutral	True
189.077	3.95	Control	0.9	0.0	No	2.924	0.001	n/a	LatePress	0	n/a	n/a	4	19	Fixation	Neutral	True
193.022	0.21	Control	0.9	0.004	No	2.924	-0.004	4.0	LatePress	0	0.21	192.232	4	19	Target	Neutral	True
193.232	0.3	Control	0.9	0.004	No	2.924	-0.004	4.0	LatePress	0	0.21	n/a	4	19	ButtonPress	Neutral	True
193.239	0.49	Control	0.9	n/a	No	2.924	n/a	n/a	LatePress	0	n/a	n/a	4	19	Blank	Neutral	True
193.724	1.45	Control	0.9	n/a	No	2.924	n/a	5.0	LatePress	0	0.007	192.731	4	19	Feedback	Neutral	True
195.178	2.924	Control	0.9	n/a	No	2.924	n/a	n/a	LatePress	0	0.0	n/a	4	19	ISIslide	Neutral	True
198.12	0.25	Control	0.8571	0.001	No	2.63	0.02	n/a	NoResponse	0	n/a	n/a	4	20	Cue	Neutral	True
198.371	4.05	Control	0.8571	0.0	No	2.63	0.001	n/a	NoResponse	0	n/a	n/a	4	20	Fixation	Neutral	True
202.417	0.2	Control	0.8571	0.003	No	2.63	-0.003	4.0	NoResponse	0	0.212	201.629	4	20	Target	Neutral	True
202.617	0.5	Control	0.8571	n/a	No	2.63	n/a	n/a	NoResponse	0	n/a	n/a	4	20	Blank	Neutral	True
202.629	0.3	Control	0.8571	0.003	No	2.63	-0.003	4.0	NoResponse	0	0.212	n/a	4	20	ButtonPress	Neutral	True
203.119	1.45	Control	0.8571	n/a	No	2.63	n/a	5.0	NoResponse	0	0.026	202.145	4	20	Feedback	Neutral	True
204.573	2.63	Control	0.8571	n/a	No	2.63	n/a	n/a	NoResponse	0	0.0	n/a	4	20	ISIslide	Neutral	True
207.214	0.25	Control	0.8181999999999999	0.001	No	2.786	0.014	n/a	NoResponse	0	n/a	n/a	4	21	Cue	Neutral	True
207.465	4.1	Control	0.8181999999999999	0.0	No	2.786	0.001	n/a	NoResponse	0	n/a	n/a	4	21	Fixation	Neutral	True
211.561	0.19	Control	0.8181999999999999	0.003	No	2.786	-0.003	4.0	NoResponse	0	0.211	210.772	4	21	Target	Neutral	True
211.761	0.51	Control	0.8181999999999999	n/a	No	2.786	n/a	n/a	NoResponse	0	n/a	n/a	4	21	Blank	Neutral	True
211.772	0.3	Control	0.8181999999999999	0.003	No	2.786	-0.003	4.0	NoResponse	0	0.211	n/a	4	21	ButtonPress	Neutral	True
212.263	1.45	Control	0.8181999999999999	n/a	No	2.786	n/a	5.0	NoResponse	0	0.005	211.268	4	21	Feedback	Neutral	True
213.717	2.786	Control	0.8181999999999999	n/a	No	2.786	n/a	n/a	NoResponse	0	0.0	n/a	4	21	ISIslide	Neutral	True
216.526	0.25	Control	0.8261	0.0	Yes	2.774	0.026	n/a	GoodResponse	0	n/a	n/a	4	22	Cue	Neutral	True
216.776	4.0	Control	0.8261	0.0	Yes	2.774	0.0	n/a	GoodResponse	0	n/a	n/a	4	22	Fixation	Neutral	True
220.772	0.18	Control	0.8261	0.004	Yes	2.774	-0.004	4.0	GoodResponse	0	0.169	219.941	4	22	Target	Neutral	True
220.941	0.3	Control	0.8261	0.004	Yes	2.774	-0.004	4.0	GoodResponse	0	0.169	n/a	4	22	ButtonPress	Neutral	True
220.956	0.52	Control	0.8261	n/a	Yes	2.774	n/a	n/a	GoodResponse	0	n/a	n/a	4	22	Blank	Neutral	True
221.474	1.45	Control	0.8261	n/a	Yes	2.774	n/a	5.0	GoodResponse	0	0.013	220.487	4	22	Feedback	Neutral	True
222.928	2.774	Control	0.8261	n/a	Yes	2.774	n/a	n/a	GoodResponse	0	0.0	n/a	4	22	ISIslide	Neutral	True
225.72	0.25	Control	0.8332999999999999	0.0	Yes	2.78	0.02	n/a	GoodResponse	0	n/a	n/a	4	23	Cue	Neutral	True
225.971	3.9	Control	0.8332999999999999	0.0	Yes	2.78	0.001	n/a	GoodResponse	0	n/a	n/a	4	23	Fixation	Neutral	True
229.866	0.17	Control	0.8332999999999999	0.004	Yes	2.78	-0.004	4.0	GoodResponse	0	0.169	229.035	4	23	Target	Neutral	True
230.035	0.3	Control	0.8332999999999999	0.004	Yes	2.78	-0.004	4.0	GoodResponse	0	0.169	n/a	4	23	ButtonPress	Neutral	True
230.049	0.53	Control	0.8332999999999999	n/a	Yes	2.78	n/a	n/a	GoodResponse	0	n/a	n/a	4	23	Blank	Neutral	True
230.568	1.45	Control	0.8332999999999999	n/a	Yes	2.78	n/a	5.0	GoodResponse	0	0.04	229.608	4	23	Feedback	Neutral	True
232.022	2.78	Control	0.8332999999999999	n/a	Yes	2.78	n/a	n/a	GoodResponse	0	0.0	n/a	4	23	ISIslide	Neutral	True
234.831	0.25	Win2	0.8	0.0	No	3.119	0.031	n/a	NoResponse	0	n/a	n/a	4	24	Cue	MissedWin	True
235.081	3.95	Win2	0.8	0.0	No	3.119	0.0	n/a	NoResponse	0	n/a	n/a	4	24	Fixation	MissedWin	True
239.043	0.16	Win2	0.8	0.0	No	3.119	0.012	4.0	NoResponse	0	0.182	238.225	4	24	Target	MissedWin	True
239.194	0.54	Win2	0.8	n/a	No	3.119	n/a	n/a	NoResponse	0	n/a	n/a	4	24	Blank	MissedWin	True
239.225	0.3	Win2	0.8	0.0	No	3.119	0.012	4.0	NoResponse	0	0.182	n/a	4	24	ButtonPress	MissedWin	True
239.729	1.45	Win2	0.8	n/a	No	3.119	n/a	5.0	NoResponse	0	0.001	238.73	4	24	Feedback	MissedWin	True
241.183	3.119	Win2	0.8	n/a	No	3.119	n/a	n/a	NoResponse	0	0.0	n/a	4	24	ISIslide	MissedWin	True
244.326	0.25	Win2	0.7692	0.0	No	3.074	0.026	n/a	NoResponse	0	n/a	n/a	4	25	Cue	MissedWin	False
244.576	4.0	Win2	0.7692	0.0	No	3.074	0.0	4.0	NoResponse	0	3.477	247.053	4	25	Fixation	MissedWin	False
248.053	0.3	Win2	0.7692	0.0	No	3.074	0.0	4.0	NoResponse	0	3.477	n/a	4	25	ButtonPress	MissedWin	False
248.572	0.15	Win2	0.7692	0.004	No	3.074	-0.004	4.0	NoResponse	0	0.294	247.866	4	25	Target	MissedWin	False
248.722	0.55	Win2	0.7692	n/a	No	3.074	n/a	n/a	NoResponse	0	n/a	n/a	4	25	Blank	MissedWin	False
248.866	0.3	Win2	0.7692	0.004	No	3.074	-0.004	4.0	NoResponse	0	0.294	n/a	4	25	ButtonPress	MissedWin	False
249.274	1.45	Win2	0.7692	n/a	No	3.074	n/a	5.0	NoResponse	0	0.017	248.291	4	25	Feedback	MissedWin	False
250.728	3.074	Win2	0.7692	n/a	No	3.074	n/a	n/a	NoResponse	0	0.0	n/a	4	25	ISIslide	MissedWin	False
253.821	0.25	Win2	0.7406999999999999	0.0	No	2.929	0.021	n/a	NoResponse	0	n/a	n/a	4	26	Cue	MissedWin	True
254.071	3.95	Win2	0.7406999999999999	0.001	No	2.929	0.0	n/a	NoResponse	0	n/a	n/a	4	26	Fixation	MissedWin	True
258.017	0.15	Win2	0.7406999999999999	0.004	No	2.929	-0.004	4.0	NoResponse	0	0.21	257.227	4	26	Target	MissedWin	True
258.167	0.55	Win2	0.7406999999999999	n/a	No	2.929	n/a	n/a	NoResponse	0	n/a	n/a	4	26	Blank	MissedWin	True
258.227	0.3	Win2	0.7406999999999999	0.004	No	2.929	-0.004	4.0	NoResponse	0	0.21	n/a	4	26	ButtonPress	MissedWin	True
258.719	1.45	Win2	0.7406999999999999	n/a	No	2.929	n/a	5.0	NoResponse	0	0.035	257.754	4	26	Feedback	MissedWin	True
260.173	2.929	Win2	0.7406999999999999	n/a	No	2.929	n/a	n/a	NoResponse	0	0.0	n/a	4	26	ISIslide	MissedWin	True
263.115	0.25	Lose2	0.7143	0.0	No	2.835	0.015	n/a	NoResponse	-1	n/a	n/a	3	27	Cue	Loss	True
263.366	4.05	Lose2	0.7143	0.0	No	2.835	0.001	4.0	NoResponse	-1	3.94	266.306	3	27	Fixation	Loss	True
267.306	0.3	Lose2	0.7143	0.0	No	2.835	0.001	4.0	NoResponse	-1	3.94	n/a	3	27	ButtonPress	Loss	True
267.411	0.15	Lose2	0.7143	0.004	No	2.835	-0.004	n/a	NoResponse	-1	n/a	n/a	3	27	Target	Loss	True
267.562	0.55	Lose2	0.7143	n/a	No	2.835	n/a	n/a	NoResponse	-1	n/a	n/a	3	27	Blank	Loss	True
268.114	1.45	Lose2	0.7143	n/a	No	2.835	n/a	5.0	NoResponse	-1	0.006	267.12	3	27	Feedback	Loss	True
269.568	2.835	Lose2	0.7143	n/a	No	2.835	n/a	n/a	NoResponse	-1	0.0	n/a	3	27	ISIslide	Loss	True
272.426	0.25	Control	0.6897	0.001	No	2.824	0.026	n/a	NoResponse	0	n/a	n/a	3	28	Cue	Neutral	True
272.677	4.05	Control	0.6897	0.0	No	2.824	0.001	n/a	NoResponse	0	n/a	n/a	3	28	Fixation	Neutral	True
276.723	0.15	Control	0.6897	0.003	No	2.824	-0.003	4.0	NoResponse	0	0.228	275.951	3	28	Target	Neutral	True
276.873	0.55	Control	0.6897	n/a	No	2.824	n/a	n/a	NoResponse	0	n/a	n/a	3	28	Blank	Neutral	True
276.951	0.3	Control	0.6897	0.003	No	2.824	-0.003	4.0	NoResponse	0	0.228	n/a	3	28	ButtonPress	Neutral	True
277.425	1.45	Control	0.6897	n/a	No	2.824	n/a	5.0	NoResponse	0	0.012	276.437	3	28	Feedback	Neutral	True
278.879	2.824	Control	0.6897	n/a	No	2.824	n/a	n/a	NoResponse	0	0.0	n/a	3	28	ISIslide	Neutral	True
281.721	0.25	Lose2	0.6667000000000001	0.0	No	2.829	0.021	n/a	NoResponse	-1	n/a	n/a	2	29	Cue	Loss	True
281.972	3.95	Lose2	0.6667000000000001	0.0	No	2.829	0.001	n/a	NoResponse	-1	n/a	n/a	2	29	Fixation	Loss	True
285.917	0.15	Lose2	0.6667000000000001	0.004	No	2.829	-0.004	4.0	NoResponse	-1	0.2	285.117	2	29	Target	Loss	True
286.067	0.55	Lose2	0.6667000000000001	n/a	No	2.829	n/a	n/a	NoResponse	-1	n/a	n/a	2	29	Blank	Loss	True
286.117	0.3	Lose2	0.6667000000000001	0.004	No	2.829	-0.004	4.0	NoResponse	-1	0.2	n/a	2	29	ButtonPress	Loss	True
286.619	1.45	Lose2	0.6667000000000001	n/a	No	2.829	n/a	5.0	NoResponse	-1	0.037	285.656	2	29	Feedback	Loss	True
288.073	2.829	Lose2	0.6667000000000001	n/a	No	2.829	n/a	n/a	NoResponse	-1	0.0	n/a	2	29	ISIslide	Loss	True
290.915	0.25	Win2	0.6452	0.0	No	2.785	0.015	n/a	NoResponse	0	n/a	n/a	2	30	Cue	MissedWin	True
291.166	3.9	Win2	0.6452	0.0	No	2.785	0.001	n/a	NoResponse	0	n/a	n/a	2	30	Fixation	MissedWin	True
295.061	0.15	Win2	0.6452	0.004	No	2.785	-0.004	4.0	NoResponse	0	0.24	294.301	2	30	Target	MissedWin	True
295.211	0.55	Win2	0.6452	n/a	No	2.785	n/a	n/a	NoResponse	0	n/a	n/a	2	30	Blank	MissedWin	True
295.301	0.3	Win2	0.6452	0.004	No	2.785	-0.004	4.0	NoResponse	0	0.24	n/a	2	30	ButtonPress	MissedWin	True
295.763	1.45	Win2	0.6452	n/a	No	2.785	n/a	5.0	NoResponse	0	0.015	294.778	2	30	Feedback	MissedWin	True
297.217	2.785	Win2	0.6452	n/a	No	2.785	n/a	n/a	NoResponse	0	0.0	n/a	2	30	ISIslide	MissedWin	True
300.026	0.25	Lose2	0.625	0.0	No	2.824	0.026	n/a	NoResponse	-1	n/a	n/a	1	31	Cue	Loss	True
300.277	4.05	Lose2	0.625	0.0	No	2.824	0.001	n/a	NoResponse	-1	n/a	n/a	1	31	Fixation	Loss	True
304.322	0.16	Lose2	0.625	0.004	No	2.824	-0.004	4.0	NoResponse	-1	0.214	303.536	1	31	Target	Loss	True
304.489	0.54	Lose2	0.625	n/a	No	2.824	n/a	n/a	NoResponse	-1	n/a	n/a	1	31	Blank	Loss	True
304.536	0.3	Lose2	0.625	0.004	No	2.824	-0.004	4.0	NoResponse	-1	0.214	n/a	1	31	ButtonPress	Loss	True
305.024	1.45	Lose2	0.625	n/a	No	2.824	n/a	5.0	NoResponse	-1	0.022	304.046	1	31	Feedback	Loss	True
306.479	2.824	Lose2	0.625	n/a	No	2.824	n/a	n/a	NoResponse	-1	0.0	n/a	1	31	ISIslide	Loss	True
309.32	0.25	Lose2	0.6061	0.0	No	2.63	0.02	n/a	NoResponse	-1	n/a	n/a	0	32	Cue	Loss	True
309.571	4.15	Lose2	0.6061	0.0	No	2.63	0.001	n/a	NoResponse	-1	n/a	n/a	0	32	Fixation	Loss	True
313.717	0.17	Lose2	0.6061	0.003	No	2.63	-0.003	4.0	NoResponse	-1	0.191	312.908	0	32	Target	Loss	True
313.901	0.53	Lose2	0.6061	n/a	No	2.63	n/a	n/a	NoResponse	-1	n/a	n/a	0	32	Blank	Loss	True
313.908	0.3	Lose2	0.6061	0.003	No	2.63	-0.003	4.0	NoResponse	-1	0.191	n/a	0	32	ButtonPress	Loss	True
314.419	1.45	Lose2	0.6061	n/a	No	2.63	n/a	5.0	NoResponse	-1	0.042	313.461	0	32	Feedback	Loss	True
315.873	2.63	Lose2	0.6061	n/a	No	2.63	n/a	n/a	NoResponse	-1	0.0	n/a	0	32	ISIslide	Loss	True
318.531	0.25	Win2	0.5882000000000001	0.0	No	2.669	0.031	n/a	NoResponse	0	n/a	n/a	0	33	Cue	MissedWin	True
318.782	4.0	Win2	0.5882000000000001	0.0	No	2.669	0.001	n/a	NoResponse	0	n/a	n/a	0	33	Fixation	MissedWin	True
322.777	0.18	Win2	0.5882000000000001	0.004	No	2.669	-0.004	4.0	NoResponse	0	0.199	321.976	0	33	Target	MissedWin	True
322.961	0.52	Win2	0.5882000000000001	n/a	No	2.669	n/a	n/a	NoResponse	0	n/a	n/a	0	33	Blank	MissedWin	True
322.976	0.3	Win2	0.5882000000000001	0.004	No	2.669	-0.004	4.0	NoResponse	0	0.199	n/a	0	33	ButtonPress	MissedWin	True
323.479	1.45	Win2	0.5882000000000001	n/a	No	2.669	n/a	5.0	NoResponse	0	0.007	322.486	0	33	Feedback	MissedWin	True
324.934	2.669	Win2	0.5882000000000001	n/a	No	2.669	n/a	n/a	NoResponse	0	0.0	n/a	0	33	ISIslide	MissedWin	True
327.625	0.25	Lose2	0.5714	0.0	No	2.625	0.025	n/a	NoResponse	-1	n/a	n/a	-1	34	Cue	Loss	True
327.876	4.05	Lose2	0.5714	0.0	No	2.625	0.001	4.0	NoResponse	-1	3.507	330.383	-1	34	Fixation	Loss	True
331.383	0.3	Lose2	0.5714	0.0	No	2.625	0.001	4.0	NoResponse	-1	3.507	n/a	-1	34	ButtonPress	Loss	True
331.921	0.19	Lose2	0.5714	0.004	No	2.625	-0.004	n/a	NoResponse	-1	n/a	n/a	-1	34	Target	Loss	True
332.122	0.51	Lose2	0.5714	n/a	No	2.625	n/a	n/a	NoResponse	-1	n/a	n/a	-1	34	Blank	Loss	True
332.624	1.45	Lose2	0.5714	n/a	No	2.625	n/a	5.0	NoResponse	-1	0.032	331.656	-1	34	Feedback	Loss	True
334.078	2.625	Lose2	0.5714	n/a	No	2.625	n/a	n/a	NoResponse	-1	0.0	n/a	-1	34	ISIslide	Loss	True
336.719	0.25	Lose2	0.5556	0.0	No	2.681	0.019	n/a	NoResponse	-1	n/a	n/a	-2	35	Cue	Loss	True
336.97	4.0	Lose2	0.5556	0.0	No	2.681	0.001	n/a	NoResponse	-1	n/a	n/a	-2	35	Fixation	Loss	True
340.965	0.2	Lose2	0.5556	0.004	No	2.681	-0.004	4.0	NoResponse	-1	0.219	340.184	-2	35	Target	Loss	True
341.166	0.5	Lose2	0.5556	n/a	No	2.681	n/a	n/a	NoResponse	-1	n/a	n/a	-2	35	Blank	Loss	True
341.184	0.3	Lose2	0.5556	0.004	No	2.681	-0.004	4.0	NoResponse	-1	0.219	n/a	-2	35	ButtonPress	Loss	True
341.667	1.45	Lose2	0.5556	n/a	No	2.681	n/a	5.0	NoResponse	-1	0.014	340.681	-2	35	Feedback	Loss	True
343.122	2.681	Lose2	0.5556	n/a	No	2.681	n/a	n/a	NoResponse	-1	0.0	n/a	-2	35	ISIslide	Loss	True
345.83	0.25	Control	0.5676	0.0	Yes	2.67	0.03	n/a	GoodResponse	0	n/a	n/a	-2	36	Cue	Neutral	True
346.081	4.0	Control	0.5676	0.0	Yes	2.67	0.001	n/a	GoodResponse	0	n/a	n/a	-2	36	Fixation	Neutral	True
350.076	0.21	Control	0.5676	0.004	Yes	2.67	-0.004	4.0	GoodResponse	0	0.199	349.275	-2	36	Target	Neutral	True
350.275	0.3	Control	0.5676	0.004	Yes	2.67	-0.004	4.0	GoodResponse	0	0.199	n/a	-2	36	ButtonPress	Neutral	True
350.293	0.49	Control	0.5676	n/a	Yes	2.67	n/a	n/a	GoodResponse	0	n/a	n/a	-2	36	Blank	Neutral	True
350.778	1.45	Control	0.5676	n/a	Yes	2.67	n/a	5.0	GoodResponse	0	0.024	349.802	-2	36	Feedback	Neutral	True
352.232	2.67	Control	0.5676	n/a	Yes	2.67	n/a	n/a	GoodResponse	0	0.0	n/a	-2	36	ISIslide	Neutral	True
354.924	0.25	Win2	0.5789	0.0	Yes	2.876	0.024	n/a	GoodResponse	1	n/a	n/a	-1	37	Cue	Win	True
355.174	4.0	Win2	0.5789	0.0	Yes	2.876	0.0	n/a	GoodResponse	1	n/a	n/a	-1	37	Fixation	Win	True
359.17	0.22	Win2	0.5789	0.004	Yes	2.876	-0.004	4.0	GoodResponse	1	0.208	358.378	-1	37	Target	Win	True
359.378	0.3	Win2	0.5789	0.004	Yes	2.876	-0.004	4.0	GoodResponse	1	0.208	n/a	-1	37	ButtonPress	Win	True
359.404	0.48	Win2	0.5789	n/a	Yes	2.876	n/a	n/a	GoodResponse	1	n/a	n/a	-1	37	Blank	Win	True
359.872	1.45	Win2	0.5789	n/a	Yes	2.876	n/a	5.0	GoodResponse	1	0.007	358.879	-1	37	Feedback	Win	True
361.326	2.876	Win2	0.5789	n/a	Yes	2.876	n/a	n/a	GoodResponse	1	0.0	n/a	-1	37	ISIslide	Win	True
364.218	0.25	Lose2	0.5897	0.0	Yes	2.832	0.018	n/a	GoodResponse	0	n/a	n/a	-1	38	Cue	AvoidedLoss	True
364.469	3.95	Lose2	0.5897	0.0	Yes	2.832	0.001	n/a	GoodResponse	0	n/a	n/a	-1	38	Fixation	AvoidedLoss	True
368.414	0.23	Lose2	0.5897	0.004	Yes	2.832	-0.004	4.0	GoodResponse	0	0.208	367.622	-1	38	Target	AvoidedLoss	True
368.622	0.3	Lose2	0.5897	0.004	Yes	2.832	-0.004	4.0	GoodResponse	0	0.208	n/a	-1	38	ButtonPress	AvoidedLoss	True
368.648	0.47	Lose2	0.5897	n/a	Yes	2.832	n/a	n/a	GoodResponse	0	n/a	n/a	-1	38	Blank	AvoidedLoss	True
369.116	1.45	Lose2	0.5897	n/a	Yes	2.832	n/a	5.0	GoodResponse	0	0.028	368.144	-1	38	Feedback	AvoidedLoss	True
370.571	2.832	Lose2	0.5897	n/a	Yes	2.832	n/a	n/a	GoodResponse	0	0.0	n/a	-1	38	ISIslide	AvoidedLoss	True
373.429	0.25	Win2	0.6	0.0	Yes	2.971	0.029	n/a	GoodResponse	1	n/a	n/a	0	39	Cue	Win	True
373.68	4.1	Win2	0.6	0.0	Yes	2.971	0.001	n/a	GoodResponse	1	n/a	n/a	0	39	Fixation	Win	True
377.775	0.24	Win2	0.6	0.004	Yes	2.971	-0.004	4.0	GoodResponse	1	0.195	376.97	0	39	Target	Win	True
377.97	0.3	Win2	0.6	0.004	Yes	2.971	-0.004	4.0	GoodResponse	1	0.195	n/a	0	39	ButtonPress	Win	True
378.026	0.46	Win2	0.6	n/a	Yes	2.971	n/a	n/a	GoodResponse	1	n/a	n/a	0	39	Blank	Win	True
378.478	1.45	Win2	0.6	n/a	Yes	2.971	n/a	5.0	GoodResponse	1	0.032	377.51	0	39	Feedback	Win	True
379.932	2.971	Win2	0.6	n/a	Yes	2.971	n/a	n/a	GoodResponse	1	0.0	n/a	0	39	ISIslide	Win	True
382.924	0.25	Win2	0.6098	0.0	Yes	2.726	0.024	n/a	GoodResponse	1	n/a	n/a	1	40	Cue	Win	True
383.175	3.95	Win2	0.6098	0.0	Yes	2.726	0.001	n/a	GoodResponse	1	n/a	n/a	1	40	Fixation	Win	True
387.12	0.25	Win2	0.6098	0.004	Yes	2.726	-0.004	4.0	GoodResponse	1	0.182	386.302	1	40	Target	Win	True
387.302	0.3	Win2	0.6098	0.004	Yes	2.726	-0.004	4.0	GoodResponse	1	0.182	n/a	1	40	ButtonPress	Win	True
387.371	0.45	Win2	0.6098	n/a	Yes	2.726	n/a	n/a	GoodResponse	1	n/a	n/a	1	40	Blank	Win	True
387.822	1.45	Win2	0.6098	n/a	Yes	2.726	n/a	5.0	GoodResponse	1	0.007	386.829	1	40	Feedback	Win	True
389.277	2.726	Win2	0.6098	n/a	Yes	2.726	n/a	n/a	GoodResponse	1	0.0	n/a	1	40	ISIslide	Win	True
392.018	0.25	Win2	0.619	0.0	Yes	2.782	0.018	n/a	GoodResponse	1	n/a	n/a	2	41	Cue	Win	True
392.269	3.9	Win2	0.619	0.0	Yes	2.782	0.001	n/a	GoodResponse	1	n/a	n/a	2	41	Fixation	Win	True
396.164	0.26	Win2	0.619	0.004	Yes	2.782	-0.004	4.0	GoodResponse	1	0.184	395.348	2	41	Target	Win	True
396.348	0.3	Win2	0.619	0.004	Yes	2.782	-0.004	4.0	GoodResponse	1	0.184	n/a	2	41	ButtonPress	Win	True
396.431	0.44	Win2	0.619	n/a	Yes	2.782	n/a	n/a	GoodResponse	1	n/a	n/a	2	41	Blank	Win	True
396.866	1.45	Win2	0.619	n/a	Yes	2.782	n/a	5.0	GoodResponse	1	0.034	395.9	2	41	Feedback	Win	True
398.32	2.782	Win2	0.619	n/a	Yes	2.782	n/a	n/a	GoodResponse	1	0.0	n/a	2	41	ISIslide	Win	True
401.129	0.25	Control	0.6279	0.0	Yes	2.921	0.029	n/a	GoodResponse	0	n/a	n/a	2	42	Cue	Neutral	True
401.38	3.85	Control	0.6279	0.0	Yes	2.921	0.001	n/a	GoodResponse	0	n/a	n/a	2	42	Fixation	Neutral	True
405.241	0.27	Control	0.6279	0.0	Yes	2.921	0.012	4.0	GoodResponse	0	0.198	404.439	2	42	Target	Neutral	True
405.439	0.3	Control	0.6279	0.0	Yes	2.921	0.012	4.0	GoodResponse	0	0.198	n/a	2	42	ButtonPress	Neutral	True
405.509	0.43	Control	0.6279	n/a	Yes	2.921	n/a	n/a	GoodResponse	0	n/a	n/a	2	42	Blank	Neutral	True
405.926	1.45	Control	0.6279	n/a	Yes	2.921	n/a	5.0	GoodResponse	0	0.046	404.972	2	42	Feedback	Neutral	True
407.381	2.921	Control	0.6279	n/a	Yes	2.921	n/a	n/a	GoodResponse	0	0.0	n/a	2	42	ISIslide	Neutral	True
410.323	0.25	Win2	0.6364	0.0	Yes	3.177	0.023	n/a	GoodResponse	1	n/a	n/a	3	43	Cue	Win	True
410.574	4.0	Win2	0.6364	0.0	Yes	3.177	0.001	n/a	GoodResponse	1	n/a	n/a	3	43	Fixation	Win	True
414.569	0.28	Win2	0.6364	0.004	Yes	3.177	-0.004	4.0	GoodResponse	1	0.214	413.783	3	43	Target	Win	True
414.783	0.3	Win2	0.6364	0.004	Yes	3.177	-0.004	4.0	GoodResponse	1	0.214	n/a	3	43	ButtonPress	Win	True
414.853	0.42	Win2	0.6364	n/a	Yes	3.177	n/a	n/a	GoodResponse	1	n/a	n/a	3	43	Blank	Win	True
415.271	1.45	Win2	0.6364	n/a	Yes	3.177	n/a	5.0	GoodResponse	1	0.019	414.29	3	43	Feedback	Win	True
416.726	3.177	Win2	0.6364	n/a	Yes	3.177	n/a	n/a	GoodResponse	1	0.0	n/a	3	43	ISIslide	Win	True
419.918	0.25	Win2	0.6444	0.0	Yes	2.982	0.018	n/a	GoodResponse	1	n/a	n/a	4	44	Cue	Win	True
420.169	4.0	Win2	0.6444	0.0	Yes	2.982	0.001	n/a	GoodResponse	1	n/a	n/a	4	44	Fixation	Win	True
424.164	0.29	Win2	0.6444	0.004	Yes	2.982	-0.004	4.0	GoodResponse	1	0.174	423.338	4	44	Target	Win	True
424.338	0.3	Win2	0.6444	0.004	Yes	2.982	-0.004	4.0	GoodResponse	1	0.174	n/a	4	44	ButtonPress	Win	True
424.465	0.41	Win2	0.6444	n/a	Yes	2.982	n/a	n/a	GoodResponse	1	n/a	n/a	4	44	Blank	Win	True
424.867	1.45	Win2	0.6444	n/a	Yes	2.982	n/a	5.0	GoodResponse	1	0.032	423.899	4	44	Feedback	Win	True
426.321	2.982	Win2	0.6444	n/a	Yes	2.982	n/a	n/a	GoodResponse	1	0.0	n/a	4	44	ISIslide	Win	True
429.33	0.25	Control	0.6522	0.0	Yes	2.87	0.03	n/a	GoodResponse	0	n/a	n/a	4	45	Cue	Neutral	True
429.581	4.1	Control	0.6522	0.0	Yes	2.87	0.001	n/a	GoodResponse	0	n/a	n/a	4	45	Fixation	Neutral	True
433.676	0.3	Control	0.6522	0.004	Yes	2.87	-0.004	4.0	GoodResponse	0	0.193	432.869	4	45	Target	Neutral	True
433.869	0.3	Control	0.6522	0.004	Yes	2.87	-0.004	4.0	GoodResponse	0	0.193	n/a	4	45	ButtonPress	Neutral	True
433.977	0.4	Control	0.6522	n/a	Yes	2.87	n/a	n/a	GoodResponse	0	n/a	n/a	4	45	Blank	Neutral	True
434.378	1.45	Control	0.6522	n/a	Yes	2.87	n/a	5.0	GoodResponse	0	0.034	433.412	4	45	Feedback	Neutral	True
435.833	2.87	Control	0.6522	n/a	Yes	2.87	n/a	n/a	GoodResponse	0	0.0	n/a	4	45	ISIslide	Neutral	True
438.725	0.25	Lose2	0.6596	0.0	Yes	3.375	0.025	n/a	GoodResponse	0	n/a	n/a	4	46	Cue	AvoidedLoss	True
438.976	4.0	Lose2	0.6596	0.0	Yes	3.375	0.001	n/a	GoodResponse	0	n/a	n/a	4	46	Fixation	AvoidedLoss	True
442.971	0.31	Lose2	0.6596	0.004	Yes	3.375	-0.004	4.0	GoodResponse	0	0.223	442.194	4	46	Target	AvoidedLoss	True
443.194	0.3	Lose2	0.6596	0.004	Yes	3.375	-0.004	4.0	GoodResponse	0	0.223	n/a	4	46	ButtonPress	AvoidedLoss	True
443.288	0.39	Lose2	0.6596	n/a	Yes	3.375	n/a	n/a	GoodResponse	0	n/a	n/a	4	46	Blank	AvoidedLoss	True
443.673	1.45	Lose2	0.6596	n/a	Yes	3.375	n/a	5.0	GoodResponse	0	0.007	442.68	4	46	Feedback	AvoidedLoss	True
445.127	3.375	Lose2	0.6596	n/a	Yes	3.375	n/a	n/a	GoodResponse	0	0.0	n/a	4	46	ISIslide	AvoidedLoss	True
448.521	0.25	Lose2	0.6667000000000001	0.0	Yes	2.679	0.021	n/a	GoodResponse	0	n/a	n/a	4	47	Cue	AvoidedLoss	True
448.772	4.0	Lose2	0.6667000000000001	0.0	Yes	2.679	0.001	n/a	GoodResponse	0	n/a	n/a	4	47	Fixation	AvoidedLoss	True
452.767	0.31	Lose2	0.6667000000000001	0.004	Yes	2.679	-0.004	4.0	GoodResponse	0	0.203	451.97	4	47	Target	AvoidedLoss	True
452.97	0.3	Lose2	0.6667000000000001	0.004	Yes	2.679	-0.004	4.0	GoodResponse	0	0.203	n/a	4	47	ButtonPress	AvoidedLoss	True
453.084	0.39	Lose2	0.6667000000000001	n/a	Yes	2.679	n/a	n/a	GoodResponse	0	n/a	n/a	4	47	Blank	AvoidedLoss	True
453.469	1.45	Lose2	0.6667000000000001	n/a	Yes	2.679	n/a	5.0	GoodResponse	0	0.016	452.485	4	47	Feedback	AvoidedLoss	True
454.923	2.679	Lose2	0.6667000000000001	n/a	Yes	2.679	n/a	n/a	GoodResponse	0	0.0	n/a	4	47	ISIslide	AvoidedLoss	True
457.631	0.25	Lose2	0.6735	0.001	Yes	3.019	0.031	n/a	GoodResponse	0	n/a	n/a	4	48	Cue	AvoidedLoss	True
457.882	3.95	Lose2	0.6735	0.0	Yes	3.019	0.001	n/a	GoodResponse	0	n/a	n/a	4	48	Fixation	AvoidedLoss	True
461.827	0.3	Lose2	0.6735	0.004	Yes	3.019	-0.004	4.0	GoodResponse	0	0.198	461.025	4	48	Target	AvoidedLoss	True
462.025	0.3	Lose2	0.6735	0.004	Yes	3.019	-0.004	4.0	GoodResponse	0	0.198	n/a	4	48	ButtonPress	AvoidedLoss	True
462.128	0.4	Lose2	0.6735	n/a	Yes	3.019	n/a	n/a	GoodResponse	0	n/a	n/a	4	48	Blank	AvoidedLoss	True
462.529	1.45	Lose2	0.6735	n/a	Yes	3.019	n/a	5.0	GoodResponse	0	0.028	461.557	4	48	Feedback	AvoidedLoss	True
463.984	3.019	Lose2	0.6735	n/a	Yes	3.019	n/a	n/a	GoodResponse	0	0.0	n/a	4	48	ISIslide	AvoidedLoss	True
467.026	0.25	Control	0.68	0.0	Yes	2.874	0.026	n/a	GoodResponse	0	n/a	n/a	4	49	Cue	Neutral	True
467.277	4.0	Control	0.68	0.0	Yes	2.874	0.001	n/a	GoodResponse	0	n/a	n/a	4	49	Fixation	Neutral	True
471.272	0.29	Control	0.68	0.004	Yes	2.874	-0.004	4.0	GoodResponse	0	0.205	470.477	4	49	Target	Neutral	True
471.477	0.3	Control	0.68	0.004	Yes	2.874	-0.004	4.0	GoodResponse	0	0.205	n/a	4	49	ButtonPress	Neutral	True
471.573	0.41	Control	0.68	n/a	Yes	2.874	n/a	n/a	GoodResponse	0	n/a	n/a	4	49	Blank	Neutral	True
471.974	1.45	Control	0.68	n/a	Yes	2.874	n/a	5.0	GoodResponse	0	0.047	471.021	4	49	Feedback	Neutral	True
473.429	2.874	Control	0.68	n/a	Yes	2.874	n/a	n/a	GoodResponse	0	0.0	n/a	4	49	ISIslide	Neutral	True
476.321	0.25	Control	0.6862999999999999	0.0	Yes	2.779	0.021	n/a	GoodResponse	0	n/a	n/a	4	50	Cue	Neutral	True
476.572	4.0	Control	0.6862999999999999	0.0	Yes	2.779	0.001	n/a	GoodResponse	0	n/a	n/a	4	50	Fixation	Neutral	True
480.567	0.28	Control	0.6862999999999999	0.004	Yes	2.779	-0.004	4.0	GoodResponse	0	0.246	479.813	4	50	Target	Neutral	True
480.813	0.3	Control	0.6862999999999999	0.004	Yes	2.779	-0.004	4.0	GoodResponse	0	0.246	n/a	4	50	ButtonPress	Neutral	True
480.851	0.42	Control	0.6862999999999999	n/a	Yes	2.779	n/a	n/a	GoodResponse	0	n/a	n/a	4	50	Blank	Neutral	True
481.269	1.45	Control	0.6862999999999999	n/a	Yes	2.779	n/a	5.0	GoodResponse	0	0.02	480.289	4	50	Feedback	Neutral	True
482.723	2.779	Control	0.6862999999999999	n/a	Yes	2.779	n/a	n/a	GoodResponse	0	0.0	n/a	4	50	ISIslide	Neutral	True
485.515	0.25	Control	0.6731	0.0	No	2.735	0.015	n/a	LatePress	0	n/a	n/a	4	51	Cue	Neutral	True
485.766	3.95	Control	0.6731	0.0	No	2.735	0.001	n/a	LatePress	0	n/a	n/a	4	51	Fixation	Neutral	True
489.711	0.27	Control	0.6731	0.004	No	2.735	-0.004	4.0	LatePress	0	0.271	488.982	4	51	Target	Neutral	True
489.982	0.3	Control	0.6731	0.004	No	2.735	-0.004	4.0	LatePress	0	0.271	n/a	4	51	ButtonPress	Neutral	True
489.995	0.43	Control	0.6731	n/a	No	2.735	n/a	n/a	LatePress	0	n/a	n/a	4	51	Blank	Neutral	True
490.413	1.45	Control	0.6731	n/a	No	2.735	n/a	5.0	LatePress	0	0.047	489.46	4	51	Feedback	Neutral	True
491.867	2.735	Control	0.6731	n/a	No	2.735	n/a	n/a	LatePress	0	0.0	n/a	4	51	ISIslide	Neutral	True
494.626	0.25	Control	0.6792	0.0	Yes	2.624	0.026	n/a	GoodResponse	0	n/a	n/a	4	52	Cue	Neutral	True
494.876	4.05	Control	0.6792	0.0	Yes	2.624	0.0	n/a	GoodResponse	0	n/a	n/a	4	52	Fixation	Neutral	True
498.922	0.26	Control	0.6792	0.004	Yes	2.624	-0.004	4.0	GoodResponse	0	0.226	498.148	4	52	Target	Neutral	True
499.148	0.3	Control	0.6792	0.004	Yes	2.624	-0.004	4.0	GoodResponse	0	0.226	n/a	4	52	ButtonPress	Neutral	True
499.189	0.44	Control	0.6792	n/a	Yes	2.624	n/a	n/a	GoodResponse	0	n/a	n/a	4	52	Blank	Neutral	True
499.624	1.45	Control	0.6792	n/a	Yes	2.624	n/a	5.0	GoodResponse	0	0.007	498.631	4	52	Feedback	Neutral	True
501.078	2.624	Control	0.6792	n/a	Yes	2.624	n/a	n/a	GoodResponse	0	0.0	n/a	4	52	ISIslide	Neutral	True
503.72	0.25	Win2	0.6851999999999999	0.0	Yes	2.93	0.02	n/a	GoodResponse	1	n/a	n/a	5	53	Cue	Win	True
503.97	4.05	Win2	0.6851999999999999	0.0	Yes	2.93	0.0	n/a	GoodResponse	1	n/a	n/a	5	53	Fixation	Win	True
508.016	0.25	Win2	0.6851999999999999	0.004	Yes	2.93	-0.004	4.0	GoodResponse	1	0.241	507.257	5	53	Target	Win	True
508.257	0.3	Win2	0.6851999999999999	0.004	Yes	2.93	-0.004	4.0	GoodResponse	1	0.241	n/a	5	53	ButtonPress	Win	True
508.266	0.45	Win2	0.6851999999999999	n/a	Yes	2.93	n/a	n/a	GoodResponse	1	n/a	n/a	5	53	Blank	Win	True
508.718	1.45	Win2	0.6851999999999999	n/a	Yes	2.93	n/a	5.0	GoodResponse	1	0.035	507.753	5	53	Feedback	Win	True
510.172	2.93	Win2	0.6851999999999999	n/a	Yes	2.93	n/a	n/a	GoodResponse	1	0.0	n/a	5	53	ISIslide	Win	True
513.131	0.25	Win2	0.6909000000000001	0.0	Yes	2.719	0.031	n/a	GoodResponse	1	n/a	n/a	6	54	Cue	Win	True
513.382	3.95	Win2	0.6909000000000001	0.0	Yes	2.719	0.001	n/a	GoodResponse	1	n/a	n/a	6	54	Fixation	Win	True
517.327	0.24	Win2	0.6909000000000001	0.004	Yes	2.719	-0.004	4.0	GoodResponse	1	0.205	516.532	6	54	Target	Win	True
517.532	0.3	Win2	0.6909000000000001	0.004	Yes	2.719	-0.004	4.0	GoodResponse	1	0.205	n/a	6	54	ButtonPress	Win	True
517.578	0.46	Win2	0.6909000000000001	n/a	Yes	2.719	n/a	n/a	GoodResponse	1	n/a	n/a	6	54	Blank	Win	True
518.029	1.45	Win2	0.6909000000000001	n/a	Yes	2.719	n/a	5.0	GoodResponse	1	0.041	517.07	6	54	Feedback	Win	True
519.483	2.719	Win2	0.6909000000000001	n/a	Yes	2.719	n/a	n/a	GoodResponse	1	0.0	n/a	6	54	ISIslide	Win	True
522.225	0.25	Control	0.6786	0.0	No	3.025	0.025	n/a	NoResponse	0	n/a	n/a	6	55	Cue	Neutral	True
522.476	3.95	Control	0.6786	0.0	No	3.025	0.001	n/a	NoResponse	0	n/a	n/a	6	55	Fixation	Neutral	True
526.421	0.23	Control	0.6786	0.004	No	3.025	-0.004	4.0	NoResponse	0	0.265	525.686	6	55	Target	Neutral	True
526.655	0.47	Control	0.6786	n/a	No	3.025	n/a	n/a	NoResponse	0	n/a	n/a	6	55	Blank	Neutral	True
526.686	0.3	Control	0.6786	0.004	No	3.025	-0.004	4.0	NoResponse	0	0.265	n/a	6	55	ButtonPress	Neutral	True
527.123	1.45	Control	0.6786	n/a	No	3.025	n/a	5.0	NoResponse	0	0.019	526.142	6	55	Feedback	Neutral	True
528.577	3.025	Control	0.6786	n/a	No	3.025	n/a	n/a	NoResponse	0	0.0	n/a	6	55	ISIslide	Neutral	True
531.62	0.25	Control	0.6667000000000001	0.0	No	2.83	0.02	n/a	NoResponse	0	n/a	n/a	6	56	Cue	Neutral	True
531.871	3.95	Control	0.6667000000000001	0.0	No	2.83	0.001	n/a	NoResponse	0	n/a	n/a	6	56	Fixation	Neutral	True
535.816	0.22	Control	0.6667000000000001	0.004	No	2.83	-0.004	4.0	NoResponse	0	0.289	535.105	6	56	Target	Neutral	True
536.05	0.48	Control	0.6667000000000001	n/a	No	2.83	n/a	n/a	NoResponse	0	n/a	n/a	6	56	Blank	Neutral	True
536.105	0.3	Control	0.6667000000000001	0.004	No	2.83	-0.004	4.0	NoResponse	0	0.289	n/a	6	56	ButtonPress	Neutral	True
536.518	1.45	Control	0.6667000000000001	n/a	No	2.83	n/a	5.0	NoResponse	0	0.039	535.557	6	56	Feedback	Neutral	True
537.972	2.83	Control	0.6667000000000001	n/a	No	2.83	n/a	n/a	NoResponse	0	0.0	n/a	6	56	ISIslide	Neutral	True
540.831	0.25	Control	0.6552	0.0	No	3.469	0.031	n/a	NoResponse	0	n/a	n/a	6	57	Cue	Neutral	True
541.081	4.0	Control	0.6552	0.001	No	3.469	0.0	n/a	NoResponse	0	n/a	n/a	6	57	Fixation	Neutral	True
545.077	0.21	Control	0.6552	0.004	No	3.469	-0.004	4.0	NoResponse	0	0.244	544.321	6	57	Target	Neutral	True
545.294	0.49	Control	0.6552	n/a	No	3.469	n/a	n/a	NoResponse	0	n/a	n/a	6	57	Blank	Neutral	True
545.321	0.3	Control	0.6552	0.004	No	3.469	-0.004	4.0	NoResponse	0	0.244	n/a	6	57	ButtonPress	Neutral	True
545.779	1.45	Control	0.6552	n/a	No	3.469	n/a	5.0	NoResponse	0	0.046	544.825	6	57	Feedback	Neutral	True
547.233	3.469	Control	0.6552	n/a	No	3.469	n/a	n/a	NoResponse	0	0.0	n/a	6	57	ISIslide	Neutral	True
550.727	0.25	Win2	0.6609999999999999	0.0	Yes	2.723	0.027	n/a	GoodResponse	1	n/a	n/a	7	58	Cue	Win	True
550.978	4.05	Win2	0.6609999999999999	0.0	Yes	2.723	0.001	n/a	GoodResponse	1	n/a	n/a	7	58	Fixation	Win	True
555.023	0.21	Win2	0.6609999999999999	0.004	Yes	2.723	-0.004	4.0	GoodResponse	1	0.205	554.228	7	58	Target	Win	True
555.228	0.3	Win2	0.6609999999999999	0.004	Yes	2.723	-0.004	4.0	GoodResponse	1	0.205	n/a	7	58	ButtonPress	Win	True
555.241	0.49	Win2	0.6609999999999999	n/a	Yes	2.723	n/a	n/a	GoodResponse	1	n/a	n/a	7	58	Blank	Win	True
555.725	1.45	Win2	0.6609999999999999	n/a	Yes	2.723	n/a	5.0	GoodResponse	1	0.007	554.732	7	58	Feedback	Win	True
557.18	2.723	Win2	0.6609999999999999	n/a	Yes	2.723	n/a	n/a	GoodResponse	1	0.0	n/a	7	58	ISIslide	Win	True
559.921	0.25	Lose2	0.6667000000000001	0.0	Yes	2.679	0.021	n/a	GoodResponse	0	n/a	n/a	7	59	Cue	AvoidedLoss	True
560.172	4.0	Lose2	0.6667000000000001	0.0	Yes	2.679	0.001	n/a	GoodResponse	0	n/a	n/a	7	59	Fixation	AvoidedLoss	True
564.167	0.21	Lose2	0.6667000000000001	0.004	Yes	2.679	-0.004	4.0	GoodResponse	0	0.204	563.371	7	59	Target	AvoidedLoss	True
564.371	0.3	Lose2	0.6667000000000001	0.004	Yes	2.679	-0.004	4.0	GoodResponse	0	0.204	n/a	7	59	ButtonPress	AvoidedLoss	True
564.385	0.49	Lose2	0.6667000000000001	n/a	Yes	2.679	n/a	n/a	GoodResponse	0	n/a	n/a	7	59	Blank	AvoidedLoss	True
564.869	1.45	Lose2	0.6667000000000001	n/a	Yes	2.679	n/a	5.0	GoodResponse	0	0.03	563.899	7	59	Feedback	AvoidedLoss	True
566.324	2.679	Lose2	0.6667000000000001	n/a	Yes	2.679	n/a	n/a	GoodResponse	0	0.0	n/a	7	59	ISIslide	AvoidedLoss	True
569.032	0.25	Control	0.6557	0.0	No	2.668	0.032	n/a	NoResponse	0	n/a	n/a	7	60	Cue	Neutral	True
569.283	4.0	Control	0.6557	0.0	No	2.668	0.001	n/a	NoResponse	0	n/a	n/a	7	60	Fixation	Neutral	True
573.278	0.2	Control	0.6557	0.004	No	2.668	-0.004	4.0	NoResponse	0	0.253	572.531	7	60	Target	Neutral	True
573.479	0.5	Control	0.6557	n/a	No	2.668	n/a	n/a	NoResponse	0	n/a	n/a	7	60	Blank	Neutral	True
573.531	0.3	Control	0.6557	0.004	No	2.668	-0.004	4.0	NoResponse	0	0.253	n/a	7	60	ButtonPress	Neutral	True
573.98	1.45	Control	0.6557	n/a	No	2.668	n/a	5.0	NoResponse	0	0.041	573.021	7	60	Feedback	Neutral	True
575.434	2.668	Control	0.6557	n/a	No	2.668	n/a	n/a	NoResponse	0	0.0	n/a	7	60	ISIslide	Neutral	True
578.126	0.25	Lose2	0.6452	0.0	No	2.974	0.026	n/a	NoResponse	-1	n/a	n/a	6	61	Cue	Loss	False
578.377	4.0	Lose2	0.6452	0.0	No	2.974	0.001	4.0	NoResponse	-1	3.718	581.095	6	61	Fixation	Loss	False
582.095	0.3	Lose2	0.6452	0.0	No	2.974	0.001	4.0	NoResponse	-1	3.718	n/a	6	61	ButtonPress	Loss	False
582.372	0.2	Lose2	0.6452	0.004	No	2.974	-0.004	4.0	NoResponse	-1	0.386	581.758	6	61	Target	Loss	False
582.572	0.5	Lose2	0.6452	n/a	No	2.974	n/a	n/a	NoResponse	-1	n/a	n/a	6	61	Blank	Loss	False
582.758	0.3	Lose2	0.6452	0.004	No	2.974	-0.004	4.0	NoResponse	-1	0.386	n/a	6	61	ButtonPress	Loss	False
583.074	1.45	Lose2	0.6452	n/a	No	2.974	n/a	5.0	NoResponse	-1	0.019	582.093	6	61	Feedback	Loss	False
584.528	2.974	Lose2	0.6452	n/a	No	2.974	n/a	n/a	NoResponse	-1	0.0	n/a	6	61	ISIslide	Loss	False
587.521	0.25	Lose2	0.6349	0.0	No	2.879	0.021	n/a	NoResponse	-1	n/a	n/a	5	62	Cue	Loss	True
587.771	3.9	Lose2	0.6349	0.0	No	2.879	0.0	n/a	NoResponse	-1	n/a	n/a	5	62	Fixation	Loss	True
591.683	0.21	Lose2	0.6349	0.0	No	2.879	0.012	4.0	NoResponse	-1	0.237	590.92	5	62	Target	Loss	True
591.884	0.49	Lose2	0.6349	n/a	No	2.879	n/a	n/a	NoResponse	-1	n/a	n/a	5	62	Blank	Loss	True
591.92	0.3	Lose2	0.6349	0.0	No	2.879	0.012	4.0	NoResponse	-1	0.237	n/a	5	62	ButtonPress	Loss	True
592.368	1.45	Lose2	0.6349	n/a	No	2.879	n/a	5.0	NoResponse	-1	0.042	591.41	5	62	Feedback	Loss	True
593.823	2.879	Lose2	0.6349	n/a	No	2.879	n/a	n/a	NoResponse	-1	0.0	n/a	5	62	ISIslide	Loss	True
596.715	0.25	Lose2	0.6406000000000001	0.0	Yes	2.635	0.015	n/a	GoodResponse	0	n/a	n/a	5	63	Cue	AvoidedLoss	True
596.966	4.05	Lose2	0.6406000000000001	0.0	Yes	2.635	0.001	n/a	GoodResponse	0	n/a	n/a	5	63	Fixation	AvoidedLoss	True
601.011	0.22	Lose2	0.6406000000000001	0.004	Yes	2.635	-0.004	4.0	GoodResponse	0	0.179	600.19	5	63	Target	AvoidedLoss	True
601.19	0.3	Lose2	0.6406000000000001	0.004	Yes	2.635	-0.004	4.0	GoodResponse	0	0.179	n/a	5	63	ButtonPress	AvoidedLoss	True
601.245	0.48	Lose2	0.6406000000000001	n/a	Yes	2.635	n/a	n/a	GoodResponse	0	n/a	n/a	5	63	Blank	AvoidedLoss	True
601.713	1.45	Lose2	0.6406000000000001	n/a	Yes	2.635	n/a	5.0	GoodResponse	0	0.015	600.728	5	63	Feedback	AvoidedLoss	True
603.168	2.635	Lose2	0.6406000000000001	n/a	Yes	2.635	n/a	n/a	GoodResponse	0	0.0	n/a	5	63	ISIslide	AvoidedLoss	True
605.825	0.25	Win2	0.6462	0.001	Yes	3.125	0.025	n/a	GoodResponse	1	n/a	n/a	6	64	Cue	Win	True
606.076	4.15	Win2	0.6462	0.0	Yes	3.125	0.001	n/a	GoodResponse	1	n/a	n/a	6	64	Fixation	Win	True
610.222	0.23	Win2	0.6462	0.003	Yes	3.125	-0.003	4.0	GoodResponse	1	0.22	609.442	6	64	Target	Win	True
610.442	0.3	Win2	0.6462	0.003	Yes	3.125	-0.003	4.0	GoodResponse	1	0.22	n/a	6	64	ButtonPress	Win	True
610.456	0.47	Win2	0.6462	n/a	Yes	3.125	n/a	n/a	GoodResponse	1	n/a	n/a	6	64	Blank	Win	True
610.924	1.45	Win2	0.6462	n/a	Yes	3.125	n/a	5.0	GoodResponse	1	0.023	609.947	6	64	Feedback	Win	True
612.378	3.125	Win2	0.6462	n/a	Yes	3.125	n/a	n/a	GoodResponse	1	0.0	n/a	6	64	ISIslide	Win	True
615.521	0.25	Control	0.6364	0.0	No	2.779	0.021	n/a	NoResponse	0	n/a	n/a	6	65	Cue	Neutral	True
615.772	4.0	Control	0.6364	0.0	No	2.779	0.001	n/a	NoResponse	0	n/a	n/a	6	65	Fixation	Neutral	True
619.767	0.24	Control	0.6364	0.004	No	2.779	-0.004	4.0	NoResponse	0	0.291	619.058	6	65	Target	Neutral	True
620.018	0.46	Control	0.6364	n/a	No	2.779	n/a	n/a	NoResponse	0	n/a	n/a	6	65	Blank	Neutral	True
620.058	0.3	Control	0.6364	0.004	No	2.779	-0.004	4.0	NoResponse	0	0.291	n/a	6	65	ButtonPress	Neutral	True
620.469	1.45	Control	0.6364	n/a	No	2.779	n/a	5.0	NoResponse	0	0.039	619.508	6	65	Feedback	Neutral	True
621.924	2.779	Control	0.6364	n/a	No	2.779	n/a	n/a	NoResponse	0	0.0	n/a	6	65	ISIslide	Neutral	True
624.715	0.25	Win2	0.6418	0.0	Yes	2.785	0.015	n/a	GoodResponse	1	n/a	n/a	7	66	Cue	Win	True
624.966	3.9	Win2	0.6418	0.0	Yes	2.785	0.001	n/a	GoodResponse	1	n/a	n/a	7	66	Fixation	Win	True
628.861	0.25	Win2	0.6418	0.004	Yes	2.785	-0.004	4.0	GoodResponse	1	0.201	628.062	7	66	Target	Win	True
629.062	0.3	Win2	0.6418	0.004	Yes	2.785	-0.004	4.0	GoodResponse	1	0.201	n/a	7	66	ButtonPress	Win	True
629.112	0.45	Win2	0.6418	n/a	Yes	2.785	n/a	n/a	GoodResponse	1	n/a	n/a	7	66	Blank	Win	True
629.563	1.45	Win2	0.6418	n/a	Yes	2.785	n/a	5.0	GoodResponse	1	0.018	628.581	7	66	Feedback	Win	True
631.018	2.785	Win2	0.6418	n/a	Yes	2.785	n/a	n/a	GoodResponse	1	0.0	n/a	7	66	ISIslide	Win	True
633.826	0.25	Control	0.6324000000000001	0.0	No	2.724	0.026	n/a	LatePress	0	n/a	n/a	7	67	Cue	Neutral	True
634.077	3.95	Control	0.6324000000000001	0.0	No	2.724	0.001	n/a	LatePress	0	n/a	n/a	7	67	Fixation	Neutral	True
638.022	0.26	Control	0.6324000000000001	0.004	No	2.724	-0.004	4.0	LatePress	0	0.265	637.287	7	67	Target	Neutral	True
638.287	0.3	Control	0.6324000000000001	0.004	No	2.724	-0.004	4.0	LatePress	0	0.265	n/a	7	67	ButtonPress	Neutral	True
638.289	0.44	Control	0.6324000000000001	n/a	No	2.724	n/a	n/a	LatePress	0	n/a	n/a	7	67	Blank	Neutral	True
638.724	1.45	Control	0.6324000000000001	n/a	No	2.724	n/a	5.0	LatePress	0	0.028	637.752	7	67	Feedback	Neutral	True
640.178	2.724	Control	0.6324000000000001	n/a	No	2.724	n/a	n/a	LatePress	0	0.0	n/a	7	67	ISIslide	Neutral	True
642.92	0.25	Win2	0.6377	0.0	Yes	3.08	0.02	n/a	GoodResponse	1	n/a	n/a	8	68	Cue	Win	True
643.171	4.0	Win2	0.6377	0.0	Yes	3.08	0.001	n/a	GoodResponse	1	n/a	n/a	8	68	Fixation	Win	True
647.166	0.27	Win2	0.6377	0.004	Yes	3.08	-0.004	4.0	GoodResponse	1	0.231	646.397	8	68	Target	Win	True
647.397	0.3	Win2	0.6377	0.004	Yes	3.08	-0.004	4.0	GoodResponse	1	0.231	n/a	8	68	ButtonPress	Win	True
647.45	0.43	Win2	0.6377	n/a	Yes	3.08	n/a	n/a	GoodResponse	1	n/a	n/a	8	68	Blank	Win	True
647.868	1.45	Win2	0.6377	n/a	Yes	3.08	n/a	5.0	GoodResponse	1	0.005	646.873	8	68	Feedback	Win	True
649.322	3.08	Win2	0.6377	n/a	Yes	3.08	n/a	n/a	GoodResponse	1	0.0	n/a	8	68	ISIslide	Win	True
652.415	0.25	Win2	0.6429	0.0	Yes	3.235	0.015	n/a	GoodResponse	1	n/a	n/a	9	69	Cue	Win	True
652.666	3.95	Win2	0.6429	0.0	Yes	3.235	0.001	n/a	GoodResponse	1	n/a	n/a	9	69	Fixation	Win	True
656.611	0.28	Win2	0.6429	0.004	Yes	3.235	-0.004	4.0	GoodResponse	1	0.252	655.863	9	69	Target	Win	True
656.863	0.3	Win2	0.6429	0.004	Yes	3.235	-0.004	4.0	GoodResponse	1	0.252	n/a	9	69	ButtonPress	Win	True
656.895	0.42	Win2	0.6429	n/a	Yes	3.235	n/a	n/a	GoodResponse	1	n/a	n/a	9	69	Blank	Win	True
657.313	1.45	Win2	0.6429	n/a	Yes	3.235	n/a	5.0	GoodResponse	1	0.024	656.337	9	69	Feedback	Win	True
658.767	3.235	Win2	0.6429	n/a	Yes	3.235	n/a	n/a	GoodResponse	1	0.0	n/a	9	69	ISIslide	Win	True
662.027	0.25	Lose2	0.6479	0.0	Yes	3.023	0.027	n/a	GoodResponse	0	n/a	n/a	9	70	Cue	AvoidedLoss	True
662.278	4.05	Lose2	0.6479	0.0	Yes	3.023	0.001	n/a	GoodResponse	0	n/a	n/a	9	70	Fixation	AvoidedLoss	True
666.323	0.29	Lose2	0.6479	0.004	Yes	3.023	-0.004	4.0	GoodResponse	0	0.195	665.518	9	70	Target	AvoidedLoss	True
666.518	0.3	Lose2	0.6479	0.004	Yes	3.023	-0.004	4.0	GoodResponse	0	0.195	n/a	9	70	ButtonPress	AvoidedLoss	True
666.624	0.41	Lose2	0.6479	n/a	Yes	3.023	n/a	n/a	GoodResponse	0	n/a	n/a	9	70	Blank	AvoidedLoss	True
667.026	1.45	Lose2	0.6479	n/a	Yes	3.023	n/a	5.0	GoodResponse	0	0.018	666.044	9	70	Feedback	AvoidedLoss	True
668.48	3.023	Lose2	0.6479	n/a	Yes	3.023	n/a	n/a	GoodResponse	0	0.0	n/a	9	70	ISIslide	AvoidedLoss	True
671.522	0.25	Win2	0.6528	0.0	Yes	2.728	0.022	n/a	GoodResponse	1	n/a	n/a	10	71	Cue	Win	True
671.773	4.05	Win2	0.6528	0.0	Yes	2.728	0.001	n/a	GoodResponse	1	n/a	n/a	10	71	Fixation	Win	True
675.819	0.3	Win2	0.6528	0.003	Yes	2.728	-0.003	4.0	GoodResponse	1	0.273	675.092	10	71	Target	Win	True
676.092	0.3	Win2	0.6528	0.003	Yes	2.728	-0.003	4.0	GoodResponse	1	0.273	n/a	10	71	ButtonPress	Win	True
676.119	0.4	Win2	0.6528	n/a	Yes	2.728	n/a	n/a	GoodResponse	1	n/a	n/a	10	71	Blank	Win	True
676.521	1.45	Win2	0.6528	n/a	Yes	2.728	n/a	5.0	GoodResponse	1	0.036	675.557	10	71	Feedback	Win	True
677.975	2.728	Win2	0.6528	n/a	Yes	2.728	n/a	n/a	GoodResponse	1	0.0	n/a	10	71	ISIslide	Win	True
680.717	0.25	Win2	0.6575	0.0	Yes	2.783	0.017	n/a	GoodResponse	1	n/a	n/a	11	72	Cue	Win	True
680.967	4.1	Win2	0.6575	0.0	Yes	2.783	0.0	n/a	GoodResponse	1	n/a	n/a	11	72	Fixation	Win	True
685.063	0.31	Win2	0.6575	0.004	Yes	2.783	-0.004	4.0	GoodResponse	1	0.214	684.277	11	72	Target	Win	True
685.277	0.3	Win2	0.6575	0.004	Yes	2.783	-0.004	4.0	GoodResponse	1	0.214	n/a	11	72	ButtonPress	Win	True
685.381	0.39	Win2	0.6575	n/a	Yes	2.783	n/a	n/a	GoodResponse	1	n/a	n/a	11	72	Blank	Win	True
685.765	1.45	Win2	0.6575	n/a	Yes	2.783	n/a	5.0	GoodResponse	1	0.011	684.776	11	72	Feedback	Win	True
687.219	2.783	Win2	0.6575	n/a	Yes	2.783	n/a	n/a	GoodResponse	1	0.0	n/a	11	72	ISIslide	Win	True
690.028	0.25	Win2	0.6622	0.0	Yes	2.672	0.028	n/a	GoodResponse	1	n/a	n/a	12	73	Cue	Win	True
690.279	4.0	Win2	0.6622	0.0	Yes	2.672	0.001	n/a	GoodResponse	1	n/a	n/a	12	73	Fixation	Win	True
694.274	0.31	Win2	0.6622	0.004	Yes	2.672	-0.004	4.0	GoodResponse	1	0.208	693.482	12	73	Target	Win	True
694.482	0.3	Win2	0.6622	0.004	Yes	2.672	-0.004	4.0	GoodResponse	1	0.208	n/a	12	73	ButtonPress	Win	True
694.591	0.39	Win2	0.6622	n/a	Yes	2.672	n/a	n/a	GoodResponse	1	n/a	n/a	12	73	Blank	Win	True
694.976	1.45	Win2	0.6622	n/a	Yes	2.672	n/a	5.0	GoodResponse	1	0.02	693.996	12	73	Feedback	Win	True
696.43	2.672	Win2	0.6622	n/a	Yes	2.672	n/a	n/a	GoodResponse	1	0.0	n/a	12	73	ISIslide	Win	True
699.122	0.25	Lose2	0.6667000000000001	0.0	Yes	2.628	0.022	n/a	GoodResponse	0	n/a	n/a	12	74	Cue	AvoidedLoss	True
699.372	4.05	Lose2	0.6667000000000001	0.001	Yes	2.628	0.0	n/a	GoodResponse	0	n/a	n/a	12	74	Fixation	AvoidedLoss	True
703.418	0.31	Lose2	0.6667000000000001	0.004	Yes	2.628	-0.004	4.0	GoodResponse	0	0.192	702.61	12	74	Target	AvoidedLoss	True
703.61	0.3	Lose2	0.6667000000000001	0.004	Yes	2.628	-0.004	4.0	GoodResponse	0	0.192	n/a	12	74	ButtonPress	AvoidedLoss	True
703.736	0.39	Lose2	0.6667000000000001	n/a	Yes	2.628	n/a	n/a	GoodResponse	0	n/a	n/a	12	74	Blank	AvoidedLoss	True
704.12	1.45	Lose2	0.6667000000000001	n/a	Yes	2.628	n/a	5.0	GoodResponse	0	0.046	703.166	12	74	Feedback	AvoidedLoss	True
705.574	2.628	Lose2	0.6667000000000001	n/a	Yes	2.628	n/a	n/a	GoodResponse	0	0.0	n/a	12	74	ISIslide	AvoidedLoss	True
708.216	0.25	Lose2	0.6711	0.0	Yes	2.934	0.016	n/a	GoodResponse	0	n/a	n/a	12	75	Cue	AvoidedLoss	True
708.466	3.95	Lose2	0.6711	0.0	Yes	2.934	0.0	n/a	GoodResponse	0	n/a	n/a	12	75	Fixation	AvoidedLoss	True
712.412	0.3	Lose2	0.6711	0.004	Yes	2.934	-0.004	4.0	GoodResponse	0	0.201	711.613	12	75	Target	AvoidedLoss	True
712.613	0.3	Lose2	0.6711	0.004	Yes	2.934	-0.004	4.0	GoodResponse	0	0.201	n/a	12	75	ButtonPress	AvoidedLoss	True
712.712	0.4	Lose2	0.6711	n/a	Yes	2.934	n/a	n/a	GoodResponse	0	n/a	n/a	12	75	Blank	AvoidedLoss	True
713.114	1.45	Lose2	0.6711	n/a	Yes	2.934	n/a	5.0	GoodResponse	0	0.027	712.141	12	75	Feedback	AvoidedLoss	True
714.568	2.934	Lose2	0.6711	n/a	Yes	2.934	n/a	n/a	GoodResponse	0	0.0	n/a	12	75	ISIslide	AvoidedLoss	True
717.527	0.25	Control	0.6753	0.0	Yes	3.223	0.027	n/a	GoodResponse	0	n/a	n/a	12	76	Cue	Neutral	True
717.778	4.05	Control	0.6753	0.0	Yes	3.223	0.001	n/a	GoodResponse	0	n/a	n/a	12	76	Fixation	Neutral	True
721.823	0.29	Control	0.6753	0.004	Yes	3.223	-0.004	4.0	GoodResponse	0	0.279	721.102	12	76	Target	Neutral	True
722.102	0.3	Control	0.6753	0.004	Yes	3.223	-0.004	4.0	GoodResponse	0	0.279	n/a	12	76	ButtonPress	Neutral	True
722.124	0.41	Control	0.6753	n/a	Yes	3.223	n/a	n/a	GoodResponse	0	n/a	n/a	12	76	Blank	Neutral	True
722.525	1.45	Control	0.6753	n/a	Yes	3.223	n/a	5.0	GoodResponse	0	0.031	721.556	12	76	Feedback	Neutral	True
723.98	3.223	Control	0.6753	n/a	Yes	3.223	n/a	n/a	GoodResponse	0	0.0	n/a	12	76	ISIslide	Neutral	True
727.223	0.25	Lose2	0.6795	0.0	Yes	2.577	0.023	n/a	GoodResponse	0	n/a	n/a	12	77	Cue	AvoidedLoss	True
727.473	3.95	Lose2	0.6795	0.0	Yes	2.577	0.0	n/a	GoodResponse	0	n/a	n/a	12	77	Fixation	AvoidedLoss	True
731.435	0.28	Lose2	0.6795	0.0	Yes	2.577	0.012	4.0	GoodResponse	0	0.217	730.652	12	77	Target	AvoidedLoss	True
731.652	0.3	Lose2	0.6795	0.0	Yes	2.577	0.012	4.0	GoodResponse	0	0.217	n/a	12	77	ButtonPress	AvoidedLoss	True
731.703	0.42	Lose2	0.6795	n/a	Yes	2.577	n/a	n/a	GoodResponse	0	n/a	n/a	12	77	Blank	AvoidedLoss	True
732.121	1.45	Lose2	0.6795	n/a	Yes	2.577	n/a	5.0	GoodResponse	0	0.045	731.166	12	77	Feedback	AvoidedLoss	True
733.575	2.577	Lose2	0.6795	n/a	Yes	2.577	n/a	n/a	GoodResponse	0	0.0	n/a	12	77	ISIslide	AvoidedLoss	True
