onset	duration	cue_type	current_mean_accuracy	duration_error	is_hit	isi_adjusted	onset_delay	response	response_type	reward	rt	rt_time	total_reward	trial_number	trial_phase	trial_type	one_press
11.101	0.25	Control	1.0	0.0	Yes	2.949	0.001	n/a	GoodResponse	0	n/a	n/a	0	0	Cue	Neutral	True
11.352	3.85	Control	1.0	0.0	Yes	2.949	0.001	n/a	GoodResponse	0	n/a	n/a	0	0	Fixation	Neutral	True
15.197	0.4	Control	1.0	0.004	Yes	2.949	-0.004	3.0	GoodResponse	0	0.191	14.388	0	0	Target	Neutral	True
15.388	0.3	Control	1.0	0.004	Yes	2.949	-0.004	3.0	GoodResponse	0	0.191	n/a	0	0	ButtonPress	Neutral	True
15.598	0.3	Control	1.0	n/a	Yes	2.949	n/a	n/a	GoodResponse	0	n/a	n/a	0	0	Blank	Neutral	True
15.899	1.45	Control	1.0	n/a	Yes	2.949	n/a	5.0	GoodResponse	0	0.028	14.927	0	0	Feedback	Neutral	True
17.353	2.949	Control	1.0	n/a	Yes	2.949	n/a	n/a	GoodResponse	0	0.0	n/a	0	0	ISIslide	Neutral	True
20.329	0.25	Lose2	1.0	0.0	Yes	2.771	0.029	n/a	GoodResponse	0	n/a	n/a	0	1	Cue	AvoidedLoss	True
20.579	4.0	Lose2	1.0	0.001	Yes	2.771	0.0	n/a	GoodResponse	0	n/a	n/a	0	1	Fixation	AvoidedLoss	True
24.575	0.39	Lose2	1.0	0.004	Yes	2.771	-0.004	3.0	GoodResponse	0	0.189	23.764	0	1	Target	AvoidedLoss	True
24.764	0.3	Lose2	1.0	0.004	Yes	2.771	-0.004	3.0	GoodResponse	0	0.189	n/a	0	1	ButtonPress	AvoidedLoss	True
24.976	0.31	Lose2	1.0	n/a	Yes	2.771	n/a	n/a	GoodResponse	0	n/a	n/a	0	1	Blank	AvoidedLoss	True
25.277	1.45	Lose2	1.0	n/a	Yes	2.771	n/a	5.0	GoodResponse	0	0.014	24.291	0	1	Feedback	AvoidedLoss	True
26.731	2.771	Lose2	1.0	n/a	Yes	2.771	n/a	n/a	GoodResponse	0	0.0	n/a	0	1	ISIslide	AvoidedLoss	True
29.523	0.25	Control	1.0	0.0	Yes	2.577	0.023	n/a	GoodResponse	0	n/a	n/a	0	2	Cue	Neutral	True
29.774	4.1	Control	1.0	0.0	Yes	2.577	0.001	n/a	GoodResponse	0	n/a	n/a	0	2	Fixation	Neutral	True
33.869	0.38	Control	1.0	0.004	Yes	2.577	-0.004	3.0	GoodResponse	0	0.214	33.083	0	2	Target	Neutral	True
34.083	0.3	Control	1.0	0.004	Yes	2.577	-0.004	3.0	GoodResponse	0	0.214	n/a	0	2	ButtonPress	Neutral	True
34.254	0.32	Control	1.0	n/a	Yes	2.577	n/a	n/a	GoodResponse	0	n/a	n/a	0	2	Blank	Neutral	True
34.571	1.45	Control	1.0	n/a	Yes	2.577	n/a	5.0	GoodResponse	0	0.038	33.609	0	2	Feedback	Neutral	True
36.026	2.577	Control	1.0	n/a	Yes	2.577	n/a	n/a	GoodResponse	0	0.0	n/a	0	2	ISIslide	Neutral	True
38.617	0.25	Win2	1.0	0.0	Yes	2.833	0.017	n/a	GoodResponse	1	n/a	n/a	1	3	Cue	Win	True
38.868	3.95	Win2	1.0	0.0	Yes	2.833	0.001	n/a	GoodResponse	1	n/a	n/a	1	3	Fixation	Win	True
42.813	0.37	Win2	1.0	0.004	Yes	2.833	-0.004	3.0	GoodResponse	1	0.191	42.004	1	3	Target	Win	True
43.004	0.3	Win2	1.0	0.004	Yes	2.833	-0.004	3.0	GoodResponse	1	0.191	n/a	1	3	ButtonPress	Win	True
43.197	0.33	Win2	1.0	n/a	Yes	2.833	n/a	n/a	GoodResponse	1	n/a	n/a	1	3	Blank	Win	True
43.515	1.45	Win2	1.0	n/a	Yes	2.833	n/a	5.0	GoodResponse	1	0.021	42.536	1	3	Feedback	Win	True
44.969	2.833	Win2	1.0	n/a	Yes	2.833	n/a	n/a	GoodResponse	1	0.0	n/a	1	3	ISIslide	Win	True
47.828	0.25	Win2	1.0	0.0	Yes	3.272	0.028	n/a	GoodResponse	1	n/a	n/a	2	4	Cue	Win	True
48.079	4.0	Win2	1.0	0.0	Yes	3.272	0.001	n/a	GoodResponse	1	n/a	n/a	2	4	Fixation	Win	True
52.074	0.36	Win2	1.0	0.004	Yes	3.272	-0.004	3.0	GoodResponse	1	0.188	51.262	2	4	Target	Win	True
52.262	0.3	Win2	1.0	0.004	Yes	3.272	-0.004	3.0	GoodResponse	1	0.188	n/a	2	4	ButtonPress	Win	True
52.442	0.34	Win2	1.0	n/a	Yes	3.272	n/a	n/a	GoodResponse	1	n/a	n/a	2	4	Blank	Win	True
52.776	1.45	Win2	1.0	n/a	Yes	3.272	n/a	5.0	GoodResponse	1	0.028	51.804	2	4	Feedback	Win	True
54.23	3.272	Win2	1.0	n/a	Yes	3.272	n/a	n/a	GoodResponse	1	0.0	n/a	2	4	ISIslide	Win	True
57.524	0.25	Win2	0.8332999999999999	0.0	No	2.776	0.024	n/a	NoResponse	0	n/a	n/a	2	5	Cue	MissedWin	True
57.774	4.0	Win2	0.8332999999999999	0.0	No	2.776	0.0	n/a	NoResponse	0	n/a	n/a	2	5	Fixation	MissedWin	True
61.77	0.35	Win2	0.8332999999999999	0.004	No	2.776	-0.004	3.0	NoResponse	0	0.423	61.193	2	5	Target	MissedWin	True
62.121	0.35	Win2	0.8332999999999999	n/a	No	2.776	n/a	n/a	NoResponse	0	n/a	n/a	2	5	Blank	MissedWin	True
62.193	0.3	Win2	0.8332999999999999	0.004	No	2.776	-0.004	3.0	NoResponse	0	0.423	n/a	2	5	ButtonPress	MissedWin	True
62.472	1.45	Win2	0.8332999999999999	n/a	No	2.776	n/a	5.0	NoResponse	0	0.039	61.511	2	5	Feedback	MissedWin	True
63.926	2.776	Win2	0.8332999999999999	n/a	No	2.776	n/a	n/a	NoResponse	0	0.0	n/a	2	5	ISIslide	MissedWin	True
66.718	0.25	Lose2	0.7143	0.0	No	2.732	0.018	n/a	LatePress	-1	n/a	n/a	1	6	Cue	Loss	True
66.968	3.95	Lose2	0.7143	0.001	No	2.732	0.0	n/a	LatePress	-1	n/a	n/a	1	6	Fixation	Loss	True
70.914	0.34	Lose2	0.7143	0.004	No	2.732	-0.004	3.0	LatePress	-1	0.351	70.265	1	6	Target	Loss	True
71.265	0.36	Lose2	0.7143	n/a	No	2.732	n/a	n/a	LatePress	-1	n/a	n/a	1	6	Blank	Loss	True
71.265	0.3	Lose2	0.7143	0.004	No	2.732	-0.004	3.0	LatePress	-1	0.351	n/a	1	6	ButtonPress	Loss	True
71.616	1.45	Lose2	0.7143	n/a	No	2.732	n/a	5.0	LatePress	-1	0.017	70.633	1	6	Feedback	Loss	True
73.07	2.732	Lose2	0.7143	n/a	No	2.732	n/a	n/a	LatePress	-1	0.0	n/a	1	6	ISIslide	Loss	True
75.828	0.25	Lose2	0.75	0.0	Yes	4.022	0.028	n/a	GoodResponse	0	n/a	n/a	1	7	Cue	AvoidedLoss	True
76.079	4.05	Lose2	0.75	0.0	Yes	4.022	0.001	n/a	GoodResponse	0	n/a	n/a	1	7	Fixation	AvoidedLoss	True
80.125	0.33	Lose2	0.75	0.003	Yes	4.022	-0.003	3.0	GoodResponse	0	0.216	79.341	1	7	Target	AvoidedLoss	True
80.341	0.3	Lose2	0.75	0.003	Yes	4.022	-0.003	3.0	GoodResponse	0	0.216	n/a	1	7	ButtonPress	AvoidedLoss	True
80.459	0.37	Lose2	0.75	n/a	Yes	4.022	n/a	n/a	GoodResponse	0	n/a	n/a	1	7	Blank	AvoidedLoss	True
80.827	1.45	Lose2	0.75	n/a	Yes	4.022	n/a	5.0	GoodResponse	0	0.026	79.853	1	7	Feedback	AvoidedLoss	True
82.281	4.022	Lose2	0.75	n/a	Yes	4.022	n/a	n/a	GoodResponse	0	0.0	n/a	1	7	ISIslide	AvoidedLoss	True
86.326	0.25	Lose2	0.7778	0.001	Yes	3.024	0.026	n/a	GoodResponse	0	n/a	n/a	1	8	Cue	AvoidedLoss	True
86.577	3.95	Lose2	0.7778	0.0	Yes	3.024	0.001	n/a	GoodResponse	0	n/a	n/a	1	8	Fixation	AvoidedLoss	True
90.522	0.32	Lose2	0.7778	0.004	Yes	3.024	-0.004	3.0	GoodResponse	0	0.202	89.724	1	8	Target	AvoidedLoss	True
90.724	0.3	Lose2	0.7778	0.004	Yes	3.024	-0.004	3.0	GoodResponse	0	0.202	n/a	1	8	ButtonPress	AvoidedLoss	True
90.857	0.38	Lose2	0.7778	n/a	Yes	3.024	n/a	n/a	GoodResponse	0	n/a	n/a	1	8	Blank	AvoidedLoss	True
91.224	1.45	Lose2	0.7778	n/a	Yes	3.024	n/a	5.0	GoodResponse	0	0.018	90.242	1	8	Feedback	AvoidedLoss	True
92.679	3.024	Lose2	0.7778	n/a	Yes	3.024	n/a	n/a	GoodResponse	0	0.0	n/a	1	8	ISIslide	AvoidedLoss	True
95.721	0.25	Lose2	0.8	0.0	Yes	3.129	0.021	n/a	GoodResponse	0	n/a	n/a	1	9	Cue	AvoidedLoss	True
95.972	3.95	Lose2	0.8	0.0	Yes	3.129	0.001	n/a	GoodResponse	0	n/a	n/a	1	9	Fixation	AvoidedLoss	True
99.917	0.31	Lose2	0.8	0.004	Yes	3.129	-0.004	3.0	GoodResponse	0	0.179	99.096	1	9	Target	AvoidedLoss	True
100.096	0.3	Lose2	0.8	0.004	Yes	3.129	-0.004	3.0	GoodResponse	0	0.179	n/a	1	9	ButtonPress	AvoidedLoss	True
100.235	0.39	Lose2	0.8	n/a	Yes	3.129	n/a	n/a	GoodResponse	0	n/a	n/a	1	9	Blank	AvoidedLoss	True
100.619	1.45	Lose2	0.8	n/a	Yes	3.129	n/a	5.0	GoodResponse	0	0.038	99.657	1	9	Feedback	AvoidedLoss	True
102.074	3.129	Lose2	0.8	n/a	Yes	3.129	n/a	n/a	GoodResponse	0	0.0	n/a	1	9	ISIslide	AvoidedLoss	True
105.216	0.25	Control	0.8181999999999999	0.001	Yes	3.284	0.016	n/a	GoodResponse	0	n/a	n/a	1	10	Cue	Neutral	True
105.467	4.0	Control	0.8181999999999999	0.0	Yes	3.284	0.001	n/a	GoodResponse	0	n/a	n/a	1	10	Fixation	Neutral	True
109.462	0.3	Control	0.8181999999999999	0.004	Yes	3.284	-0.004	3.0	GoodResponse	0	0.288	108.75	1	10	Target	Neutral	True
109.75	0.3	Control	0.8181999999999999	0.004	Yes	3.284	-0.004	3.0	GoodResponse	0	0.288	n/a	1	10	ButtonPress	Neutral	True
109.763	0.4	Control	0.8181999999999999	n/a	Yes	3.284	n/a	n/a	GoodResponse	0	n/a	n/a	1	10	Blank	Neutral	True
110.165	1.45	Control	0.8181999999999999	n/a	Yes	3.284	n/a	5.0	GoodResponse	0	0.005	109.17	1	10	Feedback	Neutral	True
111.619	3.284	Control	0.8181999999999999	n/a	Yes	3.284	n/a	n/a	GoodResponse	0	0.0	n/a	1	10	ISIslide	Neutral	True
114.929	0.25	Lose2	0.8332999999999999	0.0	Yes	2.721	0.029	n/a	GoodResponse	0	n/a	n/a	1	11	Cue	AvoidedLoss	True
115.18	4.05	Lose2	0.8332999999999999	0.0	Yes	2.721	0.001	n/a	GoodResponse	0	n/a	n/a	1	11	Fixation	AvoidedLoss	True
119.225	0.29	Lose2	0.8332999999999999	0.004	Yes	2.721	-0.004	3.0	GoodResponse	0	0.206	118.431	1	11	Target	AvoidedLoss	True
119.431	0.3	Lose2	0.8332999999999999	0.004	Yes	2.721	-0.004	3.0	GoodResponse	0	0.206	n/a	1	11	ButtonPress	AvoidedLoss	True
119.526	0.41	Lose2	0.8332999999999999	n/a	Yes	2.721	n/a	n/a	GoodResponse	0	n/a	n/a	1	11	Blank	AvoidedLoss	True
119.927	1.45	Lose2	0.8332999999999999	n/a	Yes	2.721	n/a	5.0	GoodResponse	0	0.047	118.974	1	11	Feedback	AvoidedLoss	True
121.382	2.721	Lose2	0.8332999999999999	n/a	Yes	2.721	n/a	n/a	GoodResponse	0	0.0	n/a	1	11	ISIslide	AvoidedLoss	True
124.123	0.25	Control	0.7692	0.0	No	2.977	0.023	n/a	NoResponse	0	n/a	n/a	1	12	Cue	Neutral	True
124.374	3.9	Control	0.7692	0.0	No	2.977	0.001	n/a	NoResponse	0	n/a	n/a	1	12	Fixation	Neutral	True
128.269	0.28	Control	0.7692	0.004	No	2.977	-0.004	3.0	NoResponse	0	0.294	127.563	1	12	Target	Neutral	True
128.553	0.42	Control	0.7692	n/a	No	2.977	n/a	n/a	NoResponse	0	n/a	n/a	1	12	Blank	Neutral	True
128.563	0.3	Control	0.7692	0.004	No	2.977	-0.004	3.0	NoResponse	0	0.294	n/a	1	12	ButtonPress	Neutral	True
128.971	1.45	Control	0.7692	n/a	No	2.977	n/a	5.0	NoResponse	0	0.028	127.999	1	12	Feedback	Neutral	True
130.425	2.977	Control	0.7692	n/a	No	2.977	n/a	n/a	NoResponse	0	0.0	n/a	1	12	ISIslide	Neutral	True
133.418	0.25	Control	0.7857	0.0	Yes	2.782	0.018	n/a	GoodResponse	0	n/a	n/a	1	13	Cue	Neutral	True
133.668	4.0	Control	0.7857	0.0	Yes	2.782	0.0	n/a	GoodResponse	0	n/a	n/a	1	13	Fixation	Neutral	True
137.664	0.27	Control	0.7857	0.004	Yes	2.782	-0.004	3.0	GoodResponse	0	0.218	136.882	1	13	Target	Neutral	True
137.882	0.3	Control	0.7857	0.004	Yes	2.782	-0.004	3.0	GoodResponse	0	0.218	n/a	1	13	ButtonPress	Neutral	True
137.948	0.43	Control	0.7857	n/a	Yes	2.782	n/a	n/a	GoodResponse	0	n/a	n/a	1	13	Blank	Neutral	True
138.366	1.45	Control	0.7857	n/a	Yes	2.782	n/a	5.0	GoodResponse	0	0.048	137.414	1	13	Feedback	Neutral	True
139.82	2.782	Control	0.7857	n/a	Yes	2.782	n/a	n/a	GoodResponse	0	0.0	n/a	1	13	ISIslide	Neutral	True
142.629	0.25	Win2	0.8	0.0	Yes	2.671	0.029	n/a	GoodResponse	1	n/a	n/a	2	14	Cue	Win	True
142.879	4.1	Win2	0.8	0.0	Yes	2.671	0.0	n/a	GoodResponse	1	n/a	n/a	2	14	Fixation	Win	True
146.975	0.26	Win2	0.8	0.004	Yes	2.671	-0.004	3.0	GoodResponse	1	0.216	146.191	2	14	Target	Win	True
147.191	0.3	Win2	0.8	0.004	Yes	2.671	-0.004	3.0	GoodResponse	1	0.216	n/a	2	14	ButtonPress	Win	True
147.242	0.44	Win2	0.8	n/a	Yes	2.671	n/a	n/a	GoodResponse	1	n/a	n/a	2	14	Blank	Win	True
147.677	1.45	Win2	0.8	n/a	Yes	2.671	n/a	5.0	GoodResponse	1	0.008	146.685	2	14	Feedback	Win	True
149.131	2.671	Win2	0.8	n/a	Yes	2.671	n/a	n/a	GoodResponse	1	0.0	n/a	2	14	ISIslide	Win	True
151.823	0.25	Control	0.8125	0.0	Yes	2.977	0.023	n/a	GoodResponse	0	n/a	n/a	2	15	Cue	Neutral	False
152.073	4.0	Control	0.8125	0.001	Yes	2.977	0.0	3.0	GoodResponse	0	2.431	153.504	2	15	Fixation	Neutral	False
154.504	0.3	Control	0.8125	0.001	Yes	2.977	0.0	3.0	GoodResponse	0	2.431	n/a	2	15	ButtonPress	Neutral	False
156.069	0.25	Control	0.8125	0.004	Yes	2.977	-0.004	3.0	GoodResponse	0	0.195	155.264	2	15	Target	Neutral	False
156.264	0.3	Control	0.8125	0.004	Yes	2.977	-0.004	3.0	GoodResponse	0	0.195	n/a	2	15	ButtonPress	Neutral	False
156.32	0.45	Control	0.8125	n/a	Yes	2.977	n/a	n/a	GoodResponse	0	n/a	n/a	2	15	Blank	Neutral	False
156.771	1.45	Control	0.8125	n/a	Yes	2.977	n/a	5.0	GoodResponse	0	0.032	155.803	2	15	Feedback	Neutral	False
158.225	2.977	Control	0.8125	n/a	Yes	2.977	n/a	n/a	GoodResponse	0	0.0	n/a	2	15	ISIslide	Neutral	False
161.218	0.25	Win2	0.7646999999999999	0.0	No	2.882	0.018	n/a	NoResponse	0	n/a	n/a	2	16	Cue	MissedWin	True
161.468	4.0	Win2	0.7646999999999999	0.0	No	2.882	0.0	n/a	NoResponse	0	n/a	n/a	2	16	Fixation	MissedWin	True
165.464	0.24	Win2	0.7646999999999999	0.004	No	2.882	-0.004	3.0	NoResponse	0	0.427	164.891	2	16	Target	MissedWin	True
165.714	0.46	Win2	0.7646999999999999	n/a	No	2.882	n/a	n/a	NoResponse	0	n/a	n/a	2	16	Blank	MissedWin	True
165.891	0.3	Win2	0.7646999999999999	0.004	No	2.882	-0.004	3.0	NoResponse	0	0.427	n/a	2	16	ButtonPress	MissedWin	True
166.166	1.45	Win2	0.7646999999999999	n/a	No	2.882	n/a	5.0	NoResponse	0	0.007	165.173	2	16	Feedback	MissedWin	True
167.62	2.882	Win2	0.7646999999999999	n/a	No	2.882	n/a	n/a	NoResponse	0	0.0	n/a	2	16	ISIslide	MissedWin	True
170.529	0.25	Lose2	0.7778	0.0	Yes	2.721	0.029	n/a	GoodResponse	0	n/a	n/a	2	17	Cue	AvoidedLoss	True
170.78	3.95	Lose2	0.7778	0.0	Yes	2.721	0.001	n/a	GoodResponse	0	n/a	n/a	2	17	Fixation	AvoidedLoss	True
174.725	0.23	Lose2	0.7778	0.004	Yes	2.721	-0.004	3.0	GoodResponse	0	0.188	173.913	2	17	Target	AvoidedLoss	True
174.913	0.3	Lose2	0.7778	0.004	Yes	2.721	-0.004	3.0	GoodResponse	0	0.188	n/a	2	17	ButtonPress	AvoidedLoss	True
174.959	0.47	Lose2	0.7778	n/a	Yes	2.721	n/a	n/a	GoodResponse	0	n/a	n/a	2	17	Blank	AvoidedLoss	True
175.427	1.45	Lose2	0.7778	n/a	Yes	2.721	n/a	5.0	GoodResponse	0	0.011	174.438	2	17	Feedback	AvoidedLoss	True
176.881	2.721	Lose2	0.7778	n/a	Yes	2.721	n/a	n/a	GoodResponse	0	0.0	n/a	2	17	ISIslide	AvoidedLoss	True
179.623	0.25	Lose2	0.7368000000000001	0.0	No	2.727	0.023	n/a	NoResponse	-1	n/a	n/a	1	18	Cue	Loss	True
179.873	4.05	Lose2	0.7368000000000001	0.001	No	2.727	0.0	n/a	NoResponse	-1	n/a	n/a	1	18	Fixation	Loss	True
183.919	0.22	Lose2	0.7368000000000001	0.004	No	2.727	-0.004	3.0	NoResponse	-1	0.271	183.19	1	18	Target	Loss	True
184.153	0.48	Lose2	0.7368000000000001	n/a	No	2.727	n/a	n/a	NoResponse	-1	n/a	n/a	1	18	Blank	Loss	True
184.19	0.3	Lose2	0.7368000000000001	0.004	No	2.727	-0.004	3.0	NoResponse	-1	0.271	n/a	1	18	ButtonPress	Loss	True
184.621	1.45	Lose2	0.7368000000000001	n/a	No	2.727	n/a	5.0	NoResponse	-1	0.036	183.657	1	18	Feedback	Loss	True
186.075	2.727	Lose2	0.7368000000000001	n/a	No	2.727	n/a	n/a	NoResponse	-1	0.0	n/a	1	18	ISIslide	Loss	True
188.817	0.25	Control	0.75	0.0	Yes	2.933	0.017	n/a	GoodResponse	0	n/a	n/a	1	19	Cue	Neutral	True
189.068	3.95	Control	0.75	0.0	Yes	2.933	0.001	n/a	GoodResponse	0	n/a	n/a	1	19	Fixation	Neutral	True
193.013	0.21	Control	0.75	0.004	Yes	2.933	-0.004	3.0	GoodResponse	0	0.19	192.203	1	19	Target	Neutral	True
193.203	0.3	Control	0.75	0.004	Yes	2.933	-0.004	3.0	GoodResponse	0	0.19	n/a	1	19	ButtonPress	Neutral	True
193.23	0.49	Control	0.75	n/a	Yes	2.933	n/a	n/a	GoodResponse	0	n/a	n/a	1	19	Blank	Neutral	True
193.715	1.45	Control	0.75	n/a	Yes	2.933	n/a	5.0	GoodResponse	0	0.015	192.73	1	19	Feedback	Neutral	True
195.169	2.933	Control	0.75	n/a	Yes	2.933	n/a	n/a	GoodResponse	0	0.0	n/a	1	19	ISIslide	Neutral	True
198.128	0.25	Control	0.7143	0.0	No	2.622	0.028	n/a	NoResponse	0	n/a	n/a	1	20	Cue	Neutral	True
198.379	4.05	Control	0.7143	0.0	No	2.622	0.001	n/a	NoResponse	0	n/a	n/a	1	20	Fixation	Neutral	True
202.424	0.2	Control	0.7143	0.004	No	2.622	-0.004	3.0	NoResponse	0	0.22	201.644	1	20	Target	Neutral	True
202.625	0.5	Control	0.7143	n/a	No	2.622	n/a	n/a	NoResponse	0	n/a	n/a	1	20	Blank	Neutral	True
202.644	0.3	Control	0.7143	0.004	No	2.622	-0.004	3.0	NoResponse	0	0.22	n/a	1	20	ButtonPress	Neutral	True
203.126	1.45	Control	0.7143	n/a	No	2.622	n/a	5.0	NoResponse	0	0.019	202.145	1	20	Feedback	Neutral	True
204.581	2.622	Control	0.7143	n/a	No	2.622	n/a	n/a	NoResponse	0	0.0	n/a	1	20	ISIslide	Neutral	True
207.222	0.25	Control	0.6818000000000001	0.0	No	2.778	0.022	n/a	NoResponse	0	n/a	n/a	1	21	Cue	Neutral	True
207.473	4.1	Control	0.6818000000000001	0.0	No	2.778	0.001	n/a	NoResponse	0	n/a	n/a	1	21	Fixation	Neutral	True
211.568	0.19	Control	0.6818000000000001	0.004	No	2.778	-0.004	3.0	NoResponse	0	0.533	211.101	1	21	Target	Neutral	True
211.769	0.51	Control	0.6818000000000001	n/a	No	2.778	n/a	n/a	NoResponse	0	n/a	n/a	1	21	Blank	Neutral	True
212.101	0.3	Control	0.6818000000000001	0.004	No	2.778	-0.004	3.0	NoResponse	0	0.533	n/a	1	21	ButtonPress	Neutral	True
212.271	1.45	Control	0.6818000000000001	n/a	No	2.778	n/a	5.0	NoResponse	0	0.044	211.315	1	21	Feedback	Neutral	True
213.725	2.778	Control	0.6818000000000001	n/a	No	2.778	n/a	n/a	NoResponse	0	0.0	n/a	1	21	ISIslide	Neutral	True
216.517	0.25	Control	0.6522	0.0	No	2.783	0.017	n/a	NoResponse	0	n/a	n/a	1	22	Cue	Neutral	True
216.767	4.0	Control	0.6522	0.0	No	2.783	0.0	n/a	NoResponse	0	n/a	n/a	1	22	Fixation	Neutral	True
220.763	0.18	Control	0.6522	0.004	No	2.783	-0.004	3.0	NoResponse	0	0.255	220.018	1	22	Target	Neutral	True
220.947	0.52	Control	0.6522	n/a	No	2.783	n/a	n/a	NoResponse	0	n/a	n/a	1	22	Blank	Neutral	True
221.018	0.3	Control	0.6522	0.004	No	2.783	-0.004	3.0	NoResponse	0	0.255	n/a	1	22	ButtonPress	Neutral	True
221.465	1.45	Control	0.6522	n/a	No	2.783	n/a	5.0	NoResponse	0	0.021	220.486	1	22	Feedback	Neutral	True
222.919	2.783	Control	0.6522	n/a	No	2.783	n/a	n/a	NoResponse	0	0.0	n/a	1	22	ISIslide	Neutral	True
225.728	0.25	Control	0.6667000000000001	0.0	Yes	2.772	0.028	n/a	GoodResponse	0	n/a	n/a	1	23	Cue	Neutral	True
225.978	3.9	Control	0.6667000000000001	0.0	Yes	2.772	0.0	n/a	GoodResponse	0	n/a	n/a	1	23	Fixation	Neutral	True
229.89	0.19	Control	0.6667000000000001	0.0	Yes	2.772	0.012	3.0	GoodResponse	0	0.181	229.071	1	23	Target	Neutral	True
230.071	0.3	Control	0.6667000000000001	0.0	Yes	2.772	0.012	3.0	GoodResponse	0	0.181	n/a	1	23	ButtonPress	Neutral	True
230.074	0.51	Control	0.6667000000000001	n/a	Yes	2.772	n/a	n/a	GoodResponse	0	n/a	n/a	1	23	Blank	Neutral	True
230.575	1.45	Control	0.6667000000000001	n/a	Yes	2.772	n/a	5.0	GoodResponse	0	0.033	229.608	1	23	Feedback	Neutral	True
232.03	2.772	Control	0.6667000000000001	n/a	Yes	2.772	n/a	n/a	GoodResponse	0	0.0	n/a	1	23	ISIslide	Neutral	True
234.821	0.25	Win2	0.64	0.001	No	3.129	0.021	n/a	NoResponse	0	n/a	n/a	1	24	Cue	MissedWin	False
235.072	3.95	Win2	0.64	0.0	No	3.129	0.001	n/a	NoResponse	0	n/a	n/a	1	24	Fixation	MissedWin	False
239.017	0.18	Win2	0.64	0.004	No	3.129	-0.004	n/a	NoResponse	0	n/a	n/a	1	24	Target	MissedWin	False
239.201	0.52	Win2	0.64	n/a	No	3.129	n/a	n/a	NoResponse	0	n/a	n/a	1	24	Blank	MissedWin	False
239.719	1.45	Win2	0.64	n/a	No	3.129	n/a	5.0	NoResponse	0	0.011	238.73	1	24	Feedback	MissedWin	False
241.174	3.129	Win2	0.64	n/a	No	3.129	n/a	n/a	NoResponse	0	0.0	n/a	1	24	ISIslide	MissedWin	False
244.317	0.25	Win2	0.6537999999999999	0.0	Yes	3.083	0.017	3.0	GoodResponse	1	0.248	243.565	2	25	Cue	Win	False
244.565	0.3	Win2	0.6537999999999999	0.0	Yes	3.083	0.017	3.0	GoodResponse	1	0.248	n/a	2	25	ButtonPress	Win	False
244.567	4.0	Win2	0.6537999999999999	0.0	Yes	3.083	0.0	3.0	GoodResponse	1	3.505	247.072	2	25	Fixation	Win	False
248.072	0.3	Win2	0.6537999999999999	0.0	Yes	3.083	0.0	3.0	GoodResponse	1	3.505	n/a	2	25	ButtonPress	Win	False
248.563	0.19	Win2	0.6537999999999999	0.004	Yes	3.083	-0.004	3.0	GoodResponse	1	0.164	247.727	2	25	Target	Win	False
248.727	0.3	Win2	0.6537999999999999	0.004	Yes	3.083	-0.004	3.0	GoodResponse	1	0.164	n/a	2	25	ButtonPress	Win	False
248.763	0.51	Win2	0.6537999999999999	n/a	Yes	3.083	n/a	n/a	GoodResponse	1	n/a	n/a	2	25	Blank	Win	False
249.265	1.45	Win2	0.6537999999999999	n/a	Yes	3.083	n/a	5.0	GoodResponse	1	0.026	248.291	2	25	Feedback	Win	False
250.719	3.083	Win2	0.6537999999999999	n/a	Yes	3.083	n/a	n/a	GoodResponse	1	0.0	n/a	2	25	ISIslide	Win	False
253.828	0.25	Win2	0.6296	0.0	No	2.922	0.028	n/a	NoResponse	0	n/a	n/a	2	26	Cue	MissedWin	False
254.079	3.95	Win2	0.6296	0.0	No	2.922	0.001	n/a	NoResponse	0	n/a	n/a	2	26	Fixation	MissedWin	False
258.024	0.2	Win2	0.6296	0.004	No	2.922	-0.004	n/a	NoResponse	0	n/a	n/a	2	26	Target	MissedWin	False
258.225	0.5	Win2	0.6296	n/a	No	2.922	n/a	n/a	NoResponse	0	n/a	n/a	2	26	Blank	MissedWin	False
258.726	1.45	Win2	0.6296	n/a	No	2.922	n/a	5.0	NoResponse	0	0.029	257.755	2	26	Feedback	MissedWin	False
260.181	2.922	Win2	0.6296	n/a	No	2.922	n/a	n/a	NoResponse	0	0.0	n/a	2	26	ISIslide	MissedWin	False
263.123	0.25	Lose2	0.6071	0.0	No	2.827	0.023	n/a	NoResponse	-1	n/a	n/a	1	27	Cue	Loss	True
263.374	4.05	Lose2	0.6071	0.0	No	2.827	0.001	n/a	NoResponse	-1	n/a	n/a	1	27	Fixation	Loss	True
267.419	0.21	Lose2	0.6071	0.004	No	2.827	-0.004	3.0	NoResponse	-1	0.252	266.671	1	27	Target	Loss	True
267.636	0.49	Lose2	0.6071	n/a	No	2.827	n/a	n/a	NoResponse	-1	n/a	n/a	1	27	Blank	Loss	True
267.671	0.3	Lose2	0.6071	0.004	No	2.827	-0.004	3.0	NoResponse	-1	0.252	n/a	1	27	ButtonPress	Loss	True
268.121	1.45	Lose2	0.6071	n/a	No	2.827	n/a	5.0	NoResponse	-1	0.047	267.168	1	27	Feedback	Loss	True
269.576	2.827	Lose2	0.6071	n/a	No	2.827	n/a	n/a	NoResponse	-1	0.0	n/a	1	27	ISIslide	Loss	True
272.417	0.25	Control	0.6207	0.001	Yes	2.833	0.017	n/a	GoodResponse	0	n/a	n/a	1	28	Cue	Neutral	True
272.668	4.05	Control	0.6207	0.0	Yes	2.833	0.001	n/a	GoodResponse	0	n/a	n/a	1	28	Fixation	Neutral	True
276.714	0.22	Control	0.6207	0.003	Yes	2.833	-0.003	3.0	GoodResponse	0	0.185	275.899	1	28	Target	Neutral	True
276.899	0.3	Control	0.6207	0.003	Yes	2.833	-0.003	3.0	GoodResponse	0	0.185	n/a	1	28	ButtonPress	Neutral	True
276.948	0.48	Control	0.6207	n/a	Yes	2.833	n/a	n/a	GoodResponse	0	n/a	n/a	1	28	Blank	Neutral	True
277.416	1.45	Control	0.6207	n/a	Yes	2.833	n/a	5.0	GoodResponse	0	0.021	276.437	1	28	Feedback	Neutral	True
278.87	2.833	Control	0.6207	n/a	Yes	2.833	n/a	n/a	GoodResponse	0	0.0	n/a	1	28	ISIslide	Neutral	True
281.729	0.25	Lose2	0.6	0.0	No	2.821	0.029	n/a	PrematurePress	-1	n/a	n/a	0	29	Cue	Loss	False
281.979	3.95	Lose2	0.6	0.0	No	2.821	0.0	3.0	PrematurePress	-1	3.448	284.427	0	29	Fixation	Loss	False
285.427	0.3	Lose2	0.6	0.0	No	2.821	0.0	3.0	PrematurePress	-1	3.448	n/a	0	29	ButtonPress	Loss	False
285.925	0.23	Lose2	0.6	0.004	No	2.821	-0.004	3.0	PrematurePress	-1	0.046	284.971	0	29	Target	Loss	False
285.971	0.3	Lose2	0.6	0.004	No	2.821	-0.004	3.0	PrematurePress	-1	0.046	n/a	0	29	ButtonPress	Loss	False
286.159	0.47	Lose2	0.6	n/a	No	2.821	n/a	n/a	PrematurePress	-1	n/a	n/a	0	29	Blank	Loss	False
286.627	1.45	Lose2	0.6	n/a	No	2.821	n/a	5.0	PrematurePress	-1	0.029	285.656	0	29	Feedback	Loss	False
288.081	2.821	Lose2	0.6	n/a	No	2.821	n/a	n/a	PrematurePress	-1	0.0	n/a	0	29	ISIslide	Loss	False
290.923	0.25	Win2	0.6129	0.0	Yes	2.777	0.023	n/a	GoodResponse	1	n/a	n/a	1	30	Cue	Win	True
291.174	3.9	Win2	0.6129	0.0	Yes	2.777	0.001	n/a	GoodResponse	1	n/a	n/a	1	30	Fixation	Win	True
295.069	0.24	Win2	0.6129	0.004	Yes	2.777	-0.004	3.0	GoodResponse	1	0.203	294.272	1	30	Target	Win	True
295.272	0.3	Win2	0.6129	0.004	Yes	2.777	-0.004	3.0	GoodResponse	1	0.203	n/a	1	30	ButtonPress	Win	True
295.319	0.46	Win2	0.6129	n/a	Yes	2.777	n/a	n/a	GoodResponse	1	n/a	n/a	1	30	Blank	Win	True
295.771	1.45	Win2	0.6129	n/a	Yes	2.777	n/a	5.0	GoodResponse	1	0.007	294.778	1	30	Feedback	Win	True
297.225	2.777	Win2	0.6129	n/a	Yes	2.777	n/a	n/a	GoodResponse	1	0.0	n/a	1	30	ISIslide	Win	True
300.017	0.25	Lose2	0.5938	0.0	No	2.833	0.017	n/a	NoResponse	-1	n/a	n/a	0	31	Cue	Loss	False
300.268	4.05	Lose2	0.5938	0.0	No	2.833	0.001	3.0	NoResponse	-1	3.039	302.307	0	31	Fixation	Loss	False
303.307	0.3	Lose2	0.5938	0.0	No	2.833	0.001	3.0	NoResponse	-1	3.039	n/a	0	31	ButtonPress	Loss	False
304.313	0.25	Lose2	0.5938	0.004	No	2.833	-0.004	3.0	NoResponse	-1	0.261	303.574	0	31	Target	Loss	False
304.564	0.45	Lose2	0.5938	n/a	No	2.833	n/a	n/a	NoResponse	-1	n/a	n/a	0	31	Blank	Loss	False
304.574	0.3	Lose2	0.5938	0.004	No	2.833	-0.004	3.0	NoResponse	-1	0.261	n/a	0	31	ButtonPress	Loss	False
305.015	1.45	Lose2	0.5938	n/a	No	2.833	n/a	5.0	NoResponse	-1	0.032	304.047	0	31	Feedback	Loss	False
306.469	2.833	Lose2	0.5938	n/a	No	2.833	n/a	n/a	NoResponse	-1	0.0	n/a	0	31	ISIslide	Loss	False
309.328	0.25	Lose2	0.6061	0.0	Yes	2.622	0.028	n/a	GoodResponse	0	n/a	n/a	0	32	Cue	AvoidedLoss	True
309.579	4.15	Lose2	0.6061	0.0	Yes	2.622	0.001	n/a	GoodResponse	0	n/a	n/a	0	32	Fixation	AvoidedLoss	True
313.725	0.26	Lose2	0.6061	0.003	Yes	2.622	-0.003	3.0	GoodResponse	0	0.251	312.976	0	32	Target	AvoidedLoss	True
313.976	0.3	Lose2	0.6061	0.003	Yes	2.622	-0.003	3.0	GoodResponse	0	0.251	n/a	0	32	ButtonPress	AvoidedLoss	True
313.992	0.44	Lose2	0.6061	n/a	Yes	2.622	n/a	n/a	GoodResponse	0	n/a	n/a	0	32	Blank	AvoidedLoss	True
314.427	1.45	Lose2	0.6061	n/a	Yes	2.622	n/a	5.0	GoodResponse	0	0.034	313.461	0	32	Feedback	AvoidedLoss	True
315.881	2.622	Lose2	0.6061	n/a	Yes	2.622	n/a	n/a	GoodResponse	0	0.0	n/a	0	32	ISIslide	AvoidedLoss	True
318.522	0.25	Win2	0.6175999999999999	0.0	Yes	2.678	0.022	n/a	GoodResponse	1	n/a	n/a	1	33	Cue	Win	True
318.773	4.0	Win2	0.6175999999999999	0.0	Yes	2.678	0.001	n/a	GoodResponse	1	n/a	n/a	1	33	Fixation	Win	True
322.768	0.27	Win2	0.6175999999999999	0.004	Yes	2.678	-0.004	3.0	GoodResponse	1	0.208	321.976	1	33	Target	Win	True
322.976	0.3	Win2	0.6175999999999999	0.004	Yes	2.678	-0.004	3.0	GoodResponse	1	0.208	n/a	1	33	ButtonPress	Win	True
323.052	0.43	Win2	0.6175999999999999	n/a	Yes	2.678	n/a	n/a	GoodResponse	1	n/a	n/a	1	33	Blank	Win	True
323.47	1.45	Win2	0.6175999999999999	n/a	Yes	2.678	n/a	5.0	GoodResponse	1	0.016	322.486	1	33	Feedback	Win	True
324.925	2.678	Win2	0.6175999999999999	n/a	Yes	2.678	n/a	n/a	GoodResponse	1	0.0	n/a	1	33	ISIslide	Win	True
327.616	0.25	Lose2	0.6286	0.0	Yes	2.634	0.016	n/a	GoodResponse	0	n/a	n/a	1	34	Cue	AvoidedLoss	True
327.867	4.05	Lose2	0.6286	0.0	Yes	2.634	0.001	n/a	GoodResponse	0	n/a	n/a	1	34	Fixation	AvoidedLoss	True
331.912	0.28	Lose2	0.6286	0.004	Yes	2.634	-0.004	3.0	GoodResponse	0	0.184	331.096	1	34	Target	AvoidedLoss	True
332.096	0.3	Lose2	0.6286	0.004	Yes	2.634	-0.004	3.0	GoodResponse	0	0.184	n/a	1	34	ButtonPress	AvoidedLoss	True
332.197	0.42	Lose2	0.6286	n/a	Yes	2.634	n/a	n/a	GoodResponse	0	n/a	n/a	1	34	Blank	AvoidedLoss	True
332.614	1.45	Lose2	0.6286	n/a	Yes	2.634	n/a	5.0	GoodResponse	0	0.042	331.656	1	34	Feedback	AvoidedLoss	True
334.069	2.634	Lose2	0.6286	n/a	Yes	2.634	n/a	n/a	GoodResponse	0	0.0	n/a	1	34	ISIslide	AvoidedLoss	True
336.727	0.25	Lose2	0.6111	0.0	No	2.673	0.027	n/a	NoResponse	-1	n/a	n/a	0	35	Cue	Loss	False
336.978	4.0	Lose2	0.6111	0.0	No	2.673	0.001	n/a	NoResponse	-1	n/a	n/a	0	35	Fixation	Loss	False
340.973	0.29	Lose2	0.6111	0.004	No	2.673	-0.004	n/a	NoResponse	-1	n/a	n/a	0	35	Target	Loss	False
341.274	0.41	Lose2	0.6111	n/a	No	2.673	n/a	n/a	NoResponse	-1	n/a	n/a	0	35	Blank	Loss	False
341.675	1.45	Lose2	0.6111	n/a	No	2.673	n/a	5.0	NoResponse	-1	0.008	340.683	0	35	Feedback	Loss	False
343.129	2.673	Lose2	0.6111	n/a	No	2.673	n/a	n/a	NoResponse	-1	0.0	n/a	0	35	ISIslide	Loss	False
345.821	0.25	Control	0.6215999999999999	0.0	Yes	2.679	0.021	n/a	GoodResponse	0	n/a	n/a	0	36	Cue	Neutral	True
346.071	4.0	Control	0.6215999999999999	0.001	Yes	2.679	0.0	n/a	GoodResponse	0	n/a	n/a	0	36	Fixation	Neutral	True
350.067	0.3	Control	0.6215999999999999	0.004	Yes	2.679	-0.004	3.0	GoodResponse	0	0.181	349.248	0	36	Target	Neutral	True
350.248	0.3	Control	0.6215999999999999	0.004	Yes	2.679	-0.004	3.0	GoodResponse	0	0.181	n/a	0	36	ButtonPress	Neutral	True
350.368	0.4	Control	0.6215999999999999	n/a	Yes	2.679	n/a	n/a	GoodResponse	0	n/a	n/a	0	36	Blank	Neutral	True
350.769	1.45	Control	0.6215999999999999	n/a	Yes	2.679	n/a	5.0	GoodResponse	0	0.033	349.802	0	36	Feedback	Neutral	True
352.223	2.679	Control	0.6215999999999999	n/a	Yes	2.679	n/a	n/a	GoodResponse	0	0.0	n/a	0	36	ISIslide	Neutral	True
354.931	0.25	Win2	0.6315999999999999	0.0	Yes	2.869	0.031	n/a	GoodResponse	1	n/a	n/a	1	37	Cue	Win	True
355.182	4.0	Win2	0.6315999999999999	0.0	Yes	2.869	0.001	n/a	GoodResponse	1	n/a	n/a	1	37	Fixation	Win	True
359.177	0.31	Win2	0.6315999999999999	0.004	Yes	2.869	-0.004	3.0	GoodResponse	1	0.218	358.395	1	37	Target	Win	True
359.395	0.3	Win2	0.6315999999999999	0.004	Yes	2.869	-0.004	3.0	GoodResponse	1	0.218	n/a	1	37	ButtonPress	Win	True
359.495	0.39	Win2	0.6315999999999999	n/a	Yes	2.869	n/a	n/a	GoodResponse	1	n/a	n/a	1	37	Blank	Win	True
359.879	1.45	Win2	0.6315999999999999	n/a	Yes	2.869	n/a	5.0	GoodResponse	1	0.045	358.924	1	37	Feedback	Win	True
361.334	2.869	Win2	0.6315999999999999	n/a	Yes	2.869	n/a	n/a	GoodResponse	1	0.0	n/a	1	37	ISIslide	Win	True
364.226	0.25	Lose2	0.6154	0.0	No	2.824	0.026	n/a	NoResponse	-1	n/a	n/a	0	38	Cue	Loss	False
364.477	3.95	Lose2	0.6154	0.0	No	2.824	0.001	n/a	NoResponse	-1	n/a	n/a	0	38	Fixation	Loss	False
368.422	0.32	Lose2	0.6154	0.004	No	2.824	-0.004	n/a	NoResponse	-1	n/a	n/a	0	38	Target	Loss	False
368.756	0.38	Lose2	0.6154	n/a	No	2.824	n/a	n/a	NoResponse	-1	n/a	n/a	0	38	Blank	Loss	False
369.124	1.45	Lose2	0.6154	n/a	No	2.824	n/a	5.0	NoResponse	-1	0.02	368.144	0	38	Feedback	Loss	False
370.578	2.824	Lose2	0.6154	n/a	No	2.824	n/a	n/a	NoResponse	-1	0.0	n/a	0	38	ISIslide	Loss	False
373.42	0.25	Win2	0.625	0.0	Yes	2.98	0.02	n/a	GoodResponse	1	n/a	n/a	1	39	Cue	Win	True
373.671	4.1	Win2	0.625	0.0	Yes	2.98	0.001	n/a	GoodResponse	1	n/a	n/a	1	39	Fixation	Win	True
377.766	0.33	Win2	0.625	0.004	Yes	2.98	-0.004	3.0	GoodResponse	1	0.161	376.927	1	39	Target	Win	True
377.927	0.3	Win2	0.625	0.004	Yes	2.98	-0.004	3.0	GoodResponse	1	0.161	n/a	1	39	ButtonPress	Win	True
378.101	0.37	Win2	0.625	n/a	Yes	2.98	n/a	n/a	GoodResponse	1	n/a	n/a	1	39	Blank	Win	True
378.469	1.45	Win2	0.625	n/a	Yes	2.98	n/a	5.0	GoodResponse	1	0.041	377.51	1	39	Feedback	Win	True
379.923	2.98	Win2	0.625	n/a	Yes	2.98	n/a	n/a	GoodResponse	1	0.0	n/a	1	39	ISIslide	Win	True
382.915	0.25	Win2	0.6098	0.0	No	2.735	0.015	n/a	NoResponse	0	n/a	n/a	1	40	Cue	MissedWin	False
383.166	3.95	Win2	0.6098	0.0	No	2.735	0.001	n/a	NoResponse	0	n/a	n/a	1	40	Fixation	MissedWin	False
387.111	0.34	Win2	0.6098	0.004	No	2.735	-0.004	n/a	NoResponse	0	n/a	n/a	1	40	Target	MissedWin	False
387.462	0.36	Win2	0.6098	n/a	No	2.735	n/a	n/a	NoResponse	0	n/a	n/a	1	40	Blank	MissedWin	False
387.813	1.45	Win2	0.6098	n/a	No	2.735	n/a	5.0	NoResponse	0	0.013	386.826	1	40	Feedback	MissedWin	False
389.268	2.735	Win2	0.6098	n/a	No	2.735	n/a	n/a	NoResponse	0	0.0	n/a	1	40	ISIslide	MissedWin	False
392.026	0.25	Win2	0.619	0.0	Yes	2.774	0.026	n/a	GoodResponse	1	n/a	n/a	2	41	Cue	Win	True
392.277	3.9	Win2	0.619	0.0	Yes	2.774	0.001	n/a	GoodResponse	1	n/a	n/a	2	41	Fixation	Win	True
396.172	0.35	Win2	0.619	0.004	Yes	2.774	-0.004	3.0	GoodResponse	1	0.174	395.346	2	41	Target	Win	True
396.346	0.3	Win2	0.619	0.004	Yes	2.774	-0.004	3.0	GoodResponse	1	0.174	n/a	2	41	ButtonPress	Win	True
396.523	0.35	Win2	0.619	n/a	Yes	2.774	n/a	n/a	GoodResponse	1	n/a	n/a	2	41	Blank	Win	True
396.874	1.45	Win2	0.619	n/a	Yes	2.774	n/a	5.0	GoodResponse	1	0.025	395.899	2	41	Feedback	Win	True
398.328	2.774	Win2	0.619	n/a	Yes	2.774	n/a	n/a	GoodResponse	1	0.0	n/a	2	41	ISIslide	Win	True
401.12	0.25	Control	0.6279	0.0	Yes	2.93	0.02	n/a	GoodResponse	0	n/a	n/a	2	42	Cue	Neutral	True
401.37	3.85	Control	0.6279	0.001	Yes	2.93	0.0	n/a	GoodResponse	0	n/a	n/a	2	42	Fixation	Neutral	True
405.232	0.36	Control	0.6279	0.0	Yes	2.93	0.012	3.0	GoodResponse	0	0.23	404.462	2	42	Target	Neutral	True
405.462	0.3	Control	0.6279	0.0	Yes	2.93	0.012	3.0	GoodResponse	0	0.23	n/a	2	42	ButtonPress	Neutral	True
405.583	0.34	Control	0.6279	n/a	Yes	2.93	n/a	n/a	GoodResponse	0	n/a	n/a	2	42	Blank	Neutral	True
405.917	1.45	Control	0.6279	n/a	Yes	2.93	n/a	5.0	GoodResponse	0	0.01	404.927	2	42	Feedback	Neutral	True
407.372	2.93	Control	0.6279	n/a	Yes	2.93	n/a	n/a	GoodResponse	0	0.0	n/a	2	42	ISIslide	Neutral	True
410.331	0.25	Win2	0.6136	0.0	No	3.169	0.031	n/a	NoResponse	0	n/a	n/a	2	43	Cue	MissedWin	False
410.581	4.0	Win2	0.6136	0.001	No	3.169	0.0	n/a	NoResponse	0	n/a	n/a	2	43	Fixation	MissedWin	False
414.577	0.37	Win2	0.6136	0.004	No	3.169	-0.004	n/a	NoResponse	0	n/a	n/a	2	43	Target	MissedWin	False
414.961	0.33	Win2	0.6136	n/a	No	3.169	n/a	n/a	NoResponse	0	n/a	n/a	2	43	Blank	MissedWin	False
415.279	1.45	Win2	0.6136	n/a	No	3.169	n/a	5.0	NoResponse	0	0.011	414.29	2	43	Feedback	MissedWin	False
416.733	3.169	Win2	0.6136	n/a	No	3.169	n/a	n/a	NoResponse	0	0.0	n/a	2	43	ISIslide	MissedWin	False
419.926	0.25	Win2	0.6	0.0	No	2.974	0.026	n/a	NoResponse	0	n/a	n/a	2	44	Cue	MissedWin	False
420.177	4.0	Win2	0.6	0.0	No	2.974	0.001	n/a	NoResponse	0	n/a	n/a	2	44	Fixation	MissedWin	False
424.172	0.38	Win2	0.6	0.004	No	2.974	-0.004	n/a	NoResponse	0	n/a	n/a	2	44	Target	MissedWin	False
424.557	0.32	Win2	0.6	n/a	No	2.974	n/a	n/a	NoResponse	0	n/a	n/a	2	44	Blank	MissedWin	False
424.874	1.45	Win2	0.6	n/a	No	2.974	n/a	5.0	NoResponse	0	0.026	423.9	2	44	Feedback	MissedWin	False
426.329	2.974	Win2	0.6	n/a	No	2.974	n/a	n/a	NoResponse	0	0.0	n/a	2	44	ISIslide	MissedWin	False
429.321	0.25	Control	0.6087	0.0	Yes	2.879	0.021	n/a	GoodResponse	0	n/a	n/a	2	45	Cue	Neutral	True
429.572	4.1	Control	0.6087	0.0	Yes	2.879	0.001	n/a	GoodResponse	0	n/a	n/a	2	45	Fixation	Neutral	True
433.667	0.39	Control	0.6087	0.004	Yes	2.879	-0.004	3.0	GoodResponse	0	0.197	432.864	2	45	Target	Neutral	True
433.864	0.3	Control	0.6087	0.004	Yes	2.879	-0.004	3.0	GoodResponse	0	0.197	n/a	2	45	ButtonPress	Neutral	True
434.068	0.31	Control	0.6087	n/a	Yes	2.879	n/a	n/a	GoodResponse	0	n/a	n/a	2	45	Blank	Neutral	True
434.369	1.45	Control	0.6087	n/a	Yes	2.879	n/a	5.0	GoodResponse	0	0.043	433.412	2	45	Feedback	Neutral	True
435.824	2.879	Control	0.6087	n/a	Yes	2.879	n/a	n/a	GoodResponse	0	0.0	n/a	2	45	ISIslide	Neutral	True
438.716	0.25	Lose2	0.5957	0.0	No	3.384	0.016	n/a	NoResponse	-1	n/a	n/a	1	46	Cue	Loss	False
438.966	4.0	Lose2	0.5957	0.001	No	3.384	0.0	n/a	NoResponse	-1	n/a	n/a	1	46	Fixation	Loss	False
442.962	0.4	Lose2	0.5957	0.004	No	3.384	-0.004	n/a	NoResponse	-1	n/a	n/a	1	46	Target	Loss	False
443.363	0.3	Lose2	0.5957	n/a	No	3.384	n/a	n/a	NoResponse	-1	n/a	n/a	1	46	Blank	Loss	False
443.664	1.45	Lose2	0.5957	n/a	No	3.384	n/a	5.0	NoResponse	-1	0.015	442.679	1	46	Feedback	Loss	False
445.118	3.384	Lose2	0.5957	n/a	No	3.384	n/a	n/a	NoResponse	-1	0.0	n/a	1	46	ISIslide	Loss	False
448.528	0.25	Lose2	0.6042000000000001	0.001	Yes	2.672	0.028	n/a	GoodResponse	0	n/a	n/a	1	47	Cue	AvoidedLoss	True
448.779	4.0	Lose2	0.6042000000000001	0.0	Yes	2.672	0.001	n/a	GoodResponse	0	n/a	n/a	1	47	Fixation	AvoidedLoss	True
452.775	0.41	Lose2	0.6042000000000001	0.003	Yes	2.672	-0.003	3.0	GoodResponse	0	0.217	451.992	1	47	Target	AvoidedLoss	True
452.992	0.3	Lose2	0.6042000000000001	0.003	Yes	2.672	-0.003	3.0	GoodResponse	0	0.217	n/a	1	47	ButtonPress	AvoidedLoss	True
453.192	0.29	Lose2	0.6042000000000001	n/a	Yes	2.672	n/a	n/a	GoodResponse	0	n/a	n/a	1	47	Blank	AvoidedLoss	True
453.477	1.45	Lose2	0.6042000000000001	n/a	Yes	2.672	n/a	5.0	GoodResponse	0	0.007	452.484	1	47	Feedback	AvoidedLoss	True
454.931	2.672	Lose2	0.6042000000000001	n/a	Yes	2.672	n/a	n/a	GoodResponse	0	0.0	n/a	1	47	ISIslide	AvoidedLoss	True
457.622	0.25	Lose2	0.6122	0.0	Yes	3.028	0.022	n/a	GoodResponse	0	n/a	n/a	1	48	Cue	AvoidedLoss	True
457.873	3.95	Lose2	0.6122	0.0	Yes	3.028	0.001	n/a	GoodResponse	0	n/a	n/a	1	48	Fixation	AvoidedLoss	True
461.818	0.42	Lose2	0.6122	0.004	Yes	3.028	-0.004	3.0	GoodResponse	0	0.2	461.018	1	48	Target	AvoidedLoss	True
462.018	0.3	Lose2	0.6122	0.004	Yes	3.028	-0.004	3.0	GoodResponse	0	0.2	n/a	1	48	ButtonPress	AvoidedLoss	True
462.253	0.28	Lose2	0.6122	n/a	Yes	3.028	n/a	n/a	GoodResponse	0	n/a	n/a	1	48	Blank	AvoidedLoss	True
462.52	1.45	Lose2	0.6122	n/a	Yes	3.028	n/a	5.0	GoodResponse	0	0.038	461.558	1	48	Feedback	AvoidedLoss	True
463.975	3.028	Lose2	0.6122	n/a	Yes	3.028	n/a	n/a	GoodResponse	0	0.0	n/a	1	48	ISIslide	AvoidedLoss	True
467.017	0.25	Control	0.6	0.0	No	2.883	0.017	n/a	NoResponse	0	n/a	n/a	1	49	Cue	Neutral	False
467.268	4.0	Control	0.6	0.0	No	2.883	0.001	n/a	NoResponse	0	n/a	n/a	1	49	Fixation	Neutral	False
471.263	0.43	Control	0.6	0.004	No	2.883	-0.004	n/a	NoResponse	0	n/a	n/a	1	49	Target	Neutral	False
471.698	0.27	Control	0.6	n/a	No	2.883	n/a	n/a	NoResponse	0	n/a	n/a	1	49	Blank	Neutral	False
471.965	1.45	Control	0.6	n/a	No	2.883	n/a	5.0	NoResponse	0	0.008	470.973	1	49	Feedback	Neutral	False
473.42	2.883	Control	0.6	n/a	No	2.883	n/a	n/a	NoResponse	0	0.0	n/a	1	49	ISIslide	Neutral	False
476.328	0.25	Control	0.6078	0.0	Yes	2.772	0.028	n/a	GoodResponse	0	n/a	n/a	1	50	Cue	Neutral	True
476.579	4.0	Control	0.6078	0.0	Yes	2.772	0.001	n/a	GoodResponse	0	n/a	n/a	1	50	Fixation	Neutral	True
480.574	0.44	Control	0.6078	0.004	Yes	2.772	-0.004	3.0	GoodResponse	0	0.159	479.733	1	50	Target	Neutral	True
480.733	0.3	Control	0.6078	0.004	Yes	2.772	-0.004	3.0	GoodResponse	0	0.159	n/a	1	50	ButtonPress	Neutral	True
481.026	0.26	Control	0.6078	n/a	Yes	2.772	n/a	n/a	GoodResponse	0	n/a	n/a	1	50	Blank	Neutral	True
481.277	1.45	Control	0.6078	n/a	Yes	2.772	n/a	5.0	GoodResponse	0	0.013	480.29	1	50	Feedback	Neutral	True
482.731	2.772	Control	0.6078	n/a	Yes	2.772	n/a	n/a	GoodResponse	0	0.0	n/a	1	50	ISIslide	Neutral	True
485.523	0.25	Control	0.6154	0.0	Yes	2.727	0.023	n/a	GoodResponse	0	n/a	n/a	1	51	Cue	Neutral	True
485.773	3.95	Control	0.6154	0.0	Yes	2.727	0.0	n/a	GoodResponse	0	n/a	n/a	1	51	Fixation	Neutral	True
489.719	0.45	Control	0.6154	0.004	Yes	2.727	-0.004	3.0	GoodResponse	0	0.184	488.903	1	51	Target	Neutral	True
489.903	0.3	Control	0.6154	0.004	Yes	2.727	-0.004	3.0	GoodResponse	0	0.184	n/a	1	51	ButtonPress	Neutral	True
490.17	0.25	Control	0.6154	n/a	Yes	2.727	n/a	n/a	GoodResponse	0	n/a	n/a	1	51	Blank	Neutral	True
490.421	1.45	Control	0.6154	n/a	Yes	2.727	n/a	5.0	GoodResponse	0	0.039	489.46	1	51	Feedback	Neutral	True
491.875	2.727	Control	0.6154	n/a	Yes	2.727	n/a	n/a	GoodResponse	0	0.0	n/a	1	51	ISIslide	Neutral	True
494.617	0.25	Control	0.6038	0.0	No	2.633	0.017	n/a	NoResponse	0	n/a	n/a	1	52	Cue	Neutral	True
494.867	4.05	Control	0.6038	0.0	No	2.633	0.0	3.0	NoResponse	0	3.956	497.823	1	52	Fixation	Neutral	True
498.823	0.3	Control	0.6038	0.0	No	2.633	0.0	3.0	NoResponse	0	3.956	n/a	1	52	ButtonPress	Neutral	True
498.913	0.46	Control	0.6038	0.004	No	2.633	-0.004	n/a	NoResponse	0	n/a	n/a	1	52	Target	Neutral	True
499.381	0.24	Control	0.6038	n/a	No	2.633	n/a	n/a	NoResponse	0	n/a	n/a	1	52	Blank	Neutral	True
499.615	1.45	Control	0.6038	n/a	No	2.633	n/a	5.0	NoResponse	0	0.016	498.631	1	52	Feedback	Neutral	True
501.069	2.633	Control	0.6038	n/a	No	2.633	n/a	n/a	NoResponse	0	0.0	n/a	1	52	ISIslide	Neutral	True
503.727	0.25	Win2	0.6111	0.0	Yes	2.923	0.027	n/a	GoodResponse	1	n/a	n/a	2	53	Cue	Win	True
503.978	4.05	Win2	0.6111	0.0	Yes	2.923	0.001	n/a	GoodResponse	1	n/a	n/a	2	53	Fixation	Win	True
508.023	0.47	Win2	0.6111	0.004	Yes	2.923	-0.004	3.0	GoodResponse	1	0.19	507.213	2	53	Target	Win	True
508.213	0.3	Win2	0.6111	0.004	Yes	2.923	-0.004	3.0	GoodResponse	1	0.19	n/a	2	53	ButtonPress	Win	True
508.508	0.23	Win2	0.6111	n/a	Yes	2.923	n/a	n/a	GoodResponse	1	n/a	n/a	2	53	Blank	Win	True
508.725	1.45	Win2	0.6111	n/a	Yes	2.923	n/a	5.0	GoodResponse	1	0.027	507.752	2	53	Feedback	Win	True
510.18	2.923	Win2	0.6111	n/a	Yes	2.923	n/a	n/a	GoodResponse	1	0.0	n/a	2	53	ISIslide	Win	True
513.122	0.25	Win2	0.6182	0.0	Yes	2.728	0.022	n/a	GoodResponse	1	n/a	n/a	3	54	Cue	Win	True
513.373	3.95	Win2	0.6182	0.0	Yes	2.728	0.001	n/a	GoodResponse	1	n/a	n/a	3	54	Fixation	Win	True
517.318	0.48	Win2	0.6182	0.004	Yes	2.728	-0.004	3.0	GoodResponse	1	0.184	516.502	3	54	Target	Win	True
517.502	0.3	Win2	0.6182	0.004	Yes	2.728	-0.004	3.0	GoodResponse	1	0.184	n/a	3	54	ButtonPress	Win	True
517.803	0.22	Win2	0.6182	n/a	Yes	2.728	n/a	n/a	GoodResponse	1	n/a	n/a	3	54	Blank	Win	True
518.02	1.45	Win2	0.6182	n/a	Yes	2.728	n/a	5.0	GoodResponse	1	0.001	517.021	3	54	Feedback	Win	True
519.474	2.728	Win2	0.6182	n/a	Yes	2.728	n/a	n/a	GoodResponse	1	0.0	n/a	3	54	ISIslide	Win	True
522.216	0.25	Control	0.625	0.0	Yes	3.034	0.016	n/a	GoodResponse	0	n/a	n/a	3	55	Cue	Neutral	True
522.467	3.95	Control	0.625	0.0	Yes	3.034	0.001	n/a	GoodResponse	0	n/a	n/a	3	55	Fixation	Neutral	True
526.412	0.49	Control	0.625	0.004	Yes	3.034	-0.004	3.0	GoodResponse	0	0.217	525.629	3	55	Target	Neutral	True
526.629	0.3	Control	0.625	0.004	Yes	3.034	-0.004	3.0	GoodResponse	0	0.217	n/a	3	55	ButtonPress	Neutral	True
526.913	0.21	Control	0.625	n/a	Yes	3.034	n/a	n/a	GoodResponse	0	n/a	n/a	3	55	Blank	Neutral	True
527.114	1.45	Control	0.625	n/a	Yes	3.034	n/a	5.0	GoodResponse	0	0.029	526.143	3	55	Feedback	Neutral	True
528.568	3.034	Control	0.625	n/a	Yes	3.034	n/a	n/a	GoodResponse	0	0.0	n/a	3	55	ISIslide	Neutral	True
531.627	0.25	Control	0.614	0.001	No	2.823	0.027	n/a	NoResponse	0	n/a	n/a	3	56	Cue	Neutral	False
531.878	3.95	Control	0.614	0.0	No	2.823	0.001	n/a	NoResponse	0	n/a	n/a	3	56	Fixation	Neutral	False
535.823	0.5	Control	0.614	0.004	No	2.823	-0.004	n/a	NoResponse	0	n/a	n/a	3	56	Target	Neutral	False
536.325	0.2	Control	0.614	n/a	No	2.823	n/a	n/a	NoResponse	0	n/a	n/a	3	56	Blank	Neutral	False
536.525	1.45	Control	0.614	n/a	No	2.823	n/a	5.0	NoResponse	0	0.033	535.558	3	56	Feedback	Neutral	False
537.98	2.823	Control	0.614	n/a	No	2.823	n/a	n/a	NoResponse	0	0.0	n/a	3	56	ISIslide	Neutral	False
540.822	0.25	Control	0.6207	0.0	Yes	3.478	0.022	n/a	GoodResponse	0	n/a	n/a	3	57	Cue	Neutral	True
541.072	4.0	Control	0.6207	0.001	Yes	3.478	0.0	n/a	GoodResponse	0	n/a	n/a	3	57	Fixation	Neutral	True
545.068	0.5	Control	0.6207	0.004	Yes	3.478	-0.004	3.0	GoodResponse	0	0.188	544.256	3	57	Target	Neutral	True
545.256	0.3	Control	0.6207	0.004	Yes	3.478	-0.004	3.0	GoodResponse	0	0.188	n/a	3	57	ButtonPress	Neutral	True
545.569	0.2	Control	0.6207	n/a	Yes	3.478	n/a	n/a	GoodResponse	0	n/a	n/a	3	57	Blank	Neutral	True
545.77	1.45	Control	0.6207	n/a	Yes	3.478	n/a	5.0	GoodResponse	0	0.007	544.777	3	57	Feedback	Neutral	True
547.224	3.478	Control	0.6207	n/a	Yes	3.478	n/a	n/a	GoodResponse	0	0.0	n/a	3	57	ISIslide	Neutral	True
550.718	0.25	Win2	0.6271	0.0	Yes	2.732	0.018	n/a	GoodResponse	1	n/a	n/a	4	58	Cue	Win	True
550.969	4.05	Win2	0.6271	0.0	Yes	2.732	0.001	n/a	GoodResponse	1	n/a	n/a	4	58	Fixation	Win	True
555.014	0.5	Win2	0.6271	0.004	Yes	2.732	-0.004	3.0	GoodResponse	1	0.123	554.137	4	58	Target	Win	True
555.137	0.3	Win2	0.6271	0.004	Yes	2.732	-0.004	3.0	GoodResponse	1	0.123	n/a	4	58	ButtonPress	Win	True
555.516	0.2	Win2	0.6271	n/a	Yes	2.732	n/a	n/a	GoodResponse	1	n/a	n/a	4	58	Blank	Win	True
555.716	1.45	Win2	0.6271	n/a	Yes	2.732	n/a	5.0	GoodResponse	1	0.013	554.729	4	58	Feedback	Win	True
557.171	2.732	Win2	0.6271	n/a	Yes	2.732	n/a	n/a	GoodResponse	1	0.0	n/a	4	58	ISIslide	Win	True
559.929	0.25	Lose2	0.6167	0.0	No	2.671	0.029	n/a	NoResponse	-1	n/a	n/a	3	59	Cue	Loss	False
560.18	4.0	Lose2	0.6167	0.0	No	2.671	0.001	n/a	NoResponse	-1	n/a	n/a	3	59	Fixation	Loss	False
564.175	0.5	Lose2	0.6167	0.004	No	2.671	-0.004	n/a	NoResponse	-1	n/a	n/a	3	59	Target	Loss	False
564.676	0.2	Lose2	0.6167	n/a	No	2.671	n/a	n/a	NoResponse	-1	n/a	n/a	3	59	Blank	Loss	False
564.877	1.45	Lose2	0.6167	n/a	No	2.671	n/a	5.0	NoResponse	-1	0.021	563.898	3	59	Feedback	Loss	False
566.331	2.671	Lose2	0.6167	n/a	No	2.671	n/a	n/a	NoResponse	-1	0.0	n/a	3	59	ISIslide	Loss	False
569.023	0.25	Control	0.6065999999999999	0.0	No	2.677	0.023	n/a	NoResponse	0	n/a	n/a	3	60	Cue	Neutral	True
569.274	4.0	Control	0.6065999999999999	0.0	No	2.677	0.001	n/a	NoResponse	0	n/a	n/a	3	60	Fixation	Neutral	True
573.269	0.5	Control	0.6065999999999999	0.004	No	2.677	-0.004	3.0	NoResponse	0	0.568	572.837	3	60	Target	Neutral	True
573.77	0.2	Control	0.6065999999999999	n/a	No	2.677	n/a	n/a	NoResponse	0	n/a	n/a	3	60	Blank	Neutral	True
573.837	0.3	Control	0.6065999999999999	0.004	No	2.677	-0.004	3.0	NoResponse	0	0.568	n/a	3	60	ButtonPress	Neutral	True
573.971	1.45	Control	0.6065999999999999	n/a	No	2.677	n/a	5.0	NoResponse	0	0.001	572.972	3	60	Feedback	Neutral	True
575.425	2.677	Control	0.6065999999999999	n/a	No	2.677	n/a	n/a	NoResponse	0	0.0	n/a	3	60	ISIslide	Neutral	True
578.117	0.25	Lose2	0.6129	0.0	Yes	2.983	0.017	n/a	GoodResponse	0	n/a	n/a	3	61	Cue	AvoidedLoss	True
578.367	4.0	Lose2	0.6129	0.001	Yes	2.983	0.0	n/a	GoodResponse	0	n/a	n/a	3	61	Fixation	AvoidedLoss	True
582.363	0.5	Lose2	0.6129	0.004	Yes	2.983	-0.004	3.0	GoodResponse	0	0.251	581.614	3	61	Target	AvoidedLoss	True
582.614	0.3	Lose2	0.6129	0.004	Yes	2.983	-0.004	3.0	GoodResponse	0	0.251	n/a	3	61	ButtonPress	AvoidedLoss	True
582.864	0.2	Lose2	0.6129	n/a	Yes	2.983	n/a	n/a	GoodResponse	0	n/a	n/a	3	61	Blank	AvoidedLoss	True
583.065	1.45	Lose2	0.6129	n/a	Yes	2.983	n/a	5.0	GoodResponse	0	0.029	582.094	3	61	Feedback	AvoidedLoss	True
584.519	2.983	Lose2	0.6129	n/a	Yes	2.983	n/a	n/a	GoodResponse	0	0.0	n/a	3	61	ISIslide	AvoidedLoss	True
587.528	0.25	Lose2	0.619	0.0	Yes	2.872	0.028	n/a	GoodResponse	0	n/a	n/a	3	62	Cue	AvoidedLoss	True
587.779	3.9	Lose2	0.619	0.0	Yes	2.872	0.001	n/a	GoodResponse	0	n/a	n/a	3	62	Fixation	AvoidedLoss	True
591.674	0.5	Lose2	0.619	0.004	Yes	2.872	-0.004	3.0	GoodResponse	0	0.455	591.129	3	62	Target	AvoidedLoss	True
592.129	0.3	Lose2	0.619	0.004	Yes	2.872	-0.004	3.0	GoodResponse	0	0.455	n/a	3	62	ButtonPress	AvoidedLoss	True
592.176	0.2	Lose2	0.619	n/a	Yes	2.872	n/a	n/a	GoodResponse	0	n/a	n/a	3	62	Blank	AvoidedLoss	True
592.376	1.45	Lose2	0.619	n/a	Yes	2.872	n/a	5.0	GoodResponse	0	0.035	591.411	3	62	Feedback	AvoidedLoss	True
593.83	2.872	Lose2	0.619	n/a	Yes	2.872	n/a	n/a	GoodResponse	0	0.0	n/a	3	62	ISIslide	AvoidedLoss	True
596.722	0.25	Lose2	0.6093999999999999	0.001	No	2.628	0.022	n/a	NoResponse	-1	n/a	n/a	2	63	Cue	Loss	False
596.973	4.05	Lose2	0.6093999999999999	0.0	No	2.628	0.001	n/a	NoResponse	-1	n/a	n/a	2	63	Fixation	Loss	False
601.019	0.5	Lose2	0.6093999999999999	0.003	No	2.628	-0.003	n/a	NoResponse	-1	n/a	n/a	2	63	Target	Loss	False
601.52	0.2	Lose2	0.6093999999999999	n/a	No	2.628	n/a	n/a	NoResponse	-1	n/a	n/a	2	63	Blank	Loss	False
601.721	1.45	Lose2	0.6093999999999999	n/a	No	2.628	n/a	5.0	NoResponse	-1	0.007	600.728	2	63	Feedback	Loss	False
603.175	2.628	Lose2	0.6093999999999999	n/a	No	2.628	n/a	n/a	NoResponse	-1	0.0	n/a	2	63	ISIslide	Loss	False
605.816	0.25	Win2	0.6154	0.0	Yes	3.134	0.016	n/a	GoodResponse	1	n/a	n/a	3	64	Cue	Win	False
606.067	4.15	Win2	0.6154	0.0	Yes	3.134	0.001	3.0	GoodResponse	1	2.64	607.707	3	64	Fixation	Win	False
608.707	0.3	Win2	0.6154	0.0	Yes	3.134	0.001	3.0	GoodResponse	1	2.64	n/a	3	64	ButtonPress	Win	False
610.213	0.5	Win2	0.6154	0.003	Yes	3.134	-0.003	3.0	GoodResponse	1	0.163	609.376	3	64	Target	Win	False
610.376	0.3	Win2	0.6154	0.003	Yes	3.134	-0.003	3.0	GoodResponse	1	0.163	n/a	3	64	ButtonPress	Win	False
610.714	0.2	Win2	0.6154	n/a	Yes	3.134	n/a	n/a	GoodResponse	1	n/a	n/a	3	64	Blank	Win	False
610.915	1.45	Win2	0.6154	n/a	Yes	3.134	n/a	5.0	GoodResponse	1	0.033	609.948	3	64	Feedback	Win	False
612.369	3.134	Win2	0.6154	n/a	Yes	3.134	n/a	n/a	GoodResponse	1	0.0	n/a	3	64	ISIslide	Win	False
615.529	0.25	Control	0.6212	0.0	Yes	2.771	0.029	n/a	GoodResponse	0	n/a	n/a	3	65	Cue	Neutral	True
615.78	4.0	Control	0.6212	0.0	Yes	2.771	0.001	n/a	GoodResponse	0	n/a	n/a	3	65	Fixation	Neutral	True
619.775	0.5	Control	0.6212	0.004	Yes	2.771	-0.004	3.0	GoodResponse	0	0.411	619.186	3	65	Target	Neutral	True
620.186	0.3	Control	0.6212	0.004	Yes	2.771	-0.004	3.0	GoodResponse	0	0.411	n/a	3	65	ButtonPress	Neutral	True
620.276	0.2	Control	0.6212	n/a	Yes	2.771	n/a	n/a	GoodResponse	0	n/a	n/a	3	65	Blank	Neutral	True
620.477	1.45	Control	0.6212	n/a	Yes	2.771	n/a	5.0	GoodResponse	0	0.031	619.508	3	65	Feedback	Neutral	True
621.931	2.771	Control	0.6212	n/a	Yes	2.771	n/a	n/a	GoodResponse	0	0.0	n/a	3	65	ISIslide	Neutral	True
624.723	0.25	Win2	0.6119	0.0	No	2.777	0.023	n/a	NoResponse	0	n/a	n/a	3	66	Cue	MissedWin	False
624.974	3.9	Win2	0.6119	0.0	No	2.777	0.001	n/a	NoResponse	0	n/a	n/a	3	66	Fixation	MissedWin	False
628.869	0.5	Win2	0.6119	0.004	No	2.777	-0.004	n/a	NoResponse	0	n/a	n/a	3	66	Target	MissedWin	False
629.37	0.2	Win2	0.6119	n/a	No	2.777	n/a	n/a	NoResponse	0	n/a	n/a	3	66	Blank	MissedWin	False
629.571	1.45	Win2	0.6119	n/a	No	2.777	n/a	5.0	NoResponse	0	0.01	628.581	3	66	Feedback	MissedWin	False
631.025	2.777	Win2	0.6119	n/a	No	2.777	n/a	n/a	NoResponse	0	0.0	n/a	3	66	ISIslide	MissedWin	False
633.817	0.25	Control	0.6029	0.0	No	2.733	0.017	n/a	NoResponse	0	n/a	n/a	3	67	Cue	Neutral	True
634.068	3.95	Control	0.6029	0.0	No	2.733	0.001	n/a	NoResponse	0	n/a	n/a	3	67	Fixation	Neutral	True
638.013	0.5	Control	0.6029	0.004	No	2.733	-0.004	3.0	NoResponse	0	0.521	637.534	3	67	Target	Neutral	True
638.514	0.2	Control	0.6029	n/a	No	2.733	n/a	n/a	NoResponse	0	n/a	n/a	3	67	Blank	Neutral	True
638.534	0.3	Control	0.6029	0.004	No	2.733	-0.004	3.0	NoResponse	0	0.521	n/a	3	67	ButtonPress	Neutral	True
638.715	1.45	Control	0.6029	n/a	No	2.733	n/a	5.0	NoResponse	0	0.037	637.752	3	67	Feedback	Neutral	True
640.169	2.733	Control	0.6029	n/a	No	2.733	n/a	n/a	NoResponse	0	0.0	n/a	3	67	ISIslide	Neutral	True
642.928	0.25	Win2	0.5942000000000001	0.0	No	3.072	0.028	n/a	NoResponse	0	n/a	n/a	3	68	Cue	MissedWin	False
643.178	4.0	Win2	0.5942000000000001	0.0	No	3.072	0.0	n/a	NoResponse	0	n/a	n/a	3	68	Fixation	MissedWin	False
647.174	0.5	Win2	0.5942000000000001	0.004	No	3.072	-0.004	n/a	NoResponse	0	n/a	n/a	3	68	Target	MissedWin	False
647.675	0.2	Win2	0.5942000000000001	n/a	No	3.072	n/a	n/a	NoResponse	0	n/a	n/a	3	68	Blank	MissedWin	False
647.876	1.45	Win2	0.5942000000000001	n/a	No	3.072	n/a	5.0	NoResponse	0	0.047	646.923	3	68	Feedback	MissedWin	False
649.33	3.072	Win2	0.5942000000000001	n/a	No	3.072	n/a	n/a	NoResponse	0	0.0	n/a	3	68	ISIslide	MissedWin	False
652.423	0.25	Win2	0.5857	0.0	No	3.227	0.023	n/a	NoResponse	0	n/a	n/a	3	69	Cue	MissedWin	False
652.673	3.95	Win2	0.5857	0.001	No	3.227	0.0	n/a	NoResponse	0	n/a	n/a	3	69	Fixation	MissedWin	False
656.619	0.5	Win2	0.5857	0.004	No	3.227	-0.004	n/a	NoResponse	0	n/a	n/a	3	69	Target	MissedWin	False
657.12	0.2	Win2	0.5857	n/a	No	3.227	n/a	n/a	NoResponse	0	n/a	n/a	3	69	Blank	MissedWin	False
657.321	1.45	Win2	0.5857	n/a	No	3.227	n/a	5.0	NoResponse	0	0.016	656.337	3	69	Feedback	MissedWin	False
658.775	3.227	Win2	0.5857	n/a	No	3.227	n/a	n/a	NoResponse	0	0.0	n/a	3	69	ISIslide	MissedWin	False
662.018	0.25	Lose2	0.5775	0.0	No	3.032	0.018	n/a	NoResponse	-1	n/a	n/a	2	70	Cue	Loss	False
662.269	4.05	Lose2	0.5775	0.0	No	3.032	0.001	n/a	NoResponse	-1	n/a	n/a	2	70	Fixation	Loss	False
666.314	0.5	Lose2	0.5775	0.004	No	3.032	-0.004	n/a	NoResponse	-1	n/a	n/a	2	70	Target	Loss	False
666.816	0.2	Lose2	0.5775	n/a	No	3.032	n/a	n/a	NoResponse	-1	n/a	n/a	2	70	Blank	Loss	False
667.016	1.45	Lose2	0.5775	n/a	No	3.032	n/a	5.0	NoResponse	-1	0.029	666.045	2	70	Feedback	Loss	False
668.471	3.032	Lose2	0.5775	n/a	No	3.032	n/a	n/a	NoResponse	-1	0.0	n/a	2	70	ISIslide	Loss	False
671.53	0.25	Win2	0.5832999999999999	0.0	Yes	2.72	0.03	n/a	GoodResponse	1	n/a	n/a	3	71	Cue	Win	True
671.781	4.05	Win2	0.5832999999999999	0.0	Yes	2.72	0.001	n/a	GoodResponse	1	n/a	n/a	3	71	Fixation	Win	True
675.826	0.5	Win2	0.5832999999999999	0.004	Yes	2.72	-0.004	3.0	GoodResponse	1	0.263	675.089	3	71	Target	Win	True
676.089	0.3	Win2	0.5832999999999999	0.004	Yes	2.72	-0.004	3.0	GoodResponse	1	0.263	n/a	3	71	ButtonPress	Win	True
676.328	0.2	Win2	0.5832999999999999	n/a	Yes	2.72	n/a	n/a	GoodResponse	1	n/a	n/a	3	71	Blank	Win	True
676.528	1.45	Win2	0.5832999999999999	n/a	Yes	2.72	n/a	5.0	GoodResponse	1	0.029	675.557	3	71	Feedback	Win	True
677.983	2.72	Win2	0.5832999999999999	n/a	Yes	2.72	n/a	n/a	GoodResponse	1	0.0	n/a	3	71	ISIslide	Win	True
680.724	0.25	Win2	0.589	0.0	Yes	2.776	0.024	n/a	GoodResponse	1	n/a	n/a	4	72	Cue	Win	True
680.975	4.1	Win2	0.589	0.0	Yes	2.776	0.001	n/a	GoodResponse	1	n/a	n/a	4	72	Fixation	Win	True
685.071	0.5	Win2	0.589	0.003	Yes	2.776	-0.003	3.0	GoodResponse	1	0.175	684.246	4	72	Target	Win	True
685.246	0.3	Win2	0.589	0.003	Yes	2.776	-0.003	3.0	GoodResponse	1	0.175	n/a	4	72	ButtonPress	Win	True
685.572	0.2	Win2	0.589	n/a	Yes	2.776	n/a	n/a	GoodResponse	1	n/a	n/a	4	72	Blank	Win	True
685.773	1.45	Win2	0.589	n/a	Yes	2.776	n/a	5.0	GoodResponse	1	0.007	684.78	4	72	Feedback	Win	True
687.227	2.776	Win2	0.589	n/a	Yes	2.776	n/a	n/a	GoodResponse	1	0.0	n/a	4	72	ISIslide	Win	True
690.019	0.25	Win2	0.5946	0.0	Yes	2.681	0.019	n/a	GoodResponse	1	n/a	n/a	5	73	Cue	Win	True
690.269	4.0	Win2	0.5946	0.001	Yes	2.681	0.0	n/a	GoodResponse	1	n/a	n/a	5	73	Fixation	Win	True
694.265	0.5	Win2	0.5946	0.004	Yes	2.681	-0.004	3.0	GoodResponse	1	0.226	693.491	5	73	Target	Win	True
694.491	0.3	Win2	0.5946	0.004	Yes	2.681	-0.004	3.0	GoodResponse	1	0.226	n/a	5	73	ButtonPress	Win	True
694.766	0.2	Win2	0.5946	n/a	Yes	2.681	n/a	n/a	GoodResponse	1	n/a	n/a	5	73	Blank	Win	True
694.967	1.45	Win2	0.5946	n/a	Yes	2.681	n/a	5.0	GoodResponse	1	0.028	693.995	5	73	Feedback	Win	True
696.421	2.681	Win2	0.5946	n/a	Yes	2.681	n/a	n/a	GoodResponse	1	0.0	n/a	5	73	ISIslide	Win	True
699.129	0.25	Lose2	0.6	0.0	Yes	2.621	0.029	n/a	GoodResponse	0	n/a	n/a	5	74	Cue	AvoidedLoss	True
699.38	4.05	Lose2	0.6	0.0	Yes	2.621	0.001	n/a	GoodResponse	0	n/a	n/a	5	74	Fixation	AvoidedLoss	True
703.426	0.5	Lose2	0.6	0.003	Yes	2.621	-0.003	3.0	GoodResponse	0	0.241	702.667	5	74	Target	AvoidedLoss	True
703.667	0.3	Lose2	0.6	0.003	Yes	2.621	-0.003	3.0	GoodResponse	0	0.241	n/a	5	74	ButtonPress	AvoidedLoss	True
703.927	0.2	Lose2	0.6	n/a	Yes	2.621	n/a	n/a	GoodResponse	0	n/a	n/a	5	74	Blank	AvoidedLoss	True
704.128	1.45	Lose2	0.6	n/a	Yes	2.621	n/a	5.0	GoodResponse	0	0.038	703.166	5	74	Feedback	AvoidedLoss	True
705.582	2.621	Lose2	0.6	n/a	Yes	2.621	n/a	n/a	GoodResponse	0	0.0	n/a	5	74	ISIslide	AvoidedLoss	True
708.223	0.25	Lose2	0.5921	0.0	No	2.927	0.023	n/a	NoResponse	-1	n/a	n/a	4	75	Cue	Loss	False
708.474	3.95	Lose2	0.5921	0.0	No	2.927	0.001	n/a	NoResponse	-1	n/a	n/a	4	75	Fixation	Loss	False
712.419	0.5	Lose2	0.5921	0.004	No	2.927	-0.004	n/a	NoResponse	-1	n/a	n/a	4	75	Target	Loss	False
712.921	0.2	Lose2	0.5921	n/a	No	2.927	n/a	n/a	NoResponse	-1	n/a	n/a	4	75	Blank	Loss	False
713.121	1.45	Lose2	0.5921	n/a	No	2.927	n/a	5.0	NoResponse	-1	0.021	712.142	4	75	Feedback	Loss	False
714.576	2.927	Lose2	0.5921	n/a	No	2.927	n/a	n/a	NoResponse	-1	0.0	n/a	4	75	ISIslide	Loss	False
717.518	0.25	Control	0.5974	0.0	Yes	3.232	0.018	n/a	GoodResponse	0	n/a	n/a	4	76	Cue	Neutral	True
717.769	4.05	Control	0.5974	0.0	Yes	3.232	0.001	n/a	GoodResponse	0	n/a	n/a	4	76	Fixation	Neutral	True
721.814	0.5	Control	0.5974	0.004	Yes	3.232	-0.004	3.0	GoodResponse	0	0.392	721.206	4	76	Target	Neutral	True
722.206	0.3	Control	0.5974	0.004	Yes	3.232	-0.004	3.0	GoodResponse	0	0.392	n/a	4	76	ButtonPress	Neutral	True
722.315	0.2	Control	0.5974	n/a	Yes	3.232	n/a	n/a	GoodResponse	0	n/a	n/a	4	76	Blank	Neutral	True
722.516	1.45	Control	0.5974	n/a	Yes	3.232	n/a	5.0	GoodResponse	0	0.041	721.557	4	76	Feedback	Neutral	True
723.97	3.232	Control	0.5974	n/a	Yes	3.232	n/a	n/a	GoodResponse	0	0.0	n/a	4	76	ISIslide	Neutral	True
727.23	0.25	Lose2	0.6026	0.0	Yes	2.57	0.03	n/a	GoodResponse	0	n/a	n/a	4	77	Cue	AvoidedLoss	True
727.481	3.95	Lose2	0.6026	0.0	Yes	2.57	0.001	n/a	GoodResponse	0	n/a	n/a	4	77	Fixation	AvoidedLoss	True
731.426	0.5	Lose2	0.6026	0.004	Yes	2.57	-0.004	3.0	GoodResponse	0	0.184	730.61	4	77	Target	AvoidedLoss	True
731.61	0.3	Lose2	0.6026	0.004	Yes	2.57	-0.004	3.0	GoodResponse	0	0.184	n/a	4	77	ButtonPress	AvoidedLoss	True
731.928	0.2	Lose2	0.6026	n/a	Yes	2.57	n/a	n/a	GoodResponse	0	n/a	n/a	4	77	Blank	AvoidedLoss	True
732.128	1.45	Lose2	0.6026	n/a	Yes	2.57	n/a	5.0	GoodResponse	0	0.039	731.167	4	77	Feedback	AvoidedLoss	True
733.583	2.57	Lose2	0.6026	n/a	Yes	2.57	n/a	n/a	GoodResponse	0	0.0	n/a	4	77	ISIslide	AvoidedLoss	True
