onset	duration	cue_type	current_mean_accuracy	duration_error	is_hit	isi_adjusted	onset_delay	response	response_type	reward	rt	rt_time	total_reward	trial_number	trial_phase	trial_type	one_press
11.105	0.25	Control	1.0	0.0	Yes	2.945	0.005	n/a	GoodResponse	0	n/a	n/a	0	0	Cue	Neutral	True
11.355	3.85	Control	1.0	0.0	Yes	2.945	0.0	n/a	GoodResponse	0	n/a	n/a	0	0	Fixation	Neutral	True
15.204	0.4	Control	1.0	0.001	Yes	2.945	-0.001	2.0	GoodResponse	0	0.21	14.414	0	0	Target	Neutral	True
15.414	0.3	Control	1.0	0.001	Yes	2.945	-0.001	2.0	GoodResponse	0	0.21	n/a	0	0	ButtonPress	Neutral	True
15.603	0.3	Control	1.0	n/a	Yes	2.945	n/a	n/a	GoodResponse	0	n/a	n/a	0	0	Blank	Neutral	True
15.903	1.45	Control	1.0	n/a	Yes	2.945	n/a	5.0	GoodResponse	0	0.026	14.929	0	0	Feedback	Neutral	True
17.353	2.945	Control	1.0	n/a	Yes	2.945	n/a	n/a	GoodResponse	0	0.0	n/a	0	0	ISIslide	Neutral	True
20.319	0.25	Lose2	1.0	0.0	Yes	2.781	0.019	n/a	GoodResponse	0	n/a	n/a	0	1	Cue	AvoidedLoss	False
20.568	4.0	Lose2	1.0	0.001	Yes	2.781	-0.001	2.0	GoodResponse	0	0.364	19.932	0	1	Fixation	AvoidedLoss	False
20.932	0.3	Lose2	1.0	0.001	Yes	2.781	-0.001	2.0	GoodResponse	0	0.364	n/a	0	1	ButtonPress	AvoidedLoss	False
24.567	0.39	Lose2	1.0	0.002	Yes	2.781	-0.002	2.0	GoodResponse	0	0.227	23.794	0	1	Target	AvoidedLoss	False
24.794	0.3	Lose2	1.0	0.002	Yes	2.781	-0.002	2.0	GoodResponse	0	0.227	n/a	0	1	ButtonPress	AvoidedLoss	False
24.967	0.31	Lose2	1.0	n/a	Yes	2.781	n/a	n/a	GoodResponse	0	n/a	n/a	0	1	Blank	AvoidedLoss	False
25.267	1.45	Lose2	1.0	n/a	Yes	2.781	n/a	5.0	GoodResponse	0	0.027	24.294	0	1	Feedback	AvoidedLoss	False
26.716	2.781	Lose2	1.0	n/a	Yes	2.781	n/a	n/a	GoodResponse	0	0.0	n/a	0	1	ISIslide	AvoidedLoss	False
29.515	0.25	Control	1.0	0.0	Yes	2.585	0.015	n/a	GoodResponse	0	n/a	n/a	0	2	Cue	Neutral	True
29.765	4.1	Control	1.0	0.0	Yes	2.585	0.0	n/a	GoodResponse	0	n/a	n/a	0	2	Fixation	Neutral	True
33.864	0.38	Control	1.0	0.001	Yes	2.585	-0.001	2.0	GoodResponse	0	0.235	33.099	0	2	Target	Neutral	True
34.099	0.3	Control	1.0	0.001	Yes	2.585	-0.001	2.0	GoodResponse	0	0.235	n/a	0	2	ButtonPress	Neutral	True
34.247	0.32	Control	1.0	n/a	Yes	2.585	n/a	n/a	GoodResponse	0	n/a	n/a	0	2	Blank	Neutral	True
34.564	1.45	Control	1.0	n/a	Yes	2.585	n/a	5.0	GoodResponse	0	0.047	33.611	0	2	Feedback	Neutral	True
36.013	2.585	Control	1.0	n/a	Yes	2.585	n/a	n/a	GoodResponse	0	0.0	n/a	0	2	ISIslide	Neutral	True
38.629	0.25	Win2	1.0	0.0	Yes	2.821	0.029	n/a	GoodResponse	1	n/a	n/a	1	3	Cue	Win	True
38.879	3.95	Win2	1.0	0.0	Yes	2.821	0.0	n/a	GoodResponse	1	n/a	n/a	1	3	Fixation	Win	True
42.827	0.37	Win2	1.0	0.002	Yes	2.821	-0.002	2.0	GoodResponse	1	0.235	42.062	1	3	Target	Win	True
43.062	0.3	Win2	1.0	0.002	Yes	2.821	-0.002	2.0	GoodResponse	1	0.235	n/a	1	3	ButtonPress	Win	True
43.211	0.33	Win2	1.0	n/a	Yes	2.821	n/a	n/a	GoodResponse	1	n/a	n/a	1	3	Blank	Win	True
43.527	1.45	Win2	1.0	n/a	Yes	2.821	n/a	5.0	GoodResponse	1	0.011	42.538	1	3	Feedback	Win	True
44.977	2.821	Win2	1.0	n/a	Yes	2.821	n/a	n/a	GoodResponse	1	0.0	n/a	1	3	ISIslide	Win	True
47.826	0.25	Win2	1.0	0.0	Yes	3.274	0.026	n/a	GoodResponse	1	n/a	n/a	2	4	Cue	Win	True
48.076	4.0	Win2	1.0	0.0	Yes	3.274	0.0	n/a	GoodResponse	1	n/a	n/a	2	4	Fixation	Win	True
52.074	0.36	Win2	1.0	0.002	Yes	3.274	-0.002	2.0	GoodResponse	1	0.266	51.34	2	4	Target	Win	True
52.34	0.3	Win2	1.0	0.002	Yes	3.274	-0.002	2.0	GoodResponse	1	0.266	n/a	2	4	ButtonPress	Win	True
52.441	0.34	Win2	1.0	n/a	Yes	3.274	n/a	n/a	GoodResponse	1	n/a	n/a	2	4	Blank	Win	True
52.774	1.45	Win2	1.0	n/a	Yes	3.274	n/a	5.0	GoodResponse	1	0.033	51.807	2	4	Feedback	Win	True
54.223	3.274	Win2	1.0	n/a	Yes	3.274	n/a	n/a	GoodResponse	1	0.0	n/a	2	4	ISIslide	Win	True
57.522	0.25	Win2	1.0	0.0	Yes	2.778	0.022	n/a	GoodResponse	1	n/a	n/a	3	5	Cue	Win	True
57.772	4.0	Win2	1.0	0.0	Yes	2.778	0.0	n/a	GoodResponse	1	n/a	n/a	3	5	Fixation	Win	True
61.771	0.35	Win2	1.0	0.001	Yes	2.778	-0.001	2.0	GoodResponse	1	0.255	61.026	3	5	Target	Win	True
62.026	0.3	Win2	1.0	0.001	Yes	2.778	-0.001	2.0	GoodResponse	1	0.255	n/a	3	5	ButtonPress	Win	True
62.121	0.35	Win2	1.0	n/a	Yes	2.778	n/a	n/a	GoodResponse	1	n/a	n/a	3	5	Blank	Win	True
62.471	1.45	Win2	1.0	n/a	Yes	2.778	n/a	5.0	GoodResponse	1	0.043	61.514	3	5	Feedback	Win	True
63.92	2.778	Win2	1.0	n/a	Yes	2.778	n/a	n/a	GoodResponse	1	0.0	n/a	3	5	ISIslide	Win	True
66.719	0.25	Lose2	1.0	0.0	Yes	2.731	0.019	n/a	GoodResponse	0	n/a	n/a	3	6	Cue	AvoidedLoss	True
66.969	3.95	Lose2	1.0	0.0	Yes	2.731	0.0	n/a	GoodResponse	0	n/a	n/a	3	6	Fixation	AvoidedLoss	True
70.918	0.34	Lose2	1.0	0.001	Yes	2.731	-0.001	2.0	GoodResponse	0	0.235	70.153	3	6	Target	AvoidedLoss	True
71.153	0.3	Lose2	1.0	0.001	Yes	2.731	-0.001	2.0	GoodResponse	0	0.235	n/a	3	6	ButtonPress	AvoidedLoss	True
71.268	0.36	Lose2	1.0	n/a	Yes	2.731	n/a	n/a	GoodResponse	0	n/a	n/a	3	6	Blank	AvoidedLoss	True
71.617	1.45	Lose2	1.0	n/a	Yes	2.731	n/a	5.0	GoodResponse	0	0.019	70.636	3	6	Feedback	AvoidedLoss	True
73.067	2.731	Lose2	1.0	n/a	Yes	2.731	n/a	n/a	GoodResponse	0	0.0	n/a	3	6	ISIslide	AvoidedLoss	True
75.816	0.25	Lose2	1.0	0.0	Yes	4.034	0.016	n/a	GoodResponse	0	n/a	n/a	3	7	Cue	AvoidedLoss	True
76.066	4.05	Lose2	1.0	0.0	Yes	4.034	0.0	n/a	GoodResponse	0	n/a	n/a	3	7	Fixation	AvoidedLoss	True
80.114	0.33	Lose2	1.0	0.002	Yes	4.034	-0.002	2.0	GoodResponse	0	0.24	79.354	3	7	Target	AvoidedLoss	True
80.354	0.3	Lose2	1.0	0.002	Yes	4.034	-0.002	2.0	GoodResponse	0	0.24	n/a	3	7	ButtonPress	AvoidedLoss	True
80.448	0.37	Lose2	1.0	n/a	Yes	4.034	n/a	n/a	GoodResponse	0	n/a	n/a	3	7	Blank	AvoidedLoss	True
80.814	1.45	Lose2	1.0	n/a	Yes	4.034	n/a	5.0	GoodResponse	0	0.041	79.855	3	7	Feedback	AvoidedLoss	True
82.264	4.034	Lose2	1.0	n/a	Yes	4.034	n/a	n/a	GoodResponse	0	0.0	n/a	3	7	ISIslide	AvoidedLoss	True
86.312	0.25	Lose2	1.0	0.0	Yes	3.038	0.012	n/a	GoodResponse	0	n/a	n/a	3	8	Cue	AvoidedLoss	True
86.562	3.95	Lose2	1.0	0.0	Yes	3.038	0.0	n/a	GoodResponse	0	n/a	n/a	3	8	Fixation	AvoidedLoss	True
90.511	0.32	Lose2	1.0	0.001	Yes	3.038	-0.001	2.0	GoodResponse	0	0.205	89.716	3	8	Target	AvoidedLoss	True
90.716	0.3	Lose2	1.0	0.001	Yes	3.038	-0.001	2.0	GoodResponse	0	0.205	n/a	3	8	ButtonPress	AvoidedLoss	True
90.827	0.38	Lose2	1.0	n/a	Yes	3.038	n/a	n/a	GoodResponse	0	n/a	n/a	3	8	Blank	AvoidedLoss	True
91.211	1.45	Lose2	1.0	n/a	Yes	3.038	n/a	5.0	GoodResponse	0	0.034	90.245	3	8	Feedback	AvoidedLoss	True
92.66	3.038	Lose2	1.0	n/a	Yes	3.038	n/a	n/a	GoodResponse	0	0.0	n/a	3	8	ISIslide	AvoidedLoss	True
95.726	0.25	Lose2	1.0	0.0	Yes	3.124	0.026	n/a	GoodResponse	0	n/a	n/a	3	9	Cue	AvoidedLoss	True
95.976	3.95	Lose2	1.0	0.0	Yes	3.124	0.0	n/a	GoodResponse	0	n/a	n/a	3	9	Fixation	AvoidedLoss	True
99.924	0.31	Lose2	1.0	0.002	Yes	3.124	-0.002	2.0	GoodResponse	0	0.252	99.176	3	9	Target	AvoidedLoss	True
100.176	0.3	Lose2	1.0	0.002	Yes	3.124	-0.002	2.0	GoodResponse	0	0.252	n/a	3	9	ButtonPress	AvoidedLoss	True
100.241	0.39	Lose2	1.0	n/a	Yes	3.124	n/a	n/a	GoodResponse	0	n/a	n/a	3	9	Blank	AvoidedLoss	True
100.624	1.45	Lose2	1.0	n/a	Yes	3.124	n/a	5.0	GoodResponse	0	0.036	99.66	3	9	Feedback	AvoidedLoss	True
102.074	3.124	Lose2	1.0	n/a	Yes	3.124	n/a	n/a	GoodResponse	0	0.0	n/a	3	9	ISIslide	AvoidedLoss	True
105.222	0.25	Control	1.0	0.001	Yes	3.278	0.022	n/a	GoodResponse	0	n/a	n/a	3	10	Cue	Neutral	True
105.472	4.0	Control	1.0	0.0	Yes	3.278	0.0	n/a	GoodResponse	0	n/a	n/a	3	10	Fixation	Neutral	True
109.471	0.3	Control	1.0	0.001	Yes	3.278	-0.001	2.0	GoodResponse	0	0.227	108.698	3	10	Target	Neutral	True
109.698	0.3	Control	1.0	0.001	Yes	3.278	-0.001	2.0	GoodResponse	0	0.227	n/a	3	10	ButtonPress	Neutral	True
109.771	0.4	Control	1.0	n/a	Yes	3.278	n/a	n/a	GoodResponse	0	n/a	n/a	3	10	Blank	Neutral	True
110.171	1.45	Control	1.0	n/a	Yes	3.278	n/a	5.0	GoodResponse	0	0.001	109.172	3	10	Feedback	Neutral	True
111.62	3.278	Control	1.0	n/a	Yes	3.278	n/a	n/a	GoodResponse	0	0.0	n/a	3	10	ISIslide	Neutral	True
114.919	0.25	Lose2	1.0	0.0	Yes	2.731	0.019	n/a	GoodResponse	0	n/a	n/a	3	11	Cue	AvoidedLoss	True
115.169	4.05	Lose2	1.0	0.0	Yes	2.731	0.0	n/a	GoodResponse	0	n/a	n/a	3	11	Fixation	AvoidedLoss	True
119.218	0.29	Lose2	1.0	0.001	Yes	2.731	-0.001	2.0	GoodResponse	0	0.208	118.426	3	11	Target	AvoidedLoss	True
119.426	0.3	Lose2	1.0	0.001	Yes	2.731	-0.001	2.0	GoodResponse	0	0.208	n/a	3	11	ButtonPress	AvoidedLoss	True
119.517	0.41	Lose2	1.0	n/a	Yes	2.731	n/a	n/a	GoodResponse	0	n/a	n/a	3	11	Blank	AvoidedLoss	True
119.917	1.45	Lose2	1.0	n/a	Yes	2.731	n/a	5.0	GoodResponse	0	0.011	118.928	3	11	Feedback	AvoidedLoss	True
121.367	2.731	Lose2	1.0	n/a	Yes	2.731	n/a	n/a	GoodResponse	0	0.0	n/a	3	11	ISIslide	AvoidedLoss	True
124.116	0.25	Control	1.0	0.0	Yes	2.984	0.016	n/a	GoodResponse	0	n/a	n/a	3	12	Cue	Neutral	True
124.366	3.9	Control	1.0	0.0	Yes	2.984	0.0	n/a	GoodResponse	0	n/a	n/a	3	12	Fixation	Neutral	True
128.264	0.28	Control	1.0	0.002	Yes	2.984	-0.002	2.0	GoodResponse	0	0.207	127.471	3	12	Target	Neutral	True
128.471	0.3	Control	1.0	0.002	Yes	2.984	-0.002	2.0	GoodResponse	0	0.207	n/a	3	12	ButtonPress	Neutral	True
128.548	0.42	Control	1.0	n/a	Yes	2.984	n/a	n/a	GoodResponse	0	n/a	n/a	3	12	Blank	Neutral	True
128.964	1.45	Control	1.0	n/a	Yes	2.984	n/a	5.0	GoodResponse	0	0.038	128.002	3	12	Feedback	Neutral	True
130.414	2.984	Control	1.0	n/a	Yes	2.984	n/a	n/a	GoodResponse	0	0.0	n/a	3	12	ISIslide	Neutral	True
133.413	0.25	Control	1.0	0.0	Yes	2.787	0.013	n/a	GoodResponse	0	n/a	n/a	3	13	Cue	Neutral	True
133.663	4.0	Control	1.0	0.0	Yes	2.787	0.0	n/a	GoodResponse	0	n/a	n/a	3	13	Fixation	Neutral	True
137.661	0.27	Control	1.0	0.002	Yes	2.787	-0.002	2.0	GoodResponse	0	0.204	136.865	3	13	Target	Neutral	True
137.865	0.3	Control	1.0	0.002	Yes	2.787	-0.002	2.0	GoodResponse	0	0.204	n/a	3	13	ButtonPress	Neutral	True
137.944	0.43	Control	1.0	n/a	Yes	2.787	n/a	n/a	GoodResponse	0	n/a	n/a	3	13	Blank	Neutral	True
138.361	1.45	Control	1.0	n/a	Yes	2.787	n/a	5.0	GoodResponse	0	0.007	137.368	3	13	Feedback	Neutral	True
139.81	2.787	Control	1.0	n/a	Yes	2.787	n/a	n/a	GoodResponse	0	0.0	n/a	3	13	ISIslide	Neutral	True
142.626	0.25	Win2	1.0	0.0	Yes	2.674	0.026	n/a	GoodResponse	1	n/a	n/a	4	14	Cue	Win	True
142.876	4.1	Win2	1.0	0.0	Yes	2.674	0.0	n/a	GoodResponse	1	n/a	n/a	4	14	Fixation	Win	True
146.975	0.26	Win2	1.0	0.001	Yes	2.674	-0.001	2.0	GoodResponse	1	0.201	146.176	4	14	Target	Win	True
147.176	0.3	Win2	1.0	0.001	Yes	2.674	-0.001	2.0	GoodResponse	1	0.201	n/a	4	14	ButtonPress	Win	True
147.241	0.44	Win2	1.0	n/a	Yes	2.674	n/a	n/a	GoodResponse	1	n/a	n/a	4	14	Blank	Win	True
147.674	1.45	Win2	1.0	n/a	Yes	2.674	n/a	5.0	GoodResponse	1	0.01	146.684	4	14	Feedback	Win	True
149.124	2.674	Win2	1.0	n/a	Yes	2.674	n/a	n/a	GoodResponse	1	0.0	n/a	4	14	ISIslide	Win	True
151.823	0.25	Control	0.9375	0.0	No	2.977	0.023	n/a	NoResponse	0	n/a	n/a	4	15	Cue	Neutral	True
152.073	4.0	Control	0.9375	0.0	No	2.977	0.0	n/a	NoResponse	0	n/a	n/a	4	15	Fixation	Neutral	True
156.072	0.25	Control	0.9375	0.001	No	2.977	-0.001	2.0	NoResponse	0	0.257	155.329	4	15	Target	Neutral	True
156.321	0.45	Control	0.9375	n/a	No	2.977	n/a	n/a	NoResponse	0	n/a	n/a	4	15	Blank	Neutral	True
156.329	0.3	Control	0.9375	0.001	No	2.977	-0.001	2.0	NoResponse	0	0.257	n/a	4	15	ButtonPress	Neutral	True
156.771	1.45	Control	0.9375	n/a	No	2.977	n/a	5.0	NoResponse	0	0.035	155.806	4	15	Feedback	Neutral	True
158.221	2.977	Control	0.9375	n/a	No	2.977	n/a	n/a	NoResponse	0	0.0	n/a	4	15	ISIslide	Neutral	True
161.22	0.25	Win2	0.9412	0.0	Yes	2.88	0.02	n/a	GoodResponse	1	n/a	n/a	5	16	Cue	Win	True
161.47	4.0	Win2	0.9412	0.0	Yes	2.88	0.0	n/a	GoodResponse	1	n/a	n/a	5	16	Fixation	Win	True
165.468	0.24	Win2	0.9412	0.002	Yes	2.88	-0.002	2.0	GoodResponse	1	0.194	164.662	5	16	Target	Win	True
165.662	0.3	Win2	0.9412	0.002	Yes	2.88	-0.002	2.0	GoodResponse	1	0.194	n/a	5	16	ButtonPress	Win	True
165.718	0.46	Win2	0.9412	n/a	Yes	2.88	n/a	n/a	GoodResponse	1	n/a	n/a	5	16	Blank	Win	True
166.168	1.45	Win2	0.9412	n/a	Yes	2.88	n/a	5.0	GoodResponse	1	0.005	165.173	5	16	Feedback	Win	True
167.618	2.88	Win2	0.9412	n/a	Yes	2.88	n/a	n/a	GoodResponse	1	0.0	n/a	5	16	ISIslide	Win	True
170.517	0.25	Lose2	0.9444	0.0	Yes	2.733	0.017	n/a	GoodResponse	0	n/a	n/a	5	17	Cue	AvoidedLoss	True
170.766	3.95	Lose2	0.9444	0.001	Yes	2.733	-0.001	n/a	GoodResponse	0	n/a	n/a	5	17	Fixation	AvoidedLoss	True
174.715	0.23	Lose2	0.9444	0.002	Yes	2.733	-0.002	2.0	GoodResponse	0	0.21	173.925	5	17	Target	AvoidedLoss	True
174.925	0.3	Lose2	0.9444	0.002	Yes	2.733	-0.002	2.0	GoodResponse	0	0.21	n/a	5	17	ButtonPress	AvoidedLoss	True
174.948	0.47	Lose2	0.9444	n/a	Yes	2.733	n/a	n/a	GoodResponse	0	n/a	n/a	5	17	Blank	AvoidedLoss	True
175.415	1.45	Lose2	0.9444	n/a	Yes	2.733	n/a	5.0	GoodResponse	0	0.025	174.44	5	17	Feedback	AvoidedLoss	True
176.864	2.733	Lose2	0.9444	n/a	Yes	2.733	n/a	n/a	GoodResponse	0	0.0	n/a	5	17	ISIslide	AvoidedLoss	True
179.63	0.25	Lose2	0.9473999999999999	0.0	Yes	2.72	0.03	n/a	GoodResponse	0	n/a	n/a	5	18	Cue	AvoidedLoss	True
179.88	4.05	Lose2	0.9473999999999999	0.0	Yes	2.72	0.0	n/a	GoodResponse	0	n/a	n/a	5	18	Fixation	AvoidedLoss	True
183.929	0.22	Lose2	0.9473999999999999	0.001	Yes	2.72	-0.001	2.0	GoodResponse	0	0.209	183.138	5	18	Target	AvoidedLoss	True
184.138	0.3	Lose2	0.9473999999999999	0.001	Yes	2.72	-0.001	2.0	GoodResponse	0	0.209	n/a	5	18	ButtonPress	AvoidedLoss	True
184.162	0.48	Lose2	0.9473999999999999	n/a	Yes	2.72	n/a	n/a	GoodResponse	0	n/a	n/a	5	18	Blank	AvoidedLoss	True
184.628	1.45	Lose2	0.9473999999999999	n/a	Yes	2.72	n/a	5.0	GoodResponse	0	0.032	183.66	5	18	Feedback	AvoidedLoss	True
186.078	2.72	Lose2	0.9473999999999999	n/a	Yes	2.72	n/a	n/a	GoodResponse	0	0.0	n/a	5	18	ISIslide	AvoidedLoss	True
188.827	0.25	Control	0.9	0.0	No	2.923	0.027	n/a	NoResponse	0	n/a	n/a	5	19	Cue	Neutral	True
189.077	3.95	Control	0.9	0.0	No	2.923	0.0	n/a	NoResponse	0	n/a	n/a	5	19	Fixation	Neutral	True
193.025	0.21	Control	0.9	0.002	No	2.923	-0.002	2.0	NoResponse	0	0.256	192.281	5	19	Target	Neutral	True
193.242	0.49	Control	0.9	n/a	No	2.923	n/a	n/a	NoResponse	0	n/a	n/a	5	19	Blank	Neutral	True
193.281	0.3	Control	0.9	0.002	No	2.923	-0.002	2.0	NoResponse	0	0.256	n/a	5	19	ButtonPress	Neutral	True
193.725	1.45	Control	0.9	n/a	No	2.923	n/a	5.0	NoResponse	0	0.008	192.733	5	19	Feedback	Neutral	True
195.175	2.923	Control	0.9	n/a	No	2.923	n/a	n/a	NoResponse	0	0.0	n/a	5	19	ISIslide	Neutral	True
198.124	0.25	Control	0.8571	0.0	No	2.626	0.024	n/a	NoResponse	0	n/a	n/a	5	20	Cue	Neutral	True
198.374	4.05	Control	0.8571	0.0	No	2.626	0.0	n/a	NoResponse	0	n/a	n/a	5	20	Fixation	Neutral	True
202.422	0.2	Control	0.8571	0.002	No	2.626	-0.002	2.0	NoResponse	0	0.228	201.65	5	20	Target	Neutral	True
202.622	0.5	Control	0.8571	n/a	No	2.626	n/a	n/a	NoResponse	0	n/a	n/a	5	20	Blank	Neutral	True
202.65	0.3	Control	0.8571	0.002	No	2.626	-0.002	2.0	NoResponse	0	0.228	n/a	5	20	ButtonPress	Neutral	True
203.122	1.45	Control	0.8571	n/a	No	2.626	n/a	5.0	NoResponse	0	0.025	202.147	5	20	Feedback	Neutral	True
204.571	2.626	Control	0.8571	n/a	No	2.626	n/a	n/a	NoResponse	0	0.0	n/a	5	20	ISIslide	Neutral	True
207.22	0.25	Control	0.8181999999999999	0.001	No	2.78	0.02	n/a	NoResponse	0	n/a	n/a	5	21	Cue	Neutral	True
207.47	4.1	Control	0.8181999999999999	0.0	No	2.78	0.0	n/a	NoResponse	0	n/a	n/a	5	21	Fixation	Neutral	True
211.569	0.19	Control	0.8181999999999999	0.001	No	2.78	-0.001	2.0	NoResponse	0	0.232	210.801	5	21	Target	Neutral	True
211.769	0.51	Control	0.8181999999999999	n/a	No	2.78	n/a	n/a	NoResponse	0	n/a	n/a	5	21	Blank	Neutral	True
211.801	0.3	Control	0.8181999999999999	0.001	No	2.78	-0.001	2.0	NoResponse	0	0.232	n/a	5	21	ButtonPress	Neutral	True
212.269	1.45	Control	0.8181999999999999	n/a	No	2.78	n/a	5.0	NoResponse	0	0.0	211.269	5	21	Feedback	Neutral	True
213.718	2.78	Control	0.8181999999999999	n/a	No	2.78	n/a	n/a	NoResponse	0	0.0	n/a	5	21	ISIslide	Neutral	True
216.517	0.25	Control	0.7826000000000001	0.0	No	2.783	0.017	n/a	NoResponse	0	n/a	n/a	5	22	Cue	Neutral	True
216.767	4.0	Control	0.7826000000000001	0.0	No	2.783	0.0	n/a	NoResponse	0	n/a	n/a	5	22	Fixation	Neutral	True
220.766	0.18	Control	0.7826000000000001	0.001	No	2.783	-0.001	2.0	NoResponse	0	0.19	219.956	5	22	Target	Neutral	True
220.949	0.52	Control	0.7826000000000001	n/a	No	2.783	n/a	n/a	NoResponse	0	n/a	n/a	5	22	Blank	Neutral	True
220.956	0.3	Control	0.7826000000000001	0.001	No	2.783	-0.001	2.0	NoResponse	0	0.19	n/a	5	22	ButtonPress	Neutral	True
221.466	1.45	Control	0.7826000000000001	n/a	No	2.783	n/a	5.0	NoResponse	0	0.023	220.489	5	22	Feedback	Neutral	True
222.915	2.783	Control	0.7826000000000001	n/a	No	2.783	n/a	n/a	NoResponse	0	0.0	n/a	5	22	ISIslide	Neutral	True
225.714	0.25	Control	0.75	0.0	No	2.786	0.014	n/a	PrematurePress	0	n/a	n/a	5	23	Cue	Neutral	False
225.964	3.9	Control	0.75	0.0	No	2.786	0.0	2.0	PrematurePress	0	3.316	228.28	5	23	Fixation	Neutral	False
229.28	0.3	Control	0.75	0.0	No	2.786	0.0	2.0	PrematurePress	0	3.316	n/a	5	23	ButtonPress	Neutral	False
229.863	0.17	Control	0.75	0.001	No	2.786	-0.001	2.0	PrematurePress	0	0.084	228.947	5	23	Target	Neutral	False
229.947	0.3	Control	0.75	0.001	No	2.786	-0.001	2.0	PrematurePress	0	0.084	n/a	5	23	ButtonPress	Neutral	False
230.046	0.53	Control	0.75	n/a	No	2.786	n/a	n/a	PrematurePress	0	n/a	n/a	5	23	Blank	Neutral	False
230.562	1.45	Control	0.75	n/a	No	2.786	n/a	5.0	PrematurePress	0	0.049	229.611	5	23	Feedback	Neutral	False
232.012	2.786	Control	0.75	n/a	No	2.786	n/a	n/a	PrematurePress	0	0.0	n/a	5	23	ISIslide	Neutral	False
234.828	0.25	Win2	0.72	0.0	No	3.122	0.028	n/a	NoResponse	0	n/a	n/a	5	24	Cue	MissedWin	True
235.078	3.95	Win2	0.72	0.0	No	3.122	0.0	n/a	NoResponse	0	n/a	n/a	5	24	Fixation	MissedWin	True
239.026	0.16	Win2	0.72	0.002	No	3.122	-0.002	2.0	NoResponse	0	0.209	238.235	5	24	Target	MissedWin	True
239.193	0.54	Win2	0.72	n/a	No	3.122	n/a	n/a	NoResponse	0	n/a	n/a	5	24	Blank	MissedWin	True
239.235	0.3	Win2	0.72	0.002	No	3.122	-0.002	2.0	NoResponse	0	0.209	n/a	5	24	ButtonPress	MissedWin	True
239.726	1.45	Win2	0.72	n/a	No	3.122	n/a	5.0	NoResponse	0	0.007	238.733	5	24	Feedback	MissedWin	True
241.175	3.122	Win2	0.72	n/a	No	3.122	n/a	n/a	NoResponse	0	0.0	n/a	5	24	ISIslide	MissedWin	True
244.324	0.25	Win2	0.6923	0.0	No	3.076	0.024	n/a	NoResponse	0	n/a	n/a	5	25	Cue	MissedWin	True
244.574	4.0	Win2	0.6923	0.0	No	3.076	0.0	n/a	NoResponse	0	n/a	n/a	5	25	Fixation	MissedWin	True
248.573	0.15	Win2	0.6923	0.001	No	3.076	-0.001	2.0	NoResponse	0	0.209	247.782	5	25	Target	MissedWin	True
248.723	0.55	Win2	0.6923	n/a	No	3.076	n/a	n/a	NoResponse	0	n/a	n/a	5	25	Blank	MissedWin	True
248.782	0.3	Win2	0.6923	0.001	No	3.076	-0.001	2.0	NoResponse	0	0.209	n/a	5	25	ButtonPress	MissedWin	True
249.273	1.45	Win2	0.6923	n/a	No	3.076	n/a	5.0	NoResponse	0	0.021	248.294	5	25	Feedback	MissedWin	True
250.722	3.076	Win2	0.6923	n/a	No	3.076	n/a	n/a	NoResponse	0	0.0	n/a	5	25	ISIslide	MissedWin	True
253.821	0.25	Win2	0.6667000000000001	0.0	No	2.929	0.021	n/a	NoResponse	0	n/a	n/a	5	26	Cue	MissedWin	True
254.071	3.95	Win2	0.6667000000000001	0.0	No	2.929	0.0	n/a	NoResponse	0	n/a	n/a	5	26	Fixation	MissedWin	True
258.02	0.15	Win2	0.6667000000000001	0.001	No	2.929	-0.001	2.0	NoResponse	0	0.178	257.198	5	26	Target	MissedWin	True
258.17	0.55	Win2	0.6667000000000001	n/a	No	2.929	n/a	n/a	NoResponse	0	n/a	n/a	5	26	Blank	MissedWin	True
258.198	0.3	Win2	0.6667000000000001	0.001	No	2.929	-0.001	2.0	NoResponse	0	0.178	n/a	5	26	ButtonPress	MissedWin	True
258.719	1.45	Win2	0.6667000000000001	n/a	No	2.929	n/a	5.0	NoResponse	0	0.038	257.757	5	26	Feedback	MissedWin	True
260.169	2.929	Win2	0.6667000000000001	n/a	No	2.929	n/a	n/a	NoResponse	0	0.0	n/a	5	26	ISIslide	MissedWin	True
263.118	0.25	Lose2	0.6429	0.0	No	2.832	0.018	n/a	NoResponse	-1	n/a	n/a	4	27	Cue	Loss	True
263.368	4.05	Lose2	0.6429	0.0	No	2.832	0.0	n/a	NoResponse	-1	n/a	n/a	4	27	Fixation	Loss	True
267.416	0.15	Lose2	0.6429	0.002	No	2.832	-0.002	2.0	NoResponse	-1	0.237	266.653	4	27	Target	Loss	True
267.566	0.55	Lose2	0.6429	n/a	No	2.832	n/a	n/a	NoResponse	-1	n/a	n/a	4	27	Blank	Loss	True
267.653	0.3	Lose2	0.6429	0.002	No	2.832	-0.002	2.0	NoResponse	-1	0.237	n/a	4	27	ButtonPress	Loss	True
268.116	1.45	Lose2	0.6429	n/a	No	2.832	n/a	5.0	NoResponse	-1	0.007	267.123	4	27	Feedback	Loss	True
269.566	2.832	Lose2	0.6429	n/a	No	2.832	n/a	n/a	NoResponse	-1	0.0	n/a	4	27	ISIslide	Loss	True
272.415	0.25	Control	0.6207	0.0	No	2.835	0.015	n/a	NoResponse	0	n/a	n/a	4	28	Cue	Neutral	True
272.665	4.05	Control	0.6207	0.0	No	2.835	0.0	n/a	NoResponse	0	n/a	n/a	4	28	Fixation	Neutral	True
276.713	0.16	Control	0.6207	0.002	No	2.835	-0.002	2.0	NoResponse	0	0.256	275.969	4	28	Target	Neutral	True
276.88	0.54	Control	0.6207	n/a	No	2.835	n/a	n/a	NoResponse	0	n/a	n/a	4	28	Blank	Neutral	True
276.969	0.3	Control	0.6207	0.002	No	2.835	-0.002	2.0	NoResponse	0	0.256	n/a	4	28	ButtonPress	Neutral	True
277.413	1.45	Control	0.6207	n/a	No	2.835	n/a	5.0	NoResponse	0	0.027	276.44	4	28	Feedback	Neutral	True
278.862	2.835	Control	0.6207	n/a	No	2.835	n/a	n/a	NoResponse	0	0.0	n/a	4	28	ISIslide	Neutral	True
281.728	0.25	Lose2	0.6	0.0	No	2.822	0.028	n/a	NoResponse	-1	n/a	n/a	3	29	Cue	Loss	True
281.978	3.95	Lose2	0.6	0.0	No	2.822	0.0	n/a	NoResponse	-1	n/a	n/a	3	29	Fixation	Loss	True
285.927	0.17	Lose2	0.6	0.001	No	2.822	-0.001	2.0	NoResponse	-1	0.246	285.173	3	29	Target	Loss	True
286.11	0.53	Lose2	0.6	n/a	No	2.822	n/a	n/a	NoResponse	-1	n/a	n/a	3	29	Blank	Loss	True
286.173	0.3	Lose2	0.6	0.001	No	2.822	-0.001	2.0	NoResponse	-1	0.246	n/a	3	29	ButtonPress	Loss	True
286.626	1.45	Lose2	0.6	n/a	No	2.822	n/a	5.0	NoResponse	-1	0.033	285.659	3	29	Feedback	Loss	True
288.076	2.822	Lose2	0.6	n/a	No	2.822	n/a	n/a	NoResponse	-1	0.0	n/a	3	29	ISIslide	Loss	True
290.925	0.25	Win2	0.5806	0.0	No	2.775	0.025	n/a	NoResponse	0	n/a	n/a	3	30	Cue	MissedWin	True
291.175	3.9	Win2	0.5806	0.0	No	2.775	0.0	n/a	NoResponse	0	n/a	n/a	3	30	Fixation	MissedWin	True
295.073	0.18	Win2	0.5806	0.002	No	2.775	-0.002	2.0	NoResponse	0	0.238	294.311	3	30	Target	MissedWin	True
295.257	0.52	Win2	0.5806	n/a	No	2.775	n/a	n/a	NoResponse	0	n/a	n/a	3	30	Blank	MissedWin	True
295.311	0.3	Win2	0.5806	0.002	No	2.775	-0.002	2.0	NoResponse	0	0.238	n/a	3	30	ButtonPress	MissedWin	True
295.773	1.45	Win2	0.5806	n/a	No	2.775	n/a	5.0	NoResponse	0	0.008	294.781	3	30	Feedback	MissedWin	True
297.223	2.775	Win2	0.5806	n/a	No	2.775	n/a	n/a	NoResponse	0	0.0	n/a	3	30	ISIslide	MissedWin	True
300.022	0.25	Lose2	0.5625	0.0	No	2.828	0.022	n/a	NoResponse	-1	n/a	n/a	2	31	Cue	Loss	True
300.272	4.05	Lose2	0.5625	0.0	No	2.828	0.0	n/a	NoResponse	-1	n/a	n/a	2	31	Fixation	Loss	True
304.32	0.19	Lose2	0.5625	0.002	No	2.828	-0.002	2.0	NoResponse	-1	0.355	303.675	2	31	Target	Loss	True
304.52	0.51	Lose2	0.5625	n/a	No	2.828	n/a	n/a	NoResponse	-1	n/a	n/a	2	31	Blank	Loss	True
304.675	0.3	Lose2	0.5625	0.002	No	2.828	-0.002	2.0	NoResponse	-1	0.355	n/a	2	31	ButtonPress	Loss	True
305.02	1.45	Lose2	0.5625	n/a	No	2.828	n/a	5.0	NoResponse	-1	0.03	304.05	2	31	Feedback	Loss	True
306.47	2.828	Lose2	0.5625	n/a	No	2.828	n/a	n/a	NoResponse	-1	0.0	n/a	2	31	ISIslide	Loss	True
309.319	0.25	Lose2	0.5455	0.0	No	2.631	0.019	n/a	NoResponse	-1	n/a	n/a	1	32	Cue	Loss	True
309.568	4.15	Lose2	0.5455	0.001	No	2.631	-0.001	n/a	NoResponse	-1	n/a	n/a	1	32	Fixation	Loss	True
313.717	0.2	Lose2	0.5455	0.002	No	2.631	-0.002	2.0	NoResponse	-1	0.21	312.927	1	32	Target	Loss	True
313.917	0.5	Lose2	0.5455	n/a	No	2.631	n/a	n/a	NoResponse	-1	n/a	n/a	1	32	Blank	Loss	True
313.927	0.3	Lose2	0.5455	0.002	No	2.631	-0.002	2.0	NoResponse	-1	0.21	n/a	1	32	ButtonPress	Loss	True
314.417	1.45	Lose2	0.5455	n/a	No	2.631	n/a	5.0	NoResponse	-1	0.048	313.465	1	32	Feedback	Loss	True
315.866	2.631	Lose2	0.5455	n/a	No	2.631	n/a	n/a	NoResponse	-1	0.0	n/a	1	32	ISIslide	Loss	True
318.515	0.25	Win2	0.5588000000000001	0.0	Yes	2.685	0.015	n/a	GoodResponse	1	n/a	n/a	2	33	Cue	Win	True
318.765	4.0	Win2	0.5588000000000001	0.0	Yes	2.685	0.0	n/a	GoodResponse	1	n/a	n/a	2	33	Fixation	Win	True
322.764	0.21	Win2	0.5588000000000001	0.001	Yes	2.685	-0.001	2.0	GoodResponse	1	0.199	321.963	2	33	Target	Win	True
322.963	0.3	Win2	0.5588000000000001	0.001	Yes	2.685	-0.001	2.0	GoodResponse	1	0.199	n/a	2	33	ButtonPress	Win	True
322.98	0.49	Win2	0.5588000000000001	n/a	Yes	2.685	n/a	n/a	GoodResponse	1	n/a	n/a	2	33	Blank	Win	True
323.464	1.45	Win2	0.5588000000000001	n/a	Yes	2.685	n/a	5.0	GoodResponse	1	0.024	322.488	2	33	Feedback	Win	True
324.913	2.685	Win2	0.5588000000000001	n/a	Yes	2.685	n/a	n/a	GoodResponse	1	0.0	n/a	2	33	ISIslide	Win	True
327.612	0.25	Lose2	0.5714	0.0	Yes	2.638	0.012	n/a	GoodResponse	0	n/a	n/a	2	34	Cue	AvoidedLoss	True
327.862	4.05	Lose2	0.5714	0.0	Yes	2.638	0.0	n/a	GoodResponse	0	n/a	n/a	2	34	Fixation	AvoidedLoss	True
331.911	0.22	Lose2	0.5714	0.001	Yes	2.638	-0.001	2.0	GoodResponse	0	0.194	331.105	2	34	Target	AvoidedLoss	True
332.105	0.3	Lose2	0.5714	0.001	Yes	2.638	-0.001	2.0	GoodResponse	0	0.194	n/a	2	34	ButtonPress	AvoidedLoss	True
332.144	0.48	Lose2	0.5714	n/a	Yes	2.638	n/a	n/a	GoodResponse	0	n/a	n/a	2	34	Blank	AvoidedLoss	True
332.61	1.45	Lose2	0.5714	n/a	Yes	2.638	n/a	5.0	GoodResponse	0	0.049	331.659	2	34	Feedback	AvoidedLoss	True
334.06	2.638	Lose2	0.5714	n/a	Yes	2.638	n/a	n/a	GoodResponse	0	0.0	n/a	2	34	ISIslide	AvoidedLoss	True
336.726	0.25	Lose2	0.5832999999999999	0.0	Yes	2.674	0.026	n/a	GoodResponse	0	n/a	n/a	2	35	Cue	AvoidedLoss	True
336.976	4.0	Lose2	0.5832999999999999	0.0	Yes	2.674	0.0	n/a	GoodResponse	0	n/a	n/a	2	35	Fixation	AvoidedLoss	True
340.974	0.23	Lose2	0.5832999999999999	0.002	Yes	2.674	-0.002	2.0	GoodResponse	0	0.181	340.155	2	35	Target	AvoidedLoss	True
341.155	0.3	Lose2	0.5832999999999999	0.002	Yes	2.674	-0.002	2.0	GoodResponse	0	0.181	n/a	2	35	ButtonPress	AvoidedLoss	True
341.207	0.47	Lose2	0.5832999999999999	n/a	Yes	2.674	n/a	n/a	GoodResponse	0	n/a	n/a	2	35	Blank	AvoidedLoss	True
341.674	1.45	Lose2	0.5832999999999999	n/a	Yes	2.674	n/a	5.0	GoodResponse	0	0.009	340.683	2	35	Feedback	AvoidedLoss	True
343.124	2.674	Lose2	0.5832999999999999	n/a	Yes	2.674	n/a	n/a	GoodResponse	0	0.0	n/a	2	35	ISIslide	AvoidedLoss	True
345.823	0.25	Control	0.5946	0.0	Yes	2.677	0.023	n/a	GoodResponse	0	n/a	n/a	2	36	Cue	Neutral	True
346.072	4.0	Control	0.5946	0.001	Yes	2.677	-0.001	n/a	GoodResponse	0	n/a	n/a	2	36	Fixation	Neutral	True
350.071	0.24	Control	0.5946	0.002	Yes	2.677	-0.002	2.0	GoodResponse	0	0.228	349.299	2	36	Target	Neutral	True
350.299	0.3	Control	0.5946	0.002	Yes	2.677	-0.002	2.0	GoodResponse	0	0.228	n/a	2	36	ButtonPress	Neutral	True
350.321	0.46	Control	0.5946	n/a	Yes	2.677	n/a	n/a	GoodResponse	0	n/a	n/a	2	36	Blank	Neutral	True
350.771	1.45	Control	0.5946	n/a	Yes	2.677	n/a	5.0	GoodResponse	0	0.034	349.805	2	36	Feedback	Neutral	True
352.22	2.677	Control	0.5946	n/a	Yes	2.677	n/a	n/a	GoodResponse	0	0.0	n/a	2	36	ISIslide	Neutral	True
354.919	0.25	Win2	0.6053000000000001	0.0	Yes	2.881	0.019	n/a	GoodResponse	1	n/a	n/a	3	37	Cue	Win	True
355.169	4.0	Win2	0.6053000000000001	0.0	Yes	2.881	0.0	n/a	GoodResponse	1	n/a	n/a	3	37	Fixation	Win	True
359.168	0.25	Win2	0.6053000000000001	0.001	Yes	2.881	-0.001	2.0	GoodResponse	1	0.199	358.367	3	37	Target	Win	True
359.367	0.3	Win2	0.6053000000000001	0.001	Yes	2.881	-0.001	2.0	GoodResponse	1	0.199	n/a	3	37	ButtonPress	Win	True
359.418	0.45	Win2	0.6053000000000001	n/a	Yes	2.881	n/a	n/a	GoodResponse	1	n/a	n/a	3	37	Blank	Win	True
359.868	1.45	Win2	0.6053000000000001	n/a	Yes	2.881	n/a	5.0	GoodResponse	1	0.011	358.879	3	37	Feedback	Win	True
361.317	2.881	Win2	0.6053000000000001	n/a	Yes	2.881	n/a	n/a	GoodResponse	1	0.0	n/a	3	37	ISIslide	Win	True
364.216	0.25	Lose2	0.6154	0.0	Yes	2.834	0.016	n/a	GoodResponse	0	n/a	n/a	3	38	Cue	AvoidedLoss	True
364.466	3.95	Lose2	0.6154	0.0	Yes	2.834	0.0	n/a	GoodResponse	0	n/a	n/a	3	38	Fixation	AvoidedLoss	True
368.415	0.26	Lose2	0.6154	0.001	Yes	2.834	-0.001	2.0	GoodResponse	0	0.217	367.632	3	38	Target	AvoidedLoss	True
368.632	0.3	Lose2	0.6154	0.001	Yes	2.834	-0.001	2.0	GoodResponse	0	0.217	n/a	3	38	ButtonPress	AvoidedLoss	True
368.681	0.44	Lose2	0.6154	n/a	Yes	2.834	n/a	n/a	GoodResponse	0	n/a	n/a	3	38	Blank	AvoidedLoss	True
369.115	1.45	Lose2	0.6154	n/a	Yes	2.834	n/a	5.0	GoodResponse	0	0.032	368.147	3	38	Feedback	AvoidedLoss	True
370.564	2.834	Lose2	0.6154	n/a	Yes	2.834	n/a	n/a	GoodResponse	0	0.0	n/a	3	38	ISIslide	AvoidedLoss	True
373.413	0.25	Win2	0.625	0.0	Yes	2.987	0.013	n/a	GoodResponse	1	n/a	n/a	4	39	Cue	Win	True
373.663	4.1	Win2	0.625	0.0	Yes	2.987	0.0	n/a	GoodResponse	1	n/a	n/a	4	39	Fixation	Win	True
377.762	0.27	Win2	0.625	0.001	Yes	2.987	-0.001	2.0	GoodResponse	1	0.203	376.965	4	39	Target	Win	True
377.965	0.3	Win2	0.625	0.001	Yes	2.987	-0.001	2.0	GoodResponse	1	0.203	n/a	4	39	ButtonPress	Win	True
378.045	0.43	Win2	0.625	n/a	Yes	2.987	n/a	n/a	GoodResponse	1	n/a	n/a	4	39	Blank	Win	True
378.461	1.45	Win2	0.625	n/a	Yes	2.987	n/a	5.0	GoodResponse	1	0.006	377.467	4	39	Feedback	Win	True
379.911	2.987	Win2	0.625	n/a	Yes	2.987	n/a	n/a	GoodResponse	1	0.0	n/a	4	39	ISIslide	Win	True
382.926	0.25	Win2	0.6341	0.001	Yes	2.724	0.026	n/a	GoodResponse	1	n/a	n/a	5	40	Cue	Win	True
383.176	3.95	Win2	0.6341	0.0	Yes	2.724	0.0	n/a	GoodResponse	1	n/a	n/a	5	40	Fixation	Win	True
387.125	0.28	Win2	0.6341	0.001	Yes	2.724	-0.001	2.0	GoodResponse	1	0.215	386.34	5	40	Target	Win	True
387.34	0.3	Win2	0.6341	0.001	Yes	2.724	-0.001	2.0	GoodResponse	1	0.215	n/a	5	40	ButtonPress	Win	True
387.408	0.42	Win2	0.6341	n/a	Yes	2.724	n/a	n/a	GoodResponse	1	n/a	n/a	5	40	Blank	Win	True
387.825	1.45	Win2	0.6341	n/a	Yes	2.724	n/a	5.0	GoodResponse	1	0.005	386.83	5	40	Feedback	Win	True
389.274	2.724	Win2	0.6341	n/a	Yes	2.724	n/a	n/a	GoodResponse	1	0.0	n/a	5	40	ISIslide	Win	True
392.023	0.25	Win2	0.6429	0.0	Yes	2.777	0.023	n/a	GoodResponse	1	n/a	n/a	6	41	Cue	Win	True
392.273	3.9	Win2	0.6429	0.0	Yes	2.777	0.0	n/a	GoodResponse	1	n/a	n/a	6	41	Fixation	Win	True
396.172	0.29	Win2	0.6429	0.001	Yes	2.777	-0.001	2.0	GoodResponse	1	0.196	395.368	6	41	Target	Win	True
396.368	0.3	Win2	0.6429	0.001	Yes	2.777	-0.001	2.0	GoodResponse	1	0.196	n/a	6	41	ButtonPress	Win	True
396.472	0.41	Win2	0.6429	n/a	Yes	2.777	n/a	n/a	GoodResponse	1	n/a	n/a	6	41	Blank	Win	True
396.872	1.45	Win2	0.6429	n/a	Yes	2.777	n/a	5.0	GoodResponse	1	0.031	395.903	6	41	Feedback	Win	True
398.321	2.777	Win2	0.6429	n/a	Yes	2.777	n/a	n/a	GoodResponse	1	0.0	n/a	6	41	ISIslide	Win	True
401.12	0.25	Control	0.6512	0.0	Yes	2.93	0.02	n/a	GoodResponse	0	n/a	n/a	6	42	Cue	Neutral	True
401.37	3.85	Control	0.6512	0.0	Yes	2.93	0.0	n/a	GoodResponse	0	n/a	n/a	6	42	Fixation	Neutral	True
405.219	0.3	Control	0.6512	0.001	Yes	2.93	-0.001	2.0	GoodResponse	0	0.274	404.493	6	42	Target	Neutral	True
405.493	0.3	Control	0.6512	0.001	Yes	2.93	-0.001	2.0	GoodResponse	0	0.274	n/a	6	42	ButtonPress	Neutral	True
405.519	0.4	Control	0.6512	n/a	Yes	2.93	n/a	n/a	GoodResponse	0	n/a	n/a	6	42	Blank	Neutral	True
405.918	1.45	Control	0.6512	n/a	Yes	2.93	n/a	5.0	GoodResponse	0	0.009	404.927	6	42	Feedback	Neutral	True
407.368	2.93	Control	0.6512	n/a	Yes	2.93	n/a	n/a	GoodResponse	0	0.0	n/a	6	42	ISIslide	Neutral	True
410.317	0.25	Win2	0.6591	0.0	Yes	3.183	0.017	n/a	GoodResponse	1	n/a	n/a	7	43	Cue	Win	True
410.567	4.0	Win2	0.6591	0.0	Yes	3.183	0.0	n/a	GoodResponse	1	n/a	n/a	7	43	Fixation	Win	True
414.565	0.31	Win2	0.6591	0.002	Yes	3.183	-0.002	2.0	GoodResponse	1	0.19	413.755	7	43	Target	Win	True
414.755	0.3	Win2	0.6591	0.002	Yes	3.183	-0.002	2.0	GoodResponse	1	0.19	n/a	7	43	ButtonPress	Win	True
414.882	0.39	Win2	0.6591	n/a	Yes	3.183	n/a	n/a	GoodResponse	1	n/a	n/a	7	43	Blank	Win	True
415.265	1.45	Win2	0.6591	n/a	Yes	3.183	n/a	5.0	GoodResponse	1	0.028	414.293	7	43	Feedback	Win	True
416.715	3.183	Win2	0.6591	n/a	Yes	3.183	n/a	n/a	GoodResponse	1	0.0	n/a	7	43	ISIslide	Win	True
419.93	0.25	Win2	0.6444	0.0	No	2.97	0.03	n/a	NoResponse	0	n/a	n/a	7	44	Cue	MissedWin	False
420.18	4.0	Win2	0.6444	0.0	No	2.97	0.0	2.0	NoResponse	0	3.864	423.044	7	44	Fixation	MissedWin	False
424.044	0.3	Win2	0.6444	0.0	No	2.97	0.0	2.0	NoResponse	0	3.864	n/a	7	44	ButtonPress	MissedWin	False
424.179	0.31	Win2	0.6444	0.001	No	2.97	-0.001	2.0	NoResponse	0	0.422	423.601	7	44	Target	MissedWin	False
424.495	0.39	Win2	0.6444	n/a	No	2.97	n/a	n/a	NoResponse	0	n/a	n/a	7	44	Blank	MissedWin	False
424.601	0.3	Win2	0.6444	0.001	No	2.97	-0.001	2.0	NoResponse	0	0.422	n/a	7	44	ButtonPress	MissedWin	False
424.879	1.45	Win2	0.6444	n/a	No	2.97	n/a	5.0	NoResponse	0	0.024	423.903	7	44	Feedback	MissedWin	False
426.328	2.97	Win2	0.6444	n/a	No	2.97	n/a	n/a	NoResponse	0	0.0	n/a	7	44	ISIslide	MissedWin	False
429.327	0.25	Control	0.6522	0.0	Yes	2.873	0.027	n/a	GoodResponse	0	n/a	n/a	7	45	Cue	Neutral	True
429.577	4.1	Control	0.6522	0.0	Yes	2.873	0.0	n/a	GoodResponse	0	n/a	n/a	7	45	Fixation	Neutral	True
433.676	0.32	Control	0.6522	0.001	Yes	2.873	-0.001	2.0	GoodResponse	0	0.199	432.875	7	45	Target	Neutral	True
433.875	0.3	Control	0.6522	0.001	Yes	2.873	-0.001	2.0	GoodResponse	0	0.199	n/a	7	45	ButtonPress	Neutral	True
434.009	0.38	Control	0.6522	n/a	Yes	2.873	n/a	n/a	GoodResponse	0	n/a	n/a	7	45	Blank	Neutral	True
434.375	1.45	Control	0.6522	n/a	Yes	2.873	n/a	5.0	GoodResponse	0	0.04	433.415	7	45	Feedback	Neutral	True
435.825	2.873	Control	0.6522	n/a	Yes	2.873	n/a	n/a	GoodResponse	0	0.0	n/a	7	45	ISIslide	Neutral	True
438.724	0.25	Lose2	0.6596	0.0	Yes	3.376	0.024	n/a	GoodResponse	0	n/a	n/a	7	46	Cue	AvoidedLoss	True
438.974	4.0	Lose2	0.6596	0.0	Yes	3.376	0.0	n/a	GoodResponse	0	n/a	n/a	7	46	Fixation	AvoidedLoss	True
442.972	0.33	Lose2	0.6596	0.002	Yes	3.376	-0.002	2.0	GoodResponse	0	0.259	442.231	7	46	Target	AvoidedLoss	True
443.231	0.3	Lose2	0.6596	0.002	Yes	3.376	-0.002	2.0	GoodResponse	0	0.259	n/a	7	46	ButtonPress	AvoidedLoss	True
443.306	0.37	Lose2	0.6596	n/a	Yes	3.376	n/a	n/a	GoodResponse	0	n/a	n/a	7	46	Blank	AvoidedLoss	True
443.672	1.45	Lose2	0.6596	n/a	Yes	3.376	n/a	5.0	GoodResponse	0	0.011	442.683	7	46	Feedback	AvoidedLoss	True
445.122	3.376	Lose2	0.6596	n/a	Yes	3.376	n/a	n/a	GoodResponse	0	0.0	n/a	7	46	ISIslide	AvoidedLoss	True
448.52	0.25	Lose2	0.6667000000000001	0.001	Yes	2.68	0.02	n/a	GoodResponse	0	n/a	n/a	7	47	Cue	AvoidedLoss	True
448.77	4.0	Lose2	0.6667000000000001	0.0	Yes	2.68	0.0	n/a	GoodResponse	0	n/a	n/a	7	47	Fixation	AvoidedLoss	True
452.769	0.33	Lose2	0.6667000000000001	0.001	Yes	2.68	-0.001	2.0	GoodResponse	0	0.183	451.952	7	47	Target	AvoidedLoss	True
452.952	0.3	Lose2	0.6667000000000001	0.001	Yes	2.68	-0.001	2.0	GoodResponse	0	0.183	n/a	7	47	ButtonPress	AvoidedLoss	True
453.102	0.37	Lose2	0.6667000000000001	n/a	Yes	2.68	n/a	n/a	GoodResponse	0	n/a	n/a	7	47	Blank	AvoidedLoss	True
453.469	1.45	Lose2	0.6667000000000001	n/a	Yes	2.68	n/a	5.0	GoodResponse	0	0.019	452.488	7	47	Feedback	AvoidedLoss	True
454.918	2.68	Lose2	0.6667000000000001	n/a	Yes	2.68	n/a	n/a	GoodResponse	0	0.0	n/a	7	47	ISIslide	AvoidedLoss	True
457.617	0.25	Lose2	0.6735	0.0	Yes	3.033	0.017	n/a	GoodResponse	0	n/a	n/a	7	48	Cue	AvoidedLoss	True
457.867	3.95	Lose2	0.6735	0.0	Yes	3.033	0.0	n/a	GoodResponse	0	n/a	n/a	7	48	Fixation	AvoidedLoss	True
461.816	0.32	Lose2	0.6735	0.001	Yes	3.033	-0.001	2.0	GoodResponse	0	0.211	461.027	7	48	Target	AvoidedLoss	True
462.027	0.3	Lose2	0.6735	0.001	Yes	3.033	-0.001	2.0	GoodResponse	0	0.211	n/a	7	48	ButtonPress	AvoidedLoss	True
462.132	0.38	Lose2	0.6735	n/a	Yes	3.033	n/a	n/a	GoodResponse	0	n/a	n/a	7	48	Blank	AvoidedLoss	True
462.516	1.45	Lose2	0.6735	n/a	Yes	3.033	n/a	5.0	GoodResponse	0	0.045	461.561	7	48	Feedback	AvoidedLoss	True
463.965	3.033	Lose2	0.6735	n/a	Yes	3.033	n/a	n/a	GoodResponse	0	0.0	n/a	7	48	ISIslide	AvoidedLoss	True
467.014	0.25	Control	0.68	0.0	Yes	2.886	0.014	n/a	GoodResponse	0	n/a	n/a	7	49	Cue	Neutral	True
467.264	4.0	Control	0.68	0.0	Yes	2.886	0.0	n/a	GoodResponse	0	n/a	n/a	7	49	Fixation	Neutral	True
471.263	0.31	Control	0.68	0.001	Yes	2.886	-0.001	2.0	GoodResponse	0	0.23	470.493	7	49	Target	Neutral	True
471.493	0.3	Control	0.68	0.001	Yes	2.886	-0.001	2.0	GoodResponse	0	0.23	n/a	7	49	ButtonPress	Neutral	True
471.579	0.39	Control	0.68	n/a	Yes	2.886	n/a	n/a	GoodResponse	0	n/a	n/a	7	49	Blank	Neutral	True
471.962	1.45	Control	0.68	n/a	Yes	2.886	n/a	5.0	GoodResponse	0	0.014	470.976	7	49	Feedback	Neutral	True
473.412	2.886	Control	0.68	n/a	Yes	2.886	n/a	n/a	GoodResponse	0	0.0	n/a	7	49	ISIslide	Neutral	True
476.327	0.25	Control	0.6862999999999999	0.001	Yes	2.773	0.027	n/a	GoodResponse	0	n/a	n/a	7	50	Cue	Neutral	True
476.577	4.0	Control	0.6862999999999999	0.0	Yes	2.773	0.0	n/a	GoodResponse	0	n/a	n/a	7	50	Fixation	Neutral	True
480.576	0.3	Control	0.6862999999999999	0.001	Yes	2.773	-0.001	2.0	GoodResponse	0	0.21	479.786	7	50	Target	Neutral	True
480.786	0.3	Control	0.6862999999999999	0.001	Yes	2.773	-0.001	2.0	GoodResponse	0	0.21	n/a	7	50	ButtonPress	Neutral	True
480.876	0.4	Control	0.6862999999999999	n/a	Yes	2.773	n/a	n/a	GoodResponse	0	n/a	n/a	7	50	Blank	Neutral	True
481.276	1.45	Control	0.6862999999999999	n/a	Yes	2.773	n/a	5.0	GoodResponse	0	0.017	480.293	7	50	Feedback	Neutral	True
482.725	2.773	Control	0.6862999999999999	n/a	Yes	2.773	n/a	n/a	GoodResponse	0	0.0	n/a	7	50	ISIslide	Neutral	True
485.524	0.25	Control	0.6923	0.0	Yes	2.726	0.024	n/a	GoodResponse	0	n/a	n/a	7	51	Cue	Neutral	True
485.774	3.95	Control	0.6923	0.0	Yes	2.726	0.0	n/a	GoodResponse	0	n/a	n/a	7	51	Fixation	Neutral	True
489.723	0.29	Control	0.6923	0.001	Yes	2.726	-0.001	2.0	GoodResponse	0	0.207	488.93	7	51	Target	Neutral	True
489.93	0.3	Control	0.6923	0.001	Yes	2.726	-0.001	2.0	GoodResponse	0	0.207	n/a	7	51	ButtonPress	Neutral	True
490.023	0.41	Control	0.6923	n/a	Yes	2.726	n/a	n/a	GoodResponse	0	n/a	n/a	7	51	Blank	Neutral	True
490.423	1.45	Control	0.6923	n/a	Yes	2.726	n/a	5.0	GoodResponse	0	0.041	489.464	7	51	Feedback	Neutral	True
491.872	2.726	Control	0.6923	n/a	Yes	2.726	n/a	n/a	GoodResponse	0	0.0	n/a	7	51	ISIslide	Neutral	True
494.621	0.25	Control	0.6981	0.0	Yes	2.629	0.021	n/a	GoodResponse	0	n/a	n/a	7	52	Cue	Neutral	True
494.871	4.05	Control	0.6981	0.0	Yes	2.629	0.0	n/a	GoodResponse	0	n/a	n/a	7	52	Fixation	Neutral	True
498.92	0.28	Control	0.6981	0.001	Yes	2.629	-0.001	2.0	GoodResponse	0	0.207	498.127	7	52	Target	Neutral	True
499.127	0.3	Control	0.6981	0.001	Yes	2.629	-0.001	2.0	GoodResponse	0	0.207	n/a	7	52	ButtonPress	Neutral	True
499.203	0.42	Control	0.6981	n/a	Yes	2.629	n/a	n/a	GoodResponse	0	n/a	n/a	7	52	Blank	Neutral	True
499.619	1.45	Control	0.6981	n/a	Yes	2.629	n/a	5.0	GoodResponse	0	0.015	498.634	7	52	Feedback	Neutral	True
501.069	2.629	Control	0.6981	n/a	Yes	2.629	n/a	n/a	GoodResponse	0	0.0	n/a	7	52	ISIslide	Neutral	True
503.718	0.25	Win2	0.7037	0.0	Yes	2.932	0.018	n/a	GoodResponse	1	n/a	n/a	8	53	Cue	Win	True
503.968	4.05	Win2	0.7037	0.0	Yes	2.932	0.0	n/a	GoodResponse	1	n/a	n/a	8	53	Fixation	Win	True
508.016	0.27	Win2	0.7037	0.002	Yes	2.932	-0.002	2.0	GoodResponse	1	0.178	507.194	8	53	Target	Win	True
508.194	0.3	Win2	0.7037	0.002	Yes	2.932	-0.002	2.0	GoodResponse	1	0.178	n/a	8	53	ButtonPress	Win	True
508.3	0.43	Win2	0.7037	n/a	Yes	2.932	n/a	n/a	GoodResponse	1	n/a	n/a	8	53	Blank	Win	True
508.716	1.45	Win2	0.7037	n/a	Yes	2.932	n/a	5.0	GoodResponse	1	0.04	507.756	8	53	Feedback	Win	True
510.166	2.932	Win2	0.7037	n/a	Yes	2.932	n/a	n/a	GoodResponse	1	0.0	n/a	8	53	ISIslide	Win	True
513.115	0.25	Win2	0.7091	0.0	Yes	2.735	0.015	n/a	GoodResponse	1	n/a	n/a	9	54	Cue	Win	True
513.365	3.95	Win2	0.7091	0.0	Yes	2.735	0.0	n/a	GoodResponse	1	n/a	n/a	9	54	Fixation	Win	True
517.313	0.26	Win2	0.7091	0.002	Yes	2.735	-0.002	2.0	GoodResponse	1	0.259	516.572	9	54	Target	Win	True
517.572	0.3	Win2	0.7091	0.002	Yes	2.735	-0.002	2.0	GoodResponse	1	0.259	n/a	9	54	ButtonPress	Win	True
517.58	0.44	Win2	0.7091	n/a	Yes	2.735	n/a	n/a	GoodResponse	1	n/a	n/a	9	54	Blank	Win	True
518.013	1.45	Win2	0.7091	n/a	Yes	2.735	n/a	5.0	GoodResponse	1	0.011	517.024	9	54	Feedback	Win	True
519.463	2.735	Win2	0.7091	n/a	Yes	2.735	n/a	n/a	GoodResponse	1	0.0	n/a	9	54	ISIslide	Win	True
522.228	0.25	Control	0.7143	0.0	Yes	3.022	0.028	n/a	GoodResponse	0	n/a	n/a	9	55	Cue	Neutral	True
522.478	3.95	Control	0.7143	0.0	Yes	3.022	0.0	n/a	GoodResponse	0	n/a	n/a	9	55	Fixation	Neutral	True
526.427	0.25	Control	0.7143	0.001	Yes	3.022	-0.001	2.0	GoodResponse	0	0.242	525.669	9	55	Target	Neutral	True
526.669	0.3	Control	0.7143	0.001	Yes	3.022	-0.001	2.0	GoodResponse	0	0.242	n/a	9	55	ButtonPress	Neutral	True
526.677	0.45	Control	0.7143	n/a	Yes	3.022	n/a	n/a	GoodResponse	0	n/a	n/a	9	55	Blank	Neutral	True
527.127	1.45	Control	0.7143	n/a	Yes	3.022	n/a	5.0	GoodResponse	0	0.019	526.146	9	55	Feedback	Neutral	True
528.576	3.022	Control	0.7143	n/a	Yes	3.022	n/a	n/a	GoodResponse	0	0.0	n/a	9	55	ISIslide	Neutral	True
531.625	0.25	Control	0.7193	0.0	Yes	2.825	0.025	n/a	GoodResponse	0	n/a	n/a	9	56	Cue	Neutral	True
531.875	3.95	Control	0.7193	0.0	Yes	2.825	0.0	n/a	GoodResponse	0	n/a	n/a	9	56	Fixation	Neutral	True
535.824	0.24	Control	0.7193	0.001	Yes	2.825	-0.001	2.0	GoodResponse	0	0.185	535.009	9	56	Target	Neutral	True
536.009	0.3	Control	0.7193	0.001	Yes	2.825	-0.001	2.0	GoodResponse	0	0.185	n/a	9	56	ButtonPress	Neutral	True
536.073	0.46	Control	0.7193	n/a	Yes	2.825	n/a	n/a	GoodResponse	0	n/a	n/a	9	56	Blank	Neutral	True
536.523	1.45	Control	0.7193	n/a	Yes	2.825	n/a	5.0	GoodResponse	0	0.038	535.561	9	56	Feedback	Neutral	True
537.973	2.825	Control	0.7193	n/a	Yes	2.825	n/a	n/a	GoodResponse	0	0.0	n/a	9	56	ISIslide	Neutral	True
540.822	0.25	Control	0.7241	0.0	Yes	3.478	0.022	n/a	GoodResponse	0	n/a	n/a	9	57	Cue	Neutral	True
541.072	4.0	Control	0.7241	0.0	Yes	3.478	0.0	n/a	GoodResponse	0	n/a	n/a	9	57	Fixation	Neutral	True
545.07	0.23	Control	0.7241	0.002	Yes	3.478	-0.002	2.0	GoodResponse	0	0.205	544.275	9	57	Target	Neutral	True
545.275	0.3	Control	0.7241	0.002	Yes	3.478	-0.002	2.0	GoodResponse	0	0.205	n/a	9	57	ButtonPress	Neutral	True
545.304	0.47	Control	0.7241	n/a	Yes	3.478	n/a	n/a	GoodResponse	0	n/a	n/a	9	57	Blank	Neutral	True
545.77	1.45	Control	0.7241	n/a	Yes	3.478	n/a	5.0	GoodResponse	0	0.011	544.781	9	57	Feedback	Neutral	True
547.22	3.478	Control	0.7241	n/a	Yes	3.478	n/a	n/a	GoodResponse	0	0.0	n/a	9	57	ISIslide	Neutral	True
550.718	0.25	Win2	0.7288	0.0	Yes	2.732	0.018	n/a	GoodResponse	1	n/a	n/a	10	58	Cue	Win	True
550.968	4.05	Win2	0.7288	0.0	Yes	2.732	0.0	n/a	GoodResponse	1	n/a	n/a	10	58	Fixation	Win	True
555.017	0.22	Win2	0.7288	0.001	Yes	2.732	-0.001	2.0	GoodResponse	1	0.187	554.204	10	58	Target	Win	True
555.204	0.3	Win2	0.7288	0.001	Yes	2.732	-0.001	2.0	GoodResponse	1	0.187	n/a	10	58	ButtonPress	Win	True
555.233	0.48	Win2	0.7288	n/a	Yes	2.732	n/a	n/a	GoodResponse	1	n/a	n/a	10	58	Blank	Win	True
555.717	1.45	Win2	0.7288	n/a	Yes	2.732	n/a	5.0	GoodResponse	1	0.015	554.732	10	58	Feedback	Win	True
557.166	2.732	Win2	0.7288	n/a	Yes	2.732	n/a	n/a	GoodResponse	1	0.0	n/a	10	58	ISIslide	Win	True
559.915	0.25	Lose2	0.7333	0.0	Yes	2.685	0.015	n/a	GoodResponse	0	n/a	n/a	10	59	Cue	AvoidedLoss	True
560.165	4.0	Lose2	0.7333	0.0	Yes	2.685	0.0	n/a	GoodResponse	0	n/a	n/a	10	59	Fixation	AvoidedLoss	True
564.164	0.21	Lose2	0.7333	0.001	Yes	2.685	-0.001	2.0	GoodResponse	0	0.185	563.349	10	59	Target	AvoidedLoss	True
564.349	0.3	Lose2	0.7333	0.001	Yes	2.685	-0.001	2.0	GoodResponse	0	0.185	n/a	10	59	ButtonPress	AvoidedLoss	True
564.38	0.49	Lose2	0.7333	n/a	Yes	2.685	n/a	n/a	GoodResponse	0	n/a	n/a	10	59	Blank	AvoidedLoss	True
564.864	1.45	Lose2	0.7333	n/a	Yes	2.685	n/a	5.0	GoodResponse	0	0.038	563.902	10	59	Feedback	AvoidedLoss	True
566.313	2.685	Lose2	0.7333	n/a	Yes	2.685	n/a	n/a	GoodResponse	0	0.0	n/a	10	59	ISIslide	AvoidedLoss	True
569.029	0.25	Control	0.7376999999999999	0.0	Yes	2.671	0.029	n/a	GoodResponse	0	n/a	n/a	10	60	Cue	Neutral	True
569.279	4.0	Control	0.7376999999999999	0.0	Yes	2.671	0.0	n/a	GoodResponse	0	n/a	n/a	10	60	Fixation	Neutral	True
573.277	0.2	Control	0.7376999999999999	0.002	Yes	2.671	-0.002	2.0	GoodResponse	0	0.168	572.445	10	60	Target	Neutral	True
573.445	0.3	Control	0.7376999999999999	0.002	Yes	2.671	-0.002	2.0	GoodResponse	0	0.168	n/a	10	60	ButtonPress	Neutral	True
573.477	0.5	Control	0.7376999999999999	n/a	Yes	2.671	n/a	n/a	GoodResponse	0	n/a	n/a	10	60	Blank	Neutral	True
573.977	1.45	Control	0.7376999999999999	n/a	Yes	2.671	n/a	5.0	GoodResponse	0	0.047	573.024	10	60	Feedback	Neutral	True
575.427	2.671	Control	0.7376999999999999	n/a	Yes	2.671	n/a	n/a	GoodResponse	0	0.0	n/a	10	60	ISIslide	Neutral	True
578.126	0.25	Lose2	0.7419	0.0	Yes	2.974	0.026	n/a	GoodResponse	0	n/a	n/a	10	61	Cue	AvoidedLoss	True
578.375	4.0	Lose2	0.7419	0.001	Yes	2.974	-0.001	n/a	GoodResponse	0	n/a	n/a	10	61	Fixation	AvoidedLoss	True
582.374	0.19	Lose2	0.7419	0.002	Yes	2.974	-0.002	2.0	GoodResponse	0	0.182	581.556	10	61	Target	AvoidedLoss	True
582.556	0.3	Lose2	0.7419	0.002	Yes	2.974	-0.002	2.0	GoodResponse	0	0.182	n/a	10	61	ButtonPress	AvoidedLoss	True
582.574	0.51	Lose2	0.7419	n/a	Yes	2.974	n/a	n/a	GoodResponse	0	n/a	n/a	10	61	Blank	AvoidedLoss	True
583.074	1.45	Lose2	0.7419	n/a	Yes	2.974	n/a	5.0	GoodResponse	0	0.023	582.097	10	61	Feedback	AvoidedLoss	True
584.523	2.974	Lose2	0.7419	n/a	Yes	2.974	n/a	n/a	GoodResponse	0	0.0	n/a	10	61	ISIslide	AvoidedLoss	True
587.522	0.25	Lose2	0.7302	0.0	No	2.878	0.022	n/a	NoResponse	-1	n/a	n/a	9	62	Cue	Loss	True
587.772	3.9	Lose2	0.7302	0.0	No	2.878	0.0	n/a	NoResponse	-1	n/a	n/a	9	62	Fixation	Loss	True
591.671	0.18	Lose2	0.7302	0.001	No	2.878	-0.001	2.0	NoResponse	-1	0.193	590.864	9	62	Target	Loss	True
591.854	0.52	Lose2	0.7302	n/a	No	2.878	n/a	n/a	NoResponse	-1	n/a	n/a	9	62	Blank	Loss	True
591.864	0.3	Lose2	0.7302	0.001	No	2.878	-0.001	2.0	NoResponse	-1	0.193	n/a	9	62	ButtonPress	Loss	True
592.371	1.45	Lose2	0.7302	n/a	No	2.878	n/a	5.0	NoResponse	-1	0.043	591.414	9	62	Feedback	Loss	True
593.82	2.878	Lose2	0.7302	n/a	No	2.878	n/a	n/a	NoResponse	-1	0.0	n/a	9	62	ISIslide	Loss	True
596.719	0.25	Lose2	0.7188	0.0	No	2.631	0.019	n/a	NoResponse	-1	n/a	n/a	8	63	Cue	Loss	True
596.969	4.05	Lose2	0.7188	0.0	No	2.631	0.0	n/a	NoResponse	-1	n/a	n/a	8	63	Fixation	Loss	True
601.018	0.17	Lose2	0.7188	0.001	No	2.631	-0.001	2.0	NoResponse	-1	0.199	600.217	8	63	Target	Loss	True
601.201	0.53	Lose2	0.7188	n/a	No	2.631	n/a	n/a	NoResponse	-1	n/a	n/a	8	63	Blank	Loss	True
601.217	0.3	Lose2	0.7188	0.001	No	2.631	-0.001	2.0	NoResponse	-1	0.199	n/a	8	63	ButtonPress	Loss	True
601.717	1.45	Lose2	0.7188	n/a	No	2.631	n/a	5.0	NoResponse	-1	0.015	600.732	8	63	Feedback	Loss	True
603.167	2.631	Lose2	0.7188	n/a	No	2.631	n/a	n/a	NoResponse	-1	0.0	n/a	8	63	ISIslide	Loss	True
605.816	0.25	Win2	0.7077	0.0	No	3.134	0.016	n/a	NoResponse	0	n/a	n/a	8	64	Cue	MissedWin	True
606.066	4.15	Win2	0.7077	0.0	No	3.134	0.0	2.0	NoResponse	0	4.135	609.201	8	64	Fixation	MissedWin	True
610.201	0.3	Win2	0.7077	0.0	No	3.134	0.0	2.0	NoResponse	0	4.135	n/a	8	64	ButtonPress	MissedWin	True
610.214	0.16	Win2	0.7077	0.002	No	3.134	-0.002	n/a	NoResponse	0	n/a	n/a	8	64	Target	MissedWin	True
610.381	0.54	Win2	0.7077	n/a	No	3.134	n/a	n/a	NoResponse	0	n/a	n/a	8	64	Blank	MissedWin	True
610.914	1.45	Win2	0.7077	n/a	No	3.134	n/a	5.0	NoResponse	0	0.037	609.951	8	64	Feedback	MissedWin	True
612.364	3.134	Win2	0.7077	n/a	No	3.134	n/a	n/a	NoResponse	0	0.0	n/a	8	64	ISIslide	MissedWin	True
615.513	0.25	Control	0.6970000000000001	0.0	No	2.787	0.013	n/a	NoResponse	0	n/a	n/a	8	65	Cue	Neutral	True
615.763	4.0	Control	0.6970000000000001	0.0	No	2.787	0.0	n/a	NoResponse	0	n/a	n/a	8	65	Fixation	Neutral	True
619.761	0.15	Control	0.6970000000000001	0.002	No	2.787	-0.002	2.0	NoResponse	0	0.205	618.966	8	65	Target	Neutral	True
619.911	0.55	Control	0.6970000000000001	n/a	No	2.787	n/a	n/a	NoResponse	0	n/a	n/a	8	65	Blank	Neutral	True
619.966	0.3	Control	0.6970000000000001	0.002	No	2.787	-0.002	2.0	NoResponse	0	0.205	n/a	8	65	ButtonPress	Neutral	True
620.461	1.45	Control	0.6970000000000001	n/a	No	2.787	n/a	5.0	NoResponse	0	0.001	619.462	8	65	Feedback	Neutral	True
621.91	2.787	Control	0.6970000000000001	n/a	No	2.787	n/a	n/a	NoResponse	0	0.0	n/a	8	65	ISIslide	Neutral	True
624.726	0.25	Win2	0.6866	0.0	No	2.774	0.026	n/a	NoResponse	0	n/a	n/a	8	66	Cue	MissedWin	True
624.976	3.9	Win2	0.6866	0.0	No	2.774	0.0	n/a	NoResponse	0	n/a	n/a	8	66	Fixation	MissedWin	True
628.875	0.15	Win2	0.6866	0.001	No	2.774	-0.001	2.0	NoResponse	0	0.192	628.067	8	66	Target	MissedWin	True
629.025	0.55	Win2	0.6866	n/a	No	2.774	n/a	n/a	NoResponse	0	n/a	n/a	8	66	Blank	MissedWin	True
629.067	0.3	Win2	0.6866	0.001	No	2.774	-0.001	2.0	NoResponse	0	0.192	n/a	8	66	ButtonPress	MissedWin	True
629.574	1.45	Win2	0.6866	n/a	No	2.774	n/a	5.0	NoResponse	0	0.011	628.585	8	66	Feedback	MissedWin	True
631.024	2.774	Win2	0.6866	n/a	No	2.774	n/a	n/a	NoResponse	0	0.0	n/a	8	66	ISIslide	MissedWin	True
633.823	0.25	Control	0.6765000000000001	0.0	No	2.727	0.023	n/a	NoResponse	0	n/a	n/a	8	67	Cue	Neutral	True
634.073	3.95	Control	0.6765000000000001	0.0	No	2.727	0.0	n/a	NoResponse	0	n/a	n/a	8	67	Fixation	Neutral	True
638.022	0.15	Control	0.6765000000000001	0.001	No	2.727	-0.001	2.0	NoResponse	0	0.24	637.262	8	67	Target	Neutral	True
638.171	0.55	Control	0.6765000000000001	n/a	No	2.727	n/a	n/a	NoResponse	0	n/a	n/a	8	67	Blank	Neutral	True
638.262	0.3	Control	0.6765000000000001	0.001	No	2.727	-0.001	2.0	NoResponse	0	0.24	n/a	8	67	ButtonPress	Neutral	True
638.721	1.45	Control	0.6765000000000001	n/a	No	2.727	n/a	5.0	NoResponse	0	0.034	637.755	8	67	Feedback	Neutral	True
640.171	2.727	Control	0.6765000000000001	n/a	No	2.727	n/a	n/a	NoResponse	0	0.0	n/a	8	67	ISIslide	Neutral	True
642.92	0.25	Win2	0.6667000000000001	0.0	No	3.08	0.02	n/a	NoResponse	0	n/a	n/a	8	68	Cue	MissedWin	True
643.17	4.0	Win2	0.6667000000000001	0.0	No	3.08	0.0	n/a	NoResponse	0	n/a	n/a	8	68	Fixation	MissedWin	True
647.168	0.15	Win2	0.6667000000000001	0.002	No	3.08	-0.002	2.0	NoResponse	0	0.182	646.35	8	68	Target	MissedWin	True
647.318	0.55	Win2	0.6667000000000001	n/a	No	3.08	n/a	n/a	NoResponse	0	n/a	n/a	8	68	Blank	MissedWin	True
647.35	0.3	Win2	0.6667000000000001	0.002	No	3.08	-0.002	2.0	NoResponse	0	0.182	n/a	8	68	ButtonPress	MissedWin	True
647.868	1.45	Win2	0.6667000000000001	n/a	No	3.08	n/a	5.0	NoResponse	0	0.009	646.877	8	68	Feedback	MissedWin	True
649.318	3.08	Win2	0.6667000000000001	n/a	No	3.08	n/a	n/a	NoResponse	0	0.0	n/a	8	68	ISIslide	MissedWin	True
652.417	0.25	Win2	0.6570999999999999	0.0	No	3.233	0.017	n/a	NoResponse	0	n/a	n/a	8	69	Cue	MissedWin	True
652.666	3.95	Win2	0.6570999999999999	0.001	No	3.233	-0.001	2.0	NoResponse	0	0.013	651.679	8	69	Fixation	MissedWin	True
652.679	0.3	Win2	0.6570999999999999	0.001	No	3.233	-0.001	2.0	NoResponse	0	0.013	n/a	8	69	ButtonPress	MissedWin	True
656.615	0.15	Win2	0.6570999999999999	0.002	No	3.233	-0.002	n/a	NoResponse	0	n/a	n/a	8	69	Target	MissedWin	True
656.765	0.55	Win2	0.6570999999999999	n/a	No	3.233	n/a	n/a	NoResponse	0	n/a	n/a	8	69	Blank	MissedWin	True
657.315	1.45	Win2	0.6570999999999999	n/a	No	3.233	n/a	5.0	NoResponse	0	0.026	656.341	8	69	Feedback	MissedWin	True
658.764	3.233	Win2	0.6570999999999999	n/a	No	3.233	n/a	n/a	NoResponse	0	0.0	n/a	8	69	ISIslide	MissedWin	True
662.03	0.25	Lose2	0.6479	0.0	No	3.02	0.03	n/a	NoResponse	-1	n/a	n/a	7	70	Cue	Loss	True
662.28	4.05	Lose2	0.6479	0.0	No	3.02	0.0	n/a	NoResponse	-1	n/a	n/a	7	70	Fixation	Loss	True
666.328	0.15	Lose2	0.6479	0.002	No	3.02	-0.002	2.0	NoResponse	-1	0.181	665.509	7	70	Target	Loss	True
666.478	0.55	Lose2	0.6479	n/a	No	3.02	n/a	n/a	NoResponse	-1	n/a	n/a	7	70	Blank	Loss	True
666.509	0.3	Lose2	0.6479	0.002	No	3.02	-0.002	2.0	NoResponse	-1	0.181	n/a	7	70	ButtonPress	Loss	True
667.028	1.45	Lose2	0.6479	n/a	No	3.02	n/a	5.0	NoResponse	-1	0.02	666.048	7	70	Feedback	Loss	True
668.478	3.02	Lose2	0.6479	n/a	No	3.02	n/a	n/a	NoResponse	-1	0.0	n/a	7	70	ISIslide	Loss	True
671.527	0.25	Win2	0.6389	0.0	No	2.723	0.027	n/a	NoResponse	0	n/a	n/a	7	71	Cue	MissedWin	True
671.777	4.05	Win2	0.6389	0.0	No	2.723	0.0	n/a	NoResponse	0	n/a	n/a	7	71	Fixation	MissedWin	True
675.825	0.16	Win2	0.6389	0.002	No	2.723	-0.002	2.0	NoResponse	0	0.193	675.018	7	71	Target	MissedWin	True
675.992	0.54	Win2	0.6389	n/a	No	2.723	n/a	n/a	NoResponse	0	n/a	n/a	7	71	Blank	MissedWin	True
676.018	0.3	Win2	0.6389	0.002	No	2.723	-0.002	2.0	NoResponse	0	0.193	n/a	7	71	ButtonPress	MissedWin	True
676.525	1.45	Win2	0.6389	n/a	No	2.723	n/a	5.0	NoResponse	0	0.036	675.561	7	71	Feedback	MissedWin	True
677.974	2.723	Win2	0.6389	n/a	No	2.723	n/a	n/a	NoResponse	0	0.0	n/a	7	71	ISIslide	MissedWin	True
680.723	0.25	Win2	0.6301	0.001	No	2.777	0.023	n/a	NoResponse	0	n/a	n/a	7	72	Cue	MissedWin	False
680.973	4.1	Win2	0.6301	0.0	No	2.777	0.0	2.0	NoResponse	0	0.045	680.018	7	72	Fixation	MissedWin	False
681.018	0.3	Win2	0.6301	0.0	No	2.777	0.0	2.0	NoResponse	0	0.045	n/a	7	72	ButtonPress	MissedWin	False
685.072	0.17	Win2	0.6301	0.001	No	2.777	-0.001	2.0	NoResponse	0	0.207	684.279	7	72	Target	MissedWin	False
685.239	0.53	Win2	0.6301	n/a	No	2.777	n/a	n/a	NoResponse	0	n/a	n/a	7	72	Blank	MissedWin	False
685.279	0.3	Win2	0.6301	0.001	No	2.777	-0.001	2.0	NoResponse	0	0.207	n/a	7	72	ButtonPress	MissedWin	False
685.772	1.45	Win2	0.6301	n/a	No	2.777	n/a	5.0	NoResponse	0	0.007	684.779	7	72	Feedback	MissedWin	False
687.221	2.777	Win2	0.6301	n/a	No	2.777	n/a	n/a	NoResponse	0	0.0	n/a	7	72	ISIslide	MissedWin	False
690.02	0.25	Win2	0.6215999999999999	0.0	No	2.68	0.02	n/a	PrematurePress	0	n/a	n/a	7	73	Cue	MissedWin	True
690.27	4.0	Win2	0.6215999999999999	0.0	No	2.68	0.0	n/a	PrematurePress	0	n/a	n/a	7	73	Fixation	MissedWin	True
694.269	0.18	Win2	0.6215999999999999	0.001	No	2.68	-0.001	2.0	PrematurePress	0	0.014	693.283	7	73	Target	MissedWin	True
694.283	0.3	Win2	0.6215999999999999	0.001	No	2.68	-0.001	2.0	PrematurePress	0	0.014	n/a	7	73	ButtonPress	MissedWin	True
694.452	0.52	Win2	0.6215999999999999	n/a	No	2.68	n/a	n/a	PrematurePress	0	n/a	n/a	7	73	Blank	MissedWin	True
694.969	1.45	Win2	0.6215999999999999	n/a	No	2.68	n/a	5.0	PrematurePress	0	0.03	693.999	7	73	Feedback	MissedWin	True
696.418	2.68	Win2	0.6215999999999999	n/a	No	2.68	n/a	n/a	PrematurePress	0	0.0	n/a	7	73	ISIslide	MissedWin	True
699.117	0.25	Lose2	0.6133	0.0	No	2.633	0.017	n/a	NoResponse	-1	n/a	n/a	6	74	Cue	Loss	True
699.367	4.05	Lose2	0.6133	0.0	No	2.633	0.0	n/a	NoResponse	-1	n/a	n/a	6	74	Fixation	Loss	True
703.416	0.19	Lose2	0.6133	0.001	No	2.633	-0.001	2.0	NoResponse	-1	0.21	702.626	6	74	Target	Loss	True
703.616	0.51	Lose2	0.6133	n/a	No	2.633	n/a	n/a	NoResponse	-1	n/a	n/a	6	74	Blank	Loss	True
703.626	0.3	Lose2	0.6133	0.001	No	2.633	-0.001	2.0	NoResponse	-1	0.21	n/a	6	74	ButtonPress	Loss	True
704.115	1.45	Lose2	0.6133	n/a	No	2.633	n/a	5.0	NoResponse	-1	0.006	703.121	6	74	Feedback	Loss	True
705.565	2.633	Lose2	0.6133	n/a	No	2.633	n/a	n/a	NoResponse	-1	0.0	n/a	6	74	ISIslide	Loss	True
708.214	0.25	Lose2	0.6053000000000001	0.0	No	2.936	0.014	n/a	NoResponse	-1	n/a	n/a	5	75	Cue	Loss	True
708.464	3.95	Lose2	0.6053000000000001	0.0	No	2.936	0.0	n/a	NoResponse	-1	n/a	n/a	5	75	Fixation	Loss	True
712.412	0.2	Lose2	0.6053000000000001	0.002	No	2.936	-0.002	2.0	NoResponse	-1	0.237	711.649	5	75	Target	Loss	True
712.612	0.5	Lose2	0.6053000000000001	n/a	No	2.936	n/a	n/a	NoResponse	-1	n/a	n/a	5	75	Blank	Loss	True
712.649	0.3	Lose2	0.6053000000000001	0.002	No	2.936	-0.002	2.0	NoResponse	-1	0.237	n/a	5	75	ButtonPress	Loss	True
713.112	1.45	Lose2	0.6053000000000001	n/a	No	2.936	n/a	5.0	NoResponse	-1	0.034	712.146	5	75	Feedback	Loss	True
714.562	2.936	Lose2	0.6053000000000001	n/a	No	2.936	n/a	n/a	NoResponse	-1	0.0	n/a	5	75	ISIslide	Loss	True
717.527	0.25	Control	0.6103999999999999	0.0	Yes	3.223	0.027	n/a	GoodResponse	0	n/a	n/a	5	76	Cue	Neutral	True
717.777	4.05	Control	0.6103999999999999	0.0	Yes	3.223	0.0	n/a	GoodResponse	0	n/a	n/a	5	76	Fixation	Neutral	True
721.826	0.21	Control	0.6103999999999999	0.001	Yes	3.223	-0.001	2.0	GoodResponse	0	0.192	721.018	5	76	Target	Neutral	True
722.018	0.3	Control	0.6103999999999999	0.001	Yes	3.223	-0.001	2.0	GoodResponse	0	0.192	n/a	5	76	ButtonPress	Neutral	True
722.042	0.49	Control	0.6103999999999999	n/a	Yes	3.223	n/a	n/a	GoodResponse	0	n/a	n/a	5	76	Blank	Neutral	True
722.526	1.45	Control	0.6103999999999999	n/a	Yes	3.223	n/a	5.0	GoodResponse	0	0.034	721.56	5	76	Feedback	Neutral	True
723.975	3.223	Control	0.6103999999999999	n/a	Yes	3.223	n/a	n/a	GoodResponse	0	0.0	n/a	5	76	ISIslide	Neutral	True
727.224	0.25	Lose2	0.6026	0.0	No	2.576	0.024	n/a	LatePress	-1	n/a	n/a	4	77	Cue	Loss	True
727.474	3.95	Lose2	0.6026	0.0	No	2.576	0.0	n/a	LatePress	-1	n/a	n/a	4	77	Fixation	Loss	True
731.423	0.22	Lose2	0.6026	0.001	No	2.576	-0.001	2.0	LatePress	-1	0.223	730.646	4	77	Target	Loss	True
731.646	0.3	Lose2	0.6026	0.001	No	2.576	-0.001	2.0	LatePress	-1	0.223	n/a	4	77	ButtonPress	Loss	True
731.656	0.48	Lose2	0.6026	n/a	No	2.576	n/a	n/a	LatePress	-1	n/a	n/a	4	77	Blank	Loss	True
732.122	1.45	Lose2	0.6026	n/a	No	2.576	n/a	5.0	LatePress	-1	0.048	731.17	4	77	Feedback	Loss	True
733.572	2.576	Lose2	0.6026	n/a	No	2.576	n/a	n/a	LatePress	-1	0.0	n/a	4	77	ISIslide	Loss	True
