onset	duration	cue_type	current_mean_accuracy	duration_error	is_hit	isi_adjusted	onset_delay	response	response_type	reward	rt	rt_time	total_reward	trial_number	trial_phase	trial_type	one_press
11.109	0.25	Control	1.0	0.0	Yes	2.941	0.009	n/a	GoodResponse	0	n/a	n/a	0	0	Cue	Neutral	False
11.359	3.85	Control	1.0	0.0	Yes	2.941	0.0	2.0	GoodResponse	0	1.268	11.627	0	0	Fixation	Neutral	False
12.627	0.3	Control	1.0	0.0	Yes	2.941	0.0	2.0	GoodResponse	0	1.268	n/a	0	0	ButtonPress	Neutral	False
15.221	0.4	Control	1.0	0.0	Yes	2.941	0.012	2.0	GoodResponse	0	0.251	14.472	0	0	Target	Neutral	False
15.472	0.3	Control	1.0	0.0	Yes	2.941	0.012	2.0	GoodResponse	0	0.251	n/a	0	0	ButtonPress	Neutral	False
15.605	0.3	Control	1.0	n/a	Yes	2.941	n/a	n/a	GoodResponse	0	n/a	n/a	0	0	Blank	Neutral	False
15.906	1.45	Control	1.0	n/a	Yes	2.941	n/a	5.0	GoodResponse	0	0.021	14.927	0	0	Feedback	Neutral	False
17.361	2.941	Control	1.0	n/a	Yes	2.941	n/a	n/a	GoodResponse	0	0.0	n/a	0	0	ISIslide	Neutral	False
20.319	0.25	Lose2	1.0	0.001	Yes	2.781	0.019	n/a	GoodResponse	0	n/a	n/a	0	1	Cue	AvoidedLoss	True
20.57	4.0	Lose2	1.0	0.0	Yes	2.781	0.001	n/a	GoodResponse	0	n/a	n/a	0	1	Fixation	AvoidedLoss	True
24.566	0.39	Lose2	1.0	0.003	Yes	2.781	-0.003	2.0	GoodResponse	0	0.247	23.813	0	1	Target	AvoidedLoss	True
24.813	0.3	Lose2	1.0	0.003	Yes	2.781	-0.003	2.0	GoodResponse	0	0.247	n/a	0	1	ButtonPress	AvoidedLoss	True
24.967	0.31	Lose2	1.0	n/a	Yes	2.781	n/a	n/a	GoodResponse	0	n/a	n/a	0	1	Blank	AvoidedLoss	True
25.268	1.45	Lose2	1.0	n/a	Yes	2.781	n/a	5.0	GoodResponse	0	0.025	24.293	0	1	Feedback	AvoidedLoss	True
26.722	2.781	Lose2	1.0	n/a	Yes	2.781	n/a	n/a	GoodResponse	0	0.0	n/a	0	1	ISIslide	AvoidedLoss	True
29.53	0.25	Control	1.0	0.001	Yes	2.57	0.03	n/a	GoodResponse	0	n/a	n/a	0	2	Cue	Neutral	True
29.781	4.1	Control	1.0	0.0	Yes	2.57	0.001	n/a	GoodResponse	0	n/a	n/a	0	2	Fixation	Neutral	True
33.877	0.38	Control	1.0	0.003	Yes	2.57	-0.003	2.0	GoodResponse	0	0.266	33.143	0	2	Target	Neutral	True
34.143	0.3	Control	1.0	0.003	Yes	2.57	-0.003	2.0	GoodResponse	0	0.266	n/a	0	2	ButtonPress	Neutral	True
34.261	0.32	Control	1.0	n/a	Yes	2.57	n/a	n/a	GoodResponse	0	n/a	n/a	0	2	Blank	Neutral	True
34.579	1.45	Control	1.0	n/a	Yes	2.57	n/a	5.0	GoodResponse	0	0.031	33.61	0	2	Feedback	Neutral	True
36.033	2.57	Control	1.0	n/a	Yes	2.57	n/a	n/a	GoodResponse	0	0.0	n/a	0	2	ISIslide	Neutral	True
38.624	0.25	Win2	1.0	0.0	Yes	2.826	0.024	n/a	GoodResponse	1	n/a	n/a	1	3	Cue	Win	True
38.875	3.95	Win2	1.0	0.0	Yes	2.826	0.001	n/a	GoodResponse	1	n/a	n/a	1	3	Fixation	Win	True
42.82	0.37	Win2	1.0	0.004	Yes	2.826	-0.004	2.0	GoodResponse	1	0.23	42.05	1	3	Target	Win	True
43.05	0.3	Win2	1.0	0.004	Yes	2.826	-0.004	2.0	GoodResponse	1	0.23	n/a	1	3	ButtonPress	Win	True
43.205	0.33	Win2	1.0	n/a	Yes	2.826	n/a	n/a	GoodResponse	1	n/a	n/a	1	3	Blank	Win	True
43.522	1.45	Win2	1.0	n/a	Yes	2.826	n/a	5.0	GoodResponse	1	0.015	42.537	1	3	Feedback	Win	True
44.977	2.826	Win2	1.0	n/a	Yes	2.826	n/a	n/a	GoodResponse	1	0.0	n/a	1	3	ISIslide	Win	True
47.819	0.25	Win2	1.0	0.0	Yes	3.281	0.019	n/a	GoodResponse	1	n/a	n/a	2	4	Cue	Win	True
48.069	4.0	Win2	1.0	0.0	Yes	3.281	0.0	n/a	GoodResponse	1	n/a	n/a	2	4	Fixation	Win	True
52.065	0.36	Win2	1.0	0.004	Yes	3.281	-0.004	2.0	GoodResponse	1	0.266	51.331	2	4	Target	Win	True
52.331	0.3	Win2	1.0	0.004	Yes	3.281	-0.004	2.0	GoodResponse	1	0.266	n/a	2	4	ButtonPress	Win	True
52.432	0.34	Win2	1.0	n/a	Yes	3.281	n/a	n/a	GoodResponse	1	n/a	n/a	2	4	Blank	Win	True
52.767	1.45	Win2	1.0	n/a	Yes	3.281	n/a	5.0	GoodResponse	1	0.038	51.805	2	4	Feedback	Win	True
54.221	3.281	Win2	1.0	n/a	Yes	3.281	n/a	n/a	GoodResponse	1	0.0	n/a	2	4	ISIslide	Win	True
57.531	0.25	Win2	1.0	0.0	Yes	2.769	0.031	n/a	GoodResponse	1	n/a	n/a	3	5	Cue	Win	True
57.782	4.0	Win2	1.0	0.0	Yes	2.769	0.001	n/a	GoodResponse	1	n/a	n/a	3	5	Fixation	Win	True
61.777	0.35	Win2	1.0	0.004	Yes	2.769	-0.004	2.0	GoodResponse	1	0.26	61.037	3	5	Target	Win	True
62.037	0.3	Win2	1.0	0.004	Yes	2.769	-0.004	2.0	GoodResponse	1	0.26	n/a	3	5	ButtonPress	Win	True
62.128	0.35	Win2	1.0	n/a	Yes	2.769	n/a	n/a	GoodResponse	1	n/a	n/a	3	5	Blank	Win	True
62.479	1.45	Win2	1.0	n/a	Yes	2.769	n/a	5.0	GoodResponse	1	0.033	61.512	3	5	Feedback	Win	True
63.934	2.769	Win2	1.0	n/a	Yes	2.769	n/a	n/a	GoodResponse	1	0.0	n/a	3	5	ISIslide	Win	True
66.725	0.25	Lose2	1.0	0.0	Yes	2.725	0.025	n/a	GoodResponse	0	n/a	n/a	3	6	Cue	AvoidedLoss	True
66.976	3.95	Lose2	1.0	0.0	Yes	2.725	0.001	n/a	GoodResponse	0	n/a	n/a	3	6	Fixation	AvoidedLoss	True
70.921	0.34	Lose2	1.0	0.004	Yes	2.725	-0.004	2.0	GoodResponse	0	0.232	70.153	3	6	Target	AvoidedLoss	True
71.153	0.3	Lose2	1.0	0.004	Yes	2.725	-0.004	2.0	GoodResponse	0	0.232	n/a	3	6	ButtonPress	AvoidedLoss	True
71.272	0.36	Lose2	1.0	n/a	Yes	2.725	n/a	n/a	GoodResponse	0	n/a	n/a	3	6	Blank	AvoidedLoss	True
71.623	1.45	Lose2	1.0	n/a	Yes	2.725	n/a	5.0	GoodResponse	0	0.011	70.634	3	6	Feedback	AvoidedLoss	True
73.078	2.725	Lose2	1.0	n/a	Yes	2.725	n/a	n/a	GoodResponse	0	0.0	n/a	3	6	ISIslide	AvoidedLoss	True
75.819	0.25	Lose2	1.0	0.0	Yes	4.031	0.019	n/a	GoodResponse	0	n/a	n/a	3	7	Cue	AvoidedLoss	True
76.07	4.05	Lose2	1.0	0.0	Yes	4.031	0.001	n/a	GoodResponse	0	n/a	n/a	3	7	Fixation	AvoidedLoss	True
80.116	0.33	Lose2	1.0	0.003	Yes	4.031	-0.003	2.0	GoodResponse	0	0.231	79.347	3	7	Target	AvoidedLoss	True
80.347	0.3	Lose2	1.0	0.003	Yes	4.031	-0.003	2.0	GoodResponse	0	0.231	n/a	3	7	ButtonPress	AvoidedLoss	True
80.45	0.37	Lose2	1.0	n/a	Yes	4.031	n/a	n/a	GoodResponse	0	n/a	n/a	3	7	Blank	AvoidedLoss	True
80.818	1.45	Lose2	1.0	n/a	Yes	4.031	n/a	5.0	GoodResponse	0	0.035	79.853	3	7	Feedback	AvoidedLoss	True
82.272	4.031	Lose2	1.0	n/a	Yes	4.031	n/a	n/a	GoodResponse	0	0.0	n/a	3	7	ISIslide	AvoidedLoss	True
86.317	0.25	Lose2	1.0	0.001	Yes	3.033	0.017	n/a	GoodResponse	0	n/a	n/a	3	8	Cue	AvoidedLoss	True
86.568	3.95	Lose2	1.0	0.0	Yes	3.033	0.001	n/a	GoodResponse	0	n/a	n/a	3	8	Fixation	AvoidedLoss	True
90.513	0.32	Lose2	1.0	0.004	Yes	3.033	-0.004	2.0	GoodResponse	0	0.258	89.771	3	8	Target	AvoidedLoss	True
90.771	0.3	Lose2	1.0	0.004	Yes	3.033	-0.004	2.0	GoodResponse	0	0.258	n/a	3	8	ButtonPress	AvoidedLoss	True
90.848	0.38	Lose2	1.0	n/a	Yes	3.033	n/a	n/a	GoodResponse	0	n/a	n/a	3	8	Blank	AvoidedLoss	True
91.215	1.45	Lose2	1.0	n/a	Yes	3.033	n/a	5.0	GoodResponse	0	0.029	90.244	3	8	Feedback	AvoidedLoss	True
92.67	3.033	Lose2	1.0	n/a	Yes	3.033	n/a	n/a	GoodResponse	0	0.0	n/a	3	8	ISIslide	AvoidedLoss	True
95.729	0.25	Lose2	1.0	0.0	Yes	3.121	0.029	n/a	GoodResponse	0	n/a	n/a	3	9	Cue	AvoidedLoss	True
95.98	3.95	Lose2	1.0	0.0	Yes	3.121	0.001	n/a	GoodResponse	0	n/a	n/a	3	9	Fixation	AvoidedLoss	True
99.925	0.31	Lose2	1.0	0.004	Yes	3.121	-0.004	2.0	GoodResponse	0	0.252	99.177	3	9	Target	AvoidedLoss	True
100.177	0.3	Lose2	1.0	0.004	Yes	3.121	-0.004	2.0	GoodResponse	0	0.252	n/a	3	9	ButtonPress	AvoidedLoss	True
100.243	0.39	Lose2	1.0	n/a	Yes	3.121	n/a	n/a	GoodResponse	0	n/a	n/a	3	9	Blank	AvoidedLoss	True
100.627	1.45	Lose2	1.0	n/a	Yes	3.121	n/a	5.0	GoodResponse	0	0.031	99.658	3	9	Feedback	AvoidedLoss	True
102.081	3.121	Lose2	1.0	n/a	Yes	3.121	n/a	n/a	GoodResponse	0	0.0	n/a	3	9	ISIslide	AvoidedLoss	True
105.224	0.25	Control	1.0	0.0	Yes	3.276	0.024	n/a	GoodResponse	0	n/a	n/a	3	10	Cue	Neutral	True
105.475	4.0	Control	1.0	0.0	Yes	3.276	0.001	n/a	GoodResponse	0	n/a	n/a	3	10	Fixation	Neutral	True
109.47	0.3	Control	1.0	0.004	Yes	3.276	-0.004	2.0	GoodResponse	0	0.267	108.737	3	10	Target	Neutral	True
109.737	0.3	Control	1.0	0.004	Yes	3.276	-0.004	2.0	GoodResponse	0	0.267	n/a	3	10	ButtonPress	Neutral	True
109.771	0.4	Control	1.0	n/a	Yes	3.276	n/a	n/a	GoodResponse	0	n/a	n/a	3	10	Blank	Neutral	True
110.172	1.45	Control	1.0	n/a	Yes	3.276	n/a	5.0	GoodResponse	0	0.047	109.219	3	10	Feedback	Neutral	True
111.627	3.276	Control	1.0	n/a	Yes	3.276	n/a	n/a	GoodResponse	0	0.0	n/a	3	10	ISIslide	Neutral	True
114.92	0.25	Lose2	1.0	0.0	Yes	2.73	0.02	n/a	GoodResponse	0	n/a	n/a	3	11	Cue	AvoidedLoss	True
115.171	4.05	Lose2	1.0	0.0	Yes	2.73	0.001	n/a	GoodResponse	0	n/a	n/a	3	11	Fixation	AvoidedLoss	True
119.216	0.29	Lose2	1.0	0.004	Yes	2.73	-0.004	2.0	GoodResponse	0	0.239	118.455	3	11	Target	AvoidedLoss	True
119.455	0.3	Lose2	1.0	0.004	Yes	2.73	-0.004	2.0	GoodResponse	0	0.239	n/a	3	11	ButtonPress	AvoidedLoss	True
119.517	0.41	Lose2	1.0	n/a	Yes	2.73	n/a	n/a	GoodResponse	0	n/a	n/a	3	11	Blank	AvoidedLoss	True
119.918	1.45	Lose2	1.0	n/a	Yes	2.73	n/a	5.0	GoodResponse	0	0.009	118.927	3	11	Feedback	AvoidedLoss	True
121.373	2.73	Lose2	1.0	n/a	Yes	2.73	n/a	n/a	GoodResponse	0	0.0	n/a	3	11	ISIslide	AvoidedLoss	True
124.114	0.25	Control	1.0	0.0	Yes	2.986	0.014	n/a	GoodResponse	0	n/a	n/a	3	12	Cue	Neutral	True
124.365	3.9	Control	1.0	0.0	Yes	2.986	0.001	n/a	GoodResponse	0	n/a	n/a	3	12	Fixation	Neutral	True
128.26	0.28	Control	1.0	0.004	Yes	2.986	-0.004	2.0	GoodResponse	0	0.248	127.508	3	12	Target	Neutral	True
128.508	0.3	Control	1.0	0.004	Yes	2.986	-0.004	2.0	GoodResponse	0	0.248	n/a	3	12	ButtonPress	Neutral	True
128.544	0.42	Control	1.0	n/a	Yes	2.986	n/a	n/a	GoodResponse	0	n/a	n/a	3	12	Blank	Neutral	True
128.962	1.45	Control	1.0	n/a	Yes	2.986	n/a	5.0	GoodResponse	0	0.038	128.0	3	12	Feedback	Neutral	True
130.416	2.986	Control	1.0	n/a	Yes	2.986	n/a	n/a	GoodResponse	0	0.0	n/a	3	12	ISIslide	Neutral	True
133.425	0.25	Control	0.9286	0.001	No	2.775	0.025	n/a	LatePress	0	n/a	n/a	3	13	Cue	Neutral	True
133.676	4.0	Control	0.9286	0.0	No	2.775	0.001	n/a	LatePress	0	n/a	n/a	3	13	Fixation	Neutral	True
137.672	0.27	Control	0.9286	0.003	No	2.775	-0.003	2.0	LatePress	0	0.274	136.946	3	13	Target	Neutral	True
137.946	0.3	Control	0.9286	0.003	No	2.775	-0.003	2.0	LatePress	0	0.274	n/a	3	13	ButtonPress	Neutral	True
137.956	0.43	Control	0.9286	n/a	No	2.775	n/a	n/a	LatePress	0	n/a	n/a	3	13	Blank	Neutral	True
138.374	1.45	Control	0.9286	n/a	No	2.775	n/a	5.0	LatePress	0	0.04	137.414	3	13	Feedback	Neutral	True
139.828	2.775	Control	0.9286	n/a	No	2.775	n/a	n/a	LatePress	0	0.0	n/a	3	13	ISIslide	Neutral	True
142.62	0.25	Win2	0.9333	0.0	Yes	2.68	0.02	n/a	GoodResponse	1	n/a	n/a	4	14	Cue	Win	True
142.87	4.1	Win2	0.9333	0.001	Yes	2.68	0.0	n/a	GoodResponse	1	n/a	n/a	4	14	Fixation	Win	True
146.966	0.26	Win2	0.9333	0.004	Yes	2.68	-0.004	2.0	GoodResponse	1	0.257	146.223	4	14	Target	Win	True
147.223	0.3	Win2	0.9333	0.004	Yes	2.68	-0.004	2.0	GoodResponse	1	0.257	n/a	4	14	ButtonPress	Win	True
147.234	0.44	Win2	0.9333	n/a	Yes	2.68	n/a	n/a	GoodResponse	1	n/a	n/a	4	14	Blank	Win	True
147.668	1.45	Win2	0.9333	n/a	Yes	2.68	n/a	5.0	GoodResponse	1	0.014	146.682	4	14	Feedback	Win	True
149.123	2.68	Win2	0.9333	n/a	Yes	2.68	n/a	n/a	GoodResponse	1	0.0	n/a	4	14	ISIslide	Win	True
151.814	0.25	Control	0.9375	0.0	Yes	2.986	0.014	n/a	GoodResponse	0	n/a	n/a	4	15	Cue	Neutral	True
152.065	4.0	Control	0.9375	0.0	Yes	2.986	0.001	n/a	GoodResponse	0	n/a	n/a	4	15	Fixation	Neutral	True
156.06	0.25	Control	0.9375	0.004	Yes	2.986	-0.004	2.0	GoodResponse	0	0.248	155.308	4	15	Target	Neutral	True
156.308	0.3	Control	0.9375	0.004	Yes	2.986	-0.004	2.0	GoodResponse	0	0.248	n/a	4	15	ButtonPress	Neutral	True
156.311	0.45	Control	0.9375	n/a	Yes	2.986	n/a	n/a	GoodResponse	0	n/a	n/a	4	15	Blank	Neutral	True
156.762	1.45	Control	0.9375	n/a	Yes	2.986	n/a	5.0	GoodResponse	0	0.042	155.804	4	15	Feedback	Neutral	True
158.216	2.986	Control	0.9375	n/a	Yes	2.986	n/a	n/a	GoodResponse	0	0.0	n/a	4	15	ISIslide	Neutral	True
161.226	0.25	Win2	0.8824	0.0	No	2.874	0.026	n/a	NoResponse	0	n/a	n/a	4	16	Cue	MissedWin	True
161.476	4.0	Win2	0.8824	0.0	No	2.874	0.0	n/a	NoResponse	0	n/a	n/a	4	16	Fixation	MissedWin	True
165.472	0.24	Win2	0.8824	0.004	No	2.874	-0.004	2.0	NoResponse	0	0.28	164.752	4	16	Target	MissedWin	True
165.722	0.46	Win2	0.8824	n/a	No	2.874	n/a	n/a	NoResponse	0	n/a	n/a	4	16	Blank	MissedWin	True
165.752	0.3	Win2	0.8824	0.004	No	2.874	-0.004	2.0	NoResponse	0	0.28	n/a	4	16	ButtonPress	MissedWin	True
166.174	1.45	Win2	0.8824	n/a	No	2.874	n/a	5.0	NoResponse	0	0.045	165.219	4	16	Feedback	MissedWin	True
167.628	2.874	Win2	0.8824	n/a	No	2.874	n/a	n/a	NoResponse	0	0.0	n/a	4	16	ISIslide	MissedWin	True
170.52	0.25	Lose2	0.8332999999999999	0.0	No	2.73	0.02	n/a	NoResponse	-1	n/a	n/a	3	17	Cue	Loss	True
170.771	3.95	Lose2	0.8332999999999999	0.0	No	2.73	0.001	n/a	NoResponse	-1	n/a	n/a	3	17	Fixation	Loss	True
174.716	0.23	Lose2	0.8332999999999999	0.004	No	2.73	-0.004	2.0	NoResponse	-1	0.243	173.959	3	17	Target	Loss	True
174.95	0.47	Lose2	0.8332999999999999	n/a	No	2.73	n/a	n/a	NoResponse	-1	n/a	n/a	3	17	Blank	Loss	True
174.959	0.3	Lose2	0.8332999999999999	0.004	No	2.73	-0.004	2.0	NoResponse	-1	0.243	n/a	3	17	ButtonPress	Loss	True
175.418	1.45	Lose2	0.8332999999999999	n/a	No	2.73	n/a	5.0	NoResponse	-1	0.021	174.439	3	17	Feedback	Loss	True
176.872	2.73	Lose2	0.8332999999999999	n/a	No	2.73	n/a	n/a	NoResponse	-1	0.0	n/a	3	17	ISIslide	Loss	True
179.631	0.25	Lose2	0.8421	0.0	Yes	2.719	0.031	n/a	GoodResponse	0	n/a	n/a	3	18	Cue	AvoidedLoss	True
179.881	4.05	Lose2	0.8421	0.001	Yes	2.719	0.0	n/a	GoodResponse	0	n/a	n/a	3	18	Fixation	AvoidedLoss	True
183.927	0.22	Lose2	0.8421	0.004	Yes	2.719	-0.004	2.0	GoodResponse	0	0.212	183.139	3	18	Target	AvoidedLoss	True
184.139	0.3	Lose2	0.8421	0.004	Yes	2.719	-0.004	2.0	GoodResponse	0	0.212	n/a	3	18	ButtonPress	AvoidedLoss	True
184.161	0.48	Lose2	0.8421	n/a	Yes	2.719	n/a	n/a	GoodResponse	0	n/a	n/a	3	18	Blank	AvoidedLoss	True
184.629	1.45	Lose2	0.8421	n/a	Yes	2.719	n/a	5.0	GoodResponse	0	0.029	183.658	3	18	Feedback	AvoidedLoss	True
186.083	2.719	Lose2	0.8421	n/a	Yes	2.719	n/a	n/a	GoodResponse	0	0.0	n/a	3	18	ISIslide	AvoidedLoss	True
188.825	0.25	Control	0.8	0.0	No	2.925	0.025	n/a	NoResponse	0	n/a	n/a	3	19	Cue	Neutral	True
189.076	3.95	Control	0.8	0.0	No	2.925	0.001	n/a	NoResponse	0	n/a	n/a	3	19	Fixation	Neutral	True
193.021	0.21	Control	0.8	0.004	No	2.925	-0.004	2.0	NoResponse	0	0.271	192.292	3	19	Target	Neutral	True
193.238	0.49	Control	0.8	n/a	No	2.925	n/a	n/a	NoResponse	0	n/a	n/a	3	19	Blank	Neutral	True
193.292	0.3	Control	0.8	0.004	No	2.925	-0.004	2.0	NoResponse	0	0.271	n/a	3	19	ButtonPress	Neutral	True
193.723	1.45	Control	0.8	n/a	No	2.925	n/a	5.0	NoResponse	0	0.009	192.732	3	19	Feedback	Neutral	True
195.177	2.925	Control	0.8	n/a	No	2.925	n/a	n/a	NoResponse	0	0.0	n/a	3	19	ISIslide	Neutral	True
198.12	0.25	Control	0.7619	0.0	No	2.63	0.02	n/a	NoResponse	0	n/a	n/a	3	20	Cue	Neutral	True
198.37	4.05	Control	0.7619	0.0	No	2.63	0.0	n/a	NoResponse	0	n/a	n/a	3	20	Fixation	Neutral	True
202.416	0.2	Control	0.7619	0.004	No	2.63	-0.004	2.0	NoResponse	0	0.216	201.632	3	20	Target	Neutral	True
202.616	0.5	Control	0.7619	n/a	No	2.63	n/a	n/a	NoResponse	0	n/a	n/a	3	20	Blank	Neutral	True
202.632	0.3	Control	0.7619	0.004	No	2.63	-0.004	2.0	NoResponse	0	0.216	n/a	3	20	ButtonPress	Neutral	True
203.118	1.45	Control	0.7619	n/a	No	2.63	n/a	5.0	NoResponse	0	0.028	202.146	3	20	Feedback	Neutral	True
204.572	2.63	Control	0.7619	n/a	No	2.63	n/a	n/a	NoResponse	0	0.0	n/a	3	20	ISIslide	Neutral	True
207.23	0.25	Control	0.7273000000000001	0.0	No	2.77	0.03	n/a	NoResponse	0	n/a	n/a	3	21	Cue	Neutral	True
207.481	4.1	Control	0.7273000000000001	0.0	No	2.77	0.001	n/a	NoResponse	0	n/a	n/a	3	21	Fixation	Neutral	True
211.577	0.19	Control	0.7273000000000001	0.003	No	2.77	-0.003	2.0	NoResponse	0	0.219	210.796	3	21	Target	Neutral	True
211.777	0.51	Control	0.7273000000000001	n/a	No	2.77	n/a	n/a	NoResponse	0	n/a	n/a	3	21	Blank	Neutral	True
211.796	0.3	Control	0.7273000000000001	0.003	No	2.77	-0.003	2.0	NoResponse	0	0.219	n/a	3	21	ButtonPress	Neutral	True
212.279	1.45	Control	0.7273000000000001	n/a	No	2.77	n/a	5.0	NoResponse	0	0.037	211.316	3	21	Feedback	Neutral	True
213.733	2.77	Control	0.7273000000000001	n/a	No	2.77	n/a	n/a	NoResponse	0	0.0	n/a	3	21	ISIslide	Neutral	True
216.525	0.25	Control	0.6957	0.0	No	2.775	0.025	n/a	NoResponse	0	n/a	n/a	3	22	Cue	Neutral	True
216.775	4.0	Control	0.6957	0.001	No	2.775	0.0	n/a	NoResponse	0	n/a	n/a	3	22	Fixation	Neutral	True
220.771	0.18	Control	0.6957	0.004	No	2.775	-0.004	2.0	NoResponse	0	0.254	220.025	3	22	Target	Neutral	True
220.955	0.52	Control	0.6957	n/a	No	2.775	n/a	n/a	NoResponse	0	n/a	n/a	3	22	Blank	Neutral	True
221.025	0.3	Control	0.6957	0.004	No	2.775	-0.004	2.0	NoResponse	0	0.254	n/a	3	22	ButtonPress	Neutral	True
221.473	1.45	Control	0.6957	n/a	No	2.775	n/a	5.0	NoResponse	0	0.014	220.487	3	22	Feedback	Neutral	True
222.927	2.775	Control	0.6957	n/a	No	2.775	n/a	n/a	NoResponse	0	0.0	n/a	3	22	ISIslide	Neutral	True
225.719	0.25	Control	0.6667000000000001	0.0	No	2.781	0.019	n/a	NoResponse	0	n/a	n/a	3	23	Cue	Neutral	True
225.97	3.9	Control	0.6667000000000001	0.0	No	2.781	0.001	n/a	NoResponse	0	n/a	n/a	3	23	Fixation	Neutral	True
229.865	0.17	Control	0.6667000000000001	0.004	No	2.781	-0.004	2.0	NoResponse	0	0.235	229.1	3	23	Target	Neutral	True
230.049	0.53	Control	0.6667000000000001	n/a	No	2.781	n/a	n/a	NoResponse	0	n/a	n/a	3	23	Blank	Neutral	True
230.1	0.3	Control	0.6667000000000001	0.004	No	2.781	-0.004	2.0	NoResponse	0	0.235	n/a	3	23	ButtonPress	Neutral	True
230.567	1.45	Control	0.6667000000000001	n/a	No	2.781	n/a	5.0	NoResponse	0	0.042	229.609	3	23	Feedback	Neutral	True
232.021	2.781	Control	0.6667000000000001	n/a	No	2.781	n/a	n/a	NoResponse	0	0.0	n/a	3	23	ISIslide	Neutral	True
234.83	0.25	Win2	0.64	0.0	No	3.12	0.03	n/a	NoResponse	0	n/a	n/a	3	24	Cue	MissedWin	True
235.08	3.95	Win2	0.64	0.0	No	3.12	0.0	n/a	NoResponse	0	n/a	n/a	3	24	Fixation	MissedWin	True
239.026	0.16	Win2	0.64	0.004	No	3.12	-0.004	2.0	NoResponse	0	0.178	238.204	3	24	Target	MissedWin	True
239.193	0.54	Win2	0.64	n/a	No	3.12	n/a	n/a	NoResponse	0	n/a	n/a	3	24	Blank	MissedWin	True
239.204	0.3	Win2	0.64	0.004	No	3.12	-0.004	2.0	NoResponse	0	0.178	n/a	3	24	ButtonPress	MissedWin	True
239.728	1.45	Win2	0.64	n/a	No	3.12	n/a	5.0	NoResponse	0	0.008	238.736	3	24	Feedback	MissedWin	True
241.182	3.12	Win2	0.64	n/a	No	3.12	n/a	n/a	NoResponse	0	0.0	n/a	3	24	ISIslide	MissedWin	True
244.325	0.25	Win2	0.6154	0.0	No	3.075	0.025	n/a	NoResponse	0	n/a	n/a	3	25	Cue	MissedWin	True
244.576	4.0	Win2	0.6154	0.0	No	3.075	0.001	n/a	NoResponse	0	n/a	n/a	3	25	Fixation	MissedWin	True
248.571	0.17	Win2	0.6154	0.004	No	3.075	-0.004	2.0	NoResponse	0	0.214	247.785	3	25	Target	MissedWin	True
248.755	0.53	Win2	0.6154	n/a	No	3.075	n/a	n/a	NoResponse	0	n/a	n/a	3	25	Blank	MissedWin	True
248.785	0.3	Win2	0.6154	0.004	No	3.075	-0.004	2.0	NoResponse	0	0.214	n/a	3	25	ButtonPress	MissedWin	True
249.273	1.45	Win2	0.6154	n/a	No	3.075	n/a	5.0	NoResponse	0	0.019	248.292	3	25	Feedback	MissedWin	True
250.727	3.075	Win2	0.6154	n/a	No	3.075	n/a	n/a	NoResponse	0	0.0	n/a	3	25	ISIslide	MissedWin	True
253.82	0.25	Win2	0.5926	0.0	No	2.93	0.02	n/a	NoResponse	0	n/a	n/a	3	26	Cue	MissedWin	True
254.071	3.95	Win2	0.5926	0.0	No	2.93	0.001	n/a	NoResponse	0	n/a	n/a	3	26	Fixation	MissedWin	True
258.016	0.18	Win2	0.5926	0.004	No	2.93	-0.004	2.0	NoResponse	0	0.199	257.215	3	26	Target	MissedWin	True
258.2	0.52	Win2	0.5926	n/a	No	2.93	n/a	n/a	NoResponse	0	n/a	n/a	3	26	Blank	MissedWin	True
258.215	0.3	Win2	0.5926	0.004	No	2.93	-0.004	2.0	NoResponse	0	0.199	n/a	3	26	ButtonPress	MissedWin	True
258.718	1.45	Win2	0.5926	n/a	No	2.93	n/a	5.0	NoResponse	0	0.038	257.756	3	26	Feedback	MissedWin	True
260.172	2.93	Win2	0.5926	n/a	No	2.93	n/a	n/a	NoResponse	0	0.0	n/a	3	26	ISIslide	MissedWin	True
263.131	0.25	Lose2	0.5714	0.0	No	2.819	0.031	n/a	LatePress	-1	n/a	n/a	2	27	Cue	Loss	True
263.382	4.05	Lose2	0.5714	0.0	No	2.819	0.001	n/a	LatePress	-1	n/a	n/a	2	27	Fixation	Loss	True
267.427	0.19	Lose2	0.5714	0.004	No	2.819	-0.004	2.0	LatePress	-1	0.194	266.621	2	27	Target	Loss	True
267.621	0.3	Lose2	0.5714	0.004	No	2.819	-0.004	2.0	LatePress	-1	0.194	n/a	2	27	ButtonPress	Loss	True
267.628	0.51	Lose2	0.5714	n/a	No	2.819	n/a	n/a	LatePress	-1	n/a	n/a	2	27	Blank	Loss	True
268.13	1.45	Lose2	0.5714	n/a	No	2.819	n/a	5.0	LatePress	-1	0.04	267.17	2	27	Feedback	Loss	True
269.584	2.819	Lose2	0.5714	n/a	No	2.819	n/a	n/a	LatePress	-1	0.0	n/a	2	27	ISIslide	Loss	True
272.426	0.25	Control	0.5517	0.0	No	2.824	0.026	n/a	NoResponse	0	n/a	n/a	2	28	Cue	Neutral	True
272.677	4.05	Control	0.5517	0.0	No	2.824	0.001	n/a	NoResponse	0	n/a	n/a	2	28	Fixation	Neutral	True
276.722	0.2	Control	0.5517	0.004	No	2.824	-0.004	2.0	NoResponse	0	0.22	275.942	2	28	Target	Neutral	True
276.923	0.5	Control	0.5517	n/a	No	2.824	n/a	n/a	NoResponse	0	n/a	n/a	2	28	Blank	Neutral	True
276.942	0.3	Control	0.5517	0.004	No	2.824	-0.004	2.0	NoResponse	0	0.22	n/a	2	28	ButtonPress	Neutral	True
277.424	1.45	Control	0.5517	n/a	No	2.824	n/a	5.0	NoResponse	0	0.015	276.439	2	28	Feedback	Neutral	True
278.878	2.824	Control	0.5517	n/a	No	2.824	n/a	n/a	NoResponse	0	0.0	n/a	2	28	ISIslide	Neutral	True
281.72	0.25	Lose2	0.5333	0.0	No	2.83	0.02	n/a	NoResponse	-1	n/a	n/a	1	29	Cue	Loss	True
281.971	3.95	Lose2	0.5333	0.0	No	2.83	0.001	n/a	NoResponse	-1	n/a	n/a	1	29	Fixation	Loss	True
285.916	0.21	Lose2	0.5333	0.004	No	2.83	-0.004	2.0	NoResponse	-1	0.235	285.151	1	29	Target	Loss	True
286.134	0.49	Lose2	0.5333	n/a	No	2.83	n/a	n/a	NoResponse	-1	n/a	n/a	1	29	Blank	Loss	True
286.151	0.3	Lose2	0.5333	0.004	No	2.83	-0.004	2.0	NoResponse	-1	0.235	n/a	1	29	ButtonPress	Loss	True
286.618	1.45	Lose2	0.5333	n/a	No	2.83	n/a	5.0	NoResponse	-1	0.039	285.657	1	29	Feedback	Loss	True
288.073	2.83	Lose2	0.5333	n/a	No	2.83	n/a	n/a	NoResponse	-1	0.0	n/a	1	29	ISIslide	Loss	True
290.931	0.25	Win2	0.5484	0.0	Yes	2.769	0.031	n/a	GoodResponse	1	n/a	n/a	2	30	Cue	Win	True
291.182	3.9	Win2	0.5484	0.0	Yes	2.769	0.001	n/a	GoodResponse	1	n/a	n/a	2	30	Fixation	Win	True
295.077	0.22	Win2	0.5484	0.004	Yes	2.769	-0.004	2.0	GoodResponse	1	0.213	294.29	2	30	Target	Win	True
295.29	0.3	Win2	0.5484	0.004	Yes	2.769	-0.004	2.0	GoodResponse	1	0.213	n/a	2	30	ButtonPress	Win	True
295.311	0.48	Win2	0.5484	n/a	Yes	2.769	n/a	n/a	GoodResponse	1	n/a	n/a	2	30	Blank	Win	True
295.779	1.45	Win2	0.5484	n/a	Yes	2.769	n/a	5.0	GoodResponse	1	0.0	294.779	2	30	Feedback	Win	True
297.234	2.769	Win2	0.5484	n/a	Yes	2.769	n/a	n/a	GoodResponse	1	0.0	n/a	2	30	ISIslide	Win	True
300.025	0.25	Lose2	0.5625	0.0	Yes	2.825	0.025	n/a	GoodResponse	0	n/a	n/a	2	31	Cue	AvoidedLoss	True
300.276	4.05	Lose2	0.5625	0.0	Yes	2.825	0.001	n/a	GoodResponse	0	n/a	n/a	2	31	Fixation	AvoidedLoss	True
304.321	0.23	Lose2	0.5625	0.004	Yes	2.825	-0.004	2.0	GoodResponse	0	0.219	303.54	2	31	Target	AvoidedLoss	True
304.54	0.3	Lose2	0.5625	0.004	Yes	2.825	-0.004	2.0	GoodResponse	0	0.219	n/a	2	31	ButtonPress	AvoidedLoss	True
304.555	0.47	Lose2	0.5625	n/a	Yes	2.825	n/a	n/a	GoodResponse	0	n/a	n/a	2	31	Blank	AvoidedLoss	True
305.024	1.45	Lose2	0.5625	n/a	Yes	2.825	n/a	5.0	GoodResponse	0	0.024	304.048	2	31	Feedback	AvoidedLoss	True
306.478	2.825	Lose2	0.5625	n/a	Yes	2.825	n/a	n/a	GoodResponse	0	0.0	n/a	2	31	ISIslide	AvoidedLoss	True
309.32	0.25	Lose2	0.5455	0.0	No	2.63	0.02	n/a	LatePress	-1	n/a	n/a	1	32	Cue	Loss	True
309.571	4.15	Lose2	0.5455	0.0	No	2.63	0.001	n/a	LatePress	-1	n/a	n/a	1	32	Fixation	Loss	True
313.716	0.24	Lose2	0.5455	0.004	No	2.63	-0.004	2.0	LatePress	-1	0.241	312.957	1	32	Target	Loss	True
313.957	0.3	Lose2	0.5455	0.004	No	2.63	-0.004	2.0	LatePress	-1	0.241	n/a	1	32	ButtonPress	Loss	True
313.967	0.46	Lose2	0.5455	n/a	No	2.63	n/a	n/a	LatePress	-1	n/a	n/a	1	32	Blank	Loss	True
314.418	1.45	Lose2	0.5455	n/a	No	2.63	n/a	5.0	LatePress	-1	0.045	313.463	1	32	Feedback	Loss	True
315.873	2.63	Lose2	0.5455	n/a	No	2.63	n/a	n/a	LatePress	-1	0.0	n/a	1	32	ISIslide	Loss	True
318.531	0.25	Win2	0.5588000000000001	0.0	Yes	2.669	0.031	n/a	GoodResponse	1	n/a	n/a	2	33	Cue	Win	True
318.781	4.0	Win2	0.5588000000000001	0.001	Yes	2.669	0.0	n/a	GoodResponse	1	n/a	n/a	2	33	Fixation	Win	True
322.777	0.25	Win2	0.5588000000000001	0.004	Yes	2.669	-0.004	2.0	GoodResponse	1	0.244	322.021	2	33	Target	Win	True
323.021	0.3	Win2	0.5588000000000001	0.004	Yes	2.669	-0.004	2.0	GoodResponse	1	0.244	n/a	2	33	ButtonPress	Win	True
323.028	0.45	Win2	0.5588000000000001	n/a	Yes	2.669	n/a	n/a	GoodResponse	1	n/a	n/a	2	33	Blank	Win	True
323.479	1.45	Win2	0.5588000000000001	n/a	Yes	2.669	n/a	5.0	GoodResponse	1	0.008	322.487	2	33	Feedback	Win	True
324.933	2.669	Win2	0.5588000000000001	n/a	Yes	2.669	n/a	n/a	GoodResponse	1	0.0	n/a	2	33	ISIslide	Win	True
327.625	0.25	Lose2	0.5714	0.0	Yes	2.625	0.025	n/a	GoodResponse	0	n/a	n/a	2	34	Cue	AvoidedLoss	True
327.875	4.05	Lose2	0.5714	0.001	Yes	2.625	0.0	n/a	GoodResponse	0	n/a	n/a	2	34	Fixation	AvoidedLoss	True
331.921	0.26	Lose2	0.5714	0.004	Yes	2.625	-0.004	2.0	GoodResponse	0	0.229	331.15	2	34	Target	AvoidedLoss	True
332.15	0.3	Lose2	0.5714	0.004	Yes	2.625	-0.004	2.0	GoodResponse	0	0.229	n/a	2	34	ButtonPress	AvoidedLoss	True
332.188	0.44	Lose2	0.5714	n/a	Yes	2.625	n/a	n/a	GoodResponse	0	n/a	n/a	2	34	Blank	AvoidedLoss	True
332.623	1.45	Lose2	0.5714	n/a	Yes	2.625	n/a	5.0	GoodResponse	0	0.035	331.658	2	34	Feedback	AvoidedLoss	True
334.077	2.625	Lose2	0.5714	n/a	Yes	2.625	n/a	n/a	GoodResponse	0	0.0	n/a	2	34	ISIslide	AvoidedLoss	True
336.719	0.25	Lose2	0.5832999999999999	0.0	Yes	2.681	0.019	n/a	GoodResponse	0	n/a	n/a	2	35	Cue	AvoidedLoss	True
336.969	4.0	Lose2	0.5832999999999999	0.0	Yes	2.681	0.0	n/a	GoodResponse	0	n/a	n/a	2	35	Fixation	AvoidedLoss	True
340.965	0.27	Lose2	0.5832999999999999	0.004	Yes	2.681	-0.004	2.0	GoodResponse	0	0.21	340.175	2	35	Target	AvoidedLoss	True
341.175	0.3	Lose2	0.5832999999999999	0.004	Yes	2.681	-0.004	2.0	GoodResponse	0	0.21	n/a	2	35	ButtonPress	AvoidedLoss	True
341.249	0.43	Lose2	0.5832999999999999	n/a	Yes	2.681	n/a	n/a	GoodResponse	0	n/a	n/a	2	35	Blank	AvoidedLoss	True
341.667	1.45	Lose2	0.5832999999999999	n/a	Yes	2.681	n/a	5.0	GoodResponse	0	0.015	340.682	2	35	Feedback	AvoidedLoss	True
343.121	2.681	Lose2	0.5832999999999999	n/a	Yes	2.681	n/a	n/a	GoodResponse	0	0.0	n/a	2	35	ISIslide	AvoidedLoss	True
345.829	0.25	Control	0.5946	0.0	Yes	2.671	0.029	n/a	GoodResponse	0	n/a	n/a	2	36	Cue	Neutral	True
346.08	4.0	Control	0.5946	0.0	Yes	2.671	0.001	n/a	GoodResponse	0	n/a	n/a	2	36	Fixation	Neutral	True
350.075	0.28	Control	0.5946	0.004	Yes	2.671	-0.004	2.0	GoodResponse	0	0.213	349.288	2	36	Target	Neutral	True
350.288	0.3	Control	0.5946	0.004	Yes	2.671	-0.004	2.0	GoodResponse	0	0.213	n/a	2	36	ButtonPress	Neutral	True
350.36	0.42	Control	0.5946	n/a	Yes	2.671	n/a	n/a	GoodResponse	0	n/a	n/a	2	36	Blank	Neutral	True
350.777	1.45	Control	0.5946	n/a	Yes	2.671	n/a	5.0	GoodResponse	0	0.027	349.804	2	36	Feedback	Neutral	True
352.232	2.671	Control	0.5946	n/a	Yes	2.671	n/a	n/a	GoodResponse	0	0.0	n/a	2	36	ISIslide	Neutral	True
354.923	0.25	Win2	0.6053000000000001	0.0	Yes	2.877	0.023	n/a	GoodResponse	1	n/a	n/a	3	37	Cue	Win	True
355.174	4.0	Win2	0.6053000000000001	0.0	Yes	2.877	0.001	n/a	GoodResponse	1	n/a	n/a	3	37	Fixation	Win	True
359.169	0.29	Win2	0.6053000000000001	0.004	Yes	2.877	-0.004	2.0	GoodResponse	1	0.215	358.384	3	37	Target	Win	True
359.384	0.3	Win2	0.6053000000000001	0.004	Yes	2.877	-0.004	2.0	GoodResponse	1	0.215	n/a	3	37	ButtonPress	Win	True
359.47	0.41	Win2	0.6053000000000001	n/a	Yes	2.877	n/a	n/a	GoodResponse	1	n/a	n/a	3	37	Blank	Win	True
359.871	1.45	Win2	0.6053000000000001	n/a	Yes	2.877	n/a	5.0	GoodResponse	1	0.007	358.878	3	37	Feedback	Win	True
361.326	2.877	Win2	0.6053000000000001	n/a	Yes	2.877	n/a	n/a	GoodResponse	1	0.0	n/a	3	37	ISIslide	Win	True
364.218	0.25	Lose2	0.6154	0.0	Yes	2.832	0.018	n/a	GoodResponse	0	n/a	n/a	3	38	Cue	AvoidedLoss	True
364.469	3.95	Lose2	0.6154	0.0	Yes	2.832	0.001	n/a	GoodResponse	0	n/a	n/a	3	38	Fixation	AvoidedLoss	True
368.414	0.3	Lose2	0.6154	0.004	Yes	2.832	-0.004	2.0	GoodResponse	0	0.223	367.637	3	38	Target	AvoidedLoss	True
368.637	0.3	Lose2	0.6154	0.004	Yes	2.832	-0.004	2.0	GoodResponse	0	0.223	n/a	3	38	ButtonPress	AvoidedLoss	True
368.715	0.4	Lose2	0.6154	n/a	Yes	2.832	n/a	n/a	GoodResponse	0	n/a	n/a	3	38	Blank	AvoidedLoss	True
369.116	1.45	Lose2	0.6154	n/a	Yes	2.832	n/a	5.0	GoodResponse	0	0.029	368.145	3	38	Feedback	AvoidedLoss	True
370.57	2.832	Lose2	0.6154	n/a	Yes	2.832	n/a	n/a	GoodResponse	0	0.0	n/a	3	38	ISIslide	AvoidedLoss	True
373.429	0.25	Win2	0.625	0.0	Yes	2.971	0.029	n/a	GoodResponse	1	n/a	n/a	4	39	Cue	Win	True
373.679	4.1	Win2	0.625	0.001	Yes	2.971	0.0	n/a	GoodResponse	1	n/a	n/a	4	39	Fixation	Win	True
377.775	0.31	Win2	0.625	0.004	Yes	2.971	-0.004	2.0	GoodResponse	1	0.225	377.0	4	39	Target	Win	True
378	0.3	Win2	0.625	0.004	Yes	2.971	-0.004	2.0	GoodResponse	1	0.225	n/a	4	39	ButtonPress	Win	True
378.093	0.39	Win2	0.625	n/a	Yes	2.971	n/a	n/a	GoodResponse	1	n/a	n/a	4	39	Blank	Win	True
378.477	1.45	Win2	0.625	n/a	Yes	2.971	n/a	5.0	GoodResponse	1	0.034	377.511	4	39	Feedback	Win	True
379.932	2.971	Win2	0.625	n/a	Yes	2.971	n/a	n/a	GoodResponse	1	0.0	n/a	4	39	ISIslide	Win	True
382.924	0.25	Win2	0.6341	0.0	Yes	2.726	0.024	n/a	GoodResponse	1	n/a	n/a	5	40	Cue	Win	True
383.175	3.95	Win2	0.6341	0.0	Yes	2.726	0.001	n/a	GoodResponse	1	n/a	n/a	5	40	Fixation	Win	True
387.12	0.32	Win2	0.6341	0.004	Yes	2.726	-0.004	2.0	GoodResponse	1	0.268	386.388	5	40	Target	Win	True
387.388	0.3	Win2	0.6341	0.004	Yes	2.726	-0.004	2.0	GoodResponse	1	0.268	n/a	5	40	ButtonPress	Win	True
387.454	0.38	Win2	0.6341	n/a	Yes	2.726	n/a	n/a	GoodResponse	1	n/a	n/a	5	40	Blank	Win	True
387.822	1.45	Win2	0.6341	n/a	Yes	2.726	n/a	5.0	GoodResponse	1	0.007	386.829	5	40	Feedback	Win	True
389.276	2.726	Win2	0.6341	n/a	Yes	2.726	n/a	n/a	GoodResponse	1	0.0	n/a	5	40	ISIslide	Win	True
392.018	0.25	Win2	0.6429	0.0	Yes	2.782	0.018	n/a	GoodResponse	1	n/a	n/a	6	41	Cue	Win	True
392.269	3.9	Win2	0.6429	0.0	Yes	2.782	0.001	n/a	GoodResponse	1	n/a	n/a	6	41	Fixation	Win	True
396.164	0.33	Win2	0.6429	0.004	Yes	2.782	-0.004	2.0	GoodResponse	1	0.275	395.439	6	41	Target	Win	True
396.439	0.3	Win2	0.6429	0.004	Yes	2.782	-0.004	2.0	GoodResponse	1	0.275	n/a	6	41	ButtonPress	Win	True
396.498	0.37	Win2	0.6429	n/a	Yes	2.782	n/a	n/a	GoodResponse	1	n/a	n/a	6	41	Blank	Win	True
396.866	1.45	Win2	0.6429	n/a	Yes	2.782	n/a	5.0	GoodResponse	1	0.035	395.901	6	41	Feedback	Win	True
398.32	2.782	Win2	0.6429	n/a	Yes	2.782	n/a	n/a	GoodResponse	1	0.0	n/a	6	41	ISIslide	Win	True
401.129	0.25	Control	0.6512	0.0	Yes	2.921	0.029	n/a	GoodResponse	0	n/a	n/a	6	42	Cue	Neutral	True
401.379	3.85	Control	0.6512	0.0	Yes	2.921	0.0	n/a	GoodResponse	0	n/a	n/a	6	42	Fixation	Neutral	True
405.241	0.34	Control	0.6512	0.0	Yes	2.921	0.012	2.0	GoodResponse	0	0.228	404.469	6	42	Target	Neutral	True
405.469	0.3	Control	0.6512	0.0	Yes	2.921	0.012	2.0	GoodResponse	0	0.228	n/a	6	42	ButtonPress	Neutral	True
405.575	0.36	Control	0.6512	n/a	Yes	2.921	n/a	n/a	GoodResponse	0	n/a	n/a	6	42	Blank	Neutral	True
405.926	1.45	Control	0.6512	n/a	Yes	2.921	n/a	5.0	GoodResponse	0	0.049	404.975	6	42	Feedback	Neutral	True
407.381	2.921	Control	0.6512	n/a	Yes	2.921	n/a	n/a	GoodResponse	0	0.0	n/a	6	42	ISIslide	Neutral	True
410.323	0.25	Win2	0.6591	0.0	Yes	3.177	0.023	n/a	GoodResponse	1	n/a	n/a	7	43	Cue	Win	True
410.574	4.0	Win2	0.6591	0.0	Yes	3.177	0.001	n/a	GoodResponse	1	n/a	n/a	7	43	Fixation	Win	True
414.569	0.35	Win2	0.6591	0.004	Yes	3.177	-0.004	2.0	GoodResponse	1	0.221	413.79	7	43	Target	Win	True
414.79	0.3	Win2	0.6591	0.004	Yes	3.177	-0.004	2.0	GoodResponse	1	0.221	n/a	7	43	ButtonPress	Win	True
414.92	0.35	Win2	0.6591	n/a	Yes	3.177	n/a	n/a	GoodResponse	1	n/a	n/a	7	43	Blank	Win	True
415.271	1.45	Win2	0.6591	n/a	Yes	3.177	n/a	5.0	GoodResponse	1	0.021	414.292	7	43	Feedback	Win	True
416.725	3.177	Win2	0.6591	n/a	Yes	3.177	n/a	n/a	GoodResponse	1	0.0	n/a	7	43	ISIslide	Win	True
419.918	0.25	Win2	0.6667000000000001	0.0	Yes	2.982	0.018	n/a	GoodResponse	1	n/a	n/a	8	44	Cue	Win	True
420.169	4.0	Win2	0.6667000000000001	0.0	Yes	2.982	0.001	n/a	GoodResponse	1	n/a	n/a	8	44	Fixation	Win	True
424.164	0.35	Win2	0.6667000000000001	0.004	Yes	2.982	-0.004	2.0	GoodResponse	1	0.245	423.409	8	44	Target	Win	True
424.409	0.3	Win2	0.6667000000000001	0.004	Yes	2.982	-0.004	2.0	GoodResponse	1	0.245	n/a	8	44	ButtonPress	Win	True
424.515	0.35	Win2	0.6667000000000001	n/a	Yes	2.982	n/a	n/a	GoodResponse	1	n/a	n/a	8	44	Blank	Win	True
424.866	1.45	Win2	0.6667000000000001	n/a	Yes	2.982	n/a	5.0	GoodResponse	1	0.036	423.902	8	44	Feedback	Win	True
426.321	2.982	Win2	0.6667000000000001	n/a	Yes	2.982	n/a	n/a	GoodResponse	1	0.0	n/a	8	44	ISIslide	Win	True
429.33	0.25	Control	0.6522	0.0	No	2.87	0.03	n/a	NoResponse	0	n/a	n/a	8	45	Cue	Neutral	True
429.581	4.1	Control	0.6522	0.0	No	2.87	0.001	n/a	NoResponse	0	n/a	n/a	8	45	Fixation	Neutral	True
433.676	0.34	Control	0.6522	0.004	No	2.87	-0.004	2.0	NoResponse	0	0.372	433.048	8	45	Target	Neutral	True
434.027	0.36	Control	0.6522	n/a	No	2.87	n/a	n/a	NoResponse	0	n/a	n/a	8	45	Blank	Neutral	True
434.048	0.3	Control	0.6522	0.004	No	2.87	-0.004	2.0	NoResponse	0	0.372	n/a	8	45	ButtonPress	Neutral	True
434.378	1.45	Control	0.6522	n/a	No	2.87	n/a	5.0	NoResponse	0	0.036	433.414	8	45	Feedback	Neutral	True
435.833	2.87	Control	0.6522	n/a	No	2.87	n/a	n/a	NoResponse	0	0.0	n/a	8	45	ISIslide	Neutral	True
438.725	0.25	Lose2	0.6596	0.0	Yes	3.375	0.025	n/a	GoodResponse	0	n/a	n/a	8	46	Cue	AvoidedLoss	True
438.975	4.0	Lose2	0.6596	0.0	Yes	3.375	0.0	n/a	GoodResponse	0	n/a	n/a	8	46	Fixation	AvoidedLoss	True
442.971	0.35	Lose2	0.6596	0.004	Yes	3.375	-0.004	2.0	GoodResponse	0	0.228	442.199	8	46	Target	AvoidedLoss	True
443.199	0.3	Lose2	0.6596	0.004	Yes	3.375	-0.004	2.0	GoodResponse	0	0.228	n/a	8	46	ButtonPress	AvoidedLoss	True
443.322	0.35	Lose2	0.6596	n/a	Yes	3.375	n/a	n/a	GoodResponse	0	n/a	n/a	8	46	Blank	AvoidedLoss	True
443.673	1.45	Lose2	0.6596	n/a	Yes	3.375	n/a	5.0	GoodResponse	0	0.008	442.681	8	46	Feedback	AvoidedLoss	True
445.127	3.375	Lose2	0.6596	n/a	Yes	3.375	n/a	n/a	GoodResponse	0	0.0	n/a	8	46	ISIslide	AvoidedLoss	True
448.521	0.25	Lose2	0.6667000000000001	0.0	Yes	2.679	0.021	n/a	GoodResponse	0	n/a	n/a	8	47	Cue	AvoidedLoss	True
448.771	4.0	Lose2	0.6667000000000001	0.0	Yes	2.679	0.0	n/a	GoodResponse	0	n/a	n/a	8	47	Fixation	AvoidedLoss	True
452.767	0.35	Lose2	0.6667000000000001	0.004	Yes	2.679	-0.004	2.0	GoodResponse	0	0.246	452.013	8	47	Target	AvoidedLoss	True
453.013	0.3	Lose2	0.6667000000000001	0.004	Yes	2.679	-0.004	2.0	GoodResponse	0	0.246	n/a	8	47	ButtonPress	AvoidedLoss	True
453.118	0.35	Lose2	0.6667000000000001	n/a	Yes	2.679	n/a	n/a	GoodResponse	0	n/a	n/a	8	47	Blank	AvoidedLoss	True
453.469	1.45	Lose2	0.6667000000000001	n/a	Yes	2.679	n/a	5.0	GoodResponse	0	0.017	452.486	8	47	Feedback	AvoidedLoss	True
454.923	2.679	Lose2	0.6667000000000001	n/a	Yes	2.679	n/a	n/a	GoodResponse	0	0.0	n/a	8	47	ISIslide	AvoidedLoss	True
457.615	0.25	Lose2	0.6735	0.0	Yes	3.035	0.015	n/a	GoodResponse	0	n/a	n/a	8	48	Cue	AvoidedLoss	True
457.865	3.95	Lose2	0.6735	0.0	Yes	3.035	0.0	n/a	GoodResponse	0	n/a	n/a	8	48	Fixation	AvoidedLoss	True
461.811	0.34	Lose2	0.6735	0.004	Yes	3.035	-0.004	2.0	GoodResponse	0	0.245	461.056	8	48	Target	AvoidedLoss	True
462.056	0.3	Lose2	0.6735	0.004	Yes	3.035	-0.004	2.0	GoodResponse	0	0.245	n/a	8	48	ButtonPress	AvoidedLoss	True
462.162	0.36	Lose2	0.6735	n/a	Yes	3.035	n/a	n/a	GoodResponse	0	n/a	n/a	8	48	Blank	AvoidedLoss	True
462.513	1.45	Lose2	0.6735	n/a	Yes	3.035	n/a	5.0	GoodResponse	0	0.047	461.56	8	48	Feedback	AvoidedLoss	True
463.967	3.035	Lose2	0.6735	n/a	Yes	3.035	n/a	n/a	GoodResponse	0	0.0	n/a	8	48	ISIslide	AvoidedLoss	True
467.026	0.25	Control	0.68	0.0	Yes	2.874	0.026	n/a	GoodResponse	0	n/a	n/a	8	49	Cue	Neutral	True
467.277	4.0	Control	0.68	0.0	Yes	2.874	0.001	n/a	GoodResponse	0	n/a	n/a	8	49	Fixation	Neutral	True
471.272	0.33	Control	0.68	0.004	Yes	2.874	-0.004	2.0	GoodResponse	0	0.244	470.516	8	49	Target	Neutral	True
471.516	0.3	Control	0.68	0.004	Yes	2.874	-0.004	2.0	GoodResponse	0	0.244	n/a	8	49	ButtonPress	Neutral	True
471.607	0.37	Control	0.68	n/a	Yes	2.874	n/a	n/a	GoodResponse	0	n/a	n/a	8	49	Blank	Neutral	True
471.974	1.45	Control	0.68	n/a	Yes	2.874	n/a	5.0	GoodResponse	0	0.049	471.023	8	49	Feedback	Neutral	True
473.429	2.874	Control	0.68	n/a	Yes	2.874	n/a	n/a	GoodResponse	0	0.0	n/a	8	49	ISIslide	Neutral	True
476.321	0.25	Control	0.6862999999999999	0.0	Yes	2.779	0.021	n/a	GoodResponse	0	n/a	n/a	8	50	Cue	Neutral	True
476.571	4.0	Control	0.6862999999999999	0.001	Yes	2.779	0.0	n/a	GoodResponse	0	n/a	n/a	8	50	Fixation	Neutral	True
480.567	0.32	Control	0.6862999999999999	0.004	Yes	2.779	-0.004	2.0	GoodResponse	0	0.207	479.774	8	50	Target	Neutral	True
480.774	0.3	Control	0.6862999999999999	0.004	Yes	2.779	-0.004	2.0	GoodResponse	0	0.207	n/a	8	50	ButtonPress	Neutral	True
480.901	0.38	Control	0.6862999999999999	n/a	Yes	2.779	n/a	n/a	GoodResponse	0	n/a	n/a	8	50	Blank	Neutral	True
481.269	1.45	Control	0.6862999999999999	n/a	Yes	2.779	n/a	5.0	GoodResponse	0	0.023	480.292	8	50	Feedback	Neutral	True
482.723	2.779	Control	0.6862999999999999	n/a	Yes	2.779	n/a	n/a	GoodResponse	0	0.0	n/a	8	50	ISIslide	Neutral	True
485.515	0.25	Control	0.6923	0.0	Yes	2.735	0.015	n/a	GoodResponse	0	n/a	n/a	8	51	Cue	Neutral	True
485.766	3.95	Control	0.6923	0.0	Yes	2.735	0.001	n/a	GoodResponse	0	n/a	n/a	8	51	Fixation	Neutral	True
489.711	0.31	Control	0.6923	0.004	Yes	2.735	-0.004	2.0	GoodResponse	0	0.241	488.952	8	51	Target	Neutral	True
489.952	0.3	Control	0.6923	0.004	Yes	2.735	-0.004	2.0	GoodResponse	0	0.241	n/a	8	51	ButtonPress	Neutral	True
490.029	0.39	Control	0.6923	n/a	Yes	2.735	n/a	n/a	GoodResponse	0	n/a	n/a	8	51	Blank	Neutral	True
490.413	1.45	Control	0.6923	n/a	Yes	2.735	n/a	5.0	GoodResponse	0	0.001	489.414	8	51	Feedback	Neutral	True
491.867	2.735	Control	0.6923	n/a	Yes	2.735	n/a	n/a	GoodResponse	0	0.0	n/a	8	51	ISIslide	Neutral	True
494.626	0.25	Control	0.6981	0.0	Yes	2.624	0.026	n/a	GoodResponse	0	n/a	n/a	8	52	Cue	Neutral	False
494.876	4.05	Control	0.6981	0.0	Yes	2.624	0.0	2.0	GoodResponse	0	0.087	493.963	8	52	Fixation	Neutral	False
494.963	0.3	Control	0.6981	0.0	Yes	2.624	0.0	2.0	GoodResponse	0	0.087	n/a	8	52	ButtonPress	Neutral	False
498.922	0.3	Control	0.6981	0.004	Yes	2.624	-0.004	2.0	GoodResponse	0	0.178	498.1	8	52	Target	Neutral	False
499.1	0.3	Control	0.6981	0.004	Yes	2.624	-0.004	2.0	GoodResponse	0	0.178	n/a	8	52	ButtonPress	Neutral	False
499.223	0.4	Control	0.6981	n/a	Yes	2.624	n/a	n/a	GoodResponse	0	n/a	n/a	8	52	Blank	Neutral	False
499.624	1.45	Control	0.6981	n/a	Yes	2.624	n/a	5.0	GoodResponse	0	0.009	498.633	8	52	Feedback	Neutral	False
501.078	2.624	Control	0.6981	n/a	Yes	2.624	n/a	n/a	GoodResponse	0	0.0	n/a	8	52	ISIslide	Neutral	False
503.72	0.25	Win2	0.7037	0.0	Yes	2.93	0.02	n/a	GoodResponse	1	n/a	n/a	9	53	Cue	Win	True
503.97	4.05	Win2	0.7037	0.0	Yes	2.93	0.0	n/a	GoodResponse	1	n/a	n/a	9	53	Fixation	Win	True
508.016	0.29	Win2	0.7037	0.004	Yes	2.93	-0.004	2.0	GoodResponse	1	0.213	507.229	9	53	Target	Win	True
508.229	0.3	Win2	0.7037	0.004	Yes	2.93	-0.004	2.0	GoodResponse	1	0.213	n/a	9	53	ButtonPress	Win	True
508.317	0.41	Win2	0.7037	n/a	Yes	2.93	n/a	n/a	GoodResponse	1	n/a	n/a	9	53	Blank	Win	True
508.718	1.45	Win2	0.7037	n/a	Yes	2.93	n/a	5.0	GoodResponse	1	0.037	507.755	9	53	Feedback	Win	True
510.172	2.93	Win2	0.7037	n/a	Yes	2.93	n/a	n/a	GoodResponse	1	0.0	n/a	9	53	ISIslide	Win	True
513.131	0.25	Win2	0.7091	0.0	Yes	2.719	0.031	n/a	GoodResponse	1	n/a	n/a	10	54	Cue	Win	True
513.382	3.95	Win2	0.7091	0.0	Yes	2.719	0.001	n/a	GoodResponse	1	n/a	n/a	10	54	Fixation	Win	True
517.327	0.28	Win2	0.7091	0.004	Yes	2.719	-0.004	2.0	GoodResponse	1	0.231	516.558	10	54	Target	Win	True
517.558	0.3	Win2	0.7091	0.004	Yes	2.719	-0.004	2.0	GoodResponse	1	0.231	n/a	10	54	ButtonPress	Win	True
517.611	0.42	Win2	0.7091	n/a	Yes	2.719	n/a	n/a	GoodResponse	1	n/a	n/a	10	54	Blank	Win	True
518.029	1.45	Win2	0.7091	n/a	Yes	2.719	n/a	5.0	GoodResponse	1	0.042	517.071	10	54	Feedback	Win	True
519.484	2.719	Win2	0.7091	n/a	Yes	2.719	n/a	n/a	GoodResponse	1	0.0	n/a	10	54	ISIslide	Win	True
522.225	0.25	Control	0.7143	0.0	Yes	3.025	0.025	n/a	GoodResponse	0	n/a	n/a	10	55	Cue	Neutral	True
522.476	3.95	Control	0.7143	0.0	Yes	3.025	0.001	n/a	GoodResponse	0	n/a	n/a	10	55	Fixation	Neutral	True
526.421	0.27	Control	0.7143	0.004	Yes	3.025	-0.004	2.0	GoodResponse	0	0.212	525.633	10	55	Target	Neutral	True
526.633	0.3	Control	0.7143	0.004	Yes	3.025	-0.004	2.0	GoodResponse	0	0.212	n/a	10	55	ButtonPress	Neutral	True
526.705	0.43	Control	0.7143	n/a	Yes	3.025	n/a	n/a	GoodResponse	0	n/a	n/a	10	55	Blank	Neutral	True
527.123	1.45	Control	0.7143	n/a	Yes	3.025	n/a	5.0	GoodResponse	0	0.022	526.145	10	55	Feedback	Neutral	True
528.577	3.025	Control	0.7143	n/a	Yes	3.025	n/a	n/a	GoodResponse	0	0.0	n/a	10	55	ISIslide	Neutral	True
531.62	0.25	Control	0.7018000000000001	0.0	No	2.83	0.02	n/a	NoResponse	0	n/a	n/a	10	56	Cue	Neutral	True
531.871	3.95	Control	0.7018000000000001	0.0	No	2.83	0.001	n/a	NoResponse	0	n/a	n/a	10	56	Fixation	Neutral	True
535.816	0.26	Control	0.7018000000000001	0.004	No	2.83	-0.004	2.0	NoResponse	0	0.28	535.096	10	56	Target	Neutral	True
536.083	0.44	Control	0.7018000000000001	n/a	No	2.83	n/a	n/a	NoResponse	0	n/a	n/a	10	56	Blank	Neutral	True
536.096	0.3	Control	0.7018000000000001	0.004	No	2.83	-0.004	2.0	NoResponse	0	0.28	n/a	10	56	ButtonPress	Neutral	True
536.518	1.45	Control	0.7018000000000001	n/a	No	2.83	n/a	5.0	NoResponse	0	0.041	535.559	10	56	Feedback	Neutral	True
537.972	2.83	Control	0.7018000000000001	n/a	No	2.83	n/a	n/a	NoResponse	0	0.0	n/a	10	56	ISIslide	Neutral	True
540.831	0.25	Control	0.7069	0.0	Yes	3.469	0.031	n/a	GoodResponse	0	n/a	n/a	10	57	Cue	Neutral	True
541.082	4.0	Control	0.7069	0.0	Yes	3.469	0.001	n/a	GoodResponse	0	n/a	n/a	10	57	Fixation	Neutral	True
545.077	0.25	Control	0.7069	0.004	Yes	3.469	-0.004	2.0	GoodResponse	0	0.243	544.32	10	57	Target	Neutral	True
545.32	0.3	Control	0.7069	0.004	Yes	3.469	-0.004	2.0	GoodResponse	0	0.243	n/a	10	57	ButtonPress	Neutral	True
545.328	0.45	Control	0.7069	n/a	Yes	3.469	n/a	n/a	GoodResponse	0	n/a	n/a	10	57	Blank	Neutral	True
545.779	1.45	Control	0.7069	n/a	Yes	3.469	n/a	5.0	GoodResponse	0	0.049	544.828	10	57	Feedback	Neutral	True
547.233	3.469	Control	0.7069	n/a	Yes	3.469	n/a	n/a	GoodResponse	0	0.0	n/a	10	57	ISIslide	Neutral	True
550.727	0.25	Win2	0.7119	0.0	Yes	2.723	0.027	n/a	GoodResponse	1	n/a	n/a	11	58	Cue	Win	True
550.978	4.05	Win2	0.7119	0.0	Yes	2.723	0.001	n/a	GoodResponse	1	n/a	n/a	11	58	Fixation	Win	True
555.024	0.24	Win2	0.7119	0.003	Yes	2.723	-0.003	2.0	GoodResponse	1	0.23	554.254	11	58	Target	Win	True
555.254	0.3	Win2	0.7119	0.003	Yes	2.723	-0.003	2.0	GoodResponse	1	0.23	n/a	11	58	ButtonPress	Win	True
555.274	0.46	Win2	0.7119	n/a	Yes	2.723	n/a	n/a	GoodResponse	1	n/a	n/a	11	58	Blank	Win	True
555.726	1.45	Win2	0.7119	n/a	Yes	2.723	n/a	5.0	GoodResponse	1	0.007	554.733	11	58	Feedback	Win	True
557.18	2.723	Win2	0.7119	n/a	Yes	2.723	n/a	n/a	GoodResponse	1	0.0	n/a	11	58	ISIslide	Win	True
559.922	0.25	Lose2	0.7167	0.0	Yes	2.678	0.022	n/a	GoodResponse	0	n/a	n/a	11	59	Cue	AvoidedLoss	True
560.172	4.0	Lose2	0.7167	0.0	Yes	2.678	0.0	n/a	GoodResponse	0	n/a	n/a	11	59	Fixation	AvoidedLoss	True
564.168	0.23	Lose2	0.7167	0.004	Yes	2.678	-0.004	2.0	GoodResponse	0	0.223	563.391	11	59	Target	AvoidedLoss	True
564.391	0.3	Lose2	0.7167	0.004	Yes	2.678	-0.004	2.0	GoodResponse	0	0.223	n/a	11	59	ButtonPress	AvoidedLoss	True
564.402	0.47	Lose2	0.7167	n/a	Yes	2.678	n/a	n/a	GoodResponse	0	n/a	n/a	11	59	Blank	AvoidedLoss	True
564.87	1.45	Lose2	0.7167	n/a	Yes	2.678	n/a	5.0	GoodResponse	0	0.031	563.901	11	59	Feedback	AvoidedLoss	True
566.324	2.678	Lose2	0.7167	n/a	Yes	2.678	n/a	n/a	GoodResponse	0	0.0	n/a	11	59	ISIslide	AvoidedLoss	True
569.015	0.25	Control	0.7212999999999999	0.001	Yes	2.685	0.015	n/a	GoodResponse	0	n/a	n/a	11	60	Cue	Neutral	True
569.266	4.0	Control	0.7212999999999999	0.0	Yes	2.685	0.001	n/a	GoodResponse	0	n/a	n/a	11	60	Fixation	Neutral	True
573.262	0.22	Control	0.7212999999999999	0.003	Yes	2.685	-0.003	2.0	GoodResponse	0	0.204	572.466	11	60	Target	Neutral	True
573.466	0.3	Control	0.7212999999999999	0.003	Yes	2.685	-0.003	2.0	GoodResponse	0	0.204	n/a	11	60	ButtonPress	Neutral	True
573.496	0.48	Control	0.7212999999999999	n/a	Yes	2.685	n/a	n/a	GoodResponse	0	n/a	n/a	11	60	Blank	Neutral	True
573.964	1.45	Control	0.7212999999999999	n/a	Yes	2.685	n/a	5.0	GoodResponse	0	0.01	572.974	11	60	Feedback	Neutral	True
575.418	2.685	Control	0.7212999999999999	n/a	Yes	2.685	n/a	n/a	GoodResponse	0	0.0	n/a	11	60	ISIslide	Neutral	True
578.126	0.25	Lose2	0.7097	0.0	No	2.974	0.026	n/a	NoResponse	-1	n/a	n/a	10	61	Cue	Loss	True
578.377	4.0	Lose2	0.7097	0.0	No	2.974	0.001	n/a	NoResponse	-1	n/a	n/a	10	61	Fixation	Loss	True
582.372	0.21	Lose2	0.7097	0.004	No	2.974	-0.004	2.0	NoResponse	-1	0.264	581.636	10	61	Target	Loss	True
582.59	0.49	Lose2	0.7097	n/a	No	2.974	n/a	n/a	NoResponse	-1	n/a	n/a	10	61	Blank	Loss	True
582.636	0.3	Lose2	0.7097	0.004	No	2.974	-0.004	2.0	NoResponse	-1	0.264	n/a	10	61	ButtonPress	Loss	True
583.074	1.45	Lose2	0.7097	n/a	No	2.974	n/a	5.0	NoResponse	-1	0.023	582.097	10	61	Feedback	Loss	True
584.529	2.974	Lose2	0.7097	n/a	No	2.974	n/a	n/a	NoResponse	-1	0.0	n/a	10	61	ISIslide	Loss	True
587.521	0.25	Lose2	0.6984	0.0	No	2.879	0.021	n/a	NoResponse	-1	n/a	n/a	9	62	Cue	Loss	True
587.772	3.9	Lose2	0.6984	0.0	No	2.879	0.001	n/a	NoResponse	-1	n/a	n/a	9	62	Fixation	Loss	True
591.667	0.2	Lose2	0.6984	0.004	No	2.879	-0.004	2.0	NoResponse	-1	0.239	590.906	9	62	Target	Loss	True
591.867	0.5	Lose2	0.6984	n/a	No	2.879	n/a	n/a	NoResponse	-1	n/a	n/a	9	62	Blank	Loss	True
591.906	0.3	Lose2	0.6984	0.004	No	2.879	-0.004	2.0	NoResponse	-1	0.239	n/a	9	62	ButtonPress	Loss	True
592.369	1.45	Lose2	0.6984	n/a	No	2.879	n/a	5.0	NoResponse	-1	0.044	591.413	9	62	Feedback	Loss	True
593.823	2.879	Lose2	0.6984	n/a	No	2.879	n/a	n/a	NoResponse	-1	0.0	n/a	9	62	ISIslide	Loss	True
596.715	0.25	Lose2	0.6875	0.0	No	2.635	0.015	n/a	NoResponse	-1	n/a	n/a	8	63	Cue	Loss	True
596.966	4.05	Lose2	0.6875	0.0	No	2.635	0.001	n/a	NoResponse	-1	n/a	n/a	8	63	Fixation	Loss	True
601.011	0.19	Lose2	0.6875	0.004	No	2.635	-0.004	2.0	NoResponse	-1	0.21	600.221	8	63	Target	Loss	True
601.212	0.51	Lose2	0.6875	n/a	No	2.635	n/a	n/a	NoResponse	-1	n/a	n/a	8	63	Blank	Loss	True
601.221	0.3	Lose2	0.6875	0.004	No	2.635	-0.004	2.0	NoResponse	-1	0.21	n/a	8	63	ButtonPress	Loss	True
601.714	1.45	Lose2	0.6875	n/a	No	2.635	n/a	5.0	NoResponse	-1	0.016	600.73	8	63	Feedback	Loss	True
603.168	2.635	Lose2	0.6875	n/a	No	2.635	n/a	n/a	NoResponse	-1	0.0	n/a	8	63	ISIslide	Loss	True
605.826	0.25	Win2	0.6769	0.0	No	3.124	0.026	n/a	NoResponse	0	n/a	n/a	8	64	Cue	MissedWin	True
606.077	4.15	Win2	0.6769	0.0	No	3.124	0.001	n/a	NoResponse	0	n/a	n/a	8	64	Fixation	MissedWin	True
610.222	0.18	Win2	0.6769	0.004	No	3.124	-0.004	2.0	NoResponse	0	0.207	609.429	8	64	Target	MissedWin	True
610.406	0.52	Win2	0.6769	n/a	No	3.124	n/a	n/a	NoResponse	0	n/a	n/a	8	64	Blank	MissedWin	True
610.429	0.3	Win2	0.6769	0.004	No	3.124	-0.004	2.0	NoResponse	0	0.207	n/a	8	64	ButtonPress	MissedWin	True
610.925	1.45	Win2	0.6769	n/a	No	3.124	n/a	5.0	NoResponse	0	0.025	609.95	8	64	Feedback	MissedWin	True
612.379	3.124	Win2	0.6769	n/a	No	3.124	n/a	n/a	NoResponse	0	0.0	n/a	8	64	ISIslide	MissedWin	True
615.522	0.25	Control	0.6667000000000001	0.0	No	2.778	0.022	n/a	NoResponse	0	n/a	n/a	8	65	Cue	Neutral	True
615.772	4.0	Control	0.6667000000000001	0.0	No	2.778	0.0	n/a	NoResponse	0	n/a	n/a	8	65	Fixation	Neutral	True
619.768	0.17	Control	0.6667000000000001	0.004	No	2.778	-0.004	2.0	NoResponse	0	0.232	619.0	8	65	Target	Neutral	True
619.952	0.53	Control	0.6667000000000001	n/a	No	2.778	n/a	n/a	NoResponse	0	n/a	n/a	8	65	Blank	Neutral	True
620	0.3	Control	0.6667000000000001	0.004	No	2.778	-0.004	2.0	NoResponse	0	0.232	n/a	8	65	ButtonPress	Neutral	True
620.47	1.45	Control	0.6667000000000001	n/a	No	2.778	n/a	5.0	NoResponse	0	0.041	619.511	8	65	Feedback	Neutral	True
621.924	2.778	Control	0.6667000000000001	n/a	No	2.778	n/a	n/a	NoResponse	0	0.0	n/a	8	65	ISIslide	Neutral	True
624.716	0.25	Win2	0.6567000000000001	0.0	No	2.784	0.016	n/a	NoResponse	0	n/a	n/a	8	66	Cue	MissedWin	True
624.967	3.9	Win2	0.6567000000000001	0.0	No	2.784	0.001	n/a	NoResponse	0	n/a	n/a	8	66	Fixation	MissedWin	True
628.862	0.16	Win2	0.6567000000000001	0.004	No	2.784	-0.004	2.0	NoResponse	0	0.199	628.061	8	66	Target	MissedWin	True
629.029	0.54	Win2	0.6567000000000001	n/a	No	2.784	n/a	n/a	NoResponse	0	n/a	n/a	8	66	Blank	MissedWin	True
629.061	0.3	Win2	0.6567000000000001	0.004	No	2.784	-0.004	2.0	NoResponse	0	0.199	n/a	8	66	ButtonPress	MissedWin	True
629.564	1.45	Win2	0.6567000000000001	n/a	No	2.784	n/a	5.0	NoResponse	0	0.02	628.584	8	66	Feedback	MissedWin	True
631.018	2.784	Win2	0.6567000000000001	n/a	No	2.784	n/a	n/a	NoResponse	0	0.0	n/a	8	66	ISIslide	MissedWin	True
633.827	0.25	Control	0.6470999999999999	0.0	No	2.723	0.027	n/a	NoResponse	0	n/a	n/a	8	67	Cue	Neutral	True
634.077	3.95	Control	0.6470999999999999	0.0	No	2.723	0.0	n/a	NoResponse	0	n/a	n/a	8	67	Fixation	Neutral	True
638.039	0.16	Control	0.6470999999999999	0.0	No	2.723	0.012	2.0	NoResponse	0	0.193	637.232	8	67	Target	Neutral	True
638.19	0.54	Control	0.6470999999999999	n/a	No	2.723	n/a	n/a	NoResponse	0	n/a	n/a	8	67	Blank	Neutral	True
638.232	0.3	Control	0.6470999999999999	0.0	No	2.723	0.012	2.0	NoResponse	0	0.193	n/a	8	67	ButtonPress	Neutral	True
638.725	1.45	Control	0.6470999999999999	n/a	No	2.723	n/a	5.0	NoResponse	0	0.03	637.755	8	67	Feedback	Neutral	True
640.179	2.723	Control	0.6470999999999999	n/a	No	2.723	n/a	n/a	NoResponse	0	0.0	n/a	8	67	ISIslide	Neutral	True
642.921	0.25	Win2	0.6377	0.0	No	3.079	0.021	n/a	LatePress	0	n/a	n/a	8	68	Cue	MissedWin	True
643.171	4.0	Win2	0.6377	0.0	No	3.079	0.0	n/a	LatePress	0	n/a	n/a	8	68	Fixation	MissedWin	True
647.167	0.17	Win2	0.6377	0.004	No	3.079	-0.004	2.0	LatePress	0	0.178	646.345	8	68	Target	MissedWin	True
647.345	0.3	Win2	0.6377	0.004	No	3.079	-0.004	2.0	LatePress	0	0.178	n/a	8	68	ButtonPress	MissedWin	True
647.35	0.53	Win2	0.6377	n/a	No	3.079	n/a	n/a	LatePress	0	n/a	n/a	8	68	Blank	MissedWin	True
647.869	1.45	Win2	0.6377	n/a	No	3.079	n/a	5.0	LatePress	0	0.008	646.877	8	68	Feedback	MissedWin	True
649.323	3.079	Win2	0.6377	n/a	No	3.079	n/a	n/a	LatePress	0	0.0	n/a	8	68	ISIslide	MissedWin	True
652.416	0.25	Win2	0.6286	0.0	No	3.234	0.016	n/a	NoResponse	0	n/a	n/a	8	69	Cue	MissedWin	True
652.666	3.95	Win2	0.6286	0.0	No	3.234	0.0	n/a	NoResponse	0	n/a	n/a	8	69	Fixation	MissedWin	True
656.612	0.18	Win2	0.6286	0.004	No	3.234	-0.004	2.0	NoResponse	0	0.193	655.805	8	69	Target	MissedWin	True
656.795	0.52	Win2	0.6286	n/a	No	3.234	n/a	n/a	NoResponse	0	n/a	n/a	8	69	Blank	MissedWin	True
656.805	0.3	Win2	0.6286	0.004	No	3.234	-0.004	2.0	NoResponse	0	0.193	n/a	8	69	ButtonPress	MissedWin	True
657.314	1.45	Win2	0.6286	n/a	No	3.234	n/a	5.0	NoResponse	0	0.026	656.34	8	69	Feedback	MissedWin	True
658.768	3.234	Win2	0.6286	n/a	No	3.234	n/a	2.0	NoResponse	0	2.778	n/a	8	69	ISIslide	MissedWin	True
662.011	0.25	Lose2	0.6197	0.0	No	3.039	0.011	n/a	NoResponse	-1	n/a	n/a	7	70	Cue	Loss	True
662.262	4.05	Lose2	0.6197	0.0	No	3.039	0.001	n/a	NoResponse	-1	n/a	n/a	7	70	Fixation	Loss	True
666.307	0.19	Lose2	0.6197	0.004	No	3.039	-0.004	2.0	NoResponse	-1	0.209	665.516	7	70	Target	Loss	True
666.508	0.51	Lose2	0.6197	n/a	No	3.039	n/a	n/a	NoResponse	-1	n/a	n/a	7	70	Blank	Loss	True
666.516	0.3	Lose2	0.6197	0.004	No	3.039	-0.004	2.0	NoResponse	-1	0.209	n/a	7	70	ButtonPress	Loss	True
667.009	1.45	Lose2	0.6197	n/a	No	3.039	n/a	5.0	NoResponse	-1	0.038	666.047	7	70	Feedback	Loss	True
668.464	3.039	Lose2	0.6197	n/a	No	3.039	n/a	n/a	NoResponse	-1	0.0	n/a	7	70	ISIslide	Loss	True
671.523	0.25	Win2	0.625	0.0	Yes	2.727	0.023	n/a	GoodResponse	1	n/a	n/a	8	71	Cue	Win	True
671.774	4.05	Win2	0.625	0.0	Yes	2.727	0.001	n/a	GoodResponse	1	n/a	n/a	8	71	Fixation	Win	True
675.819	0.2	Win2	0.625	0.004	Yes	2.727	-0.004	2.0	GoodResponse	1	0.193	675.012	8	71	Target	Win	True
676.012	0.3	Win2	0.625	0.004	Yes	2.727	-0.004	2.0	GoodResponse	1	0.193	n/a	8	71	ButtonPress	Win	True
676.02	0.5	Win2	0.625	n/a	Yes	2.727	n/a	n/a	GoodResponse	1	n/a	n/a	8	71	Blank	Win	True
676.521	1.45	Win2	0.625	n/a	Yes	2.727	n/a	5.0	GoodResponse	1	0.038	675.559	8	71	Feedback	Win	True
677.976	2.727	Win2	0.625	n/a	Yes	2.727	n/a	n/a	GoodResponse	1	0.0	n/a	8	71	ISIslide	Win	True
680.717	0.25	Win2	0.6301	0.0	Yes	2.783	0.017	n/a	GoodResponse	1	n/a	n/a	9	72	Cue	Win	True
680.968	4.1	Win2	0.6301	0.0	Yes	2.783	0.001	n/a	GoodResponse	1	n/a	n/a	9	72	Fixation	Win	True
685.064	0.21	Win2	0.6301	0.003	Yes	2.783	-0.003	2.0	GoodResponse	1	0.202	684.266	9	72	Target	Win	True
685.266	0.3	Win2	0.6301	0.003	Yes	2.783	-0.003	2.0	GoodResponse	1	0.202	n/a	9	72	ButtonPress	Win	True
685.281	0.49	Win2	0.6301	n/a	Yes	2.783	n/a	n/a	GoodResponse	1	n/a	n/a	9	72	Blank	Win	True
685.766	1.45	Win2	0.6301	n/a	Yes	2.783	n/a	5.0	GoodResponse	1	0.013	684.779	9	72	Feedback	Win	True
687.22	2.783	Win2	0.6301	n/a	Yes	2.783	n/a	n/a	GoodResponse	1	0.0	n/a	9	72	ISIslide	Win	True
690.028	0.25	Win2	0.6351	0.001	Yes	2.672	0.028	n/a	GoodResponse	1	n/a	n/a	10	73	Cue	Win	True
690.279	4.0	Win2	0.6351	0.0	Yes	2.672	0.001	n/a	GoodResponse	1	n/a	n/a	10	73	Fixation	Win	True
694.275	0.22	Win2	0.6351	0.003	Yes	2.672	-0.003	2.0	GoodResponse	1	0.2	693.475	10	73	Target	Win	True
694.475	0.3	Win2	0.6351	0.003	Yes	2.672	-0.003	2.0	GoodResponse	1	0.2	n/a	10	73	ButtonPress	Win	True
694.509	0.48	Win2	0.6351	n/a	Yes	2.672	n/a	n/a	GoodResponse	1	n/a	n/a	10	73	Blank	Win	True
694.977	1.45	Win2	0.6351	n/a	Yes	2.672	n/a	5.0	GoodResponse	1	0.021	693.998	10	73	Feedback	Win	True
696.431	2.672	Win2	0.6351	n/a	Yes	2.672	n/a	n/a	GoodResponse	1	0.0	n/a	10	73	ISIslide	Win	True
699.122	0.25	Lose2	0.64	0.001	Yes	2.628	0.022	n/a	GoodResponse	0	n/a	n/a	10	74	Cue	AvoidedLoss	True
699.373	4.05	Lose2	0.64	0.0	Yes	2.628	0.001	n/a	GoodResponse	0	n/a	n/a	10	74	Fixation	AvoidedLoss	True
703.419	0.23	Lose2	0.64	0.003	Yes	2.628	-0.003	2.0	GoodResponse	0	0.212	702.631	10	74	Target	AvoidedLoss	True
703.631	0.3	Lose2	0.64	0.003	Yes	2.628	-0.003	2.0	GoodResponse	0	0.212	n/a	10	74	ButtonPress	AvoidedLoss	True
703.653	0.47	Lose2	0.64	n/a	Yes	2.628	n/a	n/a	GoodResponse	0	n/a	n/a	10	74	Blank	AvoidedLoss	True
704.121	1.45	Lose2	0.64	n/a	Yes	2.628	n/a	5.0	GoodResponse	0	0.048	703.169	10	74	Feedback	AvoidedLoss	True
705.575	2.628	Lose2	0.64	n/a	Yes	2.628	n/a	n/a	GoodResponse	0	0.0	n/a	10	74	ISIslide	AvoidedLoss	True
708.216	0.25	Lose2	0.6446999999999999	0.0	Yes	2.934	0.016	n/a	GoodResponse	0	n/a	n/a	10	75	Cue	AvoidedLoss	True
708.467	3.95	Lose2	0.6446999999999999	0.0	Yes	2.934	0.001	n/a	GoodResponse	0	n/a	n/a	10	75	Fixation	AvoidedLoss	True
712.412	0.24	Lose2	0.6446999999999999	0.004	Yes	2.934	-0.004	2.0	GoodResponse	0	0.193	711.605	10	75	Target	AvoidedLoss	True
712.605	0.3	Lose2	0.6446999999999999	0.004	Yes	2.934	-0.004	2.0	GoodResponse	0	0.193	n/a	10	75	ButtonPress	AvoidedLoss	True
712.663	0.46	Lose2	0.6446999999999999	n/a	Yes	2.934	n/a	n/a	GoodResponse	0	n/a	n/a	10	75	Blank	AvoidedLoss	True
713.114	1.45	Lose2	0.6446999999999999	n/a	Yes	2.934	n/a	5.0	GoodResponse	0	0.031	712.145	10	75	Feedback	AvoidedLoss	True
714.569	2.934	Lose2	0.6446999999999999	n/a	Yes	2.934	n/a	n/a	GoodResponse	0	0.0	n/a	10	75	ISIslide	AvoidedLoss	True
717.528	0.25	Control	0.6494	0.0	Yes	3.222	0.028	n/a	GoodResponse	0	n/a	n/a	10	76	Cue	Neutral	True
717.778	4.05	Control	0.6494	0.0	Yes	3.222	0.0	n/a	GoodResponse	0	n/a	n/a	10	76	Fixation	Neutral	True
721.824	0.25	Control	0.6494	0.004	Yes	3.222	-0.004	2.0	GoodResponse	0	0.187	721.011	10	76	Target	Neutral	True
722.011	0.3	Control	0.6494	0.004	Yes	3.222	-0.004	2.0	GoodResponse	0	0.187	n/a	10	76	ButtonPress	Neutral	True
722.075	0.45	Control	0.6494	n/a	Yes	3.222	n/a	n/a	GoodResponse	0	n/a	n/a	10	76	Blank	Neutral	True
722.526	1.45	Control	0.6494	n/a	Yes	3.222	n/a	5.0	GoodResponse	0	0.033	721.559	10	76	Feedback	Neutral	True
723.98	3.222	Control	0.6494	n/a	Yes	3.222	n/a	n/a	GoodResponse	0	0.0	n/a	10	76	ISIslide	Neutral	True
727.223	0.25	Lose2	0.6537999999999999	0.0	Yes	2.577	0.023	n/a	GoodResponse	0	n/a	n/a	10	77	Cue	AvoidedLoss	True
727.474	3.95	Lose2	0.6537999999999999	0.0	Yes	2.577	0.001	n/a	GoodResponse	0	n/a	n/a	10	77	Fixation	AvoidedLoss	True
731.419	0.26	Lose2	0.6537999999999999	0.004	Yes	2.577	-0.004	2.0	GoodResponse	0	0.241	730.66	10	77	Target	AvoidedLoss	True
731.66	0.3	Lose2	0.6537999999999999	0.004	Yes	2.577	-0.004	2.0	GoodResponse	0	0.241	n/a	10	77	ButtonPress	AvoidedLoss	True
731.687	0.44	Lose2	0.6537999999999999	n/a	Yes	2.577	n/a	n/a	GoodResponse	0	n/a	n/a	10	77	Blank	AvoidedLoss	True
732.121	1.45	Lose2	0.6537999999999999	n/a	Yes	2.577	n/a	5.0	GoodResponse	0	0.048	731.169	10	77	Feedback	AvoidedLoss	True
733.576	2.577	Lose2	0.6537999999999999	n/a	Yes	2.577	n/a	n/a	GoodResponse	0	0.0	n/a	10	77	ISIslide	AvoidedLoss	True
