onset	duration	cue_type	current_mean_accuracy	duration_error	is_hit	isi_adjusted	onset_delay	response	response_type	reward	rt	rt_time	total_reward	trial_number	trial_phase	trial_type	one_press
11.1	0.25	Control	0.0	0.0	No	2.95	0.0	n/a	NoResponse	0	n/a	n/a	0	0	Cue	Neutral	False
11.35	3.85	Control	0.0	0.0	No	2.95	0.0	4.0	NoResponse	0	1.289	11.639	0	0	Fixation	Neutral	False
12.639	0.3	Control	0.0	0.0	No	2.95	0.0	4.0	NoResponse	0	1.289	n/a	0	0	ButtonPress	Neutral	False
15.212	0.4	Control	0.0	0.0	No	2.95	0.012	4.0	NoResponse	0	0.541	14.753	0	0	Target	Neutral	False
15.596	0.3	Control	0.0	n/a	No	2.95	n/a	n/a	NoResponse	0	n/a	n/a	0	0	Blank	Neutral	False
15.753	0.3	Control	0.0	0.0	No	2.95	0.012	4.0	NoResponse	0	0.541	n/a	0	0	ButtonPress	Neutral	False
15.897	1.45	Control	0.0	n/a	No	2.95	n/a	5.0	NoResponse	0	0.03	14.927	0	0	Feedback	Neutral	False
17.352	2.95	Control	0.0	n/a	No	2.95	n/a	n/a	NoResponse	0	0.0	n/a	0	0	ISIslide	Neutral	False
20.327	0.25	Lose2	0.5	0.0	Yes	2.773	0.027	n/a	GoodResponse	0	n/a	n/a	0	1	Cue	AvoidedLoss	True
20.578	4.0	Lose2	0.5	0.0	Yes	2.773	0.001	n/a	GoodResponse	0	n/a	n/a	0	1	Fixation	AvoidedLoss	True
24.573	0.41	Lose2	0.5	0.004	Yes	2.773	-0.004	4.0	GoodResponse	0	0.256	23.829	0	1	Target	AvoidedLoss	True
24.829	0.3	Lose2	0.5	0.004	Yes	2.773	-0.004	4.0	GoodResponse	0	0.256	n/a	0	1	ButtonPress	AvoidedLoss	True
24.991	0.29	Lose2	0.5	n/a	Yes	2.773	n/a	n/a	GoodResponse	0	n/a	n/a	0	1	Blank	AvoidedLoss	True
25.275	1.45	Lose2	0.5	n/a	Yes	2.773	n/a	5.0	GoodResponse	0	0.018	24.293	0	1	Feedback	AvoidedLoss	True
26.73	2.773	Lose2	0.5	n/a	Yes	2.773	n/a	n/a	GoodResponse	0	0.0	n/a	0	1	ISIslide	AvoidedLoss	True
29.521	0.25	Control	0.6667000000000001	0.0	Yes	2.579	0.021	n/a	GoodResponse	0	n/a	n/a	0	2	Cue	Neutral	True
29.772	4.1	Control	0.6667000000000001	0.0	Yes	2.579	0.001	n/a	GoodResponse	0	n/a	n/a	0	2	Fixation	Neutral	True
33.868	0.42	Control	0.6667000000000001	0.003	Yes	2.579	-0.003	4.0	GoodResponse	0	0.287	33.155	0	2	Target	Neutral	True
34.155	0.3	Control	0.6667000000000001	0.003	Yes	2.579	-0.003	4.0	GoodResponse	0	0.287	n/a	0	2	ButtonPress	Neutral	True
34.302	0.28	Control	0.6667000000000001	n/a	Yes	2.579	n/a	n/a	GoodResponse	0	n/a	n/a	0	2	Blank	Neutral	True
34.57	1.45	Control	0.6667000000000001	n/a	Yes	2.579	n/a	5.0	GoodResponse	0	0.04	33.61	0	2	Feedback	Neutral	True
36.024	2.579	Control	0.6667000000000001	n/a	Yes	2.579	n/a	n/a	GoodResponse	0	0.0	n/a	0	2	ISIslide	Neutral	True
38.632	0.25	Win2	0.75	0.0	Yes	2.818	0.032	n/a	GoodResponse	1	n/a	n/a	1	3	Cue	Win	True
38.883	3.95	Win2	0.75	0.0	Yes	2.818	0.001	n/a	GoodResponse	1	n/a	n/a	1	3	Fixation	Win	True
42.828	0.41	Win2	0.75	0.004	Yes	2.818	-0.004	4.0	GoodResponse	1	0.268	42.096	1	3	Target	Win	True
43.096	0.3	Win2	0.75	0.004	Yes	2.818	-0.004	4.0	GoodResponse	1	0.268	n/a	1	3	ButtonPress	Win	True
43.246	0.29	Win2	0.75	n/a	Yes	2.818	n/a	n/a	GoodResponse	1	n/a	n/a	1	3	Blank	Win	True
43.53	1.45	Win2	0.75	n/a	Yes	2.818	n/a	5.0	GoodResponse	1	0.007	42.537	1	3	Feedback	Win	True
44.984	2.818	Win2	0.75	n/a	Yes	2.818	n/a	n/a	GoodResponse	1	0.0	n/a	1	3	ISIslide	Win	True
47.826	0.25	Win2	0.8	0.0	Yes	3.274	0.026	n/a	GoodResponse	1	n/a	n/a	2	4	Cue	Win	True
48.077	4.0	Win2	0.8	0.0	Yes	3.274	0.001	n/a	GoodResponse	1	n/a	n/a	2	4	Fixation	Win	True
52.072	0.4	Win2	0.8	0.004	Yes	3.274	-0.004	4.0	GoodResponse	1	0.274	51.346	2	4	Target	Win	True
52.346	0.3	Win2	0.8	0.004	Yes	3.274	-0.004	4.0	GoodResponse	1	0.274	n/a	2	4	ButtonPress	Win	True
52.473	0.3	Win2	0.8	n/a	Yes	3.274	n/a	n/a	GoodResponse	1	n/a	n/a	2	4	Blank	Win	True
52.774	1.45	Win2	0.8	n/a	Yes	3.274	n/a	5.0	GoodResponse	1	0.03	51.804	2	4	Feedback	Win	True
54.229	3.274	Win2	0.8	n/a	Yes	3.274	n/a	n/a	GoodResponse	1	0.0	n/a	2	4	ISIslide	Win	True
57.522	0.25	Win2	0.8332999999999999	0.0	Yes	2.778	0.022	n/a	GoodResponse	1	n/a	n/a	3	5	Cue	Win	True
57.773	4.0	Win2	0.8332999999999999	0.0	Yes	2.778	0.001	n/a	GoodResponse	1	n/a	n/a	3	5	Fixation	Win	True
61.768	0.39	Win2	0.8332999999999999	0.004	Yes	2.778	-0.004	4.0	GoodResponse	1	0.237	61.005	3	5	Target	Win	True
62.005	0.3	Win2	0.8332999999999999	0.004	Yes	2.778	-0.004	4.0	GoodResponse	1	0.237	n/a	3	5	ButtonPress	Win	True
62.169	0.31	Win2	0.8332999999999999	n/a	Yes	2.778	n/a	n/a	GoodResponse	1	n/a	n/a	3	5	Blank	Win	True
62.47	1.45	Win2	0.8332999999999999	n/a	Yes	2.778	n/a	5.0	GoodResponse	1	0.042	61.512	3	5	Feedback	Win	True
63.924	2.778	Win2	0.8332999999999999	n/a	Yes	2.778	n/a	n/a	GoodResponse	1	0.0	n/a	3	5	ISIslide	Win	True
66.716	0.25	Lose2	0.8571	0.0	Yes	2.734	0.016	n/a	GoodResponse	0	n/a	n/a	3	6	Cue	AvoidedLoss	True
66.967	3.95	Lose2	0.8571	0.0	Yes	2.734	0.001	n/a	GoodResponse	0	n/a	n/a	3	6	Fixation	AvoidedLoss	True
70.912	0.38	Lose2	0.8571	0.004	Yes	2.734	-0.004	4.0	GoodResponse	0	0.324	70.236	3	6	Target	AvoidedLoss	True
71.236	0.3	Lose2	0.8571	0.004	Yes	2.734	-0.004	4.0	GoodResponse	0	0.324	n/a	3	6	ButtonPress	AvoidedLoss	True
71.296	0.32	Lose2	0.8571	n/a	Yes	2.734	n/a	n/a	GoodResponse	0	n/a	n/a	3	6	Blank	AvoidedLoss	True
71.614	1.45	Lose2	0.8571	n/a	Yes	2.734	n/a	5.0	GoodResponse	0	0.02	70.634	3	6	Feedback	AvoidedLoss	True
73.068	2.734	Lose2	0.8571	n/a	Yes	2.734	n/a	n/a	GoodResponse	0	0.0	n/a	3	6	ISIslide	AvoidedLoss	True
75.827	0.25	Lose2	0.875	0.0	Yes	4.023	0.027	n/a	GoodResponse	0	n/a	n/a	3	7	Cue	AvoidedLoss	True
76.077	4.05	Lose2	0.875	0.001	Yes	4.023	0.0	n/a	GoodResponse	0	n/a	n/a	3	7	Fixation	AvoidedLoss	True
80.123	0.37	Lose2	0.875	0.004	Yes	4.023	-0.004	4.0	GoodResponse	0	0.335	79.458	3	7	Target	AvoidedLoss	True
80.458	0.3	Lose2	0.875	0.004	Yes	4.023	-0.004	4.0	GoodResponse	0	0.335	n/a	3	7	ButtonPress	AvoidedLoss	True
80.507	0.33	Lose2	0.875	n/a	Yes	4.023	n/a	n/a	GoodResponse	0	n/a	n/a	3	7	Blank	AvoidedLoss	True
80.825	1.45	Lose2	0.875	n/a	Yes	4.023	n/a	5.0	GoodResponse	0	0.028	79.853	3	7	Feedback	AvoidedLoss	True
82.279	4.023	Lose2	0.875	n/a	Yes	4.023	n/a	n/a	GoodResponse	0	0.0	n/a	3	7	ISIslide	AvoidedLoss	True
86.325	0.25	Lose2	0.8889	0.0	Yes	3.025	0.025	n/a	GoodResponse	0	n/a	n/a	3	8	Cue	AvoidedLoss	True
86.576	3.95	Lose2	0.8889	0.0	Yes	3.025	0.001	n/a	GoodResponse	0	n/a	n/a	3	8	Fixation	AvoidedLoss	True
90.521	0.36	Lose2	0.8889	0.004	Yes	3.025	-0.004	4.0	GoodResponse	0	0.297	89.818	3	8	Target	AvoidedLoss	True
90.818	0.3	Lose2	0.8889	0.004	Yes	3.025	-0.004	4.0	GoodResponse	0	0.297	n/a	3	8	ButtonPress	AvoidedLoss	True
90.888	0.34	Lose2	0.8889	n/a	Yes	3.025	n/a	n/a	GoodResponse	0	n/a	n/a	3	8	Blank	AvoidedLoss	True
91.223	1.45	Lose2	0.8889	n/a	Yes	3.025	n/a	5.0	GoodResponse	0	0.02	90.243	3	8	Feedback	AvoidedLoss	True
92.677	3.025	Lose2	0.8889	n/a	Yes	3.025	n/a	n/a	GoodResponse	0	0.0	n/a	3	8	ISIslide	AvoidedLoss	True
95.72	0.25	Lose2	0.9	0.0	Yes	3.13	0.02	n/a	GoodResponse	0	n/a	n/a	3	9	Cue	AvoidedLoss	True
95.97	3.95	Lose2	0.9	0.0	Yes	3.13	0.0	n/a	GoodResponse	0	n/a	n/a	3	9	Fixation	AvoidedLoss	True
99.932	0.35	Lose2	0.9	0.0	Yes	3.13	0.012	4.0	GoodResponse	0	0.244	99.176	3	9	Target	AvoidedLoss	True
100.176	0.3	Lose2	0.9	0.0	Yes	3.13	0.012	4.0	GoodResponse	0	0.244	n/a	3	9	ButtonPress	AvoidedLoss	True
100.266	0.35	Lose2	0.9	n/a	Yes	3.13	n/a	n/a	GoodResponse	0	n/a	n/a	3	9	Blank	AvoidedLoss	True
100.618	1.45	Lose2	0.9	n/a	Yes	3.13	n/a	5.0	GoodResponse	0	0.039	99.657	3	9	Feedback	AvoidedLoss	True
102.072	3.13	Lose2	0.9	n/a	Yes	3.13	n/a	n/a	GoodResponse	0	0.0	n/a	3	9	ISIslide	AvoidedLoss	True
105.215	0.25	Control	0.9091	0.0	Yes	3.285	0.015	n/a	GoodResponse	0	n/a	n/a	3	10	Cue	Neutral	True
105.465	4.0	Control	0.9091	0.0	Yes	3.285	0.0	n/a	GoodResponse	0	n/a	n/a	3	10	Fixation	Neutral	True
109.461	0.34	Control	0.9091	0.004	Yes	3.285	-0.004	4.0	GoodResponse	0	0.316	108.777	3	10	Target	Neutral	True
109.777	0.3	Control	0.9091	0.004	Yes	3.285	-0.004	4.0	GoodResponse	0	0.316	n/a	3	10	ButtonPress	Neutral	True
109.812	0.36	Control	0.9091	n/a	Yes	3.285	n/a	n/a	GoodResponse	0	n/a	n/a	3	10	Blank	Neutral	True
110.163	1.45	Control	0.9091	n/a	Yes	3.285	n/a	5.0	GoodResponse	0	0.007	109.17	3	10	Feedback	Neutral	True
111.617	3.285	Control	0.9091	n/a	Yes	3.285	n/a	n/a	GoodResponse	0	0.0	n/a	3	10	ISIslide	Neutral	True
114.927	0.25	Lose2	0.9167000000000001	0.0	Yes	2.723	0.027	n/a	GoodResponse	0	n/a	n/a	3	11	Cue	AvoidedLoss	True
115.178	4.05	Lose2	0.9167000000000001	0.0	Yes	2.723	0.001	n/a	GoodResponse	0	n/a	n/a	3	11	Fixation	AvoidedLoss	True
119.223	0.33	Lose2	0.9167000000000001	0.004	Yes	2.723	-0.004	4.0	GoodResponse	0	0.317	118.54	3	11	Target	AvoidedLoss	True
119.54	0.3	Lose2	0.9167000000000001	0.004	Yes	2.723	-0.004	4.0	GoodResponse	0	0.317	n/a	3	11	ButtonPress	AvoidedLoss	True
119.558	0.37	Lose2	0.9167000000000001	n/a	Yes	2.723	n/a	n/a	GoodResponse	0	n/a	n/a	3	11	Blank	AvoidedLoss	True
119.925	1.45	Lose2	0.9167000000000001	n/a	Yes	2.723	n/a	5.0	GoodResponse	0	0.001	118.926	3	11	Feedback	AvoidedLoss	True
121.38	2.723	Lose2	0.9167000000000001	n/a	Yes	2.723	n/a	n/a	GoodResponse	0	0.0	n/a	3	11	ISIslide	AvoidedLoss	True
124.121	0.25	Control	0.9231	0.0	Yes	2.979	0.021	n/a	GoodResponse	0	n/a	n/a	3	12	Cue	Neutral	True
124.372	3.9	Control	0.9231	0.0	Yes	2.979	0.001	n/a	GoodResponse	0	n/a	n/a	3	12	Fixation	Neutral	True
128.267	0.32	Control	0.9231	0.004	Yes	2.979	-0.004	4.0	GoodResponse	0	0.261	127.528	3	12	Target	Neutral	True
128.528	0.3	Control	0.9231	0.004	Yes	2.979	-0.004	4.0	GoodResponse	0	0.261	n/a	3	12	ButtonPress	Neutral	True
128.601	0.38	Control	0.9231	n/a	Yes	2.979	n/a	n/a	GoodResponse	0	n/a	n/a	3	12	Blank	Neutral	True
128.969	1.45	Control	0.9231	n/a	Yes	2.979	n/a	5.0	GoodResponse	0	0.03	127.999	3	12	Feedback	Neutral	True
130.423	2.979	Control	0.9231	n/a	Yes	2.979	n/a	n/a	GoodResponse	0	0.0	n/a	3	12	ISIslide	Neutral	True
133.416	0.25	Control	0.8571	0.0	No	2.784	0.016	n/a	NoResponse	0	n/a	n/a	3	13	Cue	Neutral	True
133.666	4.0	Control	0.8571	0.001	No	2.784	0.0	n/a	NoResponse	0	n/a	n/a	3	13	Fixation	Neutral	True
137.662	0.31	Control	0.8571	0.004	No	2.784	-0.004	4.0	NoResponse	0	0.413	137.075	3	13	Target	Neutral	True
137.979	0.39	Control	0.8571	n/a	No	2.784	n/a	n/a	NoResponse	0	n/a	n/a	3	13	Blank	Neutral	True
138.075	0.3	Control	0.8571	0.004	No	2.784	-0.004	4.0	NoResponse	0	0.413	n/a	3	13	ButtonPress	Neutral	True
138.364	1.45	Control	0.8571	n/a	No	2.784	n/a	5.0	NoResponse	0	0.001	137.365	3	13	Feedback	Neutral	True
139.818	2.784	Control	0.8571	n/a	No	2.784	n/a	n/a	NoResponse	0	0.0	n/a	3	13	ISIslide	Neutral	True
142.627	0.25	Win2	0.8667	0.0	Yes	2.673	0.027	n/a	GoodResponse	1	n/a	n/a	4	14	Cue	Win	True
142.877	4.1	Win2	0.8667	0.0	Yes	2.673	0.0	n/a	GoodResponse	1	n/a	n/a	4	14	Fixation	Win	True
146.973	0.3	Win2	0.8667	0.004	Yes	2.673	-0.004	4.0	GoodResponse	1	0.243	146.216	4	14	Target	Win	True
147.216	0.3	Win2	0.8667	0.004	Yes	2.673	-0.004	4.0	GoodResponse	1	0.243	n/a	4	14	ButtonPress	Win	True
147.274	0.4	Win2	0.8667	n/a	Yes	2.673	n/a	n/a	GoodResponse	1	n/a	n/a	4	14	Blank	Win	True
147.675	1.45	Win2	0.8667	n/a	Yes	2.673	n/a	5.0	GoodResponse	1	0.007	146.682	4	14	Feedback	Win	True
149.129	2.673	Win2	0.8667	n/a	Yes	2.673	n/a	n/a	GoodResponse	1	0.0	n/a	4	14	ISIslide	Win	True
151.821	0.25	Control	0.875	0.0	Yes	2.979	0.021	n/a	GoodResponse	0	n/a	n/a	4	15	Cue	Neutral	True
152.072	4.0	Control	0.875	0.0	Yes	2.979	0.001	n/a	GoodResponse	0	n/a	n/a	4	15	Fixation	Neutral	True
156.067	0.29	Control	0.875	0.004	Yes	2.979	-0.004	4.0	GoodResponse	0	0.249	155.316	4	15	Target	Neutral	True
156.316	0.3	Control	0.875	0.004	Yes	2.979	-0.004	4.0	GoodResponse	0	0.249	n/a	4	15	ButtonPress	Neutral	True
156.368	0.41	Control	0.875	n/a	Yes	2.979	n/a	n/a	GoodResponse	0	n/a	n/a	4	15	Blank	Neutral	True
156.769	1.45	Control	0.875	n/a	Yes	2.979	n/a	5.0	GoodResponse	0	0.034	155.803	4	15	Feedback	Neutral	True
158.223	2.979	Control	0.875	n/a	Yes	2.979	n/a	n/a	GoodResponse	0	0.0	n/a	4	15	ISIslide	Neutral	True
161.216	0.25	Win2	0.8234999999999999	0.0	No	2.884	0.016	n/a	NoResponse	0	n/a	n/a	4	16	Cue	MissedWin	True
161.466	4.0	Win2	0.8234999999999999	0.0	No	2.884	0.0	n/a	NoResponse	0	n/a	n/a	4	16	Fixation	MissedWin	True
165.462	0.28	Win2	0.8234999999999999	0.004	No	2.884	-0.004	4.0	NoResponse	0	0.316	164.778	4	16	Target	MissedWin	True
165.746	0.42	Win2	0.8234999999999999	n/a	No	2.884	n/a	n/a	NoResponse	0	n/a	n/a	4	16	Blank	MissedWin	True
165.778	0.3	Win2	0.8234999999999999	0.004	No	2.884	-0.004	4.0	NoResponse	0	0.316	n/a	4	16	ButtonPress	MissedWin	True
166.164	1.45	Win2	0.8234999999999999	n/a	No	2.884	n/a	5.0	NoResponse	0	0.007	165.171	4	16	Feedback	MissedWin	True
167.618	2.884	Win2	0.8234999999999999	n/a	No	2.884	n/a	n/a	NoResponse	0	0.0	n/a	4	16	ISIslide	MissedWin	True
170.527	0.25	Lose2	0.7778	0.0	No	2.723	0.027	n/a	NoResponse	-1	n/a	n/a	3	17	Cue	Loss	True
170.778	3.95	Lose2	0.7778	0.0	No	2.723	0.001	n/a	NoResponse	-1	n/a	n/a	3	17	Fixation	Loss	True
174.723	0.27	Lose2	0.7778	0.004	No	2.723	-0.004	4.0	NoResponse	-1	0.306	174.029	3	17	Target	Loss	True
175.007	0.43	Lose2	0.7778	n/a	No	2.723	n/a	n/a	NoResponse	-1	n/a	n/a	3	17	Blank	Loss	True
175.029	0.3	Lose2	0.7778	0.004	No	2.723	-0.004	4.0	NoResponse	-1	0.306	n/a	3	17	ButtonPress	Loss	True
175.425	1.45	Lose2	0.7778	n/a	No	2.723	n/a	5.0	NoResponse	-1	0.013	174.438	3	17	Feedback	Loss	True
176.879	2.723	Lose2	0.7778	n/a	No	2.723	n/a	n/a	NoResponse	-1	0.0	n/a	3	17	ISIslide	Loss	True
179.621	0.25	Lose2	0.7895	0.0	Yes	2.729	0.021	n/a	GoodResponse	0	n/a	n/a	3	18	Cue	AvoidedLoss	True
179.871	4.05	Lose2	0.7895	0.001	Yes	2.729	0.0	n/a	GoodResponse	0	n/a	n/a	3	18	Fixation	AvoidedLoss	True
183.917	0.26	Lose2	0.7895	0.004	Yes	2.729	-0.004	4.0	GoodResponse	0	0.256	183.173	3	18	Target	AvoidedLoss	True
184.173	0.3	Lose2	0.7895	0.004	Yes	2.729	-0.004	4.0	GoodResponse	0	0.256	n/a	3	18	ButtonPress	AvoidedLoss	True
184.184	0.44	Lose2	0.7895	n/a	Yes	2.729	n/a	n/a	GoodResponse	0	n/a	n/a	3	18	Blank	AvoidedLoss	True
184.619	1.45	Lose2	0.7895	n/a	Yes	2.729	n/a	5.0	GoodResponse	0	0.038	183.657	3	18	Feedback	AvoidedLoss	True
186.073	2.729	Lose2	0.7895	n/a	Yes	2.729	n/a	n/a	GoodResponse	0	0.0	n/a	3	18	ISIslide	AvoidedLoss	True
188.815	0.25	Control	0.8	0.0	Yes	2.935	0.015	n/a	GoodResponse	0	n/a	n/a	3	19	Cue	Neutral	True
189.066	3.95	Control	0.8	0.0	Yes	2.935	0.001	n/a	GoodResponse	0	n/a	n/a	3	19	Fixation	Neutral	True
193.011	0.25	Control	0.8	0.004	Yes	2.935	-0.004	4.0	GoodResponse	0	0.236	192.247	3	19	Target	Neutral	True
193.247	0.3	Control	0.8	0.004	Yes	2.935	-0.004	4.0	GoodResponse	0	0.236	n/a	3	19	ButtonPress	Neutral	True
193.262	0.45	Control	0.8	n/a	Yes	2.935	n/a	n/a	GoodResponse	0	n/a	n/a	3	19	Blank	Neutral	True
193.713	1.45	Control	0.8	n/a	Yes	2.935	n/a	5.0	GoodResponse	0	0.016	192.729	3	19	Feedback	Neutral	True
195.167	2.935	Control	0.8	n/a	Yes	2.935	n/a	n/a	GoodResponse	0	0.0	n/a	3	19	ISIslide	Neutral	True
198.126	0.25	Control	0.7619	0.0	No	2.624	0.026	n/a	NoResponse	0	n/a	n/a	3	20	Cue	Neutral	True
198.377	4.05	Control	0.7619	0.0	No	2.624	0.001	n/a	NoResponse	0	n/a	n/a	3	20	Fixation	Neutral	True
202.422	0.24	Control	0.7619	0.004	No	2.624	-0.004	4.0	NoResponse	0	0.27	201.692	3	20	Target	Neutral	True
202.673	0.46	Control	0.7619	n/a	No	2.624	n/a	n/a	NoResponse	0	n/a	n/a	3	20	Blank	Neutral	True
202.692	0.3	Control	0.7619	0.004	No	2.624	-0.004	4.0	NoResponse	0	0.27	n/a	3	20	ButtonPress	Neutral	True
203.124	1.45	Control	0.7619	n/a	No	2.624	n/a	5.0	NoResponse	0	0.02	202.144	3	20	Feedback	Neutral	True
204.579	2.624	Control	0.7619	n/a	No	2.624	n/a	n/a	NoResponse	0	0.0	n/a	3	20	ISIslide	Neutral	True
207.22	0.25	Control	0.7273000000000001	0.0	No	2.78	0.02	n/a	NoResponse	0	n/a	n/a	3	21	Cue	Neutral	True
207.471	4.1	Control	0.7273000000000001	0.0	No	2.78	0.001	n/a	NoResponse	0	n/a	n/a	3	21	Fixation	Neutral	True
211.566	0.23	Control	0.7273000000000001	0.004	No	2.78	-0.004	4.0	NoResponse	0	0.277	210.843	3	21	Target	Neutral	True
211.8	0.47	Control	0.7273000000000001	n/a	No	2.78	n/a	n/a	NoResponse	0	n/a	n/a	3	21	Blank	Neutral	True
211.843	0.3	Control	0.7273000000000001	0.004	No	2.78	-0.004	4.0	NoResponse	0	0.277	n/a	3	21	ButtonPress	Neutral	True
212.268	1.45	Control	0.7273000000000001	n/a	No	2.78	n/a	5.0	NoResponse	0	0.047	211.315	3	21	Feedback	Neutral	True
213.723	2.78	Control	0.7273000000000001	n/a	No	2.78	n/a	n/a	NoResponse	0	0.0	n/a	3	21	ISIslide	Neutral	True
216.514	0.25	Control	0.6957	0.001	No	2.786	0.014	n/a	NoResponse	0	n/a	n/a	3	22	Cue	Neutral	True
216.765	4.0	Control	0.6957	0.0	No	2.786	0.001	4.0	NoResponse	0	3.676	219.441	3	22	Fixation	Neutral	True
220.441	0.3	Control	0.6957	0.0	No	2.786	0.001	4.0	NoResponse	0	3.676	n/a	3	22	ButtonPress	Neutral	True
220.761	0.22	Control	0.6957	0.003	No	2.786	-0.003	n/a	NoResponse	0	n/a	n/a	3	22	Target	Neutral	True
220.995	0.48	Control	0.6957	n/a	No	2.786	n/a	n/a	NoResponse	0	n/a	n/a	3	22	Blank	Neutral	True
221.463	1.45	Control	0.6957	n/a	No	2.786	n/a	5.0	NoResponse	0	0.023	220.486	3	22	Feedback	Neutral	True
222.917	2.786	Control	0.6957	n/a	No	2.786	n/a	n/a	NoResponse	0	0.0	n/a	3	22	ISIslide	Neutral	True
225.725	0.25	Control	0.6667000000000001	0.0	No	2.775	0.025	n/a	NoResponse	0	n/a	n/a	3	23	Cue	Neutral	True
225.976	3.9	Control	0.6667000000000001	0.0	No	2.775	0.001	n/a	NoResponse	0	n/a	n/a	3	23	Fixation	Neutral	True
229.871	0.21	Control	0.6667000000000001	0.004	No	2.775	-0.004	4.0	NoResponse	0	0.286	229.157	3	23	Target	Neutral	True
230.088	0.49	Control	0.6667000000000001	n/a	No	2.775	n/a	n/a	NoResponse	0	n/a	n/a	3	23	Blank	Neutral	True
230.157	0.3	Control	0.6667000000000001	0.004	No	2.775	-0.004	4.0	NoResponse	0	0.286	n/a	3	23	ButtonPress	Neutral	True
230.573	1.45	Control	0.6667000000000001	n/a	No	2.775	n/a	5.0	NoResponse	0	0.035	229.608	3	23	Feedback	Neutral	True
232.028	2.775	Control	0.6667000000000001	n/a	No	2.775	n/a	n/a	NoResponse	0	0.0	n/a	3	23	ISIslide	Neutral	True
234.819	0.25	Win2	0.64	0.0	No	3.131	0.019	n/a	NoResponse	0	n/a	n/a	3	24	Cue	MissedWin	True
235.07	3.95	Win2	0.64	0.0	No	3.131	0.001	n/a	NoResponse	0	n/a	n/a	3	24	Fixation	MissedWin	True
239.015	0.2	Win2	0.64	0.004	No	3.131	-0.004	4.0	NoResponse	0	0.237	238.252	3	24	Target	MissedWin	True
239.216	0.5	Win2	0.64	n/a	No	3.131	n/a	n/a	NoResponse	0	n/a	n/a	3	24	Blank	MissedWin	True
239.252	0.3	Win2	0.64	0.004	No	3.131	-0.004	4.0	NoResponse	0	0.237	n/a	3	24	ButtonPress	MissedWin	True
239.717	1.45	Win2	0.64	n/a	No	3.131	n/a	5.0	NoResponse	0	0.013	238.73	3	24	Feedback	MissedWin	True
241.172	3.131	Win2	0.64	n/a	No	3.131	n/a	n/a	NoResponse	0	0.0	n/a	3	24	ISIslide	MissedWin	True
244.314	0.25	Win2	0.6154	0.0	No	3.086	0.014	n/a	NoResponse	0	n/a	n/a	3	25	Cue	MissedWin	True
244.565	4.0	Win2	0.6154	0.0	No	3.086	0.001	n/a	NoResponse	0	n/a	n/a	3	25	Fixation	MissedWin	True
248.56	0.21	Win2	0.6154	0.004	No	3.086	-0.004	4.0	NoResponse	0	0.258	247.818	3	25	Target	MissedWin	True
248.778	0.49	Win2	0.6154	n/a	No	3.086	n/a	n/a	NoResponse	0	n/a	n/a	3	25	Blank	MissedWin	True
248.818	0.3	Win2	0.6154	0.004	No	3.086	-0.004	4.0	NoResponse	0	0.258	n/a	3	25	ButtonPress	MissedWin	True
249.263	1.45	Win2	0.6154	n/a	No	3.086	n/a	5.0	NoResponse	0	0.027	248.29	3	25	Feedback	MissedWin	True
250.717	3.086	Win2	0.6154	n/a	No	3.086	n/a	n/a	NoResponse	0	0.0	n/a	3	25	ISIslide	MissedWin	True
253.826	0.25	Win2	0.5926	0.0	No	2.924	0.026	n/a	LatePress	0	n/a	n/a	3	26	Cue	MissedWin	True
254.077	3.95	Win2	0.5926	0.0	No	2.924	0.001	n/a	LatePress	0	n/a	n/a	3	26	Fixation	MissedWin	True
258.022	0.22	Win2	0.5926	0.004	No	2.924	-0.004	4.0	LatePress	0	0.231	257.253	3	26	Target	MissedWin	True
258.253	0.3	Win2	0.5926	0.004	No	2.924	-0.004	4.0	LatePress	0	0.231	n/a	3	26	ButtonPress	MissedWin	True
258.256	0.48	Win2	0.5926	n/a	No	2.924	n/a	n/a	LatePress	0	n/a	n/a	3	26	Blank	MissedWin	True
258.724	1.45	Win2	0.5926	n/a	No	2.924	n/a	5.0	LatePress	0	0.029	257.753	3	26	Feedback	MissedWin	True
260.179	2.924	Win2	0.5926	n/a	No	2.924	n/a	n/a	LatePress	0	0.0	n/a	3	26	ISIslide	MissedWin	True
263.121	0.25	Lose2	0.5714	0.0	No	2.829	0.021	n/a	NoResponse	-1	n/a	n/a	2	27	Cue	Loss	True
263.371	4.05	Lose2	0.5714	0.0	No	2.829	0.0	n/a	NoResponse	-1	n/a	n/a	2	27	Fixation	Loss	True
267.417	0.23	Lose2	0.5714	0.004	No	2.829	-0.004	4.0	NoResponse	-1	0.267	266.684	2	27	Target	Loss	True
267.651	0.47	Lose2	0.5714	n/a	No	2.829	n/a	n/a	NoResponse	-1	n/a	n/a	2	27	Blank	Loss	True
267.684	0.3	Lose2	0.5714	0.004	No	2.829	-0.004	4.0	NoResponse	-1	0.267	n/a	2	27	ButtonPress	Loss	True
268.119	1.45	Lose2	0.5714	n/a	No	2.829	n/a	5.0	NoResponse	-1	0.049	267.168	2	27	Feedback	Loss	True
269.573	2.829	Lose2	0.5714	n/a	No	2.829	n/a	n/a	NoResponse	-1	0.0	n/a	2	27	ISIslide	Loss	True
272.415	0.25	Control	0.5861999999999999	0.0	Yes	2.835	0.015	n/a	GoodResponse	0	n/a	n/a	2	28	Cue	Neutral	True
272.666	4.05	Control	0.5861999999999999	0.0	Yes	2.835	0.001	n/a	GoodResponse	0	n/a	n/a	2	28	Fixation	Neutral	True
276.711	0.24	Control	0.5861999999999999	0.004	Yes	2.835	-0.004	4.0	GoodResponse	0	0.235	275.946	2	28	Target	Neutral	True
276.946	0.3	Control	0.5861999999999999	0.004	Yes	2.835	-0.004	4.0	GoodResponse	0	0.235	n/a	2	28	ButtonPress	Neutral	True
276.962	0.46	Control	0.5861999999999999	n/a	Yes	2.835	n/a	n/a	GoodResponse	0	n/a	n/a	2	28	Blank	Neutral	True
277.413	1.45	Control	0.5861999999999999	n/a	Yes	2.835	n/a	5.0	GoodResponse	0	0.024	276.437	2	28	Feedback	Neutral	True
278.868	2.835	Control	0.5861999999999999	n/a	Yes	2.835	n/a	n/a	GoodResponse	0	0.0	n/a	2	28	ISIslide	Neutral	True
281.726	0.25	Lose2	0.5667	0.0	No	2.824	0.026	n/a	NoResponse	-1	n/a	n/a	1	29	Cue	Loss	True
281.977	3.95	Lose2	0.5667	0.0	No	2.824	0.001	n/a	NoResponse	-1	n/a	n/a	1	29	Fixation	Loss	True
285.922	0.25	Lose2	0.5667	0.004	No	2.824	-0.004	4.0	NoResponse	-1	0.266	285.188	1	29	Target	Loss	True
286.173	0.45	Lose2	0.5667	n/a	No	2.824	n/a	n/a	NoResponse	-1	n/a	n/a	1	29	Blank	Loss	True
286.188	0.3	Lose2	0.5667	0.004	No	2.824	-0.004	4.0	NoResponse	-1	0.266	n/a	1	29	ButtonPress	Loss	True
286.624	1.45	Lose2	0.5667	n/a	No	2.824	n/a	5.0	NoResponse	-1	0.032	285.656	1	29	Feedback	Loss	True
288.079	2.824	Lose2	0.5667	n/a	No	2.824	n/a	n/a	NoResponse	-1	0.0	n/a	1	29	ISIslide	Loss	True
290.921	0.25	Win2	0.5484	0.0	No	2.779	0.021	n/a	NoResponse	0	n/a	n/a	1	30	Cue	MissedWin	True
291.171	3.9	Win2	0.5484	0.0	No	2.779	0.0	n/a	NoResponse	0	n/a	n/a	1	30	Fixation	MissedWin	True
295.083	0.26	Win2	0.5484	0.0	No	2.779	0.012	4.0	NoResponse	0	0.307	294.39	1	30	Target	MissedWin	True
295.334	0.44	Win2	0.5484	n/a	No	2.779	n/a	n/a	NoResponse	0	n/a	n/a	1	30	Blank	MissedWin	True
295.39	0.3	Win2	0.5484	0.0	No	2.779	0.012	4.0	NoResponse	0	0.307	n/a	1	30	ButtonPress	MissedWin	True
295.768	1.45	Win2	0.5484	n/a	No	2.779	n/a	5.0	NoResponse	0	0.009	294.777	1	30	Feedback	MissedWin	True
297.223	2.779	Win2	0.5484	n/a	No	2.779	n/a	n/a	NoResponse	0	0.0	n/a	1	30	ISIslide	MissedWin	True
300.014	0.25	Lose2	0.5625	0.0	Yes	2.836	0.014	n/a	GoodResponse	0	n/a	n/a	1	31	Cue	AvoidedLoss	True
300.265	4.05	Lose2	0.5625	0.0	Yes	2.836	0.001	n/a	GoodResponse	0	n/a	n/a	1	31	Fixation	AvoidedLoss	True
304.311	0.27	Lose2	0.5625	0.003	Yes	2.836	-0.003	4.0	GoodResponse	0	0.268	303.579	1	31	Target	AvoidedLoss	True
304.579	0.3	Lose2	0.5625	0.003	Yes	2.836	-0.003	4.0	GoodResponse	0	0.268	n/a	1	31	ButtonPress	AvoidedLoss	True
304.595	0.43	Lose2	0.5625	n/a	Yes	2.836	n/a	n/a	GoodResponse	0	n/a	n/a	1	31	Blank	AvoidedLoss	True
305.013	1.45	Lose2	0.5625	n/a	Yes	2.836	n/a	5.0	GoodResponse	0	0.033	304.046	1	31	Feedback	AvoidedLoss	True
306.467	2.836	Lose2	0.5625	n/a	Yes	2.836	n/a	n/a	GoodResponse	0	0.0	n/a	1	31	ISIslide	AvoidedLoss	True
309.326	0.25	Lose2	0.5758	0.0	Yes	2.624	0.026	n/a	GoodResponse	0	n/a	n/a	1	32	Cue	AvoidedLoss	True
309.576	4.15	Lose2	0.5758	0.0	Yes	2.624	0.0	n/a	GoodResponse	0	n/a	n/a	1	32	Fixation	AvoidedLoss	True
313.722	0.28	Lose2	0.5758	0.004	Yes	2.624	-0.004	4.0	GoodResponse	0	0.252	312.974	1	32	Target	AvoidedLoss	True
313.974	0.3	Lose2	0.5758	0.004	Yes	2.624	-0.004	4.0	GoodResponse	0	0.252	n/a	1	32	ButtonPress	AvoidedLoss	True
314.006	0.42	Lose2	0.5758	n/a	Yes	2.624	n/a	n/a	GoodResponse	0	n/a	n/a	1	32	Blank	AvoidedLoss	True
314.424	1.45	Lose2	0.5758	n/a	Yes	2.624	n/a	5.0	GoodResponse	0	0.036	313.46	1	32	Feedback	AvoidedLoss	True
315.879	2.624	Lose2	0.5758	n/a	Yes	2.624	n/a	n/a	GoodResponse	0	0.0	n/a	1	32	ISIslide	AvoidedLoss	True
318.52	0.25	Win2	0.5882000000000001	0.0	Yes	2.68	0.02	n/a	GoodResponse	1	n/a	n/a	2	33	Cue	Win	True
318.771	4.0	Win2	0.5882000000000001	0.0	Yes	2.68	0.001	n/a	GoodResponse	1	n/a	n/a	2	33	Fixation	Win	True
322.766	0.29	Win2	0.5882000000000001	0.004	Yes	2.68	-0.004	4.0	GoodResponse	1	0.246	322.012	2	33	Target	Win	True
323.012	0.3	Win2	0.5882000000000001	0.004	Yes	2.68	-0.004	4.0	GoodResponse	1	0.246	n/a	2	33	ButtonPress	Win	True
323.067	0.41	Win2	0.5882000000000001	n/a	Yes	2.68	n/a	n/a	GoodResponse	1	n/a	n/a	2	33	Blank	Win	True
323.468	1.45	Win2	0.5882000000000001	n/a	Yes	2.68	n/a	5.0	GoodResponse	1	0.017	322.485	2	33	Feedback	Win	True
324.922	2.68	Win2	0.5882000000000001	n/a	Yes	2.68	n/a	n/a	GoodResponse	1	0.0	n/a	2	33	ISIslide	Win	True
327.614	0.25	Lose2	0.6	0.0	Yes	2.636	0.014	n/a	GoodResponse	0	n/a	n/a	2	34	Cue	AvoidedLoss	True
327.864	4.05	Lose2	0.6	0.001	Yes	2.636	0.0	n/a	GoodResponse	0	n/a	n/a	2	34	Fixation	AvoidedLoss	True
331.91	0.3	Lose2	0.6	0.004	Yes	2.636	-0.004	4.0	GoodResponse	0	0.258	331.168	2	34	Target	AvoidedLoss	True
332.168	0.3	Lose2	0.6	0.004	Yes	2.636	-0.004	4.0	GoodResponse	0	0.258	n/a	2	34	ButtonPress	AvoidedLoss	True
332.211	0.4	Lose2	0.6	n/a	Yes	2.636	n/a	n/a	GoodResponse	0	n/a	n/a	2	34	Blank	AvoidedLoss	True
332.612	1.45	Lose2	0.6	n/a	Yes	2.636	n/a	5.0	GoodResponse	0	0.044	331.656	2	34	Feedback	AvoidedLoss	True
334.066	2.636	Lose2	0.6	n/a	Yes	2.636	n/a	n/a	GoodResponse	0	0.0	n/a	2	34	ISIslide	AvoidedLoss	True
336.724	0.25	Lose2	0.5832999999999999	0.0	No	2.676	0.024	n/a	NoResponse	-1	n/a	n/a	1	35	Cue	Loss	True
336.975	4.0	Lose2	0.5832999999999999	0.0	No	2.676	0.001	n/a	NoResponse	-1	n/a	n/a	1	35	Fixation	Loss	True
340.97	0.31	Lose2	0.5832999999999999	0.004	No	2.676	-0.004	4.0	NoResponse	-1	0.341	340.311	1	35	Target	Loss	True
341.288	0.39	Lose2	0.5832999999999999	n/a	No	2.676	n/a	n/a	NoResponse	-1	n/a	n/a	1	35	Blank	Loss	True
341.311	0.3	Lose2	0.5832999999999999	0.004	No	2.676	-0.004	4.0	NoResponse	-1	0.341	n/a	1	35	ButtonPress	Loss	True
341.672	1.45	Lose2	0.5832999999999999	n/a	No	2.676	n/a	5.0	NoResponse	-1	0.008	340.68	1	35	Feedback	Loss	True
343.127	2.676	Lose2	0.5832999999999999	n/a	No	2.676	n/a	n/a	NoResponse	-1	0.0	n/a	1	35	ISIslide	Loss	True
345.818	0.25	Control	0.5946	0.0	Yes	2.682	0.018	n/a	GoodResponse	0	n/a	n/a	1	36	Cue	Neutral	True
346.069	4.0	Control	0.5946	0.0	Yes	2.682	0.001	n/a	GoodResponse	0	n/a	n/a	1	36	Fixation	Neutral	True
350.064	0.32	Control	0.5946	0.004	Yes	2.682	-0.004	4.0	GoodResponse	0	0.283	349.347	1	36	Target	Neutral	True
350.347	0.3	Control	0.5946	0.004	Yes	2.682	-0.004	4.0	GoodResponse	0	0.283	n/a	1	36	ButtonPress	Neutral	True
350.399	0.38	Control	0.5946	n/a	Yes	2.682	n/a	n/a	GoodResponse	0	n/a	n/a	1	36	Blank	Neutral	True
350.766	1.45	Control	0.5946	n/a	Yes	2.682	n/a	5.0	GoodResponse	0	0.035	349.801	1	36	Feedback	Neutral	True
352.221	2.682	Control	0.5946	n/a	Yes	2.682	n/a	n/a	GoodResponse	0	0.0	n/a	1	36	ISIslide	Neutral	True
354.929	0.25	Win2	0.6053000000000001	0.0	Yes	2.871	0.029	n/a	GoodResponse	1	n/a	n/a	2	37	Cue	Win	True
355.18	4.0	Win2	0.6053000000000001	0.0	Yes	2.871	0.001	n/a	GoodResponse	1	n/a	n/a	2	37	Fixation	Win	True
359.175	0.33	Win2	0.6053000000000001	0.004	Yes	2.871	-0.004	4.0	GoodResponse	1	0.204	358.379	2	37	Target	Win	True
359.379	0.3	Win2	0.6053000000000001	0.004	Yes	2.871	-0.004	4.0	GoodResponse	1	0.204	n/a	2	37	ButtonPress	Win	True
359.509	0.37	Win2	0.6053000000000001	n/a	Yes	2.871	n/a	n/a	GoodResponse	1	n/a	n/a	2	37	Blank	Win	True
359.877	1.45	Win2	0.6053000000000001	n/a	Yes	2.871	n/a	5.0	GoodResponse	1	0.046	358.923	2	37	Feedback	Win	True
361.331	2.871	Win2	0.6053000000000001	n/a	Yes	2.871	n/a	n/a	GoodResponse	1	0.0	n/a	2	37	ISIslide	Win	True
364.223	0.25	Lose2	0.6154	0.0	Yes	2.827	0.023	n/a	GoodResponse	0	n/a	n/a	2	38	Cue	AvoidedLoss	True
364.474	3.95	Lose2	0.6154	0.0	Yes	2.827	0.001	n/a	GoodResponse	0	n/a	n/a	2	38	Fixation	AvoidedLoss	True
368.419	0.34	Lose2	0.6154	0.004	Yes	2.827	-0.004	4.0	GoodResponse	0	0.277	367.696	2	38	Target	AvoidedLoss	True
368.696	0.3	Lose2	0.6154	0.004	Yes	2.827	-0.004	4.0	GoodResponse	0	0.277	n/a	2	38	ButtonPress	AvoidedLoss	True
368.77	0.36	Lose2	0.6154	n/a	Yes	2.827	n/a	n/a	GoodResponse	0	n/a	n/a	2	38	Blank	AvoidedLoss	True
369.121	1.45	Lose2	0.6154	n/a	Yes	2.827	n/a	5.0	GoodResponse	0	0.022	368.143	2	38	Feedback	AvoidedLoss	True
370.576	2.827	Lose2	0.6154	n/a	Yes	2.827	n/a	n/a	GoodResponse	0	0.0	n/a	2	38	ISIslide	AvoidedLoss	True
373.417	0.25	Win2	0.625	0.001	Yes	2.983	0.017	n/a	GoodResponse	1	n/a	n/a	3	39	Cue	Win	True
373.668	4.1	Win2	0.625	0.0	Yes	2.983	0.001	n/a	GoodResponse	1	n/a	n/a	3	39	Fixation	Win	True
377.764	0.35	Win2	0.625	0.003	Yes	2.983	-0.003	4.0	GoodResponse	1	0.269	377.033	3	39	Target	Win	True
378.033	0.3	Win2	0.625	0.003	Yes	2.983	-0.003	4.0	GoodResponse	1	0.269	n/a	3	39	ButtonPress	Win	True
378.115	0.35	Win2	0.625	n/a	Yes	2.983	n/a	n/a	GoodResponse	1	n/a	n/a	3	39	Blank	Win	True
378.466	1.45	Win2	0.625	n/a	Yes	2.983	n/a	5.0	GoodResponse	1	0.043	377.509	3	39	Feedback	Win	True
379.92	2.983	Win2	0.625	n/a	Yes	2.983	n/a	n/a	GoodResponse	1	0.0	n/a	3	39	ISIslide	Win	True
382.929	0.25	Win2	0.6341	0.0	Yes	2.721	0.029	n/a	GoodResponse	1	n/a	n/a	4	40	Cue	Win	True
383.18	3.95	Win2	0.6341	0.0	Yes	2.721	0.001	n/a	GoodResponse	1	n/a	n/a	4	40	Fixation	Win	True
387.125	0.36	Win2	0.6341	0.004	Yes	2.721	-0.004	4.0	GoodResponse	1	0.196	386.321	4	40	Target	Win	True
387.321	0.3	Win2	0.6341	0.004	Yes	2.721	-0.004	4.0	GoodResponse	1	0.196	n/a	4	40	ButtonPress	Win	True
387.493	0.34	Win2	0.6341	n/a	Yes	2.721	n/a	n/a	GoodResponse	1	n/a	n/a	4	40	Blank	Win	True
387.827	1.45	Win2	0.6341	n/a	Yes	2.721	n/a	5.0	GoodResponse	1	0.048	386.875	4	40	Feedback	Win	True
389.282	2.721	Win2	0.6341	n/a	Yes	2.721	n/a	n/a	GoodResponse	1	0.0	n/a	4	40	ISIslide	Win	True
392.023	0.25	Win2	0.6429	0.0	Yes	2.777	0.023	n/a	GoodResponse	1	n/a	n/a	5	41	Cue	Win	True
392.274	3.9	Win2	0.6429	0.0	Yes	2.777	0.001	n/a	GoodResponse	1	n/a	n/a	5	41	Fixation	Win	True
396.169	0.37	Win2	0.6429	0.004	Yes	2.777	-0.004	4.0	GoodResponse	1	0.26	395.429	5	41	Target	Win	True
396.429	0.3	Win2	0.6429	0.004	Yes	2.777	-0.004	4.0	GoodResponse	1	0.26	n/a	5	41	ButtonPress	Win	True
396.553	0.33	Win2	0.6429	n/a	Yes	2.777	n/a	n/a	GoodResponse	1	n/a	n/a	5	41	Blank	Win	True
396.871	1.45	Win2	0.6429	n/a	Yes	2.777	n/a	5.0	GoodResponse	1	0.027	395.898	5	41	Feedback	Win	True
398.325	2.777	Win2	0.6429	n/a	Yes	2.777	n/a	n/a	GoodResponse	1	0.0	n/a	5	41	ISIslide	Win	True
401.117	0.25	Control	0.6512	0.0	Yes	2.933	0.017	n/a	GoodResponse	0	n/a	n/a	5	42	Cue	Neutral	True
401.368	3.85	Control	0.6512	0.0	Yes	2.933	0.001	n/a	GoodResponse	0	n/a	n/a	5	42	Fixation	Neutral	True
405.213	0.38	Control	0.6512	0.004	Yes	2.933	-0.004	4.0	GoodResponse	0	0.287	404.5	5	42	Target	Neutral	True
405.5	0.3	Control	0.6512	0.004	Yes	2.933	-0.004	4.0	GoodResponse	0	0.287	n/a	5	42	ButtonPress	Neutral	True
405.597	0.32	Control	0.6512	n/a	Yes	2.933	n/a	n/a	GoodResponse	0	n/a	n/a	5	42	Blank	Neutral	True
405.915	1.45	Control	0.6512	n/a	Yes	2.933	n/a	5.0	GoodResponse	0	0.008	404.923	5	42	Feedback	Neutral	True
407.369	2.933	Control	0.6512	n/a	Yes	2.933	n/a	n/a	GoodResponse	0	0.0	n/a	5	42	ISIslide	Neutral	True
410.328	0.25	Win2	0.6591	0.0	Yes	3.172	0.028	n/a	GoodResponse	1	n/a	n/a	6	43	Cue	Win	True
410.579	4.0	Win2	0.6591	0.0	Yes	3.172	0.001	n/a	GoodResponse	1	n/a	n/a	6	43	Fixation	Win	True
414.574	0.39	Win2	0.6591	0.004	Yes	3.172	-0.004	4.0	GoodResponse	1	0.249	413.823	6	43	Target	Win	True
414.823	0.3	Win2	0.6591	0.004	Yes	3.172	-0.004	4.0	GoodResponse	1	0.249	n/a	6	43	ButtonPress	Win	True
414.975	0.31	Win2	0.6591	n/a	Yes	3.172	n/a	n/a	GoodResponse	1	n/a	n/a	6	43	Blank	Win	True
415.276	1.45	Win2	0.6591	n/a	Yes	3.172	n/a	5.0	GoodResponse	1	0.013	414.289	6	43	Feedback	Win	True
416.73	3.172	Win2	0.6591	n/a	Yes	3.172	n/a	n/a	GoodResponse	1	0.0	n/a	6	43	ISIslide	Win	True
419.923	0.25	Win2	0.6667000000000001	0.0	Yes	2.977	0.023	n/a	GoodResponse	1	n/a	n/a	7	44	Cue	Win	True
420.174	4.0	Win2	0.6667000000000001	0.0	Yes	2.977	0.001	n/a	GoodResponse	1	n/a	n/a	7	44	Fixation	Win	True
424.169	0.39	Win2	0.6667000000000001	0.004	Yes	2.977	-0.004	4.0	GoodResponse	1	0.251	423.42	7	44	Target	Win	True
424.42	0.3	Win2	0.6667000000000001	0.004	Yes	2.977	-0.004	4.0	GoodResponse	1	0.251	n/a	7	44	ButtonPress	Win	True
424.571	0.31	Win2	0.6667000000000001	n/a	Yes	2.977	n/a	n/a	GoodResponse	1	n/a	n/a	7	44	Blank	Win	True
424.871	1.45	Win2	0.6667000000000001	n/a	Yes	2.977	n/a	5.0	GoodResponse	1	0.027	423.898	7	44	Feedback	Win	True
426.326	2.977	Win2	0.6667000000000001	n/a	Yes	2.977	n/a	n/a	GoodResponse	1	0.0	n/a	7	44	ISIslide	Win	True
429.318	0.25	Control	0.6739	0.0	Yes	2.882	0.018	n/a	GoodResponse	0	n/a	n/a	7	45	Cue	Neutral	True
429.569	4.1	Control	0.6739	0.0	Yes	2.882	0.001	n/a	GoodResponse	0	n/a	n/a	7	45	Fixation	Neutral	True
433.664	0.38	Control	0.6739	0.004	Yes	2.882	-0.004	4.0	GoodResponse	0	0.282	432.946	7	45	Target	Neutral	True
433.946	0.3	Control	0.6739	0.004	Yes	2.882	-0.004	4.0	GoodResponse	0	0.282	n/a	7	45	ButtonPress	Neutral	True
434.049	0.32	Control	0.6739	n/a	Yes	2.882	n/a	n/a	GoodResponse	0	n/a	n/a	7	45	Blank	Neutral	True
434.367	1.45	Control	0.6739	n/a	Yes	2.882	n/a	5.0	GoodResponse	0	0.044	433.411	7	45	Feedback	Neutral	True
435.821	2.882	Control	0.6739	n/a	Yes	2.882	n/a	n/a	GoodResponse	0	0.0	n/a	7	45	ISIslide	Neutral	True
438.73	0.25	Lose2	0.6809000000000001	0.0	Yes	3.37	0.03	n/a	GoodResponse	0	n/a	n/a	7	46	Cue	AvoidedLoss	True
438.98	4.0	Lose2	0.6809000000000001	0.0	Yes	3.37	0.0	n/a	GoodResponse	0	n/a	n/a	7	46	Fixation	AvoidedLoss	True
442.976	0.37	Lose2	0.6809000000000001	0.004	Yes	3.37	-0.004	4.0	GoodResponse	0	0.244	442.22	7	46	Target	AvoidedLoss	True
443.22	0.3	Lose2	0.6809000000000001	0.004	Yes	3.37	-0.004	4.0	GoodResponse	0	0.244	n/a	7	46	ButtonPress	AvoidedLoss	True
443.36	0.33	Lose2	0.6809000000000001	n/a	Yes	3.37	n/a	n/a	GoodResponse	0	n/a	n/a	7	46	Blank	AvoidedLoss	True
443.678	1.45	Lose2	0.6809000000000001	n/a	Yes	3.37	n/a	5.0	GoodResponse	0	0.0	442.678	7	46	Feedback	AvoidedLoss	True
445.132	3.37	Lose2	0.6809000000000001	n/a	Yes	3.37	n/a	n/a	GoodResponse	0	0.0	n/a	7	46	ISIslide	AvoidedLoss	True
448.526	0.25	Lose2	0.6875	0.0	Yes	2.674	0.026	n/a	GoodResponse	0	n/a	n/a	7	47	Cue	AvoidedLoss	True
448.776	4.0	Lose2	0.6875	0.0	Yes	2.674	0.0	n/a	GoodResponse	0	n/a	n/a	7	47	Fixation	AvoidedLoss	True
452.772	0.36	Lose2	0.6875	0.004	Yes	2.674	-0.004	4.0	GoodResponse	0	0.256	452.028	7	47	Target	AvoidedLoss	True
453.028	0.3	Lose2	0.6875	0.004	Yes	2.674	-0.004	4.0	GoodResponse	0	0.256	n/a	7	47	ButtonPress	AvoidedLoss	True
453.139	0.34	Lose2	0.6875	n/a	Yes	2.674	n/a	n/a	GoodResponse	0	n/a	n/a	7	47	Blank	AvoidedLoss	True
453.474	1.45	Lose2	0.6875	n/a	Yes	2.674	n/a	5.0	GoodResponse	0	0.009	452.483	7	47	Feedback	AvoidedLoss	True
454.928	2.674	Lose2	0.6875	n/a	Yes	2.674	n/a	n/a	GoodResponse	0	0.0	n/a	7	47	ISIslide	AvoidedLoss	True
457.62	0.25	Lose2	0.6939	0.0	Yes	3.03	0.02	n/a	GoodResponse	0	n/a	n/a	7	48	Cue	AvoidedLoss	True
457.87	3.95	Lose2	0.6939	0.0	Yes	3.03	0.0	n/a	GoodResponse	0	n/a	n/a	7	48	Fixation	AvoidedLoss	True
461.832	0.35	Lose2	0.6939	0.0	Yes	3.03	0.012	4.0	GoodResponse	0	0.301	461.133	7	48	Target	AvoidedLoss	True
462.133	0.3	Lose2	0.6939	0.0	Yes	3.03	0.012	4.0	GoodResponse	0	0.301	n/a	7	48	ButtonPress	AvoidedLoss	True
462.166	0.35	Lose2	0.6939	n/a	Yes	3.03	n/a	n/a	GoodResponse	0	n/a	n/a	7	48	Blank	AvoidedLoss	True
462.518	1.45	Lose2	0.6939	n/a	Yes	3.03	n/a	5.0	GoodResponse	0	0.038	461.556	7	48	Feedback	AvoidedLoss	True
463.972	3.03	Lose2	0.6939	n/a	Yes	3.03	n/a	n/a	GoodResponse	0	0.0	n/a	7	48	ISIslide	AvoidedLoss	True
467.014	0.25	Control	0.7	0.0	Yes	2.886	0.014	n/a	GoodResponse	0	n/a	n/a	7	49	Cue	Neutral	True
467.265	4.0	Control	0.7	0.0	Yes	2.886	0.001	n/a	GoodResponse	0	n/a	n/a	7	49	Fixation	Neutral	True
471.26	0.34	Control	0.7	0.004	Yes	2.886	-0.004	4.0	GoodResponse	0	0.277	470.537	7	49	Target	Neutral	True
471.537	0.3	Control	0.7	0.004	Yes	2.886	-0.004	4.0	GoodResponse	0	0.277	n/a	7	49	ButtonPress	Neutral	True
471.611	0.36	Control	0.7	n/a	Yes	2.886	n/a	n/a	GoodResponse	0	n/a	n/a	7	49	Blank	Neutral	True
471.962	1.45	Control	0.7	n/a	Yes	2.886	n/a	5.0	GoodResponse	0	0.009	470.971	7	49	Feedback	Neutral	True
473.417	2.886	Control	0.7	n/a	Yes	2.886	n/a	n/a	GoodResponse	0	0.0	n/a	7	49	ISIslide	Neutral	True
476.326	0.25	Control	0.7059000000000001	0.0	Yes	2.774	0.026	n/a	GoodResponse	0	n/a	n/a	7	50	Cue	Neutral	True
476.576	4.0	Control	0.7059000000000001	0.0	Yes	2.774	0.0	n/a	GoodResponse	0	n/a	n/a	7	50	Fixation	Neutral	True
480.572	0.33	Control	0.7059000000000001	0.004	Yes	2.774	-0.004	4.0	GoodResponse	0	0.315	479.887	7	50	Target	Neutral	True
480.887	0.3	Control	0.7059000000000001	0.004	Yes	2.774	-0.004	4.0	GoodResponse	0	0.315	n/a	7	50	ButtonPress	Neutral	True
480.906	0.37	Control	0.7059000000000001	n/a	Yes	2.774	n/a	n/a	GoodResponse	0	n/a	n/a	7	50	Blank	Neutral	True
481.274	1.45	Control	0.7059000000000001	n/a	Yes	2.774	n/a	5.0	GoodResponse	0	0.014	480.288	7	50	Feedback	Neutral	True
482.728	2.774	Control	0.7059000000000001	n/a	Yes	2.774	n/a	n/a	GoodResponse	0	0.0	n/a	7	50	ISIslide	Neutral	True
485.52	0.25	Control	0.7115	0.0	Yes	2.73	0.02	n/a	GoodResponse	0	n/a	n/a	7	51	Cue	Neutral	True
485.77	3.95	Control	0.7115	0.001	Yes	2.73	0.0	n/a	GoodResponse	0	n/a	n/a	7	51	Fixation	Neutral	True
489.716	0.32	Control	0.7115	0.004	Yes	2.73	-0.004	4.0	GoodResponse	0	0.238	488.954	7	51	Target	Neutral	True
489.954	0.3	Control	0.7115	0.004	Yes	2.73	-0.004	4.0	GoodResponse	0	0.238	n/a	7	51	ButtonPress	Neutral	True
490.05	0.38	Control	0.7115	n/a	Yes	2.73	n/a	n/a	GoodResponse	0	n/a	n/a	7	51	Blank	Neutral	True
490.418	1.45	Control	0.7115	n/a	Yes	2.73	n/a	5.0	GoodResponse	0	0.041	489.459	7	51	Feedback	Neutral	True
491.872	2.73	Control	0.7115	n/a	Yes	2.73	n/a	n/a	GoodResponse	0	0.0	n/a	7	51	ISIslide	Neutral	True
494.63	0.25	Control	0.7170000000000001	0.0	Yes	2.62	0.03	n/a	GoodResponse	0	n/a	n/a	7	52	Cue	Neutral	True
494.881	4.05	Control	0.7170000000000001	0.0	Yes	2.62	0.001	n/a	GoodResponse	0	n/a	n/a	7	52	Fixation	Neutral	True
498.926	0.31	Control	0.7170000000000001	0.004	Yes	2.62	-0.004	4.0	GoodResponse	0	0.269	498.195	7	52	Target	Neutral	True
499.195	0.3	Control	0.7170000000000001	0.004	Yes	2.62	-0.004	4.0	GoodResponse	0	0.269	n/a	7	52	ButtonPress	Neutral	True
499.244	0.39	Control	0.7170000000000001	n/a	Yes	2.62	n/a	n/a	GoodResponse	0	n/a	n/a	7	52	Blank	Neutral	True
499.629	1.45	Control	0.7170000000000001	n/a	Yes	2.62	n/a	5.0	GoodResponse	0	0.0	498.629	7	52	Feedback	Neutral	True
501.083	2.62	Control	0.7170000000000001	n/a	Yes	2.62	n/a	n/a	GoodResponse	0	0.0	n/a	7	52	ISIslide	Neutral	True
503.724	0.25	Win2	0.7222	0.0	Yes	2.926	0.024	n/a	GoodResponse	1	n/a	n/a	8	53	Cue	Win	True
503.975	4.05	Win2	0.7222	0.0	Yes	2.926	0.001	n/a	GoodResponse	1	n/a	n/a	8	53	Fixation	Win	True
508.02	0.3	Win2	0.7222	0.004	Yes	2.926	-0.004	4.0	GoodResponse	1	0.223	507.243	8	53	Target	Win	True
508.243	0.3	Win2	0.7222	0.004	Yes	2.926	-0.004	4.0	GoodResponse	1	0.223	n/a	8	53	ButtonPress	Win	True
508.321	0.4	Win2	0.7222	n/a	Yes	2.926	n/a	n/a	GoodResponse	1	n/a	n/a	8	53	Blank	Win	True
508.722	1.45	Win2	0.7222	n/a	Yes	2.926	n/a	5.0	GoodResponse	1	0.029	507.751	8	53	Feedback	Win	True
510.177	2.926	Win2	0.7222	n/a	Yes	2.926	n/a	n/a	GoodResponse	1	0.0	n/a	8	53	ISIslide	Win	True
513.119	0.25	Win2	0.7273000000000001	0.0	Yes	2.731	0.019	n/a	GoodResponse	1	n/a	n/a	9	54	Cue	Win	True
513.37	3.95	Win2	0.7273000000000001	0.0	Yes	2.731	0.001	n/a	GoodResponse	1	n/a	n/a	9	54	Fixation	Win	True
517.315	0.29	Win2	0.7273000000000001	0.004	Yes	2.731	-0.004	4.0	GoodResponse	1	0.245	516.56	9	54	Target	Win	True
517.56	0.3	Win2	0.7273000000000001	0.004	Yes	2.731	-0.004	4.0	GoodResponse	1	0.245	n/a	9	54	ButtonPress	Win	True
517.616	0.41	Win2	0.7273000000000001	n/a	Yes	2.731	n/a	n/a	GoodResponse	1	n/a	n/a	9	54	Blank	Win	True
518.017	1.45	Win2	0.7273000000000001	n/a	Yes	2.731	n/a	5.0	GoodResponse	1	0.002	517.019	9	54	Feedback	Win	True
519.471	2.731	Win2	0.7273000000000001	n/a	Yes	2.731	n/a	n/a	GoodResponse	1	0.0	n/a	9	54	ISIslide	Win	True
522.23	0.25	Control	0.7143	0.0	No	3.02	0.03	n/a	NoResponse	0	n/a	n/a	9	55	Cue	Neutral	True
522.48	3.95	Control	0.7143	0.0	No	3.02	0.0	n/a	NoResponse	0	n/a	n/a	9	55	Fixation	Neutral	True
526.442	0.28	Control	0.7143	0.0	No	3.02	0.012	4.0	NoResponse	0	0.307	525.749	9	55	Target	Neutral	True
526.71	0.42	Control	0.7143	n/a	No	3.02	n/a	n/a	NoResponse	0	n/a	n/a	9	55	Blank	Neutral	True
526.749	0.3	Control	0.7143	0.0	No	3.02	0.012	4.0	NoResponse	0	0.307	n/a	9	55	ButtonPress	Neutral	True
527.128	1.45	Control	0.7143	n/a	No	3.02	n/a	5.0	NoResponse	0	0.013	526.141	9	55	Feedback	Neutral	True
528.582	3.02	Control	0.7143	n/a	No	3.02	n/a	n/a	NoResponse	0	0.0	n/a	9	55	ISIslide	Neutral	True
531.624	0.25	Control	0.7018000000000001	0.0	No	2.826	0.024	n/a	NoResponse	0	n/a	n/a	9	56	Cue	Neutral	True
531.875	3.95	Control	0.7018000000000001	0.0	No	2.826	0.001	n/a	NoResponse	0	n/a	n/a	9	56	Fixation	Neutral	True
535.82	0.27	Control	0.7018000000000001	0.004	No	2.826	-0.004	4.0	NoResponse	0	0.362	535.182	9	56	Target	Neutral	True
536.104	0.43	Control	0.7018000000000001	n/a	No	2.826	n/a	n/a	NoResponse	0	n/a	n/a	9	56	Blank	Neutral	True
536.182	0.3	Control	0.7018000000000001	0.004	No	2.826	-0.004	4.0	NoResponse	0	0.362	n/a	9	56	ButtonPress	Neutral	True
536.522	1.45	Control	0.7018000000000001	n/a	No	2.826	n/a	5.0	NoResponse	0	0.034	535.556	9	56	Feedback	Neutral	True
537.977	2.826	Control	0.7018000000000001	n/a	No	2.826	n/a	n/a	NoResponse	0	0.0	n/a	9	56	ISIslide	Neutral	True
540.819	0.25	Control	0.6897	0.0	No	3.481	0.019	n/a	NoResponse	0	n/a	n/a	9	57	Cue	Neutral	True
541.069	4.0	Control	0.6897	0.0	No	3.481	0.0	n/a	NoResponse	0	n/a	n/a	9	57	Fixation	Neutral	True
545.065	0.26	Control	0.6897	0.004	No	3.481	-0.004	4.0	NoResponse	0	0.346	544.411	9	57	Target	Neutral	True
545.332	0.44	Control	0.6897	n/a	No	3.481	n/a	n/a	NoResponse	0	n/a	n/a	9	57	Blank	Neutral	True
545.411	0.3	Control	0.6897	0.004	No	3.481	-0.004	4.0	NoResponse	0	0.346	n/a	9	57	ButtonPress	Neutral	True
545.767	1.45	Control	0.6897	n/a	No	3.481	n/a	5.0	NoResponse	0	0.008	544.775	9	57	Feedback	Neutral	True
547.221	3.481	Control	0.6897	n/a	No	3.481	n/a	n/a	NoResponse	0	0.0	n/a	9	57	ISIslide	Neutral	True
550.715	0.25	Win2	0.6949	0.0	Yes	2.735	0.015	n/a	GoodResponse	1	n/a	n/a	10	58	Cue	Win	True
550.966	4.05	Win2	0.6949	0.0	Yes	2.735	0.001	n/a	GoodResponse	1	n/a	n/a	10	58	Fixation	Win	True
555.011	0.25	Win2	0.6949	0.004	Yes	2.735	-0.004	4.0	GoodResponse	1	0.217	554.228	10	58	Target	Win	True
555.228	0.3	Win2	0.6949	0.004	Yes	2.735	-0.004	4.0	GoodResponse	1	0.217	n/a	10	58	ButtonPress	Win	True
555.262	0.45	Win2	0.6949	n/a	Yes	2.735	n/a	n/a	GoodResponse	1	n/a	n/a	10	58	Blank	Win	True
555.713	1.45	Win2	0.6949	n/a	Yes	2.735	n/a	5.0	GoodResponse	1	0.013	554.726	10	58	Feedback	Win	True
557.167	2.735	Win2	0.6949	n/a	Yes	2.735	n/a	n/a	GoodResponse	1	0.0	n/a	10	58	ISIslide	Win	True
559.926	0.25	Lose2	0.7	0.0	Yes	2.674	0.026	n/a	GoodResponse	0	n/a	n/a	10	59	Cue	AvoidedLoss	True
560.177	4.0	Lose2	0.7	0.0	Yes	2.674	0.001	n/a	GoodResponse	0	n/a	n/a	10	59	Fixation	AvoidedLoss	True
564.172	0.24	Lose2	0.7	0.004	Yes	2.674	-0.004	4.0	GoodResponse	0	0.234	563.406	10	59	Target	AvoidedLoss	True
564.406	0.3	Lose2	0.7	0.004	Yes	2.674	-0.004	4.0	GoodResponse	0	0.234	n/a	10	59	ButtonPress	AvoidedLoss	True
564.423	0.46	Lose2	0.7	n/a	Yes	2.674	n/a	n/a	GoodResponse	0	n/a	n/a	10	59	Blank	AvoidedLoss	True
564.874	1.45	Lose2	0.7	n/a	Yes	2.674	n/a	5.0	GoodResponse	0	0.023	563.897	10	59	Feedback	AvoidedLoss	True
566.328	2.674	Lose2	0.7	n/a	Yes	2.674	n/a	n/a	GoodResponse	0	0.0	n/a	10	59	ISIslide	AvoidedLoss	True
569.02	0.25	Control	0.6884999999999999	0.0	No	2.68	0.02	n/a	NoResponse	0	n/a	n/a	10	60	Cue	Neutral	True
569.27	4.0	Control	0.6884999999999999	0.0	No	2.68	0.0	n/a	NoResponse	0	n/a	n/a	10	60	Fixation	Neutral	True
573.266	0.23	Control	0.6884999999999999	0.004	No	2.68	-0.004	4.0	NoResponse	0	0.359	572.625	10	60	Target	Neutral	True
573.5	0.47	Control	0.6884999999999999	n/a	No	2.68	n/a	n/a	NoResponse	0	n/a	n/a	10	60	Blank	Neutral	True
573.625	0.3	Control	0.6884999999999999	0.004	No	2.68	-0.004	4.0	NoResponse	0	0.359	n/a	10	60	ButtonPress	Neutral	True
573.968	1.45	Control	0.6884999999999999	n/a	No	2.68	n/a	5.0	NoResponse	0	0.002	572.97	10	60	Feedback	Neutral	True
575.422	2.68	Control	0.6884999999999999	n/a	No	2.68	n/a	n/a	NoResponse	0	0.0	n/a	10	60	ISIslide	Neutral	True
578.13	0.25	Lose2	0.6774	0.0	No	2.97	0.03	n/a	NoResponse	-1	n/a	n/a	9	61	Cue	Loss	True
578.381	4.0	Lose2	0.6774	0.0	No	2.97	0.001	n/a	NoResponse	-1	n/a	n/a	9	61	Fixation	Loss	True
582.376	0.22	Lose2	0.6774	0.004	No	2.97	-0.004	4.0	NoResponse	-1	0.246	581.622	9	61	Target	Loss	True
582.61	0.48	Lose2	0.6774	n/a	No	2.97	n/a	n/a	NoResponse	-1	n/a	n/a	9	61	Blank	Loss	True
582.622	0.3	Lose2	0.6774	0.004	No	2.97	-0.004	4.0	NoResponse	-1	0.246	n/a	9	61	ButtonPress	Loss	True
583.078	1.45	Lose2	0.6774	n/a	No	2.97	n/a	5.0	NoResponse	-1	0.014	582.092	9	61	Feedback	Loss	True
584.533	2.97	Lose2	0.6774	n/a	No	2.97	n/a	n/a	NoResponse	-1	0.0	n/a	9	61	ISIslide	Loss	True
587.525	0.25	Lose2	0.6667000000000001	0.0	No	2.875	0.025	n/a	NoResponse	-1	n/a	n/a	8	62	Cue	Loss	True
587.776	3.9	Lose2	0.6667000000000001	0.0	No	2.875	0.001	n/a	NoResponse	-1	n/a	n/a	8	62	Fixation	Loss	True
591.671	0.21	Lose2	0.6667000000000001	0.004	No	2.875	-0.004	4.0	NoResponse	-1	0.225	590.896	8	62	Target	Loss	True
591.888	0.49	Lose2	0.6667000000000001	n/a	No	2.875	n/a	n/a	NoResponse	-1	n/a	n/a	8	62	Blank	Loss	True
591.896	0.3	Lose2	0.6667000000000001	0.004	No	2.875	-0.004	4.0	NoResponse	-1	0.225	n/a	8	62	ButtonPress	Loss	True
592.373	1.45	Lose2	0.6667000000000001	n/a	No	2.875	n/a	5.0	NoResponse	-1	0.036	591.409	8	62	Feedback	Loss	True
593.827	2.875	Lose2	0.6667000000000001	n/a	No	2.875	n/a	n/a	NoResponse	-1	0.0	n/a	8	62	ISIslide	Loss	True
596.719	0.25	Lose2	0.6562	0.0	No	2.631	0.019	n/a	NoResponse	-1	n/a	n/a	7	63	Cue	Loss	True
596.97	4.05	Lose2	0.6562	0.0	No	2.631	0.001	n/a	NoResponse	-1	n/a	n/a	7	63	Fixation	Loss	True
601.015	0.2	Lose2	0.6562	0.004	No	2.631	-0.004	4.0	NoResponse	-1	0.233	600.248	7	63	Target	Loss	True
601.216	0.5	Lose2	0.6562	n/a	No	2.631	n/a	n/a	NoResponse	-1	n/a	n/a	7	63	Blank	Loss	True
601.248	0.3	Lose2	0.6562	0.004	No	2.631	-0.004	4.0	NoResponse	-1	0.233	n/a	7	63	ButtonPress	Loss	True
601.718	1.45	Lose2	0.6562	n/a	No	2.631	n/a	5.0	NoResponse	-1	0.008	600.726	7	63	Feedback	Loss	True
603.172	2.631	Lose2	0.6562	n/a	No	2.631	n/a	n/a	NoResponse	-1	0.0	n/a	7	63	ISIslide	Loss	True
605.83	0.25	Win2	0.6462	0.0	No	3.12	0.03	n/a	NoResponse	0	n/a	n/a	7	64	Cue	MissedWin	True
606.081	4.15	Win2	0.6462	0.0	No	3.12	0.001	n/a	NoResponse	0	n/a	n/a	7	64	Fixation	MissedWin	True
610.226	0.2	Win2	0.6462	0.004	No	3.12	-0.004	4.0	NoResponse	0	0.244	609.47	7	64	Target	MissedWin	True
610.427	0.5	Win2	0.6462	n/a	No	3.12	n/a	n/a	NoResponse	0	n/a	n/a	7	64	Blank	MissedWin	True
610.47	0.3	Win2	0.6462	0.004	No	3.12	-0.004	4.0	NoResponse	0	0.244	n/a	7	64	ButtonPress	MissedWin	True
610.928	1.45	Win2	0.6462	n/a	No	3.12	n/a	5.0	NoResponse	0	0.017	609.945	7	64	Feedback	MissedWin	True
612.383	3.12	Win2	0.6462	n/a	No	3.12	n/a	n/a	NoResponse	0	0.0	n/a	7	64	ISIslide	MissedWin	True
615.526	0.25	Control	0.6364	0.0	No	2.774	0.026	n/a	NoResponse	0	n/a	n/a	7	65	Cue	Neutral	True
615.776	4.0	Control	0.6364	0.0	No	2.774	0.0	n/a	NoResponse	0	n/a	n/a	7	65	Fixation	Neutral	True
619.772	0.21	Control	0.6364	0.004	No	2.774	-0.004	4.0	NoResponse	0	0.258	619.03	7	65	Target	Neutral	True
619.989	0.49	Control	0.6364	n/a	No	2.774	n/a	n/a	NoResponse	0	n/a	n/a	7	65	Blank	Neutral	True
620.03	0.3	Control	0.6364	0.004	No	2.774	-0.004	4.0	NoResponse	0	0.258	n/a	7	65	ButtonPress	Neutral	True
620.474	1.45	Control	0.6364	n/a	No	2.774	n/a	5.0	NoResponse	0	0.032	619.506	7	65	Feedback	Neutral	True
621.928	2.774	Control	0.6364	n/a	No	2.774	n/a	n/a	NoResponse	0	0.0	n/a	7	65	ISIslide	Neutral	True
624.72	0.25	Win2	0.6269	0.0	No	2.78	0.02	n/a	NoResponse	0	n/a	n/a	7	66	Cue	MissedWin	True
624.97	3.9	Win2	0.6269	0.001	No	2.78	0.0	n/a	NoResponse	0	n/a	n/a	7	66	Fixation	MissedWin	True
628.882	0.22	Win2	0.6269	0.0	No	2.78	0.012	4.0	NoResponse	0	0.319	628.201	7	66	Target	MissedWin	True
629.099	0.48	Win2	0.6269	n/a	No	2.78	n/a	n/a	NoResponse	0	n/a	n/a	7	66	Blank	MissedWin	True
629.201	0.3	Win2	0.6269	0.0	No	2.78	0.012	4.0	NoResponse	0	0.319	n/a	7	66	ButtonPress	MissedWin	True
629.568	1.45	Win2	0.6269	n/a	No	2.78	n/a	5.0	NoResponse	0	0.012	628.58	7	66	Feedback	MissedWin	True
631.022	2.78	Win2	0.6269	n/a	No	2.78	n/a	n/a	NoResponse	0	0.0	n/a	7	66	ISIslide	MissedWin	True
633.83	0.25	Control	0.6175999999999999	0.0	No	2.72	0.03	n/a	NoResponse	0	n/a	n/a	7	67	Cue	Neutral	True
634.081	3.95	Control	0.6175999999999999	0.0	No	2.72	0.001	n/a	NoResponse	0	n/a	n/a	7	67	Fixation	Neutral	True
638.026	0.23	Control	0.6175999999999999	0.004	No	2.72	-0.004	4.0	NoResponse	0	0.316	637.342	7	67	Target	Neutral	True
638.26	0.47	Control	0.6175999999999999	n/a	No	2.72	n/a	n/a	NoResponse	0	n/a	n/a	7	67	Blank	Neutral	True
638.342	0.3	Control	0.6175999999999999	0.004	No	2.72	-0.004	4.0	NoResponse	0	0.316	n/a	7	67	ButtonPress	Neutral	True
638.728	1.45	Control	0.6175999999999999	n/a	No	2.72	n/a	5.0	NoResponse	0	0.022	637.75	7	67	Feedback	Neutral	True
640.183	2.72	Control	0.6175999999999999	n/a	No	2.72	n/a	n/a	NoResponse	0	0.0	n/a	7	67	ISIslide	Neutral	True
642.924	0.25	Win2	0.6232	0.0	Yes	3.076	0.024	n/a	GoodResponse	1	n/a	n/a	8	68	Cue	Win	True
643.175	4.0	Win2	0.6232	0.0	Yes	3.076	0.001	n/a	GoodResponse	1	n/a	n/a	8	68	Fixation	Win	True
647.17	0.24	Win2	0.6232	0.004	Yes	3.076	-0.004	4.0	GoodResponse	1	0.215	646.385	8	68	Target	Win	True
647.385	0.3	Win2	0.6232	0.004	Yes	3.076	-0.004	4.0	GoodResponse	1	0.215	n/a	8	68	ButtonPress	Win	True
647.421	0.46	Win2	0.6232	n/a	Yes	3.076	n/a	n/a	GoodResponse	1	n/a	n/a	8	68	Blank	Win	True
647.872	1.45	Win2	0.6232	n/a	Yes	3.076	n/a	5.0	GoodResponse	1	0.048	646.92	8	68	Feedback	Win	True
649.327	3.076	Win2	0.6232	n/a	Yes	3.076	n/a	n/a	GoodResponse	1	0.0	n/a	8	68	ISIslide	Win	True
652.419	0.25	Win2	0.6143	0.0	No	3.231	0.019	n/a	NoResponse	0	n/a	n/a	8	69	Cue	MissedWin	True
652.67	3.95	Win2	0.6143	0.0	No	3.231	0.001	n/a	NoResponse	0	n/a	n/a	8	69	Fixation	MissedWin	True
656.615	0.25	Win2	0.6143	0.004	No	3.231	-0.004	4.0	NoResponse	0	0.262	655.877	8	69	Target	MissedWin	True
656.866	0.45	Win2	0.6143	n/a	No	3.231	n/a	n/a	NoResponse	0	n/a	n/a	8	69	Blank	MissedWin	True
656.877	0.3	Win2	0.6143	0.004	No	3.231	-0.004	4.0	NoResponse	0	0.262	n/a	8	69	ButtonPress	MissedWin	True
657.317	1.45	Win2	0.6143	n/a	No	3.231	n/a	5.0	NoResponse	0	0.018	656.335	8	69	Feedback	MissedWin	True
658.772	3.231	Win2	0.6143	n/a	No	3.231	n/a	n/a	NoResponse	0	0.0	n/a	8	69	ISIslide	MissedWin	True
662.031	0.25	Lose2	0.6197	0.0	Yes	3.019	0.031	n/a	GoodResponse	0	n/a	n/a	8	70	Cue	AvoidedLoss	True
662.282	4.05	Lose2	0.6197	0.0	Yes	3.019	0.001	n/a	GoodResponse	0	n/a	n/a	8	70	Fixation	AvoidedLoss	True
666.328	0.26	Lose2	0.6197	0.003	Yes	3.019	-0.003	4.0	GoodResponse	0	0.229	665.557	8	70	Target	AvoidedLoss	True
666.557	0.3	Lose2	0.6197	0.003	Yes	3.019	-0.003	4.0	GoodResponse	0	0.229	n/a	8	70	ButtonPress	AvoidedLoss	True
666.595	0.44	Lose2	0.6197	n/a	Yes	3.019	n/a	n/a	GoodResponse	0	n/a	n/a	8	70	Blank	AvoidedLoss	True
667.03	1.45	Lose2	0.6197	n/a	Yes	3.019	n/a	5.0	GoodResponse	0	0.012	666.042	8	70	Feedback	AvoidedLoss	True
668.484	3.019	Lose2	0.6197	n/a	Yes	3.019	n/a	n/a	GoodResponse	0	0.0	n/a	8	70	ISIslide	AvoidedLoss	True
671.526	0.25	Win2	0.625	0.001	Yes	2.724	0.026	n/a	GoodResponse	1	n/a	n/a	9	71	Cue	Win	True
671.777	4.05	Win2	0.625	0.0	Yes	2.724	0.001	n/a	GoodResponse	1	n/a	n/a	9	71	Fixation	Win	True
675.823	0.27	Win2	0.625	0.003	Yes	2.724	-0.003	4.0	GoodResponse	1	0.193	675.016	9	71	Target	Win	True
676.016	0.3	Win2	0.625	0.003	Yes	2.724	-0.003	4.0	GoodResponse	1	0.193	n/a	9	71	ButtonPress	Win	True
676.107	0.43	Win2	0.625	n/a	Yes	2.724	n/a	n/a	GoodResponse	1	n/a	n/a	9	71	Blank	Win	True
676.525	1.45	Win2	0.625	n/a	Yes	2.724	n/a	5.0	GoodResponse	1	0.03	675.555	9	71	Feedback	Win	True
677.979	2.724	Win2	0.625	n/a	Yes	2.724	n/a	n/a	GoodResponse	1	0.0	n/a	9	71	ISIslide	Win	True
680.721	0.25	Win2	0.6301	0.0	Yes	2.779	0.021	n/a	GoodResponse	1	n/a	n/a	10	72	Cue	Win	True
680.971	4.1	Win2	0.6301	0.0	Yes	2.779	0.0	n/a	GoodResponse	1	n/a	n/a	10	72	Fixation	Win	True
685.067	0.28	Win2	0.6301	0.004	Yes	2.779	-0.004	4.0	GoodResponse	1	0.23	684.297	10	72	Target	Win	True
685.297	0.3	Win2	0.6301	0.004	Yes	2.779	-0.004	4.0	GoodResponse	1	0.23	n/a	10	72	ButtonPress	Win	True
685.351	0.42	Win2	0.6301	n/a	Yes	2.779	n/a	n/a	GoodResponse	1	n/a	n/a	10	72	Blank	Win	True
685.769	1.45	Win2	0.6301	n/a	Yes	2.779	n/a	5.0	GoodResponse	1	0.007	684.776	10	72	Feedback	Win	True
687.223	2.779	Win2	0.6301	n/a	Yes	2.779	n/a	n/a	GoodResponse	1	0.0	n/a	10	72	ISIslide	Win	True
690.015	0.25	Win2	0.6351	0.0	Yes	2.685	0.015	n/a	GoodResponse	1	n/a	n/a	11	73	Cue	Win	True
690.266	4.0	Win2	0.6351	0.0	Yes	2.685	0.001	n/a	GoodResponse	1	n/a	n/a	11	73	Fixation	Win	True
694.261	0.29	Win2	0.6351	0.004	Yes	2.685	-0.004	4.0	GoodResponse	1	0.204	693.465	11	73	Target	Win	True
694.465	0.3	Win2	0.6351	0.004	Yes	2.685	-0.004	4.0	GoodResponse	1	0.204	n/a	11	73	ButtonPress	Win	True
694.562	0.41	Win2	0.6351	n/a	Yes	2.685	n/a	n/a	GoodResponse	1	n/a	n/a	11	73	Blank	Win	True
694.963	1.45	Win2	0.6351	n/a	Yes	2.685	n/a	5.0	GoodResponse	1	0.03	693.993	11	73	Feedback	Win	True
696.418	2.685	Win2	0.6351	n/a	Yes	2.685	n/a	n/a	GoodResponse	1	0.0	n/a	11	73	ISIslide	Win	True
699.126	0.25	Lose2	0.64	0.0	Yes	2.624	0.026	n/a	GoodResponse	0	n/a	n/a	11	74	Cue	AvoidedLoss	True
699.377	4.05	Lose2	0.64	0.0	Yes	2.624	0.001	n/a	GoodResponse	0	n/a	n/a	11	74	Fixation	AvoidedLoss	True
703.422	0.3	Lose2	0.64	0.004	Yes	2.624	-0.004	4.0	GoodResponse	0	0.226	702.648	11	74	Target	AvoidedLoss	True
703.648	0.3	Lose2	0.64	0.004	Yes	2.624	-0.004	4.0	GoodResponse	0	0.226	n/a	11	74	ButtonPress	AvoidedLoss	True
703.723	0.4	Lose2	0.64	n/a	Yes	2.624	n/a	n/a	GoodResponse	0	n/a	n/a	11	74	Blank	AvoidedLoss	True
704.124	1.45	Lose2	0.64	n/a	Yes	2.624	n/a	5.0	GoodResponse	0	0.04	703.164	11	74	Feedback	AvoidedLoss	True
705.578	2.624	Lose2	0.64	n/a	Yes	2.624	n/a	n/a	GoodResponse	0	0.0	n/a	11	74	ISIslide	AvoidedLoss	True
708.22	0.25	Lose2	0.6446999999999999	0.0	Yes	2.93	0.02	n/a	GoodResponse	0	n/a	n/a	11	75	Cue	AvoidedLoss	True
708.47	3.95	Lose2	0.6446999999999999	0.0	Yes	2.93	0.0	n/a	GoodResponse	0	n/a	n/a	11	75	Fixation	AvoidedLoss	True
712.416	0.31	Lose2	0.6446999999999999	0.004	Yes	2.93	-0.004	4.0	GoodResponse	0	0.229	711.645	11	75	Target	AvoidedLoss	True
712.645	0.3	Lose2	0.6446999999999999	0.004	Yes	2.93	-0.004	4.0	GoodResponse	0	0.229	n/a	11	75	ButtonPress	AvoidedLoss	True
712.733	0.39	Lose2	0.6446999999999999	n/a	Yes	2.93	n/a	n/a	GoodResponse	0	n/a	n/a	11	75	Blank	AvoidedLoss	True
713.118	1.45	Lose2	0.6446999999999999	n/a	Yes	2.93	n/a	5.0	GoodResponse	0	0.021	712.139	11	75	Feedback	AvoidedLoss	True
714.572	2.93	Lose2	0.6446999999999999	n/a	Yes	2.93	n/a	n/a	GoodResponse	0	0.0	n/a	11	75	ISIslide	AvoidedLoss	True
717.514	0.25	Control	0.6494	0.0	Yes	3.236	0.014	n/a	GoodResponse	0	n/a	n/a	11	76	Cue	Neutral	True
717.765	4.05	Control	0.6494	0.0	Yes	3.236	0.001	n/a	GoodResponse	0	n/a	n/a	11	76	Fixation	Neutral	True
721.81	0.32	Control	0.6494	0.004	Yes	3.236	-0.004	4.0	GoodResponse	0	0.278	721.088	11	76	Target	Neutral	True
722.088	0.3	Control	0.6494	0.004	Yes	3.236	-0.004	4.0	GoodResponse	0	0.278	n/a	11	76	ButtonPress	Neutral	True
722.145	0.38	Control	0.6494	n/a	Yes	3.236	n/a	n/a	GoodResponse	0	n/a	n/a	11	76	Blank	Neutral	True
722.512	1.45	Control	0.6494	n/a	Yes	3.236	n/a	5.0	GoodResponse	0	0.042	721.554	11	76	Feedback	Neutral	True
723.967	3.236	Control	0.6494	n/a	Yes	3.236	n/a	n/a	GoodResponse	0	0.0	n/a	11	76	ISIslide	Neutral	True
727.227	0.25	Lose2	0.6537999999999999	0.0	Yes	2.573	0.027	n/a	GoodResponse	0	n/a	n/a	11	77	Cue	AvoidedLoss	True
727.477	3.95	Lose2	0.6537999999999999	0.0	Yes	2.573	0.0	n/a	GoodResponse	0	n/a	n/a	11	77	Fixation	AvoidedLoss	True
731.439	0.33	Lose2	0.6537999999999999	0.0	Yes	2.573	0.012	4.0	GoodResponse	0	0.225	730.664	11	77	Target	AvoidedLoss	True
731.664	0.3	Lose2	0.6537999999999999	0.0	Yes	2.573	0.012	4.0	GoodResponse	0	0.225	n/a	11	77	ButtonPress	AvoidedLoss	True
731.757	0.37	Lose2	0.6537999999999999	n/a	Yes	2.573	n/a	n/a	GoodResponse	0	n/a	n/a	11	77	Blank	AvoidedLoss	True
732.125	1.45	Lose2	0.6537999999999999	n/a	Yes	2.573	n/a	5.0	GoodResponse	0	0.039	731.164	11	77	Feedback	AvoidedLoss	True
733.579	2.573	Lose2	0.6537999999999999	n/a	Yes	2.573	n/a	n/a	GoodResponse	0	0.0	n/a	11	77	ISIslide	AvoidedLoss	True
