onset	duration	cue_type	current_mean_accuracy	duration_error	is_hit	isi_adjusted	onset_delay	response	response_type	reward	rt	rt_time	total_reward	trial_number	trial_phase	trial_type	one_press
11.109	0.25	Control	1.0	0.0	Yes	2.941	0.009	n/a	GoodResponse	0	n/a	n/a	0	0	Cue	Neutral	True
11.36	3.85	Control	1.0	0.0	Yes	2.941	0.001	n/a	GoodResponse	0	n/a	n/a	0	0	Fixation	Neutral	True
15.221	0.4	Control	1.0	0.0	Yes	2.941	0.012	2.0	GoodResponse	0	0.28	14.501	0	0	Target	Neutral	True
15.501	0.3	Control	1.0	0.0	Yes	2.941	0.012	2.0	GoodResponse	0	0.28	n/a	0	0	ButtonPress	Neutral	True
15.606	0.3	Control	1.0	n/a	Yes	2.941	n/a	n/a	GoodResponse	0	n/a	n/a	0	0	Blank	Neutral	True
15.907	1.45	Control	1.0	n/a	Yes	2.941	n/a	5.0	GoodResponse	0	0.02	14.927	0	0	Feedback	Neutral	True
17.361	2.941	Control	1.0	n/a	Yes	2.941	n/a	n/a	GoodResponse	0	0.0	n/a	0	0	ISIslide	Neutral	True
20.32	0.25	Lose2	1.0	0.0	Yes	2.78	0.02	n/a	GoodResponse	0	n/a	n/a	0	1	Cue	AvoidedLoss	True
20.571	4.0	Lose2	1.0	0.0	Yes	2.78	0.001	n/a	GoodResponse	0	n/a	n/a	0	1	Fixation	AvoidedLoss	True
24.566	0.39	Lose2	1.0	0.004	Yes	2.78	-0.004	2.0	GoodResponse	0	0.262	23.828	0	1	Target	AvoidedLoss	True
24.828	0.3	Lose2	1.0	0.004	Yes	2.78	-0.004	2.0	GoodResponse	0	0.262	n/a	0	1	ButtonPress	AvoidedLoss	True
24.967	0.31	Lose2	1.0	n/a	Yes	2.78	n/a	n/a	GoodResponse	0	n/a	n/a	0	1	Blank	AvoidedLoss	True
25.268	1.45	Lose2	1.0	n/a	Yes	2.78	n/a	5.0	GoodResponse	0	0.024	24.292	0	1	Feedback	AvoidedLoss	True
26.722	2.78	Lose2	1.0	n/a	Yes	2.78	n/a	n/a	GoodResponse	0	0.0	n/a	0	1	ISIslide	AvoidedLoss	True
29.514	0.25	Control	1.0	0.0	Yes	2.586	0.014	n/a	GoodResponse	0	n/a	n/a	0	2	Cue	Neutral	True
29.765	4.1	Control	1.0	0.0	Yes	2.586	0.001	n/a	GoodResponse	0	n/a	n/a	0	2	Fixation	Neutral	True
33.86	0.38	Control	1.0	0.004	Yes	2.586	-0.004	2.0	GoodResponse	0	0.243	33.103	0	2	Target	Neutral	True
34.103	0.3	Control	1.0	0.004	Yes	2.586	-0.004	2.0	GoodResponse	0	0.243	n/a	0	2	ButtonPress	Neutral	True
34.245	0.32	Control	1.0	n/a	Yes	2.586	n/a	n/a	GoodResponse	0	n/a	n/a	0	2	Blank	Neutral	True
34.563	1.45	Control	1.0	n/a	Yes	2.586	n/a	5.0	GoodResponse	0	0.046	33.609	0	2	Feedback	Neutral	True
36.017	2.586	Control	1.0	n/a	Yes	2.586	n/a	n/a	GoodResponse	0	0.0	n/a	0	2	ISIslide	Neutral	True
38.625	0.25	Win2	1.0	0.0	Yes	2.825	0.025	n/a	GoodResponse	1	n/a	n/a	1	3	Cue	Win	True
38.875	3.95	Win2	1.0	0.001	Yes	2.825	0.0	n/a	GoodResponse	1	n/a	n/a	1	3	Fixation	Win	True
42.821	0.37	Win2	1.0	0.004	Yes	2.825	-0.004	2.0	GoodResponse	1	0.251	42.072	1	3	Target	Win	True
43.072	0.3	Win2	1.0	0.004	Yes	2.825	-0.004	2.0	GoodResponse	1	0.251	n/a	1	3	ButtonPress	Win	True
43.205	0.33	Win2	1.0	n/a	Yes	2.825	n/a	n/a	GoodResponse	1	n/a	n/a	1	3	Blank	Win	True
43.523	1.45	Win2	1.0	n/a	Yes	2.825	n/a	5.0	GoodResponse	1	0.013	42.536	1	3	Feedback	Win	True
44.977	2.825	Win2	1.0	n/a	Yes	2.825	n/a	n/a	GoodResponse	1	0.0	n/a	1	3	ISIslide	Win	True
47.819	0.25	Win2	1.0	0.0	Yes	3.281	0.019	n/a	GoodResponse	1	n/a	n/a	2	4	Cue	Win	True
48.07	4.0	Win2	1.0	0.0	Yes	3.281	0.001	n/a	GoodResponse	1	n/a	n/a	2	4	Fixation	Win	True
52.065	0.36	Win2	1.0	0.004	Yes	3.281	-0.004	2.0	GoodResponse	1	0.24	51.305	2	4	Target	Win	True
52.305	0.3	Win2	1.0	0.004	Yes	3.281	-0.004	2.0	GoodResponse	1	0.24	n/a	2	4	ButtonPress	Win	True
52.433	0.34	Win2	1.0	n/a	Yes	3.281	n/a	n/a	GoodResponse	1	n/a	n/a	2	4	Blank	Win	True
52.767	1.45	Win2	1.0	n/a	Yes	3.281	n/a	5.0	GoodResponse	1	0.037	51.804	2	4	Feedback	Win	True
54.221	3.281	Win2	1.0	n/a	Yes	3.281	n/a	n/a	GoodResponse	1	0.0	n/a	2	4	ISIslide	Win	True
57.531	0.25	Win2	1.0	0.0	Yes	2.769	0.031	n/a	GoodResponse	1	n/a	n/a	3	5	Cue	Win	True
57.782	4.0	Win2	1.0	0.0	Yes	2.769	0.001	n/a	GoodResponse	1	n/a	n/a	3	5	Fixation	Win	True
61.777	0.35	Win2	1.0	0.004	Yes	2.769	-0.004	2.0	GoodResponse	1	0.229	61.006	3	5	Target	Win	True
62.006	0.3	Win2	1.0	0.004	Yes	2.769	-0.004	2.0	GoodResponse	1	0.229	n/a	3	5	ButtonPress	Win	True
62.128	0.35	Win2	1.0	n/a	Yes	2.769	n/a	n/a	GoodResponse	1	n/a	n/a	3	5	Blank	Win	True
62.479	1.45	Win2	1.0	n/a	Yes	2.769	n/a	5.0	GoodResponse	1	0.033	61.512	3	5	Feedback	Win	True
63.934	2.769	Win2	1.0	n/a	Yes	2.769	n/a	n/a	GoodResponse	1	0.0	n/a	3	5	ISIslide	Win	True
66.726	0.25	Lose2	1.0	0.0	Yes	2.724	0.026	n/a	GoodResponse	0	n/a	n/a	3	6	Cue	AvoidedLoss	True
66.976	3.95	Lose2	1.0	0.0	Yes	2.724	0.0	n/a	GoodResponse	0	n/a	n/a	3	6	Fixation	AvoidedLoss	True
70.938	0.34	Lose2	1.0	0.0	Yes	2.724	0.012	2.0	GoodResponse	0	0.233	70.171	3	6	Target	AvoidedLoss	True
71.171	0.3	Lose2	1.0	0.0	Yes	2.724	0.012	2.0	GoodResponse	0	0.233	n/a	3	6	ButtonPress	AvoidedLoss	True
71.273	0.36	Lose2	1.0	n/a	Yes	2.724	n/a	n/a	GoodResponse	0	n/a	n/a	3	6	Blank	AvoidedLoss	True
71.624	1.45	Lose2	1.0	n/a	Yes	2.724	n/a	5.0	GoodResponse	0	0.01	70.634	3	6	Feedback	AvoidedLoss	True
73.078	2.724	Lose2	1.0	n/a	Yes	2.724	n/a	n/a	GoodResponse	0	0.0	n/a	3	6	ISIslide	AvoidedLoss	True
75.819	0.25	Lose2	1.0	0.001	Yes	4.031	0.019	n/a	GoodResponse	0	n/a	n/a	3	7	Cue	AvoidedLoss	True
76.07	4.05	Lose2	1.0	0.0	Yes	4.031	0.001	n/a	GoodResponse	0	n/a	n/a	3	7	Fixation	AvoidedLoss	True
80.116	0.33	Lose2	1.0	0.003	Yes	4.031	-0.003	2.0	GoodResponse	0	0.251	79.367	3	7	Target	AvoidedLoss	True
80.367	0.3	Lose2	1.0	0.003	Yes	4.031	-0.003	2.0	GoodResponse	0	0.251	n/a	3	7	ButtonPress	AvoidedLoss	True
80.45	0.37	Lose2	1.0	n/a	Yes	4.031	n/a	n/a	GoodResponse	0	n/a	n/a	3	7	Blank	AvoidedLoss	True
80.818	1.45	Lose2	1.0	n/a	Yes	4.031	n/a	5.0	GoodResponse	0	0.034	79.852	3	7	Feedback	AvoidedLoss	True
82.272	4.031	Lose2	1.0	n/a	Yes	4.031	n/a	n/a	GoodResponse	0	0.0	n/a	3	7	ISIslide	AvoidedLoss	True
86.318	0.25	Lose2	1.0	0.0	Yes	3.032	0.018	n/a	GoodResponse	0	n/a	n/a	3	8	Cue	AvoidedLoss	True
86.568	3.95	Lose2	1.0	0.0	Yes	3.032	0.0	n/a	GoodResponse	0	n/a	n/a	3	8	Fixation	AvoidedLoss	True
90.513	0.32	Lose2	1.0	0.005	Yes	3.032	-0.005	2.0	GoodResponse	0	0.262	89.775	3	8	Target	AvoidedLoss	True
90.775	0.3	Lose2	1.0	0.005	Yes	3.032	-0.005	2.0	GoodResponse	0	0.262	n/a	3	8	ButtonPress	AvoidedLoss	True
90.848	0.38	Lose2	1.0	n/a	Yes	3.032	n/a	n/a	GoodResponse	0	n/a	n/a	3	8	Blank	AvoidedLoss	True
91.216	1.45	Lose2	1.0	n/a	Yes	3.032	n/a	5.0	GoodResponse	0	0.027	90.243	3	8	Feedback	AvoidedLoss	True
92.67	3.032	Lose2	1.0	n/a	Yes	3.032	n/a	n/a	GoodResponse	0	0.0	n/a	3	8	ISIslide	AvoidedLoss	True
95.729	0.25	Lose2	1.0	0.0	Yes	3.121	0.029	n/a	GoodResponse	0	n/a	n/a	3	9	Cue	AvoidedLoss	True
95.98	3.95	Lose2	1.0	0.0	Yes	3.121	0.001	n/a	GoodResponse	0	n/a	n/a	3	9	Fixation	AvoidedLoss	True
99.925	0.31	Lose2	1.0	0.004	Yes	3.121	-0.004	2.0	GoodResponse	0	0.227	99.152	3	9	Target	AvoidedLoss	True
100.152	0.3	Lose2	1.0	0.004	Yes	3.121	-0.004	2.0	GoodResponse	0	0.227	n/a	3	9	ButtonPress	AvoidedLoss	True
100.243	0.39	Lose2	1.0	n/a	Yes	3.121	n/a	n/a	GoodResponse	0	n/a	n/a	3	9	Blank	AvoidedLoss	True
100.627	1.45	Lose2	1.0	n/a	Yes	3.121	n/a	5.0	GoodResponse	0	0.03	99.657	3	9	Feedback	AvoidedLoss	True
102.081	3.121	Lose2	1.0	n/a	Yes	3.121	n/a	n/a	GoodResponse	0	0.0	n/a	3	9	ISIslide	AvoidedLoss	True
105.224	0.25	Control	1.0	0.0	Yes	3.276	0.024	n/a	GoodResponse	0	n/a	n/a	3	10	Cue	Neutral	True
105.475	4.0	Control	1.0	0.0	Yes	3.276	0.001	n/a	GoodResponse	0	n/a	n/a	3	10	Fixation	Neutral	True
109.47	0.3	Control	1.0	0.004	Yes	3.276	-0.004	2.0	GoodResponse	0	0.253	108.723	3	10	Target	Neutral	True
109.723	0.3	Control	1.0	0.004	Yes	3.276	-0.004	2.0	GoodResponse	0	0.253	n/a	3	10	ButtonPress	Neutral	True
109.771	0.4	Control	1.0	n/a	Yes	3.276	n/a	n/a	GoodResponse	0	n/a	n/a	3	10	Blank	Neutral	True
110.172	1.45	Control	1.0	n/a	Yes	3.276	n/a	5.0	GoodResponse	0	0.046	109.218	3	10	Feedback	Neutral	True
111.627	3.276	Control	1.0	n/a	Yes	3.276	n/a	n/a	GoodResponse	0	0.0	n/a	3	10	ISIslide	Neutral	True
114.92	0.25	Lose2	1.0	0.0	Yes	2.73	0.02	n/a	GoodResponse	0	n/a	n/a	3	11	Cue	AvoidedLoss	True
115.171	4.05	Lose2	1.0	0.0	Yes	2.73	0.001	n/a	GoodResponse	0	n/a	n/a	3	11	Fixation	AvoidedLoss	True
119.216	0.29	Lose2	1.0	0.004	Yes	2.73	-0.004	2.0	GoodResponse	0	0.215	118.431	3	11	Target	AvoidedLoss	True
119.431	0.3	Lose2	1.0	0.004	Yes	2.73	-0.004	2.0	GoodResponse	0	0.215	n/a	3	11	ButtonPress	AvoidedLoss	True
119.517	0.41	Lose2	1.0	n/a	Yes	2.73	n/a	n/a	GoodResponse	0	n/a	n/a	3	11	Blank	AvoidedLoss	True
119.918	1.45	Lose2	1.0	n/a	Yes	2.73	n/a	5.0	GoodResponse	0	0.008	118.926	3	11	Feedback	AvoidedLoss	True
121.373	2.73	Lose2	1.0	n/a	Yes	2.73	n/a	n/a	GoodResponse	0	0.0	n/a	3	11	ISIslide	AvoidedLoss	True
124.131	0.25	Control	0.9231	0.0	No	2.969	0.031	n/a	NoResponse	0	n/a	n/a	3	12	Cue	Neutral	True
124.382	3.9	Control	0.9231	0.0	No	2.969	0.001	n/a	NoResponse	0	n/a	n/a	3	12	Fixation	Neutral	True
128.277	0.28	Control	0.9231	0.004	No	2.969	-0.004	2.0	NoResponse	0	0.293	127.57	3	12	Target	Neutral	True
128.561	0.42	Control	0.9231	n/a	No	2.969	n/a	n/a	NoResponse	0	n/a	n/a	3	12	Blank	Neutral	True
128.57	0.3	Control	0.9231	0.004	No	2.969	-0.004	2.0	NoResponse	0	0.293	n/a	3	12	ButtonPress	Neutral	True
128.979	1.45	Control	0.9231	n/a	No	2.969	n/a	5.0	NoResponse	0	0.02	127.999	3	12	Feedback	Neutral	True
130.433	2.969	Control	0.9231	n/a	No	2.969	n/a	n/a	NoResponse	0	0.0	n/a	3	12	ISIslide	Neutral	True
133.425	0.25	Control	0.9286	0.0	Yes	2.775	0.025	n/a	GoodResponse	0	n/a	n/a	3	13	Cue	Neutral	True
133.676	4.0	Control	0.9286	0.0	Yes	2.775	0.001	n/a	GoodResponse	0	n/a	n/a	3	13	Fixation	Neutral	True
137.671	0.27	Control	0.9286	0.004	Yes	2.775	-0.004	2.0	GoodResponse	0	0.262	136.933	3	13	Target	Neutral	True
137.933	0.3	Control	0.9286	0.004	Yes	2.775	-0.004	2.0	GoodResponse	0	0.262	n/a	3	13	ButtonPress	Neutral	True
137.956	0.43	Control	0.9286	n/a	Yes	2.775	n/a	n/a	GoodResponse	0	n/a	n/a	3	13	Blank	Neutral	True
138.374	1.45	Control	0.9286	n/a	Yes	2.775	n/a	5.0	GoodResponse	0	0.04	137.414	3	13	Feedback	Neutral	True
139.828	2.775	Control	0.9286	n/a	Yes	2.775	n/a	n/a	GoodResponse	0	0.0	n/a	3	13	ISIslide	Neutral	True
142.62	0.25	Win2	0.9333	0.0	Yes	2.68	0.02	n/a	GoodResponse	1	n/a	n/a	4	14	Cue	Win	True
142.87	4.1	Win2	0.9333	0.0	Yes	2.68	0.0	n/a	GoodResponse	1	n/a	n/a	4	14	Fixation	Win	True
146.966	0.26	Win2	0.9333	0.004	Yes	2.68	-0.004	2.0	GoodResponse	1	0.242	146.208	4	14	Target	Win	True
147.208	0.3	Win2	0.9333	0.004	Yes	2.68	-0.004	2.0	GoodResponse	1	0.242	n/a	4	14	ButtonPress	Win	True
147.233	0.44	Win2	0.9333	n/a	Yes	2.68	n/a	n/a	GoodResponse	1	n/a	n/a	4	14	Blank	Win	True
147.668	1.45	Win2	0.9333	n/a	Yes	2.68	n/a	5.0	GoodResponse	1	0.013	146.681	4	14	Feedback	Win	True
149.122	2.68	Win2	0.9333	n/a	Yes	2.68	n/a	n/a	GoodResponse	1	0.0	n/a	4	14	ISIslide	Win	True
151.831	0.25	Control	0.9375	0.0	Yes	2.969	0.031	n/a	GoodResponse	0	n/a	n/a	4	15	Cue	Neutral	True
152.081	4.0	Control	0.9375	0.0	Yes	2.969	0.0	n/a	GoodResponse	0	n/a	n/a	4	15	Fixation	Neutral	True
156.077	0.25	Control	0.9375	0.004	Yes	2.969	-0.004	2.0	GoodResponse	0	0.247	155.324	4	15	Target	Neutral	True
156.324	0.3	Control	0.9375	0.004	Yes	2.969	-0.004	2.0	GoodResponse	0	0.247	n/a	4	15	ButtonPress	Neutral	True
156.327	0.45	Control	0.9375	n/a	Yes	2.969	n/a	n/a	GoodResponse	0	n/a	n/a	4	15	Blank	Neutral	True
156.779	1.45	Control	0.9375	n/a	Yes	2.969	n/a	5.0	GoodResponse	0	0.024	155.803	4	15	Feedback	Neutral	True
158.233	2.969	Control	0.9375	n/a	Yes	2.969	n/a	n/a	GoodResponse	0	0.0	n/a	4	15	ISIslide	Neutral	True
161.225	0.25	Win2	0.9412	0.0	Yes	2.875	0.025	n/a	GoodResponse	1	n/a	n/a	5	16	Cue	Win	True
161.476	4.0	Win2	0.9412	0.0	Yes	2.875	0.001	n/a	GoodResponse	1	n/a	n/a	5	16	Fixation	Win	True
165.471	0.24	Win2	0.9412	0.004	Yes	2.875	-0.004	2.0	GoodResponse	1	0.23	164.701	5	16	Target	Win	True
165.701	0.3	Win2	0.9412	0.004	Yes	2.875	-0.004	2.0	GoodResponse	1	0.23	n/a	5	16	ButtonPress	Win	True
165.722	0.46	Win2	0.9412	n/a	Yes	2.875	n/a	n/a	GoodResponse	1	n/a	n/a	5	16	Blank	Win	True
166.174	1.45	Win2	0.9412	n/a	Yes	2.875	n/a	5.0	GoodResponse	1	0.044	165.218	5	16	Feedback	Win	True
167.628	2.875	Win2	0.9412	n/a	Yes	2.875	n/a	n/a	GoodResponse	1	0.0	n/a	5	16	ISIslide	Win	True
170.52	0.25	Lose2	0.8889	0.0	No	2.73	0.02	n/a	NoResponse	-1	n/a	n/a	4	17	Cue	Loss	True
170.771	3.95	Lose2	0.8889	0.0	No	2.73	0.001	n/a	NoResponse	-1	n/a	n/a	4	17	Fixation	Loss	True
174.716	0.23	Lose2	0.8889	0.004	No	2.73	-0.004	2.0	NoResponse	-1	0.262	173.978	4	17	Target	Loss	True
174.95	0.47	Lose2	0.8889	n/a	No	2.73	n/a	n/a	NoResponse	-1	n/a	n/a	4	17	Blank	Loss	True
174.978	0.3	Lose2	0.8889	0.004	No	2.73	-0.004	2.0	NoResponse	-1	0.262	n/a	4	17	ButtonPress	Loss	True
175.418	1.45	Lose2	0.8889	n/a	No	2.73	n/a	5.0	NoResponse	-1	0.02	174.438	4	17	Feedback	Loss	True
176.872	2.73	Lose2	0.8889	n/a	No	2.73	n/a	n/a	NoResponse	-1	0.0	n/a	4	17	ISIslide	Loss	True
179.631	0.25	Lose2	0.8946999999999999	0.0	Yes	2.719	0.031	n/a	GoodResponse	0	n/a	n/a	4	18	Cue	AvoidedLoss	True
179.881	4.05	Lose2	0.8946999999999999	0.0	Yes	2.719	0.0	n/a	GoodResponse	0	n/a	n/a	4	18	Fixation	AvoidedLoss	True
183.927	0.22	Lose2	0.8946999999999999	0.004	Yes	2.719	-0.004	2.0	GoodResponse	0	0.197	183.124	4	18	Target	AvoidedLoss	True
184.124	0.3	Lose2	0.8946999999999999	0.004	Yes	2.719	-0.004	2.0	GoodResponse	0	0.197	n/a	4	18	ButtonPress	AvoidedLoss	True
184.161	0.48	Lose2	0.8946999999999999	n/a	Yes	2.719	n/a	n/a	GoodResponse	0	n/a	n/a	4	18	Blank	AvoidedLoss	True
184.629	1.45	Lose2	0.8946999999999999	n/a	Yes	2.719	n/a	5.0	GoodResponse	0	0.028	183.657	4	18	Feedback	AvoidedLoss	True
186.083	2.719	Lose2	0.8946999999999999	n/a	Yes	2.719	n/a	n/a	GoodResponse	0	0.0	n/a	4	18	ISIslide	AvoidedLoss	True
188.825	0.25	Control	0.9	0.0	Yes	2.925	0.025	n/a	GoodResponse	0	n/a	n/a	4	19	Cue	Neutral	True
189.075	3.95	Control	0.9	0.001	Yes	2.925	0.0	n/a	GoodResponse	0	n/a	n/a	4	19	Fixation	Neutral	True
193.021	0.21	Control	0.9	0.004	Yes	2.925	-0.004	2.0	GoodResponse	0	0.196	192.217	4	19	Target	Neutral	True
193.217	0.3	Control	0.9	0.004	Yes	2.925	-0.004	2.0	GoodResponse	0	0.196	n/a	4	19	ButtonPress	Neutral	True
193.238	0.49	Control	0.9	n/a	Yes	2.925	n/a	n/a	GoodResponse	0	n/a	n/a	4	19	Blank	Neutral	True
193.723	1.45	Control	0.9	n/a	Yes	2.925	n/a	5.0	GoodResponse	0	0.008	192.731	4	19	Feedback	Neutral	True
195.177	2.925	Control	0.9	n/a	Yes	2.925	n/a	n/a	GoodResponse	0	0.0	n/a	4	19	ISIslide	Neutral	True
198.119	0.25	Control	0.8571	0.0	No	2.631	0.019	n/a	NoResponse	0	n/a	n/a	4	20	Cue	Neutral	True
198.37	4.05	Control	0.8571	0.0	No	2.631	0.001	n/a	NoResponse	0	n/a	n/a	4	20	Fixation	Neutral	True
202.415	0.2	Control	0.8571	0.004	No	2.631	-0.004	2.0	NoResponse	0	0.263	201.678	4	20	Target	Neutral	True
202.616	0.5	Control	0.8571	n/a	No	2.631	n/a	n/a	NoResponse	0	n/a	n/a	4	20	Blank	Neutral	True
202.678	0.3	Control	0.8571	0.004	No	2.631	-0.004	2.0	NoResponse	0	0.263	n/a	4	20	ButtonPress	Neutral	True
203.118	1.45	Control	0.8571	n/a	No	2.631	n/a	5.0	NoResponse	0	0.026	202.144	4	20	Feedback	Neutral	True
204.572	2.631	Control	0.8571	n/a	No	2.631	n/a	n/a	NoResponse	0	0.0	n/a	4	20	ISIslide	Neutral	True
207.23	0.25	Control	0.8181999999999999	0.0	No	2.77	0.03	n/a	NoResponse	0	n/a	n/a	4	21	Cue	Neutral	True
207.481	4.1	Control	0.8181999999999999	0.0	No	2.77	0.001	n/a	NoResponse	0	n/a	n/a	4	21	Fixation	Neutral	True
211.576	0.19	Control	0.8181999999999999	0.004	No	2.77	-0.004	2.0	NoResponse	0	0.24	210.816	4	21	Target	Neutral	True
211.777	0.51	Control	0.8181999999999999	n/a	No	2.77	n/a	n/a	NoResponse	0	n/a	n/a	4	21	Blank	Neutral	True
211.816	0.3	Control	0.8181999999999999	0.004	No	2.77	-0.004	2.0	NoResponse	0	0.24	n/a	4	21	ButtonPress	Neutral	True
212.278	1.45	Control	0.8181999999999999	n/a	No	2.77	n/a	5.0	NoResponse	0	0.037	211.315	4	21	Feedback	Neutral	True
213.733	2.77	Control	0.8181999999999999	n/a	No	2.77	n/a	n/a	NoResponse	0	0.0	n/a	4	21	ISIslide	Neutral	True
216.524	0.25	Control	0.7826000000000001	0.0	No	2.776	0.024	n/a	NoResponse	0	n/a	n/a	4	22	Cue	Neutral	True
216.775	4.0	Control	0.7826000000000001	0.0	No	2.776	0.001	n/a	NoResponse	0	n/a	n/a	4	22	Fixation	Neutral	True
220.77	0.18	Control	0.7826000000000001	0.004	No	2.776	-0.004	2.0	NoResponse	0	0.216	219.986	4	22	Target	Neutral	True
220.954	0.52	Control	0.7826000000000001	n/a	No	2.776	n/a	n/a	NoResponse	0	n/a	n/a	4	22	Blank	Neutral	True
220.986	0.3	Control	0.7826000000000001	0.004	No	2.776	-0.004	2.0	NoResponse	0	0.216	n/a	4	22	ButtonPress	Neutral	True
221.473	1.45	Control	0.7826000000000001	n/a	No	2.776	n/a	5.0	NoResponse	0	0.013	220.486	4	22	Feedback	Neutral	True
222.927	2.776	Control	0.7826000000000001	n/a	No	2.776	n/a	n/a	NoResponse	0	0.0	n/a	4	22	ISIslide	Neutral	True
225.719	0.25	Control	0.75	0.0	No	2.781	0.019	n/a	NoResponse	0	n/a	n/a	4	23	Cue	Neutral	True
225.969	3.9	Control	0.75	0.0	No	2.781	0.0	n/a	NoResponse	0	n/a	n/a	4	23	Fixation	Neutral	True
229.881	0.17	Control	0.75	0.0	No	2.781	0.012	2.0	NoResponse	0	0.216	229.097	4	23	Target	Neutral	True
230.048	0.53	Control	0.75	n/a	No	2.781	n/a	n/a	NoResponse	0	n/a	n/a	4	23	Blank	Neutral	True
230.097	0.3	Control	0.75	0.0	No	2.781	0.012	2.0	NoResponse	0	0.216	n/a	4	23	ButtonPress	Neutral	True
230.566	1.45	Control	0.75	n/a	No	2.781	n/a	5.0	NoResponse	0	0.042	229.608	4	23	Feedback	Neutral	True
232.021	2.781	Control	0.75	n/a	No	2.781	n/a	n/a	NoResponse	0	0.0	n/a	4	23	ISIslide	Neutral	True
234.829	0.25	Win2	0.72	0.0	No	3.121	0.029	n/a	NoResponse	0	n/a	n/a	4	24	Cue	MissedWin	True
235.08	3.95	Win2	0.72	0.0	No	3.121	0.001	n/a	NoResponse	0	n/a	n/a	4	24	Fixation	MissedWin	True
239.025	0.16	Win2	0.72	0.004	No	3.121	-0.004	2.0	NoResponse	0	0.209	238.234	4	24	Target	MissedWin	True
239.192	0.54	Win2	0.72	n/a	No	3.121	n/a	n/a	NoResponse	0	n/a	n/a	4	24	Blank	MissedWin	True
239.234	0.3	Win2	0.72	0.004	No	3.121	-0.004	2.0	NoResponse	0	0.209	n/a	4	24	ButtonPress	MissedWin	True
239.727	1.45	Win2	0.72	n/a	No	3.121	n/a	5.0	NoResponse	0	0.008	238.735	4	24	Feedback	MissedWin	True
241.182	3.121	Win2	0.72	n/a	No	3.121	n/a	n/a	NoResponse	0	0.0	n/a	4	24	ISIslide	MissedWin	True
244.324	0.25	Win2	0.6923	0.0	No	3.076	0.024	n/a	NoResponse	0	n/a	n/a	4	25	Cue	MissedWin	True
244.575	4.0	Win2	0.6923	0.0	No	3.076	0.001	n/a	NoResponse	0	n/a	n/a	4	25	Fixation	MissedWin	True
248.57	0.15	Win2	0.6923	0.004	No	3.076	-0.004	2.0	NoResponse	0	0.206	247.776	4	25	Target	MissedWin	True
248.721	0.55	Win2	0.6923	n/a	No	3.076	n/a	n/a	NoResponse	0	n/a	n/a	4	25	Blank	MissedWin	True
248.776	0.3	Win2	0.6923	0.004	No	3.076	-0.004	2.0	NoResponse	0	0.206	n/a	4	25	ButtonPress	MissedWin	True
249.273	1.45	Win2	0.6923	n/a	No	3.076	n/a	5.0	NoResponse	0	0.018	248.291	4	25	Feedback	MissedWin	True
250.727	3.076	Win2	0.6923	n/a	No	3.076	n/a	n/a	NoResponse	0	0.0	n/a	4	25	ISIslide	MissedWin	True
253.819	0.25	Win2	0.6667000000000001	0.001	No	2.931	0.019	n/a	NoResponse	0	n/a	n/a	4	26	Cue	MissedWin	True
254.07	3.95	Win2	0.6667000000000001	0.0	No	2.931	0.001	n/a	NoResponse	0	n/a	n/a	4	26	Fixation	MissedWin	True
258.015	0.15	Win2	0.6667000000000001	0.004	No	2.931	-0.004	2.0	NoResponse	0	0.177	257.192	4	26	Target	MissedWin	True
258.166	0.55	Win2	0.6667000000000001	n/a	No	2.931	n/a	n/a	NoResponse	0	n/a	n/a	4	26	Blank	MissedWin	True
258.192	0.3	Win2	0.6667000000000001	0.004	No	2.931	-0.004	2.0	NoResponse	0	0.177	n/a	4	26	ButtonPress	MissedWin	True
258.717	1.45	Win2	0.6667000000000001	n/a	No	2.931	n/a	5.0	NoResponse	0	0.037	257.754	4	26	Feedback	MissedWin	True
260.172	2.931	Win2	0.6667000000000001	n/a	No	2.931	n/a	n/a	NoResponse	0	0.0	n/a	4	26	ISIslide	MissedWin	True
263.131	0.25	Lose2	0.6429	0.0	No	2.819	0.031	n/a	NoResponse	-1	n/a	n/a	3	27	Cue	Loss	True
263.381	4.05	Lose2	0.6429	0.001	No	2.819	0.0	n/a	NoResponse	-1	n/a	n/a	3	27	Fixation	Loss	True
267.427	0.15	Lose2	0.6429	0.004	No	2.819	-0.004	2.0	NoResponse	-1	0.201	266.628	3	27	Target	Loss	True
267.577	0.55	Lose2	0.6429	n/a	No	2.819	n/a	n/a	NoResponse	-1	n/a	n/a	3	27	Blank	Loss	True
267.628	0.3	Lose2	0.6429	0.004	No	2.819	-0.004	2.0	NoResponse	-1	0.201	n/a	3	27	ButtonPress	Loss	True
268.129	1.45	Lose2	0.6429	n/a	No	2.819	n/a	5.0	NoResponse	-1	0.039	267.168	3	27	Feedback	Loss	True
269.583	2.819	Lose2	0.6429	n/a	No	2.819	n/a	n/a	NoResponse	-1	0.0	n/a	3	27	ISIslide	Loss	True
272.425	0.25	Control	0.6207	0.0	No	2.825	0.025	n/a	NoResponse	0	n/a	n/a	3	28	Cue	Neutral	True
272.676	4.05	Control	0.6207	0.0	No	2.825	0.001	n/a	NoResponse	0	n/a	n/a	3	28	Fixation	Neutral	True
276.721	0.16	Control	0.6207	0.004	No	2.825	-0.004	2.0	NoResponse	0	0.181	275.902	3	28	Target	Neutral	True
276.889	0.54	Control	0.6207	n/a	No	2.825	n/a	n/a	NoResponse	0	n/a	n/a	3	28	Blank	Neutral	True
276.902	0.3	Control	0.6207	0.004	No	2.825	-0.004	2.0	NoResponse	0	0.181	n/a	3	28	ButtonPress	Neutral	True
277.424	1.45	Control	0.6207	n/a	No	2.825	n/a	5.0	NoResponse	0	0.013	276.437	3	28	Feedback	Neutral	True
278.878	2.825	Control	0.6207	n/a	No	2.825	n/a	n/a	NoResponse	0	0.0	n/a	3	28	ISIslide	Neutral	True
281.72	0.25	Lose2	0.6	0.0	No	2.83	0.02	n/a	LatePress	-1	n/a	n/a	2	29	Cue	Loss	True
281.971	3.95	Lose2	0.6	0.0	No	2.83	0.001	n/a	LatePress	-1	n/a	n/a	2	29	Fixation	Loss	True
285.916	0.17	Lose2	0.6	0.004	No	2.83	-0.004	2.0	LatePress	-1	0.18	285.096	2	29	Target	Loss	True
286.096	0.3	Lose2	0.6	0.004	No	2.83	-0.004	2.0	LatePress	-1	0.18	n/a	2	29	ButtonPress	Loss	True
286.1	0.53	Lose2	0.6	n/a	No	2.83	n/a	n/a	LatePress	-1	n/a	n/a	2	29	Blank	Loss	True
286.618	1.45	Lose2	0.6	n/a	No	2.83	n/a	5.0	LatePress	-1	0.038	285.656	2	29	Feedback	Loss	True
288.072	2.83	Lose2	0.6	n/a	No	2.83	n/a	n/a	LatePress	-1	0.0	n/a	2	29	ISIslide	Loss	True
290.931	0.25	Win2	0.5806	0.0	No	2.769	0.031	n/a	NoResponse	0	n/a	n/a	2	30	Cue	MissedWin	True
291.181	3.9	Win2	0.5806	0.001	No	2.769	0.0	n/a	NoResponse	0	n/a	n/a	2	30	Fixation	MissedWin	True
295.093	0.18	Win2	0.5806	0.0	No	2.769	0.012	2.0	NoResponse	0	0.237	294.33	2	30	Target	MissedWin	True
295.26	0.52	Win2	0.5806	n/a	No	2.769	n/a	n/a	NoResponse	0	n/a	n/a	2	30	Blank	MissedWin	True
295.33	0.3	Win2	0.5806	0.0	No	2.769	0.012	2.0	NoResponse	0	0.237	n/a	2	30	ButtonPress	MissedWin	True
295.779	1.45	Win2	0.5806	n/a	No	2.769	n/a	5.0	NoResponse	0	0.048	294.827	2	30	Feedback	MissedWin	True
297.233	2.769	Win2	0.5806	n/a	No	2.769	n/a	n/a	NoResponse	0	0.0	n/a	2	30	ISIslide	MissedWin	True
300.025	0.25	Lose2	0.5938	0.0	Yes	2.825	0.025	n/a	GoodResponse	0	n/a	n/a	2	31	Cue	AvoidedLoss	True
300.275	4.05	Lose2	0.5938	0.0	Yes	2.825	0.0	n/a	GoodResponse	0	n/a	n/a	2	31	Fixation	AvoidedLoss	True
304.321	0.19	Lose2	0.5938	0.004	Yes	2.825	-0.004	2.0	GoodResponse	0	0.184	303.505	2	31	Target	AvoidedLoss	True
304.505	0.3	Lose2	0.5938	0.004	Yes	2.825	-0.004	2.0	GoodResponse	0	0.184	n/a	2	31	ButtonPress	AvoidedLoss	True
304.521	0.51	Lose2	0.5938	n/a	Yes	2.825	n/a	n/a	GoodResponse	0	n/a	n/a	2	31	Blank	AvoidedLoss	True
305.023	1.45	Lose2	0.5938	n/a	Yes	2.825	n/a	5.0	GoodResponse	0	0.024	304.047	2	31	Feedback	AvoidedLoss	True
306.477	2.825	Lose2	0.5938	n/a	Yes	2.825	n/a	n/a	GoodResponse	0	0.0	n/a	2	31	ISIslide	AvoidedLoss	True
309.319	0.25	Lose2	0.5758	0.0	No	2.631	0.019	n/a	LatePress	-1	n/a	n/a	1	32	Cue	Loss	True
309.57	4.15	Lose2	0.5758	0.0	No	2.631	0.001	n/a	LatePress	-1	n/a	n/a	1	32	Fixation	Loss	True
313.716	0.2	Lose2	0.5758	0.003	No	2.631	-0.003	2.0	LatePress	-1	0.202	312.918	1	32	Target	Loss	True
313.916	0.5	Lose2	0.5758	n/a	No	2.631	n/a	n/a	LatePress	-1	n/a	n/a	1	32	Blank	Loss	True
313.918	0.3	Lose2	0.5758	0.003	No	2.631	-0.003	2.0	LatePress	-1	0.202	n/a	1	32	ButtonPress	Loss	True
314.418	1.45	Lose2	0.5758	n/a	No	2.631	n/a	5.0	LatePress	-1	0.043	313.461	1	32	Feedback	Loss	True
315.872	2.631	Lose2	0.5758	n/a	No	2.631	n/a	n/a	LatePress	-1	0.0	n/a	1	32	ISIslide	Loss	True
318.53	0.25	Win2	0.5588000000000001	0.0	No	2.67	0.03	n/a	NoResponse	0	n/a	n/a	1	33	Cue	MissedWin	True
318.781	4.0	Win2	0.5588000000000001	0.0	No	2.67	0.001	n/a	NoResponse	0	n/a	n/a	1	33	Fixation	MissedWin	True
322.776	0.21	Win2	0.5588000000000001	0.004	No	2.67	-0.004	2.0	NoResponse	0	0.232	322.008	1	33	Target	MissedWin	True
322.993	0.49	Win2	0.5588000000000001	n/a	No	2.67	n/a	n/a	NoResponse	0	n/a	n/a	1	33	Blank	MissedWin	True
323.008	0.3	Win2	0.5588000000000001	0.004	No	2.67	-0.004	2.0	NoResponse	0	0.232	n/a	1	33	ButtonPress	MissedWin	True
323.478	1.45	Win2	0.5588000000000001	n/a	No	2.67	n/a	5.0	NoResponse	0	0.007	322.485	1	33	Feedback	MissedWin	True
324.933	2.67	Win2	0.5588000000000001	n/a	No	2.67	n/a	n/a	NoResponse	0	0.0	n/a	1	33	ISIslide	MissedWin	True
327.624	0.25	Lose2	0.5714	0.0	Yes	2.626	0.024	n/a	GoodResponse	0	n/a	n/a	1	34	Cue	AvoidedLoss	True
327.875	4.05	Lose2	0.5714	0.0	Yes	2.626	0.001	n/a	GoodResponse	0	n/a	n/a	1	34	Fixation	AvoidedLoss	True
331.92	0.22	Lose2	0.5714	0.004	Yes	2.626	-0.004	2.0	GoodResponse	0	0.178	331.098	1	34	Target	AvoidedLoss	True
332.098	0.3	Lose2	0.5714	0.004	Yes	2.626	-0.004	2.0	GoodResponse	0	0.178	n/a	1	34	ButtonPress	AvoidedLoss	True
332.154	0.48	Lose2	0.5714	n/a	Yes	2.626	n/a	n/a	GoodResponse	0	n/a	n/a	1	34	Blank	AvoidedLoss	True
332.622	1.45	Lose2	0.5714	n/a	Yes	2.626	n/a	5.0	GoodResponse	0	0.034	331.656	1	34	Feedback	AvoidedLoss	True
334.077	2.626	Lose2	0.5714	n/a	Yes	2.626	n/a	n/a	GoodResponse	0	0.0	n/a	1	34	ISIslide	AvoidedLoss	True
336.718	0.25	Lose2	0.5832999999999999	0.0	Yes	2.682	0.018	n/a	GoodResponse	0	n/a	n/a	1	35	Cue	AvoidedLoss	True
336.969	4.0	Lose2	0.5832999999999999	0.0	Yes	2.682	0.001	n/a	GoodResponse	0	n/a	n/a	1	35	Fixation	AvoidedLoss	True
340.964	0.23	Lose2	0.5832999999999999	0.004	Yes	2.682	-0.004	2.0	GoodResponse	0	0.194	340.158	1	35	Target	AvoidedLoss	True
341.158	0.3	Lose2	0.5832999999999999	0.004	Yes	2.682	-0.004	2.0	GoodResponse	0	0.194	n/a	1	35	ButtonPress	AvoidedLoss	True
341.198	0.47	Lose2	0.5832999999999999	n/a	Yes	2.682	n/a	n/a	GoodResponse	0	n/a	n/a	1	35	Blank	AvoidedLoss	True
341.666	1.45	Lose2	0.5832999999999999	n/a	Yes	2.682	n/a	5.0	GoodResponse	0	0.014	340.68	1	35	Feedback	AvoidedLoss	True
343.12	2.682	Lose2	0.5832999999999999	n/a	Yes	2.682	n/a	n/a	GoodResponse	0	0.0	n/a	1	35	ISIslide	AvoidedLoss	True
345.829	0.25	Control	0.5946	0.0	Yes	2.671	0.029	n/a	GoodResponse	0	n/a	n/a	1	36	Cue	Neutral	True
346.079	4.0	Control	0.5946	0.0	Yes	2.671	0.0	n/a	GoodResponse	0	n/a	n/a	1	36	Fixation	Neutral	True
350.075	0.24	Control	0.5946	0.004	Yes	2.671	-0.004	2.0	GoodResponse	0	0.193	349.268	1	36	Target	Neutral	True
350.268	0.3	Control	0.5946	0.004	Yes	2.671	-0.004	2.0	GoodResponse	0	0.193	n/a	1	36	ButtonPress	Neutral	True
350.325	0.46	Control	0.5946	n/a	Yes	2.671	n/a	n/a	GoodResponse	0	n/a	n/a	1	36	Blank	Neutral	True
350.777	1.45	Control	0.5946	n/a	Yes	2.671	n/a	5.0	GoodResponse	0	0.025	349.802	1	36	Feedback	Neutral	True
352.231	2.671	Control	0.5946	n/a	Yes	2.671	n/a	n/a	GoodResponse	0	0.0	n/a	1	36	ISIslide	Neutral	True
354.922	0.25	Win2	0.6053000000000001	0.001	Yes	2.878	0.022	n/a	GoodResponse	1	n/a	n/a	2	37	Cue	Win	True
355.173	4.0	Win2	0.6053000000000001	0.0	Yes	2.878	0.001	n/a	GoodResponse	1	n/a	n/a	2	37	Fixation	Win	True
359.168	0.25	Win2	0.6053000000000001	0.004	Yes	2.878	-0.004	2.0	GoodResponse	1	0.207	358.375	2	37	Target	Win	True
359.375	0.3	Win2	0.6053000000000001	0.004	Yes	2.878	-0.004	2.0	GoodResponse	1	0.207	n/a	2	37	ButtonPress	Win	True
359.419	0.45	Win2	0.6053000000000001	n/a	Yes	2.878	n/a	n/a	GoodResponse	1	n/a	n/a	2	37	Blank	Win	True
359.871	1.45	Win2	0.6053000000000001	n/a	Yes	2.878	n/a	5.0	GoodResponse	1	0.006	358.877	2	37	Feedback	Win	True
361.325	2.878	Win2	0.6053000000000001	n/a	Yes	2.878	n/a	n/a	GoodResponse	1	0.0	n/a	2	37	ISIslide	Win	True
364.217	0.25	Lose2	0.6154	0.0	Yes	2.833	0.017	n/a	GoodResponse	0	n/a	n/a	2	38	Cue	AvoidedLoss	True
364.468	3.95	Lose2	0.6154	0.0	Yes	2.833	0.001	n/a	GoodResponse	0	n/a	n/a	2	38	Fixation	AvoidedLoss	True
368.413	0.26	Lose2	0.6154	0.004	Yes	2.833	-0.004	2.0	GoodResponse	0	0.193	367.606	2	38	Target	AvoidedLoss	True
368.606	0.3	Lose2	0.6154	0.004	Yes	2.833	-0.004	2.0	GoodResponse	0	0.193	n/a	2	38	ButtonPress	AvoidedLoss	True
368.68	0.44	Lose2	0.6154	n/a	Yes	2.833	n/a	n/a	GoodResponse	0	n/a	n/a	2	38	Blank	AvoidedLoss	True
369.115	1.45	Lose2	0.6154	n/a	Yes	2.833	n/a	5.0	GoodResponse	0	0.029	368.144	2	38	Feedback	AvoidedLoss	True
370.569	2.833	Lose2	0.6154	n/a	Yes	2.833	n/a	n/a	GoodResponse	0	0.0	n/a	2	38	ISIslide	AvoidedLoss	True
373.428	0.25	Win2	0.625	0.0	Yes	2.972	0.028	n/a	GoodResponse	1	n/a	n/a	3	39	Cue	Win	True
373.679	4.1	Win2	0.625	0.0	Yes	2.972	0.001	n/a	GoodResponse	1	n/a	n/a	3	39	Fixation	Win	True
377.774	0.27	Win2	0.625	0.004	Yes	2.972	-0.004	2.0	GoodResponse	1	0.204	376.978	3	39	Target	Win	True
377.978	0.3	Win2	0.625	0.004	Yes	2.972	-0.004	2.0	GoodResponse	1	0.204	n/a	3	39	ButtonPress	Win	True
378.058	0.43	Win2	0.625	n/a	Yes	2.972	n/a	n/a	GoodResponse	1	n/a	n/a	3	39	Blank	Win	True
378.476	1.45	Win2	0.625	n/a	Yes	2.972	n/a	5.0	GoodResponse	1	0.033	377.509	3	39	Feedback	Win	True
379.931	2.972	Win2	0.625	n/a	Yes	2.972	n/a	n/a	GoodResponse	1	0.0	n/a	3	39	ISIslide	Win	True
382.923	0.25	Win2	0.6341	0.0	Yes	2.727	0.023	n/a	GoodResponse	1	n/a	n/a	4	40	Cue	Win	True
383.174	3.95	Win2	0.6341	0.0	Yes	2.727	0.001	n/a	GoodResponse	1	n/a	n/a	4	40	Fixation	Win	True
387.119	0.28	Win2	0.6341	0.004	Yes	2.727	-0.004	2.0	GoodResponse	1	0.208	386.327	4	40	Target	Win	True
387.327	0.3	Win2	0.6341	0.004	Yes	2.727	-0.004	2.0	GoodResponse	1	0.208	n/a	4	40	ButtonPress	Win	True
387.403	0.42	Win2	0.6341	n/a	Yes	2.727	n/a	n/a	GoodResponse	1	n/a	n/a	4	40	Blank	Win	True
387.821	1.45	Win2	0.6341	n/a	Yes	2.727	n/a	5.0	GoodResponse	1	0.008	386.829	4	40	Feedback	Win	True
389.275	2.727	Win2	0.6341	n/a	Yes	2.727	n/a	n/a	GoodResponse	1	0.0	n/a	4	40	ISIslide	Win	True
392.017	0.25	Win2	0.6429	0.0	Yes	2.783	0.017	n/a	GoodResponse	1	n/a	n/a	5	41	Cue	Win	True
392.268	3.9	Win2	0.6429	0.0	Yes	2.783	0.001	n/a	GoodResponse	1	n/a	n/a	5	41	Fixation	Win	True
396.163	0.29	Win2	0.6429	0.004	Yes	2.783	-0.004	2.0	GoodResponse	1	0.196	395.359	5	41	Target	Win	True
396.359	0.3	Win2	0.6429	0.004	Yes	2.783	-0.004	2.0	GoodResponse	1	0.196	n/a	5	41	ButtonPress	Win	True
396.464	0.41	Win2	0.6429	n/a	Yes	2.783	n/a	n/a	GoodResponse	1	n/a	n/a	5	41	Blank	Win	True
396.865	1.45	Win2	0.6429	n/a	Yes	2.783	n/a	5.0	GoodResponse	1	0.034	395.899	5	41	Feedback	Win	True
398.319	2.783	Win2	0.6429	n/a	Yes	2.783	n/a	n/a	GoodResponse	1	0.0	n/a	5	41	ISIslide	Win	True
401.128	0.25	Control	0.6512	0.0	Yes	2.922	0.028	n/a	GoodResponse	0	n/a	n/a	5	42	Cue	Neutral	True
401.378	3.85	Control	0.6512	0.0	Yes	2.922	0.0	n/a	GoodResponse	0	n/a	n/a	5	42	Fixation	Neutral	True
405.24	0.3	Control	0.6512	0.0	Yes	2.922	0.012	2.0	GoodResponse	0	0.197	404.437	5	42	Target	Neutral	True
405.437	0.3	Control	0.6512	0.0	Yes	2.922	0.012	2.0	GoodResponse	0	0.197	n/a	5	42	ButtonPress	Neutral	True
405.524	0.4	Control	0.6512	n/a	Yes	2.922	n/a	n/a	GoodResponse	0	n/a	n/a	5	42	Blank	Neutral	True
405.925	1.45	Control	0.6512	n/a	Yes	2.922	n/a	5.0	GoodResponse	0	0.048	404.973	5	42	Feedback	Neutral	True
407.38	2.922	Control	0.6512	n/a	Yes	2.922	n/a	n/a	GoodResponse	0	0.0	n/a	5	42	ISIslide	Neutral	True
410.322	0.25	Win2	0.6591	0.0	Yes	3.178	0.022	n/a	GoodResponse	1	n/a	n/a	6	43	Cue	Win	True
410.573	4.0	Win2	0.6591	0.0	Yes	3.178	0.001	n/a	GoodResponse	1	n/a	n/a	6	43	Fixation	Win	True
414.568	0.31	Win2	0.6591	0.004	Yes	3.178	-0.004	2.0	GoodResponse	1	0.217	413.785	6	43	Target	Win	True
414.785	0.3	Win2	0.6591	0.004	Yes	3.178	-0.004	2.0	GoodResponse	1	0.217	n/a	6	43	ButtonPress	Win	True
414.885	0.39	Win2	0.6591	n/a	Yes	3.178	n/a	n/a	GoodResponse	1	n/a	n/a	6	43	Blank	Win	True
415.27	1.45	Win2	0.6591	n/a	Yes	3.178	n/a	5.0	GoodResponse	1	0.02	414.29	6	43	Feedback	Win	True
416.724	3.178	Win2	0.6591	n/a	Yes	3.178	n/a	n/a	GoodResponse	1	0.0	n/a	6	43	ISIslide	Win	True
419.917	0.25	Win2	0.6667000000000001	0.0	Yes	2.983	0.017	n/a	GoodResponse	1	n/a	n/a	7	44	Cue	Win	True
420.168	4.0	Win2	0.6667000000000001	0.0	Yes	2.983	0.001	n/a	GoodResponse	1	n/a	n/a	7	44	Fixation	Win	True
424.163	0.31	Win2	0.6667000000000001	0.004	Yes	2.983	-0.004	2.0	GoodResponse	1	0.204	423.367	7	44	Target	Win	True
424.367	0.3	Win2	0.6667000000000001	0.004	Yes	2.983	-0.004	2.0	GoodResponse	1	0.204	n/a	7	44	ButtonPress	Win	True
424.481	0.39	Win2	0.6667000000000001	n/a	Yes	2.983	n/a	n/a	GoodResponse	1	n/a	n/a	7	44	Blank	Win	True
424.865	1.45	Win2	0.6667000000000001	n/a	Yes	2.983	n/a	5.0	GoodResponse	1	0.035	423.9	7	44	Feedback	Win	True
426.32	2.983	Win2	0.6667000000000001	n/a	Yes	2.983	n/a	n/a	GoodResponse	1	0.0	n/a	7	44	ISIslide	Win	True
429.329	0.25	Control	0.6739	0.0	Yes	2.871	0.029	n/a	GoodResponse	0	n/a	n/a	7	45	Cue	Neutral	True
429.579	4.1	Control	0.6739	0.001	Yes	2.871	0.0	n/a	GoodResponse	0	n/a	n/a	7	45	Fixation	Neutral	True
433.675	0.3	Control	0.6739	0.004	Yes	2.871	-0.004	2.0	GoodResponse	0	0.202	432.877	7	45	Target	Neutral	True
433.877	0.3	Control	0.6739	0.004	Yes	2.871	-0.004	2.0	GoodResponse	0	0.202	n/a	7	45	ButtonPress	Neutral	True
433.976	0.4	Control	0.6739	n/a	Yes	2.871	n/a	n/a	GoodResponse	0	n/a	n/a	7	45	Blank	Neutral	True
434.377	1.45	Control	0.6739	n/a	Yes	2.871	n/a	5.0	GoodResponse	0	0.035	433.412	7	45	Feedback	Neutral	True
435.832	2.871	Control	0.6739	n/a	Yes	2.871	n/a	n/a	GoodResponse	0	0.0	n/a	7	45	ISIslide	Neutral	True
438.724	0.25	Lose2	0.6809000000000001	0.0	Yes	3.376	0.024	n/a	GoodResponse	0	n/a	n/a	7	46	Cue	AvoidedLoss	True
438.974	4.0	Lose2	0.6809000000000001	0.0	Yes	3.376	0.0	n/a	GoodResponse	0	n/a	n/a	7	46	Fixation	AvoidedLoss	True
442.97	0.29	Lose2	0.6809000000000001	0.004	Yes	3.376	-0.004	2.0	GoodResponse	0	0.253	442.223	7	46	Target	AvoidedLoss	True
443.223	0.3	Lose2	0.6809000000000001	0.004	Yes	3.376	-0.004	2.0	GoodResponse	0	0.253	n/a	7	46	ButtonPress	AvoidedLoss	True
443.27	0.41	Lose2	0.6809000000000001	n/a	Yes	3.376	n/a	n/a	GoodResponse	0	n/a	n/a	7	46	Blank	AvoidedLoss	True
443.672	1.45	Lose2	0.6809000000000001	n/a	Yes	3.376	n/a	5.0	GoodResponse	0	0.007	442.679	7	46	Feedback	AvoidedLoss	True
445.126	3.376	Lose2	0.6809000000000001	n/a	Yes	3.376	n/a	n/a	GoodResponse	0	0.0	n/a	7	46	ISIslide	AvoidedLoss	True
448.52	0.25	Lose2	0.6875	0.0	Yes	2.68	0.02	n/a	GoodResponse	0	n/a	n/a	7	47	Cue	AvoidedLoss	True
448.77	4.0	Lose2	0.6875	0.0	Yes	2.68	0.0	n/a	GoodResponse	0	n/a	n/a	7	47	Fixation	AvoidedLoss	True
452.766	0.28	Lose2	0.6875	0.004	Yes	2.68	-0.004	2.0	GoodResponse	0	0.205	451.971	7	47	Target	AvoidedLoss	True
452.971	0.3	Lose2	0.6875	0.004	Yes	2.68	-0.004	2.0	GoodResponse	0	0.205	n/a	7	47	ButtonPress	AvoidedLoss	True
453.05	0.42	Lose2	0.6875	n/a	Yes	2.68	n/a	n/a	GoodResponse	0	n/a	n/a	7	47	Blank	AvoidedLoss	True
453.468	1.45	Lose2	0.6875	n/a	Yes	2.68	n/a	5.0	GoodResponse	0	0.016	452.484	7	47	Feedback	AvoidedLoss	True
454.922	2.68	Lose2	0.6875	n/a	Yes	2.68	n/a	n/a	GoodResponse	0	0.0	n/a	7	47	ISIslide	AvoidedLoss	True
457.63	0.25	Lose2	0.6939	0.0	Yes	3.02	0.03	n/a	GoodResponse	0	n/a	n/a	7	48	Cue	AvoidedLoss	True
457.881	3.95	Lose2	0.6939	0.0	Yes	3.02	0.001	n/a	GoodResponse	0	n/a	n/a	7	48	Fixation	AvoidedLoss	True
461.826	0.27	Lose2	0.6939	0.004	Yes	3.02	-0.004	2.0	GoodResponse	0	0.202	461.028	7	48	Target	AvoidedLoss	True
462.028	0.3	Lose2	0.6939	0.004	Yes	3.02	-0.004	2.0	GoodResponse	0	0.202	n/a	7	48	ButtonPress	AvoidedLoss	True
462.11	0.43	Lose2	0.6939	n/a	Yes	3.02	n/a	n/a	GoodResponse	0	n/a	n/a	7	48	Blank	AvoidedLoss	True
462.528	1.45	Lose2	0.6939	n/a	Yes	3.02	n/a	5.0	GoodResponse	0	0.03	461.558	7	48	Feedback	AvoidedLoss	True
463.983	3.02	Lose2	0.6939	n/a	Yes	3.02	n/a	n/a	GoodResponse	0	0.0	n/a	7	48	ISIslide	AvoidedLoss	True
467.025	0.25	Control	0.7	0.0	Yes	2.875	0.025	n/a	GoodResponse	0	n/a	n/a	7	49	Cue	Neutral	True
467.276	4.0	Control	0.7	0.0	Yes	2.875	0.001	n/a	GoodResponse	0	n/a	n/a	7	49	Fixation	Neutral	True
471.271	0.26	Control	0.7	0.004	Yes	2.875	-0.004	2.0	GoodResponse	0	0.223	470.494	7	49	Target	Neutral	True
471.494	0.3	Control	0.7	0.004	Yes	2.875	-0.004	2.0	GoodResponse	0	0.223	n/a	7	49	ButtonPress	Neutral	True
471.539	0.44	Control	0.7	n/a	Yes	2.875	n/a	n/a	GoodResponse	0	n/a	n/a	7	49	Blank	Neutral	True
471.973	1.45	Control	0.7	n/a	Yes	2.875	n/a	5.0	GoodResponse	0	0.048	471.021	7	49	Feedback	Neutral	True
473.428	2.875	Control	0.7	n/a	Yes	2.875	n/a	n/a	GoodResponse	0	0.0	n/a	7	49	ISIslide	Neutral	True
476.32	0.25	Control	0.7059000000000001	0.0	Yes	2.78	0.02	n/a	GoodResponse	0	n/a	n/a	7	50	Cue	Neutral	True
476.57	4.0	Control	0.7059000000000001	0.0	Yes	2.78	0.0	n/a	GoodResponse	0	n/a	n/a	7	50	Fixation	Neutral	True
480.566	0.25	Control	0.7059000000000001	0.004	Yes	2.78	-0.004	2.0	GoodResponse	0	0.241	479.807	7	50	Target	Neutral	True
480.807	0.3	Control	0.7059000000000001	0.004	Yes	2.78	-0.004	2.0	GoodResponse	0	0.241	n/a	7	50	ButtonPress	Neutral	True
480.816	0.45	Control	0.7059000000000001	n/a	Yes	2.78	n/a	n/a	GoodResponse	0	n/a	n/a	7	50	Blank	Neutral	True
481.268	1.45	Control	0.7059000000000001	n/a	Yes	2.78	n/a	5.0	GoodResponse	0	0.022	480.29	7	50	Feedback	Neutral	True
482.722	2.78	Control	0.7059000000000001	n/a	Yes	2.78	n/a	n/a	GoodResponse	0	0.0	n/a	7	50	ISIslide	Neutral	True
485.53	0.25	Control	0.6923	0.001	No	2.72	0.03	n/a	NoResponse	0	n/a	n/a	7	51	Cue	Neutral	True
485.781	3.95	Control	0.6923	0.0	No	2.72	0.001	n/a	NoResponse	0	n/a	n/a	7	51	Fixation	Neutral	True
489.726	0.24	Control	0.6923	0.004	No	2.72	-0.004	2.0	NoResponse	0	0.288	489.014	7	51	Target	Neutral	True
489.977	0.46	Control	0.6923	n/a	No	2.72	n/a	n/a	NoResponse	0	n/a	n/a	7	51	Blank	Neutral	True
490.014	0.3	Control	0.6923	0.004	No	2.72	-0.004	2.0	NoResponse	0	0.288	n/a	7	51	ButtonPress	Neutral	True
490.428	1.45	Control	0.6923	n/a	No	2.72	n/a	5.0	NoResponse	0	0.032	489.46	7	51	Feedback	Neutral	True
491.883	2.72	Control	0.6923	n/a	No	2.72	n/a	n/a	NoResponse	0	0.0	n/a	7	51	ISIslide	Neutral	True
494.624	0.25	Control	0.6981	0.0	Yes	2.626	0.024	n/a	GoodResponse	0	n/a	n/a	7	52	Cue	Neutral	True
494.875	4.05	Control	0.6981	0.0	Yes	2.626	0.001	n/a	GoodResponse	0	n/a	n/a	7	52	Fixation	Neutral	True
498.921	0.23	Control	0.6981	0.003	Yes	2.626	-0.003	2.0	GoodResponse	0	0.215	498.136	7	52	Target	Neutral	True
499.136	0.3	Control	0.6981	0.003	Yes	2.626	-0.003	2.0	GoodResponse	0	0.215	n/a	7	52	ButtonPress	Neutral	True
499.155	0.47	Control	0.6981	n/a	Yes	2.626	n/a	n/a	GoodResponse	0	n/a	n/a	7	52	Blank	Neutral	True
499.623	1.45	Control	0.6981	n/a	Yes	2.626	n/a	5.0	GoodResponse	0	0.007	498.63	7	52	Feedback	Neutral	True
501.077	2.626	Control	0.6981	n/a	Yes	2.626	n/a	n/a	GoodResponse	0	0.0	n/a	7	52	ISIslide	Neutral	True
503.718	0.25	Win2	0.7037	0.0	Yes	2.932	0.018	n/a	GoodResponse	1	n/a	n/a	8	53	Cue	Win	True
503.969	4.05	Win2	0.7037	0.0	Yes	2.932	0.001	n/a	GoodResponse	1	n/a	n/a	8	53	Fixation	Win	True
508.014	0.22	Win2	0.7037	0.004	Yes	2.932	-0.004	2.0	GoodResponse	1	0.219	507.233	8	53	Target	Win	True
508.233	0.3	Win2	0.7037	0.004	Yes	2.932	-0.004	2.0	GoodResponse	1	0.219	n/a	8	53	ButtonPress	Win	True
508.249	0.48	Win2	0.7037	n/a	Yes	2.932	n/a	n/a	GoodResponse	1	n/a	n/a	8	53	Blank	Win	True
508.717	1.45	Win2	0.7037	n/a	Yes	2.932	n/a	5.0	GoodResponse	1	0.035	507.752	8	53	Feedback	Win	True
510.171	2.932	Win2	0.7037	n/a	Yes	2.932	n/a	n/a	GoodResponse	1	0.0	n/a	8	53	ISIslide	Win	True
513.13	0.25	Win2	0.7091	0.0	Yes	2.72	0.03	n/a	GoodResponse	1	n/a	n/a	9	54	Cue	Win	True
513.381	3.95	Win2	0.7091	0.0	Yes	2.72	0.001	n/a	GoodResponse	1	n/a	n/a	9	54	Fixation	Win	True
517.326	0.21	Win2	0.7091	0.004	Yes	2.72	-0.004	2.0	GoodResponse	1	0.194	516.52	9	54	Target	Win	True
517.52	0.3	Win2	0.7091	0.004	Yes	2.72	-0.004	2.0	GoodResponse	1	0.194	n/a	9	54	ButtonPress	Win	True
517.543	0.49	Win2	0.7091	n/a	Yes	2.72	n/a	n/a	GoodResponse	1	n/a	n/a	9	54	Blank	Win	True
518.028	1.45	Win2	0.7091	n/a	Yes	2.72	n/a	5.0	GoodResponse	1	0.041	517.069	9	54	Feedback	Win	True
519.482	2.72	Win2	0.7091	n/a	Yes	2.72	n/a	n/a	GoodResponse	1	0.0	n/a	9	54	ISIslide	Win	True
522.224	0.25	Control	0.6964	0.0	No	3.026	0.024	n/a	NoResponse	0	n/a	n/a	9	55	Cue	Neutral	True
522.474	3.95	Control	0.6964	0.001	No	3.026	0.0	n/a	NoResponse	0	n/a	n/a	9	55	Fixation	Neutral	True
526.42	0.2	Control	0.6964	0.004	No	3.026	-0.004	2.0	NoResponse	0	0.224	525.644	9	55	Target	Neutral	True
526.62	0.5	Control	0.6964	n/a	No	3.026	n/a	n/a	NoResponse	0	n/a	n/a	9	55	Blank	Neutral	True
526.644	0.3	Control	0.6964	0.004	No	3.026	-0.004	2.0	NoResponse	0	0.224	n/a	9	55	ButtonPress	Neutral	True
527.122	1.45	Control	0.6964	n/a	No	3.026	n/a	5.0	NoResponse	0	0.021	526.143	9	55	Feedback	Neutral	True
528.576	3.026	Control	0.6964	n/a	No	3.026	n/a	n/a	NoResponse	0	0.0	n/a	9	55	ISIslide	Neutral	True
531.619	0.25	Control	0.6842	0.0	No	2.831	0.019	n/a	NoResponse	0	n/a	n/a	9	56	Cue	Neutral	True
531.869	3.95	Control	0.6842	0.0	No	2.831	0.0	n/a	NoResponse	0	n/a	n/a	9	56	Fixation	Neutral	True
535.814	0.19	Control	0.6842	0.005	No	2.831	-0.005	2.0	NoResponse	0	0.27	535.084	9	56	Target	Neutral	True
536.015	0.51	Control	0.6842	n/a	No	2.831	n/a	n/a	NoResponse	0	n/a	n/a	9	56	Blank	Neutral	True
536.084	0.3	Control	0.6842	0.005	No	2.831	-0.005	2.0	NoResponse	0	0.27	n/a	9	56	ButtonPress	Neutral	True
536.517	1.45	Control	0.6842	n/a	No	2.831	n/a	5.0	NoResponse	0	0.04	535.557	9	56	Feedback	Neutral	True
537.971	2.831	Control	0.6842	n/a	No	2.831	n/a	n/a	NoResponse	0	0.0	n/a	9	56	ISIslide	Neutral	True
540.829	0.25	Control	0.6724	0.001	No	3.471	0.029	n/a	NoResponse	0	n/a	n/a	9	57	Cue	Neutral	True
541.08	4.0	Control	0.6724	0.0	No	3.471	0.001	n/a	NoResponse	0	n/a	n/a	9	57	Fixation	Neutral	True
545.076	0.18	Control	0.6724	0.003	No	3.471	-0.003	2.0	NoResponse	0	0.355	544.431	9	57	Target	Neutral	True
545.259	0.52	Control	0.6724	n/a	No	3.471	n/a	n/a	NoResponse	0	n/a	n/a	9	57	Blank	Neutral	True
545.431	0.3	Control	0.6724	0.003	No	3.471	-0.003	2.0	NoResponse	0	0.355	n/a	9	57	ButtonPress	Neutral	True
545.778	1.45	Control	0.6724	n/a	No	3.471	n/a	5.0	NoResponse	0	0.048	544.826	9	57	Feedback	Neutral	True
547.232	3.471	Control	0.6724	n/a	No	3.471	n/a	n/a	NoResponse	0	0.0	n/a	9	57	ISIslide	Neutral	True
550.726	0.25	Win2	0.6609999999999999	0.0	No	2.724	0.026	n/a	NoResponse	0	n/a	n/a	9	58	Cue	MissedWin	True
550.977	4.05	Win2	0.6609999999999999	0.0	No	2.724	0.001	n/a	NoResponse	0	n/a	n/a	9	58	Fixation	MissedWin	True
555.022	0.17	Win2	0.6609999999999999	0.004	No	2.724	-0.004	2.0	NoResponse	0	0.193	554.215	9	58	Target	MissedWin	True
555.206	0.53	Win2	0.6609999999999999	n/a	No	2.724	n/a	n/a	NoResponse	0	n/a	n/a	9	58	Blank	MissedWin	True
555.215	0.3	Win2	0.6609999999999999	0.004	No	2.724	-0.004	2.0	NoResponse	0	0.193	n/a	9	58	ButtonPress	MissedWin	True
555.724	1.45	Win2	0.6609999999999999	n/a	No	2.724	n/a	5.0	NoResponse	0	0.008	554.732	9	58	Feedback	MissedWin	True
557.178	2.724	Win2	0.6609999999999999	n/a	No	2.724	n/a	n/a	NoResponse	0	0.0	n/a	9	58	ISIslide	MissedWin	True
559.92	0.25	Lose2	0.65	0.0	No	2.68	0.02	n/a	NoResponse	-1	n/a	n/a	8	59	Cue	Loss	True
560.171	4.0	Lose2	0.65	0.0	No	2.68	0.001	n/a	NoResponse	-1	n/a	n/a	8	59	Fixation	Loss	True
564.166	0.17	Lose2	0.65	0.004	No	2.68	-0.004	2.0	NoResponse	-1	0.193	563.359	8	59	Target	Loss	True
564.35	0.53	Lose2	0.65	n/a	No	2.68	n/a	n/a	NoResponse	-1	n/a	n/a	8	59	Blank	Loss	True
564.359	0.3	Lose2	0.65	0.004	No	2.68	-0.004	2.0	NoResponse	-1	0.193	n/a	8	59	ButtonPress	Loss	True
564.868	1.45	Lose2	0.65	n/a	No	2.68	n/a	5.0	NoResponse	-1	0.03	563.898	8	59	Feedback	Loss	True
566.323	2.68	Lose2	0.65	n/a	No	2.68	n/a	n/a	NoResponse	-1	0.0	n/a	8	59	ISIslide	Loss	True
569.031	0.25	Control	0.6393	0.0	No	2.669	0.031	n/a	NoResponse	0	n/a	n/a	8	60	Cue	Neutral	True
569.281	4.0	Control	0.6393	0.0	No	2.669	0.0	n/a	NoResponse	0	n/a	n/a	8	60	Fixation	Neutral	True
573.277	0.18	Control	0.6393	0.004	No	2.669	-0.004	2.0	NoResponse	0	0.331	572.608	8	60	Target	Neutral	True
573.461	0.52	Control	0.6393	n/a	No	2.669	n/a	n/a	NoResponse	0	n/a	n/a	8	60	Blank	Neutral	True
573.608	0.3	Control	0.6393	0.004	No	2.669	-0.004	2.0	NoResponse	0	0.331	n/a	8	60	ButtonPress	Neutral	True
573.979	1.45	Control	0.6393	n/a	No	2.669	n/a	5.0	NoResponse	0	0.041	573.02	8	60	Feedback	Neutral	True
575.433	2.669	Control	0.6393	n/a	No	2.669	n/a	n/a	NoResponse	0	0.0	n/a	8	60	ISIslide	Neutral	True
578.125	0.25	Lose2	0.6452	0.0	Yes	2.975	0.025	n/a	GoodResponse	0	n/a	n/a	8	61	Cue	AvoidedLoss	True
578.375	4.0	Lose2	0.6452	0.0	Yes	2.975	0.0	n/a	GoodResponse	0	n/a	n/a	8	61	Fixation	AvoidedLoss	True
582.371	0.19	Lose2	0.6452	0.004	Yes	2.975	-0.004	2.0	GoodResponse	0	0.188	581.559	8	61	Target	AvoidedLoss	True
582.559	0.3	Lose2	0.6452	0.004	Yes	2.975	-0.004	2.0	GoodResponse	0	0.188	n/a	8	61	ButtonPress	AvoidedLoss	True
582.571	0.51	Lose2	0.6452	n/a	Yes	2.975	n/a	n/a	GoodResponse	0	n/a	n/a	8	61	Blank	AvoidedLoss	True
583.073	1.45	Lose2	0.6452	n/a	Yes	2.975	n/a	5.0	GoodResponse	0	0.021	582.094	8	61	Feedback	AvoidedLoss	True
584.527	2.975	Lose2	0.6452	n/a	Yes	2.975	n/a	n/a	GoodResponse	0	0.0	n/a	8	61	ISIslide	AvoidedLoss	True
587.519	0.25	Lose2	0.6507999999999999	0.0	Yes	2.881	0.019	n/a	GoodResponse	0	n/a	n/a	8	62	Cue	AvoidedLoss	True
587.77	3.9	Lose2	0.6507999999999999	0.0	Yes	2.881	0.001	n/a	GoodResponse	0	n/a	n/a	8	62	Fixation	AvoidedLoss	True
591.665	0.2	Lose2	0.6507999999999999	0.004	Yes	2.881	-0.004	2.0	GoodResponse	0	0.179	590.844	8	62	Target	AvoidedLoss	True
591.844	0.3	Lose2	0.6507999999999999	0.004	Yes	2.881	-0.004	2.0	GoodResponse	0	0.179	n/a	8	62	ButtonPress	AvoidedLoss	True
591.866	0.5	Lose2	0.6507999999999999	n/a	Yes	2.881	n/a	n/a	GoodResponse	0	n/a	n/a	8	62	Blank	AvoidedLoss	True
592.367	1.45	Lose2	0.6507999999999999	n/a	Yes	2.881	n/a	5.0	GoodResponse	0	0.044	591.411	8	62	Feedback	AvoidedLoss	True
593.822	2.881	Lose2	0.6507999999999999	n/a	Yes	2.881	n/a	n/a	GoodResponse	0	0.0	n/a	8	62	ISIslide	AvoidedLoss	True
596.73	0.25	Lose2	0.6406000000000001	0.0	No	2.62	0.03	n/a	NoResponse	-1	n/a	n/a	7	63	Cue	Loss	True
596.981	4.05	Lose2	0.6406000000000001	0.0	No	2.62	0.001	n/a	NoResponse	-1	n/a	n/a	7	63	Fixation	Loss	True
601.027	0.21	Lose2	0.6406000000000001	0.003	No	2.62	-0.003	2.0	NoResponse	-1	0.316	600.343	7	63	Target	Loss	True
601.244	0.49	Lose2	0.6406000000000001	n/a	No	2.62	n/a	n/a	NoResponse	-1	n/a	n/a	7	63	Blank	Loss	True
601.343	0.3	Lose2	0.6406000000000001	0.003	No	2.62	-0.003	2.0	NoResponse	-1	0.316	n/a	7	63	ButtonPress	Loss	True
601.729	1.45	Lose2	0.6406000000000001	n/a	No	2.62	n/a	5.0	NoResponse	-1	0.048	600.777	7	63	Feedback	Loss	True
603.183	2.62	Lose2	0.6406000000000001	n/a	No	2.62	n/a	n/a	NoResponse	-1	0.0	n/a	7	63	ISIslide	Loss	True
605.824	0.25	Win2	0.6462	0.0	Yes	3.126	0.024	n/a	GoodResponse	1	n/a	n/a	8	64	Cue	Win	True
606.075	4.15	Win2	0.6462	0.0	Yes	3.126	0.001	n/a	GoodResponse	1	n/a	n/a	8	64	Fixation	Win	True
610.221	0.22	Win2	0.6462	0.003	Yes	3.126	-0.003	2.0	GoodResponse	1	0.207	609.428	8	64	Target	Win	True
610.428	0.3	Win2	0.6462	0.003	Yes	3.126	-0.003	2.0	GoodResponse	1	0.207	n/a	8	64	ButtonPress	Win	True
610.455	0.48	Win2	0.6462	n/a	Yes	3.126	n/a	n/a	GoodResponse	1	n/a	n/a	8	64	Blank	Win	True
610.923	1.45	Win2	0.6462	n/a	Yes	3.126	n/a	5.0	GoodResponse	1	0.024	609.947	8	64	Feedback	Win	True
612.377	3.126	Win2	0.6462	n/a	Yes	3.126	n/a	n/a	GoodResponse	1	0.0	n/a	8	64	ISIslide	Win	True
615.52	0.25	Control	0.6515000000000001	0.0	Yes	2.78	0.02	n/a	GoodResponse	0	n/a	n/a	8	65	Cue	Neutral	True
615.771	4.0	Control	0.6515000000000001	0.0	Yes	2.78	0.001	n/a	GoodResponse	0	n/a	n/a	8	65	Fixation	Neutral	True
619.766	0.23	Control	0.6515000000000001	0.004	Yes	2.78	-0.004	2.0	GoodResponse	0	0.192	618.958	8	65	Target	Neutral	True
619.958	0.3	Control	0.6515000000000001	0.004	Yes	2.78	-0.004	2.0	GoodResponse	0	0.192	n/a	8	65	ButtonPress	Neutral	True
620	0.47	Control	0.6515000000000001	n/a	Yes	2.78	n/a	n/a	GoodResponse	0	n/a	n/a	8	65	Blank	Neutral	True
620.468	1.45	Control	0.6515000000000001	n/a	Yes	2.78	n/a	5.0	GoodResponse	0	0.04	619.508	8	65	Feedback	Neutral	True
621.922	2.78	Control	0.6515000000000001	n/a	Yes	2.78	n/a	n/a	GoodResponse	0	0.0	n/a	8	65	ISIslide	Neutral	True
624.731	0.25	Win2	0.6567000000000001	0.0	Yes	2.769	0.031	n/a	GoodResponse	1	n/a	n/a	9	66	Cue	Win	True
624.982	3.9	Win2	0.6567000000000001	0.0	Yes	2.769	0.001	n/a	GoodResponse	1	n/a	n/a	9	66	Fixation	Win	True
628.877	0.24	Win2	0.6567000000000001	0.004	Yes	2.769	-0.004	2.0	GoodResponse	1	0.206	628.083	9	66	Target	Win	True
629.083	0.3	Win2	0.6567000000000001	0.004	Yes	2.769	-0.004	2.0	GoodResponse	1	0.206	n/a	9	66	ButtonPress	Win	True
629.127	0.46	Win2	0.6567000000000001	n/a	Yes	2.769	n/a	n/a	GoodResponse	1	n/a	n/a	9	66	Blank	Win	True
629.579	1.45	Win2	0.6567000000000001	n/a	Yes	2.769	n/a	5.0	GoodResponse	1	0.007	628.586	9	66	Feedback	Win	True
631.033	2.769	Win2	0.6567000000000001	n/a	Yes	2.769	n/a	n/a	GoodResponse	1	0.0	n/a	9	66	ISIslide	Win	True
633.825	0.25	Control	0.6470999999999999	0.0	No	2.725	0.025	n/a	NoResponse	0	n/a	n/a	9	67	Cue	Neutral	True
634.076	3.95	Control	0.6470999999999999	0.0	No	2.725	0.001	n/a	NoResponse	0	n/a	n/a	9	67	Fixation	Neutral	True
638.021	0.24	Control	0.6470999999999999	0.004	No	2.725	-0.004	2.0	NoResponse	0	0.259	637.28	9	67	Target	Neutral	True
638.271	0.46	Control	0.6470999999999999	n/a	No	2.725	n/a	n/a	NoResponse	0	n/a	n/a	9	67	Blank	Neutral	True
638.28	0.3	Control	0.6470999999999999	0.004	No	2.725	-0.004	2.0	NoResponse	0	0.259	n/a	9	67	ButtonPress	Neutral	True
638.723	1.45	Control	0.6470999999999999	n/a	No	2.725	n/a	5.0	NoResponse	0	0.029	637.752	9	67	Feedback	Neutral	True
640.177	2.725	Control	0.6470999999999999	n/a	No	2.725	n/a	n/a	NoResponse	0	0.0	n/a	9	67	ISIslide	Neutral	True
642.919	0.25	Win2	0.6522	0.0	Yes	3.081	0.019	n/a	GoodResponse	1	n/a	n/a	10	68	Cue	Win	True
643.169	4.0	Win2	0.6522	0.001	Yes	3.081	0.0	n/a	GoodResponse	1	n/a	n/a	10	68	Fixation	Win	True
647.165	0.25	Win2	0.6522	0.004	Yes	3.081	-0.004	2.0	GoodResponse	1	0.181	646.346	10	68	Target	Win	True
647.346	0.3	Win2	0.6522	0.004	Yes	3.081	-0.004	2.0	GoodResponse	1	0.181	n/a	10	68	ButtonPress	Win	True
647.416	0.45	Win2	0.6522	n/a	Yes	3.081	n/a	n/a	GoodResponse	1	n/a	n/a	10	68	Blank	Win	True
647.867	1.45	Win2	0.6522	n/a	Yes	3.081	n/a	5.0	GoodResponse	1	0.008	646.875	10	68	Feedback	Win	True
649.321	3.081	Win2	0.6522	n/a	Yes	3.081	n/a	n/a	GoodResponse	1	0.0	n/a	10	68	ISIslide	Win	True
652.431	0.25	Win2	0.6570999999999999	0.0	Yes	3.219	0.031	n/a	GoodResponse	1	n/a	n/a	11	69	Cue	Win	True
652.681	3.95	Win2	0.6570999999999999	0.0	Yes	3.219	0.0	n/a	GoodResponse	1	n/a	n/a	11	69	Fixation	Win	True
656.643	0.26	Win2	0.6570999999999999	0.0	Yes	3.219	0.012	2.0	GoodResponse	1	0.196	655.839	11	69	Target	Win	True
656.839	0.3	Win2	0.6570999999999999	0.0	Yes	3.219	0.012	2.0	GoodResponse	1	0.196	n/a	11	69	ButtonPress	Win	True
656.894	0.44	Win2	0.6570999999999999	n/a	Yes	3.219	n/a	n/a	GoodResponse	1	n/a	n/a	11	69	Blank	Win	True
657.329	1.45	Win2	0.6570999999999999	n/a	Yes	3.219	n/a	5.0	GoodResponse	1	0.008	656.337	11	69	Feedback	Win	True
658.783	3.219	Win2	0.6570999999999999	n/a	Yes	3.219	n/a	n/a	GoodResponse	1	0.0	n/a	11	69	ISIslide	Win	True
662.026	0.25	Lose2	0.662	0.0	Yes	3.024	0.026	n/a	GoodResponse	0	n/a	n/a	11	70	Cue	AvoidedLoss	True
662.277	4.05	Lose2	0.662	0.0	Yes	3.024	0.001	n/a	GoodResponse	0	n/a	n/a	11	70	Fixation	AvoidedLoss	True
666.322	0.26	Lose2	0.662	0.004	Yes	3.024	-0.004	2.0	GoodResponse	0	0.193	665.515	11	70	Target	AvoidedLoss	True
666.515	0.3	Lose2	0.662	0.004	Yes	3.024	-0.004	2.0	GoodResponse	0	0.193	n/a	11	70	ButtonPress	AvoidedLoss	True
666.59	0.44	Lose2	0.662	n/a	Yes	3.024	n/a	n/a	GoodResponse	0	n/a	n/a	11	70	Blank	AvoidedLoss	True
667.024	1.45	Lose2	0.662	n/a	Yes	3.024	n/a	5.0	GoodResponse	0	0.021	666.045	11	70	Feedback	AvoidedLoss	True
668.479	3.024	Lose2	0.662	n/a	Yes	3.024	n/a	n/a	GoodResponse	0	0.0	n/a	11	70	ISIslide	AvoidedLoss	True
671.521	0.25	Win2	0.6528	0.0	No	2.729	0.021	n/a	NoResponse	0	n/a	n/a	11	71	Cue	MissedWin	True
671.772	4.05	Win2	0.6528	0.0	No	2.729	0.001	n/a	NoResponse	0	n/a	n/a	11	71	Fixation	MissedWin	True
675.817	0.26	Win2	0.6528	0.004	No	2.729	-0.004	2.0	NoResponse	0	0.284	675.101	11	71	Target	MissedWin	True
676.085	0.44	Win2	0.6528	n/a	No	2.729	n/a	n/a	NoResponse	0	n/a	n/a	11	71	Blank	MissedWin	True
676.101	0.3	Win2	0.6528	0.004	No	2.729	-0.004	2.0	NoResponse	0	0.284	n/a	11	71	ButtonPress	MissedWin	True
676.519	1.45	Win2	0.6528	n/a	No	2.729	n/a	5.0	NoResponse	0	0.038	675.557	11	71	Feedback	MissedWin	True
677.974	2.729	Win2	0.6528	n/a	No	2.729	n/a	n/a	NoResponse	0	0.0	n/a	11	71	ISIslide	MissedWin	True
680.715	0.25	Win2	0.6575	0.0	Yes	2.785	0.015	n/a	GoodResponse	1	n/a	n/a	12	72	Cue	Win	True
680.966	4.1	Win2	0.6575	0.0	Yes	2.785	0.001	n/a	GoodResponse	1	n/a	n/a	12	72	Fixation	Win	True
685.062	0.27	Win2	0.6575	0.003	Yes	2.785	-0.003	2.0	GoodResponse	1	0.229	684.291	12	72	Target	Win	True
685.291	0.3	Win2	0.6575	0.003	Yes	2.785	-0.003	2.0	GoodResponse	1	0.229	n/a	12	72	ButtonPress	Win	True
685.346	0.43	Win2	0.6575	n/a	Yes	2.785	n/a	n/a	GoodResponse	1	n/a	n/a	12	72	Blank	Win	True
685.764	1.45	Win2	0.6575	n/a	Yes	2.785	n/a	5.0	GoodResponse	1	0.012	684.776	12	72	Feedback	Win	True
687.218	2.785	Win2	0.6575	n/a	Yes	2.785	n/a	n/a	GoodResponse	1	0.0	n/a	12	72	ISIslide	Win	True
690.027	0.25	Win2	0.6622	0.0	Yes	2.673	0.027	n/a	GoodResponse	1	n/a	n/a	13	73	Cue	Win	True
690.277	4.0	Win2	0.6622	0.0	Yes	2.673	0.0	n/a	GoodResponse	1	n/a	n/a	13	73	Fixation	Win	True
694.273	0.27	Win2	0.6622	0.004	Yes	2.673	-0.004	2.0	GoodResponse	1	0.179	693.452	13	73	Target	Win	True
694.452	0.3	Win2	0.6622	0.004	Yes	2.673	-0.004	2.0	GoodResponse	1	0.179	n/a	13	73	ButtonPress	Win	True
694.557	0.43	Win2	0.6622	n/a	Yes	2.673	n/a	n/a	GoodResponse	1	n/a	n/a	13	73	Blank	Win	True
694.975	1.45	Win2	0.6622	n/a	Yes	2.673	n/a	5.0	GoodResponse	1	0.02	693.995	13	73	Feedback	Win	True
696.429	2.673	Win2	0.6622	n/a	Yes	2.673	n/a	n/a	GoodResponse	1	0.0	n/a	13	73	ISIslide	Win	True
699.12	0.25	Lose2	0.6667000000000001	0.001	Yes	2.63	0.02	n/a	GoodResponse	0	n/a	n/a	13	74	Cue	AvoidedLoss	True
699.371	4.05	Lose2	0.6667000000000001	0.0	Yes	2.63	0.001	n/a	GoodResponse	0	n/a	n/a	13	74	Fixation	AvoidedLoss	True
703.417	0.27	Lose2	0.6667000000000001	0.003	Yes	2.63	-0.003	2.0	GoodResponse	0	0.225	702.642	13	74	Target	AvoidedLoss	True
703.642	0.3	Lose2	0.6667000000000001	0.003	Yes	2.63	-0.003	2.0	GoodResponse	0	0.225	n/a	13	74	ButtonPress	AvoidedLoss	True
703.701	0.43	Lose2	0.6667000000000001	n/a	Yes	2.63	n/a	n/a	GoodResponse	0	n/a	n/a	13	74	Blank	AvoidedLoss	True
704.119	1.45	Lose2	0.6667000000000001	n/a	Yes	2.63	n/a	5.0	GoodResponse	0	0.047	703.166	13	74	Feedback	AvoidedLoss	True
705.573	2.63	Lose2	0.6667000000000001	n/a	Yes	2.63	n/a	n/a	GoodResponse	0	0.0	n/a	13	74	ISIslide	AvoidedLoss	True
708.231	0.25	Lose2	0.6711	0.0	Yes	2.919	0.031	n/a	GoodResponse	0	n/a	n/a	13	75	Cue	AvoidedLoss	True
708.482	3.95	Lose2	0.6711	0.0	Yes	2.919	0.001	n/a	GoodResponse	0	n/a	n/a	13	75	Fixation	AvoidedLoss	True
712.427	0.26	Lose2	0.6711	0.004	Yes	2.919	-0.004	2.0	GoodResponse	0	0.205	711.632	13	75	Target	AvoidedLoss	True
712.632	0.3	Lose2	0.6711	0.004	Yes	2.919	-0.004	2.0	GoodResponse	0	0.205	n/a	13	75	ButtonPress	AvoidedLoss	True
712.694	0.44	Lose2	0.6711	n/a	Yes	2.919	n/a	n/a	GoodResponse	0	n/a	n/a	13	75	Blank	AvoidedLoss	True
713.129	1.45	Lose2	0.6711	n/a	Yes	2.919	n/a	5.0	GoodResponse	0	0.013	712.142	13	75	Feedback	AvoidedLoss	True
714.583	2.919	Lose2	0.6711	n/a	Yes	2.919	n/a	n/a	GoodResponse	0	0.0	n/a	13	75	ISIslide	AvoidedLoss	True
717.526	0.25	Control	0.6623	0.0	No	3.224	0.026	n/a	NoResponse	0	n/a	n/a	13	76	Cue	Neutral	True
717.776	4.05	Control	0.6623	0.0	No	3.224	0.0	n/a	NoResponse	0	n/a	n/a	13	76	Fixation	Neutral	True
721.822	0.25	Control	0.6623	0.004	No	3.224	-0.004	2.0	NoResponse	0	0.262	721.084	13	76	Target	Neutral	True
722.073	0.45	Control	0.6623	n/a	No	3.224	n/a	n/a	NoResponse	0	n/a	n/a	13	76	Blank	Neutral	True
722.084	0.3	Control	0.6623	0.004	No	3.224	-0.004	2.0	NoResponse	0	0.262	n/a	13	76	ButtonPress	Neutral	True
722.524	1.45	Control	0.6623	n/a	No	3.224	n/a	5.0	NoResponse	0	0.032	721.556	13	76	Feedback	Neutral	True
723.978	3.224	Control	0.6623	n/a	No	3.224	n/a	n/a	NoResponse	0	0.0	n/a	13	76	ISIslide	Neutral	True
727.221	0.25	Lose2	0.6537999999999999	0.0	No	2.579	0.021	n/a	NoResponse	-1	n/a	n/a	12	77	Cue	Loss	True
727.472	3.95	Lose2	0.6537999999999999	0.0	No	2.579	0.001	2.0	NoResponse	-1	3.818	730.29	12	77	Fixation	Loss	True
731.29	0.3	Lose2	0.6537999999999999	0.0	No	2.579	0.001	2.0	NoResponse	-1	3.818	n/a	12	77	ButtonPress	Loss	True
731.417	0.25	Lose2	0.6537999999999999	0.004	No	2.579	-0.004	n/a	NoResponse	-1	n/a	n/a	12	77	Target	Loss	True
731.668	0.45	Lose2	0.6537999999999999	n/a	No	2.579	n/a	n/a	NoResponse	-1	n/a	n/a	12	77	Blank	Loss	True
732.119	1.45	Lose2	0.6537999999999999	n/a	No	2.579	n/a	5.0	NoResponse	-1	0.047	731.166	12	77	Feedback	Loss	True
733.574	2.579	Lose2	0.6537999999999999	n/a	No	2.579	n/a	n/a	NoResponse	-1	0.0	n/a	12	77	ISIslide	Loss	True
