onset	duration	cue_type	current_mean_accuracy	duration_error	is_hit	isi_adjusted	onset_delay	response	response_type	reward	rt	rt_time	total_reward	trial_number	trial_phase	trial_type	one_press
11.106	0.25	Control	1.0	0.0	Yes	2.944	0.006	n/a	GoodResponse	0	n/a	n/a	0	0	Cue	Neutral	True
11.357	3.85	Control	1.0	0.0	Yes	2.944	0.001	n/a	GoodResponse	0	n/a	n/a	0	0	Fixation	Neutral	True
15.202	0.4	Control	1.0	0.004	Yes	2.944	-0.004	2.0	GoodResponse	0	0.246	14.448	0	0	Target	Neutral	True
15.448	0.3	Control	1.0	0.004	Yes	2.944	-0.004	2.0	GoodResponse	0	0.246	n/a	0	0	ButtonPress	Neutral	True
15.603	0.3	Control	1.0	n/a	Yes	2.944	n/a	n/a	GoodResponse	0	n/a	n/a	0	0	Blank	Neutral	True
15.904	1.45	Control	1.0	n/a	Yes	2.944	n/a	5.0	GoodResponse	0	0.023	14.927	0	0	Feedback	Neutral	True
17.358	2.944	Control	1.0	n/a	Yes	2.944	n/a	n/a	GoodResponse	0	0.0	n/a	0	0	ISIslide	Neutral	True
20.317	0.25	Lose2	1.0	0.0	Yes	2.783	0.017	n/a	GoodResponse	0	n/a	n/a	0	1	Cue	AvoidedLoss	True
20.568	4.0	Lose2	1.0	0.0	Yes	2.783	0.001	n/a	GoodResponse	0	n/a	n/a	0	1	Fixation	AvoidedLoss	True
24.563	0.39	Lose2	1.0	0.004	Yes	2.783	-0.004	2.0	GoodResponse	0	0.197	23.76	0	1	Target	AvoidedLoss	True
24.76	0.3	Lose2	1.0	0.004	Yes	2.783	-0.004	2.0	GoodResponse	0	0.197	n/a	0	1	ButtonPress	AvoidedLoss	True
24.965	0.31	Lose2	1.0	n/a	Yes	2.783	n/a	n/a	GoodResponse	0	n/a	n/a	0	1	Blank	AvoidedLoss	True
25.265	1.45	Lose2	1.0	n/a	Yes	2.783	n/a	5.0	GoodResponse	0	0.028	24.293	0	1	Feedback	AvoidedLoss	True
26.72	2.783	Lose2	1.0	n/a	Yes	2.783	n/a	n/a	GoodResponse	0	0.0	n/a	0	1	ISIslide	AvoidedLoss	True
29.528	0.25	Control	1.0	0.0	Yes	2.572	0.028	n/a	GoodResponse	0	n/a	n/a	0	2	Cue	Neutral	True
29.779	4.1	Control	1.0	0.0	Yes	2.572	0.001	n/a	GoodResponse	0	n/a	n/a	0	2	Fixation	Neutral	True
33.875	0.38	Control	1.0	0.003	Yes	2.572	-0.003	2.0	GoodResponse	0	0.166	33.041	0	2	Target	Neutral	True
34.041	0.3	Control	1.0	0.003	Yes	2.572	-0.003	2.0	GoodResponse	0	0.166	n/a	0	2	ButtonPress	Neutral	True
34.259	0.32	Control	1.0	n/a	Yes	2.572	n/a	n/a	GoodResponse	0	n/a	n/a	0	2	Blank	Neutral	True
34.577	1.45	Control	1.0	n/a	Yes	2.572	n/a	5.0	GoodResponse	0	0.032	33.609	0	2	Feedback	Neutral	True
36.031	2.572	Control	1.0	n/a	Yes	2.572	n/a	n/a	GoodResponse	0	0.0	n/a	0	2	ISIslide	Neutral	True
38.622	0.25	Win2	1.0	0.0	Yes	2.828	0.022	n/a	GoodResponse	1	n/a	n/a	1	3	Cue	Win	True
38.873	3.95	Win2	1.0	0.0	Yes	2.828	0.001	n/a	GoodResponse	1	n/a	n/a	1	3	Fixation	Win	True
42.818	0.37	Win2	1.0	0.004	Yes	2.828	-0.004	2.0	GoodResponse	1	0.224	42.042	1	3	Target	Win	True
43.042	0.3	Win2	1.0	0.004	Yes	2.828	-0.004	2.0	GoodResponse	1	0.224	n/a	1	3	ButtonPress	Win	True
43.203	0.33	Win2	1.0	n/a	Yes	2.828	n/a	n/a	GoodResponse	1	n/a	n/a	1	3	Blank	Win	True
43.52	1.45	Win2	1.0	n/a	Yes	2.828	n/a	5.0	GoodResponse	1	0.016	42.536	1	3	Feedback	Win	True
44.974	2.828	Win2	1.0	n/a	Yes	2.828	n/a	n/a	GoodResponse	1	0.0	n/a	1	3	ISIslide	Win	True
47.816	0.25	Win2	1.0	0.0	Yes	3.284	0.016	n/a	GoodResponse	1	n/a	n/a	2	4	Cue	Win	True
48.067	4.0	Win2	1.0	0.0	Yes	3.284	0.001	n/a	GoodResponse	1	n/a	n/a	2	4	Fixation	Win	True
52.062	0.36	Win2	1.0	0.004	Yes	3.284	-0.004	2.0	GoodResponse	1	0.221	51.283	2	4	Target	Win	True
52.283	0.3	Win2	1.0	0.004	Yes	3.284	-0.004	2.0	GoodResponse	1	0.221	n/a	2	4	ButtonPress	Win	True
52.43	0.34	Win2	1.0	n/a	Yes	3.284	n/a	n/a	GoodResponse	1	n/a	n/a	2	4	Blank	Win	True
52.764	1.45	Win2	1.0	n/a	Yes	3.284	n/a	5.0	GoodResponse	1	0.041	51.805	2	4	Feedback	Win	True
54.219	3.284	Win2	1.0	n/a	Yes	3.284	n/a	n/a	GoodResponse	1	0.0	n/a	2	4	ISIslide	Win	True
57.529	0.25	Win2	1.0	0.0	Yes	2.771	0.029	n/a	GoodResponse	1	n/a	n/a	3	5	Cue	Win	True
57.78	4.0	Win2	1.0	0.0	Yes	2.771	0.001	n/a	GoodResponse	1	n/a	n/a	3	5	Fixation	Win	True
61.775	0.35	Win2	1.0	0.004	Yes	2.771	-0.004	2.0	GoodResponse	1	0.191	60.966	3	5	Target	Win	True
61.966	0.3	Win2	1.0	0.004	Yes	2.771	-0.004	2.0	GoodResponse	1	0.191	n/a	3	5	ButtonPress	Win	True
62.126	0.35	Win2	1.0	n/a	Yes	2.771	n/a	n/a	GoodResponse	1	n/a	n/a	3	5	Blank	Win	True
62.477	1.45	Win2	1.0	n/a	Yes	2.771	n/a	5.0	GoodResponse	1	0.035	61.512	3	5	Feedback	Win	True
63.931	2.771	Win2	1.0	n/a	Yes	2.771	n/a	n/a	GoodResponse	1	0.0	n/a	3	5	ISIslide	Win	True
66.723	0.25	Lose2	1.0	0.0	Yes	2.727	0.023	n/a	GoodResponse	0	n/a	n/a	3	6	Cue	AvoidedLoss	True
66.974	3.95	Lose2	1.0	0.0	Yes	2.727	0.001	n/a	GoodResponse	0	n/a	n/a	3	6	Fixation	AvoidedLoss	True
70.919	0.34	Lose2	1.0	0.004	Yes	2.727	-0.004	2.0	GoodResponse	0	0.211	70.13	3	6	Target	AvoidedLoss	True
71.13	0.3	Lose2	1.0	0.004	Yes	2.727	-0.004	2.0	GoodResponse	0	0.211	n/a	3	6	ButtonPress	AvoidedLoss	True
71.27	0.36	Lose2	1.0	n/a	Yes	2.727	n/a	n/a	GoodResponse	0	n/a	n/a	3	6	Blank	AvoidedLoss	True
71.621	1.45	Lose2	1.0	n/a	Yes	2.727	n/a	5.0	GoodResponse	0	0.013	70.634	3	6	Feedback	AvoidedLoss	True
73.075	2.727	Lose2	1.0	n/a	Yes	2.727	n/a	n/a	GoodResponse	0	0.0	n/a	3	6	ISIslide	AvoidedLoss	True
75.817	0.25	Lose2	1.0	0.0	Yes	4.033	0.017	n/a	GoodResponse	0	n/a	n/a	3	7	Cue	AvoidedLoss	True
76.068	4.05	Lose2	1.0	0.0	Yes	4.033	0.001	n/a	GoodResponse	0	n/a	n/a	3	7	Fixation	AvoidedLoss	True
80.113	0.33	Lose2	1.0	0.004	Yes	4.033	-0.004	2.0	GoodResponse	0	0.211	79.324	3	7	Target	AvoidedLoss	True
80.324	0.3	Lose2	1.0	0.004	Yes	4.033	-0.004	2.0	GoodResponse	0	0.211	n/a	3	7	ButtonPress	AvoidedLoss	True
80.447	0.37	Lose2	1.0	n/a	Yes	4.033	n/a	n/a	GoodResponse	0	n/a	n/a	3	7	Blank	AvoidedLoss	True
80.815	1.45	Lose2	1.0	n/a	Yes	4.033	n/a	5.0	GoodResponse	0	0.039	79.854	3	7	Feedback	AvoidedLoss	True
82.27	4.033	Lose2	1.0	n/a	Yes	4.033	n/a	n/a	GoodResponse	0	0.0	n/a	3	7	ISIslide	AvoidedLoss	True
86.315	0.25	Lose2	1.0	0.0	Yes	3.035	0.015	n/a	GoodResponse	0	n/a	n/a	3	8	Cue	AvoidedLoss	True
86.566	3.95	Lose2	1.0	0.0	Yes	3.035	0.001	n/a	GoodResponse	0	n/a	n/a	3	8	Fixation	AvoidedLoss	True
90.511	0.32	Lose2	1.0	0.004	Yes	3.035	-0.004	2.0	GoodResponse	0	0.191	89.702	3	8	Target	AvoidedLoss	True
90.702	0.3	Lose2	1.0	0.004	Yes	3.035	-0.004	2.0	GoodResponse	0	0.191	n/a	3	8	ButtonPress	AvoidedLoss	True
90.845	0.38	Lose2	1.0	n/a	Yes	3.035	n/a	n/a	GoodResponse	0	n/a	n/a	3	8	Blank	AvoidedLoss	True
91.213	1.45	Lose2	1.0	n/a	Yes	3.035	n/a	5.0	GoodResponse	0	0.031	90.244	3	8	Feedback	AvoidedLoss	True
92.667	3.035	Lose2	1.0	n/a	Yes	3.035	n/a	n/a	GoodResponse	0	0.0	n/a	3	8	ISIslide	AvoidedLoss	True
95.727	0.25	Lose2	1.0	0.0	Yes	3.123	0.027	n/a	GoodResponse	0	n/a	n/a	3	9	Cue	AvoidedLoss	True
95.977	3.95	Lose2	1.0	0.0	Yes	3.123	0.0	n/a	GoodResponse	0	n/a	n/a	3	9	Fixation	AvoidedLoss	True
99.939	0.31	Lose2	1.0	0.0	Yes	3.123	0.012	2.0	GoodResponse	0	0.258	99.197	3	9	Target	AvoidedLoss	True
100.197	0.3	Lose2	1.0	0.0	Yes	3.123	0.012	2.0	GoodResponse	0	0.258	n/a	3	9	ButtonPress	AvoidedLoss	True
100.24	0.39	Lose2	1.0	n/a	Yes	3.123	n/a	n/a	GoodResponse	0	n/a	n/a	3	9	Blank	AvoidedLoss	True
100.625	1.45	Lose2	1.0	n/a	Yes	3.123	n/a	5.0	GoodResponse	0	0.033	99.658	3	9	Feedback	AvoidedLoss	True
102.079	3.123	Lose2	1.0	n/a	Yes	3.123	n/a	n/a	GoodResponse	0	0.0	n/a	3	9	ISIslide	AvoidedLoss	True
105.222	0.25	Control	1.0	0.0	Yes	3.278	0.022	n/a	GoodResponse	0	n/a	n/a	3	10	Cue	Neutral	True
105.472	4.0	Control	1.0	0.0	Yes	3.278	0.0	n/a	GoodResponse	0	n/a	n/a	3	10	Fixation	Neutral	True
109.468	0.3	Control	1.0	0.004	Yes	3.278	-0.004	2.0	GoodResponse	0	0.184	108.652	3	10	Target	Neutral	True
109.652	0.3	Control	1.0	0.004	Yes	3.278	-0.004	2.0	GoodResponse	0	0.184	n/a	3	10	ButtonPress	Neutral	True
109.769	0.4	Control	1.0	n/a	Yes	3.278	n/a	n/a	GoodResponse	0	n/a	n/a	3	10	Blank	Neutral	True
110.17	1.45	Control	1.0	n/a	Yes	3.278	n/a	5.0	GoodResponse	0	0.0	109.17	3	10	Feedback	Neutral	True
111.624	3.278	Control	1.0	n/a	Yes	3.278	n/a	n/a	GoodResponse	0	0.0	n/a	3	10	ISIslide	Neutral	True
114.917	0.25	Lose2	1.0	0.0	Yes	2.733	0.017	n/a	GoodResponse	0	n/a	n/a	3	11	Cue	AvoidedLoss	True
115.168	4.05	Lose2	1.0	0.0	Yes	2.733	0.001	n/a	GoodResponse	0	n/a	n/a	3	11	Fixation	AvoidedLoss	True
119.214	0.29	Lose2	1.0	0.003	Yes	2.733	-0.003	2.0	GoodResponse	0	0.19	118.404	3	11	Target	AvoidedLoss	True
119.404	0.3	Lose2	1.0	0.003	Yes	2.733	-0.003	2.0	GoodResponse	0	0.19	n/a	3	11	ButtonPress	AvoidedLoss	True
119.514	0.41	Lose2	1.0	n/a	Yes	2.733	n/a	n/a	GoodResponse	0	n/a	n/a	3	11	Blank	AvoidedLoss	True
119.916	1.45	Lose2	1.0	n/a	Yes	2.733	n/a	5.0	GoodResponse	0	0.01	118.926	3	11	Feedback	AvoidedLoss	True
121.37	2.733	Lose2	1.0	n/a	Yes	2.733	n/a	n/a	GoodResponse	0	0.0	n/a	3	11	ISIslide	AvoidedLoss	True
124.128	0.25	Control	1.0	0.0	Yes	2.972	0.028	n/a	GoodResponse	0	n/a	n/a	3	12	Cue	Neutral	True
124.379	3.9	Control	1.0	0.0	Yes	2.972	0.001	n/a	GoodResponse	0	n/a	n/a	3	12	Fixation	Neutral	True
128.274	0.28	Control	1.0	0.004	Yes	2.972	-0.004	2.0	GoodResponse	0	0.217	127.491	3	12	Target	Neutral	True
128.491	0.3	Control	1.0	0.004	Yes	2.972	-0.004	2.0	GoodResponse	0	0.217	n/a	3	12	ButtonPress	Neutral	True
128.558	0.42	Control	1.0	n/a	Yes	2.972	n/a	n/a	GoodResponse	0	n/a	n/a	3	12	Blank	Neutral	True
128.976	1.45	Control	1.0	n/a	Yes	2.972	n/a	5.0	GoodResponse	0	0.024	128.0	3	12	Feedback	Neutral	True
130.431	2.972	Control	1.0	n/a	Yes	2.972	n/a	n/a	GoodResponse	0	0.0	n/a	3	12	ISIslide	Neutral	True
133.423	0.25	Control	1.0	0.0	Yes	2.777	0.023	n/a	GoodResponse	0	n/a	n/a	3	13	Cue	Neutral	True
133.674	4.0	Control	1.0	0.0	Yes	2.777	0.001	n/a	GoodResponse	0	n/a	n/a	3	13	Fixation	Neutral	True
137.669	0.27	Control	1.0	0.004	Yes	2.777	-0.004	2.0	GoodResponse	0	0.17	136.839	3	13	Target	Neutral	True
137.839	0.3	Control	1.0	0.004	Yes	2.777	-0.004	2.0	GoodResponse	0	0.17	n/a	3	13	ButtonPress	Neutral	True
137.953	0.43	Control	1.0	n/a	Yes	2.777	n/a	n/a	GoodResponse	0	n/a	n/a	3	13	Blank	Neutral	True
138.371	1.45	Control	1.0	n/a	Yes	2.777	n/a	5.0	GoodResponse	0	0.043	137.414	3	13	Feedback	Neutral	True
139.825	2.777	Control	1.0	n/a	Yes	2.777	n/a	n/a	GoodResponse	0	0.0	n/a	3	13	ISIslide	Neutral	True
142.617	0.25	Win2	1.0	0.0	Yes	2.683	0.017	n/a	GoodResponse	1	n/a	n/a	4	14	Cue	Win	True
142.868	4.1	Win2	1.0	0.0	Yes	2.683	0.001	n/a	GoodResponse	1	n/a	n/a	4	14	Fixation	Win	True
146.963	0.26	Win2	1.0	0.004	Yes	2.683	-0.004	2.0	GoodResponse	1	0.185	146.148	4	14	Target	Win	True
147.148	0.3	Win2	1.0	0.004	Yes	2.683	-0.004	2.0	GoodResponse	1	0.185	n/a	4	14	ButtonPress	Win	True
147.231	0.44	Win2	1.0	n/a	Yes	2.683	n/a	n/a	GoodResponse	1	n/a	n/a	4	14	Blank	Win	True
147.666	1.45	Win2	1.0	n/a	Yes	2.683	n/a	5.0	GoodResponse	1	0.017	146.683	4	14	Feedback	Win	True
149.12	2.683	Win2	1.0	n/a	Yes	2.683	n/a	n/a	GoodResponse	1	0.0	n/a	4	14	ISIslide	Win	True
151.828	0.25	Control	1.0	0.0	Yes	2.972	0.028	n/a	GoodResponse	0	n/a	n/a	4	15	Cue	Neutral	True
152.079	4.0	Control	1.0	0.0	Yes	2.972	0.001	n/a	GoodResponse	0	n/a	n/a	4	15	Fixation	Neutral	True
156.074	0.25	Control	1.0	0.004	Yes	2.972	-0.004	2.0	GoodResponse	0	0.226	155.3	4	15	Target	Neutral	True
156.3	0.3	Control	1.0	0.004	Yes	2.972	-0.004	2.0	GoodResponse	0	0.226	n/a	4	15	ButtonPress	Neutral	True
156.325	0.45	Control	1.0	n/a	Yes	2.972	n/a	n/a	GoodResponse	0	n/a	n/a	4	15	Blank	Neutral	True
156.776	1.45	Control	1.0	n/a	Yes	2.972	n/a	5.0	GoodResponse	0	0.028	155.804	4	15	Feedback	Neutral	True
158.231	2.972	Control	1.0	n/a	Yes	2.972	n/a	n/a	GoodResponse	0	0.0	n/a	4	15	ISIslide	Neutral	True
161.223	0.25	Win2	1.0	0.0	Yes	2.877	0.023	n/a	GoodResponse	1	n/a	n/a	5	16	Cue	Win	True
161.474	4.0	Win2	1.0	0.0	Yes	2.877	0.001	n/a	GoodResponse	1	n/a	n/a	5	16	Fixation	Win	True
165.469	0.24	Win2	1.0	0.004	Yes	2.877	-0.004	2.0	GoodResponse	1	0.186	164.655	5	16	Target	Win	True
165.655	0.3	Win2	1.0	0.004	Yes	2.877	-0.004	2.0	GoodResponse	1	0.186	n/a	5	16	ButtonPress	Win	True
165.72	0.46	Win2	1.0	n/a	Yes	2.877	n/a	n/a	GoodResponse	1	n/a	n/a	5	16	Blank	Win	True
166.171	1.45	Win2	1.0	n/a	Yes	2.877	n/a	5.0	GoodResponse	1	0.048	165.219	5	16	Feedback	Win	True
167.625	2.877	Win2	1.0	n/a	Yes	2.877	n/a	n/a	GoodResponse	1	0.0	n/a	5	16	ISIslide	Win	True
170.517	0.25	Lose2	1.0	0.0	Yes	2.733	0.017	n/a	GoodResponse	0	n/a	n/a	5	17	Cue	AvoidedLoss	True
170.768	3.95	Lose2	1.0	0.0	Yes	2.733	0.001	n/a	GoodResponse	0	n/a	n/a	5	17	Fixation	AvoidedLoss	True
174.713	0.23	Lose2	1.0	0.004	Yes	2.733	-0.004	2.0	GoodResponse	0	0.193	173.906	5	17	Target	AvoidedLoss	True
174.906	0.3	Lose2	1.0	0.004	Yes	2.733	-0.004	2.0	GoodResponse	0	0.193	n/a	5	17	ButtonPress	AvoidedLoss	True
174.947	0.47	Lose2	1.0	n/a	Yes	2.733	n/a	n/a	GoodResponse	0	n/a	n/a	5	17	Blank	AvoidedLoss	True
175.415	1.45	Lose2	1.0	n/a	Yes	2.733	n/a	5.0	GoodResponse	0	0.023	174.438	5	17	Feedback	AvoidedLoss	True
176.87	2.733	Lose2	1.0	n/a	Yes	2.733	n/a	n/a	GoodResponse	0	0.0	n/a	5	17	ISIslide	AvoidedLoss	True
179.628	0.25	Lose2	0.9473999999999999	0.0	No	2.722	0.028	n/a	LatePress	-1	n/a	n/a	4	18	Cue	Loss	True
179.879	4.05	Lose2	0.9473999999999999	0.0	No	2.722	0.001	n/a	LatePress	-1	n/a	n/a	4	18	Fixation	Loss	True
183.924	0.22	Lose2	0.9473999999999999	0.004	No	2.722	-0.004	2.0	LatePress	-1	0.225	183.149	4	18	Target	Loss	True
184.149	0.3	Lose2	0.9473999999999999	0.004	No	2.722	-0.004	2.0	LatePress	-1	0.225	n/a	4	18	ButtonPress	Loss	True
184.158	0.48	Lose2	0.9473999999999999	n/a	No	2.722	n/a	n/a	LatePress	-1	n/a	n/a	4	18	Blank	Loss	True
184.626	1.45	Lose2	0.9473999999999999	n/a	No	2.722	n/a	5.0	LatePress	-1	0.032	183.658	4	18	Feedback	Loss	True
186.081	2.722	Lose2	0.9473999999999999	n/a	No	2.722	n/a	n/a	LatePress	-1	0.0	n/a	4	18	ISIslide	Loss	True
188.822	0.25	Control	0.95	0.0	Yes	2.928	0.022	n/a	GoodResponse	0	n/a	n/a	4	19	Cue	Neutral	True
189.073	3.95	Control	0.95	0.0	Yes	2.928	0.001	n/a	GoodResponse	0	n/a	n/a	4	19	Fixation	Neutral	True
193.018	0.21	Control	0.95	0.004	Yes	2.928	-0.004	2.0	GoodResponse	0	0.2	192.218	4	19	Target	Neutral	True
193.218	0.3	Control	0.95	0.004	Yes	2.928	-0.004	2.0	GoodResponse	0	0.2	n/a	4	19	ButtonPress	Neutral	True
193.235	0.49	Control	0.95	n/a	Yes	2.928	n/a	n/a	GoodResponse	0	n/a	n/a	4	19	Blank	Neutral	True
193.72	1.45	Control	0.95	n/a	Yes	2.928	n/a	5.0	GoodResponse	0	0.011	192.731	4	19	Feedback	Neutral	True
195.175	2.928	Control	0.95	n/a	Yes	2.928	n/a	n/a	GoodResponse	0	0.0	n/a	4	19	ISIslide	Neutral	True
198.117	0.25	Control	0.9523999999999999	0.0	Yes	2.633	0.017	n/a	GoodResponse	0	n/a	n/a	4	20	Cue	Neutral	True
198.367	4.05	Control	0.9523999999999999	0.001	Yes	2.633	0.0	n/a	GoodResponse	0	n/a	n/a	4	20	Fixation	Neutral	True
202.413	0.2	Control	0.9523999999999999	0.004	Yes	2.633	-0.004	2.0	GoodResponse	0	0.144	201.557	4	20	Target	Neutral	True
202.557	0.3	Control	0.9523999999999999	0.004	Yes	2.633	-0.004	2.0	GoodResponse	0	0.144	n/a	4	20	ButtonPress	Neutral	True
202.613	0.5	Control	0.9523999999999999	n/a	Yes	2.633	n/a	n/a	GoodResponse	0	n/a	n/a	4	20	Blank	Neutral	True
203.115	1.45	Control	0.9523999999999999	n/a	Yes	2.633	n/a	5.0	GoodResponse	0	0.031	202.146	4	20	Feedback	Neutral	True
204.569	2.633	Control	0.9523999999999999	n/a	Yes	2.633	n/a	n/a	GoodResponse	0	0.0	n/a	4	20	ISIslide	Neutral	True
207.227	0.25	Control	0.9091	0.0	No	2.773	0.027	n/a	LatePress	0	n/a	n/a	4	21	Cue	Neutral	True
207.478	4.1	Control	0.9091	0.0	No	2.773	0.001	n/a	LatePress	0	n/a	n/a	4	21	Fixation	Neutral	True
211.574	0.19	Control	0.9091	0.003	No	2.773	-0.003	2.0	LatePress	0	0.197	210.771	4	21	Target	Neutral	True
211.771	0.3	Control	0.9091	0.003	No	2.773	-0.003	2.0	LatePress	0	0.197	n/a	4	21	ButtonPress	Neutral	True
211.774	0.51	Control	0.9091	n/a	No	2.773	n/a	n/a	LatePress	0	n/a	n/a	4	21	Blank	Neutral	True
212.276	1.45	Control	0.9091	n/a	No	2.773	n/a	5.0	LatePress	0	0.04	211.316	4	21	Feedback	Neutral	True
213.73	2.773	Control	0.9091	n/a	No	2.773	n/a	n/a	LatePress	0	0.0	n/a	4	21	ISIslide	Neutral	True
216.522	0.25	Control	0.8695999999999999	0.0	No	2.778	0.022	n/a	NoResponse	0	n/a	n/a	4	22	Cue	Neutral	False
216.773	4.0	Control	0.8695999999999999	0.0	No	2.778	0.001	n/a	NoResponse	0	n/a	n/a	4	22	Fixation	Neutral	False
220.768	0.18	Control	0.8695999999999999	0.004	No	2.778	-0.004	n/a	NoResponse	0	n/a	n/a	4	22	Target	Neutral	False
220.952	0.52	Control	0.8695999999999999	n/a	No	2.778	n/a	n/a	NoResponse	0	n/a	n/a	4	22	Blank	Neutral	False
221.47	1.45	Control	0.8695999999999999	n/a	No	2.778	n/a	5.0	NoResponse	0	0.016	220.486	4	22	Feedback	Neutral	False
222.924	2.778	Control	0.8695999999999999	n/a	No	2.778	n/a	n/a	NoResponse	0	0.0	n/a	4	22	ISIslide	Neutral	False
225.716	0.25	Control	0.8332999999999999	0.0	No	2.784	0.016	n/a	LatePress	0	n/a	n/a	4	23	Cue	Neutral	True
225.967	3.9	Control	0.8332999999999999	0.0	No	2.784	0.001	n/a	LatePress	0	n/a	n/a	4	23	Fixation	Neutral	True
229.862	0.17	Control	0.8332999999999999	0.004	No	2.784	-0.004	2.0	LatePress	0	0.174	229.036	4	23	Target	Neutral	True
230.036	0.3	Control	0.8332999999999999	0.004	No	2.784	-0.004	2.0	LatePress	0	0.174	n/a	4	23	ButtonPress	Neutral	True
230.046	0.53	Control	0.8332999999999999	n/a	No	2.784	n/a	n/a	LatePress	0	n/a	n/a	4	23	Blank	Neutral	True
230.564	1.45	Control	0.8332999999999999	n/a	No	2.784	n/a	5.0	LatePress	0	0.044	229.608	4	23	Feedback	Neutral	True
232.018	2.784	Control	0.8332999999999999	n/a	No	2.784	n/a	n/a	LatePress	0	0.0	n/a	4	23	ISIslide	Neutral	True
234.827	0.25	Win2	0.8	0.0	No	3.123	0.027	n/a	NoResponse	0	n/a	n/a	4	24	Cue	MissedWin	False
235.077	3.95	Win2	0.8	0.0	No	3.123	0.0	2.0	NoResponse	0	3.459	237.536	4	24	Fixation	MissedWin	False
238.536	0.3	Win2	0.8	0.0	No	3.123	0.0	2.0	NoResponse	0	3.459	n/a	4	24	ButtonPress	MissedWin	False
239.023	0.16	Win2	0.8	0.004	No	3.123	-0.004	2.0	NoResponse	0	0.265	238.288	4	24	Target	MissedWin	False
239.19	0.54	Win2	0.8	n/a	No	3.123	n/a	n/a	NoResponse	0	n/a	n/a	4	24	Blank	MissedWin	False
239.288	0.3	Win2	0.8	0.004	No	3.123	-0.004	2.0	NoResponse	0	0.265	n/a	4	24	ButtonPress	MissedWin	False
239.725	1.45	Win2	0.8	n/a	No	3.123	n/a	5.0	NoResponse	0	0.006	238.731	4	24	Feedback	MissedWin	False
241.179	3.123	Win2	0.8	n/a	No	3.123	n/a	n/a	NoResponse	0	0.0	n/a	4	24	ISIslide	MissedWin	False
244.322	0.25	Win2	0.7692	0.0	No	3.078	0.022	n/a	NoResponse	0	n/a	n/a	4	25	Cue	MissedWin	True
244.573	4.0	Win2	0.7692	0.0	No	3.078	0.001	n/a	NoResponse	0	n/a	n/a	4	25	Fixation	MissedWin	True
248.568	0.15	Win2	0.7692	0.004	No	3.078	-0.004	2.0	NoResponse	0	0.185	247.753	4	25	Target	MissedWin	True
248.718	0.55	Win2	0.7692	n/a	No	3.078	n/a	n/a	NoResponse	0	n/a	n/a	4	25	Blank	MissedWin	True
248.753	0.3	Win2	0.7692	0.004	No	3.078	-0.004	2.0	NoResponse	0	0.185	n/a	4	25	ButtonPress	MissedWin	True
249.27	1.45	Win2	0.7692	n/a	No	3.078	n/a	5.0	NoResponse	0	0.022	248.292	4	25	Feedback	MissedWin	True
250.724	3.078	Win2	0.7692	n/a	No	3.078	n/a	n/a	NoResponse	0	0.0	n/a	4	25	ISIslide	MissedWin	True
253.817	0.25	Win2	0.7406999999999999	0.0	No	2.933	0.017	n/a	NoResponse	0	n/a	n/a	4	26	Cue	MissedWin	True
254.068	3.95	Win2	0.7406999999999999	0.0	No	2.933	0.001	n/a	NoResponse	0	n/a	n/a	4	26	Fixation	MissedWin	True
258.013	0.15	Win2	0.7406999999999999	0.004	No	2.933	-0.004	2.0	NoResponse	0	0.184	257.197	4	26	Target	MissedWin	True
258.163	0.55	Win2	0.7406999999999999	n/a	No	2.933	n/a	n/a	NoResponse	0	n/a	n/a	4	26	Blank	MissedWin	True
258.197	0.3	Win2	0.7406999999999999	0.004	No	2.933	-0.004	2.0	NoResponse	0	0.184	n/a	4	26	ButtonPress	MissedWin	True
258.715	1.45	Win2	0.7406999999999999	n/a	No	2.933	n/a	5.0	NoResponse	0	0.04	257.755	4	26	Feedback	MissedWin	True
260.169	2.933	Win2	0.7406999999999999	n/a	No	2.933	n/a	n/a	NoResponse	0	0.0	n/a	4	26	ISIslide	MissedWin	True
263.128	0.25	Lose2	0.7143	0.0	No	2.822	0.028	n/a	NoResponse	-1	n/a	n/a	3	27	Cue	Loss	True
263.379	4.05	Lose2	0.7143	0.0	No	2.822	0.001	n/a	NoResponse	-1	n/a	n/a	3	27	Fixation	Loss	True
267.424	0.15	Lose2	0.7143	0.004	No	2.822	-0.004	2.0	NoResponse	-1	0.162	266.586	3	27	Target	Loss	True
267.575	0.55	Lose2	0.7143	n/a	No	2.822	n/a	n/a	NoResponse	-1	n/a	n/a	3	27	Blank	Loss	True
267.586	0.3	Lose2	0.7143	0.004	No	2.822	-0.004	2.0	NoResponse	-1	0.162	n/a	3	27	ButtonPress	Loss	True
268.126	1.45	Lose2	0.7143	n/a	No	2.822	n/a	5.0	NoResponse	-1	0.044	267.17	3	27	Feedback	Loss	True
269.581	2.822	Lose2	0.7143	n/a	No	2.822	n/a	n/a	NoResponse	-1	0.0	n/a	3	27	ISIslide	Loss	True
272.423	0.25	Control	0.6897	0.0	No	2.827	0.023	n/a	NoResponse	0	n/a	n/a	3	28	Cue	Neutral	True
272.673	4.05	Control	0.6897	0.0	No	2.827	0.0	n/a	NoResponse	0	n/a	n/a	3	28	Fixation	Neutral	True
276.719	0.15	Control	0.6897	0.004	No	2.827	-0.004	2.0	NoResponse	0	0.214	275.933	3	28	Target	Neutral	True
276.869	0.55	Control	0.6897	n/a	No	2.827	n/a	n/a	NoResponse	0	n/a	n/a	3	28	Blank	Neutral	True
276.933	0.3	Control	0.6897	0.004	No	2.827	-0.004	2.0	NoResponse	0	0.214	n/a	3	28	ButtonPress	Neutral	True
277.421	1.45	Control	0.6897	n/a	No	2.827	n/a	5.0	NoResponse	0	0.016	276.437	3	28	Feedback	Neutral	True
278.875	2.827	Control	0.6897	n/a	No	2.827	n/a	n/a	NoResponse	0	0.0	n/a	3	28	ISIslide	Neutral	True
281.717	0.25	Lose2	0.6667000000000001	0.0	No	2.833	0.017	n/a	PrematurePress	-1	n/a	n/a	2	29	Cue	Loss	True
281.968	3.95	Lose2	0.6667000000000001	0.0	No	2.833	0.001	n/a	PrematurePress	-1	n/a	n/a	2	29	Fixation	Loss	True
285.913	0.15	Lose2	0.6667000000000001	0.004	No	2.833	-0.004	2.0	PrematurePress	-1	0.058	284.971	2	29	Target	Loss	True
285.971	0.3	Lose2	0.6667000000000001	0.004	No	2.833	-0.004	2.0	PrematurePress	-1	0.058	n/a	2	29	ButtonPress	Loss	True
286.064	0.55	Lose2	0.6667000000000001	n/a	No	2.833	n/a	n/a	PrematurePress	-1	n/a	n/a	2	29	Blank	Loss	True
286.615	1.45	Lose2	0.6667000000000001	n/a	No	2.833	n/a	5.0	PrematurePress	-1	0.042	285.657	2	29	Feedback	Loss	True
288.07	2.833	Lose2	0.6667000000000001	n/a	No	2.833	n/a	n/a	PrematurePress	-1	0.0	n/a	2	29	ISIslide	Loss	True
290.928	0.25	Win2	0.6452	0.0	No	2.772	0.028	n/a	NoResponse	0	n/a	n/a	2	30	Cue	MissedWin	True
291.179	3.9	Win2	0.6452	0.0	No	2.772	0.001	n/a	NoResponse	0	n/a	n/a	2	30	Fixation	MissedWin	True
295.074	0.15	Win2	0.6452	0.004	No	2.772	-0.004	2.0	NoResponse	0	0.166	294.24	2	30	Target	MissedWin	True
295.224	0.55	Win2	0.6452	n/a	No	2.772	n/a	n/a	NoResponse	0	n/a	n/a	2	30	Blank	MissedWin	True
295.24	0.3	Win2	0.6452	0.004	No	2.772	-0.004	2.0	NoResponse	0	0.166	n/a	2	30	ButtonPress	MissedWin	True
295.776	1.45	Win2	0.6452	n/a	No	2.772	n/a	5.0	NoResponse	0	0.007	294.783	2	30	Feedback	MissedWin	True
297.23	2.772	Win2	0.6452	n/a	No	2.772	n/a	n/a	NoResponse	0	0.0	n/a	2	30	ISIslide	MissedWin	True
300.022	0.25	Lose2	0.625	0.0	No	2.828	0.022	n/a	NoResponse	-1	n/a	n/a	1	31	Cue	Loss	True
300.273	4.05	Lose2	0.625	0.0	No	2.828	0.001	2.0	NoResponse	-1	3.918	303.191	1	31	Fixation	Loss	True
304.191	0.3	Lose2	0.625	0.0	No	2.828	0.001	2.0	NoResponse	-1	3.918	n/a	1	31	ButtonPress	Loss	True
304.318	0.16	Lose2	0.625	0.004	No	2.828	-0.004	n/a	NoResponse	-1	n/a	n/a	1	31	Target	Loss	True
304.485	0.54	Lose2	0.625	n/a	No	2.828	n/a	n/a	NoResponse	-1	n/a	n/a	1	31	Blank	Loss	True
305.02	1.45	Lose2	0.625	n/a	No	2.828	n/a	5.0	NoResponse	-1	0.027	304.047	1	31	Feedback	Loss	True
306.475	2.828	Lose2	0.625	n/a	No	2.828	n/a	n/a	NoResponse	-1	0.0	n/a	1	31	ISIslide	Loss	True
309.317	0.25	Lose2	0.6061	0.0	No	2.633	0.017	n/a	NoResponse	-1	n/a	n/a	0	32	Cue	Loss	True
309.567	4.15	Lose2	0.6061	0.0	No	2.633	0.0	n/a	NoResponse	-1	n/a	n/a	0	32	Fixation	Loss	True
313.713	0.17	Lose2	0.6061	0.004	No	2.633	-0.004	2.0	NoResponse	-1	0.2	312.913	0	32	Target	Loss	True
313.897	0.53	Lose2	0.6061	n/a	No	2.633	n/a	n/a	NoResponse	-1	n/a	n/a	0	32	Blank	Loss	True
313.913	0.3	Lose2	0.6061	0.004	No	2.633	-0.004	2.0	NoResponse	-1	0.2	n/a	0	32	ButtonPress	Loss	True
314.415	1.45	Lose2	0.6061	n/a	No	2.633	n/a	5.0	NoResponse	-1	0.047	313.462	0	32	Feedback	Loss	True
315.87	2.633	Lose2	0.6061	n/a	No	2.633	n/a	n/a	NoResponse	-1	0.0	n/a	0	32	ISIslide	Loss	True
318.527	0.25	Win2	0.5882000000000001	0.001	No	2.673	0.027	n/a	LatePress	0	n/a	n/a	0	33	Cue	MissedWin	True
318.778	4.0	Win2	0.5882000000000001	0.0	No	2.673	0.001	n/a	LatePress	0	n/a	n/a	0	33	Fixation	MissedWin	True
322.774	0.18	Win2	0.5882000000000001	0.003	No	2.673	-0.003	2.0	LatePress	0	0.184	321.958	0	33	Target	MissedWin	True
322.957	0.52	Win2	0.5882000000000001	n/a	No	2.673	n/a	n/a	LatePress	0	n/a	n/a	0	33	Blank	MissedWin	True
322.958	0.3	Win2	0.5882000000000001	0.003	No	2.673	-0.003	2.0	LatePress	0	0.184	n/a	0	33	ButtonPress	MissedWin	True
323.476	1.45	Win2	0.5882000000000001	n/a	No	2.673	n/a	5.0	LatePress	0	0.011	322.487	0	33	Feedback	MissedWin	True
324.93	2.673	Win2	0.5882000000000001	n/a	No	2.673	n/a	n/a	LatePress	0	0.0	n/a	0	33	ISIslide	MissedWin	True
327.621	0.25	Lose2	0.6	0.0	Yes	2.629	0.021	n/a	GoodResponse	0	n/a	n/a	0	34	Cue	AvoidedLoss	True
327.872	4.05	Lose2	0.6	0.0	Yes	2.629	0.001	n/a	GoodResponse	0	n/a	n/a	0	34	Fixation	AvoidedLoss	True
331.918	0.19	Lose2	0.6	0.003	Yes	2.629	-0.003	2.0	GoodResponse	0	0.174	331.092	0	34	Target	AvoidedLoss	True
332.092	0.3	Lose2	0.6	0.003	Yes	2.629	-0.003	2.0	GoodResponse	0	0.174	n/a	0	34	ButtonPress	AvoidedLoss	True
332.118	0.51	Lose2	0.6	n/a	Yes	2.629	n/a	n/a	GoodResponse	0	n/a	n/a	0	34	Blank	AvoidedLoss	True
332.62	1.45	Lose2	0.6	n/a	Yes	2.629	n/a	5.0	GoodResponse	0	0.036	331.656	0	34	Feedback	AvoidedLoss	True
334.074	2.629	Lose2	0.6	n/a	Yes	2.629	n/a	n/a	GoodResponse	0	0.0	n/a	0	34	ISIslide	AvoidedLoss	True
336.715	0.25	Lose2	0.5832999999999999	0.0	No	2.685	0.015	n/a	NoResponse	-1	n/a	n/a	-1	35	Cue	Loss	True
336.966	4.0	Lose2	0.5832999999999999	0.0	No	2.685	0.001	n/a	NoResponse	-1	n/a	n/a	-1	35	Fixation	Loss	True
340.961	0.2	Lose2	0.5832999999999999	0.004	No	2.685	-0.004	2.0	NoResponse	-1	0.211	340.172	-1	35	Target	Loss	True
341.162	0.5	Lose2	0.5832999999999999	n/a	No	2.685	n/a	n/a	NoResponse	-1	n/a	n/a	-1	35	Blank	Loss	True
341.172	0.3	Lose2	0.5832999999999999	0.004	No	2.685	-0.004	2.0	NoResponse	-1	0.211	n/a	-1	35	ButtonPress	Loss	True
341.663	1.45	Lose2	0.5832999999999999	n/a	No	2.685	n/a	5.0	NoResponse	-1	0.018	340.681	-1	35	Feedback	Loss	True
343.118	2.685	Lose2	0.5832999999999999	n/a	No	2.685	n/a	n/a	NoResponse	-1	0.0	n/a	-1	35	ISIslide	Loss	True
345.826	0.25	Control	0.5676	0.0	No	2.674	0.026	n/a	NoResponse	0	n/a	n/a	-1	36	Cue	Neutral	True
346.077	4.0	Control	0.5676	0.0	No	2.674	0.001	n/a	NoResponse	0	n/a	n/a	-1	36	Fixation	Neutral	True
350.072	0.21	Control	0.5676	0.004	No	2.674	-0.004	2.0	NoResponse	0	0.342	349.414	-1	36	Target	Neutral	True
350.289	0.49	Control	0.5676	n/a	No	2.674	n/a	n/a	NoResponse	0	n/a	n/a	-1	36	Blank	Neutral	True
350.414	0.3	Control	0.5676	0.004	No	2.674	-0.004	2.0	NoResponse	0	0.342	n/a	-1	36	ButtonPress	Neutral	True
350.774	1.45	Control	0.5676	n/a	No	2.674	n/a	5.0	NoResponse	0	0.029	349.803	-1	36	Feedback	Neutral	True
352.228	2.674	Control	0.5676	n/a	No	2.674	n/a	n/a	NoResponse	0	0.0	n/a	-1	36	ISIslide	Neutral	True
354.92	0.25	Win2	0.5789	0.0	Yes	2.88	0.02	n/a	GoodResponse	1	n/a	n/a	0	37	Cue	Win	False
355.171	4.0	Win2	0.5789	0.0	Yes	2.88	0.001	2.0	GoodResponse	1	3.643	357.814	0	37	Fixation	Win	False
358.814	0.3	Win2	0.5789	0.0	Yes	2.88	0.001	2.0	GoodResponse	1	3.643	n/a	0	37	ButtonPress	Win	False
359.166	0.22	Win2	0.5789	0.004	Yes	2.88	-0.004	2.0	GoodResponse	1	0.192	358.358	0	37	Target	Win	False
359.358	0.3	Win2	0.5789	0.004	Yes	2.88	-0.004	2.0	GoodResponse	1	0.192	n/a	0	37	ButtonPress	Win	False
359.4	0.48	Win2	0.5789	n/a	Yes	2.88	n/a	n/a	GoodResponse	1	n/a	n/a	0	37	Blank	Win	False
359.868	1.45	Win2	0.5789	n/a	Yes	2.88	n/a	5.0	GoodResponse	1	0.008	358.876	0	37	Feedback	Win	False
361.322	2.88	Win2	0.5789	n/a	Yes	2.88	n/a	n/a	GoodResponse	1	0.0	n/a	0	37	ISIslide	Win	False
364.231	0.25	Lose2	0.5897	0.0	Yes	2.819	0.031	n/a	GoodResponse	0	n/a	n/a	0	38	Cue	AvoidedLoss	True
364.482	3.95	Lose2	0.5897	0.0	Yes	2.819	0.001	n/a	GoodResponse	0	n/a	n/a	0	38	Fixation	AvoidedLoss	True
368.427	0.23	Lose2	0.5897	0.004	Yes	2.819	-0.004	2.0	GoodResponse	0	0.215	367.642	0	38	Target	AvoidedLoss	True
368.642	0.3	Lose2	0.5897	0.004	Yes	2.819	-0.004	2.0	GoodResponse	0	0.215	n/a	0	38	ButtonPress	AvoidedLoss	True
368.661	0.47	Lose2	0.5897	n/a	Yes	2.819	n/a	n/a	GoodResponse	0	n/a	n/a	0	38	Blank	AvoidedLoss	True
369.129	1.45	Lose2	0.5897	n/a	Yes	2.819	n/a	5.0	GoodResponse	0	0.016	368.145	0	38	Feedback	AvoidedLoss	True
370.583	2.819	Lose2	0.5897	n/a	Yes	2.819	n/a	n/a	GoodResponse	0	0.0	n/a	0	38	ISIslide	AvoidedLoss	True
373.425	0.25	Win2	0.6	0.0	Yes	2.975	0.025	n/a	GoodResponse	1	n/a	n/a	1	39	Cue	Win	True
373.676	4.1	Win2	0.6	0.0	Yes	2.975	0.001	n/a	GoodResponse	1	n/a	n/a	1	39	Fixation	Win	True
377.772	0.24	Win2	0.6	0.003	Yes	2.975	-0.003	2.0	GoodResponse	1	0.205	376.977	1	39	Target	Win	True
377.977	0.3	Win2	0.6	0.003	Yes	2.975	-0.003	2.0	GoodResponse	1	0.205	n/a	1	39	ButtonPress	Win	True
378.022	0.46	Win2	0.6	n/a	Yes	2.975	n/a	n/a	GoodResponse	1	n/a	n/a	1	39	Blank	Win	True
378.474	1.45	Win2	0.6	n/a	Yes	2.975	n/a	5.0	GoodResponse	1	0.037	377.511	1	39	Feedback	Win	True
379.928	2.975	Win2	0.6	n/a	Yes	2.975	n/a	n/a	GoodResponse	1	0.0	n/a	1	39	ISIslide	Win	True
382.92	0.25	Win2	0.6098	0.0	Yes	2.73	0.02	n/a	GoodResponse	1	n/a	n/a	2	40	Cue	Win	True
383.171	3.95	Win2	0.6098	0.0	Yes	2.73	0.001	n/a	GoodResponse	1	n/a	n/a	2	40	Fixation	Win	True
387.116	0.25	Win2	0.6098	0.004	Yes	2.73	-0.004	2.0	GoodResponse	1	0.176	386.292	2	40	Target	Win	True
387.292	0.3	Win2	0.6098	0.004	Yes	2.73	-0.004	2.0	GoodResponse	1	0.176	n/a	2	40	ButtonPress	Win	True
387.367	0.45	Win2	0.6098	n/a	Yes	2.73	n/a	n/a	GoodResponse	1	n/a	n/a	2	40	Blank	Win	True
387.818	1.45	Win2	0.6098	n/a	Yes	2.73	n/a	5.0	GoodResponse	1	0.01	386.828	2	40	Feedback	Win	True
389.273	2.73	Win2	0.6098	n/a	Yes	2.73	n/a	n/a	GoodResponse	1	0.0	n/a	2	40	ISIslide	Win	True
392.031	0.25	Win2	0.619	0.0	Yes	2.769	0.031	n/a	GoodResponse	1	n/a	n/a	3	41	Cue	Win	True
392.282	3.9	Win2	0.619	0.0	Yes	2.769	0.001	n/a	GoodResponse	1	n/a	n/a	3	41	Fixation	Win	True
396.177	0.26	Win2	0.619	0.004	Yes	2.769	-0.004	2.0	GoodResponse	1	0.209	395.386	3	41	Target	Win	True
396.386	0.3	Win2	0.619	0.004	Yes	2.769	-0.004	2.0	GoodResponse	1	0.209	n/a	3	41	ButtonPress	Win	True
396.444	0.44	Win2	0.619	n/a	Yes	2.769	n/a	n/a	GoodResponse	1	n/a	n/a	3	41	Blank	Win	True
396.879	1.45	Win2	0.619	n/a	Yes	2.769	n/a	5.0	GoodResponse	1	0.021	395.9	3	41	Feedback	Win	True
398.333	2.769	Win2	0.619	n/a	Yes	2.769	n/a	n/a	GoodResponse	1	0.0	n/a	3	41	ISIslide	Win	True
401.125	0.25	Control	0.6279	0.0	Yes	2.925	0.025	n/a	GoodResponse	0	n/a	n/a	3	42	Cue	Neutral	True
401.376	3.85	Control	0.6279	0.0	Yes	2.925	0.001	n/a	GoodResponse	0	n/a	n/a	3	42	Fixation	Neutral	True
405.221	0.27	Control	0.6279	0.004	Yes	2.925	-0.004	2.0	GoodResponse	0	0.194	404.415	3	42	Target	Neutral	True
405.415	0.3	Control	0.6279	0.004	Yes	2.925	-0.004	2.0	GoodResponse	0	0.194	n/a	3	42	ButtonPress	Neutral	True
405.505	0.43	Control	0.6279	n/a	Yes	2.925	n/a	n/a	GoodResponse	0	n/a	n/a	3	42	Blank	Neutral	True
405.923	1.45	Control	0.6279	n/a	Yes	2.925	n/a	5.0	GoodResponse	0	0.001	404.924	3	42	Feedback	Neutral	True
407.377	2.925	Control	0.6279	n/a	Yes	2.925	n/a	n/a	GoodResponse	0	0.0	n/a	3	42	ISIslide	Neutral	True
410.319	0.25	Win2	0.6364	0.0	Yes	3.181	0.019	n/a	GoodResponse	1	n/a	n/a	4	43	Cue	Win	True
410.57	4.0	Win2	0.6364	0.0	Yes	3.181	0.001	n/a	GoodResponse	1	n/a	n/a	4	43	Fixation	Win	True
414.565	0.28	Win2	0.6364	0.004	Yes	3.181	-0.004	2.0	GoodResponse	1	0.257	413.822	4	43	Target	Win	True
414.822	0.3	Win2	0.6364	0.004	Yes	3.181	-0.004	2.0	GoodResponse	1	0.257	n/a	4	43	ButtonPress	Win	True
414.849	0.42	Win2	0.6364	n/a	Yes	3.181	n/a	n/a	GoodResponse	1	n/a	n/a	4	43	Blank	Win	True
415.267	1.45	Win2	0.6364	n/a	Yes	3.181	n/a	5.0	GoodResponse	1	0.023	414.29	4	43	Feedback	Win	True
416.722	3.181	Win2	0.6364	n/a	Yes	3.181	n/a	n/a	GoodResponse	1	0.0	n/a	4	43	ISIslide	Win	True
419.915	0.25	Win2	0.6444	0.0	Yes	2.985	0.015	n/a	GoodResponse	1	n/a	n/a	5	44	Cue	Win	True
420.165	4.0	Win2	0.6444	0.0	Yes	2.985	0.0	n/a	GoodResponse	1	n/a	n/a	5	44	Fixation	Win	True
424.161	0.29	Win2	0.6444	0.004	Yes	2.985	-0.004	2.0	GoodResponse	1	0.187	423.348	5	44	Target	Win	True
424.348	0.3	Win2	0.6444	0.004	Yes	2.985	-0.004	2.0	GoodResponse	1	0.187	n/a	5	44	ButtonPress	Win	True
424.462	0.41	Win2	0.6444	n/a	Yes	2.985	n/a	n/a	GoodResponse	1	n/a	n/a	5	44	Blank	Win	True
424.863	1.45	Win2	0.6444	n/a	Yes	2.985	n/a	5.0	GoodResponse	1	0.037	423.9	5	44	Feedback	Win	True
426.317	2.985	Win2	0.6444	n/a	Yes	2.985	n/a	n/a	GoodResponse	1	0.0	n/a	5	44	ISIslide	Win	True
429.326	0.25	Control	0.6522	0.0	Yes	2.874	0.026	n/a	GoodResponse	0	n/a	n/a	5	45	Cue	Neutral	True
429.577	4.1	Control	0.6522	0.0	Yes	2.874	0.001	n/a	GoodResponse	0	n/a	n/a	5	45	Fixation	Neutral	True
433.673	0.3	Control	0.6522	0.003	Yes	2.874	-0.003	2.0	GoodResponse	0	0.193	432.866	5	45	Target	Neutral	True
433.866	0.3	Control	0.6522	0.003	Yes	2.874	-0.003	2.0	GoodResponse	0	0.193	n/a	5	45	ButtonPress	Neutral	True
433.973	0.4	Control	0.6522	n/a	Yes	2.874	n/a	n/a	GoodResponse	0	n/a	n/a	5	45	Blank	Neutral	True
434.375	1.45	Control	0.6522	n/a	Yes	2.874	n/a	5.0	GoodResponse	0	0.038	433.413	5	45	Feedback	Neutral	True
435.829	2.874	Control	0.6522	n/a	Yes	2.874	n/a	n/a	GoodResponse	0	0.0	n/a	5	45	ISIslide	Neutral	True
438.721	0.25	Lose2	0.6596	0.0	Yes	3.379	0.021	n/a	GoodResponse	0	n/a	n/a	5	46	Cue	AvoidedLoss	True
438.972	4.0	Lose2	0.6596	0.0	Yes	3.379	0.001	n/a	GoodResponse	0	n/a	n/a	5	46	Fixation	AvoidedLoss	True
442.967	0.31	Lose2	0.6596	0.004	Yes	3.379	-0.004	2.0	GoodResponse	0	0.2	442.167	5	46	Target	AvoidedLoss	True
443.167	0.3	Lose2	0.6596	0.004	Yes	3.379	-0.004	2.0	GoodResponse	0	0.2	n/a	5	46	ButtonPress	AvoidedLoss	True
443.285	0.39	Lose2	0.6596	n/a	Yes	3.379	n/a	n/a	GoodResponse	0	n/a	n/a	5	46	Blank	AvoidedLoss	True
443.669	1.45	Lose2	0.6596	n/a	Yes	3.379	n/a	5.0	GoodResponse	0	0.012	442.681	5	46	Feedback	AvoidedLoss	True
445.123	3.379	Lose2	0.6596	n/a	Yes	3.379	n/a	n/a	GoodResponse	0	0.0	n/a	5	46	ISIslide	AvoidedLoss	True
448.517	0.25	Lose2	0.6667000000000001	0.0	Yes	2.683	0.017	n/a	GoodResponse	0	n/a	n/a	5	47	Cue	AvoidedLoss	True
448.768	4.0	Lose2	0.6667000000000001	0.0	Yes	2.683	0.001	n/a	GoodResponse	0	n/a	n/a	5	47	Fixation	AvoidedLoss	True
452.763	0.31	Lose2	0.6667000000000001	0.004	Yes	2.683	-0.004	2.0	GoodResponse	0	0.231	451.994	5	47	Target	AvoidedLoss	True
452.994	0.3	Lose2	0.6667000000000001	0.004	Yes	2.683	-0.004	2.0	GoodResponse	0	0.231	n/a	5	47	ButtonPress	AvoidedLoss	True
453.081	0.39	Lose2	0.6667000000000001	n/a	Yes	2.683	n/a	n/a	GoodResponse	0	n/a	n/a	5	47	Blank	AvoidedLoss	True
453.465	1.45	Lose2	0.6667000000000001	n/a	Yes	2.683	n/a	5.0	GoodResponse	0	0.02	452.485	5	47	Feedback	AvoidedLoss	True
454.919	2.683	Lose2	0.6667000000000001	n/a	Yes	2.683	n/a	n/a	GoodResponse	0	0.0	n/a	5	47	ISIslide	AvoidedLoss	True
457.628	0.25	Lose2	0.6735	0.0	Yes	3.022	0.028	n/a	GoodResponse	0	n/a	n/a	5	48	Cue	AvoidedLoss	True
457.878	3.95	Lose2	0.6735	0.0	Yes	3.022	0.0	n/a	GoodResponse	0	n/a	n/a	5	48	Fixation	AvoidedLoss	True
461.824	0.3	Lose2	0.6735	0.004	Yes	3.022	-0.004	2.0	GoodResponse	0	0.192	461.016	5	48	Target	AvoidedLoss	True
462.016	0.3	Lose2	0.6735	0.004	Yes	3.022	-0.004	2.0	GoodResponse	0	0.192	n/a	5	48	ButtonPress	AvoidedLoss	True
462.124	0.4	Lose2	0.6735	n/a	Yes	3.022	n/a	n/a	GoodResponse	0	n/a	n/a	5	48	Blank	AvoidedLoss	True
462.526	1.45	Lose2	0.6735	n/a	Yes	3.022	n/a	5.0	GoodResponse	0	0.032	461.558	5	48	Feedback	AvoidedLoss	True
463.98	3.022	Lose2	0.6735	n/a	Yes	3.022	n/a	n/a	GoodResponse	0	0.0	n/a	5	48	ISIslide	AvoidedLoss	True
467.022	0.25	Control	0.68	0.001	Yes	2.878	0.022	n/a	GoodResponse	0	n/a	n/a	5	49	Cue	Neutral	True
467.273	4.0	Control	0.68	0.0	Yes	2.878	0.001	n/a	GoodResponse	0	n/a	n/a	5	49	Fixation	Neutral	True
471.268	0.29	Control	0.68	0.004	Yes	2.878	-0.004	2.0	GoodResponse	0	0.212	470.48	5	49	Target	Neutral	True
471.48	0.3	Control	0.68	0.004	Yes	2.878	-0.004	2.0	GoodResponse	0	0.212	n/a	5	49	ButtonPress	Neutral	True
471.569	0.41	Control	0.68	n/a	Yes	2.878	n/a	n/a	GoodResponse	0	n/a	n/a	5	49	Blank	Neutral	True
471.971	1.45	Control	0.68	n/a	Yes	2.878	n/a	5.0	GoodResponse	0	0.007	470.978	5	49	Feedback	Neutral	True
473.425	2.878	Control	0.68	n/a	Yes	2.878	n/a	n/a	GoodResponse	0	0.0	n/a	5	49	ISIslide	Neutral	True
476.317	0.25	Control	0.6862999999999999	0.0	Yes	2.783	0.017	n/a	GoodResponse	0	n/a	n/a	5	50	Cue	Neutral	True
476.568	4.0	Control	0.6862999999999999	0.0	Yes	2.783	0.001	n/a	GoodResponse	0	n/a	n/a	5	50	Fixation	Neutral	True
480.563	0.28	Control	0.6862999999999999	0.004	Yes	2.783	-0.004	2.0	GoodResponse	0	0.209	479.772	5	50	Target	Neutral	True
480.772	0.3	Control	0.6862999999999999	0.004	Yes	2.783	-0.004	2.0	GoodResponse	0	0.209	n/a	5	50	ButtonPress	Neutral	True
480.847	0.42	Control	0.6862999999999999	n/a	Yes	2.783	n/a	n/a	GoodResponse	0	n/a	n/a	5	50	Blank	Neutral	True
481.265	1.45	Control	0.6862999999999999	n/a	Yes	2.783	n/a	5.0	GoodResponse	0	0.025	480.29	5	50	Feedback	Neutral	True
482.719	2.783	Control	0.6862999999999999	n/a	Yes	2.783	n/a	n/a	GoodResponse	0	0.0	n/a	5	50	ISIslide	Neutral	True
485.528	0.25	Control	0.6923	0.0	Yes	2.722	0.028	n/a	GoodResponse	0	n/a	n/a	5	51	Cue	Neutral	True
485.779	3.95	Control	0.6923	0.0	Yes	2.722	0.001	n/a	GoodResponse	0	n/a	n/a	5	51	Fixation	Neutral	True
489.724	0.27	Control	0.6923	0.004	Yes	2.722	-0.004	2.0	GoodResponse	0	0.268	488.992	5	51	Target	Neutral	True
489.992	0.3	Control	0.6923	0.004	Yes	2.722	-0.004	2.0	GoodResponse	0	0.268	n/a	5	51	ButtonPress	Neutral	True
490.008	0.43	Control	0.6923	n/a	Yes	2.722	n/a	n/a	GoodResponse	0	n/a	n/a	5	51	Blank	Neutral	True
490.426	1.45	Control	0.6923	n/a	Yes	2.722	n/a	5.0	GoodResponse	0	0.035	489.461	5	51	Feedback	Neutral	True
491.88	2.722	Control	0.6923	n/a	Yes	2.722	n/a	n/a	GoodResponse	0	0.0	n/a	5	51	ISIslide	Neutral	True
494.622	0.25	Control	0.6981	0.0	Yes	2.628	0.022	n/a	GoodResponse	0	n/a	n/a	5	52	Cue	Neutral	True
494.873	4.05	Control	0.6981	0.0	Yes	2.628	0.001	n/a	GoodResponse	0	n/a	n/a	5	52	Fixation	Neutral	True
498.918	0.26	Control	0.6981	0.004	Yes	2.628	-0.004	2.0	GoodResponse	0	0.196	498.114	5	52	Target	Neutral	True
499.114	0.3	Control	0.6981	0.004	Yes	2.628	-0.004	2.0	GoodResponse	0	0.196	n/a	5	52	ButtonPress	Neutral	True
499.185	0.44	Control	0.6981	n/a	Yes	2.628	n/a	n/a	GoodResponse	0	n/a	n/a	5	52	Blank	Neutral	True
499.62	1.45	Control	0.6981	n/a	Yes	2.628	n/a	5.0	GoodResponse	0	0.012	498.632	5	52	Feedback	Neutral	True
501.074	2.628	Control	0.6981	n/a	Yes	2.628	n/a	n/a	GoodResponse	0	0.0	n/a	5	52	ISIslide	Neutral	True
503.716	0.25	Win2	0.7037	0.0	Yes	2.934	0.016	n/a	GoodResponse	1	n/a	n/a	6	53	Cue	Win	True
503.966	4.05	Win2	0.7037	0.001	Yes	2.934	0.0	n/a	GoodResponse	1	n/a	n/a	6	53	Fixation	Win	True
508.012	0.25	Win2	0.7037	0.004	Yes	2.934	-0.004	2.0	GoodResponse	1	0.196	507.208	6	53	Target	Win	True
508.208	0.3	Win2	0.7037	0.004	Yes	2.934	-0.004	2.0	GoodResponse	1	0.196	n/a	6	53	ButtonPress	Win	True
508.263	0.45	Win2	0.7037	n/a	Yes	2.934	n/a	n/a	GoodResponse	1	n/a	n/a	6	53	Blank	Win	True
508.714	1.45	Win2	0.7037	n/a	Yes	2.934	n/a	5.0	GoodResponse	1	0.039	507.753	6	53	Feedback	Win	True
510.168	2.934	Win2	0.7037	n/a	Yes	2.934	n/a	n/a	GoodResponse	1	0.0	n/a	6	53	ISIslide	Win	True
513.127	0.25	Win2	0.6909000000000001	0.0	No	2.723	0.027	n/a	NoResponse	0	n/a	n/a	6	54	Cue	MissedWin	False
513.378	3.95	Win2	0.6909000000000001	0.0	No	2.723	0.001	n/a	NoResponse	0	n/a	n/a	6	54	Fixation	MissedWin	False
517.323	0.24	Win2	0.6909000000000001	0.004	No	2.723	-0.004	n/a	NoResponse	0	n/a	n/a	6	54	Target	MissedWin	False
517.574	0.46	Win2	0.6909000000000001	n/a	No	2.723	n/a	n/a	NoResponse	0	n/a	n/a	6	54	Blank	MissedWin	False
518.025	1.45	Win2	0.6909000000000001	n/a	No	2.723	n/a	5.0	NoResponse	0	0.045	517.07	6	54	Feedback	MissedWin	False
519.48	2.723	Win2	0.6909000000000001	n/a	No	2.723	n/a	n/a	NoResponse	0	0.0	n/a	6	54	ISIslide	MissedWin	False
522.221	0.25	Control	0.6964	0.0	Yes	3.029	0.021	n/a	GoodResponse	0	n/a	n/a	6	55	Cue	Neutral	True
522.472	3.95	Control	0.6964	0.0	Yes	3.029	0.001	n/a	GoodResponse	0	n/a	n/a	6	55	Fixation	Neutral	True
526.417	0.23	Control	0.6964	0.004	Yes	3.029	-0.004	2.0	GoodResponse	0	0.202	525.619	6	55	Target	Neutral	True
526.619	0.3	Control	0.6964	0.004	Yes	3.029	-0.004	2.0	GoodResponse	0	0.202	n/a	6	55	ButtonPress	Neutral	True
526.651	0.47	Control	0.6964	n/a	Yes	3.029	n/a	n/a	GoodResponse	0	n/a	n/a	6	55	Blank	Neutral	True
527.119	1.45	Control	0.6964	n/a	Yes	3.029	n/a	5.0	GoodResponse	0	0.024	526.143	6	55	Feedback	Neutral	True
528.574	3.029	Control	0.6964	n/a	Yes	3.029	n/a	n/a	GoodResponse	0	0.0	n/a	6	55	ISIslide	Neutral	True
531.616	0.25	Control	0.7018000000000001	0.0	Yes	2.834	0.016	n/a	GoodResponse	0	n/a	n/a	6	56	Cue	Neutral	True
531.867	3.95	Control	0.7018000000000001	0.0	Yes	2.834	0.001	n/a	GoodResponse	0	n/a	n/a	6	56	Fixation	Neutral	True
535.812	0.22	Control	0.7018000000000001	0.004	Yes	2.834	-0.004	2.0	GoodResponse	0	0.199	535.011	6	56	Target	Neutral	True
536.011	0.3	Control	0.7018000000000001	0.004	Yes	2.834	-0.004	2.0	GoodResponse	0	0.199	n/a	6	56	ButtonPress	Neutral	True
536.046	0.48	Control	0.7018000000000001	n/a	Yes	2.834	n/a	n/a	GoodResponse	0	n/a	n/a	6	56	Blank	Neutral	True
536.514	1.45	Control	0.7018000000000001	n/a	Yes	2.834	n/a	5.0	GoodResponse	0	0.044	535.558	6	56	Feedback	Neutral	True
537.968	2.834	Control	0.7018000000000001	n/a	Yes	2.834	n/a	n/a	GoodResponse	0	0.0	n/a	6	56	ISIslide	Neutral	True
540.827	0.25	Control	0.6897	0.0	No	3.473	0.027	n/a	NoResponse	0	n/a	n/a	6	57	Cue	Neutral	False
541.078	4.0	Control	0.6897	0.0	No	3.473	0.001	2.0	NoResponse	0	3.808	543.886	6	57	Fixation	Neutral	False
544.886	0.3	Control	0.6897	0.0	No	3.473	0.001	2.0	NoResponse	0	3.808	n/a	6	57	ButtonPress	Neutral	False
545.073	0.21	Control	0.6897	0.004	No	3.473	-0.004	2.0	NoResponse	0	0.268	544.341	6	57	Target	Neutral	False
545.29	0.49	Control	0.6897	n/a	No	3.473	n/a	n/a	NoResponse	0	n/a	n/a	6	57	Blank	Neutral	False
545.341	0.3	Control	0.6897	0.004	No	3.473	-0.004	2.0	NoResponse	0	0.268	n/a	6	57	ButtonPress	Neutral	False
545.775	1.45	Control	0.6897	n/a	No	3.473	n/a	5.0	NoResponse	0	0.008	544.783	6	57	Feedback	Neutral	False
547.229	3.473	Control	0.6897	n/a	No	3.473	n/a	n/a	NoResponse	0	0.0	n/a	6	57	ISIslide	Neutral	False
550.723	0.25	Win2	0.6949	0.0	Yes	2.727	0.023	n/a	GoodResponse	1	n/a	n/a	7	58	Cue	Win	True
550.974	4.05	Win2	0.6949	0.0	Yes	2.727	0.001	n/a	GoodResponse	1	n/a	n/a	7	58	Fixation	Win	True
555.019	0.2	Win2	0.6949	0.004	Yes	2.727	-0.004	2.0	GoodResponse	1	0.199	554.218	7	58	Target	Win	True
555.218	0.3	Win2	0.6949	0.004	Yes	2.727	-0.004	2.0	GoodResponse	1	0.199	n/a	7	58	ButtonPress	Win	True
555.22	0.5	Win2	0.6949	n/a	Yes	2.727	n/a	n/a	GoodResponse	1	n/a	n/a	7	58	Blank	Win	True
555.722	1.45	Win2	0.6949	n/a	Yes	2.727	n/a	5.0	GoodResponse	1	0.007	554.729	7	58	Feedback	Win	True
557.176	2.727	Win2	0.6949	n/a	Yes	2.727	n/a	n/a	GoodResponse	1	0.0	n/a	7	58	ISIslide	Win	True
559.917	0.25	Lose2	0.6833	0.001	No	2.683	0.017	n/a	LatePress	-1	n/a	n/a	6	59	Cue	Loss	True
560.168	4.0	Lose2	0.6833	0.0	No	2.683	0.001	n/a	LatePress	-1	n/a	n/a	6	59	Fixation	Loss	True
564.163	0.19	Lose2	0.6833	0.004	No	2.683	-0.004	2.0	LatePress	-1	0.195	563.358	6	59	Target	Loss	True
564.358	0.3	Lose2	0.6833	0.004	No	2.683	-0.004	2.0	LatePress	-1	0.195	n/a	6	59	ButtonPress	Loss	True
564.364	0.51	Lose2	0.6833	n/a	No	2.683	n/a	n/a	LatePress	-1	n/a	n/a	6	59	Blank	Loss	True
564.866	1.45	Lose2	0.6833	n/a	No	2.683	n/a	5.0	LatePress	-1	0.034	563.9	6	59	Feedback	Loss	True
566.32	2.683	Lose2	0.6833	n/a	No	2.683	n/a	n/a	LatePress	-1	0.0	n/a	6	59	ISIslide	Loss	True
569.028	0.25	Control	0.6720999999999999	0.0	No	2.672	0.028	n/a	NoResponse	0	n/a	n/a	6	60	Cue	Neutral	True
569.279	4.0	Control	0.6720999999999999	0.0	No	2.672	0.001	n/a	NoResponse	0	n/a	n/a	6	60	Fixation	Neutral	True
573.274	0.18	Control	0.6720999999999999	0.004	No	2.672	-0.004	2.0	NoResponse	0	0.207	572.481	6	60	Target	Neutral	True
573.458	0.52	Control	0.6720999999999999	n/a	No	2.672	n/a	n/a	NoResponse	0	n/a	n/a	6	60	Blank	Neutral	True
573.481	0.3	Control	0.6720999999999999	0.004	No	2.672	-0.004	2.0	NoResponse	0	0.207	n/a	6	60	ButtonPress	Neutral	True
573.976	1.45	Control	0.6720999999999999	n/a	No	2.672	n/a	5.0	NoResponse	0	0.045	573.021	6	60	Feedback	Neutral	True
575.431	2.672	Control	0.6720999999999999	n/a	No	2.672	n/a	n/a	NoResponse	0	0.0	n/a	6	60	ISIslide	Neutral	True
578.122	0.25	Lose2	0.6613	0.0	No	2.978	0.022	n/a	LatePress	-1	n/a	n/a	5	61	Cue	Loss	True
578.373	4.0	Lose2	0.6613	0.0	No	2.978	0.001	n/a	LatePress	-1	n/a	n/a	5	61	Fixation	Loss	True
582.368	0.17	Lose2	0.6613	0.004	No	2.978	-0.004	2.0	LatePress	-1	0.178	581.546	5	61	Target	Loss	True
582.546	0.3	Lose2	0.6613	0.004	No	2.978	-0.004	2.0	LatePress	-1	0.178	n/a	5	61	ButtonPress	Loss	True
582.552	0.53	Lose2	0.6613	n/a	No	2.978	n/a	n/a	LatePress	-1	n/a	n/a	5	61	Blank	Loss	True
583.07	1.45	Lose2	0.6613	n/a	No	2.978	n/a	5.0	LatePress	-1	0.024	582.094	5	61	Feedback	Loss	True
584.524	2.978	Lose2	0.6613	n/a	No	2.978	n/a	n/a	LatePress	-1	0.0	n/a	5	61	ISIslide	Loss	True
587.517	0.25	Lose2	0.6507999999999999	0.0	No	2.883	0.017	n/a	NoResponse	-1	n/a	n/a	4	62	Cue	Loss	True
587.768	3.9	Lose2	0.6507999999999999	0.0	No	2.883	0.001	n/a	NoResponse	-1	n/a	n/a	4	62	Fixation	Loss	True
591.663	0.17	Lose2	0.6507999999999999	0.004	No	2.883	-0.004	2.0	NoResponse	-1	0.219	590.882	4	62	Target	Loss	True
591.846	0.53	Lose2	0.6507999999999999	n/a	No	2.883	n/a	n/a	NoResponse	-1	n/a	n/a	4	62	Blank	Loss	True
591.882	0.3	Lose2	0.6507999999999999	0.004	No	2.883	-0.004	2.0	NoResponse	-1	0.219	n/a	4	62	ButtonPress	Loss	True
592.365	1.45	Lose2	0.6507999999999999	n/a	No	2.883	n/a	5.0	NoResponse	-1	0.046	591.411	4	62	Feedback	Loss	True
593.819	2.883	Lose2	0.6507999999999999	n/a	No	2.883	n/a	n/a	NoResponse	-1	0.0	n/a	4	62	ISIslide	Loss	True
596.728	0.25	Lose2	0.6406000000000001	0.0	No	2.622	0.028	n/a	PrematurePress	-1	n/a	n/a	3	63	Cue	Loss	True
596.978	4.05	Lose2	0.6406000000000001	0.001	No	2.622	0.0	n/a	PrematurePress	-1	n/a	n/a	3	63	Fixation	Loss	True
601.024	0.18	Lose2	0.6406000000000001	0.004	No	2.622	-0.004	2.0	PrematurePress	-1	0.052	600.076	3	63	Target	Loss	True
601.076	0.3	Lose2	0.6406000000000001	0.004	No	2.622	-0.004	2.0	PrematurePress	-1	0.052	n/a	3	63	ButtonPress	Loss	True
601.208	0.52	Lose2	0.6406000000000001	n/a	No	2.622	n/a	n/a	PrematurePress	-1	n/a	n/a	3	63	Blank	Loss	True
601.726	1.45	Lose2	0.6406000000000001	n/a	No	2.622	n/a	5.0	PrematurePress	-1	0.002	600.728	3	63	Feedback	Loss	True
603.18	2.622	Lose2	0.6406000000000001	n/a	No	2.622	n/a	n/a	PrematurePress	-1	0.0	n/a	3	63	ISIslide	Loss	True
605.822	0.25	Win2	0.6308	0.0	No	3.128	0.022	n/a	NoResponse	0	n/a	n/a	3	64	Cue	MissedWin	False
606.072	4.15	Win2	0.6308	0.001	No	3.128	0.0	2.0	NoResponse	0	3.26	608.332	3	64	Fixation	MissedWin	False
609.332	0.3	Win2	0.6308	0.001	No	3.128	0.0	2.0	NoResponse	0	3.26	n/a	3	64	ButtonPress	MissedWin	False
610.218	0.19	Win2	0.6308	0.004	No	3.128	-0.004	2.0	NoResponse	0	0.208	609.426	3	64	Target	MissedWin	False
610.419	0.51	Win2	0.6308	n/a	No	3.128	n/a	n/a	NoResponse	0	n/a	n/a	3	64	Blank	MissedWin	False
610.426	0.3	Win2	0.6308	0.004	No	3.128	-0.004	2.0	NoResponse	0	0.208	n/a	3	64	ButtonPress	MissedWin	False
610.92	1.45	Win2	0.6308	n/a	No	3.128	n/a	5.0	NoResponse	0	0.028	609.948	3	64	Feedback	MissedWin	False
612.375	3.128	Win2	0.6308	n/a	No	3.128	n/a	n/a	NoResponse	0	0.0	n/a	3	64	ISIslide	MissedWin	False
615.517	0.25	Control	0.6212	0.0	No	2.783	0.017	n/a	NoResponse	0	n/a	n/a	3	65	Cue	Neutral	True
615.768	4.0	Control	0.6212	0.0	No	2.783	0.001	n/a	NoResponse	0	n/a	n/a	3	65	Fixation	Neutral	True
619.763	0.2	Control	0.6212	0.004	No	2.783	-0.004	2.0	NoResponse	0	0.212	618.975	3	65	Target	Neutral	True
619.964	0.5	Control	0.6212	n/a	No	2.783	n/a	n/a	NoResponse	0	n/a	n/a	3	65	Blank	Neutral	True
619.975	0.3	Control	0.6212	0.004	No	2.783	-0.004	2.0	NoResponse	0	0.212	n/a	3	65	ButtonPress	Neutral	True
620.466	1.45	Control	0.6212	n/a	No	2.783	n/a	5.0	NoResponse	0	0.043	619.509	3	65	Feedback	Neutral	True
621.92	2.783	Control	0.6212	n/a	No	2.783	n/a	n/a	NoResponse	0	0.0	n/a	3	65	ISIslide	Neutral	True
624.728	0.25	Win2	0.6269	0.0	Yes	2.772	0.028	n/a	GoodResponse	1	n/a	n/a	4	66	Cue	Win	False
624.979	3.9	Win2	0.6269	0.0	Yes	2.772	0.001	2.0	GoodResponse	1	0.101	624.08	4	66	Fixation	Win	False
625.08	0.3	Win2	0.6269	0.0	Yes	2.772	0.001	2.0	GoodResponse	1	0.101	n/a	4	66	ButtonPress	Win	False
628.874	0.21	Win2	0.6269	0.004	Yes	2.772	-0.004	2.0	GoodResponse	1	0.181	628.055	4	66	Target	Win	False
629.055	0.3	Win2	0.6269	0.004	Yes	2.772	-0.004	2.0	GoodResponse	1	0.181	n/a	4	66	ButtonPress	Win	False
629.091	0.49	Win2	0.6269	n/a	Yes	2.772	n/a	n/a	GoodResponse	1	n/a	n/a	4	66	Blank	Win	False
629.576	1.45	Win2	0.6269	n/a	Yes	2.772	n/a	5.0	GoodResponse	1	0.006	628.582	4	66	Feedback	Win	False
631.031	2.772	Win2	0.6269	n/a	Yes	2.772	n/a	n/a	GoodResponse	1	0.0	n/a	4	66	ISIslide	Win	False
633.822	0.25	Control	0.6175999999999999	0.0	No	2.728	0.022	n/a	NoResponse	0	n/a	n/a	4	67	Cue	Neutral	True
634.073	3.95	Control	0.6175999999999999	0.0	No	2.728	0.001	n/a	NoResponse	0	n/a	n/a	4	67	Fixation	Neutral	True
638.018	0.22	Control	0.6175999999999999	0.004	No	2.728	-0.004	2.0	NoResponse	0	0.261	637.279	4	67	Target	Neutral	True
638.252	0.48	Control	0.6175999999999999	n/a	No	2.728	n/a	n/a	NoResponse	0	n/a	n/a	4	67	Blank	Neutral	True
638.279	0.3	Control	0.6175999999999999	0.004	No	2.728	-0.004	2.0	NoResponse	0	0.261	n/a	4	67	ButtonPress	Neutral	True
638.72	1.45	Control	0.6175999999999999	n/a	No	2.728	n/a	5.0	NoResponse	0	0.032	637.752	4	67	Feedback	Neutral	True
640.175	2.728	Control	0.6175999999999999	n/a	No	2.728	n/a	n/a	NoResponse	0	0.0	n/a	4	67	ISIslide	Neutral	True
642.916	0.25	Win2	0.6232	0.0	Yes	3.084	0.016	n/a	GoodResponse	1	n/a	n/a	5	68	Cue	Win	True
643.167	4.0	Win2	0.6232	0.0	Yes	3.084	0.001	n/a	GoodResponse	1	n/a	n/a	5	68	Fixation	Win	True
647.162	0.23	Win2	0.6232	0.004	Yes	3.084	-0.004	2.0	GoodResponse	1	0.196	646.358	5	68	Target	Win	True
647.358	0.3	Win2	0.6232	0.004	Yes	3.084	-0.004	2.0	GoodResponse	1	0.196	n/a	5	68	ButtonPress	Win	True
647.396	0.47	Win2	0.6232	n/a	Yes	3.084	n/a	n/a	GoodResponse	1	n/a	n/a	5	68	Blank	Win	True
647.864	1.45	Win2	0.6232	n/a	Yes	3.084	n/a	5.0	GoodResponse	1	0.01	646.874	5	68	Feedback	Win	True
649.319	3.084	Win2	0.6232	n/a	Yes	3.084	n/a	n/a	GoodResponse	1	0.0	n/a	5	68	ISIslide	Win	True
652.428	0.25	Win2	0.6286	0.0	Yes	3.222	0.028	n/a	GoodResponse	1	n/a	n/a	6	69	Cue	Win	True
652.679	3.95	Win2	0.6286	0.0	Yes	3.222	0.001	n/a	GoodResponse	1	n/a	n/a	6	69	Fixation	Win	True
656.624	0.24	Win2	0.6286	0.004	Yes	3.222	-0.004	2.0	GoodResponse	1	0.197	655.821	6	69	Target	Win	True
656.821	0.3	Win2	0.6286	0.004	Yes	3.222	-0.004	2.0	GoodResponse	1	0.197	n/a	6	69	ButtonPress	Win	True
656.875	0.46	Win2	0.6286	n/a	Yes	3.222	n/a	n/a	GoodResponse	1	n/a	n/a	6	69	Blank	Win	True
657.326	1.45	Win2	0.6286	n/a	Yes	3.222	n/a	5.0	GoodResponse	1	0.012	656.338	6	69	Feedback	Win	True
658.78	3.222	Win2	0.6286	n/a	Yes	3.222	n/a	n/a	GoodResponse	1	0.0	n/a	6	69	ISIslide	Win	True
662.023	0.25	Lose2	0.6338	0.0	Yes	3.027	0.023	n/a	GoodResponse	0	n/a	n/a	6	70	Cue	AvoidedLoss	True
662.274	4.05	Lose2	0.6338	0.0	Yes	3.027	0.001	n/a	GoodResponse	0	n/a	n/a	6	70	Fixation	AvoidedLoss	True
666.32	0.25	Lose2	0.6338	0.003	Yes	3.027	-0.003	2.0	GoodResponse	0	0.21	665.53	6	70	Target	AvoidedLoss	True
666.53	0.3	Lose2	0.6338	0.003	Yes	3.027	-0.003	2.0	GoodResponse	0	0.21	n/a	6	70	ButtonPress	AvoidedLoss	True
666.57	0.45	Lose2	0.6338	n/a	Yes	3.027	n/a	n/a	GoodResponse	0	n/a	n/a	6	70	Blank	AvoidedLoss	True
667.022	1.45	Lose2	0.6338	n/a	Yes	3.027	n/a	5.0	GoodResponse	0	0.023	666.045	6	70	Feedback	AvoidedLoss	True
668.476	3.027	Lose2	0.6338	n/a	Yes	3.027	n/a	n/a	GoodResponse	0	0.0	n/a	6	70	ISIslide	AvoidedLoss	True
671.519	0.25	Win2	0.6389	0.0	Yes	2.731	0.019	n/a	GoodResponse	1	n/a	n/a	7	71	Cue	Win	True
671.769	4.05	Win2	0.6389	0.0	Yes	2.731	0.0	n/a	GoodResponse	1	n/a	n/a	7	71	Fixation	Win	True
675.815	0.26	Win2	0.6389	0.004	Yes	2.731	-0.004	2.0	GoodResponse	1	0.208	675.023	7	71	Target	Win	True
676.023	0.3	Win2	0.6389	0.004	Yes	2.731	-0.004	2.0	GoodResponse	1	0.208	n/a	7	71	ButtonPress	Win	True
676.082	0.44	Win2	0.6389	n/a	Yes	2.731	n/a	n/a	GoodResponse	1	n/a	n/a	7	71	Blank	Win	True
676.517	1.45	Win2	0.6389	n/a	Yes	2.731	n/a	5.0	GoodResponse	1	0.041	675.558	7	71	Feedback	Win	True
677.971	2.731	Win2	0.6389	n/a	Yes	2.731	n/a	n/a	GoodResponse	1	0.0	n/a	7	71	ISIslide	Win	True
680.729	0.25	Win2	0.6437999999999999	0.001	Yes	2.771	0.029	n/a	GoodResponse	1	n/a	n/a	8	72	Cue	Win	True
680.98	4.1	Win2	0.6437999999999999	0.0	Yes	2.771	0.001	n/a	GoodResponse	1	n/a	n/a	8	72	Fixation	Win	True
685.076	0.27	Win2	0.6437999999999999	0.003	Yes	2.771	-0.003	2.0	GoodResponse	1	0.195	684.271	8	72	Target	Win	True
685.271	0.3	Win2	0.6437999999999999	0.003	Yes	2.771	-0.003	2.0	GoodResponse	1	0.195	n/a	8	72	ButtonPress	Win	True
685.36	0.43	Win2	0.6437999999999999	n/a	Yes	2.771	n/a	n/a	GoodResponse	1	n/a	n/a	8	72	Blank	Win	True
685.778	1.45	Win2	0.6437999999999999	n/a	Yes	2.771	n/a	5.0	GoodResponse	1	0.048	684.826	8	72	Feedback	Win	True
687.232	2.771	Win2	0.6437999999999999	n/a	Yes	2.771	n/a	n/a	GoodResponse	1	0.0	n/a	8	72	ISIslide	Win	True
690.024	0.25	Win2	0.6486	0.0	Yes	2.676	0.024	n/a	GoodResponse	1	n/a	n/a	9	73	Cue	Win	True
690.275	4.0	Win2	0.6486	0.0	Yes	2.676	0.001	n/a	GoodResponse	1	n/a	n/a	9	73	Fixation	Win	True
694.27	0.28	Win2	0.6486	0.004	Yes	2.676	-0.004	2.0	GoodResponse	1	0.19	693.46	9	73	Target	Win	True
694.46	0.3	Win2	0.6486	0.004	Yes	2.676	-0.004	2.0	GoodResponse	1	0.19	n/a	9	73	ButtonPress	Win	True
694.554	0.42	Win2	0.6486	n/a	Yes	2.676	n/a	n/a	GoodResponse	1	n/a	n/a	9	73	Blank	Win	True
694.972	1.45	Win2	0.6486	n/a	Yes	2.676	n/a	5.0	GoodResponse	1	0.024	693.996	9	73	Feedback	Win	True
696.426	2.676	Win2	0.6486	n/a	Yes	2.676	n/a	n/a	GoodResponse	1	0.0	n/a	9	73	ISIslide	Win	True
699.118	0.25	Lose2	0.6533	0.0	Yes	2.632	0.018	n/a	GoodResponse	0	n/a	n/a	9	74	Cue	AvoidedLoss	True
699.369	4.05	Lose2	0.6533	0.0	Yes	2.632	0.001	n/a	GoodResponse	0	n/a	n/a	9	74	Fixation	AvoidedLoss	True
703.414	0.29	Lose2	0.6533	0.004	Yes	2.632	-0.004	2.0	GoodResponse	0	0.207	702.621	9	74	Target	AvoidedLoss	True
703.621	0.3	Lose2	0.6533	0.004	Yes	2.632	-0.004	2.0	GoodResponse	0	0.207	n/a	9	74	ButtonPress	AvoidedLoss	True
703.715	0.41	Lose2	0.6533	n/a	Yes	2.632	n/a	n/a	GoodResponse	0	n/a	n/a	9	74	Blank	AvoidedLoss	True
704.116	1.45	Lose2	0.6533	n/a	Yes	2.632	n/a	5.0	GoodResponse	0	0.008	703.124	9	74	Feedback	AvoidedLoss	True
705.571	2.632	Lose2	0.6533	n/a	Yes	2.632	n/a	n/a	GoodResponse	0	0.0	n/a	9	74	ISIslide	AvoidedLoss	True
708.229	0.25	Lose2	0.6579	0.0	Yes	2.921	0.029	n/a	GoodResponse	0	n/a	n/a	9	75	Cue	AvoidedLoss	True
708.479	3.95	Lose2	0.6579	0.0	Yes	2.921	0.0	n/a	GoodResponse	0	n/a	n/a	9	75	Fixation	AvoidedLoss	True
712.441	0.3	Lose2	0.6579	0.0	Yes	2.921	0.012	2.0	GoodResponse	0	0.204	711.645	9	75	Target	AvoidedLoss	True
712.645	0.3	Lose2	0.6579	0.0	Yes	2.921	0.012	2.0	GoodResponse	0	0.204	n/a	9	75	ButtonPress	AvoidedLoss	True
712.725	0.4	Lose2	0.6579	n/a	Yes	2.921	n/a	n/a	GoodResponse	0	n/a	n/a	9	75	Blank	AvoidedLoss	True
713.127	1.45	Lose2	0.6579	n/a	Yes	2.921	n/a	5.0	GoodResponse	0	0.015	712.142	9	75	Feedback	AvoidedLoss	True
714.581	2.921	Lose2	0.6579	n/a	Yes	2.921	n/a	n/a	GoodResponse	0	0.0	n/a	9	75	ISIslide	AvoidedLoss	True
717.523	0.25	Control	0.6494	0.0	No	3.227	0.023	n/a	NoResponse	0	n/a	n/a	9	76	Cue	Neutral	False
717.774	4.05	Control	0.6494	0.0	No	3.227	0.001	n/a	NoResponse	0	n/a	n/a	9	76	Fixation	Neutral	False
721.819	0.3	Control	0.6494	0.004	No	3.227	-0.004	n/a	NoResponse	0	n/a	n/a	9	76	Target	Neutral	False
722.12	0.4	Control	0.6494	n/a	No	3.227	n/a	n/a	NoResponse	0	n/a	n/a	9	76	Blank	Neutral	False
722.521	1.45	Control	0.6494	n/a	No	3.227	n/a	5.0	NoResponse	0	0.036	721.557	9	76	Feedback	Neutral	False
723.976	3.227	Control	0.6494	n/a	No	3.227	n/a	n/a	NoResponse	0	0.0	n/a	9	76	ISIslide	Neutral	False
727.219	0.25	Lose2	0.6537999999999999	0.0	Yes	2.581	0.019	n/a	GoodResponse	0	n/a	n/a	9	77	Cue	AvoidedLoss	True
727.469	3.95	Lose2	0.6537999999999999	0.001	Yes	2.581	0.0	n/a	GoodResponse	0	n/a	n/a	9	77	Fixation	AvoidedLoss	True
731.415	0.31	Lose2	0.6537999999999999	0.004	Yes	2.581	-0.004	2.0	GoodResponse	0	0.194	730.609	9	77	Target	AvoidedLoss	True
731.609	0.3	Lose2	0.6537999999999999	0.004	Yes	2.581	-0.004	2.0	GoodResponse	0	0.194	n/a	9	77	ButtonPress	AvoidedLoss	True
731.732	0.39	Lose2	0.6537999999999999	n/a	Yes	2.581	n/a	n/a	GoodResponse	0	n/a	n/a	9	77	Blank	AvoidedLoss	True
732.117	1.45	Lose2	0.6537999999999999	n/a	Yes	2.581	n/a	5.0	GoodResponse	0	0.001	731.118	9	77	Feedback	AvoidedLoss	True
733.571	2.581	Lose2	0.6537999999999999	n/a	Yes	2.581	n/a	n/a	GoodResponse	0	0.0	n/a	9	77	ISIslide	AvoidedLoss	True
