onset	duration	cue_type	current_mean_accuracy	duration_error	is_hit	isi_adjusted	onset_delay	response	response_type	reward	rt	rt_time	total_reward	trial_number	trial_phase	trial_type	one_press
11.112	0.25	Control	1.0	0.0	Yes	2.938	0.012	n/a	GoodResponse	0	n/a	n/a	0	0	Cue	Neutral	False
11.362	3.85	Control	1.0	0.0	Yes	2.938	0.0	2.0	GoodResponse	0	0.186	10.548	0	0	Fixation	Neutral	False
11.548	0.3	Control	1.0	0.0	Yes	2.938	0.0	2.0	GoodResponse	0	0.186	n/a	0	0	ButtonPress	Neutral	False
15.211	0.4	Control	1.0	0.001	Yes	2.938	-0.001	2.0	GoodResponse	0	0.236	14.447	0	0	Target	Neutral	False
15.447	0.3	Control	1.0	0.001	Yes	2.938	-0.001	2.0	GoodResponse	0	0.236	n/a	0	0	ButtonPress	Neutral	False
15.611	0.3	Control	1.0	n/a	Yes	2.938	n/a	n/a	GoodResponse	0	n/a	n/a	0	0	Blank	Neutral	False
15.911	1.45	Control	1.0	n/a	Yes	2.938	n/a	5.0	GoodResponse	0	0.018	14.929	0	0	Feedback	Neutral	False
17.36	2.938	Control	1.0	n/a	Yes	2.938	n/a	n/a	GoodResponse	0	0.0	n/a	0	0	ISIslide	Neutral	False
20.326	0.25	Lose2	1.0	0.0	Yes	2.774	0.026	n/a	GoodResponse	0	n/a	n/a	0	1	Cue	AvoidedLoss	True
20.576	4.0	Lose2	1.0	0.0	Yes	2.774	0.0	n/a	GoodResponse	0	n/a	n/a	0	1	Fixation	AvoidedLoss	True
24.574	0.39	Lose2	1.0	0.002	Yes	2.774	-0.002	2.0	GoodResponse	0	0.201	23.775	0	1	Target	AvoidedLoss	True
24.775	0.3	Lose2	1.0	0.002	Yes	2.774	-0.002	2.0	GoodResponse	0	0.201	n/a	0	1	ButtonPress	AvoidedLoss	True
24.974	0.31	Lose2	1.0	n/a	Yes	2.774	n/a	n/a	GoodResponse	0	n/a	n/a	0	1	Blank	AvoidedLoss	True
25.274	1.45	Lose2	1.0	n/a	Yes	2.774	n/a	5.0	GoodResponse	0	0.021	24.295	0	1	Feedback	AvoidedLoss	True
26.724	2.774	Lose2	1.0	n/a	Yes	2.774	n/a	n/a	GoodResponse	0	0.0	n/a	0	1	ISIslide	AvoidedLoss	True
29.523	0.25	Control	1.0	0.0	Yes	2.577	0.023	n/a	GoodResponse	0	n/a	n/a	0	2	Cue	Neutral	True
29.773	4.1	Control	1.0	0.0	Yes	2.577	0.0	n/a	GoodResponse	0	n/a	n/a	0	2	Fixation	Neutral	True
33.871	0.38	Control	1.0	0.002	Yes	2.577	-0.002	2.0	GoodResponse	0	0.195	33.066	0	2	Target	Neutral	True
34.066	0.3	Control	1.0	0.002	Yes	2.577	-0.002	2.0	GoodResponse	0	0.195	n/a	0	2	ButtonPress	Neutral	True
34.254	0.32	Control	1.0	n/a	Yes	2.577	n/a	n/a	GoodResponse	0	n/a	n/a	0	2	Blank	Neutral	True
34.571	1.45	Control	1.0	n/a	Yes	2.577	n/a	5.0	GoodResponse	0	0.042	33.613	0	2	Feedback	Neutral	True
36.02	2.577	Control	1.0	n/a	Yes	2.577	n/a	n/a	GoodResponse	0	0.0	n/a	0	2	ISIslide	Neutral	True
38.62	0.25	Win2	1.0	0.0	Yes	2.83	0.02	n/a	GoodResponse	1	n/a	n/a	1	3	Cue	Win	False
38.869	3.95	Win2	1.0	0.001	Yes	2.83	-0.001	2.0	GoodResponse	1	3.767	41.636	1	3	Fixation	Win	False
42.636	0.3	Win2	1.0	0.001	Yes	2.83	-0.001	2.0	GoodResponse	1	3.767	n/a	1	3	ButtonPress	Win	False
42.818	0.37	Win2	1.0	0.002	Yes	2.83	-0.002	2.0	GoodResponse	1	0.201	42.019	1	3	Target	Win	False
43.019	0.3	Win2	1.0	0.002	Yes	2.83	-0.002	2.0	GoodResponse	1	0.201	n/a	1	3	ButtonPress	Win	False
43.201	0.33	Win2	1.0	n/a	Yes	2.83	n/a	n/a	GoodResponse	1	n/a	n/a	1	3	Blank	Win	False
43.518	1.45	Win2	1.0	n/a	Yes	2.83	n/a	5.0	GoodResponse	1	0.02	42.538	1	3	Feedback	Win	False
44.967	2.83	Win2	1.0	n/a	Yes	2.83	n/a	n/a	GoodResponse	1	0.0	n/a	1	3	ISIslide	Win	False
47.816	0.25	Win2	1.0	0.0	Yes	3.284	0.016	n/a	GoodResponse	1	n/a	n/a	2	4	Cue	Win	True
48.066	4.0	Win2	1.0	0.0	Yes	3.284	0.0	n/a	GoodResponse	1	n/a	n/a	2	4	Fixation	Win	True
52.065	0.36	Win2	1.0	0.001	Yes	3.284	-0.001	2.0	GoodResponse	1	0.169	51.234	2	4	Target	Win	True
52.234	0.3	Win2	1.0	0.001	Yes	3.284	-0.001	2.0	GoodResponse	1	0.169	n/a	2	4	ButtonPress	Win	True
52.431	0.34	Win2	1.0	n/a	Yes	3.284	n/a	n/a	GoodResponse	1	n/a	n/a	2	4	Blank	Win	True
52.765	1.45	Win2	1.0	n/a	Yes	3.284	n/a	5.0	GoodResponse	1	0.042	51.807	2	4	Feedback	Win	True
54.214	3.284	Win2	1.0	n/a	Yes	3.284	n/a	n/a	GoodResponse	1	0.0	n/a	2	4	ISIslide	Win	True
57.513	0.25	Win2	1.0	0.0	Yes	2.787	0.013	n/a	GoodResponse	1	n/a	n/a	3	5	Cue	Win	True
57.763	4.0	Win2	1.0	0.0	Yes	2.787	0.0	n/a	GoodResponse	1	n/a	n/a	3	5	Fixation	Win	True
61.762	0.35	Win2	1.0	0.001	Yes	2.787	-0.001	2.0	GoodResponse	1	0.186	60.948	3	5	Target	Win	True
61.948	0.3	Win2	1.0	0.001	Yes	2.787	-0.001	2.0	GoodResponse	1	0.186	n/a	3	5	ButtonPress	Win	True
62.111	0.35	Win2	1.0	n/a	Yes	2.787	n/a	n/a	GoodResponse	1	n/a	n/a	3	5	Blank	Win	True
62.461	1.45	Win2	1.0	n/a	Yes	2.787	n/a	5.0	GoodResponse	1	0.004	61.465	3	5	Feedback	Win	True
63.911	2.787	Win2	1.0	n/a	Yes	2.787	n/a	n/a	GoodResponse	1	0.0	n/a	3	5	ISIslide	Win	True
66.726	0.25	Lose2	0.8571	0.001	No	2.724	0.026	n/a	NoResponse	-1	n/a	n/a	2	6	Cue	Loss	True
66.976	3.95	Lose2	0.8571	0.0	No	2.724	0.0	2.0	NoResponse	-1	3.824	69.8	2	6	Fixation	Loss	True
70.8	0.3	Lose2	0.8571	0.0	No	2.724	0.0	2.0	NoResponse	-1	3.824	n/a	2	6	ButtonPress	Loss	True
70.925	0.34	Lose2	0.8571	0.001	No	2.724	-0.001	n/a	NoResponse	-1	n/a	n/a	2	6	Target	Loss	True
71.275	0.36	Lose2	0.8571	n/a	No	2.724	n/a	n/a	NoResponse	-1	n/a	n/a	2	6	Blank	Loss	True
71.625	1.45	Lose2	0.8571	n/a	No	2.724	n/a	5.0	NoResponse	-1	0.011	70.636	2	6	Feedback	Loss	True
73.074	2.724	Lose2	0.8571	n/a	No	2.724	n/a	n/a	NoResponse	-1	0.0	n/a	2	6	ISIslide	Loss	True
75.823	0.25	Lose2	0.875	0.0	Yes	4.027	0.023	n/a	GoodResponse	0	n/a	n/a	2	7	Cue	AvoidedLoss	True
76.073	4.05	Lose2	0.875	0.0	Yes	4.027	0.0	n/a	GoodResponse	0	n/a	n/a	2	7	Fixation	AvoidedLoss	True
80.122	0.33	Lose2	0.875	0.001	Yes	4.027	-0.001	2.0	GoodResponse	0	0.185	79.307	2	7	Target	AvoidedLoss	True
80.307	0.3	Lose2	0.875	0.001	Yes	4.027	-0.001	2.0	GoodResponse	0	0.185	n/a	2	7	ButtonPress	AvoidedLoss	True
80.455	0.37	Lose2	0.875	n/a	Yes	4.027	n/a	n/a	GoodResponse	0	n/a	n/a	2	7	Blank	AvoidedLoss	True
80.822	1.45	Lose2	0.875	n/a	Yes	4.027	n/a	5.0	GoodResponse	0	0.034	79.856	2	7	Feedback	AvoidedLoss	True
82.271	4.027	Lose2	0.875	n/a	Yes	4.027	n/a	n/a	GoodResponse	0	0.0	n/a	2	7	ISIslide	AvoidedLoss	True
86.32	0.25	Lose2	0.8889	0.0	Yes	3.03	0.02	n/a	GoodResponse	0	n/a	n/a	2	8	Cue	AvoidedLoss	True
86.57	3.95	Lose2	0.8889	0.0	Yes	3.03	0.0	n/a	GoodResponse	0	n/a	n/a	2	8	Fixation	AvoidedLoss	True
90.518	0.32	Lose2	0.8889	0.002	Yes	3.03	-0.002	2.0	GoodResponse	0	0.193	89.711	2	8	Target	AvoidedLoss	True
90.711	0.3	Lose2	0.8889	0.002	Yes	3.03	-0.002	2.0	GoodResponse	0	0.193	n/a	2	8	ButtonPress	AvoidedLoss	True
90.851	0.38	Lose2	0.8889	n/a	Yes	3.03	n/a	n/a	GoodResponse	0	n/a	n/a	2	8	Blank	AvoidedLoss	True
91.218	1.45	Lose2	0.8889	n/a	Yes	3.03	n/a	5.0	GoodResponse	0	0.028	90.246	2	8	Feedback	AvoidedLoss	True
92.667	3.03	Lose2	0.8889	n/a	Yes	3.03	n/a	n/a	GoodResponse	0	0.0	n/a	2	8	ISIslide	AvoidedLoss	True
95.716	0.25	Lose2	0.9	0.001	Yes	3.134	0.016	n/a	GoodResponse	0	n/a	n/a	2	9	Cue	AvoidedLoss	True
95.966	3.95	Lose2	0.9	0.0	Yes	3.134	0.0	n/a	GoodResponse	0	n/a	n/a	2	9	Fixation	AvoidedLoss	True
99.915	0.31	Lose2	0.9	0.001	Yes	3.134	-0.001	2.0	GoodResponse	0	0.194	99.109	2	9	Target	AvoidedLoss	True
100.109	0.3	Lose2	0.9	0.001	Yes	3.134	-0.001	2.0	GoodResponse	0	0.194	n/a	2	9	ButtonPress	AvoidedLoss	True
100.232	0.39	Lose2	0.9	n/a	Yes	3.134	n/a	n/a	GoodResponse	0	n/a	n/a	2	9	Blank	AvoidedLoss	True
100.615	1.45	Lose2	0.9	n/a	Yes	3.134	n/a	5.0	GoodResponse	0	0.045	99.66	2	9	Feedback	AvoidedLoss	True
102.064	3.134	Lose2	0.9	n/a	Yes	3.134	n/a	n/a	GoodResponse	0	0.0	n/a	2	9	ISIslide	AvoidedLoss	True
105.213	0.25	Control	0.9091	0.0	Yes	3.287	0.013	n/a	GoodResponse	0	n/a	n/a	2	10	Cue	Neutral	True
105.463	4.0	Control	0.9091	0.0	Yes	3.287	0.0	n/a	GoodResponse	0	n/a	n/a	2	10	Fixation	Neutral	True
109.462	0.3	Control	0.9091	0.001	Yes	3.287	-0.001	2.0	GoodResponse	0	0.18	108.642	2	10	Target	Neutral	True
109.642	0.3	Control	0.9091	0.001	Yes	3.287	-0.001	2.0	GoodResponse	0	0.18	n/a	2	10	ButtonPress	Neutral	True
109.762	0.4	Control	0.9091	n/a	Yes	3.287	n/a	n/a	GoodResponse	0	n/a	n/a	2	10	Blank	Neutral	True
110.161	1.45	Control	0.9091	n/a	Yes	3.287	n/a	5.0	GoodResponse	0	0.011	109.172	2	10	Feedback	Neutral	True
111.611	3.287	Control	0.9091	n/a	Yes	3.287	n/a	n/a	GoodResponse	0	0.0	n/a	2	10	ISIslide	Neutral	True
114.926	0.25	Lose2	0.9167000000000001	0.001	Yes	2.724	0.026	n/a	GoodResponse	0	n/a	n/a	2	11	Cue	AvoidedLoss	False
115.176	4.05	Lose2	0.9167000000000001	0.0	Yes	2.724	0.0	2.0	GoodResponse	0	3.576	117.752	2	11	Fixation	AvoidedLoss	False
118.752	0.3	Lose2	0.9167000000000001	0.0	Yes	2.724	0.0	2.0	GoodResponse	0	3.576	n/a	2	11	ButtonPress	AvoidedLoss	False
119.225	0.29	Lose2	0.9167000000000001	0.001	Yes	2.724	-0.001	2.0	GoodResponse	0	0.179	118.404	2	11	Target	AvoidedLoss	False
119.404	0.3	Lose2	0.9167000000000001	0.001	Yes	2.724	-0.001	2.0	GoodResponse	0	0.179	n/a	2	11	ButtonPress	AvoidedLoss	False
119.525	0.41	Lose2	0.9167000000000001	n/a	Yes	2.724	n/a	n/a	GoodResponse	0	n/a	n/a	2	11	Blank	AvoidedLoss	False
119.925	1.45	Lose2	0.9167000000000001	n/a	Yes	2.724	n/a	5.0	GoodResponse	0	0.004	118.929	2	11	Feedback	AvoidedLoss	False
121.374	2.724	Lose2	0.9167000000000001	n/a	Yes	2.724	n/a	n/a	GoodResponse	0	0.0	n/a	2	11	ISIslide	AvoidedLoss	False
124.123	0.25	Control	0.9231	0.0	Yes	2.977	0.023	n/a	GoodResponse	0	n/a	n/a	2	12	Cue	Neutral	True
124.373	3.9	Control	0.9231	0.0	Yes	2.977	0.0	n/a	GoodResponse	0	n/a	n/a	2	12	Fixation	Neutral	True
128.272	0.28	Control	0.9231	0.001	Yes	2.977	-0.001	2.0	GoodResponse	0	0.26	127.532	2	12	Target	Neutral	True
128.532	0.3	Control	0.9231	0.001	Yes	2.977	-0.001	2.0	GoodResponse	0	0.26	n/a	2	12	ButtonPress	Neutral	True
128.555	0.42	Control	0.9231	n/a	Yes	2.977	n/a	n/a	GoodResponse	0	n/a	n/a	2	12	Blank	Neutral	True
128.972	1.45	Control	0.9231	n/a	Yes	2.977	n/a	5.0	GoodResponse	0	0.03	128.002	2	12	Feedback	Neutral	True
130.421	2.977	Control	0.9231	n/a	Yes	2.977	n/a	n/a	GoodResponse	0	0.0	n/a	2	12	ISIslide	Neutral	True
133.42	0.25	Control	0.9286	0.0	Yes	2.78	0.02	n/a	GoodResponse	0	n/a	n/a	2	13	Cue	Neutral	True
133.67	4.0	Control	0.9286	0.0	Yes	2.78	0.0	n/a	GoodResponse	0	n/a	n/a	2	13	Fixation	Neutral	True
137.669	0.27	Control	0.9286	0.001	Yes	2.78	-0.001	2.0	GoodResponse	0	0.208	136.877	2	13	Target	Neutral	True
137.877	0.3	Control	0.9286	0.001	Yes	2.78	-0.001	2.0	GoodResponse	0	0.208	n/a	2	13	ButtonPress	Neutral	True
137.952	0.43	Control	0.9286	n/a	Yes	2.78	n/a	n/a	GoodResponse	0	n/a	n/a	2	13	Blank	Neutral	True
138.368	1.45	Control	0.9286	n/a	Yes	2.78	n/a	5.0	GoodResponse	0	0.049	137.417	2	13	Feedback	Neutral	True
139.818	2.78	Control	0.9286	n/a	Yes	2.78	n/a	n/a	GoodResponse	0	0.0	n/a	2	13	ISIslide	Neutral	True
142.617	0.25	Win2	0.9333	0.0	Yes	2.683	0.017	n/a	GoodResponse	1	n/a	n/a	3	14	Cue	Win	True
142.867	4.1	Win2	0.9333	0.0	Yes	2.683	0.0	n/a	GoodResponse	1	n/a	n/a	3	14	Fixation	Win	True
146.965	0.26	Win2	0.9333	0.002	Yes	2.683	-0.002	2.0	GoodResponse	1	0.157	146.122	3	14	Target	Win	True
147.122	0.3	Win2	0.9333	0.002	Yes	2.683	-0.002	2.0	GoodResponse	1	0.157	n/a	3	14	ButtonPress	Win	True
147.232	0.44	Win2	0.9333	n/a	Yes	2.683	n/a	n/a	GoodResponse	1	n/a	n/a	3	14	Blank	Win	True
147.665	1.45	Win2	0.9333	n/a	Yes	2.683	n/a	5.0	GoodResponse	1	0.02	146.685	3	14	Feedback	Win	True
149.115	2.683	Win2	0.9333	n/a	Yes	2.683	n/a	n/a	GoodResponse	1	0.0	n/a	3	14	ISIslide	Win	True
151.814	0.25	Control	0.9375	0.0	Yes	2.986	0.014	n/a	GoodResponse	0	n/a	n/a	3	15	Cue	Neutral	True
152.064	4.0	Control	0.9375	0.0	Yes	2.986	0.0	n/a	GoodResponse	0	n/a	n/a	3	15	Fixation	Neutral	True
156.062	0.25	Control	0.9375	0.002	Yes	2.986	-0.002	2.0	GoodResponse	0	0.183	155.245	3	15	Target	Neutral	True
156.245	0.3	Control	0.9375	0.002	Yes	2.986	-0.002	2.0	GoodResponse	0	0.183	n/a	3	15	ButtonPress	Neutral	True
156.312	0.45	Control	0.9375	n/a	Yes	2.986	n/a	n/a	GoodResponse	0	n/a	n/a	3	15	Blank	Neutral	True
156.762	1.45	Control	0.9375	n/a	Yes	2.986	n/a	5.0	GoodResponse	0	0.044	155.806	3	15	Feedback	Neutral	True
158.211	2.986	Control	0.9375	n/a	Yes	2.986	n/a	n/a	GoodResponse	0	0.0	n/a	3	15	ISIslide	Neutral	True
161.227	0.25	Win2	0.9412	0.0	Yes	2.873	0.027	n/a	GoodResponse	1	n/a	n/a	4	16	Cue	Win	True
161.477	4.0	Win2	0.9412	0.0	Yes	2.873	0.0	n/a	GoodResponse	1	n/a	n/a	4	16	Fixation	Win	True
165.476	0.24	Win2	0.9412	0.001	Yes	2.873	-0.001	2.0	GoodResponse	1	0.146	164.622	4	16	Target	Win	True
165.622	0.3	Win2	0.9412	0.001	Yes	2.873	-0.001	2.0	GoodResponse	1	0.146	n/a	4	16	ButtonPress	Win	True
165.726	0.46	Win2	0.9412	n/a	Yes	2.873	n/a	n/a	GoodResponse	1	n/a	n/a	4	16	Blank	Win	True
166.175	1.45	Win2	0.9412	n/a	Yes	2.873	n/a	5.0	GoodResponse	1	0.046	165.221	4	16	Feedback	Win	True
167.625	2.873	Win2	0.9412	n/a	Yes	2.873	n/a	n/a	GoodResponse	1	0.0	n/a	4	16	ISIslide	Win	True
170.524	0.25	Lose2	0.9444	0.0	Yes	2.726	0.024	n/a	GoodResponse	0	n/a	n/a	4	17	Cue	AvoidedLoss	True
170.774	3.95	Lose2	0.9444	0.0	Yes	2.726	0.0	n/a	GoodResponse	0	n/a	n/a	4	17	Fixation	AvoidedLoss	True
174.722	0.23	Lose2	0.9444	0.002	Yes	2.726	-0.002	2.0	GoodResponse	0	0.181	173.903	4	17	Target	AvoidedLoss	True
174.903	0.3	Lose2	0.9444	0.002	Yes	2.726	-0.002	2.0	GoodResponse	0	0.181	n/a	4	17	ButtonPress	AvoidedLoss	True
174.956	0.47	Lose2	0.9444	n/a	Yes	2.726	n/a	n/a	GoodResponse	0	n/a	n/a	4	17	Blank	AvoidedLoss	True
175.422	1.45	Lose2	0.9444	n/a	Yes	2.726	n/a	5.0	GoodResponse	0	0.019	174.441	4	17	Feedback	AvoidedLoss	True
176.872	2.726	Lose2	0.9444	n/a	Yes	2.726	n/a	n/a	GoodResponse	0	0.0	n/a	4	17	ISIslide	AvoidedLoss	True
179.621	0.25	Lose2	0.9473999999999999	0.0	Yes	2.729	0.021	n/a	GoodResponse	0	n/a	n/a	4	18	Cue	AvoidedLoss	True
179.871	4.05	Lose2	0.9473999999999999	0.0	Yes	2.729	0.0	n/a	GoodResponse	0	n/a	n/a	4	18	Fixation	AvoidedLoss	True
183.919	0.22	Lose2	0.9473999999999999	0.002	Yes	2.729	-0.002	2.0	GoodResponse	0	0.194	183.113	4	18	Target	AvoidedLoss	True
184.113	0.3	Lose2	0.9473999999999999	0.002	Yes	2.729	-0.002	2.0	GoodResponse	0	0.194	n/a	4	18	ButtonPress	AvoidedLoss	True
184.153	0.48	Lose2	0.9473999999999999	n/a	Yes	2.729	n/a	n/a	GoodResponse	0	n/a	n/a	4	18	Blank	AvoidedLoss	True
184.619	1.45	Lose2	0.9473999999999999	n/a	Yes	2.729	n/a	5.0	GoodResponse	0	0.041	183.66	4	18	Feedback	AvoidedLoss	True
186.069	2.729	Lose2	0.9473999999999999	n/a	Yes	2.729	n/a	n/a	GoodResponse	0	0.0	n/a	4	18	ISIslide	AvoidedLoss	True
188.818	0.25	Control	0.95	0.0	Yes	2.932	0.018	n/a	GoodResponse	0	n/a	n/a	4	19	Cue	Neutral	True
189.067	3.95	Control	0.95	0.001	Yes	2.932	-0.001	n/a	GoodResponse	0	n/a	n/a	4	19	Fixation	Neutral	True
193.016	0.21	Control	0.95	0.002	Yes	2.932	-0.002	2.0	GoodResponse	0	0.195	192.211	4	19	Target	Neutral	True
193.211	0.3	Control	0.95	0.002	Yes	2.932	-0.002	2.0	GoodResponse	0	0.195	n/a	4	19	ButtonPress	Neutral	True
193.233	0.49	Control	0.95	n/a	Yes	2.932	n/a	n/a	GoodResponse	0	n/a	n/a	4	19	Blank	Neutral	True
193.716	1.45	Control	0.95	n/a	Yes	2.932	n/a	5.0	GoodResponse	0	0.017	192.733	4	19	Feedback	Neutral	True
195.165	2.932	Control	0.95	n/a	Yes	2.932	n/a	n/a	GoodResponse	0	0.0	n/a	4	19	ISIslide	Neutral	True
198.114	0.25	Control	0.9523999999999999	0.0	Yes	2.636	0.014	n/a	GoodResponse	0	n/a	n/a	4	20	Cue	Neutral	True
198.364	4.05	Control	0.9523999999999999	0.0	Yes	2.636	0.0	n/a	GoodResponse	0	n/a	n/a	4	20	Fixation	Neutral	True
202.413	0.2	Control	0.9523999999999999	0.001	Yes	2.636	-0.001	2.0	GoodResponse	0	0.186	201.599	4	20	Target	Neutral	True
202.599	0.3	Control	0.9523999999999999	0.001	Yes	2.636	-0.001	2.0	GoodResponse	0	0.186	n/a	4	20	ButtonPress	Neutral	True
202.613	0.5	Control	0.9523999999999999	n/a	Yes	2.636	n/a	n/a	GoodResponse	0	n/a	n/a	4	20	Blank	Neutral	True
203.113	1.45	Control	0.9523999999999999	n/a	Yes	2.636	n/a	5.0	GoodResponse	0	0.035	202.148	4	20	Feedback	Neutral	True
204.562	2.636	Control	0.9523999999999999	n/a	Yes	2.636	n/a	n/a	GoodResponse	0	0.0	n/a	4	20	ISIslide	Neutral	True
207.211	0.25	Control	0.9091	0.0	No	2.789	0.011	n/a	LatePress	0	n/a	n/a	4	21	Cue	Neutral	True
207.461	4.1	Control	0.9091	0.0	No	2.789	0.0	n/a	LatePress	0	n/a	n/a	4	21	Fixation	Neutral	True
211.56	0.19	Control	0.9091	0.001	No	2.789	-0.001	2.0	LatePress	0	0.19	210.75	4	21	Target	Neutral	True
211.75	0.3	Control	0.9091	0.001	No	2.789	-0.001	2.0	LatePress	0	0.19	n/a	4	21	ButtonPress	Neutral	True
211.76	0.51	Control	0.9091	n/a	No	2.789	n/a	n/a	LatePress	0	n/a	n/a	4	21	Blank	Neutral	True
212.259	1.45	Control	0.9091	n/a	No	2.789	n/a	5.0	LatePress	0	0.011	211.27	4	21	Feedback	Neutral	True
213.709	2.789	Control	0.9091	n/a	No	2.789	n/a	n/a	LatePress	0	0.0	n/a	4	21	ISIslide	Neutral	True
216.525	0.25	Control	0.8695999999999999	0.0	No	2.775	0.025	n/a	NoResponse	0	n/a	n/a	4	22	Cue	Neutral	True
216.775	4.0	Control	0.8695999999999999	0.0	No	2.775	0.0	n/a	NoResponse	0	n/a	n/a	4	22	Fixation	Neutral	True
220.773	0.18	Control	0.8695999999999999	0.002	No	2.775	-0.002	2.0	NoResponse	0	0.198	219.971	4	22	Target	Neutral	True
220.956	0.52	Control	0.8695999999999999	n/a	No	2.775	n/a	n/a	NoResponse	0	n/a	n/a	4	22	Blank	Neutral	True
220.971	0.3	Control	0.8695999999999999	0.002	No	2.775	-0.002	2.0	NoResponse	0	0.198	n/a	4	22	ButtonPress	Neutral	True
221.473	1.45	Control	0.8695999999999999	n/a	No	2.775	n/a	5.0	NoResponse	0	0.016	220.489	4	22	Feedback	Neutral	True
222.922	2.775	Control	0.8695999999999999	n/a	No	2.775	n/a	n/a	NoResponse	0	0.0	n/a	4	22	ISIslide	Neutral	True
225.721	0.25	Control	0.8332999999999999	0.001	No	2.779	0.021	n/a	NoResponse	0	n/a	n/a	4	23	Cue	Neutral	True
225.971	3.9	Control	0.8332999999999999	0.0	No	2.779	0.0	n/a	NoResponse	0	n/a	n/a	4	23	Fixation	Neutral	True
229.87	0.17	Control	0.8332999999999999	0.001	No	2.779	-0.001	2.0	NoResponse	0	0.268	229.138	4	23	Target	Neutral	True
230.037	0.53	Control	0.8332999999999999	n/a	No	2.779	n/a	n/a	NoResponse	0	n/a	n/a	4	23	Blank	Neutral	True
230.138	0.3	Control	0.8332999999999999	0.001	No	2.779	-0.001	2.0	NoResponse	0	0.268	n/a	4	23	ButtonPress	Neutral	True
230.57	1.45	Control	0.8332999999999999	n/a	No	2.779	n/a	5.0	NoResponse	0	0.041	229.611	4	23	Feedback	Neutral	True
232.019	2.779	Control	0.8332999999999999	n/a	No	2.779	n/a	n/a	NoResponse	0	0.0	n/a	4	23	ISIslide	Neutral	True
234.818	0.25	Win2	0.8	0.0	No	3.132	0.018	n/a	NoResponse	0	n/a	n/a	4	24	Cue	MissedWin	True
235.068	3.95	Win2	0.8	0.0	No	3.132	0.0	n/a	NoResponse	0	n/a	n/a	4	24	Fixation	MissedWin	True
239.017	0.16	Win2	0.8	0.001	No	3.132	-0.001	2.0	NoResponse	0	0.186	238.203	4	24	Target	MissedWin	True
239.183	0.54	Win2	0.8	n/a	No	3.132	n/a	n/a	NoResponse	0	n/a	n/a	4	24	Blank	MissedWin	True
239.203	0.3	Win2	0.8	0.001	No	3.132	-0.001	2.0	NoResponse	0	0.186	n/a	4	24	ButtonPress	MissedWin	True
239.717	1.45	Win2	0.8	n/a	No	3.132	n/a	5.0	NoResponse	0	0.016	238.733	4	24	Feedback	MissedWin	True
241.166	3.132	Win2	0.8	n/a	No	3.132	n/a	n/a	NoResponse	0	0.0	n/a	4	24	ISIslide	MissedWin	True
244.315	0.25	Win2	0.7692	0.0	No	3.085	0.015	n/a	NoResponse	0	n/a	n/a	4	25	Cue	MissedWin	True
244.565	4.0	Win2	0.7692	0.0	No	3.085	0.0	n/a	NoResponse	0	n/a	n/a	4	25	Fixation	MissedWin	True
248.564	0.15	Win2	0.7692	0.001	No	3.085	-0.001	2.0	NoResponse	0	0.177	247.741	4	25	Target	MissedWin	True
248.714	0.55	Win2	0.7692	n/a	No	3.085	n/a	n/a	NoResponse	0	n/a	n/a	4	25	Blank	MissedWin	True
248.741	0.3	Win2	0.7692	0.001	No	3.085	-0.001	2.0	NoResponse	0	0.177	n/a	4	25	ButtonPress	MissedWin	True
249.263	1.45	Win2	0.7692	n/a	No	3.085	n/a	5.0	NoResponse	0	0.031	248.294	4	25	Feedback	MissedWin	True
250.713	3.085	Win2	0.7692	n/a	No	3.085	n/a	n/a	NoResponse	0	0.0	n/a	4	25	ISIslide	MissedWin	True
253.812	0.25	Win2	0.7406999999999999	0.0	No	2.938	0.012	n/a	NoResponse	0	n/a	n/a	4	26	Cue	MissedWin	True
254.062	3.95	Win2	0.7406999999999999	0.0	No	2.938	0.0	n/a	NoResponse	0	n/a	n/a	4	26	Fixation	MissedWin	True
258.01	0.15	Win2	0.7406999999999999	0.002	No	2.938	-0.002	2.0	NoResponse	0	0.219	257.229	4	26	Target	MissedWin	True
258.16	0.55	Win2	0.7406999999999999	n/a	No	2.938	n/a	n/a	NoResponse	0	n/a	n/a	4	26	Blank	MissedWin	True
258.229	0.3	Win2	0.7406999999999999	0.002	No	2.938	-0.002	2.0	NoResponse	0	0.219	n/a	4	26	ButtonPress	MissedWin	True
258.71	1.45	Win2	0.7406999999999999	n/a	No	2.938	n/a	5.0	NoResponse	0	0.048	257.758	4	26	Feedback	MissedWin	True
260.16	2.938	Win2	0.7406999999999999	n/a	No	2.938	n/a	n/a	NoResponse	0	0.0	n/a	4	26	ISIslide	MissedWin	True
263.125	0.25	Lose2	0.7143	0.0	No	2.825	0.025	n/a	NoResponse	-1	n/a	n/a	3	27	Cue	Loss	True
263.375	4.05	Lose2	0.7143	0.0	No	2.825	0.0	n/a	NoResponse	-1	n/a	n/a	3	27	Fixation	Loss	True
267.424	0.15	Lose2	0.7143	0.001	No	2.825	-0.001	2.0	NoResponse	-1	0.175	266.599	3	27	Target	Loss	True
267.574	0.55	Lose2	0.7143	n/a	No	2.825	n/a	n/a	NoResponse	-1	n/a	n/a	3	27	Blank	Loss	True
267.599	0.3	Lose2	0.7143	0.001	No	2.825	-0.001	2.0	NoResponse	-1	0.175	n/a	3	27	ButtonPress	Loss	True
268.123	1.45	Lose2	0.7143	n/a	No	2.825	n/a	5.0	NoResponse	-1	0.001	267.124	3	27	Feedback	Loss	True
269.573	2.825	Lose2	0.7143	n/a	No	2.825	n/a	n/a	NoResponse	-1	0.0	n/a	3	27	ISIslide	Loss	True
272.422	0.25	Control	0.6897	0.0	No	2.828	0.022	n/a	NoResponse	0	n/a	n/a	3	28	Cue	Neutral	True
272.672	4.05	Control	0.6897	0.0	No	2.828	0.0	2.0	NoResponse	0	3.896	275.568	3	28	Fixation	Neutral	True
276.568	0.3	Control	0.6897	0.0	No	2.828	0.0	2.0	NoResponse	0	3.896	n/a	3	28	ButtonPress	Neutral	True
276.721	0.15	Control	0.6897	0.001	No	2.828	-0.001	n/a	NoResponse	0	n/a	n/a	3	28	Target	Neutral	True
276.87	0.55	Control	0.6897	n/a	No	2.828	n/a	n/a	NoResponse	0	n/a	n/a	3	28	Blank	Neutral	True
277.42	1.45	Control	0.6897	n/a	No	2.828	n/a	5.0	NoResponse	0	0.02	276.44	3	28	Feedback	Neutral	True
278.87	2.828	Control	0.6897	n/a	No	2.828	n/a	n/a	NoResponse	0	0.0	n/a	3	28	ISIslide	Neutral	True
281.719	0.25	Lose2	0.6667000000000001	0.0	No	2.831	0.019	n/a	NoResponse	-1	n/a	n/a	2	29	Cue	Loss	True
281.969	3.95	Lose2	0.6667000000000001	0.0	No	2.831	0.0	n/a	NoResponse	-1	n/a	n/a	2	29	Fixation	Loss	True
285.917	0.15	Lose2	0.6667000000000001	0.002	No	2.831	-0.002	2.0	NoResponse	-1	0.174	285.091	2	29	Target	Loss	True
286.067	0.55	Lose2	0.6667000000000001	n/a	No	2.831	n/a	n/a	NoResponse	-1	n/a	n/a	2	29	Blank	Loss	True
286.091	0.3	Lose2	0.6667000000000001	0.002	No	2.831	-0.002	2.0	NoResponse	-1	0.174	n/a	2	29	ButtonPress	Loss	True
286.617	1.45	Lose2	0.6667000000000001	n/a	No	2.831	n/a	5.0	NoResponse	-1	0.043	285.66	2	29	Feedback	Loss	True
288.067	2.831	Lose2	0.6667000000000001	n/a	No	2.831	n/a	n/a	NoResponse	-1	0.0	n/a	2	29	ISIslide	Loss	True
290.916	0.25	Win2	0.6452	0.0	No	2.784	0.016	n/a	NoResponse	0	n/a	n/a	2	30	Cue	MissedWin	True
291.166	3.9	Win2	0.6452	0.0	No	2.784	0.0	n/a	NoResponse	0	n/a	n/a	2	30	Fixation	MissedWin	True
295.064	0.15	Win2	0.6452	0.002	No	2.784	-0.002	2.0	NoResponse	0	0.172	294.236	2	30	Target	MissedWin	True
295.214	0.55	Win2	0.6452	n/a	No	2.784	n/a	n/a	NoResponse	0	n/a	n/a	2	30	Blank	MissedWin	True
295.236	0.3	Win2	0.6452	0.002	No	2.784	-0.002	2.0	NoResponse	0	0.172	n/a	2	30	ButtonPress	MissedWin	True
295.764	1.45	Win2	0.6452	n/a	No	2.784	n/a	5.0	NoResponse	0	0.018	294.782	2	30	Feedback	MissedWin	True
297.213	2.784	Win2	0.6452	n/a	No	2.784	n/a	n/a	NoResponse	0	0.0	n/a	2	30	ISIslide	MissedWin	True
300.012	0.25	Lose2	0.625	0.001	No	2.838	0.012	n/a	NoResponse	-1	n/a	n/a	1	31	Cue	Loss	True
300.262	4.05	Lose2	0.625	0.0	No	2.838	0.0	n/a	NoResponse	-1	n/a	n/a	1	31	Fixation	Loss	True
304.311	0.16	Lose2	0.625	0.001	No	2.838	-0.001	2.0	NoResponse	-1	0.175	303.486	1	31	Target	Loss	True
304.478	0.54	Lose2	0.625	n/a	No	2.838	n/a	n/a	NoResponse	-1	n/a	n/a	1	31	Blank	Loss	True
304.486	0.3	Lose2	0.625	0.001	No	2.838	-0.001	2.0	NoResponse	-1	0.175	n/a	1	31	ButtonPress	Loss	True
305.011	1.45	Lose2	0.625	n/a	No	2.838	n/a	5.0	NoResponse	-1	0.039	304.05	1	31	Feedback	Loss	True
306.46	2.838	Lose2	0.625	n/a	No	2.838	n/a	n/a	NoResponse	-1	0.0	n/a	1	31	ISIslide	Loss	True
309.326	0.25	Lose2	0.6061	0.0	No	2.624	0.026	n/a	PrematurePress	-1	n/a	n/a	0	32	Cue	Loss	False
309.576	4.15	Lose2	0.6061	0.0	No	2.624	0.0	2.0	PrematurePress	-1	3.591	312.167	0	32	Fixation	Loss	False
313.167	0.3	Lose2	0.6061	0.0	No	2.624	0.0	2.0	PrematurePress	-1	3.591	n/a	0	32	ButtonPress	Loss	False
313.724	0.17	Lose2	0.6061	0.002	No	2.624	-0.002	2.0	PrematurePress	-1	0.056	312.78	0	32	Target	Loss	False
313.78	0.3	Lose2	0.6061	0.002	No	2.624	-0.002	2.0	PrematurePress	-1	0.056	n/a	0	32	ButtonPress	Loss	False
313.908	0.53	Lose2	0.6061	n/a	No	2.624	n/a	n/a	PrematurePress	-1	n/a	n/a	0	32	Blank	Loss	False
314.424	1.45	Lose2	0.6061	n/a	No	2.624	n/a	5.0	PrematurePress	-1	0.041	313.465	0	32	Feedback	Loss	False
315.874	2.624	Lose2	0.6061	n/a	No	2.624	n/a	n/a	PrematurePress	-1	0.0	n/a	0	32	ISIslide	Loss	False
318.523	0.25	Win2	0.5882000000000001	0.0	No	2.677	0.023	n/a	NoResponse	0	n/a	n/a	0	33	Cue	MissedWin	True
318.773	4.0	Win2	0.5882000000000001	0.0	No	2.677	0.0	n/a	NoResponse	0	n/a	n/a	0	33	Fixation	MissedWin	True
322.771	0.18	Win2	0.5882000000000001	0.002	No	2.677	-0.002	2.0	NoResponse	0	0.19	321.961	0	33	Target	MissedWin	True
322.955	0.52	Win2	0.5882000000000001	n/a	No	2.677	n/a	n/a	NoResponse	0	n/a	n/a	0	33	Blank	MissedWin	True
322.961	0.3	Win2	0.5882000000000001	0.002	No	2.677	-0.002	2.0	NoResponse	0	0.19	n/a	0	33	ButtonPress	MissedWin	True
323.471	1.45	Win2	0.5882000000000001	n/a	No	2.677	n/a	5.0	NoResponse	0	0.018	322.489	0	33	Feedback	MissedWin	True
324.921	2.677	Win2	0.5882000000000001	n/a	No	2.677	n/a	n/a	NoResponse	0	0.0	n/a	0	33	ISIslide	MissedWin	True
327.62	0.25	Lose2	0.5714	0.0	No	2.63	0.02	2.0	LatePress	-1	0.226	326.846	-1	34	Cue	Loss	False
327.846	0.3	Lose2	0.5714	0.0	No	2.63	0.02	2.0	LatePress	-1	0.226	n/a	-1	34	ButtonPress	Loss	False
327.87	4.05	Lose2	0.5714	0.0	No	2.63	0.0	2.0	LatePress	-1	0.192	327.062	-1	34	Fixation	Loss	False
328.062	0.3	Lose2	0.5714	0.0	No	2.63	0.0	2.0	LatePress	-1	0.192	n/a	-1	34	ButtonPress	Loss	False
331.918	0.19	Lose2	0.5714	0.002	No	2.63	-0.002	2.0	LatePress	-1	0.196	331.114	-1	34	Target	Loss	False
332.114	0.3	Lose2	0.5714	0.002	No	2.63	-0.002	2.0	LatePress	-1	0.196	n/a	-1	34	ButtonPress	Loss	False
332.118	0.51	Lose2	0.5714	n/a	No	2.63	n/a	n/a	LatePress	-1	n/a	n/a	-1	34	Blank	Loss	False
332.618	1.45	Lose2	0.5714	n/a	No	2.63	n/a	5.0	LatePress	-1	0.042	331.66	-1	34	Feedback	Loss	False
334.067	2.63	Lose2	0.5714	n/a	No	2.63	n/a	n/a	LatePress	-1	0.0	n/a	-1	34	ISIslide	Loss	False
336.716	0.25	Lose2	0.5832999999999999	0.001	Yes	2.684	0.016	n/a	GoodResponse	0	n/a	n/a	-1	35	Cue	AvoidedLoss	True
336.966	4.0	Lose2	0.5832999999999999	0.0	Yes	2.684	0.0	n/a	GoodResponse	0	n/a	n/a	-1	35	Fixation	AvoidedLoss	True
340.965	0.2	Lose2	0.5832999999999999	0.001	Yes	2.684	-0.001	2.0	GoodResponse	0	0.176	340.141	-1	35	Target	AvoidedLoss	True
341.141	0.3	Lose2	0.5832999999999999	0.001	Yes	2.684	-0.001	2.0	GoodResponse	0	0.176	n/a	-1	35	ButtonPress	AvoidedLoss	True
341.165	0.5	Lose2	0.5832999999999999	n/a	Yes	2.684	n/a	n/a	GoodResponse	0	n/a	n/a	-1	35	Blank	AvoidedLoss	True
341.665	1.45	Lose2	0.5832999999999999	n/a	Yes	2.684	n/a	5.0	GoodResponse	0	0.019	340.684	-1	35	Feedback	AvoidedLoss	True
343.114	2.684	Lose2	0.5832999999999999	n/a	Yes	2.684	n/a	n/a	GoodResponse	0	0.0	n/a	-1	35	ISIslide	AvoidedLoss	True
345.813	0.25	Control	0.5946	0.0	Yes	2.687	0.013	n/a	GoodResponse	0	n/a	n/a	-1	36	Cue	Neutral	True
346.063	4.0	Control	0.5946	0.0	Yes	2.687	0.0	n/a	GoodResponse	0	n/a	n/a	-1	36	Fixation	Neutral	True
350.062	0.21	Control	0.5946	0.001	Yes	2.687	-0.001	2.0	GoodResponse	0	0.183	349.245	-1	36	Target	Neutral	True
350.245	0.3	Control	0.5946	0.001	Yes	2.687	-0.001	2.0	GoodResponse	0	0.183	n/a	-1	36	ButtonPress	Neutral	True
350.278	0.49	Control	0.5946	n/a	Yes	2.687	n/a	n/a	GoodResponse	0	n/a	n/a	-1	36	Blank	Neutral	True
350.762	1.45	Control	0.5946	n/a	Yes	2.687	n/a	5.0	GoodResponse	0	0.044	349.806	-1	36	Feedback	Neutral	True
352.211	2.687	Control	0.5946	n/a	Yes	2.687	n/a	n/a	GoodResponse	0	0.0	n/a	-1	36	ISIslide	Neutral	True
354.927	0.25	Win2	0.6053000000000001	0.0	Yes	2.873	0.027	n/a	GoodResponse	1	n/a	n/a	0	37	Cue	Win	True
355.177	4.0	Win2	0.6053000000000001	0.0	Yes	2.873	0.0	n/a	GoodResponse	1	n/a	n/a	0	37	Fixation	Win	True
359.175	0.22	Win2	0.6053000000000001	0.002	Yes	2.873	-0.002	2.0	GoodResponse	1	0.176	358.351	0	37	Target	Win	True
359.351	0.3	Win2	0.6053000000000001	0.002	Yes	2.873	-0.002	2.0	GoodResponse	1	0.176	n/a	0	37	ButtonPress	Win	True
359.409	0.48	Win2	0.6053000000000001	n/a	Yes	2.873	n/a	n/a	GoodResponse	1	n/a	n/a	0	37	Blank	Win	True
359.875	1.45	Win2	0.6053000000000001	n/a	Yes	2.873	n/a	5.0	GoodResponse	1	0.004	358.879	0	37	Feedback	Win	True
361.325	2.873	Win2	0.6053000000000001	n/a	Yes	2.873	n/a	n/a	GoodResponse	1	0.0	n/a	0	37	ISIslide	Win	True
364.224	0.25	Lose2	0.6154	0.0	Yes	2.826	0.024	n/a	GoodResponse	0	n/a	n/a	0	38	Cue	AvoidedLoss	True
364.474	3.95	Lose2	0.6154	0.0	Yes	2.826	0.0	n/a	GoodResponse	0	n/a	n/a	0	38	Fixation	AvoidedLoss	True
368.422	0.23	Lose2	0.6154	0.002	Yes	2.826	-0.002	2.0	GoodResponse	0	0.181	367.603	0	38	Target	AvoidedLoss	True
368.603	0.3	Lose2	0.6154	0.002	Yes	2.826	-0.002	2.0	GoodResponse	0	0.181	n/a	0	38	ButtonPress	AvoidedLoss	True
368.655	0.47	Lose2	0.6154	n/a	Yes	2.826	n/a	n/a	GoodResponse	0	n/a	n/a	0	38	Blank	AvoidedLoss	True
369.122	1.45	Lose2	0.6154	n/a	Yes	2.826	n/a	5.0	GoodResponse	0	0.025	368.147	0	38	Feedback	AvoidedLoss	True
370.571	2.826	Lose2	0.6154	n/a	Yes	2.826	n/a	n/a	GoodResponse	0	0.0	n/a	0	38	ISIslide	AvoidedLoss	True
373.42	0.25	Win2	0.625	0.0	Yes	2.98	0.02	n/a	GoodResponse	1	n/a	n/a	1	39	Cue	Win	True
373.67	4.1	Win2	0.625	0.0	Yes	2.98	0.0	n/a	GoodResponse	1	n/a	n/a	1	39	Fixation	Win	True
377.769	0.24	Win2	0.625	0.001	Yes	2.98	-0.001	2.0	GoodResponse	1	0.166	376.935	1	39	Target	Win	True
377.935	0.3	Win2	0.625	0.001	Yes	2.98	-0.001	2.0	GoodResponse	1	0.166	n/a	1	39	ButtonPress	Win	True
378.019	0.46	Win2	0.625	n/a	Yes	2.98	n/a	n/a	GoodResponse	1	n/a	n/a	1	39	Blank	Win	True
378.469	1.45	Win2	0.625	n/a	Yes	2.98	n/a	5.0	GoodResponse	1	0.044	377.513	1	39	Feedback	Win	True
379.918	2.98	Win2	0.625	n/a	Yes	2.98	n/a	n/a	GoodResponse	1	0.0	n/a	1	39	ISIslide	Win	True
382.917	0.25	Win2	0.6341	0.0	Yes	2.733	0.017	n/a	GoodResponse	1	n/a	n/a	2	40	Cue	Win	True
383.167	3.95	Win2	0.6341	0.0	Yes	2.733	0.0	n/a	GoodResponse	1	n/a	n/a	2	40	Fixation	Win	True
387.116	0.25	Win2	0.6341	0.001	Yes	2.733	-0.001	2.0	GoodResponse	1	0.127	386.243	2	40	Target	Win	True
387.243	0.3	Win2	0.6341	0.001	Yes	2.733	-0.001	2.0	GoodResponse	1	0.127	n/a	2	40	ButtonPress	Win	True
387.366	0.45	Win2	0.6341	n/a	Yes	2.733	n/a	n/a	GoodResponse	1	n/a	n/a	2	40	Blank	Win	True
387.815	1.45	Win2	0.6341	n/a	Yes	2.733	n/a	5.0	GoodResponse	1	0.016	386.831	2	40	Feedback	Win	True
389.265	2.733	Win2	0.6341	n/a	Yes	2.733	n/a	n/a	GoodResponse	1	0.0	n/a	2	40	ISIslide	Win	True
392.014	0.25	Win2	0.6429	0.0	Yes	2.786	0.014	n/a	GoodResponse	1	n/a	n/a	3	41	Cue	Win	False
392.264	3.9	Win2	0.6429	0.0	Yes	2.786	0.0	2.0	GoodResponse	1	3.706	394.97	3	41	Fixation	Win	False
395.97	0.3	Win2	0.6429	0.0	Yes	2.786	0.0	2.0	GoodResponse	1	3.706	n/a	3	41	ButtonPress	Win	False
396.163	0.26	Win2	0.6429	0.001	Yes	2.786	-0.001	2.0	GoodResponse	1	0.169	395.332	3	41	Target	Win	False
396.332	0.3	Win2	0.6429	0.001	Yes	2.786	-0.001	2.0	GoodResponse	1	0.169	n/a	3	41	ButtonPress	Win	False
396.429	0.44	Win2	0.6429	n/a	Yes	2.786	n/a	n/a	GoodResponse	1	n/a	n/a	3	41	Blank	Win	False
396.862	1.45	Win2	0.6429	n/a	Yes	2.786	n/a	5.0	GoodResponse	1	0.041	395.903	3	41	Feedback	Win	False
398.312	2.786	Win2	0.6429	n/a	Yes	2.786	n/a	n/a	GoodResponse	1	0.0	n/a	3	41	ISIslide	Win	False
401.128	0.25	Control	0.6512	0.0	Yes	2.922	0.028	n/a	GoodResponse	0	n/a	n/a	3	42	Cue	Neutral	True
401.377	3.85	Control	0.6512	0.001	Yes	2.922	-0.001	n/a	GoodResponse	0	n/a	n/a	3	42	Fixation	Neutral	True
405.226	0.27	Control	0.6512	0.002	Yes	2.922	-0.002	2.0	GoodResponse	0	0.183	404.409	3	42	Target	Neutral	True
405.409	0.3	Control	0.6512	0.002	Yes	2.922	-0.002	2.0	GoodResponse	0	0.183	n/a	3	42	ButtonPress	Neutral	True
405.509	0.43	Control	0.6512	n/a	Yes	2.922	n/a	n/a	GoodResponse	0	n/a	n/a	3	42	Blank	Neutral	True
405.926	1.45	Control	0.6512	n/a	Yes	2.922	n/a	5.0	GoodResponse	0	0.001	404.927	3	42	Feedback	Neutral	True
407.375	2.922	Control	0.6512	n/a	Yes	2.922	n/a	n/a	GoodResponse	0	0.0	n/a	3	42	ISIslide	Neutral	True
410.324	0.25	Win2	0.6591	0.0	Yes	3.176	0.024	n/a	GoodResponse	1	n/a	n/a	4	43	Cue	Win	True
410.574	4.0	Win2	0.6591	0.0	Yes	3.176	0.0	n/a	GoodResponse	1	n/a	n/a	4	43	Fixation	Win	True
414.573	0.28	Win2	0.6591	0.001	Yes	3.176	-0.001	2.0	GoodResponse	1	0.166	413.739	4	43	Target	Win	True
414.739	0.3	Win2	0.6591	0.001	Yes	3.176	-0.001	2.0	GoodResponse	1	0.166	n/a	4	43	ButtonPress	Win	True
414.856	0.42	Win2	0.6591	n/a	Yes	3.176	n/a	n/a	GoodResponse	1	n/a	n/a	4	43	Blank	Win	True
415.273	1.45	Win2	0.6591	n/a	Yes	3.176	n/a	5.0	GoodResponse	1	0.02	414.293	4	43	Feedback	Win	True
416.722	3.176	Win2	0.6591	n/a	Yes	3.176	n/a	n/a	GoodResponse	1	0.0	n/a	4	43	ISIslide	Win	True
419.921	0.25	Win2	0.6667000000000001	0.0	Yes	2.979	0.021	n/a	GoodResponse	1	n/a	n/a	5	44	Cue	Win	True
420.171	4.0	Win2	0.6667000000000001	0.0	Yes	2.979	0.0	n/a	GoodResponse	1	n/a	n/a	5	44	Fixation	Win	True
424.17	0.28	Win2	0.6667000000000001	0.001	Yes	2.979	-0.001	2.0	GoodResponse	1	0.177	423.347	5	44	Target	Win	True
424.347	0.3	Win2	0.6667000000000001	0.001	Yes	2.979	-0.001	2.0	GoodResponse	1	0.177	n/a	5	44	ButtonPress	Win	True
424.453	0.42	Win2	0.6667000000000001	n/a	Yes	2.979	n/a	n/a	GoodResponse	1	n/a	n/a	5	44	Blank	Win	True
424.869	1.45	Win2	0.6667000000000001	n/a	Yes	2.979	n/a	5.0	GoodResponse	1	0.034	423.903	5	44	Feedback	Win	True
426.319	2.979	Win2	0.6667000000000001	n/a	Yes	2.979	n/a	n/a	GoodResponse	1	0.0	n/a	5	44	ISIslide	Win	True
429.318	0.25	Control	0.6739	0.0	Yes	2.882	0.018	n/a	GoodResponse	0	n/a	n/a	5	45	Cue	Neutral	True
429.568	4.1	Control	0.6739	0.0	Yes	2.882	0.0	n/a	GoodResponse	0	n/a	n/a	5	45	Fixation	Neutral	True
433.666	0.27	Control	0.6739	0.002	Yes	2.882	-0.002	2.0	GoodResponse	0	0.175	432.841	5	45	Target	Neutral	True
433.841	0.3	Control	0.6739	0.002	Yes	2.882	-0.002	2.0	GoodResponse	0	0.175	n/a	5	45	ButtonPress	Neutral	True
433.949	0.43	Control	0.6739	n/a	Yes	2.882	n/a	n/a	GoodResponse	0	n/a	n/a	5	45	Blank	Neutral	True
434.366	1.45	Control	0.6739	n/a	Yes	2.882	n/a	5.0	GoodResponse	0	0.001	433.367	5	45	Feedback	Neutral	True
435.816	2.882	Control	0.6739	n/a	Yes	2.882	n/a	n/a	GoodResponse	0	0.0	n/a	5	45	ISIslide	Neutral	True
438.715	0.25	Lose2	0.6809000000000001	0.0	Yes	3.385	0.015	n/a	GoodResponse	0	n/a	n/a	5	46	Cue	AvoidedLoss	True
438.964	4.0	Lose2	0.6809000000000001	0.001	Yes	3.385	-0.001	n/a	GoodResponse	0	n/a	n/a	5	46	Fixation	AvoidedLoss	True
442.963	0.26	Lose2	0.6809000000000001	0.002	Yes	3.385	-0.002	2.0	GoodResponse	0	0.104	442.067	5	46	Target	AvoidedLoss	True
443.067	0.3	Lose2	0.6809000000000001	0.002	Yes	3.385	-0.002	2.0	GoodResponse	0	0.104	n/a	5	46	ButtonPress	AvoidedLoss	True
443.23	0.44	Lose2	0.6809000000000001	n/a	Yes	3.385	n/a	n/a	GoodResponse	0	n/a	n/a	5	46	Blank	AvoidedLoss	True
443.663	1.45	Lose2	0.6809000000000001	n/a	Yes	3.385	n/a	5.0	GoodResponse	0	0.021	442.684	5	46	Feedback	AvoidedLoss	True
445.112	3.385	Lose2	0.6809000000000001	n/a	Yes	3.385	n/a	n/a	GoodResponse	0	0.0	n/a	5	46	ISIslide	AvoidedLoss	True
448.511	0.25	Lose2	0.6875	0.0	Yes	2.689	0.011	n/a	GoodResponse	0	n/a	n/a	5	47	Cue	AvoidedLoss	True
448.761	4.0	Lose2	0.6875	0.0	Yes	2.689	0.0	n/a	GoodResponse	0	n/a	n/a	5	47	Fixation	AvoidedLoss	True
452.76	0.25	Lose2	0.6875	0.001	Yes	2.689	-0.001	2.0	GoodResponse	0	0.193	451.953	5	47	Target	AvoidedLoss	True
452.953	0.3	Lose2	0.6875	0.001	Yes	2.689	-0.001	2.0	GoodResponse	0	0.193	n/a	5	47	ButtonPress	AvoidedLoss	True
453.01	0.45	Lose2	0.6875	n/a	Yes	2.689	n/a	n/a	GoodResponse	0	n/a	n/a	5	47	Blank	AvoidedLoss	True
453.459	1.45	Lose2	0.6875	n/a	Yes	2.689	n/a	5.0	GoodResponse	0	0.03	452.489	5	47	Feedback	AvoidedLoss	True
454.909	2.689	Lose2	0.6875	n/a	Yes	2.689	n/a	n/a	GoodResponse	0	0.0	n/a	5	47	ISIslide	AvoidedLoss	True
457.625	0.25	Lose2	0.6735	0.0	No	3.025	0.025	n/a	PrematurePress	-1	n/a	n/a	4	48	Cue	Loss	False
457.875	3.95	Lose2	0.6735	0.0	No	3.025	0.0	2.0	PrematurePress	-1	3.401	460.276	4	48	Fixation	Loss	False
461.276	0.3	Lose2	0.6735	0.0	No	3.025	0.0	2.0	PrematurePress	-1	3.401	n/a	4	48	ButtonPress	Loss	False
461.823	0.24	Lose2	0.6735	0.002	No	3.025	-0.002	2.0	PrematurePress	-1	0.006	460.829	4	48	Target	Loss	False
461.829	0.3	Lose2	0.6735	0.002	No	3.025	-0.002	2.0	PrematurePress	-1	0.006	n/a	4	48	ButtonPress	Loss	False
462.073	0.46	Lose2	0.6735	n/a	No	3.025	n/a	n/a	PrematurePress	-1	n/a	n/a	4	48	Blank	Loss	False
462.523	1.45	Lose2	0.6735	n/a	No	3.025	n/a	5.0	PrematurePress	-1	0.038	461.561	4	48	Feedback	Loss	False
463.972	3.025	Lose2	0.6735	n/a	No	3.025	n/a	n/a	PrematurePress	-1	0.0	n/a	4	48	ISIslide	Loss	False
467.021	0.25	Control	0.68	0.0	Yes	2.879	0.021	n/a	GoodResponse	0	n/a	n/a	4	49	Cue	Neutral	False
467.271	4.0	Control	0.68	0.0	Yes	2.879	0.0	2.0	GoodResponse	0	3.543	469.814	4	49	Fixation	Neutral	False
470.814	0.3	Control	0.68	0.0	Yes	2.879	0.0	2.0	GoodResponse	0	3.543	n/a	4	49	ButtonPress	Neutral	False
471.27	0.23	Control	0.68	0.001	Yes	2.879	-0.001	2.0	GoodResponse	0	0.173	470.443	4	49	Target	Neutral	False
471.443	0.3	Control	0.68	0.001	Yes	2.879	-0.001	2.0	GoodResponse	0	0.173	n/a	4	49	ButtonPress	Neutral	False
471.503	0.47	Control	0.68	n/a	Yes	2.879	n/a	n/a	GoodResponse	0	n/a	n/a	4	49	Blank	Neutral	False
471.97	1.45	Control	0.68	n/a	Yes	2.879	n/a	5.0	GoodResponse	0	0.006	470.976	4	49	Feedback	Neutral	False
473.419	2.879	Control	0.68	n/a	Yes	2.879	n/a	n/a	GoodResponse	0	0.0	n/a	4	49	ISIslide	Neutral	False
476.318	0.25	Control	0.6862999999999999	0.0	Yes	2.782	0.018	n/a	GoodResponse	0	n/a	n/a	4	50	Cue	Neutral	True
476.568	4.0	Control	0.6862999999999999	0.0	Yes	2.782	0.0	n/a	GoodResponse	0	n/a	n/a	4	50	Fixation	Neutral	True
480.567	0.22	Control	0.6862999999999999	0.001	Yes	2.782	-0.001	2.0	GoodResponse	0	0.192	479.759	4	50	Target	Neutral	True
480.759	0.3	Control	0.6862999999999999	0.001	Yes	2.782	-0.001	2.0	GoodResponse	0	0.192	n/a	4	50	ButtonPress	Neutral	True
480.783	0.48	Control	0.6862999999999999	n/a	Yes	2.782	n/a	n/a	GoodResponse	0	n/a	n/a	4	50	Blank	Neutral	True
481.266	1.45	Control	0.6862999999999999	n/a	Yes	2.782	n/a	5.0	GoodResponse	0	0.027	480.293	4	50	Feedback	Neutral	True
482.716	2.782	Control	0.6862999999999999	n/a	Yes	2.782	n/a	n/a	GoodResponse	0	0.0	n/a	4	50	ISIslide	Neutral	True
485.515	0.25	Control	0.6923	0.0	Yes	2.735	0.015	n/a	GoodResponse	0	n/a	n/a	4	51	Cue	Neutral	True
485.765	3.95	Control	0.6923	0.0	Yes	2.735	0.0	n/a	GoodResponse	0	n/a	n/a	4	51	Fixation	Neutral	True
489.714	0.21	Control	0.6923	0.001	Yes	2.735	-0.001	2.0	GoodResponse	0	0.208	488.922	4	51	Target	Neutral	True
489.922	0.3	Control	0.6923	0.001	Yes	2.735	-0.001	2.0	GoodResponse	0	0.208	n/a	4	51	ButtonPress	Neutral	True
489.93	0.49	Control	0.6923	n/a	Yes	2.735	n/a	n/a	GoodResponse	0	n/a	n/a	4	51	Blank	Neutral	True
490.413	1.45	Control	0.6923	n/a	Yes	2.735	n/a	5.0	GoodResponse	0	0.002	489.415	4	51	Feedback	Neutral	True
491.863	2.735	Control	0.6923	n/a	Yes	2.735	n/a	n/a	GoodResponse	0	0.0	n/a	4	51	ISIslide	Neutral	True
494.612	0.25	Control	0.6981	0.0	Yes	2.638	0.012	n/a	GoodResponse	0	n/a	n/a	4	52	Cue	Neutral	True
494.862	4.05	Control	0.6981	0.0	Yes	2.638	0.0	n/a	GoodResponse	0	n/a	n/a	4	52	Fixation	Neutral	True
498.91	0.2	Control	0.6981	0.002	Yes	2.638	-0.002	2.0	GoodResponse	0	0.195	498.105	4	52	Target	Neutral	True
499.105	0.3	Control	0.6981	0.002	Yes	2.638	-0.002	2.0	GoodResponse	0	0.195	n/a	4	52	ButtonPress	Neutral	True
499.11	0.5	Control	0.6981	n/a	Yes	2.638	n/a	n/a	GoodResponse	0	n/a	n/a	4	52	Blank	Neutral	True
499.61	1.45	Control	0.6981	n/a	Yes	2.638	n/a	5.0	GoodResponse	0	0.025	498.635	4	52	Feedback	Neutral	True
501.06	2.638	Control	0.6981	n/a	Yes	2.638	n/a	n/a	GoodResponse	0	0.0	n/a	4	52	ISIslide	Neutral	True
503.725	0.25	Win2	0.6851999999999999	0.0	No	2.925	0.025	n/a	LatePress	0	n/a	n/a	4	53	Cue	MissedWin	True
503.975	4.05	Win2	0.6851999999999999	0.0	No	2.925	0.0	n/a	LatePress	0	n/a	n/a	4	53	Fixation	MissedWin	True
508.024	0.19	Win2	0.6851999999999999	0.001	No	2.925	-0.001	2.0	LatePress	0	0.195	507.219	4	53	Target	MissedWin	True
508.219	0.3	Win2	0.6851999999999999	0.001	No	2.925	-0.001	2.0	LatePress	0	0.195	n/a	4	53	ButtonPress	MissedWin	True
508.224	0.51	Win2	0.6851999999999999	n/a	No	2.925	n/a	n/a	LatePress	0	n/a	n/a	4	53	Blank	MissedWin	True
508.724	1.45	Win2	0.6851999999999999	n/a	No	2.925	n/a	5.0	LatePress	0	0.033	507.757	4	53	Feedback	MissedWin	True
510.173	2.925	Win2	0.6851999999999999	n/a	No	2.925	n/a	n/a	LatePress	0	0.0	n/a	4	53	ISIslide	MissedWin	True
513.122	0.25	Win2	0.6727	0.0	No	2.728	0.022	n/a	LatePress	0	n/a	n/a	4	54	Cue	MissedWin	True
513.372	3.95	Win2	0.6727	0.0	No	2.728	0.0	n/a	LatePress	0	n/a	n/a	4	54	Fixation	MissedWin	True
517.321	0.18	Win2	0.6727	0.001	No	2.728	-0.001	2.0	LatePress	0	0.18	516.501	4	54	Target	MissedWin	True
517.501	0.3	Win2	0.6727	0.001	No	2.728	-0.001	2.0	LatePress	0	0.18	n/a	4	54	ButtonPress	MissedWin	True
517.504	0.52	Win2	0.6727	n/a	No	2.728	n/a	n/a	LatePress	0	n/a	n/a	4	54	Blank	MissedWin	True
518.02	1.45	Win2	0.6727	n/a	No	2.728	n/a	5.0	LatePress	0	0.004	517.024	4	54	Feedback	MissedWin	True
519.47	2.728	Win2	0.6727	n/a	No	2.728	n/a	n/a	LatePress	0	0.0	n/a	4	54	ISIslide	MissedWin	True
522.219	0.25	Control	0.6607	0.0	No	3.031	0.019	n/a	NoResponse	0	n/a	n/a	4	55	Cue	Neutral	True
522.469	3.95	Control	0.6607	0.0	No	3.031	0.0	n/a	NoResponse	0	n/a	n/a	4	55	Fixation	Neutral	True
526.418	0.17	Control	0.6607	0.001	No	3.031	-0.001	2.0	NoResponse	0	0.189	525.607	4	55	Target	Neutral	True
526.601	0.53	Control	0.6607	n/a	No	3.031	n/a	n/a	NoResponse	0	n/a	n/a	4	55	Blank	Neutral	True
526.607	0.3	Control	0.6607	0.001	No	3.031	-0.001	2.0	NoResponse	0	0.189	n/a	4	55	ButtonPress	Neutral	True
527.117	1.45	Control	0.6607	n/a	No	3.031	n/a	5.0	NoResponse	0	0.029	526.146	4	55	Feedback	Neutral	True
528.567	3.031	Control	0.6607	n/a	No	3.031	n/a	n/a	NoResponse	0	0.0	n/a	4	55	ISIslide	Neutral	True
531.616	0.25	Control	0.6491	0.0	No	2.834	0.016	n/a	NoResponse	0	n/a	n/a	4	56	Cue	Neutral	True
531.866	3.95	Control	0.6491	0.0	No	2.834	0.0	n/a	NoResponse	0	n/a	n/a	4	56	Fixation	Neutral	True
535.814	0.17	Control	0.6491	0.002	No	2.834	-0.002	2.0	NoResponse	0	0.191	535.005	4	56	Target	Neutral	True
535.998	0.53	Control	0.6491	n/a	No	2.834	n/a	n/a	NoResponse	0	n/a	n/a	4	56	Blank	Neutral	True
536.005	0.3	Control	0.6491	0.002	No	2.834	-0.002	2.0	NoResponse	0	0.191	n/a	4	56	ButtonPress	Neutral	True
536.514	1.45	Control	0.6491	n/a	No	2.834	n/a	5.0	NoResponse	0	0.047	535.561	4	56	Feedback	Neutral	True
537.964	2.834	Control	0.6491	n/a	No	2.834	n/a	n/a	NoResponse	0	0.0	n/a	4	56	ISIslide	Neutral	True
540.813	0.25	Control	0.6379	0.0	No	3.487	0.013	n/a	NoResponse	0	n/a	n/a	4	57	Cue	Neutral	True
541.062	4.0	Control	0.6379	0.001	No	3.487	-0.001	2.0	NoResponse	0	3.948	544.01	4	57	Fixation	Neutral	True
545.01	0.3	Control	0.6379	0.001	No	3.487	-0.001	2.0	NoResponse	0	3.948	n/a	4	57	ButtonPress	Neutral	True
545.061	0.18	Control	0.6379	0.002	No	3.487	-0.002	n/a	NoResponse	0	n/a	n/a	4	57	Target	Neutral	True
545.244	0.52	Control	0.6379	n/a	No	3.487	n/a	n/a	NoResponse	0	n/a	n/a	4	57	Blank	Neutral	True
545.761	1.45	Control	0.6379	n/a	No	3.487	n/a	5.0	NoResponse	0	0.02	544.781	4	57	Feedback	Neutral	True
547.21	3.487	Control	0.6379	n/a	No	3.487	n/a	n/a	NoResponse	0	0.0	n/a	4	57	ISIslide	Neutral	True
550.726	0.25	Win2	0.6271	0.0	No	2.724	0.026	n/a	LatePress	0	n/a	n/a	4	58	Cue	MissedWin	True
550.976	4.05	Win2	0.6271	0.0	No	2.724	0.0	n/a	LatePress	0	n/a	n/a	4	58	Fixation	MissedWin	True
555.024	0.19	Win2	0.6271	0.002	No	2.724	-0.002	2.0	LatePress	0	0.19	554.214	4	58	Target	MissedWin	True
555.214	0.3	Win2	0.6271	0.002	No	2.724	-0.002	2.0	LatePress	0	0.19	n/a	4	58	ButtonPress	MissedWin	True
555.224	0.51	Win2	0.6271	n/a	No	2.724	n/a	n/a	LatePress	0	n/a	n/a	4	58	Blank	MissedWin	True
555.724	1.45	Win2	0.6271	n/a	No	2.724	n/a	5.0	LatePress	0	0.008	554.732	4	58	Feedback	MissedWin	True
557.174	2.724	Win2	0.6271	n/a	No	2.724	n/a	n/a	LatePress	0	0.0	n/a	4	58	ISIslide	MissedWin	True
559.923	0.25	Lose2	0.6333	0.0	Yes	2.677	0.023	n/a	GoodResponse	0	n/a	n/a	4	59	Cue	AvoidedLoss	True
560.173	4.0	Lose2	0.6333	0.0	Yes	2.677	0.0	n/a	GoodResponse	0	n/a	n/a	4	59	Fixation	AvoidedLoss	True
564.171	0.2	Lose2	0.6333	0.002	Yes	2.677	-0.002	2.0	GoodResponse	0	0.186	563.357	4	59	Target	AvoidedLoss	True
564.357	0.3	Lose2	0.6333	0.002	Yes	2.677	-0.002	2.0	GoodResponse	0	0.186	n/a	4	59	ButtonPress	AvoidedLoss	True
564.371	0.5	Lose2	0.6333	n/a	Yes	2.677	n/a	n/a	GoodResponse	0	n/a	n/a	4	59	Blank	AvoidedLoss	True
564.871	1.45	Lose2	0.6333	n/a	Yes	2.677	n/a	5.0	GoodResponse	0	0.032	563.903	4	59	Feedback	AvoidedLoss	True
566.32	2.677	Lose2	0.6333	n/a	Yes	2.677	n/a	n/a	GoodResponse	0	0.0	n/a	4	59	ISIslide	AvoidedLoss	True
569.019	0.25	Control	0.623	0.001	No	2.681	0.019	n/a	NoResponse	0	n/a	n/a	4	60	Cue	Neutral	True
569.269	4.0	Control	0.623	0.0	No	2.681	0.0	n/a	NoResponse	0	n/a	n/a	4	60	Fixation	Neutral	True
573.268	0.21	Control	0.623	0.001	No	2.681	-0.001	2.0	NoResponse	0	0.232	572.5	4	60	Target	Neutral	True
573.485	0.49	Control	0.623	n/a	No	2.681	n/a	n/a	NoResponse	0	n/a	n/a	4	60	Blank	Neutral	True
573.5	0.3	Control	0.623	0.001	No	2.681	-0.001	2.0	NoResponse	0	0.232	n/a	4	60	ButtonPress	Neutral	True
573.968	1.45	Control	0.623	n/a	No	2.681	n/a	5.0	NoResponse	0	0.008	572.976	4	60	Feedback	Neutral	True
575.417	2.681	Control	0.623	n/a	No	2.681	n/a	n/a	NoResponse	0	0.0	n/a	4	60	ISIslide	Neutral	True
578.116	0.25	Lose2	0.629	0.0	Yes	2.984	0.016	n/a	GoodResponse	0	n/a	n/a	4	61	Cue	AvoidedLoss	True
578.366	4.0	Lose2	0.629	0.0	Yes	2.984	0.0	n/a	GoodResponse	0	n/a	n/a	4	61	Fixation	AvoidedLoss	True
582.365	0.22	Lose2	0.629	0.001	Yes	2.984	-0.001	2.0	GoodResponse	0	0.18	581.545	4	61	Target	AvoidedLoss	True
582.545	0.3	Lose2	0.629	0.001	Yes	2.984	-0.001	2.0	GoodResponse	0	0.18	n/a	4	61	ButtonPress	AvoidedLoss	True
582.581	0.48	Lose2	0.629	n/a	Yes	2.984	n/a	n/a	GoodResponse	0	n/a	n/a	4	61	Blank	AvoidedLoss	True
583.065	1.45	Lose2	0.629	n/a	Yes	2.984	n/a	5.0	GoodResponse	0	0.032	582.097	4	61	Feedback	AvoidedLoss	True
584.514	2.984	Lose2	0.629	n/a	Yes	2.984	n/a	n/a	GoodResponse	0	0.0	n/a	4	61	ISIslide	AvoidedLoss	True
587.53	0.25	Lose2	0.619	0.0	No	2.87	0.03	n/a	NoResponse	-1	n/a	n/a	3	62	Cue	Loss	True
587.78	3.9	Lose2	0.619	0.0	No	2.87	0.0	n/a	NoResponse	-1	n/a	n/a	3	62	Fixation	Loss	True
591.678	0.23	Lose2	0.619	0.002	No	2.87	-0.002	2.0	NoResponse	-1	0.279	590.957	3	62	Target	Loss	True
591.912	0.47	Lose2	0.619	n/a	No	2.87	n/a	n/a	NoResponse	-1	n/a	n/a	3	62	Blank	Loss	True
591.957	0.3	Lose2	0.619	0.002	No	2.87	-0.002	2.0	NoResponse	-1	0.279	n/a	3	62	ButtonPress	Loss	True
592.378	1.45	Lose2	0.619	n/a	No	2.87	n/a	5.0	NoResponse	-1	0.037	591.415	3	62	Feedback	Loss	True
593.828	2.87	Lose2	0.619	n/a	No	2.87	n/a	n/a	NoResponse	-1	0.0	n/a	3	62	ISIslide	Loss	True
596.727	0.25	Lose2	0.625	0.0	Yes	2.623	0.027	n/a	GoodResponse	0	n/a	n/a	3	63	Cue	AvoidedLoss	True
596.976	4.05	Lose2	0.625	0.001	Yes	2.623	-0.001	n/a	GoodResponse	0	n/a	n/a	3	63	Fixation	AvoidedLoss	True
601.025	0.24	Lose2	0.625	0.002	Yes	2.623	-0.002	2.0	GoodResponse	0	0.201	600.226	3	63	Target	AvoidedLoss	True
601.226	0.3	Lose2	0.625	0.002	Yes	2.623	-0.002	2.0	GoodResponse	0	0.201	n/a	3	63	ButtonPress	AvoidedLoss	True
601.275	0.46	Lose2	0.625	n/a	Yes	2.623	n/a	n/a	GoodResponse	0	n/a	n/a	3	63	Blank	AvoidedLoss	True
601.725	1.45	Lose2	0.625	n/a	Yes	2.623	n/a	5.0	GoodResponse	0	0.007	600.732	3	63	Feedback	AvoidedLoss	True
603.174	2.623	Lose2	0.625	n/a	Yes	2.623	n/a	n/a	GoodResponse	0	0.0	n/a	3	63	ISIslide	AvoidedLoss	True
605.823	0.25	Win2	0.6308	0.0	Yes	3.127	0.023	n/a	GoodResponse	1	n/a	n/a	4	64	Cue	Win	True
606.073	4.15	Win2	0.6308	0.0	Yes	3.127	0.0	n/a	GoodResponse	1	n/a	n/a	4	64	Fixation	Win	True
610.222	0.25	Win2	0.6308	0.001	Yes	3.127	-0.001	2.0	GoodResponse	1	0.199	609.421	4	64	Target	Win	True
610.421	0.3	Win2	0.6308	0.001	Yes	3.127	-0.001	2.0	GoodResponse	1	0.199	n/a	4	64	ButtonPress	Win	True
610.472	0.45	Win2	0.6308	n/a	Yes	3.127	n/a	n/a	GoodResponse	1	n/a	n/a	4	64	Blank	Win	True
610.922	1.45	Win2	0.6308	n/a	Yes	3.127	n/a	5.0	GoodResponse	1	0.029	609.951	4	64	Feedback	Win	True
612.371	3.127	Win2	0.6308	n/a	Yes	3.127	n/a	n/a	GoodResponse	1	0.0	n/a	4	64	ISIslide	Win	True
615.52	0.25	Control	0.6364	0.0	Yes	2.78	0.02	n/a	GoodResponse	0	n/a	n/a	4	65	Cue	Neutral	True
615.77	4.0	Control	0.6364	0.0	Yes	2.78	0.0	n/a	GoodResponse	0	n/a	n/a	4	65	Fixation	Neutral	True
619.769	0.26	Control	0.6364	0.001	Yes	2.78	-0.001	2.0	GoodResponse	0	0.204	618.973	4	65	Target	Neutral	True
619.973	0.3	Control	0.6364	0.001	Yes	2.78	-0.001	2.0	GoodResponse	0	0.204	n/a	4	65	ButtonPress	Neutral	True
620.035	0.44	Control	0.6364	n/a	Yes	2.78	n/a	n/a	GoodResponse	0	n/a	n/a	4	65	Blank	Neutral	True
620.468	1.45	Control	0.6364	n/a	Yes	2.78	n/a	5.0	GoodResponse	0	0.044	619.512	4	65	Feedback	Neutral	True
621.918	2.78	Control	0.6364	n/a	Yes	2.78	n/a	n/a	GoodResponse	0	0.0	n/a	4	65	ISIslide	Neutral	True
624.717	0.25	Win2	0.6418	0.0	Yes	2.783	0.017	n/a	GoodResponse	1	n/a	n/a	5	66	Cue	Win	False
624.967	3.9	Win2	0.6418	0.0	Yes	2.783	0.0	2.0	GoodResponse	1	0.055	624.022	5	66	Fixation	Win	False
625.022	0.3	Win2	0.6418	0.0	Yes	2.783	0.0	2.0	GoodResponse	1	0.055	n/a	5	66	ButtonPress	Win	False
628.865	0.27	Win2	0.6418	0.002	Yes	2.783	-0.002	2.0	GoodResponse	1	0.173	628.038	5	66	Target	Win	False
629.038	0.3	Win2	0.6418	0.002	Yes	2.783	-0.002	2.0	GoodResponse	1	0.173	n/a	5	66	ButtonPress	Win	False
629.149	0.43	Win2	0.6418	n/a	Yes	2.783	n/a	n/a	GoodResponse	1	n/a	n/a	5	66	Blank	Win	False
629.565	1.45	Win2	0.6418	n/a	Yes	2.783	n/a	5.0	GoodResponse	1	0.021	628.586	5	66	Feedback	Win	False
631.015	2.783	Win2	0.6418	n/a	Yes	2.783	n/a	n/a	GoodResponse	1	0.0	n/a	5	66	ISIslide	Win	False
633.814	0.25	Control	0.6470999999999999	0.0	Yes	2.736	0.014	n/a	GoodResponse	0	n/a	n/a	5	67	Cue	Neutral	True
634.064	3.95	Control	0.6470999999999999	0.0	Yes	2.736	0.0	n/a	GoodResponse	0	n/a	n/a	5	67	Fixation	Neutral	True
638.012	0.28	Control	0.6470999999999999	0.002	Yes	2.736	-0.002	2.0	GoodResponse	0	0.276	637.288	5	67	Target	Neutral	True
638.288	0.3	Control	0.6470999999999999	0.002	Yes	2.736	-0.002	2.0	GoodResponse	0	0.276	n/a	5	67	ButtonPress	Neutral	True
638.295	0.42	Control	0.6470999999999999	n/a	Yes	2.736	n/a	n/a	GoodResponse	0	n/a	n/a	5	67	Blank	Neutral	True
638.712	1.45	Control	0.6470999999999999	n/a	Yes	2.736	n/a	5.0	GoodResponse	0	0.044	637.756	5	67	Feedback	Neutral	True
640.162	2.736	Control	0.6470999999999999	n/a	Yes	2.736	n/a	n/a	GoodResponse	0	0.0	n/a	5	67	ISIslide	Neutral	True
642.927	0.25	Win2	0.6522	0.0	Yes	3.073	0.027	n/a	GoodResponse	1	n/a	n/a	6	68	Cue	Win	True
643.177	4.0	Win2	0.6522	0.0	Yes	3.073	0.0	n/a	GoodResponse	1	n/a	n/a	6	68	Fixation	Win	True
647.176	0.29	Win2	0.6522	0.001	Yes	3.073	-0.001	2.0	GoodResponse	1	0.233	646.409	6	68	Target	Win	True
647.409	0.3	Win2	0.6522	0.001	Yes	3.073	-0.001	2.0	GoodResponse	1	0.233	n/a	6	68	ButtonPress	Win	True
647.476	0.41	Win2	0.6522	n/a	Yes	3.073	n/a	n/a	GoodResponse	1	n/a	n/a	6	68	Blank	Win	True
647.876	1.45	Win2	0.6522	n/a	Yes	3.073	n/a	5.0	GoodResponse	1	0.006	646.882	6	68	Feedback	Win	True
649.325	3.073	Win2	0.6522	n/a	Yes	3.073	n/a	n/a	GoodResponse	1	0.0	n/a	6	68	ISIslide	Win	True
652.424	0.25	Win2	0.6570999999999999	0.0	Yes	3.226	0.024	n/a	GoodResponse	1	n/a	n/a	7	69	Cue	Win	True
652.674	3.95	Win2	0.6570999999999999	0.0	Yes	3.226	0.0	n/a	GoodResponse	1	n/a	n/a	7	69	Fixation	Win	True
656.622	0.3	Win2	0.6570999999999999	0.002	Yes	3.226	-0.002	2.0	GoodResponse	1	0.212	655.834	7	69	Target	Win	True
656.834	0.3	Win2	0.6570999999999999	0.002	Yes	3.226	-0.002	2.0	GoodResponse	1	0.212	n/a	7	69	ButtonPress	Win	True
656.922	0.4	Win2	0.6570999999999999	n/a	Yes	3.226	n/a	n/a	GoodResponse	1	n/a	n/a	7	69	Blank	Win	True
657.322	1.45	Win2	0.6570999999999999	n/a	Yes	3.226	n/a	5.0	GoodResponse	1	0.019	656.341	7	69	Feedback	Win	True
658.772	3.226	Win2	0.6570999999999999	n/a	Yes	3.226	n/a	n/a	GoodResponse	1	0.0	n/a	7	69	ISIslide	Win	True
662.021	0.25	Lose2	0.662	0.0	Yes	3.029	0.021	n/a	GoodResponse	0	n/a	n/a	7	70	Cue	AvoidedLoss	True
662.271	4.05	Lose2	0.662	0.0	Yes	3.029	0.0	n/a	GoodResponse	0	n/a	n/a	7	70	Fixation	AvoidedLoss	True
666.319	0.3	Lose2	0.662	0.002	Yes	3.029	-0.002	2.0	GoodResponse	0	0.185	665.504	7	70	Target	AvoidedLoss	True
666.504	0.3	Lose2	0.662	0.002	Yes	3.029	-0.002	2.0	GoodResponse	0	0.185	n/a	7	70	ButtonPress	AvoidedLoss	True
666.619	0.4	Lose2	0.662	n/a	Yes	3.029	n/a	n/a	GoodResponse	0	n/a	n/a	7	70	Blank	AvoidedLoss	True
667.019	1.45	Lose2	0.662	n/a	Yes	3.029	n/a	5.0	GoodResponse	0	0.03	666.049	7	70	Feedback	AvoidedLoss	True
668.468	3.029	Lose2	0.662	n/a	Yes	3.029	n/a	n/a	GoodResponse	0	0.0	n/a	7	70	ISIslide	AvoidedLoss	True
671.517	0.25	Win2	0.6667000000000001	0.0	Yes	2.733	0.017	n/a	GoodResponse	1	n/a	n/a	8	71	Cue	Win	True
671.767	4.05	Win2	0.6667000000000001	0.0	Yes	2.733	0.0	n/a	GoodResponse	1	n/a	n/a	8	71	Fixation	Win	True
675.816	0.3	Win2	0.6667000000000001	0.001	Yes	2.733	-0.001	2.0	GoodResponse	1	0.19	675.006	8	71	Target	Win	True
676.006	0.3	Win2	0.6667000000000001	0.001	Yes	2.733	-0.001	2.0	GoodResponse	1	0.19	n/a	8	71	ButtonPress	Win	True
676.116	0.4	Win2	0.6667000000000001	n/a	Yes	2.733	n/a	n/a	GoodResponse	1	n/a	n/a	8	71	Blank	Win	True
676.516	1.45	Win2	0.6667000000000001	n/a	Yes	2.733	n/a	5.0	GoodResponse	1	0.045	675.561	8	71	Feedback	Win	True
677.965	2.733	Win2	0.6667000000000001	n/a	Yes	2.733	n/a	n/a	GoodResponse	1	0.0	n/a	8	71	ISIslide	Win	True
680.714	0.25	Win2	0.6712	0.0	Yes	2.786	0.014	n/a	GoodResponse	1	n/a	n/a	9	72	Cue	Win	True
680.964	4.1	Win2	0.6712	0.0	Yes	2.786	0.0	n/a	GoodResponse	1	n/a	n/a	9	72	Fixation	Win	True
685.063	0.29	Win2	0.6712	0.001	Yes	2.786	-0.001	2.0	GoodResponse	1	0.18	684.243	9	72	Target	Win	True
685.243	0.3	Win2	0.6712	0.001	Yes	2.786	-0.001	2.0	GoodResponse	1	0.18	n/a	9	72	ButtonPress	Win	True
685.363	0.41	Win2	0.6712	n/a	Yes	2.786	n/a	n/a	GoodResponse	1	n/a	n/a	9	72	Blank	Win	True
685.762	1.45	Win2	0.6712	n/a	Yes	2.786	n/a	5.0	GoodResponse	1	0.019	684.781	9	72	Feedback	Win	True
687.212	2.786	Win2	0.6712	n/a	Yes	2.786	n/a	n/a	GoodResponse	1	0.0	n/a	9	72	ISIslide	Win	True
690.028	0.25	Win2	0.6757	0.0	Yes	2.672	0.028	n/a	GoodResponse	1	n/a	n/a	10	73	Cue	Win	True
690.278	4.0	Win2	0.6757	0.0	Yes	2.672	0.0	n/a	GoodResponse	1	n/a	n/a	10	73	Fixation	Win	True
694.276	0.28	Win2	0.6757	0.002	Yes	2.672	-0.002	2.0	GoodResponse	1	0.199	693.475	10	73	Target	Win	True
694.475	0.3	Win2	0.6757	0.002	Yes	2.672	-0.002	2.0	GoodResponse	1	0.199	n/a	10	73	ButtonPress	Win	True
694.559	0.42	Win2	0.6757	n/a	Yes	2.672	n/a	n/a	GoodResponse	1	n/a	n/a	10	73	Blank	Win	True
694.976	1.45	Win2	0.6757	n/a	Yes	2.672	n/a	5.0	GoodResponse	1	0.023	693.999	10	73	Feedback	Win	True
696.425	2.672	Win2	0.6757	n/a	Yes	2.672	n/a	n/a	GoodResponse	1	0.0	n/a	10	73	ISIslide	Win	True
699.124	0.25	Lose2	0.6667000000000001	0.001	No	2.626	0.024	n/a	PrematurePress	-1	n/a	n/a	9	74	Cue	Loss	True
699.374	4.05	Lose2	0.6667000000000001	0.0	No	2.626	0.0	n/a	PrematurePress	-1	n/a	n/a	9	74	Fixation	Loss	True
703.423	0.27	Lose2	0.6667000000000001	0.001	No	2.626	-0.001	2.0	PrematurePress	-1	0.036	702.459	9	74	Target	Loss	True
703.459	0.3	Lose2	0.6667000000000001	0.001	No	2.626	-0.001	2.0	PrematurePress	-1	0.036	n/a	9	74	ButtonPress	Loss	True
703.69	0.43	Lose2	0.6667000000000001	n/a	No	2.626	n/a	n/a	PrematurePress	-1	n/a	n/a	9	74	Blank	Loss	True
704.123	1.45	Lose2	0.6667000000000001	n/a	No	2.626	n/a	5.0	PrematurePress	-1	0.047	703.17	9	74	Feedback	Loss	True
705.572	2.626	Lose2	0.6667000000000001	n/a	No	2.626	n/a	n/a	PrematurePress	-1	0.0	n/a	9	74	ISIslide	Loss	True
708.221	0.25	Lose2	0.6711	0.0	Yes	2.929	0.021	n/a	GoodResponse	0	n/a	n/a	9	75	Cue	AvoidedLoss	True
708.471	3.95	Lose2	0.6711	0.0	Yes	2.929	0.0	n/a	GoodResponse	0	n/a	n/a	9	75	Fixation	AvoidedLoss	True
712.42	0.26	Lose2	0.6711	0.001	Yes	2.929	-0.001	2.0	GoodResponse	0	0.173	711.593	9	75	Target	AvoidedLoss	True
712.593	0.3	Lose2	0.6711	0.001	Yes	2.929	-0.001	2.0	GoodResponse	0	0.173	n/a	9	75	ButtonPress	AvoidedLoss	True
712.686	0.44	Lose2	0.6711	n/a	Yes	2.929	n/a	n/a	GoodResponse	0	n/a	n/a	9	75	Blank	AvoidedLoss	True
713.12	1.45	Lose2	0.6711	n/a	Yes	2.929	n/a	5.0	GoodResponse	0	0.026	712.146	9	75	Feedback	AvoidedLoss	True
714.569	2.929	Lose2	0.6711	n/a	Yes	2.929	n/a	n/a	GoodResponse	0	0.0	n/a	9	75	ISIslide	AvoidedLoss	True
717.518	0.25	Control	0.6753	0.0	Yes	3.232	0.018	n/a	GoodResponse	0	n/a	n/a	9	76	Cue	Neutral	True
717.768	4.05	Control	0.6753	0.0	Yes	3.232	0.0	n/a	GoodResponse	0	n/a	n/a	9	76	Fixation	Neutral	True
721.817	0.25	Control	0.6753	0.001	Yes	3.232	-0.001	2.0	GoodResponse	0	0.204	721.021	9	76	Target	Neutral	True
722.021	0.3	Control	0.6753	0.001	Yes	3.232	-0.001	2.0	GoodResponse	0	0.204	n/a	9	76	ButtonPress	Neutral	True
722.067	0.45	Control	0.6753	n/a	Yes	3.232	n/a	n/a	GoodResponse	0	n/a	n/a	9	76	Blank	Neutral	True
722.516	1.45	Control	0.6753	n/a	Yes	3.232	n/a	5.0	GoodResponse	0	0.045	721.561	9	76	Feedback	Neutral	True
723.966	3.232	Control	0.6753	n/a	Yes	3.232	n/a	n/a	GoodResponse	0	0.0	n/a	9	76	ISIslide	Neutral	True
727.215	0.25	Lose2	0.6795	0.0	Yes	2.585	0.015	n/a	GoodResponse	0	n/a	n/a	9	77	Cue	AvoidedLoss	True
727.465	3.95	Lose2	0.6795	0.0	Yes	2.585	0.0	n/a	GoodResponse	0	n/a	n/a	9	77	Fixation	AvoidedLoss	True
731.413	0.24	Lose2	0.6795	0.002	Yes	2.585	-0.002	2.0	GoodResponse	0	0.19	730.603	9	77	Target	AvoidedLoss	True
731.603	0.3	Lose2	0.6795	0.002	Yes	2.585	-0.002	2.0	GoodResponse	0	0.19	n/a	9	77	ButtonPress	AvoidedLoss	True
731.663	0.46	Lose2	0.6795	n/a	Yes	2.585	n/a	n/a	GoodResponse	0	n/a	n/a	9	77	Blank	AvoidedLoss	True
732.113	1.45	Lose2	0.6795	n/a	Yes	2.585	n/a	5.0	GoodResponse	0	0.009	731.122	9	77	Feedback	AvoidedLoss	True
733.563	2.585	Lose2	0.6795	n/a	Yes	2.585	n/a	n/a	GoodResponse	0	0.0	n/a	9	77	ISIslide	AvoidedLoss	True
