onset	duration	cue_type	current_mean_accuracy	duration_error	is_hit	isi_adjusted	onset_delay	response	response_type	reward	rt	rt_time	total_reward	trial_number	trial_phase	trial_type	one_press
11.106	0.25	Control	1.0	0.0	Yes	2.944	0.006	n/a	GoodResponse	0	n/a	n/a	0	0	Cue	Neutral	False
11.356	3.85	Control	1.0	0.0	Yes	2.944	0.0	1.0	GoodResponse	0	0.424	10.78	0	0	Fixation	Neutral	False
11.78	0.3	Control	1.0	0.0	Yes	2.944	0.0	1.0	GoodResponse	0	0.424	n/a	0	0	ButtonPress	Neutral	False
15.205	0.4	Control	1.0	0.001	Yes	2.944	-0.001	1.0	GoodResponse	0	0.312	14.517	0	0	Target	Neutral	False
15.517	0.3	Control	1.0	0.001	Yes	2.944	-0.001	1.0	GoodResponse	0	0.312	n/a	0	0	ButtonPress	Neutral	False
15.604	0.3	Control	1.0	n/a	Yes	2.944	n/a	n/a	GoodResponse	0	n/a	n/a	0	0	Blank	Neutral	False
15.904	1.45	Control	1.0	n/a	Yes	2.944	n/a	5.0	GoodResponse	0	0.022	14.926	0	0	Feedback	Neutral	False
17.354	2.944	Control	1.0	n/a	Yes	2.944	n/a	n/a	GoodResponse	0	0.0	n/a	0	0	ISIslide	Neutral	False
20.319	0.25	Lose2	1.0	0.001	Yes	2.781	0.019	n/a	GoodResponse	0	n/a	n/a	0	1	Cue	AvoidedLoss	True
20.569	4.0	Lose2	1.0	0.0	Yes	2.781	0.0	n/a	GoodResponse	0	n/a	n/a	0	1	Fixation	AvoidedLoss	True
24.568	0.39	Lose2	1.0	0.001	Yes	2.781	-0.001	1.0	GoodResponse	0	0.255	23.823	0	1	Target	AvoidedLoss	True
24.823	0.3	Lose2	1.0	0.001	Yes	2.781	-0.001	1.0	GoodResponse	0	0.255	n/a	0	1	ButtonPress	AvoidedLoss	True
24.968	0.31	Lose2	1.0	n/a	Yes	2.781	n/a	n/a	GoodResponse	0	n/a	n/a	0	1	Blank	AvoidedLoss	True
25.268	1.45	Lose2	1.0	n/a	Yes	2.781	n/a	5.0	GoodResponse	0	0.024	24.292	0	1	Feedback	AvoidedLoss	True
26.717	2.781	Lose2	1.0	n/a	Yes	2.781	n/a	n/a	GoodResponse	0	0.0	n/a	0	1	ISIslide	AvoidedLoss	True
29.516	0.25	Control	1.0	0.0	Yes	2.584	0.016	n/a	GoodResponse	0	n/a	n/a	0	2	Cue	Neutral	True
29.766	4.1	Control	1.0	0.0	Yes	2.584	0.0	n/a	GoodResponse	0	n/a	n/a	0	2	Fixation	Neutral	True
33.865	0.38	Control	1.0	0.001	Yes	2.584	-0.001	1.0	GoodResponse	0	0.196	33.061	0	2	Target	Neutral	True
34.061	0.3	Control	1.0	0.001	Yes	2.584	-0.001	1.0	GoodResponse	0	0.196	n/a	0	2	ButtonPress	Neutral	True
34.248	0.32	Control	1.0	n/a	Yes	2.584	n/a	n/a	GoodResponse	0	n/a	n/a	0	2	Blank	Neutral	True
34.564	1.45	Control	1.0	n/a	Yes	2.584	n/a	5.0	GoodResponse	0	0.044	33.608	0	2	Feedback	Neutral	True
36.014	2.584	Control	1.0	n/a	Yes	2.584	n/a	n/a	GoodResponse	0	0.0	n/a	0	2	ISIslide	Neutral	True
38.63	0.25	Win2	1.0	0.0	Yes	2.82	0.03	n/a	GoodResponse	1	n/a	n/a	1	3	Cue	Win	True
38.88	3.95	Win2	1.0	0.0	Yes	2.82	0.0	n/a	GoodResponse	1	n/a	n/a	1	3	Fixation	Win	True
42.828	0.37	Win2	1.0	0.002	Yes	2.82	-0.002	1.0	GoodResponse	1	0.155	41.983	1	3	Target	Win	True
42.983	0.3	Win2	1.0	0.002	Yes	2.82	-0.002	1.0	GoodResponse	1	0.155	n/a	1	3	ButtonPress	Win	True
43.211	0.33	Win2	1.0	n/a	Yes	2.82	n/a	n/a	GoodResponse	1	n/a	n/a	1	3	Blank	Win	True
43.528	1.45	Win2	1.0	n/a	Yes	2.82	n/a	5.0	GoodResponse	1	0.007	42.535	1	3	Feedback	Win	True
44.977	2.82	Win2	1.0	n/a	Yes	2.82	n/a	n/a	GoodResponse	1	0.0	n/a	1	3	ISIslide	Win	True
47.826	0.25	Win2	1.0	0.001	Yes	3.274	0.026	n/a	GoodResponse	1	n/a	n/a	2	4	Cue	Win	True
48.076	4.0	Win2	1.0	0.0	Yes	3.274	0.0	n/a	GoodResponse	1	n/a	n/a	2	4	Fixation	Win	True
52.075	0.36	Win2	1.0	0.001	Yes	3.274	-0.001	1.0	GoodResponse	1	0.231	51.306	2	4	Target	Win	True
52.306	0.3	Win2	1.0	0.001	Yes	3.274	-0.001	1.0	GoodResponse	1	0.231	n/a	2	4	ButtonPress	Win	True
52.441	0.34	Win2	1.0	n/a	Yes	3.274	n/a	n/a	GoodResponse	1	n/a	n/a	2	4	Blank	Win	True
52.775	1.45	Win2	1.0	n/a	Yes	3.274	n/a	5.0	GoodResponse	1	0.029	51.804	2	4	Feedback	Win	True
54.224	3.274	Win2	1.0	n/a	Yes	3.274	n/a	n/a	GoodResponse	1	0.0	n/a	2	4	ISIslide	Win	True
57.523	0.25	Win2	1.0	0.0	Yes	2.777	0.023	n/a	GoodResponse	1	n/a	n/a	3	5	Cue	Win	True
57.773	4.0	Win2	1.0	0.0	Yes	2.777	0.0	n/a	GoodResponse	1	n/a	n/a	3	5	Fixation	Win	True
61.772	0.35	Win2	1.0	0.001	Yes	2.777	-0.001	1.0	GoodResponse	1	0.187	60.959	3	5	Target	Win	True
61.959	0.3	Win2	1.0	0.001	Yes	2.777	-0.001	1.0	GoodResponse	1	0.187	n/a	3	5	ButtonPress	Win	True
62.121	0.35	Win2	1.0	n/a	Yes	2.777	n/a	n/a	GoodResponse	1	n/a	n/a	3	5	Blank	Win	True
62.471	1.45	Win2	1.0	n/a	Yes	2.777	n/a	5.0	GoodResponse	1	0.04	61.511	3	5	Feedback	Win	True
63.921	2.777	Win2	1.0	n/a	Yes	2.777	n/a	n/a	GoodResponse	1	0.0	n/a	3	5	ISIslide	Win	True
66.72	0.25	Lose2	1.0	0.0	Yes	2.73	0.02	n/a	GoodResponse	0	n/a	n/a	3	6	Cue	AvoidedLoss	True
66.97	3.95	Lose2	1.0	0.0	Yes	2.73	0.0	n/a	GoodResponse	0	n/a	n/a	3	6	Fixation	AvoidedLoss	True
70.918	0.34	Lose2	1.0	0.002	Yes	2.73	-0.002	1.0	GoodResponse	0	0.191	70.109	3	6	Target	AvoidedLoss	True
71.109	0.3	Lose2	1.0	0.002	Yes	2.73	-0.002	1.0	GoodResponse	0	0.191	n/a	3	6	ButtonPress	AvoidedLoss	True
71.268	0.36	Lose2	1.0	n/a	Yes	2.73	n/a	n/a	GoodResponse	0	n/a	n/a	3	6	Blank	AvoidedLoss	True
71.618	1.45	Lose2	1.0	n/a	Yes	2.73	n/a	5.0	GoodResponse	0	0.015	70.633	3	6	Feedback	AvoidedLoss	True
73.068	2.73	Lose2	1.0	n/a	Yes	2.73	n/a	n/a	GoodResponse	0	0.0	n/a	3	6	ISIslide	AvoidedLoss	True
75.817	0.25	Lose2	1.0	0.0	Yes	4.033	0.017	n/a	GoodResponse	0	n/a	n/a	3	7	Cue	AvoidedLoss	True
76.067	4.05	Lose2	1.0	0.0	Yes	4.033	0.0	n/a	GoodResponse	0	n/a	n/a	3	7	Fixation	AvoidedLoss	True
80.115	0.33	Lose2	1.0	0.002	Yes	4.033	-0.002	1.0	GoodResponse	0	0.222	79.337	3	7	Target	AvoidedLoss	True
80.337	0.3	Lose2	1.0	0.002	Yes	4.033	-0.002	1.0	GoodResponse	0	0.222	n/a	3	7	ButtonPress	AvoidedLoss	True
80.448	0.37	Lose2	1.0	n/a	Yes	4.033	n/a	n/a	GoodResponse	0	n/a	n/a	3	7	Blank	AvoidedLoss	True
80.815	1.45	Lose2	1.0	n/a	Yes	4.033	n/a	5.0	GoodResponse	0	0.037	79.852	3	7	Feedback	AvoidedLoss	True
82.264	4.033	Lose2	1.0	n/a	Yes	4.033	n/a	n/a	GoodResponse	0	0.0	n/a	3	7	ISIslide	AvoidedLoss	True
86.313	0.25	Lose2	1.0	0.0	Yes	3.037	0.013	n/a	GoodResponse	0	n/a	n/a	3	8	Cue	AvoidedLoss	True
86.563	3.95	Lose2	1.0	0.0	Yes	3.037	0.0	n/a	GoodResponse	0	n/a	n/a	3	8	Fixation	AvoidedLoss	True
90.511	0.32	Lose2	1.0	0.002	Yes	3.037	-0.002	1.0	GoodResponse	0	0.211	89.722	3	8	Target	AvoidedLoss	True
90.722	0.3	Lose2	1.0	0.002	Yes	3.037	-0.002	1.0	GoodResponse	0	0.211	n/a	3	8	ButtonPress	AvoidedLoss	True
90.845	0.38	Lose2	1.0	n/a	Yes	3.037	n/a	n/a	GoodResponse	0	n/a	n/a	3	8	Blank	AvoidedLoss	True
91.211	1.45	Lose2	1.0	n/a	Yes	3.037	n/a	5.0	GoodResponse	0	0.031	90.242	3	8	Feedback	AvoidedLoss	True
92.661	3.037	Lose2	1.0	n/a	Yes	3.037	n/a	n/a	GoodResponse	0	0.0	n/a	3	8	ISIslide	AvoidedLoss	True
95.726	0.25	Lose2	1.0	0.0	Yes	3.124	0.026	n/a	GoodResponse	0	n/a	n/a	3	9	Cue	AvoidedLoss	True
95.976	3.95	Lose2	1.0	0.0	Yes	3.124	0.0	n/a	GoodResponse	0	n/a	n/a	3	9	Fixation	AvoidedLoss	True
99.925	0.31	Lose2	1.0	0.001	Yes	3.124	-0.001	1.0	GoodResponse	0	0.203	99.128	3	9	Target	AvoidedLoss	True
100.128	0.3	Lose2	1.0	0.001	Yes	3.124	-0.001	1.0	GoodResponse	0	0.203	n/a	3	9	ButtonPress	AvoidedLoss	True
100.241	0.39	Lose2	1.0	n/a	Yes	3.124	n/a	n/a	GoodResponse	0	n/a	n/a	3	9	Blank	AvoidedLoss	True
100.625	1.45	Lose2	1.0	n/a	Yes	3.124	n/a	5.0	GoodResponse	0	0.032	99.657	3	9	Feedback	AvoidedLoss	True
102.074	3.124	Lose2	1.0	n/a	Yes	3.124	n/a	n/a	GoodResponse	0	0.0	n/a	3	9	ISIslide	AvoidedLoss	True
105.223	0.25	Control	0.9091	0.0	No	3.277	0.023	n/a	PrematurePress	0	n/a	n/a	3	10	Cue	Neutral	True
105.473	4.0	Control	0.9091	0.0	No	3.277	0.0	n/a	PrematurePress	0	n/a	n/a	3	10	Fixation	Neutral	True
109.471	0.3	Control	0.9091	0.002	No	3.277	-0.002	1.0	PrematurePress	0	0.077	108.548	3	10	Target	Neutral	True
109.548	0.3	Control	0.9091	0.002	No	3.277	-0.002	1.0	PrematurePress	0	0.077	n/a	3	10	ButtonPress	Neutral	True
109.771	0.4	Control	0.9091	n/a	No	3.277	n/a	n/a	PrematurePress	0	n/a	n/a	3	10	Blank	Neutral	True
110.171	1.45	Control	0.9091	n/a	No	3.277	n/a	5.0	PrematurePress	0	0.047	109.218	3	10	Feedback	Neutral	True
111.621	3.277	Control	0.9091	n/a	No	3.277	n/a	n/a	PrematurePress	0	0.0	n/a	3	10	ISIslide	Neutral	True
114.919	0.25	Lose2	0.9167000000000001	0.001	Yes	2.731	0.019	n/a	GoodResponse	0	n/a	n/a	3	11	Cue	AvoidedLoss	True
115.169	4.05	Lose2	0.9167000000000001	0.0	Yes	2.731	0.0	n/a	GoodResponse	0	n/a	n/a	3	11	Fixation	AvoidedLoss	True
119.218	0.29	Lose2	0.9167000000000001	0.001	Yes	2.731	-0.001	1.0	GoodResponse	0	0.197	118.415	3	11	Target	AvoidedLoss	True
119.415	0.3	Lose2	0.9167000000000001	0.001	Yes	2.731	-0.001	1.0	GoodResponse	0	0.197	n/a	3	11	ButtonPress	AvoidedLoss	True
119.518	0.41	Lose2	0.9167000000000001	n/a	Yes	2.731	n/a	n/a	GoodResponse	0	n/a	n/a	3	11	Blank	AvoidedLoss	True
119.918	1.45	Lose2	0.9167000000000001	n/a	Yes	2.731	n/a	5.0	GoodResponse	0	0.006	118.924	3	11	Feedback	AvoidedLoss	True
121.367	2.731	Lose2	0.9167000000000001	n/a	Yes	2.731	n/a	n/a	GoodResponse	0	0.0	n/a	3	11	ISIslide	AvoidedLoss	True
124.116	0.25	Control	0.9231	0.0	Yes	2.984	0.016	n/a	GoodResponse	0	n/a	n/a	3	12	Cue	Neutral	True
124.366	3.9	Control	0.9231	0.0	Yes	2.984	0.0	n/a	GoodResponse	0	n/a	n/a	3	12	Fixation	Neutral	True
128.265	0.28	Control	0.9231	0.001	Yes	2.984	-0.001	1.0	GoodResponse	0	0.222	127.487	3	12	Target	Neutral	True
128.487	0.3	Control	0.9231	0.001	Yes	2.984	-0.001	1.0	GoodResponse	0	0.222	n/a	3	12	ButtonPress	Neutral	True
128.548	0.42	Control	0.9231	n/a	Yes	2.984	n/a	n/a	GoodResponse	0	n/a	n/a	3	12	Blank	Neutral	True
128.965	1.45	Control	0.9231	n/a	Yes	2.984	n/a	5.0	GoodResponse	0	0.033	127.998	3	12	Feedback	Neutral	True
130.414	2.984	Control	0.9231	n/a	Yes	2.984	n/a	n/a	GoodResponse	0	0.0	n/a	3	12	ISIslide	Neutral	True
133.413	0.25	Control	0.9286	0.0	Yes	2.787	0.013	n/a	GoodResponse	0	n/a	n/a	3	13	Cue	Neutral	True
133.663	4.0	Control	0.9286	0.0	Yes	2.787	0.0	n/a	GoodResponse	0	n/a	n/a	3	13	Fixation	Neutral	True
137.661	0.27	Control	0.9286	0.002	Yes	2.787	-0.002	1.0	GoodResponse	0	0.189	136.85	3	13	Target	Neutral	True
137.85	0.3	Control	0.9286	0.002	Yes	2.787	-0.002	1.0	GoodResponse	0	0.189	n/a	3	13	ButtonPress	Neutral	True
137.945	0.43	Control	0.9286	n/a	Yes	2.787	n/a	n/a	GoodResponse	0	n/a	n/a	3	13	Blank	Neutral	True
138.361	1.45	Control	0.9286	n/a	Yes	2.787	n/a	5.0	GoodResponse	0	0.005	137.366	3	13	Feedback	Neutral	True
139.811	2.787	Control	0.9286	n/a	Yes	2.787	n/a	n/a	GoodResponse	0	0.0	n/a	3	13	ISIslide	Neutral	True
142.626	0.25	Win2	0.9333	0.0	Yes	2.674	0.026	n/a	GoodResponse	1	n/a	n/a	4	14	Cue	Win	True
142.876	4.1	Win2	0.9333	0.0	Yes	2.674	0.0	n/a	GoodResponse	1	n/a	n/a	4	14	Fixation	Win	True
146.975	0.26	Win2	0.9333	0.001	Yes	2.674	-0.001	1.0	GoodResponse	1	0.181	146.156	4	14	Target	Win	True
147.156	0.3	Win2	0.9333	0.001	Yes	2.674	-0.001	1.0	GoodResponse	1	0.181	n/a	4	14	ButtonPress	Win	True
147.241	0.44	Win2	0.9333	n/a	Yes	2.674	n/a	n/a	GoodResponse	1	n/a	n/a	4	14	Blank	Win	True
147.675	1.45	Win2	0.9333	n/a	Yes	2.674	n/a	5.0	GoodResponse	1	0.006	146.681	4	14	Feedback	Win	True
149.124	2.674	Win2	0.9333	n/a	Yes	2.674	n/a	n/a	GoodResponse	1	0.0	n/a	4	14	ISIslide	Win	True
151.823	0.25	Control	0.9375	0.0	Yes	2.977	0.023	n/a	GoodResponse	0	n/a	n/a	4	15	Cue	Neutral	True
152.073	4.0	Control	0.9375	0.0	Yes	2.977	0.0	n/a	GoodResponse	0	n/a	n/a	4	15	Fixation	Neutral	True
156.072	0.25	Control	0.9375	0.001	Yes	2.977	-0.001	1.0	GoodResponse	0	0.211	155.283	4	15	Target	Neutral	True
156.283	0.3	Control	0.9375	0.001	Yes	2.977	-0.001	1.0	GoodResponse	0	0.211	n/a	4	15	ButtonPress	Neutral	True
156.322	0.45	Control	0.9375	n/a	Yes	2.977	n/a	n/a	GoodResponse	0	n/a	n/a	4	15	Blank	Neutral	True
156.771	1.45	Control	0.9375	n/a	Yes	2.977	n/a	5.0	GoodResponse	0	0.031	155.802	4	15	Feedback	Neutral	True
158.221	2.977	Control	0.9375	n/a	Yes	2.977	n/a	n/a	GoodResponse	0	0.0	n/a	4	15	ISIslide	Neutral	True
161.22	0.25	Win2	0.9412	0.0	Yes	2.88	0.02	n/a	GoodResponse	1	n/a	n/a	5	16	Cue	Win	True
161.47	4.0	Win2	0.9412	0.0	Yes	2.88	0.0	n/a	GoodResponse	1	n/a	n/a	5	16	Fixation	Win	True
165.468	0.24	Win2	0.9412	0.002	Yes	2.88	-0.002	1.0	GoodResponse	1	0.203	164.671	5	16	Target	Win	True
165.671	0.3	Win2	0.9412	0.002	Yes	2.88	-0.002	1.0	GoodResponse	1	0.203	n/a	5	16	ButtonPress	Win	True
165.718	0.46	Win2	0.9412	n/a	Yes	2.88	n/a	n/a	GoodResponse	1	n/a	n/a	5	16	Blank	Win	True
166.168	1.45	Win2	0.9412	n/a	Yes	2.88	n/a	5.0	GoodResponse	1	0.0	165.168	5	16	Feedback	Win	True
167.618	2.88	Win2	0.9412	n/a	Yes	2.88	n/a	n/a	GoodResponse	1	0.0	n/a	5	16	ISIslide	Win	True
170.517	0.25	Lose2	0.9444	0.0	Yes	2.733	0.017	n/a	GoodResponse	0	n/a	n/a	5	17	Cue	AvoidedLoss	True
170.766	3.95	Lose2	0.9444	0.001	Yes	2.733	-0.001	n/a	GoodResponse	0	n/a	n/a	5	17	Fixation	AvoidedLoss	True
174.715	0.23	Lose2	0.9444	0.002	Yes	2.733	-0.002	1.0	GoodResponse	0	0.202	173.917	5	17	Target	AvoidedLoss	True
174.917	0.3	Lose2	0.9444	0.002	Yes	2.733	-0.002	1.0	GoodResponse	0	0.202	n/a	5	17	ButtonPress	AvoidedLoss	True
174.948	0.47	Lose2	0.9444	n/a	Yes	2.733	n/a	n/a	GoodResponse	0	n/a	n/a	5	17	Blank	AvoidedLoss	True
175.415	1.45	Lose2	0.9444	n/a	Yes	2.733	n/a	5.0	GoodResponse	0	0.021	174.436	5	17	Feedback	AvoidedLoss	True
176.864	2.733	Lose2	0.9444	n/a	Yes	2.733	n/a	n/a	GoodResponse	0	0.0	n/a	5	17	ISIslide	AvoidedLoss	True
179.613	0.25	Lose2	0.9473999999999999	0.0	Yes	2.737	0.013	n/a	GoodResponse	0	n/a	n/a	5	18	Cue	AvoidedLoss	True
179.863	4.05	Lose2	0.9473999999999999	0.0	Yes	2.737	0.0	n/a	GoodResponse	0	n/a	n/a	5	18	Fixation	AvoidedLoss	True
183.912	0.22	Lose2	0.9473999999999999	0.001	Yes	2.737	-0.001	1.0	GoodResponse	0	0.185	183.097	5	18	Target	AvoidedLoss	True
184.097	0.3	Lose2	0.9473999999999999	0.001	Yes	2.737	-0.001	1.0	GoodResponse	0	0.185	n/a	5	18	ButtonPress	AvoidedLoss	True
184.128	0.48	Lose2	0.9473999999999999	n/a	Yes	2.737	n/a	n/a	GoodResponse	0	n/a	n/a	5	18	Blank	AvoidedLoss	True
184.612	1.45	Lose2	0.9473999999999999	n/a	Yes	2.737	n/a	5.0	GoodResponse	0	0.044	183.656	5	18	Feedback	AvoidedLoss	True
186.061	2.737	Lose2	0.9473999999999999	n/a	Yes	2.737	n/a	n/a	GoodResponse	0	0.0	n/a	5	18	ISIslide	AvoidedLoss	True
188.827	0.25	Control	0.95	0.0	Yes	2.923	0.027	n/a	GoodResponse	0	n/a	n/a	5	19	Cue	Neutral	True
189.077	3.95	Control	0.95	0.0	Yes	2.923	0.0	n/a	GoodResponse	0	n/a	n/a	5	19	Fixation	Neutral	True
193.025	0.21	Control	0.95	0.002	Yes	2.923	-0.002	1.0	GoodResponse	0	0.198	192.223	5	19	Target	Neutral	True
193.223	0.3	Control	0.95	0.002	Yes	2.923	-0.002	1.0	GoodResponse	0	0.198	n/a	5	19	ButtonPress	Neutral	True
193.242	0.49	Control	0.95	n/a	Yes	2.923	n/a	n/a	GoodResponse	0	n/a	n/a	5	19	Blank	Neutral	True
193.725	1.45	Control	0.95	n/a	Yes	2.923	n/a	5.0	GoodResponse	0	0.006	192.731	5	19	Feedback	Neutral	True
195.175	2.923	Control	0.95	n/a	Yes	2.923	n/a	n/a	GoodResponse	0	0.0	n/a	5	19	ISIslide	Neutral	True
198.124	0.25	Control	0.9048	0.0	No	2.626	0.024	n/a	NoResponse	0	n/a	n/a	5	20	Cue	Neutral	True
198.373	4.05	Control	0.9048	0.001	No	2.626	-0.001	n/a	NoResponse	0	n/a	n/a	5	20	Fixation	Neutral	True
202.422	0.2	Control	0.9048	0.002	No	2.626	-0.002	1.0	NoResponse	0	0.213	201.635	5	20	Target	Neutral	True
202.622	0.5	Control	0.9048	n/a	No	2.626	n/a	n/a	NoResponse	0	n/a	n/a	5	20	Blank	Neutral	True
202.635	0.3	Control	0.9048	0.002	No	2.626	-0.002	1.0	NoResponse	0	0.213	n/a	5	20	ButtonPress	Neutral	True
203.122	1.45	Control	0.9048	n/a	No	2.626	n/a	5.0	NoResponse	0	0.021	202.143	5	20	Feedback	Neutral	True
204.571	2.626	Control	0.9048	n/a	No	2.626	n/a	n/a	NoResponse	0	0.0	n/a	5	20	ISIslide	Neutral	True
207.22	0.25	Control	0.9091	0.0	Yes	2.78	0.02	n/a	GoodResponse	0	n/a	n/a	5	21	Cue	Neutral	True
207.47	4.1	Control	0.9091	0.0	Yes	2.78	0.0	n/a	GoodResponse	0	n/a	n/a	5	21	Fixation	Neutral	True
211.569	0.19	Control	0.9091	0.001	Yes	2.78	-0.001	1.0	GoodResponse	0	0.182	210.751	5	21	Target	Neutral	True
211.751	0.3	Control	0.9091	0.001	Yes	2.78	-0.001	1.0	GoodResponse	0	0.182	n/a	5	21	ButtonPress	Neutral	True
211.769	0.51	Control	0.9091	n/a	Yes	2.78	n/a	n/a	GoodResponse	0	n/a	n/a	5	21	Blank	Neutral	True
212.269	1.45	Control	0.9091	n/a	Yes	2.78	n/a	5.0	GoodResponse	0	0.045	211.314	5	21	Feedback	Neutral	True
213.718	2.78	Control	0.9091	n/a	Yes	2.78	n/a	n/a	GoodResponse	0	0.0	n/a	5	21	ISIslide	Neutral	True
216.517	0.25	Control	0.8695999999999999	0.0	No	2.783	0.017	n/a	NoResponse	0	n/a	n/a	5	22	Cue	Neutral	True
216.767	4.0	Control	0.8695999999999999	0.0	No	2.783	0.0	n/a	NoResponse	0	n/a	n/a	5	22	Fixation	Neutral	True
220.766	0.18	Control	0.8695999999999999	0.001	No	2.783	-0.001	1.0	NoResponse	0	0.22	219.986	5	22	Target	Neutral	True
220.949	0.52	Control	0.8695999999999999	n/a	No	2.783	n/a	n/a	NoResponse	0	n/a	n/a	5	22	Blank	Neutral	True
220.986	0.3	Control	0.8695999999999999	0.001	No	2.783	-0.001	1.0	NoResponse	0	0.22	n/a	5	22	ButtonPress	Neutral	True
221.465	1.45	Control	0.8695999999999999	n/a	No	2.783	n/a	5.0	NoResponse	0	0.02	220.485	5	22	Feedback	Neutral	True
222.915	2.783	Control	0.8695999999999999	n/a	No	2.783	n/a	n/a	NoResponse	0	0.0	n/a	5	22	ISIslide	Neutral	True
225.714	0.25	Control	0.8332999999999999	0.0	No	2.786	0.014	n/a	NoResponse	0	n/a	n/a	5	23	Cue	Neutral	True
225.964	3.9	Control	0.8332999999999999	0.0	No	2.786	0.0	n/a	NoResponse	0	n/a	n/a	5	23	Fixation	Neutral	True
229.862	0.17	Control	0.8332999999999999	0.002	No	2.786	-0.002	1.0	NoResponse	0	0.299	229.161	5	23	Target	Neutral	True
230.046	0.53	Control	0.8332999999999999	n/a	No	2.786	n/a	n/a	NoResponse	0	n/a	n/a	5	23	Blank	Neutral	True
230.161	0.3	Control	0.8332999999999999	0.002	No	2.786	-0.002	1.0	NoResponse	0	0.299	n/a	5	23	ButtonPress	Neutral	True
230.562	1.45	Control	0.8332999999999999	n/a	No	2.786	n/a	5.0	NoResponse	0	0.045	229.607	5	23	Feedback	Neutral	True
232.012	2.786	Control	0.8332999999999999	n/a	No	2.786	n/a	n/a	NoResponse	0	0.0	n/a	5	23	ISIslide	Neutral	True
234.827	0.25	Win2	0.8	0.0	No	3.123	0.027	n/a	NoResponse	0	n/a	n/a	5	24	Cue	MissedWin	True
235.077	3.95	Win2	0.8	0.0	No	3.123	0.0	n/a	NoResponse	0	n/a	n/a	5	24	Fixation	MissedWin	True
239.026	0.16	Win2	0.8	0.001	No	3.123	-0.001	1.0	NoResponse	0	0.197	238.223	5	24	Target	MissedWin	True
239.192	0.54	Win2	0.8	n/a	No	3.123	n/a	n/a	NoResponse	0	n/a	n/a	5	24	Blank	MissedWin	True
239.223	0.3	Win2	0.8	0.001	No	3.123	-0.001	1.0	NoResponse	0	0.197	n/a	5	24	ButtonPress	MissedWin	True
239.726	1.45	Win2	0.8	n/a	No	3.123	n/a	5.0	NoResponse	0	0.004	238.73	5	24	Feedback	MissedWin	True
241.175	3.123	Win2	0.8	n/a	No	3.123	n/a	n/a	NoResponse	0	0.0	n/a	5	24	ISIslide	MissedWin	True
244.324	0.25	Win2	0.7692	0.0	No	3.076	0.024	n/a	NoResponse	0	n/a	n/a	5	25	Cue	MissedWin	True
244.574	4.0	Win2	0.7692	0.0	No	3.076	0.0	n/a	NoResponse	0	n/a	n/a	5	25	Fixation	MissedWin	True
248.572	0.15	Win2	0.7692	0.002	No	3.076	-0.002	1.0	NoResponse	0	0.188	247.76	5	25	Target	MissedWin	True
248.722	0.55	Win2	0.7692	n/a	No	3.076	n/a	n/a	NoResponse	0	n/a	n/a	5	25	Blank	MissedWin	True
248.76	0.3	Win2	0.7692	0.002	No	3.076	-0.002	1.0	NoResponse	0	0.188	n/a	5	25	ButtonPress	MissedWin	True
249.272	1.45	Win2	0.7692	n/a	No	3.076	n/a	5.0	NoResponse	0	0.017	248.289	5	25	Feedback	MissedWin	True
250.722	3.076	Win2	0.7692	n/a	No	3.076	n/a	n/a	NoResponse	0	0.0	n/a	5	25	ISIslide	MissedWin	True
253.821	0.25	Win2	0.7406999999999999	0.0	No	2.929	0.021	n/a	PrematurePress	0	n/a	n/a	5	26	Cue	MissedWin	True
254.07	3.95	Win2	0.7406999999999999	0.001	No	2.929	-0.001	n/a	PrematurePress	0	n/a	n/a	5	26	Fixation	MissedWin	True
258.019	0.15	Win2	0.7406999999999999	0.002	No	2.929	-0.002	1.0	PrematurePress	0	0.067	257.086	5	26	Target	MissedWin	True
258.086	0.3	Win2	0.7406999999999999	0.002	No	2.929	-0.002	1.0	PrematurePress	0	0.067	n/a	5	26	ButtonPress	MissedWin	True
258.169	0.55	Win2	0.7406999999999999	n/a	No	2.929	n/a	n/a	PrematurePress	0	n/a	n/a	5	26	Blank	MissedWin	True
258.719	1.45	Win2	0.7406999999999999	n/a	No	2.929	n/a	5.0	PrematurePress	0	0.034	257.753	5	26	Feedback	MissedWin	True
260.168	2.929	Win2	0.7406999999999999	n/a	No	2.929	n/a	n/a	PrematurePress	0	0.0	n/a	5	26	ISIslide	MissedWin	True
263.117	0.25	Lose2	0.7143	0.0	No	2.833	0.017	n/a	NoResponse	-1	n/a	n/a	4	27	Cue	Loss	True
263.367	4.05	Lose2	0.7143	0.0	No	2.833	0.0	n/a	NoResponse	-1	n/a	n/a	4	27	Fixation	Loss	True
267.416	0.15	Lose2	0.7143	0.001	No	2.833	-0.001	1.0	NoResponse	-1	0.189	266.605	4	27	Target	Loss	True
267.566	0.55	Lose2	0.7143	n/a	No	2.833	n/a	n/a	NoResponse	-1	n/a	n/a	4	27	Blank	Loss	True
267.605	0.3	Lose2	0.7143	0.001	No	2.833	-0.001	1.0	NoResponse	-1	0.189	n/a	4	27	ButtonPress	Loss	True
268.116	1.45	Lose2	0.7143	n/a	No	2.833	n/a	5.0	NoResponse	-1	0.004	267.12	4	27	Feedback	Loss	True
269.565	2.833	Lose2	0.7143	n/a	No	2.833	n/a	n/a	NoResponse	-1	0.0	n/a	4	27	ISIslide	Loss	True
272.414	0.25	Control	0.6897	0.0	No	2.836	0.014	n/a	NoResponse	0	n/a	n/a	4	28	Cue	Neutral	True
272.664	4.05	Control	0.6897	0.0	No	2.836	0.0	n/a	NoResponse	0	n/a	n/a	4	28	Fixation	Neutral	True
276.712	0.15	Control	0.6897	0.002	No	2.836	-0.002	1.0	NoResponse	0	0.202	275.914	4	28	Target	Neutral	True
276.862	0.55	Control	0.6897	n/a	No	2.836	n/a	n/a	NoResponse	0	n/a	n/a	4	28	Blank	Neutral	True
276.914	0.3	Control	0.6897	0.002	No	2.836	-0.002	1.0	NoResponse	0	0.202	n/a	4	28	ButtonPress	Neutral	True
277.412	1.45	Control	0.6897	n/a	No	2.836	n/a	5.0	NoResponse	0	0.024	276.436	4	28	Feedback	Neutral	True
278.862	2.836	Control	0.6897	n/a	No	2.836	n/a	n/a	NoResponse	0	0.0	n/a	4	28	ISIslide	Neutral	True
281.727	0.25	Lose2	0.6667000000000001	0.0	No	2.823	0.027	n/a	NoResponse	-1	n/a	n/a	3	29	Cue	Loss	True
281.977	3.95	Lose2	0.6667000000000001	0.0	No	2.823	0.0	n/a	NoResponse	-1	n/a	n/a	3	29	Fixation	Loss	True
285.926	0.15	Lose2	0.6667000000000001	0.001	No	2.823	-0.001	1.0	NoResponse	-1	0.164	285.09	3	29	Target	Loss	True
286.076	0.55	Lose2	0.6667000000000001	n/a	No	2.823	n/a	n/a	NoResponse	-1	n/a	n/a	3	29	Blank	Loss	True
286.09	0.3	Lose2	0.6667000000000001	0.001	No	2.823	-0.001	1.0	NoResponse	-1	0.164	n/a	3	29	ButtonPress	Loss	True
286.626	1.45	Lose2	0.6667000000000001	n/a	No	2.823	n/a	5.0	NoResponse	-1	0.028	285.654	3	29	Feedback	Loss	True
288.075	2.823	Lose2	0.6667000000000001	n/a	No	2.823	n/a	n/a	NoResponse	-1	0.0	n/a	3	29	ISIslide	Loss	True
290.924	0.25	Win2	0.6452	0.0	No	2.776	0.024	n/a	NoResponse	0	n/a	n/a	3	30	Cue	MissedWin	True
291.174	3.9	Win2	0.6452	0.0	No	2.776	0.0	n/a	NoResponse	0	n/a	n/a	3	30	Fixation	MissedWin	True
295.073	0.15	Win2	0.6452	0.001	No	2.776	-0.001	1.0	NoResponse	0	0.192	294.265	3	30	Target	MissedWin	True
295.223	0.55	Win2	0.6452	n/a	No	2.776	n/a	n/a	NoResponse	0	n/a	n/a	3	30	Blank	MissedWin	True
295.265	0.3	Win2	0.6452	0.001	No	2.776	-0.001	1.0	NoResponse	0	0.192	n/a	3	30	ButtonPress	MissedWin	True
295.772	1.45	Win2	0.6452	n/a	No	2.776	n/a	5.0	NoResponse	0	0.005	294.777	3	30	Feedback	MissedWin	True
297.222	2.776	Win2	0.6452	n/a	No	2.776	n/a	n/a	NoResponse	0	0.0	n/a	3	30	ISIslide	MissedWin	True
300.021	0.25	Lose2	0.625	0.0	No	2.829	0.021	n/a	PrematurePress	-1	n/a	n/a	2	31	Cue	Loss	True
300.271	4.05	Lose2	0.625	0.0	No	2.829	0.0	n/a	PrematurePress	-1	n/a	n/a	2	31	Fixation	Loss	True
304.319	0.16	Lose2	0.625	0.002	No	2.829	-0.002	1.0	PrematurePress	-1	0.019	303.338	2	31	Target	Loss	True
304.338	0.3	Lose2	0.625	0.002	No	2.829	-0.002	1.0	PrematurePress	-1	0.019	n/a	2	31	ButtonPress	Loss	True
304.486	0.54	Lose2	0.625	n/a	No	2.829	n/a	n/a	PrematurePress	-1	n/a	n/a	2	31	Blank	Loss	True
305.019	1.45	Lose2	0.625	n/a	No	2.829	n/a	5.0	PrematurePress	-1	0.026	304.045	2	31	Feedback	Loss	True
306.469	2.829	Lose2	0.625	n/a	No	2.829	n/a	n/a	PrematurePress	-1	0.0	n/a	2	31	ISIslide	Loss	True
309.318	0.25	Lose2	0.6061	0.0	No	2.632	0.018	n/a	NoResponse	-1	n/a	n/a	1	32	Cue	Loss	True
309.568	4.15	Lose2	0.6061	0.0	No	2.632	0.0	n/a	NoResponse	-1	n/a	n/a	1	32	Fixation	Loss	True
313.716	0.17	Lose2	0.6061	0.002	No	2.632	-0.002	1.0	NoResponse	-1	0.217	312.933	1	32	Target	Loss	True
313.899	0.53	Lose2	0.6061	n/a	No	2.632	n/a	n/a	NoResponse	-1	n/a	n/a	1	32	Blank	Loss	True
313.933	0.3	Lose2	0.6061	0.002	No	2.632	-0.002	1.0	NoResponse	-1	0.217	n/a	1	32	ButtonPress	Loss	True
314.416	1.45	Lose2	0.6061	n/a	No	2.632	n/a	5.0	NoResponse	-1	0.044	313.46	1	32	Feedback	Loss	True
315.865	2.632	Lose2	0.6061	n/a	No	2.632	n/a	n/a	NoResponse	-1	0.0	n/a	1	32	ISIslide	Loss	True
318.514	0.25	Win2	0.5882000000000001	0.001	No	2.686	0.014	n/a	NoResponse	0	n/a	n/a	1	33	Cue	MissedWin	True
318.764	4.0	Win2	0.5882000000000001	0.0	No	2.686	0.0	n/a	NoResponse	0	n/a	n/a	1	33	Fixation	MissedWin	True
322.763	0.18	Win2	0.5882000000000001	0.001	No	2.686	-0.001	1.0	NoResponse	0	0.189	321.952	1	33	Target	MissedWin	True
322.946	0.52	Win2	0.5882000000000001	n/a	No	2.686	n/a	n/a	NoResponse	0	n/a	n/a	1	33	Blank	MissedWin	True
322.952	0.3	Win2	0.5882000000000001	0.001	No	2.686	-0.001	1.0	NoResponse	0	0.189	n/a	1	33	ButtonPress	MissedWin	True
323.463	1.45	Win2	0.5882000000000001	n/a	No	2.686	n/a	5.0	NoResponse	0	0.021	322.484	1	33	Feedback	MissedWin	True
324.912	2.686	Win2	0.5882000000000001	n/a	No	2.686	n/a	n/a	NoResponse	0	0.0	n/a	1	33	ISIslide	MissedWin	True
327.628	0.25	Lose2	0.6	0.0	Yes	2.622	0.028	n/a	GoodResponse	0	n/a	n/a	1	34	Cue	AvoidedLoss	True
327.878	4.05	Lose2	0.6	0.0	Yes	2.622	0.0	n/a	GoodResponse	0	n/a	n/a	1	34	Fixation	AvoidedLoss	True
331.926	0.19	Lose2	0.6	0.002	Yes	2.622	-0.002	1.0	GoodResponse	0	0.188	331.114	1	34	Target	AvoidedLoss	True
332.114	0.3	Lose2	0.6	0.002	Yes	2.622	-0.002	1.0	GoodResponse	0	0.188	n/a	1	34	ButtonPress	AvoidedLoss	True
332.126	0.51	Lose2	0.6	n/a	Yes	2.622	n/a	n/a	GoodResponse	0	n/a	n/a	1	34	Blank	AvoidedLoss	True
332.626	1.45	Lose2	0.6	n/a	Yes	2.622	n/a	5.0	GoodResponse	0	0.028	331.654	1	34	Feedback	AvoidedLoss	True
334.076	2.622	Lose2	0.6	n/a	Yes	2.622	n/a	n/a	GoodResponse	0	0.0	n/a	1	34	ISIslide	AvoidedLoss	True
336.725	0.25	Lose2	0.6111	0.0	Yes	2.675	0.025	n/a	GoodResponse	0	n/a	n/a	1	35	Cue	AvoidedLoss	True
336.975	4.0	Lose2	0.6111	0.0	Yes	2.675	0.0	n/a	GoodResponse	0	n/a	n/a	1	35	Fixation	AvoidedLoss	True
340.973	0.2	Lose2	0.6111	0.002	Yes	2.675	-0.002	1.0	GoodResponse	0	0.196	340.169	1	35	Target	AvoidedLoss	True
341.169	0.3	Lose2	0.6111	0.002	Yes	2.675	-0.002	1.0	GoodResponse	0	0.196	n/a	1	35	ButtonPress	AvoidedLoss	True
341.173	0.5	Lose2	0.6111	n/a	Yes	2.675	n/a	n/a	GoodResponse	0	n/a	n/a	1	35	Blank	AvoidedLoss	True
341.673	1.45	Lose2	0.6111	n/a	Yes	2.675	n/a	5.0	GoodResponse	0	0.005	340.678	1	35	Feedback	AvoidedLoss	True
343.122	2.675	Lose2	0.6111	n/a	Yes	2.675	n/a	n/a	GoodResponse	0	0.0	n/a	1	35	ISIslide	AvoidedLoss	True
345.821	0.25	Control	0.5946	0.001	No	2.679	0.021	n/a	NoResponse	0	n/a	n/a	1	36	Cue	Neutral	True
346.071	4.0	Control	0.5946	0.0	No	2.679	0.0	n/a	NoResponse	0	n/a	n/a	1	36	Fixation	Neutral	True
350.07	0.21	Control	0.5946	0.001	No	2.679	-0.001	1.0	NoResponse	0	0.217	349.287	1	36	Target	Neutral	True
350.287	0.49	Control	0.5946	n/a	No	2.679	n/a	n/a	NoResponse	0	n/a	n/a	1	36	Blank	Neutral	True
350.287	0.3	Control	0.5946	0.001	No	2.679	-0.001	1.0	NoResponse	0	0.217	n/a	1	36	ButtonPress	Neutral	True
350.77	1.45	Control	0.5946	n/a	No	2.679	n/a	5.0	NoResponse	0	0.031	349.801	1	36	Feedback	Neutral	True
352.219	2.679	Control	0.5946	n/a	No	2.679	n/a	n/a	NoResponse	0	0.0	n/a	1	36	ISIslide	Neutral	True
354.918	0.25	Win2	0.6053000000000001	0.0	Yes	2.882	0.018	n/a	GoodResponse	1	n/a	n/a	2	37	Cue	Win	True
355.168	4.0	Win2	0.6053000000000001	0.0	Yes	2.882	0.0	n/a	GoodResponse	1	n/a	n/a	2	37	Fixation	Win	True
359.167	0.22	Win2	0.6053000000000001	0.001	Yes	2.882	-0.001	1.0	GoodResponse	1	0.208	358.375	2	37	Target	Win	True
359.375	0.3	Win2	0.6053000000000001	0.001	Yes	2.882	-0.001	1.0	GoodResponse	1	0.208	n/a	2	37	ButtonPress	Win	True
359.383	0.48	Win2	0.6053000000000001	n/a	Yes	2.882	n/a	n/a	GoodResponse	1	n/a	n/a	2	37	Blank	Win	True
359.867	1.45	Win2	0.6053000000000001	n/a	Yes	2.882	n/a	5.0	GoodResponse	1	0.007	358.874	2	37	Feedback	Win	True
361.316	2.882	Win2	0.6053000000000001	n/a	Yes	2.882	n/a	n/a	GoodResponse	1	0.0	n/a	2	37	ISIslide	Win	True
364.215	0.25	Lose2	0.6154	0.0	Yes	2.835	0.015	n/a	GoodResponse	0	n/a	n/a	2	38	Cue	AvoidedLoss	True
364.465	3.95	Lose2	0.6154	0.0	Yes	2.835	0.0	n/a	GoodResponse	0	n/a	n/a	2	38	Fixation	AvoidedLoss	True
368.414	0.23	Lose2	0.6154	0.001	Yes	2.835	-0.001	1.0	GoodResponse	0	0.209	367.623	2	38	Target	AvoidedLoss	True
368.623	0.3	Lose2	0.6154	0.001	Yes	2.835	-0.001	1.0	GoodResponse	0	0.209	n/a	2	38	ButtonPress	AvoidedLoss	True
368.647	0.47	Lose2	0.6154	n/a	Yes	2.835	n/a	n/a	GoodResponse	0	n/a	n/a	2	38	Blank	AvoidedLoss	True
369.113	1.45	Lose2	0.6154	n/a	Yes	2.835	n/a	5.0	GoodResponse	0	0.029	368.142	2	38	Feedback	AvoidedLoss	True
370.563	2.835	Lose2	0.6154	n/a	Yes	2.835	n/a	n/a	GoodResponse	0	0.0	n/a	2	38	ISIslide	AvoidedLoss	True
373.428	0.25	Win2	0.625	0.0	Yes	2.972	0.028	n/a	GoodResponse	1	n/a	n/a	3	39	Cue	Win	True
373.678	4.1	Win2	0.625	0.001	Yes	2.972	0.0	n/a	GoodResponse	1	n/a	n/a	3	39	Fixation	Win	True
377.777	0.24	Win2	0.625	0.001	Yes	2.972	-0.001	1.0	GoodResponse	1	0.235	377.012	3	39	Target	Win	True
378.012	0.3	Win2	0.625	0.001	Yes	2.972	-0.001	1.0	GoodResponse	1	0.235	n/a	3	39	ButtonPress	Win	True
378.027	0.46	Win2	0.625	n/a	Yes	2.972	n/a	n/a	GoodResponse	1	n/a	n/a	3	39	Blank	Win	True
378.477	1.45	Win2	0.625	n/a	Yes	2.972	n/a	5.0	GoodResponse	1	0.03	377.507	3	39	Feedback	Win	True
379.926	2.972	Win2	0.625	n/a	Yes	2.972	n/a	n/a	GoodResponse	1	0.0	n/a	3	39	ISIslide	Win	True
382.925	0.25	Win2	0.6341	0.0	Yes	2.725	0.025	n/a	GoodResponse	1	n/a	n/a	4	40	Cue	Win	True
383.175	3.95	Win2	0.6341	0.0	Yes	2.725	0.0	n/a	GoodResponse	1	n/a	n/a	4	40	Fixation	Win	True
387.124	0.25	Win2	0.6341	0.001	Yes	2.725	-0.001	1.0	GoodResponse	1	0.188	386.312	4	40	Target	Win	True
387.312	0.3	Win2	0.6341	0.001	Yes	2.725	-0.001	1.0	GoodResponse	1	0.188	n/a	4	40	ButtonPress	Win	True
387.373	0.45	Win2	0.6341	n/a	Yes	2.725	n/a	n/a	GoodResponse	1	n/a	n/a	4	40	Blank	Win	True
387.823	1.45	Win2	0.6341	n/a	Yes	2.725	n/a	5.0	GoodResponse	1	0.001	386.824	4	40	Feedback	Win	True
389.273	2.725	Win2	0.6341	n/a	Yes	2.725	n/a	n/a	GoodResponse	1	0.0	n/a	4	40	ISIslide	Win	True
392.022	0.25	Win2	0.6429	0.0	Yes	2.778	0.022	n/a	GoodResponse	1	n/a	n/a	5	41	Cue	Win	True
392.272	3.9	Win2	0.6429	0.0	Yes	2.778	0.0	n/a	GoodResponse	1	n/a	n/a	5	41	Fixation	Win	True
396.17	0.26	Win2	0.6429	0.002	Yes	2.778	-0.002	1.0	GoodResponse	1	0.256	395.426	5	41	Target	Win	True
396.426	0.3	Win2	0.6429	0.002	Yes	2.778	-0.002	1.0	GoodResponse	1	0.256	n/a	5	41	ButtonPress	Win	True
396.437	0.44	Win2	0.6429	n/a	Yes	2.778	n/a	n/a	GoodResponse	1	n/a	n/a	5	41	Blank	Win	True
396.87	1.45	Win2	0.6429	n/a	Yes	2.778	n/a	5.0	GoodResponse	1	0.028	395.898	5	41	Feedback	Win	True
398.32	2.778	Win2	0.6429	n/a	Yes	2.778	n/a	n/a	GoodResponse	1	0.0	n/a	5	41	ISIslide	Win	True
401.119	0.25	Control	0.6512	0.0	Yes	2.931	0.019	n/a	GoodResponse	0	n/a	n/a	5	42	Cue	Neutral	True
401.369	3.85	Control	0.6512	0.0	Yes	2.931	0.0	n/a	GoodResponse	0	n/a	n/a	5	42	Fixation	Neutral	True
405.217	0.27	Control	0.6512	0.002	Yes	2.931	-0.002	1.0	GoodResponse	0	0.222	404.439	5	42	Target	Neutral	True
405.439	0.3	Control	0.6512	0.002	Yes	2.931	-0.002	1.0	GoodResponse	0	0.222	n/a	5	42	ButtonPress	Neutral	True
405.5	0.43	Control	0.6512	n/a	Yes	2.931	n/a	n/a	GoodResponse	0	n/a	n/a	5	42	Blank	Neutral	True
405.917	1.45	Control	0.6512	n/a	Yes	2.931	n/a	5.0	GoodResponse	0	0.005	404.922	5	42	Feedback	Neutral	True
407.366	2.931	Control	0.6512	n/a	Yes	2.931	n/a	n/a	GoodResponse	0	0.0	n/a	5	42	ISIslide	Neutral	True
410.315	0.25	Win2	0.6591	0.001	Yes	3.185	0.015	n/a	GoodResponse	1	n/a	n/a	6	43	Cue	Win	True
410.565	4.0	Win2	0.6591	0.0	Yes	3.185	0.0	n/a	GoodResponse	1	n/a	n/a	6	43	Fixation	Win	True
414.564	0.28	Win2	0.6591	0.001	Yes	3.185	-0.001	1.0	GoodResponse	1	0.192	413.756	6	43	Target	Win	True
414.756	0.3	Win2	0.6591	0.001	Yes	3.185	-0.001	1.0	GoodResponse	1	0.192	n/a	6	43	ButtonPress	Win	True
414.847	0.42	Win2	0.6591	n/a	Yes	3.185	n/a	n/a	GoodResponse	1	n/a	n/a	6	43	Blank	Win	True
415.264	1.45	Win2	0.6591	n/a	Yes	3.185	n/a	5.0	GoodResponse	1	0.024	414.288	6	43	Feedback	Win	True
416.713	3.185	Win2	0.6591	n/a	Yes	3.185	n/a	n/a	GoodResponse	1	0.0	n/a	6	43	ISIslide	Win	True
419.912	0.25	Win2	0.6667000000000001	0.0	Yes	2.988	0.012	n/a	GoodResponse	1	n/a	n/a	7	44	Cue	Win	True
420.162	4.0	Win2	0.6667000000000001	0.0	Yes	2.988	0.0	n/a	GoodResponse	1	n/a	n/a	7	44	Fixation	Win	True
424.161	0.28	Win2	0.6667000000000001	0.001	Yes	2.988	-0.001	1.0	GoodResponse	1	0.155	423.316	7	44	Target	Win	True
424.316	0.3	Win2	0.6667000000000001	0.001	Yes	2.988	-0.001	1.0	GoodResponse	1	0.155	n/a	7	44	ButtonPress	Win	True
424.444	0.42	Win2	0.6667000000000001	n/a	Yes	2.988	n/a	n/a	GoodResponse	1	n/a	n/a	7	44	Blank	Win	True
424.86	1.45	Win2	0.6667000000000001	n/a	Yes	2.988	n/a	5.0	GoodResponse	1	0.037	423.897	7	44	Feedback	Win	True
426.31	2.988	Win2	0.6667000000000001	n/a	Yes	2.988	n/a	n/a	GoodResponse	1	0.0	n/a	7	44	ISIslide	Win	True
429.325	0.25	Control	0.6739	0.0	Yes	2.875	0.025	n/a	GoodResponse	0	n/a	n/a	7	45	Cue	Neutral	True
429.575	4.1	Control	0.6739	0.0	Yes	2.875	0.0	n/a	GoodResponse	0	n/a	n/a	7	45	Fixation	Neutral	True
433.674	0.27	Control	0.6739	0.001	Yes	2.875	-0.001	1.0	GoodResponse	0	0.22	432.894	7	45	Target	Neutral	True
433.894	0.3	Control	0.6739	0.001	Yes	2.875	-0.001	1.0	GoodResponse	0	0.22	n/a	7	45	ButtonPress	Neutral	True
433.94	0.43	Control	0.6739	n/a	Yes	2.875	n/a	n/a	GoodResponse	0	n/a	n/a	7	45	Blank	Neutral	True
434.374	1.45	Control	0.6739	n/a	Yes	2.875	n/a	5.0	GoodResponse	0	0.035	433.409	7	45	Feedback	Neutral	True
435.823	2.875	Control	0.6739	n/a	Yes	2.875	n/a	n/a	GoodResponse	0	0.0	n/a	7	45	ISIslide	Neutral	True
438.722	0.25	Lose2	0.6809000000000001	0.0	Yes	3.378	0.022	n/a	GoodResponse	0	n/a	n/a	7	46	Cue	AvoidedLoss	True
438.972	4.0	Lose2	0.6809000000000001	0.0	Yes	3.378	0.0	n/a	GoodResponse	0	n/a	n/a	7	46	Fixation	AvoidedLoss	True
442.971	0.26	Lose2	0.6809000000000001	0.001	Yes	3.378	-0.001	1.0	GoodResponse	0	0.211	442.182	7	46	Target	AvoidedLoss	True
443.182	0.3	Lose2	0.6809000000000001	0.001	Yes	3.378	-0.001	1.0	GoodResponse	0	0.211	n/a	7	46	ButtonPress	AvoidedLoss	True
443.237	0.44	Lose2	0.6809000000000001	n/a	Yes	3.378	n/a	n/a	GoodResponse	0	n/a	n/a	7	46	Blank	AvoidedLoss	True
443.67	1.45	Lose2	0.6809000000000001	n/a	Yes	3.378	n/a	5.0	GoodResponse	0	0.008	442.678	7	46	Feedback	AvoidedLoss	True
445.12	3.378	Lose2	0.6809000000000001	n/a	Yes	3.378	n/a	n/a	GoodResponse	0	0.0	n/a	7	46	ISIslide	AvoidedLoss	True
448.519	0.25	Lose2	0.6875	0.0	Yes	2.681	0.019	n/a	GoodResponse	0	n/a	n/a	7	47	Cue	AvoidedLoss	True
448.769	4.0	Lose2	0.6875	0.0	Yes	2.681	0.0	n/a	GoodResponse	0	n/a	n/a	7	47	Fixation	AvoidedLoss	True
452.767	0.25	Lose2	0.6875	0.002	Yes	2.681	-0.002	1.0	GoodResponse	0	0.211	451.978	7	47	Target	AvoidedLoss	True
452.978	0.3	Lose2	0.6875	0.002	Yes	2.681	-0.002	1.0	GoodResponse	0	0.211	n/a	7	47	ButtonPress	AvoidedLoss	True
453.017	0.45	Lose2	0.6875	n/a	Yes	2.681	n/a	n/a	GoodResponse	0	n/a	n/a	7	47	Blank	AvoidedLoss	True
453.467	1.45	Lose2	0.6875	n/a	Yes	2.681	n/a	5.0	GoodResponse	0	0.016	452.483	7	47	Feedback	AvoidedLoss	True
454.916	2.681	Lose2	0.6875	n/a	Yes	2.681	n/a	n/a	GoodResponse	0	0.0	n/a	7	47	ISIslide	AvoidedLoss	True
457.615	0.25	Lose2	0.6939	0.0	Yes	3.035	0.015	n/a	GoodResponse	0	n/a	n/a	7	48	Cue	AvoidedLoss	True
457.865	3.95	Lose2	0.6939	0.0	Yes	3.035	0.0	n/a	GoodResponse	0	n/a	n/a	7	48	Fixation	AvoidedLoss	True
461.814	0.24	Lose2	0.6939	0.001	Yes	3.035	-0.001	1.0	GoodResponse	0	0.188	461.002	7	48	Target	AvoidedLoss	True
462.002	0.3	Lose2	0.6939	0.001	Yes	3.035	-0.001	1.0	GoodResponse	0	0.188	n/a	7	48	ButtonPress	AvoidedLoss	True
462.064	0.46	Lose2	0.6939	n/a	Yes	3.035	n/a	n/a	GoodResponse	0	n/a	n/a	7	48	Blank	AvoidedLoss	True
462.514	1.45	Lose2	0.6939	n/a	Yes	3.035	n/a	5.0	GoodResponse	0	0.041	461.555	7	48	Feedback	AvoidedLoss	True
463.963	3.035	Lose2	0.6939	n/a	Yes	3.035	n/a	n/a	GoodResponse	0	0.0	n/a	7	48	ISIslide	AvoidedLoss	True
467.012	0.25	Control	0.7	0.0	Yes	2.888	0.012	n/a	GoodResponse	0	n/a	n/a	7	49	Cue	Neutral	True
467.262	4.0	Control	0.7	0.0	Yes	2.888	0.0	n/a	GoodResponse	0	n/a	n/a	7	49	Fixation	Neutral	True
471.261	0.23	Control	0.7	0.001	Yes	2.888	-0.001	1.0	GoodResponse	0	0.223	470.484	7	49	Target	Neutral	True
471.484	0.3	Control	0.7	0.001	Yes	2.888	-0.001	1.0	GoodResponse	0	0.223	n/a	7	49	ButtonPress	Neutral	True
471.494	0.47	Control	0.7	n/a	Yes	2.888	n/a	n/a	GoodResponse	0	n/a	n/a	7	49	Blank	Neutral	True
471.96	1.45	Control	0.7	n/a	Yes	2.888	n/a	5.0	GoodResponse	0	0.01	470.97	7	49	Feedback	Neutral	True
473.41	2.888	Control	0.7	n/a	Yes	2.888	n/a	n/a	GoodResponse	0	0.0	n/a	7	49	ISIslide	Neutral	True
476.326	0.25	Control	0.6862999999999999	0.0	No	2.774	0.026	n/a	NoResponse	0	n/a	n/a	7	50	Cue	Neutral	True
476.575	4.0	Control	0.6862999999999999	0.001	No	2.774	-0.001	n/a	NoResponse	0	n/a	n/a	7	50	Fixation	Neutral	True
480.574	0.22	Control	0.6862999999999999	0.002	No	2.774	-0.002	1.0	NoResponse	0	0.244	479.818	7	50	Target	Neutral	True
480.807	0.48	Control	0.6862999999999999	n/a	No	2.774	n/a	n/a	NoResponse	0	n/a	n/a	7	50	Blank	Neutral	True
480.818	0.3	Control	0.6862999999999999	0.002	No	2.774	-0.002	1.0	NoResponse	0	0.244	n/a	7	50	ButtonPress	Neutral	True
481.274	1.45	Control	0.6862999999999999	n/a	No	2.774	n/a	5.0	NoResponse	0	0.013	480.287	7	50	Feedback	Neutral	True
482.723	2.774	Control	0.6862999999999999	n/a	No	2.774	n/a	n/a	NoResponse	0	0.0	n/a	7	50	ISIslide	Neutral	True
485.522	0.25	Control	0.6731	0.0	No	2.728	0.022	n/a	NoResponse	0	n/a	n/a	7	51	Cue	Neutral	True
485.772	3.95	Control	0.6731	0.0	No	2.728	0.0	n/a	NoResponse	0	n/a	n/a	7	51	Fixation	Neutral	True
489.721	0.21	Control	0.6731	0.001	No	2.728	-0.001	1.0	NoResponse	0	0.35	489.071	7	51	Target	Neutral	True
489.937	0.49	Control	0.6731	n/a	No	2.728	n/a	n/a	NoResponse	0	n/a	n/a	7	51	Blank	Neutral	True
490.071	0.3	Control	0.6731	0.001	No	2.728	-0.001	1.0	NoResponse	0	0.35	n/a	7	51	ButtonPress	Neutral	True
490.421	1.45	Control	0.6731	n/a	No	2.728	n/a	5.0	NoResponse	0	0.037	489.458	7	51	Feedback	Neutral	True
491.87	2.728	Control	0.6731	n/a	No	2.728	n/a	n/a	NoResponse	0	0.0	n/a	7	51	ISIslide	Neutral	True
494.619	0.25	Control	0.6792	0.0	Yes	2.631	0.019	n/a	GoodResponse	0	n/a	n/a	7	52	Cue	Neutral	True
494.869	4.05	Control	0.6792	0.0	Yes	2.631	0.0	n/a	GoodResponse	0	n/a	n/a	7	52	Fixation	Neutral	True
498.918	0.2	Control	0.6792	0.001	Yes	2.631	-0.001	1.0	GoodResponse	0	0.187	498.105	7	52	Target	Neutral	True
499.105	0.3	Control	0.6792	0.001	Yes	2.631	-0.001	1.0	GoodResponse	0	0.187	n/a	7	52	ButtonPress	Neutral	True
499.117	0.5	Control	0.6792	n/a	Yes	2.631	n/a	n/a	GoodResponse	0	n/a	n/a	7	52	Blank	Neutral	True
499.617	1.45	Control	0.6792	n/a	Yes	2.631	n/a	5.0	GoodResponse	0	0.012	498.629	7	52	Feedback	Neutral	True
501.067	2.631	Control	0.6792	n/a	Yes	2.631	n/a	n/a	GoodResponse	0	0.0	n/a	7	52	ISIslide	Neutral	True
503.716	0.25	Win2	0.6667000000000001	0.0	No	2.934	0.016	n/a	LatePress	0	n/a	n/a	7	53	Cue	MissedWin	True
503.966	4.05	Win2	0.6667000000000001	0.0	No	2.934	0.0	n/a	LatePress	0	n/a	n/a	7	53	Fixation	MissedWin	True
508.014	0.19	Win2	0.6667000000000001	0.002	No	2.934	-0.002	1.0	LatePress	0	0.2	507.214	7	53	Target	MissedWin	True
508.214	0.51	Win2	0.6667000000000001	n/a	No	2.934	n/a	n/a	LatePress	0	n/a	n/a	7	53	Blank	MissedWin	True
508.214	0.3	Win2	0.6667000000000001	0.002	No	2.934	-0.002	1.0	LatePress	0	0.2	n/a	7	53	ButtonPress	MissedWin	True
508.714	1.45	Win2	0.6667000000000001	n/a	No	2.934	n/a	5.0	LatePress	0	0.036	507.75	7	53	Feedback	MissedWin	True
510.164	2.934	Win2	0.6667000000000001	n/a	No	2.934	n/a	n/a	LatePress	0	0.0	n/a	7	53	ISIslide	MissedWin	True
513.113	0.25	Win2	0.6545000000000001	0.0	No	2.737	0.013	n/a	NoResponse	0	n/a	n/a	7	54	Cue	MissedWin	True
513.362	3.95	Win2	0.6545000000000001	0.001	No	2.737	-0.001	n/a	NoResponse	0	n/a	n/a	7	54	Fixation	MissedWin	True
517.311	0.18	Win2	0.6545000000000001	0.002	No	2.737	-0.002	1.0	NoResponse	0	0.256	516.567	7	54	Target	MissedWin	True
517.494	0.52	Win2	0.6545000000000001	n/a	No	2.737	n/a	n/a	NoResponse	0	n/a	n/a	7	54	Blank	MissedWin	True
517.567	0.3	Win2	0.6545000000000001	0.002	No	2.737	-0.002	1.0	NoResponse	0	0.256	n/a	7	54	ButtonPress	MissedWin	True
518.011	1.45	Win2	0.6545000000000001	n/a	No	2.737	n/a	5.0	NoResponse	0	0.007	517.018	7	54	Feedback	MissedWin	True
519.46	2.737	Win2	0.6545000000000001	n/a	No	2.737	n/a	n/a	NoResponse	0	0.0	n/a	7	54	ISIslide	MissedWin	True
522.226	0.25	Control	0.6429	0.0	No	3.024	0.026	n/a	NoResponse	0	n/a	n/a	7	55	Cue	Neutral	True
522.476	3.95	Control	0.6429	0.0	No	3.024	0.0	n/a	NoResponse	0	n/a	n/a	7	55	Fixation	Neutral	True
526.425	0.19	Control	0.6429	0.001	No	3.024	-0.001	1.0	NoResponse	0	0.262	525.687	7	55	Target	Neutral	True
526.624	0.51	Control	0.6429	n/a	No	3.024	n/a	n/a	NoResponse	0	n/a	n/a	7	55	Blank	Neutral	True
526.687	0.3	Control	0.6429	0.001	No	3.024	-0.001	1.0	NoResponse	0	0.262	n/a	7	55	ButtonPress	Neutral	True
527.124	1.45	Control	0.6429	n/a	No	3.024	n/a	5.0	NoResponse	0	0.016	526.14	7	55	Feedback	Neutral	True
528.574	3.024	Control	0.6429	n/a	No	3.024	n/a	n/a	NoResponse	0	0.0	n/a	7	55	ISIslide	Neutral	True
531.623	0.25	Control	0.6315999999999999	0.0	No	2.827	0.023	n/a	NoResponse	0	n/a	n/a	7	56	Cue	Neutral	True
531.873	3.95	Control	0.6315999999999999	0.0	No	2.827	0.0	n/a	NoResponse	0	n/a	n/a	7	56	Fixation	Neutral	True
535.821	0.2	Control	0.6315999999999999	0.002	No	2.827	-0.002	1.0	NoResponse	0	0.211	535.032	7	56	Target	Neutral	True
536.021	0.5	Control	0.6315999999999999	n/a	No	2.827	n/a	n/a	NoResponse	0	n/a	n/a	7	56	Blank	Neutral	True
536.032	0.3	Control	0.6315999999999999	0.002	No	2.827	-0.002	1.0	NoResponse	0	0.211	n/a	7	56	ButtonPress	Neutral	True
536.521	1.45	Control	0.6315999999999999	n/a	No	2.827	n/a	5.0	NoResponse	0	0.034	535.555	7	56	Feedback	Neutral	True
537.97	2.827	Control	0.6315999999999999	n/a	No	2.827	n/a	n/a	NoResponse	0	0.0	n/a	7	56	ISIslide	Neutral	True
540.819	0.25	Control	0.6379	0.001	Yes	3.481	0.019	n/a	GoodResponse	0	n/a	n/a	7	57	Cue	Neutral	True
541.069	4.0	Control	0.6379	0.0	Yes	3.481	0.0	n/a	GoodResponse	0	n/a	n/a	7	57	Fixation	Neutral	True
545.068	0.21	Control	0.6379	0.001	Yes	3.481	-0.001	1.0	GoodResponse	0	0.192	544.26	7	57	Target	Neutral	True
545.26	0.3	Control	0.6379	0.001	Yes	3.481	-0.001	1.0	GoodResponse	0	0.192	n/a	7	57	ButtonPress	Neutral	True
545.285	0.49	Control	0.6379	n/a	Yes	3.481	n/a	n/a	GoodResponse	0	n/a	n/a	7	57	Blank	Neutral	True
545.768	1.45	Control	0.6379	n/a	Yes	3.481	n/a	5.0	GoodResponse	0	0.006	544.774	7	57	Feedback	Neutral	True
547.217	3.481	Control	0.6379	n/a	Yes	3.481	n/a	n/a	GoodResponse	0	0.0	n/a	7	57	ISIslide	Neutral	True
550.716	0.25	Win2	0.6441	0.0	Yes	2.734	0.016	n/a	GoodResponse	1	n/a	n/a	8	58	Cue	Win	True
550.966	4.05	Win2	0.6441	0.0	Yes	2.734	0.0	n/a	GoodResponse	1	n/a	n/a	8	58	Fixation	Win	True
555.014	0.22	Win2	0.6441	0.002	Yes	2.734	-0.002	1.0	GoodResponse	1	0.186	554.2	8	58	Target	Win	True
555.2	0.3	Win2	0.6441	0.002	Yes	2.734	-0.002	1.0	GoodResponse	1	0.186	n/a	8	58	ButtonPress	Win	True
555.248	0.48	Win2	0.6441	n/a	Yes	2.734	n/a	n/a	GoodResponse	1	n/a	n/a	8	58	Blank	Win	True
555.714	1.45	Win2	0.6441	n/a	Yes	2.734	n/a	5.0	GoodResponse	1	0.011	554.725	8	58	Feedback	Win	True
557.164	2.734	Win2	0.6441	n/a	Yes	2.734	n/a	n/a	GoodResponse	1	0.0	n/a	8	58	ISIslide	Win	True
559.913	0.25	Lose2	0.65	0.0	Yes	2.687	0.013	n/a	GoodResponse	0	n/a	n/a	8	59	Cue	AvoidedLoss	True
560.163	4.0	Lose2	0.65	0.0	Yes	2.687	0.0	n/a	GoodResponse	0	n/a	n/a	8	59	Fixation	AvoidedLoss	True
564.161	0.23	Lose2	0.65	0.002	Yes	2.687	-0.002	1.0	GoodResponse	0	0.205	563.366	8	59	Target	AvoidedLoss	True
564.366	0.3	Lose2	0.65	0.002	Yes	2.687	-0.002	1.0	GoodResponse	0	0.205	n/a	8	59	ButtonPress	AvoidedLoss	True
564.394	0.47	Lose2	0.65	n/a	Yes	2.687	n/a	n/a	GoodResponse	0	n/a	n/a	8	59	Blank	AvoidedLoss	True
564.861	1.45	Lose2	0.65	n/a	Yes	2.687	n/a	5.0	GoodResponse	0	0.035	563.896	8	59	Feedback	AvoidedLoss	True
566.31	2.687	Lose2	0.65	n/a	Yes	2.687	n/a	n/a	GoodResponse	0	0.0	n/a	8	59	ISIslide	AvoidedLoss	True
569.026	0.25	Control	0.6557	0.0	Yes	2.674	0.026	n/a	GoodResponse	0	n/a	n/a	8	60	Cue	Neutral	True
569.276	4.0	Control	0.6557	0.0	Yes	2.674	0.0	n/a	GoodResponse	0	n/a	n/a	8	60	Fixation	Neutral	True
573.275	0.24	Control	0.6557	0.001	Yes	2.674	-0.001	1.0	GoodResponse	0	0.191	572.466	8	60	Target	Neutral	True
573.466	0.3	Control	0.6557	0.001	Yes	2.674	-0.001	1.0	GoodResponse	0	0.191	n/a	8	60	ButtonPress	Neutral	True
573.525	0.46	Control	0.6557	n/a	Yes	2.674	n/a	n/a	GoodResponse	0	n/a	n/a	8	60	Blank	Neutral	True
573.974	1.45	Control	0.6557	n/a	Yes	2.674	n/a	5.0	GoodResponse	0	0.044	573.018	8	60	Feedback	Neutral	True
575.424	2.674	Control	0.6557	n/a	Yes	2.674	n/a	n/a	GoodResponse	0	0.0	n/a	8	60	ISIslide	Neutral	True
578.123	0.25	Lose2	0.6613	0.0	Yes	2.977	0.023	n/a	GoodResponse	0	n/a	n/a	8	61	Cue	AvoidedLoss	True
578.373	4.0	Lose2	0.6613	0.0	Yes	2.977	0.0	n/a	GoodResponse	0	n/a	n/a	8	61	Fixation	AvoidedLoss	True
582.371	0.24	Lose2	0.6613	0.002	Yes	2.977	-0.002	1.0	GoodResponse	0	0.187	581.558	8	61	Target	AvoidedLoss	True
582.558	0.3	Lose2	0.6613	0.002	Yes	2.977	-0.002	1.0	GoodResponse	0	0.187	n/a	8	61	ButtonPress	AvoidedLoss	True
582.621	0.46	Lose2	0.6613	n/a	Yes	2.977	n/a	n/a	GoodResponse	0	n/a	n/a	8	61	Blank	AvoidedLoss	True
583.071	1.45	Lose2	0.6613	n/a	Yes	2.977	n/a	5.0	GoodResponse	0	0.02	582.091	8	61	Feedback	AvoidedLoss	True
584.521	2.977	Lose2	0.6613	n/a	Yes	2.977	n/a	n/a	GoodResponse	0	0.0	n/a	8	61	ISIslide	AvoidedLoss	True
587.52	0.25	Lose2	0.6667000000000001	0.0	Yes	2.88	0.02	n/a	GoodResponse	0	n/a	n/a	8	62	Cue	AvoidedLoss	True
587.77	3.9	Lose2	0.6667000000000001	0.0	Yes	2.88	0.0	n/a	GoodResponse	0	n/a	n/a	8	62	Fixation	AvoidedLoss	True
591.668	0.24	Lose2	0.6667000000000001	0.002	Yes	2.88	-0.002	1.0	GoodResponse	0	0.231	590.899	8	62	Target	AvoidedLoss	True
591.899	0.3	Lose2	0.6667000000000001	0.002	Yes	2.88	-0.002	1.0	GoodResponse	0	0.231	n/a	8	62	ButtonPress	AvoidedLoss	True
591.918	0.46	Lose2	0.6667000000000001	n/a	Yes	2.88	n/a	n/a	GoodResponse	0	n/a	n/a	8	62	Blank	AvoidedLoss	True
592.368	1.45	Lose2	0.6667000000000001	n/a	Yes	2.88	n/a	5.0	GoodResponse	0	0.039	591.407	8	62	Feedback	AvoidedLoss	True
593.817	2.88	Lose2	0.6667000000000001	n/a	Yes	2.88	n/a	n/a	GoodResponse	0	0.0	n/a	8	62	ISIslide	AvoidedLoss	True
596.716	0.25	Lose2	0.6718999999999999	0.001	Yes	2.634	0.016	n/a	GoodResponse	0	n/a	n/a	8	63	Cue	AvoidedLoss	True
596.966	4.05	Lose2	0.6718999999999999	0.0	Yes	2.634	0.0	n/a	GoodResponse	0	n/a	n/a	8	63	Fixation	AvoidedLoss	True
601.015	0.23	Lose2	0.6718999999999999	0.001	Yes	2.634	-0.001	1.0	GoodResponse	0	0.167	600.182	8	63	Target	AvoidedLoss	True
601.182	0.3	Lose2	0.6718999999999999	0.001	Yes	2.634	-0.001	1.0	GoodResponse	0	0.167	n/a	8	63	ButtonPress	AvoidedLoss	True
601.248	0.47	Lose2	0.6718999999999999	n/a	Yes	2.634	n/a	n/a	GoodResponse	0	n/a	n/a	8	63	Blank	AvoidedLoss	True
601.715	1.45	Lose2	0.6718999999999999	n/a	Yes	2.634	n/a	5.0	GoodResponse	0	0.01	600.725	8	63	Feedback	AvoidedLoss	True
603.164	2.634	Lose2	0.6718999999999999	n/a	Yes	2.634	n/a	n/a	GoodResponse	0	0.0	n/a	8	63	ISIslide	AvoidedLoss	True
605.813	0.25	Win2	0.6769	0.0	Yes	3.137	0.013	n/a	GoodResponse	1	n/a	n/a	9	64	Cue	Win	True
606.063	4.15	Win2	0.6769	0.0	Yes	3.137	0.0	n/a	GoodResponse	1	n/a	n/a	9	64	Fixation	Win	True
610.212	0.22	Win2	0.6769	0.001	Yes	3.137	-0.001	1.0	GoodResponse	1	0.174	609.386	9	64	Target	Win	True
610.386	0.3	Win2	0.6769	0.001	Yes	3.137	-0.001	1.0	GoodResponse	1	0.174	n/a	9	64	ButtonPress	Win	True
610.445	0.48	Win2	0.6769	n/a	Yes	3.137	n/a	n/a	GoodResponse	1	n/a	n/a	9	64	Blank	Win	True
610.911	1.45	Win2	0.6769	n/a	Yes	3.137	n/a	5.0	GoodResponse	1	0.033	609.944	9	64	Feedback	Win	True
612.361	3.137	Win2	0.6769	n/a	Yes	3.137	n/a	n/a	GoodResponse	1	0.0	n/a	9	64	ISIslide	Win	True
615.526	0.25	Control	0.6818000000000001	0.001	Yes	2.774	0.026	n/a	GoodResponse	0	n/a	n/a	9	65	Cue	Neutral	True
615.776	4.0	Control	0.6818000000000001	0.0	Yes	2.774	0.0	n/a	GoodResponse	0	n/a	n/a	9	65	Fixation	Neutral	True
619.775	0.21	Control	0.6818000000000001	0.001	Yes	2.774	-0.001	1.0	GoodResponse	0	0.206	618.981	9	65	Target	Neutral	True
619.981	0.3	Control	0.6818000000000001	0.001	Yes	2.774	-0.001	1.0	GoodResponse	0	0.206	n/a	9	65	ButtonPress	Neutral	True
619.992	0.49	Control	0.6818000000000001	n/a	Yes	2.774	n/a	n/a	GoodResponse	0	n/a	n/a	9	65	Blank	Neutral	True
620.475	1.45	Control	0.6818000000000001	n/a	Yes	2.774	n/a	5.0	GoodResponse	0	0.03	619.505	9	65	Feedback	Neutral	True
621.924	2.774	Control	0.6818000000000001	n/a	Yes	2.774	n/a	n/a	GoodResponse	0	0.0	n/a	9	65	ISIslide	Neutral	True
624.723	0.25	Win2	0.6866	0.0	Yes	2.777	0.023	n/a	GoodResponse	1	n/a	n/a	10	66	Cue	Win	True
624.973	3.9	Win2	0.6866	0.0	Yes	2.777	0.0	n/a	GoodResponse	1	n/a	n/a	10	66	Fixation	Win	True
628.872	0.2	Win2	0.6866	0.001	Yes	2.777	-0.001	1.0	GoodResponse	1	0.192	628.064	10	66	Target	Win	True
629.064	0.3	Win2	0.6866	0.001	Yes	2.777	-0.001	1.0	GoodResponse	1	0.192	n/a	10	66	ButtonPress	Win	True
629.072	0.5	Win2	0.6866	n/a	Yes	2.777	n/a	n/a	GoodResponse	1	n/a	n/a	10	66	Blank	Win	True
629.572	1.45	Win2	0.6866	n/a	Yes	2.777	n/a	5.0	GoodResponse	1	0.006	628.578	10	66	Feedback	Win	True
631.021	2.777	Win2	0.6866	n/a	Yes	2.777	n/a	n/a	GoodResponse	1	0.0	n/a	10	66	ISIslide	Win	True
633.82	0.25	Control	0.6765000000000001	0.0	No	2.73	0.02	n/a	NoResponse	0	n/a	n/a	10	67	Cue	Neutral	True
634.07	3.95	Control	0.6765000000000001	0.0	No	2.73	0.0	n/a	NoResponse	0	n/a	n/a	10	67	Fixation	Neutral	True
638.019	0.19	Control	0.6765000000000001	0.001	No	2.73	-0.001	1.0	NoResponse	0	0.207	637.226	10	67	Target	Neutral	True
638.218	0.51	Control	0.6765000000000001	n/a	No	2.73	n/a	n/a	NoResponse	0	n/a	n/a	10	67	Blank	Neutral	True
638.226	0.3	Control	0.6765000000000001	0.001	No	2.73	-0.001	1.0	NoResponse	0	0.207	n/a	10	67	ButtonPress	Neutral	True
638.718	1.45	Control	0.6765000000000001	n/a	No	2.73	n/a	5.0	NoResponse	0	0.03	637.748	10	67	Feedback	Neutral	True
640.168	2.73	Control	0.6765000000000001	n/a	No	2.73	n/a	n/a	NoResponse	0	0.0	n/a	10	67	ISIslide	Neutral	True
642.917	0.25	Win2	0.6812	0.0	Yes	3.083	0.017	n/a	GoodResponse	1	n/a	n/a	11	68	Cue	Win	True
643.167	4.0	Win2	0.6812	0.0	Yes	3.083	0.0	n/a	GoodResponse	1	n/a	n/a	11	68	Fixation	Win	True
647.165	0.18	Win2	0.6812	0.002	Yes	3.083	-0.002	1.0	GoodResponse	1	0.179	646.344	11	68	Target	Win	True
647.344	0.3	Win2	0.6812	0.002	Yes	3.083	-0.002	1.0	GoodResponse	1	0.179	n/a	11	68	ButtonPress	Win	True
647.349	0.52	Win2	0.6812	n/a	Yes	3.083	n/a	n/a	GoodResponse	1	n/a	n/a	11	68	Blank	Win	True
647.865	1.45	Win2	0.6812	n/a	Yes	3.083	n/a	5.0	GoodResponse	1	0.005	646.87	11	68	Feedback	Win	True
649.315	3.083	Win2	0.6812	n/a	Yes	3.083	n/a	n/a	GoodResponse	1	0.0	n/a	11	68	ISIslide	Win	True
652.413	0.25	Win2	0.6714	0.001	No	3.237	0.013	n/a	NoResponse	0	n/a	n/a	11	69	Cue	MissedWin	True
652.663	3.95	Win2	0.6714	0.0	No	3.237	0.0	n/a	NoResponse	0	n/a	n/a	11	69	Fixation	MissedWin	True
656.612	0.17	Win2	0.6714	0.001	No	3.237	-0.001	1.0	NoResponse	0	0.22	655.832	11	69	Target	MissedWin	True
656.779	0.53	Win2	0.6714	n/a	No	3.237	n/a	n/a	NoResponse	0	n/a	n/a	11	69	Blank	MissedWin	True
656.832	0.3	Win2	0.6714	0.001	No	3.237	-0.001	1.0	NoResponse	0	0.22	n/a	11	69	ButtonPress	MissedWin	True
657.312	1.45	Win2	0.6714	n/a	No	3.237	n/a	5.0	NoResponse	0	0.022	656.334	11	69	Feedback	MissedWin	True
658.761	3.237	Win2	0.6714	n/a	No	3.237	n/a	n/a	NoResponse	0	0.0	n/a	11	69	ISIslide	MissedWin	True
662.027	0.25	Lose2	0.662	0.0	No	3.023	0.027	n/a	NoResponse	-1	n/a	n/a	10	70	Cue	Loss	True
662.277	4.05	Lose2	0.662	0.0	No	3.023	0.0	n/a	NoResponse	-1	n/a	n/a	10	70	Fixation	Loss	True
666.325	0.16	Lose2	0.662	0.002	No	3.023	-0.002	1.0	NoResponse	-1	0.182	665.507	10	70	Target	Loss	True
666.492	0.54	Lose2	0.662	n/a	No	3.023	n/a	n/a	NoResponse	-1	n/a	n/a	10	70	Blank	Loss	True
666.507	0.3	Lose2	0.662	0.002	No	3.023	-0.002	1.0	NoResponse	-1	0.182	n/a	10	70	ButtonPress	Loss	True
667.025	1.45	Lose2	0.662	n/a	No	3.023	n/a	5.0	NoResponse	-1	0.016	666.041	10	70	Feedback	Loss	True
668.474	3.023	Lose2	0.662	n/a	No	3.023	n/a	n/a	NoResponse	-1	0.0	n/a	10	70	ISIslide	Loss	True
671.523	0.25	Win2	0.6528	0.0	No	2.727	0.023	n/a	NoResponse	0	n/a	n/a	10	71	Cue	MissedWin	True
671.773	4.05	Win2	0.6528	0.0	No	2.727	0.0	n/a	NoResponse	0	n/a	n/a	10	71	Fixation	MissedWin	True
675.822	0.16	Win2	0.6528	0.001	No	2.727	-0.001	1.0	NoResponse	0	0.187	675.009	10	71	Target	MissedWin	True
675.989	0.54	Win2	0.6528	n/a	No	2.727	n/a	n/a	NoResponse	0	n/a	n/a	10	71	Blank	MissedWin	True
676.009	0.3	Win2	0.6528	0.001	No	2.727	-0.001	1.0	NoResponse	0	0.187	n/a	10	71	ButtonPress	MissedWin	True
676.522	1.45	Win2	0.6528	n/a	No	2.727	n/a	5.0	NoResponse	0	0.031	675.553	10	71	Feedback	MissedWin	True
677.971	2.727	Win2	0.6528	n/a	No	2.727	n/a	n/a	NoResponse	0	0.0	n/a	10	71	ISIslide	MissedWin	True
680.72	0.25	Win2	0.6437999999999999	0.0	No	2.78	0.02	n/a	NoResponse	0	n/a	n/a	10	72	Cue	MissedWin	True
680.97	4.1	Win2	0.6437999999999999	0.0	No	2.78	0.0	n/a	NoResponse	0	n/a	n/a	10	72	Fixation	MissedWin	True
685.069	0.17	Win2	0.6437999999999999	0.001	No	2.78	-0.001	1.0	NoResponse	0	0.198	684.267	10	72	Target	MissedWin	True
685.252	0.53	Win2	0.6437999999999999	n/a	No	2.78	n/a	n/a	NoResponse	0	n/a	n/a	10	72	Blank	MissedWin	True
685.267	0.3	Win2	0.6437999999999999	0.001	No	2.78	-0.001	1.0	NoResponse	0	0.198	n/a	10	72	ButtonPress	MissedWin	True
685.768	1.45	Win2	0.6437999999999999	n/a	No	2.78	n/a	5.0	NoResponse	0	0.005	684.773	10	72	Feedback	MissedWin	True
687.218	2.78	Win2	0.6437999999999999	n/a	No	2.78	n/a	n/a	NoResponse	0	0.0	n/a	10	72	ISIslide	MissedWin	True
690.017	0.25	Win2	0.6486	0.0	Yes	2.683	0.017	n/a	GoodResponse	1	n/a	n/a	11	73	Cue	Win	True
690.267	4.0	Win2	0.6486	0.0	Yes	2.683	0.0	n/a	GoodResponse	1	n/a	n/a	11	73	Fixation	Win	True
694.265	0.18	Win2	0.6486	0.002	Yes	2.683	-0.002	1.0	GoodResponse	1	0.174	693.439	11	73	Target	Win	True
694.439	0.3	Win2	0.6486	0.002	Yes	2.683	-0.002	1.0	GoodResponse	1	0.174	n/a	11	73	ButtonPress	Win	True
694.449	0.52	Win2	0.6486	n/a	Yes	2.683	n/a	n/a	GoodResponse	1	n/a	n/a	11	73	Blank	Win	True
694.965	1.45	Win2	0.6486	n/a	Yes	2.683	n/a	5.0	GoodResponse	1	0.027	693.992	11	73	Feedback	Win	True
696.415	2.683	Win2	0.6486	n/a	Yes	2.683	n/a	n/a	GoodResponse	1	0.0	n/a	11	73	ISIslide	Win	True
699.114	0.25	Lose2	0.6533	0.0	Yes	2.636	0.014	n/a	GoodResponse	0	n/a	n/a	11	74	Cue	AvoidedLoss	True
699.364	4.05	Lose2	0.6533	0.0	Yes	2.636	0.0	n/a	GoodResponse	0	n/a	n/a	11	74	Fixation	AvoidedLoss	True
703.412	0.19	Lose2	0.6533	0.002	Yes	2.636	-0.002	1.0	GoodResponse	0	0.182	702.594	11	74	Target	AvoidedLoss	True
703.594	0.3	Lose2	0.6533	0.002	Yes	2.636	-0.002	1.0	GoodResponse	0	0.182	n/a	11	74	ButtonPress	AvoidedLoss	True
703.612	0.51	Lose2	0.6533	n/a	Yes	2.636	n/a	n/a	GoodResponse	0	n/a	n/a	11	74	Blank	AvoidedLoss	True
704.112	1.45	Lose2	0.6533	n/a	Yes	2.636	n/a	5.0	GoodResponse	0	0.002	703.114	11	74	Feedback	AvoidedLoss	True
705.561	2.636	Lose2	0.6533	n/a	Yes	2.636	n/a	n/a	GoodResponse	0	0.0	n/a	11	74	ISIslide	AvoidedLoss	True
708.227	0.25	Lose2	0.6446999999999999	0.0	No	2.923	0.027	n/a	NoResponse	-1	n/a	n/a	10	75	Cue	Loss	True
708.477	3.95	Lose2	0.6446999999999999	0.0	No	2.923	0.0	n/a	NoResponse	-1	n/a	n/a	10	75	Fixation	Loss	True
712.426	0.2	Lose2	0.6446999999999999	0.001	No	2.923	-0.001	1.0	NoResponse	-1	0.214	711.64	10	75	Target	Loss	True
712.626	0.5	Lose2	0.6446999999999999	n/a	No	2.923	n/a	n/a	NoResponse	-1	n/a	n/a	10	75	Blank	Loss	True
712.64	0.3	Lose2	0.6446999999999999	0.001	No	2.923	-0.001	1.0	NoResponse	-1	0.214	n/a	10	75	ButtonPress	Loss	True
713.125	1.45	Lose2	0.6446999999999999	n/a	No	2.923	n/a	5.0	NoResponse	-1	0.014	712.139	10	75	Feedback	Loss	True
714.575	2.923	Lose2	0.6446999999999999	n/a	No	2.923	n/a	n/a	NoResponse	-1	0.0	n/a	10	75	ISIslide	Loss	True
717.524	0.25	Control	0.6364	0.0	No	3.226	0.024	n/a	NoResponse	0	n/a	n/a	10	76	Cue	Neutral	True
717.774	4.05	Control	0.6364	0.0	No	3.226	0.0	n/a	NoResponse	0	n/a	n/a	10	76	Fixation	Neutral	True
721.822	0.21	Control	0.6364	0.002	No	3.226	-0.002	1.0	NoResponse	0	0.222	721.044	10	76	Target	Neutral	True
722.039	0.49	Control	0.6364	n/a	No	3.226	n/a	n/a	NoResponse	0	n/a	n/a	10	76	Blank	Neutral	True
722.044	0.3	Control	0.6364	0.002	No	3.226	-0.002	1.0	NoResponse	0	0.222	n/a	10	76	ButtonPress	Neutral	True
722.522	1.45	Control	0.6364	n/a	No	3.226	n/a	5.0	NoResponse	0	0.03	721.552	10	76	Feedback	Neutral	True
723.972	3.226	Control	0.6364	n/a	No	3.226	n/a	n/a	NoResponse	0	0.0	n/a	10	76	ISIslide	Neutral	True
727.22	0.25	Lose2	0.6409999999999999	0.001	Yes	2.58	0.02	n/a	GoodResponse	0	n/a	n/a	10	77	Cue	AvoidedLoss	True
727.47	3.95	Lose2	0.6409999999999999	0.0	Yes	2.58	0.0	n/a	GoodResponse	0	n/a	n/a	10	77	Fixation	AvoidedLoss	True
731.419	0.22	Lose2	0.6409999999999999	0.001	Yes	2.58	-0.001	1.0	GoodResponse	0	0.161	730.58	10	77	Target	AvoidedLoss	True
731.58	0.3	Lose2	0.6409999999999999	0.001	Yes	2.58	-0.001	1.0	GoodResponse	0	0.161	n/a	10	77	ButtonPress	AvoidedLoss	True
731.636	0.48	Lose2	0.6409999999999999	n/a	Yes	2.58	n/a	n/a	GoodResponse	0	n/a	n/a	10	77	Blank	AvoidedLoss	True
732.119	1.45	Lose2	0.6409999999999999	n/a	Yes	2.58	n/a	5.0	GoodResponse	0	0.043	731.162	10	77	Feedback	AvoidedLoss	True
733.568	2.58	Lose2	0.6409999999999999	n/a	Yes	2.58	n/a	n/a	GoodResponse	0	0.0	n/a	10	77	ISIslide	AvoidedLoss	True
