onset	duration	cue_type	current_mean_accuracy	duration_error	is_hit	isi_adjusted	onset_delay	response	response_type	reward	rt	rt_time	total_reward	trial_number	trial_phase	trial_type	one_press
11.105	0.25	Control	1.0	0.0	Yes	2.945	0.005	n/a	GoodResponse	0	n/a	n/a	0	0	Cue	Neutral	True
11.355	3.85	Control	1.0	0.0	Yes	2.945	0.0	n/a	GoodResponse	0	n/a	n/a	0	0	Fixation	Neutral	True
15.217	0.4	Control	1.0	0.0	Yes	2.945	0.012	2.0	GoodResponse	0	0.203	14.42	0	0	Target	Neutral	True
15.42	0.3	Control	1.0	0.0	Yes	2.945	0.012	2.0	GoodResponse	0	0.203	n/a	0	0	ButtonPress	Neutral	True
15.601	0.3	Control	1.0	n/a	Yes	2.945	n/a	n/a	GoodResponse	0	n/a	n/a	0	0	Blank	Neutral	True
15.902	1.45	Control	1.0	n/a	Yes	2.945	n/a	5.0	GoodResponse	0	0.025	14.927	0	0	Feedback	Neutral	True
17.357	2.945	Control	1.0	n/a	Yes	2.945	n/a	n/a	GoodResponse	0	0.0	n/a	0	0	ISIslide	Neutral	True
20.316	0.25	Lose2	1.0	0.0	Yes	2.784	0.016	n/a	GoodResponse	0	n/a	n/a	0	1	Cue	AvoidedLoss	False
20.566	4.0	Lose2	1.0	0.0	Yes	2.784	0.0	2.0	GoodResponse	0	0.022	19.588	0	1	Fixation	AvoidedLoss	False
20.588	0.3	Lose2	1.0	0.0	Yes	2.784	0.0	2.0	GoodResponse	0	0.022	n/a	0	1	ButtonPress	AvoidedLoss	False
24.562	0.39	Lose2	1.0	0.004	Yes	2.784	-0.004	2.0	GoodResponse	0	0.196	23.758	0	1	Target	AvoidedLoss	False
24.758	0.3	Lose2	1.0	0.004	Yes	2.784	-0.004	2.0	GoodResponse	0	0.196	n/a	0	1	ButtonPress	AvoidedLoss	False
24.963	0.31	Lose2	1.0	n/a	Yes	2.784	n/a	n/a	GoodResponse	0	n/a	n/a	0	1	Blank	AvoidedLoss	False
25.264	1.45	Lose2	1.0	n/a	Yes	2.784	n/a	5.0	GoodResponse	0	0.029	24.293	0	1	Feedback	AvoidedLoss	False
26.718	2.784	Lose2	1.0	n/a	Yes	2.784	n/a	n/a	GoodResponse	0	0.0	n/a	0	1	ISIslide	AvoidedLoss	False
29.526	0.25	Control	1.0	0.001	Yes	2.574	0.026	n/a	GoodResponse	0	n/a	n/a	0	2	Cue	Neutral	True
29.777	4.1	Control	1.0	0.0	Yes	2.574	0.001	n/a	GoodResponse	0	n/a	n/a	0	2	Fixation	Neutral	True
33.873	0.38	Control	1.0	0.003	Yes	2.574	-0.003	2.0	GoodResponse	0	0.194	33.067	0	2	Target	Neutral	True
34.067	0.3	Control	1.0	0.003	Yes	2.574	-0.003	2.0	GoodResponse	0	0.194	n/a	0	2	ButtonPress	Neutral	True
34.257	0.32	Control	1.0	n/a	Yes	2.574	n/a	n/a	GoodResponse	0	n/a	n/a	0	2	Blank	Neutral	True
34.575	1.45	Control	1.0	n/a	Yes	2.574	n/a	5.0	GoodResponse	0	0.034	33.609	0	2	Feedback	Neutral	True
36.029	2.574	Control	1.0	n/a	Yes	2.574	n/a	n/a	GoodResponse	0	0.0	n/a	0	2	ISIslide	Neutral	True
38.62	0.25	Win2	1.0	0.0	Yes	2.83	0.02	n/a	GoodResponse	1	n/a	n/a	1	3	Cue	Win	True
38.871	3.95	Win2	1.0	0.0	Yes	2.83	0.001	n/a	GoodResponse	1	n/a	n/a	1	3	Fixation	Win	True
42.816	0.37	Win2	1.0	0.004	Yes	2.83	-0.004	2.0	GoodResponse	1	0.192	42.008	1	3	Target	Win	True
43.008	0.3	Win2	1.0	0.004	Yes	2.83	-0.004	2.0	GoodResponse	1	0.192	n/a	1	3	ButtonPress	Win	True
43.201	0.33	Win2	1.0	n/a	Yes	2.83	n/a	n/a	GoodResponse	1	n/a	n/a	1	3	Blank	Win	True
43.518	1.45	Win2	1.0	n/a	Yes	2.83	n/a	5.0	GoodResponse	1	0.018	42.536	1	3	Feedback	Win	True
44.973	2.83	Win2	1.0	n/a	Yes	2.83	n/a	n/a	GoodResponse	1	0.0	n/a	1	3	ISIslide	Win	True
47.831	0.25	Win2	1.0	0.0	Yes	3.269	0.031	n/a	GoodResponse	1	n/a	n/a	2	4	Cue	Win	True
48.082	4.0	Win2	1.0	0.0	Yes	3.269	0.001	n/a	GoodResponse	1	n/a	n/a	2	4	Fixation	Win	True
52.077	0.36	Win2	1.0	0.004	Yes	3.269	-0.004	2.0	GoodResponse	1	0.214	51.291	2	4	Target	Win	True
52.291	0.3	Win2	1.0	0.004	Yes	3.269	-0.004	2.0	GoodResponse	1	0.214	n/a	2	4	ButtonPress	Win	True
52.445	0.34	Win2	1.0	n/a	Yes	3.269	n/a	n/a	GoodResponse	1	n/a	n/a	2	4	Blank	Win	True
52.779	1.45	Win2	1.0	n/a	Yes	3.269	n/a	5.0	GoodResponse	1	0.025	51.804	2	4	Feedback	Win	True
54.234	3.269	Win2	1.0	n/a	Yes	3.269	n/a	n/a	GoodResponse	1	0.0	n/a	2	4	ISIslide	Win	True
57.527	0.25	Win2	0.8332999999999999	0.0	No	2.773	0.027	n/a	NoResponse	0	n/a	n/a	2	5	Cue	MissedWin	False
57.778	4.0	Win2	0.8332999999999999	0.0	No	2.773	0.001	n/a	NoResponse	0	n/a	n/a	2	5	Fixation	MissedWin	False
61.773	0.35	Win2	0.8332999999999999	0.004	No	2.773	-0.004	n/a	NoResponse	0	n/a	n/a	2	5	Target	MissedWin	False
62.124	0.35	Win2	0.8332999999999999	n/a	No	2.773	n/a	n/a	NoResponse	0	n/a	n/a	2	5	Blank	MissedWin	False
62.475	1.45	Win2	0.8332999999999999	n/a	No	2.773	n/a	5.0	NoResponse	0	0.037	61.512	2	5	Feedback	MissedWin	False
63.93	2.773	Win2	0.8332999999999999	n/a	No	2.773	n/a	n/a	NoResponse	0	0.0	n/a	2	5	ISIslide	MissedWin	False
66.721	0.25	Lose2	0.8571	0.0	Yes	2.729	0.021	n/a	GoodResponse	0	n/a	n/a	2	6	Cue	AvoidedLoss	True
66.972	3.95	Lose2	0.8571	0.0	Yes	2.729	0.001	n/a	GoodResponse	0	n/a	n/a	2	6	Fixation	AvoidedLoss	True
70.917	0.34	Lose2	0.8571	0.004	Yes	2.729	-0.004	2.0	GoodResponse	0	0.192	70.109	2	6	Target	AvoidedLoss	True
71.109	0.3	Lose2	0.8571	0.004	Yes	2.729	-0.004	2.0	GoodResponse	0	0.192	n/a	2	6	ButtonPress	AvoidedLoss	True
71.268	0.36	Lose2	0.8571	n/a	Yes	2.729	n/a	n/a	GoodResponse	0	n/a	n/a	2	6	Blank	AvoidedLoss	True
71.619	1.45	Lose2	0.8571	n/a	Yes	2.729	n/a	5.0	GoodResponse	0	0.015	70.634	2	6	Feedback	AvoidedLoss	True
73.074	2.729	Lose2	0.8571	n/a	Yes	2.729	n/a	n/a	GoodResponse	0	0.0	n/a	2	6	ISIslide	AvoidedLoss	True
75.832	0.25	Lose2	0.75	0.0	No	4.018	0.032	n/a	NoResponse	-1	n/a	n/a	1	7	Cue	Loss	True
76.083	4.05	Lose2	0.75	0.0	No	4.018	0.001	n/a	NoResponse	-1	n/a	n/a	1	7	Fixation	Loss	True
80.128	0.33	Lose2	0.75	0.004	No	4.018	-0.004	2.0	NoResponse	-1	0.413	79.541	1	7	Target	Loss	True
80.462	0.37	Lose2	0.75	n/a	No	4.018	n/a	n/a	NoResponse	-1	n/a	n/a	1	7	Blank	Loss	True
80.541	0.3	Lose2	0.75	0.004	No	4.018	-0.004	2.0	NoResponse	-1	0.413	n/a	1	7	ButtonPress	Loss	True
80.83	1.45	Lose2	0.75	n/a	No	4.018	n/a	5.0	NoResponse	-1	0.024	79.854	1	7	Feedback	Loss	True
82.285	4.018	Lose2	0.75	n/a	No	4.018	n/a	n/a	NoResponse	-1	0.0	n/a	1	7	ISIslide	Loss	True
86.33	0.25	Lose2	0.7778	0.0	Yes	3.02	0.03	n/a	GoodResponse	0	n/a	n/a	1	8	Cue	AvoidedLoss	True
86.581	3.95	Lose2	0.7778	0.0	Yes	3.02	0.001	n/a	GoodResponse	0	n/a	n/a	1	8	Fixation	AvoidedLoss	True
90.526	0.32	Lose2	0.7778	0.004	Yes	3.02	-0.004	2.0	GoodResponse	0	0.212	89.738	1	8	Target	AvoidedLoss	True
90.738	0.3	Lose2	0.7778	0.004	Yes	3.02	-0.004	2.0	GoodResponse	0	0.212	n/a	1	8	ButtonPress	AvoidedLoss	True
90.86	0.38	Lose2	0.7778	n/a	Yes	3.02	n/a	n/a	GoodResponse	0	n/a	n/a	1	8	Blank	AvoidedLoss	True
91.228	1.45	Lose2	0.7778	n/a	Yes	3.02	n/a	5.0	GoodResponse	0	0.015	90.243	1	8	Feedback	AvoidedLoss	True
92.682	3.02	Lose2	0.7778	n/a	Yes	3.02	n/a	n/a	GoodResponse	0	0.0	n/a	1	8	ISIslide	AvoidedLoss	True
95.725	0.25	Lose2	0.7	0.0	No	3.125	0.025	n/a	NoResponse	-1	n/a	n/a	0	9	Cue	Loss	True
95.976	3.95	Lose2	0.7	0.0	No	3.125	0.001	n/a	NoResponse	-1	n/a	n/a	0	9	Fixation	Loss	True
99.921	0.31	Lose2	0.7	0.004	No	3.125	-0.004	2.0	NoResponse	-1	0.419	99.34	0	9	Target	Loss	True
100.238	0.39	Lose2	0.7	n/a	No	3.125	n/a	n/a	NoResponse	-1	n/a	n/a	0	9	Blank	Loss	True
100.34	0.3	Lose2	0.7	0.004	No	3.125	-0.004	2.0	NoResponse	-1	0.419	n/a	0	9	ButtonPress	Loss	True
100.623	1.45	Lose2	0.7	n/a	No	3.125	n/a	5.0	NoResponse	-1	0.035	99.658	0	9	Feedback	Loss	True
102.077	3.125	Lose2	0.7	n/a	No	3.125	n/a	n/a	NoResponse	-1	0.0	n/a	0	9	ISIslide	Loss	True
105.22	0.25	Control	0.7273000000000001	0.0	Yes	3.28	0.02	n/a	GoodResponse	0	n/a	n/a	0	10	Cue	Neutral	True
105.471	4.0	Control	0.7273000000000001	0.0	Yes	3.28	0.001	n/a	GoodResponse	0	n/a	n/a	0	10	Fixation	Neutral	True
109.466	0.3	Control	0.7273000000000001	0.004	Yes	3.28	-0.004	2.0	GoodResponse	0	0.189	108.655	0	10	Target	Neutral	True
109.655	0.3	Control	0.7273000000000001	0.004	Yes	3.28	-0.004	2.0	GoodResponse	0	0.189	n/a	0	10	ButtonPress	Neutral	True
109.767	0.4	Control	0.7273000000000001	n/a	Yes	3.28	n/a	n/a	GoodResponse	0	n/a	n/a	0	10	Blank	Neutral	True
110.168	1.45	Control	0.7273000000000001	n/a	Yes	3.28	n/a	5.0	GoodResponse	0	0.002	109.17	0	10	Feedback	Neutral	True
111.622	3.28	Control	0.7273000000000001	n/a	Yes	3.28	n/a	n/a	GoodResponse	0	0.0	n/a	0	10	ISIslide	Neutral	True
114.916	0.25	Lose2	0.75	0.0	Yes	2.734	0.016	n/a	GoodResponse	0	n/a	n/a	0	11	Cue	AvoidedLoss	True
115.166	4.05	Lose2	0.75	0.001	Yes	2.734	0.0	n/a	GoodResponse	0	n/a	n/a	0	11	Fixation	AvoidedLoss	True
119.212	0.29	Lose2	0.75	0.004	Yes	2.734	-0.004	2.0	GoodResponse	0	0.248	118.46	0	11	Target	AvoidedLoss	True
119.46	0.3	Lose2	0.75	0.004	Yes	2.734	-0.004	2.0	GoodResponse	0	0.248	n/a	0	11	ButtonPress	AvoidedLoss	True
119.513	0.41	Lose2	0.75	n/a	Yes	2.734	n/a	n/a	GoodResponse	0	n/a	n/a	0	11	Blank	AvoidedLoss	True
119.914	1.45	Lose2	0.75	n/a	Yes	2.734	n/a	5.0	GoodResponse	0	0.012	118.926	0	11	Feedback	AvoidedLoss	True
121.368	2.734	Lose2	0.75	n/a	Yes	2.734	n/a	n/a	GoodResponse	0	0.0	n/a	0	11	ISIslide	AvoidedLoss	True
124.127	0.25	Control	0.7692	0.0	Yes	2.973	0.027	n/a	GoodResponse	0	n/a	n/a	0	12	Cue	Neutral	True
124.377	3.9	Control	0.7692	0.0	Yes	2.973	0.0	n/a	GoodResponse	0	n/a	n/a	0	12	Fixation	Neutral	True
128.289	0.28	Control	0.7692	0.0	Yes	2.973	0.012	2.0	GoodResponse	0	0.265	127.554	0	12	Target	Neutral	True
128.554	0.3	Control	0.7692	0.0	Yes	2.973	0.012	2.0	GoodResponse	0	0.265	n/a	0	12	ButtonPress	Neutral	True
128.557	0.42	Control	0.7692	n/a	Yes	2.973	n/a	n/a	GoodResponse	0	n/a	n/a	0	12	Blank	Neutral	True
128.974	1.45	Control	0.7692	n/a	Yes	2.973	n/a	5.0	GoodResponse	0	0.025	127.999	0	12	Feedback	Neutral	True
130.429	2.973	Control	0.7692	n/a	Yes	2.973	n/a	n/a	GoodResponse	0	0.0	n/a	0	12	ISIslide	Neutral	True
133.421	0.25	Control	0.7857	0.0	Yes	2.779	0.021	n/a	GoodResponse	0	n/a	n/a	0	13	Cue	Neutral	True
133.672	4.0	Control	0.7857	0.0	Yes	2.779	0.001	n/a	GoodResponse	0	n/a	n/a	0	13	Fixation	Neutral	True
137.667	0.27	Control	0.7857	0.004	Yes	2.779	-0.004	2.0	GoodResponse	0	0.199	136.866	0	13	Target	Neutral	True
137.866	0.3	Control	0.7857	0.004	Yes	2.779	-0.004	2.0	GoodResponse	0	0.199	n/a	0	13	ButtonPress	Neutral	True
137.951	0.43	Control	0.7857	n/a	Yes	2.779	n/a	n/a	GoodResponse	0	n/a	n/a	0	13	Blank	Neutral	True
138.369	1.45	Control	0.7857	n/a	Yes	2.779	n/a	5.0	GoodResponse	0	0.045	137.414	0	13	Feedback	Neutral	True
139.824	2.779	Control	0.7857	n/a	Yes	2.779	n/a	n/a	GoodResponse	0	0.0	n/a	0	13	ISIslide	Neutral	True
142.615	0.25	Win2	0.8	0.0	Yes	2.685	0.015	n/a	GoodResponse	1	n/a	n/a	1	14	Cue	Win	True
142.866	4.1	Win2	0.8	0.0	Yes	2.685	0.001	n/a	GoodResponse	1	n/a	n/a	1	14	Fixation	Win	True
146.962	0.26	Win2	0.8	0.003	Yes	2.685	-0.003	2.0	GoodResponse	1	0.18	146.142	1	14	Target	Win	True
147.142	0.3	Win2	0.8	0.003	Yes	2.685	-0.003	2.0	GoodResponse	1	0.18	n/a	1	14	ButtonPress	Win	True
147.229	0.44	Win2	0.8	n/a	Yes	2.685	n/a	n/a	GoodResponse	1	n/a	n/a	1	14	Blank	Win	True
147.664	1.45	Win2	0.8	n/a	Yes	2.685	n/a	5.0	GoodResponse	1	0.018	146.682	1	14	Feedback	Win	True
149.118	2.685	Win2	0.8	n/a	Yes	2.685	n/a	n/a	GoodResponse	1	0.0	n/a	1	14	ISIslide	Win	True
151.826	0.25	Control	0.8125	0.0	Yes	2.974	0.026	n/a	GoodResponse	0	n/a	n/a	1	15	Cue	Neutral	True
152.077	4.0	Control	0.8125	0.0	Yes	2.974	0.001	n/a	GoodResponse	0	n/a	n/a	1	15	Fixation	Neutral	True
156.072	0.25	Control	0.8125	0.004	Yes	2.974	-0.004	2.0	GoodResponse	0	0.175	155.247	1	15	Target	Neutral	True
156.247	0.3	Control	0.8125	0.004	Yes	2.974	-0.004	2.0	GoodResponse	0	0.175	n/a	1	15	ButtonPress	Neutral	True
156.323	0.45	Control	0.8125	n/a	Yes	2.974	n/a	n/a	GoodResponse	0	n/a	n/a	1	15	Blank	Neutral	True
156.774	1.45	Control	0.8125	n/a	Yes	2.974	n/a	5.0	GoodResponse	0	0.029	155.803	1	15	Feedback	Neutral	True
158.229	2.974	Control	0.8125	n/a	Yes	2.974	n/a	n/a	GoodResponse	0	0.0	n/a	1	15	ISIslide	Neutral	True
161.221	0.25	Win2	0.8234999999999999	0.0	Yes	2.879	0.021	n/a	GoodResponse	1	n/a	n/a	2	16	Cue	Win	True
161.472	4.0	Win2	0.8234999999999999	0.0	Yes	2.879	0.001	n/a	GoodResponse	1	n/a	n/a	2	16	Fixation	Win	True
165.467	0.24	Win2	0.8234999999999999	0.004	Yes	2.879	-0.004	2.0	GoodResponse	1	0.175	164.642	2	16	Target	Win	True
165.642	0.3	Win2	0.8234999999999999	0.004	Yes	2.879	-0.004	2.0	GoodResponse	1	0.175	n/a	2	16	ButtonPress	Win	True
165.718	0.46	Win2	0.8234999999999999	n/a	Yes	2.879	n/a	n/a	GoodResponse	1	n/a	n/a	2	16	Blank	Win	True
166.169	1.45	Win2	0.8234999999999999	n/a	Yes	2.879	n/a	5.0	GoodResponse	1	0.049	165.218	2	16	Feedback	Win	True
167.624	2.879	Win2	0.8234999999999999	n/a	Yes	2.879	n/a	n/a	GoodResponse	1	0.0	n/a	2	16	ISIslide	Win	True
170.516	0.25	Lose2	0.8332999999999999	0.0	Yes	2.734	0.016	n/a	GoodResponse	0	n/a	n/a	2	17	Cue	AvoidedLoss	True
170.766	3.95	Lose2	0.8332999999999999	0.0	Yes	2.734	0.0	n/a	GoodResponse	0	n/a	n/a	2	17	Fixation	AvoidedLoss	True
174.728	0.23	Lose2	0.8332999999999999	0.0	Yes	2.734	0.012	2.0	GoodResponse	0	0.179	173.907	2	17	Target	AvoidedLoss	True
174.907	0.3	Lose2	0.8332999999999999	0.0	Yes	2.734	0.012	2.0	GoodResponse	0	0.179	n/a	2	17	ButtonPress	AvoidedLoss	True
174.946	0.47	Lose2	0.8332999999999999	n/a	Yes	2.734	n/a	n/a	GoodResponse	0	n/a	n/a	2	17	Blank	AvoidedLoss	True
175.414	1.45	Lose2	0.8332999999999999	n/a	Yes	2.734	n/a	5.0	GoodResponse	0	0.024	174.438	2	17	Feedback	AvoidedLoss	True
176.868	2.734	Lose2	0.8332999999999999	n/a	Yes	2.734	n/a	n/a	GoodResponse	0	0.0	n/a	2	17	ISIslide	AvoidedLoss	True
179.626	0.25	Lose2	0.8421	0.0	Yes	2.724	0.026	n/a	GoodResponse	0	n/a	n/a	2	18	Cue	AvoidedLoss	True
179.877	4.05	Lose2	0.8421	0.0	Yes	2.724	0.001	n/a	GoodResponse	0	n/a	n/a	2	18	Fixation	AvoidedLoss	True
183.922	0.22	Lose2	0.8421	0.004	Yes	2.724	-0.004	2.0	GoodResponse	0	0.166	183.088	2	18	Target	AvoidedLoss	True
184.088	0.3	Lose2	0.8421	0.004	Yes	2.724	-0.004	2.0	GoodResponse	0	0.166	n/a	2	18	ButtonPress	AvoidedLoss	True
184.156	0.48	Lose2	0.8421	n/a	Yes	2.724	n/a	n/a	GoodResponse	0	n/a	n/a	2	18	Blank	AvoidedLoss	True
184.625	1.45	Lose2	0.8421	n/a	Yes	2.724	n/a	5.0	GoodResponse	0	0.032	183.657	2	18	Feedback	AvoidedLoss	True
186.079	2.724	Lose2	0.8421	n/a	Yes	2.724	n/a	n/a	GoodResponse	0	0.0	n/a	2	18	ISIslide	AvoidedLoss	True
188.82	0.25	Control	0.85	0.001	Yes	2.93	0.02	n/a	GoodResponse	0	n/a	n/a	2	19	Cue	Neutral	True
189.071	3.95	Control	0.85	0.0	Yes	2.93	0.001	n/a	GoodResponse	0	n/a	n/a	2	19	Fixation	Neutral	True
193.016	0.21	Control	0.85	0.004	Yes	2.93	-0.004	2.0	GoodResponse	0	0.199	192.215	2	19	Target	Neutral	True
193.215	0.3	Control	0.85	0.004	Yes	2.93	-0.004	2.0	GoodResponse	0	0.199	n/a	2	19	ButtonPress	Neutral	True
193.234	0.49	Control	0.85	n/a	Yes	2.93	n/a	n/a	GoodResponse	0	n/a	n/a	2	19	Blank	Neutral	True
193.718	1.45	Control	0.85	n/a	Yes	2.93	n/a	5.0	GoodResponse	0	0.013	192.731	2	19	Feedback	Neutral	True
195.173	2.93	Control	0.85	n/a	Yes	2.93	n/a	n/a	GoodResponse	0	0.0	n/a	2	19	ISIslide	Neutral	True
198.115	0.25	Control	0.8095	0.0	No	2.635	0.015	n/a	NoResponse	0	n/a	n/a	2	20	Cue	Neutral	True
198.366	4.05	Control	0.8095	0.0	No	2.635	0.001	n/a	NoResponse	0	n/a	n/a	2	20	Fixation	Neutral	True
202.411	0.2	Control	0.8095	0.004	No	2.635	-0.004	2.0	NoResponse	0	0.212	201.623	2	20	Target	Neutral	True
202.612	0.5	Control	0.8095	n/a	No	2.635	n/a	n/a	NoResponse	0	n/a	n/a	2	20	Blank	Neutral	True
202.623	0.3	Control	0.8095	0.004	No	2.635	-0.004	2.0	NoResponse	0	0.212	n/a	2	20	ButtonPress	Neutral	True
203.113	1.45	Control	0.8095	n/a	No	2.635	n/a	5.0	NoResponse	0	0.032	202.145	2	20	Feedback	Neutral	True
204.568	2.635	Control	0.8095	n/a	No	2.635	n/a	n/a	NoResponse	0	0.0	n/a	2	20	ISIslide	Neutral	True
207.226	0.25	Control	0.7726999999999999	0.0	No	2.774	0.026	n/a	NoResponse	0	n/a	n/a	2	21	Cue	Neutral	True
207.476	4.1	Control	0.7726999999999999	0.0	No	2.774	0.0	n/a	NoResponse	0	n/a	n/a	2	21	Fixation	Neutral	True
211.572	0.19	Control	0.7726999999999999	0.004	No	2.774	-0.004	2.0	NoResponse	0	0.209	210.781	2	21	Target	Neutral	True
211.773	0.51	Control	0.7726999999999999	n/a	No	2.774	n/a	n/a	NoResponse	0	n/a	n/a	2	21	Blank	Neutral	True
211.781	0.3	Control	0.7726999999999999	0.004	No	2.774	-0.004	2.0	NoResponse	0	0.209	n/a	2	21	ButtonPress	Neutral	True
212.274	1.45	Control	0.7726999999999999	n/a	No	2.774	n/a	5.0	NoResponse	0	0.041	211.315	2	21	Feedback	Neutral	True
213.728	2.774	Control	0.7726999999999999	n/a	No	2.774	n/a	n/a	NoResponse	0	0.0	n/a	2	21	ISIslide	Neutral	True
216.52	0.25	Control	0.7391	0.0	No	2.78	0.02	n/a	NoResponse	0	n/a	n/a	2	22	Cue	Neutral	True
216.771	4.0	Control	0.7391	0.0	No	2.78	0.001	n/a	NoResponse	0	n/a	n/a	2	22	Fixation	Neutral	True
220.766	0.18	Control	0.7391	0.004	No	2.78	-0.004	2.0	NoResponse	0	0.23	219.996	2	22	Target	Neutral	True
220.95	0.52	Control	0.7391	n/a	No	2.78	n/a	n/a	NoResponse	0	n/a	n/a	2	22	Blank	Neutral	True
220.996	0.3	Control	0.7391	0.004	No	2.78	-0.004	2.0	NoResponse	0	0.23	n/a	2	22	ButtonPress	Neutral	True
221.468	1.45	Control	0.7391	n/a	No	2.78	n/a	5.0	NoResponse	0	0.018	220.486	2	22	Feedback	Neutral	True
222.923	2.78	Control	0.7391	n/a	No	2.78	n/a	n/a	NoResponse	0	0.0	n/a	2	22	ISIslide	Neutral	True
225.714	0.25	Control	0.7082999999999999	0.0	No	2.786	0.014	n/a	NoResponse	0	n/a	n/a	2	23	Cue	Neutral	True
225.965	3.9	Control	0.7082999999999999	0.0	No	2.786	0.001	n/a	NoResponse	0	n/a	n/a	2	23	Fixation	Neutral	True
229.86	0.17	Control	0.7082999999999999	0.004	No	2.786	-0.004	2.0	NoResponse	0	0.202	229.062	2	23	Target	Neutral	True
230.044	0.53	Control	0.7082999999999999	n/a	No	2.786	n/a	n/a	NoResponse	0	n/a	n/a	2	23	Blank	Neutral	True
230.062	0.3	Control	0.7082999999999999	0.004	No	2.786	-0.004	2.0	NoResponse	0	0.202	n/a	2	23	ButtonPress	Neutral	True
230.562	1.45	Control	0.7082999999999999	n/a	No	2.786	n/a	5.0	NoResponse	0	0.046	229.608	2	23	Feedback	Neutral	True
232.017	2.786	Control	0.7082999999999999	n/a	No	2.786	n/a	n/a	NoResponse	0	0.0	n/a	2	23	ISIslide	Neutral	True
234.825	0.25	Win2	0.68	0.0	No	3.125	0.025	n/a	NoResponse	0	n/a	n/a	2	24	Cue	MissedWin	True
235.076	3.95	Win2	0.68	0.0	No	3.125	0.001	n/a	NoResponse	0	n/a	n/a	2	24	Fixation	MissedWin	True
239.021	0.16	Win2	0.68	0.004	No	3.125	-0.004	2.0	NoResponse	0	0.175	238.196	2	24	Target	MissedWin	True
239.188	0.54	Win2	0.68	n/a	No	3.125	n/a	n/a	NoResponse	0	n/a	n/a	2	24	Blank	MissedWin	True
239.196	0.3	Win2	0.68	0.004	No	3.125	-0.004	2.0	NoResponse	0	0.175	n/a	2	24	ButtonPress	MissedWin	True
239.723	1.45	Win2	0.68	n/a	No	3.125	n/a	5.0	NoResponse	0	0.008	238.731	2	24	Feedback	MissedWin	True
241.177	3.125	Win2	0.68	n/a	No	3.125	n/a	n/a	NoResponse	0	0.0	n/a	2	24	ISIslide	MissedWin	True
244.32	0.25	Win2	0.6537999999999999	0.0	No	3.08	0.02	n/a	NoResponse	0	n/a	n/a	2	25	Cue	MissedWin	True
244.571	4.0	Win2	0.6537999999999999	0.0	No	3.08	0.001	n/a	NoResponse	0	n/a	n/a	2	25	Fixation	MissedWin	True
248.566	0.15	Win2	0.6537999999999999	0.004	No	3.08	-0.004	2.0	NoResponse	0	0.181	247.747	2	25	Target	MissedWin	True
248.717	0.55	Win2	0.6537999999999999	n/a	No	3.08	n/a	n/a	NoResponse	0	n/a	n/a	2	25	Blank	MissedWin	True
248.747	0.3	Win2	0.6537999999999999	0.004	No	3.08	-0.004	2.0	NoResponse	0	0.181	n/a	2	25	ButtonPress	MissedWin	True
249.268	1.45	Win2	0.6537999999999999	n/a	No	3.08	n/a	5.0	NoResponse	0	0.023	248.291	2	25	Feedback	MissedWin	True
250.723	3.08	Win2	0.6537999999999999	n/a	No	3.08	n/a	n/a	NoResponse	0	0.0	n/a	2	25	ISIslide	MissedWin	True
253.815	0.25	Win2	0.6296	0.0	No	2.935	0.015	n/a	NoResponse	0	n/a	n/a	2	26	Cue	MissedWin	True
254.066	3.95	Win2	0.6296	0.0	No	2.935	0.001	n/a	NoResponse	0	n/a	n/a	2	26	Fixation	MissedWin	True
258.011	0.16	Win2	0.6296	0.004	No	2.935	-0.004	2.0	NoResponse	0	0.178	257.189	2	26	Target	MissedWin	True
258.178	0.54	Win2	0.6296	n/a	No	2.935	n/a	n/a	NoResponse	0	n/a	n/a	2	26	Blank	MissedWin	True
258.189	0.3	Win2	0.6296	0.004	No	2.935	-0.004	2.0	NoResponse	0	0.178	n/a	2	26	ButtonPress	MissedWin	True
258.713	1.45	Win2	0.6296	n/a	No	2.935	n/a	5.0	NoResponse	0	0.042	257.755	2	26	Feedback	MissedWin	True
260.168	2.935	Win2	0.6296	n/a	No	2.935	n/a	n/a	NoResponse	0	0.0	n/a	2	26	ISIslide	MissedWin	True
263.126	0.25	Lose2	0.6429	0.0	Yes	2.824	0.026	n/a	GoodResponse	0	n/a	n/a	2	27	Cue	AvoidedLoss	True
263.377	4.05	Lose2	0.6429	0.0	Yes	2.824	0.001	n/a	GoodResponse	0	n/a	n/a	2	27	Fixation	AvoidedLoss	True
267.423	0.17	Lose2	0.6429	0.003	Yes	2.824	-0.003	2.0	GoodResponse	0	0.168	266.591	2	27	Target	AvoidedLoss	True
267.591	0.3	Lose2	0.6429	0.003	Yes	2.824	-0.003	2.0	GoodResponse	0	0.168	n/a	2	27	ButtonPress	AvoidedLoss	True
267.607	0.53	Lose2	0.6429	n/a	Yes	2.824	n/a	n/a	GoodResponse	0	n/a	n/a	2	27	Blank	AvoidedLoss	True
268.125	1.45	Lose2	0.6429	n/a	Yes	2.824	n/a	5.0	GoodResponse	0	0.044	267.169	2	27	Feedback	AvoidedLoss	True
269.579	2.824	Lose2	0.6429	n/a	Yes	2.824	n/a	n/a	GoodResponse	0	0.0	n/a	2	27	ISIslide	AvoidedLoss	True
272.421	0.25	Control	0.6552	0.0	Yes	2.829	0.021	n/a	GoodResponse	0	n/a	n/a	2	28	Cue	Neutral	True
272.672	4.05	Control	0.6552	0.0	Yes	2.829	0.001	n/a	GoodResponse	0	n/a	n/a	2	28	Fixation	Neutral	True
276.717	0.18	Control	0.6552	0.004	Yes	2.829	-0.004	2.0	GoodResponse	0	0.179	275.896	2	28	Target	Neutral	True
276.896	0.3	Control	0.6552	0.004	Yes	2.829	-0.004	2.0	GoodResponse	0	0.179	n/a	2	28	ButtonPress	Neutral	True
276.901	0.52	Control	0.6552	n/a	Yes	2.829	n/a	n/a	GoodResponse	0	n/a	n/a	2	28	Blank	Neutral	True
277.419	1.45	Control	0.6552	n/a	Yes	2.829	n/a	5.0	GoodResponse	0	0.018	276.437	2	28	Feedback	Neutral	True
278.874	2.829	Control	0.6552	n/a	Yes	2.829	n/a	n/a	GoodResponse	0	0.0	n/a	2	28	ISIslide	Neutral	True
281.715	0.25	Lose2	0.6667000000000001	0.001	Yes	2.835	0.015	n/a	GoodResponse	0	n/a	n/a	2	29	Cue	AvoidedLoss	True
281.966	3.95	Lose2	0.6667000000000001	0.0	Yes	2.835	0.001	n/a	GoodResponse	0	n/a	n/a	2	29	Fixation	AvoidedLoss	True
285.911	0.18	Lose2	0.6667000000000001	0.004	Yes	2.835	-0.004	2.0	GoodResponse	0	0.177	285.088	2	29	Target	AvoidedLoss	True
286.088	0.3	Lose2	0.6667000000000001	0.004	Yes	2.835	-0.004	2.0	GoodResponse	0	0.177	n/a	2	29	ButtonPress	AvoidedLoss	True
286.095	0.52	Lose2	0.6667000000000001	n/a	Yes	2.835	n/a	n/a	GoodResponse	0	n/a	n/a	2	29	Blank	AvoidedLoss	True
286.613	1.45	Lose2	0.6667000000000001	n/a	Yes	2.835	n/a	5.0	GoodResponse	0	0.044	285.657	2	29	Feedback	AvoidedLoss	True
288.068	2.835	Lose2	0.6667000000000001	n/a	Yes	2.835	n/a	n/a	GoodResponse	0	0.0	n/a	2	29	ISIslide	AvoidedLoss	True
290.926	0.25	Win2	0.6452	0.0	No	2.774	0.026	n/a	LatePress	0	n/a	n/a	2	30	Cue	MissedWin	True
291.177	3.9	Win2	0.6452	0.0	No	2.774	0.001	n/a	LatePress	0	n/a	n/a	2	30	Fixation	MissedWin	True
295.072	0.17	Win2	0.6452	0.004	No	2.774	-0.004	2.0	LatePress	0	0.176	294.248	2	30	Target	MissedWin	True
295.248	0.3	Win2	0.6452	0.004	No	2.774	-0.004	2.0	LatePress	0	0.176	n/a	2	30	ButtonPress	MissedWin	True
295.256	0.53	Win2	0.6452	n/a	No	2.774	n/a	n/a	LatePress	0	n/a	n/a	2	30	Blank	MissedWin	True
295.774	1.45	Win2	0.6452	n/a	No	2.774	n/a	5.0	LatePress	0	0.005	294.779	2	30	Feedback	MissedWin	True
297.229	2.774	Win2	0.6452	n/a	No	2.774	n/a	n/a	LatePress	0	0.0	n/a	2	30	ISIslide	MissedWin	True
300.02	0.25	Lose2	0.625	0.0	No	2.83	0.02	n/a	NoResponse	-1	n/a	n/a	1	31	Cue	Loss	True
300.271	4.05	Lose2	0.625	0.0	No	2.83	0.001	n/a	NoResponse	-1	n/a	n/a	1	31	Fixation	Loss	True
304.317	0.18	Lose2	0.625	0.003	No	2.83	-0.003	2.0	NoResponse	-1	0.196	303.513	1	31	Target	Loss	True
304.5	0.52	Lose2	0.625	n/a	No	2.83	n/a	n/a	NoResponse	-1	n/a	n/a	1	31	Blank	Loss	True
304.513	0.3	Lose2	0.625	0.003	No	2.83	-0.003	2.0	NoResponse	-1	0.196	n/a	1	31	ButtonPress	Loss	True
305.019	1.45	Lose2	0.625	n/a	No	2.83	n/a	5.0	NoResponse	-1	0.028	304.047	1	31	Feedback	Loss	True
306.473	2.83	Lose2	0.625	n/a	No	2.83	n/a	n/a	NoResponse	-1	0.0	n/a	1	31	ISIslide	Loss	True
309.315	0.25	Lose2	0.6061	0.0	No	2.635	0.015	n/a	NoResponse	-1	n/a	n/a	0	32	Cue	Loss	True
309.566	4.15	Lose2	0.6061	0.0	No	2.635	0.001	n/a	NoResponse	-1	n/a	n/a	0	32	Fixation	Loss	True
313.711	0.19	Lose2	0.6061	0.004	No	2.635	-0.004	2.0	NoResponse	-1	0.207	312.918	0	32	Target	Loss	True
313.912	0.51	Lose2	0.6061	n/a	No	2.635	n/a	n/a	NoResponse	-1	n/a	n/a	0	32	Blank	Loss	True
313.918	0.3	Lose2	0.6061	0.004	No	2.635	-0.004	2.0	NoResponse	-1	0.207	n/a	0	32	ButtonPress	Loss	True
314.413	1.45	Lose2	0.6061	n/a	No	2.635	n/a	5.0	NoResponse	-1	0.049	313.462	0	32	Feedback	Loss	True
315.868	2.635	Lose2	0.6061	n/a	No	2.635	n/a	n/a	NoResponse	-1	0.0	n/a	0	32	ISIslide	Loss	True
318.526	0.25	Win2	0.5882000000000001	0.0	No	2.674	0.026	n/a	NoResponse	0	n/a	n/a	0	33	Cue	MissedWin	True
318.777	4.0	Win2	0.5882000000000001	0.0	No	2.674	0.001	n/a	NoResponse	0	n/a	n/a	0	33	Fixation	MissedWin	True
322.772	0.2	Win2	0.5882000000000001	0.004	No	2.674	-0.004	2.0	NoResponse	0	0.213	321.985	0	33	Target	MissedWin	True
322.972	0.5	Win2	0.5882000000000001	n/a	No	2.674	n/a	n/a	NoResponse	0	n/a	n/a	0	33	Blank	MissedWin	True
322.985	0.3	Win2	0.5882000000000001	0.004	No	2.674	-0.004	2.0	NoResponse	0	0.213	n/a	0	33	ButtonPress	MissedWin	True
323.474	1.45	Win2	0.5882000000000001	n/a	No	2.674	n/a	5.0	NoResponse	0	0.012	322.486	0	33	Feedback	MissedWin	True
324.928	2.674	Win2	0.5882000000000001	n/a	No	2.674	n/a	n/a	NoResponse	0	0.0	n/a	0	33	ISIslide	MissedWin	True
327.62	0.25	Lose2	0.5714	0.0	No	2.63	0.02	n/a	NoResponse	-1	n/a	n/a	-1	34	Cue	Loss	True
327.87	4.05	Lose2	0.5714	0.0	No	2.63	0.0	n/a	NoResponse	-1	n/a	n/a	-1	34	Fixation	Loss	True
331.916	0.21	Lose2	0.5714	0.004	No	2.63	-0.004	2.0	NoResponse	-1	0.394	331.31	-1	34	Target	Loss	True
332.133	0.49	Lose2	0.5714	n/a	No	2.63	n/a	n/a	NoResponse	-1	n/a	n/a	-1	34	Blank	Loss	True
332.31	0.3	Lose2	0.5714	0.004	No	2.63	-0.004	2.0	NoResponse	-1	0.394	n/a	-1	34	ButtonPress	Loss	True
332.618	1.45	Lose2	0.5714	n/a	No	2.63	n/a	5.0	NoResponse	-1	0.038	331.656	-1	34	Feedback	Loss	True
334.072	2.63	Lose2	0.5714	n/a	No	2.63	n/a	n/a	NoResponse	-1	0.0	n/a	-1	34	ISIslide	Loss	True
336.714	0.25	Lose2	0.5832999999999999	0.0	Yes	2.686	0.014	n/a	GoodResponse	0	n/a	n/a	-1	35	Cue	AvoidedLoss	False
336.964	4.0	Lose2	0.5832999999999999	0.0	Yes	2.686	0.0	2.0	GoodResponse	0	3.768	339.732	-1	35	Fixation	AvoidedLoss	False
340.732	0.3	Lose2	0.5832999999999999	0.0	Yes	2.686	0.0	2.0	GoodResponse	0	3.768	n/a	-1	35	ButtonPress	AvoidedLoss	False
340.96	0.22	Lose2	0.5832999999999999	0.004	Yes	2.686	-0.004	2.0	GoodResponse	0	0.117	340.077	-1	35	Target	AvoidedLoss	False
341.077	0.3	Lose2	0.5832999999999999	0.004	Yes	2.686	-0.004	2.0	GoodResponse	0	0.117	n/a	-1	35	ButtonPress	AvoidedLoss	False
341.194	0.48	Lose2	0.5832999999999999	n/a	Yes	2.686	n/a	n/a	GoodResponse	0	n/a	n/a	-1	35	Blank	AvoidedLoss	False
341.662	1.45	Lose2	0.5832999999999999	n/a	Yes	2.686	n/a	5.0	GoodResponse	0	0.019	340.681	-1	35	Feedback	AvoidedLoss	False
343.116	2.686	Lose2	0.5832999999999999	n/a	Yes	2.686	n/a	n/a	GoodResponse	0	0.0	n/a	-1	35	ISIslide	AvoidedLoss	False
345.824	0.25	Control	0.5676	0.0	No	2.676	0.024	n/a	NoResponse	0	n/a	n/a	-1	36	Cue	Neutral	True
346.075	4.0	Control	0.5676	0.0	No	2.676	0.001	n/a	NoResponse	0	n/a	n/a	-1	36	Fixation	Neutral	True
350.07	0.23	Control	0.5676	0.004	No	2.676	-0.004	2.0	NoResponse	0	0.278	349.348	-1	36	Target	Neutral	True
350.304	0.47	Control	0.5676	n/a	No	2.676	n/a	n/a	NoResponse	0	n/a	n/a	-1	36	Blank	Neutral	True
350.348	0.3	Control	0.5676	0.004	No	2.676	-0.004	2.0	NoResponse	0	0.278	n/a	-1	36	ButtonPress	Neutral	True
350.772	1.45	Control	0.5676	n/a	No	2.676	n/a	5.0	NoResponse	0	0.031	349.803	-1	36	Feedback	Neutral	True
352.227	2.676	Control	0.5676	n/a	No	2.676	n/a	n/a	NoResponse	0	0.0	n/a	-1	36	ISIslide	Neutral	True
354.918	0.25	Win2	0.5789	0.0	Yes	2.882	0.018	n/a	GoodResponse	1	n/a	n/a	0	37	Cue	Win	True
355.169	4.0	Win2	0.5789	0.0	Yes	2.882	0.001	n/a	GoodResponse	1	n/a	n/a	0	37	Fixation	Win	True
359.164	0.24	Win2	0.5789	0.004	Yes	2.882	-0.004	2.0	GoodResponse	1	0.191	358.355	0	37	Target	Win	True
359.355	0.3	Win2	0.5789	0.004	Yes	2.882	-0.004	2.0	GoodResponse	1	0.191	n/a	0	37	ButtonPress	Win	True
359.415	0.46	Win2	0.5789	n/a	Yes	2.882	n/a	n/a	GoodResponse	1	n/a	n/a	0	37	Blank	Win	True
359.866	1.45	Win2	0.5789	n/a	Yes	2.882	n/a	5.0	GoodResponse	1	0.01	358.876	0	37	Feedback	Win	True
361.321	2.882	Win2	0.5789	n/a	Yes	2.882	n/a	n/a	GoodResponse	1	0.0	n/a	0	37	ISIslide	Win	True
364.229	0.25	Lose2	0.5897	0.0	Yes	2.821	0.029	n/a	GoodResponse	0	n/a	n/a	0	38	Cue	AvoidedLoss	True
364.48	3.95	Lose2	0.5897	0.0	Yes	2.821	0.001	n/a	GoodResponse	0	n/a	n/a	0	38	Fixation	AvoidedLoss	True
368.425	0.25	Lose2	0.5897	0.004	Yes	2.821	-0.004	2.0	GoodResponse	0	0.193	367.618	0	38	Target	AvoidedLoss	True
368.618	0.3	Lose2	0.5897	0.004	Yes	2.821	-0.004	2.0	GoodResponse	0	0.193	n/a	0	38	ButtonPress	AvoidedLoss	True
368.676	0.45	Lose2	0.5897	n/a	Yes	2.821	n/a	n/a	GoodResponse	0	n/a	n/a	0	38	Blank	AvoidedLoss	True
369.127	1.45	Lose2	0.5897	n/a	Yes	2.821	n/a	5.0	GoodResponse	0	0.017	368.144	0	38	Feedback	AvoidedLoss	True
370.582	2.821	Lose2	0.5897	n/a	Yes	2.821	n/a	n/a	GoodResponse	0	0.0	n/a	0	38	ISIslide	AvoidedLoss	True
373.424	0.25	Win2	0.575	0.0	No	2.976	0.024	n/a	NoResponse	0	n/a	n/a	0	39	Cue	MissedWin	True
373.674	4.1	Win2	0.575	0.0	No	2.976	0.0	n/a	NoResponse	0	n/a	n/a	0	39	Fixation	MissedWin	True
377.77	0.26	Win2	0.575	0.004	No	2.976	-0.004	2.0	NoResponse	0	0.518	377.288	0	39	Target	MissedWin	True
378.037	0.44	Win2	0.575	n/a	No	2.976	n/a	n/a	NoResponse	0	n/a	n/a	0	39	Blank	MissedWin	True
378.288	0.3	Win2	0.575	0.004	No	2.976	-0.004	2.0	NoResponse	0	0.518	n/a	0	39	ButtonPress	MissedWin	True
378.472	1.45	Win2	0.575	n/a	No	2.976	n/a	5.0	NoResponse	0	0.038	377.51	0	39	Feedback	MissedWin	True
379.926	2.976	Win2	0.575	n/a	No	2.976	n/a	n/a	NoResponse	0	0.0	n/a	0	39	ISIslide	MissedWin	True
382.919	0.25	Win2	0.5854	0.0	Yes	2.731	0.019	n/a	GoodResponse	1	n/a	n/a	1	40	Cue	Win	True
383.169	3.95	Win2	0.5854	0.001	Yes	2.731	0.0	n/a	GoodResponse	1	n/a	n/a	1	40	Fixation	Win	True
387.115	0.27	Win2	0.5854	0.004	Yes	2.731	-0.004	2.0	GoodResponse	1	0.19	386.305	1	40	Target	Win	True
387.305	0.3	Win2	0.5854	0.004	Yes	2.731	-0.004	2.0	GoodResponse	1	0.19	n/a	1	40	ButtonPress	Win	True
387.399	0.43	Win2	0.5854	n/a	Yes	2.731	n/a	n/a	GoodResponse	1	n/a	n/a	1	40	Blank	Win	True
387.817	1.45	Win2	0.5854	n/a	Yes	2.731	n/a	5.0	GoodResponse	1	0.01	386.827	1	40	Feedback	Win	True
389.271	2.731	Win2	0.5854	n/a	Yes	2.731	n/a	n/a	GoodResponse	1	0.0	n/a	1	40	ISIslide	Win	True
392.029	0.25	Win2	0.5952000000000001	0.0	Yes	2.771	0.029	n/a	GoodResponse	1	n/a	n/a	2	41	Cue	Win	True
392.28	3.9	Win2	0.5952000000000001	0.0	Yes	2.771	0.001	n/a	GoodResponse	1	n/a	n/a	2	41	Fixation	Win	True
396.175	0.28	Win2	0.5952000000000001	0.004	Yes	2.771	-0.004	2.0	GoodResponse	1	0.2	395.375	2	41	Target	Win	True
396.375	0.3	Win2	0.5952000000000001	0.004	Yes	2.771	-0.004	2.0	GoodResponse	1	0.2	n/a	2	41	ButtonPress	Win	True
396.459	0.42	Win2	0.5952000000000001	n/a	Yes	2.771	n/a	n/a	GoodResponse	1	n/a	n/a	2	41	Blank	Win	True
396.877	1.45	Win2	0.5952000000000001	n/a	Yes	2.771	n/a	5.0	GoodResponse	1	0.023	395.9	2	41	Feedback	Win	True
398.332	2.771	Win2	0.5952000000000001	n/a	Yes	2.771	n/a	n/a	GoodResponse	1	0.0	n/a	2	41	ISIslide	Win	True
401.123	0.25	Control	0.5814	0.0	No	2.927	0.023	n/a	LatePress	0	n/a	n/a	2	42	Cue	Neutral	True
401.374	3.85	Control	0.5814	0.0	No	2.927	0.001	n/a	LatePress	0	n/a	n/a	2	42	Fixation	Neutral	True
405.219	0.29	Control	0.5814	0.004	No	2.927	-0.004	2.0	LatePress	0	0.299	404.518	2	42	Target	Neutral	True
405.518	0.3	Control	0.5814	0.004	No	2.927	-0.004	2.0	LatePress	0	0.299	n/a	2	42	ButtonPress	Neutral	True
405.52	0.41	Control	0.5814	n/a	No	2.927	n/a	n/a	LatePress	0	n/a	n/a	2	42	Blank	Neutral	True
405.921	1.45	Control	0.5814	n/a	No	2.927	n/a	5.0	LatePress	0	0.004	404.925	2	42	Feedback	Neutral	True
407.375	2.927	Control	0.5814	n/a	No	2.927	n/a	n/a	LatePress	0	0.0	n/a	2	42	ISIslide	Neutral	True
410.317	0.25	Win2	0.5909	0.001	Yes	3.183	0.017	n/a	GoodResponse	1	n/a	n/a	3	43	Cue	Win	True
410.568	4.0	Win2	0.5909	0.0	Yes	3.183	0.001	n/a	GoodResponse	1	n/a	n/a	3	43	Fixation	Win	True
414.564	0.3	Win2	0.5909	0.003	Yes	3.183	-0.003	2.0	GoodResponse	1	0.198	413.762	3	43	Target	Win	True
414.762	0.3	Win2	0.5909	0.003	Yes	3.183	-0.003	2.0	GoodResponse	1	0.198	n/a	3	43	ButtonPress	Win	True
414.864	0.4	Win2	0.5909	n/a	Yes	3.183	n/a	n/a	GoodResponse	1	n/a	n/a	3	43	Blank	Win	True
415.266	1.45	Win2	0.5909	n/a	Yes	3.183	n/a	5.0	GoodResponse	1	0.024	414.29	3	43	Feedback	Win	True
416.72	3.183	Win2	0.5909	n/a	Yes	3.183	n/a	n/a	GoodResponse	1	0.0	n/a	3	43	ISIslide	Win	True
419.913	0.25	Win2	0.6	0.0	Yes	2.987	0.013	n/a	GoodResponse	1	n/a	n/a	4	44	Cue	Win	True
420.164	4.0	Win2	0.6	0.0	Yes	2.987	0.001	n/a	GoodResponse	1	n/a	n/a	4	44	Fixation	Win	True
424.159	0.31	Win2	0.6	0.004	Yes	2.987	-0.004	2.0	GoodResponse	1	0.261	423.42	4	44	Target	Win	True
424.42	0.3	Win2	0.6	0.004	Yes	2.987	-0.004	2.0	GoodResponse	1	0.261	n/a	4	44	ButtonPress	Win	True
424.477	0.39	Win2	0.6	n/a	Yes	2.987	n/a	n/a	GoodResponse	1	n/a	n/a	4	44	Blank	Win	True
424.861	1.45	Win2	0.6	n/a	Yes	2.987	n/a	5.0	GoodResponse	1	0.039	423.9	4	44	Feedback	Win	True
426.315	2.987	Win2	0.6	n/a	Yes	2.987	n/a	n/a	GoodResponse	1	0.0	n/a	4	44	ISIslide	Win	True
429.324	0.25	Control	0.5870000000000001	0.0	No	2.876	0.024	n/a	NoResponse	0	n/a	n/a	4	45	Cue	Neutral	False
429.575	4.1	Control	0.5870000000000001	0.0	No	2.876	0.001	n/a	NoResponse	0	n/a	n/a	4	45	Fixation	Neutral	False
433.671	0.32	Control	0.5870000000000001	0.003	No	2.876	-0.003	n/a	NoResponse	0	n/a	n/a	4	45	Target	Neutral	False
434.005	0.38	Control	0.5870000000000001	n/a	No	2.876	n/a	n/a	NoResponse	0	n/a	n/a	4	45	Blank	Neutral	False
434.373	1.45	Control	0.5870000000000001	n/a	No	2.876	n/a	5.0	NoResponse	0	0.039	433.412	4	45	Feedback	Neutral	False
435.827	2.876	Control	0.5870000000000001	n/a	No	2.876	n/a	n/a	NoResponse	0	0.0	n/a	4	45	ISIslide	Neutral	False
438.719	0.25	Lose2	0.5745	0.0	No	3.381	0.019	n/a	NoResponse	-1	n/a	n/a	3	46	Cue	Loss	True
438.97	4.0	Lose2	0.5745	0.0	No	3.381	0.001	n/a	NoResponse	-1	n/a	n/a	3	46	Fixation	Loss	True
442.965	0.33	Lose2	0.5745	0.004	No	3.381	-0.004	2.0	NoResponse	-1	0.461	442.426	3	46	Target	Loss	True
443.3	0.37	Lose2	0.5745	n/a	No	3.381	n/a	n/a	NoResponse	-1	n/a	n/a	3	46	Blank	Loss	True
443.426	0.3	Lose2	0.5745	0.004	No	3.381	-0.004	2.0	NoResponse	-1	0.461	n/a	3	46	ButtonPress	Loss	True
443.667	1.45	Lose2	0.5745	n/a	No	3.381	n/a	5.0	NoResponse	-1	0.014	442.681	3	46	Feedback	Loss	True
445.122	3.381	Lose2	0.5745	n/a	No	3.381	n/a	n/a	NoResponse	-1	0.0	n/a	3	46	ISIslide	Loss	True
448.515	0.25	Lose2	0.5832999999999999	0.0	Yes	2.685	0.015	n/a	GoodResponse	0	n/a	n/a	3	47	Cue	AvoidedLoss	True
448.766	4.0	Lose2	0.5832999999999999	0.0	Yes	2.685	0.001	n/a	GoodResponse	0	n/a	n/a	3	47	Fixation	AvoidedLoss	True
452.761	0.34	Lose2	0.5832999999999999	0.004	Yes	2.685	-0.004	2.0	GoodResponse	0	0.2	451.961	3	47	Target	AvoidedLoss	True
452.961	0.3	Lose2	0.5832999999999999	0.004	Yes	2.685	-0.004	2.0	GoodResponse	0	0.2	n/a	3	47	ButtonPress	AvoidedLoss	True
453.112	0.36	Lose2	0.5832999999999999	n/a	Yes	2.685	n/a	n/a	GoodResponse	0	n/a	n/a	3	47	Blank	AvoidedLoss	True
453.463	1.45	Lose2	0.5832999999999999	n/a	Yes	2.685	n/a	5.0	GoodResponse	0	0.022	452.485	3	47	Feedback	AvoidedLoss	True
454.918	2.685	Lose2	0.5832999999999999	n/a	Yes	2.685	n/a	n/a	GoodResponse	0	0.0	n/a	3	47	ISIslide	AvoidedLoss	True
457.626	0.25	Lose2	0.5714	0.0	No	3.024	0.026	n/a	NoResponse	-1	n/a	n/a	2	48	Cue	Loss	True
457.877	3.95	Lose2	0.5714	0.0	No	3.024	0.001	n/a	NoResponse	-1	n/a	n/a	2	48	Fixation	Loss	True
461.822	0.35	Lose2	0.5714	0.004	No	3.024	-0.004	2.0	NoResponse	-1	0.515	461.337	2	48	Target	Loss	True
462.173	0.35	Lose2	0.5714	n/a	No	3.024	n/a	n/a	NoResponse	-1	n/a	n/a	2	48	Blank	Loss	True
462.337	0.3	Lose2	0.5714	0.004	No	3.024	-0.004	2.0	NoResponse	-1	0.515	n/a	2	48	ButtonPress	Loss	True
462.524	1.45	Lose2	0.5714	n/a	No	3.024	n/a	5.0	NoResponse	-1	0.034	461.558	2	48	Feedback	Loss	True
463.978	3.024	Lose2	0.5714	n/a	No	3.024	n/a	n/a	NoResponse	-1	0.0	n/a	2	48	ISIslide	Loss	True
467.021	0.25	Control	0.56	0.0	No	2.879	0.021	n/a	NoResponse	0	n/a	n/a	2	49	Cue	Neutral	False
467.271	4.0	Control	0.56	0.001	No	2.879	0.0	n/a	NoResponse	0	n/a	n/a	2	49	Fixation	Neutral	False
471.267	0.36	Control	0.56	0.004	No	2.879	-0.004	n/a	NoResponse	0	n/a	n/a	2	49	Target	Neutral	False
471.635	0.34	Control	0.56	n/a	No	2.879	n/a	n/a	NoResponse	0	n/a	n/a	2	49	Blank	Neutral	False
471.969	1.45	Control	0.56	n/a	No	2.879	n/a	5.0	NoResponse	0	0.005	470.974	2	49	Feedback	Neutral	False
473.423	2.879	Control	0.56	n/a	No	2.879	n/a	n/a	NoResponse	0	0.0	n/a	2	49	ISIslide	Neutral	False
476.315	0.25	Control	0.5686	0.0	Yes	2.785	0.015	n/a	GoodResponse	0	n/a	n/a	2	50	Cue	Neutral	True
476.566	4.0	Control	0.5686	0.0	Yes	2.785	0.001	n/a	GoodResponse	0	n/a	n/a	2	50	Fixation	Neutral	True
480.561	0.37	Control	0.5686	0.004	Yes	2.785	-0.004	2.0	GoodResponse	0	0.2	479.761	2	50	Target	Neutral	True
480.761	0.3	Control	0.5686	0.004	Yes	2.785	-0.004	2.0	GoodResponse	0	0.2	n/a	2	50	ButtonPress	Neutral	True
480.946	0.33	Control	0.5686	n/a	Yes	2.785	n/a	n/a	GoodResponse	0	n/a	n/a	2	50	Blank	Neutral	True
481.263	1.45	Control	0.5686	n/a	Yes	2.785	n/a	5.0	GoodResponse	0	0.027	480.29	2	50	Feedback	Neutral	True
482.718	2.785	Control	0.5686	n/a	Yes	2.785	n/a	n/a	GoodResponse	0	0.0	n/a	2	50	ISIslide	Neutral	True
485.526	0.25	Control	0.5577000000000001	0.0	No	2.724	0.026	n/a	NoResponse	0	n/a	n/a	2	51	Cue	Neutral	False
485.777	3.95	Control	0.5577000000000001	0.0	No	2.724	0.001	n/a	NoResponse	0	n/a	n/a	2	51	Fixation	Neutral	False
489.722	0.38	Control	0.5577000000000001	0.004	No	2.724	-0.004	n/a	NoResponse	0	n/a	n/a	2	51	Target	Neutral	False
490.107	0.32	Control	0.5577000000000001	n/a	No	2.724	n/a	n/a	NoResponse	0	n/a	n/a	2	51	Blank	Neutral	False
490.424	1.45	Control	0.5577000000000001	n/a	No	2.724	n/a	5.0	NoResponse	0	0.037	489.461	2	51	Feedback	Neutral	False
491.879	2.724	Control	0.5577000000000001	n/a	No	2.724	n/a	n/a	NoResponse	0	0.0	n/a	2	51	ISIslide	Neutral	False
494.62	0.25	Control	0.5472	0.0	No	2.63	0.02	n/a	NoResponse	0	n/a	n/a	2	52	Cue	Neutral	False
494.871	4.05	Control	0.5472	0.0	No	2.63	0.001	2.0	NoResponse	0	0.038	493.909	2	52	Fixation	Neutral	False
494.909	0.3	Control	0.5472	0.0	No	2.63	0.001	2.0	NoResponse	0	0.038	n/a	2	52	ButtonPress	Neutral	False
498.916	0.39	Control	0.5472	0.004	No	2.63	-0.004	2.0	NoResponse	0	0.528	498.444	2	52	Target	Neutral	False
499.317	0.31	Control	0.5472	n/a	No	2.63	n/a	n/a	NoResponse	0	n/a	n/a	2	52	Blank	Neutral	False
499.444	0.3	Control	0.5472	0.004	No	2.63	-0.004	2.0	NoResponse	0	0.528	n/a	2	52	ButtonPress	Neutral	False
499.618	1.45	Control	0.5472	n/a	No	2.63	n/a	5.0	NoResponse	0	0.013	498.631	2	52	Feedback	Neutral	False
501.073	2.63	Control	0.5472	n/a	No	2.63	n/a	n/a	NoResponse	0	0.0	n/a	2	52	ISIslide	Neutral	False
503.714	0.25	Win2	0.5556	0.0	Yes	2.936	0.014	n/a	GoodResponse	1	n/a	n/a	3	53	Cue	Win	True
503.965	4.05	Win2	0.5556	0.0	Yes	2.936	0.001	n/a	GoodResponse	1	n/a	n/a	3	53	Fixation	Win	True
508.01	0.4	Win2	0.5556	0.004	Yes	2.936	-0.004	2.0	GoodResponse	1	0.196	507.206	3	53	Target	Win	True
508.206	0.3	Win2	0.5556	0.004	Yes	2.936	-0.004	2.0	GoodResponse	1	0.196	n/a	3	53	ButtonPress	Win	True
508.411	0.3	Win2	0.5556	n/a	Yes	2.936	n/a	n/a	GoodResponse	1	n/a	n/a	3	53	Blank	Win	True
508.712	1.45	Win2	0.5556	n/a	Yes	2.936	n/a	5.0	GoodResponse	1	0.04	507.752	3	53	Feedback	Win	True
510.167	2.936	Win2	0.5556	n/a	Yes	2.936	n/a	n/a	GoodResponse	1	0.0	n/a	3	53	ISIslide	Win	True
513.126	0.25	Win2	0.5636	0.0	Yes	2.724	0.026	n/a	GoodResponse	1	n/a	n/a	4	54	Cue	Win	True
513.376	3.95	Win2	0.5636	0.0	Yes	2.724	0.0	n/a	GoodResponse	1	n/a	n/a	4	54	Fixation	Win	True
517.338	0.41	Win2	0.5636	0.0	Yes	2.724	0.012	2.0	GoodResponse	1	0.366	516.704	4	54	Target	Win	True
517.704	0.3	Win2	0.5636	0.0	Yes	2.724	0.012	2.0	GoodResponse	1	0.366	n/a	4	54	ButtonPress	Win	True
517.739	0.29	Win2	0.5636	n/a	Yes	2.724	n/a	n/a	GoodResponse	1	n/a	n/a	4	54	Blank	Win	True
518.024	1.45	Win2	0.5636	n/a	Yes	2.724	n/a	5.0	GoodResponse	1	0.046	517.07	4	54	Feedback	Win	True
519.478	2.724	Win2	0.5636	n/a	Yes	2.724	n/a	n/a	GoodResponse	1	0.0	n/a	4	54	ISIslide	Win	True
522.219	0.25	Control	0.5714	0.001	Yes	3.031	0.019	n/a	GoodResponse	0	n/a	n/a	4	55	Cue	Neutral	True
522.47	3.95	Control	0.5714	0.0	Yes	3.031	0.001	n/a	GoodResponse	0	n/a	n/a	4	55	Fixation	Neutral	True
526.415	0.42	Control	0.5714	0.004	Yes	3.031	-0.004	2.0	GoodResponse	0	0.232	525.647	4	55	Target	Neutral	True
526.647	0.3	Control	0.5714	0.004	Yes	3.031	-0.004	2.0	GoodResponse	0	0.232	n/a	4	55	ButtonPress	Neutral	True
526.85	0.28	Control	0.5714	n/a	Yes	3.031	n/a	n/a	GoodResponse	0	n/a	n/a	4	55	Blank	Neutral	True
527.117	1.45	Control	0.5714	n/a	Yes	3.031	n/a	5.0	GoodResponse	0	0.026	526.143	4	55	Feedback	Neutral	True
528.572	3.031	Control	0.5714	n/a	Yes	3.031	n/a	n/a	GoodResponse	0	0.0	n/a	4	55	ISIslide	Neutral	True
531.614	0.25	Control	0.5789	0.0	Yes	2.836	0.014	n/a	GoodResponse	0	n/a	n/a	4	56	Cue	Neutral	True
531.865	3.95	Control	0.5789	0.0	Yes	2.836	0.001	n/a	GoodResponse	0	n/a	n/a	4	56	Fixation	Neutral	True
535.81	0.43	Control	0.5789	0.004	Yes	2.836	-0.004	2.0	GoodResponse	0	0.216	535.026	4	56	Target	Neutral	True
536.026	0.3	Control	0.5789	0.004	Yes	2.836	-0.004	2.0	GoodResponse	0	0.216	n/a	4	56	ButtonPress	Neutral	True
536.245	0.27	Control	0.5789	n/a	Yes	2.836	n/a	n/a	GoodResponse	0	n/a	n/a	4	56	Blank	Neutral	True
536.512	1.45	Control	0.5789	n/a	Yes	2.836	n/a	5.0	GoodResponse	0	0.046	535.558	4	56	Feedback	Neutral	True
537.967	2.836	Control	0.5789	n/a	Yes	2.836	n/a	n/a	GoodResponse	0	0.0	n/a	4	56	ISIslide	Neutral	True
540.825	0.25	Control	0.5861999999999999	0.0	Yes	3.475	0.025	n/a	GoodResponse	0	n/a	n/a	4	57	Cue	Neutral	True
541.076	4.0	Control	0.5861999999999999	0.0	Yes	3.475	0.001	n/a	GoodResponse	0	n/a	n/a	4	57	Fixation	Neutral	True
545.071	0.44	Control	0.5861999999999999	0.004	Yes	3.475	-0.004	2.0	GoodResponse	0	0.212	544.283	4	57	Target	Neutral	True
545.283	0.3	Control	0.5861999999999999	0.004	Yes	3.475	-0.004	2.0	GoodResponse	0	0.212	n/a	4	57	ButtonPress	Neutral	True
545.523	0.26	Control	0.5861999999999999	n/a	Yes	3.475	n/a	n/a	GoodResponse	0	n/a	n/a	4	57	Blank	Neutral	True
545.773	1.45	Control	0.5861999999999999	n/a	Yes	3.475	n/a	5.0	GoodResponse	0	0.008	544.781	4	57	Feedback	Neutral	True
547.228	3.475	Control	0.5861999999999999	n/a	Yes	3.475	n/a	n/a	GoodResponse	0	0.0	n/a	4	57	ISIslide	Neutral	True
550.721	0.25	Win2	0.5932	0.001	Yes	2.729	0.021	n/a	GoodResponse	1	n/a	n/a	5	58	Cue	Win	True
550.972	4.05	Win2	0.5932	0.0	Yes	2.729	0.001	n/a	GoodResponse	1	n/a	n/a	5	58	Fixation	Win	True
555.018	0.45	Win2	0.5932	0.003	Yes	2.729	-0.003	2.0	GoodResponse	1	0.178	554.196	5	58	Target	Win	True
555.196	0.3	Win2	0.5932	0.003	Yes	2.729	-0.003	2.0	GoodResponse	1	0.178	n/a	5	58	ButtonPress	Win	True
555.469	0.25	Win2	0.5932	n/a	Yes	2.729	n/a	n/a	GoodResponse	1	n/a	n/a	5	58	Blank	Win	True
555.72	1.45	Win2	0.5932	n/a	Yes	2.729	n/a	5.0	GoodResponse	1	0.009	554.729	5	58	Feedback	Win	True
557.174	2.729	Win2	0.5932	n/a	Yes	2.729	n/a	n/a	GoodResponse	1	0.0	n/a	5	58	ISIslide	Win	True
559.916	0.25	Lose2	0.6	0.0	Yes	2.684	0.016	n/a	GoodResponse	0	n/a	n/a	5	59	Cue	AvoidedLoss	True
560.166	4.0	Lose2	0.6	0.001	Yes	2.684	0.0	n/a	GoodResponse	0	n/a	n/a	5	59	Fixation	AvoidedLoss	True
564.162	0.46	Lose2	0.6	0.004	Yes	2.684	-0.004	2.0	GoodResponse	0	0.236	563.398	5	59	Target	AvoidedLoss	True
564.398	0.3	Lose2	0.6	0.004	Yes	2.684	-0.004	2.0	GoodResponse	0	0.236	n/a	5	59	ButtonPress	AvoidedLoss	True
564.63	0.24	Lose2	0.6	n/a	Yes	2.684	n/a	n/a	GoodResponse	0	n/a	n/a	5	59	Blank	AvoidedLoss	True
564.864	1.45	Lose2	0.6	n/a	Yes	2.684	n/a	5.0	GoodResponse	0	0.035	563.899	5	59	Feedback	AvoidedLoss	True
566.318	2.684	Lose2	0.6	n/a	Yes	2.684	n/a	n/a	GoodResponse	0	0.0	n/a	5	59	ISIslide	AvoidedLoss	True
569.026	0.25	Control	0.6065999999999999	0.0	Yes	2.674	0.026	n/a	GoodResponse	0	n/a	n/a	5	60	Cue	Neutral	True
569.277	4.0	Control	0.6065999999999999	0.0	Yes	2.674	0.001	n/a	GoodResponse	0	n/a	n/a	5	60	Fixation	Neutral	True
573.272	0.47	Control	0.6065999999999999	0.004	Yes	2.674	-0.004	2.0	GoodResponse	0	0.252	572.524	5	60	Target	Neutral	True
573.524	0.3	Control	0.6065999999999999	0.004	Yes	2.674	-0.004	2.0	GoodResponse	0	0.252	n/a	5	60	ButtonPress	Neutral	True
573.757	0.23	Control	0.6065999999999999	n/a	Yes	2.674	n/a	n/a	GoodResponse	0	n/a	n/a	5	60	Blank	Neutral	True
573.975	1.45	Control	0.6065999999999999	n/a	Yes	2.674	n/a	5.0	GoodResponse	0	0.045	573.02	5	60	Feedback	Neutral	True
575.429	2.674	Control	0.6065999999999999	n/a	Yes	2.674	n/a	n/a	GoodResponse	0	0.0	n/a	5	60	ISIslide	Neutral	True
578.12	0.25	Lose2	0.6129	0.0	Yes	2.98	0.02	n/a	GoodResponse	0	n/a	n/a	5	61	Cue	AvoidedLoss	True
578.371	4.0	Lose2	0.6129	0.0	Yes	2.98	0.001	n/a	GoodResponse	0	n/a	n/a	5	61	Fixation	AvoidedLoss	True
582.366	0.48	Lose2	0.6129	0.004	Yes	2.98	-0.004	2.0	GoodResponse	0	0.218	581.584	5	61	Target	AvoidedLoss	True
582.584	0.3	Lose2	0.6129	0.004	Yes	2.98	-0.004	2.0	GoodResponse	0	0.218	n/a	5	61	ButtonPress	AvoidedLoss	True
582.851	0.22	Lose2	0.6129	n/a	Yes	2.98	n/a	n/a	GoodResponse	0	n/a	n/a	5	61	Blank	AvoidedLoss	True
583.068	1.45	Lose2	0.6129	n/a	Yes	2.98	n/a	5.0	GoodResponse	0	0.026	582.094	5	61	Feedback	AvoidedLoss	True
584.523	2.98	Lose2	0.6129	n/a	Yes	2.98	n/a	n/a	GoodResponse	0	0.0	n/a	5	61	ISIslide	AvoidedLoss	True
587.515	0.25	Lose2	0.619	0.0	Yes	2.885	0.015	n/a	GoodResponse	0	n/a	n/a	5	62	Cue	AvoidedLoss	True
587.766	3.9	Lose2	0.619	0.0	Yes	2.885	0.001	n/a	GoodResponse	0	n/a	n/a	5	62	Fixation	AvoidedLoss	True
591.661	0.49	Lose2	0.619	0.004	Yes	2.885	-0.004	2.0	GoodResponse	0	0.432	591.093	5	62	Target	AvoidedLoss	True
592.093	0.3	Lose2	0.619	0.004	Yes	2.885	-0.004	2.0	GoodResponse	0	0.432	n/a	5	62	ButtonPress	AvoidedLoss	True
592.162	0.21	Lose2	0.619	n/a	Yes	2.885	n/a	n/a	GoodResponse	0	n/a	n/a	5	62	Blank	AvoidedLoss	True
592.363	1.45	Lose2	0.619	n/a	Yes	2.885	n/a	5.0	GoodResponse	0	0.048	591.411	5	62	Feedback	AvoidedLoss	True
593.817	2.885	Lose2	0.619	n/a	Yes	2.885	n/a	n/a	GoodResponse	0	0.0	n/a	5	62	ISIslide	AvoidedLoss	True
596.726	0.25	Lose2	0.625	0.0	Yes	2.624	0.026	n/a	GoodResponse	0	n/a	n/a	5	63	Cue	AvoidedLoss	True
596.977	4.05	Lose2	0.625	0.0	Yes	2.624	0.001	n/a	GoodResponse	0	n/a	n/a	5	63	Fixation	AvoidedLoss	True
601.022	0.5	Lose2	0.625	0.004	Yes	2.624	-0.004	2.0	GoodResponse	0	0.368	600.39	5	63	Target	AvoidedLoss	True
601.39	0.3	Lose2	0.625	0.004	Yes	2.624	-0.004	2.0	GoodResponse	0	0.368	n/a	5	63	ButtonPress	AvoidedLoss	True
601.524	0.2	Lose2	0.625	n/a	Yes	2.624	n/a	n/a	GoodResponse	0	n/a	n/a	5	63	Blank	AvoidedLoss	True
601.724	1.45	Lose2	0.625	n/a	Yes	2.624	n/a	5.0	GoodResponse	0	0.005	600.729	5	63	Feedback	AvoidedLoss	True
603.179	2.624	Lose2	0.625	n/a	Yes	2.624	n/a	n/a	GoodResponse	0	0.0	n/a	5	63	ISIslide	AvoidedLoss	True
605.82	0.25	Win2	0.6308	0.0	Yes	3.13	0.02	n/a	GoodResponse	1	n/a	n/a	6	64	Cue	Win	True
606.071	4.15	Win2	0.6308	0.0	Yes	3.13	0.001	n/a	GoodResponse	1	n/a	n/a	6	64	Fixation	Win	True
610.216	0.5	Win2	0.6308	0.004	Yes	3.13	-0.004	2.0	GoodResponse	1	0.236	609.452	6	64	Target	Win	True
610.452	0.3	Win2	0.6308	0.004	Yes	3.13	-0.004	2.0	GoodResponse	1	0.236	n/a	6	64	ButtonPress	Win	True
610.718	0.2	Win2	0.6308	n/a	Yes	3.13	n/a	n/a	GoodResponse	1	n/a	n/a	6	64	Blank	Win	True
610.919	1.45	Win2	0.6308	n/a	Yes	3.13	n/a	5.0	GoodResponse	1	0.029	609.948	6	64	Feedback	Win	True
612.373	3.13	Win2	0.6308	n/a	Yes	3.13	n/a	n/a	GoodResponse	1	0.0	n/a	6	64	ISIslide	Win	True
615.516	0.25	Control	0.6364	0.0	Yes	2.784	0.016	n/a	GoodResponse	0	n/a	n/a	6	65	Cue	Neutral	True
615.766	4.0	Control	0.6364	0.0	Yes	2.784	0.0	n/a	GoodResponse	0	n/a	n/a	6	65	Fixation	Neutral	True
619.762	0.5	Control	0.6364	0.004	Yes	2.784	-0.004	2.0	GoodResponse	0	0.2	618.962	6	65	Target	Neutral	True
619.962	0.3	Control	0.6364	0.004	Yes	2.784	-0.004	2.0	GoodResponse	0	0.2	n/a	6	65	ButtonPress	Neutral	True
620.263	0.2	Control	0.6364	n/a	Yes	2.784	n/a	n/a	GoodResponse	0	n/a	n/a	6	65	Blank	Neutral	True
620.464	1.45	Control	0.6364	n/a	Yes	2.784	n/a	5.0	GoodResponse	0	0.045	619.509	6	65	Feedback	Neutral	True
621.918	2.784	Control	0.6364	n/a	Yes	2.784	n/a	n/a	GoodResponse	0	0.0	n/a	6	65	ISIslide	Neutral	True
624.727	0.25	Win2	0.6418	0.0	Yes	2.773	0.027	n/a	GoodResponse	1	n/a	n/a	7	66	Cue	Win	True
624.977	3.9	Win2	0.6418	0.0	Yes	2.773	0.0	n/a	GoodResponse	1	n/a	n/a	7	66	Fixation	Win	True
628.889	0.5	Win2	0.6418	0.0	Yes	2.773	0.012	2.0	GoodResponse	1	0.322	628.211	7	66	Target	Win	True
629.211	0.3	Win2	0.6418	0.0	Yes	2.773	0.012	2.0	GoodResponse	1	0.322	n/a	7	66	ButtonPress	Win	True
629.374	0.2	Win2	0.6418	n/a	Yes	2.773	n/a	n/a	GoodResponse	1	n/a	n/a	7	66	Blank	Win	True
629.574	1.45	Win2	0.6418	n/a	Yes	2.773	n/a	5.0	GoodResponse	1	0.007	628.581	7	66	Feedback	Win	True
631.029	2.773	Win2	0.6418	n/a	Yes	2.773	n/a	n/a	GoodResponse	1	0.0	n/a	7	66	ISIslide	Win	True
633.821	0.25	Control	0.6470999999999999	0.0	Yes	2.729	0.021	n/a	GoodResponse	0	n/a	n/a	7	67	Cue	Neutral	True
634.071	3.95	Control	0.6470999999999999	0.0	Yes	2.729	0.0	n/a	GoodResponse	0	n/a	n/a	7	67	Fixation	Neutral	True
638.033	0.5	Control	0.6470999999999999	0.0	Yes	2.729	0.012	2.0	GoodResponse	0	0.288	637.321	7	67	Target	Neutral	True
638.321	0.3	Control	0.6470999999999999	0.0	Yes	2.729	0.012	2.0	GoodResponse	0	0.288	n/a	7	67	ButtonPress	Neutral	True
638.518	0.2	Control	0.6470999999999999	n/a	Yes	2.729	n/a	n/a	GoodResponse	0	n/a	n/a	7	67	Blank	Neutral	True
638.719	1.45	Control	0.6470999999999999	n/a	Yes	2.729	n/a	5.0	GoodResponse	0	0.033	637.752	7	67	Feedback	Neutral	True
640.173	2.729	Control	0.6470999999999999	n/a	Yes	2.729	n/a	n/a	GoodResponse	0	0.0	n/a	7	67	ISIslide	Neutral	True
642.914	0.25	Win2	0.6522	0.0	Yes	3.086	0.014	n/a	GoodResponse	1	n/a	n/a	8	68	Cue	Win	True
643.165	4.0	Win2	0.6522	0.0	Yes	3.086	0.001	n/a	GoodResponse	1	n/a	n/a	8	68	Fixation	Win	True
647.16	0.5	Win2	0.6522	0.004	Yes	3.086	-0.004	2.0	GoodResponse	1	0.234	646.394	8	68	Target	Win	True
647.394	0.3	Win2	0.6522	0.004	Yes	3.086	-0.004	2.0	GoodResponse	1	0.234	n/a	8	68	ButtonPress	Win	True
647.662	0.2	Win2	0.6522	n/a	Yes	3.086	n/a	n/a	GoodResponse	1	n/a	n/a	8	68	Blank	Win	True
647.863	1.45	Win2	0.6522	n/a	Yes	3.086	n/a	5.0	GoodResponse	1	0.011	646.874	8	68	Feedback	Win	True
649.317	3.086	Win2	0.6522	n/a	Yes	3.086	n/a	n/a	GoodResponse	1	0.0	n/a	8	68	ISIslide	Win	True
652.426	0.25	Win2	0.6570999999999999	0.0	Yes	3.224	0.026	n/a	GoodResponse	1	n/a	n/a	9	69	Cue	Win	True
652.677	3.95	Win2	0.6570999999999999	0.0	Yes	3.224	0.001	n/a	GoodResponse	1	n/a	n/a	9	69	Fixation	Win	True
656.622	0.5	Win2	0.6570999999999999	0.004	Yes	3.224	-0.004	2.0	GoodResponse	1	0.212	655.834	9	69	Target	Win	True
656.834	0.3	Win2	0.6570999999999999	0.004	Yes	3.224	-0.004	2.0	GoodResponse	1	0.212	n/a	9	69	ButtonPress	Win	True
657.124	0.2	Win2	0.6570999999999999	n/a	Yes	3.224	n/a	n/a	GoodResponse	1	n/a	n/a	9	69	Blank	Win	True
657.324	1.45	Win2	0.6570999999999999	n/a	Yes	3.224	n/a	5.0	GoodResponse	1	0.013	656.337	9	69	Feedback	Win	True
658.779	3.224	Win2	0.6570999999999999	n/a	Yes	3.224	n/a	n/a	GoodResponse	1	0.0	n/a	9	69	ISIslide	Win	True
662.022	0.25	Lose2	0.662	0.0	Yes	3.028	0.022	n/a	GoodResponse	0	n/a	n/a	9	70	Cue	AvoidedLoss	True
662.272	4.05	Lose2	0.662	0.0	Yes	3.028	0.0	n/a	GoodResponse	0	n/a	n/a	9	70	Fixation	AvoidedLoss	True
666.318	0.5	Lose2	0.662	0.004	Yes	3.028	-0.004	2.0	GoodResponse	0	0.204	665.522	9	70	Target	AvoidedLoss	True
666.522	0.3	Lose2	0.662	0.004	Yes	3.028	-0.004	2.0	GoodResponse	0	0.204	n/a	9	70	ButtonPress	AvoidedLoss	True
666.819	0.2	Lose2	0.662	n/a	Yes	3.028	n/a	n/a	GoodResponse	0	n/a	n/a	9	70	Blank	AvoidedLoss	True
667.02	1.45	Lose2	0.662	n/a	Yes	3.028	n/a	5.0	GoodResponse	0	0.025	666.045	9	70	Feedback	AvoidedLoss	True
668.474	3.028	Lose2	0.662	n/a	Yes	3.028	n/a	n/a	GoodResponse	0	0.0	n/a	9	70	ISIslide	AvoidedLoss	True
671.517	0.25	Win2	0.6667000000000001	0.0	Yes	2.733	0.017	n/a	GoodResponse	1	n/a	n/a	10	71	Cue	Win	True
671.768	4.05	Win2	0.6667000000000001	0.0	Yes	2.733	0.001	n/a	GoodResponse	1	n/a	n/a	10	71	Fixation	Win	True
675.813	0.5	Win2	0.6667000000000001	0.004	Yes	2.733	-0.004	2.0	GoodResponse	1	0.257	675.07	10	71	Target	Win	True
676.07	0.3	Win2	0.6667000000000001	0.004	Yes	2.733	-0.004	2.0	GoodResponse	1	0.257	n/a	10	71	ButtonPress	Win	True
676.314	0.2	Win2	0.6667000000000001	n/a	Yes	2.733	n/a	n/a	GoodResponse	1	n/a	n/a	10	71	Blank	Win	True
676.515	1.45	Win2	0.6667000000000001	n/a	Yes	2.733	n/a	5.0	GoodResponse	1	0.042	675.557	10	71	Feedback	Win	True
677.969	2.733	Win2	0.6667000000000001	n/a	Yes	2.733	n/a	n/a	GoodResponse	1	0.0	n/a	10	71	ISIslide	Win	True
680.728	0.25	Win2	0.6712	0.0	Yes	2.772	0.028	n/a	GoodResponse	1	n/a	n/a	11	72	Cue	Win	True
680.978	4.1	Win2	0.6712	0.001	Yes	2.772	0.0	n/a	GoodResponse	1	n/a	n/a	11	72	Fixation	Win	True
685.074	0.49	Win2	0.6712	0.004	Yes	2.772	-0.004	2.0	GoodResponse	1	0.207	684.281	11	72	Target	Win	True
685.281	0.3	Win2	0.6712	0.004	Yes	2.772	-0.004	2.0	GoodResponse	1	0.207	n/a	11	72	ButtonPress	Win	True
685.576	0.21	Win2	0.6712	n/a	Yes	2.772	n/a	n/a	GoodResponse	1	n/a	n/a	11	72	Blank	Win	True
685.776	1.45	Win2	0.6712	n/a	Yes	2.772	n/a	5.0	GoodResponse	1	0.0	684.776	11	72	Feedback	Win	True
687.231	2.772	Win2	0.6712	n/a	Yes	2.772	n/a	n/a	GoodResponse	1	0.0	n/a	11	72	ISIslide	Win	True
690.022	0.25	Win2	0.6757	0.0	Yes	2.678	0.022	n/a	GoodResponse	1	n/a	n/a	12	73	Cue	Win	True
690.273	4.0	Win2	0.6757	0.0	Yes	2.678	0.001	n/a	GoodResponse	1	n/a	n/a	12	73	Fixation	Win	True
694.268	0.48	Win2	0.6757	0.004	Yes	2.678	-0.004	2.0	GoodResponse	1	0.3	693.568	12	73	Target	Win	True
694.568	0.3	Win2	0.6757	0.004	Yes	2.678	-0.004	2.0	GoodResponse	1	0.3	n/a	12	73	ButtonPress	Win	True
694.753	0.22	Win2	0.6757	n/a	Yes	2.678	n/a	n/a	GoodResponse	1	n/a	n/a	12	73	Blank	Win	True
694.97	1.45	Win2	0.6757	n/a	Yes	2.678	n/a	5.0	GoodResponse	1	0.025	693.995	12	73	Feedback	Win	True
696.425	2.678	Win2	0.6757	n/a	Yes	2.678	n/a	n/a	GoodResponse	1	0.0	n/a	12	73	ISIslide	Win	True
699.116	0.25	Lose2	0.68	0.0	Yes	2.634	0.016	n/a	GoodResponse	0	n/a	n/a	12	74	Cue	AvoidedLoss	True
699.367	4.05	Lose2	0.68	0.0	Yes	2.634	0.001	n/a	GoodResponse	0	n/a	n/a	12	74	Fixation	AvoidedLoss	True
703.412	0.47	Lose2	0.68	0.004	Yes	2.634	-0.004	2.0	GoodResponse	0	0.175	702.587	12	74	Target	AvoidedLoss	True
703.587	0.3	Lose2	0.68	0.004	Yes	2.634	-0.004	2.0	GoodResponse	0	0.175	n/a	12	74	ButtonPress	AvoidedLoss	True
703.897	0.23	Lose2	0.68	n/a	Yes	2.634	n/a	n/a	GoodResponse	0	n/a	n/a	12	74	Blank	AvoidedLoss	True
704.114	1.45	Lose2	0.68	n/a	Yes	2.634	n/a	5.0	GoodResponse	0	0.004	703.118	12	74	Feedback	AvoidedLoss	True
705.569	2.634	Lose2	0.68	n/a	Yes	2.634	n/a	n/a	GoodResponse	0	0.0	n/a	12	74	ISIslide	AvoidedLoss	True
708.227	0.25	Lose2	0.6842	0.0	Yes	2.923	0.027	n/a	GoodResponse	0	n/a	n/a	12	75	Cue	AvoidedLoss	True
708.478	3.95	Lose2	0.6842	0.0	Yes	2.923	0.001	n/a	GoodResponse	0	n/a	n/a	12	75	Fixation	AvoidedLoss	True
712.423	0.46	Lose2	0.6842	0.004	Yes	2.923	-0.004	2.0	GoodResponse	0	0.215	711.638	12	75	Target	AvoidedLoss	True
712.638	0.3	Lose2	0.6842	0.004	Yes	2.923	-0.004	2.0	GoodResponse	0	0.215	n/a	12	75	ButtonPress	AvoidedLoss	True
712.891	0.24	Lose2	0.6842	n/a	Yes	2.923	n/a	n/a	GoodResponse	0	n/a	n/a	12	75	Blank	AvoidedLoss	True
713.125	1.45	Lose2	0.6842	n/a	Yes	2.923	n/a	5.0	GoodResponse	0	0.017	712.142	12	75	Feedback	AvoidedLoss	True
714.579	2.923	Lose2	0.6842	n/a	Yes	2.923	n/a	n/a	GoodResponse	0	0.0	n/a	12	75	ISIslide	AvoidedLoss	True
717.521	0.25	Control	0.6883	0.0	Yes	3.229	0.021	n/a	GoodResponse	0	n/a	n/a	12	76	Cue	Neutral	True
717.772	4.05	Control	0.6883	0.0	Yes	3.229	0.001	n/a	GoodResponse	0	n/a	n/a	12	76	Fixation	Neutral	True
721.818	0.45	Control	0.6883	0.003	Yes	3.229	-0.003	2.0	GoodResponse	0	0.19	721.008	12	76	Target	Neutral	True
722.008	0.3	Control	0.6883	0.003	Yes	3.229	-0.003	2.0	GoodResponse	0	0.19	n/a	12	76	ButtonPress	Neutral	True
722.269	0.25	Control	0.6883	n/a	Yes	3.229	n/a	n/a	GoodResponse	0	n/a	n/a	12	76	Blank	Neutral	True
722.52	1.45	Control	0.6883	n/a	Yes	3.229	n/a	5.0	GoodResponse	0	0.037	721.557	12	76	Feedback	Neutral	True
723.974	3.229	Control	0.6883	n/a	Yes	3.229	n/a	n/a	GoodResponse	0	0.0	n/a	12	76	ISIslide	Neutral	True
727.217	0.25	Lose2	0.6923	0.0	Yes	2.583	0.017	n/a	GoodResponse	0	n/a	n/a	12	77	Cue	AvoidedLoss	True
727.468	3.95	Lose2	0.6923	0.0	Yes	2.583	0.001	n/a	GoodResponse	0	n/a	n/a	12	77	Fixation	AvoidedLoss	True
731.413	0.44	Lose2	0.6923	0.004	Yes	2.583	-0.004	2.0	GoodResponse	0	0.133	730.546	12	77	Target	AvoidedLoss	True
731.546	0.3	Lose2	0.6923	0.004	Yes	2.583	-0.004	2.0	GoodResponse	0	0.133	n/a	12	77	ButtonPress	AvoidedLoss	True
731.864	0.26	Lose2	0.6923	n/a	Yes	2.583	n/a	n/a	GoodResponse	0	n/a	n/a	12	77	Blank	AvoidedLoss	True
732.115	1.45	Lose2	0.6923	n/a	Yes	2.583	n/a	5.0	GoodResponse	0	0.004	731.119	12	77	Feedback	AvoidedLoss	True
733.569	2.583	Lose2	0.6923	n/a	Yes	2.583	n/a	n/a	GoodResponse	0	0.0	n/a	12	77	ISIslide	AvoidedLoss	True
