onset	duration	cue_type	current_mean_accuracy	duration_error	is_hit	isi_adjusted	onset_delay	response	response_type	reward	rt	rt_time	total_reward	trial_number	trial_phase	trial_type	one_press
11.102	0.25	Control	1.0	0.0	Yes	2.948	0.002	n/a	GoodResponse	0	n/a	n/a	0	0	Cue	Neutral	True
11.353	3.85	Control	1.0	0.0	Yes	2.948	0.001	n/a	GoodResponse	0	n/a	n/a	0	0	Fixation	Neutral	True
15.198	0.4	Control	1.0	0.004	Yes	2.948	-0.004	2.0	GoodResponse	0	0.238	14.436	0	0	Target	Neutral	True
15.436	0.3	Control	1.0	0.004	Yes	2.948	-0.004	2.0	GoodResponse	0	0.238	n/a	0	0	ButtonPress	Neutral	True
15.599	0.3	Control	1.0	n/a	Yes	2.948	n/a	n/a	GoodResponse	0	n/a	n/a	0	0	Blank	Neutral	True
15.9	1.45	Control	1.0	n/a	Yes	2.948	n/a	5.0	GoodResponse	0	0.026	14.926	0	0	Feedback	Neutral	True
17.354	2.948	Control	1.0	n/a	Yes	2.948	n/a	n/a	GoodResponse	0	0.0	n/a	0	0	ISIslide	Neutral	True
20.33	0.25	Lose2	1.0	0.0	Yes	2.77	0.03	n/a	GoodResponse	0	n/a	n/a	0	1	Cue	AvoidedLoss	True
20.581	4.0	Lose2	1.0	0.0	Yes	2.77	0.001	n/a	GoodResponse	0	n/a	n/a	0	1	Fixation	AvoidedLoss	True
24.576	0.39	Lose2	1.0	0.004	Yes	2.77	-0.004	2.0	GoodResponse	0	0.192	23.768	0	1	Target	AvoidedLoss	True
24.768	0.3	Lose2	1.0	0.004	Yes	2.77	-0.004	2.0	GoodResponse	0	0.192	n/a	0	1	ButtonPress	AvoidedLoss	True
24.977	0.31	Lose2	1.0	n/a	Yes	2.77	n/a	n/a	GoodResponse	0	n/a	n/a	0	1	Blank	AvoidedLoss	True
25.278	1.45	Lose2	1.0	n/a	Yes	2.77	n/a	5.0	GoodResponse	0	0.014	24.292	0	1	Feedback	AvoidedLoss	True
26.732	2.77	Lose2	1.0	n/a	Yes	2.77	n/a	n/a	GoodResponse	0	0.0	n/a	0	1	ISIslide	AvoidedLoss	True
29.524	0.25	Control	1.0	0.0	Yes	2.576	0.024	n/a	GoodResponse	0	n/a	n/a	0	2	Cue	Neutral	True
29.775	4.1	Control	1.0	0.0	Yes	2.576	0.001	n/a	GoodResponse	0	n/a	n/a	0	2	Fixation	Neutral	True
33.87	0.38	Control	1.0	0.004	Yes	2.576	-0.004	2.0	GoodResponse	0	0.231	33.101	0	2	Target	Neutral	True
34.101	0.3	Control	1.0	0.004	Yes	2.576	-0.004	2.0	GoodResponse	0	0.231	n/a	0	2	ButtonPress	Neutral	True
34.255	0.32	Control	1.0	n/a	Yes	2.576	n/a	n/a	GoodResponse	0	n/a	n/a	0	2	Blank	Neutral	True
34.573	1.45	Control	1.0	n/a	Yes	2.576	n/a	5.0	GoodResponse	0	0.036	33.609	0	2	Feedback	Neutral	True
36.027	2.576	Control	1.0	n/a	Yes	2.576	n/a	n/a	GoodResponse	0	0.0	n/a	0	2	ISIslide	Neutral	True
38.618	0.25	Win2	1.0	0.0	Yes	2.832	0.018	n/a	GoodResponse	1	n/a	n/a	1	3	Cue	Win	True
38.869	3.95	Win2	1.0	0.0	Yes	2.832	0.001	n/a	GoodResponse	1	n/a	n/a	1	3	Fixation	Win	True
42.814	0.37	Win2	1.0	0.004	Yes	2.832	-0.004	2.0	GoodResponse	1	0.203	42.017	1	3	Target	Win	True
43.017	0.3	Win2	1.0	0.004	Yes	2.832	-0.004	2.0	GoodResponse	1	0.203	n/a	1	3	ButtonPress	Win	True
43.198	0.33	Win2	1.0	n/a	Yes	2.832	n/a	n/a	GoodResponse	1	n/a	n/a	1	3	Blank	Win	True
43.516	1.45	Win2	1.0	n/a	Yes	2.832	n/a	5.0	GoodResponse	1	0.02	42.536	1	3	Feedback	Win	True
44.97	2.832	Win2	1.0	n/a	Yes	2.832	n/a	n/a	GoodResponse	1	0.0	n/a	1	3	ISIslide	Win	True
47.829	0.25	Win2	1.0	0.0	Yes	3.271	0.029	n/a	GoodResponse	1	n/a	n/a	2	4	Cue	Win	False
48.08	4.0	Win2	1.0	0.0	Yes	3.271	0.001	2.0	GoodResponse	1	3.539	50.619	2	4	Fixation	Win	False
51.619	0.3	Win2	1.0	0.0	Yes	3.271	0.001	2.0	GoodResponse	1	3.539	n/a	2	4	ButtonPress	Win	False
52.075	0.36	Win2	1.0	0.004	Yes	3.271	-0.004	2.0	GoodResponse	1	0.323	51.398	2	4	Target	Win	False
52.398	0.3	Win2	1.0	0.004	Yes	3.271	-0.004	2.0	GoodResponse	1	0.323	n/a	2	4	ButtonPress	Win	False
52.443	0.34	Win2	1.0	n/a	Yes	3.271	n/a	n/a	GoodResponse	1	n/a	n/a	2	4	Blank	Win	False
52.777	1.45	Win2	1.0	n/a	Yes	3.271	n/a	5.0	GoodResponse	1	0.026	51.803	2	4	Feedback	Win	False
54.231	3.271	Win2	1.0	n/a	Yes	3.271	n/a	n/a	GoodResponse	1	0.0	n/a	2	4	ISIslide	Win	False
57.524	0.25	Win2	1.0	0.001	Yes	2.776	0.024	n/a	GoodResponse	1	n/a	n/a	3	5	Cue	Win	True
57.775	4.0	Win2	1.0	0.0	Yes	2.776	0.001	n/a	GoodResponse	1	n/a	n/a	3	5	Fixation	Win	True
61.77	0.35	Win2	1.0	0.004	Yes	2.776	-0.004	2.0	GoodResponse	1	0.247	61.017	3	5	Target	Win	True
62.017	0.3	Win2	1.0	0.004	Yes	2.776	-0.004	2.0	GoodResponse	1	0.247	n/a	3	5	ButtonPress	Win	True
62.122	0.35	Win2	1.0	n/a	Yes	2.776	n/a	n/a	GoodResponse	1	n/a	n/a	3	5	Blank	Win	True
62.473	1.45	Win2	1.0	n/a	Yes	2.776	n/a	5.0	GoodResponse	1	0.038	61.511	3	5	Feedback	Win	True
63.927	2.776	Win2	1.0	n/a	Yes	2.776	n/a	n/a	GoodResponse	1	0.0	n/a	3	5	ISIslide	Win	True
66.719	0.25	Lose2	1.0	0.0	Yes	2.731	0.019	n/a	GoodResponse	0	n/a	n/a	3	6	Cue	AvoidedLoss	True
66.969	3.95	Lose2	1.0	0.0	Yes	2.731	0.0	n/a	GoodResponse	0	n/a	n/a	3	6	Fixation	AvoidedLoss	True
70.915	0.34	Lose2	1.0	0.004	Yes	2.731	-0.004	2.0	GoodResponse	0	0.202	70.117	3	6	Target	AvoidedLoss	True
71.117	0.3	Lose2	1.0	0.004	Yes	2.731	-0.004	2.0	GoodResponse	0	0.202	n/a	3	6	ButtonPress	AvoidedLoss	True
71.266	0.36	Lose2	1.0	n/a	Yes	2.731	n/a	n/a	GoodResponse	0	n/a	n/a	3	6	Blank	AvoidedLoss	True
71.617	1.45	Lose2	1.0	n/a	Yes	2.731	n/a	5.0	GoodResponse	0	0.016	70.633	3	6	Feedback	AvoidedLoss	True
73.071	2.731	Lose2	1.0	n/a	Yes	2.731	n/a	n/a	GoodResponse	0	0.0	n/a	3	6	ISIslide	AvoidedLoss	True
75.829	0.25	Lose2	1.0	0.0	Yes	4.021	0.029	n/a	GoodResponse	0	n/a	n/a	3	7	Cue	AvoidedLoss	True
76.08	4.05	Lose2	1.0	0.0	Yes	4.021	0.001	n/a	GoodResponse	0	n/a	n/a	3	7	Fixation	AvoidedLoss	True
80.125	0.33	Lose2	1.0	0.004	Yes	4.021	-0.004	2.0	GoodResponse	0	0.228	79.353	3	7	Target	AvoidedLoss	True
80.353	0.3	Lose2	1.0	0.004	Yes	4.021	-0.004	2.0	GoodResponse	0	0.228	n/a	3	7	ButtonPress	AvoidedLoss	True
80.46	0.37	Lose2	1.0	n/a	Yes	4.021	n/a	n/a	GoodResponse	0	n/a	n/a	3	7	Blank	AvoidedLoss	True
80.827	1.45	Lose2	1.0	n/a	Yes	4.021	n/a	5.0	GoodResponse	0	0.025	79.852	3	7	Feedback	AvoidedLoss	True
82.282	4.021	Lose2	1.0	n/a	Yes	4.021	n/a	n/a	GoodResponse	0	0.0	n/a	3	7	ISIslide	AvoidedLoss	True
86.327	0.25	Lose2	1.0	0.0	Yes	3.023	0.027	n/a	GoodResponse	0	n/a	n/a	3	8	Cue	AvoidedLoss	True
86.578	3.95	Lose2	1.0	0.0	Yes	3.023	0.001	n/a	GoodResponse	0	n/a	n/a	3	8	Fixation	AvoidedLoss	True
90.523	0.32	Lose2	1.0	0.004	Yes	3.023	-0.004	2.0	GoodResponse	0	0.212	89.735	3	8	Target	AvoidedLoss	True
90.735	0.3	Lose2	1.0	0.004	Yes	3.023	-0.004	2.0	GoodResponse	0	0.212	n/a	3	8	ButtonPress	AvoidedLoss	True
90.857	0.38	Lose2	1.0	n/a	Yes	3.023	n/a	n/a	GoodResponse	0	n/a	n/a	3	8	Blank	AvoidedLoss	True
91.225	1.45	Lose2	1.0	n/a	Yes	3.023	n/a	5.0	GoodResponse	0	0.017	90.242	3	8	Feedback	AvoidedLoss	True
92.68	3.023	Lose2	1.0	n/a	Yes	3.023	n/a	n/a	GoodResponse	0	0.0	n/a	3	8	ISIslide	AvoidedLoss	True
95.722	0.25	Lose2	1.0	0.0	Yes	3.128	0.022	n/a	GoodResponse	0	n/a	n/a	3	9	Cue	AvoidedLoss	True
95.973	3.95	Lose2	1.0	0.0	Yes	3.128	0.001	n/a	GoodResponse	0	n/a	n/a	3	9	Fixation	AvoidedLoss	True
99.918	0.31	Lose2	1.0	0.004	Yes	3.128	-0.004	2.0	GoodResponse	0	0.181	99.099	3	9	Target	AvoidedLoss	True
100.099	0.3	Lose2	1.0	0.004	Yes	3.128	-0.004	2.0	GoodResponse	0	0.181	n/a	3	9	ButtonPress	AvoidedLoss	True
100.236	0.39	Lose2	1.0	n/a	Yes	3.128	n/a	n/a	GoodResponse	0	n/a	n/a	3	9	Blank	AvoidedLoss	True
100.62	1.45	Lose2	1.0	n/a	Yes	3.128	n/a	5.0	GoodResponse	0	0.036	99.656	3	9	Feedback	AvoidedLoss	True
102.074	3.128	Lose2	1.0	n/a	Yes	3.128	n/a	n/a	GoodResponse	0	0.0	n/a	3	9	ISIslide	AvoidedLoss	True
105.217	0.25	Control	1.0	0.0	Yes	3.283	0.017	n/a	GoodResponse	0	n/a	n/a	3	10	Cue	Neutral	True
105.468	4.0	Control	1.0	0.0	Yes	3.283	0.001	n/a	GoodResponse	0	n/a	n/a	3	10	Fixation	Neutral	True
109.463	0.3	Control	1.0	0.004	Yes	3.283	-0.004	2.0	GoodResponse	0	0.205	108.668	3	10	Target	Neutral	True
109.668	0.3	Control	1.0	0.004	Yes	3.283	-0.004	2.0	GoodResponse	0	0.205	n/a	3	10	ButtonPress	Neutral	True
109.764	0.4	Control	1.0	n/a	Yes	3.283	n/a	n/a	GoodResponse	0	n/a	n/a	3	10	Blank	Neutral	True
110.165	1.45	Control	1.0	n/a	Yes	3.283	n/a	5.0	GoodResponse	0	0.008	109.173	3	10	Feedback	Neutral	True
111.62	3.283	Control	1.0	n/a	Yes	3.283	n/a	n/a	GoodResponse	0	0.0	n/a	3	10	ISIslide	Neutral	True
114.929	0.25	Lose2	1.0	0.001	Yes	2.721	0.029	n/a	GoodResponse	0	n/a	n/a	3	11	Cue	AvoidedLoss	True
115.18	4.05	Lose2	1.0	0.0	Yes	2.721	0.001	n/a	GoodResponse	0	n/a	n/a	3	11	Fixation	AvoidedLoss	True
119.226	0.29	Lose2	1.0	0.003	Yes	2.721	-0.003	2.0	GoodResponse	0	0.213	118.439	3	11	Target	AvoidedLoss	True
119.439	0.3	Lose2	1.0	0.003	Yes	2.721	-0.003	2.0	GoodResponse	0	0.213	n/a	3	11	ButtonPress	AvoidedLoss	True
119.527	0.41	Lose2	1.0	n/a	Yes	2.721	n/a	n/a	GoodResponse	0	n/a	n/a	3	11	Blank	AvoidedLoss	True
119.928	1.45	Lose2	1.0	n/a	Yes	2.721	n/a	5.0	GoodResponse	0	0.046	118.974	3	11	Feedback	AvoidedLoss	True
121.382	2.721	Lose2	1.0	n/a	Yes	2.721	n/a	n/a	GoodResponse	0	0.0	n/a	3	11	ISIslide	AvoidedLoss	True
124.124	0.25	Control	1.0	0.0	Yes	2.976	0.024	n/a	GoodResponse	0	n/a	n/a	3	12	Cue	Neutral	True
124.374	3.9	Control	1.0	0.0	Yes	2.976	0.0	n/a	GoodResponse	0	n/a	n/a	3	12	Fixation	Neutral	True
128.286	0.28	Control	1.0	0.0	Yes	2.976	0.012	2.0	GoodResponse	0	0.191	127.477	3	12	Target	Neutral	True
128.477	0.3	Control	1.0	0.0	Yes	2.976	0.012	2.0	GoodResponse	0	0.191	n/a	3	12	ButtonPress	Neutral	True
128.554	0.42	Control	1.0	n/a	Yes	2.976	n/a	n/a	GoodResponse	0	n/a	n/a	3	12	Blank	Neutral	True
128.971	1.45	Control	1.0	n/a	Yes	2.976	n/a	5.0	GoodResponse	0	0.027	127.998	3	12	Feedback	Neutral	True
130.426	2.976	Control	1.0	n/a	Yes	2.976	n/a	n/a	GoodResponse	0	0.0	n/a	3	12	ISIslide	Neutral	True
133.418	0.25	Control	1.0	0.0	Yes	2.782	0.018	n/a	GoodResponse	0	n/a	n/a	3	13	Cue	Neutral	True
133.669	4.0	Control	1.0	0.0	Yes	2.782	0.001	n/a	GoodResponse	0	n/a	n/a	3	13	Fixation	Neutral	True
137.664	0.27	Control	1.0	0.004	Yes	2.782	-0.004	2.0	GoodResponse	0	0.223	136.887	3	13	Target	Neutral	True
137.887	0.3	Control	1.0	0.004	Yes	2.782	-0.004	2.0	GoodResponse	0	0.223	n/a	3	13	ButtonPress	Neutral	True
137.948	0.43	Control	1.0	n/a	Yes	2.782	n/a	n/a	GoodResponse	0	n/a	n/a	3	13	Blank	Neutral	True
138.366	1.45	Control	1.0	n/a	Yes	2.782	n/a	5.0	GoodResponse	0	0.046	137.412	3	13	Feedback	Neutral	True
139.821	2.782	Control	1.0	n/a	Yes	2.782	n/a	n/a	GoodResponse	0	0.0	n/a	3	13	ISIslide	Neutral	True
142.629	0.25	Win2	1.0	0.0	Yes	2.671	0.029	n/a	GoodResponse	1	n/a	n/a	4	14	Cue	Win	True
142.88	4.1	Win2	1.0	0.0	Yes	2.671	0.001	n/a	GoodResponse	1	n/a	n/a	4	14	Fixation	Win	True
146.975	0.26	Win2	1.0	0.004	Yes	2.671	-0.004	2.0	GoodResponse	1	0.184	146.159	4	14	Target	Win	True
147.159	0.3	Win2	1.0	0.004	Yes	2.671	-0.004	2.0	GoodResponse	1	0.184	n/a	4	14	ButtonPress	Win	True
147.243	0.44	Win2	1.0	n/a	Yes	2.671	n/a	n/a	GoodResponse	1	n/a	n/a	4	14	Blank	Win	True
147.677	1.45	Win2	1.0	n/a	Yes	2.671	n/a	5.0	GoodResponse	1	0.008	146.685	4	14	Feedback	Win	True
149.132	2.671	Win2	1.0	n/a	Yes	2.671	n/a	n/a	GoodResponse	1	0.0	n/a	4	14	ISIslide	Win	True
151.823	0.25	Control	1.0	0.0	Yes	2.977	0.023	n/a	GoodResponse	0	n/a	n/a	4	15	Cue	Neutral	True
152.074	4.0	Control	1.0	0.0	Yes	2.977	0.001	n/a	GoodResponse	0	n/a	n/a	4	15	Fixation	Neutral	True
156.069	0.25	Control	1.0	0.004	Yes	2.977	-0.004	2.0	GoodResponse	0	0.166	155.235	4	15	Target	Neutral	True
156.235	0.3	Control	1.0	0.004	Yes	2.977	-0.004	2.0	GoodResponse	0	0.166	n/a	4	15	ButtonPress	Neutral	True
156.32	0.45	Control	1.0	n/a	Yes	2.977	n/a	n/a	GoodResponse	0	n/a	n/a	4	15	Blank	Neutral	True
156.771	1.45	Control	1.0	n/a	Yes	2.977	n/a	5.0	GoodResponse	0	0.031	155.802	4	15	Feedback	Neutral	True
158.226	2.977	Control	1.0	n/a	Yes	2.977	n/a	n/a	GoodResponse	0	0.0	n/a	4	15	ISIslide	Neutral	True
161.218	0.25	Win2	1.0	0.0	Yes	2.882	0.018	n/a	GoodResponse	1	n/a	n/a	5	16	Cue	Win	True
161.469	4.0	Win2	1.0	0.0	Yes	2.882	0.001	n/a	GoodResponse	1	n/a	n/a	5	16	Fixation	Win	True
165.464	0.24	Win2	1.0	0.004	Yes	2.882	-0.004	2.0	GoodResponse	1	0.19	164.654	5	16	Target	Win	True
165.654	0.3	Win2	1.0	0.004	Yes	2.882	-0.004	2.0	GoodResponse	1	0.19	n/a	5	16	ButtonPress	Win	True
165.715	0.46	Win2	1.0	n/a	Yes	2.882	n/a	n/a	GoodResponse	1	n/a	n/a	5	16	Blank	Win	True
166.166	1.45	Win2	1.0	n/a	Yes	2.882	n/a	5.0	GoodResponse	1	0.002	165.168	5	16	Feedback	Win	True
167.62	2.882	Win2	1.0	n/a	Yes	2.882	n/a	n/a	GoodResponse	1	0.0	n/a	5	16	ISIslide	Win	True
170.529	0.25	Lose2	1.0	0.0	Yes	2.721	0.029	n/a	GoodResponse	0	n/a	n/a	5	17	Cue	AvoidedLoss	True
170.78	3.95	Lose2	1.0	0.0	Yes	2.721	0.001	n/a	GoodResponse	0	n/a	n/a	5	17	Fixation	AvoidedLoss	True
174.725	0.23	Lose2	1.0	0.004	Yes	2.721	-0.004	2.0	GoodResponse	0	0.19	173.915	5	17	Target	AvoidedLoss	True
174.915	0.3	Lose2	1.0	0.004	Yes	2.721	-0.004	2.0	GoodResponse	0	0.19	n/a	5	17	ButtonPress	AvoidedLoss	True
174.959	0.47	Lose2	1.0	n/a	Yes	2.721	n/a	n/a	GoodResponse	0	n/a	n/a	5	17	Blank	AvoidedLoss	True
175.427	1.45	Lose2	1.0	n/a	Yes	2.721	n/a	5.0	GoodResponse	0	0.009	174.436	5	17	Feedback	AvoidedLoss	True
176.881	2.721	Lose2	1.0	n/a	Yes	2.721	n/a	n/a	GoodResponse	0	0.0	n/a	5	17	ISIslide	AvoidedLoss	True
179.623	0.25	Lose2	0.9473999999999999	0.0	No	2.727	0.023	n/a	NoResponse	-1	n/a	n/a	4	18	Cue	Loss	True
179.874	4.05	Lose2	0.9473999999999999	0.0	No	2.727	0.001	n/a	NoResponse	-1	n/a	n/a	4	18	Fixation	Loss	True
183.919	0.22	Lose2	0.9473999999999999	0.004	No	2.727	-0.004	2.0	NoResponse	-1	0.486	183.405	4	18	Target	Loss	True
184.153	0.48	Lose2	0.9473999999999999	n/a	No	2.727	n/a	n/a	NoResponse	-1	n/a	n/a	4	18	Blank	Loss	True
184.405	0.3	Lose2	0.9473999999999999	0.004	No	2.727	-0.004	2.0	NoResponse	-1	0.486	n/a	4	18	ButtonPress	Loss	True
184.621	1.45	Lose2	0.9473999999999999	n/a	No	2.727	n/a	5.0	NoResponse	-1	0.034	183.655	4	18	Feedback	Loss	True
186.075	2.727	Lose2	0.9473999999999999	n/a	No	2.727	n/a	n/a	NoResponse	-1	0.0	n/a	4	18	ISIslide	Loss	True
188.817	0.25	Control	0.95	0.0	Yes	2.933	0.017	n/a	GoodResponse	0	n/a	n/a	4	19	Cue	Neutral	True
189.068	3.95	Control	0.95	0.0	Yes	2.933	0.001	n/a	GoodResponse	0	n/a	n/a	4	19	Fixation	Neutral	True
193.013	0.21	Control	0.95	0.004	Yes	2.933	-0.004	2.0	GoodResponse	0	0.191	192.204	4	19	Target	Neutral	True
193.204	0.3	Control	0.95	0.004	Yes	2.933	-0.004	2.0	GoodResponse	0	0.191	n/a	4	19	ButtonPress	Neutral	True
193.23	0.49	Control	0.95	n/a	Yes	2.933	n/a	n/a	GoodResponse	0	n/a	n/a	4	19	Blank	Neutral	True
193.715	1.45	Control	0.95	n/a	Yes	2.933	n/a	5.0	GoodResponse	0	0.014	192.729	4	19	Feedback	Neutral	True
195.169	2.933	Control	0.95	n/a	Yes	2.933	n/a	n/a	GoodResponse	0	0.0	n/a	4	19	ISIslide	Neutral	True
198.128	0.25	Control	0.9048	0.0	No	2.622	0.028	n/a	LatePress	0	n/a	n/a	4	20	Cue	Neutral	True
198.379	4.05	Control	0.9048	0.0	No	2.622	0.001	n/a	LatePress	0	n/a	n/a	4	20	Fixation	Neutral	True
202.424	0.2	Control	0.9048	0.004	No	2.622	-0.004	2.0	LatePress	0	0.202	201.626	4	20	Target	Neutral	True
202.625	0.5	Control	0.9048	n/a	No	2.622	n/a	n/a	LatePress	0	n/a	n/a	4	20	Blank	Neutral	True
202.626	0.3	Control	0.9048	0.004	No	2.622	-0.004	2.0	LatePress	0	0.202	n/a	4	20	ButtonPress	Neutral	True
203.126	1.45	Control	0.9048	n/a	No	2.622	n/a	5.0	LatePress	0	0.017	202.143	4	20	Feedback	Neutral	True
204.581	2.622	Control	0.9048	n/a	No	2.622	n/a	n/a	LatePress	0	0.0	n/a	4	20	ISIslide	Neutral	True
207.222	0.25	Control	0.9091	0.0	Yes	2.778	0.022	n/a	GoodResponse	0	n/a	n/a	4	21	Cue	Neutral	True
207.473	4.1	Control	0.9091	0.0	Yes	2.778	0.001	n/a	GoodResponse	0	n/a	n/a	4	21	Fixation	Neutral	True
211.568	0.19	Control	0.9091	0.004	Yes	2.778	-0.004	2.0	GoodResponse	0	0.158	210.726	4	21	Target	Neutral	True
211.726	0.3	Control	0.9091	0.004	Yes	2.778	-0.004	2.0	GoodResponse	0	0.158	n/a	4	21	ButtonPress	Neutral	True
211.769	0.51	Control	0.9091	n/a	Yes	2.778	n/a	n/a	GoodResponse	0	n/a	n/a	4	21	Blank	Neutral	True
212.27	1.45	Control	0.9091	n/a	Yes	2.778	n/a	5.0	GoodResponse	0	0.044	211.314	4	21	Feedback	Neutral	True
213.725	2.778	Control	0.9091	n/a	Yes	2.778	n/a	n/a	GoodResponse	0	0.0	n/a	4	21	ISIslide	Neutral	True
216.517	0.25	Control	0.8695999999999999	0.0	No	2.783	0.017	n/a	LatePress	0	n/a	n/a	4	22	Cue	Neutral	True
216.767	4.0	Control	0.8695999999999999	0.0	No	2.783	0.0	n/a	LatePress	0	n/a	n/a	4	22	Fixation	Neutral	True
220.763	0.18	Control	0.8695999999999999	0.004	No	2.783	-0.004	2.0	LatePress	0	0.182	219.945	4	22	Target	Neutral	True
220.945	0.3	Control	0.8695999999999999	0.004	No	2.783	-0.004	2.0	LatePress	0	0.182	n/a	4	22	ButtonPress	Neutral	True
220.946	0.52	Control	0.8695999999999999	n/a	No	2.783	n/a	n/a	LatePress	0	n/a	n/a	4	22	Blank	Neutral	True
221.465	1.45	Control	0.8695999999999999	n/a	No	2.783	n/a	5.0	LatePress	0	0.019	220.484	4	22	Feedback	Neutral	True
222.919	2.783	Control	0.8695999999999999	n/a	No	2.783	n/a	n/a	LatePress	0	0.0	n/a	4	22	ISIslide	Neutral	True
225.727	0.25	Control	0.8332999999999999	0.0	No	2.773	0.027	n/a	NoResponse	0	n/a	n/a	4	23	Cue	Neutral	True
225.978	3.9	Control	0.8332999999999999	0.0	No	2.773	0.001	n/a	NoResponse	0	n/a	n/a	4	23	Fixation	Neutral	True
229.873	0.17	Control	0.8332999999999999	0.004	No	2.773	-0.004	2.0	NoResponse	0	0.195	229.068	4	23	Target	Neutral	True
230.057	0.53	Control	0.8332999999999999	n/a	No	2.773	n/a	n/a	NoResponse	0	n/a	n/a	4	23	Blank	Neutral	True
230.068	0.3	Control	0.8332999999999999	0.004	No	2.773	-0.004	2.0	NoResponse	0	0.195	n/a	4	23	ButtonPress	Neutral	True
230.575	1.45	Control	0.8332999999999999	n/a	No	2.773	n/a	5.0	NoResponse	0	0.031	229.606	4	23	Feedback	Neutral	True
232.03	2.773	Control	0.8332999999999999	n/a	No	2.773	n/a	n/a	NoResponse	0	0.0	n/a	4	23	ISIslide	Neutral	True
234.821	0.25	Win2	0.8	0.0	No	3.129	0.021	n/a	NoResponse	0	n/a	n/a	4	24	Cue	MissedWin	True
235.072	3.95	Win2	0.8	0.0	No	3.129	0.001	n/a	NoResponse	0	n/a	n/a	4	24	Fixation	MissedWin	True
239.017	0.16	Win2	0.8	0.004	No	3.129	-0.004	2.0	NoResponse	0	0.181	238.198	4	24	Target	MissedWin	True
239.184	0.54	Win2	0.8	n/a	No	3.129	n/a	n/a	NoResponse	0	n/a	n/a	4	24	Blank	MissedWin	True
239.198	0.3	Win2	0.8	0.004	No	3.129	-0.004	2.0	NoResponse	0	0.181	n/a	4	24	ButtonPress	MissedWin	True
239.719	1.45	Win2	0.8	n/a	No	3.129	n/a	5.0	NoResponse	0	0.009	238.728	4	24	Feedback	MissedWin	True
241.174	3.129	Win2	0.8	n/a	No	3.129	n/a	n/a	NoResponse	0	0.0	n/a	4	24	ISIslide	MissedWin	True
244.316	0.25	Win2	0.8077	0.0	Yes	3.084	0.016	n/a	GoodResponse	1	n/a	n/a	5	25	Cue	Win	True
244.567	4.0	Win2	0.8077	0.0	Yes	3.084	0.001	n/a	GoodResponse	1	n/a	n/a	5	25	Fixation	Win	True
248.562	0.15	Win2	0.8077	0.004	Yes	3.084	-0.004	2.0	GoodResponse	1	0.147	247.709	5	25	Target	Win	True
248.709	0.3	Win2	0.8077	0.004	Yes	3.084	-0.004	2.0	GoodResponse	1	0.147	n/a	5	25	ButtonPress	Win	True
248.713	0.55	Win2	0.8077	n/a	Yes	3.084	n/a	n/a	GoodResponse	1	n/a	n/a	5	25	Blank	Win	True
249.264	1.45	Win2	0.8077	n/a	Yes	3.084	n/a	5.0	GoodResponse	1	0.025	248.289	5	25	Feedback	Win	True
250.719	3.084	Win2	0.8077	n/a	Yes	3.084	n/a	n/a	GoodResponse	1	0.0	n/a	5	25	ISIslide	Win	True
253.828	0.25	Win2	0.7778	0.0	No	2.922	0.028	n/a	NoResponse	0	n/a	n/a	5	26	Cue	MissedWin	True
254.079	3.95	Win2	0.7778	0.0	No	2.922	0.001	n/a	NoResponse	0	n/a	n/a	5	26	Fixation	MissedWin	True
258.024	0.15	Win2	0.7778	0.004	No	2.922	-0.004	2.0	NoResponse	0	0.171	257.195	5	26	Target	MissedWin	True
258.174	0.55	Win2	0.7778	n/a	No	2.922	n/a	n/a	NoResponse	0	n/a	n/a	5	26	Blank	MissedWin	True
258.195	0.3	Win2	0.7778	0.004	No	2.922	-0.004	2.0	NoResponse	0	0.171	n/a	5	26	ButtonPress	MissedWin	True
258.726	1.45	Win2	0.7778	n/a	No	2.922	n/a	5.0	NoResponse	0	0.027	257.753	5	26	Feedback	MissedWin	True
260.18	2.922	Win2	0.7778	n/a	No	2.922	n/a	n/a	NoResponse	0	0.0	n/a	5	26	ISIslide	MissedWin	True
263.123	0.25	Lose2	0.75	0.0	No	2.827	0.023	n/a	NoResponse	-1	n/a	n/a	4	27	Cue	Loss	False
263.373	4.05	Lose2	0.75	0.0	No	2.827	0.0	2.0	NoResponse	-1	3.706	266.079	4	27	Fixation	Loss	False
267.079	0.3	Lose2	0.75	0.0	No	2.827	0.0	2.0	NoResponse	-1	3.706	n/a	4	27	ButtonPress	Loss	False
267.419	0.15	Lose2	0.75	0.004	No	2.827	-0.004	2.0	NoResponse	-1	0.289	266.708	4	27	Target	Loss	False
267.569	0.55	Lose2	0.75	n/a	No	2.827	n/a	n/a	NoResponse	-1	n/a	n/a	4	27	Blank	Loss	False
267.708	0.3	Lose2	0.75	0.004	No	2.827	-0.004	2.0	NoResponse	-1	0.289	n/a	4	27	ButtonPress	Loss	False
268.121	1.45	Lose2	0.75	n/a	No	2.827	n/a	5.0	NoResponse	-1	0.045	267.166	4	27	Feedback	Loss	False
269.575	2.827	Lose2	0.75	n/a	No	2.827	n/a	n/a	NoResponse	-1	0.0	n/a	4	27	ISIslide	Loss	False
272.417	0.25	Control	0.7241	0.0	No	2.833	0.017	n/a	NoResponse	0	n/a	n/a	4	28	Cue	Neutral	True
272.668	4.05	Control	0.7241	0.0	No	2.833	0.001	n/a	NoResponse	0	n/a	n/a	4	28	Fixation	Neutral	True
276.713	0.15	Control	0.7241	0.004	No	2.833	-0.004	2.0	NoResponse	0	0.233	275.946	4	28	Target	Neutral	True
276.864	0.55	Control	0.7241	n/a	No	2.833	n/a	n/a	NoResponse	0	n/a	n/a	4	28	Blank	Neutral	True
276.946	0.3	Control	0.7241	0.004	No	2.833	-0.004	2.0	NoResponse	0	0.233	n/a	4	28	ButtonPress	Neutral	True
277.415	1.45	Control	0.7241	n/a	No	2.833	n/a	5.0	NoResponse	0	0.02	276.435	4	28	Feedback	Neutral	True
278.87	2.833	Control	0.7241	n/a	No	2.833	n/a	n/a	NoResponse	0	0.0	n/a	4	28	ISIslide	Neutral	True
281.728	0.25	Lose2	0.7	0.0	No	2.822	0.028	n/a	NoResponse	-1	n/a	n/a	3	29	Cue	Loss	True
281.979	3.95	Lose2	0.7	0.0	No	2.822	0.001	n/a	NoResponse	-1	n/a	n/a	3	29	Fixation	Loss	True
285.924	0.15	Lose2	0.7	0.004	No	2.822	-0.004	2.0	NoResponse	-1	0.205	285.129	3	29	Target	Loss	True
286.074	0.55	Lose2	0.7	n/a	No	2.822	n/a	n/a	NoResponse	-1	n/a	n/a	3	29	Blank	Loss	True
286.129	0.3	Lose2	0.7	0.004	No	2.822	-0.004	2.0	NoResponse	-1	0.205	n/a	3	29	ButtonPress	Loss	True
286.626	1.45	Lose2	0.7	n/a	No	2.822	n/a	5.0	NoResponse	-1	0.028	285.654	3	29	Feedback	Loss	True
288.08	2.822	Lose2	0.7	n/a	No	2.822	n/a	n/a	NoResponse	-1	0.0	n/a	3	29	ISIslide	Loss	True
290.922	0.25	Win2	0.6774	0.0	No	2.778	0.022	n/a	NoResponse	0	n/a	n/a	3	30	Cue	MissedWin	True
291.173	3.9	Win2	0.6774	0.0	No	2.778	0.001	n/a	NoResponse	0	n/a	n/a	3	30	Fixation	MissedWin	True
295.068	0.15	Win2	0.6774	0.004	No	2.778	-0.004	2.0	NoResponse	0	0.179	294.247	3	30	Target	MissedWin	True
295.218	0.55	Win2	0.6774	n/a	No	2.778	n/a	n/a	NoResponse	0	n/a	n/a	3	30	Blank	MissedWin	True
295.247	0.3	Win2	0.6774	0.004	No	2.778	-0.004	2.0	NoResponse	0	0.179	n/a	3	30	ButtonPress	MissedWin	True
295.77	1.45	Win2	0.6774	n/a	No	2.778	n/a	5.0	NoResponse	0	0.007	294.777	3	30	Feedback	MissedWin	True
297.224	2.778	Win2	0.6774	n/a	No	2.778	n/a	n/a	NoResponse	0	0.0	n/a	3	30	ISIslide	MissedWin	True
300.016	0.25	Lose2	0.6562	0.0	No	2.834	0.016	n/a	NoResponse	-1	n/a	n/a	2	31	Cue	Loss	True
300.267	4.05	Lose2	0.6562	0.0	No	2.834	0.001	n/a	NoResponse	-1	n/a	n/a	2	31	Fixation	Loss	True
304.312	0.15	Lose2	0.6562	0.004	No	2.834	-0.004	2.0	NoResponse	-1	0.18	303.492	2	31	Target	Loss	True
304.463	0.55	Lose2	0.6562	n/a	No	2.834	n/a	n/a	NoResponse	-1	n/a	n/a	2	31	Blank	Loss	True
304.492	0.3	Lose2	0.6562	0.004	No	2.834	-0.004	2.0	NoResponse	-1	0.18	n/a	2	31	ButtonPress	Loss	True
305.014	1.45	Lose2	0.6562	n/a	No	2.834	n/a	5.0	NoResponse	-1	0.03	304.044	2	31	Feedback	Loss	True
306.469	2.834	Lose2	0.6562	n/a	No	2.834	n/a	n/a	NoResponse	-1	0.0	n/a	2	31	ISIslide	Loss	True
309.327	0.25	Lose2	0.6364	0.0	No	2.623	0.027	n/a	NoResponse	-1	n/a	n/a	1	32	Cue	Loss	True
309.578	4.15	Lose2	0.6364	0.0	No	2.623	0.001	n/a	NoResponse	-1	n/a	n/a	1	32	Fixation	Loss	True
313.724	0.15	Lose2	0.6364	0.003	No	2.623	-0.003	2.0	NoResponse	-1	0.197	312.921	1	32	Target	Loss	True
313.874	0.55	Lose2	0.6364	n/a	No	2.623	n/a	n/a	NoResponse	-1	n/a	n/a	1	32	Blank	Loss	True
313.921	0.3	Lose2	0.6364	0.003	No	2.623	-0.003	2.0	NoResponse	-1	0.197	n/a	1	32	ButtonPress	Loss	True
314.426	1.45	Lose2	0.6364	n/a	No	2.623	n/a	5.0	NoResponse	-1	0.033	313.459	1	32	Feedback	Loss	True
315.88	2.623	Lose2	0.6364	n/a	No	2.623	n/a	n/a	NoResponse	-1	0.0	n/a	1	32	ISIslide	Loss	True
318.521	0.25	Win2	0.6175999999999999	0.001	No	2.679	0.021	n/a	NoResponse	0	n/a	n/a	1	33	Cue	MissedWin	True
318.772	4.0	Win2	0.6175999999999999	0.0	No	2.679	0.001	n/a	NoResponse	0	n/a	n/a	1	33	Fixation	MissedWin	True
322.768	0.16	Win2	0.6175999999999999	0.003	No	2.679	-0.003	2.0	NoResponse	0	0.184	321.952	1	33	Target	MissedWin	True
322.935	0.54	Win2	0.6175999999999999	n/a	No	2.679	n/a	n/a	NoResponse	0	n/a	n/a	1	33	Blank	MissedWin	True
322.952	0.3	Win2	0.6175999999999999	0.003	No	2.679	-0.003	2.0	NoResponse	0	0.184	n/a	1	33	ButtonPress	MissedWin	True
323.47	1.45	Win2	0.6175999999999999	n/a	No	2.679	n/a	5.0	NoResponse	0	0.013	322.483	1	33	Feedback	MissedWin	True
324.924	2.679	Win2	0.6175999999999999	n/a	No	2.679	n/a	n/a	NoResponse	0	0.0	n/a	1	33	ISIslide	MissedWin	True
327.615	0.25	Lose2	0.6	0.0	No	2.635	0.015	n/a	NoResponse	-1	n/a	n/a	0	34	Cue	Loss	True
327.866	4.05	Lose2	0.6	0.0	No	2.635	0.001	2.0	NoResponse	-1	3.872	330.738	0	34	Fixation	Loss	True
331.738	0.3	Lose2	0.6	0.0	No	2.635	0.001	2.0	NoResponse	-1	3.872	n/a	0	34	ButtonPress	Loss	True
331.912	0.17	Lose2	0.6	0.003	No	2.635	-0.003	n/a	NoResponse	-1	n/a	n/a	0	34	Target	Loss	True
332.095	0.53	Lose2	0.6	n/a	No	2.635	n/a	n/a	NoResponse	-1	n/a	n/a	0	34	Blank	Loss	True
332.614	1.45	Lose2	0.6	n/a	No	2.635	n/a	5.0	NoResponse	-1	0.04	331.654	0	34	Feedback	Loss	True
334.068	2.635	Lose2	0.6	n/a	No	2.635	n/a	n/a	NoResponse	-1	0.0	n/a	0	34	ISIslide	Loss	True
336.726	0.25	Lose2	0.5832999999999999	0.0	No	2.674	0.026	n/a	NoResponse	-1	n/a	n/a	-1	35	Cue	Loss	True
336.977	4.0	Lose2	0.5832999999999999	0.0	No	2.674	0.001	n/a	NoResponse	-1	n/a	n/a	-1	35	Fixation	Loss	True
340.972	0.18	Lose2	0.5832999999999999	0.004	No	2.674	-0.004	2.0	NoResponse	-1	0.238	340.21	-1	35	Target	Loss	True
341.156	0.52	Lose2	0.5832999999999999	n/a	No	2.674	n/a	n/a	NoResponse	-1	n/a	n/a	-1	35	Blank	Loss	True
341.21	0.3	Lose2	0.5832999999999999	0.004	No	2.674	-0.004	2.0	NoResponse	-1	0.238	n/a	-1	35	ButtonPress	Loss	True
341.674	1.45	Lose2	0.5832999999999999	n/a	No	2.674	n/a	5.0	NoResponse	-1	0.008	340.682	-1	35	Feedback	Loss	True
343.128	2.674	Lose2	0.5832999999999999	n/a	No	2.674	n/a	n/a	NoResponse	-1	0.0	n/a	-1	35	ISIslide	Loss	True
345.82	0.25	Control	0.5946	0.0	Yes	2.68	0.02	n/a	GoodResponse	0	n/a	n/a	-1	36	Cue	Neutral	True
346.071	4.0	Control	0.5946	0.0	Yes	2.68	0.001	n/a	GoodResponse	0	n/a	n/a	-1	36	Fixation	Neutral	True
350.066	0.19	Control	0.5946	0.004	Yes	2.68	-0.004	2.0	GoodResponse	0	0.178	349.244	-1	36	Target	Neutral	True
350.244	0.3	Control	0.5946	0.004	Yes	2.68	-0.004	2.0	GoodResponse	0	0.178	n/a	-1	36	ButtonPress	Neutral	True
350.266	0.51	Control	0.5946	n/a	Yes	2.68	n/a	n/a	GoodResponse	0	n/a	n/a	-1	36	Blank	Neutral	True
350.768	1.45	Control	0.5946	n/a	Yes	2.68	n/a	5.0	GoodResponse	0	0.031	349.799	-1	36	Feedback	Neutral	True
352.222	2.68	Control	0.5946	n/a	Yes	2.68	n/a	n/a	GoodResponse	0	0.0	n/a	-1	36	ISIslide	Neutral	True
354.93	0.25	Win2	0.6053000000000001	0.0	Yes	2.87	0.03	n/a	GoodResponse	1	n/a	n/a	0	37	Cue	Win	True
355.181	4.0	Win2	0.6053000000000001	0.0	Yes	2.87	0.001	n/a	GoodResponse	1	n/a	n/a	0	37	Fixation	Win	True
359.176	0.2	Win2	0.6053000000000001	0.004	Yes	2.87	-0.004	2.0	GoodResponse	1	0.181	358.357	0	37	Target	Win	True
359.357	0.3	Win2	0.6053000000000001	0.004	Yes	2.87	-0.004	2.0	GoodResponse	1	0.181	n/a	0	37	ButtonPress	Win	True
359.377	0.5	Win2	0.6053000000000001	n/a	Yes	2.87	n/a	n/a	GoodResponse	1	n/a	n/a	0	37	Blank	Win	True
359.878	1.45	Win2	0.6053000000000001	n/a	Yes	2.87	n/a	5.0	GoodResponse	1	0.043	358.921	0	37	Feedback	Win	True
361.333	2.87	Win2	0.6053000000000001	n/a	Yes	2.87	n/a	n/a	GoodResponse	1	0.0	n/a	0	37	ISIslide	Win	True
364.225	0.25	Lose2	0.6154	0.0	Yes	2.825	0.025	n/a	GoodResponse	0	n/a	n/a	0	38	Cue	AvoidedLoss	True
364.476	3.95	Lose2	0.6154	0.0	Yes	2.825	0.001	n/a	GoodResponse	0	n/a	n/a	0	38	Fixation	AvoidedLoss	True
368.421	0.21	Lose2	0.6154	0.004	Yes	2.825	-0.004	2.0	GoodResponse	0	0.186	367.607	0	38	Target	AvoidedLoss	True
368.607	0.3	Lose2	0.6154	0.004	Yes	2.825	-0.004	2.0	GoodResponse	0	0.186	n/a	0	38	ButtonPress	AvoidedLoss	True
368.638	0.49	Lose2	0.6154	n/a	Yes	2.825	n/a	n/a	GoodResponse	0	n/a	n/a	0	38	Blank	AvoidedLoss	True
369.123	1.45	Lose2	0.6154	n/a	Yes	2.825	n/a	5.0	GoodResponse	0	0.018	368.141	0	38	Feedback	AvoidedLoss	True
370.577	2.825	Lose2	0.6154	n/a	Yes	2.825	n/a	n/a	GoodResponse	0	0.0	n/a	0	38	ISIslide	AvoidedLoss	True
373.419	0.25	Win2	0.6	0.0	No	2.981	0.019	n/a	LatePress	0	n/a	n/a	0	39	Cue	MissedWin	True
373.67	4.1	Win2	0.6	0.0	No	2.981	0.001	n/a	LatePress	0	n/a	n/a	0	39	Fixation	MissedWin	True
377.765	0.22	Win2	0.6	0.004	No	2.981	-0.004	2.0	LatePress	0	0.222	376.987	0	39	Target	MissedWin	True
377.987	0.3	Win2	0.6	0.004	No	2.981	-0.004	2.0	LatePress	0	0.222	n/a	0	39	ButtonPress	MissedWin	True
377.999	0.48	Win2	0.6	n/a	No	2.981	n/a	n/a	LatePress	0	n/a	n/a	0	39	Blank	MissedWin	True
378.467	1.45	Win2	0.6	n/a	No	2.981	n/a	5.0	LatePress	0	0.04	377.507	0	39	Feedback	MissedWin	True
379.922	2.981	Win2	0.6	n/a	No	2.981	n/a	n/a	LatePress	0	0.0	n/a	0	39	ISIslide	MissedWin	True
382.931	0.25	Win2	0.6098	0.0	Yes	2.719	0.031	n/a	GoodResponse	1	n/a	n/a	1	40	Cue	Win	True
383.181	3.95	Win2	0.6098	0.001	Yes	2.719	0.0	n/a	GoodResponse	1	n/a	n/a	1	40	Fixation	Win	True
387.127	0.23	Win2	0.6098	0.004	Yes	2.719	-0.004	2.0	GoodResponse	1	0.197	386.324	1	40	Target	Win	True
387.324	0.3	Win2	0.6098	0.004	Yes	2.719	-0.004	2.0	GoodResponse	1	0.197	n/a	1	40	ButtonPress	Win	True
387.361	0.47	Win2	0.6098	n/a	Yes	2.719	n/a	n/a	GoodResponse	1	n/a	n/a	1	40	Blank	Win	True
387.829	1.45	Win2	0.6098	n/a	Yes	2.719	n/a	5.0	GoodResponse	1	0.043	386.872	1	40	Feedback	Win	True
389.283	2.719	Win2	0.6098	n/a	Yes	2.719	n/a	n/a	GoodResponse	1	0.0	n/a	1	40	ISIslide	Win	True
392.025	0.25	Win2	0.619	0.0	Yes	2.775	0.025	n/a	GoodResponse	1	n/a	n/a	2	41	Cue	Win	True
392.275	3.9	Win2	0.619	0.0	Yes	2.775	0.0	n/a	GoodResponse	1	n/a	n/a	2	41	Fixation	Win	True
396.187	0.24	Win2	0.619	0.0	Yes	2.775	0.012	2.0	GoodResponse	1	0.221	395.408	2	41	Target	Win	True
396.408	0.3	Win2	0.619	0.0	Yes	2.775	0.012	2.0	GoodResponse	1	0.221	n/a	2	41	ButtonPress	Win	True
396.421	0.46	Win2	0.619	n/a	Yes	2.775	n/a	n/a	GoodResponse	1	n/a	n/a	2	41	Blank	Win	True
396.872	1.45	Win2	0.619	n/a	Yes	2.775	n/a	5.0	GoodResponse	1	0.024	395.896	2	41	Feedback	Win	True
398.327	2.775	Win2	0.619	n/a	Yes	2.775	n/a	n/a	GoodResponse	1	0.0	n/a	2	41	ISIslide	Win	True
401.118	0.25	Control	0.6279	0.001	Yes	2.932	0.018	n/a	GoodResponse	0	n/a	n/a	2	42	Cue	Neutral	True
401.369	3.85	Control	0.6279	0.0	Yes	2.932	0.001	n/a	GoodResponse	0	n/a	n/a	2	42	Fixation	Neutral	True
405.214	0.25	Control	0.6279	0.004	Yes	2.932	-0.004	2.0	GoodResponse	0	0.203	404.417	2	42	Target	Neutral	True
405.417	0.3	Control	0.6279	0.004	Yes	2.932	-0.004	2.0	GoodResponse	0	0.203	n/a	2	42	ButtonPress	Neutral	True
405.465	0.45	Control	0.6279	n/a	Yes	2.932	n/a	n/a	GoodResponse	0	n/a	n/a	2	42	Blank	Neutral	True
405.916	1.45	Control	0.6279	n/a	Yes	2.932	n/a	5.0	GoodResponse	0	0.008	404.924	2	42	Feedback	Neutral	True
407.37	2.932	Control	0.6279	n/a	Yes	2.932	n/a	n/a	GoodResponse	0	0.0	n/a	2	42	ISIslide	Neutral	True
410.329	0.25	Win2	0.6364	0.0	Yes	3.171	0.029	n/a	GoodResponse	1	n/a	n/a	3	43	Cue	Win	True
410.58	4.0	Win2	0.6364	0.0	Yes	3.171	0.001	n/a	GoodResponse	1	n/a	n/a	3	43	Fixation	Win	True
414.575	0.26	Win2	0.6364	0.004	Yes	3.171	-0.004	2.0	GoodResponse	1	0.179	413.754	3	43	Target	Win	True
414.754	0.3	Win2	0.6364	0.004	Yes	3.171	-0.004	2.0	GoodResponse	1	0.179	n/a	3	43	ButtonPress	Win	True
414.843	0.44	Win2	0.6364	n/a	Yes	3.171	n/a	n/a	GoodResponse	1	n/a	n/a	3	43	Blank	Win	True
415.277	1.45	Win2	0.6364	n/a	Yes	3.171	n/a	5.0	GoodResponse	1	0.01	414.287	3	43	Feedback	Win	True
416.732	3.171	Win2	0.6364	n/a	Yes	3.171	n/a	n/a	GoodResponse	1	0.0	n/a	3	43	ISIslide	Win	True
419.925	0.25	Win2	0.6444	0.0	Yes	2.975	0.025	n/a	GoodResponse	1	n/a	n/a	4	44	Cue	Win	True
420.175	4.0	Win2	0.6444	0.0	Yes	2.975	0.0	n/a	GoodResponse	1	n/a	n/a	4	44	Fixation	Win	True
424.171	0.27	Win2	0.6444	0.004	Yes	2.975	-0.004	2.0	GoodResponse	1	0.194	423.365	4	44	Target	Win	True
424.365	0.3	Win2	0.6444	0.004	Yes	2.975	-0.004	2.0	GoodResponse	1	0.194	n/a	4	44	ButtonPress	Win	True
424.455	0.43	Win2	0.6444	n/a	Yes	2.975	n/a	n/a	GoodResponse	1	n/a	n/a	4	44	Blank	Win	True
424.873	1.45	Win2	0.6444	n/a	Yes	2.975	n/a	5.0	GoodResponse	1	0.024	423.897	4	44	Feedback	Win	True
426.327	2.975	Win2	0.6444	n/a	Yes	2.975	n/a	n/a	GoodResponse	1	0.0	n/a	4	44	ISIslide	Win	True
429.319	0.25	Control	0.6522	0.001	Yes	2.881	0.019	n/a	GoodResponse	0	n/a	n/a	4	45	Cue	Neutral	True
429.57	4.1	Control	0.6522	0.0	Yes	2.881	0.001	n/a	GoodResponse	0	n/a	n/a	4	45	Fixation	Neutral	True
433.666	0.28	Control	0.6522	0.003	Yes	2.881	-0.003	2.0	GoodResponse	0	0.227	432.893	4	45	Target	Neutral	True
433.893	0.3	Control	0.6522	0.003	Yes	2.881	-0.003	2.0	GoodResponse	0	0.227	n/a	4	45	ButtonPress	Neutral	True
433.95	0.42	Control	0.6522	n/a	Yes	2.881	n/a	n/a	GoodResponse	0	n/a	n/a	4	45	Blank	Neutral	True
434.368	1.45	Control	0.6522	n/a	Yes	2.881	n/a	5.0	GoodResponse	0	0.04	433.408	4	45	Feedback	Neutral	True
435.822	2.881	Control	0.6522	n/a	Yes	2.881	n/a	n/a	GoodResponse	0	0.0	n/a	4	45	ISIslide	Neutral	True
438.731	0.25	Lose2	0.6596	0.0	Yes	3.369	0.031	n/a	GoodResponse	0	n/a	n/a	4	46	Cue	AvoidedLoss	True
438.982	4.0	Lose2	0.6596	0.0	Yes	3.369	0.001	n/a	GoodResponse	0	n/a	n/a	4	46	Fixation	AvoidedLoss	True
442.977	0.29	Lose2	0.6596	0.004	Yes	3.369	-0.004	2.0	GoodResponse	0	0.176	442.153	4	46	Target	AvoidedLoss	True
443.153	0.3	Lose2	0.6596	0.004	Yes	3.369	-0.004	2.0	GoodResponse	0	0.176	n/a	4	46	ButtonPress	AvoidedLoss	True
443.278	0.41	Lose2	0.6596	n/a	Yes	3.369	n/a	n/a	GoodResponse	0	n/a	n/a	4	46	Blank	AvoidedLoss	True
443.679	1.45	Lose2	0.6596	n/a	Yes	3.369	n/a	5.0	GoodResponse	0	0.046	442.725	4	46	Feedback	AvoidedLoss	True
445.133	3.369	Lose2	0.6596	n/a	Yes	3.369	n/a	n/a	GoodResponse	0	0.0	n/a	4	46	ISIslide	AvoidedLoss	True
448.527	0.25	Lose2	0.6667000000000001	0.0	Yes	2.673	0.027	n/a	GoodResponse	0	n/a	n/a	4	47	Cue	AvoidedLoss	True
448.778	4.0	Lose2	0.6667000000000001	0.0	Yes	2.673	0.001	n/a	GoodResponse	0	n/a	n/a	4	47	Fixation	AvoidedLoss	True
452.773	0.29	Lose2	0.6667000000000001	0.004	Yes	2.673	-0.004	2.0	GoodResponse	0	0.209	451.982	4	47	Target	AvoidedLoss	True
452.982	0.3	Lose2	0.6667000000000001	0.004	Yes	2.673	-0.004	2.0	GoodResponse	0	0.209	n/a	4	47	ButtonPress	AvoidedLoss	True
453.074	0.41	Lose2	0.6667000000000001	n/a	Yes	2.673	n/a	n/a	GoodResponse	0	n/a	n/a	4	47	Blank	AvoidedLoss	True
453.475	1.45	Lose2	0.6667000000000001	n/a	Yes	2.673	n/a	5.0	GoodResponse	0	0.007	452.482	4	47	Feedback	AvoidedLoss	True
454.929	2.673	Lose2	0.6667000000000001	n/a	Yes	2.673	n/a	n/a	GoodResponse	0	0.0	n/a	4	47	ISIslide	AvoidedLoss	True
457.621	0.25	Lose2	0.6735	0.0	Yes	3.029	0.021	n/a	GoodResponse	0	n/a	n/a	4	48	Cue	AvoidedLoss	True
457.871	3.95	Lose2	0.6735	0.001	Yes	3.029	0.0	n/a	GoodResponse	0	n/a	n/a	4	48	Fixation	AvoidedLoss	True
461.817	0.28	Lose2	0.6735	0.004	Yes	3.029	-0.004	2.0	GoodResponse	0	0.195	461.012	4	48	Target	AvoidedLoss	True
462.012	0.3	Lose2	0.6735	0.004	Yes	3.029	-0.004	2.0	GoodResponse	0	0.195	n/a	4	48	ButtonPress	AvoidedLoss	True
462.101	0.42	Lose2	0.6735	n/a	Yes	3.029	n/a	n/a	GoodResponse	0	n/a	n/a	4	48	Blank	AvoidedLoss	True
462.519	1.45	Lose2	0.6735	n/a	Yes	3.029	n/a	5.0	GoodResponse	0	0.036	461.555	4	48	Feedback	AvoidedLoss	True
463.973	3.029	Lose2	0.6735	n/a	Yes	3.029	n/a	n/a	GoodResponse	0	0.0	n/a	4	48	ISIslide	AvoidedLoss	True
467.015	0.25	Control	0.68	0.001	Yes	2.885	0.015	n/a	GoodResponse	0	n/a	n/a	4	49	Cue	Neutral	True
467.266	4.0	Control	0.68	0.0	Yes	2.885	0.001	n/a	GoodResponse	0	n/a	n/a	4	49	Fixation	Neutral	True
471.262	0.27	Control	0.68	0.003	Yes	2.885	-0.003	2.0	GoodResponse	0	0.207	470.469	4	49	Target	Neutral	True
471.469	0.3	Control	0.68	0.003	Yes	2.885	-0.003	2.0	GoodResponse	0	0.207	n/a	4	49	ButtonPress	Neutral	True
471.546	0.43	Control	0.68	n/a	Yes	2.885	n/a	n/a	GoodResponse	0	n/a	n/a	4	49	Blank	Neutral	True
471.964	1.45	Control	0.68	n/a	Yes	2.885	n/a	5.0	GoodResponse	0	0.007	470.971	4	49	Feedback	Neutral	True
473.418	2.885	Control	0.68	n/a	Yes	2.885	n/a	n/a	GoodResponse	0	0.0	n/a	4	49	ISIslide	Neutral	True
476.327	0.25	Control	0.6862999999999999	0.0	Yes	2.773	0.027	n/a	GoodResponse	0	n/a	n/a	4	50	Cue	Neutral	True
476.577	4.0	Control	0.6862999999999999	0.0	Yes	2.773	0.0	n/a	GoodResponse	0	n/a	n/a	4	50	Fixation	Neutral	True
480.573	0.26	Control	0.6862999999999999	0.004	Yes	2.773	-0.004	2.0	GoodResponse	0	0.195	479.768	4	50	Target	Neutral	True
480.768	0.3	Control	0.6862999999999999	0.004	Yes	2.773	-0.004	2.0	GoodResponse	0	0.195	n/a	4	50	ButtonPress	Neutral	True
480.84	0.44	Control	0.6862999999999999	n/a	Yes	2.773	n/a	n/a	GoodResponse	0	n/a	n/a	4	50	Blank	Neutral	True
481.275	1.45	Control	0.6862999999999999	n/a	Yes	2.773	n/a	5.0	GoodResponse	0	0.011	480.286	4	50	Feedback	Neutral	True
482.729	2.773	Control	0.6862999999999999	n/a	Yes	2.773	n/a	n/a	GoodResponse	0	0.0	n/a	4	50	ISIslide	Neutral	True
485.521	0.25	Control	0.6923	0.0	Yes	2.729	0.021	n/a	GoodResponse	0	n/a	n/a	4	51	Cue	Neutral	True
485.772	3.95	Control	0.6923	0.0	Yes	2.729	0.001	n/a	GoodResponse	0	n/a	n/a	4	51	Fixation	Neutral	True
489.717	0.25	Control	0.6923	0.004	Yes	2.729	-0.004	2.0	GoodResponse	0	0.196	488.913	4	51	Target	Neutral	True
489.913	0.3	Control	0.6923	0.004	Yes	2.729	-0.004	2.0	GoodResponse	0	0.196	n/a	4	51	ButtonPress	Neutral	True
489.967	0.45	Control	0.6923	n/a	Yes	2.729	n/a	n/a	GoodResponse	0	n/a	n/a	4	51	Blank	Neutral	True
490.419	1.45	Control	0.6923	n/a	Yes	2.729	n/a	5.0	GoodResponse	0	0.037	489.456	4	51	Feedback	Neutral	True
491.873	2.729	Control	0.6923	n/a	Yes	2.729	n/a	n/a	GoodResponse	0	0.0	n/a	4	51	ISIslide	Neutral	True
494.615	0.25	Control	0.6981	0.0	Yes	2.635	0.015	n/a	GoodResponse	0	n/a	n/a	4	52	Cue	Neutral	True
494.865	4.05	Control	0.6981	0.0	Yes	2.635	0.0	n/a	GoodResponse	0	n/a	n/a	4	52	Fixation	Neutral	True
498.911	0.24	Control	0.6981	0.004	Yes	2.635	-0.004	2.0	GoodResponse	0	0.176	498.087	4	52	Target	Neutral	True
499.087	0.3	Control	0.6981	0.004	Yes	2.635	-0.004	2.0	GoodResponse	0	0.176	n/a	4	52	ButtonPress	Neutral	True
499.162	0.46	Control	0.6981	n/a	Yes	2.635	n/a	n/a	GoodResponse	0	n/a	n/a	4	52	Blank	Neutral	True
499.613	1.45	Control	0.6981	n/a	Yes	2.635	n/a	5.0	GoodResponse	0	0.014	498.627	4	52	Feedback	Neutral	True
501.067	2.635	Control	0.6981	n/a	Yes	2.635	n/a	n/a	GoodResponse	0	0.0	n/a	4	52	ISIslide	Neutral	True
503.725	0.25	Win2	0.7037	0.0	Yes	2.925	0.025	n/a	GoodResponse	1	n/a	n/a	5	53	Cue	Win	True
503.976	4.05	Win2	0.7037	0.0	Yes	2.925	0.001	n/a	GoodResponse	1	n/a	n/a	5	53	Fixation	Win	True
508.021	0.23	Win2	0.7037	0.004	Yes	2.925	-0.004	2.0	GoodResponse	1	0.183	507.204	5	53	Target	Win	True
508.204	0.3	Win2	0.7037	0.004	Yes	2.925	-0.004	2.0	GoodResponse	1	0.183	n/a	5	53	ButtonPress	Win	True
508.255	0.47	Win2	0.7037	n/a	Yes	2.925	n/a	n/a	GoodResponse	1	n/a	n/a	5	53	Blank	Win	True
508.724	1.45	Win2	0.7037	n/a	Yes	2.925	n/a	5.0	GoodResponse	1	0.025	507.749	5	53	Feedback	Win	True
510.178	2.925	Win2	0.7037	n/a	Yes	2.925	n/a	n/a	GoodResponse	1	0.0	n/a	5	53	ISIslide	Win	True
513.12	0.25	Win2	0.7091	0.0	Yes	2.73	0.02	n/a	GoodResponse	1	n/a	n/a	6	54	Cue	Win	True
513.371	3.95	Win2	0.7091	0.0	Yes	2.73	0.001	n/a	GoodResponse	1	n/a	n/a	6	54	Fixation	Win	True
517.316	0.22	Win2	0.7091	0.004	Yes	2.73	-0.004	2.0	GoodResponse	1	0.215	516.531	6	54	Target	Win	True
517.531	0.3	Win2	0.7091	0.004	Yes	2.73	-0.004	2.0	GoodResponse	1	0.215	n/a	6	54	ButtonPress	Win	True
517.55	0.48	Win2	0.7091	n/a	Yes	2.73	n/a	n/a	GoodResponse	1	n/a	n/a	6	54	Blank	Win	True
518.018	1.45	Win2	0.7091	n/a	Yes	2.73	n/a	5.0	GoodResponse	1	0.047	517.065	6	54	Feedback	Win	True
519.472	2.73	Win2	0.7091	n/a	Yes	2.73	n/a	n/a	GoodResponse	1	0.0	n/a	6	54	ISIslide	Win	True
522.231	0.25	Control	0.7143	0.0	Yes	3.019	0.031	n/a	GoodResponse	0	n/a	n/a	6	55	Cue	Neutral	True
522.481	3.95	Control	0.7143	0.0	Yes	3.019	0.0	n/a	GoodResponse	0	n/a	n/a	6	55	Fixation	Neutral	True
526.443	0.21	Control	0.7143	0.0	Yes	3.019	0.012	2.0	GoodResponse	0	0.191	525.634	6	55	Target	Neutral	True
526.634	0.3	Control	0.7143	0.0	Yes	3.019	0.012	2.0	GoodResponse	0	0.191	n/a	6	55	ButtonPress	Neutral	True
526.644	0.49	Control	0.7143	n/a	Yes	3.019	n/a	n/a	GoodResponse	0	n/a	n/a	6	55	Blank	Neutral	True
527.129	1.45	Control	0.7143	n/a	Yes	3.019	n/a	5.0	GoodResponse	0	0.01	526.139	6	55	Feedback	Neutral	True
528.583	3.019	Control	0.7143	n/a	Yes	3.019	n/a	n/a	GoodResponse	0	0.0	n/a	6	55	ISIslide	Neutral	True
531.625	0.25	Control	0.7018000000000001	0.0	No	2.825	0.025	n/a	NoResponse	0	n/a	n/a	6	56	Cue	Neutral	True
531.876	3.95	Control	0.7018000000000001	0.0	No	2.825	0.001	n/a	NoResponse	0	n/a	n/a	6	56	Fixation	Neutral	True
535.821	0.2	Control	0.7018000000000001	0.004	No	2.825	-0.004	2.0	NoResponse	0	0.217	535.038	6	56	Target	Neutral	True
536.022	0.5	Control	0.7018000000000001	n/a	No	2.825	n/a	n/a	NoResponse	0	n/a	n/a	6	56	Blank	Neutral	True
536.038	0.3	Control	0.7018000000000001	0.004	No	2.825	-0.004	2.0	NoResponse	0	0.217	n/a	6	56	ButtonPress	Neutral	True
536.523	1.45	Control	0.7018000000000001	n/a	No	2.825	n/a	5.0	NoResponse	0	0.03	535.553	6	56	Feedback	Neutral	True
537.978	2.825	Control	0.7018000000000001	n/a	No	2.825	n/a	n/a	NoResponse	0	0.0	n/a	6	56	ISIslide	Neutral	True
540.819	0.25	Control	0.7069	0.001	Yes	3.481	0.019	n/a	GoodResponse	0	n/a	n/a	6	57	Cue	Neutral	True
541.07	4.0	Control	0.7069	0.0	Yes	3.481	0.001	n/a	GoodResponse	0	n/a	n/a	6	57	Fixation	Neutral	True
545.066	0.19	Control	0.7069	0.003	Yes	3.481	-0.003	2.0	GoodResponse	0	0.189	544.255	6	57	Target	Neutral	True
545.255	0.3	Control	0.7069	0.003	Yes	3.481	-0.003	2.0	GoodResponse	0	0.189	n/a	6	57	ButtonPress	Neutral	True
545.266	0.51	Control	0.7069	n/a	Yes	3.481	n/a	n/a	GoodResponse	0	n/a	n/a	6	57	Blank	Neutral	True
545.768	1.45	Control	0.7069	n/a	Yes	3.481	n/a	5.0	GoodResponse	0	0.007	544.775	6	57	Feedback	Neutral	True
547.222	3.481	Control	0.7069	n/a	Yes	3.481	n/a	n/a	GoodResponse	0	0.0	n/a	6	57	ISIslide	Neutral	True
550.716	0.25	Win2	0.6949	0.0	No	2.734	0.016	n/a	NoResponse	0	n/a	n/a	6	58	Cue	MissedWin	False
550.966	4.05	Win2	0.6949	0.001	No	2.734	0.0	2.0	NoResponse	0	3.213	553.179	6	58	Fixation	MissedWin	False
554.179	0.3	Win2	0.6949	0.001	No	2.734	0.0	2.0	NoResponse	0	3.213	n/a	6	58	ButtonPress	MissedWin	False
555.012	0.18	Win2	0.6949	0.004	No	2.734	-0.004	2.0	NoResponse	0	0.336	554.348	6	58	Target	MissedWin	False
555.196	0.52	Win2	0.6949	n/a	No	2.734	n/a	n/a	NoResponse	0	n/a	n/a	6	58	Blank	MissedWin	False
555.348	0.3	Win2	0.6949	0.004	No	2.734	-0.004	2.0	NoResponse	0	0.336	n/a	6	58	ButtonPress	MissedWin	False
555.714	1.45	Win2	0.6949	n/a	No	2.734	n/a	5.0	NoResponse	0	0.01	554.724	6	58	Feedback	MissedWin	False
557.168	2.734	Win2	0.6949	n/a	No	2.734	n/a	n/a	NoResponse	0	0.0	n/a	6	58	ISIslide	MissedWin	False
559.927	0.25	Lose2	0.6833	0.0	No	2.673	0.027	n/a	NoResponse	-1	n/a	n/a	5	59	Cue	Loss	True
560.177	4.0	Lose2	0.6833	0.0	No	2.673	0.0	n/a	NoResponse	-1	n/a	n/a	5	59	Fixation	Loss	True
564.173	0.17	Lose2	0.6833	0.004	No	2.673	-0.004	2.0	NoResponse	-1	0.25	563.423	5	59	Target	Loss	True
564.357	0.53	Lose2	0.6833	n/a	No	2.673	n/a	n/a	NoResponse	-1	n/a	n/a	5	59	Blank	Loss	True
564.423	0.3	Lose2	0.6833	0.004	No	2.673	-0.004	2.0	NoResponse	-1	0.25	n/a	5	59	ButtonPress	Loss	True
564.875	1.45	Lose2	0.6833	n/a	No	2.673	n/a	5.0	NoResponse	-1	0.019	563.894	5	59	Feedback	Loss	True
566.329	2.673	Lose2	0.6833	n/a	No	2.673	n/a	n/a	NoResponse	-1	0.0	n/a	5	59	ISIslide	Loss	True
569.02	0.25	Control	0.6720999999999999	0.001	No	2.68	0.02	n/a	NoResponse	0	n/a	n/a	5	60	Cue	Neutral	True
569.271	4.0	Control	0.6720999999999999	0.0	No	2.68	0.001	n/a	NoResponse	0	n/a	n/a	5	60	Fixation	Neutral	True
573.266	0.16	Control	0.6720999999999999	0.004	No	2.68	-0.004	2.0	NoResponse	0	0.181	572.447	5	60	Target	Neutral	True
573.434	0.54	Control	0.6720999999999999	n/a	No	2.68	n/a	n/a	NoResponse	0	n/a	n/a	5	60	Blank	Neutral	True
573.447	0.3	Control	0.6720999999999999	0.004	No	2.68	-0.004	2.0	NoResponse	0	0.181	n/a	5	60	ButtonPress	Neutral	True
573.969	1.45	Control	0.6720999999999999	n/a	No	2.68	n/a	5.0	NoResponse	0	0.047	573.016	5	60	Feedback	Neutral	True
575.423	2.68	Control	0.6720999999999999	n/a	No	2.68	n/a	n/a	NoResponse	0	0.0	n/a	5	60	ISIslide	Neutral	True
578.131	0.25	Lose2	0.6613	0.0	No	2.969	0.031	n/a	NoResponse	-1	n/a	n/a	4	61	Cue	Loss	True
578.382	4.0	Lose2	0.6613	0.0	No	2.969	0.001	n/a	NoResponse	-1	n/a	n/a	4	61	Fixation	Loss	True
582.377	0.15	Lose2	0.6613	0.004	No	2.969	-0.004	2.0	NoResponse	-1	0.185	581.562	4	61	Target	Loss	True
582.528	0.55	Lose2	0.6613	n/a	No	2.969	n/a	n/a	NoResponse	-1	n/a	n/a	4	61	Blank	Loss	True
582.562	0.3	Lose2	0.6613	0.004	No	2.969	-0.004	2.0	NoResponse	-1	0.185	n/a	4	61	ButtonPress	Loss	True
583.079	1.45	Lose2	0.6613	n/a	No	2.969	n/a	5.0	NoResponse	-1	0.01	582.089	4	61	Feedback	Loss	True
584.534	2.969	Lose2	0.6613	n/a	No	2.969	n/a	n/a	NoResponse	-1	0.0	n/a	4	61	ISIslide	Loss	True
587.526	0.25	Lose2	0.6507999999999999	0.0	No	2.874	0.026	n/a	NoResponse	-1	n/a	n/a	3	62	Cue	Loss	True
587.777	3.9	Lose2	0.6507999999999999	0.0	No	2.874	0.001	n/a	NoResponse	-1	n/a	n/a	3	62	Fixation	Loss	True
591.672	0.15	Lose2	0.6507999999999999	0.004	No	2.874	-0.004	2.0	NoResponse	-1	0.197	590.869	3	62	Target	Loss	True
591.822	0.55	Lose2	0.6507999999999999	n/a	No	2.874	n/a	n/a	NoResponse	-1	n/a	n/a	3	62	Blank	Loss	True
591.869	0.3	Lose2	0.6507999999999999	0.004	No	2.874	-0.004	2.0	NoResponse	-1	0.197	n/a	3	62	ButtonPress	Loss	True
592.374	1.45	Lose2	0.6507999999999999	n/a	No	2.874	n/a	5.0	NoResponse	-1	0.033	591.407	3	62	Feedback	Loss	True
593.828	2.874	Lose2	0.6507999999999999	n/a	No	2.874	n/a	n/a	NoResponse	-1	0.0	n/a	3	62	ISIslide	Loss	True
596.72	0.25	Lose2	0.6406000000000001	0.0	No	2.63	0.02	n/a	NoResponse	-1	n/a	n/a	2	63	Cue	Loss	True
596.971	4.05	Lose2	0.6406000000000001	0.0	No	2.63	0.001	n/a	NoResponse	-1	n/a	n/a	2	63	Fixation	Loss	True
601.016	0.16	Lose2	0.6406000000000001	0.004	No	2.63	-0.004	2.0	NoResponse	-1	0.196	600.212	2	63	Target	Loss	True
601.183	0.54	Lose2	0.6406000000000001	n/a	No	2.63	n/a	n/a	NoResponse	-1	n/a	n/a	2	63	Blank	Loss	True
601.212	0.3	Lose2	0.6406000000000001	0.004	No	2.63	-0.004	2.0	NoResponse	-1	0.196	n/a	2	63	ButtonPress	Loss	True
601.718	1.45	Lose2	0.6406000000000001	n/a	No	2.63	n/a	5.0	NoResponse	-1	0.007	600.725	2	63	Feedback	Loss	True
603.173	2.63	Lose2	0.6406000000000001	n/a	No	2.63	n/a	n/a	NoResponse	-1	0.0	n/a	2	63	ISIslide	Loss	True
605.831	0.25	Win2	0.6308	0.0	No	3.119	0.031	n/a	NoResponse	0	n/a	n/a	2	64	Cue	MissedWin	True
606.081	4.15	Win2	0.6308	0.0	No	3.119	0.0	n/a	NoResponse	0	n/a	n/a	2	64	Fixation	MissedWin	True
610.227	0.17	Win2	0.6308	0.004	No	3.119	-0.004	2.0	NoResponse	0	0.231	609.458	2	64	Target	MissedWin	True
610.411	0.53	Win2	0.6308	n/a	No	3.119	n/a	n/a	NoResponse	0	n/a	n/a	2	64	Blank	MissedWin	True
610.458	0.3	Win2	0.6308	0.004	No	3.119	-0.004	2.0	NoResponse	0	0.231	n/a	2	64	ButtonPress	MissedWin	True
610.929	1.45	Win2	0.6308	n/a	No	3.119	n/a	5.0	NoResponse	0	0.013	609.942	2	64	Feedback	MissedWin	True
612.383	3.119	Win2	0.6308	n/a	No	3.119	n/a	n/a	NoResponse	0	0.0	n/a	2	64	ISIslide	MissedWin	True
615.526	0.25	Control	0.6364	0.0	Yes	2.774	0.026	n/a	GoodResponse	0	n/a	n/a	2	65	Cue	Neutral	True
615.777	4.0	Control	0.6364	0.0	Yes	2.774	0.001	n/a	GoodResponse	0	n/a	n/a	2	65	Fixation	Neutral	True
619.772	0.18	Control	0.6364	0.004	Yes	2.774	-0.004	2.0	GoodResponse	0	0.17	618.942	2	65	Target	Neutral	True
619.942	0.3	Control	0.6364	0.004	Yes	2.774	-0.004	2.0	GoodResponse	0	0.17	n/a	2	65	ButtonPress	Neutral	True
619.956	0.52	Control	0.6364	n/a	Yes	2.774	n/a	n/a	GoodResponse	0	n/a	n/a	2	65	Blank	Neutral	True
620.474	1.45	Control	0.6364	n/a	Yes	2.774	n/a	5.0	GoodResponse	0	0.029	619.503	2	65	Feedback	Neutral	True
621.929	2.774	Control	0.6364	n/a	Yes	2.774	n/a	n/a	GoodResponse	0	0.0	n/a	2	65	ISIslide	Neutral	True
624.72	0.25	Win2	0.6418	0.0	Yes	2.78	0.02	n/a	GoodResponse	1	n/a	n/a	3	66	Cue	Win	True
624.971	3.9	Win2	0.6418	0.0	Yes	2.78	0.001	n/a	GoodResponse	1	n/a	n/a	3	66	Fixation	Win	True
628.866	0.19	Win2	0.6418	0.004	Yes	2.78	-0.004	2.0	GoodResponse	1	0.104	627.97	3	66	Target	Win	True
628.97	0.3	Win2	0.6418	0.004	Yes	2.78	-0.004	2.0	GoodResponse	1	0.104	n/a	3	66	ButtonPress	Win	True
629.067	0.51	Win2	0.6418	n/a	Yes	2.78	n/a	n/a	GoodResponse	1	n/a	n/a	3	66	Blank	Win	True
629.568	1.45	Win2	0.6418	n/a	Yes	2.78	n/a	5.0	GoodResponse	1	0.009	628.577	3	66	Feedback	Win	True
631.023	2.78	Win2	0.6418	n/a	Yes	2.78	n/a	n/a	GoodResponse	1	0.0	n/a	3	66	ISIslide	Win	True
633.814	0.25	Control	0.6470999999999999	0.0	Yes	2.736	0.014	n/a	GoodResponse	0	n/a	n/a	3	67	Cue	Neutral	True
634.065	3.95	Control	0.6470999999999999	0.0	Yes	2.736	0.001	n/a	GoodResponse	0	n/a	n/a	3	67	Fixation	Neutral	True
638.01	0.2	Control	0.6470999999999999	0.004	Yes	2.736	-0.004	2.0	GoodResponse	0	0.197	637.207	3	67	Target	Neutral	True
638.207	0.3	Control	0.6470999999999999	0.004	Yes	2.736	-0.004	2.0	GoodResponse	0	0.197	n/a	3	67	ButtonPress	Neutral	True
638.211	0.5	Control	0.6470999999999999	n/a	Yes	2.736	n/a	n/a	GoodResponse	0	n/a	n/a	3	67	Blank	Neutral	True
638.712	1.45	Control	0.6470999999999999	n/a	Yes	2.736	n/a	5.0	GoodResponse	0	0.036	637.748	3	67	Feedback	Neutral	True
640.167	2.736	Control	0.6470999999999999	n/a	Yes	2.736	n/a	n/a	GoodResponse	0	0.0	n/a	3	67	ISIslide	Neutral	True
642.925	0.25	Win2	0.6522	0.0	Yes	3.075	0.025	n/a	GoodResponse	1	n/a	n/a	4	68	Cue	Win	True
643.175	4.0	Win2	0.6522	0.001	Yes	3.075	0.0	n/a	GoodResponse	1	n/a	n/a	4	68	Fixation	Win	True
647.171	0.21	Win2	0.6522	0.004	Yes	3.075	-0.004	2.0	GoodResponse	1	0.177	646.348	4	68	Target	Win	True
647.348	0.3	Win2	0.6522	0.004	Yes	3.075	-0.004	2.0	GoodResponse	1	0.177	n/a	4	68	ButtonPress	Win	True
647.388	0.49	Win2	0.6522	n/a	Yes	3.075	n/a	n/a	GoodResponse	1	n/a	n/a	4	68	Blank	Win	True
647.873	1.45	Win2	0.6522	n/a	Yes	3.075	n/a	5.0	GoodResponse	1	0.044	646.917	4	68	Feedback	Win	True
649.327	3.075	Win2	0.6522	n/a	Yes	3.075	n/a	n/a	GoodResponse	1	0.0	n/a	4	68	ISIslide	Win	True
652.42	0.25	Win2	0.6570999999999999	0.0	Yes	3.23	0.02	n/a	GoodResponse	1	n/a	n/a	5	69	Cue	Win	True
652.671	3.95	Win2	0.6570999999999999	0.0	Yes	3.23	0.001	n/a	GoodResponse	1	n/a	n/a	5	69	Fixation	Win	True
656.616	0.22	Win2	0.6570999999999999	0.004	Yes	3.23	-0.004	2.0	GoodResponse	1	0.181	655.797	5	69	Target	Win	True
656.797	0.3	Win2	0.6570999999999999	0.004	Yes	3.23	-0.004	2.0	GoodResponse	1	0.181	n/a	5	69	ButtonPress	Win	True
656.85	0.48	Win2	0.6570999999999999	n/a	Yes	3.23	n/a	n/a	GoodResponse	1	n/a	n/a	5	69	Blank	Win	True
657.318	1.45	Win2	0.6570999999999999	n/a	Yes	3.23	n/a	5.0	GoodResponse	1	0.014	656.332	5	69	Feedback	Win	True
658.772	3.23	Win2	0.6570999999999999	n/a	Yes	3.23	n/a	n/a	GoodResponse	1	0.0	n/a	5	69	ISIslide	Win	True
662.015	0.25	Lose2	0.662	0.0	Yes	3.035	0.015	n/a	GoodResponse	0	n/a	n/a	5	70	Cue	AvoidedLoss	True
662.266	4.05	Lose2	0.662	0.0	Yes	3.035	0.001	n/a	GoodResponse	0	n/a	n/a	5	70	Fixation	AvoidedLoss	True
666.311	0.22	Lose2	0.662	0.004	Yes	3.035	-0.004	2.0	GoodResponse	0	0.19	665.501	5	70	Target	AvoidedLoss	True
666.501	0.3	Lose2	0.662	0.004	Yes	3.035	-0.004	2.0	GoodResponse	0	0.19	n/a	5	70	ButtonPress	AvoidedLoss	True
666.545	0.48	Lose2	0.662	n/a	Yes	3.035	n/a	n/a	GoodResponse	0	n/a	n/a	5	70	Blank	AvoidedLoss	True
667.013	1.45	Lose2	0.662	n/a	Yes	3.035	n/a	5.0	GoodResponse	0	0.026	666.039	5	70	Feedback	AvoidedLoss	True
668.468	3.035	Lose2	0.662	n/a	Yes	3.035	n/a	n/a	GoodResponse	0	0.0	n/a	5	70	ISIslide	AvoidedLoss	True
671.527	0.25	Win2	0.6667000000000001	0.0	Yes	2.723	0.027	n/a	GoodResponse	1	n/a	n/a	6	71	Cue	Win	True
671.778	4.05	Win2	0.6667000000000001	0.0	Yes	2.723	0.001	n/a	GoodResponse	1	n/a	n/a	6	71	Fixation	Win	True
675.823	0.22	Win2	0.6667000000000001	0.004	Yes	2.723	-0.004	2.0	GoodResponse	1	0.201	675.024	6	71	Target	Win	True
676.024	0.3	Win2	0.6667000000000001	0.004	Yes	2.723	-0.004	2.0	GoodResponse	1	0.201	n/a	6	71	ButtonPress	Win	True
676.057	0.48	Win2	0.6667000000000001	n/a	Yes	2.723	n/a	n/a	GoodResponse	1	n/a	n/a	6	71	Blank	Win	True
676.525	1.45	Win2	0.6667000000000001	n/a	Yes	2.723	n/a	5.0	GoodResponse	1	0.027	675.552	6	71	Feedback	Win	True
677.98	2.723	Win2	0.6667000000000001	n/a	Yes	2.723	n/a	n/a	GoodResponse	1	0.0	n/a	6	71	ISIslide	Win	True
680.721	0.25	Win2	0.6712	0.0	Yes	2.779	0.021	n/a	GoodResponse	1	n/a	n/a	7	72	Cue	Win	True
680.972	4.1	Win2	0.6712	0.0	Yes	2.779	0.001	n/a	GoodResponse	1	n/a	n/a	7	72	Fixation	Win	True
685.067	0.21	Win2	0.6712	0.004	Yes	2.779	-0.004	2.0	GoodResponse	1	0.205	684.272	7	72	Target	Win	True
685.272	0.3	Win2	0.6712	0.004	Yes	2.779	-0.004	2.0	GoodResponse	1	0.205	n/a	7	72	ButtonPress	Win	True
685.285	0.49	Win2	0.6712	n/a	Yes	2.779	n/a	n/a	GoodResponse	1	n/a	n/a	7	72	Blank	Win	True
685.77	1.45	Win2	0.6712	n/a	Yes	2.779	n/a	5.0	GoodResponse	1	0.001	684.771	7	72	Feedback	Win	True
687.224	2.779	Win2	0.6712	n/a	Yes	2.779	n/a	n/a	GoodResponse	1	0.0	n/a	7	72	ISIslide	Win	True
690.016	0.25	Win2	0.6757	0.0	Yes	2.684	0.016	n/a	GoodResponse	1	n/a	n/a	8	73	Cue	Win	True
690.266	4.0	Win2	0.6757	0.0	Yes	2.684	0.0	n/a	GoodResponse	1	n/a	n/a	8	73	Fixation	Win	True
694.262	0.2	Win2	0.6757	0.004	Yes	2.684	-0.004	2.0	GoodResponse	1	0.188	693.45	8	73	Target	Win	True
694.45	0.3	Win2	0.6757	0.004	Yes	2.684	-0.004	2.0	GoodResponse	1	0.188	n/a	8	73	ButtonPress	Win	True
694.462	0.5	Win2	0.6757	n/a	Yes	2.684	n/a	n/a	GoodResponse	1	n/a	n/a	8	73	Blank	Win	True
694.964	1.45	Win2	0.6757	n/a	Yes	2.684	n/a	5.0	GoodResponse	1	0.026	693.99	8	73	Feedback	Win	True
696.418	2.684	Win2	0.6757	n/a	Yes	2.684	n/a	n/a	GoodResponse	1	0.0	n/a	8	73	ISIslide	Win	True
699.126	0.25	Lose2	0.6667000000000001	0.0	No	2.624	0.026	n/a	LatePress	-1	n/a	n/a	7	74	Cue	Loss	True
699.377	4.05	Lose2	0.6667000000000001	0.0	No	2.624	0.001	n/a	LatePress	-1	n/a	n/a	7	74	Fixation	Loss	True
703.422	0.19	Lose2	0.6667000000000001	0.004	No	2.624	-0.004	2.0	LatePress	-1	0.198	702.62	7	74	Target	Loss	True
703.62	0.3	Lose2	0.6667000000000001	0.004	No	2.624	-0.004	2.0	LatePress	-1	0.198	n/a	7	74	ButtonPress	Loss	True
703.623	0.51	Lose2	0.6667000000000001	n/a	No	2.624	n/a	n/a	LatePress	-1	n/a	n/a	7	74	Blank	Loss	True
704.124	1.45	Lose2	0.6667000000000001	n/a	No	2.624	n/a	5.0	LatePress	-1	0.037	703.161	7	74	Feedback	Loss	True
705.579	2.624	Lose2	0.6667000000000001	n/a	No	2.624	n/a	n/a	LatePress	-1	0.0	n/a	7	74	ISIslide	Loss	True
708.22	0.25	Lose2	0.6579	0.0	No	2.93	0.02	n/a	NoResponse	-1	n/a	n/a	6	75	Cue	Loss	True
708.471	3.95	Lose2	0.6579	0.0	No	2.93	0.001	n/a	NoResponse	-1	n/a	n/a	6	75	Fixation	Loss	True
712.416	0.18	Lose2	0.6579	0.004	No	2.93	-0.004	2.0	NoResponse	-1	0.192	711.608	6	75	Target	Loss	True
712.6	0.52	Lose2	0.6579	n/a	No	2.93	n/a	n/a	NoResponse	-1	n/a	n/a	6	75	Blank	Loss	True
712.608	0.3	Lose2	0.6579	0.004	No	2.93	-0.004	2.0	NoResponse	-1	0.192	n/a	6	75	ButtonPress	Loss	True
713.118	1.45	Lose2	0.6579	n/a	No	2.93	n/a	5.0	NoResponse	-1	0.019	712.137	6	75	Feedback	Loss	True
714.572	2.93	Lose2	0.6579	n/a	No	2.93	n/a	n/a	NoResponse	-1	0.0	n/a	6	75	ISIslide	Loss	True
717.514	0.25	Control	0.6494	0.001	No	3.236	0.014	n/a	NoResponse	0	n/a	n/a	6	76	Cue	Neutral	True
717.765	4.05	Control	0.6494	0.0	No	3.236	0.001	n/a	NoResponse	0	n/a	n/a	6	76	Fixation	Neutral	True
721.811	0.18	Control	0.6494	0.003	No	3.236	-0.003	2.0	NoResponse	0	0.195	721.006	6	76	Target	Neutral	True
721.994	0.52	Control	0.6494	n/a	No	3.236	n/a	n/a	NoResponse	0	n/a	n/a	6	76	Blank	Neutral	True
722.006	0.3	Control	0.6494	0.003	No	3.236	-0.003	2.0	NoResponse	0	0.195	n/a	6	76	ButtonPress	Neutral	True
722.513	1.45	Control	0.6494	n/a	No	3.236	n/a	5.0	NoResponse	0	0.038	721.551	6	76	Feedback	Neutral	True
723.967	3.236	Control	0.6494	n/a	No	3.236	n/a	n/a	NoResponse	0	0.0	n/a	6	76	ISIslide	Neutral	True
727.227	0.25	Lose2	0.6409999999999999	0.0	No	2.573	0.027	n/a	LatePress	-1	n/a	n/a	5	77	Cue	Loss	True
727.478	3.95	Lose2	0.6409999999999999	0.0	No	2.573	0.001	n/a	LatePress	-1	n/a	n/a	5	77	Fixation	Loss	True
731.423	0.19	Lose2	0.6409999999999999	0.004	No	2.573	-0.004	2.0	LatePress	-1	0.199	730.622	5	77	Target	Loss	True
731.622	0.3	Lose2	0.6409999999999999	0.004	No	2.573	-0.004	2.0	LatePress	-1	0.199	n/a	5	77	ButtonPress	Loss	True
731.623	0.51	Lose2	0.6409999999999999	n/a	No	2.573	n/a	n/a	LatePress	-1	n/a	n/a	5	77	Blank	Loss	True
732.125	1.45	Lose2	0.6409999999999999	n/a	No	2.573	n/a	5.0	LatePress	-1	0.035	731.16	5	77	Feedback	Loss	True
733.579	2.573	Lose2	0.6409999999999999	n/a	No	2.573	n/a	n/a	LatePress	-1	0.0	n/a	5	77	ISIslide	Loss	True
