onset	duration	cue_type	current_mean_accuracy	duration_error	is_hit	isi_adjusted	onset_delay	response	response_type	reward	rt	rt_time	total_reward	trial_number	trial_phase	trial_type	one_press
11.105	0.25	Control	1.0	0.0	Yes	2.945	0.005	n/a	GoodResponse	0	n/a	n/a	0	0	Cue	Neutral	False
11.356	3.85	Control	1.0	0.0	Yes	2.945	0.001	2.0	GoodResponse	0	0.403	10.759	0	0	Fixation	Neutral	False
11.759	0.3	Control	1.0	0.0	Yes	2.945	0.001	2.0	GoodResponse	0	0.403	n/a	0	0	ButtonPress	Neutral	False
15.201	0.4	Control	1.0	0.004	Yes	2.945	-0.004	2.0	GoodResponse	0	0.282	14.483	0	0	Target	Neutral	False
15.483	0.3	Control	1.0	0.004	Yes	2.945	-0.004	2.0	GoodResponse	0	0.282	n/a	0	0	ButtonPress	Neutral	False
15.602	0.3	Control	1.0	n/a	Yes	2.945	n/a	n/a	GoodResponse	0	n/a	n/a	0	0	Blank	Neutral	False
15.903	1.45	Control	1.0	n/a	Yes	2.945	n/a	5.0	GoodResponse	0	0.024	14.927	0	0	Feedback	Neutral	False
17.357	2.945	Control	1.0	n/a	Yes	2.945	n/a	n/a	GoodResponse	0	0.0	n/a	0	0	ISIslide	Neutral	False
20.316	0.25	Lose2	1.0	0.0	Yes	2.784	0.016	n/a	GoodResponse	0	n/a	n/a	0	1	Cue	AvoidedLoss	True
20.567	4.0	Lose2	1.0	0.0	Yes	2.784	0.001	n/a	GoodResponse	0	n/a	n/a	0	1	Fixation	AvoidedLoss	True
24.562	0.39	Lose2	1.0	0.004	Yes	2.784	-0.004	2.0	GoodResponse	0	0.257	23.819	0	1	Target	AvoidedLoss	True
24.819	0.3	Lose2	1.0	0.004	Yes	2.784	-0.004	2.0	GoodResponse	0	0.257	n/a	0	1	ButtonPress	AvoidedLoss	True
24.963	0.31	Lose2	1.0	n/a	Yes	2.784	n/a	n/a	GoodResponse	0	n/a	n/a	0	1	Blank	AvoidedLoss	True
25.264	1.45	Lose2	1.0	n/a	Yes	2.784	n/a	5.0	GoodResponse	0	0.029	24.293	0	1	Feedback	AvoidedLoss	True
26.718	2.784	Lose2	1.0	n/a	Yes	2.784	n/a	n/a	GoodResponse	0	0.0	n/a	0	1	ISIslide	AvoidedLoss	True
29.527	0.25	Control	0.6667000000000001	0.0	No	2.573	0.027	n/a	NoResponse	0	n/a	n/a	0	2	Cue	Neutral	True
29.777	4.1	Control	0.6667000000000001	0.001	No	2.573	0.0	n/a	NoResponse	0	n/a	n/a	0	2	Fixation	Neutral	True
33.873	0.38	Control	0.6667000000000001	0.004	No	2.573	-0.004	n/a	NoResponse	0	n/a	n/a	0	2	Target	Neutral	True
34.258	0.32	Control	0.6667000000000001	n/a	No	2.573	n/a	n/a	NoResponse	0	n/a	n/a	0	2	Blank	Neutral	True
34.575	1.45	Control	0.6667000000000001	n/a	No	2.573	n/a	2.0	NoResponse	0	0.029	33.604	0	2	Feedback	Neutral	True
34.604	0.3	Control	0.6667000000000001	n/a	No	2.573	n/a	2.0	NoResponse	0	0.029	n/a	0	2	ButtonPress	Neutral	True
36.029	2.573	Control	0.6667000000000001	n/a	No	2.573	n/a	n/a	NoResponse	0	0.0	n/a	0	2	ISIslide	Neutral	True
38.621	0.25	Win2	0.75	0.0	Yes	2.829	0.021	n/a	GoodResponse	1	n/a	n/a	1	3	Cue	Win	True
38.871	3.95	Win2	0.75	0.0	Yes	2.829	0.0	n/a	GoodResponse	1	n/a	n/a	1	3	Fixation	Win	True
42.816	0.37	Win2	0.75	0.005	Yes	2.829	-0.005	2.0	GoodResponse	1	0.203	42.019	1	3	Target	Win	True
43.019	0.3	Win2	0.75	0.005	Yes	2.829	-0.005	2.0	GoodResponse	1	0.203	n/a	1	3	ButtonPress	Win	True
43.201	0.33	Win2	0.75	n/a	Yes	2.829	n/a	n/a	GoodResponse	1	n/a	n/a	1	3	Blank	Win	True
43.519	1.45	Win2	0.75	n/a	Yes	2.829	n/a	5.0	GoodResponse	1	0.017	42.536	1	3	Feedback	Win	True
44.973	2.829	Win2	0.75	n/a	Yes	2.829	n/a	n/a	GoodResponse	1	0.0	n/a	1	3	ISIslide	Win	True
47.831	0.25	Win2	0.8	0.001	Yes	3.269	0.031	n/a	GoodResponse	1	n/a	n/a	2	4	Cue	Win	True
48.082	4.0	Win2	0.8	0.0	Yes	3.269	0.001	n/a	GoodResponse	1	n/a	n/a	2	4	Fixation	Win	True
52.077	0.36	Win2	0.8	0.004	Yes	3.269	-0.004	2.0	GoodResponse	1	0.236	51.313	2	4	Target	Win	True
52.313	0.3	Win2	0.8	0.004	Yes	3.269	-0.004	2.0	GoodResponse	1	0.236	n/a	2	4	ButtonPress	Win	True
52.445	0.34	Win2	0.8	n/a	Yes	3.269	n/a	n/a	GoodResponse	1	n/a	n/a	2	4	Blank	Win	True
52.78	1.45	Win2	0.8	n/a	Yes	3.269	n/a	5.0	GoodResponse	1	0.024	51.804	2	4	Feedback	Win	True
54.234	3.269	Win2	0.8	n/a	Yes	3.269	n/a	n/a	GoodResponse	1	0.0	n/a	2	4	ISIslide	Win	True
57.527	0.25	Win2	0.8332999999999999	0.0	Yes	2.773	0.027	n/a	GoodResponse	1	n/a	n/a	3	5	Cue	Win	True
57.778	4.0	Win2	0.8332999999999999	0.0	Yes	2.773	0.001	n/a	GoodResponse	1	n/a	n/a	3	5	Fixation	Win	True
61.773	0.35	Win2	0.8332999999999999	0.004	Yes	2.773	-0.004	2.0	GoodResponse	1	0.214	60.987	3	5	Target	Win	True
61.987	0.3	Win2	0.8332999999999999	0.004	Yes	2.773	-0.004	2.0	GoodResponse	1	0.214	n/a	3	5	ButtonPress	Win	True
62.124	0.35	Win2	0.8332999999999999	n/a	Yes	2.773	n/a	n/a	GoodResponse	1	n/a	n/a	3	5	Blank	Win	True
62.475	1.45	Win2	0.8332999999999999	n/a	Yes	2.773	n/a	5.0	GoodResponse	1	0.037	61.512	3	5	Feedback	Win	True
63.93	2.773	Win2	0.8332999999999999	n/a	Yes	2.773	n/a	n/a	GoodResponse	1	0.0	n/a	3	5	ISIslide	Win	True
66.721	0.25	Lose2	0.8571	0.0	Yes	2.729	0.021	n/a	GoodResponse	0	n/a	n/a	3	6	Cue	AvoidedLoss	True
66.972	3.95	Lose2	0.8571	0.0	Yes	2.729	0.001	n/a	GoodResponse	0	n/a	n/a	3	6	Fixation	AvoidedLoss	True
70.917	0.34	Lose2	0.8571	0.004	Yes	2.729	-0.004	2.0	GoodResponse	0	0.213	70.13	3	6	Target	AvoidedLoss	True
71.13	0.3	Lose2	0.8571	0.004	Yes	2.729	-0.004	2.0	GoodResponse	0	0.213	n/a	3	6	ButtonPress	AvoidedLoss	True
71.268	0.36	Lose2	0.8571	n/a	Yes	2.729	n/a	n/a	GoodResponse	0	n/a	n/a	3	6	Blank	AvoidedLoss	True
71.619	1.45	Lose2	0.8571	n/a	Yes	2.729	n/a	5.0	GoodResponse	0	0.015	70.634	3	6	Feedback	AvoidedLoss	True
73.074	2.729	Lose2	0.8571	n/a	Yes	2.729	n/a	n/a	GoodResponse	0	0.0	n/a	3	6	ISIslide	AvoidedLoss	True
75.815	0.25	Lose2	0.875	0.0	Yes	4.035	0.015	n/a	GoodResponse	0	n/a	n/a	3	7	Cue	AvoidedLoss	True
76.066	4.05	Lose2	0.875	0.0	Yes	4.035	0.001	n/a	GoodResponse	0	n/a	n/a	3	7	Fixation	AvoidedLoss	True
80.111	0.33	Lose2	0.875	0.004	Yes	4.035	-0.004	2.0	GoodResponse	0	0.206	79.317	3	7	Target	AvoidedLoss	True
80.317	0.3	Lose2	0.875	0.004	Yes	4.035	-0.004	2.0	GoodResponse	0	0.206	n/a	3	7	ButtonPress	AvoidedLoss	True
80.446	0.37	Lose2	0.875	n/a	Yes	4.035	n/a	n/a	GoodResponse	0	n/a	n/a	3	7	Blank	AvoidedLoss	True
80.813	1.45	Lose2	0.875	n/a	Yes	4.035	n/a	5.0	GoodResponse	0	0.039	79.852	3	7	Feedback	AvoidedLoss	True
82.268	4.035	Lose2	0.875	n/a	Yes	4.035	n/a	n/a	GoodResponse	0	0.0	n/a	3	7	ISIslide	AvoidedLoss	True
86.33	0.25	Lose2	0.8889	0.0	Yes	3.02	0.03	n/a	GoodResponse	0	n/a	n/a	3	8	Cue	AvoidedLoss	True
86.581	3.95	Lose2	0.8889	0.0	Yes	3.02	0.001	n/a	GoodResponse	0	n/a	n/a	3	8	Fixation	AvoidedLoss	True
90.526	0.32	Lose2	0.8889	0.004	Yes	3.02	-0.004	2.0	GoodResponse	0	0.227	89.753	3	8	Target	AvoidedLoss	True
90.753	0.3	Lose2	0.8889	0.004	Yes	3.02	-0.004	2.0	GoodResponse	0	0.227	n/a	3	8	ButtonPress	AvoidedLoss	True
90.86	0.38	Lose2	0.8889	n/a	Yes	3.02	n/a	n/a	GoodResponse	0	n/a	n/a	3	8	Blank	AvoidedLoss	True
91.228	1.45	Lose2	0.8889	n/a	Yes	3.02	n/a	5.0	GoodResponse	0	0.015	90.243	3	8	Feedback	AvoidedLoss	True
92.682	3.02	Lose2	0.8889	n/a	Yes	3.02	n/a	n/a	GoodResponse	0	0.0	n/a	3	8	ISIslide	AvoidedLoss	True
95.725	0.25	Lose2	0.9	0.0	Yes	3.125	0.025	n/a	GoodResponse	0	n/a	n/a	3	9	Cue	AvoidedLoss	True
95.975	3.95	Lose2	0.9	0.0	Yes	3.125	0.0	n/a	GoodResponse	0	n/a	n/a	3	9	Fixation	AvoidedLoss	True
99.92	0.31	Lose2	0.9	0.005	Yes	3.125	-0.005	2.0	GoodResponse	0	0.193	99.113	3	9	Target	AvoidedLoss	True
100.113	0.3	Lose2	0.9	0.005	Yes	3.125	-0.005	2.0	GoodResponse	0	0.193	n/a	3	9	ButtonPress	AvoidedLoss	True
100.238	0.39	Lose2	0.9	n/a	Yes	3.125	n/a	n/a	GoodResponse	0	n/a	n/a	3	9	Blank	AvoidedLoss	True
100.623	1.45	Lose2	0.9	n/a	Yes	3.125	n/a	5.0	GoodResponse	0	0.034	99.657	3	9	Feedback	AvoidedLoss	True
102.077	3.125	Lose2	0.9	n/a	Yes	3.125	n/a	n/a	GoodResponse	0	0.0	n/a	3	9	ISIslide	AvoidedLoss	True
105.22	0.25	Control	0.9091	0.0	Yes	3.28	0.02	n/a	GoodResponse	0	n/a	n/a	3	10	Cue	Neutral	True
105.47	4.0	Control	0.9091	0.0	Yes	3.28	0.0	n/a	GoodResponse	0	n/a	n/a	3	10	Fixation	Neutral	True
109.466	0.3	Control	0.9091	0.004	Yes	3.28	-0.004	2.0	GoodResponse	0	0.27	108.736	3	10	Target	Neutral	True
109.736	0.3	Control	0.9091	0.004	Yes	3.28	-0.004	2.0	GoodResponse	0	0.27	n/a	3	10	ButtonPress	Neutral	True
109.767	0.4	Control	0.9091	n/a	Yes	3.28	n/a	n/a	GoodResponse	0	n/a	n/a	3	10	Blank	Neutral	True
110.168	1.45	Control	0.9091	n/a	Yes	3.28	n/a	5.0	GoodResponse	0	0.002	109.17	3	10	Feedback	Neutral	True
111.622	3.28	Control	0.9091	n/a	Yes	3.28	n/a	n/a	GoodResponse	0	0.0	n/a	3	10	ISIslide	Neutral	True
114.915	0.25	Lose2	0.9167000000000001	0.0	Yes	2.735	0.015	n/a	GoodResponse	0	n/a	n/a	3	11	Cue	AvoidedLoss	True
115.166	4.05	Lose2	0.9167000000000001	0.0	Yes	2.735	0.001	n/a	GoodResponse	0	n/a	n/a	3	11	Fixation	AvoidedLoss	True
119.211	0.29	Lose2	0.9167000000000001	0.004	Yes	2.735	-0.004	2.0	GoodResponse	0	0.196	118.407	3	11	Target	AvoidedLoss	True
119.407	0.3	Lose2	0.9167000000000001	0.004	Yes	2.735	-0.004	2.0	GoodResponse	0	0.196	n/a	3	11	ButtonPress	AvoidedLoss	True
119.512	0.41	Lose2	0.9167000000000001	n/a	Yes	2.735	n/a	n/a	GoodResponse	0	n/a	n/a	3	11	Blank	AvoidedLoss	True
119.914	1.45	Lose2	0.9167000000000001	n/a	Yes	2.735	n/a	5.0	GoodResponse	0	0.011	118.925	3	11	Feedback	AvoidedLoss	True
121.368	2.735	Lose2	0.9167000000000001	n/a	Yes	2.735	n/a	n/a	GoodResponse	0	0.0	n/a	3	11	ISIslide	AvoidedLoss	True
124.126	0.25	Control	0.9231	0.0	Yes	2.974	0.026	n/a	GoodResponse	0	n/a	n/a	3	12	Cue	Neutral	True
124.377	3.9	Control	0.9231	0.0	Yes	2.974	0.001	n/a	GoodResponse	0	n/a	n/a	3	12	Fixation	Neutral	True
128.272	0.28	Control	0.9231	0.004	Yes	2.974	-0.004	2.0	GoodResponse	0	0.229	127.501	3	12	Target	Neutral	True
128.501	0.3	Control	0.9231	0.004	Yes	2.974	-0.004	2.0	GoodResponse	0	0.229	n/a	3	12	ButtonPress	Neutral	True
128.556	0.42	Control	0.9231	n/a	Yes	2.974	n/a	n/a	GoodResponse	0	n/a	n/a	3	12	Blank	Neutral	True
128.974	1.45	Control	0.9231	n/a	Yes	2.974	n/a	5.0	GoodResponse	0	0.024	127.998	3	12	Feedback	Neutral	True
130.428	2.974	Control	0.9231	n/a	Yes	2.974	n/a	n/a	GoodResponse	0	0.0	n/a	3	12	ISIslide	Neutral	True
133.421	0.25	Control	0.8571	0.0	No	2.779	0.021	n/a	NoResponse	0	n/a	n/a	3	13	Cue	Neutral	True
133.671	4.0	Control	0.8571	0.0	No	2.779	0.0	n/a	NoResponse	0	n/a	n/a	3	13	Fixation	Neutral	True
137.667	0.27	Control	0.8571	0.004	No	2.779	-0.004	2.0	NoResponse	0	0.406	137.073	3	13	Target	Neutral	True
137.951	0.43	Control	0.8571	n/a	No	2.779	n/a	n/a	NoResponse	0	n/a	n/a	3	13	Blank	Neutral	True
138.073	0.3	Control	0.8571	0.004	No	2.779	-0.004	2.0	NoResponse	0	0.406	n/a	3	13	ButtonPress	Neutral	True
138.369	1.45	Control	0.8571	n/a	No	2.779	n/a	5.0	NoResponse	0	0.044	137.413	3	13	Feedback	Neutral	True
139.823	2.779	Control	0.8571	n/a	No	2.779	n/a	n/a	NoResponse	0	0.0	n/a	3	13	ISIslide	Neutral	True
142.615	0.25	Win2	0.8667	0.0	Yes	2.685	0.015	n/a	GoodResponse	1	n/a	n/a	4	14	Cue	Win	True
142.866	4.1	Win2	0.8667	0.0	Yes	2.685	0.001	n/a	GoodResponse	1	n/a	n/a	4	14	Fixation	Win	True
146.961	0.26	Win2	0.8667	0.004	Yes	2.685	-0.004	2.0	GoodResponse	1	0.213	146.174	4	14	Target	Win	True
147.174	0.3	Win2	0.8667	0.004	Yes	2.685	-0.004	2.0	GoodResponse	1	0.213	n/a	4	14	ButtonPress	Win	True
147.229	0.44	Win2	0.8667	n/a	Yes	2.685	n/a	n/a	GoodResponse	1	n/a	n/a	4	14	Blank	Win	True
147.663	1.45	Win2	0.8667	n/a	Yes	2.685	n/a	5.0	GoodResponse	1	0.018	146.681	4	14	Feedback	Win	True
149.118	2.685	Win2	0.8667	n/a	Yes	2.685	n/a	n/a	GoodResponse	1	0.0	n/a	4	14	ISIslide	Win	True
151.826	0.25	Control	0.875	0.0	Yes	2.974	0.026	n/a	GoodResponse	0	n/a	n/a	4	15	Cue	Neutral	True
152.076	4.0	Control	0.875	0.001	Yes	2.974	0.0	n/a	GoodResponse	0	n/a	n/a	4	15	Fixation	Neutral	True
156.072	0.25	Control	0.875	0.004	Yes	2.974	-0.004	2.0	GoodResponse	0	0.219	155.291	4	15	Target	Neutral	True
156.291	0.3	Control	0.875	0.004	Yes	2.974	-0.004	2.0	GoodResponse	0	0.219	n/a	4	15	ButtonPress	Neutral	True
156.322	0.45	Control	0.875	n/a	Yes	2.974	n/a	n/a	GoodResponse	0	n/a	n/a	4	15	Blank	Neutral	True
156.774	1.45	Control	0.875	n/a	Yes	2.974	n/a	5.0	GoodResponse	0	0.029	155.803	4	15	Feedback	Neutral	True
158.228	2.974	Control	0.875	n/a	Yes	2.974	n/a	n/a	GoodResponse	0	0.0	n/a	4	15	ISIslide	Neutral	True
161.22	0.25	Win2	0.8824	0.001	Yes	2.88	0.02	n/a	GoodResponse	1	n/a	n/a	5	16	Cue	Win	True
161.471	4.0	Win2	0.8824	0.0	Yes	2.88	0.001	n/a	GoodResponse	1	n/a	n/a	5	16	Fixation	Win	True
165.466	0.24	Win2	0.8824	0.004	Yes	2.88	-0.004	2.0	GoodResponse	1	0.228	164.694	5	16	Target	Win	True
165.694	0.3	Win2	0.8824	0.004	Yes	2.88	-0.004	2.0	GoodResponse	1	0.228	n/a	5	16	ButtonPress	Win	True
165.717	0.46	Win2	0.8824	n/a	Yes	2.88	n/a	n/a	GoodResponse	1	n/a	n/a	5	16	Blank	Win	True
166.169	1.45	Win2	0.8824	n/a	Yes	2.88	n/a	5.0	GoodResponse	1	0.048	165.217	5	16	Feedback	Win	True
167.623	2.88	Win2	0.8824	n/a	Yes	2.88	n/a	n/a	GoodResponse	1	0.0	n/a	5	16	ISIslide	Win	True
170.515	0.25	Lose2	0.8332999999999999	0.0	No	2.735	0.015	n/a	NoResponse	-1	n/a	n/a	4	17	Cue	Loss	True
170.766	3.95	Lose2	0.8332999999999999	0.0	No	2.735	0.001	n/a	NoResponse	-1	n/a	n/a	4	17	Fixation	Loss	True
174.711	0.23	Lose2	0.8332999999999999	0.004	No	2.735	-0.004	2.0	NoResponse	-1	0.271	173.982	4	17	Target	Loss	True
174.945	0.47	Lose2	0.8332999999999999	n/a	No	2.735	n/a	n/a	NoResponse	-1	n/a	n/a	4	17	Blank	Loss	True
174.982	0.3	Lose2	0.8332999999999999	0.004	No	2.735	-0.004	2.0	NoResponse	-1	0.271	n/a	4	17	ButtonPress	Loss	True
175.413	1.45	Lose2	0.8332999999999999	n/a	No	2.735	n/a	5.0	NoResponse	-1	0.024	174.437	4	17	Feedback	Loss	True
176.867	2.735	Lose2	0.8332999999999999	n/a	No	2.735	n/a	n/a	NoResponse	-1	0.0	n/a	4	17	ISIslide	Loss	True
179.625	0.25	Lose2	0.7895	0.001	No	2.725	0.025	n/a	NoResponse	-1	n/a	n/a	3	18	Cue	Loss	True
179.876	4.05	Lose2	0.7895	0.0	No	2.725	0.001	n/a	NoResponse	-1	n/a	n/a	3	18	Fixation	Loss	True
183.922	0.22	Lose2	0.7895	0.003	No	2.725	-0.003	2.0	NoResponse	-1	0.255	183.177	3	18	Target	Loss	True
184.156	0.48	Lose2	0.7895	n/a	No	2.725	n/a	n/a	NoResponse	-1	n/a	n/a	3	18	Blank	Loss	True
184.177	0.3	Lose2	0.7895	0.003	No	2.725	-0.003	2.0	NoResponse	-1	0.255	n/a	3	18	ButtonPress	Loss	True
184.624	1.45	Lose2	0.7895	n/a	No	2.725	n/a	5.0	NoResponse	-1	0.032	183.656	3	18	Feedback	Loss	True
186.078	2.725	Lose2	0.7895	n/a	No	2.725	n/a	2.0	NoResponse	-1	0.635	n/a	3	18	ISIslide	Loss	True
188.803	0.25	Control	0.75	0.0	No	2.947	0.003	n/a	NoResponse	0	n/a	n/a	3	19	Cue	Neutral	True
189.054	3.95	Control	0.75	0.0	No	2.947	0.001	n/a	NoResponse	0	n/a	n/a	3	19	Fixation	Neutral	True
192.999	0.21	Control	0.75	0.004	No	2.947	-0.004	2.0	NoResponse	0	0.278	192.277	3	19	Target	Neutral	True
193.216	0.49	Control	0.75	n/a	No	2.947	n/a	n/a	NoResponse	0	n/a	n/a	3	19	Blank	Neutral	True
193.277	0.3	Control	0.75	0.004	No	2.947	-0.004	2.0	NoResponse	0	0.278	n/a	3	19	ButtonPress	Neutral	True
193.701	1.45	Control	0.75	n/a	No	2.947	n/a	5.0	NoResponse	0	0.029	192.73	3	19	Feedback	Neutral	True
195.155	2.947	Control	0.75	n/a	No	2.947	n/a	n/a	NoResponse	0	0.0	n/a	3	19	ISIslide	Neutral	True
198.114	0.25	Control	0.7143	0.0	No	2.636	0.014	n/a	NoResponse	0	n/a	n/a	3	20	Cue	Neutral	True
198.365	4.05	Control	0.7143	0.0	No	2.636	0.001	n/a	NoResponse	0	n/a	n/a	3	20	Fixation	Neutral	True
202.41	0.2	Control	0.7143	0.004	No	2.636	-0.004	2.0	NoResponse	0	0.277	201.687	3	20	Target	Neutral	True
202.611	0.5	Control	0.7143	n/a	No	2.636	n/a	n/a	NoResponse	0	n/a	n/a	3	20	Blank	Neutral	True
202.687	0.3	Control	0.7143	0.004	No	2.636	-0.004	2.0	NoResponse	0	0.277	n/a	3	20	ButtonPress	Neutral	True
203.112	1.45	Control	0.7143	n/a	No	2.636	n/a	5.0	NoResponse	0	0.031	202.143	3	20	Feedback	Neutral	True
204.567	2.636	Control	0.7143	n/a	No	2.636	n/a	n/a	NoResponse	0	0.0	n/a	3	20	ISIslide	Neutral	True
207.225	0.25	Control	0.6818000000000001	0.0	No	2.775	0.025	n/a	NoResponse	0	n/a	n/a	3	21	Cue	Neutral	True
207.475	4.1	Control	0.6818000000000001	0.0	No	2.775	0.0	n/a	NoResponse	0	n/a	n/a	3	21	Fixation	Neutral	True
211.571	0.19	Control	0.6818000000000001	0.004	No	2.775	-0.004	2.0	NoResponse	0	0.25	210.821	3	21	Target	Neutral	True
211.772	0.51	Control	0.6818000000000001	n/a	No	2.775	n/a	n/a	NoResponse	0	n/a	n/a	3	21	Blank	Neutral	True
211.821	0.3	Control	0.6818000000000001	0.004	No	2.775	-0.004	2.0	NoResponse	0	0.25	n/a	3	21	ButtonPress	Neutral	True
212.273	1.45	Control	0.6818000000000001	n/a	No	2.775	n/a	5.0	NoResponse	0	0.041	211.314	3	21	Feedback	Neutral	True
213.727	2.775	Control	0.6818000000000001	n/a	No	2.775	n/a	n/a	NoResponse	0	0.0	n/a	3	21	ISIslide	Neutral	True
216.519	0.25	Control	0.6522	0.0	No	2.781	0.019	n/a	NoResponse	0	n/a	n/a	3	22	Cue	Neutral	True
216.77	4.0	Control	0.6522	0.0	No	2.781	0.001	n/a	NoResponse	0	n/a	n/a	3	22	Fixation	Neutral	True
220.765	0.18	Control	0.6522	0.004	No	2.781	-0.004	2.0	NoResponse	0	0.243	220.008	3	22	Target	Neutral	True
220.949	0.52	Control	0.6522	n/a	No	2.781	n/a	n/a	NoResponse	0	n/a	n/a	3	22	Blank	Neutral	True
221.008	0.3	Control	0.6522	0.004	No	2.781	-0.004	2.0	NoResponse	0	0.243	n/a	3	22	ButtonPress	Neutral	True
221.467	1.45	Control	0.6522	n/a	No	2.781	n/a	5.0	NoResponse	0	0.018	220.485	3	22	Feedback	Neutral	True
222.922	2.781	Control	0.6522	n/a	No	2.781	n/a	n/a	NoResponse	0	0.0	n/a	3	22	ISIslide	Neutral	True
225.713	0.25	Control	0.625	0.0	No	2.787	0.013	n/a	NoResponse	0	n/a	n/a	3	23	Cue	Neutral	True
225.964	3.9	Control	0.625	0.0	No	2.787	0.001	n/a	NoResponse	0	n/a	n/a	3	23	Fixation	Neutral	True
229.859	0.19	Control	0.625	0.004	No	2.787	-0.004	2.0	NoResponse	0	0.263	229.122	3	23	Target	Neutral	True
230.06	0.51	Control	0.625	n/a	No	2.787	n/a	n/a	NoResponse	0	n/a	n/a	3	23	Blank	Neutral	True
230.122	0.3	Control	0.625	0.004	No	2.787	-0.004	2.0	NoResponse	0	0.263	n/a	3	23	ButtonPress	Neutral	True
230.561	1.45	Control	0.625	n/a	No	2.787	n/a	5.0	NoResponse	0	0.046	229.607	3	23	Feedback	Neutral	True
232.015	2.787	Control	0.625	n/a	No	2.787	n/a	n/a	NoResponse	0	0.0	n/a	3	23	ISIslide	Neutral	True
234.824	0.25	Win2	0.6	0.0	No	3.126	0.024	n/a	NoResponse	0	n/a	n/a	3	24	Cue	MissedWin	True
235.075	3.95	Win2	0.6	0.0	No	3.126	0.001	n/a	NoResponse	0	n/a	n/a	3	24	Fixation	MissedWin	True
239.02	0.2	Win2	0.6	0.004	No	3.126	-0.004	2.0	NoResponse	0	0.211	238.231	3	24	Target	MissedWin	True
239.22	0.5	Win2	0.6	n/a	No	3.126	n/a	n/a	NoResponse	0	n/a	n/a	3	24	Blank	MissedWin	True
239.231	0.3	Win2	0.6	0.004	No	3.126	-0.004	2.0	NoResponse	0	0.211	n/a	3	24	ButtonPress	MissedWin	True
239.722	1.45	Win2	0.6	n/a	No	3.126	n/a	5.0	NoResponse	0	0.007	238.729	3	24	Feedback	MissedWin	True
241.176	3.126	Win2	0.6	n/a	No	3.126	n/a	n/a	NoResponse	0	0.0	n/a	3	24	ISIslide	MissedWin	True
244.319	0.25	Win2	0.6154	0.0	Yes	3.081	0.019	n/a	GoodResponse	1	n/a	n/a	4	25	Cue	Win	True
244.57	4.0	Win2	0.6154	0.0	Yes	3.081	0.001	n/a	GoodResponse	1	n/a	n/a	4	25	Fixation	Win	True
248.565	0.21	Win2	0.6154	0.004	Yes	3.081	-0.004	2.0	GoodResponse	1	0.202	247.767	4	25	Target	Win	True
248.767	0.3	Win2	0.6154	0.004	Yes	3.081	-0.004	2.0	GoodResponse	1	0.202	n/a	4	25	ButtonPress	Win	True
248.782	0.49	Win2	0.6154	n/a	Yes	3.081	n/a	n/a	GoodResponse	1	n/a	n/a	4	25	Blank	Win	True
249.267	1.45	Win2	0.6154	n/a	Yes	3.081	n/a	5.0	GoodResponse	1	0.022	248.289	4	25	Feedback	Win	True
250.721	3.081	Win2	0.6154	n/a	Yes	3.081	n/a	n/a	GoodResponse	1	0.0	n/a	4	25	ISIslide	Win	True
253.831	0.25	Win2	0.5926	0.0	No	2.919	0.031	n/a	LatePress	0	n/a	n/a	4	26	Cue	MissedWin	True
254.081	3.95	Win2	0.5926	0.0	No	2.919	0.0	n/a	LatePress	0	n/a	n/a	4	26	Fixation	MissedWin	True
258.027	0.22	Win2	0.5926	0.004	No	2.919	-0.004	2.0	LatePress	0	0.223	257.25	4	26	Target	MissedWin	True
258.25	0.3	Win2	0.5926	0.004	No	2.919	-0.004	2.0	LatePress	0	0.223	n/a	4	26	ButtonPress	MissedWin	True
258.261	0.48	Win2	0.5926	n/a	No	2.919	n/a	n/a	LatePress	0	n/a	n/a	4	26	Blank	MissedWin	True
258.729	1.45	Win2	0.5926	n/a	No	2.919	n/a	5.0	LatePress	0	0.024	257.753	4	26	Feedback	MissedWin	True
260.183	2.919	Win2	0.5926	n/a	No	2.919	n/a	n/a	LatePress	0	0.0	n/a	4	26	ISIslide	MissedWin	True
263.125	0.25	Lose2	0.5714	0.0	No	2.825	0.025	n/a	NoResponse	-1	n/a	n/a	3	27	Cue	Loss	True
263.376	4.05	Lose2	0.5714	0.0	No	2.825	0.001	n/a	NoResponse	-1	n/a	n/a	3	27	Fixation	Loss	True
267.421	0.23	Lose2	0.5714	0.004	No	2.825	-0.004	2.0	NoResponse	-1	0.235	266.656	3	27	Target	Loss	True
267.655	0.47	Lose2	0.5714	n/a	No	2.825	n/a	n/a	NoResponse	-1	n/a	n/a	3	27	Blank	Loss	True
267.656	0.3	Lose2	0.5714	0.004	No	2.825	-0.004	2.0	NoResponse	-1	0.235	n/a	3	27	ButtonPress	Loss	True
268.123	1.45	Lose2	0.5714	n/a	No	2.825	n/a	5.0	NoResponse	-1	0.044	267.167	3	27	Feedback	Loss	True
269.578	2.825	Lose2	0.5714	n/a	No	2.825	n/a	n/a	NoResponse	-1	0.0	n/a	3	27	ISIslide	Loss	True
272.42	0.25	Control	0.5517	0.0	No	2.83	0.02	n/a	NoResponse	0	n/a	n/a	3	28	Cue	Neutral	True
272.67	4.05	Control	0.5517	0.0	No	2.83	0.0	n/a	NoResponse	0	n/a	n/a	3	28	Fixation	Neutral	True
276.716	0.24	Control	0.5517	0.004	No	2.83	-0.004	2.0	NoResponse	0	0.286	276.002	3	28	Target	Neutral	True
276.967	0.46	Control	0.5517	n/a	No	2.83	n/a	n/a	NoResponse	0	n/a	n/a	3	28	Blank	Neutral	True
277.002	0.3	Control	0.5517	0.004	No	2.83	-0.004	2.0	NoResponse	0	0.286	n/a	3	28	ButtonPress	Neutral	True
277.418	1.45	Control	0.5517	n/a	No	2.83	n/a	5.0	NoResponse	0	0.018	276.436	3	28	Feedback	Neutral	True
278.872	2.83	Control	0.5517	n/a	No	2.83	n/a	n/a	NoResponse	0	0.0	n/a	3	28	ISIslide	Neutral	True
281.714	0.25	Lose2	0.5667	0.0	Yes	2.836	0.014	n/a	GoodResponse	0	n/a	n/a	3	29	Cue	AvoidedLoss	True
281.965	3.95	Lose2	0.5667	0.0	Yes	2.836	0.001	n/a	GoodResponse	0	n/a	n/a	3	29	Fixation	AvoidedLoss	True
285.91	0.25	Lose2	0.5667	0.004	Yes	2.836	-0.004	2.0	GoodResponse	0	0.248	285.158	3	29	Target	AvoidedLoss	True
286.158	0.3	Lose2	0.5667	0.004	Yes	2.836	-0.004	2.0	GoodResponse	0	0.248	n/a	3	29	ButtonPress	AvoidedLoss	True
286.161	0.45	Lose2	0.5667	n/a	Yes	2.836	n/a	n/a	GoodResponse	0	n/a	n/a	3	29	Blank	AvoidedLoss	True
286.612	1.45	Lose2	0.5667	n/a	Yes	2.836	n/a	5.0	GoodResponse	0	0.043	285.655	3	29	Feedback	AvoidedLoss	True
288.066	2.836	Lose2	0.5667	n/a	Yes	2.836	n/a	n/a	GoodResponse	0	0.0	n/a	3	29	ISIslide	AvoidedLoss	True
290.925	0.25	Win2	0.5806	0.0	Yes	2.775	0.025	n/a	GoodResponse	1	n/a	n/a	4	30	Cue	Win	True
291.176	3.9	Win2	0.5806	0.0	Yes	2.775	0.001	n/a	GoodResponse	1	n/a	n/a	4	30	Fixation	Win	True
295.071	0.26	Win2	0.5806	0.004	Yes	2.775	-0.004	2.0	GoodResponse	1	0.22	294.291	4	30	Target	Win	True
295.291	0.3	Win2	0.5806	0.004	Yes	2.775	-0.004	2.0	GoodResponse	1	0.22	n/a	4	30	ButtonPress	Win	True
295.338	0.44	Win2	0.5806	n/a	Yes	2.775	n/a	n/a	GoodResponse	1	n/a	n/a	4	30	Blank	Win	True
295.773	1.45	Win2	0.5806	n/a	Yes	2.775	n/a	5.0	GoodResponse	1	0.006	294.779	4	30	Feedback	Win	True
297.227	2.775	Win2	0.5806	n/a	Yes	2.775	n/a	n/a	GoodResponse	1	0.0	n/a	4	30	ISIslide	Win	True
300.019	0.25	Lose2	0.5938	0.0	Yes	2.831	0.019	n/a	GoodResponse	0	n/a	n/a	4	31	Cue	AvoidedLoss	True
300.27	4.05	Lose2	0.5938	0.0	Yes	2.831	0.001	n/a	GoodResponse	0	n/a	n/a	4	31	Fixation	AvoidedLoss	True
304.315	0.27	Lose2	0.5938	0.004	Yes	2.831	-0.004	2.0	GoodResponse	0	0.249	303.564	4	31	Target	AvoidedLoss	True
304.564	0.3	Lose2	0.5938	0.004	Yes	2.831	-0.004	2.0	GoodResponse	0	0.249	n/a	4	31	ButtonPress	AvoidedLoss	True
304.599	0.43	Lose2	0.5938	n/a	Yes	2.831	n/a	n/a	GoodResponse	0	n/a	n/a	4	31	Blank	AvoidedLoss	True
305.017	1.45	Lose2	0.5938	n/a	Yes	2.831	n/a	5.0	GoodResponse	0	0.028	304.045	4	31	Feedback	AvoidedLoss	True
306.471	2.831	Lose2	0.5938	n/a	Yes	2.831	n/a	n/a	GoodResponse	0	0.0	n/a	4	31	ISIslide	AvoidedLoss	True
309.33	0.25	Lose2	0.6061	0.0	Yes	2.62	0.03	n/a	GoodResponse	0	n/a	n/a	4	32	Cue	AvoidedLoss	True
309.581	4.15	Lose2	0.6061	0.0	Yes	2.62	0.001	n/a	GoodResponse	0	n/a	n/a	4	32	Fixation	AvoidedLoss	True
313.726	0.28	Lose2	0.6061	0.004	Yes	2.62	-0.004	2.0	GoodResponse	0	0.184	312.91	4	32	Target	AvoidedLoss	True
313.91	0.3	Lose2	0.6061	0.004	Yes	2.62	-0.004	2.0	GoodResponse	0	0.184	n/a	4	32	ButtonPress	AvoidedLoss	True
314.011	0.42	Lose2	0.6061	n/a	Yes	2.62	n/a	n/a	GoodResponse	0	n/a	n/a	4	32	Blank	AvoidedLoss	True
314.429	1.45	Lose2	0.6061	n/a	Yes	2.62	n/a	5.0	GoodResponse	0	0.031	313.46	4	32	Feedback	AvoidedLoss	True
315.883	2.62	Lose2	0.6061	n/a	Yes	2.62	n/a	n/a	GoodResponse	0	0.0	n/a	4	32	ISIslide	AvoidedLoss	True
318.524	0.25	Win2	0.6175999999999999	0.0	Yes	2.676	0.024	n/a	GoodResponse	1	n/a	n/a	5	33	Cue	Win	True
318.775	4.0	Win2	0.6175999999999999	0.0	Yes	2.676	0.001	n/a	GoodResponse	1	n/a	n/a	5	33	Fixation	Win	True
322.77	0.29	Win2	0.6175999999999999	0.004	Yes	2.676	-0.004	2.0	GoodResponse	1	0.239	322.009	5	33	Target	Win	True
323.009	0.3	Win2	0.6175999999999999	0.004	Yes	2.676	-0.004	2.0	GoodResponse	1	0.239	n/a	5	33	ButtonPress	Win	True
323.071	0.41	Win2	0.6175999999999999	n/a	Yes	2.676	n/a	n/a	GoodResponse	1	n/a	n/a	5	33	Blank	Win	True
323.472	1.45	Win2	0.6175999999999999	n/a	Yes	2.676	n/a	5.0	GoodResponse	1	0.012	322.484	5	33	Feedback	Win	True
324.927	2.676	Win2	0.6175999999999999	n/a	Yes	2.676	n/a	n/a	GoodResponse	1	0.0	n/a	5	33	ISIslide	Win	True
327.618	0.25	Lose2	0.6286	0.0	Yes	2.632	0.018	n/a	GoodResponse	0	n/a	n/a	5	34	Cue	AvoidedLoss	True
327.869	4.05	Lose2	0.6286	0.0	Yes	2.632	0.001	n/a	GoodResponse	0	n/a	n/a	5	34	Fixation	AvoidedLoss	True
331.914	0.3	Lose2	0.6286	0.004	Yes	2.632	-0.004	2.0	GoodResponse	0	0.211	331.125	5	34	Target	AvoidedLoss	True
332.125	0.3	Lose2	0.6286	0.004	Yes	2.632	-0.004	2.0	GoodResponse	0	0.211	n/a	5	34	ButtonPress	AvoidedLoss	True
332.215	0.4	Lose2	0.6286	n/a	Yes	2.632	n/a	n/a	GoodResponse	0	n/a	n/a	5	34	Blank	AvoidedLoss	True
332.616	1.45	Lose2	0.6286	n/a	Yes	2.632	n/a	5.0	GoodResponse	0	0.038	331.654	5	34	Feedback	AvoidedLoss	True
334.071	2.632	Lose2	0.6286	n/a	Yes	2.632	n/a	n/a	GoodResponse	0	0.0	n/a	5	34	ISIslide	AvoidedLoss	True
336.729	0.25	Lose2	0.6389	0.0	Yes	2.671	0.029	n/a	GoodResponse	0	n/a	n/a	5	35	Cue	AvoidedLoss	True
336.979	4.0	Lose2	0.6389	0.0	Yes	2.671	0.0	n/a	GoodResponse	0	n/a	n/a	5	35	Fixation	AvoidedLoss	True
340.975	0.31	Lose2	0.6389	0.004	Yes	2.671	-0.004	2.0	GoodResponse	0	0.185	340.16	5	35	Target	AvoidedLoss	True
341.16	0.3	Lose2	0.6389	0.004	Yes	2.671	-0.004	2.0	GoodResponse	0	0.185	n/a	5	35	ButtonPress	AvoidedLoss	True
341.292	0.39	Lose2	0.6389	n/a	Yes	2.671	n/a	n/a	GoodResponse	0	n/a	n/a	5	35	Blank	AvoidedLoss	True
341.677	1.45	Lose2	0.6389	n/a	Yes	2.671	n/a	5.0	GoodResponse	0	0.001	340.678	5	35	Feedback	AvoidedLoss	True
343.131	2.671	Lose2	0.6389	n/a	Yes	2.671	n/a	n/a	GoodResponse	0	0.0	n/a	5	35	ISIslide	AvoidedLoss	True
345.822	0.25	Control	0.6215999999999999	0.0	No	2.678	0.022	n/a	NoResponse	0	n/a	n/a	5	36	Cue	Neutral	True
346.073	4.0	Control	0.6215999999999999	0.0	No	2.678	0.001	n/a	NoResponse	0	n/a	n/a	5	36	Fixation	Neutral	True
350.068	0.32	Control	0.6215999999999999	0.004	No	2.678	-0.004	2.0	NoResponse	0	0.387	349.455	5	36	Target	Neutral	True
350.403	0.38	Control	0.6215999999999999	n/a	No	2.678	n/a	n/a	NoResponse	0	n/a	n/a	5	36	Blank	Neutral	True
350.455	0.3	Control	0.6215999999999999	0.004	No	2.678	-0.004	2.0	NoResponse	0	0.387	n/a	5	36	ButtonPress	Neutral	True
350.771	1.45	Control	0.6215999999999999	n/a	No	2.678	n/a	5.0	NoResponse	0	0.029	349.8	5	36	Feedback	Neutral	True
352.225	2.678	Control	0.6215999999999999	n/a	No	2.678	n/a	n/a	NoResponse	0	0.0	n/a	5	36	ISIslide	Neutral	True
354.916	0.25	Win2	0.6315999999999999	0.0	Yes	2.884	0.016	n/a	GoodResponse	1	n/a	n/a	6	37	Cue	Win	True
355.167	4.0	Win2	0.6315999999999999	0.0	Yes	2.884	0.001	n/a	GoodResponse	1	n/a	n/a	6	37	Fixation	Win	True
359.162	0.33	Win2	0.6315999999999999	0.004	Yes	2.884	-0.004	2.0	GoodResponse	1	0.257	358.419	6	37	Target	Win	True
359.419	0.3	Win2	0.6315999999999999	0.004	Yes	2.884	-0.004	2.0	GoodResponse	1	0.257	n/a	6	37	ButtonPress	Win	True
359.497	0.37	Win2	0.6315999999999999	n/a	Yes	2.884	n/a	n/a	GoodResponse	1	n/a	n/a	6	37	Blank	Win	True
359.864	1.45	Win2	0.6315999999999999	n/a	Yes	2.884	n/a	5.0	GoodResponse	1	0.01	358.874	6	37	Feedback	Win	True
361.319	2.884	Win2	0.6315999999999999	n/a	Yes	2.884	n/a	n/a	GoodResponse	1	0.0	n/a	6	37	ISIslide	Win	True
364.227	0.25	Lose2	0.6409999999999999	0.0	Yes	2.823	0.027	n/a	GoodResponse	0	n/a	n/a	6	38	Cue	AvoidedLoss	True
364.478	3.95	Lose2	0.6409999999999999	0.0	Yes	2.823	0.001	n/a	GoodResponse	0	n/a	n/a	6	38	Fixation	AvoidedLoss	True
368.423	0.34	Lose2	0.6409999999999999	0.004	Yes	2.823	-0.004	2.0	GoodResponse	0	0.232	367.655	6	38	Target	AvoidedLoss	True
368.655	0.3	Lose2	0.6409999999999999	0.004	Yes	2.823	-0.004	2.0	GoodResponse	0	0.232	n/a	6	38	ButtonPress	AvoidedLoss	True
368.774	0.36	Lose2	0.6409999999999999	n/a	Yes	2.823	n/a	n/a	GoodResponse	0	n/a	n/a	6	38	Blank	AvoidedLoss	True
369.125	1.45	Lose2	0.6409999999999999	n/a	Yes	2.823	n/a	5.0	GoodResponse	0	0.017	368.142	6	38	Feedback	AvoidedLoss	True
370.58	2.823	Lose2	0.6409999999999999	n/a	Yes	2.823	n/a	n/a	GoodResponse	0	0.0	n/a	6	38	ISIslide	AvoidedLoss	True
373.422	0.25	Win2	0.65	0.0	Yes	2.978	0.022	n/a	GoodResponse	1	n/a	n/a	7	39	Cue	Win	True
373.672	4.1	Win2	0.65	0.0	Yes	2.978	0.0	n/a	GoodResponse	1	n/a	n/a	7	39	Fixation	Win	True
377.768	0.35	Win2	0.65	0.004	Yes	2.978	-0.004	2.0	GoodResponse	1	0.216	376.984	7	39	Target	Win	True
377.984	0.3	Win2	0.65	0.004	Yes	2.978	-0.004	2.0	GoodResponse	1	0.216	n/a	7	39	ButtonPress	Win	True
378.119	0.35	Win2	0.65	n/a	Yes	2.978	n/a	n/a	GoodResponse	1	n/a	n/a	7	39	Blank	Win	True
378.47	1.45	Win2	0.65	n/a	Yes	2.978	n/a	5.0	GoodResponse	1	0.037	377.507	7	39	Feedback	Win	True
379.924	2.978	Win2	0.65	n/a	Yes	2.978	n/a	n/a	GoodResponse	1	0.0	n/a	7	39	ISIslide	Win	True
382.917	0.25	Win2	0.6585	0.0	Yes	2.733	0.017	n/a	GoodResponse	1	n/a	n/a	8	40	Cue	Win	True
383.167	3.95	Win2	0.6585	0.0	Yes	2.733	0.0	n/a	GoodResponse	1	n/a	n/a	8	40	Fixation	Win	True
387.112	0.36	Win2	0.6585	0.005	Yes	2.733	-0.005	2.0	GoodResponse	1	0.185	386.297	8	40	Target	Win	True
387.297	0.3	Win2	0.6585	0.005	Yes	2.733	-0.005	2.0	GoodResponse	1	0.185	n/a	8	40	ButtonPress	Win	True
387.48	0.34	Win2	0.6585	n/a	Yes	2.733	n/a	n/a	GoodResponse	1	n/a	n/a	8	40	Blank	Win	True
387.815	1.45	Win2	0.6585	n/a	Yes	2.733	n/a	5.0	GoodResponse	1	0.009	386.824	8	40	Feedback	Win	True
389.269	2.733	Win2	0.6585	n/a	Yes	2.733	n/a	n/a	GoodResponse	1	0.0	n/a	8	40	ISIslide	Win	True
392.027	0.25	Win2	0.6667000000000001	0.0	Yes	2.773	0.027	n/a	GoodResponse	1	n/a	n/a	9	41	Cue	Win	True
392.278	3.9	Win2	0.6667000000000001	0.0	Yes	2.773	0.001	n/a	GoodResponse	1	n/a	n/a	9	41	Fixation	Win	True
396.173	0.36	Win2	0.6667000000000001	0.004	Yes	2.773	-0.004	2.0	GoodResponse	1	0.248	395.421	9	41	Target	Win	True
396.421	0.3	Win2	0.6667000000000001	0.004	Yes	2.773	-0.004	2.0	GoodResponse	1	0.248	n/a	9	41	ButtonPress	Win	True
396.541	0.34	Win2	0.6667000000000001	n/a	Yes	2.773	n/a	n/a	GoodResponse	1	n/a	n/a	9	41	Blank	Win	True
396.875	1.45	Win2	0.6667000000000001	n/a	Yes	2.773	n/a	5.0	GoodResponse	1	0.022	395.897	9	41	Feedback	Win	True
398.329	2.773	Win2	0.6667000000000001	n/a	Yes	2.773	n/a	n/a	GoodResponse	1	0.0	n/a	9	41	ISIslide	Win	True
401.121	0.25	Control	0.6744	0.0	Yes	2.929	0.021	n/a	GoodResponse	0	n/a	n/a	9	42	Cue	Neutral	True
401.372	3.85	Control	0.6744	0.0	Yes	2.929	0.001	n/a	GoodResponse	0	n/a	n/a	9	42	Fixation	Neutral	True
405.217	0.35	Control	0.6744	0.004	Yes	2.929	-0.004	2.0	GoodResponse	0	0.176	404.393	9	42	Target	Neutral	True
405.393	0.3	Control	0.6744	0.004	Yes	2.929	-0.004	2.0	GoodResponse	0	0.176	n/a	9	42	ButtonPress	Neutral	True
405.568	0.35	Control	0.6744	n/a	Yes	2.929	n/a	n/a	GoodResponse	0	n/a	n/a	9	42	Blank	Neutral	True
405.919	1.45	Control	0.6744	n/a	Yes	2.929	n/a	5.0	GoodResponse	0	0.008	404.927	9	42	Feedback	Neutral	True
407.373	2.929	Control	0.6744	n/a	Yes	2.929	n/a	n/a	GoodResponse	0	0.0	n/a	9	42	ISIslide	Neutral	True
410.315	0.25	Win2	0.6818000000000001	0.0	Yes	3.185	0.015	n/a	GoodResponse	1	n/a	n/a	10	43	Cue	Win	True
410.566	4.0	Win2	0.6818000000000001	0.0	Yes	3.185	0.001	n/a	GoodResponse	1	n/a	n/a	10	43	Fixation	Win	True
414.561	0.34	Win2	0.6818000000000001	0.004	Yes	3.185	-0.004	2.0	GoodResponse	1	0.296	413.857	10	43	Target	Win	True
414.857	0.3	Win2	0.6818000000000001	0.004	Yes	3.185	-0.004	2.0	GoodResponse	1	0.296	n/a	10	43	ButtonPress	Win	True
414.912	0.36	Win2	0.6818000000000001	n/a	Yes	3.185	n/a	n/a	GoodResponse	1	n/a	n/a	10	43	Blank	Win	True
415.263	1.45	Win2	0.6818000000000001	n/a	Yes	3.185	n/a	5.0	GoodResponse	1	0.025	414.288	10	43	Feedback	Win	True
416.718	3.185	Win2	0.6818000000000001	n/a	Yes	3.185	n/a	n/a	GoodResponse	1	0.0	n/a	10	43	ISIslide	Win	True
419.927	0.25	Win2	0.6889	0.0	Yes	2.973	0.027	n/a	GoodResponse	1	n/a	n/a	11	44	Cue	Win	True
420.178	4.0	Win2	0.6889	0.0	Yes	2.973	0.001	n/a	GoodResponse	1	n/a	n/a	11	44	Fixation	Win	True
424.173	0.33	Win2	0.6889	0.004	Yes	2.973	-0.004	2.0	GoodResponse	1	0.208	423.381	11	44	Target	Win	True
424.381	0.3	Win2	0.6889	0.004	Yes	2.973	-0.004	2.0	GoodResponse	1	0.208	n/a	11	44	ButtonPress	Win	True
424.508	0.37	Win2	0.6889	n/a	Yes	2.973	n/a	n/a	GoodResponse	1	n/a	n/a	11	44	Blank	Win	True
424.875	1.45	Win2	0.6889	n/a	Yes	2.973	n/a	5.0	GoodResponse	1	0.022	423.897	11	44	Feedback	Win	True
426.33	2.973	Win2	0.6889	n/a	Yes	2.973	n/a	n/a	GoodResponse	1	0.0	n/a	11	44	ISIslide	Win	True
429.322	0.25	Control	0.6957	0.0	Yes	2.878	0.022	n/a	GoodResponse	0	n/a	n/a	11	45	Cue	Neutral	True
429.573	4.1	Control	0.6957	0.0	Yes	2.878	0.001	n/a	GoodResponse	0	n/a	n/a	11	45	Fixation	Neutral	True
433.668	0.32	Control	0.6957	0.004	Yes	2.878	-0.004	2.0	GoodResponse	0	0.215	432.883	11	45	Target	Neutral	True
433.883	0.3	Control	0.6957	0.004	Yes	2.878	-0.004	2.0	GoodResponse	0	0.215	n/a	11	45	ButtonPress	Neutral	True
434.003	0.38	Control	0.6957	n/a	Yes	2.878	n/a	n/a	GoodResponse	0	n/a	n/a	11	45	Blank	Neutral	True
434.37	1.45	Control	0.6957	n/a	Yes	2.878	n/a	5.0	GoodResponse	0	0.039	433.409	11	45	Feedback	Neutral	True
435.825	2.878	Control	0.6957	n/a	Yes	2.878	n/a	n/a	GoodResponse	0	0.0	n/a	11	45	ISIslide	Neutral	True
438.717	0.25	Lose2	0.7021	0.0	Yes	3.383	0.017	n/a	GoodResponse	0	n/a	n/a	11	46	Cue	AvoidedLoss	True
438.968	4.0	Lose2	0.7021	0.0	Yes	3.383	0.001	n/a	GoodResponse	0	n/a	n/a	11	46	Fixation	AvoidedLoss	True
442.963	0.31	Lose2	0.7021	0.004	Yes	3.383	-0.004	2.0	GoodResponse	0	0.176	442.139	11	46	Target	AvoidedLoss	True
443.139	0.3	Lose2	0.7021	0.004	Yes	3.383	-0.004	2.0	GoodResponse	0	0.176	n/a	11	46	ButtonPress	AvoidedLoss	True
443.28	0.39	Lose2	0.7021	n/a	Yes	3.383	n/a	n/a	GoodResponse	0	n/a	n/a	11	46	Blank	AvoidedLoss	True
443.665	1.45	Lose2	0.7021	n/a	Yes	3.383	n/a	5.0	GoodResponse	0	0.012	442.677	11	46	Feedback	AvoidedLoss	True
445.119	3.383	Lose2	0.7021	n/a	Yes	3.383	n/a	n/a	GoodResponse	0	0.0	n/a	11	46	ISIslide	AvoidedLoss	True
448.529	0.25	Lose2	0.7082999999999999	0.001	Yes	2.671	0.029	n/a	GoodResponse	0	n/a	n/a	11	47	Cue	AvoidedLoss	False
448.78	4.0	Lose2	0.7082999999999999	0.0	Yes	2.671	0.001	2.0	GoodResponse	0	0.55	448.33	11	47	Fixation	AvoidedLoss	False
449.33	0.3	Lose2	0.7082999999999999	0.0	Yes	2.671	0.001	2.0	GoodResponse	0	0.55	n/a	11	47	ButtonPress	AvoidedLoss	False
452.775	0.3	Lose2	0.7082999999999999	0.004	Yes	2.671	-0.004	2.0	GoodResponse	0	0.205	451.98	11	47	Target	AvoidedLoss	False
452.98	0.3	Lose2	0.7082999999999999	0.004	Yes	2.671	-0.004	2.0	GoodResponse	0	0.205	n/a	11	47	ButtonPress	AvoidedLoss	False
453.076	0.4	Lose2	0.7082999999999999	n/a	Yes	2.671	n/a	n/a	GoodResponse	0	n/a	n/a	11	47	Blank	AvoidedLoss	False
453.478	1.45	Lose2	0.7082999999999999	n/a	Yes	2.671	n/a	5.0	GoodResponse	0	0.007	452.485	11	47	Feedback	AvoidedLoss	False
454.932	2.671	Lose2	0.7082999999999999	n/a	Yes	2.671	n/a	n/a	GoodResponse	0	0.0	n/a	11	47	ISIslide	AvoidedLoss	False
457.623	0.25	Lose2	0.7143	0.0	Yes	3.027	0.023	n/a	GoodResponse	0	n/a	n/a	11	48	Cue	AvoidedLoss	True
457.874	3.95	Lose2	0.7143	0.0	Yes	3.027	0.001	n/a	GoodResponse	0	n/a	n/a	11	48	Fixation	AvoidedLoss	True
461.819	0.29	Lose2	0.7143	0.004	Yes	3.027	-0.004	2.0	GoodResponse	0	0.193	461.012	11	48	Target	AvoidedLoss	True
462.012	0.3	Lose2	0.7143	0.004	Yes	3.027	-0.004	2.0	GoodResponse	0	0.193	n/a	11	48	ButtonPress	AvoidedLoss	True
462.12	0.41	Lose2	0.7143	n/a	Yes	3.027	n/a	n/a	GoodResponse	0	n/a	n/a	11	48	Blank	AvoidedLoss	True
462.521	1.45	Lose2	0.7143	n/a	Yes	3.027	n/a	5.0	GoodResponse	0	0.034	461.555	11	48	Feedback	AvoidedLoss	True
463.976	3.027	Lose2	0.7143	n/a	Yes	3.027	n/a	n/a	GoodResponse	0	0.0	n/a	11	48	ISIslide	AvoidedLoss	True
467.018	0.25	Control	0.72	0.0	Yes	2.882	0.018	n/a	GoodResponse	0	n/a	n/a	11	49	Cue	Neutral	True
467.269	4.0	Control	0.72	0.0	Yes	2.882	0.001	n/a	GoodResponse	0	n/a	n/a	11	49	Fixation	Neutral	True
471.264	0.28	Control	0.72	0.004	Yes	2.882	-0.004	2.0	GoodResponse	0	0.219	470.483	11	49	Target	Neutral	True
471.483	0.3	Control	0.72	0.004	Yes	2.882	-0.004	2.0	GoodResponse	0	0.219	n/a	11	49	ButtonPress	Neutral	True
471.548	0.42	Control	0.72	n/a	Yes	2.882	n/a	n/a	GoodResponse	0	n/a	n/a	11	49	Blank	Neutral	True
471.966	1.45	Control	0.72	n/a	Yes	2.882	n/a	5.0	GoodResponse	0	0.007	470.973	11	49	Feedback	Neutral	True
473.421	2.882	Control	0.72	n/a	Yes	2.882	n/a	n/a	GoodResponse	0	0.0	n/a	11	49	ISIslide	Neutral	True
476.329	0.25	Control	0.7059000000000001	0.0	No	2.771	0.029	n/a	NoResponse	0	n/a	n/a	11	50	Cue	Neutral	True
476.58	4.0	Control	0.7059000000000001	0.0	No	2.771	0.001	n/a	NoResponse	0	n/a	n/a	11	50	Fixation	Neutral	True
480.575	0.27	Control	0.7059000000000001	0.004	No	2.771	-0.004	2.0	NoResponse	0	0.457	480.032	11	50	Target	Neutral	True
480.859	0.43	Control	0.7059000000000001	n/a	No	2.771	n/a	n/a	NoResponse	0	n/a	n/a	11	50	Blank	Neutral	True
481.032	0.3	Control	0.7059000000000001	0.004	No	2.771	-0.004	2.0	NoResponse	0	0.457	n/a	11	50	ButtonPress	Neutral	True
481.277	1.45	Control	0.7059000000000001	n/a	No	2.771	n/a	5.0	NoResponse	0	0.01	480.287	11	50	Feedback	Neutral	True
482.732	2.771	Control	0.7059000000000001	n/a	No	2.771	n/a	n/a	NoResponse	0	0.0	n/a	11	50	ISIslide	Neutral	True
485.523	0.25	Control	0.7115	0.0	Yes	2.727	0.023	n/a	GoodResponse	0	n/a	n/a	11	51	Cue	Neutral	True
485.774	3.95	Control	0.7115	0.0	Yes	2.727	0.001	n/a	GoodResponse	0	n/a	n/a	11	51	Fixation	Neutral	True
489.719	0.26	Control	0.7115	0.004	Yes	2.727	-0.004	2.0	GoodResponse	0	0.24	488.959	11	51	Target	Neutral	True
489.959	0.3	Control	0.7115	0.004	Yes	2.727	-0.004	2.0	GoodResponse	0	0.24	n/a	11	51	ButtonPress	Neutral	True
489.987	0.44	Control	0.7115	n/a	Yes	2.727	n/a	n/a	GoodResponse	0	n/a	n/a	11	51	Blank	Neutral	True
490.421	1.45	Control	0.7115	n/a	Yes	2.727	n/a	5.0	GoodResponse	0	0.036	489.457	11	51	Feedback	Neutral	True
491.876	2.727	Control	0.7115	n/a	Yes	2.727	n/a	n/a	GoodResponse	0	0.0	n/a	11	51	ISIslide	Neutral	True
494.617	0.25	Control	0.6981	0.0	No	2.633	0.017	n/a	NoResponse	0	n/a	n/a	11	52	Cue	Neutral	True
494.868	4.05	Control	0.6981	0.0	No	2.633	0.001	n/a	NoResponse	0	n/a	n/a	11	52	Fixation	Neutral	True
498.913	0.25	Control	0.6981	0.004	No	2.633	-0.004	2.0	NoResponse	0	0.429	498.342	11	52	Target	Neutral	True
499.164	0.45	Control	0.6981	n/a	No	2.633	n/a	n/a	NoResponse	0	n/a	n/a	11	52	Blank	Neutral	True
499.342	0.3	Control	0.6981	0.004	No	2.633	-0.004	2.0	NoResponse	0	0.429	n/a	11	52	ButtonPress	Neutral	True
499.616	1.45	Control	0.6981	n/a	No	2.633	n/a	5.0	NoResponse	0	0.012	498.628	11	52	Feedback	Neutral	True
501.07	2.633	Control	0.6981	n/a	No	2.633	n/a	n/a	NoResponse	0	0.0	n/a	11	52	ISIslide	Neutral	True
503.728	0.25	Win2	0.6851999999999999	0.0	No	2.922	0.028	n/a	NoResponse	0	n/a	n/a	11	53	Cue	MissedWin	True
503.979	4.05	Win2	0.6851999999999999	0.0	No	2.922	0.001	n/a	NoResponse	0	n/a	n/a	11	53	Fixation	MissedWin	True
508.024	0.24	Win2	0.6851999999999999	0.004	No	2.922	-0.004	2.0	NoResponse	0	0.35	507.374	11	53	Target	MissedWin	True
508.275	0.46	Win2	0.6851999999999999	n/a	No	2.922	n/a	n/a	NoResponse	0	n/a	n/a	11	53	Blank	MissedWin	True
508.374	0.3	Win2	0.6851999999999999	0.004	No	2.922	-0.004	2.0	NoResponse	0	0.35	n/a	11	53	ButtonPress	MissedWin	True
508.726	1.45	Win2	0.6851999999999999	n/a	No	2.922	n/a	5.0	NoResponse	0	0.023	507.749	11	53	Feedback	MissedWin	True
510.18	2.922	Win2	0.6851999999999999	n/a	No	2.922	n/a	n/a	NoResponse	0	0.0	n/a	11	53	ISIslide	MissedWin	True
513.123	0.25	Win2	0.6727	0.0	No	2.727	0.023	n/a	NoResponse	0	n/a	n/a	11	54	Cue	MissedWin	True
513.373	3.95	Win2	0.6727	0.0	No	2.727	0.0	n/a	NoResponse	0	n/a	n/a	11	54	Fixation	MissedWin	True
517.318	0.23	Win2	0.6727	0.005	No	2.727	-0.005	2.0	NoResponse	0	0.242	516.56	11	54	Target	MissedWin	True
517.553	0.47	Win2	0.6727	n/a	No	2.727	n/a	n/a	NoResponse	0	n/a	n/a	11	54	Blank	MissedWin	True
517.56	0.3	Win2	0.6727	0.005	No	2.727	-0.005	2.0	NoResponse	0	0.242	n/a	11	54	ButtonPress	MissedWin	True
518.021	1.45	Win2	0.6727	n/a	No	2.727	n/a	5.0	NoResponse	0	0.045	517.066	11	54	Feedback	MissedWin	True
519.475	2.727	Win2	0.6727	n/a	No	2.727	n/a	n/a	NoResponse	0	0.0	n/a	11	54	ISIslide	MissedWin	True
522.216	0.25	Control	0.6607	0.001	No	3.034	0.016	n/a	LatePress	0	n/a	n/a	11	55	Cue	Neutral	True
522.467	3.95	Control	0.6607	0.0	No	3.034	0.001	n/a	LatePress	0	n/a	n/a	11	55	Fixation	Neutral	True
526.412	0.22	Control	0.6607	0.004	No	3.034	-0.004	2.0	LatePress	0	0.234	525.646	11	55	Target	Neutral	True
526.646	0.48	Control	0.6607	n/a	No	3.034	n/a	n/a	LatePress	0	n/a	n/a	11	55	Blank	Neutral	True
526.646	0.3	Control	0.6607	0.004	No	3.034	-0.004	2.0	LatePress	0	0.234	n/a	11	55	ButtonPress	Neutral	True
527.114	1.45	Control	0.6607	n/a	No	3.034	n/a	5.0	LatePress	0	0.026	526.14	11	55	Feedback	Neutral	True
528.569	3.034	Control	0.6607	n/a	No	3.034	n/a	n/a	LatePress	0	0.0	n/a	11	55	ISIslide	Neutral	True
531.628	0.25	Control	0.6667000000000001	0.0	Yes	2.822	0.028	n/a	GoodResponse	0	n/a	n/a	11	56	Cue	Neutral	True
531.879	3.95	Control	0.6667000000000001	0.0	Yes	2.822	0.001	n/a	GoodResponse	0	n/a	n/a	11	56	Fixation	Neutral	True
535.824	0.22	Control	0.6667000000000001	0.004	Yes	2.822	-0.004	2.0	GoodResponse	0	0.205	535.029	11	56	Target	Neutral	True
536.029	0.3	Control	0.6667000000000001	0.004	Yes	2.822	-0.004	2.0	GoodResponse	0	0.205	n/a	11	56	ButtonPress	Neutral	True
536.058	0.48	Control	0.6667000000000001	n/a	Yes	2.822	n/a	n/a	GoodResponse	0	n/a	n/a	11	56	Blank	Neutral	True
536.526	1.45	Control	0.6667000000000001	n/a	Yes	2.822	n/a	5.0	GoodResponse	0	0.029	535.555	11	56	Feedback	Neutral	True
537.98	2.822	Control	0.6667000000000001	n/a	Yes	2.822	n/a	n/a	GoodResponse	0	0.0	n/a	11	56	ISIslide	Neutral	True
540.822	0.25	Control	0.6724	0.0	Yes	3.478	0.022	n/a	GoodResponse	0	n/a	n/a	11	57	Cue	Neutral	True
541.073	4.0	Control	0.6724	0.0	Yes	3.478	0.001	n/a	GoodResponse	0	n/a	n/a	11	57	Fixation	Neutral	True
545.068	0.21	Control	0.6724	0.004	Yes	3.478	-0.004	2.0	GoodResponse	0	0.202	544.27	11	57	Target	Neutral	True
545.27	0.3	Control	0.6724	0.004	Yes	3.478	-0.004	2.0	GoodResponse	0	0.202	n/a	11	57	ButtonPress	Neutral	True
545.285	0.49	Control	0.6724	n/a	Yes	3.478	n/a	n/a	GoodResponse	0	n/a	n/a	11	57	Blank	Neutral	True
545.77	1.45	Control	0.6724	n/a	Yes	3.478	n/a	5.0	GoodResponse	0	0.008	544.778	11	57	Feedback	Neutral	True
547.225	3.478	Control	0.6724	n/a	Yes	3.478	n/a	n/a	GoodResponse	0	0.0	n/a	11	57	ISIslide	Neutral	True
550.718	0.25	Win2	0.6609999999999999	0.0	No	2.732	0.018	n/a	NoResponse	0	n/a	n/a	11	58	Cue	MissedWin	True
550.969	4.05	Win2	0.6609999999999999	0.0	No	2.732	0.001	2.0	NoResponse	0	3.78	553.749	11	58	Fixation	MissedWin	True
554.749	0.3	Win2	0.6609999999999999	0.0	No	2.732	0.001	2.0	NoResponse	0	3.78	n/a	11	58	ButtonPress	MissedWin	True
555.015	0.2	Win2	0.6609999999999999	0.003	No	2.732	-0.003	n/a	NoResponse	0	n/a	n/a	11	58	Target	MissedWin	True
555.215	0.5	Win2	0.6609999999999999	n/a	No	2.732	n/a	n/a	NoResponse	0	n/a	n/a	11	58	Blank	MissedWin	True
555.717	1.45	Win2	0.6609999999999999	n/a	No	2.732	n/a	5.0	NoResponse	0	0.007	554.724	11	58	Feedback	MissedWin	True
557.171	2.732	Win2	0.6609999999999999	n/a	No	2.732	n/a	n/a	NoResponse	0	0.0	n/a	11	58	ISIslide	MissedWin	True
559.929	0.25	Lose2	0.65	0.0	No	2.671	0.029	n/a	NoResponse	-1	n/a	n/a	10	59	Cue	Loss	True
560.18	4.0	Lose2	0.65	0.0	No	2.671	0.001	n/a	NoResponse	-1	n/a	n/a	10	59	Fixation	Loss	True
564.175	0.2	Lose2	0.65	0.004	No	2.671	-0.004	2.0	NoResponse	-1	0.234	563.409	10	59	Target	Loss	True
564.376	0.5	Lose2	0.65	n/a	No	2.671	n/a	n/a	NoResponse	-1	n/a	n/a	10	59	Blank	Loss	True
564.409	0.3	Lose2	0.65	0.004	No	2.671	-0.004	2.0	NoResponse	-1	0.234	n/a	10	59	ButtonPress	Loss	True
564.877	1.45	Lose2	0.65	n/a	No	2.671	n/a	5.0	NoResponse	-1	0.018	563.895	10	59	Feedback	Loss	True
566.332	2.671	Lose2	0.65	n/a	No	2.671	n/a	n/a	NoResponse	-1	0.0	n/a	10	59	ISIslide	Loss	True
569.023	0.25	Control	0.6393	0.0	No	2.677	0.023	n/a	NoResponse	0	n/a	n/a	10	60	Cue	Neutral	True
569.274	4.0	Control	0.6393	0.0	No	2.677	0.001	n/a	NoResponse	0	n/a	n/a	10	60	Fixation	Neutral	True
573.269	0.21	Control	0.6393	0.004	No	2.677	-0.004	2.0	NoResponse	0	0.304	572.573	10	60	Target	Neutral	True
573.486	0.49	Control	0.6393	n/a	No	2.677	n/a	n/a	NoResponse	0	n/a	n/a	10	60	Blank	Neutral	True
573.573	0.3	Control	0.6393	0.004	No	2.677	-0.004	2.0	NoResponse	0	0.304	n/a	10	60	ButtonPress	Neutral	True
573.971	1.45	Control	0.6393	n/a	No	2.677	n/a	5.0	NoResponse	0	0.046	573.017	10	60	Feedback	Neutral	True
575.426	2.677	Control	0.6393	n/a	No	2.677	n/a	n/a	NoResponse	0	0.0	n/a	10	60	ISIslide	Neutral	True
578.117	0.25	Lose2	0.629	0.0	No	2.983	0.017	n/a	NoResponse	-1	n/a	n/a	9	61	Cue	Loss	False
578.368	4.0	Lose2	0.629	0.0	No	2.983	0.001	2.0	NoResponse	-1	0.293	577.661	9	61	Fixation	Loss	False
578.661	0.3	Lose2	0.629	0.0	No	2.983	0.001	2.0	NoResponse	-1	0.293	n/a	9	61	ButtonPress	Loss	False
582.363	0.22	Lose2	0.629	0.004	No	2.983	-0.004	2.0	NoResponse	-1	0.253	581.616	9	61	Target	Loss	False
582.597	0.48	Lose2	0.629	n/a	No	2.983	n/a	n/a	NoResponse	-1	n/a	n/a	9	61	Blank	Loss	False
582.616	0.3	Lose2	0.629	0.004	No	2.983	-0.004	2.0	NoResponse	-1	0.253	n/a	9	61	ButtonPress	Loss	False
583.065	1.45	Lose2	0.629	n/a	No	2.983	n/a	5.0	NoResponse	-1	0.026	582.091	9	61	Feedback	Loss	False
584.519	2.983	Lose2	0.629	n/a	No	2.983	n/a	n/a	NoResponse	-1	0.0	n/a	9	61	ISIslide	Loss	False
587.528	0.25	Lose2	0.6349	0.0	Yes	2.872	0.028	n/a	GoodResponse	0	n/a	n/a	9	62	Cue	AvoidedLoss	True
587.779	3.9	Lose2	0.6349	0.0	Yes	2.872	0.001	n/a	GoodResponse	0	n/a	n/a	9	62	Fixation	AvoidedLoss	True
591.674	0.23	Lose2	0.6349	0.004	Yes	2.872	-0.004	2.0	GoodResponse	0	0.201	590.875	9	62	Target	AvoidedLoss	True
591.875	0.3	Lose2	0.6349	0.004	Yes	2.872	-0.004	2.0	GoodResponse	0	0.201	n/a	9	62	ButtonPress	AvoidedLoss	True
591.908	0.47	Lose2	0.6349	n/a	Yes	2.872	n/a	n/a	GoodResponse	0	n/a	n/a	9	62	Blank	AvoidedLoss	True
592.376	1.45	Lose2	0.6349	n/a	Yes	2.872	n/a	5.0	GoodResponse	0	0.031	591.407	9	62	Feedback	AvoidedLoss	True
593.831	2.872	Lose2	0.6349	n/a	Yes	2.872	n/a	n/a	GoodResponse	0	0.0	n/a	9	62	ISIslide	AvoidedLoss	True
596.723	0.25	Lose2	0.625	0.0	No	2.627	0.023	n/a	LatePress	-1	n/a	n/a	8	63	Cue	Loss	True
596.973	4.05	Lose2	0.625	0.0	No	2.627	0.0	n/a	LatePress	-1	n/a	n/a	8	63	Fixation	Loss	True
601.019	0.24	Lose2	0.625	0.004	No	2.627	-0.004	2.0	LatePress	-1	0.241	600.26	8	63	Target	Loss	True
601.26	0.3	Lose2	0.625	0.004	No	2.627	-0.004	2.0	LatePress	-1	0.241	n/a	8	63	ButtonPress	Loss	True
601.269	0.46	Lose2	0.625	n/a	No	2.627	n/a	n/a	LatePress	-1	n/a	n/a	8	63	Blank	Loss	True
601.721	1.45	Lose2	0.625	n/a	No	2.627	n/a	5.0	LatePress	-1	0.008	600.729	8	63	Feedback	Loss	True
603.175	2.627	Lose2	0.625	n/a	No	2.627	n/a	2.0	LatePress	-1	1.283	n/a	8	63	ISIslide	Loss	True
605.8	0.25	Win2	0.6154	0.0	No	3.15	0.0	n/a	NoResponse	0	n/a	n/a	8	64	Cue	MissedWin	True
606.05	4.15	Win2	0.6154	0.001	No	3.15	0.0	n/a	NoResponse	0	n/a	n/a	8	64	Fixation	MissedWin	True
610.196	0.25	Win2	0.6154	0.004	No	3.15	-0.004	2.0	NoResponse	0	0.431	609.627	8	64	Target	MissedWin	True
610.447	0.45	Win2	0.6154	n/a	No	3.15	n/a	n/a	NoResponse	0	n/a	n/a	8	64	Blank	MissedWin	True
610.627	0.3	Win2	0.6154	0.004	No	3.15	-0.004	2.0	NoResponse	0	0.431	n/a	8	64	ButtonPress	MissedWin	True
610.898	1.45	Win2	0.6154	n/a	No	3.15	n/a	5.0	NoResponse	0	0.046	609.944	8	64	Feedback	MissedWin	True
612.353	3.15	Win2	0.6154	n/a	No	3.15	n/a	n/a	NoResponse	0	0.0	n/a	8	64	ISIslide	MissedWin	True
615.529	0.25	Control	0.6061	0.0	No	2.771	0.029	n/a	NoResponse	0	n/a	n/a	8	65	Cue	Neutral	True
615.78	4.0	Control	0.6061	0.0	No	2.771	0.001	n/a	NoResponse	0	n/a	n/a	8	65	Fixation	Neutral	True
619.775	0.26	Control	0.6061	0.004	No	2.771	-0.004	2.0	NoResponse	0	0.469	619.244	8	65	Target	Neutral	True
620.042	0.44	Control	0.6061	n/a	No	2.771	n/a	n/a	NoResponse	0	n/a	n/a	8	65	Blank	Neutral	True
620.244	0.3	Control	0.6061	0.004	No	2.771	-0.004	2.0	NoResponse	0	0.469	n/a	8	65	ButtonPress	Neutral	True
620.477	1.45	Control	0.6061	n/a	No	2.771	n/a	5.0	NoResponse	0	0.028	619.505	8	65	Feedback	Neutral	True
621.931	2.771	Control	0.6061	n/a	No	2.771	n/a	n/a	NoResponse	0	0.0	n/a	8	65	ISIslide	Neutral	True
624.723	0.25	Win2	0.6119	0.0	Yes	2.777	0.023	n/a	GoodResponse	1	n/a	n/a	9	66	Cue	Win	True
624.974	3.9	Win2	0.6119	0.0	Yes	2.777	0.001	n/a	GoodResponse	1	n/a	n/a	9	66	Fixation	Win	True
628.869	0.27	Win2	0.6119	0.004	Yes	2.777	-0.004	2.0	GoodResponse	1	0.254	628.123	9	66	Target	Win	True
629.123	0.3	Win2	0.6119	0.004	Yes	2.777	-0.004	2.0	GoodResponse	1	0.254	n/a	9	66	ButtonPress	Win	True
629.153	0.43	Win2	0.6119	n/a	Yes	2.777	n/a	n/a	GoodResponse	1	n/a	n/a	9	66	Blank	Win	True
629.571	1.45	Win2	0.6119	n/a	Yes	2.777	n/a	5.0	GoodResponse	1	0.008	628.579	9	66	Feedback	Win	True
631.025	2.777	Win2	0.6119	n/a	Yes	2.777	n/a	n/a	GoodResponse	1	0.0	n/a	9	66	ISIslide	Win	True
633.817	0.25	Control	0.6175999999999999	0.0	Yes	2.733	0.017	n/a	GoodResponse	0	n/a	n/a	9	67	Cue	Neutral	True
634.068	3.95	Control	0.6175999999999999	0.0	Yes	2.733	0.001	n/a	GoodResponse	0	n/a	n/a	9	67	Fixation	Neutral	True
638.013	0.28	Control	0.6175999999999999	0.004	Yes	2.733	-0.004	2.0	GoodResponse	0	0.212	637.225	9	67	Target	Neutral	True
638.225	0.3	Control	0.6175999999999999	0.004	Yes	2.733	-0.004	2.0	GoodResponse	0	0.212	n/a	9	67	ButtonPress	Neutral	True
638.297	0.42	Control	0.6175999999999999	n/a	Yes	2.733	n/a	n/a	GoodResponse	0	n/a	n/a	9	67	Blank	Neutral	True
638.715	1.45	Control	0.6175999999999999	n/a	Yes	2.733	n/a	5.0	GoodResponse	0	0.033	637.748	9	67	Feedback	Neutral	True
640.169	2.733	Control	0.6175999999999999	n/a	Yes	2.733	n/a	n/a	GoodResponse	0	0.0	n/a	9	67	ISIslide	Neutral	True
642.927	0.25	Win2	0.6232	0.0	Yes	3.073	0.027	n/a	GoodResponse	1	n/a	n/a	10	68	Cue	Win	True
643.178	4.0	Win2	0.6232	0.0	Yes	3.073	0.001	n/a	GoodResponse	1	n/a	n/a	10	68	Fixation	Win	True
647.173	0.29	Win2	0.6232	0.004	Yes	3.073	-0.004	2.0	GoodResponse	1	0.225	646.398	10	68	Target	Win	True
647.398	0.3	Win2	0.6232	0.004	Yes	3.073	-0.004	2.0	GoodResponse	1	0.225	n/a	10	68	ButtonPress	Win	True
647.474	0.41	Win2	0.6232	n/a	Yes	3.073	n/a	n/a	GoodResponse	1	n/a	n/a	10	68	Blank	Win	True
647.875	1.45	Win2	0.6232	n/a	Yes	3.073	n/a	5.0	GoodResponse	1	0.044	646.919	10	68	Feedback	Win	True
649.33	3.073	Win2	0.6232	n/a	Yes	3.073	n/a	n/a	GoodResponse	1	0.0	n/a	10	68	ISIslide	Win	True
652.422	0.25	Win2	0.6286	0.0	Yes	3.228	0.022	n/a	GoodResponse	1	n/a	n/a	11	69	Cue	Win	True
652.673	3.95	Win2	0.6286	0.0	Yes	3.228	0.001	n/a	GoodResponse	1	n/a	n/a	11	69	Fixation	Win	True
656.618	0.3	Win2	0.6286	0.004	Yes	3.228	-0.004	2.0	GoodResponse	1	0.233	655.851	11	69	Target	Win	True
656.851	0.3	Win2	0.6286	0.004	Yes	3.228	-0.004	2.0	GoodResponse	1	0.233	n/a	11	69	ButtonPress	Win	True
656.919	0.4	Win2	0.6286	n/a	Yes	3.228	n/a	n/a	GoodResponse	1	n/a	n/a	11	69	Blank	Win	True
657.32	1.45	Win2	0.6286	n/a	Yes	3.228	n/a	5.0	GoodResponse	1	0.013	656.333	11	69	Feedback	Win	True
658.775	3.228	Win2	0.6286	n/a	Yes	3.228	n/a	n/a	GoodResponse	1	0.0	n/a	11	69	ISIslide	Win	True
662.018	0.25	Lose2	0.6197	0.0	No	3.032	0.018	n/a	NoResponse	-1	n/a	n/a	10	70	Cue	Loss	True
662.269	4.05	Lose2	0.6197	0.0	No	3.032	0.001	n/a	NoResponse	-1	n/a	n/a	10	70	Fixation	Loss	True
666.314	0.31	Lose2	0.6197	0.004	No	3.032	-0.004	2.0	NoResponse	-1	0.39	665.704	10	70	Target	Loss	True
666.632	0.39	Lose2	0.6197	n/a	No	3.032	n/a	n/a	NoResponse	-1	n/a	n/a	10	70	Blank	Loss	True
666.704	0.3	Lose2	0.6197	0.004	No	3.032	-0.004	2.0	NoResponse	-1	0.39	n/a	10	70	ButtonPress	Loss	True
667.016	1.45	Lose2	0.6197	n/a	No	3.032	n/a	5.0	NoResponse	-1	0.025	666.041	10	70	Feedback	Loss	True
668.47	3.032	Lose2	0.6197	n/a	No	3.032	n/a	n/a	NoResponse	-1	0.0	n/a	10	70	ISIslide	Loss	True
671.53	0.25	Win2	0.625	0.0	Yes	2.72	0.03	n/a	GoodResponse	1	n/a	n/a	11	71	Cue	Win	True
671.78	4.05	Win2	0.625	0.0	Yes	2.72	0.0	n/a	GoodResponse	1	n/a	n/a	11	71	Fixation	Win	True
675.826	0.32	Win2	0.625	0.004	Yes	2.72	-0.004	2.0	GoodResponse	1	0.203	675.029	11	71	Target	Win	True
676.029	0.3	Win2	0.625	0.004	Yes	2.72	-0.004	2.0	GoodResponse	1	0.203	n/a	11	71	ButtonPress	Win	True
676.16	0.38	Win2	0.625	n/a	Yes	2.72	n/a	n/a	GoodResponse	1	n/a	n/a	11	71	Blank	Win	True
676.528	1.45	Win2	0.625	n/a	Yes	2.72	n/a	5.0	GoodResponse	1	0.024	675.552	11	71	Feedback	Win	True
677.982	2.72	Win2	0.625	n/a	Yes	2.72	n/a	n/a	GoodResponse	1	0.0	n/a	11	71	ISIslide	Win	True
680.724	0.25	Win2	0.6301	0.0	Yes	2.776	0.024	n/a	GoodResponse	1	n/a	n/a	12	72	Cue	Win	True
680.974	4.1	Win2	0.6301	0.001	Yes	2.776	0.0	n/a	GoodResponse	1	n/a	n/a	12	72	Fixation	Win	True
685.07	0.33	Win2	0.6301	0.004	Yes	2.776	-0.004	2.0	GoodResponse	1	0.23	684.3	12	72	Target	Win	True
685.3	0.3	Win2	0.6301	0.004	Yes	2.776	-0.004	2.0	GoodResponse	1	0.23	n/a	12	72	ButtonPress	Win	True
685.404	0.37	Win2	0.6301	n/a	Yes	2.776	n/a	n/a	GoodResponse	1	n/a	n/a	12	72	Blank	Win	True
685.772	1.45	Win2	0.6301	n/a	Yes	2.776	n/a	5.0	GoodResponse	1	0.0	684.772	12	72	Feedback	Win	True
687.226	2.776	Win2	0.6301	n/a	Yes	2.776	n/a	n/a	GoodResponse	1	0.0	n/a	12	72	ISIslide	Win	True
690.018	0.25	Win2	0.6351	0.0	Yes	2.682	0.018	n/a	GoodResponse	1	n/a	n/a	13	73	Cue	Win	True
690.269	4.0	Win2	0.6351	0.0	Yes	2.682	0.001	n/a	GoodResponse	1	n/a	n/a	13	73	Fixation	Win	True
694.264	0.34	Win2	0.6351	0.004	Yes	2.682	-0.004	2.0	GoodResponse	1	0.326	693.59	13	73	Target	Win	True
694.59	0.3	Win2	0.6351	0.004	Yes	2.682	-0.004	2.0	GoodResponse	1	0.326	n/a	13	73	ButtonPress	Win	True
694.615	0.36	Win2	0.6351	n/a	Yes	2.682	n/a	n/a	GoodResponse	1	n/a	n/a	13	73	Blank	Win	True
694.966	1.45	Win2	0.6351	n/a	Yes	2.682	n/a	5.0	GoodResponse	1	0.025	693.991	13	73	Feedback	Win	True
696.421	2.682	Win2	0.6351	n/a	Yes	2.682	n/a	n/a	GoodResponse	1	0.0	n/a	13	73	ISIslide	Win	True
699.129	0.25	Lose2	0.64	0.0	Yes	2.621	0.029	n/a	GoodResponse	0	n/a	n/a	13	74	Cue	AvoidedLoss	True
699.379	4.05	Lose2	0.64	0.001	Yes	2.621	0.0	n/a	GoodResponse	0	n/a	n/a	13	74	Fixation	AvoidedLoss	True
703.425	0.35	Lose2	0.64	0.004	Yes	2.621	-0.004	2.0	GoodResponse	0	0.228	702.653	13	74	Target	AvoidedLoss	True
703.653	0.3	Lose2	0.64	0.004	Yes	2.621	-0.004	2.0	GoodResponse	0	0.228	n/a	13	74	ButtonPress	AvoidedLoss	True
703.776	0.35	Lose2	0.64	n/a	Yes	2.621	n/a	n/a	GoodResponse	0	n/a	n/a	13	74	Blank	AvoidedLoss	True
704.127	1.45	Lose2	0.64	n/a	Yes	2.621	n/a	5.0	GoodResponse	0	0.035	703.162	13	74	Feedback	AvoidedLoss	True
705.581	2.621	Lose2	0.64	n/a	Yes	2.621	n/a	n/a	GoodResponse	0	0.0	n/a	13	74	ISIslide	AvoidedLoss	True
708.223	0.25	Lose2	0.6315999999999999	0.0	No	2.927	0.023	n/a	NoResponse	-1	n/a	n/a	12	75	Cue	Loss	True
708.473	3.95	Lose2	0.6315999999999999	0.0	No	2.927	0.0	n/a	NoResponse	-1	n/a	n/a	12	75	Fixation	Loss	True
712.435	0.36	Lose2	0.6315999999999999	0.0	No	2.927	0.012	2.0	NoResponse	-1	0.418	711.853	12	75	Target	Loss	True
712.786	0.34	Lose2	0.6315999999999999	n/a	No	2.927	n/a	n/a	NoResponse	-1	n/a	n/a	12	75	Blank	Loss	True
712.853	0.3	Lose2	0.6315999999999999	0.0	No	2.927	0.012	2.0	NoResponse	-1	0.418	n/a	12	75	ButtonPress	Loss	True
713.121	1.45	Lose2	0.6315999999999999	n/a	No	2.927	n/a	5.0	NoResponse	-1	0.017	712.138	12	75	Feedback	Loss	True
714.575	2.927	Lose2	0.6315999999999999	n/a	No	2.927	n/a	n/a	NoResponse	-1	0.0	n/a	12	75	ISIslide	Loss	True
717.517	0.25	Control	0.6364	0.0	Yes	3.233	0.017	n/a	GoodResponse	0	n/a	n/a	12	76	Cue	Neutral	True
717.768	4.05	Control	0.6364	0.0	Yes	3.233	0.001	n/a	GoodResponse	0	n/a	n/a	12	76	Fixation	Neutral	True
721.813	0.37	Control	0.6364	0.004	Yes	3.233	-0.004	2.0	GoodResponse	0	0.364	721.177	12	76	Target	Neutral	True
722.177	0.3	Control	0.6364	0.004	Yes	3.233	-0.004	2.0	GoodResponse	0	0.364	n/a	12	76	ButtonPress	Neutral	True
722.198	0.33	Control	0.6364	n/a	Yes	3.233	n/a	n/a	GoodResponse	0	n/a	n/a	12	76	Blank	Neutral	True
722.515	1.45	Control	0.6364	n/a	Yes	3.233	n/a	5.0	GoodResponse	0	0.036	721.551	12	76	Feedback	Neutral	True
723.97	3.233	Control	0.6364	n/a	Yes	3.233	n/a	n/a	GoodResponse	0	0.0	n/a	12	76	ISIslide	Neutral	True
727.229	0.25	Lose2	0.6409999999999999	0.0	Yes	2.571	0.029	n/a	GoodResponse	0	n/a	n/a	12	77	Cue	AvoidedLoss	True
727.48	3.95	Lose2	0.6409999999999999	0.0	Yes	2.571	0.001	n/a	GoodResponse	0	n/a	n/a	12	77	Fixation	AvoidedLoss	True
731.425	0.38	Lose2	0.6409999999999999	0.004	Yes	2.571	-0.004	2.0	GoodResponse	0	0.204	730.629	12	77	Target	AvoidedLoss	True
731.629	0.3	Lose2	0.6409999999999999	0.004	Yes	2.571	-0.004	2.0	GoodResponse	0	0.204	n/a	12	77	ButtonPress	AvoidedLoss	True
731.81	0.32	Lose2	0.6409999999999999	n/a	Yes	2.571	n/a	n/a	GoodResponse	0	n/a	n/a	12	77	Blank	AvoidedLoss	True
732.127	1.45	Lose2	0.6409999999999999	n/a	Yes	2.571	n/a	5.0	GoodResponse	0	0.034	731.161	12	77	Feedback	AvoidedLoss	True
733.582	2.571	Lose2	0.6409999999999999	n/a	Yes	2.571	n/a	n/a	GoodResponse	0	0.0	n/a	12	77	ISIslide	AvoidedLoss	True
