onset	duration	cue_type	current_mean_accuracy	duration_error	is_hit	isi_adjusted	onset_delay	response	response_type	reward	rt	rt_time	total_reward	trial_number	trial_phase	trial_type	one_press
11.102	0.25	Control	1.0	0.0	Yes	2.948	0.002	n/a	GoodResponse	0	n/a	n/a	0	0	Cue	Neutral	True
11.353	3.85	Control	1.0	0.0	Yes	2.948	0.001	n/a	GoodResponse	0	n/a	n/a	0	0	Fixation	Neutral	True
15.198	0.4	Control	1.0	0.004	Yes	2.948	-0.004	4.0	GoodResponse	0	0.176	14.374	0	0	Target	Neutral	True
15.374	0.3	Control	1.0	0.004	Yes	2.948	-0.004	4.0	GoodResponse	0	0.176	n/a	0	0	ButtonPress	Neutral	True
15.599	0.3	Control	1.0	n/a	Yes	2.948	n/a	n/a	GoodResponse	0	n/a	n/a	0	0	Blank	Neutral	True
15.9	1.45	Control	1.0	n/a	Yes	2.948	n/a	5.0	GoodResponse	0	0.027	14.927	0	0	Feedback	Neutral	True
17.354	2.948	Control	1.0	n/a	Yes	2.948	n/a	n/a	GoodResponse	0	0.0	n/a	0	0	ISIslide	Neutral	True
20.33	0.25	Lose2	1.0	0.0	Yes	2.77	0.03	n/a	GoodResponse	0	n/a	n/a	0	1	Cue	AvoidedLoss	True
20.581	4.0	Lose2	1.0	0.0	Yes	2.77	0.001	n/a	GoodResponse	0	n/a	n/a	0	1	Fixation	AvoidedLoss	True
24.576	0.39	Lose2	1.0	0.004	Yes	2.77	-0.004	4.0	GoodResponse	0	0.213	23.789	0	1	Target	AvoidedLoss	True
24.789	0.3	Lose2	1.0	0.004	Yes	2.77	-0.004	4.0	GoodResponse	0	0.213	n/a	0	1	ButtonPress	AvoidedLoss	True
24.977	0.31	Lose2	1.0	n/a	Yes	2.77	n/a	n/a	GoodResponse	0	n/a	n/a	0	1	Blank	AvoidedLoss	True
25.278	1.45	Lose2	1.0	n/a	Yes	2.77	n/a	5.0	GoodResponse	0	0.014	24.292	0	1	Feedback	AvoidedLoss	True
26.732	2.77	Lose2	1.0	n/a	Yes	2.77	n/a	n/a	GoodResponse	0	0.0	n/a	0	1	ISIslide	AvoidedLoss	True
29.524	0.25	Control	1.0	0.0	Yes	2.576	0.024	n/a	GoodResponse	0	n/a	n/a	0	2	Cue	Neutral	True
29.775	4.1	Control	1.0	0.0	Yes	2.576	0.001	n/a	GoodResponse	0	n/a	n/a	0	2	Fixation	Neutral	True
33.87	0.38	Control	1.0	0.004	Yes	2.576	-0.004	4.0	GoodResponse	0	0.222	33.092	0	2	Target	Neutral	True
34.092	0.3	Control	1.0	0.004	Yes	2.576	-0.004	4.0	GoodResponse	0	0.222	n/a	0	2	ButtonPress	Neutral	True
34.255	0.32	Control	1.0	n/a	Yes	2.576	n/a	n/a	GoodResponse	0	n/a	n/a	0	2	Blank	Neutral	True
34.573	1.45	Control	1.0	n/a	Yes	2.576	n/a	5.0	GoodResponse	0	0.036	33.609	0	2	Feedback	Neutral	True
36.027	2.576	Control	1.0	n/a	Yes	2.576	n/a	n/a	GoodResponse	0	0.0	n/a	0	2	ISIslide	Neutral	True
38.635	0.25	Win2	1.0	0.0	Yes	2.815	0.035	n/a	GoodResponse	1	n/a	n/a	1	3	Cue	Win	True
38.885	3.95	Win2	1.0	0.001	Yes	2.815	0.0	n/a	GoodResponse	1	n/a	n/a	1	3	Fixation	Win	True
42.831	0.37	Win2	1.0	0.004	Yes	2.815	-0.004	4.0	GoodResponse	1	0.205	42.036	1	3	Target	Win	True
43.036	0.3	Win2	1.0	0.004	Yes	2.815	-0.004	4.0	GoodResponse	1	0.205	n/a	1	3	ButtonPress	Win	True
43.215	0.33	Win2	1.0	n/a	Yes	2.815	n/a	n/a	GoodResponse	1	n/a	n/a	1	3	Blank	Win	True
43.533	1.45	Win2	1.0	n/a	Yes	2.815	n/a	5.0	GoodResponse	1	0.007	42.54	1	3	Feedback	Win	True
44.987	2.815	Win2	1.0	n/a	Yes	2.815	n/a	n/a	GoodResponse	1	0.0	n/a	1	3	ISIslide	Win	True
47.829	0.25	Win2	1.0	0.0	Yes	3.271	0.029	n/a	GoodResponse	1	n/a	n/a	2	4	Cue	Win	True
48.08	4.0	Win2	1.0	0.0	Yes	3.271	0.001	n/a	GoodResponse	1	n/a	n/a	2	4	Fixation	Win	True
52.075	0.36	Win2	1.0	0.004	Yes	3.271	-0.004	4.0	GoodResponse	1	0.171	51.246	2	4	Target	Win	True
52.246	0.3	Win2	1.0	0.004	Yes	3.271	-0.004	4.0	GoodResponse	1	0.171	n/a	2	4	ButtonPress	Win	True
52.443	0.34	Win2	1.0	n/a	Yes	3.271	n/a	n/a	GoodResponse	1	n/a	n/a	2	4	Blank	Win	True
52.777	1.45	Win2	1.0	n/a	Yes	3.271	n/a	5.0	GoodResponse	1	0.027	51.804	2	4	Feedback	Win	True
54.231	3.271	Win2	1.0	n/a	Yes	3.271	n/a	n/a	GoodResponse	1	0.0	n/a	2	4	ISIslide	Win	True
57.525	0.25	Win2	1.0	0.0	Yes	2.775	0.025	n/a	GoodResponse	1	n/a	n/a	3	5	Cue	Win	True
57.775	4.0	Win2	1.0	0.0	Yes	2.775	0.0	n/a	GoodResponse	1	n/a	n/a	3	5	Fixation	Win	True
61.771	0.35	Win2	1.0	0.004	Yes	2.775	-0.004	4.0	GoodResponse	1	0.184	60.955	3	5	Target	Win	True
61.955	0.3	Win2	1.0	0.004	Yes	2.775	-0.004	4.0	GoodResponse	1	0.184	n/a	3	5	ButtonPress	Win	True
62.122	0.35	Win2	1.0	n/a	Yes	2.775	n/a	n/a	GoodResponse	1	n/a	n/a	3	5	Blank	Win	True
62.473	1.45	Win2	1.0	n/a	Yes	2.775	n/a	5.0	GoodResponse	1	0.038	61.511	3	5	Feedback	Win	True
63.927	2.775	Win2	1.0	n/a	Yes	2.775	n/a	n/a	GoodResponse	1	0.0	n/a	3	5	ISIslide	Win	True
66.719	0.25	Lose2	1.0	0.0	Yes	2.731	0.019	n/a	GoodResponse	0	n/a	n/a	3	6	Cue	AvoidedLoss	True
66.97	3.95	Lose2	1.0	0.0	Yes	2.731	0.001	n/a	GoodResponse	0	n/a	n/a	3	6	Fixation	AvoidedLoss	True
70.915	0.34	Lose2	1.0	0.004	Yes	2.731	-0.004	4.0	GoodResponse	0	0.193	70.108	3	6	Target	AvoidedLoss	True
71.108	0.3	Lose2	1.0	0.004	Yes	2.731	-0.004	4.0	GoodResponse	0	0.193	n/a	3	6	ButtonPress	AvoidedLoss	True
71.266	0.36	Lose2	1.0	n/a	Yes	2.731	n/a	n/a	GoodResponse	0	n/a	n/a	3	6	Blank	AvoidedLoss	True
71.617	1.45	Lose2	1.0	n/a	Yes	2.731	n/a	5.0	GoodResponse	0	0.016	70.633	3	6	Feedback	AvoidedLoss	True
73.071	2.731	Lose2	1.0	n/a	Yes	2.731	n/a	n/a	GoodResponse	0	0.0	n/a	3	6	ISIslide	AvoidedLoss	True
75.829	0.25	Lose2	1.0	0.0	Yes	4.021	0.029	n/a	GoodResponse	0	n/a	n/a	3	7	Cue	AvoidedLoss	True
76.08	4.05	Lose2	1.0	0.0	Yes	4.021	0.001	n/a	GoodResponse	0	n/a	n/a	3	7	Fixation	AvoidedLoss	True
80.126	0.33	Lose2	1.0	0.003	Yes	4.021	-0.003	4.0	GoodResponse	0	0.199	79.325	3	7	Target	AvoidedLoss	True
80.325	0.3	Lose2	1.0	0.003	Yes	4.021	-0.003	4.0	GoodResponse	0	0.199	n/a	3	7	ButtonPress	AvoidedLoss	True
80.46	0.37	Lose2	1.0	n/a	Yes	4.021	n/a	n/a	GoodResponse	0	n/a	n/a	3	7	Blank	AvoidedLoss	True
80.828	1.45	Lose2	1.0	n/a	Yes	4.021	n/a	5.0	GoodResponse	0	0.024	79.852	3	7	Feedback	AvoidedLoss	True
82.282	4.021	Lose2	1.0	n/a	Yes	4.021	n/a	n/a	GoodResponse	0	0.0	n/a	3	7	ISIslide	AvoidedLoss	True
86.327	0.25	Lose2	1.0	0.001	Yes	3.023	0.027	n/a	GoodResponse	0	n/a	n/a	3	8	Cue	AvoidedLoss	True
86.578	3.95	Lose2	1.0	0.0	Yes	3.023	0.001	n/a	GoodResponse	0	n/a	n/a	3	8	Fixation	AvoidedLoss	True
90.523	0.32	Lose2	1.0	0.004	Yes	3.023	-0.004	4.0	GoodResponse	0	0.237	89.76	3	8	Target	AvoidedLoss	True
90.76	0.3	Lose2	1.0	0.004	Yes	3.023	-0.004	4.0	GoodResponse	0	0.237	n/a	3	8	ButtonPress	AvoidedLoss	True
90.858	0.38	Lose2	1.0	n/a	Yes	3.023	n/a	n/a	GoodResponse	0	n/a	n/a	3	8	Blank	AvoidedLoss	True
91.225	1.45	Lose2	1.0	n/a	Yes	3.023	n/a	5.0	GoodResponse	0	0.017	90.242	3	8	Feedback	AvoidedLoss	True
92.68	3.023	Lose2	1.0	n/a	Yes	3.023	n/a	n/a	GoodResponse	0	0.0	n/a	3	8	ISIslide	AvoidedLoss	True
95.722	0.25	Lose2	1.0	0.0	Yes	3.128	0.022	n/a	GoodResponse	0	n/a	n/a	3	9	Cue	AvoidedLoss	True
95.973	3.95	Lose2	1.0	0.0	Yes	3.128	0.001	n/a	GoodResponse	0	n/a	n/a	3	9	Fixation	AvoidedLoss	True
99.918	0.31	Lose2	1.0	0.004	Yes	3.128	-0.004	4.0	GoodResponse	0	0.195	99.113	3	9	Target	AvoidedLoss	True
100.113	0.3	Lose2	1.0	0.004	Yes	3.128	-0.004	4.0	GoodResponse	0	0.195	n/a	3	9	ButtonPress	AvoidedLoss	True
100.236	0.39	Lose2	1.0	n/a	Yes	3.128	n/a	n/a	GoodResponse	0	n/a	n/a	3	9	Blank	AvoidedLoss	True
100.62	1.45	Lose2	1.0	n/a	Yes	3.128	n/a	5.0	GoodResponse	0	0.037	99.657	3	9	Feedback	AvoidedLoss	True
102.075	3.128	Lose2	1.0	n/a	Yes	3.128	n/a	n/a	GoodResponse	0	0.0	n/a	3	9	ISIslide	AvoidedLoss	True
105.217	0.25	Control	1.0	0.0	Yes	3.283	0.017	n/a	GoodResponse	0	n/a	n/a	3	10	Cue	Neutral	True
105.468	4.0	Control	1.0	0.0	Yes	3.283	0.001	n/a	GoodResponse	0	n/a	n/a	3	10	Fixation	Neutral	True
109.463	0.3	Control	1.0	0.004	Yes	3.283	-0.004	4.0	GoodResponse	0	0.212	108.675	3	10	Target	Neutral	True
109.675	0.3	Control	1.0	0.004	Yes	3.283	-0.004	4.0	GoodResponse	0	0.212	n/a	3	10	ButtonPress	Neutral	True
109.764	0.4	Control	1.0	n/a	Yes	3.283	n/a	n/a	GoodResponse	0	n/a	n/a	3	10	Blank	Neutral	True
110.165	1.45	Control	1.0	n/a	Yes	3.283	n/a	5.0	GoodResponse	0	0.006	109.171	3	10	Feedback	Neutral	True
111.62	3.283	Control	1.0	n/a	Yes	3.283	n/a	n/a	GoodResponse	0	0.0	n/a	3	10	ISIslide	Neutral	True
114.93	0.25	Lose2	1.0	0.0	Yes	2.72	0.03	n/a	GoodResponse	0	n/a	n/a	3	11	Cue	AvoidedLoss	True
115.18	4.05	Lose2	1.0	0.001	Yes	2.72	0.0	n/a	GoodResponse	0	n/a	n/a	3	11	Fixation	AvoidedLoss	True
119.226	0.29	Lose2	1.0	0.004	Yes	2.72	-0.004	4.0	GoodResponse	0	0.193	118.419	3	11	Target	AvoidedLoss	True
119.419	0.3	Lose2	1.0	0.004	Yes	2.72	-0.004	4.0	GoodResponse	0	0.193	n/a	3	11	ButtonPress	AvoidedLoss	True
119.527	0.41	Lose2	1.0	n/a	Yes	2.72	n/a	n/a	GoodResponse	0	n/a	n/a	3	11	Blank	AvoidedLoss	True
119.928	1.45	Lose2	1.0	n/a	Yes	2.72	n/a	5.0	GoodResponse	0	0.046	118.974	3	11	Feedback	AvoidedLoss	True
121.382	2.72	Lose2	1.0	n/a	Yes	2.72	n/a	n/a	GoodResponse	0	0.0	n/a	3	11	ISIslide	AvoidedLoss	True
124.124	0.25	Control	1.0	0.0	Yes	2.976	0.024	n/a	GoodResponse	0	n/a	n/a	3	12	Cue	Neutral	True
124.375	3.9	Control	1.0	0.0	Yes	2.976	0.001	n/a	GoodResponse	0	n/a	n/a	3	12	Fixation	Neutral	True
128.27	0.28	Control	1.0	0.004	Yes	2.976	-0.004	4.0	GoodResponse	0	0.199	127.469	3	12	Target	Neutral	True
128.469	0.3	Control	1.0	0.004	Yes	2.976	-0.004	4.0	GoodResponse	0	0.199	n/a	3	12	ButtonPress	Neutral	True
128.554	0.42	Control	1.0	n/a	Yes	2.976	n/a	n/a	GoodResponse	0	n/a	n/a	3	12	Blank	Neutral	True
128.972	1.45	Control	1.0	n/a	Yes	2.976	n/a	5.0	GoodResponse	0	0.026	127.998	3	12	Feedback	Neutral	True
130.426	2.976	Control	1.0	n/a	Yes	2.976	n/a	n/a	GoodResponse	0	0.0	n/a	3	12	ISIslide	Neutral	True
133.418	0.25	Control	1.0	0.0	Yes	2.782	0.018	n/a	GoodResponse	0	n/a	n/a	3	13	Cue	Neutral	True
133.669	4.0	Control	1.0	0.0	Yes	2.782	0.001	n/a	GoodResponse	0	n/a	n/a	3	13	Fixation	Neutral	True
137.664	0.27	Control	1.0	0.004	Yes	2.782	-0.004	4.0	GoodResponse	0	0.217	136.881	3	13	Target	Neutral	True
137.881	0.3	Control	1.0	0.004	Yes	2.782	-0.004	4.0	GoodResponse	0	0.217	n/a	3	13	ButtonPress	Neutral	True
137.949	0.43	Control	1.0	n/a	Yes	2.782	n/a	n/a	GoodResponse	0	n/a	n/a	3	13	Blank	Neutral	True
138.367	1.45	Control	1.0	n/a	Yes	2.782	n/a	5.0	GoodResponse	0	0.046	137.413	3	13	Feedback	Neutral	True
139.821	2.782	Control	1.0	n/a	Yes	2.782	n/a	n/a	GoodResponse	0	0.0	n/a	3	13	ISIslide	Neutral	True
142.629	0.25	Win2	0.9333	0.0	No	2.671	0.029	n/a	NoResponse	0	n/a	n/a	3	14	Cue	MissedWin	True
142.88	4.1	Win2	0.9333	0.0	No	2.671	0.001	4.0	NoResponse	0	3.971	145.851	3	14	Fixation	MissedWin	True
146.851	0.3	Win2	0.9333	0.0	No	2.671	0.001	4.0	NoResponse	0	3.971	n/a	3	14	ButtonPress	MissedWin	True
146.976	0.26	Win2	0.9333	0.003	No	2.671	-0.003	n/a	NoResponse	0	n/a	n/a	3	14	Target	MissedWin	True
147.243	0.44	Win2	0.9333	n/a	No	2.671	n/a	n/a	NoResponse	0	n/a	n/a	3	14	Blank	MissedWin	True
147.678	1.45	Win2	0.9333	n/a	No	2.671	n/a	5.0	NoResponse	0	0.006	146.684	3	14	Feedback	MissedWin	True
149.132	2.671	Win2	0.9333	n/a	No	2.671	n/a	n/a	NoResponse	0	0.0	n/a	3	14	ISIslide	MissedWin	True
151.824	0.25	Control	0.875	0.0	No	2.976	0.024	n/a	NoResponse	0	n/a	n/a	3	15	Cue	Neutral	True
152.074	4.0	Control	0.875	0.0	No	2.976	0.0	n/a	NoResponse	0	n/a	n/a	3	15	Fixation	Neutral	True
156.07	0.25	Control	0.875	0.004	No	2.976	-0.004	4.0	NoResponse	0	0.264	155.334	3	15	Target	Neutral	True
156.32	0.45	Control	0.875	n/a	No	2.976	n/a	n/a	NoResponse	0	n/a	n/a	3	15	Blank	Neutral	True
156.334	0.3	Control	0.875	0.004	No	2.976	-0.004	4.0	NoResponse	0	0.264	n/a	3	15	ButtonPress	Neutral	True
156.772	1.45	Control	0.875	n/a	No	2.976	n/a	5.0	NoResponse	0	0.031	155.803	3	15	Feedback	Neutral	True
158.226	2.976	Control	0.875	n/a	No	2.976	n/a	n/a	NoResponse	0	0.0	n/a	3	15	ISIslide	Neutral	True
161.218	0.25	Win2	0.8234999999999999	0.0	No	2.882	0.018	n/a	NoResponse	0	n/a	n/a	3	16	Cue	MissedWin	True
161.469	4.0	Win2	0.8234999999999999	0.0	No	2.882	0.001	n/a	NoResponse	0	n/a	n/a	3	16	Fixation	MissedWin	True
165.464	0.24	Win2	0.8234999999999999	0.004	No	2.882	-0.004	4.0	NoResponse	0	0.294	164.758	3	16	Target	MissedWin	True
165.715	0.46	Win2	0.8234999999999999	n/a	No	2.882	n/a	n/a	NoResponse	0	n/a	n/a	3	16	Blank	MissedWin	True
165.758	0.3	Win2	0.8234999999999999	0.004	No	2.882	-0.004	4.0	NoResponse	0	0.294	n/a	3	16	ButtonPress	MissedWin	True
166.166	1.45	Win2	0.8234999999999999	n/a	No	2.882	n/a	5.0	NoResponse	0	0.006	165.172	3	16	Feedback	MissedWin	True
167.621	2.882	Win2	0.8234999999999999	n/a	No	2.882	n/a	n/a	NoResponse	0	0.0	n/a	3	16	ISIslide	MissedWin	True
170.529	0.25	Lose2	0.8332999999999999	0.001	Yes	2.721	0.029	n/a	GoodResponse	0	n/a	n/a	3	17	Cue	AvoidedLoss	True
170.78	3.95	Lose2	0.8332999999999999	0.0	Yes	2.721	0.001	n/a	GoodResponse	0	n/a	n/a	3	17	Fixation	AvoidedLoss	True
174.725	0.23	Lose2	0.8332999999999999	0.004	Yes	2.721	-0.004	4.0	GoodResponse	0	0.207	173.932	3	17	Target	AvoidedLoss	True
174.932	0.3	Lose2	0.8332999999999999	0.004	Yes	2.721	-0.004	4.0	GoodResponse	0	0.207	n/a	3	17	ButtonPress	AvoidedLoss	True
174.959	0.47	Lose2	0.8332999999999999	n/a	Yes	2.721	n/a	n/a	GoodResponse	0	n/a	n/a	3	17	Blank	AvoidedLoss	True
175.427	1.45	Lose2	0.8332999999999999	n/a	Yes	2.721	n/a	5.0	GoodResponse	0	0.01	174.437	3	17	Feedback	AvoidedLoss	True
176.882	2.721	Lose2	0.8332999999999999	n/a	Yes	2.721	n/a	n/a	GoodResponse	0	0.0	n/a	3	17	ISIslide	AvoidedLoss	True
179.623	0.25	Lose2	0.8421	0.0	Yes	2.727	0.023	n/a	GoodResponse	0	n/a	n/a	3	18	Cue	AvoidedLoss	True
179.874	4.05	Lose2	0.8421	0.0	Yes	2.727	0.001	n/a	GoodResponse	0	n/a	n/a	3	18	Fixation	AvoidedLoss	True
183.92	0.22	Lose2	0.8421	0.003	Yes	2.727	-0.003	4.0	GoodResponse	0	0.208	183.128	3	18	Target	AvoidedLoss	True
184.128	0.3	Lose2	0.8421	0.003	Yes	2.727	-0.003	4.0	GoodResponse	0	0.208	n/a	3	18	ButtonPress	AvoidedLoss	True
184.154	0.48	Lose2	0.8421	n/a	Yes	2.727	n/a	n/a	GoodResponse	0	n/a	n/a	3	18	Blank	AvoidedLoss	True
184.622	1.45	Lose2	0.8421	n/a	Yes	2.727	n/a	5.0	GoodResponse	0	0.034	183.656	3	18	Feedback	AvoidedLoss	True
186.076	2.727	Lose2	0.8421	n/a	Yes	2.727	n/a	n/a	GoodResponse	0	0.0	n/a	3	18	ISIslide	AvoidedLoss	True
188.818	0.25	Control	0.85	0.0	Yes	2.932	0.018	n/a	GoodResponse	0	n/a	n/a	3	19	Cue	Neutral	True
189.068	3.95	Control	0.85	0.0	Yes	2.932	0.0	n/a	GoodResponse	0	n/a	n/a	3	19	Fixation	Neutral	True
193.03	0.21	Control	0.85	0.0	Yes	2.932	0.012	4.0	GoodResponse	0	0.199	192.229	3	19	Target	Neutral	True
193.229	0.3	Control	0.85	0.0	Yes	2.932	0.012	4.0	GoodResponse	0	0.199	n/a	3	19	ButtonPress	Neutral	True
193.231	0.49	Control	0.85	n/a	Yes	2.932	n/a	n/a	GoodResponse	0	n/a	n/a	3	19	Blank	Neutral	True
193.716	1.45	Control	0.85	n/a	Yes	2.932	n/a	5.0	GoodResponse	0	0.013	192.729	3	19	Feedback	Neutral	True
195.17	2.932	Control	0.85	n/a	Yes	2.932	n/a	n/a	GoodResponse	0	0.0	n/a	3	19	ISIslide	Neutral	True
198.129	0.25	Control	0.8095	0.0	No	2.621	0.029	n/a	NoResponse	0	n/a	n/a	3	20	Cue	Neutral	True
198.38	4.05	Control	0.8095	0.0	No	2.621	0.001	n/a	NoResponse	0	n/a	n/a	3	20	Fixation	Neutral	True
202.425	0.2	Control	0.8095	0.004	No	2.621	-0.004	4.0	NoResponse	0	0.303	201.728	3	20	Target	Neutral	True
202.626	0.5	Control	0.8095	n/a	No	2.621	n/a	n/a	NoResponse	0	n/a	n/a	3	20	Blank	Neutral	True
202.728	0.3	Control	0.8095	0.004	No	2.621	-0.004	4.0	NoResponse	0	0.303	n/a	3	20	ButtonPress	Neutral	True
203.127	1.45	Control	0.8095	n/a	No	2.621	n/a	5.0	NoResponse	0	0.017	202.144	3	20	Feedback	Neutral	True
204.581	2.621	Control	0.8095	n/a	No	2.621	n/a	n/a	NoResponse	0	0.0	n/a	3	20	ISIslide	Neutral	True
207.223	0.25	Control	0.7726999999999999	0.0	No	2.777	0.023	n/a	NoResponse	0	n/a	n/a	3	21	Cue	Neutral	True
207.473	4.1	Control	0.7726999999999999	0.0	No	2.777	0.0	n/a	NoResponse	0	n/a	n/a	3	21	Fixation	Neutral	True
211.569	0.19	Control	0.7726999999999999	0.004	No	2.777	-0.004	4.0	NoResponse	0	0.23	210.799	3	21	Target	Neutral	True
211.77	0.51	Control	0.7726999999999999	n/a	No	2.777	n/a	n/a	NoResponse	0	n/a	n/a	3	21	Blank	Neutral	True
211.799	0.3	Control	0.7726999999999999	0.004	No	2.777	-0.004	4.0	NoResponse	0	0.23	n/a	3	21	ButtonPress	Neutral	True
212.271	1.45	Control	0.7726999999999999	n/a	No	2.777	n/a	5.0	NoResponse	0	0.044	211.315	3	21	Feedback	Neutral	True
213.725	2.777	Control	0.7726999999999999	n/a	No	2.777	n/a	n/a	NoResponse	0	0.0	n/a	3	21	ISIslide	Neutral	True
216.517	0.25	Control	0.7391	0.0	No	2.783	0.017	n/a	NoResponse	0	n/a	n/a	3	22	Cue	Neutral	True
216.768	4.0	Control	0.7391	0.0	No	2.783	0.001	n/a	NoResponse	0	n/a	n/a	3	22	Fixation	Neutral	True
220.763	0.18	Control	0.7391	0.004	No	2.783	-0.004	4.0	NoResponse	0	0.403	220.166	3	22	Target	Neutral	True
220.947	0.52	Control	0.7391	n/a	No	2.783	n/a	n/a	NoResponse	0	n/a	n/a	3	22	Blank	Neutral	True
221.166	0.3	Control	0.7391	0.004	No	2.783	-0.004	4.0	NoResponse	0	0.403	n/a	3	22	ButtonPress	Neutral	True
221.465	1.45	Control	0.7391	n/a	No	2.783	n/a	5.0	NoResponse	0	0.021	220.486	3	22	Feedback	Neutral	True
222.92	2.783	Control	0.7391	n/a	No	2.783	n/a	n/a	NoResponse	0	0.0	n/a	3	22	ISIslide	Neutral	True
225.728	0.25	Control	0.7082999999999999	0.0	No	2.772	0.028	n/a	NoResponse	0	n/a	n/a	3	23	Cue	Neutral	True
225.979	3.9	Control	0.7082999999999999	0.0	No	2.772	0.001	n/a	NoResponse	0	n/a	n/a	3	23	Fixation	Neutral	True
229.874	0.17	Control	0.7082999999999999	0.004	No	2.772	-0.004	4.0	NoResponse	0	0.271	229.145	3	23	Target	Neutral	True
230.058	0.53	Control	0.7082999999999999	n/a	No	2.772	n/a	n/a	NoResponse	0	n/a	n/a	3	23	Blank	Neutral	True
230.145	0.3	Control	0.7082999999999999	0.004	No	2.772	-0.004	4.0	NoResponse	0	0.271	n/a	3	23	ButtonPress	Neutral	True
230.576	1.45	Control	0.7082999999999999	n/a	No	2.772	n/a	5.0	NoResponse	0	0.031	229.607	3	23	Feedback	Neutral	True
232.03	2.772	Control	0.7082999999999999	n/a	No	2.772	n/a	n/a	NoResponse	0	0.0	n/a	3	23	ISIslide	Neutral	True
234.822	0.25	Win2	0.68	0.0	No	3.128	0.022	n/a	NoResponse	0	n/a	n/a	3	24	Cue	MissedWin	True
235.073	3.95	Win2	0.68	0.0	No	3.128	0.001	n/a	NoResponse	0	n/a	n/a	3	24	Fixation	MissedWin	True
239.018	0.16	Win2	0.68	0.004	No	3.128	-0.004	4.0	NoResponse	0	0.212	238.23	3	24	Target	MissedWin	True
239.185	0.54	Win2	0.68	n/a	No	3.128	n/a	n/a	NoResponse	0	n/a	n/a	3	24	Blank	MissedWin	True
239.23	0.3	Win2	0.68	0.004	No	3.128	-0.004	4.0	NoResponse	0	0.212	n/a	3	24	ButtonPress	MissedWin	True
239.72	1.45	Win2	0.68	n/a	No	3.128	n/a	5.0	NoResponse	0	0.009	238.729	3	24	Feedback	MissedWin	True
241.174	3.128	Win2	0.68	n/a	No	3.128	n/a	n/a	NoResponse	0	0.0	n/a	3	24	ISIslide	MissedWin	True
244.317	0.25	Win2	0.6537999999999999	0.0	No	3.083	0.017	n/a	NoResponse	0	n/a	n/a	3	25	Cue	MissedWin	True
244.568	4.0	Win2	0.6537999999999999	0.0	No	3.083	0.001	n/a	NoResponse	0	n/a	n/a	3	25	Fixation	MissedWin	True
248.563	0.15	Win2	0.6537999999999999	0.004	No	3.083	-0.004	4.0	NoResponse	0	0.18	247.743	3	25	Target	MissedWin	True
248.714	0.55	Win2	0.6537999999999999	n/a	No	3.083	n/a	n/a	NoResponse	0	n/a	n/a	3	25	Blank	MissedWin	True
248.743	0.3	Win2	0.6537999999999999	0.004	No	3.083	-0.004	4.0	NoResponse	0	0.18	n/a	3	25	ButtonPress	MissedWin	True
249.265	1.45	Win2	0.6537999999999999	n/a	No	3.083	n/a	5.0	NoResponse	0	0.025	248.29	3	25	Feedback	MissedWin	True
250.72	3.083	Win2	0.6537999999999999	n/a	No	3.083	n/a	n/a	NoResponse	0	0.0	n/a	3	25	ISIslide	MissedWin	True
253.829	0.25	Win2	0.6296	0.0	No	2.921	0.029	n/a	NoResponse	0	n/a	n/a	3	26	Cue	MissedWin	True
254.08	3.95	Win2	0.6296	0.0	No	2.921	0.001	n/a	NoResponse	0	n/a	n/a	3	26	Fixation	MissedWin	True
258.025	0.16	Win2	0.6296	0.004	No	2.921	-0.004	4.0	NoResponse	0	0.185	257.21	3	26	Target	MissedWin	True
258.192	0.54	Win2	0.6296	n/a	No	2.921	n/a	n/a	NoResponse	0	n/a	n/a	3	26	Blank	MissedWin	True
258.21	0.3	Win2	0.6296	0.004	No	2.921	-0.004	4.0	NoResponse	0	0.185	n/a	3	26	ButtonPress	MissedWin	True
258.727	1.45	Win2	0.6296	n/a	No	2.921	n/a	5.0	NoResponse	0	0.026	257.753	3	26	Feedback	MissedWin	True
260.181	2.921	Win2	0.6296	n/a	No	2.921	n/a	n/a	NoResponse	0	0.0	n/a	3	26	ISIslide	MissedWin	True
263.123	0.25	Lose2	0.6071	0.0	No	2.827	0.023	n/a	LatePress	-1	n/a	n/a	2	27	Cue	Loss	True
263.374	4.05	Lose2	0.6071	0.0	No	2.827	0.001	n/a	LatePress	-1	n/a	n/a	2	27	Fixation	Loss	True
267.42	0.17	Lose2	0.6071	0.003	No	2.827	-0.003	4.0	LatePress	-1	0.182	266.602	2	27	Target	Loss	True
267.602	0.3	Lose2	0.6071	0.003	No	2.827	-0.003	4.0	LatePress	-1	0.182	n/a	2	27	ButtonPress	Loss	True
267.603	0.53	Lose2	0.6071	n/a	No	2.827	n/a	n/a	LatePress	-1	n/a	n/a	2	27	Blank	Loss	True
268.122	1.45	Lose2	0.6071	n/a	No	2.827	n/a	5.0	LatePress	-1	0.046	267.168	2	27	Feedback	Loss	True
269.576	2.827	Lose2	0.6071	n/a	No	2.827	n/a	n/a	LatePress	-1	0.0	n/a	2	27	ISIslide	Loss	True
272.418	0.25	Control	0.5861999999999999	0.0	No	2.832	0.018	n/a	NoResponse	0	n/a	n/a	2	28	Cue	Neutral	True
272.669	4.05	Control	0.5861999999999999	0.0	No	2.832	0.001	n/a	NoResponse	0	n/a	n/a	2	28	Fixation	Neutral	True
276.714	0.18	Control	0.5861999999999999	0.004	No	2.832	-0.004	4.0	NoResponse	0	0.231	275.945	2	28	Target	Neutral	True
276.898	0.52	Control	0.5861999999999999	n/a	No	2.832	n/a	n/a	NoResponse	0	n/a	n/a	2	28	Blank	Neutral	True
276.945	0.3	Control	0.5861999999999999	0.004	No	2.832	-0.004	4.0	NoResponse	0	0.231	n/a	2	28	ButtonPress	Neutral	True
277.416	1.45	Control	0.5861999999999999	n/a	No	2.832	n/a	5.0	NoResponse	0	0.021	276.437	2	28	Feedback	Neutral	True
278.871	2.832	Control	0.5861999999999999	n/a	No	2.832	n/a	n/a	NoResponse	0	0.0	n/a	2	28	ISIslide	Neutral	True
281.729	0.25	Lose2	0.5667	0.0	No	2.821	0.029	n/a	LatePress	-1	n/a	n/a	1	29	Cue	Loss	True
281.98	3.95	Lose2	0.5667	0.0	No	2.821	0.001	n/a	LatePress	-1	n/a	n/a	1	29	Fixation	Loss	True
285.925	0.19	Lose2	0.5667	0.004	No	2.821	-0.004	4.0	LatePress	-1	0.19	285.115	1	29	Target	Loss	True
286.115	0.3	Lose2	0.5667	0.004	No	2.821	-0.004	4.0	LatePress	-1	0.19	n/a	1	29	ButtonPress	Loss	True
286.126	0.51	Lose2	0.5667	n/a	No	2.821	n/a	n/a	LatePress	-1	n/a	n/a	1	29	Blank	Loss	True
286.627	1.45	Lose2	0.5667	n/a	No	2.821	n/a	5.0	LatePress	-1	0.028	285.655	1	29	Feedback	Loss	True
288.082	2.821	Lose2	0.5667	n/a	No	2.821	n/a	n/a	LatePress	-1	0.0	n/a	1	29	ISIslide	Loss	True
290.923	0.25	Win2	0.5806	0.0	Yes	2.777	0.023	n/a	GoodResponse	1	n/a	n/a	2	30	Cue	Win	True
291.174	3.9	Win2	0.5806	0.0	Yes	2.777	0.001	n/a	GoodResponse	1	n/a	n/a	2	30	Fixation	Win	True
295.069	0.2	Win2	0.5806	0.004	Yes	2.777	-0.004	4.0	GoodResponse	1	0.166	294.235	2	30	Target	Win	True
295.235	0.3	Win2	0.5806	0.004	Yes	2.777	-0.004	4.0	GoodResponse	1	0.166	n/a	2	30	ButtonPress	Win	True
295.27	0.5	Win2	0.5806	n/a	Yes	2.777	n/a	n/a	GoodResponse	1	n/a	n/a	2	30	Blank	Win	True
295.771	1.45	Win2	0.5806	n/a	Yes	2.777	n/a	5.0	GoodResponse	1	0.007	294.778	2	30	Feedback	Win	True
297.225	2.777	Win2	0.5806	n/a	Yes	2.777	n/a	n/a	GoodResponse	1	0.0	n/a	2	30	ISIslide	Win	True
300.017	0.25	Lose2	0.5938	0.0	Yes	2.833	0.017	n/a	GoodResponse	0	n/a	n/a	2	31	Cue	AvoidedLoss	True
300.268	4.05	Lose2	0.5938	0.0	Yes	2.833	0.001	n/a	GoodResponse	0	n/a	n/a	2	31	Fixation	AvoidedLoss	True
304.313	0.21	Lose2	0.5938	0.004	Yes	2.833	-0.004	4.0	GoodResponse	0	0.191	303.504	2	31	Target	AvoidedLoss	True
304.504	0.3	Lose2	0.5938	0.004	Yes	2.833	-0.004	4.0	GoodResponse	0	0.191	n/a	2	31	ButtonPress	AvoidedLoss	True
304.531	0.49	Lose2	0.5938	n/a	Yes	2.833	n/a	n/a	GoodResponse	0	n/a	n/a	2	31	Blank	AvoidedLoss	True
305.015	1.45	Lose2	0.5938	n/a	Yes	2.833	n/a	5.0	GoodResponse	0	0.031	304.046	2	31	Feedback	AvoidedLoss	True
306.47	2.833	Lose2	0.5938	n/a	Yes	2.833	n/a	n/a	GoodResponse	0	0.0	n/a	2	31	ISIslide	AvoidedLoss	True
309.328	0.25	Lose2	0.6061	0.0	Yes	2.622	0.028	n/a	GoodResponse	0	n/a	n/a	2	32	Cue	AvoidedLoss	True
309.579	4.15	Lose2	0.6061	0.0	Yes	2.622	0.001	n/a	GoodResponse	0	n/a	n/a	2	32	Fixation	AvoidedLoss	True
313.725	0.22	Lose2	0.6061	0.003	Yes	2.622	-0.003	4.0	GoodResponse	0	0.194	312.919	2	32	Target	AvoidedLoss	True
313.919	0.3	Lose2	0.6061	0.003	Yes	2.622	-0.003	4.0	GoodResponse	0	0.194	n/a	2	32	ButtonPress	AvoidedLoss	True
313.959	0.48	Lose2	0.6061	n/a	Yes	2.622	n/a	n/a	GoodResponse	0	n/a	n/a	2	32	Blank	AvoidedLoss	True
314.427	1.45	Lose2	0.6061	n/a	Yes	2.622	n/a	5.0	GoodResponse	0	0.033	313.46	2	32	Feedback	AvoidedLoss	True
315.881	2.622	Lose2	0.6061	n/a	Yes	2.622	n/a	n/a	GoodResponse	0	0.0	n/a	2	32	ISIslide	AvoidedLoss	True
318.522	0.25	Win2	0.6175999999999999	0.001	Yes	2.678	0.022	n/a	GoodResponse	1	n/a	n/a	3	33	Cue	Win	True
318.773	4.0	Win2	0.6175999999999999	0.0	Yes	2.678	0.001	n/a	GoodResponse	1	n/a	n/a	3	33	Fixation	Win	True
322.769	0.23	Win2	0.6175999999999999	0.003	Yes	2.678	-0.003	4.0	GoodResponse	1	0.183	321.952	3	33	Target	Win	True
322.952	0.3	Win2	0.6175999999999999	0.003	Yes	2.678	-0.003	4.0	GoodResponse	1	0.183	n/a	3	33	ButtonPress	Win	True
323.003	0.47	Win2	0.6175999999999999	n/a	Yes	2.678	n/a	n/a	GoodResponse	1	n/a	n/a	3	33	Blank	Win	True
323.471	1.45	Win2	0.6175999999999999	n/a	Yes	2.678	n/a	5.0	GoodResponse	1	0.014	322.485	3	33	Feedback	Win	True
324.925	2.678	Win2	0.6175999999999999	n/a	Yes	2.678	n/a	n/a	GoodResponse	1	0.0	n/a	3	33	ISIslide	Win	True
327.616	0.25	Lose2	0.6286	0.0	Yes	2.634	0.016	n/a	GoodResponse	0	n/a	n/a	3	34	Cue	AvoidedLoss	True
327.867	4.05	Lose2	0.6286	0.0	Yes	2.634	0.001	n/a	GoodResponse	0	n/a	n/a	3	34	Fixation	AvoidedLoss	True
331.913	0.24	Lose2	0.6286	0.003	Yes	2.634	-0.003	4.0	GoodResponse	0	0.208	331.121	3	34	Target	AvoidedLoss	True
332.121	0.3	Lose2	0.6286	0.003	Yes	2.634	-0.003	4.0	GoodResponse	0	0.208	n/a	3	34	ButtonPress	AvoidedLoss	True
332.163	0.46	Lose2	0.6286	n/a	Yes	2.634	n/a	n/a	GoodResponse	0	n/a	n/a	3	34	Blank	AvoidedLoss	True
332.615	1.45	Lose2	0.6286	n/a	Yes	2.634	n/a	5.0	GoodResponse	0	0.04	331.655	3	34	Feedback	AvoidedLoss	True
334.069	2.634	Lose2	0.6286	n/a	Yes	2.634	n/a	n/a	GoodResponse	0	0.0	n/a	3	34	ISIslide	AvoidedLoss	True
336.727	0.25	Lose2	0.6389	0.0	Yes	2.673	0.027	n/a	GoodResponse	0	n/a	n/a	3	35	Cue	AvoidedLoss	True
336.978	4.0	Lose2	0.6389	0.0	Yes	2.673	0.001	n/a	GoodResponse	0	n/a	n/a	3	35	Fixation	AvoidedLoss	True
340.973	0.25	Lose2	0.6389	0.004	Yes	2.673	-0.004	4.0	GoodResponse	0	0.207	340.18	3	35	Target	AvoidedLoss	True
341.18	0.3	Lose2	0.6389	0.004	Yes	2.673	-0.004	4.0	GoodResponse	0	0.207	n/a	3	35	ButtonPress	AvoidedLoss	True
341.224	0.45	Lose2	0.6389	n/a	Yes	2.673	n/a	n/a	GoodResponse	0	n/a	n/a	3	35	Blank	AvoidedLoss	True
341.675	1.45	Lose2	0.6389	n/a	Yes	2.673	n/a	5.0	GoodResponse	0	0.006	340.681	3	35	Feedback	AvoidedLoss	True
343.129	2.673	Lose2	0.6389	n/a	Yes	2.673	n/a	n/a	GoodResponse	0	0.0	n/a	3	35	ISIslide	AvoidedLoss	True
345.821	0.25	Control	0.6215999999999999	0.0	No	2.679	0.021	n/a	NoResponse	0	n/a	n/a	3	36	Cue	Neutral	False
346.072	4.0	Control	0.6215999999999999	0.0	No	2.679	0.001	n/a	NoResponse	0	n/a	n/a	3	36	Fixation	Neutral	False
350.067	0.26	Control	0.6215999999999999	0.004	No	2.679	-0.004	n/a	NoResponse	0	n/a	n/a	3	36	Target	Neutral	False
350.334	0.44	Control	0.6215999999999999	n/a	No	2.679	n/a	n/a	NoResponse	0	n/a	n/a	3	36	Blank	Neutral	False
350.769	1.45	Control	0.6215999999999999	n/a	No	2.679	n/a	5.0	NoResponse	0	0.032	349.801	3	36	Feedback	Neutral	False
352.223	2.679	Control	0.6215999999999999	n/a	No	2.679	n/a	n/a	NoResponse	0	0.0	n/a	3	36	ISIslide	Neutral	False
354.915	0.25	Win2	0.6315999999999999	0.0	Yes	2.885	0.015	n/a	GoodResponse	1	n/a	n/a	4	37	Cue	Win	True
355.166	4.0	Win2	0.6315999999999999	0.0	Yes	2.885	0.001	n/a	GoodResponse	1	n/a	n/a	4	37	Fixation	Win	True
359.161	0.27	Win2	0.6315999999999999	0.004	Yes	2.885	-0.004	4.0	GoodResponse	1	0.2	358.361	4	37	Target	Win	True
359.361	0.3	Win2	0.6315999999999999	0.004	Yes	2.885	-0.004	4.0	GoodResponse	1	0.2	n/a	4	37	ButtonPress	Win	True
359.445	0.43	Win2	0.6315999999999999	n/a	Yes	2.885	n/a	n/a	GoodResponse	1	n/a	n/a	4	37	Blank	Win	True
359.863	1.45	Win2	0.6315999999999999	n/a	Yes	2.885	n/a	5.0	GoodResponse	1	0.012	358.875	4	37	Feedback	Win	True
361.317	2.885	Win2	0.6315999999999999	n/a	Yes	2.885	n/a	n/a	GoodResponse	1	0.0	n/a	4	37	ISIslide	Win	True
364.226	0.25	Lose2	0.6409999999999999	0.0	Yes	2.824	0.026	n/a	GoodResponse	0	n/a	n/a	4	38	Cue	AvoidedLoss	True
364.477	3.95	Lose2	0.6409999999999999	0.0	Yes	2.824	0.001	n/a	GoodResponse	0	n/a	n/a	4	38	Fixation	AvoidedLoss	True
368.422	0.28	Lose2	0.6409999999999999	0.004	Yes	2.824	-0.004	4.0	GoodResponse	0	0.174	367.596	4	38	Target	AvoidedLoss	True
368.596	0.3	Lose2	0.6409999999999999	0.004	Yes	2.824	-0.004	4.0	GoodResponse	0	0.174	n/a	4	38	ButtonPress	AvoidedLoss	True
368.706	0.42	Lose2	0.6409999999999999	n/a	Yes	2.824	n/a	n/a	GoodResponse	0	n/a	n/a	4	38	Blank	AvoidedLoss	True
369.124	1.45	Lose2	0.6409999999999999	n/a	Yes	2.824	n/a	5.0	GoodResponse	0	0.019	368.143	4	38	Feedback	AvoidedLoss	True
370.578	2.824	Lose2	0.6409999999999999	n/a	Yes	2.824	n/a	n/a	GoodResponse	0	0.0	n/a	4	38	ISIslide	AvoidedLoss	True
373.42	0.25	Win2	0.65	0.0	Yes	2.98	0.02	n/a	GoodResponse	1	n/a	n/a	5	39	Cue	Win	True
373.671	4.1	Win2	0.65	0.0	Yes	2.98	0.001	n/a	GoodResponse	1	n/a	n/a	5	39	Fixation	Win	True
377.766	0.29	Win2	0.65	0.004	Yes	2.98	-0.004	4.0	GoodResponse	1	0.186	376.952	5	39	Target	Win	True
377.952	0.3	Win2	0.65	0.004	Yes	2.98	-0.004	4.0	GoodResponse	1	0.186	n/a	5	39	ButtonPress	Win	True
378.067	0.41	Win2	0.65	n/a	Yes	2.98	n/a	n/a	GoodResponse	1	n/a	n/a	5	39	Blank	Win	True
378.469	1.45	Win2	0.65	n/a	Yes	2.98	n/a	5.0	GoodResponse	1	0.04	377.509	5	39	Feedback	Win	True
379.923	2.98	Win2	0.65	n/a	Yes	2.98	n/a	n/a	GoodResponse	1	0.0	n/a	5	39	ISIslide	Win	True
382.915	0.25	Win2	0.6585	0.0	Yes	2.735	0.015	n/a	GoodResponse	1	n/a	n/a	6	40	Cue	Win	True
383.166	3.95	Win2	0.6585	0.0	Yes	2.735	0.001	n/a	GoodResponse	1	n/a	n/a	6	40	Fixation	Win	True
387.111	0.3	Win2	0.6585	0.004	Yes	2.735	-0.004	4.0	GoodResponse	1	0.211	386.322	6	40	Target	Win	True
387.322	0.3	Win2	0.6585	0.004	Yes	2.735	-0.004	4.0	GoodResponse	1	0.211	n/a	6	40	ButtonPress	Win	True
387.412	0.4	Win2	0.6585	n/a	Yes	2.735	n/a	n/a	GoodResponse	1	n/a	n/a	6	40	Blank	Win	True
387.813	1.45	Win2	0.6585	n/a	Yes	2.735	n/a	5.0	GoodResponse	1	0.012	386.825	6	40	Feedback	Win	True
389.268	2.735	Win2	0.6585	n/a	Yes	2.735	n/a	n/a	GoodResponse	1	0.0	n/a	6	40	ISIslide	Win	True
392.026	0.25	Win2	0.6667000000000001	0.0	Yes	2.774	0.026	n/a	GoodResponse	1	n/a	n/a	7	41	Cue	Win	True
392.277	3.9	Win2	0.6667000000000001	0.0	Yes	2.774	0.001	n/a	GoodResponse	1	n/a	n/a	7	41	Fixation	Win	True
396.172	0.3	Win2	0.6667000000000001	0.004	Yes	2.774	-0.004	4.0	GoodResponse	1	0.191	395.363	7	41	Target	Win	True
396.363	0.3	Win2	0.6667000000000001	0.004	Yes	2.774	-0.004	4.0	GoodResponse	1	0.191	n/a	7	41	ButtonPress	Win	True
396.472	0.4	Win2	0.6667000000000001	n/a	Yes	2.774	n/a	n/a	GoodResponse	1	n/a	n/a	7	41	Blank	Win	True
396.874	1.45	Win2	0.6667000000000001	n/a	Yes	2.774	n/a	5.0	GoodResponse	1	0.024	395.898	7	41	Feedback	Win	True
398.328	2.774	Win2	0.6667000000000001	n/a	Yes	2.774	n/a	n/a	GoodResponse	1	0.0	n/a	7	41	ISIslide	Win	True
401.12	0.25	Control	0.6744	0.0	Yes	2.93	0.02	n/a	GoodResponse	0	n/a	n/a	7	42	Cue	Neutral	True
401.37	3.85	Control	0.6744	0.001	Yes	2.93	0.0	n/a	GoodResponse	0	n/a	n/a	7	42	Fixation	Neutral	True
405.232	0.29	Control	0.6744	0.0	Yes	2.93	0.012	4.0	GoodResponse	0	0.223	404.455	7	42	Target	Neutral	True
405.455	0.3	Control	0.6744	0.0	Yes	2.93	0.012	4.0	GoodResponse	0	0.223	n/a	7	42	ButtonPress	Neutral	True
405.516	0.41	Control	0.6744	n/a	Yes	2.93	n/a	n/a	GoodResponse	0	n/a	n/a	7	42	Blank	Neutral	True
405.917	1.45	Control	0.6744	n/a	Yes	2.93	n/a	5.0	GoodResponse	0	0.006	404.923	7	42	Feedback	Neutral	True
407.372	2.93	Control	0.6744	n/a	Yes	2.93	n/a	n/a	GoodResponse	0	0.0	n/a	7	42	ISIslide	Neutral	True
410.314	0.25	Win2	0.6818000000000001	0.0	Yes	3.186	0.014	n/a	GoodResponse	1	n/a	n/a	8	43	Cue	Win	True
410.565	4.0	Win2	0.6818000000000001	0.0	Yes	3.186	0.001	n/a	GoodResponse	1	n/a	n/a	8	43	Fixation	Win	True
414.56	0.28	Win2	0.6818000000000001	0.004	Yes	3.186	-0.004	4.0	GoodResponse	1	0.198	413.758	8	43	Target	Win	True
414.758	0.3	Win2	0.6818000000000001	0.004	Yes	3.186	-0.004	4.0	GoodResponse	1	0.198	n/a	8	43	ButtonPress	Win	True
414.844	0.42	Win2	0.6818000000000001	n/a	Yes	3.186	n/a	n/a	GoodResponse	1	n/a	n/a	8	43	Blank	Win	True
415.262	1.45	Win2	0.6818000000000001	n/a	Yes	3.186	n/a	5.0	GoodResponse	1	0.027	414.289	8	43	Feedback	Win	True
416.716	3.186	Win2	0.6818000000000001	n/a	Yes	3.186	n/a	n/a	GoodResponse	1	0.0	n/a	8	43	ISIslide	Win	True
419.926	0.25	Win2	0.6889	0.0	Yes	2.974	0.026	n/a	GoodResponse	1	n/a	n/a	9	44	Cue	Win	True
420.177	4.0	Win2	0.6889	0.0	Yes	2.974	0.001	n/a	GoodResponse	1	n/a	n/a	9	44	Fixation	Win	True
424.172	0.27	Win2	0.6889	0.004	Yes	2.974	-0.004	4.0	GoodResponse	1	0.2	423.372	9	44	Target	Win	True
424.372	0.3	Win2	0.6889	0.004	Yes	2.974	-0.004	4.0	GoodResponse	1	0.2	n/a	9	44	ButtonPress	Win	True
424.456	0.43	Win2	0.6889	n/a	Yes	2.974	n/a	n/a	GoodResponse	1	n/a	n/a	9	44	Blank	Win	True
424.874	1.45	Win2	0.6889	n/a	Yes	2.974	n/a	5.0	GoodResponse	1	0.025	423.899	9	44	Feedback	Win	True
426.329	2.974	Win2	0.6889	n/a	Yes	2.974	n/a	n/a	GoodResponse	1	0.0	n/a	9	44	ISIslide	Win	True
429.321	0.25	Control	0.6957	0.0	Yes	2.879	0.021	n/a	GoodResponse	0	n/a	n/a	9	45	Cue	Neutral	True
429.572	4.1	Control	0.6957	0.0	Yes	2.879	0.001	n/a	GoodResponse	0	n/a	n/a	9	45	Fixation	Neutral	True
433.667	0.26	Control	0.6957	0.004	Yes	2.879	-0.004	4.0	GoodResponse	0	0.224	432.891	9	45	Target	Neutral	True
433.891	0.3	Control	0.6957	0.004	Yes	2.879	-0.004	4.0	GoodResponse	0	0.224	n/a	9	45	ButtonPress	Neutral	True
433.935	0.44	Control	0.6957	n/a	Yes	2.879	n/a	n/a	GoodResponse	0	n/a	n/a	9	45	Blank	Neutral	True
434.369	1.45	Control	0.6957	n/a	Yes	2.879	n/a	5.0	GoodResponse	0	0.041	433.41	9	45	Feedback	Neutral	True
435.824	2.879	Control	0.6957	n/a	Yes	2.879	n/a	n/a	GoodResponse	0	0.0	n/a	9	45	ISIslide	Neutral	True
438.716	0.25	Lose2	0.7021	0.0	Yes	3.384	0.016	n/a	GoodResponse	0	n/a	n/a	9	46	Cue	AvoidedLoss	True
438.966	4.0	Lose2	0.7021	0.0	Yes	3.384	0.0	n/a	GoodResponse	0	n/a	n/a	9	46	Fixation	AvoidedLoss	True
442.962	0.25	Lose2	0.7021	0.004	Yes	3.384	-0.004	4.0	GoodResponse	0	0.178	442.14	9	46	Target	AvoidedLoss	True
443.14	0.3	Lose2	0.7021	0.004	Yes	3.384	-0.004	4.0	GoodResponse	0	0.178	n/a	9	46	ButtonPress	AvoidedLoss	True
443.212	0.45	Lose2	0.7021	n/a	Yes	3.384	n/a	n/a	GoodResponse	0	n/a	n/a	9	46	Blank	AvoidedLoss	True
443.664	1.45	Lose2	0.7021	n/a	Yes	3.384	n/a	5.0	GoodResponse	0	0.014	442.678	9	46	Feedback	AvoidedLoss	True
445.118	3.384	Lose2	0.7021	n/a	Yes	3.384	n/a	n/a	GoodResponse	0	0.0	n/a	9	46	ISIslide	AvoidedLoss	True
448.528	0.25	Lose2	0.7082999999999999	0.0	Yes	2.672	0.028	n/a	GoodResponse	0	n/a	n/a	9	47	Cue	AvoidedLoss	True
448.779	4.0	Lose2	0.7082999999999999	0.0	Yes	2.672	0.001	n/a	GoodResponse	0	n/a	n/a	9	47	Fixation	AvoidedLoss	True
452.774	0.24	Lose2	0.7082999999999999	0.004	Yes	2.672	-0.004	4.0	GoodResponse	0	0.191	451.965	9	47	Target	AvoidedLoss	True
452.965	0.3	Lose2	0.7082999999999999	0.004	Yes	2.672	-0.004	4.0	GoodResponse	0	0.191	n/a	9	47	ButtonPress	AvoidedLoss	True
453.025	0.46	Lose2	0.7082999999999999	n/a	Yes	2.672	n/a	n/a	GoodResponse	0	n/a	n/a	9	47	Blank	AvoidedLoss	True
453.476	1.45	Lose2	0.7082999999999999	n/a	Yes	2.672	n/a	5.0	GoodResponse	0	0.007	452.483	9	47	Feedback	AvoidedLoss	True
454.931	2.672	Lose2	0.7082999999999999	n/a	Yes	2.672	n/a	n/a	GoodResponse	0	0.0	n/a	9	47	ISIslide	AvoidedLoss	True
457.622	0.25	Lose2	0.6939	0.0	No	3.028	0.022	n/a	NoResponse	-1	n/a	n/a	8	48	Cue	Loss	True
457.873	3.95	Lose2	0.6939	0.0	No	3.028	0.001	n/a	NoResponse	-1	n/a	n/a	8	48	Fixation	Loss	True
461.818	0.23	Lose2	0.6939	0.004	No	3.028	-0.004	4.0	NoResponse	-1	0.239	461.057	8	48	Target	Loss	True
462.052	0.47	Lose2	0.6939	n/a	No	3.028	n/a	n/a	NoResponse	-1	n/a	n/a	8	48	Blank	Loss	True
462.057	0.3	Lose2	0.6939	0.004	No	3.028	-0.004	4.0	NoResponse	-1	0.239	n/a	8	48	ButtonPress	Loss	True
462.52	1.45	Lose2	0.6939	n/a	No	3.028	n/a	5.0	NoResponse	-1	0.037	461.557	8	48	Feedback	Loss	True
463.975	3.028	Lose2	0.6939	n/a	No	3.028	n/a	n/a	NoResponse	-1	0.0	n/a	8	48	ISIslide	Loss	True
467.017	0.25	Control	0.68	0.0	No	2.883	0.017	n/a	NoResponse	0	n/a	n/a	8	49	Cue	Neutral	True
467.268	4.0	Control	0.68	0.0	No	2.883	0.001	n/a	NoResponse	0	n/a	n/a	8	49	Fixation	Neutral	True
471.263	0.22	Control	0.68	0.004	No	2.883	-0.004	4.0	NoResponse	0	0.255	470.518	8	49	Target	Neutral	True
471.497	0.48	Control	0.68	n/a	No	2.883	n/a	n/a	NoResponse	0	n/a	n/a	8	49	Blank	Neutral	True
471.518	0.3	Control	0.68	0.004	No	2.883	-0.004	4.0	NoResponse	0	0.255	n/a	8	49	ButtonPress	Neutral	True
471.965	1.45	Control	0.68	n/a	No	2.883	n/a	5.0	NoResponse	0	0.006	470.971	8	49	Feedback	Neutral	True
473.419	2.883	Control	0.68	n/a	No	2.883	n/a	n/a	NoResponse	0	0.0	n/a	8	49	ISIslide	Neutral	True
476.328	0.25	Control	0.6667000000000001	0.0	No	2.772	0.028	n/a	NoResponse	0	n/a	n/a	8	50	Cue	Neutral	True
476.579	4.0	Control	0.6667000000000001	0.0	No	2.772	0.001	n/a	NoResponse	0	n/a	n/a	8	50	Fixation	Neutral	True
480.574	0.21	Control	0.6667000000000001	0.004	No	2.772	-0.004	4.0	NoResponse	0	0.224	479.798	8	50	Target	Neutral	True
480.792	0.49	Control	0.6667000000000001	n/a	No	2.772	n/a	n/a	NoResponse	0	n/a	n/a	8	50	Blank	Neutral	True
480.798	0.3	Control	0.6667000000000001	0.004	No	2.772	-0.004	4.0	NoResponse	0	0.224	n/a	8	50	ButtonPress	Neutral	True
481.276	1.45	Control	0.6667000000000001	n/a	No	2.772	n/a	5.0	NoResponse	0	0.013	480.289	8	50	Feedback	Neutral	True
482.731	2.772	Control	0.6667000000000001	n/a	No	2.772	n/a	n/a	NoResponse	0	0.0	n/a	8	50	ISIslide	Neutral	True
485.522	0.25	Control	0.6537999999999999	0.0	No	2.728	0.022	n/a	NoResponse	0	n/a	n/a	8	51	Cue	Neutral	True
485.773	3.95	Control	0.6537999999999999	0.0	No	2.728	0.001	n/a	NoResponse	0	n/a	n/a	8	51	Fixation	Neutral	True
489.718	0.2	Control	0.6537999999999999	0.004	No	2.728	-0.004	4.0	NoResponse	0	0.384	489.102	8	51	Target	Neutral	True
489.919	0.5	Control	0.6537999999999999	n/a	No	2.728	n/a	n/a	NoResponse	0	n/a	n/a	8	51	Blank	Neutral	True
490.102	0.3	Control	0.6537999999999999	0.004	No	2.728	-0.004	4.0	NoResponse	0	0.384	n/a	8	51	ButtonPress	Neutral	True
490.42	1.45	Control	0.6537999999999999	n/a	No	2.728	n/a	5.0	NoResponse	0	0.038	489.458	8	51	Feedback	Neutral	True
491.875	2.728	Control	0.6537999999999999	n/a	No	2.728	n/a	n/a	NoResponse	0	0.0	n/a	8	51	ISIslide	Neutral	True
494.616	0.25	Control	0.6415000000000001	0.0	No	2.634	0.016	n/a	NoResponse	0	n/a	n/a	8	52	Cue	Neutral	False
494.867	4.05	Control	0.6415000000000001	0.0	No	2.634	0.001	n/a	NoResponse	0	n/a	n/a	8	52	Fixation	Neutral	False
498.912	0.21	Control	0.6415000000000001	0.004	No	2.634	-0.004	n/a	NoResponse	0	n/a	n/a	8	52	Target	Neutral	False
499.13	0.49	Control	0.6415000000000001	n/a	No	2.634	n/a	n/a	NoResponse	0	n/a	n/a	8	52	Blank	Neutral	False
499.615	1.45	Control	0.6415000000000001	n/a	No	2.634	n/a	5.0	NoResponse	0	0.014	498.629	8	52	Feedback	Neutral	False
501.069	2.634	Control	0.6415000000000001	n/a	No	2.634	n/a	n/a	NoResponse	0	0.0	n/a	8	52	ISIslide	Neutral	False
503.727	0.25	Win2	0.6481	0.0	Yes	2.923	0.027	n/a	GoodResponse	1	n/a	n/a	9	53	Cue	Win	True
503.978	4.05	Win2	0.6481	0.0	Yes	2.923	0.001	n/a	GoodResponse	1	n/a	n/a	9	53	Fixation	Win	True
508.023	0.22	Win2	0.6481	0.004	Yes	2.923	-0.004	4.0	GoodResponse	1	0.188	507.211	9	53	Target	Win	True
508.211	0.3	Win2	0.6481	0.004	Yes	2.923	-0.004	4.0	GoodResponse	1	0.188	n/a	9	53	ButtonPress	Win	True
508.257	0.48	Win2	0.6481	n/a	Yes	2.923	n/a	n/a	GoodResponse	1	n/a	n/a	9	53	Blank	Win	True
508.725	1.45	Win2	0.6481	n/a	Yes	2.923	n/a	5.0	GoodResponse	1	0.026	507.751	9	53	Feedback	Win	True
510.18	2.923	Win2	0.6481	n/a	Yes	2.923	n/a	n/a	GoodResponse	1	0.0	n/a	9	53	ISIslide	Win	True
513.122	0.25	Win2	0.6545000000000001	0.0	Yes	2.728	0.022	n/a	GoodResponse	1	n/a	n/a	10	54	Cue	Win	True
513.372	3.95	Win2	0.6545000000000001	0.0	Yes	2.728	0.0	n/a	GoodResponse	1	n/a	n/a	10	54	Fixation	Win	True
517.318	0.23	Win2	0.6545000000000001	0.004	Yes	2.728	-0.004	4.0	GoodResponse	1	0.183	516.501	10	54	Target	Win	True
517.501	0.3	Win2	0.6545000000000001	0.004	Yes	2.728	-0.004	4.0	GoodResponse	1	0.183	n/a	10	54	ButtonPress	Win	True
517.552	0.47	Win2	0.6545000000000001	n/a	Yes	2.728	n/a	n/a	GoodResponse	1	n/a	n/a	10	54	Blank	Win	True
518.02	1.45	Win2	0.6545000000000001	n/a	Yes	2.728	n/a	5.0	GoodResponse	1	0.0	517.02	10	54	Feedback	Win	True
519.474	2.728	Win2	0.6545000000000001	n/a	Yes	2.728	n/a	n/a	GoodResponse	1	0.0	n/a	10	54	ISIslide	Win	True
522.216	0.25	Control	0.6429	0.0	No	3.034	0.016	n/a	NoResponse	0	n/a	n/a	10	55	Cue	Neutral	False
522.466	3.95	Control	0.6429	0.0	No	3.034	0.0	n/a	NoResponse	0	n/a	n/a	10	55	Fixation	Neutral	False
526.428	0.24	Control	0.6429	0.0	No	3.034	0.012	n/a	NoResponse	0	n/a	n/a	10	55	Target	Neutral	False
526.662	0.46	Control	0.6429	n/a	No	3.034	n/a	n/a	NoResponse	0	n/a	n/a	10	55	Blank	Neutral	False
527.114	1.45	Control	0.6429	n/a	No	3.034	n/a	5.0	NoResponse	0	0.028	526.142	10	55	Feedback	Neutral	False
528.568	3.034	Control	0.6429	n/a	No	3.034	n/a	n/a	NoResponse	0	0.0	n/a	10	55	ISIslide	Neutral	False
531.627	0.25	Control	0.6315999999999999	0.0	No	2.823	0.027	n/a	NoResponse	0	n/a	n/a	10	56	Cue	Neutral	False
531.878	3.95	Control	0.6315999999999999	0.0	No	2.823	0.001	n/a	NoResponse	0	n/a	n/a	10	56	Fixation	Neutral	False
535.823	0.25	Control	0.6315999999999999	0.004	No	2.823	-0.004	n/a	NoResponse	0	n/a	n/a	10	56	Target	Neutral	False
536.074	0.45	Control	0.6315999999999999	n/a	No	2.823	n/a	n/a	NoResponse	0	n/a	n/a	10	56	Blank	Neutral	False
536.525	1.45	Control	0.6315999999999999	n/a	No	2.823	n/a	5.0	NoResponse	0	0.03	535.555	10	56	Feedback	Neutral	False
537.979	2.823	Control	0.6315999999999999	n/a	No	2.823	n/a	n/a	NoResponse	0	0.0	n/a	10	56	ISIslide	Neutral	False
540.821	0.25	Control	0.6207	0.0	No	3.479	0.021	n/a	NoResponse	0	n/a	n/a	10	57	Cue	Neutral	False
541.072	4.0	Control	0.6207	0.0	No	3.479	0.001	n/a	NoResponse	0	n/a	n/a	10	57	Fixation	Neutral	False
545.067	0.26	Control	0.6207	0.004	No	3.479	-0.004	n/a	NoResponse	0	n/a	n/a	10	57	Target	Neutral	False
545.335	0.44	Control	0.6207	n/a	No	3.479	n/a	n/a	NoResponse	0	n/a	n/a	10	57	Blank	Neutral	False
545.769	1.45	Control	0.6207	n/a	No	3.479	n/a	5.0	NoResponse	0	0.006	544.775	10	57	Feedback	Neutral	False
547.224	3.479	Control	0.6207	n/a	No	3.479	n/a	n/a	NoResponse	0	0.0	n/a	10	57	ISIslide	Neutral	False
550.718	0.25	Win2	0.6271	0.0	Yes	2.732	0.018	n/a	GoodResponse	1	n/a	n/a	11	58	Cue	Win	True
550.968	4.05	Win2	0.6271	0.0	Yes	2.732	0.0	n/a	GoodResponse	1	n/a	n/a	11	58	Fixation	Win	True
555.014	0.27	Win2	0.6271	0.004	Yes	2.732	-0.004	4.0	GoodResponse	1	0.19	554.204	11	58	Target	Win	True
555.204	0.3	Win2	0.6271	0.004	Yes	2.732	-0.004	4.0	GoodResponse	1	0.19	n/a	11	58	ButtonPress	Win	True
555.298	0.43	Win2	0.6271	n/a	Yes	2.732	n/a	n/a	GoodResponse	1	n/a	n/a	11	58	Blank	Win	True
555.716	1.45	Win2	0.6271	n/a	Yes	2.732	n/a	5.0	GoodResponse	1	0.01	554.726	11	58	Feedback	Win	True
557.17	2.732	Win2	0.6271	n/a	Yes	2.732	n/a	n/a	GoodResponse	1	0.0	n/a	11	58	ISIslide	Win	True
559.928	0.25	Lose2	0.6333	0.001	Yes	2.672	0.028	n/a	GoodResponse	0	n/a	n/a	11	59	Cue	AvoidedLoss	True
560.179	4.0	Lose2	0.6333	0.0	Yes	2.672	0.001	n/a	GoodResponse	0	n/a	n/a	11	59	Fixation	AvoidedLoss	True
564.174	0.28	Lose2	0.6333	0.004	Yes	2.672	-0.004	4.0	GoodResponse	0	0.189	563.363	11	59	Target	AvoidedLoss	True
564.363	0.3	Lose2	0.6333	0.004	Yes	2.672	-0.004	4.0	GoodResponse	0	0.189	n/a	11	59	ButtonPress	AvoidedLoss	True
564.459	0.42	Lose2	0.6333	n/a	Yes	2.672	n/a	n/a	GoodResponse	0	n/a	n/a	11	59	Blank	AvoidedLoss	True
564.877	1.45	Lose2	0.6333	n/a	Yes	2.672	n/a	5.0	GoodResponse	0	0.02	563.897	11	59	Feedback	AvoidedLoss	True
566.331	2.672	Lose2	0.6333	n/a	Yes	2.672	n/a	n/a	GoodResponse	0	0.0	n/a	11	59	ISIslide	AvoidedLoss	True
569.022	0.25	Control	0.6393	0.0	Yes	2.678	0.022	n/a	GoodResponse	0	n/a	n/a	11	60	Cue	Neutral	True
569.273	4.0	Control	0.6393	0.0	Yes	2.678	0.001	n/a	GoodResponse	0	n/a	n/a	11	60	Fixation	Neutral	True
573.268	0.29	Control	0.6393	0.004	Yes	2.678	-0.004	4.0	GoodResponse	0	0.281	572.549	11	60	Target	Neutral	True
573.549	0.3	Control	0.6393	0.004	Yes	2.678	-0.004	4.0	GoodResponse	0	0.281	n/a	11	60	ButtonPress	Neutral	True
573.569	0.41	Control	0.6393	n/a	Yes	2.678	n/a	n/a	GoodResponse	0	n/a	n/a	11	60	Blank	Neutral	True
573.97	1.45	Control	0.6393	n/a	Yes	2.678	n/a	5.0	GoodResponse	0	0.049	573.019	11	60	Feedback	Neutral	True
575.425	2.678	Control	0.6393	n/a	Yes	2.678	n/a	n/a	GoodResponse	0	0.0	n/a	11	60	ISIslide	Neutral	True
578.116	0.25	Lose2	0.6452	0.0	Yes	2.984	0.016	n/a	GoodResponse	0	n/a	n/a	11	61	Cue	AvoidedLoss	True
578.367	4.0	Lose2	0.6452	0.0	Yes	2.984	0.001	n/a	GoodResponse	0	n/a	n/a	11	61	Fixation	AvoidedLoss	True
582.362	0.3	Lose2	0.6452	0.004	Yes	2.984	-0.004	4.0	GoodResponse	0	0.171	581.533	11	61	Target	AvoidedLoss	True
582.533	0.3	Lose2	0.6452	0.004	Yes	2.984	-0.004	4.0	GoodResponse	0	0.171	n/a	11	61	ButtonPress	AvoidedLoss	True
582.663	0.4	Lose2	0.6452	n/a	Yes	2.984	n/a	n/a	GoodResponse	0	n/a	n/a	11	61	Blank	AvoidedLoss	True
583.064	1.45	Lose2	0.6452	n/a	Yes	2.984	n/a	5.0	GoodResponse	0	0.028	582.092	11	61	Feedback	AvoidedLoss	True
584.519	2.984	Lose2	0.6452	n/a	Yes	2.984	n/a	n/a	GoodResponse	0	0.0	n/a	11	61	ISIslide	AvoidedLoss	True
587.528	0.25	Lose2	0.6507999999999999	0.0	Yes	2.872	0.028	n/a	GoodResponse	0	n/a	n/a	11	62	Cue	AvoidedLoss	True
587.778	3.9	Lose2	0.6507999999999999	0.001	Yes	2.872	0.0	n/a	GoodResponse	0	n/a	n/a	11	62	Fixation	AvoidedLoss	True
591.69	0.31	Lose2	0.6507999999999999	0.0	Yes	2.872	0.012	4.0	GoodResponse	0	0.229	590.919	11	62	Target	AvoidedLoss	True
591.919	0.3	Lose2	0.6507999999999999	0.0	Yes	2.872	0.012	4.0	GoodResponse	0	0.229	n/a	11	62	ButtonPress	AvoidedLoss	True
591.991	0.39	Lose2	0.6507999999999999	n/a	Yes	2.872	n/a	n/a	GoodResponse	0	n/a	n/a	11	62	Blank	AvoidedLoss	True
592.376	1.45	Lose2	0.6507999999999999	n/a	Yes	2.872	n/a	5.0	GoodResponse	0	0.033	591.409	11	62	Feedback	AvoidedLoss	True
593.83	2.872	Lose2	0.6507999999999999	n/a	Yes	2.872	n/a	n/a	GoodResponse	0	0.0	n/a	11	62	ISIslide	AvoidedLoss	True
596.722	0.25	Lose2	0.6562	0.0	Yes	2.628	0.022	n/a	GoodResponse	0	n/a	n/a	11	63	Cue	AvoidedLoss	True
596.973	4.05	Lose2	0.6562	0.0	Yes	2.628	0.001	n/a	GoodResponse	0	n/a	n/a	11	63	Fixation	AvoidedLoss	True
601.018	0.32	Lose2	0.6562	0.004	Yes	2.628	-0.004	4.0	GoodResponse	0	0.269	600.287	11	63	Target	AvoidedLoss	True
601.287	0.3	Lose2	0.6562	0.004	Yes	2.628	-0.004	4.0	GoodResponse	0	0.269	n/a	11	63	ButtonPress	AvoidedLoss	True
601.352	0.38	Lose2	0.6562	n/a	Yes	2.628	n/a	n/a	GoodResponse	0	n/a	n/a	11	63	Blank	AvoidedLoss	True
601.72	1.45	Lose2	0.6562	n/a	Yes	2.628	n/a	5.0	GoodResponse	0	0.006	600.726	11	63	Feedback	AvoidedLoss	True
603.175	2.628	Lose2	0.6562	n/a	Yes	2.628	n/a	n/a	GoodResponse	0	0.0	n/a	11	63	ISIslide	AvoidedLoss	True
605.816	0.25	Win2	0.6615000000000001	0.0	Yes	3.134	0.016	n/a	GoodResponse	1	n/a	n/a	12	64	Cue	Win	True
606.067	4.15	Win2	0.6615000000000001	0.0	Yes	3.134	0.001	n/a	GoodResponse	1	n/a	n/a	12	64	Fixation	Win	True
610.212	0.32	Win2	0.6615000000000001	0.004	Yes	3.134	-0.004	4.0	GoodResponse	1	0.159	609.371	12	64	Target	Win	True
610.371	0.3	Win2	0.6615000000000001	0.004	Yes	3.134	-0.004	4.0	GoodResponse	1	0.159	n/a	12	64	ButtonPress	Win	True
610.547	0.38	Win2	0.6615000000000001	n/a	Yes	3.134	n/a	n/a	GoodResponse	1	n/a	n/a	12	64	Blank	Win	True
610.914	1.45	Win2	0.6615000000000001	n/a	Yes	3.134	n/a	5.0	GoodResponse	1	0.031	609.945	12	64	Feedback	Win	True
612.369	3.134	Win2	0.6615000000000001	n/a	Yes	3.134	n/a	n/a	GoodResponse	1	0.0	n/a	12	64	ISIslide	Win	True
615.528	0.25	Control	0.6515000000000001	0.0	No	2.772	0.028	n/a	NoResponse	0	n/a	n/a	12	65	Cue	Neutral	False
615.779	4.0	Control	0.6515000000000001	0.0	No	2.772	0.001	n/a	NoResponse	0	n/a	n/a	12	65	Fixation	Neutral	False
619.774	0.32	Control	0.6515000000000001	0.004	No	2.772	-0.004	n/a	NoResponse	0	n/a	n/a	12	65	Target	Neutral	False
620.109	0.38	Control	0.6515000000000001	n/a	No	2.772	n/a	n/a	NoResponse	0	n/a	n/a	12	65	Blank	Neutral	False
620.476	1.45	Control	0.6515000000000001	n/a	No	2.772	n/a	5.0	NoResponse	0	0.031	619.507	12	65	Feedback	Neutral	False
621.931	2.772	Control	0.6515000000000001	n/a	No	2.772	n/a	n/a	NoResponse	0	0.0	n/a	12	65	ISIslide	Neutral	False
624.722	0.25	Win2	0.6567000000000001	0.0	Yes	2.778	0.022	n/a	GoodResponse	1	n/a	n/a	13	66	Cue	Win	True
624.973	3.9	Win2	0.6567000000000001	0.0	Yes	2.778	0.001	n/a	GoodResponse	1	n/a	n/a	13	66	Fixation	Win	True
628.868	0.33	Win2	0.6567000000000001	0.004	Yes	2.778	-0.004	4.0	GoodResponse	1	0.192	628.06	13	66	Target	Win	True
629.06	0.3	Win2	0.6567000000000001	0.004	Yes	2.778	-0.004	4.0	GoodResponse	1	0.192	n/a	13	66	ButtonPress	Win	True
629.202	0.37	Win2	0.6567000000000001	n/a	Yes	2.778	n/a	n/a	GoodResponse	1	n/a	n/a	13	66	Blank	Win	True
629.57	1.45	Win2	0.6567000000000001	n/a	Yes	2.778	n/a	5.0	GoodResponse	1	0.01	628.58	13	66	Feedback	Win	True
631.025	2.778	Win2	0.6567000000000001	n/a	Yes	2.778	n/a	n/a	GoodResponse	1	0.0	n/a	13	66	ISIslide	Win	True
633.816	0.25	Control	0.6618	0.0	Yes	2.734	0.016	n/a	GoodResponse	0	n/a	n/a	13	67	Cue	Neutral	True
634.067	3.95	Control	0.6618	0.0	Yes	2.734	0.001	n/a	GoodResponse	0	n/a	n/a	13	67	Fixation	Neutral	True
638.012	0.33	Control	0.6618	0.004	Yes	2.734	-0.004	4.0	GoodResponse	0	0.249	637.261	13	67	Target	Neutral	True
638.261	0.3	Control	0.6618	0.004	Yes	2.734	-0.004	4.0	GoodResponse	0	0.249	n/a	13	67	ButtonPress	Neutral	True
638.346	0.37	Control	0.6618	n/a	Yes	2.734	n/a	n/a	GoodResponse	0	n/a	n/a	13	67	Blank	Neutral	True
638.714	1.45	Control	0.6618	n/a	Yes	2.734	n/a	5.0	GoodResponse	0	0.036	637.75	13	67	Feedback	Neutral	True
640.169	2.734	Control	0.6618	n/a	Yes	2.734	n/a	n/a	GoodResponse	0	0.0	n/a	13	67	ISIslide	Neutral	True
642.927	0.25	Win2	0.6667000000000001	0.0	Yes	3.073	0.027	n/a	GoodResponse	1	n/a	n/a	14	68	Cue	Win	True
643.178	4.0	Win2	0.6667000000000001	0.0	Yes	3.073	0.001	n/a	GoodResponse	1	n/a	n/a	14	68	Fixation	Win	True
647.173	0.33	Win2	0.6667000000000001	0.004	Yes	3.073	-0.004	4.0	GoodResponse	1	0.218	646.391	14	68	Target	Win	True
647.391	0.3	Win2	0.6667000000000001	0.004	Yes	3.073	-0.004	4.0	GoodResponse	1	0.218	n/a	14	68	ButtonPress	Win	True
647.507	0.37	Win2	0.6667000000000001	n/a	Yes	3.073	n/a	n/a	GoodResponse	1	n/a	n/a	14	68	Blank	Win	True
647.875	1.45	Win2	0.6667000000000001	n/a	Yes	3.073	n/a	5.0	GoodResponse	1	0.046	646.921	14	68	Feedback	Win	True
649.329	3.073	Win2	0.6667000000000001	n/a	Yes	3.073	n/a	n/a	GoodResponse	1	0.0	n/a	14	68	ISIslide	Win	True
652.422	0.25	Win2	0.6714	0.0	Yes	3.228	0.022	n/a	GoodResponse	1	n/a	n/a	15	69	Cue	Win	True
652.673	3.95	Win2	0.6714	0.0	Yes	3.228	0.001	n/a	GoodResponse	1	n/a	n/a	15	69	Fixation	Win	True
656.618	0.32	Win2	0.6714	0.004	Yes	3.228	-0.004	4.0	GoodResponse	1	0.203	655.821	15	69	Target	Win	True
656.821	0.3	Win2	0.6714	0.004	Yes	3.228	-0.004	4.0	GoodResponse	1	0.203	n/a	15	69	ButtonPress	Win	True
656.952	0.38	Win2	0.6714	n/a	Yes	3.228	n/a	n/a	GoodResponse	1	n/a	n/a	15	69	Blank	Win	True
657.32	1.45	Win2	0.6714	n/a	Yes	3.228	n/a	5.0	GoodResponse	1	0.015	656.335	15	69	Feedback	Win	True
658.774	3.228	Win2	0.6714	n/a	Yes	3.228	n/a	n/a	GoodResponse	1	0.0	n/a	15	69	ISIslide	Win	True
662.017	0.25	Lose2	0.6761	0.0	Yes	3.033	0.017	n/a	GoodResponse	0	n/a	n/a	15	70	Cue	AvoidedLoss	True
662.268	4.05	Lose2	0.6761	0.0	Yes	3.033	0.001	n/a	GoodResponse	0	n/a	n/a	15	70	Fixation	AvoidedLoss	True
666.314	0.31	Lose2	0.6761	0.003	Yes	3.033	-0.003	4.0	GoodResponse	0	0.234	665.548	15	70	Target	AvoidedLoss	True
666.548	0.3	Lose2	0.6761	0.003	Yes	3.033	-0.003	4.0	GoodResponse	0	0.234	n/a	15	70	ButtonPress	AvoidedLoss	True
666.631	0.39	Lose2	0.6761	n/a	Yes	3.033	n/a	n/a	GoodResponse	0	n/a	n/a	15	70	Blank	AvoidedLoss	True
667.016	1.45	Lose2	0.6761	n/a	Yes	3.033	n/a	5.0	GoodResponse	0	0.027	666.043	15	70	Feedback	AvoidedLoss	True
668.47	3.033	Lose2	0.6761	n/a	Yes	3.033	n/a	n/a	GoodResponse	0	0.0	n/a	15	70	ISIslide	AvoidedLoss	True
671.529	0.25	Win2	0.6806	0.0	Yes	2.721	0.029	n/a	GoodResponse	1	n/a	n/a	16	71	Cue	Win	True
671.78	4.05	Win2	0.6806	0.0	Yes	2.721	0.001	n/a	GoodResponse	1	n/a	n/a	16	71	Fixation	Win	True
675.825	0.3	Win2	0.6806	0.004	Yes	2.721	-0.004	4.0	GoodResponse	1	0.188	675.013	16	71	Target	Win	True
676.013	0.3	Win2	0.6806	0.004	Yes	2.721	-0.004	4.0	GoodResponse	1	0.188	n/a	16	71	ButtonPress	Win	True
676.126	0.4	Win2	0.6806	n/a	Yes	2.721	n/a	n/a	GoodResponse	1	n/a	n/a	16	71	Blank	Win	True
676.527	1.45	Win2	0.6806	n/a	Yes	2.721	n/a	5.0	GoodResponse	1	0.028	675.555	16	71	Feedback	Win	True
677.982	2.721	Win2	0.6806	n/a	Yes	2.721	n/a	n/a	GoodResponse	1	0.0	n/a	16	71	ISIslide	Win	True
680.723	0.25	Win2	0.6849	0.0	Yes	2.777	0.023	n/a	GoodResponse	1	n/a	n/a	17	72	Cue	Win	True
680.974	4.1	Win2	0.6849	0.0	Yes	2.777	0.001	n/a	GoodResponse	1	n/a	n/a	17	72	Fixation	Win	True
685.07	0.29	Win2	0.6849	0.003	Yes	2.777	-0.003	4.0	GoodResponse	1	0.196	684.266	17	72	Target	Win	True
685.266	0.3	Win2	0.6849	0.003	Yes	2.777	-0.003	4.0	GoodResponse	1	0.196	n/a	17	72	ButtonPress	Win	True
685.371	0.41	Win2	0.6849	n/a	Yes	2.777	n/a	n/a	GoodResponse	1	n/a	n/a	17	72	Blank	Win	True
685.772	1.45	Win2	0.6849	n/a	Yes	2.777	n/a	5.0	GoodResponse	1	0.003	684.775	17	72	Feedback	Win	True
687.226	2.777	Win2	0.6849	n/a	Yes	2.777	n/a	n/a	GoodResponse	1	0.0	n/a	17	72	ISIslide	Win	True
690.018	0.25	Win2	0.6892	0.0	Yes	2.682	0.018	n/a	GoodResponse	1	n/a	n/a	18	73	Cue	Win	True
690.269	4.0	Win2	0.6892	0.0	Yes	2.682	0.001	n/a	GoodResponse	1	n/a	n/a	18	73	Fixation	Win	True
694.264	0.28	Win2	0.6892	0.004	Yes	2.682	-0.004	4.0	GoodResponse	1	0.184	693.448	18	73	Target	Win	True
694.448	0.3	Win2	0.6892	0.004	Yes	2.682	-0.004	4.0	GoodResponse	1	0.184	n/a	18	73	ButtonPress	Win	True
694.548	0.42	Win2	0.6892	n/a	Yes	2.682	n/a	n/a	GoodResponse	1	n/a	n/a	18	73	Blank	Win	True
694.966	1.45	Win2	0.6892	n/a	Yes	2.682	n/a	5.0	GoodResponse	1	0.027	693.993	18	73	Feedback	Win	True
696.42	2.682	Win2	0.6892	n/a	Yes	2.682	n/a	n/a	GoodResponse	1	0.0	n/a	18	73	ISIslide	Win	True
699.128	0.25	Lose2	0.6933	0.001	Yes	2.622	0.028	n/a	GoodResponse	0	n/a	n/a	18	74	Cue	AvoidedLoss	True
699.379	4.05	Lose2	0.6933	0.0	Yes	2.622	0.001	n/a	GoodResponse	0	n/a	n/a	18	74	Fixation	AvoidedLoss	True
703.425	0.27	Lose2	0.6933	0.003	Yes	2.622	-0.003	4.0	GoodResponse	0	0.161	702.586	18	74	Target	AvoidedLoss	True
703.586	0.3	Lose2	0.6933	0.003	Yes	2.622	-0.003	4.0	GoodResponse	0	0.161	n/a	18	74	ButtonPress	AvoidedLoss	True
703.709	0.43	Lose2	0.6933	n/a	Yes	2.622	n/a	n/a	GoodResponse	0	n/a	n/a	18	74	Blank	AvoidedLoss	True
704.127	1.45	Lose2	0.6933	n/a	Yes	2.622	n/a	5.0	GoodResponse	0	0.037	703.164	18	74	Feedback	AvoidedLoss	True
705.581	2.622	Lose2	0.6933	n/a	Yes	2.622	n/a	n/a	GoodResponse	0	0.0	n/a	18	74	ISIslide	AvoidedLoss	True
708.222	0.25	Lose2	0.6973999999999999	0.0	Yes	2.928	0.022	n/a	GoodResponse	0	n/a	n/a	18	75	Cue	AvoidedLoss	True
708.473	3.95	Lose2	0.6973999999999999	0.0	Yes	2.928	0.001	n/a	GoodResponse	0	n/a	n/a	18	75	Fixation	AvoidedLoss	True
712.418	0.26	Lose2	0.6973999999999999	0.004	Yes	2.928	-0.004	4.0	GoodResponse	0	0.248	711.666	18	75	Target	AvoidedLoss	True
712.666	0.3	Lose2	0.6973999999999999	0.004	Yes	2.928	-0.004	4.0	GoodResponse	0	0.248	n/a	18	75	ButtonPress	AvoidedLoss	True
712.686	0.44	Lose2	0.6973999999999999	n/a	Yes	2.928	n/a	n/a	GoodResponse	0	n/a	n/a	18	75	Blank	AvoidedLoss	True
713.12	1.45	Lose2	0.6973999999999999	n/a	Yes	2.928	n/a	5.0	GoodResponse	0	0.02	712.14	18	75	Feedback	AvoidedLoss	True
714.575	2.928	Lose2	0.6973999999999999	n/a	Yes	2.928	n/a	n/a	GoodResponse	0	0.0	n/a	18	75	ISIslide	AvoidedLoss	True
717.517	0.25	Control	0.7012999999999999	0.0	Yes	3.233	0.017	n/a	GoodResponse	0	n/a	n/a	18	76	Cue	Neutral	True
717.768	4.05	Control	0.7012999999999999	0.0	Yes	3.233	0.001	n/a	GoodResponse	0	n/a	n/a	18	76	Fixation	Neutral	True
721.813	0.25	Control	0.7012999999999999	0.004	Yes	3.233	-0.004	4.0	GoodResponse	0	0.249	721.062	18	76	Target	Neutral	True
722.062	0.3	Control	0.7012999999999999	0.004	Yes	3.233	-0.004	4.0	GoodResponse	0	0.249	n/a	18	76	ButtonPress	Neutral	True
722.064	0.45	Control	0.7012999999999999	n/a	Yes	3.233	n/a	n/a	GoodResponse	0	n/a	n/a	18	76	Blank	Neutral	True
722.515	1.45	Control	0.7012999999999999	n/a	Yes	3.233	n/a	5.0	GoodResponse	0	0.04	721.555	18	76	Feedback	Neutral	True
723.969	3.233	Control	0.7012999999999999	n/a	Yes	3.233	n/a	n/a	GoodResponse	0	0.0	n/a	18	76	ISIslide	Neutral	True
727.229	0.25	Lose2	0.7051000000000001	0.0	Yes	2.571	0.029	n/a	GoodResponse	0	n/a	n/a	18	77	Cue	AvoidedLoss	True
727.48	3.95	Lose2	0.7051000000000001	0.0	Yes	2.571	0.001	n/a	GoodResponse	0	n/a	n/a	18	77	Fixation	AvoidedLoss	True
731.425	0.24	Lose2	0.7051000000000001	0.004	Yes	2.571	-0.004	4.0	GoodResponse	0	0.165	730.59	18	77	Target	AvoidedLoss	True
731.59	0.3	Lose2	0.7051000000000001	0.004	Yes	2.571	-0.004	4.0	GoodResponse	0	0.165	n/a	18	77	ButtonPress	AvoidedLoss	True
731.676	0.46	Lose2	0.7051000000000001	n/a	Yes	2.571	n/a	n/a	GoodResponse	0	n/a	n/a	18	77	Blank	AvoidedLoss	True
732.127	1.45	Lose2	0.7051000000000001	n/a	Yes	2.571	n/a	5.0	GoodResponse	0	0.037	731.164	18	77	Feedback	AvoidedLoss	True
733.582	2.571	Lose2	0.7051000000000001	n/a	Yes	2.571	n/a	n/a	GoodResponse	0	0.0	n/a	18	77	ISIslide	AvoidedLoss	True
