onset	duration	cue_type	current_mean_accuracy	duration_error	is_hit	isi_adjusted	onset_delay	response	response_type	reward	rt	rt_time	total_reward	trial_number	trial_phase	trial_type	one_press
11.107	0.25	Control	1.0	0.0	Yes	2.943	0.007	n/a	GoodResponse	0	n/a	n/a	0	0	Cue	Neutral	True
11.358	3.85	Control	1.0	0.0	Yes	2.943	0.001	n/a	GoodResponse	0	n/a	n/a	0	0	Fixation	Neutral	True
15.203	0.4	Control	1.0	0.004	Yes	2.943	-0.004	3.0	GoodResponse	0	0.184	14.387	0	0	Target	Neutral	True
15.387	0.3	Control	1.0	0.004	Yes	2.943	-0.004	3.0	GoodResponse	0	0.184	n/a	0	0	ButtonPress	Neutral	True
15.604	0.3	Control	1.0	n/a	Yes	2.943	n/a	n/a	GoodResponse	0	n/a	n/a	0	0	Blank	Neutral	True
15.905	1.45	Control	1.0	n/a	Yes	2.943	n/a	5.0	GoodResponse	0	0.022	14.927	0	0	Feedback	Neutral	True
17.359	2.943	Control	1.0	n/a	Yes	2.943	n/a	n/a	GoodResponse	0	0.0	n/a	0	0	ISIslide	Neutral	True
20.318	0.25	Lose2	1.0	0.0	Yes	2.782	0.018	n/a	GoodResponse	0	n/a	n/a	0	1	Cue	AvoidedLoss	True
20.569	4.0	Lose2	1.0	0.0	Yes	2.782	0.001	n/a	GoodResponse	0	n/a	n/a	0	1	Fixation	AvoidedLoss	True
24.564	0.39	Lose2	1.0	0.004	Yes	2.782	-0.004	3.0	GoodResponse	0	0.159	23.723	0	1	Target	AvoidedLoss	True
24.723	0.3	Lose2	1.0	0.004	Yes	2.782	-0.004	3.0	GoodResponse	0	0.159	n/a	0	1	ButtonPress	AvoidedLoss	True
24.965	0.31	Lose2	1.0	n/a	Yes	2.782	n/a	n/a	GoodResponse	0	n/a	n/a	0	1	Blank	AvoidedLoss	True
25.266	1.45	Lose2	1.0	n/a	Yes	2.782	n/a	5.0	GoodResponse	0	0.027	24.293	0	1	Feedback	AvoidedLoss	True
26.721	2.782	Lose2	1.0	n/a	Yes	2.782	n/a	n/a	GoodResponse	0	0.0	n/a	0	1	ISIslide	AvoidedLoss	True
29.529	0.25	Control	1.0	0.0	Yes	2.571	0.029	n/a	GoodResponse	0	n/a	n/a	0	2	Cue	Neutral	True
29.78	4.1	Control	1.0	0.0	Yes	2.571	0.001	n/a	GoodResponse	0	n/a	n/a	0	2	Fixation	Neutral	True
33.875	0.38	Control	1.0	0.004	Yes	2.571	-0.004	3.0	GoodResponse	0	0.138	33.013	0	2	Target	Neutral	True
34.013	0.3	Control	1.0	0.004	Yes	2.571	-0.004	3.0	GoodResponse	0	0.138	n/a	0	2	ButtonPress	Neutral	True
34.26	0.32	Control	1.0	n/a	Yes	2.571	n/a	n/a	GoodResponse	0	n/a	n/a	0	2	Blank	Neutral	True
34.578	1.45	Control	1.0	n/a	Yes	2.571	n/a	5.0	GoodResponse	0	0.032	33.61	0	2	Feedback	Neutral	True
36.032	2.571	Control	1.0	n/a	Yes	2.571	n/a	n/a	GoodResponse	0	0.0	n/a	0	2	ISIslide	Neutral	True
38.623	0.25	Win2	1.0	0.0	Yes	2.827	0.023	n/a	GoodResponse	1	n/a	n/a	1	3	Cue	Win	True
38.874	3.95	Win2	1.0	0.0	Yes	2.827	0.001	n/a	GoodResponse	1	n/a	n/a	1	3	Fixation	Win	True
42.819	0.37	Win2	1.0	0.004	Yes	2.827	-0.004	3.0	GoodResponse	1	0.222	42.041	1	3	Target	Win	True
43.041	0.3	Win2	1.0	0.004	Yes	2.827	-0.004	3.0	GoodResponse	1	0.222	n/a	1	3	ButtonPress	Win	True
43.203	0.33	Win2	1.0	n/a	Yes	2.827	n/a	n/a	GoodResponse	1	n/a	n/a	1	3	Blank	Win	True
43.521	1.45	Win2	1.0	n/a	Yes	2.827	n/a	5.0	GoodResponse	1	0.015	42.536	1	3	Feedback	Win	True
44.975	2.827	Win2	1.0	n/a	Yes	2.827	n/a	n/a	GoodResponse	1	0.0	n/a	1	3	ISIslide	Win	True
47.817	0.25	Win2	1.0	0.0	Yes	3.283	0.017	n/a	GoodResponse	1	n/a	n/a	2	4	Cue	Win	True
48.068	4.0	Win2	1.0	0.0	Yes	3.283	0.001	n/a	GoodResponse	1	n/a	n/a	2	4	Fixation	Win	True
52.063	0.36	Win2	1.0	0.004	Yes	3.283	-0.004	3.0	GoodResponse	1	0.185	51.248	2	4	Target	Win	True
52.248	0.3	Win2	1.0	0.004	Yes	3.283	-0.004	3.0	GoodResponse	1	0.185	n/a	2	4	ButtonPress	Win	True
52.431	0.34	Win2	1.0	n/a	Yes	3.283	n/a	n/a	GoodResponse	1	n/a	n/a	2	4	Blank	Win	True
52.765	1.45	Win2	1.0	n/a	Yes	3.283	n/a	5.0	GoodResponse	1	0.039	51.804	2	4	Feedback	Win	True
54.22	3.283	Win2	1.0	n/a	Yes	3.283	n/a	n/a	GoodResponse	1	0.0	n/a	2	4	ISIslide	Win	True
57.53	0.25	Win2	1.0	0.0	Yes	2.77	0.03	n/a	GoodResponse	1	n/a	n/a	3	5	Cue	Win	True
57.78	4.0	Win2	1.0	0.0	Yes	2.77	0.0	n/a	GoodResponse	1	n/a	n/a	3	5	Fixation	Win	True
61.776	0.35	Win2	1.0	0.004	Yes	2.77	-0.004	3.0	GoodResponse	1	0.19	60.966	3	5	Target	Win	True
61.966	0.3	Win2	1.0	0.004	Yes	2.77	-0.004	3.0	GoodResponse	1	0.19	n/a	3	5	ButtonPress	Win	True
62.127	0.35	Win2	1.0	n/a	Yes	2.77	n/a	n/a	GoodResponse	1	n/a	n/a	3	5	Blank	Win	True
62.478	1.45	Win2	1.0	n/a	Yes	2.77	n/a	5.0	GoodResponse	1	0.034	61.512	3	5	Feedback	Win	True
63.932	2.77	Win2	1.0	n/a	Yes	2.77	n/a	n/a	GoodResponse	1	0.0	n/a	3	5	ISIslide	Win	True
66.724	0.25	Lose2	1.0	0.0	Yes	2.726	0.024	n/a	GoodResponse	0	n/a	n/a	3	6	Cue	AvoidedLoss	True
66.975	3.95	Lose2	1.0	0.0	Yes	2.726	0.001	n/a	GoodResponse	0	n/a	n/a	3	6	Fixation	AvoidedLoss	True
70.92	0.34	Lose2	1.0	0.004	Yes	2.726	-0.004	3.0	GoodResponse	0	0.255	70.175	3	6	Target	AvoidedLoss	True
71.175	0.3	Lose2	1.0	0.004	Yes	2.726	-0.004	3.0	GoodResponse	0	0.255	n/a	3	6	ButtonPress	AvoidedLoss	True
71.271	0.36	Lose2	1.0	n/a	Yes	2.726	n/a	n/a	GoodResponse	0	n/a	n/a	3	6	Blank	AvoidedLoss	True
71.622	1.45	Lose2	1.0	n/a	Yes	2.726	n/a	5.0	GoodResponse	0	0.012	70.634	3	6	Feedback	AvoidedLoss	True
73.076	2.726	Lose2	1.0	n/a	Yes	2.726	n/a	n/a	GoodResponse	0	0.0	n/a	3	6	ISIslide	AvoidedLoss	True
75.818	0.25	Lose2	1.0	0.0	Yes	4.032	0.018	n/a	GoodResponse	0	n/a	n/a	3	7	Cue	AvoidedLoss	True
76.069	4.05	Lose2	1.0	0.0	Yes	4.032	0.001	n/a	GoodResponse	0	n/a	n/a	3	7	Fixation	AvoidedLoss	True
80.114	0.33	Lose2	1.0	0.004	Yes	4.032	-0.004	3.0	GoodResponse	0	0.16	79.274	3	7	Target	AvoidedLoss	True
80.274	0.3	Lose2	1.0	0.004	Yes	4.032	-0.004	3.0	GoodResponse	0	0.16	n/a	3	7	ButtonPress	AvoidedLoss	True
80.448	0.37	Lose2	1.0	n/a	Yes	4.032	n/a	n/a	GoodResponse	0	n/a	n/a	3	7	Blank	AvoidedLoss	True
80.816	1.45	Lose2	1.0	n/a	Yes	4.032	n/a	5.0	GoodResponse	0	0.037	79.853	3	7	Feedback	AvoidedLoss	True
82.27	4.032	Lose2	1.0	n/a	Yes	4.032	n/a	n/a	GoodResponse	0	0.0	n/a	3	7	ISIslide	AvoidedLoss	True
86.316	0.25	Lose2	1.0	0.0	Yes	3.034	0.016	n/a	GoodResponse	0	n/a	n/a	3	8	Cue	AvoidedLoss	True
86.567	3.95	Lose2	1.0	0.0	Yes	3.034	0.001	n/a	GoodResponse	0	n/a	n/a	3	8	Fixation	AvoidedLoss	True
90.512	0.32	Lose2	1.0	0.004	Yes	3.034	-0.004	3.0	GoodResponse	0	0.156	89.668	3	8	Target	AvoidedLoss	True
90.668	0.3	Lose2	1.0	0.004	Yes	3.034	-0.004	3.0	GoodResponse	0	0.156	n/a	3	8	ButtonPress	AvoidedLoss	True
90.846	0.38	Lose2	1.0	n/a	Yes	3.034	n/a	n/a	GoodResponse	0	n/a	n/a	3	8	Blank	AvoidedLoss	True
91.214	1.45	Lose2	1.0	n/a	Yes	3.034	n/a	5.0	GoodResponse	0	0.03	90.244	3	8	Feedback	AvoidedLoss	True
92.668	3.034	Lose2	1.0	n/a	Yes	3.034	n/a	n/a	GoodResponse	0	0.0	n/a	3	8	ISIslide	AvoidedLoss	True
95.727	0.25	Lose2	1.0	0.001	Yes	3.123	0.027	n/a	GoodResponse	0	n/a	n/a	3	9	Cue	AvoidedLoss	True
95.978	3.95	Lose2	1.0	0.0	Yes	3.123	0.001	n/a	GoodResponse	0	n/a	n/a	3	9	Fixation	AvoidedLoss	True
99.923	0.31	Lose2	1.0	0.004	Yes	3.123	-0.004	3.0	GoodResponse	0	0.159	99.082	3	9	Target	AvoidedLoss	True
100.082	0.3	Lose2	1.0	0.004	Yes	3.123	-0.004	3.0	GoodResponse	0	0.159	n/a	3	9	ButtonPress	AvoidedLoss	True
100.241	0.39	Lose2	1.0	n/a	Yes	3.123	n/a	n/a	GoodResponse	0	n/a	n/a	3	9	Blank	AvoidedLoss	True
100.625	1.45	Lose2	1.0	n/a	Yes	3.123	n/a	5.0	GoodResponse	0	0.033	99.658	3	9	Feedback	AvoidedLoss	True
102.08	3.123	Lose2	1.0	n/a	Yes	3.123	n/a	n/a	GoodResponse	0	0.0	n/a	3	9	ISIslide	AvoidedLoss	True
105.223	0.25	Control	1.0	0.0	Yes	3.277	0.023	n/a	GoodResponse	0	n/a	n/a	3	10	Cue	Neutral	True
105.473	4.0	Control	1.0	0.0	Yes	3.277	0.0	n/a	GoodResponse	0	n/a	n/a	3	10	Fixation	Neutral	True
109.469	0.3	Control	1.0	0.004	Yes	3.277	-0.004	3.0	GoodResponse	0	0.177	108.646	3	10	Target	Neutral	True
109.646	0.3	Control	1.0	0.004	Yes	3.277	-0.004	3.0	GoodResponse	0	0.177	n/a	3	10	ButtonPress	Neutral	True
109.77	0.4	Control	1.0	n/a	Yes	3.277	n/a	n/a	GoodResponse	0	n/a	n/a	3	10	Blank	Neutral	True
110.171	1.45	Control	1.0	n/a	Yes	3.277	n/a	5.0	GoodResponse	0	0.048	109.219	3	10	Feedback	Neutral	True
111.625	3.277	Control	1.0	n/a	Yes	3.277	n/a	n/a	GoodResponse	0	0.0	n/a	3	10	ISIslide	Neutral	True
114.918	0.25	Lose2	1.0	0.0	Yes	2.732	0.018	n/a	GoodResponse	0	n/a	n/a	3	11	Cue	AvoidedLoss	True
115.169	4.05	Lose2	1.0	0.0	Yes	2.732	0.001	n/a	GoodResponse	0	n/a	n/a	3	11	Fixation	AvoidedLoss	True
119.214	0.29	Lose2	1.0	0.004	Yes	2.732	-0.004	3.0	GoodResponse	0	0.152	118.366	3	11	Target	AvoidedLoss	True
119.366	0.3	Lose2	1.0	0.004	Yes	2.732	-0.004	3.0	GoodResponse	0	0.152	n/a	3	11	ButtonPress	AvoidedLoss	True
119.515	0.41	Lose2	1.0	n/a	Yes	2.732	n/a	n/a	GoodResponse	0	n/a	n/a	3	11	Blank	AvoidedLoss	True
119.917	1.45	Lose2	1.0	n/a	Yes	2.732	n/a	5.0	GoodResponse	0	0.009	118.926	3	11	Feedback	AvoidedLoss	True
121.371	2.732	Lose2	1.0	n/a	Yes	2.732	n/a	n/a	GoodResponse	0	0.0	n/a	3	11	ISIslide	AvoidedLoss	True
124.129	0.25	Control	1.0	0.0	Yes	2.971	0.029	n/a	GoodResponse	0	n/a	n/a	3	12	Cue	Neutral	True
124.38	3.9	Control	1.0	0.0	Yes	2.971	0.001	n/a	GoodResponse	0	n/a	n/a	3	12	Fixation	Neutral	True
128.275	0.28	Control	1.0	0.004	Yes	2.971	-0.004	3.0	GoodResponse	0	0.182	127.457	3	12	Target	Neutral	True
128.457	0.3	Control	1.0	0.004	Yes	2.971	-0.004	3.0	GoodResponse	0	0.182	n/a	3	12	ButtonPress	Neutral	True
128.559	0.42	Control	1.0	n/a	Yes	2.971	n/a	n/a	GoodResponse	0	n/a	n/a	3	12	Blank	Neutral	True
128.977	1.45	Control	1.0	n/a	Yes	2.971	n/a	5.0	GoodResponse	0	0.022	127.999	3	12	Feedback	Neutral	True
130.431	2.971	Control	1.0	n/a	Yes	2.971	n/a	n/a	GoodResponse	0	0.0	n/a	3	12	ISIslide	Neutral	True
133.424	0.25	Control	1.0	0.0	Yes	2.776	0.024	n/a	GoodResponse	0	n/a	n/a	3	13	Cue	Neutral	True
133.674	4.0	Control	1.0	0.001	Yes	2.776	0.0	n/a	GoodResponse	0	n/a	n/a	3	13	Fixation	Neutral	True
137.67	0.27	Control	1.0	0.004	Yes	2.776	-0.004	3.0	GoodResponse	0	0.164	136.834	3	13	Target	Neutral	True
137.834	0.3	Control	1.0	0.004	Yes	2.776	-0.004	3.0	GoodResponse	0	0.164	n/a	3	13	ButtonPress	Neutral	True
137.954	0.43	Control	1.0	n/a	Yes	2.776	n/a	n/a	GoodResponse	0	n/a	n/a	3	13	Blank	Neutral	True
138.372	1.45	Control	1.0	n/a	Yes	2.776	n/a	5.0	GoodResponse	0	0.042	137.414	3	13	Feedback	Neutral	True
139.826	2.776	Control	1.0	n/a	Yes	2.776	n/a	n/a	GoodResponse	0	0.0	n/a	3	13	ISIslide	Neutral	True
142.618	0.25	Win2	1.0	0.0	Yes	2.682	0.018	n/a	GoodResponse	1	n/a	n/a	4	14	Cue	Win	True
142.869	4.1	Win2	1.0	0.0	Yes	2.682	0.001	n/a	GoodResponse	1	n/a	n/a	4	14	Fixation	Win	True
146.964	0.26	Win2	1.0	0.004	Yes	2.682	-0.004	3.0	GoodResponse	1	0.148	146.112	4	14	Target	Win	True
147.112	0.3	Win2	1.0	0.004	Yes	2.682	-0.004	3.0	GoodResponse	1	0.148	n/a	4	14	ButtonPress	Win	True
147.232	0.44	Win2	1.0	n/a	Yes	2.682	n/a	n/a	GoodResponse	1	n/a	n/a	4	14	Blank	Win	True
147.666	1.45	Win2	1.0	n/a	Yes	2.682	n/a	5.0	GoodResponse	1	0.016	146.682	4	14	Feedback	Win	True
149.121	2.682	Win2	1.0	n/a	Yes	2.682	n/a	n/a	GoodResponse	1	0.0	n/a	4	14	ISIslide	Win	True
151.829	0.25	Control	1.0	0.0	Yes	2.971	0.029	n/a	GoodResponse	0	n/a	n/a	4	15	Cue	Neutral	True
152.08	4.0	Control	1.0	0.0	Yes	2.971	0.001	n/a	GoodResponse	0	n/a	n/a	4	15	Fixation	Neutral	True
156.075	0.25	Control	1.0	0.004	Yes	2.971	-0.004	3.0	GoodResponse	0	0.151	155.226	4	15	Target	Neutral	True
156.226	0.3	Control	1.0	0.004	Yes	2.971	-0.004	3.0	GoodResponse	0	0.151	n/a	4	15	ButtonPress	Neutral	True
156.326	0.45	Control	1.0	n/a	Yes	2.971	n/a	n/a	GoodResponse	0	n/a	n/a	4	15	Blank	Neutral	True
156.777	1.45	Control	1.0	n/a	Yes	2.971	n/a	5.0	GoodResponse	0	0.026	155.803	4	15	Feedback	Neutral	True
158.231	2.971	Control	1.0	n/a	Yes	2.971	n/a	n/a	GoodResponse	0	0.0	n/a	4	15	ISIslide	Neutral	True
161.224	0.25	Win2	1.0	0.0	Yes	2.876	0.024	n/a	GoodResponse	1	n/a	n/a	5	16	Cue	Win	True
161.474	4.0	Win2	1.0	0.001	Yes	2.876	0.0	n/a	GoodResponse	1	n/a	n/a	5	16	Fixation	Win	True
165.47	0.24	Win2	1.0	0.004	Yes	2.876	-0.004	3.0	GoodResponse	1	0.174	164.644	5	16	Target	Win	True
165.644	0.3	Win2	1.0	0.004	Yes	2.876	-0.004	3.0	GoodResponse	1	0.174	n/a	5	16	ButtonPress	Win	True
165.72	0.46	Win2	1.0	n/a	Yes	2.876	n/a	n/a	GoodResponse	1	n/a	n/a	5	16	Blank	Win	True
166.172	1.45	Win2	1.0	n/a	Yes	2.876	n/a	5.0	GoodResponse	1	0.046	165.218	5	16	Feedback	Win	True
167.626	2.876	Win2	1.0	n/a	Yes	2.876	n/a	n/a	GoodResponse	1	0.0	n/a	5	16	ISIslide	Win	True
170.518	0.25	Lose2	1.0	0.0	Yes	2.732	0.018	n/a	GoodResponse	0	n/a	n/a	5	17	Cue	AvoidedLoss	True
170.769	3.95	Lose2	1.0	0.0	Yes	2.732	0.001	n/a	GoodResponse	0	n/a	n/a	5	17	Fixation	AvoidedLoss	True
174.714	0.23	Lose2	1.0	0.004	Yes	2.732	-0.004	3.0	GoodResponse	0	0.17	173.884	5	17	Target	AvoidedLoss	True
174.884	0.3	Lose2	1.0	0.004	Yes	2.732	-0.004	3.0	GoodResponse	0	0.17	n/a	5	17	ButtonPress	AvoidedLoss	True
174.948	0.47	Lose2	1.0	n/a	Yes	2.732	n/a	n/a	GoodResponse	0	n/a	n/a	5	17	Blank	AvoidedLoss	True
175.416	1.45	Lose2	1.0	n/a	Yes	2.732	n/a	5.0	GoodResponse	0	0.022	174.438	5	17	Feedback	AvoidedLoss	True
176.871	2.732	Lose2	1.0	n/a	Yes	2.732	n/a	n/a	GoodResponse	0	0.0	n/a	5	17	ISIslide	AvoidedLoss	True
179.629	0.25	Lose2	1.0	0.0	Yes	2.721	0.029	n/a	GoodResponse	0	n/a	n/a	5	18	Cue	AvoidedLoss	True
179.88	4.05	Lose2	1.0	0.0	Yes	2.721	0.001	n/a	GoodResponse	0	n/a	n/a	5	18	Fixation	AvoidedLoss	True
183.925	0.22	Lose2	1.0	0.004	Yes	2.721	-0.004	3.0	GoodResponse	0	0.198	183.123	5	18	Target	AvoidedLoss	True
184.123	0.3	Lose2	1.0	0.004	Yes	2.721	-0.004	3.0	GoodResponse	0	0.198	n/a	5	18	ButtonPress	AvoidedLoss	True
184.159	0.48	Lose2	1.0	n/a	Yes	2.721	n/a	n/a	GoodResponse	0	n/a	n/a	5	18	Blank	AvoidedLoss	True
184.627	1.45	Lose2	1.0	n/a	Yes	2.721	n/a	5.0	GoodResponse	0	0.03	183.657	5	18	Feedback	AvoidedLoss	True
186.081	2.721	Lose2	1.0	n/a	Yes	2.721	n/a	n/a	GoodResponse	0	0.0	n/a	5	18	ISIslide	AvoidedLoss	True
188.823	0.25	Control	1.0	0.0	Yes	2.927	0.023	n/a	GoodResponse	0	n/a	n/a	5	19	Cue	Neutral	True
189.074	3.95	Control	1.0	0.0	Yes	2.927	0.001	n/a	GoodResponse	0	n/a	n/a	5	19	Fixation	Neutral	True
193.019	0.21	Control	1.0	0.004	Yes	2.927	-0.004	3.0	GoodResponse	0	0.156	192.175	5	19	Target	Neutral	True
193.175	0.3	Control	1.0	0.004	Yes	2.927	-0.004	3.0	GoodResponse	0	0.156	n/a	5	19	ButtonPress	Neutral	True
193.236	0.49	Control	1.0	n/a	Yes	2.927	n/a	n/a	GoodResponse	0	n/a	n/a	5	19	Blank	Neutral	True
193.721	1.45	Control	1.0	n/a	Yes	2.927	n/a	5.0	GoodResponse	0	0.01	192.731	5	19	Feedback	Neutral	True
195.175	2.927	Control	1.0	n/a	Yes	2.927	n/a	n/a	GoodResponse	0	0.0	n/a	5	19	ISIslide	Neutral	True
198.118	0.25	Control	1.0	0.0	Yes	2.632	0.018	n/a	GoodResponse	0	n/a	n/a	5	20	Cue	Neutral	True
198.368	4.05	Control	1.0	0.0	Yes	2.632	0.0	n/a	GoodResponse	0	n/a	n/a	5	20	Fixation	Neutral	True
202.414	0.2	Control	1.0	0.004	Yes	2.632	-0.004	3.0	GoodResponse	0	0.163	201.577	5	20	Target	Neutral	True
202.577	0.3	Control	1.0	0.004	Yes	2.632	-0.004	3.0	GoodResponse	0	0.163	n/a	5	20	ButtonPress	Neutral	True
202.614	0.5	Control	1.0	n/a	Yes	2.632	n/a	n/a	GoodResponse	0	n/a	n/a	5	20	Blank	Neutral	True
203.116	1.45	Control	1.0	n/a	Yes	2.632	n/a	5.0	GoodResponse	0	0.029	202.145	5	20	Feedback	Neutral	True
204.57	2.632	Control	1.0	n/a	Yes	2.632	n/a	n/a	GoodResponse	0	0.0	n/a	5	20	ISIslide	Neutral	True
207.228	0.25	Control	1.0	0.0	Yes	2.772	0.028	n/a	GoodResponse	0	n/a	n/a	5	21	Cue	Neutral	True
207.479	4.1	Control	1.0	0.0	Yes	2.772	0.001	n/a	GoodResponse	0	n/a	n/a	5	21	Fixation	Neutral	True
211.575	0.19	Control	1.0	0.003	Yes	2.772	-0.003	3.0	GoodResponse	0	0.175	210.75	5	21	Target	Neutral	True
211.75	0.3	Control	1.0	0.003	Yes	2.772	-0.003	3.0	GoodResponse	0	0.175	n/a	5	21	ButtonPress	Neutral	True
211.775	0.51	Control	1.0	n/a	Yes	2.772	n/a	n/a	GoodResponse	0	n/a	n/a	5	21	Blank	Neutral	True
212.277	1.45	Control	1.0	n/a	Yes	2.772	n/a	5.0	GoodResponse	0	0.039	211.316	5	21	Feedback	Neutral	True
213.731	2.772	Control	1.0	n/a	Yes	2.772	n/a	n/a	GoodResponse	0	0.0	n/a	5	21	ISIslide	Neutral	True
216.523	0.25	Control	1.0	0.0	Yes	2.777	0.023	n/a	GoodResponse	0	n/a	n/a	5	22	Cue	Neutral	True
216.773	4.0	Control	1.0	0.001	Yes	2.777	0.0	n/a	GoodResponse	0	n/a	n/a	5	22	Fixation	Neutral	True
220.769	0.18	Control	1.0	0.004	Yes	2.777	-0.004	3.0	GoodResponse	0	0.176	219.945	5	22	Target	Neutral	True
220.945	0.3	Control	1.0	0.004	Yes	2.777	-0.004	3.0	GoodResponse	0	0.176	n/a	5	22	ButtonPress	Neutral	True
220.953	0.52	Control	1.0	n/a	Yes	2.777	n/a	n/a	GoodResponse	0	n/a	n/a	5	22	Blank	Neutral	True
221.471	1.45	Control	1.0	n/a	Yes	2.777	n/a	5.0	GoodResponse	0	0.015	220.486	5	22	Feedback	Neutral	True
222.925	2.777	Control	1.0	n/a	Yes	2.777	n/a	n/a	GoodResponse	0	0.0	n/a	5	22	ISIslide	Neutral	True
225.717	0.25	Control	0.9582999999999999	0.0	No	2.783	0.017	n/a	NoResponse	0	n/a	n/a	5	23	Cue	Neutral	True
225.968	3.9	Control	0.9582999999999999	0.0	No	2.783	0.001	n/a	NoResponse	0	n/a	n/a	5	23	Fixation	Neutral	True
229.863	0.17	Control	0.9582999999999999	0.004	No	2.783	-0.004	3.0	NoResponse	0	0.215	229.078	5	23	Target	Neutral	True
230.047	0.53	Control	0.9582999999999999	n/a	No	2.783	n/a	n/a	NoResponse	0	n/a	n/a	5	23	Blank	Neutral	True
230.078	0.3	Control	0.9582999999999999	0.004	No	2.783	-0.004	3.0	NoResponse	0	0.215	n/a	5	23	ButtonPress	Neutral	True
230.565	1.45	Control	0.9582999999999999	n/a	No	2.783	n/a	5.0	NoResponse	0	0.043	229.608	5	23	Feedback	Neutral	True
232.019	2.783	Control	0.9582999999999999	n/a	No	2.783	n/a	n/a	NoResponse	0	0.0	n/a	5	23	ISIslide	Neutral	True
234.828	0.25	Win2	0.92	0.0	No	3.122	0.028	n/a	PrematurePress	0	n/a	n/a	5	24	Cue	MissedWin	True
235.078	3.95	Win2	0.92	0.0	No	3.122	0.0	n/a	PrematurePress	0	n/a	n/a	5	24	Fixation	MissedWin	True
239.04	0.16	Win2	0.92	0.0	No	3.122	0.012	3.0	PrematurePress	0	0.04	238.08	5	24	Target	MissedWin	True
239.08	0.3	Win2	0.92	0.0	No	3.122	0.012	3.0	PrematurePress	0	0.04	n/a	5	24	ButtonPress	MissedWin	True
239.191	0.54	Win2	0.92	n/a	No	3.122	n/a	n/a	PrematurePress	0	n/a	n/a	5	24	Blank	MissedWin	True
239.726	1.45	Win2	0.92	n/a	No	3.122	n/a	5.0	PrematurePress	0	0.007	238.733	5	24	Feedback	MissedWin	True
241.18	3.122	Win2	0.92	n/a	No	3.122	n/a	n/a	PrematurePress	0	0.0	n/a	5	24	ISIslide	MissedWin	True
244.323	0.25	Win2	0.8845999999999999	0.0	No	3.077	0.023	n/a	NoResponse	0	n/a	n/a	5	25	Cue	MissedWin	True
244.573	4.0	Win2	0.8845999999999999	0.0	No	3.077	0.0	n/a	NoResponse	0	n/a	n/a	5	25	Fixation	MissedWin	True
248.569	0.15	Win2	0.8845999999999999	0.004	No	3.077	-0.004	3.0	NoResponse	0	0.167	247.736	5	25	Target	MissedWin	True
248.719	0.55	Win2	0.8845999999999999	n/a	No	3.077	n/a	n/a	NoResponse	0	n/a	n/a	5	25	Blank	MissedWin	True
248.736	0.3	Win2	0.8845999999999999	0.004	No	3.077	-0.004	3.0	NoResponse	0	0.167	n/a	5	25	ButtonPress	MissedWin	True
249.271	1.45	Win2	0.8845999999999999	n/a	No	3.077	n/a	5.0	NoResponse	0	0.02	248.291	5	25	Feedback	MissedWin	True
250.725	3.077	Win2	0.8845999999999999	n/a	No	3.077	n/a	n/a	NoResponse	0	0.0	n/a	5	25	ISIslide	MissedWin	True
253.818	0.25	Win2	0.8519	0.0	No	2.932	0.018	n/a	NoResponse	0	n/a	n/a	5	26	Cue	MissedWin	True
254.069	3.95	Win2	0.8519	0.0	No	2.932	0.001	n/a	NoResponse	0	n/a	n/a	5	26	Fixation	MissedWin	True
258.014	0.15	Win2	0.8519	0.004	No	2.932	-0.004	3.0	NoResponse	0	0.17	257.184	5	26	Target	MissedWin	True
258.164	0.55	Win2	0.8519	n/a	No	2.932	n/a	n/a	NoResponse	0	n/a	n/a	5	26	Blank	MissedWin	True
258.184	0.3	Win2	0.8519	0.004	No	2.932	-0.004	3.0	NoResponse	0	0.17	n/a	5	26	ButtonPress	MissedWin	True
258.716	1.45	Win2	0.8519	n/a	No	2.932	n/a	5.0	NoResponse	0	0.039	257.755	5	26	Feedback	MissedWin	True
260.17	2.932	Win2	0.8519	n/a	No	2.932	n/a	n/a	NoResponse	0	0.0	n/a	5	26	ISIslide	MissedWin	True
263.129	0.25	Lose2	0.8214	0.0	No	2.821	0.029	n/a	NoResponse	-1	n/a	n/a	4	27	Cue	Loss	True
263.38	4.05	Lose2	0.8214	0.0	No	2.821	0.001	n/a	NoResponse	-1	n/a	n/a	4	27	Fixation	Loss	True
267.425	0.15	Lose2	0.8214	0.004	No	2.821	-0.004	3.0	NoResponse	-1	0.168	266.593	4	27	Target	Loss	True
267.576	0.55	Lose2	0.8214	n/a	No	2.821	n/a	n/a	NoResponse	-1	n/a	n/a	4	27	Blank	Loss	True
267.593	0.3	Lose2	0.8214	0.004	No	2.821	-0.004	3.0	NoResponse	-1	0.168	n/a	4	27	ButtonPress	Loss	True
268.127	1.45	Lose2	0.8214	n/a	No	2.821	n/a	5.0	NoResponse	-1	0.043	267.17	4	27	Feedback	Loss	True
269.582	2.821	Lose2	0.8214	n/a	No	2.821	n/a	n/a	NoResponse	-1	0.0	n/a	4	27	ISIslide	Loss	True
272.424	0.25	Control	0.7931	0.0	No	2.826	0.024	n/a	NoResponse	0	n/a	n/a	4	28	Cue	Neutral	True
272.674	4.05	Control	0.7931	0.0	No	2.826	0.0	n/a	NoResponse	0	n/a	n/a	4	28	Fixation	Neutral	True
276.72	0.15	Control	0.7931	0.004	No	2.826	-0.004	3.0	NoResponse	0	0.17	275.89	4	28	Target	Neutral	True
276.87	0.55	Control	0.7931	n/a	No	2.826	n/a	n/a	NoResponse	0	n/a	n/a	4	28	Blank	Neutral	True
276.89	0.3	Control	0.7931	0.004	No	2.826	-0.004	3.0	NoResponse	0	0.17	n/a	4	28	ButtonPress	Neutral	True
277.422	1.45	Control	0.7931	n/a	No	2.826	n/a	5.0	NoResponse	0	0.015	276.437	4	28	Feedback	Neutral	True
278.876	2.826	Control	0.7931	n/a	No	2.826	n/a	n/a	NoResponse	0	0.0	n/a	4	28	ISIslide	Neutral	True
281.718	0.25	Lose2	0.7667	0.0	No	2.832	0.018	n/a	NoResponse	-1	n/a	n/a	3	29	Cue	Loss	True
281.969	3.95	Lose2	0.7667	0.0	No	2.832	0.001	n/a	NoResponse	-1	n/a	n/a	3	29	Fixation	Loss	True
285.914	0.15	Lose2	0.7667	0.004	No	2.832	-0.004	3.0	NoResponse	-1	0.161	285.075	3	29	Target	Loss	True
286.064	0.55	Lose2	0.7667	n/a	No	2.832	n/a	n/a	NoResponse	-1	n/a	n/a	3	29	Blank	Loss	True
286.075	0.3	Lose2	0.7667	0.004	No	2.832	-0.004	3.0	NoResponse	-1	0.161	n/a	3	29	ButtonPress	Loss	True
286.616	1.45	Lose2	0.7667	n/a	No	2.832	n/a	5.0	NoResponse	-1	0.041	285.657	3	29	Feedback	Loss	True
288.07	2.832	Lose2	0.7667	n/a	No	2.832	n/a	n/a	NoResponse	-1	0.0	n/a	3	29	ISIslide	Loss	True
290.929	0.25	Win2	0.7419	0.0	No	2.771	0.029	n/a	NoResponse	0	n/a	n/a	3	30	Cue	MissedWin	True
291.18	3.9	Win2	0.7419	0.0	No	2.771	0.001	n/a	NoResponse	0	n/a	n/a	3	30	Fixation	MissedWin	True
295.075	0.15	Win2	0.7419	0.004	No	2.771	-0.004	3.0	NoResponse	0	0.162	294.237	3	30	Target	MissedWin	True
295.225	0.55	Win2	0.7419	n/a	No	2.771	n/a	n/a	NoResponse	0	n/a	n/a	3	30	Blank	MissedWin	True
295.237	0.3	Win2	0.7419	0.004	No	2.771	-0.004	3.0	NoResponse	0	0.162	n/a	3	30	ButtonPress	MissedWin	True
295.777	1.45	Win2	0.7419	n/a	No	2.771	n/a	5.0	NoResponse	0	0.002	294.779	3	30	Feedback	MissedWin	True
297.231	2.771	Win2	0.7419	n/a	No	2.771	n/a	n/a	NoResponse	0	0.0	n/a	3	30	ISIslide	MissedWin	True
300.023	0.25	Lose2	0.7188	0.0	No	2.827	0.023	n/a	NoResponse	-1	n/a	n/a	2	31	Cue	Loss	True
300.274	4.05	Lose2	0.7188	0.0	No	2.827	0.001	3.0	NoResponse	-1	3.843	303.117	2	31	Fixation	Loss	True
304.117	0.3	Lose2	0.7188	0.0	No	2.827	0.001	3.0	NoResponse	-1	3.843	n/a	2	31	ButtonPress	Loss	True
304.319	0.15	Lose2	0.7188	0.004	No	2.827	-0.004	n/a	NoResponse	-1	n/a	n/a	2	31	Target	Loss	True
304.47	0.55	Lose2	0.7188	n/a	No	2.827	n/a	n/a	NoResponse	-1	n/a	n/a	2	31	Blank	Loss	True
305.021	1.45	Lose2	0.7188	n/a	No	2.827	n/a	5.0	NoResponse	-1	0.026	304.047	2	31	Feedback	Loss	True
306.476	2.827	Lose2	0.7188	n/a	No	2.827	n/a	n/a	NoResponse	-1	0.0	n/a	2	31	ISIslide	Loss	True
309.317	0.25	Lose2	0.6970000000000001	0.001	No	2.633	0.017	n/a	NoResponse	-1	n/a	n/a	1	32	Cue	Loss	True
309.568	4.15	Lose2	0.6970000000000001	0.0	No	2.633	0.001	n/a	NoResponse	-1	n/a	n/a	1	32	Fixation	Loss	True
313.714	0.15	Lose2	0.6970000000000001	0.003	No	2.633	-0.003	3.0	NoResponse	-1	0.168	312.882	1	32	Target	Loss	True
313.864	0.55	Lose2	0.6970000000000001	n/a	No	2.633	n/a	n/a	NoResponse	-1	n/a	n/a	1	32	Blank	Loss	True
313.882	0.3	Lose2	0.6970000000000001	0.003	No	2.633	-0.003	3.0	NoResponse	-1	0.168	n/a	1	32	ButtonPress	Loss	True
314.416	1.45	Lose2	0.6970000000000001	n/a	No	2.633	n/a	5.0	NoResponse	-1	0.046	313.462	1	32	Feedback	Loss	True
315.87	2.633	Lose2	0.6970000000000001	n/a	No	2.633	n/a	n/a	NoResponse	-1	0.0	n/a	1	32	ISIslide	Loss	True
318.528	0.25	Win2	0.6765000000000001	0.0	No	2.672	0.028	n/a	NoResponse	0	n/a	n/a	1	33	Cue	MissedWin	True
318.779	4.0	Win2	0.6765000000000001	0.0	No	2.672	0.001	n/a	NoResponse	0	n/a	n/a	1	33	Fixation	MissedWin	True
322.774	0.15	Win2	0.6765000000000001	0.004	No	2.672	-0.004	3.0	NoResponse	0	0.162	321.936	1	33	Target	MissedWin	True
322.925	0.55	Win2	0.6765000000000001	n/a	No	2.672	n/a	n/a	NoResponse	0	n/a	n/a	1	33	Blank	MissedWin	True
322.936	0.3	Win2	0.6765000000000001	0.004	No	2.672	-0.004	3.0	NoResponse	0	0.162	n/a	1	33	ButtonPress	MissedWin	True
323.477	1.45	Win2	0.6765000000000001	n/a	No	2.672	n/a	5.0	NoResponse	0	0.009	322.486	1	33	Feedback	MissedWin	True
324.931	2.672	Win2	0.6765000000000001	n/a	No	2.672	n/a	n/a	NoResponse	0	0.0	n/a	1	33	ISIslide	MissedWin	True
327.622	0.25	Lose2	0.6570999999999999	0.0	No	2.628	0.022	n/a	NoResponse	-1	n/a	n/a	0	34	Cue	Loss	True
327.873	4.05	Lose2	0.6570999999999999	0.0	No	2.628	0.001	n/a	NoResponse	-1	n/a	n/a	0	34	Fixation	Loss	True
331.918	0.15	Lose2	0.6570999999999999	0.004	No	2.628	-0.004	3.0	NoResponse	-1	0.166	331.084	0	34	Target	Loss	True
332.069	0.55	Lose2	0.6570999999999999	n/a	No	2.628	n/a	n/a	NoResponse	-1	n/a	n/a	0	34	Blank	Loss	True
332.084	0.3	Lose2	0.6570999999999999	0.004	No	2.628	-0.004	3.0	NoResponse	-1	0.166	n/a	0	34	ButtonPress	Loss	True
332.621	1.45	Lose2	0.6570999999999999	n/a	No	2.628	n/a	5.0	NoResponse	-1	0.035	331.656	0	34	Feedback	Loss	True
334.075	2.628	Lose2	0.6570999999999999	n/a	No	2.628	n/a	n/a	NoResponse	-1	0.0	n/a	0	34	ISIslide	Loss	True
336.716	0.25	Lose2	0.6389	0.0	No	2.684	0.016	n/a	NoResponse	-1	n/a	n/a	-1	35	Cue	Loss	True
336.967	4.0	Lose2	0.6389	0.0	No	2.684	0.001	n/a	NoResponse	-1	n/a	n/a	-1	35	Fixation	Loss	True
340.962	0.15	Lose2	0.6389	0.004	No	2.684	-0.004	3.0	NoResponse	-1	0.167	340.129	-1	35	Target	Loss	True
341.113	0.55	Lose2	0.6389	n/a	No	2.684	n/a	n/a	NoResponse	-1	n/a	n/a	-1	35	Blank	Loss	True
341.129	0.3	Lose2	0.6389	0.004	No	2.684	-0.004	3.0	NoResponse	-1	0.167	n/a	-1	35	ButtonPress	Loss	True
341.664	1.45	Lose2	0.6389	n/a	No	2.684	n/a	5.0	NoResponse	-1	0.017	340.681	-1	35	Feedback	Loss	True
343.119	2.684	Lose2	0.6389	n/a	No	2.684	n/a	n/a	NoResponse	-1	0.0	n/a	-1	35	ISIslide	Loss	True
345.827	0.25	Control	0.6486	0.0	Yes	2.673	0.027	n/a	GoodResponse	0	n/a	n/a	-1	36	Cue	Neutral	True
346.078	4.0	Control	0.6486	0.0	Yes	2.673	0.001	n/a	GoodResponse	0	n/a	n/a	-1	36	Fixation	Neutral	True
350.073	0.16	Control	0.6486	0.004	Yes	2.673	-0.004	3.0	GoodResponse	0	0.152	349.225	-1	36	Target	Neutral	True
350.225	0.3	Control	0.6486	0.004	Yes	2.673	-0.004	3.0	GoodResponse	0	0.152	n/a	-1	36	ButtonPress	Neutral	True
350.24	0.54	Control	0.6486	n/a	Yes	2.673	n/a	n/a	GoodResponse	0	n/a	n/a	-1	36	Blank	Neutral	True
350.775	1.45	Control	0.6486	n/a	Yes	2.673	n/a	5.0	GoodResponse	0	0.028	349.803	-1	36	Feedback	Neutral	True
352.229	2.673	Control	0.6486	n/a	Yes	2.673	n/a	n/a	GoodResponse	0	0.0	n/a	-1	36	ISIslide	Neutral	True
354.921	0.25	Win2	0.6315999999999999	0.0	No	2.879	0.021	n/a	PrematurePress	0	n/a	n/a	-1	37	Cue	MissedWin	True
355.171	4.0	Win2	0.6315999999999999	0.001	No	2.879	0.0	n/a	PrematurePress	0	n/a	n/a	-1	37	Fixation	MissedWin	True
359.167	0.17	Win2	0.6315999999999999	0.004	No	2.879	-0.004	3.0	PrematurePress	0	0.042	358.209	-1	37	Target	MissedWin	True
359.209	0.3	Win2	0.6315999999999999	0.004	No	2.879	-0.004	3.0	PrematurePress	0	0.042	n/a	-1	37	ButtonPress	MissedWin	True
359.351	0.53	Win2	0.6315999999999999	n/a	No	2.879	n/a	n/a	PrematurePress	0	n/a	n/a	-1	37	Blank	MissedWin	True
359.869	1.45	Win2	0.6315999999999999	n/a	No	2.879	n/a	5.0	PrematurePress	0	0.007	358.876	-1	37	Feedback	MissedWin	True
361.323	2.879	Win2	0.6315999999999999	n/a	No	2.879	n/a	n/a	PrematurePress	0	0.0	n/a	-1	37	ISIslide	MissedWin	True
364.215	0.25	Lose2	0.6409999999999999	0.0	Yes	2.835	0.015	n/a	GoodResponse	0	n/a	n/a	-1	38	Cue	AvoidedLoss	True
364.466	3.95	Lose2	0.6409999999999999	0.0	Yes	2.835	0.001	n/a	GoodResponse	0	n/a	n/a	-1	38	Fixation	AvoidedLoss	True
368.411	0.18	Lose2	0.6409999999999999	0.004	Yes	2.835	-0.004	3.0	GoodResponse	0	0.169	367.58	-1	38	Target	AvoidedLoss	True
368.58	0.3	Lose2	0.6409999999999999	0.004	Yes	2.835	-0.004	3.0	GoodResponse	0	0.169	n/a	-1	38	ButtonPress	AvoidedLoss	True
368.595	0.52	Lose2	0.6409999999999999	n/a	Yes	2.835	n/a	n/a	GoodResponse	0	n/a	n/a	-1	38	Blank	AvoidedLoss	True
369.113	1.45	Lose2	0.6409999999999999	n/a	Yes	2.835	n/a	5.0	GoodResponse	0	0.031	368.144	-1	38	Feedback	AvoidedLoss	True
370.568	2.835	Lose2	0.6409999999999999	n/a	Yes	2.835	n/a	n/a	GoodResponse	0	0.0	n/a	-1	38	ISIslide	AvoidedLoss	True
373.426	0.25	Win2	0.625	0.0	No	2.974	0.026	n/a	PrematurePress	0	n/a	n/a	-1	39	Cue	MissedWin	True
373.677	4.1	Win2	0.625	0.0	No	2.974	0.001	n/a	PrematurePress	0	n/a	n/a	-1	39	Fixation	MissedWin	True
377.773	0.19	Win2	0.625	0.003	No	2.974	-0.003	3.0	PrematurePress	0	0.081	376.854	-1	39	Target	MissedWin	True
377.854	0.3	Win2	0.625	0.003	No	2.974	-0.003	3.0	PrematurePress	0	0.081	n/a	-1	39	ButtonPress	MissedWin	True
377.973	0.51	Win2	0.625	n/a	No	2.974	n/a	n/a	PrematurePress	0	n/a	n/a	-1	39	Blank	MissedWin	True
378.475	1.45	Win2	0.625	n/a	No	2.974	n/a	5.0	PrematurePress	0	0.035	377.51	-1	39	Feedback	MissedWin	True
379.929	2.974	Win2	0.625	n/a	No	2.974	n/a	n/a	PrematurePress	0	0.0	n/a	-1	39	ISIslide	MissedWin	True
382.921	0.25	Win2	0.6341	0.0	Yes	2.729	0.021	n/a	GoodResponse	1	n/a	n/a	0	40	Cue	Win	True
383.172	3.95	Win2	0.6341	0.0	Yes	2.729	0.001	n/a	GoodResponse	1	n/a	n/a	0	40	Fixation	Win	True
387.117	0.2	Win2	0.6341	0.004	Yes	2.729	-0.004	3.0	GoodResponse	1	0.167	386.284	0	40	Target	Win	True
387.284	0.3	Win2	0.6341	0.004	Yes	2.729	-0.004	3.0	GoodResponse	1	0.167	n/a	0	40	ButtonPress	Win	True
387.318	0.5	Win2	0.6341	n/a	Yes	2.729	n/a	n/a	GoodResponse	1	n/a	n/a	0	40	Blank	Win	True
387.819	1.45	Win2	0.6341	n/a	Yes	2.729	n/a	5.0	GoodResponse	1	0.008	386.827	0	40	Feedback	Win	True
389.274	2.729	Win2	0.6341	n/a	Yes	2.729	n/a	n/a	GoodResponse	1	0.0	n/a	0	40	ISIslide	Win	True
392.032	0.25	Win2	0.6429	0.0	Yes	2.768	0.032	n/a	GoodResponse	1	n/a	n/a	1	41	Cue	Win	True
392.283	3.9	Win2	0.6429	0.0	Yes	2.768	0.001	n/a	GoodResponse	1	n/a	n/a	1	41	Fixation	Win	True
396.178	0.21	Win2	0.6429	0.004	Yes	2.768	-0.004	3.0	GoodResponse	1	0.17	395.348	1	41	Target	Win	True
396.348	0.3	Win2	0.6429	0.004	Yes	2.768	-0.004	3.0	GoodResponse	1	0.17	n/a	1	41	ButtonPress	Win	True
396.395	0.49	Win2	0.6429	n/a	Yes	2.768	n/a	n/a	GoodResponse	1	n/a	n/a	1	41	Blank	Win	True
396.88	1.45	Win2	0.6429	n/a	Yes	2.768	n/a	5.0	GoodResponse	1	0.02	395.9	1	41	Feedback	Win	True
398.334	2.768	Win2	0.6429	n/a	Yes	2.768	n/a	n/a	GoodResponse	1	0.0	n/a	1	41	ISIslide	Win	True
401.126	0.25	Control	0.6512	0.0	Yes	2.924	0.026	n/a	GoodResponse	0	n/a	n/a	1	42	Cue	Neutral	True
401.377	3.85	Control	0.6512	0.0	Yes	2.924	0.001	n/a	GoodResponse	0	n/a	n/a	1	42	Fixation	Neutral	True
405.221	0.22	Control	0.6512	0.005	Yes	2.924	-0.005	3.0	GoodResponse	0	0.186	404.407	1	42	Target	Neutral	True
405.407	0.3	Control	0.6512	0.005	Yes	2.924	-0.005	3.0	GoodResponse	0	0.186	n/a	1	42	ButtonPress	Neutral	True
405.455	0.48	Control	0.6512	n/a	Yes	2.924	n/a	n/a	GoodResponse	0	n/a	n/a	1	42	Blank	Neutral	True
405.924	1.45	Control	0.6512	n/a	Yes	2.924	n/a	5.0	GoodResponse	0	0.0	404.924	1	42	Feedback	Neutral	True
407.378	2.924	Control	0.6512	n/a	Yes	2.924	n/a	n/a	GoodResponse	0	0.0	n/a	1	42	ISIslide	Neutral	True
410.32	0.25	Win2	0.6591	0.0	Yes	3.18	0.02	n/a	GoodResponse	1	n/a	n/a	2	43	Cue	Win	True
410.571	4.0	Win2	0.6591	0.0	Yes	3.18	0.001	n/a	GoodResponse	1	n/a	n/a	2	43	Fixation	Win	True
414.566	0.23	Win2	0.6591	0.004	Yes	3.18	-0.004	3.0	GoodResponse	1	0.16	413.726	2	43	Target	Win	True
414.726	0.3	Win2	0.6591	0.004	Yes	3.18	-0.004	3.0	GoodResponse	1	0.16	n/a	2	43	ButtonPress	Win	True
414.8	0.47	Win2	0.6591	n/a	Yes	3.18	n/a	n/a	GoodResponse	1	n/a	n/a	2	43	Blank	Win	True
415.268	1.45	Win2	0.6591	n/a	Yes	3.18	n/a	5.0	GoodResponse	1	0.022	414.29	2	43	Feedback	Win	True
416.723	3.18	Win2	0.6591	n/a	Yes	3.18	n/a	n/a	GoodResponse	1	0.0	n/a	2	43	ISIslide	Win	True
419.915	0.25	Win2	0.6667000000000001	0.001	Yes	2.985	0.015	n/a	GoodResponse	1	n/a	n/a	3	44	Cue	Win	True
420.166	4.0	Win2	0.6667000000000001	0.0	Yes	2.985	0.001	n/a	GoodResponse	1	n/a	n/a	3	44	Fixation	Win	True
424.162	0.23	Win2	0.6667000000000001	0.003	Yes	2.985	-0.003	3.0	GoodResponse	1	0.179	423.341	3	44	Target	Win	True
424.341	0.3	Win2	0.6667000000000001	0.003	Yes	2.985	-0.003	3.0	GoodResponse	1	0.179	n/a	3	44	ButtonPress	Win	True
424.396	0.47	Win2	0.6667000000000001	n/a	Yes	2.985	n/a	n/a	GoodResponse	1	n/a	n/a	3	44	Blank	Win	True
424.864	1.45	Win2	0.6667000000000001	n/a	Yes	2.985	n/a	5.0	GoodResponse	1	0.036	423.9	3	44	Feedback	Win	True
426.318	2.985	Win2	0.6667000000000001	n/a	Yes	2.985	n/a	n/a	GoodResponse	1	0.0	n/a	3	44	ISIslide	Win	True
429.327	0.25	Control	0.6739	0.0	Yes	2.873	0.027	n/a	GoodResponse	0	n/a	n/a	3	45	Cue	Neutral	True
429.578	4.1	Control	0.6739	0.0	Yes	2.873	0.001	n/a	GoodResponse	0	n/a	n/a	3	45	Fixation	Neutral	True
433.673	0.22	Control	0.6739	0.004	Yes	2.873	-0.004	3.0	GoodResponse	0	0.159	432.832	3	45	Target	Neutral	True
433.832	0.3	Control	0.6739	0.004	Yes	2.873	-0.004	3.0	GoodResponse	0	0.159	n/a	3	45	ButtonPress	Neutral	True
433.907	0.48	Control	0.6739	n/a	Yes	2.873	n/a	n/a	GoodResponse	0	n/a	n/a	3	45	Blank	Neutral	True
434.375	1.45	Control	0.6739	n/a	Yes	2.873	n/a	5.0	GoodResponse	0	0.037	433.412	3	45	Feedback	Neutral	True
435.83	2.873	Control	0.6739	n/a	Yes	2.873	n/a	n/a	GoodResponse	0	0.0	n/a	3	45	ISIslide	Neutral	True
438.722	0.25	Lose2	0.6809000000000001	0.0	Yes	3.378	0.022	n/a	GoodResponse	0	n/a	n/a	3	46	Cue	AvoidedLoss	True
438.973	4.0	Lose2	0.6809000000000001	0.0	Yes	3.378	0.001	n/a	GoodResponse	0	n/a	n/a	3	46	Fixation	AvoidedLoss	True
442.968	0.21	Lose2	0.6809000000000001	0.004	Yes	3.378	-0.004	3.0	GoodResponse	0	0.162	442.13	3	46	Target	AvoidedLoss	True
443.13	0.3	Lose2	0.6809000000000001	0.004	Yes	3.378	-0.004	3.0	GoodResponse	0	0.162	n/a	3	46	ButtonPress	AvoidedLoss	True
443.185	0.49	Lose2	0.6809000000000001	n/a	Yes	3.378	n/a	n/a	GoodResponse	0	n/a	n/a	3	46	Blank	AvoidedLoss	True
443.67	1.45	Lose2	0.6809000000000001	n/a	Yes	3.378	n/a	5.0	GoodResponse	0	0.011	442.681	3	46	Feedback	AvoidedLoss	True
445.124	3.378	Lose2	0.6809000000000001	n/a	Yes	3.378	n/a	n/a	GoodResponse	0	0.0	n/a	3	46	ISIslide	AvoidedLoss	True
448.518	0.25	Lose2	0.6875	0.0	Yes	2.682	0.018	n/a	GoodResponse	0	n/a	n/a	3	47	Cue	AvoidedLoss	True
448.769	4.0	Lose2	0.6875	0.0	Yes	2.682	0.001	n/a	GoodResponse	0	n/a	n/a	3	47	Fixation	AvoidedLoss	True
452.764	0.2	Lose2	0.6875	0.004	Yes	2.682	-0.004	3.0	GoodResponse	0	0.156	451.92	3	47	Target	AvoidedLoss	True
452.92	0.3	Lose2	0.6875	0.004	Yes	2.682	-0.004	3.0	GoodResponse	0	0.156	n/a	3	47	ButtonPress	AvoidedLoss	True
452.965	0.5	Lose2	0.6875	n/a	Yes	2.682	n/a	n/a	GoodResponse	0	n/a	n/a	3	47	Blank	AvoidedLoss	True
453.466	1.45	Lose2	0.6875	n/a	Yes	2.682	n/a	5.0	GoodResponse	0	0.019	452.485	3	47	Feedback	AvoidedLoss	True
454.92	2.682	Lose2	0.6875	n/a	Yes	2.682	n/a	n/a	GoodResponse	0	0.0	n/a	3	47	ISIslide	AvoidedLoss	True
457.628	0.25	Lose2	0.6939	0.001	Yes	3.022	0.028	n/a	GoodResponse	0	n/a	n/a	3	48	Cue	AvoidedLoss	True
457.879	3.95	Lose2	0.6939	0.0	Yes	3.022	0.001	n/a	GoodResponse	0	n/a	n/a	3	48	Fixation	AvoidedLoss	True
461.824	0.19	Lose2	0.6939	0.004	Yes	3.022	-0.004	3.0	GoodResponse	0	0.169	460.993	3	48	Target	AvoidedLoss	True
461.993	0.3	Lose2	0.6939	0.004	Yes	3.022	-0.004	3.0	GoodResponse	0	0.169	n/a	3	48	ButtonPress	AvoidedLoss	True
462.025	0.51	Lose2	0.6939	n/a	Yes	3.022	n/a	n/a	GoodResponse	0	n/a	n/a	3	48	Blank	AvoidedLoss	True
462.527	1.45	Lose2	0.6939	n/a	Yes	3.022	n/a	5.0	GoodResponse	0	0.031	461.558	3	48	Feedback	AvoidedLoss	True
463.981	3.022	Lose2	0.6939	n/a	Yes	3.022	n/a	n/a	GoodResponse	0	0.0	n/a	3	48	ISIslide	AvoidedLoss	True
467.023	0.25	Control	0.68	0.0	No	2.877	0.023	n/a	NoResponse	0	n/a	n/a	3	49	Cue	Neutral	True
467.274	4.0	Control	0.68	0.0	No	2.877	0.001	n/a	NoResponse	0	n/a	n/a	3	49	Fixation	Neutral	True
471.269	0.18	Control	0.68	0.004	No	2.877	-0.004	3.0	NoResponse	0	0.196	470.465	3	49	Target	Neutral	True
471.453	0.52	Control	0.68	n/a	No	2.877	n/a	n/a	NoResponse	0	n/a	n/a	3	49	Blank	Neutral	True
471.465	0.3	Control	0.68	0.004	No	2.877	-0.004	3.0	NoResponse	0	0.196	n/a	3	49	ButtonPress	Neutral	True
471.971	1.45	Control	0.68	n/a	No	2.877	n/a	5.0	NoResponse	0	0.007	470.978	3	49	Feedback	Neutral	True
473.426	2.877	Control	0.68	n/a	No	2.877	n/a	n/a	NoResponse	0	0.0	n/a	3	49	ISIslide	Neutral	True
476.318	0.25	Control	0.6667000000000001	0.0	No	2.782	0.018	n/a	LatePress	0	n/a	n/a	3	50	Cue	Neutral	True
476.569	4.0	Control	0.6667000000000001	0.0	No	2.782	0.001	n/a	LatePress	0	n/a	n/a	3	50	Fixation	Neutral	True
480.564	0.17	Control	0.6667000000000001	0.004	No	2.782	-0.004	3.0	LatePress	0	0.18	479.744	3	50	Target	Neutral	True
480.744	0.3	Control	0.6667000000000001	0.004	No	2.782	-0.004	3.0	LatePress	0	0.18	n/a	3	50	ButtonPress	Neutral	True
480.748	0.53	Control	0.6667000000000001	n/a	No	2.782	n/a	n/a	LatePress	0	n/a	n/a	3	50	Blank	Neutral	True
481.266	1.45	Control	0.6667000000000001	n/a	No	2.782	n/a	5.0	LatePress	0	0.024	480.29	3	50	Feedback	Neutral	True
482.72	2.782	Control	0.6667000000000001	n/a	No	2.782	n/a	n/a	LatePress	0	0.0	n/a	3	50	ISIslide	Neutral	True
485.529	0.25	Control	0.6537999999999999	0.0	No	2.721	0.029	n/a	NoResponse	0	n/a	n/a	3	51	Cue	Neutral	True
485.78	3.95	Control	0.6537999999999999	0.0	No	2.721	0.001	n/a	NoResponse	0	n/a	n/a	3	51	Fixation	Neutral	True
489.725	0.16	Control	0.6537999999999999	0.004	No	2.721	-0.004	3.0	NoResponse	0	0.175	488.9	3	51	Target	Neutral	True
489.892	0.54	Control	0.6537999999999999	n/a	No	2.721	n/a	n/a	NoResponse	0	n/a	n/a	3	51	Blank	Neutral	True
489.9	0.3	Control	0.6537999999999999	0.004	No	2.721	-0.004	3.0	NoResponse	0	0.175	n/a	3	51	ButtonPress	Neutral	True
490.427	1.45	Control	0.6537999999999999	n/a	No	2.721	n/a	5.0	NoResponse	0	0.034	489.461	3	51	Feedback	Neutral	True
491.881	2.721	Control	0.6537999999999999	n/a	No	2.721	n/a	n/a	NoResponse	0	0.0	n/a	3	51	ISIslide	Neutral	True
494.623	0.25	Control	0.6415000000000001	0.0	No	2.627	0.023	n/a	LatePress	0	n/a	n/a	3	52	Cue	Neutral	True
494.873	4.05	Control	0.6415000000000001	0.001	No	2.627	0.0	n/a	LatePress	0	n/a	n/a	3	52	Fixation	Neutral	True
498.919	0.17	Control	0.6415000000000001	0.004	No	2.627	-0.004	3.0	LatePress	0	0.182	498.101	3	52	Target	Neutral	True
499.101	0.3	Control	0.6415000000000001	0.004	No	2.627	-0.004	3.0	LatePress	0	0.182	n/a	3	52	ButtonPress	Neutral	True
499.103	0.53	Control	0.6415000000000001	n/a	No	2.627	n/a	n/a	LatePress	0	n/a	n/a	3	52	Blank	Neutral	True
499.621	1.45	Control	0.6415000000000001	n/a	No	2.627	n/a	5.0	LatePress	0	0.011	498.632	3	52	Feedback	Neutral	True
501.075	2.627	Control	0.6415000000000001	n/a	No	2.627	n/a	n/a	LatePress	0	0.0	n/a	3	52	ISIslide	Neutral	True
503.717	0.25	Win2	0.6481	0.0	Yes	2.933	0.017	n/a	GoodResponse	1	n/a	n/a	4	53	Cue	Win	True
503.967	4.05	Win2	0.6481	0.0	Yes	2.933	0.0	n/a	GoodResponse	1	n/a	n/a	4	53	Fixation	Win	True
508.013	0.18	Win2	0.6481	0.004	Yes	2.933	-0.004	3.0	GoodResponse	1	0.133	507.146	4	53	Target	Win	True
508.146	0.3	Win2	0.6481	0.004	Yes	2.933	-0.004	3.0	GoodResponse	1	0.133	n/a	4	53	ButtonPress	Win	True
508.197	0.52	Win2	0.6481	n/a	Yes	2.933	n/a	n/a	GoodResponse	1	n/a	n/a	4	53	Blank	Win	True
508.715	1.45	Win2	0.6481	n/a	Yes	2.933	n/a	5.0	GoodResponse	1	0.039	507.754	4	53	Feedback	Win	True
510.169	2.933	Win2	0.6481	n/a	Yes	2.933	n/a	n/a	GoodResponse	1	0.0	n/a	4	53	ISIslide	Win	True
513.128	0.25	Win2	0.6545000000000001	0.0	Yes	2.722	0.028	n/a	GoodResponse	1	n/a	n/a	5	54	Cue	Win	True
513.379	3.95	Win2	0.6545000000000001	0.0	Yes	2.722	0.001	n/a	GoodResponse	1	n/a	n/a	5	54	Fixation	Win	True
517.324	0.19	Win2	0.6545000000000001	0.004	Yes	2.722	-0.004	3.0	GoodResponse	1	0.169	516.493	5	54	Target	Win	True
517.493	0.3	Win2	0.6545000000000001	0.004	Yes	2.722	-0.004	3.0	GoodResponse	1	0.169	n/a	5	54	ButtonPress	Win	True
517.525	0.51	Win2	0.6545000000000001	n/a	Yes	2.722	n/a	n/a	GoodResponse	1	n/a	n/a	5	54	Blank	Win	True
518.026	1.45	Win2	0.6545000000000001	n/a	Yes	2.722	n/a	5.0	GoodResponse	1	0.044	517.07	5	54	Feedback	Win	True
519.48	2.722	Win2	0.6545000000000001	n/a	Yes	2.722	n/a	n/a	GoodResponse	1	0.0	n/a	5	54	ISIslide	Win	True
522.222	0.25	Control	0.6607	0.0	Yes	3.028	0.022	n/a	GoodResponse	0	n/a	n/a	5	55	Cue	Neutral	True
522.473	3.95	Control	0.6607	0.0	Yes	3.028	0.001	n/a	GoodResponse	0	n/a	n/a	5	55	Fixation	Neutral	True
526.418	0.2	Control	0.6607	0.004	Yes	3.028	-0.004	3.0	GoodResponse	0	0.166	525.584	5	55	Target	Neutral	True
526.584	0.3	Control	0.6607	0.004	Yes	3.028	-0.004	3.0	GoodResponse	0	0.166	n/a	5	55	ButtonPress	Neutral	True
526.619	0.5	Control	0.6607	n/a	Yes	3.028	n/a	n/a	GoodResponse	0	n/a	n/a	5	55	Blank	Neutral	True
527.12	1.45	Control	0.6607	n/a	Yes	3.028	n/a	5.0	GoodResponse	0	0.023	526.143	5	55	Feedback	Neutral	True
528.574	3.028	Control	0.6607	n/a	Yes	3.028	n/a	n/a	GoodResponse	0	0.0	n/a	5	55	ISIslide	Neutral	True
531.617	0.25	Control	0.6667000000000001	0.0	Yes	2.833	0.017	n/a	GoodResponse	0	n/a	n/a	5	56	Cue	Neutral	True
531.868	3.95	Control	0.6667000000000001	0.0	Yes	2.833	0.001	n/a	GoodResponse	0	n/a	n/a	5	56	Fixation	Neutral	True
535.813	0.2	Control	0.6667000000000001	0.004	Yes	2.833	-0.004	3.0	GoodResponse	0	0.196	535.009	5	56	Target	Neutral	True
536.009	0.3	Control	0.6667000000000001	0.004	Yes	2.833	-0.004	3.0	GoodResponse	0	0.196	n/a	5	56	ButtonPress	Neutral	True
536.013	0.5	Control	0.6667000000000001	n/a	Yes	2.833	n/a	n/a	GoodResponse	0	n/a	n/a	5	56	Blank	Neutral	True
536.515	1.45	Control	0.6667000000000001	n/a	Yes	2.833	n/a	5.0	GoodResponse	0	0.043	535.558	5	56	Feedback	Neutral	True
537.969	2.833	Control	0.6667000000000001	n/a	Yes	2.833	n/a	n/a	GoodResponse	0	0.0	n/a	5	56	ISIslide	Neutral	True
540.828	0.25	Control	0.6724	0.0	Yes	3.472	0.028	n/a	GoodResponse	0	n/a	n/a	5	57	Cue	Neutral	True
541.079	4.0	Control	0.6724	0.0	Yes	3.472	0.001	n/a	GoodResponse	0	n/a	n/a	5	57	Fixation	Neutral	True
545.074	0.19	Control	0.6724	0.004	Yes	3.472	-0.004	3.0	GoodResponse	0	0.17	544.244	5	57	Target	Neutral	True
545.244	0.3	Control	0.6724	0.004	Yes	3.472	-0.004	3.0	GoodResponse	0	0.17	n/a	5	57	ButtonPress	Neutral	True
545.274	0.51	Control	0.6724	n/a	Yes	3.472	n/a	n/a	GoodResponse	0	n/a	n/a	5	57	Blank	Neutral	True
545.776	1.45	Control	0.6724	n/a	Yes	3.472	n/a	5.0	GoodResponse	0	0.001	544.777	5	57	Feedback	Neutral	True
547.23	3.472	Control	0.6724	n/a	Yes	3.472	n/a	n/a	GoodResponse	0	0.0	n/a	5	57	ISIslide	Neutral	True
550.724	0.25	Win2	0.6779999999999999	0.0	Yes	2.726	0.024	n/a	GoodResponse	1	n/a	n/a	6	58	Cue	Win	True
550.975	4.05	Win2	0.6779999999999999	0.0	Yes	2.726	0.001	n/a	GoodResponse	1	n/a	n/a	6	58	Fixation	Win	True
555.02	0.18	Win2	0.6779999999999999	0.004	Yes	2.726	-0.004	3.0	GoodResponse	1	0.168	554.188	6	58	Target	Win	True
555.188	0.3	Win2	0.6779999999999999	0.004	Yes	2.726	-0.004	3.0	GoodResponse	1	0.168	n/a	6	58	ButtonPress	Win	True
555.204	0.52	Win2	0.6779999999999999	n/a	Yes	2.726	n/a	n/a	GoodResponse	1	n/a	n/a	6	58	Blank	Win	True
555.722	1.45	Win2	0.6779999999999999	n/a	Yes	2.726	n/a	5.0	GoodResponse	1	0.007	554.729	6	58	Feedback	Win	True
557.177	2.726	Win2	0.6779999999999999	n/a	Yes	2.726	n/a	n/a	GoodResponse	1	0.0	n/a	6	58	ISIslide	Win	True
559.918	0.25	Lose2	0.6833	0.0	Yes	2.682	0.018	n/a	GoodResponse	0	n/a	n/a	6	59	Cue	AvoidedLoss	True
560.169	4.0	Lose2	0.6833	0.0	Yes	2.682	0.001	n/a	GoodResponse	0	n/a	n/a	6	59	Fixation	AvoidedLoss	True
564.164	0.17	Lose2	0.6833	0.004	Yes	2.682	-0.004	3.0	GoodResponse	0	0.153	563.317	6	59	Target	AvoidedLoss	True
564.317	0.3	Lose2	0.6833	0.004	Yes	2.682	-0.004	3.0	GoodResponse	0	0.153	n/a	6	59	ButtonPress	AvoidedLoss	True
564.348	0.53	Lose2	0.6833	n/a	Yes	2.682	n/a	n/a	GoodResponse	0	n/a	n/a	6	59	Blank	AvoidedLoss	True
564.866	1.45	Lose2	0.6833	n/a	Yes	2.682	n/a	5.0	GoodResponse	0	0.034	563.9	6	59	Feedback	AvoidedLoss	True
566.321	2.682	Lose2	0.6833	n/a	Yes	2.682	n/a	n/a	GoodResponse	0	0.0	n/a	6	59	ISIslide	AvoidedLoss	True
569.029	0.25	Control	0.6720999999999999	0.0	No	2.671	0.029	n/a	NoResponse	0	n/a	n/a	6	60	Cue	Neutral	True
569.28	4.0	Control	0.6720999999999999	0.0	No	2.671	0.001	n/a	NoResponse	0	n/a	n/a	6	60	Fixation	Neutral	True
573.275	0.16	Control	0.6720999999999999	0.004	No	2.671	-0.004	3.0	NoResponse	0	0.216	572.491	6	60	Target	Neutral	True
573.442	0.54	Control	0.6720999999999999	n/a	No	2.671	n/a	n/a	NoResponse	0	n/a	n/a	6	60	Blank	Neutral	True
573.491	0.3	Control	0.6720999999999999	0.004	No	2.671	-0.004	3.0	NoResponse	0	0.216	n/a	6	60	ButtonPress	Neutral	True
573.977	1.45	Control	0.6720999999999999	n/a	No	2.671	n/a	5.0	NoResponse	0	0.044	573.021	6	60	Feedback	Neutral	True
575.431	2.671	Control	0.6720999999999999	n/a	No	2.671	n/a	n/a	NoResponse	0	0.0	n/a	6	60	ISIslide	Neutral	True
578.123	0.25	Lose2	0.6613	0.0	No	2.977	0.023	n/a	NoResponse	-1	n/a	n/a	5	61	Cue	Loss	True
578.374	4.0	Lose2	0.6613	0.0	No	2.977	0.001	n/a	NoResponse	-1	n/a	n/a	5	61	Fixation	Loss	True
582.369	0.15	Lose2	0.6613	0.004	No	2.977	-0.004	3.0	NoResponse	-1	0.169	581.538	5	61	Target	Loss	True
582.519	0.55	Lose2	0.6613	n/a	No	2.977	n/a	n/a	NoResponse	-1	n/a	n/a	5	61	Blank	Loss	True
582.538	0.3	Lose2	0.6613	0.004	No	2.977	-0.004	3.0	NoResponse	-1	0.169	n/a	5	61	ButtonPress	Loss	True
583.071	1.45	Lose2	0.6613	n/a	No	2.977	n/a	5.0	NoResponse	-1	0.023	582.094	5	61	Feedback	Loss	True
584.525	2.977	Lose2	0.6613	n/a	No	2.977	n/a	n/a	NoResponse	-1	0.0	n/a	5	61	ISIslide	Loss	True
587.518	0.25	Lose2	0.6507999999999999	0.0	No	2.882	0.018	n/a	NoResponse	-1	n/a	n/a	4	62	Cue	Loss	True
587.768	3.9	Lose2	0.6507999999999999	0.001	No	2.882	0.0	n/a	NoResponse	-1	n/a	n/a	4	62	Fixation	Loss	True
591.663	0.15	Lose2	0.6507999999999999	0.005	No	2.882	-0.005	3.0	NoResponse	-1	0.162	590.825	4	62	Target	Loss	True
591.814	0.55	Lose2	0.6507999999999999	n/a	No	2.882	n/a	n/a	NoResponse	-1	n/a	n/a	4	62	Blank	Loss	True
591.825	0.3	Lose2	0.6507999999999999	0.005	No	2.882	-0.005	3.0	NoResponse	-1	0.162	n/a	4	62	ButtonPress	Loss	True
592.366	1.45	Lose2	0.6507999999999999	n/a	No	2.882	n/a	5.0	NoResponse	-1	0.045	591.411	4	62	Feedback	Loss	True
593.82	2.882	Lose2	0.6507999999999999	n/a	No	2.882	n/a	n/a	NoResponse	-1	0.0	n/a	4	62	ISIslide	Loss	True
596.729	0.25	Lose2	0.6562	0.0	Yes	2.621	0.029	n/a	GoodResponse	0	n/a	n/a	4	63	Cue	AvoidedLoss	True
596.979	4.05	Lose2	0.6562	0.0	Yes	2.621	0.0	n/a	GoodResponse	0	n/a	n/a	4	63	Fixation	AvoidedLoss	True
601.025	0.16	Lose2	0.6562	0.004	Yes	2.621	-0.004	3.0	GoodResponse	0	0.153	600.178	4	63	Target	AvoidedLoss	True
601.178	0.3	Lose2	0.6562	0.004	Yes	2.621	-0.004	3.0	GoodResponse	0	0.153	n/a	4	63	ButtonPress	AvoidedLoss	True
601.192	0.54	Lose2	0.6562	n/a	Yes	2.621	n/a	n/a	GoodResponse	0	n/a	n/a	4	63	Blank	AvoidedLoss	True
601.727	1.45	Lose2	0.6562	n/a	Yes	2.621	n/a	5.0	GoodResponse	0	0.001	600.728	4	63	Feedback	AvoidedLoss	True
603.181	2.621	Lose2	0.6562	n/a	Yes	2.621	n/a	n/a	GoodResponse	0	0.0	n/a	4	63	ISIslide	AvoidedLoss	True
605.823	0.25	Win2	0.6462	0.0	No	3.127	0.023	n/a	LatePress	0	n/a	n/a	4	64	Cue	MissedWin	True
606.073	4.15	Win2	0.6462	0.0	No	3.127	0.0	n/a	LatePress	0	n/a	n/a	4	64	Fixation	MissedWin	True
610.219	0.16	Win2	0.6462	0.004	No	3.127	-0.004	3.0	LatePress	0	0.167	609.386	4	64	Target	MissedWin	True
610.386	0.54	Win2	0.6462	n/a	No	3.127	n/a	n/a	LatePress	0	n/a	n/a	4	64	Blank	MissedWin	True
610.386	0.3	Win2	0.6462	0.004	No	3.127	-0.004	3.0	LatePress	0	0.167	n/a	4	64	ButtonPress	MissedWin	True
610.921	1.45	Win2	0.6462	n/a	No	3.127	n/a	5.0	LatePress	0	0.027	609.948	4	64	Feedback	MissedWin	True
612.376	3.127	Win2	0.6462	n/a	No	3.127	n/a	n/a	LatePress	0	0.0	n/a	4	64	ISIslide	MissedWin	True
615.518	0.25	Control	0.6364	0.0	No	2.782	0.018	n/a	LatePress	0	n/a	n/a	4	65	Cue	Neutral	True
615.769	4.0	Control	0.6364	0.0	No	2.782	0.001	n/a	LatePress	0	n/a	n/a	4	65	Fixation	Neutral	True
619.764	0.17	Control	0.6364	0.004	No	2.782	-0.004	3.0	LatePress	0	0.171	618.935	4	65	Target	Neutral	True
619.935	0.3	Control	0.6364	0.004	No	2.782	-0.004	3.0	LatePress	0	0.171	n/a	4	65	ButtonPress	Neutral	True
619.948	0.53	Control	0.6364	n/a	No	2.782	n/a	n/a	LatePress	0	n/a	n/a	4	65	Blank	Neutral	True
620.466	1.45	Control	0.6364	n/a	No	2.782	n/a	5.0	LatePress	0	0.043	619.509	4	65	Feedback	Neutral	True
621.921	2.782	Control	0.6364	n/a	No	2.782	n/a	n/a	LatePress	0	0.0	n/a	4	65	ISIslide	Neutral	True
624.729	0.25	Win2	0.6418	0.0	Yes	2.771	0.029	n/a	GoodResponse	1	n/a	n/a	5	66	Cue	Win	True
624.98	3.9	Win2	0.6418	0.0	Yes	2.771	0.001	n/a	GoodResponse	1	n/a	n/a	5	66	Fixation	Win	True
628.875	0.18	Win2	0.6418	0.004	Yes	2.771	-0.004	3.0	GoodResponse	1	0.174	628.049	5	66	Target	Win	True
629.049	0.3	Win2	0.6418	0.004	Yes	2.771	-0.004	3.0	GoodResponse	1	0.174	n/a	5	66	ButtonPress	Win	True
629.059	0.52	Win2	0.6418	n/a	Yes	2.771	n/a	n/a	GoodResponse	1	n/a	n/a	5	66	Blank	Win	True
629.577	1.45	Win2	0.6418	n/a	Yes	2.771	n/a	5.0	GoodResponse	1	0.007	628.584	5	66	Feedback	Win	True
631.031	2.771	Win2	0.6418	n/a	Yes	2.771	n/a	n/a	GoodResponse	1	0.0	n/a	5	66	ISIslide	Win	True
633.823	0.25	Control	0.6470999999999999	0.0	Yes	2.727	0.023	n/a	GoodResponse	0	n/a	n/a	5	67	Cue	Neutral	True
634.074	3.95	Control	0.6470999999999999	0.0	Yes	2.727	0.001	n/a	GoodResponse	0	n/a	n/a	5	67	Fixation	Neutral	True
638.019	0.19	Control	0.6470999999999999	0.004	Yes	2.727	-0.004	3.0	GoodResponse	0	0.185	637.204	5	67	Target	Neutral	True
638.204	0.3	Control	0.6470999999999999	0.004	Yes	2.727	-0.004	3.0	GoodResponse	0	0.185	n/a	5	67	ButtonPress	Neutral	True
638.22	0.51	Control	0.6470999999999999	n/a	Yes	2.727	n/a	n/a	GoodResponse	0	n/a	n/a	5	67	Blank	Neutral	True
638.721	1.45	Control	0.6470999999999999	n/a	Yes	2.727	n/a	5.0	GoodResponse	0	0.031	637.752	5	67	Feedback	Neutral	True
640.175	2.727	Control	0.6470999999999999	n/a	Yes	2.727	n/a	n/a	GoodResponse	0	0.0	n/a	5	67	ISIslide	Neutral	True
642.917	0.25	Win2	0.6522	0.0	Yes	3.083	0.017	n/a	GoodResponse	1	n/a	n/a	6	68	Cue	Win	True
643.168	4.0	Win2	0.6522	0.0	Yes	3.083	0.001	n/a	GoodResponse	1	n/a	n/a	6	68	Fixation	Win	True
647.163	0.2	Win2	0.6522	0.004	Yes	3.083	-0.004	3.0	GoodResponse	1	0.168	646.331	6	68	Target	Win	True
647.331	0.3	Win2	0.6522	0.004	Yes	3.083	-0.004	3.0	GoodResponse	1	0.168	n/a	6	68	ButtonPress	Win	True
647.364	0.5	Win2	0.6522	n/a	Yes	3.083	n/a	n/a	GoodResponse	1	n/a	n/a	6	68	Blank	Win	True
647.865	1.45	Win2	0.6522	n/a	Yes	3.083	n/a	5.0	GoodResponse	1	0.009	646.874	6	68	Feedback	Win	True
649.32	3.083	Win2	0.6522	n/a	Yes	3.083	n/a	n/a	GoodResponse	1	0.0	n/a	6	68	ISIslide	Win	True
652.429	0.25	Win2	0.6570999999999999	0.0	Yes	3.221	0.029	n/a	GoodResponse	1	n/a	n/a	7	69	Cue	Win	True
652.68	3.95	Win2	0.6570999999999999	0.0	Yes	3.221	0.001	n/a	GoodResponse	1	n/a	n/a	7	69	Fixation	Win	True
656.625	0.21	Win2	0.6570999999999999	0.004	Yes	3.221	-0.004	3.0	GoodResponse	1	0.178	655.803	7	69	Target	Win	True
656.803	0.3	Win2	0.6570999999999999	0.004	Yes	3.221	-0.004	3.0	GoodResponse	1	0.178	n/a	7	69	ButtonPress	Win	True
656.842	0.49	Win2	0.6570999999999999	n/a	Yes	3.221	n/a	n/a	GoodResponse	1	n/a	n/a	7	69	Blank	Win	True
657.327	1.45	Win2	0.6570999999999999	n/a	Yes	3.221	n/a	5.0	GoodResponse	1	0.011	656.338	7	69	Feedback	Win	True
658.781	3.221	Win2	0.6570999999999999	n/a	Yes	3.221	n/a	n/a	GoodResponse	1	0.0	n/a	7	69	ISIslide	Win	True
662.024	0.25	Lose2	0.662	0.0	Yes	3.026	0.024	n/a	GoodResponse	0	n/a	n/a	7	70	Cue	AvoidedLoss	True
662.275	4.05	Lose2	0.662	0.0	Yes	3.026	0.001	n/a	GoodResponse	0	n/a	n/a	7	70	Fixation	AvoidedLoss	True
666.32	0.21	Lose2	0.662	0.004	Yes	3.026	-0.004	3.0	GoodResponse	0	0.162	665.482	7	70	Target	AvoidedLoss	True
666.482	0.3	Lose2	0.662	0.004	Yes	3.026	-0.004	3.0	GoodResponse	0	0.162	n/a	7	70	ButtonPress	AvoidedLoss	True
666.538	0.49	Lose2	0.662	n/a	Yes	3.026	n/a	n/a	GoodResponse	0	n/a	n/a	7	70	Blank	AvoidedLoss	True
667.023	1.45	Lose2	0.662	n/a	Yes	3.026	n/a	5.0	GoodResponse	0	0.022	666.045	7	70	Feedback	AvoidedLoss	True
668.477	3.026	Lose2	0.662	n/a	Yes	3.026	n/a	n/a	GoodResponse	0	0.0	n/a	7	70	ISIslide	AvoidedLoss	True
671.519	0.25	Win2	0.6667000000000001	0.0	Yes	2.731	0.019	n/a	GoodResponse	1	n/a	n/a	8	71	Cue	Win	True
671.77	4.05	Win2	0.6667000000000001	0.0	Yes	2.731	0.001	n/a	GoodResponse	1	n/a	n/a	8	71	Fixation	Win	True
675.816	0.21	Win2	0.6667000000000001	0.003	Yes	2.731	-0.003	3.0	GoodResponse	1	0.169	674.985	8	71	Target	Win	True
675.985	0.3	Win2	0.6667000000000001	0.003	Yes	2.731	-0.003	3.0	GoodResponse	1	0.169	n/a	8	71	ButtonPress	Win	True
676.033	0.49	Win2	0.6667000000000001	n/a	Yes	2.731	n/a	n/a	GoodResponse	1	n/a	n/a	8	71	Blank	Win	True
676.518	1.45	Win2	0.6667000000000001	n/a	Yes	2.731	n/a	5.0	GoodResponse	1	0.039	675.557	8	71	Feedback	Win	True
677.972	2.731	Win2	0.6667000000000001	n/a	Yes	2.731	n/a	n/a	GoodResponse	1	0.0	n/a	8	71	ISIslide	Win	True
680.73	0.25	Win2	0.6712	0.0	Yes	2.77	0.03	n/a	GoodResponse	1	n/a	n/a	9	72	Cue	Win	True
680.981	4.1	Win2	0.6712	0.0	Yes	2.77	0.001	n/a	GoodResponse	1	n/a	n/a	9	72	Fixation	Win	True
685.077	0.2	Win2	0.6712	0.003	Yes	2.77	-0.003	3.0	GoodResponse	1	0.188	684.265	9	72	Target	Win	True
685.265	0.3	Win2	0.6712	0.003	Yes	2.77	-0.003	3.0	GoodResponse	1	0.188	n/a	9	72	ButtonPress	Win	True
685.277	0.5	Win2	0.6712	n/a	Yes	2.77	n/a	n/a	GoodResponse	1	n/a	n/a	9	72	Blank	Win	True
685.779	1.45	Win2	0.6712	n/a	Yes	2.77	n/a	5.0	GoodResponse	1	0.047	684.826	9	72	Feedback	Win	True
687.233	2.77	Win2	0.6712	n/a	Yes	2.77	n/a	n/a	GoodResponse	1	0.0	n/a	9	72	ISIslide	Win	True
690.025	0.25	Win2	0.6622	0.0	No	2.675	0.025	n/a	LatePress	0	n/a	n/a	9	73	Cue	MissedWin	True
690.276	4.0	Win2	0.6622	0.0	No	2.675	0.001	n/a	LatePress	0	n/a	n/a	9	73	Fixation	MissedWin	True
694.271	0.19	Win2	0.6622	0.004	No	2.675	-0.004	3.0	LatePress	0	0.197	693.468	9	73	Target	MissedWin	True
694.468	0.3	Win2	0.6622	0.004	No	2.675	-0.004	3.0	LatePress	0	0.197	n/a	9	73	ButtonPress	MissedWin	True
694.472	0.51	Win2	0.6622	n/a	No	2.675	n/a	n/a	LatePress	0	n/a	n/a	9	73	Blank	MissedWin	True
694.973	1.45	Win2	0.6622	n/a	No	2.675	n/a	5.0	LatePress	0	0.023	693.996	9	73	Feedback	MissedWin	True
696.427	2.675	Win2	0.6622	n/a	No	2.675	n/a	n/a	LatePress	0	0.0	n/a	9	73	ISIslide	MissedWin	True
699.119	0.25	Lose2	0.6667000000000001	0.0	Yes	2.631	0.019	n/a	GoodResponse	0	n/a	n/a	9	74	Cue	AvoidedLoss	True
699.369	4.05	Lose2	0.6667000000000001	0.001	Yes	2.631	0.0	n/a	GoodResponse	0	n/a	n/a	9	74	Fixation	AvoidedLoss	True
703.415	0.19	Lose2	0.6667000000000001	0.004	Yes	2.631	-0.004	3.0	GoodResponse	0	0.165	702.58	9	74	Target	AvoidedLoss	True
703.58	0.3	Lose2	0.6667000000000001	0.004	Yes	2.631	-0.004	3.0	GoodResponse	0	0.165	n/a	9	74	ButtonPress	AvoidedLoss	True
703.616	0.51	Lose2	0.6667000000000001	n/a	Yes	2.631	n/a	n/a	GoodResponse	0	n/a	n/a	9	74	Blank	AvoidedLoss	True
704.117	1.45	Lose2	0.6667000000000001	n/a	Yes	2.631	n/a	5.0	GoodResponse	0	0.001	703.118	9	74	Feedback	AvoidedLoss	True
705.571	2.631	Lose2	0.6667000000000001	n/a	Yes	2.631	n/a	n/a	GoodResponse	0	0.0	n/a	9	74	ISIslide	AvoidedLoss	True
708.229	0.25	Lose2	0.6711	0.0	Yes	2.921	0.029	n/a	GoodResponse	0	n/a	n/a	9	75	Cue	AvoidedLoss	True
708.48	3.95	Lose2	0.6711	0.0	Yes	2.921	0.001	n/a	GoodResponse	0	n/a	n/a	9	75	Fixation	AvoidedLoss	True
712.425	0.18	Lose2	0.6711	0.004	Yes	2.921	-0.004	3.0	GoodResponse	0	0.158	711.583	9	75	Target	AvoidedLoss	True
712.583	0.3	Lose2	0.6711	0.004	Yes	2.921	-0.004	3.0	GoodResponse	0	0.158	n/a	9	75	ButtonPress	AvoidedLoss	True
712.609	0.52	Lose2	0.6711	n/a	Yes	2.921	n/a	n/a	GoodResponse	0	n/a	n/a	9	75	Blank	AvoidedLoss	True
713.127	1.45	Lose2	0.6711	n/a	Yes	2.921	n/a	5.0	GoodResponse	0	0.015	712.142	9	75	Feedback	AvoidedLoss	True
714.582	2.921	Lose2	0.6711	n/a	Yes	2.921	n/a	n/a	GoodResponse	0	0.0	n/a	9	75	ISIslide	AvoidedLoss	True
717.524	0.25	Control	0.6753	0.0	Yes	3.226	0.024	n/a	GoodResponse	0	n/a	n/a	9	76	Cue	Neutral	True
717.775	4.05	Control	0.6753	0.0	Yes	3.226	0.001	n/a	GoodResponse	0	n/a	n/a	9	76	Fixation	Neutral	True
721.82	0.17	Control	0.6753	0.004	Yes	3.226	-0.004	3.0	GoodResponse	0	0.165	720.985	9	76	Target	Neutral	True
721.985	0.3	Control	0.6753	0.004	Yes	3.226	-0.004	3.0	GoodResponse	0	0.165	n/a	9	76	ButtonPress	Neutral	True
722.004	0.53	Control	0.6753	n/a	Yes	3.226	n/a	n/a	GoodResponse	0	n/a	n/a	9	76	Blank	Neutral	True
722.522	1.45	Control	0.6753	n/a	Yes	3.226	n/a	5.0	GoodResponse	0	0.035	721.557	9	76	Feedback	Neutral	True
723.977	3.226	Control	0.6753	n/a	Yes	3.226	n/a	n/a	GoodResponse	0	0.0	n/a	9	76	ISIslide	Neutral	True
727.22	0.25	Lose2	0.6667000000000001	0.0	No	2.58	0.02	n/a	NoResponse	-1	n/a	n/a	8	77	Cue	Loss	True
727.47	3.95	Lose2	0.6667000000000001	0.0	No	2.58	0.0	n/a	NoResponse	-1	n/a	n/a	8	77	Fixation	Loss	True
731.416	0.16	Lose2	0.6667000000000001	0.004	No	2.58	-0.004	3.0	NoResponse	-1	0.174	730.59	8	77	Target	Loss	True
731.583	0.54	Lose2	0.6667000000000001	n/a	No	2.58	n/a	n/a	NoResponse	-1	n/a	n/a	8	77	Blank	Loss	True
731.59	0.3	Lose2	0.6667000000000001	0.004	No	2.58	-0.004	3.0	NoResponse	-1	0.174	n/a	8	77	ButtonPress	Loss	True
732.118	1.45	Lose2	0.6667000000000001	n/a	No	2.58	n/a	5.0	NoResponse	-1	0.0	731.118	8	77	Feedback	Loss	True
733.572	2.58	Lose2	0.6667000000000001	n/a	No	2.58	n/a	n/a	NoResponse	-1	0.0	n/a	8	77	ISIslide	Loss	True
