onset	duration	cue_type	current_mean_accuracy	duration_error	is_hit	isi_adjusted	onset_delay	response	response_type	reward	rt	rt_time	total_reward	trial_number	trial_phase	trial_type	one_press
11.103	0.25	Control	1.0	0.0	Yes	2.947	0.003	n/a	GoodResponse	0	n/a	n/a	0	0	Cue	Neutral	True
11.354	3.85	Control	1.0	0.0	Yes	2.947	0.001	n/a	GoodResponse	0	n/a	n/a	0	0	Fixation	Neutral	True
15.215	0.4	Control	1.0	0.0	Yes	2.947	0.012	2.0	GoodResponse	0	0.234	14.449	0	0	Target	Neutral	True
15.449	0.3	Control	1.0	0.0	Yes	2.947	0.012	2.0	GoodResponse	0	0.234	n/a	0	0	ButtonPress	Neutral	True
15.6	0.3	Control	1.0	n/a	Yes	2.947	n/a	n/a	GoodResponse	0	n/a	n/a	0	0	Blank	Neutral	True
15.901	1.45	Control	1.0	n/a	Yes	2.947	n/a	5.0	GoodResponse	0	0.025	14.926	0	0	Feedback	Neutral	True
17.355	2.947	Control	1.0	n/a	Yes	2.947	n/a	n/a	GoodResponse	0	0.0	n/a	0	0	ISIslide	Neutral	True
20.33	0.25	Lose2	1.0	0.001	Yes	2.77	0.03	n/a	GoodResponse	0	n/a	n/a	0	1	Cue	AvoidedLoss	True
20.581	4.0	Lose2	1.0	0.0	Yes	2.77	0.001	n/a	GoodResponse	0	n/a	n/a	0	1	Fixation	AvoidedLoss	True
24.577	0.39	Lose2	1.0	0.003	Yes	2.77	-0.003	2.0	GoodResponse	0	0.207	23.784	0	1	Target	AvoidedLoss	True
24.784	0.3	Lose2	1.0	0.003	Yes	2.77	-0.003	2.0	GoodResponse	0	0.207	n/a	0	1	ButtonPress	AvoidedLoss	True
24.978	0.31	Lose2	1.0	n/a	Yes	2.77	n/a	n/a	GoodResponse	0	n/a	n/a	0	1	Blank	AvoidedLoss	True
25.279	1.45	Lose2	1.0	n/a	Yes	2.77	n/a	5.0	GoodResponse	0	0.013	24.292	0	1	Feedback	AvoidedLoss	True
26.733	2.77	Lose2	1.0	n/a	Yes	2.77	n/a	n/a	GoodResponse	0	0.0	n/a	0	1	ISIslide	AvoidedLoss	True
29.525	0.25	Control	1.0	0.0	Yes	2.575	0.025	n/a	GoodResponse	0	n/a	n/a	0	2	Cue	Neutral	True
29.775	4.1	Control	1.0	0.001	Yes	2.575	0.0	n/a	GoodResponse	0	n/a	n/a	0	2	Fixation	Neutral	True
33.871	0.38	Control	1.0	0.004	Yes	2.575	-0.004	2.0	GoodResponse	0	0.217	33.088	0	2	Target	Neutral	True
34.088	0.3	Control	1.0	0.004	Yes	2.575	-0.004	2.0	GoodResponse	0	0.217	n/a	0	2	ButtonPress	Neutral	True
34.256	0.32	Control	1.0	n/a	Yes	2.575	n/a	n/a	GoodResponse	0	n/a	n/a	0	2	Blank	Neutral	True
34.573	1.45	Control	1.0	n/a	Yes	2.575	n/a	5.0	GoodResponse	0	0.037	33.61	0	2	Feedback	Neutral	True
36.028	2.575	Control	1.0	n/a	Yes	2.575	n/a	n/a	GoodResponse	0	0.0	n/a	0	2	ISIslide	Neutral	True
38.619	0.25	Win2	1.0	0.0	Yes	2.831	0.019	n/a	GoodResponse	1	n/a	n/a	1	3	Cue	Win	True
38.869	3.95	Win2	1.0	0.0	Yes	2.831	0.0	n/a	GoodResponse	1	n/a	n/a	1	3	Fixation	Win	True
42.815	0.37	Win2	1.0	0.004	Yes	2.831	-0.004	2.0	GoodResponse	1	0.211	42.026	1	3	Target	Win	True
43.026	0.3	Win2	1.0	0.004	Yes	2.831	-0.004	2.0	GoodResponse	1	0.211	n/a	1	3	ButtonPress	Win	True
43.199	0.33	Win2	1.0	n/a	Yes	2.831	n/a	n/a	GoodResponse	1	n/a	n/a	1	3	Blank	Win	True
43.517	1.45	Win2	1.0	n/a	Yes	2.831	n/a	5.0	GoodResponse	1	0.019	42.536	1	3	Feedback	Win	True
44.971	2.831	Win2	1.0	n/a	Yes	2.831	n/a	n/a	GoodResponse	1	0.0	n/a	1	3	ISIslide	Win	True
47.83	0.25	Win2	1.0	0.0	Yes	3.27	0.03	n/a	GoodResponse	1	n/a	n/a	2	4	Cue	Win	True
48.08	4.0	Win2	1.0	0.0	Yes	3.27	0.0	n/a	GoodResponse	1	n/a	n/a	2	4	Fixation	Win	True
52.076	0.36	Win2	1.0	0.004	Yes	3.27	-0.004	2.0	GoodResponse	1	0.358	51.434	2	4	Target	Win	True
52.434	0.3	Win2	1.0	0.004	Yes	3.27	-0.004	2.0	GoodResponse	1	0.358	n/a	2	4	ButtonPress	Win	True
52.443	0.34	Win2	1.0	n/a	Yes	3.27	n/a	n/a	GoodResponse	1	n/a	n/a	2	4	Blank	Win	True
52.778	1.45	Win2	1.0	n/a	Yes	3.27	n/a	5.0	GoodResponse	1	0.026	51.804	2	4	Feedback	Win	True
54.232	3.27	Win2	1.0	n/a	Yes	3.27	n/a	n/a	GoodResponse	1	0.0	n/a	2	4	ISIslide	Win	True
57.525	0.25	Win2	1.0	0.0	Yes	2.775	0.025	n/a	GoodResponse	1	n/a	n/a	3	5	Cue	Win	True
57.776	4.0	Win2	1.0	0.0	Yes	2.775	0.001	n/a	GoodResponse	1	n/a	n/a	3	5	Fixation	Win	True
61.771	0.35	Win2	1.0	0.004	Yes	2.775	-0.004	2.0	GoodResponse	1	0.278	61.049	3	5	Target	Win	True
62.049	0.3	Win2	1.0	0.004	Yes	2.775	-0.004	2.0	GoodResponse	1	0.278	n/a	3	5	ButtonPress	Win	True
62.122	0.35	Win2	1.0	n/a	Yes	2.775	n/a	n/a	GoodResponse	1	n/a	n/a	3	5	Blank	Win	True
62.473	1.45	Win2	1.0	n/a	Yes	2.775	n/a	5.0	GoodResponse	1	0.038	61.511	3	5	Feedback	Win	True
63.928	2.775	Win2	1.0	n/a	Yes	2.775	n/a	n/a	GoodResponse	1	0.0	n/a	3	5	ISIslide	Win	True
66.72	0.25	Lose2	1.0	0.0	Yes	2.73	0.02	n/a	GoodResponse	0	n/a	n/a	3	6	Cue	AvoidedLoss	True
66.97	3.95	Lose2	1.0	0.0	Yes	2.73	0.0	n/a	GoodResponse	0	n/a	n/a	3	6	Fixation	AvoidedLoss	True
70.932	0.34	Lose2	1.0	0.0	Yes	2.73	0.012	2.0	GoodResponse	0	0.212	70.144	3	6	Target	AvoidedLoss	True
71.144	0.3	Lose2	1.0	0.0	Yes	2.73	0.012	2.0	GoodResponse	0	0.212	n/a	3	6	ButtonPress	AvoidedLoss	True
71.266	0.36	Lose2	1.0	n/a	Yes	2.73	n/a	n/a	GoodResponse	0	n/a	n/a	3	6	Blank	AvoidedLoss	True
71.618	1.45	Lose2	1.0	n/a	Yes	2.73	n/a	5.0	GoodResponse	0	0.015	70.633	3	6	Feedback	AvoidedLoss	True
73.072	2.73	Lose2	1.0	n/a	Yes	2.73	n/a	n/a	GoodResponse	0	0.0	n/a	3	6	ISIslide	AvoidedLoss	True
75.83	0.25	Lose2	1.0	0.0	Yes	4.02	0.03	n/a	GoodResponse	0	n/a	n/a	3	7	Cue	AvoidedLoss	True
76.081	4.05	Lose2	1.0	0.0	Yes	4.02	0.001	n/a	GoodResponse	0	n/a	n/a	3	7	Fixation	AvoidedLoss	True
80.126	0.33	Lose2	1.0	0.004	Yes	4.02	-0.004	2.0	GoodResponse	0	0.214	79.34	3	7	Target	AvoidedLoss	True
80.34	0.3	Lose2	1.0	0.004	Yes	4.02	-0.004	2.0	GoodResponse	0	0.214	n/a	3	7	ButtonPress	AvoidedLoss	True
80.461	0.37	Lose2	1.0	n/a	Yes	4.02	n/a	n/a	GoodResponse	0	n/a	n/a	3	7	Blank	AvoidedLoss	True
80.828	1.45	Lose2	1.0	n/a	Yes	4.02	n/a	5.0	GoodResponse	0	0.025	79.853	3	7	Feedback	AvoidedLoss	True
82.283	4.02	Lose2	1.0	n/a	Yes	4.02	n/a	n/a	GoodResponse	0	0.0	n/a	3	7	ISIslide	AvoidedLoss	True
86.328	0.25	Lose2	1.0	0.0	Yes	3.022	0.028	n/a	GoodResponse	0	n/a	n/a	3	8	Cue	AvoidedLoss	True
86.579	3.95	Lose2	1.0	0.0	Yes	3.022	0.001	n/a	GoodResponse	0	n/a	n/a	3	8	Fixation	AvoidedLoss	True
90.524	0.32	Lose2	1.0	0.004	Yes	3.022	-0.004	2.0	GoodResponse	0	0.257	89.781	3	8	Target	AvoidedLoss	True
90.781	0.3	Lose2	1.0	0.004	Yes	3.022	-0.004	2.0	GoodResponse	0	0.257	n/a	3	8	ButtonPress	AvoidedLoss	True
90.858	0.38	Lose2	1.0	n/a	Yes	3.022	n/a	n/a	GoodResponse	0	n/a	n/a	3	8	Blank	AvoidedLoss	True
91.226	1.45	Lose2	1.0	n/a	Yes	3.022	n/a	5.0	GoodResponse	0	0.017	90.243	3	8	Feedback	AvoidedLoss	True
92.681	3.022	Lose2	1.0	n/a	Yes	3.022	n/a	n/a	GoodResponse	0	0.0	n/a	3	8	ISIslide	AvoidedLoss	True
95.723	0.25	Lose2	1.0	0.0	Yes	3.127	0.023	n/a	GoodResponse	0	n/a	n/a	3	9	Cue	AvoidedLoss	True
95.974	3.95	Lose2	1.0	0.0	Yes	3.127	0.001	n/a	GoodResponse	0	n/a	n/a	3	9	Fixation	AvoidedLoss	True
99.919	0.31	Lose2	1.0	0.004	Yes	3.127	-0.004	2.0	GoodResponse	0	0.212	99.131	3	9	Target	AvoidedLoss	True
100.131	0.3	Lose2	1.0	0.004	Yes	3.127	-0.004	2.0	GoodResponse	0	0.212	n/a	3	9	ButtonPress	AvoidedLoss	True
100.237	0.39	Lose2	1.0	n/a	Yes	3.127	n/a	n/a	GoodResponse	0	n/a	n/a	3	9	Blank	AvoidedLoss	True
100.621	1.45	Lose2	1.0	n/a	Yes	3.127	n/a	5.0	GoodResponse	0	0.037	99.658	3	9	Feedback	AvoidedLoss	True
102.075	3.127	Lose2	1.0	n/a	Yes	3.127	n/a	n/a	GoodResponse	0	0.0	n/a	3	9	ISIslide	AvoidedLoss	True
105.218	0.25	Control	1.0	0.0	Yes	3.282	0.018	n/a	GoodResponse	0	n/a	n/a	3	10	Cue	Neutral	True
105.469	4.0	Control	1.0	0.0	Yes	3.282	0.001	n/a	GoodResponse	0	n/a	n/a	3	10	Fixation	Neutral	True
109.464	0.3	Control	1.0	0.004	Yes	3.282	-0.004	2.0	GoodResponse	0	0.212	108.676	3	10	Target	Neutral	True
109.676	0.3	Control	1.0	0.004	Yes	3.282	-0.004	2.0	GoodResponse	0	0.212	n/a	3	10	ButtonPress	Neutral	True
109.765	0.4	Control	1.0	n/a	Yes	3.282	n/a	n/a	GoodResponse	0	n/a	n/a	3	10	Blank	Neutral	True
110.166	1.45	Control	1.0	n/a	Yes	3.282	n/a	5.0	GoodResponse	0	0.005	109.171	3	10	Feedback	Neutral	True
111.621	3.282	Control	1.0	n/a	Yes	3.282	n/a	n/a	GoodResponse	0	0.0	n/a	3	10	ISIslide	Neutral	True
114.931	0.25	Lose2	1.0	0.0	Yes	2.719	0.031	n/a	GoodResponse	0	n/a	n/a	3	11	Cue	AvoidedLoss	True
115.181	4.05	Lose2	1.0	0.0	Yes	2.719	0.0	n/a	GoodResponse	0	n/a	n/a	3	11	Fixation	AvoidedLoss	True
119.227	0.29	Lose2	1.0	0.004	Yes	2.719	-0.004	2.0	GoodResponse	0	0.255	118.482	3	11	Target	AvoidedLoss	True
119.482	0.3	Lose2	1.0	0.004	Yes	2.719	-0.004	2.0	GoodResponse	0	0.255	n/a	3	11	ButtonPress	AvoidedLoss	True
119.528	0.41	Lose2	1.0	n/a	Yes	2.719	n/a	n/a	GoodResponse	0	n/a	n/a	3	11	Blank	AvoidedLoss	True
119.929	1.45	Lose2	1.0	n/a	Yes	2.719	n/a	5.0	GoodResponse	0	0.045	118.974	3	11	Feedback	AvoidedLoss	True
121.383	2.719	Lose2	1.0	n/a	Yes	2.719	n/a	n/a	GoodResponse	0	0.0	n/a	3	11	ISIslide	AvoidedLoss	True
124.125	0.25	Control	1.0	0.0	Yes	2.975	0.025	n/a	GoodResponse	0	n/a	n/a	3	12	Cue	Neutral	True
124.376	3.9	Control	1.0	0.0	Yes	2.975	0.001	n/a	GoodResponse	0	n/a	n/a	3	12	Fixation	Neutral	True
128.271	0.28	Control	1.0	0.004	Yes	2.975	-0.004	2.0	GoodResponse	0	0.201	127.472	3	12	Target	Neutral	True
128.472	0.3	Control	1.0	0.004	Yes	2.975	-0.004	2.0	GoodResponse	0	0.201	n/a	3	12	ButtonPress	Neutral	True
128.555	0.42	Control	1.0	n/a	Yes	2.975	n/a	n/a	GoodResponse	0	n/a	n/a	3	12	Blank	Neutral	True
128.973	1.45	Control	1.0	n/a	Yes	2.975	n/a	5.0	GoodResponse	0	0.026	127.999	3	12	Feedback	Neutral	True
130.427	2.975	Control	1.0	n/a	Yes	2.975	n/a	n/a	GoodResponse	0	0.0	n/a	3	12	ISIslide	Neutral	True
133.419	0.25	Control	1.0	0.0	Yes	2.781	0.019	n/a	GoodResponse	0	n/a	n/a	3	13	Cue	Neutral	True
133.67	4.0	Control	1.0	0.0	Yes	2.781	0.001	n/a	GoodResponse	0	n/a	n/a	3	13	Fixation	Neutral	True
137.665	0.27	Control	1.0	0.004	Yes	2.781	-0.004	2.0	GoodResponse	0	0.235	136.9	3	13	Target	Neutral	True
137.9	0.3	Control	1.0	0.004	Yes	2.781	-0.004	2.0	GoodResponse	0	0.235	n/a	3	13	ButtonPress	Neutral	True
137.95	0.43	Control	1.0	n/a	Yes	2.781	n/a	n/a	GoodResponse	0	n/a	n/a	3	13	Blank	Neutral	True
138.368	1.45	Control	1.0	n/a	Yes	2.781	n/a	5.0	GoodResponse	0	0.046	137.414	3	13	Feedback	Neutral	True
139.822	2.781	Control	1.0	n/a	Yes	2.781	n/a	n/a	GoodResponse	0	0.0	n/a	3	13	ISIslide	Neutral	True
142.63	0.25	Win2	1.0	0.0	Yes	2.67	0.03	n/a	GoodResponse	1	n/a	n/a	4	14	Cue	Win	True
142.881	4.1	Win2	1.0	0.0	Yes	2.67	0.001	n/a	GoodResponse	1	n/a	n/a	4	14	Fixation	Win	True
146.977	0.26	Win2	1.0	0.003	Yes	2.67	-0.003	2.0	GoodResponse	1	0.233	146.21	4	14	Target	Win	True
147.21	0.3	Win2	1.0	0.003	Yes	2.67	-0.003	2.0	GoodResponse	1	0.233	n/a	4	14	ButtonPress	Win	True
147.244	0.44	Win2	1.0	n/a	Yes	2.67	n/a	n/a	GoodResponse	1	n/a	n/a	4	14	Blank	Win	True
147.679	1.45	Win2	1.0	n/a	Yes	2.67	n/a	5.0	GoodResponse	1	0.005	146.684	4	14	Feedback	Win	True
149.133	2.67	Win2	1.0	n/a	Yes	2.67	n/a	n/a	GoodResponse	1	0.0	n/a	4	14	ISIslide	Win	True
151.824	0.25	Control	0.9375	0.001	No	2.976	0.024	n/a	NoResponse	0	n/a	n/a	4	15	Cue	Neutral	False
152.075	4.0	Control	0.9375	0.0	No	2.976	0.001	n/a	NoResponse	0	n/a	n/a	4	15	Fixation	Neutral	False
156.071	0.25	Control	0.9375	0.003	No	2.976	-0.003	n/a	NoResponse	0	n/a	n/a	4	15	Target	Neutral	False
156.321	0.45	Control	0.9375	n/a	No	2.976	n/a	n/a	NoResponse	0	n/a	n/a	4	15	Blank	Neutral	False
156.773	1.45	Control	0.9375	n/a	No	2.976	n/a	5.0	NoResponse	0	0.031	155.804	4	15	Feedback	Neutral	False
158.227	2.976	Control	0.9375	n/a	No	2.976	n/a	n/a	NoResponse	0	0.0	n/a	4	15	ISIslide	Neutral	False
161.219	0.25	Win2	0.9412	0.0	Yes	2.881	0.019	n/a	GoodResponse	1	n/a	n/a	5	16	Cue	Win	True
161.47	4.0	Win2	0.9412	0.0	Yes	2.881	0.001	n/a	GoodResponse	1	n/a	n/a	5	16	Fixation	Win	True
165.465	0.24	Win2	0.9412	0.004	Yes	2.881	-0.004	2.0	GoodResponse	1	0.232	164.697	5	16	Target	Win	True
165.697	0.3	Win2	0.9412	0.004	Yes	2.881	-0.004	2.0	GoodResponse	1	0.232	n/a	5	16	ButtonPress	Win	True
165.716	0.46	Win2	0.9412	n/a	Yes	2.881	n/a	n/a	GoodResponse	1	n/a	n/a	5	16	Blank	Win	True
166.167	1.45	Win2	0.9412	n/a	Yes	2.881	n/a	5.0	GoodResponse	1	0.005	165.172	5	16	Feedback	Win	True
167.622	2.881	Win2	0.9412	n/a	Yes	2.881	n/a	n/a	GoodResponse	1	0.0	n/a	5	16	ISIslide	Win	True
170.514	0.25	Lose2	0.9444	0.0	Yes	2.736	0.014	n/a	GoodResponse	0	n/a	n/a	5	17	Cue	AvoidedLoss	True
170.765	3.95	Lose2	0.9444	0.0	Yes	2.736	0.001	n/a	GoodResponse	0	n/a	n/a	5	17	Fixation	AvoidedLoss	True
174.71	0.23	Lose2	0.9444	0.004	Yes	2.736	-0.004	2.0	GoodResponse	0	0.218	173.928	5	17	Target	AvoidedLoss	True
174.928	0.3	Lose2	0.9444	0.004	Yes	2.736	-0.004	2.0	GoodResponse	0	0.218	n/a	5	17	ButtonPress	AvoidedLoss	True
174.944	0.47	Lose2	0.9444	n/a	Yes	2.736	n/a	n/a	GoodResponse	0	n/a	n/a	5	17	Blank	AvoidedLoss	True
175.412	1.45	Lose2	0.9444	n/a	Yes	2.736	n/a	5.0	GoodResponse	0	0.025	174.437	5	17	Feedback	AvoidedLoss	True
176.866	2.736	Lose2	0.9444	n/a	Yes	2.736	n/a	n/a	GoodResponse	0	0.0	n/a	5	17	ISIslide	AvoidedLoss	True
179.624	0.25	Lose2	0.8946999999999999	0.001	No	2.726	0.024	n/a	LatePress	-1	n/a	n/a	4	18	Cue	Loss	True
179.875	4.05	Lose2	0.8946999999999999	0.0	No	2.726	0.001	n/a	LatePress	-1	n/a	n/a	4	18	Fixation	Loss	True
183.921	0.22	Lose2	0.8946999999999999	0.003	No	2.726	-0.003	2.0	LatePress	-1	0.221	183.142	4	18	Target	Loss	True
184.142	0.3	Lose2	0.8946999999999999	0.003	No	2.726	-0.003	2.0	LatePress	-1	0.221	n/a	4	18	ButtonPress	Loss	True
184.155	0.48	Lose2	0.8946999999999999	n/a	No	2.726	n/a	n/a	LatePress	-1	n/a	n/a	4	18	Blank	Loss	True
184.623	1.45	Lose2	0.8946999999999999	n/a	No	2.726	n/a	5.0	LatePress	-1	0.034	183.657	4	18	Feedback	Loss	True
186.077	2.726	Lose2	0.8946999999999999	n/a	No	2.726	n/a	n/a	LatePress	-1	0.0	n/a	4	18	ISIslide	Loss	True
188.819	0.25	Control	0.85	0.0	No	2.931	0.019	n/a	NoResponse	0	n/a	n/a	4	19	Cue	Neutral	True
189.069	3.95	Control	0.85	0.001	No	2.931	0.0	n/a	NoResponse	0	n/a	n/a	4	19	Fixation	Neutral	True
193.015	0.21	Control	0.85	0.004	No	2.931	-0.004	2.0	NoResponse	0	0.224	192.239	4	19	Target	Neutral	True
193.232	0.49	Control	0.85	n/a	No	2.931	n/a	n/a	NoResponse	0	n/a	n/a	4	19	Blank	Neutral	True
193.239	0.3	Control	0.85	0.004	No	2.931	-0.004	2.0	NoResponse	0	0.224	n/a	4	19	ButtonPress	Neutral	True
193.717	1.45	Control	0.85	n/a	No	2.931	n/a	5.0	NoResponse	0	0.013	192.73	4	19	Feedback	Neutral	True
195.171	2.931	Control	0.85	n/a	No	2.931	n/a	n/a	NoResponse	0	0.0	n/a	4	19	ISIslide	Neutral	True
198.13	0.25	Control	0.8095	0.0	No	2.62	0.03	n/a	NoResponse	0	n/a	n/a	4	20	Cue	Neutral	True
198.381	4.05	Control	0.8095	0.0	No	2.62	0.001	n/a	NoResponse	0	n/a	n/a	4	20	Fixation	Neutral	True
202.426	0.2	Control	0.8095	0.004	No	2.62	-0.004	2.0	NoResponse	0	0.247	201.673	4	20	Target	Neutral	True
202.627	0.5	Control	0.8095	n/a	No	2.62	n/a	n/a	NoResponse	0	n/a	n/a	4	20	Blank	Neutral	True
202.673	0.3	Control	0.8095	0.004	No	2.62	-0.004	2.0	NoResponse	0	0.247	n/a	4	20	ButtonPress	Neutral	True
203.128	1.45	Control	0.8095	n/a	No	2.62	n/a	5.0	NoResponse	0	0.017	202.145	4	20	Feedback	Neutral	True
204.583	2.62	Control	0.8095	n/a	No	2.62	n/a	n/a	NoResponse	0	0.0	n/a	4	20	ISIslide	Neutral	True
207.224	0.25	Control	0.7726999999999999	0.0	No	2.776	0.024	n/a	LatePress	0	n/a	n/a	4	21	Cue	Neutral	True
207.475	4.1	Control	0.7726999999999999	0.0	No	2.776	0.001	n/a	LatePress	0	n/a	n/a	4	21	Fixation	Neutral	True
211.57	0.19	Control	0.7726999999999999	0.004	No	2.776	-0.004	2.0	LatePress	0	0.2	210.77	4	21	Target	Neutral	True
211.77	0.3	Control	0.7726999999999999	0.004	No	2.776	-0.004	2.0	LatePress	0	0.2	n/a	4	21	ButtonPress	Neutral	True
211.771	0.51	Control	0.7726999999999999	n/a	No	2.776	n/a	n/a	LatePress	0	n/a	n/a	4	21	Blank	Neutral	True
212.272	1.45	Control	0.7726999999999999	n/a	No	2.776	n/a	5.0	LatePress	0	0.044	211.316	4	21	Feedback	Neutral	True
213.727	2.776	Control	0.7726999999999999	n/a	No	2.776	n/a	n/a	LatePress	0	0.0	n/a	4	21	ISIslide	Neutral	True
216.518	0.25	Control	0.7391	0.0	No	2.782	0.018	n/a	NoResponse	0	n/a	n/a	4	22	Cue	Neutral	True
216.769	4.0	Control	0.7391	0.0	No	2.782	0.001	n/a	NoResponse	0	n/a	n/a	4	22	Fixation	Neutral	True
220.764	0.18	Control	0.7391	0.004	No	2.782	-0.004	2.0	NoResponse	0	0.21	219.974	4	22	Target	Neutral	True
220.948	0.52	Control	0.7391	n/a	No	2.782	n/a	n/a	NoResponse	0	n/a	n/a	4	22	Blank	Neutral	True
220.974	0.3	Control	0.7391	0.004	No	2.782	-0.004	2.0	NoResponse	0	0.21	n/a	4	22	ButtonPress	Neutral	True
221.467	1.45	Control	0.7391	n/a	No	2.782	n/a	5.0	NoResponse	0	0.02	220.487	4	22	Feedback	Neutral	True
222.921	2.782	Control	0.7391	n/a	No	2.782	n/a	n/a	NoResponse	0	0.0	n/a	4	22	ISIslide	Neutral	True
225.729	0.25	Control	0.7082999999999999	0.0	No	2.771	0.029	n/a	NoResponse	0	n/a	n/a	4	23	Cue	Neutral	True
225.98	3.9	Control	0.7082999999999999	0.0	No	2.771	0.001	n/a	NoResponse	0	n/a	n/a	4	23	Fixation	Neutral	True
229.875	0.17	Control	0.7082999999999999	0.004	No	2.771	-0.004	2.0	NoResponse	0	0.29	229.165	4	23	Target	Neutral	True
230.059	0.53	Control	0.7082999999999999	n/a	No	2.771	n/a	n/a	NoResponse	0	n/a	n/a	4	23	Blank	Neutral	True
230.165	0.3	Control	0.7082999999999999	0.004	No	2.771	-0.004	2.0	NoResponse	0	0.29	n/a	4	23	ButtonPress	Neutral	True
230.577	1.45	Control	0.7082999999999999	n/a	No	2.771	n/a	5.0	NoResponse	0	0.031	229.608	4	23	Feedback	Neutral	True
232.032	2.771	Control	0.7082999999999999	n/a	No	2.771	n/a	n/a	NoResponse	0	0.0	n/a	4	23	ISIslide	Neutral	True
234.823	0.25	Win2	0.68	0.0	No	3.127	0.023	n/a	NoResponse	0	n/a	n/a	4	24	Cue	MissedWin	True
235.074	3.95	Win2	0.68	0.0	No	3.127	0.001	n/a	NoResponse	0	n/a	n/a	4	24	Fixation	MissedWin	True
239.019	0.16	Win2	0.68	0.004	No	3.127	-0.004	2.0	NoResponse	0	0.187	238.206	4	24	Target	MissedWin	True
239.186	0.54	Win2	0.68	n/a	No	3.127	n/a	n/a	NoResponse	0	n/a	n/a	4	24	Blank	MissedWin	True
239.206	0.3	Win2	0.68	0.004	No	3.127	-0.004	2.0	NoResponse	0	0.187	n/a	4	24	ButtonPress	MissedWin	True
239.721	1.45	Win2	0.68	n/a	No	3.127	n/a	5.0	NoResponse	0	0.009	238.73	4	24	Feedback	MissedWin	True
241.176	3.127	Win2	0.68	n/a	No	3.127	n/a	n/a	NoResponse	0	0.0	n/a	4	24	ISIslide	MissedWin	True
244.318	0.25	Win2	0.6537999999999999	0.0	No	3.082	0.018	n/a	NoResponse	0	n/a	n/a	4	25	Cue	MissedWin	True
244.569	4.0	Win2	0.6537999999999999	0.0	No	3.082	0.001	n/a	NoResponse	0	n/a	n/a	4	25	Fixation	MissedWin	True
248.564	0.15	Win2	0.6537999999999999	0.004	No	3.082	-0.004	2.0	NoResponse	0	0.269	247.833	4	25	Target	MissedWin	True
248.715	0.55	Win2	0.6537999999999999	n/a	No	3.082	n/a	n/a	NoResponse	0	n/a	n/a	4	25	Blank	MissedWin	True
248.833	0.3	Win2	0.6537999999999999	0.004	No	3.082	-0.004	2.0	NoResponse	0	0.269	n/a	4	25	ButtonPress	MissedWin	True
249.266	1.45	Win2	0.6537999999999999	n/a	No	3.082	n/a	5.0	NoResponse	0	0.025	248.291	4	25	Feedback	MissedWin	True
250.721	3.082	Win2	0.6537999999999999	n/a	No	3.082	n/a	n/a	NoResponse	0	0.0	n/a	4	25	ISIslide	MissedWin	True
253.83	0.25	Win2	0.6296	0.0	No	2.92	0.03	n/a	NoResponse	0	n/a	n/a	4	26	Cue	MissedWin	True
254.081	3.95	Win2	0.6296	0.0	No	2.92	0.001	n/a	NoResponse	0	n/a	n/a	4	26	Fixation	MissedWin	True
258.026	0.16	Win2	0.6296	0.004	No	2.92	-0.004	2.0	NoResponse	0	0.195	257.221	4	26	Target	MissedWin	True
258.193	0.54	Win2	0.6296	n/a	No	2.92	n/a	n/a	NoResponse	0	n/a	n/a	4	26	Blank	MissedWin	True
258.221	0.3	Win2	0.6296	0.004	No	2.92	-0.004	2.0	NoResponse	0	0.195	n/a	4	26	ButtonPress	MissedWin	True
258.728	1.45	Win2	0.6296	n/a	No	2.92	n/a	5.0	NoResponse	0	0.027	257.755	4	26	Feedback	MissedWin	True
260.183	2.92	Win2	0.6296	n/a	No	2.92	n/a	n/a	NoResponse	0	0.0	n/a	4	26	ISIslide	MissedWin	True
263.125	0.25	Lose2	0.6071	0.0	No	2.825	0.025	n/a	NoResponse	-1	n/a	n/a	3	27	Cue	Loss	False
263.375	4.05	Lose2	0.6071	0.0	No	2.825	0.0	2.0	NoResponse	-1	0.059	262.434	3	27	Fixation	Loss	False
263.434	0.3	Lose2	0.6071	0.0	No	2.825	0.0	2.0	NoResponse	-1	0.059	n/a	3	27	ButtonPress	Loss	False
267.421	0.17	Lose2	0.6071	0.004	No	2.825	-0.004	2.0	NoResponse	-1	0.211	266.632	3	27	Target	Loss	False
267.605	0.53	Lose2	0.6071	n/a	No	2.825	n/a	n/a	NoResponse	-1	n/a	n/a	3	27	Blank	Loss	False
267.632	0.3	Lose2	0.6071	0.004	No	2.825	-0.004	2.0	NoResponse	-1	0.211	n/a	3	27	ButtonPress	Loss	False
268.123	1.45	Lose2	0.6071	n/a	No	2.825	n/a	5.0	NoResponse	-1	0.046	267.169	3	27	Feedback	Loss	False
269.577	2.825	Lose2	0.6071	n/a	No	2.825	n/a	n/a	NoResponse	-1	0.0	n/a	3	27	ISIslide	Loss	False
272.419	0.25	Control	0.5861999999999999	0.0	No	2.831	0.019	n/a	NoResponse	0	n/a	n/a	3	28	Cue	Neutral	True
272.67	4.05	Control	0.5861999999999999	0.0	No	2.831	0.001	n/a	NoResponse	0	n/a	n/a	3	28	Fixation	Neutral	True
276.715	0.18	Control	0.5861999999999999	0.004	No	2.831	-0.004	2.0	NoResponse	0	0.217	275.932	3	28	Target	Neutral	True
276.899	0.52	Control	0.5861999999999999	n/a	No	2.831	n/a	n/a	NoResponse	0	n/a	n/a	3	28	Blank	Neutral	True
276.932	0.3	Control	0.5861999999999999	0.004	No	2.831	-0.004	2.0	NoResponse	0	0.217	n/a	3	28	ButtonPress	Neutral	True
277.417	1.45	Control	0.5861999999999999	n/a	No	2.831	n/a	5.0	NoResponse	0	0.021	276.438	3	28	Feedback	Neutral	True
278.872	2.831	Control	0.5861999999999999	n/a	No	2.831	n/a	n/a	NoResponse	0	0.0	n/a	3	28	ISIslide	Neutral	True
281.73	0.25	Lose2	0.5667	0.001	No	2.82	0.03	n/a	NoResponse	-1	n/a	n/a	2	29	Cue	Loss	True
281.981	3.95	Lose2	0.5667	0.0	No	2.82	0.001	n/a	NoResponse	-1	n/a	n/a	2	29	Fixation	Loss	True
285.926	0.19	Lose2	0.5667	0.004	No	2.82	-0.004	2.0	NoResponse	-1	0.202	285.128	2	29	Target	Loss	True
286.127	0.51	Lose2	0.5667	n/a	No	2.82	n/a	n/a	NoResponse	-1	n/a	n/a	2	29	Blank	Loss	True
286.128	0.3	Lose2	0.5667	0.004	No	2.82	-0.004	2.0	NoResponse	-1	0.202	n/a	2	29	ButtonPress	Loss	True
286.628	1.45	Lose2	0.5667	n/a	No	2.82	n/a	5.0	NoResponse	-1	0.029	285.657	2	29	Feedback	Loss	True
288.083	2.82	Lose2	0.5667	n/a	No	2.82	n/a	n/a	NoResponse	-1	0.0	n/a	2	29	ISIslide	Loss	True
290.925	0.25	Win2	0.5484	0.0	No	2.775	0.025	n/a	NoResponse	0	n/a	n/a	2	30	Cue	MissedWin	True
291.175	3.9	Win2	0.5484	0.0	No	2.775	0.0	n/a	NoResponse	0	n/a	n/a	2	30	Fixation	MissedWin	True
295.087	0.2	Win2	0.5484	0.0	No	2.775	0.012	2.0	NoResponse	0	0.199	294.286	2	30	Target	MissedWin	True
295.271	0.5	Win2	0.5484	n/a	No	2.775	n/a	n/a	NoResponse	0	n/a	n/a	2	30	Blank	MissedWin	True
295.286	0.3	Win2	0.5484	0.0	No	2.775	0.012	2.0	NoResponse	0	0.199	n/a	2	30	ButtonPress	MissedWin	True
295.772	1.45	Win2	0.5484	n/a	No	2.775	n/a	5.0	NoResponse	0	0.007	294.779	2	30	Feedback	MissedWin	True
297.227	2.775	Win2	0.5484	n/a	No	2.775	n/a	n/a	NoResponse	0	0.0	n/a	2	30	ISIslide	MissedWin	True
300.019	0.25	Lose2	0.5312	0.0	No	2.831	0.019	n/a	LatePress	-1	n/a	n/a	1	31	Cue	Loss	True
300.269	4.05	Lose2	0.5312	0.0	No	2.831	0.0	n/a	LatePress	-1	n/a	n/a	1	31	Fixation	Loss	True
304.315	0.21	Lose2	0.5312	0.004	No	2.831	-0.004	2.0	LatePress	-1	0.212	303.527	1	31	Target	Loss	True
304.527	0.3	Lose2	0.5312	0.004	No	2.831	-0.004	2.0	LatePress	-1	0.212	n/a	1	31	ButtonPress	Loss	True
304.532	0.49	Lose2	0.5312	n/a	No	2.831	n/a	n/a	LatePress	-1	n/a	n/a	1	31	Blank	Loss	True
305.017	1.45	Lose2	0.5312	n/a	No	2.831	n/a	5.0	LatePress	-1	0.03	304.047	1	31	Feedback	Loss	True
306.471	2.831	Lose2	0.5312	n/a	No	2.831	n/a	n/a	LatePress	-1	0.0	n/a	1	31	ISIslide	Loss	True
309.33	0.25	Lose2	0.5455	0.0	Yes	2.62	0.03	n/a	GoodResponse	0	n/a	n/a	1	32	Cue	AvoidedLoss	False
309.581	4.15	Lose2	0.5455	0.0	Yes	2.62	0.001	2.0	GoodResponse	0	2.204	310.785	1	32	Fixation	AvoidedLoss	False
311.785	0.3	Lose2	0.5455	0.0	Yes	2.62	0.001	2.0	GoodResponse	0	2.204	n/a	1	32	ButtonPress	AvoidedLoss	False
313.726	0.22	Lose2	0.5455	0.004	Yes	2.62	-0.004	2.0	GoodResponse	0	0.19	312.916	1	32	Target	AvoidedLoss	False
313.916	0.3	Lose2	0.5455	0.004	Yes	2.62	-0.004	2.0	GoodResponse	0	0.19	n/a	1	32	ButtonPress	AvoidedLoss	False
313.96	0.48	Lose2	0.5455	n/a	Yes	2.62	n/a	n/a	GoodResponse	0	n/a	n/a	1	32	Blank	AvoidedLoss	False
314.428	1.45	Lose2	0.5455	n/a	Yes	2.62	n/a	5.0	GoodResponse	0	0.033	313.461	1	32	Feedback	AvoidedLoss	False
315.883	2.62	Lose2	0.5455	n/a	Yes	2.62	n/a	n/a	GoodResponse	0	0.0	n/a	1	32	ISIslide	AvoidedLoss	False
318.524	0.25	Win2	0.5588000000000001	0.0	Yes	2.676	0.024	n/a	GoodResponse	1	n/a	n/a	2	33	Cue	Win	True
318.775	4.0	Win2	0.5588000000000001	0.0	Yes	2.676	0.001	n/a	GoodResponse	1	n/a	n/a	2	33	Fixation	Win	True
322.77	0.23	Win2	0.5588000000000001	0.004	Yes	2.676	-0.004	2.0	GoodResponse	1	0.211	321.981	2	33	Target	Win	True
322.981	0.3	Win2	0.5588000000000001	0.004	Yes	2.676	-0.004	2.0	GoodResponse	1	0.211	n/a	2	33	ButtonPress	Win	True
323.004	0.47	Win2	0.5588000000000001	n/a	Yes	2.676	n/a	n/a	GoodResponse	1	n/a	n/a	2	33	Blank	Win	True
323.472	1.45	Win2	0.5588000000000001	n/a	Yes	2.676	n/a	5.0	GoodResponse	1	0.014	322.486	2	33	Feedback	Win	True
324.927	2.676	Win2	0.5588000000000001	n/a	Yes	2.676	n/a	n/a	GoodResponse	1	0.0	n/a	2	33	ISIslide	Win	True
327.618	0.25	Lose2	0.5428999999999999	0.0	No	2.632	0.018	n/a	LatePress	-1	n/a	n/a	1	34	Cue	Loss	True
327.869	4.05	Lose2	0.5428999999999999	0.0	No	2.632	0.001	n/a	LatePress	-1	n/a	n/a	1	34	Fixation	Loss	True
331.914	0.24	Lose2	0.5428999999999999	0.004	No	2.632	-0.004	2.0	LatePress	-1	0.25	331.164	1	34	Target	Loss	True
332.164	0.3	Lose2	0.5428999999999999	0.004	No	2.632	-0.004	2.0	LatePress	-1	0.25	n/a	1	34	ButtonPress	Loss	True
332.165	0.46	Lose2	0.5428999999999999	n/a	No	2.632	n/a	n/a	LatePress	-1	n/a	n/a	1	34	Blank	Loss	True
332.616	1.45	Lose2	0.5428999999999999	n/a	No	2.632	n/a	5.0	LatePress	-1	0.041	331.657	1	34	Feedback	Loss	True
334.071	2.632	Lose2	0.5428999999999999	n/a	No	2.632	n/a	n/a	LatePress	-1	0.0	n/a	1	34	ISIslide	Loss	True
336.729	0.25	Lose2	0.5556	0.0	Yes	2.671	0.029	n/a	GoodResponse	0	n/a	n/a	1	35	Cue	AvoidedLoss	True
336.979	4.0	Lose2	0.5556	0.0	Yes	2.671	0.0	n/a	GoodResponse	0	n/a	n/a	1	35	Fixation	AvoidedLoss	True
340.975	0.25	Lose2	0.5556	0.004	Yes	2.671	-0.004	2.0	GoodResponse	0	0.212	340.187	1	35	Target	AvoidedLoss	True
341.187	0.3	Lose2	0.5556	0.004	Yes	2.671	-0.004	2.0	GoodResponse	0	0.212	n/a	1	35	ButtonPress	AvoidedLoss	True
341.225	0.45	Lose2	0.5556	n/a	Yes	2.671	n/a	n/a	GoodResponse	0	n/a	n/a	1	35	Blank	AvoidedLoss	True
341.677	1.45	Lose2	0.5556	n/a	Yes	2.671	n/a	5.0	GoodResponse	0	0.006	340.683	1	35	Feedback	AvoidedLoss	True
343.131	2.671	Lose2	0.5556	n/a	Yes	2.671	n/a	n/a	GoodResponse	0	0.0	n/a	1	35	ISIslide	AvoidedLoss	True
345.822	0.25	Control	0.5676	0.001	Yes	2.678	0.022	n/a	GoodResponse	0	n/a	n/a	1	36	Cue	Neutral	True
346.073	4.0	Control	0.5676	0.0	Yes	2.678	0.001	n/a	GoodResponse	0	n/a	n/a	1	36	Fixation	Neutral	True
350.069	0.26	Control	0.5676	0.003	Yes	2.678	-0.003	2.0	GoodResponse	0	0.204	349.273	1	36	Target	Neutral	True
350.273	0.3	Control	0.5676	0.003	Yes	2.678	-0.003	2.0	GoodResponse	0	0.204	n/a	1	36	ButtonPress	Neutral	True
350.336	0.44	Control	0.5676	n/a	Yes	2.678	n/a	n/a	GoodResponse	0	n/a	n/a	1	36	Blank	Neutral	True
350.771	1.45	Control	0.5676	n/a	Yes	2.678	n/a	5.0	GoodResponse	0	0.031	349.802	1	36	Feedback	Neutral	True
352.225	2.678	Control	0.5676	n/a	Yes	2.678	n/a	n/a	GoodResponse	0	0.0	n/a	1	36	ISIslide	Neutral	True
354.916	0.25	Win2	0.5789	0.0	Yes	2.884	0.016	n/a	GoodResponse	1	n/a	n/a	2	37	Cue	Win	True
355.167	4.0	Win2	0.5789	0.0	Yes	2.884	0.001	n/a	GoodResponse	1	n/a	n/a	2	37	Fixation	Win	True
359.162	0.27	Win2	0.5789	0.004	Yes	2.884	-0.004	2.0	GoodResponse	1	0.21	358.372	2	37	Target	Win	True
359.372	0.3	Win2	0.5789	0.004	Yes	2.884	-0.004	2.0	GoodResponse	1	0.21	n/a	2	37	ButtonPress	Win	True
359.447	0.43	Win2	0.5789	n/a	Yes	2.884	n/a	n/a	GoodResponse	1	n/a	n/a	2	37	Blank	Win	True
359.865	1.45	Win2	0.5789	n/a	Yes	2.884	n/a	5.0	GoodResponse	1	0.011	358.876	2	37	Feedback	Win	True
361.319	2.884	Win2	0.5789	n/a	Yes	2.884	n/a	n/a	GoodResponse	1	0.0	n/a	2	37	ISIslide	Win	True
364.228	0.25	Lose2	0.5897	0.0	Yes	2.822	0.028	n/a	GoodResponse	0	n/a	n/a	2	38	Cue	AvoidedLoss	True
364.478	3.95	Lose2	0.5897	0.0	Yes	2.822	0.0	n/a	GoodResponse	0	n/a	n/a	2	38	Fixation	AvoidedLoss	True
368.424	0.28	Lose2	0.5897	0.004	Yes	2.822	-0.004	2.0	GoodResponse	0	0.247	367.671	2	38	Target	AvoidedLoss	True
368.671	0.3	Lose2	0.5897	0.004	Yes	2.822	-0.004	2.0	GoodResponse	0	0.247	n/a	2	38	ButtonPress	AvoidedLoss	True
368.708	0.42	Lose2	0.5897	n/a	Yes	2.822	n/a	n/a	GoodResponse	0	n/a	n/a	2	38	Blank	AvoidedLoss	True
369.126	1.45	Lose2	0.5897	n/a	Yes	2.822	n/a	5.0	GoodResponse	0	0.018	368.144	2	38	Feedback	AvoidedLoss	True
370.58	2.822	Lose2	0.5897	n/a	Yes	2.822	n/a	n/a	GoodResponse	0	0.0	n/a	2	38	ISIslide	AvoidedLoss	True
373.422	0.25	Win2	0.6	0.0	Yes	2.978	0.022	n/a	GoodResponse	1	n/a	n/a	3	39	Cue	Win	True
373.673	4.1	Win2	0.6	0.0	Yes	2.978	0.001	n/a	GoodResponse	1	n/a	n/a	3	39	Fixation	Win	True
377.768	0.29	Win2	0.6	0.004	Yes	2.978	-0.004	2.0	GoodResponse	1	0.208	376.976	3	39	Target	Win	True
377.976	0.3	Win2	0.6	0.004	Yes	2.978	-0.004	2.0	GoodResponse	1	0.208	n/a	3	39	ButtonPress	Win	True
378.069	0.41	Win2	0.6	n/a	Yes	2.978	n/a	n/a	GoodResponse	1	n/a	n/a	3	39	Blank	Win	True
378.47	1.45	Win2	0.6	n/a	Yes	2.978	n/a	5.0	GoodResponse	1	0.04	377.51	3	39	Feedback	Win	True
379.925	2.978	Win2	0.6	n/a	Yes	2.978	n/a	n/a	GoodResponse	1	0.0	n/a	3	39	ISIslide	Win	True
382.917	0.25	Win2	0.6098	0.0	Yes	2.733	0.017	n/a	GoodResponse	1	n/a	n/a	4	40	Cue	Win	True
383.168	3.95	Win2	0.6098	0.0	Yes	2.733	0.001	n/a	GoodResponse	1	n/a	n/a	4	40	Fixation	Win	True
387.113	0.3	Win2	0.6098	0.004	Yes	2.733	-0.004	2.0	GoodResponse	1	0.212	386.325	4	40	Target	Win	True
387.325	0.3	Win2	0.6098	0.004	Yes	2.733	-0.004	2.0	GoodResponse	1	0.212	n/a	4	40	ButtonPress	Win	True
387.414	0.4	Win2	0.6098	n/a	Yes	2.733	n/a	n/a	GoodResponse	1	n/a	n/a	4	40	Blank	Win	True
387.815	1.45	Win2	0.6098	n/a	Yes	2.733	n/a	5.0	GoodResponse	1	0.012	386.827	4	40	Feedback	Win	True
389.269	2.733	Win2	0.6098	n/a	Yes	2.733	n/a	n/a	GoodResponse	1	0.0	n/a	4	40	ISIslide	Win	True
392.028	0.25	Win2	0.619	0.0	Yes	2.772	0.028	n/a	GoodResponse	1	n/a	n/a	5	41	Cue	Win	True
392.278	3.9	Win2	0.619	0.0	Yes	2.772	0.0	n/a	GoodResponse	1	n/a	n/a	5	41	Fixation	Win	True
396.19	0.31	Win2	0.619	0.0	Yes	2.772	0.012	2.0	GoodResponse	1	0.209	395.399	5	41	Target	Win	True
396.399	0.3	Win2	0.619	0.0	Yes	2.772	0.012	2.0	GoodResponse	1	0.209	n/a	5	41	ButtonPress	Win	True
396.491	0.39	Win2	0.619	n/a	Yes	2.772	n/a	n/a	GoodResponse	1	n/a	n/a	5	41	Blank	Win	True
396.875	1.45	Win2	0.619	n/a	Yes	2.772	n/a	5.0	GoodResponse	1	0.025	395.9	5	41	Feedback	Win	True
398.33	2.772	Win2	0.619	n/a	Yes	2.772	n/a	n/a	GoodResponse	1	0.0	n/a	5	41	ISIslide	Win	True
401.121	0.25	Control	0.6279	0.001	Yes	2.929	0.021	n/a	GoodResponse	0	n/a	n/a	5	42	Cue	Neutral	True
401.372	3.85	Control	0.6279	0.0	Yes	2.929	0.001	n/a	GoodResponse	0	n/a	n/a	5	42	Fixation	Neutral	True
405.217	0.32	Control	0.6279	0.004	Yes	2.929	-0.004	2.0	GoodResponse	0	0.2	404.417	5	42	Target	Neutral	True
405.417	0.3	Control	0.6279	0.004	Yes	2.929	-0.004	2.0	GoodResponse	0	0.2	n/a	5	42	ButtonPress	Neutral	True
405.551	0.38	Control	0.6279	n/a	Yes	2.929	n/a	n/a	GoodResponse	0	n/a	n/a	5	42	Blank	Neutral	True
405.919	1.45	Control	0.6279	n/a	Yes	2.929	n/a	5.0	GoodResponse	0	0.006	404.925	5	42	Feedback	Neutral	True
407.374	2.929	Control	0.6279	n/a	Yes	2.929	n/a	n/a	GoodResponse	0	0.0	n/a	5	42	ISIslide	Neutral	True
410.316	0.25	Win2	0.6364	0.0	Yes	3.184	0.016	n/a	GoodResponse	1	n/a	n/a	6	43	Cue	Win	True
410.566	4.0	Win2	0.6364	0.001	Yes	3.184	0.0	n/a	GoodResponse	1	n/a	n/a	6	43	Fixation	Win	True
414.562	0.33	Win2	0.6364	0.004	Yes	3.184	-0.004	2.0	GoodResponse	1	0.248	413.81	6	43	Target	Win	True
414.81	0.3	Win2	0.6364	0.004	Yes	3.184	-0.004	2.0	GoodResponse	1	0.248	n/a	6	43	ButtonPress	Win	True
414.896	0.37	Win2	0.6364	n/a	Yes	3.184	n/a	n/a	GoodResponse	1	n/a	n/a	6	43	Blank	Win	True
415.264	1.45	Win2	0.6364	n/a	Yes	3.184	n/a	5.0	GoodResponse	1	0.026	414.29	6	43	Feedback	Win	True
416.718	3.184	Win2	0.6364	n/a	Yes	3.184	n/a	n/a	GoodResponse	1	0.0	n/a	6	43	ISIslide	Win	True
419.928	0.25	Win2	0.6444	0.0	Yes	2.972	0.028	n/a	GoodResponse	1	n/a	n/a	7	44	Cue	Win	True
420.179	4.0	Win2	0.6444	0.0	Yes	2.972	0.001	n/a	GoodResponse	1	n/a	n/a	7	44	Fixation	Win	True
424.174	0.34	Win2	0.6444	0.004	Yes	2.972	-0.004	2.0	GoodResponse	1	0.2	423.374	7	44	Target	Win	True
424.374	0.3	Win2	0.6444	0.004	Yes	2.972	-0.004	2.0	GoodResponse	1	0.2	n/a	7	44	ButtonPress	Win	True
424.525	0.36	Win2	0.6444	n/a	Yes	2.972	n/a	n/a	GoodResponse	1	n/a	n/a	7	44	Blank	Win	True
424.876	1.45	Win2	0.6444	n/a	Yes	2.972	n/a	5.0	GoodResponse	1	0.024	423.9	7	44	Feedback	Win	True
426.33	2.972	Win2	0.6444	n/a	Yes	2.972	n/a	n/a	GoodResponse	1	0.0	n/a	7	44	ISIslide	Win	True
429.323	0.25	Control	0.6522	0.0	Yes	2.877	0.023	n/a	GoodResponse	0	n/a	n/a	7	45	Cue	Neutral	True
429.573	4.1	Control	0.6522	0.0	Yes	2.877	0.0	n/a	GoodResponse	0	n/a	n/a	7	45	Fixation	Neutral	True
433.669	0.35	Control	0.6522	0.004	Yes	2.877	-0.004	2.0	GoodResponse	0	0.227	432.896	7	45	Target	Neutral	True
433.896	0.3	Control	0.6522	0.004	Yes	2.877	-0.004	2.0	GoodResponse	0	0.227	n/a	7	45	ButtonPress	Neutral	True
434.02	0.35	Control	0.6522	n/a	Yes	2.877	n/a	n/a	GoodResponse	0	n/a	n/a	7	45	Blank	Neutral	True
434.371	1.45	Control	0.6522	n/a	Yes	2.877	n/a	5.0	GoodResponse	0	0.041	433.412	7	45	Feedback	Neutral	True
435.825	2.877	Control	0.6522	n/a	Yes	2.877	n/a	n/a	GoodResponse	0	0.0	n/a	7	45	ISIslide	Neutral	True
438.717	0.25	Lose2	0.6596	0.001	Yes	3.383	0.017	n/a	GoodResponse	0	n/a	n/a	7	46	Cue	AvoidedLoss	True
438.968	4.0	Lose2	0.6596	0.0	Yes	3.383	0.001	n/a	GoodResponse	0	n/a	n/a	7	46	Fixation	AvoidedLoss	True
442.964	0.36	Lose2	0.6596	0.003	Yes	3.383	-0.003	2.0	GoodResponse	0	0.213	442.177	7	46	Target	AvoidedLoss	True
443.177	0.3	Lose2	0.6596	0.003	Yes	3.383	-0.003	2.0	GoodResponse	0	0.213	n/a	7	46	ButtonPress	AvoidedLoss	True
443.331	0.34	Lose2	0.6596	n/a	Yes	3.383	n/a	n/a	GoodResponse	0	n/a	n/a	7	46	Blank	AvoidedLoss	True
443.666	1.45	Lose2	0.6596	n/a	Yes	3.383	n/a	5.0	GoodResponse	0	0.014	442.68	7	46	Feedback	AvoidedLoss	True
445.12	3.383	Lose2	0.6596	n/a	Yes	3.383	n/a	n/a	GoodResponse	0	0.0	n/a	7	46	ISIslide	AvoidedLoss	True
448.53	0.25	Lose2	0.6667000000000001	0.0	Yes	2.67	0.03	n/a	GoodResponse	0	n/a	n/a	7	47	Cue	AvoidedLoss	True
448.781	4.0	Lose2	0.6667000000000001	0.0	Yes	2.67	0.001	n/a	GoodResponse	0	n/a	n/a	7	47	Fixation	AvoidedLoss	True
452.776	0.36	Lose2	0.6667000000000001	0.004	Yes	2.67	-0.004	2.0	GoodResponse	0	0.225	452.001	7	47	Target	AvoidedLoss	True
453.001	0.3	Lose2	0.6667000000000001	0.004	Yes	2.67	-0.004	2.0	GoodResponse	0	0.225	n/a	7	47	ButtonPress	AvoidedLoss	True
453.144	0.34	Lose2	0.6667000000000001	n/a	Yes	2.67	n/a	n/a	GoodResponse	0	n/a	n/a	7	47	Blank	AvoidedLoss	True
453.478	1.45	Lose2	0.6667000000000001	n/a	Yes	2.67	n/a	5.0	GoodResponse	0	0.007	452.485	7	47	Feedback	AvoidedLoss	True
454.933	2.67	Lose2	0.6667000000000001	n/a	Yes	2.67	n/a	n/a	GoodResponse	0	0.0	n/a	7	47	ISIslide	AvoidedLoss	True
457.624	0.25	Lose2	0.6735	0.0	Yes	3.026	0.024	n/a	GoodResponse	0	n/a	n/a	7	48	Cue	AvoidedLoss	True
457.875	3.95	Lose2	0.6735	0.0	Yes	3.026	0.001	n/a	GoodResponse	0	n/a	n/a	7	48	Fixation	AvoidedLoss	True
461.82	0.35	Lose2	0.6735	0.004	Yes	3.026	-0.004	2.0	GoodResponse	0	0.201	461.021	7	48	Target	AvoidedLoss	True
462.021	0.3	Lose2	0.6735	0.004	Yes	3.026	-0.004	2.0	GoodResponse	0	0.201	n/a	7	48	ButtonPress	AvoidedLoss	True
462.171	0.35	Lose2	0.6735	n/a	Yes	3.026	n/a	n/a	GoodResponse	0	n/a	n/a	7	48	Blank	AvoidedLoss	True
462.522	1.45	Lose2	0.6735	n/a	Yes	3.026	n/a	5.0	GoodResponse	0	0.037	461.559	7	48	Feedback	AvoidedLoss	True
463.977	3.026	Lose2	0.6735	n/a	Yes	3.026	n/a	n/a	GoodResponse	0	0.0	n/a	7	48	ISIslide	AvoidedLoss	True
467.019	0.25	Control	0.68	0.0	Yes	2.881	0.019	n/a	GoodResponse	0	n/a	n/a	7	49	Cue	Neutral	True
467.27	4.0	Control	0.68	0.0	Yes	2.881	0.001	n/a	GoodResponse	0	n/a	n/a	7	49	Fixation	Neutral	True
471.265	0.34	Control	0.68	0.004	Yes	2.881	-0.004	2.0	GoodResponse	0	0.255	470.52	7	49	Target	Neutral	True
471.52	0.3	Control	0.68	0.004	Yes	2.881	-0.004	2.0	GoodResponse	0	0.255	n/a	7	49	ButtonPress	Neutral	True
471.616	0.36	Control	0.68	n/a	Yes	2.881	n/a	n/a	GoodResponse	0	n/a	n/a	7	49	Blank	Neutral	True
471.967	1.45	Control	0.68	n/a	Yes	2.881	n/a	5.0	GoodResponse	0	0.006	470.973	7	49	Feedback	Neutral	True
473.421	2.881	Control	0.68	n/a	Yes	2.881	n/a	n/a	GoodResponse	0	0.0	n/a	7	49	ISIslide	Neutral	True
476.33	0.25	Control	0.6862999999999999	0.0	Yes	2.77	0.03	n/a	GoodResponse	0	n/a	n/a	7	50	Cue	Neutral	True
476.581	4.0	Control	0.6862999999999999	0.0	Yes	2.77	0.001	n/a	GoodResponse	0	n/a	n/a	7	50	Fixation	Neutral	True
480.576	0.33	Control	0.6862999999999999	0.004	Yes	2.77	-0.004	2.0	GoodResponse	0	0.235	479.811	7	50	Target	Neutral	True
480.811	0.3	Control	0.6862999999999999	0.004	Yes	2.77	-0.004	2.0	GoodResponse	0	0.235	n/a	7	50	ButtonPress	Neutral	True
480.911	0.37	Control	0.6862999999999999	n/a	Yes	2.77	n/a	n/a	GoodResponse	0	n/a	n/a	7	50	Blank	Neutral	True
481.278	1.45	Control	0.6862999999999999	n/a	Yes	2.77	n/a	5.0	GoodResponse	0	0.012	480.29	7	50	Feedback	Neutral	True
482.733	2.77	Control	0.6862999999999999	n/a	Yes	2.77	n/a	n/a	GoodResponse	0	0.0	n/a	7	50	ISIslide	Neutral	True
485.524	0.25	Control	0.6923	0.0	Yes	2.726	0.024	n/a	GoodResponse	0	n/a	n/a	7	51	Cue	Neutral	True
485.775	3.95	Control	0.6923	0.0	Yes	2.726	0.001	n/a	GoodResponse	0	n/a	n/a	7	51	Fixation	Neutral	True
489.72	0.32	Control	0.6923	0.004	Yes	2.726	-0.004	2.0	GoodResponse	0	0.28	489.0	7	51	Target	Neutral	True
490	0.3	Control	0.6923	0.004	Yes	2.726	-0.004	2.0	GoodResponse	0	0.28	n/a	7	51	ButtonPress	Neutral	True
490.055	0.38	Control	0.6923	n/a	Yes	2.726	n/a	n/a	GoodResponse	0	n/a	n/a	7	51	Blank	Neutral	True
490.422	1.45	Control	0.6923	n/a	Yes	2.726	n/a	5.0	GoodResponse	0	0.039	489.461	7	51	Feedback	Neutral	True
491.877	2.726	Control	0.6923	n/a	Yes	2.726	n/a	n/a	GoodResponse	0	0.0	n/a	7	51	ISIslide	Neutral	True
494.618	0.25	Control	0.6981	0.0	Yes	2.632	0.018	n/a	GoodResponse	0	n/a	n/a	7	52	Cue	Neutral	True
494.869	4.05	Control	0.6981	0.0	Yes	2.632	0.001	n/a	GoodResponse	0	n/a	n/a	7	52	Fixation	Neutral	True
498.915	0.31	Control	0.6981	0.003	Yes	2.632	-0.003	2.0	GoodResponse	0	0.204	498.119	7	52	Target	Neutral	True
499.119	0.3	Control	0.6981	0.003	Yes	2.632	-0.003	2.0	GoodResponse	0	0.204	n/a	7	52	ButtonPress	Neutral	True
499.232	0.39	Control	0.6981	n/a	Yes	2.632	n/a	n/a	GoodResponse	0	n/a	n/a	7	52	Blank	Neutral	True
499.617	1.45	Control	0.6981	n/a	Yes	2.632	n/a	5.0	GoodResponse	0	0.014	498.631	7	52	Feedback	Neutral	True
501.071	2.632	Control	0.6981	n/a	Yes	2.632	n/a	n/a	GoodResponse	0	0.0	n/a	7	52	ISIslide	Neutral	True
503.729	0.25	Win2	0.7037	0.0	Yes	2.921	0.029	n/a	GoodResponse	1	n/a	n/a	8	53	Cue	Win	True
503.98	4.05	Win2	0.7037	0.0	Yes	2.921	0.001	n/a	GoodResponse	1	n/a	n/a	8	53	Fixation	Win	True
508.025	0.3	Win2	0.7037	0.004	Yes	2.921	-0.004	2.0	GoodResponse	1	0.202	507.227	8	53	Target	Win	True
508.227	0.3	Win2	0.7037	0.004	Yes	2.921	-0.004	2.0	GoodResponse	1	0.202	n/a	8	53	ButtonPress	Win	True
508.326	0.4	Win2	0.7037	n/a	Yes	2.921	n/a	n/a	GoodResponse	1	n/a	n/a	8	53	Blank	Win	True
508.727	1.45	Win2	0.7037	n/a	Yes	2.921	n/a	5.0	GoodResponse	1	0.026	507.753	8	53	Feedback	Win	True
510.182	2.921	Win2	0.7037	n/a	Yes	2.921	n/a	n/a	GoodResponse	1	0.0	n/a	8	53	ISIslide	Win	True
513.124	0.25	Win2	0.7091	0.0	Yes	2.726	0.024	n/a	GoodResponse	1	n/a	n/a	9	54	Cue	Win	True
513.375	3.95	Win2	0.7091	0.0	Yes	2.726	0.001	n/a	GoodResponse	1	n/a	n/a	9	54	Fixation	Win	True
517.32	0.29	Win2	0.7091	0.004	Yes	2.726	-0.004	2.0	GoodResponse	1	0.268	516.588	9	54	Target	Win	True
517.588	0.3	Win2	0.7091	0.004	Yes	2.726	-0.004	2.0	GoodResponse	1	0.268	n/a	9	54	ButtonPress	Win	True
517.621	0.41	Win2	0.7091	n/a	Yes	2.726	n/a	n/a	GoodResponse	1	n/a	n/a	9	54	Blank	Win	True
518.022	1.45	Win2	0.7091	n/a	Yes	2.726	n/a	5.0	GoodResponse	1	0.049	517.071	9	54	Feedback	Win	True
519.476	2.726	Win2	0.7091	n/a	Yes	2.726	n/a	n/a	GoodResponse	1	0.0	n/a	9	54	ISIslide	Win	True
522.218	0.25	Control	0.7143	0.0	Yes	3.032	0.018	n/a	GoodResponse	0	n/a	n/a	9	55	Cue	Neutral	True
522.468	3.95	Control	0.7143	0.001	Yes	3.032	0.0	n/a	GoodResponse	0	n/a	n/a	9	55	Fixation	Neutral	True
526.414	0.28	Control	0.7143	0.004	Yes	3.032	-0.004	2.0	GoodResponse	0	0.19	525.604	9	55	Target	Neutral	True
526.604	0.3	Control	0.7143	0.004	Yes	3.032	-0.004	2.0	GoodResponse	0	0.19	n/a	9	55	ButtonPress	Neutral	True
526.698	0.42	Control	0.7143	n/a	Yes	3.032	n/a	n/a	GoodResponse	0	n/a	n/a	9	55	Blank	Neutral	True
527.116	1.45	Control	0.7143	n/a	Yes	3.032	n/a	5.0	GoodResponse	0	0.027	526.143	9	55	Feedback	Neutral	True
528.57	3.032	Control	0.7143	n/a	Yes	3.032	n/a	n/a	GoodResponse	0	0.0	n/a	9	55	ISIslide	Neutral	True
531.629	0.25	Control	0.7193	0.0	Yes	2.821	0.029	n/a	GoodResponse	0	n/a	n/a	9	56	Cue	Neutral	True
531.88	3.95	Control	0.7193	0.0	Yes	2.821	0.001	n/a	GoodResponse	0	n/a	n/a	9	56	Fixation	Neutral	True
535.825	0.27	Control	0.7193	0.004	Yes	2.821	-0.004	2.0	GoodResponse	0	0.219	535.044	9	56	Target	Neutral	True
536.044	0.3	Control	0.7193	0.004	Yes	2.821	-0.004	2.0	GoodResponse	0	0.219	n/a	9	56	ButtonPress	Neutral	True
536.109	0.43	Control	0.7193	n/a	Yes	2.821	n/a	n/a	GoodResponse	0	n/a	n/a	9	56	Blank	Neutral	True
536.527	1.45	Control	0.7193	n/a	Yes	2.821	n/a	5.0	GoodResponse	0	0.031	535.558	9	56	Feedback	Neutral	True
537.982	2.821	Control	0.7193	n/a	Yes	2.821	n/a	n/a	GoodResponse	0	0.0	n/a	9	56	ISIslide	Neutral	True
540.823	0.25	Control	0.7241	0.001	Yes	3.477	0.023	n/a	GoodResponse	0	n/a	n/a	9	57	Cue	Neutral	True
541.074	4.0	Control	0.7241	0.0	Yes	3.477	0.001	n/a	GoodResponse	0	n/a	n/a	9	57	Fixation	Neutral	True
545.069	0.26	Control	0.7241	0.004	Yes	3.477	-0.004	2.0	GoodResponse	0	0.217	544.286	9	57	Target	Neutral	True
545.286	0.3	Control	0.7241	0.004	Yes	3.477	-0.004	2.0	GoodResponse	0	0.217	n/a	9	57	ButtonPress	Neutral	True
545.337	0.44	Control	0.7241	n/a	Yes	3.477	n/a	n/a	GoodResponse	0	n/a	n/a	9	57	Blank	Neutral	True
545.772	1.45	Control	0.7241	n/a	Yes	3.477	n/a	5.0	GoodResponse	0	0.005	544.777	9	57	Feedback	Neutral	True
547.226	3.477	Control	0.7241	n/a	Yes	3.477	n/a	n/a	GoodResponse	0	0.0	n/a	9	57	ISIslide	Neutral	True
550.72	0.25	Win2	0.7288	0.0	Yes	2.73	0.02	n/a	GoodResponse	1	n/a	n/a	10	58	Cue	Win	True
550.97	4.05	Win2	0.7288	0.001	Yes	2.73	0.0	n/a	GoodResponse	1	n/a	n/a	10	58	Fixation	Win	True
555.016	0.25	Win2	0.7288	0.004	Yes	2.73	-0.004	2.0	GoodResponse	1	0.222	554.238	10	58	Target	Win	True
555.238	0.3	Win2	0.7288	0.004	Yes	2.73	-0.004	2.0	GoodResponse	1	0.222	n/a	10	58	ButtonPress	Win	True
555.267	0.45	Win2	0.7288	n/a	Yes	2.73	n/a	n/a	GoodResponse	1	n/a	n/a	10	58	Blank	Win	True
555.718	1.45	Win2	0.7288	n/a	Yes	2.73	n/a	5.0	GoodResponse	1	0.011	554.729	10	58	Feedback	Win	True
557.172	2.73	Win2	0.7288	n/a	Yes	2.73	n/a	n/a	GoodResponse	1	0.0	n/a	10	58	ISIslide	Win	True
559.931	0.25	Lose2	0.7333	0.0	Yes	2.669	0.031	n/a	GoodResponse	0	n/a	n/a	10	59	Cue	AvoidedLoss	True
560.181	4.0	Lose2	0.7333	0.001	Yes	2.669	0.0	n/a	GoodResponse	0	n/a	n/a	10	59	Fixation	AvoidedLoss	True
564.177	0.24	Lose2	0.7333	0.004	Yes	2.669	-0.004	2.0	GoodResponse	0	0.218	563.395	10	59	Target	AvoidedLoss	True
564.395	0.3	Lose2	0.7333	0.004	Yes	2.669	-0.004	2.0	GoodResponse	0	0.218	n/a	10	59	ButtonPress	AvoidedLoss	True
564.427	0.46	Lose2	0.7333	n/a	Yes	2.669	n/a	n/a	GoodResponse	0	n/a	n/a	10	59	Blank	AvoidedLoss	True
564.879	1.45	Lose2	0.7333	n/a	Yes	2.669	n/a	5.0	GoodResponse	0	0.02	563.899	10	59	Feedback	AvoidedLoss	True
566.333	2.669	Lose2	0.7333	n/a	Yes	2.669	n/a	n/a	GoodResponse	0	0.0	n/a	10	59	ISIslide	AvoidedLoss	True
569.025	0.25	Control	0.7376999999999999	0.0	Yes	2.675	0.025	n/a	GoodResponse	0	n/a	n/a	10	60	Cue	Neutral	True
569.275	4.0	Control	0.7376999999999999	0.0	Yes	2.675	0.0	n/a	GoodResponse	0	n/a	n/a	10	60	Fixation	Neutral	True
573.271	0.23	Control	0.7376999999999999	0.004	Yes	2.675	-0.004	2.0	GoodResponse	0	0.227	572.498	10	60	Target	Neutral	True
573.498	0.3	Control	0.7376999999999999	0.004	Yes	2.675	-0.004	2.0	GoodResponse	0	0.227	n/a	10	60	ButtonPress	Neutral	True
573.505	0.47	Control	0.7376999999999999	n/a	Yes	2.675	n/a	n/a	GoodResponse	0	n/a	n/a	10	60	Blank	Neutral	True
573.973	1.45	Control	0.7376999999999999	n/a	Yes	2.675	n/a	5.0	GoodResponse	0	0.048	573.021	10	60	Feedback	Neutral	True
575.427	2.675	Control	0.7376999999999999	n/a	Yes	2.675	n/a	n/a	GoodResponse	0	0.0	n/a	10	60	ISIslide	Neutral	True
578.119	0.25	Lose2	0.7258	0.0	No	2.981	0.019	n/a	LatePress	-1	n/a	n/a	9	61	Cue	Loss	True
578.369	4.0	Lose2	0.7258	0.0	No	2.981	0.0	n/a	LatePress	-1	n/a	n/a	9	61	Fixation	Loss	True
582.365	0.22	Lose2	0.7258	0.004	No	2.981	-0.004	2.0	LatePress	-1	0.222	581.587	9	61	Target	Loss	True
582.587	0.3	Lose2	0.7258	0.004	No	2.981	-0.004	2.0	LatePress	-1	0.222	n/a	9	61	ButtonPress	Loss	True
582.599	0.48	Lose2	0.7258	n/a	No	2.981	n/a	n/a	LatePress	-1	n/a	n/a	9	61	Blank	Loss	True
583.067	1.45	Lose2	0.7258	n/a	No	2.981	n/a	5.0	LatePress	-1	0.028	582.095	9	61	Feedback	Loss	True
584.521	2.981	Lose2	0.7258	n/a	No	2.981	n/a	n/a	LatePress	-1	0.0	n/a	9	61	ISIslide	Loss	True
587.53	0.25	Lose2	0.7302	0.0	Yes	2.87	0.03	n/a	GoodResponse	0	n/a	n/a	9	62	Cue	AvoidedLoss	True
587.781	3.9	Lose2	0.7302	0.0	Yes	2.87	0.001	n/a	GoodResponse	0	n/a	n/a	9	62	Fixation	AvoidedLoss	True
591.676	0.21	Lose2	0.7302	0.004	Yes	2.87	-0.004	2.0	GoodResponse	0	0.207	590.883	9	62	Target	AvoidedLoss	True
591.883	0.3	Lose2	0.7302	0.004	Yes	2.87	-0.004	2.0	GoodResponse	0	0.207	n/a	9	62	ButtonPress	AvoidedLoss	True
591.893	0.49	Lose2	0.7302	n/a	Yes	2.87	n/a	n/a	GoodResponse	0	n/a	n/a	9	62	Blank	AvoidedLoss	True
592.378	1.45	Lose2	0.7302	n/a	Yes	2.87	n/a	5.0	GoodResponse	0	0.033	591.411	9	62	Feedback	AvoidedLoss	True
593.832	2.87	Lose2	0.7302	n/a	Yes	2.87	n/a	n/a	GoodResponse	0	0.0	n/a	9	62	ISIslide	AvoidedLoss	True
596.724	0.25	Lose2	0.7188	0.0	No	2.626	0.024	n/a	NoResponse	-1	n/a	n/a	8	63	Cue	Loss	True
596.975	4.05	Lose2	0.7188	0.0	No	2.626	0.001	n/a	NoResponse	-1	n/a	n/a	8	63	Fixation	Loss	True
601.02	0.2	Lose2	0.7188	0.004	No	2.626	-0.004	2.0	NoResponse	-1	0.236	600.256	8	63	Target	Loss	True
601.221	0.5	Lose2	0.7188	n/a	No	2.626	n/a	n/a	NoResponse	-1	n/a	n/a	8	63	Blank	Loss	True
601.256	0.3	Lose2	0.7188	0.004	No	2.626	-0.004	2.0	NoResponse	-1	0.236	n/a	8	63	ButtonPress	Loss	True
601.723	1.45	Lose2	0.7188	n/a	No	2.626	n/a	5.0	NoResponse	-1	0.005	600.728	8	63	Feedback	Loss	True
603.177	2.626	Lose2	0.7188	n/a	No	2.626	n/a	n/a	NoResponse	-1	0.0	n/a	8	63	ISIslide	Loss	True
605.818	0.25	Win2	0.7077	0.0	No	3.132	0.018	n/a	NoResponse	0	n/a	n/a	8	64	Cue	MissedWin	True
606.069	4.15	Win2	0.7077	0.0	No	3.132	0.001	n/a	NoResponse	0	n/a	n/a	8	64	Fixation	MissedWin	True
610.215	0.19	Win2	0.7077	0.003	No	3.132	-0.003	2.0	NoResponse	0	0.222	609.437	8	64	Target	MissedWin	True
610.415	0.51	Win2	0.7077	n/a	No	3.132	n/a	n/a	NoResponse	0	n/a	n/a	8	64	Blank	MissedWin	True
610.437	0.3	Win2	0.7077	0.003	No	3.132	-0.003	2.0	NoResponse	0	0.222	n/a	8	64	ButtonPress	MissedWin	True
610.917	1.45	Win2	0.7077	n/a	No	3.132	n/a	5.0	NoResponse	0	0.031	609.948	8	64	Feedback	MissedWin	True
612.371	3.132	Win2	0.7077	n/a	No	3.132	n/a	n/a	NoResponse	0	0.0	n/a	8	64	ISIslide	MissedWin	True
615.514	0.25	Control	0.6970000000000001	0.0	No	2.786	0.014	n/a	NoResponse	0	n/a	n/a	8	65	Cue	Neutral	True
615.765	4.0	Control	0.6970000000000001	0.0	No	2.786	0.001	n/a	NoResponse	0	n/a	n/a	8	65	Fixation	Neutral	True
619.76	0.18	Control	0.6970000000000001	0.004	No	2.786	-0.004	2.0	NoResponse	0	0.239	618.999	8	65	Target	Neutral	True
619.944	0.52	Control	0.6970000000000001	n/a	No	2.786	n/a	n/a	NoResponse	0	n/a	n/a	8	65	Blank	Neutral	True
619.999	0.3	Control	0.6970000000000001	0.004	No	2.786	-0.004	2.0	NoResponse	0	0.239	n/a	8	65	ButtonPress	Neutral	True
620.462	1.45	Control	0.6970000000000001	n/a	No	2.786	n/a	5.0	NoResponse	0	0.047	619.509	8	65	Feedback	Neutral	True
621.916	2.786	Control	0.6970000000000001	n/a	No	2.786	n/a	n/a	NoResponse	0	0.0	n/a	8	65	ISIslide	Neutral	True
624.725	0.25	Win2	0.6866	0.0	No	2.775	0.025	n/a	NoResponse	0	n/a	n/a	8	66	Cue	MissedWin	True
624.976	3.9	Win2	0.6866	0.0	No	2.775	0.001	n/a	NoResponse	0	n/a	n/a	8	66	Fixation	MissedWin	True
628.871	0.17	Win2	0.6866	0.004	No	2.775	-0.004	2.0	NoResponse	0	0.211	628.082	8	66	Target	MissedWin	True
629.054	0.53	Win2	0.6866	n/a	No	2.775	n/a	n/a	NoResponse	0	n/a	n/a	8	66	Blank	MissedWin	True
629.082	0.3	Win2	0.6866	0.004	No	2.775	-0.004	2.0	NoResponse	0	0.211	n/a	8	66	ButtonPress	MissedWin	True
629.573	1.45	Win2	0.6866	n/a	No	2.775	n/a	5.0	NoResponse	0	0.009	628.582	8	66	Feedback	MissedWin	True
631.027	2.775	Win2	0.6866	n/a	No	2.775	n/a	n/a	NoResponse	0	0.0	n/a	8	66	ISIslide	MissedWin	True
633.819	0.25	Control	0.6765000000000001	0.0	No	2.731	0.019	n/a	NoResponse	0	n/a	n/a	8	67	Cue	Neutral	True
634.07	3.95	Control	0.6765000000000001	0.0	No	2.731	0.001	n/a	NoResponse	0	n/a	n/a	8	67	Fixation	Neutral	True
638.015	0.16	Control	0.6765000000000001	0.004	No	2.731	-0.004	2.0	NoResponse	0	0.192	637.207	8	67	Target	Neutral	True
638.182	0.54	Control	0.6765000000000001	n/a	No	2.731	n/a	n/a	NoResponse	0	n/a	n/a	8	67	Blank	Neutral	True
638.207	0.3	Control	0.6765000000000001	0.004	No	2.731	-0.004	2.0	NoResponse	0	0.192	n/a	8	67	ButtonPress	Neutral	True
638.717	1.45	Control	0.6765000000000001	n/a	No	2.731	n/a	5.0	NoResponse	0	0.036	637.753	8	67	Feedback	Neutral	True
640.171	2.731	Control	0.6765000000000001	n/a	No	2.731	n/a	n/a	NoResponse	0	0.0	n/a	8	67	ISIslide	Neutral	True
642.929	0.25	Win2	0.6667000000000001	0.0	No	3.071	0.029	n/a	NoResponse	0	n/a	n/a	8	68	Cue	MissedWin	True
643.18	4.0	Win2	0.6667000000000001	0.0	No	3.071	0.001	n/a	NoResponse	0	n/a	n/a	8	68	Fixation	MissedWin	True
647.175	0.15	Win2	0.6667000000000001	0.004	No	3.071	-0.004	2.0	NoResponse	0	0.222	646.397	8	68	Target	MissedWin	True
647.326	0.55	Win2	0.6667000000000001	n/a	No	3.071	n/a	n/a	NoResponse	0	n/a	n/a	8	68	Blank	MissedWin	True
647.397	0.3	Win2	0.6667000000000001	0.004	No	3.071	-0.004	2.0	NoResponse	0	0.222	n/a	8	68	ButtonPress	MissedWin	True
647.878	1.45	Win2	0.6667000000000001	n/a	No	3.071	n/a	5.0	NoResponse	0	0.045	646.923	8	68	Feedback	MissedWin	True
649.332	3.071	Win2	0.6667000000000001	n/a	No	3.071	n/a	n/a	NoResponse	0	0.0	n/a	8	68	ISIslide	MissedWin	True
652.425	0.25	Win2	0.6570999999999999	0.0	No	3.225	0.025	n/a	NoResponse	0	n/a	n/a	8	69	Cue	MissedWin	True
652.675	3.95	Win2	0.6570999999999999	0.0	No	3.225	0.0	n/a	NoResponse	0	n/a	n/a	8	69	Fixation	MissedWin	True
656.637	0.15	Win2	0.6570999999999999	0.0	No	3.225	0.012	2.0	NoResponse	0	0.186	655.823	8	69	Target	MissedWin	True
656.771	0.55	Win2	0.6570999999999999	n/a	No	3.225	n/a	n/a	NoResponse	0	n/a	n/a	8	69	Blank	MissedWin	True
656.823	0.3	Win2	0.6570999999999999	0.0	No	3.225	0.012	2.0	NoResponse	0	0.186	n/a	8	69	ButtonPress	MissedWin	True
657.323	1.45	Win2	0.6570999999999999	n/a	No	3.225	n/a	5.0	NoResponse	0	0.014	656.337	8	69	Feedback	MissedWin	True
658.777	3.225	Win2	0.6570999999999999	n/a	No	3.225	n/a	n/a	NoResponse	0	0.0	n/a	8	69	ISIslide	MissedWin	True
662.02	0.25	Lose2	0.6479	0.0	No	3.03	0.02	n/a	NoResponse	-1	n/a	n/a	7	70	Cue	Loss	True
662.271	4.05	Lose2	0.6479	0.0	No	3.03	0.001	n/a	NoResponse	-1	n/a	n/a	7	70	Fixation	Loss	True
666.316	0.15	Lose2	0.6479	0.004	No	3.03	-0.004	2.0	NoResponse	-1	0.19	665.506	7	70	Target	Loss	True
666.467	0.55	Lose2	0.6479	n/a	No	3.03	n/a	n/a	NoResponse	-1	n/a	n/a	7	70	Blank	Loss	True
666.506	0.3	Lose2	0.6479	0.004	No	3.03	-0.004	2.0	NoResponse	-1	0.19	n/a	7	70	ButtonPress	Loss	True
667.018	1.45	Lose2	0.6479	n/a	No	3.03	n/a	5.0	NoResponse	-1	0.027	666.045	7	70	Feedback	Loss	True
668.473	3.03	Lose2	0.6479	n/a	No	3.03	n/a	n/a	NoResponse	-1	0.0	n/a	7	70	ISIslide	Loss	True
671.515	0.25	Win2	0.6389	0.0	No	2.735	0.015	n/a	NoResponse	0	n/a	n/a	7	71	Cue	MissedWin	True
671.766	4.05	Win2	0.6389	0.0	No	2.735	0.001	n/a	NoResponse	0	n/a	n/a	7	71	Fixation	MissedWin	True
675.811	0.16	Win2	0.6389	0.004	No	2.735	-0.004	2.0	NoResponse	0	0.204	675.015	7	71	Target	MissedWin	True
675.978	0.54	Win2	0.6389	n/a	No	2.735	n/a	n/a	NoResponse	0	n/a	n/a	7	71	Blank	MissedWin	True
676.015	0.3	Win2	0.6389	0.004	No	2.735	-0.004	2.0	NoResponse	0	0.204	n/a	7	71	ButtonPress	MissedWin	True
676.513	1.45	Win2	0.6389	n/a	No	2.735	n/a	5.0	NoResponse	0	0.044	675.557	7	71	Feedback	MissedWin	True
677.968	2.735	Win2	0.6389	n/a	No	2.735	n/a	n/a	NoResponse	0	0.0	n/a	7	71	ISIslide	MissedWin	True
680.726	0.25	Win2	0.6301	0.0	No	2.774	0.026	n/a	NoResponse	0	n/a	n/a	7	72	Cue	MissedWin	True
680.977	4.1	Win2	0.6301	0.0	No	2.774	0.001	n/a	NoResponse	0	n/a	n/a	7	72	Fixation	MissedWin	True
685.072	0.17	Win2	0.6301	0.004	No	2.774	-0.004	2.0	NoResponse	0	0.219	684.291	7	72	Target	MissedWin	True
685.256	0.53	Win2	0.6301	n/a	No	2.774	n/a	n/a	NoResponse	0	n/a	n/a	7	72	Blank	MissedWin	True
685.291	0.3	Win2	0.6301	0.004	No	2.774	-0.004	2.0	NoResponse	0	0.219	n/a	7	72	ButtonPress	MissedWin	True
685.774	1.45	Win2	0.6301	n/a	No	2.774	n/a	5.0	NoResponse	0	0.005	684.779	7	72	Feedback	MissedWin	True
687.229	2.774	Win2	0.6301	n/a	No	2.774	n/a	n/a	NoResponse	0	0.0	n/a	7	72	ISIslide	MissedWin	True
690.02	0.25	Win2	0.6215999999999999	0.001	No	2.68	0.02	n/a	NoResponse	0	n/a	n/a	7	73	Cue	MissedWin	True
690.271	4.0	Win2	0.6215999999999999	0.0	No	2.68	0.001	n/a	NoResponse	0	n/a	n/a	7	73	Fixation	MissedWin	True
694.267	0.18	Win2	0.6215999999999999	0.003	No	2.68	-0.003	2.0	NoResponse	0	0.193	693.46	7	73	Target	MissedWin	True
694.45	0.52	Win2	0.6215999999999999	n/a	No	2.68	n/a	n/a	NoResponse	0	n/a	n/a	7	73	Blank	MissedWin	True
694.46	0.3	Win2	0.6215999999999999	0.003	No	2.68	-0.003	2.0	NoResponse	0	0.193	n/a	7	73	ButtonPress	MissedWin	True
694.969	1.45	Win2	0.6215999999999999	n/a	No	2.68	n/a	5.0	NoResponse	0	0.027	693.996	7	73	Feedback	MissedWin	True
696.423	2.68	Win2	0.6215999999999999	n/a	No	2.68	n/a	n/a	NoResponse	0	0.0	n/a	7	73	ISIslide	MissedWin	True
699.114	0.25	Lose2	0.6133	0.001	No	2.636	0.014	n/a	NoResponse	-1	n/a	n/a	6	74	Cue	Loss	True
699.365	4.05	Lose2	0.6133	0.0	No	2.636	0.001	n/a	NoResponse	-1	n/a	n/a	6	74	Fixation	Loss	True
703.411	0.19	Lose2	0.6133	0.003	No	2.636	-0.003	2.0	NoResponse	-1	0.212	702.623	6	74	Target	Loss	True
703.611	0.51	Lose2	0.6133	n/a	No	2.636	n/a	n/a	NoResponse	-1	n/a	n/a	6	74	Blank	Loss	True
703.623	0.3	Lose2	0.6133	0.003	No	2.636	-0.003	2.0	NoResponse	-1	0.212	n/a	6	74	ButtonPress	Loss	True
704.113	1.45	Lose2	0.6133	n/a	No	2.636	n/a	5.0	NoResponse	-1	0.006	703.119	6	74	Feedback	Loss	True
705.567	2.636	Lose2	0.6133	n/a	No	2.636	n/a	n/a	NoResponse	-1	0.0	n/a	6	74	ISIslide	Loss	True
708.225	0.25	Lose2	0.6053000000000001	0.0	No	2.925	0.025	n/a	NoResponse	-1	n/a	n/a	5	75	Cue	Loss	True
708.476	3.95	Lose2	0.6053000000000001	0.0	No	2.925	0.001	n/a	NoResponse	-1	n/a	n/a	5	75	Fixation	Loss	True
712.421	0.2	Lose2	0.6053000000000001	0.004	No	2.925	-0.004	2.0	NoResponse	-1	0.307	711.728	5	75	Target	Loss	True
712.622	0.5	Lose2	0.6053000000000001	n/a	No	2.925	n/a	n/a	NoResponse	-1	n/a	n/a	5	75	Blank	Loss	True
712.728	0.3	Lose2	0.6053000000000001	0.004	No	2.925	-0.004	2.0	NoResponse	-1	0.307	n/a	5	75	ButtonPress	Loss	True
713.123	1.45	Lose2	0.6053000000000001	n/a	No	2.925	n/a	5.0	NoResponse	-1	0.019	712.142	5	75	Feedback	Loss	True
714.577	2.925	Lose2	0.6053000000000001	n/a	No	2.925	n/a	n/a	NoResponse	-1	0.0	n/a	5	75	ISIslide	Loss	True
717.52	0.25	Control	0.5974	0.0	No	3.23	0.02	n/a	NoResponse	0	n/a	n/a	5	76	Cue	Neutral	True
717.77	4.05	Control	0.5974	0.0	No	3.23	0.0	n/a	NoResponse	0	n/a	n/a	5	76	Fixation	Neutral	True
721.816	0.21	Control	0.5974	0.004	No	3.23	-0.004	2.0	NoResponse	0	0.402	721.218	5	76	Target	Neutral	True
722.033	0.49	Control	0.5974	n/a	No	3.23	n/a	n/a	NoResponse	0	n/a	n/a	5	76	Blank	Neutral	True
722.218	0.3	Control	0.5974	0.004	No	3.23	-0.004	2.0	NoResponse	0	0.402	n/a	5	76	ButtonPress	Neutral	True
722.518	1.45	Control	0.5974	n/a	No	3.23	n/a	5.0	NoResponse	0	0.039	721.557	5	76	Feedback	Neutral	True
723.972	3.23	Control	0.5974	n/a	No	3.23	n/a	n/a	NoResponse	0	0.0	n/a	5	76	ISIslide	Neutral	True
727.215	0.25	Lose2	0.6026	0.0	Yes	2.585	0.015	n/a	GoodResponse	0	n/a	n/a	5	77	Cue	AvoidedLoss	True
727.466	3.95	Lose2	0.6026	0.0	Yes	2.585	0.001	n/a	GoodResponse	0	n/a	n/a	5	77	Fixation	AvoidedLoss	True
731.411	0.22	Lose2	0.6026	0.004	Yes	2.585	-0.004	2.0	GoodResponse	0	0.196	730.607	5	77	Target	AvoidedLoss	True
731.607	0.3	Lose2	0.6026	0.004	Yes	2.585	-0.004	2.0	GoodResponse	0	0.196	n/a	5	77	ButtonPress	AvoidedLoss	True
731.645	0.48	Lose2	0.6026	n/a	Yes	2.585	n/a	n/a	GoodResponse	0	n/a	n/a	5	77	Blank	AvoidedLoss	True
732.113	1.45	Lose2	0.6026	n/a	Yes	2.585	n/a	5.0	GoodResponse	0	0.006	731.119	5	77	Feedback	AvoidedLoss	True
733.568	2.585	Lose2	0.6026	n/a	Yes	2.585	n/a	n/a	GoodResponse	0	0.0	n/a	5	77	ISIslide	AvoidedLoss	True
