onset	duration	cue_type	current_mean_accuracy	duration_error	is_hit	isi_adjusted	onset_delay	response	response_type	reward	rt	rt_time	total_reward	trial_number	trial_phase	trial_type	one_press
11.112	0.25	Control	1.0	0.0	Yes	2.938	0.012	n/a	GoodResponse	0	n/a	n/a	0	0	Cue	Neutral	False
11.362	3.85	Control	1.0	0.0	Yes	2.938	0.0	4.0	GoodResponse	0	0.408	10.77	0	0	Fixation	Neutral	False
11.77	0.3	Control	1.0	0.0	Yes	2.938	0.0	4.0	GoodResponse	0	0.408	n/a	0	0	ButtonPress	Neutral	False
15.224	0.4	Control	1.0	0.0	Yes	2.938	0.012	4.0	GoodResponse	0	0.209	14.433	0	0	Target	Neutral	False
15.433	0.3	Control	1.0	0.0	Yes	2.938	0.012	4.0	GoodResponse	0	0.209	n/a	0	0	ButtonPress	Neutral	False
15.608	0.3	Control	1.0	n/a	Yes	2.938	n/a	n/a	GoodResponse	0	n/a	n/a	0	0	Blank	Neutral	False
15.909	1.45	Control	1.0	n/a	Yes	2.938	n/a	5.0	GoodResponse	0	0.017	14.926	0	0	Feedback	Neutral	False
17.364	2.938	Control	1.0	n/a	Yes	2.938	n/a	n/a	GoodResponse	0	0.0	n/a	0	0	ISIslide	Neutral	False
20.322	0.25	Lose2	1.0	0.001	Yes	2.778	0.022	n/a	GoodResponse	0	n/a	n/a	0	1	Cue	AvoidedLoss	True
20.573	4.0	Lose2	1.0	0.0	Yes	2.778	0.001	n/a	GoodResponse	0	n/a	n/a	0	1	Fixation	AvoidedLoss	True
24.569	0.39	Lose2	1.0	0.003	Yes	2.778	-0.003	4.0	GoodResponse	0	0.203	23.772	0	1	Target	AvoidedLoss	True
24.772	0.3	Lose2	1.0	0.003	Yes	2.778	-0.003	4.0	GoodResponse	0	0.203	n/a	0	1	ButtonPress	AvoidedLoss	True
24.97	0.31	Lose2	1.0	n/a	Yes	2.778	n/a	n/a	GoodResponse	0	n/a	n/a	0	1	Blank	AvoidedLoss	True
25.271	1.45	Lose2	1.0	n/a	Yes	2.778	n/a	5.0	GoodResponse	0	0.021	24.292	0	1	Feedback	AvoidedLoss	True
26.725	2.778	Lose2	1.0	n/a	Yes	2.778	n/a	n/a	GoodResponse	0	0.0	n/a	0	1	ISIslide	AvoidedLoss	True
29.517	0.25	Control	1.0	0.0	Yes	2.583	0.017	n/a	GoodResponse	0	n/a	n/a	0	2	Cue	Neutral	True
29.767	4.1	Control	1.0	0.0	Yes	2.583	0.0	n/a	GoodResponse	0	n/a	n/a	0	2	Fixation	Neutral	True
33.863	0.38	Control	1.0	0.004	Yes	2.583	-0.004	4.0	GoodResponse	0	0.233	33.096	0	2	Target	Neutral	True
34.096	0.3	Control	1.0	0.004	Yes	2.583	-0.004	4.0	GoodResponse	0	0.233	n/a	0	2	ButtonPress	Neutral	True
34.247	0.32	Control	1.0	n/a	Yes	2.583	n/a	n/a	GoodResponse	0	n/a	n/a	0	2	Blank	Neutral	True
34.565	1.45	Control	1.0	n/a	Yes	2.583	n/a	5.0	GoodResponse	0	0.043	33.608	0	2	Feedback	Neutral	True
36.019	2.583	Control	1.0	n/a	Yes	2.583	n/a	n/a	GoodResponse	0	0.0	n/a	0	2	ISIslide	Neutral	True
38.627	0.25	Win2	1.0	0.0	Yes	2.823	0.027	n/a	GoodResponse	1	n/a	n/a	1	3	Cue	Win	True
38.878	3.95	Win2	1.0	0.0	Yes	2.823	0.001	n/a	GoodResponse	1	n/a	n/a	1	3	Fixation	Win	True
42.823	0.37	Win2	1.0	0.004	Yes	2.823	-0.004	4.0	GoodResponse	1	0.213	42.036	1	3	Target	Win	True
43.036	0.3	Win2	1.0	0.004	Yes	2.823	-0.004	4.0	GoodResponse	1	0.213	n/a	1	3	ButtonPress	Win	True
43.208	0.33	Win2	1.0	n/a	Yes	2.823	n/a	n/a	GoodResponse	1	n/a	n/a	1	3	Blank	Win	True
43.525	1.45	Win2	1.0	n/a	Yes	2.823	n/a	5.0	GoodResponse	1	0.01	42.535	1	3	Feedback	Win	True
44.98	2.823	Win2	1.0	n/a	Yes	2.823	n/a	n/a	GoodResponse	1	0.0	n/a	1	3	ISIslide	Win	True
47.821	0.25	Win2	1.0	0.001	Yes	3.279	0.021	n/a	GoodResponse	1	n/a	n/a	2	4	Cue	Win	True
48.072	4.0	Win2	1.0	0.0	Yes	3.279	0.001	n/a	GoodResponse	1	n/a	n/a	2	4	Fixation	Win	True
52.068	0.36	Win2	1.0	0.003	Yes	3.279	-0.003	4.0	GoodResponse	1	0.201	51.269	2	4	Target	Win	True
52.269	0.3	Win2	1.0	0.003	Yes	3.279	-0.003	4.0	GoodResponse	1	0.201	n/a	2	4	ButtonPress	Win	True
52.435	0.34	Win2	1.0	n/a	Yes	3.279	n/a	n/a	GoodResponse	1	n/a	n/a	2	4	Blank	Win	True
52.77	1.45	Win2	1.0	n/a	Yes	3.279	n/a	5.0	GoodResponse	1	0.034	51.804	2	4	Feedback	Win	True
54.224	3.279	Win2	1.0	n/a	Yes	3.279	n/a	n/a	GoodResponse	1	0.0	n/a	2	4	ISIslide	Win	True
57.517	0.25	Win2	1.0	0.0	Yes	2.783	0.017	n/a	GoodResponse	1	n/a	n/a	3	5	Cue	Win	True
57.768	4.0	Win2	1.0	0.0	Yes	2.783	0.001	n/a	GoodResponse	1	n/a	n/a	3	5	Fixation	Win	True
61.763	0.35	Win2	1.0	0.004	Yes	2.783	-0.004	4.0	GoodResponse	1	0.217	60.98	3	5	Target	Win	True
61.98	0.3	Win2	1.0	0.004	Yes	2.783	-0.004	4.0	GoodResponse	1	0.217	n/a	3	5	ButtonPress	Win	True
62.114	0.35	Win2	1.0	n/a	Yes	2.783	n/a	n/a	GoodResponse	1	n/a	n/a	3	5	Blank	Win	True
62.465	1.45	Win2	1.0	n/a	Yes	2.783	n/a	5.0	GoodResponse	1	0.046	61.511	3	5	Feedback	Win	True
63.92	2.783	Win2	1.0	n/a	Yes	2.783	n/a	n/a	GoodResponse	1	0.0	n/a	3	5	ISIslide	Win	True
66.728	0.25	Lose2	1.0	0.0	Yes	2.722	0.028	n/a	GoodResponse	0	n/a	n/a	3	6	Cue	AvoidedLoss	True
66.979	3.95	Lose2	1.0	0.0	Yes	2.722	0.001	n/a	GoodResponse	0	n/a	n/a	3	6	Fixation	AvoidedLoss	True
70.924	0.34	Lose2	1.0	0.004	Yes	2.722	-0.004	4.0	GoodResponse	0	0.235	70.159	3	6	Target	AvoidedLoss	True
71.159	0.3	Lose2	1.0	0.004	Yes	2.722	-0.004	4.0	GoodResponse	0	0.235	n/a	3	6	ButtonPress	AvoidedLoss	True
71.275	0.36	Lose2	1.0	n/a	Yes	2.722	n/a	n/a	GoodResponse	0	n/a	n/a	3	6	Blank	AvoidedLoss	True
71.626	1.45	Lose2	1.0	n/a	Yes	2.722	n/a	5.0	GoodResponse	0	0.007	70.633	3	6	Feedback	AvoidedLoss	True
73.08	2.722	Lose2	1.0	n/a	Yes	2.722	n/a	n/a	GoodResponse	0	0.0	n/a	3	6	ISIslide	AvoidedLoss	True
75.822	0.25	Lose2	0.875	0.0	No	4.028	0.022	n/a	NoResponse	-1	n/a	n/a	2	7	Cue	Loss	False
76.073	4.05	Lose2	0.875	0.0	No	4.028	0.001	4.0	NoResponse	-1	3.935	79.008	2	7	Fixation	Loss	False
80.008	0.3	Lose2	0.875	0.0	No	4.028	0.001	4.0	NoResponse	-1	3.935	n/a	2	7	ButtonPress	Loss	False
80.118	0.33	Lose2	0.875	0.004	No	4.028	-0.004	4.0	NoResponse	-1	0.438	79.556	2	7	Target	Loss	False
80.452	0.37	Lose2	0.875	n/a	No	4.028	n/a	n/a	NoResponse	-1	n/a	n/a	2	7	Blank	Loss	False
80.556	0.3	Lose2	0.875	0.004	No	4.028	-0.004	4.0	NoResponse	-1	0.438	n/a	2	7	ButtonPress	Loss	False
80.82	1.45	Lose2	0.875	n/a	No	4.028	n/a	5.0	NoResponse	-1	0.032	79.852	2	7	Feedback	Loss	False
82.275	4.028	Lose2	0.875	n/a	No	4.028	n/a	n/a	NoResponse	-1	0.0	n/a	2	7	ISIslide	Loss	False
86.32	0.25	Lose2	0.8889	0.0	Yes	3.03	0.02	n/a	GoodResponse	0	n/a	n/a	2	8	Cue	AvoidedLoss	True
86.571	3.95	Lose2	0.8889	0.0	Yes	3.03	0.001	n/a	GoodResponse	0	n/a	n/a	2	8	Fixation	AvoidedLoss	True
90.516	0.32	Lose2	0.8889	0.004	Yes	3.03	-0.004	4.0	GoodResponse	0	0.186	89.702	2	8	Target	AvoidedLoss	True
90.702	0.3	Lose2	0.8889	0.004	Yes	3.03	-0.004	4.0	GoodResponse	0	0.186	n/a	2	8	ButtonPress	AvoidedLoss	True
90.85	0.38	Lose2	0.8889	n/a	Yes	3.03	n/a	n/a	GoodResponse	0	n/a	n/a	2	8	Blank	AvoidedLoss	True
91.218	1.45	Lose2	0.8889	n/a	Yes	3.03	n/a	5.0	GoodResponse	0	0.024	90.242	2	8	Feedback	AvoidedLoss	True
92.672	3.03	Lose2	0.8889	n/a	Yes	3.03	n/a	n/a	GoodResponse	0	0.0	n/a	2	8	ISIslide	AvoidedLoss	True
95.715	0.25	Lose2	0.9	0.0	Yes	3.135	0.015	n/a	GoodResponse	0	n/a	n/a	2	9	Cue	AvoidedLoss	True
95.966	3.95	Lose2	0.9	0.0	Yes	3.135	0.001	n/a	GoodResponse	0	n/a	n/a	2	9	Fixation	AvoidedLoss	True
99.911	0.31	Lose2	0.9	0.004	Yes	3.135	-0.004	4.0	GoodResponse	0	0.214	99.125	2	9	Target	AvoidedLoss	True
100.125	0.3	Lose2	0.9	0.004	Yes	3.135	-0.004	4.0	GoodResponse	0	0.214	n/a	2	9	ButtonPress	AvoidedLoss	True
100.228	0.39	Lose2	0.9	n/a	Yes	3.135	n/a	n/a	GoodResponse	0	n/a	n/a	2	9	Blank	AvoidedLoss	True
100.613	1.45	Lose2	0.9	n/a	Yes	3.135	n/a	5.0	GoodResponse	0	0.044	99.657	2	9	Feedback	AvoidedLoss	True
102.067	3.135	Lose2	0.9	n/a	Yes	3.135	n/a	n/a	GoodResponse	0	0.0	n/a	2	9	ISIslide	AvoidedLoss	True
105.227	0.25	Control	0.8181999999999999	0.0	No	3.273	0.027	n/a	NoResponse	0	n/a	n/a	2	10	Cue	Neutral	True
105.477	4.0	Control	0.8181999999999999	0.0	No	3.273	0.0	n/a	NoResponse	0	n/a	n/a	2	10	Fixation	Neutral	True
109.473	0.3	Control	0.8181999999999999	0.004	No	3.273	-0.004	4.0	NoResponse	0	0.309	108.782	2	10	Target	Neutral	True
109.774	0.4	Control	0.8181999999999999	n/a	No	3.273	n/a	n/a	NoResponse	0	n/a	n/a	2	10	Blank	Neutral	True
109.782	0.3	Control	0.8181999999999999	0.004	No	3.273	-0.004	4.0	NoResponse	0	0.309	n/a	2	10	ButtonPress	Neutral	True
110.175	1.45	Control	0.8181999999999999	n/a	No	3.273	n/a	5.0	NoResponse	0	0.043	109.218	2	10	Feedback	Neutral	True
111.629	3.273	Control	0.8181999999999999	n/a	No	3.273	n/a	n/a	NoResponse	0	0.0	n/a	2	10	ISIslide	Neutral	True
114.922	0.25	Lose2	0.8332999999999999	0.0	Yes	2.728	0.022	n/a	GoodResponse	0	n/a	n/a	2	11	Cue	AvoidedLoss	True
115.173	4.05	Lose2	0.8332999999999999	0.0	Yes	2.728	0.001	n/a	GoodResponse	0	n/a	n/a	2	11	Fixation	AvoidedLoss	True
119.219	0.29	Lose2	0.8332999999999999	0.003	Yes	2.728	-0.003	4.0	GoodResponse	0	0.208	118.427	2	11	Target	AvoidedLoss	True
119.427	0.3	Lose2	0.8332999999999999	0.003	Yes	2.728	-0.003	4.0	GoodResponse	0	0.208	n/a	2	11	ButtonPress	AvoidedLoss	True
119.519	0.41	Lose2	0.8332999999999999	n/a	Yes	2.728	n/a	n/a	GoodResponse	0	n/a	n/a	2	11	Blank	AvoidedLoss	True
119.921	1.45	Lose2	0.8332999999999999	n/a	Yes	2.728	n/a	5.0	GoodResponse	0	0.004	118.925	2	11	Feedback	AvoidedLoss	True
121.375	2.728	Lose2	0.8332999999999999	n/a	Yes	2.728	n/a	n/a	GoodResponse	0	0.0	n/a	2	11	ISIslide	AvoidedLoss	True
124.117	0.25	Control	0.8462000000000001	0.0	Yes	2.983	0.017	n/a	GoodResponse	0	n/a	n/a	2	12	Cue	Neutral	True
124.367	3.9	Control	0.8462000000000001	0.0	Yes	2.983	0.0	n/a	GoodResponse	0	n/a	n/a	2	12	Fixation	Neutral	True
128.279	0.28	Control	0.8462000000000001	0.0	Yes	2.983	0.012	4.0	GoodResponse	0	0.196	127.475	2	12	Target	Neutral	True
128.475	0.3	Control	0.8462000000000001	0.0	Yes	2.983	0.012	4.0	GoodResponse	0	0.196	n/a	2	12	ButtonPress	Neutral	True
128.546	0.42	Control	0.8462000000000001	n/a	Yes	2.983	n/a	n/a	GoodResponse	0	n/a	n/a	2	12	Blank	Neutral	True
128.964	1.45	Control	0.8462000000000001	n/a	Yes	2.983	n/a	5.0	GoodResponse	0	0.034	127.998	2	12	Feedback	Neutral	True
130.419	2.983	Control	0.8462000000000001	n/a	Yes	2.983	n/a	n/a	GoodResponse	0	0.0	n/a	2	12	ISIslide	Neutral	True
133.428	0.25	Control	0.8571	0.0	Yes	2.772	0.028	n/a	GoodResponse	0	n/a	n/a	2	13	Cue	Neutral	True
133.678	4.0	Control	0.8571	0.001	Yes	2.772	0.0	n/a	GoodResponse	0	n/a	n/a	2	13	Fixation	Neutral	True
137.674	0.27	Control	0.8571	0.004	Yes	2.772	-0.004	4.0	GoodResponse	0	0.254	136.928	2	13	Target	Neutral	True
137.928	0.3	Control	0.8571	0.004	Yes	2.772	-0.004	4.0	GoodResponse	0	0.254	n/a	2	13	ButtonPress	Neutral	True
137.958	0.43	Control	0.8571	n/a	Yes	2.772	n/a	n/a	GoodResponse	0	n/a	n/a	2	13	Blank	Neutral	True
138.376	1.45	Control	0.8571	n/a	Yes	2.772	n/a	5.0	GoodResponse	0	0.036	137.412	2	13	Feedback	Neutral	True
139.83	2.772	Control	0.8571	n/a	Yes	2.772	n/a	n/a	GoodResponse	0	0.0	n/a	2	13	ISIslide	Neutral	True
142.622	0.25	Win2	0.8667	0.0	Yes	2.678	0.022	n/a	GoodResponse	1	n/a	n/a	3	14	Cue	Win	True
142.873	4.1	Win2	0.8667	0.0	Yes	2.678	0.001	n/a	GoodResponse	1	n/a	n/a	3	14	Fixation	Win	True
146.968	0.26	Win2	0.8667	0.004	Yes	2.678	-0.004	4.0	GoodResponse	1	0.217	146.185	3	14	Target	Win	True
147.185	0.3	Win2	0.8667	0.004	Yes	2.678	-0.004	4.0	GoodResponse	1	0.217	n/a	3	14	ButtonPress	Win	True
147.236	0.44	Win2	0.8667	n/a	Yes	2.678	n/a	n/a	GoodResponse	1	n/a	n/a	3	14	Blank	Win	True
147.67	1.45	Win2	0.8667	n/a	Yes	2.678	n/a	5.0	GoodResponse	1	0.011	146.681	3	14	Feedback	Win	True
149.125	2.678	Win2	0.8667	n/a	Yes	2.678	n/a	n/a	GoodResponse	1	0.0	n/a	3	14	ISIslide	Win	True
151.816	0.25	Control	0.8125	0.0	No	2.984	0.016	n/a	NoResponse	0	n/a	n/a	3	15	Cue	Neutral	True
152.067	4.0	Control	0.8125	0.0	No	2.984	0.001	n/a	NoResponse	0	n/a	n/a	3	15	Fixation	Neutral	True
156.062	0.25	Control	0.8125	0.004	No	2.984	-0.004	4.0	NoResponse	0	0.254	155.316	3	15	Target	Neutral	True
156.313	0.45	Control	0.8125	n/a	No	2.984	n/a	n/a	NoResponse	0	n/a	n/a	3	15	Blank	Neutral	True
156.316	0.3	Control	0.8125	0.004	No	2.984	-0.004	4.0	NoResponse	0	0.254	n/a	3	15	ButtonPress	Neutral	True
156.764	1.45	Control	0.8125	n/a	No	2.984	n/a	5.0	NoResponse	0	0.039	155.803	3	15	Feedback	Neutral	True
158.219	2.984	Control	0.8125	n/a	No	2.984	n/a	n/a	NoResponse	0	0.0	n/a	3	15	ISIslide	Neutral	True
161.228	0.25	Win2	0.7646999999999999	0.0	No	2.872	0.028	n/a	NoResponse	0	n/a	n/a	3	16	Cue	MissedWin	True
161.478	4.0	Win2	0.7646999999999999	0.0	No	2.872	0.0	4.0	NoResponse	0	3.402	163.88	3	16	Fixation	MissedWin	True
164.88	0.3	Win2	0.7646999999999999	0.0	No	2.872	0.0	4.0	NoResponse	0	3.402	n/a	3	16	ButtonPress	MissedWin	True
165.474	0.24	Win2	0.7646999999999999	0.004	No	2.872	-0.004	n/a	NoResponse	0	n/a	n/a	3	16	Target	MissedWin	True
165.724	0.46	Win2	0.7646999999999999	n/a	No	2.872	n/a	n/a	NoResponse	0	n/a	n/a	3	16	Blank	MissedWin	True
166.176	1.45	Win2	0.7646999999999999	n/a	No	2.872	n/a	5.0	NoResponse	0	0.042	165.218	3	16	Feedback	MissedWin	True
167.63	2.872	Win2	0.7646999999999999	n/a	No	2.872	n/a	n/a	NoResponse	0	0.0	n/a	3	16	ISIslide	MissedWin	True
170.522	0.25	Lose2	0.7222	0.0	No	2.728	0.022	n/a	NoResponse	-1	n/a	n/a	2	17	Cue	Loss	True
170.773	3.95	Lose2	0.7222	0.0	No	2.728	0.001	n/a	NoResponse	-1	n/a	n/a	2	17	Fixation	Loss	True
174.718	0.23	Lose2	0.7222	0.004	No	2.728	-0.004	4.0	NoResponse	-1	0.235	173.953	2	17	Target	Loss	True
174.952	0.47	Lose2	0.7222	n/a	No	2.728	n/a	n/a	NoResponse	-1	n/a	n/a	2	17	Blank	Loss	True
174.953	0.3	Lose2	0.7222	0.004	No	2.728	-0.004	4.0	NoResponse	-1	0.235	n/a	2	17	ButtonPress	Loss	True
175.42	1.45	Lose2	0.7222	n/a	No	2.728	n/a	5.0	NoResponse	-1	0.017	174.437	2	17	Feedback	Loss	True
176.874	2.728	Lose2	0.7222	n/a	No	2.728	n/a	n/a	NoResponse	-1	0.0	n/a	2	17	ISIslide	Loss	True
179.616	0.25	Lose2	0.6842	0.0	No	2.734	0.016	n/a	NoResponse	-1	n/a	n/a	1	18	Cue	Loss	True
179.867	4.05	Lose2	0.6842	0.0	No	2.734	0.001	n/a	NoResponse	-1	n/a	n/a	1	18	Fixation	Loss	True
183.912	0.22	Lose2	0.6842	0.004	No	2.734	-0.004	4.0	NoResponse	-1	0.243	183.155	1	18	Target	Loss	True
184.146	0.48	Lose2	0.6842	n/a	No	2.734	n/a	n/a	NoResponse	-1	n/a	n/a	1	18	Blank	Loss	True
184.155	0.3	Lose2	0.6842	0.004	No	2.734	-0.004	4.0	NoResponse	-1	0.243	n/a	1	18	ButtonPress	Loss	True
184.614	1.45	Lose2	0.6842	n/a	No	2.734	n/a	5.0	NoResponse	-1	0.042	183.656	1	18	Feedback	Loss	True
186.069	2.734	Lose2	0.6842	n/a	No	2.734	n/a	n/a	NoResponse	-1	0.0	n/a	1	18	ISIslide	Loss	True
188.827	0.25	Control	0.65	0.0	No	2.923	0.027	n/a	NoResponse	0	n/a	n/a	1	19	Cue	Neutral	True
189.078	3.95	Control	0.65	0.0	No	2.923	0.001	n/a	NoResponse	0	n/a	n/a	1	19	Fixation	Neutral	True
193.023	0.21	Control	0.65	0.004	No	2.923	-0.004	4.0	NoResponse	0	0.234	192.257	1	19	Target	Neutral	True
193.24	0.49	Control	0.65	n/a	No	2.923	n/a	n/a	NoResponse	0	n/a	n/a	1	19	Blank	Neutral	True
193.257	0.3	Control	0.65	0.004	No	2.923	-0.004	4.0	NoResponse	0	0.234	n/a	1	19	ButtonPress	Neutral	True
193.725	1.45	Control	0.65	n/a	No	2.923	n/a	5.0	NoResponse	0	0.006	192.731	1	19	Feedback	Neutral	True
195.179	2.923	Control	0.65	n/a	No	2.923	n/a	n/a	NoResponse	0	0.0	n/a	1	19	ISIslide	Neutral	True
198.121	0.25	Control	0.6667000000000001	0.0	Yes	2.629	0.021	n/a	GoodResponse	0	n/a	n/a	1	20	Cue	Neutral	True
198.372	4.05	Control	0.6667000000000001	0.0	Yes	2.629	0.001	n/a	GoodResponse	0	n/a	n/a	1	20	Fixation	Neutral	True
202.418	0.22	Control	0.6667000000000001	0.003	Yes	2.629	-0.003	4.0	GoodResponse	0	0.21	201.628	1	20	Target	Neutral	True
202.628	0.3	Control	0.6667000000000001	0.003	Yes	2.629	-0.003	4.0	GoodResponse	0	0.21	n/a	1	20	ButtonPress	Neutral	True
202.652	0.48	Control	0.6667000000000001	n/a	Yes	2.629	n/a	n/a	GoodResponse	0	n/a	n/a	1	20	Blank	Neutral	True
203.12	1.45	Control	0.6667000000000001	n/a	Yes	2.629	n/a	5.0	GoodResponse	0	0.024	202.144	1	20	Feedback	Neutral	True
204.574	2.629	Control	0.6667000000000001	n/a	Yes	2.629	n/a	n/a	GoodResponse	0	0.0	n/a	1	20	ISIslide	Neutral	True
207.215	0.25	Control	0.6364	0.0	No	2.785	0.015	n/a	NoResponse	0	n/a	n/a	1	21	Cue	Neutral	True
207.466	4.1	Control	0.6364	0.0	No	2.785	0.001	n/a	NoResponse	0	n/a	n/a	1	21	Fixation	Neutral	True
211.562	0.21	Control	0.6364	0.003	No	2.785	-0.003	4.0	NoResponse	0	0.224	210.786	1	21	Target	Neutral	True
211.779	0.49	Control	0.6364	n/a	No	2.785	n/a	n/a	NoResponse	0	n/a	n/a	1	21	Blank	Neutral	True
211.786	0.3	Control	0.6364	0.003	No	2.785	-0.003	4.0	NoResponse	0	0.224	n/a	1	21	ButtonPress	Neutral	True
212.264	1.45	Control	0.6364	n/a	No	2.785	n/a	5.0	NoResponse	0	0.006	211.27	1	21	Feedback	Neutral	True
213.718	2.785	Control	0.6364	n/a	No	2.785	n/a	n/a	NoResponse	0	0.0	n/a	1	21	ISIslide	Neutral	True
216.526	0.25	Control	0.6087	0.001	No	2.774	0.026	n/a	NoResponse	0	n/a	n/a	1	22	Cue	Neutral	True
216.777	4.0	Control	0.6087	0.0	No	2.774	0.001	n/a	NoResponse	0	n/a	n/a	1	22	Fixation	Neutral	True
220.773	0.22	Control	0.6087	0.003	No	2.774	-0.003	4.0	NoResponse	0	0.344	220.117	1	22	Target	Neutral	True
221.007	0.48	Control	0.6087	n/a	No	2.774	n/a	n/a	NoResponse	0	n/a	n/a	1	22	Blank	Neutral	True
221.117	0.3	Control	0.6087	0.003	No	2.774	-0.003	4.0	NoResponse	0	0.344	n/a	1	22	ButtonPress	Neutral	True
221.475	1.45	Control	0.6087	n/a	No	2.774	n/a	5.0	NoResponse	0	0.011	220.486	1	22	Feedback	Neutral	True
222.929	2.774	Control	0.6087	n/a	No	2.774	n/a	n/a	NoResponse	0	0.0	n/a	1	22	ISIslide	Neutral	True
225.721	0.25	Control	0.5832999999999999	0.0	No	2.779	0.021	n/a	NoResponse	0	n/a	n/a	1	23	Cue	Neutral	True
225.971	3.9	Control	0.5832999999999999	0.0	No	2.779	0.0	n/a	NoResponse	0	n/a	n/a	1	23	Fixation	Neutral	True
229.883	0.23	Control	0.5832999999999999	0.0	No	2.779	0.012	4.0	NoResponse	0	0.244	229.127	1	23	Target	Neutral	True
230.1	0.47	Control	0.5832999999999999	n/a	No	2.779	n/a	n/a	NoResponse	0	n/a	n/a	1	23	Blank	Neutral	True
230.127	0.3	Control	0.5832999999999999	0.0	No	2.779	0.012	4.0	NoResponse	0	0.244	n/a	1	23	ButtonPress	Neutral	True
230.568	1.45	Control	0.5832999999999999	n/a	No	2.779	n/a	5.0	NoResponse	0	0.039	229.607	1	23	Feedback	Neutral	True
232.023	2.779	Control	0.5832999999999999	n/a	No	2.779	n/a	n/a	NoResponse	0	0.0	n/a	1	23	ISIslide	Neutral	True
234.815	0.25	Win2	0.56	0.0	No	3.135	0.015	n/a	PrematurePress	0	n/a	n/a	1	24	Cue	MissedWin	True
235.065	3.95	Win2	0.56	0.0	No	3.135	0.0	n/a	PrematurePress	0	n/a	n/a	1	24	Fixation	MissedWin	True
239.027	0.24	Win2	0.56	0.0	No	3.135	0.012	4.0	PrematurePress	0	0.026	238.053	1	24	Target	MissedWin	True
239.053	0.3	Win2	0.56	0.0	No	3.135	0.012	4.0	PrematurePress	0	0.026	n/a	1	24	ButtonPress	MissedWin	True
239.261	0.46	Win2	0.56	n/a	No	3.135	n/a	n/a	PrematurePress	0	n/a	n/a	1	24	Blank	MissedWin	True
239.713	1.45	Win2	0.56	n/a	No	3.135	n/a	5.0	PrematurePress	0	0.016	238.729	1	24	Feedback	MissedWin	True
241.167	3.135	Win2	0.56	n/a	No	3.135	n/a	n/a	PrematurePress	0	0.0	n/a	1	24	ISIslide	MissedWin	True
244.326	0.25	Win2	0.5769	0.0	Yes	3.074	0.026	n/a	GoodResponse	1	n/a	n/a	2	25	Cue	Win	True
244.577	4.0	Win2	0.5769	0.0	Yes	3.074	0.001	n/a	GoodResponse	1	n/a	n/a	2	25	Fixation	Win	True
248.572	0.25	Win2	0.5769	0.004	Yes	3.074	-0.004	4.0	GoodResponse	1	0.211	247.783	2	25	Target	Win	True
248.783	0.3	Win2	0.5769	0.004	Yes	3.074	-0.004	4.0	GoodResponse	1	0.211	n/a	2	25	ButtonPress	Win	True
248.823	0.45	Win2	0.5769	n/a	Yes	3.074	n/a	n/a	GoodResponse	1	n/a	n/a	2	25	Blank	Win	True
249.274	1.45	Win2	0.5769	n/a	Yes	3.074	n/a	5.0	GoodResponse	1	0.016	248.29	2	25	Feedback	Win	True
250.729	3.074	Win2	0.5769	n/a	Yes	3.074	n/a	n/a	GoodResponse	1	0.0	n/a	2	25	ISIslide	Win	True
253.821	0.25	Win2	0.5556	0.0	No	2.929	0.021	n/a	NoResponse	0	n/a	n/a	2	26	Cue	MissedWin	True
254.072	3.95	Win2	0.5556	0.0	No	2.929	0.001	n/a	NoResponse	0	n/a	n/a	2	26	Fixation	MissedWin	True
258.017	0.26	Win2	0.5556	0.004	No	2.929	-0.004	4.0	NoResponse	0	0.328	257.345	2	26	Target	MissedWin	True
258.285	0.44	Win2	0.5556	n/a	No	2.929	n/a	n/a	NoResponse	0	n/a	n/a	2	26	Blank	MissedWin	True
258.345	0.3	Win2	0.5556	0.004	No	2.929	-0.004	4.0	NoResponse	0	0.328	n/a	2	26	ButtonPress	MissedWin	True
258.719	1.45	Win2	0.5556	n/a	No	2.929	n/a	5.0	NoResponse	0	0.034	257.753	2	26	Feedback	MissedWin	True
260.174	2.929	Win2	0.5556	n/a	No	2.929	n/a	n/a	NoResponse	0	0.0	n/a	2	26	ISIslide	MissedWin	True
263.116	0.25	Lose2	0.5357	0.0	No	2.834	0.016	n/a	NoResponse	-1	n/a	n/a	1	27	Cue	Loss	True
263.367	4.05	Lose2	0.5357	0.0	No	2.834	0.001	n/a	NoResponse	-1	n/a	n/a	1	27	Fixation	Loss	True
267.412	0.27	Lose2	0.5357	0.004	No	2.834	-0.004	4.0	NoResponse	-1	0.285	266.697	1	27	Target	Loss	True
267.696	0.43	Lose2	0.5357	n/a	No	2.834	n/a	n/a	NoResponse	-1	n/a	n/a	1	27	Blank	Loss	True
267.697	0.3	Lose2	0.5357	0.004	No	2.834	-0.004	4.0	NoResponse	-1	0.285	n/a	1	27	ButtonPress	Loss	True
268.114	1.45	Lose2	0.5357	n/a	No	2.834	n/a	5.0	NoResponse	-1	0.005	267.119	1	27	Feedback	Loss	True
269.569	2.834	Lose2	0.5357	n/a	No	2.834	n/a	n/a	NoResponse	-1	0.0	n/a	1	27	ISIslide	Loss	True
272.427	0.25	Control	0.5517	0.0	Yes	2.823	0.027	n/a	GoodResponse	0	n/a	n/a	1	28	Cue	Neutral	True
272.678	4.05	Control	0.5517	0.0	Yes	2.823	0.001	n/a	GoodResponse	0	n/a	n/a	1	28	Fixation	Neutral	True
276.723	0.28	Control	0.5517	0.004	Yes	2.823	-0.004	4.0	GoodResponse	0	0.225	275.948	1	28	Target	Neutral	True
276.948	0.3	Control	0.5517	0.004	Yes	2.823	-0.004	4.0	GoodResponse	0	0.225	n/a	1	28	ButtonPress	Neutral	True
277.007	0.42	Control	0.5517	n/a	Yes	2.823	n/a	n/a	GoodResponse	0	n/a	n/a	1	28	Blank	Neutral	True
277.425	1.45	Control	0.5517	n/a	Yes	2.823	n/a	5.0	GoodResponse	0	0.011	276.436	1	28	Feedback	Neutral	True
278.88	2.823	Control	0.5517	n/a	Yes	2.823	n/a	n/a	GoodResponse	0	0.0	n/a	1	28	ISIslide	Neutral	True
281.722	0.25	Lose2	0.5667	0.0	Yes	2.828	0.022	n/a	GoodResponse	0	n/a	n/a	1	29	Cue	AvoidedLoss	False
281.972	3.95	Lose2	0.5667	0.001	Yes	2.828	0.0	4.0	GoodResponse	0	0.114	281.086	1	29	Fixation	AvoidedLoss	False
282.086	0.3	Lose2	0.5667	0.001	Yes	2.828	0.0	4.0	GoodResponse	0	0.114	n/a	1	29	ButtonPress	AvoidedLoss	False
285.934	0.29	Lose2	0.5667	0.0	Yes	2.828	0.012	4.0	GoodResponse	0	0.239	285.173	1	29	Target	AvoidedLoss	False
286.173	0.3	Lose2	0.5667	0.0	Yes	2.828	0.012	4.0	GoodResponse	0	0.239	n/a	1	29	ButtonPress	AvoidedLoss	False
286.218	0.41	Lose2	0.5667	n/a	Yes	2.828	n/a	n/a	GoodResponse	0	n/a	n/a	1	29	Blank	AvoidedLoss	False
286.62	1.45	Lose2	0.5667	n/a	Yes	2.828	n/a	5.0	GoodResponse	0	0.035	285.655	1	29	Feedback	AvoidedLoss	False
288.074	2.828	Lose2	0.5667	n/a	Yes	2.828	n/a	n/a	GoodResponse	0	0.0	n/a	1	29	ISIslide	AvoidedLoss	False
290.916	0.25	Win2	0.5806	0.0	Yes	2.784	0.016	n/a	GoodResponse	1	n/a	n/a	2	30	Cue	Win	True
291.167	3.9	Win2	0.5806	0.0	Yes	2.784	0.001	n/a	GoodResponse	1	n/a	n/a	2	30	Fixation	Win	True
295.062	0.3	Win2	0.5806	0.004	Yes	2.784	-0.004	4.0	GoodResponse	1	0.205	294.267	2	30	Target	Win	True
295.267	0.3	Win2	0.5806	0.004	Yes	2.784	-0.004	4.0	GoodResponse	1	0.205	n/a	2	30	ButtonPress	Win	True
295.362	0.4	Win2	0.5806	n/a	Yes	2.784	n/a	n/a	GoodResponse	1	n/a	n/a	2	30	Blank	Win	True
295.764	1.45	Win2	0.5806	n/a	Yes	2.784	n/a	5.0	GoodResponse	1	0.013	294.777	2	30	Feedback	Win	True
297.218	2.784	Win2	0.5806	n/a	Yes	2.784	n/a	n/a	GoodResponse	1	0.0	n/a	2	30	ISIslide	Win	True
300.026	0.25	Lose2	0.5938	0.0	Yes	2.824	0.026	n/a	GoodResponse	0	n/a	n/a	2	31	Cue	AvoidedLoss	True
300.277	4.05	Lose2	0.5938	0.0	Yes	2.824	0.001	n/a	GoodResponse	0	n/a	n/a	2	31	Fixation	AvoidedLoss	True
304.323	0.31	Lose2	0.5938	0.003	Yes	2.824	-0.003	4.0	GoodResponse	0	0.187	303.51	2	31	Target	AvoidedLoss	True
304.51	0.3	Lose2	0.5938	0.003	Yes	2.824	-0.003	4.0	GoodResponse	0	0.187	n/a	2	31	ButtonPress	AvoidedLoss	True
304.64	0.39	Lose2	0.5938	n/a	Yes	2.824	n/a	n/a	GoodResponse	0	n/a	n/a	2	31	Blank	AvoidedLoss	True
305.025	1.45	Lose2	0.5938	n/a	Yes	2.824	n/a	5.0	GoodResponse	0	0.02	304.045	2	31	Feedback	AvoidedLoss	True
306.479	2.824	Lose2	0.5938	n/a	Yes	2.824	n/a	n/a	GoodResponse	0	0.0	n/a	2	31	ISIslide	AvoidedLoss	True
309.321	0.25	Lose2	0.6061	0.0	Yes	2.629	0.021	n/a	GoodResponse	0	n/a	n/a	2	32	Cue	AvoidedLoss	True
309.572	4.15	Lose2	0.6061	0.0	Yes	2.629	0.001	n/a	GoodResponse	0	n/a	n/a	2	32	Fixation	AvoidedLoss	True
313.717	0.32	Lose2	0.6061	0.004	Yes	2.629	-0.004	4.0	GoodResponse	0	0.192	312.909	2	32	Target	AvoidedLoss	True
313.909	0.3	Lose2	0.6061	0.004	Yes	2.629	-0.004	4.0	GoodResponse	0	0.192	n/a	2	32	ButtonPress	AvoidedLoss	True
314.052	0.38	Lose2	0.6061	n/a	Yes	2.629	n/a	n/a	GoodResponse	0	n/a	n/a	2	32	Blank	AvoidedLoss	True
314.419	1.45	Lose2	0.6061	n/a	Yes	2.629	n/a	5.0	GoodResponse	0	0.041	313.46	2	32	Feedback	AvoidedLoss	True
315.874	2.629	Lose2	0.6061	n/a	Yes	2.629	n/a	n/a	GoodResponse	0	0.0	n/a	2	32	ISIslide	AvoidedLoss	True
318.515	0.25	Win2	0.6175999999999999	0.0	Yes	2.685	0.015	n/a	GoodResponse	1	n/a	n/a	3	33	Cue	Win	True
318.766	4.0	Win2	0.6175999999999999	0.0	Yes	2.685	0.001	n/a	GoodResponse	1	n/a	n/a	3	33	Fixation	Win	True
322.761	0.33	Win2	0.6175999999999999	0.004	Yes	2.685	-0.004	4.0	GoodResponse	1	0.201	321.962	3	33	Target	Win	True
322.962	0.3	Win2	0.6175999999999999	0.004	Yes	2.685	-0.004	4.0	GoodResponse	1	0.201	n/a	3	33	ButtonPress	Win	True
323.095	0.37	Win2	0.6175999999999999	n/a	Yes	2.685	n/a	n/a	GoodResponse	1	n/a	n/a	3	33	Blank	Win	True
323.463	1.45	Win2	0.6175999999999999	n/a	Yes	2.685	n/a	5.0	GoodResponse	1	0.022	322.485	3	33	Feedback	Win	True
324.918	2.685	Win2	0.6175999999999999	n/a	Yes	2.685	n/a	n/a	GoodResponse	1	0.0	n/a	3	33	ISIslide	Win	True
327.626	0.25	Lose2	0.6286	0.0	Yes	2.624	0.026	n/a	GoodResponse	0	n/a	n/a	3	34	Cue	AvoidedLoss	True
327.876	4.05	Lose2	0.6286	0.001	Yes	2.624	0.0	n/a	GoodResponse	0	n/a	n/a	3	34	Fixation	AvoidedLoss	True
331.922	0.34	Lose2	0.6286	0.004	Yes	2.624	-0.004	4.0	GoodResponse	0	0.218	331.14	3	34	Target	AvoidedLoss	True
332.14	0.3	Lose2	0.6286	0.004	Yes	2.624	-0.004	4.0	GoodResponse	0	0.218	n/a	3	34	ButtonPress	AvoidedLoss	True
332.273	0.36	Lose2	0.6286	n/a	Yes	2.624	n/a	n/a	GoodResponse	0	n/a	n/a	3	34	Blank	AvoidedLoss	True
332.624	1.45	Lose2	0.6286	n/a	Yes	2.624	n/a	5.0	GoodResponse	0	0.03	331.654	3	34	Feedback	AvoidedLoss	True
334.078	2.624	Lose2	0.6286	n/a	Yes	2.624	n/a	n/a	GoodResponse	0	0.0	n/a	3	34	ISIslide	AvoidedLoss	True
336.72	0.25	Lose2	0.6389	0.0	Yes	2.68	0.02	n/a	GoodResponse	0	n/a	n/a	3	35	Cue	AvoidedLoss	True
336.97	4.0	Lose2	0.6389	0.0	Yes	2.68	0.0	n/a	GoodResponse	0	n/a	n/a	3	35	Fixation	AvoidedLoss	True
340.966	0.35	Lose2	0.6389	0.004	Yes	2.68	-0.004	4.0	GoodResponse	0	0.193	340.159	3	35	Target	AvoidedLoss	True
341.159	0.3	Lose2	0.6389	0.004	Yes	2.68	-0.004	4.0	GoodResponse	0	0.193	n/a	3	35	ButtonPress	AvoidedLoss	True
341.317	0.35	Lose2	0.6389	n/a	Yes	2.68	n/a	n/a	GoodResponse	0	n/a	n/a	3	35	Blank	AvoidedLoss	True
341.668	1.45	Lose2	0.6389	n/a	Yes	2.68	n/a	5.0	GoodResponse	0	0.011	340.679	3	35	Feedback	AvoidedLoss	True
343.122	2.68	Lose2	0.6389	n/a	Yes	2.68	n/a	n/a	GoodResponse	0	0.0	n/a	3	35	ISIslide	AvoidedLoss	True
345.813	0.25	Control	0.6486	0.001	Yes	2.687	0.013	n/a	GoodResponse	0	n/a	n/a	3	36	Cue	Neutral	True
346.064	4.0	Control	0.6486	0.0	Yes	2.687	0.001	n/a	GoodResponse	0	n/a	n/a	3	36	Fixation	Neutral	True
350.059	0.36	Control	0.6486	0.004	Yes	2.687	-0.004	4.0	GoodResponse	0	0.206	349.265	3	36	Target	Neutral	True
350.265	0.3	Control	0.6486	0.004	Yes	2.687	-0.004	4.0	GoodResponse	0	0.206	n/a	3	36	ButtonPress	Neutral	True
350.427	0.34	Control	0.6486	n/a	Yes	2.687	n/a	n/a	GoodResponse	0	n/a	n/a	3	36	Blank	Neutral	True
350.762	1.45	Control	0.6486	n/a	Yes	2.687	n/a	5.0	GoodResponse	0	0.039	349.801	3	36	Feedback	Neutral	True
352.216	2.687	Control	0.6486	n/a	Yes	2.687	n/a	n/a	GoodResponse	0	0.0	n/a	3	36	ISIslide	Neutral	True
354.924	0.25	Win2	0.6579	0.0	Yes	2.876	0.024	n/a	GoodResponse	1	n/a	n/a	4	37	Cue	Win	False
355.175	4.0	Win2	0.6579	0.0	Yes	2.876	0.001	4.0	GoodResponse	1	3.875	358.05	4	37	Fixation	Win	False
359.05	0.3	Win2	0.6579	0.0	Yes	2.876	0.001	4.0	GoodResponse	1	3.875	n/a	4	37	ButtonPress	Win	False
359.17	0.37	Win2	0.6579	0.004	Yes	2.876	-0.004	4.0	GoodResponse	1	0.359	358.529	4	37	Target	Win	False
359.529	0.3	Win2	0.6579	0.004	Yes	2.876	-0.004	4.0	GoodResponse	1	0.359	n/a	4	37	ButtonPress	Win	False
359.555	0.33	Win2	0.6579	n/a	Yes	2.876	n/a	n/a	GoodResponse	1	n/a	n/a	4	37	Blank	Win	False
359.872	1.45	Win2	0.6579	n/a	Yes	2.876	n/a	5.0	GoodResponse	1	0.002	358.874	4	37	Feedback	Win	False
361.327	2.876	Win2	0.6579	n/a	Yes	2.876	n/a	n/a	GoodResponse	1	0.0	n/a	4	37	ISIslide	Win	False
364.219	0.25	Lose2	0.6667000000000001	0.0	Yes	2.831	0.019	n/a	GoodResponse	0	n/a	n/a	4	38	Cue	AvoidedLoss	True
364.469	3.95	Lose2	0.6667000000000001	0.0	Yes	2.831	0.0	n/a	GoodResponse	0	n/a	n/a	4	38	Fixation	AvoidedLoss	True
368.431	0.37	Lose2	0.6667000000000001	0.0	Yes	2.831	0.012	4.0	GoodResponse	0	0.188	367.619	4	38	Target	AvoidedLoss	True
368.619	0.3	Lose2	0.6667000000000001	0.0	Yes	2.831	0.012	4.0	GoodResponse	0	0.188	n/a	4	38	ButtonPress	AvoidedLoss	True
368.799	0.33	Lose2	0.6667000000000001	n/a	Yes	2.831	n/a	n/a	GoodResponse	0	n/a	n/a	4	38	Blank	AvoidedLoss	True
369.117	1.45	Lose2	0.6667000000000001	n/a	Yes	2.831	n/a	5.0	GoodResponse	0	0.026	368.143	4	38	Feedback	AvoidedLoss	True
370.571	2.831	Lose2	0.6667000000000001	n/a	Yes	2.831	n/a	n/a	GoodResponse	0	0.0	n/a	4	38	ISIslide	AvoidedLoss	True
373.429	0.25	Win2	0.675	0.001	Yes	2.971	0.029	n/a	GoodResponse	1	n/a	n/a	5	39	Cue	Win	True
373.68	4.1	Win2	0.675	0.0	Yes	2.971	0.001	n/a	GoodResponse	1	n/a	n/a	5	39	Fixation	Win	True
377.776	0.36	Win2	0.675	0.003	Yes	2.971	-0.003	4.0	GoodResponse	1	0.211	376.987	5	39	Target	Win	True
377.987	0.3	Win2	0.675	0.003	Yes	2.971	-0.003	4.0	GoodResponse	1	0.211	n/a	5	39	ButtonPress	Win	True
378.144	0.34	Win2	0.675	n/a	Yes	2.971	n/a	n/a	GoodResponse	1	n/a	n/a	5	39	Blank	Win	True
378.478	1.45	Win2	0.675	n/a	Yes	2.971	n/a	5.0	GoodResponse	1	0.031	377.509	5	39	Feedback	Win	True
379.932	2.971	Win2	0.675	n/a	Yes	2.971	n/a	n/a	GoodResponse	1	0.0	n/a	5	39	ISIslide	Win	True
382.925	0.25	Win2	0.6829000000000001	0.0	Yes	2.725	0.025	n/a	GoodResponse	1	n/a	n/a	6	40	Cue	Win	True
383.175	3.95	Win2	0.6829000000000001	0.0	Yes	2.725	0.0	n/a	GoodResponse	1	n/a	n/a	6	40	Fixation	Win	True
387.137	0.35	Win2	0.6829000000000001	0.0	Yes	2.725	0.012	4.0	GoodResponse	1	0.201	386.338	6	40	Target	Win	True
387.338	0.3	Win2	0.6829000000000001	0.0	Yes	2.725	0.012	4.0	GoodResponse	1	0.201	n/a	6	40	ButtonPress	Win	True
387.471	0.35	Win2	0.6829000000000001	n/a	Yes	2.725	n/a	n/a	GoodResponse	1	n/a	n/a	6	40	Blank	Win	True
387.823	1.45	Win2	0.6829000000000001	n/a	Yes	2.725	n/a	5.0	GoodResponse	1	0.004	386.827	6	40	Feedback	Win	True
389.277	2.725	Win2	0.6829000000000001	n/a	Yes	2.725	n/a	n/a	GoodResponse	1	0.0	n/a	6	40	ISIslide	Win	True
392.018	0.25	Win2	0.6905	0.0	Yes	2.782	0.018	n/a	GoodResponse	1	n/a	n/a	7	41	Cue	Win	True
392.269	3.9	Win2	0.6905	0.0	Yes	2.782	0.001	n/a	GoodResponse	1	n/a	n/a	7	41	Fixation	Win	True
396.164	0.34	Win2	0.6905	0.004	Yes	2.782	-0.004	4.0	GoodResponse	1	0.249	395.413	7	41	Target	Win	True
396.413	0.3	Win2	0.6905	0.004	Yes	2.782	-0.004	4.0	GoodResponse	1	0.249	n/a	7	41	ButtonPress	Win	True
396.515	0.36	Win2	0.6905	n/a	Yes	2.782	n/a	n/a	GoodResponse	1	n/a	n/a	7	41	Blank	Win	True
396.866	1.45	Win2	0.6905	n/a	Yes	2.782	n/a	5.0	GoodResponse	1	0.032	395.898	7	41	Feedback	Win	True
398.321	2.782	Win2	0.6905	n/a	Yes	2.782	n/a	n/a	GoodResponse	1	0.0	n/a	7	41	ISIslide	Win	True
401.112	0.25	Control	0.6977	0.0	Yes	2.938	0.012	n/a	GoodResponse	0	n/a	n/a	7	42	Cue	Neutral	True
401.363	3.85	Control	0.6977	0.0	Yes	2.938	0.001	n/a	GoodResponse	0	n/a	n/a	7	42	Fixation	Neutral	True
405.208	0.33	Control	0.6977	0.004	Yes	2.938	-0.004	4.0	GoodResponse	0	0.261	404.469	7	42	Target	Neutral	True
405.469	0.3	Control	0.6977	0.004	Yes	2.938	-0.004	4.0	GoodResponse	0	0.261	n/a	7	42	ButtonPress	Neutral	True
405.542	0.37	Control	0.6977	n/a	Yes	2.938	n/a	n/a	GoodResponse	0	n/a	n/a	7	42	Blank	Neutral	True
405.91	1.45	Control	0.6977	n/a	Yes	2.938	n/a	5.0	GoodResponse	0	0.013	404.923	7	42	Feedback	Neutral	True
407.364	2.938	Control	0.6977	n/a	Yes	2.938	n/a	n/a	GoodResponse	0	0.0	n/a	7	42	ISIslide	Neutral	True
410.323	0.25	Win2	0.7045	0.0	Yes	3.177	0.023	n/a	GoodResponse	1	n/a	n/a	8	43	Cue	Win	True
410.574	4.0	Win2	0.7045	0.0	Yes	3.177	0.001	n/a	GoodResponse	1	n/a	n/a	8	43	Fixation	Win	True
414.569	0.32	Win2	0.7045	0.004	Yes	3.177	-0.004	4.0	GoodResponse	1	0.27	413.839	8	43	Target	Win	True
414.839	0.3	Win2	0.7045	0.004	Yes	3.177	-0.004	4.0	GoodResponse	1	0.27	n/a	8	43	ButtonPress	Win	True
414.904	0.38	Win2	0.7045	n/a	Yes	3.177	n/a	n/a	GoodResponse	1	n/a	n/a	8	43	Blank	Win	True
415.271	1.45	Win2	0.7045	n/a	Yes	3.177	n/a	5.0	GoodResponse	1	0.018	414.289	8	43	Feedback	Win	True
416.726	3.177	Win2	0.7045	n/a	Yes	3.177	n/a	n/a	GoodResponse	1	0.0	n/a	8	43	ISIslide	Win	True
419.919	0.25	Win2	0.7111	0.0	Yes	2.981	0.019	n/a	GoodResponse	1	n/a	n/a	9	44	Cue	Win	True
420.169	4.0	Win2	0.7111	0.0	Yes	2.981	0.0	n/a	GoodResponse	1	n/a	n/a	9	44	Fixation	Win	True
424.165	0.31	Win2	0.7111	0.004	Yes	2.981	-0.004	4.0	GoodResponse	1	0.221	423.386	9	44	Target	Win	True
424.386	0.3	Win2	0.7111	0.004	Yes	2.981	-0.004	4.0	GoodResponse	1	0.221	n/a	9	44	ButtonPress	Win	True
424.482	0.39	Win2	0.7111	n/a	Yes	2.981	n/a	n/a	GoodResponse	1	n/a	n/a	9	44	Blank	Win	True
424.867	1.45	Win2	0.7111	n/a	Yes	2.981	n/a	5.0	GoodResponse	1	0.031	423.898	9	44	Feedback	Win	True
426.321	2.981	Win2	0.7111	n/a	Yes	2.981	n/a	n/a	GoodResponse	1	0.0	n/a	9	44	ISIslide	Win	True
429.313	0.25	Control	0.7173999999999999	0.001	Yes	2.887	0.013	n/a	GoodResponse	0	n/a	n/a	9	45	Cue	Neutral	True
429.564	4.1	Control	0.7173999999999999	0.0	Yes	2.887	0.001	n/a	GoodResponse	0	n/a	n/a	9	45	Fixation	Neutral	True
433.66	0.3	Control	0.7173999999999999	0.003	Yes	2.887	-0.003	4.0	GoodResponse	0	0.298	432.958	9	45	Target	Neutral	True
433.958	0.3	Control	0.7173999999999999	0.003	Yes	2.887	-0.003	4.0	GoodResponse	0	0.298	n/a	9	45	ButtonPress	Neutral	True
433.961	0.4	Control	0.7173999999999999	n/a	Yes	2.887	n/a	n/a	GoodResponse	0	n/a	n/a	9	45	Blank	Neutral	True
434.362	1.45	Control	0.7173999999999999	n/a	Yes	2.887	n/a	5.0	GoodResponse	0	0.048	433.41	9	45	Feedback	Neutral	True
435.816	2.887	Control	0.7173999999999999	n/a	Yes	2.887	n/a	n/a	GoodResponse	0	0.0	n/a	9	45	ISIslide	Neutral	True
438.725	0.25	Lose2	0.7234	0.0	Yes	3.375	0.025	n/a	GoodResponse	0	n/a	n/a	9	46	Cue	AvoidedLoss	True
438.976	4.0	Lose2	0.7234	0.0	Yes	3.375	0.001	n/a	GoodResponse	0	n/a	n/a	9	46	Fixation	AvoidedLoss	True
442.971	0.29	Lose2	0.7234	0.004	Yes	3.375	-0.004	4.0	GoodResponse	0	0.183	442.154	9	46	Target	AvoidedLoss	True
443.154	0.3	Lose2	0.7234	0.004	Yes	3.375	-0.004	4.0	GoodResponse	0	0.183	n/a	9	46	ButtonPress	AvoidedLoss	True
443.272	0.41	Lose2	0.7234	n/a	Yes	3.375	n/a	n/a	GoodResponse	0	n/a	n/a	9	46	Blank	AvoidedLoss	True
443.673	1.45	Lose2	0.7234	n/a	Yes	3.375	n/a	5.0	GoodResponse	0	0.005	442.678	9	46	Feedback	AvoidedLoss	True
445.127	3.375	Lose2	0.7234	n/a	Yes	3.375	n/a	n/a	GoodResponse	0	0.0	n/a	9	46	ISIslide	AvoidedLoss	True
448.521	0.25	Lose2	0.7292000000000001	0.0	Yes	2.679	0.021	n/a	GoodResponse	0	n/a	n/a	9	47	Cue	AvoidedLoss	True
448.772	4.0	Lose2	0.7292000000000001	0.0	Yes	2.679	0.001	n/a	GoodResponse	0	n/a	n/a	9	47	Fixation	AvoidedLoss	True
452.767	0.28	Lose2	0.7292000000000001	0.004	Yes	2.679	-0.004	4.0	GoodResponse	0	0.189	451.956	9	47	Target	AvoidedLoss	True
452.956	0.3	Lose2	0.7292000000000001	0.004	Yes	2.679	-0.004	4.0	GoodResponse	0	0.189	n/a	9	47	ButtonPress	AvoidedLoss	True
453.051	0.42	Lose2	0.7292000000000001	n/a	Yes	2.679	n/a	n/a	GoodResponse	0	n/a	n/a	9	47	Blank	AvoidedLoss	True
453.469	1.45	Lose2	0.7292000000000001	n/a	Yes	2.679	n/a	5.0	GoodResponse	0	0.014	452.483	9	47	Feedback	AvoidedLoss	True
454.923	2.679	Lose2	0.7292000000000001	n/a	Yes	2.679	n/a	n/a	GoodResponse	0	0.0	n/a	9	47	ISIslide	AvoidedLoss	True
457.615	0.25	Lose2	0.7347	0.0	Yes	3.035	0.015	n/a	GoodResponse	0	n/a	n/a	9	48	Cue	AvoidedLoss	True
457.866	3.95	Lose2	0.7347	0.0	Yes	3.035	0.001	n/a	GoodResponse	0	n/a	n/a	9	48	Fixation	AvoidedLoss	True
461.811	0.27	Lose2	0.7347	0.004	Yes	3.035	-0.004	4.0	GoodResponse	0	0.2	461.011	9	48	Target	AvoidedLoss	True
462.011	0.3	Lose2	0.7347	0.004	Yes	3.035	-0.004	4.0	GoodResponse	0	0.2	n/a	9	48	ButtonPress	AvoidedLoss	True
462.095	0.43	Lose2	0.7347	n/a	Yes	3.035	n/a	n/a	GoodResponse	0	n/a	n/a	9	48	Blank	AvoidedLoss	True
462.513	1.45	Lose2	0.7347	n/a	Yes	3.035	n/a	5.0	GoodResponse	0	0.043	461.556	9	48	Feedback	AvoidedLoss	True
463.967	3.035	Lose2	0.7347	n/a	Yes	3.035	n/a	n/a	GoodResponse	0	0.0	n/a	9	48	ISIslide	AvoidedLoss	True
467.026	0.25	Control	0.72	0.0	No	2.874	0.026	n/a	NoResponse	0	n/a	n/a	9	49	Cue	Neutral	True
467.277	4.0	Control	0.72	0.0	No	2.874	0.001	n/a	NoResponse	0	n/a	n/a	9	49	Fixation	Neutral	True
471.272	0.26	Control	0.72	0.004	No	2.874	-0.004	4.0	NoResponse	0	0.313	470.585	9	49	Target	Neutral	True
471.54	0.44	Control	0.72	n/a	No	2.874	n/a	n/a	NoResponse	0	n/a	n/a	9	49	Blank	Neutral	True
471.585	0.3	Control	0.72	0.004	No	2.874	-0.004	4.0	NoResponse	0	0.313	n/a	9	49	ButtonPress	Neutral	True
471.974	1.45	Control	0.72	n/a	No	2.874	n/a	5.0	NoResponse	0	0.046	471.02	9	49	Feedback	Neutral	True
473.429	2.874	Control	0.72	n/a	No	2.874	n/a	n/a	NoResponse	0	0.0	n/a	9	49	ISIslide	Neutral	True
476.321	0.25	Control	0.7254999999999999	0.0	Yes	2.779	0.021	n/a	GoodResponse	0	n/a	n/a	9	50	Cue	Neutral	True
476.572	4.0	Control	0.7254999999999999	0.0	Yes	2.779	0.001	n/a	GoodResponse	0	n/a	n/a	9	50	Fixation	Neutral	True
480.567	0.25	Control	0.7254999999999999	0.004	Yes	2.779	-0.004	4.0	GoodResponse	0	0.244	479.811	9	50	Target	Neutral	True
480.811	0.3	Control	0.7254999999999999	0.004	Yes	2.779	-0.004	4.0	GoodResponse	0	0.244	n/a	9	50	ButtonPress	Neutral	True
480.818	0.45	Control	0.7254999999999999	n/a	Yes	2.779	n/a	n/a	GoodResponse	0	n/a	n/a	9	50	Blank	Neutral	True
481.269	1.45	Control	0.7254999999999999	n/a	Yes	2.779	n/a	5.0	GoodResponse	0	0.018	480.287	9	50	Feedback	Neutral	True
482.723	2.779	Control	0.7254999999999999	n/a	Yes	2.779	n/a	n/a	GoodResponse	0	0.0	n/a	9	50	ISIslide	Neutral	True
485.515	0.25	Control	0.7115	0.0	No	2.735	0.015	n/a	NoResponse	0	n/a	n/a	9	51	Cue	Neutral	True
485.766	3.95	Control	0.7115	0.0	No	2.735	0.001	n/a	NoResponse	0	n/a	n/a	9	51	Fixation	Neutral	True
489.711	0.24	Control	0.7115	0.004	No	2.735	-0.004	4.0	NoResponse	0	0.301	489.012	9	51	Target	Neutral	True
489.962	0.46	Control	0.7115	n/a	No	2.735	n/a	n/a	NoResponse	0	n/a	n/a	9	51	Blank	Neutral	True
490.012	0.3	Control	0.7115	0.004	No	2.735	-0.004	4.0	NoResponse	0	0.301	n/a	9	51	ButtonPress	Neutral	True
490.413	1.45	Control	0.7115	n/a	No	2.735	n/a	5.0	NoResponse	0	0.045	489.458	9	51	Feedback	Neutral	True
491.867	2.735	Control	0.7115	n/a	No	2.735	n/a	n/a	NoResponse	0	0.0	n/a	9	51	ISIslide	Neutral	True
494.626	0.25	Control	0.7170000000000001	0.0	Yes	2.624	0.026	n/a	GoodResponse	0	n/a	n/a	9	52	Cue	Neutral	True
494.876	4.05	Control	0.7170000000000001	0.0	Yes	2.624	0.0	n/a	GoodResponse	0	n/a	n/a	9	52	Fixation	Neutral	True
498.922	0.23	Control	0.7170000000000001	0.004	Yes	2.624	-0.004	4.0	GoodResponse	0	0.203	498.125	9	52	Target	Neutral	True
499.125	0.3	Control	0.7170000000000001	0.004	Yes	2.624	-0.004	4.0	GoodResponse	0	0.203	n/a	9	52	ButtonPress	Neutral	True
499.156	0.47	Control	0.7170000000000001	n/a	Yes	2.624	n/a	n/a	GoodResponse	0	n/a	n/a	9	52	Blank	Neutral	True
499.624	1.45	Control	0.7170000000000001	n/a	Yes	2.624	n/a	5.0	GoodResponse	0	0.005	498.629	9	52	Feedback	Neutral	True
501.078	2.624	Control	0.7170000000000001	n/a	Yes	2.624	n/a	n/a	GoodResponse	0	0.0	n/a	9	52	ISIslide	Neutral	True
503.719	0.25	Win2	0.7222	0.001	Yes	2.931	0.019	n/a	GoodResponse	1	n/a	n/a	10	53	Cue	Win	False
503.97	4.05	Win2	0.7222	0.0	Yes	2.931	0.001	4.0	GoodResponse	1	0.309	503.279	10	53	Fixation	Win	False
504.279	0.3	Win2	0.7222	0.0	Yes	2.931	0.001	4.0	GoodResponse	1	0.309	n/a	10	53	ButtonPress	Win	False
508.016	0.22	Win2	0.7222	0.003	Yes	2.931	-0.003	4.0	GoodResponse	1	0.199	507.215	10	53	Target	Win	False
508.215	0.3	Win2	0.7222	0.003	Yes	2.931	-0.003	4.0	GoodResponse	1	0.199	n/a	10	53	ButtonPress	Win	False
508.25	0.48	Win2	0.7222	n/a	Yes	2.931	n/a	n/a	GoodResponse	1	n/a	n/a	10	53	Blank	Win	False
508.718	1.45	Win2	0.7222	n/a	Yes	2.931	n/a	5.0	GoodResponse	1	0.033	507.751	10	53	Feedback	Win	False
510.172	2.931	Win2	0.7222	n/a	Yes	2.931	n/a	n/a	GoodResponse	1	0.0	n/a	10	53	ISIslide	Win	False
513.114	0.25	Win2	0.7091	0.0	No	2.736	0.014	n/a	NoResponse	0	n/a	n/a	10	54	Cue	MissedWin	True
513.365	3.95	Win2	0.7091	0.0	No	2.736	0.001	n/a	NoResponse	0	n/a	n/a	10	54	Fixation	MissedWin	True
517.31	0.21	Win2	0.7091	0.004	No	2.736	-0.004	4.0	NoResponse	0	0.303	516.613	10	54	Target	MissedWin	True
517.527	0.49	Win2	0.7091	n/a	No	2.736	n/a	n/a	NoResponse	0	n/a	n/a	10	54	Blank	MissedWin	True
517.613	0.3	Win2	0.7091	0.004	No	2.736	-0.004	4.0	NoResponse	0	0.303	n/a	10	54	ButtonPress	MissedWin	True
518.012	1.45	Win2	0.7091	n/a	No	2.736	n/a	5.0	NoResponse	0	0.007	517.019	10	54	Feedback	MissedWin	True
519.467	2.736	Win2	0.7091	n/a	No	2.736	n/a	n/a	NoResponse	0	0.0	n/a	10	54	ISIslide	MissedWin	True
522.225	0.25	Control	0.6964	0.0	No	3.025	0.025	n/a	NoResponse	0	n/a	n/a	10	55	Cue	Neutral	True
522.476	3.95	Control	0.6964	0.0	No	3.025	0.001	n/a	NoResponse	0	n/a	n/a	10	55	Fixation	Neutral	True
526.421	0.2	Control	0.6964	0.004	No	3.025	-0.004	4.0	NoResponse	0	0.231	525.652	10	55	Target	Neutral	True
526.621	0.5	Control	0.6964	n/a	No	3.025	n/a	n/a	NoResponse	0	n/a	n/a	10	55	Blank	Neutral	True
526.652	0.3	Control	0.6964	0.004	No	3.025	-0.004	4.0	NoResponse	0	0.231	n/a	10	55	ButtonPress	Neutral	True
527.123	1.45	Control	0.6964	n/a	No	3.025	n/a	5.0	NoResponse	0	0.018	526.141	10	55	Feedback	Neutral	True
528.577	3.025	Control	0.6964	n/a	No	3.025	n/a	n/a	NoResponse	0	0.0	n/a	10	55	ISIslide	Neutral	True
531.62	0.25	Control	0.7018000000000001	0.0	Yes	2.83	0.02	n/a	GoodResponse	0	n/a	n/a	10	56	Cue	Neutral	True
531.87	3.95	Control	0.7018000000000001	0.0	Yes	2.83	0.0	n/a	GoodResponse	0	n/a	n/a	10	56	Fixation	Neutral	True
535.816	0.19	Control	0.7018000000000001	0.004	Yes	2.83	-0.004	4.0	GoodResponse	0	0.189	535.005	10	56	Target	Neutral	True
536.005	0.3	Control	0.7018000000000001	0.004	Yes	2.83	-0.004	4.0	GoodResponse	0	0.189	n/a	10	56	ButtonPress	Neutral	True
536.016	0.51	Control	0.7018000000000001	n/a	Yes	2.83	n/a	n/a	GoodResponse	0	n/a	n/a	10	56	Blank	Neutral	True
536.518	1.45	Control	0.7018000000000001	n/a	Yes	2.83	n/a	5.0	GoodResponse	0	0.037	535.555	10	56	Feedback	Neutral	True
537.972	2.83	Control	0.7018000000000001	n/a	Yes	2.83	n/a	n/a	GoodResponse	0	0.0	n/a	10	56	ISIslide	Neutral	True
540.814	0.25	Control	0.7069	0.0	Yes	3.486	0.014	n/a	GoodResponse	0	n/a	n/a	10	57	Cue	Neutral	True
541.065	4.0	Control	0.7069	0.0	Yes	3.486	0.001	n/a	GoodResponse	0	n/a	n/a	10	57	Fixation	Neutral	True
545.06	0.18	Control	0.7069	0.004	Yes	3.486	-0.004	4.0	GoodResponse	0	0.17	544.23	10	57	Target	Neutral	True
545.23	0.3	Control	0.7069	0.004	Yes	3.486	-0.004	4.0	GoodResponse	0	0.17	n/a	10	57	ButtonPress	Neutral	True
545.244	0.52	Control	0.7069	n/a	Yes	3.486	n/a	n/a	GoodResponse	0	n/a	n/a	10	57	Blank	Neutral	True
545.762	1.45	Control	0.7069	n/a	Yes	3.486	n/a	5.0	GoodResponse	0	0.013	544.775	10	57	Feedback	Neutral	True
547.216	3.486	Control	0.7069	n/a	Yes	3.486	n/a	4.0	GoodResponse	0	1.411	n/a	10	57	ISIslide	Neutral	True
550.71	0.25	Win2	0.6949	0.0	No	2.74	0.01	n/a	NoResponse	0	n/a	n/a	10	58	Cue	MissedWin	True
550.961	4.05	Win2	0.6949	0.0	No	2.74	0.001	n/a	NoResponse	0	n/a	n/a	10	58	Fixation	MissedWin	True
555.006	0.17	Win2	0.6949	0.004	No	2.74	-0.004	4.0	NoResponse	0	0.215	554.221	10	58	Target	MissedWin	True
555.19	0.53	Win2	0.6949	n/a	No	2.74	n/a	n/a	NoResponse	0	n/a	n/a	10	58	Blank	MissedWin	True
555.221	0.3	Win2	0.6949	0.004	No	2.74	-0.004	4.0	NoResponse	0	0.215	n/a	10	58	ButtonPress	MissedWin	True
555.708	1.45	Win2	0.6949	n/a	No	2.74	n/a	5.0	NoResponse	0	0.018	554.726	10	58	Feedback	MissedWin	True
557.163	2.74	Win2	0.6949	n/a	No	2.74	n/a	n/a	NoResponse	0	0.0	n/a	10	58	ISIslide	MissedWin	True
559.921	0.25	Lose2	0.6833	0.0	No	2.679	0.021	n/a	NoResponse	-1	n/a	n/a	9	59	Cue	Loss	True
560.172	4.0	Lose2	0.6833	0.0	No	2.679	0.001	n/a	NoResponse	-1	n/a	n/a	9	59	Fixation	Loss	True
564.167	0.16	Lose2	0.6833	0.004	No	2.679	-0.004	4.0	NoResponse	-1	0.175	563.342	9	59	Target	Loss	True
564.334	0.54	Lose2	0.6833	n/a	No	2.679	n/a	n/a	NoResponse	-1	n/a	n/a	9	59	Blank	Loss	True
564.342	0.3	Lose2	0.6833	0.004	No	2.679	-0.004	4.0	NoResponse	-1	0.175	n/a	9	59	ButtonPress	Loss	True
564.869	1.45	Lose2	0.6833	n/a	No	2.679	n/a	5.0	NoResponse	-1	0.028	563.897	9	59	Feedback	Loss	True
566.324	2.679	Lose2	0.6833	n/a	No	2.679	n/a	n/a	NoResponse	-1	0.0	n/a	9	59	ISIslide	Loss	True
569.015	0.25	Control	0.6720999999999999	0.0	No	2.685	0.015	n/a	NoResponse	0	n/a	n/a	9	60	Cue	Neutral	True
569.266	4.0	Control	0.6720999999999999	0.0	No	2.685	0.001	n/a	NoResponse	0	n/a	n/a	9	60	Fixation	Neutral	True
573.261	0.15	Control	0.6720999999999999	0.004	No	2.685	-0.004	4.0	NoResponse	0	0.41	572.671	9	60	Target	Neutral	True
573.411	0.55	Control	0.6720999999999999	n/a	No	2.685	n/a	n/a	NoResponse	0	n/a	n/a	9	60	Blank	Neutral	True
573.671	0.3	Control	0.6720999999999999	0.004	No	2.685	-0.004	4.0	NoResponse	0	0.41	n/a	9	60	ButtonPress	Neutral	True
573.963	1.45	Control	0.6720999999999999	n/a	No	2.685	n/a	5.0	NoResponse	0	0.007	572.97	9	60	Feedback	Neutral	True
575.417	2.685	Control	0.6720999999999999	n/a	No	2.685	n/a	n/a	NoResponse	0	0.0	n/a	9	60	ISIslide	Neutral	True
578.125	0.25	Lose2	0.6613	0.001	No	2.975	0.025	n/a	NoResponse	-1	n/a	n/a	8	61	Cue	Loss	True
578.376	4.0	Lose2	0.6613	0.0	No	2.975	0.001	n/a	NoResponse	-1	n/a	n/a	8	61	Fixation	Loss	True
582.372	0.15	Lose2	0.6613	0.003	No	2.975	-0.003	4.0	NoResponse	-1	0.158	581.53	8	61	Target	Loss	True
582.522	0.55	Lose2	0.6613	n/a	No	2.975	n/a	n/a	NoResponse	-1	n/a	n/a	8	61	Blank	Loss	True
582.53	0.3	Lose2	0.6613	0.003	No	2.975	-0.003	4.0	NoResponse	-1	0.158	n/a	8	61	ButtonPress	Loss	True
583.074	1.45	Lose2	0.6613	n/a	No	2.975	n/a	5.0	NoResponse	-1	0.017	582.091	8	61	Feedback	Loss	True
584.528	2.975	Lose2	0.6613	n/a	No	2.975	n/a	n/a	NoResponse	-1	0.0	n/a	8	61	ISIslide	Loss	True
587.52	0.25	Lose2	0.6507999999999999	0.0	No	2.88	0.02	n/a	NoResponse	-1	n/a	n/a	7	62	Cue	Loss	True
587.771	3.9	Lose2	0.6507999999999999	0.0	No	2.88	0.001	n/a	NoResponse	-1	n/a	n/a	7	62	Fixation	Loss	True
591.666	0.15	Lose2	0.6507999999999999	0.004	No	2.88	-0.004	4.0	NoResponse	-1	0.219	590.885	7	62	Target	Loss	True
591.816	0.55	Lose2	0.6507999999999999	n/a	No	2.88	n/a	n/a	NoResponse	-1	n/a	n/a	7	62	Blank	Loss	True
591.885	0.3	Lose2	0.6507999999999999	0.004	No	2.88	-0.004	4.0	NoResponse	-1	0.219	n/a	7	62	ButtonPress	Loss	True
592.368	1.45	Lose2	0.6507999999999999	n/a	No	2.88	n/a	5.0	NoResponse	-1	0.04	591.408	7	62	Feedback	Loss	True
593.822	2.88	Lose2	0.6507999999999999	n/a	No	2.88	n/a	n/a	NoResponse	-1	0.0	n/a	7	62	ISIslide	Loss	True
596.714	0.25	Lose2	0.6406000000000001	0.001	No	2.636	0.014	n/a	NoResponse	-1	n/a	n/a	6	63	Cue	Loss	True
596.965	4.05	Lose2	0.6406000000000001	0.0	No	2.636	0.001	n/a	NoResponse	-1	n/a	n/a	6	63	Fixation	Loss	True
601.011	0.16	Lose2	0.6406000000000001	0.003	No	2.636	-0.003	4.0	NoResponse	-1	0.245	600.256	6	63	Target	Loss	True
601.178	0.54	Lose2	0.6406000000000001	n/a	No	2.636	n/a	n/a	NoResponse	-1	n/a	n/a	6	63	Blank	Loss	True
601.256	0.3	Lose2	0.6406000000000001	0.003	No	2.636	-0.003	4.0	NoResponse	-1	0.245	n/a	6	63	ButtonPress	Loss	True
601.713	1.45	Lose2	0.6406000000000001	n/a	No	2.636	n/a	5.0	NoResponse	-1	0.013	600.726	6	63	Feedback	Loss	True
603.167	2.636	Lose2	0.6406000000000001	n/a	No	2.636	n/a	n/a	NoResponse	-1	0.0	n/a	6	63	ISIslide	Loss	True
605.825	0.25	Win2	0.6308	0.0	No	3.125	0.025	n/a	NoResponse	0	n/a	n/a	6	64	Cue	MissedWin	True
606.076	4.15	Win2	0.6308	0.0	No	3.125	0.001	n/a	NoResponse	0	n/a	n/a	6	64	Fixation	MissedWin	True
610.222	0.17	Win2	0.6308	0.003	No	3.125	-0.003	4.0	NoResponse	0	0.216	609.438	6	64	Target	MissedWin	True
610.405	0.53	Win2	0.6308	n/a	No	3.125	n/a	n/a	NoResponse	0	n/a	n/a	6	64	Blank	MissedWin	True
610.438	0.3	Win2	0.6308	0.003	No	3.125	-0.003	4.0	NoResponse	0	0.216	n/a	6	64	ButtonPress	MissedWin	True
610.924	1.45	Win2	0.6308	n/a	No	3.125	n/a	5.0	NoResponse	0	0.021	609.945	6	64	Feedback	MissedWin	True
612.378	3.125	Win2	0.6308	n/a	No	3.125	n/a	n/a	NoResponse	0	0.0	n/a	6	64	ISIslide	MissedWin	True
615.521	0.25	Control	0.6212	0.0	No	2.779	0.021	n/a	NoResponse	0	n/a	n/a	6	65	Cue	Neutral	True
615.772	4.0	Control	0.6212	0.0	No	2.779	0.001	n/a	NoResponse	0	n/a	n/a	6	65	Fixation	Neutral	True
619.767	0.18	Control	0.6212	0.004	No	2.779	-0.004	4.0	NoResponse	0	0.444	619.211	6	65	Target	Neutral	True
619.951	0.52	Control	0.6212	n/a	No	2.779	n/a	n/a	NoResponse	0	n/a	n/a	6	65	Blank	Neutral	True
620.211	0.3	Control	0.6212	0.004	No	2.779	-0.004	4.0	NoResponse	0	0.444	n/a	6	65	ButtonPress	Neutral	True
620.469	1.45	Control	0.6212	n/a	No	2.779	n/a	5.0	NoResponse	0	0.037	619.506	6	65	Feedback	Neutral	True
621.923	2.779	Control	0.6212	n/a	No	2.779	n/a	n/a	NoResponse	0	0.0	n/a	6	65	ISIslide	Neutral	True
624.715	0.25	Win2	0.6119	0.0	No	2.785	0.015	n/a	NoResponse	0	n/a	n/a	6	66	Cue	MissedWin	True
624.966	3.9	Win2	0.6119	0.0	No	2.785	0.001	n/a	NoResponse	0	n/a	n/a	6	66	Fixation	MissedWin	True
628.861	0.19	Win2	0.6119	0.004	No	2.785	-0.004	4.0	NoResponse	0	0.217	628.078	6	66	Target	MissedWin	True
629.061	0.51	Win2	0.6119	n/a	No	2.785	n/a	n/a	NoResponse	0	n/a	n/a	6	66	Blank	MissedWin	True
629.078	0.3	Win2	0.6119	0.004	No	2.785	-0.004	4.0	NoResponse	0	0.217	n/a	6	66	ButtonPress	MissedWin	True
629.563	1.45	Win2	0.6119	n/a	No	2.785	n/a	5.0	NoResponse	0	0.017	628.58	6	66	Feedback	MissedWin	True
631.017	2.785	Win2	0.6119	n/a	No	2.785	n/a	n/a	NoResponse	0	0.0	n/a	6	66	ISIslide	MissedWin	True
633.826	0.25	Control	0.6029	0.0	No	2.724	0.026	n/a	NoResponse	0	n/a	n/a	6	67	Cue	Neutral	True
634.076	3.95	Control	0.6029	0.0	No	2.724	0.0	n/a	NoResponse	0	n/a	n/a	6	67	Fixation	Neutral	True
638.038	0.2	Control	0.6029	0.0	No	2.724	0.012	4.0	NoResponse	0	0.218	637.256	6	67	Target	Neutral	True
638.222	0.5	Control	0.6029	n/a	No	2.724	n/a	n/a	NoResponse	0	n/a	n/a	6	67	Blank	Neutral	True
638.256	0.3	Control	0.6029	0.0	No	2.724	0.012	4.0	NoResponse	0	0.218	n/a	6	67	ButtonPress	Neutral	True
638.724	1.45	Control	0.6029	n/a	No	2.724	n/a	5.0	NoResponse	0	0.025	637.749	6	67	Feedback	Neutral	True
640.178	2.724	Control	0.6029	n/a	No	2.724	n/a	n/a	NoResponse	0	0.0	n/a	6	67	ISIslide	Neutral	True
642.919	0.25	Win2	0.5942000000000001	0.001	No	3.081	0.019	n/a	NoResponse	0	n/a	n/a	6	68	Cue	MissedWin	True
643.17	4.0	Win2	0.5942000000000001	0.0	No	3.081	0.001	n/a	NoResponse	0	n/a	n/a	6	68	Fixation	MissedWin	True
647.165	0.21	Win2	0.5942000000000001	0.004	No	3.081	-0.004	4.0	NoResponse	0	0.223	646.388	6	68	Target	MissedWin	True
647.383	0.49	Win2	0.5942000000000001	n/a	No	3.081	n/a	n/a	NoResponse	0	n/a	n/a	6	68	Blank	MissedWin	True
647.388	0.3	Win2	0.5942000000000001	0.004	No	3.081	-0.004	4.0	NoResponse	0	0.223	n/a	6	68	ButtonPress	MissedWin	True
647.868	1.45	Win2	0.5942000000000001	n/a	No	3.081	n/a	5.0	NoResponse	0	0.003	646.871	6	68	Feedback	MissedWin	True
649.322	3.081	Win2	0.5942000000000001	n/a	No	3.081	n/a	n/a	NoResponse	0	0.0	n/a	6	68	ISIslide	MissedWin	True
652.415	0.25	Win2	0.6	0.0	Yes	3.235	0.015	n/a	GoodResponse	1	n/a	n/a	7	69	Cue	Win	True
652.665	3.95	Win2	0.6	0.0	Yes	3.235	0.0	n/a	GoodResponse	1	n/a	n/a	7	69	Fixation	Win	True
656.627	0.22	Win2	0.6	0.0	Yes	3.235	0.012	4.0	GoodResponse	1	0.208	655.835	7	69	Target	Win	True
656.835	0.3	Win2	0.6	0.0	Yes	3.235	0.012	4.0	GoodResponse	1	0.208	n/a	7	69	ButtonPress	Win	True
656.844	0.48	Win2	0.6	n/a	Yes	3.235	n/a	n/a	GoodResponse	1	n/a	n/a	7	69	Blank	Win	True
657.313	1.45	Win2	0.6	n/a	Yes	3.235	n/a	5.0	GoodResponse	1	0.022	656.335	7	69	Feedback	Win	True
658.767	3.235	Win2	0.6	n/a	Yes	3.235	n/a	n/a	GoodResponse	1	0.0	n/a	7	69	ISIslide	Win	True
662.027	0.25	Lose2	0.6056	0.0	Yes	3.023	0.027	n/a	GoodResponse	0	n/a	n/a	7	70	Cue	AvoidedLoss	True
662.277	4.05	Lose2	0.6056	0.0	Yes	3.023	0.0	n/a	GoodResponse	0	n/a	n/a	7	70	Fixation	AvoidedLoss	True
666.323	0.23	Lose2	0.6056	0.004	Yes	3.023	-0.004	4.0	GoodResponse	0	0.213	665.536	7	70	Target	AvoidedLoss	True
666.536	0.3	Lose2	0.6056	0.004	Yes	3.023	-0.004	4.0	GoodResponse	0	0.213	n/a	7	70	ButtonPress	AvoidedLoss	True
666.557	0.47	Lose2	0.6056	n/a	Yes	3.023	n/a	n/a	GoodResponse	0	n/a	n/a	7	70	Blank	AvoidedLoss	True
667.025	1.45	Lose2	0.6056	n/a	Yes	3.023	n/a	5.0	GoodResponse	0	0.017	666.042	7	70	Feedback	AvoidedLoss	True
668.479	3.023	Lose2	0.6056	n/a	Yes	3.023	n/a	n/a	GoodResponse	0	0.0	n/a	7	70	ISIslide	AvoidedLoss	True
671.522	0.25	Win2	0.6111	0.0	Yes	2.728	0.022	n/a	GoodResponse	1	n/a	n/a	8	71	Cue	Win	True
671.772	4.05	Win2	0.6111	0.001	Yes	2.728	0.0	n/a	GoodResponse	1	n/a	n/a	8	71	Fixation	Win	True
675.818	0.24	Win2	0.6111	0.004	Yes	2.728	-0.004	4.0	GoodResponse	1	0.184	675.002	8	71	Target	Win	True
676.002	0.3	Win2	0.6111	0.004	Yes	2.728	-0.004	4.0	GoodResponse	1	0.184	n/a	8	71	ButtonPress	Win	True
676.069	0.46	Win2	0.6111	n/a	Yes	2.728	n/a	n/a	GoodResponse	1	n/a	n/a	8	71	Blank	Win	True
676.52	1.45	Win2	0.6111	n/a	Yes	2.728	n/a	5.0	GoodResponse	1	0.035	675.555	8	71	Feedback	Win	True
677.974	2.728	Win2	0.6111	n/a	Yes	2.728	n/a	n/a	GoodResponse	1	0.0	n/a	8	71	ISIslide	Win	True
680.716	0.25	Win2	0.6164000000000001	0.0	Yes	2.784	0.016	n/a	GoodResponse	1	n/a	n/a	9	72	Cue	Win	True
680.967	4.1	Win2	0.6164000000000001	0.0	Yes	2.784	0.001	n/a	GoodResponse	1	n/a	n/a	9	72	Fixation	Win	True
685.062	0.25	Win2	0.6164000000000001	0.004	Yes	2.784	-0.004	4.0	GoodResponse	1	0.16	684.222	9	72	Target	Win	True
685.222	0.3	Win2	0.6164000000000001	0.004	Yes	2.784	-0.004	4.0	GoodResponse	1	0.16	n/a	9	72	ButtonPress	Win	True
685.313	0.45	Win2	0.6164000000000001	n/a	Yes	2.784	n/a	n/a	GoodResponse	1	n/a	n/a	9	72	Blank	Win	True
685.764	1.45	Win2	0.6164000000000001	n/a	Yes	2.784	n/a	5.0	GoodResponse	1	0.009	684.773	9	72	Feedback	Win	True
687.219	2.784	Win2	0.6164000000000001	n/a	Yes	2.784	n/a	n/a	GoodResponse	1	0.0	n/a	9	72	ISIslide	Win	True
690.027	0.25	Win2	0.6215999999999999	0.0	Yes	2.673	0.027	n/a	GoodResponse	1	n/a	n/a	10	73	Cue	Win	True
690.278	4.0	Win2	0.6215999999999999	0.0	Yes	2.673	0.001	n/a	GoodResponse	1	n/a	n/a	10	73	Fixation	Win	True
694.273	0.26	Win2	0.6215999999999999	0.004	Yes	2.673	-0.004	4.0	GoodResponse	1	0.214	693.487	10	73	Target	Win	True
694.487	0.3	Win2	0.6215999999999999	0.004	Yes	2.673	-0.004	4.0	GoodResponse	1	0.214	n/a	10	73	ButtonPress	Win	True
694.541	0.44	Win2	0.6215999999999999	n/a	Yes	2.673	n/a	n/a	GoodResponse	1	n/a	n/a	10	73	Blank	Win	True
694.975	1.45	Win2	0.6215999999999999	n/a	Yes	2.673	n/a	5.0	GoodResponse	1	0.018	693.993	10	73	Feedback	Win	True
696.43	2.673	Win2	0.6215999999999999	n/a	Yes	2.673	n/a	n/a	GoodResponse	1	0.0	n/a	10	73	ISIslide	Win	True
699.121	0.25	Lose2	0.6267	0.0	Yes	2.629	0.021	n/a	GoodResponse	0	n/a	n/a	10	74	Cue	AvoidedLoss	True
699.372	4.05	Lose2	0.6267	0.0	Yes	2.629	0.001	n/a	GoodResponse	0	n/a	n/a	10	74	Fixation	AvoidedLoss	True
703.417	0.27	Lose2	0.6267	0.004	Yes	2.629	-0.004	4.0	GoodResponse	0	0.224	702.641	10	74	Target	AvoidedLoss	True
703.641	0.3	Lose2	0.6267	0.004	Yes	2.629	-0.004	4.0	GoodResponse	0	0.224	n/a	10	74	ButtonPress	AvoidedLoss	True
703.701	0.43	Lose2	0.6267	n/a	Yes	2.629	n/a	n/a	GoodResponse	0	n/a	n/a	10	74	Blank	AvoidedLoss	True
704.119	1.45	Lose2	0.6267	n/a	Yes	2.629	n/a	5.0	GoodResponse	0	0.045	703.164	10	74	Feedback	AvoidedLoss	True
705.574	2.629	Lose2	0.6267	n/a	Yes	2.629	n/a	n/a	GoodResponse	0	0.0	n/a	10	74	ISIslide	AvoidedLoss	True
708.215	0.25	Lose2	0.6315999999999999	0.0	Yes	2.935	0.015	n/a	GoodResponse	0	n/a	n/a	10	75	Cue	AvoidedLoss	True
708.466	3.95	Lose2	0.6315999999999999	0.0	Yes	2.935	0.001	n/a	GoodResponse	0	n/a	n/a	10	75	Fixation	AvoidedLoss	True
712.411	0.28	Lose2	0.6315999999999999	0.004	Yes	2.935	-0.004	4.0	GoodResponse	0	0.27	711.681	10	75	Target	AvoidedLoss	True
712.681	0.3	Lose2	0.6315999999999999	0.004	Yes	2.935	-0.004	4.0	GoodResponse	0	0.27	n/a	10	75	ButtonPress	AvoidedLoss	True
712.695	0.42	Lose2	0.6315999999999999	n/a	Yes	2.935	n/a	n/a	GoodResponse	0	n/a	n/a	10	75	Blank	AvoidedLoss	True
713.113	1.45	Lose2	0.6315999999999999	n/a	Yes	2.935	n/a	5.0	GoodResponse	0	0.026	712.139	10	75	Feedback	AvoidedLoss	True
714.567	2.935	Lose2	0.6315999999999999	n/a	Yes	2.935	n/a	n/a	GoodResponse	0	0.0	n/a	10	75	ISIslide	AvoidedLoss	True
717.526	0.25	Control	0.6234000000000001	0.0	No	3.224	0.026	n/a	NoResponse	0	n/a	n/a	10	76	Cue	Neutral	True
717.777	4.05	Control	0.6234000000000001	0.0	No	3.224	0.001	n/a	NoResponse	0	n/a	n/a	10	76	Fixation	Neutral	True
721.822	0.29	Control	0.6234000000000001	0.004	No	3.224	-0.004	4.0	NoResponse	0	0.334	721.156	10	76	Target	Neutral	True
722.123	0.41	Control	0.6234000000000001	n/a	No	3.224	n/a	n/a	NoResponse	0	n/a	n/a	10	76	Blank	Neutral	True
722.156	0.3	Control	0.6234000000000001	0.004	No	3.224	-0.004	4.0	NoResponse	0	0.334	n/a	10	76	ButtonPress	Neutral	True
722.524	1.45	Control	0.6234000000000001	n/a	No	3.224	n/a	5.0	NoResponse	0	0.03	721.554	10	76	Feedback	Neutral	True
723.979	3.224	Control	0.6234000000000001	n/a	No	3.224	n/a	n/a	NoResponse	0	0.0	n/a	10	76	ISIslide	Neutral	True
727.222	0.25	Lose2	0.6154	0.0	No	2.578	0.022	n/a	NoResponse	-1	n/a	n/a	9	77	Cue	Loss	True
727.473	3.95	Lose2	0.6154	0.0	No	2.578	0.001	n/a	NoResponse	-1	n/a	n/a	9	77	Fixation	Loss	True
731.418	0.3	Lose2	0.6154	0.004	No	2.578	-0.004	4.0	NoResponse	-1	0.327	730.745	9	77	Target	Loss	True
731.719	0.4	Lose2	0.6154	n/a	No	2.578	n/a	n/a	NoResponse	-1	n/a	n/a	9	77	Blank	Loss	True
731.745	0.3	Lose2	0.6154	0.004	No	2.578	-0.004	4.0	NoResponse	-1	0.327	n/a	9	77	ButtonPress	Loss	True
732.12	1.45	Lose2	0.6154	n/a	No	2.578	n/a	5.0	NoResponse	-1	0.044	731.164	9	77	Feedback	Loss	True
733.574	2.578	Lose2	0.6154	n/a	No	2.578	n/a	n/a	NoResponse	-1	0.0	n/a	9	77	ISIslide	Loss	True
