onset	duration	cue_type	current_mean_accuracy	duration_error	is_hit	isi_adjusted	onset_delay	response	response_type	reward	rt	rt_time	total_reward	trial_number	trial_phase	trial_type	one_press
11.101	0.25	Control	1.0	0.0	Yes	2.949	0.001	n/a	GoodResponse	0	n/a	n/a	0	0	Cue	Neutral	True
11.351	3.85	Control	1.0	0.0	Yes	2.949	0.0	n/a	GoodResponse	0	n/a	n/a	0	0	Fixation	Neutral	True
15.213	0.4	Control	1.0	0.0	Yes	2.949	0.012	2.0	GoodResponse	0	0.269	14.482	0	0	Target	Neutral	True
15.482	0.3	Control	1.0	0.0	Yes	2.949	0.012	2.0	GoodResponse	0	0.269	n/a	0	0	ButtonPress	Neutral	True
15.597	0.3	Control	1.0	n/a	Yes	2.949	n/a	n/a	GoodResponse	0	n/a	n/a	0	0	Blank	Neutral	True
15.898	1.45	Control	1.0	n/a	Yes	2.949	n/a	5.0	GoodResponse	0	0.028	14.926	0	0	Feedback	Neutral	True
17.353	2.949	Control	1.0	n/a	Yes	2.949	n/a	n/a	GoodResponse	0	0.0	n/a	0	0	ISIslide	Neutral	True
20.328	0.25	Lose2	1.0	0.0	Yes	2.772	0.028	n/a	GoodResponse	0	n/a	n/a	0	1	Cue	AvoidedLoss	True
20.579	4.0	Lose2	1.0	0.0	Yes	2.772	0.001	n/a	GoodResponse	0	n/a	n/a	0	1	Fixation	AvoidedLoss	True
24.574	0.39	Lose2	1.0	0.004	Yes	2.772	-0.004	2.0	GoodResponse	0	0.388	23.962	0	1	Target	AvoidedLoss	True
24.962	0.3	Lose2	1.0	0.004	Yes	2.772	-0.004	2.0	GoodResponse	0	0.388	n/a	0	1	ButtonPress	AvoidedLoss	True
24.975	0.31	Lose2	1.0	n/a	Yes	2.772	n/a	n/a	GoodResponse	0	n/a	n/a	0	1	Blank	AvoidedLoss	True
25.276	1.45	Lose2	1.0	n/a	Yes	2.772	n/a	5.0	GoodResponse	0	0.016	24.292	0	1	Feedback	AvoidedLoss	True
26.731	2.772	Lose2	1.0	n/a	Yes	2.772	n/a	n/a	GoodResponse	0	0.0	n/a	0	1	ISIslide	AvoidedLoss	True
29.522	0.25	Control	1.0	0.0	Yes	2.578	0.022	n/a	GoodResponse	0	n/a	n/a	0	2	Cue	Neutral	True
29.773	4.1	Control	1.0	0.0	Yes	2.578	0.001	n/a	GoodResponse	0	n/a	n/a	0	2	Fixation	Neutral	True
33.869	0.38	Control	1.0	0.003	Yes	2.578	-0.003	2.0	GoodResponse	0	0.192	33.061	0	2	Target	Neutral	True
34.061	0.3	Control	1.0	0.003	Yes	2.578	-0.003	2.0	GoodResponse	0	0.192	n/a	0	2	ButtonPress	Neutral	True
34.253	0.32	Control	1.0	n/a	Yes	2.578	n/a	n/a	GoodResponse	0	n/a	n/a	0	2	Blank	Neutral	True
34.571	1.45	Control	1.0	n/a	Yes	2.578	n/a	5.0	GoodResponse	0	0.039	33.61	0	2	Feedback	Neutral	True
36.025	2.578	Control	1.0	n/a	Yes	2.578	n/a	n/a	GoodResponse	0	0.0	n/a	0	2	ISIslide	Neutral	True
38.616	0.25	Win2	1.0	0.0	Yes	2.834	0.016	n/a	GoodResponse	1	n/a	n/a	1	3	Cue	Win	True
38.867	3.95	Win2	1.0	0.0	Yes	2.834	0.001	n/a	GoodResponse	1	n/a	n/a	1	3	Fixation	Win	True
42.812	0.37	Win2	1.0	0.004	Yes	2.834	-0.004	2.0	GoodResponse	1	0.258	42.07	1	3	Target	Win	True
43.07	0.3	Win2	1.0	0.004	Yes	2.834	-0.004	2.0	GoodResponse	1	0.258	n/a	1	3	ButtonPress	Win	True
43.197	0.33	Win2	1.0	n/a	Yes	2.834	n/a	n/a	GoodResponse	1	n/a	n/a	1	3	Blank	Win	True
43.514	1.45	Win2	1.0	n/a	Yes	2.834	n/a	5.0	GoodResponse	1	0.021	42.535	1	3	Feedback	Win	True
44.969	2.834	Win2	1.0	n/a	Yes	2.834	n/a	n/a	GoodResponse	1	0.0	n/a	1	3	ISIslide	Win	True
47.827	0.25	Win2	1.0	0.0	Yes	3.273	0.027	n/a	GoodResponse	1	n/a	n/a	2	4	Cue	Win	True
48.078	4.0	Win2	1.0	0.0	Yes	3.273	0.001	n/a	GoodResponse	1	n/a	n/a	2	4	Fixation	Win	True
52.073	0.36	Win2	1.0	0.004	Yes	3.273	-0.004	2.0	GoodResponse	1	0.313	51.386	2	4	Target	Win	True
52.386	0.3	Win2	1.0	0.004	Yes	3.273	-0.004	2.0	GoodResponse	1	0.313	n/a	2	4	ButtonPress	Win	True
52.441	0.34	Win2	1.0	n/a	Yes	3.273	n/a	n/a	GoodResponse	1	n/a	n/a	2	4	Blank	Win	True
52.775	1.45	Win2	1.0	n/a	Yes	3.273	n/a	5.0	GoodResponse	1	0.029	51.804	2	4	Feedback	Win	True
54.23	3.273	Win2	1.0	n/a	Yes	3.273	n/a	n/a	GoodResponse	1	0.0	n/a	2	4	ISIslide	Win	True
57.523	0.25	Win2	0.8332999999999999	0.0	No	2.777	0.023	n/a	NoResponse	0	n/a	n/a	2	5	Cue	MissedWin	True
57.773	4.0	Win2	0.8332999999999999	0.001	No	2.777	0.0	n/a	NoResponse	0	n/a	n/a	2	5	Fixation	MissedWin	True
61.769	0.35	Win2	0.8332999999999999	0.004	No	2.777	-0.004	2.0	NoResponse	0	0.521	61.29	2	5	Target	MissedWin	True
62.12	0.35	Win2	0.8332999999999999	n/a	No	2.777	n/a	n/a	NoResponse	0	n/a	n/a	2	5	Blank	MissedWin	True
62.29	0.3	Win2	0.8332999999999999	0.004	No	2.777	-0.004	2.0	NoResponse	0	0.521	n/a	2	5	ButtonPress	MissedWin	True
62.471	1.45	Win2	0.8332999999999999	n/a	No	2.777	n/a	5.0	NoResponse	0	0.04	61.511	2	5	Feedback	MissedWin	True
63.925	2.777	Win2	0.8332999999999999	n/a	No	2.777	n/a	n/a	NoResponse	0	0.0	n/a	2	5	ISIslide	MissedWin	True
66.717	0.25	Lose2	0.8571	0.0	Yes	2.733	0.017	n/a	GoodResponse	0	n/a	n/a	2	6	Cue	AvoidedLoss	True
66.968	3.95	Lose2	0.8571	0.0	Yes	2.733	0.001	n/a	GoodResponse	0	n/a	n/a	2	6	Fixation	AvoidedLoss	True
70.913	0.34	Lose2	0.8571	0.004	Yes	2.733	-0.004	2.0	GoodResponse	0	0.211	70.124	2	6	Target	AvoidedLoss	True
71.124	0.3	Lose2	0.8571	0.004	Yes	2.733	-0.004	2.0	GoodResponse	0	0.211	n/a	2	6	ButtonPress	AvoidedLoss	True
71.264	0.36	Lose2	0.8571	n/a	Yes	2.733	n/a	n/a	GoodResponse	0	n/a	n/a	2	6	Blank	AvoidedLoss	True
71.615	1.45	Lose2	0.8571	n/a	Yes	2.733	n/a	5.0	GoodResponse	0	0.018	70.633	2	6	Feedback	AvoidedLoss	True
73.069	2.733	Lose2	0.8571	n/a	Yes	2.733	n/a	n/a	GoodResponse	0	0.0	n/a	2	6	ISIslide	AvoidedLoss	True
75.827	0.25	Lose2	0.875	0.001	Yes	4.023	0.027	n/a	GoodResponse	0	n/a	n/a	2	7	Cue	AvoidedLoss	True
76.078	4.05	Lose2	0.875	0.0	Yes	4.023	0.001	n/a	GoodResponse	0	n/a	n/a	2	7	Fixation	AvoidedLoss	True
80.124	0.33	Lose2	0.875	0.003	Yes	4.023	-0.003	2.0	GoodResponse	0	0.272	79.396	2	7	Target	AvoidedLoss	True
80.396	0.3	Lose2	0.875	0.003	Yes	4.023	-0.003	2.0	GoodResponse	0	0.272	n/a	2	7	ButtonPress	AvoidedLoss	True
80.458	0.37	Lose2	0.875	n/a	Yes	4.023	n/a	n/a	GoodResponse	0	n/a	n/a	2	7	Blank	AvoidedLoss	True
80.826	1.45	Lose2	0.875	n/a	Yes	4.023	n/a	5.0	GoodResponse	0	0.027	79.853	2	7	Feedback	AvoidedLoss	True
82.28	4.023	Lose2	0.875	n/a	Yes	4.023	n/a	n/a	GoodResponse	0	0.0	n/a	2	7	ISIslide	AvoidedLoss	True
86.326	0.25	Lose2	0.8889	0.0	Yes	3.024	0.026	n/a	GoodResponse	0	n/a	n/a	2	8	Cue	AvoidedLoss	True
86.576	3.95	Lose2	0.8889	0.0	Yes	3.024	0.0	n/a	GoodResponse	0	n/a	n/a	2	8	Fixation	AvoidedLoss	True
90.538	0.32	Lose2	0.8889	0.0	Yes	3.024	0.012	2.0	GoodResponse	0	0.177	89.715	2	8	Target	AvoidedLoss	True
90.715	0.3	Lose2	0.8889	0.0	Yes	3.024	0.012	2.0	GoodResponse	0	0.177	n/a	2	8	ButtonPress	AvoidedLoss	True
90.856	0.38	Lose2	0.8889	n/a	Yes	3.024	n/a	n/a	GoodResponse	0	n/a	n/a	2	8	Blank	AvoidedLoss	True
91.224	1.45	Lose2	0.8889	n/a	Yes	3.024	n/a	5.0	GoodResponse	0	0.018	90.242	2	8	Feedback	AvoidedLoss	True
92.678	3.024	Lose2	0.8889	n/a	Yes	3.024	n/a	n/a	GoodResponse	0	0.0	n/a	2	8	ISIslide	AvoidedLoss	True
95.72	0.25	Lose2	0.9	0.0	Yes	3.13	0.02	n/a	GoodResponse	0	n/a	n/a	2	9	Cue	AvoidedLoss	True
95.971	3.95	Lose2	0.9	0.0	Yes	3.13	0.001	n/a	GoodResponse	0	n/a	n/a	2	9	Fixation	AvoidedLoss	True
99.916	0.31	Lose2	0.9	0.004	Yes	3.13	-0.004	2.0	GoodResponse	0	0.191	99.107	2	9	Target	AvoidedLoss	True
100.107	0.3	Lose2	0.9	0.004	Yes	3.13	-0.004	2.0	GoodResponse	0	0.191	n/a	2	9	ButtonPress	AvoidedLoss	True
100.234	0.39	Lose2	0.9	n/a	Yes	3.13	n/a	n/a	GoodResponse	0	n/a	n/a	2	9	Blank	AvoidedLoss	True
100.618	1.45	Lose2	0.9	n/a	Yes	3.13	n/a	5.0	GoodResponse	0	0.039	99.657	2	9	Feedback	AvoidedLoss	True
102.073	3.13	Lose2	0.9	n/a	Yes	3.13	n/a	n/a	GoodResponse	0	0.0	n/a	2	9	ISIslide	AvoidedLoss	True
105.215	0.25	Control	0.8181999999999999	0.0	No	3.285	0.015	n/a	NoResponse	0	n/a	n/a	2	10	Cue	Neutral	True
105.466	4.0	Control	0.8181999999999999	0.0	No	3.285	0.001	n/a	NoResponse	0	n/a	n/a	2	10	Fixation	Neutral	True
109.461	0.3	Control	0.8181999999999999	0.004	No	3.285	-0.004	2.0	NoResponse	0	0.509	108.97	2	10	Target	Neutral	True
109.762	0.4	Control	0.8181999999999999	n/a	No	3.285	n/a	n/a	NoResponse	0	n/a	n/a	2	10	Blank	Neutral	True
109.97	0.3	Control	0.8181999999999999	0.004	No	3.285	-0.004	2.0	NoResponse	0	0.509	n/a	2	10	ButtonPress	Neutral	True
110.163	1.45	Control	0.8181999999999999	n/a	No	3.285	n/a	5.0	NoResponse	0	0.008	109.171	2	10	Feedback	Neutral	True
111.618	3.285	Control	0.8181999999999999	n/a	No	3.285	n/a	n/a	NoResponse	0	0.0	n/a	2	10	ISIslide	Neutral	True
114.928	0.25	Lose2	0.75	0.0	No	2.722	0.028	n/a	NoResponse	-1	n/a	n/a	1	11	Cue	Loss	True
115.178	4.05	Lose2	0.75	0.001	No	2.722	0.0	n/a	NoResponse	-1	n/a	n/a	1	11	Fixation	Loss	True
119.224	0.29	Lose2	0.75	0.004	No	2.722	-0.004	2.0	NoResponse	-1	0.31	118.534	1	11	Target	Loss	True
119.525	0.41	Lose2	0.75	n/a	No	2.722	n/a	n/a	NoResponse	-1	n/a	n/a	1	11	Blank	Loss	True
119.534	0.3	Lose2	0.75	0.004	No	2.722	-0.004	2.0	NoResponse	-1	0.31	n/a	1	11	ButtonPress	Loss	True
119.926	1.45	Lose2	0.75	n/a	No	2.722	n/a	5.0	NoResponse	-1	0.048	118.974	1	11	Feedback	Loss	True
121.38	2.722	Lose2	0.75	n/a	No	2.722	n/a	n/a	NoResponse	-1	0.0	n/a	1	11	ISIslide	Loss	True
124.122	0.25	Control	0.7692	0.0	Yes	2.978	0.022	n/a	GoodResponse	0	n/a	n/a	1	12	Cue	Neutral	True
124.373	3.9	Control	0.7692	0.0	Yes	2.978	0.001	n/a	GoodResponse	0	n/a	n/a	1	12	Fixation	Neutral	True
128.268	0.28	Control	0.7692	0.004	Yes	2.978	-0.004	2.0	GoodResponse	0	0.237	127.505	1	12	Target	Neutral	True
128.505	0.3	Control	0.7692	0.004	Yes	2.978	-0.004	2.0	GoodResponse	0	0.237	n/a	1	12	ButtonPress	Neutral	True
128.552	0.42	Control	0.7692	n/a	Yes	2.978	n/a	n/a	GoodResponse	0	n/a	n/a	1	12	Blank	Neutral	True
128.97	1.45	Control	0.7692	n/a	Yes	2.978	n/a	5.0	GoodResponse	0	0.028	127.998	1	12	Feedback	Neutral	True
130.424	2.978	Control	0.7692	n/a	Yes	2.978	n/a	n/a	GoodResponse	0	0.0	n/a	1	12	ISIslide	Neutral	True
133.416	0.25	Control	0.7857	0.0	Yes	2.784	0.016	n/a	GoodResponse	0	n/a	n/a	1	13	Cue	Neutral	True
133.667	4.0	Control	0.7857	0.0	Yes	2.784	0.001	n/a	GoodResponse	0	n/a	n/a	1	13	Fixation	Neutral	True
137.662	0.27	Control	0.7857	0.004	Yes	2.784	-0.004	2.0	GoodResponse	0	0.209	136.871	1	13	Target	Neutral	True
137.871	0.3	Control	0.7857	0.004	Yes	2.784	-0.004	2.0	GoodResponse	0	0.209	n/a	1	13	ButtonPress	Neutral	True
137.947	0.43	Control	0.7857	n/a	Yes	2.784	n/a	n/a	GoodResponse	0	n/a	n/a	1	13	Blank	Neutral	True
138.364	1.45	Control	0.7857	n/a	Yes	2.784	n/a	5.0	GoodResponse	0	0.049	137.413	1	13	Feedback	Neutral	True
139.819	2.784	Control	0.7857	n/a	Yes	2.784	n/a	n/a	GoodResponse	0	0.0	n/a	1	13	ISIslide	Neutral	True
142.627	0.25	Win2	0.8	0.0	Yes	2.673	0.027	n/a	GoodResponse	1	n/a	n/a	2	14	Cue	Win	True
142.878	4.1	Win2	0.8	0.0	Yes	2.673	0.001	n/a	GoodResponse	1	n/a	n/a	2	14	Fixation	Win	True
146.974	0.26	Win2	0.8	0.003	Yes	2.673	-0.003	2.0	GoodResponse	1	0.198	146.172	2	14	Target	Win	True
147.172	0.3	Win2	0.8	0.003	Yes	2.673	-0.003	2.0	GoodResponse	1	0.198	n/a	2	14	ButtonPress	Win	True
147.241	0.44	Win2	0.8	n/a	Yes	2.673	n/a	n/a	GoodResponse	1	n/a	n/a	2	14	Blank	Win	True
147.676	1.45	Win2	0.8	n/a	Yes	2.673	n/a	5.0	GoodResponse	1	0.005	146.681	2	14	Feedback	Win	True
149.13	2.673	Win2	0.8	n/a	Yes	2.673	n/a	n/a	GoodResponse	1	0.0	n/a	2	14	ISIslide	Win	True
151.821	0.25	Control	0.8125	0.0	Yes	2.979	0.021	n/a	GoodResponse	0	n/a	n/a	2	15	Cue	Neutral	True
152.072	4.0	Control	0.8125	0.0	Yes	2.979	0.001	n/a	GoodResponse	0	n/a	n/a	2	15	Fixation	Neutral	True
156.067	0.25	Control	0.8125	0.004	Yes	2.979	-0.004	2.0	GoodResponse	0	0.225	155.292	2	15	Target	Neutral	True
156.292	0.3	Control	0.8125	0.004	Yes	2.979	-0.004	2.0	GoodResponse	0	0.225	n/a	2	15	ButtonPress	Neutral	True
156.318	0.45	Control	0.8125	n/a	Yes	2.979	n/a	n/a	GoodResponse	0	n/a	n/a	2	15	Blank	Neutral	True
156.769	1.45	Control	0.8125	n/a	Yes	2.979	n/a	5.0	GoodResponse	0	0.034	155.803	2	15	Feedback	Neutral	True
158.224	2.979	Control	0.8125	n/a	Yes	2.979	n/a	n/a	GoodResponse	0	0.0	n/a	2	15	ISIslide	Neutral	True
161.216	0.25	Win2	0.8234999999999999	0.0	Yes	2.884	0.016	n/a	GoodResponse	1	n/a	n/a	3	16	Cue	Win	True
161.467	4.0	Win2	0.8234999999999999	0.0	Yes	2.884	0.001	n/a	GoodResponse	1	n/a	n/a	3	16	Fixation	Win	True
165.462	0.24	Win2	0.8234999999999999	0.004	Yes	2.884	-0.004	2.0	GoodResponse	1	0.195	164.657	3	16	Target	Win	True
165.657	0.3	Win2	0.8234999999999999	0.004	Yes	2.884	-0.004	2.0	GoodResponse	1	0.195	n/a	3	16	ButtonPress	Win	True
165.713	0.46	Win2	0.8234999999999999	n/a	Yes	2.884	n/a	n/a	GoodResponse	1	n/a	n/a	3	16	Blank	Win	True
166.164	1.45	Win2	0.8234999999999999	n/a	Yes	2.884	n/a	5.0	GoodResponse	1	0.008	165.172	3	16	Feedback	Win	True
167.619	2.884	Win2	0.8234999999999999	n/a	Yes	2.884	n/a	n/a	GoodResponse	1	0.0	n/a	3	16	ISIslide	Win	True
170.527	0.25	Lose2	0.8332999999999999	0.0	Yes	2.723	0.027	n/a	GoodResponse	0	n/a	n/a	3	17	Cue	AvoidedLoss	True
170.778	3.95	Lose2	0.8332999999999999	0.0	Yes	2.723	0.001	n/a	GoodResponse	0	n/a	n/a	3	17	Fixation	AvoidedLoss	True
174.723	0.23	Lose2	0.8332999999999999	0.004	Yes	2.723	-0.004	2.0	GoodResponse	0	0.191	173.914	3	17	Target	AvoidedLoss	True
174.914	0.3	Lose2	0.8332999999999999	0.004	Yes	2.723	-0.004	2.0	GoodResponse	0	0.191	n/a	3	17	ButtonPress	AvoidedLoss	True
174.957	0.47	Lose2	0.8332999999999999	n/a	Yes	2.723	n/a	n/a	GoodResponse	0	n/a	n/a	3	17	Blank	AvoidedLoss	True
175.425	1.45	Lose2	0.8332999999999999	n/a	Yes	2.723	n/a	5.0	GoodResponse	0	0.011	174.436	3	17	Feedback	AvoidedLoss	True
176.88	2.723	Lose2	0.8332999999999999	n/a	Yes	2.723	n/a	n/a	GoodResponse	0	0.0	n/a	3	17	ISIslide	AvoidedLoss	True
179.621	0.25	Lose2	0.7895	0.0	No	2.729	0.021	n/a	LatePress	-1	n/a	n/a	2	18	Cue	Loss	True
179.872	4.05	Lose2	0.7895	0.0	No	2.729	0.001	n/a	LatePress	-1	n/a	n/a	2	18	Fixation	Loss	True
183.917	0.22	Lose2	0.7895	0.004	No	2.729	-0.004	2.0	LatePress	-1	0.232	183.149	2	18	Target	Loss	True
184.149	0.3	Lose2	0.7895	0.004	No	2.729	-0.004	2.0	LatePress	-1	0.232	n/a	2	18	ButtonPress	Loss	True
184.151	0.48	Lose2	0.7895	n/a	No	2.729	n/a	n/a	LatePress	-1	n/a	n/a	2	18	Blank	Loss	True
184.619	1.45	Lose2	0.7895	n/a	No	2.729	n/a	5.0	LatePress	-1	0.037	183.656	2	18	Feedback	Loss	True
186.074	2.729	Lose2	0.7895	n/a	No	2.729	n/a	n/a	LatePress	-1	0.0	n/a	2	18	ISIslide	Loss	True
188.815	0.25	Control	0.8	0.0	Yes	2.935	0.015	n/a	GoodResponse	0	n/a	n/a	2	19	Cue	Neutral	True
189.066	3.95	Control	0.8	0.0	Yes	2.935	0.001	n/a	GoodResponse	0	n/a	n/a	2	19	Fixation	Neutral	True
193.011	0.21	Control	0.8	0.004	Yes	2.935	-0.004	2.0	GoodResponse	0	0.18	192.191	2	19	Target	Neutral	True
193.191	0.3	Control	0.8	0.004	Yes	2.935	-0.004	2.0	GoodResponse	0	0.18	n/a	2	19	ButtonPress	Neutral	True
193.228	0.49	Control	0.8	n/a	Yes	2.935	n/a	n/a	GoodResponse	0	n/a	n/a	2	19	Blank	Neutral	True
193.713	1.45	Control	0.8	n/a	Yes	2.935	n/a	5.0	GoodResponse	0	0.016	192.729	2	19	Feedback	Neutral	True
195.168	2.935	Control	0.8	n/a	Yes	2.935	n/a	n/a	GoodResponse	0	0.0	n/a	2	19	ISIslide	Neutral	True
198.126	0.25	Control	0.7619	0.001	No	2.624	0.026	n/a	LatePress	0	n/a	n/a	2	20	Cue	Neutral	True
198.377	4.05	Control	0.7619	0.0	No	2.624	0.001	n/a	LatePress	0	n/a	n/a	2	20	Fixation	Neutral	True
202.423	0.2	Control	0.7619	0.003	No	2.624	-0.003	2.0	LatePress	0	0.202	201.625	2	20	Target	Neutral	True
202.623	0.5	Control	0.7619	n/a	No	2.624	n/a	n/a	LatePress	0	n/a	n/a	2	20	Blank	Neutral	True
202.625	0.3	Control	0.7619	0.003	No	2.624	-0.003	2.0	LatePress	0	0.202	n/a	2	20	ButtonPress	Neutral	True
203.125	1.45	Control	0.7619	n/a	No	2.624	n/a	5.0	LatePress	0	0.019	202.144	2	20	Feedback	Neutral	True
204.579	2.624	Control	0.7619	n/a	No	2.624	n/a	n/a	LatePress	0	0.0	n/a	2	20	ISIslide	Neutral	True
207.22	0.25	Control	0.7273000000000001	0.0	No	2.78	0.02	n/a	NoResponse	0	n/a	n/a	2	21	Cue	Neutral	True
207.471	4.1	Control	0.7273000000000001	0.0	No	2.78	0.001	n/a	NoResponse	0	n/a	n/a	2	21	Fixation	Neutral	True
211.567	0.19	Control	0.7273000000000001	0.003	No	2.78	-0.003	2.0	NoResponse	0	0.401	210.968	2	21	Target	Neutral	True
211.767	0.51	Control	0.7273000000000001	n/a	No	2.78	n/a	n/a	NoResponse	0	n/a	n/a	2	21	Blank	Neutral	True
211.968	0.3	Control	0.7273000000000001	0.003	No	2.78	-0.003	2.0	NoResponse	0	0.401	n/a	2	21	ButtonPress	Neutral	True
212.269	1.45	Control	0.7273000000000001	n/a	No	2.78	n/a	5.0	NoResponse	0	0.045	211.314	2	21	Feedback	Neutral	True
213.723	2.78	Control	0.7273000000000001	n/a	No	2.78	n/a	n/a	NoResponse	0	0.0	n/a	2	21	ISIslide	Neutral	True
216.515	0.25	Control	0.6957	0.0	No	2.785	0.015	n/a	NoResponse	0	n/a	n/a	2	22	Cue	Neutral	True
216.766	4.0	Control	0.6957	0.0	No	2.785	0.001	n/a	NoResponse	0	n/a	n/a	2	22	Fixation	Neutral	True
220.761	0.18	Control	0.6957	0.004	No	2.785	-0.004	2.0	NoResponse	0	0.199	219.96	2	22	Target	Neutral	True
220.945	0.52	Control	0.6957	n/a	No	2.785	n/a	n/a	NoResponse	0	n/a	n/a	2	22	Blank	Neutral	True
220.96	0.3	Control	0.6957	0.004	No	2.785	-0.004	2.0	NoResponse	0	0.199	n/a	2	22	ButtonPress	Neutral	True
221.463	1.45	Control	0.6957	n/a	No	2.785	n/a	5.0	NoResponse	0	0.022	220.485	2	22	Feedback	Neutral	True
222.917	2.785	Control	0.6957	n/a	No	2.785	n/a	n/a	NoResponse	0	0.0	n/a	2	22	ISIslide	Neutral	True
225.726	0.25	Control	0.6667000000000001	0.0	No	2.774	0.026	n/a	NoResponse	0	n/a	n/a	2	23	Cue	Neutral	True
225.976	3.9	Control	0.6667000000000001	0.0	No	2.774	0.0	n/a	NoResponse	0	n/a	n/a	2	23	Fixation	Neutral	True
229.888	0.17	Control	0.6667000000000001	0.0	No	2.774	0.012	2.0	NoResponse	0	0.232	229.12	2	23	Target	Neutral	True
230.055	0.53	Control	0.6667000000000001	n/a	No	2.774	n/a	n/a	NoResponse	0	n/a	n/a	2	23	Blank	Neutral	True
230.12	0.3	Control	0.6667000000000001	0.0	No	2.774	0.012	2.0	NoResponse	0	0.232	n/a	2	23	ButtonPress	Neutral	True
230.573	1.45	Control	0.6667000000000001	n/a	No	2.774	n/a	5.0	NoResponse	0	0.034	229.607	2	23	Feedback	Neutral	True
232.028	2.774	Control	0.6667000000000001	n/a	No	2.774	n/a	n/a	NoResponse	0	0.0	n/a	2	23	ISIslide	Neutral	True
234.82	0.25	Win2	0.64	0.0	No	3.13	0.02	n/a	NoResponse	0	n/a	n/a	2	24	Cue	MissedWin	False
235.07	3.95	Win2	0.64	0.0	No	3.13	0.0	2.0	NoResponse	0	3.741	237.811	2	24	Fixation	MissedWin	False
238.811	0.3	Win2	0.64	0.0	No	3.13	0.0	2.0	NoResponse	0	3.741	n/a	2	24	ButtonPress	MissedWin	False
239.032	0.16	Win2	0.64	0.0	No	3.13	0.012	2.0	NoResponse	0	0.279	238.311	2	24	Target	MissedWin	False
239.183	0.54	Win2	0.64	n/a	No	3.13	n/a	n/a	NoResponse	0	n/a	n/a	2	24	Blank	MissedWin	False
239.311	0.3	Win2	0.64	0.0	No	3.13	0.012	2.0	NoResponse	0	0.279	n/a	2	24	ButtonPress	MissedWin	False
239.717	1.45	Win2	0.64	n/a	No	3.13	n/a	5.0	NoResponse	0	0.012	238.729	2	24	Feedback	MissedWin	False
241.172	3.13	Win2	0.64	n/a	No	3.13	n/a	n/a	NoResponse	0	0.0	n/a	2	24	ISIslide	MissedWin	False
244.331	0.25	Win2	0.6154	0.0	No	3.069	0.031	n/a	NoResponse	0	n/a	n/a	2	25	Cue	MissedWin	True
244.582	4.0	Win2	0.6154	0.0	No	3.069	0.001	n/a	NoResponse	0	n/a	n/a	2	25	Fixation	MissedWin	True
248.577	0.17	Win2	0.6154	0.004	No	3.069	-0.004	2.0	NoResponse	0	0.202	247.779	2	25	Target	MissedWin	True
248.761	0.53	Win2	0.6154	n/a	No	3.069	n/a	n/a	NoResponse	0	n/a	n/a	2	25	Blank	MissedWin	True
248.779	0.3	Win2	0.6154	0.004	No	3.069	-0.004	2.0	NoResponse	0	0.202	n/a	2	25	ButtonPress	MissedWin	True
249.279	1.45	Win2	0.6154	n/a	No	3.069	n/a	5.0	NoResponse	0	0.011	248.29	2	25	Feedback	MissedWin	True
250.734	3.069	Win2	0.6154	n/a	No	3.069	n/a	n/a	NoResponse	0	0.0	n/a	2	25	ISIslide	MissedWin	True
253.826	0.25	Win2	0.5926	0.0	No	2.924	0.026	n/a	NoResponse	0	n/a	n/a	2	26	Cue	MissedWin	True
254.077	3.95	Win2	0.5926	0.0	No	2.924	0.001	n/a	NoResponse	0	n/a	n/a	2	26	Fixation	MissedWin	True
258.022	0.18	Win2	0.5926	0.004	No	2.924	-0.004	2.0	NoResponse	0	0.261	257.283	2	26	Target	MissedWin	True
258.206	0.52	Win2	0.5926	n/a	No	2.924	n/a	n/a	NoResponse	0	n/a	n/a	2	26	Blank	MissedWin	True
258.283	0.3	Win2	0.5926	0.004	No	2.924	-0.004	2.0	NoResponse	0	0.261	n/a	2	26	ButtonPress	MissedWin	True
258.724	1.45	Win2	0.5926	n/a	No	2.924	n/a	5.0	NoResponse	0	0.028	257.752	2	26	Feedback	MissedWin	True
260.179	2.924	Win2	0.5926	n/a	No	2.924	n/a	n/a	NoResponse	0	0.0	n/a	2	26	ISIslide	MissedWin	True
263.121	0.25	Lose2	0.6071	0.0	Yes	2.829	0.021	n/a	GoodResponse	0	n/a	n/a	2	27	Cue	AvoidedLoss	True
263.372	4.05	Lose2	0.6071	0.0	Yes	2.829	0.001	n/a	GoodResponse	0	n/a	n/a	2	27	Fixation	AvoidedLoss	True
267.417	0.19	Lose2	0.6071	0.004	Yes	2.829	-0.004	2.0	GoodResponse	0	0.17	266.587	2	27	Target	AvoidedLoss	True
267.587	0.3	Lose2	0.6071	0.004	Yes	2.829	-0.004	2.0	GoodResponse	0	0.17	n/a	2	27	ButtonPress	AvoidedLoss	True
267.618	0.51	Lose2	0.6071	n/a	Yes	2.829	n/a	n/a	GoodResponse	0	n/a	n/a	2	27	Blank	AvoidedLoss	True
268.119	1.45	Lose2	0.6071	n/a	Yes	2.829	n/a	5.0	GoodResponse	0	0.048	267.167	2	27	Feedback	AvoidedLoss	True
269.573	2.829	Lose2	0.6071	n/a	Yes	2.829	n/a	n/a	GoodResponse	0	0.0	n/a	2	27	ISIslide	AvoidedLoss	True
272.415	0.25	Control	0.6207	0.0	Yes	2.835	0.015	n/a	GoodResponse	0	n/a	n/a	2	28	Cue	Neutral	True
272.666	4.05	Control	0.6207	0.0	Yes	2.835	0.001	n/a	GoodResponse	0	n/a	n/a	2	28	Fixation	Neutral	True
276.711	0.2	Control	0.6207	0.004	Yes	2.835	-0.004	2.0	GoodResponse	0	0.161	275.872	2	28	Target	Neutral	True
276.872	0.3	Control	0.6207	0.004	Yes	2.835	-0.004	2.0	GoodResponse	0	0.161	n/a	2	28	ButtonPress	Neutral	True
276.912	0.5	Control	0.6207	n/a	Yes	2.835	n/a	n/a	GoodResponse	0	n/a	n/a	2	28	Blank	Neutral	True
277.414	1.45	Control	0.6207	n/a	Yes	2.835	n/a	5.0	GoodResponse	0	0.021	276.435	2	28	Feedback	Neutral	True
278.868	2.835	Control	0.6207	n/a	Yes	2.835	n/a	n/a	GoodResponse	0	0.0	n/a	2	28	ISIslide	Neutral	True
281.726	0.25	Lose2	0.6	0.0	No	2.824	0.026	n/a	NoResponse	-1	n/a	n/a	1	29	Cue	Loss	True
281.977	3.95	Lose2	0.6	0.0	No	2.824	0.001	n/a	NoResponse	-1	n/a	n/a	1	29	Fixation	Loss	True
285.922	0.21	Lose2	0.6	0.004	No	2.824	-0.004	2.0	NoResponse	-1	0.226	285.148	1	29	Target	Loss	True
286.14	0.49	Lose2	0.6	n/a	No	2.824	n/a	n/a	NoResponse	-1	n/a	n/a	1	29	Blank	Loss	True
286.148	0.3	Lose2	0.6	0.004	No	2.824	-0.004	2.0	NoResponse	-1	0.226	n/a	1	29	ButtonPress	Loss	True
286.624	1.45	Lose2	0.6	n/a	No	2.824	n/a	5.0	NoResponse	-1	0.031	285.655	1	29	Feedback	Loss	True
288.079	2.824	Lose2	0.6	n/a	No	2.824	n/a	n/a	NoResponse	-1	0.0	n/a	1	29	ISIslide	Loss	True
290.921	0.25	Win2	0.6129	0.0	Yes	2.779	0.021	n/a	GoodResponse	1	n/a	n/a	2	30	Cue	Win	True
291.171	3.9	Win2	0.6129	0.0	Yes	2.779	0.0	n/a	GoodResponse	1	n/a	n/a	2	30	Fixation	Win	True
295.083	0.22	Win2	0.6129	0.0	Yes	2.779	0.012	2.0	GoodResponse	1	0.209	294.292	2	30	Target	Win	True
295.292	0.3	Win2	0.6129	0.0	Yes	2.779	0.012	2.0	GoodResponse	1	0.209	n/a	2	30	ButtonPress	Win	True
295.3	0.48	Win2	0.6129	n/a	Yes	2.779	n/a	n/a	GoodResponse	1	n/a	n/a	2	30	Blank	Win	True
295.768	1.45	Win2	0.6129	n/a	Yes	2.779	n/a	5.0	GoodResponse	1	0.009	294.777	2	30	Feedback	Win	True
297.223	2.779	Win2	0.6129	n/a	Yes	2.779	n/a	n/a	GoodResponse	1	0.0	n/a	2	30	ISIslide	Win	True
300.031	0.25	Lose2	0.5938	0.0	No	2.819	0.031	n/a	NoResponse	-1	n/a	n/a	1	31	Cue	Loss	True
300.282	4.05	Lose2	0.5938	0.0	No	2.819	0.001	n/a	NoResponse	-1	n/a	n/a	1	31	Fixation	Loss	True
304.327	0.23	Lose2	0.5938	0.004	No	2.819	-0.004	2.0	NoResponse	-1	0.445	303.772	1	31	Target	Loss	True
304.561	0.47	Lose2	0.5938	n/a	No	2.819	n/a	n/a	NoResponse	-1	n/a	n/a	1	31	Blank	Loss	True
304.772	0.3	Lose2	0.5938	0.004	No	2.819	-0.004	2.0	NoResponse	-1	0.445	n/a	1	31	ButtonPress	Loss	True
305.029	1.45	Lose2	0.5938	n/a	No	2.819	n/a	5.0	NoResponse	-1	0.015	304.044	1	31	Feedback	Loss	True
306.484	2.819	Lose2	0.5938	n/a	No	2.819	n/a	n/a	NoResponse	-1	0.0	n/a	1	31	ISIslide	Loss	True
309.326	0.25	Lose2	0.6061	0.0	Yes	2.624	0.026	n/a	GoodResponse	0	n/a	n/a	1	32	Cue	AvoidedLoss	True
309.576	4.15	Lose2	0.6061	0.0	Yes	2.624	0.0	n/a	GoodResponse	0	n/a	n/a	1	32	Fixation	AvoidedLoss	True
313.722	0.24	Lose2	0.6061	0.004	Yes	2.624	-0.004	2.0	GoodResponse	0	0.208	312.93	1	32	Target	AvoidedLoss	True
313.93	0.3	Lose2	0.6061	0.004	Yes	2.624	-0.004	2.0	GoodResponse	0	0.208	n/a	1	32	ButtonPress	AvoidedLoss	True
313.973	0.46	Lose2	0.6061	n/a	Yes	2.624	n/a	n/a	GoodResponse	0	n/a	n/a	1	32	Blank	AvoidedLoss	True
314.424	1.45	Lose2	0.6061	n/a	Yes	2.624	n/a	5.0	GoodResponse	0	0.035	313.459	1	32	Feedback	AvoidedLoss	True
315.879	2.624	Lose2	0.6061	n/a	Yes	2.624	n/a	n/a	GoodResponse	0	0.0	n/a	1	32	ISIslide	AvoidedLoss	True
318.52	0.25	Win2	0.6175999999999999	0.0	Yes	2.68	0.02	n/a	GoodResponse	1	n/a	n/a	2	33	Cue	Win	True
318.771	4.0	Win2	0.6175999999999999	0.0	Yes	2.68	0.001	n/a	GoodResponse	1	n/a	n/a	2	33	Fixation	Win	True
322.766	0.25	Win2	0.6175999999999999	0.004	Yes	2.68	-0.004	2.0	GoodResponse	1	0.16	321.926	2	33	Target	Win	True
322.926	0.3	Win2	0.6175999999999999	0.004	Yes	2.68	-0.004	2.0	GoodResponse	1	0.16	n/a	2	33	ButtonPress	Win	True
323.017	0.45	Win2	0.6175999999999999	n/a	Yes	2.68	n/a	n/a	GoodResponse	1	n/a	n/a	2	33	Blank	Win	True
323.468	1.45	Win2	0.6175999999999999	n/a	Yes	2.68	n/a	5.0	GoodResponse	1	0.016	322.484	2	33	Feedback	Win	True
324.922	2.68	Win2	0.6175999999999999	n/a	Yes	2.68	n/a	n/a	GoodResponse	1	0.0	n/a	2	33	ISIslide	Win	True
327.63	0.25	Lose2	0.6286	0.0	Yes	2.62	0.03	n/a	GoodResponse	0	n/a	n/a	2	34	Cue	AvoidedLoss	True
327.881	4.05	Lose2	0.6286	0.0	Yes	2.62	0.001	n/a	GoodResponse	0	n/a	n/a	2	34	Fixation	AvoidedLoss	True
331.927	0.26	Lose2	0.6286	0.003	Yes	2.62	-0.003	2.0	GoodResponse	0	0.214	331.141	2	34	Target	AvoidedLoss	True
332.141	0.3	Lose2	0.6286	0.003	Yes	2.62	-0.003	2.0	GoodResponse	0	0.214	n/a	2	34	ButtonPress	AvoidedLoss	True
332.194	0.44	Lose2	0.6286	n/a	Yes	2.62	n/a	n/a	GoodResponse	0	n/a	n/a	2	34	Blank	AvoidedLoss	True
332.629	1.45	Lose2	0.6286	n/a	Yes	2.62	n/a	5.0	GoodResponse	0	0.026	331.655	2	34	Feedback	AvoidedLoss	True
334.083	2.62	Lose2	0.6286	n/a	Yes	2.62	n/a	n/a	GoodResponse	0	0.0	n/a	2	34	ISIslide	AvoidedLoss	True
336.724	0.25	Lose2	0.6389	0.0	Yes	2.676	0.024	n/a	GoodResponse	0	n/a	n/a	2	35	Cue	AvoidedLoss	True
336.975	4.0	Lose2	0.6389	0.0	Yes	2.676	0.001	n/a	GoodResponse	0	n/a	n/a	2	35	Fixation	AvoidedLoss	True
340.97	0.27	Lose2	0.6389	0.004	Yes	2.676	-0.004	2.0	GoodResponse	0	0.212	340.182	2	35	Target	AvoidedLoss	True
341.182	0.3	Lose2	0.6389	0.004	Yes	2.676	-0.004	2.0	GoodResponse	0	0.212	n/a	2	35	ButtonPress	AvoidedLoss	True
341.254	0.43	Lose2	0.6389	n/a	Yes	2.676	n/a	n/a	GoodResponse	0	n/a	n/a	2	35	Blank	AvoidedLoss	True
341.672	1.45	Lose2	0.6389	n/a	Yes	2.676	n/a	5.0	GoodResponse	0	0.008	340.68	2	35	Feedback	AvoidedLoss	True
343.127	2.676	Lose2	0.6389	n/a	Yes	2.676	n/a	n/a	GoodResponse	0	0.0	n/a	2	35	ISIslide	AvoidedLoss	True
345.818	0.25	Control	0.6486	0.0	Yes	2.682	0.018	n/a	GoodResponse	0	n/a	n/a	2	36	Cue	Neutral	True
346.069	4.0	Control	0.6486	0.0	Yes	2.682	0.001	n/a	GoodResponse	0	n/a	n/a	2	36	Fixation	Neutral	True
350.064	0.28	Control	0.6486	0.004	Yes	2.682	-0.004	2.0	GoodResponse	0	0.16	349.224	2	36	Target	Neutral	True
350.224	0.3	Control	0.6486	0.004	Yes	2.682	-0.004	2.0	GoodResponse	0	0.16	n/a	2	36	ButtonPress	Neutral	True
350.348	0.42	Control	0.6486	n/a	Yes	2.682	n/a	n/a	GoodResponse	0	n/a	n/a	2	36	Blank	Neutral	True
350.766	1.45	Control	0.6486	n/a	Yes	2.682	n/a	5.0	GoodResponse	0	0.034	349.8	2	36	Feedback	Neutral	True
352.221	2.682	Control	0.6486	n/a	Yes	2.682	n/a	n/a	GoodResponse	0	0.0	n/a	2	36	ISIslide	Neutral	True
354.929	0.25	Win2	0.6579	0.0	Yes	2.871	0.029	n/a	GoodResponse	1	n/a	n/a	3	37	Cue	Win	True
355.179	4.0	Win2	0.6579	0.0	Yes	2.871	0.0	n/a	GoodResponse	1	n/a	n/a	3	37	Fixation	Win	True
359.175	0.29	Win2	0.6579	0.004	Yes	2.871	-0.004	2.0	GoodResponse	1	0.195	358.37	3	37	Target	Win	True
359.37	0.3	Win2	0.6579	0.004	Yes	2.871	-0.004	2.0	GoodResponse	1	0.195	n/a	3	37	ButtonPress	Win	True
359.476	0.41	Win2	0.6579	n/a	Yes	2.871	n/a	n/a	GoodResponse	1	n/a	n/a	3	37	Blank	Win	True
359.877	1.45	Win2	0.6579	n/a	Yes	2.871	n/a	5.0	GoodResponse	1	0.045	358.922	3	37	Feedback	Win	True
361.331	2.871	Win2	0.6579	n/a	Yes	2.871	n/a	n/a	GoodResponse	1	0.0	n/a	3	37	ISIslide	Win	True
364.223	0.25	Lose2	0.6667000000000001	0.0	Yes	2.827	0.023	n/a	GoodResponse	0	n/a	n/a	3	38	Cue	AvoidedLoss	True
364.474	3.95	Lose2	0.6667000000000001	0.0	Yes	2.827	0.001	n/a	GoodResponse	0	n/a	n/a	3	38	Fixation	AvoidedLoss	True
368.419	0.29	Lose2	0.6667000000000001	0.004	Yes	2.827	-0.004	2.0	GoodResponse	0	0.277	367.696	3	38	Target	AvoidedLoss	True
368.696	0.3	Lose2	0.6667000000000001	0.004	Yes	2.827	-0.004	2.0	GoodResponse	0	0.277	n/a	3	38	ButtonPress	AvoidedLoss	True
368.72	0.41	Lose2	0.6667000000000001	n/a	Yes	2.827	n/a	n/a	GoodResponse	0	n/a	n/a	3	38	Blank	AvoidedLoss	True
369.121	1.45	Lose2	0.6667000000000001	n/a	Yes	2.827	n/a	5.0	GoodResponse	0	0.021	368.142	3	38	Feedback	AvoidedLoss	True
370.575	2.827	Lose2	0.6667000000000001	n/a	Yes	2.827	n/a	n/a	GoodResponse	0	0.0	n/a	3	38	ISIslide	AvoidedLoss	True
373.417	0.25	Win2	0.65	0.0	No	2.983	0.017	n/a	NoResponse	0	n/a	n/a	3	39	Cue	MissedWin	True
373.668	4.1	Win2	0.65	0.0	No	2.983	0.001	2.0	NoResponse	0	4.041	376.709	3	39	Fixation	MissedWin	True
377.709	0.3	Win2	0.65	0.0	No	2.983	0.001	2.0	NoResponse	0	4.041	n/a	3	39	ButtonPress	MissedWin	True
377.764	0.28	Win2	0.65	0.003	No	2.983	-0.003	n/a	NoResponse	0	n/a	n/a	3	39	Target	MissedWin	True
378.048	0.42	Win2	0.65	n/a	No	2.983	n/a	n/a	NoResponse	0	n/a	n/a	3	39	Blank	MissedWin	True
378.466	1.45	Win2	0.65	n/a	No	2.983	n/a	5.0	NoResponse	0	0.042	377.508	3	39	Feedback	MissedWin	True
379.92	2.983	Win2	0.65	n/a	No	2.983	n/a	n/a	NoResponse	0	0.0	n/a	3	39	ISIslide	MissedWin	True
382.929	0.25	Win2	0.6585	0.0	Yes	2.721	0.029	n/a	GoodResponse	1	n/a	n/a	4	40	Cue	Win	True
383.18	3.95	Win2	0.6585	0.0	Yes	2.721	0.001	n/a	GoodResponse	1	n/a	n/a	4	40	Fixation	Win	True
387.125	0.29	Win2	0.6585	0.004	Yes	2.721	-0.004	2.0	GoodResponse	1	0.262	386.387	4	40	Target	Win	True
387.387	0.3	Win2	0.6585	0.004	Yes	2.721	-0.004	2.0	GoodResponse	1	0.262	n/a	4	40	ButtonPress	Win	True
387.426	0.41	Win2	0.6585	n/a	Yes	2.721	n/a	n/a	GoodResponse	1	n/a	n/a	4	40	Blank	Win	True
387.827	1.45	Win2	0.6585	n/a	Yes	2.721	n/a	5.0	GoodResponse	1	0.046	386.873	4	40	Feedback	Win	True
389.281	2.721	Win2	0.6585	n/a	Yes	2.721	n/a	n/a	GoodResponse	1	0.0	n/a	4	40	ISIslide	Win	True
392.023	0.25	Win2	0.6667000000000001	0.0	Yes	2.777	0.023	n/a	GoodResponse	1	n/a	n/a	5	41	Cue	Win	False
392.274	3.9	Win2	0.6667000000000001	0.0	Yes	2.777	0.001	2.0	GoodResponse	1	0.322	391.596	5	41	Fixation	Win	False
392.596	0.3	Win2	0.6667000000000001	0.0	Yes	2.777	0.001	2.0	GoodResponse	1	0.322	n/a	5	41	ButtonPress	Win	False
396.169	0.29	Win2	0.6667000000000001	0.004	Yes	2.777	-0.004	2.0	GoodResponse	1	0.259	395.428	5	41	Target	Win	False
396.428	0.3	Win2	0.6667000000000001	0.004	Yes	2.777	-0.004	2.0	GoodResponse	1	0.259	n/a	5	41	ButtonPress	Win	False
396.469	0.41	Win2	0.6667000000000001	n/a	Yes	2.777	n/a	n/a	GoodResponse	1	n/a	n/a	5	41	Blank	Win	False
396.871	1.45	Win2	0.6667000000000001	n/a	Yes	2.777	n/a	5.0	GoodResponse	1	0.026	395.897	5	41	Feedback	Win	False
398.325	2.777	Win2	0.6667000000000001	n/a	Yes	2.777	n/a	n/a	GoodResponse	1	0.0	n/a	5	41	ISIslide	Win	False
401.117	0.25	Control	0.6512	0.0	No	2.933	0.017	n/a	NoResponse	0	n/a	n/a	5	42	Cue	Neutral	True
401.367	3.85	Control	0.6512	0.001	No	2.933	0.0	n/a	NoResponse	0	n/a	n/a	5	42	Fixation	Neutral	True
405.229	0.28	Control	0.6512	0.0	No	2.933	0.012	2.0	NoResponse	0	0.501	404.73	5	42	Target	Neutral	True
405.496	0.42	Control	0.6512	n/a	No	2.933	n/a	n/a	NoResponse	0	n/a	n/a	5	42	Blank	Neutral	True
405.73	0.3	Control	0.6512	0.0	No	2.933	0.012	2.0	NoResponse	0	0.501	n/a	5	42	ButtonPress	Neutral	True
405.914	1.45	Control	0.6512	n/a	No	2.933	n/a	5.0	NoResponse	0	0.009	404.923	5	42	Feedback	Neutral	True
407.369	2.933	Control	0.6512	n/a	No	2.933	n/a	n/a	NoResponse	0	0.0	n/a	5	42	ISIslide	Neutral	True
410.328	0.25	Win2	0.6591	0.0	Yes	3.172	0.028	n/a	GoodResponse	1	n/a	n/a	6	43	Cue	Win	True
410.578	4.0	Win2	0.6591	0.0	Yes	3.172	0.0	n/a	GoodResponse	1	n/a	n/a	6	43	Fixation	Win	True
414.574	0.29	Win2	0.6591	0.004	Yes	3.172	-0.004	2.0	GoodResponse	1	0.205	413.779	6	43	Target	Win	True
414.779	0.3	Win2	0.6591	0.004	Yes	3.172	-0.004	2.0	GoodResponse	1	0.205	n/a	6	43	ButtonPress	Win	True
414.875	0.41	Win2	0.6591	n/a	Yes	3.172	n/a	n/a	GoodResponse	1	n/a	n/a	6	43	Blank	Win	True
415.276	1.45	Win2	0.6591	n/a	Yes	3.172	n/a	5.0	GoodResponse	1	0.012	414.288	6	43	Feedback	Win	True
416.73	3.172	Win2	0.6591	n/a	Yes	3.172	n/a	n/a	GoodResponse	1	0.0	n/a	6	43	ISIslide	Win	True
419.923	0.25	Win2	0.6667000000000001	0.0	Yes	2.977	0.023	n/a	GoodResponse	1	n/a	n/a	7	44	Cue	Win	True
420.174	4.0	Win2	0.6667000000000001	0.0	Yes	2.977	0.001	n/a	GoodResponse	1	n/a	n/a	7	44	Fixation	Win	True
424.169	0.29	Win2	0.6667000000000001	0.004	Yes	2.977	-0.004	2.0	GoodResponse	1	0.212	423.381	7	44	Target	Win	True
424.381	0.3	Win2	0.6667000000000001	0.004	Yes	2.977	-0.004	2.0	GoodResponse	1	0.212	n/a	7	44	ButtonPress	Win	True
424.47	0.41	Win2	0.6667000000000001	n/a	Yes	2.977	n/a	n/a	GoodResponse	1	n/a	n/a	7	44	Blank	Win	True
424.871	1.45	Win2	0.6667000000000001	n/a	Yes	2.977	n/a	5.0	GoodResponse	1	0.026	423.897	7	44	Feedback	Win	True
426.325	2.977	Win2	0.6667000000000001	n/a	Yes	2.977	n/a	n/a	GoodResponse	1	0.0	n/a	7	44	ISIslide	Win	True
429.318	0.25	Control	0.6522	0.0	No	2.882	0.018	n/a	NoResponse	0	n/a	n/a	7	45	Cue	Neutral	True
429.568	4.1	Control	0.6522	0.001	No	2.882	0.0	n/a	NoResponse	0	n/a	n/a	7	45	Fixation	Neutral	True
433.664	0.28	Control	0.6522	0.004	No	2.882	-0.004	2.0	NoResponse	0	0.479	433.143	7	45	Target	Neutral	True
433.948	0.42	Control	0.6522	n/a	No	2.882	n/a	n/a	NoResponse	0	n/a	n/a	7	45	Blank	Neutral	True
434.143	0.3	Control	0.6522	0.004	No	2.882	-0.004	2.0	NoResponse	0	0.479	n/a	7	45	ButtonPress	Neutral	True
434.366	1.45	Control	0.6522	n/a	No	2.882	n/a	5.0	NoResponse	0	0.043	433.409	7	45	Feedback	Neutral	True
435.82	2.882	Control	0.6522	n/a	No	2.882	n/a	n/a	NoResponse	0	0.0	n/a	7	45	ISIslide	Neutral	True
438.729	0.25	Lose2	0.6596	0.0	Yes	3.371	0.029	n/a	GoodResponse	0	n/a	n/a	7	46	Cue	AvoidedLoss	True
438.98	4.0	Lose2	0.6596	0.0	Yes	3.371	0.001	n/a	GoodResponse	0	n/a	n/a	7	46	Fixation	AvoidedLoss	True
442.975	0.29	Lose2	0.6596	0.004	Yes	3.371	-0.004	2.0	GoodResponse	0	0.23	442.205	7	46	Target	AvoidedLoss	True
443.205	0.3	Lose2	0.6596	0.004	Yes	3.371	-0.004	2.0	GoodResponse	0	0.23	n/a	7	46	ButtonPress	AvoidedLoss	True
443.276	0.41	Lose2	0.6596	n/a	Yes	3.371	n/a	n/a	GoodResponse	0	n/a	n/a	7	46	Blank	AvoidedLoss	True
443.677	1.45	Lose2	0.6596	n/a	Yes	3.371	n/a	5.0	GoodResponse	0	0.049	442.726	7	46	Feedback	AvoidedLoss	True
445.132	3.371	Lose2	0.6596	n/a	Yes	3.371	n/a	n/a	GoodResponse	0	0.0	n/a	7	46	ISIslide	AvoidedLoss	True
448.525	0.25	Lose2	0.6667000000000001	0.0	Yes	2.675	0.025	n/a	GoodResponse	0	n/a	n/a	7	47	Cue	AvoidedLoss	True
448.776	4.0	Lose2	0.6667000000000001	0.0	Yes	2.675	0.001	n/a	GoodResponse	0	n/a	n/a	7	47	Fixation	AvoidedLoss	True
452.771	0.29	Lose2	0.6667000000000001	0.004	Yes	2.675	-0.004	2.0	GoodResponse	0	0.256	452.027	7	47	Target	AvoidedLoss	True
453.027	0.3	Lose2	0.6667000000000001	0.004	Yes	2.675	-0.004	2.0	GoodResponse	0	0.256	n/a	7	47	ButtonPress	AvoidedLoss	True
453.072	0.41	Lose2	0.6667000000000001	n/a	Yes	2.675	n/a	n/a	GoodResponse	0	n/a	n/a	7	47	Blank	AvoidedLoss	True
453.473	1.45	Lose2	0.6667000000000001	n/a	Yes	2.675	n/a	5.0	GoodResponse	0	0.009	452.482	7	47	Feedback	AvoidedLoss	True
454.928	2.675	Lose2	0.6667000000000001	n/a	Yes	2.675	n/a	n/a	GoodResponse	0	0.0	n/a	7	47	ISIslide	AvoidedLoss	True
457.619	0.25	Lose2	0.6735	0.0	Yes	3.031	0.019	n/a	GoodResponse	0	n/a	n/a	7	48	Cue	AvoidedLoss	True
457.87	3.95	Lose2	0.6735	0.0	Yes	3.031	0.001	n/a	GoodResponse	0	n/a	n/a	7	48	Fixation	AvoidedLoss	True
461.815	0.28	Lose2	0.6735	0.004	Yes	3.031	-0.004	2.0	GoodResponse	0	0.229	461.044	7	48	Target	AvoidedLoss	True
462.044	0.3	Lose2	0.6735	0.004	Yes	3.031	-0.004	2.0	GoodResponse	0	0.229	n/a	7	48	ButtonPress	AvoidedLoss	True
462.099	0.42	Lose2	0.6735	n/a	Yes	3.031	n/a	n/a	GoodResponse	0	n/a	n/a	7	48	Blank	AvoidedLoss	True
462.517	1.45	Lose2	0.6735	n/a	Yes	3.031	n/a	5.0	GoodResponse	0	0.038	461.555	7	48	Feedback	AvoidedLoss	True
463.971	3.031	Lose2	0.6735	n/a	Yes	3.031	n/a	n/a	GoodResponse	0	0.0	n/a	7	48	ISIslide	AvoidedLoss	True
467.03	0.25	Control	0.68	0.001	Yes	2.87	0.03	n/a	GoodResponse	0	n/a	n/a	7	49	Cue	Neutral	True
467.281	4.0	Control	0.68	0.0	Yes	2.87	0.001	n/a	GoodResponse	0	n/a	n/a	7	49	Fixation	Neutral	True
471.277	0.27	Control	0.68	0.003	Yes	2.87	-0.003	2.0	GoodResponse	0	0.229	470.506	7	49	Target	Neutral	True
471.506	0.3	Control	0.68	0.003	Yes	2.87	-0.003	2.0	GoodResponse	0	0.229	n/a	7	49	ButtonPress	Neutral	True
471.561	0.43	Control	0.68	n/a	Yes	2.87	n/a	n/a	GoodResponse	0	n/a	n/a	7	49	Blank	Neutral	True
471.979	1.45	Control	0.68	n/a	Yes	2.87	n/a	5.0	GoodResponse	0	0.039	471.018	7	49	Feedback	Neutral	True
473.433	2.87	Control	0.68	n/a	Yes	2.87	n/a	n/a	GoodResponse	0	0.0	n/a	7	49	ISIslide	Neutral	True
476.325	0.25	Control	0.6862999999999999	0.0	Yes	2.775	0.025	n/a	GoodResponse	0	n/a	n/a	7	50	Cue	Neutral	True
476.576	4.0	Control	0.6862999999999999	0.0	Yes	2.775	0.001	n/a	GoodResponse	0	n/a	n/a	7	50	Fixation	Neutral	True
480.571	0.26	Control	0.6862999999999999	0.004	Yes	2.775	-0.004	2.0	GoodResponse	0	0.245	479.816	7	50	Target	Neutral	True
480.816	0.3	Control	0.6862999999999999	0.004	Yes	2.775	-0.004	2.0	GoodResponse	0	0.245	n/a	7	50	ButtonPress	Neutral	True
480.838	0.44	Control	0.6862999999999999	n/a	Yes	2.775	n/a	n/a	GoodResponse	0	n/a	n/a	7	50	Blank	Neutral	True
481.273	1.45	Control	0.6862999999999999	n/a	Yes	2.775	n/a	5.0	GoodResponse	0	0.013	480.286	7	50	Feedback	Neutral	True
482.727	2.775	Control	0.6862999999999999	n/a	Yes	2.775	n/a	n/a	GoodResponse	0	0.0	n/a	7	50	ISIslide	Neutral	True
485.519	0.25	Control	0.6731	0.0	No	2.731	0.019	n/a	NoResponse	0	n/a	n/a	7	51	Cue	Neutral	True
485.77	3.95	Control	0.6731	0.0	No	2.731	0.001	n/a	NoResponse	0	n/a	n/a	7	51	Fixation	Neutral	True
489.715	0.25	Control	0.6731	0.004	No	2.731	-0.004	2.0	NoResponse	0	0.575	489.29	7	51	Target	Neutral	True
489.966	0.45	Control	0.6731	n/a	No	2.731	n/a	n/a	NoResponse	0	n/a	n/a	7	51	Blank	Neutral	True
490.29	0.3	Control	0.6731	0.004	No	2.731	-0.004	2.0	NoResponse	0	0.575	n/a	7	51	ButtonPress	Neutral	True
490.417	1.45	Control	0.6731	n/a	No	2.731	n/a	5.0	NoResponse	0	0.04	489.457	7	51	Feedback	Neutral	True
491.871	2.731	Control	0.6731	n/a	No	2.731	n/a	n/a	NoResponse	0	0.0	n/a	7	51	ISIslide	Neutral	True
494.63	0.25	Control	0.6604000000000001	0.0	No	2.62	0.03	n/a	NoResponse	0	n/a	n/a	7	52	Cue	Neutral	True
494.88	4.05	Control	0.6604000000000001	0.0	No	2.62	0.0	n/a	NoResponse	0	n/a	n/a	7	52	Fixation	Neutral	True
498.926	0.24	Control	0.6604000000000001	0.004	No	2.62	-0.004	2.0	NoResponse	0	0.324	498.25	7	52	Target	Neutral	True
499.177	0.46	Control	0.6604000000000001	n/a	No	2.62	n/a	n/a	NoResponse	0	n/a	n/a	7	52	Blank	Neutral	True
499.25	0.3	Control	0.6604000000000001	0.004	No	2.62	-0.004	2.0	NoResponse	0	0.324	n/a	7	52	ButtonPress	Neutral	True
499.628	1.45	Control	0.6604000000000001	n/a	No	2.62	n/a	5.0	NoResponse	0	0.049	498.677	7	52	Feedback	Neutral	True
501.082	2.62	Control	0.6604000000000001	n/a	No	2.62	n/a	n/a	NoResponse	0	0.0	n/a	7	52	ISIslide	Neutral	True
503.724	0.25	Win2	0.6667000000000001	0.0	Yes	2.926	0.024	n/a	GoodResponse	1	n/a	n/a	8	53	Cue	Win	True
503.974	4.05	Win2	0.6667000000000001	0.0	Yes	2.926	0.0	n/a	GoodResponse	1	n/a	n/a	8	53	Fixation	Win	True
508.02	0.24	Win2	0.6667000000000001	0.004	Yes	2.926	-0.004	2.0	GoodResponse	1	0.215	507.235	8	53	Target	Win	True
508.235	0.3	Win2	0.6667000000000001	0.004	Yes	2.926	-0.004	2.0	GoodResponse	1	0.215	n/a	8	53	ButtonPress	Win	True
508.27	0.46	Win2	0.6667000000000001	n/a	Yes	2.926	n/a	n/a	GoodResponse	1	n/a	n/a	8	53	Blank	Win	True
508.722	1.45	Win2	0.6667000000000001	n/a	Yes	2.926	n/a	5.0	GoodResponse	1	0.028	507.75	8	53	Feedback	Win	True
510.176	2.926	Win2	0.6667000000000001	n/a	Yes	2.926	n/a	n/a	GoodResponse	1	0.0	n/a	8	53	ISIslide	Win	True
513.118	0.25	Win2	0.6545000000000001	0.0	No	2.732	0.018	n/a	NoResponse	0	n/a	n/a	8	54	Cue	MissedWin	True
513.369	3.95	Win2	0.6545000000000001	0.0	No	2.732	0.001	n/a	NoResponse	0	n/a	n/a	8	54	Fixation	MissedWin	True
517.314	0.23	Win2	0.6545000000000001	0.004	No	2.732	-0.004	2.0	NoResponse	0	0.256	516.57	8	54	Target	MissedWin	True
517.548	0.47	Win2	0.6545000000000001	n/a	No	2.732	n/a	n/a	NoResponse	0	n/a	n/a	8	54	Blank	MissedWin	True
517.57	0.3	Win2	0.6545000000000001	0.004	No	2.732	-0.004	2.0	NoResponse	0	0.256	n/a	8	54	ButtonPress	MissedWin	True
518.016	1.45	Win2	0.6545000000000001	n/a	No	2.732	n/a	5.0	NoResponse	0	0.001	517.017	8	54	Feedback	MissedWin	True
519.471	2.732	Win2	0.6545000000000001	n/a	No	2.732	n/a	n/a	NoResponse	0	0.0	n/a	8	54	ISIslide	MissedWin	True
522.229	0.25	Control	0.6429	0.0	No	3.021	0.029	n/a	NoResponse	0	n/a	n/a	8	55	Cue	Neutral	True
522.48	3.95	Control	0.6429	0.0	No	3.021	0.001	n/a	NoResponse	0	n/a	n/a	8	55	Fixation	Neutral	True
526.425	0.24	Control	0.6429	0.004	No	3.021	-0.004	2.0	NoResponse	0	0.273	525.698	8	55	Target	Neutral	True
526.675	0.46	Control	0.6429	n/a	No	3.021	n/a	n/a	NoResponse	0	n/a	n/a	8	55	Blank	Neutral	True
526.698	0.3	Control	0.6429	0.004	No	3.021	-0.004	2.0	NoResponse	0	0.273	n/a	8	55	ButtonPress	Neutral	True
527.127	1.45	Control	0.6429	n/a	No	3.021	n/a	5.0	NoResponse	0	0.013	526.14	8	55	Feedback	Neutral	True
528.581	3.021	Control	0.6429	n/a	No	3.021	n/a	n/a	NoResponse	0	0.0	n/a	8	55	ISIslide	Neutral	True
531.624	0.25	Control	0.6491	0.0	Yes	2.826	0.024	n/a	GoodResponse	0	n/a	n/a	8	56	Cue	Neutral	True
531.874	3.95	Control	0.6491	0.0	Yes	2.826	0.0	n/a	GoodResponse	0	n/a	n/a	8	56	Fixation	Neutral	True
535.819	0.25	Control	0.6491	0.005	Yes	2.826	-0.005	2.0	GoodResponse	0	0.225	535.044	8	56	Target	Neutral	True
536.044	0.3	Control	0.6491	0.005	Yes	2.826	-0.005	2.0	GoodResponse	0	0.225	n/a	8	56	ButtonPress	Neutral	True
536.07	0.45	Control	0.6491	n/a	Yes	2.826	n/a	n/a	GoodResponse	0	n/a	n/a	8	56	Blank	Neutral	True
536.522	1.45	Control	0.6491	n/a	Yes	2.826	n/a	5.0	GoodResponse	0	0.032	535.554	8	56	Feedback	Neutral	True
537.976	2.826	Control	0.6491	n/a	Yes	2.826	n/a	n/a	GoodResponse	0	0.0	n/a	8	56	ISIslide	Neutral	True
540.818	0.25	Control	0.6379	0.0	No	3.482	0.018	n/a	NoResponse	0	n/a	n/a	8	57	Cue	Neutral	True
541.069	4.0	Control	0.6379	0.0	No	3.482	0.001	n/a	NoResponse	0	n/a	n/a	8	57	Fixation	Neutral	True
545.064	0.26	Control	0.6379	0.004	No	3.482	-0.004	2.0	NoResponse	0	0.645	544.709	8	57	Target	Neutral	True
545.331	0.44	Control	0.6379	n/a	No	3.482	n/a	n/a	NoResponse	0	n/a	n/a	8	57	Blank	Neutral	True
545.709	0.3	Control	0.6379	0.004	No	3.482	-0.004	2.0	NoResponse	0	0.645	n/a	8	57	ButtonPress	Neutral	True
545.766	1.45	Control	0.6379	n/a	No	3.482	n/a	5.0	NoResponse	0	0.008	544.774	8	57	Feedback	Neutral	True
547.22	3.482	Control	0.6379	n/a	No	3.482	n/a	n/a	NoResponse	0	0.0	n/a	8	57	ISIslide	Neutral	True
550.731	0.25	Win2	0.6441	0.0	Yes	2.719	0.031	n/a	GoodResponse	1	n/a	n/a	9	58	Cue	Win	True
550.981	4.05	Win2	0.6441	0.001	Yes	2.719	0.0	n/a	GoodResponse	1	n/a	n/a	9	58	Fixation	Win	True
555.027	0.27	Win2	0.6441	0.004	Yes	2.719	-0.004	2.0	GoodResponse	1	0.25	554.277	9	58	Target	Win	True
555.277	0.3	Win2	0.6441	0.004	Yes	2.719	-0.004	2.0	GoodResponse	1	0.25	n/a	9	58	ButtonPress	Win	True
555.311	0.43	Win2	0.6441	n/a	Yes	2.719	n/a	n/a	GoodResponse	1	n/a	n/a	9	58	Blank	Win	True
555.729	1.45	Win2	0.6441	n/a	Yes	2.719	n/a	5.0	GoodResponse	1	0.044	554.773	9	58	Feedback	Win	True
557.183	2.719	Win2	0.6441	n/a	Yes	2.719	n/a	n/a	GoodResponse	1	0.0	n/a	9	58	ISIslide	Win	True
559.925	0.25	Lose2	0.65	0.0	Yes	2.675	0.025	n/a	GoodResponse	0	n/a	n/a	9	59	Cue	AvoidedLoss	True
560.176	4.0	Lose2	0.65	0.0	Yes	2.675	0.001	n/a	GoodResponse	0	n/a	n/a	9	59	Fixation	AvoidedLoss	True
564.171	0.28	Lose2	0.65	0.004	Yes	2.675	-0.004	2.0	GoodResponse	0	0.202	563.373	9	59	Target	AvoidedLoss	True
564.373	0.3	Lose2	0.65	0.004	Yes	2.675	-0.004	2.0	GoodResponse	0	0.202	n/a	9	59	ButtonPress	AvoidedLoss	True
564.455	0.42	Lose2	0.65	n/a	Yes	2.675	n/a	n/a	GoodResponse	0	n/a	n/a	9	59	Blank	AvoidedLoss	True
564.873	1.45	Lose2	0.65	n/a	Yes	2.675	n/a	5.0	GoodResponse	0	0.022	563.895	9	59	Feedback	AvoidedLoss	True
566.327	2.675	Lose2	0.65	n/a	Yes	2.675	n/a	n/a	GoodResponse	0	0.0	n/a	9	59	ISIslide	AvoidedLoss	True
569.019	0.25	Control	0.6557	0.0	Yes	2.681	0.019	n/a	GoodResponse	0	n/a	n/a	9	60	Cue	Neutral	True
569.269	4.0	Control	0.6557	0.001	Yes	2.681	0.0	n/a	GoodResponse	0	n/a	n/a	9	60	Fixation	Neutral	True
573.265	0.29	Control	0.6557	0.004	Yes	2.681	-0.004	2.0	GoodResponse	0	0.146	572.411	9	60	Target	Neutral	True
573.411	0.3	Control	0.6557	0.004	Yes	2.681	-0.004	2.0	GoodResponse	0	0.146	n/a	9	60	ButtonPress	Neutral	True
573.566	0.41	Control	0.6557	n/a	Yes	2.681	n/a	n/a	GoodResponse	0	n/a	n/a	9	60	Blank	Neutral	True
573.967	1.45	Control	0.6557	n/a	Yes	2.681	n/a	5.0	GoodResponse	0	0.001	572.968	9	60	Feedback	Neutral	True
575.421	2.681	Control	0.6557	n/a	Yes	2.681	n/a	n/a	GoodResponse	0	0.0	n/a	9	60	ISIslide	Neutral	True
578.129	0.25	Lose2	0.6452	0.0	No	2.971	0.029	n/a	LatePress	-1	n/a	n/a	8	61	Cue	Loss	True
578.38	4.0	Lose2	0.6452	0.0	No	2.971	0.001	n/a	LatePress	-1	n/a	n/a	8	61	Fixation	Loss	True
582.375	0.29	Lose2	0.6452	0.004	No	2.971	-0.004	2.0	LatePress	-1	0.293	581.668	8	61	Target	Loss	True
582.668	0.3	Lose2	0.6452	0.004	No	2.971	-0.004	2.0	LatePress	-1	0.293	n/a	8	61	ButtonPress	Loss	True
582.676	0.41	Lose2	0.6452	n/a	No	2.971	n/a	n/a	LatePress	-1	n/a	n/a	8	61	Blank	Loss	True
583.077	1.45	Lose2	0.6452	n/a	No	2.971	n/a	5.0	LatePress	-1	0.013	582.09	8	61	Feedback	Loss	True
584.532	2.971	Lose2	0.6452	n/a	No	2.971	n/a	n/a	LatePress	-1	0.0	n/a	8	61	ISIslide	Loss	True
587.524	0.25	Lose2	0.6507999999999999	0.0	Yes	2.876	0.024	n/a	GoodResponse	0	n/a	n/a	8	62	Cue	AvoidedLoss	True
587.775	3.9	Lose2	0.6507999999999999	0.0	Yes	2.876	0.001	n/a	GoodResponse	0	n/a	n/a	8	62	Fixation	AvoidedLoss	True
591.67	0.3	Lose2	0.6507999999999999	0.004	Yes	2.876	-0.004	2.0	GoodResponse	0	0.242	590.912	8	62	Target	AvoidedLoss	True
591.912	0.3	Lose2	0.6507999999999999	0.004	Yes	2.876	-0.004	2.0	GoodResponse	0	0.242	n/a	8	62	ButtonPress	AvoidedLoss	True
591.971	0.4	Lose2	0.6507999999999999	n/a	Yes	2.876	n/a	n/a	GoodResponse	0	n/a	n/a	8	62	Blank	AvoidedLoss	True
592.372	1.45	Lose2	0.6507999999999999	n/a	Yes	2.876	n/a	5.0	GoodResponse	0	0.036	591.408	8	62	Feedback	AvoidedLoss	True
593.826	2.876	Lose2	0.6507999999999999	n/a	Yes	2.876	n/a	n/a	GoodResponse	0	0.0	n/a	8	62	ISIslide	AvoidedLoss	True
596.718	0.25	Lose2	0.6406000000000001	0.0	No	2.632	0.018	n/a	LatePress	-1	n/a	n/a	7	63	Cue	Loss	True
596.969	4.05	Lose2	0.6406000000000001	0.0	No	2.632	0.001	n/a	LatePress	-1	n/a	n/a	7	63	Fixation	Loss	True
601.014	0.31	Lose2	0.6406000000000001	0.004	No	2.632	-0.004	2.0	LatePress	-1	0.31	600.324	7	63	Target	Loss	True
601.324	0.3	Lose2	0.6406000000000001	0.004	No	2.632	-0.004	2.0	LatePress	-1	0.31	n/a	7	63	ButtonPress	Loss	True
601.332	0.39	Lose2	0.6406000000000001	n/a	No	2.632	n/a	n/a	LatePress	-1	n/a	n/a	7	63	Blank	Loss	True
601.716	1.45	Lose2	0.6406000000000001	n/a	No	2.632	n/a	5.0	LatePress	-1	0.008	600.724	7	63	Feedback	Loss	True
603.171	2.632	Lose2	0.6406000000000001	n/a	No	2.632	n/a	n/a	LatePress	-1	0.0	n/a	7	63	ISIslide	Loss	True
605.829	0.25	Win2	0.6462	0.0	Yes	3.121	0.029	n/a	GoodResponse	1	n/a	n/a	8	64	Cue	Win	True
606.08	4.15	Win2	0.6462	0.0	Yes	3.121	0.001	n/a	GoodResponse	1	n/a	n/a	8	64	Fixation	Win	True
610.225	0.32	Win2	0.6462	0.004	Yes	3.121	-0.004	2.0	GoodResponse	1	0.294	609.519	8	64	Target	Win	True
610.519	0.3	Win2	0.6462	0.004	Yes	3.121	-0.004	2.0	GoodResponse	1	0.294	n/a	8	64	ButtonPress	Win	True
610.56	0.38	Win2	0.6462	n/a	Yes	3.121	n/a	n/a	GoodResponse	1	n/a	n/a	8	64	Blank	Win	True
610.927	1.45	Win2	0.6462	n/a	Yes	3.121	n/a	5.0	GoodResponse	1	0.016	609.943	8	64	Feedback	Win	True
612.382	3.121	Win2	0.6462	n/a	Yes	3.121	n/a	n/a	GoodResponse	1	0.0	n/a	8	64	ISIslide	Win	True
615.524	0.25	Control	0.6515000000000001	0.001	Yes	2.776	0.024	n/a	GoodResponse	0	n/a	n/a	8	65	Cue	Neutral	True
615.775	4.0	Control	0.6515000000000001	0.0	Yes	2.776	0.001	n/a	GoodResponse	0	n/a	n/a	8	65	Fixation	Neutral	True
619.77	0.33	Control	0.6515000000000001	0.004	Yes	2.776	-0.004	2.0	GoodResponse	0	0.29	619.06	8	65	Target	Neutral	True
620.06	0.3	Control	0.6515000000000001	0.004	Yes	2.776	-0.004	2.0	GoodResponse	0	0.29	n/a	8	65	ButtonPress	Neutral	True
620.105	0.37	Control	0.6515000000000001	n/a	Yes	2.776	n/a	n/a	GoodResponse	0	n/a	n/a	8	65	Blank	Neutral	True
620.473	1.45	Control	0.6515000000000001	n/a	Yes	2.776	n/a	5.0	GoodResponse	0	0.031	619.504	8	65	Feedback	Neutral	True
621.927	2.776	Control	0.6515000000000001	n/a	Yes	2.776	n/a	n/a	GoodResponse	0	0.0	n/a	8	65	ISIslide	Neutral	True
624.719	0.25	Win2	0.6567000000000001	0.0	Yes	2.781	0.019	n/a	GoodResponse	1	n/a	n/a	9	66	Cue	Win	True
624.969	3.9	Win2	0.6567000000000001	0.0	Yes	2.781	0.0	n/a	GoodResponse	1	n/a	n/a	9	66	Fixation	Win	True
628.881	0.34	Win2	0.6567000000000001	0.0	Yes	2.781	0.012	2.0	GoodResponse	1	0.222	628.103	9	66	Target	Win	True
629.103	0.3	Win2	0.6567000000000001	0.0	Yes	2.781	0.012	2.0	GoodResponse	1	0.222	n/a	9	66	ButtonPress	Win	True
629.215	0.36	Win2	0.6567000000000001	n/a	Yes	2.781	n/a	n/a	GoodResponse	1	n/a	n/a	9	66	Blank	Win	True
629.566	1.45	Win2	0.6567000000000001	n/a	Yes	2.781	n/a	5.0	GoodResponse	1	0.012	628.578	9	66	Feedback	Win	True
631.021	2.781	Win2	0.6567000000000001	n/a	Yes	2.781	n/a	n/a	GoodResponse	1	0.0	n/a	9	66	ISIslide	Win	True
633.829	0.25	Control	0.6618	0.0	Yes	2.721	0.029	n/a	GoodResponse	0	n/a	n/a	9	67	Cue	Neutral	True
634.08	3.95	Control	0.6618	0.0	Yes	2.721	0.001	n/a	GoodResponse	0	n/a	n/a	9	67	Fixation	Neutral	True
638.025	0.34	Control	0.6618	0.004	Yes	2.721	-0.004	2.0	GoodResponse	0	0.289	637.314	9	67	Target	Neutral	True
638.314	0.3	Control	0.6618	0.004	Yes	2.721	-0.004	2.0	GoodResponse	0	0.289	n/a	9	67	ButtonPress	Neutral	True
638.376	0.36	Control	0.6618	n/a	Yes	2.721	n/a	n/a	GoodResponse	0	n/a	n/a	9	67	Blank	Neutral	True
638.727	1.45	Control	0.6618	n/a	Yes	2.721	n/a	5.0	GoodResponse	0	0.022	637.749	9	67	Feedback	Neutral	True
640.182	2.721	Control	0.6618	n/a	Yes	2.721	n/a	n/a	GoodResponse	0	0.0	n/a	9	67	ISIslide	Neutral	True
642.923	0.25	Win2	0.6667000000000001	0.0	Yes	3.077	0.023	n/a	GoodResponse	1	n/a	n/a	10	68	Cue	Win	True
643.174	4.0	Win2	0.6667000000000001	0.0	Yes	3.077	0.001	n/a	GoodResponse	1	n/a	n/a	10	68	Fixation	Win	True
647.169	0.34	Win2	0.6667000000000001	0.004	Yes	3.077	-0.004	2.0	GoodResponse	1	0.334	646.503	10	68	Target	Win	True
647.503	0.3	Win2	0.6667000000000001	0.004	Yes	3.077	-0.004	2.0	GoodResponse	1	0.334	n/a	10	68	ButtonPress	Win	True
647.52	0.36	Win2	0.6667000000000001	n/a	Yes	3.077	n/a	n/a	GoodResponse	1	n/a	n/a	10	68	Blank	Win	True
647.871	1.45	Win2	0.6667000000000001	n/a	Yes	3.077	n/a	5.0	GoodResponse	1	0.047	646.918	10	68	Feedback	Win	True
649.326	3.077	Win2	0.6667000000000001	n/a	Yes	3.077	n/a	n/a	GoodResponse	1	0.0	n/a	10	68	ISIslide	Win	True
652.418	0.25	Win2	0.6714	0.0	Yes	3.232	0.018	n/a	GoodResponse	1	n/a	n/a	11	69	Cue	Win	True
652.669	3.95	Win2	0.6714	0.0	Yes	3.232	0.001	n/a	GoodResponse	1	n/a	n/a	11	69	Fixation	Win	True
656.614	0.33	Win2	0.6714	0.004	Yes	3.232	-0.004	2.0	GoodResponse	1	0.318	655.932	11	69	Target	Win	True
656.932	0.3	Win2	0.6714	0.004	Yes	3.232	-0.004	2.0	GoodResponse	1	0.318	n/a	11	69	ButtonPress	Win	True
656.948	0.37	Win2	0.6714	n/a	Yes	3.232	n/a	n/a	GoodResponse	1	n/a	n/a	11	69	Blank	Win	True
657.316	1.45	Win2	0.6714	n/a	Yes	3.232	n/a	5.0	GoodResponse	1	0.017	656.333	11	69	Feedback	Win	True
658.77	3.232	Win2	0.6714	n/a	Yes	3.232	n/a	n/a	GoodResponse	1	0.0	n/a	11	69	ISIslide	Win	True
662.03	0.25	Lose2	0.662	0.0	No	3.02	0.03	n/a	LatePress	-1	n/a	n/a	10	70	Cue	Loss	True
662.281	4.05	Lose2	0.662	0.0	No	3.02	0.001	n/a	LatePress	-1	n/a	n/a	10	70	Fixation	Loss	True
666.326	0.32	Lose2	0.662	0.004	No	3.02	-0.004	2.0	LatePress	-1	0.326	665.652	10	70	Target	Loss	True
666.652	0.3	Lose2	0.662	0.004	No	3.02	-0.004	2.0	LatePress	-1	0.326	n/a	10	70	ButtonPress	Loss	True
666.661	0.38	Lose2	0.662	n/a	No	3.02	n/a	n/a	LatePress	-1	n/a	n/a	10	70	Blank	Loss	True
667.028	1.45	Lose2	0.662	n/a	No	3.02	n/a	5.0	LatePress	-1	0.013	666.041	10	70	Feedback	Loss	True
668.483	3.02	Lose2	0.662	n/a	No	3.02	n/a	n/a	LatePress	-1	0.0	n/a	10	70	ISIslide	Loss	True
671.525	0.25	Win2	0.6528	0.0	No	2.725	0.025	n/a	NoResponse	0	n/a	n/a	10	71	Cue	MissedWin	True
671.776	4.05	Win2	0.6528	0.0	No	2.725	0.001	n/a	NoResponse	0	n/a	n/a	10	71	Fixation	MissedWin	True
675.821	0.32	Win2	0.6528	0.004	No	2.725	-0.004	2.0	NoResponse	0	0.359	675.18	10	71	Target	MissedWin	True
676.156	0.38	Win2	0.6528	n/a	No	2.725	n/a	n/a	NoResponse	0	n/a	n/a	10	71	Blank	MissedWin	True
676.18	0.3	Win2	0.6528	0.004	No	2.725	-0.004	2.0	NoResponse	0	0.359	n/a	10	71	ButtonPress	MissedWin	True
676.523	1.45	Win2	0.6528	n/a	No	2.725	n/a	5.0	NoResponse	0	0.03	675.553	10	71	Feedback	MissedWin	True
677.978	2.725	Win2	0.6528	n/a	No	2.725	n/a	n/a	NoResponse	0	0.0	n/a	10	71	ISIslide	MissedWin	True
680.719	0.25	Win2	0.6575	0.0	Yes	2.781	0.019	n/a	GoodResponse	1	n/a	n/a	11	72	Cue	Win	True
680.97	4.1	Win2	0.6575	0.0	Yes	2.781	0.001	n/a	GoodResponse	1	n/a	n/a	11	72	Fixation	Win	True
685.066	0.33	Win2	0.6575	0.003	Yes	2.781	-0.003	2.0	GoodResponse	1	0.212	684.278	11	72	Target	Win	True
685.278	0.3	Win2	0.6575	0.003	Yes	2.781	-0.003	2.0	GoodResponse	1	0.212	n/a	11	72	ButtonPress	Win	True
685.4	0.37	Win2	0.6575	n/a	Yes	2.781	n/a	n/a	GoodResponse	1	n/a	n/a	11	72	Blank	Win	True
685.768	1.45	Win2	0.6575	n/a	Yes	2.781	n/a	5.0	GoodResponse	1	0.006	684.774	11	72	Feedback	Win	True
687.222	2.781	Win2	0.6575	n/a	Yes	2.781	n/a	n/a	GoodResponse	1	0.0	n/a	11	72	ISIslide	Win	True
690.031	0.25	Win2	0.6622	0.0	Yes	2.669	0.031	n/a	GoodResponse	1	n/a	n/a	12	73	Cue	Win	True
690.281	4.0	Win2	0.6622	0.0	Yes	2.669	0.0	n/a	GoodResponse	1	n/a	n/a	12	73	Fixation	Win	True
694.277	0.33	Win2	0.6622	0.004	Yes	2.669	-0.004	2.0	GoodResponse	1	0.289	693.566	12	73	Target	Win	True
694.566	0.3	Win2	0.6622	0.004	Yes	2.669	-0.004	2.0	GoodResponse	1	0.289	n/a	12	73	ButtonPress	Win	True
694.611	0.37	Win2	0.6622	n/a	Yes	2.669	n/a	n/a	GoodResponse	1	n/a	n/a	12	73	Blank	Win	True
694.979	1.45	Win2	0.6622	n/a	Yes	2.669	n/a	5.0	GoodResponse	1	0.012	693.991	12	73	Feedback	Win	True
696.433	2.669	Win2	0.6622	n/a	Yes	2.669	n/a	n/a	GoodResponse	1	0.0	n/a	12	73	ISIslide	Win	True
699.124	0.25	Lose2	0.6667000000000001	0.0	Yes	2.626	0.024	n/a	GoodResponse	0	n/a	n/a	12	74	Cue	AvoidedLoss	True
699.375	4.05	Lose2	0.6667000000000001	0.0	Yes	2.626	0.001	n/a	GoodResponse	0	n/a	n/a	12	74	Fixation	AvoidedLoss	True
703.421	0.33	Lose2	0.6667000000000001	0.003	Yes	2.626	-0.003	2.0	GoodResponse	0	0.222	702.643	12	74	Target	AvoidedLoss	True
703.643	0.3	Lose2	0.6667000000000001	0.003	Yes	2.626	-0.003	2.0	GoodResponse	0	0.222	n/a	12	74	ButtonPress	AvoidedLoss	True
703.755	0.37	Lose2	0.6667000000000001	n/a	Yes	2.626	n/a	n/a	GoodResponse	0	n/a	n/a	12	74	Blank	AvoidedLoss	True
704.123	1.45	Lose2	0.6667000000000001	n/a	Yes	2.626	n/a	5.0	GoodResponse	0	0.039	703.162	12	74	Feedback	AvoidedLoss	True
705.577	2.626	Lose2	0.6667000000000001	n/a	Yes	2.626	n/a	n/a	GoodResponse	0	0.0	n/a	12	74	ISIslide	AvoidedLoss	True
708.218	0.25	Lose2	0.6711	0.0	Yes	2.932	0.018	n/a	GoodResponse	0	n/a	n/a	12	75	Cue	AvoidedLoss	True
708.469	3.95	Lose2	0.6711	0.0	Yes	2.932	0.001	n/a	GoodResponse	0	n/a	n/a	12	75	Fixation	AvoidedLoss	True
712.414	0.32	Lose2	0.6711	0.004	Yes	2.932	-0.004	2.0	GoodResponse	0	0.279	711.693	12	75	Target	AvoidedLoss	True
712.693	0.3	Lose2	0.6711	0.004	Yes	2.932	-0.004	2.0	GoodResponse	0	0.279	n/a	12	75	ButtonPress	AvoidedLoss	True
712.748	0.38	Lose2	0.6711	n/a	Yes	2.932	n/a	n/a	GoodResponse	0	n/a	n/a	12	75	Blank	AvoidedLoss	True
713.116	1.45	Lose2	0.6711	n/a	Yes	2.932	n/a	5.0	GoodResponse	0	0.022	712.138	12	75	Feedback	AvoidedLoss	True
714.571	2.932	Lose2	0.6711	n/a	Yes	2.932	n/a	n/a	GoodResponse	0	0.0	n/a	12	75	ISIslide	AvoidedLoss	True
717.529	0.25	Control	0.6753	0.001	Yes	3.221	0.029	n/a	GoodResponse	0	n/a	n/a	12	76	Cue	Neutral	True
717.78	4.05	Control	0.6753	0.0	Yes	3.221	0.001	n/a	GoodResponse	0	n/a	n/a	12	76	Fixation	Neutral	True
721.826	0.31	Control	0.6753	0.003	Yes	3.221	-0.003	2.0	GoodResponse	0	0.252	721.078	12	76	Target	Neutral	True
722.078	0.3	Control	0.6753	0.003	Yes	3.221	-0.003	2.0	GoodResponse	0	0.252	n/a	12	76	ButtonPress	Neutral	True
722.143	0.39	Control	0.6753	n/a	Yes	3.221	n/a	n/a	GoodResponse	0	n/a	n/a	12	76	Blank	Neutral	True
722.528	1.45	Control	0.6753	n/a	Yes	3.221	n/a	5.0	GoodResponse	0	0.024	721.552	12	76	Feedback	Neutral	True
723.982	3.221	Control	0.6753	n/a	Yes	3.221	n/a	n/a	GoodResponse	0	0.0	n/a	12	76	ISIslide	Neutral	True
727.225	0.25	Lose2	0.6795	0.0	Yes	2.575	0.025	n/a	GoodResponse	0	n/a	n/a	12	77	Cue	AvoidedLoss	True
727.476	3.95	Lose2	0.6795	0.0	Yes	2.575	0.001	n/a	GoodResponse	0	n/a	n/a	12	77	Fixation	AvoidedLoss	True
731.421	0.3	Lose2	0.6795	0.004	Yes	2.575	-0.004	2.0	GoodResponse	0	0.255	730.676	12	77	Target	AvoidedLoss	True
731.676	0.3	Lose2	0.6795	0.004	Yes	2.575	-0.004	2.0	GoodResponse	0	0.255	n/a	12	77	ButtonPress	AvoidedLoss	True
731.722	0.4	Lose2	0.6795	n/a	Yes	2.575	n/a	n/a	GoodResponse	0	n/a	n/a	12	77	Blank	AvoidedLoss	True
732.123	1.45	Lose2	0.6795	n/a	Yes	2.575	n/a	5.0	GoodResponse	0	0.038	731.161	12	77	Feedback	AvoidedLoss	True
733.577	2.575	Lose2	0.6795	n/a	Yes	2.575	n/a	n/a	GoodResponse	0	0.0	n/a	12	77	ISIslide	AvoidedLoss	True
