onset	duration	cue_type	current_mean_accuracy	duration_error	is_hit	isi_adjusted	onset_delay	response	response_type	reward	rt	rt_time	total_reward	trial_number	trial_phase	trial_type	one_press
11.104	0.25	Control	1.0	0.001	Yes	2.946	0.004	n/a	GoodResponse	0	n/a	n/a	0	0	Cue	Neutral	True
11.354	3.85	Control	1.0	0.0	Yes	2.946	0.0	n/a	GoodResponse	0	n/a	n/a	0	0	Fixation	Neutral	True
15.203	0.4	Control	1.0	0.001	Yes	2.946	-0.001	2.0	GoodResponse	0	0.308	14.511	0	0	Target	Neutral	True
15.511	0.3	Control	1.0	0.001	Yes	2.946	-0.001	2.0	GoodResponse	0	0.308	n/a	0	0	ButtonPress	Neutral	True
15.603	0.3	Control	1.0	n/a	Yes	2.946	n/a	n/a	GoodResponse	0	n/a	n/a	0	0	Blank	Neutral	True
15.903	1.45	Control	1.0	n/a	Yes	2.946	n/a	5.0	GoodResponse	0	0.027	14.93	0	0	Feedback	Neutral	True
17.352	2.946	Control	1.0	n/a	Yes	2.946	n/a	n/a	GoodResponse	0	0.0	n/a	0	0	ISIslide	Neutral	True
20.318	0.25	Lose2	1.0	0.0	Yes	2.782	0.018	n/a	GoodResponse	0	n/a	n/a	0	1	Cue	AvoidedLoss	True
20.568	4.0	Lose2	1.0	0.0	Yes	2.782	0.0	n/a	GoodResponse	0	n/a	n/a	0	1	Fixation	AvoidedLoss	True
24.566	0.39	Lose2	1.0	0.002	Yes	2.782	-0.002	2.0	GoodResponse	0	0.249	23.815	0	1	Target	AvoidedLoss	True
24.815	0.3	Lose2	1.0	0.002	Yes	2.782	-0.002	2.0	GoodResponse	0	0.249	n/a	0	1	ButtonPress	AvoidedLoss	True
24.966	0.31	Lose2	1.0	n/a	Yes	2.782	n/a	n/a	GoodResponse	0	n/a	n/a	0	1	Blank	AvoidedLoss	True
25.266	1.45	Lose2	1.0	n/a	Yes	2.782	n/a	5.0	GoodResponse	0	0.03	24.296	0	1	Feedback	AvoidedLoss	True
26.716	2.782	Lose2	1.0	n/a	Yes	2.782	n/a	n/a	GoodResponse	0	0.0	n/a	0	1	ISIslide	AvoidedLoss	True
29.515	0.25	Control	1.0	0.0	Yes	2.585	0.015	n/a	GoodResponse	0	n/a	n/a	0	2	Cue	Neutral	True
29.765	4.1	Control	1.0	0.0	Yes	2.585	0.0	n/a	GoodResponse	0	n/a	n/a	0	2	Fixation	Neutral	True
33.863	0.38	Control	1.0	0.002	Yes	2.585	-0.002	2.0	GoodResponse	0	0.221	33.084	0	2	Target	Neutral	True
34.084	0.3	Control	1.0	0.002	Yes	2.585	-0.002	2.0	GoodResponse	0	0.221	n/a	0	2	ButtonPress	Neutral	True
34.246	0.32	Control	1.0	n/a	Yes	2.585	n/a	n/a	GoodResponse	0	n/a	n/a	0	2	Blank	Neutral	True
34.563	1.45	Control	1.0	n/a	Yes	2.585	n/a	5.0	GoodResponse	0	0.0	33.563	0	2	Feedback	Neutral	True
36.012	2.585	Control	1.0	n/a	Yes	2.585	n/a	n/a	GoodResponse	0	0.0	n/a	0	2	ISIslide	Neutral	True
38.628	0.25	Win2	1.0	0.0	Yes	2.822	0.028	n/a	GoodResponse	1	n/a	n/a	1	3	Cue	Win	True
38.878	3.95	Win2	1.0	0.0	Yes	2.822	0.0	n/a	GoodResponse	1	n/a	n/a	1	3	Fixation	Win	True
42.827	0.37	Win2	1.0	0.001	Yes	2.822	-0.001	2.0	GoodResponse	1	0.213	42.04	1	3	Target	Win	True
43.04	0.3	Win2	1.0	0.001	Yes	2.822	-0.001	2.0	GoodResponse	1	0.213	n/a	1	3	ButtonPress	Win	True
43.21	0.33	Win2	1.0	n/a	Yes	2.822	n/a	n/a	GoodResponse	1	n/a	n/a	1	3	Blank	Win	True
43.526	1.45	Win2	1.0	n/a	Yes	2.822	n/a	5.0	GoodResponse	1	0.013	42.539	1	3	Feedback	Win	True
44.976	2.822	Win2	1.0	n/a	Yes	2.822	n/a	n/a	GoodResponse	1	0.0	n/a	1	3	ISIslide	Win	True
47.825	0.25	Win2	1.0	0.0	Yes	3.275	0.025	n/a	GoodResponse	1	n/a	n/a	2	4	Cue	Win	True
48.075	4.0	Win2	1.0	0.0	Yes	3.275	0.0	n/a	GoodResponse	1	n/a	n/a	2	4	Fixation	Win	True
52.073	0.36	Win2	1.0	0.002	Yes	3.275	-0.002	2.0	GoodResponse	1	0.225	51.298	2	4	Target	Win	True
52.298	0.3	Win2	1.0	0.002	Yes	3.275	-0.002	2.0	GoodResponse	1	0.225	n/a	2	4	ButtonPress	Win	True
52.44	0.34	Win2	1.0	n/a	Yes	3.275	n/a	n/a	GoodResponse	1	n/a	n/a	2	4	Blank	Win	True
52.773	1.45	Win2	1.0	n/a	Yes	3.275	n/a	5.0	GoodResponse	1	0.034	51.807	2	4	Feedback	Win	True
54.223	3.275	Win2	1.0	n/a	Yes	3.275	n/a	n/a	GoodResponse	1	0.0	n/a	2	4	ISIslide	Win	True
57.522	0.25	Win2	1.0	0.0	Yes	2.778	0.022	n/a	GoodResponse	1	n/a	n/a	3	5	Cue	Win	True
57.771	4.0	Win2	1.0	0.001	Yes	2.778	-0.001	n/a	GoodResponse	1	n/a	n/a	3	5	Fixation	Win	True
61.77	0.35	Win2	1.0	0.002	Yes	2.778	-0.002	2.0	GoodResponse	1	0.191	60.961	3	5	Target	Win	True
61.961	0.3	Win2	1.0	0.002	Yes	2.778	-0.002	2.0	GoodResponse	1	0.191	n/a	3	5	ButtonPress	Win	True
62.12	0.35	Win2	1.0	n/a	Yes	2.778	n/a	n/a	GoodResponse	1	n/a	n/a	3	5	Blank	Win	True
62.47	1.45	Win2	1.0	n/a	Yes	2.778	n/a	5.0	GoodResponse	1	0.045	61.515	3	5	Feedback	Win	True
63.919	2.778	Win2	1.0	n/a	Yes	2.778	n/a	n/a	GoodResponse	1	0.0	n/a	3	5	ISIslide	Win	True
66.718	0.25	Lose2	1.0	0.0	Yes	2.732	0.018	n/a	GoodResponse	0	n/a	n/a	3	6	Cue	AvoidedLoss	True
66.968	3.95	Lose2	1.0	0.0	Yes	2.732	0.0	n/a	GoodResponse	0	n/a	n/a	3	6	Fixation	AvoidedLoss	True
70.917	0.34	Lose2	1.0	0.001	Yes	2.732	-0.001	2.0	GoodResponse	0	0.189	70.106	3	6	Target	AvoidedLoss	True
71.106	0.3	Lose2	1.0	0.001	Yes	2.732	-0.001	2.0	GoodResponse	0	0.189	n/a	3	6	ButtonPress	AvoidedLoss	True
71.267	0.36	Lose2	1.0	n/a	Yes	2.732	n/a	n/a	GoodResponse	0	n/a	n/a	3	6	Blank	AvoidedLoss	True
71.617	1.45	Lose2	1.0	n/a	Yes	2.732	n/a	5.0	GoodResponse	0	0.02	70.637	3	6	Feedback	AvoidedLoss	True
73.066	2.732	Lose2	1.0	n/a	Yes	2.732	n/a	n/a	GoodResponse	0	0.0	n/a	3	6	ISIslide	AvoidedLoss	True
75.815	0.25	Lose2	0.875	0.0	No	4.035	0.015	n/a	NoResponse	-1	n/a	n/a	2	7	Cue	Loss	True
76.065	4.05	Lose2	0.875	0.0	No	4.035	0.0	2.0	NoResponse	-1	3.508	78.573	2	7	Fixation	Loss	True
79.573	0.3	Lose2	0.875	0.0	No	4.035	0.0	2.0	NoResponse	-1	3.508	n/a	2	7	ButtonPress	Loss	True
80.114	0.33	Lose2	0.875	0.001	No	4.035	-0.001	n/a	NoResponse	-1	n/a	n/a	2	7	Target	Loss	True
80.447	0.37	Lose2	0.875	n/a	No	4.035	n/a	n/a	NoResponse	-1	n/a	n/a	2	7	Blank	Loss	True
80.813	1.45	Lose2	0.875	n/a	No	4.035	n/a	5.0	NoResponse	-1	0.042	79.855	2	7	Feedback	Loss	True
82.263	4.035	Lose2	0.875	n/a	No	4.035	n/a	n/a	NoResponse	-1	0.0	n/a	2	7	ISIslide	Loss	True
86.328	0.25	Lose2	0.8889	0.0	Yes	3.022	0.028	n/a	GoodResponse	0	n/a	n/a	2	8	Cue	AvoidedLoss	True
86.578	3.95	Lose2	0.8889	0.0	Yes	3.022	0.0	n/a	GoodResponse	0	n/a	n/a	2	8	Fixation	AvoidedLoss	True
90.527	0.32	Lose2	0.8889	0.001	Yes	3.022	-0.001	2.0	GoodResponse	0	0.212	89.739	2	8	Target	AvoidedLoss	True
90.739	0.3	Lose2	0.8889	0.001	Yes	3.022	-0.001	2.0	GoodResponse	0	0.212	n/a	2	8	ButtonPress	AvoidedLoss	True
90.86	0.38	Lose2	0.8889	n/a	Yes	3.022	n/a	n/a	GoodResponse	0	n/a	n/a	2	8	Blank	AvoidedLoss	True
91.226	1.45	Lose2	0.8889	n/a	Yes	3.022	n/a	5.0	GoodResponse	0	0.02	90.246	2	8	Feedback	AvoidedLoss	True
92.676	3.022	Lose2	0.8889	n/a	Yes	3.022	n/a	n/a	GoodResponse	0	0.0	n/a	2	8	ISIslide	AvoidedLoss	True
95.725	0.25	Lose2	0.9	0.0	Yes	3.125	0.025	n/a	GoodResponse	0	n/a	n/a	2	9	Cue	AvoidedLoss	True
95.975	3.95	Lose2	0.9	0.0	Yes	3.125	0.0	n/a	GoodResponse	0	n/a	n/a	2	9	Fixation	AvoidedLoss	True
99.923	0.31	Lose2	0.9	0.002	Yes	3.125	-0.002	2.0	GoodResponse	0	0.2	99.123	2	9	Target	AvoidedLoss	True
100.123	0.3	Lose2	0.9	0.002	Yes	3.125	-0.002	2.0	GoodResponse	0	0.2	n/a	2	9	ButtonPress	AvoidedLoss	True
100.24	0.39	Lose2	0.9	n/a	Yes	3.125	n/a	n/a	GoodResponse	0	n/a	n/a	2	9	Blank	AvoidedLoss	True
100.623	1.45	Lose2	0.9	n/a	Yes	3.125	n/a	5.0	GoodResponse	0	0.037	99.66	2	9	Feedback	AvoidedLoss	True
102.073	3.125	Lose2	0.9	n/a	Yes	3.125	n/a	n/a	GoodResponse	0	0.0	n/a	2	9	ISIslide	AvoidedLoss	True
105.222	0.25	Control	0.8181999999999999	0.0	No	3.278	0.022	n/a	NoResponse	0	n/a	n/a	2	10	Cue	Neutral	True
105.472	4.0	Control	0.8181999999999999	0.0	No	3.278	0.0	2.0	NoResponse	0	3.954	108.426	2	10	Fixation	Neutral	True
109.426	0.3	Control	0.8181999999999999	0.0	No	3.278	0.0	2.0	NoResponse	0	3.954	n/a	2	10	ButtonPress	Neutral	True
109.47	0.3	Control	0.8181999999999999	0.002	No	3.278	-0.002	n/a	NoResponse	0	n/a	n/a	2	10	Target	Neutral	True
109.77	0.4	Control	0.8181999999999999	n/a	No	3.278	n/a	n/a	NoResponse	0	n/a	n/a	2	10	Blank	Neutral	True
110.17	1.45	Control	0.8181999999999999	n/a	No	3.278	n/a	5.0	NoResponse	0	0.008	109.178	2	10	Feedback	Neutral	True
111.619	3.278	Control	0.8181999999999999	n/a	No	3.278	n/a	n/a	NoResponse	0	0.0	n/a	2	10	ISIslide	Neutral	True
114.918	0.25	Lose2	0.8332999999999999	0.0	Yes	2.732	0.018	n/a	GoodResponse	0	n/a	n/a	2	11	Cue	AvoidedLoss	True
115.168	4.05	Lose2	0.8332999999999999	0.0	Yes	2.732	0.0	n/a	GoodResponse	0	n/a	n/a	2	11	Fixation	AvoidedLoss	True
119.217	0.29	Lose2	0.8332999999999999	0.001	Yes	2.732	-0.001	2.0	GoodResponse	0	0.22	118.437	2	11	Target	AvoidedLoss	True
119.437	0.3	Lose2	0.8332999999999999	0.001	Yes	2.732	-0.001	2.0	GoodResponse	0	0.22	n/a	2	11	ButtonPress	AvoidedLoss	True
119.517	0.41	Lose2	0.8332999999999999	n/a	Yes	2.732	n/a	n/a	GoodResponse	0	n/a	n/a	2	11	Blank	AvoidedLoss	True
119.916	1.45	Lose2	0.8332999999999999	n/a	Yes	2.732	n/a	5.0	GoodResponse	0	0.013	118.929	2	11	Feedback	AvoidedLoss	True
121.366	2.732	Lose2	0.8332999999999999	n/a	Yes	2.732	n/a	n/a	GoodResponse	0	0.0	n/a	2	11	ISIslide	AvoidedLoss	True
124.115	0.25	Control	0.8462000000000001	0.0	Yes	2.985	0.015	n/a	GoodResponse	0	n/a	n/a	2	12	Cue	Neutral	True
124.365	3.9	Control	0.8462000000000001	0.0	Yes	2.985	0.0	n/a	GoodResponse	0	n/a	n/a	2	12	Fixation	Neutral	True
128.264	0.28	Control	0.8462000000000001	0.001	Yes	2.985	-0.001	2.0	GoodResponse	0	0.243	127.507	2	12	Target	Neutral	True
128.507	0.3	Control	0.8462000000000001	0.001	Yes	2.985	-0.001	2.0	GoodResponse	0	0.243	n/a	2	12	ButtonPress	Neutral	True
128.547	0.42	Control	0.8462000000000001	n/a	Yes	2.985	n/a	n/a	GoodResponse	0	n/a	n/a	2	12	Blank	Neutral	True
128.963	1.45	Control	0.8462000000000001	n/a	Yes	2.985	n/a	5.0	GoodResponse	0	0.039	128.002	2	12	Feedback	Neutral	True
130.413	2.985	Control	0.8462000000000001	n/a	Yes	2.985	n/a	n/a	GoodResponse	0	0.0	n/a	2	12	ISIslide	Neutral	True
133.428	0.25	Control	0.8571	0.001	Yes	2.772	0.028	n/a	GoodResponse	0	n/a	n/a	2	13	Cue	Neutral	True
133.678	4.0	Control	0.8571	0.0	Yes	2.772	0.0	n/a	GoodResponse	0	n/a	n/a	2	13	Fixation	Neutral	True
137.677	0.27	Control	0.8571	0.001	Yes	2.772	-0.001	2.0	GoodResponse	0	0.179	136.856	2	13	Target	Neutral	True
137.856	0.3	Control	0.8571	0.001	Yes	2.772	-0.001	2.0	GoodResponse	0	0.179	n/a	2	13	ButtonPress	Neutral	True
137.944	0.43	Control	0.8571	n/a	Yes	2.772	n/a	n/a	GoodResponse	0	n/a	n/a	2	13	Blank	Neutral	True
138.377	1.45	Control	0.8571	n/a	Yes	2.772	n/a	5.0	GoodResponse	0	0.039	137.416	2	13	Feedback	Neutral	True
139.826	2.772	Control	0.8571	n/a	Yes	2.772	n/a	n/a	GoodResponse	0	0.0	n/a	2	13	ISIslide	Neutral	True
142.625	0.25	Win2	0.8667	0.0	Yes	2.675	0.025	n/a	GoodResponse	1	n/a	n/a	3	14	Cue	Win	True
142.875	4.1	Win2	0.8667	0.0	Yes	2.675	0.0	n/a	GoodResponse	1	n/a	n/a	3	14	Fixation	Win	True
146.974	0.26	Win2	0.8667	0.001	Yes	2.675	-0.001	2.0	GoodResponse	1	0.163	146.137	3	14	Target	Win	True
147.137	0.3	Win2	0.8667	0.001	Yes	2.675	-0.001	2.0	GoodResponse	1	0.163	n/a	3	14	ButtonPress	Win	True
147.24	0.44	Win2	0.8667	n/a	Yes	2.675	n/a	n/a	GoodResponse	1	n/a	n/a	3	14	Blank	Win	True
147.673	1.45	Win2	0.8667	n/a	Yes	2.675	n/a	5.0	GoodResponse	1	0.011	146.684	3	14	Feedback	Win	True
149.123	2.675	Win2	0.8667	n/a	Yes	2.675	n/a	n/a	GoodResponse	1	0.0	n/a	3	14	ISIslide	Win	True
151.822	0.25	Control	0.875	0.0	Yes	2.978	0.022	n/a	GoodResponse	0	n/a	n/a	3	15	Cue	Neutral	True
152.072	4.0	Control	0.875	0.0	Yes	2.978	0.0	n/a	GoodResponse	0	n/a	n/a	3	15	Fixation	Neutral	True
156.071	0.25	Control	0.875	0.001	Yes	2.978	-0.001	2.0	GoodResponse	0	0.197	155.268	3	15	Target	Neutral	True
156.268	0.3	Control	0.875	0.001	Yes	2.978	-0.001	2.0	GoodResponse	0	0.197	n/a	3	15	ButtonPress	Neutral	True
156.32	0.45	Control	0.875	n/a	Yes	2.978	n/a	n/a	GoodResponse	0	n/a	n/a	3	15	Blank	Neutral	True
156.77	1.45	Control	0.875	n/a	Yes	2.978	n/a	5.0	GoodResponse	0	0.037	155.807	3	15	Feedback	Neutral	True
158.22	2.978	Control	0.875	n/a	Yes	2.978	n/a	n/a	GoodResponse	0	0.0	n/a	3	15	ISIslide	Neutral	True
161.219	0.25	Win2	0.8824	0.0	Yes	2.881	0.019	n/a	GoodResponse	1	n/a	n/a	4	16	Cue	Win	True
161.469	4.0	Win2	0.8824	0.0	Yes	2.881	0.0	n/a	GoodResponse	1	n/a	n/a	4	16	Fixation	Win	True
165.467	0.24	Win2	0.8824	0.002	Yes	2.881	-0.002	2.0	GoodResponse	1	0.175	164.642	4	16	Target	Win	True
165.642	0.3	Win2	0.8824	0.002	Yes	2.881	-0.002	2.0	GoodResponse	1	0.175	n/a	4	16	ButtonPress	Win	True
165.717	0.46	Win2	0.8824	n/a	Yes	2.881	n/a	n/a	GoodResponse	1	n/a	n/a	4	16	Blank	Win	True
166.167	1.45	Win2	0.8824	n/a	Yes	2.881	n/a	5.0	GoodResponse	1	0.008	165.175	4	16	Feedback	Win	True
167.617	2.881	Win2	0.8824	n/a	Yes	2.881	n/a	n/a	GoodResponse	1	0.0	n/a	4	16	ISIslide	Win	True
170.516	0.25	Lose2	0.8332999999999999	0.0	No	2.734	0.016	n/a	NoResponse	-1	n/a	n/a	3	17	Cue	Loss	True
170.765	3.95	Lose2	0.8332999999999999	0.001	No	2.734	-0.001	n/a	NoResponse	-1	n/a	n/a	3	17	Fixation	Loss	True
174.714	0.23	Lose2	0.8332999999999999	0.002	No	2.734	-0.002	2.0	NoResponse	-1	0.329	174.043	3	17	Target	Loss	True
174.947	0.47	Lose2	0.8332999999999999	n/a	No	2.734	n/a	n/a	NoResponse	-1	n/a	n/a	3	17	Blank	Loss	True
175.043	0.3	Lose2	0.8332999999999999	0.002	No	2.734	-0.002	2.0	NoResponse	-1	0.329	n/a	3	17	ButtonPress	Loss	True
175.414	1.45	Lose2	0.8332999999999999	n/a	No	2.734	n/a	5.0	NoResponse	-1	0.027	174.441	3	17	Feedback	Loss	True
176.863	2.734	Lose2	0.8332999999999999	n/a	No	2.734	n/a	n/a	NoResponse	-1	0.0	n/a	3	17	ISIslide	Loss	True
179.629	0.25	Lose2	0.8421	0.0	Yes	2.721	0.029	n/a	GoodResponse	0	n/a	n/a	3	18	Cue	AvoidedLoss	True
179.879	4.05	Lose2	0.8421	0.0	Yes	2.721	0.0	n/a	GoodResponse	0	n/a	n/a	3	18	Fixation	AvoidedLoss	True
183.927	0.22	Lose2	0.8421	0.002	Yes	2.721	-0.002	2.0	GoodResponse	0	0.209	183.136	3	18	Target	AvoidedLoss	True
184.136	0.3	Lose2	0.8421	0.002	Yes	2.721	-0.002	2.0	GoodResponse	0	0.209	n/a	3	18	ButtonPress	AvoidedLoss	True
184.161	0.48	Lose2	0.8421	n/a	Yes	2.721	n/a	n/a	GoodResponse	0	n/a	n/a	3	18	Blank	AvoidedLoss	True
184.627	1.45	Lose2	0.8421	n/a	Yes	2.721	n/a	5.0	GoodResponse	0	0.033	183.66	3	18	Feedback	AvoidedLoss	True
186.077	2.721	Lose2	0.8421	n/a	Yes	2.721	n/a	n/a	GoodResponse	0	0.0	n/a	3	18	ISIslide	AvoidedLoss	True
188.826	0.25	Control	0.8	0.0	No	2.924	0.026	n/a	NoResponse	0	n/a	n/a	3	19	Cue	Neutral	True
189.076	3.95	Control	0.8	0.0	No	2.924	0.0	n/a	NoResponse	0	n/a	n/a	3	19	Fixation	Neutral	True
193.024	0.21	Control	0.8	0.002	No	2.924	-0.002	2.0	NoResponse	0	0.225	192.249	3	19	Target	Neutral	True
193.241	0.49	Control	0.8	n/a	No	2.924	n/a	n/a	NoResponse	0	n/a	n/a	3	19	Blank	Neutral	True
193.249	0.3	Control	0.8	0.002	No	2.924	-0.002	2.0	NoResponse	0	0.225	n/a	3	19	ButtonPress	Neutral	True
193.724	1.45	Control	0.8	n/a	No	2.924	n/a	5.0	NoResponse	0	0.009	192.733	3	19	Feedback	Neutral	True
195.174	2.924	Control	0.8	n/a	No	2.924	n/a	n/a	NoResponse	0	0.0	n/a	3	19	ISIslide	Neutral	True
198.123	0.25	Control	0.7619	0.0	No	2.627	0.023	n/a	NoResponse	0	n/a	n/a	3	20	Cue	Neutral	True
198.372	4.05	Control	0.7619	0.001	No	2.627	-0.001	n/a	NoResponse	0	n/a	n/a	3	20	Fixation	Neutral	True
202.421	0.2	Control	0.7619	0.002	No	2.627	-0.002	2.0	NoResponse	0	0.209	201.63	3	20	Target	Neutral	True
202.621	0.5	Control	0.7619	n/a	No	2.627	n/a	n/a	NoResponse	0	n/a	n/a	3	20	Blank	Neutral	True
202.63	0.3	Control	0.7619	0.002	No	2.627	-0.002	2.0	NoResponse	0	0.209	n/a	3	20	ButtonPress	Neutral	True
203.121	1.45	Control	0.7619	n/a	No	2.627	n/a	5.0	NoResponse	0	0.027	202.148	3	20	Feedback	Neutral	True
204.57	2.627	Control	0.7619	n/a	No	2.627	n/a	n/a	NoResponse	0	0.0	n/a	3	20	ISIslide	Neutral	True
207.219	0.25	Control	0.7273000000000001	0.0	No	2.781	0.019	n/a	NoResponse	0	n/a	n/a	3	21	Cue	Neutral	True
207.469	4.1	Control	0.7273000000000001	0.0	No	2.781	0.0	n/a	NoResponse	0	n/a	n/a	3	21	Fixation	Neutral	True
211.568	0.19	Control	0.7273000000000001	0.001	No	2.781	-0.001	2.0	NoResponse	0	0.219	210.787	3	21	Target	Neutral	True
211.768	0.51	Control	0.7273000000000001	n/a	No	2.781	n/a	n/a	NoResponse	0	n/a	n/a	3	21	Blank	Neutral	True
211.787	0.3	Control	0.7273000000000001	0.001	No	2.781	-0.001	2.0	NoResponse	0	0.219	n/a	3	21	ButtonPress	Neutral	True
212.268	1.45	Control	0.7273000000000001	n/a	No	2.781	n/a	5.0	NoResponse	0	0.006	211.274	3	21	Feedback	Neutral	True
213.717	2.781	Control	0.7273000000000001	n/a	No	2.781	n/a	n/a	NoResponse	0	0.0	n/a	3	21	ISIslide	Neutral	True
216.516	0.25	Control	0.6957	0.0	No	2.784	0.016	n/a	NoResponse	0	n/a	n/a	3	22	Cue	Neutral	True
216.766	4.0	Control	0.6957	0.0	No	2.784	0.0	2.0	NoResponse	0	3.574	219.34	3	22	Fixation	Neutral	True
220.34	0.3	Control	0.6957	0.0	No	2.784	0.0	2.0	NoResponse	0	3.574	n/a	3	22	ButtonPress	Neutral	True
220.765	0.18	Control	0.6957	0.001	No	2.784	-0.001	n/a	NoResponse	0	n/a	n/a	3	22	Target	Neutral	True
220.948	0.52	Control	0.6957	n/a	No	2.784	n/a	n/a	NoResponse	0	n/a	n/a	3	22	Blank	Neutral	True
221.464	1.45	Control	0.6957	n/a	No	2.784	n/a	5.0	NoResponse	0	0.025	220.489	3	22	Feedback	Neutral	True
222.914	2.784	Control	0.6957	n/a	No	2.784	n/a	n/a	NoResponse	0	0.0	n/a	3	22	ISIslide	Neutral	True
225.73	0.25	Control	0.6667000000000001	0.0	No	2.77	0.03	n/a	NoResponse	0	n/a	n/a	3	23	Cue	Neutral	True
225.979	3.9	Control	0.6667000000000001	0.001	No	2.77	-0.001	n/a	NoResponse	0	n/a	n/a	3	23	Fixation	Neutral	True
229.878	0.17	Control	0.6667000000000001	0.002	No	2.77	-0.002	2.0	NoResponse	0	0.228	229.106	3	23	Target	Neutral	True
230.061	0.53	Control	0.6667000000000001	n/a	No	2.77	n/a	n/a	NoResponse	0	n/a	n/a	3	23	Blank	Neutral	True
230.106	0.3	Control	0.6667000000000001	0.002	No	2.77	-0.002	2.0	NoResponse	0	0.228	n/a	3	23	ButtonPress	Neutral	True
230.578	1.45	Control	0.6667000000000001	n/a	No	2.77	n/a	5.0	NoResponse	0	0.032	229.61	3	23	Feedback	Neutral	True
232.027	2.77	Control	0.6667000000000001	n/a	No	2.77	n/a	n/a	NoResponse	0	0.0	n/a	3	23	ISIslide	Neutral	True
234.826	0.25	Win2	0.64	0.001	No	3.124	0.026	n/a	NoResponse	0	n/a	n/a	3	24	Cue	MissedWin	True
235.076	3.95	Win2	0.64	0.0	No	3.124	0.0	n/a	NoResponse	0	n/a	n/a	3	24	Fixation	MissedWin	True
239.025	0.16	Win2	0.64	0.001	No	3.124	-0.001	2.0	NoResponse	0	0.185	238.21	3	24	Target	MissedWin	True
239.192	0.54	Win2	0.64	n/a	No	3.124	n/a	n/a	NoResponse	0	n/a	n/a	3	24	Blank	MissedWin	True
239.21	0.3	Win2	0.64	0.001	No	3.124	-0.001	2.0	NoResponse	0	0.185	n/a	3	24	ButtonPress	MissedWin	True
239.725	1.45	Win2	0.64	n/a	No	3.124	n/a	5.0	NoResponse	0	0.007	238.732	3	24	Feedback	MissedWin	True
241.174	3.124	Win2	0.64	n/a	No	3.124	n/a	n/a	NoResponse	0	0.0	n/a	3	24	ISIslide	MissedWin	True
244.323	0.25	Win2	0.6154	0.0	No	3.077	0.023	n/a	NoResponse	0	n/a	n/a	3	25	Cue	MissedWin	True
244.573	4.0	Win2	0.6154	0.0	No	3.077	0.0	n/a	NoResponse	0	n/a	n/a	3	25	Fixation	MissedWin	True
248.572	0.17	Win2	0.6154	0.001	No	3.077	-0.001	2.0	NoResponse	0	0.207	247.779	3	25	Target	MissedWin	True
248.755	0.53	Win2	0.6154	n/a	No	3.077	n/a	n/a	NoResponse	0	n/a	n/a	3	25	Blank	MissedWin	True
248.779	0.3	Win2	0.6154	0.001	No	3.077	-0.001	2.0	NoResponse	0	0.207	n/a	3	25	ButtonPress	MissedWin	True
249.271	1.45	Win2	0.6154	n/a	No	3.077	n/a	5.0	NoResponse	0	0.023	248.294	3	25	Feedback	MissedWin	True
250.721	3.077	Win2	0.6154	n/a	No	3.077	n/a	n/a	NoResponse	0	0.0	n/a	3	25	ISIslide	MissedWin	True
253.82	0.25	Win2	0.5926	0.0	No	2.93	0.02	n/a	NoResponse	0	n/a	n/a	3	26	Cue	MissedWin	True
254.07	3.95	Win2	0.5926	0.0	No	2.93	0.0	n/a	NoResponse	0	n/a	n/a	3	26	Fixation	MissedWin	True
258.018	0.18	Win2	0.5926	0.002	No	2.93	-0.002	2.0	NoResponse	0	0.191	257.209	3	26	Target	MissedWin	True
258.202	0.52	Win2	0.5926	n/a	No	2.93	n/a	n/a	NoResponse	0	n/a	n/a	3	26	Blank	MissedWin	True
258.209	0.3	Win2	0.5926	0.002	No	2.93	-0.002	2.0	NoResponse	0	0.191	n/a	3	26	ButtonPress	MissedWin	True
258.718	1.45	Win2	0.5926	n/a	No	2.93	n/a	5.0	NoResponse	0	0.039	257.757	3	26	Feedback	MissedWin	True
260.168	2.93	Win2	0.5926	n/a	No	2.93	n/a	n/a	NoResponse	0	0.0	n/a	3	26	ISIslide	MissedWin	True
263.117	0.25	Lose2	0.5714	0.0	No	2.833	0.017	n/a	NoResponse	-1	n/a	n/a	2	27	Cue	Loss	True
263.366	4.05	Lose2	0.5714	0.001	No	2.833	-0.001	n/a	NoResponse	-1	n/a	n/a	2	27	Fixation	Loss	True
267.415	0.19	Lose2	0.5714	0.002	No	2.833	-0.002	2.0	NoResponse	-1	0.247	266.662	2	27	Target	Loss	True
267.615	0.51	Lose2	0.5714	n/a	No	2.833	n/a	n/a	NoResponse	-1	n/a	n/a	2	27	Blank	Loss	True
267.662	0.3	Lose2	0.5714	0.002	No	2.833	-0.002	2.0	NoResponse	-1	0.247	n/a	2	27	ButtonPress	Loss	True
268.115	1.45	Lose2	0.5714	n/a	No	2.833	n/a	5.0	NoResponse	-1	0.008	267.123	2	27	Feedback	Loss	True
269.564	2.833	Lose2	0.5714	n/a	No	2.833	n/a	n/a	NoResponse	-1	0.0	n/a	2	27	ISIslide	Loss	True
272.413	0.25	Control	0.5517	0.0	No	2.837	0.013	n/a	NoResponse	0	n/a	n/a	2	28	Cue	Neutral	True
272.663	4.05	Control	0.5517	0.0	No	2.837	0.0	n/a	NoResponse	0	n/a	n/a	2	28	Fixation	Neutral	True
276.712	0.2	Control	0.5517	0.001	No	2.837	-0.001	2.0	NoResponse	0	0.207	275.919	2	28	Target	Neutral	True
276.912	0.5	Control	0.5517	n/a	No	2.837	n/a	n/a	NoResponse	0	n/a	n/a	2	28	Blank	Neutral	True
276.919	0.3	Control	0.5517	0.001	No	2.837	-0.001	2.0	NoResponse	0	0.207	n/a	2	28	ButtonPress	Neutral	True
277.412	1.45	Control	0.5517	n/a	No	2.837	n/a	5.0	NoResponse	0	0.028	276.44	2	28	Feedback	Neutral	True
278.861	2.837	Control	0.5517	n/a	No	2.837	n/a	n/a	NoResponse	0	0.0	n/a	2	28	ISIslide	Neutral	True
281.727	0.25	Lose2	0.5667	0.0	Yes	2.823	0.027	n/a	GoodResponse	0	n/a	n/a	2	29	Cue	AvoidedLoss	True
281.977	3.95	Lose2	0.5667	0.0	Yes	2.823	0.0	n/a	GoodResponse	0	n/a	n/a	2	29	Fixation	AvoidedLoss	True
285.925	0.21	Lose2	0.5667	0.002	Yes	2.823	-0.002	2.0	GoodResponse	0	0.122	285.047	2	29	Target	AvoidedLoss	True
286.047	0.3	Lose2	0.5667	0.002	Yes	2.823	-0.002	2.0	GoodResponse	0	0.122	n/a	2	29	ButtonPress	AvoidedLoss	True
286.142	0.49	Lose2	0.5667	n/a	Yes	2.823	n/a	n/a	GoodResponse	0	n/a	n/a	2	29	Blank	AvoidedLoss	True
286.625	1.45	Lose2	0.5667	n/a	Yes	2.823	n/a	5.0	GoodResponse	0	0.034	285.659	2	29	Feedback	AvoidedLoss	True
288.074	2.823	Lose2	0.5667	n/a	Yes	2.823	n/a	n/a	GoodResponse	0	0.0	n/a	2	29	ISIslide	AvoidedLoss	True
290.923	0.25	Win2	0.5484	0.001	No	2.777	0.023	n/a	NoResponse	0	n/a	n/a	2	30	Cue	MissedWin	True
291.173	3.9	Win2	0.5484	0.001	No	2.777	0.0	n/a	NoResponse	0	n/a	n/a	2	30	Fixation	MissedWin	True
295.072	0.22	Win2	0.5484	0.001	No	2.777	-0.001	2.0	NoResponse	0	0.249	294.321	2	30	Target	MissedWin	True
295.289	0.48	Win2	0.5484	n/a	No	2.777	n/a	n/a	NoResponse	0	n/a	n/a	2	30	Blank	MissedWin	True
295.321	0.3	Win2	0.5484	0.001	No	2.777	-0.001	2.0	NoResponse	0	0.249	n/a	2	30	ButtonPress	MissedWin	True
295.772	1.45	Win2	0.5484	n/a	No	2.777	n/a	5.0	NoResponse	0	0.009	294.781	2	30	Feedback	MissedWin	True
297.221	2.777	Win2	0.5484	n/a	No	2.777	n/a	n/a	NoResponse	0	0.0	n/a	2	30	ISIslide	MissedWin	True
300.02	0.25	Lose2	0.5312	0.0	No	2.83	0.02	n/a	NoResponse	-1	n/a	n/a	1	31	Cue	Loss	True
300.27	4.05	Lose2	0.5312	0.0	No	2.83	0.0	2.0	NoResponse	-1	3.529	302.799	1	31	Fixation	Loss	True
303.799	0.3	Lose2	0.5312	0.0	No	2.83	0.0	2.0	NoResponse	-1	3.529	n/a	1	31	ButtonPress	Loss	True
304.319	0.23	Lose2	0.5312	0.001	No	2.83	-0.001	n/a	NoResponse	-1	n/a	n/a	1	31	Target	Loss	True
304.552	0.47	Lose2	0.5312	n/a	No	2.83	n/a	n/a	NoResponse	-1	n/a	n/a	1	31	Blank	Loss	True
305.019	1.45	Lose2	0.5312	n/a	No	2.83	n/a	5.0	NoResponse	-1	0.03	304.049	1	31	Feedback	Loss	True
306.468	2.83	Lose2	0.5312	n/a	No	2.83	n/a	n/a	NoResponse	-1	0.0	n/a	1	31	ISIslide	Loss	True
309.317	0.25	Lose2	0.5455	0.0	Yes	2.633	0.017	n/a	GoodResponse	0	n/a	n/a	1	32	Cue	AvoidedLoss	True
309.567	4.15	Lose2	0.5455	0.0	Yes	2.633	0.0	n/a	GoodResponse	0	n/a	n/a	1	32	Fixation	AvoidedLoss	True
313.716	0.24	Lose2	0.5455	0.001	Yes	2.633	-0.001	2.0	GoodResponse	0	0.213	312.929	1	32	Target	AvoidedLoss	True
313.929	0.3	Lose2	0.5455	0.001	Yes	2.633	-0.001	2.0	GoodResponse	0	0.213	n/a	1	32	ButtonPress	AvoidedLoss	True
313.965	0.46	Lose2	0.5455	n/a	Yes	2.633	n/a	n/a	GoodResponse	0	n/a	n/a	1	32	Blank	AvoidedLoss	True
314.415	1.45	Lose2	0.5455	n/a	Yes	2.633	n/a	5.0	GoodResponse	0	0.049	313.464	1	32	Feedback	AvoidedLoss	True
315.865	2.633	Lose2	0.5455	n/a	Yes	2.633	n/a	n/a	GoodResponse	0	0.0	n/a	1	32	ISIslide	AvoidedLoss	True
318.514	0.25	Win2	0.5588000000000001	0.0	Yes	2.686	0.014	n/a	GoodResponse	1	n/a	n/a	2	33	Cue	Win	True
318.764	4.0	Win2	0.5588000000000001	0.0	Yes	2.686	0.0	n/a	GoodResponse	1	n/a	n/a	2	33	Fixation	Win	True
322.762	0.25	Win2	0.5588000000000001	0.002	Yes	2.686	-0.002	2.0	GoodResponse	1	0.218	321.98	2	33	Target	Win	True
322.98	0.3	Win2	0.5588000000000001	0.002	Yes	2.686	-0.002	2.0	GoodResponse	1	0.218	n/a	2	33	ButtonPress	Win	True
323.012	0.45	Win2	0.5588000000000001	n/a	Yes	2.686	n/a	n/a	GoodResponse	1	n/a	n/a	2	33	Blank	Win	True
323.462	1.45	Win2	0.5588000000000001	n/a	Yes	2.686	n/a	5.0	GoodResponse	1	0.027	322.489	2	33	Feedback	Win	True
324.912	2.686	Win2	0.5588000000000001	n/a	Yes	2.686	n/a	n/a	GoodResponse	1	0.0	n/a	2	33	ISIslide	Win	True
327.627	0.25	Lose2	0.5714	0.0	Yes	2.623	0.027	n/a	GoodResponse	0	n/a	n/a	2	34	Cue	AvoidedLoss	True
327.877	4.05	Lose2	0.5714	0.0	Yes	2.623	0.0	n/a	GoodResponse	0	n/a	n/a	2	34	Fixation	AvoidedLoss	True
331.926	0.26	Lose2	0.5714	0.001	Yes	2.623	-0.001	2.0	GoodResponse	0	0.19	331.116	2	34	Target	AvoidedLoss	True
332.116	0.3	Lose2	0.5714	0.001	Yes	2.623	-0.001	2.0	GoodResponse	0	0.19	n/a	2	34	ButtonPress	AvoidedLoss	True
332.192	0.44	Lose2	0.5714	n/a	Yes	2.623	n/a	n/a	GoodResponse	0	n/a	n/a	2	34	Blank	AvoidedLoss	True
332.626	1.45	Lose2	0.5714	n/a	Yes	2.623	n/a	5.0	GoodResponse	0	0.032	331.658	2	34	Feedback	AvoidedLoss	True
334.075	2.623	Lose2	0.5714	n/a	Yes	2.623	n/a	n/a	GoodResponse	0	0.0	n/a	2	34	ISIslide	AvoidedLoss	True
336.724	0.25	Lose2	0.5832999999999999	0.0	Yes	2.676	0.024	n/a	GoodResponse	0	n/a	n/a	2	35	Cue	AvoidedLoss	True
336.974	4.0	Lose2	0.5832999999999999	0.0	Yes	2.676	0.0	n/a	GoodResponse	0	n/a	n/a	2	35	Fixation	AvoidedLoss	True
340.973	0.27	Lose2	0.5832999999999999	0.001	Yes	2.676	-0.001	2.0	GoodResponse	0	0.197	340.17	2	35	Target	AvoidedLoss	True
341.17	0.3	Lose2	0.5832999999999999	0.001	Yes	2.676	-0.001	2.0	GoodResponse	0	0.197	n/a	2	35	ButtonPress	AvoidedLoss	True
341.239	0.43	Lose2	0.5832999999999999	n/a	Yes	2.676	n/a	n/a	GoodResponse	0	n/a	n/a	2	35	Blank	AvoidedLoss	True
341.672	1.45	Lose2	0.5832999999999999	n/a	Yes	2.676	n/a	5.0	GoodResponse	0	0.011	340.683	2	35	Feedback	AvoidedLoss	True
343.122	2.676	Lose2	0.5832999999999999	n/a	Yes	2.676	n/a	n/a	GoodResponse	0	0.0	n/a	2	35	ISIslide	AvoidedLoss	True
345.821	0.25	Control	0.5946	0.0	Yes	2.679	0.021	n/a	GoodResponse	0	n/a	n/a	2	36	Cue	Neutral	True
346.071	4.0	Control	0.5946	0.0	Yes	2.679	0.0	n/a	GoodResponse	0	n/a	n/a	2	36	Fixation	Neutral	True
350.07	0.28	Control	0.5946	0.001	Yes	2.679	-0.001	2.0	GoodResponse	0	0.21	349.28	2	36	Target	Neutral	True
350.28	0.3	Control	0.5946	0.001	Yes	2.679	-0.001	2.0	GoodResponse	0	0.21	n/a	2	36	ButtonPress	Neutral	True
350.353	0.42	Control	0.5946	n/a	Yes	2.679	n/a	n/a	GoodResponse	0	n/a	n/a	2	36	Blank	Neutral	True
350.769	1.45	Control	0.5946	n/a	Yes	2.679	n/a	5.0	GoodResponse	0	0.036	349.805	2	36	Feedback	Neutral	True
352.219	2.679	Control	0.5946	n/a	Yes	2.679	n/a	n/a	GoodResponse	0	0.0	n/a	2	36	ISIslide	Neutral	True
354.918	0.25	Win2	0.6053000000000001	0.0	Yes	2.882	0.018	n/a	GoodResponse	1	n/a	n/a	3	37	Cue	Win	True
355.168	4.0	Win2	0.6053000000000001	0.0	Yes	2.882	0.0	n/a	GoodResponse	1	n/a	n/a	3	37	Fixation	Win	True
359.166	0.29	Win2	0.6053000000000001	0.002	Yes	2.882	-0.002	2.0	GoodResponse	1	0.215	358.381	3	37	Target	Win	True
359.381	0.3	Win2	0.6053000000000001	0.002	Yes	2.882	-0.002	2.0	GoodResponse	1	0.215	n/a	3	37	ButtonPress	Win	True
359.466	0.41	Win2	0.6053000000000001	n/a	Yes	2.882	n/a	n/a	GoodResponse	1	n/a	n/a	3	37	Blank	Win	True
359.866	1.45	Win2	0.6053000000000001	n/a	Yes	2.882	n/a	5.0	GoodResponse	1	0.012	358.878	3	37	Feedback	Win	True
361.316	2.882	Win2	0.6053000000000001	n/a	Yes	2.882	n/a	n/a	GoodResponse	1	0.0	n/a	3	37	ISIslide	Win	True
364.215	0.25	Lose2	0.6154	0.0	Yes	2.835	0.015	n/a	GoodResponse	0	n/a	n/a	3	38	Cue	AvoidedLoss	True
364.465	3.95	Lose2	0.6154	0.0	Yes	2.835	0.0	n/a	GoodResponse	0	n/a	n/a	3	38	Fixation	AvoidedLoss	True
368.413	0.3	Lose2	0.6154	0.002	Yes	2.835	-0.002	2.0	GoodResponse	0	0.216	367.629	3	38	Target	AvoidedLoss	True
368.629	0.3	Lose2	0.6154	0.002	Yes	2.835	-0.002	2.0	GoodResponse	0	0.216	n/a	3	38	ButtonPress	AvoidedLoss	True
368.713	0.4	Lose2	0.6154	n/a	Yes	2.835	n/a	n/a	GoodResponse	0	n/a	n/a	3	38	Blank	AvoidedLoss	True
369.113	1.45	Lose2	0.6154	n/a	Yes	2.835	n/a	5.0	GoodResponse	0	0.034	368.147	3	38	Feedback	AvoidedLoss	True
370.562	2.835	Lose2	0.6154	n/a	Yes	2.835	n/a	n/a	GoodResponse	0	0.0	n/a	3	38	ISIslide	AvoidedLoss	True
373.428	0.25	Win2	0.625	0.0	Yes	2.972	0.028	n/a	GoodResponse	1	n/a	n/a	4	39	Cue	Win	True
373.678	4.1	Win2	0.625	0.0	Yes	2.972	0.0	n/a	GoodResponse	1	n/a	n/a	4	39	Fixation	Win	True
377.777	0.31	Win2	0.625	0.001	Yes	2.972	-0.001	2.0	GoodResponse	1	0.213	376.99	4	39	Target	Win	True
377.99	0.3	Win2	0.625	0.001	Yes	2.972	-0.001	2.0	GoodResponse	1	0.213	n/a	4	39	ButtonPress	Win	True
378.093	0.39	Win2	0.625	n/a	Yes	2.972	n/a	n/a	GoodResponse	1	n/a	n/a	4	39	Blank	Win	True
378.476	1.45	Win2	0.625	n/a	Yes	2.972	n/a	5.0	GoodResponse	1	0.037	377.513	4	39	Feedback	Win	True
379.926	2.972	Win2	0.625	n/a	Yes	2.972	n/a	n/a	GoodResponse	1	0.0	n/a	4	39	ISIslide	Win	True
382.925	0.25	Win2	0.6341	0.0	Yes	2.725	0.025	n/a	GoodResponse	1	n/a	n/a	5	40	Cue	Win	True
383.175	3.95	Win2	0.6341	0.0	Yes	2.725	0.0	n/a	GoodResponse	1	n/a	n/a	5	40	Fixation	Win	True
387.123	0.32	Win2	0.6341	0.002	Yes	2.725	-0.002	2.0	GoodResponse	1	0.211	386.334	5	40	Target	Win	True
387.334	0.3	Win2	0.6341	0.002	Yes	2.725	-0.002	2.0	GoodResponse	1	0.211	n/a	5	40	ButtonPress	Win	True
387.456	0.38	Win2	0.6341	n/a	Yes	2.725	n/a	n/a	GoodResponse	1	n/a	n/a	5	40	Blank	Win	True
387.823	1.45	Win2	0.6341	n/a	Yes	2.725	n/a	5.0	GoodResponse	1	0.008	386.831	5	40	Feedback	Win	True
389.273	2.725	Win2	0.6341	n/a	Yes	2.725	n/a	n/a	GoodResponse	1	0.0	n/a	5	40	ISIslide	Win	True
392.022	0.25	Win2	0.6429	0.0	Yes	2.778	0.022	n/a	GoodResponse	1	n/a	n/a	6	41	Cue	Win	True
392.271	3.9	Win2	0.6429	0.001	Yes	2.778	-0.001	n/a	GoodResponse	1	n/a	n/a	6	41	Fixation	Win	True
396.17	0.33	Win2	0.6429	0.002	Yes	2.778	-0.002	2.0	GoodResponse	1	0.236	395.406	6	41	Target	Win	True
396.406	0.3	Win2	0.6429	0.002	Yes	2.778	-0.002	2.0	GoodResponse	1	0.236	n/a	6	41	ButtonPress	Win	True
396.503	0.37	Win2	0.6429	n/a	Yes	2.778	n/a	n/a	GoodResponse	1	n/a	n/a	6	41	Blank	Win	True
396.87	1.45	Win2	0.6429	n/a	Yes	2.778	n/a	5.0	GoodResponse	1	0.032	395.902	6	41	Feedback	Win	True
398.319	2.778	Win2	0.6429	n/a	Yes	2.778	n/a	n/a	GoodResponse	1	0.0	n/a	6	41	ISIslide	Win	True
401.118	0.25	Control	0.6512	0.0	Yes	2.932	0.018	n/a	GoodResponse	0	n/a	n/a	6	42	Cue	Neutral	True
401.368	3.85	Control	0.6512	0.0	Yes	2.932	0.0	n/a	GoodResponse	0	n/a	n/a	6	42	Fixation	Neutral	True
405.217	0.34	Control	0.6512	0.001	Yes	2.932	-0.001	2.0	GoodResponse	0	0.16	404.377	6	42	Target	Neutral	True
405.377	0.3	Control	0.6512	0.001	Yes	2.932	-0.001	2.0	GoodResponse	0	0.16	n/a	6	42	ButtonPress	Neutral	True
405.567	0.36	Control	0.6512	n/a	Yes	2.932	n/a	n/a	GoodResponse	0	n/a	n/a	6	42	Blank	Neutral	True
405.917	1.45	Control	0.6512	n/a	Yes	2.932	n/a	5.0	GoodResponse	0	0.01	404.927	6	42	Feedback	Neutral	True
407.366	2.932	Control	0.6512	n/a	Yes	2.932	n/a	n/a	GoodResponse	0	0.0	n/a	6	42	ISIslide	Neutral	True
410.315	0.25	Win2	0.6591	0.0	Yes	3.185	0.015	n/a	GoodResponse	1	n/a	n/a	7	43	Cue	Win	True
410.565	4.0	Win2	0.6591	0.0	Yes	3.185	0.0	n/a	GoodResponse	1	n/a	n/a	7	43	Fixation	Win	True
414.564	0.35	Win2	0.6591	0.001	Yes	3.185	-0.001	2.0	GoodResponse	1	0.302	413.866	7	43	Target	Win	True
414.866	0.3	Win2	0.6591	0.001	Yes	3.185	-0.001	2.0	GoodResponse	1	0.302	n/a	7	43	ButtonPress	Win	True
414.914	0.35	Win2	0.6591	n/a	Yes	3.185	n/a	n/a	GoodResponse	1	n/a	n/a	7	43	Blank	Win	True
415.263	1.45	Win2	0.6591	n/a	Yes	3.185	n/a	5.0	GoodResponse	1	0.03	414.293	7	43	Feedback	Win	True
416.713	3.185	Win2	0.6591	n/a	Yes	3.185	n/a	n/a	GoodResponse	1	0.0	n/a	7	43	ISIslide	Win	True
419.928	0.25	Win2	0.6667000000000001	0.001	Yes	2.972	0.028	n/a	GoodResponse	1	n/a	n/a	8	44	Cue	Win	True
420.178	4.0	Win2	0.6667000000000001	0.001	Yes	2.972	0.0	n/a	GoodResponse	1	n/a	n/a	8	44	Fixation	Win	True
424.177	0.35	Win2	0.6667000000000001	0.001	Yes	2.972	-0.001	2.0	GoodResponse	1	0.232	423.409	8	44	Target	Win	True
424.409	0.3	Win2	0.6667000000000001	0.001	Yes	2.972	-0.001	2.0	GoodResponse	1	0.232	n/a	8	44	ButtonPress	Win	True
424.527	0.35	Win2	0.6667000000000001	n/a	Yes	2.972	n/a	n/a	GoodResponse	1	n/a	n/a	8	44	Blank	Win	True
424.877	1.45	Win2	0.6667000000000001	n/a	Yes	2.972	n/a	5.0	GoodResponse	1	0.026	423.903	8	44	Feedback	Win	True
426.326	2.972	Win2	0.6667000000000001	n/a	Yes	2.972	n/a	n/a	GoodResponse	1	0.0	n/a	8	44	ISIslide	Win	True
429.325	0.25	Control	0.6739	0.0	Yes	2.875	0.025	n/a	GoodResponse	0	n/a	n/a	8	45	Cue	Neutral	True
429.575	4.1	Control	0.6739	0.0	Yes	2.875	0.0	n/a	GoodResponse	0	n/a	n/a	8	45	Fixation	Neutral	True
433.674	0.34	Control	0.6739	0.001	Yes	2.875	-0.001	2.0	GoodResponse	0	0.201	432.875	8	45	Target	Neutral	True
433.875	0.3	Control	0.6739	0.001	Yes	2.875	-0.001	2.0	GoodResponse	0	0.201	n/a	8	45	ButtonPress	Neutral	True
434.024	0.36	Control	0.6739	n/a	Yes	2.875	n/a	n/a	GoodResponse	0	n/a	n/a	8	45	Blank	Neutral	True
434.373	1.45	Control	0.6739	n/a	Yes	2.875	n/a	5.0	GoodResponse	0	0.041	433.414	8	45	Feedback	Neutral	True
435.823	2.875	Control	0.6739	n/a	Yes	2.875	n/a	n/a	GoodResponse	0	0.0	n/a	8	45	ISIslide	Neutral	True
438.722	0.25	Lose2	0.6809000000000001	0.0	Yes	3.378	0.022	n/a	GoodResponse	0	n/a	n/a	8	46	Cue	AvoidedLoss	True
438.972	4.0	Lose2	0.6809000000000001	0.0	Yes	3.378	0.0	n/a	GoodResponse	0	n/a	n/a	8	46	Fixation	AvoidedLoss	True
442.97	0.33	Lose2	0.6809000000000001	0.002	Yes	3.378	-0.002	2.0	GoodResponse	0	0.228	442.198	8	46	Target	AvoidedLoss	True
443.198	0.3	Lose2	0.6809000000000001	0.002	Yes	3.378	-0.002	2.0	GoodResponse	0	0.228	n/a	8	46	ButtonPress	AvoidedLoss	True
443.304	0.37	Lose2	0.6809000000000001	n/a	Yes	3.378	n/a	n/a	GoodResponse	0	n/a	n/a	8	46	Blank	AvoidedLoss	True
443.67	1.45	Lose2	0.6809000000000001	n/a	Yes	3.378	n/a	5.0	GoodResponse	0	0.012	442.682	8	46	Feedback	AvoidedLoss	True
445.12	3.378	Lose2	0.6809000000000001	n/a	Yes	3.378	n/a	n/a	GoodResponse	0	0.0	n/a	8	46	ISIslide	AvoidedLoss	True
448.519	0.25	Lose2	0.6875	0.0	Yes	2.681	0.019	n/a	GoodResponse	0	n/a	n/a	8	47	Cue	AvoidedLoss	True
448.768	4.0	Lose2	0.6875	0.001	Yes	2.681	-0.001	n/a	GoodResponse	0	n/a	n/a	8	47	Fixation	AvoidedLoss	True
452.767	0.32	Lose2	0.6875	0.002	Yes	2.681	-0.002	2.0	GoodResponse	0	0.229	451.996	8	47	Target	AvoidedLoss	True
452.996	0.3	Lose2	0.6875	0.002	Yes	2.681	-0.002	2.0	GoodResponse	0	0.229	n/a	8	47	ButtonPress	AvoidedLoss	True
453.1	0.38	Lose2	0.6875	n/a	Yes	2.681	n/a	n/a	GoodResponse	0	n/a	n/a	8	47	Blank	AvoidedLoss	True
453.467	1.45	Lose2	0.6875	n/a	Yes	2.681	n/a	5.0	GoodResponse	0	0.02	452.487	8	47	Feedback	AvoidedLoss	True
454.916	2.681	Lose2	0.6875	n/a	Yes	2.681	n/a	n/a	GoodResponse	0	0.0	n/a	8	47	ISIslide	AvoidedLoss	True
457.615	0.25	Lose2	0.6939	0.0	Yes	3.035	0.015	n/a	GoodResponse	0	n/a	n/a	8	48	Cue	AvoidedLoss	True
457.865	3.95	Lose2	0.6939	0.0	Yes	3.035	0.0	n/a	GoodResponse	0	n/a	n/a	8	48	Fixation	AvoidedLoss	True
461.814	0.31	Lose2	0.6939	0.001	Yes	3.035	-0.001	2.0	GoodResponse	0	0.212	461.026	8	48	Target	AvoidedLoss	True
462.026	0.3	Lose2	0.6939	0.001	Yes	3.035	-0.001	2.0	GoodResponse	0	0.212	n/a	8	48	ButtonPress	AvoidedLoss	True
462.13	0.39	Lose2	0.6939	n/a	Yes	3.035	n/a	n/a	GoodResponse	0	n/a	n/a	8	48	Blank	AvoidedLoss	True
462.514	1.45	Lose2	0.6939	n/a	Yes	3.035	n/a	5.0	GoodResponse	0	0.047	461.561	8	48	Feedback	AvoidedLoss	True
463.963	3.035	Lose2	0.6939	n/a	Yes	3.035	n/a	n/a	GoodResponse	0	0.0	n/a	8	48	ISIslide	AvoidedLoss	True
467.012	0.25	Control	0.7	0.0	Yes	2.888	0.012	n/a	GoodResponse	0	n/a	n/a	8	49	Cue	Neutral	True
467.262	4.0	Control	0.7	0.0	Yes	2.888	0.0	n/a	GoodResponse	0	n/a	n/a	8	49	Fixation	Neutral	True
471.261	0.3	Control	0.7	0.001	Yes	2.888	-0.001	2.0	GoodResponse	0	0.245	470.506	8	49	Target	Neutral	True
471.506	0.3	Control	0.7	0.001	Yes	2.888	-0.001	2.0	GoodResponse	0	0.245	n/a	8	49	ButtonPress	Neutral	True
471.56	0.4	Control	0.7	n/a	Yes	2.888	n/a	n/a	GoodResponse	0	n/a	n/a	8	49	Blank	Neutral	True
471.96	1.45	Control	0.7	n/a	Yes	2.888	n/a	5.0	GoodResponse	0	0.015	470.975	8	49	Feedback	Neutral	True
473.41	2.888	Control	0.7	n/a	Yes	2.888	n/a	n/a	GoodResponse	0	0.0	n/a	8	49	ISIslide	Neutral	True
476.325	0.25	Control	0.7059000000000001	0.001	Yes	2.775	0.025	n/a	GoodResponse	0	n/a	n/a	8	50	Cue	Neutral	True
476.575	4.0	Control	0.7059000000000001	0.0	Yes	2.775	0.0	n/a	GoodResponse	0	n/a	n/a	8	50	Fixation	Neutral	True
480.574	0.29	Control	0.7059000000000001	0.001	Yes	2.775	-0.001	2.0	GoodResponse	0	0.271	479.845	8	50	Target	Neutral	True
480.845	0.3	Control	0.7059000000000001	0.001	Yes	2.775	-0.001	2.0	GoodResponse	0	0.271	n/a	8	50	ButtonPress	Neutral	True
480.874	0.41	Control	0.7059000000000001	n/a	Yes	2.775	n/a	n/a	GoodResponse	0	n/a	n/a	8	50	Blank	Neutral	True
481.274	1.45	Control	0.7059000000000001	n/a	Yes	2.775	n/a	5.0	GoodResponse	0	0.019	480.293	8	50	Feedback	Neutral	True
482.723	2.775	Control	0.7059000000000001	n/a	Yes	2.775	n/a	n/a	GoodResponse	0	0.0	n/a	8	50	ISIslide	Neutral	True
485.522	0.25	Control	0.7115	0.0	Yes	2.728	0.022	n/a	GoodResponse	0	n/a	n/a	8	51	Cue	Neutral	True
485.772	3.95	Control	0.7115	0.0	Yes	2.728	0.0	n/a	GoodResponse	0	n/a	n/a	8	51	Fixation	Neutral	True
489.721	0.28	Control	0.7115	0.001	Yes	2.728	-0.001	2.0	GoodResponse	0	0.2	488.921	8	51	Target	Neutral	True
489.921	0.3	Control	0.7115	0.001	Yes	2.728	-0.001	2.0	GoodResponse	0	0.2	n/a	8	51	ButtonPress	Neutral	True
490.004	0.42	Control	0.7115	n/a	Yes	2.728	n/a	n/a	GoodResponse	0	n/a	n/a	8	51	Blank	Neutral	True
490.421	1.45	Control	0.7115	n/a	Yes	2.728	n/a	5.0	GoodResponse	0	0.041	489.462	8	51	Feedback	Neutral	True
491.87	2.728	Control	0.7115	n/a	Yes	2.728	n/a	n/a	GoodResponse	0	0.0	n/a	8	51	ISIslide	Neutral	True
494.619	0.25	Control	0.7170000000000001	0.0	Yes	2.631	0.019	n/a	GoodResponse	0	n/a	n/a	8	52	Cue	Neutral	True
494.869	4.05	Control	0.7170000000000001	0.0	Yes	2.631	0.0	n/a	GoodResponse	0	n/a	n/a	8	52	Fixation	Neutral	True
498.918	0.27	Control	0.7170000000000001	0.001	Yes	2.631	-0.001	2.0	GoodResponse	0	0.215	498.133	8	52	Target	Neutral	True
499.133	0.3	Control	0.7170000000000001	0.001	Yes	2.631	-0.001	2.0	GoodResponse	0	0.215	n/a	8	52	ButtonPress	Neutral	True
499.201	0.43	Control	0.7170000000000001	n/a	Yes	2.631	n/a	n/a	GoodResponse	0	n/a	n/a	8	52	Blank	Neutral	True
499.617	1.45	Control	0.7170000000000001	n/a	Yes	2.631	n/a	5.0	GoodResponse	0	0.016	498.633	8	52	Feedback	Neutral	True
501.067	2.631	Control	0.7170000000000001	n/a	Yes	2.631	n/a	n/a	GoodResponse	0	0.0	n/a	8	52	ISIslide	Neutral	True
503.716	0.25	Win2	0.7222	0.0	Yes	2.934	0.016	n/a	GoodResponse	1	n/a	n/a	9	53	Cue	Win	True
503.966	4.05	Win2	0.7222	0.0	Yes	2.934	0.0	n/a	GoodResponse	1	n/a	n/a	9	53	Fixation	Win	True
508.014	0.26	Win2	0.7222	0.002	Yes	2.934	-0.002	2.0	GoodResponse	1	0.226	507.24	9	53	Target	Win	True
508.24	0.3	Win2	0.7222	0.002	Yes	2.934	-0.002	2.0	GoodResponse	1	0.226	n/a	9	53	ButtonPress	Win	True
508.281	0.44	Win2	0.7222	n/a	Yes	2.934	n/a	n/a	GoodResponse	1	n/a	n/a	9	53	Blank	Win	True
508.714	1.45	Win2	0.7222	n/a	Yes	2.934	n/a	5.0	GoodResponse	1	0.041	507.755	9	53	Feedback	Win	True
510.164	2.934	Win2	0.7222	n/a	Yes	2.934	n/a	n/a	GoodResponse	1	0.0	n/a	9	53	ISIslide	Win	True
513.129	0.25	Win2	0.7273000000000001	0.0	Yes	2.721	0.029	n/a	GoodResponse	1	n/a	n/a	10	54	Cue	Win	True
513.379	3.95	Win2	0.7273000000000001	0.0	Yes	2.721	0.0	n/a	GoodResponse	1	n/a	n/a	10	54	Fixation	Win	True
517.328	0.25	Win2	0.7273000000000001	0.001	Yes	2.721	-0.001	2.0	GoodResponse	1	0.22	516.548	10	54	Target	Win	True
517.548	0.3	Win2	0.7273000000000001	0.001	Yes	2.721	-0.001	2.0	GoodResponse	1	0.22	n/a	10	54	ButtonPress	Win	True
517.578	0.45	Win2	0.7273000000000001	n/a	Yes	2.721	n/a	n/a	GoodResponse	1	n/a	n/a	10	54	Blank	Win	True
518.028	1.45	Win2	0.7273000000000001	n/a	Yes	2.721	n/a	5.0	GoodResponse	1	0.044	517.072	10	54	Feedback	Win	True
519.477	2.721	Win2	0.7273000000000001	n/a	Yes	2.721	n/a	n/a	GoodResponse	1	0.0	n/a	10	54	ISIslide	Win	True
522.226	0.25	Control	0.7321	0.0	Yes	3.024	0.026	n/a	GoodResponse	0	n/a	n/a	10	55	Cue	Neutral	True
522.476	3.95	Control	0.7321	0.0	Yes	3.024	0.0	n/a	GoodResponse	0	n/a	n/a	10	55	Fixation	Neutral	True
526.425	0.24	Control	0.7321	0.001	Yes	3.024	-0.001	2.0	GoodResponse	0	0.21	525.635	10	55	Target	Neutral	True
526.635	0.3	Control	0.7321	0.001	Yes	3.024	-0.001	2.0	GoodResponse	0	0.21	n/a	10	55	ButtonPress	Neutral	True
526.675	0.46	Control	0.7321	n/a	Yes	3.024	n/a	n/a	GoodResponse	0	n/a	n/a	10	55	Blank	Neutral	True
527.124	1.45	Control	0.7321	n/a	Yes	3.024	n/a	5.0	GoodResponse	0	0.022	526.146	10	55	Feedback	Neutral	True
528.574	3.024	Control	0.7321	n/a	Yes	3.024	n/a	n/a	GoodResponse	0	0.0	n/a	10	55	ISIslide	Neutral	True
531.623	0.25	Control	0.7368000000000001	0.0	Yes	2.827	0.023	n/a	GoodResponse	0	n/a	n/a	10	56	Cue	Neutral	True
531.873	3.95	Control	0.7368000000000001	0.0	Yes	2.827	0.0	n/a	GoodResponse	0	n/a	n/a	10	56	Fixation	Neutral	True
535.821	0.23	Control	0.7368000000000001	0.002	Yes	2.827	-0.002	2.0	GoodResponse	0	0.209	535.03	10	56	Target	Neutral	True
536.03	0.3	Control	0.7368000000000001	0.002	Yes	2.827	-0.002	2.0	GoodResponse	0	0.209	n/a	10	56	ButtonPress	Neutral	True
536.055	0.47	Control	0.7368000000000001	n/a	Yes	2.827	n/a	n/a	GoodResponse	0	n/a	n/a	10	56	Blank	Neutral	True
536.521	1.45	Control	0.7368000000000001	n/a	Yes	2.827	n/a	5.0	GoodResponse	0	0.039	535.56	10	56	Feedback	Neutral	True
537.971	2.827	Control	0.7368000000000001	n/a	Yes	2.827	n/a	n/a	GoodResponse	0	0.0	n/a	10	56	ISIslide	Neutral	True
540.82	0.25	Control	0.7241	0.0	No	3.48	0.02	n/a	LatePress	0	n/a	n/a	10	57	Cue	Neutral	True
541.07	4.0	Control	0.7241	0.0	No	3.48	0.0	n/a	LatePress	0	n/a	n/a	10	57	Fixation	Neutral	True
545.068	0.22	Control	0.7241	0.002	No	3.48	-0.002	2.0	LatePress	0	0.221	544.289	10	57	Target	Neutral	True
545.289	0.3	Control	0.7241	0.002	No	3.48	-0.002	2.0	LatePress	0	0.221	n/a	10	57	ButtonPress	Neutral	True
545.301	0.48	Control	0.7241	n/a	No	3.48	n/a	n/a	LatePress	0	n/a	n/a	10	57	Blank	Neutral	True
545.768	1.45	Control	0.7241	n/a	No	3.48	n/a	5.0	LatePress	0	0.011	544.779	10	57	Feedback	Neutral	True
547.217	3.48	Control	0.7241	n/a	No	3.48	n/a	n/a	LatePress	0	0.0	n/a	10	57	ISIslide	Neutral	True
550.716	0.25	Win2	0.7288	0.0	Yes	2.734	0.016	n/a	GoodResponse	1	n/a	n/a	11	58	Cue	Win	False
550.966	4.05	Win2	0.7288	0.0	Yes	2.734	0.0	2.0	GoodResponse	1	3.928	553.894	11	58	Fixation	Win	False
554.894	0.3	Win2	0.7288	0.0	Yes	2.734	0.0	2.0	GoodResponse	1	3.928	n/a	11	58	ButtonPress	Win	False
555.015	0.21	Win2	0.7288	0.001	Yes	2.734	-0.001	2.0	GoodResponse	1	0.197	554.212	11	58	Target	Win	False
555.212	0.3	Win2	0.7288	0.001	Yes	2.734	-0.001	2.0	GoodResponse	1	0.197	n/a	11	58	ButtonPress	Win	False
555.231	0.49	Win2	0.7288	n/a	Yes	2.734	n/a	n/a	GoodResponse	1	n/a	n/a	11	58	Blank	Win	False
555.714	1.45	Win2	0.7288	n/a	Yes	2.734	n/a	5.0	GoodResponse	1	0.017	554.731	11	58	Feedback	Win	False
557.164	2.734	Win2	0.7288	n/a	Yes	2.734	n/a	n/a	GoodResponse	1	0.0	n/a	11	58	ISIslide	Win	False
559.913	0.25	Lose2	0.7167	0.0	No	2.687	0.013	n/a	NoResponse	-1	n/a	n/a	10	59	Cue	Loss	True
560.163	4.0	Lose2	0.7167	0.0	No	2.687	0.0	n/a	NoResponse	-1	n/a	n/a	10	59	Fixation	Loss	True
564.162	0.2	Lose2	0.7167	0.001	No	2.687	-0.001	2.0	NoResponse	-1	0.236	563.398	10	59	Target	Loss	True
564.361	0.5	Lose2	0.7167	n/a	No	2.687	n/a	n/a	NoResponse	-1	n/a	n/a	10	59	Blank	Loss	True
564.398	0.3	Lose2	0.7167	0.001	No	2.687	-0.001	2.0	NoResponse	-1	0.236	n/a	10	59	ButtonPress	Loss	True
564.861	1.45	Lose2	0.7167	n/a	No	2.687	n/a	5.0	NoResponse	-1	0.04	563.901	10	59	Feedback	Loss	True
566.311	2.687	Lose2	0.7167	n/a	No	2.687	n/a	n/a	NoResponse	-1	0.0	n/a	10	59	ISIslide	Loss	True
569.026	0.25	Control	0.7049	0.001	No	2.674	0.026	n/a	NoResponse	0	n/a	n/a	10	60	Cue	Neutral	True
569.276	4.0	Control	0.7049	0.0	No	2.674	0.0	n/a	NoResponse	0	n/a	n/a	10	60	Fixation	Neutral	True
573.275	0.19	Control	0.7049	0.001	No	2.674	-0.001	2.0	NoResponse	0	0.242	572.517	10	60	Target	Neutral	True
573.475	0.51	Control	0.7049	n/a	No	2.674	n/a	n/a	NoResponse	0	n/a	n/a	10	60	Blank	Neutral	True
573.517	0.3	Control	0.7049	0.001	No	2.674	-0.001	2.0	NoResponse	0	0.242	n/a	10	60	ButtonPress	Neutral	True
573.975	1.45	Control	0.7049	n/a	No	2.674	n/a	5.0	NoResponse	0	0.048	573.023	10	60	Feedback	Neutral	True
575.424	2.674	Control	0.7049	n/a	No	2.674	n/a	n/a	NoResponse	0	0.0	n/a	10	60	ISIslide	Neutral	True
578.123	0.25	Lose2	0.6934999999999999	0.0	No	2.977	0.023	n/a	NoResponse	-1	n/a	n/a	9	61	Cue	Loss	True
578.373	4.0	Lose2	0.6934999999999999	0.0	No	2.977	0.0	n/a	NoResponse	-1	n/a	n/a	9	61	Fixation	Loss	True
582.372	0.18	Lose2	0.6934999999999999	0.001	No	2.977	-0.001	2.0	NoResponse	-1	0.201	581.573	9	61	Target	Loss	True
582.555	0.52	Lose2	0.6934999999999999	n/a	No	2.977	n/a	n/a	NoResponse	-1	n/a	n/a	9	61	Blank	Loss	True
582.573	0.3	Lose2	0.6934999999999999	0.001	No	2.977	-0.001	2.0	NoResponse	-1	0.201	n/a	9	61	ButtonPress	Loss	True
583.072	1.45	Lose2	0.6934999999999999	n/a	No	2.977	n/a	5.0	NoResponse	-1	0.024	582.096	9	61	Feedback	Loss	True
584.521	2.977	Lose2	0.6934999999999999	n/a	No	2.977	n/a	n/a	NoResponse	-1	0.0	n/a	9	61	ISIslide	Loss	True
587.52	0.25	Lose2	0.6825	0.0	No	2.88	0.02	n/a	NoResponse	-1	n/a	n/a	8	62	Cue	Loss	True
587.77	3.9	Lose2	0.6825	0.0	No	2.88	0.0	n/a	NoResponse	-1	n/a	n/a	8	62	Fixation	Loss	True
591.669	0.17	Lose2	0.6825	0.001	No	2.88	-0.001	2.0	NoResponse	-1	0.197	590.866	8	62	Target	Loss	True
591.852	0.53	Lose2	0.6825	n/a	No	2.88	n/a	n/a	NoResponse	-1	n/a	n/a	8	62	Blank	Loss	True
591.866	0.3	Lose2	0.6825	0.001	No	2.88	-0.001	2.0	NoResponse	-1	0.197	n/a	8	62	ButtonPress	Loss	True
592.368	1.45	Lose2	0.6825	n/a	No	2.88	n/a	5.0	NoResponse	-1	0.045	591.413	8	62	Feedback	Loss	True
593.818	2.88	Lose2	0.6825	n/a	No	2.88	n/a	n/a	NoResponse	-1	0.0	n/a	8	62	ISIslide	Loss	True
596.717	0.25	Lose2	0.6718999999999999	0.0	No	2.633	0.017	n/a	NoResponse	-1	n/a	n/a	7	63	Cue	Loss	True
596.967	4.05	Lose2	0.6718999999999999	0.0	No	2.633	0.0	n/a	NoResponse	-1	n/a	n/a	7	63	Fixation	Loss	True
601.015	0.16	Lose2	0.6718999999999999	0.002	No	2.633	-0.002	2.0	NoResponse	-1	0.193	600.208	7	63	Target	Loss	True
601.182	0.54	Lose2	0.6718999999999999	n/a	No	2.633	n/a	n/a	NoResponse	-1	n/a	n/a	7	63	Blank	Loss	True
601.208	0.3	Lose2	0.6718999999999999	0.002	No	2.633	-0.002	2.0	NoResponse	-1	0.193	n/a	7	63	ButtonPress	Loss	True
601.715	1.45	Lose2	0.6718999999999999	n/a	No	2.633	n/a	5.0	NoResponse	-1	0.015	600.73	7	63	Feedback	Loss	True
603.165	2.633	Lose2	0.6718999999999999	n/a	No	2.633	n/a	n/a	NoResponse	-1	0.0	n/a	7	63	ISIslide	Loss	True
605.814	0.25	Win2	0.6615000000000001	0.0	No	3.136	0.014	n/a	NoResponse	0	n/a	n/a	7	64	Cue	MissedWin	True
606.064	4.15	Win2	0.6615000000000001	0.0	No	3.136	0.0	n/a	NoResponse	0	n/a	n/a	7	64	Fixation	MissedWin	True
610.212	0.15	Win2	0.6615000000000001	0.002	No	3.136	-0.002	2.0	NoResponse	0	0.187	609.399	7	64	Target	MissedWin	True
610.362	0.55	Win2	0.6615000000000001	n/a	No	3.136	n/a	n/a	NoResponse	0	n/a	n/a	7	64	Blank	MissedWin	True
610.399	0.3	Win2	0.6615000000000001	0.002	No	3.136	-0.002	2.0	NoResponse	0	0.187	n/a	7	64	ButtonPress	MissedWin	True
610.912	1.45	Win2	0.6615000000000001	n/a	No	3.136	n/a	5.0	NoResponse	0	0.038	609.95	7	64	Feedback	MissedWin	True
612.361	3.136	Win2	0.6615000000000001	n/a	No	3.136	n/a	n/a	NoResponse	0	0.0	n/a	7	64	ISIslide	MissedWin	True
615.527	0.25	Control	0.6515000000000001	0.0	No	2.773	0.027	n/a	NoResponse	0	n/a	n/a	7	65	Cue	Neutral	True
615.777	4.0	Control	0.6515000000000001	0.0	No	2.773	0.0	n/a	NoResponse	0	n/a	n/a	7	65	Fixation	Neutral	True
619.775	0.15	Control	0.6515000000000001	0.002	No	2.773	-0.002	2.0	NoResponse	0	0.225	619.0	7	65	Target	Neutral	True
619.925	0.55	Control	0.6515000000000001	n/a	No	2.773	n/a	n/a	NoResponse	0	n/a	n/a	7	65	Blank	Neutral	True
620	0.3	Control	0.6515000000000001	0.002	No	2.773	-0.002	2.0	NoResponse	0	0.225	n/a	7	65	ButtonPress	Neutral	True
620.475	1.45	Control	0.6515000000000001	n/a	No	2.773	n/a	5.0	NoResponse	0	0.036	619.511	7	65	Feedback	Neutral	True
621.925	2.773	Control	0.6515000000000001	n/a	No	2.773	n/a	n/a	NoResponse	0	0.0	n/a	7	65	ISIslide	Neutral	True
624.724	0.25	Win2	0.6418	0.0	No	2.776	0.024	n/a	NoResponse	0	n/a	n/a	7	66	Cue	MissedWin	True
624.974	3.9	Win2	0.6418	0.0	No	2.776	0.0	n/a	NoResponse	0	n/a	n/a	7	66	Fixation	MissedWin	True
628.872	0.16	Win2	0.6418	0.002	No	2.776	-0.002	2.0	NoResponse	0	0.22	628.092	7	66	Target	MissedWin	True
629.039	0.54	Win2	0.6418	n/a	No	2.776	n/a	n/a	NoResponse	0	n/a	n/a	7	66	Blank	MissedWin	True
629.092	0.3	Win2	0.6418	0.002	No	2.776	-0.002	2.0	NoResponse	0	0.22	n/a	7	66	ButtonPress	MissedWin	True
629.572	1.45	Win2	0.6418	n/a	No	2.776	n/a	5.0	NoResponse	0	0.012	628.584	7	66	Feedback	MissedWin	True
631.022	2.776	Win2	0.6418	n/a	No	2.776	n/a	n/a	NoResponse	0	0.0	n/a	7	66	ISIslide	MissedWin	True
633.821	0.25	Control	0.6324000000000001	0.0	No	2.729	0.021	n/a	NoResponse	0	n/a	n/a	7	67	Cue	Neutral	True
634.07	3.95	Control	0.6324000000000001	0.001	No	2.729	-0.001	n/a	NoResponse	0	n/a	n/a	7	67	Fixation	Neutral	True
638.019	0.17	Control	0.6324000000000001	0.002	No	2.729	-0.002	2.0	NoResponse	0	0.239	637.258	7	67	Target	Neutral	True
638.202	0.53	Control	0.6324000000000001	n/a	No	2.729	n/a	n/a	NoResponse	0	n/a	n/a	7	67	Blank	Neutral	True
638.258	0.3	Control	0.6324000000000001	0.002	No	2.729	-0.002	2.0	NoResponse	0	0.239	n/a	7	67	ButtonPress	Neutral	True
638.719	1.45	Control	0.6324000000000001	n/a	No	2.729	n/a	5.0	NoResponse	0	0.035	637.754	7	67	Feedback	Neutral	True
640.168	2.729	Control	0.6324000000000001	n/a	No	2.729	n/a	n/a	NoResponse	0	0.0	n/a	7	67	ISIslide	Neutral	True
642.917	0.25	Win2	0.6232	0.0	No	3.083	0.017	n/a	NoResponse	0	n/a	n/a	7	68	Cue	MissedWin	True
643.167	4.0	Win2	0.6232	0.0	No	3.083	0.0	n/a	NoResponse	0	n/a	n/a	7	68	Fixation	MissedWin	True
647.166	0.18	Win2	0.6232	0.001	No	3.083	-0.001	2.0	NoResponse	0	0.198	646.364	7	68	Target	MissedWin	True
647.349	0.52	Win2	0.6232	n/a	No	3.083	n/a	n/a	NoResponse	0	n/a	n/a	7	68	Blank	MissedWin	True
647.364	0.3	Win2	0.6232	0.001	No	3.083	-0.001	2.0	NoResponse	0	0.198	n/a	7	68	ButtonPress	MissedWin	True
647.866	1.45	Win2	0.6232	n/a	No	3.083	n/a	5.0	NoResponse	0	0.01	646.876	7	68	Feedback	MissedWin	True
649.315	3.083	Win2	0.6232	n/a	No	3.083	n/a	n/a	NoResponse	0	0.0	n/a	7	68	ISIslide	MissedWin	True
652.414	0.25	Win2	0.6143	0.0	No	3.236	0.014	n/a	NoResponse	0	n/a	n/a	7	69	Cue	MissedWin	True
652.664	3.95	Win2	0.6143	0.0	No	3.236	0.0	n/a	NoResponse	0	n/a	n/a	7	69	Fixation	MissedWin	True
656.613	0.19	Win2	0.6143	0.001	No	3.236	-0.001	2.0	NoResponse	0	0.222	655.835	7	69	Target	MissedWin	True
656.813	0.51	Win2	0.6143	n/a	No	3.236	n/a	n/a	NoResponse	0	n/a	n/a	7	69	Blank	MissedWin	True
656.835	0.3	Win2	0.6143	0.001	No	3.236	-0.001	2.0	NoResponse	0	0.222	n/a	7	69	ButtonPress	MissedWin	True
657.312	1.45	Win2	0.6143	n/a	No	3.236	n/a	5.0	NoResponse	0	0.028	656.34	7	69	Feedback	MissedWin	True
658.762	3.236	Win2	0.6143	n/a	No	3.236	n/a	n/a	NoResponse	0	0.0	n/a	7	69	ISIslide	MissedWin	True
662.027	0.25	Lose2	0.6197	0.0	Yes	3.023	0.027	n/a	GoodResponse	0	n/a	n/a	7	70	Cue	AvoidedLoss	True
662.277	4.05	Lose2	0.6197	0.0	Yes	3.023	0.0	n/a	GoodResponse	0	n/a	n/a	7	70	Fixation	AvoidedLoss	True
666.326	0.2	Lose2	0.6197	0.001	Yes	3.023	-0.001	2.0	GoodResponse	0	0.174	665.5	7	70	Target	AvoidedLoss	True
666.5	0.3	Lose2	0.6197	0.001	Yes	3.023	-0.001	2.0	GoodResponse	0	0.174	n/a	7	70	ButtonPress	AvoidedLoss	True
666.526	0.5	Lose2	0.6197	n/a	Yes	3.023	n/a	n/a	GoodResponse	0	n/a	n/a	7	70	Blank	AvoidedLoss	True
667.026	1.45	Lose2	0.6197	n/a	Yes	3.023	n/a	5.0	GoodResponse	0	0.021	666.047	7	70	Feedback	AvoidedLoss	True
668.475	3.023	Lose2	0.6197	n/a	Yes	3.023	n/a	n/a	GoodResponse	0	0.0	n/a	7	70	ISIslide	AvoidedLoss	True
671.524	0.25	Win2	0.625	0.0	Yes	2.726	0.024	n/a	GoodResponse	1	n/a	n/a	8	71	Cue	Win	True
671.774	4.05	Win2	0.625	0.0	Yes	2.726	0.0	n/a	GoodResponse	1	n/a	n/a	8	71	Fixation	Win	True
675.823	0.21	Win2	0.625	0.001	Yes	2.726	-0.001	2.0	GoodResponse	1	0.171	674.994	8	71	Target	Win	True
675.994	0.3	Win2	0.625	0.001	Yes	2.726	-0.001	2.0	GoodResponse	1	0.171	n/a	8	71	ButtonPress	Win	True
676.039	0.49	Win2	0.625	n/a	Yes	2.726	n/a	n/a	GoodResponse	1	n/a	n/a	8	71	Blank	Win	True
676.522	1.45	Win2	0.625	n/a	Yes	2.726	n/a	5.0	GoodResponse	1	0.037	675.559	8	71	Feedback	Win	True
677.972	2.726	Win2	0.625	n/a	Yes	2.726	n/a	n/a	GoodResponse	1	0.0	n/a	8	71	ISIslide	Win	True
680.721	0.25	Win2	0.6301	0.0	Yes	2.779	0.021	n/a	GoodResponse	1	n/a	n/a	9	72	Cue	Win	True
680.971	4.1	Win2	0.6301	0.0	Yes	2.779	0.0	n/a	GoodResponse	1	n/a	n/a	9	72	Fixation	Win	True
685.069	0.22	Win2	0.6301	0.002	Yes	2.779	-0.002	2.0	GoodResponse	1	0.209	684.278	9	72	Target	Win	True
685.278	0.3	Win2	0.6301	0.002	Yes	2.779	-0.002	2.0	GoodResponse	1	0.209	n/a	9	72	ButtonPress	Win	True
685.303	0.48	Win2	0.6301	n/a	Yes	2.779	n/a	n/a	GoodResponse	1	n/a	n/a	9	72	Blank	Win	True
685.769	1.45	Win2	0.6301	n/a	Yes	2.779	n/a	5.0	GoodResponse	1	0.009	684.778	9	72	Feedback	Win	True
687.219	2.779	Win2	0.6301	n/a	Yes	2.779	n/a	n/a	GoodResponse	1	0.0	n/a	9	72	ISIslide	Win	True
690.018	0.25	Win2	0.6351	0.0	Yes	2.682	0.018	n/a	GoodResponse	1	n/a	n/a	10	73	Cue	Win	True
690.268	4.0	Win2	0.6351	0.0	Yes	2.682	0.0	n/a	GoodResponse	1	n/a	n/a	10	73	Fixation	Win	True
694.266	0.23	Win2	0.6351	0.002	Yes	2.682	-0.002	2.0	GoodResponse	1	0.227	693.493	10	73	Target	Win	True
694.493	0.3	Win2	0.6351	0.002	Yes	2.682	-0.002	2.0	GoodResponse	1	0.227	n/a	10	73	ButtonPress	Win	True
694.499	0.47	Win2	0.6351	n/a	Yes	2.682	n/a	n/a	GoodResponse	1	n/a	n/a	10	73	Blank	Win	True
694.966	1.45	Win2	0.6351	n/a	Yes	2.682	n/a	5.0	GoodResponse	1	0.032	693.998	10	73	Feedback	Win	True
696.415	2.682	Win2	0.6351	n/a	Yes	2.682	n/a	n/a	GoodResponse	1	0.0	n/a	10	73	ISIslide	Win	True
699.114	0.25	Lose2	0.6267	0.0	No	2.636	0.014	n/a	NoResponse	-1	n/a	n/a	9	74	Cue	Loss	True
699.364	4.05	Lose2	0.6267	0.0	No	2.636	0.0	n/a	NoResponse	-1	n/a	n/a	9	74	Fixation	Loss	True
703.413	0.24	Lose2	0.6267	0.001	No	2.636	-0.001	2.0	NoResponse	-1	0.294	702.707	9	74	Target	Loss	True
703.663	0.46	Lose2	0.6267	n/a	No	2.636	n/a	n/a	NoResponse	-1	n/a	n/a	9	74	Blank	Loss	True
703.707	0.3	Lose2	0.6267	0.001	No	2.636	-0.001	2.0	NoResponse	-1	0.294	n/a	9	74	ButtonPress	Loss	True
704.113	1.45	Lose2	0.6267	n/a	No	2.636	n/a	5.0	NoResponse	-1	0.007	703.12	9	74	Feedback	Loss	True
705.562	2.636	Lose2	0.6267	n/a	No	2.636	n/a	n/a	NoResponse	-1	0.0	n/a	9	74	ISIslide	Loss	True
708.228	0.25	Lose2	0.6315999999999999	0.0	Yes	2.922	0.028	n/a	GoodResponse	0	n/a	n/a	9	75	Cue	AvoidedLoss	True
708.478	3.95	Lose2	0.6315999999999999	0.0	Yes	2.922	0.0	n/a	GoodResponse	0	n/a	n/a	9	75	Fixation	AvoidedLoss	True
712.426	0.25	Lose2	0.6315999999999999	0.002	Yes	2.922	-0.002	2.0	GoodResponse	0	0.209	711.635	9	75	Target	AvoidedLoss	True
712.635	0.3	Lose2	0.6315999999999999	0.002	Yes	2.922	-0.002	2.0	GoodResponse	0	0.209	n/a	9	75	ButtonPress	AvoidedLoss	True
712.676	0.45	Lose2	0.6315999999999999	n/a	Yes	2.922	n/a	n/a	GoodResponse	0	n/a	n/a	9	75	Blank	AvoidedLoss	True
713.126	1.45	Lose2	0.6315999999999999	n/a	Yes	2.922	n/a	5.0	GoodResponse	0	0.018	712.144	9	75	Feedback	AvoidedLoss	True
714.576	2.922	Lose2	0.6315999999999999	n/a	Yes	2.922	n/a	n/a	GoodResponse	0	0.0	n/a	9	75	ISIslide	AvoidedLoss	True
717.525	0.25	Control	0.6364	0.0	Yes	3.225	0.025	n/a	GoodResponse	0	n/a	n/a	9	76	Cue	Neutral	True
717.775	4.05	Control	0.6364	0.0	Yes	3.225	0.0	n/a	GoodResponse	0	n/a	n/a	9	76	Fixation	Neutral	True
721.823	0.26	Control	0.6364	0.002	Yes	3.225	-0.002	2.0	GoodResponse	0	0.123	720.946	9	76	Target	Neutral	True
721.946	0.3	Control	0.6364	0.002	Yes	3.225	-0.002	2.0	GoodResponse	0	0.123	n/a	9	76	ButtonPress	Neutral	True
722.09	0.44	Control	0.6364	n/a	Yes	3.225	n/a	n/a	GoodResponse	0	n/a	n/a	9	76	Blank	Neutral	True
722.523	1.45	Control	0.6364	n/a	Yes	3.225	n/a	5.0	GoodResponse	0	0.036	721.559	9	76	Feedback	Neutral	True
723.972	3.225	Control	0.6364	n/a	Yes	3.225	n/a	n/a	GoodResponse	0	0.0	n/a	9	76	ISIslide	Neutral	True
727.221	0.25	Lose2	0.6409999999999999	0.0	Yes	2.579	0.021	n/a	GoodResponse	0	n/a	n/a	9	77	Cue	AvoidedLoss	True
727.471	3.95	Lose2	0.6409999999999999	0.0	Yes	2.579	0.0	n/a	GoodResponse	0	n/a	n/a	9	77	Fixation	AvoidedLoss	True
731.42	0.27	Lose2	0.6409999999999999	0.001	Yes	2.579	-0.001	2.0	GoodResponse	0	0.222	730.642	9	77	Target	AvoidedLoss	True
731.642	0.3	Lose2	0.6409999999999999	0.001	Yes	2.579	-0.001	2.0	GoodResponse	0	0.222	n/a	9	77	ButtonPress	AvoidedLoss	True
731.686	0.43	Lose2	0.6409999999999999	n/a	Yes	2.579	n/a	n/a	GoodResponse	0	n/a	n/a	9	77	Blank	AvoidedLoss	True
732.12	1.45	Lose2	0.6409999999999999	n/a	Yes	2.579	n/a	5.0	GoodResponse	0	0.049	731.169	9	77	Feedback	AvoidedLoss	True
733.569	2.579	Lose2	0.6409999999999999	n/a	Yes	2.579	n/a	n/a	GoodResponse	0	0.0	n/a	9	77	ISIslide	AvoidedLoss	True
