onset	duration	cue_type	current_mean_accuracy	duration_error	is_hit	isi_adjusted	onset_delay	response	response_type	reward	rt	rt_time	total_reward	trial_number	trial_phase	trial_type	one_press
11.11	0.25	Control	1.0	0.0	Yes	2.94	0.01	n/a	GoodResponse	0	n/a	n/a	0	0	Cue	Neutral	True
11.361	3.85	Control	1.0	0.0	Yes	2.94	0.001	n/a	GoodResponse	0	n/a	n/a	0	0	Fixation	Neutral	True
15.206	0.4	Control	1.0	0.004	Yes	2.94	-0.004	2.0	GoodResponse	0	0.199	14.405	0	0	Target	Neutral	True
15.405	0.3	Control	1.0	0.004	Yes	2.94	-0.004	2.0	GoodResponse	0	0.199	n/a	0	0	ButtonPress	Neutral	True
15.607	0.3	Control	1.0	n/a	Yes	2.94	n/a	n/a	GoodResponse	0	n/a	n/a	0	0	Blank	Neutral	True
15.908	1.45	Control	1.0	n/a	Yes	2.94	n/a	5.0	GoodResponse	0	0.019	14.927	0	0	Feedback	Neutral	True
17.362	2.94	Control	1.0	n/a	Yes	2.94	n/a	n/a	GoodResponse	0	0.0	n/a	0	0	ISIslide	Neutral	True
20.321	0.25	Lose2	1.0	0.0	Yes	2.779	0.021	n/a	GoodResponse	0	n/a	n/a	0	1	Cue	AvoidedLoss	True
20.572	4.0	Lose2	1.0	0.0	Yes	2.779	0.001	n/a	GoodResponse	0	n/a	n/a	0	1	Fixation	AvoidedLoss	True
24.567	0.39	Lose2	1.0	0.004	Yes	2.779	-0.004	2.0	GoodResponse	0	0.2	23.767	0	1	Target	AvoidedLoss	True
24.767	0.3	Lose2	1.0	0.004	Yes	2.779	-0.004	2.0	GoodResponse	0	0.2	n/a	0	1	ButtonPress	AvoidedLoss	True
24.968	0.31	Lose2	1.0	n/a	Yes	2.779	n/a	n/a	GoodResponse	0	n/a	n/a	0	1	Blank	AvoidedLoss	True
25.269	1.45	Lose2	1.0	n/a	Yes	2.779	n/a	5.0	GoodResponse	0	0.024	24.293	0	1	Feedback	AvoidedLoss	True
26.723	2.779	Lose2	1.0	n/a	Yes	2.779	n/a	n/a	GoodResponse	0	0.0	n/a	0	1	ISIslide	AvoidedLoss	True
29.515	0.25	Control	1.0	0.0	Yes	2.585	0.015	n/a	GoodResponse	0	n/a	n/a	0	2	Cue	Neutral	True
29.766	4.1	Control	1.0	0.0	Yes	2.585	0.001	n/a	GoodResponse	0	n/a	n/a	0	2	Fixation	Neutral	True
33.861	0.38	Control	1.0	0.004	Yes	2.585	-0.004	2.0	GoodResponse	0	0.254	33.115	0	2	Target	Neutral	True
34.115	0.3	Control	1.0	0.004	Yes	2.585	-0.004	2.0	GoodResponse	0	0.254	n/a	0	2	ButtonPress	Neutral	True
34.246	0.32	Control	1.0	n/a	Yes	2.585	n/a	n/a	GoodResponse	0	n/a	n/a	0	2	Blank	Neutral	True
34.564	1.45	Control	1.0	n/a	Yes	2.585	n/a	5.0	GoodResponse	0	0.045	33.609	0	2	Feedback	Neutral	True
36.018	2.585	Control	1.0	n/a	Yes	2.585	n/a	n/a	GoodResponse	0	0.0	n/a	0	2	ISIslide	Neutral	True
38.626	0.25	Win2	1.0	0.0	Yes	2.824	0.026	n/a	GoodResponse	1	n/a	n/a	1	3	Cue	Win	True
38.876	3.95	Win2	1.0	0.001	Yes	2.824	0.0	n/a	GoodResponse	1	n/a	n/a	1	3	Fixation	Win	True
42.822	0.37	Win2	1.0	0.004	Yes	2.824	-0.004	2.0	GoodResponse	1	0.211	42.033	1	3	Target	Win	True
43.033	0.3	Win2	1.0	0.004	Yes	2.824	-0.004	2.0	GoodResponse	1	0.211	n/a	1	3	ButtonPress	Win	True
43.206	0.33	Win2	1.0	n/a	Yes	2.824	n/a	n/a	GoodResponse	1	n/a	n/a	1	3	Blank	Win	True
43.524	1.45	Win2	1.0	n/a	Yes	2.824	n/a	5.0	GoodResponse	1	0.012	42.536	1	3	Feedback	Win	True
44.978	2.824	Win2	1.0	n/a	Yes	2.824	n/a	n/a	GoodResponse	1	0.0	n/a	1	3	ISIslide	Win	True
47.82	0.25	Win2	1.0	0.0	Yes	3.28	0.02	n/a	GoodResponse	1	n/a	n/a	2	4	Cue	Win	True
48.071	4.0	Win2	1.0	0.0	Yes	3.28	0.001	n/a	GoodResponse	1	n/a	n/a	2	4	Fixation	Win	True
52.066	0.36	Win2	1.0	0.004	Yes	3.28	-0.004	2.0	GoodResponse	1	0.269	51.335	2	4	Target	Win	True
52.335	0.3	Win2	1.0	0.004	Yes	3.28	-0.004	2.0	GoodResponse	1	0.269	n/a	2	4	ButtonPress	Win	True
52.434	0.34	Win2	1.0	n/a	Yes	3.28	n/a	n/a	GoodResponse	1	n/a	n/a	2	4	Blank	Win	True
52.768	1.45	Win2	1.0	n/a	Yes	3.28	n/a	5.0	GoodResponse	1	0.037	51.805	2	4	Feedback	Win	True
54.222	3.28	Win2	1.0	n/a	Yes	3.28	n/a	n/a	GoodResponse	1	0.0	n/a	2	4	ISIslide	Win	True
57.516	0.25	Win2	1.0	0.0	Yes	2.784	0.016	n/a	GoodResponse	1	n/a	n/a	3	5	Cue	Win	True
57.766	4.0	Win2	1.0	0.0	Yes	2.784	0.0	n/a	GoodResponse	1	n/a	n/a	3	5	Fixation	Win	True
61.762	0.35	Win2	1.0	0.004	Yes	2.784	-0.004	2.0	GoodResponse	1	0.217	60.979	3	5	Target	Win	True
61.979	0.3	Win2	1.0	0.004	Yes	2.784	-0.004	2.0	GoodResponse	1	0.217	n/a	3	5	ButtonPress	Win	True
62.113	0.35	Win2	1.0	n/a	Yes	2.784	n/a	n/a	GoodResponse	1	n/a	n/a	3	5	Blank	Win	True
62.464	1.45	Win2	1.0	n/a	Yes	2.784	n/a	5.0	GoodResponse	1	0.048	61.512	3	5	Feedback	Win	True
63.918	2.784	Win2	1.0	n/a	Yes	2.784	n/a	n/a	GoodResponse	1	0.0	n/a	3	5	ISIslide	Win	True
66.726	0.25	Lose2	1.0	0.0	Yes	2.724	0.026	n/a	GoodResponse	0	n/a	n/a	3	6	Cue	AvoidedLoss	True
66.977	3.95	Lose2	1.0	0.0	Yes	2.724	0.001	n/a	GoodResponse	0	n/a	n/a	3	6	Fixation	AvoidedLoss	True
70.922	0.34	Lose2	1.0	0.004	Yes	2.724	-0.004	2.0	GoodResponse	0	0.199	70.121	3	6	Target	AvoidedLoss	True
71.121	0.3	Lose2	1.0	0.004	Yes	2.724	-0.004	2.0	GoodResponse	0	0.199	n/a	3	6	ButtonPress	AvoidedLoss	True
71.273	0.36	Lose2	1.0	n/a	Yes	2.724	n/a	n/a	GoodResponse	0	n/a	n/a	3	6	Blank	AvoidedLoss	True
71.624	1.45	Lose2	1.0	n/a	Yes	2.724	n/a	5.0	GoodResponse	0	0.009	70.633	3	6	Feedback	AvoidedLoss	True
73.079	2.724	Lose2	1.0	n/a	Yes	2.724	n/a	n/a	GoodResponse	0	0.0	n/a	3	6	ISIslide	AvoidedLoss	True
75.82	0.25	Lose2	1.0	0.0	Yes	4.03	0.02	n/a	GoodResponse	0	n/a	n/a	3	7	Cue	AvoidedLoss	True
76.071	4.05	Lose2	1.0	0.0	Yes	4.03	0.001	n/a	GoodResponse	0	n/a	n/a	3	7	Fixation	AvoidedLoss	True
80.116	0.33	Lose2	1.0	0.004	Yes	4.03	-0.004	2.0	GoodResponse	0	0.221	79.337	3	7	Target	AvoidedLoss	True
80.337	0.3	Lose2	1.0	0.004	Yes	4.03	-0.004	2.0	GoodResponse	0	0.221	n/a	3	7	ButtonPress	AvoidedLoss	True
80.451	0.37	Lose2	1.0	n/a	Yes	4.03	n/a	n/a	GoodResponse	0	n/a	n/a	3	7	Blank	AvoidedLoss	True
80.819	1.45	Lose2	1.0	n/a	Yes	4.03	n/a	5.0	GoodResponse	0	0.034	79.853	3	7	Feedback	AvoidedLoss	True
82.273	4.03	Lose2	1.0	n/a	Yes	4.03	n/a	n/a	GoodResponse	0	0.0	n/a	3	7	ISIslide	AvoidedLoss	True
86.318	0.25	Lose2	1.0	0.0	Yes	3.032	0.018	n/a	GoodResponse	0	n/a	n/a	3	8	Cue	AvoidedLoss	True
86.569	3.95	Lose2	1.0	0.0	Yes	3.032	0.001	n/a	GoodResponse	0	n/a	n/a	3	8	Fixation	AvoidedLoss	True
90.514	0.32	Lose2	1.0	0.004	Yes	3.032	-0.004	2.0	GoodResponse	0	0.231	89.745	3	8	Target	AvoidedLoss	True
90.745	0.3	Lose2	1.0	0.004	Yes	3.032	-0.004	2.0	GoodResponse	0	0.231	n/a	3	8	ButtonPress	AvoidedLoss	True
90.849	0.38	Lose2	1.0	n/a	Yes	3.032	n/a	n/a	GoodResponse	0	n/a	n/a	3	8	Blank	AvoidedLoss	True
91.216	1.45	Lose2	1.0	n/a	Yes	3.032	n/a	5.0	GoodResponse	0	0.027	90.243	3	8	Feedback	AvoidedLoss	True
92.671	3.032	Lose2	1.0	n/a	Yes	3.032	n/a	n/a	GoodResponse	0	0.0	n/a	3	8	ISIslide	AvoidedLoss	True
95.73	0.25	Lose2	1.0	0.0	Yes	3.12	0.03	n/a	GoodResponse	0	n/a	n/a	3	9	Cue	AvoidedLoss	True
95.981	3.95	Lose2	1.0	0.0	Yes	3.12	0.001	n/a	GoodResponse	0	n/a	n/a	3	9	Fixation	AvoidedLoss	True
99.926	0.31	Lose2	1.0	0.004	Yes	3.12	-0.004	2.0	GoodResponse	0	0.212	99.138	3	9	Target	AvoidedLoss	True
100.138	0.3	Lose2	1.0	0.004	Yes	3.12	-0.004	2.0	GoodResponse	0	0.212	n/a	3	9	ButtonPress	AvoidedLoss	True
100.243	0.39	Lose2	1.0	n/a	Yes	3.12	n/a	n/a	GoodResponse	0	n/a	n/a	3	9	Blank	AvoidedLoss	True
100.628	1.45	Lose2	1.0	n/a	Yes	3.12	n/a	5.0	GoodResponse	0	0.03	99.658	3	9	Feedback	AvoidedLoss	True
102.082	3.12	Lose2	1.0	n/a	Yes	3.12	n/a	n/a	GoodResponse	0	0.0	n/a	3	9	ISIslide	AvoidedLoss	True
105.225	0.25	Control	1.0	0.0	Yes	3.275	0.025	n/a	GoodResponse	0	n/a	n/a	3	10	Cue	Neutral	True
105.476	4.0	Control	1.0	0.0	Yes	3.275	0.001	n/a	GoodResponse	0	n/a	n/a	3	10	Fixation	Neutral	True
109.471	0.3	Control	1.0	0.004	Yes	3.275	-0.004	2.0	GoodResponse	0	0.203	108.674	3	10	Target	Neutral	True
109.674	0.3	Control	1.0	0.004	Yes	3.275	-0.004	2.0	GoodResponse	0	0.203	n/a	3	10	ButtonPress	Neutral	True
109.772	0.4	Control	1.0	n/a	Yes	3.275	n/a	n/a	GoodResponse	0	n/a	n/a	3	10	Blank	Neutral	True
110.173	1.45	Control	1.0	n/a	Yes	3.275	n/a	5.0	GoodResponse	0	0.046	109.219	3	10	Feedback	Neutral	True
111.627	3.275	Control	1.0	n/a	Yes	3.275	n/a	n/a	GoodResponse	0	0.0	n/a	3	10	ISIslide	Neutral	True
114.92	0.25	Lose2	1.0	0.001	Yes	2.73	0.02	n/a	GoodResponse	0	n/a	n/a	3	11	Cue	AvoidedLoss	True
115.171	4.05	Lose2	1.0	0.0	Yes	2.73	0.001	n/a	GoodResponse	0	n/a	n/a	3	11	Fixation	AvoidedLoss	True
119.217	0.29	Lose2	1.0	0.003	Yes	2.73	-0.003	2.0	GoodResponse	0	0.198	118.415	3	11	Target	AvoidedLoss	True
119.415	0.3	Lose2	1.0	0.003	Yes	2.73	-0.003	2.0	GoodResponse	0	0.198	n/a	3	11	ButtonPress	AvoidedLoss	True
119.518	0.41	Lose2	1.0	n/a	Yes	2.73	n/a	n/a	GoodResponse	0	n/a	n/a	3	11	Blank	AvoidedLoss	True
119.919	1.45	Lose2	1.0	n/a	Yes	2.73	n/a	5.0	GoodResponse	0	0.006	118.925	3	11	Feedback	AvoidedLoss	True
121.373	2.73	Lose2	1.0	n/a	Yes	2.73	n/a	n/a	GoodResponse	0	0.0	n/a	3	11	ISIslide	AvoidedLoss	True
124.115	0.25	Control	0.9231	0.0	No	2.985	0.015	n/a	NoResponse	0	n/a	n/a	3	12	Cue	Neutral	True
124.365	3.9	Control	0.9231	0.0	No	2.985	0.0	n/a	NoResponse	0	n/a	n/a	3	12	Fixation	Neutral	True
128.277	0.28	Control	0.9231	0.0	No	2.985	0.012	2.0	NoResponse	0	0.301	127.578	3	12	Target	Neutral	True
128.545	0.42	Control	0.9231	n/a	No	2.985	n/a	n/a	NoResponse	0	n/a	n/a	3	12	Blank	Neutral	True
128.578	0.3	Control	0.9231	0.0	No	2.985	0.012	2.0	NoResponse	0	0.301	n/a	3	12	ButtonPress	Neutral	True
128.962	1.45	Control	0.9231	n/a	No	2.985	n/a	5.0	NoResponse	0	0.037	127.999	3	12	Feedback	Neutral	True
130.417	2.985	Control	0.9231	n/a	No	2.985	n/a	n/a	NoResponse	0	0.0	n/a	3	12	ISIslide	Neutral	True
133.426	0.25	Control	0.9286	0.0	Yes	2.774	0.026	n/a	GoodResponse	0	n/a	n/a	3	13	Cue	Neutral	True
133.677	4.0	Control	0.9286	0.0	Yes	2.774	0.001	n/a	GoodResponse	0	n/a	n/a	3	13	Fixation	Neutral	True
137.672	0.27	Control	0.9286	0.004	Yes	2.774	-0.004	2.0	GoodResponse	0	0.23	136.902	3	13	Target	Neutral	True
137.902	0.3	Control	0.9286	0.004	Yes	2.774	-0.004	2.0	GoodResponse	0	0.23	n/a	3	13	ButtonPress	Neutral	True
137.956	0.43	Control	0.9286	n/a	Yes	2.774	n/a	n/a	GoodResponse	0	n/a	n/a	3	13	Blank	Neutral	True
138.374	1.45	Control	0.9286	n/a	Yes	2.774	n/a	5.0	GoodResponse	0	0.039	137.413	3	13	Feedback	Neutral	True
139.828	2.774	Control	0.9286	n/a	Yes	2.774	n/a	n/a	GoodResponse	0	0.0	n/a	3	13	ISIslide	Neutral	True
142.62	0.25	Win2	0.9333	0.0	Yes	2.68	0.02	n/a	GoodResponse	1	n/a	n/a	4	14	Cue	Win	True
142.871	4.1	Win2	0.9333	0.0	Yes	2.68	0.001	n/a	GoodResponse	1	n/a	n/a	4	14	Fixation	Win	True
146.966	0.26	Win2	0.9333	0.004	Yes	2.68	-0.004	2.0	GoodResponse	1	0.219	146.185	4	14	Target	Win	True
147.185	0.3	Win2	0.9333	0.004	Yes	2.68	-0.004	2.0	GoodResponse	1	0.219	n/a	4	14	ButtonPress	Win	True
147.234	0.44	Win2	0.9333	n/a	Yes	2.68	n/a	n/a	GoodResponse	1	n/a	n/a	4	14	Blank	Win	True
147.668	1.45	Win2	0.9333	n/a	Yes	2.68	n/a	5.0	GoodResponse	1	0.014	146.682	4	14	Feedback	Win	True
149.123	2.68	Win2	0.9333	n/a	Yes	2.68	n/a	n/a	GoodResponse	1	0.0	n/a	4	14	ISIslide	Win	True
151.814	0.25	Control	0.9375	0.0	Yes	2.986	0.014	n/a	GoodResponse	0	n/a	n/a	4	15	Cue	Neutral	True
152.065	4.0	Control	0.9375	0.0	Yes	2.986	0.001	n/a	GoodResponse	0	n/a	n/a	4	15	Fixation	Neutral	True
156.06	0.25	Control	0.9375	0.004	Yes	2.986	-0.004	2.0	GoodResponse	0	0.181	155.241	4	15	Target	Neutral	True
156.241	0.3	Control	0.9375	0.004	Yes	2.986	-0.004	2.0	GoodResponse	0	0.181	n/a	4	15	ButtonPress	Neutral	True
156.311	0.45	Control	0.9375	n/a	Yes	2.986	n/a	n/a	GoodResponse	0	n/a	n/a	4	15	Blank	Neutral	True
156.762	1.45	Control	0.9375	n/a	Yes	2.986	n/a	5.0	GoodResponse	0	0.041	155.803	4	15	Feedback	Neutral	True
158.217	2.986	Control	0.9375	n/a	Yes	2.986	n/a	n/a	GoodResponse	0	0.0	n/a	4	15	ISIslide	Neutral	True
161.226	0.25	Win2	0.9412	0.0	Yes	2.874	0.026	n/a	GoodResponse	1	n/a	n/a	5	16	Cue	Win	True
161.476	4.0	Win2	0.9412	0.0	Yes	2.874	0.0	n/a	GoodResponse	1	n/a	n/a	5	16	Fixation	Win	True
165.472	0.24	Win2	0.9412	0.004	Yes	2.874	-0.004	2.0	GoodResponse	1	0.208	164.68	5	16	Target	Win	True
165.68	0.3	Win2	0.9412	0.004	Yes	2.874	-0.004	2.0	GoodResponse	1	0.208	n/a	5	16	ButtonPress	Win	True
165.722	0.46	Win2	0.9412	n/a	Yes	2.874	n/a	n/a	GoodResponse	1	n/a	n/a	5	16	Blank	Win	True
166.174	1.45	Win2	0.9412	n/a	Yes	2.874	n/a	5.0	GoodResponse	1	0.044	165.218	5	16	Feedback	Win	True
167.628	2.874	Win2	0.9412	n/a	Yes	2.874	n/a	n/a	GoodResponse	1	0.0	n/a	5	16	ISIslide	Win	True
170.52	0.25	Lose2	0.8889	0.0	No	2.73	0.02	n/a	NoResponse	-1	n/a	n/a	4	17	Cue	Loss	True
170.771	3.95	Lose2	0.8889	0.0	No	2.73	0.001	n/a	NoResponse	-1	n/a	n/a	4	17	Fixation	Loss	True
174.716	0.23	Lose2	0.8889	0.004	No	2.73	-0.004	2.0	NoResponse	-1	0.242	173.958	4	17	Target	Loss	True
174.95	0.47	Lose2	0.8889	n/a	No	2.73	n/a	n/a	NoResponse	-1	n/a	n/a	4	17	Blank	Loss	True
174.958	0.3	Lose2	0.8889	0.004	No	2.73	-0.004	2.0	NoResponse	-1	0.242	n/a	4	17	ButtonPress	Loss	True
175.418	1.45	Lose2	0.8889	n/a	No	2.73	n/a	5.0	NoResponse	-1	0.019	174.437	4	17	Feedback	Loss	True
176.872	2.73	Lose2	0.8889	n/a	No	2.73	n/a	n/a	NoResponse	-1	0.0	n/a	4	17	ISIslide	Loss	True
179.631	0.25	Lose2	0.8946999999999999	0.0	Yes	2.719	0.031	n/a	GoodResponse	0	n/a	n/a	4	18	Cue	AvoidedLoss	True
179.881	4.05	Lose2	0.8946999999999999	0.0	Yes	2.719	0.0	n/a	GoodResponse	0	n/a	n/a	4	18	Fixation	AvoidedLoss	True
183.927	0.22	Lose2	0.8946999999999999	0.004	Yes	2.719	-0.004	2.0	GoodResponse	0	0.187	183.114	4	18	Target	AvoidedLoss	True
184.114	0.3	Lose2	0.8946999999999999	0.004	Yes	2.719	-0.004	2.0	GoodResponse	0	0.187	n/a	4	18	ButtonPress	AvoidedLoss	True
184.161	0.48	Lose2	0.8946999999999999	n/a	Yes	2.719	n/a	n/a	GoodResponse	0	n/a	n/a	4	18	Blank	AvoidedLoss	True
184.629	1.45	Lose2	0.8946999999999999	n/a	Yes	2.719	n/a	5.0	GoodResponse	0	0.028	183.657	4	18	Feedback	AvoidedLoss	True
186.083	2.719	Lose2	0.8946999999999999	n/a	Yes	2.719	n/a	n/a	GoodResponse	0	0.0	n/a	4	18	ISIslide	AvoidedLoss	True
188.825	0.25	Control	0.9	0.0	Yes	2.925	0.025	n/a	GoodResponse	0	n/a	n/a	4	19	Cue	Neutral	True
189.076	3.95	Control	0.9	0.0	Yes	2.925	0.001	n/a	GoodResponse	0	n/a	n/a	4	19	Fixation	Neutral	True
193.021	0.21	Control	0.9	0.004	Yes	2.925	-0.004	2.0	GoodResponse	0	0.196	192.217	4	19	Target	Neutral	True
193.217	0.3	Control	0.9	0.004	Yes	2.925	-0.004	2.0	GoodResponse	0	0.196	n/a	4	19	ButtonPress	Neutral	True
193.238	0.49	Control	0.9	n/a	Yes	2.925	n/a	n/a	GoodResponse	0	n/a	n/a	4	19	Blank	Neutral	True
193.723	1.45	Control	0.9	n/a	Yes	2.925	n/a	5.0	GoodResponse	0	0.007	192.73	4	19	Feedback	Neutral	True
195.177	2.925	Control	0.9	n/a	Yes	2.925	n/a	n/a	GoodResponse	0	0.0	n/a	4	19	ISIslide	Neutral	True
198.119	0.25	Control	0.8571	0.0	No	2.631	0.019	n/a	NoResponse	0	n/a	n/a	4	20	Cue	Neutral	True
198.37	4.05	Control	0.8571	0.0	No	2.631	0.001	n/a	NoResponse	0	n/a	n/a	4	20	Fixation	Neutral	True
202.415	0.2	Control	0.8571	0.004	No	2.631	-0.004	2.0	NoResponse	0	0.212	201.627	4	20	Target	Neutral	True
202.616	0.5	Control	0.8571	n/a	No	2.631	n/a	n/a	NoResponse	0	n/a	n/a	4	20	Blank	Neutral	True
202.627	0.3	Control	0.8571	0.004	No	2.631	-0.004	2.0	NoResponse	0	0.212	n/a	4	20	ButtonPress	Neutral	True
203.118	1.45	Control	0.8571	n/a	No	2.631	n/a	5.0	NoResponse	0	0.026	202.144	4	20	Feedback	Neutral	True
204.572	2.631	Control	0.8571	n/a	No	2.631	n/a	n/a	NoResponse	0	0.0	n/a	4	20	ISIslide	Neutral	True
207.23	0.25	Control	0.8636	0.0	Yes	2.77	0.03	n/a	GoodResponse	0	n/a	n/a	4	21	Cue	Neutral	True
207.481	4.1	Control	0.8636	0.0	Yes	2.77	0.001	n/a	GoodResponse	0	n/a	n/a	4	21	Fixation	Neutral	True
211.576	0.19	Control	0.8636	0.004	Yes	2.77	-0.004	2.0	GoodResponse	0	0.186	210.762	4	21	Target	Neutral	True
211.762	0.3	Control	0.8636	0.004	Yes	2.77	-0.004	2.0	GoodResponse	0	0.186	n/a	4	21	ButtonPress	Neutral	True
211.777	0.51	Control	0.8636	n/a	Yes	2.77	n/a	n/a	GoodResponse	0	n/a	n/a	4	21	Blank	Neutral	True
212.278	1.45	Control	0.8636	n/a	Yes	2.77	n/a	5.0	GoodResponse	0	0.037	211.315	4	21	Feedback	Neutral	True
213.733	2.77	Control	0.8636	n/a	Yes	2.77	n/a	n/a	GoodResponse	0	0.0	n/a	4	21	ISIslide	Neutral	True
216.524	0.25	Control	0.8695999999999999	0.0	Yes	2.776	0.024	n/a	GoodResponse	0	n/a	n/a	4	22	Cue	Neutral	True
216.775	4.0	Control	0.8695999999999999	0.0	Yes	2.776	0.001	n/a	GoodResponse	0	n/a	n/a	4	22	Fixation	Neutral	True
220.77	0.18	Control	0.8695999999999999	0.004	Yes	2.776	-0.004	2.0	GoodResponse	0	0.175	219.945	4	22	Target	Neutral	True
220.945	0.3	Control	0.8695999999999999	0.004	Yes	2.776	-0.004	2.0	GoodResponse	0	0.175	n/a	4	22	ButtonPress	Neutral	True
220.954	0.52	Control	0.8695999999999999	n/a	Yes	2.776	n/a	n/a	GoodResponse	0	n/a	n/a	4	22	Blank	Neutral	True
221.472	1.45	Control	0.8695999999999999	n/a	Yes	2.776	n/a	5.0	GoodResponse	0	0.014	220.486	4	22	Feedback	Neutral	True
222.927	2.776	Control	0.8695999999999999	n/a	Yes	2.776	n/a	n/a	GoodResponse	0	0.0	n/a	4	22	ISIslide	Neutral	True
225.718	0.25	Control	0.8332999999999999	0.001	No	2.782	0.018	n/a	NoResponse	0	n/a	n/a	4	23	Cue	Neutral	True
225.969	3.9	Control	0.8332999999999999	0.0	No	2.782	0.001	n/a	NoResponse	0	n/a	n/a	4	23	Fixation	Neutral	True
229.864	0.17	Control	0.8332999999999999	0.004	No	2.782	-0.004	2.0	NoResponse	0	0.251	229.115	4	23	Target	Neutral	True
230.048	0.53	Control	0.8332999999999999	n/a	No	2.782	n/a	n/a	NoResponse	0	n/a	n/a	4	23	Blank	Neutral	True
230.115	0.3	Control	0.8332999999999999	0.004	No	2.782	-0.004	2.0	NoResponse	0	0.251	n/a	4	23	ButtonPress	Neutral	True
230.566	1.45	Control	0.8332999999999999	n/a	No	2.782	n/a	5.0	NoResponse	0	0.042	229.608	4	23	Feedback	Neutral	True
232.021	2.782	Control	0.8332999999999999	n/a	No	2.782	n/a	n/a	NoResponse	0	0.0	n/a	4	23	ISIslide	Neutral	True
234.829	0.25	Win2	0.8	0.0	No	3.121	0.029	n/a	NoResponse	0	n/a	n/a	4	24	Cue	MissedWin	True
235.08	3.95	Win2	0.8	0.0	No	3.121	0.001	n/a	NoResponse	0	n/a	n/a	4	24	Fixation	MissedWin	True
239.025	0.16	Win2	0.8	0.004	No	3.121	-0.004	2.0	NoResponse	0	0.231	238.256	4	24	Target	MissedWin	True
239.192	0.54	Win2	0.8	n/a	No	3.121	n/a	n/a	NoResponse	0	n/a	n/a	4	24	Blank	MissedWin	True
239.256	0.3	Win2	0.8	0.004	No	3.121	-0.004	2.0	NoResponse	0	0.231	n/a	4	24	ButtonPress	MissedWin	True
239.727	1.45	Win2	0.8	n/a	No	3.121	n/a	5.0	NoResponse	0	0.007	238.734	4	24	Feedback	MissedWin	True
241.181	3.121	Win2	0.8	n/a	No	3.121	n/a	n/a	NoResponse	0	0.0	n/a	4	24	ISIslide	MissedWin	True
244.324	0.25	Win2	0.7692	0.0	No	3.076	0.024	n/a	NoResponse	0	n/a	n/a	4	25	Cue	MissedWin	True
244.575	4.0	Win2	0.7692	0.0	No	3.076	0.001	n/a	NoResponse	0	n/a	n/a	4	25	Fixation	MissedWin	True
248.57	0.15	Win2	0.7692	0.004	No	3.076	-0.004	2.0	NoResponse	0	0.209	247.779	4	25	Target	MissedWin	True
248.721	0.55	Win2	0.7692	n/a	No	3.076	n/a	n/a	NoResponse	0	n/a	n/a	4	25	Blank	MissedWin	True
248.779	0.3	Win2	0.7692	0.004	No	3.076	-0.004	2.0	NoResponse	0	0.209	n/a	4	25	ButtonPress	MissedWin	True
249.272	1.45	Win2	0.7692	n/a	No	3.076	n/a	5.0	NoResponse	0	0.018	248.29	4	25	Feedback	MissedWin	True
250.727	3.076	Win2	0.7692	n/a	No	3.076	n/a	n/a	NoResponse	0	0.0	n/a	4	25	ISIslide	MissedWin	True
253.819	0.25	Win2	0.7406999999999999	0.0	No	2.931	0.019	n/a	NoResponse	0	n/a	n/a	4	26	Cue	MissedWin	True
254.07	3.95	Win2	0.7406999999999999	0.0	No	2.931	0.001	2.0	NoResponse	0	3.575	256.645	4	26	Fixation	MissedWin	True
257.645	0.3	Win2	0.7406999999999999	0.0	No	2.931	0.001	2.0	NoResponse	0	3.575	n/a	4	26	ButtonPress	MissedWin	True
258.015	0.15	Win2	0.7406999999999999	0.004	No	2.931	-0.004	n/a	NoResponse	0	n/a	n/a	4	26	Target	MissedWin	True
258.165	0.55	Win2	0.7406999999999999	n/a	No	2.931	n/a	n/a	NoResponse	0	n/a	n/a	4	26	Blank	MissedWin	True
258.717	1.45	Win2	0.7406999999999999	n/a	No	2.931	n/a	5.0	NoResponse	0	0.036	257.753	4	26	Feedback	MissedWin	True
260.171	2.931	Win2	0.7406999999999999	n/a	No	2.931	n/a	n/a	NoResponse	0	0.0	n/a	4	26	ISIslide	MissedWin	True
263.13	0.25	Lose2	0.7143	0.0	No	2.82	0.03	n/a	NoResponse	-1	n/a	n/a	3	27	Cue	Loss	True
263.381	4.05	Lose2	0.7143	0.0	No	2.82	0.001	n/a	NoResponse	-1	n/a	n/a	3	27	Fixation	Loss	True
267.426	0.15	Lose2	0.7143	0.004	No	2.82	-0.004	2.0	NoResponse	-1	0.202	266.628	3	27	Target	Loss	True
267.577	0.55	Lose2	0.7143	n/a	No	2.82	n/a	n/a	NoResponse	-1	n/a	n/a	3	27	Blank	Loss	True
267.628	0.3	Lose2	0.7143	0.004	No	2.82	-0.004	2.0	NoResponse	-1	0.202	n/a	3	27	ButtonPress	Loss	True
268.129	1.45	Lose2	0.7143	n/a	No	2.82	n/a	5.0	NoResponse	-1	0.039	267.168	3	27	Feedback	Loss	True
269.583	2.82	Lose2	0.7143	n/a	No	2.82	n/a	n/a	NoResponse	-1	0.0	n/a	3	27	ISIslide	Loss	True
272.425	0.25	Control	0.6897	0.0	No	2.825	0.025	n/a	NoResponse	0	n/a	n/a	3	28	Cue	Neutral	True
272.675	4.05	Control	0.6897	0.001	No	2.825	0.0	n/a	NoResponse	0	n/a	n/a	3	28	Fixation	Neutral	True
276.721	0.15	Control	0.6897	0.004	No	2.825	-0.004	2.0	NoResponse	0	0.216	275.937	3	28	Target	Neutral	True
276.871	0.55	Control	0.6897	n/a	No	2.825	n/a	n/a	NoResponse	0	n/a	n/a	3	28	Blank	Neutral	True
276.937	0.3	Control	0.6897	0.004	No	2.825	-0.004	2.0	NoResponse	0	0.216	n/a	3	28	ButtonPress	Neutral	True
277.423	1.45	Control	0.6897	n/a	No	2.825	n/a	5.0	NoResponse	0	0.013	276.436	3	28	Feedback	Neutral	True
278.877	2.825	Control	0.6897	n/a	No	2.825	n/a	n/a	NoResponse	0	0.0	n/a	3	28	ISIslide	Neutral	True
281.719	0.25	Lose2	0.6667000000000001	0.0	No	2.831	0.019	n/a	NoResponse	-1	n/a	n/a	2	29	Cue	Loss	True
281.97	3.95	Lose2	0.6667000000000001	0.0	No	2.831	0.001	n/a	NoResponse	-1	n/a	n/a	2	29	Fixation	Loss	True
285.915	0.15	Lose2	0.6667000000000001	0.004	No	2.831	-0.004	2.0	NoResponse	-1	0.17	285.085	2	29	Target	Loss	True
286.066	0.55	Lose2	0.6667000000000001	n/a	No	2.831	n/a	n/a	NoResponse	-1	n/a	n/a	2	29	Blank	Loss	True
286.085	0.3	Lose2	0.6667000000000001	0.004	No	2.831	-0.004	2.0	NoResponse	-1	0.17	n/a	2	29	ButtonPress	Loss	True
286.617	1.45	Lose2	0.6667000000000001	n/a	No	2.831	n/a	5.0	NoResponse	-1	0.038	285.655	2	29	Feedback	Loss	True
288.072	2.831	Lose2	0.6667000000000001	n/a	No	2.831	n/a	n/a	NoResponse	-1	0.0	n/a	2	29	ISIslide	Loss	True
290.93	0.25	Win2	0.6452	0.0	No	2.77	0.03	n/a	NoResponse	0	n/a	n/a	2	30	Cue	MissedWin	True
291.181	3.9	Win2	0.6452	0.0	No	2.77	0.001	2.0	NoResponse	0	3.312	293.493	2	30	Fixation	MissedWin	True
294.493	0.3	Win2	0.6452	0.0	No	2.77	0.001	2.0	NoResponse	0	3.312	n/a	2	30	ButtonPress	MissedWin	True
295.076	0.15	Win2	0.6452	0.004	No	2.77	-0.004	n/a	NoResponse	0	n/a	n/a	2	30	Target	MissedWin	True
295.226	0.55	Win2	0.6452	n/a	No	2.77	n/a	n/a	NoResponse	0	n/a	n/a	2	30	Blank	MissedWin	True
295.778	1.45	Win2	0.6452	n/a	No	2.77	n/a	5.0	NoResponse	0	0.048	294.826	2	30	Feedback	MissedWin	True
297.232	2.77	Win2	0.6452	n/a	No	2.77	n/a	n/a	NoResponse	0	0.0	n/a	2	30	ISIslide	MissedWin	True
300.024	0.25	Lose2	0.625	0.0	No	2.826	0.024	n/a	NoResponse	-1	n/a	n/a	1	31	Cue	Loss	True
300.275	4.05	Lose2	0.625	0.0	No	2.826	0.001	n/a	NoResponse	-1	n/a	n/a	1	31	Fixation	Loss	True
304.32	0.16	Lose2	0.625	0.004	No	2.826	-0.004	2.0	NoResponse	-1	0.216	303.536	1	31	Target	Loss	True
304.487	0.54	Lose2	0.625	n/a	No	2.826	n/a	n/a	NoResponse	-1	n/a	n/a	1	31	Blank	Loss	True
304.536	0.3	Lose2	0.625	0.004	No	2.826	-0.004	2.0	NoResponse	-1	0.216	n/a	1	31	ButtonPress	Loss	True
305.022	1.45	Lose2	0.625	n/a	No	2.826	n/a	5.0	NoResponse	-1	0.023	304.045	1	31	Feedback	Loss	True
306.477	2.826	Lose2	0.625	n/a	No	2.826	n/a	n/a	NoResponse	-1	0.0	n/a	1	31	ISIslide	Loss	True
309.318	0.25	Lose2	0.6061	0.0	No	2.632	0.018	2.0	NoResponse	-1	0.243	308.561	0	32	Cue	Loss	False
309.561	0.3	Lose2	0.6061	0.0	No	2.632	0.018	2.0	NoResponse	-1	0.243	n/a	0	32	ButtonPress	Loss	False
309.569	4.15	Lose2	0.6061	0.0	No	2.632	0.001	n/a	NoResponse	-1	n/a	n/a	0	32	Fixation	Loss	False
313.715	0.17	Lose2	0.6061	0.003	No	2.632	-0.003	2.0	NoResponse	-1	0.211	312.926	0	32	Target	Loss	False
313.899	0.53	Lose2	0.6061	n/a	No	2.632	n/a	n/a	NoResponse	-1	n/a	n/a	0	32	Blank	Loss	False
313.926	0.3	Lose2	0.6061	0.003	No	2.632	-0.003	2.0	NoResponse	-1	0.211	n/a	0	32	ButtonPress	Loss	False
314.417	1.45	Lose2	0.6061	n/a	No	2.632	n/a	5.0	NoResponse	-1	0.043	313.46	0	32	Feedback	Loss	False
315.871	2.632	Lose2	0.6061	n/a	No	2.632	n/a	n/a	NoResponse	-1	0.0	n/a	0	32	ISIslide	Loss	False
318.529	0.25	Win2	0.5882000000000001	0.0	No	2.671	0.029	n/a	NoResponse	0	n/a	n/a	0	33	Cue	MissedWin	True
318.78	4.0	Win2	0.5882000000000001	0.0	No	2.671	0.001	n/a	NoResponse	0	n/a	n/a	0	33	Fixation	MissedWin	True
322.775	0.18	Win2	0.5882000000000001	0.004	No	2.671	-0.004	2.0	NoResponse	0	0.241	322.016	0	33	Target	MissedWin	True
322.959	0.52	Win2	0.5882000000000001	n/a	No	2.671	n/a	n/a	NoResponse	0	n/a	n/a	0	33	Blank	MissedWin	True
323.016	0.3	Win2	0.5882000000000001	0.004	No	2.671	-0.004	2.0	NoResponse	0	0.241	n/a	0	33	ButtonPress	MissedWin	True
323.477	1.45	Win2	0.5882000000000001	n/a	No	2.671	n/a	5.0	NoResponse	0	0.008	322.485	0	33	Feedback	MissedWin	True
324.932	2.671	Win2	0.5882000000000001	n/a	No	2.671	n/a	n/a	NoResponse	0	0.0	n/a	0	33	ISIslide	MissedWin	True
327.623	0.25	Lose2	0.5714	0.0	No	2.627	0.023	n/a	NoResponse	-1	n/a	n/a	-1	34	Cue	Loss	True
327.874	4.05	Lose2	0.5714	0.0	No	2.627	0.001	n/a	NoResponse	-1	n/a	n/a	-1	34	Fixation	Loss	True
331.919	0.19	Lose2	0.5714	0.004	No	2.627	-0.004	2.0	NoResponse	-1	0.201	331.12	-1	34	Target	Loss	True
332.12	0.51	Lose2	0.5714	n/a	No	2.627	n/a	n/a	NoResponse	-1	n/a	n/a	-1	34	Blank	Loss	True
332.12	0.3	Lose2	0.5714	0.004	No	2.627	-0.004	2.0	NoResponse	-1	0.201	n/a	-1	34	ButtonPress	Loss	True
332.621	1.45	Lose2	0.5714	n/a	No	2.627	n/a	5.0	NoResponse	-1	0.034	331.655	-1	34	Feedback	Loss	True
334.076	2.627	Lose2	0.5714	n/a	No	2.627	n/a	n/a	NoResponse	-1	0.0	n/a	-1	34	ISIslide	Loss	True
336.717	0.25	Lose2	0.5556	0.0	No	2.683	0.017	n/a	NoResponse	-1	n/a	n/a	-2	35	Cue	Loss	True
336.968	4.0	Lose2	0.5556	0.0	No	2.683	0.001	n/a	NoResponse	-1	n/a	n/a	-2	35	Fixation	Loss	True
340.963	0.2	Lose2	0.5556	0.004	No	2.683	-0.004	2.0	NoResponse	-1	0.302	340.265	-2	35	Target	Loss	True
341.164	0.5	Lose2	0.5556	n/a	No	2.683	n/a	n/a	NoResponse	-1	n/a	n/a	-2	35	Blank	Loss	True
341.265	0.3	Lose2	0.5556	0.004	No	2.683	-0.004	2.0	NoResponse	-1	0.302	n/a	-2	35	ButtonPress	Loss	True
341.665	1.45	Lose2	0.5556	n/a	No	2.683	n/a	5.0	NoResponse	-1	0.014	340.679	-2	35	Feedback	Loss	True
343.119	2.683	Lose2	0.5556	n/a	No	2.683	n/a	n/a	NoResponse	-1	0.0	n/a	-2	35	ISIslide	Loss	True
345.828	0.25	Control	0.5405	0.0	No	2.672	0.028	n/a	NoResponse	0	n/a	n/a	-2	36	Cue	Neutral	True
346.078	4.0	Control	0.5405	0.0	No	2.672	0.0	n/a	NoResponse	0	n/a	n/a	-2	36	Fixation	Neutral	True
350.074	0.21	Control	0.5405	0.004	No	2.672	-0.004	2.0	NoResponse	0	0.291	349.365	-2	36	Target	Neutral	True
350.291	0.49	Control	0.5405	n/a	No	2.672	n/a	n/a	NoResponse	0	n/a	n/a	-2	36	Blank	Neutral	True
350.365	0.3	Control	0.5405	0.004	No	2.672	-0.004	2.0	NoResponse	0	0.291	n/a	-2	36	ButtonPress	Neutral	True
350.776	1.45	Control	0.5405	n/a	No	2.672	n/a	5.0	NoResponse	0	0.025	349.801	-2	36	Feedback	Neutral	True
352.23	2.672	Control	0.5405	n/a	No	2.672	n/a	n/a	NoResponse	0	0.0	n/a	-2	36	ISIslide	Neutral	True
354.921	0.25	Win2	0.5526	0.001	Yes	2.879	0.021	n/a	GoodResponse	1	n/a	n/a	-1	37	Cue	Win	True
355.172	4.0	Win2	0.5526	0.0	Yes	2.879	0.001	n/a	GoodResponse	1	n/a	n/a	-1	37	Fixation	Win	True
359.167	0.22	Win2	0.5526	0.004	Yes	2.879	-0.004	2.0	GoodResponse	1	0.194	358.361	-1	37	Target	Win	True
359.361	0.3	Win2	0.5526	0.004	Yes	2.879	-0.004	2.0	GoodResponse	1	0.194	n/a	-1	37	ButtonPress	Win	True
359.401	0.48	Win2	0.5526	n/a	Yes	2.879	n/a	n/a	GoodResponse	1	n/a	n/a	-1	37	Blank	Win	True
359.87	1.45	Win2	0.5526	n/a	Yes	2.879	n/a	5.0	GoodResponse	1	0.006	358.876	-1	37	Feedback	Win	True
361.324	2.879	Win2	0.5526	n/a	Yes	2.879	n/a	n/a	GoodResponse	1	0.0	n/a	-1	37	ISIslide	Win	True
364.216	0.25	Lose2	0.5640999999999999	0.0	Yes	2.834	0.016	n/a	GoodResponse	0	n/a	n/a	-1	38	Cue	AvoidedLoss	True
364.467	3.95	Lose2	0.5640999999999999	0.0	Yes	2.834	0.001	n/a	GoodResponse	0	n/a	n/a	-1	38	Fixation	AvoidedLoss	True
368.412	0.23	Lose2	0.5640999999999999	0.004	Yes	2.834	-0.004	2.0	GoodResponse	0	0.221	367.633	-1	38	Target	AvoidedLoss	True
368.633	0.3	Lose2	0.5640999999999999	0.004	Yes	2.834	-0.004	2.0	GoodResponse	0	0.221	n/a	-1	38	ButtonPress	AvoidedLoss	True
368.646	0.47	Lose2	0.5640999999999999	n/a	Yes	2.834	n/a	n/a	GoodResponse	0	n/a	n/a	-1	38	Blank	AvoidedLoss	True
369.114	1.45	Lose2	0.5640999999999999	n/a	Yes	2.834	n/a	5.0	GoodResponse	0	0.029	368.143	-1	38	Feedback	AvoidedLoss	True
370.568	2.834	Lose2	0.5640999999999999	n/a	Yes	2.834	n/a	n/a	GoodResponse	0	0.0	n/a	-1	38	ISIslide	AvoidedLoss	True
373.427	0.25	Win2	0.575	0.0	Yes	2.973	0.027	n/a	GoodResponse	1	n/a	n/a	0	39	Cue	Win	True
373.677	4.1	Win2	0.575	0.001	Yes	2.973	0.0	n/a	GoodResponse	1	n/a	n/a	0	39	Fixation	Win	True
377.773	0.24	Win2	0.575	0.004	Yes	2.973	-0.004	2.0	GoodResponse	1	0.203	376.976	0	39	Target	Win	True
377.976	0.3	Win2	0.575	0.004	Yes	2.973	-0.004	2.0	GoodResponse	1	0.203	n/a	0	39	ButtonPress	Win	True
378.024	0.46	Win2	0.575	n/a	Yes	2.973	n/a	n/a	GoodResponse	1	n/a	n/a	0	39	Blank	Win	True
378.475	1.45	Win2	0.575	n/a	Yes	2.973	n/a	5.0	GoodResponse	1	0.033	377.508	0	39	Feedback	Win	True
379.93	2.973	Win2	0.575	n/a	Yes	2.973	n/a	n/a	GoodResponse	1	0.0	n/a	0	39	ISIslide	Win	True
382.922	0.25	Win2	0.5854	0.0	Yes	2.728	0.022	n/a	GoodResponse	1	n/a	n/a	1	40	Cue	Win	True
383.173	3.95	Win2	0.5854	0.0	Yes	2.728	0.001	n/a	GoodResponse	1	n/a	n/a	1	40	Fixation	Win	True
387.118	0.25	Win2	0.5854	0.004	Yes	2.728	-0.004	2.0	GoodResponse	1	0.242	386.36	1	40	Target	Win	True
387.36	0.3	Win2	0.5854	0.004	Yes	2.728	-0.004	2.0	GoodResponse	1	0.242	n/a	1	40	ButtonPress	Win	True
387.368	0.45	Win2	0.5854	n/a	Yes	2.728	n/a	n/a	GoodResponse	1	n/a	n/a	1	40	Blank	Win	True
387.82	1.45	Win2	0.5854	n/a	Yes	2.728	n/a	5.0	GoodResponse	1	0.008	386.828	1	40	Feedback	Win	True
389.274	2.728	Win2	0.5854	n/a	Yes	2.728	n/a	n/a	GoodResponse	1	0.0	n/a	1	40	ISIslide	Win	True
392.016	0.25	Win2	0.5952000000000001	0.0	Yes	2.784	0.016	n/a	GoodResponse	1	n/a	n/a	2	41	Cue	Win	True
392.266	3.9	Win2	0.5952000000000001	0.0	Yes	2.784	0.0	n/a	GoodResponse	1	n/a	n/a	2	41	Fixation	Win	True
396.178	0.26	Win2	0.5952000000000001	0.0	Yes	2.784	0.012	2.0	GoodResponse	1	0.182	395.36	2	41	Target	Win	True
396.36	0.3	Win2	0.5952000000000001	0.0	Yes	2.784	0.012	2.0	GoodResponse	1	0.182	n/a	2	41	ButtonPress	Win	True
396.429	0.44	Win2	0.5952000000000001	n/a	Yes	2.784	n/a	n/a	GoodResponse	1	n/a	n/a	2	41	Blank	Win	True
396.863	1.45	Win2	0.5952000000000001	n/a	Yes	2.784	n/a	5.0	GoodResponse	1	0.035	395.898	2	41	Feedback	Win	True
398.318	2.784	Win2	0.5952000000000001	n/a	Yes	2.784	n/a	n/a	GoodResponse	1	0.0	n/a	2	41	ISIslide	Win	True
401.126	0.25	Control	0.6047	0.0	Yes	2.924	0.026	n/a	GoodResponse	0	n/a	n/a	2	42	Cue	Neutral	True
401.377	3.85	Control	0.6047	0.0	Yes	2.924	0.001	n/a	GoodResponse	0	n/a	n/a	2	42	Fixation	Neutral	True
405.222	0.27	Control	0.6047	0.004	Yes	2.924	-0.004	2.0	GoodResponse	0	0.239	404.461	2	42	Target	Neutral	True
405.461	0.3	Control	0.6047	0.004	Yes	2.924	-0.004	2.0	GoodResponse	0	0.239	n/a	2	42	ButtonPress	Neutral	True
405.506	0.43	Control	0.6047	n/a	Yes	2.924	n/a	n/a	GoodResponse	0	n/a	n/a	2	42	Blank	Neutral	True
405.924	1.45	Control	0.6047	n/a	Yes	2.924	n/a	5.0	GoodResponse	0	0.047	404.971	2	42	Feedback	Neutral	True
407.378	2.924	Control	0.6047	n/a	Yes	2.924	n/a	n/a	GoodResponse	0	0.0	n/a	2	42	ISIslide	Neutral	True
410.32	0.25	Win2	0.6136	0.0	Yes	3.18	0.02	n/a	GoodResponse	1	n/a	n/a	3	43	Cue	Win	True
410.571	4.0	Win2	0.6136	0.0	Yes	3.18	0.001	n/a	GoodResponse	1	n/a	n/a	3	43	Fixation	Win	True
414.566	0.28	Win2	0.6136	0.004	Yes	3.18	-0.004	2.0	GoodResponse	1	0.23	413.796	3	43	Target	Win	True
414.796	0.3	Win2	0.6136	0.004	Yes	3.18	-0.004	2.0	GoodResponse	1	0.23	n/a	3	43	ButtonPress	Win	True
414.851	0.42	Win2	0.6136	n/a	Yes	3.18	n/a	n/a	GoodResponse	1	n/a	n/a	3	43	Blank	Win	True
415.268	1.45	Win2	0.6136	n/a	Yes	3.18	n/a	5.0	GoodResponse	1	0.02	414.288	3	43	Feedback	Win	True
416.723	3.18	Win2	0.6136	n/a	Yes	3.18	n/a	n/a	GoodResponse	1	0.0	n/a	3	43	ISIslide	Win	True
419.916	0.25	Win2	0.6	0.0	No	2.984	0.016	n/a	LatePress	0	n/a	n/a	3	44	Cue	MissedWin	True
420.166	4.0	Win2	0.6	0.001	No	2.984	0.0	n/a	LatePress	0	n/a	n/a	3	44	Fixation	MissedWin	True
424.162	0.29	Win2	0.6	0.004	No	2.984	-0.004	2.0	LatePress	0	0.293	423.455	3	44	Target	MissedWin	True
424.455	0.3	Win2	0.6	0.004	No	2.984	-0.004	2.0	LatePress	0	0.293	n/a	3	44	ButtonPress	MissedWin	True
424.463	0.41	Win2	0.6	n/a	No	2.984	n/a	n/a	LatePress	0	n/a	n/a	3	44	Blank	MissedWin	True
424.864	1.45	Win2	0.6	n/a	No	2.984	n/a	5.0	LatePress	0	0.034	423.898	3	44	Feedback	MissedWin	True
426.318	2.984	Win2	0.6	n/a	No	2.984	n/a	n/a	LatePress	0	0.0	n/a	3	44	ISIslide	MissedWin	True
429.327	0.25	Control	0.6087	0.0	Yes	2.873	0.027	n/a	GoodResponse	0	n/a	n/a	3	45	Cue	Neutral	True
429.578	4.1	Control	0.6087	0.0	Yes	2.873	0.001	n/a	GoodResponse	0	n/a	n/a	3	45	Fixation	Neutral	True
433.674	0.3	Control	0.6087	0.003	Yes	2.873	-0.003	2.0	GoodResponse	0	0.246	432.92	3	45	Target	Neutral	True
433.92	0.3	Control	0.6087	0.003	Yes	2.873	-0.003	2.0	GoodResponse	0	0.246	n/a	3	45	ButtonPress	Neutral	True
433.974	0.4	Control	0.6087	n/a	Yes	2.873	n/a	n/a	GoodResponse	0	n/a	n/a	3	45	Blank	Neutral	True
434.376	1.45	Control	0.6087	n/a	Yes	2.873	n/a	5.0	GoodResponse	0	0.034	433.41	3	45	Feedback	Neutral	True
435.83	2.873	Control	0.6087	n/a	Yes	2.873	n/a	n/a	GoodResponse	0	0.0	n/a	3	45	ISIslide	Neutral	True
438.722	0.25	Lose2	0.617	0.0	Yes	3.378	0.022	n/a	GoodResponse	0	n/a	n/a	3	46	Cue	AvoidedLoss	True
438.973	4.0	Lose2	0.617	0.0	Yes	3.378	0.001	n/a	GoodResponse	0	n/a	n/a	3	46	Fixation	AvoidedLoss	True
442.968	0.31	Lose2	0.617	0.004	Yes	3.378	-0.004	2.0	GoodResponse	0	0.203	442.171	3	46	Target	AvoidedLoss	True
443.171	0.3	Lose2	0.617	0.004	Yes	3.378	-0.004	2.0	GoodResponse	0	0.203	n/a	3	46	ButtonPress	AvoidedLoss	True
443.286	0.39	Lose2	0.617	n/a	Yes	3.378	n/a	n/a	GoodResponse	0	n/a	n/a	3	46	Blank	AvoidedLoss	True
443.67	1.45	Lose2	0.617	n/a	Yes	3.378	n/a	5.0	GoodResponse	0	0.008	442.678	3	46	Feedback	AvoidedLoss	True
445.124	3.378	Lose2	0.617	n/a	Yes	3.378	n/a	n/a	GoodResponse	0	0.0	n/a	3	46	ISIslide	AvoidedLoss	True
448.518	0.25	Lose2	0.625	0.0	Yes	2.682	0.018	n/a	GoodResponse	0	n/a	n/a	3	47	Cue	AvoidedLoss	True
448.769	4.0	Lose2	0.625	0.0	Yes	2.682	0.001	n/a	GoodResponse	0	n/a	n/a	3	47	Fixation	AvoidedLoss	True
452.764	0.32	Lose2	0.625	0.004	Yes	2.682	-0.004	2.0	GoodResponse	0	0.259	452.023	3	47	Target	AvoidedLoss	True
453.023	0.3	Lose2	0.625	0.004	Yes	2.682	-0.004	2.0	GoodResponse	0	0.259	n/a	3	47	ButtonPress	AvoidedLoss	True
453.098	0.38	Lose2	0.625	n/a	Yes	2.682	n/a	n/a	GoodResponse	0	n/a	n/a	3	47	Blank	AvoidedLoss	True
453.466	1.45	Lose2	0.625	n/a	Yes	2.682	n/a	5.0	GoodResponse	0	0.017	452.483	3	47	Feedback	AvoidedLoss	True
454.92	2.682	Lose2	0.625	n/a	Yes	2.682	n/a	n/a	GoodResponse	0	0.0	n/a	3	47	ISIslide	AvoidedLoss	True
457.628	0.25	Lose2	0.6327	0.001	Yes	3.022	0.028	n/a	GoodResponse	0	n/a	n/a	3	48	Cue	AvoidedLoss	True
457.879	3.95	Lose2	0.6327	0.0	Yes	3.022	0.001	n/a	GoodResponse	0	n/a	n/a	3	48	Fixation	AvoidedLoss	True
461.824	0.33	Lose2	0.6327	0.004	Yes	3.022	-0.004	2.0	GoodResponse	0	0.194	461.018	3	48	Target	AvoidedLoss	True
462.018	0.3	Lose2	0.6327	0.004	Yes	3.022	-0.004	2.0	GoodResponse	0	0.194	n/a	3	48	ButtonPress	AvoidedLoss	True
462.159	0.37	Lose2	0.6327	n/a	Yes	3.022	n/a	n/a	GoodResponse	0	n/a	n/a	3	48	Blank	AvoidedLoss	True
462.526	1.45	Lose2	0.6327	n/a	Yes	3.022	n/a	5.0	GoodResponse	0	0.029	461.555	3	48	Feedback	AvoidedLoss	True
463.981	3.022	Lose2	0.6327	n/a	Yes	3.022	n/a	n/a	GoodResponse	0	0.0	n/a	3	48	ISIslide	AvoidedLoss	True
467.023	0.25	Control	0.64	0.0	Yes	2.877	0.023	n/a	GoodResponse	0	n/a	n/a	3	49	Cue	Neutral	True
467.274	4.0	Control	0.64	0.0	Yes	2.877	0.001	n/a	GoodResponse	0	n/a	n/a	3	49	Fixation	Neutral	True
471.269	0.34	Control	0.64	0.004	Yes	2.877	-0.004	2.0	GoodResponse	0	0.211	470.48	3	49	Target	Neutral	True
471.48	0.3	Control	0.64	0.004	Yes	2.877	-0.004	2.0	GoodResponse	0	0.211	n/a	3	49	ButtonPress	Neutral	True
471.62	0.36	Control	0.64	n/a	Yes	2.877	n/a	n/a	GoodResponse	0	n/a	n/a	3	49	Blank	Neutral	True
471.971	1.45	Control	0.64	n/a	Yes	2.877	n/a	5.0	GoodResponse	0	0.048	471.019	3	49	Feedback	Neutral	True
473.426	2.877	Control	0.64	n/a	Yes	2.877	n/a	n/a	GoodResponse	0	0.0	n/a	3	49	ISIslide	Neutral	True
476.318	0.25	Control	0.6470999999999999	0.0	Yes	2.782	0.018	n/a	GoodResponse	0	n/a	n/a	3	50	Cue	Neutral	True
476.568	4.0	Control	0.6470999999999999	0.001	Yes	2.782	0.0	n/a	GoodResponse	0	n/a	n/a	3	50	Fixation	Neutral	True
480.564	0.35	Control	0.6470999999999999	0.004	Yes	2.782	-0.004	2.0	GoodResponse	0	0.334	479.898	3	50	Target	Neutral	True
480.898	0.3	Control	0.6470999999999999	0.004	Yes	2.782	-0.004	2.0	GoodResponse	0	0.334	n/a	3	50	ButtonPress	Neutral	True
480.915	0.35	Control	0.6470999999999999	n/a	Yes	2.782	n/a	n/a	GoodResponse	0	n/a	n/a	3	50	Blank	Neutral	True
481.266	1.45	Control	0.6470999999999999	n/a	Yes	2.782	n/a	5.0	GoodResponse	0	0.021	480.287	3	50	Feedback	Neutral	True
482.72	2.782	Control	0.6470999999999999	n/a	Yes	2.782	n/a	n/a	GoodResponse	0	0.0	n/a	3	50	ISIslide	Neutral	True
485.529	0.25	Control	0.6537999999999999	0.0	Yes	2.721	0.029	n/a	GoodResponse	0	n/a	n/a	3	51	Cue	Neutral	True
485.779	3.95	Control	0.6537999999999999	0.0	Yes	2.721	0.0	n/a	GoodResponse	0	n/a	n/a	3	51	Fixation	Neutral	True
489.741	0.36	Control	0.6537999999999999	0.0	Yes	2.721	0.012	2.0	GoodResponse	0	0.219	488.96	3	51	Target	Neutral	True
489.96	0.3	Control	0.6537999999999999	0.0	Yes	2.721	0.012	2.0	GoodResponse	0	0.219	n/a	3	51	ButtonPress	Neutral	True
490.092	0.34	Control	0.6537999999999999	n/a	Yes	2.721	n/a	n/a	GoodResponse	0	n/a	n/a	3	51	Blank	Neutral	True
490.427	1.45	Control	0.6537999999999999	n/a	Yes	2.721	n/a	5.0	GoodResponse	0	0.031	489.458	3	51	Feedback	Neutral	True
491.881	2.721	Control	0.6537999999999999	n/a	Yes	2.721	n/a	n/a	GoodResponse	0	0.0	n/a	3	51	ISIslide	Neutral	True
494.622	0.25	Control	0.6604000000000001	0.001	Yes	2.628	0.022	n/a	GoodResponse	0	n/a	n/a	3	52	Cue	Neutral	True
494.873	4.05	Control	0.6604000000000001	0.0	Yes	2.628	0.001	n/a	GoodResponse	0	n/a	n/a	3	52	Fixation	Neutral	True
498.919	0.37	Control	0.6604000000000001	0.003	Yes	2.628	-0.003	2.0	GoodResponse	0	0.196	498.115	3	52	Target	Neutral	True
499.115	0.3	Control	0.6604000000000001	0.003	Yes	2.628	-0.003	2.0	GoodResponse	0	0.196	n/a	3	52	ButtonPress	Neutral	True
499.303	0.33	Control	0.6604000000000001	n/a	Yes	2.628	n/a	n/a	GoodResponse	0	n/a	n/a	3	52	Blank	Neutral	True
499.621	1.45	Control	0.6604000000000001	n/a	Yes	2.628	n/a	5.0	GoodResponse	0	0.008	498.629	3	52	Feedback	Neutral	True
501.075	2.628	Control	0.6604000000000001	n/a	Yes	2.628	n/a	n/a	GoodResponse	0	0.0	n/a	3	52	ISIslide	Neutral	True
503.716	0.25	Win2	0.6667000000000001	0.0	Yes	2.934	0.016	n/a	GoodResponse	1	n/a	n/a	4	53	Cue	Win	True
503.967	4.05	Win2	0.6667000000000001	0.0	Yes	2.934	0.001	n/a	GoodResponse	1	n/a	n/a	4	53	Fixation	Win	True
508.012	0.37	Win2	0.6667000000000001	0.004	Yes	2.934	-0.004	2.0	GoodResponse	1	0.203	507.215	4	53	Target	Win	True
508.215	0.3	Win2	0.6667000000000001	0.004	Yes	2.934	-0.004	2.0	GoodResponse	1	0.203	n/a	4	53	ButtonPress	Win	True
508.397	0.33	Win2	0.6667000000000001	n/a	Yes	2.934	n/a	n/a	GoodResponse	1	n/a	n/a	4	53	Blank	Win	True
508.715	1.45	Win2	0.6667000000000001	n/a	Yes	2.934	n/a	5.0	GoodResponse	1	0.035	507.75	4	53	Feedback	Win	True
510.169	2.934	Win2	0.6667000000000001	n/a	Yes	2.934	n/a	n/a	GoodResponse	1	0.0	n/a	4	53	ISIslide	Win	True
513.128	0.25	Win2	0.6727	0.0	Yes	2.722	0.028	n/a	GoodResponse	1	n/a	n/a	5	54	Cue	Win	True
513.379	3.95	Win2	0.6727	0.0	Yes	2.722	0.001	n/a	GoodResponse	1	n/a	n/a	5	54	Fixation	Win	True
517.324	0.36	Win2	0.6727	0.004	Yes	2.722	-0.004	2.0	GoodResponse	1	0.23	516.554	5	54	Target	Win	True
517.554	0.3	Win2	0.6727	0.004	Yes	2.722	-0.004	2.0	GoodResponse	1	0.23	n/a	5	54	ButtonPress	Win	True
517.691	0.34	Win2	0.6727	n/a	Yes	2.722	n/a	n/a	GoodResponse	1	n/a	n/a	5	54	Blank	Win	True
518.026	1.45	Win2	0.6727	n/a	Yes	2.722	n/a	5.0	GoodResponse	1	0.041	517.067	5	54	Feedback	Win	True
519.48	2.722	Win2	0.6727	n/a	Yes	2.722	n/a	n/a	GoodResponse	1	0.0	n/a	5	54	ISIslide	Win	True
522.222	0.25	Control	0.6786	0.0	Yes	3.028	0.022	n/a	GoodResponse	0	n/a	n/a	5	55	Cue	Neutral	True
522.472	3.95	Control	0.6786	0.0	Yes	3.028	0.0	n/a	GoodResponse	0	n/a	n/a	5	55	Fixation	Neutral	True
526.417	0.35	Control	0.6786	0.005	Yes	3.028	-0.005	2.0	GoodResponse	0	0.269	525.686	5	55	Target	Neutral	True
526.686	0.3	Control	0.6786	0.005	Yes	3.028	-0.005	2.0	GoodResponse	0	0.269	n/a	5	55	ButtonPress	Neutral	True
526.769	0.35	Control	0.6786	n/a	Yes	3.028	n/a	n/a	GoodResponse	0	n/a	n/a	5	55	Blank	Neutral	True
527.12	1.45	Control	0.6786	n/a	Yes	3.028	n/a	5.0	GoodResponse	0	0.021	526.141	5	55	Feedback	Neutral	True
528.574	3.028	Control	0.6786	n/a	Yes	3.028	n/a	n/a	GoodResponse	0	0.0	n/a	5	55	ISIslide	Neutral	True
531.616	0.25	Control	0.6842	0.0	Yes	2.834	0.016	n/a	GoodResponse	0	n/a	n/a	5	56	Cue	Neutral	True
531.867	3.95	Control	0.6842	0.0	Yes	2.834	0.001	n/a	GoodResponse	0	n/a	n/a	5	56	Fixation	Neutral	True
535.812	0.34	Control	0.6842	0.004	Yes	2.834	-0.004	2.0	GoodResponse	0	0.261	535.073	5	56	Target	Neutral	True
536.073	0.3	Control	0.6842	0.004	Yes	2.834	-0.004	2.0	GoodResponse	0	0.261	n/a	5	56	ButtonPress	Neutral	True
536.163	0.36	Control	0.6842	n/a	Yes	2.834	n/a	n/a	GoodResponse	0	n/a	n/a	5	56	Blank	Neutral	True
536.514	1.45	Control	0.6842	n/a	Yes	2.834	n/a	5.0	GoodResponse	0	0.041	535.555	5	56	Feedback	Neutral	True
537.969	2.834	Control	0.6842	n/a	Yes	2.834	n/a	n/a	GoodResponse	0	0.0	n/a	5	56	ISIslide	Neutral	True
540.827	0.25	Control	0.6897	0.0	Yes	3.473	0.027	n/a	GoodResponse	0	n/a	n/a	5	57	Cue	Neutral	True
541.078	4.0	Control	0.6897	0.0	Yes	3.473	0.001	n/a	GoodResponse	0	n/a	n/a	5	57	Fixation	Neutral	True
545.073	0.33	Control	0.6897	0.004	Yes	3.473	-0.004	2.0	GoodResponse	0	0.196	544.269	5	57	Target	Neutral	True
545.269	0.3	Control	0.6897	0.004	Yes	3.473	-0.004	2.0	GoodResponse	0	0.196	n/a	5	57	ButtonPress	Neutral	True
545.408	0.37	Control	0.6897	n/a	Yes	3.473	n/a	n/a	GoodResponse	0	n/a	n/a	5	57	Blank	Neutral	True
545.775	1.45	Control	0.6897	n/a	Yes	3.473	n/a	5.0	GoodResponse	0	0.048	544.823	5	57	Feedback	Neutral	True
547.23	3.473	Control	0.6897	n/a	Yes	3.473	n/a	n/a	GoodResponse	0	0.0	n/a	5	57	ISIslide	Neutral	True
550.723	0.25	Win2	0.6949	0.001	Yes	2.727	0.023	n/a	GoodResponse	1	n/a	n/a	6	58	Cue	Win	True
550.974	4.05	Win2	0.6949	0.0	Yes	2.727	0.001	n/a	GoodResponse	1	n/a	n/a	6	58	Fixation	Win	True
555.02	0.32	Win2	0.6949	0.003	Yes	2.727	-0.003	2.0	GoodResponse	1	0.261	554.281	6	58	Target	Win	True
555.281	0.3	Win2	0.6949	0.003	Yes	2.727	-0.003	2.0	GoodResponse	1	0.261	n/a	6	58	ButtonPress	Win	True
555.354	0.38	Win2	0.6949	n/a	Yes	2.727	n/a	n/a	GoodResponse	1	n/a	n/a	6	58	Blank	Win	True
555.722	1.45	Win2	0.6949	n/a	Yes	2.727	n/a	5.0	GoodResponse	1	0.006	554.728	6	58	Feedback	Win	True
557.176	2.727	Win2	0.6949	n/a	Yes	2.727	n/a	n/a	GoodResponse	1	0.0	n/a	6	58	ISIslide	Win	True
559.918	0.25	Lose2	0.7	0.0	Yes	2.682	0.018	n/a	GoodResponse	0	n/a	n/a	6	59	Cue	AvoidedLoss	True
560.168	4.0	Lose2	0.7	0.001	Yes	2.682	0.0	n/a	GoodResponse	0	n/a	n/a	6	59	Fixation	AvoidedLoss	True
564.164	0.31	Lose2	0.7	0.004	Yes	2.682	-0.004	2.0	GoodResponse	0	0.236	563.4	6	59	Target	AvoidedLoss	True
564.4	0.3	Lose2	0.7	0.004	Yes	2.682	-0.004	2.0	GoodResponse	0	0.236	n/a	6	59	ButtonPress	AvoidedLoss	True
564.481	0.39	Lose2	0.7	n/a	Yes	2.682	n/a	n/a	GoodResponse	0	n/a	n/a	6	59	Blank	AvoidedLoss	True
564.866	1.45	Lose2	0.7	n/a	Yes	2.682	n/a	5.0	GoodResponse	0	0.03	563.896	6	59	Feedback	AvoidedLoss	True
566.32	2.682	Lose2	0.7	n/a	Yes	2.682	n/a	n/a	GoodResponse	0	0.0	n/a	6	59	ISIslide	AvoidedLoss	True
569.028	0.25	Control	0.6884999999999999	0.0	No	2.672	0.028	n/a	NoResponse	0	n/a	n/a	6	60	Cue	Neutral	True
569.279	4.0	Control	0.6884999999999999	0.0	No	2.672	0.001	n/a	NoResponse	0	n/a	n/a	6	60	Fixation	Neutral	True
573.274	0.3	Control	0.6884999999999999	0.004	No	2.672	-0.004	2.0	NoResponse	0	0.424	572.698	6	60	Target	Neutral	True
573.575	0.4	Control	0.6884999999999999	n/a	No	2.672	n/a	n/a	NoResponse	0	n/a	n/a	6	60	Blank	Neutral	True
573.698	0.3	Control	0.6884999999999999	0.004	No	2.672	-0.004	2.0	NoResponse	0	0.424	n/a	6	60	ButtonPress	Neutral	True
573.976	1.45	Control	0.6884999999999999	n/a	No	2.672	n/a	5.0	NoResponse	0	0.042	573.018	6	60	Feedback	Neutral	True
575.431	2.672	Control	0.6884999999999999	n/a	No	2.672	n/a	n/a	NoResponse	0	0.0	n/a	6	60	ISIslide	Neutral	True
578.122	0.25	Lose2	0.6934999999999999	0.0	Yes	2.978	0.022	n/a	GoodResponse	0	n/a	n/a	6	61	Cue	AvoidedLoss	False
578.373	4.0	Lose2	0.6934999999999999	0.0	Yes	2.978	0.001	2.0	GoodResponse	0	0.028	577.401	6	61	Fixation	AvoidedLoss	False
578.401	0.3	Lose2	0.6934999999999999	0.0	Yes	2.978	0.001	2.0	GoodResponse	0	0.028	n/a	6	61	ButtonPress	AvoidedLoss	False
582.368	0.29	Lose2	0.6934999999999999	0.004	Yes	2.978	-0.004	2.0	GoodResponse	0	0.237	581.605	6	61	Target	AvoidedLoss	False
582.605	0.3	Lose2	0.6934999999999999	0.004	Yes	2.978	-0.004	2.0	GoodResponse	0	0.237	n/a	6	61	ButtonPress	AvoidedLoss	False
582.669	0.41	Lose2	0.6934999999999999	n/a	Yes	2.978	n/a	n/a	GoodResponse	0	n/a	n/a	6	61	Blank	AvoidedLoss	False
583.07	1.45	Lose2	0.6934999999999999	n/a	Yes	2.978	n/a	5.0	GoodResponse	0	0.021	582.091	6	61	Feedback	AvoidedLoss	False
584.525	2.978	Lose2	0.6934999999999999	n/a	Yes	2.978	n/a	n/a	GoodResponse	0	0.0	n/a	6	61	ISIslide	AvoidedLoss	False
587.517	0.25	Lose2	0.6984	0.0	Yes	2.883	0.017	n/a	GoodResponse	0	n/a	n/a	6	62	Cue	AvoidedLoss	True
587.768	3.9	Lose2	0.6984	0.0	Yes	2.883	0.001	n/a	GoodResponse	0	n/a	n/a	6	62	Fixation	AvoidedLoss	True
591.663	0.28	Lose2	0.6984	0.004	Yes	2.883	-0.004	2.0	GoodResponse	0	0.203	590.866	6	62	Target	AvoidedLoss	True
591.866	0.3	Lose2	0.6984	0.004	Yes	2.883	-0.004	2.0	GoodResponse	0	0.203	n/a	6	62	ButtonPress	AvoidedLoss	True
591.947	0.42	Lose2	0.6984	n/a	Yes	2.883	n/a	n/a	GoodResponse	0	n/a	n/a	6	62	Blank	AvoidedLoss	True
592.365	1.45	Lose2	0.6984	n/a	Yes	2.883	n/a	5.0	GoodResponse	0	0.043	591.408	6	62	Feedback	AvoidedLoss	True
593.819	2.883	Lose2	0.6984	n/a	Yes	2.883	n/a	n/a	GoodResponse	0	0.0	n/a	6	62	ISIslide	AvoidedLoss	True
596.728	0.25	Lose2	0.7031000000000001	0.0	Yes	2.622	0.028	n/a	GoodResponse	0	n/a	n/a	6	63	Cue	AvoidedLoss	True
596.978	4.05	Lose2	0.7031000000000001	0.001	Yes	2.622	0.0	n/a	GoodResponse	0	n/a	n/a	6	63	Fixation	AvoidedLoss	True
601.024	0.27	Lose2	0.7031000000000001	0.004	Yes	2.622	-0.004	2.0	GoodResponse	0	0.241	600.265	6	63	Target	AvoidedLoss	True
601.265	0.3	Lose2	0.7031000000000001	0.004	Yes	2.622	-0.004	2.0	GoodResponse	0	0.241	n/a	6	63	ButtonPress	AvoidedLoss	True
601.308	0.43	Lose2	0.7031000000000001	n/a	Yes	2.622	n/a	n/a	GoodResponse	0	n/a	n/a	6	63	Blank	AvoidedLoss	True
601.726	1.45	Lose2	0.7031000000000001	n/a	Yes	2.622	n/a	5.0	GoodResponse	0	0.048	600.774	6	63	Feedback	AvoidedLoss	True
603.18	2.622	Lose2	0.7031000000000001	n/a	Yes	2.622	n/a	n/a	GoodResponse	0	0.0	n/a	6	63	ISIslide	AvoidedLoss	True
605.822	0.25	Win2	0.7077	0.0	Yes	3.128	0.022	n/a	GoodResponse	1	n/a	n/a	7	64	Cue	Win	True
606.072	4.15	Win2	0.7077	0.0	Yes	3.128	0.0	n/a	GoodResponse	1	n/a	n/a	7	64	Fixation	Win	True
610.218	0.26	Win2	0.7077	0.004	Yes	3.128	-0.004	2.0	GoodResponse	1	0.199	609.417	7	64	Target	Win	True
610.417	0.3	Win2	0.7077	0.004	Yes	3.128	-0.004	2.0	GoodResponse	1	0.199	n/a	7	64	ButtonPress	Win	True
610.486	0.44	Win2	0.7077	n/a	Yes	3.128	n/a	n/a	GoodResponse	1	n/a	n/a	7	64	Blank	Win	True
610.92	1.45	Win2	0.7077	n/a	Yes	3.128	n/a	5.0	GoodResponse	1	0.024	609.944	7	64	Feedback	Win	True
612.375	3.128	Win2	0.7077	n/a	Yes	3.128	n/a	n/a	GoodResponse	1	0.0	n/a	7	64	ISIslide	Win	True
615.517	0.25	Control	0.7121	0.0	Yes	2.783	0.017	n/a	GoodResponse	0	n/a	n/a	7	65	Cue	Neutral	True
615.768	4.0	Control	0.7121	0.0	Yes	2.783	0.001	n/a	GoodResponse	0	n/a	n/a	7	65	Fixation	Neutral	True
619.763	0.25	Control	0.7121	0.004	Yes	2.783	-0.004	2.0	GoodResponse	0	0.181	618.944	7	65	Target	Neutral	True
619.944	0.3	Control	0.7121	0.004	Yes	2.783	-0.004	2.0	GoodResponse	0	0.181	n/a	7	65	ButtonPress	Neutral	True
620.014	0.45	Control	0.7121	n/a	Yes	2.783	n/a	n/a	GoodResponse	0	n/a	n/a	7	65	Blank	Neutral	True
620.465	1.45	Control	0.7121	n/a	Yes	2.783	n/a	5.0	GoodResponse	0	0.041	619.506	7	65	Feedback	Neutral	True
621.92	2.783	Control	0.7121	n/a	Yes	2.783	n/a	n/a	GoodResponse	0	0.0	n/a	7	65	ISIslide	Neutral	True
624.728	0.25	Win2	0.7164	0.0	Yes	2.772	0.028	n/a	GoodResponse	1	n/a	n/a	8	66	Cue	Win	True
624.979	3.9	Win2	0.7164	0.0	Yes	2.772	0.001	n/a	GoodResponse	1	n/a	n/a	8	66	Fixation	Win	True
628.874	0.24	Win2	0.7164	0.004	Yes	2.772	-0.004	2.0	GoodResponse	1	0.223	628.097	8	66	Target	Win	True
629.097	0.3	Win2	0.7164	0.004	Yes	2.772	-0.004	2.0	GoodResponse	1	0.223	n/a	8	66	ButtonPress	Win	True
629.125	0.46	Win2	0.7164	n/a	Yes	2.772	n/a	n/a	GoodResponse	1	n/a	n/a	8	66	Blank	Win	True
629.576	1.45	Win2	0.7164	n/a	Yes	2.772	n/a	5.0	GoodResponse	1	0.007	628.583	8	66	Feedback	Win	True
631.03	2.772	Win2	0.7164	n/a	Yes	2.772	n/a	n/a	GoodResponse	1	0.0	n/a	8	66	ISIslide	Win	True
633.822	0.25	Control	0.7206	0.0	Yes	2.728	0.022	n/a	GoodResponse	0	n/a	n/a	8	67	Cue	Neutral	False
634.073	3.95	Control	0.7206	0.0	Yes	2.728	0.001	2.0	GoodResponse	0	0.04	633.113	8	67	Fixation	Neutral	False
634.113	0.3	Control	0.7206	0.0	Yes	2.728	0.001	2.0	GoodResponse	0	0.04	n/a	8	67	ButtonPress	Neutral	False
638.018	0.23	Control	0.7206	0.004	Yes	2.728	-0.004	2.0	GoodResponse	0	0.229	637.247	8	67	Target	Neutral	False
638.247	0.3	Control	0.7206	0.004	Yes	2.728	-0.004	2.0	GoodResponse	0	0.229	n/a	8	67	ButtonPress	Neutral	False
638.252	0.47	Control	0.7206	n/a	Yes	2.728	n/a	n/a	GoodResponse	0	n/a	n/a	8	67	Blank	Neutral	False
638.72	1.45	Control	0.7206	n/a	Yes	2.728	n/a	5.0	GoodResponse	0	0.029	637.749	8	67	Feedback	Neutral	False
640.174	2.728	Control	0.7206	n/a	Yes	2.728	n/a	n/a	GoodResponse	0	0.0	n/a	8	67	ISIslide	Neutral	False
642.916	0.25	Win2	0.7245999999999999	0.0	Yes	3.084	0.016	n/a	GoodResponse	1	n/a	n/a	9	68	Cue	Win	True
643.167	4.0	Win2	0.7245999999999999	0.0	Yes	3.084	0.001	n/a	GoodResponse	1	n/a	n/a	9	68	Fixation	Win	True
647.162	0.22	Win2	0.7245999999999999	0.004	Yes	3.084	-0.004	2.0	GoodResponse	1	0.202	646.364	9	68	Target	Win	True
647.364	0.3	Win2	0.7245999999999999	0.004	Yes	3.084	-0.004	2.0	GoodResponse	1	0.202	n/a	9	68	ButtonPress	Win	True
647.396	0.48	Win2	0.7245999999999999	n/a	Yes	3.084	n/a	n/a	GoodResponse	1	n/a	n/a	9	68	Blank	Win	True
647.864	1.45	Win2	0.7245999999999999	n/a	Yes	3.084	n/a	5.0	GoodResponse	1	0.007	646.871	9	68	Feedback	Win	True
649.318	3.084	Win2	0.7245999999999999	n/a	Yes	3.084	n/a	n/a	GoodResponse	1	0.0	n/a	9	68	ISIslide	Win	True
652.428	0.25	Win2	0.7143	0.0	No	3.222	0.028	n/a	NoResponse	0	n/a	n/a	9	69	Cue	MissedWin	True
652.678	3.95	Win2	0.7143	0.0	No	3.222	0.0	n/a	NoResponse	0	n/a	n/a	9	69	Fixation	MissedWin	True
656.64	0.21	Win2	0.7143	0.0	No	3.222	0.012	2.0	NoResponse	0	0.345	655.985	9	69	Target	MissedWin	True
656.841	0.49	Win2	0.7143	n/a	No	3.222	n/a	n/a	NoResponse	0	n/a	n/a	9	69	Blank	MissedWin	True
656.985	0.3	Win2	0.7143	0.0	No	3.222	0.012	2.0	NoResponse	0	0.345	n/a	9	69	ButtonPress	MissedWin	True
657.326	1.45	Win2	0.7143	n/a	No	3.222	n/a	5.0	NoResponse	0	0.008	656.334	9	69	Feedback	MissedWin	True
658.78	3.222	Win2	0.7143	n/a	No	3.222	n/a	n/a	NoResponse	0	0.0	n/a	9	69	ISIslide	MissedWin	True
662.023	0.25	Lose2	0.7042	0.0	No	3.027	0.023	n/a	NoResponse	-1	n/a	n/a	8	70	Cue	Loss	True
662.274	4.05	Lose2	0.7042	0.0	No	3.027	0.001	n/a	NoResponse	-1	n/a	n/a	8	70	Fixation	Loss	True
666.319	0.2	Lose2	0.7042	0.004	No	3.027	-0.004	2.0	NoResponse	-1	0.3	665.619	8	70	Target	Loss	True
666.52	0.5	Lose2	0.7042	n/a	No	3.027	n/a	n/a	NoResponse	-1	n/a	n/a	8	70	Blank	Loss	True
666.619	0.3	Lose2	0.7042	0.004	No	3.027	-0.004	2.0	NoResponse	-1	0.3	n/a	8	70	ButtonPress	Loss	True
667.021	1.45	Lose2	0.7042	n/a	No	3.027	n/a	5.0	NoResponse	-1	0.021	666.042	8	70	Feedback	Loss	True
668.476	3.027	Lose2	0.7042	n/a	No	3.027	n/a	n/a	NoResponse	-1	0.0	n/a	8	70	ISIslide	Loss	True
671.518	0.25	Win2	0.6944	0.0	No	2.732	0.018	n/a	LatePress	0	n/a	n/a	8	71	Cue	MissedWin	True
671.769	4.05	Win2	0.6944	0.0	No	2.732	0.001	n/a	LatePress	0	n/a	n/a	8	71	Fixation	MissedWin	True
675.814	0.19	Win2	0.6944	0.004	No	2.732	-0.004	2.0	LatePress	0	0.192	675.006	8	71	Target	MissedWin	True
676.006	0.3	Win2	0.6944	0.004	No	2.732	-0.004	2.0	LatePress	0	0.192	n/a	8	71	ButtonPress	MissedWin	True
676.015	0.51	Win2	0.6944	n/a	No	2.732	n/a	n/a	LatePress	0	n/a	n/a	8	71	Blank	MissedWin	True
676.516	1.45	Win2	0.6944	n/a	No	2.732	n/a	5.0	LatePress	0	0.037	675.553	8	71	Feedback	MissedWin	True
677.971	2.732	Win2	0.6944	n/a	No	2.732	n/a	n/a	LatePress	0	0.0	n/a	8	71	ISIslide	MissedWin	True
680.729	0.25	Win2	0.6849	0.0	No	2.771	0.029	n/a	NoResponse	0	n/a	n/a	8	72	Cue	MissedWin	True
680.98	4.1	Win2	0.6849	0.0	No	2.771	0.001	n/a	NoResponse	0	n/a	n/a	8	72	Fixation	MissedWin	True
685.075	0.18	Win2	0.6849	0.004	No	2.771	-0.004	2.0	NoResponse	0	0.206	684.281	8	72	Target	MissedWin	True
685.259	0.52	Win2	0.6849	n/a	No	2.771	n/a	n/a	NoResponse	0	n/a	n/a	8	72	Blank	MissedWin	True
685.281	0.3	Win2	0.6849	0.004	No	2.771	-0.004	2.0	NoResponse	0	0.206	n/a	8	72	ButtonPress	MissedWin	True
685.777	1.45	Win2	0.6849	n/a	No	2.771	n/a	5.0	NoResponse	0	0.044	684.821	8	72	Feedback	MissedWin	True
687.232	2.771	Win2	0.6849	n/a	No	2.771	n/a	n/a	NoResponse	0	0.0	n/a	8	72	ISIslide	MissedWin	True
690.023	0.25	Win2	0.6757	0.0	No	2.677	0.023	n/a	NoResponse	0	n/a	n/a	8	73	Cue	MissedWin	True
690.274	4.0	Win2	0.6757	0.0	No	2.677	0.001	n/a	NoResponse	0	n/a	n/a	8	73	Fixation	MissedWin	True
694.269	0.17	Win2	0.6757	0.004	No	2.677	-0.004	2.0	NoResponse	0	0.237	693.506	8	73	Target	MissedWin	True
694.453	0.53	Win2	0.6757	n/a	No	2.677	n/a	n/a	NoResponse	0	n/a	n/a	8	73	Blank	MissedWin	True
694.506	0.3	Win2	0.6757	0.004	No	2.677	-0.004	2.0	NoResponse	0	0.237	n/a	8	73	ButtonPress	MissedWin	True
694.971	1.45	Win2	0.6757	n/a	No	2.677	n/a	5.0	NoResponse	0	0.021	693.992	8	73	Feedback	MissedWin	True
696.426	2.677	Win2	0.6757	n/a	No	2.677	n/a	n/a	NoResponse	0	0.0	n/a	8	73	ISIslide	MissedWin	True
699.117	0.25	Lose2	0.68	0.0	Yes	2.633	0.017	n/a	GoodResponse	0	n/a	n/a	8	74	Cue	AvoidedLoss	True
699.368	4.05	Lose2	0.68	0.0	Yes	2.633	0.001	n/a	GoodResponse	0	n/a	n/a	8	74	Fixation	AvoidedLoss	True
703.413	0.16	Lose2	0.68	0.004	Yes	2.633	-0.004	2.0	GoodResponse	0	0.15	702.563	8	74	Target	AvoidedLoss	True
703.563	0.3	Lose2	0.68	0.004	Yes	2.633	-0.004	2.0	GoodResponse	0	0.15	n/a	8	74	ButtonPress	AvoidedLoss	True
703.581	0.54	Lose2	0.68	n/a	Yes	2.633	n/a	n/a	GoodResponse	0	n/a	n/a	8	74	Blank	AvoidedLoss	True
704.115	1.45	Lose2	0.68	n/a	Yes	2.633	n/a	5.0	GoodResponse	0	0.048	703.163	8	74	Feedback	AvoidedLoss	True
705.57	2.633	Lose2	0.68	n/a	Yes	2.633	n/a	n/a	GoodResponse	0	0.0	n/a	8	74	ISIslide	AvoidedLoss	True
708.228	0.25	Lose2	0.6711	0.0	No	2.922	0.028	n/a	NoResponse	-1	n/a	n/a	7	75	Cue	Loss	True
708.479	3.95	Lose2	0.6711	0.0	No	2.922	0.001	n/a	NoResponse	-1	n/a	n/a	7	75	Fixation	Loss	True
712.424	0.15	Lose2	0.6711	0.004	No	2.922	-0.004	2.0	NoResponse	-1	0.237	711.661	7	75	Target	Loss	True
712.574	0.55	Lose2	0.6711	n/a	No	2.922	n/a	n/a	NoResponse	-1	n/a	n/a	7	75	Blank	Loss	True
712.661	0.3	Lose2	0.6711	0.004	No	2.922	-0.004	2.0	NoResponse	-1	0.237	n/a	7	75	ButtonPress	Loss	True
713.126	1.45	Lose2	0.6711	n/a	No	2.922	n/a	5.0	NoResponse	-1	0.013	712.139	7	75	Feedback	Loss	True
714.58	2.922	Lose2	0.6711	n/a	No	2.922	n/a	n/a	NoResponse	-1	0.0	n/a	7	75	ISIslide	Loss	True
717.522	0.25	Control	0.6623	0.0	No	3.228	0.022	n/a	NoResponse	0	n/a	n/a	7	76	Cue	Neutral	True
717.773	4.05	Control	0.6623	0.0	No	3.228	0.001	n/a	NoResponse	0	n/a	n/a	7	76	Fixation	Neutral	True
721.818	0.15	Control	0.6623	0.004	No	3.228	-0.004	2.0	NoResponse	0	0.215	721.033	7	76	Target	Neutral	True
721.969	0.55	Control	0.6623	n/a	No	3.228	n/a	n/a	NoResponse	0	n/a	n/a	7	76	Blank	Neutral	True
722.033	0.3	Control	0.6623	0.004	No	3.228	-0.004	2.0	NoResponse	0	0.215	n/a	7	76	ButtonPress	Neutral	True
722.52	1.45	Control	0.6623	n/a	No	3.228	n/a	5.0	NoResponse	0	0.033	721.553	7	76	Feedback	Neutral	True
723.975	3.228	Control	0.6623	n/a	No	3.228	n/a	n/a	NoResponse	0	0.0	n/a	7	76	ISIslide	Neutral	True
727.218	0.25	Lose2	0.6537999999999999	0.0	No	2.582	0.018	n/a	NoResponse	-1	n/a	n/a	6	77	Cue	Loss	True
727.469	3.95	Lose2	0.6537999999999999	0.0	No	2.582	0.001	n/a	NoResponse	-1	n/a	n/a	6	77	Fixation	Loss	True
731.414	0.15	Lose2	0.6537999999999999	0.004	No	2.582	-0.004	2.0	NoResponse	-1	0.174	730.588	6	77	Target	Loss	True
731.564	0.55	Lose2	0.6537999999999999	n/a	No	2.582	n/a	n/a	NoResponse	-1	n/a	n/a	6	77	Blank	Loss	True
731.588	0.3	Lose2	0.6537999999999999	0.004	No	2.582	-0.004	2.0	NoResponse	-1	0.174	n/a	6	77	ButtonPress	Loss	True
732.116	1.45	Lose2	0.6537999999999999	n/a	No	2.582	n/a	5.0	NoResponse	-1	0.046	731.162	6	77	Feedback	Loss	True
733.57	2.582	Lose2	0.6537999999999999	n/a	No	2.582	n/a	n/a	NoResponse	-1	0.0	n/a	6	77	ISIslide	Loss	True
