onset	duration	cue_type	current_mean_accuracy	duration_error	is_hit	isi_adjusted	onset_delay	response	response_type	reward	rt	rt_time	total_reward	trial_number	trial_phase	trial_type	one_press
11.097	0.25	Control	1.0	0.0	Yes	2.953	-0.003	n/a	GoodResponse	0	n/a	n/a	0	0	Cue	Neutral	True
11.347	3.85	Control	1.0	0.0	Yes	2.953	0.0	n/a	GoodResponse	0	n/a	n/a	0	0	Fixation	Neutral	True
15.196	0.4	Control	1.0	0.001	Yes	2.953	-0.001	2.0	GoodResponse	0	0.189	14.385	0	0	Target	Neutral	True
15.385	0.3	Control	1.0	0.001	Yes	2.953	-0.001	2.0	GoodResponse	0	0.189	n/a	0	0	ButtonPress	Neutral	True
15.596	0.3	Control	1.0	n/a	Yes	2.953	n/a	n/a	GoodResponse	0	n/a	n/a	0	0	Blank	Neutral	True
15.895	1.45	Control	1.0	n/a	Yes	2.953	n/a	5.0	GoodResponse	0	0.032	14.927	0	0	Feedback	Neutral	True
17.345	2.953	Control	1.0	n/a	Yes	2.953	n/a	n/a	GoodResponse	0	0.0	n/a	0	0	ISIslide	Neutral	True
20.327	0.25	Lose2	1.0	0.0	Yes	2.773	0.027	n/a	GoodResponse	0	n/a	n/a	0	1	Cue	AvoidedLoss	True
20.577	4.0	Lose2	1.0	0.0	Yes	2.773	0.0	n/a	GoodResponse	0	n/a	n/a	0	1	Fixation	AvoidedLoss	True
24.576	0.39	Lose2	1.0	0.001	Yes	2.773	-0.001	2.0	GoodResponse	0	0.199	23.775	0	1	Target	AvoidedLoss	True
24.775	0.3	Lose2	1.0	0.001	Yes	2.773	-0.001	2.0	GoodResponse	0	0.199	n/a	0	1	ButtonPress	AvoidedLoss	True
24.976	0.31	Lose2	1.0	n/a	Yes	2.773	n/a	n/a	GoodResponse	0	n/a	n/a	0	1	Blank	AvoidedLoss	True
25.276	1.45	Lose2	1.0	n/a	Yes	2.773	n/a	5.0	GoodResponse	0	0.017	24.293	0	1	Feedback	AvoidedLoss	True
26.725	2.773	Lose2	1.0	n/a	Yes	2.773	n/a	n/a	GoodResponse	0	0.0	n/a	0	1	ISIslide	AvoidedLoss	True
29.524	0.25	Control	1.0	0.0	Yes	2.576	0.024	n/a	GoodResponse	0	n/a	n/a	0	2	Cue	Neutral	True
29.774	4.1	Control	1.0	0.0	Yes	2.576	0.0	n/a	GoodResponse	0	n/a	n/a	0	2	Fixation	Neutral	True
33.873	0.38	Control	1.0	0.001	Yes	2.576	-0.001	2.0	GoodResponse	0	0.217	33.09	0	2	Target	Neutral	True
34.09	0.3	Control	1.0	0.001	Yes	2.576	-0.001	2.0	GoodResponse	0	0.217	n/a	0	2	ButtonPress	Neutral	True
34.256	0.32	Control	1.0	n/a	Yes	2.576	n/a	n/a	GoodResponse	0	n/a	n/a	0	2	Blank	Neutral	True
34.572	1.45	Control	1.0	n/a	Yes	2.576	n/a	5.0	GoodResponse	0	0.038	33.61	0	2	Feedback	Neutral	True
36.022	2.576	Control	1.0	n/a	Yes	2.576	n/a	n/a	GoodResponse	0	0.0	n/a	0	2	ISIslide	Neutral	True
38.621	0.25	Win2	1.0	0.0	Yes	2.829	0.021	n/a	GoodResponse	1	n/a	n/a	1	3	Cue	Win	True
38.871	3.95	Win2	1.0	0.0	Yes	2.829	0.0	n/a	GoodResponse	1	n/a	n/a	1	3	Fixation	Win	True
42.819	0.37	Win2	1.0	0.002	Yes	2.829	-0.002	2.0	GoodResponse	1	0.239	42.058	1	3	Target	Win	True
43.058	0.3	Win2	1.0	0.002	Yes	2.829	-0.002	2.0	GoodResponse	1	0.239	n/a	1	3	ButtonPress	Win	True
43.203	0.33	Win2	1.0	n/a	Yes	2.829	n/a	n/a	GoodResponse	1	n/a	n/a	1	3	Blank	Win	True
43.519	1.45	Win2	1.0	n/a	Yes	2.829	n/a	5.0	GoodResponse	1	0.017	42.536	1	3	Feedback	Win	True
44.969	2.829	Win2	1.0	n/a	Yes	2.829	n/a	n/a	GoodResponse	1	0.0	n/a	1	3	ISIslide	Win	True
47.818	0.25	Win2	1.0	0.0	Yes	3.282	0.018	n/a	GoodResponse	1	n/a	n/a	2	4	Cue	Win	True
48.068	4.0	Win2	1.0	0.0	Yes	3.282	0.0	n/a	GoodResponse	1	n/a	n/a	2	4	Fixation	Win	True
52.066	0.36	Win2	1.0	0.002	Yes	3.282	-0.002	2.0	GoodResponse	1	0.233	51.299	2	4	Target	Win	True
52.299	0.3	Win2	1.0	0.002	Yes	3.282	-0.002	2.0	GoodResponse	1	0.233	n/a	2	4	ButtonPress	Win	True
52.433	0.34	Win2	1.0	n/a	Yes	3.282	n/a	n/a	GoodResponse	1	n/a	n/a	2	4	Blank	Win	True
52.766	1.45	Win2	1.0	n/a	Yes	3.282	n/a	5.0	GoodResponse	1	0.038	51.804	2	4	Feedback	Win	True
54.215	3.282	Win2	1.0	n/a	Yes	3.282	n/a	n/a	GoodResponse	1	0.0	n/a	2	4	ISIslide	Win	True
57.514	0.25	Win2	1.0	0.0	Yes	2.786	0.014	n/a	GoodResponse	1	n/a	n/a	3	5	Cue	Win	True
57.764	4.0	Win2	1.0	0.0	Yes	2.786	0.0	n/a	GoodResponse	1	n/a	n/a	3	5	Fixation	Win	True
61.763	0.35	Win2	1.0	0.001	Yes	2.786	-0.001	2.0	GoodResponse	1	0.2	60.963	3	5	Target	Win	True
61.963	0.3	Win2	1.0	0.001	Yes	2.786	-0.001	2.0	GoodResponse	1	0.2	n/a	3	5	ButtonPress	Win	True
62.113	0.35	Win2	1.0	n/a	Yes	2.786	n/a	n/a	GoodResponse	1	n/a	n/a	3	5	Blank	Win	True
62.463	1.45	Win2	1.0	n/a	Yes	2.786	n/a	5.0	GoodResponse	1	0.0	61.463	3	5	Feedback	Win	True
63.912	2.786	Win2	1.0	n/a	Yes	2.786	n/a	n/a	GoodResponse	1	0.0	n/a	3	5	ISIslide	Win	True
66.728	0.25	Lose2	1.0	0.0	Yes	2.722	0.028	n/a	GoodResponse	0	n/a	n/a	3	6	Cue	AvoidedLoss	True
66.978	3.95	Lose2	1.0	0.0	Yes	2.722	0.0	n/a	GoodResponse	0	n/a	n/a	3	6	Fixation	AvoidedLoss	True
70.926	0.34	Lose2	1.0	0.002	Yes	2.722	-0.002	2.0	GoodResponse	0	0.249	70.175	3	6	Target	AvoidedLoss	True
71.175	0.3	Lose2	1.0	0.002	Yes	2.722	-0.002	2.0	GoodResponse	0	0.249	n/a	3	6	ButtonPress	AvoidedLoss	True
71.276	0.36	Lose2	1.0	n/a	Yes	2.722	n/a	n/a	GoodResponse	0	n/a	n/a	3	6	Blank	AvoidedLoss	True
71.626	1.45	Lose2	1.0	n/a	Yes	2.722	n/a	5.0	GoodResponse	0	0.008	70.634	3	6	Feedback	AvoidedLoss	True
73.076	2.722	Lose2	1.0	n/a	Yes	2.722	n/a	n/a	GoodResponse	0	0.0	n/a	3	6	ISIslide	AvoidedLoss	True
75.825	0.25	Lose2	1.0	0.0	Yes	4.025	0.025	n/a	GoodResponse	0	n/a	n/a	3	7	Cue	AvoidedLoss	True
76.075	4.05	Lose2	1.0	0.0	Yes	4.025	0.0	n/a	GoodResponse	0	n/a	n/a	3	7	Fixation	AvoidedLoss	True
80.123	0.33	Lose2	1.0	0.002	Yes	4.025	-0.002	2.0	GoodResponse	0	0.199	79.322	3	7	Target	AvoidedLoss	True
80.322	0.3	Lose2	1.0	0.002	Yes	4.025	-0.002	2.0	GoodResponse	0	0.199	n/a	3	7	ButtonPress	AvoidedLoss	True
80.456	0.37	Lose2	1.0	n/a	Yes	4.025	n/a	n/a	GoodResponse	0	n/a	n/a	3	7	Blank	AvoidedLoss	True
80.823	1.45	Lose2	1.0	n/a	Yes	4.025	n/a	5.0	GoodResponse	0	0.03	79.853	3	7	Feedback	AvoidedLoss	True
82.272	4.025	Lose2	1.0	n/a	Yes	4.025	n/a	n/a	GoodResponse	0	0.0	n/a	3	7	ISIslide	AvoidedLoss	True
86.321	0.25	Lose2	1.0	0.0	Yes	3.029	0.021	n/a	GoodResponse	0	n/a	n/a	3	8	Cue	AvoidedLoss	True
86.571	3.95	Lose2	1.0	0.0	Yes	3.029	0.0	n/a	GoodResponse	0	n/a	n/a	3	8	Fixation	AvoidedLoss	True
90.519	0.32	Lose2	1.0	0.002	Yes	3.029	-0.002	2.0	GoodResponse	0	0.27	89.789	3	8	Target	AvoidedLoss	True
90.789	0.3	Lose2	1.0	0.002	Yes	3.029	-0.002	2.0	GoodResponse	0	0.27	n/a	3	8	ButtonPress	AvoidedLoss	True
90.853	0.38	Lose2	1.0	n/a	Yes	3.029	n/a	n/a	GoodResponse	0	n/a	n/a	3	8	Blank	AvoidedLoss	True
91.219	1.45	Lose2	1.0	n/a	Yes	3.029	n/a	5.0	GoodResponse	0	0.025	90.244	3	8	Feedback	AvoidedLoss	True
92.669	3.029	Lose2	1.0	n/a	Yes	3.029	n/a	n/a	GoodResponse	0	0.0	n/a	3	8	ISIslide	AvoidedLoss	True
95.718	0.25	Lose2	1.0	0.0	Yes	3.132	0.018	n/a	GoodResponse	0	n/a	n/a	3	9	Cue	AvoidedLoss	True
95.968	3.95	Lose2	1.0	0.0	Yes	3.132	0.0	n/a	GoodResponse	0	n/a	n/a	3	9	Fixation	AvoidedLoss	True
99.916	0.31	Lose2	1.0	0.002	Yes	3.132	-0.002	2.0	GoodResponse	0	0.226	99.142	3	9	Target	AvoidedLoss	True
100.142	0.3	Lose2	1.0	0.002	Yes	3.132	-0.002	2.0	GoodResponse	0	0.226	n/a	3	9	ButtonPress	AvoidedLoss	True
100.233	0.39	Lose2	1.0	n/a	Yes	3.132	n/a	n/a	GoodResponse	0	n/a	n/a	3	9	Blank	AvoidedLoss	True
100.616	1.45	Lose2	1.0	n/a	Yes	3.132	n/a	5.0	GoodResponse	0	0.041	99.657	3	9	Feedback	AvoidedLoss	True
102.065	3.132	Lose2	1.0	n/a	Yes	3.132	n/a	n/a	GoodResponse	0	0.0	n/a	3	9	ISIslide	AvoidedLoss	True
105.214	0.25	Control	1.0	0.0	Yes	3.286	0.014	n/a	GoodResponse	0	n/a	n/a	3	10	Cue	Neutral	True
105.464	4.0	Control	1.0	0.0	Yes	3.286	0.0	n/a	GoodResponse	0	n/a	n/a	3	10	Fixation	Neutral	True
109.463	0.3	Control	1.0	0.001	Yes	3.286	-0.001	2.0	GoodResponse	0	0.206	108.669	3	10	Target	Neutral	True
109.669	0.3	Control	1.0	0.001	Yes	3.286	-0.001	2.0	GoodResponse	0	0.206	n/a	3	10	ButtonPress	Neutral	True
109.763	0.4	Control	1.0	n/a	Yes	3.286	n/a	n/a	GoodResponse	0	n/a	n/a	3	10	Blank	Neutral	True
110.163	1.45	Control	1.0	n/a	Yes	3.286	n/a	5.0	GoodResponse	0	0.007	109.17	3	10	Feedback	Neutral	True
111.612	3.286	Control	1.0	n/a	Yes	3.286	n/a	n/a	GoodResponse	0	0.0	n/a	3	10	ISIslide	Neutral	True
114.928	0.25	Lose2	1.0	0.0	Yes	2.722	0.028	n/a	GoodResponse	0	n/a	n/a	3	11	Cue	AvoidedLoss	True
115.178	4.05	Lose2	1.0	0.0	Yes	2.722	0.0	n/a	GoodResponse	0	n/a	n/a	3	11	Fixation	AvoidedLoss	True
119.226	0.29	Lose2	1.0	0.002	Yes	2.722	-0.002	2.0	GoodResponse	0	0.267	118.493	3	11	Target	AvoidedLoss	True
119.493	0.3	Lose2	1.0	0.002	Yes	2.722	-0.002	2.0	GoodResponse	0	0.267	n/a	3	11	ButtonPress	AvoidedLoss	True
119.526	0.41	Lose2	1.0	n/a	Yes	2.722	n/a	n/a	GoodResponse	0	n/a	n/a	3	11	Blank	AvoidedLoss	True
119.926	1.45	Lose2	1.0	n/a	Yes	2.722	n/a	5.0	GoodResponse	0	0.001	118.927	3	11	Feedback	AvoidedLoss	True
121.375	2.722	Lose2	1.0	n/a	Yes	2.722	n/a	n/a	GoodResponse	0	0.0	n/a	3	11	ISIslide	AvoidedLoss	True
124.124	0.25	Control	1.0	0.001	Yes	2.976	0.024	n/a	GoodResponse	0	n/a	n/a	3	12	Cue	Neutral	True
124.374	3.9	Control	1.0	0.0	Yes	2.976	0.0	n/a	GoodResponse	0	n/a	n/a	3	12	Fixation	Neutral	True
128.273	0.28	Control	1.0	0.001	Yes	2.976	-0.001	2.0	GoodResponse	0	0.207	127.48	3	12	Target	Neutral	True
128.48	0.3	Control	1.0	0.001	Yes	2.976	-0.001	2.0	GoodResponse	0	0.207	n/a	3	12	ButtonPress	Neutral	True
128.556	0.42	Control	1.0	n/a	Yes	2.976	n/a	n/a	GoodResponse	0	n/a	n/a	3	12	Blank	Neutral	True
128.973	1.45	Control	1.0	n/a	Yes	2.976	n/a	5.0	GoodResponse	0	0.026	127.999	3	12	Feedback	Neutral	True
130.422	2.976	Control	1.0	n/a	Yes	2.976	n/a	n/a	GoodResponse	0	0.0	n/a	3	12	ISIslide	Neutral	True
133.421	0.25	Control	0.9286	0.0	No	2.779	0.021	n/a	NoResponse	0	n/a	n/a	3	13	Cue	Neutral	True
133.671	4.0	Control	0.9286	0.0	No	2.779	0.0	n/a	NoResponse	0	n/a	n/a	3	13	Fixation	Neutral	True
137.67	0.27	Control	0.9286	0.001	No	2.779	-0.001	2.0	NoResponse	0	0.291	136.961	3	13	Target	Neutral	True
137.953	0.43	Control	0.9286	n/a	No	2.779	n/a	n/a	NoResponse	0	n/a	n/a	3	13	Blank	Neutral	True
137.961	0.3	Control	0.9286	0.001	No	2.779	-0.001	2.0	NoResponse	0	0.291	n/a	3	13	ButtonPress	Neutral	True
138.369	1.45	Control	0.9286	n/a	No	2.779	n/a	5.0	NoResponse	0	0.045	137.414	3	13	Feedback	Neutral	True
139.819	2.779	Control	0.9286	n/a	No	2.779	n/a	n/a	NoResponse	0	0.0	n/a	3	13	ISIslide	Neutral	True
142.618	0.25	Win2	0.9333	0.0	Yes	2.682	0.018	n/a	GoodResponse	1	n/a	n/a	4	14	Cue	Win	False
142.868	4.1	Win2	0.9333	0.0	Yes	2.682	0.0	2.0	GoodResponse	1	3.475	145.343	4	14	Fixation	Win	False
146.343	0.3	Win2	0.9333	0.0	Yes	2.682	0.0	2.0	GoodResponse	1	3.475	n/a	4	14	ButtonPress	Win	False
146.966	0.26	Win2	0.9333	0.002	Yes	2.682	-0.002	2.0	GoodResponse	1	0.193	146.159	4	14	Target	Win	False
147.159	0.3	Win2	0.9333	0.002	Yes	2.682	-0.002	2.0	GoodResponse	1	0.193	n/a	4	14	ButtonPress	Win	False
147.233	0.44	Win2	0.9333	n/a	Yes	2.682	n/a	n/a	GoodResponse	1	n/a	n/a	4	14	Blank	Win	False
147.666	1.45	Win2	0.9333	n/a	Yes	2.682	n/a	5.0	GoodResponse	1	0.015	146.681	4	14	Feedback	Win	False
149.116	2.682	Win2	0.9333	n/a	Yes	2.682	n/a	n/a	GoodResponse	1	0.0	n/a	4	14	ISIslide	Win	False
151.815	0.25	Control	0.875	0.0	No	2.985	0.015	n/a	NoResponse	0	n/a	n/a	4	15	Cue	Neutral	True
152.065	4.0	Control	0.875	0.0	No	2.985	0.0	n/a	NoResponse	0	n/a	n/a	4	15	Fixation	Neutral	True
156.063	0.25	Control	0.875	0.002	No	2.985	-0.002	2.0	NoResponse	0	0.368	155.431	4	15	Target	Neutral	True
156.313	0.45	Control	0.875	n/a	No	2.985	n/a	n/a	NoResponse	0	n/a	n/a	4	15	Blank	Neutral	True
156.431	0.3	Control	0.875	0.002	No	2.985	-0.002	2.0	NoResponse	0	0.368	n/a	4	15	ButtonPress	Neutral	True
156.763	1.45	Control	0.875	n/a	No	2.985	n/a	5.0	NoResponse	0	0.0	155.763	4	15	Feedback	Neutral	True
158.213	2.985	Control	0.875	n/a	No	2.985	n/a	n/a	NoResponse	0	0.0	n/a	4	15	ISIslide	Neutral	True
161.228	0.25	Win2	0.8824	0.0	Yes	2.872	0.028	n/a	GoodResponse	1	n/a	n/a	5	16	Cue	Win	True
161.478	4.0	Win2	0.8824	0.0	Yes	2.872	0.0	n/a	GoodResponse	1	n/a	n/a	5	16	Fixation	Win	True
165.477	0.24	Win2	0.8824	0.001	Yes	2.872	-0.001	2.0	GoodResponse	1	0.188	164.665	5	16	Target	Win	True
165.665	0.3	Win2	0.8824	0.001	Yes	2.872	-0.001	2.0	GoodResponse	1	0.188	n/a	5	16	ButtonPress	Win	True
165.727	0.46	Win2	0.8824	n/a	Yes	2.872	n/a	n/a	GoodResponse	1	n/a	n/a	5	16	Blank	Win	True
166.176	1.45	Win2	0.8824	n/a	Yes	2.872	n/a	5.0	GoodResponse	1	0.042	165.218	5	16	Feedback	Win	True
167.626	2.872	Win2	0.8824	n/a	Yes	2.872	n/a	n/a	GoodResponse	1	0.0	n/a	5	16	ISIslide	Win	True
170.525	0.25	Lose2	0.8889	0.0	Yes	2.725	0.025	n/a	GoodResponse	0	n/a	n/a	5	17	Cue	AvoidedLoss	True
170.775	3.95	Lose2	0.8889	0.0	Yes	2.725	0.0	n/a	GoodResponse	0	n/a	n/a	5	17	Fixation	AvoidedLoss	True
174.723	0.23	Lose2	0.8889	0.002	Yes	2.725	-0.002	2.0	GoodResponse	0	0.215	173.938	5	17	Target	AvoidedLoss	True
174.938	0.3	Lose2	0.8889	0.002	Yes	2.725	-0.002	2.0	GoodResponse	0	0.215	n/a	5	17	ButtonPress	AvoidedLoss	True
174.957	0.47	Lose2	0.8889	n/a	Yes	2.725	n/a	n/a	GoodResponse	0	n/a	n/a	5	17	Blank	AvoidedLoss	True
175.423	1.45	Lose2	0.8889	n/a	Yes	2.725	n/a	5.0	GoodResponse	0	0.015	174.438	5	17	Feedback	AvoidedLoss	True
176.873	2.725	Lose2	0.8889	n/a	Yes	2.725	n/a	n/a	GoodResponse	0	0.0	n/a	5	17	ISIslide	AvoidedLoss	True
179.622	0.25	Lose2	0.8421	0.0	No	2.728	0.022	n/a	LatePress	-1	n/a	n/a	4	18	Cue	Loss	True
179.872	4.05	Lose2	0.8421	0.0	No	2.728	0.0	n/a	LatePress	-1	n/a	n/a	4	18	Fixation	Loss	True
183.92	0.22	Lose2	0.8421	0.002	No	2.728	-0.002	2.0	LatePress	-1	0.231	183.151	4	18	Target	Loss	True
184.151	0.3	Lose2	0.8421	0.002	No	2.728	-0.002	2.0	LatePress	-1	0.231	n/a	4	18	ButtonPress	Loss	True
184.153	0.48	Lose2	0.8421	n/a	No	2.728	n/a	n/a	LatePress	-1	n/a	n/a	4	18	Blank	Loss	True
184.62	1.45	Lose2	0.8421	n/a	No	2.728	n/a	5.0	LatePress	-1	0.037	183.657	4	18	Feedback	Loss	True
186.069	2.728	Lose2	0.8421	n/a	No	2.728	n/a	n/a	LatePress	-1	0.0	n/a	4	18	ISIslide	Loss	True
188.818	0.25	Control	0.8	0.001	No	2.932	0.018	n/a	NoResponse	0	n/a	n/a	4	19	Cue	Neutral	True
189.068	3.95	Control	0.8	0.001	No	2.932	0.0	n/a	NoResponse	0	n/a	n/a	4	19	Fixation	Neutral	True
193.017	0.21	Control	0.8	0.001	No	2.932	-0.001	2.0	NoResponse	0	0.225	192.242	4	19	Target	Neutral	True
193.234	0.49	Control	0.8	n/a	No	2.932	n/a	n/a	NoResponse	0	n/a	n/a	4	19	Blank	Neutral	True
193.242	0.3	Control	0.8	0.001	No	2.932	-0.001	2.0	NoResponse	0	0.225	n/a	4	19	ButtonPress	Neutral	True
193.717	1.45	Control	0.8	n/a	No	2.932	n/a	5.0	NoResponse	0	0.013	192.73	4	19	Feedback	Neutral	True
195.166	2.932	Control	0.8	n/a	No	2.932	n/a	2.0	NoResponse	0	0.637	n/a	4	19	ISIslide	Neutral	True
198.099	0.25	Control	0.8095	0.0	Yes	2.651	-0.001	n/a	GoodResponse	0	n/a	n/a	4	20	Cue	Neutral	False
198.349	4.05	Control	0.8095	0.0	Yes	2.651	0.0	2.0	GoodResponse	0	2.757	200.106	4	20	Fixation	Neutral	False
201.106	0.3	Control	0.8095	0.0	Yes	2.651	0.0	2.0	GoodResponse	0	2.757	n/a	4	20	ButtonPress	Neutral	False
202.397	0.2	Control	0.8095	0.002	Yes	2.651	-0.002	2.0	GoodResponse	0	0.196	201.593	4	20	Target	Neutral	False
202.593	0.3	Control	0.8095	0.002	Yes	2.651	-0.002	2.0	GoodResponse	0	0.196	n/a	4	20	ButtonPress	Neutral	False
202.597	0.5	Control	0.8095	n/a	Yes	2.651	n/a	n/a	GoodResponse	0	n/a	n/a	4	20	Blank	Neutral	False
203.097	1.45	Control	0.8095	n/a	Yes	2.651	n/a	5.0	GoodResponse	0	0.047	202.144	4	20	Feedback	Neutral	False
204.546	2.651	Control	0.8095	n/a	Yes	2.651	n/a	n/a	GoodResponse	0	0.0	n/a	4	20	ISIslide	Neutral	False
207.229	0.25	Control	0.7726999999999999	0.0	No	2.771	0.029	n/a	LatePress	0	n/a	n/a	4	21	Cue	Neutral	True
207.479	4.1	Control	0.7726999999999999	0.0	No	2.771	0.0	n/a	LatePress	0	n/a	n/a	4	21	Fixation	Neutral	True
211.577	0.19	Control	0.7726999999999999	0.002	No	2.771	-0.002	2.0	LatePress	0	0.195	210.772	4	21	Target	Neutral	True
211.772	0.3	Control	0.7726999999999999	0.002	No	2.771	-0.002	2.0	LatePress	0	0.195	n/a	4	21	ButtonPress	Neutral	True
211.777	0.51	Control	0.7726999999999999	n/a	No	2.771	n/a	n/a	LatePress	0	n/a	n/a	4	21	Blank	Neutral	True
212.277	1.45	Control	0.7726999999999999	n/a	No	2.771	n/a	5.0	LatePress	0	0.038	211.315	4	21	Feedback	Neutral	True
213.726	2.771	Control	0.7726999999999999	n/a	No	2.771	n/a	n/a	LatePress	0	0.0	n/a	4	21	ISIslide	Neutral	True
216.526	0.25	Control	0.7391	0.0	No	2.774	0.026	n/a	NoResponse	0	n/a	n/a	4	22	Cue	Neutral	True
216.775	4.0	Control	0.7391	0.001	No	2.774	-0.001	n/a	NoResponse	0	n/a	n/a	4	22	Fixation	Neutral	True
220.774	0.18	Control	0.7391	0.002	No	2.774	-0.002	2.0	NoResponse	0	0.257	220.031	4	22	Target	Neutral	True
220.957	0.52	Control	0.7391	n/a	No	2.774	n/a	n/a	NoResponse	0	n/a	n/a	4	22	Blank	Neutral	True
221.031	0.3	Control	0.7391	0.002	No	2.774	-0.002	2.0	NoResponse	0	0.257	n/a	4	22	ButtonPress	Neutral	True
221.474	1.45	Control	0.7391	n/a	No	2.774	n/a	5.0	NoResponse	0	0.012	220.486	4	22	Feedback	Neutral	True
222.923	2.774	Control	0.7391	n/a	No	2.774	n/a	n/a	NoResponse	0	0.0	n/a	4	22	ISIslide	Neutral	True
225.722	0.25	Control	0.7082999999999999	0.0	No	2.778	0.022	n/a	NoResponse	0	n/a	n/a	4	23	Cue	Neutral	True
225.972	3.9	Control	0.7082999999999999	0.0	No	2.778	0.0	n/a	NoResponse	0	n/a	n/a	4	23	Fixation	Neutral	True
229.871	0.17	Control	0.7082999999999999	0.001	No	2.778	-0.001	2.0	NoResponse	0	0.197	229.068	4	23	Target	Neutral	True
230.037	0.53	Control	0.7082999999999999	n/a	No	2.778	n/a	n/a	NoResponse	0	n/a	n/a	4	23	Blank	Neutral	True
230.068	0.3	Control	0.7082999999999999	0.001	No	2.778	-0.001	2.0	NoResponse	0	0.197	n/a	4	23	ButtonPress	Neutral	True
230.571	1.45	Control	0.7082999999999999	n/a	No	2.778	n/a	5.0	NoResponse	0	0.037	229.608	4	23	Feedback	Neutral	True
232.02	2.778	Control	0.7082999999999999	n/a	No	2.778	n/a	n/a	NoResponse	0	0.0	n/a	4	23	ISIslide	Neutral	True
234.819	0.25	Win2	0.68	0.0	No	3.131	0.019	n/a	NoResponse	0	n/a	n/a	4	24	Cue	MissedWin	True
235.069	3.95	Win2	0.68	0.0	No	3.131	0.0	n/a	NoResponse	0	n/a	n/a	4	24	Fixation	MissedWin	True
239.018	0.16	Win2	0.68	0.001	No	3.131	-0.001	2.0	NoResponse	0	0.198	238.216	4	24	Target	MissedWin	True
239.184	0.54	Win2	0.68	n/a	No	3.131	n/a	n/a	NoResponse	0	n/a	n/a	4	24	Blank	MissedWin	True
239.216	0.3	Win2	0.68	0.001	No	3.131	-0.001	2.0	NoResponse	0	0.198	n/a	4	24	ButtonPress	MissedWin	True
239.717	1.45	Win2	0.68	n/a	No	3.131	n/a	5.0	NoResponse	0	0.013	238.73	4	24	Feedback	MissedWin	True
241.167	3.131	Win2	0.68	n/a	No	3.131	n/a	n/a	NoResponse	0	0.0	n/a	4	24	ISIslide	MissedWin	True
244.316	0.25	Win2	0.6537999999999999	0.0	No	3.084	0.016	n/a	NoResponse	0	n/a	n/a	4	25	Cue	MissedWin	True
244.566	4.0	Win2	0.6537999999999999	0.0	No	3.084	0.0	n/a	NoResponse	0	n/a	n/a	4	25	Fixation	MissedWin	True
248.564	0.15	Win2	0.6537999999999999	0.002	No	3.084	-0.002	2.0	NoResponse	0	0.192	247.756	4	25	Target	MissedWin	True
248.714	0.55	Win2	0.6537999999999999	n/a	No	3.084	n/a	n/a	NoResponse	0	n/a	n/a	4	25	Blank	MissedWin	True
248.756	0.3	Win2	0.6537999999999999	0.002	No	3.084	-0.002	2.0	NoResponse	0	0.192	n/a	4	25	ButtonPress	MissedWin	True
249.264	1.45	Win2	0.6537999999999999	n/a	No	3.084	n/a	5.0	NoResponse	0	0.026	248.29	4	25	Feedback	MissedWin	True
250.714	3.084	Win2	0.6537999999999999	n/a	No	3.084	n/a	n/a	NoResponse	0	0.0	n/a	4	25	ISIslide	MissedWin	True
253.829	0.25	Win2	0.6296	0.0	No	2.921	0.029	n/a	NoResponse	0	n/a	n/a	4	26	Cue	MissedWin	True
254.079	3.95	Win2	0.6296	0.0	No	2.921	0.0	n/a	NoResponse	0	n/a	n/a	4	26	Fixation	MissedWin	True
258.028	0.16	Win2	0.6296	0.001	No	2.921	-0.001	2.0	NoResponse	0	0.176	257.204	4	26	Target	MissedWin	True
258.194	0.54	Win2	0.6296	n/a	No	2.921	n/a	n/a	NoResponse	0	n/a	n/a	4	26	Blank	MissedWin	True
258.204	0.3	Win2	0.6296	0.001	No	2.921	-0.001	2.0	NoResponse	0	0.176	n/a	4	26	ButtonPress	MissedWin	True
258.727	1.45	Win2	0.6296	n/a	No	2.921	n/a	5.0	NoResponse	0	0.027	257.754	4	26	Feedback	MissedWin	True
260.177	2.921	Win2	0.6296	n/a	No	2.921	n/a	n/a	NoResponse	0	0.0	n/a	4	26	ISIslide	MissedWin	True
263.126	0.25	Lose2	0.6071	0.0	No	2.824	0.026	n/a	NoResponse	-1	n/a	n/a	3	27	Cue	Loss	True
263.376	4.05	Lose2	0.6071	0.0	No	2.824	0.0	n/a	NoResponse	-1	n/a	n/a	3	27	Fixation	Loss	True
267.424	0.17	Lose2	0.6071	0.002	No	2.824	-0.002	2.0	NoResponse	-1	0.2	266.624	3	27	Target	Loss	True
267.608	0.53	Lose2	0.6071	n/a	No	2.824	n/a	n/a	NoResponse	-1	n/a	n/a	3	27	Blank	Loss	True
267.624	0.3	Lose2	0.6071	0.002	No	2.824	-0.002	2.0	NoResponse	-1	0.2	n/a	3	27	ButtonPress	Loss	True
268.124	1.45	Lose2	0.6071	n/a	No	2.824	n/a	5.0	NoResponse	-1	0.045	267.169	3	27	Feedback	Loss	True
269.574	2.824	Lose2	0.6071	n/a	No	2.824	n/a	n/a	NoResponse	-1	0.0	n/a	3	27	ISIslide	Loss	True
272.423	0.25	Control	0.5861999999999999	0.0	No	2.827	0.023	n/a	NoResponse	0	n/a	n/a	3	28	Cue	Neutral	True
272.673	4.05	Control	0.5861999999999999	0.0	No	2.827	0.0	n/a	NoResponse	0	n/a	n/a	3	28	Fixation	Neutral	True
276.721	0.18	Control	0.5861999999999999	0.002	No	2.827	-0.002	2.0	NoResponse	0	0.342	276.063	3	28	Target	Neutral	True
276.904	0.52	Control	0.5861999999999999	n/a	No	2.827	n/a	n/a	NoResponse	0	n/a	n/a	3	28	Blank	Neutral	True
277.063	0.3	Control	0.5861999999999999	0.002	No	2.827	-0.002	2.0	NoResponse	0	0.342	n/a	3	28	ButtonPress	Neutral	True
277.421	1.45	Control	0.5861999999999999	n/a	No	2.827	n/a	5.0	NoResponse	0	0.016	276.437	3	28	Feedback	Neutral	True
278.87	2.827	Control	0.5861999999999999	n/a	No	2.827	n/a	n/a	NoResponse	0	0.0	n/a	3	28	ISIslide	Neutral	True
281.719	0.25	Lose2	0.5667	0.001	No	2.831	0.019	n/a	PrematurePress	-1	n/a	n/a	2	29	Cue	Loss	True
281.969	3.95	Lose2	0.5667	0.0	No	2.831	0.0	n/a	PrematurePress	-1	n/a	n/a	2	29	Fixation	Loss	True
285.918	0.19	Lose2	0.5667	0.001	No	2.831	-0.001	2.0	PrematurePress	-1	0.035	284.953	2	29	Target	Loss	True
285.953	0.3	Lose2	0.5667	0.001	No	2.831	-0.001	2.0	PrematurePress	-1	0.035	n/a	2	29	ButtonPress	Loss	True
286.118	0.51	Lose2	0.5667	n/a	No	2.831	n/a	n/a	PrematurePress	-1	n/a	n/a	2	29	Blank	Loss	True
286.618	1.45	Lose2	0.5667	n/a	No	2.831	n/a	5.0	PrematurePress	-1	0.039	285.657	2	29	Feedback	Loss	True
288.067	2.831	Lose2	0.5667	n/a	No	2.831	n/a	n/a	PrematurePress	-1	0.0	n/a	2	29	ISIslide	Loss	True
290.916	0.25	Win2	0.5484	0.0	No	2.784	0.016	n/a	PrematurePress	0	n/a	n/a	2	30	Cue	MissedWin	True
291.166	3.9	Win2	0.5484	0.0	No	2.784	0.0	n/a	PrematurePress	0	n/a	n/a	2	30	Fixation	MissedWin	True
295.065	0.2	Win2	0.5484	0.001	No	2.784	-0.001	2.0	PrematurePress	0	0.026	294.091	2	30	Target	MissedWin	True
295.091	0.3	Win2	0.5484	0.001	No	2.784	-0.001	2.0	PrematurePress	0	0.026	n/a	2	30	ButtonPress	MissedWin	True
295.265	0.5	Win2	0.5484	n/a	No	2.784	n/a	n/a	PrematurePress	0	n/a	n/a	2	30	Blank	MissedWin	True
295.765	1.45	Win2	0.5484	n/a	No	2.784	n/a	5.0	PrematurePress	0	0.013	294.778	2	30	Feedback	MissedWin	True
297.214	2.784	Win2	0.5484	n/a	No	2.784	n/a	n/a	PrematurePress	0	0.0	n/a	2	30	ISIslide	MissedWin	True
300.03	0.25	Lose2	0.5625	0.0	Yes	2.82	0.03	n/a	GoodResponse	0	n/a	n/a	2	31	Cue	AvoidedLoss	True
300.28	4.05	Lose2	0.5625	0.0	Yes	2.82	0.0	n/a	GoodResponse	0	n/a	n/a	2	31	Fixation	AvoidedLoss	True
304.328	0.21	Lose2	0.5625	0.002	Yes	2.82	-0.002	2.0	GoodResponse	0	0.183	303.511	2	31	Target	AvoidedLoss	True
304.511	0.3	Lose2	0.5625	0.002	Yes	2.82	-0.002	2.0	GoodResponse	0	0.183	n/a	2	31	ButtonPress	AvoidedLoss	True
304.545	0.49	Lose2	0.5625	n/a	Yes	2.82	n/a	n/a	GoodResponse	0	n/a	n/a	2	31	Blank	AvoidedLoss	True
305.028	1.45	Lose2	0.5625	n/a	Yes	2.82	n/a	5.0	GoodResponse	0	0.018	304.046	2	31	Feedback	AvoidedLoss	True
306.477	2.82	Lose2	0.5625	n/a	Yes	2.82	n/a	n/a	GoodResponse	0	0.0	n/a	2	31	ISIslide	AvoidedLoss	True
309.326	0.25	Lose2	0.5758	0.001	Yes	2.624	0.026	n/a	GoodResponse	0	n/a	n/a	2	32	Cue	AvoidedLoss	True
309.576	4.15	Lose2	0.5758	0.0	Yes	2.624	0.0	n/a	GoodResponse	0	n/a	n/a	2	32	Fixation	AvoidedLoss	True
313.725	0.22	Lose2	0.5758	0.001	Yes	2.624	-0.001	2.0	GoodResponse	0	0.206	312.931	2	32	Target	AvoidedLoss	True
313.931	0.3	Lose2	0.5758	0.001	Yes	2.624	-0.001	2.0	GoodResponse	0	0.206	n/a	2	32	ButtonPress	AvoidedLoss	True
313.942	0.48	Lose2	0.5758	n/a	Yes	2.624	n/a	n/a	GoodResponse	0	n/a	n/a	2	32	Blank	AvoidedLoss	True
314.425	1.45	Lose2	0.5758	n/a	Yes	2.624	n/a	5.0	GoodResponse	0	0.036	313.461	2	32	Feedback	AvoidedLoss	True
315.874	2.624	Lose2	0.5758	n/a	Yes	2.624	n/a	n/a	GoodResponse	0	0.0	n/a	2	32	ISIslide	AvoidedLoss	True
318.523	0.25	Win2	0.5882000000000001	0.0	Yes	2.677	0.023	n/a	GoodResponse	1	n/a	n/a	3	33	Cue	Win	True
318.773	4.0	Win2	0.5882000000000001	0.0	Yes	2.677	0.0	n/a	GoodResponse	1	n/a	n/a	3	33	Fixation	Win	True
322.772	0.23	Win2	0.5882000000000001	0.001	Yes	2.677	-0.001	2.0	GoodResponse	1	0.224	321.996	3	33	Target	Win	True
322.996	0.3	Win2	0.5882000000000001	0.001	Yes	2.677	-0.001	2.0	GoodResponse	1	0.224	n/a	3	33	ButtonPress	Win	True
323.005	0.47	Win2	0.5882000000000001	n/a	Yes	2.677	n/a	n/a	GoodResponse	1	n/a	n/a	3	33	Blank	Win	True
323.472	1.45	Win2	0.5882000000000001	n/a	Yes	2.677	n/a	5.0	GoodResponse	1	0.013	322.485	3	33	Feedback	Win	True
324.921	2.677	Win2	0.5882000000000001	n/a	Yes	2.677	n/a	n/a	GoodResponse	1	0.0	n/a	3	33	ISIslide	Win	True
327.62	0.25	Lose2	0.6	0.0	Yes	2.63	0.02	n/a	GoodResponse	0	n/a	n/a	3	34	Cue	AvoidedLoss	True
327.87	4.05	Lose2	0.6	0.0	Yes	2.63	0.0	n/a	GoodResponse	0	n/a	n/a	3	34	Fixation	AvoidedLoss	True
331.919	0.24	Lose2	0.6	0.001	Yes	2.63	-0.001	2.0	GoodResponse	0	0.232	331.151	3	34	Target	AvoidedLoss	True
332.151	0.3	Lose2	0.6	0.001	Yes	2.63	-0.001	2.0	GoodResponse	0	0.232	n/a	3	34	ButtonPress	AvoidedLoss	True
332.168	0.46	Lose2	0.6	n/a	Yes	2.63	n/a	n/a	GoodResponse	0	n/a	n/a	3	34	Blank	AvoidedLoss	True
332.618	1.45	Lose2	0.6	n/a	Yes	2.63	n/a	5.0	GoodResponse	0	0.038	331.656	3	34	Feedback	AvoidedLoss	True
334.068	2.63	Lose2	0.6	n/a	Yes	2.63	n/a	n/a	GoodResponse	0	0.0	n/a	3	34	ISIslide	AvoidedLoss	True
336.717	0.25	Lose2	0.6111	0.0	Yes	2.683	0.017	n/a	GoodResponse	0	n/a	n/a	3	35	Cue	AvoidedLoss	True
336.967	4.0	Lose2	0.6111	0.0	Yes	2.683	0.0	n/a	GoodResponse	0	n/a	n/a	3	35	Fixation	AvoidedLoss	True
340.965	0.25	Lose2	0.6111	0.002	Yes	2.683	-0.002	2.0	GoodResponse	0	0.222	340.187	3	35	Target	AvoidedLoss	True
341.187	0.3	Lose2	0.6111	0.002	Yes	2.683	-0.002	2.0	GoodResponse	0	0.222	n/a	3	35	ButtonPress	AvoidedLoss	True
341.215	0.45	Lose2	0.6111	n/a	Yes	2.683	n/a	n/a	GoodResponse	0	n/a	n/a	3	35	Blank	AvoidedLoss	True
341.665	1.45	Lose2	0.6111	n/a	Yes	2.683	n/a	5.0	GoodResponse	0	0.016	340.681	3	35	Feedback	AvoidedLoss	True
343.115	2.683	Lose2	0.6111	n/a	Yes	2.683	n/a	n/a	GoodResponse	0	0.0	n/a	3	35	ISIslide	AvoidedLoss	True
345.814	0.25	Control	0.5946	0.0	No	2.686	0.014	n/a	NoResponse	0	n/a	n/a	3	36	Cue	Neutral	True
346.064	4.0	Control	0.5946	0.0	No	2.686	0.0	n/a	NoResponse	0	n/a	n/a	3	36	Fixation	Neutral	True
350.062	0.26	Control	0.5946	0.002	No	2.686	-0.002	2.0	NoResponse	0	0.384	349.446	3	36	Target	Neutral	True
350.329	0.44	Control	0.5946	n/a	No	2.686	n/a	n/a	NoResponse	0	n/a	n/a	3	36	Blank	Neutral	True
350.446	0.3	Control	0.5946	0.002	No	2.686	-0.002	2.0	NoResponse	0	0.384	n/a	3	36	ButtonPress	Neutral	True
350.762	1.45	Control	0.5946	n/a	No	2.686	n/a	5.0	NoResponse	0	0.04	349.802	3	36	Feedback	Neutral	True
352.212	2.686	Control	0.5946	n/a	No	2.686	n/a	n/a	NoResponse	0	0.0	n/a	3	36	ISIslide	Neutral	True
354.927	0.25	Win2	0.5789	0.0	No	2.873	0.027	n/a	LatePress	0	n/a	n/a	3	37	Cue	MissedWin	True
355.177	4.0	Win2	0.5789	0.0	No	2.873	0.0	n/a	LatePress	0	n/a	n/a	3	37	Fixation	MissedWin	True
359.176	0.27	Win2	0.5789	0.001	No	2.873	-0.001	2.0	LatePress	0	0.276	358.452	3	37	Target	MissedWin	True
359.452	0.3	Win2	0.5789	0.001	No	2.873	-0.001	2.0	LatePress	0	0.276	n/a	3	37	ButtonPress	MissedWin	True
359.459	0.43	Win2	0.5789	n/a	No	2.873	n/a	n/a	LatePress	0	n/a	n/a	3	37	Blank	MissedWin	True
359.875	1.45	Win2	0.5789	n/a	No	2.873	n/a	5.0	LatePress	0	0.001	358.876	3	37	Feedback	MissedWin	True
361.325	2.873	Win2	0.5789	n/a	No	2.873	n/a	n/a	LatePress	0	0.0	n/a	3	37	ISIslide	MissedWin	True
364.224	0.25	Lose2	0.5897	0.0	Yes	2.826	0.024	n/a	GoodResponse	0	n/a	n/a	3	38	Cue	AvoidedLoss	True
364.474	3.95	Lose2	0.5897	0.0	Yes	2.826	0.0	n/a	GoodResponse	0	n/a	n/a	3	38	Fixation	AvoidedLoss	True
368.423	0.28	Lose2	0.5897	0.001	Yes	2.826	-0.001	2.0	GoodResponse	0	0.188	367.611	3	38	Target	AvoidedLoss	True
368.611	0.3	Lose2	0.5897	0.001	Yes	2.826	-0.001	2.0	GoodResponse	0	0.188	n/a	3	38	ButtonPress	AvoidedLoss	True
368.706	0.42	Lose2	0.5897	n/a	Yes	2.826	n/a	n/a	GoodResponse	0	n/a	n/a	3	38	Blank	AvoidedLoss	True
369.122	1.45	Lose2	0.5897	n/a	Yes	2.826	n/a	5.0	GoodResponse	0	0.022	368.144	3	38	Feedback	AvoidedLoss	True
370.572	2.826	Lose2	0.5897	n/a	Yes	2.826	n/a	n/a	GoodResponse	0	0.0	n/a	3	38	ISIslide	AvoidedLoss	True
373.421	0.25	Win2	0.6	0.0	Yes	2.979	0.021	n/a	GoodResponse	1	n/a	n/a	4	39	Cue	Win	True
373.671	4.1	Win2	0.6	0.0	Yes	2.979	0.0	n/a	GoodResponse	1	n/a	n/a	4	39	Fixation	Win	True
377.769	0.29	Win2	0.6	0.002	Yes	2.979	-0.002	2.0	GoodResponse	1	0.202	376.971	4	39	Target	Win	True
377.971	0.3	Win2	0.6	0.002	Yes	2.979	-0.002	2.0	GoodResponse	1	0.202	n/a	4	39	ButtonPress	Win	True
378.069	0.41	Win2	0.6	n/a	Yes	2.979	n/a	n/a	GoodResponse	1	n/a	n/a	4	39	Blank	Win	True
378.469	1.45	Win2	0.6	n/a	Yes	2.979	n/a	5.0	GoodResponse	1	0.04	377.509	4	39	Feedback	Win	True
379.919	2.979	Win2	0.6	n/a	Yes	2.979	n/a	n/a	GoodResponse	1	0.0	n/a	4	39	ISIslide	Win	True
382.917	0.25	Win2	0.5854	0.001	No	2.733	0.017	n/a	PrematurePress	0	n/a	n/a	4	40	Cue	MissedWin	True
383.167	3.95	Win2	0.5854	0.0	No	2.733	0.0	n/a	PrematurePress	0	n/a	n/a	4	40	Fixation	MissedWin	True
387.116	0.3	Win2	0.5854	0.001	No	2.733	-0.001	2.0	PrematurePress	0	0.034	386.15	4	40	Target	MissedWin	True
387.15	0.3	Win2	0.5854	0.001	No	2.733	-0.001	2.0	PrematurePress	0	0.034	n/a	4	40	ButtonPress	MissedWin	True
387.416	0.4	Win2	0.5854	n/a	No	2.733	n/a	n/a	PrematurePress	0	n/a	n/a	4	40	Blank	MissedWin	True
387.816	1.45	Win2	0.5854	n/a	No	2.733	n/a	5.0	PrematurePress	0	0.011	386.827	4	40	Feedback	MissedWin	True
389.265	2.733	Win2	0.5854	n/a	No	2.733	n/a	n/a	PrematurePress	0	0.0	n/a	4	40	ISIslide	MissedWin	True
392.014	0.25	Win2	0.5952000000000001	0.0	Yes	2.786	0.014	n/a	GoodResponse	1	n/a	n/a	5	41	Cue	Win	True
392.264	3.9	Win2	0.5952000000000001	0.0	Yes	2.786	0.0	n/a	GoodResponse	1	n/a	n/a	5	41	Fixation	Win	True
396.163	0.31	Win2	0.5952000000000001	0.001	Yes	2.786	-0.001	2.0	GoodResponse	1	0.197	395.36	5	41	Target	Win	True
396.36	0.3	Win2	0.5952000000000001	0.001	Yes	2.786	-0.001	2.0	GoodResponse	1	0.197	n/a	5	41	ButtonPress	Win	True
396.479	0.39	Win2	0.5952000000000001	n/a	Yes	2.786	n/a	n/a	GoodResponse	1	n/a	n/a	5	41	Blank	Win	True
396.863	1.45	Win2	0.5952000000000001	n/a	Yes	2.786	n/a	5.0	GoodResponse	1	0.036	395.899	5	41	Feedback	Win	True
398.312	2.786	Win2	0.5952000000000001	n/a	Yes	2.786	n/a	n/a	GoodResponse	1	0.0	n/a	5	41	ISIslide	Win	True
401.128	0.25	Control	0.6047	0.0	Yes	2.922	0.028	n/a	GoodResponse	0	n/a	n/a	5	42	Cue	Neutral	True
401.378	3.85	Control	0.6047	0.0	Yes	2.922	0.0	n/a	GoodResponse	0	n/a	n/a	5	42	Fixation	Neutral	True
405.226	0.32	Control	0.6047	0.002	Yes	2.922	-0.002	2.0	GoodResponse	0	0.259	404.485	5	42	Target	Neutral	True
405.485	0.3	Control	0.6047	0.002	Yes	2.922	-0.002	2.0	GoodResponse	0	0.259	n/a	5	42	ButtonPress	Neutral	True
405.56	0.38	Control	0.6047	n/a	Yes	2.922	n/a	n/a	GoodResponse	0	n/a	n/a	5	42	Blank	Neutral	True
405.926	1.45	Control	0.6047	n/a	Yes	2.922	n/a	5.0	GoodResponse	0	0.046	404.972	5	42	Feedback	Neutral	True
407.376	2.922	Control	0.6047	n/a	Yes	2.922	n/a	n/a	GoodResponse	0	0.0	n/a	5	42	ISIslide	Neutral	True
410.325	0.25	Win2	0.6136	0.0	Yes	3.175	0.025	n/a	GoodResponse	1	n/a	n/a	6	43	Cue	Win	True
410.574	4.0	Win2	0.6136	0.001	Yes	3.175	-0.001	n/a	GoodResponse	1	n/a	n/a	6	43	Fixation	Win	True
414.573	0.33	Win2	0.6136	0.002	Yes	3.175	-0.002	2.0	GoodResponse	1	0.207	413.78	6	43	Target	Win	True
414.78	0.3	Win2	0.6136	0.002	Yes	3.175	-0.002	2.0	GoodResponse	1	0.207	n/a	6	43	ButtonPress	Win	True
414.906	0.37	Win2	0.6136	n/a	Yes	3.175	n/a	n/a	GoodResponse	1	n/a	n/a	6	43	Blank	Win	True
415.273	1.45	Win2	0.6136	n/a	Yes	3.175	n/a	5.0	GoodResponse	1	0.016	414.289	6	43	Feedback	Win	True
416.722	3.175	Win2	0.6136	n/a	Yes	3.175	n/a	n/a	GoodResponse	1	0.0	n/a	6	43	ISIslide	Win	True
419.921	0.25	Win2	0.6222	0.0	Yes	2.979	0.021	n/a	GoodResponse	1	n/a	n/a	7	44	Cue	Win	True
420.171	4.0	Win2	0.6222	0.0	Yes	2.979	0.0	n/a	GoodResponse	1	n/a	n/a	7	44	Fixation	Win	True
424.17	0.34	Win2	0.6222	0.001	Yes	2.979	-0.001	2.0	GoodResponse	1	0.174	423.344	7	44	Target	Win	True
424.344	0.3	Win2	0.6222	0.001	Yes	2.979	-0.001	2.0	GoodResponse	1	0.174	n/a	7	44	ButtonPress	Win	True
424.52	0.36	Win2	0.6222	n/a	Yes	2.979	n/a	n/a	GoodResponse	1	n/a	n/a	7	44	Blank	Win	True
424.869	1.45	Win2	0.6222	n/a	Yes	2.979	n/a	5.0	GoodResponse	1	0.03	423.899	7	44	Feedback	Win	True
426.319	2.979	Win2	0.6222	n/a	Yes	2.979	n/a	n/a	GoodResponse	1	0.0	n/a	7	44	ISIslide	Win	True
429.318	0.25	Control	0.6304	0.0	Yes	2.882	0.018	n/a	GoodResponse	0	n/a	n/a	7	45	Cue	Neutral	True
429.568	4.1	Control	0.6304	0.0	Yes	2.882	0.0	n/a	GoodResponse	0	n/a	n/a	7	45	Fixation	Neutral	True
433.666	0.35	Control	0.6304	0.002	Yes	2.882	-0.002	2.0	GoodResponse	0	0.189	432.855	7	45	Target	Neutral	True
433.855	0.3	Control	0.6304	0.002	Yes	2.882	-0.002	2.0	GoodResponse	0	0.189	n/a	7	45	ButtonPress	Neutral	True
434.016	0.35	Control	0.6304	n/a	Yes	2.882	n/a	n/a	GoodResponse	0	n/a	n/a	7	45	Blank	Neutral	True
434.366	1.45	Control	0.6304	n/a	Yes	2.882	n/a	5.0	GoodResponse	0	0.001	433.367	7	45	Feedback	Neutral	True
435.816	2.882	Control	0.6304	n/a	Yes	2.882	n/a	n/a	GoodResponse	0	0.0	n/a	7	45	ISIslide	Neutral	True
438.715	0.25	Lose2	0.6383	0.0	Yes	3.385	0.015	n/a	GoodResponse	0	n/a	n/a	7	46	Cue	AvoidedLoss	True
438.965	4.0	Lose2	0.6383	0.0	Yes	3.385	0.0	n/a	GoodResponse	0	n/a	n/a	7	46	Fixation	AvoidedLoss	True
442.963	0.36	Lose2	0.6383	0.002	Yes	3.385	-0.002	2.0	GoodResponse	0	0.199	442.162	7	46	Target	AvoidedLoss	True
443.162	0.3	Lose2	0.6383	0.002	Yes	3.385	-0.002	2.0	GoodResponse	0	0.199	n/a	7	46	ButtonPress	AvoidedLoss	True
443.33	0.34	Lose2	0.6383	n/a	Yes	3.385	n/a	n/a	GoodResponse	0	n/a	n/a	7	46	Blank	AvoidedLoss	True
443.663	1.45	Lose2	0.6383	n/a	Yes	3.385	n/a	5.0	GoodResponse	0	0.016	442.679	7	46	Feedback	AvoidedLoss	True
445.112	3.385	Lose2	0.6383	n/a	Yes	3.385	n/a	n/a	GoodResponse	0	0.0	n/a	7	46	ISIslide	AvoidedLoss	True
448.528	0.25	Lose2	0.6457999999999999	0.0	Yes	2.672	0.028	n/a	GoodResponse	0	n/a	n/a	7	47	Cue	AvoidedLoss	True
448.778	4.0	Lose2	0.6457999999999999	0.0	Yes	2.672	0.0	n/a	GoodResponse	0	n/a	n/a	7	47	Fixation	AvoidedLoss	True
452.776	0.37	Lose2	0.6457999999999999	0.002	Yes	2.672	-0.002	2.0	GoodResponse	0	0.196	451.972	7	47	Target	AvoidedLoss	True
452.972	0.3	Lose2	0.6457999999999999	0.002	Yes	2.672	-0.002	2.0	GoodResponse	0	0.196	n/a	7	47	ButtonPress	AvoidedLoss	True
453.16	0.33	Lose2	0.6457999999999999	n/a	Yes	2.672	n/a	n/a	GoodResponse	0	n/a	n/a	7	47	Blank	AvoidedLoss	True
453.476	1.45	Lose2	0.6457999999999999	n/a	Yes	2.672	n/a	5.0	GoodResponse	0	0.008	452.484	7	47	Feedback	AvoidedLoss	True
454.926	2.672	Lose2	0.6457999999999999	n/a	Yes	2.672	n/a	n/a	GoodResponse	0	0.0	n/a	7	47	ISIslide	AvoidedLoss	True
457.625	0.25	Lose2	0.6531	0.0	Yes	3.025	0.025	n/a	GoodResponse	0	n/a	n/a	7	48	Cue	AvoidedLoss	True
457.875	3.95	Lose2	0.6531	0.0	Yes	3.025	0.0	n/a	GoodResponse	0	n/a	n/a	7	48	Fixation	AvoidedLoss	True
461.823	0.38	Lose2	0.6531	0.002	Yes	3.025	-0.002	2.0	GoodResponse	0	0.18	461.003	7	48	Target	AvoidedLoss	True
462.003	0.3	Lose2	0.6531	0.002	Yes	3.025	-0.002	2.0	GoodResponse	0	0.18	n/a	7	48	ButtonPress	AvoidedLoss	True
462.206	0.32	Lose2	0.6531	n/a	Yes	3.025	n/a	n/a	GoodResponse	0	n/a	n/a	7	48	Blank	AvoidedLoss	True
462.523	1.45	Lose2	0.6531	n/a	Yes	3.025	n/a	5.0	GoodResponse	0	0.034	461.557	7	48	Feedback	AvoidedLoss	True
463.973	3.025	Lose2	0.6531	n/a	Yes	3.025	n/a	n/a	GoodResponse	0	0.0	n/a	7	48	ISIslide	AvoidedLoss	True
467.021	0.25	Control	0.66	0.001	Yes	2.879	0.021	n/a	GoodResponse	0	n/a	n/a	7	49	Cue	Neutral	True
467.271	4.0	Control	0.66	0.0	Yes	2.879	0.0	n/a	GoodResponse	0	n/a	n/a	7	49	Fixation	Neutral	True
471.27	0.39	Control	0.66	0.001	Yes	2.879	-0.001	2.0	GoodResponse	0	0.188	470.458	7	49	Target	Neutral	True
471.458	0.3	Control	0.66	0.001	Yes	2.879	-0.001	2.0	GoodResponse	0	0.188	n/a	7	49	ButtonPress	Neutral	True
471.67	0.31	Control	0.66	n/a	Yes	2.879	n/a	n/a	GoodResponse	0	n/a	n/a	7	49	Blank	Neutral	True
471.97	1.45	Control	0.66	n/a	Yes	2.879	n/a	5.0	GoodResponse	0	0.005	470.975	7	49	Feedback	Neutral	True
473.419	2.879	Control	0.66	n/a	Yes	2.879	n/a	n/a	GoodResponse	0	0.0	n/a	7	49	ISIslide	Neutral	True
476.318	0.25	Control	0.6667000000000001	0.0	Yes	2.782	0.018	n/a	GoodResponse	0	n/a	n/a	7	50	Cue	Neutral	True
476.568	4.0	Control	0.6667000000000001	0.0	Yes	2.782	0.0	n/a	GoodResponse	0	n/a	n/a	7	50	Fixation	Neutral	True
480.567	0.39	Control	0.6667000000000001	0.001	Yes	2.782	-0.001	2.0	GoodResponse	0	0.236	479.803	7	50	Target	Neutral	True
480.803	0.3	Control	0.6667000000000001	0.001	Yes	2.782	-0.001	2.0	GoodResponse	0	0.236	n/a	7	50	ButtonPress	Neutral	True
480.967	0.31	Control	0.6667000000000001	n/a	Yes	2.782	n/a	n/a	GoodResponse	0	n/a	n/a	7	50	Blank	Neutral	True
481.266	1.45	Control	0.6667000000000001	n/a	Yes	2.782	n/a	5.0	GoodResponse	0	0.023	480.289	7	50	Feedback	Neutral	True
482.716	2.782	Control	0.6667000000000001	n/a	Yes	2.782	n/a	n/a	GoodResponse	0	0.0	n/a	7	50	ISIslide	Neutral	True
485.515	0.25	Control	0.6731	0.0	Yes	2.735	0.015	n/a	GoodResponse	0	n/a	n/a	7	51	Cue	Neutral	True
485.765	3.95	Control	0.6731	0.0	Yes	2.735	0.0	n/a	GoodResponse	0	n/a	n/a	7	51	Fixation	Neutral	True
489.714	0.38	Control	0.6731	0.001	Yes	2.735	-0.001	2.0	GoodResponse	0	0.237	488.951	7	51	Target	Neutral	True
489.951	0.3	Control	0.6731	0.001	Yes	2.735	-0.001	2.0	GoodResponse	0	0.237	n/a	7	51	ButtonPress	Neutral	True
490.097	0.32	Control	0.6731	n/a	Yes	2.735	n/a	n/a	GoodResponse	0	n/a	n/a	7	51	Blank	Neutral	True
490.413	1.45	Control	0.6731	n/a	Yes	2.735	n/a	5.0	GoodResponse	0	0.001	489.414	7	51	Feedback	Neutral	True
491.863	2.735	Control	0.6731	n/a	Yes	2.735	n/a	n/a	GoodResponse	0	0.0	n/a	7	51	ISIslide	Neutral	True
494.628	0.25	Control	0.6792	0.001	Yes	2.622	0.028	n/a	GoodResponse	0	n/a	n/a	7	52	Cue	Neutral	True
494.878	4.05	Control	0.6792	0.0	Yes	2.622	0.0	n/a	GoodResponse	0	n/a	n/a	7	52	Fixation	Neutral	True
498.927	0.37	Control	0.6792	0.001	Yes	2.622	-0.001	2.0	GoodResponse	0	0.213	498.14	7	52	Target	Neutral	True
499.14	0.3	Control	0.6792	0.001	Yes	2.622	-0.001	2.0	GoodResponse	0	0.213	n/a	7	52	ButtonPress	Neutral	True
499.294	0.33	Control	0.6792	n/a	Yes	2.622	n/a	n/a	GoodResponse	0	n/a	n/a	7	52	Blank	Neutral	True
499.627	1.45	Control	0.6792	n/a	Yes	2.622	n/a	5.0	GoodResponse	0	0.006	498.633	7	52	Feedback	Neutral	True
501.076	2.622	Control	0.6792	n/a	Yes	2.622	n/a	n/a	GoodResponse	0	0.0	n/a	7	52	ISIslide	Neutral	True
503.725	0.25	Win2	0.6851999999999999	0.0	Yes	2.925	0.025	n/a	GoodResponse	1	n/a	n/a	8	53	Cue	Win	False
503.975	4.05	Win2	0.6851999999999999	0.0	Yes	2.925	0.0	2.0	GoodResponse	1	0.17	503.145	8	53	Fixation	Win	False
504.145	0.3	Win2	0.6851999999999999	0.0	Yes	2.925	0.0	2.0	GoodResponse	1	0.17	n/a	8	53	ButtonPress	Win	False
508.024	0.36	Win2	0.6851999999999999	0.001	Yes	2.925	-0.001	2.0	GoodResponse	1	0.189	507.213	8	53	Target	Win	False
508.213	0.3	Win2	0.6851999999999999	0.001	Yes	2.925	-0.001	2.0	GoodResponse	1	0.189	n/a	8	53	ButtonPress	Win	False
508.39	0.34	Win2	0.6851999999999999	n/a	Yes	2.925	n/a	n/a	GoodResponse	1	n/a	n/a	8	53	Blank	Win	False
508.724	1.45	Win2	0.6851999999999999	n/a	Yes	2.925	n/a	5.0	GoodResponse	1	0.028	507.752	8	53	Feedback	Win	False
510.173	2.925	Win2	0.6851999999999999	n/a	Yes	2.925	n/a	n/a	GoodResponse	1	0.0	n/a	8	53	ISIslide	Win	False
513.122	0.25	Win2	0.6909000000000001	0.0	Yes	2.728	0.022	n/a	GoodResponse	1	n/a	n/a	9	54	Cue	Win	True
513.372	3.95	Win2	0.6909000000000001	0.0	Yes	2.728	0.0	n/a	GoodResponse	1	n/a	n/a	9	54	Fixation	Win	True
517.321	0.35	Win2	0.6909000000000001	0.001	Yes	2.728	-0.001	2.0	GoodResponse	1	0.173	516.494	9	54	Target	Win	True
517.494	0.3	Win2	0.6909000000000001	0.001	Yes	2.728	-0.001	2.0	GoodResponse	1	0.173	n/a	9	54	ButtonPress	Win	True
517.67	0.35	Win2	0.6909000000000001	n/a	Yes	2.728	n/a	n/a	GoodResponse	1	n/a	n/a	9	54	Blank	Win	True
518.02	1.45	Win2	0.6909000000000001	n/a	Yes	2.728	n/a	5.0	GoodResponse	1	0.049	517.069	9	54	Feedback	Win	True
519.47	2.728	Win2	0.6909000000000001	n/a	Yes	2.728	n/a	n/a	GoodResponse	1	0.0	n/a	9	54	ISIslide	Win	True
522.219	0.25	Control	0.6786	0.0	No	3.031	0.019	n/a	NoResponse	0	n/a	n/a	9	55	Cue	Neutral	True
522.469	3.95	Control	0.6786	0.0	No	3.031	0.0	n/a	NoResponse	0	n/a	n/a	9	55	Fixation	Neutral	True
526.417	0.34	Control	0.6786	0.002	No	3.031	-0.002	2.0	NoResponse	0	0.545	525.962	9	55	Target	Neutral	True
526.767	0.36	Control	0.6786	n/a	No	3.031	n/a	n/a	NoResponse	0	n/a	n/a	9	55	Blank	Neutral	True
526.962	0.3	Control	0.6786	0.002	No	3.031	-0.002	2.0	NoResponse	0	0.545	n/a	9	55	ButtonPress	Neutral	True
527.117	1.45	Control	0.6786	n/a	No	3.031	n/a	5.0	NoResponse	0	0.025	526.142	9	55	Feedback	Neutral	True
528.567	3.031	Control	0.6786	n/a	No	3.031	n/a	n/a	NoResponse	0	0.0	n/a	9	55	ISIslide	Neutral	True
531.616	0.25	Control	0.6667000000000001	0.0	No	2.834	0.016	n/a	NoResponse	0	n/a	n/a	9	56	Cue	Neutral	False
531.865	3.95	Control	0.6667000000000001	0.001	No	2.834	-0.001	n/a	NoResponse	0	n/a	n/a	9	56	Fixation	Neutral	False
535.814	0.33	Control	0.6667000000000001	0.002	No	2.834	-0.002	n/a	NoResponse	0	n/a	n/a	9	56	Target	Neutral	False
536.147	0.37	Control	0.6667000000000001	n/a	No	2.834	n/a	n/a	NoResponse	0	n/a	n/a	9	56	Blank	Neutral	False
536.514	1.45	Control	0.6667000000000001	n/a	No	2.834	n/a	5.0	NoResponse	0	0.001	535.515	9	56	Feedback	Neutral	False
537.963	2.834	Control	0.6667000000000001	n/a	No	2.834	n/a	n/a	NoResponse	0	0.0	n/a	9	56	ISIslide	Neutral	False
540.829	0.25	Control	0.6724	0.0	Yes	3.471	0.029	n/a	GoodResponse	0	n/a	n/a	9	57	Cue	Neutral	True
541.079	4.0	Control	0.6724	0.0	Yes	3.471	0.0	n/a	GoodResponse	0	n/a	n/a	9	57	Fixation	Neutral	True
545.078	0.32	Control	0.6724	0.001	Yes	3.471	-0.001	2.0	GoodResponse	0	0.175	544.253	9	57	Target	Neutral	True
545.253	0.3	Control	0.6724	0.001	Yes	3.471	-0.001	2.0	GoodResponse	0	0.175	n/a	9	57	ButtonPress	Neutral	True
545.411	0.38	Control	0.6724	n/a	Yes	3.471	n/a	n/a	GoodResponse	0	n/a	n/a	9	57	Blank	Neutral	True
545.777	1.45	Control	0.6724	n/a	Yes	3.471	n/a	5.0	GoodResponse	0	0.048	544.825	9	57	Feedback	Neutral	True
547.227	3.471	Control	0.6724	n/a	Yes	3.471	n/a	n/a	GoodResponse	0	0.0	n/a	9	57	ISIslide	Neutral	True
550.726	0.25	Win2	0.6779999999999999	0.0	Yes	2.724	0.026	n/a	GoodResponse	1	n/a	n/a	10	58	Cue	Win	False
550.975	4.05	Win2	0.6779999999999999	0.001	Yes	2.724	-0.001	2.0	GoodResponse	1	0.073	550.048	10	58	Fixation	Win	False
551.048	0.3	Win2	0.6779999999999999	0.001	Yes	2.724	-0.001	2.0	GoodResponse	1	0.073	n/a	10	58	ButtonPress	Win	False
555.024	0.31	Win2	0.6779999999999999	0.002	Yes	2.724	-0.002	2.0	GoodResponse	1	0.18	554.204	10	58	Target	Win	False
555.204	0.3	Win2	0.6779999999999999	0.002	Yes	2.724	-0.002	2.0	GoodResponse	1	0.18	n/a	10	58	ButtonPress	Win	False
555.341	0.39	Win2	0.6779999999999999	n/a	Yes	2.724	n/a	n/a	GoodResponse	1	n/a	n/a	10	58	Blank	Win	False
555.724	1.45	Win2	0.6779999999999999	n/a	Yes	2.724	n/a	5.0	GoodResponse	1	0.007	554.731	10	58	Feedback	Win	False
557.173	2.724	Win2	0.6779999999999999	n/a	Yes	2.724	n/a	n/a	GoodResponse	1	0.0	n/a	10	58	ISIslide	Win	False
559.922	0.25	Lose2	0.6833	0.0	Yes	2.678	0.022	n/a	GoodResponse	0	n/a	n/a	10	59	Cue	AvoidedLoss	True
560.172	4.0	Lose2	0.6833	0.0	Yes	2.678	0.0	n/a	GoodResponse	0	n/a	n/a	10	59	Fixation	AvoidedLoss	True
564.171	0.3	Lose2	0.6833	0.001	Yes	2.678	-0.001	2.0	GoodResponse	0	0.197	563.368	10	59	Target	AvoidedLoss	True
564.368	0.3	Lose2	0.6833	0.001	Yes	2.678	-0.001	2.0	GoodResponse	0	0.197	n/a	10	59	ButtonPress	AvoidedLoss	True
564.471	0.4	Lose2	0.6833	n/a	Yes	2.678	n/a	n/a	GoodResponse	0	n/a	n/a	10	59	Blank	AvoidedLoss	True
564.871	1.45	Lose2	0.6833	n/a	Yes	2.678	n/a	5.0	GoodResponse	0	0.027	563.898	10	59	Feedback	AvoidedLoss	True
566.32	2.678	Lose2	0.6833	n/a	Yes	2.678	n/a	n/a	GoodResponse	0	0.0	n/a	10	59	ISIslide	AvoidedLoss	True
569.019	0.25	Control	0.6884999999999999	0.0	Yes	2.681	0.019	n/a	GoodResponse	0	n/a	n/a	10	60	Cue	Neutral	True
569.269	4.0	Control	0.6884999999999999	0.0	Yes	2.681	0.0	n/a	GoodResponse	0	n/a	n/a	10	60	Fixation	Neutral	True
573.268	0.29	Control	0.6884999999999999	0.001	Yes	2.681	-0.001	2.0	GoodResponse	0	0.209	572.477	10	60	Target	Neutral	True
573.477	0.3	Control	0.6884999999999999	0.001	Yes	2.681	-0.001	2.0	GoodResponse	0	0.209	n/a	10	60	ButtonPress	Neutral	True
573.568	0.41	Control	0.6884999999999999	n/a	Yes	2.681	n/a	n/a	GoodResponse	0	n/a	n/a	10	60	Blank	Neutral	True
573.967	1.45	Control	0.6884999999999999	n/a	Yes	2.681	n/a	5.0	GoodResponse	0	0.006	572.973	10	60	Feedback	Neutral	True
575.417	2.681	Control	0.6884999999999999	n/a	Yes	2.681	n/a	n/a	GoodResponse	0	0.0	n/a	10	60	ISIslide	Neutral	True
578.116	0.25	Lose2	0.6934999999999999	0.0	Yes	2.984	0.016	n/a	GoodResponse	0	n/a	n/a	10	61	Cue	AvoidedLoss	True
578.366	4.0	Lose2	0.6934999999999999	0.0	Yes	2.984	0.0	n/a	GoodResponse	0	n/a	n/a	10	61	Fixation	AvoidedLoss	True
582.365	0.28	Lose2	0.6934999999999999	0.001	Yes	2.984	-0.001	2.0	GoodResponse	0	0.243	581.608	10	61	Target	AvoidedLoss	True
582.608	0.3	Lose2	0.6934999999999999	0.001	Yes	2.984	-0.001	2.0	GoodResponse	0	0.243	n/a	10	61	ButtonPress	AvoidedLoss	True
582.648	0.42	Lose2	0.6934999999999999	n/a	Yes	2.984	n/a	n/a	GoodResponse	0	n/a	n/a	10	61	Blank	AvoidedLoss	True
583.064	1.45	Lose2	0.6934999999999999	n/a	Yes	2.984	n/a	5.0	GoodResponse	0	0.029	582.093	10	61	Feedback	AvoidedLoss	True
584.514	2.984	Lose2	0.6934999999999999	n/a	Yes	2.984	n/a	n/a	GoodResponse	0	0.0	n/a	10	61	ISIslide	AvoidedLoss	True
587.529	0.25	Lose2	0.6984	0.0	Yes	2.871	0.029	n/a	GoodResponse	0	n/a	n/a	10	62	Cue	AvoidedLoss	True
587.779	3.9	Lose2	0.6984	0.0	Yes	2.871	0.0	n/a	GoodResponse	0	n/a	n/a	10	62	Fixation	AvoidedLoss	True
591.678	0.27	Lose2	0.6984	0.001	Yes	2.871	-0.001	2.0	GoodResponse	0	0.243	590.921	10	62	Target	AvoidedLoss	True
591.921	0.3	Lose2	0.6984	0.001	Yes	2.871	-0.001	2.0	GoodResponse	0	0.243	n/a	10	62	ButtonPress	AvoidedLoss	True
591.945	0.43	Lose2	0.6984	n/a	Yes	2.871	n/a	n/a	GoodResponse	0	n/a	n/a	10	62	Blank	AvoidedLoss	True
592.378	1.45	Lose2	0.6984	n/a	Yes	2.871	n/a	5.0	GoodResponse	0	0.033	591.411	10	62	Feedback	AvoidedLoss	True
593.827	2.871	Lose2	0.6984	n/a	Yes	2.871	n/a	n/a	GoodResponse	0	0.0	n/a	10	62	ISIslide	AvoidedLoss	True
596.726	0.25	Lose2	0.7031000000000001	0.0	Yes	2.624	0.026	n/a	GoodResponse	0	n/a	n/a	10	63	Cue	AvoidedLoss	True
596.976	4.05	Lose2	0.7031000000000001	0.0	Yes	2.624	0.0	n/a	GoodResponse	0	n/a	n/a	10	63	Fixation	AvoidedLoss	True
601.025	0.26	Lose2	0.7031000000000001	0.001	Yes	2.624	-0.001	2.0	GoodResponse	0	0.175	600.2	10	63	Target	AvoidedLoss	True
601.2	0.3	Lose2	0.7031000000000001	0.001	Yes	2.624	-0.001	2.0	GoodResponse	0	0.175	n/a	10	63	ButtonPress	AvoidedLoss	True
601.291	0.44	Lose2	0.7031000000000001	n/a	Yes	2.624	n/a	n/a	GoodResponse	0	n/a	n/a	10	63	Blank	AvoidedLoss	True
601.724	1.45	Lose2	0.7031000000000001	n/a	Yes	2.624	n/a	5.0	GoodResponse	0	0.006	600.73	10	63	Feedback	AvoidedLoss	True
603.174	2.624	Lose2	0.7031000000000001	n/a	Yes	2.624	n/a	n/a	GoodResponse	0	0.0	n/a	10	63	ISIslide	AvoidedLoss	True
605.823	0.25	Win2	0.7077	0.0	Yes	3.127	0.023	n/a	GoodResponse	1	n/a	n/a	11	64	Cue	Win	True
606.073	4.15	Win2	0.7077	0.0	Yes	3.127	0.0	n/a	GoodResponse	1	n/a	n/a	11	64	Fixation	Win	True
610.221	0.25	Win2	0.7077	0.002	Yes	3.127	-0.002	2.0	GoodResponse	1	0.161	609.382	11	64	Target	Win	True
610.382	0.3	Win2	0.7077	0.002	Yes	3.127	-0.002	2.0	GoodResponse	1	0.161	n/a	11	64	ButtonPress	Win	True
610.471	0.45	Win2	0.7077	n/a	Yes	3.127	n/a	n/a	GoodResponse	1	n/a	n/a	11	64	Blank	Win	True
610.921	1.45	Win2	0.7077	n/a	Yes	3.127	n/a	5.0	GoodResponse	1	0.025	609.946	11	64	Feedback	Win	True
612.371	3.127	Win2	0.7077	n/a	Yes	3.127	n/a	n/a	GoodResponse	1	0.0	n/a	11	64	ISIslide	Win	True
615.52	0.25	Control	0.6970000000000001	0.0	No	2.78	0.02	n/a	NoResponse	0	n/a	n/a	11	65	Cue	Neutral	True
615.77	4.0	Control	0.6970000000000001	0.0	No	2.78	0.0	n/a	NoResponse	0	n/a	n/a	11	65	Fixation	Neutral	True
619.768	0.24	Control	0.6970000000000001	0.002	No	2.78	-0.002	2.0	NoResponse	0	0.279	619.047	11	65	Target	Neutral	True
620.018	0.46	Control	0.6970000000000001	n/a	No	2.78	n/a	n/a	NoResponse	0	n/a	n/a	11	65	Blank	Neutral	True
620.047	0.3	Control	0.6970000000000001	0.002	No	2.78	-0.002	2.0	NoResponse	0	0.279	n/a	11	65	ButtonPress	Neutral	True
620.468	1.45	Control	0.6970000000000001	n/a	No	2.78	n/a	5.0	NoResponse	0	0.04	619.508	11	65	Feedback	Neutral	True
621.917	2.78	Control	0.6970000000000001	n/a	No	2.78	n/a	n/a	NoResponse	0	0.0	n/a	11	65	ISIslide	Neutral	True
624.716	0.25	Win2	0.7015	0.001	Yes	2.784	0.016	n/a	GoodResponse	1	n/a	n/a	12	66	Cue	Win	True
624.966	3.9	Win2	0.7015	0.0	Yes	2.784	0.0	n/a	GoodResponse	1	n/a	n/a	12	66	Fixation	Win	True
628.865	0.23	Win2	0.7015	0.001	Yes	2.784	-0.001	2.0	GoodResponse	1	0.198	628.063	12	66	Target	Win	True
629.063	0.3	Win2	0.7015	0.001	Yes	2.784	-0.001	2.0	GoodResponse	1	0.198	n/a	12	66	ButtonPress	Win	True
629.098	0.47	Win2	0.7015	n/a	Yes	2.784	n/a	n/a	GoodResponse	1	n/a	n/a	12	66	Blank	Win	True
629.565	1.45	Win2	0.7015	n/a	Yes	2.784	n/a	5.0	GoodResponse	1	0.016	628.581	12	66	Feedback	Win	True
631.014	2.784	Win2	0.7015	n/a	Yes	2.784	n/a	n/a	GoodResponse	1	0.0	n/a	12	66	ISIslide	Win	True
633.83	0.25	Control	0.7059000000000001	0.0	Yes	2.72	0.03	n/a	GoodResponse	0	n/a	n/a	12	67	Cue	Neutral	True
634.08	3.95	Control	0.7059000000000001	0.0	Yes	2.72	0.0	n/a	GoodResponse	0	n/a	n/a	12	67	Fixation	Neutral	True
638.028	0.22	Control	0.7059000000000001	0.002	Yes	2.72	-0.002	2.0	GoodResponse	0	0.204	637.232	12	67	Target	Neutral	True
638.232	0.3	Control	0.7059000000000001	0.002	Yes	2.72	-0.002	2.0	GoodResponse	0	0.204	n/a	12	67	ButtonPress	Neutral	True
638.262	0.48	Control	0.7059000000000001	n/a	Yes	2.72	n/a	n/a	GoodResponse	0	n/a	n/a	12	67	Blank	Neutral	True
638.728	1.45	Control	0.7059000000000001	n/a	Yes	2.72	n/a	5.0	GoodResponse	0	0.024	637.752	12	67	Feedback	Neutral	True
640.178	2.72	Control	0.7059000000000001	n/a	Yes	2.72	n/a	n/a	GoodResponse	0	0.0	n/a	12	67	ISIslide	Neutral	True
642.927	0.25	Win2	0.6957	0.0	No	3.073	0.027	n/a	NoResponse	0	n/a	n/a	12	68	Cue	MissedWin	True
643.177	4.0	Win2	0.6957	0.0	No	3.073	0.0	n/a	NoResponse	0	n/a	n/a	12	68	Fixation	MissedWin	True
647.175	0.21	Win2	0.6957	0.002	No	3.073	-0.002	2.0	NoResponse	0	0.242	646.417	12	68	Target	MissedWin	True
647.392	0.49	Win2	0.6957	n/a	No	3.073	n/a	n/a	NoResponse	0	n/a	n/a	12	68	Blank	MissedWin	True
647.417	0.3	Win2	0.6957	0.002	No	3.073	-0.002	2.0	NoResponse	0	0.242	n/a	12	68	ButtonPress	MissedWin	True
647.875	1.45	Win2	0.6957	n/a	No	3.073	n/a	5.0	NoResponse	0	0.047	646.922	12	68	Feedback	MissedWin	True
649.325	3.073	Win2	0.6957	n/a	No	3.073	n/a	n/a	NoResponse	0	0.0	n/a	12	68	ISIslide	MissedWin	True
652.423	0.25	Win2	0.7	0.001	Yes	3.227	0.023	n/a	GoodResponse	1	n/a	n/a	13	69	Cue	Win	True
652.673	3.95	Win2	0.7	0.0	Yes	3.227	0.0	n/a	GoodResponse	1	n/a	n/a	13	69	Fixation	Win	True
656.622	0.2	Win2	0.7	0.001	Yes	3.227	-0.001	2.0	GoodResponse	1	0.165	655.787	13	69	Target	Win	True
656.787	0.3	Win2	0.7	0.001	Yes	3.227	-0.001	2.0	GoodResponse	1	0.165	n/a	13	69	ButtonPress	Win	True
656.822	0.5	Win2	0.7	n/a	Yes	3.227	n/a	n/a	GoodResponse	1	n/a	n/a	13	69	Blank	Win	True
657.322	1.45	Win2	0.7	n/a	Yes	3.227	n/a	5.0	GoodResponse	1	0.014	656.336	13	69	Feedback	Win	True
658.771	3.227	Win2	0.7	n/a	Yes	3.227	n/a	n/a	GoodResponse	1	0.0	n/a	13	69	ISIslide	Win	True
662.02	0.25	Lose2	0.6901	0.0	No	3.03	0.02	n/a	PrematurePress	-1	n/a	n/a	12	70	Cue	Loss	True
662.27	4.05	Lose2	0.6901	0.0	No	3.03	0.0	n/a	PrematurePress	-1	n/a	n/a	12	70	Fixation	Loss	True
666.319	0.19	Lose2	0.6901	0.001	No	3.03	-0.001	2.0	PrematurePress	-1	0.04	665.359	12	70	Target	Loss	True
666.359	0.3	Lose2	0.6901	0.001	No	3.03	-0.001	2.0	PrematurePress	-1	0.04	n/a	12	70	ButtonPress	Loss	True
666.519	0.51	Lose2	0.6901	n/a	No	3.03	n/a	n/a	PrematurePress	-1	n/a	n/a	12	70	Blank	Loss	True
667.018	1.45	Lose2	0.6901	n/a	No	3.03	n/a	5.0	PrematurePress	-1	0.026	666.044	12	70	Feedback	Loss	True
668.468	3.03	Lose2	0.6901	n/a	No	3.03	n/a	n/a	PrematurePress	-1	0.0	n/a	12	70	ISIslide	Loss	True
671.517	0.25	Win2	0.6806	0.0	No	2.733	0.017	n/a	NoResponse	0	n/a	n/a	12	71	Cue	MissedWin	True
671.767	4.05	Win2	0.6806	0.0	No	2.733	0.0	2.0	NoResponse	0	4.037	674.804	12	71	Fixation	MissedWin	True
675.804	0.3	Win2	0.6806	0.0	No	2.733	0.0	2.0	NoResponse	0	4.037	n/a	12	71	ButtonPress	MissedWin	True
675.815	0.18	Win2	0.6806	0.002	No	2.733	-0.002	n/a	NoResponse	0	n/a	n/a	12	71	Target	MissedWin	True
675.999	0.52	Win2	0.6806	n/a	No	2.733	n/a	n/a	NoResponse	0	n/a	n/a	12	71	Blank	MissedWin	True
676.515	1.45	Win2	0.6806	n/a	No	2.733	n/a	5.0	NoResponse	0	0.041	675.556	12	71	Feedback	MissedWin	True
677.965	2.733	Win2	0.6806	n/a	No	2.733	n/a	n/a	NoResponse	0	0.0	n/a	12	71	ISIslide	MissedWin	True
680.714	0.25	Win2	0.6712	0.0	No	2.786	0.014	n/a	NoResponse	0	n/a	n/a	12	72	Cue	MissedWin	True
680.963	4.1	Win2	0.6712	0.001	No	2.786	-0.001	n/a	NoResponse	0	n/a	n/a	12	72	Fixation	MissedWin	True
685.062	0.17	Win2	0.6712	0.002	No	2.786	-0.002	2.0	NoResponse	0	0.194	684.256	12	72	Target	MissedWin	True
685.245	0.53	Win2	0.6712	n/a	No	2.786	n/a	n/a	NoResponse	0	n/a	n/a	12	72	Blank	MissedWin	True
685.256	0.3	Win2	0.6712	0.002	No	2.786	-0.002	2.0	NoResponse	0	0.194	n/a	12	72	ButtonPress	MissedWin	True
685.762	1.45	Win2	0.6712	n/a	No	2.786	n/a	5.0	NoResponse	0	0.014	684.776	12	72	Feedback	MissedWin	True
687.211	2.786	Win2	0.6712	n/a	No	2.786	n/a	n/a	NoResponse	0	0.0	n/a	12	72	ISIslide	MissedWin	True
690.027	0.25	Win2	0.6622	0.0	No	2.673	0.027	n/a	PrematurePress	0	n/a	n/a	12	73	Cue	MissedWin	False
690.277	4.0	Win2	0.6622	0.0	No	2.673	0.0	2.0	PrematurePress	0	3.784	693.061	12	73	Fixation	MissedWin	False
694.061	0.3	Win2	0.6622	0.0	No	2.673	0.0	2.0	PrematurePress	0	3.784	n/a	12	73	ButtonPress	MissedWin	False
694.276	0.16	Win2	0.6622	0.001	No	2.673	-0.001	2.0	PrematurePress	0	0.093	693.369	12	73	Target	MissedWin	False
694.369	0.3	Win2	0.6622	0.001	No	2.673	-0.001	2.0	PrematurePress	0	0.093	n/a	12	73	ButtonPress	MissedWin	False
694.442	0.54	Win2	0.6622	n/a	No	2.673	n/a	n/a	PrematurePress	0	n/a	n/a	12	73	Blank	MissedWin	False
694.975	1.45	Win2	0.6622	n/a	No	2.673	n/a	5.0	PrematurePress	0	0.02	693.995	12	73	Feedback	MissedWin	False
696.425	2.673	Win2	0.6622	n/a	No	2.673	n/a	n/a	PrematurePress	0	0.0	n/a	12	73	ISIslide	MissedWin	False
699.124	0.25	Lose2	0.6533	0.0	No	2.626	0.024	n/a	NoResponse	-1	n/a	n/a	11	74	Cue	Loss	True
699.374	4.05	Lose2	0.6533	0.0	No	2.626	0.0	n/a	NoResponse	-1	n/a	n/a	11	74	Fixation	Loss	True
703.422	0.16	Lose2	0.6533	0.002	No	2.626	-0.002	2.0	NoResponse	-1	0.174	702.596	11	74	Target	Loss	True
703.589	0.54	Lose2	0.6533	n/a	No	2.626	n/a	n/a	NoResponse	-1	n/a	n/a	11	74	Blank	Loss	True
703.596	0.3	Lose2	0.6533	0.002	No	2.626	-0.002	2.0	NoResponse	-1	0.174	n/a	11	74	ButtonPress	Loss	True
704.122	1.45	Lose2	0.6533	n/a	No	2.626	n/a	5.0	NoResponse	-1	0.0	703.122	11	74	Feedback	Loss	True
705.572	2.626	Lose2	0.6533	n/a	No	2.626	n/a	n/a	NoResponse	-1	0.0	n/a	11	74	ISIslide	Loss	True
708.221	0.25	Lose2	0.6579	0.0	Yes	2.929	0.021	2.0	GoodResponse	0	0.246	707.467	11	75	Cue	AvoidedLoss	False
708.467	0.3	Lose2	0.6579	0.0	Yes	2.929	0.021	2.0	GoodResponse	0	0.246	n/a	11	75	ButtonPress	AvoidedLoss	False
708.471	3.95	Lose2	0.6579	0.0	Yes	2.929	0.0	2.0	GoodResponse	0	0.393	707.864	11	75	Fixation	AvoidedLoss	False
708.864	0.3	Lose2	0.6579	0.0	Yes	2.929	0.0	2.0	GoodResponse	0	0.393	n/a	11	75	ButtonPress	AvoidedLoss	False
712.419	0.17	Lose2	0.6579	0.002	Yes	2.929	-0.002	2.0	GoodResponse	0	0.165	711.584	11	75	Target	AvoidedLoss	False
712.584	0.3	Lose2	0.6579	0.002	Yes	2.929	-0.002	2.0	GoodResponse	0	0.165	n/a	11	75	ButtonPress	AvoidedLoss	False
712.602	0.53	Lose2	0.6579	n/a	Yes	2.929	n/a	n/a	GoodResponse	0	n/a	n/a	11	75	Blank	AvoidedLoss	False
713.119	1.45	Lose2	0.6579	n/a	Yes	2.929	n/a	5.0	GoodResponse	0	0.022	712.141	11	75	Feedback	AvoidedLoss	False
714.568	2.929	Lose2	0.6579	n/a	Yes	2.929	n/a	n/a	GoodResponse	0	0.0	n/a	11	75	ISIslide	AvoidedLoss	False
717.517	0.25	Control	0.6494	0.0	No	3.233	0.017	n/a	NoResponse	0	n/a	n/a	11	76	Cue	Neutral	False
717.767	4.05	Control	0.6494	0.0	No	3.233	0.0	n/a	NoResponse	0	n/a	n/a	11	76	Fixation	Neutral	False
721.816	0.17	Control	0.6494	0.001	No	3.233	-0.001	n/a	NoResponse	0	n/a	n/a	11	76	Target	Neutral	False
721.983	0.53	Control	0.6494	n/a	No	3.233	n/a	n/a	NoResponse	0	n/a	n/a	11	76	Blank	Neutral	False
722.516	1.45	Control	0.6494	n/a	No	3.233	n/a	5.0	NoResponse	0	0.04	721.556	11	76	Feedback	Neutral	False
723.965	3.233	Control	0.6494	n/a	No	3.233	n/a	n/a	NoResponse	0	0.0	n/a	11	76	ISIslide	Neutral	False
727.214	0.25	Lose2	0.6537999999999999	0.0	Yes	2.586	0.014	n/a	GoodResponse	0	n/a	n/a	11	77	Cue	AvoidedLoss	True
727.464	3.95	Lose2	0.6537999999999999	0.0	Yes	2.586	0.0	n/a	GoodResponse	0	n/a	n/a	11	77	Fixation	AvoidedLoss	True
731.413	0.18	Lose2	0.6537999999999999	0.001	Yes	2.586	-0.001	2.0	GoodResponse	0	0.175	730.588	11	77	Target	AvoidedLoss	True
731.588	0.3	Lose2	0.6537999999999999	0.001	Yes	2.586	-0.001	2.0	GoodResponse	0	0.175	n/a	11	77	ButtonPress	AvoidedLoss	True
731.596	0.52	Lose2	0.6537999999999999	n/a	Yes	2.586	n/a	n/a	GoodResponse	0	n/a	n/a	11	77	Blank	AvoidedLoss	True
732.112	1.45	Lose2	0.6537999999999999	n/a	Yes	2.586	n/a	5.0	GoodResponse	0	0.007	731.119	11	77	Feedback	AvoidedLoss	True
733.562	2.586	Lose2	0.6537999999999999	n/a	Yes	2.586	n/a	n/a	GoodResponse	0	0.0	n/a	11	77	ISIslide	AvoidedLoss	True
