onset	duration	cue_type	current_mean_accuracy	duration_error	is_hit	isi_adjusted	onset_delay	response	response_type	reward	rt	rt_time	total_reward	trial_number	trial_phase	trial_type	one_press
11.096	0.25	Control	1.0	0.0	Yes	2.954	-0.004	n/a	GoodResponse	0	n/a	n/a	0	0	Cue	Neutral	True
11.346	3.85	Control	1.0	0.0	Yes	2.954	0.0	n/a	GoodResponse	0	n/a	n/a	0	0	Fixation	Neutral	True
15.194	0.4	Control	1.0	0.002	Yes	2.954	-0.002	1.0	GoodResponse	0	0.293	14.487	0	0	Target	Neutral	True
15.487	0.3	Control	1.0	0.002	Yes	2.954	-0.002	1.0	GoodResponse	0	0.293	n/a	0	0	ButtonPress	Neutral	True
15.594	0.3	Control	1.0	n/a	Yes	2.954	n/a	n/a	GoodResponse	0	n/a	n/a	0	0	Blank	Neutral	True
15.894	1.45	Control	1.0	n/a	Yes	2.954	n/a	5.0	GoodResponse	0	0.033	14.927	0	0	Feedback	Neutral	True
17.344	2.954	Control	1.0	n/a	Yes	2.954	n/a	n/a	GoodResponse	0	0.0	n/a	0	0	ISIslide	Neutral	True
20.326	0.25	Lose2	1.0	0.0	Yes	2.774	0.026	n/a	GoodResponse	0	n/a	n/a	0	1	Cue	AvoidedLoss	True
20.576	4.0	Lose2	1.0	0.0	Yes	2.774	0.0	n/a	GoodResponse	0	n/a	n/a	0	1	Fixation	AvoidedLoss	True
24.574	0.39	Lose2	1.0	0.002	Yes	2.774	-0.002	1.0	GoodResponse	0	0.342	23.916	0	1	Target	AvoidedLoss	True
24.916	0.3	Lose2	1.0	0.002	Yes	2.774	-0.002	1.0	GoodResponse	0	0.342	n/a	0	1	ButtonPress	AvoidedLoss	True
24.974	0.31	Lose2	1.0	n/a	Yes	2.774	n/a	n/a	GoodResponse	0	n/a	n/a	0	1	Blank	AvoidedLoss	True
25.274	1.45	Lose2	1.0	n/a	Yes	2.774	n/a	5.0	GoodResponse	0	0.019	24.293	0	1	Feedback	AvoidedLoss	True
26.724	2.774	Lose2	1.0	n/a	Yes	2.774	n/a	n/a	GoodResponse	0	0.0	n/a	0	1	ISIslide	AvoidedLoss	True
29.523	0.25	Control	1.0	0.0	Yes	2.577	0.023	n/a	GoodResponse	0	n/a	n/a	0	2	Cue	Neutral	True
29.773	4.1	Control	1.0	0.0	Yes	2.577	0.0	n/a	GoodResponse	0	n/a	n/a	0	2	Fixation	Neutral	True
33.871	0.38	Control	1.0	0.002	Yes	2.577	-0.002	1.0	GoodResponse	0	0.258	33.129	0	2	Target	Neutral	True
34.129	0.3	Control	1.0	0.002	Yes	2.577	-0.002	1.0	GoodResponse	0	0.258	n/a	0	2	ButtonPress	Neutral	True
34.254	0.32	Control	1.0	n/a	Yes	2.577	n/a	n/a	GoodResponse	0	n/a	n/a	0	2	Blank	Neutral	True
34.571	1.45	Control	1.0	n/a	Yes	2.577	n/a	5.0	GoodResponse	0	0.038	33.609	0	2	Feedback	Neutral	True
36.02	2.577	Control	1.0	n/a	Yes	2.577	n/a	n/a	GoodResponse	0	0.0	n/a	0	2	ISIslide	Neutral	True
38.619	0.25	Win2	1.0	0.001	Yes	2.831	0.019	n/a	GoodResponse	1	n/a	n/a	1	3	Cue	Win	True
38.869	3.95	Win2	1.0	0.0	Yes	2.831	0.0	n/a	GoodResponse	1	n/a	n/a	1	3	Fixation	Win	True
42.818	0.37	Win2	1.0	0.001	Yes	2.831	-0.001	1.0	GoodResponse	1	0.263	42.081	1	3	Target	Win	True
43.081	0.3	Win2	1.0	0.001	Yes	2.831	-0.001	1.0	GoodResponse	1	0.263	n/a	1	3	ButtonPress	Win	True
43.185	0.33	Win2	1.0	n/a	Yes	2.831	n/a	n/a	GoodResponse	1	n/a	n/a	1	3	Blank	Win	True
43.518	1.45	Win2	1.0	n/a	Yes	2.831	n/a	5.0	GoodResponse	1	0.018	42.536	1	3	Feedback	Win	True
44.967	2.831	Win2	1.0	n/a	Yes	2.831	n/a	n/a	GoodResponse	1	0.0	n/a	1	3	ISIslide	Win	True
47.816	0.25	Win2	1.0	0.0	Yes	3.284	0.016	n/a	GoodResponse	1	n/a	n/a	2	4	Cue	Win	True
48.066	4.0	Win2	1.0	0.0	Yes	3.284	0.0	n/a	GoodResponse	1	n/a	n/a	2	4	Fixation	Win	True
52.065	0.36	Win2	1.0	0.001	Yes	3.284	-0.001	1.0	GoodResponse	1	0.324	51.389	2	4	Target	Win	True
52.389	0.3	Win2	1.0	0.001	Yes	3.284	-0.001	1.0	GoodResponse	1	0.324	n/a	2	4	ButtonPress	Win	True
52.431	0.34	Win2	1.0	n/a	Yes	3.284	n/a	n/a	GoodResponse	1	n/a	n/a	2	4	Blank	Win	True
52.764	1.45	Win2	1.0	n/a	Yes	3.284	n/a	5.0	GoodResponse	1	0.04	51.804	2	4	Feedback	Win	True
54.214	3.284	Win2	1.0	n/a	Yes	3.284	n/a	n/a	GoodResponse	1	0.0	n/a	2	4	ISIslide	Win	True
57.513	0.25	Win2	1.0	0.0	Yes	2.787	0.013	n/a	GoodResponse	1	n/a	n/a	3	5	Cue	Win	True
57.763	4.0	Win2	1.0	0.0	Yes	2.787	0.0	n/a	GoodResponse	1	n/a	n/a	3	5	Fixation	Win	True
61.761	0.35	Win2	1.0	0.002	Yes	2.787	-0.002	1.0	GoodResponse	1	0.281	61.042	3	5	Target	Win	True
62.042	0.3	Win2	1.0	0.002	Yes	2.787	-0.002	1.0	GoodResponse	1	0.281	n/a	3	5	ButtonPress	Win	True
62.111	0.35	Win2	1.0	n/a	Yes	2.787	n/a	n/a	GoodResponse	1	n/a	n/a	3	5	Blank	Win	True
62.461	1.45	Win2	1.0	n/a	Yes	2.787	n/a	5.0	GoodResponse	1	0.002	61.463	3	5	Feedback	Win	True
63.911	2.787	Win2	1.0	n/a	Yes	2.787	n/a	n/a	GoodResponse	1	0.0	n/a	3	5	ISIslide	Win	True
66.726	0.25	Lose2	1.0	0.0	Yes	2.724	0.026	n/a	GoodResponse	0	n/a	n/a	3	6	Cue	AvoidedLoss	True
66.976	3.95	Lose2	1.0	0.0	Yes	2.724	0.0	n/a	GoodResponse	0	n/a	n/a	3	6	Fixation	AvoidedLoss	True
70.925	0.34	Lose2	1.0	0.001	Yes	2.724	-0.001	1.0	GoodResponse	0	0.305	70.23	3	6	Target	AvoidedLoss	True
71.23	0.3	Lose2	1.0	0.001	Yes	2.724	-0.001	1.0	GoodResponse	0	0.305	n/a	3	6	ButtonPress	AvoidedLoss	True
71.275	0.36	Lose2	1.0	n/a	Yes	2.724	n/a	n/a	GoodResponse	0	n/a	n/a	3	6	Blank	AvoidedLoss	True
71.625	1.45	Lose2	1.0	n/a	Yes	2.724	n/a	5.0	GoodResponse	0	0.008	70.633	3	6	Feedback	AvoidedLoss	True
73.074	2.724	Lose2	1.0	n/a	Yes	2.724	n/a	n/a	GoodResponse	0	0.0	n/a	3	6	ISIslide	AvoidedLoss	True
75.823	0.25	Lose2	1.0	0.0	Yes	4.027	0.023	n/a	GoodResponse	0	n/a	n/a	3	7	Cue	AvoidedLoss	True
76.073	4.05	Lose2	1.0	0.0	Yes	4.027	0.0	n/a	GoodResponse	0	n/a	n/a	3	7	Fixation	AvoidedLoss	True
80.122	0.33	Lose2	1.0	0.001	Yes	4.027	-0.001	1.0	GoodResponse	0	0.272	79.394	3	7	Target	AvoidedLoss	True
80.394	0.3	Lose2	1.0	0.001	Yes	4.027	-0.001	1.0	GoodResponse	0	0.272	n/a	3	7	ButtonPress	AvoidedLoss	True
80.455	0.37	Lose2	1.0	n/a	Yes	4.027	n/a	n/a	GoodResponse	0	n/a	n/a	3	7	Blank	AvoidedLoss	True
80.821	1.45	Lose2	1.0	n/a	Yes	4.027	n/a	5.0	GoodResponse	0	0.032	79.853	3	7	Feedback	AvoidedLoss	True
82.271	4.027	Lose2	1.0	n/a	Yes	4.027	n/a	n/a	GoodResponse	0	0.0	n/a	3	7	ISIslide	AvoidedLoss	True
86.319	0.25	Lose2	0.8889	0.0	No	3.031	0.019	n/a	NoResponse	-1	n/a	n/a	2	8	Cue	Loss	True
86.569	3.95	Lose2	0.8889	0.0	No	3.031	0.0	n/a	NoResponse	-1	n/a	n/a	2	8	Fixation	Loss	True
90.518	0.32	Lose2	0.8889	0.001	No	3.031	-0.001	1.0	NoResponse	-1	0.356	89.874	2	8	Target	Loss	True
90.834	0.38	Lose2	0.8889	n/a	No	3.031	n/a	n/a	NoResponse	-1	n/a	n/a	2	8	Blank	Loss	True
90.874	0.3	Lose2	0.8889	0.001	No	3.031	-0.001	1.0	NoResponse	-1	0.356	n/a	2	8	ButtonPress	Loss	True
91.218	1.45	Lose2	0.8889	n/a	No	3.031	n/a	5.0	NoResponse	-1	0.025	90.243	2	8	Feedback	Loss	True
92.667	3.031	Lose2	0.8889	n/a	No	3.031	n/a	n/a	NoResponse	-1	0.0	n/a	2	8	ISIslide	Loss	True
95.716	0.25	Lose2	0.9	0.0	Yes	3.134	0.016	n/a	GoodResponse	0	n/a	n/a	2	9	Cue	AvoidedLoss	True
95.966	3.95	Lose2	0.9	0.0	Yes	3.134	0.0	n/a	GoodResponse	0	n/a	n/a	2	9	Fixation	AvoidedLoss	True
99.915	0.31	Lose2	0.9	0.001	Yes	3.134	-0.001	1.0	GoodResponse	0	0.241	99.156	2	9	Target	AvoidedLoss	True
100.156	0.3	Lose2	0.9	0.001	Yes	3.134	-0.001	1.0	GoodResponse	0	0.241	n/a	2	9	ButtonPress	AvoidedLoss	True
100.231	0.39	Lose2	0.9	n/a	Yes	3.134	n/a	n/a	GoodResponse	0	n/a	n/a	2	9	Blank	AvoidedLoss	True
100.614	1.45	Lose2	0.9	n/a	Yes	3.134	n/a	5.0	GoodResponse	0	0.044	99.658	2	9	Feedback	AvoidedLoss	True
102.064	3.134	Lose2	0.9	n/a	Yes	3.134	n/a	n/a	GoodResponse	0	0.0	n/a	2	9	ISIslide	AvoidedLoss	True
105.229	0.25	Control	0.9091	0.0	Yes	3.271	0.029	n/a	GoodResponse	0	n/a	n/a	2	10	Cue	Neutral	True
105.479	4.0	Control	0.9091	0.0	Yes	3.271	0.0	n/a	GoodResponse	0	n/a	n/a	2	10	Fixation	Neutral	True
109.478	0.3	Control	0.9091	0.001	Yes	3.271	-0.001	1.0	GoodResponse	0	0.275	108.753	2	10	Target	Neutral	True
109.753	0.3	Control	0.9091	0.001	Yes	3.271	-0.001	1.0	GoodResponse	0	0.275	n/a	2	10	ButtonPress	Neutral	True
109.778	0.4	Control	0.9091	n/a	Yes	3.271	n/a	n/a	GoodResponse	0	n/a	n/a	2	10	Blank	Neutral	True
110.178	1.45	Control	0.9091	n/a	Yes	3.271	n/a	5.0	GoodResponse	0	0.041	109.219	2	10	Feedback	Neutral	True
111.627	3.271	Control	0.9091	n/a	Yes	3.271	n/a	n/a	GoodResponse	0	0.0	n/a	2	10	ISIslide	Neutral	True
114.926	0.25	Lose2	0.8332999999999999	0.0	No	2.724	0.026	n/a	NoResponse	-1	n/a	n/a	1	11	Cue	Loss	True
115.176	4.05	Lose2	0.8332999999999999	0.0	No	2.724	0.0	n/a	NoResponse	-1	n/a	n/a	1	11	Fixation	Loss	True
119.224	0.29	Lose2	0.8332999999999999	0.002	No	2.724	-0.002	1.0	NoResponse	-1	0.349	118.573	1	11	Target	Loss	True
119.524	0.41	Lose2	0.8332999999999999	n/a	No	2.724	n/a	n/a	NoResponse	-1	n/a	n/a	1	11	Blank	Loss	True
119.573	0.3	Lose2	0.8332999999999999	0.002	No	2.724	-0.002	1.0	NoResponse	-1	0.349	n/a	1	11	ButtonPress	Loss	True
119.924	1.45	Lose2	0.8332999999999999	n/a	No	2.724	n/a	5.0	NoResponse	-1	0.001	118.925	1	11	Feedback	Loss	True
121.374	2.724	Lose2	0.8332999999999999	n/a	No	2.724	n/a	n/a	NoResponse	-1	0.0	n/a	1	11	ISIslide	Loss	True
124.123	0.25	Control	0.8462000000000001	0.0	Yes	2.977	0.023	n/a	GoodResponse	0	n/a	n/a	1	12	Cue	Neutral	True
124.373	3.9	Control	0.8462000000000001	0.0	Yes	2.977	0.0	n/a	GoodResponse	0	n/a	n/a	1	12	Fixation	Neutral	True
128.271	0.28	Control	0.8462000000000001	0.002	Yes	2.977	-0.002	1.0	GoodResponse	0	0.241	127.512	1	12	Target	Neutral	True
128.512	0.3	Control	0.8462000000000001	0.002	Yes	2.977	-0.002	1.0	GoodResponse	0	0.241	n/a	1	12	ButtonPress	Neutral	True
128.554	0.42	Control	0.8462000000000001	n/a	Yes	2.977	n/a	n/a	GoodResponse	0	n/a	n/a	1	12	Blank	Neutral	True
128.971	1.45	Control	0.8462000000000001	n/a	Yes	2.977	n/a	5.0	GoodResponse	0	0.028	127.999	1	12	Feedback	Neutral	True
130.42	2.977	Control	0.8462000000000001	n/a	Yes	2.977	n/a	n/a	GoodResponse	0	0.0	n/a	1	12	ISIslide	Neutral	True
133.419	0.25	Control	0.8571	0.0	Yes	2.781	0.019	n/a	GoodResponse	0	n/a	n/a	1	13	Cue	Neutral	True
133.669	4.0	Control	0.8571	0.0	Yes	2.781	0.0	n/a	GoodResponse	0	n/a	n/a	1	13	Fixation	Neutral	True
137.668	0.27	Control	0.8571	0.001	Yes	2.781	-0.001	1.0	GoodResponse	0	0.232	136.9	1	13	Target	Neutral	True
137.9	0.3	Control	0.8571	0.001	Yes	2.781	-0.001	1.0	GoodResponse	0	0.232	n/a	1	13	ButtonPress	Neutral	True
137.934	0.43	Control	0.8571	n/a	Yes	2.781	n/a	n/a	GoodResponse	0	n/a	n/a	1	13	Blank	Neutral	True
138.368	1.45	Control	0.8571	n/a	Yes	2.781	n/a	5.0	GoodResponse	0	0.005	137.373	1	13	Feedback	Neutral	True
139.817	2.781	Control	0.8571	n/a	Yes	2.781	n/a	n/a	GoodResponse	0	0.0	n/a	1	13	ISIslide	Neutral	True
142.616	0.25	Win2	0.8667	0.0	Yes	2.684	0.016	n/a	GoodResponse	1	n/a	n/a	2	14	Cue	Win	True
142.866	4.1	Win2	0.8667	0.0	Yes	2.684	0.0	n/a	GoodResponse	1	n/a	n/a	2	14	Fixation	Win	True
146.965	0.26	Win2	0.8667	0.001	Yes	2.684	-0.001	1.0	GoodResponse	1	0.243	146.208	2	14	Target	Win	True
147.208	0.3	Win2	0.8667	0.001	Yes	2.684	-0.001	1.0	GoodResponse	1	0.243	n/a	2	14	ButtonPress	Win	True
147.231	0.44	Win2	0.8667	n/a	Yes	2.684	n/a	n/a	GoodResponse	1	n/a	n/a	2	14	Blank	Win	True
147.664	1.45	Win2	0.8667	n/a	Yes	2.684	n/a	5.0	GoodResponse	1	0.018	146.682	2	14	Feedback	Win	True
149.114	2.684	Win2	0.8667	n/a	Yes	2.684	n/a	n/a	GoodResponse	1	0.0	n/a	2	14	ISIslide	Win	True
151.83	0.25	Control	0.8125	0.0	No	2.97	0.03	n/a	NoResponse	0	n/a	n/a	2	15	Cue	Neutral	True
152.08	4.0	Control	0.8125	0.0	No	2.97	0.0	n/a	NoResponse	0	n/a	n/a	2	15	Fixation	Neutral	True
156.078	0.25	Control	0.8125	0.002	No	2.97	-0.002	1.0	NoResponse	0	0.435	155.513	2	15	Target	Neutral	True
156.328	0.45	Control	0.8125	n/a	No	2.97	n/a	n/a	NoResponse	0	n/a	n/a	2	15	Blank	Neutral	True
156.513	0.3	Control	0.8125	0.002	No	2.97	-0.002	1.0	NoResponse	0	0.435	n/a	2	15	ButtonPress	Neutral	True
156.778	1.45	Control	0.8125	n/a	No	2.97	n/a	5.0	NoResponse	0	0.025	155.803	2	15	Feedback	Neutral	True
158.227	2.97	Control	0.8125	n/a	No	2.97	n/a	n/a	NoResponse	0	0.0	n/a	2	15	ISIslide	Neutral	True
161.226	0.25	Win2	0.8234999999999999	0.0	Yes	2.874	0.026	n/a	GoodResponse	1	n/a	n/a	3	16	Cue	Win	True
161.493	4.0	Win2	0.8234999999999999	0.0	Yes	2.874	0.017	n/a	GoodResponse	1	n/a	n/a	3	16	Fixation	Win	True
165.475	0.24	Win2	0.8234999999999999	0.001	Yes	2.874	-0.001	1.0	GoodResponse	1	0.232	164.707	3	16	Target	Win	True
165.707	0.3	Win2	0.8234999999999999	0.001	Yes	2.874	-0.001	1.0	GoodResponse	1	0.232	n/a	3	16	ButtonPress	Win	True
165.725	0.46	Win2	0.8234999999999999	n/a	Yes	2.874	n/a	n/a	GoodResponse	1	n/a	n/a	3	16	Blank	Win	True
166.175	1.45	Win2	0.8234999999999999	n/a	Yes	2.874	n/a	5.0	GoodResponse	1	0.0	165.175	3	16	Feedback	Win	True
167.624	2.874	Win2	0.8234999999999999	n/a	Yes	2.874	n/a	n/a	GoodResponse	1	0.0	n/a	3	16	ISIslide	Win	True
170.523	0.25	Lose2	0.7778	0.0	No	2.727	0.023	n/a	NoResponse	-1	n/a	n/a	2	17	Cue	Loss	True
170.773	3.95	Lose2	0.7778	0.0	No	2.727	0.0	n/a	NoResponse	-1	n/a	n/a	2	17	Fixation	Loss	True
174.722	0.23	Lose2	0.7778	0.001	No	2.727	-0.001	1.0	NoResponse	-1	0.281	174.003	2	17	Target	Loss	True
174.955	0.47	Lose2	0.7778	n/a	No	2.727	n/a	n/a	NoResponse	-1	n/a	n/a	2	17	Blank	Loss	True
175.003	0.3	Lose2	0.7778	0.001	No	2.727	-0.001	1.0	NoResponse	-1	0.281	n/a	2	17	ButtonPress	Loss	True
175.421	1.45	Lose2	0.7778	n/a	No	2.727	n/a	5.0	NoResponse	-1	0.016	174.437	2	17	Feedback	Loss	True
176.871	2.727	Lose2	0.7778	n/a	No	2.727	n/a	n/a	NoResponse	-1	0.0	n/a	2	17	ISIslide	Loss	True
179.62	0.25	Lose2	0.7368000000000001	0.0	No	2.73	0.02	n/a	NoResponse	-1	n/a	n/a	1	18	Cue	Loss	True
179.87	4.05	Lose2	0.7368000000000001	0.0	No	2.73	0.0	n/a	NoResponse	-1	n/a	n/a	1	18	Fixation	Loss	True
183.918	0.22	Lose2	0.7368000000000001	0.002	No	2.73	-0.002	1.0	NoResponse	-1	0.284	183.202	1	18	Target	Loss	True
184.152	0.48	Lose2	0.7368000000000001	n/a	No	2.73	n/a	n/a	NoResponse	-1	n/a	n/a	1	18	Blank	Loss	True
184.202	0.3	Lose2	0.7368000000000001	0.002	No	2.73	-0.002	1.0	NoResponse	-1	0.284	n/a	1	18	ButtonPress	Loss	True
184.618	1.45	Lose2	0.7368000000000001	n/a	No	2.73	n/a	5.0	NoResponse	-1	0.039	183.657	1	18	Feedback	Loss	True
186.068	2.73	Lose2	0.7368000000000001	n/a	No	2.73	n/a	n/a	NoResponse	-1	0.0	n/a	1	18	ISIslide	Loss	True
188.817	0.25	Control	0.7	0.0	No	2.933	0.017	n/a	NoResponse	0	n/a	n/a	1	19	Cue	Neutral	True
189.066	3.95	Control	0.7	0.001	No	2.933	-0.001	n/a	NoResponse	0	n/a	n/a	1	19	Fixation	Neutral	True
193.015	0.21	Control	0.7	0.002	No	2.933	-0.002	1.0	NoResponse	0	0.376	192.391	1	19	Target	Neutral	True
193.232	0.49	Control	0.7	n/a	No	2.933	n/a	n/a	NoResponse	0	n/a	n/a	1	19	Blank	Neutral	True
193.391	0.3	Control	0.7	0.002	No	2.933	-0.002	1.0	NoResponse	0	0.376	n/a	1	19	ButtonPress	Neutral	True
193.715	1.45	Control	0.7	n/a	No	2.933	n/a	5.0	NoResponse	0	0.015	192.73	1	19	Feedback	Neutral	True
195.164	2.933	Control	0.7	n/a	No	2.933	n/a	n/a	NoResponse	0	0.0	n/a	1	19	ISIslide	Neutral	True
198.113	0.25	Control	0.6667000000000001	0.0	No	2.637	0.013	n/a	NoResponse	0	n/a	n/a	1	20	Cue	Neutral	True
198.363	4.05	Control	0.6667000000000001	0.0	No	2.637	0.0	n/a	NoResponse	0	n/a	n/a	1	20	Fixation	Neutral	True
202.412	0.2	Control	0.6667000000000001	0.001	No	2.637	-0.001	1.0	NoResponse	0	0.432	201.844	1	20	Target	Neutral	True
202.612	0.5	Control	0.6667000000000001	n/a	No	2.637	n/a	n/a	NoResponse	0	n/a	n/a	1	20	Blank	Neutral	True
202.844	0.3	Control	0.6667000000000001	0.001	No	2.637	-0.001	1.0	NoResponse	0	0.432	n/a	1	20	ButtonPress	Neutral	True
203.112	1.45	Control	0.6667000000000001	n/a	No	2.637	n/a	5.0	NoResponse	0	0.032	202.144	1	20	Feedback	Neutral	True
204.561	2.637	Control	0.6667000000000001	n/a	No	2.637	n/a	n/a	NoResponse	0	0.0	n/a	1	20	ISIslide	Neutral	True
207.227	0.25	Control	0.6364	0.0	No	2.773	0.027	n/a	NoResponse	0	n/a	n/a	1	21	Cue	Neutral	True
207.477	4.1	Control	0.6364	0.0	No	2.773	0.0	n/a	NoResponse	0	n/a	n/a	1	21	Fixation	Neutral	True
211.575	0.19	Control	0.6364	0.003	No	2.773	-0.002	1.0	NoResponse	0	0.264	210.839	1	21	Target	Neutral	True
211.775	0.51	Control	0.6364	n/a	No	2.773	n/a	n/a	NoResponse	0	n/a	n/a	1	21	Blank	Neutral	True
211.839	0.3	Control	0.6364	0.003	No	2.773	-0.002	1.0	NoResponse	0	0.264	n/a	1	21	ButtonPress	Neutral	True
212.275	1.45	Control	0.6364	n/a	No	2.773	n/a	5.0	NoResponse	0	0.04	211.315	1	21	Feedback	Neutral	True
213.724	2.773	Control	0.6364	n/a	No	2.773	n/a	n/a	NoResponse	0	0.0	n/a	1	21	ISIslide	Neutral	True
216.523	0.25	Control	0.6087	0.001	No	2.777	0.023	n/a	NoResponse	0	n/a	n/a	1	22	Cue	Neutral	True
216.773	4.0	Control	0.6087	0.0	No	2.777	0.0	n/a	NoResponse	0	n/a	n/a	1	22	Fixation	Neutral	True
220.772	0.2	Control	0.6087	0.001	No	2.777	-0.001	1.0	NoResponse	0	0.276	220.048	1	22	Target	Neutral	True
220.972	0.5	Control	0.6087	n/a	No	2.777	n/a	n/a	NoResponse	0	n/a	n/a	1	22	Blank	Neutral	True
221.048	0.3	Control	0.6087	0.001	No	2.777	-0.001	1.0	NoResponse	0	0.276	n/a	1	22	ButtonPress	Neutral	True
221.472	1.45	Control	0.6087	n/a	No	2.777	n/a	5.0	NoResponse	0	0.014	220.486	1	22	Feedback	Neutral	True
222.921	2.777	Control	0.6087	n/a	No	2.777	n/a	n/a	NoResponse	0	0.0	n/a	1	22	ISIslide	Neutral	True
225.72	0.25	Control	0.5832999999999999	0.0	No	2.78	0.02	n/a	NoResponse	0	n/a	n/a	1	23	Cue	Neutral	True
225.97	3.9	Control	0.5832999999999999	0.0	No	2.78	0.0	n/a	NoResponse	0	n/a	n/a	1	23	Fixation	Neutral	True
229.869	0.21	Control	0.5832999999999999	0.001	No	2.78	-0.001	1.0	NoResponse	0	0.268	229.137	1	23	Target	Neutral	True
230.085	0.49	Control	0.5832999999999999	n/a	No	2.78	n/a	n/a	NoResponse	0	n/a	n/a	1	23	Blank	Neutral	True
230.137	0.3	Control	0.5832999999999999	0.001	No	2.78	-0.001	1.0	NoResponse	0	0.268	n/a	1	23	ButtonPress	Neutral	True
230.569	1.45	Control	0.5832999999999999	n/a	No	2.78	n/a	5.0	NoResponse	0	0.039	229.608	1	23	Feedback	Neutral	True
232.018	2.78	Control	0.5832999999999999	n/a	No	2.78	n/a	n/a	NoResponse	0	0.0	n/a	1	23	ISIslide	Neutral	True
234.817	0.25	Win2	0.56	0.0	No	3.133	0.017	n/a	LatePress	0	n/a	n/a	1	24	Cue	MissedWin	True
235.067	3.95	Win2	0.56	0.0	No	3.133	0.0	n/a	LatePress	0	n/a	n/a	1	24	Fixation	MissedWin	True
239.016	0.22	Win2	0.56	0.001	No	3.133	-0.001	1.0	LatePress	0	0.224	238.24	1	24	Target	MissedWin	True
239.24	0.3	Win2	0.56	0.001	No	3.133	-0.001	1.0	LatePress	0	0.224	n/a	1	24	ButtonPress	MissedWin	True
239.249	0.48	Win2	0.56	n/a	No	3.133	n/a	n/a	LatePress	0	n/a	n/a	1	24	Blank	MissedWin	True
239.715	1.45	Win2	0.56	n/a	No	3.133	n/a	5.0	LatePress	0	0.015	238.73	1	24	Feedback	MissedWin	True
241.165	3.133	Win2	0.56	n/a	No	3.133	n/a	n/a	LatePress	0	0.0	n/a	1	24	ISIslide	MissedWin	True
244.33	0.25	Win2	0.5769	0.0	Yes	3.07	0.03	n/a	GoodResponse	1	n/a	n/a	2	25	Cue	Win	True
244.58	4.0	Win2	0.5769	0.0	Yes	3.07	0.0	n/a	GoodResponse	1	n/a	n/a	2	25	Fixation	Win	True
248.579	0.23	Win2	0.5769	0.001	Yes	3.07	-0.001	1.0	GoodResponse	1	0.21	247.789	2	25	Target	Win	True
248.789	0.3	Win2	0.5769	0.001	Yes	3.07	-0.001	1.0	GoodResponse	1	0.21	n/a	2	25	ButtonPress	Win	True
248.812	0.47	Win2	0.5769	n/a	Yes	3.07	n/a	n/a	GoodResponse	1	n/a	n/a	2	25	Blank	Win	True
249.279	1.45	Win2	0.5769	n/a	Yes	3.07	n/a	5.0	GoodResponse	1	0.011	248.29	2	25	Feedback	Win	True
250.728	3.07	Win2	0.5769	n/a	Yes	3.07	n/a	n/a	GoodResponse	1	0.0	n/a	2	25	ISIslide	Win	True
253.827	0.25	Win2	0.5926	0.0	Yes	2.923	0.027	n/a	GoodResponse	1	n/a	n/a	3	26	Cue	Win	True
254.077	3.95	Win2	0.5926	0.0	Yes	2.923	0.0	n/a	GoodResponse	1	n/a	n/a	3	26	Fixation	Win	True
258.026	0.24	Win2	0.5926	0.001	Yes	2.923	-0.001	1.0	GoodResponse	1	0.218	257.244	3	26	Target	Win	True
258.244	0.3	Win2	0.5926	0.001	Yes	2.923	-0.001	1.0	GoodResponse	1	0.218	n/a	3	26	ButtonPress	Win	True
258.275	0.46	Win2	0.5926	n/a	Yes	2.923	n/a	n/a	GoodResponse	1	n/a	n/a	3	26	Blank	Win	True
258.725	1.45	Win2	0.5926	n/a	Yes	2.923	n/a	5.0	GoodResponse	1	0.028	257.753	3	26	Feedback	Win	True
260.175	2.923	Win2	0.5926	n/a	Yes	2.923	n/a	n/a	GoodResponse	1	0.0	n/a	3	26	ISIslide	Win	True
263.124	0.25	Lose2	0.6071	0.0	Yes	2.826	0.024	n/a	GoodResponse	0	n/a	n/a	3	27	Cue	AvoidedLoss	True
263.374	4.05	Lose2	0.6071	0.0	Yes	2.826	0.0	n/a	GoodResponse	0	n/a	n/a	3	27	Fixation	AvoidedLoss	True
267.422	0.25	Lose2	0.6071	0.002	Yes	2.826	-0.002	1.0	GoodResponse	0	0.241	266.663	3	27	Target	AvoidedLoss	True
267.663	0.3	Lose2	0.6071	0.002	Yes	2.826	-0.002	1.0	GoodResponse	0	0.241	n/a	3	27	ButtonPress	AvoidedLoss	True
267.672	0.45	Lose2	0.6071	n/a	Yes	2.826	n/a	n/a	GoodResponse	0	n/a	n/a	3	27	Blank	AvoidedLoss	True
268.122	1.45	Lose2	0.6071	n/a	Yes	2.826	n/a	5.0	GoodResponse	0	0.001	267.123	3	27	Feedback	AvoidedLoss	True
269.571	2.826	Lose2	0.6071	n/a	Yes	2.826	n/a	n/a	GoodResponse	0	0.0	n/a	3	27	ISIslide	AvoidedLoss	True
272.42	0.25	Control	0.6207	0.001	Yes	2.83	0.02	n/a	GoodResponse	0	n/a	n/a	3	28	Cue	Neutral	True
272.67	4.05	Control	0.6207	0.0	Yes	2.83	0.0	n/a	GoodResponse	0	n/a	n/a	3	28	Fixation	Neutral	True
276.719	0.26	Control	0.6207	0.001	Yes	2.83	-0.001	1.0	GoodResponse	0	0.257	275.976	3	28	Target	Neutral	True
276.976	0.3	Control	0.6207	0.001	Yes	2.83	-0.001	1.0	GoodResponse	0	0.257	n/a	3	28	ButtonPress	Neutral	True
276.985	0.44	Control	0.6207	n/a	Yes	2.83	n/a	n/a	GoodResponse	0	n/a	n/a	3	28	Blank	Neutral	True
277.419	1.45	Control	0.6207	n/a	Yes	2.83	n/a	5.0	GoodResponse	0	0.018	276.437	3	28	Feedback	Neutral	True
278.868	2.83	Control	0.6207	n/a	Yes	2.83	n/a	n/a	GoodResponse	0	0.0	n/a	3	28	ISIslide	Neutral	True
281.717	0.25	Lose2	0.6333	0.0	Yes	2.833	0.017	n/a	GoodResponse	0	n/a	n/a	3	29	Cue	AvoidedLoss	True
281.967	3.95	Lose2	0.6333	0.0	Yes	2.833	0.0	n/a	GoodResponse	0	n/a	n/a	3	29	Fixation	AvoidedLoss	True
285.916	0.27	Lose2	0.6333	0.001	Yes	2.833	-0.001	1.0	GoodResponse	0	0.221	285.137	3	29	Target	AvoidedLoss	True
286.137	0.3	Lose2	0.6333	0.001	Yes	2.833	-0.001	1.0	GoodResponse	0	0.221	n/a	3	29	ButtonPress	AvoidedLoss	True
286.199	0.43	Lose2	0.6333	n/a	Yes	2.833	n/a	n/a	GoodResponse	0	n/a	n/a	3	29	Blank	AvoidedLoss	True
286.615	1.45	Lose2	0.6333	n/a	Yes	2.833	n/a	5.0	GoodResponse	0	0.04	285.655	3	29	Feedback	AvoidedLoss	True
288.065	2.833	Lose2	0.6333	n/a	Yes	2.833	n/a	n/a	GoodResponse	0	0.0	n/a	3	29	ISIslide	AvoidedLoss	True
290.931	0.25	Win2	0.6452	0.0	Yes	2.769	0.031	n/a	GoodResponse	1	n/a	n/a	4	30	Cue	Win	True
291.18	3.9	Win2	0.6452	0.001	Yes	2.769	-0.001	n/a	GoodResponse	1	n/a	n/a	4	30	Fixation	Win	True
295.079	0.28	Win2	0.6452	0.002	Yes	2.769	-0.002	1.0	GoodResponse	1	0.203	294.282	4	30	Target	Win	True
295.282	0.3	Win2	0.6452	0.002	Yes	2.769	-0.002	1.0	GoodResponse	1	0.203	n/a	4	30	ButtonPress	Win	True
295.362	0.42	Win2	0.6452	n/a	Yes	2.769	n/a	n/a	GoodResponse	1	n/a	n/a	4	30	Blank	Win	True
295.779	1.45	Win2	0.6452	n/a	Yes	2.769	n/a	5.0	GoodResponse	1	0.047	294.826	4	30	Feedback	Win	True
297.228	2.769	Win2	0.6452	n/a	Yes	2.769	n/a	n/a	GoodResponse	1	0.0	n/a	4	30	ISIslide	Win	True
300.027	0.25	Lose2	0.6562	0.0	Yes	2.823	0.027	n/a	GoodResponse	0	n/a	n/a	4	31	Cue	AvoidedLoss	True
300.277	4.05	Lose2	0.6562	0.0	Yes	2.823	0.0	n/a	GoodResponse	0	n/a	n/a	4	31	Fixation	AvoidedLoss	True
304.326	0.29	Lose2	0.6562	0.001	Yes	2.823	-0.001	1.0	GoodResponse	0	0.266	303.592	4	31	Target	AvoidedLoss	True
304.592	0.3	Lose2	0.6562	0.001	Yes	2.823	-0.001	1.0	GoodResponse	0	0.266	n/a	4	31	ButtonPress	AvoidedLoss	True
304.626	0.41	Lose2	0.6562	n/a	Yes	2.823	n/a	n/a	GoodResponse	0	n/a	n/a	4	31	Blank	AvoidedLoss	True
305.026	1.45	Lose2	0.6562	n/a	Yes	2.823	n/a	5.0	GoodResponse	0	0.02	304.046	4	31	Feedback	AvoidedLoss	True
306.475	2.823	Lose2	0.6562	n/a	Yes	2.823	n/a	n/a	GoodResponse	0	0.0	n/a	4	31	ISIslide	AvoidedLoss	True
309.324	0.25	Lose2	0.6667000000000001	0.0	Yes	2.626	0.024	n/a	GoodResponse	0	n/a	n/a	4	32	Cue	AvoidedLoss	True
309.574	4.15	Lose2	0.6667000000000001	0.0	Yes	2.626	0.0	n/a	GoodResponse	0	n/a	n/a	4	32	Fixation	AvoidedLoss	True
313.723	0.29	Lose2	0.6667000000000001	0.001	Yes	2.626	-0.001	1.0	GoodResponse	0	0.256	312.979	4	32	Target	AvoidedLoss	True
313.979	0.3	Lose2	0.6667000000000001	0.001	Yes	2.626	-0.001	1.0	GoodResponse	0	0.256	n/a	4	32	ButtonPress	AvoidedLoss	True
314.022	0.41	Lose2	0.6667000000000001	n/a	Yes	2.626	n/a	n/a	GoodResponse	0	n/a	n/a	4	32	Blank	AvoidedLoss	True
314.422	1.45	Lose2	0.6667000000000001	n/a	Yes	2.626	n/a	5.0	GoodResponse	0	0.038	313.46	4	32	Feedback	AvoidedLoss	True
315.872	2.626	Lose2	0.6667000000000001	n/a	Yes	2.626	n/a	n/a	GoodResponse	0	0.0	n/a	4	32	ISIslide	AvoidedLoss	True
318.521	0.25	Win2	0.6470999999999999	0.0	No	2.679	0.021	n/a	NoResponse	0	n/a	n/a	4	33	Cue	MissedWin	True
318.771	4.0	Win2	0.6470999999999999	0.0	No	2.679	0.0	n/a	NoResponse	0	n/a	n/a	4	33	Fixation	MissedWin	True
322.769	0.28	Win2	0.6470999999999999	0.002	No	2.679	-0.002	1.0	NoResponse	0	0.325	322.094	4	33	Target	MissedWin	True
323.053	0.42	Win2	0.6470999999999999	n/a	No	2.679	n/a	n/a	NoResponse	0	n/a	n/a	4	33	Blank	MissedWin	True
323.094	0.3	Win2	0.6470999999999999	0.002	No	2.679	-0.002	1.0	NoResponse	0	0.325	n/a	4	33	ButtonPress	MissedWin	True
323.469	1.45	Win2	0.6470999999999999	n/a	No	2.679	n/a	5.0	NoResponse	0	0.016	322.485	4	33	Feedback	MissedWin	True
324.919	2.679	Win2	0.6470999999999999	n/a	No	2.679	n/a	n/a	NoResponse	0	0.0	n/a	4	33	ISIslide	MissedWin	True
327.618	0.25	Lose2	0.6286	0.0	No	2.632	0.018	n/a	NoResponse	-1	n/a	n/a	3	34	Cue	Loss	True
327.868	4.05	Lose2	0.6286	0.0	No	2.632	0.0	n/a	NoResponse	-1	n/a	n/a	3	34	Fixation	Loss	True
331.916	0.29	Lose2	0.6286	0.002	No	2.632	-0.002	1.0	NoResponse	-1	0.421	331.337	3	34	Target	Loss	True
332.216	0.41	Lose2	0.6286	n/a	No	2.632	n/a	n/a	NoResponse	-1	n/a	n/a	3	34	Blank	Loss	True
332.337	0.3	Lose2	0.6286	0.002	No	2.632	-0.002	1.0	NoResponse	-1	0.421	n/a	3	34	ButtonPress	Loss	True
332.616	1.45	Lose2	0.6286	n/a	No	2.632	n/a	5.0	NoResponse	-1	0.039	331.655	3	34	Feedback	Loss	True
334.065	2.632	Lose2	0.6286	n/a	No	2.632	n/a	n/a	NoResponse	-1	0.0	n/a	3	34	ISIslide	Loss	True
336.714	0.25	Lose2	0.6111	0.001	No	2.686	0.014	n/a	NoResponse	-1	n/a	n/a	2	35	Cue	Loss	True
336.964	4.0	Lose2	0.6111	0.0	No	2.686	0.0	n/a	NoResponse	-1	n/a	n/a	2	35	Fixation	Loss	True
340.963	0.3	Lose2	0.6111	0.001	No	2.686	-0.001	1.0	NoResponse	-1	0.376	340.339	2	35	Target	Loss	True
341.263	0.4	Lose2	0.6111	n/a	No	2.686	n/a	n/a	NoResponse	-1	n/a	n/a	2	35	Blank	Loss	True
341.339	0.3	Lose2	0.6111	0.001	No	2.686	-0.001	1.0	NoResponse	-1	0.376	n/a	2	35	ButtonPress	Loss	True
341.663	1.45	Lose2	0.6111	n/a	No	2.686	n/a	5.0	NoResponse	-1	0.016	340.679	2	35	Feedback	Loss	True
343.112	2.686	Lose2	0.6111	n/a	No	2.686	n/a	n/a	NoResponse	-1	0.0	n/a	2	35	ISIslide	Loss	True
345.828	0.25	Control	0.6215999999999999	0.0	Yes	2.672	0.028	n/a	GoodResponse	0	n/a	n/a	2	36	Cue	Neutral	True
346.078	4.0	Control	0.6215999999999999	0.0	Yes	2.672	0.0	n/a	GoodResponse	0	n/a	n/a	2	36	Fixation	Neutral	True
350.076	0.31	Control	0.6215999999999999	0.002	Yes	2.672	-0.002	1.0	GoodResponse	0	0.244	349.32	2	36	Target	Neutral	True
350.32	0.3	Control	0.6215999999999999	0.002	Yes	2.672	-0.002	1.0	GoodResponse	0	0.244	n/a	2	36	ButtonPress	Neutral	True
350.393	0.39	Control	0.6215999999999999	n/a	Yes	2.672	n/a	n/a	GoodResponse	0	n/a	n/a	2	36	Blank	Neutral	True
350.776	1.45	Control	0.6215999999999999	n/a	Yes	2.672	n/a	5.0	GoodResponse	0	0.025	349.801	2	36	Feedback	Neutral	True
352.226	2.672	Control	0.6215999999999999	n/a	Yes	2.672	n/a	n/a	GoodResponse	0	0.0	n/a	2	36	ISIslide	Neutral	True
354.925	0.25	Win2	0.6315999999999999	0.0	Yes	2.875	0.025	n/a	GoodResponse	1	n/a	n/a	3	37	Cue	Win	True
355.175	4.0	Win2	0.6315999999999999	0.0	Yes	2.875	0.0	n/a	GoodResponse	1	n/a	n/a	3	37	Fixation	Win	True
359.173	0.32	Win2	0.6315999999999999	0.002	Yes	2.875	-0.002	1.0	GoodResponse	1	0.251	358.424	3	37	Target	Win	True
359.424	0.3	Win2	0.6315999999999999	0.002	Yes	2.875	-0.002	1.0	GoodResponse	1	0.251	n/a	3	37	ButtonPress	Win	True
359.506	0.38	Win2	0.6315999999999999	n/a	Yes	2.875	n/a	n/a	GoodResponse	1	n/a	n/a	3	37	Blank	Win	True
359.873	1.45	Win2	0.6315999999999999	n/a	Yes	2.875	n/a	5.0	GoodResponse	1	0.002	358.875	3	37	Feedback	Win	True
361.322	2.875	Win2	0.6315999999999999	n/a	Yes	2.875	n/a	n/a	GoodResponse	1	0.0	n/a	3	37	ISIslide	Win	True
364.221	0.25	Lose2	0.6409999999999999	0.001	Yes	2.829	0.021	n/a	GoodResponse	0	n/a	n/a	3	38	Cue	AvoidedLoss	True
364.471	3.95	Lose2	0.6409999999999999	0.0	Yes	2.829	0.0	n/a	GoodResponse	0	n/a	n/a	3	38	Fixation	AvoidedLoss	True
368.42	0.33	Lose2	0.6409999999999999	0.001	Yes	2.829	-0.001	1.0	GoodResponse	0	0.236	367.656	3	38	Target	AvoidedLoss	True
368.656	0.3	Lose2	0.6409999999999999	0.001	Yes	2.829	-0.001	1.0	GoodResponse	0	0.236	n/a	3	38	ButtonPress	AvoidedLoss	True
368.753	0.37	Lose2	0.6409999999999999	n/a	Yes	2.829	n/a	n/a	GoodResponse	0	n/a	n/a	3	38	Blank	AvoidedLoss	True
369.12	1.45	Lose2	0.6409999999999999	n/a	Yes	2.829	n/a	5.0	GoodResponse	0	0.023	368.143	3	38	Feedback	AvoidedLoss	True
370.569	2.829	Lose2	0.6409999999999999	n/a	Yes	2.829	n/a	n/a	GoodResponse	0	0.0	n/a	3	38	ISIslide	AvoidedLoss	True
373.418	0.25	Win2	0.65	0.0	Yes	2.982	0.018	n/a	GoodResponse	1	n/a	n/a	4	39	Cue	Win	True
373.668	4.1	Win2	0.65	0.0	Yes	2.982	0.0	n/a	GoodResponse	1	n/a	n/a	4	39	Fixation	Win	True
377.767	0.34	Win2	0.65	0.001	Yes	2.982	-0.001	1.0	GoodResponse	1	0.222	376.989	4	39	Target	Win	True
377.989	0.3	Win2	0.65	0.001	Yes	2.982	-0.001	1.0	GoodResponse	1	0.222	n/a	4	39	ButtonPress	Win	True
378.117	0.36	Win2	0.65	n/a	Yes	2.982	n/a	n/a	GoodResponse	1	n/a	n/a	4	39	Blank	Win	True
378.466	1.45	Win2	0.65	n/a	Yes	2.982	n/a	5.0	GoodResponse	1	0.042	377.508	4	39	Feedback	Win	True
379.916	2.982	Win2	0.65	n/a	Yes	2.982	n/a	n/a	GoodResponse	1	0.0	n/a	4	39	ISIslide	Win	True
382.915	0.25	Win2	0.6585	0.0	Yes	2.735	0.015	n/a	GoodResponse	1	n/a	n/a	5	40	Cue	Win	True
383.165	3.95	Win2	0.6585	0.0	Yes	2.735	0.0	n/a	GoodResponse	1	n/a	n/a	5	40	Fixation	Win	True
387.113	0.35	Win2	0.6585	0.002	Yes	2.735	-0.002	1.0	GoodResponse	1	0.253	386.366	5	40	Target	Win	True
387.366	0.3	Win2	0.6585	0.002	Yes	2.735	-0.002	1.0	GoodResponse	1	0.253	n/a	5	40	ButtonPress	Win	True
387.463	0.35	Win2	0.6585	n/a	Yes	2.735	n/a	n/a	GoodResponse	1	n/a	n/a	5	40	Blank	Win	True
387.813	1.45	Win2	0.6585	n/a	Yes	2.735	n/a	5.0	GoodResponse	1	0.012	386.825	5	40	Feedback	Win	True
389.263	2.735	Win2	0.6585	n/a	Yes	2.735	n/a	n/a	GoodResponse	1	0.0	n/a	5	40	ISIslide	Win	True
392.028	0.25	Win2	0.6667000000000001	0.0	Yes	2.772	0.028	n/a	GoodResponse	1	n/a	n/a	6	41	Cue	Win	True
392.278	3.9	Win2	0.6667000000000001	0.0	Yes	2.772	0.0	n/a	GoodResponse	1	n/a	n/a	6	41	Fixation	Win	True
396.177	0.35	Win2	0.6667000000000001	0.001	Yes	2.772	-0.001	1.0	GoodResponse	1	0.259	395.436	6	41	Target	Win	True
396.436	0.3	Win2	0.6667000000000001	0.001	Yes	2.772	-0.001	1.0	GoodResponse	1	0.259	n/a	6	41	ButtonPress	Win	True
396.527	0.35	Win2	0.6667000000000001	n/a	Yes	2.772	n/a	n/a	GoodResponse	1	n/a	n/a	6	41	Blank	Win	True
396.877	1.45	Win2	0.6667000000000001	n/a	Yes	2.772	n/a	5.0	GoodResponse	1	0.021	395.898	6	41	Feedback	Win	True
398.326	2.772	Win2	0.6667000000000001	n/a	Yes	2.772	n/a	n/a	GoodResponse	1	0.0	n/a	6	41	ISIslide	Win	True
401.125	0.25	Control	0.6744	0.0	Yes	2.925	0.025	n/a	GoodResponse	0	n/a	n/a	6	42	Cue	Neutral	True
401.375	3.85	Control	0.6744	0.0	Yes	2.925	0.0	n/a	GoodResponse	0	n/a	n/a	6	42	Fixation	Neutral	True
405.224	0.34	Control	0.6744	0.001	Yes	2.925	-0.001	1.0	GoodResponse	0	0.283	404.507	6	42	Target	Neutral	True
405.507	0.3	Control	0.6744	0.001	Yes	2.925	-0.001	1.0	GoodResponse	0	0.283	n/a	6	42	ButtonPress	Neutral	True
405.574	0.36	Control	0.6744	n/a	Yes	2.925	n/a	n/a	GoodResponse	0	n/a	n/a	6	42	Blank	Neutral	True
405.923	1.45	Control	0.6744	n/a	Yes	2.925	n/a	5.0	GoodResponse	0	0.001	404.924	6	42	Feedback	Neutral	True
407.373	2.925	Control	0.6744	n/a	Yes	2.925	n/a	n/a	GoodResponse	0	0.0	n/a	6	42	ISIslide	Neutral	True
410.322	0.25	Win2	0.6818000000000001	0.0	Yes	3.178	0.022	n/a	GoodResponse	1	n/a	n/a	7	43	Cue	Win	True
410.572	4.0	Win2	0.6818000000000001	0.0	Yes	3.178	0.0	n/a	GoodResponse	1	n/a	n/a	7	43	Fixation	Win	True
414.57	0.33	Win2	0.6818000000000001	0.002	Yes	3.178	-0.002	1.0	GoodResponse	1	0.209	413.779	7	43	Target	Win	True
414.779	0.3	Win2	0.6818000000000001	0.002	Yes	3.178	-0.002	1.0	GoodResponse	1	0.209	n/a	7	43	ButtonPress	Win	True
414.904	0.37	Win2	0.6818000000000001	n/a	Yes	3.178	n/a	n/a	GoodResponse	1	n/a	n/a	7	43	Blank	Win	True
415.27	1.45	Win2	0.6818000000000001	n/a	Yes	3.178	n/a	5.0	GoodResponse	1	0.018	414.288	7	43	Feedback	Win	True
416.72	3.178	Win2	0.6818000000000001	n/a	Yes	3.178	n/a	n/a	GoodResponse	1	0.0	n/a	7	43	ISIslide	Win	True
419.918	0.25	Win2	0.6889	0.001	Yes	2.982	0.018	n/a	GoodResponse	1	n/a	n/a	8	44	Cue	Win	True
420.168	4.0	Win2	0.6889	0.001	Yes	2.982	0.0	n/a	GoodResponse	1	n/a	n/a	8	44	Fixation	Win	True
424.167	0.32	Win2	0.6889	0.001	Yes	2.982	-0.001	1.0	GoodResponse	1	0.267	423.434	8	44	Target	Win	True
424.434	0.3	Win2	0.6889	0.001	Yes	2.982	-0.001	1.0	GoodResponse	1	0.267	n/a	8	44	ButtonPress	Win	True
424.484	0.38	Win2	0.6889	n/a	Yes	2.982	n/a	n/a	GoodResponse	1	n/a	n/a	8	44	Blank	Win	True
424.867	1.45	Win2	0.6889	n/a	Yes	2.982	n/a	5.0	GoodResponse	1	0.031	423.898	8	44	Feedback	Win	True
426.316	2.982	Win2	0.6889	n/a	Yes	2.982	n/a	n/a	GoodResponse	1	0.0	n/a	8	44	ISIslide	Win	True
429.315	0.25	Control	0.6957	0.0	Yes	2.885	0.015	n/a	GoodResponse	0	n/a	n/a	8	45	Cue	Neutral	True
429.565	4.1	Control	0.6957	0.0	Yes	2.885	0.0	n/a	GoodResponse	0	n/a	n/a	8	45	Fixation	Neutral	True
433.664	0.31	Control	0.6957	0.001	Yes	2.885	-0.001	1.0	GoodResponse	0	0.227	432.891	8	45	Target	Neutral	True
433.891	0.3	Control	0.6957	0.001	Yes	2.885	-0.001	1.0	GoodResponse	0	0.227	n/a	8	45	ButtonPress	Neutral	True
433.98	0.39	Control	0.6957	n/a	Yes	2.885	n/a	n/a	GoodResponse	0	n/a	n/a	8	45	Blank	Neutral	True
434.363	1.45	Control	0.6957	n/a	Yes	2.885	n/a	5.0	GoodResponse	0	0.001	433.364	8	45	Feedback	Neutral	True
435.813	2.885	Control	0.6957	n/a	Yes	2.885	n/a	n/a	GoodResponse	0	0.0	n/a	8	45	ISIslide	Neutral	True
438.729	0.25	Lose2	0.7021	0.0	Yes	3.371	0.029	n/a	GoodResponse	0	n/a	n/a	8	46	Cue	AvoidedLoss	True
438.978	4.0	Lose2	0.7021	0.001	Yes	3.371	-0.001	n/a	GoodResponse	0	n/a	n/a	8	46	Fixation	AvoidedLoss	True
442.977	0.3	Lose2	0.7021	0.002	Yes	3.371	-0.002	1.0	GoodResponse	0	0.233	442.21	8	46	Target	AvoidedLoss	True
443.21	0.3	Lose2	0.7021	0.002	Yes	3.371	-0.002	1.0	GoodResponse	0	0.233	n/a	8	46	ButtonPress	AvoidedLoss	True
443.277	0.4	Lose2	0.7021	n/a	Yes	3.371	n/a	n/a	GoodResponse	0	n/a	n/a	8	46	Blank	AvoidedLoss	True
443.677	1.45	Lose2	0.7021	n/a	Yes	3.371	n/a	5.0	GoodResponse	0	0.002	442.679	8	46	Feedback	AvoidedLoss	True
445.126	3.371	Lose2	0.7021	n/a	Yes	3.371	n/a	n/a	GoodResponse	0	0.0	n/a	8	46	ISIslide	AvoidedLoss	True
448.525	0.25	Lose2	0.7082999999999999	0.0	Yes	2.675	0.025	n/a	GoodResponse	0	n/a	n/a	8	47	Cue	AvoidedLoss	True
448.775	4.0	Lose2	0.7082999999999999	0.0	Yes	2.675	0.0	n/a	GoodResponse	0	n/a	n/a	8	47	Fixation	AvoidedLoss	True
452.774	0.29	Lose2	0.7082999999999999	0.001	Yes	2.675	-0.001	1.0	GoodResponse	0	0.215	451.989	8	47	Target	AvoidedLoss	True
452.989	0.3	Lose2	0.7082999999999999	0.001	Yes	2.675	-0.001	1.0	GoodResponse	0	0.215	n/a	8	47	ButtonPress	AvoidedLoss	True
453.073	0.41	Lose2	0.7082999999999999	n/a	Yes	2.675	n/a	n/a	GoodResponse	0	n/a	n/a	8	47	Blank	AvoidedLoss	True
453.473	1.45	Lose2	0.7082999999999999	n/a	Yes	2.675	n/a	5.0	GoodResponse	0	0.011	452.484	8	47	Feedback	AvoidedLoss	True
454.923	2.675	Lose2	0.7082999999999999	n/a	Yes	2.675	n/a	n/a	GoodResponse	0	0.0	n/a	8	47	ISIslide	AvoidedLoss	True
457.622	0.25	Lose2	0.6939	0.0	No	3.028	0.022	n/a	NoResponse	-1	n/a	n/a	7	48	Cue	Loss	True
457.872	3.95	Lose2	0.6939	0.0	No	3.028	0.0	n/a	NoResponse	-1	n/a	n/a	7	48	Fixation	Loss	True
461.82	0.28	Lose2	0.6939	0.002	No	3.028	-0.002	1.0	NoResponse	-1	0.303	461.123	7	48	Target	Loss	True
462.104	0.42	Lose2	0.6939	n/a	No	3.028	n/a	n/a	NoResponse	-1	n/a	n/a	7	48	Blank	Loss	True
462.123	0.3	Lose2	0.6939	0.002	No	3.028	-0.002	1.0	NoResponse	-1	0.303	n/a	7	48	ButtonPress	Loss	True
462.52	1.45	Lose2	0.6939	n/a	No	3.028	n/a	5.0	NoResponse	-1	0.036	461.556	7	48	Feedback	Loss	True
463.97	3.028	Lose2	0.6939	n/a	No	3.028	n/a	n/a	NoResponse	-1	0.0	n/a	7	48	ISIslide	Loss	True
467.019	0.25	Control	0.7	0.0	Yes	2.881	0.019	n/a	GoodResponse	0	n/a	n/a	7	49	Cue	Neutral	True
467.268	4.0	Control	0.7	0.001	Yes	2.881	-0.001	n/a	GoodResponse	0	n/a	n/a	7	49	Fixation	Neutral	True
471.267	0.27	Control	0.7	0.002	Yes	2.881	-0.002	1.0	GoodResponse	0	0.231	470.498	7	49	Target	Neutral	True
471.498	0.3	Control	0.7	0.002	Yes	2.881	-0.002	1.0	GoodResponse	0	0.231	n/a	7	49	ButtonPress	Neutral	True
471.55	0.43	Control	0.7	n/a	Yes	2.881	n/a	n/a	GoodResponse	0	n/a	n/a	7	49	Blank	Neutral	True
471.967	1.45	Control	0.7	n/a	Yes	2.881	n/a	5.0	GoodResponse	0	0.007	470.974	7	49	Feedback	Neutral	True
473.416	2.881	Control	0.7	n/a	Yes	2.881	n/a	n/a	GoodResponse	0	0.0	n/a	7	49	ISIslide	Neutral	True
476.315	0.25	Control	0.7059000000000001	0.0	Yes	2.785	0.015	n/a	GoodResponse	0	n/a	n/a	7	50	Cue	Neutral	True
476.565	4.0	Control	0.7059000000000001	0.0	Yes	2.785	0.0	n/a	GoodResponse	0	n/a	n/a	7	50	Fixation	Neutral	True
480.564	0.26	Control	0.7059000000000001	0.001	Yes	2.785	-0.001	1.0	GoodResponse	0	0.224	479.788	7	50	Target	Neutral	True
480.788	0.3	Control	0.7059000000000001	0.001	Yes	2.785	-0.001	1.0	GoodResponse	0	0.224	n/a	7	50	ButtonPress	Neutral	True
480.83	0.44	Control	0.7059000000000001	n/a	Yes	2.785	n/a	n/a	GoodResponse	0	n/a	n/a	7	50	Blank	Neutral	True
481.264	1.45	Control	0.7059000000000001	n/a	Yes	2.785	n/a	5.0	GoodResponse	0	0.024	480.288	7	50	Feedback	Neutral	True
482.713	2.785	Control	0.7059000000000001	n/a	Yes	2.785	n/a	n/a	GoodResponse	0	0.0	n/a	7	50	ISIslide	Neutral	True
485.529	0.25	Control	0.7115	0.0	Yes	2.721	0.029	n/a	GoodResponse	0	n/a	n/a	7	51	Cue	Neutral	True
485.779	3.95	Control	0.7115	0.0	Yes	2.721	0.0	n/a	GoodResponse	0	n/a	n/a	7	51	Fixation	Neutral	True
489.727	0.25	Control	0.7115	0.002	Yes	2.721	-0.002	1.0	GoodResponse	0	0.22	488.947	7	51	Target	Neutral	True
489.947	0.3	Control	0.7115	0.002	Yes	2.721	-0.002	1.0	GoodResponse	0	0.22	n/a	7	51	ButtonPress	Neutral	True
489.977	0.45	Control	0.7115	n/a	Yes	2.721	n/a	n/a	GoodResponse	0	n/a	n/a	7	51	Blank	Neutral	True
490.427	1.45	Control	0.7115	n/a	Yes	2.721	n/a	5.0	GoodResponse	0	0.032	489.459	7	51	Feedback	Neutral	True
491.876	2.721	Control	0.7115	n/a	Yes	2.721	n/a	n/a	GoodResponse	0	0.0	n/a	7	51	ISIslide	Neutral	True
494.625	0.25	Control	0.7170000000000001	0.001	Yes	2.625	0.025	n/a	GoodResponse	0	n/a	n/a	7	52	Cue	Neutral	True
494.875	4.05	Control	0.7170000000000001	0.001	Yes	2.625	0.0	n/a	GoodResponse	0	n/a	n/a	7	52	Fixation	Neutral	True
498.924	0.24	Control	0.7170000000000001	0.001	Yes	2.625	-0.001	1.0	GoodResponse	0	0.224	498.148	7	52	Target	Neutral	True
499.148	0.3	Control	0.7170000000000001	0.001	Yes	2.625	-0.001	1.0	GoodResponse	0	0.224	n/a	7	52	ButtonPress	Neutral	True
499.174	0.46	Control	0.7170000000000001	n/a	Yes	2.625	n/a	n/a	GoodResponse	0	n/a	n/a	7	52	Blank	Neutral	True
499.624	1.45	Control	0.7170000000000001	n/a	Yes	2.625	n/a	5.0	GoodResponse	0	0.006	498.63	7	52	Feedback	Neutral	True
501.073	2.625	Control	0.7170000000000001	n/a	Yes	2.625	n/a	n/a	GoodResponse	0	0.0	n/a	7	52	ISIslide	Neutral	True
503.722	0.25	Win2	0.7222	0.0	Yes	2.928	0.022	n/a	GoodResponse	1	n/a	n/a	8	53	Cue	Win	True
503.972	4.05	Win2	0.7222	0.0	Yes	2.928	0.0	n/a	GoodResponse	1	n/a	n/a	8	53	Fixation	Win	True
508.021	0.23	Win2	0.7222	0.001	Yes	2.928	-0.001	1.0	GoodResponse	1	0.209	507.23	8	53	Target	Win	True
508.23	0.3	Win2	0.7222	0.001	Yes	2.928	-0.001	1.0	GoodResponse	1	0.209	n/a	8	53	ButtonPress	Win	True
508.254	0.47	Win2	0.7222	n/a	Yes	2.928	n/a	n/a	GoodResponse	1	n/a	n/a	8	53	Blank	Win	True
508.721	1.45	Win2	0.7222	n/a	Yes	2.928	n/a	5.0	GoodResponse	1	0.03	507.751	8	53	Feedback	Win	True
510.17	2.928	Win2	0.7222	n/a	Yes	2.928	n/a	n/a	GoodResponse	1	0.0	n/a	8	53	ISIslide	Win	True
513.119	0.25	Win2	0.7091	0.0	No	2.731	0.019	n/a	NoResponse	0	n/a	n/a	8	54	Cue	MissedWin	True
513.369	3.95	Win2	0.7091	0.0	No	2.731	0.0	n/a	NoResponse	0	n/a	n/a	8	54	Fixation	MissedWin	True
517.317	0.22	Win2	0.7091	0.002	No	2.731	-0.002	1.0	NoResponse	0	0.264	516.581	8	54	Target	MissedWin	True
517.551	0.48	Win2	0.7091	n/a	No	2.731	n/a	n/a	NoResponse	0	n/a	n/a	8	54	Blank	MissedWin	True
517.581	0.3	Win2	0.7091	0.002	No	2.731	-0.002	1.0	NoResponse	0	0.264	n/a	8	54	ButtonPress	MissedWin	True
518.017	1.45	Win2	0.7091	n/a	No	2.731	n/a	5.0	NoResponse	0	0.002	517.019	8	54	Feedback	MissedWin	True
519.467	2.731	Win2	0.7091	n/a	No	2.731	n/a	n/a	NoResponse	0	0.0	n/a	8	54	ISIslide	MissedWin	True
522.216	0.25	Control	0.6964	0.0	No	3.034	0.016	n/a	NoResponse	0	n/a	n/a	8	55	Cue	Neutral	True
522.466	3.95	Control	0.6964	0.0	No	3.034	0.0	n/a	NoResponse	0	n/a	n/a	8	55	Fixation	Neutral	True
526.414	0.21	Control	0.6964	0.002	No	3.034	-0.002	1.0	NoResponse	0	0.245	525.659	8	55	Target	Neutral	True
526.631	0.49	Control	0.6964	n/a	No	3.034	n/a	n/a	NoResponse	0	n/a	n/a	8	55	Blank	Neutral	True
526.659	0.3	Control	0.6964	0.002	No	3.034	-0.002	1.0	NoResponse	0	0.245	n/a	8	55	ButtonPress	Neutral	True
527.114	1.45	Control	0.6964	n/a	No	3.034	n/a	5.0	NoResponse	0	0.027	526.141	8	55	Feedback	Neutral	True
528.564	3.034	Control	0.6964	n/a	No	3.034	n/a	n/a	NoResponse	0	0.0	n/a	8	55	ISIslide	Neutral	True
531.612	0.25	Control	0.6842	0.001	No	2.838	0.012	n/a	NoResponse	0	n/a	n/a	8	56	Cue	Neutral	True
531.862	3.95	Control	0.6842	0.0	No	2.838	0.0	n/a	NoResponse	0	n/a	n/a	8	56	Fixation	Neutral	True
535.811	0.2	Control	0.6842	0.001	No	2.838	-0.001	1.0	NoResponse	0	0.24	535.051	8	56	Target	Neutral	True
536.011	0.5	Control	0.6842	n/a	No	2.838	n/a	n/a	NoResponse	0	n/a	n/a	8	56	Blank	Neutral	True
536.051	0.3	Control	0.6842	0.001	No	2.838	-0.001	1.0	NoResponse	0	0.24	n/a	8	56	ButtonPress	Neutral	True
536.511	1.45	Control	0.6842	n/a	No	2.838	n/a	5.0	NoResponse	0	0.0	535.511	8	56	Feedback	Neutral	True
537.96	2.838	Control	0.6842	n/a	No	2.838	n/a	n/a	NoResponse	0	0.0	n/a	8	56	ISIslide	Neutral	True
540.826	0.25	Control	0.6724	0.0	No	3.474	0.026	n/a	NoResponse	0	n/a	n/a	8	57	Cue	Neutral	True
541.076	4.0	Control	0.6724	0.0	No	3.474	0.0	n/a	NoResponse	0	n/a	n/a	8	57	Fixation	Neutral	True
545.074	0.19	Control	0.6724	0.002	No	3.474	-0.002	1.0	NoResponse	0	0.333	544.407	8	57	Target	Neutral	True
545.274	0.51	Control	0.6724	n/a	No	3.474	n/a	n/a	NoResponse	0	n/a	n/a	8	57	Blank	Neutral	True
545.407	0.3	Control	0.6724	0.002	No	3.474	-0.002	1.0	NoResponse	0	0.333	n/a	8	57	ButtonPress	Neutral	True
545.774	1.45	Control	0.6724	n/a	No	3.474	n/a	5.0	NoResponse	0	0.001	544.775	8	57	Feedback	Neutral	True
547.224	3.474	Control	0.6724	n/a	No	3.474	n/a	n/a	NoResponse	0	0.0	n/a	8	57	ISIslide	Neutral	True
550.722	0.25	Win2	0.6609999999999999	0.0	No	2.728	0.022	n/a	NoResponse	0	n/a	n/a	8	58	Cue	MissedWin	True
550.972	4.05	Win2	0.6609999999999999	0.0	No	2.728	0.0	n/a	NoResponse	0	n/a	n/a	8	58	Fixation	MissedWin	True
555.021	0.18	Win2	0.6609999999999999	0.001	No	2.728	-0.001	1.0	NoResponse	0	0.314	554.335	8	58	Target	MissedWin	True
555.204	0.52	Win2	0.6609999999999999	n/a	No	2.728	n/a	n/a	NoResponse	0	n/a	n/a	8	58	Blank	MissedWin	True
555.335	0.3	Win2	0.6609999999999999	0.001	No	2.728	-0.001	1.0	NoResponse	0	0.314	n/a	8	58	ButtonPress	MissedWin	True
555.721	1.45	Win2	0.6609999999999999	n/a	No	2.728	n/a	5.0	NoResponse	0	0.006	554.727	8	58	Feedback	MissedWin	True
557.17	2.728	Win2	0.6609999999999999	n/a	No	2.728	n/a	n/a	NoResponse	0	0.0	n/a	8	58	ISIslide	MissedWin	True
559.919	0.25	Lose2	0.65	0.0	No	2.681	0.019	n/a	NoResponse	-1	n/a	n/a	7	59	Cue	Loss	True
560.169	4.0	Lose2	0.65	0.0	No	2.681	0.0	n/a	NoResponse	-1	n/a	n/a	7	59	Fixation	Loss	True
564.168	0.18	Lose2	0.65	0.001	No	2.681	-0.001	1.0	NoResponse	-1	0.235	563.403	7	59	Target	Loss	True
564.351	0.52	Lose2	0.65	n/a	No	2.681	n/a	n/a	NoResponse	-1	n/a	n/a	7	59	Blank	Loss	True
564.403	0.3	Lose2	0.65	0.001	No	2.681	-0.001	1.0	NoResponse	-1	0.235	n/a	7	59	ButtonPress	Loss	True
564.867	1.45	Lose2	0.65	n/a	No	2.681	n/a	5.0	NoResponse	-1	0.03	563.897	7	59	Feedback	Loss	True
566.317	2.681	Lose2	0.65	n/a	No	2.681	n/a	n/a	NoResponse	-1	0.0	n/a	7	59	ISIslide	Loss	True
569.016	0.25	Control	0.6393	0.0	No	2.684	0.016	n/a	NoResponse	0	n/a	n/a	7	60	Cue	Neutral	True
569.266	4.0	Control	0.6393	0.0	No	2.684	0.0	n/a	NoResponse	0	n/a	n/a	7	60	Fixation	Neutral	True
573.264	0.19	Control	0.6393	0.002	No	2.684	-0.002	1.0	NoResponse	0	0.283	572.547	7	60	Target	Neutral	True
573.464	0.51	Control	0.6393	n/a	No	2.684	n/a	n/a	NoResponse	0	n/a	n/a	7	60	Blank	Neutral	True
573.547	0.3	Control	0.6393	0.002	No	2.684	-0.002	1.0	NoResponse	0	0.283	n/a	7	60	ButtonPress	Neutral	True
573.964	1.45	Control	0.6393	n/a	No	2.684	n/a	5.0	NoResponse	0	0.007	572.971	7	60	Feedback	Neutral	True
575.414	2.684	Control	0.6393	n/a	No	2.684	n/a	n/a	NoResponse	0	0.0	n/a	7	60	ISIslide	Neutral	True
578.129	0.25	Lose2	0.629	0.0	No	2.971	0.029	n/a	NoResponse	-1	n/a	n/a	6	61	Cue	Loss	True
578.379	4.0	Lose2	0.629	0.0	No	2.971	0.0	n/a	NoResponse	-1	n/a	n/a	6	61	Fixation	Loss	True
582.378	0.2	Lose2	0.629	0.001	No	2.971	-0.001	1.0	NoResponse	-1	0.227	581.605	6	61	Target	Loss	True
582.578	0.5	Lose2	0.629	n/a	No	2.971	n/a	n/a	NoResponse	-1	n/a	n/a	6	61	Blank	Loss	True
582.605	0.3	Lose2	0.629	0.001	No	2.971	-0.001	1.0	NoResponse	-1	0.227	n/a	6	61	ButtonPress	Loss	True
583.078	1.45	Lose2	0.629	n/a	No	2.971	n/a	5.0	NoResponse	-1	0.014	582.092	6	61	Feedback	Loss	True
584.527	2.971	Lose2	0.629	n/a	No	2.971	n/a	n/a	NoResponse	-1	0.0	n/a	6	61	ISIslide	Loss	True
587.526	0.25	Lose2	0.619	0.0	No	2.874	0.026	n/a	NoResponse	-1	n/a	n/a	5	62	Cue	Loss	True
587.776	3.9	Lose2	0.619	0.0	No	2.874	0.0	n/a	NoResponse	-1	n/a	n/a	5	62	Fixation	Loss	True
591.675	0.21	Lose2	0.619	0.001	No	2.874	-0.001	1.0	NoResponse	-1	0.225	590.9	5	62	Target	Loss	True
591.891	0.49	Lose2	0.619	n/a	No	2.874	n/a	n/a	NoResponse	-1	n/a	n/a	5	62	Blank	Loss	True
591.9	0.3	Lose2	0.619	0.001	No	2.874	-0.001	1.0	NoResponse	-1	0.225	n/a	5	62	ButtonPress	Loss	True
592.374	1.45	Lose2	0.619	n/a	No	2.874	n/a	5.0	NoResponse	-1	0.034	591.408	5	62	Feedback	Loss	True
593.824	2.874	Lose2	0.619	n/a	No	2.874	n/a	n/a	NoResponse	-1	0.0	n/a	5	62	ISIslide	Loss	True
596.723	0.25	Lose2	0.6093999999999999	0.0	No	2.627	0.023	n/a	LatePress	-1	n/a	n/a	4	63	Cue	Loss	True
596.973	4.05	Lose2	0.6093999999999999	0.0	No	2.627	0.0	n/a	LatePress	-1	n/a	n/a	4	63	Fixation	Loss	True
601.021	0.22	Lose2	0.6093999999999999	0.002	No	2.627	-0.002	1.0	LatePress	-1	0.226	600.247	4	63	Target	Loss	True
601.247	0.3	Lose2	0.6093999999999999	0.002	No	2.627	-0.002	1.0	LatePress	-1	0.226	n/a	4	63	ButtonPress	Loss	True
601.255	0.48	Lose2	0.6093999999999999	n/a	No	2.627	n/a	n/a	LatePress	-1	n/a	n/a	4	63	Blank	Loss	True
601.721	1.45	Lose2	0.6093999999999999	n/a	No	2.627	n/a	5.0	LatePress	-1	0.006	600.727	4	63	Feedback	Loss	True
603.171	2.627	Lose2	0.6093999999999999	n/a	No	2.627	n/a	n/a	LatePress	-1	0.0	n/a	4	63	ISIslide	Loss	True
605.82	0.25	Win2	0.6	0.0	No	3.13	0.02	n/a	NoResponse	0	n/a	n/a	4	64	Cue	MissedWin	True
606.07	4.15	Win2	0.6	0.0	No	3.13	0.0	n/a	NoResponse	0	n/a	n/a	4	64	Fixation	MissedWin	True
610.218	0.23	Win2	0.6	0.002	No	3.13	-0.002	1.0	NoResponse	0	0.263	609.481	4	64	Target	MissedWin	True
610.451	0.47	Win2	0.6	n/a	No	3.13	n/a	n/a	NoResponse	0	n/a	n/a	4	64	Blank	MissedWin	True
610.481	0.3	Win2	0.6	0.002	No	3.13	-0.002	1.0	NoResponse	0	0.263	n/a	4	64	ButtonPress	MissedWin	True
610.918	1.45	Win2	0.6	n/a	No	3.13	n/a	5.0	NoResponse	0	0.027	609.945	4	64	Feedback	MissedWin	True
612.367	3.13	Win2	0.6	n/a	No	3.13	n/a	n/a	NoResponse	0	0.0	n/a	4	64	ISIslide	MissedWin	True
615.516	0.25	Control	0.6061	0.0	Yes	2.784	0.016	n/a	GoodResponse	0	n/a	n/a	4	65	Cue	Neutral	True
615.766	4.0	Control	0.6061	0.0	Yes	2.784	0.0	n/a	GoodResponse	0	n/a	n/a	4	65	Fixation	Neutral	True
619.765	0.24	Control	0.6061	0.001	Yes	2.784	-0.001	1.0	GoodResponse	0	0.223	618.988	4	65	Target	Neutral	True
619.988	0.3	Control	0.6061	0.001	Yes	2.784	-0.001	1.0	GoodResponse	0	0.223	n/a	4	65	ButtonPress	Neutral	True
620.015	0.46	Control	0.6061	n/a	Yes	2.784	n/a	n/a	GoodResponse	0	n/a	n/a	4	65	Blank	Neutral	True
620.464	1.45	Control	0.6061	n/a	Yes	2.784	n/a	5.0	GoodResponse	0	0.001	619.465	4	65	Feedback	Neutral	True
621.914	2.784	Control	0.6061	n/a	Yes	2.784	n/a	n/a	GoodResponse	0	0.0	n/a	4	65	ISIslide	Neutral	True
624.713	0.25	Win2	0.597	0.0	No	2.787	0.013	n/a	NoResponse	0	n/a	n/a	4	66	Cue	MissedWin	False
624.963	3.9	Win2	0.597	0.0	No	2.787	0.0	1.0	NoResponse	0	3.196	627.159	4	66	Fixation	MissedWin	False
628.159	0.3	Win2	0.597	0.0	No	2.787	0.0	1.0	NoResponse	0	3.196	n/a	4	66	ButtonPress	MissedWin	False
628.862	0.25	Win2	0.597	0.001	No	2.787	-0.001	1.0	NoResponse	0	0.259	628.121	4	66	Target	MissedWin	False
629.111	0.45	Win2	0.597	n/a	No	2.787	n/a	n/a	NoResponse	0	n/a	n/a	4	66	Blank	MissedWin	False
629.121	0.3	Win2	0.597	0.001	No	2.787	-0.001	1.0	NoResponse	0	0.259	n/a	4	66	ButtonPress	MissedWin	False
629.561	1.45	Win2	0.597	n/a	No	2.787	n/a	5.0	NoResponse	0	0.017	628.578	4	66	Feedback	MissedWin	False
631.011	2.787	Win2	0.597	n/a	No	2.787	n/a	n/a	NoResponse	0	0.0	n/a	4	66	ISIslide	MissedWin	False
633.826	0.25	Control	0.5882000000000001	0.001	No	2.724	0.026	n/a	NoResponse	0	n/a	n/a	4	67	Cue	Neutral	True
634.076	3.95	Control	0.5882000000000001	0.0	No	2.724	0.0	n/a	NoResponse	0	n/a	n/a	4	67	Fixation	Neutral	True
638.025	0.26	Control	0.5882000000000001	0.001	No	2.724	-0.001	1.0	NoResponse	0	0.442	637.467	4	67	Target	Neutral	True
638.292	0.44	Control	0.5882000000000001	n/a	No	2.724	n/a	n/a	NoResponse	0	n/a	n/a	4	67	Blank	Neutral	True
638.467	0.3	Control	0.5882000000000001	0.001	No	2.724	-0.001	1.0	NoResponse	0	0.442	n/a	4	67	ButtonPress	Neutral	True
638.725	1.45	Control	0.5882000000000001	n/a	No	2.724	n/a	5.0	NoResponse	0	0.024	637.749	4	67	Feedback	Neutral	True
640.174	2.724	Control	0.5882000000000001	n/a	No	2.724	n/a	n/a	NoResponse	0	0.0	n/a	4	67	ISIslide	Neutral	True
642.923	0.25	Win2	0.5942000000000001	0.0	Yes	3.077	0.023	n/a	GoodResponse	1	n/a	n/a	5	68	Cue	Win	True
643.173	4.0	Win2	0.5942000000000001	0.0	Yes	3.077	0.0	n/a	GoodResponse	1	n/a	n/a	5	68	Fixation	Win	True
647.172	0.27	Win2	0.5942000000000001	0.001	Yes	3.077	-0.001	1.0	GoodResponse	1	0.234	646.406	5	68	Target	Win	True
647.406	0.3	Win2	0.5942000000000001	0.001	Yes	3.077	-0.001	1.0	GoodResponse	1	0.234	n/a	5	68	ButtonPress	Win	True
647.455	0.43	Win2	0.5942000000000001	n/a	Yes	3.077	n/a	n/a	GoodResponse	1	n/a	n/a	5	68	Blank	Win	True
647.872	1.45	Win2	0.5942000000000001	n/a	Yes	3.077	n/a	5.0	GoodResponse	1	0.0	646.872	5	68	Feedback	Win	True
649.321	3.077	Win2	0.5942000000000001	n/a	Yes	3.077	n/a	n/a	GoodResponse	1	0.0	n/a	5	68	ISIslide	Win	True
652.42	0.25	Win2	0.6	0.0	Yes	3.23	0.02	n/a	GoodResponse	1	n/a	n/a	6	69	Cue	Win	True
652.67	3.95	Win2	0.6	0.0	Yes	3.23	0.0	n/a	GoodResponse	1	n/a	n/a	6	69	Fixation	Win	True
656.618	0.28	Win2	0.6	0.002	Yes	3.23	-0.002	1.0	GoodResponse	1	0.224	655.842	6	69	Target	Win	True
656.842	0.3	Win2	0.6	0.002	Yes	3.23	-0.002	1.0	GoodResponse	1	0.224	n/a	6	69	ButtonPress	Win	True
656.902	0.42	Win2	0.6	n/a	Yes	3.23	n/a	n/a	GoodResponse	1	n/a	n/a	6	69	Blank	Win	True
657.318	1.45	Win2	0.6	n/a	Yes	3.23	n/a	5.0	GoodResponse	1	0.017	656.335	6	69	Feedback	Win	True
658.768	3.23	Win2	0.6	n/a	Yes	3.23	n/a	n/a	GoodResponse	1	0.0	n/a	6	69	ISIslide	Win	True
662.017	0.25	Lose2	0.6056	0.0	Yes	3.033	0.017	n/a	GoodResponse	0	n/a	n/a	6	70	Cue	AvoidedLoss	True
662.266	4.05	Lose2	0.6056	0.001	Yes	3.033	-0.001	n/a	GoodResponse	0	n/a	n/a	6	70	Fixation	AvoidedLoss	True
666.315	0.29	Lose2	0.6056	0.002	Yes	3.033	-0.002	1.0	GoodResponse	0	0.227	665.542	6	70	Target	AvoidedLoss	True
666.542	0.3	Lose2	0.6056	0.002	Yes	3.033	-0.002	1.0	GoodResponse	0	0.227	n/a	6	70	ButtonPress	AvoidedLoss	True
666.615	0.41	Lose2	0.6056	n/a	Yes	3.033	n/a	n/a	GoodResponse	0	n/a	n/a	6	70	Blank	AvoidedLoss	True
667.015	1.45	Lose2	0.6056	n/a	Yes	3.033	n/a	5.0	GoodResponse	0	0.027	666.042	6	70	Feedback	AvoidedLoss	True
668.464	3.033	Lose2	0.6056	n/a	Yes	3.033	n/a	n/a	GoodResponse	0	0.0	n/a	6	70	ISIslide	AvoidedLoss	True
671.513	0.25	Win2	0.6111	0.0	Yes	2.737	0.013	n/a	GoodResponse	1	n/a	n/a	7	71	Cue	Win	True
671.763	4.05	Win2	0.6111	0.0	Yes	2.737	0.0	n/a	GoodResponse	1	n/a	n/a	7	71	Fixation	Win	True
675.812	0.3	Win2	0.6111	0.001	Yes	2.737	-0.001	1.0	GoodResponse	1	0.224	675.036	7	71	Target	Win	True
676.036	0.3	Win2	0.6111	0.001	Yes	2.737	-0.001	1.0	GoodResponse	1	0.224	n/a	7	71	ButtonPress	Win	True
676.112	0.4	Win2	0.6111	n/a	Yes	2.737	n/a	n/a	GoodResponse	1	n/a	n/a	7	71	Blank	Win	True
676.511	1.45	Win2	0.6111	n/a	Yes	2.737	n/a	5.0	GoodResponse	1	0.002	675.513	7	71	Feedback	Win	True
677.961	2.737	Win2	0.6111	n/a	Yes	2.737	n/a	n/a	GoodResponse	1	0.0	n/a	7	71	ISIslide	Win	True
680.727	0.25	Win2	0.6164000000000001	0.0	Yes	2.773	0.027	n/a	GoodResponse	1	n/a	n/a	8	72	Cue	Win	True
680.977	4.1	Win2	0.6164000000000001	0.0	Yes	2.773	0.0	n/a	GoodResponse	1	n/a	n/a	8	72	Fixation	Win	True
685.075	0.31	Win2	0.6164000000000001	0.002	Yes	2.773	-0.002	1.0	GoodResponse	1	0.265	684.34	8	72	Target	Win	True
685.34	0.3	Win2	0.6164000000000001	0.002	Yes	2.773	-0.002	1.0	GoodResponse	1	0.265	n/a	8	72	ButtonPress	Win	True
685.392	0.39	Win2	0.6164000000000001	n/a	Yes	2.773	n/a	n/a	GoodResponse	1	n/a	n/a	8	72	Blank	Win	True
685.775	1.45	Win2	0.6164000000000001	n/a	Yes	2.773	n/a	5.0	GoodResponse	1	0.0	684.775	8	72	Feedback	Win	True
687.224	2.773	Win2	0.6164000000000001	n/a	Yes	2.773	n/a	n/a	GoodResponse	1	0.0	n/a	8	72	ISIslide	Win	True
690.023	0.25	Win2	0.6215999999999999	0.0	Yes	2.677	0.023	n/a	GoodResponse	1	n/a	n/a	9	73	Cue	Win	True
690.273	4.0	Win2	0.6215999999999999	0.0	Yes	2.677	0.0	n/a	GoodResponse	1	n/a	n/a	9	73	Fixation	Win	True
694.272	0.32	Win2	0.6215999999999999	0.001	Yes	2.677	-0.001	1.0	GoodResponse	1	0.225	693.497	9	73	Target	Win	True
694.497	0.3	Win2	0.6215999999999999	0.001	Yes	2.677	-0.001	1.0	GoodResponse	1	0.225	n/a	9	73	ButtonPress	Win	True
694.588	0.38	Win2	0.6215999999999999	n/a	Yes	2.677	n/a	n/a	GoodResponse	1	n/a	n/a	9	73	Blank	Win	True
694.972	1.45	Win2	0.6215999999999999	n/a	Yes	2.677	n/a	5.0	GoodResponse	1	0.021	693.993	9	73	Feedback	Win	True
696.421	2.677	Win2	0.6215999999999999	n/a	Yes	2.677	n/a	n/a	GoodResponse	1	0.0	n/a	9	73	ISIslide	Win	True
699.12	0.25	Lose2	0.6267	0.0	Yes	2.63	0.02	n/a	GoodResponse	0	n/a	n/a	9	74	Cue	AvoidedLoss	True
699.37	4.05	Lose2	0.6267	0.0	Yes	2.63	0.0	n/a	GoodResponse	0	n/a	n/a	9	74	Fixation	AvoidedLoss	True
703.419	0.33	Lose2	0.6267	0.001	Yes	2.63	-0.001	1.0	GoodResponse	0	0.241	702.66	9	74	Target	AvoidedLoss	True
703.66	0.3	Lose2	0.6267	0.001	Yes	2.63	-0.001	1.0	GoodResponse	0	0.241	n/a	9	74	ButtonPress	AvoidedLoss	True
703.752	0.37	Lose2	0.6267	n/a	Yes	2.63	n/a	n/a	GoodResponse	0	n/a	n/a	9	74	Blank	AvoidedLoss	True
704.118	1.45	Lose2	0.6267	n/a	Yes	2.63	n/a	5.0	GoodResponse	0	0.001	703.119	9	74	Feedback	AvoidedLoss	True
705.568	2.63	Lose2	0.6267	n/a	Yes	2.63	n/a	n/a	GoodResponse	0	0.0	n/a	9	74	ISIslide	AvoidedLoss	True
708.217	0.25	Lose2	0.6315999999999999	0.0	Yes	2.933	0.017	n/a	GoodResponse	0	n/a	n/a	9	75	Cue	AvoidedLoss	True
708.467	3.95	Lose2	0.6315999999999999	0.0	Yes	2.933	0.0	n/a	GoodResponse	0	n/a	n/a	9	75	Fixation	AvoidedLoss	True
712.415	0.34	Lose2	0.6315999999999999	0.002	Yes	2.933	-0.002	1.0	GoodResponse	0	0.231	711.646	9	75	Target	AvoidedLoss	True
712.646	0.3	Lose2	0.6315999999999999	0.002	Yes	2.933	-0.002	1.0	GoodResponse	0	0.231	n/a	9	75	ButtonPress	AvoidedLoss	True
712.765	0.36	Lose2	0.6315999999999999	n/a	Yes	2.933	n/a	n/a	GoodResponse	0	n/a	n/a	9	75	Blank	AvoidedLoss	True
713.115	1.45	Lose2	0.6315999999999999	n/a	Yes	2.933	n/a	5.0	GoodResponse	0	0.025	712.14	9	75	Feedback	AvoidedLoss	True
714.565	2.933	Lose2	0.6315999999999999	n/a	Yes	2.933	n/a	n/a	GoodResponse	0	0.0	n/a	9	75	ISIslide	AvoidedLoss	True
717.514	0.25	Control	0.6364	0.0	Yes	3.236	0.014	n/a	GoodResponse	0	n/a	n/a	9	76	Cue	Neutral	True
717.764	4.05	Control	0.6364	0.0	Yes	3.236	0.0	n/a	GoodResponse	0	n/a	n/a	9	76	Fixation	Neutral	True
721.812	0.35	Control	0.6364	0.002	Yes	3.236	-0.002	1.0	GoodResponse	0	0.248	721.06	9	76	Target	Neutral	True
722.06	0.3	Control	0.6364	0.002	Yes	3.236	-0.002	1.0	GoodResponse	0	0.248	n/a	9	76	ButtonPress	Neutral	True
722.162	0.35	Control	0.6364	n/a	Yes	3.236	n/a	n/a	GoodResponse	0	n/a	n/a	9	76	Blank	Neutral	True
722.512	1.45	Control	0.6364	n/a	Yes	3.236	n/a	5.0	GoodResponse	0	0.001	721.513	9	76	Feedback	Neutral	True
723.961	3.236	Control	0.6364	n/a	Yes	3.236	n/a	n/a	GoodResponse	0	0.0	n/a	9	76	ISIslide	Neutral	True
727.227	0.25	Lose2	0.6409999999999999	0.0	Yes	2.573	0.027	n/a	GoodResponse	0	n/a	n/a	9	77	Cue	AvoidedLoss	True
727.477	3.95	Lose2	0.6409999999999999	0.0	Yes	2.573	0.0	n/a	GoodResponse	0	n/a	n/a	9	77	Fixation	AvoidedLoss	True
731.425	0.36	Lose2	0.6409999999999999	0.002	Yes	2.573	-0.002	1.0	GoodResponse	0	0.234	730.659	9	77	Target	AvoidedLoss	True
731.659	0.3	Lose2	0.6409999999999999	0.002	Yes	2.573	-0.002	1.0	GoodResponse	0	0.234	n/a	9	77	ButtonPress	AvoidedLoss	True
731.792	0.34	Lose2	0.6409999999999999	n/a	Yes	2.573	n/a	n/a	GoodResponse	0	n/a	n/a	9	77	Blank	AvoidedLoss	True
732.125	1.45	Lose2	0.6409999999999999	n/a	Yes	2.573	n/a	5.0	GoodResponse	0	0.038	731.163	9	77	Feedback	AvoidedLoss	True
733.575	2.573	Lose2	0.6409999999999999	n/a	Yes	2.573	n/a	n/a	GoodResponse	0	0.0	n/a	9	77	ISIslide	AvoidedLoss	True
