onset	duration	cue_type	current_mean_accuracy	duration_error	is_hit	isi_adjusted	onset_delay	response	response_type	reward	rt	rt_time	total_reward	trial_number	trial_phase	trial_type	one_press
11.111	0.25	Control	1.0	0.001	Yes	2.939	0.011	n/a	GoodResponse	0	n/a	n/a	0	0	Cue	Neutral	True
11.362	3.85	Control	1.0	0.0	Yes	2.939	0.001	n/a	GoodResponse	0	n/a	n/a	0	0	Fixation	Neutral	True
15.207	0.4	Control	1.0	0.004	Yes	2.939	-0.004	2.0	GoodResponse	0	0.238	14.445	0	0	Target	Neutral	True
15.445	0.3	Control	1.0	0.004	Yes	2.939	-0.004	2.0	GoodResponse	0	0.238	n/a	0	0	ButtonPress	Neutral	True
15.608	0.3	Control	1.0	n/a	Yes	2.939	n/a	n/a	GoodResponse	0	n/a	n/a	0	0	Blank	Neutral	True
15.909	1.45	Control	1.0	n/a	Yes	2.939	n/a	5.0	GoodResponse	0	0.018	14.927	0	0	Feedback	Neutral	True
17.364	2.939	Control	1.0	n/a	Yes	2.939	n/a	n/a	GoodResponse	0	0.0	n/a	0	0	ISIslide	Neutral	True
20.322	0.25	Lose2	1.0	0.0	Yes	2.778	0.022	n/a	GoodResponse	0	n/a	n/a	0	1	Cue	AvoidedLoss	True
20.573	4.0	Lose2	1.0	0.0	Yes	2.778	0.001	n/a	GoodResponse	0	n/a	n/a	0	1	Fixation	AvoidedLoss	True
24.568	0.39	Lose2	1.0	0.004	Yes	2.778	-0.004	2.0	GoodResponse	0	0.206	23.774	0	1	Target	AvoidedLoss	True
24.774	0.3	Lose2	1.0	0.004	Yes	2.778	-0.004	2.0	GoodResponse	0	0.206	n/a	0	1	ButtonPress	AvoidedLoss	True
24.97	0.31	Lose2	1.0	n/a	Yes	2.778	n/a	n/a	GoodResponse	0	n/a	n/a	0	1	Blank	AvoidedLoss	True
25.27	1.45	Lose2	1.0	n/a	Yes	2.778	n/a	5.0	GoodResponse	0	0.023	24.293	0	1	Feedback	AvoidedLoss	True
26.725	2.778	Lose2	1.0	n/a	Yes	2.778	n/a	2.0	GoodResponse	0	2.2	n/a	0	1	ISIslide	AvoidedLoss	True
29.5	0.25	Control	1.0	0.0	Yes	2.6	0.0	n/a	GoodResponse	0	n/a	n/a	0	2	Cue	Neutral	True
29.751	4.1	Control	1.0	0.0	Yes	2.6	0.001	n/a	GoodResponse	0	n/a	n/a	0	2	Fixation	Neutral	True
33.846	0.38	Control	1.0	0.004	Yes	2.6	-0.004	2.0	GoodResponse	0	0.223	33.069	0	2	Target	Neutral	True
34.069	0.3	Control	1.0	0.004	Yes	2.6	-0.004	2.0	GoodResponse	0	0.223	n/a	0	2	ButtonPress	Neutral	True
34.231	0.32	Control	1.0	n/a	Yes	2.6	n/a	n/a	GoodResponse	0	n/a	n/a	0	2	Blank	Neutral	True
34.548	1.45	Control	1.0	n/a	Yes	2.6	n/a	5.0	GoodResponse	0	0.012	33.56	0	2	Feedback	Neutral	True
36.003	2.6	Control	1.0	n/a	Yes	2.6	n/a	n/a	GoodResponse	0	0.0	n/a	0	2	ISIslide	Neutral	True
38.627	0.25	Win2	1.0	0.0	Yes	2.823	0.027	2.0	GoodResponse	1	0.239	37.866	1	3	Cue	Win	False
38.866	0.3	Win2	1.0	0.0	Yes	2.823	0.027	2.0	GoodResponse	1	0.239	n/a	1	3	ButtonPress	Win	False
38.878	3.95	Win2	1.0	0.0	Yes	2.823	0.001	n/a	GoodResponse	1	n/a	n/a	1	3	Fixation	Win	False
42.823	0.37	Win2	1.0	0.004	Yes	2.823	-0.004	2.0	GoodResponse	1	0.24	42.063	1	3	Target	Win	False
43.063	0.3	Win2	1.0	0.004	Yes	2.823	-0.004	2.0	GoodResponse	1	0.24	n/a	1	3	ButtonPress	Win	False
43.207	0.33	Win2	1.0	n/a	Yes	2.823	n/a	n/a	GoodResponse	1	n/a	n/a	1	3	Blank	Win	False
43.525	1.45	Win2	1.0	n/a	Yes	2.823	n/a	5.0	GoodResponse	1	0.011	42.536	1	3	Feedback	Win	False
44.979	2.823	Win2	1.0	n/a	Yes	2.823	n/a	n/a	GoodResponse	1	0.0	n/a	1	3	ISIslide	Win	False
47.821	0.25	Win2	1.0	0.0	Yes	3.279	0.021	2.0	GoodResponse	1	0.171	46.992	2	4	Cue	Win	False
47.992	0.3	Win2	1.0	0.0	Yes	3.279	0.021	2.0	GoodResponse	1	0.171	n/a	2	4	ButtonPress	Win	False
48.072	4.0	Win2	1.0	0.0	Yes	3.279	0.001	2.0	GoodResponse	1	2.559	49.631	2	4	Fixation	Win	False
50.631	0.3	Win2	1.0	0.0	Yes	3.279	0.001	2.0	GoodResponse	1	2.559	n/a	2	4	ButtonPress	Win	False
52.067	0.36	Win2	1.0	0.004	Yes	3.279	-0.004	2.0	GoodResponse	1	0.206	51.273	2	4	Target	Win	False
52.273	0.3	Win2	1.0	0.004	Yes	3.279	-0.004	2.0	GoodResponse	1	0.206	n/a	2	4	ButtonPress	Win	False
52.435	0.34	Win2	1.0	n/a	Yes	3.279	n/a	n/a	GoodResponse	1	n/a	n/a	2	4	Blank	Win	False
52.769	1.45	Win2	1.0	n/a	Yes	3.279	n/a	5.0	GoodResponse	1	0.035	51.804	2	4	Feedback	Win	False
54.224	3.279	Win2	1.0	n/a	Yes	3.279	n/a	2.0	GoodResponse	1	3.179	n/a	2	4	ISIslide	Win	False
57.5	0.25	Win2	1.0	0.0	Yes	2.8	0.0	n/a	GoodResponse	1	n/a	n/a	3	5	Cue	Win	True
57.751	4.0	Win2	1.0	0.0	Yes	2.8	0.001	n/a	GoodResponse	1	n/a	n/a	3	5	Fixation	Win	True
61.746	0.35	Win2	1.0	0.004	Yes	2.8	-0.004	2.0	GoodResponse	1	0.213	60.959	3	5	Target	Win	True
61.959	0.3	Win2	1.0	0.004	Yes	2.8	-0.004	2.0	GoodResponse	1	0.213	n/a	3	5	ButtonPress	Win	True
62.097	0.35	Win2	1.0	n/a	Yes	2.8	n/a	n/a	GoodResponse	1	n/a	n/a	3	5	Blank	Win	True
62.448	1.45	Win2	1.0	n/a	Yes	2.8	n/a	5.0	GoodResponse	1	0.015	61.463	3	5	Feedback	Win	True
63.903	2.8	Win2	1.0	n/a	Yes	2.8	n/a	n/a	GoodResponse	1	0.0	n/a	3	5	ISIslide	Win	True
66.728	0.25	Lose2	0.8571	0.0	No	2.722	0.028	2.0	NoResponse	-1	0.165	65.893	2	6	Cue	Loss	False
66.893	0.3	Lose2	0.8571	0.0	No	2.722	0.028	2.0	NoResponse	-1	0.165	n/a	2	6	ButtonPress	Loss	False
66.979	3.95	Lose2	0.8571	0.0	No	2.722	0.001	2.0	NoResponse	-1	3.671	69.65	2	6	Fixation	Loss	False
70.65	0.3	Lose2	0.8571	0.0	No	2.722	0.001	2.0	NoResponse	-1	3.671	n/a	2	6	ButtonPress	Loss	False
70.924	0.34	Lose2	0.8571	0.004	No	2.722	-0.004	n/a	NoResponse	-1	n/a	n/a	2	6	Target	Loss	False
71.275	0.36	Lose2	0.8571	n/a	No	2.722	n/a	n/a	NoResponse	-1	n/a	n/a	2	6	Blank	Loss	False
71.626	1.45	Lose2	0.8571	n/a	No	2.722	n/a	5.0	NoResponse	-1	0.008	70.634	2	6	Feedback	Loss	False
73.08	2.722	Lose2	0.8571	n/a	No	2.722	n/a	n/a	NoResponse	-1	0.0	n/a	2	6	ISIslide	Loss	False
75.822	0.25	Lose2	0.875	0.0	Yes	4.028	0.022	n/a	GoodResponse	0	n/a	n/a	2	7	Cue	AvoidedLoss	True
76.072	4.05	Lose2	0.875	0.0	Yes	4.028	0.0	n/a	GoodResponse	0	n/a	n/a	2	7	Fixation	AvoidedLoss	True
80.118	0.33	Lose2	0.875	0.004	Yes	4.028	-0.004	2.0	GoodResponse	0	0.183	79.301	2	7	Target	AvoidedLoss	True
80.301	0.3	Lose2	0.875	0.004	Yes	4.028	-0.004	2.0	GoodResponse	0	0.183	n/a	2	7	ButtonPress	AvoidedLoss	True
80.452	0.37	Lose2	0.875	n/a	Yes	4.028	n/a	n/a	GoodResponse	0	n/a	n/a	2	7	Blank	AvoidedLoss	True
80.82	1.45	Lose2	0.875	n/a	Yes	4.028	n/a	5.0	GoodResponse	0	0.032	79.852	2	7	Feedback	AvoidedLoss	True
82.274	4.028	Lose2	0.875	n/a	Yes	4.028	n/a	n/a	GoodResponse	0	0.0	n/a	2	7	ISIslide	AvoidedLoss	True
86.32	0.25	Lose2	0.8889	0.0	Yes	3.03	0.02	2.0	GoodResponse	0	0.244	85.564	2	8	Cue	AvoidedLoss	False
86.564	0.3	Lose2	0.8889	0.0	Yes	3.03	0.02	2.0	GoodResponse	0	0.244	n/a	2	8	ButtonPress	AvoidedLoss	False
86.57	3.95	Lose2	0.8889	0.001	Yes	3.03	0.0	n/a	GoodResponse	0	n/a	n/a	2	8	Fixation	AvoidedLoss	False
90.516	0.32	Lose2	0.8889	0.004	Yes	3.03	-0.004	2.0	GoodResponse	0	0.221	89.737	2	8	Target	AvoidedLoss	False
90.737	0.3	Lose2	0.8889	0.004	Yes	3.03	-0.004	2.0	GoodResponse	0	0.221	n/a	2	8	ButtonPress	AvoidedLoss	False
90.85	0.38	Lose2	0.8889	n/a	Yes	3.03	n/a	n/a	GoodResponse	0	n/a	n/a	2	8	Blank	AvoidedLoss	False
91.218	1.45	Lose2	0.8889	n/a	Yes	3.03	n/a	5.0	GoodResponse	0	0.024	90.242	2	8	Feedback	AvoidedLoss	False
92.672	3.03	Lose2	0.8889	n/a	Yes	3.03	n/a	n/a	GoodResponse	0	0.0	n/a	2	8	ISIslide	AvoidedLoss	False
95.731	0.25	Lose2	0.9	0.0	Yes	3.119	0.031	n/a	GoodResponse	0	n/a	n/a	2	9	Cue	AvoidedLoss	True
95.982	3.95	Lose2	0.9	0.0	Yes	3.119	0.001	n/a	GoodResponse	0	n/a	n/a	2	9	Fixation	AvoidedLoss	True
99.927	0.31	Lose2	0.9	0.004	Yes	3.119	-0.004	2.0	GoodResponse	0	0.248	99.175	2	9	Target	AvoidedLoss	True
100.175	0.3	Lose2	0.9	0.004	Yes	3.119	-0.004	2.0	GoodResponse	0	0.248	n/a	2	9	ButtonPress	AvoidedLoss	True
100.245	0.39	Lose2	0.9	n/a	Yes	3.119	n/a	n/a	GoodResponse	0	n/a	n/a	2	9	Blank	AvoidedLoss	True
100.629	1.45	Lose2	0.9	n/a	Yes	3.119	n/a	5.0	GoodResponse	0	0.028	99.657	2	9	Feedback	AvoidedLoss	True
102.083	3.119	Lose2	0.9	n/a	Yes	3.119	n/a	2.0	GoodResponse	0	2.426	n/a	2	9	ISIslide	AvoidedLoss	True
105.21	0.25	Control	0.8181999999999999	0.0	No	3.29	0.01	n/a	NoResponse	0	n/a	n/a	2	10	Cue	Neutral	True
105.46	4.0	Control	0.8181999999999999	0.0	No	3.29	0.0	n/a	NoResponse	0	n/a	n/a	2	10	Fixation	Neutral	True
109.456	0.3	Control	0.8181999999999999	0.004	No	3.29	-0.004	2.0	NoResponse	0	0.381	108.837	2	10	Target	Neutral	True
109.756	0.4	Control	0.8181999999999999	n/a	No	3.29	n/a	n/a	NoResponse	0	n/a	n/a	2	10	Blank	Neutral	True
109.837	0.3	Control	0.8181999999999999	0.004	No	3.29	-0.004	2.0	NoResponse	0	0.381	n/a	2	10	ButtonPress	Neutral	True
110.158	1.45	Control	0.8181999999999999	n/a	No	3.29	n/a	5.0	NoResponse	0	0.012	109.17	2	10	Feedback	Neutral	True
111.612	3.29	Control	0.8181999999999999	n/a	No	3.29	n/a	n/a	NoResponse	0	0.0	n/a	2	10	ISIslide	Neutral	True
114.922	0.25	Lose2	0.75	0.0	No	2.728	0.022	2.0	NoResponse	-1	0.224	114.146	1	11	Cue	Loss	False
115.146	0.3	Lose2	0.75	0.0	No	2.728	0.022	2.0	NoResponse	-1	0.224	n/a	1	11	ButtonPress	Loss	False
115.173	4.05	Lose2	0.75	0.0	No	2.728	0.001	2.0	NoResponse	-1	3.704	117.877	1	11	Fixation	Loss	False
118.877	0.3	Lose2	0.75	0.0	No	2.728	0.001	2.0	NoResponse	-1	3.704	n/a	1	11	ButtonPress	Loss	False
119.218	0.29	Lose2	0.75	0.004	No	2.728	-0.004	n/a	NoResponse	-1	n/a	n/a	1	11	Target	Loss	False
119.519	0.41	Lose2	0.75	n/a	No	2.728	n/a	n/a	NoResponse	-1	n/a	n/a	1	11	Blank	Loss	False
119.92	1.45	Lose2	0.75	n/a	No	2.728	n/a	5.0	NoResponse	-1	0.008	118.928	1	11	Feedback	Loss	False
121.375	2.728	Lose2	0.75	n/a	No	2.728	n/a	n/a	NoResponse	-1	0.0	n/a	1	11	ISIslide	Loss	False
124.116	0.25	Control	0.7692	0.0	Yes	2.984	0.016	n/a	GoodResponse	0	n/a	n/a	1	12	Cue	Neutral	True
124.367	3.9	Control	0.7692	0.0	Yes	2.984	0.001	n/a	GoodResponse	0	n/a	n/a	1	12	Fixation	Neutral	True
128.262	0.28	Control	0.7692	0.004	Yes	2.984	-0.004	2.0	GoodResponse	0	0.223	127.485	1	12	Target	Neutral	True
128.485	0.3	Control	0.7692	0.004	Yes	2.984	-0.004	2.0	GoodResponse	0	0.223	n/a	1	12	ButtonPress	Neutral	True
128.546	0.42	Control	0.7692	n/a	Yes	2.984	n/a	n/a	GoodResponse	0	n/a	n/a	1	12	Blank	Neutral	True
128.964	1.45	Control	0.7692	n/a	Yes	2.984	n/a	5.0	GoodResponse	0	0.034	127.998	1	12	Feedback	Neutral	True
130.418	2.984	Control	0.7692	n/a	Yes	2.984	n/a	n/a	GoodResponse	0	0.0	n/a	1	12	ISIslide	Neutral	True
133.427	0.25	Control	0.7857	0.0	Yes	2.773	0.027	n/a	GoodResponse	0	n/a	n/a	1	13	Cue	Neutral	True
133.678	4.0	Control	0.7857	0.0	Yes	2.773	0.001	n/a	GoodResponse	0	n/a	n/a	1	13	Fixation	Neutral	True
137.673	0.27	Control	0.7857	0.004	Yes	2.773	-0.004	2.0	GoodResponse	0	0.229	136.902	1	13	Target	Neutral	True
137.902	0.3	Control	0.7857	0.004	Yes	2.773	-0.004	2.0	GoodResponse	0	0.229	n/a	1	13	ButtonPress	Neutral	True
137.957	0.43	Control	0.7857	n/a	Yes	2.773	n/a	n/a	GoodResponse	0	n/a	n/a	1	13	Blank	Neutral	True
138.375	1.45	Control	0.7857	n/a	Yes	2.773	n/a	5.0	GoodResponse	0	0.038	137.413	1	13	Feedback	Neutral	True
139.83	2.773	Control	0.7857	n/a	Yes	2.773	n/a	n/a	GoodResponse	0	0.0	n/a	1	13	ISIslide	Neutral	True
142.621	0.25	Win2	0.7333	0.0	No	2.679	0.021	n/a	NoResponse	0	n/a	n/a	1	14	Cue	MissedWin	True
142.872	4.1	Win2	0.7333	0.0	No	2.679	0.001	n/a	NoResponse	0	n/a	n/a	1	14	Fixation	MissedWin	True
146.968	0.26	Win2	0.7333	0.003	No	2.679	-0.003	2.0	NoResponse	0	0.276	146.244	1	14	Target	MissedWin	True
147.235	0.44	Win2	0.7333	n/a	No	2.679	n/a	n/a	NoResponse	0	n/a	n/a	1	14	Blank	MissedWin	True
147.244	0.3	Win2	0.7333	0.003	No	2.679	-0.003	2.0	NoResponse	0	0.276	n/a	1	14	ButtonPress	MissedWin	True
147.67	1.45	Win2	0.7333	n/a	No	2.679	n/a	5.0	NoResponse	0	0.011	146.681	1	14	Feedback	MissedWin	True
149.124	2.679	Win2	0.7333	n/a	No	2.679	n/a	n/a	NoResponse	0	0.0	n/a	1	14	ISIslide	MissedWin	True
151.816	0.25	Control	0.6875	0.0	No	2.984	0.016	n/a	NoResponse	0	n/a	n/a	1	15	Cue	Neutral	True
152.066	4.0	Control	0.6875	0.0	No	2.984	0.0	2.0	NoResponse	0	3.813	154.879	1	15	Fixation	Neutral	True
155.879	0.3	Control	0.6875	0.0	No	2.984	0.0	2.0	NoResponse	0	3.813	n/a	1	15	ButtonPress	Neutral	True
156.062	0.25	Control	0.6875	0.004	No	2.984	-0.004	n/a	NoResponse	0	n/a	n/a	1	15	Target	Neutral	True
156.312	0.45	Control	0.6875	n/a	No	2.984	n/a	n/a	NoResponse	0	n/a	n/a	1	15	Blank	Neutral	True
156.764	1.45	Control	0.6875	n/a	No	2.984	n/a	5.0	NoResponse	0	0.038	155.802	1	15	Feedback	Neutral	True
158.218	2.984	Control	0.6875	n/a	No	2.984	n/a	n/a	NoResponse	0	0.0	n/a	1	15	ISIslide	Neutral	True
161.227	0.25	Win2	0.6470999999999999	0.0	No	2.873	0.027	n/a	NoResponse	0	n/a	n/a	1	16	Cue	MissedWin	False
161.478	4.0	Win2	0.6470999999999999	0.0	No	2.873	0.001	2.0	NoResponse	0	0.032	160.51	1	16	Fixation	MissedWin	False
161.51	0.3	Win2	0.6470999999999999	0.0	No	2.873	0.001	2.0	NoResponse	0	0.032	n/a	1	16	ButtonPress	MissedWin	False
165.473	0.24	Win2	0.6470999999999999	0.004	No	2.873	-0.004	2.0	NoResponse	0	0.327	164.8	1	16	Target	MissedWin	False
165.724	0.46	Win2	0.6470999999999999	n/a	No	2.873	n/a	n/a	NoResponse	0	n/a	n/a	1	16	Blank	MissedWin	False
165.8	0.3	Win2	0.6470999999999999	0.004	No	2.873	-0.004	2.0	NoResponse	0	0.327	n/a	1	16	ButtonPress	MissedWin	False
166.175	1.45	Win2	0.6470999999999999	n/a	No	2.873	n/a	5.0	NoResponse	0	0.042	165.217	1	16	Feedback	MissedWin	False
167.629	2.873	Win2	0.6470999999999999	n/a	No	2.873	n/a	n/a	NoResponse	0	0.0	n/a	1	16	ISIslide	MissedWin	False
170.521	0.25	Lose2	0.6667000000000001	0.001	Yes	2.729	0.021	2.0	GoodResponse	0	0.095	169.616	1	17	Cue	AvoidedLoss	False
170.616	0.3	Lose2	0.6667000000000001	0.001	Yes	2.729	0.021	2.0	GoodResponse	0	0.095	n/a	1	17	ButtonPress	AvoidedLoss	False
170.772	3.95	Lose2	0.6667000000000001	0.0	Yes	2.729	0.001	n/a	GoodResponse	0	n/a	n/a	1	17	Fixation	AvoidedLoss	False
174.717	0.25	Lose2	0.6667000000000001	0.004	Yes	2.729	-0.004	2.0	GoodResponse	0	0.201	173.918	1	17	Target	AvoidedLoss	False
174.918	0.3	Lose2	0.6667000000000001	0.004	Yes	2.729	-0.004	2.0	GoodResponse	0	0.201	n/a	1	17	ButtonPress	AvoidedLoss	False
174.968	0.45	Lose2	0.6667000000000001	n/a	Yes	2.729	n/a	n/a	GoodResponse	0	n/a	n/a	1	17	Blank	AvoidedLoss	False
175.419	1.45	Lose2	0.6667000000000001	n/a	Yes	2.729	n/a	5.0	GoodResponse	0	0.018	174.437	1	17	Feedback	AvoidedLoss	False
176.874	2.729	Lose2	0.6667000000000001	n/a	Yes	2.729	n/a	n/a	GoodResponse	0	0.0	n/a	1	17	ISIslide	AvoidedLoss	False
179.615	0.25	Lose2	0.6315999999999999	0.0	No	2.735	0.015	n/a	NoResponse	-1	n/a	n/a	0	18	Cue	Loss	True
179.866	4.05	Lose2	0.6315999999999999	0.0	No	2.735	0.001	n/a	NoResponse	-1	n/a	n/a	0	18	Fixation	Loss	True
183.911	0.24	Lose2	0.6315999999999999	0.004	No	2.735	-0.004	2.0	NoResponse	-1	0.27	183.181	0	18	Target	Loss	True
184.162	0.46	Lose2	0.6315999999999999	n/a	No	2.735	n/a	n/a	NoResponse	-1	n/a	n/a	0	18	Blank	Loss	True
184.181	0.3	Lose2	0.6315999999999999	0.004	No	2.735	-0.004	2.0	NoResponse	-1	0.27	n/a	0	18	ButtonPress	Loss	True
184.614	1.45	Lose2	0.6315999999999999	n/a	No	2.735	n/a	5.0	NoResponse	-1	0.042	183.656	0	18	Feedback	Loss	True
186.068	2.735	Lose2	0.6315999999999999	n/a	No	2.735	n/a	n/a	NoResponse	-1	0.0	n/a	0	18	ISIslide	Loss	True
188.826	0.25	Control	0.6	0.0	No	2.924	0.026	n/a	NoResponse	0	n/a	n/a	0	19	Cue	Neutral	True
189.077	3.95	Control	0.6	0.0	No	2.924	0.001	n/a	NoResponse	0	n/a	n/a	0	19	Fixation	Neutral	True
193.022	0.25	Control	0.6	0.004	No	2.924	-0.004	2.0	NoResponse	0	0.336	192.358	0	19	Target	Neutral	True
193.273	0.45	Control	0.6	n/a	No	2.924	n/a	n/a	NoResponse	0	n/a	n/a	0	19	Blank	Neutral	True
193.358	0.3	Control	0.6	0.004	No	2.924	-0.004	2.0	NoResponse	0	0.336	n/a	0	19	ButtonPress	Neutral	True
193.724	1.45	Control	0.6	n/a	No	2.924	n/a	5.0	NoResponse	0	0.008	192.732	0	19	Feedback	Neutral	True
195.179	2.924	Control	0.6	n/a	No	2.924	n/a	n/a	NoResponse	0	0.0	n/a	0	19	ISIslide	Neutral	True
198.121	0.25	Control	0.5714	0.0	No	2.629	0.021	n/a	NoResponse	0	n/a	n/a	0	20	Cue	Neutral	True
198.371	4.05	Control	0.5714	0.0	No	2.629	0.0	n/a	NoResponse	0	n/a	n/a	0	20	Fixation	Neutral	True
202.417	0.26	Control	0.5714	0.004	No	2.629	-0.004	2.0	NoResponse	0	0.374	201.791	0	20	Target	Neutral	True
202.684	0.44	Control	0.5714	n/a	No	2.629	n/a	n/a	NoResponse	0	n/a	n/a	0	20	Blank	Neutral	True
202.791	0.3	Control	0.5714	0.004	No	2.629	-0.004	2.0	NoResponse	0	0.374	n/a	0	20	ButtonPress	Neutral	True
203.119	1.45	Control	0.5714	n/a	No	2.629	n/a	5.0	NoResponse	0	0.024	202.143	0	20	Feedback	Neutral	True
204.573	2.629	Control	0.5714	n/a	No	2.629	n/a	n/a	NoResponse	0	0.0	n/a	0	20	ISIslide	Neutral	True
207.214	0.25	Control	0.5909	0.001	Yes	2.786	0.014	2.0	GoodResponse	0	0.245	206.459	0	21	Cue	Neutral	False
207.459	0.3	Control	0.5909	0.001	Yes	2.786	0.014	2.0	GoodResponse	0	0.245	n/a	0	21	ButtonPress	Neutral	False
207.465	4.1	Control	0.5909	0.0	Yes	2.786	0.001	n/a	GoodResponse	0	n/a	n/a	0	21	Fixation	Neutral	False
211.561	0.27	Control	0.5909	0.003	Yes	2.786	-0.003	2.0	GoodResponse	0	0.193	210.754	0	21	Target	Neutral	False
211.754	0.3	Control	0.5909	0.003	Yes	2.786	-0.003	2.0	GoodResponse	0	0.193	n/a	0	21	ButtonPress	Neutral	False
211.845	0.43	Control	0.5909	n/a	Yes	2.786	n/a	n/a	GoodResponse	0	n/a	n/a	0	21	Blank	Neutral	False
212.263	1.45	Control	0.5909	n/a	Yes	2.786	n/a	5.0	GoodResponse	0	0.007	211.27	0	21	Feedback	Neutral	False
213.717	2.786	Control	0.5909	n/a	Yes	2.786	n/a	n/a	GoodResponse	0	0.0	n/a	0	21	ISIslide	Neutral	False
216.526	0.25	Control	0.5652	0.0	No	2.774	0.026	2.0	NoResponse	0	0.201	215.727	0	22	Cue	Neutral	False
216.727	0.3	Control	0.5652	0.0	No	2.774	0.026	2.0	NoResponse	0	0.201	n/a	0	22	ButtonPress	Neutral	False
216.776	4.0	Control	0.5652	0.001	No	2.774	0.0	2.0	NoResponse	0	3.648	219.424	0	22	Fixation	Neutral	False
220.424	0.3	Control	0.5652	0.001	No	2.774	0.0	2.0	NoResponse	0	3.648	n/a	0	22	ButtonPress	Neutral	False
220.772	0.28	Control	0.5652	0.004	No	2.774	-0.004	n/a	NoResponse	0	n/a	n/a	0	22	Target	Neutral	False
221.056	0.42	Control	0.5652	n/a	No	2.774	n/a	n/a	NoResponse	0	n/a	n/a	0	22	Blank	Neutral	False
221.474	1.45	Control	0.5652	n/a	No	2.774	n/a	5.0	NoResponse	0	0.011	220.485	0	22	Feedback	Neutral	False
222.928	2.774	Control	0.5652	n/a	No	2.774	n/a	n/a	NoResponse	0	0.0	n/a	0	22	ISIslide	Neutral	False
225.72	0.25	Control	0.5832999999999999	0.0	Yes	2.78	0.02	n/a	GoodResponse	0	n/a	n/a	0	23	Cue	Neutral	True
225.971	3.9	Control	0.5832999999999999	0.0	Yes	2.78	0.001	n/a	GoodResponse	0	n/a	n/a	0	23	Fixation	Neutral	True
229.866	0.29	Control	0.5832999999999999	0.004	Yes	2.78	-0.004	2.0	GoodResponse	0	0.257	229.123	0	23	Target	Neutral	True
230.123	0.3	Control	0.5832999999999999	0.004	Yes	2.78	-0.004	2.0	GoodResponse	0	0.257	n/a	0	23	ButtonPress	Neutral	True
230.166	0.41	Control	0.5832999999999999	n/a	Yes	2.78	n/a	n/a	GoodResponse	0	n/a	n/a	0	23	Blank	Neutral	True
230.568	1.45	Control	0.5832999999999999	n/a	Yes	2.78	n/a	5.0	GoodResponse	0	0.039	229.607	0	23	Feedback	Neutral	True
232.022	2.78	Control	0.5832999999999999	n/a	Yes	2.78	n/a	n/a	GoodResponse	0	0.0	n/a	0	23	ISIslide	Neutral	True
234.83	0.25	Win2	0.56	0.0	No	3.12	0.03	n/a	LatePress	0	n/a	n/a	0	24	Cue	MissedWin	True
235.081	3.95	Win2	0.56	0.0	No	3.12	0.001	n/a	LatePress	0	n/a	n/a	0	24	Fixation	MissedWin	True
239.026	0.3	Win2	0.56	0.004	No	3.12	-0.004	2.0	LatePress	0	0.304	238.33	0	24	Target	MissedWin	True
239.327	0.4	Win2	0.56	n/a	No	3.12	n/a	n/a	LatePress	0	n/a	n/a	0	24	Blank	MissedWin	True
239.33	0.3	Win2	0.56	0.004	No	3.12	-0.004	2.0	LatePress	0	0.304	n/a	0	24	ButtonPress	MissedWin	True
239.728	1.45	Win2	0.56	n/a	No	3.12	n/a	5.0	LatePress	0	0.001	238.729	0	24	Feedback	MissedWin	True
241.183	3.12	Win2	0.56	n/a	No	3.12	n/a	n/a	LatePress	0	0.0	n/a	0	24	ISIslide	MissedWin	True
244.325	0.25	Win2	0.5769	0.001	Yes	3.075	0.025	n/a	GoodResponse	1	n/a	n/a	1	25	Cue	Win	False
244.576	4.0	Win2	0.5769	0.0	Yes	3.075	0.001	2.0	GoodResponse	1	3.094	246.67	1	25	Fixation	Win	False
247.67	0.3	Win2	0.5769	0.0	Yes	3.075	0.001	2.0	GoodResponse	1	3.094	n/a	1	25	ButtonPress	Win	False
248.571	0.31	Win2	0.5769	0.004	Yes	3.075	-0.004	2.0	GoodResponse	1	0.212	247.783	1	25	Target	Win	False
248.783	0.3	Win2	0.5769	0.004	Yes	3.075	-0.004	2.0	GoodResponse	1	0.212	n/a	1	25	ButtonPress	Win	False
248.889	0.39	Win2	0.5769	n/a	Yes	3.075	n/a	n/a	GoodResponse	1	n/a	n/a	1	25	Blank	Win	False
249.274	1.45	Win2	0.5769	n/a	Yes	3.075	n/a	5.0	GoodResponse	1	0.015	248.289	1	25	Feedback	Win	False
250.728	3.075	Win2	0.5769	n/a	Yes	3.075	n/a	n/a	GoodResponse	1	0.0	n/a	1	25	ISIslide	Win	False
253.821	0.25	Win2	0.5926	0.0	Yes	2.929	0.021	n/a	GoodResponse	1	n/a	n/a	2	26	Cue	Win	True
254.071	3.95	Win2	0.5926	0.0	Yes	2.929	0.0	n/a	GoodResponse	1	n/a	n/a	2	26	Fixation	Win	True
258.033	0.32	Win2	0.5926	0.0	Yes	2.929	0.012	2.0	GoodResponse	1	0.29	257.323	2	26	Target	Win	True
258.323	0.3	Win2	0.5926	0.0	Yes	2.929	0.012	2.0	GoodResponse	1	0.29	n/a	2	26	ButtonPress	Win	True
258.351	0.38	Win2	0.5926	n/a	Yes	2.929	n/a	n/a	GoodResponse	1	n/a	n/a	2	26	Blank	Win	True
258.718	1.45	Win2	0.5926	n/a	Yes	2.929	n/a	5.0	GoodResponse	1	0.035	257.753	2	26	Feedback	Win	True
260.173	2.929	Win2	0.5926	n/a	Yes	2.929	n/a	n/a	GoodResponse	1	0.0	n/a	2	26	ISIslide	Win	True
263.115	0.25	Lose2	0.6071	0.0	Yes	2.835	0.015	n/a	GoodResponse	0	n/a	n/a	2	27	Cue	AvoidedLoss	True
263.366	4.05	Lose2	0.6071	0.0	Yes	2.835	0.001	n/a	GoodResponse	0	n/a	n/a	2	27	Fixation	AvoidedLoss	True
267.411	0.33	Lose2	0.6071	0.004	Yes	2.835	-0.004	2.0	GoodResponse	0	0.146	266.557	2	27	Target	AvoidedLoss	True
267.557	0.3	Lose2	0.6071	0.004	Yes	2.835	-0.004	2.0	GoodResponse	0	0.146	n/a	2	27	ButtonPress	AvoidedLoss	True
267.745	0.37	Lose2	0.6071	n/a	Yes	2.835	n/a	n/a	GoodResponse	0	n/a	n/a	2	27	Blank	AvoidedLoss	True
268.113	1.45	Lose2	0.6071	n/a	Yes	2.835	n/a	5.0	GoodResponse	0	0.008	267.121	2	27	Feedback	AvoidedLoss	True
269.568	2.835	Lose2	0.6071	n/a	Yes	2.835	n/a	n/a	GoodResponse	0	0.0	n/a	2	27	ISIslide	AvoidedLoss	True
272.426	0.25	Control	0.5861999999999999	0.0	No	2.824	0.026	n/a	PrematurePress	0	n/a	n/a	2	28	Cue	Neutral	False
272.677	4.05	Control	0.5861999999999999	0.0	No	2.824	0.001	2.0	PrematurePress	0	0.008	271.685	2	28	Fixation	Neutral	False
272.685	0.3	Control	0.5861999999999999	0.0	No	2.824	0.001	2.0	PrematurePress	0	0.008	n/a	2	28	ButtonPress	Neutral	False
276.722	0.34	Control	0.5861999999999999	0.004	No	2.824	-0.004	2.0	PrematurePress	0	0.048	275.77	2	28	Target	Neutral	False
276.77	0.3	Control	0.5861999999999999	0.004	No	2.824	-0.004	2.0	PrematurePress	0	0.048	n/a	2	28	ButtonPress	Neutral	False
277.073	0.36	Control	0.5861999999999999	n/a	No	2.824	n/a	n/a	PrematurePress	0	n/a	n/a	2	28	Blank	Neutral	False
277.424	1.45	Control	0.5861999999999999	n/a	No	2.824	n/a	5.0	PrematurePress	0	0.012	276.436	2	28	Feedback	Neutral	False
278.879	2.824	Control	0.5861999999999999	n/a	No	2.824	n/a	n/a	PrematurePress	0	0.0	n/a	2	28	ISIslide	Neutral	False
281.721	0.25	Lose2	0.6	0.0	Yes	2.829	0.021	n/a	GoodResponse	0	n/a	n/a	2	29	Cue	AvoidedLoss	False
281.971	3.95	Lose2	0.6	0.0	Yes	2.829	0.0	2.0	GoodResponse	0	0.048	281.019	2	29	Fixation	AvoidedLoss	False
282.019	0.3	Lose2	0.6	0.0	Yes	2.829	0.0	2.0	GoodResponse	0	0.048	n/a	2	29	ButtonPress	AvoidedLoss	False
285.916	0.35	Lose2	0.6	0.005	Yes	2.829	-0.005	2.0	GoodResponse	0	0.207	285.123	2	29	Target	AvoidedLoss	False
286.123	0.3	Lose2	0.6	0.005	Yes	2.829	-0.005	2.0	GoodResponse	0	0.207	n/a	2	29	ButtonPress	AvoidedLoss	False
286.268	0.35	Lose2	0.6	n/a	Yes	2.829	n/a	n/a	GoodResponse	0	n/a	n/a	2	29	Blank	AvoidedLoss	False
286.619	1.45	Lose2	0.6	n/a	Yes	2.829	n/a	5.0	GoodResponse	0	0.035	285.654	2	29	Feedback	AvoidedLoss	False
288.073	2.829	Lose2	0.6	n/a	Yes	2.829	n/a	n/a	GoodResponse	0	0.0	n/a	2	29	ISIslide	AvoidedLoss	False
290.931	0.25	Win2	0.6129	0.001	Yes	2.769	0.031	n/a	GoodResponse	1	n/a	n/a	3	30	Cue	Win	False
291.182	3.9	Win2	0.6129	0.0	Yes	2.769	0.001	2.0	GoodResponse	1	0.244	290.426	3	30	Fixation	Win	False
291.426	0.3	Win2	0.6129	0.0	Yes	2.769	0.001	2.0	GoodResponse	1	0.244	n/a	3	30	ButtonPress	Win	False
295.077	0.36	Win2	0.6129	0.004	Yes	2.769	-0.004	2.0	GoodResponse	1	0.253	294.33	3	30	Target	Win	False
295.33	0.3	Win2	0.6129	0.004	Yes	2.769	-0.004	2.0	GoodResponse	1	0.253	n/a	3	30	ButtonPress	Win	False
295.445	0.34	Win2	0.6129	n/a	Yes	2.769	n/a	n/a	GoodResponse	1	n/a	n/a	3	30	Blank	Win	False
295.779	1.45	Win2	0.6129	n/a	Yes	2.769	n/a	5.0	GoodResponse	1	0.046	294.825	3	30	Feedback	Win	False
297.234	2.769	Win2	0.6129	n/a	Yes	2.769	n/a	n/a	GoodResponse	1	0.0	n/a	3	30	ISIslide	Win	False
300.025	0.25	Lose2	0.625	0.0	Yes	2.825	0.025	n/a	GoodResponse	0	n/a	n/a	3	31	Cue	AvoidedLoss	True
300.276	4.05	Lose2	0.625	0.0	Yes	2.825	0.001	n/a	GoodResponse	0	n/a	n/a	3	31	Fixation	AvoidedLoss	True
304.321	0.37	Lose2	0.625	0.004	Yes	2.825	-0.004	2.0	GoodResponse	0	0.221	303.542	3	31	Target	AvoidedLoss	True
304.542	0.3	Lose2	0.625	0.004	Yes	2.825	-0.004	2.0	GoodResponse	0	0.221	n/a	3	31	ButtonPress	AvoidedLoss	True
304.706	0.33	Lose2	0.625	n/a	Yes	2.825	n/a	n/a	GoodResponse	0	n/a	n/a	3	31	Blank	AvoidedLoss	True
305.024	1.45	Lose2	0.625	n/a	Yes	2.825	n/a	5.0	GoodResponse	0	0.021	304.045	3	31	Feedback	AvoidedLoss	True
306.478	2.825	Lose2	0.625	n/a	Yes	2.825	n/a	n/a	GoodResponse	0	0.0	n/a	3	31	ISIslide	AvoidedLoss	True
309.32	0.25	Lose2	0.6364	0.0	Yes	2.63	0.02	2.0	GoodResponse	0	0.215	308.535	3	32	Cue	AvoidedLoss	False
309.535	0.3	Lose2	0.6364	0.0	Yes	2.63	0.02	2.0	GoodResponse	0	0.215	n/a	3	32	ButtonPress	AvoidedLoss	False
309.571	4.15	Lose2	0.6364	0.0	Yes	2.63	0.001	2.0	GoodResponse	0	3.659	312.23	3	32	Fixation	AvoidedLoss	False
313.23	0.3	Lose2	0.6364	0.0	Yes	2.63	0.001	2.0	GoodResponse	0	3.659	n/a	3	32	ButtonPress	AvoidedLoss	False
313.716	0.38	Lose2	0.6364	0.004	Yes	2.63	-0.004	2.0	GoodResponse	0	0.233	312.949	3	32	Target	AvoidedLoss	False
313.949	0.3	Lose2	0.6364	0.004	Yes	2.63	-0.004	2.0	GoodResponse	0	0.233	n/a	3	32	ButtonPress	AvoidedLoss	False
314.101	0.32	Lose2	0.6364	n/a	Yes	2.63	n/a	n/a	GoodResponse	0	n/a	n/a	3	32	Blank	AvoidedLoss	False
314.418	1.45	Lose2	0.6364	n/a	Yes	2.63	n/a	5.0	GoodResponse	0	0.041	313.459	3	32	Feedback	AvoidedLoss	False
315.873	2.63	Lose2	0.6364	n/a	Yes	2.63	n/a	n/a	GoodResponse	0	0.0	n/a	3	32	ISIslide	AvoidedLoss	False
318.531	0.25	Win2	0.6470999999999999	0.0	Yes	2.669	0.031	n/a	GoodResponse	1	n/a	n/a	4	33	Cue	Win	True
318.781	4.0	Win2	0.6470999999999999	0.0	Yes	2.669	0.0	n/a	GoodResponse	1	n/a	n/a	4	33	Fixation	Win	True
322.777	0.39	Win2	0.6470999999999999	0.004	Yes	2.669	-0.004	2.0	GoodResponse	1	0.296	322.073	4	33	Target	Win	True
323.073	0.3	Win2	0.6470999999999999	0.004	Yes	2.669	-0.004	2.0	GoodResponse	1	0.296	n/a	4	33	ButtonPress	Win	True
323.178	0.31	Win2	0.6470999999999999	n/a	Yes	2.669	n/a	n/a	GoodResponse	1	n/a	n/a	4	33	Blank	Win	True
323.479	1.45	Win2	0.6470999999999999	n/a	Yes	2.669	n/a	5.0	GoodResponse	1	0.008	322.487	4	33	Feedback	Win	True
324.933	2.669	Win2	0.6470999999999999	n/a	Yes	2.669	n/a	n/a	GoodResponse	1	0.0	n/a	4	33	ISIslide	Win	True
327.625	0.25	Lose2	0.6570999999999999	0.0	Yes	2.625	0.025	n/a	GoodResponse	0	n/a	n/a	4	34	Cue	AvoidedLoss	True
327.875	4.05	Lose2	0.6570999999999999	0.0	Yes	2.625	0.0	n/a	GoodResponse	0	n/a	n/a	4	34	Fixation	AvoidedLoss	True
331.921	0.4	Lose2	0.6570999999999999	0.004	Yes	2.625	-0.004	2.0	GoodResponse	0	0.266	331.187	4	34	Target	AvoidedLoss	True
332.187	0.3	Lose2	0.6570999999999999	0.004	Yes	2.625	-0.004	2.0	GoodResponse	0	0.266	n/a	4	34	ButtonPress	AvoidedLoss	True
332.322	0.3	Lose2	0.6570999999999999	n/a	Yes	2.625	n/a	n/a	GoodResponse	0	n/a	n/a	4	34	Blank	AvoidedLoss	True
332.623	1.45	Lose2	0.6570999999999999	n/a	Yes	2.625	n/a	5.0	GoodResponse	0	0.031	331.654	4	34	Feedback	AvoidedLoss	True
334.077	2.625	Lose2	0.6570999999999999	n/a	Yes	2.625	n/a	n/a	GoodResponse	0	0.0	n/a	4	34	ISIslide	AvoidedLoss	True
336.718	0.25	Lose2	0.6667000000000001	0.0	Yes	2.682	0.018	n/a	GoodResponse	0	n/a	n/a	4	35	Cue	AvoidedLoss	True
336.969	4.0	Lose2	0.6667000000000001	0.0	Yes	2.682	0.001	n/a	GoodResponse	0	n/a	n/a	4	35	Fixation	AvoidedLoss	True
340.964	0.4	Lose2	0.6667000000000001	0.004	Yes	2.682	-0.004	2.0	GoodResponse	0	0.336	340.3	4	35	Target	AvoidedLoss	True
341.3	0.3	Lose2	0.6667000000000001	0.004	Yes	2.682	-0.004	2.0	GoodResponse	0	0.336	n/a	4	35	ButtonPress	AvoidedLoss	True
341.366	0.3	Lose2	0.6667000000000001	n/a	Yes	2.682	n/a	n/a	GoodResponse	0	n/a	n/a	4	35	Blank	AvoidedLoss	True
341.666	1.45	Lose2	0.6667000000000001	n/a	Yes	2.682	n/a	5.0	GoodResponse	0	0.012	340.678	4	35	Feedback	AvoidedLoss	True
343.121	2.682	Lose2	0.6667000000000001	n/a	Yes	2.682	n/a	n/a	GoodResponse	0	0.0	n/a	4	35	ISIslide	AvoidedLoss	True
345.829	0.25	Control	0.6757	0.0	Yes	2.671	0.029	n/a	GoodResponse	0	n/a	n/a	4	36	Cue	Neutral	True
346.08	4.0	Control	0.6757	0.0	Yes	2.671	0.001	n/a	GoodResponse	0	n/a	n/a	4	36	Fixation	Neutral	True
350.075	0.39	Control	0.6757	0.004	Yes	2.671	-0.004	2.0	GoodResponse	0	0.258	349.333	4	36	Target	Neutral	True
350.333	0.3	Control	0.6757	0.004	Yes	2.671	-0.004	2.0	GoodResponse	0	0.258	n/a	4	36	ButtonPress	Neutral	True
350.476	0.31	Control	0.6757	n/a	Yes	2.671	n/a	n/a	GoodResponse	0	n/a	n/a	4	36	Blank	Neutral	True
350.777	1.45	Control	0.6757	n/a	Yes	2.671	n/a	5.0	GoodResponse	0	0.023	349.8	4	36	Feedback	Neutral	True
352.231	2.671	Control	0.6757	n/a	Yes	2.671	n/a	n/a	GoodResponse	0	0.0	n/a	4	36	ISIslide	Neutral	True
354.923	0.25	Win2	0.6842	0.0	Yes	2.877	0.023	n/a	GoodResponse	1	n/a	n/a	5	37	Cue	Win	True
355.174	4.0	Win2	0.6842	0.0	Yes	2.877	0.001	n/a	GoodResponse	1	n/a	n/a	5	37	Fixation	Win	True
359.169	0.38	Win2	0.6842	0.004	Yes	2.877	-0.004	2.0	GoodResponse	1	0.265	358.434	5	37	Target	Win	True
359.434	0.3	Win2	0.6842	0.004	Yes	2.877	-0.004	2.0	GoodResponse	1	0.265	n/a	5	37	ButtonPress	Win	True
359.553	0.32	Win2	0.6842	n/a	Yes	2.877	n/a	n/a	GoodResponse	1	n/a	n/a	5	37	Blank	Win	True
359.871	1.45	Win2	0.6842	n/a	Yes	2.877	n/a	5.0	GoodResponse	1	0.008	358.879	5	37	Feedback	Win	True
361.325	2.877	Win2	0.6842	n/a	Yes	2.877	n/a	n/a	GoodResponse	1	0.0	n/a	5	37	ISIslide	Win	True
364.217	0.25	Lose2	0.6923	0.0	Yes	2.833	0.017	n/a	GoodResponse	0	n/a	n/a	5	38	Cue	AvoidedLoss	True
364.468	3.95	Lose2	0.6923	0.0	Yes	2.833	0.001	n/a	GoodResponse	0	n/a	n/a	5	38	Fixation	AvoidedLoss	True
368.413	0.37	Lose2	0.6923	0.004	Yes	2.833	-0.004	2.0	GoodResponse	0	0.227	367.64	5	38	Target	AvoidedLoss	True
368.64	0.3	Lose2	0.6923	0.004	Yes	2.833	-0.004	2.0	GoodResponse	0	0.227	n/a	5	38	ButtonPress	AvoidedLoss	True
368.798	0.33	Lose2	0.6923	n/a	Yes	2.833	n/a	n/a	GoodResponse	0	n/a	n/a	5	38	Blank	AvoidedLoss	True
369.115	1.45	Lose2	0.6923	n/a	Yes	2.833	n/a	5.0	GoodResponse	0	0.027	368.142	5	38	Feedback	AvoidedLoss	True
370.57	2.833	Lose2	0.6923	n/a	Yes	2.833	n/a	n/a	GoodResponse	0	0.0	n/a	5	38	ISIslide	AvoidedLoss	True
373.428	0.25	Win2	0.7	0.0	Yes	2.972	0.028	n/a	GoodResponse	1	n/a	n/a	6	39	Cue	Win	True
373.679	4.1	Win2	0.7	0.0	Yes	2.972	0.001	n/a	GoodResponse	1	n/a	n/a	6	39	Fixation	Win	True
377.774	0.36	Win2	0.7	0.004	Yes	2.972	-0.004	2.0	GoodResponse	1	0.257	377.031	6	39	Target	Win	True
378.031	0.3	Win2	0.7	0.004	Yes	2.972	-0.004	2.0	GoodResponse	1	0.257	n/a	6	39	ButtonPress	Win	True
378.142	0.34	Win2	0.7	n/a	Yes	2.972	n/a	n/a	GoodResponse	1	n/a	n/a	6	39	Blank	Win	True
378.477	1.45	Win2	0.7	n/a	Yes	2.972	n/a	5.0	GoodResponse	1	0.03	377.507	6	39	Feedback	Win	True
379.931	2.972	Win2	0.7	n/a	Yes	2.972	n/a	n/a	GoodResponse	1	0.0	n/a	6	39	ISIslide	Win	True
382.923	0.25	Win2	0.7073	0.0	Yes	2.727	0.023	n/a	GoodResponse	1	n/a	n/a	7	40	Cue	Win	True
383.174	3.95	Win2	0.7073	0.0	Yes	2.727	0.001	n/a	GoodResponse	1	n/a	n/a	7	40	Fixation	Win	True
387.119	0.35	Win2	0.7073	0.004	Yes	2.727	-0.004	2.0	GoodResponse	1	0.253	386.372	7	40	Target	Win	True
387.372	0.3	Win2	0.7073	0.004	Yes	2.727	-0.004	2.0	GoodResponse	1	0.253	n/a	7	40	ButtonPress	Win	True
387.47	0.35	Win2	0.7073	n/a	Yes	2.727	n/a	n/a	GoodResponse	1	n/a	n/a	7	40	Blank	Win	True
387.821	1.45	Win2	0.7073	n/a	Yes	2.727	n/a	5.0	GoodResponse	1	0.008	386.829	7	40	Feedback	Win	True
389.276	2.727	Win2	0.7073	n/a	Yes	2.727	n/a	n/a	GoodResponse	1	0.0	n/a	7	40	ISIslide	Win	True
392.017	0.25	Win2	0.6905	0.0	No	2.783	0.017	n/a	NoResponse	0	n/a	n/a	7	41	Cue	MissedWin	True
392.268	3.9	Win2	0.6905	0.0	No	2.783	0.001	n/a	NoResponse	0	n/a	n/a	7	41	Fixation	MissedWin	True
396.163	0.34	Win2	0.6905	0.004	No	2.783	-0.004	2.0	NoResponse	0	0.442	395.605	7	41	Target	MissedWin	True
396.514	0.36	Win2	0.6905	n/a	No	2.783	n/a	n/a	NoResponse	0	n/a	n/a	7	41	Blank	MissedWin	True
396.605	0.3	Win2	0.6905	0.004	No	2.783	-0.004	2.0	NoResponse	0	0.442	n/a	7	41	ButtonPress	MissedWin	True
396.865	1.45	Win2	0.6905	n/a	No	2.783	n/a	5.0	NoResponse	0	0.032	395.897	7	41	Feedback	MissedWin	True
398.319	2.783	Win2	0.6905	n/a	No	2.783	n/a	n/a	NoResponse	0	0.0	n/a	7	41	ISIslide	MissedWin	True
401.128	0.25	Control	0.6977	0.0	Yes	2.922	0.028	n/a	GoodResponse	0	n/a	n/a	7	42	Cue	Neutral	True
401.378	3.85	Control	0.6977	0.0	Yes	2.922	0.0	n/a	GoodResponse	0	n/a	n/a	7	42	Fixation	Neutral	True
405.24	0.33	Control	0.6977	0.0	Yes	2.922	0.012	2.0	GoodResponse	0	0.206	404.446	7	42	Target	Neutral	True
405.446	0.3	Control	0.6977	0.0	Yes	2.922	0.012	2.0	GoodResponse	0	0.206	n/a	7	42	ButtonPress	Neutral	True
405.558	0.37	Control	0.6977	n/a	Yes	2.922	n/a	n/a	GoodResponse	0	n/a	n/a	7	42	Blank	Neutral	True
405.925	1.45	Control	0.6977	n/a	Yes	2.922	n/a	5.0	GoodResponse	0	0.046	404.971	7	42	Feedback	Neutral	True
407.38	2.922	Control	0.6977	n/a	Yes	2.922	n/a	n/a	GoodResponse	0	0.0	n/a	7	42	ISIslide	Neutral	True
410.322	0.25	Win2	0.7045	0.0	Yes	3.178	0.022	n/a	GoodResponse	1	n/a	n/a	8	43	Cue	Win	True
410.573	4.0	Win2	0.7045	0.0	Yes	3.178	0.001	n/a	GoodResponse	1	n/a	n/a	8	43	Fixation	Win	True
414.568	0.32	Win2	0.7045	0.004	Yes	3.178	-0.004	2.0	GoodResponse	1	0.252	413.82	8	43	Target	Win	True
414.82	0.3	Win2	0.7045	0.004	Yes	3.178	-0.004	2.0	GoodResponse	1	0.252	n/a	8	43	ButtonPress	Win	True
414.902	0.38	Win2	0.7045	n/a	Yes	3.178	n/a	n/a	GoodResponse	1	n/a	n/a	8	43	Blank	Win	True
415.27	1.45	Win2	0.7045	n/a	Yes	3.178	n/a	5.0	GoodResponse	1	0.018	414.288	8	43	Feedback	Win	True
416.724	3.178	Win2	0.7045	n/a	Yes	3.178	n/a	n/a	GoodResponse	1	0.0	n/a	8	43	ISIslide	Win	True
419.917	0.25	Win2	0.7111	0.0	Yes	2.983	0.017	n/a	GoodResponse	1	n/a	n/a	9	44	Cue	Win	True
420.168	4.0	Win2	0.7111	0.0	Yes	2.983	0.001	n/a	GoodResponse	1	n/a	n/a	9	44	Fixation	Win	True
424.163	0.31	Win2	0.7111	0.004	Yes	2.983	-0.004	2.0	GoodResponse	1	0.256	423.419	9	44	Target	Win	True
424.419	0.3	Win2	0.7111	0.004	Yes	2.983	-0.004	2.0	GoodResponse	1	0.256	n/a	9	44	ButtonPress	Win	True
424.481	0.39	Win2	0.7111	n/a	Yes	2.983	n/a	n/a	GoodResponse	1	n/a	n/a	9	44	Blank	Win	True
424.865	1.45	Win2	0.7111	n/a	Yes	2.983	n/a	5.0	GoodResponse	1	0.032	423.897	9	44	Feedback	Win	True
426.32	2.983	Win2	0.7111	n/a	Yes	2.983	n/a	n/a	GoodResponse	1	0.0	n/a	9	44	ISIslide	Win	True
429.329	0.25	Control	0.7173999999999999	0.0	Yes	2.871	0.029	n/a	GoodResponse	0	n/a	n/a	9	45	Cue	Neutral	True
429.579	4.1	Control	0.7173999999999999	0.0	Yes	2.871	0.0	n/a	GoodResponse	0	n/a	n/a	9	45	Fixation	Neutral	True
433.675	0.3	Control	0.7173999999999999	0.004	Yes	2.871	-0.004	2.0	GoodResponse	0	0.213	432.888	9	45	Target	Neutral	True
433.888	0.3	Control	0.7173999999999999	0.004	Yes	2.871	-0.004	2.0	GoodResponse	0	0.213	n/a	9	45	ButtonPress	Neutral	True
433.976	0.4	Control	0.7173999999999999	n/a	Yes	2.871	n/a	n/a	GoodResponse	0	n/a	n/a	9	45	Blank	Neutral	True
434.377	1.45	Control	0.7173999999999999	n/a	Yes	2.871	n/a	5.0	GoodResponse	0	0.032	433.409	9	45	Feedback	Neutral	True
435.831	2.871	Control	0.7173999999999999	n/a	Yes	2.871	n/a	n/a	GoodResponse	0	0.0	n/a	9	45	ISIslide	Neutral	True
438.723	0.25	Lose2	0.7234	0.0	Yes	3.377	0.023	n/a	GoodResponse	0	n/a	n/a	9	46	Cue	AvoidedLoss	True
438.974	4.0	Lose2	0.7234	0.0	Yes	3.377	0.001	n/a	GoodResponse	0	n/a	n/a	9	46	Fixation	AvoidedLoss	True
442.969	0.29	Lose2	0.7234	0.004	Yes	3.377	-0.004	2.0	GoodResponse	0	0.28	442.249	9	46	Target	AvoidedLoss	True
443.249	0.3	Lose2	0.7234	0.004	Yes	3.377	-0.004	2.0	GoodResponse	0	0.28	n/a	9	46	ButtonPress	AvoidedLoss	True
443.27	0.41	Lose2	0.7234	n/a	Yes	3.377	n/a	n/a	GoodResponse	0	n/a	n/a	9	46	Blank	AvoidedLoss	True
443.671	1.45	Lose2	0.7234	n/a	Yes	3.377	n/a	5.0	GoodResponse	0	0.008	442.679	9	46	Feedback	AvoidedLoss	True
445.126	3.377	Lose2	0.7234	n/a	Yes	3.377	n/a	n/a	GoodResponse	0	0.0	n/a	9	46	ISIslide	AvoidedLoss	True
448.519	0.25	Lose2	0.7292000000000001	0.0	Yes	2.681	0.019	n/a	GoodResponse	0	n/a	n/a	9	47	Cue	AvoidedLoss	True
448.77	4.0	Lose2	0.7292000000000001	0.0	Yes	2.681	0.001	n/a	GoodResponse	0	n/a	n/a	9	47	Fixation	AvoidedLoss	True
452.765	0.28	Lose2	0.7292000000000001	0.004	Yes	2.681	-0.004	2.0	GoodResponse	0	0.222	451.987	9	47	Target	AvoidedLoss	True
452.987	0.3	Lose2	0.7292000000000001	0.004	Yes	2.681	-0.004	2.0	GoodResponse	0	0.222	n/a	9	47	ButtonPress	AvoidedLoss	True
453.05	0.42	Lose2	0.7292000000000001	n/a	Yes	2.681	n/a	n/a	GoodResponse	0	n/a	n/a	9	47	Blank	AvoidedLoss	True
453.467	1.45	Lose2	0.7292000000000001	n/a	Yes	2.681	n/a	5.0	GoodResponse	0	0.015	452.482	9	47	Feedback	AvoidedLoss	True
454.922	2.681	Lose2	0.7292000000000001	n/a	Yes	2.681	n/a	n/a	GoodResponse	0	0.0	n/a	9	47	ISIslide	AvoidedLoss	True
457.63	0.25	Lose2	0.7347	0.0	Yes	3.02	0.03	n/a	GoodResponse	0	n/a	n/a	9	48	Cue	AvoidedLoss	True
457.881	3.95	Lose2	0.7347	0.0	Yes	3.02	0.001	n/a	GoodResponse	0	n/a	n/a	9	48	Fixation	AvoidedLoss	True
461.826	0.27	Lose2	0.7347	0.004	Yes	3.02	-0.004	2.0	GoodResponse	0	0.22	461.046	9	48	Target	AvoidedLoss	True
462.046	0.3	Lose2	0.7347	0.004	Yes	3.02	-0.004	2.0	GoodResponse	0	0.22	n/a	9	48	ButtonPress	AvoidedLoss	True
462.11	0.43	Lose2	0.7347	n/a	Yes	3.02	n/a	n/a	GoodResponse	0	n/a	n/a	9	48	Blank	AvoidedLoss	True
462.528	1.45	Lose2	0.7347	n/a	Yes	3.02	n/a	5.0	GoodResponse	0	0.027	461.555	9	48	Feedback	AvoidedLoss	True
463.982	3.02	Lose2	0.7347	n/a	Yes	3.02	n/a	n/a	GoodResponse	0	0.0	n/a	9	48	ISIslide	AvoidedLoss	True
467.025	0.25	Control	0.74	0.0	Yes	2.875	0.025	n/a	GoodResponse	0	n/a	n/a	9	49	Cue	Neutral	True
467.275	4.0	Control	0.74	0.0	Yes	2.875	0.0	n/a	GoodResponse	0	n/a	n/a	9	49	Fixation	Neutral	True
471.271	0.26	Control	0.74	0.004	Yes	2.875	-0.004	2.0	GoodResponse	0	0.223	470.494	9	49	Target	Neutral	True
471.494	0.3	Control	0.74	0.004	Yes	2.875	-0.004	2.0	GoodResponse	0	0.223	n/a	9	49	ButtonPress	Neutral	True
471.538	0.44	Control	0.74	n/a	Yes	2.875	n/a	n/a	GoodResponse	0	n/a	n/a	9	49	Blank	Neutral	True
471.973	1.45	Control	0.74	n/a	Yes	2.875	n/a	5.0	GoodResponse	0	0.045	471.018	9	49	Feedback	Neutral	True
473.427	2.875	Control	0.74	n/a	Yes	2.875	n/a	n/a	GoodResponse	0	0.0	n/a	9	49	ISIslide	Neutral	True
476.319	0.25	Control	0.7451000000000001	0.0	Yes	2.781	0.019	n/a	GoodResponse	0	n/a	n/a	9	50	Cue	Neutral	True
476.57	4.0	Control	0.7451000000000001	0.0	Yes	2.781	0.001	n/a	GoodResponse	0	n/a	n/a	9	50	Fixation	Neutral	True
480.565	0.25	Control	0.7451000000000001	0.004	Yes	2.781	-0.004	2.0	GoodResponse	0	0.208	479.773	9	50	Target	Neutral	True
480.773	0.3	Control	0.7451000000000001	0.004	Yes	2.781	-0.004	2.0	GoodResponse	0	0.208	n/a	9	50	ButtonPress	Neutral	True
480.816	0.45	Control	0.7451000000000001	n/a	Yes	2.781	n/a	n/a	GoodResponse	0	n/a	n/a	9	50	Blank	Neutral	True
481.267	1.45	Control	0.7451000000000001	n/a	Yes	2.781	n/a	5.0	GoodResponse	0	0.019	480.286	9	50	Feedback	Neutral	True
482.722	2.781	Control	0.7451000000000001	n/a	Yes	2.781	n/a	n/a	GoodResponse	0	0.0	n/a	9	50	ISIslide	Neutral	True
485.53	0.25	Control	0.7308	0.0	No	2.72	0.03	n/a	PrematurePress	0	n/a	n/a	9	51	Cue	Neutral	True
485.781	3.95	Control	0.7308	0.0	No	2.72	0.001	n/a	PrematurePress	0	n/a	n/a	9	51	Fixation	Neutral	True
489.726	0.24	Control	0.7308	0.004	No	2.72	-0.004	2.0	PrematurePress	0	0.038	488.764	9	51	Target	Neutral	True
489.764	0.3	Control	0.7308	0.004	No	2.72	-0.004	2.0	PrematurePress	0	0.038	n/a	9	51	ButtonPress	Neutral	True
489.977	0.46	Control	0.7308	n/a	No	2.72	n/a	n/a	PrematurePress	0	n/a	n/a	9	51	Blank	Neutral	True
490.428	1.45	Control	0.7308	n/a	No	2.72	n/a	5.0	PrematurePress	0	0.029	489.457	9	51	Feedback	Neutral	True
491.882	2.72	Control	0.7308	n/a	No	2.72	n/a	n/a	PrematurePress	0	0.0	n/a	9	51	ISIslide	Neutral	True
494.624	0.25	Control	0.7358	0.0	Yes	2.626	0.024	n/a	GoodResponse	0	n/a	n/a	9	52	Cue	Neutral	True
494.875	4.05	Control	0.7358	0.0	Yes	2.626	0.001	n/a	GoodResponse	0	n/a	n/a	9	52	Fixation	Neutral	True
498.92	0.23	Control	0.7358	0.004	Yes	2.626	-0.004	2.0	GoodResponse	0	0.206	498.126	9	52	Target	Neutral	True
499.126	0.3	Control	0.7358	0.004	Yes	2.626	-0.004	2.0	GoodResponse	0	0.206	n/a	9	52	ButtonPress	Neutral	True
499.154	0.47	Control	0.7358	n/a	Yes	2.626	n/a	n/a	GoodResponse	0	n/a	n/a	9	52	Blank	Neutral	True
499.622	1.45	Control	0.7358	n/a	Yes	2.626	n/a	5.0	GoodResponse	0	0.008	498.63	9	52	Feedback	Neutral	True
501.076	2.626	Control	0.7358	n/a	Yes	2.626	n/a	2.0	GoodResponse	0	2.062	n/a	9	52	ISIslide	Neutral	True
503.701	0.25	Win2	0.7406999999999999	0.0	Yes	2.949	0.001	n/a	GoodResponse	1	n/a	n/a	10	53	Cue	Win	True
503.952	4.05	Win2	0.7406999999999999	0.0	Yes	2.949	0.001	n/a	GoodResponse	1	n/a	n/a	10	53	Fixation	Win	True
507.997	0.22	Win2	0.7406999999999999	0.004	Yes	2.949	-0.004	2.0	GoodResponse	1	0.204	507.201	10	53	Target	Win	True
508.201	0.3	Win2	0.7406999999999999	0.004	Yes	2.949	-0.004	2.0	GoodResponse	1	0.204	n/a	10	53	ButtonPress	Win	True
508.231	0.48	Win2	0.7406999999999999	n/a	Yes	2.949	n/a	n/a	GoodResponse	1	n/a	n/a	10	53	Blank	Win	True
508.699	1.45	Win2	0.7406999999999999	n/a	Yes	2.949	n/a	5.0	GoodResponse	1	0.001	507.7	10	53	Feedback	Win	True
510.154	2.949	Win2	0.7406999999999999	n/a	Yes	2.949	n/a	n/a	GoodResponse	1	0.0	n/a	10	53	ISIslide	Win	True
513.129	0.25	Win2	0.7273000000000001	0.0	No	2.721	0.029	n/a	NoResponse	0	n/a	n/a	10	54	Cue	MissedWin	True
513.38	3.95	Win2	0.7273000000000001	0.0	No	2.721	0.001	n/a	NoResponse	0	n/a	n/a	10	54	Fixation	MissedWin	True
517.325	0.21	Win2	0.7273000000000001	0.004	No	2.721	-0.004	2.0	NoResponse	0	0.244	516.569	10	54	Target	MissedWin	True
517.542	0.49	Win2	0.7273000000000001	n/a	No	2.721	n/a	n/a	NoResponse	0	n/a	n/a	10	54	Blank	MissedWin	True
517.569	0.3	Win2	0.7273000000000001	0.004	No	2.721	-0.004	2.0	NoResponse	0	0.244	n/a	10	54	ButtonPress	MissedWin	True
518.027	1.45	Win2	0.7273000000000001	n/a	No	2.721	n/a	5.0	NoResponse	0	0.039	517.066	10	54	Feedback	MissedWin	True
519.481	2.721	Win2	0.7273000000000001	n/a	No	2.721	n/a	n/a	NoResponse	0	0.0	n/a	10	54	ISIslide	MissedWin	True
522.223	0.25	Control	0.7143	0.0	No	3.027	0.023	2.0	NoResponse	0	0.148	521.371	10	55	Cue	Neutral	False
522.371	0.3	Control	0.7143	0.0	No	3.027	0.023	2.0	NoResponse	0	0.148	n/a	10	55	ButtonPress	Neutral	False
522.474	3.95	Control	0.7143	0.0	No	3.027	0.001	n/a	NoResponse	0	n/a	n/a	10	55	Fixation	Neutral	False
526.419	0.2	Control	0.7143	0.004	No	3.027	-0.004	2.0	NoResponse	0	0.227	525.646	10	55	Target	Neutral	False
526.619	0.5	Control	0.7143	n/a	No	3.027	n/a	n/a	NoResponse	0	n/a	n/a	10	55	Blank	Neutral	False
526.646	0.3	Control	0.7143	0.004	No	3.027	-0.004	2.0	NoResponse	0	0.227	n/a	10	55	ButtonPress	Neutral	False
527.121	1.45	Control	0.7143	n/a	No	3.027	n/a	5.0	NoResponse	0	0.019	526.14	10	55	Feedback	Neutral	False
528.575	3.027	Control	0.7143	n/a	No	3.027	n/a	n/a	NoResponse	0	0.0	n/a	10	55	ISIslide	Neutral	False
531.618	0.25	Control	0.7018000000000001	0.0	No	2.832	0.018	2.0	NoResponse	0	0.208	530.826	10	56	Cue	Neutral	False
531.826	0.3	Control	0.7018000000000001	0.0	No	2.832	0.018	2.0	NoResponse	0	0.208	n/a	10	56	ButtonPress	Neutral	False
531.869	3.95	Control	0.7018000000000001	0.0	No	2.832	0.001	n/a	NoResponse	0	n/a	n/a	10	56	Fixation	Neutral	False
535.814	0.19	Control	0.7018000000000001	0.004	No	2.832	-0.004	2.0	NoResponse	0	0.209	535.023	10	56	Target	Neutral	False
536.014	0.51	Control	0.7018000000000001	n/a	No	2.832	n/a	n/a	NoResponse	0	n/a	n/a	10	56	Blank	Neutral	False
536.023	0.3	Control	0.7018000000000001	0.004	No	2.832	-0.004	2.0	NoResponse	0	0.209	n/a	10	56	ButtonPress	Neutral	False
536.516	1.45	Control	0.7018000000000001	n/a	No	2.832	n/a	5.0	NoResponse	0	0.038	535.554	10	56	Feedback	Neutral	False
537.97	2.832	Control	0.7018000000000001	n/a	No	2.832	n/a	n/a	NoResponse	0	0.0	n/a	10	56	ISIslide	Neutral	False
540.829	0.25	Control	0.6897	0.0	No	3.471	0.029	n/a	NoResponse	0	n/a	n/a	10	57	Cue	Neutral	True
541.079	4.0	Control	0.6897	0.0	No	3.471	0.0	2.0	NoResponse	0	3.617	543.696	10	57	Fixation	Neutral	True
544.696	0.3	Control	0.6897	0.0	No	3.471	0.0	2.0	NoResponse	0	3.617	n/a	10	57	ButtonPress	Neutral	True
545.075	0.18	Control	0.6897	0.004	No	3.471	-0.004	n/a	NoResponse	0	n/a	n/a	10	57	Target	Neutral	True
545.259	0.52	Control	0.6897	n/a	No	3.471	n/a	n/a	NoResponse	0	n/a	n/a	10	57	Blank	Neutral	True
545.777	1.45	Control	0.6897	n/a	No	3.471	n/a	5.0	NoResponse	0	0.045	544.822	10	57	Feedback	Neutral	True
547.231	3.471	Control	0.6897	n/a	No	3.471	n/a	n/a	NoResponse	0	0.0	n/a	10	57	ISIslide	Neutral	True
550.725	0.25	Win2	0.6779999999999999	0.0	No	2.725	0.025	n/a	NoResponse	0	n/a	n/a	10	58	Cue	MissedWin	True
550.976	4.05	Win2	0.6779999999999999	0.0	No	2.725	0.001	n/a	NoResponse	0	n/a	n/a	10	58	Fixation	MissedWin	True
555.021	0.17	Win2	0.6779999999999999	0.004	No	2.725	-0.004	2.0	NoResponse	0	0.285	554.306	10	58	Target	MissedWin	True
555.205	0.53	Win2	0.6779999999999999	n/a	No	2.725	n/a	n/a	NoResponse	0	n/a	n/a	10	58	Blank	MissedWin	True
555.306	0.3	Win2	0.6779999999999999	0.004	No	2.725	-0.004	2.0	NoResponse	0	0.285	n/a	10	58	ButtonPress	MissedWin	True
555.723	1.45	Win2	0.6779999999999999	n/a	No	2.725	n/a	5.0	NoResponse	0	0.001	554.724	10	58	Feedback	MissedWin	True
557.178	2.725	Win2	0.6779999999999999	n/a	No	2.725	n/a	n/a	NoResponse	0	0.0	n/a	10	58	ISIslide	MissedWin	True
559.919	0.25	Lose2	0.6667000000000001	0.0	No	2.681	0.019	n/a	NoResponse	-1	n/a	n/a	9	59	Cue	Loss	True
560.17	4.0	Lose2	0.6667000000000001	0.0	No	2.681	0.001	n/a	NoResponse	-1	n/a	n/a	9	59	Fixation	Loss	True
564.165	0.16	Lose2	0.6667000000000001	0.004	No	2.681	-0.004	2.0	NoResponse	-1	0.188	563.353	9	59	Target	Loss	True
564.332	0.54	Lose2	0.6667000000000001	n/a	No	2.681	n/a	n/a	NoResponse	-1	n/a	n/a	9	59	Blank	Loss	True
564.353	0.3	Lose2	0.6667000000000001	0.004	No	2.681	-0.004	2.0	NoResponse	-1	0.188	n/a	9	59	ButtonPress	Loss	True
564.867	1.45	Lose2	0.6667000000000001	n/a	No	2.681	n/a	5.0	NoResponse	-1	0.028	563.895	9	59	Feedback	Loss	True
566.322	2.681	Lose2	0.6667000000000001	n/a	No	2.681	n/a	n/a	NoResponse	-1	0.0	n/a	9	59	ISIslide	Loss	True
569.03	0.25	Control	0.6557	0.0	No	2.67	0.03	n/a	NoResponse	0	n/a	n/a	9	60	Cue	Neutral	True
569.28	4.0	Control	0.6557	0.0	No	2.67	0.0	2.0	NoResponse	0	3.631	571.911	9	60	Fixation	Neutral	True
572.911	0.3	Control	0.6557	0.0	No	2.67	0.0	2.0	NoResponse	0	3.631	n/a	9	60	ButtonPress	Neutral	True
573.276	0.15	Control	0.6557	0.004	No	2.67	-0.004	n/a	NoResponse	0	n/a	n/a	9	60	Target	Neutral	True
573.426	0.55	Control	0.6557	n/a	No	2.67	n/a	n/a	NoResponse	0	n/a	n/a	9	60	Blank	Neutral	True
573.978	1.45	Control	0.6557	n/a	No	2.67	n/a	5.0	NoResponse	0	0.039	573.017	9	60	Feedback	Neutral	True
575.432	2.67	Control	0.6557	n/a	No	2.67	n/a	n/a	NoResponse	0	0.0	n/a	9	60	ISIslide	Neutral	True
578.123	0.25	Lose2	0.6452	0.001	No	2.977	0.023	n/a	NoResponse	-1	n/a	n/a	8	61	Cue	Loss	True
578.374	4.0	Lose2	0.6452	0.0	No	2.977	0.001	n/a	NoResponse	-1	n/a	n/a	8	61	Fixation	Loss	True
582.369	0.15	Lose2	0.6452	0.004	No	2.977	-0.004	2.0	NoResponse	-1	0.203	581.572	8	61	Target	Loss	True
582.52	0.55	Lose2	0.6452	n/a	No	2.977	n/a	n/a	NoResponse	-1	n/a	n/a	8	61	Blank	Loss	True
582.572	0.3	Lose2	0.6452	0.004	No	2.977	-0.004	2.0	NoResponse	-1	0.203	n/a	8	61	ButtonPress	Loss	True
583.072	1.45	Lose2	0.6452	n/a	No	2.977	n/a	5.0	NoResponse	-1	0.018	582.09	8	61	Feedback	Loss	True
584.526	2.977	Lose2	0.6452	n/a	No	2.977	n/a	n/a	NoResponse	-1	0.0	n/a	8	61	ISIslide	Loss	True
587.518	0.25	Lose2	0.6349	0.0	No	2.882	0.018	n/a	NoResponse	-1	n/a	n/a	7	62	Cue	Loss	True
587.769	3.9	Lose2	0.6349	0.0	No	2.882	0.001	n/a	NoResponse	-1	n/a	n/a	7	62	Fixation	Loss	True
591.664	0.16	Lose2	0.6349	0.004	No	2.882	-0.004	2.0	NoResponse	-1	0.257	590.921	7	62	Target	Loss	True
591.831	0.54	Lose2	0.6349	n/a	No	2.882	n/a	n/a	NoResponse	-1	n/a	n/a	7	62	Blank	Loss	True
591.921	0.3	Lose2	0.6349	0.004	No	2.882	-0.004	2.0	NoResponse	-1	0.257	n/a	7	62	ButtonPress	Loss	True
592.366	1.45	Lose2	0.6349	n/a	No	2.882	n/a	5.0	NoResponse	-1	0.041	591.407	7	62	Feedback	Loss	True
593.82	2.882	Lose2	0.6349	n/a	No	2.882	n/a	n/a	NoResponse	-1	0.0	n/a	7	62	ISIslide	Loss	True
596.729	0.25	Lose2	0.625	0.0	No	2.621	0.029	n/a	NoResponse	-1	n/a	n/a	6	63	Cue	Loss	True
596.98	4.05	Lose2	0.625	0.0	No	2.621	0.001	2.0	NoResponse	-1	3.432	599.412	6	63	Fixation	Loss	True
600.412	0.3	Lose2	0.625	0.0	No	2.621	0.001	2.0	NoResponse	-1	3.432	n/a	6	63	ButtonPress	Loss	True
601.025	0.17	Lose2	0.625	0.004	No	2.621	-0.004	n/a	NoResponse	-1	n/a	n/a	6	63	Target	Loss	True
601.209	0.53	Lose2	0.625	n/a	No	2.621	n/a	n/a	NoResponse	-1	n/a	n/a	6	63	Blank	Loss	True
601.727	1.45	Lose2	0.625	n/a	No	2.621	n/a	5.0	NoResponse	-1	0.046	600.773	6	63	Feedback	Loss	True
603.182	2.621	Lose2	0.625	n/a	No	2.621	n/a	n/a	NoResponse	-1	0.0	n/a	6	63	ISIslide	Loss	True
605.823	0.25	Win2	0.6154	0.0	No	3.127	0.023	n/a	NoResponse	0	n/a	n/a	6	64	Cue	MissedWin	True
606.074	4.15	Win2	0.6154	0.0	No	3.127	0.001	2.0	NoResponse	0	4.066	609.14	6	64	Fixation	MissedWin	True
610.14	0.3	Win2	0.6154	0.0	No	3.127	0.001	2.0	NoResponse	0	4.066	n/a	6	64	ButtonPress	MissedWin	True
610.219	0.18	Win2	0.6154	0.004	No	3.127	-0.004	n/a	NoResponse	0	n/a	n/a	6	64	Target	MissedWin	True
610.403	0.52	Win2	0.6154	n/a	No	3.127	n/a	n/a	NoResponse	0	n/a	n/a	6	64	Blank	MissedWin	True
610.922	1.45	Win2	0.6154	n/a	No	3.127	n/a	5.0	NoResponse	0	0.021	609.943	6	64	Feedback	MissedWin	True
612.376	3.127	Win2	0.6154	n/a	No	3.127	n/a	2.0	NoResponse	0	3.105	n/a	6	64	ISIslide	MissedWin	True
615.502	0.25	Control	0.6061	0.0	No	2.798	0.002	n/a	LatePress	0	n/a	n/a	6	65	Cue	Neutral	True
615.753	4.0	Control	0.6061	0.0	No	2.798	0.001	n/a	LatePress	0	n/a	n/a	6	65	Fixation	Neutral	True
619.748	0.19	Control	0.6061	0.004	No	2.798	-0.004	2.0	LatePress	0	0.199	618.947	6	65	Target	Neutral	True
619.947	0.3	Control	0.6061	0.004	No	2.798	-0.004	2.0	LatePress	0	0.199	n/a	6	65	ButtonPress	Neutral	True
619.949	0.51	Control	0.6061	n/a	No	2.798	n/a	n/a	LatePress	0	n/a	n/a	6	65	Blank	Neutral	True
620.45	1.45	Control	0.6061	n/a	No	2.798	n/a	5.0	LatePress	0	0.008	619.458	6	65	Feedback	Neutral	True
621.904	2.798	Control	0.6061	n/a	No	2.798	n/a	n/a	LatePress	0	0.0	n/a	6	65	ISIslide	Neutral	True
624.729	0.25	Win2	0.597	0.001	No	2.771	0.029	2.0	NoResponse	0	0.203	623.932	6	66	Cue	MissedWin	False
624.932	0.3	Win2	0.597	0.001	No	2.771	0.029	2.0	NoResponse	0	0.203	n/a	6	66	ButtonPress	MissedWin	False
624.98	3.9	Win2	0.597	0.0	No	2.771	0.001	n/a	NoResponse	0	n/a	n/a	6	66	Fixation	MissedWin	False
628.875	0.2	Win2	0.597	0.004	No	2.771	-0.004	2.0	NoResponse	0	0.223	628.098	6	66	Target	MissedWin	False
629.076	0.5	Win2	0.597	n/a	No	2.771	n/a	n/a	NoResponse	0	n/a	n/a	6	66	Blank	MissedWin	False
629.098	0.3	Win2	0.597	0.004	No	2.771	-0.004	2.0	NoResponse	0	0.223	n/a	6	66	ButtonPress	MissedWin	False
629.577	1.45	Win2	0.597	n/a	No	2.771	n/a	5.0	NoResponse	0	0.0	628.577	6	66	Feedback	MissedWin	False
631.032	2.771	Win2	0.597	n/a	No	2.771	n/a	n/a	NoResponse	0	0.0	n/a	6	66	ISIslide	MissedWin	False
633.823	0.25	Control	0.5882000000000001	0.0	No	2.727	0.023	n/a	NoResponse	0	n/a	n/a	6	67	Cue	Neutral	True
634.074	3.95	Control	0.5882000000000001	0.0	No	2.727	0.001	n/a	NoResponse	0	n/a	n/a	6	67	Fixation	Neutral	True
638.019	0.21	Control	0.5882000000000001	0.004	No	2.727	-0.004	2.0	NoResponse	0	0.248	637.267	6	67	Target	Neutral	True
638.237	0.49	Control	0.5882000000000001	n/a	No	2.727	n/a	n/a	NoResponse	0	n/a	n/a	6	67	Blank	Neutral	True
638.267	0.3	Control	0.5882000000000001	0.004	No	2.727	-0.004	2.0	NoResponse	0	0.248	n/a	6	67	ButtonPress	Neutral	True
638.721	1.45	Control	0.5882000000000001	n/a	No	2.727	n/a	5.0	NoResponse	0	0.027	637.748	6	67	Feedback	Neutral	True
640.176	2.727	Control	0.5882000000000001	n/a	No	2.727	n/a	n/a	NoResponse	0	0.0	n/a	6	67	ISIslide	Neutral	True
642.917	0.25	Win2	0.5797	0.0	No	3.083	0.017	n/a	NoResponse	0	n/a	n/a	6	68	Cue	MissedWin	True
643.168	4.0	Win2	0.5797	0.0	No	3.083	0.001	n/a	NoResponse	0	n/a	n/a	6	68	Fixation	MissedWin	True
647.163	0.22	Win2	0.5797	0.004	No	3.083	-0.004	2.0	NoResponse	0	0.26	646.423	6	68	Target	MissedWin	True
647.397	0.48	Win2	0.5797	n/a	No	3.083	n/a	n/a	NoResponse	0	n/a	n/a	6	68	Blank	MissedWin	True
647.423	0.3	Win2	0.5797	0.004	No	3.083	-0.004	2.0	NoResponse	0	0.26	n/a	6	68	ButtonPress	MissedWin	True
647.865	1.45	Win2	0.5797	n/a	No	3.083	n/a	5.0	NoResponse	0	0.007	646.872	6	68	Feedback	MissedWin	True
649.32	3.083	Win2	0.5797	n/a	No	3.083	n/a	2.0	NoResponse	0	1.267	n/a	6	68	ISIslide	MissedWin	True
652.396	0.25	Win2	0.5714	0.0	No	3.254	-0.004	2.0	NoResponse	0	0.189	651.585	6	69	Cue	MissedWin	False
652.585	0.3	Win2	0.5714	0.0	No	3.254	-0.004	2.0	NoResponse	0	0.189	n/a	6	69	ButtonPress	MissedWin	False
652.646	3.95	Win2	0.5714	0.0	No	3.254	0.0	2.0	NoResponse	0	3.373	655.019	6	69	Fixation	MissedWin	False
656.019	0.3	Win2	0.5714	0.0	No	3.254	0.0	2.0	NoResponse	0	3.373	n/a	6	69	ButtonPress	MissedWin	False
656.591	0.23	Win2	0.5714	0.005	No	3.254	-0.005	n/a	NoResponse	0	n/a	n/a	6	69	Target	MissedWin	False
656.825	0.47	Win2	0.5714	n/a	No	3.254	n/a	n/a	NoResponse	0	n/a	n/a	6	69	Blank	MissedWin	False
657.294	1.45	Win2	0.5714	n/a	No	3.254	n/a	5.0	NoResponse	0	0.039	656.333	6	69	Feedback	MissedWin	False
658.748	3.254	Win2	0.5714	n/a	No	3.254	n/a	n/a	NoResponse	0	0.0	n/a	6	69	ISIslide	MissedWin	False
662.024	0.25	Lose2	0.5634	0.0	No	3.026	0.024	n/a	LatePress	-1	n/a	n/a	5	70	Cue	Loss	True
662.275	4.05	Lose2	0.5634	0.0	No	3.026	0.001	n/a	LatePress	-1	n/a	n/a	5	70	Fixation	Loss	True
666.321	0.24	Lose2	0.5634	0.003	No	3.026	-0.003	2.0	LatePress	-1	0.243	665.564	5	70	Target	Loss	True
666.564	0.3	Lose2	0.5634	0.003	No	3.026	-0.003	2.0	LatePress	-1	0.243	n/a	5	70	ButtonPress	Loss	True
666.571	0.46	Lose2	0.5634	n/a	No	3.026	n/a	n/a	LatePress	-1	n/a	n/a	5	70	Blank	Loss	True
667.023	1.45	Lose2	0.5634	n/a	No	3.026	n/a	5.0	LatePress	-1	0.018	666.041	5	70	Feedback	Loss	True
668.477	3.026	Lose2	0.5634	n/a	No	3.026	n/a	n/a	LatePress	-1	0.0	n/a	5	70	ISIslide	Loss	True
671.519	0.25	Win2	0.5556	0.0	No	2.731	0.019	n/a	NoResponse	0	n/a	n/a	5	71	Cue	MissedWin	True
671.77	4.05	Win2	0.5556	0.0	No	2.731	0.001	n/a	NoResponse	0	n/a	n/a	5	71	Fixation	MissedWin	True
675.816	0.25	Win2	0.5556	0.003	No	2.731	-0.003	2.0	NoResponse	0	0.261	675.077	5	71	Target	MissedWin	True
676.066	0.45	Win2	0.5556	n/a	No	2.731	n/a	n/a	NoResponse	0	n/a	n/a	5	71	Blank	MissedWin	True
676.077	0.3	Win2	0.5556	0.003	No	2.731	-0.003	2.0	NoResponse	0	0.261	n/a	5	71	ButtonPress	MissedWin	True
676.518	1.45	Win2	0.5556	n/a	No	2.731	n/a	5.0	NoResponse	0	0.034	675.552	5	71	Feedback	MissedWin	True
677.972	2.731	Win2	0.5556	n/a	No	2.731	n/a	n/a	NoResponse	0	0.0	n/a	5	71	ISIslide	MissedWin	True
680.73	0.25	Win2	0.5616	0.0	Yes	2.77	0.03	n/a	GoodResponse	1	n/a	n/a	6	72	Cue	Win	True
680.981	4.1	Win2	0.5616	0.0	Yes	2.77	0.001	n/a	GoodResponse	1	n/a	n/a	6	72	Fixation	Win	True
685.077	0.26	Win2	0.5616	0.003	Yes	2.77	-0.003	2.0	GoodResponse	1	0.205	684.282	6	72	Target	Win	True
685.282	0.3	Win2	0.5616	0.003	Yes	2.77	-0.003	2.0	GoodResponse	1	0.205	n/a	6	72	ButtonPress	Win	True
685.344	0.44	Win2	0.5616	n/a	Yes	2.77	n/a	n/a	GoodResponse	1	n/a	n/a	6	72	Blank	Win	True
685.779	1.45	Win2	0.5616	n/a	Yes	2.77	n/a	5.0	GoodResponse	1	0.041	684.82	6	72	Feedback	Win	True
687.233	2.77	Win2	0.5616	n/a	Yes	2.77	n/a	n/a	GoodResponse	1	0.0	n/a	6	72	ISIslide	Win	True
690.025	0.25	Win2	0.5676	0.0	Yes	2.675	0.025	n/a	GoodResponse	1	n/a	n/a	7	73	Cue	Win	True
690.275	4.0	Win2	0.5676	0.001	Yes	2.675	0.0	n/a	GoodResponse	1	n/a	n/a	7	73	Fixation	Win	True
694.271	0.27	Win2	0.5676	0.004	Yes	2.675	-0.004	2.0	GoodResponse	1	0.216	693.487	7	73	Target	Win	True
694.487	0.3	Win2	0.5676	0.004	Yes	2.675	-0.004	2.0	GoodResponse	1	0.216	n/a	7	73	ButtonPress	Win	True
694.555	0.43	Win2	0.5676	n/a	Yes	2.675	n/a	n/a	GoodResponse	1	n/a	n/a	7	73	Blank	Win	True
694.973	1.45	Win2	0.5676	n/a	Yes	2.675	n/a	5.0	GoodResponse	1	0.018	693.991	7	73	Feedback	Win	True
696.427	2.675	Win2	0.5676	n/a	Yes	2.675	n/a	n/a	GoodResponse	1	0.0	n/a	7	73	ISIslide	Win	True
699.119	0.25	Lose2	0.5733	0.0	Yes	2.631	0.019	n/a	GoodResponse	0	n/a	n/a	7	74	Cue	AvoidedLoss	True
699.369	4.05	Lose2	0.5733	0.0	Yes	2.631	0.0	n/a	GoodResponse	0	n/a	n/a	7	74	Fixation	AvoidedLoss	True
703.415	0.28	Lose2	0.5733	0.004	Yes	2.631	-0.004	2.0	GoodResponse	0	0.278	702.693	7	74	Target	AvoidedLoss	True
703.693	0.3	Lose2	0.5733	0.004	Yes	2.631	-0.004	2.0	GoodResponse	0	0.278	n/a	7	74	ButtonPress	AvoidedLoss	True
703.699	0.42	Lose2	0.5733	n/a	Yes	2.631	n/a	n/a	GoodResponse	0	n/a	n/a	7	74	Blank	AvoidedLoss	True
704.117	1.45	Lose2	0.5733	n/a	Yes	2.631	n/a	5.0	GoodResponse	0	0.045	703.162	7	74	Feedback	AvoidedLoss	True
705.571	2.631	Lose2	0.5733	n/a	Yes	2.631	n/a	n/a	GoodResponse	0	0.0	n/a	7	74	ISIslide	AvoidedLoss	True
708.229	0.25	Lose2	0.5789	0.0	Yes	2.921	0.029	n/a	GoodResponse	0	n/a	n/a	7	75	Cue	AvoidedLoss	True
708.48	3.95	Lose2	0.5789	0.0	Yes	2.921	0.001	n/a	GoodResponse	0	n/a	n/a	7	75	Fixation	AvoidedLoss	True
712.425	0.29	Lose2	0.5789	0.004	Yes	2.921	-0.004	2.0	GoodResponse	0	0.209	711.634	7	75	Target	AvoidedLoss	True
712.634	0.3	Lose2	0.5789	0.004	Yes	2.921	-0.004	2.0	GoodResponse	0	0.209	n/a	7	75	ButtonPress	AvoidedLoss	True
712.726	0.41	Lose2	0.5789	n/a	Yes	2.921	n/a	n/a	GoodResponse	0	n/a	n/a	7	75	Blank	AvoidedLoss	True
713.127	1.45	Lose2	0.5789	n/a	Yes	2.921	n/a	5.0	GoodResponse	0	0.011	712.138	7	75	Feedback	AvoidedLoss	True
714.581	2.921	Lose2	0.5789	n/a	Yes	2.921	n/a	n/a	GoodResponse	0	0.0	n/a	7	75	ISIslide	AvoidedLoss	True
717.524	0.25	Control	0.5844	0.0	Yes	3.226	0.024	n/a	GoodResponse	0	n/a	n/a	7	76	Cue	Neutral	True
717.774	4.05	Control	0.5844	0.0	Yes	3.226	0.0	n/a	GoodResponse	0	n/a	n/a	7	76	Fixation	Neutral	True
721.82	0.3	Control	0.5844	0.004	Yes	3.226	-0.004	2.0	GoodResponse	0	0.279	721.099	7	76	Target	Neutral	True
722.099	0.3	Control	0.5844	0.004	Yes	3.226	-0.004	2.0	GoodResponse	0	0.279	n/a	7	76	ButtonPress	Neutral	True
722.121	0.4	Control	0.5844	n/a	Yes	3.226	n/a	n/a	GoodResponse	0	n/a	n/a	7	76	Blank	Neutral	True
722.522	1.45	Control	0.5844	n/a	Yes	3.226	n/a	5.0	GoodResponse	0	0.029	721.551	7	76	Feedback	Neutral	True
723.976	3.226	Control	0.5844	n/a	Yes	3.226	n/a	n/a	GoodResponse	0	0.0	n/a	7	76	ISIslide	Neutral	True
727.219	0.25	Lose2	0.5769	0.0	No	2.581	0.019	n/a	NoResponse	-1	n/a	n/a	6	77	Cue	Loss	True
727.47	3.95	Lose2	0.5769	0.0	No	2.581	0.001	2.0	NoResponse	-1	3.555	730.025	6	77	Fixation	Loss	True
731.025	0.3	Lose2	0.5769	0.0	No	2.581	0.001	2.0	NoResponse	-1	3.555	n/a	6	77	ButtonPress	Loss	True
731.415	0.31	Lose2	0.5769	0.004	No	2.581	-0.004	n/a	NoResponse	-1	n/a	n/a	6	77	Target	Loss	True
731.733	0.39	Lose2	0.5769	n/a	No	2.581	n/a	n/a	NoResponse	-1	n/a	n/a	6	77	Blank	Loss	True
732.117	1.45	Lose2	0.5769	n/a	No	2.581	n/a	5.0	NoResponse	-1	0.044	731.161	6	77	Feedback	Loss	True
733.572	2.581	Lose2	0.5769	n/a	No	2.581	n/a	n/a	NoResponse	-1	0.0	n/a	6	77	ISIslide	Loss	True
