onset	duration	cue_type	current_mean_accuracy	duration_error	is_hit	isi_adjusted	onset_delay	response	response_type	reward	rt	rt_time	total_reward	trial_number	trial_phase	trial_type	one_press
11.108	0.25	Control	0.0	0.001	No	2.942	0.008	n/a	NoResponse	0	n/a	n/a	0	0	Cue	Neutral	False
11.358	3.85	Control	0.0	0.0	No	2.942	0.0	2.0	NoResponse	0	0.245	10.603	0	0	Fixation	Neutral	False
11.603	0.3	Control	0.0	0.0	No	2.942	0.0	2.0	NoResponse	0	0.245	n/a	0	0	ButtonPress	Neutral	False
15.207	0.4	Control	0.0	0.001	No	2.942	-0.001	2.0	NoResponse	0	0.408	14.615	0	0	Target	Neutral	False
15.607	0.3	Control	0.0	n/a	No	2.942	n/a	n/a	NoResponse	0	n/a	n/a	0	0	Blank	Neutral	False
15.615	0.3	Control	0.0	0.001	No	2.942	-0.001	2.0	NoResponse	0	0.408	n/a	0	0	ButtonPress	Neutral	False
15.907	1.45	Control	0.0	n/a	No	2.942	n/a	5.0	NoResponse	0	0.022	14.929	0	0	Feedback	Neutral	False
17.356	2.942	Control	0.0	n/a	No	2.942	n/a	n/a	NoResponse	0	0.0	n/a	0	0	ISIslide	Neutral	False
20.322	0.25	Lose2	0.5	0.0	Yes	2.778	0.022	n/a	GoodResponse	0	n/a	n/a	0	1	Cue	AvoidedLoss	True
20.572	4.0	Lose2	0.5	0.0	Yes	2.778	0.0	n/a	GoodResponse	0	n/a	n/a	0	1	Fixation	AvoidedLoss	True
24.57	0.41	Lose2	0.5	0.002	Yes	2.778	-0.002	2.0	GoodResponse	0	0.248	23.818	0	1	Target	AvoidedLoss	True
24.818	0.3	Lose2	0.5	0.002	Yes	2.778	-0.002	2.0	GoodResponse	0	0.248	n/a	0	1	ButtonPress	AvoidedLoss	True
24.987	0.29	Lose2	0.5	n/a	Yes	2.778	n/a	n/a	GoodResponse	0	n/a	n/a	0	1	Blank	AvoidedLoss	True
25.27	1.45	Lose2	0.5	n/a	Yes	2.778	n/a	5.0	GoodResponse	0	0.025	24.295	0	1	Feedback	AvoidedLoss	True
26.72	2.778	Lose2	0.5	n/a	Yes	2.778	n/a	n/a	GoodResponse	0	0.0	n/a	0	1	ISIslide	AvoidedLoss	True
29.519	0.25	Control	0.6667000000000001	0.0	Yes	2.581	0.019	n/a	GoodResponse	0	n/a	n/a	0	2	Cue	Neutral	True
29.768	4.1	Control	0.6667000000000001	0.001	Yes	2.581	-0.001	n/a	GoodResponse	0	n/a	n/a	0	2	Fixation	Neutral	True
33.867	0.42	Control	0.6667000000000001	0.002	Yes	2.581	-0.002	2.0	GoodResponse	0	0.244	33.111	0	2	Target	Neutral	True
34.111	0.3	Control	0.6667000000000001	0.002	Yes	2.581	-0.002	2.0	GoodResponse	0	0.244	n/a	0	2	ButtonPress	Neutral	True
34.3	0.28	Control	0.6667000000000001	n/a	Yes	2.581	n/a	n/a	GoodResponse	0	n/a	n/a	0	2	Blank	Neutral	True
34.567	1.45	Control	0.6667000000000001	n/a	Yes	2.581	n/a	5.0	GoodResponse	0	0.045	33.612	0	2	Feedback	Neutral	True
36.016	2.581	Control	0.6667000000000001	n/a	Yes	2.581	n/a	n/a	GoodResponse	0	0.0	n/a	0	2	ISIslide	Neutral	True
38.615	0.25	Win2	0.75	0.0	Yes	2.835	0.015	n/a	GoodResponse	1	n/a	n/a	1	3	Cue	Win	True
38.865	3.95	Win2	0.75	0.0	Yes	2.835	0.0	n/a	GoodResponse	1	n/a	n/a	1	3	Fixation	Win	True
42.814	0.41	Win2	0.75	0.001	Yes	2.835	-0.001	2.0	GoodResponse	1	0.227	42.041	1	3	Target	Win	True
43.041	0.3	Win2	0.75	0.001	Yes	2.835	-0.001	2.0	GoodResponse	1	0.227	n/a	1	3	ButtonPress	Win	True
43.23	0.29	Win2	0.75	n/a	Yes	2.835	n/a	n/a	GoodResponse	1	n/a	n/a	1	3	Blank	Win	True
43.514	1.45	Win2	0.75	n/a	Yes	2.835	n/a	5.0	GoodResponse	1	0.024	42.538	1	3	Feedback	Win	True
44.963	2.835	Win2	0.75	n/a	Yes	2.835	n/a	n/a	GoodResponse	1	0.0	n/a	1	3	ISIslide	Win	True
47.812	0.25	Win2	0.8	0.0	Yes	3.288	0.012	n/a	GoodResponse	1	n/a	n/a	2	4	Cue	Win	True
48.062	4.0	Win2	0.8	0.0	Yes	3.288	0.0	n/a	GoodResponse	1	n/a	n/a	2	4	Fixation	Win	True
52.061	0.4	Win2	0.8	0.001	Yes	3.288	-0.001	2.0	GoodResponse	1	0.227	51.288	2	4	Target	Win	True
52.288	0.3	Win2	0.8	0.001	Yes	3.288	-0.001	2.0	GoodResponse	1	0.227	n/a	2	4	ButtonPress	Win	True
52.46	0.3	Win2	0.8	n/a	Yes	3.288	n/a	n/a	GoodResponse	1	n/a	n/a	2	4	Blank	Win	True
52.76	1.45	Win2	0.8	n/a	Yes	3.288	n/a	5.0	GoodResponse	1	0.046	51.806	2	4	Feedback	Win	True
54.21	3.288	Win2	0.8	n/a	Yes	3.288	n/a	n/a	GoodResponse	1	0.0	n/a	2	4	ISIslide	Win	True
57.525	0.25	Win2	0.8332999999999999	0.0	Yes	2.775	0.025	n/a	GoodResponse	1	n/a	n/a	3	5	Cue	Win	True
57.775	4.0	Win2	0.8332999999999999	0.0	Yes	2.775	0.0	n/a	GoodResponse	1	n/a	n/a	3	5	Fixation	Win	True
61.774	0.39	Win2	0.8332999999999999	0.001	Yes	2.775	-0.001	2.0	GoodResponse	1	0.251	61.025	3	5	Target	Win	True
62.025	0.3	Win2	0.8332999999999999	0.001	Yes	2.775	-0.001	2.0	GoodResponse	1	0.251	n/a	3	5	ButtonPress	Win	True
62.174	0.31	Win2	0.8332999999999999	n/a	Yes	2.775	n/a	n/a	GoodResponse	1	n/a	n/a	3	5	Blank	Win	True
62.473	1.45	Win2	0.8332999999999999	n/a	Yes	2.775	n/a	5.0	GoodResponse	1	0.041	61.514	3	5	Feedback	Win	True
63.923	2.775	Win2	0.8332999999999999	n/a	Yes	2.775	n/a	n/a	GoodResponse	1	0.0	n/a	3	5	ISIslide	Win	True
66.722	0.25	Lose2	0.8571	0.0	Yes	2.728	0.022	n/a	GoodResponse	0	n/a	n/a	3	6	Cue	AvoidedLoss	True
66.972	3.95	Lose2	0.8571	0.0	Yes	2.728	0.0	n/a	GoodResponse	0	n/a	n/a	3	6	Fixation	AvoidedLoss	True
70.92	0.38	Lose2	0.8571	0.002	Yes	2.728	-0.002	2.0	GoodResponse	0	0.331	70.251	3	6	Target	AvoidedLoss	True
71.251	0.3	Lose2	0.8571	0.002	Yes	2.728	-0.002	2.0	GoodResponse	0	0.331	n/a	3	6	ButtonPress	AvoidedLoss	True
71.304	0.32	Lose2	0.8571	n/a	Yes	2.728	n/a	n/a	GoodResponse	0	n/a	n/a	3	6	Blank	AvoidedLoss	True
71.62	1.45	Lose2	0.8571	n/a	Yes	2.728	n/a	5.0	GoodResponse	0	0.016	70.636	3	6	Feedback	AvoidedLoss	True
73.07	2.728	Lose2	0.8571	n/a	Yes	2.728	n/a	n/a	GoodResponse	0	0.0	n/a	3	6	ISIslide	AvoidedLoss	True
75.819	0.25	Lose2	0.875	0.0	Yes	4.031	0.019	n/a	GoodResponse	0	n/a	n/a	3	7	Cue	AvoidedLoss	True
76.069	4.05	Lose2	0.875	0.0	Yes	4.031	0.0	n/a	GoodResponse	0	n/a	n/a	3	7	Fixation	AvoidedLoss	True
80.117	0.37	Lose2	0.875	0.002	Yes	4.031	-0.002	2.0	GoodResponse	0	0.212	79.329	3	7	Target	AvoidedLoss	True
80.329	0.3	Lose2	0.875	0.002	Yes	4.031	-0.002	2.0	GoodResponse	0	0.212	n/a	3	7	ButtonPress	AvoidedLoss	True
80.5	0.33	Lose2	0.875	n/a	Yes	4.031	n/a	n/a	GoodResponse	0	n/a	n/a	3	7	Blank	AvoidedLoss	True
80.817	1.45	Lose2	0.875	n/a	Yes	4.031	n/a	5.0	GoodResponse	0	0.037	79.854	3	7	Feedback	AvoidedLoss	True
82.266	4.031	Lose2	0.875	n/a	Yes	4.031	n/a	n/a	GoodResponse	0	0.0	n/a	3	7	ISIslide	AvoidedLoss	True
86.315	0.25	Lose2	0.8889	0.0	Yes	3.035	0.015	n/a	GoodResponse	0	n/a	n/a	3	8	Cue	AvoidedLoss	True
86.565	3.95	Lose2	0.8889	0.0	Yes	3.035	0.0	n/a	GoodResponse	0	n/a	n/a	3	8	Fixation	AvoidedLoss	True
90.514	0.36	Lose2	0.8889	0.001	Yes	3.035	-0.001	2.0	GoodResponse	0	0.207	89.721	3	8	Target	AvoidedLoss	True
90.721	0.3	Lose2	0.8889	0.001	Yes	3.035	-0.001	2.0	GoodResponse	0	0.207	n/a	3	8	ButtonPress	AvoidedLoss	True
90.88	0.34	Lose2	0.8889	n/a	Yes	3.035	n/a	n/a	GoodResponse	0	n/a	n/a	3	8	Blank	AvoidedLoss	True
91.213	1.45	Lose2	0.8889	n/a	Yes	3.035	n/a	5.0	GoodResponse	0	0.032	90.245	3	8	Feedback	AvoidedLoss	True
92.663	3.035	Lose2	0.8889	n/a	Yes	3.035	n/a	n/a	GoodResponse	0	0.0	n/a	3	8	ISIslide	AvoidedLoss	True
95.728	0.25	Lose2	0.9	0.0	Yes	3.122	0.028	n/a	GoodResponse	0	n/a	n/a	3	9	Cue	AvoidedLoss	True
95.978	3.95	Lose2	0.9	0.0	Yes	3.122	0.0	n/a	GoodResponse	0	n/a	n/a	3	9	Fixation	AvoidedLoss	True
99.927	0.35	Lose2	0.9	0.001	Yes	3.122	-0.001	2.0	GoodResponse	0	0.234	99.161	3	9	Target	AvoidedLoss	True
100.161	0.3	Lose2	0.9	0.001	Yes	3.122	-0.001	2.0	GoodResponse	0	0.234	n/a	3	9	ButtonPress	AvoidedLoss	True
100.277	0.35	Lose2	0.9	n/a	Yes	3.122	n/a	n/a	GoodResponse	0	n/a	n/a	3	9	Blank	AvoidedLoss	True
100.627	1.45	Lose2	0.9	n/a	Yes	3.122	n/a	5.0	GoodResponse	0	0.033	99.66	3	9	Feedback	AvoidedLoss	True
102.076	3.122	Lose2	0.9	n/a	Yes	3.122	n/a	n/a	GoodResponse	0	0.0	n/a	3	9	ISIslide	AvoidedLoss	True
105.225	0.25	Control	0.9091	0.0	Yes	3.275	0.025	n/a	GoodResponse	0	n/a	n/a	3	10	Cue	Neutral	True
105.475	4.0	Control	0.9091	0.0	Yes	3.275	0.0	n/a	GoodResponse	0	n/a	n/a	3	10	Fixation	Neutral	True
109.473	0.34	Control	0.9091	0.002	Yes	3.275	-0.002	2.0	GoodResponse	0	0.254	108.727	3	10	Target	Neutral	True
109.727	0.3	Control	0.9091	0.002	Yes	3.275	-0.002	2.0	GoodResponse	0	0.254	n/a	3	10	ButtonPress	Neutral	True
109.823	0.36	Control	0.9091	n/a	Yes	3.275	n/a	n/a	GoodResponse	0	n/a	n/a	3	10	Blank	Neutral	True
110.173	1.45	Control	0.9091	n/a	Yes	3.275	n/a	5.0	GoodResponse	0	0.048	109.221	3	10	Feedback	Neutral	True
111.623	3.275	Control	0.9091	n/a	Yes	3.275	n/a	n/a	GoodResponse	0	0.0	n/a	3	10	ISIslide	Neutral	True
114.922	0.25	Lose2	0.9167000000000001	0.0	Yes	2.728	0.022	n/a	GoodResponse	0	n/a	n/a	3	11	Cue	AvoidedLoss	True
115.171	4.05	Lose2	0.9167000000000001	0.001	Yes	2.728	-0.001	n/a	GoodResponse	0	n/a	n/a	3	11	Fixation	AvoidedLoss	True
119.22	0.33	Lose2	0.9167000000000001	0.002	Yes	2.728	-0.002	2.0	GoodResponse	0	0.272	118.492	3	11	Target	AvoidedLoss	True
119.492	0.3	Lose2	0.9167000000000001	0.002	Yes	2.728	-0.002	2.0	GoodResponse	0	0.272	n/a	3	11	ButtonPress	AvoidedLoss	True
119.553	0.37	Lose2	0.9167000000000001	n/a	Yes	2.728	n/a	n/a	GoodResponse	0	n/a	n/a	3	11	Blank	AvoidedLoss	True
119.92	1.45	Lose2	0.9167000000000001	n/a	Yes	2.728	n/a	5.0	GoodResponse	0	0.007	118.927	3	11	Feedback	AvoidedLoss	True
121.369	2.728	Lose2	0.9167000000000001	n/a	Yes	2.728	n/a	n/a	GoodResponse	0	0.0	n/a	3	11	ISIslide	AvoidedLoss	True
124.118	0.25	Control	0.9231	0.0	Yes	2.982	0.018	n/a	GoodResponse	0	n/a	n/a	3	12	Cue	Neutral	True
124.368	3.9	Control	0.9231	0.0	Yes	2.982	0.0	n/a	GoodResponse	0	n/a	n/a	3	12	Fixation	Neutral	True
128.267	0.32	Control	0.9231	0.001	Yes	2.982	-0.001	2.0	GoodResponse	0	0.267	127.534	3	12	Target	Neutral	True
128.534	0.3	Control	0.9231	0.001	Yes	2.982	-0.001	2.0	GoodResponse	0	0.267	n/a	3	12	ButtonPress	Neutral	True
128.583	0.38	Control	0.9231	n/a	Yes	2.982	n/a	n/a	GoodResponse	0	n/a	n/a	3	12	Blank	Neutral	True
128.967	1.45	Control	0.9231	n/a	Yes	2.982	n/a	5.0	GoodResponse	0	0.033	128.0	3	12	Feedback	Neutral	True
130.416	2.982	Control	0.9231	n/a	Yes	2.982	n/a	n/a	GoodResponse	0	0.0	n/a	3	12	ISIslide	Neutral	True
133.415	0.25	Control	0.8571	0.0	No	2.785	0.015	n/a	NoResponse	0	n/a	n/a	3	13	Cue	Neutral	False
133.665	4.0	Control	0.8571	0.0	No	2.785	0.0	n/a	NoResponse	0	n/a	n/a	3	13	Fixation	Neutral	False
137.663	0.31	Control	0.8571	0.002	No	2.785	-0.002	n/a	NoResponse	0	n/a	n/a	3	13	Target	Neutral	False
137.98	0.39	Control	0.8571	n/a	No	2.785	n/a	n/a	NoResponse	0	n/a	n/a	3	13	Blank	Neutral	False
138.363	1.45	Control	0.8571	n/a	No	2.785	n/a	5.0	NoResponse	0	0.006	137.369	3	13	Feedback	Neutral	False
139.813	2.785	Control	0.8571	n/a	No	2.785	n/a	n/a	NoResponse	0	0.0	n/a	3	13	ISIslide	Neutral	False
142.628	0.25	Win2	0.8667	0.0	Yes	2.672	0.028	n/a	GoodResponse	1	n/a	n/a	4	14	Cue	Win	False
142.878	4.1	Win2	0.8667	0.0	Yes	2.672	0.0	2.0	GoodResponse	1	3.797	145.675	4	14	Fixation	Win	False
146.675	0.3	Win2	0.8667	0.0	Yes	2.672	0.0	2.0	GoodResponse	1	3.797	n/a	4	14	ButtonPress	Win	False
146.977	0.3	Win2	0.8667	0.001	Yes	2.672	-0.001	2.0	GoodResponse	1	0.245	146.222	4	14	Target	Win	False
147.222	0.3	Win2	0.8667	0.001	Yes	2.672	-0.001	2.0	GoodResponse	1	0.245	n/a	4	14	ButtonPress	Win	False
147.277	0.4	Win2	0.8667	n/a	Yes	2.672	n/a	n/a	GoodResponse	1	n/a	n/a	4	14	Blank	Win	False
147.677	1.45	Win2	0.8667	n/a	Yes	2.672	n/a	5.0	GoodResponse	1	0.007	146.684	4	14	Feedback	Win	False
149.126	2.672	Win2	0.8667	n/a	Yes	2.672	n/a	n/a	GoodResponse	1	0.0	n/a	4	14	ISIslide	Win	False
151.825	0.25	Control	0.875	0.0	Yes	2.975	0.025	n/a	GoodResponse	0	n/a	n/a	4	15	Cue	Neutral	True
152.075	4.0	Control	0.875	0.0	Yes	2.975	0.0	n/a	GoodResponse	0	n/a	n/a	4	15	Fixation	Neutral	True
156.074	0.29	Control	0.875	0.001	Yes	2.975	-0.001	2.0	GoodResponse	0	0.228	155.302	4	15	Target	Neutral	True
156.302	0.3	Control	0.875	0.001	Yes	2.975	-0.001	2.0	GoodResponse	0	0.228	n/a	4	15	ButtonPress	Neutral	True
156.373	0.41	Control	0.875	n/a	Yes	2.975	n/a	n/a	GoodResponse	0	n/a	n/a	4	15	Blank	Neutral	True
156.773	1.45	Control	0.875	n/a	Yes	2.975	n/a	5.0	GoodResponse	0	0.032	155.805	4	15	Feedback	Neutral	True
158.223	2.975	Control	0.875	n/a	Yes	2.975	n/a	n/a	GoodResponse	0	0.0	n/a	4	15	ISIslide	Neutral	True
161.222	0.25	Win2	0.8824	0.0	Yes	2.878	0.022	n/a	GoodResponse	1	n/a	n/a	5	16	Cue	Win	True
161.472	4.0	Win2	0.8824	0.0	Yes	2.878	0.0	n/a	GoodResponse	1	n/a	n/a	5	16	Fixation	Win	True
165.47	0.28	Win2	0.8824	0.002	Yes	2.878	-0.002	2.0	GoodResponse	1	0.219	164.689	5	16	Target	Win	True
165.689	0.3	Win2	0.8824	0.002	Yes	2.878	-0.002	2.0	GoodResponse	1	0.219	n/a	5	16	ButtonPress	Win	True
165.753	0.42	Win2	0.8824	n/a	Yes	2.878	n/a	n/a	GoodResponse	1	n/a	n/a	5	16	Blank	Win	True
166.17	1.45	Win2	0.8824	n/a	Yes	2.878	n/a	5.0	GoodResponse	1	0.001	165.171	5	16	Feedback	Win	True
167.619	2.878	Win2	0.8824	n/a	Yes	2.878	n/a	n/a	GoodResponse	1	0.0	n/a	5	16	ISIslide	Win	True
170.518	0.25	Lose2	0.8332999999999999	0.001	No	2.732	0.018	n/a	NoResponse	-1	n/a	n/a	4	17	Cue	Loss	True
170.768	3.95	Lose2	0.8332999999999999	0.0	No	2.732	0.0	n/a	NoResponse	-1	n/a	n/a	4	17	Fixation	Loss	True
174.717	0.27	Lose2	0.8332999999999999	0.001	No	2.732	-0.001	2.0	NoResponse	-1	0.279	173.996	4	17	Target	Loss	True
174.983	0.43	Lose2	0.8332999999999999	n/a	No	2.732	n/a	n/a	NoResponse	-1	n/a	n/a	4	17	Blank	Loss	True
174.996	0.3	Lose2	0.8332999999999999	0.001	No	2.732	-0.001	2.0	NoResponse	-1	0.279	n/a	4	17	ButtonPress	Loss	True
175.417	1.45	Lose2	0.8332999999999999	n/a	No	2.732	n/a	5.0	NoResponse	-1	0.022	174.439	4	17	Feedback	Loss	True
176.866	2.732	Lose2	0.8332999999999999	n/a	No	2.732	n/a	n/a	NoResponse	-1	0.0	n/a	4	17	ISIslide	Loss	True
179.615	0.25	Lose2	0.7895	0.0	No	2.735	0.015	n/a	NoResponse	-1	n/a	n/a	3	18	Cue	Loss	True
179.865	4.05	Lose2	0.7895	0.0	No	2.735	0.0	n/a	NoResponse	-1	n/a	n/a	3	18	Fixation	Loss	True
183.914	0.26	Lose2	0.7895	0.001	No	2.735	-0.001	2.0	NoResponse	-1	0.367	183.281	3	18	Target	Loss	True
184.18	0.44	Lose2	0.7895	n/a	No	2.735	n/a	n/a	NoResponse	-1	n/a	n/a	3	18	Blank	Loss	True
184.281	0.3	Lose2	0.7895	0.001	No	2.735	-0.001	2.0	NoResponse	-1	0.367	n/a	3	18	ButtonPress	Loss	True
184.613	1.45	Lose2	0.7895	n/a	No	2.735	n/a	5.0	NoResponse	-1	0.046	183.659	3	18	Feedback	Loss	True
186.063	2.735	Lose2	0.7895	n/a	No	2.735	n/a	n/a	NoResponse	-1	0.0	n/a	3	18	ISIslide	Loss	True
188.829	0.25	Control	0.75	0.0	No	2.921	0.029	n/a	NoResponse	0	n/a	n/a	3	19	Cue	Neutral	True
189.078	3.95	Control	0.75	0.001	No	2.921	-0.001	n/a	NoResponse	0	n/a	n/a	3	19	Fixation	Neutral	True
193.027	0.25	Control	0.75	0.002	No	2.921	-0.002	2.0	NoResponse	0	0.289	192.316	3	19	Target	Neutral	True
193.277	0.45	Control	0.75	n/a	No	2.921	n/a	n/a	NoResponse	0	n/a	n/a	3	19	Blank	Neutral	True
193.316	0.3	Control	0.75	0.002	No	2.921	-0.002	2.0	NoResponse	0	0.289	n/a	3	19	ButtonPress	Neutral	True
193.727	1.45	Control	0.75	n/a	No	2.921	n/a	5.0	NoResponse	0	0.007	192.734	3	19	Feedback	Neutral	True
195.176	2.921	Control	0.75	n/a	No	2.921	n/a	n/a	NoResponse	0	0.0	n/a	3	19	ISIslide	Neutral	True
198.125	0.25	Control	0.7619	0.0	Yes	2.625	0.025	n/a	GoodResponse	0	n/a	n/a	3	20	Cue	Neutral	True
198.375	4.05	Control	0.7619	0.0	Yes	2.625	0.0	n/a	GoodResponse	0	n/a	n/a	3	20	Fixation	Neutral	True
202.424	0.24	Control	0.7619	0.001	Yes	2.625	-0.001	2.0	GoodResponse	0	0.216	201.64	3	20	Target	Neutral	True
202.64	0.3	Control	0.7619	0.001	Yes	2.625	-0.001	2.0	GoodResponse	0	0.216	n/a	3	20	ButtonPress	Neutral	True
202.674	0.46	Control	0.7619	n/a	Yes	2.625	n/a	n/a	GoodResponse	0	n/a	n/a	3	20	Blank	Neutral	True
203.123	1.45	Control	0.7619	n/a	Yes	2.625	n/a	5.0	GoodResponse	0	0.023	202.146	3	20	Feedback	Neutral	True
204.573	2.625	Control	0.7619	n/a	Yes	2.625	n/a	n/a	GoodResponse	0	0.0	n/a	3	20	ISIslide	Neutral	True
207.222	0.25	Control	0.7726999999999999	0.0	Yes	2.778	0.022	n/a	GoodResponse	0	n/a	n/a	3	21	Cue	Neutral	True
207.472	4.1	Control	0.7726999999999999	0.0	Yes	2.778	0.0	n/a	GoodResponse	0	n/a	n/a	3	21	Fixation	Neutral	True
211.57	0.23	Control	0.7726999999999999	0.002	Yes	2.778	-0.002	2.0	GoodResponse	0	0.211	210.781	3	21	Target	Neutral	True
211.781	0.3	Control	0.7726999999999999	0.002	Yes	2.778	-0.002	2.0	GoodResponse	0	0.211	n/a	3	21	ButtonPress	Neutral	True
211.804	0.47	Control	0.7726999999999999	n/a	Yes	2.778	n/a	n/a	GoodResponse	0	n/a	n/a	3	21	Blank	Neutral	True
212.27	1.45	Control	0.7726999999999999	n/a	Yes	2.778	n/a	5.0	GoodResponse	0	0.047	211.317	3	21	Feedback	Neutral	True
213.72	2.778	Control	0.7726999999999999	n/a	Yes	2.778	n/a	n/a	GoodResponse	0	0.0	n/a	3	21	ISIslide	Neutral	True
216.519	0.25	Control	0.7826000000000001	0.0	Yes	2.781	0.019	n/a	GoodResponse	0	n/a	n/a	3	22	Cue	Neutral	True
216.769	4.0	Control	0.7826000000000001	0.0	Yes	2.781	0.0	n/a	GoodResponse	0	n/a	n/a	3	22	Fixation	Neutral	True
220.767	0.22	Control	0.7826000000000001	0.002	Yes	2.781	-0.002	2.0	GoodResponse	0	0.209	219.976	3	22	Target	Neutral	True
220.976	0.3	Control	0.7826000000000001	0.002	Yes	2.781	-0.002	2.0	GoodResponse	0	0.209	n/a	3	22	ButtonPress	Neutral	True
221	0.48	Control	0.7826000000000001	n/a	Yes	2.781	n/a	n/a	GoodResponse	0	n/a	n/a	3	22	Blank	Neutral	True
221.467	1.45	Control	0.7826000000000001	n/a	Yes	2.781	n/a	5.0	GoodResponse	0	0.02	220.487	3	22	Feedback	Neutral	True
222.916	2.781	Control	0.7826000000000001	n/a	Yes	2.781	n/a	n/a	GoodResponse	0	0.0	n/a	3	22	ISIslide	Neutral	True
225.715	0.25	Control	0.7917000000000001	0.0	Yes	2.785	0.015	n/a	GoodResponse	0	n/a	n/a	3	23	Cue	Neutral	True
225.965	3.9	Control	0.7917000000000001	0.0	Yes	2.785	0.0	n/a	GoodResponse	0	n/a	n/a	3	23	Fixation	Neutral	True
229.864	0.21	Control	0.7917000000000001	0.001	Yes	2.785	-0.001	2.0	GoodResponse	0	0.202	229.066	3	23	Target	Neutral	True
230.066	0.3	Control	0.7917000000000001	0.001	Yes	2.785	-0.001	2.0	GoodResponse	0	0.202	n/a	3	23	ButtonPress	Neutral	True
230.081	0.49	Control	0.7917000000000001	n/a	Yes	2.785	n/a	n/a	GoodResponse	0	n/a	n/a	3	23	Blank	Neutral	True
230.564	1.45	Control	0.7917000000000001	n/a	Yes	2.785	n/a	5.0	GoodResponse	0	0.044	229.608	3	23	Feedback	Neutral	True
232.013	2.785	Control	0.7917000000000001	n/a	Yes	2.785	n/a	n/a	GoodResponse	0	0.0	n/a	3	23	ISIslide	Neutral	True
234.829	0.25	Win2	0.76	0.0	No	3.121	0.029	n/a	NoResponse	0	n/a	n/a	3	24	Cue	MissedWin	False
235.079	3.95	Win2	0.76	0.0	No	3.121	0.0	2.0	NoResponse	0	3.73	237.809	3	24	Fixation	MissedWin	False
238.809	0.3	Win2	0.76	0.0	No	3.121	0.0	2.0	NoResponse	0	3.73	n/a	3	24	ButtonPress	MissedWin	False
239.027	0.2	Win2	0.76	0.002	No	3.121	-0.002	2.0	NoResponse	0	0.217	238.244	3	24	Target	MissedWin	False
239.227	0.5	Win2	0.76	n/a	No	3.121	n/a	n/a	NoResponse	0	n/a	n/a	3	24	Blank	MissedWin	False
239.244	0.3	Win2	0.76	0.002	No	3.121	-0.002	2.0	NoResponse	0	0.217	n/a	3	24	ButtonPress	MissedWin	False
239.727	1.45	Win2	0.76	n/a	No	3.121	n/a	5.0	NoResponse	0	0.007	238.734	3	24	Feedback	MissedWin	False
241.177	3.121	Win2	0.76	n/a	No	3.121	n/a	n/a	NoResponse	0	0.0	n/a	3	24	ISIslide	MissedWin	False
244.325	0.25	Win2	0.7308	0.001	No	3.075	0.025	n/a	NoResponse	0	n/a	n/a	3	25	Cue	MissedWin	True
244.575	4.0	Win2	0.7308	0.0	No	3.075	0.0	n/a	NoResponse	0	n/a	n/a	3	25	Fixation	MissedWin	True
248.574	0.19	Win2	0.7308	0.001	No	3.075	-0.001	2.0	NoResponse	0	0.212	247.786	3	25	Target	MissedWin	True
248.774	0.51	Win2	0.7308	n/a	No	3.075	n/a	n/a	NoResponse	0	n/a	n/a	3	25	Blank	MissedWin	True
248.786	0.3	Win2	0.7308	0.001	No	3.075	-0.001	2.0	NoResponse	0	0.212	n/a	3	25	ButtonPress	MissedWin	True
249.274	1.45	Win2	0.7308	n/a	No	3.075	n/a	5.0	NoResponse	0	0.018	248.292	3	25	Feedback	MissedWin	True
250.723	3.075	Win2	0.7308	n/a	No	3.075	n/a	n/a	NoResponse	0	0.0	n/a	3	25	ISIslide	MissedWin	True
253.822	0.25	Win2	0.7037	0.0	No	2.928	0.022	n/a	NoResponse	0	n/a	n/a	3	26	Cue	MissedWin	True
254.072	3.95	Win2	0.7037	0.0	No	2.928	0.0	n/a	NoResponse	0	n/a	n/a	3	26	Fixation	MissedWin	True
258.021	0.18	Win2	0.7037	0.001	No	2.928	-0.001	2.0	NoResponse	0	0.205	257.226	3	26	Target	MissedWin	True
258.204	0.52	Win2	0.7037	n/a	No	2.928	n/a	n/a	NoResponse	0	n/a	n/a	3	26	Blank	MissedWin	True
258.226	0.3	Win2	0.7037	0.001	No	2.928	-0.001	2.0	NoResponse	0	0.205	n/a	3	26	ButtonPress	MissedWin	True
258.72	1.45	Win2	0.7037	n/a	No	2.928	n/a	5.0	NoResponse	0	0.035	257.755	3	26	Feedback	MissedWin	True
260.17	2.928	Win2	0.7037	n/a	No	2.928	n/a	n/a	NoResponse	0	0.0	n/a	3	26	ISIslide	MissedWin	True
263.119	0.25	Lose2	0.6786	0.0	No	2.831	0.019	n/a	NoResponse	-1	n/a	n/a	2	27	Cue	Loss	True
263.369	4.05	Lose2	0.6786	0.0	No	2.831	0.0	n/a	NoResponse	-1	n/a	n/a	2	27	Fixation	Loss	True
267.417	0.17	Lose2	0.6786	0.002	No	2.831	-0.002	2.0	NoResponse	-1	0.232	266.649	2	27	Target	Loss	True
267.601	0.53	Lose2	0.6786	n/a	No	2.831	n/a	n/a	NoResponse	-1	n/a	n/a	2	27	Blank	Loss	True
267.649	0.3	Lose2	0.6786	0.002	No	2.831	-0.002	2.0	NoResponse	-1	0.232	n/a	2	27	ButtonPress	Loss	True
268.117	1.45	Lose2	0.6786	n/a	No	2.831	n/a	5.0	NoResponse	-1	0.007	267.124	2	27	Feedback	Loss	True
269.566	2.831	Lose2	0.6786	n/a	No	2.831	n/a	n/a	NoResponse	-1	0.0	n/a	2	27	ISIslide	Loss	True
272.415	0.25	Control	0.6552	0.001	No	2.835	0.015	n/a	NoResponse	0	n/a	n/a	2	28	Cue	Neutral	False
272.665	4.05	Control	0.6552	0.0	No	2.835	0.0	n/a	NoResponse	0	n/a	n/a	2	28	Fixation	Neutral	False
276.714	0.16	Control	0.6552	0.001	No	2.835	-0.001	n/a	NoResponse	0	n/a	n/a	2	28	Target	Neutral	False
276.881	0.54	Control	0.6552	n/a	No	2.835	n/a	n/a	NoResponse	0	n/a	n/a	2	28	Blank	Neutral	False
277.414	1.45	Control	0.6552	n/a	No	2.835	n/a	5.0	NoResponse	0	0.023	276.437	2	28	Feedback	Neutral	False
278.863	2.835	Control	0.6552	n/a	No	2.835	n/a	n/a	NoResponse	0	0.0	n/a	2	28	ISIslide	Neutral	False
281.729	0.25	Lose2	0.6333	0.0	No	2.821	0.029	n/a	NoResponse	-1	n/a	n/a	1	29	Cue	Loss	True
281.979	3.95	Lose2	0.6333	0.0	No	2.821	0.0	n/a	NoResponse	-1	n/a	n/a	1	29	Fixation	Loss	True
285.927	0.16	Lose2	0.6333	0.002	No	2.821	-0.002	2.0	NoResponse	-1	0.209	285.136	1	29	Target	Loss	True
286.094	0.54	Lose2	0.6333	n/a	No	2.821	n/a	n/a	NoResponse	-1	n/a	n/a	1	29	Blank	Loss	True
286.136	0.3	Lose2	0.6333	0.002	No	2.821	-0.002	2.0	NoResponse	-1	0.209	n/a	1	29	ButtonPress	Loss	True
286.627	1.45	Lose2	0.6333	n/a	No	2.821	n/a	5.0	NoResponse	-1	0.03	285.657	1	29	Feedback	Loss	True
288.077	2.821	Lose2	0.6333	n/a	No	2.821	n/a	n/a	NoResponse	-1	0.0	n/a	1	29	ISIslide	Loss	True
290.926	0.25	Win2	0.6129	0.0	No	2.774	0.026	n/a	NoResponse	0	n/a	n/a	1	30	Cue	MissedWin	False
291.175	3.9	Win2	0.6129	0.001	No	2.774	-0.001	n/a	NoResponse	0	n/a	n/a	1	30	Fixation	MissedWin	False
295.074	0.17	Win2	0.6129	0.002	No	2.774	-0.002	n/a	NoResponse	0	n/a	n/a	1	30	Target	MissedWin	False
295.257	0.53	Win2	0.6129	n/a	No	2.774	n/a	n/a	NoResponse	0	n/a	n/a	1	30	Blank	MissedWin	False
295.774	1.45	Win2	0.6129	n/a	No	2.774	n/a	5.0	NoResponse	0	0.007	294.781	1	30	Feedback	MissedWin	False
297.223	2.774	Win2	0.6129	n/a	No	2.774	n/a	n/a	NoResponse	0	0.0	n/a	1	30	ISIslide	MissedWin	False
300.022	0.25	Lose2	0.5938	0.0	No	2.828	0.022	n/a	NoResponse	-1	n/a	n/a	0	31	Cue	Loss	True
300.272	4.05	Lose2	0.5938	0.0	No	2.828	0.0	n/a	NoResponse	-1	n/a	n/a	0	31	Fixation	Loss	True
304.321	0.18	Lose2	0.5938	0.001	No	2.828	-0.001	2.0	NoResponse	-1	0.244	303.565	0	31	Target	Loss	True
304.504	0.52	Lose2	0.5938	n/a	No	2.828	n/a	n/a	NoResponse	-1	n/a	n/a	0	31	Blank	Loss	True
304.565	0.3	Lose2	0.5938	0.001	No	2.828	-0.001	2.0	NoResponse	-1	0.244	n/a	0	31	ButtonPress	Loss	True
305.021	1.45	Lose2	0.5938	n/a	No	2.828	n/a	5.0	NoResponse	-1	0.026	304.047	0	31	Feedback	Loss	True
306.47	2.828	Lose2	0.5938	n/a	No	2.828	n/a	n/a	NoResponse	-1	0.0	n/a	0	31	ISIslide	Loss	True
309.319	0.25	Lose2	0.5758	0.0	No	2.631	0.019	n/a	NoResponse	-1	n/a	n/a	-1	32	Cue	Loss	True
309.569	4.15	Lose2	0.5758	0.0	No	2.631	0.0	n/a	NoResponse	-1	n/a	n/a	-1	32	Fixation	Loss	True
313.717	0.19	Lose2	0.5758	0.002	No	2.631	-0.002	2.0	NoResponse	-1	0.267	312.984	-1	32	Target	Loss	True
313.917	0.51	Lose2	0.5758	n/a	No	2.631	n/a	n/a	NoResponse	-1	n/a	n/a	-1	32	Blank	Loss	True
313.984	0.3	Lose2	0.5758	0.002	No	2.631	-0.002	2.0	NoResponse	-1	0.267	n/a	-1	32	ButtonPress	Loss	True
314.417	1.45	Lose2	0.5758	n/a	No	2.631	n/a	5.0	NoResponse	-1	0.044	313.461	-1	32	Feedback	Loss	True
315.867	2.631	Lose2	0.5758	n/a	No	2.631	n/a	n/a	NoResponse	-1	0.0	n/a	-1	32	ISIslide	Loss	True
318.516	0.25	Win2	0.5588000000000001	0.0	No	2.684	0.016	n/a	NoResponse	0	n/a	n/a	-1	33	Cue	MissedWin	True
318.766	4.0	Win2	0.5588000000000001	0.0	No	2.684	0.0	n/a	NoResponse	0	n/a	n/a	-1	33	Fixation	MissedWin	True
322.764	0.2	Win2	0.5588000000000001	0.002	No	2.684	-0.002	2.0	NoResponse	0	0.241	322.005	-1	33	Target	MissedWin	True
322.964	0.5	Win2	0.5588000000000001	n/a	No	2.684	n/a	n/a	NoResponse	0	n/a	n/a	-1	33	Blank	MissedWin	True
323.005	0.3	Win2	0.5588000000000001	0.002	No	2.684	-0.002	2.0	NoResponse	0	0.241	n/a	-1	33	ButtonPress	MissedWin	True
323.464	1.45	Win2	0.5588000000000001	n/a	No	2.684	n/a	5.0	NoResponse	0	0.022	322.486	-1	33	Feedback	MissedWin	True
324.913	2.684	Win2	0.5588000000000001	n/a	No	2.684	n/a	n/a	NoResponse	0	0.0	n/a	-1	33	ISIslide	MissedWin	True
327.629	0.25	Lose2	0.5428999999999999	0.0	No	2.621	0.029	n/a	NoResponse	-1	n/a	n/a	-2	34	Cue	Loss	True
327.879	4.05	Lose2	0.5428999999999999	0.0	No	2.621	0.0	n/a	NoResponse	-1	n/a	n/a	-2	34	Fixation	Loss	True
331.928	0.21	Lose2	0.5428999999999999	0.001	No	2.621	-0.001	2.0	NoResponse	-1	0.229	331.157	-2	34	Target	Loss	True
332.144	0.49	Lose2	0.5428999999999999	n/a	No	2.621	n/a	n/a	NoResponse	-1	n/a	n/a	-2	34	Blank	Loss	True
332.157	0.3	Lose2	0.5428999999999999	0.001	No	2.621	-0.001	2.0	NoResponse	-1	0.229	n/a	-2	34	ButtonPress	Loss	True
332.627	1.45	Lose2	0.5428999999999999	n/a	No	2.621	n/a	5.0	NoResponse	-1	0.03	331.657	-2	34	Feedback	Loss	True
334.077	2.621	Lose2	0.5428999999999999	n/a	No	2.621	n/a	n/a	NoResponse	-1	0.0	n/a	-2	34	ISIslide	Loss	True
336.726	0.25	Lose2	0.5278	0.0	No	2.674	0.026	n/a	LatePress	-1	n/a	n/a	-3	35	Cue	Loss	True
336.976	4.0	Lose2	0.5278	0.0	No	2.674	0.0	n/a	LatePress	-1	n/a	n/a	-3	35	Fixation	Loss	True
340.974	0.22	Lose2	0.5278	0.002	No	2.674	-0.002	2.0	LatePress	-1	0.233	340.207	-3	35	Target	Loss	True
341.207	0.3	Lose2	0.5278	0.002	No	2.674	-0.002	2.0	LatePress	-1	0.233	n/a	-3	35	ButtonPress	Loss	True
341.208	0.48	Lose2	0.5278	n/a	No	2.674	n/a	n/a	LatePress	-1	n/a	n/a	-3	35	Blank	Loss	True
341.674	1.45	Lose2	0.5278	n/a	No	2.674	n/a	5.0	LatePress	-1	0.007	340.681	-3	35	Feedback	Loss	True
343.124	2.674	Lose2	0.5278	n/a	No	2.674	n/a	n/a	LatePress	-1	0.0	n/a	-3	35	ISIslide	Loss	True
345.823	0.25	Control	0.5135000000000001	0.0	No	2.677	0.023	n/a	NoResponse	0	n/a	n/a	-3	36	Cue	Neutral	True
346.073	4.0	Control	0.5135000000000001	0.0	No	2.677	0.0	n/a	NoResponse	0	n/a	n/a	-3	36	Fixation	Neutral	True
350.071	0.23	Control	0.5135000000000001	0.002	No	2.677	-0.002	2.0	NoResponse	0	0.434	349.505	-3	36	Target	Neutral	True
350.304	0.47	Control	0.5135000000000001	n/a	No	2.677	n/a	n/a	NoResponse	0	n/a	n/a	-3	36	Blank	Neutral	True
350.505	0.3	Control	0.5135000000000001	0.002	No	2.677	-0.002	2.0	NoResponse	0	0.434	n/a	-3	36	ButtonPress	Neutral	True
350.771	1.45	Control	0.5135000000000001	n/a	No	2.677	n/a	5.0	NoResponse	0	0.031	349.802	-3	36	Feedback	Neutral	True
352.22	2.677	Control	0.5135000000000001	n/a	No	2.677	n/a	n/a	NoResponse	0	0.0	n/a	-3	36	ISIslide	Neutral	True
354.919	0.25	Win2	0.5263	0.001	Yes	2.881	0.019	n/a	GoodResponse	1	n/a	n/a	-2	37	Cue	Win	True
355.169	4.0	Win2	0.5263	0.0	Yes	2.881	0.0	n/a	GoodResponse	1	n/a	n/a	-2	37	Fixation	Win	True
359.168	0.24	Win2	0.5263	0.001	Yes	2.881	-0.001	2.0	GoodResponse	1	0.235	358.403	-2	37	Target	Win	True
359.403	0.3	Win2	0.5263	0.001	Yes	2.881	-0.001	2.0	GoodResponse	1	0.235	n/a	-2	37	ButtonPress	Win	True
359.418	0.46	Win2	0.5263	n/a	Yes	2.881	n/a	n/a	GoodResponse	1	n/a	n/a	-2	37	Blank	Win	True
359.868	1.45	Win2	0.5263	n/a	Yes	2.881	n/a	5.0	GoodResponse	1	0.007	358.875	-2	37	Feedback	Win	True
361.317	2.881	Win2	0.5263	n/a	Yes	2.881	n/a	n/a	GoodResponse	1	0.0	n/a	-2	37	ISIslide	Win	True
364.216	0.25	Lose2	0.5385	0.0	Yes	2.834	0.016	n/a	GoodResponse	0	n/a	n/a	-2	38	Cue	AvoidedLoss	True
364.466	3.95	Lose2	0.5385	0.0	Yes	2.834	0.0	n/a	GoodResponse	0	n/a	n/a	-2	38	Fixation	AvoidedLoss	True
368.415	0.25	Lose2	0.5385	0.001	Yes	2.834	-0.001	2.0	GoodResponse	0	0.215	367.63	-2	38	Target	AvoidedLoss	True
368.63	0.3	Lose2	0.5385	0.001	Yes	2.834	-0.001	2.0	GoodResponse	0	0.215	n/a	-2	38	ButtonPress	AvoidedLoss	True
368.665	0.45	Lose2	0.5385	n/a	Yes	2.834	n/a	n/a	GoodResponse	0	n/a	n/a	-2	38	Blank	AvoidedLoss	True
369.114	1.45	Lose2	0.5385	n/a	Yes	2.834	n/a	5.0	GoodResponse	0	0.03	368.144	-2	38	Feedback	AvoidedLoss	True
370.564	2.834	Lose2	0.5385	n/a	Yes	2.834	n/a	n/a	GoodResponse	0	0.0	n/a	-2	38	ISIslide	AvoidedLoss	True
373.413	0.25	Win2	0.55	0.0	Yes	2.987	0.013	n/a	GoodResponse	1	n/a	n/a	-1	39	Cue	Win	True
373.663	4.1	Win2	0.55	0.0	Yes	2.987	0.0	n/a	GoodResponse	1	n/a	n/a	-1	39	Fixation	Win	True
377.761	0.26	Win2	0.55	0.002	Yes	2.987	-0.002	2.0	GoodResponse	1	0.24	377.001	-1	39	Target	Win	True
378.001	0.3	Win2	0.55	0.002	Yes	2.987	-0.002	2.0	GoodResponse	1	0.24	n/a	-1	39	ButtonPress	Win	True
378.028	0.44	Win2	0.55	n/a	Yes	2.987	n/a	n/a	GoodResponse	1	n/a	n/a	-1	39	Blank	Win	True
378.461	1.45	Win2	0.55	n/a	Yes	2.987	n/a	5.0	GoodResponse	1	0.049	377.51	-1	39	Feedback	Win	True
379.911	2.987	Win2	0.55	n/a	Yes	2.987	n/a	n/a	GoodResponse	1	0.0	n/a	-1	39	ISIslide	Win	True
382.926	0.25	Win2	0.561	0.0	Yes	2.724	0.026	n/a	GoodResponse	1	n/a	n/a	0	40	Cue	Win	True
383.176	3.95	Win2	0.561	0.0	Yes	2.724	0.0	n/a	GoodResponse	1	n/a	n/a	0	40	Fixation	Win	True
387.125	0.27	Win2	0.561	0.001	Yes	2.724	-0.001	2.0	GoodResponse	1	0.243	386.368	0	40	Target	Win	True
387.368	0.3	Win2	0.561	0.001	Yes	2.724	-0.001	2.0	GoodResponse	1	0.243	n/a	0	40	ButtonPress	Win	True
387.408	0.43	Win2	0.561	n/a	Yes	2.724	n/a	n/a	GoodResponse	1	n/a	n/a	0	40	Blank	Win	True
387.824	1.45	Win2	0.561	n/a	Yes	2.724	n/a	5.0	GoodResponse	1	0.007	386.831	0	40	Feedback	Win	True
389.274	2.724	Win2	0.561	n/a	Yes	2.724	n/a	n/a	GoodResponse	1	0.0	n/a	0	40	ISIslide	Win	True
392.023	0.25	Win2	0.5476	0.0	No	2.777	0.023	n/a	NoResponse	0	n/a	n/a	0	41	Cue	MissedWin	True
392.273	3.9	Win2	0.5476	0.0	No	2.777	0.0	n/a	NoResponse	0	n/a	n/a	0	41	Fixation	MissedWin	True
396.171	0.28	Win2	0.5476	0.002	No	2.777	-0.002	2.0	NoResponse	0	0.333	395.504	0	41	Target	MissedWin	True
396.455	0.42	Win2	0.5476	n/a	No	2.777	n/a	n/a	NoResponse	0	n/a	n/a	0	41	Blank	MissedWin	True
396.504	0.3	Win2	0.5476	0.002	No	2.777	-0.002	2.0	NoResponse	0	0.333	n/a	0	41	ButtonPress	MissedWin	True
396.871	1.45	Win2	0.5476	n/a	No	2.777	n/a	5.0	NoResponse	0	0.028	395.899	0	41	Feedback	MissedWin	True
398.321	2.777	Win2	0.5476	n/a	No	2.777	n/a	n/a	NoResponse	0	0.0	n/a	0	41	ISIslide	MissedWin	True
401.12	0.25	Control	0.5581	0.0	Yes	2.93	0.02	n/a	GoodResponse	0	n/a	n/a	0	42	Cue	Neutral	True
401.37	3.85	Control	0.5581	0.0	Yes	2.93	0.0	n/a	GoodResponse	0	n/a	n/a	0	42	Fixation	Neutral	True
405.218	0.29	Control	0.5581	0.002	Yes	2.93	-0.002	2.0	GoodResponse	0	0.223	404.441	0	42	Target	Neutral	True
405.441	0.3	Control	0.5581	0.002	Yes	2.93	-0.002	2.0	GoodResponse	0	0.223	n/a	0	42	ButtonPress	Neutral	True
405.518	0.41	Control	0.5581	n/a	Yes	2.93	n/a	n/a	GoodResponse	0	n/a	n/a	0	42	Blank	Neutral	True
405.918	1.45	Control	0.5581	n/a	Yes	2.93	n/a	5.0	GoodResponse	0	0.006	404.924	0	42	Feedback	Neutral	True
407.367	2.93	Control	0.5581	n/a	Yes	2.93	n/a	n/a	GoodResponse	0	0.0	n/a	0	42	ISIslide	Neutral	True
410.316	0.25	Win2	0.5455	0.001	No	3.184	0.016	n/a	NoResponse	0	n/a	n/a	0	43	Cue	MissedWin	False
410.566	4.0	Win2	0.5455	0.0	No	3.184	0.0	n/a	NoResponse	0	n/a	n/a	0	43	Fixation	MissedWin	False
414.565	0.3	Win2	0.5455	0.001	No	3.184	-0.001	n/a	NoResponse	0	n/a	n/a	0	43	Target	MissedWin	False
414.865	0.4	Win2	0.5455	n/a	No	3.184	n/a	n/a	NoResponse	0	n/a	n/a	0	43	Blank	MissedWin	False
415.265	1.45	Win2	0.5455	n/a	No	3.184	n/a	5.0	NoResponse	0	0.025	414.29	0	43	Feedback	MissedWin	False
416.714	3.184	Win2	0.5455	n/a	No	3.184	n/a	n/a	NoResponse	0	0.0	n/a	0	43	ISIslide	MissedWin	False
419.93	0.25	Win2	0.5556	0.0	Yes	2.97	0.03	n/a	GoodResponse	1	n/a	n/a	1	44	Cue	Win	True
420.18	4.0	Win2	0.5556	0.0	Yes	2.97	0.0	n/a	GoodResponse	1	n/a	n/a	1	44	Fixation	Win	True
424.178	0.31	Win2	0.5556	0.002	Yes	2.97	-0.002	2.0	GoodResponse	1	0.218	423.396	1	44	Target	Win	True
424.396	0.3	Win2	0.5556	0.002	Yes	2.97	-0.002	2.0	GoodResponse	1	0.218	n/a	1	44	ButtonPress	Win	True
424.495	0.39	Win2	0.5556	n/a	Yes	2.97	n/a	n/a	GoodResponse	1	n/a	n/a	1	44	Blank	Win	True
424.878	1.45	Win2	0.5556	n/a	Yes	2.97	n/a	5.0	GoodResponse	1	0.021	423.899	1	44	Feedback	Win	True
426.327	2.97	Win2	0.5556	n/a	Yes	2.97	n/a	n/a	GoodResponse	1	0.0	n/a	1	44	ISIslide	Win	True
429.326	0.25	Control	0.5652	0.0	Yes	2.874	0.026	n/a	GoodResponse	0	n/a	n/a	1	45	Cue	Neutral	True
429.576	4.1	Control	0.5652	0.0	Yes	2.874	0.0	n/a	GoodResponse	0	n/a	n/a	1	45	Fixation	Neutral	True
433.675	0.32	Control	0.5652	0.001	Yes	2.874	-0.001	2.0	GoodResponse	0	0.266	432.941	1	45	Target	Neutral	True
433.941	0.3	Control	0.5652	0.001	Yes	2.874	-0.001	2.0	GoodResponse	0	0.266	n/a	1	45	ButtonPress	Neutral	True
433.991	0.38	Control	0.5652	n/a	Yes	2.874	n/a	n/a	GoodResponse	0	n/a	n/a	1	45	Blank	Neutral	True
434.375	1.45	Control	0.5652	n/a	Yes	2.874	n/a	5.0	GoodResponse	0	0.036	433.411	1	45	Feedback	Neutral	True
435.824	2.874	Control	0.5652	n/a	Yes	2.874	n/a	n/a	GoodResponse	0	0.0	n/a	1	45	ISIslide	Neutral	True
438.723	0.25	Lose2	0.5745	0.0	Yes	3.377	0.023	n/a	GoodResponse	0	n/a	n/a	1	46	Cue	AvoidedLoss	True
438.973	4.0	Lose2	0.5745	0.0	Yes	3.377	0.0	n/a	GoodResponse	0	n/a	n/a	1	46	Fixation	AvoidedLoss	True
442.971	0.33	Lose2	0.5745	0.002	Yes	3.377	-0.002	2.0	GoodResponse	0	0.237	442.208	1	46	Target	AvoidedLoss	True
443.208	0.3	Lose2	0.5745	0.002	Yes	3.377	-0.002	2.0	GoodResponse	0	0.237	n/a	1	46	ButtonPress	AvoidedLoss	True
443.305	0.37	Lose2	0.5745	n/a	Yes	3.377	n/a	n/a	GoodResponse	0	n/a	n/a	1	46	Blank	AvoidedLoss	True
443.671	1.45	Lose2	0.5745	n/a	Yes	3.377	n/a	5.0	GoodResponse	0	0.008	442.679	1	46	Feedback	AvoidedLoss	True
445.121	3.377	Lose2	0.5745	n/a	Yes	3.377	n/a	n/a	GoodResponse	0	0.0	n/a	1	46	ISIslide	AvoidedLoss	True
448.52	0.25	Lose2	0.5832999999999999	0.0	Yes	2.68	0.02	n/a	GoodResponse	0	n/a	n/a	1	47	Cue	AvoidedLoss	True
448.769	4.0	Lose2	0.5832999999999999	0.001	Yes	2.68	-0.001	n/a	GoodResponse	0	n/a	n/a	1	47	Fixation	AvoidedLoss	True
452.768	0.34	Lose2	0.5832999999999999	0.002	Yes	2.68	-0.002	2.0	GoodResponse	0	0.222	451.99	1	47	Target	AvoidedLoss	True
452.99	0.3	Lose2	0.5832999999999999	0.002	Yes	2.68	-0.002	2.0	GoodResponse	0	0.222	n/a	1	47	ButtonPress	AvoidedLoss	True
453.118	0.36	Lose2	0.5832999999999999	n/a	Yes	2.68	n/a	n/a	GoodResponse	0	n/a	n/a	1	47	Blank	AvoidedLoss	True
453.468	1.45	Lose2	0.5832999999999999	n/a	Yes	2.68	n/a	5.0	GoodResponse	0	0.016	452.484	1	47	Feedback	AvoidedLoss	True
454.917	2.68	Lose2	0.5832999999999999	n/a	Yes	2.68	n/a	n/a	GoodResponse	0	0.0	n/a	1	47	ISIslide	AvoidedLoss	True
457.616	0.25	Lose2	0.5918	0.0	Yes	3.034	0.016	n/a	GoodResponse	0	n/a	n/a	1	48	Cue	AvoidedLoss	True
457.866	3.95	Lose2	0.5918	0.0	Yes	3.034	0.0	n/a	GoodResponse	0	n/a	n/a	1	48	Fixation	AvoidedLoss	True
461.815	0.35	Lose2	0.5918	0.001	Yes	3.034	-0.001	2.0	GoodResponse	0	0.338	461.153	1	48	Target	AvoidedLoss	True
462.153	0.3	Lose2	0.5918	0.001	Yes	3.034	-0.001	2.0	GoodResponse	0	0.338	n/a	1	48	ButtonPress	AvoidedLoss	True
462.165	0.35	Lose2	0.5918	n/a	Yes	3.034	n/a	n/a	GoodResponse	0	n/a	n/a	1	48	Blank	AvoidedLoss	True
462.515	1.45	Lose2	0.5918	n/a	Yes	3.034	n/a	5.0	GoodResponse	0	0.042	461.557	1	48	Feedback	AvoidedLoss	True
463.964	3.034	Lose2	0.5918	n/a	Yes	3.034	n/a	n/a	GoodResponse	0	0.0	n/a	1	48	ISIslide	AvoidedLoss	True
467.013	0.25	Control	0.6	0.0	Yes	2.887	0.013	n/a	GoodResponse	0	n/a	n/a	1	49	Cue	Neutral	True
467.263	4.0	Control	0.6	0.0	Yes	2.887	0.0	n/a	GoodResponse	0	n/a	n/a	1	49	Fixation	Neutral	True
471.261	0.36	Control	0.6	0.002	Yes	2.887	-0.002	2.0	GoodResponse	0	0.221	470.482	1	49	Target	Neutral	True
471.482	0.3	Control	0.6	0.002	Yes	2.887	-0.002	2.0	GoodResponse	0	0.221	n/a	1	49	ButtonPress	Neutral	True
471.628	0.34	Control	0.6	n/a	Yes	2.887	n/a	n/a	GoodResponse	0	n/a	n/a	1	49	Blank	Neutral	True
471.961	1.45	Control	0.6	n/a	Yes	2.887	n/a	5.0	GoodResponse	0	0.01	470.971	1	49	Feedback	Neutral	True
473.411	2.887	Control	0.6	n/a	Yes	2.887	n/a	n/a	GoodResponse	0	0.0	n/a	1	49	ISIslide	Neutral	True
476.326	0.25	Control	0.6078	0.0	Yes	2.774	0.026	n/a	GoodResponse	0	n/a	n/a	1	50	Cue	Neutral	True
476.576	4.0	Control	0.6078	0.0	Yes	2.774	0.0	n/a	GoodResponse	0	n/a	n/a	1	50	Fixation	Neutral	True
480.575	0.37	Control	0.6078	0.001	Yes	2.774	-0.001	2.0	GoodResponse	0	0.232	479.807	1	50	Target	Neutral	True
480.807	0.3	Control	0.6078	0.001	Yes	2.774	-0.001	2.0	GoodResponse	0	0.232	n/a	1	50	ButtonPress	Neutral	True
480.958	0.33	Control	0.6078	n/a	Yes	2.774	n/a	n/a	GoodResponse	0	n/a	n/a	1	50	Blank	Neutral	True
481.275	1.45	Control	0.6078	n/a	Yes	2.774	n/a	5.0	GoodResponse	0	0.014	480.289	1	50	Feedback	Neutral	True
482.724	2.774	Control	0.6078	n/a	Yes	2.774	n/a	n/a	GoodResponse	0	0.0	n/a	1	50	ISIslide	Neutral	True
485.523	0.25	Control	0.6154	0.0	Yes	2.727	0.023	n/a	GoodResponse	0	n/a	n/a	1	51	Cue	Neutral	True
485.773	3.95	Control	0.6154	0.0	Yes	2.727	0.0	n/a	GoodResponse	0	n/a	n/a	1	51	Fixation	Neutral	True
489.722	0.38	Control	0.6154	0.001	Yes	2.727	-0.001	2.0	GoodResponse	0	0.226	488.948	1	51	Target	Neutral	True
489.948	0.3	Control	0.6154	0.001	Yes	2.727	-0.001	2.0	GoodResponse	0	0.226	n/a	1	51	ButtonPress	Neutral	True
490.105	0.32	Control	0.6154	n/a	Yes	2.727	n/a	n/a	GoodResponse	0	n/a	n/a	1	51	Blank	Neutral	True
490.421	1.45	Control	0.6154	n/a	Yes	2.727	n/a	5.0	GoodResponse	0	0.038	489.459	1	51	Feedback	Neutral	True
491.871	2.727	Control	0.6154	n/a	Yes	2.727	n/a	n/a	GoodResponse	0	0.0	n/a	1	51	ISIslide	Neutral	True
494.62	0.25	Control	0.6038	0.0	No	2.63	0.02	n/a	LatePress	0	n/a	n/a	1	52	Cue	Neutral	True
494.87	4.05	Control	0.6038	0.0	No	2.63	0.0	n/a	LatePress	0	n/a	n/a	1	52	Fixation	Neutral	True
498.918	0.39	Control	0.6038	0.002	No	2.63	-0.002	2.0	LatePress	0	0.398	498.316	1	52	Target	Neutral	True
499.316	0.3	Control	0.6038	0.002	No	2.63	-0.002	2.0	LatePress	0	0.398	n/a	1	52	ButtonPress	Neutral	True
499.318	0.31	Control	0.6038	n/a	No	2.63	n/a	n/a	LatePress	0	n/a	n/a	1	52	Blank	Neutral	True
499.618	1.45	Control	0.6038	n/a	No	2.63	n/a	5.0	LatePress	0	0.011	498.629	1	52	Feedback	Neutral	True
501.067	2.63	Control	0.6038	n/a	No	2.63	n/a	n/a	LatePress	0	0.0	n/a	1	52	ISIslide	Neutral	True
503.717	0.25	Win2	0.6111	0.0	Yes	2.933	0.017	n/a	GoodResponse	1	n/a	n/a	2	53	Cue	Win	True
503.966	4.05	Win2	0.6111	0.001	Yes	2.933	-0.001	n/a	GoodResponse	1	n/a	n/a	2	53	Fixation	Win	True
508.015	0.4	Win2	0.6111	0.002	Yes	2.933	-0.002	2.0	GoodResponse	1	0.208	507.223	2	53	Target	Win	True
508.223	0.3	Win2	0.6111	0.002	Yes	2.933	-0.002	2.0	GoodResponse	1	0.208	n/a	2	53	ButtonPress	Win	True
508.415	0.3	Win2	0.6111	n/a	Yes	2.933	n/a	n/a	GoodResponse	1	n/a	n/a	2	53	Blank	Win	True
508.715	1.45	Win2	0.6111	n/a	Yes	2.933	n/a	5.0	GoodResponse	1	0.036	507.751	2	53	Feedback	Win	True
510.164	2.933	Win2	0.6111	n/a	Yes	2.933	n/a	n/a	GoodResponse	1	0.0	n/a	2	53	ISIslide	Win	True
513.113	0.25	Win2	0.6182	0.0	Yes	2.737	0.013	n/a	GoodResponse	1	n/a	n/a	3	54	Cue	Win	True
513.363	3.95	Win2	0.6182	0.0	Yes	2.737	0.0	n/a	GoodResponse	1	n/a	n/a	3	54	Fixation	Win	True
517.312	0.41	Win2	0.6182	0.001	Yes	2.737	-0.001	2.0	GoodResponse	1	0.25	516.562	3	54	Target	Win	True
517.562	0.3	Win2	0.6182	0.001	Yes	2.737	-0.001	2.0	GoodResponse	1	0.25	n/a	3	54	ButtonPress	Win	True
517.728	0.29	Win2	0.6182	n/a	Yes	2.737	n/a	n/a	GoodResponse	1	n/a	n/a	3	54	Blank	Win	True
518.011	1.45	Win2	0.6182	n/a	Yes	2.737	n/a	5.0	GoodResponse	1	0.009	517.02	3	54	Feedback	Win	True
519.461	2.737	Win2	0.6182	n/a	Yes	2.737	n/a	n/a	GoodResponse	1	0.0	n/a	3	54	ISIslide	Win	True
522.227	0.25	Control	0.625	0.0	Yes	3.023	0.027	n/a	GoodResponse	0	n/a	n/a	3	55	Cue	Neutral	True
522.477	3.95	Control	0.625	0.0	Yes	3.023	0.0	n/a	GoodResponse	0	n/a	n/a	3	55	Fixation	Neutral	True
526.425	0.42	Control	0.625	0.002	Yes	3.023	-0.002	2.0	GoodResponse	0	0.322	525.747	3	55	Target	Neutral	True
526.747	0.3	Control	0.625	0.002	Yes	3.023	-0.002	2.0	GoodResponse	0	0.322	n/a	3	55	ButtonPress	Neutral	True
526.858	0.28	Control	0.625	n/a	Yes	3.023	n/a	n/a	GoodResponse	0	n/a	n/a	3	55	Blank	Neutral	True
527.125	1.45	Control	0.625	n/a	Yes	3.023	n/a	5.0	GoodResponse	0	0.017	526.142	3	55	Feedback	Neutral	True
528.574	3.023	Control	0.625	n/a	Yes	3.023	n/a	n/a	GoodResponse	0	0.0	n/a	3	55	ISIslide	Neutral	True
531.623	0.25	Control	0.6315999999999999	0.0	Yes	2.827	0.023	n/a	GoodResponse	0	n/a	n/a	3	56	Cue	Neutral	True
531.873	3.95	Control	0.6315999999999999	0.0	Yes	2.827	0.0	n/a	GoodResponse	0	n/a	n/a	3	56	Fixation	Neutral	True
535.822	0.43	Control	0.6315999999999999	0.001	Yes	2.827	-0.001	2.0	GoodResponse	0	0.273	535.095	3	56	Target	Neutral	True
536.095	0.3	Control	0.6315999999999999	0.001	Yes	2.827	-0.001	2.0	GoodResponse	0	0.273	n/a	3	56	ButtonPress	Neutral	True
536.255	0.27	Control	0.6315999999999999	n/a	Yes	2.827	n/a	n/a	GoodResponse	0	n/a	n/a	3	56	Blank	Neutral	True
536.522	1.45	Control	0.6315999999999999	n/a	Yes	2.827	n/a	5.0	GoodResponse	0	0.034	535.556	3	56	Feedback	Neutral	True
537.971	2.827	Control	0.6315999999999999	n/a	Yes	2.827	n/a	n/a	GoodResponse	0	0.0	n/a	3	56	ISIslide	Neutral	True
540.82	0.25	Control	0.6379	0.0	Yes	3.48	0.02	n/a	GoodResponse	0	n/a	n/a	3	57	Cue	Neutral	True
541.07	4.0	Control	0.6379	0.0	Yes	3.48	0.0	n/a	GoodResponse	0	n/a	n/a	3	57	Fixation	Neutral	True
545.069	0.44	Control	0.6379	0.001	Yes	3.48	-0.001	2.0	GoodResponse	0	0.252	544.321	3	57	Target	Neutral	True
545.321	0.3	Control	0.6379	0.001	Yes	3.48	-0.001	2.0	GoodResponse	0	0.252	n/a	3	57	ButtonPress	Neutral	True
545.518	0.26	Control	0.6379	n/a	Yes	3.48	n/a	n/a	GoodResponse	0	n/a	n/a	3	57	Blank	Neutral	True
545.768	1.45	Control	0.6379	n/a	Yes	3.48	n/a	5.0	GoodResponse	0	0.007	544.775	3	57	Feedback	Neutral	True
547.218	3.48	Control	0.6379	n/a	Yes	3.48	n/a	n/a	GoodResponse	0	0.0	n/a	3	57	ISIslide	Neutral	True
550.716	0.25	Win2	0.6441	0.001	Yes	2.734	0.016	n/a	GoodResponse	1	n/a	n/a	4	58	Cue	Win	True
550.966	4.05	Win2	0.6441	0.0	Yes	2.734	0.0	n/a	GoodResponse	1	n/a	n/a	4	58	Fixation	Win	True
555.015	0.45	Win2	0.6441	0.001	Yes	2.734	-0.001	2.0	GoodResponse	1	0.198	554.213	4	58	Target	Win	True
555.213	0.3	Win2	0.6441	0.001	Yes	2.734	-0.001	2.0	GoodResponse	1	0.198	n/a	4	58	ButtonPress	Win	True
555.465	0.25	Win2	0.6441	n/a	Yes	2.734	n/a	n/a	GoodResponse	1	n/a	n/a	4	58	Blank	Win	True
555.715	1.45	Win2	0.6441	n/a	Yes	2.734	n/a	5.0	GoodResponse	1	0.012	554.727	4	58	Feedback	Win	True
557.164	2.734	Win2	0.6441	n/a	Yes	2.734	n/a	n/a	GoodResponse	1	0.0	n/a	4	58	ISIslide	Win	True
559.913	0.25	Lose2	0.65	0.0	Yes	2.687	0.013	n/a	GoodResponse	0	n/a	n/a	4	59	Cue	AvoidedLoss	True
560.163	4.0	Lose2	0.65	0.0	Yes	2.687	0.0	n/a	GoodResponse	0	n/a	n/a	4	59	Fixation	AvoidedLoss	True
564.162	0.46	Lose2	0.65	0.001	Yes	2.687	-0.001	2.0	GoodResponse	0	0.223	563.385	4	59	Target	AvoidedLoss	True
564.385	0.3	Lose2	0.65	0.001	Yes	2.687	-0.001	2.0	GoodResponse	0	0.223	n/a	4	59	ButtonPress	AvoidedLoss	True
564.628	0.24	Lose2	0.65	n/a	Yes	2.687	n/a	n/a	GoodResponse	0	n/a	n/a	4	59	Blank	AvoidedLoss	True
564.861	1.45	Lose2	0.65	n/a	Yes	2.687	n/a	5.0	GoodResponse	0	0.036	563.897	4	59	Feedback	AvoidedLoss	True
566.311	2.687	Lose2	0.65	n/a	Yes	2.687	n/a	n/a	GoodResponse	0	0.0	n/a	4	59	ISIslide	AvoidedLoss	True
569.027	0.25	Control	0.6557	0.0	Yes	2.673	0.027	n/a	GoodResponse	0	n/a	n/a	4	60	Cue	Neutral	True
569.277	4.0	Control	0.6557	0.0	Yes	2.673	0.0	n/a	GoodResponse	0	n/a	n/a	4	60	Fixation	Neutral	True
573.275	0.47	Control	0.6557	0.002	Yes	2.673	-0.002	2.0	GoodResponse	0	0.23	572.505	4	60	Target	Neutral	True
573.505	0.3	Control	0.6557	0.002	Yes	2.673	-0.002	2.0	GoodResponse	0	0.23	n/a	4	60	ButtonPress	Neutral	True
573.758	0.23	Control	0.6557	n/a	Yes	2.673	n/a	n/a	GoodResponse	0	n/a	n/a	4	60	Blank	Neutral	True
573.975	1.45	Control	0.6557	n/a	Yes	2.673	n/a	5.0	GoodResponse	0	0.043	573.018	4	60	Feedback	Neutral	True
575.424	2.673	Control	0.6557	n/a	Yes	2.673	n/a	n/a	GoodResponse	0	0.0	n/a	4	60	ISIslide	Neutral	True
578.123	0.25	Lose2	0.6613	0.001	Yes	2.977	0.023	n/a	GoodResponse	0	n/a	n/a	4	61	Cue	AvoidedLoss	True
578.373	4.0	Lose2	0.6613	0.0	Yes	2.977	0.0	n/a	GoodResponse	0	n/a	n/a	4	61	Fixation	AvoidedLoss	True
582.372	0.47	Lose2	0.6613	0.001	Yes	2.977	-0.001	2.0	GoodResponse	0	0.259	581.631	4	61	Target	AvoidedLoss	True
582.631	0.3	Lose2	0.6613	0.001	Yes	2.977	-0.001	2.0	GoodResponse	0	0.259	n/a	4	61	ButtonPress	AvoidedLoss	True
582.838	0.23	Lose2	0.6613	n/a	Yes	2.977	n/a	n/a	GoodResponse	0	n/a	n/a	4	61	Blank	AvoidedLoss	True
583.072	1.45	Lose2	0.6613	n/a	Yes	2.977	n/a	5.0	GoodResponse	0	0.02	582.092	4	61	Feedback	AvoidedLoss	True
584.521	2.977	Lose2	0.6613	n/a	Yes	2.977	n/a	n/a	GoodResponse	0	0.0	n/a	4	61	ISIslide	AvoidedLoss	True
587.52	0.25	Lose2	0.6507999999999999	0.0	No	2.88	0.02	n/a	NoResponse	-1	n/a	n/a	3	62	Cue	Loss	True
587.77	3.9	Lose2	0.6507999999999999	0.0	No	2.88	0.0	n/a	NoResponse	-1	n/a	n/a	3	62	Fixation	Loss	True
591.669	0.47	Lose2	0.6507999999999999	0.001	No	2.88	-0.001	2.0	NoResponse	-1	0.596	591.265	3	62	Target	Loss	True
592.152	0.23	Lose2	0.6507999999999999	n/a	No	2.88	n/a	n/a	NoResponse	-1	n/a	n/a	3	62	Blank	Loss	True
592.265	0.3	Lose2	0.6507999999999999	0.001	No	2.88	-0.001	2.0	NoResponse	-1	0.596	n/a	3	62	ButtonPress	Loss	True
592.368	1.45	Lose2	0.6507999999999999	n/a	No	2.88	n/a	5.0	NoResponse	-1	0.041	591.409	3	62	Feedback	Loss	True
593.818	2.88	Lose2	0.6507999999999999	n/a	No	2.88	n/a	n/a	NoResponse	-1	0.0	n/a	3	62	ISIslide	Loss	True
596.717	0.25	Lose2	0.6562	0.0	Yes	2.633	0.017	n/a	GoodResponse	0	n/a	n/a	3	63	Cue	AvoidedLoss	True
596.967	4.05	Lose2	0.6562	0.0	Yes	2.633	0.0	n/a	GoodResponse	0	n/a	n/a	3	63	Fixation	AvoidedLoss	True
601.015	0.48	Lose2	0.6562	0.002	Yes	2.633	-0.002	2.0	GoodResponse	0	0.29	600.305	3	63	Target	AvoidedLoss	True
601.305	0.3	Lose2	0.6562	0.002	Yes	2.633	-0.002	2.0	GoodResponse	0	0.29	n/a	3	63	ButtonPress	AvoidedLoss	True
601.498	0.22	Lose2	0.6562	n/a	Yes	2.633	n/a	n/a	GoodResponse	0	n/a	n/a	3	63	Blank	AvoidedLoss	True
601.715	1.45	Lose2	0.6562	n/a	Yes	2.633	n/a	5.0	GoodResponse	0	0.011	600.726	3	63	Feedback	AvoidedLoss	True
603.165	2.633	Lose2	0.6562	n/a	Yes	2.633	n/a	n/a	GoodResponse	0	0.0	n/a	3	63	ISIslide	AvoidedLoss	True
605.814	0.25	Win2	0.6615000000000001	0.0	Yes	3.136	0.014	n/a	GoodResponse	1	n/a	n/a	4	64	Cue	Win	False
606.063	4.15	Win2	0.6615000000000001	0.001	Yes	3.136	-0.001	2.0	GoodResponse	1	2.838	607.901	4	64	Fixation	Win	False
608.901	0.3	Win2	0.6615000000000001	0.001	Yes	3.136	-0.001	2.0	GoodResponse	1	2.838	n/a	4	64	ButtonPress	Win	False
610.212	0.48	Win2	0.6615000000000001	0.002	Yes	3.136	-0.002	2.0	GoodResponse	1	0.222	609.434	4	64	Target	Win	False
610.434	0.3	Win2	0.6615000000000001	0.002	Yes	3.136	-0.002	2.0	GoodResponse	1	0.222	n/a	4	64	ButtonPress	Win	False
610.695	0.22	Win2	0.6615000000000001	n/a	Yes	3.136	n/a	n/a	GoodResponse	1	n/a	n/a	4	64	Blank	Win	False
610.912	1.45	Win2	0.6615000000000001	n/a	Yes	3.136	n/a	5.0	GoodResponse	1	0.033	609.945	4	64	Feedback	Win	False
612.361	3.136	Win2	0.6615000000000001	n/a	Yes	3.136	n/a	n/a	GoodResponse	1	0.0	n/a	4	64	ISIslide	Win	False
615.527	0.25	Control	0.6667000000000001	0.0	Yes	2.773	0.027	n/a	GoodResponse	0	n/a	n/a	4	65	Cue	Neutral	True
615.777	4.0	Control	0.6667000000000001	0.0	Yes	2.773	0.0	n/a	GoodResponse	0	n/a	n/a	4	65	Fixation	Neutral	True
619.775	0.48	Control	0.6667000000000001	0.002	Yes	2.773	-0.002	2.0	GoodResponse	0	0.385	619.16	4	65	Target	Neutral	True
620.16	0.3	Control	0.6667000000000001	0.002	Yes	2.773	-0.002	2.0	GoodResponse	0	0.385	n/a	4	65	ButtonPress	Neutral	True
620.258	0.22	Control	0.6667000000000001	n/a	Yes	2.773	n/a	n/a	GoodResponse	0	n/a	n/a	4	65	Blank	Neutral	True
620.475	1.45	Control	0.6667000000000001	n/a	Yes	2.773	n/a	5.0	GoodResponse	0	0.031	619.506	4	65	Feedback	Neutral	True
621.924	2.773	Control	0.6667000000000001	n/a	Yes	2.773	n/a	n/a	GoodResponse	0	0.0	n/a	4	65	ISIslide	Neutral	True
624.724	0.25	Win2	0.6716	0.0	Yes	2.776	0.024	n/a	GoodResponse	1	n/a	n/a	5	66	Cue	Win	True
624.973	3.9	Win2	0.6716	0.001	Yes	2.776	-0.001	n/a	GoodResponse	1	n/a	n/a	5	66	Fixation	Win	True
628.872	0.47	Win2	0.6716	0.002	Yes	2.776	-0.002	2.0	GoodResponse	1	0.213	628.085	5	66	Target	Win	True
629.085	0.3	Win2	0.6716	0.002	Yes	2.776	-0.002	2.0	GoodResponse	1	0.213	n/a	5	66	ButtonPress	Win	True
629.355	0.23	Win2	0.6716	n/a	Yes	2.776	n/a	n/a	GoodResponse	1	n/a	n/a	5	66	Blank	Win	True
629.572	1.45	Win2	0.6716	n/a	Yes	2.776	n/a	5.0	GoodResponse	1	0.007	628.579	5	66	Feedback	Win	True
631.021	2.776	Win2	0.6716	n/a	Yes	2.776	n/a	n/a	GoodResponse	1	0.0	n/a	5	66	ISIslide	Win	True
633.82	0.25	Control	0.6765000000000001	0.0	Yes	2.73	0.02	n/a	GoodResponse	0	n/a	n/a	5	67	Cue	Neutral	True
634.07	3.95	Control	0.6765000000000001	0.0	Yes	2.73	0.0	n/a	GoodResponse	0	n/a	n/a	5	67	Fixation	Neutral	True
638.019	0.46	Control	0.6765000000000001	0.001	Yes	2.73	-0.001	2.0	GoodResponse	0	0.22	637.239	5	67	Target	Neutral	True
638.239	0.3	Control	0.6765000000000001	0.001	Yes	2.73	-0.001	2.0	GoodResponse	0	0.22	n/a	5	67	ButtonPress	Neutral	True
638.485	0.24	Control	0.6765000000000001	n/a	Yes	2.73	n/a	n/a	GoodResponse	0	n/a	n/a	5	67	Blank	Neutral	True
638.719	1.45	Control	0.6765000000000001	n/a	Yes	2.73	n/a	5.0	GoodResponse	0	0.031	637.75	5	67	Feedback	Neutral	True
640.168	2.73	Control	0.6765000000000001	n/a	Yes	2.73	n/a	n/a	GoodResponse	0	0.0	n/a	5	67	ISIslide	Neutral	True
642.917	0.25	Win2	0.6812	0.0	Yes	3.083	0.017	n/a	GoodResponse	1	n/a	n/a	6	68	Cue	Win	False
643.167	4.0	Win2	0.6812	0.0	Yes	3.083	0.0	2.0	GoodResponse	1	3.498	645.665	6	68	Fixation	Win	False
646.665	0.3	Win2	0.6812	0.0	Yes	3.083	0.0	2.0	GoodResponse	1	3.498	n/a	6	68	ButtonPress	Win	False
647.166	0.45	Win2	0.6812	0.001	Yes	3.083	-0.001	2.0	GoodResponse	1	0.238	646.404	6	68	Target	Win	False
647.404	0.3	Win2	0.6812	0.001	Yes	3.083	-0.001	2.0	GoodResponse	1	0.238	n/a	6	68	ButtonPress	Win	False
647.615	0.25	Win2	0.6812	n/a	Yes	3.083	n/a	n/a	GoodResponse	1	n/a	n/a	6	68	Blank	Win	False
647.865	1.45	Win2	0.6812	n/a	Yes	3.083	n/a	5.0	GoodResponse	1	0.007	646.872	6	68	Feedback	Win	False
649.315	3.083	Win2	0.6812	n/a	Yes	3.083	n/a	n/a	GoodResponse	1	0.0	n/a	6	68	ISIslide	Win	False
652.414	0.25	Win2	0.6714	0.0	No	3.236	0.014	n/a	NoResponse	0	n/a	n/a	6	69	Cue	MissedWin	False
652.664	3.95	Win2	0.6714	0.0	No	3.236	0.0	n/a	NoResponse	0	n/a	n/a	6	69	Fixation	MissedWin	False
656.612	0.44	Win2	0.6714	0.002	No	3.236	-0.002	n/a	NoResponse	0	n/a	n/a	6	69	Target	MissedWin	False
657.062	0.26	Win2	0.6714	n/a	No	3.236	n/a	n/a	NoResponse	0	n/a	n/a	6	69	Blank	MissedWin	False
657.312	1.45	Win2	0.6714	n/a	No	3.236	n/a	5.0	NoResponse	0	0.023	656.335	6	69	Feedback	MissedWin	False
658.761	3.236	Win2	0.6714	n/a	No	3.236	n/a	n/a	NoResponse	0	0.0	n/a	6	69	ISIslide	MissedWin	False
662.027	0.25	Lose2	0.6761	0.0	Yes	3.023	0.027	n/a	GoodResponse	0	n/a	n/a	6	70	Cue	AvoidedLoss	True
662.277	4.05	Lose2	0.6761	0.0	Yes	3.023	0.0	n/a	GoodResponse	0	n/a	n/a	6	70	Fixation	AvoidedLoss	True
666.325	0.43	Lose2	0.6761	0.002	Yes	3.023	-0.002	2.0	GoodResponse	0	0.235	665.56	6	70	Target	AvoidedLoss	True
666.56	0.3	Lose2	0.6761	0.002	Yes	3.023	-0.002	2.0	GoodResponse	0	0.235	n/a	6	70	ButtonPress	AvoidedLoss	True
666.759	0.27	Lose2	0.6761	n/a	Yes	3.023	n/a	n/a	GoodResponse	0	n/a	n/a	6	70	Blank	AvoidedLoss	True
667.025	1.45	Lose2	0.6761	n/a	Yes	3.023	n/a	5.0	GoodResponse	0	0.017	666.042	6	70	Feedback	AvoidedLoss	True
668.475	3.023	Lose2	0.6761	n/a	Yes	3.023	n/a	n/a	GoodResponse	0	0.0	n/a	6	70	ISIslide	AvoidedLoss	True
671.524	0.25	Win2	0.6806	0.0	Yes	2.726	0.024	n/a	GoodResponse	1	n/a	n/a	7	71	Cue	Win	True
671.773	4.05	Win2	0.6806	0.001	Yes	2.726	-0.001	n/a	GoodResponse	1	n/a	n/a	7	71	Fixation	Win	True
675.822	0.42	Win2	0.6806	0.002	Yes	2.726	-0.002	2.0	GoodResponse	1	0.294	675.116	7	71	Target	Win	True
676.116	0.3	Win2	0.6806	0.002	Yes	2.726	-0.002	2.0	GoodResponse	1	0.294	n/a	7	71	ButtonPress	Win	True
676.255	0.28	Win2	0.6806	n/a	Yes	2.726	n/a	n/a	GoodResponse	1	n/a	n/a	7	71	Blank	Win	True
676.522	1.45	Win2	0.6806	n/a	Yes	2.726	n/a	5.0	GoodResponse	1	0.032	675.554	7	71	Feedback	Win	True
677.971	2.726	Win2	0.6806	n/a	Yes	2.726	n/a	n/a	GoodResponse	1	0.0	n/a	7	71	ISIslide	Win	True
680.72	0.25	Win2	0.6849	0.0	Yes	2.78	0.02	n/a	GoodResponse	1	n/a	n/a	8	72	Cue	Win	True
680.97	4.1	Win2	0.6849	0.0	Yes	2.78	0.0	n/a	GoodResponse	1	n/a	n/a	8	72	Fixation	Win	True
685.069	0.41	Win2	0.6849	0.001	Yes	2.78	-0.001	2.0	GoodResponse	1	0.261	684.33	8	72	Target	Win	True
685.33	0.3	Win2	0.6849	0.001	Yes	2.78	-0.001	2.0	GoodResponse	1	0.261	n/a	8	72	ButtonPress	Win	True
685.485	0.29	Win2	0.6849	n/a	Yes	2.78	n/a	n/a	GoodResponse	1	n/a	n/a	8	72	Blank	Win	True
685.768	1.45	Win2	0.6849	n/a	Yes	2.78	n/a	5.0	GoodResponse	1	0.005	684.773	8	72	Feedback	Win	True
687.218	2.78	Win2	0.6849	n/a	Yes	2.78	n/a	n/a	GoodResponse	1	0.0	n/a	8	72	ISIslide	Win	True
690.017	0.25	Win2	0.6892	0.0	Yes	2.683	0.017	n/a	GoodResponse	1	n/a	n/a	9	73	Cue	Win	True
690.267	4.0	Win2	0.6892	0.0	Yes	2.683	0.0	n/a	GoodResponse	1	n/a	n/a	9	73	Fixation	Win	True
694.265	0.4	Win2	0.6892	0.002	Yes	2.683	-0.002	2.0	GoodResponse	1	0.317	693.582	9	73	Target	Win	True
694.582	0.3	Win2	0.6892	0.002	Yes	2.683	-0.002	2.0	GoodResponse	1	0.317	n/a	9	73	ButtonPress	Win	True
694.665	0.3	Win2	0.6892	n/a	Yes	2.683	n/a	n/a	GoodResponse	1	n/a	n/a	9	73	Blank	Win	True
694.965	1.45	Win2	0.6892	n/a	Yes	2.683	n/a	5.0	GoodResponse	1	0.028	693.993	9	73	Feedback	Win	True
696.415	2.683	Win2	0.6892	n/a	Yes	2.683	n/a	n/a	GoodResponse	1	0.0	n/a	9	73	ISIslide	Win	True
699.114	0.25	Lose2	0.6933	0.0	Yes	2.636	0.014	n/a	GoodResponse	0	n/a	n/a	9	74	Cue	AvoidedLoss	True
699.364	4.05	Lose2	0.6933	0.0	Yes	2.636	0.0	n/a	GoodResponse	0	n/a	n/a	9	74	Fixation	AvoidedLoss	True
703.412	0.39	Lose2	0.6933	0.002	Yes	2.636	-0.002	2.0	GoodResponse	0	0.233	702.645	9	74	Target	AvoidedLoss	True
703.645	0.3	Lose2	0.6933	0.002	Yes	2.636	-0.002	2.0	GoodResponse	0	0.233	n/a	9	74	ButtonPress	AvoidedLoss	True
703.812	0.31	Lose2	0.6933	n/a	Yes	2.636	n/a	n/a	GoodResponse	0	n/a	n/a	9	74	Blank	AvoidedLoss	True
704.112	1.45	Lose2	0.6933	n/a	Yes	2.636	n/a	5.0	GoodResponse	0	0.004	703.116	9	74	Feedback	AvoidedLoss	True
705.561	2.636	Lose2	0.6933	n/a	Yes	2.636	n/a	n/a	GoodResponse	0	0.0	n/a	9	74	ISIslide	AvoidedLoss	True
708.227	0.25	Lose2	0.6973999999999999	0.0	Yes	2.923	0.027	n/a	GoodResponse	0	n/a	n/a	9	75	Cue	AvoidedLoss	True
708.477	3.95	Lose2	0.6973999999999999	0.0	Yes	2.923	0.0	n/a	GoodResponse	0	n/a	n/a	9	75	Fixation	AvoidedLoss	True
712.426	0.38	Lose2	0.6973999999999999	0.001	Yes	2.923	-0.001	2.0	GoodResponse	0	0.347	711.773	9	75	Target	AvoidedLoss	True
712.773	0.3	Lose2	0.6973999999999999	0.001	Yes	2.923	-0.001	2.0	GoodResponse	0	0.347	n/a	9	75	ButtonPress	AvoidedLoss	True
712.809	0.32	Lose2	0.6973999999999999	n/a	Yes	2.923	n/a	n/a	GoodResponse	0	n/a	n/a	9	75	Blank	AvoidedLoss	True
713.125	1.45	Lose2	0.6973999999999999	n/a	Yes	2.923	n/a	5.0	GoodResponse	0	0.014	712.139	9	75	Feedback	AvoidedLoss	True
714.575	2.923	Lose2	0.6973999999999999	n/a	Yes	2.923	n/a	n/a	GoodResponse	0	0.0	n/a	9	75	ISIslide	AvoidedLoss	True
717.524	0.25	Control	0.7012999999999999	0.0	Yes	3.226	0.024	n/a	GoodResponse	0	n/a	n/a	9	76	Cue	Neutral	False
717.774	4.05	Control	0.7012999999999999	0.0	Yes	3.226	0.0	2.0	GoodResponse	0	2.898	719.672	9	76	Fixation	Neutral	False
720.672	0.3	Control	0.7012999999999999	0.0	Yes	3.226	0.0	2.0	GoodResponse	0	2.898	n/a	9	76	ButtonPress	Neutral	False
721.822	0.37	Control	0.7012999999999999	0.002	Yes	3.226	-0.002	2.0	GoodResponse	0	0.264	721.086	9	76	Target	Neutral	False
722.086	0.3	Control	0.7012999999999999	0.002	Yes	3.226	-0.002	2.0	GoodResponse	0	0.264	n/a	9	76	ButtonPress	Neutral	False
722.205	0.33	Control	0.7012999999999999	n/a	Yes	3.226	n/a	n/a	GoodResponse	0	n/a	n/a	9	76	Blank	Neutral	False
722.522	1.45	Control	0.7012999999999999	n/a	Yes	3.226	n/a	5.0	GoodResponse	0	0.031	721.553	9	76	Feedback	Neutral	False
723.972	3.226	Control	0.7012999999999999	n/a	Yes	3.226	n/a	n/a	GoodResponse	0	0.0	n/a	9	76	ISIslide	Neutral	False
727.22	0.25	Lose2	0.6923	0.0	No	2.58	0.02	n/a	NoResponse	-1	n/a	n/a	8	77	Cue	Loss	False
727.47	3.95	Lose2	0.6923	0.0	No	2.58	0.0	n/a	NoResponse	-1	n/a	n/a	8	77	Fixation	Loss	False
731.419	0.36	Lose2	0.6923	0.001	No	2.58	-0.001	n/a	NoResponse	-1	n/a	n/a	8	77	Target	Loss	False
731.785	0.34	Lose2	0.6923	n/a	No	2.58	n/a	n/a	NoResponse	-1	n/a	n/a	8	77	Blank	Loss	False
732.119	1.45	Lose2	0.6923	n/a	No	2.58	n/a	5.0	NoResponse	-1	0.044	731.163	8	77	Feedback	Loss	False
733.568	2.58	Lose2	0.6923	n/a	No	2.58	n/a	n/a	NoResponse	-1	0.0	n/a	8	77	ISIslide	Loss	False
