onset	duration	cue_type	current_mean_accuracy	duration_error	is_hit	isi_adjusted	onset_delay	response	response_type	reward	rt	rt_time	total_reward	trial_number	trial_phase	trial_type	one_press
11.11	0.25	Control	1.0	0.0	Yes	2.94	0.01	n/a	GoodResponse	0	n/a	n/a	0	0	Cue	Neutral	True
11.361	3.85	Control	1.0	0.0	Yes	2.94	0.001	n/a	GoodResponse	0	n/a	n/a	0	0	Fixation	Neutral	True
15.222	0.4	Control	1.0	0.0	Yes	2.94	0.012	2.0	GoodResponse	0	0.343	14.565	0	0	Target	Neutral	True
15.565	0.3	Control	1.0	0.0	Yes	2.94	0.012	2.0	GoodResponse	0	0.343	n/a	0	0	ButtonPress	Neutral	True
15.607	0.3	Control	1.0	n/a	Yes	2.94	n/a	n/a	GoodResponse	0	n/a	n/a	0	0	Blank	Neutral	True
15.908	1.45	Control	1.0	n/a	Yes	2.94	n/a	5.0	GoodResponse	0	0.018	14.926	0	0	Feedback	Neutral	True
17.362	2.94	Control	1.0	n/a	Yes	2.94	n/a	n/a	GoodResponse	0	0.0	n/a	0	0	ISIslide	Neutral	True
20.321	0.25	Lose2	0.5	0.0	No	2.779	0.021	n/a	NoResponse	-1	n/a	n/a	-1	1	Cue	Loss	False
20.572	4.0	Lose2	0.5	0.0	No	2.779	0.001	n/a	NoResponse	-1	n/a	n/a	-1	1	Fixation	Loss	False
24.567	0.39	Lose2	0.5	0.004	No	2.779	-0.004	n/a	NoResponse	-1	n/a	n/a	-1	1	Target	Loss	False
24.968	0.31	Lose2	0.5	n/a	No	2.779	n/a	n/a	NoResponse	-1	n/a	n/a	-1	1	Blank	Loss	False
25.269	1.45	Lose2	0.5	n/a	No	2.779	n/a	5.0	NoResponse	-1	0.023	24.292	-1	1	Feedback	Loss	False
26.723	2.779	Lose2	0.5	n/a	No	2.779	n/a	n/a	NoResponse	-1	0.0	n/a	-1	1	ISIslide	Loss	False
29.515	0.25	Control	0.3333	0.0	No	2.585	0.015	n/a	NoResponse	0	n/a	n/a	-1	2	Cue	Neutral	False
29.766	4.1	Control	0.3333	0.0	No	2.585	0.001	n/a	NoResponse	0	n/a	n/a	-1	2	Fixation	Neutral	False
33.861	0.4	Control	0.3333	0.004	No	2.585	-0.004	n/a	NoResponse	0	n/a	n/a	-1	2	Target	Neutral	False
34.263	0.3	Control	0.3333	n/a	No	2.585	n/a	n/a	NoResponse	0	n/a	n/a	-1	2	Blank	Neutral	False
34.563	1.45	Control	0.3333	n/a	No	2.585	n/a	5.0	NoResponse	0	0.046	33.609	-1	2	Feedback	Neutral	False
36.018	2.585	Control	0.3333	n/a	No	2.585	n/a	n/a	NoResponse	0	0.0	n/a	-1	2	ISIslide	Neutral	False
38.626	0.25	Win2	0.5	0.0	Yes	2.824	0.026	n/a	GoodResponse	1	n/a	n/a	0	3	Cue	Win	False
38.876	3.95	Win2	0.5	0.0	Yes	2.824	0.0	2.0	GoodResponse	1	3.217	41.093	0	3	Fixation	Win	False
42.093	0.3	Win2	0.5	0.0	Yes	2.824	0.0	2.0	GoodResponse	1	3.217	n/a	0	3	ButtonPress	Win	False
42.838	0.41	Win2	0.5	0.0	Yes	2.824	0.012	2.0	GoodResponse	1	0.25	42.088	0	3	Target	Win	False
43.088	0.3	Win2	0.5	0.0	Yes	2.824	0.012	2.0	GoodResponse	1	0.25	n/a	0	3	ButtonPress	Win	False
43.239	0.29	Win2	0.5	n/a	Yes	2.824	n/a	n/a	GoodResponse	1	n/a	n/a	0	3	Blank	Win	False
43.524	1.45	Win2	0.5	n/a	Yes	2.824	n/a	5.0	GoodResponse	1	0.012	42.536	0	3	Feedback	Win	False
44.978	2.824	Win2	0.5	n/a	Yes	2.824	n/a	n/a	GoodResponse	1	0.0	n/a	0	3	ISIslide	Win	False
47.82	0.25	Win2	0.6	0.0	Yes	3.28	0.02	n/a	GoodResponse	1	n/a	n/a	1	4	Cue	Win	True
48.071	4.0	Win2	0.6	0.0	Yes	3.28	0.001	n/a	GoodResponse	1	n/a	n/a	1	4	Fixation	Win	True
52.066	0.42	Win2	0.6	0.004	Yes	3.28	-0.004	2.0	GoodResponse	1	0.195	51.261	1	4	Target	Win	True
52.261	0.3	Win2	0.6	0.004	Yes	3.28	-0.004	2.0	GoodResponse	1	0.195	n/a	1	4	ButtonPress	Win	True
52.5	0.28	Win2	0.6	n/a	Yes	3.28	n/a	n/a	GoodResponse	1	n/a	n/a	1	4	Blank	Win	True
52.768	1.45	Win2	0.6	n/a	Yes	3.28	n/a	5.0	GoodResponse	1	0.036	51.804	1	4	Feedback	Win	True
54.222	3.28	Win2	0.6	n/a	Yes	3.28	n/a	n/a	GoodResponse	1	0.0	n/a	1	4	ISIslide	Win	True
57.515	0.25	Win2	0.6667000000000001	0.001	Yes	2.785	0.015	n/a	GoodResponse	1	n/a	n/a	2	5	Cue	Win	True
57.766	4.0	Win2	0.6667000000000001	0.0	Yes	2.785	0.001	n/a	GoodResponse	1	n/a	n/a	2	5	Fixation	Win	True
61.761	0.43	Win2	0.6667000000000001	0.004	Yes	2.785	-0.004	2.0	GoodResponse	1	0.23	60.991	2	5	Target	Win	True
61.991	0.3	Win2	0.6667000000000001	0.004	Yes	2.785	-0.004	2.0	GoodResponse	1	0.23	n/a	2	5	ButtonPress	Win	True
62.196	0.27	Win2	0.6667000000000001	n/a	Yes	2.785	n/a	n/a	GoodResponse	1	n/a	n/a	2	5	Blank	Win	True
62.464	1.45	Win2	0.6667000000000001	n/a	Yes	2.785	n/a	5.0	GoodResponse	1	0.047	61.511	2	5	Feedback	Win	True
63.918	2.785	Win2	0.6667000000000001	n/a	Yes	2.785	n/a	n/a	GoodResponse	1	0.0	n/a	2	5	ISIslide	Win	True
66.726	0.25	Lose2	0.7143	0.0	Yes	2.724	0.026	n/a	GoodResponse	0	n/a	n/a	2	6	Cue	AvoidedLoss	True
66.977	3.95	Lose2	0.7143	0.0	Yes	2.724	0.001	n/a	GoodResponse	0	n/a	n/a	2	6	Fixation	AvoidedLoss	True
70.922	0.42	Lose2	0.7143	0.004	Yes	2.724	-0.004	2.0	GoodResponse	0	0.205	70.127	2	6	Target	AvoidedLoss	True
71.127	0.3	Lose2	0.7143	0.004	Yes	2.724	-0.004	2.0	GoodResponse	0	0.205	n/a	2	6	ButtonPress	AvoidedLoss	True
71.357	0.28	Lose2	0.7143	n/a	Yes	2.724	n/a	n/a	GoodResponse	0	n/a	n/a	2	6	Blank	AvoidedLoss	True
71.624	1.45	Lose2	0.7143	n/a	Yes	2.724	n/a	5.0	GoodResponse	0	0.009	70.633	2	6	Feedback	AvoidedLoss	True
73.079	2.724	Lose2	0.7143	n/a	Yes	2.724	n/a	n/a	GoodResponse	0	0.0	n/a	2	6	ISIslide	AvoidedLoss	True
75.82	0.25	Lose2	0.75	0.0	Yes	4.03	0.02	n/a	GoodResponse	0	n/a	n/a	2	7	Cue	AvoidedLoss	True
76.071	4.05	Lose2	0.75	0.0	Yes	4.03	0.001	n/a	GoodResponse	0	n/a	n/a	2	7	Fixation	AvoidedLoss	True
80.116	0.41	Lose2	0.75	0.004	Yes	4.03	-0.004	2.0	GoodResponse	0	0.201	79.317	2	7	Target	AvoidedLoss	True
80.317	0.3	Lose2	0.75	0.004	Yes	4.03	-0.004	2.0	GoodResponse	0	0.201	n/a	2	7	ButtonPress	AvoidedLoss	True
80.534	0.29	Lose2	0.75	n/a	Yes	4.03	n/a	n/a	GoodResponse	0	n/a	n/a	2	7	Blank	AvoidedLoss	True
80.819	1.45	Lose2	0.75	n/a	Yes	4.03	n/a	5.0	GoodResponse	0	0.033	79.852	2	7	Feedback	AvoidedLoss	True
82.273	4.03	Lose2	0.75	n/a	Yes	4.03	n/a	n/a	GoodResponse	0	0.0	n/a	2	7	ISIslide	AvoidedLoss	True
86.318	0.25	Lose2	0.7778	0.0	Yes	3.032	0.018	n/a	GoodResponse	0	n/a	n/a	2	8	Cue	AvoidedLoss	True
86.569	3.95	Lose2	0.7778	0.0	Yes	3.032	0.001	n/a	GoodResponse	0	n/a	n/a	2	8	Fixation	AvoidedLoss	True
90.514	0.4	Lose2	0.7778	0.004	Yes	3.032	-0.004	2.0	GoodResponse	0	0.226	89.74	2	8	Target	AvoidedLoss	True
90.74	0.3	Lose2	0.7778	0.004	Yes	3.032	-0.004	2.0	GoodResponse	0	0.226	n/a	2	8	ButtonPress	AvoidedLoss	True
90.915	0.3	Lose2	0.7778	n/a	Yes	3.032	n/a	n/a	GoodResponse	0	n/a	n/a	2	8	Blank	AvoidedLoss	True
91.216	1.45	Lose2	0.7778	n/a	Yes	3.032	n/a	5.0	GoodResponse	0	0.027	90.243	2	8	Feedback	AvoidedLoss	True
92.671	3.032	Lose2	0.7778	n/a	Yes	3.032	n/a	n/a	GoodResponse	0	0.0	n/a	2	8	ISIslide	AvoidedLoss	True
95.73	0.25	Lose2	0.8	0.0	Yes	3.12	0.03	n/a	GoodResponse	0	n/a	n/a	2	9	Cue	AvoidedLoss	True
95.981	3.95	Lose2	0.8	0.0	Yes	3.12	0.001	n/a	GoodResponse	0	n/a	n/a	2	9	Fixation	AvoidedLoss	True
99.926	0.39	Lose2	0.8	0.004	Yes	3.12	-0.004	2.0	GoodResponse	0	0.208	99.134	2	9	Target	AvoidedLoss	True
100.134	0.3	Lose2	0.8	0.004	Yes	3.12	-0.004	2.0	GoodResponse	0	0.208	n/a	2	9	ButtonPress	AvoidedLoss	True
100.327	0.31	Lose2	0.8	n/a	Yes	3.12	n/a	n/a	GoodResponse	0	n/a	n/a	2	9	Blank	AvoidedLoss	True
100.628	1.45	Lose2	0.8	n/a	Yes	3.12	n/a	5.0	GoodResponse	0	0.029	99.657	2	9	Feedback	AvoidedLoss	True
102.082	3.12	Lose2	0.8	n/a	Yes	3.12	n/a	n/a	GoodResponse	0	0.0	n/a	2	9	ISIslide	AvoidedLoss	True
105.225	0.25	Control	0.7273000000000001	0.0	No	3.275	0.025	n/a	NoResponse	0	n/a	n/a	2	10	Cue	Neutral	False
105.476	4.0	Control	0.7273000000000001	0.0	No	3.275	0.001	n/a	NoResponse	0	n/a	n/a	2	10	Fixation	Neutral	False
109.471	0.38	Control	0.7273000000000001	0.004	No	3.275	-0.004	n/a	NoResponse	0	n/a	n/a	2	10	Target	Neutral	False
109.855	0.32	Control	0.7273000000000001	n/a	No	3.275	n/a	n/a	NoResponse	0	n/a	n/a	2	10	Blank	Neutral	False
110.173	1.45	Control	0.7273000000000001	n/a	No	3.275	n/a	5.0	NoResponse	0	0.045	109.218	2	10	Feedback	Neutral	False
111.627	3.275	Control	0.7273000000000001	n/a	No	3.275	n/a	n/a	NoResponse	0	0.0	n/a	2	10	ISIslide	Neutral	False
114.921	0.25	Lose2	0.75	0.0	Yes	2.729	0.021	n/a	GoodResponse	0	n/a	n/a	2	11	Cue	AvoidedLoss	True
115.171	4.05	Lose2	0.75	0.0	Yes	2.729	0.0	n/a	GoodResponse	0	n/a	n/a	2	11	Fixation	AvoidedLoss	True
119.217	0.37	Lose2	0.75	0.004	Yes	2.729	-0.004	2.0	GoodResponse	0	0.201	118.418	2	11	Target	AvoidedLoss	True
119.418	0.3	Lose2	0.75	0.004	Yes	2.729	-0.004	2.0	GoodResponse	0	0.201	n/a	2	11	ButtonPress	AvoidedLoss	True
119.601	0.33	Lose2	0.75	n/a	Yes	2.729	n/a	n/a	GoodResponse	0	n/a	n/a	2	11	Blank	AvoidedLoss	True
119.919	1.45	Lose2	0.75	n/a	Yes	2.729	n/a	5.0	GoodResponse	0	0.006	118.925	2	11	Feedback	AvoidedLoss	True
121.373	2.729	Lose2	0.75	n/a	Yes	2.729	n/a	n/a	GoodResponse	0	0.0	n/a	2	11	ISIslide	AvoidedLoss	True
124.115	0.25	Control	0.6923	0.0	No	2.985	0.015	n/a	NoResponse	0	n/a	n/a	2	12	Cue	Neutral	False
124.366	3.9	Control	0.6923	0.0	No	2.985	0.001	n/a	NoResponse	0	n/a	n/a	2	12	Fixation	Neutral	False
128.261	0.36	Control	0.6923	0.004	No	2.985	-0.004	n/a	NoResponse	0	n/a	n/a	2	12	Target	Neutral	False
128.628	0.34	Control	0.6923	n/a	No	2.985	n/a	n/a	NoResponse	0	n/a	n/a	2	12	Blank	Neutral	False
128.963	1.45	Control	0.6923	n/a	No	2.985	n/a	5.0	NoResponse	0	0.035	127.998	2	12	Feedback	Neutral	False
130.417	2.985	Control	0.6923	n/a	No	2.985	n/a	n/a	NoResponse	0	0.0	n/a	2	12	ISIslide	Neutral	False
133.426	0.25	Control	0.6429	0.0	No	2.774	0.026	n/a	NoResponse	0	n/a	n/a	2	13	Cue	Neutral	False
133.677	4.0	Control	0.6429	0.0	No	2.774	0.001	n/a	NoResponse	0	n/a	n/a	2	13	Fixation	Neutral	False
137.672	0.35	Control	0.6429	0.004	No	2.774	-0.004	n/a	NoResponse	0	n/a	n/a	2	13	Target	Neutral	False
138.023	0.35	Control	0.6429	n/a	No	2.774	n/a	n/a	NoResponse	0	n/a	n/a	2	13	Blank	Neutral	False
138.374	1.45	Control	0.6429	n/a	No	2.774	n/a	5.0	NoResponse	0	0.039	137.413	2	13	Feedback	Neutral	False
139.829	2.774	Control	0.6429	n/a	No	2.774	n/a	n/a	NoResponse	0	0.0	n/a	2	13	ISIslide	Neutral	False
142.62	0.25	Win2	0.6667000000000001	0.0	Yes	2.68	0.02	n/a	GoodResponse	1	n/a	n/a	3	14	Cue	Win	True
142.871	4.1	Win2	0.6667000000000001	0.0	Yes	2.68	0.001	n/a	GoodResponse	1	n/a	n/a	3	14	Fixation	Win	True
146.967	0.36	Win2	0.6667000000000001	0.003	Yes	2.68	-0.003	2.0	GoodResponse	1	0.279	146.246	3	14	Target	Win	True
147.246	0.3	Win2	0.6667000000000001	0.003	Yes	2.68	-0.003	2.0	GoodResponse	1	0.279	n/a	3	14	ButtonPress	Win	True
147.334	0.34	Win2	0.6667000000000001	n/a	Yes	2.68	n/a	n/a	GoodResponse	1	n/a	n/a	3	14	Blank	Win	True
147.669	1.45	Win2	0.6667000000000001	n/a	Yes	2.68	n/a	5.0	GoodResponse	1	0.012	146.681	3	14	Feedback	Win	True
149.123	2.68	Win2	0.6667000000000001	n/a	Yes	2.68	n/a	n/a	GoodResponse	1	0.0	n/a	3	14	ISIslide	Win	True
151.814	0.25	Control	0.625	0.0	No	2.986	0.014	n/a	NoResponse	0	n/a	n/a	3	15	Cue	Neutral	False
152.065	4.0	Control	0.625	0.0	No	2.986	0.001	n/a	NoResponse	0	n/a	n/a	3	15	Fixation	Neutral	False
156.06	0.35	Control	0.625	0.004	No	2.986	-0.004	n/a	NoResponse	0	n/a	n/a	3	15	Target	Neutral	False
156.411	0.35	Control	0.625	n/a	No	2.986	n/a	n/a	NoResponse	0	n/a	n/a	3	15	Blank	Neutral	False
156.763	1.45	Control	0.625	n/a	No	2.986	n/a	5.0	NoResponse	0	0.04	155.803	3	15	Feedback	Neutral	False
158.217	2.986	Control	0.625	n/a	No	2.986	n/a	n/a	NoResponse	0	0.0	n/a	3	15	ISIslide	Neutral	False
161.226	0.25	Win2	0.6470999999999999	0.0	Yes	2.874	0.026	n/a	GoodResponse	1	n/a	n/a	4	16	Cue	Win	True
161.477	4.0	Win2	0.6470999999999999	0.0	Yes	2.874	0.001	n/a	GoodResponse	1	n/a	n/a	4	16	Fixation	Win	True
165.472	0.36	Win2	0.6470999999999999	0.004	Yes	2.874	-0.004	2.0	GoodResponse	1	0.211	164.683	4	16	Target	Win	True
165.683	0.3	Win2	0.6470999999999999	0.004	Yes	2.874	-0.004	2.0	GoodResponse	1	0.211	n/a	4	16	ButtonPress	Win	True
165.84	0.34	Win2	0.6470999999999999	n/a	Yes	2.874	n/a	n/a	GoodResponse	1	n/a	n/a	4	16	Blank	Win	True
166.174	1.45	Win2	0.6470999999999999	n/a	Yes	2.874	n/a	5.0	GoodResponse	1	0.043	165.217	4	16	Feedback	Win	True
167.628	2.874	Win2	0.6470999999999999	n/a	Yes	2.874	n/a	n/a	GoodResponse	1	0.0	n/a	4	16	ISIslide	Win	True
170.52	0.25	Lose2	0.6667000000000001	0.0	Yes	2.73	0.02	n/a	GoodResponse	0	n/a	n/a	4	17	Cue	AvoidedLoss	True
170.771	3.95	Lose2	0.6667000000000001	0.0	Yes	2.73	0.001	n/a	GoodResponse	0	n/a	n/a	4	17	Fixation	AvoidedLoss	True
174.716	0.37	Lose2	0.6667000000000001	0.004	Yes	2.73	-0.004	2.0	GoodResponse	0	0.324	174.04	4	17	Target	AvoidedLoss	True
175.04	0.3	Lose2	0.6667000000000001	0.004	Yes	2.73	-0.004	2.0	GoodResponse	0	0.324	n/a	4	17	ButtonPress	AvoidedLoss	True
175.101	0.33	Lose2	0.6667000000000001	n/a	Yes	2.73	n/a	n/a	GoodResponse	0	n/a	n/a	4	17	Blank	AvoidedLoss	True
175.418	1.45	Lose2	0.6667000000000001	n/a	Yes	2.73	n/a	5.0	GoodResponse	0	0.019	174.437	4	17	Feedback	AvoidedLoss	True
176.873	2.73	Lose2	0.6667000000000001	n/a	Yes	2.73	n/a	n/a	GoodResponse	0	0.0	n/a	4	17	ISIslide	AvoidedLoss	True
179.614	0.25	Lose2	0.6842	0.0	Yes	2.736	0.014	n/a	GoodResponse	0	n/a	n/a	4	18	Cue	AvoidedLoss	True
179.865	4.05	Lose2	0.6842	0.0	Yes	2.736	0.001	n/a	GoodResponse	0	n/a	n/a	4	18	Fixation	AvoidedLoss	True
183.91	0.36	Lose2	0.6842	0.004	Yes	2.736	-0.004	2.0	GoodResponse	0	0.286	183.196	4	18	Target	AvoidedLoss	True
184.196	0.3	Lose2	0.6842	0.004	Yes	2.736	-0.004	2.0	GoodResponse	0	0.286	n/a	4	18	ButtonPress	AvoidedLoss	True
184.278	0.34	Lose2	0.6842	n/a	Yes	2.736	n/a	n/a	GoodResponse	0	n/a	n/a	4	18	Blank	AvoidedLoss	True
184.613	1.45	Lose2	0.6842	n/a	Yes	2.736	n/a	5.0	GoodResponse	0	0.043	183.656	4	18	Feedback	AvoidedLoss	True
186.067	2.736	Lose2	0.6842	n/a	Yes	2.736	n/a	n/a	GoodResponse	0	0.0	n/a	4	18	ISIslide	AvoidedLoss	True
188.825	0.25	Control	0.65	0.0	No	2.925	0.025	n/a	NoResponse	0	n/a	n/a	4	19	Cue	Neutral	False
189.076	3.95	Control	0.65	0.0	No	2.925	0.001	n/a	NoResponse	0	n/a	n/a	4	19	Fixation	Neutral	False
193.021	0.35	Control	0.65	0.004	No	2.925	-0.004	n/a	NoResponse	0	n/a	n/a	4	19	Target	Neutral	False
193.372	0.35	Control	0.65	n/a	No	2.925	n/a	n/a	NoResponse	0	n/a	n/a	4	19	Blank	Neutral	False
193.723	1.45	Control	0.65	n/a	No	2.925	n/a	5.0	NoResponse	0	0.006	192.729	4	19	Feedback	Neutral	False
195.178	2.925	Control	0.65	n/a	No	2.925	n/a	n/a	NoResponse	0	0.0	n/a	4	19	ISIslide	Neutral	False
198.12	0.25	Control	0.619	0.0	No	2.63	0.02	n/a	NoResponse	0	n/a	n/a	4	20	Cue	Neutral	False
198.37	4.05	Control	0.619	0.001	No	2.63	0.0	n/a	NoResponse	0	n/a	n/a	4	20	Fixation	Neutral	False
202.416	0.36	Control	0.619	0.004	No	2.63	-0.004	n/a	NoResponse	0	n/a	n/a	4	20	Target	Neutral	False
202.784	0.34	Control	0.619	n/a	No	2.63	n/a	n/a	NoResponse	0	n/a	n/a	4	20	Blank	Neutral	False
203.118	1.45	Control	0.619	n/a	No	2.63	n/a	5.0	NoResponse	0	0.026	202.144	4	20	Feedback	Neutral	False
204.572	2.63	Control	0.619	n/a	No	2.63	n/a	n/a	NoResponse	0	0.0	n/a	4	20	ISIslide	Neutral	False
207.214	0.25	Control	0.5909	0.0	No	2.786	0.014	n/a	NoResponse	0	n/a	n/a	4	21	Cue	Neutral	False
207.464	4.1	Control	0.5909	0.0	No	2.786	0.0	n/a	NoResponse	0	n/a	n/a	4	21	Fixation	Neutral	False
211.56	0.37	Control	0.5909	0.004	No	2.786	-0.004	n/a	NoResponse	0	n/a	n/a	4	21	Target	Neutral	False
211.944	0.33	Control	0.5909	n/a	No	2.786	n/a	n/a	NoResponse	0	n/a	n/a	4	21	Blank	Neutral	False
212.262	1.45	Control	0.5909	n/a	No	2.786	n/a	5.0	NoResponse	0	0.005	211.267	4	21	Feedback	Neutral	False
213.716	2.786	Control	0.5909	n/a	No	2.786	n/a	n/a	NoResponse	0	0.0	n/a	4	21	ISIslide	Neutral	False
216.525	0.25	Control	0.5652	0.0	No	2.775	0.025	n/a	NoResponse	0	n/a	n/a	4	22	Cue	Neutral	False
216.776	4.0	Control	0.5652	0.0	No	2.775	0.001	n/a	NoResponse	0	n/a	n/a	4	22	Fixation	Neutral	False
220.771	0.38	Control	0.5652	0.004	No	2.775	-0.004	n/a	NoResponse	0	n/a	n/a	4	22	Target	Neutral	False
221.155	0.32	Control	0.5652	n/a	No	2.775	n/a	n/a	NoResponse	0	n/a	n/a	4	22	Blank	Neutral	False
221.473	1.45	Control	0.5652	n/a	No	2.775	n/a	5.0	NoResponse	0	0.012	220.485	4	22	Feedback	Neutral	False
222.927	2.775	Control	0.5652	n/a	No	2.775	n/a	n/a	NoResponse	0	0.0	n/a	4	22	ISIslide	Neutral	False
225.719	0.25	Control	0.5417000000000001	0.0	No	2.781	0.019	n/a	NoResponse	0	n/a	n/a	4	23	Cue	Neutral	False
225.97	3.9	Control	0.5417000000000001	0.0	No	2.781	0.001	n/a	NoResponse	0	n/a	n/a	4	23	Fixation	Neutral	False
229.865	0.39	Control	0.5417000000000001	0.004	No	2.781	-0.004	n/a	NoResponse	0	n/a	n/a	4	23	Target	Neutral	False
230.266	0.31	Control	0.5417000000000001	n/a	No	2.781	n/a	n/a	NoResponse	0	n/a	n/a	4	23	Blank	Neutral	False
230.567	1.45	Control	0.5417000000000001	n/a	No	2.781	n/a	5.0	NoResponse	0	0.04	229.607	4	23	Feedback	Neutral	False
232.021	2.781	Control	0.5417000000000001	n/a	No	2.781	n/a	n/a	NoResponse	0	0.0	n/a	4	23	ISIslide	Neutral	False
234.83	0.25	Win2	0.56	0.0	Yes	3.12	0.03	n/a	GoodResponse	1	n/a	n/a	5	24	Cue	Win	True
235.08	3.95	Win2	0.56	0.0	Yes	3.12	0.0	n/a	GoodResponse	1	n/a	n/a	5	24	Fixation	Win	True
239.042	0.4	Win2	0.56	0.0	Yes	3.12	0.012	2.0	GoodResponse	1	0.231	238.273	5	24	Target	Win	True
239.273	0.3	Win2	0.56	0.0	Yes	3.12	0.012	2.0	GoodResponse	1	0.231	n/a	5	24	ButtonPress	Win	True
239.427	0.3	Win2	0.56	n/a	Yes	3.12	n/a	n/a	GoodResponse	1	n/a	n/a	5	24	Blank	Win	True
239.728	1.45	Win2	0.56	n/a	Yes	3.12	n/a	5.0	GoodResponse	1	0.001	238.729	5	24	Feedback	Win	True
241.182	3.12	Win2	0.56	n/a	Yes	3.12	n/a	n/a	GoodResponse	1	0.0	n/a	5	24	ISIslide	Win	True
244.325	0.25	Win2	0.5769	0.0	Yes	3.075	0.025	n/a	GoodResponse	1	n/a	n/a	6	25	Cue	Win	True
244.575	4.0	Win2	0.5769	0.0	Yes	3.075	0.0	n/a	GoodResponse	1	n/a	n/a	6	25	Fixation	Win	True
248.571	0.41	Win2	0.5769	0.004	Yes	3.075	-0.004	2.0	GoodResponse	1	0.208	247.779	6	25	Target	Win	True
248.779	0.3	Win2	0.5769	0.004	Yes	3.075	-0.004	2.0	GoodResponse	1	0.208	n/a	6	25	ButtonPress	Win	True
248.989	0.29	Win2	0.5769	n/a	Yes	3.075	n/a	n/a	GoodResponse	1	n/a	n/a	6	25	Blank	Win	True
249.273	1.45	Win2	0.5769	n/a	Yes	3.075	n/a	5.0	GoodResponse	1	0.017	248.29	6	25	Feedback	Win	True
250.727	3.075	Win2	0.5769	n/a	Yes	3.075	n/a	n/a	GoodResponse	1	0.0	n/a	6	25	ISIslide	Win	True
253.82	0.25	Win2	0.5926	0.0	Yes	2.93	0.02	n/a	GoodResponse	1	n/a	n/a	7	26	Cue	Win	True
254.07	3.95	Win2	0.5926	0.001	Yes	2.93	0.0	n/a	GoodResponse	1	n/a	n/a	7	26	Fixation	Win	True
258.016	0.42	Win2	0.5926	0.004	Yes	2.93	-0.004	2.0	GoodResponse	1	0.231	257.247	7	26	Target	Win	True
258.247	0.3	Win2	0.5926	0.004	Yes	2.93	-0.004	2.0	GoodResponse	1	0.231	n/a	7	26	ButtonPress	Win	True
258.45	0.28	Win2	0.5926	n/a	Yes	2.93	n/a	n/a	GoodResponse	1	n/a	n/a	7	26	Blank	Win	True
258.718	1.45	Win2	0.5926	n/a	Yes	2.93	n/a	5.0	GoodResponse	1	0.036	257.754	7	26	Feedback	Win	True
260.172	2.93	Win2	0.5926	n/a	Yes	2.93	n/a	n/a	GoodResponse	1	0.0	n/a	7	26	ISIslide	Win	True
263.114	0.25	Lose2	0.6071	0.0	Yes	2.836	0.014	n/a	GoodResponse	0	n/a	n/a	7	27	Cue	AvoidedLoss	True
263.365	4.05	Lose2	0.6071	0.0	Yes	2.836	0.001	n/a	GoodResponse	0	n/a	n/a	7	27	Fixation	AvoidedLoss	True
267.41	0.43	Lose2	0.6071	0.004	Yes	2.836	-0.004	2.0	GoodResponse	0	0.216	266.626	7	27	Target	AvoidedLoss	True
267.626	0.3	Lose2	0.6071	0.004	Yes	2.836	-0.004	2.0	GoodResponse	0	0.216	n/a	7	27	ButtonPress	AvoidedLoss	True
267.845	0.27	Lose2	0.6071	n/a	Yes	2.836	n/a	n/a	GoodResponse	0	n/a	n/a	7	27	Blank	AvoidedLoss	True
268.113	1.45	Lose2	0.6071	n/a	Yes	2.836	n/a	5.0	GoodResponse	0	0.006	267.119	7	27	Feedback	AvoidedLoss	True
269.567	2.836	Lose2	0.6071	n/a	Yes	2.836	n/a	n/a	GoodResponse	0	0.0	n/a	7	27	ISIslide	AvoidedLoss	True
272.425	0.25	Control	0.5861999999999999	0.0	No	2.825	0.025	n/a	NoResponse	0	n/a	n/a	7	28	Cue	Neutral	False
272.676	4.05	Control	0.5861999999999999	0.0	No	2.825	0.001	n/a	NoResponse	0	n/a	n/a	7	28	Fixation	Neutral	False
276.722	0.44	Control	0.5861999999999999	0.003	No	2.825	-0.003	n/a	NoResponse	0	n/a	n/a	7	28	Target	Neutral	False
277.173	0.26	Control	0.5861999999999999	n/a	No	2.825	n/a	n/a	NoResponse	0	n/a	n/a	7	28	Blank	Neutral	False
277.424	1.45	Control	0.5861999999999999	n/a	No	2.825	n/a	5.0	NoResponse	0	0.012	276.436	7	28	Feedback	Neutral	False
278.878	2.825	Control	0.5861999999999999	n/a	No	2.825	n/a	n/a	NoResponse	0	0.0	n/a	7	28	ISIslide	Neutral	False
281.72	0.25	Lose2	0.6	0.0	Yes	2.83	0.02	n/a	GoodResponse	0	n/a	n/a	7	29	Cue	AvoidedLoss	True
281.971	3.95	Lose2	0.6	0.0	Yes	2.83	0.001	n/a	GoodResponse	0	n/a	n/a	7	29	Fixation	AvoidedLoss	True
285.916	0.45	Lose2	0.6	0.004	Yes	2.83	-0.004	2.0	GoodResponse	0	0.197	285.113	7	29	Target	AvoidedLoss	True
286.113	0.3	Lose2	0.6	0.004	Yes	2.83	-0.004	2.0	GoodResponse	0	0.197	n/a	7	29	ButtonPress	AvoidedLoss	True
286.367	0.25	Lose2	0.6	n/a	Yes	2.83	n/a	n/a	GoodResponse	0	n/a	n/a	7	29	Blank	AvoidedLoss	True
286.618	1.45	Lose2	0.6	n/a	Yes	2.83	n/a	5.0	GoodResponse	0	0.037	285.655	7	29	Feedback	AvoidedLoss	True
288.072	2.83	Lose2	0.6	n/a	Yes	2.83	n/a	n/a	GoodResponse	0	0.0	n/a	7	29	ISIslide	AvoidedLoss	True
290.931	0.25	Win2	0.6129	0.0	Yes	2.769	0.031	n/a	GoodResponse	1	n/a	n/a	8	30	Cue	Win	True
291.182	3.9	Win2	0.6129	0.0	Yes	2.769	0.001	n/a	GoodResponse	1	n/a	n/a	8	30	Fixation	Win	True
295.077	0.46	Win2	0.6129	0.004	Yes	2.769	-0.004	2.0	GoodResponse	1	0.212	294.289	8	30	Target	Win	True
295.289	0.3	Win2	0.6129	0.004	Yes	2.769	-0.004	2.0	GoodResponse	1	0.212	n/a	8	30	ButtonPress	Win	True
295.545	0.24	Win2	0.6129	n/a	Yes	2.769	n/a	n/a	GoodResponse	1	n/a	n/a	8	30	Blank	Win	True
295.779	1.45	Win2	0.6129	n/a	Yes	2.769	n/a	5.0	GoodResponse	1	0.047	294.826	8	30	Feedback	Win	True
297.233	2.769	Win2	0.6129	n/a	Yes	2.769	n/a	n/a	GoodResponse	1	0.0	n/a	8	30	ISIslide	Win	True
300.025	0.25	Lose2	0.625	0.0	Yes	2.825	0.025	n/a	GoodResponse	0	n/a	n/a	8	31	Cue	AvoidedLoss	True
300.275	4.05	Lose2	0.625	0.001	Yes	2.825	0.0	n/a	GoodResponse	0	n/a	n/a	8	31	Fixation	AvoidedLoss	True
304.321	0.47	Lose2	0.625	0.004	Yes	2.825	-0.004	2.0	GoodResponse	0	0.219	303.54	8	31	Target	AvoidedLoss	True
304.54	0.3	Lose2	0.625	0.004	Yes	2.825	-0.004	2.0	GoodResponse	0	0.219	n/a	8	31	ButtonPress	AvoidedLoss	True
304.806	0.23	Lose2	0.625	n/a	Yes	2.825	n/a	n/a	GoodResponse	0	n/a	n/a	8	31	Blank	AvoidedLoss	True
305.023	1.45	Lose2	0.625	n/a	Yes	2.825	n/a	5.0	GoodResponse	0	0.023	304.046	8	31	Feedback	AvoidedLoss	True
306.477	2.825	Lose2	0.625	n/a	Yes	2.825	n/a	n/a	GoodResponse	0	0.0	n/a	8	31	ISIslide	AvoidedLoss	True
309.319	0.25	Lose2	0.6364	0.0	Yes	2.631	0.019	n/a	GoodResponse	0	n/a	n/a	8	32	Cue	AvoidedLoss	True
309.57	4.15	Lose2	0.6364	0.0	Yes	2.631	0.001	n/a	GoodResponse	0	n/a	n/a	8	32	Fixation	AvoidedLoss	True
313.716	0.48	Lose2	0.6364	0.003	Yes	2.631	-0.003	2.0	GoodResponse	0	0.196	312.912	8	32	Target	AvoidedLoss	True
313.912	0.3	Lose2	0.6364	0.003	Yes	2.631	-0.003	2.0	GoodResponse	0	0.196	n/a	8	32	ButtonPress	AvoidedLoss	True
314.2	0.22	Lose2	0.6364	n/a	Yes	2.631	n/a	n/a	GoodResponse	0	n/a	n/a	8	32	Blank	AvoidedLoss	True
314.418	1.45	Lose2	0.6364	n/a	Yes	2.631	n/a	5.0	GoodResponse	0	0.041	313.459	8	32	Feedback	AvoidedLoss	True
315.872	2.631	Lose2	0.6364	n/a	Yes	2.631	n/a	n/a	GoodResponse	0	0.0	n/a	8	32	ISIslide	AvoidedLoss	True
318.53	0.25	Win2	0.6470999999999999	0.0	Yes	2.67	0.03	n/a	GoodResponse	1	n/a	n/a	9	33	Cue	Win	True
318.781	4.0	Win2	0.6470999999999999	0.0	Yes	2.67	0.001	n/a	GoodResponse	1	n/a	n/a	9	33	Fixation	Win	True
322.776	0.49	Win2	0.6470999999999999	0.004	Yes	2.67	-0.004	2.0	GoodResponse	1	0.282	322.058	9	33	Target	Win	True
323.058	0.3	Win2	0.6470999999999999	0.004	Yes	2.67	-0.004	2.0	GoodResponse	1	0.282	n/a	9	33	ButtonPress	Win	True
323.278	0.21	Win2	0.6470999999999999	n/a	Yes	2.67	n/a	n/a	GoodResponse	1	n/a	n/a	9	33	Blank	Win	True
323.478	1.45	Win2	0.6470999999999999	n/a	Yes	2.67	n/a	5.0	GoodResponse	1	0.008	322.486	9	33	Feedback	Win	True
324.933	2.67	Win2	0.6470999999999999	n/a	Yes	2.67	n/a	n/a	GoodResponse	1	0.0	n/a	9	33	ISIslide	Win	True
327.624	0.25	Lose2	0.6570999999999999	0.0	Yes	2.626	0.024	n/a	GoodResponse	0	n/a	n/a	9	34	Cue	AvoidedLoss	True
327.875	4.05	Lose2	0.6570999999999999	0.0	Yes	2.626	0.001	n/a	GoodResponse	0	n/a	n/a	9	34	Fixation	AvoidedLoss	True
331.92	0.5	Lose2	0.6570999999999999	0.004	Yes	2.626	-0.004	2.0	GoodResponse	0	0.228	331.148	9	34	Target	AvoidedLoss	True
332.148	0.3	Lose2	0.6570999999999999	0.004	Yes	2.626	-0.004	2.0	GoodResponse	0	0.228	n/a	9	34	ButtonPress	AvoidedLoss	True
332.422	0.2	Lose2	0.6570999999999999	n/a	Yes	2.626	n/a	n/a	GoodResponse	0	n/a	n/a	9	34	Blank	AvoidedLoss	True
332.622	1.45	Lose2	0.6570999999999999	n/a	Yes	2.626	n/a	5.0	GoodResponse	0	0.033	331.655	9	34	Feedback	AvoidedLoss	True
334.077	2.626	Lose2	0.6570999999999999	n/a	Yes	2.626	n/a	n/a	GoodResponse	0	0.0	n/a	9	34	ISIslide	AvoidedLoss	True
336.718	0.25	Lose2	0.6667000000000001	0.0	Yes	2.682	0.018	n/a	GoodResponse	0	n/a	n/a	9	35	Cue	AvoidedLoss	True
336.969	4.0	Lose2	0.6667000000000001	0.0	Yes	2.682	0.001	n/a	GoodResponse	0	n/a	n/a	9	35	Fixation	AvoidedLoss	True
340.964	0.5	Lose2	0.6667000000000001	0.004	Yes	2.682	-0.004	2.0	GoodResponse	0	0.213	340.177	9	35	Target	AvoidedLoss	True
341.177	0.3	Lose2	0.6667000000000001	0.004	Yes	2.682	-0.004	2.0	GoodResponse	0	0.213	n/a	9	35	ButtonPress	AvoidedLoss	True
341.465	0.2	Lose2	0.6667000000000001	n/a	Yes	2.682	n/a	n/a	GoodResponse	0	n/a	n/a	9	35	Blank	AvoidedLoss	True
341.666	1.45	Lose2	0.6667000000000001	n/a	Yes	2.682	n/a	5.0	GoodResponse	0	0.013	340.679	9	35	Feedback	AvoidedLoss	True
343.12	2.682	Lose2	0.6667000000000001	n/a	Yes	2.682	n/a	n/a	GoodResponse	0	0.0	n/a	9	35	ISIslide	AvoidedLoss	True
345.828	0.25	Control	0.6486	0.001	No	2.672	0.028	n/a	NoResponse	0	n/a	n/a	9	36	Cue	Neutral	False
346.079	4.0	Control	0.6486	0.0	No	2.672	0.001	n/a	NoResponse	0	n/a	n/a	9	36	Fixation	Neutral	False
350.075	0.49	Control	0.6486	0.003	No	2.672	-0.003	n/a	NoResponse	0	n/a	n/a	9	36	Target	Neutral	False
350.576	0.21	Control	0.6486	n/a	No	2.672	n/a	n/a	NoResponse	0	n/a	n/a	9	36	Blank	Neutral	False
350.777	1.45	Control	0.6486	n/a	No	2.672	n/a	5.0	NoResponse	0	0.024	349.801	9	36	Feedback	Neutral	False
352.231	2.672	Control	0.6486	n/a	No	2.672	n/a	n/a	NoResponse	0	0.0	n/a	9	36	ISIslide	Neutral	False
354.922	0.25	Win2	0.6579	0.0	Yes	2.878	0.022	n/a	GoodResponse	1	n/a	n/a	10	37	Cue	Win	True
355.173	4.0	Win2	0.6579	0.0	Yes	2.878	0.001	n/a	GoodResponse	1	n/a	n/a	10	37	Fixation	Win	True
359.168	0.5	Win2	0.6579	0.004	Yes	2.878	-0.004	2.0	GoodResponse	1	0.192	358.36	10	37	Target	Win	True
359.36	0.3	Win2	0.6579	0.004	Yes	2.878	-0.004	2.0	GoodResponse	1	0.192	n/a	10	37	ButtonPress	Win	True
359.67	0.2	Win2	0.6579	n/a	Yes	2.878	n/a	n/a	GoodResponse	1	n/a	n/a	10	37	Blank	Win	True
359.87	1.45	Win2	0.6579	n/a	Yes	2.878	n/a	5.0	GoodResponse	1	0.008	358.878	10	37	Feedback	Win	True
361.325	2.878	Win2	0.6579	n/a	Yes	2.878	n/a	n/a	GoodResponse	1	0.0	n/a	10	37	ISIslide	Win	True
364.217	0.25	Lose2	0.6667000000000001	0.0	Yes	2.833	0.017	n/a	GoodResponse	0	n/a	n/a	10	38	Cue	AvoidedLoss	True
364.468	3.95	Lose2	0.6667000000000001	0.0	Yes	2.833	0.001	n/a	GoodResponse	0	n/a	n/a	10	38	Fixation	AvoidedLoss	True
368.413	0.5	Lose2	0.6667000000000001	0.004	Yes	2.833	-0.004	2.0	GoodResponse	0	0.252	367.665	10	38	Target	AvoidedLoss	True
368.665	0.3	Lose2	0.6667000000000001	0.004	Yes	2.833	-0.004	2.0	GoodResponse	0	0.252	n/a	10	38	ButtonPress	AvoidedLoss	True
368.914	0.2	Lose2	0.6667000000000001	n/a	Yes	2.833	n/a	n/a	GoodResponse	0	n/a	n/a	10	38	Blank	AvoidedLoss	True
369.115	1.45	Lose2	0.6667000000000001	n/a	Yes	2.833	n/a	5.0	GoodResponse	0	0.027	368.142	10	38	Feedback	AvoidedLoss	True
370.569	2.833	Lose2	0.6667000000000001	n/a	Yes	2.833	n/a	n/a	GoodResponse	0	0.0	n/a	10	38	ISIslide	AvoidedLoss	True
373.428	0.25	Win2	0.675	0.0	Yes	2.972	0.028	n/a	GoodResponse	1	n/a	n/a	11	39	Cue	Win	True
373.678	4.1	Win2	0.675	0.001	Yes	2.972	0.0	n/a	GoodResponse	1	n/a	n/a	11	39	Fixation	Win	True
377.774	0.49	Win2	0.675	0.004	Yes	2.972	-0.004	2.0	GoodResponse	1	0.202	376.976	11	39	Target	Win	True
377.976	0.3	Win2	0.675	0.004	Yes	2.972	-0.004	2.0	GoodResponse	1	0.202	n/a	11	39	ButtonPress	Win	True
378.276	0.21	Win2	0.675	n/a	Yes	2.972	n/a	n/a	GoodResponse	1	n/a	n/a	11	39	Blank	Win	True
378.476	1.45	Win2	0.675	n/a	Yes	2.972	n/a	5.0	GoodResponse	1	0.032	377.508	11	39	Feedback	Win	True
379.931	2.972	Win2	0.675	n/a	Yes	2.972	n/a	n/a	GoodResponse	1	0.0	n/a	11	39	ISIslide	Win	True
382.923	0.25	Win2	0.6829000000000001	0.0	Yes	2.727	0.023	n/a	GoodResponse	1	n/a	n/a	12	40	Cue	Win	True
383.174	3.95	Win2	0.6829000000000001	0.0	Yes	2.727	0.001	n/a	GoodResponse	1	n/a	n/a	12	40	Fixation	Win	True
387.119	0.48	Win2	0.6829000000000001	0.004	Yes	2.727	-0.004	2.0	GoodResponse	1	0.208	386.327	12	40	Target	Win	True
387.327	0.3	Win2	0.6829000000000001	0.004	Yes	2.727	-0.004	2.0	GoodResponse	1	0.208	n/a	12	40	ButtonPress	Win	True
387.604	0.22	Win2	0.6829000000000001	n/a	Yes	2.727	n/a	n/a	GoodResponse	1	n/a	n/a	12	40	Blank	Win	True
387.821	1.45	Win2	0.6829000000000001	n/a	Yes	2.727	n/a	5.0	GoodResponse	1	0.008	386.829	12	40	Feedback	Win	True
389.275	2.727	Win2	0.6829000000000001	n/a	Yes	2.727	n/a	n/a	GoodResponse	1	0.0	n/a	12	40	ISIslide	Win	True
392.017	0.25	Win2	0.6905	0.0	Yes	2.783	0.017	n/a	GoodResponse	1	n/a	n/a	13	41	Cue	Win	True
392.267	3.9	Win2	0.6905	0.001	Yes	2.783	0.0	n/a	GoodResponse	1	n/a	n/a	13	41	Fixation	Win	True
396.179	0.47	Win2	0.6905	0.0	Yes	2.783	0.012	2.0	GoodResponse	1	0.21	395.389	13	41	Target	Win	True
396.389	0.3	Win2	0.6905	0.0	Yes	2.783	0.012	2.0	GoodResponse	1	0.21	n/a	13	41	ButtonPress	Win	True
396.647	0.23	Win2	0.6905	n/a	Yes	2.783	n/a	n/a	GoodResponse	1	n/a	n/a	13	41	Blank	Win	True
396.865	1.45	Win2	0.6905	n/a	Yes	2.783	n/a	5.0	GoodResponse	1	0.033	395.898	13	41	Feedback	Win	True
398.319	2.783	Win2	0.6905	n/a	Yes	2.783	n/a	n/a	GoodResponse	1	0.0	n/a	13	41	ISIslide	Win	True
401.127	0.25	Control	0.6744	0.0	No	2.923	0.027	n/a	NoResponse	0	n/a	n/a	13	42	Cue	Neutral	False
401.378	3.85	Control	0.6744	0.0	No	2.923	0.001	n/a	NoResponse	0	n/a	n/a	13	42	Fixation	Neutral	False
405.223	0.46	Control	0.6744	0.004	No	2.923	-0.004	n/a	NoResponse	0	n/a	n/a	13	42	Target	Neutral	False
405.691	0.24	Control	0.6744	n/a	No	2.923	n/a	n/a	NoResponse	0	n/a	n/a	13	42	Blank	Neutral	False
405.925	1.45	Control	0.6744	n/a	No	2.923	n/a	5.0	NoResponse	0	0.047	404.972	13	42	Feedback	Neutral	False
407.379	2.923	Control	0.6744	n/a	No	2.923	n/a	n/a	NoResponse	0	0.0	n/a	13	42	ISIslide	Neutral	False
410.322	0.25	Win2	0.6818000000000001	0.0	Yes	3.178	0.022	n/a	GoodResponse	1	n/a	n/a	14	43	Cue	Win	True
410.572	4.0	Win2	0.6818000000000001	0.0	Yes	3.178	0.0	n/a	GoodResponse	1	n/a	n/a	14	43	Fixation	Win	True
414.568	0.45	Win2	0.6818000000000001	0.004	Yes	3.178	-0.004	2.0	GoodResponse	1	0.186	413.754	14	43	Target	Win	True
414.754	0.3	Win2	0.6818000000000001	0.004	Yes	3.178	-0.004	2.0	GoodResponse	1	0.186	n/a	14	43	ButtonPress	Win	True
415.019	0.25	Win2	0.6818000000000001	n/a	Yes	3.178	n/a	n/a	GoodResponse	1	n/a	n/a	14	43	Blank	Win	True
415.27	1.45	Win2	0.6818000000000001	n/a	Yes	3.178	n/a	5.0	GoodResponse	1	0.018	414.288	14	43	Feedback	Win	True
416.724	3.178	Win2	0.6818000000000001	n/a	Yes	3.178	n/a	n/a	GoodResponse	1	0.0	n/a	14	43	ISIslide	Win	True
419.917	0.25	Win2	0.6889	0.0	Yes	2.983	0.017	n/a	GoodResponse	1	n/a	n/a	15	44	Cue	Win	True
420.168	4.0	Win2	0.6889	0.0	Yes	2.983	0.001	n/a	GoodResponse	1	n/a	n/a	15	44	Fixation	Win	True
424.163	0.44	Win2	0.6889	0.004	Yes	2.983	-0.004	2.0	GoodResponse	1	0.281	423.444	15	44	Target	Win	True
424.444	0.3	Win2	0.6889	0.004	Yes	2.983	-0.004	2.0	GoodResponse	1	0.281	n/a	15	44	ButtonPress	Win	True
424.614	0.26	Win2	0.6889	n/a	Yes	2.983	n/a	n/a	GoodResponse	1	n/a	n/a	15	44	Blank	Win	True
424.865	1.45	Win2	0.6889	n/a	Yes	2.983	n/a	5.0	GoodResponse	1	0.033	423.898	15	44	Feedback	Win	True
426.319	2.983	Win2	0.6889	n/a	Yes	2.983	n/a	n/a	GoodResponse	1	0.0	n/a	15	44	ISIslide	Win	True
429.328	0.25	Control	0.6739	0.0	No	2.872	0.028	n/a	NoResponse	0	n/a	n/a	15	45	Cue	Neutral	False
429.579	4.1	Control	0.6739	0.0	No	2.872	0.001	n/a	NoResponse	0	n/a	n/a	15	45	Fixation	Neutral	False
433.675	0.43	Control	0.6739	0.003	No	2.872	-0.003	n/a	NoResponse	0	n/a	n/a	15	45	Target	Neutral	False
434.109	0.27	Control	0.6739	n/a	No	2.872	n/a	n/a	NoResponse	0	n/a	n/a	15	45	Blank	Neutral	False
434.377	1.45	Control	0.6739	n/a	No	2.872	n/a	5.0	NoResponse	0	0.033	433.41	15	45	Feedback	Neutral	False
435.831	2.872	Control	0.6739	n/a	No	2.872	n/a	n/a	NoResponse	0	0.0	n/a	15	45	ISIslide	Neutral	False
438.723	0.25	Lose2	0.6809000000000001	0.0	Yes	3.377	0.023	n/a	GoodResponse	0	n/a	n/a	15	46	Cue	AvoidedLoss	True
438.974	4.0	Lose2	0.6809000000000001	0.0	Yes	3.377	0.001	n/a	GoodResponse	0	n/a	n/a	15	46	Fixation	AvoidedLoss	True
442.969	0.42	Lose2	0.6809000000000001	0.004	Yes	3.377	-0.004	2.0	GoodResponse	0	0.217	442.186	15	46	Target	AvoidedLoss	True
443.186	0.3	Lose2	0.6809000000000001	0.004	Yes	3.377	-0.004	2.0	GoodResponse	0	0.217	n/a	15	46	ButtonPress	AvoidedLoss	True
443.404	0.28	Lose2	0.6809000000000001	n/a	Yes	3.377	n/a	n/a	GoodResponse	0	n/a	n/a	15	46	Blank	AvoidedLoss	True
443.671	1.45	Lose2	0.6809000000000001	n/a	Yes	3.377	n/a	5.0	GoodResponse	0	0.008	442.679	15	46	Feedback	AvoidedLoss	True
445.126	3.377	Lose2	0.6809000000000001	n/a	Yes	3.377	n/a	n/a	GoodResponse	0	0.0	n/a	15	46	ISIslide	AvoidedLoss	True
448.519	0.25	Lose2	0.6875	0.0	Yes	2.681	0.019	n/a	GoodResponse	0	n/a	n/a	15	47	Cue	AvoidedLoss	True
448.77	4.0	Lose2	0.6875	0.0	Yes	2.681	0.001	n/a	GoodResponse	0	n/a	n/a	15	47	Fixation	AvoidedLoss	True
452.765	0.41	Lose2	0.6875	0.004	Yes	2.681	-0.004	2.0	GoodResponse	0	0.258	452.023	15	47	Target	AvoidedLoss	True
453.023	0.3	Lose2	0.6875	0.004	Yes	2.681	-0.004	2.0	GoodResponse	0	0.258	n/a	15	47	ButtonPress	AvoidedLoss	True
453.183	0.29	Lose2	0.6875	n/a	Yes	2.681	n/a	n/a	GoodResponse	0	n/a	n/a	15	47	Blank	AvoidedLoss	True
453.467	1.45	Lose2	0.6875	n/a	Yes	2.681	n/a	5.0	GoodResponse	0	0.016	452.483	15	47	Feedback	AvoidedLoss	True
454.922	2.681	Lose2	0.6875	n/a	Yes	2.681	n/a	n/a	GoodResponse	0	0.0	n/a	15	47	ISIslide	AvoidedLoss	True
457.63	0.25	Lose2	0.6939	0.0	Yes	3.02	0.03	n/a	GoodResponse	0	n/a	n/a	15	48	Cue	AvoidedLoss	True
457.881	3.95	Lose2	0.6939	0.0	Yes	3.02	0.001	n/a	GoodResponse	0	n/a	n/a	15	48	Fixation	AvoidedLoss	True
461.826	0.4	Lose2	0.6939	0.004	Yes	3.02	-0.004	2.0	GoodResponse	0	0.214	461.04	15	48	Target	AvoidedLoss	True
462.04	0.3	Lose2	0.6939	0.004	Yes	3.02	-0.004	2.0	GoodResponse	0	0.214	n/a	15	48	ButtonPress	AvoidedLoss	True
462.227	0.3	Lose2	0.6939	n/a	Yes	3.02	n/a	n/a	GoodResponse	0	n/a	n/a	15	48	Blank	AvoidedLoss	True
462.528	1.45	Lose2	0.6939	n/a	Yes	3.02	n/a	5.0	GoodResponse	0	0.028	461.556	15	48	Feedback	AvoidedLoss	True
463.982	3.02	Lose2	0.6939	n/a	Yes	3.02	n/a	n/a	GoodResponse	0	0.0	n/a	15	48	ISIslide	AvoidedLoss	True
467.025	0.25	Control	0.68	0.0	No	2.875	0.025	n/a	NoResponse	0	n/a	n/a	15	49	Cue	Neutral	False
467.275	4.0	Control	0.68	0.0	No	2.875	0.0	n/a	NoResponse	0	n/a	n/a	15	49	Fixation	Neutral	False
471.271	0.39	Control	0.68	0.004	No	2.875	-0.004	n/a	NoResponse	0	n/a	n/a	15	49	Target	Neutral	False
471.672	0.31	Control	0.68	n/a	No	2.875	n/a	n/a	NoResponse	0	n/a	n/a	15	49	Blank	Neutral	False
471.973	1.45	Control	0.68	n/a	No	2.875	n/a	5.0	NoResponse	0	0.046	471.019	15	49	Feedback	Neutral	False
473.427	2.875	Control	0.68	n/a	No	2.875	n/a	n/a	NoResponse	0	0.0	n/a	15	49	ISIslide	Neutral	False
476.319	0.25	Control	0.6667000000000001	0.0	No	2.781	0.019	n/a	NoResponse	0	n/a	n/a	15	50	Cue	Neutral	False
476.57	4.0	Control	0.6667000000000001	0.0	No	2.781	0.001	n/a	NoResponse	0	n/a	n/a	15	50	Fixation	Neutral	False
480.565	0.38	Control	0.6667000000000001	0.004	No	2.781	-0.004	n/a	NoResponse	0	n/a	n/a	15	50	Target	Neutral	False
480.95	0.32	Control	0.6667000000000001	n/a	No	2.781	n/a	n/a	NoResponse	0	n/a	n/a	15	50	Blank	Neutral	False
481.267	1.45	Control	0.6667000000000001	n/a	No	2.781	n/a	5.0	NoResponse	0	0.021	480.288	15	50	Feedback	Neutral	False
482.722	2.781	Control	0.6667000000000001	n/a	No	2.781	n/a	n/a	NoResponse	0	0.0	n/a	15	50	ISIslide	Neutral	False
485.53	0.25	Control	0.6537999999999999	0.0	No	2.72	0.03	n/a	NoResponse	0	n/a	n/a	15	51	Cue	Neutral	False
485.781	3.95	Control	0.6537999999999999	0.0	No	2.72	0.001	n/a	NoResponse	0	n/a	n/a	15	51	Fixation	Neutral	False
489.726	0.37	Control	0.6537999999999999	0.004	No	2.72	-0.004	n/a	NoResponse	0	n/a	n/a	15	51	Target	Neutral	False
490.11	0.33	Control	0.6537999999999999	n/a	No	2.72	n/a	n/a	NoResponse	0	n/a	n/a	15	51	Blank	Neutral	False
490.428	1.45	Control	0.6537999999999999	n/a	No	2.72	n/a	5.0	NoResponse	0	0.03	489.458	15	51	Feedback	Neutral	False
491.882	2.72	Control	0.6537999999999999	n/a	No	2.72	n/a	n/a	NoResponse	0	0.0	n/a	15	51	ISIslide	Neutral	False
494.624	0.25	Control	0.6415000000000001	0.0	No	2.626	0.024	n/a	NoResponse	0	n/a	n/a	15	52	Cue	Neutral	False
494.875	4.05	Control	0.6415000000000001	0.0	No	2.626	0.001	n/a	NoResponse	0	n/a	n/a	15	52	Fixation	Neutral	False
498.92	0.38	Control	0.6415000000000001	0.004	No	2.626	-0.004	n/a	NoResponse	0	n/a	n/a	15	52	Target	Neutral	False
499.305	0.32	Control	0.6415000000000001	n/a	No	2.626	n/a	n/a	NoResponse	0	n/a	n/a	15	52	Blank	Neutral	False
499.622	1.45	Control	0.6415000000000001	n/a	No	2.626	n/a	5.0	NoResponse	0	0.008	498.63	15	52	Feedback	Neutral	False
501.077	2.626	Control	0.6415000000000001	n/a	No	2.626	n/a	n/a	NoResponse	0	0.0	n/a	15	52	ISIslide	Neutral	False
503.718	0.25	Win2	0.6481	0.0	Yes	2.932	0.018	n/a	GoodResponse	1	n/a	n/a	16	53	Cue	Win	True
503.968	4.05	Win2	0.6481	0.001	Yes	2.932	0.0	n/a	GoodResponse	1	n/a	n/a	16	53	Fixation	Win	True
508.014	0.39	Win2	0.6481	0.004	Yes	2.932	-0.004	2.0	GoodResponse	1	0.196	507.21	16	53	Target	Win	True
508.21	0.3	Win2	0.6481	0.004	Yes	2.932	-0.004	2.0	GoodResponse	1	0.196	n/a	16	53	ButtonPress	Win	True
508.415	0.31	Win2	0.6481	n/a	Yes	2.932	n/a	n/a	GoodResponse	1	n/a	n/a	16	53	Blank	Win	True
508.716	1.45	Win2	0.6481	n/a	Yes	2.932	n/a	5.0	GoodResponse	1	0.035	507.751	16	53	Feedback	Win	True
510.17	2.932	Win2	0.6481	n/a	Yes	2.932	n/a	n/a	GoodResponse	1	0.0	n/a	16	53	ISIslide	Win	True
513.129	0.25	Win2	0.6545000000000001	0.0	Yes	2.721	0.029	n/a	GoodResponse	1	n/a	n/a	17	54	Cue	Win	True
513.38	3.95	Win2	0.6545000000000001	0.0	Yes	2.721	0.001	n/a	GoodResponse	1	n/a	n/a	17	54	Fixation	Win	True
517.325	0.4	Win2	0.6545000000000001	0.004	Yes	2.721	-0.004	2.0	GoodResponse	1	0.203	516.528	17	54	Target	Win	True
517.528	0.3	Win2	0.6545000000000001	0.004	Yes	2.721	-0.004	2.0	GoodResponse	1	0.203	n/a	17	54	ButtonPress	Win	True
517.726	0.3	Win2	0.6545000000000001	n/a	Yes	2.721	n/a	n/a	GoodResponse	1	n/a	n/a	17	54	Blank	Win	True
518.027	1.45	Win2	0.6545000000000001	n/a	Yes	2.721	n/a	5.0	GoodResponse	1	0.04	517.067	17	54	Feedback	Win	True
519.482	2.721	Win2	0.6545000000000001	n/a	Yes	2.721	n/a	n/a	GoodResponse	1	0.0	n/a	17	54	ISIslide	Win	True
522.223	0.25	Control	0.6429	0.0	No	3.027	0.023	n/a	NoResponse	0	n/a	n/a	17	55	Cue	Neutral	False
522.474	3.95	Control	0.6429	0.0	No	3.027	0.001	n/a	NoResponse	0	n/a	n/a	17	55	Fixation	Neutral	False
526.419	0.41	Control	0.6429	0.004	No	3.027	-0.004	n/a	NoResponse	0	n/a	n/a	17	55	Target	Neutral	False
526.837	0.29	Control	0.6429	n/a	No	3.027	n/a	n/a	NoResponse	0	n/a	n/a	17	55	Blank	Neutral	False
527.121	1.45	Control	0.6429	n/a	No	3.027	n/a	5.0	NoResponse	0	0.02	526.141	17	55	Feedback	Neutral	False
528.575	3.027	Control	0.6429	n/a	No	3.027	n/a	n/a	NoResponse	0	0.0	n/a	17	55	ISIslide	Neutral	False
531.618	0.25	Control	0.6315999999999999	0.0	No	2.832	0.018	n/a	NoResponse	0	n/a	n/a	17	56	Cue	Neutral	False
531.869	3.95	Control	0.6315999999999999	0.0	No	2.832	0.001	n/a	NoResponse	0	n/a	n/a	17	56	Fixation	Neutral	False
535.814	0.42	Control	0.6315999999999999	0.004	No	2.832	-0.004	n/a	NoResponse	0	n/a	n/a	17	56	Target	Neutral	False
536.248	0.28	Control	0.6315999999999999	n/a	No	2.832	n/a	n/a	NoResponse	0	n/a	n/a	17	56	Blank	Neutral	False
536.516	1.45	Control	0.6315999999999999	n/a	No	2.832	n/a	5.0	NoResponse	0	0.039	535.555	17	56	Feedback	Neutral	False
537.97	2.832	Control	0.6315999999999999	n/a	No	2.832	n/a	n/a	NoResponse	0	0.0	n/a	17	56	ISIslide	Neutral	False
540.829	0.25	Control	0.6207	0.0	No	3.471	0.029	n/a	NoResponse	0	n/a	n/a	17	57	Cue	Neutral	False
541.08	4.0	Control	0.6207	0.0	No	3.471	0.001	n/a	NoResponse	0	n/a	n/a	17	57	Fixation	Neutral	False
545.075	0.43	Control	0.6207	0.004	No	3.471	-0.004	n/a	NoResponse	0	n/a	n/a	17	57	Target	Neutral	False
545.51	0.27	Control	0.6207	n/a	No	3.471	n/a	n/a	NoResponse	0	n/a	n/a	17	57	Blank	Neutral	False
545.777	1.45	Control	0.6207	n/a	No	3.471	n/a	5.0	NoResponse	0	0.047	544.824	17	57	Feedback	Neutral	False
547.231	3.471	Control	0.6207	n/a	No	3.471	n/a	n/a	NoResponse	0	0.0	n/a	17	57	ISIslide	Neutral	False
550.725	0.25	Win2	0.6271	0.0	Yes	2.725	0.025	n/a	GoodResponse	1	n/a	n/a	18	58	Cue	Win	True
550.976	4.05	Win2	0.6271	0.0	Yes	2.725	0.001	n/a	GoodResponse	1	n/a	n/a	18	58	Fixation	Win	True
555.021	0.44	Win2	0.6271	0.004	Yes	2.725	-0.004	2.0	GoodResponse	1	0.196	554.217	18	58	Target	Win	True
555.217	0.3	Win2	0.6271	0.004	Yes	2.725	-0.004	2.0	GoodResponse	1	0.196	n/a	18	58	ButtonPress	Win	True
555.473	0.26	Win2	0.6271	n/a	Yes	2.725	n/a	n/a	GoodResponse	1	n/a	n/a	18	58	Blank	Win	True
555.723	1.45	Win2	0.6271	n/a	Yes	2.725	n/a	5.0	GoodResponse	1	0.008	554.731	18	58	Feedback	Win	True
557.178	2.725	Win2	0.6271	n/a	Yes	2.725	n/a	n/a	GoodResponse	1	0.0	n/a	18	58	ISIslide	Win	True
559.919	0.25	Lose2	0.6333	0.0	Yes	2.681	0.019	n/a	GoodResponse	0	n/a	n/a	18	59	Cue	AvoidedLoss	True
560.17	4.0	Lose2	0.6333	0.0	Yes	2.681	0.001	n/a	GoodResponse	0	n/a	n/a	18	59	Fixation	AvoidedLoss	True
564.165	0.45	Lose2	0.6333	0.004	Yes	2.681	-0.004	2.0	GoodResponse	0	0.193	563.358	18	59	Target	AvoidedLoss	True
564.358	0.3	Lose2	0.6333	0.004	Yes	2.681	-0.004	2.0	GoodResponse	0	0.193	n/a	18	59	ButtonPress	AvoidedLoss	True
564.617	0.25	Lose2	0.6333	n/a	Yes	2.681	n/a	n/a	GoodResponse	0	n/a	n/a	18	59	Blank	AvoidedLoss	True
564.867	1.45	Lose2	0.6333	n/a	Yes	2.681	n/a	5.0	GoodResponse	0	0.029	563.896	18	59	Feedback	AvoidedLoss	True
566.322	2.681	Lose2	0.6333	n/a	Yes	2.681	n/a	n/a	GoodResponse	0	0.0	n/a	18	59	ISIslide	AvoidedLoss	True
569.03	0.25	Control	0.623	0.0	No	2.67	0.03	n/a	NoResponse	0	n/a	n/a	18	60	Cue	Neutral	False
569.281	4.0	Control	0.623	0.0	No	2.67	0.001	n/a	NoResponse	0	n/a	n/a	18	60	Fixation	Neutral	False
573.276	0.46	Control	0.623	0.004	No	2.67	-0.004	n/a	NoResponse	0	n/a	n/a	18	60	Target	Neutral	False
573.744	0.24	Control	0.623	n/a	No	2.67	n/a	n/a	NoResponse	0	n/a	n/a	18	60	Blank	Neutral	False
573.978	1.45	Control	0.623	n/a	No	2.67	n/a	5.0	NoResponse	0	0.04	573.018	18	60	Feedback	Neutral	False
575.432	2.67	Control	0.623	n/a	No	2.67	n/a	n/a	NoResponse	0	0.0	n/a	18	60	ISIslide	Neutral	False
578.124	0.25	Lose2	0.629	0.0	Yes	2.976	0.024	n/a	GoodResponse	0	n/a	n/a	18	61	Cue	AvoidedLoss	True
578.375	4.0	Lose2	0.629	0.0	Yes	2.976	0.001	n/a	GoodResponse	0	n/a	n/a	18	61	Fixation	AvoidedLoss	True
582.37	0.47	Lose2	0.629	0.004	Yes	2.976	-0.004	2.0	GoodResponse	0	0.207	581.577	18	61	Target	AvoidedLoss	True
582.577	0.3	Lose2	0.629	0.004	Yes	2.976	-0.004	2.0	GoodResponse	0	0.207	n/a	18	61	ButtonPress	AvoidedLoss	True
582.855	0.23	Lose2	0.629	n/a	Yes	2.976	n/a	n/a	GoodResponse	0	n/a	n/a	18	61	Blank	AvoidedLoss	True
583.072	1.45	Lose2	0.629	n/a	Yes	2.976	n/a	5.0	GoodResponse	0	0.02	582.092	18	61	Feedback	AvoidedLoss	True
584.526	2.976	Lose2	0.629	n/a	Yes	2.976	n/a	n/a	GoodResponse	0	0.0	n/a	18	61	ISIslide	AvoidedLoss	True
587.519	0.25	Lose2	0.6349	0.0	Yes	2.881	0.019	n/a	GoodResponse	0	n/a	n/a	18	62	Cue	AvoidedLoss	True
587.769	3.9	Lose2	0.6349	0.0	Yes	2.881	0.0	n/a	GoodResponse	0	n/a	n/a	18	62	Fixation	AvoidedLoss	True
591.681	0.48	Lose2	0.6349	0.0	Yes	2.881	0.012	2.0	GoodResponse	0	0.266	590.947	18	62	Target	AvoidedLoss	True
591.947	0.3	Lose2	0.6349	0.0	Yes	2.881	0.012	2.0	GoodResponse	0	0.266	n/a	18	62	ButtonPress	AvoidedLoss	True
592.149	0.22	Lose2	0.6349	n/a	Yes	2.881	n/a	n/a	GoodResponse	0	n/a	n/a	18	62	Blank	AvoidedLoss	True
592.366	1.45	Lose2	0.6349	n/a	Yes	2.881	n/a	5.0	GoodResponse	0	0.043	591.409	18	62	Feedback	AvoidedLoss	True
593.821	2.881	Lose2	0.6349	n/a	Yes	2.881	n/a	n/a	GoodResponse	0	0.0	n/a	18	62	ISIslide	AvoidedLoss	True
596.729	0.25	Lose2	0.6406000000000001	0.001	Yes	2.621	0.029	n/a	GoodResponse	0	n/a	n/a	18	63	Cue	AvoidedLoss	True
596.98	4.05	Lose2	0.6406000000000001	0.0	Yes	2.621	0.001	n/a	GoodResponse	0	n/a	n/a	18	63	Fixation	AvoidedLoss	True
601.026	0.49	Lose2	0.6406000000000001	0.003	Yes	2.621	-0.003	2.0	GoodResponse	0	0.239	600.265	18	63	Target	AvoidedLoss	True
601.265	0.3	Lose2	0.6406000000000001	0.003	Yes	2.621	-0.003	2.0	GoodResponse	0	0.239	n/a	18	63	ButtonPress	AvoidedLoss	True
601.527	0.21	Lose2	0.6406000000000001	n/a	Yes	2.621	n/a	n/a	GoodResponse	0	n/a	n/a	18	63	Blank	AvoidedLoss	True
601.728	1.45	Lose2	0.6406000000000001	n/a	Yes	2.621	n/a	5.0	GoodResponse	0	0.047	600.775	18	63	Feedback	AvoidedLoss	True
603.182	2.621	Lose2	0.6406000000000001	n/a	Yes	2.621	n/a	n/a	GoodResponse	0	0.0	n/a	18	63	ISIslide	AvoidedLoss	True
605.823	0.25	Win2	0.6462	0.0	Yes	3.127	0.023	n/a	GoodResponse	1	n/a	n/a	19	64	Cue	Win	True
606.074	4.15	Win2	0.6462	0.0	Yes	3.127	0.001	n/a	GoodResponse	1	n/a	n/a	19	64	Fixation	Win	True
610.22	0.5	Win2	0.6462	0.003	Yes	3.127	-0.003	2.0	GoodResponse	1	0.22	609.44	19	64	Target	Win	True
610.44	0.3	Win2	0.6462	0.003	Yes	3.127	-0.003	2.0	GoodResponse	1	0.22	n/a	19	64	ButtonPress	Win	True
610.721	0.2	Win2	0.6462	n/a	Yes	3.127	n/a	n/a	GoodResponse	1	n/a	n/a	19	64	Blank	Win	True
610.922	1.45	Win2	0.6462	n/a	Yes	3.127	n/a	5.0	GoodResponse	1	0.023	609.945	19	64	Feedback	Win	True
612.376	3.127	Win2	0.6462	n/a	Yes	3.127	n/a	n/a	GoodResponse	1	0.0	n/a	19	64	ISIslide	Win	True
615.519	0.25	Control	0.6364	0.0	No	2.781	0.019	n/a	NoResponse	0	n/a	n/a	19	65	Cue	Neutral	False
615.77	4.0	Control	0.6364	0.0	No	2.781	0.001	n/a	NoResponse	0	n/a	n/a	19	65	Fixation	Neutral	False
619.765	0.5	Control	0.6364	0.004	No	2.781	-0.004	n/a	NoResponse	0	n/a	n/a	19	65	Target	Neutral	False
620.267	0.2	Control	0.6364	n/a	No	2.781	n/a	n/a	NoResponse	0	n/a	n/a	19	65	Blank	Neutral	False
620.467	1.45	Control	0.6364	n/a	No	2.781	n/a	5.0	NoResponse	0	0.039	619.506	19	65	Feedback	Neutral	False
621.922	2.781	Control	0.6364	n/a	No	2.781	n/a	n/a	NoResponse	0	0.0	n/a	19	65	ISIslide	Neutral	False
624.73	0.25	Win2	0.6418	0.0	Yes	2.77	0.03	n/a	GoodResponse	1	n/a	n/a	20	66	Cue	Win	True
624.981	3.9	Win2	0.6418	0.0	Yes	2.77	0.001	n/a	GoodResponse	1	n/a	n/a	20	66	Fixation	Win	True
628.876	0.5	Win2	0.6418	0.004	Yes	2.77	-0.004	2.0	GoodResponse	1	0.222	628.098	20	66	Target	Win	True
629.098	0.3	Win2	0.6418	0.004	Yes	2.77	-0.004	2.0	GoodResponse	1	0.222	n/a	20	66	ButtonPress	Win	True
629.377	0.2	Win2	0.6418	n/a	Yes	2.77	n/a	n/a	GoodResponse	1	n/a	n/a	20	66	Blank	Win	True
629.578	1.45	Win2	0.6418	n/a	Yes	2.77	n/a	5.0	GoodResponse	1	0.001	628.579	20	66	Feedback	Win	True
631.032	2.77	Win2	0.6418	n/a	Yes	2.77	n/a	n/a	GoodResponse	1	0.0	n/a	20	66	ISIslide	Win	True
633.824	0.25	Control	0.6324000000000001	0.0	No	2.726	0.024	n/a	NoResponse	0	n/a	n/a	20	67	Cue	Neutral	False
634.075	3.95	Control	0.6324000000000001	0.0	No	2.726	0.001	n/a	NoResponse	0	n/a	n/a	20	67	Fixation	Neutral	False
638.02	0.5	Control	0.6324000000000001	0.004	No	2.726	-0.004	n/a	NoResponse	0	n/a	n/a	20	67	Target	Neutral	False
638.521	0.2	Control	0.6324000000000001	n/a	No	2.726	n/a	n/a	NoResponse	0	n/a	n/a	20	67	Blank	Neutral	False
638.722	1.45	Control	0.6324000000000001	n/a	No	2.726	n/a	5.0	NoResponse	0	0.028	637.75	20	67	Feedback	Neutral	False
640.176	2.726	Control	0.6324000000000001	n/a	No	2.726	n/a	n/a	NoResponse	0	0.0	n/a	20	67	ISIslide	Neutral	False
642.918	0.25	Win2	0.6377	0.0	Yes	3.082	0.018	n/a	GoodResponse	1	n/a	n/a	21	68	Cue	Win	True
643.168	4.0	Win2	0.6377	0.001	Yes	3.082	0.0	n/a	GoodResponse	1	n/a	n/a	21	68	Fixation	Win	True
647.164	0.5	Win2	0.6377	0.004	Yes	3.082	-0.004	2.0	GoodResponse	1	0.202	646.366	21	68	Target	Win	True
647.366	0.3	Win2	0.6377	0.004	Yes	3.082	-0.004	2.0	GoodResponse	1	0.202	n/a	21	68	ButtonPress	Win	True
647.665	0.2	Win2	0.6377	n/a	Yes	3.082	n/a	n/a	GoodResponse	1	n/a	n/a	21	68	Blank	Win	True
647.866	1.45	Win2	0.6377	n/a	Yes	3.082	n/a	5.0	GoodResponse	1	0.008	646.874	21	68	Feedback	Win	True
649.32	3.082	Win2	0.6377	n/a	Yes	3.082	n/a	n/a	GoodResponse	1	0.0	n/a	21	68	ISIslide	Win	True
652.43	0.25	Win2	0.6429	0.0	Yes	3.22	0.03	n/a	GoodResponse	1	n/a	n/a	22	69	Cue	Win	True
652.68	3.95	Win2	0.6429	0.0	Yes	3.22	0.0	n/a	GoodResponse	1	n/a	n/a	22	69	Fixation	Win	True
656.642	0.5	Win2	0.6429	0.0	Yes	3.22	0.012	2.0	GoodResponse	1	0.25	655.892	22	69	Target	Win	True
656.892	0.3	Win2	0.6429	0.0	Yes	3.22	0.012	2.0	GoodResponse	1	0.25	n/a	22	69	ButtonPress	Win	True
657.127	0.2	Win2	0.6429	n/a	Yes	3.22	n/a	n/a	GoodResponse	1	n/a	n/a	22	69	Blank	Win	True
657.328	1.45	Win2	0.6429	n/a	Yes	3.22	n/a	5.0	GoodResponse	1	0.008	656.336	22	69	Feedback	Win	True
658.782	3.22	Win2	0.6429	n/a	Yes	3.22	n/a	n/a	GoodResponse	1	0.0	n/a	22	69	ISIslide	Win	True
662.025	0.25	Lose2	0.6479	0.0	Yes	3.025	0.025	n/a	GoodResponse	0	n/a	n/a	22	70	Cue	AvoidedLoss	True
662.276	4.05	Lose2	0.6479	0.0	Yes	3.025	0.001	n/a	GoodResponse	0	n/a	n/a	22	70	Fixation	AvoidedLoss	True
666.321	0.5	Lose2	0.6479	0.004	Yes	3.025	-0.004	2.0	GoodResponse	0	0.239	665.56	22	70	Target	AvoidedLoss	True
666.56	0.3	Lose2	0.6479	0.004	Yes	3.025	-0.004	2.0	GoodResponse	0	0.239	n/a	22	70	ButtonPress	AvoidedLoss	True
666.823	0.2	Lose2	0.6479	n/a	Yes	3.025	n/a	n/a	GoodResponse	0	n/a	n/a	22	70	Blank	AvoidedLoss	True
667.023	1.45	Lose2	0.6479	n/a	Yes	3.025	n/a	5.0	GoodResponse	0	0.019	666.042	22	70	Feedback	AvoidedLoss	True
668.478	3.025	Lose2	0.6479	n/a	Yes	3.025	n/a	n/a	GoodResponse	0	0.0	n/a	22	70	ISIslide	AvoidedLoss	True
671.52	0.25	Win2	0.6528	0.0	Yes	2.73	0.02	n/a	GoodResponse	1	n/a	n/a	23	71	Cue	Win	True
671.771	4.05	Win2	0.6528	0.0	Yes	2.73	0.001	n/a	GoodResponse	1	n/a	n/a	23	71	Fixation	Win	True
675.816	0.5	Win2	0.6528	0.004	Yes	2.73	-0.004	2.0	GoodResponse	1	0.233	675.049	23	71	Target	Win	True
676.049	0.3	Win2	0.6528	0.004	Yes	2.73	-0.004	2.0	GoodResponse	1	0.233	n/a	23	71	ButtonPress	Win	True
676.318	0.2	Win2	0.6528	n/a	Yes	2.73	n/a	n/a	GoodResponse	1	n/a	n/a	23	71	Blank	Win	True
676.518	1.45	Win2	0.6528	n/a	Yes	2.73	n/a	5.0	GoodResponse	1	0.036	675.554	23	71	Feedback	Win	True
677.973	2.73	Win2	0.6528	n/a	Yes	2.73	n/a	n/a	GoodResponse	1	0.0	n/a	23	71	ISIslide	Win	True
680.731	0.25	Win2	0.6575	0.0	Yes	2.769	0.031	n/a	GoodResponse	1	n/a	n/a	24	72	Cue	Win	True
680.982	4.1	Win2	0.6575	0.0	Yes	2.769	0.001	n/a	GoodResponse	1	n/a	n/a	24	72	Fixation	Win	True
685.077	0.5	Win2	0.6575	0.004	Yes	2.769	-0.004	2.0	GoodResponse	1	0.207	684.284	24	72	Target	Win	True
685.284	0.3	Win2	0.6575	0.004	Yes	2.769	-0.004	2.0	GoodResponse	1	0.207	n/a	24	72	ButtonPress	Win	True
685.579	0.2	Win2	0.6575	n/a	Yes	2.769	n/a	n/a	GoodResponse	1	n/a	n/a	24	72	Blank	Win	True
685.779	1.45	Win2	0.6575	n/a	Yes	2.769	n/a	5.0	GoodResponse	1	0.043	684.822	24	72	Feedback	Win	True
687.234	2.769	Win2	0.6575	n/a	Yes	2.769	n/a	n/a	GoodResponse	1	0.0	n/a	24	72	ISIslide	Win	True
690.025	0.25	Win2	0.6622	0.0	Yes	2.675	0.025	n/a	GoodResponse	1	n/a	n/a	25	73	Cue	Win	True
690.276	4.0	Win2	0.6622	0.0	Yes	2.675	0.001	n/a	GoodResponse	1	n/a	n/a	25	73	Fixation	Win	True
694.271	0.5	Win2	0.6622	0.004	Yes	2.675	-0.004	2.0	GoodResponse	1	0.245	693.516	25	73	Target	Win	True
694.516	0.3	Win2	0.6622	0.004	Yes	2.675	-0.004	2.0	GoodResponse	1	0.245	n/a	25	73	ButtonPress	Win	True
694.773	0.2	Win2	0.6622	n/a	Yes	2.675	n/a	n/a	GoodResponse	1	n/a	n/a	25	73	Blank	Win	True
694.974	1.45	Win2	0.6622	n/a	Yes	2.675	n/a	5.0	GoodResponse	1	0.019	693.993	25	73	Feedback	Win	True
696.428	2.675	Win2	0.6622	n/a	Yes	2.675	n/a	n/a	GoodResponse	1	0.0	n/a	25	73	ISIslide	Win	True
699.119	0.25	Lose2	0.6667000000000001	0.0	Yes	2.631	0.019	n/a	GoodResponse	0	n/a	n/a	25	74	Cue	AvoidedLoss	True
699.37	4.05	Lose2	0.6667000000000001	0.0	Yes	2.631	0.001	n/a	GoodResponse	0	n/a	n/a	25	74	Fixation	AvoidedLoss	True
703.416	0.5	Lose2	0.6667000000000001	0.003	Yes	2.631	-0.003	2.0	GoodResponse	0	0.248	702.664	25	74	Target	AvoidedLoss	True
703.664	0.3	Lose2	0.6667000000000001	0.003	Yes	2.631	-0.003	2.0	GoodResponse	0	0.248	n/a	25	74	ButtonPress	AvoidedLoss	True
703.917	0.2	Lose2	0.6667000000000001	n/a	Yes	2.631	n/a	n/a	GoodResponse	0	n/a	n/a	25	74	Blank	AvoidedLoss	True
704.118	1.45	Lose2	0.6667000000000001	n/a	Yes	2.631	n/a	5.0	GoodResponse	0	0.046	703.164	25	74	Feedback	AvoidedLoss	True
705.572	2.631	Lose2	0.6667000000000001	n/a	Yes	2.631	n/a	n/a	GoodResponse	0	0.0	n/a	25	74	ISIslide	AvoidedLoss	True
708.23	0.25	Lose2	0.6711	0.0	Yes	2.92	0.03	n/a	GoodResponse	0	n/a	n/a	25	75	Cue	AvoidedLoss	True
708.481	3.95	Lose2	0.6711	0.0	Yes	2.92	0.001	n/a	GoodResponse	0	n/a	n/a	25	75	Fixation	AvoidedLoss	True
712.426	0.49	Lose2	0.6711	0.004	Yes	2.92	-0.004	2.0	GoodResponse	0	0.249	711.675	25	75	Target	AvoidedLoss	True
712.675	0.3	Lose2	0.6711	0.004	Yes	2.92	-0.004	2.0	GoodResponse	0	0.249	n/a	25	75	ButtonPress	AvoidedLoss	True
712.927	0.21	Lose2	0.6711	n/a	Yes	2.92	n/a	n/a	GoodResponse	0	n/a	n/a	25	75	Blank	AvoidedLoss	True
713.128	1.45	Lose2	0.6711	n/a	Yes	2.92	n/a	5.0	GoodResponse	0	0.012	712.14	25	75	Feedback	AvoidedLoss	True
714.582	2.92	Lose2	0.6711	n/a	Yes	2.92	n/a	n/a	GoodResponse	0	0.0	n/a	25	75	ISIslide	AvoidedLoss	True
717.524	0.25	Control	0.6623	0.0	No	3.226	0.024	n/a	NoResponse	0	n/a	n/a	25	76	Cue	Neutral	False
717.775	4.05	Control	0.6623	0.0	No	3.226	0.001	n/a	NoResponse	0	n/a	n/a	25	76	Fixation	Neutral	False
721.821	0.48	Control	0.6623	0.003	No	3.226	-0.003	n/a	NoResponse	0	n/a	n/a	25	76	Target	Neutral	False
722.305	0.22	Control	0.6623	n/a	No	3.226	n/a	n/a	NoResponse	0	n/a	n/a	25	76	Blank	Neutral	False
722.523	1.45	Control	0.6623	n/a	No	3.226	n/a	5.0	NoResponse	0	0.03	721.553	25	76	Feedback	Neutral	False
723.977	3.226	Control	0.6623	n/a	No	3.226	n/a	n/a	NoResponse	0	0.0	n/a	25	76	ISIslide	Neutral	False
727.22	0.25	Lose2	0.6667000000000001	0.0	Yes	2.58	0.02	n/a	GoodResponse	0	n/a	n/a	25	77	Cue	AvoidedLoss	True
727.471	3.95	Lose2	0.6667000000000001	0.0	Yes	2.58	0.001	n/a	GoodResponse	0	n/a	n/a	25	77	Fixation	AvoidedLoss	True
731.416	0.48	Lose2	0.6667000000000001	0.004	Yes	2.58	-0.004	2.0	GoodResponse	0	0.23	730.646	25	77	Target	AvoidedLoss	True
731.646	0.3	Lose2	0.6667000000000001	0.004	Yes	2.58	-0.004	2.0	GoodResponse	0	0.23	n/a	25	77	ButtonPress	AvoidedLoss	True
731.901	0.22	Lose2	0.6667000000000001	n/a	Yes	2.58	n/a	n/a	GoodResponse	0	n/a	n/a	25	77	Blank	AvoidedLoss	True
732.118	1.45	Lose2	0.6667000000000001	n/a	Yes	2.58	n/a	5.0	GoodResponse	0	0.045	731.163	25	77	Feedback	AvoidedLoss	True
733.572	2.58	Lose2	0.6667000000000001	n/a	Yes	2.58	n/a	n/a	GoodResponse	0	0.0	n/a	25	77	ISIslide	AvoidedLoss	True
