onset	duration	cue_type	current_mean_accuracy	duration_error	is_hit	isi_adjusted	onset_delay	response	response_type	reward	rt	rt_time	total_reward	trial_number	trial_phase	trial_type	one_press
11.103	0.25	Control	1.0	0.0	Yes	2.947	0.003	n/a	GoodResponse	0	n/a	n/a	0	0	Cue	Neutral	True
11.354	3.85	Control	1.0	0.0	Yes	2.947	0.001	n/a	GoodResponse	0	n/a	n/a	0	0	Fixation	Neutral	True
15.199	0.4	Control	1.0	0.004	Yes	2.947	-0.004	4.0	GoodResponse	0	0.175	14.374	0	0	Target	Neutral	True
15.374	0.3	Control	1.0	0.004	Yes	2.947	-0.004	4.0	GoodResponse	0	0.175	n/a	0	0	ButtonPress	Neutral	True
15.6	0.3	Control	1.0	n/a	Yes	2.947	n/a	n/a	GoodResponse	0	n/a	n/a	0	0	Blank	Neutral	True
15.901	1.45	Control	1.0	n/a	Yes	2.947	n/a	5.0	GoodResponse	0	0.026	14.927	0	0	Feedback	Neutral	True
17.355	2.947	Control	1.0	n/a	Yes	2.947	n/a	n/a	GoodResponse	0	0.0	n/a	0	0	ISIslide	Neutral	True
20.331	0.25	Lose2	0.5	0.0	No	2.769	0.031	n/a	NoResponse	-1	n/a	n/a	-1	1	Cue	Loss	True
20.581	4.0	Lose2	0.5	0.001	No	2.769	0.0	4.0	NoResponse	-1	3.911	23.492	-1	1	Fixation	Loss	True
24.492	0.3	Lose2	0.5	0.001	No	2.769	0.0	4.0	NoResponse	-1	3.911	n/a	-1	1	ButtonPress	Loss	True
24.577	0.39	Lose2	0.5	0.004	No	2.769	-0.004	n/a	NoResponse	-1	n/a	n/a	-1	1	Target	Loss	True
24.978	0.31	Lose2	0.5	n/a	No	2.769	n/a	n/a	NoResponse	-1	n/a	n/a	-1	1	Blank	Loss	True
25.279	1.45	Lose2	0.5	n/a	No	2.769	n/a	5.0	NoResponse	-1	0.014	24.293	-1	1	Feedback	Loss	True
26.733	2.769	Lose2	0.5	n/a	No	2.769	n/a	n/a	NoResponse	-1	0.0	n/a	-1	1	ISIslide	Loss	True
29.525	0.25	Control	0.6667000000000001	0.0	Yes	2.575	0.025	n/a	GoodResponse	0	n/a	n/a	-1	2	Cue	Neutral	True
29.776	4.1	Control	0.6667000000000001	0.0	Yes	2.575	0.001	n/a	GoodResponse	0	n/a	n/a	-1	2	Fixation	Neutral	True
33.871	0.4	Control	0.6667000000000001	0.004	Yes	2.575	-0.004	4.0	GoodResponse	0	0.173	33.044	-1	2	Target	Neutral	True
34.044	0.3	Control	0.6667000000000001	0.004	Yes	2.575	-0.004	4.0	GoodResponse	0	0.173	n/a	-1	2	ButtonPress	Neutral	True
34.272	0.3	Control	0.6667000000000001	n/a	Yes	2.575	n/a	n/a	GoodResponse	0	n/a	n/a	-1	2	Blank	Neutral	True
34.573	1.45	Control	0.6667000000000001	n/a	Yes	2.575	n/a	5.0	GoodResponse	0	0.037	33.61	-1	2	Feedback	Neutral	True
36.028	2.575	Control	0.6667000000000001	n/a	Yes	2.575	n/a	n/a	GoodResponse	0	0.0	n/a	-1	2	ISIslide	Neutral	True
38.619	0.25	Win2	0.75	0.0	Yes	2.831	0.019	n/a	GoodResponse	1	n/a	n/a	0	3	Cue	Win	True
38.87	3.95	Win2	0.75	0.0	Yes	2.831	0.001	n/a	GoodResponse	1	n/a	n/a	0	3	Fixation	Win	True
42.815	0.39	Win2	0.75	0.004	Yes	2.831	-0.004	4.0	GoodResponse	1	0.17	41.985	0	3	Target	Win	True
42.985	0.3	Win2	0.75	0.004	Yes	2.831	-0.004	4.0	GoodResponse	1	0.17	n/a	0	3	ButtonPress	Win	True
43.216	0.31	Win2	0.75	n/a	Yes	2.831	n/a	n/a	GoodResponse	1	n/a	n/a	0	3	Blank	Win	True
43.517	1.45	Win2	0.75	n/a	Yes	2.831	n/a	5.0	GoodResponse	1	0.019	42.536	0	3	Feedback	Win	True
44.971	2.831	Win2	0.75	n/a	Yes	2.831	n/a	n/a	GoodResponse	1	0.0	n/a	0	3	ISIslide	Win	True
47.83	0.25	Win2	0.8	0.0	Yes	3.27	0.03	n/a	GoodResponse	1	n/a	n/a	1	4	Cue	Win	True
48.08	4.0	Win2	0.8	0.001	Yes	3.27	0.0	n/a	GoodResponse	1	n/a	n/a	1	4	Fixation	Win	True
52.076	0.38	Win2	0.8	0.004	Yes	3.27	-0.004	4.0	GoodResponse	1	0.193	51.269	1	4	Target	Win	True
52.269	0.3	Win2	0.8	0.004	Yes	3.27	-0.004	4.0	GoodResponse	1	0.193	n/a	1	4	ButtonPress	Win	True
52.46	0.32	Win2	0.8	n/a	Yes	3.27	n/a	n/a	GoodResponse	1	n/a	n/a	1	4	Blank	Win	True
52.778	1.45	Win2	0.8	n/a	Yes	3.27	n/a	5.0	GoodResponse	1	0.026	51.804	1	4	Feedback	Win	True
54.232	3.27	Win2	0.8	n/a	Yes	3.27	n/a	n/a	GoodResponse	1	0.0	n/a	1	4	ISIslide	Win	True
57.525	0.25	Win2	0.6667000000000001	0.0	No	2.775	0.025	n/a	PrematurePress	0	n/a	n/a	1	5	Cue	MissedWin	True
57.776	4.0	Win2	0.6667000000000001	0.0	No	2.775	0.001	n/a	PrematurePress	0	n/a	n/a	1	5	Fixation	MissedWin	True
61.771	0.37	Win2	0.6667000000000001	0.004	No	2.775	-0.004	4.0	PrematurePress	0	0.079	60.85	1	5	Target	MissedWin	True
61.85	0.3	Win2	0.6667000000000001	0.004	No	2.775	-0.004	4.0	PrematurePress	0	0.079	n/a	1	5	ButtonPress	MissedWin	True
62.156	0.33	Win2	0.6667000000000001	n/a	No	2.775	n/a	n/a	PrematurePress	0	n/a	n/a	1	5	Blank	MissedWin	True
62.474	1.45	Win2	0.6667000000000001	n/a	No	2.775	n/a	5.0	PrematurePress	0	0.038	61.512	1	5	Feedback	MissedWin	True
63.928	2.775	Win2	0.6667000000000001	n/a	No	2.775	n/a	n/a	PrematurePress	0	0.0	n/a	1	5	ISIslide	MissedWin	True
66.72	0.25	Lose2	0.7143	0.0	Yes	2.73	0.02	n/a	GoodResponse	0	n/a	n/a	1	6	Cue	AvoidedLoss	True
66.97	3.95	Lose2	0.7143	0.0	Yes	2.73	0.0	n/a	GoodResponse	0	n/a	n/a	1	6	Fixation	AvoidedLoss	True
70.932	0.36	Lose2	0.7143	0.0	Yes	2.73	0.012	4.0	GoodResponse	0	0.176	70.108	1	6	Target	AvoidedLoss	True
71.108	0.3	Lose2	0.7143	0.0	Yes	2.73	0.012	4.0	GoodResponse	0	0.176	n/a	1	6	ButtonPress	AvoidedLoss	True
71.283	0.34	Lose2	0.7143	n/a	Yes	2.73	n/a	n/a	GoodResponse	0	n/a	n/a	1	6	Blank	AvoidedLoss	True
71.618	1.45	Lose2	0.7143	n/a	Yes	2.73	n/a	5.0	GoodResponse	0	0.016	70.634	1	6	Feedback	AvoidedLoss	True
73.072	2.73	Lose2	0.7143	n/a	Yes	2.73	n/a	n/a	GoodResponse	0	0.0	n/a	1	6	ISIslide	AvoidedLoss	True
75.813	0.25	Lose2	0.75	0.001	Yes	4.037	0.013	n/a	GoodResponse	0	n/a	n/a	1	7	Cue	AvoidedLoss	True
76.064	4.05	Lose2	0.75	0.0	Yes	4.037	0.001	n/a	GoodResponse	0	n/a	n/a	1	7	Fixation	AvoidedLoss	True
80.11	0.35	Lose2	0.75	0.003	Yes	4.037	-0.003	4.0	GoodResponse	0	0.155	79.265	1	7	Target	AvoidedLoss	True
80.265	0.3	Lose2	0.75	0.003	Yes	4.037	-0.003	4.0	GoodResponse	0	0.155	n/a	1	7	ButtonPress	AvoidedLoss	True
80.461	0.35	Lose2	0.75	n/a	Yes	4.037	n/a	n/a	GoodResponse	0	n/a	n/a	1	7	Blank	AvoidedLoss	True
80.812	1.45	Lose2	0.75	n/a	Yes	4.037	n/a	5.0	GoodResponse	0	0.041	79.853	1	7	Feedback	AvoidedLoss	True
82.266	4.037	Lose2	0.75	n/a	Yes	4.037	n/a	n/a	GoodResponse	0	0.0	n/a	1	7	ISIslide	AvoidedLoss	True
86.328	0.25	Lose2	0.7778	0.0	Yes	3.022	0.028	n/a	GoodResponse	0	n/a	n/a	1	8	Cue	AvoidedLoss	True
86.579	3.95	Lose2	0.7778	0.0	Yes	3.022	0.001	n/a	GoodResponse	0	n/a	n/a	1	8	Fixation	AvoidedLoss	True
90.524	0.34	Lose2	0.7778	0.004	Yes	3.022	-0.004	4.0	GoodResponse	0	0.163	89.687	1	8	Target	AvoidedLoss	True
90.687	0.3	Lose2	0.7778	0.004	Yes	3.022	-0.004	4.0	GoodResponse	0	0.163	n/a	1	8	ButtonPress	AvoidedLoss	True
90.875	0.36	Lose2	0.7778	n/a	Yes	3.022	n/a	n/a	GoodResponse	0	n/a	n/a	1	8	Blank	AvoidedLoss	True
91.226	1.45	Lose2	0.7778	n/a	Yes	3.022	n/a	5.0	GoodResponse	0	0.018	90.244	1	8	Feedback	AvoidedLoss	True
92.681	3.022	Lose2	0.7778	n/a	Yes	3.022	n/a	n/a	GoodResponse	0	0.0	n/a	1	8	ISIslide	AvoidedLoss	True
95.723	0.25	Lose2	0.8	0.0	Yes	3.127	0.023	n/a	GoodResponse	0	n/a	n/a	1	9	Cue	AvoidedLoss	True
95.974	3.95	Lose2	0.8	0.0	Yes	3.127	0.001	n/a	GoodResponse	0	n/a	n/a	1	9	Fixation	AvoidedLoss	True
99.919	0.33	Lose2	0.8	0.004	Yes	3.127	-0.004	4.0	GoodResponse	0	0.17	99.089	1	9	Target	AvoidedLoss	True
100.089	0.3	Lose2	0.8	0.004	Yes	3.127	-0.004	4.0	GoodResponse	0	0.17	n/a	1	9	ButtonPress	AvoidedLoss	True
100.253	0.37	Lose2	0.8	n/a	Yes	3.127	n/a	n/a	GoodResponse	0	n/a	n/a	1	9	Blank	AvoidedLoss	True
100.621	1.45	Lose2	0.8	n/a	Yes	3.127	n/a	5.0	GoodResponse	0	0.036	99.657	1	9	Feedback	AvoidedLoss	True
102.075	3.127	Lose2	0.8	n/a	Yes	3.127	n/a	n/a	GoodResponse	0	0.0	n/a	1	9	ISIslide	AvoidedLoss	True
105.218	0.25	Control	0.8181999999999999	0.0	Yes	3.282	0.018	n/a	GoodResponse	0	n/a	n/a	1	10	Cue	Neutral	True
105.469	4.0	Control	0.8181999999999999	0.0	Yes	3.282	0.001	n/a	GoodResponse	0	n/a	n/a	1	10	Fixation	Neutral	True
109.464	0.32	Control	0.8181999999999999	0.004	Yes	3.282	-0.004	4.0	GoodResponse	0	0.152	108.616	1	10	Target	Neutral	True
109.616	0.3	Control	0.8181999999999999	0.004	Yes	3.282	-0.004	4.0	GoodResponse	0	0.152	n/a	1	10	ButtonPress	Neutral	True
109.799	0.38	Control	0.8181999999999999	n/a	Yes	3.282	n/a	n/a	GoodResponse	0	n/a	n/a	1	10	Blank	Neutral	True
110.166	1.45	Control	0.8181999999999999	n/a	Yes	3.282	n/a	5.0	GoodResponse	0	0.004	109.17	1	10	Feedback	Neutral	True
111.621	3.282	Control	0.8181999999999999	n/a	Yes	3.282	n/a	n/a	GoodResponse	0	0.0	n/a	1	10	ISIslide	Neutral	True
114.914	0.25	Lose2	0.8332999999999999	0.0	Yes	2.736	0.014	n/a	GoodResponse	0	n/a	n/a	1	11	Cue	AvoidedLoss	True
115.165	4.05	Lose2	0.8332999999999999	0.0	Yes	2.736	0.001	n/a	GoodResponse	0	n/a	n/a	1	11	Fixation	AvoidedLoss	True
119.21	0.31	Lose2	0.8332999999999999	0.004	Yes	2.736	-0.004	4.0	GoodResponse	0	0.161	118.371	1	11	Target	AvoidedLoss	True
119.371	0.3	Lose2	0.8332999999999999	0.004	Yes	2.736	-0.004	4.0	GoodResponse	0	0.161	n/a	1	11	ButtonPress	AvoidedLoss	True
119.528	0.39	Lose2	0.8332999999999999	n/a	Yes	2.736	n/a	n/a	GoodResponse	0	n/a	n/a	1	11	Blank	AvoidedLoss	True
119.912	1.45	Lose2	0.8332999999999999	n/a	Yes	2.736	n/a	5.0	GoodResponse	0	0.014	118.926	1	11	Feedback	AvoidedLoss	True
121.366	2.736	Lose2	0.8332999999999999	n/a	Yes	2.736	n/a	n/a	GoodResponse	0	0.0	n/a	1	11	ISIslide	AvoidedLoss	True
124.125	0.25	Control	0.7692	0.0	No	2.975	0.025	n/a	NoResponse	0	n/a	n/a	1	12	Cue	Neutral	True
124.376	3.9	Control	0.7692	0.0	No	2.975	0.001	4.0	NoResponse	0	3.226	126.602	1	12	Fixation	Neutral	True
127.602	0.3	Control	0.7692	0.0	No	2.975	0.001	4.0	NoResponse	0	3.226	n/a	1	12	ButtonPress	Neutral	True
128.271	0.3	Control	0.7692	0.004	No	2.975	-0.004	n/a	NoResponse	0	n/a	n/a	1	12	Target	Neutral	True
128.571	0.4	Control	0.7692	n/a	No	2.975	n/a	n/a	NoResponse	0	n/a	n/a	1	12	Blank	Neutral	True
128.973	1.45	Control	0.7692	n/a	No	2.975	n/a	5.0	NoResponse	0	0.026	127.999	1	12	Feedback	Neutral	True
130.427	2.975	Control	0.7692	n/a	No	2.975	n/a	n/a	NoResponse	0	0.0	n/a	1	12	ISIslide	Neutral	True
133.419	0.25	Control	0.7857	0.0	Yes	2.781	0.019	n/a	GoodResponse	0	n/a	n/a	1	13	Cue	Neutral	True
133.67	4.0	Control	0.7857	0.0	Yes	2.781	0.001	n/a	GoodResponse	0	n/a	n/a	1	13	Fixation	Neutral	True
137.665	0.29	Control	0.7857	0.004	Yes	2.781	-0.004	4.0	GoodResponse	0	0.179	136.844	1	13	Target	Neutral	True
137.844	0.3	Control	0.7857	0.004	Yes	2.781	-0.004	4.0	GoodResponse	0	0.179	n/a	1	13	ButtonPress	Neutral	True
137.966	0.41	Control	0.7857	n/a	Yes	2.781	n/a	n/a	GoodResponse	0	n/a	n/a	1	13	Blank	Neutral	True
138.367	1.45	Control	0.7857	n/a	Yes	2.781	n/a	5.0	GoodResponse	0	0.047	137.414	1	13	Feedback	Neutral	True
139.822	2.781	Control	0.7857	n/a	Yes	2.781	n/a	n/a	GoodResponse	0	0.0	n/a	1	13	ISIslide	Neutral	True
142.613	0.25	Win2	0.8	0.001	Yes	2.687	0.013	n/a	GoodResponse	1	n/a	n/a	2	14	Cue	Win	True
142.864	4.1	Win2	0.8	0.0	Yes	2.687	0.001	n/a	GoodResponse	1	n/a	n/a	2	14	Fixation	Win	True
146.96	0.28	Win2	0.8	0.003	Yes	2.687	-0.003	4.0	GoodResponse	1	0.147	146.107	2	14	Target	Win	True
147.107	0.3	Win2	0.8	0.003	Yes	2.687	-0.003	4.0	GoodResponse	1	0.147	n/a	2	14	ButtonPress	Win	True
147.244	0.42	Win2	0.8	n/a	Yes	2.687	n/a	n/a	GoodResponse	1	n/a	n/a	2	14	Blank	Win	True
147.662	1.45	Win2	0.8	n/a	Yes	2.687	n/a	5.0	GoodResponse	1	0.019	146.681	2	14	Feedback	Win	True
149.116	2.687	Win2	0.8	n/a	Yes	2.687	n/a	n/a	GoodResponse	1	0.0	n/a	2	14	ISIslide	Win	True
151.824	0.25	Control	0.8125	0.0	Yes	2.976	0.024	n/a	GoodResponse	0	n/a	n/a	2	15	Cue	Neutral	True
152.075	4.0	Control	0.8125	0.0	Yes	2.976	0.001	n/a	GoodResponse	0	n/a	n/a	2	15	Fixation	Neutral	True
156.07	0.27	Control	0.8125	0.004	Yes	2.976	-0.004	4.0	GoodResponse	0	0.183	155.253	2	15	Target	Neutral	True
156.253	0.3	Control	0.8125	0.004	Yes	2.976	-0.004	4.0	GoodResponse	0	0.183	n/a	2	15	ButtonPress	Neutral	True
156.355	0.43	Control	0.8125	n/a	Yes	2.976	n/a	n/a	GoodResponse	0	n/a	n/a	2	15	Blank	Neutral	True
156.772	1.45	Control	0.8125	n/a	Yes	2.976	n/a	5.0	GoodResponse	0	0.031	155.803	2	15	Feedback	Neutral	True
158.227	2.976	Control	0.8125	n/a	Yes	2.976	n/a	n/a	GoodResponse	0	0.0	n/a	2	15	ISIslide	Neutral	True
161.219	0.25	Win2	0.8234999999999999	0.0	Yes	2.881	0.019	n/a	GoodResponse	1	n/a	n/a	3	16	Cue	Win	True
161.47	4.0	Win2	0.8234999999999999	0.0	Yes	2.881	0.001	n/a	GoodResponse	1	n/a	n/a	3	16	Fixation	Win	True
165.465	0.26	Win2	0.8234999999999999	0.004	Yes	2.881	-0.004	4.0	GoodResponse	1	0.169	164.634	3	16	Target	Win	True
165.634	0.3	Win2	0.8234999999999999	0.004	Yes	2.881	-0.004	4.0	GoodResponse	1	0.169	n/a	3	16	ButtonPress	Win	True
165.733	0.44	Win2	0.8234999999999999	n/a	Yes	2.881	n/a	n/a	GoodResponse	1	n/a	n/a	3	16	Blank	Win	True
166.167	1.45	Win2	0.8234999999999999	n/a	Yes	2.881	n/a	5.0	GoodResponse	1	0.002	165.169	3	16	Feedback	Win	True
167.622	2.881	Win2	0.8234999999999999	n/a	Yes	2.881	n/a	n/a	GoodResponse	1	0.0	n/a	3	16	ISIslide	Win	True
170.514	0.25	Lose2	0.8332999999999999	0.0	Yes	2.736	0.014	n/a	GoodResponse	0	n/a	n/a	3	17	Cue	AvoidedLoss	True
170.764	3.95	Lose2	0.8332999999999999	0.0	Yes	2.736	0.0	n/a	GoodResponse	0	n/a	n/a	3	17	Fixation	AvoidedLoss	True
174.71	0.25	Lose2	0.8332999999999999	0.004	Yes	2.736	-0.004	4.0	GoodResponse	0	0.173	173.883	3	17	Target	AvoidedLoss	True
174.883	0.3	Lose2	0.8332999999999999	0.004	Yes	2.736	-0.004	4.0	GoodResponse	0	0.173	n/a	3	17	ButtonPress	AvoidedLoss	True
174.96	0.45	Lose2	0.8332999999999999	n/a	Yes	2.736	n/a	n/a	GoodResponse	0	n/a	n/a	3	17	Blank	AvoidedLoss	True
175.412	1.45	Lose2	0.8332999999999999	n/a	Yes	2.736	n/a	5.0	GoodResponse	0	0.026	174.438	3	17	Feedback	AvoidedLoss	True
176.866	2.736	Lose2	0.8332999999999999	n/a	Yes	2.736	n/a	n/a	GoodResponse	0	0.0	n/a	3	17	ISIslide	AvoidedLoss	True
179.624	0.25	Lose2	0.8421	0.0	Yes	2.726	0.024	n/a	GoodResponse	0	n/a	n/a	3	18	Cue	AvoidedLoss	True
179.875	4.05	Lose2	0.8421	0.0	Yes	2.726	0.001	n/a	GoodResponse	0	n/a	n/a	3	18	Fixation	AvoidedLoss	True
183.92	0.24	Lose2	0.8421	0.004	Yes	2.726	-0.004	4.0	GoodResponse	0	0.18	183.1	3	18	Target	AvoidedLoss	True
184.1	0.3	Lose2	0.8421	0.004	Yes	2.726	-0.004	4.0	GoodResponse	0	0.18	n/a	3	18	ButtonPress	AvoidedLoss	True
184.171	0.46	Lose2	0.8421	n/a	Yes	2.726	n/a	n/a	GoodResponse	0	n/a	n/a	3	18	Blank	AvoidedLoss	True
184.623	1.45	Lose2	0.8421	n/a	Yes	2.726	n/a	5.0	GoodResponse	0	0.034	183.657	3	18	Feedback	AvoidedLoss	True
186.077	2.726	Lose2	0.8421	n/a	Yes	2.726	n/a	n/a	GoodResponse	0	0.0	n/a	3	18	ISIslide	AvoidedLoss	True
188.818	0.25	Control	0.85	0.0	Yes	2.932	0.018	n/a	GoodResponse	0	n/a	n/a	3	19	Cue	Neutral	True
189.069	3.95	Control	0.85	0.0	Yes	2.932	0.001	n/a	GoodResponse	0	n/a	n/a	3	19	Fixation	Neutral	True
193.014	0.23	Control	0.85	0.004	Yes	2.932	-0.004	4.0	GoodResponse	0	0.182	192.196	3	19	Target	Neutral	True
193.196	0.3	Control	0.85	0.004	Yes	2.932	-0.004	4.0	GoodResponse	0	0.182	n/a	3	19	ButtonPress	Neutral	True
193.248	0.47	Control	0.85	n/a	Yes	2.932	n/a	n/a	GoodResponse	0	n/a	n/a	3	19	Blank	Neutral	True
193.716	1.45	Control	0.85	n/a	Yes	2.932	n/a	5.0	GoodResponse	0	0.015	192.731	3	19	Feedback	Neutral	True
195.171	2.932	Control	0.85	n/a	Yes	2.932	n/a	n/a	GoodResponse	0	0.0	n/a	3	19	ISIslide	Neutral	True
198.113	0.25	Control	0.8571	0.0	Yes	2.637	0.013	n/a	GoodResponse	0	n/a	n/a	3	20	Cue	Neutral	True
198.364	4.05	Control	0.8571	0.0	Yes	2.637	0.001	n/a	GoodResponse	0	n/a	n/a	3	20	Fixation	Neutral	True
202.409	0.22	Control	0.8571	0.004	Yes	2.637	-0.004	4.0	GoodResponse	0	0.183	201.592	3	20	Target	Neutral	True
202.592	0.3	Control	0.8571	0.004	Yes	2.637	-0.004	4.0	GoodResponse	0	0.183	n/a	3	20	ButtonPress	Neutral	True
202.643	0.48	Control	0.8571	n/a	Yes	2.637	n/a	n/a	GoodResponse	0	n/a	n/a	3	20	Blank	Neutral	True
203.111	1.45	Control	0.8571	n/a	Yes	2.637	n/a	5.0	GoodResponse	0	0.033	202.144	3	20	Feedback	Neutral	True
204.566	2.637	Control	0.8571	n/a	Yes	2.637	n/a	n/a	GoodResponse	0	0.0	n/a	3	20	ISIslide	Neutral	True
207.223	0.25	Control	0.8636	0.001	Yes	2.777	0.023	n/a	GoodResponse	0	n/a	n/a	3	21	Cue	Neutral	True
207.474	4.1	Control	0.8636	0.0	Yes	2.777	0.001	n/a	GoodResponse	0	n/a	n/a	3	21	Fixation	Neutral	True
211.57	0.21	Control	0.8636	0.003	Yes	2.777	-0.003	4.0	GoodResponse	0	0.177	210.747	3	21	Target	Neutral	True
211.747	0.3	Control	0.8636	0.003	Yes	2.777	-0.003	4.0	GoodResponse	0	0.177	n/a	3	21	ButtonPress	Neutral	True
211.787	0.49	Control	0.8636	n/a	Yes	2.777	n/a	n/a	GoodResponse	0	n/a	n/a	3	21	Blank	Neutral	True
212.272	1.45	Control	0.8636	n/a	Yes	2.777	n/a	5.0	GoodResponse	0	0.043	211.315	3	21	Feedback	Neutral	True
213.726	2.777	Control	0.8636	n/a	Yes	2.777	n/a	n/a	GoodResponse	0	0.0	n/a	3	21	ISIslide	Neutral	True
216.518	0.25	Control	0.8695999999999999	0.0	Yes	2.782	0.018	n/a	GoodResponse	0	n/a	n/a	3	22	Cue	Neutral	True
216.769	4.0	Control	0.8695999999999999	0.0	Yes	2.782	0.001	n/a	GoodResponse	0	n/a	n/a	3	22	Fixation	Neutral	True
220.764	0.2	Control	0.8695999999999999	0.004	Yes	2.782	-0.004	4.0	GoodResponse	0	0.19	219.954	3	22	Target	Neutral	True
220.954	0.3	Control	0.8695999999999999	0.004	Yes	2.782	-0.004	4.0	GoodResponse	0	0.19	n/a	3	22	ButtonPress	Neutral	True
220.965	0.5	Control	0.8695999999999999	n/a	Yes	2.782	n/a	n/a	GoodResponse	0	n/a	n/a	3	22	Blank	Neutral	True
221.466	1.45	Control	0.8695999999999999	n/a	Yes	2.782	n/a	5.0	GoodResponse	0	0.02	220.486	3	22	Feedback	Neutral	True
222.92	2.782	Control	0.8695999999999999	n/a	Yes	2.782	n/a	n/a	GoodResponse	0	0.0	n/a	3	22	ISIslide	Neutral	True
225.729	0.25	Control	0.875	0.0	Yes	2.771	0.029	n/a	GoodResponse	0	n/a	n/a	3	23	Cue	Neutral	True
225.98	3.9	Control	0.875	0.0	Yes	2.771	0.001	n/a	GoodResponse	0	n/a	n/a	3	23	Fixation	Neutral	True
229.875	0.19	Control	0.875	0.004	Yes	2.771	-0.004	4.0	GoodResponse	0	0.186	229.061	3	23	Target	Neutral	True
230.061	0.3	Control	0.875	0.004	Yes	2.771	-0.004	4.0	GoodResponse	0	0.186	n/a	3	23	ButtonPress	Neutral	True
230.075	0.51	Control	0.875	n/a	Yes	2.771	n/a	n/a	GoodResponse	0	n/a	n/a	3	23	Blank	Neutral	True
230.577	1.45	Control	0.875	n/a	Yes	2.771	n/a	5.0	GoodResponse	0	0.031	229.608	3	23	Feedback	Neutral	True
232.031	2.771	Control	0.875	n/a	Yes	2.771	n/a	n/a	GoodResponse	0	0.0	n/a	3	23	ISIslide	Neutral	True
234.823	0.25	Win2	0.88	0.0	Yes	3.127	0.023	n/a	GoodResponse	1	n/a	n/a	4	24	Cue	Win	True
235.074	3.95	Win2	0.88	0.0	Yes	3.127	0.001	n/a	GoodResponse	1	n/a	n/a	4	24	Fixation	Win	True
239.019	0.18	Win2	0.88	0.004	Yes	3.127	-0.004	4.0	GoodResponse	1	0.179	238.198	4	24	Target	Win	True
239.198	0.3	Win2	0.88	0.004	Yes	3.127	-0.004	4.0	GoodResponse	1	0.179	n/a	4	24	ButtonPress	Win	True
239.203	0.52	Win2	0.88	n/a	Yes	3.127	n/a	n/a	GoodResponse	1	n/a	n/a	4	24	Blank	Win	True
239.721	1.45	Win2	0.88	n/a	Yes	3.127	n/a	5.0	GoodResponse	1	0.009	238.73	4	24	Feedback	Win	True
241.175	3.127	Win2	0.88	n/a	Yes	3.127	n/a	n/a	GoodResponse	1	0.0	n/a	4	24	ISIslide	Win	True
244.318	0.25	Win2	0.8462000000000001	0.0	No	3.082	0.018	n/a	LatePress	0	n/a	n/a	4	25	Cue	MissedWin	True
244.569	4.0	Win2	0.8462000000000001	0.0	No	3.082	0.001	n/a	LatePress	0	n/a	n/a	4	25	Fixation	MissedWin	True
248.564	0.17	Win2	0.8462000000000001	0.004	No	3.082	-0.004	4.0	LatePress	0	0.176	247.74	4	25	Target	MissedWin	True
248.74	0.3	Win2	0.8462000000000001	0.004	No	3.082	-0.004	4.0	LatePress	0	0.176	n/a	4	25	ButtonPress	MissedWin	True
248.748	0.53	Win2	0.8462000000000001	n/a	No	3.082	n/a	n/a	LatePress	0	n/a	n/a	4	25	Blank	MissedWin	True
249.266	1.45	Win2	0.8462000000000001	n/a	No	3.082	n/a	5.0	LatePress	0	0.024	248.29	4	25	Feedback	MissedWin	True
250.72	3.082	Win2	0.8462000000000001	n/a	No	3.082	n/a	n/a	LatePress	0	0.0	n/a	4	25	ISIslide	MissedWin	True
253.83	0.25	Win2	0.8148000000000001	0.0	No	2.92	0.03	n/a	LatePress	0	n/a	n/a	4	26	Cue	MissedWin	True
254.08	3.95	Win2	0.8148000000000001	0.0	No	2.92	0.0	n/a	LatePress	0	n/a	n/a	4	26	Fixation	MissedWin	True
258.026	0.16	Win2	0.8148000000000001	0.004	No	2.92	-0.004	4.0	LatePress	0	0.162	257.188	4	26	Target	MissedWin	True
258.188	0.3	Win2	0.8148000000000001	0.004	No	2.92	-0.004	4.0	LatePress	0	0.162	n/a	4	26	ButtonPress	MissedWin	True
258.193	0.54	Win2	0.8148000000000001	n/a	No	2.92	n/a	n/a	LatePress	0	n/a	n/a	4	26	Blank	MissedWin	True
258.728	1.45	Win2	0.8148000000000001	n/a	No	2.92	n/a	5.0	LatePress	0	0.026	257.754	4	26	Feedback	MissedWin	True
260.182	2.92	Win2	0.8148000000000001	n/a	No	2.92	n/a	n/a	LatePress	0	0.0	n/a	4	26	ISIslide	MissedWin	True
263.124	0.25	Lose2	0.7857	0.0	No	2.826	0.024	n/a	NoResponse	-1	n/a	n/a	3	27	Cue	Loss	True
263.375	4.05	Lose2	0.7857	0.0	No	2.826	0.001	n/a	NoResponse	-1	n/a	n/a	3	27	Fixation	Loss	True
267.42	0.15	Lose2	0.7857	0.004	No	2.826	-0.004	4.0	NoResponse	-1	0.171	266.591	3	27	Target	Loss	True
267.571	0.55	Lose2	0.7857	n/a	No	2.826	n/a	n/a	NoResponse	-1	n/a	n/a	3	27	Blank	Loss	True
267.591	0.3	Lose2	0.7857	0.004	No	2.826	-0.004	4.0	NoResponse	-1	0.171	n/a	3	27	ButtonPress	Loss	True
268.122	1.45	Lose2	0.7857	n/a	No	2.826	n/a	5.0	NoResponse	-1	0.046	267.168	3	27	Feedback	Loss	True
269.577	2.826	Lose2	0.7857	n/a	No	2.826	n/a	n/a	NoResponse	-1	0.0	n/a	3	27	ISIslide	Loss	True
272.419	0.25	Control	0.7585999999999999	0.0	No	2.831	0.019	n/a	NoResponse	0	n/a	n/a	3	28	Cue	Neutral	True
272.669	4.05	Control	0.7585999999999999	0.0	No	2.831	0.0	n/a	NoResponse	0	n/a	n/a	3	28	Fixation	Neutral	True
276.715	0.15	Control	0.7585999999999999	0.004	No	2.831	-0.004	4.0	NoResponse	0	0.221	275.936	3	28	Target	Neutral	True
276.865	0.55	Control	0.7585999999999999	n/a	No	2.831	n/a	n/a	NoResponse	0	n/a	n/a	3	28	Blank	Neutral	True
276.936	0.3	Control	0.7585999999999999	0.004	No	2.831	-0.004	4.0	NoResponse	0	0.221	n/a	3	28	ButtonPress	Neutral	True
277.417	1.45	Control	0.7585999999999999	n/a	No	2.831	n/a	5.0	NoResponse	0	0.02	276.437	3	28	Feedback	Neutral	True
278.871	2.831	Control	0.7585999999999999	n/a	No	2.831	n/a	n/a	NoResponse	0	0.0	n/a	3	28	ISIslide	Neutral	True
281.73	0.25	Lose2	0.7667	0.0	Yes	2.82	0.03	n/a	GoodResponse	0	n/a	n/a	3	29	Cue	AvoidedLoss	True
281.981	3.95	Lose2	0.7667	0.0	Yes	2.82	0.001	n/a	GoodResponse	0	n/a	n/a	3	29	Fixation	AvoidedLoss	True
285.926	0.15	Lose2	0.7667	0.004	Yes	2.82	-0.004	4.0	GoodResponse	0	0.134	285.06	3	29	Target	AvoidedLoss	True
286.06	0.3	Lose2	0.7667	0.004	Yes	2.82	-0.004	4.0	GoodResponse	0	0.134	n/a	3	29	ButtonPress	AvoidedLoss	True
286.076	0.55	Lose2	0.7667	n/a	Yes	2.82	n/a	n/a	GoodResponse	0	n/a	n/a	3	29	Blank	AvoidedLoss	True
286.628	1.45	Lose2	0.7667	n/a	Yes	2.82	n/a	5.0	GoodResponse	0	0.028	285.656	3	29	Feedback	AvoidedLoss	True
288.082	2.82	Lose2	0.7667	n/a	Yes	2.82	n/a	n/a	GoodResponse	0	0.0	n/a	3	29	ISIslide	AvoidedLoss	True
290.924	0.25	Win2	0.7419	0.0	No	2.776	0.024	n/a	NoResponse	0	n/a	n/a	3	30	Cue	MissedWin	True
291.175	3.9	Win2	0.7419	0.0	No	2.776	0.001	n/a	NoResponse	0	n/a	n/a	3	30	Fixation	MissedWin	True
295.07	0.15	Win2	0.7419	0.004	No	2.776	-0.004	4.0	NoResponse	0	0.169	294.239	3	30	Target	MissedWin	True
295.22	0.55	Win2	0.7419	n/a	No	2.776	n/a	n/a	NoResponse	0	n/a	n/a	3	30	Blank	MissedWin	True
295.239	0.3	Win2	0.7419	0.004	No	2.776	-0.004	4.0	NoResponse	0	0.169	n/a	3	30	ButtonPress	MissedWin	True
295.772	1.45	Win2	0.7419	n/a	No	2.776	n/a	5.0	NoResponse	0	0.005	294.777	3	30	Feedback	MissedWin	True
297.226	2.776	Win2	0.7419	n/a	No	2.776	n/a	n/a	NoResponse	0	0.0	n/a	3	30	ISIslide	MissedWin	True
300.018	0.25	Lose2	0.7188	0.0	No	2.832	0.018	n/a	NoResponse	-1	n/a	n/a	2	31	Cue	Loss	True
300.269	4.05	Lose2	0.7188	0.0	No	2.832	0.001	4.0	NoResponse	-1	4.023	303.292	2	31	Fixation	Loss	True
304.292	0.3	Lose2	0.7188	0.0	No	2.832	0.001	4.0	NoResponse	-1	4.023	n/a	2	31	ButtonPress	Loss	True
304.314	0.15	Lose2	0.7188	0.004	No	2.832	-0.004	n/a	NoResponse	-1	n/a	n/a	2	31	Target	Loss	True
304.465	0.55	Lose2	0.7188	n/a	No	2.832	n/a	n/a	NoResponse	-1	n/a	n/a	2	31	Blank	Loss	True
305.016	1.45	Lose2	0.7188	n/a	No	2.832	n/a	5.0	NoResponse	-1	0.03	304.046	2	31	Feedback	Loss	True
306.471	2.832	Lose2	0.7188	n/a	No	2.832	n/a	n/a	NoResponse	-1	0.0	n/a	2	31	ISIslide	Loss	True
309.329	0.25	Lose2	0.6970000000000001	0.0	No	2.621	0.029	n/a	NoResponse	-1	n/a	n/a	1	32	Cue	Loss	True
309.58	4.15	Lose2	0.6970000000000001	0.0	No	2.621	0.001	n/a	NoResponse	-1	n/a	n/a	1	32	Fixation	Loss	True
313.726	0.15	Lose2	0.6970000000000001	0.003	No	2.621	-0.003	4.0	NoResponse	-1	0.196	312.922	1	32	Target	Loss	True
313.876	0.55	Lose2	0.6970000000000001	n/a	No	2.621	n/a	n/a	NoResponse	-1	n/a	n/a	1	32	Blank	Loss	True
313.922	0.3	Lose2	0.6970000000000001	0.003	No	2.621	-0.003	4.0	NoResponse	-1	0.196	n/a	1	32	ButtonPress	Loss	True
314.428	1.45	Lose2	0.6970000000000001	n/a	No	2.621	n/a	5.0	NoResponse	-1	0.033	313.461	1	32	Feedback	Loss	True
315.882	2.621	Lose2	0.6970000000000001	n/a	No	2.621	n/a	n/a	NoResponse	-1	0.0	n/a	1	32	ISIslide	Loss	True
318.523	0.25	Win2	0.6765000000000001	0.0	No	2.677	0.023	n/a	NoResponse	0	n/a	n/a	1	33	Cue	MissedWin	True
318.774	4.0	Win2	0.6765000000000001	0.0	No	2.677	0.001	n/a	NoResponse	0	n/a	n/a	1	33	Fixation	MissedWin	True
322.769	0.15	Win2	0.6765000000000001	0.004	No	2.677	-0.004	4.0	NoResponse	0	0.159	321.928	1	33	Target	MissedWin	True
322.92	0.55	Win2	0.6765000000000001	n/a	No	2.677	n/a	n/a	NoResponse	0	n/a	n/a	1	33	Blank	MissedWin	True
322.928	0.3	Win2	0.6765000000000001	0.004	No	2.677	-0.004	4.0	NoResponse	0	0.159	n/a	1	33	ButtonPress	MissedWin	True
323.471	1.45	Win2	0.6765000000000001	n/a	No	2.677	n/a	5.0	NoResponse	0	0.014	322.485	1	33	Feedback	MissedWin	True
324.926	2.677	Win2	0.6765000000000001	n/a	No	2.677	n/a	n/a	NoResponse	0	0.0	n/a	1	33	ISIslide	MissedWin	True
327.617	0.25	Lose2	0.6857	0.0	Yes	2.633	0.017	n/a	GoodResponse	0	n/a	n/a	1	34	Cue	AvoidedLoss	True
327.868	4.05	Lose2	0.6857	0.0	Yes	2.633	0.001	n/a	GoodResponse	0	n/a	n/a	1	34	Fixation	AvoidedLoss	True
331.913	0.15	Lose2	0.6857	0.004	Yes	2.633	-0.004	4.0	GoodResponse	0	0.112	331.025	1	34	Target	AvoidedLoss	True
332.025	0.3	Lose2	0.6857	0.004	Yes	2.633	-0.004	4.0	GoodResponse	0	0.112	n/a	1	34	ButtonPress	AvoidedLoss	True
332.064	0.55	Lose2	0.6857	n/a	Yes	2.633	n/a	n/a	GoodResponse	0	n/a	n/a	1	34	Blank	AvoidedLoss	True
332.616	1.45	Lose2	0.6857	n/a	Yes	2.633	n/a	5.0	GoodResponse	0	0.04	331.656	1	34	Feedback	AvoidedLoss	True
334.07	2.633	Lose2	0.6857	n/a	Yes	2.633	n/a	n/a	GoodResponse	0	0.0	n/a	1	34	ISIslide	AvoidedLoss	True
336.728	0.25	Lose2	0.6667000000000001	0.0	No	2.672	0.028	n/a	NoResponse	-1	n/a	n/a	0	35	Cue	Loss	True
336.979	4.0	Lose2	0.6667000000000001	0.0	No	2.672	0.001	n/a	NoResponse	-1	n/a	n/a	0	35	Fixation	Loss	True
340.974	0.15	Lose2	0.6667000000000001	0.004	No	2.672	-0.004	4.0	NoResponse	-1	0.175	340.149	0	35	Target	Loss	True
341.124	0.55	Lose2	0.6667000000000001	n/a	No	2.672	n/a	n/a	NoResponse	-1	n/a	n/a	0	35	Blank	Loss	True
341.149	0.3	Lose2	0.6667000000000001	0.004	No	2.672	-0.004	4.0	NoResponse	-1	0.175	n/a	0	35	ButtonPress	Loss	True
341.676	1.45	Lose2	0.6667000000000001	n/a	No	2.672	n/a	5.0	NoResponse	-1	0.004	340.68	0	35	Feedback	Loss	True
343.13	2.672	Lose2	0.6667000000000001	n/a	No	2.672	n/a	n/a	NoResponse	-1	0.0	n/a	0	35	ISIslide	Loss	True
345.822	0.25	Control	0.6486	0.0	No	2.678	0.022	n/a	NoResponse	0	n/a	n/a	0	36	Cue	Neutral	True
346.072	4.0	Control	0.6486	0.001	No	2.678	0.0	n/a	NoResponse	0	n/a	n/a	0	36	Fixation	Neutral	True
350.068	0.15	Control	0.6486	0.004	No	2.678	-0.004	4.0	NoResponse	0	0.162	349.23	0	36	Target	Neutral	True
350.218	0.55	Control	0.6486	n/a	No	2.678	n/a	n/a	NoResponse	0	n/a	n/a	0	36	Blank	Neutral	True
350.23	0.3	Control	0.6486	0.004	No	2.678	-0.004	4.0	NoResponse	0	0.162	n/a	0	36	ButtonPress	Neutral	True
350.77	1.45	Control	0.6486	n/a	No	2.678	n/a	5.0	NoResponse	0	0.031	349.801	0	36	Feedback	Neutral	True
352.224	2.678	Control	0.6486	n/a	No	2.678	n/a	n/a	NoResponse	0	0.0	n/a	0	36	ISIslide	Neutral	True
354.916	0.25	Win2	0.6315999999999999	0.0	No	2.884	0.016	n/a	LatePress	0	n/a	n/a	0	37	Cue	MissedWin	True
355.166	4.0	Win2	0.6315999999999999	0.0	No	2.884	0.0	n/a	LatePress	0	n/a	n/a	0	37	Fixation	MissedWin	True
359.162	0.16	Win2	0.6315999999999999	0.004	No	2.884	-0.004	4.0	LatePress	0	0.161	358.323	0	37	Target	MissedWin	True
359.323	0.3	Win2	0.6315999999999999	0.004	No	2.884	-0.004	4.0	LatePress	0	0.161	n/a	0	37	ButtonPress	MissedWin	True
359.329	0.54	Win2	0.6315999999999999	n/a	No	2.884	n/a	n/a	LatePress	0	n/a	n/a	0	37	Blank	MissedWin	True
359.864	1.45	Win2	0.6315999999999999	n/a	No	2.884	n/a	5.0	LatePress	0	0.011	358.875	0	37	Feedback	MissedWin	True
361.318	2.884	Win2	0.6315999999999999	n/a	No	2.884	n/a	n/a	LatePress	0	0.0	n/a	0	37	ISIslide	MissedWin	True
364.227	0.25	Lose2	0.6409999999999999	0.0	Yes	2.823	0.027	n/a	GoodResponse	0	n/a	n/a	0	38	Cue	AvoidedLoss	True
364.478	3.95	Lose2	0.6409999999999999	0.0	Yes	2.823	0.001	n/a	GoodResponse	0	n/a	n/a	0	38	Fixation	AvoidedLoss	True
368.423	0.17	Lose2	0.6409999999999999	0.004	Yes	2.823	-0.004	4.0	GoodResponse	0	0.156	367.579	0	38	Target	AvoidedLoss	True
368.579	0.3	Lose2	0.6409999999999999	0.004	Yes	2.823	-0.004	4.0	GoodResponse	0	0.156	n/a	0	38	ButtonPress	AvoidedLoss	True
368.607	0.53	Lose2	0.6409999999999999	n/a	Yes	2.823	n/a	n/a	GoodResponse	0	n/a	n/a	0	38	Blank	AvoidedLoss	True
369.125	1.45	Lose2	0.6409999999999999	n/a	Yes	2.823	n/a	5.0	GoodResponse	0	0.018	368.143	0	38	Feedback	AvoidedLoss	True
370.579	2.823	Lose2	0.6409999999999999	n/a	Yes	2.823	n/a	n/a	GoodResponse	0	0.0	n/a	0	38	ISIslide	AvoidedLoss	True
373.421	0.25	Win2	0.65	0.0	Yes	2.979	0.021	n/a	GoodResponse	1	n/a	n/a	1	39	Cue	Win	True
373.672	4.1	Win2	0.65	0.0	Yes	2.979	0.001	n/a	GoodResponse	1	n/a	n/a	1	39	Fixation	Win	True
377.767	0.18	Win2	0.65	0.004	Yes	2.979	-0.004	4.0	GoodResponse	1	0.178	376.945	1	39	Target	Win	True
377.945	0.3	Win2	0.65	0.004	Yes	2.979	-0.004	4.0	GoodResponse	1	0.178	n/a	1	39	ButtonPress	Win	True
377.951	0.52	Win2	0.65	n/a	Yes	2.979	n/a	n/a	GoodResponse	1	n/a	n/a	1	39	Blank	Win	True
378.469	1.45	Win2	0.65	n/a	Yes	2.979	n/a	5.0	GoodResponse	1	0.04	377.509	1	39	Feedback	Win	True
379.924	2.979	Win2	0.65	n/a	Yes	2.979	n/a	n/a	GoodResponse	1	0.0	n/a	1	39	ISIslide	Win	True
382.916	0.25	Win2	0.6585	0.0	Yes	2.734	0.016	n/a	GoodResponse	1	n/a	n/a	2	40	Cue	Win	True
383.167	3.95	Win2	0.6585	0.0	Yes	2.734	0.001	n/a	GoodResponse	1	n/a	n/a	2	40	Fixation	Win	True
387.112	0.19	Win2	0.6585	0.004	Yes	2.734	-0.004	4.0	GoodResponse	1	0.173	386.285	2	40	Target	Win	True
387.285	0.3	Win2	0.6585	0.004	Yes	2.734	-0.004	4.0	GoodResponse	1	0.173	n/a	2	40	ButtonPress	Win	True
387.313	0.51	Win2	0.6585	n/a	Yes	2.734	n/a	n/a	GoodResponse	1	n/a	n/a	2	40	Blank	Win	True
387.814	1.45	Win2	0.6585	n/a	Yes	2.734	n/a	5.0	GoodResponse	1	0.012	386.826	2	40	Feedback	Win	True
389.268	2.734	Win2	0.6585	n/a	Yes	2.734	n/a	n/a	GoodResponse	1	0.0	n/a	2	40	ISIslide	Win	True
392.027	0.25	Win2	0.6667000000000001	0.0	Yes	2.773	0.027	n/a	GoodResponse	1	n/a	n/a	3	41	Cue	Win	True
392.277	3.9	Win2	0.6667000000000001	0.0	Yes	2.773	0.0	n/a	GoodResponse	1	n/a	n/a	3	41	Fixation	Win	True
396.189	0.19	Win2	0.6667000000000001	0.0	Yes	2.773	0.012	4.0	GoodResponse	1	0.177	395.366	3	41	Target	Win	True
396.366	0.3	Win2	0.6667000000000001	0.0	Yes	2.773	0.012	4.0	GoodResponse	1	0.177	n/a	3	41	ButtonPress	Win	True
396.373	0.51	Win2	0.6667000000000001	n/a	Yes	2.773	n/a	n/a	GoodResponse	1	n/a	n/a	3	41	Blank	Win	True
396.875	1.45	Win2	0.6667000000000001	n/a	Yes	2.773	n/a	5.0	GoodResponse	1	0.023	395.898	3	41	Feedback	Win	True
398.329	2.773	Win2	0.6667000000000001	n/a	Yes	2.773	n/a	n/a	GoodResponse	1	0.0	n/a	3	41	ISIslide	Win	True
401.121	0.25	Control	0.6512	0.0	No	2.929	0.021	n/a	NoResponse	0	n/a	n/a	3	42	Cue	Neutral	True
401.371	3.85	Control	0.6512	0.0	No	2.929	0.0	n/a	NoResponse	0	n/a	n/a	3	42	Fixation	Neutral	True
405.233	0.18	Control	0.6512	0.0	No	2.929	0.012	4.0	NoResponse	0	0.182	404.415	3	42	Target	Neutral	True
405.4	0.52	Control	0.6512	n/a	No	2.929	n/a	n/a	NoResponse	0	n/a	n/a	3	42	Blank	Neutral	True
405.415	0.3	Control	0.6512	0.0	No	2.929	0.012	4.0	NoResponse	0	0.182	n/a	3	42	ButtonPress	Neutral	True
405.918	1.45	Control	0.6512	n/a	No	2.929	n/a	5.0	NoResponse	0	0.005	404.923	3	42	Feedback	Neutral	True
407.373	2.929	Control	0.6512	n/a	No	2.929	n/a	n/a	NoResponse	0	0.0	n/a	3	42	ISIslide	Neutral	True
410.315	0.25	Win2	0.6591	0.0	Yes	3.185	0.015	n/a	GoodResponse	1	n/a	n/a	4	43	Cue	Win	True
410.566	4.0	Win2	0.6591	0.0	Yes	3.185	0.001	n/a	GoodResponse	1	n/a	n/a	4	43	Fixation	Win	True
414.561	0.19	Win2	0.6591	0.004	Yes	3.185	-0.004	4.0	GoodResponse	1	0.153	413.714	4	43	Target	Win	True
414.714	0.3	Win2	0.6591	0.004	Yes	3.185	-0.004	4.0	GoodResponse	1	0.153	n/a	4	43	ButtonPress	Win	True
414.761	0.51	Win2	0.6591	n/a	Yes	3.185	n/a	n/a	GoodResponse	1	n/a	n/a	4	43	Blank	Win	True
415.263	1.45	Win2	0.6591	n/a	Yes	3.185	n/a	5.0	GoodResponse	1	0.026	414.289	4	43	Feedback	Win	True
416.717	3.185	Win2	0.6591	n/a	Yes	3.185	n/a	n/a	GoodResponse	1	0.0	n/a	4	43	ISIslide	Win	True
419.927	0.25	Win2	0.6667000000000001	0.0	Yes	2.973	0.027	n/a	GoodResponse	1	n/a	n/a	5	44	Cue	Win	True
420.178	4.0	Win2	0.6667000000000001	0.0	Yes	2.973	0.001	n/a	GoodResponse	1	n/a	n/a	5	44	Fixation	Win	True
424.173	0.19	Win2	0.6667000000000001	0.004	Yes	2.973	-0.004	4.0	GoodResponse	1	0.185	423.358	5	44	Target	Win	True
424.358	0.3	Win2	0.6667000000000001	0.004	Yes	2.973	-0.004	4.0	GoodResponse	1	0.185	n/a	5	44	ButtonPress	Win	True
424.374	0.51	Win2	0.6667000000000001	n/a	Yes	2.973	n/a	n/a	GoodResponse	1	n/a	n/a	5	44	Blank	Win	True
424.875	1.45	Win2	0.6667000000000001	n/a	Yes	2.973	n/a	5.0	GoodResponse	1	0.024	423.899	5	44	Feedback	Win	True
426.329	2.973	Win2	0.6667000000000001	n/a	Yes	2.973	n/a	n/a	GoodResponse	1	0.0	n/a	5	44	ISIslide	Win	True
429.322	0.25	Control	0.6739	0.0	Yes	2.878	0.022	n/a	GoodResponse	0	n/a	n/a	5	45	Cue	Neutral	True
429.572	4.1	Control	0.6739	0.0	Yes	2.878	0.0	n/a	GoodResponse	0	n/a	n/a	5	45	Fixation	Neutral	True
433.668	0.18	Control	0.6739	0.004	Yes	2.878	-0.004	4.0	GoodResponse	0	0.165	432.833	5	45	Target	Neutral	True
433.833	0.3	Control	0.6739	0.004	Yes	2.878	-0.004	4.0	GoodResponse	0	0.165	n/a	5	45	ButtonPress	Neutral	True
433.852	0.52	Control	0.6739	n/a	Yes	2.878	n/a	n/a	GoodResponse	0	n/a	n/a	5	45	Blank	Neutral	True
434.37	1.45	Control	0.6739	n/a	Yes	2.878	n/a	5.0	GoodResponse	0	0.041	433.411	5	45	Feedback	Neutral	True
435.824	2.878	Control	0.6739	n/a	Yes	2.878	n/a	n/a	GoodResponse	0	0.0	n/a	5	45	ISIslide	Neutral	True
438.716	0.25	Lose2	0.6809000000000001	0.001	Yes	3.384	0.016	n/a	GoodResponse	0	n/a	n/a	5	46	Cue	AvoidedLoss	True
438.967	4.0	Lose2	0.6809000000000001	0.0	Yes	3.384	0.001	n/a	GoodResponse	0	n/a	n/a	5	46	Fixation	AvoidedLoss	True
442.962	0.17	Lose2	0.6809000000000001	0.004	Yes	3.384	-0.004	4.0	GoodResponse	0	0.15	442.112	5	46	Target	AvoidedLoss	True
443.112	0.3	Lose2	0.6809000000000001	0.004	Yes	3.384	-0.004	4.0	GoodResponse	0	0.15	n/a	5	46	ButtonPress	AvoidedLoss	True
443.146	0.53	Lose2	0.6809000000000001	n/a	Yes	3.384	n/a	n/a	GoodResponse	0	n/a	n/a	5	46	Blank	AvoidedLoss	True
443.665	1.45	Lose2	0.6809000000000001	n/a	Yes	3.384	n/a	5.0	GoodResponse	0	0.015	442.68	5	46	Feedback	AvoidedLoss	True
445.119	3.384	Lose2	0.6809000000000001	n/a	Yes	3.384	n/a	n/a	GoodResponse	0	0.0	n/a	5	46	ISIslide	AvoidedLoss	True
448.529	0.25	Lose2	0.6667000000000001	0.0	No	2.671	0.029	n/a	NoResponse	-1	n/a	n/a	4	47	Cue	Loss	True
448.78	4.0	Lose2	0.6667000000000001	0.0	No	2.671	0.001	n/a	NoResponse	-1	n/a	n/a	4	47	Fixation	Loss	True
452.775	0.16	Lose2	0.6667000000000001	0.004	No	2.671	-0.004	4.0	NoResponse	-1	0.186	451.961	4	47	Target	Loss	True
452.942	0.54	Lose2	0.6667000000000001	n/a	No	2.671	n/a	n/a	NoResponse	-1	n/a	n/a	4	47	Blank	Loss	True
452.961	0.3	Lose2	0.6667000000000001	0.004	No	2.671	-0.004	4.0	NoResponse	-1	0.186	n/a	4	47	ButtonPress	Loss	True
453.477	1.45	Lose2	0.6667000000000001	n/a	No	2.671	n/a	5.0	NoResponse	-1	0.007	452.484	4	47	Feedback	Loss	True
454.932	2.671	Lose2	0.6667000000000001	n/a	No	2.671	n/a	n/a	NoResponse	-1	0.0	n/a	4	47	ISIslide	Loss	True
457.623	0.25	Lose2	0.6531	0.0	No	3.027	0.023	n/a	NoResponse	-1	n/a	n/a	3	48	Cue	Loss	True
457.874	3.95	Lose2	0.6531	0.0	No	3.027	0.001	n/a	NoResponse	-1	n/a	n/a	3	48	Fixation	Loss	True
461.819	0.15	Lose2	0.6531	0.004	No	3.027	-0.004	4.0	NoResponse	-1	0.173	460.992	3	48	Target	Loss	True
461.969	0.55	Lose2	0.6531	n/a	No	3.027	n/a	n/a	NoResponse	-1	n/a	n/a	3	48	Blank	Loss	True
461.992	0.3	Lose2	0.6531	0.004	No	3.027	-0.004	4.0	NoResponse	-1	0.173	n/a	3	48	ButtonPress	Loss	True
462.521	1.45	Lose2	0.6531	n/a	No	3.027	n/a	5.0	NoResponse	-1	0.036	461.557	3	48	Feedback	Loss	True
463.975	3.027	Lose2	0.6531	n/a	No	3.027	n/a	n/a	NoResponse	-1	0.0	n/a	3	48	ISIslide	Loss	True
467.018	0.25	Control	0.64	0.0	No	2.882	0.018	n/a	NoResponse	0	n/a	n/a	3	49	Cue	Neutral	True
467.269	4.0	Control	0.64	0.0	No	2.882	0.001	n/a	NoResponse	0	n/a	n/a	3	49	Fixation	Neutral	True
471.264	0.16	Control	0.64	0.004	No	2.882	-0.004	4.0	NoResponse	0	0.19	470.454	3	49	Target	Neutral	True
471.431	0.54	Control	0.64	n/a	No	2.882	n/a	n/a	NoResponse	0	n/a	n/a	3	49	Blank	Neutral	True
471.454	0.3	Control	0.64	0.004	No	2.882	-0.004	4.0	NoResponse	0	0.19	n/a	3	49	ButtonPress	Neutral	True
471.966	1.45	Control	0.64	n/a	No	2.882	n/a	5.0	NoResponse	0	0.006	470.972	3	49	Feedback	Neutral	True
473.42	2.882	Control	0.64	n/a	No	2.882	n/a	n/a	NoResponse	0	0.0	n/a	3	49	ISIslide	Neutral	True
476.329	0.25	Control	0.6275	0.0	No	2.771	0.029	n/a	LatePress	0	n/a	n/a	3	50	Cue	Neutral	True
476.58	4.0	Control	0.6275	0.0	No	2.771	0.001	n/a	LatePress	0	n/a	n/a	3	50	Fixation	Neutral	True
480.575	0.17	Control	0.6275	0.004	No	2.771	-0.004	4.0	LatePress	0	0.178	479.753	3	50	Target	Neutral	True
480.753	0.3	Control	0.6275	0.004	No	2.771	-0.004	4.0	LatePress	0	0.178	n/a	3	50	ButtonPress	Neutral	True
480.759	0.53	Control	0.6275	n/a	No	2.771	n/a	n/a	LatePress	0	n/a	n/a	3	50	Blank	Neutral	True
481.277	1.45	Control	0.6275	n/a	No	2.771	n/a	5.0	LatePress	0	0.012	480.289	3	50	Feedback	Neutral	True
482.732	2.771	Control	0.6275	n/a	No	2.771	n/a	n/a	LatePress	0	0.0	n/a	3	50	ISIslide	Neutral	True
485.523	0.25	Control	0.6154	0.0	No	2.727	0.023	n/a	NoResponse	0	n/a	n/a	3	51	Cue	Neutral	True
485.774	3.95	Control	0.6154	0.0	No	2.727	0.001	4.0	NoResponse	0	3.908	488.682	3	51	Fixation	Neutral	True
489.682	0.3	Control	0.6154	0.0	No	2.727	0.001	4.0	NoResponse	0	3.908	n/a	3	51	ButtonPress	Neutral	True
489.719	0.18	Control	0.6154	0.004	No	2.727	-0.004	n/a	NoResponse	0	n/a	n/a	3	51	Target	Neutral	True
489.903	0.52	Control	0.6154	n/a	No	2.727	n/a	n/a	NoResponse	0	n/a	n/a	3	51	Blank	Neutral	True
490.421	1.45	Control	0.6154	n/a	No	2.727	n/a	5.0	NoResponse	0	0.038	489.459	3	51	Feedback	Neutral	True
491.876	2.727	Control	0.6154	n/a	No	2.727	n/a	n/a	NoResponse	0	0.0	n/a	3	51	ISIslide	Neutral	True
494.617	0.25	Control	0.6038	0.0	No	2.633	0.017	n/a	LatePress	0	n/a	n/a	3	52	Cue	Neutral	True
494.868	4.05	Control	0.6038	0.0	No	2.633	0.001	n/a	LatePress	0	n/a	n/a	3	52	Fixation	Neutral	True
498.913	0.19	Control	0.6038	0.004	No	2.633	-0.004	4.0	LatePress	0	0.192	498.105	3	52	Target	Neutral	True
499.105	0.3	Control	0.6038	0.004	No	2.633	-0.004	4.0	LatePress	0	0.192	n/a	3	52	ButtonPress	Neutral	True
499.114	0.51	Control	0.6038	n/a	No	2.633	n/a	n/a	LatePress	0	n/a	n/a	3	52	Blank	Neutral	True
499.615	1.45	Control	0.6038	n/a	No	2.633	n/a	5.0	LatePress	0	0.014	498.629	3	52	Feedback	Neutral	True
501.07	2.633	Control	0.6038	n/a	No	2.633	n/a	n/a	LatePress	0	0.0	n/a	3	52	ISIslide	Neutral	True
503.728	0.25	Win2	0.6111	0.0	Yes	2.922	0.028	n/a	GoodResponse	1	n/a	n/a	4	53	Cue	Win	True
503.978	4.05	Win2	0.6111	0.001	Yes	2.922	0.0	n/a	GoodResponse	1	n/a	n/a	4	53	Fixation	Win	True
508.024	0.2	Win2	0.6111	0.004	Yes	2.922	-0.004	4.0	GoodResponse	1	0.176	507.2	4	53	Target	Win	True
508.2	0.3	Win2	0.6111	0.004	Yes	2.922	-0.004	4.0	GoodResponse	1	0.176	n/a	4	53	ButtonPress	Win	True
508.224	0.5	Win2	0.6111	n/a	Yes	2.922	n/a	n/a	GoodResponse	1	n/a	n/a	4	53	Blank	Win	True
508.726	1.45	Win2	0.6111	n/a	Yes	2.922	n/a	5.0	GoodResponse	1	0.025	507.751	4	53	Feedback	Win	True
510.18	2.922	Win2	0.6111	n/a	Yes	2.922	n/a	n/a	GoodResponse	1	0.0	n/a	4	53	ISIslide	Win	True
513.122	0.25	Win2	0.6182	0.001	Yes	2.728	0.022	n/a	GoodResponse	1	n/a	n/a	5	54	Cue	Win	True
513.373	3.95	Win2	0.6182	0.0	Yes	2.728	0.001	n/a	GoodResponse	1	n/a	n/a	5	54	Fixation	Win	True
517.318	0.21	Win2	0.6182	0.004	Yes	2.728	-0.004	4.0	GoodResponse	1	0.16	516.478	5	54	Target	Win	True
517.478	0.3	Win2	0.6182	0.004	Yes	2.728	-0.004	4.0	GoodResponse	1	0.16	n/a	5	54	ButtonPress	Win	True
517.536	0.49	Win2	0.6182	n/a	Yes	2.728	n/a	n/a	GoodResponse	1	n/a	n/a	5	54	Blank	Win	True
518.02	1.45	Win2	0.6182	n/a	Yes	2.728	n/a	5.0	GoodResponse	1	0.049	517.069	5	54	Feedback	Win	True
519.475	2.728	Win2	0.6182	n/a	Yes	2.728	n/a	n/a	GoodResponse	1	0.0	n/a	5	54	ISIslide	Win	True
522.216	0.25	Control	0.625	0.0	Yes	3.034	0.016	n/a	GoodResponse	0	n/a	n/a	5	55	Cue	Neutral	True
522.467	3.95	Control	0.625	0.0	Yes	3.034	0.001	n/a	GoodResponse	0	n/a	n/a	5	55	Fixation	Neutral	True
526.412	0.22	Control	0.625	0.004	Yes	3.034	-0.004	4.0	GoodResponse	0	0.191	525.603	5	55	Target	Neutral	True
526.603	0.3	Control	0.625	0.004	Yes	3.034	-0.004	4.0	GoodResponse	0	0.191	n/a	5	55	ButtonPress	Neutral	True
526.646	0.48	Control	0.625	n/a	Yes	3.034	n/a	n/a	GoodResponse	0	n/a	n/a	5	55	Blank	Neutral	True
527.114	1.45	Control	0.625	n/a	Yes	3.034	n/a	5.0	GoodResponse	0	0.028	526.142	5	55	Feedback	Neutral	True
528.569	3.034	Control	0.625	n/a	Yes	3.034	n/a	n/a	GoodResponse	0	0.0	n/a	5	55	ISIslide	Neutral	True
531.628	0.25	Control	0.614	0.0	No	2.822	0.028	n/a	NoResponse	0	n/a	n/a	5	56	Cue	Neutral	True
531.879	3.95	Control	0.614	0.0	No	2.822	0.001	4.0	NoResponse	0	3.825	534.704	5	56	Fixation	Neutral	True
535.704	0.3	Control	0.614	0.0	No	2.822	0.001	4.0	NoResponse	0	3.825	n/a	5	56	ButtonPress	Neutral	True
535.824	0.23	Control	0.614	0.004	No	2.822	-0.004	n/a	NoResponse	0	n/a	n/a	5	56	Target	Neutral	True
536.058	0.47	Control	0.614	n/a	No	2.822	n/a	n/a	NoResponse	0	n/a	n/a	5	56	Blank	Neutral	True
536.526	1.45	Control	0.614	n/a	No	2.822	n/a	5.0	NoResponse	0	0.031	535.557	5	56	Feedback	Neutral	True
537.98	2.822	Control	0.614	n/a	No	2.822	n/a	n/a	NoResponse	0	0.0	n/a	5	56	ISIslide	Neutral	True
540.822	0.25	Control	0.6207	0.0	Yes	3.478	0.022	n/a	GoodResponse	0	n/a	n/a	5	57	Cue	Neutral	True
541.073	4.0	Control	0.6207	0.0	Yes	3.478	0.001	n/a	GoodResponse	0	n/a	n/a	5	57	Fixation	Neutral	True
545.068	0.24	Control	0.6207	0.004	Yes	3.478	-0.004	4.0	GoodResponse	0	0.218	544.286	5	57	Target	Neutral	True
545.286	0.3	Control	0.6207	0.004	Yes	3.478	-0.004	4.0	GoodResponse	0	0.218	n/a	5	57	ButtonPress	Neutral	True
545.319	0.46	Control	0.6207	n/a	Yes	3.478	n/a	n/a	GoodResponse	0	n/a	n/a	5	57	Blank	Neutral	True
545.77	1.45	Control	0.6207	n/a	Yes	3.478	n/a	5.0	GoodResponse	0	0.006	544.776	5	57	Feedback	Neutral	True
547.225	3.478	Control	0.6207	n/a	Yes	3.478	n/a	n/a	GoodResponse	0	0.0	n/a	5	57	ISIslide	Neutral	True
550.718	0.25	Win2	0.6271	0.0	Yes	2.732	0.018	n/a	GoodResponse	1	n/a	n/a	6	58	Cue	Win	True
550.969	4.05	Win2	0.6271	0.0	Yes	2.732	0.001	n/a	GoodResponse	1	n/a	n/a	6	58	Fixation	Win	True
555.015	0.25	Win2	0.6271	0.003	Yes	2.732	-0.003	4.0	GoodResponse	1	0.164	554.179	6	58	Target	Win	True
555.179	0.3	Win2	0.6271	0.003	Yes	2.732	-0.003	4.0	GoodResponse	1	0.164	n/a	6	58	ButtonPress	Win	True
555.265	0.45	Win2	0.6271	n/a	Yes	2.732	n/a	n/a	GoodResponse	1	n/a	n/a	6	58	Blank	Win	True
555.717	1.45	Win2	0.6271	n/a	Yes	2.732	n/a	5.0	GoodResponse	1	0.009	554.726	6	58	Feedback	Win	True
557.171	2.732	Win2	0.6271	n/a	Yes	2.732	n/a	n/a	GoodResponse	1	0.0	n/a	6	58	ISIslide	Win	True
559.929	0.25	Lose2	0.6333	0.0	Yes	2.671	0.029	n/a	GoodResponse	0	n/a	n/a	6	59	Cue	AvoidedLoss	True
560.18	4.0	Lose2	0.6333	0.0	Yes	2.671	0.001	n/a	GoodResponse	0	n/a	n/a	6	59	Fixation	AvoidedLoss	True
564.175	0.26	Lose2	0.6333	0.004	Yes	2.671	-0.004	4.0	GoodResponse	0	0.134	563.309	6	59	Target	AvoidedLoss	True
564.309	0.3	Lose2	0.6333	0.004	Yes	2.671	-0.004	4.0	GoodResponse	0	0.134	n/a	6	59	ButtonPress	AvoidedLoss	True
564.443	0.44	Lose2	0.6333	n/a	Yes	2.671	n/a	n/a	GoodResponse	0	n/a	n/a	6	59	Blank	AvoidedLoss	True
564.877	1.45	Lose2	0.6333	n/a	Yes	2.671	n/a	5.0	GoodResponse	0	0.02	563.897	6	59	Feedback	AvoidedLoss	True
566.332	2.671	Lose2	0.6333	n/a	Yes	2.671	n/a	n/a	GoodResponse	0	0.0	n/a	6	59	ISIslide	AvoidedLoss	True
569.023	0.25	Control	0.6393	0.0	Yes	2.677	0.023	n/a	GoodResponse	0	n/a	n/a	6	60	Cue	Neutral	True
569.274	4.0	Control	0.6393	0.0	Yes	2.677	0.001	n/a	GoodResponse	0	n/a	n/a	6	60	Fixation	Neutral	True
573.269	0.27	Control	0.6393	0.004	Yes	2.677	-0.004	4.0	GoodResponse	0	0.178	572.447	6	60	Target	Neutral	True
573.447	0.3	Control	0.6393	0.004	Yes	2.677	-0.004	4.0	GoodResponse	0	0.178	n/a	6	60	ButtonPress	Neutral	True
573.553	0.43	Control	0.6393	n/a	Yes	2.677	n/a	n/a	GoodResponse	0	n/a	n/a	6	60	Blank	Neutral	True
573.971	1.45	Control	0.6393	n/a	Yes	2.677	n/a	5.0	GoodResponse	0	0.048	573.019	6	60	Feedback	Neutral	True
575.426	2.677	Control	0.6393	n/a	Yes	2.677	n/a	n/a	GoodResponse	0	0.0	n/a	6	60	ISIslide	Neutral	True
578.117	0.25	Lose2	0.6452	0.0	Yes	2.983	0.017	n/a	GoodResponse	0	n/a	n/a	6	61	Cue	AvoidedLoss	True
578.368	4.0	Lose2	0.6452	0.0	Yes	2.983	0.001	n/a	GoodResponse	0	n/a	n/a	6	61	Fixation	AvoidedLoss	True
582.363	0.28	Lose2	0.6452	0.004	Yes	2.983	-0.004	4.0	GoodResponse	0	0.168	581.531	6	61	Target	AvoidedLoss	True
582.531	0.3	Lose2	0.6452	0.004	Yes	2.983	-0.004	4.0	GoodResponse	0	0.168	n/a	6	61	ButtonPress	AvoidedLoss	True
582.647	0.42	Lose2	0.6452	n/a	Yes	2.983	n/a	n/a	GoodResponse	0	n/a	n/a	6	61	Blank	AvoidedLoss	True
583.065	1.45	Lose2	0.6452	n/a	Yes	2.983	n/a	5.0	GoodResponse	0	0.028	582.093	6	61	Feedback	AvoidedLoss	True
584.52	2.983	Lose2	0.6452	n/a	Yes	2.983	n/a	n/a	GoodResponse	0	0.0	n/a	6	61	ISIslide	AvoidedLoss	True
587.529	0.25	Lose2	0.6507999999999999	0.0	Yes	2.871	0.029	n/a	GoodResponse	0	n/a	n/a	6	62	Cue	AvoidedLoss	True
587.779	3.9	Lose2	0.6507999999999999	0.0	Yes	2.871	0.0	n/a	GoodResponse	0	n/a	n/a	6	62	Fixation	AvoidedLoss	True
591.691	0.29	Lose2	0.6507999999999999	0.0	Yes	2.871	0.012	4.0	GoodResponse	0	0.196	590.887	6	62	Target	AvoidedLoss	True
591.887	0.3	Lose2	0.6507999999999999	0.0	Yes	2.871	0.012	4.0	GoodResponse	0	0.196	n/a	6	62	ButtonPress	AvoidedLoss	True
591.975	0.41	Lose2	0.6507999999999999	n/a	Yes	2.871	n/a	n/a	GoodResponse	0	n/a	n/a	6	62	Blank	AvoidedLoss	True
592.376	1.45	Lose2	0.6507999999999999	n/a	Yes	2.871	n/a	5.0	GoodResponse	0	0.034	591.41	6	62	Feedback	AvoidedLoss	True
593.831	2.871	Lose2	0.6507999999999999	n/a	Yes	2.871	n/a	n/a	GoodResponse	0	0.0	n/a	6	62	ISIslide	AvoidedLoss	True
596.723	0.25	Lose2	0.6406000000000001	0.0	No	2.627	0.023	n/a	NoResponse	-1	n/a	n/a	5	63	Cue	Loss	True
596.973	4.05	Lose2	0.6406000000000001	0.001	No	2.627	0.0	4.0	NoResponse	-1	3.956	599.929	5	63	Fixation	Loss	True
600.929	0.3	Lose2	0.6406000000000001	0.001	No	2.627	0.0	4.0	NoResponse	-1	3.956	n/a	5	63	ButtonPress	Loss	True
601.019	0.3	Lose2	0.6406000000000001	0.004	No	2.627	-0.004	n/a	NoResponse	-1	n/a	n/a	5	63	Target	Loss	True
601.32	0.4	Lose2	0.6406000000000001	n/a	No	2.627	n/a	n/a	NoResponse	-1	n/a	n/a	5	63	Blank	Loss	True
601.721	1.45	Lose2	0.6406000000000001	n/a	No	2.627	n/a	5.0	NoResponse	-1	0.005	600.726	5	63	Feedback	Loss	True
603.175	2.627	Lose2	0.6406000000000001	n/a	No	2.627	n/a	n/a	NoResponse	-1	0.0	n/a	5	63	ISIslide	Loss	True
605.817	0.25	Win2	0.6462	0.0	Yes	3.133	0.017	n/a	GoodResponse	1	n/a	n/a	6	64	Cue	Win	True
606.067	4.15	Win2	0.6462	0.0	Yes	3.133	0.0	n/a	GoodResponse	1	n/a	n/a	6	64	Fixation	Win	True
610.213	0.31	Win2	0.6462	0.004	Yes	3.133	-0.004	4.0	GoodResponse	1	0.144	609.357	6	64	Target	Win	True
610.357	0.3	Win2	0.6462	0.004	Yes	3.133	-0.004	4.0	GoodResponse	1	0.144	n/a	6	64	ButtonPress	Win	True
610.531	0.39	Win2	0.6462	n/a	Yes	3.133	n/a	n/a	GoodResponse	1	n/a	n/a	6	64	Blank	Win	True
610.915	1.45	Win2	0.6462	n/a	Yes	3.133	n/a	5.0	GoodResponse	1	0.031	609.946	6	64	Feedback	Win	True
612.37	3.133	Win2	0.6462	n/a	Yes	3.133	n/a	n/a	GoodResponse	1	0.0	n/a	6	64	ISIslide	Win	True
615.529	0.25	Control	0.6364	0.0	No	2.771	0.029	n/a	NoResponse	0	n/a	n/a	6	65	Cue	Neutral	False
615.78	4.0	Control	0.6364	0.0	No	2.771	0.001	n/a	NoResponse	0	n/a	n/a	6	65	Fixation	Neutral	False
619.775	0.32	Control	0.6364	0.004	No	2.771	-0.004	n/a	NoResponse	0	n/a	n/a	6	65	Target	Neutral	False
620.109	0.38	Control	0.6364	n/a	No	2.771	n/a	n/a	NoResponse	0	n/a	n/a	6	65	Blank	Neutral	False
620.477	1.45	Control	0.6364	n/a	No	2.771	n/a	5.0	NoResponse	0	0.03	619.507	6	65	Feedback	Neutral	False
621.932	2.771	Control	0.6364	n/a	No	2.771	n/a	n/a	NoResponse	0	0.0	n/a	6	65	ISIslide	Neutral	False
624.723	0.25	Win2	0.6418	0.0	Yes	2.777	0.023	n/a	GoodResponse	1	n/a	n/a	7	66	Cue	Win	True
624.974	3.9	Win2	0.6418	0.0	Yes	2.777	0.001	n/a	GoodResponse	1	n/a	n/a	7	66	Fixation	Win	True
628.869	0.33	Win2	0.6418	0.004	Yes	2.777	-0.004	4.0	GoodResponse	1	0.174	628.043	7	66	Target	Win	True
629.043	0.3	Win2	0.6418	0.004	Yes	2.777	-0.004	4.0	GoodResponse	1	0.174	n/a	7	66	ButtonPress	Win	True
629.203	0.37	Win2	0.6418	n/a	Yes	2.777	n/a	n/a	GoodResponse	1	n/a	n/a	7	66	Blank	Win	True
629.571	1.45	Win2	0.6418	n/a	Yes	2.777	n/a	5.0	GoodResponse	1	0.009	628.58	7	66	Feedback	Win	True
631.025	2.777	Win2	0.6418	n/a	Yes	2.777	n/a	n/a	GoodResponse	1	0.0	n/a	7	66	ISIslide	Win	True
633.817	0.25	Control	0.6470999999999999	0.0	Yes	2.733	0.017	n/a	GoodResponse	0	n/a	n/a	7	67	Cue	Neutral	True
634.068	3.95	Control	0.6470999999999999	0.0	Yes	2.733	0.001	n/a	GoodResponse	0	n/a	n/a	7	67	Fixation	Neutral	True
638.013	0.34	Control	0.6470999999999999	0.004	Yes	2.733	-0.004	4.0	GoodResponse	0	0.194	637.207	7	67	Target	Neutral	True
638.207	0.3	Control	0.6470999999999999	0.004	Yes	2.733	-0.004	4.0	GoodResponse	0	0.194	n/a	7	67	ButtonPress	Neutral	True
638.364	0.36	Control	0.6470999999999999	n/a	Yes	2.733	n/a	n/a	GoodResponse	0	n/a	n/a	7	67	Blank	Neutral	True
638.715	1.45	Control	0.6470999999999999	n/a	Yes	2.733	n/a	5.0	GoodResponse	0	0.036	637.751	7	67	Feedback	Neutral	True
640.169	2.733	Control	0.6470999999999999	n/a	Yes	2.733	n/a	n/a	GoodResponse	0	0.0	n/a	7	67	ISIslide	Neutral	True
642.928	0.25	Win2	0.6522	0.0	Yes	3.072	0.028	n/a	GoodResponse	1	n/a	n/a	8	68	Cue	Win	True
643.178	4.0	Win2	0.6522	0.001	Yes	3.072	0.0	n/a	GoodResponse	1	n/a	n/a	8	68	Fixation	Win	True
647.174	0.35	Win2	0.6522	0.004	Yes	3.072	-0.004	4.0	GoodResponse	1	0.172	646.346	8	68	Target	Win	True
647.346	0.3	Win2	0.6522	0.004	Yes	3.072	-0.004	4.0	GoodResponse	1	0.172	n/a	8	68	ButtonPress	Win	True
647.525	0.35	Win2	0.6522	n/a	Yes	3.072	n/a	n/a	GoodResponse	1	n/a	n/a	8	68	Blank	Win	True
647.876	1.45	Win2	0.6522	n/a	Yes	3.072	n/a	5.0	GoodResponse	1	0.045	646.921	8	68	Feedback	Win	True
649.33	3.072	Win2	0.6522	n/a	Yes	3.072	n/a	n/a	GoodResponse	1	0.0	n/a	8	68	ISIslide	Win	True
652.423	0.25	Win2	0.6570999999999999	0.0	Yes	3.227	0.023	n/a	GoodResponse	1	n/a	n/a	9	69	Cue	Win	True
652.674	3.95	Win2	0.6570999999999999	0.0	Yes	3.227	0.001	n/a	GoodResponse	1	n/a	n/a	9	69	Fixation	Win	True
656.619	0.36	Win2	0.6570999999999999	0.004	Yes	3.227	-0.004	4.0	GoodResponse	1	0.188	655.807	9	69	Target	Win	True
656.807	0.3	Win2	0.6570999999999999	0.004	Yes	3.227	-0.004	4.0	GoodResponse	1	0.188	n/a	9	69	ButtonPress	Win	True
656.986	0.34	Win2	0.6570999999999999	n/a	Yes	3.227	n/a	n/a	GoodResponse	1	n/a	n/a	9	69	Blank	Win	True
657.321	1.45	Win2	0.6570999999999999	n/a	Yes	3.227	n/a	5.0	GoodResponse	1	0.014	656.335	9	69	Feedback	Win	True
658.775	3.227	Win2	0.6570999999999999	n/a	Yes	3.227	n/a	n/a	GoodResponse	1	0.0	n/a	9	69	ISIslide	Win	True
662.018	0.25	Lose2	0.662	0.0	Yes	3.032	0.018	n/a	GoodResponse	0	n/a	n/a	9	70	Cue	AvoidedLoss	True
662.269	4.05	Lose2	0.662	0.0	Yes	3.032	0.001	n/a	GoodResponse	0	n/a	n/a	9	70	Fixation	AvoidedLoss	True
666.314	0.36	Lose2	0.662	0.004	Yes	3.032	-0.004	4.0	GoodResponse	0	0.164	665.478	9	70	Target	AvoidedLoss	True
666.478	0.3	Lose2	0.662	0.004	Yes	3.032	-0.004	4.0	GoodResponse	0	0.164	n/a	9	70	ButtonPress	AvoidedLoss	True
666.682	0.34	Lose2	0.662	n/a	Yes	3.032	n/a	n/a	GoodResponse	0	n/a	n/a	9	70	Blank	AvoidedLoss	True
667.016	1.45	Lose2	0.662	n/a	Yes	3.032	n/a	5.0	GoodResponse	0	0.027	666.043	9	70	Feedback	AvoidedLoss	True
668.471	3.032	Lose2	0.662	n/a	Yes	3.032	n/a	n/a	GoodResponse	0	0.0	n/a	9	70	ISIslide	AvoidedLoss	True
671.513	0.25	Win2	0.6667000000000001	0.0	Yes	2.737	0.013	n/a	GoodResponse	1	n/a	n/a	10	71	Cue	Win	True
671.764	4.05	Win2	0.6667000000000001	0.0	Yes	2.737	0.001	n/a	GoodResponse	1	n/a	n/a	10	71	Fixation	Win	True
675.809	0.36	Win2	0.6667000000000001	0.004	Yes	2.737	-0.004	4.0	GoodResponse	1	0.17	674.979	10	71	Target	Win	True
675.979	0.3	Win2	0.6667000000000001	0.004	Yes	2.737	-0.004	4.0	GoodResponse	1	0.17	n/a	10	71	ButtonPress	Win	True
676.177	0.34	Win2	0.6667000000000001	n/a	Yes	2.737	n/a	n/a	GoodResponse	1	n/a	n/a	10	71	Blank	Win	True
676.512	1.45	Win2	0.6667000000000001	n/a	Yes	2.737	n/a	5.0	GoodResponse	1	0.043	675.555	10	71	Feedback	Win	True
677.966	2.737	Win2	0.6667000000000001	n/a	Yes	2.737	n/a	n/a	GoodResponse	1	0.0	n/a	10	71	ISIslide	Win	True
680.724	0.25	Win2	0.6712	0.0	Yes	2.776	0.024	n/a	GoodResponse	1	n/a	n/a	11	72	Cue	Win	True
680.975	4.1	Win2	0.6712	0.0	Yes	2.776	0.001	n/a	GoodResponse	1	n/a	n/a	11	72	Fixation	Win	True
685.071	0.35	Win2	0.6712	0.003	Yes	2.776	-0.003	4.0	GoodResponse	1	0.188	684.259	11	72	Target	Win	True
685.259	0.3	Win2	0.6712	0.003	Yes	2.776	-0.003	4.0	GoodResponse	1	0.188	n/a	11	72	ButtonPress	Win	True
685.422	0.35	Win2	0.6712	n/a	Yes	2.776	n/a	n/a	GoodResponse	1	n/a	n/a	11	72	Blank	Win	True
685.773	1.45	Win2	0.6712	n/a	Yes	2.776	n/a	5.0	GoodResponse	1	0.003	684.776	11	72	Feedback	Win	True
687.227	2.776	Win2	0.6712	n/a	Yes	2.776	n/a	n/a	GoodResponse	1	0.0	n/a	11	72	ISIslide	Win	True
690.019	0.25	Win2	0.6757	0.0	Yes	2.681	0.019	n/a	GoodResponse	1	n/a	n/a	12	73	Cue	Win	True
690.269	4.0	Win2	0.6757	0.001	Yes	2.681	0.0	n/a	GoodResponse	1	n/a	n/a	12	73	Fixation	Win	True
694.265	0.34	Win2	0.6757	0.004	Yes	2.681	-0.004	4.0	GoodResponse	1	0.178	693.443	12	73	Target	Win	True
694.443	0.3	Win2	0.6757	0.004	Yes	2.681	-0.004	4.0	GoodResponse	1	0.178	n/a	12	73	ButtonPress	Win	True
694.616	0.36	Win2	0.6757	n/a	Yes	2.681	n/a	n/a	GoodResponse	1	n/a	n/a	12	73	Blank	Win	True
694.967	1.45	Win2	0.6757	n/a	Yes	2.681	n/a	5.0	GoodResponse	1	0.027	693.994	12	73	Feedback	Win	True
696.421	2.681	Win2	0.6757	n/a	Yes	2.681	n/a	n/a	GoodResponse	1	0.0	n/a	12	73	ISIslide	Win	True
699.129	0.25	Lose2	0.68	0.0	Yes	2.621	0.029	n/a	GoodResponse	0	n/a	n/a	12	74	Cue	AvoidedLoss	True
699.38	4.05	Lose2	0.68	0.0	Yes	2.621	0.001	n/a	GoodResponse	0	n/a	n/a	12	74	Fixation	AvoidedLoss	True
703.425	0.33	Lose2	0.68	0.004	Yes	2.621	-0.004	4.0	GoodResponse	0	0.175	702.6	12	74	Target	AvoidedLoss	True
703.6	0.3	Lose2	0.68	0.004	Yes	2.621	-0.004	4.0	GoodResponse	0	0.175	n/a	12	74	ButtonPress	AvoidedLoss	True
703.76	0.37	Lose2	0.68	n/a	Yes	2.621	n/a	n/a	GoodResponse	0	n/a	n/a	12	74	Blank	AvoidedLoss	True
704.128	1.45	Lose2	0.68	n/a	Yes	2.621	n/a	5.0	GoodResponse	0	0.036	703.164	12	74	Feedback	AvoidedLoss	True
705.582	2.621	Lose2	0.68	n/a	Yes	2.621	n/a	n/a	GoodResponse	0	0.0	n/a	12	74	ISIslide	AvoidedLoss	True
708.223	0.25	Lose2	0.6842	0.0	Yes	2.927	0.023	n/a	GoodResponse	0	n/a	n/a	12	75	Cue	AvoidedLoss	True
708.474	3.95	Lose2	0.6842	0.0	Yes	2.927	0.001	n/a	GoodResponse	0	n/a	n/a	12	75	Fixation	AvoidedLoss	True
712.419	0.32	Lose2	0.6842	0.004	Yes	2.927	-0.004	4.0	GoodResponse	0	0.176	711.595	12	75	Target	AvoidedLoss	True
712.595	0.3	Lose2	0.6842	0.004	Yes	2.927	-0.004	4.0	GoodResponse	0	0.176	n/a	12	75	ButtonPress	AvoidedLoss	True
712.753	0.38	Lose2	0.6842	n/a	Yes	2.927	n/a	n/a	GoodResponse	0	n/a	n/a	12	75	Blank	AvoidedLoss	True
713.121	1.45	Lose2	0.6842	n/a	Yes	2.927	n/a	5.0	GoodResponse	0	0.019	712.14	12	75	Feedback	AvoidedLoss	True
714.576	2.927	Lose2	0.6842	n/a	Yes	2.927	n/a	n/a	GoodResponse	0	0.0	n/a	12	75	ISIslide	AvoidedLoss	True
717.518	0.25	Control	0.6883	0.0	Yes	3.232	0.018	n/a	GoodResponse	0	n/a	n/a	12	76	Cue	Neutral	True
717.768	4.05	Control	0.6883	0.0	Yes	3.232	0.0	n/a	GoodResponse	0	n/a	n/a	12	76	Fixation	Neutral	True
721.814	0.31	Control	0.6883	0.004	Yes	3.232	-0.004	4.0	GoodResponse	0	0.199	721.013	12	76	Target	Neutral	True
722.013	0.3	Control	0.6883	0.004	Yes	3.232	-0.004	4.0	GoodResponse	0	0.199	n/a	12	76	ButtonPress	Neutral	True
722.131	0.39	Control	0.6883	n/a	Yes	3.232	n/a	n/a	GoodResponse	0	n/a	n/a	12	76	Blank	Neutral	True
722.516	1.45	Control	0.6883	n/a	Yes	3.232	n/a	5.0	GoodResponse	0	0.039	721.555	12	76	Feedback	Neutral	True
723.97	3.232	Control	0.6883	n/a	Yes	3.232	n/a	n/a	GoodResponse	0	0.0	n/a	12	76	ISIslide	Neutral	True
727.213	0.25	Lose2	0.6923	0.0	Yes	2.587	0.013	n/a	GoodResponse	0	n/a	n/a	12	77	Cue	AvoidedLoss	True
727.464	3.95	Lose2	0.6923	0.0	Yes	2.587	0.001	n/a	GoodResponse	0	n/a	n/a	12	77	Fixation	AvoidedLoss	True
731.409	0.3	Lose2	0.6923	0.004	Yes	2.587	-0.004	4.0	GoodResponse	0	0.171	730.58	12	77	Target	AvoidedLoss	True
731.58	0.3	Lose2	0.6923	0.004	Yes	2.587	-0.004	4.0	GoodResponse	0	0.171	n/a	12	77	ButtonPress	AvoidedLoss	True
731.71	0.4	Lose2	0.6923	n/a	Yes	2.587	n/a	n/a	GoodResponse	0	n/a	n/a	12	77	Blank	AvoidedLoss	True
732.111	1.45	Lose2	0.6923	n/a	Yes	2.587	n/a	5.0	GoodResponse	0	0.005	731.116	12	77	Feedback	AvoidedLoss	True
733.566	2.587	Lose2	0.6923	n/a	Yes	2.587	n/a	n/a	GoodResponse	0	0.0	n/a	12	77	ISIslide	AvoidedLoss	True
