onset	duration	cue_type	current_mean_accuracy	duration_error	is_hit	isi_adjusted	onset_delay	response	response_type	reward	rt	rt_time	total_reward	trial_number	trial_phase	trial_type	one_press
11.099	0.25	Control	1.0	0.0	Yes	2.951	-0.001	n/a	GoodResponse	0	n/a	n/a	0	0	Cue	Neutral	True
11.349	3.85	Control	1.0	0.0	Yes	2.951	0.0	n/a	GoodResponse	0	n/a	n/a	0	0	Fixation	Neutral	True
15.198	0.4	Control	1.0	0.001	Yes	2.951	-0.001	2.0	GoodResponse	0	0.372	14.57	0	0	Target	Neutral	True
15.57	0.3	Control	1.0	0.001	Yes	2.951	-0.001	2.0	GoodResponse	0	0.372	n/a	0	0	ButtonPress	Neutral	True
15.597	0.3	Control	1.0	n/a	Yes	2.951	n/a	n/a	GoodResponse	0	n/a	n/a	0	0	Blank	Neutral	True
15.897	1.45	Control	1.0	n/a	Yes	2.951	n/a	5.0	GoodResponse	0	0.033	14.93	0	0	Feedback	Neutral	True
17.347	2.951	Control	1.0	n/a	Yes	2.951	n/a	n/a	GoodResponse	0	0.0	n/a	0	0	ISIslide	Neutral	True
20.312	0.25	Lose2	1.0	0.001	Yes	2.788	0.012	n/a	GoodResponse	0	n/a	n/a	0	1	Cue	AvoidedLoss	True
20.562	4.0	Lose2	1.0	0.0	Yes	2.788	0.0	n/a	GoodResponse	0	n/a	n/a	0	1	Fixation	AvoidedLoss	True
24.561	0.39	Lose2	1.0	0.001	Yes	2.788	-0.001	2.0	GoodResponse	0	0.333	23.894	0	1	Target	AvoidedLoss	True
24.894	0.3	Lose2	1.0	0.001	Yes	2.788	-0.001	2.0	GoodResponse	0	0.333	n/a	0	1	ButtonPress	AvoidedLoss	True
24.961	0.31	Lose2	1.0	n/a	Yes	2.788	n/a	n/a	GoodResponse	0	n/a	n/a	0	1	Blank	AvoidedLoss	True
25.261	1.45	Lose2	1.0	n/a	Yes	2.788	n/a	5.0	GoodResponse	0	0.035	24.296	0	1	Feedback	AvoidedLoss	True
26.71	2.788	Lose2	1.0	n/a	Yes	2.788	n/a	n/a	GoodResponse	0	0.0	n/a	0	1	ISIslide	AvoidedLoss	True
29.526	0.25	Control	1.0	0.0	Yes	2.574	0.026	n/a	GoodResponse	0	n/a	n/a	0	2	Cue	Neutral	True
29.776	4.1	Control	1.0	0.0	Yes	2.574	0.0	n/a	GoodResponse	0	n/a	n/a	0	2	Fixation	Neutral	True
33.874	0.38	Control	1.0	0.002	Yes	2.574	-0.002	2.0	GoodResponse	0	0.288	33.162	0	2	Target	Neutral	True
34.162	0.3	Control	1.0	0.002	Yes	2.574	-0.002	2.0	GoodResponse	0	0.288	n/a	0	2	ButtonPress	Neutral	True
34.258	0.32	Control	1.0	n/a	Yes	2.574	n/a	n/a	GoodResponse	0	n/a	n/a	0	2	Blank	Neutral	True
34.574	1.45	Control	1.0	n/a	Yes	2.574	n/a	5.0	GoodResponse	0	0.038	33.612	0	2	Feedback	Neutral	True
36.024	2.574	Control	1.0	n/a	Yes	2.574	n/a	n/a	GoodResponse	0	0.0	n/a	0	2	ISIslide	Neutral	True
38.623	0.25	Win2	1.0	0.0	Yes	2.827	0.023	n/a	GoodResponse	1	n/a	n/a	1	3	Cue	Win	True
38.873	3.95	Win2	1.0	0.0	Yes	2.827	0.0	n/a	GoodResponse	1	n/a	n/a	1	3	Fixation	Win	True
42.821	0.37	Win2	1.0	0.002	Yes	2.827	-0.002	2.0	GoodResponse	1	0.316	42.137	1	3	Target	Win	True
43.137	0.3	Win2	1.0	0.002	Yes	2.827	-0.002	2.0	GoodResponse	1	0.316	n/a	1	3	ButtonPress	Win	True
43.204	0.33	Win2	1.0	n/a	Yes	2.827	n/a	n/a	GoodResponse	1	n/a	n/a	1	3	Blank	Win	True
43.521	1.45	Win2	1.0	n/a	Yes	2.827	n/a	5.0	GoodResponse	1	0.018	42.539	1	3	Feedback	Win	True
44.971	2.827	Win2	1.0	n/a	Yes	2.827	n/a	n/a	GoodResponse	1	0.0	n/a	1	3	ISIslide	Win	True
47.82	0.25	Win2	1.0	0.0	Yes	3.28	0.02	n/a	GoodResponse	1	n/a	n/a	2	4	Cue	Win	True
48.069	4.0	Win2	1.0	0.001	Yes	3.28	-0.001	n/a	GoodResponse	1	n/a	n/a	2	4	Fixation	Win	True
52.068	0.36	Win2	1.0	0.002	Yes	3.28	-0.002	2.0	GoodResponse	1	0.3	51.368	2	4	Target	Win	True
52.368	0.3	Win2	1.0	0.002	Yes	3.28	-0.002	2.0	GoodResponse	1	0.3	n/a	2	4	ButtonPress	Win	True
52.435	0.34	Win2	1.0	n/a	Yes	3.28	n/a	n/a	GoodResponse	1	n/a	n/a	2	4	Blank	Win	True
52.768	1.45	Win2	1.0	n/a	Yes	3.28	n/a	5.0	GoodResponse	1	0.039	51.807	2	4	Feedback	Win	True
54.217	3.28	Win2	1.0	n/a	Yes	3.28	n/a	n/a	GoodResponse	1	0.0	n/a	2	4	ISIslide	Win	True
57.516	0.25	Win2	1.0	0.0	Yes	2.784	0.016	n/a	GoodResponse	1	n/a	n/a	3	5	Cue	Win	True
57.766	4.0	Win2	1.0	0.0	Yes	2.784	0.0	n/a	GoodResponse	1	n/a	n/a	3	5	Fixation	Win	True
61.765	0.35	Win2	1.0	0.001	Yes	2.784	-0.001	2.0	GoodResponse	1	0.325	61.09	3	5	Target	Win	True
62.09	0.3	Win2	1.0	0.001	Yes	2.784	-0.001	2.0	GoodResponse	1	0.325	n/a	3	5	ButtonPress	Win	True
62.115	0.35	Win2	1.0	n/a	Yes	2.784	n/a	n/a	GoodResponse	1	n/a	n/a	3	5	Blank	Win	True
62.464	1.45	Win2	1.0	n/a	Yes	2.784	n/a	5.0	GoodResponse	1	0.002	61.466	3	5	Feedback	Win	True
63.914	2.784	Win2	1.0	n/a	Yes	2.784	n/a	n/a	GoodResponse	1	0.0	n/a	3	5	ISIslide	Win	True
66.713	0.25	Lose2	1.0	0.0	Yes	2.737	0.013	n/a	GoodResponse	0	n/a	n/a	3	6	Cue	AvoidedLoss	True
66.963	3.95	Lose2	1.0	0.0	Yes	2.737	0.0	n/a	GoodResponse	0	n/a	n/a	3	6	Fixation	AvoidedLoss	True
70.911	0.34	Lose2	1.0	0.002	Yes	2.737	-0.002	2.0	GoodResponse	0	0.282	70.193	3	6	Target	AvoidedLoss	True
71.193	0.3	Lose2	1.0	0.002	Yes	2.737	-0.002	2.0	GoodResponse	0	0.282	n/a	3	6	ButtonPress	AvoidedLoss	True
71.261	0.36	Lose2	1.0	n/a	Yes	2.737	n/a	n/a	GoodResponse	0	n/a	n/a	3	6	Blank	AvoidedLoss	True
71.611	1.45	Lose2	1.0	n/a	Yes	2.737	n/a	5.0	GoodResponse	0	0.026	70.637	3	6	Feedback	AvoidedLoss	True
73.061	2.737	Lose2	1.0	n/a	Yes	2.737	n/a	n/a	GoodResponse	0	0.0	n/a	3	6	ISIslide	AvoidedLoss	True
75.826	0.25	Lose2	1.0	0.0	Yes	4.024	0.026	n/a	GoodResponse	0	n/a	n/a	3	7	Cue	AvoidedLoss	True
76.076	4.05	Lose2	1.0	0.0	Yes	4.024	0.0	n/a	GoodResponse	0	n/a	n/a	3	7	Fixation	AvoidedLoss	True
80.125	0.33	Lose2	1.0	0.001	Yes	4.024	-0.001	2.0	GoodResponse	0	0.246	79.371	3	7	Target	AvoidedLoss	True
80.371	0.3	Lose2	1.0	0.001	Yes	4.024	-0.001	2.0	GoodResponse	0	0.246	n/a	3	7	ButtonPress	AvoidedLoss	True
80.458	0.37	Lose2	1.0	n/a	Yes	4.024	n/a	n/a	GoodResponse	0	n/a	n/a	3	7	Blank	AvoidedLoss	True
80.825	1.45	Lose2	1.0	n/a	Yes	4.024	n/a	5.0	GoodResponse	0	0.03	79.855	3	7	Feedback	AvoidedLoss	True
82.274	4.024	Lose2	1.0	n/a	Yes	4.024	n/a	n/a	GoodResponse	0	0.0	n/a	3	7	ISIslide	AvoidedLoss	True
86.323	0.25	Lose2	1.0	0.0	Yes	3.027	0.023	n/a	GoodResponse	0	n/a	n/a	3	8	Cue	AvoidedLoss	True
86.573	3.95	Lose2	1.0	0.0	Yes	3.027	0.0	n/a	GoodResponse	0	n/a	n/a	3	8	Fixation	AvoidedLoss	True
90.521	0.32	Lose2	1.0	0.002	Yes	3.027	-0.002	2.0	GoodResponse	0	0.285	89.806	3	8	Target	AvoidedLoss	True
90.806	0.3	Lose2	1.0	0.002	Yes	3.027	-0.002	2.0	GoodResponse	0	0.285	n/a	3	8	ButtonPress	AvoidedLoss	True
90.854	0.38	Lose2	1.0	n/a	Yes	3.027	n/a	n/a	GoodResponse	0	n/a	n/a	3	8	Blank	AvoidedLoss	True
91.221	1.45	Lose2	1.0	n/a	Yes	3.027	n/a	5.0	GoodResponse	0	0.025	90.246	3	8	Feedback	AvoidedLoss	True
92.671	3.027	Lose2	1.0	n/a	Yes	3.027	n/a	n/a	GoodResponse	0	0.0	n/a	3	8	ISIslide	AvoidedLoss	True
95.719	0.25	Lose2	1.0	0.001	Yes	3.131	0.019	n/a	GoodResponse	0	n/a	n/a	3	9	Cue	AvoidedLoss	True
95.969	3.95	Lose2	1.0	0.0	Yes	3.131	0.0	n/a	GoodResponse	0	n/a	n/a	3	9	Fixation	AvoidedLoss	True
99.918	0.31	Lose2	1.0	0.001	Yes	3.131	-0.001	2.0	GoodResponse	0	0.286	99.204	3	9	Target	AvoidedLoss	True
100.204	0.3	Lose2	1.0	0.001	Yes	3.131	-0.001	2.0	GoodResponse	0	0.286	n/a	3	9	ButtonPress	AvoidedLoss	True
100.235	0.39	Lose2	1.0	n/a	Yes	3.131	n/a	n/a	GoodResponse	0	n/a	n/a	3	9	Blank	AvoidedLoss	True
100.618	1.45	Lose2	1.0	n/a	Yes	3.131	n/a	5.0	GoodResponse	0	0.042	99.66	3	9	Feedback	AvoidedLoss	True
102.067	3.131	Lose2	1.0	n/a	Yes	3.131	n/a	n/a	GoodResponse	0	0.0	n/a	3	9	ISIslide	AvoidedLoss	True
105.216	0.25	Control	0.9091	0.0	No	3.284	0.016	n/a	NoResponse	0	n/a	n/a	3	10	Cue	Neutral	True
105.466	4.0	Control	0.9091	0.0	No	3.284	0.0	n/a	NoResponse	0	n/a	n/a	3	10	Fixation	Neutral	True
109.465	0.3	Control	0.9091	0.001	No	3.284	-0.001	2.0	NoResponse	0	0.314	108.779	3	10	Target	Neutral	True
109.765	0.4	Control	0.9091	n/a	No	3.284	n/a	n/a	NoResponse	0	n/a	n/a	3	10	Blank	Neutral	True
109.779	0.3	Control	0.9091	0.001	No	3.284	-0.001	2.0	NoResponse	0	0.314	n/a	3	10	ButtonPress	Neutral	True
110.164	1.45	Control	0.9091	n/a	No	3.284	n/a	5.0	NoResponse	0	0.009	109.173	3	10	Feedback	Neutral	True
111.614	3.284	Control	0.9091	n/a	No	3.284	n/a	n/a	NoResponse	0	0.0	n/a	3	10	ISIslide	Neutral	True
114.913	0.25	Lose2	0.9167000000000001	0.0	Yes	2.737	0.013	n/a	GoodResponse	0	n/a	n/a	3	11	Cue	AvoidedLoss	True
115.163	4.05	Lose2	0.9167000000000001	0.0	Yes	2.737	0.0	n/a	GoodResponse	0	n/a	n/a	3	11	Fixation	AvoidedLoss	True
119.211	0.29	Lose2	0.9167000000000001	0.002	Yes	2.737	-0.002	2.0	GoodResponse	0	0.222	118.433	3	11	Target	AvoidedLoss	True
119.433	0.3	Lose2	0.9167000000000001	0.002	Yes	2.737	-0.002	2.0	GoodResponse	0	0.222	n/a	3	11	ButtonPress	AvoidedLoss	True
119.511	0.41	Lose2	0.9167000000000001	n/a	Yes	2.737	n/a	n/a	GoodResponse	0	n/a	n/a	3	11	Blank	AvoidedLoss	True
119.911	1.45	Lose2	0.9167000000000001	n/a	Yes	2.737	n/a	5.0	GoodResponse	0	0.018	118.929	3	11	Feedback	AvoidedLoss	True
121.361	2.737	Lose2	0.9167000000000001	n/a	Yes	2.737	n/a	n/a	GoodResponse	0	0.0	n/a	3	11	ISIslide	AvoidedLoss	True
124.126	0.25	Control	0.8462000000000001	0.0	No	2.974	0.026	n/a	NoResponse	0	n/a	n/a	3	12	Cue	Neutral	True
124.376	3.9	Control	0.8462000000000001	0.0	No	2.974	0.0	n/a	NoResponse	0	n/a	n/a	3	12	Fixation	Neutral	True
128.275	0.28	Control	0.8462000000000001	0.001	No	2.974	-0.001	2.0	NoResponse	0	0.331	127.606	3	12	Target	Neutral	True
128.558	0.42	Control	0.8462000000000001	n/a	No	2.974	n/a	n/a	NoResponse	0	n/a	n/a	3	12	Blank	Neutral	True
128.606	0.3	Control	0.8462000000000001	0.001	No	2.974	-0.001	2.0	NoResponse	0	0.331	n/a	3	12	ButtonPress	Neutral	True
128.975	1.45	Control	0.8462000000000001	n/a	No	2.974	n/a	5.0	NoResponse	0	0.026	128.001	3	12	Feedback	Neutral	True
130.424	2.974	Control	0.8462000000000001	n/a	No	2.974	n/a	n/a	NoResponse	0	0.0	n/a	3	12	ISIslide	Neutral	True
133.423	0.25	Control	0.7857	0.0	No	2.777	0.023	n/a	NoResponse	0	n/a	n/a	3	13	Cue	Neutral	True
133.673	4.0	Control	0.7857	0.0	No	2.777	0.0	n/a	NoResponse	0	n/a	n/a	3	13	Fixation	Neutral	True
137.672	0.27	Control	0.7857	0.001	No	2.777	-0.001	2.0	NoResponse	0	0.321	136.993	3	13	Target	Neutral	True
137.955	0.43	Control	0.7857	n/a	No	2.777	n/a	n/a	NoResponse	0	n/a	n/a	3	13	Blank	Neutral	True
137.993	0.3	Control	0.7857	0.001	No	2.777	-0.001	2.0	NoResponse	0	0.321	n/a	3	13	ButtonPress	Neutral	True
138.371	1.45	Control	0.7857	n/a	No	2.777	n/a	5.0	NoResponse	0	0.045	137.416	3	13	Feedback	Neutral	True
139.821	2.777	Control	0.7857	n/a	No	2.777	n/a	n/a	NoResponse	0	0.0	n/a	3	13	ISIslide	Neutral	True
142.62	0.25	Win2	0.8	0.0	Yes	2.68	0.02	n/a	GoodResponse	1	n/a	n/a	4	14	Cue	Win	True
142.87	4.1	Win2	0.8	0.0	Yes	2.68	0.0	n/a	GoodResponse	1	n/a	n/a	4	14	Fixation	Win	True
146.968	0.26	Win2	0.8	0.002	Yes	2.68	-0.002	2.0	GoodResponse	1	0.256	146.224	4	14	Target	Win	True
147.224	0.3	Win2	0.8	0.002	Yes	2.68	-0.002	2.0	GoodResponse	1	0.256	n/a	4	14	ButtonPress	Win	True
147.235	0.44	Win2	0.8	n/a	Yes	2.68	n/a	n/a	GoodResponse	1	n/a	n/a	4	14	Blank	Win	True
147.668	1.45	Win2	0.8	n/a	Yes	2.68	n/a	5.0	GoodResponse	1	0.016	146.684	4	14	Feedback	Win	True
149.118	2.68	Win2	0.8	n/a	Yes	2.68	n/a	n/a	GoodResponse	1	0.0	n/a	4	14	ISIslide	Win	True
151.817	0.25	Control	0.75	0.0	No	2.983	0.017	n/a	NoResponse	0	n/a	n/a	4	15	Cue	Neutral	True
152.066	4.0	Control	0.75	0.001	No	2.983	-0.001	n/a	NoResponse	0	n/a	n/a	4	15	Fixation	Neutral	True
156.065	0.25	Control	0.75	0.002	No	2.983	-0.002	2.0	NoResponse	0	0.29	155.355	4	15	Target	Neutral	True
156.315	0.45	Control	0.75	n/a	No	2.983	n/a	n/a	NoResponse	0	n/a	n/a	4	15	Blank	Neutral	True
156.355	0.3	Control	0.75	0.002	No	2.983	-0.002	2.0	NoResponse	0	0.29	n/a	4	15	ButtonPress	Neutral	True
156.765	1.45	Control	0.75	n/a	No	2.983	n/a	5.0	NoResponse	0	0.041	155.806	4	15	Feedback	Neutral	True
158.214	2.983	Control	0.75	n/a	No	2.983	n/a	n/a	NoResponse	0	0.0	n/a	4	15	ISIslide	Neutral	True
161.213	0.25	Win2	0.7646999999999999	0.0	Yes	2.887	0.013	n/a	GoodResponse	1	n/a	n/a	5	16	Cue	Win	True
161.463	4.0	Win2	0.7646999999999999	0.0	Yes	2.887	0.0	n/a	GoodResponse	1	n/a	n/a	5	16	Fixation	Win	True
165.462	0.24	Win2	0.7646999999999999	0.001	Yes	2.887	-0.001	2.0	GoodResponse	1	0.238	164.7	5	16	Target	Win	True
165.7	0.3	Win2	0.7646999999999999	0.001	Yes	2.887	-0.001	2.0	GoodResponse	1	0.238	n/a	5	16	ButtonPress	Win	True
165.712	0.46	Win2	0.7646999999999999	n/a	Yes	2.887	n/a	n/a	GoodResponse	1	n/a	n/a	5	16	Blank	Win	True
166.162	1.45	Win2	0.7646999999999999	n/a	Yes	2.887	n/a	5.0	GoodResponse	1	0.01	165.172	5	16	Feedback	Win	True
167.611	2.887	Win2	0.7646999999999999	n/a	Yes	2.887	n/a	n/a	GoodResponse	1	0.0	n/a	5	16	ISIslide	Win	True
170.527	0.25	Lose2	0.7222	0.0	No	2.723	0.027	n/a	NoResponse	-1	n/a	n/a	4	17	Cue	Loss	True
170.777	3.95	Lose2	0.7222	0.0	No	2.723	0.0	n/a	NoResponse	-1	n/a	n/a	4	17	Fixation	Loss	True
174.725	0.23	Lose2	0.7222	0.002	No	2.723	-0.002	2.0	NoResponse	-1	0.251	173.976	4	17	Target	Loss	True
174.958	0.47	Lose2	0.7222	n/a	No	2.723	n/a	n/a	NoResponse	-1	n/a	n/a	4	17	Blank	Loss	True
174.976	0.3	Lose2	0.7222	0.002	No	2.723	-0.002	2.0	NoResponse	-1	0.251	n/a	4	17	ButtonPress	Loss	True
175.425	1.45	Lose2	0.7222	n/a	No	2.723	n/a	5.0	NoResponse	-1	0.016	174.441	4	17	Feedback	Loss	True
176.875	2.723	Lose2	0.7222	n/a	No	2.723	n/a	n/a	NoResponse	-1	0.0	n/a	4	17	ISIslide	Loss	True
179.624	0.25	Lose2	0.7368000000000001	0.0	Yes	2.726	0.024	n/a	GoodResponse	0	n/a	n/a	4	18	Cue	AvoidedLoss	True
179.873	4.05	Lose2	0.7368000000000001	0.001	Yes	2.726	-0.001	n/a	GoodResponse	0	n/a	n/a	4	18	Fixation	AvoidedLoss	True
183.922	0.22	Lose2	0.7368000000000001	0.002	Yes	2.726	-0.002	2.0	GoodResponse	0	0.211	183.133	4	18	Target	AvoidedLoss	True
184.133	0.3	Lose2	0.7368000000000001	0.002	Yes	2.726	-0.002	2.0	GoodResponse	0	0.211	n/a	4	18	ButtonPress	AvoidedLoss	True
184.155	0.48	Lose2	0.7368000000000001	n/a	Yes	2.726	n/a	n/a	GoodResponse	0	n/a	n/a	4	18	Blank	AvoidedLoss	True
184.622	1.45	Lose2	0.7368000000000001	n/a	Yes	2.726	n/a	5.0	GoodResponse	0	0.037	183.659	4	18	Feedback	AvoidedLoss	True
186.071	2.726	Lose2	0.7368000000000001	n/a	Yes	2.726	n/a	n/a	GoodResponse	0	0.0	n/a	4	18	ISIslide	AvoidedLoss	True
188.82	0.25	Control	0.7	0.0	No	2.93	0.02	n/a	NoResponse	0	n/a	n/a	4	19	Cue	Neutral	True
189.07	3.95	Control	0.7	0.0	No	2.93	0.0	n/a	NoResponse	0	n/a	n/a	4	19	Fixation	Neutral	True
193.019	0.21	Control	0.7	0.001	No	2.93	-0.001	2.0	NoResponse	0	0.234	192.253	4	19	Target	Neutral	True
193.235	0.49	Control	0.7	n/a	No	2.93	n/a	n/a	NoResponse	0	n/a	n/a	4	19	Blank	Neutral	True
193.253	0.3	Control	0.7	0.001	No	2.93	-0.001	2.0	NoResponse	0	0.234	n/a	4	19	ButtonPress	Neutral	True
193.719	1.45	Control	0.7	n/a	No	2.93	n/a	5.0	NoResponse	0	0.014	192.733	4	19	Feedback	Neutral	True
195.168	2.93	Control	0.7	n/a	No	2.93	n/a	n/a	NoResponse	0	0.0	n/a	4	19	ISIslide	Neutral	True
198.117	0.25	Control	0.6667000000000001	0.0	No	2.633	0.017	n/a	NoResponse	0	n/a	n/a	4	20	Cue	Neutral	True
198.367	4.05	Control	0.6667000000000001	0.0	No	2.633	0.0	n/a	NoResponse	0	n/a	n/a	4	20	Fixation	Neutral	True
202.416	0.2	Control	0.6667000000000001	0.001	No	2.633	-0.001	2.0	NoResponse	0	0.266	201.682	4	20	Target	Neutral	True
202.616	0.5	Control	0.6667000000000001	n/a	No	2.633	n/a	n/a	NoResponse	0	n/a	n/a	4	20	Blank	Neutral	True
202.682	0.3	Control	0.6667000000000001	0.001	No	2.633	-0.001	2.0	NoResponse	0	0.266	n/a	4	20	ButtonPress	Neutral	True
203.115	1.45	Control	0.6667000000000001	n/a	No	2.633	n/a	5.0	NoResponse	0	0.033	202.148	4	20	Feedback	Neutral	True
204.565	2.633	Control	0.6667000000000001	n/a	No	2.633	n/a	n/a	NoResponse	0	0.0	n/a	4	20	ISIslide	Neutral	True
207.214	0.25	Control	0.6364	0.0	No	2.786	0.014	n/a	NoResponse	0	n/a	n/a	4	21	Cue	Neutral	True
207.464	4.1	Control	0.6364	0.0	No	2.786	0.0	n/a	NoResponse	0	n/a	n/a	4	21	Fixation	Neutral	True
211.562	0.19	Control	0.6364	0.002	No	2.786	-0.002	2.0	NoResponse	0	0.221	210.783	4	21	Target	Neutral	True
211.762	0.51	Control	0.6364	n/a	No	2.786	n/a	n/a	NoResponse	0	n/a	n/a	4	21	Blank	Neutral	True
211.783	0.3	Control	0.6364	0.002	No	2.786	-0.002	2.0	NoResponse	0	0.221	n/a	4	21	ButtonPress	Neutral	True
212.262	1.45	Control	0.6364	n/a	No	2.786	n/a	5.0	NoResponse	0	0.008	211.27	4	21	Feedback	Neutral	True
213.712	2.786	Control	0.6364	n/a	No	2.786	n/a	n/a	NoResponse	0	0.0	n/a	4	21	ISIslide	Neutral	True
216.527	0.25	Control	0.6087	0.0	No	2.773	0.027	n/a	NoResponse	0	n/a	n/a	4	22	Cue	Neutral	True
216.777	4.0	Control	0.6087	0.0	No	2.773	0.0	n/a	NoResponse	0	n/a	n/a	4	22	Fixation	Neutral	True
220.776	0.2	Control	0.6087	0.001	No	2.773	-0.001	2.0	NoResponse	0	0.215	219.991	4	22	Target	Neutral	True
220.976	0.5	Control	0.6087	n/a	No	2.773	n/a	n/a	NoResponse	0	n/a	n/a	4	22	Blank	Neutral	True
220.991	0.3	Control	0.6087	0.001	No	2.773	-0.001	2.0	NoResponse	0	0.215	n/a	4	22	ButtonPress	Neutral	True
221.476	1.45	Control	0.6087	n/a	No	2.773	n/a	5.0	NoResponse	0	0.013	220.489	4	22	Feedback	Neutral	True
222.925	2.773	Control	0.6087	n/a	No	2.773	n/a	n/a	NoResponse	0	0.0	n/a	4	22	ISIslide	Neutral	True
225.724	0.25	Control	0.5832999999999999	0.0	No	2.776	0.024	n/a	NoResponse	0	n/a	n/a	4	23	Cue	Neutral	True
225.974	3.9	Control	0.5832999999999999	0.0	No	2.776	0.0	n/a	NoResponse	0	n/a	n/a	4	23	Fixation	Neutral	True
229.873	0.21	Control	0.5832999999999999	0.001	No	2.776	-0.001	2.0	NoResponse	0	0.251	229.124	4	23	Target	Neutral	True
230.089	0.49	Control	0.5832999999999999	n/a	No	2.776	n/a	n/a	NoResponse	0	n/a	n/a	4	23	Blank	Neutral	True
230.124	0.3	Control	0.5832999999999999	0.001	No	2.776	-0.001	2.0	NoResponse	0	0.251	n/a	4	23	ButtonPress	Neutral	True
230.572	1.45	Control	0.5832999999999999	n/a	No	2.776	n/a	5.0	NoResponse	0	0.038	229.61	4	23	Feedback	Neutral	True
232.022	2.776	Control	0.5832999999999999	n/a	No	2.776	n/a	n/a	NoResponse	0	0.0	n/a	4	23	ISIslide	Neutral	True
234.821	0.25	Win2	0.56	0.0	No	3.129	0.021	n/a	LatePress	0	n/a	n/a	4	24	Cue	MissedWin	True
235.071	3.95	Win2	0.56	0.0	No	3.129	0.0	n/a	LatePress	0	n/a	n/a	4	24	Fixation	MissedWin	True
239.019	0.22	Win2	0.56	0.002	No	3.129	-0.002	2.0	LatePress	0	0.223	238.242	4	24	Target	MissedWin	True
239.242	0.3	Win2	0.56	0.002	No	3.129	-0.002	2.0	LatePress	0	0.223	n/a	4	24	ButtonPress	MissedWin	True
239.253	0.48	Win2	0.56	n/a	No	3.129	n/a	n/a	LatePress	0	n/a	n/a	4	24	Blank	MissedWin	True
239.719	1.45	Win2	0.56	n/a	No	3.129	n/a	5.0	LatePress	0	0.013	238.732	4	24	Feedback	MissedWin	True
241.169	3.129	Win2	0.56	n/a	No	3.129	n/a	n/a	LatePress	0	0.0	n/a	4	24	ISIslide	MissedWin	True
244.318	0.25	Win2	0.5769	0.0	Yes	3.082	0.018	n/a	GoodResponse	1	n/a	n/a	5	25	Cue	Win	True
244.568	4.0	Win2	0.5769	0.0	Yes	3.082	0.0	n/a	GoodResponse	1	n/a	n/a	5	25	Fixation	Win	True
248.566	0.23	Win2	0.5769	0.002	Yes	3.082	-0.002	2.0	GoodResponse	1	0.197	247.763	5	25	Target	Win	True
248.763	0.3	Win2	0.5769	0.002	Yes	3.082	-0.002	2.0	GoodResponse	1	0.197	n/a	5	25	ButtonPress	Win	True
248.799	0.47	Win2	0.5769	n/a	Yes	3.082	n/a	n/a	GoodResponse	1	n/a	n/a	5	25	Blank	Win	True
249.266	1.45	Win2	0.5769	n/a	Yes	3.082	n/a	5.0	GoodResponse	1	0.027	248.293	5	25	Feedback	Win	True
250.715	3.082	Win2	0.5769	n/a	Yes	3.082	n/a	n/a	GoodResponse	1	0.0	n/a	5	25	ISIslide	Win	True
253.814	0.25	Win2	0.5926	0.0	Yes	2.936	0.014	n/a	GoodResponse	1	n/a	n/a	6	26	Cue	Win	True
254.064	3.95	Win2	0.5926	0.0	Yes	2.936	0.0	n/a	GoodResponse	1	n/a	n/a	6	26	Fixation	Win	True
258.013	0.24	Win2	0.5926	0.001	Yes	2.936	-0.001	2.0	GoodResponse	1	0.204	257.217	6	26	Target	Win	True
258.217	0.3	Win2	0.5926	0.001	Yes	2.936	-0.001	2.0	GoodResponse	1	0.204	n/a	6	26	ButtonPress	Win	True
258.263	0.46	Win2	0.5926	n/a	Yes	2.936	n/a	n/a	GoodResponse	1	n/a	n/a	6	26	Blank	Win	True
258.713	1.45	Win2	0.5926	n/a	Yes	2.936	n/a	5.0	GoodResponse	1	0.044	257.757	6	26	Feedback	Win	True
260.162	2.936	Win2	0.5926	n/a	Yes	2.936	n/a	n/a	GoodResponse	1	0.0	n/a	6	26	ISIslide	Win	True
263.128	0.25	Lose2	0.6071	0.0	Yes	2.822	0.028	n/a	GoodResponse	0	n/a	n/a	6	27	Cue	AvoidedLoss	True
263.378	4.05	Lose2	0.6071	0.0	Yes	2.822	0.0	n/a	GoodResponse	0	n/a	n/a	6	27	Fixation	AvoidedLoss	True
267.426	0.25	Lose2	0.6071	0.002	Yes	2.822	-0.002	2.0	GoodResponse	0	0.214	266.64	6	27	Target	AvoidedLoss	True
267.64	0.3	Lose2	0.6071	0.002	Yes	2.822	-0.002	2.0	GoodResponse	0	0.214	n/a	6	27	ButtonPress	AvoidedLoss	True
267.676	0.45	Lose2	0.6071	n/a	Yes	2.822	n/a	n/a	GoodResponse	0	n/a	n/a	6	27	Blank	AvoidedLoss	True
268.126	1.45	Lose2	0.6071	n/a	Yes	2.822	n/a	5.0	GoodResponse	0	0.046	267.172	6	27	Feedback	AvoidedLoss	True
269.575	2.822	Lose2	0.6071	n/a	Yes	2.822	n/a	n/a	GoodResponse	0	0.0	n/a	6	27	ISIslide	AvoidedLoss	True
272.424	0.25	Control	0.6207	0.001	Yes	2.826	0.024	n/a	GoodResponse	0	n/a	n/a	6	28	Cue	Neutral	True
272.674	4.05	Control	0.6207	0.0	Yes	2.826	0.0	n/a	GoodResponse	0	n/a	n/a	6	28	Fixation	Neutral	True
276.723	0.26	Control	0.6207	0.001	Yes	2.826	-0.001	2.0	GoodResponse	0	0.257	275.98	6	28	Target	Neutral	True
276.98	0.3	Control	0.6207	0.001	Yes	2.826	-0.001	2.0	GoodResponse	0	0.257	n/a	6	28	ButtonPress	Neutral	True
276.99	0.44	Control	0.6207	n/a	Yes	2.826	n/a	n/a	GoodResponse	0	n/a	n/a	6	28	Blank	Neutral	True
277.423	1.45	Control	0.6207	n/a	Yes	2.826	n/a	5.0	GoodResponse	0	0.017	276.44	6	28	Feedback	Neutral	True
278.872	2.826	Control	0.6207	n/a	Yes	2.826	n/a	n/a	GoodResponse	0	0.0	n/a	6	28	ISIslide	Neutral	True
281.721	0.25	Lose2	0.6333	0.0	Yes	2.829	0.021	n/a	GoodResponse	0	n/a	n/a	6	29	Cue	AvoidedLoss	True
281.971	3.95	Lose2	0.6333	0.0	Yes	2.829	0.0	n/a	GoodResponse	0	n/a	n/a	6	29	Fixation	AvoidedLoss	True
285.92	0.27	Lose2	0.6333	0.001	Yes	2.829	-0.001	2.0	GoodResponse	0	0.202	285.122	6	29	Target	AvoidedLoss	True
286.122	0.3	Lose2	0.6333	0.001	Yes	2.829	-0.001	2.0	GoodResponse	0	0.202	n/a	6	29	ButtonPress	AvoidedLoss	True
286.203	0.43	Lose2	0.6333	n/a	Yes	2.829	n/a	n/a	GoodResponse	0	n/a	n/a	6	29	Blank	AvoidedLoss	True
286.62	1.45	Lose2	0.6333	n/a	Yes	2.829	n/a	5.0	GoodResponse	0	0.039	285.659	6	29	Feedback	AvoidedLoss	True
288.069	2.829	Lose2	0.6333	n/a	Yes	2.829	n/a	n/a	GoodResponse	0	0.0	n/a	6	29	ISIslide	AvoidedLoss	True
290.918	0.25	Win2	0.6452	0.0	Yes	2.782	0.018	n/a	GoodResponse	1	n/a	n/a	7	30	Cue	Win	True
291.168	3.9	Win2	0.6452	0.0	Yes	2.782	0.0	n/a	GoodResponse	1	n/a	n/a	7	30	Fixation	Win	True
295.067	0.28	Win2	0.6452	0.001	Yes	2.782	-0.001	2.0	GoodResponse	1	0.206	294.273	7	30	Target	Win	True
295.273	0.3	Win2	0.6452	0.001	Yes	2.782	-0.001	2.0	GoodResponse	1	0.206	n/a	7	30	ButtonPress	Win	True
295.35	0.42	Win2	0.6452	n/a	Yes	2.782	n/a	n/a	GoodResponse	1	n/a	n/a	7	30	Blank	Win	True
295.766	1.45	Win2	0.6452	n/a	Yes	2.782	n/a	5.0	GoodResponse	1	0.015	294.781	7	30	Feedback	Win	True
297.216	2.782	Win2	0.6452	n/a	Yes	2.782	n/a	n/a	GoodResponse	1	0.0	n/a	7	30	ISIslide	Win	True
300.015	0.25	Lose2	0.6562	0.0	Yes	2.835	0.015	n/a	GoodResponse	0	n/a	n/a	7	31	Cue	AvoidedLoss	True
300.265	4.05	Lose2	0.6562	0.0	Yes	2.835	0.0	n/a	GoodResponse	0	n/a	n/a	7	31	Fixation	AvoidedLoss	True
304.313	0.29	Lose2	0.6562	0.002	Yes	2.835	-0.002	2.0	GoodResponse	0	0.194	303.507	7	31	Target	AvoidedLoss	True
304.507	0.3	Lose2	0.6562	0.002	Yes	2.835	-0.002	2.0	GoodResponse	0	0.194	n/a	7	31	ButtonPress	AvoidedLoss	True
304.613	0.41	Lose2	0.6562	n/a	Yes	2.835	n/a	n/a	GoodResponse	0	n/a	n/a	7	31	Blank	AvoidedLoss	True
305.013	1.45	Lose2	0.6562	n/a	Yes	2.835	n/a	5.0	GoodResponse	0	0.036	304.049	7	31	Feedback	AvoidedLoss	True
306.463	2.835	Lose2	0.6562	n/a	Yes	2.835	n/a	n/a	GoodResponse	0	0.0	n/a	7	31	ISIslide	AvoidedLoss	True
309.328	0.25	Lose2	0.6667000000000001	0.0	Yes	2.622	0.028	n/a	GoodResponse	0	n/a	n/a	7	32	Cue	AvoidedLoss	True
309.578	4.15	Lose2	0.6667000000000001	0.0	Yes	2.622	0.0	n/a	GoodResponse	0	n/a	n/a	7	32	Fixation	AvoidedLoss	True
313.727	0.29	Lose2	0.6667000000000001	0.001	Yes	2.622	-0.001	2.0	GoodResponse	0	0.203	312.93	7	32	Target	AvoidedLoss	True
313.93	0.3	Lose2	0.6667000000000001	0.001	Yes	2.622	-0.001	2.0	GoodResponse	0	0.203	n/a	7	32	ButtonPress	AvoidedLoss	True
314.027	0.41	Lose2	0.6667000000000001	n/a	Yes	2.622	n/a	n/a	GoodResponse	0	n/a	n/a	7	32	Blank	AvoidedLoss	True
314.427	1.45	Lose2	0.6667000000000001	n/a	Yes	2.622	n/a	5.0	GoodResponse	0	0.037	313.464	7	32	Feedback	AvoidedLoss	True
315.876	2.622	Lose2	0.6667000000000001	n/a	Yes	2.622	n/a	n/a	GoodResponse	0	0.0	n/a	7	32	ISIslide	AvoidedLoss	True
318.525	0.25	Win2	0.6765000000000001	0.0	Yes	2.675	0.025	n/a	GoodResponse	1	n/a	n/a	8	33	Cue	Win	True
318.775	4.0	Win2	0.6765000000000001	0.0	Yes	2.675	0.0	n/a	GoodResponse	1	n/a	n/a	8	33	Fixation	Win	True
322.774	0.28	Win2	0.6765000000000001	0.001	Yes	2.675	-0.001	2.0	GoodResponse	1	0.199	321.973	8	33	Target	Win	True
322.973	0.3	Win2	0.6765000000000001	0.001	Yes	2.675	-0.001	2.0	GoodResponse	1	0.199	n/a	8	33	ButtonPress	Win	True
323.057	0.42	Win2	0.6765000000000001	n/a	Yes	2.675	n/a	n/a	GoodResponse	1	n/a	n/a	8	33	Blank	Win	True
323.473	1.45	Win2	0.6765000000000001	n/a	Yes	2.675	n/a	5.0	GoodResponse	1	0.016	322.489	8	33	Feedback	Win	True
324.923	2.675	Win2	0.6765000000000001	n/a	Yes	2.675	n/a	n/a	GoodResponse	1	0.0	n/a	8	33	ISIslide	Win	True
327.622	0.25	Lose2	0.6857	0.0	Yes	2.628	0.022	n/a	GoodResponse	0	n/a	n/a	8	34	Cue	AvoidedLoss	True
327.872	4.05	Lose2	0.6857	0.0	Yes	2.628	0.0	n/a	GoodResponse	0	n/a	n/a	8	34	Fixation	AvoidedLoss	True
331.92	0.27	Lose2	0.6857	0.002	Yes	2.628	-0.002	2.0	GoodResponse	0	0.215	331.135	8	34	Target	AvoidedLoss	True
332.135	0.3	Lose2	0.6857	0.002	Yes	2.628	-0.002	2.0	GoodResponse	0	0.215	n/a	8	34	ButtonPress	AvoidedLoss	True
332.204	0.43	Lose2	0.6857	n/a	Yes	2.628	n/a	n/a	GoodResponse	0	n/a	n/a	8	34	Blank	AvoidedLoss	True
332.62	1.45	Lose2	0.6857	n/a	Yes	2.628	n/a	5.0	GoodResponse	0	0.038	331.658	8	34	Feedback	AvoidedLoss	True
334.07	2.628	Lose2	0.6857	n/a	Yes	2.628	n/a	n/a	GoodResponse	0	0.0	n/a	8	34	ISIslide	AvoidedLoss	True
336.719	0.25	Lose2	0.6944	0.0	Yes	2.681	0.019	n/a	GoodResponse	0	n/a	n/a	8	35	Cue	AvoidedLoss	True
336.969	4.0	Lose2	0.6944	0.0	Yes	2.681	0.0	n/a	GoodResponse	0	n/a	n/a	8	35	Fixation	AvoidedLoss	True
340.967	0.26	Lose2	0.6944	0.002	Yes	2.681	-0.002	2.0	GoodResponse	0	0.184	340.151	8	35	Target	AvoidedLoss	True
341.151	0.3	Lose2	0.6944	0.002	Yes	2.681	-0.002	2.0	GoodResponse	0	0.184	n/a	8	35	ButtonPress	AvoidedLoss	True
341.234	0.44	Lose2	0.6944	n/a	Yes	2.681	n/a	n/a	GoodResponse	0	n/a	n/a	8	35	Blank	AvoidedLoss	True
341.667	1.45	Lose2	0.6944	n/a	Yes	2.681	n/a	5.0	GoodResponse	0	0.016	340.683	8	35	Feedback	AvoidedLoss	True
343.116	2.681	Lose2	0.6944	n/a	Yes	2.681	n/a	n/a	GoodResponse	0	0.0	n/a	8	35	ISIslide	AvoidedLoss	True
345.816	0.25	Control	0.7027	0.0	Yes	2.684	0.016	n/a	GoodResponse	0	n/a	n/a	8	36	Cue	Neutral	True
346.065	4.0	Control	0.7027	0.001	Yes	2.684	-0.001	n/a	GoodResponse	0	n/a	n/a	8	36	Fixation	Neutral	True
350.064	0.25	Control	0.7027	0.002	Yes	2.684	-0.002	2.0	GoodResponse	0	0.229	349.293	8	36	Target	Neutral	True
350.293	0.3	Control	0.7027	0.002	Yes	2.684	-0.002	2.0	GoodResponse	0	0.229	n/a	8	36	ButtonPress	Neutral	True
350.314	0.45	Control	0.7027	n/a	Yes	2.684	n/a	n/a	GoodResponse	0	n/a	n/a	8	36	Blank	Neutral	True
350.764	1.45	Control	0.7027	n/a	Yes	2.684	n/a	5.0	GoodResponse	0	0.041	349.805	8	36	Feedback	Neutral	True
352.213	2.684	Control	0.7027	n/a	Yes	2.684	n/a	n/a	GoodResponse	0	0.0	n/a	8	36	ISIslide	Neutral	True
354.929	0.25	Win2	0.7105	0.0	Yes	2.871	0.029	n/a	GoodResponse	1	n/a	n/a	9	37	Cue	Win	True
355.179	4.0	Win2	0.7105	0.0	Yes	2.871	0.0	n/a	GoodResponse	1	n/a	n/a	9	37	Fixation	Win	True
359.178	0.24	Win2	0.7105	0.001	Yes	2.871	-0.001	2.0	GoodResponse	1	0.225	358.403	9	37	Target	Win	True
359.403	0.3	Win2	0.7105	0.001	Yes	2.871	-0.001	2.0	GoodResponse	1	0.225	n/a	9	37	ButtonPress	Win	True
359.427	0.46	Win2	0.7105	n/a	Yes	2.871	n/a	n/a	GoodResponse	1	n/a	n/a	9	37	Blank	Win	True
359.877	1.45	Win2	0.7105	n/a	Yes	2.871	n/a	5.0	GoodResponse	1	0.001	358.878	9	37	Feedback	Win	True
361.327	2.871	Win2	0.7105	n/a	Yes	2.871	n/a	n/a	GoodResponse	1	0.0	n/a	9	37	ISIslide	Win	True
364.226	0.25	Lose2	0.7179000000000001	0.0	Yes	2.824	0.026	n/a	GoodResponse	0	n/a	n/a	9	38	Cue	AvoidedLoss	True
364.476	3.95	Lose2	0.7179000000000001	0.0	Yes	2.824	0.0	n/a	GoodResponse	0	n/a	n/a	9	38	Fixation	AvoidedLoss	True
368.424	0.23	Lose2	0.7179000000000001	0.002	Yes	2.824	-0.002	2.0	GoodResponse	0	0.202	367.626	9	38	Target	AvoidedLoss	True
368.626	0.3	Lose2	0.7179000000000001	0.002	Yes	2.824	-0.002	2.0	GoodResponse	0	0.202	n/a	9	38	ButtonPress	AvoidedLoss	True
368.658	0.47	Lose2	0.7179000000000001	n/a	Yes	2.824	n/a	n/a	GoodResponse	0	n/a	n/a	9	38	Blank	AvoidedLoss	True
369.124	1.45	Lose2	0.7179000000000001	n/a	Yes	2.824	n/a	5.0	GoodResponse	0	0.023	368.147	9	38	Feedback	AvoidedLoss	True
370.574	2.824	Lose2	0.7179000000000001	n/a	Yes	2.824	n/a	n/a	GoodResponse	0	0.0	n/a	9	38	ISIslide	AvoidedLoss	True
373.423	0.25	Win2	0.725	0.0	Yes	2.977	0.023	n/a	GoodResponse	1	n/a	n/a	10	39	Cue	Win	True
373.673	4.1	Win2	0.725	0.0	Yes	2.977	0.0	n/a	GoodResponse	1	n/a	n/a	10	39	Fixation	Win	True
377.771	0.22	Win2	0.725	0.002	Yes	2.977	-0.002	2.0	GoodResponse	1	0.204	376.975	10	39	Target	Win	True
377.975	0.3	Win2	0.725	0.002	Yes	2.977	-0.002	2.0	GoodResponse	1	0.204	n/a	10	39	ButtonPress	Win	True
378.004	0.48	Win2	0.725	n/a	Yes	2.977	n/a	n/a	GoodResponse	1	n/a	n/a	10	39	Blank	Win	True
378.471	1.45	Win2	0.725	n/a	Yes	2.977	n/a	5.0	GoodResponse	1	0.041	377.512	10	39	Feedback	Win	True
379.92	2.977	Win2	0.725	n/a	Yes	2.977	n/a	n/a	GoodResponse	1	0.0	n/a	10	39	ISIslide	Win	True
382.919	0.25	Win2	0.7317	0.0	Yes	2.731	0.019	n/a	GoodResponse	1	n/a	n/a	11	40	Cue	Win	True
383.169	3.95	Win2	0.7317	0.0	Yes	2.731	0.0	n/a	GoodResponse	1	n/a	n/a	11	40	Fixation	Win	True
387.118	0.21	Win2	0.7317	0.001	Yes	2.731	-0.001	2.0	GoodResponse	1	0.201	386.319	11	40	Target	Win	True
387.319	0.3	Win2	0.7317	0.001	Yes	2.731	-0.001	2.0	GoodResponse	1	0.201	n/a	11	40	ButtonPress	Win	True
387.334	0.49	Win2	0.7317	n/a	Yes	2.731	n/a	n/a	GoodResponse	1	n/a	n/a	11	40	Blank	Win	True
387.818	1.45	Win2	0.7317	n/a	Yes	2.731	n/a	5.0	GoodResponse	1	0.011	386.829	11	40	Feedback	Win	True
389.267	2.731	Win2	0.7317	n/a	Yes	2.731	n/a	n/a	GoodResponse	1	0.0	n/a	11	40	ISIslide	Win	True
392.016	0.25	Win2	0.7381	0.0	Yes	2.784	0.016	n/a	GoodResponse	1	n/a	n/a	12	41	Cue	Win	True
392.266	3.9	Win2	0.7381	0.0	Yes	2.784	0.0	n/a	GoodResponse	1	n/a	n/a	12	41	Fixation	Win	True
396.165	0.2	Win2	0.7381	0.001	Yes	2.784	-0.001	2.0	GoodResponse	1	0.198	395.363	12	41	Target	Win	True
396.363	0.3	Win2	0.7381	0.001	Yes	2.784	-0.001	2.0	GoodResponse	1	0.198	n/a	12	41	ButtonPress	Win	True
396.365	0.5	Win2	0.7381	n/a	Yes	2.784	n/a	n/a	GoodResponse	1	n/a	n/a	12	41	Blank	Win	True
396.864	1.45	Win2	0.7381	n/a	Yes	2.784	n/a	5.0	GoodResponse	1	0.038	395.902	12	41	Feedback	Win	True
398.314	2.784	Win2	0.7381	n/a	Yes	2.784	n/a	n/a	GoodResponse	1	0.0	n/a	12	41	ISIslide	Win	True
401.13	0.25	Control	0.7209	0.0	No	2.92	0.03	n/a	NoResponse	0	n/a	n/a	12	42	Cue	Neutral	True
401.379	3.85	Control	0.7209	0.001	No	2.92	-0.001	n/a	NoResponse	0	n/a	n/a	12	42	Fixation	Neutral	True
405.228	0.19	Control	0.7209	0.002	No	2.92	-0.002	2.0	NoResponse	0	0.218	404.446	12	42	Target	Neutral	True
405.428	0.51	Control	0.7209	n/a	No	2.92	n/a	n/a	NoResponse	0	n/a	n/a	12	42	Blank	Neutral	True
405.446	0.3	Control	0.7209	0.002	No	2.92	-0.002	2.0	NoResponse	0	0.218	n/a	12	42	ButtonPress	Neutral	True
405.928	1.45	Control	0.7209	n/a	No	2.92	n/a	5.0	NoResponse	0	0.047	404.975	12	42	Feedback	Neutral	True
407.377	2.92	Control	0.7209	n/a	No	2.92	n/a	n/a	NoResponse	0	0.0	n/a	12	42	ISIslide	Neutral	True
410.326	0.25	Win2	0.7273000000000001	0.0	Yes	3.174	0.026	n/a	GoodResponse	1	n/a	n/a	13	43	Cue	Win	True
410.576	4.0	Win2	0.7273000000000001	0.0	Yes	3.174	0.0	n/a	GoodResponse	1	n/a	n/a	13	43	Fixation	Win	True
414.575	0.18	Win2	0.7273000000000001	0.001	Yes	3.174	-0.001	2.0	GoodResponse	1	0.169	413.744	13	43	Target	Win	True
414.744	0.3	Win2	0.7273000000000001	0.001	Yes	3.174	-0.001	2.0	GoodResponse	1	0.169	n/a	13	43	ButtonPress	Win	True
414.758	0.52	Win2	0.7273000000000001	n/a	Yes	3.174	n/a	n/a	GoodResponse	1	n/a	n/a	13	43	Blank	Win	True
415.275	1.45	Win2	0.7273000000000001	n/a	Yes	3.174	n/a	5.0	GoodResponse	1	0.018	414.293	13	43	Feedback	Win	True
416.724	3.174	Win2	0.7273000000000001	n/a	Yes	3.174	n/a	n/a	GoodResponse	1	0.0	n/a	13	43	ISIslide	Win	True
419.923	0.25	Win2	0.7111	0.0	No	2.977	0.023	n/a	NoResponse	0	n/a	n/a	13	44	Cue	MissedWin	True
420.173	4.0	Win2	0.7111	0.0	No	2.977	0.0	n/a	NoResponse	0	n/a	n/a	13	44	Fixation	MissedWin	True
424.172	0.17	Win2	0.7111	0.001	No	2.977	-0.001	2.0	NoResponse	0	0.195	423.367	13	44	Target	MissedWin	True
424.355	0.53	Win2	0.7111	n/a	No	2.977	n/a	n/a	NoResponse	0	n/a	n/a	13	44	Blank	MissedWin	True
424.367	0.3	Win2	0.7111	0.001	No	2.977	-0.001	2.0	NoResponse	0	0.195	n/a	13	44	ButtonPress	MissedWin	True
424.871	1.45	Win2	0.7111	n/a	No	2.977	n/a	5.0	NoResponse	0	0.031	423.902	13	44	Feedback	MissedWin	True
426.321	2.977	Win2	0.7111	n/a	No	2.977	n/a	n/a	NoResponse	0	0.0	n/a	13	44	ISIslide	MissedWin	True
429.32	0.25	Control	0.6957	0.0	No	2.88	0.02	n/a	NoResponse	0	n/a	n/a	13	45	Cue	Neutral	True
429.57	4.1	Control	0.6957	0.0	No	2.88	0.0	n/a	NoResponse	0	n/a	n/a	13	45	Fixation	Neutral	True
433.668	0.16	Control	0.6957	0.002	No	2.88	-0.002	2.0	NoResponse	0	0.243	432.911	13	45	Target	Neutral	True
433.835	0.54	Control	0.6957	n/a	No	2.88	n/a	n/a	NoResponse	0	n/a	n/a	13	45	Blank	Neutral	True
433.911	0.3	Control	0.6957	0.002	No	2.88	-0.002	2.0	NoResponse	0	0.243	n/a	13	45	ButtonPress	Neutral	True
434.368	1.45	Control	0.6957	n/a	No	2.88	n/a	5.0	NoResponse	0	0.046	433.414	13	45	Feedback	Neutral	True
435.817	2.88	Control	0.6957	n/a	No	2.88	n/a	n/a	NoResponse	0	0.0	n/a	13	45	ISIslide	Neutral	True
438.716	0.25	Lose2	0.6809000000000001	0.001	No	3.384	0.016	n/a	NoResponse	-1	n/a	n/a	12	46	Cue	Loss	True
438.966	4.0	Lose2	0.6809000000000001	0.0	No	3.384	0.0	n/a	NoResponse	-1	n/a	n/a	12	46	Fixation	Loss	True
442.965	0.15	Lose2	0.6809000000000001	0.001	No	3.384	-0.001	2.0	NoResponse	-1	0.182	442.147	12	46	Target	Loss	True
443.115	0.55	Lose2	0.6809000000000001	n/a	No	3.384	n/a	n/a	NoResponse	-1	n/a	n/a	12	46	Blank	Loss	True
443.147	0.3	Lose2	0.6809000000000001	0.001	No	3.384	-0.001	2.0	NoResponse	-1	0.182	n/a	12	46	ButtonPress	Loss	True
443.665	1.45	Lose2	0.6809000000000001	n/a	No	3.384	n/a	5.0	NoResponse	-1	0.017	442.682	12	46	Feedback	Loss	True
445.114	3.384	Lose2	0.6809000000000001	n/a	No	3.384	n/a	n/a	NoResponse	-1	0.0	n/a	12	46	ISIslide	Loss	True
448.513	0.25	Lose2	0.6667000000000001	0.0	No	2.687	0.013	n/a	NoResponse	-1	n/a	n/a	11	47	Cue	Loss	True
448.763	4.0	Lose2	0.6667000000000001	0.0	No	2.687	0.0	n/a	NoResponse	-1	n/a	n/a	11	47	Fixation	Loss	True
452.762	0.15	Lose2	0.6667000000000001	0.001	No	2.687	-0.001	2.0	NoResponse	-1	0.192	451.954	11	47	Target	Loss	True
452.912	0.55	Lose2	0.6667000000000001	n/a	No	2.687	n/a	n/a	NoResponse	-1	n/a	n/a	11	47	Blank	Loss	True
452.954	0.3	Lose2	0.6667000000000001	0.001	No	2.687	-0.001	2.0	NoResponse	-1	0.192	n/a	11	47	ButtonPress	Loss	True
453.461	1.45	Lose2	0.6667000000000001	n/a	No	2.687	n/a	5.0	NoResponse	-1	0.026	452.487	11	47	Feedback	Loss	True
454.911	2.687	Lose2	0.6667000000000001	n/a	No	2.687	n/a	n/a	NoResponse	-1	0.0	n/a	11	47	ISIslide	Loss	True
457.627	0.25	Lose2	0.6531	0.0	No	3.023	0.027	n/a	NoResponse	-1	n/a	n/a	10	48	Cue	Loss	True
457.876	3.95	Lose2	0.6531	0.001	No	3.023	-0.001	n/a	NoResponse	-1	n/a	n/a	10	48	Fixation	Loss	True
461.825	0.15	Lose2	0.6531	0.002	No	3.023	-0.002	2.0	NoResponse	-1	0.203	461.028	10	48	Target	Loss	True
461.975	0.55	Lose2	0.6531	n/a	No	3.023	n/a	n/a	NoResponse	-1	n/a	n/a	10	48	Blank	Loss	True
462.028	0.3	Lose2	0.6531	0.002	No	3.023	-0.002	2.0	NoResponse	-1	0.203	n/a	10	48	ButtonPress	Loss	True
462.525	1.45	Lose2	0.6531	n/a	No	3.023	n/a	5.0	NoResponse	-1	0.035	461.56	10	48	Feedback	Loss	True
463.974	3.023	Lose2	0.6531	n/a	No	3.023	n/a	n/a	NoResponse	-1	0.0	n/a	10	48	ISIslide	Loss	True
467.023	0.25	Control	0.64	0.0	No	2.877	0.023	n/a	NoResponse	0	n/a	n/a	10	49	Cue	Neutral	True
467.273	4.0	Control	0.64	0.0	No	2.877	0.0	n/a	NoResponse	0	n/a	n/a	10	49	Fixation	Neutral	True
471.272	0.16	Control	0.64	0.001	No	2.877	-0.001	2.0	NoResponse	0	0.203	470.475	10	49	Target	Neutral	True
471.438	0.54	Control	0.64	n/a	No	2.877	n/a	n/a	NoResponse	0	n/a	n/a	10	49	Blank	Neutral	True
471.475	0.3	Control	0.64	0.001	No	2.877	-0.001	2.0	NoResponse	0	0.203	n/a	10	49	ButtonPress	Neutral	True
471.972	1.45	Control	0.64	n/a	No	2.877	n/a	5.0	NoResponse	0	0.006	470.978	10	49	Feedback	Neutral	True
473.421	2.877	Control	0.64	n/a	No	2.877	n/a	n/a	NoResponse	0	0.0	n/a	10	49	ISIslide	Neutral	True
476.32	0.25	Control	0.6470999999999999	0.0	Yes	2.78	0.02	n/a	GoodResponse	0	n/a	n/a	10	50	Cue	Neutral	True
476.57	4.0	Control	0.6470999999999999	0.0	Yes	2.78	0.0	n/a	GoodResponse	0	n/a	n/a	10	50	Fixation	Neutral	True
480.569	0.17	Control	0.6470999999999999	0.001	Yes	2.78	-0.001	2.0	GoodResponse	0	0.124	479.693	10	50	Target	Neutral	True
480.693	0.3	Control	0.6470999999999999	0.001	Yes	2.78	-0.001	2.0	GoodResponse	0	0.124	n/a	10	50	ButtonPress	Neutral	True
480.752	0.53	Control	0.6470999999999999	n/a	Yes	2.78	n/a	n/a	GoodResponse	0	n/a	n/a	10	50	Blank	Neutral	True
481.268	1.45	Control	0.6470999999999999	n/a	Yes	2.78	n/a	5.0	GoodResponse	0	0.023	480.291	10	50	Feedback	Neutral	True
482.718	2.78	Control	0.6470999999999999	n/a	Yes	2.78	n/a	n/a	GoodResponse	0	0.0	n/a	10	50	ISIslide	Neutral	True
485.517	0.25	Control	0.6346	0.0	No	2.733	0.017	n/a	NoResponse	0	n/a	n/a	10	51	Cue	Neutral	True
485.767	3.95	Control	0.6346	0.0	No	2.733	0.0	2.0	NoResponse	0	3.857	488.624	10	51	Fixation	Neutral	True
489.624	0.3	Control	0.6346	0.0	No	2.733	0.0	2.0	NoResponse	0	3.857	n/a	10	51	ButtonPress	Neutral	True
489.715	0.18	Control	0.6346	0.002	No	2.733	-0.002	n/a	NoResponse	0	n/a	n/a	10	51	Target	Neutral	True
489.899	0.52	Control	0.6346	n/a	No	2.733	n/a	n/a	NoResponse	0	n/a	n/a	10	51	Blank	Neutral	True
490.415	1.45	Control	0.6346	n/a	No	2.733	n/a	5.0	NoResponse	0	0.047	489.462	10	51	Feedback	Neutral	True
491.865	2.733	Control	0.6346	n/a	No	2.733	n/a	n/a	NoResponse	0	0.0	n/a	10	51	ISIslide	Neutral	True
494.63	0.25	Control	0.6225999999999999	0.0	No	2.62	0.03	n/a	NoResponse	0	n/a	n/a	10	52	Cue	Neutral	True
494.88	4.05	Control	0.6225999999999999	0.0	No	2.62	0.0	2.0	NoResponse	0	3.478	497.358	10	52	Fixation	Neutral	True
498.358	0.3	Control	0.6225999999999999	0.0	No	2.62	0.0	2.0	NoResponse	0	3.478	n/a	10	52	ButtonPress	Neutral	True
498.929	0.19	Control	0.6225999999999999	0.001	No	2.62	-0.001	n/a	NoResponse	0	n/a	n/a	10	52	Target	Neutral	True
499.129	0.51	Control	0.6225999999999999	n/a	No	2.62	n/a	n/a	NoResponse	0	n/a	n/a	10	52	Blank	Neutral	True
499.629	1.45	Control	0.6225999999999999	n/a	No	2.62	n/a	5.0	NoResponse	0	0.007	498.636	10	52	Feedback	Neutral	True
501.078	2.62	Control	0.6225999999999999	n/a	No	2.62	n/a	n/a	NoResponse	0	0.0	n/a	10	52	ISIslide	Neutral	True
503.727	0.25	Win2	0.6111	0.0	No	2.923	0.027	n/a	NoResponse	0	n/a	n/a	10	53	Cue	MissedWin	True
503.977	4.05	Win2	0.6111	0.0	No	2.923	0.0	n/a	NoResponse	0	n/a	n/a	10	53	Fixation	MissedWin	True
508.026	0.2	Win2	0.6111	0.001	No	2.923	-0.001	2.0	NoResponse	0	0.208	507.234	10	53	Target	MissedWin	True
508.226	0.5	Win2	0.6111	n/a	No	2.923	n/a	n/a	NoResponse	0	n/a	n/a	10	53	Blank	MissedWin	True
508.234	0.3	Win2	0.6111	0.001	No	2.923	-0.001	2.0	NoResponse	0	0.208	n/a	10	53	ButtonPress	MissedWin	True
508.725	1.45	Win2	0.6111	n/a	No	2.923	n/a	5.0	NoResponse	0	0.03	507.755	10	53	Feedback	MissedWin	True
510.175	2.923	Win2	0.6111	n/a	No	2.923	n/a	n/a	NoResponse	0	0.0	n/a	10	53	ISIslide	MissedWin	True
513.124	0.25	Win2	0.6182	0.0	Yes	2.726	0.024	n/a	GoodResponse	1	n/a	n/a	11	54	Cue	Win	True
513.374	3.95	Win2	0.6182	0.0	Yes	2.726	0.0	n/a	GoodResponse	1	n/a	n/a	11	54	Fixation	Win	True
517.322	0.21	Win2	0.6182	0.002	Yes	2.726	-0.002	2.0	GoodResponse	1	0.182	516.504	11	54	Target	Win	True
517.504	0.3	Win2	0.6182	0.002	Yes	2.726	-0.002	2.0	GoodResponse	1	0.182	n/a	11	54	ButtonPress	Win	True
517.539	0.49	Win2	0.6182	n/a	Yes	2.726	n/a	n/a	GoodResponse	1	n/a	n/a	11	54	Blank	Win	True
518.022	1.45	Win2	0.6182	n/a	Yes	2.726	n/a	5.0	GoodResponse	1	0.002	517.024	11	54	Feedback	Win	True
519.472	2.726	Win2	0.6182	n/a	Yes	2.726	n/a	n/a	GoodResponse	1	0.0	n/a	11	54	ISIslide	Win	True
522.221	0.25	Control	0.6071	0.0	No	3.029	0.021	n/a	NoResponse	0	n/a	n/a	11	55	Cue	Neutral	True
522.471	3.95	Control	0.6071	0.0	No	3.029	0.0	n/a	NoResponse	0	n/a	n/a	11	55	Fixation	Neutral	True
526.419	0.22	Control	0.6071	0.002	No	3.029	-0.002	2.0	NoResponse	0	0.241	525.66	11	55	Target	Neutral	True
526.652	0.48	Control	0.6071	n/a	No	3.029	n/a	n/a	NoResponse	0	n/a	n/a	11	55	Blank	Neutral	True
526.66	0.3	Control	0.6071	0.002	No	3.029	-0.002	2.0	NoResponse	0	0.241	n/a	11	55	ButtonPress	Neutral	True
527.119	1.45	Control	0.6071	n/a	No	3.029	n/a	5.0	NoResponse	0	0.027	526.146	11	55	Feedback	Neutral	True
528.568	3.029	Control	0.6071	n/a	No	3.029	n/a	n/a	NoResponse	0	0.0	n/a	11	55	ISIslide	Neutral	True
531.617	0.25	Control	0.614	0.0	Yes	2.833	0.017	n/a	GoodResponse	0	n/a	n/a	11	56	Cue	Neutral	True
531.867	3.95	Control	0.614	0.0	Yes	2.833	0.0	n/a	GoodResponse	0	n/a	n/a	11	56	Fixation	Neutral	True
535.816	0.23	Control	0.614	0.001	Yes	2.833	-0.001	2.0	GoodResponse	0	0.205	535.021	11	56	Target	Neutral	True
536.021	0.3	Control	0.614	0.001	Yes	2.833	-0.001	2.0	GoodResponse	0	0.205	n/a	11	56	ButtonPress	Neutral	True
536.049	0.47	Control	0.614	n/a	Yes	2.833	n/a	n/a	GoodResponse	0	n/a	n/a	11	56	Blank	Neutral	True
536.516	1.45	Control	0.614	n/a	Yes	2.833	n/a	5.0	GoodResponse	0	0.043	535.559	11	56	Feedback	Neutral	True
537.965	2.833	Control	0.614	n/a	Yes	2.833	n/a	n/a	GoodResponse	0	0.0	n/a	11	56	ISIslide	Neutral	True
540.814	0.25	Control	0.6207	0.0	Yes	3.486	0.014	n/a	GoodResponse	0	n/a	n/a	11	57	Cue	Neutral	True
541.064	4.0	Control	0.6207	0.0	Yes	3.486	0.0	n/a	GoodResponse	0	n/a	n/a	11	57	Fixation	Neutral	True
545.063	0.24	Control	0.6207	0.001	Yes	3.486	-0.001	2.0	GoodResponse	0	0.207	544.27	11	57	Target	Neutral	True
545.27	0.3	Control	0.6207	0.001	Yes	3.486	-0.001	2.0	GoodResponse	0	0.207	n/a	11	57	ButtonPress	Neutral	True
545.313	0.46	Control	0.6207	n/a	Yes	3.486	n/a	n/a	GoodResponse	0	n/a	n/a	11	57	Blank	Neutral	True
545.762	1.45	Control	0.6207	n/a	Yes	3.486	n/a	5.0	GoodResponse	0	0.017	544.779	11	57	Feedback	Neutral	True
547.212	3.486	Control	0.6207	n/a	Yes	3.486	n/a	n/a	GoodResponse	0	0.0	n/a	11	57	ISIslide	Neutral	True
550.727	0.25	Win2	0.6271	0.001	Yes	2.723	0.027	n/a	GoodResponse	1	n/a	n/a	12	58	Cue	Win	True
550.977	4.05	Win2	0.6271	0.0	Yes	2.723	0.0	n/a	GoodResponse	1	n/a	n/a	12	58	Fixation	Win	True
555.026	0.25	Win2	0.6271	0.001	Yes	2.723	-0.001	2.0	GoodResponse	1	0.186	554.212	12	58	Target	Win	True
555.212	0.3	Win2	0.6271	0.001	Yes	2.723	-0.001	2.0	GoodResponse	1	0.186	n/a	12	58	ButtonPress	Win	True
555.276	0.45	Win2	0.6271	n/a	Yes	2.723	n/a	n/a	GoodResponse	1	n/a	n/a	12	58	Blank	Win	True
555.726	1.45	Win2	0.6271	n/a	Yes	2.723	n/a	5.0	GoodResponse	1	0.007	554.733	12	58	Feedback	Win	True
557.175	2.723	Win2	0.6271	n/a	Yes	2.723	n/a	n/a	GoodResponse	1	0.0	n/a	12	58	ISIslide	Win	True
559.924	0.25	Lose2	0.6333	0.0	Yes	2.676	0.024	n/a	GoodResponse	0	n/a	n/a	12	59	Cue	AvoidedLoss	True
560.174	4.0	Lose2	0.6333	0.0	Yes	2.676	0.0	n/a	GoodResponse	0	n/a	n/a	12	59	Fixation	AvoidedLoss	True
564.173	0.26	Lose2	0.6333	0.001	Yes	2.676	-0.001	2.0	GoodResponse	0	0.203	563.376	12	59	Target	AvoidedLoss	True
564.376	0.3	Lose2	0.6333	0.001	Yes	2.676	-0.001	2.0	GoodResponse	0	0.203	n/a	12	59	ButtonPress	AvoidedLoss	True
564.439	0.44	Lose2	0.6333	n/a	Yes	2.676	n/a	n/a	GoodResponse	0	n/a	n/a	12	59	Blank	AvoidedLoss	True
564.872	1.45	Lose2	0.6333	n/a	Yes	2.676	n/a	5.0	GoodResponse	0	0.029	563.901	12	59	Feedback	AvoidedLoss	True
566.322	2.676	Lose2	0.6333	n/a	Yes	2.676	n/a	n/a	GoodResponse	0	0.0	n/a	12	59	ISIslide	AvoidedLoss	True
569.021	0.25	Control	0.623	0.0	No	2.679	0.021	n/a	NoResponse	0	n/a	n/a	12	60	Cue	Neutral	True
569.271	4.0	Control	0.623	0.0	No	2.679	0.0	n/a	NoResponse	0	n/a	n/a	12	60	Fixation	Neutral	True
573.27	0.27	Control	0.623	0.001	No	2.679	-0.001	2.0	NoResponse	0	0.356	572.626	12	60	Target	Neutral	True
573.553	0.43	Control	0.623	n/a	No	2.679	n/a	n/a	NoResponse	0	n/a	n/a	12	60	Blank	Neutral	True
573.626	0.3	Control	0.623	0.001	No	2.679	-0.001	2.0	NoResponse	0	0.356	n/a	12	60	ButtonPress	Neutral	True
573.969	1.45	Control	0.623	n/a	No	2.679	n/a	5.0	NoResponse	0	0.007	572.976	12	60	Feedback	Neutral	True
575.419	2.679	Control	0.623	n/a	No	2.679	n/a	n/a	NoResponse	0	0.0	n/a	12	60	ISIslide	Neutral	True
578.118	0.25	Lose2	0.629	0.0	Yes	2.982	0.018	n/a	GoodResponse	0	n/a	n/a	12	61	Cue	AvoidedLoss	True
578.368	4.0	Lose2	0.629	0.0	Yes	2.982	0.0	n/a	GoodResponse	0	n/a	n/a	12	61	Fixation	AvoidedLoss	True
582.366	0.28	Lose2	0.629	0.002	Yes	2.982	-0.002	2.0	GoodResponse	0	0.181	581.547	12	61	Target	AvoidedLoss	True
582.547	0.3	Lose2	0.629	0.002	Yes	2.982	-0.002	2.0	GoodResponse	0	0.181	n/a	12	61	ButtonPress	AvoidedLoss	True
582.65	0.42	Lose2	0.629	n/a	Yes	2.982	n/a	n/a	GoodResponse	0	n/a	n/a	12	61	Blank	AvoidedLoss	True
583.066	1.45	Lose2	0.629	n/a	Yes	2.982	n/a	5.0	GoodResponse	0	0.03	582.096	12	61	Feedback	AvoidedLoss	True
584.516	2.982	Lose2	0.629	n/a	Yes	2.982	n/a	n/a	GoodResponse	0	0.0	n/a	12	61	ISIslide	AvoidedLoss	True
587.515	0.25	Lose2	0.6349	0.0	Yes	2.885	0.015	n/a	GoodResponse	0	n/a	n/a	12	62	Cue	AvoidedLoss	True
587.764	3.9	Lose2	0.6349	0.001	Yes	2.885	-0.001	n/a	GoodResponse	0	n/a	n/a	12	62	Fixation	AvoidedLoss	True
591.663	0.29	Lose2	0.6349	0.002	Yes	2.885	-0.002	2.0	GoodResponse	0	0.205	590.868	12	62	Target	AvoidedLoss	True
591.868	0.3	Lose2	0.6349	0.002	Yes	2.885	-0.002	2.0	GoodResponse	0	0.205	n/a	12	62	ButtonPress	AvoidedLoss	True
591.963	0.41	Lose2	0.6349	n/a	Yes	2.885	n/a	n/a	GoodResponse	0	n/a	n/a	12	62	Blank	AvoidedLoss	True
592.363	1.45	Lose2	0.6349	n/a	Yes	2.885	n/a	5.0	GoodResponse	0	0.001	591.364	12	62	Feedback	AvoidedLoss	True
593.812	2.885	Lose2	0.6349	n/a	Yes	2.885	n/a	n/a	GoodResponse	0	0.0	n/a	12	62	ISIslide	AvoidedLoss	True
596.728	0.25	Lose2	0.6406000000000001	0.0	Yes	2.622	0.028	n/a	GoodResponse	0	n/a	n/a	12	63	Cue	AvoidedLoss	True
596.978	4.05	Lose2	0.6406000000000001	0.0	Yes	2.622	0.0	n/a	GoodResponse	0	n/a	n/a	12	63	Fixation	AvoidedLoss	True
601.027	0.3	Lose2	0.6406000000000001	0.001	Yes	2.622	-0.001	2.0	GoodResponse	0	0.191	600.218	12	63	Target	AvoidedLoss	True
601.218	0.3	Lose2	0.6406000000000001	0.001	Yes	2.622	-0.001	2.0	GoodResponse	0	0.191	n/a	12	63	ButtonPress	AvoidedLoss	True
601.326	0.4	Lose2	0.6406000000000001	n/a	Yes	2.622	n/a	n/a	GoodResponse	0	n/a	n/a	12	63	Blank	AvoidedLoss	True
601.726	1.45	Lose2	0.6406000000000001	n/a	Yes	2.622	n/a	5.0	GoodResponse	0	0.008	600.734	12	63	Feedback	AvoidedLoss	True
603.176	2.622	Lose2	0.6406000000000001	n/a	Yes	2.622	n/a	n/a	GoodResponse	0	0.0	n/a	12	63	ISIslide	AvoidedLoss	True
605.825	0.25	Win2	0.6462	0.0	Yes	3.125	0.025	n/a	GoodResponse	1	n/a	n/a	13	64	Cue	Win	True
606.075	4.15	Win2	0.6462	0.0	Yes	3.125	0.0	n/a	GoodResponse	1	n/a	n/a	13	64	Fixation	Win	True
610.223	0.31	Win2	0.6462	0.002	Yes	3.125	-0.002	2.0	GoodResponse	1	0.188	609.411	13	64	Target	Win	True
610.411	0.3	Win2	0.6462	0.002	Yes	3.125	-0.002	2.0	GoodResponse	1	0.188	n/a	13	64	ButtonPress	Win	True
610.54	0.39	Win2	0.6462	n/a	Yes	3.125	n/a	n/a	GoodResponse	1	n/a	n/a	13	64	Blank	Win	True
610.923	1.45	Win2	0.6462	n/a	Yes	3.125	n/a	5.0	GoodResponse	1	0.027	609.95	13	64	Feedback	Win	True
612.373	3.125	Win2	0.6462	n/a	Yes	3.125	n/a	n/a	GoodResponse	1	0.0	n/a	13	64	ISIslide	Win	True
615.521	0.25	Control	0.6515000000000001	0.001	Yes	2.779	0.021	n/a	GoodResponse	0	n/a	n/a	13	65	Cue	Neutral	True
615.771	4.0	Control	0.6515000000000001	0.0	Yes	2.779	0.0	n/a	GoodResponse	0	n/a	n/a	13	65	Fixation	Neutral	True
619.77	0.32	Control	0.6515000000000001	0.001	Yes	2.779	-0.001	2.0	GoodResponse	0	0.225	618.995	13	65	Target	Neutral	True
619.995	0.3	Control	0.6515000000000001	0.001	Yes	2.779	-0.001	2.0	GoodResponse	0	0.225	n/a	13	65	ButtonPress	Neutral	True
620.087	0.38	Control	0.6515000000000001	n/a	Yes	2.779	n/a	n/a	GoodResponse	0	n/a	n/a	13	65	Blank	Neutral	True
620.47	1.45	Control	0.6515000000000001	n/a	Yes	2.779	n/a	5.0	GoodResponse	0	0.041	619.511	13	65	Feedback	Neutral	True
621.919	2.779	Control	0.6515000000000001	n/a	Yes	2.779	n/a	n/a	GoodResponse	0	0.0	n/a	13	65	ISIslide	Neutral	True
624.718	0.25	Win2	0.6567000000000001	0.0	Yes	2.782	0.018	n/a	GoodResponse	1	n/a	n/a	14	66	Cue	Win	True
624.968	3.9	Win2	0.6567000000000001	0.0	Yes	2.782	0.0	n/a	GoodResponse	1	n/a	n/a	14	66	Fixation	Win	True
628.867	0.33	Win2	0.6567000000000001	0.001	Yes	2.782	-0.001	2.0	GoodResponse	1	0.193	628.06	14	66	Target	Win	True
629.06	0.3	Win2	0.6567000000000001	0.001	Yes	2.782	-0.001	2.0	GoodResponse	1	0.193	n/a	14	66	ButtonPress	Win	True
629.2	0.37	Win2	0.6567000000000001	n/a	Yes	2.782	n/a	n/a	GoodResponse	1	n/a	n/a	14	66	Blank	Win	True
629.567	1.45	Win2	0.6567000000000001	n/a	Yes	2.782	n/a	5.0	GoodResponse	1	0.017	628.584	14	66	Feedback	Win	True
631.016	2.782	Win2	0.6567000000000001	n/a	Yes	2.782	n/a	n/a	GoodResponse	1	0.0	n/a	14	66	ISIslide	Win	True
633.815	0.25	Control	0.6618	0.0	Yes	2.735	0.015	n/a	GoodResponse	0	n/a	n/a	14	67	Cue	Neutral	True
634.065	3.95	Control	0.6618	0.0	Yes	2.735	0.0	n/a	GoodResponse	0	n/a	n/a	14	67	Fixation	Neutral	True
638.014	0.33	Control	0.6618	0.001	Yes	2.735	-0.001	2.0	GoodResponse	0	0.247	637.261	14	67	Target	Neutral	True
638.261	0.3	Control	0.6618	0.001	Yes	2.735	-0.001	2.0	GoodResponse	0	0.247	n/a	14	67	ButtonPress	Neutral	True
638.347	0.37	Control	0.6618	n/a	Yes	2.735	n/a	n/a	GoodResponse	0	n/a	n/a	14	67	Blank	Neutral	True
638.713	1.45	Control	0.6618	n/a	Yes	2.735	n/a	5.0	GoodResponse	0	0.041	637.754	14	67	Feedback	Neutral	True
640.163	2.735	Control	0.6618	n/a	Yes	2.735	n/a	n/a	GoodResponse	0	0.0	n/a	14	67	ISIslide	Neutral	True
642.929	0.25	Win2	0.6667000000000001	0.0	Yes	3.071	0.029	n/a	GoodResponse	1	n/a	n/a	15	68	Cue	Win	True
643.178	4.0	Win2	0.6667000000000001	0.001	Yes	3.071	-0.001	n/a	GoodResponse	1	n/a	n/a	15	68	Fixation	Win	True
647.177	0.33	Win2	0.6667000000000001	0.002	Yes	3.071	-0.002	2.0	GoodResponse	1	0.192	646.369	15	68	Target	Win	True
647.369	0.3	Win2	0.6667000000000001	0.002	Yes	3.071	-0.002	2.0	GoodResponse	1	0.192	n/a	15	68	ButtonPress	Win	True
647.51	0.37	Win2	0.6667000000000001	n/a	Yes	3.071	n/a	n/a	GoodResponse	1	n/a	n/a	15	68	Blank	Win	True
647.877	1.45	Win2	0.6667000000000001	n/a	Yes	3.071	n/a	5.0	GoodResponse	1	0.048	646.925	15	68	Feedback	Win	True
649.326	3.071	Win2	0.6667000000000001	n/a	Yes	3.071	n/a	n/a	GoodResponse	1	0.0	n/a	15	68	ISIslide	Win	True
652.425	0.25	Win2	0.6714	0.0	Yes	3.225	0.025	n/a	GoodResponse	1	n/a	n/a	16	69	Cue	Win	True
652.675	3.95	Win2	0.6714	0.0	Yes	3.225	0.0	n/a	GoodResponse	1	n/a	n/a	16	69	Fixation	Win	True
656.624	0.32	Win2	0.6714	0.001	Yes	3.225	-0.001	2.0	GoodResponse	1	0.23	655.854	16	69	Target	Win	True
656.854	0.3	Win2	0.6714	0.001	Yes	3.225	-0.001	2.0	GoodResponse	1	0.23	n/a	16	69	ButtonPress	Win	True
656.94	0.38	Win2	0.6714	n/a	Yes	3.225	n/a	n/a	GoodResponse	1	n/a	n/a	16	69	Blank	Win	True
657.324	1.45	Win2	0.6714	n/a	Yes	3.225	n/a	5.0	GoodResponse	1	0.015	656.339	16	69	Feedback	Win	True
658.773	3.225	Win2	0.6714	n/a	Yes	3.225	n/a	n/a	GoodResponse	1	0.0	n/a	16	69	ISIslide	Win	True
662.022	0.25	Lose2	0.662	0.0	No	3.028	0.022	n/a	PrematurePress	-1	n/a	n/a	15	70	Cue	Loss	True
662.272	4.05	Lose2	0.662	0.0	No	3.028	0.0	n/a	PrematurePress	-1	n/a	n/a	15	70	Fixation	Loss	True
666.32	0.31	Lose2	0.662	0.002	No	3.028	-0.002	2.0	PrematurePress	-1	0.021	665.341	15	70	Target	Loss	True
666.341	0.3	Lose2	0.662	0.002	No	3.028	-0.002	2.0	PrematurePress	-1	0.021	n/a	15	70	ButtonPress	Loss	True
666.637	0.39	Lose2	0.662	n/a	No	3.028	n/a	n/a	PrematurePress	-1	n/a	n/a	15	70	Blank	Loss	True
667.02	1.45	Lose2	0.662	n/a	No	3.028	n/a	5.0	PrematurePress	-1	0.027	666.047	15	70	Feedback	Loss	True
668.47	3.028	Lose2	0.662	n/a	No	3.028	n/a	n/a	PrematurePress	-1	0.0	n/a	15	70	ISIslide	Loss	True
671.519	0.25	Win2	0.6667000000000001	0.0	Yes	2.731	0.019	n/a	GoodResponse	1	n/a	n/a	16	71	Cue	Win	True
671.769	4.05	Win2	0.6667000000000001	0.0	Yes	2.731	0.0	n/a	GoodResponse	1	n/a	n/a	16	71	Fixation	Win	True
675.817	0.31	Win2	0.6667000000000001	0.002	Yes	2.731	-0.002	2.0	GoodResponse	1	0.199	675.016	16	71	Target	Win	True
676.016	0.3	Win2	0.6667000000000001	0.002	Yes	2.731	-0.002	2.0	GoodResponse	1	0.199	n/a	16	71	ButtonPress	Win	True
676.134	0.39	Win2	0.6667000000000001	n/a	Yes	2.731	n/a	n/a	GoodResponse	1	n/a	n/a	16	71	Blank	Win	True
676.517	1.45	Win2	0.6667000000000001	n/a	Yes	2.731	n/a	5.0	GoodResponse	1	0.042	675.559	16	71	Feedback	Win	True
677.966	2.731	Win2	0.6667000000000001	n/a	Yes	2.731	n/a	n/a	GoodResponse	1	0.0	n/a	16	71	ISIslide	Win	True
680.715	0.25	Win2	0.6712	0.0	Yes	2.785	0.015	n/a	GoodResponse	1	n/a	n/a	17	72	Cue	Win	True
680.965	4.1	Win2	0.6712	0.0	Yes	2.785	0.0	n/a	GoodResponse	1	n/a	n/a	17	72	Fixation	Win	True
685.064	0.3	Win2	0.6712	0.001	Yes	2.785	-0.001	2.0	GoodResponse	1	0.204	684.268	17	72	Target	Win	True
685.268	0.3	Win2	0.6712	0.001	Yes	2.785	-0.001	2.0	GoodResponse	1	0.204	n/a	17	72	ButtonPress	Win	True
685.364	0.4	Win2	0.6712	n/a	Yes	2.785	n/a	n/a	GoodResponse	1	n/a	n/a	17	72	Blank	Win	True
685.764	1.45	Win2	0.6712	n/a	Yes	2.785	n/a	5.0	GoodResponse	1	0.014	684.778	17	72	Feedback	Win	True
687.213	2.785	Win2	0.6712	n/a	Yes	2.785	n/a	n/a	GoodResponse	1	0.0	n/a	17	72	ISIslide	Win	True
690.029	0.25	Win2	0.6757	0.0	Yes	2.671	0.029	n/a	GoodResponse	1	n/a	n/a	18	73	Cue	Win	True
690.279	4.0	Win2	0.6757	0.0	Yes	2.671	0.0	n/a	GoodResponse	1	n/a	n/a	18	73	Fixation	Win	True
694.277	0.29	Win2	0.6757	0.002	Yes	2.671	-0.002	2.0	GoodResponse	1	0.247	693.524	18	73	Target	Win	True
694.524	0.3	Win2	0.6757	0.002	Yes	2.671	-0.002	2.0	GoodResponse	1	0.247	n/a	18	73	ButtonPress	Win	True
694.577	0.41	Win2	0.6757	n/a	Yes	2.671	n/a	n/a	GoodResponse	1	n/a	n/a	18	73	Blank	Win	True
694.977	1.45	Win2	0.6757	n/a	Yes	2.671	n/a	5.0	GoodResponse	1	0.02	693.997	18	73	Feedback	Win	True
696.427	2.671	Win2	0.6757	n/a	Yes	2.671	n/a	n/a	GoodResponse	1	0.0	n/a	18	73	ISIslide	Win	True
699.126	0.25	Lose2	0.68	0.0	Yes	2.624	0.026	n/a	GoodResponse	0	n/a	n/a	18	74	Cue	AvoidedLoss	True
699.376	4.05	Lose2	0.68	0.0	Yes	2.624	0.0	n/a	GoodResponse	0	n/a	n/a	18	74	Fixation	AvoidedLoss	True
703.424	0.28	Lose2	0.68	0.002	Yes	2.624	-0.002	2.0	GoodResponse	0	0.205	702.629	18	74	Target	AvoidedLoss	True
703.629	0.3	Lose2	0.68	0.002	Yes	2.624	-0.002	2.0	GoodResponse	0	0.205	n/a	18	74	ButtonPress	AvoidedLoss	True
703.707	0.42	Lose2	0.68	n/a	Yes	2.624	n/a	n/a	GoodResponse	0	n/a	n/a	18	74	Blank	AvoidedLoss	True
704.124	1.45	Lose2	0.68	n/a	Yes	2.624	n/a	5.0	GoodResponse	0	0.044	703.168	18	74	Feedback	AvoidedLoss	True
705.573	2.624	Lose2	0.68	n/a	Yes	2.624	n/a	n/a	GoodResponse	0	0.0	n/a	18	74	ISIslide	AvoidedLoss	True
708.222	0.25	Lose2	0.6842	0.001	Yes	2.928	0.022	n/a	GoodResponse	0	n/a	n/a	18	75	Cue	AvoidedLoss	True
708.472	3.95	Lose2	0.6842	0.0	Yes	2.928	0.0	n/a	GoodResponse	0	n/a	n/a	18	75	Fixation	AvoidedLoss	True
712.421	0.27	Lose2	0.6842	0.001	Yes	2.928	-0.001	2.0	GoodResponse	0	0.2	711.621	18	75	Target	AvoidedLoss	True
712.621	0.3	Lose2	0.6842	0.001	Yes	2.928	-0.001	2.0	GoodResponse	0	0.2	n/a	18	75	ButtonPress	AvoidedLoss	True
712.688	0.43	Lose2	0.6842	n/a	Yes	2.928	n/a	n/a	GoodResponse	0	n/a	n/a	18	75	Blank	AvoidedLoss	True
713.121	1.45	Lose2	0.6842	n/a	Yes	2.928	n/a	5.0	GoodResponse	0	0.023	712.144	18	75	Feedback	AvoidedLoss	True
714.57	2.928	Lose2	0.6842	n/a	Yes	2.928	n/a	n/a	GoodResponse	0	0.0	n/a	18	75	ISIslide	AvoidedLoss	True
717.519	0.25	Control	0.6883	0.0	Yes	3.231	0.019	n/a	GoodResponse	0	n/a	n/a	18	76	Cue	Neutral	True
717.769	4.05	Control	0.6883	0.0	Yes	3.231	0.0	n/a	GoodResponse	0	n/a	n/a	18	76	Fixation	Neutral	True
721.818	0.26	Control	0.6883	0.001	Yes	3.231	-0.001	2.0	GoodResponse	0	0.25	721.068	18	76	Target	Neutral	True
722.068	0.3	Control	0.6883	0.001	Yes	3.231	-0.001	2.0	GoodResponse	0	0.25	n/a	18	76	ButtonPress	Neutral	True
722.084	0.44	Control	0.6883	n/a	Yes	3.231	n/a	n/a	GoodResponse	0	n/a	n/a	18	76	Blank	Neutral	True
722.517	1.45	Control	0.6883	n/a	Yes	3.231	n/a	5.0	GoodResponse	0	0.042	721.559	18	76	Feedback	Neutral	True
723.967	3.231	Control	0.6883	n/a	Yes	3.231	n/a	n/a	GoodResponse	0	0.0	n/a	18	76	ISIslide	Neutral	True
727.216	0.25	Lose2	0.6923	0.0	Yes	2.584	0.016	n/a	GoodResponse	0	n/a	n/a	18	77	Cue	AvoidedLoss	True
727.466	3.95	Lose2	0.6923	0.0	Yes	2.584	0.0	n/a	GoodResponse	0	n/a	n/a	18	77	Fixation	AvoidedLoss	True
731.414	0.25	Lose2	0.6923	0.002	Yes	2.584	-0.002	2.0	GoodResponse	0	0.21	730.624	18	77	Target	AvoidedLoss	True
731.624	0.3	Lose2	0.6923	0.002	Yes	2.584	-0.002	2.0	GoodResponse	0	0.21	n/a	18	77	ButtonPress	AvoidedLoss	True
731.664	0.45	Lose2	0.6923	n/a	Yes	2.584	n/a	n/a	GoodResponse	0	n/a	n/a	18	77	Blank	AvoidedLoss	True
732.114	1.45	Lose2	0.6923	n/a	Yes	2.584	n/a	5.0	GoodResponse	0	0.008	731.122	18	77	Feedback	AvoidedLoss	True
733.564	2.584	Lose2	0.6923	n/a	Yes	2.584	n/a	n/a	GoodResponse	0	0.0	n/a	18	77	ISIslide	AvoidedLoss	True
