onset	duration	cue_type	current_mean_accuracy	duration_error	is_hit	isi_adjusted	onset_delay	response	response_type	reward	rt	rt_time	total_reward	trial_number	trial_phase	trial_type	one_press
11.096	0.25	Control	1.0	0.0	Yes	2.954	-0.004	n/a	GoodResponse	0	n/a	n/a	0	0	Cue	Neutral	True
11.347	3.85	Control	1.0	0.0	Yes	2.954	0.001	n/a	GoodResponse	0	n/a	n/a	0	0	Fixation	Neutral	True
15.191	0.4	Control	1.0	0.005	Yes	2.954	-0.005	2.0	GoodResponse	0	0.262	14.453	0	0	Target	Neutral	True
15.453	0.3	Control	1.0	0.005	Yes	2.954	-0.005	2.0	GoodResponse	0	0.262	n/a	0	0	ButtonPress	Neutral	True
15.593	0.3	Control	1.0	n/a	Yes	2.954	n/a	n/a	GoodResponse	0	n/a	n/a	0	0	Blank	Neutral	True
15.894	1.45	Control	1.0	n/a	Yes	2.954	n/a	5.0	GoodResponse	0	0.034	14.928	0	0	Feedback	Neutral	True
17.348	2.954	Control	1.0	n/a	Yes	2.954	n/a	n/a	GoodResponse	0	0.0	n/a	0	0	ISIslide	Neutral	True
20.324	0.25	Lose2	1.0	0.0	Yes	2.776	0.024	n/a	GoodResponse	0	n/a	n/a	0	1	Cue	AvoidedLoss	True
20.574	4.0	Lose2	1.0	0.0	Yes	2.776	0.0	n/a	GoodResponse	0	n/a	n/a	0	1	Fixation	AvoidedLoss	True
24.57	0.39	Lose2	1.0	0.004	Yes	2.776	-0.004	2.0	GoodResponse	0	0.372	23.942	0	1	Target	AvoidedLoss	True
24.942	0.3	Lose2	1.0	0.004	Yes	2.776	-0.004	2.0	GoodResponse	0	0.372	n/a	0	1	ButtonPress	AvoidedLoss	True
24.971	0.31	Lose2	1.0	n/a	Yes	2.776	n/a	n/a	GoodResponse	0	n/a	n/a	0	1	Blank	AvoidedLoss	True
25.272	1.45	Lose2	1.0	n/a	Yes	2.776	n/a	5.0	GoodResponse	0	0.022	24.294	0	1	Feedback	AvoidedLoss	True
26.726	2.776	Lose2	1.0	n/a	Yes	2.776	n/a	n/a	GoodResponse	0	0.0	n/a	0	1	ISIslide	AvoidedLoss	True
29.518	0.25	Control	1.0	0.0	Yes	2.582	0.018	n/a	GoodResponse	0	n/a	n/a	0	2	Cue	Neutral	True
29.768	4.1	Control	1.0	0.0	Yes	2.582	0.0	n/a	GoodResponse	0	n/a	n/a	0	2	Fixation	Neutral	True
33.864	0.38	Control	1.0	0.004	Yes	2.582	-0.004	2.0	GoodResponse	0	0.26	33.124	0	2	Target	Neutral	True
34.124	0.3	Control	1.0	0.004	Yes	2.582	-0.004	2.0	GoodResponse	0	0.26	n/a	0	2	ButtonPress	Neutral	True
34.248	0.32	Control	1.0	n/a	Yes	2.582	n/a	n/a	GoodResponse	0	n/a	n/a	0	2	Blank	Neutral	True
34.566	1.45	Control	1.0	n/a	Yes	2.582	n/a	5.0	GoodResponse	0	0.045	33.611	0	2	Feedback	Neutral	True
36.02	2.582	Control	1.0	n/a	Yes	2.582	n/a	n/a	GoodResponse	0	0.0	n/a	0	2	ISIslide	Neutral	True
38.628	0.25	Win2	1.0	0.0	Yes	2.822	0.028	n/a	GoodResponse	1	n/a	n/a	1	3	Cue	Win	True
38.879	3.95	Win2	1.0	0.0	Yes	2.822	0.001	n/a	GoodResponse	1	n/a	n/a	1	3	Fixation	Win	True
42.824	0.37	Win2	1.0	0.004	Yes	2.822	-0.004	2.0	GoodResponse	1	0.282	42.106	1	3	Target	Win	True
43.106	0.3	Win2	1.0	0.004	Yes	2.822	-0.004	2.0	GoodResponse	1	0.282	n/a	1	3	ButtonPress	Win	True
43.209	0.33	Win2	1.0	n/a	Yes	2.822	n/a	n/a	GoodResponse	1	n/a	n/a	1	3	Blank	Win	True
43.526	1.45	Win2	1.0	n/a	Yes	2.822	n/a	5.0	GoodResponse	1	0.012	42.538	1	3	Feedback	Win	True
44.981	2.822	Win2	1.0	n/a	Yes	2.822	n/a	n/a	GoodResponse	1	0.0	n/a	1	3	ISIslide	Win	True
47.822	0.25	Win2	0.8	0.0	No	3.278	0.022	n/a	NoResponse	0	n/a	n/a	1	4	Cue	MissedWin	True
48.073	4.0	Win2	0.8	0.0	No	3.278	0.001	n/a	NoResponse	0	n/a	n/a	1	4	Fixation	MissedWin	True
52.068	0.36	Win2	0.8	0.004	No	3.278	-0.004	2.0	NoResponse	0	0.407	51.475	1	4	Target	MissedWin	True
52.436	0.34	Win2	0.8	n/a	No	3.278	n/a	n/a	NoResponse	0	n/a	n/a	1	4	Blank	MissedWin	True
52.475	0.3	Win2	0.8	0.004	No	3.278	-0.004	2.0	NoResponse	0	0.407	n/a	1	4	ButtonPress	MissedWin	True
52.771	1.45	Win2	0.8	n/a	No	3.278	n/a	5.0	NoResponse	0	0.034	51.805	1	4	Feedback	MissedWin	True
54.225	3.278	Win2	0.8	n/a	No	3.278	n/a	n/a	NoResponse	0	0.0	n/a	1	4	ISIslide	MissedWin	True
57.518	0.25	Win2	0.8332999999999999	0.0	Yes	2.782	0.018	n/a	GoodResponse	1	n/a	n/a	2	5	Cue	Win	True
57.769	4.0	Win2	0.8332999999999999	0.0	Yes	2.782	0.001	n/a	GoodResponse	1	n/a	n/a	2	5	Fixation	Win	True
61.764	0.35	Win2	0.8332999999999999	0.004	Yes	2.782	-0.004	2.0	GoodResponse	1	0.303	61.067	2	5	Target	Win	True
62.067	0.3	Win2	0.8332999999999999	0.004	Yes	2.782	-0.004	2.0	GoodResponse	1	0.303	n/a	2	5	ButtonPress	Win	True
62.115	0.35	Win2	0.8332999999999999	n/a	Yes	2.782	n/a	n/a	GoodResponse	1	n/a	n/a	2	5	Blank	Win	True
62.466	1.45	Win2	0.8332999999999999	n/a	Yes	2.782	n/a	5.0	GoodResponse	1	0.047	61.513	2	5	Feedback	Win	True
63.921	2.782	Win2	0.8332999999999999	n/a	Yes	2.782	n/a	n/a	GoodResponse	1	0.0	n/a	2	5	ISIslide	Win	True
66.729	0.25	Lose2	0.8571	0.0	Yes	2.721	0.029	n/a	GoodResponse	0	n/a	n/a	2	6	Cue	AvoidedLoss	False
66.98	3.95	Lose2	0.8571	0.0	Yes	2.721	0.001	2.0	GoodResponse	0	0.193	66.173	2	6	Fixation	AvoidedLoss	False
67.173	0.3	Lose2	0.8571	0.0	Yes	2.721	0.001	2.0	GoodResponse	0	0.193	n/a	2	6	ButtonPress	AvoidedLoss	False
70.925	0.34	Lose2	0.8571	0.004	Yes	2.721	-0.004	2.0	GoodResponse	0	0.273	70.198	2	6	Target	AvoidedLoss	False
71.198	0.3	Lose2	0.8571	0.004	Yes	2.721	-0.004	2.0	GoodResponse	0	0.273	n/a	2	6	ButtonPress	AvoidedLoss	False
71.276	0.36	Lose2	0.8571	n/a	Yes	2.721	n/a	n/a	GoodResponse	0	n/a	n/a	2	6	Blank	AvoidedLoss	False
71.627	1.45	Lose2	0.8571	n/a	Yes	2.721	n/a	5.0	GoodResponse	0	0.008	70.635	2	6	Feedback	AvoidedLoss	False
73.081	2.721	Lose2	0.8571	n/a	Yes	2.721	n/a	n/a	GoodResponse	0	0.0	n/a	2	6	ISIslide	AvoidedLoss	False
75.823	0.25	Lose2	0.875	0.0	Yes	4.027	0.023	n/a	GoodResponse	0	n/a	n/a	2	7	Cue	AvoidedLoss	True
76.074	4.05	Lose2	0.875	0.0	Yes	4.027	0.001	n/a	GoodResponse	0	n/a	n/a	2	7	Fixation	AvoidedLoss	True
80.119	0.33	Lose2	0.875	0.004	Yes	4.027	-0.004	2.0	GoodResponse	0	0.275	79.394	2	7	Target	AvoidedLoss	True
80.394	0.3	Lose2	0.875	0.004	Yes	4.027	-0.004	2.0	GoodResponse	0	0.275	n/a	2	7	ButtonPress	AvoidedLoss	True
80.453	0.37	Lose2	0.875	n/a	Yes	4.027	n/a	n/a	GoodResponse	0	n/a	n/a	2	7	Blank	AvoidedLoss	True
80.821	1.45	Lose2	0.875	n/a	Yes	4.027	n/a	5.0	GoodResponse	0	0.034	79.855	2	7	Feedback	AvoidedLoss	True
82.275	4.027	Lose2	0.875	n/a	Yes	4.027	n/a	n/a	GoodResponse	0	0.0	n/a	2	7	ISIslide	AvoidedLoss	True
86.321	0.25	Lose2	0.8889	0.0	Yes	3.029	0.021	n/a	GoodResponse	0	n/a	n/a	2	8	Cue	AvoidedLoss	True
86.572	3.95	Lose2	0.8889	0.0	Yes	3.029	0.001	n/a	GoodResponse	0	n/a	n/a	2	8	Fixation	AvoidedLoss	True
90.517	0.32	Lose2	0.8889	0.004	Yes	3.029	-0.004	2.0	GoodResponse	0	0.28	89.797	2	8	Target	AvoidedLoss	True
90.797	0.3	Lose2	0.8889	0.004	Yes	3.029	-0.004	2.0	GoodResponse	0	0.28	n/a	2	8	ButtonPress	AvoidedLoss	True
90.851	0.38	Lose2	0.8889	n/a	Yes	3.029	n/a	n/a	GoodResponse	0	n/a	n/a	2	8	Blank	AvoidedLoss	True
91.219	1.45	Lose2	0.8889	n/a	Yes	3.029	n/a	5.0	GoodResponse	0	0.026	90.245	2	8	Feedback	AvoidedLoss	True
92.673	3.029	Lose2	0.8889	n/a	Yes	3.029	n/a	n/a	GoodResponse	0	0.0	n/a	2	8	ISIslide	AvoidedLoss	True
95.716	0.25	Lose2	0.8	0.0	No	3.134	0.016	n/a	NoResponse	-1	n/a	n/a	1	9	Cue	Loss	True
95.966	3.95	Lose2	0.8	0.0	No	3.134	0.0	n/a	NoResponse	-1	n/a	n/a	1	9	Fixation	Loss	True
99.928	0.31	Lose2	0.8	0.0	No	3.134	0.012	2.0	NoResponse	-1	0.368	99.296	1	9	Target	Loss	True
100.229	0.39	Lose2	0.8	n/a	No	3.134	n/a	n/a	NoResponse	-1	n/a	n/a	1	9	Blank	Loss	True
100.296	0.3	Lose2	0.8	0.0	No	3.134	0.012	2.0	NoResponse	-1	0.368	n/a	1	9	ButtonPress	Loss	True
100.614	1.45	Lose2	0.8	n/a	No	3.134	n/a	5.0	NoResponse	-1	0.045	99.659	1	9	Feedback	Loss	True
102.068	3.134	Lose2	0.8	n/a	No	3.134	n/a	n/a	NoResponse	-1	0.0	n/a	1	9	ISIslide	Loss	True
105.227	0.25	Control	0.8181999999999999	0.0	Yes	3.273	0.027	n/a	GoodResponse	0	n/a	n/a	1	10	Cue	Neutral	True
105.478	4.0	Control	0.8181999999999999	0.0	Yes	3.273	0.001	n/a	GoodResponse	0	n/a	n/a	1	10	Fixation	Neutral	True
109.473	0.3	Control	0.8181999999999999	0.004	Yes	3.273	-0.004	2.0	GoodResponse	0	0.254	108.727	1	10	Target	Neutral	True
109.727	0.3	Control	0.8181999999999999	0.004	Yes	3.273	-0.004	2.0	GoodResponse	0	0.254	n/a	1	10	ButtonPress	Neutral	True
109.774	0.4	Control	0.8181999999999999	n/a	Yes	3.273	n/a	n/a	GoodResponse	0	n/a	n/a	1	10	Blank	Neutral	True
110.175	1.45	Control	0.8181999999999999	n/a	Yes	3.273	n/a	5.0	GoodResponse	0	0.045	109.22	1	10	Feedback	Neutral	True
111.63	3.273	Control	0.8181999999999999	n/a	Yes	3.273	n/a	n/a	GoodResponse	0	0.0	n/a	1	10	ISIslide	Neutral	True
114.923	0.25	Lose2	0.75	0.0	No	2.727	0.023	n/a	LatePress	-1	n/a	n/a	0	11	Cue	Loss	True
115.174	4.05	Lose2	0.75	0.0	No	2.727	0.001	n/a	LatePress	-1	n/a	n/a	0	11	Fixation	Loss	True
119.219	0.29	Lose2	0.75	0.004	No	2.727	-0.004	2.0	LatePress	-1	0.297	118.516	0	11	Target	Loss	True
119.516	0.3	Lose2	0.75	0.004	No	2.727	-0.004	2.0	LatePress	-1	0.297	n/a	0	11	ButtonPress	Loss	True
119.52	0.41	Lose2	0.75	n/a	No	2.727	n/a	n/a	LatePress	-1	n/a	n/a	0	11	Blank	Loss	True
119.921	1.45	Lose2	0.75	n/a	No	2.727	n/a	5.0	LatePress	-1	0.006	118.927	0	11	Feedback	Loss	True
121.376	2.727	Lose2	0.75	n/a	No	2.727	n/a	n/a	LatePress	-1	0.0	n/a	0	11	ISIslide	Loss	True
124.117	0.25	Control	0.7692	0.0	Yes	2.983	0.017	n/a	GoodResponse	0	n/a	n/a	0	12	Cue	Neutral	True
124.368	3.9	Control	0.7692	0.0	Yes	2.983	0.001	n/a	GoodResponse	0	n/a	n/a	0	12	Fixation	Neutral	True
128.263	0.28	Control	0.7692	0.004	Yes	2.983	-0.004	2.0	GoodResponse	0	0.275	127.538	0	12	Target	Neutral	True
128.538	0.3	Control	0.7692	0.004	Yes	2.983	-0.004	2.0	GoodResponse	0	0.275	n/a	0	12	ButtonPress	Neutral	True
128.547	0.42	Control	0.7692	n/a	Yes	2.983	n/a	n/a	GoodResponse	0	n/a	n/a	0	12	Blank	Neutral	True
128.965	1.45	Control	0.7692	n/a	Yes	2.983	n/a	5.0	GoodResponse	0	0.036	128.001	0	12	Feedback	Neutral	True
130.419	2.983	Control	0.7692	n/a	Yes	2.983	n/a	n/a	GoodResponse	0	0.0	n/a	0	12	ISIslide	Neutral	True
133.428	0.25	Control	0.7857	0.0	Yes	2.772	0.028	n/a	GoodResponse	0	n/a	n/a	0	13	Cue	Neutral	True
133.679	4.0	Control	0.7857	0.0	Yes	2.772	0.001	n/a	GoodResponse	0	n/a	n/a	0	13	Fixation	Neutral	True
137.674	0.27	Control	0.7857	0.004	Yes	2.772	-0.004	2.0	GoodResponse	0	0.269	136.943	0	13	Target	Neutral	True
137.943	0.3	Control	0.7857	0.004	Yes	2.772	-0.004	2.0	GoodResponse	0	0.269	n/a	0	13	ButtonPress	Neutral	True
137.959	0.43	Control	0.7857	n/a	Yes	2.772	n/a	n/a	GoodResponse	0	n/a	n/a	0	13	Blank	Neutral	True
138.376	1.45	Control	0.7857	n/a	Yes	2.772	n/a	5.0	GoodResponse	0	0.038	137.414	0	13	Feedback	Neutral	True
139.831	2.772	Control	0.7857	n/a	Yes	2.772	n/a	n/a	GoodResponse	0	0.0	n/a	0	13	ISIslide	Neutral	True
142.623	0.25	Win2	0.8	0.0	Yes	2.677	0.023	n/a	GoodResponse	1	n/a	n/a	1	14	Cue	Win	True
142.873	4.1	Win2	0.8	0.0	Yes	2.677	0.0	n/a	GoodResponse	1	n/a	n/a	1	14	Fixation	Win	True
146.969	0.26	Win2	0.8	0.004	Yes	2.677	-0.004	2.0	GoodResponse	1	0.208	146.177	1	14	Target	Win	True
147.177	0.3	Win2	0.8	0.004	Yes	2.677	-0.004	2.0	GoodResponse	1	0.208	n/a	1	14	ButtonPress	Win	True
147.236	0.44	Win2	0.8	n/a	Yes	2.677	n/a	n/a	GoodResponse	1	n/a	n/a	1	14	Blank	Win	True
147.671	1.45	Win2	0.8	n/a	Yes	2.677	n/a	5.0	GoodResponse	1	0.012	146.683	1	14	Feedback	Win	True
149.125	2.677	Win2	0.8	n/a	Yes	2.677	n/a	n/a	GoodResponse	1	0.0	n/a	1	14	ISIslide	Win	True
151.817	0.25	Control	0.75	0.0	No	2.983	0.017	n/a	NoResponse	0	n/a	n/a	1	15	Cue	Neutral	False
152.067	4.0	Control	0.75	0.0	No	2.983	0.0	2.0	NoResponse	0	3.33	154.397	1	15	Fixation	Neutral	False
155.397	0.3	Control	0.75	0.0	No	2.983	0.0	2.0	NoResponse	0	3.33	n/a	1	15	ButtonPress	Neutral	False
156.063	0.25	Control	0.75	0.004	No	2.983	-0.004	2.0	NoResponse	0	0.348	155.411	1	15	Target	Neutral	False
156.313	0.45	Control	0.75	n/a	No	2.983	n/a	n/a	NoResponse	0	n/a	n/a	1	15	Blank	Neutral	False
156.411	0.3	Control	0.75	0.004	No	2.983	-0.004	2.0	NoResponse	0	0.348	n/a	1	15	ButtonPress	Neutral	False
156.765	1.45	Control	0.75	n/a	No	2.983	n/a	5.0	NoResponse	0	0.04	155.805	1	15	Feedback	Neutral	False
158.219	2.983	Control	0.75	n/a	No	2.983	n/a	n/a	NoResponse	0	0.0	n/a	1	15	ISIslide	Neutral	False
161.228	0.25	Win2	0.7059000000000001	0.0	No	2.872	0.028	n/a	NoResponse	0	n/a	n/a	1	16	Cue	MissedWin	True
161.479	4.0	Win2	0.7059000000000001	0.0	No	2.872	0.001	n/a	NoResponse	0	n/a	n/a	1	16	Fixation	MissedWin	True
165.474	0.24	Win2	0.7059000000000001	0.004	No	2.872	-0.004	2.0	NoResponse	0	0.264	164.738	1	16	Target	MissedWin	True
165.725	0.46	Win2	0.7059000000000001	n/a	No	2.872	n/a	n/a	NoResponse	0	n/a	n/a	1	16	Blank	MissedWin	True
165.738	0.3	Win2	0.7059000000000001	0.004	No	2.872	-0.004	2.0	NoResponse	0	0.264	n/a	1	16	ButtonPress	MissedWin	True
166.176	1.45	Win2	0.7059000000000001	n/a	No	2.872	n/a	5.0	NoResponse	0	0.044	165.22	1	16	Feedback	MissedWin	True
167.631	2.872	Win2	0.7059000000000001	n/a	No	2.872	n/a	n/a	NoResponse	0	0.0	n/a	1	16	ISIslide	MissedWin	True
170.523	0.25	Lose2	0.6667000000000001	0.0	No	2.727	0.023	n/a	NoResponse	-1	n/a	n/a	0	17	Cue	Loss	True
170.773	3.95	Lose2	0.6667000000000001	0.0	No	2.727	0.0	n/a	NoResponse	-1	n/a	n/a	0	17	Fixation	Loss	True
174.735	0.23	Lose2	0.6667000000000001	0.0	No	2.727	0.012	2.0	NoResponse	-1	0.316	174.051	0	17	Target	Loss	True
174.952	0.47	Lose2	0.6667000000000001	n/a	No	2.727	n/a	n/a	NoResponse	-1	n/a	n/a	0	17	Blank	Loss	True
175.051	0.3	Lose2	0.6667000000000001	0.0	No	2.727	0.012	2.0	NoResponse	-1	0.316	n/a	0	17	ButtonPress	Loss	True
175.421	1.45	Lose2	0.6667000000000001	n/a	No	2.727	n/a	5.0	NoResponse	-1	0.018	174.439	0	17	Feedback	Loss	True
176.875	2.727	Lose2	0.6667000000000001	n/a	No	2.727	n/a	n/a	NoResponse	-1	0.0	n/a	0	17	ISIslide	Loss	True
179.616	0.25	Lose2	0.6315999999999999	0.001	No	2.734	0.016	n/a	NoResponse	-1	n/a	n/a	-1	18	Cue	Loss	True
179.867	4.05	Lose2	0.6315999999999999	0.0	No	2.734	0.001	n/a	NoResponse	-1	n/a	n/a	-1	18	Fixation	Loss	True
183.913	0.22	Lose2	0.6315999999999999	0.003	No	2.734	-0.003	2.0	NoResponse	-1	0.249	183.162	-1	18	Target	Loss	True
184.147	0.48	Lose2	0.6315999999999999	n/a	No	2.734	n/a	n/a	NoResponse	-1	n/a	n/a	-1	18	Blank	Loss	True
184.162	0.3	Lose2	0.6315999999999999	0.003	No	2.734	-0.003	2.0	NoResponse	-1	0.249	n/a	-1	18	ButtonPress	Loss	True
184.615	1.45	Lose2	0.6315999999999999	n/a	No	2.734	n/a	5.0	NoResponse	-1	0.043	183.658	-1	18	Feedback	Loss	True
186.069	2.734	Lose2	0.6315999999999999	n/a	No	2.734	n/a	n/a	NoResponse	-1	0.0	n/a	-1	18	ISIslide	Loss	True
188.827	0.25	Control	0.6	0.0	No	2.923	0.027	n/a	NoResponse	0	n/a	n/a	-1	19	Cue	Neutral	True
189.078	3.95	Control	0.6	0.0	No	2.923	0.001	n/a	NoResponse	0	n/a	n/a	-1	19	Fixation	Neutral	True
193.023	0.23	Control	0.6	0.004	No	2.923	-0.004	2.0	NoResponse	0	0.242	192.265	-1	19	Target	Neutral	True
193.257	0.47	Control	0.6	n/a	No	2.923	n/a	n/a	NoResponse	0	n/a	n/a	-1	19	Blank	Neutral	True
193.265	0.3	Control	0.6	0.004	No	2.923	-0.004	2.0	NoResponse	0	0.242	n/a	-1	19	ButtonPress	Neutral	True
193.725	1.45	Control	0.6	n/a	No	2.923	n/a	5.0	NoResponse	0	0.006	192.731	-1	19	Feedback	Neutral	True
195.18	2.923	Control	0.6	n/a	No	2.923	n/a	n/a	NoResponse	0	0.0	n/a	-1	19	ISIslide	Neutral	True
198.122	0.25	Control	0.5714	0.0	No	2.628	0.022	n/a	NoResponse	0	n/a	n/a	-1	20	Cue	Neutral	True
198.373	4.05	Control	0.5714	0.0	No	2.628	0.001	n/a	NoResponse	0	n/a	n/a	-1	20	Fixation	Neutral	True
202.418	0.24	Control	0.5714	0.004	No	2.628	-0.004	2.0	NoResponse	0	0.404	201.822	-1	20	Target	Neutral	True
202.669	0.46	Control	0.5714	n/a	No	2.628	n/a	n/a	NoResponse	0	n/a	n/a	-1	20	Blank	Neutral	True
202.822	0.3	Control	0.5714	0.004	No	2.628	-0.004	2.0	NoResponse	0	0.404	n/a	-1	20	ButtonPress	Neutral	True
203.12	1.45	Control	0.5714	n/a	No	2.628	n/a	5.0	NoResponse	0	0.026	202.146	-1	20	Feedback	Neutral	True
204.574	2.628	Control	0.5714	n/a	No	2.628	n/a	n/a	NoResponse	0	0.0	n/a	-1	20	ISIslide	Neutral	True
207.216	0.25	Control	0.5455	0.0	No	2.784	0.016	n/a	NoResponse	0	n/a	n/a	-1	21	Cue	Neutral	True
207.466	4.1	Control	0.5455	0.0	No	2.784	0.0	n/a	NoResponse	0	n/a	n/a	-1	21	Fixation	Neutral	True
211.562	0.25	Control	0.5455	0.004	No	2.784	-0.004	2.0	NoResponse	0	0.266	210.828	-1	21	Target	Neutral	True
211.813	0.45	Control	0.5455	n/a	No	2.784	n/a	n/a	NoResponse	0	n/a	n/a	-1	21	Blank	Neutral	True
211.828	0.3	Control	0.5455	0.004	No	2.784	-0.004	2.0	NoResponse	0	0.266	n/a	-1	21	ButtonPress	Neutral	True
212.264	1.45	Control	0.5455	n/a	No	2.784	n/a	5.0	NoResponse	0	0.005	211.269	-1	21	Feedback	Neutral	True
213.718	2.784	Control	0.5455	n/a	No	2.784	n/a	n/a	NoResponse	0	0.0	n/a	-1	21	ISIslide	Neutral	True
216.527	0.25	Control	0.5217	0.0	No	2.773	0.027	n/a	NoResponse	0	n/a	n/a	-1	22	Cue	Neutral	True
216.778	4.0	Control	0.5217	0.0	No	2.773	0.001	n/a	NoResponse	0	n/a	n/a	-1	22	Fixation	Neutral	True
220.773	0.26	Control	0.5217	0.004	No	2.773	-0.004	2.0	NoResponse	0	0.276	220.049	-1	22	Target	Neutral	True
221.04	0.44	Control	0.5217	n/a	No	2.773	n/a	n/a	NoResponse	0	n/a	n/a	-1	22	Blank	Neutral	True
221.049	0.3	Control	0.5217	0.004	No	2.773	-0.004	2.0	NoResponse	0	0.276	n/a	-1	22	ButtonPress	Neutral	True
221.475	1.45	Control	0.5217	n/a	No	2.773	n/a	5.0	NoResponse	0	0.012	220.487	-1	22	Feedback	Neutral	True
222.929	2.773	Control	0.5217	n/a	No	2.773	n/a	n/a	NoResponse	0	0.0	n/a	-1	22	ISIslide	Neutral	True
225.721	0.25	Control	0.5417000000000001	0.0	Yes	2.779	0.021	n/a	GoodResponse	0	n/a	n/a	-1	23	Cue	Neutral	True
225.972	3.9	Control	0.5417000000000001	0.0	Yes	2.779	0.001	n/a	GoodResponse	0	n/a	n/a	-1	23	Fixation	Neutral	True
229.867	0.27	Control	0.5417000000000001	0.004	Yes	2.779	-0.004	2.0	GoodResponse	0	0.253	229.12	-1	23	Target	Neutral	True
230.12	0.3	Control	0.5417000000000001	0.004	Yes	2.779	-0.004	2.0	GoodResponse	0	0.253	n/a	-1	23	ButtonPress	Neutral	True
230.151	0.43	Control	0.5417000000000001	n/a	Yes	2.779	n/a	n/a	GoodResponse	0	n/a	n/a	-1	23	Blank	Neutral	True
230.569	1.45	Control	0.5417000000000001	n/a	Yes	2.779	n/a	5.0	GoodResponse	0	0.04	229.609	-1	23	Feedback	Neutral	True
232.023	2.779	Control	0.5417000000000001	n/a	Yes	2.779	n/a	n/a	GoodResponse	0	0.0	n/a	-1	23	ISIslide	Neutral	True
234.815	0.25	Win2	0.56	0.0	Yes	3.135	0.015	n/a	GoodResponse	1	n/a	n/a	0	24	Cue	Win	True
235.066	3.95	Win2	0.56	0.0	Yes	3.135	0.001	n/a	GoodResponse	1	n/a	n/a	0	24	Fixation	Win	True
239.011	0.28	Win2	0.56	0.004	Yes	3.135	-0.004	2.0	GoodResponse	1	0.211	238.222	0	24	Target	Win	True
239.222	0.3	Win2	0.56	0.004	Yes	3.135	-0.004	2.0	GoodResponse	1	0.211	n/a	0	24	ButtonPress	Win	True
239.295	0.42	Win2	0.56	n/a	Yes	3.135	n/a	n/a	GoodResponse	1	n/a	n/a	0	24	Blank	Win	True
239.713	1.45	Win2	0.56	n/a	Yes	3.135	n/a	5.0	GoodResponse	1	0.018	238.731	0	24	Feedback	Win	True
241.167	3.135	Win2	0.56	n/a	Yes	3.135	n/a	n/a	GoodResponse	1	0.0	n/a	0	24	ISIslide	Win	True
244.327	0.25	Win2	0.5769	0.0	Yes	3.073	0.027	n/a	GoodResponse	1	n/a	n/a	1	25	Cue	Win	True
244.577	4.0	Win2	0.5769	0.0	Yes	3.073	0.0	n/a	GoodResponse	1	n/a	n/a	1	25	Fixation	Win	True
248.573	0.29	Win2	0.5769	0.004	Yes	3.073	-0.004	2.0	GoodResponse	1	0.238	247.811	1	25	Target	Win	True
248.811	0.3	Win2	0.5769	0.004	Yes	3.073	-0.004	2.0	GoodResponse	1	0.238	n/a	1	25	ButtonPress	Win	True
248.874	0.41	Win2	0.5769	n/a	Yes	3.073	n/a	n/a	GoodResponse	1	n/a	n/a	1	25	Blank	Win	True
249.275	1.45	Win2	0.5769	n/a	Yes	3.073	n/a	5.0	GoodResponse	1	0.017	248.292	1	25	Feedback	Win	True
250.729	3.073	Win2	0.5769	n/a	Yes	3.073	n/a	n/a	GoodResponse	1	0.0	n/a	1	25	ISIslide	Win	True
253.822	0.25	Win2	0.5926	0.0	Yes	2.928	0.022	n/a	GoodResponse	1	n/a	n/a	2	26	Cue	Win	True
254.072	3.95	Win2	0.5926	0.0	Yes	2.928	0.0	n/a	GoodResponse	1	n/a	n/a	2	26	Fixation	Win	True
258.018	0.3	Win2	0.5926	0.004	Yes	2.928	-0.004	2.0	GoodResponse	1	0.233	257.251	2	26	Target	Win	True
258.251	0.3	Win2	0.5926	0.004	Yes	2.928	-0.004	2.0	GoodResponse	1	0.233	n/a	2	26	ButtonPress	Win	True
258.318	0.4	Win2	0.5926	n/a	Yes	2.928	n/a	n/a	GoodResponse	1	n/a	n/a	2	26	Blank	Win	True
258.72	1.45	Win2	0.5926	n/a	Yes	2.928	n/a	5.0	GoodResponse	1	0.035	257.755	2	26	Feedback	Win	True
260.174	2.928	Win2	0.5926	n/a	Yes	2.928	n/a	n/a	GoodResponse	1	0.0	n/a	2	26	ISIslide	Win	True
263.116	0.25	Lose2	0.5714	0.0	No	2.834	0.016	n/a	NoResponse	-1	n/a	n/a	1	27	Cue	Loss	True
263.367	4.05	Lose2	0.5714	0.0	No	2.834	0.001	n/a	NoResponse	-1	n/a	n/a	1	27	Fixation	Loss	True
267.412	0.31	Lose2	0.5714	0.004	No	2.834	-0.004	2.0	NoResponse	-1	0.346	266.758	1	27	Target	Loss	True
267.73	0.39	Lose2	0.5714	n/a	No	2.834	n/a	n/a	NoResponse	-1	n/a	n/a	1	27	Blank	Loss	True
267.758	0.3	Lose2	0.5714	0.004	No	2.834	-0.004	2.0	NoResponse	-1	0.346	n/a	1	27	ButtonPress	Loss	True
268.114	1.45	Lose2	0.5714	n/a	No	2.834	n/a	5.0	NoResponse	-1	0.006	267.12	1	27	Feedback	Loss	True
269.569	2.834	Lose2	0.5714	n/a	No	2.834	n/a	n/a	NoResponse	-1	0.0	n/a	1	27	ISIslide	Loss	True
272.427	0.25	Control	0.5861999999999999	0.0	Yes	2.823	0.027	n/a	GoodResponse	0	n/a	n/a	1	28	Cue	Neutral	True
272.678	4.05	Control	0.5861999999999999	0.0	Yes	2.823	0.001	n/a	GoodResponse	0	n/a	n/a	1	28	Fixation	Neutral	True
276.723	0.32	Control	0.5861999999999999	0.004	Yes	2.823	-0.004	2.0	GoodResponse	0	0.312	276.035	1	28	Target	Neutral	True
277.035	0.3	Control	0.5861999999999999	0.004	Yes	2.823	-0.004	2.0	GoodResponse	0	0.312	n/a	1	28	ButtonPress	Neutral	True
277.058	0.38	Control	0.5861999999999999	n/a	Yes	2.823	n/a	n/a	GoodResponse	0	n/a	n/a	1	28	Blank	Neutral	True
277.426	1.45	Control	0.5861999999999999	n/a	Yes	2.823	n/a	5.0	GoodResponse	0	0.011	276.437	1	28	Feedback	Neutral	True
278.88	2.823	Control	0.5861999999999999	n/a	Yes	2.823	n/a	n/a	GoodResponse	0	0.0	n/a	1	28	ISIslide	Neutral	True
281.722	0.25	Lose2	0.6	0.0	Yes	2.828	0.022	n/a	GoodResponse	0	n/a	n/a	1	29	Cue	AvoidedLoss	True
281.972	3.95	Lose2	0.6	0.001	Yes	2.828	0.0	n/a	GoodResponse	0	n/a	n/a	1	29	Fixation	AvoidedLoss	True
285.918	0.33	Lose2	0.6	0.004	Yes	2.828	-0.004	2.0	GoodResponse	0	0.294	285.212	1	29	Target	AvoidedLoss	True
286.212	0.3	Lose2	0.6	0.004	Yes	2.828	-0.004	2.0	GoodResponse	0	0.294	n/a	1	29	ButtonPress	AvoidedLoss	True
286.252	0.37	Lose2	0.6	n/a	Yes	2.828	n/a	n/a	GoodResponse	0	n/a	n/a	1	29	Blank	AvoidedLoss	True
286.62	1.45	Lose2	0.6	n/a	Yes	2.828	n/a	5.0	GoodResponse	0	0.037	285.657	1	29	Feedback	AvoidedLoss	True
288.074	2.828	Lose2	0.6	n/a	Yes	2.828	n/a	n/a	GoodResponse	0	0.0	n/a	1	29	ISIslide	AvoidedLoss	True
290.916	0.25	Win2	0.6129	0.0	Yes	2.784	0.016	n/a	GoodResponse	1	n/a	n/a	2	30	Cue	Win	True
291.167	3.9	Win2	0.6129	0.0	Yes	2.784	0.001	n/a	GoodResponse	1	n/a	n/a	2	30	Fixation	Win	True
295.062	0.34	Win2	0.6129	0.004	Yes	2.784	-0.004	2.0	GoodResponse	1	0.269	294.331	2	30	Target	Win	True
295.331	0.3	Win2	0.6129	0.004	Yes	2.784	-0.004	2.0	GoodResponse	1	0.269	n/a	2	30	ButtonPress	Win	True
295.413	0.36	Win2	0.6129	n/a	Yes	2.784	n/a	n/a	GoodResponse	1	n/a	n/a	2	30	Blank	Win	True
295.764	1.45	Win2	0.6129	n/a	Yes	2.784	n/a	5.0	GoodResponse	1	0.015	294.779	2	30	Feedback	Win	True
297.218	2.784	Win2	0.6129	n/a	Yes	2.784	n/a	n/a	GoodResponse	1	0.0	n/a	2	30	ISIslide	Win	True
300.026	0.25	Lose2	0.625	0.001	Yes	2.824	0.026	n/a	GoodResponse	0	n/a	n/a	2	31	Cue	AvoidedLoss	True
300.277	4.05	Lose2	0.625	0.0	Yes	2.824	0.001	n/a	GoodResponse	0	n/a	n/a	2	31	Fixation	AvoidedLoss	True
304.323	0.35	Lose2	0.625	0.003	Yes	2.824	-0.003	2.0	GoodResponse	0	0.222	303.545	2	31	Target	AvoidedLoss	True
304.545	0.3	Lose2	0.625	0.003	Yes	2.824	-0.003	2.0	GoodResponse	0	0.222	n/a	2	31	ButtonPress	AvoidedLoss	True
304.674	0.35	Lose2	0.625	n/a	Yes	2.824	n/a	n/a	GoodResponse	0	n/a	n/a	2	31	Blank	AvoidedLoss	True
305.025	1.45	Lose2	0.625	n/a	Yes	2.824	n/a	5.0	GoodResponse	0	0.022	304.047	2	31	Feedback	AvoidedLoss	True
306.479	2.824	Lose2	0.625	n/a	Yes	2.824	n/a	n/a	GoodResponse	0	0.0	n/a	2	31	ISIslide	AvoidedLoss	True
309.321	0.25	Lose2	0.6364	0.0	Yes	2.629	0.021	n/a	GoodResponse	0	n/a	n/a	2	32	Cue	AvoidedLoss	True
309.572	4.15	Lose2	0.6364	0.0	Yes	2.629	0.001	n/a	GoodResponse	0	n/a	n/a	2	32	Fixation	AvoidedLoss	True
313.717	0.36	Lose2	0.6364	0.004	Yes	2.629	-0.004	2.0	GoodResponse	0	0.279	312.996	2	32	Target	AvoidedLoss	True
313.996	0.3	Lose2	0.6364	0.004	Yes	2.629	-0.004	2.0	GoodResponse	0	0.279	n/a	2	32	ButtonPress	AvoidedLoss	True
314.085	0.34	Lose2	0.6364	n/a	Yes	2.629	n/a	n/a	GoodResponse	0	n/a	n/a	2	32	Blank	AvoidedLoss	True
314.419	1.45	Lose2	0.6364	n/a	Yes	2.629	n/a	5.0	GoodResponse	0	0.042	313.461	2	32	Feedback	AvoidedLoss	True
315.874	2.629	Lose2	0.6364	n/a	Yes	2.629	n/a	n/a	GoodResponse	0	0.0	n/a	2	32	ISIslide	AvoidedLoss	True
318.515	0.25	Win2	0.6470999999999999	0.0	Yes	2.685	0.015	n/a	GoodResponse	1	n/a	n/a	3	33	Cue	Win	True
318.766	4.0	Win2	0.6470999999999999	0.0	Yes	2.685	0.001	n/a	GoodResponse	1	n/a	n/a	3	33	Fixation	Win	True
322.761	0.37	Win2	0.6470999999999999	0.004	Yes	2.685	-0.004	2.0	GoodResponse	1	0.26	322.021	3	33	Target	Win	True
323.021	0.3	Win2	0.6470999999999999	0.004	Yes	2.685	-0.004	2.0	GoodResponse	1	0.26	n/a	3	33	ButtonPress	Win	True
323.146	0.33	Win2	0.6470999999999999	n/a	Yes	2.685	n/a	n/a	GoodResponse	1	n/a	n/a	3	33	Blank	Win	True
323.463	1.45	Win2	0.6470999999999999	n/a	Yes	2.685	n/a	5.0	GoodResponse	1	0.023	322.486	3	33	Feedback	Win	True
324.918	2.685	Win2	0.6470999999999999	n/a	Yes	2.685	n/a	n/a	GoodResponse	1	0.0	n/a	3	33	ISIslide	Win	True
327.626	0.25	Lose2	0.6570999999999999	0.0	Yes	2.624	0.026	n/a	GoodResponse	0	n/a	n/a	3	34	Cue	AvoidedLoss	True
327.876	4.05	Lose2	0.6570999999999999	0.0	Yes	2.624	0.0	n/a	GoodResponse	0	n/a	n/a	3	34	Fixation	AvoidedLoss	True
331.922	0.38	Lose2	0.6570999999999999	0.004	Yes	2.624	-0.004	2.0	GoodResponse	0	0.285	331.207	3	34	Target	AvoidedLoss	True
332.207	0.3	Lose2	0.6570999999999999	0.004	Yes	2.624	-0.004	2.0	GoodResponse	0	0.285	n/a	3	34	ButtonPress	AvoidedLoss	True
332.306	0.32	Lose2	0.6570999999999999	n/a	Yes	2.624	n/a	n/a	GoodResponse	0	n/a	n/a	3	34	Blank	AvoidedLoss	True
332.624	1.45	Lose2	0.6570999999999999	n/a	Yes	2.624	n/a	5.0	GoodResponse	0	0.033	331.657	3	34	Feedback	AvoidedLoss	True
334.078	2.624	Lose2	0.6570999999999999	n/a	Yes	2.624	n/a	n/a	GoodResponse	0	0.0	n/a	3	34	ISIslide	AvoidedLoss	True
336.719	0.25	Lose2	0.6667000000000001	0.001	Yes	2.681	0.019	n/a	GoodResponse	0	n/a	n/a	3	35	Cue	AvoidedLoss	True
336.97	4.0	Lose2	0.6667000000000001	0.0	Yes	2.681	0.001	n/a	GoodResponse	0	n/a	n/a	3	35	Fixation	AvoidedLoss	True
340.966	0.38	Lose2	0.6667000000000001	0.003	Yes	2.681	-0.003	2.0	GoodResponse	0	0.275	340.241	3	35	Target	AvoidedLoss	True
341.241	0.3	Lose2	0.6667000000000001	0.003	Yes	2.681	-0.003	2.0	GoodResponse	0	0.275	n/a	3	35	ButtonPress	AvoidedLoss	True
341.35	0.32	Lose2	0.6667000000000001	n/a	Yes	2.681	n/a	n/a	GoodResponse	0	n/a	n/a	3	35	Blank	AvoidedLoss	True
341.668	1.45	Lose2	0.6667000000000001	n/a	Yes	2.681	n/a	5.0	GoodResponse	0	0.013	340.681	3	35	Feedback	AvoidedLoss	True
343.122	2.681	Lose2	0.6667000000000001	n/a	Yes	2.681	n/a	n/a	GoodResponse	0	0.0	n/a	3	35	ISIslide	AvoidedLoss	True
345.83	0.25	Control	0.6757	0.0	Yes	2.67	0.03	n/a	GoodResponse	0	n/a	n/a	3	36	Cue	Neutral	True
346.081	4.0	Control	0.6757	0.0	Yes	2.67	0.001	n/a	GoodResponse	0	n/a	n/a	3	36	Fixation	Neutral	True
350.076	0.37	Control	0.6757	0.004	Yes	2.67	-0.004	2.0	GoodResponse	0	0.246	349.322	3	36	Target	Neutral	True
350.322	0.3	Control	0.6757	0.004	Yes	2.67	-0.004	2.0	GoodResponse	0	0.246	n/a	3	36	ButtonPress	Neutral	True
350.461	0.33	Control	0.6757	n/a	Yes	2.67	n/a	n/a	GoodResponse	0	n/a	n/a	3	36	Blank	Neutral	True
350.778	1.45	Control	0.6757	n/a	Yes	2.67	n/a	5.0	GoodResponse	0	0.025	349.803	3	36	Feedback	Neutral	True
352.233	2.67	Control	0.6757	n/a	Yes	2.67	n/a	n/a	GoodResponse	0	0.0	n/a	3	36	ISIslide	Neutral	True
354.924	0.25	Win2	0.6842	0.0	Yes	2.876	0.024	n/a	GoodResponse	1	n/a	n/a	4	37	Cue	Win	True
355.175	4.0	Win2	0.6842	0.0	Yes	2.876	0.001	n/a	GoodResponse	1	n/a	n/a	4	37	Fixation	Win	True
359.17	0.36	Win2	0.6842	0.004	Yes	2.876	-0.004	2.0	GoodResponse	1	0.246	358.416	4	37	Target	Win	True
359.416	0.3	Win2	0.6842	0.004	Yes	2.876	-0.004	2.0	GoodResponse	1	0.246	n/a	4	37	ButtonPress	Win	True
359.538	0.34	Win2	0.6842	n/a	Yes	2.876	n/a	n/a	GoodResponse	1	n/a	n/a	4	37	Blank	Win	True
359.872	1.45	Win2	0.6842	n/a	Yes	2.876	n/a	5.0	GoodResponse	1	0.005	358.877	4	37	Feedback	Win	True
361.326	2.876	Win2	0.6842	n/a	Yes	2.876	n/a	n/a	GoodResponse	1	0.0	n/a	4	37	ISIslide	Win	True
364.218	0.25	Lose2	0.6923	0.0	Yes	2.832	0.018	n/a	GoodResponse	0	n/a	n/a	4	38	Cue	AvoidedLoss	True
364.469	3.95	Lose2	0.6923	0.0	Yes	2.832	0.001	n/a	GoodResponse	0	n/a	n/a	4	38	Fixation	AvoidedLoss	True
368.414	0.35	Lose2	0.6923	0.004	Yes	2.832	-0.004	2.0	GoodResponse	0	0.341	367.755	4	38	Target	AvoidedLoss	True
368.755	0.3	Lose2	0.6923	0.004	Yes	2.832	-0.004	2.0	GoodResponse	0	0.341	n/a	4	38	ButtonPress	AvoidedLoss	True
368.765	0.35	Lose2	0.6923	n/a	Yes	2.832	n/a	n/a	GoodResponse	0	n/a	n/a	4	38	Blank	AvoidedLoss	True
369.116	1.45	Lose2	0.6923	n/a	Yes	2.832	n/a	5.0	GoodResponse	0	0.028	368.144	4	38	Feedback	AvoidedLoss	True
370.571	2.832	Lose2	0.6923	n/a	Yes	2.832	n/a	n/a	GoodResponse	0	0.0	n/a	4	38	ISIslide	AvoidedLoss	True
373.429	0.25	Win2	0.7	0.0	Yes	2.971	0.029	n/a	GoodResponse	1	n/a	n/a	5	39	Cue	Win	True
373.68	4.1	Win2	0.7	0.0	Yes	2.971	0.001	n/a	GoodResponse	1	n/a	n/a	5	39	Fixation	Win	True
377.776	0.34	Win2	0.7	0.003	Yes	2.971	-0.003	2.0	GoodResponse	1	0.273	377.049	5	39	Target	Win	True
378.049	0.3	Win2	0.7	0.003	Yes	2.971	-0.003	2.0	GoodResponse	1	0.273	n/a	5	39	ButtonPress	Win	True
378.127	0.36	Win2	0.7	n/a	Yes	2.971	n/a	n/a	GoodResponse	1	n/a	n/a	5	39	Blank	Win	True
378.478	1.45	Win2	0.7	n/a	Yes	2.971	n/a	5.0	GoodResponse	1	0.032	377.51	5	39	Feedback	Win	True
379.932	2.971	Win2	0.7	n/a	Yes	2.971	n/a	n/a	GoodResponse	1	0.0	n/a	5	39	ISIslide	Win	True
382.924	0.25	Win2	0.7073	0.0	Yes	2.726	0.024	n/a	GoodResponse	1	n/a	n/a	6	40	Cue	Win	True
383.175	3.95	Win2	0.7073	0.0	Yes	2.726	0.001	n/a	GoodResponse	1	n/a	n/a	6	40	Fixation	Win	True
387.12	0.33	Win2	0.7073	0.004	Yes	2.726	-0.004	2.0	GoodResponse	1	0.283	386.403	6	40	Target	Win	True
387.403	0.3	Win2	0.7073	0.004	Yes	2.726	-0.004	2.0	GoodResponse	1	0.283	n/a	6	40	ButtonPress	Win	True
387.455	0.37	Win2	0.7073	n/a	Yes	2.726	n/a	n/a	GoodResponse	1	n/a	n/a	6	40	Blank	Win	True
387.822	1.45	Win2	0.7073	n/a	Yes	2.726	n/a	5.0	GoodResponse	1	0.007	386.829	6	40	Feedback	Win	True
389.277	2.726	Win2	0.7073	n/a	Yes	2.726	n/a	n/a	GoodResponse	1	0.0	n/a	6	40	ISIslide	Win	True
392.018	0.25	Win2	0.7143	0.0	Yes	2.782	0.018	n/a	GoodResponse	1	n/a	n/a	7	41	Cue	Win	True
392.269	3.9	Win2	0.7143	0.0	Yes	2.782	0.001	n/a	GoodResponse	1	n/a	n/a	7	41	Fixation	Win	True
396.164	0.32	Win2	0.7143	0.004	Yes	2.782	-0.004	2.0	GoodResponse	1	0.298	395.462	7	41	Target	Win	True
396.462	0.3	Win2	0.7143	0.004	Yes	2.782	-0.004	2.0	GoodResponse	1	0.298	n/a	7	41	ButtonPress	Win	True
396.498	0.38	Win2	0.7143	n/a	Yes	2.782	n/a	n/a	GoodResponse	1	n/a	n/a	7	41	Blank	Win	True
396.866	1.45	Win2	0.7143	n/a	Yes	2.782	n/a	5.0	GoodResponse	1	0.033	395.899	7	41	Feedback	Win	True
398.32	2.782	Win2	0.7143	n/a	Yes	2.782	n/a	n/a	GoodResponse	1	0.0	n/a	7	41	ISIslide	Win	True
401.129	0.25	Control	0.7209	0.0	Yes	2.921	0.029	n/a	GoodResponse	0	n/a	n/a	7	42	Cue	Neutral	True
401.379	3.85	Control	0.7209	0.001	Yes	2.921	0.0	n/a	GoodResponse	0	n/a	n/a	7	42	Fixation	Neutral	True
405.241	0.31	Control	0.7209	0.0	Yes	2.921	0.012	2.0	GoodResponse	0	0.27	404.511	7	42	Target	Neutral	True
405.511	0.3	Control	0.7209	0.0	Yes	2.921	0.012	2.0	GoodResponse	0	0.27	n/a	7	42	ButtonPress	Neutral	True
405.542	0.39	Control	0.7209	n/a	Yes	2.921	n/a	n/a	GoodResponse	0	n/a	n/a	7	42	Blank	Neutral	True
405.926	1.45	Control	0.7209	n/a	Yes	2.921	n/a	5.0	GoodResponse	0	0.047	404.973	7	42	Feedback	Neutral	True
407.381	2.921	Control	0.7209	n/a	Yes	2.921	n/a	n/a	GoodResponse	0	0.0	n/a	7	42	ISIslide	Neutral	True
410.323	0.25	Win2	0.7273000000000001	0.0	Yes	3.177	0.023	n/a	GoodResponse	1	n/a	n/a	8	43	Cue	Win	True
410.574	4.0	Win2	0.7273000000000001	0.0	Yes	3.177	0.001	n/a	GoodResponse	1	n/a	n/a	8	43	Fixation	Win	True
414.569	0.3	Win2	0.7273000000000001	0.004	Yes	3.177	-0.004	2.0	GoodResponse	1	0.274	413.843	8	43	Target	Win	True
414.843	0.3	Win2	0.7273000000000001	0.004	Yes	3.177	-0.004	2.0	GoodResponse	1	0.274	n/a	8	43	ButtonPress	Win	True
414.87	0.4	Win2	0.7273000000000001	n/a	Yes	3.177	n/a	n/a	GoodResponse	1	n/a	n/a	8	43	Blank	Win	True
415.271	1.45	Win2	0.7273000000000001	n/a	Yes	3.177	n/a	5.0	GoodResponse	1	0.019	414.29	8	43	Feedback	Win	True
416.725	3.177	Win2	0.7273000000000001	n/a	Yes	3.177	n/a	n/a	GoodResponse	1	0.0	n/a	8	43	ISIslide	Win	True
419.918	0.25	Win2	0.7333	0.0	Yes	2.982	0.018	n/a	GoodResponse	1	n/a	n/a	9	44	Cue	Win	True
420.169	4.0	Win2	0.7333	0.0	Yes	2.982	0.001	n/a	GoodResponse	1	n/a	n/a	9	44	Fixation	Win	True
424.164	0.29	Win2	0.7333	0.004	Yes	2.982	-0.004	2.0	GoodResponse	1	0.236	423.4	9	44	Target	Win	True
424.4	0.3	Win2	0.7333	0.004	Yes	2.982	-0.004	2.0	GoodResponse	1	0.236	n/a	9	44	ButtonPress	Win	True
424.465	0.41	Win2	0.7333	n/a	Yes	2.982	n/a	n/a	GoodResponse	1	n/a	n/a	9	44	Blank	Win	True
424.866	1.45	Win2	0.7333	n/a	Yes	2.982	n/a	5.0	GoodResponse	1	0.034	423.9	9	44	Feedback	Win	True
426.321	2.982	Win2	0.7333	n/a	Yes	2.982	n/a	n/a	GoodResponse	1	0.0	n/a	9	44	ISIslide	Win	True
429.33	0.25	Control	0.7391	0.0	Yes	2.87	0.03	n/a	GoodResponse	0	n/a	n/a	9	45	Cue	Neutral	True
429.58	4.1	Control	0.7391	0.001	Yes	2.87	0.0	n/a	GoodResponse	0	n/a	n/a	9	45	Fixation	Neutral	True
433.676	0.28	Control	0.7391	0.004	Yes	2.87	-0.004	2.0	GoodResponse	0	0.263	432.939	9	45	Target	Neutral	True
433.939	0.3	Control	0.7391	0.004	Yes	2.87	-0.004	2.0	GoodResponse	0	0.263	n/a	9	45	ButtonPress	Neutral	True
433.96	0.42	Control	0.7391	n/a	Yes	2.87	n/a	n/a	GoodResponse	0	n/a	n/a	9	45	Blank	Neutral	True
434.378	1.45	Control	0.7391	n/a	Yes	2.87	n/a	5.0	GoodResponse	0	0.034	433.412	9	45	Feedback	Neutral	True
435.832	2.87	Control	0.7391	n/a	Yes	2.87	n/a	n/a	GoodResponse	0	0.0	n/a	9	45	ISIslide	Neutral	True
438.724	0.25	Lose2	0.7447	0.001	Yes	3.376	0.024	n/a	GoodResponse	0	n/a	n/a	9	46	Cue	AvoidedLoss	True
438.975	4.0	Lose2	0.7447	0.0	Yes	3.376	0.001	n/a	GoodResponse	0	n/a	n/a	9	46	Fixation	AvoidedLoss	True
442.971	0.27	Lose2	0.7447	0.003	Yes	3.376	-0.003	2.0	GoodResponse	0	0.232	442.203	9	46	Target	AvoidedLoss	True
443.203	0.3	Lose2	0.7447	0.003	Yes	3.376	-0.003	2.0	GoodResponse	0	0.232	n/a	9	46	ButtonPress	AvoidedLoss	True
443.255	0.43	Lose2	0.7447	n/a	Yes	3.376	n/a	n/a	GoodResponse	0	n/a	n/a	9	46	Blank	AvoidedLoss	True
443.673	1.45	Lose2	0.7447	n/a	Yes	3.376	n/a	5.0	GoodResponse	0	0.006	442.679	9	46	Feedback	AvoidedLoss	True
445.127	3.376	Lose2	0.7447	n/a	Yes	3.376	n/a	n/a	GoodResponse	0	0.0	n/a	9	46	ISIslide	AvoidedLoss	True
448.52	0.25	Lose2	0.7292000000000001	0.001	No	2.68	0.02	n/a	NoResponse	-1	n/a	n/a	8	47	Cue	Loss	True
448.771	4.0	Lose2	0.7292000000000001	0.0	No	2.68	0.001	n/a	NoResponse	-1	n/a	n/a	8	47	Fixation	Loss	True
452.766	0.26	Lose2	0.7292000000000001	0.004	No	2.68	-0.004	2.0	NoResponse	-1	0.332	452.098	8	47	Target	Loss	True
453.034	0.44	Lose2	0.7292000000000001	n/a	No	2.68	n/a	n/a	NoResponse	-1	n/a	n/a	8	47	Blank	Loss	True
453.098	0.3	Lose2	0.7292000000000001	0.004	No	2.68	-0.004	2.0	NoResponse	-1	0.332	n/a	8	47	ButtonPress	Loss	True
453.469	1.45	Lose2	0.7292000000000001	n/a	No	2.68	n/a	5.0	NoResponse	-1	0.015	452.484	8	47	Feedback	Loss	True
454.923	2.68	Lose2	0.7292000000000001	n/a	No	2.68	n/a	n/a	NoResponse	-1	0.0	n/a	8	47	ISIslide	Loss	True
457.614	0.25	Lose2	0.7143	0.0	No	3.036	0.014	n/a	NoResponse	-1	n/a	n/a	7	48	Cue	Loss	True
457.865	3.95	Lose2	0.7143	0.0	No	3.036	0.001	n/a	NoResponse	-1	n/a	n/a	7	48	Fixation	Loss	True
461.81	0.25	Lose2	0.7143	0.004	No	3.036	-0.004	2.0	NoResponse	-1	0.302	461.112	7	48	Target	Loss	True
462.061	0.45	Lose2	0.7143	n/a	No	3.036	n/a	n/a	NoResponse	-1	n/a	n/a	7	48	Blank	Loss	True
462.112	0.3	Lose2	0.7143	0.004	No	3.036	-0.004	2.0	NoResponse	-1	0.302	n/a	7	48	ButtonPress	Loss	True
462.512	1.45	Lose2	0.7143	n/a	No	3.036	n/a	5.0	NoResponse	-1	0.046	461.558	7	48	Feedback	Loss	True
463.967	3.036	Lose2	0.7143	n/a	No	3.036	n/a	n/a	NoResponse	-1	0.0	n/a	7	48	ISIslide	Loss	True
467.026	0.25	Control	0.7	0.0	No	2.874	0.026	n/a	NoResponse	0	n/a	n/a	7	49	Cue	Neutral	True
467.277	4.0	Control	0.7	0.0	No	2.874	0.001	n/a	NoResponse	0	n/a	n/a	7	49	Fixation	Neutral	True
471.272	0.24	Control	0.7	0.004	No	2.874	-0.004	2.0	NoResponse	0	0.27	470.542	7	49	Target	Neutral	True
471.523	0.46	Control	0.7	n/a	No	2.874	n/a	n/a	NoResponse	0	n/a	n/a	7	49	Blank	Neutral	True
471.542	0.3	Control	0.7	0.004	No	2.874	-0.004	2.0	NoResponse	0	0.27	n/a	7	49	ButtonPress	Neutral	True
471.974	1.45	Control	0.7	n/a	No	2.874	n/a	5.0	NoResponse	0	0.047	471.021	7	49	Feedback	Neutral	True
473.428	2.874	Control	0.7	n/a	No	2.874	n/a	n/a	NoResponse	0	0.0	n/a	7	49	ISIslide	Neutral	True
476.32	0.25	Control	0.6862999999999999	0.0	No	2.78	0.02	n/a	NoResponse	0	n/a	n/a	7	50	Cue	Neutral	True
476.571	4.0	Control	0.6862999999999999	0.0	No	2.78	0.001	n/a	NoResponse	0	n/a	n/a	7	50	Fixation	Neutral	True
480.566	0.23	Control	0.6862999999999999	0.004	No	2.78	-0.004	2.0	NoResponse	0	0.276	479.842	7	50	Target	Neutral	True
480.8	0.47	Control	0.6862999999999999	n/a	No	2.78	n/a	n/a	NoResponse	0	n/a	n/a	7	50	Blank	Neutral	True
480.842	0.3	Control	0.6862999999999999	0.004	No	2.78	-0.004	2.0	NoResponse	0	0.276	n/a	7	50	ButtonPress	Neutral	True
481.268	1.45	Control	0.6862999999999999	n/a	No	2.78	n/a	5.0	NoResponse	0	0.021	480.289	7	50	Feedback	Neutral	True
482.723	2.78	Control	0.6862999999999999	n/a	No	2.78	n/a	n/a	NoResponse	0	0.0	n/a	7	50	ISIslide	Neutral	True
485.514	0.25	Control	0.6731	0.0	No	2.736	0.014	n/a	NoResponse	0	n/a	n/a	7	51	Cue	Neutral	True
485.765	3.95	Control	0.6731	0.0	No	2.736	0.001	n/a	NoResponse	0	n/a	n/a	7	51	Fixation	Neutral	True
489.71	0.22	Control	0.6731	0.004	No	2.736	-0.004	2.0	NoResponse	0	0.241	488.951	7	51	Target	Neutral	True
489.944	0.48	Control	0.6731	n/a	No	2.736	n/a	n/a	NoResponse	0	n/a	n/a	7	51	Blank	Neutral	True
489.951	0.3	Control	0.6731	0.004	No	2.736	-0.004	2.0	NoResponse	0	0.241	n/a	7	51	ButtonPress	Neutral	True
490.412	1.45	Control	0.6731	n/a	No	2.736	n/a	5.0	NoResponse	0	0.047	489.459	7	51	Feedback	Neutral	True
491.867	2.736	Control	0.6731	n/a	No	2.736	n/a	n/a	NoResponse	0	0.0	n/a	7	51	ISIslide	Neutral	True
494.625	0.25	Control	0.6604000000000001	0.0	No	2.625	0.025	n/a	NoResponse	0	n/a	n/a	7	52	Cue	Neutral	True
494.876	4.05	Control	0.6604000000000001	0.0	No	2.625	0.001	n/a	NoResponse	0	n/a	n/a	7	52	Fixation	Neutral	True
498.921	0.21	Control	0.6604000000000001	0.004	No	2.625	-0.004	2.0	NoResponse	0	0.268	498.189	7	52	Target	Neutral	True
499.138	0.49	Control	0.6604000000000001	n/a	No	2.625	n/a	n/a	NoResponse	0	n/a	n/a	7	52	Blank	Neutral	True
499.189	0.3	Control	0.6604000000000001	0.004	No	2.625	-0.004	2.0	NoResponse	0	0.268	n/a	7	52	ButtonPress	Neutral	True
499.623	1.45	Control	0.6604000000000001	n/a	No	2.625	n/a	5.0	NoResponse	0	0.007	498.63	7	52	Feedback	Neutral	True
501.078	2.625	Control	0.6604000000000001	n/a	No	2.625	n/a	n/a	NoResponse	0	0.0	n/a	7	52	ISIslide	Neutral	True
503.719	0.25	Win2	0.6481	0.0	No	2.931	0.019	n/a	NoResponse	0	n/a	n/a	7	53	Cue	MissedWin	False
503.97	4.05	Win2	0.6481	0.0	No	2.931	0.001	2.0	NoResponse	0	3.017	505.987	7	53	Fixation	MissedWin	False
506.987	0.3	Win2	0.6481	0.0	No	2.931	0.001	2.0	NoResponse	0	3.017	n/a	7	53	ButtonPress	MissedWin	False
508.015	0.21	Win2	0.6481	0.004	No	2.931	-0.004	2.0	NoResponse	0	0.26	507.275	7	53	Target	MissedWin	False
508.232	0.49	Win2	0.6481	n/a	No	2.931	n/a	n/a	NoResponse	0	n/a	n/a	7	53	Blank	MissedWin	False
508.275	0.3	Win2	0.6481	0.004	No	2.931	-0.004	2.0	NoResponse	0	0.26	n/a	7	53	ButtonPress	MissedWin	False
508.717	1.45	Win2	0.6481	n/a	No	2.931	n/a	5.0	NoResponse	0	0.035	507.752	7	53	Feedback	MissedWin	False
510.171	2.931	Win2	0.6481	n/a	No	2.931	n/a	n/a	NoResponse	0	0.0	n/a	7	53	ISIslide	MissedWin	False
513.13	0.25	Win2	0.6364	0.0	No	2.72	0.03	n/a	NoResponse	0	n/a	n/a	7	54	Cue	MissedWin	True
513.381	3.95	Win2	0.6364	0.0	No	2.72	0.001	n/a	NoResponse	0	n/a	n/a	7	54	Fixation	MissedWin	True
517.326	0.22	Win2	0.6364	0.004	No	2.72	-0.004	2.0	NoResponse	0	0.301	516.627	7	54	Target	MissedWin	True
517.56	0.48	Win2	0.6364	n/a	No	2.72	n/a	n/a	NoResponse	0	n/a	n/a	7	54	Blank	MissedWin	True
517.627	0.3	Win2	0.6364	0.004	No	2.72	-0.004	2.0	NoResponse	0	0.301	n/a	7	54	ButtonPress	MissedWin	True
518.028	1.45	Win2	0.6364	n/a	No	2.72	n/a	5.0	NoResponse	0	0.041	517.069	7	54	Feedback	MissedWin	True
519.483	2.72	Win2	0.6364	n/a	No	2.72	n/a	n/a	NoResponse	0	0.0	n/a	7	54	ISIslide	MissedWin	True
522.224	0.25	Control	0.625	0.0	No	3.026	0.024	n/a	NoResponse	0	n/a	n/a	7	55	Cue	Neutral	True
522.475	3.95	Control	0.625	0.0	No	3.026	0.001	n/a	NoResponse	0	n/a	n/a	7	55	Fixation	Neutral	True
526.42	0.23	Control	0.625	0.004	No	3.026	-0.004	2.0	NoResponse	0	0.355	525.775	7	55	Target	Neutral	True
526.654	0.47	Control	0.625	n/a	No	3.026	n/a	n/a	NoResponse	0	n/a	n/a	7	55	Blank	Neutral	True
526.775	0.3	Control	0.625	0.004	No	3.026	-0.004	2.0	NoResponse	0	0.355	n/a	7	55	ButtonPress	Neutral	True
527.122	1.45	Control	0.625	n/a	No	3.026	n/a	5.0	NoResponse	0	0.02	526.142	7	55	Feedback	Neutral	True
528.576	3.026	Control	0.625	n/a	No	3.026	n/a	n/a	NoResponse	0	0.0	n/a	7	55	ISIslide	Neutral	True
531.619	0.25	Control	0.614	0.0	No	2.831	0.019	n/a	NoResponse	0	n/a	n/a	7	56	Cue	Neutral	True
531.87	3.95	Control	0.614	0.0	No	2.831	0.001	n/a	NoResponse	0	n/a	n/a	7	56	Fixation	Neutral	True
535.815	0.24	Control	0.614	0.004	No	2.831	-0.004	2.0	NoResponse	0	0.28	535.095	7	56	Target	Neutral	True
536.066	0.46	Control	0.614	n/a	No	2.831	n/a	n/a	NoResponse	0	n/a	n/a	7	56	Blank	Neutral	True
536.095	0.3	Control	0.614	0.004	No	2.831	-0.004	2.0	NoResponse	0	0.28	n/a	7	56	ButtonPress	Neutral	True
536.517	1.45	Control	0.614	n/a	No	2.831	n/a	5.0	NoResponse	0	0.039	535.556	7	56	Feedback	Neutral	True
537.971	2.831	Control	0.614	n/a	No	2.831	n/a	n/a	NoResponse	0	0.0	n/a	7	56	ISIslide	Neutral	True
540.83	0.25	Control	0.6034	0.0	No	3.47	0.03	n/a	NoResponse	0	n/a	n/a	7	57	Cue	Neutral	True
541.081	4.0	Control	0.6034	0.0	No	3.47	0.001	n/a	NoResponse	0	n/a	n/a	7	57	Fixation	Neutral	True
545.076	0.25	Control	0.6034	0.004	No	3.47	-0.004	2.0	NoResponse	0	0.318	544.394	7	57	Target	Neutral	True
545.327	0.45	Control	0.6034	n/a	No	3.47	n/a	n/a	NoResponse	0	n/a	n/a	7	57	Blank	Neutral	True
545.394	0.3	Control	0.6034	0.004	No	3.47	-0.004	2.0	NoResponse	0	0.318	n/a	7	57	ButtonPress	Neutral	True
545.778	1.45	Control	0.6034	n/a	No	3.47	n/a	5.0	NoResponse	0	0.047	544.825	7	57	Feedback	Neutral	True
547.232	3.47	Control	0.6034	n/a	No	3.47	n/a	n/a	NoResponse	0	0.0	n/a	7	57	ISIslide	Neutral	True
550.726	0.25	Win2	0.5932	0.0	No	2.724	0.026	n/a	NoResponse	0	n/a	n/a	7	58	Cue	MissedWin	False
550.977	4.05	Win2	0.5932	0.0	No	2.724	0.001	n/a	NoResponse	0	n/a	n/a	7	58	Fixation	MissedWin	False
555.022	0.26	Win2	0.5932	0.004	No	2.724	-0.004	n/a	NoResponse	0	n/a	n/a	7	58	Target	MissedWin	False
555.29	0.44	Win2	0.5932	n/a	No	2.724	n/a	n/a	NoResponse	0	n/a	n/a	7	58	Blank	MissedWin	False
555.724	1.45	Win2	0.5932	n/a	No	2.724	n/a	5.0	NoResponse	0	0.005	554.729	7	58	Feedback	MissedWin	False
557.179	2.724	Win2	0.5932	n/a	No	2.724	n/a	n/a	NoResponse	0	0.0	n/a	7	58	ISIslide	MissedWin	False
559.92	0.25	Lose2	0.5832999999999999	0.0	No	2.68	0.02	n/a	LatePress	-1	n/a	n/a	6	59	Cue	Loss	True
560.171	4.0	Lose2	0.5832999999999999	0.0	No	2.68	0.001	n/a	LatePress	-1	n/a	n/a	6	59	Fixation	Loss	True
564.166	0.27	Lose2	0.5832999999999999	0.004	No	2.68	-0.004	2.0	LatePress	-1	0.279	563.445	6	59	Target	Loss	True
564.445	0.3	Lose2	0.5832999999999999	0.004	No	2.68	-0.004	2.0	LatePress	-1	0.279	n/a	6	59	ButtonPress	Loss	True
564.45	0.43	Lose2	0.5832999999999999	n/a	No	2.68	n/a	n/a	LatePress	-1	n/a	n/a	6	59	Blank	Loss	True
564.868	1.45	Lose2	0.5832999999999999	n/a	No	2.68	n/a	5.0	LatePress	-1	0.03	563.898	6	59	Feedback	Loss	True
566.323	2.68	Lose2	0.5832999999999999	n/a	No	2.68	n/a	n/a	LatePress	-1	0.0	n/a	6	59	ISIslide	Loss	True
569.014	0.25	Control	0.5738	0.0	No	2.686	0.014	n/a	NoResponse	0	n/a	n/a	6	60	Cue	Neutral	True
569.265	4.0	Control	0.5738	0.0	No	2.686	0.001	n/a	NoResponse	0	n/a	n/a	6	60	Fixation	Neutral	True
573.26	0.28	Control	0.5738	0.004	No	2.686	-0.004	2.0	NoResponse	0	0.337	572.597	6	60	Target	Neutral	True
573.544	0.42	Control	0.5738	n/a	No	2.686	n/a	n/a	NoResponse	0	n/a	n/a	6	60	Blank	Neutral	True
573.597	0.3	Control	0.5738	0.004	No	2.686	-0.004	2.0	NoResponse	0	0.337	n/a	6	60	ButtonPress	Neutral	True
573.962	1.45	Control	0.5738	n/a	No	2.686	n/a	5.0	NoResponse	0	0.009	572.971	6	60	Feedback	Neutral	True
575.417	2.686	Control	0.5738	n/a	No	2.686	n/a	n/a	NoResponse	0	0.0	n/a	6	60	ISIslide	Neutral	True
578.125	0.25	Lose2	0.5806	0.0	Yes	2.975	0.025	n/a	GoodResponse	0	n/a	n/a	6	61	Cue	AvoidedLoss	True
578.375	4.0	Lose2	0.5806	0.0	Yes	2.975	0.0	n/a	GoodResponse	0	n/a	n/a	6	61	Fixation	AvoidedLoss	True
582.371	0.29	Lose2	0.5806	0.004	Yes	2.975	-0.004	2.0	GoodResponse	0	0.282	581.653	6	61	Target	AvoidedLoss	True
582.653	0.3	Lose2	0.5806	0.004	Yes	2.975	-0.004	2.0	GoodResponse	0	0.282	n/a	6	61	ButtonPress	AvoidedLoss	True
582.672	0.41	Lose2	0.5806	n/a	Yes	2.975	n/a	n/a	GoodResponse	0	n/a	n/a	6	61	Blank	AvoidedLoss	True
583.073	1.45	Lose2	0.5806	n/a	Yes	2.975	n/a	5.0	GoodResponse	0	0.02	582.093	6	61	Feedback	AvoidedLoss	True
584.527	2.975	Lose2	0.5806	n/a	Yes	2.975	n/a	n/a	GoodResponse	0	0.0	n/a	6	61	ISIslide	AvoidedLoss	True
587.519	0.25	Lose2	0.5872999999999999	0.0	Yes	2.881	0.019	n/a	GoodResponse	0	n/a	n/a	6	62	Cue	AvoidedLoss	True
587.77	3.9	Lose2	0.5872999999999999	0.0	Yes	2.881	0.001	n/a	GoodResponse	0	n/a	n/a	6	62	Fixation	AvoidedLoss	True
591.665	0.3	Lose2	0.5872999999999999	0.004	Yes	2.881	-0.004	2.0	GoodResponse	0	0.297	590.962	6	62	Target	AvoidedLoss	True
591.962	0.3	Lose2	0.5872999999999999	0.004	Yes	2.881	-0.004	2.0	GoodResponse	0	0.297	n/a	6	62	ButtonPress	AvoidedLoss	True
591.966	0.4	Lose2	0.5872999999999999	n/a	Yes	2.881	n/a	n/a	GoodResponse	0	n/a	n/a	6	62	Blank	AvoidedLoss	True
592.367	1.45	Lose2	0.5872999999999999	n/a	Yes	2.881	n/a	5.0	GoodResponse	0	0.043	591.41	6	62	Feedback	AvoidedLoss	True
593.822	2.881	Lose2	0.5872999999999999	n/a	Yes	2.881	n/a	n/a	GoodResponse	0	0.0	n/a	6	62	ISIslide	AvoidedLoss	True
596.73	0.25	Lose2	0.5938	0.0	Yes	2.62	0.03	n/a	GoodResponse	0	n/a	n/a	6	63	Cue	AvoidedLoss	True
596.981	4.05	Lose2	0.5938	0.0	Yes	2.62	0.001	n/a	GoodResponse	0	n/a	n/a	6	63	Fixation	AvoidedLoss	True
601.026	0.31	Lose2	0.5938	0.004	Yes	2.62	-0.004	2.0	GoodResponse	0	0.253	600.279	6	63	Target	AvoidedLoss	True
601.279	0.3	Lose2	0.5938	0.004	Yes	2.62	-0.004	2.0	GoodResponse	0	0.253	n/a	6	63	ButtonPress	AvoidedLoss	True
601.344	0.39	Lose2	0.5938	n/a	Yes	2.62	n/a	n/a	GoodResponse	0	n/a	n/a	6	63	Blank	AvoidedLoss	True
601.729	1.45	Lose2	0.5938	n/a	Yes	2.62	n/a	5.0	GoodResponse	0	0.047	600.776	6	63	Feedback	AvoidedLoss	True
603.183	2.62	Lose2	0.5938	n/a	Yes	2.62	n/a	n/a	GoodResponse	0	0.0	n/a	6	63	ISIslide	AvoidedLoss	True
605.824	0.25	Win2	0.6	0.0	Yes	3.126	0.024	n/a	GoodResponse	1	n/a	n/a	7	64	Cue	Win	True
606.075	4.15	Win2	0.6	0.0	Yes	3.126	0.001	n/a	GoodResponse	1	n/a	n/a	7	64	Fixation	Win	True
610.221	0.32	Win2	0.6	0.003	Yes	3.126	-0.003	2.0	GoodResponse	1	0.26	609.481	7	64	Target	Win	True
610.481	0.3	Win2	0.6	0.003	Yes	3.126	-0.003	2.0	GoodResponse	1	0.26	n/a	7	64	ButtonPress	Win	True
610.555	0.38	Win2	0.6	n/a	Yes	3.126	n/a	n/a	GoodResponse	1	n/a	n/a	7	64	Blank	Win	True
610.923	1.45	Win2	0.6	n/a	Yes	3.126	n/a	5.0	GoodResponse	1	0.023	609.946	7	64	Feedback	Win	True
612.377	3.126	Win2	0.6	n/a	Yes	3.126	n/a	n/a	GoodResponse	1	0.0	n/a	7	64	ISIslide	Win	True
615.52	0.25	Control	0.6061	0.0	Yes	2.78	0.02	n/a	GoodResponse	0	n/a	n/a	7	65	Cue	Neutral	True
615.77	4.0	Control	0.6061	0.001	Yes	2.78	0.0	n/a	GoodResponse	0	n/a	n/a	7	65	Fixation	Neutral	True
619.766	0.33	Control	0.6061	0.004	Yes	2.78	-0.004	2.0	GoodResponse	0	0.269	619.035	7	65	Target	Neutral	True
620.035	0.3	Control	0.6061	0.004	Yes	2.78	-0.004	2.0	GoodResponse	0	0.269	n/a	7	65	ButtonPress	Neutral	True
620.1	0.37	Control	0.6061	n/a	Yes	2.78	n/a	n/a	GoodResponse	0	n/a	n/a	7	65	Blank	Neutral	True
620.468	1.45	Control	0.6061	n/a	Yes	2.78	n/a	5.0	GoodResponse	0	0.039	619.507	7	65	Feedback	Neutral	True
621.922	2.78	Control	0.6061	n/a	Yes	2.78	n/a	n/a	GoodResponse	0	0.0	n/a	7	65	ISIslide	Neutral	True
624.731	0.25	Win2	0.6119	0.0	Yes	2.769	0.031	n/a	GoodResponse	1	n/a	n/a	8	66	Cue	Win	True
624.981	3.9	Win2	0.6119	0.0	Yes	2.769	0.0	n/a	GoodResponse	1	n/a	n/a	8	66	Fixation	Win	True
628.893	0.34	Win2	0.6119	0.0	Yes	2.769	0.012	2.0	GoodResponse	1	0.241	628.134	8	66	Target	Win	True
629.134	0.3	Win2	0.6119	0.0	Yes	2.769	0.012	2.0	GoodResponse	1	0.241	n/a	8	66	ButtonPress	Win	True
629.227	0.36	Win2	0.6119	n/a	Yes	2.769	n/a	n/a	GoodResponse	1	n/a	n/a	8	66	Blank	Win	True
629.578	1.45	Win2	0.6119	n/a	Yes	2.769	n/a	5.0	GoodResponse	1	0.002	628.58	8	66	Feedback	Win	True
631.033	2.769	Win2	0.6119	n/a	Yes	2.769	n/a	n/a	GoodResponse	1	0.0	n/a	8	66	ISIslide	Win	True
633.824	0.25	Control	0.6175999999999999	0.001	Yes	2.726	0.024	n/a	GoodResponse	0	n/a	n/a	8	67	Cue	Neutral	True
634.075	3.95	Control	0.6175999999999999	0.0	Yes	2.726	0.001	n/a	GoodResponse	0	n/a	n/a	8	67	Fixation	Neutral	True
638.02	0.35	Control	0.6175999999999999	0.004	Yes	2.726	-0.004	2.0	GoodResponse	0	0.276	637.296	8	67	Target	Neutral	True
638.296	0.3	Control	0.6175999999999999	0.004	Yes	2.726	-0.004	2.0	GoodResponse	0	0.276	n/a	8	67	ButtonPress	Neutral	True
638.371	0.35	Control	0.6175999999999999	n/a	Yes	2.726	n/a	n/a	GoodResponse	0	n/a	n/a	8	67	Blank	Neutral	True
638.722	1.45	Control	0.6175999999999999	n/a	Yes	2.726	n/a	5.0	GoodResponse	0	0.029	637.751	8	67	Feedback	Neutral	True
640.177	2.726	Control	0.6175999999999999	n/a	Yes	2.726	n/a	n/a	GoodResponse	0	0.0	n/a	8	67	ISIslide	Neutral	True
642.918	0.25	Win2	0.6232	0.0	Yes	3.082	0.018	n/a	GoodResponse	1	n/a	n/a	9	68	Cue	Win	True
643.169	4.0	Win2	0.6232	0.0	Yes	3.082	0.001	n/a	GoodResponse	1	n/a	n/a	9	68	Fixation	Win	True
647.164	0.36	Win2	0.6232	0.004	Yes	3.082	-0.004	2.0	GoodResponse	1	0.273	646.437	9	68	Target	Win	True
647.437	0.3	Win2	0.6232	0.004	Yes	3.082	-0.004	2.0	GoodResponse	1	0.273	n/a	9	68	ButtonPress	Win	True
647.532	0.34	Win2	0.6232	n/a	Yes	3.082	n/a	n/a	GoodResponse	1	n/a	n/a	9	68	Blank	Win	True
647.866	1.45	Win2	0.6232	n/a	Yes	3.082	n/a	5.0	GoodResponse	1	0.007	646.873	9	68	Feedback	Win	True
649.321	3.082	Win2	0.6232	n/a	Yes	3.082	n/a	n/a	GoodResponse	1	0.0	n/a	9	68	ISIslide	Win	True
652.43	0.25	Win2	0.6286	0.0	Yes	3.22	0.03	n/a	GoodResponse	1	n/a	n/a	10	69	Cue	Win	True
652.681	3.95	Win2	0.6286	0.0	Yes	3.22	0.001	n/a	GoodResponse	1	n/a	n/a	10	69	Fixation	Win	True
656.626	0.37	Win2	0.6286	0.004	Yes	3.22	-0.004	2.0	GoodResponse	1	0.341	655.967	10	69	Target	Win	True
656.967	0.3	Win2	0.6286	0.004	Yes	3.22	-0.004	2.0	GoodResponse	1	0.341	n/a	10	69	ButtonPress	Win	True
657.01	0.33	Win2	0.6286	n/a	Yes	3.22	n/a	n/a	GoodResponse	1	n/a	n/a	10	69	Blank	Win	True
657.328	1.45	Win2	0.6286	n/a	Yes	3.22	n/a	5.0	GoodResponse	1	0.007	656.335	10	69	Feedback	Win	True
658.782	3.22	Win2	0.6286	n/a	Yes	3.22	n/a	n/a	GoodResponse	1	0.0	n/a	10	69	ISIslide	Win	True
662.025	0.25	Lose2	0.6338	0.001	Yes	3.025	0.025	n/a	GoodResponse	0	n/a	n/a	10	70	Cue	AvoidedLoss	True
662.276	4.05	Lose2	0.6338	0.0	Yes	3.025	0.001	n/a	GoodResponse	0	n/a	n/a	10	70	Fixation	AvoidedLoss	True
666.322	0.38	Lose2	0.6338	0.003	Yes	3.025	-0.003	2.0	GoodResponse	0	0.312	665.634	10	70	Target	AvoidedLoss	True
666.634	0.3	Lose2	0.6338	0.003	Yes	3.025	-0.003	2.0	GoodResponse	0	0.312	n/a	10	70	ButtonPress	AvoidedLoss	True
666.706	0.32	Lose2	0.6338	n/a	Yes	3.025	n/a	n/a	GoodResponse	0	n/a	n/a	10	70	Blank	AvoidedLoss	True
667.024	1.45	Lose2	0.6338	n/a	Yes	3.025	n/a	5.0	GoodResponse	0	0.019	666.043	10	70	Feedback	AvoidedLoss	True
668.478	3.025	Lose2	0.6338	n/a	Yes	3.025	n/a	n/a	GoodResponse	0	0.0	n/a	10	70	ISIslide	AvoidedLoss	True
671.521	0.25	Win2	0.6389	0.0	Yes	2.729	0.021	n/a	GoodResponse	1	n/a	n/a	11	71	Cue	Win	True
671.771	4.05	Win2	0.6389	0.0	Yes	2.729	0.0	n/a	GoodResponse	1	n/a	n/a	11	71	Fixation	Win	True
675.817	0.39	Win2	0.6389	0.004	Yes	2.729	-0.004	2.0	GoodResponse	1	0.306	675.123	11	71	Target	Win	True
676.123	0.3	Win2	0.6389	0.004	Yes	2.729	-0.004	2.0	GoodResponse	1	0.306	n/a	11	71	ButtonPress	Win	True
676.218	0.31	Win2	0.6389	n/a	Yes	2.729	n/a	n/a	GoodResponse	1	n/a	n/a	11	71	Blank	Win	True
676.519	1.45	Win2	0.6389	n/a	Yes	2.729	n/a	5.0	GoodResponse	1	0.036	675.555	11	71	Feedback	Win	True
677.973	2.729	Win2	0.6389	n/a	Yes	2.729	n/a	n/a	GoodResponse	1	0.0	n/a	11	71	ISIslide	Win	True
680.715	0.25	Win2	0.6437999999999999	0.0	Yes	2.785	0.015	n/a	GoodResponse	1	n/a	n/a	12	72	Cue	Win	True
680.965	4.1	Win2	0.6437999999999999	0.0	Yes	2.785	0.0	n/a	GoodResponse	1	n/a	n/a	12	72	Fixation	Win	True
685.061	0.4	Win2	0.6437999999999999	0.004	Yes	2.785	-0.004	2.0	GoodResponse	1	0.254	684.315	12	72	Target	Win	True
685.315	0.3	Win2	0.6437999999999999	0.004	Yes	2.785	-0.004	2.0	GoodResponse	1	0.254	n/a	12	72	ButtonPress	Win	True
685.462	0.3	Win2	0.6437999999999999	n/a	Yes	2.785	n/a	n/a	GoodResponse	1	n/a	n/a	12	72	Blank	Win	True
685.763	1.45	Win2	0.6437999999999999	n/a	Yes	2.785	n/a	5.0	GoodResponse	1	0.012	684.775	12	72	Feedback	Win	True
687.217	2.785	Win2	0.6437999999999999	n/a	Yes	2.785	n/a	n/a	GoodResponse	1	0.0	n/a	12	72	ISIslide	Win	True
690.026	0.25	Win2	0.6486	0.0	Yes	2.674	0.026	n/a	GoodResponse	1	n/a	n/a	13	73	Cue	Win	True
690.277	4.0	Win2	0.6486	0.0	Yes	2.674	0.001	n/a	GoodResponse	1	n/a	n/a	13	73	Fixation	Win	True
694.272	0.41	Win2	0.6486	0.004	Yes	2.674	-0.004	2.0	GoodResponse	1	0.295	693.567	13	73	Target	Win	True
694.567	0.3	Win2	0.6486	0.004	Yes	2.674	-0.004	2.0	GoodResponse	1	0.295	n/a	13	73	ButtonPress	Win	True
694.69	0.29	Win2	0.6486	n/a	Yes	2.674	n/a	n/a	GoodResponse	1	n/a	n/a	13	73	Blank	Win	True
694.974	1.45	Win2	0.6486	n/a	Yes	2.674	n/a	5.0	GoodResponse	1	0.02	693.994	13	73	Feedback	Win	True
696.428	2.674	Win2	0.6486	n/a	Yes	2.674	n/a	n/a	GoodResponse	1	0.0	n/a	13	73	ISIslide	Win	True
699.12	0.25	Lose2	0.6533	0.0	Yes	2.63	0.02	n/a	GoodResponse	0	n/a	n/a	13	74	Cue	AvoidedLoss	True
699.37	4.05	Lose2	0.6533	0.001	Yes	2.63	0.0	n/a	GoodResponse	0	n/a	n/a	13	74	Fixation	AvoidedLoss	True
703.416	0.42	Lose2	0.6533	0.004	Yes	2.63	-0.004	2.0	GoodResponse	0	0.303	702.719	13	74	Target	AvoidedLoss	True
703.719	0.3	Lose2	0.6533	0.004	Yes	2.63	-0.004	2.0	GoodResponse	0	0.303	n/a	13	74	ButtonPress	AvoidedLoss	True
703.851	0.28	Lose2	0.6533	n/a	Yes	2.63	n/a	n/a	GoodResponse	0	n/a	n/a	13	74	Blank	AvoidedLoss	True
704.118	1.45	Lose2	0.6533	n/a	Yes	2.63	n/a	5.0	GoodResponse	0	0.046	703.164	13	74	Feedback	AvoidedLoss	True
705.572	2.63	Lose2	0.6533	n/a	Yes	2.63	n/a	n/a	GoodResponse	0	0.0	n/a	13	74	ISIslide	AvoidedLoss	True
708.23	0.25	Lose2	0.6579	0.0	Yes	2.92	0.03	n/a	GoodResponse	0	n/a	n/a	13	75	Cue	AvoidedLoss	True
708.481	3.95	Lose2	0.6579	0.0	Yes	2.92	0.001	n/a	GoodResponse	0	n/a	n/a	13	75	Fixation	AvoidedLoss	True
712.426	0.43	Lose2	0.6579	0.004	Yes	2.92	-0.004	2.0	GoodResponse	0	0.278	711.704	13	75	Target	AvoidedLoss	True
712.704	0.3	Lose2	0.6579	0.004	Yes	2.92	-0.004	2.0	GoodResponse	0	0.278	n/a	13	75	ButtonPress	AvoidedLoss	True
712.861	0.27	Lose2	0.6579	n/a	Yes	2.92	n/a	n/a	GoodResponse	0	n/a	n/a	13	75	Blank	AvoidedLoss	True
713.128	1.45	Lose2	0.6579	n/a	Yes	2.92	n/a	5.0	GoodResponse	0	0.012	712.14	13	75	Feedback	AvoidedLoss	True
714.583	2.92	Lose2	0.6579	n/a	Yes	2.92	n/a	n/a	GoodResponse	0	0.0	n/a	13	75	ISIslide	AvoidedLoss	True
717.525	0.25	Control	0.6623	0.0	Yes	3.225	0.025	n/a	GoodResponse	0	n/a	n/a	13	76	Cue	Neutral	True
717.775	4.05	Control	0.6623	0.001	Yes	3.225	0.0	n/a	GoodResponse	0	n/a	n/a	13	76	Fixation	Neutral	True
721.821	0.43	Control	0.6623	0.004	Yes	3.225	-0.004	2.0	GoodResponse	0	0.297	721.118	13	76	Target	Neutral	True
722.118	0.3	Control	0.6623	0.004	Yes	3.225	-0.004	2.0	GoodResponse	0	0.297	n/a	13	76	ButtonPress	Neutral	True
722.256	0.27	Control	0.6623	n/a	Yes	3.225	n/a	n/a	GoodResponse	0	n/a	n/a	13	76	Blank	Neutral	True
722.523	1.45	Control	0.6623	n/a	Yes	3.225	n/a	5.0	GoodResponse	0	0.032	721.555	13	76	Feedback	Neutral	True
723.977	3.225	Control	0.6623	n/a	Yes	3.225	n/a	n/a	GoodResponse	0	0.0	n/a	13	76	ISIslide	Neutral	True
727.22	0.25	Lose2	0.6667000000000001	0.0	Yes	2.58	0.02	n/a	GoodResponse	0	n/a	n/a	13	77	Cue	AvoidedLoss	True
727.471	3.95	Lose2	0.6667000000000001	0.0	Yes	2.58	0.001	n/a	GoodResponse	0	n/a	n/a	13	77	Fixation	AvoidedLoss	True
731.416	0.43	Lose2	0.6667000000000001	0.004	Yes	2.58	-0.004	2.0	GoodResponse	0	0.256	730.672	13	77	Target	AvoidedLoss	True
731.672	0.3	Lose2	0.6667000000000001	0.004	Yes	2.58	-0.004	2.0	GoodResponse	0	0.256	n/a	13	77	ButtonPress	AvoidedLoss	True
731.851	0.27	Lose2	0.6667000000000001	n/a	Yes	2.58	n/a	n/a	GoodResponse	0	n/a	n/a	13	77	Blank	AvoidedLoss	True
732.118	1.45	Lose2	0.6667000000000001	n/a	Yes	2.58	n/a	5.0	GoodResponse	0	0.047	731.165	13	77	Feedback	AvoidedLoss	True
733.573	2.58	Lose2	0.6667000000000001	n/a	Yes	2.58	n/a	n/a	GoodResponse	0	0.0	n/a	13	77	ISIslide	AvoidedLoss	True
