onset	duration	cue_type	current_mean_accuracy	duration_error	is_hit	isi_adjusted	onset_delay	response	response_type	reward	rt	rt_time	total_reward	trial_number	trial_phase	trial_type	one_press
11.109	0.25	Control	1.0	0.001	Yes	2.941	0.009	n/a	GoodResponse	0	n/a	n/a	0	0	Cue	Neutral	True
11.36	3.85	Control	1.0	0.0	Yes	2.941	0.001	n/a	GoodResponse	0	n/a	n/a	0	0	Fixation	Neutral	True
15.205	0.4	Control	1.0	0.004	Yes	2.941	-0.004	2.0	GoodResponse	0	0.17	14.375	0	0	Target	Neutral	True
15.375	0.3	Control	1.0	0.004	Yes	2.941	-0.004	2.0	GoodResponse	0	0.17	n/a	0	0	ButtonPress	Neutral	True
15.606	0.3	Control	1.0	n/a	Yes	2.941	n/a	n/a	GoodResponse	0	n/a	n/a	0	0	Blank	Neutral	True
15.907	1.45	Control	1.0	n/a	Yes	2.941	n/a	5.0	GoodResponse	0	0.02	14.927	0	0	Feedback	Neutral	True
17.361	2.941	Control	1.0	n/a	Yes	2.941	n/a	n/a	GoodResponse	0	0.0	n/a	0	0	ISIslide	Neutral	True
20.32	0.25	Lose2	1.0	0.0	Yes	2.78	0.02	n/a	GoodResponse	0	n/a	n/a	0	1	Cue	AvoidedLoss	True
20.571	4.0	Lose2	1.0	0.0	Yes	2.78	0.001	n/a	GoodResponse	0	n/a	n/a	0	1	Fixation	AvoidedLoss	True
24.566	0.39	Lose2	1.0	0.004	Yes	2.78	-0.004	2.0	GoodResponse	0	0.175	23.741	0	1	Target	AvoidedLoss	True
24.741	0.3	Lose2	1.0	0.004	Yes	2.78	-0.004	2.0	GoodResponse	0	0.175	n/a	0	1	ButtonPress	AvoidedLoss	True
24.968	0.31	Lose2	1.0	n/a	Yes	2.78	n/a	n/a	GoodResponse	0	n/a	n/a	0	1	Blank	AvoidedLoss	True
25.268	1.45	Lose2	1.0	n/a	Yes	2.78	n/a	5.0	GoodResponse	0	0.025	24.293	0	1	Feedback	AvoidedLoss	True
26.723	2.78	Lose2	1.0	n/a	Yes	2.78	n/a	n/a	GoodResponse	0	0.0	n/a	0	1	ISIslide	AvoidedLoss	True
29.515	0.25	Control	1.0	0.0	Yes	2.585	0.015	n/a	GoodResponse	0	n/a	n/a	0	2	Cue	Neutral	True
29.765	4.1	Control	1.0	0.0	Yes	2.585	0.0	n/a	GoodResponse	0	n/a	n/a	0	2	Fixation	Neutral	True
33.861	0.38	Control	1.0	0.004	Yes	2.585	-0.004	2.0	GoodResponse	0	0.144	33.005	0	2	Target	Neutral	True
34.005	0.3	Control	1.0	0.004	Yes	2.585	-0.004	2.0	GoodResponse	0	0.144	n/a	0	2	ButtonPress	Neutral	True
34.245	0.32	Control	1.0	n/a	Yes	2.585	n/a	n/a	GoodResponse	0	n/a	n/a	0	2	Blank	Neutral	True
34.563	1.45	Control	1.0	n/a	Yes	2.585	n/a	5.0	GoodResponse	0	0.047	33.61	0	2	Feedback	Neutral	True
36.017	2.585	Control	1.0	n/a	Yes	2.585	n/a	n/a	GoodResponse	0	0.0	n/a	0	2	ISIslide	Neutral	True
38.625	0.25	Win2	1.0	0.0	Yes	2.825	0.025	n/a	GoodResponse	1	n/a	n/a	1	3	Cue	Win	True
38.876	3.95	Win2	1.0	0.0	Yes	2.825	0.001	n/a	GoodResponse	1	n/a	n/a	1	3	Fixation	Win	True
42.821	0.37	Win2	1.0	0.004	Yes	2.825	-0.004	2.0	GoodResponse	1	0.186	42.007	1	3	Target	Win	True
43.007	0.3	Win2	1.0	0.004	Yes	2.825	-0.004	2.0	GoodResponse	1	0.186	n/a	1	3	ButtonPress	Win	True
43.206	0.33	Win2	1.0	n/a	Yes	2.825	n/a	n/a	GoodResponse	1	n/a	n/a	1	3	Blank	Win	True
43.523	1.45	Win2	1.0	n/a	Yes	2.825	n/a	5.0	GoodResponse	1	0.013	42.536	1	3	Feedback	Win	True
44.977	2.825	Win2	1.0	n/a	Yes	2.825	n/a	n/a	GoodResponse	1	0.0	n/a	1	3	ISIslide	Win	True
47.819	0.25	Win2	1.0	0.0	Yes	3.281	0.019	n/a	GoodResponse	1	n/a	n/a	2	4	Cue	Win	True
48.07	4.0	Win2	1.0	0.0	Yes	3.281	0.001	n/a	GoodResponse	1	n/a	n/a	2	4	Fixation	Win	True
52.065	0.36	Win2	1.0	0.004	Yes	3.281	-0.004	2.0	GoodResponse	1	0.196	51.261	2	4	Target	Win	True
52.261	0.3	Win2	1.0	0.004	Yes	3.281	-0.004	2.0	GoodResponse	1	0.196	n/a	2	4	ButtonPress	Win	True
52.433	0.34	Win2	1.0	n/a	Yes	3.281	n/a	n/a	GoodResponse	1	n/a	n/a	2	4	Blank	Win	True
52.767	1.45	Win2	1.0	n/a	Yes	3.281	n/a	5.0	GoodResponse	1	0.037	51.804	2	4	Feedback	Win	True
54.222	3.281	Win2	1.0	n/a	Yes	3.281	n/a	n/a	GoodResponse	1	0.0	n/a	2	4	ISIslide	Win	True
57.515	0.25	Win2	1.0	0.0	Yes	2.785	0.015	n/a	GoodResponse	1	n/a	n/a	3	5	Cue	Win	True
57.766	4.0	Win2	1.0	0.0	Yes	2.785	0.001	n/a	GoodResponse	1	n/a	n/a	3	5	Fixation	Win	True
61.761	0.35	Win2	1.0	0.004	Yes	2.785	-0.004	2.0	GoodResponse	1	0.161	60.922	3	5	Target	Win	True
61.922	0.3	Win2	1.0	0.004	Yes	2.785	-0.004	2.0	GoodResponse	1	0.161	n/a	3	5	ButtonPress	Win	True
62.112	0.35	Win2	1.0	n/a	Yes	2.785	n/a	n/a	GoodResponse	1	n/a	n/a	3	5	Blank	Win	True
62.463	1.45	Win2	1.0	n/a	Yes	2.785	n/a	5.0	GoodResponse	1	0.049	61.512	3	5	Feedback	Win	True
63.918	2.785	Win2	1.0	n/a	Yes	2.785	n/a	n/a	GoodResponse	1	0.0	n/a	3	5	ISIslide	Win	True
66.726	0.25	Lose2	1.0	0.0	Yes	2.724	0.026	n/a	GoodResponse	0	n/a	n/a	3	6	Cue	AvoidedLoss	True
66.977	3.95	Lose2	1.0	0.0	Yes	2.724	0.001	n/a	GoodResponse	0	n/a	n/a	3	6	Fixation	AvoidedLoss	True
70.922	0.34	Lose2	1.0	0.004	Yes	2.724	-0.004	2.0	GoodResponse	0	0.191	70.113	3	6	Target	AvoidedLoss	True
71.113	0.3	Lose2	1.0	0.004	Yes	2.724	-0.004	2.0	GoodResponse	0	0.191	n/a	3	6	ButtonPress	AvoidedLoss	True
71.273	0.36	Lose2	1.0	n/a	Yes	2.724	n/a	n/a	GoodResponse	0	n/a	n/a	3	6	Blank	AvoidedLoss	True
71.624	1.45	Lose2	1.0	n/a	Yes	2.724	n/a	5.0	GoodResponse	0	0.01	70.634	3	6	Feedback	AvoidedLoss	True
73.078	2.724	Lose2	1.0	n/a	Yes	2.724	n/a	n/a	GoodResponse	0	0.0	n/a	3	6	ISIslide	AvoidedLoss	True
75.82	0.25	Lose2	1.0	0.0	Yes	4.03	0.02	n/a	GoodResponse	0	n/a	n/a	3	7	Cue	AvoidedLoss	True
76.071	4.05	Lose2	1.0	0.0	Yes	4.03	0.001	n/a	GoodResponse	0	n/a	n/a	3	7	Fixation	AvoidedLoss	True
80.116	0.33	Lose2	1.0	0.004	Yes	4.03	-0.004	2.0	GoodResponse	0	0.264	79.38	3	7	Target	AvoidedLoss	True
80.38	0.3	Lose2	1.0	0.004	Yes	4.03	-0.004	2.0	GoodResponse	0	0.264	n/a	3	7	ButtonPress	AvoidedLoss	True
80.45	0.37	Lose2	1.0	n/a	Yes	4.03	n/a	n/a	GoodResponse	0	n/a	n/a	3	7	Blank	AvoidedLoss	True
80.818	1.45	Lose2	1.0	n/a	Yes	4.03	n/a	5.0	GoodResponse	0	0.035	79.853	3	7	Feedback	AvoidedLoss	True
82.272	4.03	Lose2	1.0	n/a	Yes	4.03	n/a	n/a	GoodResponse	0	0.0	n/a	3	7	ISIslide	AvoidedLoss	True
86.318	0.25	Lose2	1.0	0.0	Yes	3.032	0.018	n/a	GoodResponse	0	n/a	n/a	3	8	Cue	AvoidedLoss	True
86.569	3.95	Lose2	1.0	0.0	Yes	3.032	0.001	n/a	GoodResponse	0	n/a	n/a	3	8	Fixation	AvoidedLoss	True
90.514	0.32	Lose2	1.0	0.004	Yes	3.032	-0.004	2.0	GoodResponse	0	0.226	89.74	3	8	Target	AvoidedLoss	True
90.74	0.3	Lose2	1.0	0.004	Yes	3.032	-0.004	2.0	GoodResponse	0	0.226	n/a	3	8	ButtonPress	AvoidedLoss	True
90.848	0.38	Lose2	1.0	n/a	Yes	3.032	n/a	n/a	GoodResponse	0	n/a	n/a	3	8	Blank	AvoidedLoss	True
91.216	1.45	Lose2	1.0	n/a	Yes	3.032	n/a	5.0	GoodResponse	0	0.027	90.243	3	8	Feedback	AvoidedLoss	True
92.67	3.032	Lose2	1.0	n/a	Yes	3.032	n/a	n/a	GoodResponse	0	0.0	n/a	3	8	ISIslide	AvoidedLoss	True
95.729	0.25	Lose2	1.0	0.0	Yes	3.121	0.029	n/a	GoodResponse	0	n/a	n/a	3	9	Cue	AvoidedLoss	True
95.98	3.95	Lose2	1.0	0.0	Yes	3.121	0.001	n/a	GoodResponse	0	n/a	n/a	3	9	Fixation	AvoidedLoss	True
99.925	0.31	Lose2	1.0	0.004	Yes	3.121	-0.004	2.0	GoodResponse	0	0.182	99.107	3	9	Target	AvoidedLoss	True
100.107	0.3	Lose2	1.0	0.004	Yes	3.121	-0.004	2.0	GoodResponse	0	0.182	n/a	3	9	ButtonPress	AvoidedLoss	True
100.243	0.39	Lose2	1.0	n/a	Yes	3.121	n/a	n/a	GoodResponse	0	n/a	n/a	3	9	Blank	AvoidedLoss	True
100.627	1.45	Lose2	1.0	n/a	Yes	3.121	n/a	5.0	GoodResponse	0	0.03	99.657	3	9	Feedback	AvoidedLoss	True
102.082	3.121	Lose2	1.0	n/a	Yes	3.121	n/a	n/a	GoodResponse	0	0.0	n/a	3	9	ISIslide	AvoidedLoss	True
105.224	0.25	Control	1.0	0.001	Yes	3.276	0.024	n/a	GoodResponse	0	n/a	n/a	3	10	Cue	Neutral	True
105.475	4.0	Control	1.0	0.0	Yes	3.276	0.001	n/a	GoodResponse	0	n/a	n/a	3	10	Fixation	Neutral	True
109.471	0.3	Control	1.0	0.003	Yes	3.276	-0.003	2.0	GoodResponse	0	0.176	108.647	3	10	Target	Neutral	True
109.647	0.3	Control	1.0	0.003	Yes	3.276	-0.003	2.0	GoodResponse	0	0.176	n/a	3	10	ButtonPress	Neutral	True
109.771	0.4	Control	1.0	n/a	Yes	3.276	n/a	n/a	GoodResponse	0	n/a	n/a	3	10	Blank	Neutral	True
110.173	1.45	Control	1.0	n/a	Yes	3.276	n/a	5.0	GoodResponse	0	0.045	109.218	3	10	Feedback	Neutral	True
111.627	3.276	Control	1.0	n/a	Yes	3.276	n/a	n/a	GoodResponse	0	0.0	n/a	3	10	ISIslide	Neutral	True
114.92	0.25	Lose2	1.0	0.0	Yes	2.73	0.02	n/a	GoodResponse	0	n/a	n/a	3	11	Cue	AvoidedLoss	True
115.171	4.05	Lose2	1.0	0.0	Yes	2.73	0.001	n/a	GoodResponse	0	n/a	n/a	3	11	Fixation	AvoidedLoss	True
119.216	0.29	Lose2	1.0	0.004	Yes	2.73	-0.004	2.0	GoodResponse	0	0.273	118.489	3	11	Target	AvoidedLoss	True
119.489	0.3	Lose2	1.0	0.004	Yes	2.73	-0.004	2.0	GoodResponse	0	0.273	n/a	3	11	ButtonPress	AvoidedLoss	True
119.517	0.41	Lose2	1.0	n/a	Yes	2.73	n/a	n/a	GoodResponse	0	n/a	n/a	3	11	Blank	AvoidedLoss	True
119.918	1.45	Lose2	1.0	n/a	Yes	2.73	n/a	5.0	GoodResponse	0	0.008	118.926	3	11	Feedback	AvoidedLoss	True
121.373	2.73	Lose2	1.0	n/a	Yes	2.73	n/a	n/a	GoodResponse	0	0.0	n/a	3	11	ISIslide	AvoidedLoss	True
124.114	0.25	Control	1.0	0.0	Yes	2.986	0.014	n/a	GoodResponse	0	n/a	n/a	3	12	Cue	Neutral	True
124.365	3.9	Control	1.0	0.0	Yes	2.986	0.001	n/a	GoodResponse	0	n/a	n/a	3	12	Fixation	Neutral	True
128.26	0.28	Control	1.0	0.004	Yes	2.986	-0.004	2.0	GoodResponse	0	0.215	127.475	3	12	Target	Neutral	True
128.475	0.3	Control	1.0	0.004	Yes	2.986	-0.004	2.0	GoodResponse	0	0.215	n/a	3	12	ButtonPress	Neutral	True
128.544	0.42	Control	1.0	n/a	Yes	2.986	n/a	n/a	GoodResponse	0	n/a	n/a	3	12	Blank	Neutral	True
128.962	1.45	Control	1.0	n/a	Yes	2.986	n/a	5.0	GoodResponse	0	0.037	127.999	3	12	Feedback	Neutral	True
130.417	2.986	Control	1.0	n/a	Yes	2.986	n/a	n/a	GoodResponse	0	0.0	n/a	3	12	ISIslide	Neutral	True
133.426	0.25	Control	1.0	0.0	Yes	2.774	0.026	n/a	GoodResponse	0	n/a	n/a	3	13	Cue	Neutral	True
133.676	4.0	Control	1.0	0.0	Yes	2.774	0.0	n/a	GoodResponse	0	n/a	n/a	3	13	Fixation	Neutral	True
137.672	0.27	Control	1.0	0.004	Yes	2.774	-0.004	2.0	GoodResponse	0	0.171	136.843	3	13	Target	Neutral	True
137.843	0.3	Control	1.0	0.004	Yes	2.774	-0.004	2.0	GoodResponse	0	0.171	n/a	3	13	ButtonPress	Neutral	True
137.956	0.43	Control	1.0	n/a	Yes	2.774	n/a	n/a	GoodResponse	0	n/a	n/a	3	13	Blank	Neutral	True
138.374	1.45	Control	1.0	n/a	Yes	2.774	n/a	5.0	GoodResponse	0	0.04	137.414	3	13	Feedback	Neutral	True
139.828	2.774	Control	1.0	n/a	Yes	2.774	n/a	n/a	GoodResponse	0	0.0	n/a	3	13	ISIslide	Neutral	True
142.62	0.25	Win2	1.0	0.0	Yes	2.68	0.02	n/a	GoodResponse	1	n/a	n/a	4	14	Cue	Win	True
142.871	4.1	Win2	1.0	0.0	Yes	2.68	0.001	n/a	GoodResponse	1	n/a	n/a	4	14	Fixation	Win	True
146.966	0.26	Win2	1.0	0.004	Yes	2.68	-0.004	2.0	GoodResponse	1	0.165	146.131	4	14	Target	Win	True
147.131	0.3	Win2	1.0	0.004	Yes	2.68	-0.004	2.0	GoodResponse	1	0.165	n/a	4	14	ButtonPress	Win	True
147.234	0.44	Win2	1.0	n/a	Yes	2.68	n/a	n/a	GoodResponse	1	n/a	n/a	4	14	Blank	Win	True
147.668	1.45	Win2	1.0	n/a	Yes	2.68	n/a	5.0	GoodResponse	1	0.013	146.681	4	14	Feedback	Win	True
149.123	2.68	Win2	1.0	n/a	Yes	2.68	n/a	n/a	GoodResponse	1	0.0	n/a	4	14	ISIslide	Win	True
151.831	0.25	Control	1.0	0.0	Yes	2.969	0.031	n/a	GoodResponse	0	n/a	n/a	4	15	Cue	Neutral	True
152.081	4.0	Control	1.0	0.0	Yes	2.969	0.0	n/a	GoodResponse	0	n/a	n/a	4	15	Fixation	Neutral	True
156.077	0.25	Control	1.0	0.004	Yes	2.969	-0.004	2.0	GoodResponse	0	0.194	155.271	4	15	Target	Neutral	True
156.271	0.3	Control	1.0	0.004	Yes	2.969	-0.004	2.0	GoodResponse	0	0.194	n/a	4	15	ButtonPress	Neutral	True
156.327	0.45	Control	1.0	n/a	Yes	2.969	n/a	n/a	GoodResponse	0	n/a	n/a	4	15	Blank	Neutral	True
156.779	1.45	Control	1.0	n/a	Yes	2.969	n/a	5.0	GoodResponse	0	0.024	155.803	4	15	Feedback	Neutral	True
158.233	2.969	Control	1.0	n/a	Yes	2.969	n/a	n/a	GoodResponse	0	0.0	n/a	4	15	ISIslide	Neutral	True
161.225	0.25	Win2	0.9412	0.001	No	2.875	0.025	n/a	NoResponse	0	n/a	n/a	4	16	Cue	MissedWin	True
161.476	4.0	Win2	0.9412	0.0	No	2.875	0.001	2.0	NoResponse	0	3.867	164.343	4	16	Fixation	MissedWin	True
165.343	0.3	Win2	0.9412	0.0	No	2.875	0.001	2.0	NoResponse	0	3.867	n/a	4	16	ButtonPress	MissedWin	True
165.471	0.24	Win2	0.9412	0.004	No	2.875	-0.004	n/a	NoResponse	0	n/a	n/a	4	16	Target	MissedWin	True
165.722	0.46	Win2	0.9412	n/a	No	2.875	n/a	n/a	NoResponse	0	n/a	n/a	4	16	Blank	MissedWin	True
166.174	1.45	Win2	0.9412	n/a	No	2.875	n/a	5.0	NoResponse	0	0.044	165.218	4	16	Feedback	MissedWin	True
167.628	2.875	Win2	0.9412	n/a	No	2.875	n/a	n/a	NoResponse	0	0.0	n/a	4	16	ISIslide	MissedWin	True
170.52	0.25	Lose2	0.9444	0.0	Yes	2.73	0.02	n/a	GoodResponse	0	n/a	n/a	4	17	Cue	AvoidedLoss	True
170.771	3.95	Lose2	0.9444	0.0	Yes	2.73	0.001	n/a	GoodResponse	0	n/a	n/a	4	17	Fixation	AvoidedLoss	True
174.716	0.23	Lose2	0.9444	0.004	Yes	2.73	-0.004	2.0	GoodResponse	0	0.175	173.891	4	17	Target	AvoidedLoss	True
174.891	0.3	Lose2	0.9444	0.004	Yes	2.73	-0.004	2.0	GoodResponse	0	0.175	n/a	4	17	ButtonPress	AvoidedLoss	True
174.95	0.47	Lose2	0.9444	n/a	Yes	2.73	n/a	n/a	GoodResponse	0	n/a	n/a	4	17	Blank	AvoidedLoss	True
175.418	1.45	Lose2	0.9444	n/a	Yes	2.73	n/a	5.0	GoodResponse	0	0.02	174.438	4	17	Feedback	AvoidedLoss	True
176.872	2.73	Lose2	0.9444	n/a	Yes	2.73	n/a	n/a	GoodResponse	0	0.0	n/a	4	17	ISIslide	AvoidedLoss	True
179.631	0.25	Lose2	0.9473999999999999	0.0	Yes	2.719	0.031	n/a	GoodResponse	0	n/a	n/a	4	18	Cue	AvoidedLoss	True
179.881	4.05	Lose2	0.9473999999999999	0.0	Yes	2.719	0.0	n/a	GoodResponse	0	n/a	n/a	4	18	Fixation	AvoidedLoss	True
183.927	0.22	Lose2	0.9473999999999999	0.004	Yes	2.719	-0.004	2.0	GoodResponse	0	0.213	183.14	4	18	Target	AvoidedLoss	True
184.14	0.3	Lose2	0.9473999999999999	0.004	Yes	2.719	-0.004	2.0	GoodResponse	0	0.213	n/a	4	18	ButtonPress	AvoidedLoss	True
184.161	0.48	Lose2	0.9473999999999999	n/a	Yes	2.719	n/a	n/a	GoodResponse	0	n/a	n/a	4	18	Blank	AvoidedLoss	True
184.629	1.45	Lose2	0.9473999999999999	n/a	Yes	2.719	n/a	5.0	GoodResponse	0	0.028	183.657	4	18	Feedback	AvoidedLoss	True
186.083	2.719	Lose2	0.9473999999999999	n/a	Yes	2.719	n/a	n/a	GoodResponse	0	0.0	n/a	4	18	ISIslide	AvoidedLoss	True
188.825	0.25	Control	0.95	0.0	Yes	2.925	0.025	n/a	GoodResponse	0	n/a	n/a	4	19	Cue	Neutral	True
189.075	3.95	Control	0.95	0.001	Yes	2.925	0.0	n/a	GoodResponse	0	n/a	n/a	4	19	Fixation	Neutral	True
193.021	0.21	Control	0.95	0.004	Yes	2.925	-0.004	2.0	GoodResponse	0	0.181	192.202	4	19	Target	Neutral	True
193.202	0.3	Control	0.95	0.004	Yes	2.925	-0.004	2.0	GoodResponse	0	0.181	n/a	4	19	ButtonPress	Neutral	True
193.238	0.49	Control	0.95	n/a	Yes	2.925	n/a	n/a	GoodResponse	0	n/a	n/a	4	19	Blank	Neutral	True
193.723	1.45	Control	0.95	n/a	Yes	2.925	n/a	5.0	GoodResponse	0	0.007	192.73	4	19	Feedback	Neutral	True
195.177	2.925	Control	0.95	n/a	Yes	2.925	n/a	n/a	GoodResponse	0	0.0	n/a	4	19	ISIslide	Neutral	True
198.119	0.25	Control	0.9523999999999999	0.0	Yes	2.631	0.019	n/a	GoodResponse	0	n/a	n/a	4	20	Cue	Neutral	True
198.37	4.05	Control	0.9523999999999999	0.0	Yes	2.631	0.001	n/a	GoodResponse	0	n/a	n/a	4	20	Fixation	Neutral	True
202.415	0.2	Control	0.9523999999999999	0.004	Yes	2.631	-0.004	2.0	GoodResponse	0	0.188	201.603	4	20	Target	Neutral	True
202.603	0.3	Control	0.9523999999999999	0.004	Yes	2.631	-0.004	2.0	GoodResponse	0	0.188	n/a	4	20	ButtonPress	Neutral	True
202.616	0.5	Control	0.9523999999999999	n/a	Yes	2.631	n/a	n/a	GoodResponse	0	n/a	n/a	4	20	Blank	Neutral	True
203.118	1.45	Control	0.9523999999999999	n/a	Yes	2.631	n/a	5.0	GoodResponse	0	0.026	202.144	4	20	Feedback	Neutral	True
204.572	2.631	Control	0.9523999999999999	n/a	Yes	2.631	n/a	n/a	GoodResponse	0	0.0	n/a	4	20	ISIslide	Neutral	True
207.23	0.25	Control	0.9091	0.0	No	2.77	0.03	n/a	NoResponse	0	n/a	n/a	4	21	Cue	Neutral	True
207.481	4.1	Control	0.9091	0.0	No	2.77	0.001	n/a	NoResponse	0	n/a	n/a	4	21	Fixation	Neutral	True
211.576	0.19	Control	0.9091	0.004	No	2.77	-0.004	2.0	NoResponse	0	0.224	210.8	4	21	Target	Neutral	True
211.777	0.51	Control	0.9091	n/a	No	2.77	n/a	n/a	NoResponse	0	n/a	n/a	4	21	Blank	Neutral	True
211.8	0.3	Control	0.9091	0.004	No	2.77	-0.004	2.0	NoResponse	0	0.224	n/a	4	21	ButtonPress	Neutral	True
212.278	1.45	Control	0.9091	n/a	No	2.77	n/a	5.0	NoResponse	0	0.037	211.315	4	21	Feedback	Neutral	True
213.733	2.77	Control	0.9091	n/a	No	2.77	n/a	n/a	NoResponse	0	0.0	n/a	4	21	ISIslide	Neutral	True
216.524	0.25	Control	0.8695999999999999	0.0	No	2.776	0.024	n/a	NoResponse	0	n/a	n/a	4	22	Cue	Neutral	True
216.775	4.0	Control	0.8695999999999999	0.0	No	2.776	0.001	n/a	NoResponse	0	n/a	n/a	4	22	Fixation	Neutral	True
220.77	0.18	Control	0.8695999999999999	0.004	No	2.776	-0.004	2.0	NoResponse	0	0.194	219.964	4	22	Target	Neutral	True
220.954	0.52	Control	0.8695999999999999	n/a	No	2.776	n/a	n/a	NoResponse	0	n/a	n/a	4	22	Blank	Neutral	True
220.964	0.3	Control	0.8695999999999999	0.004	No	2.776	-0.004	2.0	NoResponse	0	0.194	n/a	4	22	ButtonPress	Neutral	True
221.472	1.45	Control	0.8695999999999999	n/a	No	2.776	n/a	5.0	NoResponse	0	0.014	220.486	4	22	Feedback	Neutral	True
222.927	2.776	Control	0.8695999999999999	n/a	No	2.776	n/a	n/a	NoResponse	0	0.0	n/a	4	22	ISIslide	Neutral	True
225.718	0.25	Control	0.8332999999999999	0.001	No	2.782	0.018	n/a	NoResponse	0	n/a	n/a	4	23	Cue	Neutral	True
225.969	3.9	Control	0.8332999999999999	0.0	No	2.782	0.001	n/a	NoResponse	0	n/a	n/a	4	23	Fixation	Neutral	True
229.864	0.17	Control	0.8332999999999999	0.004	No	2.782	-0.004	2.0	NoResponse	0	0.197	229.061	4	23	Target	Neutral	True
230.048	0.53	Control	0.8332999999999999	n/a	No	2.782	n/a	n/a	NoResponse	0	n/a	n/a	4	23	Blank	Neutral	True
230.061	0.3	Control	0.8332999999999999	0.004	No	2.782	-0.004	2.0	NoResponse	0	0.197	n/a	4	23	ButtonPress	Neutral	True
230.566	1.45	Control	0.8332999999999999	n/a	No	2.782	n/a	5.0	NoResponse	0	0.042	229.608	4	23	Feedback	Neutral	True
232.021	2.782	Control	0.8332999999999999	n/a	No	2.782	n/a	2.0	NoResponse	0	1.791	n/a	4	23	ISIslide	Neutral	True
234.796	0.25	Win2	0.8	0.0	No	3.154	-0.004	n/a	NoResponse	0	n/a	n/a	4	24	Cue	MissedWin	True
235.046	3.95	Win2	0.8	0.0	No	3.154	0.0	n/a	NoResponse	0	n/a	n/a	4	24	Fixation	MissedWin	True
238.992	0.16	Win2	0.8	0.004	No	3.154	-0.004	2.0	NoResponse	0	0.189	238.181	4	24	Target	MissedWin	True
239.159	0.54	Win2	0.8	n/a	No	3.154	n/a	n/a	NoResponse	0	n/a	n/a	4	24	Blank	MissedWin	True
239.181	0.3	Win2	0.8	0.004	No	3.154	-0.004	2.0	NoResponse	0	0.189	n/a	4	24	ButtonPress	MissedWin	True
239.694	1.45	Win2	0.8	n/a	No	3.154	n/a	5.0	NoResponse	0	0.035	238.729	4	24	Feedback	MissedWin	True
241.148	3.154	Win2	0.8	n/a	No	3.154	n/a	n/a	NoResponse	0	0.0	n/a	4	24	ISIslide	MissedWin	True
244.324	0.25	Win2	0.7692	0.0	No	3.076	0.024	n/a	NoResponse	0	n/a	n/a	4	25	Cue	MissedWin	True
244.575	4.0	Win2	0.7692	0.0	No	3.076	0.001	n/a	NoResponse	0	n/a	n/a	4	25	Fixation	MissedWin	True
248.57	0.15	Win2	0.7692	0.004	No	3.076	-0.004	2.0	NoResponse	0	0.167	247.737	4	25	Target	MissedWin	True
248.721	0.55	Win2	0.7692	n/a	No	3.076	n/a	n/a	NoResponse	0	n/a	n/a	4	25	Blank	MissedWin	True
248.737	0.3	Win2	0.7692	0.004	No	3.076	-0.004	2.0	NoResponse	0	0.167	n/a	4	25	ButtonPress	MissedWin	True
249.272	1.45	Win2	0.7692	n/a	No	3.076	n/a	5.0	NoResponse	0	0.018	248.29	4	25	Feedback	MissedWin	True
250.727	3.076	Win2	0.7692	n/a	No	3.076	n/a	n/a	NoResponse	0	0.0	n/a	4	25	ISIslide	MissedWin	True
253.819	0.25	Win2	0.7406999999999999	0.0	No	2.931	0.019	n/a	NoResponse	0	n/a	n/a	4	26	Cue	MissedWin	False
254.07	3.95	Win2	0.7406999999999999	0.0	No	2.931	0.001	2.0	NoResponse	0	3.647	256.717	4	26	Fixation	MissedWin	False
257.717	0.3	Win2	0.7406999999999999	0.0	No	2.931	0.001	2.0	NoResponse	0	3.647	n/a	4	26	ButtonPress	MissedWin	False
258.015	0.15	Win2	0.7406999999999999	0.004	No	2.931	-0.004	2.0	NoResponse	0	0.221	257.236	4	26	Target	MissedWin	False
258.166	0.55	Win2	0.7406999999999999	n/a	No	2.931	n/a	n/a	NoResponse	0	n/a	n/a	4	26	Blank	MissedWin	False
258.236	0.3	Win2	0.7406999999999999	0.004	No	2.931	-0.004	2.0	NoResponse	0	0.221	n/a	4	26	ButtonPress	MissedWin	False
258.717	1.45	Win2	0.7406999999999999	n/a	No	2.931	n/a	5.0	NoResponse	0	0.037	257.754	4	26	Feedback	MissedWin	False
260.172	2.931	Win2	0.7406999999999999	n/a	No	2.931	n/a	n/a	NoResponse	0	0.0	n/a	4	26	ISIslide	MissedWin	False
263.13	0.25	Lose2	0.7143	0.001	No	2.82	0.03	n/a	NoResponse	-1	n/a	n/a	3	27	Cue	Loss	True
263.381	4.05	Lose2	0.7143	0.0	No	2.82	0.001	n/a	NoResponse	-1	n/a	n/a	3	27	Fixation	Loss	True
267.427	0.15	Lose2	0.7143	0.003	No	2.82	-0.003	2.0	NoResponse	-1	0.199	266.626	3	27	Target	Loss	True
267.577	0.55	Lose2	0.7143	n/a	No	2.82	n/a	n/a	NoResponse	-1	n/a	n/a	3	27	Blank	Loss	True
267.626	0.3	Lose2	0.7143	0.003	No	2.82	-0.003	2.0	NoResponse	-1	0.199	n/a	3	27	ButtonPress	Loss	True
268.129	1.45	Lose2	0.7143	n/a	No	2.82	n/a	5.0	NoResponse	-1	0.039	267.168	3	27	Feedback	Loss	True
269.583	2.82	Lose2	0.7143	n/a	No	2.82	n/a	n/a	NoResponse	-1	0.0	n/a	3	27	ISIslide	Loss	True
272.425	0.25	Control	0.7241	0.0	Yes	2.825	0.025	n/a	GoodResponse	0	n/a	n/a	3	28	Cue	Neutral	True
272.676	4.05	Control	0.7241	0.0	Yes	2.825	0.001	n/a	GoodResponse	0	n/a	n/a	3	28	Fixation	Neutral	True
276.721	0.15	Control	0.7241	0.004	Yes	2.825	-0.004	2.0	GoodResponse	0	0.101	275.822	3	28	Target	Neutral	True
276.822	0.3	Control	0.7241	0.004	Yes	2.825	-0.004	2.0	GoodResponse	0	0.101	n/a	3	28	ButtonPress	Neutral	True
276.872	0.55	Control	0.7241	n/a	Yes	2.825	n/a	n/a	GoodResponse	0	n/a	n/a	3	28	Blank	Neutral	True
277.423	1.45	Control	0.7241	n/a	Yes	2.825	n/a	5.0	GoodResponse	0	0.014	276.437	3	28	Feedback	Neutral	True
278.878	2.825	Control	0.7241	n/a	Yes	2.825	n/a	n/a	GoodResponse	0	0.0	n/a	3	28	ISIslide	Neutral	True
281.719	0.25	Lose2	0.7	0.001	No	2.831	0.019	n/a	NoResponse	-1	n/a	n/a	2	29	Cue	Loss	True
281.97	3.95	Lose2	0.7	0.0	No	2.831	0.001	2.0	NoResponse	-1	3.814	284.784	2	29	Fixation	Loss	True
285.784	0.3	Lose2	0.7	0.0	No	2.831	0.001	2.0	NoResponse	-1	3.814	n/a	2	29	ButtonPress	Loss	True
285.915	0.15	Lose2	0.7	0.004	No	2.831	-0.004	n/a	NoResponse	-1	n/a	n/a	2	29	Target	Loss	True
286.066	0.55	Lose2	0.7	n/a	No	2.831	n/a	n/a	NoResponse	-1	n/a	n/a	2	29	Blank	Loss	True
286.617	1.45	Lose2	0.7	n/a	No	2.831	n/a	5.0	NoResponse	-1	0.039	285.656	2	29	Feedback	Loss	True
288.072	2.831	Lose2	0.7	n/a	No	2.831	n/a	n/a	NoResponse	-1	0.0	n/a	2	29	ISIslide	Loss	True
290.93	0.25	Win2	0.7097	0.0	Yes	2.77	0.03	n/a	GoodResponse	1	n/a	n/a	3	30	Cue	Win	True
291.181	3.9	Win2	0.7097	0.0	Yes	2.77	0.001	n/a	GoodResponse	1	n/a	n/a	3	30	Fixation	Win	True
295.076	0.15	Win2	0.7097	0.004	Yes	2.77	-0.004	2.0	GoodResponse	1	0.102	294.178	3	30	Target	Win	True
295.178	0.3	Win2	0.7097	0.004	Yes	2.77	-0.004	2.0	GoodResponse	1	0.102	n/a	3	30	ButtonPress	Win	True
295.227	0.55	Win2	0.7097	n/a	Yes	2.77	n/a	n/a	GoodResponse	1	n/a	n/a	3	30	Blank	Win	True
295.778	1.45	Win2	0.7097	n/a	Yes	2.77	n/a	5.0	GoodResponse	1	0.0	294.778	3	30	Feedback	Win	True
297.233	2.77	Win2	0.7097	n/a	Yes	2.77	n/a	n/a	GoodResponse	1	0.0	n/a	3	30	ISIslide	Win	True
300.024	0.25	Lose2	0.6875	0.0	No	2.826	0.024	n/a	NoResponse	-1	n/a	n/a	2	31	Cue	Loss	True
300.275	4.05	Lose2	0.6875	0.0	No	2.826	0.001	n/a	NoResponse	-1	n/a	n/a	2	31	Fixation	Loss	True
304.32	0.15	Lose2	0.6875	0.004	No	2.826	-0.004	2.0	NoResponse	-1	0.205	303.525	2	31	Target	Loss	True
304.471	0.55	Lose2	0.6875	n/a	No	2.826	n/a	n/a	NoResponse	-1	n/a	n/a	2	31	Blank	Loss	True
304.525	0.3	Lose2	0.6875	0.004	No	2.826	-0.004	2.0	NoResponse	-1	0.205	n/a	2	31	ButtonPress	Loss	True
305.023	1.45	Lose2	0.6875	n/a	No	2.826	n/a	5.0	NoResponse	-1	0.023	304.046	2	31	Feedback	Loss	True
306.477	2.826	Lose2	0.6875	n/a	No	2.826	n/a	n/a	NoResponse	-1	0.0	n/a	2	31	ISIslide	Loss	True
309.319	0.25	Lose2	0.6667000000000001	0.0	No	2.631	0.019	n/a	NoResponse	-1	n/a	n/a	1	32	Cue	Loss	True
309.569	4.15	Lose2	0.6667000000000001	0.001	No	2.631	0.0	n/a	NoResponse	-1	n/a	n/a	1	32	Fixation	Loss	True
313.715	0.15	Lose2	0.6667000000000001	0.004	No	2.631	-0.004	2.0	NoResponse	-1	0.184	312.899	1	32	Target	Loss	True
313.866	0.55	Lose2	0.6667000000000001	n/a	No	2.631	n/a	n/a	NoResponse	-1	n/a	n/a	1	32	Blank	Loss	True
313.899	0.3	Lose2	0.6667000000000001	0.004	No	2.631	-0.004	2.0	NoResponse	-1	0.184	n/a	1	32	ButtonPress	Loss	True
314.417	1.45	Lose2	0.6667000000000001	n/a	No	2.631	n/a	5.0	NoResponse	-1	0.044	313.461	1	32	Feedback	Loss	True
315.872	2.631	Lose2	0.6667000000000001	n/a	No	2.631	n/a	n/a	NoResponse	-1	0.0	n/a	1	32	ISIslide	Loss	True
318.53	0.25	Win2	0.6470999999999999	0.0	No	2.67	0.03	n/a	PrematurePress	0	n/a	n/a	1	33	Cue	MissedWin	False
318.78	4.0	Win2	0.6470999999999999	0.0	No	2.67	0.0	2.0	PrematurePress	0	3.596	321.376	1	33	Fixation	MissedWin	False
322.376	0.3	Win2	0.6470999999999999	0.0	No	2.67	0.0	2.0	PrematurePress	0	3.596	n/a	1	33	ButtonPress	MissedWin	False
322.776	0.15	Win2	0.6470999999999999	0.004	No	2.67	-0.004	2.0	PrematurePress	0	0.079	321.855	1	33	Target	MissedWin	False
322.855	0.3	Win2	0.6470999999999999	0.004	No	2.67	-0.004	2.0	PrematurePress	0	0.079	n/a	1	33	ButtonPress	MissedWin	False
322.926	0.55	Win2	0.6470999999999999	n/a	No	2.67	n/a	n/a	PrematurePress	0	n/a	n/a	1	33	Blank	MissedWin	False
323.478	1.45	Win2	0.6470999999999999	n/a	No	2.67	n/a	5.0	PrematurePress	0	0.007	322.485	1	33	Feedback	MissedWin	False
324.932	2.67	Win2	0.6470999999999999	n/a	No	2.67	n/a	n/a	PrematurePress	0	0.0	n/a	1	33	ISIslide	MissedWin	False
327.624	0.25	Lose2	0.6286	0.0	No	2.626	0.024	n/a	NoResponse	-1	n/a	n/a	0	34	Cue	Loss	True
327.874	4.05	Lose2	0.6286	0.0	No	2.626	0.0	n/a	NoResponse	-1	n/a	n/a	0	34	Fixation	Loss	True
331.92	0.16	Lose2	0.6286	0.004	No	2.626	-0.004	2.0	NoResponse	-1	0.179	331.099	0	34	Target	Loss	True
332.087	0.54	Lose2	0.6286	n/a	No	2.626	n/a	n/a	NoResponse	-1	n/a	n/a	0	34	Blank	Loss	True
332.099	0.3	Lose2	0.6286	0.004	No	2.626	-0.004	2.0	NoResponse	-1	0.179	n/a	0	34	ButtonPress	Loss	True
332.622	1.45	Lose2	0.6286	n/a	No	2.626	n/a	5.0	NoResponse	-1	0.034	331.656	0	34	Feedback	Loss	True
334.076	2.626	Lose2	0.6286	n/a	No	2.626	n/a	n/a	NoResponse	-1	0.0	n/a	0	34	ISIslide	Loss	True
336.717	0.25	Lose2	0.6389	0.0	Yes	2.683	0.017	n/a	GoodResponse	0	n/a	n/a	0	35	Cue	AvoidedLoss	True
336.968	4.0	Lose2	0.6389	0.0	Yes	2.683	0.001	n/a	GoodResponse	0	n/a	n/a	0	35	Fixation	AvoidedLoss	True
340.963	0.17	Lose2	0.6389	0.004	Yes	2.683	-0.004	2.0	GoodResponse	0	0.139	340.102	0	35	Target	AvoidedLoss	True
341.102	0.3	Lose2	0.6389	0.004	Yes	2.683	-0.004	2.0	GoodResponse	0	0.139	n/a	0	35	ButtonPress	AvoidedLoss	True
341.147	0.53	Lose2	0.6389	n/a	Yes	2.683	n/a	n/a	GoodResponse	0	n/a	n/a	0	35	Blank	AvoidedLoss	True
341.666	1.45	Lose2	0.6389	n/a	Yes	2.683	n/a	5.0	GoodResponse	0	0.013	340.679	0	35	Feedback	AvoidedLoss	True
343.12	2.683	Lose2	0.6389	n/a	Yes	2.683	n/a	n/a	GoodResponse	0	0.0	n/a	0	35	ISIslide	AvoidedLoss	True
345.828	0.25	Control	0.6215999999999999	0.0	No	2.672	0.028	n/a	LatePress	0	n/a	n/a	0	36	Cue	Neutral	True
346.079	4.0	Control	0.6215999999999999	0.0	No	2.672	0.001	n/a	LatePress	0	n/a	n/a	0	36	Fixation	Neutral	True
350.074	0.18	Control	0.6215999999999999	0.004	No	2.672	-0.004	2.0	LatePress	0	0.182	349.256	0	36	Target	Neutral	True
350.256	0.3	Control	0.6215999999999999	0.004	No	2.672	-0.004	2.0	LatePress	0	0.182	n/a	0	36	ButtonPress	Neutral	True
350.258	0.52	Control	0.6215999999999999	n/a	No	2.672	n/a	n/a	LatePress	0	n/a	n/a	0	36	Blank	Neutral	True
350.776	1.45	Control	0.6215999999999999	n/a	No	2.672	n/a	5.0	LatePress	0	0.026	349.802	0	36	Feedback	Neutral	True
352.231	2.672	Control	0.6215999999999999	n/a	No	2.672	n/a	n/a	LatePress	0	0.0	n/a	0	36	ISIslide	Neutral	True
354.922	0.25	Win2	0.6053000000000001	0.0	No	2.878	0.022	n/a	PrematurePress	0	n/a	n/a	0	37	Cue	MissedWin	False
355.173	4.0	Win2	0.6053000000000001	0.0	No	2.878	0.001	2.0	PrematurePress	0	3.609	357.782	0	37	Fixation	MissedWin	False
358.782	0.3	Win2	0.6053000000000001	0.0	No	2.878	0.001	2.0	PrematurePress	0	3.609	n/a	0	37	ButtonPress	MissedWin	False
359.168	0.19	Win2	0.6053000000000001	0.004	No	2.878	-0.004	2.0	PrematurePress	0	0.039	358.207	0	37	Target	MissedWin	False
359.207	0.3	Win2	0.6053000000000001	0.004	No	2.878	-0.004	2.0	PrematurePress	0	0.039	n/a	0	37	ButtonPress	MissedWin	False
359.369	0.51	Win2	0.6053000000000001	n/a	No	2.878	n/a	n/a	PrematurePress	0	n/a	n/a	0	37	Blank	MissedWin	False
359.87	1.45	Win2	0.6053000000000001	n/a	No	2.878	n/a	5.0	PrematurePress	0	0.007	358.877	0	37	Feedback	MissedWin	False
361.324	2.878	Win2	0.6053000000000001	n/a	No	2.878	n/a	n/a	PrematurePress	0	0.0	n/a	0	37	ISIslide	MissedWin	False
364.216	0.25	Lose2	0.6154	0.001	Yes	2.834	0.016	n/a	GoodResponse	0	n/a	n/a	0	38	Cue	AvoidedLoss	True
364.467	3.95	Lose2	0.6154	0.0	Yes	2.834	0.001	n/a	GoodResponse	0	n/a	n/a	0	38	Fixation	AvoidedLoss	True
368.412	0.2	Lose2	0.6154	0.004	Yes	2.834	-0.004	2.0	GoodResponse	0	0.193	367.605	0	38	Target	AvoidedLoss	True
368.605	0.3	Lose2	0.6154	0.004	Yes	2.834	-0.004	2.0	GoodResponse	0	0.193	n/a	0	38	ButtonPress	AvoidedLoss	True
368.613	0.5	Lose2	0.6154	n/a	Yes	2.834	n/a	n/a	GoodResponse	0	n/a	n/a	0	38	Blank	AvoidedLoss	True
369.114	1.45	Lose2	0.6154	n/a	Yes	2.834	n/a	5.0	GoodResponse	0	0.029	368.143	0	38	Feedback	AvoidedLoss	True
370.569	2.834	Lose2	0.6154	n/a	Yes	2.834	n/a	n/a	GoodResponse	0	0.0	n/a	0	38	ISIslide	AvoidedLoss	True
373.427	0.25	Win2	0.625	0.0	Yes	2.973	0.027	n/a	GoodResponse	1	n/a	n/a	1	39	Cue	Win	True
373.678	4.1	Win2	0.625	0.0	Yes	2.973	0.001	n/a	GoodResponse	1	n/a	n/a	1	39	Fixation	Win	True
377.774	0.21	Win2	0.625	0.003	Yes	2.973	-0.003	2.0	GoodResponse	1	0.176	376.95	1	39	Target	Win	True
377.95	0.3	Win2	0.625	0.003	Yes	2.973	-0.003	2.0	GoodResponse	1	0.176	n/a	1	39	ButtonPress	Win	True
377.991	0.49	Win2	0.625	n/a	Yes	2.973	n/a	n/a	GoodResponse	1	n/a	n/a	1	39	Blank	Win	True
378.476	1.45	Win2	0.625	n/a	Yes	2.973	n/a	5.0	GoodResponse	1	0.033	377.509	1	39	Feedback	Win	True
379.93	2.973	Win2	0.625	n/a	Yes	2.973	n/a	n/a	GoodResponse	1	0.0	n/a	1	39	ISIslide	Win	True
382.922	0.25	Win2	0.6341	0.0	Yes	2.728	0.022	n/a	GoodResponse	1	n/a	n/a	2	40	Cue	Win	True
383.173	3.95	Win2	0.6341	0.0	Yes	2.728	0.001	n/a	GoodResponse	1	n/a	n/a	2	40	Fixation	Win	True
387.118	0.22	Win2	0.6341	0.004	Yes	2.728	-0.004	2.0	GoodResponse	1	0.192	386.31	2	40	Target	Win	True
387.31	0.3	Win2	0.6341	0.004	Yes	2.728	-0.004	2.0	GoodResponse	1	0.192	n/a	2	40	ButtonPress	Win	True
387.352	0.48	Win2	0.6341	n/a	Yes	2.728	n/a	n/a	GoodResponse	1	n/a	n/a	2	40	Blank	Win	True
387.82	1.45	Win2	0.6341	n/a	Yes	2.728	n/a	5.0	GoodResponse	1	0.006	386.826	2	40	Feedback	Win	True
389.275	2.728	Win2	0.6341	n/a	Yes	2.728	n/a	n/a	GoodResponse	1	0.0	n/a	2	40	ISIslide	Win	True
392.016	0.25	Win2	0.619	0.0	No	2.784	0.016	n/a	NoResponse	0	n/a	n/a	2	41	Cue	MissedWin	False
392.267	3.9	Win2	0.619	0.0	No	2.784	0.001	2.0	NoResponse	0	3.639	394.906	2	41	Fixation	MissedWin	False
395.906	0.3	Win2	0.619	0.0	No	2.784	0.001	2.0	NoResponse	0	3.639	n/a	2	41	ButtonPress	MissedWin	False
396.162	0.23	Win2	0.619	0.004	No	2.784	-0.004	2.0	NoResponse	0	0.262	395.424	2	41	Target	MissedWin	False
396.396	0.47	Win2	0.619	n/a	No	2.784	n/a	n/a	NoResponse	0	n/a	n/a	2	41	Blank	MissedWin	False
396.424	0.3	Win2	0.619	0.004	No	2.784	-0.004	2.0	NoResponse	0	0.262	n/a	2	41	ButtonPress	MissedWin	False
396.864	1.45	Win2	0.619	n/a	No	2.784	n/a	5.0	NoResponse	0	0.035	395.899	2	41	Feedback	MissedWin	False
398.318	2.784	Win2	0.619	n/a	No	2.784	n/a	n/a	NoResponse	0	0.0	n/a	2	41	ISIslide	MissedWin	False
401.127	0.25	Control	0.6279	0.0	Yes	2.923	0.027	n/a	GoodResponse	0	n/a	n/a	2	42	Cue	Neutral	True
401.378	3.85	Control	0.6279	0.0	Yes	2.923	0.001	n/a	GoodResponse	0	n/a	n/a	2	42	Fixation	Neutral	True
405.239	0.24	Control	0.6279	0.0	Yes	2.923	0.012	2.0	GoodResponse	0	0.161	404.4	2	42	Target	Neutral	True
405.4	0.3	Control	0.6279	0.0	Yes	2.923	0.012	2.0	GoodResponse	0	0.161	n/a	2	42	ButtonPress	Neutral	True
405.473	0.46	Control	0.6279	n/a	Yes	2.923	n/a	n/a	GoodResponse	0	n/a	n/a	2	42	Blank	Neutral	True
405.925	1.45	Control	0.6279	n/a	Yes	2.923	n/a	5.0	GoodResponse	0	0.047	404.972	2	42	Feedback	Neutral	True
407.379	2.923	Control	0.6279	n/a	Yes	2.923	n/a	n/a	GoodResponse	0	0.0	n/a	2	42	ISIslide	Neutral	True
410.321	0.25	Win2	0.6364	0.0	Yes	3.179	0.021	n/a	GoodResponse	1	n/a	n/a	3	43	Cue	Win	True
410.572	4.0	Win2	0.6364	0.0	Yes	3.179	0.001	n/a	GoodResponse	1	n/a	n/a	3	43	Fixation	Win	True
414.567	0.25	Win2	0.6364	0.004	Yes	3.179	-0.004	2.0	GoodResponse	1	0.186	413.753	3	43	Target	Win	True
414.753	0.3	Win2	0.6364	0.004	Yes	3.179	-0.004	2.0	GoodResponse	1	0.186	n/a	3	43	ButtonPress	Win	True
414.818	0.45	Win2	0.6364	n/a	Yes	3.179	n/a	n/a	GoodResponse	1	n/a	n/a	3	43	Blank	Win	True
415.269	1.45	Win2	0.6364	n/a	Yes	3.179	n/a	5.0	GoodResponse	1	0.02	414.289	3	43	Feedback	Win	True
416.724	3.179	Win2	0.6364	n/a	Yes	3.179	n/a	n/a	GoodResponse	1	0.0	n/a	3	43	ISIslide	Win	True
419.916	0.25	Win2	0.6444	0.001	Yes	2.984	0.016	n/a	GoodResponse	1	n/a	n/a	4	44	Cue	Win	True
420.167	4.0	Win2	0.6444	0.0	Yes	2.984	0.001	n/a	GoodResponse	1	n/a	n/a	4	44	Fixation	Win	True
424.162	0.26	Win2	0.6444	0.004	Yes	2.984	-0.004	2.0	GoodResponse	1	0.185	423.347	4	44	Target	Win	True
424.347	0.3	Win2	0.6444	0.004	Yes	2.984	-0.004	2.0	GoodResponse	1	0.185	n/a	4	44	ButtonPress	Win	True
424.43	0.44	Win2	0.6444	n/a	Yes	2.984	n/a	n/a	GoodResponse	1	n/a	n/a	4	44	Blank	Win	True
424.865	1.45	Win2	0.6444	n/a	Yes	2.984	n/a	5.0	GoodResponse	1	0.034	423.899	4	44	Feedback	Win	True
426.319	2.984	Win2	0.6444	n/a	Yes	2.984	n/a	n/a	GoodResponse	1	0.0	n/a	4	44	ISIslide	Win	True
429.328	0.25	Control	0.6522	0.0	Yes	2.872	0.028	n/a	GoodResponse	0	n/a	n/a	4	45	Cue	Neutral	True
429.579	4.1	Control	0.6522	0.0	Yes	2.872	0.001	n/a	GoodResponse	0	n/a	n/a	4	45	Fixation	Neutral	True
433.674	0.27	Control	0.6522	0.004	Yes	2.872	-0.004	2.0	GoodResponse	0	0.167	432.841	4	45	Target	Neutral	True
433.841	0.3	Control	0.6522	0.004	Yes	2.872	-0.004	2.0	GoodResponse	0	0.167	n/a	4	45	ButtonPress	Neutral	True
433.958	0.43	Control	0.6522	n/a	Yes	2.872	n/a	n/a	GoodResponse	0	n/a	n/a	4	45	Blank	Neutral	True
434.376	1.45	Control	0.6522	n/a	Yes	2.872	n/a	5.0	GoodResponse	0	0.035	433.411	4	45	Feedback	Neutral	True
435.831	2.872	Control	0.6522	n/a	Yes	2.872	n/a	n/a	GoodResponse	0	0.0	n/a	4	45	ISIslide	Neutral	True
438.723	0.25	Lose2	0.6383	0.0	No	3.377	0.023	n/a	NoResponse	-1	n/a	n/a	3	46	Cue	Loss	False
438.974	4.0	Lose2	0.6383	0.0	No	3.377	0.001	2.0	NoResponse	-1	3.861	441.835	3	46	Fixation	Loss	False
442.835	0.3	Lose2	0.6383	0.0	No	3.377	0.001	2.0	NoResponse	-1	3.861	n/a	3	46	ButtonPress	Loss	False
442.969	0.28	Lose2	0.6383	0.004	No	3.377	-0.004	2.0	NoResponse	-1	0.383	442.352	3	46	Target	Loss	False
443.253	0.42	Lose2	0.6383	n/a	No	3.377	n/a	n/a	NoResponse	-1	n/a	n/a	3	46	Blank	Loss	False
443.352	0.3	Lose2	0.6383	0.004	No	3.377	-0.004	2.0	NoResponse	-1	0.383	n/a	3	46	ButtonPress	Loss	False
443.671	1.45	Lose2	0.6383	n/a	No	3.377	n/a	5.0	NoResponse	-1	0.008	442.679	3	46	Feedback	Loss	False
445.125	3.377	Lose2	0.6383	n/a	No	3.377	n/a	n/a	NoResponse	-1	0.0	n/a	3	46	ISIslide	Loss	False
448.519	0.25	Lose2	0.6457999999999999	0.0	Yes	2.681	0.019	n/a	GoodResponse	0	n/a	n/a	3	47	Cue	AvoidedLoss	True
448.769	4.0	Lose2	0.6457999999999999	0.001	Yes	2.681	0.0	n/a	GoodResponse	0	n/a	n/a	3	47	Fixation	AvoidedLoss	True
452.765	0.29	Lose2	0.6457999999999999	0.004	Yes	2.681	-0.004	2.0	GoodResponse	0	0.187	451.952	3	47	Target	AvoidedLoss	True
452.952	0.3	Lose2	0.6457999999999999	0.004	Yes	2.681	-0.004	2.0	GoodResponse	0	0.187	n/a	3	47	ButtonPress	AvoidedLoss	True
453.066	0.41	Lose2	0.6457999999999999	n/a	Yes	2.681	n/a	n/a	GoodResponse	0	n/a	n/a	3	47	Blank	AvoidedLoss	True
453.467	1.45	Lose2	0.6457999999999999	n/a	Yes	2.681	n/a	5.0	GoodResponse	0	0.017	452.484	3	47	Feedback	AvoidedLoss	True
454.921	2.681	Lose2	0.6457999999999999	n/a	Yes	2.681	n/a	n/a	GoodResponse	0	0.0	n/a	3	47	ISIslide	AvoidedLoss	True
457.629	0.25	Lose2	0.6531	0.0	Yes	3.021	0.029	n/a	GoodResponse	0	n/a	n/a	3	48	Cue	AvoidedLoss	True
457.88	3.95	Lose2	0.6531	0.0	Yes	3.021	0.001	n/a	GoodResponse	0	n/a	n/a	3	48	Fixation	AvoidedLoss	True
461.825	0.3	Lose2	0.6531	0.004	Yes	3.021	-0.004	2.0	GoodResponse	0	0.242	461.067	3	48	Target	AvoidedLoss	True
462.067	0.3	Lose2	0.6531	0.004	Yes	3.021	-0.004	2.0	GoodResponse	0	0.242	n/a	3	48	ButtonPress	AvoidedLoss	True
462.126	0.4	Lose2	0.6531	n/a	Yes	3.021	n/a	n/a	GoodResponse	0	n/a	n/a	3	48	Blank	AvoidedLoss	True
462.527	1.45	Lose2	0.6531	n/a	Yes	3.021	n/a	5.0	GoodResponse	0	0.03	461.557	3	48	Feedback	AvoidedLoss	True
463.982	3.021	Lose2	0.6531	n/a	Yes	3.021	n/a	n/a	GoodResponse	0	0.0	n/a	3	48	ISIslide	AvoidedLoss	True
467.024	0.25	Control	0.66	0.0	Yes	2.876	0.024	n/a	GoodResponse	0	n/a	n/a	3	49	Cue	Neutral	True
467.275	4.0	Control	0.66	0.0	Yes	2.876	0.001	n/a	GoodResponse	0	n/a	n/a	3	49	Fixation	Neutral	True
471.27	0.31	Control	0.66	0.004	Yes	2.876	-0.004	2.0	GoodResponse	0	0.187	470.457	3	49	Target	Neutral	True
471.457	0.3	Control	0.66	0.004	Yes	2.876	-0.004	2.0	GoodResponse	0	0.187	n/a	3	49	ButtonPress	Neutral	True
471.588	0.39	Control	0.66	n/a	Yes	2.876	n/a	n/a	GoodResponse	0	n/a	n/a	3	49	Blank	Neutral	True
471.972	1.45	Control	0.66	n/a	Yes	2.876	n/a	5.0	GoodResponse	0	0.048	471.02	3	49	Feedback	Neutral	True
473.427	2.876	Control	0.66	n/a	Yes	2.876	n/a	n/a	GoodResponse	0	0.0	n/a	3	49	ISIslide	Neutral	True
476.319	0.25	Control	0.6667000000000001	0.0	Yes	2.781	0.019	n/a	GoodResponse	0	n/a	n/a	3	50	Cue	Neutral	True
476.569	4.0	Control	0.6667000000000001	0.0	Yes	2.781	0.0	n/a	GoodResponse	0	n/a	n/a	3	50	Fixation	Neutral	True
480.565	0.31	Control	0.6667000000000001	0.004	Yes	2.781	-0.004	2.0	GoodResponse	0	0.189	479.754	3	50	Target	Neutral	True
480.754	0.3	Control	0.6667000000000001	0.004	Yes	2.781	-0.004	2.0	GoodResponse	0	0.189	n/a	3	50	ButtonPress	Neutral	True
480.882	0.39	Control	0.6667000000000001	n/a	Yes	2.781	n/a	n/a	GoodResponse	0	n/a	n/a	3	50	Blank	Neutral	True
481.267	1.45	Control	0.6667000000000001	n/a	Yes	2.781	n/a	5.0	GoodResponse	0	0.022	480.289	3	50	Feedback	Neutral	True
482.721	2.781	Control	0.6667000000000001	n/a	Yes	2.781	n/a	n/a	GoodResponse	0	0.0	n/a	3	50	ISIslide	Neutral	True
485.53	0.25	Control	0.6731	0.0	Yes	2.72	0.03	n/a	GoodResponse	0	n/a	n/a	3	51	Cue	Neutral	True
485.78	3.95	Control	0.6731	0.0	Yes	2.72	0.0	n/a	GoodResponse	0	n/a	n/a	3	51	Fixation	Neutral	True
489.742	0.3	Control	0.6731	0.0	Yes	2.72	0.012	2.0	GoodResponse	0	0.19	488.932	3	51	Target	Neutral	True
489.932	0.3	Control	0.6731	0.0	Yes	2.72	0.012	2.0	GoodResponse	0	0.19	n/a	3	51	ButtonPress	Neutral	True
490.026	0.4	Control	0.6731	n/a	Yes	2.72	n/a	n/a	GoodResponse	0	n/a	n/a	3	51	Blank	Neutral	True
490.428	1.45	Control	0.6731	n/a	Yes	2.72	n/a	5.0	GoodResponse	0	0.032	489.46	3	51	Feedback	Neutral	True
491.882	2.72	Control	0.6731	n/a	Yes	2.72	n/a	n/a	GoodResponse	0	0.0	n/a	3	51	ISIslide	Neutral	True
494.623	0.25	Control	0.6792	0.0	Yes	2.627	0.023	n/a	GoodResponse	0	n/a	n/a	3	52	Cue	Neutral	True
494.874	4.05	Control	0.6792	0.0	Yes	2.627	0.001	n/a	GoodResponse	0	n/a	n/a	3	52	Fixation	Neutral	True
498.92	0.29	Control	0.6792	0.003	Yes	2.627	-0.003	2.0	GoodResponse	0	0.224	498.144	3	52	Target	Neutral	True
499.144	0.3	Control	0.6792	0.003	Yes	2.627	-0.003	2.0	GoodResponse	0	0.224	n/a	3	52	ButtonPress	Neutral	True
499.22	0.41	Control	0.6792	n/a	Yes	2.627	n/a	n/a	GoodResponse	0	n/a	n/a	3	52	Blank	Neutral	True
499.622	1.45	Control	0.6792	n/a	Yes	2.627	n/a	5.0	GoodResponse	0	0.008	498.63	3	52	Feedback	Neutral	True
501.076	2.627	Control	0.6792	n/a	Yes	2.627	n/a	n/a	GoodResponse	0	0.0	n/a	3	52	ISIslide	Neutral	True
503.717	0.25	Win2	0.6851999999999999	0.0	Yes	2.933	0.017	n/a	GoodResponse	1	n/a	n/a	4	53	Cue	Win	True
503.968	4.05	Win2	0.6851999999999999	0.0	Yes	2.933	0.001	n/a	GoodResponse	1	n/a	n/a	4	53	Fixation	Win	True
508.013	0.28	Win2	0.6851999999999999	0.004	Yes	2.933	-0.004	2.0	GoodResponse	1	0.177	507.19	4	53	Target	Win	True
508.19	0.3	Win2	0.6851999999999999	0.004	Yes	2.933	-0.004	2.0	GoodResponse	1	0.177	n/a	4	53	ButtonPress	Win	True
508.298	0.42	Win2	0.6851999999999999	n/a	Yes	2.933	n/a	n/a	GoodResponse	1	n/a	n/a	4	53	Blank	Win	True
508.716	1.45	Win2	0.6851999999999999	n/a	Yes	2.933	n/a	5.0	GoodResponse	1	0.036	507.752	4	53	Feedback	Win	True
510.17	2.933	Win2	0.6851999999999999	n/a	Yes	2.933	n/a	n/a	GoodResponse	1	0.0	n/a	4	53	ISIslide	Win	True
513.129	0.25	Win2	0.6909000000000001	0.0	Yes	2.721	0.029	n/a	GoodResponse	1	n/a	n/a	5	54	Cue	Win	True
513.38	3.95	Win2	0.6909000000000001	0.0	Yes	2.721	0.001	n/a	GoodResponse	1	n/a	n/a	5	54	Fixation	Win	True
517.325	0.27	Win2	0.6909000000000001	0.004	Yes	2.721	-0.004	2.0	GoodResponse	1	0.18	516.505	5	54	Target	Win	True
517.505	0.3	Win2	0.6909000000000001	0.004	Yes	2.721	-0.004	2.0	GoodResponse	1	0.18	n/a	5	54	ButtonPress	Win	True
517.609	0.43	Win2	0.6909000000000001	n/a	Yes	2.721	n/a	n/a	GoodResponse	1	n/a	n/a	5	54	Blank	Win	True
518.027	1.45	Win2	0.6909000000000001	n/a	Yes	2.721	n/a	5.0	GoodResponse	1	0.042	517.069	5	54	Feedback	Win	True
519.481	2.721	Win2	0.6909000000000001	n/a	Yes	2.721	n/a	n/a	GoodResponse	1	0.0	n/a	5	54	ISIslide	Win	True
522.223	0.25	Control	0.6964	0.0	Yes	3.027	0.023	n/a	GoodResponse	0	n/a	n/a	5	55	Cue	Neutral	True
522.473	3.95	Control	0.6964	0.001	Yes	3.027	0.0	n/a	GoodResponse	0	n/a	n/a	5	55	Fixation	Neutral	True
526.419	0.26	Control	0.6964	0.004	Yes	3.027	-0.004	2.0	GoodResponse	0	0.182	525.601	5	55	Target	Neutral	True
526.601	0.3	Control	0.6964	0.004	Yes	3.027	-0.004	2.0	GoodResponse	0	0.182	n/a	5	55	ButtonPress	Neutral	True
526.686	0.44	Control	0.6964	n/a	Yes	3.027	n/a	n/a	GoodResponse	0	n/a	n/a	5	55	Blank	Neutral	True
527.121	1.45	Control	0.6964	n/a	Yes	3.027	n/a	5.0	GoodResponse	0	0.021	526.142	5	55	Feedback	Neutral	True
528.575	3.027	Control	0.6964	n/a	Yes	3.027	n/a	n/a	GoodResponse	0	0.0	n/a	5	55	ISIslide	Neutral	True
531.617	0.25	Control	0.7018000000000001	0.001	Yes	2.833	0.017	n/a	GoodResponse	0	n/a	n/a	5	56	Cue	Neutral	True
531.868	3.95	Control	0.7018000000000001	0.0	Yes	2.833	0.001	n/a	GoodResponse	0	n/a	n/a	5	56	Fixation	Neutral	True
535.813	0.25	Control	0.7018000000000001	0.004	Yes	2.833	-0.004	2.0	GoodResponse	0	0.184	534.997	5	56	Target	Neutral	True
535.997	0.3	Control	0.7018000000000001	0.004	Yes	2.833	-0.004	2.0	GoodResponse	0	0.184	n/a	5	56	ButtonPress	Neutral	True
536.064	0.45	Control	0.7018000000000001	n/a	Yes	2.833	n/a	n/a	GoodResponse	0	n/a	n/a	5	56	Blank	Neutral	True
536.515	1.45	Control	0.7018000000000001	n/a	Yes	2.833	n/a	5.0	GoodResponse	0	0.042	535.557	5	56	Feedback	Neutral	True
537.97	2.833	Control	0.7018000000000001	n/a	Yes	2.833	n/a	n/a	GoodResponse	0	0.0	n/a	5	56	ISIslide	Neutral	True
540.828	0.25	Control	0.7069	0.0	Yes	3.472	0.028	n/a	GoodResponse	0	n/a	n/a	5	57	Cue	Neutral	False
541.079	4.0	Control	0.7069	0.0	Yes	3.472	0.001	2.0	GoodResponse	0	0.233	540.312	5	57	Fixation	Neutral	False
541.312	0.3	Control	0.7069	0.0	Yes	3.472	0.001	2.0	GoodResponse	0	0.233	n/a	5	57	ButtonPress	Neutral	False
545.074	0.24	Control	0.7069	0.004	Yes	3.472	-0.004	2.0	GoodResponse	0	0.188	544.262	5	57	Target	Neutral	False
545.262	0.3	Control	0.7069	0.004	Yes	3.472	-0.004	2.0	GoodResponse	0	0.188	n/a	5	57	ButtonPress	Neutral	False
545.325	0.46	Control	0.7069	n/a	Yes	3.472	n/a	n/a	GoodResponse	0	n/a	n/a	5	57	Blank	Neutral	False
545.777	1.45	Control	0.7069	n/a	Yes	3.472	n/a	5.0	GoodResponse	0	0.047	544.824	5	57	Feedback	Neutral	False
547.231	3.472	Control	0.7069	n/a	Yes	3.472	n/a	n/a	GoodResponse	0	0.0	n/a	5	57	ISIslide	Neutral	False
550.725	0.25	Win2	0.7119	0.0	Yes	2.725	0.025	n/a	GoodResponse	1	n/a	n/a	6	58	Cue	Win	True
550.975	4.05	Win2	0.7119	0.0	Yes	2.725	0.0	n/a	GoodResponse	1	n/a	n/a	6	58	Fixation	Win	True
555.021	0.23	Win2	0.7119	0.004	Yes	2.725	-0.004	2.0	GoodResponse	1	0.16	554.181	6	58	Target	Win	True
555.181	0.3	Win2	0.7119	0.004	Yes	2.725	-0.004	2.0	GoodResponse	1	0.16	n/a	6	58	ButtonPress	Win	True
555.255	0.47	Win2	0.7119	n/a	Yes	2.725	n/a	n/a	GoodResponse	1	n/a	n/a	6	58	Blank	Win	True
555.723	1.45	Win2	0.7119	n/a	Yes	2.725	n/a	5.0	GoodResponse	1	0.005	554.728	6	58	Feedback	Win	True
557.177	2.725	Win2	0.7119	n/a	Yes	2.725	n/a	n/a	GoodResponse	1	0.0	n/a	6	58	ISIslide	Win	True
559.919	0.25	Lose2	0.7167	0.0	Yes	2.681	0.019	n/a	GoodResponse	0	n/a	n/a	6	59	Cue	AvoidedLoss	True
560.17	4.0	Lose2	0.7167	0.0	Yes	2.681	0.001	n/a	GoodResponse	0	n/a	n/a	6	59	Fixation	AvoidedLoss	True
564.165	0.22	Lose2	0.7167	0.004	Yes	2.681	-0.004	2.0	GoodResponse	0	0.178	563.343	6	59	Target	AvoidedLoss	True
564.343	0.3	Lose2	0.7167	0.004	Yes	2.681	-0.004	2.0	GoodResponse	0	0.178	n/a	6	59	ButtonPress	AvoidedLoss	True
564.399	0.48	Lose2	0.7167	n/a	Yes	2.681	n/a	n/a	GoodResponse	0	n/a	n/a	6	59	Blank	AvoidedLoss	True
564.867	1.45	Lose2	0.7167	n/a	Yes	2.681	n/a	5.0	GoodResponse	0	0.031	563.898	6	59	Feedback	AvoidedLoss	True
566.321	2.681	Lose2	0.7167	n/a	Yes	2.681	n/a	n/a	GoodResponse	0	0.0	n/a	6	59	ISIslide	AvoidedLoss	True
569.029	0.25	Control	0.7049	0.001	No	2.671	0.029	n/a	NoResponse	0	n/a	n/a	6	60	Cue	Neutral	True
569.28	4.0	Control	0.7049	0.0	No	2.671	0.001	n/a	NoResponse	0	n/a	n/a	6	60	Fixation	Neutral	True
573.276	0.21	Control	0.7049	0.003	No	2.671	-0.003	2.0	NoResponse	0	0.238	572.514	6	60	Target	Neutral	True
573.493	0.49	Control	0.7049	n/a	No	2.671	n/a	n/a	NoResponse	0	n/a	n/a	6	60	Blank	Neutral	True
573.514	0.3	Control	0.7049	0.003	No	2.671	-0.003	2.0	NoResponse	0	0.238	n/a	6	60	ButtonPress	Neutral	True
573.978	1.45	Control	0.7049	n/a	No	2.671	n/a	5.0	NoResponse	0	0.042	573.02	6	60	Feedback	Neutral	True
575.432	2.671	Control	0.7049	n/a	No	2.671	n/a	n/a	NoResponse	0	0.0	n/a	6	60	ISIslide	Neutral	True
578.123	0.25	Lose2	0.6934999999999999	0.0	No	2.977	0.023	n/a	NoResponse	-1	n/a	n/a	5	61	Cue	Loss	False
578.374	4.0	Lose2	0.6934999999999999	0.0	No	2.977	0.001	2.0	NoResponse	-1	3.842	581.216	5	61	Fixation	Loss	False
582.216	0.3	Lose2	0.6934999999999999	0.0	No	2.977	0.001	2.0	NoResponse	-1	3.842	n/a	5	61	ButtonPress	Loss	False
582.369	0.2	Lose2	0.6934999999999999	0.004	No	2.977	-0.004	2.0	NoResponse	-1	0.384	581.753	5	61	Target	Loss	False
582.57	0.5	Lose2	0.6934999999999999	n/a	No	2.977	n/a	n/a	NoResponse	-1	n/a	n/a	5	61	Blank	Loss	False
582.753	0.3	Lose2	0.6934999999999999	0.004	No	2.977	-0.004	2.0	NoResponse	-1	0.384	n/a	5	61	ButtonPress	Loss	False
583.071	1.45	Lose2	0.6934999999999999	n/a	No	2.977	n/a	5.0	NoResponse	-1	0.022	582.093	5	61	Feedback	Loss	False
584.526	2.977	Lose2	0.6934999999999999	n/a	No	2.977	n/a	n/a	NoResponse	-1	0.0	n/a	5	61	ISIslide	Loss	False
587.518	0.25	Lose2	0.6825	0.0	No	2.882	0.018	n/a	LatePress	-1	n/a	n/a	4	62	Cue	Loss	True
587.769	3.9	Lose2	0.6825	0.0	No	2.882	0.001	n/a	LatePress	-1	n/a	n/a	4	62	Fixation	Loss	True
591.664	0.19	Lose2	0.6825	0.004	No	2.882	-0.004	2.0	LatePress	-1	0.195	590.859	4	62	Target	Loss	True
591.859	0.3	Lose2	0.6825	0.004	No	2.882	-0.004	2.0	LatePress	-1	0.195	n/a	4	62	ButtonPress	Loss	True
591.864	0.51	Lose2	0.6825	n/a	No	2.882	n/a	n/a	LatePress	-1	n/a	n/a	4	62	Blank	Loss	True
592.366	1.45	Lose2	0.6825	n/a	No	2.882	n/a	5.0	LatePress	-1	0.043	591.409	4	62	Feedback	Loss	True
593.82	2.882	Lose2	0.6825	n/a	No	2.882	n/a	n/a	LatePress	-1	0.0	n/a	4	62	ISIslide	Loss	True
596.729	0.25	Lose2	0.6718999999999999	0.0	No	2.621	0.029	n/a	NoResponse	-1	n/a	n/a	3	63	Cue	Loss	True
596.98	4.05	Lose2	0.6718999999999999	0.0	No	2.621	0.001	n/a	NoResponse	-1	n/a	n/a	3	63	Fixation	Loss	True
601.025	0.18	Lose2	0.6718999999999999	0.004	No	2.621	-0.004	2.0	NoResponse	-1	0.212	600.237	3	63	Target	Loss	True
601.209	0.52	Lose2	0.6718999999999999	n/a	No	2.621	n/a	n/a	NoResponse	-1	n/a	n/a	3	63	Blank	Loss	True
601.237	0.3	Lose2	0.6718999999999999	0.004	No	2.621	-0.004	2.0	NoResponse	-1	0.212	n/a	3	63	ButtonPress	Loss	True
601.727	1.45	Lose2	0.6718999999999999	n/a	No	2.621	n/a	5.0	NoResponse	-1	0.048	600.775	3	63	Feedback	Loss	True
603.182	2.621	Lose2	0.6718999999999999	n/a	No	2.621	n/a	n/a	NoResponse	-1	0.0	n/a	3	63	ISIslide	Loss	True
605.823	0.25	Win2	0.6615000000000001	0.0	No	3.127	0.023	n/a	PrematurePress	0	n/a	n/a	3	64	Cue	MissedWin	True
606.074	4.15	Win2	0.6615000000000001	0.0	No	3.127	0.001	n/a	PrematurePress	0	n/a	n/a	3	64	Fixation	MissedWin	True
610.219	0.17	Win2	0.6615000000000001	0.004	No	3.127	-0.004	2.0	PrematurePress	0	0.046	609.265	3	64	Target	MissedWin	True
610.265	0.3	Win2	0.6615000000000001	0.004	No	3.127	-0.004	2.0	PrematurePress	0	0.046	n/a	3	64	ButtonPress	MissedWin	True
610.403	0.53	Win2	0.6615000000000001	n/a	No	3.127	n/a	n/a	PrematurePress	0	n/a	n/a	3	64	Blank	MissedWin	True
610.922	1.45	Win2	0.6615000000000001	n/a	No	3.127	n/a	5.0	PrematurePress	0	0.024	609.946	3	64	Feedback	MissedWin	True
612.376	3.127	Win2	0.6615000000000001	n/a	No	3.127	n/a	n/a	PrematurePress	0	0.0	n/a	3	64	ISIslide	MissedWin	True
615.519	0.25	Control	0.6515000000000001	0.0	No	2.781	0.019	n/a	NoResponse	0	n/a	n/a	3	65	Cue	Neutral	True
615.769	4.0	Control	0.6515000000000001	0.0	No	2.781	0.0	n/a	NoResponse	0	n/a	n/a	3	65	Fixation	Neutral	True
619.765	0.17	Control	0.6515000000000001	0.004	No	2.781	-0.004	2.0	NoResponse	0	0.234	618.999	3	65	Target	Neutral	True
619.949	0.53	Control	0.6515000000000001	n/a	No	2.781	n/a	n/a	NoResponse	0	n/a	n/a	3	65	Blank	Neutral	True
619.999	0.3	Control	0.6515000000000001	0.004	No	2.781	-0.004	2.0	NoResponse	0	0.234	n/a	3	65	ButtonPress	Neutral	True
620.467	1.45	Control	0.6515000000000001	n/a	No	2.781	n/a	5.0	NoResponse	0	0.04	619.507	3	65	Feedback	Neutral	True
621.921	2.781	Control	0.6515000000000001	n/a	No	2.781	n/a	n/a	NoResponse	0	0.0	n/a	3	65	ISIslide	Neutral	True
624.73	0.25	Win2	0.6418	0.0	No	2.77	0.03	n/a	NoResponse	0	n/a	n/a	3	66	Cue	MissedWin	True
624.98	3.9	Win2	0.6418	0.0	No	2.77	0.0	n/a	NoResponse	0	n/a	n/a	3	66	Fixation	MissedWin	True
628.892	0.18	Win2	0.6418	0.0	No	2.77	0.012	2.0	NoResponse	0	0.184	628.076	3	66	Target	MissedWin	True
629.059	0.52	Win2	0.6418	n/a	No	2.77	n/a	n/a	NoResponse	0	n/a	n/a	3	66	Blank	MissedWin	True
629.076	0.3	Win2	0.6418	0.0	No	2.77	0.012	2.0	NoResponse	0	0.184	n/a	3	66	ButtonPress	MissedWin	True
629.577	1.45	Win2	0.6418	n/a	No	2.77	n/a	5.0	NoResponse	0	0.003	628.58	3	66	Feedback	MissedWin	True
631.032	2.77	Win2	0.6418	n/a	No	2.77	n/a	n/a	NoResponse	0	0.0	n/a	3	66	ISIslide	MissedWin	True
633.823	0.25	Control	0.6324000000000001	0.0	No	2.727	0.023	n/a	LatePress	0	n/a	n/a	3	67	Cue	Neutral	True
634.074	3.95	Control	0.6324000000000001	0.0	No	2.727	0.001	n/a	LatePress	0	n/a	n/a	3	67	Fixation	Neutral	True
638.019	0.19	Control	0.6324000000000001	0.004	No	2.727	-0.004	2.0	LatePress	0	0.19	637.209	3	67	Target	Neutral	True
638.209	0.3	Control	0.6324000000000001	0.004	No	2.727	-0.004	2.0	LatePress	0	0.19	n/a	3	67	ButtonPress	Neutral	True
638.22	0.51	Control	0.6324000000000001	n/a	No	2.727	n/a	n/a	LatePress	0	n/a	n/a	3	67	Blank	Neutral	True
638.721	1.45	Control	0.6324000000000001	n/a	No	2.727	n/a	5.0	LatePress	0	0.03	637.751	3	67	Feedback	Neutral	True
640.176	2.727	Control	0.6324000000000001	n/a	No	2.727	n/a	n/a	LatePress	0	0.0	n/a	3	67	ISIslide	Neutral	True
642.917	0.25	Win2	0.6377	0.0	Yes	3.083	0.017	n/a	GoodResponse	1	n/a	n/a	4	68	Cue	Win	True
643.168	4.0	Win2	0.6377	0.0	Yes	3.083	0.001	n/a	GoodResponse	1	n/a	n/a	4	68	Fixation	Win	True
647.163	0.2	Win2	0.6377	0.004	Yes	3.083	-0.004	2.0	GoodResponse	1	0.185	646.348	4	68	Target	Win	True
647.348	0.3	Win2	0.6377	0.004	Yes	3.083	-0.004	2.0	GoodResponse	1	0.185	n/a	4	68	ButtonPress	Win	True
647.364	0.5	Win2	0.6377	n/a	Yes	3.083	n/a	n/a	GoodResponse	1	n/a	n/a	4	68	Blank	Win	True
647.865	1.45	Win2	0.6377	n/a	Yes	3.083	n/a	5.0	GoodResponse	1	0.008	646.873	4	68	Feedback	Win	True
649.32	3.083	Win2	0.6377	n/a	Yes	3.083	n/a	n/a	GoodResponse	1	0.0	n/a	4	68	ISIslide	Win	True
652.429	0.25	Win2	0.6429	0.0	Yes	3.221	0.029	n/a	GoodResponse	1	n/a	n/a	5	69	Cue	Win	True
652.68	3.95	Win2	0.6429	0.0	Yes	3.221	0.001	n/a	GoodResponse	1	n/a	n/a	5	69	Fixation	Win	True
656.625	0.21	Win2	0.6429	0.004	Yes	3.221	-0.004	2.0	GoodResponse	1	0.162	655.787	5	69	Target	Win	True
656.787	0.3	Win2	0.6429	0.004	Yes	3.221	-0.004	2.0	GoodResponse	1	0.162	n/a	5	69	ButtonPress	Win	True
656.842	0.49	Win2	0.6429	n/a	Yes	3.221	n/a	n/a	GoodResponse	1	n/a	n/a	5	69	Blank	Win	True
657.327	1.45	Win2	0.6429	n/a	Yes	3.221	n/a	5.0	GoodResponse	1	0.009	656.336	5	69	Feedback	Win	True
658.781	3.221	Win2	0.6429	n/a	Yes	3.221	n/a	n/a	GoodResponse	1	0.0	n/a	5	69	ISIslide	Win	True
662.024	0.25	Lose2	0.6479	0.001	Yes	3.026	0.024	n/a	GoodResponse	0	n/a	n/a	5	70	Cue	AvoidedLoss	True
662.275	4.05	Lose2	0.6479	0.0	Yes	3.026	0.001	n/a	GoodResponse	0	n/a	n/a	5	70	Fixation	AvoidedLoss	True
666.321	0.22	Lose2	0.6479	0.003	Yes	3.026	-0.003	2.0	GoodResponse	0	0.175	665.496	5	70	Target	AvoidedLoss	True
666.496	0.3	Lose2	0.6479	0.003	Yes	3.026	-0.003	2.0	GoodResponse	0	0.175	n/a	5	70	ButtonPress	AvoidedLoss	True
666.555	0.48	Lose2	0.6479	n/a	Yes	3.026	n/a	n/a	GoodResponse	0	n/a	n/a	5	70	Blank	AvoidedLoss	True
667.023	1.45	Lose2	0.6479	n/a	Yes	3.026	n/a	5.0	GoodResponse	0	0.02	666.043	5	70	Feedback	AvoidedLoss	True
668.477	3.026	Lose2	0.6479	n/a	Yes	3.026	n/a	n/a	GoodResponse	0	0.0	n/a	5	70	ISIslide	AvoidedLoss	True
671.52	0.25	Win2	0.6389	0.0	No	2.73	0.02	n/a	NoResponse	0	n/a	n/a	5	71	Cue	MissedWin	True
671.77	4.05	Win2	0.6389	0.0	No	2.73	0.0	2.0	NoResponse	0	4.022	674.792	5	71	Fixation	MissedWin	True
675.792	0.3	Win2	0.6389	0.0	No	2.73	0.0	2.0	NoResponse	0	4.022	n/a	5	71	ButtonPress	MissedWin	True
675.816	0.23	Win2	0.6389	0.004	No	2.73	-0.004	n/a	NoResponse	0	n/a	n/a	5	71	Target	MissedWin	True
676.05	0.47	Win2	0.6389	n/a	No	2.73	n/a	n/a	NoResponse	0	n/a	n/a	5	71	Blank	MissedWin	True
676.518	1.45	Win2	0.6389	n/a	No	2.73	n/a	5.0	NoResponse	0	0.037	675.555	5	71	Feedback	MissedWin	True
677.972	2.73	Win2	0.6389	n/a	No	2.73	n/a	n/a	NoResponse	0	0.0	n/a	5	71	ISIslide	MissedWin	True
680.714	0.25	Win2	0.6437999999999999	0.0	Yes	2.786	0.014	n/a	GoodResponse	1	n/a	n/a	6	72	Cue	Win	True
680.965	4.1	Win2	0.6437999999999999	0.0	Yes	2.786	0.001	n/a	GoodResponse	1	n/a	n/a	6	72	Fixation	Win	True
685.06	0.24	Win2	0.6437999999999999	0.004	Yes	2.786	-0.004	2.0	GoodResponse	1	0.188	684.248	6	72	Target	Win	True
685.248	0.3	Win2	0.6437999999999999	0.004	Yes	2.786	-0.004	2.0	GoodResponse	1	0.188	n/a	6	72	ButtonPress	Win	True
685.311	0.46	Win2	0.6437999999999999	n/a	Yes	2.786	n/a	n/a	GoodResponse	1	n/a	n/a	6	72	Blank	Win	True
685.762	1.45	Win2	0.6437999999999999	n/a	Yes	2.786	n/a	5.0	GoodResponse	1	0.013	684.775	6	72	Feedback	Win	True
687.217	2.786	Win2	0.6437999999999999	n/a	Yes	2.786	n/a	n/a	GoodResponse	1	0.0	n/a	6	72	ISIslide	Win	True
690.025	0.25	Win2	0.6486	0.0	Yes	2.675	0.025	n/a	GoodResponse	1	n/a	n/a	7	73	Cue	Win	True
690.276	4.0	Win2	0.6486	0.0	Yes	2.675	0.001	n/a	GoodResponse	1	n/a	n/a	7	73	Fixation	Win	True
694.271	0.25	Win2	0.6486	0.004	Yes	2.675	-0.004	2.0	GoodResponse	1	0.187	693.458	7	73	Target	Win	True
694.458	0.3	Win2	0.6486	0.004	Yes	2.675	-0.004	2.0	GoodResponse	1	0.187	n/a	7	73	ButtonPress	Win	True
694.522	0.45	Win2	0.6486	n/a	Yes	2.675	n/a	n/a	GoodResponse	1	n/a	n/a	7	73	Blank	Win	True
694.973	1.45	Win2	0.6486	n/a	Yes	2.675	n/a	5.0	GoodResponse	1	0.021	693.994	7	73	Feedback	Win	True
696.427	2.675	Win2	0.6486	n/a	Yes	2.675	n/a	n/a	GoodResponse	1	0.0	n/a	7	73	ISIslide	Win	True
699.119	0.25	Lose2	0.6533	0.0	Yes	2.631	0.019	n/a	GoodResponse	0	n/a	n/a	7	74	Cue	AvoidedLoss	True
699.37	4.05	Lose2	0.6533	0.0	Yes	2.631	0.001	n/a	GoodResponse	0	n/a	n/a	7	74	Fixation	AvoidedLoss	True
703.415	0.26	Lose2	0.6533	0.004	Yes	2.631	-0.004	2.0	GoodResponse	0	0.162	702.577	7	74	Target	AvoidedLoss	True
703.577	0.3	Lose2	0.6533	0.004	Yes	2.631	-0.004	2.0	GoodResponse	0	0.162	n/a	7	74	ButtonPress	AvoidedLoss	True
703.683	0.44	Lose2	0.6533	n/a	Yes	2.631	n/a	n/a	GoodResponse	0	n/a	n/a	7	74	Blank	AvoidedLoss	True
704.117	1.45	Lose2	0.6533	n/a	Yes	2.631	n/a	5.0	GoodResponse	0	0.047	703.164	7	74	Feedback	AvoidedLoss	True
705.572	2.631	Lose2	0.6533	n/a	Yes	2.631	n/a	n/a	GoodResponse	0	0.0	n/a	7	74	ISIslide	AvoidedLoss	True
708.229	0.25	Lose2	0.6579	0.001	Yes	2.921	0.029	n/a	GoodResponse	0	n/a	n/a	7	75	Cue	AvoidedLoss	True
708.48	3.95	Lose2	0.6579	0.0	Yes	2.921	0.001	n/a	GoodResponse	0	n/a	n/a	7	75	Fixation	AvoidedLoss	True
712.425	0.27	Lose2	0.6579	0.004	Yes	2.921	-0.004	2.0	GoodResponse	0	0.206	711.631	7	75	Target	AvoidedLoss	True
712.631	0.3	Lose2	0.6579	0.004	Yes	2.921	-0.004	2.0	GoodResponse	0	0.206	n/a	7	75	ButtonPress	AvoidedLoss	True
712.71	0.43	Lose2	0.6579	n/a	Yes	2.921	n/a	n/a	GoodResponse	0	n/a	n/a	7	75	Blank	AvoidedLoss	True
713.127	1.45	Lose2	0.6579	n/a	Yes	2.921	n/a	5.0	GoodResponse	0	0.013	712.14	7	75	Feedback	AvoidedLoss	True
714.582	2.921	Lose2	0.6579	n/a	Yes	2.921	n/a	n/a	GoodResponse	0	0.0	n/a	7	75	ISIslide	AvoidedLoss	True
717.524	0.25	Control	0.6623	0.0	Yes	3.226	0.024	n/a	GoodResponse	0	n/a	n/a	7	76	Cue	Neutral	True
717.775	4.05	Control	0.6623	0.0	Yes	3.226	0.001	n/a	GoodResponse	0	n/a	n/a	7	76	Fixation	Neutral	True
721.82	0.27	Control	0.6623	0.004	Yes	3.226	-0.004	2.0	GoodResponse	0	0.219	721.039	7	76	Target	Neutral	True
722.039	0.3	Control	0.6623	0.004	Yes	3.226	-0.004	2.0	GoodResponse	0	0.219	n/a	7	76	ButtonPress	Neutral	True
722.104	0.43	Control	0.6623	n/a	Yes	3.226	n/a	n/a	GoodResponse	0	n/a	n/a	7	76	Blank	Neutral	True
722.522	1.45	Control	0.6623	n/a	Yes	3.226	n/a	5.0	GoodResponse	0	0.033	721.555	7	76	Feedback	Neutral	True
723.977	3.226	Control	0.6623	n/a	Yes	3.226	n/a	n/a	GoodResponse	0	0.0	n/a	7	76	ISIslide	Neutral	True
727.22	0.25	Lose2	0.6667000000000001	0.0	Yes	2.58	0.02	n/a	GoodResponse	0	n/a	n/a	7	77	Cue	AvoidedLoss	True
727.47	3.95	Lose2	0.6667000000000001	0.0	Yes	2.58	0.0	n/a	GoodResponse	0	n/a	n/a	7	77	Fixation	AvoidedLoss	True
731.416	0.27	Lose2	0.6667000000000001	0.004	Yes	2.58	-0.004	2.0	GoodResponse	0	0.195	730.611	7	77	Target	AvoidedLoss	True
731.611	0.3	Lose2	0.6667000000000001	0.004	Yes	2.58	-0.004	2.0	GoodResponse	0	0.195	n/a	7	77	ButtonPress	AvoidedLoss	True
731.7	0.43	Lose2	0.6667000000000001	n/a	Yes	2.58	n/a	n/a	GoodResponse	0	n/a	n/a	7	77	Blank	AvoidedLoss	True
732.118	1.45	Lose2	0.6667000000000001	n/a	Yes	2.58	n/a	5.0	GoodResponse	0	0.047	731.165	7	77	Feedback	AvoidedLoss	True
733.572	2.58	Lose2	0.6667000000000001	n/a	Yes	2.58	n/a	n/a	GoodResponse	0	0.0	n/a	7	77	ISIslide	AvoidedLoss	True
