onset	duration	cue_type	current_mean_accuracy	duration_error	is_hit	isi_adjusted	onset_delay	response	response_type	reward	rt	rt_time	total_reward	trial_number	trial_phase	trial_type	one_press
11.109	0.25	Control	0.0	0.0	No	2.941	0.009	n/a	NoResponse	0	n/a	n/a	0	0	Cue	Neutral	False
11.36	3.85	Control	0.0	0.0	No	2.941	0.001	4.0	NoResponse	0	0.47	10.83	0	0	Fixation	Neutral	False
11.83	0.3	Control	0.0	0.0	No	2.941	0.001	4.0	NoResponse	0	0.47	n/a	0	0	ButtonPress	Neutral	False
15.221	0.4	Control	0.0	0.0	No	2.941	0.012	4.0	NoResponse	0	0.465	14.686	0	0	Target	Neutral	False
15.606	0.3	Control	0.0	n/a	No	2.941	n/a	n/a	NoResponse	0	n/a	n/a	0	0	Blank	Neutral	False
15.686	0.3	Control	0.0	0.0	No	2.941	0.012	4.0	NoResponse	0	0.465	n/a	0	0	ButtonPress	Neutral	False
15.907	1.45	Control	0.0	n/a	No	2.941	n/a	5.0	NoResponse	0	0.02	14.927	0	0	Feedback	Neutral	False
17.361	2.941	Control	0.0	n/a	No	2.941	n/a	n/a	NoResponse	0	0.0	n/a	0	0	ISIslide	Neutral	False
20.32	0.25	Lose2	0.5	0.0	Yes	2.78	0.02	n/a	GoodResponse	0	n/a	n/a	0	1	Cue	AvoidedLoss	True
20.57	4.0	Lose2	0.5	0.001	Yes	2.78	0.0	n/a	GoodResponse	0	n/a	n/a	0	1	Fixation	AvoidedLoss	True
24.566	0.41	Lose2	0.5	0.004	Yes	2.78	-0.004	4.0	GoodResponse	0	0.259	23.825	0	1	Target	AvoidedLoss	True
24.825	0.3	Lose2	0.5	0.004	Yes	2.78	-0.004	4.0	GoodResponse	0	0.259	n/a	0	1	ButtonPress	AvoidedLoss	True
24.984	0.29	Lose2	0.5	n/a	Yes	2.78	n/a	n/a	GoodResponse	0	n/a	n/a	0	1	Blank	AvoidedLoss	True
25.268	1.45	Lose2	0.5	n/a	Yes	2.78	n/a	5.0	GoodResponse	0	0.024	24.292	0	1	Feedback	AvoidedLoss	True
26.722	2.78	Lose2	0.5	n/a	Yes	2.78	n/a	n/a	GoodResponse	0	0.0	n/a	0	1	ISIslide	AvoidedLoss	True
29.531	0.25	Control	0.6667000000000001	0.0	Yes	2.569	0.031	n/a	GoodResponse	0	n/a	n/a	0	2	Cue	Neutral	True
29.781	4.1	Control	0.6667000000000001	0.0	Yes	2.569	0.0	n/a	GoodResponse	0	n/a	n/a	0	2	Fixation	Neutral	True
33.877	0.42	Control	0.6667000000000001	0.004	Yes	2.569	-0.004	4.0	GoodResponse	0	0.324	33.201	0	2	Target	Neutral	True
34.201	0.3	Control	0.6667000000000001	0.004	Yes	2.569	-0.004	4.0	GoodResponse	0	0.324	n/a	0	2	ButtonPress	Neutral	True
34.312	0.28	Control	0.6667000000000001	n/a	Yes	2.569	n/a	n/a	GoodResponse	0	n/a	n/a	0	2	Blank	Neutral	True
34.579	1.45	Control	0.6667000000000001	n/a	Yes	2.569	n/a	5.0	GoodResponse	0	0.03	33.609	0	2	Feedback	Neutral	True
36.033	2.569	Control	0.6667000000000001	n/a	Yes	2.569	n/a	n/a	GoodResponse	0	0.0	n/a	0	2	ISIslide	Neutral	True
38.624	0.25	Win2	0.75	0.0	Yes	2.826	0.024	n/a	GoodResponse	1	n/a	n/a	1	3	Cue	Win	True
38.875	3.95	Win2	0.75	0.0	Yes	2.826	0.001	n/a	GoodResponse	1	n/a	n/a	1	3	Fixation	Win	True
42.82	0.41	Win2	0.75	0.004	Yes	2.826	-0.004	4.0	GoodResponse	1	0.263	42.083	1	3	Target	Win	True
43.083	0.3	Win2	0.75	0.004	Yes	2.826	-0.004	4.0	GoodResponse	1	0.263	n/a	1	3	ButtonPress	Win	True
43.238	0.29	Win2	0.75	n/a	Yes	2.826	n/a	n/a	GoodResponse	1	n/a	n/a	1	3	Blank	Win	True
43.522	1.45	Win2	0.75	n/a	Yes	2.826	n/a	5.0	GoodResponse	1	0.014	42.536	1	3	Feedback	Win	True
44.977	2.826	Win2	0.75	n/a	Yes	2.826	n/a	n/a	GoodResponse	1	0.0	n/a	1	3	ISIslide	Win	True
47.819	0.25	Win2	0.8	0.0	Yes	3.281	0.019	n/a	GoodResponse	1	n/a	n/a	2	4	Cue	Win	True
48.069	4.0	Win2	0.8	0.0	Yes	3.281	0.0	n/a	GoodResponse	1	n/a	n/a	2	4	Fixation	Win	True
52.065	0.4	Win2	0.8	0.004	Yes	3.281	-0.004	4.0	GoodResponse	1	0.253	51.318	2	4	Target	Win	True
52.318	0.3	Win2	0.8	0.004	Yes	3.281	-0.004	4.0	GoodResponse	1	0.253	n/a	2	4	ButtonPress	Win	True
52.466	0.3	Win2	0.8	n/a	Yes	3.281	n/a	n/a	GoodResponse	1	n/a	n/a	2	4	Blank	Win	True
52.767	1.45	Win2	0.8	n/a	Yes	3.281	n/a	5.0	GoodResponse	1	0.037	51.804	2	4	Feedback	Win	True
54.221	3.281	Win2	0.8	n/a	Yes	3.281	n/a	n/a	GoodResponse	1	0.0	n/a	2	4	ISIslide	Win	True
57.531	0.25	Win2	0.8332999999999999	0.0	Yes	2.769	0.031	n/a	GoodResponse	1	n/a	n/a	3	5	Cue	Win	True
57.782	4.0	Win2	0.8332999999999999	0.0	Yes	2.769	0.001	n/a	GoodResponse	1	n/a	n/a	3	5	Fixation	Win	True
61.777	0.39	Win2	0.8332999999999999	0.004	Yes	2.769	-0.004	4.0	GoodResponse	1	0.313	61.09	3	5	Target	Win	True
62.09	0.3	Win2	0.8332999999999999	0.004	Yes	2.769	-0.004	4.0	GoodResponse	1	0.313	n/a	3	5	ButtonPress	Win	True
62.178	0.31	Win2	0.8332999999999999	n/a	Yes	2.769	n/a	n/a	GoodResponse	1	n/a	n/a	3	5	Blank	Win	True
62.479	1.45	Win2	0.8332999999999999	n/a	Yes	2.769	n/a	5.0	GoodResponse	1	0.032	61.511	3	5	Feedback	Win	True
63.933	2.769	Win2	0.8332999999999999	n/a	Yes	2.769	n/a	n/a	GoodResponse	1	0.0	n/a	3	5	ISIslide	Win	True
66.725	0.25	Lose2	0.8571	0.0	Yes	2.725	0.025	n/a	GoodResponse	0	n/a	n/a	3	6	Cue	AvoidedLoss	True
66.976	3.95	Lose2	0.8571	0.0	Yes	2.725	0.001	n/a	GoodResponse	0	n/a	n/a	3	6	Fixation	AvoidedLoss	True
70.921	0.38	Lose2	0.8571	0.004	Yes	2.725	-0.004	4.0	GoodResponse	0	0.311	70.232	3	6	Target	AvoidedLoss	True
71.232	0.3	Lose2	0.8571	0.004	Yes	2.725	-0.004	4.0	GoodResponse	0	0.311	n/a	3	6	ButtonPress	AvoidedLoss	True
71.305	0.32	Lose2	0.8571	n/a	Yes	2.725	n/a	n/a	GoodResponse	0	n/a	n/a	3	6	Blank	AvoidedLoss	True
71.623	1.45	Lose2	0.8571	n/a	Yes	2.725	n/a	5.0	GoodResponse	0	0.01	70.633	3	6	Feedback	AvoidedLoss	True
73.077	2.725	Lose2	0.8571	n/a	Yes	2.725	n/a	n/a	GoodResponse	0	0.0	n/a	3	6	ISIslide	AvoidedLoss	True
75.819	0.25	Lose2	0.875	0.0	Yes	4.031	0.019	n/a	GoodResponse	0	n/a	n/a	3	7	Cue	AvoidedLoss	True
76.07	4.05	Lose2	0.875	0.0	Yes	4.031	0.001	n/a	GoodResponse	0	n/a	n/a	3	7	Fixation	AvoidedLoss	True
80.115	0.37	Lose2	0.875	0.004	Yes	4.031	-0.004	4.0	GoodResponse	0	0.303	79.418	3	7	Target	AvoidedLoss	True
80.418	0.3	Lose2	0.875	0.004	Yes	4.031	-0.004	4.0	GoodResponse	0	0.303	n/a	3	7	ButtonPress	AvoidedLoss	True
80.499	0.33	Lose2	0.875	n/a	Yes	4.031	n/a	n/a	GoodResponse	0	n/a	n/a	3	7	Blank	AvoidedLoss	True
80.817	1.45	Lose2	0.875	n/a	Yes	4.031	n/a	5.0	GoodResponse	0	0.035	79.852	3	7	Feedback	AvoidedLoss	True
82.271	4.031	Lose2	0.875	n/a	Yes	4.031	n/a	n/a	GoodResponse	0	0.0	n/a	3	7	ISIslide	AvoidedLoss	True
86.317	0.25	Lose2	0.8889	0.0	Yes	3.033	0.017	n/a	GoodResponse	0	n/a	n/a	3	8	Cue	AvoidedLoss	True
86.568	3.95	Lose2	0.8889	0.0	Yes	3.033	0.001	n/a	GoodResponse	0	n/a	n/a	3	8	Fixation	AvoidedLoss	True
90.513	0.36	Lose2	0.8889	0.004	Yes	3.033	-0.004	4.0	GoodResponse	0	0.299	89.812	3	8	Target	AvoidedLoss	True
90.812	0.3	Lose2	0.8889	0.004	Yes	3.033	-0.004	4.0	GoodResponse	0	0.299	n/a	3	8	ButtonPress	AvoidedLoss	True
90.88	0.34	Lose2	0.8889	n/a	Yes	3.033	n/a	n/a	GoodResponse	0	n/a	n/a	3	8	Blank	AvoidedLoss	True
91.215	1.45	Lose2	0.8889	n/a	Yes	3.033	n/a	5.0	GoodResponse	0	0.028	90.243	3	8	Feedback	AvoidedLoss	True
92.669	3.033	Lose2	0.8889	n/a	Yes	3.033	n/a	n/a	GoodResponse	0	0.0	n/a	3	8	ISIslide	AvoidedLoss	True
95.728	0.25	Lose2	0.9	0.0	Yes	3.122	0.028	n/a	GoodResponse	0	n/a	n/a	3	9	Cue	AvoidedLoss	True
95.979	3.95	Lose2	0.9	0.0	Yes	3.122	0.001	n/a	GoodResponse	0	n/a	n/a	3	9	Fixation	AvoidedLoss	True
99.924	0.35	Lose2	0.9	0.004	Yes	3.122	-0.004	4.0	GoodResponse	0	0.334	99.258	3	9	Target	AvoidedLoss	True
100.258	0.3	Lose2	0.9	0.004	Yes	3.122	-0.004	4.0	GoodResponse	0	0.334	n/a	3	9	ButtonPress	AvoidedLoss	True
100.275	0.35	Lose2	0.9	n/a	Yes	3.122	n/a	n/a	GoodResponse	0	n/a	n/a	3	9	Blank	AvoidedLoss	True
100.626	1.45	Lose2	0.9	n/a	Yes	3.122	n/a	5.0	GoodResponse	0	0.031	99.657	3	9	Feedback	AvoidedLoss	True
102.081	3.122	Lose2	0.9	n/a	Yes	3.122	n/a	n/a	GoodResponse	0	0.0	n/a	3	9	ISIslide	AvoidedLoss	True
105.223	0.25	Control	0.9091	0.0	Yes	3.277	0.023	n/a	GoodResponse	0	n/a	n/a	3	10	Cue	Neutral	True
105.474	4.0	Control	0.9091	0.0	Yes	3.277	0.001	n/a	GoodResponse	0	n/a	n/a	3	10	Fixation	Neutral	True
109.469	0.34	Control	0.9091	0.004	Yes	3.277	-0.004	4.0	GoodResponse	0	0.304	108.773	3	10	Target	Neutral	True
109.773	0.3	Control	0.9091	0.004	Yes	3.277	-0.004	4.0	GoodResponse	0	0.304	n/a	3	10	ButtonPress	Neutral	True
109.82	0.36	Control	0.9091	n/a	Yes	3.277	n/a	n/a	GoodResponse	0	n/a	n/a	3	10	Blank	Neutral	True
110.171	1.45	Control	0.9091	n/a	Yes	3.277	n/a	5.0	GoodResponse	0	0.047	109.218	3	10	Feedback	Neutral	True
111.626	3.277	Control	0.9091	n/a	Yes	3.277	n/a	n/a	GoodResponse	0	0.0	n/a	3	10	ISIslide	Neutral	True
114.919	0.25	Lose2	0.8332999999999999	0.0	No	2.731	0.019	n/a	NoResponse	-1	n/a	n/a	2	11	Cue	Loss	True
115.17	4.05	Lose2	0.8332999999999999	0.0	No	2.731	0.001	n/a	NoResponse	-1	n/a	n/a	2	11	Fixation	Loss	True
119.215	0.33	Lose2	0.8332999999999999	0.004	No	2.731	-0.004	4.0	NoResponse	-1	0.377	118.592	2	11	Target	Loss	True
119.549	0.37	Lose2	0.8332999999999999	n/a	No	2.731	n/a	n/a	NoResponse	-1	n/a	n/a	2	11	Blank	Loss	True
119.592	0.3	Lose2	0.8332999999999999	0.004	No	2.731	-0.004	4.0	NoResponse	-1	0.377	n/a	2	11	ButtonPress	Loss	True
119.917	1.45	Lose2	0.8332999999999999	n/a	No	2.731	n/a	5.0	NoResponse	-1	0.008	118.925	2	11	Feedback	Loss	True
121.372	2.731	Lose2	0.8332999999999999	n/a	No	2.731	n/a	n/a	NoResponse	-1	0.0	n/a	2	11	ISIslide	Loss	True
124.13	0.25	Control	0.8462000000000001	0.0	Yes	2.97	0.03	n/a	GoodResponse	0	n/a	n/a	2	12	Cue	Neutral	True
124.381	3.9	Control	0.8462000000000001	0.0	Yes	2.97	0.001	n/a	GoodResponse	0	n/a	n/a	2	12	Fixation	Neutral	True
128.292	0.32	Control	0.8462000000000001	0.0	Yes	2.97	0.012	4.0	GoodResponse	0	0.303	127.595	2	12	Target	Neutral	True
128.595	0.3	Control	0.8462000000000001	0.0	Yes	2.97	0.012	4.0	GoodResponse	0	0.303	n/a	2	12	ButtonPress	Neutral	True
128.61	0.38	Control	0.8462000000000001	n/a	Yes	2.97	n/a	n/a	GoodResponse	0	n/a	n/a	2	12	Blank	Neutral	True
128.978	1.45	Control	0.8462000000000001	n/a	Yes	2.97	n/a	5.0	GoodResponse	0	0.02	127.998	2	12	Feedback	Neutral	True
130.432	2.97	Control	0.8462000000000001	n/a	Yes	2.97	n/a	n/a	GoodResponse	0	0.0	n/a	2	12	ISIslide	Neutral	True
133.424	0.25	Control	0.7857	0.0	No	2.776	0.024	n/a	NoResponse	0	n/a	n/a	2	13	Cue	Neutral	True
133.675	4.0	Control	0.7857	0.0	No	2.776	0.001	n/a	NoResponse	0	n/a	n/a	2	13	Fixation	Neutral	True
137.67	0.31	Control	0.7857	0.004	No	2.776	-0.004	4.0	NoResponse	0	0.335	137.005	2	13	Target	Neutral	True
137.988	0.39	Control	0.7857	n/a	No	2.776	n/a	n/a	NoResponse	0	n/a	n/a	2	13	Blank	Neutral	True
138.005	0.3	Control	0.7857	0.004	No	2.776	-0.004	4.0	NoResponse	0	0.335	n/a	2	13	ButtonPress	Neutral	True
138.372	1.45	Control	0.7857	n/a	No	2.776	n/a	5.0	NoResponse	0	0.04	137.412	2	13	Feedback	Neutral	True
139.827	2.776	Control	0.7857	n/a	No	2.776	n/a	n/a	NoResponse	0	0.0	n/a	2	13	ISIslide	Neutral	True
142.618	0.25	Win2	0.8	0.0	Yes	2.682	0.018	n/a	GoodResponse	1	n/a	n/a	3	14	Cue	Win	True
142.869	4.1	Win2	0.8	0.0	Yes	2.682	0.001	n/a	GoodResponse	1	n/a	n/a	3	14	Fixation	Win	True
146.965	0.3	Win2	0.8	0.003	Yes	2.682	-0.003	4.0	GoodResponse	1	0.295	146.26	3	14	Target	Win	True
147.26	0.3	Win2	0.8	0.003	Yes	2.682	-0.003	4.0	GoodResponse	1	0.295	n/a	3	14	ButtonPress	Win	True
147.266	0.4	Win2	0.8	n/a	Yes	2.682	n/a	n/a	GoodResponse	1	n/a	n/a	3	14	Blank	Win	True
147.667	1.45	Win2	0.8	n/a	Yes	2.682	n/a	5.0	GoodResponse	1	0.013	146.68	3	14	Feedback	Win	True
149.121	2.682	Win2	0.8	n/a	Yes	2.682	n/a	n/a	GoodResponse	1	0.0	n/a	3	14	ISIslide	Win	True
151.829	0.25	Control	0.8125	0.0	Yes	2.971	0.029	n/a	GoodResponse	0	n/a	n/a	3	15	Cue	Neutral	True
152.08	4.0	Control	0.8125	0.0	Yes	2.971	0.001	n/a	GoodResponse	0	n/a	n/a	3	15	Fixation	Neutral	True
156.075	0.29	Control	0.8125	0.004	Yes	2.971	-0.004	4.0	GoodResponse	0	0.282	155.357	3	15	Target	Neutral	True
156.357	0.3	Control	0.8125	0.004	Yes	2.971	-0.004	4.0	GoodResponse	0	0.282	n/a	3	15	ButtonPress	Neutral	True
156.376	0.41	Control	0.8125	n/a	Yes	2.971	n/a	n/a	GoodResponse	0	n/a	n/a	3	15	Blank	Neutral	True
156.777	1.45	Control	0.8125	n/a	Yes	2.971	n/a	5.0	GoodResponse	0	0.026	155.803	3	15	Feedback	Neutral	True
158.232	2.971	Control	0.8125	n/a	Yes	2.971	n/a	n/a	GoodResponse	0	0.0	n/a	3	15	ISIslide	Neutral	True
161.224	0.25	Win2	0.7646999999999999	0.0	No	2.876	0.024	n/a	NoResponse	0	n/a	n/a	3	16	Cue	MissedWin	True
161.475	4.0	Win2	0.7646999999999999	0.0	No	2.876	0.001	n/a	NoResponse	0	n/a	n/a	3	16	Fixation	MissedWin	True
165.47	0.28	Win2	0.7646999999999999	0.004	No	2.876	-0.004	4.0	NoResponse	0	0.373	164.843	3	16	Target	MissedWin	True
165.754	0.42	Win2	0.7646999999999999	n/a	No	2.876	n/a	n/a	NoResponse	0	n/a	n/a	3	16	Blank	MissedWin	True
165.843	0.3	Win2	0.7646999999999999	0.004	No	2.876	-0.004	4.0	NoResponse	0	0.373	n/a	3	16	ButtonPress	MissedWin	True
166.172	1.45	Win2	0.7646999999999999	n/a	No	2.876	n/a	5.0	NoResponse	0	0.045	165.217	3	16	Feedback	MissedWin	True
167.626	2.876	Win2	0.7646999999999999	n/a	No	2.876	n/a	n/a	NoResponse	0	0.0	n/a	3	16	ISIslide	MissedWin	True
170.518	0.25	Lose2	0.7778	0.0	Yes	2.732	0.018	n/a	GoodResponse	0	n/a	n/a	3	17	Cue	AvoidedLoss	True
170.769	3.95	Lose2	0.7778	0.0	Yes	2.732	0.001	n/a	GoodResponse	0	n/a	n/a	3	17	Fixation	AvoidedLoss	True
174.714	0.27	Lose2	0.7778	0.004	Yes	2.732	-0.004	4.0	GoodResponse	0	0.253	173.967	3	17	Target	AvoidedLoss	True
174.967	0.3	Lose2	0.7778	0.004	Yes	2.732	-0.004	4.0	GoodResponse	0	0.253	n/a	3	17	ButtonPress	AvoidedLoss	True
174.998	0.43	Lose2	0.7778	n/a	Yes	2.732	n/a	n/a	GoodResponse	0	n/a	n/a	3	17	Blank	AvoidedLoss	True
175.416	1.45	Lose2	0.7778	n/a	Yes	2.732	n/a	5.0	GoodResponse	0	0.02	174.436	3	17	Feedback	AvoidedLoss	True
176.871	2.732	Lose2	0.7778	n/a	Yes	2.732	n/a	n/a	GoodResponse	0	0.0	n/a	3	17	ISIslide	AvoidedLoss	True
179.629	0.25	Lose2	0.7368000000000001	0.0	No	2.721	0.029	n/a	NoResponse	-1	n/a	n/a	2	18	Cue	Loss	True
179.88	4.05	Lose2	0.7368000000000001	0.0	No	2.721	0.001	n/a	NoResponse	-1	n/a	n/a	2	18	Fixation	Loss	True
183.925	0.26	Lose2	0.7368000000000001	0.004	No	2.721	-0.004	4.0	NoResponse	-1	0.278	183.203	2	18	Target	Loss	True
184.192	0.44	Lose2	0.7368000000000001	n/a	No	2.721	n/a	n/a	NoResponse	-1	n/a	n/a	2	18	Blank	Loss	True
184.203	0.3	Lose2	0.7368000000000001	0.004	No	2.721	-0.004	4.0	NoResponse	-1	0.278	n/a	2	18	ButtonPress	Loss	True
184.627	1.45	Lose2	0.7368000000000001	n/a	No	2.721	n/a	5.0	NoResponse	-1	0.028	183.655	2	18	Feedback	Loss	True
186.081	2.721	Lose2	0.7368000000000001	n/a	No	2.721	n/a	n/a	NoResponse	-1	0.0	n/a	2	18	ISIslide	Loss	True
188.823	0.25	Control	0.7	0.0	No	2.927	0.023	n/a	NoResponse	0	n/a	n/a	2	19	Cue	Neutral	True
189.074	3.95	Control	0.7	0.0	No	2.927	0.001	n/a	NoResponse	0	n/a	n/a	2	19	Fixation	Neutral	True
193.019	0.25	Control	0.7	0.004	No	2.927	-0.004	4.0	NoResponse	0	0.307	192.326	2	19	Target	Neutral	True
193.27	0.45	Control	0.7	n/a	No	2.927	n/a	n/a	NoResponse	0	n/a	n/a	2	19	Blank	Neutral	True
193.326	0.3	Control	0.7	0.004	No	2.927	-0.004	4.0	NoResponse	0	0.307	n/a	2	19	ButtonPress	Neutral	True
193.721	1.45	Control	0.7	n/a	No	2.927	n/a	5.0	NoResponse	0	0.008	192.729	2	19	Feedback	Neutral	True
195.175	2.927	Control	0.7	n/a	No	2.927	n/a	n/a	NoResponse	0	0.0	n/a	2	19	ISIslide	Neutral	True
198.117	0.25	Control	0.7143	0.0	Yes	2.633	0.017	n/a	GoodResponse	0	n/a	n/a	2	20	Cue	Neutral	True
198.368	4.05	Control	0.7143	0.0	Yes	2.633	0.001	n/a	GoodResponse	0	n/a	n/a	2	20	Fixation	Neutral	True
202.414	0.24	Control	0.7143	0.003	Yes	2.633	-0.003	4.0	GoodResponse	0	0.22	201.634	2	20	Target	Neutral	True
202.634	0.3	Control	0.7143	0.003	Yes	2.633	-0.003	4.0	GoodResponse	0	0.22	n/a	2	20	ButtonPress	Neutral	True
202.664	0.46	Control	0.7143	n/a	Yes	2.633	n/a	n/a	GoodResponse	0	n/a	n/a	2	20	Blank	Neutral	True
203.116	1.45	Control	0.7143	n/a	Yes	2.633	n/a	5.0	GoodResponse	0	0.027	202.143	2	20	Feedback	Neutral	True
204.57	2.633	Control	0.7143	n/a	Yes	2.633	n/a	n/a	GoodResponse	0	0.0	n/a	2	20	ISIslide	Neutral	True
207.228	0.25	Control	0.6818000000000001	0.0	No	2.772	0.028	n/a	NoResponse	0	n/a	n/a	2	21	Cue	Neutral	True
207.479	4.1	Control	0.6818000000000001	0.0	No	2.772	0.001	n/a	NoResponse	0	n/a	n/a	2	21	Fixation	Neutral	True
211.574	0.23	Control	0.6818000000000001	0.004	No	2.772	-0.004	4.0	NoResponse	0	0.295	210.869	2	21	Target	Neutral	True
211.808	0.47	Control	0.6818000000000001	n/a	No	2.772	n/a	n/a	NoResponse	0	n/a	n/a	2	21	Blank	Neutral	True
211.869	0.3	Control	0.6818000000000001	0.004	No	2.772	-0.004	4.0	NoResponse	0	0.295	n/a	2	21	ButtonPress	Neutral	True
212.276	1.45	Control	0.6818000000000001	n/a	No	2.772	n/a	5.0	NoResponse	0	0.037	211.313	2	21	Feedback	Neutral	True
213.731	2.772	Control	0.6818000000000001	n/a	No	2.772	n/a	n/a	NoResponse	0	0.0	n/a	2	21	ISIslide	Neutral	True
216.522	0.25	Control	0.6522	0.0	No	2.778	0.022	n/a	NoResponse	0	n/a	n/a	2	22	Cue	Neutral	True
216.773	4.0	Control	0.6522	0.0	No	2.778	0.001	n/a	NoResponse	0	n/a	n/a	2	22	Fixation	Neutral	True
220.768	0.22	Control	0.6522	0.004	No	2.778	-0.004	4.0	NoResponse	0	0.273	220.041	2	22	Target	Neutral	True
221.002	0.48	Control	0.6522	n/a	No	2.778	n/a	n/a	NoResponse	0	n/a	n/a	2	22	Blank	Neutral	True
221.041	0.3	Control	0.6522	0.004	No	2.778	-0.004	4.0	NoResponse	0	0.273	n/a	2	22	ButtonPress	Neutral	True
221.47	1.45	Control	0.6522	n/a	No	2.778	n/a	5.0	NoResponse	0	0.014	220.484	2	22	Feedback	Neutral	True
222.925	2.778	Control	0.6522	n/a	No	2.778	n/a	n/a	NoResponse	0	0.0	n/a	2	22	ISIslide	Neutral	True
225.716	0.25	Control	0.625	0.001	No	2.784	0.016	n/a	NoResponse	0	n/a	n/a	2	23	Cue	Neutral	True
225.967	3.9	Control	0.625	0.0	No	2.784	0.001	n/a	NoResponse	0	n/a	n/a	2	23	Fixation	Neutral	True
229.862	0.23	Control	0.625	0.004	No	2.784	-0.004	4.0	NoResponse	0	0.355	229.217	2	23	Target	Neutral	True
230.096	0.47	Control	0.625	n/a	No	2.784	n/a	n/a	NoResponse	0	n/a	n/a	2	23	Blank	Neutral	True
230.217	0.3	Control	0.625	0.004	No	2.784	-0.004	4.0	NoResponse	0	0.355	n/a	2	23	ButtonPress	Neutral	True
230.564	1.45	Control	0.625	n/a	No	2.784	n/a	5.0	NoResponse	0	0.042	229.606	2	23	Feedback	Neutral	True
232.019	2.784	Control	0.625	n/a	No	2.784	n/a	n/a	NoResponse	0	0.0	n/a	2	23	ISIslide	Neutral	True
234.827	0.25	Win2	0.6	0.0	No	3.123	0.027	n/a	NoResponse	0	n/a	n/a	2	24	Cue	MissedWin	True
235.078	3.95	Win2	0.6	0.0	No	3.123	0.001	n/a	NoResponse	0	n/a	n/a	2	24	Fixation	MissedWin	True
239.023	0.24	Win2	0.6	0.004	No	3.123	-0.004	4.0	NoResponse	0	0.322	238.345	2	24	Target	MissedWin	True
239.274	0.46	Win2	0.6	n/a	No	3.123	n/a	n/a	NoResponse	0	n/a	n/a	2	24	Blank	MissedWin	True
239.345	0.3	Win2	0.6	0.004	No	3.123	-0.004	4.0	NoResponse	0	0.322	n/a	2	24	ButtonPress	MissedWin	True
239.725	1.45	Win2	0.6	n/a	No	3.123	n/a	5.0	NoResponse	0	0.007	238.732	2	24	Feedback	MissedWin	True
241.179	3.123	Win2	0.6	n/a	No	3.123	n/a	n/a	NoResponse	0	0.0	n/a	2	24	ISIslide	MissedWin	True
244.322	0.25	Win2	0.6154	0.0	Yes	3.078	0.022	n/a	GoodResponse	1	n/a	n/a	3	25	Cue	Win	True
244.573	4.0	Win2	0.6154	0.0	Yes	3.078	0.001	n/a	GoodResponse	1	n/a	n/a	3	25	Fixation	Win	True
248.568	0.25	Win2	0.6154	0.004	Yes	3.078	-0.004	4.0	GoodResponse	1	0.239	247.807	3	25	Target	Win	True
248.807	0.3	Win2	0.6154	0.004	Yes	3.078	-0.004	4.0	GoodResponse	1	0.239	n/a	3	25	ButtonPress	Win	True
248.819	0.45	Win2	0.6154	n/a	Yes	3.078	n/a	n/a	GoodResponse	1	n/a	n/a	3	25	Blank	Win	True
249.27	1.45	Win2	0.6154	n/a	Yes	3.078	n/a	5.0	GoodResponse	1	0.018	248.288	3	25	Feedback	Win	True
250.724	3.078	Win2	0.6154	n/a	Yes	3.078	n/a	n/a	GoodResponse	1	0.0	n/a	3	25	ISIslide	Win	True
253.817	0.25	Win2	0.5926	0.0	No	2.933	0.017	n/a	NoResponse	0	n/a	n/a	3	26	Cue	MissedWin	True
254.068	3.95	Win2	0.5926	0.0	No	2.933	0.001	n/a	NoResponse	0	n/a	n/a	3	26	Fixation	MissedWin	True
258.013	0.26	Win2	0.5926	0.004	No	2.933	-0.004	4.0	NoResponse	0	0.282	257.295	3	26	Target	MissedWin	True
258.28	0.44	Win2	0.5926	n/a	No	2.933	n/a	n/a	NoResponse	0	n/a	n/a	3	26	Blank	MissedWin	True
258.295	0.3	Win2	0.5926	0.004	No	2.933	-0.004	4.0	NoResponse	0	0.282	n/a	3	26	ButtonPress	MissedWin	True
258.715	1.45	Win2	0.5926	n/a	No	2.933	n/a	5.0	NoResponse	0	0.037	257.752	3	26	Feedback	MissedWin	True
260.169	2.933	Win2	0.5926	n/a	No	2.933	n/a	n/a	NoResponse	0	0.0	n/a	3	26	ISIslide	MissedWin	True
263.128	0.25	Lose2	0.5714	0.0	No	2.822	0.028	n/a	NoResponse	-1	n/a	n/a	2	27	Cue	Loss	True
263.379	4.05	Lose2	0.5714	0.0	No	2.822	0.001	n/a	NoResponse	-1	n/a	n/a	2	27	Fixation	Loss	True
267.424	0.27	Lose2	0.5714	0.004	No	2.822	-0.004	4.0	NoResponse	-1	0.33	266.754	2	27	Target	Loss	True
267.709	0.43	Lose2	0.5714	n/a	No	2.822	n/a	n/a	NoResponse	-1	n/a	n/a	2	27	Blank	Loss	True
267.754	0.3	Lose2	0.5714	0.004	No	2.822	-0.004	4.0	NoResponse	-1	0.33	n/a	2	27	ButtonPress	Loss	True
268.126	1.45	Lose2	0.5714	n/a	No	2.822	n/a	5.0	NoResponse	-1	0.041	267.167	2	27	Feedback	Loss	True
269.581	2.822	Lose2	0.5714	n/a	No	2.822	n/a	n/a	NoResponse	-1	0.0	n/a	2	27	ISIslide	Loss	True
272.423	0.25	Control	0.5517	0.0	No	2.827	0.023	n/a	NoResponse	0	n/a	n/a	2	28	Cue	Neutral	True
272.673	4.05	Control	0.5517	0.0	No	2.827	0.0	n/a	NoResponse	0	n/a	n/a	2	28	Fixation	Neutral	True
276.719	0.28	Control	0.5517	0.004	No	2.827	-0.004	4.0	NoResponse	0	0.322	276.041	2	28	Target	Neutral	True
277.003	0.42	Control	0.5517	n/a	No	2.827	n/a	n/a	NoResponse	0	n/a	n/a	2	28	Blank	Neutral	True
277.041	0.3	Control	0.5517	0.004	No	2.827	-0.004	4.0	NoResponse	0	0.322	n/a	2	28	ButtonPress	Neutral	True
277.421	1.45	Control	0.5517	n/a	No	2.827	n/a	5.0	NoResponse	0	0.014	276.435	2	28	Feedback	Neutral	True
278.875	2.827	Control	0.5517	n/a	No	2.827	n/a	n/a	NoResponse	0	0.0	n/a	2	28	ISIslide	Neutral	True
281.717	0.25	Lose2	0.5667	0.0	Yes	2.833	0.017	n/a	GoodResponse	0	n/a	n/a	2	29	Cue	AvoidedLoss	True
281.968	3.95	Lose2	0.5667	0.0	Yes	2.833	0.001	n/a	GoodResponse	0	n/a	n/a	2	29	Fixation	AvoidedLoss	True
285.913	0.29	Lose2	0.5667	0.004	Yes	2.833	-0.004	4.0	GoodResponse	0	0.28	285.193	2	29	Target	AvoidedLoss	True
286.193	0.3	Lose2	0.5667	0.004	Yes	2.833	-0.004	4.0	GoodResponse	0	0.28	n/a	2	29	ButtonPress	AvoidedLoss	True
286.214	0.41	Lose2	0.5667	n/a	Yes	2.833	n/a	n/a	GoodResponse	0	n/a	n/a	2	29	Blank	AvoidedLoss	True
286.615	1.45	Lose2	0.5667	n/a	Yes	2.833	n/a	5.0	GoodResponse	0	0.039	285.654	2	29	Feedback	AvoidedLoss	True
288.069	2.833	Lose2	0.5667	n/a	Yes	2.833	n/a	n/a	GoodResponse	0	0.0	n/a	2	29	ISIslide	AvoidedLoss	True
290.928	0.25	Win2	0.5484	0.0	No	2.772	0.028	n/a	NoResponse	0	n/a	n/a	2	30	Cue	MissedWin	False
291.179	3.9	Win2	0.5484	0.0	No	2.772	0.001	4.0	NoResponse	0	0.196	290.375	2	30	Fixation	MissedWin	False
291.375	0.3	Win2	0.5484	0.0	No	2.772	0.001	4.0	NoResponse	0	0.196	n/a	2	30	ButtonPress	MissedWin	False
295.074	0.3	Win2	0.5484	0.004	No	2.772	-0.004	4.0	NoResponse	0	0.32	294.394	2	30	Target	MissedWin	False
295.374	0.4	Win2	0.5484	n/a	No	2.772	n/a	n/a	NoResponse	0	n/a	n/a	2	30	Blank	MissedWin	False
295.394	0.3	Win2	0.5484	0.004	No	2.772	-0.004	4.0	NoResponse	0	0.32	n/a	2	30	ButtonPress	MissedWin	False
295.776	1.45	Win2	0.5484	n/a	No	2.772	n/a	5.0	NoResponse	0	0.0	294.776	2	30	Feedback	MissedWin	False
297.23	2.772	Win2	0.5484	n/a	No	2.772	n/a	n/a	NoResponse	0	0.0	n/a	2	30	ISIslide	MissedWin	False
300.022	0.25	Lose2	0.5625	0.0	Yes	2.828	0.022	n/a	GoodResponse	0	n/a	n/a	2	31	Cue	AvoidedLoss	True
300.272	4.05	Lose2	0.5625	0.001	Yes	2.828	0.0	n/a	GoodResponse	0	n/a	n/a	2	31	Fixation	AvoidedLoss	True
304.318	0.31	Lose2	0.5625	0.004	Yes	2.828	-0.004	4.0	GoodResponse	0	0.293	303.611	2	31	Target	AvoidedLoss	True
304.611	0.3	Lose2	0.5625	0.004	Yes	2.828	-0.004	4.0	GoodResponse	0	0.293	n/a	2	31	ButtonPress	AvoidedLoss	True
304.635	0.39	Lose2	0.5625	n/a	Yes	2.828	n/a	n/a	GoodResponse	0	n/a	n/a	2	31	Blank	AvoidedLoss	True
305.02	1.45	Lose2	0.5625	n/a	Yes	2.828	n/a	5.0	GoodResponse	0	0.024	304.044	2	31	Feedback	AvoidedLoss	True
306.474	2.828	Lose2	0.5625	n/a	Yes	2.828	n/a	n/a	GoodResponse	0	0.0	n/a	2	31	ISIslide	AvoidedLoss	True
309.316	0.25	Lose2	0.5455	0.0	No	2.634	0.016	n/a	NoResponse	-1	n/a	n/a	1	32	Cue	Loss	True
309.567	4.15	Lose2	0.5455	0.0	No	2.634	0.001	n/a	NoResponse	-1	n/a	n/a	1	32	Fixation	Loss	True
313.713	0.32	Lose2	0.5455	0.003	No	2.634	-0.003	4.0	NoResponse	-1	0.381	313.094	1	32	Target	Loss	True
314.047	0.38	Lose2	0.5455	n/a	No	2.634	n/a	n/a	NoResponse	-1	n/a	n/a	1	32	Blank	Loss	True
314.094	0.3	Lose2	0.5455	0.003	No	2.634	-0.003	4.0	NoResponse	-1	0.381	n/a	1	32	ButtonPress	Loss	True
314.415	1.45	Lose2	0.5455	n/a	No	2.634	n/a	5.0	NoResponse	-1	0.044	313.459	1	32	Feedback	Loss	True
315.869	2.634	Lose2	0.5455	n/a	No	2.634	n/a	n/a	NoResponse	-1	0.0	n/a	1	32	ISIslide	Loss	True
318.527	0.25	Win2	0.5294	0.0	No	2.673	0.027	n/a	NoResponse	0	n/a	n/a	1	33	Cue	MissedWin	True
318.778	4.0	Win2	0.5294	0.0	No	2.673	0.001	n/a	NoResponse	0	n/a	n/a	1	33	Fixation	MissedWin	True
322.773	0.33	Win2	0.5294	0.004	No	2.673	-0.004	4.0	NoResponse	0	0.436	322.209	1	33	Target	MissedWin	True
323.107	0.37	Win2	0.5294	n/a	No	2.673	n/a	n/a	NoResponse	0	n/a	n/a	1	33	Blank	MissedWin	True
323.209	0.3	Win2	0.5294	0.004	No	2.673	-0.004	4.0	NoResponse	0	0.436	n/a	1	33	ButtonPress	MissedWin	True
323.475	1.45	Win2	0.5294	n/a	No	2.673	n/a	5.0	NoResponse	0	0.007	322.482	1	33	Feedback	MissedWin	True
324.929	2.673	Win2	0.5294	n/a	No	2.673	n/a	n/a	NoResponse	0	0.0	n/a	1	33	ISIslide	MissedWin	True
327.621	0.25	Lose2	0.5143	0.0	No	2.629	0.021	n/a	NoResponse	-1	n/a	n/a	0	34	Cue	Loss	True
327.872	4.05	Lose2	0.5143	0.0	No	2.629	0.001	n/a	NoResponse	-1	n/a	n/a	0	34	Fixation	Loss	True
331.917	0.34	Lose2	0.5143	0.004	No	2.629	-0.004	4.0	NoResponse	-1	0.443	331.36	0	34	Target	Loss	True
332.268	0.36	Lose2	0.5143	n/a	No	2.629	n/a	n/a	NoResponse	-1	n/a	n/a	0	34	Blank	Loss	True
332.36	0.3	Lose2	0.5143	0.004	No	2.629	-0.004	4.0	NoResponse	-1	0.443	n/a	0	34	ButtonPress	Loss	True
332.619	1.45	Lose2	0.5143	n/a	No	2.629	n/a	5.0	NoResponse	-1	0.034	331.653	0	34	Feedback	Loss	True
334.073	2.629	Lose2	0.5143	n/a	No	2.629	n/a	n/a	NoResponse	-1	0.0	n/a	0	34	ISIslide	Loss	True
336.715	0.25	Lose2	0.5278	0.0	Yes	2.685	0.015	n/a	GoodResponse	0	n/a	n/a	0	35	Cue	AvoidedLoss	True
336.965	4.0	Lose2	0.5278	0.0	Yes	2.685	0.0	n/a	GoodResponse	0	n/a	n/a	0	35	Fixation	AvoidedLoss	True
340.961	0.35	Lose2	0.5278	0.004	Yes	2.685	-0.004	4.0	GoodResponse	0	0.272	340.233	0	35	Target	AvoidedLoss	True
341.233	0.3	Lose2	0.5278	0.004	Yes	2.685	-0.004	4.0	GoodResponse	0	0.272	n/a	0	35	ButtonPress	AvoidedLoss	True
341.312	0.35	Lose2	0.5278	n/a	Yes	2.685	n/a	n/a	GoodResponse	0	n/a	n/a	0	35	Blank	AvoidedLoss	True
341.663	1.45	Lose2	0.5278	n/a	Yes	2.685	n/a	5.0	GoodResponse	0	0.015	340.678	0	35	Feedback	AvoidedLoss	True
343.117	2.685	Lose2	0.5278	n/a	Yes	2.685	n/a	n/a	GoodResponse	0	0.0	n/a	0	35	ISIslide	AvoidedLoss	True
345.825	0.25	Control	0.5405	0.0	Yes	2.675	0.025	n/a	GoodResponse	0	n/a	n/a	0	36	Cue	Neutral	True
346.076	4.0	Control	0.5405	0.0	Yes	2.675	0.001	n/a	GoodResponse	0	n/a	n/a	0	36	Fixation	Neutral	True
350.071	0.36	Control	0.5405	0.004	Yes	2.675	-0.004	4.0	GoodResponse	0	0.336	349.407	0	36	Target	Neutral	True
350.407	0.3	Control	0.5405	0.004	Yes	2.675	-0.004	4.0	GoodResponse	0	0.336	n/a	0	36	ButtonPress	Neutral	True
350.439	0.34	Control	0.5405	n/a	Yes	2.675	n/a	n/a	GoodResponse	0	n/a	n/a	0	36	Blank	Neutral	True
350.773	1.45	Control	0.5405	n/a	Yes	2.675	n/a	5.0	GoodResponse	0	0.027	349.8	0	36	Feedback	Neutral	True
352.228	2.675	Control	0.5405	n/a	Yes	2.675	n/a	n/a	GoodResponse	0	0.0	n/a	0	36	ISIslide	Neutral	True
354.919	0.25	Win2	0.5263	0.0	No	2.881	0.019	n/a	NoResponse	0	n/a	n/a	0	37	Cue	MissedWin	True
355.17	4.0	Win2	0.5263	0.0	No	2.881	0.001	n/a	NoResponse	0	n/a	n/a	0	37	Fixation	MissedWin	True
359.165	0.37	Win2	0.5263	0.004	No	2.881	-0.004	4.0	NoResponse	0	0.397	358.562	0	37	Target	MissedWin	True
359.55	0.33	Win2	0.5263	n/a	No	2.881	n/a	n/a	NoResponse	0	n/a	n/a	0	37	Blank	MissedWin	True
359.562	0.3	Win2	0.5263	0.004	No	2.881	-0.004	4.0	NoResponse	0	0.397	n/a	0	37	ButtonPress	MissedWin	True
359.867	1.45	Win2	0.5263	n/a	No	2.881	n/a	5.0	NoResponse	0	0.005	358.872	0	37	Feedback	MissedWin	True
361.321	2.881	Win2	0.5263	n/a	No	2.881	n/a	n/a	NoResponse	0	0.0	n/a	0	37	ISIslide	MissedWin	True
364.213	0.25	Lose2	0.5128	0.001	No	2.837	0.013	n/a	NoResponse	-1	n/a	n/a	-1	38	Cue	Loss	True
364.464	3.95	Lose2	0.5128	0.0	No	2.837	0.001	n/a	NoResponse	-1	n/a	n/a	-1	38	Fixation	Loss	True
368.409	0.38	Lose2	0.5128	0.004	No	2.837	-0.004	4.0	NoResponse	-1	0.484	367.893	-1	38	Target	Loss	True
368.794	0.32	Lose2	0.5128	n/a	No	2.837	n/a	n/a	NoResponse	-1	n/a	n/a	-1	38	Blank	Loss	True
368.893	0.3	Lose2	0.5128	0.004	No	2.837	-0.004	4.0	NoResponse	-1	0.484	n/a	-1	38	ButtonPress	Loss	True
369.111	1.45	Lose2	0.5128	n/a	No	2.837	n/a	5.0	NoResponse	-1	0.029	368.14	-1	38	Feedback	Loss	True
370.566	2.837	Lose2	0.5128	n/a	No	2.837	n/a	n/a	NoResponse	-1	0.0	n/a	-1	38	ISIslide	Loss	True
373.424	0.25	Win2	0.525	0.0	Yes	2.976	0.024	n/a	GoodResponse	1	n/a	n/a	0	39	Cue	Win	True
373.675	4.1	Win2	0.525	0.0	Yes	2.976	0.001	n/a	GoodResponse	1	n/a	n/a	0	39	Fixation	Win	True
377.771	0.39	Win2	0.525	0.003	Yes	2.976	-0.003	4.0	GoodResponse	1	0.242	377.013	0	39	Target	Win	True
378.013	0.3	Win2	0.525	0.003	Yes	2.976	-0.003	4.0	GoodResponse	1	0.242	n/a	0	39	ButtonPress	Win	True
378.172	0.31	Win2	0.525	n/a	Yes	2.976	n/a	n/a	GoodResponse	1	n/a	n/a	0	39	Blank	Win	True
378.473	1.45	Win2	0.525	n/a	Yes	2.976	n/a	5.0	GoodResponse	1	0.033	377.506	0	39	Feedback	Win	True
379.927	2.976	Win2	0.525	n/a	Yes	2.976	n/a	n/a	GoodResponse	1	0.0	n/a	0	39	ISIslide	Win	True
382.919	0.25	Win2	0.5366	0.0	Yes	2.731	0.019	n/a	GoodResponse	1	n/a	n/a	1	40	Cue	Win	True
383.17	3.95	Win2	0.5366	0.0	Yes	2.731	0.001	n/a	GoodResponse	1	n/a	n/a	1	40	Fixation	Win	True
387.115	0.4	Win2	0.5366	0.004	Yes	2.731	-0.004	4.0	GoodResponse	1	0.249	386.364	1	40	Target	Win	True
387.364	0.3	Win2	0.5366	0.004	Yes	2.731	-0.004	4.0	GoodResponse	1	0.249	n/a	1	40	ButtonPress	Win	True
387.516	0.3	Win2	0.5366	n/a	Yes	2.731	n/a	n/a	GoodResponse	1	n/a	n/a	1	40	Blank	Win	True
387.817	1.45	Win2	0.5366	n/a	Yes	2.731	n/a	5.0	GoodResponse	1	0.006	386.823	1	40	Feedback	Win	True
389.272	2.731	Win2	0.5366	n/a	Yes	2.731	n/a	n/a	GoodResponse	1	0.0	n/a	1	40	ISIslide	Win	True
392.03	0.25	Win2	0.5476	0.0	Yes	2.77	0.03	n/a	GoodResponse	1	n/a	n/a	2	41	Cue	Win	True
392.281	3.9	Win2	0.5476	0.0	Yes	2.77	0.001	n/a	GoodResponse	1	n/a	n/a	2	41	Fixation	Win	True
396.176	0.41	Win2	0.5476	0.004	Yes	2.77	-0.004	4.0	GoodResponse	1	0.246	395.422	2	41	Target	Win	True
396.422	0.3	Win2	0.5476	0.004	Yes	2.77	-0.004	4.0	GoodResponse	1	0.246	n/a	2	41	ButtonPress	Win	True
396.593	0.29	Win2	0.5476	n/a	Yes	2.77	n/a	n/a	GoodResponse	1	n/a	n/a	2	41	Blank	Win	True
396.878	1.45	Win2	0.5476	n/a	Yes	2.77	n/a	5.0	GoodResponse	1	0.018	395.896	2	41	Feedback	Win	True
398.332	2.77	Win2	0.5476	n/a	Yes	2.77	n/a	n/a	GoodResponse	1	0.0	n/a	2	41	ISIslide	Win	True
401.124	0.25	Control	0.5581	0.0	Yes	2.926	0.024	n/a	GoodResponse	0	n/a	n/a	2	42	Cue	Neutral	True
401.374	3.85	Control	0.5581	0.0	Yes	2.926	0.0	n/a	GoodResponse	0	n/a	n/a	2	42	Fixation	Neutral	True
405.236	0.42	Control	0.5581	0.0	Yes	2.926	0.012	4.0	GoodResponse	0	0.315	404.551	2	42	Target	Neutral	True
405.551	0.3	Control	0.5581	0.0	Yes	2.926	0.012	4.0	GoodResponse	0	0.315	n/a	2	42	ButtonPress	Neutral	True
405.654	0.28	Control	0.5581	n/a	Yes	2.926	n/a	n/a	GoodResponse	0	n/a	n/a	2	42	Blank	Neutral	True
405.921	1.45	Control	0.5581	n/a	Yes	2.926	n/a	5.0	GoodResponse	0	0.048	404.969	2	42	Feedback	Neutral	True
407.376	2.926	Control	0.5581	n/a	Yes	2.926	n/a	n/a	GoodResponse	0	0.0	n/a	2	42	ISIslide	Neutral	True
410.318	0.25	Win2	0.5682	0.0	Yes	3.182	0.018	n/a	GoodResponse	1	n/a	n/a	3	43	Cue	Win	True
410.569	4.0	Win2	0.5682	0.0	Yes	3.182	0.001	n/a	GoodResponse	1	n/a	n/a	3	43	Fixation	Win	True
414.564	0.43	Win2	0.5682	0.004	Yes	3.182	-0.004	4.0	GoodResponse	1	0.392	413.956	3	43	Target	Win	True
414.956	0.3	Win2	0.5682	0.004	Yes	3.182	-0.004	4.0	GoodResponse	1	0.392	n/a	3	43	ButtonPress	Win	True
414.998	0.27	Win2	0.5682	n/a	Yes	3.182	n/a	n/a	GoodResponse	1	n/a	n/a	3	43	Blank	Win	True
415.266	1.45	Win2	0.5682	n/a	Yes	3.182	n/a	5.0	GoodResponse	1	0.02	414.286	3	43	Feedback	Win	True
416.72	3.182	Win2	0.5682	n/a	Yes	3.182	n/a	n/a	GoodResponse	1	0.0	n/a	3	43	ISIslide	Win	True
419.93	0.25	Win2	0.5778	0.0	Yes	2.97	0.03	n/a	GoodResponse	1	n/a	n/a	4	44	Cue	Win	True
420.181	4.0	Win2	0.5778	0.0	Yes	2.97	0.001	n/a	GoodResponse	1	n/a	n/a	4	44	Fixation	Win	True
424.176	0.44	Win2	0.5778	0.004	Yes	2.97	-0.004	4.0	GoodResponse	1	0.393	423.569	4	44	Target	Win	True
424.569	0.3	Win2	0.5778	0.004	Yes	2.97	-0.004	4.0	GoodResponse	1	0.393	n/a	4	44	ButtonPress	Win	True
424.627	0.26	Win2	0.5778	n/a	Yes	2.97	n/a	n/a	GoodResponse	1	n/a	n/a	4	44	Blank	Win	True
424.878	1.45	Win2	0.5778	n/a	Yes	2.97	n/a	5.0	GoodResponse	1	0.018	423.896	4	44	Feedback	Win	True
426.332	2.97	Win2	0.5778	n/a	Yes	2.97	n/a	n/a	GoodResponse	1	0.0	n/a	4	44	ISIslide	Win	True
429.325	0.25	Control	0.5870000000000001	0.0	Yes	2.875	0.025	n/a	GoodResponse	0	n/a	n/a	4	45	Cue	Neutral	True
429.575	4.1	Control	0.5870000000000001	0.0	Yes	2.875	0.0	n/a	GoodResponse	0	n/a	n/a	4	45	Fixation	Neutral	True
433.671	0.45	Control	0.5870000000000001	0.004	Yes	2.875	-0.004	4.0	GoodResponse	0	0.348	433.019	4	45	Target	Neutral	True
434.019	0.3	Control	0.5870000000000001	0.004	Yes	2.875	-0.004	4.0	GoodResponse	0	0.348	n/a	4	45	ButtonPress	Neutral	True
434.122	0.25	Control	0.5870000000000001	n/a	Yes	2.875	n/a	n/a	GoodResponse	0	n/a	n/a	4	45	Blank	Neutral	True
434.373	1.45	Control	0.5870000000000001	n/a	Yes	2.875	n/a	5.0	GoodResponse	0	0.034	433.407	4	45	Feedback	Neutral	True
435.827	2.875	Control	0.5870000000000001	n/a	Yes	2.875	n/a	n/a	GoodResponse	0	0.0	n/a	4	45	ISIslide	Neutral	True
438.719	0.25	Lose2	0.5957	0.0	Yes	3.381	0.019	n/a	GoodResponse	0	n/a	n/a	4	46	Cue	AvoidedLoss	True
438.97	4.0	Lose2	0.5957	0.0	Yes	3.381	0.001	n/a	GoodResponse	0	n/a	n/a	4	46	Fixation	AvoidedLoss	True
442.965	0.46	Lose2	0.5957	0.004	Yes	3.381	-0.004	4.0	GoodResponse	0	0.287	442.252	4	46	Target	AvoidedLoss	True
443.252	0.3	Lose2	0.5957	0.004	Yes	3.381	-0.004	4.0	GoodResponse	0	0.287	n/a	4	46	ButtonPress	AvoidedLoss	True
443.433	0.24	Lose2	0.5957	n/a	Yes	3.381	n/a	n/a	GoodResponse	0	n/a	n/a	4	46	Blank	AvoidedLoss	True
443.667	1.45	Lose2	0.5957	n/a	Yes	3.381	n/a	5.0	GoodResponse	0	0.009	442.676	4	46	Feedback	AvoidedLoss	True
445.122	3.381	Lose2	0.5957	n/a	Yes	3.381	n/a	n/a	GoodResponse	0	0.0	n/a	4	46	ISIslide	AvoidedLoss	True
448.515	0.25	Lose2	0.5832999999999999	0.0	No	2.685	0.015	n/a	LatePress	-1	n/a	n/a	3	47	Cue	Loss	True
448.766	4.0	Lose2	0.5832999999999999	0.0	No	2.685	0.001	n/a	LatePress	-1	n/a	n/a	3	47	Fixation	Loss	True
452.761	0.47	Lose2	0.5832999999999999	0.004	No	2.685	-0.004	4.0	LatePress	-1	0.484	452.245	3	47	Target	Loss	True
453.245	0.3	Lose2	0.5832999999999999	0.004	No	2.685	-0.004	4.0	LatePress	-1	0.484	n/a	3	47	ButtonPress	Loss	True
453.246	0.23	Lose2	0.5832999999999999	n/a	No	2.685	n/a	n/a	LatePress	-1	n/a	n/a	3	47	Blank	Loss	True
453.463	1.45	Lose2	0.5832999999999999	n/a	No	2.685	n/a	5.0	LatePress	-1	0.018	452.481	3	47	Feedback	Loss	True
454.918	2.685	Lose2	0.5832999999999999	n/a	No	2.685	n/a	n/a	LatePress	-1	0.0	n/a	3	47	ISIslide	Loss	True
457.626	0.25	Lose2	0.5918	0.0	Yes	3.024	0.026	n/a	GoodResponse	0	n/a	n/a	3	48	Cue	AvoidedLoss	True
457.876	3.95	Lose2	0.5918	0.001	Yes	3.024	0.0	n/a	GoodResponse	0	n/a	n/a	3	48	Fixation	AvoidedLoss	True
461.822	0.48	Lose2	0.5918	0.004	Yes	3.024	-0.004	4.0	GoodResponse	0	0.407	461.229	3	48	Target	AvoidedLoss	True
462.229	0.3	Lose2	0.5918	0.004	Yes	3.024	-0.004	4.0	GoodResponse	0	0.407	n/a	3	48	ButtonPress	AvoidedLoss	True
462.306	0.22	Lose2	0.5918	n/a	Yes	3.024	n/a	n/a	GoodResponse	0	n/a	n/a	3	48	Blank	AvoidedLoss	True
462.524	1.45	Lose2	0.5918	n/a	Yes	3.024	n/a	5.0	GoodResponse	0	0.03	461.554	3	48	Feedback	AvoidedLoss	True
463.978	3.024	Lose2	0.5918	n/a	Yes	3.024	n/a	n/a	GoodResponse	0	0.0	n/a	3	48	ISIslide	AvoidedLoss	True
467.02	0.25	Control	0.6	0.001	Yes	2.88	0.02	n/a	GoodResponse	0	n/a	n/a	3	49	Cue	Neutral	True
467.271	4.0	Control	0.6	0.0	Yes	2.88	0.001	n/a	GoodResponse	0	n/a	n/a	3	49	Fixation	Neutral	True
471.266	0.49	Control	0.6	0.004	Yes	2.88	-0.004	4.0	GoodResponse	0	0.248	470.514	3	49	Target	Neutral	True
471.514	0.3	Control	0.6	0.004	Yes	2.88	-0.004	4.0	GoodResponse	0	0.248	n/a	3	49	ButtonPress	Neutral	True
471.768	0.21	Control	0.6	n/a	Yes	2.88	n/a	n/a	GoodResponse	0	n/a	n/a	3	49	Blank	Neutral	True
471.969	1.45	Control	0.6	n/a	Yes	2.88	n/a	5.0	GoodResponse	0	0.047	471.016	3	49	Feedback	Neutral	True
473.423	2.88	Control	0.6	n/a	Yes	2.88	n/a	n/a	GoodResponse	0	0.0	n/a	3	49	ISIslide	Neutral	True
476.315	0.25	Control	0.6078	0.0	Yes	2.785	0.015	n/a	GoodResponse	0	n/a	n/a	3	50	Cue	Neutral	False
476.566	4.0	Control	0.6078	0.0	Yes	2.785	0.001	4.0	GoodResponse	0	2.785	478.351	3	50	Fixation	Neutral	False
479.351	0.3	Control	0.6078	0.0	Yes	2.785	0.001	4.0	GoodResponse	0	2.785	n/a	3	50	ButtonPress	Neutral	False
480.561	0.5	Control	0.6078	0.004	Yes	2.785	-0.004	4.0	GoodResponse	0	0.287	479.848	3	50	Target	Neutral	False
480.848	0.3	Control	0.6078	0.004	Yes	2.785	-0.004	4.0	GoodResponse	0	0.287	n/a	3	50	ButtonPress	Neutral	False
481.062	0.2	Control	0.6078	n/a	Yes	2.785	n/a	n/a	GoodResponse	0	n/a	n/a	3	50	Blank	Neutral	False
481.263	1.45	Control	0.6078	n/a	Yes	2.785	n/a	5.0	GoodResponse	0	0.022	480.285	3	50	Feedback	Neutral	False
482.717	2.785	Control	0.6078	n/a	Yes	2.785	n/a	n/a	GoodResponse	0	0.0	n/a	3	50	ISIslide	Neutral	False
485.526	0.25	Control	0.6154	0.0	Yes	2.724	0.026	n/a	GoodResponse	0	n/a	n/a	3	51	Cue	Neutral	True
485.776	3.95	Control	0.6154	0.001	Yes	2.724	0.0	n/a	GoodResponse	0	n/a	n/a	3	51	Fixation	Neutral	True
489.722	0.5	Control	0.6154	0.004	Yes	2.724	-0.004	4.0	GoodResponse	0	0.4	489.122	3	51	Target	Neutral	True
490.122	0.3	Control	0.6154	0.004	Yes	2.724	-0.004	4.0	GoodResponse	0	0.4	n/a	3	51	ButtonPress	Neutral	True
490.223	0.2	Control	0.6154	n/a	Yes	2.724	n/a	n/a	GoodResponse	0	n/a	n/a	3	51	Blank	Neutral	True
490.424	1.45	Control	0.6154	n/a	Yes	2.724	n/a	5.0	GoodResponse	0	0.032	489.456	3	51	Feedback	Neutral	True
491.878	2.724	Control	0.6154	n/a	Yes	2.724	n/a	n/a	GoodResponse	0	0.0	n/a	3	51	ISIslide	Neutral	True
494.62	0.25	Control	0.6225999999999999	0.0	Yes	2.63	0.02	n/a	GoodResponse	0	n/a	n/a	3	52	Cue	Neutral	True
494.87	4.05	Control	0.6225999999999999	0.0	Yes	2.63	0.0	n/a	GoodResponse	0	n/a	n/a	3	52	Fixation	Neutral	True
498.916	0.5	Control	0.6225999999999999	0.004	Yes	2.63	-0.004	4.0	GoodResponse	0	0.361	498.277	3	52	Target	Neutral	True
499.277	0.3	Control	0.6225999999999999	0.004	Yes	2.63	-0.004	4.0	GoodResponse	0	0.361	n/a	3	52	ButtonPress	Neutral	True
499.417	0.2	Control	0.6225999999999999	n/a	Yes	2.63	n/a	n/a	GoodResponse	0	n/a	n/a	3	52	Blank	Neutral	True
499.618	1.45	Control	0.6225999999999999	n/a	Yes	2.63	n/a	5.0	GoodResponse	0	0.008	498.626	3	52	Feedback	Neutral	True
501.072	2.63	Control	0.6225999999999999	n/a	Yes	2.63	n/a	n/a	GoodResponse	0	0.0	n/a	3	52	ISIslide	Neutral	True
503.713	0.25	Win2	0.6296	0.0	Yes	2.937	0.013	n/a	GoodResponse	1	n/a	n/a	4	53	Cue	Win	True
503.964	4.05	Win2	0.6296	0.0	Yes	2.937	0.001	n/a	GoodResponse	1	n/a	n/a	4	53	Fixation	Win	True
508.01	0.5	Win2	0.6296	0.003	Yes	2.937	-0.003	4.0	GoodResponse	1	0.429	507.439	4	53	Target	Win	True
508.439	0.3	Win2	0.6296	0.003	Yes	2.937	-0.003	4.0	GoodResponse	1	0.429	n/a	4	53	ButtonPress	Win	True
508.511	0.2	Win2	0.6296	n/a	Yes	2.937	n/a	n/a	GoodResponse	1	n/a	n/a	4	53	Blank	Win	True
508.712	1.45	Win2	0.6296	n/a	Yes	2.937	n/a	5.0	GoodResponse	1	0.035	507.747	4	53	Feedback	Win	True
510.166	2.937	Win2	0.6296	n/a	Yes	2.937	n/a	n/a	GoodResponse	1	0.0	n/a	4	53	ISIslide	Win	True
513.125	0.25	Win2	0.6364	0.0	Yes	2.725	0.025	n/a	GoodResponse	1	n/a	n/a	5	54	Cue	Win	True
513.376	3.95	Win2	0.6364	0.0	Yes	2.725	0.001	n/a	GoodResponse	1	n/a	n/a	5	54	Fixation	Win	True
517.321	0.5	Win2	0.6364	0.004	Yes	2.725	-0.004	4.0	GoodResponse	1	0.313	516.634	5	54	Target	Win	True
517.634	0.3	Win2	0.6364	0.004	Yes	2.725	-0.004	4.0	GoodResponse	1	0.313	n/a	5	54	ButtonPress	Win	True
517.822	0.2	Win2	0.6364	n/a	Yes	2.725	n/a	n/a	GoodResponse	1	n/a	n/a	5	54	Blank	Win	True
518.023	1.45	Win2	0.6364	n/a	Yes	2.725	n/a	5.0	GoodResponse	1	0.042	517.065	5	54	Feedback	Win	True
519.477	2.725	Win2	0.6364	n/a	Yes	2.725	n/a	n/a	GoodResponse	1	0.0	n/a	5	54	ISIslide	Win	True
522.219	0.25	Control	0.625	0.0	No	3.031	0.019	n/a	NoResponse	0	n/a	n/a	5	55	Cue	Neutral	True
522.469	3.95	Control	0.625	0.0	No	3.031	0.0	n/a	NoResponse	0	n/a	n/a	5	55	Fixation	Neutral	True
526.414	0.5	Control	0.625	0.005	No	3.031	-0.005	4.0	NoResponse	0	0.581	525.995	5	55	Target	Neutral	True
526.916	0.2	Control	0.625	n/a	No	3.031	n/a	n/a	NoResponse	0	n/a	n/a	5	55	Blank	Neutral	True
526.995	0.3	Control	0.625	0.005	No	3.031	-0.005	4.0	NoResponse	0	0.581	n/a	5	55	ButtonPress	Neutral	True
527.117	1.45	Control	0.625	n/a	No	3.031	n/a	5.0	NoResponse	0	0.021	526.138	5	55	Feedback	Neutral	True
528.571	3.031	Control	0.625	n/a	No	3.031	n/a	n/a	NoResponse	0	0.0	n/a	5	55	ISIslide	Neutral	True
531.613	0.25	Control	0.6315999999999999	0.0	Yes	2.837	0.013	n/a	GoodResponse	0	n/a	n/a	5	56	Cue	Neutral	True
531.864	3.95	Control	0.6315999999999999	0.0	Yes	2.837	0.001	n/a	GoodResponse	0	n/a	n/a	5	56	Fixation	Neutral	True
535.809	0.5	Control	0.6315999999999999	0.004	Yes	2.837	-0.004	4.0	GoodResponse	0	0.309	535.118	5	56	Target	Neutral	True
536.118	0.3	Control	0.6315999999999999	0.004	Yes	2.837	-0.004	4.0	GoodResponse	0	0.309	n/a	5	56	ButtonPress	Neutral	True
536.311	0.2	Control	0.6315999999999999	n/a	Yes	2.837	n/a	n/a	GoodResponse	0	n/a	n/a	5	56	Blank	Neutral	True
536.511	1.45	Control	0.6315999999999999	n/a	Yes	2.837	n/a	5.0	GoodResponse	0	0.042	535.553	5	56	Feedback	Neutral	True
537.966	2.837	Control	0.6315999999999999	n/a	Yes	2.837	n/a	n/a	GoodResponse	0	0.0	n/a	5	56	ISIslide	Neutral	True
540.824	0.25	Control	0.6379	0.0	Yes	3.476	0.024	n/a	GoodResponse	0	n/a	n/a	5	57	Cue	Neutral	True
541.075	4.0	Control	0.6379	0.0	Yes	3.476	0.001	n/a	GoodResponse	0	n/a	n/a	5	57	Fixation	Neutral	True
545.07	0.5	Control	0.6379	0.004	Yes	3.476	-0.004	4.0	GoodResponse	0	0.403	544.473	5	57	Target	Neutral	True
545.473	0.3	Control	0.6379	0.004	Yes	3.476	-0.004	4.0	GoodResponse	0	0.403	n/a	5	57	ButtonPress	Neutral	True
545.572	0.2	Control	0.6379	n/a	Yes	3.476	n/a	n/a	GoodResponse	0	n/a	n/a	5	57	Blank	Neutral	True
545.772	1.45	Control	0.6379	n/a	Yes	3.476	n/a	5.0	GoodResponse	0	0.048	544.82	5	57	Feedback	Neutral	True
547.227	3.476	Control	0.6379	n/a	Yes	3.476	n/a	n/a	GoodResponse	0	0.0	n/a	5	57	ISIslide	Neutral	True
550.72	0.25	Win2	0.6441	0.001	Yes	2.73	0.02	n/a	GoodResponse	1	n/a	n/a	6	58	Cue	Win	True
550.971	4.05	Win2	0.6441	0.0	Yes	2.73	0.001	n/a	GoodResponse	1	n/a	n/a	6	58	Fixation	Win	True
555.017	0.5	Win2	0.6441	0.003	Yes	2.73	-0.003	4.0	GoodResponse	1	0.256	554.273	6	58	Target	Win	True
555.273	0.3	Win2	0.6441	0.003	Yes	2.73	-0.003	4.0	GoodResponse	1	0.256	n/a	6	58	ButtonPress	Win	True
555.518	0.2	Win2	0.6441	n/a	Yes	2.73	n/a	n/a	GoodResponse	1	n/a	n/a	6	58	Blank	Win	True
555.719	1.45	Win2	0.6441	n/a	Yes	2.73	n/a	5.0	GoodResponse	1	0.004	554.723	6	58	Feedback	Win	True
557.173	2.73	Win2	0.6441	n/a	Yes	2.73	n/a	n/a	GoodResponse	1	0.0	n/a	6	58	ISIslide	Win	True
559.915	0.25	Lose2	0.65	0.0	Yes	2.685	0.015	n/a	GoodResponse	0	n/a	n/a	6	59	Cue	AvoidedLoss	True
560.165	4.0	Lose2	0.65	0.0	Yes	2.685	0.0	n/a	GoodResponse	0	n/a	n/a	6	59	Fixation	AvoidedLoss	True
564.161	0.5	Lose2	0.65	0.004	Yes	2.685	-0.004	4.0	GoodResponse	0	0.292	563.453	6	59	Target	AvoidedLoss	True
564.453	0.3	Lose2	0.65	0.004	Yes	2.685	-0.004	4.0	GoodResponse	0	0.292	n/a	6	59	ButtonPress	AvoidedLoss	True
564.662	0.2	Lose2	0.65	n/a	Yes	2.685	n/a	n/a	GoodResponse	0	n/a	n/a	6	59	Blank	AvoidedLoss	True
564.863	1.45	Lose2	0.65	n/a	Yes	2.685	n/a	5.0	GoodResponse	0	0.03	563.893	6	59	Feedback	AvoidedLoss	True
566.317	2.685	Lose2	0.65	n/a	Yes	2.685	n/a	n/a	GoodResponse	0	0.0	n/a	6	59	ISIslide	AvoidedLoss	True
569.025	0.25	Control	0.6557	0.0	Yes	2.675	0.025	n/a	GoodResponse	0	n/a	n/a	6	60	Cue	Neutral	True
569.276	4.0	Control	0.6557	0.0	Yes	2.675	0.001	n/a	GoodResponse	0	n/a	n/a	6	60	Fixation	Neutral	True
573.271	0.5	Control	0.6557	0.004	Yes	2.675	-0.004	4.0	GoodResponse	0	0.479	572.75	6	60	Target	Neutral	True
573.75	0.3	Control	0.6557	0.004	Yes	2.675	-0.004	4.0	GoodResponse	0	0.479	n/a	6	60	ButtonPress	Neutral	True
573.773	0.2	Control	0.6557	n/a	Yes	2.675	n/a	n/a	GoodResponse	0	n/a	n/a	6	60	Blank	Neutral	True
573.973	1.45	Control	0.6557	n/a	Yes	2.675	n/a	5.0	GoodResponse	0	0.042	573.015	6	60	Feedback	Neutral	True
575.428	2.675	Control	0.6557	n/a	Yes	2.675	n/a	n/a	GoodResponse	0	0.0	n/a	6	60	ISIslide	Neutral	True
578.119	0.25	Lose2	0.6613	0.0	Yes	2.981	0.019	n/a	GoodResponse	0	n/a	n/a	6	61	Cue	AvoidedLoss	True
578.37	4.0	Lose2	0.6613	0.0	Yes	2.981	0.001	n/a	GoodResponse	0	n/a	n/a	6	61	Fixation	AvoidedLoss	True
582.365	0.5	Lose2	0.6613	0.004	Yes	2.981	-0.004	4.0	GoodResponse	0	0.33	581.695	6	61	Target	AvoidedLoss	True
582.695	0.3	Lose2	0.6613	0.004	Yes	2.981	-0.004	4.0	GoodResponse	0	0.33	n/a	6	61	ButtonPress	AvoidedLoss	True
582.866	0.2	Lose2	0.6613	n/a	Yes	2.981	n/a	n/a	GoodResponse	0	n/a	n/a	6	61	Blank	AvoidedLoss	True
583.067	1.45	Lose2	0.6613	n/a	Yes	2.981	n/a	5.0	GoodResponse	0	0.022	582.089	6	61	Feedback	AvoidedLoss	True
584.521	2.981	Lose2	0.6613	n/a	Yes	2.981	n/a	n/a	GoodResponse	0	0.0	n/a	6	61	ISIslide	AvoidedLoss	True
587.514	0.25	Lose2	0.6667000000000001	0.0	Yes	2.886	0.014	n/a	GoodResponse	0	n/a	n/a	6	62	Cue	AvoidedLoss	True
587.764	3.9	Lose2	0.6667000000000001	0.0	Yes	2.886	0.0	n/a	GoodResponse	0	n/a	n/a	6	62	Fixation	AvoidedLoss	True
591.676	0.5	Lose2	0.6667000000000001	0.0	Yes	2.886	0.012	4.0	GoodResponse	0	0.414	591.09	6	62	Target	AvoidedLoss	True
592.09	0.3	Lose2	0.6667000000000001	0.0	Yes	2.886	0.012	4.0	GoodResponse	0	0.414	n/a	6	62	ButtonPress	AvoidedLoss	True
592.161	0.2	Lose2	0.6667000000000001	n/a	Yes	2.886	n/a	n/a	GoodResponse	0	n/a	n/a	6	62	Blank	AvoidedLoss	True
592.361	1.45	Lose2	0.6667000000000001	n/a	Yes	2.886	n/a	5.0	GoodResponse	0	0.044	591.405	6	62	Feedback	AvoidedLoss	True
593.816	2.886	Lose2	0.6667000000000001	n/a	Yes	2.886	n/a	n/a	GoodResponse	0	0.0	n/a	6	62	ISIslide	AvoidedLoss	True
596.724	0.25	Lose2	0.6718999999999999	0.001	Yes	2.626	0.024	n/a	GoodResponse	0	n/a	n/a	6	63	Cue	AvoidedLoss	True
596.975	4.05	Lose2	0.6718999999999999	0.0	Yes	2.626	0.001	n/a	GoodResponse	0	n/a	n/a	6	63	Fixation	AvoidedLoss	True
601.021	0.49	Lose2	0.6718999999999999	0.003	Yes	2.626	-0.003	4.0	GoodResponse	0	0.324	600.345	6	63	Target	AvoidedLoss	True
601.345	0.3	Lose2	0.6718999999999999	0.003	Yes	2.626	-0.003	4.0	GoodResponse	0	0.324	n/a	6	63	ButtonPress	AvoidedLoss	True
601.522	0.21	Lose2	0.6718999999999999	n/a	Yes	2.626	n/a	n/a	GoodResponse	0	n/a	n/a	6	63	Blank	AvoidedLoss	True
601.723	1.45	Lose2	0.6718999999999999	n/a	Yes	2.626	n/a	5.0	GoodResponse	0	0.048	600.771	6	63	Feedback	AvoidedLoss	True
603.177	2.626	Lose2	0.6718999999999999	n/a	Yes	2.626	n/a	n/a	GoodResponse	0	0.0	n/a	6	63	ISIslide	AvoidedLoss	True
605.818	0.25	Win2	0.6769	0.0	Yes	3.132	0.018	n/a	GoodResponse	1	n/a	n/a	7	64	Cue	Win	True
606.069	4.15	Win2	0.6769	0.0	Yes	3.132	0.001	n/a	GoodResponse	1	n/a	n/a	7	64	Fixation	Win	True
610.215	0.48	Win2	0.6769	0.003	Yes	3.132	-0.003	4.0	GoodResponse	1	0.37	609.585	7	64	Target	Win	True
610.585	0.3	Win2	0.6769	0.003	Yes	3.132	-0.003	4.0	GoodResponse	1	0.37	n/a	7	64	ButtonPress	Win	True
610.7	0.22	Win2	0.6769	n/a	Yes	3.132	n/a	n/a	GoodResponse	1	n/a	n/a	7	64	Blank	Win	True
610.917	1.45	Win2	0.6769	n/a	Yes	3.132	n/a	5.0	GoodResponse	1	0.025	609.942	7	64	Feedback	Win	True
612.371	3.132	Win2	0.6769	n/a	Yes	3.132	n/a	n/a	GoodResponse	1	0.0	n/a	7	64	ISIslide	Win	True
615.514	0.25	Control	0.6818000000000001	0.0	Yes	2.786	0.014	n/a	GoodResponse	0	n/a	n/a	7	65	Cue	Neutral	True
615.765	4.0	Control	0.6818000000000001	0.0	Yes	2.786	0.001	n/a	GoodResponse	0	n/a	n/a	7	65	Fixation	Neutral	True
619.76	0.47	Control	0.6818000000000001	0.004	Yes	2.786	-0.004	4.0	GoodResponse	0	0.39	619.15	7	65	Target	Neutral	True
620.15	0.3	Control	0.6818000000000001	0.004	Yes	2.786	-0.004	4.0	GoodResponse	0	0.39	n/a	7	65	ButtonPress	Neutral	True
620.245	0.23	Control	0.6818000000000001	n/a	Yes	2.786	n/a	n/a	GoodResponse	0	n/a	n/a	7	65	Blank	Neutral	True
620.462	1.45	Control	0.6818000000000001	n/a	Yes	2.786	n/a	5.0	GoodResponse	0	0.04	619.502	7	65	Feedback	Neutral	True
621.916	2.786	Control	0.6818000000000001	n/a	Yes	2.786	n/a	n/a	GoodResponse	0	0.0	n/a	7	65	ISIslide	Neutral	True
624.725	0.25	Win2	0.6866	0.0	Yes	2.775	0.025	n/a	GoodResponse	1	n/a	n/a	8	66	Cue	Win	True
624.976	3.9	Win2	0.6866	0.0	Yes	2.775	0.001	n/a	GoodResponse	1	n/a	n/a	8	66	Fixation	Win	True
628.87	0.46	Win2	0.6866	0.005	Yes	2.775	-0.005	4.0	GoodResponse	1	0.367	628.237	8	66	Target	Win	True
629.237	0.3	Win2	0.6866	0.005	Yes	2.775	-0.005	4.0	GoodResponse	1	0.367	n/a	8	66	ButtonPress	Win	True
629.339	0.24	Win2	0.6866	n/a	Yes	2.775	n/a	n/a	GoodResponse	1	n/a	n/a	8	66	Blank	Win	True
629.573	1.45	Win2	0.6866	n/a	Yes	2.775	n/a	5.0	GoodResponse	1	0.004	628.577	8	66	Feedback	Win	True
631.027	2.775	Win2	0.6866	n/a	Yes	2.775	n/a	n/a	GoodResponse	1	0.0	n/a	8	66	ISIslide	Win	True
633.819	0.25	Control	0.6765000000000001	0.0	No	2.731	0.019	n/a	NoResponse	0	n/a	n/a	8	67	Cue	Neutral	True
634.069	3.95	Control	0.6765000000000001	0.0	No	2.731	0.0	n/a	NoResponse	0	n/a	n/a	8	67	Fixation	Neutral	True
638.014	0.45	Control	0.6765000000000001	0.005	No	2.731	-0.005	4.0	NoResponse	0	0.623	637.637	8	67	Target	Neutral	True
638.466	0.25	Control	0.6765000000000001	n/a	No	2.731	n/a	n/a	NoResponse	0	n/a	n/a	8	67	Blank	Neutral	True
638.637	0.3	Control	0.6765000000000001	0.005	No	2.731	-0.005	4.0	NoResponse	0	0.623	n/a	8	67	ButtonPress	Neutral	True
638.717	1.45	Control	0.6765000000000001	n/a	No	2.731	n/a	5.0	NoResponse	0	0.029	637.746	8	67	Feedback	Neutral	True
640.171	2.731	Control	0.6765000000000001	n/a	No	2.731	n/a	n/a	NoResponse	0	0.0	n/a	8	67	ISIslide	Neutral	True
642.929	0.25	Win2	0.6812	0.0	Yes	3.071	0.029	n/a	GoodResponse	1	n/a	n/a	9	68	Cue	Win	True
643.18	4.0	Win2	0.6812	0.0	Yes	3.071	0.001	n/a	GoodResponse	1	n/a	n/a	9	68	Fixation	Win	True
647.175	0.44	Win2	0.6812	0.004	Yes	3.071	-0.004	4.0	GoodResponse	1	0.27	646.445	9	68	Target	Win	True
647.445	0.3	Win2	0.6812	0.004	Yes	3.071	-0.004	4.0	GoodResponse	1	0.27	n/a	9	68	ButtonPress	Win	True
647.627	0.26	Win2	0.6812	n/a	Yes	3.071	n/a	n/a	GoodResponse	1	n/a	n/a	9	68	Blank	Win	True
647.877	1.45	Win2	0.6812	n/a	Yes	3.071	n/a	5.0	GoodResponse	1	0.04	646.917	9	68	Feedback	Win	True
649.332	3.071	Win2	0.6812	n/a	Yes	3.071	n/a	n/a	GoodResponse	1	0.0	n/a	9	68	ISIslide	Win	True
652.424	0.25	Win2	0.6857	0.0	Yes	3.226	0.024	n/a	GoodResponse	1	n/a	n/a	10	69	Cue	Win	True
652.675	3.95	Win2	0.6857	0.0	Yes	3.226	0.001	n/a	GoodResponse	1	n/a	n/a	10	69	Fixation	Win	True
656.62	0.43	Win2	0.6857	0.004	Yes	3.226	-0.004	4.0	GoodResponse	1	0.3	655.92	10	69	Target	Win	True
656.92	0.3	Win2	0.6857	0.004	Yes	3.226	-0.004	4.0	GoodResponse	1	0.3	n/a	10	69	ButtonPress	Win	True
657.055	0.27	Win2	0.6857	n/a	Yes	3.226	n/a	n/a	GoodResponse	1	n/a	n/a	10	69	Blank	Win	True
657.322	1.45	Win2	0.6857	n/a	Yes	3.226	n/a	5.0	GoodResponse	1	0.009	656.331	10	69	Feedback	Win	True
658.776	3.226	Win2	0.6857	n/a	Yes	3.226	n/a	n/a	GoodResponse	1	0.0	n/a	10	69	ISIslide	Win	True
662.019	0.25	Lose2	0.6901	0.001	Yes	3.031	0.019	n/a	GoodResponse	0	n/a	n/a	10	70	Cue	AvoidedLoss	True
662.27	4.05	Lose2	0.6901	0.0	Yes	3.031	0.001	n/a	GoodResponse	0	n/a	n/a	10	70	Fixation	AvoidedLoss	True
666.316	0.42	Lose2	0.6901	0.003	Yes	3.031	-0.003	4.0	GoodResponse	0	0.38	665.696	10	70	Target	AvoidedLoss	True
666.696	0.3	Lose2	0.6901	0.003	Yes	3.031	-0.003	4.0	GoodResponse	0	0.38	n/a	10	70	ButtonPress	AvoidedLoss	True
666.75	0.28	Lose2	0.6901	n/a	Yes	3.031	n/a	n/a	GoodResponse	0	n/a	n/a	10	70	Blank	AvoidedLoss	True
667.018	1.45	Lose2	0.6901	n/a	Yes	3.031	n/a	5.0	GoodResponse	0	0.02	666.038	10	70	Feedback	AvoidedLoss	True
668.472	3.031	Lose2	0.6901	n/a	Yes	3.031	n/a	n/a	GoodResponse	0	0.0	n/a	10	70	ISIslide	AvoidedLoss	True
671.515	0.25	Win2	0.6944	0.0	Yes	2.735	0.015	n/a	GoodResponse	1	n/a	n/a	11	71	Cue	Win	True
671.765	4.05	Win2	0.6944	0.0	Yes	2.735	0.0	n/a	GoodResponse	1	n/a	n/a	11	71	Fixation	Win	True
675.811	0.41	Win2	0.6944	0.004	Yes	2.735	-0.004	4.0	GoodResponse	1	0.308	675.119	11	71	Target	Win	True
676.119	0.3	Win2	0.6944	0.004	Yes	2.735	-0.004	4.0	GoodResponse	1	0.308	n/a	11	71	ButtonPress	Win	True
676.229	0.29	Win2	0.6944	n/a	Yes	2.735	n/a	n/a	GoodResponse	1	n/a	n/a	11	71	Blank	Win	True
676.513	1.45	Win2	0.6944	n/a	Yes	2.735	n/a	5.0	GoodResponse	1	0.037	675.55	11	71	Feedback	Win	True
677.967	2.735	Win2	0.6944	n/a	Yes	2.735	n/a	n/a	GoodResponse	1	0.0	n/a	11	71	ISIslide	Win	True
680.725	0.25	Win2	0.6986	0.0	Yes	2.775	0.025	n/a	GoodResponse	1	n/a	n/a	12	72	Cue	Win	True
680.976	4.1	Win2	0.6986	0.0	Yes	2.775	0.001	n/a	GoodResponse	1	n/a	n/a	12	72	Fixation	Win	True
685.072	0.4	Win2	0.6986	0.003	Yes	2.775	-0.003	4.0	GoodResponse	1	0.314	684.386	12	72	Target	Win	True
685.386	0.3	Win2	0.6986	0.003	Yes	2.775	-0.003	4.0	GoodResponse	1	0.314	n/a	12	72	ButtonPress	Win	True
685.473	0.3	Win2	0.6986	n/a	Yes	2.775	n/a	n/a	GoodResponse	1	n/a	n/a	12	72	Blank	Win	True
685.774	1.45	Win2	0.6986	n/a	Yes	2.775	n/a	5.0	GoodResponse	1	0.044	684.818	12	72	Feedback	Win	True
687.228	2.775	Win2	0.6986	n/a	Yes	2.775	n/a	n/a	GoodResponse	1	0.0	n/a	12	72	ISIslide	Win	True
690.02	0.25	Win2	0.7027	0.0	Yes	2.68	0.02	n/a	GoodResponse	1	n/a	n/a	13	73	Cue	Win	True
690.271	4.0	Win2	0.7027	0.0	Yes	2.68	0.001	n/a	GoodResponse	1	n/a	n/a	13	73	Fixation	Win	True
694.266	0.39	Win2	0.7027	0.004	Yes	2.68	-0.004	4.0	GoodResponse	1	0.388	693.654	13	73	Target	Win	True
694.654	0.3	Win2	0.7027	0.004	Yes	2.68	-0.004	4.0	GoodResponse	1	0.388	n/a	13	73	ButtonPress	Win	True
694.667	0.31	Win2	0.7027	n/a	Yes	2.68	n/a	n/a	GoodResponse	1	n/a	n/a	13	73	Blank	Win	True
694.968	1.45	Win2	0.7027	n/a	Yes	2.68	n/a	5.0	GoodResponse	1	0.021	693.989	13	73	Feedback	Win	True
696.422	2.68	Win2	0.7027	n/a	Yes	2.68	n/a	n/a	GoodResponse	1	0.0	n/a	13	73	ISIslide	Win	True
699.114	0.25	Lose2	0.6933	0.0	No	2.636	0.014	n/a	NoResponse	-1	n/a	n/a	12	74	Cue	Loss	True
699.364	4.05	Lose2	0.6933	0.0	No	2.636	0.0	n/a	NoResponse	-1	n/a	n/a	12	74	Fixation	Loss	True
703.41	0.38	Lose2	0.6933	0.004	No	2.636	-0.004	4.0	NoResponse	-1	0.488	702.898	12	74	Target	Loss	True
703.794	0.32	Lose2	0.6933	n/a	No	2.636	n/a	n/a	NoResponse	-1	n/a	n/a	12	74	Blank	Loss	True
703.898	0.3	Lose2	0.6933	0.004	No	2.636	-0.004	4.0	NoResponse	-1	0.488	n/a	12	74	ButtonPress	Loss	True
704.112	1.45	Lose2	0.6933	n/a	No	2.636	n/a	5.0	NoResponse	-1	0.047	703.159	12	74	Feedback	Loss	True
705.566	2.636	Lose2	0.6933	n/a	No	2.636	n/a	n/a	NoResponse	-1	0.0	n/a	12	74	ISIslide	Loss	True
708.224	0.25	Lose2	0.6973999999999999	0.0	Yes	2.926	0.024	n/a	GoodResponse	0	n/a	n/a	12	75	Cue	AvoidedLoss	True
708.475	3.95	Lose2	0.6973999999999999	0.0	Yes	2.926	0.001	n/a	GoodResponse	0	n/a	n/a	12	75	Fixation	AvoidedLoss	True
712.42	0.37	Lose2	0.6973999999999999	0.004	Yes	2.926	-0.004	4.0	GoodResponse	0	0.263	711.683	12	75	Target	AvoidedLoss	True
712.683	0.3	Lose2	0.6973999999999999	0.004	Yes	2.926	-0.004	4.0	GoodResponse	0	0.263	n/a	12	75	ButtonPress	AvoidedLoss	True
712.804	0.33	Lose2	0.6973999999999999	n/a	Yes	2.926	n/a	n/a	GoodResponse	0	n/a	n/a	12	75	Blank	AvoidedLoss	True
713.122	1.45	Lose2	0.6973999999999999	n/a	Yes	2.926	n/a	5.0	GoodResponse	0	0.013	712.135	12	75	Feedback	AvoidedLoss	True
714.576	2.926	Lose2	0.6973999999999999	n/a	Yes	2.926	n/a	n/a	GoodResponse	0	0.0	n/a	12	75	ISIslide	AvoidedLoss	True
717.519	0.25	Control	0.7012999999999999	0.0	Yes	3.231	0.019	n/a	GoodResponse	0	n/a	n/a	12	76	Cue	Neutral	True
717.769	4.05	Control	0.7012999999999999	0.0	Yes	3.231	0.0	n/a	GoodResponse	0	n/a	n/a	12	76	Fixation	Neutral	True
721.815	0.36	Control	0.7012999999999999	0.004	Yes	3.231	-0.004	4.0	GoodResponse	0	0.332	721.147	12	76	Target	Neutral	True
722.147	0.3	Control	0.7012999999999999	0.004	Yes	3.231	-0.004	4.0	GoodResponse	0	0.332	n/a	12	76	ButtonPress	Neutral	True
722.183	0.34	Control	0.7012999999999999	n/a	Yes	3.231	n/a	n/a	GoodResponse	0	n/a	n/a	12	76	Blank	Neutral	True
722.517	1.45	Control	0.7012999999999999	n/a	Yes	3.231	n/a	5.0	GoodResponse	0	0.032	721.549	12	76	Feedback	Neutral	True
723.971	3.231	Control	0.7012999999999999	n/a	Yes	3.231	n/a	n/a	GoodResponse	0	0.0	n/a	12	76	ISIslide	Neutral	True
727.214	0.25	Lose2	0.6923	0.0	No	2.586	0.014	n/a	NoResponse	-1	n/a	n/a	11	77	Cue	Loss	True
727.465	3.95	Lose2	0.6923	0.0	No	2.586	0.001	n/a	NoResponse	-1	n/a	n/a	11	77	Fixation	Loss	True
731.41	0.35	Lose2	0.6923	0.004	No	2.586	-0.004	4.0	NoResponse	-1	0.382	730.792	11	77	Target	Loss	True
731.761	0.35	Lose2	0.6923	n/a	No	2.586	n/a	n/a	NoResponse	-1	n/a	n/a	11	77	Blank	Loss	True
731.792	0.3	Lose2	0.6923	0.004	No	2.586	-0.004	4.0	NoResponse	-1	0.382	n/a	11	77	ButtonPress	Loss	True
732.112	1.45	Lose2	0.6923	n/a	No	2.586	n/a	5.0	NoResponse	-1	0.046	731.158	11	77	Feedback	Loss	True
733.566	2.586	Lose2	0.6923	n/a	No	2.586	n/a	n/a	NoResponse	-1	0.0	n/a	11	77	ISIslide	Loss	True
