onset	duration	cue_type	current_mean_accuracy	duration_error	is_hit	isi_adjusted	onset_delay	response	response_type	reward	rt	rt_time	total_reward	trial_number	trial_phase	trial_type	one_press
11.107	0.25	Control	1.0	0.0	Yes	2.943	0.007	n/a	GoodResponse	0	n/a	n/a	0	0	Cue	Neutral	True
11.357	3.85	Control	1.0	0.0	Yes	2.943	0.0	n/a	GoodResponse	0	n/a	n/a	0	0	Fixation	Neutral	True
15.205	0.4	Control	1.0	0.002	Yes	2.943	-0.002	4.0	GoodResponse	0	0.234	14.439	0	0	Target	Neutral	True
15.439	0.3	Control	1.0	0.002	Yes	2.943	-0.002	4.0	GoodResponse	0	0.234	n/a	0	0	ButtonPress	Neutral	True
15.605	0.3	Control	1.0	n/a	Yes	2.943	n/a	n/a	GoodResponse	0	n/a	n/a	0	0	Blank	Neutral	True
15.905	1.45	Control	1.0	n/a	Yes	2.943	n/a	5.0	GoodResponse	0	0.022	14.927	0	0	Feedback	Neutral	True
17.355	2.943	Control	1.0	n/a	Yes	2.943	n/a	n/a	GoodResponse	0	0.0	n/a	0	0	ISIslide	Neutral	True
20.32	0.25	Lose2	1.0	0.0	Yes	2.78	0.02	n/a	GoodResponse	0	n/a	n/a	0	1	Cue	AvoidedLoss	True
20.57	4.0	Lose2	1.0	0.0	Yes	2.78	0.0	n/a	GoodResponse	0	n/a	n/a	0	1	Fixation	AvoidedLoss	True
24.569	0.39	Lose2	1.0	0.001	Yes	2.78	-0.001	4.0	GoodResponse	0	0.204	23.773	0	1	Target	AvoidedLoss	True
24.773	0.3	Lose2	1.0	0.001	Yes	2.78	-0.001	4.0	GoodResponse	0	0.204	n/a	0	1	ButtonPress	AvoidedLoss	True
24.969	0.31	Lose2	1.0	n/a	Yes	2.78	n/a	n/a	GoodResponse	0	n/a	n/a	0	1	Blank	AvoidedLoss	True
25.269	1.45	Lose2	1.0	n/a	Yes	2.78	n/a	5.0	GoodResponse	0	0.023	24.292	0	1	Feedback	AvoidedLoss	True
26.718	2.78	Lose2	1.0	n/a	Yes	2.78	n/a	n/a	GoodResponse	0	0.0	n/a	0	1	ISIslide	AvoidedLoss	True
29.517	0.25	Control	1.0	0.0	Yes	2.583	0.017	n/a	GoodResponse	0	n/a	n/a	0	2	Cue	Neutral	True
29.767	4.1	Control	1.0	0.0	Yes	2.583	0.0	n/a	GoodResponse	0	n/a	n/a	0	2	Fixation	Neutral	True
33.866	0.38	Control	1.0	0.001	Yes	2.583	-0.001	4.0	GoodResponse	0	0.205	33.071	0	2	Target	Neutral	True
34.071	0.3	Control	1.0	0.001	Yes	2.583	-0.001	4.0	GoodResponse	0	0.205	n/a	0	2	ButtonPress	Neutral	True
34.249	0.32	Control	1.0	n/a	Yes	2.583	n/a	n/a	GoodResponse	0	n/a	n/a	0	2	Blank	Neutral	True
34.565	1.45	Control	1.0	n/a	Yes	2.583	n/a	5.0	GoodResponse	0	0.044	33.609	0	2	Feedback	Neutral	True
36.015	2.583	Control	1.0	n/a	Yes	2.583	n/a	n/a	GoodResponse	0	0.0	n/a	0	2	ISIslide	Neutral	True
38.614	0.25	Win2	1.0	0.0	Yes	2.836	0.014	n/a	GoodResponse	1	n/a	n/a	1	3	Cue	Win	True
38.864	3.95	Win2	1.0	0.0	Yes	2.836	0.0	n/a	GoodResponse	1	n/a	n/a	1	3	Fixation	Win	True
42.813	0.37	Win2	1.0	0.001	Yes	2.836	-0.001	4.0	GoodResponse	1	0.248	42.061	1	3	Target	Win	True
43.061	0.3	Win2	1.0	0.001	Yes	2.836	-0.001	4.0	GoodResponse	1	0.248	n/a	1	3	ButtonPress	Win	True
43.196	0.33	Win2	1.0	n/a	Yes	2.836	n/a	n/a	GoodResponse	1	n/a	n/a	1	3	Blank	Win	True
43.512	1.45	Win2	1.0	n/a	Yes	2.836	n/a	5.0	GoodResponse	1	0.024	42.536	1	3	Feedback	Win	True
44.962	2.836	Win2	1.0	n/a	Yes	2.836	n/a	n/a	GoodResponse	1	0.0	n/a	1	3	ISIslide	Win	True
47.827	0.25	Win2	1.0	0.001	Yes	3.273	0.027	n/a	GoodResponse	1	n/a	n/a	2	4	Cue	Win	True
48.077	4.0	Win2	1.0	0.0	Yes	3.273	0.0	n/a	GoodResponse	1	n/a	n/a	2	4	Fixation	Win	True
52.076	0.36	Win2	1.0	0.001	Yes	3.273	-0.001	4.0	GoodResponse	1	0.209	51.285	2	4	Target	Win	True
52.285	0.3	Win2	1.0	0.001	Yes	3.273	-0.001	4.0	GoodResponse	1	0.209	n/a	2	4	ButtonPress	Win	True
52.443	0.34	Win2	1.0	n/a	Yes	3.273	n/a	n/a	GoodResponse	1	n/a	n/a	2	4	Blank	Win	True
52.776	1.45	Win2	1.0	n/a	Yes	3.273	n/a	5.0	GoodResponse	1	0.028	51.804	2	4	Feedback	Win	True
54.225	3.273	Win2	1.0	n/a	Yes	3.273	n/a	n/a	GoodResponse	1	0.0	n/a	2	4	ISIslide	Win	True
57.524	0.25	Win2	1.0	0.0	Yes	2.776	0.024	n/a	GoodResponse	1	n/a	n/a	3	5	Cue	Win	True
57.774	4.0	Win2	1.0	0.0	Yes	2.776	0.0	n/a	GoodResponse	1	n/a	n/a	3	5	Fixation	Win	True
61.773	0.35	Win2	1.0	0.001	Yes	2.776	-0.001	4.0	GoodResponse	1	0.257	61.03	3	5	Target	Win	True
62.03	0.3	Win2	1.0	0.001	Yes	2.776	-0.001	4.0	GoodResponse	1	0.257	n/a	3	5	ButtonPress	Win	True
62.122	0.35	Win2	1.0	n/a	Yes	2.776	n/a	n/a	GoodResponse	1	n/a	n/a	3	5	Blank	Win	True
62.472	1.45	Win2	1.0	n/a	Yes	2.776	n/a	5.0	GoodResponse	1	0.04	61.512	3	5	Feedback	Win	True
63.922	2.776	Win2	1.0	n/a	Yes	2.776	n/a	n/a	GoodResponse	1	0.0	n/a	3	5	ISIslide	Win	True
66.721	0.25	Lose2	1.0	0.0	Yes	2.729	0.021	n/a	GoodResponse	0	n/a	n/a	3	6	Cue	AvoidedLoss	True
66.971	3.95	Lose2	1.0	0.0	Yes	2.729	0.0	n/a	GoodResponse	0	n/a	n/a	3	6	Fixation	AvoidedLoss	True
70.919	0.34	Lose2	1.0	0.002	Yes	2.729	-0.002	4.0	GoodResponse	0	0.199	70.118	3	6	Target	AvoidedLoss	True
71.118	0.3	Lose2	1.0	0.002	Yes	2.729	-0.002	4.0	GoodResponse	0	0.199	n/a	3	6	ButtonPress	AvoidedLoss	True
71.269	0.36	Lose2	1.0	n/a	Yes	2.729	n/a	n/a	GoodResponse	0	n/a	n/a	3	6	Blank	AvoidedLoss	True
71.619	1.45	Lose2	1.0	n/a	Yes	2.729	n/a	5.0	GoodResponse	0	0.015	70.634	3	6	Feedback	AvoidedLoss	True
73.069	2.729	Lose2	1.0	n/a	Yes	2.729	n/a	n/a	GoodResponse	0	0.0	n/a	3	6	ISIslide	AvoidedLoss	True
75.818	0.25	Lose2	1.0	0.0	Yes	4.032	0.018	n/a	GoodResponse	0	n/a	n/a	3	7	Cue	AvoidedLoss	True
76.068	4.05	Lose2	1.0	0.0	Yes	4.032	0.0	n/a	GoodResponse	0	n/a	n/a	3	7	Fixation	AvoidedLoss	True
80.116	0.33	Lose2	1.0	0.002	Yes	4.032	-0.002	4.0	GoodResponse	0	0.194	79.31	3	7	Target	AvoidedLoss	True
80.31	0.3	Lose2	1.0	0.002	Yes	4.032	-0.002	4.0	GoodResponse	0	0.194	n/a	3	7	ButtonPress	AvoidedLoss	True
80.45	0.37	Lose2	1.0	n/a	Yes	4.032	n/a	n/a	GoodResponse	0	n/a	n/a	3	7	Blank	AvoidedLoss	True
80.816	1.45	Lose2	1.0	n/a	Yes	4.032	n/a	5.0	GoodResponse	0	0.036	79.852	3	7	Feedback	AvoidedLoss	True
82.266	4.032	Lose2	1.0	n/a	Yes	4.032	n/a	n/a	GoodResponse	0	0.0	n/a	3	7	ISIslide	AvoidedLoss	True
86.314	0.25	Lose2	1.0	0.0	Yes	3.036	0.014	n/a	GoodResponse	0	n/a	n/a	3	8	Cue	AvoidedLoss	True
86.564	3.95	Lose2	1.0	0.0	Yes	3.036	0.0	n/a	GoodResponse	0	n/a	n/a	3	8	Fixation	AvoidedLoss	True
90.513	0.32	Lose2	1.0	0.001	Yes	3.036	-0.001	4.0	GoodResponse	0	0.193	89.706	3	8	Target	AvoidedLoss	True
90.706	0.3	Lose2	1.0	0.001	Yes	3.036	-0.001	4.0	GoodResponse	0	0.193	n/a	3	8	ButtonPress	AvoidedLoss	True
90.846	0.38	Lose2	1.0	n/a	Yes	3.036	n/a	n/a	GoodResponse	0	n/a	n/a	3	8	Blank	AvoidedLoss	True
91.212	1.45	Lose2	1.0	n/a	Yes	3.036	n/a	5.0	GoodResponse	0	0.031	90.243	3	8	Feedback	AvoidedLoss	True
92.662	3.036	Lose2	1.0	n/a	Yes	3.036	n/a	n/a	GoodResponse	0	0.0	n/a	3	8	ISIslide	AvoidedLoss	True
95.728	0.25	Lose2	1.0	0.0	Yes	3.122	0.028	n/a	GoodResponse	0	n/a	n/a	3	9	Cue	AvoidedLoss	True
95.977	3.95	Lose2	1.0	0.001	Yes	3.122	-0.001	n/a	GoodResponse	0	n/a	n/a	3	9	Fixation	AvoidedLoss	True
99.926	0.31	Lose2	1.0	0.002	Yes	3.122	-0.002	4.0	GoodResponse	0	0.206	99.132	3	9	Target	AvoidedLoss	True
100.132	0.3	Lose2	1.0	0.002	Yes	3.122	-0.002	4.0	GoodResponse	0	0.206	n/a	3	9	ButtonPress	AvoidedLoss	True
100.243	0.39	Lose2	1.0	n/a	Yes	3.122	n/a	n/a	GoodResponse	0	n/a	n/a	3	9	Blank	AvoidedLoss	True
100.626	1.45	Lose2	1.0	n/a	Yes	3.122	n/a	5.0	GoodResponse	0	0.032	99.658	3	9	Feedback	AvoidedLoss	True
102.075	3.122	Lose2	1.0	n/a	Yes	3.122	n/a	n/a	GoodResponse	0	0.0	n/a	3	9	ISIslide	AvoidedLoss	True
105.224	0.25	Control	1.0	0.0	Yes	3.276	0.024	n/a	GoodResponse	0	n/a	n/a	3	10	Cue	Neutral	True
105.474	4.0	Control	1.0	0.0	Yes	3.276	0.0	n/a	GoodResponse	0	n/a	n/a	3	10	Fixation	Neutral	True
109.473	0.3	Control	1.0	0.001	Yes	3.276	-0.001	4.0	GoodResponse	0	0.201	108.674	3	10	Target	Neutral	True
109.674	0.3	Control	1.0	0.001	Yes	3.276	-0.001	4.0	GoodResponse	0	0.201	n/a	3	10	ButtonPress	Neutral	True
109.773	0.4	Control	1.0	n/a	Yes	3.276	n/a	n/a	GoodResponse	0	n/a	n/a	3	10	Blank	Neutral	True
110.173	1.45	Control	1.0	n/a	Yes	3.276	n/a	5.0	GoodResponse	0	0.046	109.219	3	10	Feedback	Neutral	True
111.622	3.276	Control	1.0	n/a	Yes	3.276	n/a	n/a	GoodResponse	0	0.0	n/a	3	10	ISIslide	Neutral	True
114.921	0.25	Lose2	1.0	0.0	Yes	2.729	0.021	n/a	GoodResponse	0	n/a	n/a	3	11	Cue	AvoidedLoss	True
115.171	4.05	Lose2	1.0	0.0	Yes	2.729	0.0	n/a	GoodResponse	0	n/a	n/a	3	11	Fixation	AvoidedLoss	True
119.219	0.29	Lose2	1.0	0.002	Yes	2.729	-0.002	4.0	GoodResponse	0	0.182	118.401	3	11	Target	AvoidedLoss	True
119.401	0.3	Lose2	1.0	0.002	Yes	2.729	-0.002	4.0	GoodResponse	0	0.182	n/a	3	11	ButtonPress	AvoidedLoss	True
119.519	0.41	Lose2	1.0	n/a	Yes	2.729	n/a	n/a	GoodResponse	0	n/a	n/a	3	11	Blank	AvoidedLoss	True
119.919	1.45	Lose2	1.0	n/a	Yes	2.729	n/a	5.0	GoodResponse	0	0.007	118.926	3	11	Feedback	AvoidedLoss	True
121.369	2.729	Lose2	1.0	n/a	Yes	2.729	n/a	n/a	GoodResponse	0	0.0	n/a	3	11	ISIslide	AvoidedLoss	True
124.118	0.25	Control	1.0	0.0	Yes	2.982	0.018	n/a	GoodResponse	0	n/a	n/a	3	12	Cue	Neutral	True
124.368	3.9	Control	1.0	0.0	Yes	2.982	0.0	n/a	GoodResponse	0	n/a	n/a	3	12	Fixation	Neutral	True
128.266	0.28	Control	1.0	0.002	Yes	2.982	-0.002	4.0	GoodResponse	0	0.206	127.472	3	12	Target	Neutral	True
128.472	0.3	Control	1.0	0.002	Yes	2.982	-0.002	4.0	GoodResponse	0	0.206	n/a	3	12	ButtonPress	Neutral	True
128.55	0.42	Control	1.0	n/a	Yes	2.982	n/a	n/a	GoodResponse	0	n/a	n/a	3	12	Blank	Neutral	True
128.966	1.45	Control	1.0	n/a	Yes	2.982	n/a	5.0	GoodResponse	0	0.033	127.999	3	12	Feedback	Neutral	True
130.416	2.982	Control	1.0	n/a	Yes	2.982	n/a	n/a	GoodResponse	0	0.0	n/a	3	12	ISIslide	Neutral	True
133.415	0.25	Control	1.0	0.0	Yes	2.785	0.015	n/a	GoodResponse	0	n/a	n/a	3	13	Cue	Neutral	True
133.664	4.0	Control	1.0	0.001	Yes	2.785	-0.001	n/a	GoodResponse	0	n/a	n/a	3	13	Fixation	Neutral	True
137.663	0.27	Control	1.0	0.002	Yes	2.785	-0.002	4.0	GoodResponse	0	0.179	136.842	3	13	Target	Neutral	True
137.842	0.3	Control	1.0	0.002	Yes	2.785	-0.002	4.0	GoodResponse	0	0.179	n/a	3	13	ButtonPress	Neutral	True
137.946	0.43	Control	1.0	n/a	Yes	2.785	n/a	n/a	GoodResponse	0	n/a	n/a	3	13	Blank	Neutral	True
138.363	1.45	Control	1.0	n/a	Yes	2.785	n/a	5.0	GoodResponse	0	0.001	137.364	3	13	Feedback	Neutral	True
139.812	2.785	Control	1.0	n/a	Yes	2.785	n/a	n/a	GoodResponse	0	0.0	n/a	3	13	ISIslide	Neutral	True
142.611	0.25	Win2	1.0	0.0	Yes	2.689	0.011	n/a	GoodResponse	1	n/a	n/a	4	14	Cue	Win	True
142.861	4.1	Win2	1.0	0.0	Yes	2.689	0.0	n/a	GoodResponse	1	n/a	n/a	4	14	Fixation	Win	True
146.96	0.26	Win2	1.0	0.001	Yes	2.689	-0.001	4.0	GoodResponse	1	0.183	146.143	4	14	Target	Win	True
147.143	0.3	Win2	1.0	0.001	Yes	2.689	-0.001	4.0	GoodResponse	1	0.183	n/a	4	14	ButtonPress	Win	True
147.226	0.44	Win2	1.0	n/a	Yes	2.689	n/a	n/a	GoodResponse	1	n/a	n/a	4	14	Blank	Win	True
147.66	1.45	Win2	1.0	n/a	Yes	2.689	n/a	5.0	GoodResponse	1	0.022	146.682	4	14	Feedback	Win	True
149.109	2.689	Win2	1.0	n/a	Yes	2.689	n/a	n/a	GoodResponse	1	0.0	n/a	4	14	ISIslide	Win	True
151.825	0.25	Control	1.0	0.0	Yes	2.975	0.025	n/a	GoodResponse	0	n/a	n/a	4	15	Cue	Neutral	True
152.075	4.0	Control	1.0	0.0	Yes	2.975	0.0	n/a	GoodResponse	0	n/a	n/a	4	15	Fixation	Neutral	True
156.073	0.25	Control	1.0	0.002	Yes	2.975	-0.002	4.0	GoodResponse	0	0.191	155.264	4	15	Target	Neutral	True
156.264	0.3	Control	1.0	0.002	Yes	2.975	-0.002	4.0	GoodResponse	0	0.191	n/a	4	15	ButtonPress	Neutral	True
156.323	0.45	Control	1.0	n/a	Yes	2.975	n/a	n/a	GoodResponse	0	n/a	n/a	4	15	Blank	Neutral	True
156.773	1.45	Control	1.0	n/a	Yes	2.975	n/a	5.0	GoodResponse	0	0.031	155.804	4	15	Feedback	Neutral	True
158.223	2.975	Control	1.0	n/a	Yes	2.975	n/a	n/a	GoodResponse	0	0.0	n/a	4	15	ISIslide	Neutral	True
161.222	0.25	Win2	1.0	0.0	Yes	2.878	0.022	n/a	GoodResponse	1	n/a	n/a	5	16	Cue	Win	True
161.471	4.0	Win2	1.0	0.001	Yes	2.878	-0.001	n/a	GoodResponse	1	n/a	n/a	5	16	Fixation	Win	True
165.47	0.24	Win2	1.0	0.002	Yes	2.878	-0.002	4.0	GoodResponse	1	0.184	164.654	5	16	Target	Win	True
165.654	0.3	Win2	1.0	0.002	Yes	2.878	-0.002	4.0	GoodResponse	1	0.184	n/a	5	16	ButtonPress	Win	True
165.72	0.46	Win2	1.0	n/a	Yes	2.878	n/a	n/a	GoodResponse	1	n/a	n/a	5	16	Blank	Win	True
166.17	1.45	Win2	1.0	n/a	Yes	2.878	n/a	5.0	GoodResponse	1	0.048	165.218	5	16	Feedback	Win	True
167.619	2.878	Win2	1.0	n/a	Yes	2.878	n/a	n/a	GoodResponse	1	0.0	n/a	5	16	ISIslide	Win	True
170.518	0.25	Lose2	1.0	0.001	Yes	2.732	0.018	n/a	GoodResponse	0	n/a	n/a	5	17	Cue	AvoidedLoss	True
170.768	3.95	Lose2	1.0	0.0	Yes	2.732	0.0	n/a	GoodResponse	0	n/a	n/a	5	17	Fixation	AvoidedLoss	True
174.717	0.23	Lose2	1.0	0.001	Yes	2.732	-0.001	4.0	GoodResponse	0	0.185	173.902	5	17	Target	AvoidedLoss	True
174.902	0.3	Lose2	1.0	0.001	Yes	2.732	-0.001	4.0	GoodResponse	0	0.185	n/a	5	17	ButtonPress	AvoidedLoss	True
174.95	0.47	Lose2	1.0	n/a	Yes	2.732	n/a	n/a	GoodResponse	0	n/a	n/a	5	17	Blank	AvoidedLoss	True
175.417	1.45	Lose2	1.0	n/a	Yes	2.732	n/a	5.0	GoodResponse	0	0.021	174.438	5	17	Feedback	AvoidedLoss	True
176.866	2.732	Lose2	1.0	n/a	Yes	2.732	n/a	n/a	GoodResponse	0	0.0	n/a	5	17	ISIslide	AvoidedLoss	True
179.615	0.25	Lose2	1.0	0.0	Yes	2.735	0.015	n/a	GoodResponse	0	n/a	n/a	5	18	Cue	AvoidedLoss	True
179.865	4.05	Lose2	1.0	0.0	Yes	2.735	0.0	n/a	GoodResponse	0	n/a	n/a	5	18	Fixation	AvoidedLoss	True
183.914	0.22	Lose2	1.0	0.001	Yes	2.735	-0.001	4.0	GoodResponse	0	0.19	183.104	5	18	Target	AvoidedLoss	True
184.104	0.3	Lose2	1.0	0.001	Yes	2.735	-0.001	4.0	GoodResponse	0	0.19	n/a	5	18	ButtonPress	AvoidedLoss	True
184.147	0.48	Lose2	1.0	n/a	Yes	2.735	n/a	n/a	GoodResponse	0	n/a	n/a	5	18	Blank	AvoidedLoss	True
184.613	1.45	Lose2	1.0	n/a	Yes	2.735	n/a	5.0	GoodResponse	0	0.045	183.658	5	18	Feedback	AvoidedLoss	True
186.063	2.735	Lose2	1.0	n/a	Yes	2.735	n/a	n/a	GoodResponse	0	0.0	n/a	5	18	ISIslide	AvoidedLoss	True
188.812	0.25	Control	1.0	0.0	Yes	2.938	0.012	n/a	GoodResponse	0	n/a	n/a	5	19	Cue	Neutral	True
189.062	3.95	Control	1.0	0.0	Yes	2.938	0.0	n/a	GoodResponse	0	n/a	n/a	5	19	Fixation	Neutral	True
193.011	0.21	Control	1.0	0.001	Yes	2.938	-0.001	4.0	GoodResponse	0	0.193	192.204	5	19	Target	Neutral	True
193.204	0.3	Control	1.0	0.001	Yes	2.938	-0.001	4.0	GoodResponse	0	0.193	n/a	5	19	ButtonPress	Neutral	True
193.227	0.49	Control	1.0	n/a	Yes	2.938	n/a	n/a	GoodResponse	0	n/a	n/a	5	19	Blank	Neutral	True
193.71	1.45	Control	1.0	n/a	Yes	2.938	n/a	5.0	GoodResponse	0	0.02	192.73	5	19	Feedback	Neutral	True
195.16	2.938	Control	1.0	n/a	Yes	2.938	n/a	n/a	GoodResponse	0	0.0	n/a	5	19	ISIslide	Neutral	True
198.125	0.25	Control	1.0	0.001	Yes	2.625	0.025	n/a	GoodResponse	0	n/a	n/a	5	20	Cue	Neutral	True
198.375	4.05	Control	1.0	0.0	Yes	2.625	0.0	n/a	GoodResponse	0	n/a	n/a	5	20	Fixation	Neutral	True
202.424	0.2	Control	1.0	0.001	Yes	2.625	-0.001	4.0	GoodResponse	0	0.176	201.6	5	20	Target	Neutral	True
202.6	0.3	Control	1.0	0.001	Yes	2.625	-0.001	4.0	GoodResponse	0	0.176	n/a	5	20	ButtonPress	Neutral	True
202.624	0.5	Control	1.0	n/a	Yes	2.625	n/a	n/a	GoodResponse	0	n/a	n/a	5	20	Blank	Neutral	True
203.124	1.45	Control	1.0	n/a	Yes	2.625	n/a	5.0	GoodResponse	0	0.021	202.145	5	20	Feedback	Neutral	True
204.573	2.625	Control	1.0	n/a	Yes	2.625	n/a	n/a	GoodResponse	0	0.0	n/a	5	20	ISIslide	Neutral	True
207.222	0.25	Control	0.9545	0.0	No	2.778	0.022	n/a	LatePress	0	n/a	n/a	5	21	Cue	Neutral	True
207.472	4.1	Control	0.9545	0.0	No	2.778	0.0	n/a	LatePress	0	n/a	n/a	5	21	Fixation	Neutral	True
211.571	0.19	Control	0.9545	0.001	No	2.778	-0.001	4.0	LatePress	0	0.197	210.768	5	21	Target	Neutral	True
211.768	0.3	Control	0.9545	0.001	No	2.778	-0.001	4.0	LatePress	0	0.197	n/a	5	21	ButtonPress	Neutral	True
211.771	0.51	Control	0.9545	n/a	No	2.778	n/a	n/a	LatePress	0	n/a	n/a	5	21	Blank	Neutral	True
212.271	1.45	Control	0.9545	n/a	No	2.778	n/a	5.0	LatePress	0	0.045	211.316	5	21	Feedback	Neutral	True
213.72	2.778	Control	0.9545	n/a	No	2.778	n/a	n/a	LatePress	0	0.0	n/a	5	21	ISIslide	Neutral	True
216.519	0.25	Control	0.9129999999999999	0.0	No	2.781	0.019	n/a	NoResponse	0	n/a	n/a	5	22	Cue	Neutral	True
216.769	4.0	Control	0.9129999999999999	0.0	No	2.781	0.0	n/a	NoResponse	0	n/a	n/a	5	22	Fixation	Neutral	True
220.768	0.18	Control	0.9129999999999999	0.001	No	2.781	-0.001	4.0	NoResponse	0	0.197	219.965	5	22	Target	Neutral	True
220.951	0.52	Control	0.9129999999999999	n/a	No	2.781	n/a	n/a	NoResponse	0	n/a	n/a	5	22	Blank	Neutral	True
220.965	0.3	Control	0.9129999999999999	0.001	No	2.781	-0.001	4.0	NoResponse	0	0.197	n/a	5	22	ButtonPress	Neutral	True
221.467	1.45	Control	0.9129999999999999	n/a	No	2.781	n/a	5.0	NoResponse	0	0.019	220.486	5	22	Feedback	Neutral	True
222.917	2.781	Control	0.9129999999999999	n/a	No	2.781	n/a	n/a	NoResponse	0	0.0	n/a	5	22	ISIslide	Neutral	True
225.716	0.25	Control	0.875	0.0	No	2.784	0.016	n/a	NoResponse	0	n/a	n/a	5	23	Cue	Neutral	True
225.966	3.9	Control	0.875	0.0	No	2.784	0.0	n/a	NoResponse	0	n/a	n/a	5	23	Fixation	Neutral	True
229.864	0.17	Control	0.875	0.002	No	2.784	-0.002	4.0	NoResponse	0	0.192	229.056	5	23	Target	Neutral	True
230.048	0.53	Control	0.875	n/a	No	2.784	n/a	n/a	NoResponse	0	n/a	n/a	5	23	Blank	Neutral	True
230.056	0.3	Control	0.875	0.002	No	2.784	-0.002	4.0	NoResponse	0	0.192	n/a	5	23	ButtonPress	Neutral	True
230.564	1.45	Control	0.875	n/a	No	2.784	n/a	5.0	NoResponse	0	0.044	229.608	5	23	Feedback	Neutral	True
232.014	2.784	Control	0.875	n/a	No	2.784	n/a	n/a	NoResponse	0	0.0	n/a	5	23	ISIslide	Neutral	True
234.829	0.25	Win2	0.84	0.001	No	3.121	0.029	n/a	NoResponse	0	n/a	n/a	5	24	Cue	MissedWin	True
235.079	3.95	Win2	0.84	0.0	No	3.121	0.0	n/a	NoResponse	0	n/a	n/a	5	24	Fixation	MissedWin	True
239.028	0.16	Win2	0.84	0.001	No	3.121	-0.001	4.0	NoResponse	0	0.174	238.202	5	24	Target	MissedWin	True
239.195	0.54	Win2	0.84	n/a	No	3.121	n/a	n/a	NoResponse	0	n/a	n/a	5	24	Blank	MissedWin	True
239.202	0.3	Win2	0.84	0.001	No	3.121	-0.001	4.0	NoResponse	0	0.174	n/a	5	24	ButtonPress	MissedWin	True
239.728	1.45	Win2	0.84	n/a	No	3.121	n/a	5.0	NoResponse	0	0.006	238.734	5	24	Feedback	MissedWin	True
241.177	3.121	Win2	0.84	n/a	No	3.121	n/a	n/a	NoResponse	0	0.0	n/a	5	24	ISIslide	MissedWin	True
244.326	0.25	Win2	0.8077	0.0	No	3.074	0.026	n/a	NoResponse	0	n/a	n/a	5	25	Cue	MissedWin	True
244.576	4.0	Win2	0.8077	0.0	No	3.074	0.0	n/a	NoResponse	0	n/a	n/a	5	25	Fixation	MissedWin	True
248.575	0.15	Win2	0.8077	0.001	No	3.074	-0.001	4.0	NoResponse	0	0.174	247.749	5	25	Target	MissedWin	True
248.725	0.55	Win2	0.8077	n/a	No	3.074	n/a	n/a	NoResponse	0	n/a	n/a	5	25	Blank	MissedWin	True
248.749	0.3	Win2	0.8077	0.001	No	3.074	-0.001	4.0	NoResponse	0	0.174	n/a	5	25	ButtonPress	MissedWin	True
249.274	1.45	Win2	0.8077	n/a	No	3.074	n/a	5.0	NoResponse	0	0.018	248.292	5	25	Feedback	MissedWin	True
250.724	3.074	Win2	0.8077	n/a	No	3.074	n/a	n/a	NoResponse	0	0.0	n/a	5	25	ISIslide	MissedWin	True
253.823	0.25	Win2	0.7778	0.0	No	2.927	0.023	n/a	NoResponse	0	n/a	n/a	5	26	Cue	MissedWin	True
254.073	3.95	Win2	0.7778	0.0	No	2.927	0.0	n/a	NoResponse	0	n/a	n/a	5	26	Fixation	MissedWin	True
258.021	0.15	Win2	0.7778	0.002	No	2.927	-0.002	4.0	NoResponse	0	0.194	257.215	5	26	Target	MissedWin	True
258.171	0.55	Win2	0.7778	n/a	No	2.927	n/a	n/a	NoResponse	0	n/a	n/a	5	26	Blank	MissedWin	True
258.215	0.3	Win2	0.7778	0.002	No	2.927	-0.002	4.0	NoResponse	0	0.194	n/a	5	26	ButtonPress	MissedWin	True
258.721	1.45	Win2	0.7778	n/a	No	2.927	n/a	5.0	NoResponse	0	0.033	257.754	5	26	Feedback	MissedWin	True
260.171	2.927	Win2	0.7778	n/a	No	2.927	n/a	n/a	NoResponse	0	0.0	n/a	5	26	ISIslide	MissedWin	True
263.12	0.25	Lose2	0.75	0.0	No	2.83	0.02	n/a	NoResponse	-1	n/a	n/a	4	27	Cue	Loss	True
263.37	4.05	Lose2	0.75	0.0	No	2.83	0.0	n/a	NoResponse	-1	n/a	n/a	4	27	Fixation	Loss	True
267.418	0.15	Lose2	0.75	0.002	No	2.83	-0.002	4.0	NoResponse	-1	0.173	266.591	4	27	Target	Loss	True
267.568	0.55	Lose2	0.75	n/a	No	2.83	n/a	n/a	NoResponse	-1	n/a	n/a	4	27	Blank	Loss	True
267.591	0.3	Lose2	0.75	0.002	No	2.83	-0.002	4.0	NoResponse	-1	0.173	n/a	4	27	ButtonPress	Loss	True
268.118	1.45	Lose2	0.75	n/a	No	2.83	n/a	5.0	NoResponse	-1	0.007	267.125	4	27	Feedback	Loss	True
269.567	2.83	Lose2	0.75	n/a	No	2.83	n/a	n/a	NoResponse	-1	0.0	n/a	4	27	ISIslide	Loss	True
272.416	0.25	Control	0.7241	0.001	No	2.834	0.016	n/a	NoResponse	0	n/a	n/a	4	28	Cue	Neutral	True
272.666	4.05	Control	0.7241	0.0	No	2.834	0.0	n/a	NoResponse	0	n/a	n/a	4	28	Fixation	Neutral	True
276.715	0.15	Control	0.7241	0.001	No	2.834	-0.001	4.0	NoResponse	0	0.213	275.928	4	28	Target	Neutral	True
276.865	0.55	Control	0.7241	n/a	No	2.834	n/a	n/a	NoResponse	0	n/a	n/a	4	28	Blank	Neutral	True
276.928	0.3	Control	0.7241	0.001	No	2.834	-0.001	4.0	NoResponse	0	0.213	n/a	4	28	ButtonPress	Neutral	True
277.415	1.45	Control	0.7241	n/a	No	2.834	n/a	5.0	NoResponse	0	0.022	276.437	4	28	Feedback	Neutral	True
278.864	2.834	Control	0.7241	n/a	No	2.834	n/a	n/a	NoResponse	0	0.0	n/a	4	28	ISIslide	Neutral	True
281.73	0.25	Lose2	0.7	0.0	No	2.82	0.03	n/a	NoResponse	-1	n/a	n/a	3	29	Cue	Loss	True
281.98	3.95	Lose2	0.7	0.0	No	2.82	0.0	n/a	NoResponse	-1	n/a	n/a	3	29	Fixation	Loss	True
285.928	0.15	Lose2	0.7	0.002	No	2.82	-0.002	4.0	NoResponse	-1	0.186	285.114	3	29	Target	Loss	True
286.078	0.55	Lose2	0.7	n/a	No	2.82	n/a	n/a	NoResponse	-1	n/a	n/a	3	29	Blank	Loss	True
286.114	0.3	Lose2	0.7	0.002	No	2.82	-0.002	4.0	NoResponse	-1	0.186	n/a	3	29	ButtonPress	Loss	True
286.628	1.45	Lose2	0.7	n/a	No	2.82	n/a	5.0	NoResponse	-1	0.029	285.657	3	29	Feedback	Loss	True
288.078	2.82	Lose2	0.7	n/a	No	2.82	n/a	n/a	NoResponse	-1	0.0	n/a	3	29	ISIslide	Loss	True
290.927	0.25	Win2	0.6774	0.0	No	2.773	0.027	n/a	NoResponse	0	n/a	n/a	3	30	Cue	MissedWin	True
291.177	3.9	Win2	0.6774	0.0	No	2.773	0.0	4.0	NoResponse	0	3.812	293.989	3	30	Fixation	MissedWin	True
294.989	0.3	Win2	0.6774	0.0	No	2.773	0.0	4.0	NoResponse	0	3.812	n/a	3	30	ButtonPress	MissedWin	True
295.075	0.15	Win2	0.6774	0.002	No	2.773	-0.002	n/a	NoResponse	0	n/a	n/a	3	30	Target	MissedWin	True
295.225	0.55	Win2	0.6774	n/a	No	2.773	n/a	n/a	NoResponse	0	n/a	n/a	3	30	Blank	MissedWin	True
295.775	1.45	Win2	0.6774	n/a	No	2.773	n/a	5.0	NoResponse	0	0.007	294.782	3	30	Feedback	MissedWin	True
297.225	2.773	Win2	0.6774	n/a	No	2.773	n/a	n/a	NoResponse	0	0.0	n/a	3	30	ISIslide	MissedWin	True
300.024	0.25	Lose2	0.6562	0.0	No	2.826	0.024	n/a	NoResponse	-1	n/a	n/a	2	31	Cue	Loss	True
300.273	4.05	Lose2	0.6562	0.001	No	2.826	-0.001	n/a	NoResponse	-1	n/a	n/a	2	31	Fixation	Loss	True
304.322	0.15	Lose2	0.6562	0.002	No	2.826	-0.002	4.0	NoResponse	-1	0.212	303.534	2	31	Target	Loss	True
304.472	0.55	Lose2	0.6562	n/a	No	2.826	n/a	n/a	NoResponse	-1	n/a	n/a	2	31	Blank	Loss	True
304.534	0.3	Lose2	0.6562	0.002	No	2.826	-0.002	4.0	NoResponse	-1	0.212	n/a	2	31	ButtonPress	Loss	True
305.022	1.45	Lose2	0.6562	n/a	No	2.826	n/a	5.0	NoResponse	-1	0.025	304.047	2	31	Feedback	Loss	True
306.471	2.826	Lose2	0.6562	n/a	No	2.826	n/a	n/a	NoResponse	-1	0.0	n/a	2	31	ISIslide	Loss	True
309.32	0.25	Lose2	0.6364	0.0	No	2.63	0.02	n/a	NoResponse	-1	n/a	n/a	1	32	Cue	Loss	True
309.57	4.15	Lose2	0.6364	0.0	No	2.63	0.0	n/a	NoResponse	-1	n/a	n/a	1	32	Fixation	Loss	True
313.719	0.15	Lose2	0.6364	0.001	No	2.63	-0.001	4.0	NoResponse	-1	0.196	312.915	1	32	Target	Loss	True
313.869	0.55	Lose2	0.6364	n/a	No	2.63	n/a	n/a	NoResponse	-1	n/a	n/a	1	32	Blank	Loss	True
313.915	0.3	Lose2	0.6364	0.001	No	2.63	-0.001	4.0	NoResponse	-1	0.196	n/a	1	32	ButtonPress	Loss	True
314.419	1.45	Lose2	0.6364	n/a	No	2.63	n/a	5.0	NoResponse	-1	0.042	313.461	1	32	Feedback	Loss	True
315.868	2.63	Lose2	0.6364	n/a	No	2.63	n/a	n/a	NoResponse	-1	0.0	n/a	1	32	ISIslide	Loss	True
318.517	0.25	Win2	0.6175999999999999	0.0	No	2.683	0.017	n/a	NoResponse	0	n/a	n/a	1	33	Cue	MissedWin	True
318.767	4.0	Win2	0.6175999999999999	0.0	No	2.683	0.0	n/a	NoResponse	0	n/a	n/a	1	33	Fixation	MissedWin	True
322.766	0.16	Win2	0.6175999999999999	0.001	No	2.683	-0.001	4.0	NoResponse	0	0.175	321.941	1	33	Target	MissedWin	True
322.932	0.54	Win2	0.6175999999999999	n/a	No	2.683	n/a	n/a	NoResponse	0	n/a	n/a	1	33	Blank	MissedWin	True
322.941	0.3	Win2	0.6175999999999999	0.001	No	2.683	-0.001	4.0	NoResponse	0	0.175	n/a	1	33	ButtonPress	MissedWin	True
323.465	1.45	Win2	0.6175999999999999	n/a	No	2.683	n/a	5.0	NoResponse	0	0.021	322.486	1	33	Feedback	MissedWin	True
324.915	2.683	Win2	0.6175999999999999	n/a	No	2.683	n/a	n/a	NoResponse	0	0.0	n/a	1	33	ISIslide	MissedWin	True
327.614	0.25	Lose2	0.6	0.0	No	2.636	0.014	n/a	NoResponse	-1	n/a	n/a	0	34	Cue	Loss	True
327.864	4.05	Lose2	0.6	0.0	No	2.636	0.0	n/a	NoResponse	-1	n/a	n/a	0	34	Fixation	Loss	True
331.913	0.17	Lose2	0.6	0.001	No	2.636	-0.001	4.0	NoResponse	-1	0.184	331.097	0	34	Target	Loss	True
332.096	0.53	Lose2	0.6	n/a	No	2.636	n/a	n/a	NoResponse	-1	n/a	n/a	0	34	Blank	Loss	True
332.097	0.3	Lose2	0.6	0.001	No	2.636	-0.001	4.0	NoResponse	-1	0.184	n/a	0	34	ButtonPress	Loss	True
332.612	1.45	Lose2	0.6	n/a	No	2.636	n/a	5.0	NoResponse	-1	0.045	331.657	0	34	Feedback	Loss	True
334.062	2.636	Lose2	0.6	n/a	No	2.636	n/a	n/a	NoResponse	-1	0.0	n/a	0	34	ISIslide	Loss	True
336.728	0.25	Lose2	0.5832999999999999	0.0	No	2.672	0.028	n/a	LatePress	-1	n/a	n/a	-1	35	Cue	Loss	True
336.977	4.0	Lose2	0.5832999999999999	0.001	No	2.672	-0.001	n/a	LatePress	-1	n/a	n/a	-1	35	Fixation	Loss	True
340.976	0.18	Lose2	0.5832999999999999	0.002	No	2.672	-0.002	4.0	LatePress	-1	0.182	340.158	-1	35	Target	Loss	True
341.158	0.3	Lose2	0.5832999999999999	0.002	No	2.672	-0.002	4.0	LatePress	-1	0.182	n/a	-1	35	ButtonPress	Loss	True
341.159	0.52	Lose2	0.5832999999999999	n/a	No	2.672	n/a	n/a	LatePress	-1	n/a	n/a	-1	35	Blank	Loss	True
341.676	1.45	Lose2	0.5832999999999999	n/a	No	2.672	n/a	5.0	LatePress	-1	0.008	340.684	-1	35	Feedback	Loss	True
343.125	2.672	Lose2	0.5832999999999999	n/a	No	2.672	n/a	n/a	LatePress	-1	0.0	n/a	-1	35	ISIslide	Loss	True
345.824	0.25	Control	0.5946	0.0	Yes	2.676	0.024	n/a	GoodResponse	0	n/a	n/a	-1	36	Cue	Neutral	True
346.074	4.0	Control	0.5946	0.0	Yes	2.676	0.0	n/a	GoodResponse	0	n/a	n/a	-1	36	Fixation	Neutral	True
350.073	0.19	Control	0.5946	0.001	Yes	2.676	-0.001	4.0	GoodResponse	0	0.178	349.251	-1	36	Target	Neutral	True
350.251	0.3	Control	0.5946	0.001	Yes	2.676	-0.001	4.0	GoodResponse	0	0.178	n/a	-1	36	ButtonPress	Neutral	True
350.273	0.51	Control	0.5946	n/a	Yes	2.676	n/a	n/a	GoodResponse	0	n/a	n/a	-1	36	Blank	Neutral	True
350.773	1.45	Control	0.5946	n/a	Yes	2.676	n/a	5.0	GoodResponse	0	0.03	349.803	-1	36	Feedback	Neutral	True
352.222	2.676	Control	0.5946	n/a	Yes	2.676	n/a	n/a	GoodResponse	0	0.0	n/a	-1	36	ISIslide	Neutral	True
354.921	0.25	Win2	0.6053000000000001	0.0	Yes	2.879	0.021	n/a	GoodResponse	1	n/a	n/a	0	37	Cue	Win	True
355.171	4.0	Win2	0.6053000000000001	0.0	Yes	2.879	0.0	n/a	GoodResponse	1	n/a	n/a	0	37	Fixation	Win	True
359.17	0.2	Win2	0.6053000000000001	0.001	Yes	2.879	-0.001	4.0	GoodResponse	1	0.176	358.346	0	37	Target	Win	True
359.346	0.3	Win2	0.6053000000000001	0.001	Yes	2.879	-0.001	4.0	GoodResponse	1	0.176	n/a	0	37	ButtonPress	Win	True
359.37	0.5	Win2	0.6053000000000001	n/a	Yes	2.879	n/a	n/a	GoodResponse	1	n/a	n/a	0	37	Blank	Win	True
359.87	1.45	Win2	0.6053000000000001	n/a	Yes	2.879	n/a	5.0	GoodResponse	1	0.007	358.877	0	37	Feedback	Win	True
361.319	2.879	Win2	0.6053000000000001	n/a	Yes	2.879	n/a	n/a	GoodResponse	1	0.0	n/a	0	37	ISIslide	Win	True
364.218	0.25	Lose2	0.6154	0.0	Yes	2.832	0.018	n/a	GoodResponse	0	n/a	n/a	0	38	Cue	AvoidedLoss	True
364.468	3.95	Lose2	0.6154	0.0	Yes	2.832	0.0	n/a	GoodResponse	0	n/a	n/a	0	38	Fixation	AvoidedLoss	True
368.417	0.21	Lose2	0.6154	0.001	Yes	2.832	-0.001	4.0	GoodResponse	0	0.176	367.593	0	38	Target	AvoidedLoss	True
368.593	0.3	Lose2	0.6154	0.001	Yes	2.832	-0.001	4.0	GoodResponse	0	0.176	n/a	0	38	ButtonPress	AvoidedLoss	True
368.633	0.49	Lose2	0.6154	n/a	Yes	2.832	n/a	n/a	GoodResponse	0	n/a	n/a	0	38	Blank	AvoidedLoss	True
369.116	1.45	Lose2	0.6154	n/a	Yes	2.832	n/a	5.0	GoodResponse	0	0.029	368.145	0	38	Feedback	AvoidedLoss	True
370.566	2.832	Lose2	0.6154	n/a	Yes	2.832	n/a	n/a	GoodResponse	0	0.0	n/a	0	38	ISIslide	AvoidedLoss	True
373.415	0.25	Win2	0.625	0.0	Yes	2.985	0.015	n/a	GoodResponse	1	n/a	n/a	1	39	Cue	Win	True
373.665	4.1	Win2	0.625	0.0	Yes	2.985	0.0	n/a	GoodResponse	1	n/a	n/a	1	39	Fixation	Win	True
377.763	0.22	Win2	0.625	0.002	Yes	2.985	-0.002	4.0	GoodResponse	1	0.187	376.95	1	39	Target	Win	True
377.95	0.3	Win2	0.625	0.002	Yes	2.985	-0.002	4.0	GoodResponse	1	0.187	n/a	1	39	ButtonPress	Win	True
377.997	0.48	Win2	0.625	n/a	Yes	2.985	n/a	n/a	GoodResponse	1	n/a	n/a	1	39	Blank	Win	True
378.463	1.45	Win2	0.625	n/a	Yes	2.985	n/a	5.0	GoodResponse	1	0.047	377.51	1	39	Feedback	Win	True
379.913	2.985	Win2	0.625	n/a	Yes	2.985	n/a	n/a	GoodResponse	1	0.0	n/a	1	39	ISIslide	Win	True
382.928	0.25	Win2	0.6341	0.0	Yes	2.722	0.028	n/a	GoodResponse	1	n/a	n/a	2	40	Cue	Win	True
383.178	3.95	Win2	0.6341	0.0	Yes	2.722	0.0	n/a	GoodResponse	1	n/a	n/a	2	40	Fixation	Win	True
387.127	0.23	Win2	0.6341	0.001	Yes	2.722	-0.001	4.0	GoodResponse	1	0.191	386.318	2	40	Target	Win	True
387.318	0.3	Win2	0.6341	0.001	Yes	2.722	-0.001	4.0	GoodResponse	1	0.191	n/a	2	40	ButtonPress	Win	True
387.36	0.47	Win2	0.6341	n/a	Yes	2.722	n/a	n/a	GoodResponse	1	n/a	n/a	2	40	Blank	Win	True
387.827	1.45	Win2	0.6341	n/a	Yes	2.722	n/a	5.0	GoodResponse	1	0.0	386.827	2	40	Feedback	Win	True
389.276	2.722	Win2	0.6341	n/a	Yes	2.722	n/a	n/a	GoodResponse	1	0.0	n/a	2	40	ISIslide	Win	True
392.025	0.25	Win2	0.6429	0.0	Yes	2.775	0.025	n/a	GoodResponse	1	n/a	n/a	3	41	Cue	Win	True
392.275	3.9	Win2	0.6429	0.0	Yes	2.775	0.0	n/a	GoodResponse	1	n/a	n/a	3	41	Fixation	Win	True
396.174	0.24	Win2	0.6429	0.001	Yes	2.775	-0.001	4.0	GoodResponse	1	0.196	395.37	3	41	Target	Win	True
396.37	0.3	Win2	0.6429	0.001	Yes	2.775	-0.001	4.0	GoodResponse	1	0.196	n/a	3	41	ButtonPress	Win	True
396.424	0.46	Win2	0.6429	n/a	Yes	2.775	n/a	n/a	GoodResponse	1	n/a	n/a	3	41	Blank	Win	True
396.873	1.45	Win2	0.6429	n/a	Yes	2.775	n/a	5.0	GoodResponse	1	0.027	395.9	3	41	Feedback	Win	True
398.323	2.775	Win2	0.6429	n/a	Yes	2.775	n/a	n/a	GoodResponse	1	0.0	n/a	3	41	ISIslide	Win	True
401.122	0.25	Control	0.6512	0.0	Yes	2.928	0.022	n/a	GoodResponse	0	n/a	n/a	3	42	Cue	Neutral	True
401.372	3.85	Control	0.6512	0.0	Yes	2.928	0.0	n/a	GoodResponse	0	n/a	n/a	3	42	Fixation	Neutral	True
405.221	0.25	Control	0.6512	0.001	Yes	2.928	-0.001	4.0	GoodResponse	0	0.164	404.385	3	42	Target	Neutral	True
405.385	0.3	Control	0.6512	0.001	Yes	2.928	-0.001	4.0	GoodResponse	0	0.164	n/a	3	42	ButtonPress	Neutral	True
405.47	0.45	Control	0.6512	n/a	Yes	2.928	n/a	n/a	GoodResponse	0	n/a	n/a	3	42	Blank	Neutral	True
405.92	1.45	Control	0.6512	n/a	Yes	2.928	n/a	5.0	GoodResponse	0	0.008	404.928	3	42	Feedback	Neutral	True
407.37	2.928	Control	0.6512	n/a	Yes	2.928	n/a	n/a	GoodResponse	0	0.0	n/a	3	42	ISIslide	Neutral	True
410.319	0.25	Win2	0.6591	0.0	Yes	3.181	0.019	n/a	GoodResponse	1	n/a	n/a	4	43	Cue	Win	True
410.569	4.0	Win2	0.6591	0.0	Yes	3.181	0.0	n/a	GoodResponse	1	n/a	n/a	4	43	Fixation	Win	True
414.567	0.26	Win2	0.6591	0.002	Yes	3.181	-0.002	4.0	GoodResponse	1	0.196	413.763	4	43	Target	Win	True
414.763	0.3	Win2	0.6591	0.002	Yes	3.181	-0.002	4.0	GoodResponse	1	0.196	n/a	4	43	ButtonPress	Win	True
414.834	0.44	Win2	0.6591	n/a	Yes	3.181	n/a	n/a	GoodResponse	1	n/a	n/a	4	43	Blank	Win	True
415.267	1.45	Win2	0.6591	n/a	Yes	3.181	n/a	5.0	GoodResponse	1	0.024	414.291	4	43	Feedback	Win	True
416.717	3.181	Win2	0.6591	n/a	Yes	3.181	n/a	n/a	GoodResponse	1	0.0	n/a	4	43	ISIslide	Win	True
419.915	0.25	Win2	0.6667000000000001	0.001	Yes	2.985	0.015	n/a	GoodResponse	1	n/a	n/a	5	44	Cue	Win	True
420.165	4.0	Win2	0.6667000000000001	0.0	Yes	2.985	0.0	n/a	GoodResponse	1	n/a	n/a	5	44	Fixation	Win	True
424.164	0.26	Win2	0.6667000000000001	0.001	Yes	2.985	-0.001	4.0	GoodResponse	1	0.159	423.323	5	44	Target	Win	True
424.323	0.3	Win2	0.6667000000000001	0.001	Yes	2.985	-0.001	4.0	GoodResponse	1	0.159	n/a	5	44	ButtonPress	Win	True
424.431	0.44	Win2	0.6667000000000001	n/a	Yes	2.985	n/a	n/a	GoodResponse	1	n/a	n/a	5	44	Blank	Win	True
424.864	1.45	Win2	0.6667000000000001	n/a	Yes	2.985	n/a	5.0	GoodResponse	1	0.037	423.901	5	44	Feedback	Win	True
426.313	2.985	Win2	0.6667000000000001	n/a	Yes	2.985	n/a	n/a	GoodResponse	1	0.0	n/a	5	44	ISIslide	Win	True
429.329	0.25	Control	0.6739	0.0	Yes	2.871	0.029	n/a	GoodResponse	0	n/a	n/a	5	45	Cue	Neutral	True
429.579	4.1	Control	0.6739	0.0	Yes	2.871	0.0	n/a	GoodResponse	0	n/a	n/a	5	45	Fixation	Neutral	True
433.677	0.25	Control	0.6739	0.002	Yes	2.871	-0.002	4.0	GoodResponse	0	0.186	432.863	5	45	Target	Neutral	True
433.863	0.3	Control	0.6739	0.002	Yes	2.871	-0.002	4.0	GoodResponse	0	0.186	n/a	5	45	ButtonPress	Neutral	True
433.927	0.45	Control	0.6739	n/a	Yes	2.871	n/a	n/a	GoodResponse	0	n/a	n/a	5	45	Blank	Neutral	True
434.377	1.45	Control	0.6739	n/a	Yes	2.871	n/a	5.0	GoodResponse	0	0.035	433.412	5	45	Feedback	Neutral	True
435.827	2.871	Control	0.6739	n/a	Yes	2.871	n/a	n/a	GoodResponse	0	0.0	n/a	5	45	ISIslide	Neutral	True
438.726	0.25	Lose2	0.6809000000000001	0.0	Yes	3.374	0.026	n/a	GoodResponse	0	n/a	n/a	5	46	Cue	AvoidedLoss	True
438.976	4.0	Lose2	0.6809000000000001	0.0	Yes	3.374	0.0	n/a	GoodResponse	0	n/a	n/a	5	46	Fixation	AvoidedLoss	True
442.974	0.24	Lose2	0.6809000000000001	0.002	Yes	3.374	-0.002	4.0	GoodResponse	0	0.197	442.171	5	46	Target	AvoidedLoss	True
443.171	0.3	Lose2	0.6809000000000001	0.002	Yes	3.374	-0.002	4.0	GoodResponse	0	0.197	n/a	5	46	ButtonPress	AvoidedLoss	True
443.224	0.46	Lose2	0.6809000000000001	n/a	Yes	3.374	n/a	n/a	GoodResponse	0	n/a	n/a	5	46	Blank	AvoidedLoss	True
443.674	1.45	Lose2	0.6809000000000001	n/a	Yes	3.374	n/a	5.0	GoodResponse	0	0.008	442.682	5	46	Feedback	AvoidedLoss	True
445.123	3.374	Lose2	0.6809000000000001	n/a	Yes	3.374	n/a	n/a	GoodResponse	0	0.0	n/a	5	46	ISIslide	AvoidedLoss	True
448.522	0.25	Lose2	0.6875	0.0	Yes	2.678	0.022	n/a	GoodResponse	0	n/a	n/a	5	47	Cue	AvoidedLoss	True
448.772	4.0	Lose2	0.6875	0.0	Yes	2.678	0.0	n/a	GoodResponse	0	n/a	n/a	5	47	Fixation	AvoidedLoss	True
452.771	0.23	Lose2	0.6875	0.001	Yes	2.678	-0.001	4.0	GoodResponse	0	0.207	451.978	5	47	Target	AvoidedLoss	True
452.978	0.3	Lose2	0.6875	0.001	Yes	2.678	-0.001	4.0	GoodResponse	0	0.207	n/a	5	47	ButtonPress	AvoidedLoss	True
453.004	0.47	Lose2	0.6875	n/a	Yes	2.678	n/a	n/a	GoodResponse	0	n/a	n/a	5	47	Blank	AvoidedLoss	True
453.471	1.45	Lose2	0.6875	n/a	Yes	2.678	n/a	5.0	GoodResponse	0	0.014	452.485	5	47	Feedback	AvoidedLoss	True
454.92	2.678	Lose2	0.6875	n/a	Yes	2.678	n/a	n/a	GoodResponse	0	0.0	n/a	5	47	ISIslide	AvoidedLoss	True
457.619	0.25	Lose2	0.6939	0.0	Yes	3.031	0.019	n/a	GoodResponse	0	n/a	n/a	5	48	Cue	AvoidedLoss	True
457.869	3.95	Lose2	0.6939	0.0	Yes	3.031	0.0	n/a	GoodResponse	0	n/a	n/a	5	48	Fixation	AvoidedLoss	True
461.818	0.22	Lose2	0.6939	0.001	Yes	3.031	-0.001	4.0	GoodResponse	0	0.169	460.987	5	48	Target	AvoidedLoss	True
461.987	0.3	Lose2	0.6939	0.001	Yes	3.031	-0.001	4.0	GoodResponse	0	0.169	n/a	5	48	ButtonPress	AvoidedLoss	True
462.051	0.48	Lose2	0.6939	n/a	Yes	3.031	n/a	n/a	GoodResponse	0	n/a	n/a	5	48	Blank	AvoidedLoss	True
462.517	1.45	Lose2	0.6939	n/a	Yes	3.031	n/a	5.0	GoodResponse	0	0.042	461.559	5	48	Feedback	AvoidedLoss	True
463.967	3.031	Lose2	0.6939	n/a	Yes	3.031	n/a	n/a	GoodResponse	0	0.0	n/a	5	48	ISIslide	AvoidedLoss	True
467.016	0.25	Control	0.7	0.0	Yes	2.884	0.016	n/a	GoodResponse	0	n/a	n/a	5	49	Cue	Neutral	True
467.266	4.0	Control	0.7	0.0	Yes	2.884	0.0	n/a	GoodResponse	0	n/a	n/a	5	49	Fixation	Neutral	True
471.264	0.21	Control	0.7	0.002	Yes	2.884	-0.002	4.0	GoodResponse	0	0.181	470.445	5	49	Target	Neutral	True
471.445	0.3	Control	0.7	0.002	Yes	2.884	-0.002	4.0	GoodResponse	0	0.181	n/a	5	49	ButtonPress	Neutral	True
471.481	0.49	Control	0.7	n/a	Yes	2.884	n/a	n/a	GoodResponse	0	n/a	n/a	5	49	Blank	Neutral	True
471.964	1.45	Control	0.7	n/a	Yes	2.884	n/a	5.0	GoodResponse	0	0.009	470.973	5	49	Feedback	Neutral	True
473.414	2.884	Control	0.7	n/a	Yes	2.884	n/a	n/a	GoodResponse	0	0.0	n/a	5	49	ISIslide	Neutral	True
476.313	0.25	Control	0.7059000000000001	0.0	Yes	2.787	0.013	n/a	GoodResponse	0	n/a	n/a	5	50	Cue	Neutral	True
476.563	4.0	Control	0.7059000000000001	0.0	Yes	2.787	0.0	n/a	GoodResponse	0	n/a	n/a	5	50	Fixation	Neutral	True
480.561	0.2	Control	0.7059000000000001	0.002	Yes	2.787	-0.002	4.0	GoodResponse	0	0.198	479.759	5	50	Target	Neutral	True
480.759	0.3	Control	0.7059000000000001	0.002	Yes	2.787	-0.002	4.0	GoodResponse	0	0.198	n/a	5	50	ButtonPress	Neutral	True
480.761	0.5	Control	0.7059000000000001	n/a	Yes	2.787	n/a	n/a	GoodResponse	0	n/a	n/a	5	50	Blank	Neutral	True
481.261	1.45	Control	0.7059000000000001	n/a	Yes	2.787	n/a	5.0	GoodResponse	0	0.03	480.291	5	50	Feedback	Neutral	True
482.71	2.787	Control	0.7059000000000001	n/a	Yes	2.787	n/a	n/a	GoodResponse	0	0.0	n/a	5	50	ISIslide	Neutral	True
485.526	0.25	Control	0.7115	0.0	Yes	2.724	0.026	n/a	GoodResponse	0	n/a	n/a	5	51	Cue	Neutral	True
485.776	3.95	Control	0.7115	0.0	Yes	2.724	0.0	n/a	GoodResponse	0	n/a	n/a	5	51	Fixation	Neutral	True
489.725	0.19	Control	0.7115	0.001	Yes	2.724	-0.001	4.0	GoodResponse	0	0.174	488.899	5	51	Target	Neutral	True
489.899	0.3	Control	0.7115	0.001	Yes	2.724	-0.001	4.0	GoodResponse	0	0.174	n/a	5	51	ButtonPress	Neutral	True
489.925	0.51	Control	0.7115	n/a	Yes	2.724	n/a	n/a	GoodResponse	0	n/a	n/a	5	51	Blank	Neutral	True
490.424	1.45	Control	0.7115	n/a	Yes	2.724	n/a	5.0	GoodResponse	0	0.036	489.46	5	51	Feedback	Neutral	True
491.874	2.724	Control	0.7115	n/a	Yes	2.724	n/a	n/a	GoodResponse	0	0.0	n/a	5	51	ISIslide	Neutral	True
494.623	0.25	Control	0.6981	0.0	No	2.627	0.023	n/a	NoResponse	0	n/a	n/a	5	52	Cue	Neutral	True
494.873	4.05	Control	0.6981	0.0	No	2.627	0.0	n/a	NoResponse	0	n/a	n/a	5	52	Fixation	Neutral	True
498.921	0.18	Control	0.6981	0.002	No	2.627	-0.002	4.0	NoResponse	0	0.191	498.112	5	52	Target	Neutral	True
499.105	0.52	Control	0.6981	n/a	No	2.627	n/a	n/a	NoResponse	0	n/a	n/a	5	52	Blank	Neutral	True
499.112	0.3	Control	0.6981	0.002	No	2.627	-0.002	4.0	NoResponse	0	0.191	n/a	5	52	ButtonPress	Neutral	True
499.621	1.45	Control	0.6981	n/a	No	2.627	n/a	5.0	NoResponse	0	0.01	498.631	5	52	Feedback	Neutral	True
501.071	2.627	Control	0.6981	n/a	No	2.627	n/a	n/a	NoResponse	0	0.0	n/a	5	52	ISIslide	Neutral	True
503.72	0.25	Win2	0.6851999999999999	0.0	No	2.93	0.02	n/a	LatePress	0	n/a	n/a	5	53	Cue	MissedWin	True
503.97	4.05	Win2	0.6851999999999999	0.0	No	2.93	0.0	n/a	LatePress	0	n/a	n/a	5	53	Fixation	MissedWin	True
508.018	0.17	Win2	0.6851999999999999	0.002	No	2.93	-0.002	4.0	LatePress	0	0.175	507.193	5	53	Target	MissedWin	True
508.193	0.3	Win2	0.6851999999999999	0.002	No	2.93	-0.002	4.0	LatePress	0	0.175	n/a	5	53	ButtonPress	MissedWin	True
508.202	0.53	Win2	0.6851999999999999	n/a	No	2.93	n/a	n/a	LatePress	0	n/a	n/a	5	53	Blank	MissedWin	True
508.718	1.45	Win2	0.6851999999999999	n/a	No	2.93	n/a	5.0	LatePress	0	0.035	507.753	5	53	Feedback	MissedWin	True
510.168	2.93	Win2	0.6851999999999999	n/a	No	2.93	n/a	n/a	LatePress	0	0.0	n/a	5	53	ISIslide	MissedWin	True
513.117	0.25	Win2	0.6727	0.0	No	2.733	0.017	n/a	PrematurePress	0	n/a	n/a	5	54	Cue	MissedWin	True
513.366	3.95	Win2	0.6727	0.001	No	2.733	-0.001	n/a	PrematurePress	0	n/a	n/a	5	54	Fixation	MissedWin	True
517.315	0.16	Win2	0.6727	0.002	No	2.733	-0.002	4.0	PrematurePress	0	0.097	516.412	5	54	Target	MissedWin	True
517.412	0.3	Win2	0.6727	0.002	No	2.733	-0.002	4.0	PrematurePress	0	0.097	n/a	5	54	ButtonPress	MissedWin	True
517.482	0.54	Win2	0.6727	n/a	No	2.733	n/a	n/a	PrematurePress	0	n/a	n/a	5	54	Blank	MissedWin	True
518.015	1.45	Win2	0.6727	n/a	No	2.733	n/a	5.0	PrematurePress	0	0.007	517.022	5	54	Feedback	MissedWin	True
519.464	2.733	Win2	0.6727	n/a	No	2.733	n/a	n/a	PrematurePress	0	0.0	n/a	5	54	ISIslide	MissedWin	True
522.213	0.25	Control	0.6607	0.0	No	3.037	0.013	n/a	NoResponse	0	n/a	n/a	5	55	Cue	Neutral	True
522.463	3.95	Control	0.6607	0.0	No	3.037	0.0	n/a	NoResponse	0	n/a	n/a	5	55	Fixation	Neutral	True
526.412	0.15	Control	0.6607	0.001	No	3.037	-0.001	4.0	NoResponse	0	0.19	525.602	5	55	Target	Neutral	True
526.562	0.55	Control	0.6607	n/a	No	3.037	n/a	n/a	NoResponse	0	n/a	n/a	5	55	Blank	Neutral	True
526.602	0.3	Control	0.6607	0.001	No	3.037	-0.001	4.0	NoResponse	0	0.19	n/a	5	55	ButtonPress	Neutral	True
527.112	1.45	Control	0.6607	n/a	No	3.037	n/a	5.0	NoResponse	0	0.032	526.144	5	55	Feedback	Neutral	True
528.561	3.037	Control	0.6607	n/a	No	3.037	n/a	n/a	NoResponse	0	0.0	n/a	5	55	ISIslide	Neutral	True
531.627	0.25	Control	0.6491	0.0	No	2.823	0.027	n/a	NoResponse	0	n/a	n/a	5	56	Cue	Neutral	True
531.877	3.95	Control	0.6491	0.0	No	2.823	0.0	n/a	NoResponse	0	n/a	n/a	5	56	Fixation	Neutral	True
535.825	0.15	Control	0.6491	0.002	No	2.823	-0.002	4.0	NoResponse	0	0.163	534.988	5	56	Target	Neutral	True
535.975	0.55	Control	0.6491	n/a	No	2.823	n/a	n/a	NoResponse	0	n/a	n/a	5	56	Blank	Neutral	True
535.988	0.3	Control	0.6491	0.002	No	2.823	-0.002	4.0	NoResponse	0	0.163	n/a	5	56	ButtonPress	Neutral	True
536.525	1.45	Control	0.6491	n/a	No	2.823	n/a	5.0	NoResponse	0	0.034	535.559	5	56	Feedback	Neutral	True
537.975	2.823	Control	0.6491	n/a	No	2.823	n/a	n/a	NoResponse	0	0.0	n/a	5	56	ISIslide	Neutral	True
540.824	0.25	Control	0.6379	0.0	No	3.476	0.024	n/a	NoResponse	0	n/a	n/a	5	57	Cue	Neutral	True
541.074	4.0	Control	0.6379	0.0	No	3.476	0.0	n/a	NoResponse	0	n/a	n/a	5	57	Fixation	Neutral	True
545.072	0.16	Control	0.6379	0.002	No	3.476	-0.002	4.0	NoResponse	0	0.177	544.249	5	57	Target	Neutral	True
545.239	0.54	Control	0.6379	n/a	No	3.476	n/a	n/a	NoResponse	0	n/a	n/a	5	57	Blank	Neutral	True
545.249	0.3	Control	0.6379	0.002	No	3.476	-0.002	4.0	NoResponse	0	0.177	n/a	5	57	ButtonPress	Neutral	True
545.772	1.45	Control	0.6379	n/a	No	3.476	n/a	5.0	NoResponse	0	0.008	544.78	5	57	Feedback	Neutral	True
547.221	3.476	Control	0.6379	n/a	No	3.476	n/a	n/a	NoResponse	0	0.0	n/a	5	57	ISIslide	Neutral	True
550.72	0.25	Win2	0.6441	0.0	Yes	2.73	0.02	n/a	GoodResponse	1	n/a	n/a	6	58	Cue	Win	True
550.97	4.05	Win2	0.6441	0.0	Yes	2.73	0.0	n/a	GoodResponse	1	n/a	n/a	6	58	Fixation	Win	True
555.019	0.17	Win2	0.6441	0.001	Yes	2.73	-0.001	4.0	GoodResponse	1	0.165	554.184	6	58	Target	Win	True
555.184	0.3	Win2	0.6441	0.001	Yes	2.73	-0.001	4.0	GoodResponse	1	0.165	n/a	6	58	ButtonPress	Win	True
555.202	0.53	Win2	0.6441	n/a	Yes	2.73	n/a	n/a	GoodResponse	1	n/a	n/a	6	58	Blank	Win	True
555.718	1.45	Win2	0.6441	n/a	Yes	2.73	n/a	5.0	GoodResponse	1	0.012	554.73	6	58	Feedback	Win	True
557.168	2.73	Win2	0.6441	n/a	Yes	2.73	n/a	n/a	GoodResponse	1	0.0	n/a	6	58	ISIslide	Win	True
559.917	0.25	Lose2	0.65	0.0	Yes	2.683	0.017	n/a	GoodResponse	0	n/a	n/a	6	59	Cue	AvoidedLoss	True
560.167	4.0	Lose2	0.65	0.0	Yes	2.683	0.0	n/a	GoodResponse	0	n/a	n/a	6	59	Fixation	AvoidedLoss	True
564.166	0.18	Lose2	0.65	0.001	Yes	2.683	-0.001	4.0	GoodResponse	0	0.158	563.324	6	59	Target	AvoidedLoss	True
564.324	0.3	Lose2	0.65	0.001	Yes	2.683	-0.001	4.0	GoodResponse	0	0.158	n/a	6	59	ButtonPress	AvoidedLoss	True
564.349	0.52	Lose2	0.65	n/a	Yes	2.683	n/a	n/a	GoodResponse	0	n/a	n/a	6	59	Blank	AvoidedLoss	True
564.865	1.45	Lose2	0.65	n/a	Yes	2.683	n/a	5.0	GoodResponse	0	0.034	563.899	6	59	Feedback	AvoidedLoss	True
566.315	2.683	Lose2	0.65	n/a	Yes	2.683	n/a	n/a	GoodResponse	0	0.0	n/a	6	59	ISIslide	AvoidedLoss	True
569.014	0.25	Control	0.6557	0.0	Yes	2.686	0.014	n/a	GoodResponse	0	n/a	n/a	6	60	Cue	Neutral	True
569.264	4.0	Control	0.6557	0.0	Yes	2.686	0.0	n/a	GoodResponse	0	n/a	n/a	6	60	Fixation	Neutral	True
573.262	0.19	Control	0.6557	0.002	Yes	2.686	-0.002	4.0	GoodResponse	0	0.166	572.428	6	60	Target	Neutral	True
573.428	0.3	Control	0.6557	0.002	Yes	2.686	-0.002	4.0	GoodResponse	0	0.166	n/a	6	60	ButtonPress	Neutral	True
573.462	0.51	Control	0.6557	n/a	Yes	2.686	n/a	n/a	GoodResponse	0	n/a	n/a	6	60	Blank	Neutral	True
573.962	1.45	Control	0.6557	n/a	Yes	2.686	n/a	5.0	GoodResponse	0	0.011	572.973	6	60	Feedback	Neutral	True
575.412	2.686	Control	0.6557	n/a	Yes	2.686	n/a	n/a	GoodResponse	0	0.0	n/a	6	60	ISIslide	Neutral	True
578.127	0.25	Lose2	0.6613	0.0	Yes	2.973	0.027	n/a	GoodResponse	0	n/a	n/a	6	61	Cue	AvoidedLoss	True
578.377	4.0	Lose2	0.6613	0.0	Yes	2.973	0.0	n/a	GoodResponse	0	n/a	n/a	6	61	Fixation	AvoidedLoss	True
582.376	0.19	Lose2	0.6613	0.001	Yes	2.973	-0.001	4.0	GoodResponse	0	0.17	581.546	6	61	Target	AvoidedLoss	True
582.546	0.3	Lose2	0.6613	0.001	Yes	2.973	-0.001	4.0	GoodResponse	0	0.17	n/a	6	61	ButtonPress	AvoidedLoss	True
582.576	0.51	Lose2	0.6613	n/a	Yes	2.973	n/a	n/a	GoodResponse	0	n/a	n/a	6	61	Blank	AvoidedLoss	True
583.076	1.45	Lose2	0.6613	n/a	Yes	2.973	n/a	5.0	GoodResponse	0	0.019	582.095	6	61	Feedback	AvoidedLoss	True
584.525	2.973	Lose2	0.6613	n/a	Yes	2.973	n/a	n/a	GoodResponse	0	0.0	n/a	6	61	ISIslide	AvoidedLoss	True
587.524	0.25	Lose2	0.6507999999999999	0.0	No	2.876	0.024	n/a	NoResponse	-1	n/a	n/a	5	62	Cue	Loss	True
587.774	3.9	Lose2	0.6507999999999999	0.0	No	2.876	0.0	n/a	NoResponse	-1	n/a	n/a	5	62	Fixation	Loss	True
591.673	0.19	Lose2	0.6507999999999999	0.001	No	2.876	-0.001	4.0	NoResponse	-1	0.205	590.878	5	62	Target	Loss	True
591.873	0.51	Lose2	0.6507999999999999	n/a	No	2.876	n/a	n/a	NoResponse	-1	n/a	n/a	5	62	Blank	Loss	True
591.878	0.3	Lose2	0.6507999999999999	0.001	No	2.876	-0.001	4.0	NoResponse	-1	0.205	n/a	5	62	ButtonPress	Loss	True
592.372	1.45	Lose2	0.6507999999999999	n/a	No	2.876	n/a	5.0	NoResponse	-1	0.04	591.412	5	62	Feedback	Loss	True
593.822	2.876	Lose2	0.6507999999999999	n/a	No	2.876	n/a	n/a	NoResponse	-1	0.0	n/a	5	62	ISIslide	Loss	True
596.721	0.25	Lose2	0.6562	0.0	Yes	2.629	0.021	n/a	GoodResponse	0	n/a	n/a	5	63	Cue	AvoidedLoss	True
596.971	4.05	Lose2	0.6562	0.0	Yes	2.629	0.0	n/a	GoodResponse	0	n/a	n/a	5	63	Fixation	AvoidedLoss	True
601.02	0.2	Lose2	0.6562	0.001	Yes	2.629	-0.001	4.0	GoodResponse	0	0.166	600.186	5	63	Target	AvoidedLoss	True
601.186	0.3	Lose2	0.6562	0.001	Yes	2.629	-0.001	4.0	GoodResponse	0	0.166	n/a	5	63	ButtonPress	AvoidedLoss	True
601.219	0.5	Lose2	0.6562	n/a	Yes	2.629	n/a	n/a	GoodResponse	0	n/a	n/a	5	63	Blank	AvoidedLoss	True
601.719	1.45	Lose2	0.6562	n/a	Yes	2.629	n/a	5.0	GoodResponse	0	0.01	600.729	5	63	Feedback	AvoidedLoss	True
603.169	2.629	Lose2	0.6562	n/a	Yes	2.629	n/a	n/a	GoodResponse	0	0.0	n/a	5	63	ISIslide	AvoidedLoss	True
605.818	0.25	Win2	0.6615000000000001	0.0	Yes	3.132	0.018	n/a	GoodResponse	1	n/a	n/a	6	64	Cue	Win	True
606.068	4.15	Win2	0.6615000000000001	0.0	Yes	3.132	0.0	n/a	GoodResponse	1	n/a	n/a	6	64	Fixation	Win	True
610.216	0.2	Win2	0.6615000000000001	0.002	Yes	3.132	-0.002	4.0	GoodResponse	1	0.146	609.362	6	64	Target	Win	True
610.362	0.3	Win2	0.6615000000000001	0.002	Yes	3.132	-0.002	4.0	GoodResponse	1	0.146	n/a	6	64	ButtonPress	Win	True
610.416	0.5	Win2	0.6615000000000001	n/a	Yes	3.132	n/a	n/a	GoodResponse	1	n/a	n/a	6	64	Blank	Win	True
610.916	1.45	Win2	0.6615000000000001	n/a	Yes	3.132	n/a	5.0	GoodResponse	1	0.032	609.948	6	64	Feedback	Win	True
612.366	3.132	Win2	0.6615000000000001	n/a	Yes	3.132	n/a	n/a	GoodResponse	1	0.0	n/a	6	64	ISIslide	Win	True
615.514	0.25	Control	0.6667000000000001	0.001	Yes	2.786	0.014	n/a	GoodResponse	0	n/a	n/a	6	65	Cue	Neutral	True
615.764	4.0	Control	0.6667000000000001	0.0	Yes	2.786	0.0	n/a	GoodResponse	0	n/a	n/a	6	65	Fixation	Neutral	True
619.763	0.2	Control	0.6667000000000001	0.001	Yes	2.786	-0.001	4.0	GoodResponse	0	0.198	618.961	6	65	Target	Neutral	True
619.961	0.3	Control	0.6667000000000001	0.001	Yes	2.786	-0.001	4.0	GoodResponse	0	0.198	n/a	6	65	ButtonPress	Neutral	True
619.963	0.5	Control	0.6667000000000001	n/a	Yes	2.786	n/a	n/a	GoodResponse	0	n/a	n/a	6	65	Blank	Neutral	True
620.463	1.45	Control	0.6667000000000001	n/a	Yes	2.786	n/a	5.0	GoodResponse	0	0.046	619.509	6	65	Feedback	Neutral	True
621.912	2.786	Control	0.6667000000000001	n/a	Yes	2.786	n/a	n/a	GoodResponse	0	0.0	n/a	6	65	ISIslide	Neutral	True
624.728	0.25	Win2	0.6567000000000001	0.0	No	2.772	0.028	n/a	NoResponse	0	n/a	n/a	6	66	Cue	MissedWin	True
624.978	3.9	Win2	0.6567000000000001	0.0	No	2.772	0.0	n/a	NoResponse	0	n/a	n/a	6	66	Fixation	MissedWin	True
628.877	0.19	Win2	0.6567000000000001	0.001	No	2.772	-0.001	4.0	NoResponse	0	0.205	628.082	6	66	Target	MissedWin	True
629.076	0.51	Win2	0.6567000000000001	n/a	No	2.772	n/a	n/a	NoResponse	0	n/a	n/a	6	66	Blank	MissedWin	True
629.082	0.3	Win2	0.6567000000000001	0.001	No	2.772	-0.001	4.0	NoResponse	0	0.205	n/a	6	66	ButtonPress	MissedWin	True
629.576	1.45	Win2	0.6567000000000001	n/a	No	2.772	n/a	5.0	NoResponse	0	0.006	628.582	6	66	Feedback	MissedWin	True
631.026	2.772	Win2	0.6567000000000001	n/a	No	2.772	n/a	n/a	NoResponse	0	0.0	n/a	6	66	ISIslide	MissedWin	True
633.825	0.25	Control	0.6470999999999999	0.0	No	2.725	0.025	n/a	PrematurePress	0	n/a	n/a	6	67	Cue	Neutral	True
634.075	3.95	Control	0.6470999999999999	0.0	No	2.725	0.0	n/a	PrematurePress	0	n/a	n/a	6	67	Fixation	Neutral	True
638.023	0.19	Control	0.6470999999999999	0.002	No	2.725	-0.002	4.0	PrematurePress	0	0.062	637.085	6	67	Target	Neutral	True
638.085	0.3	Control	0.6470999999999999	0.002	No	2.725	-0.002	4.0	PrematurePress	0	0.062	n/a	6	67	ButtonPress	Neutral	True
638.223	0.51	Control	0.6470999999999999	n/a	No	2.725	n/a	n/a	PrematurePress	0	n/a	n/a	6	67	Blank	Neutral	True
638.723	1.45	Control	0.6470999999999999	n/a	No	2.725	n/a	5.0	PrematurePress	0	0.03	637.753	6	67	Feedback	Neutral	True
640.173	2.725	Control	0.6470999999999999	n/a	No	2.725	n/a	n/a	PrematurePress	0	0.0	n/a	6	67	ISIslide	Neutral	True
642.922	0.25	Win2	0.6522	0.0	Yes	3.078	0.022	n/a	GoodResponse	1	n/a	n/a	7	68	Cue	Win	True
643.172	4.0	Win2	0.6522	0.0	Yes	3.078	0.0	n/a	GoodResponse	1	n/a	n/a	7	68	Fixation	Win	True
647.17	0.2	Win2	0.6522	0.002	Yes	3.078	-0.002	4.0	GoodResponse	1	0.179	646.349	7	68	Target	Win	True
647.349	0.3	Win2	0.6522	0.002	Yes	3.078	-0.002	4.0	GoodResponse	1	0.179	n/a	7	68	ButtonPress	Win	True
647.37	0.5	Win2	0.6522	n/a	Yes	3.078	n/a	n/a	GoodResponse	1	n/a	n/a	7	68	Blank	Win	True
647.87	1.45	Win2	0.6522	n/a	Yes	3.078	n/a	5.0	GoodResponse	1	0.005	646.875	7	68	Feedback	Win	True
649.319	3.078	Win2	0.6522	n/a	Yes	3.078	n/a	n/a	GoodResponse	1	0.0	n/a	7	68	ISIslide	Win	True
652.418	0.25	Win2	0.6570999999999999	0.001	Yes	3.232	0.018	n/a	GoodResponse	1	n/a	n/a	8	69	Cue	Win	True
652.668	3.95	Win2	0.6570999999999999	0.0	Yes	3.232	0.0	n/a	GoodResponse	1	n/a	n/a	8	69	Fixation	Win	True
656.617	0.21	Win2	0.6570999999999999	0.001	Yes	3.232	-0.001	4.0	GoodResponse	1	0.202	655.819	8	69	Target	Win	True
656.819	0.3	Win2	0.6570999999999999	0.001	Yes	3.232	-0.001	4.0	GoodResponse	1	0.202	n/a	8	69	ButtonPress	Win	True
656.834	0.49	Win2	0.6570999999999999	n/a	Yes	3.232	n/a	n/a	GoodResponse	1	n/a	n/a	8	69	Blank	Win	True
657.317	1.45	Win2	0.6570999999999999	n/a	Yes	3.232	n/a	5.0	GoodResponse	1	0.022	656.339	8	69	Feedback	Win	True
658.766	3.232	Win2	0.6570999999999999	n/a	Yes	3.232	n/a	n/a	GoodResponse	1	0.0	n/a	8	69	ISIslide	Win	True
662.015	0.25	Lose2	0.662	0.0	Yes	3.035	0.015	n/a	GoodResponse	0	n/a	n/a	8	70	Cue	AvoidedLoss	True
662.265	4.05	Lose2	0.662	0.0	Yes	3.035	0.0	n/a	GoodResponse	0	n/a	n/a	8	70	Fixation	AvoidedLoss	True
666.314	0.21	Lose2	0.662	0.001	Yes	3.035	-0.001	4.0	GoodResponse	0	0.179	665.493	8	70	Target	AvoidedLoss	True
666.493	0.3	Lose2	0.662	0.001	Yes	3.035	-0.001	4.0	GoodResponse	0	0.179	n/a	8	70	ButtonPress	AvoidedLoss	True
666.53	0.49	Lose2	0.662	n/a	Yes	3.035	n/a	n/a	GoodResponse	0	n/a	n/a	8	70	Blank	AvoidedLoss	True
667.013	1.45	Lose2	0.662	n/a	Yes	3.035	n/a	5.0	GoodResponse	0	0.033	666.046	8	70	Feedback	AvoidedLoss	True
668.463	3.035	Lose2	0.662	n/a	Yes	3.035	n/a	n/a	GoodResponse	0	0.0	n/a	8	70	ISIslide	AvoidedLoss	True
671.512	0.25	Win2	0.6667000000000001	0.0	Yes	2.738	0.012	n/a	GoodResponse	1	n/a	n/a	9	71	Cue	Win	True
671.762	4.05	Win2	0.6667000000000001	0.0	Yes	2.738	0.0	n/a	GoodResponse	1	n/a	n/a	9	71	Fixation	Win	True
675.81	0.21	Win2	0.6667000000000001	0.002	Yes	2.738	-0.002	4.0	GoodResponse	1	0.175	674.985	9	71	Target	Win	True
675.985	0.3	Win2	0.6667000000000001	0.002	Yes	2.738	-0.002	4.0	GoodResponse	1	0.175	n/a	9	71	ButtonPress	Win	True
676.027	0.49	Win2	0.6667000000000001	n/a	Yes	2.738	n/a	n/a	GoodResponse	1	n/a	n/a	9	71	Blank	Win	True
676.51	1.45	Win2	0.6667000000000001	n/a	Yes	2.738	n/a	5.0	GoodResponse	1	0.047	675.557	9	71	Feedback	Win	True
677.96	2.738	Win2	0.6667000000000001	n/a	Yes	2.738	n/a	n/a	GoodResponse	1	0.0	n/a	9	71	ISIslide	Win	True
680.725	0.25	Win2	0.6712	0.0	Yes	2.775	0.025	n/a	GoodResponse	1	n/a	n/a	10	72	Cue	Win	True
680.975	4.1	Win2	0.6712	0.0	Yes	2.775	0.0	n/a	GoodResponse	1	n/a	n/a	10	72	Fixation	Win	True
685.074	0.2	Win2	0.6712	0.001	Yes	2.775	-0.001	4.0	GoodResponse	1	0.183	684.257	10	72	Target	Win	True
685.257	0.3	Win2	0.6712	0.001	Yes	2.775	-0.001	4.0	GoodResponse	1	0.183	n/a	10	72	ButtonPress	Win	True
685.274	0.5	Win2	0.6712	n/a	Yes	2.775	n/a	n/a	GoodResponse	1	n/a	n/a	10	72	Blank	Win	True
685.774	1.45	Win2	0.6712	n/a	Yes	2.775	n/a	5.0	GoodResponse	1	0.004	684.778	10	72	Feedback	Win	True
687.223	2.775	Win2	0.6712	n/a	Yes	2.775	n/a	n/a	GoodResponse	1	0.0	n/a	10	72	ISIslide	Win	True
690.022	0.25	Win2	0.6622	0.0	No	2.678	0.022	n/a	LatePress	0	n/a	n/a	10	73	Cue	MissedWin	True
690.272	4.0	Win2	0.6622	0.0	No	2.678	0.0	n/a	LatePress	0	n/a	n/a	10	73	Fixation	MissedWin	True
694.271	0.19	Win2	0.6622	0.001	No	2.678	-0.001	4.0	LatePress	0	0.195	693.466	10	73	Target	MissedWin	True
694.466	0.3	Win2	0.6622	0.001	No	2.678	-0.001	4.0	LatePress	0	0.195	n/a	10	73	ButtonPress	MissedWin	True
694.471	0.51	Win2	0.6622	n/a	No	2.678	n/a	n/a	LatePress	0	n/a	n/a	10	73	Blank	MissedWin	True
694.97	1.45	Win2	0.6622	n/a	No	2.678	n/a	5.0	LatePress	0	0.027	693.997	10	73	Feedback	MissedWin	True
696.42	2.678	Win2	0.6622	n/a	No	2.678	n/a	n/a	LatePress	0	0.0	n/a	10	73	ISIslide	MissedWin	True
699.119	0.25	Lose2	0.6667000000000001	0.0	Yes	2.631	0.019	n/a	GoodResponse	0	n/a	n/a	10	74	Cue	AvoidedLoss	True
699.369	4.05	Lose2	0.6667000000000001	0.0	Yes	2.631	0.0	n/a	GoodResponse	0	n/a	n/a	10	74	Fixation	AvoidedLoss	True
703.417	0.19	Lose2	0.6667000000000001	0.002	Yes	2.631	-0.002	4.0	GoodResponse	0	0.186	702.603	10	74	Target	AvoidedLoss	True
703.603	0.3	Lose2	0.6667000000000001	0.002	Yes	2.631	-0.002	4.0	GoodResponse	0	0.186	n/a	10	74	ButtonPress	AvoidedLoss	True
703.617	0.51	Lose2	0.6667000000000001	n/a	Yes	2.631	n/a	n/a	GoodResponse	0	n/a	n/a	10	74	Blank	AvoidedLoss	True
704.117	1.45	Lose2	0.6667000000000001	n/a	Yes	2.631	n/a	5.0	GoodResponse	0	0.002	703.119	10	74	Feedback	AvoidedLoss	True
705.567	2.631	Lose2	0.6667000000000001	n/a	Yes	2.631	n/a	n/a	GoodResponse	0	0.0	n/a	10	74	ISIslide	AvoidedLoss	True
708.216	0.25	Lose2	0.6579	0.0	No	2.934	0.016	n/a	NoResponse	-1	n/a	n/a	9	75	Cue	Loss	True
708.466	3.95	Lose2	0.6579	0.0	No	2.934	0.0	n/a	NoResponse	-1	n/a	n/a	9	75	Fixation	Loss	True
712.414	0.18	Lose2	0.6579	0.002	No	2.934	-0.002	4.0	NoResponse	-1	0.193	711.607	9	75	Target	Loss	True
712.598	0.52	Lose2	0.6579	n/a	No	2.934	n/a	n/a	NoResponse	-1	n/a	n/a	9	75	Blank	Loss	True
712.607	0.3	Lose2	0.6579	0.002	No	2.934	-0.002	4.0	NoResponse	-1	0.193	n/a	9	75	ButtonPress	Loss	True
713.114	1.45	Lose2	0.6579	n/a	No	2.934	n/a	5.0	NoResponse	-1	0.029	712.143	9	75	Feedback	Loss	True
714.564	2.934	Lose2	0.6579	n/a	No	2.934	n/a	n/a	NoResponse	-1	0.0	n/a	9	75	ISIslide	Loss	True
717.513	0.25	Control	0.6494	0.0	No	3.237	0.013	n/a	PrematurePress	0	n/a	n/a	9	76	Cue	Neutral	True
717.762	4.05	Control	0.6494	0.001	No	3.237	-0.001	n/a	PrematurePress	0	n/a	n/a	9	76	Fixation	Neutral	True
721.811	0.18	Control	0.6494	0.002	No	3.237	-0.002	4.0	PrematurePress	0	0.07	720.881	9	76	Target	Neutral	True
721.881	0.3	Control	0.6494	0.002	No	3.237	-0.002	4.0	PrematurePress	0	0.07	n/a	9	76	ButtonPress	Neutral	True
721.994	0.52	Control	0.6494	n/a	No	3.237	n/a	n/a	PrematurePress	0	n/a	n/a	9	76	Blank	Neutral	True
722.511	1.45	Control	0.6494	n/a	No	3.237	n/a	5.0	PrematurePress	0	0.047	721.558	9	76	Feedback	Neutral	True
723.96	3.237	Control	0.6494	n/a	No	3.237	n/a	n/a	PrematurePress	0	0.0	n/a	9	76	ISIslide	Neutral	True
727.226	0.25	Lose2	0.6537999999999999	0.0	Yes	2.574	0.026	n/a	GoodResponse	0	n/a	n/a	9	77	Cue	AvoidedLoss	True
727.476	3.95	Lose2	0.6537999999999999	0.0	Yes	2.574	0.0	n/a	GoodResponse	0	n/a	n/a	9	77	Fixation	AvoidedLoss	True
731.424	0.19	Lose2	0.6537999999999999	0.002	Yes	2.574	-0.002	4.0	GoodResponse	0	0.172	730.596	9	77	Target	AvoidedLoss	True
731.596	0.3	Lose2	0.6537999999999999	0.002	Yes	2.574	-0.002	4.0	GoodResponse	0	0.172	n/a	9	77	ButtonPress	AvoidedLoss	True
731.624	0.51	Lose2	0.6537999999999999	n/a	Yes	2.574	n/a	n/a	GoodResponse	0	n/a	n/a	9	77	Blank	AvoidedLoss	True
732.124	1.45	Lose2	0.6537999999999999	n/a	Yes	2.574	n/a	5.0	GoodResponse	0	0.043	731.167	9	77	Feedback	AvoidedLoss	True
733.574	2.574	Lose2	0.6537999999999999	n/a	Yes	2.574	n/a	n/a	GoodResponse	0	0.0	n/a	9	77	ISIslide	AvoidedLoss	True
