onset	duration	cue_type	current_mean_accuracy	duration_error	is_hit	isi_adjusted	onset_delay	response	response_type	reward	rt	rt_time	total_reward	trial_number	trial_phase	trial_type	one_press
11.104	0.25	Control	1.0	0.001	Yes	2.946	0.004	n/a	GoodResponse	0	n/a	n/a	0	0	Cue	Neutral	True
11.355	3.85	Control	1.0	0.0	Yes	2.946	0.001	n/a	GoodResponse	0	n/a	n/a	0	0	Fixation	Neutral	True
15.2	0.4	Control	1.0	0.004	Yes	2.946	-0.004	1.0	GoodResponse	0	0.235	14.435	0	0	Target	Neutral	True
15.435	0.3	Control	1.0	0.004	Yes	2.946	-0.004	1.0	GoodResponse	0	0.235	n/a	0	0	ButtonPress	Neutral	True
15.601	0.3	Control	1.0	n/a	Yes	2.946	n/a	n/a	GoodResponse	0	n/a	n/a	0	0	Blank	Neutral	True
15.902	1.45	Control	1.0	n/a	Yes	2.946	n/a	5.0	GoodResponse	0	0.027	14.929	0	0	Feedback	Neutral	True
17.356	2.946	Control	1.0	n/a	Yes	2.946	n/a	n/a	GoodResponse	0	0.0	n/a	0	0	ISIslide	Neutral	True
20.332	0.25	Lose2	1.0	0.0	Yes	2.768	0.032	n/a	GoodResponse	0	n/a	n/a	0	1	Cue	AvoidedLoss	True
20.583	4.0	Lose2	1.0	0.0	Yes	2.768	0.001	n/a	GoodResponse	0	n/a	n/a	0	1	Fixation	AvoidedLoss	True
24.578	0.39	Lose2	1.0	0.004	Yes	2.768	-0.004	1.0	GoodResponse	0	0.231	23.809	0	1	Target	AvoidedLoss	True
24.809	0.3	Lose2	1.0	0.004	Yes	2.768	-0.004	1.0	GoodResponse	0	0.231	n/a	0	1	ButtonPress	AvoidedLoss	True
24.979	0.31	Lose2	1.0	n/a	Yes	2.768	n/a	n/a	GoodResponse	0	n/a	n/a	0	1	Blank	AvoidedLoss	True
25.28	1.45	Lose2	1.0	n/a	Yes	2.768	n/a	5.0	GoodResponse	0	0.015	24.295	0	1	Feedback	AvoidedLoss	True
26.735	2.768	Lose2	1.0	n/a	Yes	2.768	n/a	n/a	GoodResponse	0	0.0	n/a	0	1	ISIslide	AvoidedLoss	True
29.526	0.25	Control	1.0	0.0	Yes	2.574	0.026	n/a	GoodResponse	0	n/a	n/a	0	2	Cue	Neutral	True
29.777	4.1	Control	1.0	0.0	Yes	2.574	0.001	n/a	GoodResponse	0	n/a	n/a	0	2	Fixation	Neutral	True
33.873	0.38	Control	1.0	0.003	Yes	2.574	-0.003	1.0	GoodResponse	0	0.215	33.088	0	2	Target	Neutral	True
34.088	0.3	Control	1.0	0.003	Yes	2.574	-0.003	1.0	GoodResponse	0	0.215	n/a	0	2	ButtonPress	Neutral	True
34.257	0.32	Control	1.0	n/a	Yes	2.574	n/a	n/a	GoodResponse	0	n/a	n/a	0	2	Blank	Neutral	True
34.575	1.45	Control	1.0	n/a	Yes	2.574	n/a	5.0	GoodResponse	0	0.036	33.611	0	2	Feedback	Neutral	True
36.029	2.574	Control	1.0	n/a	Yes	2.574	n/a	n/a	GoodResponse	0	0.0	n/a	0	2	ISIslide	Neutral	True
38.62	0.25	Win2	1.0	0.0	Yes	2.83	0.02	n/a	GoodResponse	1	n/a	n/a	1	3	Cue	Win	True
38.871	3.95	Win2	1.0	0.0	Yes	2.83	0.001	n/a	GoodResponse	1	n/a	n/a	1	3	Fixation	Win	True
42.816	0.37	Win2	1.0	0.004	Yes	2.83	-0.004	1.0	GoodResponse	1	0.224	42.04	1	3	Target	Win	True
43.04	0.3	Win2	1.0	0.004	Yes	2.83	-0.004	1.0	GoodResponse	1	0.224	n/a	1	3	ButtonPress	Win	True
43.201	0.33	Win2	1.0	n/a	Yes	2.83	n/a	n/a	GoodResponse	1	n/a	n/a	1	3	Blank	Win	True
43.518	1.45	Win2	1.0	n/a	Yes	2.83	n/a	5.0	GoodResponse	1	0.02	42.538	1	3	Feedback	Win	True
44.973	2.83	Win2	1.0	n/a	Yes	2.83	n/a	n/a	GoodResponse	1	0.0	n/a	1	3	ISIslide	Win	True
47.831	0.25	Win2	1.0	0.0	Yes	3.269	0.031	n/a	GoodResponse	1	n/a	n/a	2	4	Cue	Win	True
48.082	4.0	Win2	1.0	0.0	Yes	3.269	0.001	n/a	GoodResponse	1	n/a	n/a	2	4	Fixation	Win	True
52.077	0.36	Win2	1.0	0.004	Yes	3.269	-0.004	1.0	GoodResponse	1	0.237	51.314	2	4	Target	Win	True
52.314	0.3	Win2	1.0	0.004	Yes	3.269	-0.004	1.0	GoodResponse	1	0.237	n/a	2	4	ButtonPress	Win	True
52.445	0.34	Win2	1.0	n/a	Yes	3.269	n/a	n/a	GoodResponse	1	n/a	n/a	2	4	Blank	Win	True
52.779	1.45	Win2	1.0	n/a	Yes	3.269	n/a	5.0	GoodResponse	1	0.028	51.807	2	4	Feedback	Win	True
54.234	3.269	Win2	1.0	n/a	Yes	3.269	n/a	n/a	GoodResponse	1	0.0	n/a	2	4	ISIslide	Win	True
57.527	0.25	Win2	1.0	0.0	Yes	2.773	0.027	n/a	GoodResponse	1	n/a	n/a	3	5	Cue	Win	True
57.778	4.0	Win2	1.0	0.0	Yes	2.773	0.001	n/a	GoodResponse	1	n/a	n/a	3	5	Fixation	Win	True
61.773	0.35	Win2	1.0	0.004	Yes	2.773	-0.004	1.0	GoodResponse	1	0.242	61.015	3	5	Target	Win	True
62.015	0.3	Win2	1.0	0.004	Yes	2.773	-0.004	1.0	GoodResponse	1	0.242	n/a	3	5	ButtonPress	Win	True
62.124	0.35	Win2	1.0	n/a	Yes	2.773	n/a	n/a	GoodResponse	1	n/a	n/a	3	5	Blank	Win	True
62.475	1.45	Win2	1.0	n/a	Yes	2.773	n/a	5.0	GoodResponse	1	0.039	61.514	3	5	Feedback	Win	True
63.929	2.773	Win2	1.0	n/a	Yes	2.773	n/a	n/a	GoodResponse	1	0.0	n/a	3	5	ISIslide	Win	True
66.721	0.25	Lose2	1.0	0.0	Yes	2.729	0.021	n/a	GoodResponse	0	n/a	n/a	3	6	Cue	AvoidedLoss	True
66.972	3.95	Lose2	1.0	0.0	Yes	2.729	0.001	n/a	GoodResponse	0	n/a	n/a	3	6	Fixation	AvoidedLoss	True
70.917	0.34	Lose2	1.0	0.004	Yes	2.729	-0.004	1.0	GoodResponse	0	0.246	70.163	3	6	Target	AvoidedLoss	True
71.163	0.3	Lose2	1.0	0.004	Yes	2.729	-0.004	1.0	GoodResponse	0	0.246	n/a	3	6	ButtonPress	AvoidedLoss	True
71.268	0.36	Lose2	1.0	n/a	Yes	2.729	n/a	n/a	GoodResponse	0	n/a	n/a	3	6	Blank	AvoidedLoss	True
71.619	1.45	Lose2	1.0	n/a	Yes	2.729	n/a	5.0	GoodResponse	0	0.017	70.636	3	6	Feedback	AvoidedLoss	True
73.073	2.729	Lose2	1.0	n/a	Yes	2.729	n/a	n/a	GoodResponse	0	0.0	n/a	3	6	ISIslide	AvoidedLoss	True
75.815	0.25	Lose2	1.0	0.0	Yes	4.035	0.015	n/a	GoodResponse	0	n/a	n/a	3	7	Cue	AvoidedLoss	True
76.066	4.05	Lose2	1.0	0.0	Yes	4.035	0.001	n/a	GoodResponse	0	n/a	n/a	3	7	Fixation	AvoidedLoss	True
80.111	0.33	Lose2	1.0	0.004	Yes	4.035	-0.004	1.0	GoodResponse	0	0.236	79.347	3	7	Target	AvoidedLoss	True
80.347	0.3	Lose2	1.0	0.004	Yes	4.035	-0.004	1.0	GoodResponse	0	0.236	n/a	3	7	ButtonPress	AvoidedLoss	True
80.446	0.37	Lose2	1.0	n/a	Yes	4.035	n/a	n/a	GoodResponse	0	n/a	n/a	3	7	Blank	AvoidedLoss	True
80.813	1.45	Lose2	1.0	n/a	Yes	4.035	n/a	5.0	GoodResponse	0	0.043	79.856	3	7	Feedback	AvoidedLoss	True
82.268	4.035	Lose2	1.0	n/a	Yes	4.035	n/a	n/a	GoodResponse	0	0.0	n/a	3	7	ISIslide	AvoidedLoss	True
86.33	0.25	Lose2	1.0	0.0	Yes	3.02	0.03	n/a	GoodResponse	0	n/a	n/a	3	8	Cue	AvoidedLoss	True
86.581	3.95	Lose2	1.0	0.0	Yes	3.02	0.001	n/a	GoodResponse	0	n/a	n/a	3	8	Fixation	AvoidedLoss	True
90.526	0.32	Lose2	1.0	0.004	Yes	3.02	-0.004	1.0	GoodResponse	0	0.241	89.767	3	8	Target	AvoidedLoss	True
90.767	0.3	Lose2	1.0	0.004	Yes	3.02	-0.004	1.0	GoodResponse	0	0.241	n/a	3	8	ButtonPress	AvoidedLoss	True
90.86	0.38	Lose2	1.0	n/a	Yes	3.02	n/a	n/a	GoodResponse	0	n/a	n/a	3	8	Blank	AvoidedLoss	True
91.228	1.45	Lose2	1.0	n/a	Yes	3.02	n/a	5.0	GoodResponse	0	0.017	90.245	3	8	Feedback	AvoidedLoss	True
92.682	3.02	Lose2	1.0	n/a	Yes	3.02	n/a	n/a	GoodResponse	0	0.0	n/a	3	8	ISIslide	AvoidedLoss	True
95.725	0.25	Lose2	1.0	0.0	Yes	3.125	0.025	n/a	GoodResponse	0	n/a	n/a	3	9	Cue	AvoidedLoss	True
95.975	3.95	Lose2	1.0	0.0	Yes	3.125	0.0	n/a	GoodResponse	0	n/a	n/a	3	9	Fixation	AvoidedLoss	True
99.921	0.31	Lose2	1.0	0.004	Yes	3.125	-0.004	1.0	GoodResponse	0	0.239	99.16	3	9	Target	AvoidedLoss	True
100.16	0.3	Lose2	1.0	0.004	Yes	3.125	-0.004	1.0	GoodResponse	0	0.239	n/a	3	9	ButtonPress	AvoidedLoss	True
100.238	0.39	Lose2	1.0	n/a	Yes	3.125	n/a	n/a	GoodResponse	0	n/a	n/a	3	9	Blank	AvoidedLoss	True
100.623	1.45	Lose2	1.0	n/a	Yes	3.125	n/a	5.0	GoodResponse	0	0.037	99.66	3	9	Feedback	AvoidedLoss	True
102.077	3.125	Lose2	1.0	n/a	Yes	3.125	n/a	n/a	GoodResponse	0	0.0	n/a	3	9	ISIslide	AvoidedLoss	True
105.22	0.25	Control	1.0	0.0	Yes	3.28	0.02	n/a	GoodResponse	0	n/a	n/a	3	10	Cue	Neutral	True
105.471	4.0	Control	1.0	0.0	Yes	3.28	0.001	n/a	GoodResponse	0	n/a	n/a	3	10	Fixation	Neutral	True
109.466	0.3	Control	1.0	0.004	Yes	3.28	-0.004	1.0	GoodResponse	0	0.236	108.702	3	10	Target	Neutral	True
109.702	0.3	Control	1.0	0.004	Yes	3.28	-0.004	1.0	GoodResponse	0	0.236	n/a	3	10	ButtonPress	Neutral	True
109.767	0.4	Control	1.0	n/a	Yes	3.28	n/a	n/a	GoodResponse	0	n/a	n/a	3	10	Blank	Neutral	True
110.168	1.45	Control	1.0	n/a	Yes	3.28	n/a	5.0	GoodResponse	0	0.007	109.175	3	10	Feedback	Neutral	True
111.622	3.28	Control	1.0	n/a	Yes	3.28	n/a	n/a	GoodResponse	0	0.0	n/a	3	10	ISIslide	Neutral	True
114.915	0.25	Lose2	1.0	0.001	Yes	2.735	0.015	n/a	GoodResponse	0	n/a	n/a	3	11	Cue	AvoidedLoss	True
115.166	4.05	Lose2	1.0	0.0	Yes	2.735	0.001	n/a	GoodResponse	0	n/a	n/a	3	11	Fixation	AvoidedLoss	True
119.212	0.29	Lose2	1.0	0.003	Yes	2.735	-0.003	1.0	GoodResponse	0	0.235	118.447	3	11	Target	AvoidedLoss	True
119.447	0.3	Lose2	1.0	0.003	Yes	2.735	-0.003	1.0	GoodResponse	0	0.235	n/a	3	11	ButtonPress	AvoidedLoss	True
119.513	0.41	Lose2	1.0	n/a	Yes	2.735	n/a	n/a	GoodResponse	0	n/a	n/a	3	11	Blank	AvoidedLoss	True
119.914	1.45	Lose2	1.0	n/a	Yes	2.735	n/a	5.0	GoodResponse	0	0.015	118.929	3	11	Feedback	AvoidedLoss	True
121.368	2.735	Lose2	1.0	n/a	Yes	2.735	n/a	n/a	GoodResponse	0	0.0	n/a	3	11	ISIslide	AvoidedLoss	True
124.126	0.25	Control	1.0	0.001	Yes	2.974	0.026	n/a	GoodResponse	0	n/a	n/a	3	12	Cue	Neutral	True
124.377	3.9	Control	1.0	0.0	Yes	2.974	0.001	n/a	GoodResponse	0	n/a	n/a	3	12	Fixation	Neutral	True
128.272	0.28	Control	1.0	0.004	Yes	2.974	-0.004	1.0	GoodResponse	0	0.269	127.541	3	12	Target	Neutral	True
128.541	0.3	Control	1.0	0.004	Yes	2.974	-0.004	1.0	GoodResponse	0	0.269	n/a	3	12	ButtonPress	Neutral	True
128.556	0.42	Control	1.0	n/a	Yes	2.974	n/a	n/a	GoodResponse	0	n/a	n/a	3	12	Blank	Neutral	True
128.974	1.45	Control	1.0	n/a	Yes	2.974	n/a	5.0	GoodResponse	0	0.028	128.002	3	12	Feedback	Neutral	True
130.429	2.974	Control	1.0	n/a	Yes	2.974	n/a	n/a	GoodResponse	0	0.0	n/a	3	12	ISIslide	Neutral	True
133.421	0.25	Control	1.0	0.0	Yes	2.779	0.021	n/a	GoodResponse	0	n/a	n/a	3	13	Cue	Neutral	True
133.672	4.0	Control	1.0	0.0	Yes	2.779	0.001	n/a	GoodResponse	0	n/a	n/a	3	13	Fixation	Neutral	True
137.667	0.27	Control	1.0	0.004	Yes	2.779	-0.004	1.0	GoodResponse	0	0.249	136.916	3	13	Target	Neutral	True
137.916	0.3	Control	1.0	0.004	Yes	2.779	-0.004	1.0	GoodResponse	0	0.249	n/a	3	13	ButtonPress	Neutral	True
137.951	0.43	Control	1.0	n/a	Yes	2.779	n/a	n/a	GoodResponse	0	n/a	n/a	3	13	Blank	Neutral	True
138.369	1.45	Control	1.0	n/a	Yes	2.779	n/a	5.0	GoodResponse	0	0.048	137.417	3	13	Feedback	Neutral	True
139.823	2.779	Control	1.0	n/a	Yes	2.779	n/a	n/a	GoodResponse	0	0.0	n/a	3	13	ISIslide	Neutral	True
142.632	0.25	Win2	1.0	0.0	Yes	2.668	0.032	n/a	GoodResponse	1	n/a	n/a	4	14	Cue	Win	True
142.883	4.1	Win2	1.0	0.0	Yes	2.668	0.001	n/a	GoodResponse	1	n/a	n/a	4	14	Fixation	Win	True
146.978	0.26	Win2	1.0	0.004	Yes	2.668	-0.004	1.0	GoodResponse	1	0.23	146.208	4	14	Target	Win	True
147.208	0.3	Win2	1.0	0.004	Yes	2.668	-0.004	1.0	GoodResponse	1	0.23	n/a	4	14	ButtonPress	Win	True
147.246	0.44	Win2	1.0	n/a	Yes	2.668	n/a	n/a	GoodResponse	1	n/a	n/a	4	14	Blank	Win	True
147.68	1.45	Win2	1.0	n/a	Yes	2.668	n/a	5.0	GoodResponse	1	0.006	146.686	4	14	Feedback	Win	True
149.135	2.668	Win2	1.0	n/a	Yes	2.668	n/a	n/a	GoodResponse	1	0.0	n/a	4	14	ISIslide	Win	True
151.826	0.25	Control	1.0	0.0	Yes	2.974	0.026	n/a	GoodResponse	0	n/a	n/a	4	15	Cue	Neutral	True
152.077	4.0	Control	1.0	0.0	Yes	2.974	0.001	n/a	GoodResponse	0	n/a	n/a	4	15	Fixation	Neutral	True
156.072	0.25	Control	1.0	0.004	Yes	2.974	-0.004	1.0	GoodResponse	0	0.222	155.294	4	15	Target	Neutral	True
156.294	0.3	Control	1.0	0.004	Yes	2.974	-0.004	1.0	GoodResponse	0	0.222	n/a	4	15	ButtonPress	Neutral	True
156.323	0.45	Control	1.0	n/a	Yes	2.974	n/a	n/a	GoodResponse	0	n/a	n/a	4	15	Blank	Neutral	True
156.774	1.45	Control	1.0	n/a	Yes	2.974	n/a	5.0	GoodResponse	0	0.032	155.806	4	15	Feedback	Neutral	True
158.229	2.974	Control	1.0	n/a	Yes	2.974	n/a	n/a	GoodResponse	0	0.0	n/a	4	15	ISIslide	Neutral	True
161.221	0.25	Win2	0.9412	0.0	No	2.879	0.021	n/a	LatePress	0	n/a	n/a	4	16	Cue	MissedWin	True
161.472	4.0	Win2	0.9412	0.0	No	2.879	0.001	n/a	LatePress	0	n/a	n/a	4	16	Fixation	MissedWin	True
165.467	0.24	Win2	0.9412	0.004	No	2.879	-0.004	1.0	LatePress	0	0.248	164.715	4	16	Target	MissedWin	True
165.715	0.3	Win2	0.9412	0.004	No	2.879	-0.004	1.0	LatePress	0	0.248	n/a	4	16	ButtonPress	MissedWin	True
165.718	0.46	Win2	0.9412	n/a	No	2.879	n/a	n/a	LatePress	0	n/a	n/a	4	16	Blank	MissedWin	True
166.169	1.45	Win2	0.9412	n/a	No	2.879	n/a	5.0	LatePress	0	0.006	165.175	4	16	Feedback	MissedWin	True
167.623	2.879	Win2	0.9412	n/a	No	2.879	n/a	n/a	LatePress	0	0.0	n/a	4	16	ISIslide	MissedWin	True
170.515	0.25	Lose2	0.8889	0.001	No	2.735	0.015	n/a	NoResponse	-1	n/a	n/a	3	17	Cue	Loss	True
170.766	3.95	Lose2	0.8889	0.0	No	2.735	0.001	n/a	NoResponse	-1	n/a	n/a	3	17	Fixation	Loss	True
174.711	0.23	Lose2	0.8889	0.004	No	2.735	-0.004	1.0	NoResponse	-1	0.242	173.953	3	17	Target	Loss	True
174.945	0.47	Lose2	0.8889	n/a	No	2.735	n/a	n/a	NoResponse	-1	n/a	n/a	3	17	Blank	Loss	True
174.953	0.3	Lose2	0.8889	0.004	No	2.735	-0.004	1.0	NoResponse	-1	0.242	n/a	3	17	ButtonPress	Loss	True
175.413	1.45	Lose2	0.8889	n/a	No	2.735	n/a	5.0	NoResponse	-1	0.028	174.441	3	17	Feedback	Loss	True
176.868	2.735	Lose2	0.8889	n/a	No	2.735	n/a	n/a	NoResponse	-1	0.0	n/a	3	17	ISIslide	Loss	True
179.626	0.25	Lose2	0.8946999999999999	0.0	Yes	2.724	0.026	n/a	GoodResponse	0	n/a	n/a	3	18	Cue	AvoidedLoss	True
179.877	4.05	Lose2	0.8946999999999999	0.0	Yes	2.724	0.001	n/a	GoodResponse	0	n/a	n/a	3	18	Fixation	AvoidedLoss	True
183.922	0.22	Lose2	0.8946999999999999	0.004	Yes	2.724	-0.004	1.0	GoodResponse	0	0.201	183.123	3	18	Target	AvoidedLoss	True
184.123	0.3	Lose2	0.8946999999999999	0.004	Yes	2.724	-0.004	1.0	GoodResponse	0	0.201	n/a	3	18	ButtonPress	AvoidedLoss	True
184.156	0.48	Lose2	0.8946999999999999	n/a	Yes	2.724	n/a	n/a	GoodResponse	0	n/a	n/a	3	18	Blank	AvoidedLoss	True
184.624	1.45	Lose2	0.8946999999999999	n/a	Yes	2.724	n/a	5.0	GoodResponse	0	0.036	183.66	3	18	Feedback	AvoidedLoss	True
186.079	2.724	Lose2	0.8946999999999999	n/a	Yes	2.724	n/a	n/a	GoodResponse	0	0.0	n/a	3	18	ISIslide	AvoidedLoss	True
188.82	0.25	Control	0.85	0.0	No	2.93	0.02	n/a	NoResponse	0	n/a	n/a	3	19	Cue	Neutral	True
189.071	3.95	Control	0.85	0.0	No	2.93	0.001	n/a	NoResponse	0	n/a	n/a	3	19	Fixation	Neutral	True
193.016	0.21	Control	0.85	0.004	No	2.93	-0.004	1.0	NoResponse	0	0.225	192.241	3	19	Target	Neutral	True
193.233	0.49	Control	0.85	n/a	No	2.93	n/a	n/a	NoResponse	0	n/a	n/a	3	19	Blank	Neutral	True
193.241	0.3	Control	0.85	0.004	No	2.93	-0.004	1.0	NoResponse	0	0.225	n/a	3	19	ButtonPress	Neutral	True
193.718	1.45	Control	0.85	n/a	No	2.93	n/a	5.0	NoResponse	0	0.015	192.733	3	19	Feedback	Neutral	True
195.173	2.93	Control	0.85	n/a	No	2.93	n/a	n/a	NoResponse	0	0.0	n/a	3	19	ISIslide	Neutral	True
198.115	0.25	Control	0.8095	0.0	No	2.635	0.015	n/a	NoResponse	0	n/a	n/a	3	20	Cue	Neutral	True
198.366	4.05	Control	0.8095	0.0	No	2.635	0.001	n/a	NoResponse	0	n/a	n/a	3	20	Fixation	Neutral	True
202.411	0.2	Control	0.8095	0.004	No	2.635	-0.004	1.0	NoResponse	0	0.234	201.645	3	20	Target	Neutral	True
202.612	0.5	Control	0.8095	n/a	No	2.635	n/a	n/a	NoResponse	0	n/a	n/a	3	20	Blank	Neutral	True
202.645	0.3	Control	0.8095	0.004	No	2.635	-0.004	1.0	NoResponse	0	0.234	n/a	3	20	ButtonPress	Neutral	True
203.113	1.45	Control	0.8095	n/a	No	2.635	n/a	5.0	NoResponse	0	0.035	202.148	3	20	Feedback	Neutral	True
204.567	2.635	Control	0.8095	n/a	No	2.635	n/a	n/a	NoResponse	0	0.0	n/a	3	20	ISIslide	Neutral	True
207.225	0.25	Control	0.7726999999999999	0.0	No	2.775	0.025	n/a	NoResponse	0	n/a	n/a	3	21	Cue	Neutral	True
207.476	4.1	Control	0.7726999999999999	0.0	No	2.775	0.001	n/a	NoResponse	0	n/a	n/a	3	21	Fixation	Neutral	True
211.572	0.19	Control	0.7726999999999999	0.003	No	2.775	-0.003	1.0	NoResponse	0	0.228	210.8	3	21	Target	Neutral	True
211.772	0.51	Control	0.7726999999999999	n/a	No	2.775	n/a	n/a	NoResponse	0	n/a	n/a	3	21	Blank	Neutral	True
211.8	0.3	Control	0.7726999999999999	0.003	No	2.775	-0.003	1.0	NoResponse	0	0.228	n/a	3	21	ButtonPress	Neutral	True
212.274	1.45	Control	0.7726999999999999	n/a	No	2.775	n/a	5.0	NoResponse	0	0.044	211.318	3	21	Feedback	Neutral	True
213.728	2.775	Control	0.7726999999999999	n/a	No	2.775	n/a	n/a	NoResponse	0	0.0	n/a	3	21	ISIslide	Neutral	True
216.52	0.25	Control	0.7391	0.0	No	2.78	0.02	n/a	NoResponse	0	n/a	n/a	3	22	Cue	Neutral	True
216.771	4.0	Control	0.7391	0.0	No	2.78	0.001	n/a	NoResponse	0	n/a	n/a	3	22	Fixation	Neutral	True
220.766	0.18	Control	0.7391	0.004	No	2.78	-0.004	1.0	NoResponse	0	0.402	220.168	3	22	Target	Neutral	True
220.95	0.52	Control	0.7391	n/a	No	2.78	n/a	n/a	NoResponse	0	n/a	n/a	3	22	Blank	Neutral	True
221.168	0.3	Control	0.7391	0.004	No	2.78	-0.004	1.0	NoResponse	0	0.402	n/a	3	22	ButtonPress	Neutral	True
221.468	1.45	Control	0.7391	n/a	No	2.78	n/a	5.0	NoResponse	0	0.021	220.489	3	22	Feedback	Neutral	True
222.922	2.78	Control	0.7391	n/a	No	2.78	n/a	n/a	NoResponse	0	0.0	n/a	3	22	ISIslide	Neutral	True
225.731	0.25	Control	0.7082999999999999	0.0	No	2.769	0.031	n/a	NoResponse	0	n/a	n/a	3	23	Cue	Neutral	True
225.982	3.9	Control	0.7082999999999999	0.0	No	2.769	0.001	n/a	NoResponse	0	n/a	n/a	3	23	Fixation	Neutral	True
229.877	0.17	Control	0.7082999999999999	0.004	No	2.769	-0.004	1.0	NoResponse	0	0.23	229.107	3	23	Target	Neutral	True
230.061	0.53	Control	0.7082999999999999	n/a	No	2.769	n/a	n/a	NoResponse	0	n/a	n/a	3	23	Blank	Neutral	True
230.107	0.3	Control	0.7082999999999999	0.004	No	2.769	-0.004	1.0	NoResponse	0	0.23	n/a	3	23	ButtonPress	Neutral	True
230.579	1.45	Control	0.7082999999999999	n/a	No	2.769	n/a	5.0	NoResponse	0	0.032	229.611	3	23	Feedback	Neutral	True
232.033	2.769	Control	0.7082999999999999	n/a	No	2.769	n/a	n/a	NoResponse	0	0.0	n/a	3	23	ISIslide	Neutral	True
234.825	0.25	Win2	0.68	0.0	No	3.125	0.025	n/a	NoResponse	0	n/a	n/a	3	24	Cue	MissedWin	True
235.076	3.95	Win2	0.68	0.0	No	3.125	0.001	n/a	NoResponse	0	n/a	n/a	3	24	Fixation	MissedWin	True
239.021	0.16	Win2	0.68	0.004	No	3.125	-0.004	1.0	NoResponse	0	0.222	238.243	3	24	Target	MissedWin	True
239.188	0.54	Win2	0.68	n/a	No	3.125	n/a	n/a	NoResponse	0	n/a	n/a	3	24	Blank	MissedWin	True
239.243	0.3	Win2	0.68	0.004	No	3.125	-0.004	1.0	NoResponse	0	0.222	n/a	3	24	ButtonPress	MissedWin	True
239.723	1.45	Win2	0.68	n/a	No	3.125	n/a	5.0	NoResponse	0	0.01	238.733	3	24	Feedback	MissedWin	True
241.177	3.125	Win2	0.68	n/a	No	3.125	n/a	n/a	NoResponse	0	0.0	n/a	3	24	ISIslide	MissedWin	True
244.32	0.25	Win2	0.6537999999999999	0.0	No	3.08	0.02	n/a	NoResponse	0	n/a	n/a	3	25	Cue	MissedWin	True
244.571	4.0	Win2	0.6537999999999999	0.0	No	3.08	0.001	n/a	NoResponse	0	n/a	n/a	3	25	Fixation	MissedWin	True
248.566	0.15	Win2	0.6537999999999999	0.004	No	3.08	-0.004	1.0	NoResponse	0	0.224	247.79	3	25	Target	MissedWin	True
248.716	0.55	Win2	0.6537999999999999	n/a	No	3.08	n/a	n/a	NoResponse	0	n/a	n/a	3	25	Blank	MissedWin	True
248.79	0.3	Win2	0.6537999999999999	0.004	No	3.08	-0.004	1.0	NoResponse	0	0.224	n/a	3	25	ButtonPress	MissedWin	True
249.268	1.45	Win2	0.6537999999999999	n/a	No	3.08	n/a	5.0	NoResponse	0	0.026	248.294	3	25	Feedback	MissedWin	True
250.722	3.08	Win2	0.6537999999999999	n/a	No	3.08	n/a	n/a	NoResponse	0	0.0	n/a	3	25	ISIslide	MissedWin	True
253.832	0.25	Win2	0.6296	0.0	No	2.918	0.032	n/a	NoResponse	0	n/a	n/a	3	26	Cue	MissedWin	True
254.082	3.95	Win2	0.6296	0.001	No	2.918	0.0	n/a	NoResponse	0	n/a	n/a	3	26	Fixation	MissedWin	True
258.028	0.16	Win2	0.6296	0.004	No	2.918	-0.004	1.0	NoResponse	0	0.233	257.261	3	26	Target	MissedWin	True
258.195	0.54	Win2	0.6296	n/a	No	2.918	n/a	n/a	NoResponse	0	n/a	n/a	3	26	Blank	MissedWin	True
258.261	0.3	Win2	0.6296	0.004	No	2.918	-0.004	1.0	NoResponse	0	0.233	n/a	3	26	ButtonPress	MissedWin	True
258.73	1.45	Win2	0.6296	n/a	No	2.918	n/a	5.0	NoResponse	0	0.028	257.758	3	26	Feedback	MissedWin	True
260.184	2.918	Win2	0.6296	n/a	No	2.918	n/a	n/a	NoResponse	0	0.0	n/a	3	26	ISIslide	MissedWin	True
263.126	0.25	Lose2	0.6071	0.0	No	2.824	0.026	n/a	NoResponse	-1	n/a	n/a	2	27	Cue	Loss	True
263.377	4.05	Lose2	0.6071	0.0	No	2.824	0.001	n/a	NoResponse	-1	n/a	n/a	2	27	Fixation	Loss	True
267.422	0.17	Lose2	0.6071	0.004	No	2.824	-0.004	1.0	NoResponse	-1	0.214	266.636	2	27	Target	Loss	True
267.606	0.53	Lose2	0.6071	n/a	No	2.824	n/a	n/a	NoResponse	-1	n/a	n/a	2	27	Blank	Loss	True
267.636	0.3	Lose2	0.6071	0.004	No	2.824	-0.004	1.0	NoResponse	-1	0.214	n/a	2	27	ButtonPress	Loss	True
268.125	1.45	Lose2	0.6071	n/a	No	2.824	n/a	5.0	NoResponse	-1	0.047	267.172	2	27	Feedback	Loss	True
269.579	2.824	Lose2	0.6071	n/a	No	2.824	n/a	n/a	NoResponse	-1	0.0	n/a	2	27	ISIslide	Loss	True
272.421	0.25	Control	0.5861999999999999	0.0	No	2.829	0.021	n/a	NoResponse	0	n/a	n/a	2	28	Cue	Neutral	True
272.672	4.05	Control	0.5861999999999999	0.0	No	2.829	0.001	n/a	NoResponse	0	n/a	n/a	2	28	Fixation	Neutral	True
276.717	0.18	Control	0.5861999999999999	0.004	No	2.829	-0.004	1.0	NoResponse	0	0.227	275.944	2	28	Target	Neutral	True
276.901	0.52	Control	0.5861999999999999	n/a	No	2.829	n/a	n/a	NoResponse	0	n/a	n/a	2	28	Blank	Neutral	True
276.944	0.3	Control	0.5861999999999999	0.004	No	2.829	-0.004	1.0	NoResponse	0	0.227	n/a	2	28	ButtonPress	Neutral	True
277.419	1.45	Control	0.5861999999999999	n/a	No	2.829	n/a	5.0	NoResponse	0	0.021	276.44	2	28	Feedback	Neutral	True
278.873	2.829	Control	0.5861999999999999	n/a	No	2.829	n/a	n/a	NoResponse	0	0.0	n/a	2	28	ISIslide	Neutral	True
281.715	0.25	Lose2	0.5667	0.0	No	2.835	0.015	n/a	NoResponse	-1	n/a	n/a	1	29	Cue	Loss	True
281.966	3.95	Lose2	0.5667	0.0	No	2.835	0.001	n/a	NoResponse	-1	n/a	n/a	1	29	Fixation	Loss	True
285.911	0.19	Lose2	0.5667	0.004	No	2.835	-0.004	1.0	NoResponse	-1	0.224	285.135	1	29	Target	Loss	True
286.112	0.51	Lose2	0.5667	n/a	No	2.835	n/a	n/a	NoResponse	-1	n/a	n/a	1	29	Blank	Loss	True
286.135	0.3	Lose2	0.5667	0.004	No	2.835	-0.004	1.0	NoResponse	-1	0.224	n/a	1	29	ButtonPress	Loss	True
286.613	1.45	Lose2	0.5667	n/a	No	2.835	n/a	5.0	NoResponse	-1	0.047	285.66	1	29	Feedback	Loss	True
288.068	2.835	Lose2	0.5667	n/a	No	2.835	n/a	n/a	NoResponse	-1	0.0	n/a	1	29	ISIslide	Loss	True
290.926	0.25	Win2	0.5484	0.0	No	2.774	0.026	n/a	NoResponse	0	n/a	n/a	1	30	Cue	MissedWin	True
291.177	3.9	Win2	0.5484	0.0	No	2.774	0.001	n/a	NoResponse	0	n/a	n/a	1	30	Fixation	MissedWin	True
295.072	0.2	Win2	0.5484	0.004	No	2.774	-0.004	1.0	NoResponse	0	0.259	294.331	1	30	Target	MissedWin	True
295.273	0.5	Win2	0.5484	n/a	No	2.774	n/a	n/a	NoResponse	0	n/a	n/a	1	30	Blank	MissedWin	True
295.331	0.3	Win2	0.5484	0.004	No	2.774	-0.004	1.0	NoResponse	0	0.259	n/a	1	30	ButtonPress	MissedWin	True
295.774	1.45	Win2	0.5484	n/a	No	2.774	n/a	5.0	NoResponse	0	0.008	294.782	1	30	Feedback	MissedWin	True
297.228	2.774	Win2	0.5484	n/a	No	2.774	n/a	n/a	NoResponse	0	0.0	n/a	1	30	ISIslide	MissedWin	True
300.02	0.25	Lose2	0.5625	0.0	Yes	2.83	0.02	n/a	GoodResponse	0	n/a	n/a	1	31	Cue	AvoidedLoss	True
300.271	4.05	Lose2	0.5625	0.0	Yes	2.83	0.001	n/a	GoodResponse	0	n/a	n/a	1	31	Fixation	AvoidedLoss	True
304.316	0.21	Lose2	0.5625	0.004	Yes	2.83	-0.004	1.0	GoodResponse	0	0.206	303.522	1	31	Target	AvoidedLoss	True
304.522	0.3	Lose2	0.5625	0.004	Yes	2.83	-0.004	1.0	GoodResponse	0	0.206	n/a	1	31	ButtonPress	AvoidedLoss	True
304.534	0.49	Lose2	0.5625	n/a	Yes	2.83	n/a	n/a	GoodResponse	0	n/a	n/a	1	31	Blank	AvoidedLoss	True
305.018	1.45	Lose2	0.5625	n/a	Yes	2.83	n/a	5.0	GoodResponse	0	0.032	304.05	1	31	Feedback	AvoidedLoss	True
306.473	2.83	Lose2	0.5625	n/a	Yes	2.83	n/a	n/a	GoodResponse	0	0.0	n/a	1	31	ISIslide	AvoidedLoss	True
309.331	0.25	Lose2	0.5758	0.0	Yes	2.619	0.031	n/a	GoodResponse	0	n/a	n/a	1	32	Cue	AvoidedLoss	True
309.582	4.15	Lose2	0.5758	0.0	Yes	2.619	0.001	n/a	GoodResponse	0	n/a	n/a	1	32	Fixation	AvoidedLoss	True
313.728	0.22	Lose2	0.5758	0.003	Yes	2.619	-0.003	1.0	GoodResponse	0	0.214	312.942	1	32	Target	AvoidedLoss	True
313.942	0.3	Lose2	0.5758	0.003	Yes	2.619	-0.003	1.0	GoodResponse	0	0.214	n/a	1	32	ButtonPress	AvoidedLoss	True
313.962	0.48	Lose2	0.5758	n/a	Yes	2.619	n/a	n/a	GoodResponse	0	n/a	n/a	1	32	Blank	AvoidedLoss	True
314.43	1.45	Lose2	0.5758	n/a	Yes	2.619	n/a	5.0	GoodResponse	0	0.035	313.465	1	32	Feedback	AvoidedLoss	True
315.884	2.619	Lose2	0.5758	n/a	Yes	2.619	n/a	n/a	GoodResponse	0	0.0	n/a	1	32	ISIslide	AvoidedLoss	True
318.526	0.25	Win2	0.5882000000000001	0.0	Yes	2.674	0.026	n/a	GoodResponse	1	n/a	n/a	2	33	Cue	Win	True
318.776	4.0	Win2	0.5882000000000001	0.0	Yes	2.674	0.0	n/a	GoodResponse	1	n/a	n/a	2	33	Fixation	Win	True
322.772	0.23	Win2	0.5882000000000001	0.004	Yes	2.674	-0.004	1.0	GoodResponse	1	0.182	321.954	2	33	Target	Win	True
322.954	0.3	Win2	0.5882000000000001	0.004	Yes	2.674	-0.004	1.0	GoodResponse	1	0.182	n/a	2	33	ButtonPress	Win	True
323.006	0.47	Win2	0.5882000000000001	n/a	Yes	2.674	n/a	n/a	GoodResponse	1	n/a	n/a	2	33	Blank	Win	True
323.474	1.45	Win2	0.5882000000000001	n/a	Yes	2.674	n/a	5.0	GoodResponse	1	0.015	322.489	2	33	Feedback	Win	True
324.928	2.674	Win2	0.5882000000000001	n/a	Yes	2.674	n/a	n/a	GoodResponse	1	0.0	n/a	2	33	ISIslide	Win	True
327.62	0.25	Lose2	0.6	0.0	Yes	2.63	0.02	n/a	GoodResponse	0	n/a	n/a	2	34	Cue	AvoidedLoss	True
327.87	4.05	Lose2	0.6	0.0	Yes	2.63	0.0	n/a	GoodResponse	0	n/a	n/a	2	34	Fixation	AvoidedLoss	True
331.916	0.24	Lose2	0.6	0.004	Yes	2.63	-0.004	1.0	GoodResponse	0	0.197	331.113	2	34	Target	AvoidedLoss	True
332.113	0.3	Lose2	0.6	0.004	Yes	2.63	-0.004	1.0	GoodResponse	0	0.197	n/a	2	34	ButtonPress	AvoidedLoss	True
332.166	0.46	Lose2	0.6	n/a	Yes	2.63	n/a	n/a	GoodResponse	0	n/a	n/a	2	34	Blank	AvoidedLoss	True
332.618	1.45	Lose2	0.6	n/a	Yes	2.63	n/a	5.0	GoodResponse	0	0.041	331.659	2	34	Feedback	AvoidedLoss	True
334.072	2.63	Lose2	0.6	n/a	Yes	2.63	n/a	n/a	GoodResponse	0	0.0	n/a	2	34	ISIslide	AvoidedLoss	True
336.73	0.25	Lose2	0.6111	0.0	Yes	2.67	0.03	n/a	GoodResponse	0	n/a	n/a	2	35	Cue	AvoidedLoss	True
336.981	4.0	Lose2	0.6111	0.0	Yes	2.67	0.001	n/a	GoodResponse	0	n/a	n/a	2	35	Fixation	AvoidedLoss	True
340.976	0.25	Lose2	0.6111	0.004	Yes	2.67	-0.004	1.0	GoodResponse	0	0.17	340.146	2	35	Target	AvoidedLoss	True
341.146	0.3	Lose2	0.6111	0.004	Yes	2.67	-0.004	1.0	GoodResponse	0	0.17	n/a	2	35	ButtonPress	AvoidedLoss	True
341.227	0.45	Lose2	0.6111	n/a	Yes	2.67	n/a	n/a	GoodResponse	0	n/a	n/a	2	35	Blank	AvoidedLoss	True
341.678	1.45	Lose2	0.6111	n/a	Yes	2.67	n/a	5.0	GoodResponse	0	0.007	340.685	2	35	Feedback	AvoidedLoss	True
343.133	2.67	Lose2	0.6111	n/a	Yes	2.67	n/a	n/a	GoodResponse	0	0.0	n/a	2	35	ISIslide	AvoidedLoss	True
345.824	0.25	Control	0.6215999999999999	0.0	Yes	2.676	0.024	n/a	GoodResponse	0	n/a	n/a	2	36	Cue	Neutral	True
346.075	4.0	Control	0.6215999999999999	0.0	Yes	2.676	0.001	n/a	GoodResponse	0	n/a	n/a	2	36	Fixation	Neutral	True
350.07	0.26	Control	0.6215999999999999	0.004	Yes	2.676	-0.004	1.0	GoodResponse	0	0.217	349.287	2	36	Target	Neutral	True
350.287	0.3	Control	0.6215999999999999	0.004	Yes	2.676	-0.004	1.0	GoodResponse	0	0.217	n/a	2	36	ButtonPress	Neutral	True
350.338	0.44	Control	0.6215999999999999	n/a	Yes	2.676	n/a	n/a	GoodResponse	0	n/a	n/a	2	36	Blank	Neutral	True
350.772	1.45	Control	0.6215999999999999	n/a	Yes	2.676	n/a	5.0	GoodResponse	0	0.034	349.806	2	36	Feedback	Neutral	True
352.227	2.676	Control	0.6215999999999999	n/a	Yes	2.676	n/a	n/a	GoodResponse	0	0.0	n/a	2	36	ISIslide	Neutral	True
354.918	0.25	Win2	0.6315999999999999	0.0	Yes	2.882	0.018	n/a	GoodResponse	1	n/a	n/a	3	37	Cue	Win	False
355.169	4.0	Win2	0.6315999999999999	0.0	Yes	2.882	0.001	1.0	GoodResponse	1	0.36	354.529	3	37	Fixation	Win	False
355.529	0.3	Win2	0.6315999999999999	0.0	Yes	2.882	0.001	1.0	GoodResponse	1	0.36	n/a	3	37	ButtonPress	Win	False
359.164	0.27	Win2	0.6315999999999999	0.004	Yes	2.882	-0.004	1.0	GoodResponse	1	0.219	358.383	3	37	Target	Win	False
359.383	0.3	Win2	0.6315999999999999	0.004	Yes	2.882	-0.004	1.0	GoodResponse	1	0.219	n/a	3	37	ButtonPress	Win	False
359.448	0.43	Win2	0.6315999999999999	n/a	Yes	2.882	n/a	n/a	GoodResponse	1	n/a	n/a	3	37	Blank	Win	False
359.866	1.45	Win2	0.6315999999999999	n/a	Yes	2.882	n/a	5.0	GoodResponse	1	0.013	358.879	3	37	Feedback	Win	False
361.32	2.882	Win2	0.6315999999999999	n/a	Yes	2.882	n/a	n/a	GoodResponse	1	0.0	n/a	3	37	ISIslide	Win	False
364.229	0.25	Lose2	0.6409999999999999	0.0	Yes	2.821	0.029	n/a	GoodResponse	0	n/a	n/a	3	38	Cue	AvoidedLoss	True
364.48	3.95	Lose2	0.6409999999999999	0.0	Yes	2.821	0.001	n/a	GoodResponse	0	n/a	n/a	3	38	Fixation	AvoidedLoss	True
368.425	0.28	Lose2	0.6409999999999999	0.004	Yes	2.821	-0.004	1.0	GoodResponse	0	0.223	367.648	3	38	Target	AvoidedLoss	True
368.648	0.3	Lose2	0.6409999999999999	0.004	Yes	2.821	-0.004	1.0	GoodResponse	0	0.223	n/a	3	38	ButtonPress	AvoidedLoss	True
368.709	0.42	Lose2	0.6409999999999999	n/a	Yes	2.821	n/a	n/a	GoodResponse	0	n/a	n/a	3	38	Blank	AvoidedLoss	True
369.127	1.45	Lose2	0.6409999999999999	n/a	Yes	2.821	n/a	5.0	GoodResponse	0	0.02	368.147	3	38	Feedback	AvoidedLoss	True
370.582	2.821	Lose2	0.6409999999999999	n/a	Yes	2.821	n/a	n/a	GoodResponse	0	0.0	n/a	3	38	ISIslide	AvoidedLoss	True
373.423	0.25	Win2	0.65	0.0	Yes	2.977	0.023	n/a	GoodResponse	1	n/a	n/a	4	39	Cue	Win	True
373.674	4.1	Win2	0.65	0.0	Yes	2.977	0.001	n/a	GoodResponse	1	n/a	n/a	4	39	Fixation	Win	True
377.77	0.29	Win2	0.65	0.003	Yes	2.977	-0.003	1.0	GoodResponse	1	0.215	376.985	4	39	Target	Win	True
377.985	0.3	Win2	0.65	0.003	Yes	2.977	-0.003	1.0	GoodResponse	1	0.215	n/a	4	39	ButtonPress	Win	True
378.071	0.41	Win2	0.65	n/a	Yes	2.977	n/a	n/a	GoodResponse	1	n/a	n/a	4	39	Blank	Win	True
378.472	1.45	Win2	0.65	n/a	Yes	2.977	n/a	5.0	GoodResponse	1	0.041	377.513	4	39	Feedback	Win	True
379.926	2.977	Win2	0.65	n/a	Yes	2.977	n/a	n/a	GoodResponse	1	0.0	n/a	4	39	ISIslide	Win	True
382.919	0.25	Win2	0.6585	0.0	Yes	2.731	0.019	n/a	GoodResponse	1	n/a	n/a	5	40	Cue	Win	True
383.169	3.95	Win2	0.6585	0.0	Yes	2.731	0.0	n/a	GoodResponse	1	n/a	n/a	5	40	Fixation	Win	True
387.131	0.3	Win2	0.6585	0.0	Yes	2.731	0.012	1.0	GoodResponse	1	0.219	386.35	5	40	Target	Win	True
387.35	0.3	Win2	0.6585	0.0	Yes	2.731	0.012	1.0	GoodResponse	1	0.219	n/a	5	40	ButtonPress	Win	True
387.415	0.4	Win2	0.6585	n/a	Yes	2.731	n/a	n/a	GoodResponse	1	n/a	n/a	5	40	Blank	Win	True
387.817	1.45	Win2	0.6585	n/a	Yes	2.731	n/a	5.0	GoodResponse	1	0.014	386.831	5	40	Feedback	Win	True
389.271	2.731	Win2	0.6585	n/a	Yes	2.731	n/a	n/a	GoodResponse	1	0.0	n/a	5	40	ISIslide	Win	True
392.029	0.25	Win2	0.6667000000000001	0.0	Yes	2.771	0.029	n/a	GoodResponse	1	n/a	n/a	6	41	Cue	Win	True
392.28	3.9	Win2	0.6667000000000001	0.0	Yes	2.771	0.001	n/a	GoodResponse	1	n/a	n/a	6	41	Fixation	Win	True
396.175	0.3	Win2	0.6667000000000001	0.004	Yes	2.771	-0.004	1.0	GoodResponse	1	0.23	395.405	6	41	Target	Win	True
396.405	0.3	Win2	0.6667000000000001	0.004	Yes	2.771	-0.004	1.0	GoodResponse	1	0.23	n/a	6	41	ButtonPress	Win	True
396.476	0.4	Win2	0.6667000000000001	n/a	Yes	2.771	n/a	n/a	GoodResponse	1	n/a	n/a	6	41	Blank	Win	True
396.877	1.45	Win2	0.6667000000000001	n/a	Yes	2.771	n/a	5.0	GoodResponse	1	0.026	395.903	6	41	Feedback	Win	True
398.331	2.771	Win2	0.6667000000000001	n/a	Yes	2.771	n/a	n/a	GoodResponse	1	0.0	n/a	6	41	ISIslide	Win	True
401.123	0.25	Control	0.6744	0.0	Yes	2.927	0.023	n/a	GoodResponse	0	n/a	n/a	6	42	Cue	Neutral	True
401.374	3.85	Control	0.6744	0.0	Yes	2.927	0.001	n/a	GoodResponse	0	n/a	n/a	6	42	Fixation	Neutral	True
405.219	0.29	Control	0.6744	0.004	Yes	2.927	-0.004	1.0	GoodResponse	0	0.228	404.447	6	42	Target	Neutral	True
405.447	0.3	Control	0.6744	0.004	Yes	2.927	-0.004	1.0	GoodResponse	0	0.228	n/a	6	42	ButtonPress	Neutral	True
405.52	0.41	Control	0.6744	n/a	Yes	2.927	n/a	n/a	GoodResponse	0	n/a	n/a	6	42	Blank	Neutral	True
405.921	1.45	Control	0.6744	n/a	Yes	2.927	n/a	5.0	GoodResponse	0	0.007	404.928	6	42	Feedback	Neutral	True
407.375	2.927	Control	0.6744	n/a	Yes	2.927	n/a	n/a	GoodResponse	0	0.0	n/a	6	42	ISIslide	Neutral	True
410.317	0.25	Win2	0.6818000000000001	0.0	Yes	3.183	0.017	n/a	GoodResponse	1	n/a	n/a	7	43	Cue	Win	True
410.568	4.0	Win2	0.6818000000000001	0.0	Yes	3.183	0.001	n/a	GoodResponse	1	n/a	n/a	7	43	Fixation	Win	True
414.563	0.28	Win2	0.6818000000000001	0.004	Yes	3.183	-0.004	1.0	GoodResponse	1	0.205	413.768	7	43	Target	Win	True
414.768	0.3	Win2	0.6818000000000001	0.004	Yes	3.183	-0.004	1.0	GoodResponse	1	0.205	n/a	7	43	ButtonPress	Win	True
414.848	0.42	Win2	0.6818000000000001	n/a	Yes	3.183	n/a	n/a	GoodResponse	1	n/a	n/a	7	43	Blank	Win	True
415.265	1.45	Win2	0.6818000000000001	n/a	Yes	3.183	n/a	5.0	GoodResponse	1	0.028	414.293	7	43	Feedback	Win	True
416.72	3.183	Win2	0.6818000000000001	n/a	Yes	3.183	n/a	n/a	GoodResponse	1	0.0	n/a	7	43	ISIslide	Win	True
419.929	0.25	Win2	0.6889	0.001	Yes	2.971	0.029	n/a	GoodResponse	1	n/a	n/a	8	44	Cue	Win	True
420.18	4.0	Win2	0.6889	0.0	Yes	2.971	0.001	n/a	GoodResponse	1	n/a	n/a	8	44	Fixation	Win	True
424.175	0.27	Win2	0.6889	0.004	Yes	2.971	-0.004	1.0	GoodResponse	1	0.21	423.385	8	44	Target	Win	True
424.385	0.3	Win2	0.6889	0.004	Yes	2.971	-0.004	1.0	GoodResponse	1	0.21	n/a	8	44	ButtonPress	Win	True
424.46	0.43	Win2	0.6889	n/a	Yes	2.971	n/a	n/a	GoodResponse	1	n/a	n/a	8	44	Blank	Win	True
424.878	1.45	Win2	0.6889	n/a	Yes	2.971	n/a	5.0	GoodResponse	1	0.025	423.903	8	44	Feedback	Win	True
426.332	2.971	Win2	0.6889	n/a	Yes	2.971	n/a	n/a	GoodResponse	1	0.0	n/a	8	44	ISIslide	Win	True
429.324	0.25	Control	0.6957	0.0	Yes	2.876	0.024	n/a	GoodResponse	0	n/a	n/a	8	45	Cue	Neutral	True
429.575	4.1	Control	0.6957	0.0	Yes	2.876	0.001	n/a	GoodResponse	0	n/a	n/a	8	45	Fixation	Neutral	True
433.671	0.26	Control	0.6957	0.003	Yes	2.876	-0.003	1.0	GoodResponse	0	0.258	432.929	8	45	Target	Neutral	True
433.929	0.3	Control	0.6957	0.003	Yes	2.876	-0.003	1.0	GoodResponse	0	0.258	n/a	8	45	ButtonPress	Neutral	True
433.938	0.44	Control	0.6957	n/a	Yes	2.876	n/a	n/a	GoodResponse	0	n/a	n/a	8	45	Blank	Neutral	True
434.373	1.45	Control	0.6957	n/a	Yes	2.876	n/a	5.0	GoodResponse	0	0.043	433.416	8	45	Feedback	Neutral	True
435.827	2.876	Control	0.6957	n/a	Yes	2.876	n/a	n/a	GoodResponse	0	0.0	n/a	8	45	ISIslide	Neutral	True
438.719	0.25	Lose2	0.7021	0.0	Yes	3.381	0.019	n/a	GoodResponse	0	n/a	n/a	8	46	Cue	AvoidedLoss	True
438.97	4.0	Lose2	0.7021	0.0	Yes	3.381	0.001	n/a	GoodResponse	0	n/a	n/a	8	46	Fixation	AvoidedLoss	True
442.965	0.25	Lose2	0.7021	0.004	Yes	3.381	-0.004	1.0	GoodResponse	0	0.217	442.182	8	46	Target	AvoidedLoss	True
443.182	0.3	Lose2	0.7021	0.004	Yes	3.381	-0.004	1.0	GoodResponse	0	0.217	n/a	8	46	ButtonPress	AvoidedLoss	True
443.216	0.45	Lose2	0.7021	n/a	Yes	3.381	n/a	n/a	GoodResponse	0	n/a	n/a	8	46	Blank	AvoidedLoss	True
443.667	1.45	Lose2	0.7021	n/a	Yes	3.381	n/a	5.0	GoodResponse	0	0.017	442.684	8	46	Feedback	AvoidedLoss	True
445.122	3.381	Lose2	0.7021	n/a	Yes	3.381	n/a	n/a	GoodResponse	0	0.0	n/a	8	46	ISIslide	AvoidedLoss	True
448.532	0.25	Lose2	0.7082999999999999	0.0	Yes	2.668	0.032	n/a	GoodResponse	0	n/a	n/a	8	47	Cue	AvoidedLoss	True
448.783	4.0	Lose2	0.7082999999999999	0.0	Yes	2.668	0.001	n/a	GoodResponse	0	n/a	n/a	8	47	Fixation	AvoidedLoss	True
452.778	0.24	Lose2	0.7082999999999999	0.004	Yes	2.668	-0.004	1.0	GoodResponse	0	0.202	451.98	8	47	Target	AvoidedLoss	True
452.98	0.3	Lose2	0.7082999999999999	0.004	Yes	2.668	-0.004	1.0	GoodResponse	0	0.202	n/a	8	47	ButtonPress	AvoidedLoss	True
453.029	0.46	Lose2	0.7082999999999999	n/a	Yes	2.668	n/a	n/a	GoodResponse	0	n/a	n/a	8	47	Blank	AvoidedLoss	True
453.48	1.45	Lose2	0.7082999999999999	n/a	Yes	2.668	n/a	5.0	GoodResponse	0	0.008	452.488	8	47	Feedback	AvoidedLoss	True
454.934	2.668	Lose2	0.7082999999999999	n/a	Yes	2.668	n/a	n/a	GoodResponse	0	0.0	n/a	8	47	ISIslide	AvoidedLoss	True
457.626	0.25	Lose2	0.7143	0.0	Yes	3.024	0.026	n/a	GoodResponse	0	n/a	n/a	8	48	Cue	AvoidedLoss	True
457.876	3.95	Lose2	0.7143	0.001	Yes	3.024	0.0	n/a	GoodResponse	0	n/a	n/a	8	48	Fixation	AvoidedLoss	True
461.822	0.23	Lose2	0.7143	0.004	Yes	3.024	-0.004	1.0	GoodResponse	0	0.215	461.037	8	48	Target	AvoidedLoss	True
462.037	0.3	Lose2	0.7143	0.004	Yes	3.024	-0.004	1.0	GoodResponse	0	0.215	n/a	8	48	ButtonPress	AvoidedLoss	True
462.056	0.47	Lose2	0.7143	n/a	Yes	3.024	n/a	n/a	GoodResponse	0	n/a	n/a	8	48	Blank	AvoidedLoss	True
462.524	1.45	Lose2	0.7143	n/a	Yes	3.024	n/a	5.0	GoodResponse	0	0.037	461.561	8	48	Feedback	AvoidedLoss	True
463.978	3.024	Lose2	0.7143	n/a	Yes	3.024	n/a	n/a	GoodResponse	0	0.0	n/a	8	48	ISIslide	AvoidedLoss	True
467.021	0.25	Control	0.72	0.0	Yes	2.879	0.021	n/a	GoodResponse	0	n/a	n/a	8	49	Cue	Neutral	True
467.271	4.0	Control	0.72	0.0	Yes	2.879	0.0	n/a	GoodResponse	0	n/a	n/a	8	49	Fixation	Neutral	True
471.267	0.22	Control	0.72	0.004	Yes	2.879	-0.004	1.0	GoodResponse	0	0.204	470.471	8	49	Target	Neutral	True
471.471	0.3	Control	0.72	0.004	Yes	2.879	-0.004	1.0	GoodResponse	0	0.204	n/a	8	49	ButtonPress	Neutral	True
471.501	0.48	Control	0.72	n/a	Yes	2.879	n/a	n/a	GoodResponse	0	n/a	n/a	8	49	Blank	Neutral	True
471.969	1.45	Control	0.72	n/a	Yes	2.879	n/a	5.0	GoodResponse	0	0.007	470.976	8	49	Feedback	Neutral	True
473.423	2.879	Control	0.72	n/a	Yes	2.879	n/a	n/a	GoodResponse	0	0.0	n/a	8	49	ISIslide	Neutral	True
476.315	0.25	Control	0.7059000000000001	0.0	No	2.785	0.015	n/a	NoResponse	0	n/a	n/a	8	50	Cue	Neutral	True
476.566	4.0	Control	0.7059000000000001	0.0	No	2.785	0.001	n/a	NoResponse	0	n/a	n/a	8	50	Fixation	Neutral	True
480.561	0.21	Control	0.7059000000000001	0.004	No	2.785	-0.004	1.0	NoResponse	0	0.235	479.796	8	50	Target	Neutral	True
480.778	0.49	Control	0.7059000000000001	n/a	No	2.785	n/a	n/a	NoResponse	0	n/a	n/a	8	50	Blank	Neutral	True
480.796	0.3	Control	0.7059000000000001	0.004	No	2.785	-0.004	1.0	NoResponse	0	0.235	n/a	8	50	ButtonPress	Neutral	True
481.263	1.45	Control	0.7059000000000001	n/a	No	2.785	n/a	5.0	NoResponse	0	0.03	480.293	8	50	Feedback	Neutral	True
482.718	2.785	Control	0.7059000000000001	n/a	No	2.785	n/a	n/a	NoResponse	0	0.0	n/a	8	50	ISIslide	Neutral	True
485.526	0.25	Control	0.6923	0.0	No	2.724	0.026	n/a	NoResponse	0	n/a	n/a	8	51	Cue	Neutral	True
485.777	3.95	Control	0.6923	0.0	No	2.724	0.001	n/a	NoResponse	0	n/a	n/a	8	51	Fixation	Neutral	True
489.722	0.2	Control	0.6923	0.004	No	2.724	-0.004	1.0	NoResponse	0	0.224	488.946	8	51	Target	Neutral	True
489.922	0.5	Control	0.6923	n/a	No	2.724	n/a	n/a	NoResponse	0	n/a	n/a	8	51	Blank	Neutral	True
489.946	0.3	Control	0.6923	0.004	No	2.724	-0.004	1.0	NoResponse	0	0.224	n/a	8	51	ButtonPress	Neutral	True
490.424	1.45	Control	0.6923	n/a	No	2.724	n/a	5.0	NoResponse	0	0.04	489.464	8	51	Feedback	Neutral	True
491.878	2.724	Control	0.6923	n/a	No	2.724	n/a	n/a	NoResponse	0	0.0	n/a	8	51	ISIslide	Neutral	True
494.62	0.25	Control	0.6792	0.0	No	2.63	0.02	n/a	NoResponse	0	n/a	n/a	8	52	Cue	Neutral	True
494.871	4.05	Control	0.6792	0.0	No	2.63	0.001	n/a	NoResponse	0	n/a	n/a	8	52	Fixation	Neutral	True
498.916	0.19	Control	0.6792	0.004	No	2.63	-0.004	1.0	NoResponse	0	0.219	498.135	8	52	Target	Neutral	True
499.117	0.51	Control	0.6792	n/a	No	2.63	n/a	n/a	NoResponse	0	n/a	n/a	8	52	Blank	Neutral	True
499.135	0.3	Control	0.6792	0.004	No	2.63	-0.004	1.0	NoResponse	0	0.219	n/a	8	52	ButtonPress	Neutral	True
499.618	1.45	Control	0.6792	n/a	No	2.63	n/a	5.0	NoResponse	0	0.017	498.635	8	52	Feedback	Neutral	True
501.073	2.63	Control	0.6792	n/a	No	2.63	n/a	n/a	NoResponse	0	0.0	n/a	8	52	ISIslide	Neutral	True
503.731	0.25	Win2	0.6667000000000001	0.0	No	2.919	0.031	n/a	NoResponse	0	n/a	n/a	8	53	Cue	MissedWin	True
503.981	4.05	Win2	0.6667000000000001	0.0	No	2.919	0.0	n/a	NoResponse	0	n/a	n/a	8	53	Fixation	MissedWin	True
508.027	0.18	Win2	0.6667000000000001	0.004	No	2.919	-0.004	1.0	NoResponse	0	0.232	507.259	8	53	Target	MissedWin	True
508.211	0.52	Win2	0.6667000000000001	n/a	No	2.919	n/a	n/a	NoResponse	0	n/a	n/a	8	53	Blank	MissedWin	True
508.259	0.3	Win2	0.6667000000000001	0.004	No	2.919	-0.004	1.0	NoResponse	0	0.232	n/a	8	53	ButtonPress	MissedWin	True
508.729	1.45	Win2	0.6667000000000001	n/a	No	2.919	n/a	5.0	NoResponse	0	0.028	507.757	8	53	Feedback	MissedWin	True
510.183	2.919	Win2	0.6667000000000001	n/a	No	2.919	n/a	n/a	NoResponse	0	0.0	n/a	8	53	ISIslide	MissedWin	True
513.125	0.25	Win2	0.6545000000000001	0.0	No	2.725	0.025	n/a	NoResponse	0	n/a	n/a	8	54	Cue	MissedWin	True
513.376	3.95	Win2	0.6545000000000001	0.0	No	2.725	0.001	n/a	NoResponse	0	n/a	n/a	8	54	Fixation	MissedWin	True
517.321	0.17	Win2	0.6545000000000001	0.004	No	2.725	-0.004	1.0	NoResponse	0	0.198	516.519	8	54	Target	MissedWin	True
517.505	0.53	Win2	0.6545000000000001	n/a	No	2.725	n/a	n/a	NoResponse	0	n/a	n/a	8	54	Blank	MissedWin	True
517.519	0.3	Win2	0.6545000000000001	0.004	No	2.725	-0.004	1.0	NoResponse	0	0.198	n/a	8	54	ButtonPress	MissedWin	True
518.023	1.45	Win2	0.6545000000000001	n/a	No	2.725	n/a	5.0	NoResponse	0	0.001	517.024	8	54	Feedback	MissedWin	True
519.478	2.725	Win2	0.6545000000000001	n/a	No	2.725	n/a	n/a	NoResponse	0	0.0	n/a	8	54	ISIslide	MissedWin	True
522.219	0.25	Control	0.6429	0.0	No	3.031	0.019	n/a	NoResponse	0	n/a	n/a	8	55	Cue	Neutral	True
522.47	3.95	Control	0.6429	0.0	No	3.031	0.001	n/a	NoResponse	0	n/a	n/a	8	55	Fixation	Neutral	True
526.415	0.18	Control	0.6429	0.004	No	3.031	-0.004	1.0	NoResponse	0	0.252	525.667	8	55	Target	Neutral	True
526.599	0.52	Control	0.6429	n/a	No	3.031	n/a	n/a	NoResponse	0	n/a	n/a	8	55	Blank	Neutral	True
526.667	0.3	Control	0.6429	0.004	No	3.031	-0.004	1.0	NoResponse	0	0.252	n/a	8	55	ButtonPress	Neutral	True
527.117	1.45	Control	0.6429	n/a	No	3.031	n/a	5.0	NoResponse	0	0.03	526.147	8	55	Feedback	Neutral	True
528.572	3.031	Control	0.6429	n/a	No	3.031	n/a	n/a	NoResponse	0	0.0	n/a	8	55	ISIslide	Neutral	True
531.631	0.25	Control	0.6315999999999999	0.0	No	2.819	0.031	n/a	NoResponse	0	n/a	n/a	8	56	Cue	Neutral	True
531.882	3.95	Control	0.6315999999999999	0.0	No	2.819	0.001	n/a	NoResponse	0	n/a	n/a	8	56	Fixation	Neutral	True
535.827	0.19	Control	0.6315999999999999	0.004	No	2.819	-0.004	1.0	NoResponse	0	0.211	535.038	8	56	Target	Neutral	True
536.027	0.51	Control	0.6315999999999999	n/a	No	2.819	n/a	n/a	NoResponse	0	n/a	n/a	8	56	Blank	Neutral	True
536.038	0.3	Control	0.6315999999999999	0.004	No	2.819	-0.004	1.0	NoResponse	0	0.211	n/a	8	56	ButtonPress	Neutral	True
536.529	1.45	Control	0.6315999999999999	n/a	No	2.819	n/a	5.0	NoResponse	0	0.032	535.561	8	56	Feedback	Neutral	True
537.983	2.819	Control	0.6315999999999999	n/a	No	2.819	n/a	n/a	NoResponse	0	0.0	n/a	8	56	ISIslide	Neutral	True
540.825	0.25	Control	0.6207	0.0	No	3.475	0.025	n/a	NoResponse	0	n/a	n/a	8	57	Cue	Neutral	True
541.076	4.0	Control	0.6207	0.0	No	3.475	0.001	n/a	NoResponse	0	n/a	n/a	8	57	Fixation	Neutral	True
545.071	0.2	Control	0.6207	0.004	No	3.475	-0.004	1.0	NoResponse	0	0.258	544.329	8	57	Target	Neutral	True
545.272	0.5	Control	0.6207	n/a	No	3.475	n/a	n/a	NoResponse	0	n/a	n/a	8	57	Blank	Neutral	True
545.329	0.3	Control	0.6207	0.004	No	3.475	-0.004	1.0	NoResponse	0	0.258	n/a	8	57	ButtonPress	Neutral	True
545.773	1.45	Control	0.6207	n/a	No	3.475	n/a	5.0	NoResponse	0	0.008	544.781	8	57	Feedback	Neutral	True
547.228	3.475	Control	0.6207	n/a	No	3.475	n/a	n/a	NoResponse	0	0.0	n/a	8	57	ISIslide	Neutral	True
550.721	0.25	Win2	0.6271	0.0	Yes	2.729	0.021	n/a	GoodResponse	1	n/a	n/a	9	58	Cue	Win	True
550.972	4.05	Win2	0.6271	0.0	Yes	2.729	0.001	n/a	GoodResponse	1	n/a	n/a	9	58	Fixation	Win	True
555.018	0.21	Win2	0.6271	0.003	Yes	2.729	-0.003	1.0	GoodResponse	1	0.188	554.206	9	58	Target	Win	True
555.206	0.3	Win2	0.6271	0.003	Yes	2.729	-0.003	1.0	GoodResponse	1	0.188	n/a	9	58	ButtonPress	Win	True
555.235	0.49	Win2	0.6271	n/a	Yes	2.729	n/a	n/a	GoodResponse	1	n/a	n/a	9	58	Blank	Win	True
555.72	1.45	Win2	0.6271	n/a	Yes	2.729	n/a	5.0	GoodResponse	1	0.012	554.732	9	58	Feedback	Win	True
557.174	2.729	Win2	0.6271	n/a	Yes	2.729	n/a	n/a	GoodResponse	1	0.0	n/a	9	58	ISIslide	Win	True
559.916	0.25	Lose2	0.6333	0.0	Yes	2.684	0.016	n/a	GoodResponse	0	n/a	n/a	9	59	Cue	AvoidedLoss	True
560.166	4.0	Lose2	0.6333	0.0	Yes	2.684	0.0	n/a	GoodResponse	0	n/a	n/a	9	59	Fixation	AvoidedLoss	True
564.162	0.22	Lose2	0.6333	0.004	Yes	2.684	-0.004	1.0	GoodResponse	0	0.201	563.363	9	59	Target	AvoidedLoss	True
564.363	0.3	Lose2	0.6333	0.004	Yes	2.684	-0.004	1.0	GoodResponse	0	0.201	n/a	9	59	ButtonPress	AvoidedLoss	True
564.396	0.48	Lose2	0.6333	n/a	Yes	2.684	n/a	n/a	GoodResponse	0	n/a	n/a	9	59	Blank	AvoidedLoss	True
564.864	1.45	Lose2	0.6333	n/a	Yes	2.684	n/a	5.0	GoodResponse	0	0.039	563.903	9	59	Feedback	AvoidedLoss	True
566.318	2.684	Lose2	0.6333	n/a	Yes	2.684	n/a	n/a	GoodResponse	0	0.0	n/a	9	59	ISIslide	AvoidedLoss	True
569.026	0.25	Control	0.6393	0.0	Yes	2.674	0.026	n/a	GoodResponse	0	n/a	n/a	9	60	Cue	Neutral	True
569.277	4.0	Control	0.6393	0.0	Yes	2.674	0.001	n/a	GoodResponse	0	n/a	n/a	9	60	Fixation	Neutral	True
573.272	0.23	Control	0.6393	0.004	Yes	2.674	-0.004	1.0	GoodResponse	0	0.22	572.492	9	60	Target	Neutral	True
573.492	0.3	Control	0.6393	0.004	Yes	2.674	-0.004	1.0	GoodResponse	0	0.22	n/a	9	60	ButtonPress	Neutral	True
573.506	0.47	Control	0.6393	n/a	Yes	2.674	n/a	n/a	GoodResponse	0	n/a	n/a	9	60	Blank	Neutral	True
573.974	1.45	Control	0.6393	n/a	Yes	2.674	n/a	5.0	GoodResponse	0	0.001	572.975	9	60	Feedback	Neutral	True
575.429	2.674	Control	0.6393	n/a	Yes	2.674	n/a	n/a	GoodResponse	0	0.0	n/a	9	60	ISIslide	Neutral	True
578.12	0.25	Lose2	0.6452	0.0	Yes	2.98	0.02	n/a	GoodResponse	0	n/a	n/a	9	61	Cue	AvoidedLoss	True
578.371	4.0	Lose2	0.6452	0.0	Yes	2.98	0.001	n/a	GoodResponse	0	n/a	n/a	9	61	Fixation	AvoidedLoss	True
582.366	0.24	Lose2	0.6452	0.004	Yes	2.98	-0.004	1.0	GoodResponse	0	0.207	581.573	9	61	Target	AvoidedLoss	True
582.573	0.3	Lose2	0.6452	0.004	Yes	2.98	-0.004	1.0	GoodResponse	0	0.207	n/a	9	61	ButtonPress	AvoidedLoss	True
582.617	0.46	Lose2	0.6452	n/a	Yes	2.98	n/a	n/a	GoodResponse	0	n/a	n/a	9	61	Blank	AvoidedLoss	True
583.068	1.45	Lose2	0.6452	n/a	Yes	2.98	n/a	5.0	GoodResponse	0	0.029	582.097	9	61	Feedback	AvoidedLoss	True
584.523	2.98	Lose2	0.6452	n/a	Yes	2.98	n/a	n/a	GoodResponse	0	0.0	n/a	9	61	ISIslide	AvoidedLoss	True
587.515	0.25	Lose2	0.6507999999999999	0.0	Yes	2.885	0.015	n/a	GoodResponse	0	n/a	n/a	9	62	Cue	AvoidedLoss	True
587.766	3.9	Lose2	0.6507999999999999	0.0	Yes	2.885	0.001	n/a	GoodResponse	0	n/a	n/a	9	62	Fixation	AvoidedLoss	True
591.661	0.25	Lose2	0.6507999999999999	0.004	Yes	2.885	-0.004	1.0	GoodResponse	0	0.202	590.863	9	62	Target	AvoidedLoss	True
591.863	0.3	Lose2	0.6507999999999999	0.004	Yes	2.885	-0.004	1.0	GoodResponse	0	0.202	n/a	9	62	ButtonPress	AvoidedLoss	True
591.911	0.45	Lose2	0.6507999999999999	n/a	Yes	2.885	n/a	n/a	GoodResponse	0	n/a	n/a	9	62	Blank	AvoidedLoss	True
592.363	1.45	Lose2	0.6507999999999999	n/a	Yes	2.885	n/a	5.0	GoodResponse	0	0.004	591.367	9	62	Feedback	AvoidedLoss	True
593.817	2.885	Lose2	0.6507999999999999	n/a	Yes	2.885	n/a	n/a	GoodResponse	0	0.0	n/a	9	62	ISIslide	AvoidedLoss	True
596.726	0.25	Lose2	0.6562	0.0	Yes	2.624	0.026	n/a	GoodResponse	0	n/a	n/a	9	63	Cue	AvoidedLoss	True
596.977	4.05	Lose2	0.6562	0.0	Yes	2.624	0.001	n/a	GoodResponse	0	n/a	n/a	9	63	Fixation	AvoidedLoss	True
601.022	0.26	Lose2	0.6562	0.004	Yes	2.624	-0.004	1.0	GoodResponse	0	0.207	600.229	9	63	Target	AvoidedLoss	True
601.229	0.3	Lose2	0.6562	0.004	Yes	2.624	-0.004	1.0	GoodResponse	0	0.207	n/a	9	63	ButtonPress	AvoidedLoss	True
601.29	0.44	Lose2	0.6562	n/a	Yes	2.624	n/a	n/a	GoodResponse	0	n/a	n/a	9	63	Blank	AvoidedLoss	True
601.724	1.45	Lose2	0.6562	n/a	Yes	2.624	n/a	5.0	GoodResponse	0	0.008	600.732	9	63	Feedback	AvoidedLoss	True
603.179	2.624	Lose2	0.6562	n/a	Yes	2.624	n/a	n/a	GoodResponse	0	0.0	n/a	9	63	ISIslide	AvoidedLoss	True
605.82	0.25	Win2	0.6615000000000001	0.0	Yes	3.13	0.02	n/a	GoodResponse	1	n/a	n/a	10	64	Cue	Win	True
606.071	4.15	Win2	0.6615000000000001	0.0	Yes	3.13	0.001	n/a	GoodResponse	1	n/a	n/a	10	64	Fixation	Win	True
610.216	0.26	Win2	0.6615000000000001	0.004	Yes	3.13	-0.004	1.0	GoodResponse	1	0.192	609.408	10	64	Target	Win	True
610.408	0.3	Win2	0.6615000000000001	0.004	Yes	3.13	-0.004	1.0	GoodResponse	1	0.192	n/a	10	64	ButtonPress	Win	True
610.484	0.44	Win2	0.6615000000000001	n/a	Yes	3.13	n/a	n/a	GoodResponse	1	n/a	n/a	10	64	Blank	Win	True
610.918	1.45	Win2	0.6615000000000001	n/a	Yes	3.13	n/a	5.0	GoodResponse	1	0.033	609.951	10	64	Feedback	Win	True
612.373	3.13	Win2	0.6615000000000001	n/a	Yes	3.13	n/a	n/a	GoodResponse	1	0.0	n/a	10	64	ISIslide	Win	True
615.515	0.25	Control	0.6667000000000001	0.001	Yes	2.785	0.015	n/a	GoodResponse	0	n/a	n/a	10	65	Cue	Neutral	True
615.766	4.0	Control	0.6667000000000001	0.0	Yes	2.785	0.001	n/a	GoodResponse	0	n/a	n/a	10	65	Fixation	Neutral	True
619.762	0.26	Control	0.6667000000000001	0.003	Yes	2.785	-0.003	1.0	GoodResponse	0	0.198	618.96	10	65	Target	Neutral	True
619.96	0.3	Control	0.6667000000000001	0.003	Yes	2.785	-0.003	1.0	GoodResponse	0	0.198	n/a	10	65	ButtonPress	Neutral	True
620.029	0.44	Control	0.6667000000000001	n/a	Yes	2.785	n/a	n/a	GoodResponse	0	n/a	n/a	10	65	Blank	Neutral	True
620.464	1.45	Control	0.6667000000000001	n/a	Yes	2.785	n/a	5.0	GoodResponse	0	0.049	619.513	10	65	Feedback	Neutral	True
621.918	2.785	Control	0.6667000000000001	n/a	Yes	2.785	n/a	n/a	GoodResponse	0	0.0	n/a	10	65	ISIslide	Neutral	True
624.726	0.25	Win2	0.6716	0.0	Yes	2.774	0.026	n/a	GoodResponse	1	n/a	n/a	11	66	Cue	Win	True
624.977	3.9	Win2	0.6716	0.0	Yes	2.774	0.001	n/a	GoodResponse	1	n/a	n/a	11	66	Fixation	Win	True
628.872	0.25	Win2	0.6716	0.004	Yes	2.774	-0.004	1.0	GoodResponse	1	0.202	628.074	11	66	Target	Win	True
629.074	0.3	Win2	0.6716	0.004	Yes	2.774	-0.004	1.0	GoodResponse	1	0.202	n/a	11	66	ButtonPress	Win	True
629.123	0.45	Win2	0.6716	n/a	Yes	2.774	n/a	n/a	GoodResponse	1	n/a	n/a	11	66	Blank	Win	True
629.574	1.45	Win2	0.6716	n/a	Yes	2.774	n/a	5.0	GoodResponse	1	0.011	628.585	11	66	Feedback	Win	True
631.029	2.774	Win2	0.6716	n/a	Yes	2.774	n/a	n/a	GoodResponse	1	0.0	n/a	11	66	ISIslide	Win	True
633.82	0.25	Control	0.6765000000000001	0.0	Yes	2.73	0.02	n/a	GoodResponse	0	n/a	n/a	11	67	Cue	Neutral	True
634.071	3.95	Control	0.6765000000000001	0.0	Yes	2.73	0.001	n/a	GoodResponse	0	n/a	n/a	11	67	Fixation	Neutral	True
638.016	0.24	Control	0.6765000000000001	0.004	Yes	2.73	-0.004	1.0	GoodResponse	0	0.204	637.22	11	67	Target	Neutral	True
638.22	0.3	Control	0.6765000000000001	0.004	Yes	2.73	-0.004	1.0	GoodResponse	0	0.204	n/a	11	67	ButtonPress	Neutral	True
638.267	0.46	Control	0.6765000000000001	n/a	Yes	2.73	n/a	n/a	GoodResponse	0	n/a	n/a	11	67	Blank	Neutral	True
638.718	1.45	Control	0.6765000000000001	n/a	Yes	2.73	n/a	5.0	GoodResponse	0	0.038	637.756	11	67	Feedback	Neutral	True
640.173	2.73	Control	0.6765000000000001	n/a	Yes	2.73	n/a	n/a	GoodResponse	0	0.0	n/a	11	67	ISIslide	Neutral	True
642.914	0.25	Win2	0.6812	0.0	Yes	3.086	0.014	n/a	GoodResponse	1	n/a	n/a	12	68	Cue	Win	True
643.165	4.0	Win2	0.6812	0.0	Yes	3.086	0.001	n/a	GoodResponse	1	n/a	n/a	12	68	Fixation	Win	True
647.16	0.23	Win2	0.6812	0.004	Yes	3.086	-0.004	1.0	GoodResponse	1	0.194	646.354	12	68	Target	Win	True
647.354	0.3	Win2	0.6812	0.004	Yes	3.086	-0.004	1.0	GoodResponse	1	0.194	n/a	12	68	ButtonPress	Win	True
647.394	0.47	Win2	0.6812	n/a	Yes	3.086	n/a	n/a	GoodResponse	1	n/a	n/a	12	68	Blank	Win	True
647.862	1.45	Win2	0.6812	n/a	Yes	3.086	n/a	5.0	GoodResponse	1	0.016	646.878	12	68	Feedback	Win	True
649.317	3.086	Win2	0.6812	n/a	Yes	3.086	n/a	n/a	GoodResponse	1	0.0	n/a	12	68	ISIslide	Win	True
652.426	0.25	Win2	0.6857	0.0	Yes	3.224	0.026	n/a	GoodResponse	1	n/a	n/a	13	69	Cue	Win	True
652.677	3.95	Win2	0.6857	0.0	Yes	3.224	0.001	n/a	GoodResponse	1	n/a	n/a	13	69	Fixation	Win	True
656.622	0.22	Win2	0.6857	0.004	Yes	3.224	-0.004	1.0	GoodResponse	1	0.197	655.819	13	69	Target	Win	True
656.819	0.3	Win2	0.6857	0.004	Yes	3.224	-0.004	1.0	GoodResponse	1	0.197	n/a	13	69	ButtonPress	Win	True
656.856	0.48	Win2	0.6857	n/a	Yes	3.224	n/a	n/a	GoodResponse	1	n/a	n/a	13	69	Blank	Win	True
657.324	1.45	Win2	0.6857	n/a	Yes	3.224	n/a	5.0	GoodResponse	1	0.017	656.341	13	69	Feedback	Win	True
658.778	3.224	Win2	0.6857	n/a	Yes	3.224	n/a	n/a	GoodResponse	1	0.0	n/a	13	69	ISIslide	Win	True
662.022	0.25	Lose2	0.6761	0.0	No	3.028	0.022	n/a	NoResponse	-1	n/a	n/a	12	70	Cue	Loss	True
662.272	4.05	Lose2	0.6761	0.0	No	3.028	0.0	n/a	NoResponse	-1	n/a	n/a	12	70	Fixation	Loss	True
666.318	0.21	Lose2	0.6761	0.004	No	3.028	-0.004	1.0	NoResponse	-1	0.224	665.542	12	70	Target	Loss	True
666.535	0.49	Lose2	0.6761	n/a	No	3.028	n/a	n/a	NoResponse	-1	n/a	n/a	12	70	Blank	Loss	True
666.542	0.3	Lose2	0.6761	0.004	No	3.028	-0.004	1.0	NoResponse	-1	0.224	n/a	12	70	ButtonPress	Loss	True
667.02	1.45	Lose2	0.6761	n/a	No	3.028	n/a	5.0	NoResponse	-1	0.029	666.049	12	70	Feedback	Loss	True
668.474	3.028	Lose2	0.6761	n/a	No	3.028	n/a	n/a	NoResponse	-1	0.0	n/a	12	70	ISIslide	Loss	True
671.517	0.25	Win2	0.6667000000000001	0.0	No	2.733	0.017	n/a	NoResponse	0	n/a	n/a	12	71	Cue	MissedWin	True
671.767	4.05	Win2	0.6667000000000001	0.0	No	2.733	0.0	n/a	NoResponse	0	n/a	n/a	12	71	Fixation	MissedWin	True
675.813	0.2	Win2	0.6667000000000001	0.004	No	2.733	-0.004	1.0	NoResponse	0	0.219	675.032	12	71	Target	MissedWin	True
676.013	0.5	Win2	0.6667000000000001	n/a	No	2.733	n/a	n/a	NoResponse	0	n/a	n/a	12	71	Blank	MissedWin	True
676.032	0.3	Win2	0.6667000000000001	0.004	No	2.733	-0.004	1.0	NoResponse	0	0.219	n/a	12	71	ButtonPress	MissedWin	True
676.515	1.45	Win2	0.6667000000000001	n/a	No	2.733	n/a	5.0	NoResponse	0	0.046	675.561	12	71	Feedback	MissedWin	True
677.969	2.733	Win2	0.6667000000000001	n/a	No	2.733	n/a	n/a	NoResponse	0	0.0	n/a	12	71	ISIslide	MissedWin	True
680.728	0.25	Win2	0.6712	0.0	Yes	2.772	0.028	n/a	GoodResponse	1	n/a	n/a	13	72	Cue	Win	True
680.978	4.1	Win2	0.6712	0.0	Yes	2.772	0.0	n/a	GoodResponse	1	n/a	n/a	13	72	Fixation	Win	True
685.074	0.19	Win2	0.6712	0.004	Yes	2.772	-0.004	1.0	GoodResponse	1	0.189	684.263	13	72	Target	Win	True
685.263	0.3	Win2	0.6712	0.004	Yes	2.772	-0.004	1.0	GoodResponse	1	0.189	n/a	13	72	ButtonPress	Win	True
685.275	0.51	Win2	0.6712	n/a	Yes	2.772	n/a	n/a	GoodResponse	1	n/a	n/a	13	72	Blank	Win	True
685.776	1.45	Win2	0.6712	n/a	Yes	2.772	n/a	5.0	GoodResponse	1	0.006	684.782	13	72	Feedback	Win	True
687.23	2.772	Win2	0.6712	n/a	Yes	2.772	n/a	n/a	GoodResponse	1	0.0	n/a	13	72	ISIslide	Win	True
690.022	0.25	Win2	0.6622	0.0	No	2.678	0.022	n/a	NoResponse	0	n/a	n/a	13	73	Cue	MissedWin	True
690.273	4.0	Win2	0.6622	0.0	No	2.678	0.001	n/a	NoResponse	0	n/a	n/a	13	73	Fixation	MissedWin	True
694.268	0.18	Win2	0.6622	0.004	No	2.678	-0.004	1.0	NoResponse	0	0.216	693.484	13	73	Target	MissedWin	True
694.452	0.52	Win2	0.6622	n/a	No	2.678	n/a	n/a	NoResponse	0	n/a	n/a	13	73	Blank	MissedWin	True
694.484	0.3	Win2	0.6622	0.004	No	2.678	-0.004	1.0	NoResponse	0	0.216	n/a	13	73	ButtonPress	MissedWin	True
694.97	1.45	Win2	0.6622	n/a	No	2.678	n/a	5.0	NoResponse	0	0.029	693.999	13	73	Feedback	MissedWin	True
696.425	2.678	Win2	0.6622	n/a	No	2.678	n/a	n/a	NoResponse	0	0.0	n/a	13	73	ISIslide	MissedWin	True
699.116	0.25	Lose2	0.6533	0.0	No	2.634	0.016	n/a	NoResponse	-1	n/a	n/a	12	74	Cue	Loss	True
699.367	4.05	Lose2	0.6533	0.0	No	2.634	0.001	n/a	NoResponse	-1	n/a	n/a	12	74	Fixation	Loss	True
703.412	0.18	Lose2	0.6533	0.004	No	2.634	-0.004	1.0	NoResponse	-1	0.196	702.608	12	74	Target	Loss	True
703.596	0.52	Lose2	0.6533	n/a	No	2.634	n/a	n/a	NoResponse	-1	n/a	n/a	12	74	Blank	Loss	True
703.608	0.3	Lose2	0.6533	0.004	No	2.634	-0.004	1.0	NoResponse	-1	0.196	n/a	12	74	ButtonPress	Loss	True
704.114	1.45	Lose2	0.6533	n/a	No	2.634	n/a	5.0	NoResponse	-1	0.007	703.121	12	74	Feedback	Loss	True
705.569	2.634	Lose2	0.6533	n/a	No	2.634	n/a	n/a	NoResponse	-1	0.0	n/a	12	74	ISIslide	Loss	True
708.227	0.25	Lose2	0.6446999999999999	0.0	No	2.923	0.027	n/a	NoResponse	-1	n/a	n/a	11	75	Cue	Loss	True
708.477	3.95	Lose2	0.6446999999999999	0.0	No	2.923	0.0	n/a	NoResponse	-1	n/a	n/a	11	75	Fixation	Loss	True
712.423	0.19	Lose2	0.6446999999999999	0.004	No	2.923	-0.004	1.0	NoResponse	-1	0.24	711.663	11	75	Target	Loss	True
712.623	0.51	Lose2	0.6446999999999999	n/a	No	2.923	n/a	n/a	NoResponse	-1	n/a	n/a	11	75	Blank	Loss	True
712.663	0.3	Lose2	0.6446999999999999	0.004	No	2.923	-0.004	1.0	NoResponse	-1	0.24	n/a	11	75	ButtonPress	Loss	True
713.125	1.45	Lose2	0.6446999999999999	n/a	No	2.923	n/a	5.0	NoResponse	-1	0.021	712.146	11	75	Feedback	Loss	True
714.579	2.923	Lose2	0.6446999999999999	n/a	No	2.923	n/a	n/a	NoResponse	-1	0.0	n/a	11	75	ISIslide	Loss	True
717.521	0.25	Control	0.6494	0.0	Yes	3.229	0.021	n/a	GoodResponse	0	n/a	n/a	11	76	Cue	Neutral	True
717.772	4.05	Control	0.6494	0.0	Yes	3.229	0.001	n/a	GoodResponse	0	n/a	n/a	11	76	Fixation	Neutral	True
721.817	0.2	Control	0.6494	0.004	Yes	3.229	-0.004	1.0	GoodResponse	0	0.193	721.01	11	76	Target	Neutral	True
722.01	0.3	Control	0.6494	0.004	Yes	3.229	-0.004	1.0	GoodResponse	0	0.193	n/a	11	76	ButtonPress	Neutral	True
722.018	0.5	Control	0.6494	n/a	Yes	3.229	n/a	n/a	GoodResponse	0	n/a	n/a	11	76	Blank	Neutral	True
722.519	1.45	Control	0.6494	n/a	Yes	3.229	n/a	5.0	GoodResponse	0	0.042	721.561	11	76	Feedback	Neutral	True
723.974	3.229	Control	0.6494	n/a	Yes	3.229	n/a	n/a	GoodResponse	0	0.0	n/a	11	76	ISIslide	Neutral	True
727.217	0.25	Lose2	0.6537999999999999	0.0	Yes	2.583	0.017	n/a	GoodResponse	0	n/a	n/a	11	77	Cue	AvoidedLoss	True
727.468	3.95	Lose2	0.6537999999999999	0.0	Yes	2.583	0.001	n/a	GoodResponse	0	n/a	n/a	11	77	Fixation	AvoidedLoss	True
731.413	0.21	Lose2	0.6537999999999999	0.004	Yes	2.583	-0.004	1.0	GoodResponse	0	0.198	730.611	11	77	Target	AvoidedLoss	True
731.611	0.3	Lose2	0.6537999999999999	0.004	Yes	2.583	-0.004	1.0	GoodResponse	0	0.198	n/a	11	77	ButtonPress	AvoidedLoss	True
731.63	0.49	Lose2	0.6537999999999999	n/a	Yes	2.583	n/a	n/a	GoodResponse	0	n/a	n/a	11	77	Blank	AvoidedLoss	True
732.115	1.45	Lose2	0.6537999999999999	n/a	Yes	2.583	n/a	5.0	GoodResponse	0	0.007	731.122	11	77	Feedback	AvoidedLoss	True
733.569	2.583	Lose2	0.6537999999999999	n/a	Yes	2.583	n/a	n/a	GoodResponse	0	0.0	n/a	11	77	ISIslide	AvoidedLoss	True
