onset	duration	cue_type	current_mean_accuracy	duration_error	is_hit	isi_adjusted	onset_delay	response	response_type	reward	rt	rt_time	total_reward	trial_number	trial_phase	trial_type	one_press
11.104	0.25	Control	1.0	0.0	Yes	2.946	0.004	n/a	GoodResponse	0	n/a	n/a	0	0	Cue	Neutral	True
11.355	3.85	Control	1.0	0.0	Yes	2.946	0.001	n/a	GoodResponse	0	n/a	n/a	0	0	Fixation	Neutral	True
15.2	0.4	Control	1.0	0.004	Yes	2.946	-0.004	2.0	GoodResponse	0	0.241	14.441	0	0	Target	Neutral	True
15.441	0.3	Control	1.0	0.004	Yes	2.946	-0.004	2.0	GoodResponse	0	0.241	n/a	0	0	ButtonPress	Neutral	True
15.601	0.3	Control	1.0	n/a	Yes	2.946	n/a	n/a	GoodResponse	0	n/a	n/a	0	0	Blank	Neutral	True
15.902	1.45	Control	1.0	n/a	Yes	2.946	n/a	5.0	GoodResponse	0	0.025	14.927	0	0	Feedback	Neutral	True
17.356	2.946	Control	1.0	n/a	Yes	2.946	n/a	n/a	GoodResponse	0	0.0	n/a	0	0	ISIslide	Neutral	True
20.315	0.25	Lose2	1.0	0.0	Yes	2.785	0.015	n/a	GoodResponse	0	n/a	n/a	0	1	Cue	AvoidedLoss	True
20.566	4.0	Lose2	1.0	0.0	Yes	2.785	0.001	n/a	GoodResponse	0	n/a	n/a	0	1	Fixation	AvoidedLoss	True
24.561	0.39	Lose2	1.0	0.004	Yes	2.785	-0.004	2.0	GoodResponse	0	0.101	23.662	0	1	Target	AvoidedLoss	True
24.662	0.3	Lose2	1.0	0.004	Yes	2.785	-0.004	2.0	GoodResponse	0	0.101	n/a	0	1	ButtonPress	AvoidedLoss	True
24.962	0.31	Lose2	1.0	n/a	Yes	2.785	n/a	n/a	GoodResponse	0	n/a	n/a	0	1	Blank	AvoidedLoss	True
25.263	1.45	Lose2	1.0	n/a	Yes	2.785	n/a	5.0	GoodResponse	0	0.029	24.292	0	1	Feedback	AvoidedLoss	True
26.718	2.785	Lose2	1.0	n/a	Yes	2.785	n/a	n/a	GoodResponse	0	0.0	n/a	0	1	ISIslide	AvoidedLoss	True
29.526	0.25	Control	1.0	0.0	Yes	2.574	0.026	n/a	GoodResponse	0	n/a	n/a	0	2	Cue	Neutral	True
29.777	4.1	Control	1.0	0.0	Yes	2.574	0.001	n/a	GoodResponse	0	n/a	n/a	0	2	Fixation	Neutral	True
33.872	0.38	Control	1.0	0.004	Yes	2.574	-0.004	2.0	GoodResponse	0	0.185	33.057	0	2	Target	Neutral	True
34.057	0.3	Control	1.0	0.004	Yes	2.574	-0.004	2.0	GoodResponse	0	0.185	n/a	0	2	ButtonPress	Neutral	True
34.257	0.32	Control	1.0	n/a	Yes	2.574	n/a	n/a	GoodResponse	0	n/a	n/a	0	2	Blank	Neutral	True
34.575	1.45	Control	1.0	n/a	Yes	2.574	n/a	5.0	GoodResponse	0	0.034	33.609	0	2	Feedback	Neutral	True
36.029	2.574	Control	1.0	n/a	Yes	2.574	n/a	n/a	GoodResponse	0	0.0	n/a	0	2	ISIslide	Neutral	True
38.62	0.25	Win2	1.0	0.0	Yes	2.83	0.02	n/a	GoodResponse	1	n/a	n/a	1	3	Cue	Win	True
38.871	3.95	Win2	1.0	0.0	Yes	2.83	0.001	n/a	GoodResponse	1	n/a	n/a	1	3	Fixation	Win	True
42.816	0.37	Win2	1.0	0.004	Yes	2.83	-0.004	2.0	GoodResponse	1	0.184	42.0	1	3	Target	Win	True
43	0.3	Win2	1.0	0.004	Yes	2.83	-0.004	2.0	GoodResponse	1	0.184	n/a	1	3	ButtonPress	Win	True
43.2	0.33	Win2	1.0	n/a	Yes	2.83	n/a	n/a	GoodResponse	1	n/a	n/a	1	3	Blank	Win	True
43.518	1.45	Win2	1.0	n/a	Yes	2.83	n/a	5.0	GoodResponse	1	0.018	42.536	1	3	Feedback	Win	True
44.972	2.83	Win2	1.0	n/a	Yes	2.83	n/a	n/a	GoodResponse	1	0.0	n/a	1	3	ISIslide	Win	True
47.831	0.25	Win2	1.0	0.0	Yes	3.269	0.031	n/a	GoodResponse	1	n/a	n/a	2	4	Cue	Win	True
48.082	4.0	Win2	1.0	0.0	Yes	3.269	0.001	n/a	GoodResponse	1	n/a	n/a	2	4	Fixation	Win	True
52.077	0.36	Win2	1.0	0.004	Yes	3.269	-0.004	2.0	GoodResponse	1	0.182	51.259	2	4	Target	Win	True
52.259	0.3	Win2	1.0	0.004	Yes	3.269	-0.004	2.0	GoodResponse	1	0.182	n/a	2	4	ButtonPress	Win	True
52.445	0.34	Win2	1.0	n/a	Yes	3.269	n/a	n/a	GoodResponse	1	n/a	n/a	2	4	Blank	Win	True
52.779	1.45	Win2	1.0	n/a	Yes	3.269	n/a	5.0	GoodResponse	1	0.025	51.804	2	4	Feedback	Win	True
54.233	3.269	Win2	1.0	n/a	Yes	3.269	n/a	n/a	GoodResponse	1	0.0	n/a	2	4	ISIslide	Win	True
57.527	0.25	Win2	1.0	0.0	Yes	2.773	0.027	n/a	GoodResponse	1	n/a	n/a	3	5	Cue	Win	True
57.777	4.0	Win2	1.0	0.0	Yes	2.773	0.0	n/a	GoodResponse	1	n/a	n/a	3	5	Fixation	Win	True
61.773	0.35	Win2	1.0	0.004	Yes	2.773	-0.004	2.0	GoodResponse	1	0.196	60.969	3	5	Target	Win	True
61.969	0.3	Win2	1.0	0.004	Yes	2.773	-0.004	2.0	GoodResponse	1	0.196	n/a	3	5	ButtonPress	Win	True
62.124	0.35	Win2	1.0	n/a	Yes	2.773	n/a	n/a	GoodResponse	1	n/a	n/a	3	5	Blank	Win	True
62.475	1.45	Win2	1.0	n/a	Yes	2.773	n/a	5.0	GoodResponse	1	0.036	61.511	3	5	Feedback	Win	True
63.929	2.773	Win2	1.0	n/a	Yes	2.773	n/a	n/a	GoodResponse	1	0.0	n/a	3	5	ISIslide	Win	True
66.721	0.25	Lose2	1.0	0.0	Yes	2.729	0.021	n/a	GoodResponse	0	n/a	n/a	3	6	Cue	AvoidedLoss	True
66.971	3.95	Lose2	1.0	0.001	Yes	2.729	0.0	n/a	GoodResponse	0	n/a	n/a	3	6	Fixation	AvoidedLoss	True
70.917	0.34	Lose2	1.0	0.004	Yes	2.729	-0.004	2.0	GoodResponse	0	0.182	70.099	3	6	Target	AvoidedLoss	True
71.099	0.3	Lose2	1.0	0.004	Yes	2.729	-0.004	2.0	GoodResponse	0	0.182	n/a	3	6	ButtonPress	AvoidedLoss	True
71.268	0.36	Lose2	1.0	n/a	Yes	2.729	n/a	n/a	GoodResponse	0	n/a	n/a	3	6	Blank	AvoidedLoss	True
71.619	1.45	Lose2	1.0	n/a	Yes	2.729	n/a	5.0	GoodResponse	0	0.014	70.633	3	6	Feedback	AvoidedLoss	True
73.073	2.729	Lose2	1.0	n/a	Yes	2.729	n/a	n/a	GoodResponse	0	0.0	n/a	3	6	ISIslide	AvoidedLoss	True
75.815	0.25	Lose2	1.0	0.0	Yes	4.035	0.015	n/a	GoodResponse	0	n/a	n/a	3	7	Cue	AvoidedLoss	True
76.065	4.05	Lose2	1.0	0.0	Yes	4.035	0.0	n/a	GoodResponse	0	n/a	n/a	3	7	Fixation	AvoidedLoss	True
80.111	0.33	Lose2	1.0	0.004	Yes	4.035	-0.004	2.0	GoodResponse	0	0.2	79.311	3	7	Target	AvoidedLoss	True
80.311	0.3	Lose2	1.0	0.004	Yes	4.035	-0.004	2.0	GoodResponse	0	0.2	n/a	3	7	ButtonPress	AvoidedLoss	True
80.445	0.37	Lose2	1.0	n/a	Yes	4.035	n/a	n/a	GoodResponse	0	n/a	n/a	3	7	Blank	AvoidedLoss	True
80.813	1.45	Lose2	1.0	n/a	Yes	4.035	n/a	5.0	GoodResponse	0	0.039	79.852	3	7	Feedback	AvoidedLoss	True
82.267	4.035	Lose2	1.0	n/a	Yes	4.035	n/a	n/a	GoodResponse	0	0.0	n/a	3	7	ISIslide	AvoidedLoss	True
86.329	0.25	Lose2	1.0	0.0	Yes	3.021	0.029	n/a	GoodResponse	0	n/a	n/a	3	8	Cue	AvoidedLoss	True
86.58	3.95	Lose2	1.0	0.0	Yes	3.021	0.001	n/a	GoodResponse	0	n/a	n/a	3	8	Fixation	AvoidedLoss	True
90.525	0.32	Lose2	1.0	0.004	Yes	3.021	-0.004	2.0	GoodResponse	0	0.174	89.699	3	8	Target	AvoidedLoss	True
90.699	0.3	Lose2	1.0	0.004	Yes	3.021	-0.004	2.0	GoodResponse	0	0.174	n/a	3	8	ButtonPress	AvoidedLoss	True
90.86	0.38	Lose2	1.0	n/a	Yes	3.021	n/a	n/a	GoodResponse	0	n/a	n/a	3	8	Blank	AvoidedLoss	True
91.227	1.45	Lose2	1.0	n/a	Yes	3.021	n/a	5.0	GoodResponse	0	0.016	90.243	3	8	Feedback	AvoidedLoss	True
92.682	3.021	Lose2	1.0	n/a	Yes	3.021	n/a	n/a	GoodResponse	0	0.0	n/a	3	8	ISIslide	AvoidedLoss	True
95.724	0.25	Lose2	1.0	0.0	Yes	3.126	0.024	n/a	GoodResponse	0	n/a	n/a	3	9	Cue	AvoidedLoss	True
95.975	3.95	Lose2	1.0	0.0	Yes	3.126	0.001	n/a	GoodResponse	0	n/a	n/a	3	9	Fixation	AvoidedLoss	True
99.92	0.31	Lose2	1.0	0.004	Yes	3.126	-0.004	2.0	GoodResponse	0	0.175	99.095	3	9	Target	AvoidedLoss	True
100.095	0.3	Lose2	1.0	0.004	Yes	3.126	-0.004	2.0	GoodResponse	0	0.175	n/a	3	9	ButtonPress	AvoidedLoss	True
100.238	0.39	Lose2	1.0	n/a	Yes	3.126	n/a	n/a	GoodResponse	0	n/a	n/a	3	9	Blank	AvoidedLoss	True
100.622	1.45	Lose2	1.0	n/a	Yes	3.126	n/a	5.0	GoodResponse	0	0.035	99.657	3	9	Feedback	AvoidedLoss	True
102.077	3.126	Lose2	1.0	n/a	Yes	3.126	n/a	n/a	GoodResponse	0	0.0	n/a	3	9	ISIslide	AvoidedLoss	True
105.219	0.25	Control	1.0	0.0	Yes	3.281	0.019	n/a	GoodResponse	0	n/a	n/a	3	10	Cue	Neutral	True
105.47	4.0	Control	1.0	0.0	Yes	3.281	0.001	n/a	GoodResponse	0	n/a	n/a	3	10	Fixation	Neutral	True
109.465	0.3	Control	1.0	0.004	Yes	3.281	-0.004	2.0	GoodResponse	0	0.169	108.634	3	10	Target	Neutral	True
109.634	0.3	Control	1.0	0.004	Yes	3.281	-0.004	2.0	GoodResponse	0	0.169	n/a	3	10	ButtonPress	Neutral	True
109.766	0.4	Control	1.0	n/a	Yes	3.281	n/a	n/a	GoodResponse	0	n/a	n/a	3	10	Blank	Neutral	True
110.167	1.45	Control	1.0	n/a	Yes	3.281	n/a	5.0	GoodResponse	0	0.007	109.174	3	10	Feedback	Neutral	True
111.622	3.281	Control	1.0	n/a	Yes	3.281	n/a	n/a	GoodResponse	0	0.0	n/a	3	10	ISIslide	Neutral	True
114.915	0.25	Lose2	1.0	0.0	Yes	2.735	0.015	n/a	GoodResponse	0	n/a	n/a	3	11	Cue	AvoidedLoss	True
115.166	4.05	Lose2	1.0	0.0	Yes	2.735	0.001	n/a	GoodResponse	0	n/a	n/a	3	11	Fixation	AvoidedLoss	True
119.211	0.29	Lose2	1.0	0.004	Yes	2.735	-0.004	2.0	GoodResponse	0	0.178	118.389	3	11	Target	AvoidedLoss	True
119.389	0.3	Lose2	1.0	0.004	Yes	2.735	-0.004	2.0	GoodResponse	0	0.178	n/a	3	11	ButtonPress	AvoidedLoss	True
119.512	0.41	Lose2	1.0	n/a	Yes	2.735	n/a	n/a	GoodResponse	0	n/a	n/a	3	11	Blank	AvoidedLoss	True
119.913	1.45	Lose2	1.0	n/a	Yes	2.735	n/a	5.0	GoodResponse	0	0.012	118.925	3	11	Feedback	AvoidedLoss	True
121.368	2.735	Lose2	1.0	n/a	Yes	2.735	n/a	n/a	GoodResponse	0	0.0	n/a	3	11	ISIslide	AvoidedLoss	True
124.126	0.25	Control	1.0	0.0	Yes	2.974	0.026	n/a	GoodResponse	0	n/a	n/a	3	12	Cue	Neutral	True
124.377	3.9	Control	1.0	0.0	Yes	2.974	0.001	n/a	GoodResponse	0	n/a	n/a	3	12	Fixation	Neutral	True
128.272	0.28	Control	1.0	0.004	Yes	2.974	-0.004	2.0	GoodResponse	0	0.176	127.448	3	12	Target	Neutral	True
128.448	0.3	Control	1.0	0.004	Yes	2.974	-0.004	2.0	GoodResponse	0	0.176	n/a	3	12	ButtonPress	Neutral	True
128.556	0.42	Control	1.0	n/a	Yes	2.974	n/a	n/a	GoodResponse	0	n/a	n/a	3	12	Blank	Neutral	True
128.974	1.45	Control	1.0	n/a	Yes	2.974	n/a	5.0	GoodResponse	0	0.024	127.998	3	12	Feedback	Neutral	True
130.428	2.974	Control	1.0	n/a	Yes	2.974	n/a	n/a	GoodResponse	0	0.0	n/a	3	12	ISIslide	Neutral	True
133.42	0.25	Control	1.0	0.0	Yes	2.78	0.02	n/a	GoodResponse	0	n/a	n/a	3	13	Cue	Neutral	True
133.671	4.0	Control	1.0	0.0	Yes	2.78	0.001	n/a	GoodResponse	0	n/a	n/a	3	13	Fixation	Neutral	True
137.666	0.27	Control	1.0	0.004	Yes	2.78	-0.004	2.0	GoodResponse	0	0.186	136.852	3	13	Target	Neutral	True
137.852	0.3	Control	1.0	0.004	Yes	2.78	-0.004	2.0	GoodResponse	0	0.186	n/a	3	13	ButtonPress	Neutral	True
137.951	0.43	Control	1.0	n/a	Yes	2.78	n/a	n/a	GoodResponse	0	n/a	n/a	3	13	Blank	Neutral	True
138.369	1.45	Control	1.0	n/a	Yes	2.78	n/a	5.0	GoodResponse	0	0.044	137.413	3	13	Feedback	Neutral	True
139.823	2.78	Control	1.0	n/a	Yes	2.78	n/a	n/a	GoodResponse	0	0.0	n/a	3	13	ISIslide	Neutral	True
142.631	0.25	Win2	1.0	0.0	Yes	2.669	0.031	n/a	GoodResponse	1	n/a	n/a	4	14	Cue	Win	True
142.882	4.1	Win2	1.0	0.0	Yes	2.669	0.001	n/a	GoodResponse	1	n/a	n/a	4	14	Fixation	Win	True
146.978	0.26	Win2	1.0	0.003	Yes	2.669	-0.003	2.0	GoodResponse	1	0.177	146.155	4	14	Target	Win	True
147.155	0.3	Win2	1.0	0.003	Yes	2.669	-0.003	2.0	GoodResponse	1	0.177	n/a	4	14	ButtonPress	Win	True
147.245	0.44	Win2	1.0	n/a	Yes	2.669	n/a	n/a	GoodResponse	1	n/a	n/a	4	14	Blank	Win	True
147.68	1.45	Win2	1.0	n/a	Yes	2.669	n/a	5.0	GoodResponse	1	0.001	146.681	4	14	Feedback	Win	True
149.134	2.669	Win2	1.0	n/a	Yes	2.669	n/a	n/a	GoodResponse	1	0.0	n/a	4	14	ISIslide	Win	True
151.825	0.25	Control	1.0	0.001	Yes	2.975	0.025	n/a	GoodResponse	0	n/a	n/a	4	15	Cue	Neutral	True
152.076	4.0	Control	1.0	0.0	Yes	2.975	0.001	n/a	GoodResponse	0	n/a	n/a	4	15	Fixation	Neutral	True
156.072	0.25	Control	1.0	0.003	Yes	2.975	-0.003	2.0	GoodResponse	0	0.185	155.257	4	15	Target	Neutral	True
156.257	0.3	Control	1.0	0.003	Yes	2.975	-0.003	2.0	GoodResponse	0	0.185	n/a	4	15	ButtonPress	Neutral	True
156.322	0.45	Control	1.0	n/a	Yes	2.975	n/a	n/a	GoodResponse	0	n/a	n/a	4	15	Blank	Neutral	True
156.774	1.45	Control	1.0	n/a	Yes	2.975	n/a	5.0	GoodResponse	0	0.029	155.803	4	15	Feedback	Neutral	True
158.228	2.975	Control	1.0	n/a	Yes	2.975	n/a	n/a	GoodResponse	0	0.0	n/a	4	15	ISIslide	Neutral	True
161.22	0.25	Win2	1.0	0.0	Yes	2.88	0.02	n/a	GoodResponse	1	n/a	n/a	5	16	Cue	Win	True
161.471	4.0	Win2	1.0	0.0	Yes	2.88	0.001	n/a	GoodResponse	1	n/a	n/a	5	16	Fixation	Win	True
165.466	0.24	Win2	1.0	0.004	Yes	2.88	-0.004	2.0	GoodResponse	1	0.139	164.605	5	16	Target	Win	True
165.605	0.3	Win2	1.0	0.004	Yes	2.88	-0.004	2.0	GoodResponse	1	0.139	n/a	5	16	ButtonPress	Win	True
165.717	0.46	Win2	1.0	n/a	Yes	2.88	n/a	n/a	GoodResponse	1	n/a	n/a	5	16	Blank	Win	True
166.168	1.45	Win2	1.0	n/a	Yes	2.88	n/a	5.0	GoodResponse	1	0.001	165.169	5	16	Feedback	Win	True
167.623	2.88	Win2	1.0	n/a	Yes	2.88	n/a	n/a	GoodResponse	1	0.0	n/a	5	16	ISIslide	Win	True
170.515	0.25	Lose2	1.0	0.0	Yes	2.735	0.015	n/a	GoodResponse	0	n/a	n/a	5	17	Cue	AvoidedLoss	True
170.765	3.95	Lose2	1.0	0.001	Yes	2.735	0.0	n/a	GoodResponse	0	n/a	n/a	5	17	Fixation	AvoidedLoss	True
174.711	0.23	Lose2	1.0	0.004	Yes	2.735	-0.004	2.0	GoodResponse	0	0.206	173.917	5	17	Target	AvoidedLoss	True
174.917	0.3	Lose2	1.0	0.004	Yes	2.735	-0.004	2.0	GoodResponse	0	0.206	n/a	5	17	ButtonPress	AvoidedLoss	True
174.945	0.47	Lose2	1.0	n/a	Yes	2.735	n/a	n/a	GoodResponse	0	n/a	n/a	5	17	Blank	AvoidedLoss	True
175.413	1.45	Lose2	1.0	n/a	Yes	2.735	n/a	5.0	GoodResponse	0	0.024	174.437	5	17	Feedback	AvoidedLoss	True
176.867	2.735	Lose2	1.0	n/a	Yes	2.735	n/a	n/a	GoodResponse	0	0.0	n/a	5	17	ISIslide	AvoidedLoss	True
179.625	0.25	Lose2	1.0	0.0	Yes	2.725	0.025	n/a	GoodResponse	0	n/a	n/a	5	18	Cue	AvoidedLoss	True
179.876	4.05	Lose2	1.0	0.0	Yes	2.725	0.001	n/a	GoodResponse	0	n/a	n/a	5	18	Fixation	AvoidedLoss	True
183.922	0.22	Lose2	1.0	0.003	Yes	2.725	-0.003	2.0	GoodResponse	0	0.156	183.078	5	18	Target	AvoidedLoss	True
184.078	0.3	Lose2	1.0	0.003	Yes	2.725	-0.003	2.0	GoodResponse	0	0.156	n/a	5	18	ButtonPress	AvoidedLoss	True
184.156	0.48	Lose2	1.0	n/a	Yes	2.725	n/a	n/a	GoodResponse	0	n/a	n/a	5	18	Blank	AvoidedLoss	True
184.624	1.45	Lose2	1.0	n/a	Yes	2.725	n/a	5.0	GoodResponse	0	0.032	183.656	5	18	Feedback	AvoidedLoss	True
186.078	2.725	Lose2	1.0	n/a	Yes	2.725	n/a	n/a	GoodResponse	0	0.0	n/a	5	18	ISIslide	AvoidedLoss	True
188.82	0.25	Control	1.0	0.0	Yes	2.93	0.02	n/a	GoodResponse	0	n/a	n/a	5	19	Cue	Neutral	True
189.07	3.95	Control	1.0	0.0	Yes	2.93	0.0	n/a	GoodResponse	0	n/a	n/a	5	19	Fixation	Neutral	True
193.015	0.21	Control	1.0	0.005	Yes	2.93	-0.005	2.0	GoodResponse	0	0.191	192.206	5	19	Target	Neutral	True
193.206	0.3	Control	1.0	0.005	Yes	2.93	-0.005	2.0	GoodResponse	0	0.191	n/a	5	19	ButtonPress	Neutral	True
193.233	0.49	Control	1.0	n/a	Yes	2.93	n/a	n/a	GoodResponse	0	n/a	n/a	5	19	Blank	Neutral	True
193.718	1.45	Control	1.0	n/a	Yes	2.93	n/a	5.0	GoodResponse	0	0.011	192.729	5	19	Feedback	Neutral	True
195.172	2.93	Control	1.0	n/a	Yes	2.93	n/a	n/a	GoodResponse	0	0.0	n/a	5	19	ISIslide	Neutral	True
198.114	0.25	Control	1.0	0.0	Yes	2.636	0.014	n/a	GoodResponse	0	n/a	n/a	5	20	Cue	Neutral	True
198.365	4.05	Control	1.0	0.0	Yes	2.636	0.001	n/a	GoodResponse	0	n/a	n/a	5	20	Fixation	Neutral	True
202.41	0.2	Control	1.0	0.004	Yes	2.636	-0.004	2.0	GoodResponse	0	0.168	201.578	5	20	Target	Neutral	True
202.578	0.3	Control	1.0	0.004	Yes	2.636	-0.004	2.0	GoodResponse	0	0.168	n/a	5	20	ButtonPress	Neutral	True
202.611	0.5	Control	1.0	n/a	Yes	2.636	n/a	n/a	GoodResponse	0	n/a	n/a	5	20	Blank	Neutral	True
203.112	1.45	Control	1.0	n/a	Yes	2.636	n/a	5.0	GoodResponse	0	0.032	202.144	5	20	Feedback	Neutral	True
204.567	2.636	Control	1.0	n/a	Yes	2.636	n/a	n/a	GoodResponse	0	0.0	n/a	5	20	ISIslide	Neutral	True
207.225	0.25	Control	1.0	0.0	Yes	2.775	0.025	n/a	GoodResponse	0	n/a	n/a	5	21	Cue	Neutral	True
207.475	4.1	Control	1.0	0.0	Yes	2.775	0.0	n/a	GoodResponse	0	n/a	n/a	5	21	Fixation	Neutral	True
211.571	0.19	Control	1.0	0.004	Yes	2.775	-0.004	2.0	GoodResponse	0	0.18	210.751	5	21	Target	Neutral	True
211.751	0.3	Control	1.0	0.004	Yes	2.775	-0.004	2.0	GoodResponse	0	0.18	n/a	5	21	ButtonPress	Neutral	True
211.772	0.51	Control	1.0	n/a	Yes	2.775	n/a	n/a	GoodResponse	0	n/a	n/a	5	21	Blank	Neutral	True
212.273	1.45	Control	1.0	n/a	Yes	2.775	n/a	5.0	GoodResponse	0	0.042	211.315	5	21	Feedback	Neutral	True
213.727	2.775	Control	1.0	n/a	Yes	2.775	n/a	n/a	GoodResponse	0	0.0	n/a	5	21	ISIslide	Neutral	True
216.519	0.25	Control	0.9565	0.0	No	2.781	0.019	n/a	NoResponse	0	n/a	n/a	5	22	Cue	Neutral	True
216.77	4.0	Control	0.9565	0.0	No	2.781	0.001	n/a	NoResponse	0	n/a	n/a	5	22	Fixation	Neutral	True
220.765	0.18	Control	0.9565	0.004	No	2.781	-0.004	2.0	NoResponse	0	0.253	220.018	5	22	Target	Neutral	True
220.949	0.52	Control	0.9565	n/a	No	2.781	n/a	n/a	NoResponse	0	n/a	n/a	5	22	Blank	Neutral	True
221.018	0.3	Control	0.9565	0.004	No	2.781	-0.004	2.0	NoResponse	0	0.253	n/a	5	22	ButtonPress	Neutral	True
221.467	1.45	Control	0.9565	n/a	No	2.781	n/a	5.0	NoResponse	0	0.018	220.485	5	22	Feedback	Neutral	True
222.922	2.781	Control	0.9565	n/a	No	2.781	n/a	n/a	NoResponse	0	0.0	n/a	5	22	ISIslide	Neutral	True
225.73	0.25	Control	0.9167000000000001	0.0	No	2.77	0.03	n/a	LatePress	0	n/a	n/a	5	23	Cue	Neutral	True
225.981	3.9	Control	0.9167000000000001	0.0	No	2.77	0.001	n/a	LatePress	0	n/a	n/a	5	23	Fixation	Neutral	True
229.876	0.17	Control	0.9167000000000001	0.004	No	2.77	-0.004	2.0	LatePress	0	0.172	229.048	5	23	Target	Neutral	True
230.048	0.3	Control	0.9167000000000001	0.004	No	2.77	-0.004	2.0	LatePress	0	0.172	n/a	5	23	ButtonPress	Neutral	True
230.06	0.53	Control	0.9167000000000001	n/a	No	2.77	n/a	n/a	LatePress	0	n/a	n/a	5	23	Blank	Neutral	True
230.578	1.45	Control	0.9167000000000001	n/a	No	2.77	n/a	5.0	LatePress	0	0.029	229.607	5	23	Feedback	Neutral	True
232.032	2.77	Control	0.9167000000000001	n/a	No	2.77	n/a	n/a	LatePress	0	0.0	n/a	5	23	ISIslide	Neutral	True
234.824	0.25	Win2	0.88	0.0	No	3.126	0.024	n/a	NoResponse	0	n/a	n/a	5	24	Cue	MissedWin	True
235.075	3.95	Win2	0.88	0.0	No	3.126	0.001	n/a	NoResponse	0	n/a	n/a	5	24	Fixation	MissedWin	True
239.02	0.16	Win2	0.88	0.004	No	3.126	-0.004	2.0	NoResponse	0	0.174	238.194	5	24	Target	MissedWin	True
239.187	0.54	Win2	0.88	n/a	No	3.126	n/a	n/a	NoResponse	0	n/a	n/a	5	24	Blank	MissedWin	True
239.194	0.3	Win2	0.88	0.004	No	3.126	-0.004	2.0	NoResponse	0	0.174	n/a	5	24	ButtonPress	MissedWin	True
239.722	1.45	Win2	0.88	n/a	No	3.126	n/a	5.0	NoResponse	0	0.007	238.729	5	24	Feedback	MissedWin	True
241.176	3.126	Win2	0.88	n/a	No	3.126	n/a	n/a	NoResponse	0	0.0	n/a	5	24	ISIslide	MissedWin	True
244.319	0.25	Win2	0.8462000000000001	0.0	No	3.081	0.019	n/a	NoResponse	0	n/a	n/a	5	25	Cue	MissedWin	True
244.57	4.0	Win2	0.8462000000000001	0.0	No	3.081	0.001	n/a	NoResponse	0	n/a	n/a	5	25	Fixation	MissedWin	True
248.565	0.15	Win2	0.8462000000000001	0.004	No	3.081	-0.004	2.0	NoResponse	0	0.17	247.735	5	25	Target	MissedWin	True
248.715	0.55	Win2	0.8462000000000001	n/a	No	3.081	n/a	n/a	NoResponse	0	n/a	n/a	5	25	Blank	MissedWin	True
248.735	0.3	Win2	0.8462000000000001	0.004	No	3.081	-0.004	2.0	NoResponse	0	0.17	n/a	5	25	ButtonPress	MissedWin	True
249.267	1.45	Win2	0.8462000000000001	n/a	No	3.081	n/a	5.0	NoResponse	0	0.023	248.29	5	25	Feedback	MissedWin	True
250.721	3.081	Win2	0.8462000000000001	n/a	No	3.081	n/a	n/a	NoResponse	0	0.0	n/a	5	25	ISIslide	MissedWin	True
253.831	0.25	Win2	0.8148000000000001	0.0	No	2.919	0.031	n/a	NoResponse	0	n/a	n/a	5	26	Cue	MissedWin	True
254.082	3.95	Win2	0.8148000000000001	0.0	No	2.919	0.001	n/a	NoResponse	0	n/a	n/a	5	26	Fixation	MissedWin	True
258.027	0.15	Win2	0.8148000000000001	0.004	No	2.919	-0.004	2.0	NoResponse	0	0.16	257.187	5	26	Target	MissedWin	True
258.177	0.55	Win2	0.8148000000000001	n/a	No	2.919	n/a	n/a	NoResponse	0	n/a	n/a	5	26	Blank	MissedWin	True
258.187	0.3	Win2	0.8148000000000001	0.004	No	2.919	-0.004	2.0	NoResponse	0	0.16	n/a	5	26	ButtonPress	MissedWin	True
258.729	1.45	Win2	0.8148000000000001	n/a	No	2.919	n/a	5.0	NoResponse	0	0.025	257.754	5	26	Feedback	MissedWin	True
260.183	2.919	Win2	0.8148000000000001	n/a	No	2.919	n/a	n/a	NoResponse	0	0.0	n/a	5	26	ISIslide	MissedWin	True
263.125	0.25	Lose2	0.7857	0.0	No	2.825	0.025	n/a	NoResponse	-1	n/a	n/a	4	27	Cue	Loss	False
263.376	4.05	Lose2	0.7857	0.0	No	2.825	0.001	2.0	NoResponse	-1	3.406	265.782	4	27	Fixation	Loss	False
266.782	0.3	Lose2	0.7857	0.0	No	2.825	0.001	2.0	NoResponse	-1	3.406	n/a	4	27	ButtonPress	Loss	False
267.421	0.15	Lose2	0.7857	0.004	No	2.825	-0.004	2.0	NoResponse	-1	0.169	266.59	4	27	Target	Loss	False
267.572	0.55	Lose2	0.7857	n/a	No	2.825	n/a	n/a	NoResponse	-1	n/a	n/a	4	27	Blank	Loss	False
267.59	0.3	Lose2	0.7857	0.004	No	2.825	-0.004	2.0	NoResponse	-1	0.169	n/a	4	27	ButtonPress	Loss	False
268.124	1.45	Lose2	0.7857	n/a	No	2.825	n/a	5.0	NoResponse	-1	0.044	267.168	4	27	Feedback	Loss	False
269.578	2.825	Lose2	0.7857	n/a	No	2.825	n/a	n/a	NoResponse	-1	0.0	n/a	4	27	ISIslide	Loss	False
272.42	0.25	Control	0.7931	0.0	Yes	2.83	0.02	n/a	GoodResponse	0	n/a	n/a	4	28	Cue	Neutral	True
272.671	4.05	Control	0.7931	0.0	Yes	2.83	0.001	n/a	GoodResponse	0	n/a	n/a	4	28	Fixation	Neutral	True
276.716	0.15	Control	0.7931	0.004	Yes	2.83	-0.004	2.0	GoodResponse	0	0.1	275.816	4	28	Target	Neutral	True
276.816	0.3	Control	0.7931	0.004	Yes	2.83	-0.004	2.0	GoodResponse	0	0.1	n/a	4	28	ButtonPress	Neutral	True
276.866	0.55	Control	0.7931	n/a	Yes	2.83	n/a	n/a	GoodResponse	0	n/a	n/a	4	28	Blank	Neutral	True
277.418	1.45	Control	0.7931	n/a	Yes	2.83	n/a	5.0	GoodResponse	0	0.018	276.436	4	28	Feedback	Neutral	True
278.872	2.83	Control	0.7931	n/a	Yes	2.83	n/a	n/a	GoodResponse	0	0.0	n/a	4	28	ISIslide	Neutral	True
281.731	0.25	Lose2	0.7667	0.0	No	2.819	0.031	n/a	NoResponse	-1	n/a	n/a	3	29	Cue	Loss	True
281.982	3.95	Lose2	0.7667	0.0	No	2.819	0.001	n/a	NoResponse	-1	n/a	n/a	3	29	Fixation	Loss	True
285.927	0.15	Lose2	0.7667	0.004	No	2.819	-0.004	2.0	NoResponse	-1	0.174	285.101	3	29	Target	Loss	True
286.077	0.55	Lose2	0.7667	n/a	No	2.819	n/a	n/a	NoResponse	-1	n/a	n/a	3	29	Blank	Loss	True
286.101	0.3	Lose2	0.7667	0.004	No	2.819	-0.004	2.0	NoResponse	-1	0.174	n/a	3	29	ButtonPress	Loss	True
286.629	1.45	Lose2	0.7667	n/a	No	2.819	n/a	5.0	NoResponse	-1	0.026	285.655	3	29	Feedback	Loss	True
288.083	2.819	Lose2	0.7667	n/a	No	2.819	n/a	n/a	NoResponse	-1	0.0	n/a	3	29	ISIslide	Loss	True
290.925	0.25	Win2	0.7419	0.0	No	2.775	0.025	n/a	NoResponse	0	n/a	n/a	3	30	Cue	MissedWin	True
291.176	3.9	Win2	0.7419	0.0	No	2.775	0.001	n/a	NoResponse	0	n/a	n/a	3	30	Fixation	MissedWin	True
295.071	0.15	Win2	0.7419	0.004	No	2.775	-0.004	2.0	NoResponse	0	0.166	294.237	3	30	Target	MissedWin	True
295.221	0.55	Win2	0.7419	n/a	No	2.775	n/a	n/a	NoResponse	0	n/a	n/a	3	30	Blank	MissedWin	True
295.237	0.3	Win2	0.7419	0.004	No	2.775	-0.004	2.0	NoResponse	0	0.166	n/a	3	30	ButtonPress	MissedWin	True
295.773	1.45	Win2	0.7419	n/a	No	2.775	n/a	5.0	NoResponse	0	0.006	294.779	3	30	Feedback	MissedWin	True
297.227	2.775	Win2	0.7419	n/a	No	2.775	n/a	n/a	NoResponse	0	0.0	n/a	3	30	ISIslide	MissedWin	True
300.019	0.25	Lose2	0.7188	0.0	No	2.831	0.019	n/a	NoResponse	-1	n/a	n/a	2	31	Cue	Loss	False
300.27	4.05	Lose2	0.7188	0.0	No	2.831	0.001	2.0	NoResponse	-1	3.78	303.05	2	31	Fixation	Loss	False
304.05	0.3	Lose2	0.7188	0.0	No	2.831	0.001	2.0	NoResponse	-1	3.78	n/a	2	31	ButtonPress	Loss	False
304.315	0.15	Lose2	0.7188	0.004	No	2.831	-0.004	2.0	NoResponse	-1	0.189	303.504	2	31	Target	Loss	False
304.466	0.55	Lose2	0.7188	n/a	No	2.831	n/a	n/a	NoResponse	-1	n/a	n/a	2	31	Blank	Loss	False
304.504	0.3	Lose2	0.7188	0.004	No	2.831	-0.004	2.0	NoResponse	-1	0.189	n/a	2	31	ButtonPress	Loss	False
305.017	1.45	Lose2	0.7188	n/a	No	2.831	n/a	5.0	NoResponse	-1	0.029	304.046	2	31	Feedback	Loss	False
306.472	2.831	Lose2	0.7188	n/a	No	2.831	n/a	n/a	NoResponse	-1	0.0	n/a	2	31	ISIslide	Loss	False
309.33	0.25	Lose2	0.7273000000000001	0.0	Yes	2.62	0.03	n/a	GoodResponse	0	n/a	n/a	2	32	Cue	AvoidedLoss	True
309.581	4.15	Lose2	0.7273000000000001	0.0	Yes	2.62	0.001	n/a	GoodResponse	0	n/a	n/a	2	32	Fixation	AvoidedLoss	True
313.727	0.15	Lose2	0.7273000000000001	0.003	Yes	2.62	-0.003	2.0	GoodResponse	0	0.136	312.863	2	32	Target	AvoidedLoss	True
313.863	0.3	Lose2	0.7273000000000001	0.003	Yes	2.62	-0.003	2.0	GoodResponse	0	0.136	n/a	2	32	ButtonPress	AvoidedLoss	True
313.877	0.55	Lose2	0.7273000000000001	n/a	Yes	2.62	n/a	n/a	GoodResponse	0	n/a	n/a	2	32	Blank	AvoidedLoss	True
314.429	1.45	Lose2	0.7273000000000001	n/a	Yes	2.62	n/a	5.0	GoodResponse	0	0.032	313.461	2	32	Feedback	AvoidedLoss	True
315.883	2.62	Lose2	0.7273000000000001	n/a	Yes	2.62	n/a	n/a	GoodResponse	0	0.0	n/a	2	32	ISIslide	AvoidedLoss	True
318.524	0.25	Win2	0.7059000000000001	0.001	No	2.676	0.024	n/a	PrematurePress	0	n/a	n/a	2	33	Cue	MissedWin	True
318.775	4.0	Win2	0.7059000000000001	0.0	No	2.676	0.001	n/a	PrematurePress	0	n/a	n/a	2	33	Fixation	MissedWin	True
322.77	0.15	Win2	0.7059000000000001	0.004	No	2.676	-0.004	2.0	PrematurePress	0	0.008	321.778	2	33	Target	MissedWin	True
322.778	0.3	Win2	0.7059000000000001	0.004	No	2.676	-0.004	2.0	PrematurePress	0	0.008	n/a	2	33	ButtonPress	MissedWin	True
322.921	0.55	Win2	0.7059000000000001	n/a	No	2.676	n/a	n/a	PrematurePress	0	n/a	n/a	2	33	Blank	MissedWin	True
323.473	1.45	Win2	0.7059000000000001	n/a	No	2.676	n/a	5.0	PrematurePress	0	0.011	322.484	2	33	Feedback	MissedWin	True
324.927	2.676	Win2	0.7059000000000001	n/a	No	2.676	n/a	n/a	PrematurePress	0	0.0	n/a	2	33	ISIslide	MissedWin	True
327.618	0.25	Lose2	0.6857	0.0	No	2.632	0.018	n/a	NoResponse	-1	n/a	n/a	1	34	Cue	Loss	True
327.869	4.05	Lose2	0.6857	0.0	No	2.632	0.001	n/a	NoResponse	-1	n/a	n/a	1	34	Fixation	Loss	True
331.915	0.15	Lose2	0.6857	0.003	No	2.632	-0.003	2.0	NoResponse	-1	0.167	331.082	1	34	Target	Loss	True
332.065	0.55	Lose2	0.6857	n/a	No	2.632	n/a	n/a	NoResponse	-1	n/a	n/a	1	34	Blank	Loss	True
332.082	0.3	Lose2	0.6857	0.003	No	2.632	-0.003	2.0	NoResponse	-1	0.167	n/a	1	34	ButtonPress	Loss	True
332.617	1.45	Lose2	0.6857	n/a	No	2.632	n/a	5.0	NoResponse	-1	0.038	331.655	1	34	Feedback	Loss	True
334.071	2.632	Lose2	0.6857	n/a	No	2.632	n/a	n/a	NoResponse	-1	0.0	n/a	1	34	ISIslide	Loss	True
336.729	0.25	Lose2	0.6667000000000001	0.0	No	2.671	0.029	n/a	NoResponse	-1	n/a	n/a	0	35	Cue	Loss	True
336.98	4.0	Lose2	0.6667000000000001	0.0	No	2.671	0.001	n/a	NoResponse	-1	n/a	n/a	0	35	Fixation	Loss	True
340.975	0.15	Lose2	0.6667000000000001	0.004	No	2.671	-0.004	2.0	NoResponse	-1	0.161	340.136	0	35	Target	Loss	True
341.125	0.55	Lose2	0.6667000000000001	n/a	No	2.671	n/a	n/a	NoResponse	-1	n/a	n/a	0	35	Blank	Loss	True
341.136	0.3	Lose2	0.6667000000000001	0.004	No	2.671	-0.004	2.0	NoResponse	-1	0.161	n/a	0	35	ButtonPress	Loss	True
341.677	1.45	Lose2	0.6667000000000001	n/a	No	2.671	n/a	5.0	NoResponse	-1	0.006	340.683	0	35	Feedback	Loss	True
343.131	2.671	Lose2	0.6667000000000001	n/a	No	2.671	n/a	n/a	NoResponse	-1	0.0	n/a	0	35	ISIslide	Loss	True
345.823	0.25	Control	0.6486	0.0	No	2.677	0.023	n/a	NoResponse	0	n/a	n/a	0	36	Cue	Neutral	True
346.074	4.0	Control	0.6486	0.0	No	2.677	0.001	n/a	NoResponse	0	n/a	n/a	0	36	Fixation	Neutral	True
350.069	0.15	Control	0.6486	0.004	No	2.677	-0.004	2.0	NoResponse	0	0.169	349.238	0	36	Target	Neutral	True
350.219	0.55	Control	0.6486	n/a	No	2.677	n/a	n/a	NoResponse	0	n/a	n/a	0	36	Blank	Neutral	True
350.238	0.3	Control	0.6486	0.004	No	2.677	-0.004	2.0	NoResponse	0	0.169	n/a	0	36	ButtonPress	Neutral	True
350.771	1.45	Control	0.6486	n/a	No	2.677	n/a	5.0	NoResponse	0	0.03	349.801	0	36	Feedback	Neutral	True
352.225	2.677	Control	0.6486	n/a	No	2.677	n/a	n/a	NoResponse	0	0.0	n/a	0	36	ISIslide	Neutral	True
354.917	0.25	Win2	0.6315999999999999	0.0	No	2.883	0.017	n/a	NoResponse	0	n/a	n/a	0	37	Cue	MissedWin	True
355.167	4.0	Win2	0.6315999999999999	0.001	No	2.883	0.0	n/a	NoResponse	0	n/a	n/a	0	37	Fixation	MissedWin	True
359.163	0.16	Win2	0.6315999999999999	0.004	No	2.883	-0.004	2.0	NoResponse	0	0.182	358.345	0	37	Target	MissedWin	True
359.33	0.54	Win2	0.6315999999999999	n/a	No	2.883	n/a	n/a	NoResponse	0	n/a	n/a	0	37	Blank	MissedWin	True
359.345	0.3	Win2	0.6315999999999999	0.004	No	2.883	-0.004	2.0	NoResponse	0	0.182	n/a	0	37	ButtonPress	MissedWin	True
359.865	1.45	Win2	0.6315999999999999	n/a	No	2.883	n/a	5.0	NoResponse	0	0.01	358.875	0	37	Feedback	MissedWin	True
361.319	2.883	Win2	0.6315999999999999	n/a	No	2.883	n/a	n/a	NoResponse	0	0.0	n/a	0	37	ISIslide	MissedWin	True
364.228	0.25	Lose2	0.6154	0.0	No	2.822	0.028	n/a	PrematurePress	-1	n/a	n/a	-1	38	Cue	Loss	True
364.479	3.95	Lose2	0.6154	0.0	No	2.822	0.001	n/a	PrematurePress	-1	n/a	n/a	-1	38	Fixation	Loss	True
368.424	0.17	Lose2	0.6154	0.004	No	2.822	-0.004	2.0	PrematurePress	-1	0.024	367.448	-1	38	Target	Loss	True
368.448	0.3	Lose2	0.6154	0.004	No	2.822	-0.004	2.0	PrematurePress	-1	0.024	n/a	-1	38	ButtonPress	Loss	True
368.608	0.53	Lose2	0.6154	n/a	No	2.822	n/a	n/a	PrematurePress	-1	n/a	n/a	-1	38	Blank	Loss	True
369.126	1.45	Lose2	0.6154	n/a	No	2.822	n/a	5.0	PrematurePress	-1	0.017	368.143	-1	38	Feedback	Loss	True
370.58	2.822	Lose2	0.6154	n/a	No	2.822	n/a	n/a	PrematurePress	-1	0.0	n/a	-1	38	ISIslide	Loss	True
373.422	0.25	Win2	0.6	0.0	No	2.978	0.022	n/a	PrematurePress	0	n/a	n/a	-1	39	Cue	MissedWin	False
373.673	4.1	Win2	0.6	0.0	No	2.978	0.001	2.0	PrematurePress	0	3.787	376.46	-1	39	Fixation	MissedWin	False
377.46	0.3	Win2	0.6	0.0	No	2.978	0.001	2.0	PrematurePress	0	3.787	n/a	-1	39	ButtonPress	MissedWin	False
377.768	0.18	Win2	0.6	0.004	No	2.978	-0.004	2.0	PrematurePress	0	0.039	376.807	-1	39	Target	MissedWin	False
377.807	0.3	Win2	0.6	0.004	No	2.978	-0.004	2.0	PrematurePress	0	0.039	n/a	-1	39	ButtonPress	MissedWin	False
377.952	0.52	Win2	0.6	n/a	No	2.978	n/a	n/a	PrematurePress	0	n/a	n/a	-1	39	Blank	MissedWin	False
378.471	1.45	Win2	0.6	n/a	No	2.978	n/a	5.0	PrematurePress	0	0.037	377.508	-1	39	Feedback	MissedWin	False
379.925	2.978	Win2	0.6	n/a	No	2.978	n/a	n/a	PrematurePress	0	0.0	n/a	-1	39	ISIslide	MissedWin	False
382.917	0.25	Win2	0.6098	0.0	Yes	2.733	0.017	n/a	GoodResponse	1	n/a	n/a	0	40	Cue	Win	True
383.168	3.95	Win2	0.6098	0.0	Yes	2.733	0.001	n/a	GoodResponse	1	n/a	n/a	0	40	Fixation	Win	True
387.113	0.19	Win2	0.6098	0.004	Yes	2.733	-0.004	2.0	GoodResponse	1	0.164	386.277	0	40	Target	Win	True
387.277	0.3	Win2	0.6098	0.004	Yes	2.733	-0.004	2.0	GoodResponse	1	0.164	n/a	0	40	ButtonPress	Win	True
387.314	0.51	Win2	0.6098	n/a	Yes	2.733	n/a	n/a	GoodResponse	1	n/a	n/a	0	40	Blank	Win	True
387.815	1.45	Win2	0.6098	n/a	Yes	2.733	n/a	5.0	GoodResponse	1	0.01	386.825	0	40	Feedback	Win	True
389.27	2.733	Win2	0.6098	n/a	Yes	2.733	n/a	n/a	GoodResponse	1	0.0	n/a	0	40	ISIslide	Win	True
392.028	0.25	Win2	0.5952000000000001	0.0	No	2.772	0.028	n/a	NoResponse	0	n/a	n/a	0	41	Cue	MissedWin	False
392.279	3.9	Win2	0.5952000000000001	0.0	No	2.772	0.001	2.0	NoResponse	0	3.828	395.107	0	41	Fixation	MissedWin	False
396.107	0.3	Win2	0.5952000000000001	0.0	No	2.772	0.001	2.0	NoResponse	0	3.828	n/a	0	41	ButtonPress	MissedWin	False
396.174	0.2	Win2	0.5952000000000001	0.004	No	2.772	-0.004	2.0	NoResponse	0	0.228	395.402	0	41	Target	MissedWin	False
396.374	0.5	Win2	0.5952000000000001	n/a	No	2.772	n/a	n/a	NoResponse	0	n/a	n/a	0	41	Blank	MissedWin	False
396.402	0.3	Win2	0.5952000000000001	0.004	No	2.772	-0.004	2.0	NoResponse	0	0.228	n/a	0	41	ButtonPress	MissedWin	False
396.876	1.45	Win2	0.5952000000000001	n/a	No	2.772	n/a	5.0	NoResponse	0	0.022	395.898	0	41	Feedback	MissedWin	False
398.33	2.772	Win2	0.5952000000000001	n/a	No	2.772	n/a	n/a	NoResponse	0	0.0	n/a	0	41	ISIslide	MissedWin	False
401.122	0.25	Control	0.5814	0.0	No	2.928	0.022	n/a	NoResponse	0	n/a	n/a	0	42	Cue	Neutral	True
401.372	3.85	Control	0.5814	0.001	No	2.928	0.0	n/a	NoResponse	0	n/a	n/a	0	42	Fixation	Neutral	True
405.234	0.21	Control	0.5814	0.0	No	2.928	0.012	2.0	NoResponse	0	0.22	404.454	0	42	Target	Neutral	True
405.435	0.49	Control	0.5814	n/a	No	2.928	n/a	n/a	NoResponse	0	n/a	n/a	0	42	Blank	Neutral	True
405.454	0.3	Control	0.5814	0.0	No	2.928	0.012	2.0	NoResponse	0	0.22	n/a	0	42	ButtonPress	Neutral	True
405.919	1.45	Control	0.5814	n/a	No	2.928	n/a	5.0	NoResponse	0	0.005	404.924	0	42	Feedback	Neutral	True
407.374	2.928	Control	0.5814	n/a	No	2.928	n/a	n/a	NoResponse	0	0.0	n/a	0	42	ISIslide	Neutral	True
410.316	0.25	Win2	0.5909	0.0	Yes	3.184	0.016	n/a	GoodResponse	1	n/a	n/a	1	43	Cue	Win	True
410.567	4.0	Win2	0.5909	0.0	Yes	3.184	0.001	n/a	GoodResponse	1	n/a	n/a	1	43	Fixation	Win	True
414.562	0.22	Win2	0.5909	0.004	Yes	3.184	-0.004	2.0	GoodResponse	1	0.187	413.749	1	43	Target	Win	True
414.749	0.3	Win2	0.5909	0.004	Yes	3.184	-0.004	2.0	GoodResponse	1	0.187	n/a	1	43	ButtonPress	Win	True
414.796	0.48	Win2	0.5909	n/a	Yes	3.184	n/a	n/a	GoodResponse	1	n/a	n/a	1	43	Blank	Win	True
415.264	1.45	Win2	0.5909	n/a	Yes	3.184	n/a	5.0	GoodResponse	1	0.025	414.289	1	43	Feedback	Win	True
416.718	3.184	Win2	0.5909	n/a	Yes	3.184	n/a	n/a	GoodResponse	1	0.0	n/a	1	43	ISIslide	Win	True
419.928	0.25	Win2	0.6	0.0	Yes	2.972	0.028	n/a	GoodResponse	1	n/a	n/a	2	44	Cue	Win	True
420.179	4.0	Win2	0.6	0.0	Yes	2.972	0.001	n/a	GoodResponse	1	n/a	n/a	2	44	Fixation	Win	True
424.174	0.23	Win2	0.6	0.004	Yes	2.972	-0.004	2.0	GoodResponse	1	0.185	423.359	2	44	Target	Win	True
424.359	0.3	Win2	0.6	0.004	Yes	2.972	-0.004	2.0	GoodResponse	1	0.185	n/a	2	44	ButtonPress	Win	True
424.408	0.47	Win2	0.6	n/a	Yes	2.972	n/a	n/a	GoodResponse	1	n/a	n/a	2	44	Blank	Win	True
424.876	1.45	Win2	0.6	n/a	Yes	2.972	n/a	5.0	GoodResponse	1	0.022	423.898	2	44	Feedback	Win	True
426.33	2.972	Win2	0.6	n/a	Yes	2.972	n/a	n/a	GoodResponse	1	0.0	n/a	2	44	ISIslide	Win	True
429.323	0.25	Control	0.6087	0.0	Yes	2.877	0.023	n/a	GoodResponse	0	n/a	n/a	2	45	Cue	Neutral	True
429.574	4.1	Control	0.6087	0.0	Yes	2.877	0.001	n/a	GoodResponse	0	n/a	n/a	2	45	Fixation	Neutral	True
433.669	0.24	Control	0.6087	0.004	Yes	2.877	-0.004	2.0	GoodResponse	0	0.177	432.846	2	45	Target	Neutral	True
433.846	0.3	Control	0.6087	0.004	Yes	2.877	-0.004	2.0	GoodResponse	0	0.177	n/a	2	45	ButtonPress	Neutral	True
433.92	0.46	Control	0.6087	n/a	Yes	2.877	n/a	n/a	GoodResponse	0	n/a	n/a	2	45	Blank	Neutral	True
434.371	1.45	Control	0.6087	n/a	Yes	2.877	n/a	5.0	GoodResponse	0	0.039	433.41	2	45	Feedback	Neutral	True
435.826	2.877	Control	0.6087	n/a	Yes	2.877	n/a	n/a	GoodResponse	0	0.0	n/a	2	45	ISIslide	Neutral	True
438.718	0.25	Lose2	0.617	0.0	Yes	3.382	0.018	n/a	GoodResponse	0	n/a	n/a	2	46	Cue	AvoidedLoss	True
438.968	4.0	Lose2	0.617	0.0	Yes	3.382	0.0	n/a	GoodResponse	0	n/a	n/a	2	46	Fixation	AvoidedLoss	True
442.964	0.25	Lose2	0.617	0.004	Yes	3.382	-0.004	2.0	GoodResponse	0	0.182	442.146	2	46	Target	AvoidedLoss	True
443.146	0.3	Lose2	0.617	0.004	Yes	3.382	-0.004	2.0	GoodResponse	0	0.182	n/a	2	46	ButtonPress	AvoidedLoss	True
443.214	0.45	Lose2	0.617	n/a	Yes	3.382	n/a	n/a	GoodResponse	0	n/a	n/a	2	46	Blank	AvoidedLoss	True
443.666	1.45	Lose2	0.617	n/a	Yes	3.382	n/a	5.0	GoodResponse	0	0.012	442.678	2	46	Feedback	AvoidedLoss	True
445.12	3.382	Lose2	0.617	n/a	Yes	3.382	n/a	n/a	GoodResponse	0	0.0	n/a	2	46	ISIslide	AvoidedLoss	True
448.514	0.25	Lose2	0.625	0.0	Yes	2.686	0.014	n/a	GoodResponse	0	n/a	n/a	2	47	Cue	AvoidedLoss	True
448.764	4.0	Lose2	0.625	0.0	Yes	2.686	0.0	n/a	GoodResponse	0	n/a	n/a	2	47	Fixation	AvoidedLoss	True
452.76	0.26	Lose2	0.625	0.004	Yes	2.686	-0.004	2.0	GoodResponse	0	0.194	451.954	2	47	Target	AvoidedLoss	True
452.954	0.3	Lose2	0.625	0.004	Yes	2.686	-0.004	2.0	GoodResponse	0	0.194	n/a	2	47	ButtonPress	AvoidedLoss	True
453.027	0.44	Lose2	0.625	n/a	Yes	2.686	n/a	n/a	GoodResponse	0	n/a	n/a	2	47	Blank	AvoidedLoss	True
453.462	1.45	Lose2	0.625	n/a	Yes	2.686	n/a	5.0	GoodResponse	0	0.021	452.483	2	47	Feedback	AvoidedLoss	True
454.916	2.686	Lose2	0.625	n/a	Yes	2.686	n/a	n/a	GoodResponse	0	0.0	n/a	2	47	ISIslide	AvoidedLoss	True
457.624	0.25	Lose2	0.6327	0.0	Yes	3.026	0.024	n/a	GoodResponse	0	n/a	n/a	2	48	Cue	AvoidedLoss	True
457.875	3.95	Lose2	0.6327	0.0	Yes	3.026	0.001	n/a	GoodResponse	0	n/a	n/a	2	48	Fixation	AvoidedLoss	True
461.82	0.27	Lose2	0.6327	0.004	Yes	3.026	-0.004	2.0	GoodResponse	0	0.196	461.016	2	48	Target	AvoidedLoss	True
462.016	0.3	Lose2	0.6327	0.004	Yes	3.026	-0.004	2.0	GoodResponse	0	0.196	n/a	2	48	ButtonPress	AvoidedLoss	True
462.104	0.43	Lose2	0.6327	n/a	Yes	3.026	n/a	n/a	GoodResponse	0	n/a	n/a	2	48	Blank	AvoidedLoss	True
462.522	1.45	Lose2	0.6327	n/a	Yes	3.026	n/a	5.0	GoodResponse	0	0.035	461.557	2	48	Feedback	AvoidedLoss	True
463.976	3.026	Lose2	0.6327	n/a	Yes	3.026	n/a	n/a	GoodResponse	0	0.0	n/a	2	48	ISIslide	AvoidedLoss	True
467.019	0.25	Control	0.64	0.0	Yes	2.881	0.019	n/a	GoodResponse	0	n/a	n/a	2	49	Cue	Neutral	True
467.27	4.0	Control	0.64	0.0	Yes	2.881	0.001	n/a	GoodResponse	0	n/a	n/a	2	49	Fixation	Neutral	True
471.265	0.28	Control	0.64	0.004	Yes	2.881	-0.004	2.0	GoodResponse	0	0.178	470.443	2	49	Target	Neutral	True
471.443	0.3	Control	0.64	0.004	Yes	2.881	-0.004	2.0	GoodResponse	0	0.178	n/a	2	49	ButtonPress	Neutral	True
471.549	0.42	Control	0.64	n/a	Yes	2.881	n/a	n/a	GoodResponse	0	n/a	n/a	2	49	Blank	Neutral	True
471.967	1.45	Control	0.64	n/a	Yes	2.881	n/a	5.0	GoodResponse	0	0.004	470.971	2	49	Feedback	Neutral	True
473.421	2.881	Control	0.64	n/a	Yes	2.881	n/a	n/a	GoodResponse	0	0.0	n/a	2	49	ISIslide	Neutral	True
476.313	0.25	Control	0.6470999999999999	0.001	Yes	2.787	0.013	n/a	GoodResponse	0	n/a	n/a	2	50	Cue	Neutral	True
476.564	4.0	Control	0.6470999999999999	0.0	Yes	2.787	0.001	n/a	GoodResponse	0	n/a	n/a	2	50	Fixation	Neutral	True
480.559	0.29	Control	0.6470999999999999	0.004	Yes	2.787	-0.004	2.0	GoodResponse	0	0.176	479.735	2	50	Target	Neutral	True
480.735	0.3	Control	0.6470999999999999	0.004	Yes	2.787	-0.004	2.0	GoodResponse	0	0.176	n/a	2	50	ButtonPress	Neutral	True
480.86	0.41	Control	0.6470999999999999	n/a	Yes	2.787	n/a	n/a	GoodResponse	0	n/a	n/a	2	50	Blank	Neutral	True
481.262	1.45	Control	0.6470999999999999	n/a	Yes	2.787	n/a	5.0	GoodResponse	0	0.026	480.288	2	50	Feedback	Neutral	True
482.716	2.787	Control	0.6470999999999999	n/a	Yes	2.787	n/a	n/a	GoodResponse	0	0.0	n/a	2	50	ISIslide	Neutral	True
485.524	0.25	Control	0.6537999999999999	0.0	Yes	2.726	0.024	n/a	GoodResponse	0	n/a	n/a	2	51	Cue	Neutral	False
485.775	3.95	Control	0.6537999999999999	0.0	Yes	2.726	0.001	2.0	GoodResponse	0	3.772	488.547	2	51	Fixation	Neutral	False
489.547	0.3	Control	0.6537999999999999	0.0	Yes	2.726	0.001	2.0	GoodResponse	0	3.772	n/a	2	51	ButtonPress	Neutral	False
489.72	0.3	Control	0.6537999999999999	0.004	Yes	2.726	-0.004	2.0	GoodResponse	0	0.153	488.873	2	51	Target	Neutral	False
489.873	0.3	Control	0.6537999999999999	0.004	Yes	2.726	-0.004	2.0	GoodResponse	0	0.153	n/a	2	51	ButtonPress	Neutral	False
490.021	0.4	Control	0.6537999999999999	n/a	Yes	2.726	n/a	n/a	GoodResponse	0	n/a	n/a	2	51	Blank	Neutral	False
490.422	1.45	Control	0.6537999999999999	n/a	Yes	2.726	n/a	5.0	GoodResponse	0	0.036	489.458	2	51	Feedback	Neutral	False
491.877	2.726	Control	0.6537999999999999	n/a	Yes	2.726	n/a	n/a	GoodResponse	0	0.0	n/a	2	51	ISIslide	Neutral	False
494.618	0.25	Control	0.6604000000000001	0.0	Yes	2.632	0.018	n/a	GoodResponse	0	n/a	n/a	2	52	Cue	Neutral	True
494.869	4.05	Control	0.6604000000000001	0.0	Yes	2.632	0.001	n/a	GoodResponse	0	n/a	n/a	2	52	Fixation	Neutral	True
498.914	0.31	Control	0.6604000000000001	0.004	Yes	2.632	-0.004	2.0	GoodResponse	0	0.172	498.086	2	52	Target	Neutral	True
499.086	0.3	Control	0.6604000000000001	0.004	Yes	2.632	-0.004	2.0	GoodResponse	0	0.172	n/a	2	52	ButtonPress	Neutral	True
499.232	0.39	Control	0.6604000000000001	n/a	Yes	2.632	n/a	n/a	GoodResponse	0	n/a	n/a	2	52	Blank	Neutral	True
499.617	1.45	Control	0.6604000000000001	n/a	Yes	2.632	n/a	5.0	GoodResponse	0	0.012	498.629	2	52	Feedback	Neutral	True
501.071	2.632	Control	0.6604000000000001	n/a	Yes	2.632	n/a	n/a	GoodResponse	0	0.0	n/a	2	52	ISIslide	Neutral	True
503.729	0.25	Win2	0.6667000000000001	0.0	Yes	2.921	0.029	n/a	GoodResponse	1	n/a	n/a	3	53	Cue	Win	True
503.98	4.05	Win2	0.6667000000000001	0.0	Yes	2.921	0.001	n/a	GoodResponse	1	n/a	n/a	3	53	Fixation	Win	True
508.025	0.31	Win2	0.6667000000000001	0.004	Yes	2.921	-0.004	2.0	GoodResponse	1	0.179	507.204	3	53	Target	Win	True
508.204	0.3	Win2	0.6667000000000001	0.004	Yes	2.921	-0.004	2.0	GoodResponse	1	0.179	n/a	3	53	ButtonPress	Win	True
508.343	0.39	Win2	0.6667000000000001	n/a	Yes	2.921	n/a	n/a	GoodResponse	1	n/a	n/a	3	53	Blank	Win	True
508.727	1.45	Win2	0.6667000000000001	n/a	Yes	2.921	n/a	5.0	GoodResponse	1	0.024	507.751	3	53	Feedback	Win	True
510.181	2.921	Win2	0.6667000000000001	n/a	Yes	2.921	n/a	n/a	GoodResponse	1	0.0	n/a	3	53	ISIslide	Win	True
513.124	0.25	Win2	0.6727	0.0	Yes	2.726	0.024	n/a	GoodResponse	1	n/a	n/a	4	54	Cue	Win	True
513.374	3.95	Win2	0.6727	0.0	Yes	2.726	0.0	n/a	GoodResponse	1	n/a	n/a	4	54	Fixation	Win	True
517.32	0.3	Win2	0.6727	0.004	Yes	2.726	-0.004	2.0	GoodResponse	1	0.178	516.498	4	54	Target	Win	True
517.498	0.3	Win2	0.6727	0.004	Yes	2.726	-0.004	2.0	GoodResponse	1	0.178	n/a	4	54	ButtonPress	Win	True
517.62	0.4	Win2	0.6727	n/a	Yes	2.726	n/a	n/a	GoodResponse	1	n/a	n/a	4	54	Blank	Win	True
518.022	1.45	Win2	0.6727	n/a	Yes	2.726	n/a	5.0	GoodResponse	1	0.046	517.068	4	54	Feedback	Win	True
519.476	2.726	Win2	0.6727	n/a	Yes	2.726	n/a	n/a	GoodResponse	1	0.0	n/a	4	54	ISIslide	Win	True
522.218	0.25	Control	0.6786	0.0	Yes	3.032	0.018	n/a	GoodResponse	0	n/a	n/a	4	55	Cue	Neutral	True
522.468	3.95	Control	0.6786	0.0	Yes	3.032	0.0	n/a	GoodResponse	0	n/a	n/a	4	55	Fixation	Neutral	True
526.43	0.29	Control	0.6786	0.0	Yes	3.032	0.012	2.0	GoodResponse	0	0.181	525.611	4	55	Target	Neutral	True
526.611	0.3	Control	0.6786	0.0	Yes	3.032	0.012	2.0	GoodResponse	0	0.181	n/a	4	55	ButtonPress	Neutral	True
526.714	0.41	Control	0.6786	n/a	Yes	3.032	n/a	n/a	GoodResponse	0	n/a	n/a	4	55	Blank	Neutral	True
527.115	1.45	Control	0.6786	n/a	Yes	3.032	n/a	5.0	GoodResponse	0	0.026	526.141	4	55	Feedback	Neutral	True
528.57	3.032	Control	0.6786	n/a	Yes	3.032	n/a	n/a	GoodResponse	0	0.0	n/a	4	55	ISIslide	Neutral	True
531.612	0.25	Control	0.6842	0.0	Yes	2.838	0.012	n/a	GoodResponse	0	n/a	n/a	4	56	Cue	Neutral	True
531.863	3.95	Control	0.6842	0.0	Yes	2.838	0.001	n/a	GoodResponse	0	n/a	n/a	4	56	Fixation	Neutral	True
535.808	0.28	Control	0.6842	0.004	Yes	2.838	-0.004	2.0	GoodResponse	0	0.176	534.984	4	56	Target	Neutral	True
535.984	0.3	Control	0.6842	0.004	Yes	2.838	-0.004	2.0	GoodResponse	0	0.176	n/a	4	56	ButtonPress	Neutral	True
536.092	0.42	Control	0.6842	n/a	Yes	2.838	n/a	n/a	GoodResponse	0	n/a	n/a	4	56	Blank	Neutral	True
536.51	1.45	Control	0.6842	n/a	Yes	2.838	n/a	5.0	GoodResponse	0	0.045	535.555	4	56	Feedback	Neutral	True
537.965	2.838	Control	0.6842	n/a	Yes	2.838	n/a	n/a	GoodResponse	0	0.0	n/a	4	56	ISIslide	Neutral	True
540.823	0.25	Control	0.6897	0.0	Yes	3.477	0.023	n/a	GoodResponse	0	n/a	n/a	4	57	Cue	Neutral	True
541.074	4.0	Control	0.6897	0.0	Yes	3.477	0.001	n/a	GoodResponse	0	n/a	n/a	4	57	Fixation	Neutral	True
545.069	0.27	Control	0.6897	0.004	Yes	3.477	-0.004	2.0	GoodResponse	0	0.176	544.245	4	57	Target	Neutral	True
545.245	0.3	Control	0.6897	0.004	Yes	3.477	-0.004	2.0	GoodResponse	0	0.176	n/a	4	57	ButtonPress	Neutral	True
545.353	0.43	Control	0.6897	n/a	Yes	3.477	n/a	n/a	GoodResponse	0	n/a	n/a	4	57	Blank	Neutral	True
545.771	1.45	Control	0.6897	n/a	Yes	3.477	n/a	5.0	GoodResponse	0	0.004	544.775	4	57	Feedback	Neutral	True
547.226	3.477	Control	0.6897	n/a	Yes	3.477	n/a	n/a	GoodResponse	0	0.0	n/a	4	57	ISIslide	Neutral	True
550.719	0.25	Win2	0.6779999999999999	0.001	No	2.731	0.019	n/a	NoResponse	0	n/a	n/a	4	58	Cue	MissedWin	False
550.97	4.05	Win2	0.6779999999999999	0.0	No	2.731	0.001	2.0	NoResponse	0	3.981	553.951	4	58	Fixation	MissedWin	False
554.951	0.3	Win2	0.6779999999999999	0.0	No	2.731	0.001	2.0	NoResponse	0	3.981	n/a	4	58	ButtonPress	MissedWin	False
555.016	0.26	Win2	0.6779999999999999	0.003	No	2.731	-0.003	2.0	NoResponse	0	0.296	554.312	4	58	Target	MissedWin	False
555.283	0.44	Win2	0.6779999999999999	n/a	No	2.731	n/a	n/a	NoResponse	0	n/a	n/a	4	58	Blank	MissedWin	False
555.312	0.3	Win2	0.6779999999999999	0.003	No	2.731	-0.003	2.0	NoResponse	0	0.296	n/a	4	58	ButtonPress	MissedWin	False
555.718	1.45	Win2	0.6779999999999999	n/a	No	2.731	n/a	5.0	NoResponse	0	0.008	554.726	4	58	Feedback	MissedWin	False
557.172	2.731	Win2	0.6779999999999999	n/a	No	2.731	n/a	n/a	NoResponse	0	0.0	n/a	4	58	ISIslide	MissedWin	False
559.914	0.25	Lose2	0.6833	0.0	Yes	2.686	0.014	n/a	GoodResponse	0	n/a	n/a	4	59	Cue	AvoidedLoss	True
560.164	4.0	Lose2	0.6833	0.0	Yes	2.686	0.0	n/a	GoodResponse	0	n/a	n/a	4	59	Fixation	AvoidedLoss	True
564.16	0.25	Lose2	0.6833	0.004	Yes	2.686	-0.004	2.0	GoodResponse	0	0.173	563.333	4	59	Target	AvoidedLoss	True
564.333	0.3	Lose2	0.6833	0.004	Yes	2.686	-0.004	2.0	GoodResponse	0	0.173	n/a	4	59	ButtonPress	AvoidedLoss	True
564.41	0.45	Lose2	0.6833	n/a	Yes	2.686	n/a	n/a	GoodResponse	0	n/a	n/a	4	59	Blank	AvoidedLoss	True
564.862	1.45	Lose2	0.6833	n/a	Yes	2.686	n/a	5.0	GoodResponse	0	0.035	563.897	4	59	Feedback	AvoidedLoss	True
566.316	2.686	Lose2	0.6833	n/a	Yes	2.686	n/a	n/a	GoodResponse	0	0.0	n/a	4	59	ISIslide	AvoidedLoss	True
569.024	0.25	Control	0.6884999999999999	0.0	Yes	2.676	0.024	n/a	GoodResponse	0	n/a	n/a	4	60	Cue	Neutral	True
569.275	4.0	Control	0.6884999999999999	0.0	Yes	2.676	0.001	n/a	GoodResponse	0	n/a	n/a	4	60	Fixation	Neutral	True
573.27	0.24	Control	0.6884999999999999	0.004	Yes	2.676	-0.004	2.0	GoodResponse	0	0.102	572.372	4	60	Target	Neutral	True
573.372	0.3	Control	0.6884999999999999	0.004	Yes	2.676	-0.004	2.0	GoodResponse	0	0.102	n/a	4	60	ButtonPress	Neutral	True
573.521	0.46	Control	0.6884999999999999	n/a	Yes	2.676	n/a	n/a	GoodResponse	0	n/a	n/a	4	60	Blank	Neutral	True
573.972	1.45	Control	0.6884999999999999	n/a	Yes	2.676	n/a	5.0	GoodResponse	0	0.046	573.018	4	60	Feedback	Neutral	True
575.427	2.676	Control	0.6884999999999999	n/a	Yes	2.676	n/a	n/a	GoodResponse	0	0.0	n/a	4	60	ISIslide	Neutral	True
578.118	0.25	Lose2	0.6934999999999999	0.0	Yes	2.982	0.018	n/a	GoodResponse	0	n/a	n/a	4	61	Cue	AvoidedLoss	True
578.369	4.0	Lose2	0.6934999999999999	0.0	Yes	2.982	0.001	n/a	GoodResponse	0	n/a	n/a	4	61	Fixation	AvoidedLoss	True
582.364	0.23	Lose2	0.6934999999999999	0.004	Yes	2.982	-0.004	2.0	GoodResponse	0	0.178	581.542	4	61	Target	AvoidedLoss	True
582.542	0.3	Lose2	0.6934999999999999	0.004	Yes	2.982	-0.004	2.0	GoodResponse	0	0.178	n/a	4	61	ButtonPress	AvoidedLoss	True
582.598	0.47	Lose2	0.6934999999999999	n/a	Yes	2.982	n/a	n/a	GoodResponse	0	n/a	n/a	4	61	Blank	AvoidedLoss	True
583.066	1.45	Lose2	0.6934999999999999	n/a	Yes	2.982	n/a	5.0	GoodResponse	0	0.026	582.092	4	61	Feedback	AvoidedLoss	True
584.521	2.982	Lose2	0.6934999999999999	n/a	Yes	2.982	n/a	n/a	GoodResponse	0	0.0	n/a	4	61	ISIslide	AvoidedLoss	True
587.513	0.25	Lose2	0.6984	0.0	Yes	2.887	0.013	n/a	GoodResponse	0	n/a	n/a	4	62	Cue	AvoidedLoss	True
587.764	3.9	Lose2	0.6984	0.0	Yes	2.887	0.001	n/a	GoodResponse	0	n/a	n/a	4	62	Fixation	AvoidedLoss	True
591.659	0.22	Lose2	0.6984	0.004	Yes	2.887	-0.004	2.0	GoodResponse	0	0.14	590.799	4	62	Target	AvoidedLoss	True
591.799	0.3	Lose2	0.6984	0.004	Yes	2.887	-0.004	2.0	GoodResponse	0	0.14	n/a	4	62	ButtonPress	AvoidedLoss	True
591.893	0.48	Lose2	0.6984	n/a	Yes	2.887	n/a	n/a	GoodResponse	0	n/a	n/a	4	62	Blank	AvoidedLoss	True
592.361	1.45	Lose2	0.6984	n/a	Yes	2.887	n/a	5.0	GoodResponse	0	0.048	591.409	4	62	Feedback	AvoidedLoss	True
593.815	2.887	Lose2	0.6984	n/a	Yes	2.887	n/a	n/a	GoodResponse	0	0.0	n/a	4	62	ISIslide	AvoidedLoss	True
596.724	0.25	Lose2	0.6875	0.0	No	2.626	0.024	n/a	LatePress	-1	n/a	n/a	3	63	Cue	Loss	True
596.975	4.05	Lose2	0.6875	0.0	No	2.626	0.001	n/a	LatePress	-1	n/a	n/a	3	63	Fixation	Loss	True
601.02	0.21	Lose2	0.6875	0.004	No	2.626	-0.004	2.0	LatePress	-1	0.216	600.236	3	63	Target	Loss	True
601.236	0.3	Lose2	0.6875	0.004	No	2.626	-0.004	2.0	LatePress	-1	0.216	n/a	3	63	ButtonPress	Loss	True
601.237	0.49	Lose2	0.6875	n/a	No	2.626	n/a	n/a	LatePress	-1	n/a	n/a	3	63	Blank	Loss	True
601.722	1.45	Lose2	0.6875	n/a	No	2.626	n/a	5.0	LatePress	-1	0.004	600.726	3	63	Feedback	Loss	True
603.177	2.626	Lose2	0.6875	n/a	No	2.626	n/a	n/a	LatePress	-1	0.0	n/a	3	63	ISIslide	Loss	True
605.818	0.25	Win2	0.6769	0.0	No	3.132	0.018	n/a	NoResponse	0	n/a	n/a	3	64	Cue	MissedWin	False
606.068	4.15	Win2	0.6769	0.001	No	3.132	0.0	2.0	NoResponse	0	4.092	609.16	3	64	Fixation	MissedWin	False
610.16	0.3	Win2	0.6769	0.001	No	3.132	0.0	2.0	NoResponse	0	4.092	n/a	3	64	ButtonPress	MissedWin	False
610.214	0.2	Win2	0.6769	0.004	No	3.132	-0.004	2.0	NoResponse	0	0.282	609.496	3	64	Target	MissedWin	False
610.415	0.5	Win2	0.6769	n/a	No	3.132	n/a	n/a	NoResponse	0	n/a	n/a	3	64	Blank	MissedWin	False
610.496	0.3	Win2	0.6769	0.004	No	3.132	-0.004	2.0	NoResponse	0	0.282	n/a	3	64	ButtonPress	MissedWin	False
610.916	1.45	Win2	0.6769	n/a	No	3.132	n/a	5.0	NoResponse	0	0.03	609.946	3	64	Feedback	MissedWin	False
612.371	3.132	Win2	0.6769	n/a	No	3.132	n/a	n/a	NoResponse	0	0.0	n/a	3	64	ISIslide	MissedWin	False
615.513	0.25	Control	0.6667000000000001	0.001	No	2.787	0.013	n/a	NoResponse	0	n/a	n/a	3	65	Cue	Neutral	True
615.764	4.0	Control	0.6667000000000001	0.0	No	2.787	0.001	n/a	NoResponse	0	n/a	n/a	3	65	Fixation	Neutral	True
619.759	0.19	Control	0.6667000000000001	0.004	No	2.787	-0.004	2.0	NoResponse	0	0.207	618.966	3	65	Target	Neutral	True
619.96	0.51	Control	0.6667000000000001	n/a	No	2.787	n/a	n/a	NoResponse	0	n/a	n/a	3	65	Blank	Neutral	True
619.966	0.3	Control	0.6667000000000001	0.004	No	2.787	-0.004	2.0	NoResponse	0	0.207	n/a	3	65	ButtonPress	Neutral	True
620.462	1.45	Control	0.6667000000000001	n/a	No	2.787	n/a	5.0	NoResponse	0	0.045	619.507	3	65	Feedback	Neutral	True
621.916	2.787	Control	0.6667000000000001	n/a	No	2.787	n/a	n/a	NoResponse	0	0.0	n/a	3	65	ISIslide	Neutral	True
624.724	0.25	Win2	0.6567000000000001	0.0	No	2.776	0.024	n/a	PrematurePress	0	n/a	n/a	3	66	Cue	MissedWin	True
624.975	3.9	Win2	0.6567000000000001	0.0	No	2.776	0.001	n/a	PrematurePress	0	n/a	n/a	3	66	Fixation	MissedWin	True
628.87	0.18	Win2	0.6567000000000001	0.004	No	2.776	-0.004	2.0	PrematurePress	0	0.039	627.909	3	66	Target	MissedWin	True
628.909	0.3	Win2	0.6567000000000001	0.004	No	2.776	-0.004	2.0	PrematurePress	0	0.039	n/a	3	66	ButtonPress	MissedWin	True
629.054	0.52	Win2	0.6567000000000001	n/a	No	2.776	n/a	n/a	PrematurePress	0	n/a	n/a	3	66	Blank	MissedWin	True
629.572	1.45	Win2	0.6567000000000001	n/a	No	2.776	n/a	5.0	PrematurePress	0	0.007	628.579	3	66	Feedback	MissedWin	True
631.027	2.776	Win2	0.6567000000000001	n/a	No	2.776	n/a	n/a	PrematurePress	0	0.0	n/a	3	66	ISIslide	MissedWin	True
633.818	0.25	Control	0.6618	0.0	Yes	2.732	0.018	n/a	GoodResponse	0	n/a	n/a	3	67	Cue	Neutral	True
634.069	3.95	Control	0.6618	0.0	Yes	2.732	0.001	n/a	GoodResponse	0	n/a	n/a	3	67	Fixation	Neutral	True
638.014	0.18	Control	0.6618	0.004	Yes	2.732	-0.004	2.0	GoodResponse	0	0.179	637.193	3	67	Target	Neutral	True
638.193	0.3	Control	0.6618	0.004	Yes	2.732	-0.004	2.0	GoodResponse	0	0.179	n/a	3	67	ButtonPress	Neutral	True
638.198	0.52	Control	0.6618	n/a	Yes	2.732	n/a	n/a	GoodResponse	0	n/a	n/a	3	67	Blank	Neutral	True
638.716	1.45	Control	0.6618	n/a	Yes	2.732	n/a	5.0	GoodResponse	0	0.034	637.75	3	67	Feedback	Neutral	True
640.171	2.732	Control	0.6618	n/a	Yes	2.732	n/a	n/a	GoodResponse	0	0.0	n/a	3	67	ISIslide	Neutral	True
642.929	0.25	Win2	0.6667000000000001	0.0	Yes	3.071	0.029	n/a	GoodResponse	1	n/a	n/a	4	68	Cue	Win	True
643.18	4.0	Win2	0.6667000000000001	0.0	Yes	3.071	0.001	n/a	GoodResponse	1	n/a	n/a	4	68	Fixation	Win	True
647.175	0.18	Win2	0.6667000000000001	0.004	Yes	3.071	-0.004	2.0	GoodResponse	1	0.163	646.338	4	68	Target	Win	True
647.338	0.3	Win2	0.6667000000000001	0.004	Yes	3.071	-0.004	2.0	GoodResponse	1	0.163	n/a	4	68	ButtonPress	Win	True
647.359	0.52	Win2	0.6667000000000001	n/a	Yes	3.071	n/a	n/a	GoodResponse	1	n/a	n/a	4	68	Blank	Win	True
647.877	1.45	Win2	0.6667000000000001	n/a	Yes	3.071	n/a	5.0	GoodResponse	1	0.044	646.921	4	68	Feedback	Win	True
649.331	3.071	Win2	0.6667000000000001	n/a	Yes	3.071	n/a	n/a	GoodResponse	1	0.0	n/a	4	68	ISIslide	Win	True
652.424	0.25	Win2	0.6570999999999999	0.0	No	3.226	0.024	n/a	LatePress	0	n/a	n/a	4	69	Cue	MissedWin	True
652.675	3.95	Win2	0.6570999999999999	0.0	No	3.226	0.001	n/a	LatePress	0	n/a	n/a	4	69	Fixation	MissedWin	True
656.62	0.17	Win2	0.6570999999999999	0.004	No	3.226	-0.004	2.0	LatePress	0	0.182	655.802	4	69	Target	MissedWin	True
656.802	0.3	Win2	0.6570999999999999	0.004	No	3.226	-0.004	2.0	LatePress	0	0.182	n/a	4	69	ButtonPress	MissedWin	True
656.804	0.53	Win2	0.6570999999999999	n/a	No	3.226	n/a	n/a	LatePress	0	n/a	n/a	4	69	Blank	MissedWin	True
657.322	1.45	Win2	0.6570999999999999	n/a	No	3.226	n/a	5.0	LatePress	0	0.013	656.335	4	69	Feedback	MissedWin	True
658.776	3.226	Win2	0.6570999999999999	n/a	No	3.226	n/a	n/a	LatePress	0	0.0	n/a	4	69	ISIslide	MissedWin	True
662.019	0.25	Lose2	0.662	0.0	Yes	3.031	0.019	n/a	GoodResponse	0	n/a	n/a	4	70	Cue	AvoidedLoss	True
662.27	4.05	Lose2	0.662	0.0	Yes	3.031	0.001	n/a	GoodResponse	0	n/a	n/a	4	70	Fixation	AvoidedLoss	True
666.316	0.17	Lose2	0.662	0.003	Yes	3.031	-0.003	2.0	GoodResponse	0	0.149	665.465	4	70	Target	AvoidedLoss	True
666.465	0.3	Lose2	0.662	0.003	Yes	3.031	-0.003	2.0	GoodResponse	0	0.149	n/a	4	70	ButtonPress	AvoidedLoss	True
666.499	0.53	Lose2	0.662	n/a	Yes	3.031	n/a	n/a	GoodResponse	0	n/a	n/a	4	70	Blank	AvoidedLoss	True
667.018	1.45	Lose2	0.662	n/a	Yes	3.031	n/a	5.0	GoodResponse	0	0.025	666.043	4	70	Feedback	AvoidedLoss	True
668.472	3.031	Lose2	0.662	n/a	Yes	3.031	n/a	n/a	GoodResponse	0	0.0	n/a	4	70	ISIslide	AvoidedLoss	True
671.514	0.25	Win2	0.6667000000000001	0.0	Yes	2.736	0.014	n/a	GoodResponse	1	n/a	n/a	5	71	Cue	Win	True
671.765	4.05	Win2	0.6667000000000001	0.0	Yes	2.736	0.001	n/a	GoodResponse	1	n/a	n/a	5	71	Fixation	Win	True
675.811	0.17	Win2	0.6667000000000001	0.003	Yes	2.736	-0.003	2.0	GoodResponse	1	0.169	674.98	5	71	Target	Win	True
675.98	0.3	Win2	0.6667000000000001	0.003	Yes	2.736	-0.003	2.0	GoodResponse	1	0.169	n/a	5	71	ButtonPress	Win	True
675.994	0.53	Win2	0.6667000000000001	n/a	Yes	2.736	n/a	n/a	GoodResponse	1	n/a	n/a	5	71	Blank	Win	True
676.513	1.45	Win2	0.6667000000000001	n/a	Yes	2.736	n/a	5.0	GoodResponse	1	0.041	675.554	5	71	Feedback	Win	True
677.967	2.736	Win2	0.6667000000000001	n/a	Yes	2.736	n/a	n/a	GoodResponse	1	0.0	n/a	5	71	ISIslide	Win	True
680.725	0.25	Win2	0.6575	0.0	No	2.775	0.025	n/a	NoResponse	0	n/a	n/a	5	72	Cue	MissedWin	True
680.976	4.1	Win2	0.6575	0.0	No	2.775	0.001	n/a	NoResponse	0	n/a	n/a	5	72	Fixation	MissedWin	True
685.072	0.16	Win2	0.6575	0.003	No	2.775	-0.003	2.0	NoResponse	0	0.179	684.251	5	72	Target	MissedWin	True
685.239	0.54	Win2	0.6575	n/a	No	2.775	n/a	n/a	NoResponse	0	n/a	n/a	5	72	Blank	MissedWin	True
685.251	0.3	Win2	0.6575	0.003	No	2.775	-0.003	2.0	NoResponse	0	0.179	n/a	5	72	ButtonPress	MissedWin	True
685.774	1.45	Win2	0.6575	n/a	No	2.775	n/a	5.0	NoResponse	0	0.0	684.774	5	72	Feedback	MissedWin	True
687.228	2.775	Win2	0.6575	n/a	No	2.775	n/a	n/a	NoResponse	0	0.0	n/a	5	72	ISIslide	MissedWin	True
690.02	0.25	Win2	0.6486	0.0	No	2.68	0.02	n/a	NoResponse	0	n/a	n/a	5	73	Cue	MissedWin	True
690.271	4.0	Win2	0.6486	0.0	No	2.68	0.001	n/a	NoResponse	0	n/a	n/a	5	73	Fixation	MissedWin	True
694.266	0.16	Win2	0.6486	0.004	No	2.68	-0.004	2.0	NoResponse	0	0.183	693.449	5	73	Target	MissedWin	True
694.433	0.54	Win2	0.6486	n/a	No	2.68	n/a	n/a	NoResponse	0	n/a	n/a	5	73	Blank	MissedWin	True
694.449	0.3	Win2	0.6486	0.004	No	2.68	-0.004	2.0	NoResponse	0	0.183	n/a	5	73	ButtonPress	MissedWin	True
694.968	1.45	Win2	0.6486	n/a	No	2.68	n/a	5.0	NoResponse	0	0.025	693.993	5	73	Feedback	MissedWin	True
696.422	2.68	Win2	0.6486	n/a	No	2.68	n/a	n/a	NoResponse	0	0.0	n/a	5	73	ISIslide	MissedWin	True
699.114	0.25	Lose2	0.64	0.0	No	2.636	0.014	n/a	LatePress	-1	n/a	n/a	4	74	Cue	Loss	True
699.364	4.05	Lose2	0.64	0.0	No	2.636	0.0	n/a	LatePress	-1	n/a	n/a	4	74	Fixation	Loss	True
703.41	0.17	Lose2	0.64	0.004	No	2.636	-0.004	2.0	LatePress	-1	0.183	702.593	4	74	Target	Loss	True
703.593	0.3	Lose2	0.64	0.004	No	2.636	-0.004	2.0	LatePress	-1	0.183	n/a	4	74	ButtonPress	Loss	True
703.594	0.53	Lose2	0.64	n/a	No	2.636	n/a	n/a	LatePress	-1	n/a	n/a	4	74	Blank	Loss	True
704.112	1.45	Lose2	0.64	n/a	No	2.636	n/a	5.0	LatePress	-1	0.004	703.116	4	74	Feedback	Loss	True
705.566	2.636	Lose2	0.64	n/a	No	2.636	n/a	n/a	LatePress	-1	0.0	n/a	4	74	ISIslide	Loss	True
708.224	0.25	Lose2	0.6446999999999999	0.0	Yes	2.926	0.024	n/a	GoodResponse	0	n/a	n/a	4	75	Cue	AvoidedLoss	True
708.475	3.95	Lose2	0.6446999999999999	0.0	Yes	2.926	0.001	n/a	GoodResponse	0	n/a	n/a	4	75	Fixation	AvoidedLoss	True
712.42	0.18	Lose2	0.6446999999999999	0.004	Yes	2.926	-0.004	2.0	GoodResponse	0	0.178	711.598	4	75	Target	AvoidedLoss	True
712.598	0.3	Lose2	0.6446999999999999	0.004	Yes	2.926	-0.004	2.0	GoodResponse	0	0.178	n/a	4	75	ButtonPress	AvoidedLoss	True
712.604	0.52	Lose2	0.6446999999999999	n/a	Yes	2.926	n/a	n/a	GoodResponse	0	n/a	n/a	4	75	Blank	AvoidedLoss	True
713.122	1.45	Lose2	0.6446999999999999	n/a	Yes	2.926	n/a	5.0	GoodResponse	0	0.018	712.14	4	75	Feedback	AvoidedLoss	True
714.577	2.926	Lose2	0.6446999999999999	n/a	Yes	2.926	n/a	n/a	GoodResponse	0	0.0	n/a	4	75	ISIslide	AvoidedLoss	True
717.519	0.25	Control	0.6494	0.0	Yes	3.231	0.019	n/a	GoodResponse	0	n/a	n/a	4	76	Cue	Neutral	False
717.77	4.05	Control	0.6494	0.0	Yes	3.231	0.001	2.0	GoodResponse	0	3.681	720.451	4	76	Fixation	Neutral	False
721.451	0.3	Control	0.6494	0.0	Yes	3.231	0.001	2.0	GoodResponse	0	3.681	n/a	4	76	ButtonPress	Neutral	False
721.815	0.19	Control	0.6494	0.004	Yes	3.231	-0.004	2.0	GoodResponse	0	0.146	720.961	4	76	Target	Neutral	False
721.961	0.3	Control	0.6494	0.004	Yes	3.231	-0.004	2.0	GoodResponse	0	0.146	n/a	4	76	ButtonPress	Neutral	False
722.016	0.51	Control	0.6494	n/a	Yes	3.231	n/a	n/a	GoodResponse	0	n/a	n/a	4	76	Blank	Neutral	False
722.517	1.45	Control	0.6494	n/a	Yes	3.231	n/a	5.0	GoodResponse	0	0.037	721.554	4	76	Feedback	Neutral	False
723.971	3.231	Control	0.6494	n/a	Yes	3.231	n/a	n/a	GoodResponse	0	0.0	n/a	4	76	ISIslide	Neutral	False
727.214	0.25	Lose2	0.6409999999999999	0.001	No	2.586	0.014	n/a	NoResponse	-1	n/a	n/a	3	77	Cue	Loss	True
727.465	3.95	Lose2	0.6409999999999999	0.0	No	2.586	0.001	n/a	NoResponse	-1	n/a	n/a	3	77	Fixation	Loss	True
731.41	0.2	Lose2	0.6409999999999999	0.004	No	2.586	-0.004	2.0	NoResponse	-1	0.241	730.651	3	77	Target	Loss	True
731.611	0.5	Lose2	0.6409999999999999	n/a	No	2.586	n/a	n/a	NoResponse	-1	n/a	n/a	3	77	Blank	Loss	True
731.651	0.3	Lose2	0.6409999999999999	0.004	No	2.586	-0.004	2.0	NoResponse	-1	0.241	n/a	3	77	ButtonPress	Loss	True
732.112	1.45	Lose2	0.6409999999999999	n/a	No	2.586	n/a	5.0	NoResponse	-1	0.004	731.116	3	77	Feedback	Loss	True
733.567	2.586	Lose2	0.6409999999999999	n/a	No	2.586	n/a	n/a	NoResponse	-1	0.0	n/a	3	77	ISIslide	Loss	True
