onset	duration	cue_type	current_mean_accuracy	duration_error	is_hit	isi_adjusted	onset_delay	response	response_type	reward	rt	rt_time	total_reward	trial_number	trial_phase	trial_type	one_press
11.11	0.25	Control	1.0	0.0	Yes	2.94	0.01	n/a	GoodResponse	0	n/a	n/a	0	0	Cue	Neutral	True
11.36	3.85	Control	1.0	0.001	Yes	2.94	0.0	n/a	GoodResponse	0	n/a	n/a	0	0	Fixation	Neutral	True
15.222	0.4	Control	1.0	0.0	Yes	2.94	0.012	4.0	GoodResponse	0	0.21	14.432	0	0	Target	Neutral	True
15.432	0.3	Control	1.0	0.0	Yes	2.94	0.012	4.0	GoodResponse	0	0.21	n/a	0	0	ButtonPress	Neutral	True
15.606	0.3	Control	1.0	n/a	Yes	2.94	n/a	n/a	GoodResponse	0	n/a	n/a	0	0	Blank	Neutral	True
15.907	1.45	Control	1.0	n/a	Yes	2.94	n/a	5.0	GoodResponse	0	0.02	14.927	0	0	Feedback	Neutral	True
17.362	2.94	Control	1.0	n/a	Yes	2.94	n/a	n/a	GoodResponse	0	0.0	n/a	0	0	ISIslide	Neutral	True
20.321	0.25	Lose2	1.0	0.0	Yes	2.779	0.021	n/a	GoodResponse	0	n/a	n/a	0	1	Cue	AvoidedLoss	True
20.571	4.0	Lose2	1.0	0.0	Yes	2.779	0.0	n/a	GoodResponse	0	n/a	n/a	0	1	Fixation	AvoidedLoss	True
24.567	0.39	Lose2	1.0	0.004	Yes	2.779	-0.004	4.0	GoodResponse	0	0.226	23.793	0	1	Target	AvoidedLoss	True
24.793	0.3	Lose2	1.0	0.004	Yes	2.779	-0.004	4.0	GoodResponse	0	0.226	n/a	0	1	ButtonPress	AvoidedLoss	True
24.968	0.31	Lose2	1.0	n/a	Yes	2.779	n/a	n/a	GoodResponse	0	n/a	n/a	0	1	Blank	AvoidedLoss	True
25.269	1.45	Lose2	1.0	n/a	Yes	2.779	n/a	5.0	GoodResponse	0	0.024	24.293	0	1	Feedback	AvoidedLoss	True
26.723	2.779	Lose2	1.0	n/a	Yes	2.779	n/a	n/a	GoodResponse	0	0.0	n/a	0	1	ISIslide	AvoidedLoss	True
29.515	0.25	Control	1.0	0.0	Yes	2.585	0.015	n/a	GoodResponse	0	n/a	n/a	0	2	Cue	Neutral	True
29.766	4.1	Control	1.0	0.0	Yes	2.585	0.001	n/a	GoodResponse	0	n/a	n/a	0	2	Fixation	Neutral	True
33.861	0.38	Control	1.0	0.004	Yes	2.585	-0.004	4.0	GoodResponse	0	0.235	33.096	0	2	Target	Neutral	True
34.096	0.3	Control	1.0	0.004	Yes	2.585	-0.004	4.0	GoodResponse	0	0.235	n/a	0	2	ButtonPress	Neutral	True
34.246	0.32	Control	1.0	n/a	Yes	2.585	n/a	n/a	GoodResponse	0	n/a	n/a	0	2	Blank	Neutral	True
34.563	1.45	Control	1.0	n/a	Yes	2.585	n/a	5.0	GoodResponse	0	0.047	33.61	0	2	Feedback	Neutral	True
36.018	2.585	Control	1.0	n/a	Yes	2.585	n/a	n/a	GoodResponse	0	0.0	n/a	0	2	ISIslide	Neutral	True
38.626	0.25	Win2	1.0	0.0	Yes	2.824	0.026	n/a	GoodResponse	1	n/a	n/a	1	3	Cue	Win	True
38.876	3.95	Win2	1.0	0.0	Yes	2.824	0.0	n/a	GoodResponse	1	n/a	n/a	1	3	Fixation	Win	True
42.838	0.37	Win2	1.0	0.0	Yes	2.824	0.012	4.0	GoodResponse	1	0.182	42.02	1	3	Target	Win	True
43.02	0.3	Win2	1.0	0.0	Yes	2.824	0.012	4.0	GoodResponse	1	0.182	n/a	1	3	ButtonPress	Win	True
43.206	0.33	Win2	1.0	n/a	Yes	2.824	n/a	n/a	GoodResponse	1	n/a	n/a	1	3	Blank	Win	True
43.524	1.45	Win2	1.0	n/a	Yes	2.824	n/a	5.0	GoodResponse	1	0.013	42.537	1	3	Feedback	Win	True
44.978	2.824	Win2	1.0	n/a	Yes	2.824	n/a	n/a	GoodResponse	1	0.0	n/a	1	3	ISIslide	Win	True
47.82	0.25	Win2	1.0	0.0	Yes	3.28	0.02	n/a	GoodResponse	1	n/a	n/a	2	4	Cue	Win	True
48.071	4.0	Win2	1.0	0.0	Yes	3.28	0.001	n/a	GoodResponse	1	n/a	n/a	2	4	Fixation	Win	True
52.066	0.36	Win2	1.0	0.004	Yes	3.28	-0.004	4.0	GoodResponse	1	0.186	51.252	2	4	Target	Win	True
52.252	0.3	Win2	1.0	0.004	Yes	3.28	-0.004	4.0	GoodResponse	1	0.186	n/a	2	4	ButtonPress	Win	True
52.434	0.34	Win2	1.0	n/a	Yes	3.28	n/a	n/a	GoodResponse	1	n/a	n/a	2	4	Blank	Win	True
52.768	1.45	Win2	1.0	n/a	Yes	3.28	n/a	5.0	GoodResponse	1	0.037	51.805	2	4	Feedback	Win	True
54.222	3.28	Win2	1.0	n/a	Yes	3.28	n/a	n/a	GoodResponse	1	0.0	n/a	2	4	ISIslide	Win	True
57.532	0.25	Win2	1.0	0.0	Yes	2.768	0.032	n/a	GoodResponse	1	n/a	n/a	3	5	Cue	Win	True
57.783	4.0	Win2	1.0	0.0	Yes	2.768	0.001	n/a	GoodResponse	1	n/a	n/a	3	5	Fixation	Win	True
61.778	0.35	Win2	1.0	0.004	Yes	2.768	-0.004	4.0	GoodResponse	1	0.31	61.088	3	5	Target	Win	True
62.088	0.3	Win2	1.0	0.004	Yes	2.768	-0.004	4.0	GoodResponse	1	0.31	n/a	3	5	ButtonPress	Win	True
62.129	0.35	Win2	1.0	n/a	Yes	2.768	n/a	n/a	GoodResponse	1	n/a	n/a	3	5	Blank	Win	True
62.48	1.45	Win2	1.0	n/a	Yes	2.768	n/a	5.0	GoodResponse	1	0.032	61.512	3	5	Feedback	Win	True
63.935	2.768	Win2	1.0	n/a	Yes	2.768	n/a	n/a	GoodResponse	1	0.0	n/a	3	5	ISIslide	Win	True
66.727	0.25	Lose2	1.0	0.0	Yes	2.723	0.027	n/a	GoodResponse	0	n/a	n/a	3	6	Cue	AvoidedLoss	True
66.977	3.95	Lose2	1.0	0.0	Yes	2.723	0.0	n/a	GoodResponse	0	n/a	n/a	3	6	Fixation	AvoidedLoss	True
70.939	0.34	Lose2	1.0	0.0	Yes	2.723	0.012	4.0	GoodResponse	0	0.188	70.127	3	6	Target	AvoidedLoss	True
71.127	0.3	Lose2	1.0	0.0	Yes	2.723	0.012	4.0	GoodResponse	0	0.188	n/a	3	6	ButtonPress	AvoidedLoss	True
71.273	0.36	Lose2	1.0	n/a	Yes	2.723	n/a	n/a	GoodResponse	0	n/a	n/a	3	6	Blank	AvoidedLoss	True
71.625	1.45	Lose2	1.0	n/a	Yes	2.723	n/a	5.0	GoodResponse	0	0.009	70.634	3	6	Feedback	AvoidedLoss	True
73.079	2.723	Lose2	1.0	n/a	Yes	2.723	n/a	n/a	GoodResponse	0	0.0	n/a	3	6	ISIslide	AvoidedLoss	True
75.82	0.25	Lose2	1.0	0.001	Yes	4.03	0.02	n/a	GoodResponse	0	n/a	n/a	3	7	Cue	AvoidedLoss	True
76.071	4.05	Lose2	1.0	0.0	Yes	4.03	0.001	n/a	GoodResponse	0	n/a	n/a	3	7	Fixation	AvoidedLoss	True
80.117	0.33	Lose2	1.0	0.003	Yes	4.03	-0.003	4.0	GoodResponse	0	0.217	79.334	3	7	Target	AvoidedLoss	True
80.334	0.3	Lose2	1.0	0.003	Yes	4.03	-0.003	4.0	GoodResponse	0	0.217	n/a	3	7	ButtonPress	AvoidedLoss	True
80.451	0.37	Lose2	1.0	n/a	Yes	4.03	n/a	n/a	GoodResponse	0	n/a	n/a	3	7	Blank	AvoidedLoss	True
80.819	1.45	Lose2	1.0	n/a	Yes	4.03	n/a	5.0	GoodResponse	0	0.035	79.854	3	7	Feedback	AvoidedLoss	True
82.273	4.03	Lose2	1.0	n/a	Yes	4.03	n/a	n/a	GoodResponse	0	0.0	n/a	3	7	ISIslide	AvoidedLoss	True
86.319	0.25	Lose2	1.0	0.0	Yes	3.031	0.019	n/a	GoodResponse	0	n/a	n/a	3	8	Cue	AvoidedLoss	True
86.569	3.95	Lose2	1.0	0.0	Yes	3.031	0.0	n/a	GoodResponse	0	n/a	n/a	3	8	Fixation	AvoidedLoss	True
90.515	0.32	Lose2	1.0	0.004	Yes	3.031	-0.004	4.0	GoodResponse	0	0.197	89.712	3	8	Target	AvoidedLoss	True
90.712	0.3	Lose2	1.0	0.004	Yes	3.031	-0.004	4.0	GoodResponse	0	0.197	n/a	3	8	ButtonPress	AvoidedLoss	True
90.849	0.38	Lose2	1.0	n/a	Yes	3.031	n/a	n/a	GoodResponse	0	n/a	n/a	3	8	Blank	AvoidedLoss	True
91.217	1.45	Lose2	1.0	n/a	Yes	3.031	n/a	5.0	GoodResponse	0	0.027	90.244	3	8	Feedback	AvoidedLoss	True
92.671	3.031	Lose2	1.0	n/a	Yes	3.031	n/a	n/a	GoodResponse	0	0.0	n/a	3	8	ISIslide	AvoidedLoss	True
95.73	0.25	Lose2	1.0	0.0	Yes	3.12	0.03	n/a	GoodResponse	0	n/a	n/a	3	9	Cue	AvoidedLoss	True
95.981	3.95	Lose2	1.0	0.0	Yes	3.12	0.001	n/a	GoodResponse	0	n/a	n/a	3	9	Fixation	AvoidedLoss	True
99.926	0.31	Lose2	1.0	0.004	Yes	3.12	-0.004	4.0	GoodResponse	0	0.262	99.188	3	9	Target	AvoidedLoss	True
100.188	0.3	Lose2	1.0	0.004	Yes	3.12	-0.004	4.0	GoodResponse	0	0.262	n/a	3	9	ButtonPress	AvoidedLoss	True
100.244	0.39	Lose2	1.0	n/a	Yes	3.12	n/a	n/a	GoodResponse	0	n/a	n/a	3	9	Blank	AvoidedLoss	True
100.628	1.45	Lose2	1.0	n/a	Yes	3.12	n/a	5.0	GoodResponse	0	0.031	99.659	3	9	Feedback	AvoidedLoss	True
102.083	3.12	Lose2	1.0	n/a	Yes	3.12	n/a	n/a	GoodResponse	0	0.0	n/a	3	9	ISIslide	AvoidedLoss	True
105.225	0.25	Control	1.0	0.0	Yes	3.275	0.025	n/a	GoodResponse	0	n/a	n/a	3	10	Cue	Neutral	True
105.476	4.0	Control	1.0	0.0	Yes	3.275	0.001	n/a	GoodResponse	0	n/a	n/a	3	10	Fixation	Neutral	True
109.471	0.3	Control	1.0	0.004	Yes	3.275	-0.004	4.0	GoodResponse	0	0.258	108.729	3	10	Target	Neutral	True
109.729	0.3	Control	1.0	0.004	Yes	3.275	-0.004	4.0	GoodResponse	0	0.258	n/a	3	10	ButtonPress	Neutral	True
109.772	0.4	Control	1.0	n/a	Yes	3.275	n/a	n/a	GoodResponse	0	n/a	n/a	3	10	Blank	Neutral	True
110.174	1.45	Control	1.0	n/a	Yes	3.275	n/a	5.0	GoodResponse	0	0.046	109.22	3	10	Feedback	Neutral	True
111.628	3.275	Control	1.0	n/a	Yes	3.275	n/a	n/a	GoodResponse	0	0.0	n/a	3	10	ISIslide	Neutral	True
114.921	0.25	Lose2	1.0	0.0	Yes	2.729	0.021	n/a	GoodResponse	0	n/a	n/a	3	11	Cue	AvoidedLoss	True
115.172	4.05	Lose2	1.0	0.0	Yes	2.729	0.001	n/a	GoodResponse	0	n/a	n/a	3	11	Fixation	AvoidedLoss	True
119.217	0.29	Lose2	1.0	0.004	Yes	2.729	-0.004	4.0	GoodResponse	0	0.232	118.449	3	11	Target	AvoidedLoss	True
119.449	0.3	Lose2	1.0	0.004	Yes	2.729	-0.004	4.0	GoodResponse	0	0.232	n/a	3	11	ButtonPress	AvoidedLoss	True
119.518	0.41	Lose2	1.0	n/a	Yes	2.729	n/a	n/a	GoodResponse	0	n/a	n/a	3	11	Blank	AvoidedLoss	True
119.919	1.45	Lose2	1.0	n/a	Yes	2.729	n/a	5.0	GoodResponse	0	0.008	118.927	3	11	Feedback	AvoidedLoss	True
121.374	2.729	Lose2	1.0	n/a	Yes	2.729	n/a	n/a	GoodResponse	0	0.0	n/a	3	11	ISIslide	AvoidedLoss	True
124.115	0.25	Control	1.0	0.0	Yes	2.985	0.015	n/a	GoodResponse	0	n/a	n/a	3	12	Cue	Neutral	True
124.366	3.9	Control	1.0	0.0	Yes	2.985	0.001	n/a	GoodResponse	0	n/a	n/a	3	12	Fixation	Neutral	True
128.261	0.28	Control	1.0	0.004	Yes	2.985	-0.004	4.0	GoodResponse	0	0.278	127.539	3	12	Target	Neutral	True
128.539	0.3	Control	1.0	0.004	Yes	2.985	-0.004	4.0	GoodResponse	0	0.278	n/a	3	12	ButtonPress	Neutral	True
128.545	0.42	Control	1.0	n/a	Yes	2.985	n/a	n/a	GoodResponse	0	n/a	n/a	3	12	Blank	Neutral	True
128.963	1.45	Control	1.0	n/a	Yes	2.985	n/a	5.0	GoodResponse	0	0.037	128.0	3	12	Feedback	Neutral	True
130.418	2.985	Control	1.0	n/a	Yes	2.985	n/a	n/a	GoodResponse	0	0.0	n/a	3	12	ISIslide	Neutral	True
133.427	0.25	Control	1.0	0.0	Yes	2.773	0.027	n/a	GoodResponse	0	n/a	n/a	3	13	Cue	Neutral	True
133.677	4.0	Control	1.0	0.0	Yes	2.773	0.0	n/a	GoodResponse	0	n/a	n/a	3	13	Fixation	Neutral	True
137.673	0.27	Control	1.0	0.004	Yes	2.773	-0.004	4.0	GoodResponse	0	0.209	136.882	3	13	Target	Neutral	True
137.882	0.3	Control	1.0	0.004	Yes	2.773	-0.004	4.0	GoodResponse	0	0.209	n/a	3	13	ButtonPress	Neutral	True
137.957	0.43	Control	1.0	n/a	Yes	2.773	n/a	n/a	GoodResponse	0	n/a	n/a	3	13	Blank	Neutral	True
138.375	1.45	Control	1.0	n/a	Yes	2.773	n/a	5.0	GoodResponse	0	0.039	137.414	3	13	Feedback	Neutral	True
139.829	2.773	Control	1.0	n/a	Yes	2.773	n/a	n/a	GoodResponse	0	0.0	n/a	3	13	ISIslide	Neutral	True
142.621	0.25	Win2	1.0	0.0	Yes	2.679	0.021	n/a	GoodResponse	1	n/a	n/a	4	14	Cue	Win	True
142.872	4.1	Win2	1.0	0.0	Yes	2.679	0.001	n/a	GoodResponse	1	n/a	n/a	4	14	Fixation	Win	True
146.967	0.26	Win2	1.0	0.004	Yes	2.679	-0.004	4.0	GoodResponse	1	0.194	146.161	4	14	Target	Win	True
147.161	0.3	Win2	1.0	0.004	Yes	2.679	-0.004	4.0	GoodResponse	1	0.194	n/a	4	14	ButtonPress	Win	True
147.235	0.44	Win2	1.0	n/a	Yes	2.679	n/a	n/a	GoodResponse	1	n/a	n/a	4	14	Blank	Win	True
147.669	1.45	Win2	1.0	n/a	Yes	2.679	n/a	5.0	GoodResponse	1	0.014	146.683	4	14	Feedback	Win	True
149.124	2.679	Win2	1.0	n/a	Yes	2.679	n/a	n/a	GoodResponse	1	0.0	n/a	4	14	ISIslide	Win	True
151.815	0.25	Control	1.0	0.0	Yes	2.985	0.015	n/a	GoodResponse	0	n/a	n/a	4	15	Cue	Neutral	True
152.066	4.0	Control	1.0	0.0	Yes	2.985	0.001	n/a	GoodResponse	0	n/a	n/a	4	15	Fixation	Neutral	True
156.061	0.25	Control	1.0	0.004	Yes	2.985	-0.004	4.0	GoodResponse	0	0.226	155.287	4	15	Target	Neutral	True
156.287	0.3	Control	1.0	0.004	Yes	2.985	-0.004	4.0	GoodResponse	0	0.226	n/a	4	15	ButtonPress	Neutral	True
156.312	0.45	Control	1.0	n/a	Yes	2.985	n/a	n/a	GoodResponse	0	n/a	n/a	4	15	Blank	Neutral	True
156.763	1.45	Control	1.0	n/a	Yes	2.985	n/a	5.0	GoodResponse	0	0.042	155.805	4	15	Feedback	Neutral	True
158.218	2.985	Control	1.0	n/a	Yes	2.985	n/a	n/a	GoodResponse	0	0.0	n/a	4	15	ISIslide	Neutral	True
161.227	0.25	Win2	1.0	0.0	Yes	2.873	0.027	n/a	GoodResponse	1	n/a	n/a	5	16	Cue	Win	True
161.477	4.0	Win2	1.0	0.0	Yes	2.873	0.0	n/a	GoodResponse	1	n/a	n/a	5	16	Fixation	Win	True
165.473	0.24	Win2	1.0	0.004	Yes	2.873	-0.004	4.0	GoodResponse	1	0.226	164.699	5	16	Target	Win	True
165.699	0.3	Win2	1.0	0.004	Yes	2.873	-0.004	4.0	GoodResponse	1	0.226	n/a	5	16	ButtonPress	Win	True
165.723	0.46	Win2	1.0	n/a	Yes	2.873	n/a	n/a	GoodResponse	1	n/a	n/a	5	16	Blank	Win	True
166.175	1.45	Win2	1.0	n/a	Yes	2.873	n/a	5.0	GoodResponse	1	0.044	165.219	5	16	Feedback	Win	True
167.629	2.873	Win2	1.0	n/a	Yes	2.873	n/a	n/a	GoodResponse	1	0.0	n/a	5	16	ISIslide	Win	True
170.521	0.25	Lose2	0.9444	0.0	No	2.729	0.021	n/a	NoResponse	-1	n/a	n/a	4	17	Cue	Loss	True
170.772	3.95	Lose2	0.9444	0.0	No	2.729	0.001	n/a	NoResponse	-1	n/a	n/a	4	17	Fixation	Loss	True
174.717	0.23	Lose2	0.9444	0.004	No	2.729	-0.004	4.0	NoResponse	-1	0.247	173.964	4	17	Target	Loss	True
174.951	0.47	Lose2	0.9444	n/a	No	2.729	n/a	n/a	NoResponse	-1	n/a	n/a	4	17	Blank	Loss	True
174.964	0.3	Lose2	0.9444	0.004	No	2.729	-0.004	4.0	NoResponse	-1	0.247	n/a	4	17	ButtonPress	Loss	True
175.419	1.45	Lose2	0.9444	n/a	No	2.729	n/a	5.0	NoResponse	-1	0.02	174.439	4	17	Feedback	Loss	True
176.874	2.729	Lose2	0.9444	n/a	No	2.729	n/a	n/a	NoResponse	-1	0.0	n/a	4	17	ISIslide	Loss	True
179.615	0.25	Lose2	0.9473999999999999	0.0	Yes	2.735	0.015	n/a	GoodResponse	0	n/a	n/a	4	18	Cue	AvoidedLoss	True
179.866	4.05	Lose2	0.9473999999999999	0.0	Yes	2.735	0.001	n/a	GoodResponse	0	n/a	n/a	4	18	Fixation	AvoidedLoss	True
183.911	0.22	Lose2	0.9473999999999999	0.004	Yes	2.735	-0.004	4.0	GoodResponse	0	0.199	183.11	4	18	Target	AvoidedLoss	True
184.11	0.3	Lose2	0.9473999999999999	0.004	Yes	2.735	-0.004	4.0	GoodResponse	0	0.199	n/a	4	18	ButtonPress	AvoidedLoss	True
184.145	0.48	Lose2	0.9473999999999999	n/a	Yes	2.735	n/a	n/a	GoodResponse	0	n/a	n/a	4	18	Blank	AvoidedLoss	True
184.613	1.45	Lose2	0.9473999999999999	n/a	Yes	2.735	n/a	5.0	GoodResponse	0	0.046	183.659	4	18	Feedback	AvoidedLoss	True
186.068	2.735	Lose2	0.9473999999999999	n/a	Yes	2.735	n/a	n/a	GoodResponse	0	0.0	n/a	4	18	ISIslide	AvoidedLoss	True
188.826	0.25	Control	0.9	0.0	No	2.924	0.026	n/a	LatePress	0	n/a	n/a	4	19	Cue	Neutral	True
189.077	3.95	Control	0.9	0.0	No	2.924	0.001	n/a	LatePress	0	n/a	n/a	4	19	Fixation	Neutral	True
193.022	0.21	Control	0.9	0.004	No	2.924	-0.004	4.0	LatePress	0	0.213	192.235	4	19	Target	Neutral	True
193.235	0.3	Control	0.9	0.004	No	2.924	-0.004	4.0	LatePress	0	0.213	n/a	4	19	ButtonPress	Neutral	True
193.239	0.49	Control	0.9	n/a	No	2.924	n/a	n/a	LatePress	0	n/a	n/a	4	19	Blank	Neutral	True
193.724	1.45	Control	0.9	n/a	No	2.924	n/a	5.0	LatePress	0	0.008	192.732	4	19	Feedback	Neutral	True
195.179	2.924	Control	0.9	n/a	No	2.924	n/a	n/a	LatePress	0	0.0	n/a	4	19	ISIslide	Neutral	True
198.121	0.25	Control	0.9048	0.0	Yes	2.629	0.021	n/a	GoodResponse	0	n/a	n/a	4	20	Cue	Neutral	True
198.371	4.05	Control	0.9048	0.001	Yes	2.629	0.0	n/a	GoodResponse	0	n/a	n/a	4	20	Fixation	Neutral	True
202.417	0.2	Control	0.9048	0.004	Yes	2.629	-0.004	4.0	GoodResponse	0	0.186	201.603	4	20	Target	Neutral	True
202.603	0.3	Control	0.9048	0.004	Yes	2.629	-0.004	4.0	GoodResponse	0	0.186	n/a	4	20	ButtonPress	Neutral	True
202.617	0.5	Control	0.9048	n/a	Yes	2.629	n/a	n/a	GoodResponse	0	n/a	n/a	4	20	Blank	Neutral	True
203.119	1.45	Control	0.9048	n/a	Yes	2.629	n/a	5.0	GoodResponse	0	0.028	202.147	4	20	Feedback	Neutral	True
204.573	2.629	Control	0.9048	n/a	Yes	2.629	n/a	n/a	GoodResponse	0	0.0	n/a	4	20	ISIslide	Neutral	True
207.215	0.25	Control	0.8636	0.0	No	2.785	0.015	n/a	NoResponse	0	n/a	n/a	4	21	Cue	Neutral	True
207.465	4.1	Control	0.8636	0.0	No	2.785	0.0	4.0	NoResponse	0	3.731	210.196	4	21	Fixation	Neutral	True
211.196	0.3	Control	0.8636	0.0	No	2.785	0.0	4.0	NoResponse	0	3.731	n/a	4	21	ButtonPress	Neutral	True
211.561	0.19	Control	0.8636	0.004	No	2.785	-0.004	n/a	NoResponse	0	n/a	n/a	4	21	Target	Neutral	True
211.762	0.51	Control	0.8636	n/a	No	2.785	n/a	n/a	NoResponse	0	n/a	n/a	4	21	Blank	Neutral	True
212.263	1.45	Control	0.8636	n/a	No	2.785	n/a	5.0	NoResponse	0	0.008	211.271	4	21	Feedback	Neutral	True
213.717	2.785	Control	0.8636	n/a	No	2.785	n/a	n/a	NoResponse	0	0.0	n/a	4	21	ISIslide	Neutral	True
216.526	0.25	Control	0.8261	0.0	No	2.774	0.026	n/a	NoResponse	0	n/a	n/a	4	22	Cue	Neutral	False
216.777	4.0	Control	0.8261	0.0	No	2.774	0.001	n/a	NoResponse	0	n/a	n/a	4	22	Fixation	Neutral	False
220.772	0.18	Control	0.8261	0.004	No	2.774	-0.004	n/a	NoResponse	0	n/a	n/a	4	22	Target	Neutral	False
220.956	0.52	Control	0.8261	n/a	No	2.774	n/a	n/a	NoResponse	0	n/a	n/a	4	22	Blank	Neutral	False
221.474	1.45	Control	0.8261	n/a	No	2.774	n/a	5.0	NoResponse	0	0.013	220.487	4	22	Feedback	Neutral	False
222.928	2.774	Control	0.8261	n/a	No	2.774	n/a	n/a	NoResponse	0	0.0	n/a	4	22	ISIslide	Neutral	False
225.72	0.25	Control	0.7917000000000001	0.0	No	2.78	0.02	n/a	NoResponse	0	n/a	n/a	4	23	Cue	Neutral	True
225.971	3.9	Control	0.7917000000000001	0.0	No	2.78	0.001	n/a	NoResponse	0	n/a	n/a	4	23	Fixation	Neutral	True
229.866	0.17	Control	0.7917000000000001	0.004	No	2.78	-0.004	4.0	NoResponse	0	0.221	229.087	4	23	Target	Neutral	True
230.05	0.53	Control	0.7917000000000001	n/a	No	2.78	n/a	n/a	NoResponse	0	n/a	n/a	4	23	Blank	Neutral	True
230.087	0.3	Control	0.7917000000000001	0.004	No	2.78	-0.004	4.0	NoResponse	0	0.221	n/a	4	23	ButtonPress	Neutral	True
230.568	1.45	Control	0.7917000000000001	n/a	No	2.78	n/a	5.0	NoResponse	0	0.041	229.609	4	23	Feedback	Neutral	True
232.022	2.78	Control	0.7917000000000001	n/a	No	2.78	n/a	n/a	NoResponse	0	0.0	n/a	4	23	ISIslide	Neutral	True
234.831	0.25	Win2	0.76	0.0	No	3.119	0.031	n/a	NoResponse	0	n/a	n/a	4	24	Cue	MissedWin	False
235.082	3.95	Win2	0.76	0.0	No	3.119	0.001	4.0	NoResponse	0	3.39	237.472	4	24	Fixation	MissedWin	False
238.472	0.3	Win2	0.76	0.0	No	3.119	0.001	4.0	NoResponse	0	3.39	n/a	4	24	ButtonPress	MissedWin	False
239.027	0.16	Win2	0.76	0.004	No	3.119	-0.004	4.0	NoResponse	0	0.226	238.253	4	24	Target	MissedWin	False
239.194	0.54	Win2	0.76	n/a	No	3.119	n/a	n/a	NoResponse	0	n/a	n/a	4	24	Blank	MissedWin	False
239.253	0.3	Win2	0.76	0.004	No	3.119	-0.004	4.0	NoResponse	0	0.226	n/a	4	24	ButtonPress	MissedWin	False
239.729	1.45	Win2	0.76	n/a	No	3.119	n/a	5.0	NoResponse	0	0.002	238.731	4	24	Feedback	MissedWin	False
241.183	3.119	Win2	0.76	n/a	No	3.119	n/a	n/a	NoResponse	0	0.0	n/a	4	24	ISIslide	MissedWin	False
244.326	0.25	Win2	0.7308	0.0	No	3.074	0.026	n/a	NoResponse	0	n/a	n/a	4	25	Cue	MissedWin	True
244.577	4.0	Win2	0.7308	0.0	No	3.074	0.001	n/a	NoResponse	0	n/a	n/a	4	25	Fixation	MissedWin	True
248.572	0.15	Win2	0.7308	0.004	No	3.074	-0.004	4.0	NoResponse	0	0.202	247.774	4	25	Target	MissedWin	True
248.722	0.55	Win2	0.7308	n/a	No	3.074	n/a	n/a	NoResponse	0	n/a	n/a	4	25	Blank	MissedWin	True
248.774	0.3	Win2	0.7308	0.004	No	3.074	-0.004	4.0	NoResponse	0	0.202	n/a	4	25	ButtonPress	MissedWin	True
249.274	1.45	Win2	0.7308	n/a	No	3.074	n/a	5.0	NoResponse	0	0.018	248.292	4	25	Feedback	MissedWin	True
250.728	3.074	Win2	0.7308	n/a	No	3.074	n/a	n/a	NoResponse	0	0.0	n/a	4	25	ISIslide	MissedWin	True
253.821	0.25	Win2	0.7037	0.0	No	2.929	0.021	n/a	NoResponse	0	n/a	n/a	4	26	Cue	MissedWin	True
254.072	3.95	Win2	0.7037	0.0	No	2.929	0.001	n/a	NoResponse	0	n/a	n/a	4	26	Fixation	MissedWin	True
258.017	0.15	Win2	0.7037	0.004	No	2.929	-0.004	4.0	NoResponse	0	0.171	257.188	4	26	Target	MissedWin	True
258.167	0.55	Win2	0.7037	n/a	No	2.929	n/a	n/a	NoResponse	0	n/a	n/a	4	26	Blank	MissedWin	True
258.188	0.3	Win2	0.7037	0.004	No	2.929	-0.004	4.0	NoResponse	0	0.171	n/a	4	26	ButtonPress	MissedWin	True
258.719	1.45	Win2	0.7037	n/a	No	2.929	n/a	5.0	NoResponse	0	0.037	257.756	4	26	Feedback	MissedWin	True
260.173	2.929	Win2	0.7037	n/a	No	2.929	n/a	n/a	NoResponse	0	0.0	n/a	4	26	ISIslide	MissedWin	True
263.116	0.25	Lose2	0.6786	0.0	No	2.834	0.016	n/a	NoResponse	-1	n/a	n/a	3	27	Cue	Loss	True
263.366	4.05	Lose2	0.6786	0.0	No	2.834	0.0	n/a	NoResponse	-1	n/a	n/a	3	27	Fixation	Loss	True
267.412	0.15	Lose2	0.6786	0.004	No	2.834	-0.004	4.0	NoResponse	-1	0.171	266.583	3	27	Target	Loss	True
267.562	0.55	Lose2	0.6786	n/a	No	2.834	n/a	n/a	NoResponse	-1	n/a	n/a	3	27	Blank	Loss	True
267.583	0.3	Lose2	0.6786	0.004	No	2.834	-0.004	4.0	NoResponse	-1	0.171	n/a	3	27	ButtonPress	Loss	True
268.114	1.45	Lose2	0.6786	n/a	No	2.834	n/a	5.0	NoResponse	-1	0.008	267.122	3	27	Feedback	Loss	True
269.568	2.834	Lose2	0.6786	n/a	No	2.834	n/a	n/a	NoResponse	-1	0.0	n/a	3	27	ISIslide	Loss	True
272.427	0.25	Control	0.6552	0.0	No	2.823	0.027	n/a	PrematurePress	0	n/a	n/a	3	28	Cue	Neutral	True
272.678	4.05	Control	0.6552	0.0	No	2.823	0.001	n/a	PrematurePress	0	n/a	n/a	3	28	Fixation	Neutral	True
276.723	0.15	Control	0.6552	0.004	No	2.823	-0.004	4.0	PrematurePress	0	0.032	275.755	3	28	Target	Neutral	True
276.755	0.3	Control	0.6552	0.004	No	2.823	-0.004	4.0	PrematurePress	0	0.032	n/a	3	28	ButtonPress	Neutral	True
276.874	0.55	Control	0.6552	n/a	No	2.823	n/a	n/a	PrematurePress	0	n/a	n/a	3	28	Blank	Neutral	True
277.425	1.45	Control	0.6552	n/a	No	2.823	n/a	5.0	PrematurePress	0	0.014	276.439	3	28	Feedback	Neutral	True
278.88	2.823	Control	0.6552	n/a	No	2.823	n/a	n/a	PrematurePress	0	0.0	n/a	3	28	ISIslide	Neutral	True
281.721	0.25	Lose2	0.6333	0.001	No	2.829	0.021	n/a	PrematurePress	-1	n/a	n/a	2	29	Cue	Loss	True
281.972	3.95	Lose2	0.6333	0.0	No	2.829	0.001	n/a	PrematurePress	-1	n/a	n/a	2	29	Fixation	Loss	True
285.917	0.15	Lose2	0.6333	0.004	No	2.829	-0.004	4.0	PrematurePress	-1	0.012	284.929	2	29	Target	Loss	True
285.929	0.3	Lose2	0.6333	0.004	No	2.829	-0.004	4.0	PrematurePress	-1	0.012	n/a	2	29	ButtonPress	Loss	True
286.068	0.55	Lose2	0.6333	n/a	No	2.829	n/a	n/a	PrematurePress	-1	n/a	n/a	2	29	Blank	Loss	True
286.619	1.45	Lose2	0.6333	n/a	No	2.829	n/a	5.0	PrematurePress	-1	0.039	285.658	2	29	Feedback	Loss	True
288.074	2.829	Lose2	0.6333	n/a	No	2.829	n/a	n/a	PrematurePress	-1	0.0	n/a	2	29	ISIslide	Loss	True
290.916	0.25	Win2	0.6129	0.0	No	2.784	0.016	n/a	NoResponse	0	n/a	n/a	2	30	Cue	MissedWin	True
291.166	3.9	Win2	0.6129	0.001	No	2.784	0.0	n/a	NoResponse	0	n/a	n/a	2	30	Fixation	MissedWin	True
295.061	0.16	Win2	0.6129	0.005	No	2.784	-0.005	4.0	NoResponse	0	0.205	294.266	2	30	Target	MissedWin	True
295.229	0.54	Win2	0.6129	n/a	No	2.784	n/a	n/a	NoResponse	0	n/a	n/a	2	30	Blank	MissedWin	True
295.266	0.3	Win2	0.6129	0.005	No	2.784	-0.005	4.0	NoResponse	0	0.205	n/a	2	30	ButtonPress	MissedWin	True
295.764	1.45	Win2	0.6129	n/a	No	2.784	n/a	5.0	NoResponse	0	0.016	294.78	2	30	Feedback	MissedWin	True
297.218	2.784	Win2	0.6129	n/a	No	2.784	n/a	n/a	NoResponse	0	0.0	n/a	2	30	ISIslide	MissedWin	True
300.026	0.25	Lose2	0.5938	0.001	No	2.824	0.026	n/a	NoResponse	-1	n/a	n/a	1	31	Cue	Loss	True
300.277	4.05	Lose2	0.5938	0.0	No	2.824	0.001	n/a	NoResponse	-1	n/a	n/a	1	31	Fixation	Loss	True
304.323	0.17	Lose2	0.5938	0.003	No	2.824	-0.003	2.0	NoResponse	-1	0.206	303.529	1	31	Target	Loss	True
304.506	0.53	Lose2	0.5938	n/a	No	2.824	n/a	n/a	NoResponse	-1	n/a	n/a	1	31	Blank	Loss	True
304.529	0.3	Lose2	0.5938	0.003	No	2.824	-0.003	2.0	NoResponse	-1	0.206	n/a	1	31	ButtonPress	Loss	True
305.025	1.45	Lose2	0.5938	n/a	No	2.824	n/a	5.0	NoResponse	-1	0.023	304.048	1	31	Feedback	Loss	True
306.479	2.824	Lose2	0.5938	n/a	No	2.824	n/a	n/a	NoResponse	-1	0.0	n/a	1	31	ISIslide	Loss	True
309.321	0.25	Lose2	0.5758	0.0	No	2.629	0.021	n/a	NoResponse	-1	n/a	n/a	0	32	Cue	Loss	True
309.572	4.15	Lose2	0.5758	0.0	No	2.629	0.001	n/a	NoResponse	-1	n/a	n/a	0	32	Fixation	Loss	True
313.717	0.18	Lose2	0.5758	0.004	No	2.629	-0.004	4.0	NoResponse	-1	0.228	312.945	0	32	Target	Loss	True
313.901	0.52	Lose2	0.5758	n/a	No	2.629	n/a	n/a	NoResponse	-1	n/a	n/a	0	32	Blank	Loss	True
313.945	0.3	Lose2	0.5758	0.004	No	2.629	-0.004	4.0	NoResponse	-1	0.228	n/a	0	32	ButtonPress	Loss	True
314.42	1.45	Lose2	0.5758	n/a	No	2.629	n/a	5.0	NoResponse	-1	0.043	313.463	0	32	Feedback	Loss	True
315.874	2.629	Lose2	0.5758	n/a	No	2.629	n/a	n/a	NoResponse	-1	0.0	n/a	0	32	ISIslide	Loss	True
318.515	0.25	Win2	0.5588000000000001	0.0	No	2.685	0.015	n/a	LatePress	0	n/a	n/a	0	33	Cue	MissedWin	True
318.766	4.0	Win2	0.5588000000000001	0.0	No	2.685	0.001	n/a	LatePress	0	n/a	n/a	0	33	Fixation	MissedWin	True
322.761	0.19	Win2	0.5588000000000001	0.004	No	2.685	-0.004	4.0	LatePress	0	0.197	321.958	0	33	Target	MissedWin	True
322.958	0.3	Win2	0.5588000000000001	0.004	No	2.685	-0.004	4.0	LatePress	0	0.197	n/a	0	33	ButtonPress	MissedWin	True
322.962	0.51	Win2	0.5588000000000001	n/a	No	2.685	n/a	n/a	LatePress	0	n/a	n/a	0	33	Blank	MissedWin	True
323.463	1.45	Win2	0.5588000000000001	n/a	No	2.685	n/a	5.0	LatePress	0	0.024	322.487	0	33	Feedback	MissedWin	True
324.918	2.685	Win2	0.5588000000000001	n/a	No	2.685	n/a	n/a	LatePress	0	0.0	n/a	0	33	ISIslide	MissedWin	True
327.626	0.25	Lose2	0.5714	0.0	Yes	2.624	0.026	n/a	GoodResponse	0	n/a	n/a	0	34	Cue	AvoidedLoss	False
327.877	4.05	Lose2	0.5714	0.0	Yes	2.624	0.001	4.0	GoodResponse	0	2.139	329.016	0	34	Fixation	AvoidedLoss	False
330.016	0.3	Lose2	0.5714	0.0	Yes	2.624	0.001	4.0	GoodResponse	0	2.139	n/a	0	34	ButtonPress	AvoidedLoss	False
331.922	0.2	Lose2	0.5714	0.004	Yes	2.624	-0.004	4.0	GoodResponse	0	0.184	331.106	0	34	Target	AvoidedLoss	False
332.106	0.3	Lose2	0.5714	0.004	Yes	2.624	-0.004	4.0	GoodResponse	0	0.184	n/a	0	34	ButtonPress	AvoidedLoss	False
332.123	0.5	Lose2	0.5714	n/a	Yes	2.624	n/a	n/a	GoodResponse	0	n/a	n/a	0	34	Blank	AvoidedLoss	False
332.624	1.45	Lose2	0.5714	n/a	Yes	2.624	n/a	5.0	GoodResponse	0	0.034	331.658	0	34	Feedback	AvoidedLoss	False
334.079	2.624	Lose2	0.5714	n/a	Yes	2.624	n/a	n/a	GoodResponse	0	0.0	n/a	0	34	ISIslide	AvoidedLoss	False
336.72	0.25	Lose2	0.5556	0.0	No	2.68	0.02	n/a	NoResponse	-1	n/a	n/a	-1	35	Cue	Loss	True
336.971	4.0	Lose2	0.5556	0.0	No	2.68	0.001	n/a	NoResponse	-1	n/a	n/a	-1	35	Fixation	Loss	True
340.966	0.21	Lose2	0.5556	0.004	No	2.68	-0.004	4.0	NoResponse	-1	0.254	340.22	-1	35	Target	Loss	True
341.183	0.49	Lose2	0.5556	n/a	No	2.68	n/a	n/a	NoResponse	-1	n/a	n/a	-1	35	Blank	Loss	True
341.22	0.3	Lose2	0.5556	0.004	No	2.68	-0.004	4.0	NoResponse	-1	0.254	n/a	-1	35	ButtonPress	Loss	True
341.668	1.45	Lose2	0.5556	n/a	No	2.68	n/a	5.0	NoResponse	-1	0.015	340.683	-1	35	Feedback	Loss	True
343.122	2.68	Lose2	0.5556	n/a	No	2.68	n/a	n/a	NoResponse	-1	0.0	n/a	-1	35	ISIslide	Loss	True
345.83	0.25	Control	0.5676	0.001	Yes	2.67	0.03	n/a	GoodResponse	0	n/a	n/a	-1	36	Cue	Neutral	True
346.081	4.0	Control	0.5676	0.0	Yes	2.67	0.001	n/a	GoodResponse	0	n/a	n/a	-1	36	Fixation	Neutral	True
350.077	0.22	Control	0.5676	0.003	Yes	2.67	-0.003	4.0	GoodResponse	0	0.201	349.278	-1	36	Target	Neutral	True
350.278	0.3	Control	0.5676	0.003	Yes	2.67	-0.003	4.0	GoodResponse	0	0.201	n/a	-1	36	ButtonPress	Neutral	True
350.311	0.48	Control	0.5676	n/a	Yes	2.67	n/a	n/a	GoodResponse	0	n/a	n/a	-1	36	Blank	Neutral	True
350.779	1.45	Control	0.5676	n/a	Yes	2.67	n/a	5.0	GoodResponse	0	0.026	349.805	-1	36	Feedback	Neutral	True
352.233	2.67	Control	0.5676	n/a	Yes	2.67	n/a	n/a	GoodResponse	0	0.0	n/a	-1	36	ISIslide	Neutral	True
354.924	0.25	Win2	0.5789	0.0	Yes	2.876	0.024	n/a	GoodResponse	1	n/a	n/a	0	37	Cue	Win	False
355.175	4.0	Win2	0.5789	0.0	Yes	2.876	0.001	4.0	GoodResponse	1	0.011	354.186	0	37	Fixation	Win	False
355.186	0.3	Win2	0.5789	0.0	Yes	2.876	0.001	4.0	GoodResponse	1	0.011	n/a	0	37	ButtonPress	Win	False
359.17	0.23	Win2	0.5789	0.004	Yes	2.876	-0.004	4.0	GoodResponse	1	0.196	358.366	0	37	Target	Win	False
359.366	0.3	Win2	0.5789	0.004	Yes	2.876	-0.004	4.0	GoodResponse	1	0.196	n/a	0	37	ButtonPress	Win	False
359.404	0.47	Win2	0.5789	n/a	Yes	2.876	n/a	n/a	GoodResponse	1	n/a	n/a	0	37	Blank	Win	False
359.873	1.45	Win2	0.5789	n/a	Yes	2.876	n/a	5.0	GoodResponse	1	0.007	358.88	0	37	Feedback	Win	False
361.327	2.876	Win2	0.5789	n/a	Yes	2.876	n/a	n/a	GoodResponse	1	0.0	n/a	0	37	ISIslide	Win	False
364.219	0.25	Lose2	0.5897	0.0	Yes	2.831	0.019	n/a	GoodResponse	0	n/a	n/a	0	38	Cue	AvoidedLoss	True
364.47	3.95	Lose2	0.5897	0.0	Yes	2.831	0.001	n/a	GoodResponse	0	n/a	n/a	0	38	Fixation	AvoidedLoss	True
368.415	0.24	Lose2	0.5897	0.004	Yes	2.831	-0.004	4.0	GoodResponse	0	0.187	367.602	0	38	Target	AvoidedLoss	True
368.602	0.3	Lose2	0.5897	0.004	Yes	2.831	-0.004	4.0	GoodResponse	0	0.187	n/a	0	38	ButtonPress	AvoidedLoss	True
368.666	0.46	Lose2	0.5897	n/a	Yes	2.831	n/a	n/a	GoodResponse	0	n/a	n/a	0	38	Blank	AvoidedLoss	True
369.117	1.45	Lose2	0.5897	n/a	Yes	2.831	n/a	5.0	GoodResponse	0	0.028	368.145	0	38	Feedback	AvoidedLoss	True
370.571	2.831	Lose2	0.5897	n/a	Yes	2.831	n/a	n/a	GoodResponse	0	0.0	n/a	0	38	ISIslide	AvoidedLoss	True
373.43	0.25	Win2	0.575	0.0	No	2.97	0.03	n/a	NoResponse	0	n/a	n/a	0	39	Cue	MissedWin	True
373.681	4.1	Win2	0.575	0.0	No	2.97	0.001	n/a	NoResponse	0	n/a	n/a	0	39	Fixation	MissedWin	True
377.776	0.25	Win2	0.575	0.004	No	2.97	-0.004	4.0	NoResponse	0	0.261	377.037	0	39	Target	MissedWin	True
378.027	0.45	Win2	0.575	n/a	No	2.97	n/a	n/a	NoResponse	0	n/a	n/a	0	39	Blank	MissedWin	True
378.037	0.3	Win2	0.575	0.004	No	2.97	-0.004	4.0	NoResponse	0	0.261	n/a	0	39	ButtonPress	MissedWin	True
378.478	1.45	Win2	0.575	n/a	No	2.97	n/a	5.0	NoResponse	0	0.033	377.511	0	39	Feedback	MissedWin	True
379.933	2.97	Win2	0.575	n/a	No	2.97	n/a	n/a	NoResponse	0	0.0	n/a	0	39	ISIslide	MissedWin	True
382.925	0.25	Win2	0.5854	0.0	Yes	2.725	0.025	n/a	GoodResponse	1	n/a	n/a	1	40	Cue	Win	True
383.176	3.95	Win2	0.5854	0.0	Yes	2.725	0.001	n/a	GoodResponse	1	n/a	n/a	1	40	Fixation	Win	True
387.121	0.26	Win2	0.5854	0.004	Yes	2.725	-0.004	4.0	GoodResponse	1	0.203	386.324	1	40	Target	Win	True
387.324	0.3	Win2	0.5854	0.004	Yes	2.725	-0.004	4.0	GoodResponse	1	0.203	n/a	1	40	ButtonPress	Win	True
387.388	0.44	Win2	0.5854	n/a	Yes	2.725	n/a	n/a	GoodResponse	1	n/a	n/a	1	40	Blank	Win	True
387.823	1.45	Win2	0.5854	n/a	Yes	2.725	n/a	5.0	GoodResponse	1	0.007	386.83	1	40	Feedback	Win	True
389.277	2.725	Win2	0.5854	n/a	Yes	2.725	n/a	n/a	GoodResponse	1	0.0	n/a	1	40	ISIslide	Win	True
392.019	0.25	Win2	0.5952000000000001	0.0	Yes	2.781	0.019	n/a	GoodResponse	1	n/a	n/a	2	41	Cue	Win	True
392.27	3.9	Win2	0.5952000000000001	0.0	Yes	2.781	0.001	n/a	GoodResponse	1	n/a	n/a	2	41	Fixation	Win	True
396.165	0.27	Win2	0.5952000000000001	0.004	Yes	2.781	-0.004	4.0	GoodResponse	1	0.202	395.367	2	41	Target	Win	True
396.367	0.3	Win2	0.5952000000000001	0.004	Yes	2.781	-0.004	4.0	GoodResponse	1	0.202	n/a	2	41	ButtonPress	Win	True
396.449	0.43	Win2	0.5952000000000001	n/a	Yes	2.781	n/a	n/a	GoodResponse	1	n/a	n/a	2	41	Blank	Win	True
396.867	1.45	Win2	0.5952000000000001	n/a	Yes	2.781	n/a	5.0	GoodResponse	1	0.035	395.902	2	41	Feedback	Win	True
398.321	2.781	Win2	0.5952000000000001	n/a	Yes	2.781	n/a	n/a	GoodResponse	1	0.0	n/a	2	41	ISIslide	Win	True
401.13	0.25	Control	0.5814	0.0	No	2.92	0.03	n/a	NoResponse	0	n/a	n/a	2	42	Cue	Neutral	True
401.38	3.85	Control	0.5814	0.0	No	2.92	0.0	n/a	NoResponse	0	n/a	n/a	2	42	Fixation	Neutral	True
405.242	0.28	Control	0.5814	0.0	No	2.92	0.012	4.0	NoResponse	0	0.289	404.531	2	42	Target	Neutral	True
405.509	0.42	Control	0.5814	n/a	No	2.92	n/a	n/a	NoResponse	0	n/a	n/a	2	42	Blank	Neutral	True
405.531	0.3	Control	0.5814	0.0	No	2.92	0.012	4.0	NoResponse	0	0.289	n/a	2	42	ButtonPress	Neutral	True
405.927	1.45	Control	0.5814	n/a	No	2.92	n/a	5.0	NoResponse	0	0.048	404.975	2	42	Feedback	Neutral	True
407.382	2.92	Control	0.5814	n/a	No	2.92	n/a	n/a	NoResponse	0	0.0	n/a	2	42	ISIslide	Neutral	True
410.324	0.25	Win2	0.5909	0.0	Yes	3.176	0.024	n/a	GoodResponse	1	n/a	n/a	3	43	Cue	Win	False
410.575	4.0	Win2	0.5909	0.0	Yes	3.176	0.001	4.0	GoodResponse	1	3.93	413.505	3	43	Fixation	Win	False
414.505	0.3	Win2	0.5909	0.0	Yes	3.176	0.001	4.0	GoodResponse	1	3.93	n/a	3	43	ButtonPress	Win	False
414.57	0.29	Win2	0.5909	0.004	Yes	3.176	-0.004	4.0	GoodResponse	1	0.248	413.818	3	43	Target	Win	False
414.818	0.3	Win2	0.5909	0.004	Yes	3.176	-0.004	4.0	GoodResponse	1	0.248	n/a	3	43	ButtonPress	Win	False
414.871	0.41	Win2	0.5909	n/a	Yes	3.176	n/a	n/a	GoodResponse	1	n/a	n/a	3	43	Blank	Win	False
415.272	1.45	Win2	0.5909	n/a	Yes	3.176	n/a	5.0	GoodResponse	1	0.02	414.292	3	43	Feedback	Win	False
416.726	3.176	Win2	0.5909	n/a	Yes	3.176	n/a	n/a	GoodResponse	1	0.0	n/a	3	43	ISIslide	Win	False
419.919	0.25	Win2	0.6	0.0	Yes	2.981	0.019	n/a	GoodResponse	1	n/a	n/a	4	44	Cue	Win	True
420.17	4.0	Win2	0.6	0.0	Yes	2.981	0.001	n/a	GoodResponse	1	n/a	n/a	4	44	Fixation	Win	True
424.165	0.3	Win2	0.6	0.004	Yes	2.981	-0.004	4.0	GoodResponse	1	0.287	423.452	4	44	Target	Win	True
424.452	0.3	Win2	0.6	0.004	Yes	2.981	-0.004	4.0	GoodResponse	1	0.287	n/a	4	44	ButtonPress	Win	True
424.466	0.4	Win2	0.6	n/a	Yes	2.981	n/a	n/a	GoodResponse	1	n/a	n/a	4	44	Blank	Win	True
424.868	1.45	Win2	0.6	n/a	Yes	2.981	n/a	5.0	GoodResponse	1	0.034	423.902	4	44	Feedback	Win	True
426.322	2.981	Win2	0.6	n/a	Yes	2.981	n/a	n/a	GoodResponse	1	0.0	n/a	4	44	ISIslide	Win	True
429.331	0.25	Control	0.5870000000000001	0.0	No	2.869	0.031	n/a	NoResponse	0	n/a	n/a	4	45	Cue	Neutral	True
429.582	4.1	Control	0.5870000000000001	0.0	No	2.869	0.001	n/a	NoResponse	0	n/a	n/a	4	45	Fixation	Neutral	True
433.677	0.31	Control	0.5870000000000001	0.004	No	2.869	-0.004	4.0	NoResponse	0	0.37	433.047	4	45	Target	Neutral	True
433.995	0.39	Control	0.5870000000000001	n/a	No	2.869	n/a	n/a	NoResponse	0	n/a	n/a	4	45	Blank	Neutral	True
434.047	0.3	Control	0.5870000000000001	0.004	No	2.869	-0.004	4.0	NoResponse	0	0.37	n/a	4	45	ButtonPress	Neutral	True
434.379	1.45	Control	0.5870000000000001	n/a	No	2.869	n/a	5.0	NoResponse	0	0.034	433.413	4	45	Feedback	Neutral	True
435.834	2.869	Control	0.5870000000000001	n/a	No	2.869	n/a	n/a	NoResponse	0	0.0	n/a	4	45	ISIslide	Neutral	True
438.726	0.25	Lose2	0.5957	0.0	Yes	3.374	0.026	n/a	GoodResponse	0	n/a	n/a	4	46	Cue	AvoidedLoss	True
438.977	4.0	Lose2	0.5957	0.0	Yes	3.374	0.001	n/a	GoodResponse	0	n/a	n/a	4	46	Fixation	AvoidedLoss	True
442.972	0.32	Lose2	0.5957	0.004	Yes	3.374	-0.004	4.0	GoodResponse	0	0.216	442.188	4	46	Target	AvoidedLoss	True
443.188	0.3	Lose2	0.5957	0.004	Yes	3.374	-0.004	4.0	GoodResponse	0	0.216	n/a	4	46	ButtonPress	AvoidedLoss	True
443.306	0.38	Lose2	0.5957	n/a	Yes	3.374	n/a	n/a	GoodResponse	0	n/a	n/a	4	46	Blank	AvoidedLoss	True
443.674	1.45	Lose2	0.5957	n/a	Yes	3.374	n/a	5.0	GoodResponse	0	0.008	442.682	4	46	Feedback	AvoidedLoss	True
445.128	3.374	Lose2	0.5957	n/a	Yes	3.374	n/a	n/a	GoodResponse	0	0.0	n/a	4	46	ISIslide	AvoidedLoss	True
448.522	0.25	Lose2	0.6042000000000001	0.0	Yes	2.678	0.022	n/a	GoodResponse	0	n/a	n/a	4	47	Cue	AvoidedLoss	True
448.773	4.0	Lose2	0.6042000000000001	0.0	Yes	2.678	0.001	n/a	GoodResponse	0	n/a	n/a	4	47	Fixation	AvoidedLoss	True
452.768	0.33	Lose2	0.6042000000000001	0.004	Yes	2.678	-0.004	4.0	GoodResponse	0	0.194	451.962	4	47	Target	AvoidedLoss	True
452.962	0.3	Lose2	0.6042000000000001	0.004	Yes	2.678	-0.004	4.0	GoodResponse	0	0.194	n/a	4	47	ButtonPress	AvoidedLoss	True
453.102	0.37	Lose2	0.6042000000000001	n/a	Yes	2.678	n/a	n/a	GoodResponse	0	n/a	n/a	4	47	Blank	AvoidedLoss	True
453.47	1.45	Lose2	0.6042000000000001	n/a	Yes	2.678	n/a	5.0	GoodResponse	0	0.017	452.487	4	47	Feedback	AvoidedLoss	True
454.924	2.678	Lose2	0.6042000000000001	n/a	Yes	2.678	n/a	n/a	GoodResponse	0	0.0	n/a	4	47	ISIslide	AvoidedLoss	True
457.616	0.25	Lose2	0.6122	0.0	Yes	3.034	0.016	n/a	GoodResponse	0	n/a	n/a	4	48	Cue	AvoidedLoss	True
457.867	3.95	Lose2	0.6122	0.0	Yes	3.034	0.001	n/a	GoodResponse	0	n/a	n/a	4	48	Fixation	AvoidedLoss	True
461.812	0.34	Lose2	0.6122	0.004	Yes	3.034	-0.004	4.0	GoodResponse	0	0.233	461.045	4	48	Target	AvoidedLoss	True
462.045	0.3	Lose2	0.6122	0.004	Yes	3.034	-0.004	4.0	GoodResponse	0	0.233	n/a	4	48	ButtonPress	AvoidedLoss	True
462.163	0.36	Lose2	0.6122	n/a	Yes	3.034	n/a	n/a	GoodResponse	0	n/a	n/a	4	48	Blank	AvoidedLoss	True
462.514	1.45	Lose2	0.6122	n/a	Yes	3.034	n/a	5.0	GoodResponse	0	0.046	461.56	4	48	Feedback	AvoidedLoss	True
463.968	3.034	Lose2	0.6122	n/a	Yes	3.034	n/a	n/a	GoodResponse	0	0.0	n/a	4	48	ISIslide	AvoidedLoss	True
467.027	0.25	Control	0.6	0.0	No	2.873	0.027	n/a	NoResponse	0	n/a	n/a	4	49	Cue	Neutral	False
467.278	4.0	Control	0.6	0.0	No	2.873	0.001	n/a	NoResponse	0	n/a	n/a	4	49	Fixation	Neutral	False
471.273	0.35	Control	0.6	0.004	No	2.873	-0.004	n/a	NoResponse	0	n/a	n/a	4	49	Target	Neutral	False
471.624	0.35	Control	0.6	n/a	No	2.873	n/a	n/a	NoResponse	0	n/a	n/a	4	49	Blank	Neutral	False
471.976	1.45	Control	0.6	n/a	No	2.873	n/a	5.0	NoResponse	0	0.047	471.023	4	49	Feedback	Neutral	False
473.43	2.873	Control	0.6	n/a	No	2.873	n/a	n/a	NoResponse	0	0.0	n/a	4	49	ISIslide	Neutral	False
476.322	0.25	Control	0.6078	0.0	Yes	2.778	0.022	n/a	GoodResponse	0	n/a	n/a	4	50	Cue	Neutral	True
476.573	4.0	Control	0.6078	0.0	Yes	2.778	0.001	n/a	GoodResponse	0	n/a	n/a	4	50	Fixation	Neutral	True
480.568	0.36	Control	0.6078	0.004	Yes	2.778	-0.004	4.0	GoodResponse	0	0.21	479.778	4	50	Target	Neutral	True
480.778	0.3	Control	0.6078	0.004	Yes	2.778	-0.004	4.0	GoodResponse	0	0.21	n/a	4	50	ButtonPress	Neutral	True
480.936	0.34	Control	0.6078	n/a	Yes	2.778	n/a	n/a	GoodResponse	0	n/a	n/a	4	50	Blank	Neutral	True
481.27	1.45	Control	0.6078	n/a	Yes	2.778	n/a	5.0	GoodResponse	0	0.022	480.292	4	50	Feedback	Neutral	True
482.724	2.778	Control	0.6078	n/a	Yes	2.778	n/a	n/a	GoodResponse	0	0.0	n/a	4	50	ISIslide	Neutral	True
485.516	0.25	Control	0.5962	0.0	No	2.734	0.016	n/a	NoResponse	0	n/a	n/a	4	51	Cue	Neutral	False
485.767	3.95	Control	0.5962	0.0	No	2.734	0.001	n/a	NoResponse	0	n/a	n/a	4	51	Fixation	Neutral	False
489.712	0.37	Control	0.5962	0.004	No	2.734	-0.004	n/a	NoResponse	0	n/a	n/a	4	51	Target	Neutral	False
490.097	0.33	Control	0.5962	n/a	No	2.734	n/a	n/a	NoResponse	0	n/a	n/a	4	51	Blank	Neutral	False
490.414	1.45	Control	0.5962	n/a	No	2.734	n/a	5.0	NoResponse	0	0.049	489.463	4	51	Feedback	Neutral	False
491.869	2.734	Control	0.5962	n/a	No	2.734	n/a	n/a	NoResponse	0	0.0	n/a	4	51	ISIslide	Neutral	False
494.627	0.25	Control	0.6038	0.0	Yes	2.623	0.027	n/a	GoodResponse	0	n/a	n/a	4	52	Cue	Neutral	True
494.878	4.05	Control	0.6038	0.0	Yes	2.623	0.001	n/a	GoodResponse	0	n/a	n/a	4	52	Fixation	Neutral	True
498.923	0.38	Control	0.6038	0.004	Yes	2.623	-0.004	4.0	GoodResponse	0	0.215	498.138	4	52	Target	Neutral	True
499.138	0.3	Control	0.6038	0.004	Yes	2.623	-0.004	4.0	GoodResponse	0	0.215	n/a	4	52	ButtonPress	Neutral	True
499.308	0.32	Control	0.6038	n/a	Yes	2.623	n/a	n/a	GoodResponse	0	n/a	n/a	4	52	Blank	Neutral	True
499.625	1.45	Control	0.6038	n/a	Yes	2.623	n/a	5.0	GoodResponse	0	0.009	498.634	4	52	Feedback	Neutral	True
501.079	2.623	Control	0.6038	n/a	Yes	2.623	n/a	n/a	GoodResponse	0	0.0	n/a	4	52	ISIslide	Neutral	True
503.721	0.25	Win2	0.6111	0.0	Yes	2.929	0.021	n/a	GoodResponse	1	n/a	n/a	5	53	Cue	Win	True
503.971	4.05	Win2	0.6111	0.001	Yes	2.929	0.0	n/a	GoodResponse	1	n/a	n/a	5	53	Fixation	Win	True
508.017	0.39	Win2	0.6111	0.004	Yes	2.929	-0.004	4.0	GoodResponse	1	0.194	507.211	5	53	Target	Win	True
508.211	0.3	Win2	0.6111	0.004	Yes	2.929	-0.004	4.0	GoodResponse	1	0.194	n/a	5	53	ButtonPress	Win	True
508.418	0.31	Win2	0.6111	n/a	Yes	2.929	n/a	n/a	GoodResponse	1	n/a	n/a	5	53	Blank	Win	True
508.719	1.45	Win2	0.6111	n/a	Yes	2.929	n/a	5.0	GoodResponse	1	0.036	507.755	5	53	Feedback	Win	True
510.173	2.929	Win2	0.6111	n/a	Yes	2.929	n/a	n/a	GoodResponse	1	0.0	n/a	5	53	ISIslide	Win	True
513.116	0.25	Win2	0.6182	0.0	Yes	2.734	0.016	n/a	GoodResponse	1	n/a	n/a	6	54	Cue	Win	True
513.366	3.95	Win2	0.6182	0.0	Yes	2.734	0.0	n/a	GoodResponse	1	n/a	n/a	6	54	Fixation	Win	True
517.328	0.4	Win2	0.6182	0.0	Yes	2.734	0.012	4.0	GoodResponse	1	0.205	516.533	6	54	Target	Win	True
517.533	0.3	Win2	0.6182	0.0	Yes	2.734	0.012	4.0	GoodResponse	1	0.205	n/a	6	54	ButtonPress	Win	True
517.713	0.3	Win2	0.6182	n/a	Yes	2.734	n/a	n/a	GoodResponse	1	n/a	n/a	6	54	Blank	Win	True
518.014	1.45	Win2	0.6182	n/a	Yes	2.734	n/a	5.0	GoodResponse	1	0.009	517.023	6	54	Feedback	Win	True
519.468	2.734	Win2	0.6182	n/a	Yes	2.734	n/a	n/a	GoodResponse	1	0.0	n/a	6	54	ISIslide	Win	True
522.226	0.25	Control	0.625	0.0	Yes	3.024	0.026	n/a	GoodResponse	0	n/a	n/a	6	55	Cue	Neutral	True
522.477	3.95	Control	0.625	0.0	Yes	3.024	0.001	n/a	GoodResponse	0	n/a	n/a	6	55	Fixation	Neutral	True
526.422	0.41	Control	0.625	0.004	Yes	3.024	-0.004	4.0	GoodResponse	0	0.201	525.623	6	55	Target	Neutral	True
526.623	0.3	Control	0.625	0.004	Yes	3.024	-0.004	4.0	GoodResponse	0	0.201	n/a	6	55	ButtonPress	Neutral	True
526.84	0.29	Control	0.625	n/a	Yes	3.024	n/a	n/a	GoodResponse	0	n/a	n/a	6	55	Blank	Neutral	True
527.124	1.45	Control	0.625	n/a	Yes	3.024	n/a	5.0	GoodResponse	0	0.021	526.145	6	55	Feedback	Neutral	True
528.579	3.024	Control	0.625	n/a	Yes	3.024	n/a	n/a	GoodResponse	0	0.0	n/a	6	55	ISIslide	Neutral	True
531.621	0.25	Control	0.6315999999999999	0.0	Yes	2.829	0.021	n/a	GoodResponse	0	n/a	n/a	6	56	Cue	Neutral	True
531.872	3.95	Control	0.6315999999999999	0.0	Yes	2.829	0.001	n/a	GoodResponse	0	n/a	n/a	6	56	Fixation	Neutral	True
535.817	0.42	Control	0.6315999999999999	0.004	Yes	2.829	-0.004	4.0	GoodResponse	0	0.309	535.126	6	56	Target	Neutral	True
536.126	0.3	Control	0.6315999999999999	0.004	Yes	2.829	-0.004	4.0	GoodResponse	0	0.309	n/a	6	56	ButtonPress	Neutral	True
536.252	0.28	Control	0.6315999999999999	n/a	Yes	2.829	n/a	n/a	GoodResponse	0	n/a	n/a	6	56	Blank	Neutral	True
536.519	1.45	Control	0.6315999999999999	n/a	Yes	2.829	n/a	5.0	GoodResponse	0	0.041	535.56	6	56	Feedback	Neutral	True
537.974	2.829	Control	0.6315999999999999	n/a	Yes	2.829	n/a	n/a	GoodResponse	0	0.0	n/a	6	56	ISIslide	Neutral	True
540.815	0.25	Control	0.6379	0.0	Yes	3.485	0.015	n/a	GoodResponse	0	n/a	n/a	6	57	Cue	Neutral	True
541.066	4.0	Control	0.6379	0.0	Yes	3.485	0.001	n/a	GoodResponse	0	n/a	n/a	6	57	Fixation	Neutral	True
545.061	0.43	Control	0.6379	0.004	Yes	3.485	-0.004	4.0	GoodResponse	0	0.344	544.405	6	57	Target	Neutral	True
545.405	0.3	Control	0.6379	0.004	Yes	3.485	-0.004	4.0	GoodResponse	0	0.344	n/a	6	57	ButtonPress	Neutral	True
545.496	0.27	Control	0.6379	n/a	Yes	3.485	n/a	n/a	GoodResponse	0	n/a	n/a	6	57	Blank	Neutral	True
545.764	1.45	Control	0.6379	n/a	Yes	3.485	n/a	5.0	GoodResponse	0	0.015	544.779	6	57	Feedback	Neutral	True
547.218	3.485	Control	0.6379	n/a	Yes	3.485	n/a	n/a	GoodResponse	0	0.0	n/a	6	57	ISIslide	Neutral	True
550.728	0.25	Win2	0.6441	0.001	Yes	2.722	0.028	n/a	GoodResponse	1	n/a	n/a	7	58	Cue	Win	True
550.979	4.05	Win2	0.6441	0.0	Yes	2.722	0.001	n/a	GoodResponse	1	n/a	n/a	7	58	Fixation	Win	True
555.025	0.44	Win2	0.6441	0.003	Yes	2.722	-0.003	4.0	GoodResponse	1	0.212	554.237	7	58	Target	Win	True
555.237	0.3	Win2	0.6441	0.003	Yes	2.722	-0.003	4.0	GoodResponse	1	0.212	n/a	7	58	ButtonPress	Win	True
555.476	0.26	Win2	0.6441	n/a	Yes	2.722	n/a	n/a	GoodResponse	1	n/a	n/a	7	58	Blank	Win	True
555.727	1.45	Win2	0.6441	n/a	Yes	2.722	n/a	5.0	GoodResponse	1	0.007	554.734	7	58	Feedback	Win	True
557.181	2.722	Win2	0.6441	n/a	Yes	2.722	n/a	n/a	GoodResponse	1	0.0	n/a	7	58	ISIslide	Win	True
559.923	0.25	Lose2	0.65	0.0	Yes	2.677	0.023	n/a	GoodResponse	0	n/a	n/a	7	59	Cue	AvoidedLoss	True
560.173	4.0	Lose2	0.65	0.001	Yes	2.677	0.0	n/a	GoodResponse	0	n/a	n/a	7	59	Fixation	AvoidedLoss	True
564.169	0.45	Lose2	0.65	0.004	Yes	2.677	-0.004	4.0	GoodResponse	0	0.201	563.37	7	59	Target	AvoidedLoss	True
564.37	0.3	Lose2	0.65	0.004	Yes	2.677	-0.004	4.0	GoodResponse	0	0.201	n/a	7	59	ButtonPress	AvoidedLoss	True
564.62	0.25	Lose2	0.65	n/a	Yes	2.677	n/a	n/a	GoodResponse	0	n/a	n/a	7	59	Blank	AvoidedLoss	True
564.871	1.45	Lose2	0.65	n/a	Yes	2.677	n/a	5.0	GoodResponse	0	0.031	563.902	7	59	Feedback	AvoidedLoss	True
566.325	2.677	Lose2	0.65	n/a	Yes	2.677	n/a	n/a	GoodResponse	0	0.0	n/a	7	59	ISIslide	AvoidedLoss	True
569.017	0.25	Control	0.6557	0.0	Yes	2.683	0.017	n/a	GoodResponse	0	n/a	n/a	7	60	Cue	Neutral	True
569.267	4.0	Control	0.6557	0.0	Yes	2.683	0.0	n/a	GoodResponse	0	n/a	n/a	7	60	Fixation	Neutral	True
573.263	0.46	Control	0.6557	0.004	Yes	2.683	-0.004	4.0	GoodResponse	0	0.24	572.503	7	60	Target	Neutral	True
573.503	0.3	Control	0.6557	0.004	Yes	2.683	-0.004	4.0	GoodResponse	0	0.24	n/a	7	60	ButtonPress	Neutral	True
573.731	0.24	Control	0.6557	n/a	Yes	2.683	n/a	n/a	GoodResponse	0	n/a	n/a	7	60	Blank	Neutral	True
573.965	1.45	Control	0.6557	n/a	Yes	2.683	n/a	5.0	GoodResponse	0	0.01	572.975	7	60	Feedback	Neutral	True
575.419	2.683	Control	0.6557	n/a	Yes	2.683	n/a	n/a	GoodResponse	0	0.0	n/a	7	60	ISIslide	Neutral	True
578.127	0.25	Lose2	0.6613	0.0	Yes	2.973	0.027	n/a	GoodResponse	0	n/a	n/a	7	61	Cue	AvoidedLoss	True
578.378	4.0	Lose2	0.6613	0.0	Yes	2.973	0.001	n/a	GoodResponse	0	n/a	n/a	7	61	Fixation	AvoidedLoss	True
582.373	0.46	Lose2	0.6613	0.004	Yes	2.973	-0.004	4.0	GoodResponse	0	0.242	581.615	7	61	Target	AvoidedLoss	True
582.615	0.3	Lose2	0.6613	0.004	Yes	2.973	-0.004	4.0	GoodResponse	0	0.242	n/a	7	61	ButtonPress	AvoidedLoss	True
582.841	0.24	Lose2	0.6613	n/a	Yes	2.973	n/a	n/a	GoodResponse	0	n/a	n/a	7	61	Blank	AvoidedLoss	True
583.075	1.45	Lose2	0.6613	n/a	Yes	2.973	n/a	5.0	GoodResponse	0	0.022	582.097	7	61	Feedback	AvoidedLoss	True
584.53	2.973	Lose2	0.6613	n/a	Yes	2.973	n/a	n/a	GoodResponse	0	0.0	n/a	7	61	ISIslide	AvoidedLoss	True
587.522	0.25	Lose2	0.6667000000000001	0.0	Yes	2.878	0.022	n/a	GoodResponse	0	n/a	n/a	7	62	Cue	AvoidedLoss	True
587.773	3.9	Lose2	0.6667000000000001	0.0	Yes	2.878	0.001	n/a	GoodResponse	0	n/a	n/a	7	62	Fixation	AvoidedLoss	True
591.668	0.46	Lose2	0.6667000000000001	0.004	Yes	2.878	-0.004	4.0	GoodResponse	0	0.293	590.961	7	62	Target	AvoidedLoss	True
591.961	0.3	Lose2	0.6667000000000001	0.004	Yes	2.878	-0.004	4.0	GoodResponse	0	0.293	n/a	7	62	ButtonPress	AvoidedLoss	True
592.136	0.24	Lose2	0.6667000000000001	n/a	Yes	2.878	n/a	n/a	GoodResponse	0	n/a	n/a	7	62	Blank	AvoidedLoss	True
592.37	1.45	Lose2	0.6667000000000001	n/a	Yes	2.878	n/a	5.0	GoodResponse	0	0.043	591.413	7	62	Feedback	AvoidedLoss	True
593.824	2.878	Lose2	0.6667000000000001	n/a	Yes	2.878	n/a	n/a	GoodResponse	0	0.0	n/a	7	62	ISIslide	AvoidedLoss	True
596.716	0.25	Lose2	0.6718999999999999	0.0	Yes	2.634	0.016	n/a	GoodResponse	0	n/a	n/a	7	63	Cue	AvoidedLoss	True
596.967	4.05	Lose2	0.6718999999999999	0.0	Yes	2.634	0.001	n/a	GoodResponse	0	n/a	n/a	7	63	Fixation	AvoidedLoss	True
601.013	0.45	Lose2	0.6718999999999999	0.003	Yes	2.634	-0.003	4.0	GoodResponse	0	0.226	600.239	7	63	Target	AvoidedLoss	True
601.239	0.3	Lose2	0.6718999999999999	0.003	Yes	2.634	-0.003	4.0	GoodResponse	0	0.226	n/a	7	63	ButtonPress	AvoidedLoss	True
601.464	0.25	Lose2	0.6718999999999999	n/a	Yes	2.634	n/a	n/a	GoodResponse	0	n/a	n/a	7	63	Blank	AvoidedLoss	True
601.715	1.45	Lose2	0.6718999999999999	n/a	Yes	2.634	n/a	5.0	GoodResponse	0	0.015	600.73	7	63	Feedback	AvoidedLoss	True
603.169	2.634	Lose2	0.6718999999999999	n/a	Yes	2.634	n/a	n/a	GoodResponse	0	0.0	n/a	7	63	ISIslide	AvoidedLoss	True
605.827	0.25	Win2	0.6769	0.0	Yes	3.123	0.027	n/a	GoodResponse	1	n/a	n/a	8	64	Cue	Win	True
606.078	4.15	Win2	0.6769	0.0	Yes	3.123	0.001	n/a	GoodResponse	1	n/a	n/a	8	64	Fixation	Win	True
610.224	0.44	Win2	0.6769	0.003	Yes	3.123	-0.003	4.0	GoodResponse	1	0.207	609.431	8	64	Target	Win	True
610.431	0.3	Win2	0.6769	0.003	Yes	3.123	-0.003	4.0	GoodResponse	1	0.207	n/a	8	64	ButtonPress	Win	True
610.675	0.26	Win2	0.6769	n/a	Yes	3.123	n/a	n/a	GoodResponse	1	n/a	n/a	8	64	Blank	Win	True
610.926	1.45	Win2	0.6769	n/a	Yes	3.123	n/a	5.0	GoodResponse	1	0.024	609.95	8	64	Feedback	Win	True
612.38	3.123	Win2	0.6769	n/a	Yes	3.123	n/a	n/a	GoodResponse	1	0.0	n/a	8	64	ISIslide	Win	True
615.523	0.25	Control	0.6818000000000001	0.0	Yes	2.777	0.023	n/a	GoodResponse	0	n/a	n/a	8	65	Cue	Neutral	True
615.774	4.0	Control	0.6818000000000001	0.0	Yes	2.777	0.001	n/a	GoodResponse	0	n/a	n/a	8	65	Fixation	Neutral	True
619.769	0.43	Control	0.6818000000000001	0.004	Yes	2.777	-0.004	4.0	GoodResponse	0	0.237	619.006	8	65	Target	Neutral	True
620.006	0.3	Control	0.6818000000000001	0.004	Yes	2.777	-0.004	4.0	GoodResponse	0	0.237	n/a	8	65	ButtonPress	Neutral	True
620.204	0.27	Control	0.6818000000000001	n/a	Yes	2.777	n/a	n/a	GoodResponse	0	n/a	n/a	8	65	Blank	Neutral	True
620.471	1.45	Control	0.6818000000000001	n/a	Yes	2.777	n/a	5.0	GoodResponse	0	0.04	619.511	8	65	Feedback	Neutral	True
621.925	2.777	Control	0.6818000000000001	n/a	Yes	2.777	n/a	n/a	GoodResponse	0	0.0	n/a	8	65	ISIslide	Neutral	True
624.717	0.25	Win2	0.6866	0.0	Yes	2.783	0.017	n/a	GoodResponse	1	n/a	n/a	9	66	Cue	Win	True
624.968	3.9	Win2	0.6866	0.0	Yes	2.783	0.001	n/a	GoodResponse	1	n/a	n/a	9	66	Fixation	Win	True
628.863	0.42	Win2	0.6866	0.004	Yes	2.783	-0.004	4.0	GoodResponse	1	0.24	628.103	9	66	Target	Win	True
629.103	0.3	Win2	0.6866	0.004	Yes	2.783	-0.004	4.0	GoodResponse	1	0.24	n/a	9	66	ButtonPress	Win	True
629.297	0.28	Win2	0.6866	n/a	Yes	2.783	n/a	n/a	GoodResponse	1	n/a	n/a	9	66	Blank	Win	True
629.565	1.45	Win2	0.6866	n/a	Yes	2.783	n/a	5.0	GoodResponse	1	0.019	628.584	9	66	Feedback	Win	True
631.019	2.783	Win2	0.6866	n/a	Yes	2.783	n/a	n/a	GoodResponse	1	0.0	n/a	9	66	ISIslide	Win	True
633.828	0.25	Control	0.6912	0.0	Yes	2.722	0.028	n/a	GoodResponse	0	n/a	n/a	9	67	Cue	Neutral	True
634.078	3.95	Control	0.6912	0.001	Yes	2.722	0.0	n/a	GoodResponse	0	n/a	n/a	9	67	Fixation	Neutral	True
638.024	0.41	Control	0.6912	0.004	Yes	2.722	-0.004	4.0	GoodResponse	0	0.273	637.297	9	67	Target	Neutral	True
638.297	0.3	Control	0.6912	0.004	Yes	2.722	-0.004	4.0	GoodResponse	0	0.273	n/a	9	67	ButtonPress	Neutral	True
638.442	0.29	Control	0.6912	n/a	Yes	2.722	n/a	n/a	GoodResponse	0	n/a	n/a	9	67	Blank	Neutral	True
638.726	1.45	Control	0.6912	n/a	Yes	2.722	n/a	5.0	GoodResponse	0	0.029	637.755	9	67	Feedback	Neutral	True
640.18	2.722	Control	0.6912	n/a	Yes	2.722	n/a	n/a	GoodResponse	0	0.0	n/a	9	67	ISIslide	Neutral	True
642.922	0.25	Win2	0.6957	0.0	Yes	3.078	0.022	n/a	GoodResponse	1	n/a	n/a	10	68	Cue	Win	True
643.172	4.0	Win2	0.6957	0.001	Yes	3.078	0.0	n/a	GoodResponse	1	n/a	n/a	10	68	Fixation	Win	True
647.168	0.4	Win2	0.6957	0.004	Yes	3.078	-0.004	4.0	GoodResponse	1	0.357	646.525	10	68	Target	Win	True
647.525	0.3	Win2	0.6957	0.004	Yes	3.078	-0.004	4.0	GoodResponse	1	0.357	n/a	10	68	ButtonPress	Win	True
647.569	0.3	Win2	0.6957	n/a	Yes	3.078	n/a	n/a	GoodResponse	1	n/a	n/a	10	68	Blank	Win	True
647.87	1.45	Win2	0.6957	n/a	Yes	3.078	n/a	5.0	GoodResponse	1	0.008	646.878	10	68	Feedback	Win	True
649.324	3.078	Win2	0.6957	n/a	Yes	3.078	n/a	n/a	GoodResponse	1	0.0	n/a	10	68	ISIslide	Win	True
652.417	0.25	Win2	0.7	0.0	Yes	3.233	0.017	n/a	GoodResponse	1	n/a	n/a	11	69	Cue	Win	True
652.668	3.95	Win2	0.7	0.0	Yes	3.233	0.001	n/a	GoodResponse	1	n/a	n/a	11	69	Fixation	Win	True
656.613	0.39	Win2	0.7	0.004	Yes	3.233	-0.004	4.0	GoodResponse	1	0.197	655.81	11	69	Target	Win	True
656.81	0.3	Win2	0.7	0.004	Yes	3.233	-0.004	4.0	GoodResponse	1	0.197	n/a	11	69	ButtonPress	Win	True
657.014	0.31	Win2	0.7	n/a	Yes	3.233	n/a	n/a	GoodResponse	1	n/a	n/a	11	69	Blank	Win	True
657.315	1.45	Win2	0.7	n/a	Yes	3.233	n/a	5.0	GoodResponse	1	0.026	656.341	11	69	Feedback	Win	True
658.769	3.233	Win2	0.7	n/a	Yes	3.233	n/a	n/a	GoodResponse	1	0.0	n/a	11	69	ISIslide	Win	True
662.029	0.25	Lose2	0.7042	0.0	Yes	3.021	0.029	n/a	GoodResponse	0	n/a	n/a	11	70	Cue	AvoidedLoss	True
662.28	4.05	Lose2	0.7042	0.0	Yes	3.021	0.001	n/a	GoodResponse	0	n/a	n/a	11	70	Fixation	AvoidedLoss	True
666.325	0.38	Lose2	0.7042	0.004	Yes	3.021	-0.004	4.0	GoodResponse	0	0.187	665.512	11	70	Target	AvoidedLoss	True
666.512	0.3	Lose2	0.7042	0.004	Yes	3.021	-0.004	4.0	GoodResponse	0	0.187	n/a	11	70	ButtonPress	AvoidedLoss	True
666.71	0.32	Lose2	0.7042	n/a	Yes	3.021	n/a	n/a	GoodResponse	0	n/a	n/a	11	70	Blank	AvoidedLoss	True
667.027	1.45	Lose2	0.7042	n/a	Yes	3.021	n/a	5.0	GoodResponse	0	0.02	666.047	11	70	Feedback	AvoidedLoss	True
668.482	3.021	Lose2	0.7042	n/a	Yes	3.021	n/a	n/a	GoodResponse	0	0.0	n/a	11	70	ISIslide	AvoidedLoss	True
671.524	0.25	Win2	0.7082999999999999	0.0	Yes	2.726	0.024	n/a	GoodResponse	1	n/a	n/a	12	71	Cue	Win	True
671.775	4.05	Win2	0.7082999999999999	0.0	Yes	2.726	0.001	n/a	GoodResponse	1	n/a	n/a	12	71	Fixation	Win	True
675.82	0.37	Win2	0.7082999999999999	0.004	Yes	2.726	-0.004	4.0	GoodResponse	1	0.198	675.018	12	71	Target	Win	True
676.018	0.3	Win2	0.7082999999999999	0.004	Yes	2.726	-0.004	4.0	GoodResponse	1	0.198	n/a	12	71	ButtonPress	Win	True
676.205	0.33	Win2	0.7082999999999999	n/a	Yes	2.726	n/a	n/a	GoodResponse	1	n/a	n/a	12	71	Blank	Win	True
676.522	1.45	Win2	0.7082999999999999	n/a	Yes	2.726	n/a	5.0	GoodResponse	1	0.037	675.559	12	71	Feedback	Win	True
677.977	2.726	Win2	0.7082999999999999	n/a	Yes	2.726	n/a	n/a	GoodResponse	1	0.0	n/a	12	71	ISIslide	Win	True
680.718	0.25	Win2	0.7123	0.0	Yes	2.782	0.018	n/a	GoodResponse	1	n/a	n/a	13	72	Cue	Win	True
680.969	4.1	Win2	0.7123	0.0	Yes	2.782	0.001	n/a	GoodResponse	1	n/a	n/a	13	72	Fixation	Win	True
685.065	0.36	Win2	0.7123	0.003	Yes	2.782	-0.003	4.0	GoodResponse	1	0.225	684.29	13	72	Target	Win	True
685.29	0.3	Win2	0.7123	0.003	Yes	2.782	-0.003	4.0	GoodResponse	1	0.225	n/a	13	72	ButtonPress	Win	True
685.433	0.34	Win2	0.7123	n/a	Yes	2.782	n/a	n/a	GoodResponse	1	n/a	n/a	13	72	Blank	Win	True
685.767	1.45	Win2	0.7123	n/a	Yes	2.782	n/a	5.0	GoodResponse	1	0.012	684.779	13	72	Feedback	Win	True
687.221	2.782	Win2	0.7123	n/a	Yes	2.782	n/a	n/a	GoodResponse	1	0.0	n/a	13	72	ISIslide	Win	True
690.03	0.25	Win2	0.7162000000000001	0.0	Yes	2.67	0.03	n/a	GoodResponse	1	n/a	n/a	14	73	Cue	Win	True
690.28	4.0	Win2	0.7162000000000001	0.0	Yes	2.67	0.0	n/a	GoodResponse	1	n/a	n/a	14	73	Fixation	Win	True
694.276	0.35	Win2	0.7162000000000001	0.004	Yes	2.67	-0.004	4.0	GoodResponse	1	0.199	693.475	14	73	Target	Win	True
694.475	0.3	Win2	0.7162000000000001	0.004	Yes	2.67	-0.004	4.0	GoodResponse	1	0.199	n/a	14	73	ButtonPress	Win	True
694.627	0.35	Win2	0.7162000000000001	n/a	Yes	2.67	n/a	n/a	GoodResponse	1	n/a	n/a	14	73	Blank	Win	True
694.978	1.45	Win2	0.7162000000000001	n/a	Yes	2.67	n/a	5.0	GoodResponse	1	0.02	693.998	14	73	Feedback	Win	True
696.432	2.67	Win2	0.7162000000000001	n/a	Yes	2.67	n/a	n/a	GoodResponse	1	0.0	n/a	14	73	ISIslide	Win	True
699.124	0.25	Lose2	0.72	0.0	Yes	2.626	0.024	n/a	GoodResponse	0	n/a	n/a	14	74	Cue	AvoidedLoss	True
699.374	4.05	Lose2	0.72	0.0	Yes	2.626	0.0	n/a	GoodResponse	0	n/a	n/a	14	74	Fixation	AvoidedLoss	True
703.42	0.34	Lose2	0.72	0.004	Yes	2.626	-0.004	4.0	GoodResponse	0	0.214	702.634	14	74	Target	AvoidedLoss	True
703.634	0.3	Lose2	0.72	0.004	Yes	2.626	-0.004	4.0	GoodResponse	0	0.214	n/a	14	74	ButtonPress	AvoidedLoss	True
703.771	0.36	Lose2	0.72	n/a	Yes	2.626	n/a	n/a	GoodResponse	0	n/a	n/a	14	74	Blank	AvoidedLoss	True
704.122	1.45	Lose2	0.72	n/a	Yes	2.626	n/a	5.0	GoodResponse	0	0.047	703.169	14	74	Feedback	AvoidedLoss	True
705.576	2.626	Lose2	0.72	n/a	Yes	2.626	n/a	n/a	GoodResponse	0	0.0	n/a	14	74	ISIslide	AvoidedLoss	True
708.218	0.25	Lose2	0.7237	0.0	Yes	2.932	0.018	n/a	GoodResponse	0	n/a	n/a	14	75	Cue	AvoidedLoss	True
708.468	3.95	Lose2	0.7237	0.0	Yes	2.932	0.0	n/a	GoodResponse	0	n/a	n/a	14	75	Fixation	AvoidedLoss	True
712.43	0.33	Lose2	0.7237	0.0	Yes	2.932	0.012	4.0	GoodResponse	0	0.197	711.627	14	75	Target	AvoidedLoss	True
712.627	0.3	Lose2	0.7237	0.0	Yes	2.932	0.012	4.0	GoodResponse	0	0.197	n/a	14	75	ButtonPress	AvoidedLoss	True
712.748	0.37	Lose2	0.7237	n/a	Yes	2.932	n/a	n/a	GoodResponse	0	n/a	n/a	14	75	Blank	AvoidedLoss	True
713.116	1.45	Lose2	0.7237	n/a	Yes	2.932	n/a	5.0	GoodResponse	0	0.029	712.145	14	75	Feedback	AvoidedLoss	True
714.57	2.932	Lose2	0.7237	n/a	Yes	2.932	n/a	n/a	GoodResponse	0	0.0	n/a	14	75	ISIslide	AvoidedLoss	True
717.529	0.25	Control	0.7273000000000001	0.0	Yes	3.221	0.029	n/a	GoodResponse	0	n/a	n/a	14	76	Cue	Neutral	True
717.78	4.05	Control	0.7273000000000001	0.0	Yes	3.221	0.001	n/a	GoodResponse	0	n/a	n/a	14	76	Fixation	Neutral	True
721.825	0.32	Control	0.7273000000000001	0.004	Yes	3.221	-0.004	4.0	GoodResponse	0	0.301	721.126	14	76	Target	Neutral	True
722.126	0.3	Control	0.7273000000000001	0.004	Yes	3.221	-0.004	4.0	GoodResponse	0	0.301	n/a	14	76	ButtonPress	Neutral	True
722.159	0.38	Control	0.7273000000000001	n/a	Yes	3.221	n/a	n/a	GoodResponse	0	n/a	n/a	14	76	Blank	Neutral	True
722.527	1.45	Control	0.7273000000000001	n/a	Yes	3.221	n/a	5.0	GoodResponse	0	0.033	721.56	14	76	Feedback	Neutral	True
723.981	3.221	Control	0.7273000000000001	n/a	Yes	3.221	n/a	n/a	GoodResponse	0	0.0	n/a	14	76	ISIslide	Neutral	True
727.225	0.25	Lose2	0.7308	0.0	Yes	2.575	0.025	n/a	GoodResponse	0	n/a	n/a	14	77	Cue	AvoidedLoss	True
727.475	3.95	Lose2	0.7308	0.0	Yes	2.575	0.0	n/a	GoodResponse	0	n/a	n/a	14	77	Fixation	AvoidedLoss	True
731.42	0.31	Lose2	0.7308	0.005	Yes	2.575	-0.005	4.0	GoodResponse	0	0.244	730.664	14	77	Target	AvoidedLoss	True
731.664	0.3	Lose2	0.7308	0.005	Yes	2.575	-0.005	4.0	GoodResponse	0	0.244	n/a	14	77	ButtonPress	AvoidedLoss	True
731.738	0.39	Lose2	0.7308	n/a	Yes	2.575	n/a	n/a	GoodResponse	0	n/a	n/a	14	77	Blank	AvoidedLoss	True
732.123	1.45	Lose2	0.7308	n/a	Yes	2.575	n/a	5.0	GoodResponse	0	0.046	731.169	14	77	Feedback	AvoidedLoss	True
733.577	2.575	Lose2	0.7308	n/a	Yes	2.575	n/a	n/a	GoodResponse	0	0.0	n/a	14	77	ISIslide	AvoidedLoss	True
