onset	duration	cue_type	current_mean_accuracy	duration_error	is_hit	isi_adjusted	onset_delay	response	response_type	reward	rt	rt_time	total_reward	trial_number	trial_phase	trial_type	one_press
11.112	0.25	Control	1.0	0.0	Yes	2.938	0.012	n/a	GoodResponse	0	n/a	n/a	0	0	Cue	Neutral	True
11.362	3.85	Control	1.0	0.0	Yes	2.938	0.0	n/a	GoodResponse	0	n/a	n/a	0	0	Fixation	Neutral	True
15.21	0.4	Control	1.0	0.002	Yes	2.938	-0.002	3.0	GoodResponse	0	0.207	14.417	0	0	Target	Neutral	True
15.417	0.3	Control	1.0	0.002	Yes	2.938	-0.002	3.0	GoodResponse	0	0.207	n/a	0	0	ButtonPress	Neutral	True
15.61	0.3	Control	1.0	n/a	Yes	2.938	n/a	n/a	GoodResponse	0	n/a	n/a	0	0	Blank	Neutral	True
15.91	1.45	Control	1.0	n/a	Yes	2.938	n/a	5.0	GoodResponse	0	0.02	14.93	0	0	Feedback	Neutral	True
17.36	2.938	Control	1.0	n/a	Yes	2.938	n/a	n/a	GoodResponse	0	0.0	n/a	0	0	ISIslide	Neutral	True
20.325	0.25	Lose2	1.0	0.0	Yes	2.775	0.025	n/a	GoodResponse	0	n/a	n/a	0	1	Cue	AvoidedLoss	True
20.575	4.0	Lose2	1.0	0.0	Yes	2.775	0.0	n/a	GoodResponse	0	n/a	n/a	0	1	Fixation	AvoidedLoss	True
24.574	0.39	Lose2	1.0	0.001	Yes	2.775	-0.001	3.0	GoodResponse	0	0.188	23.762	0	1	Target	AvoidedLoss	True
24.762	0.3	Lose2	1.0	0.001	Yes	2.775	-0.001	3.0	GoodResponse	0	0.188	n/a	0	1	ButtonPress	AvoidedLoss	True
24.974	0.31	Lose2	1.0	n/a	Yes	2.775	n/a	n/a	GoodResponse	0	n/a	n/a	0	1	Blank	AvoidedLoss	True
25.274	1.45	Lose2	1.0	n/a	Yes	2.775	n/a	5.0	GoodResponse	0	0.022	24.296	0	1	Feedback	AvoidedLoss	True
26.723	2.775	Lose2	1.0	n/a	Yes	2.775	n/a	n/a	GoodResponse	0	0.0	n/a	0	1	ISIslide	AvoidedLoss	True
29.522	0.25	Control	1.0	0.0	Yes	2.578	0.022	n/a	GoodResponse	0	n/a	n/a	0	2	Cue	Neutral	True
29.772	4.1	Control	1.0	0.0	Yes	2.578	0.0	n/a	GoodResponse	0	n/a	n/a	0	2	Fixation	Neutral	True
33.871	0.38	Control	1.0	0.001	Yes	2.578	-0.001	3.0	GoodResponse	0	0.226	33.097	0	2	Target	Neutral	True
34.097	0.3	Control	1.0	0.001	Yes	2.578	-0.001	3.0	GoodResponse	0	0.226	n/a	0	2	ButtonPress	Neutral	True
34.254	0.32	Control	1.0	n/a	Yes	2.578	n/a	n/a	GoodResponse	0	n/a	n/a	0	2	Blank	Neutral	True
34.57	1.45	Control	1.0	n/a	Yes	2.578	n/a	5.0	GoodResponse	0	0.042	33.612	0	2	Feedback	Neutral	True
36.02	2.578	Control	1.0	n/a	Yes	2.578	n/a	n/a	GoodResponse	0	0.0	n/a	0	2	ISIslide	Neutral	True
38.619	0.25	Win2	1.0	0.0	Yes	2.831	0.019	n/a	GoodResponse	1	n/a	n/a	1	3	Cue	Win	True
38.869	3.95	Win2	1.0	0.0	Yes	2.831	0.0	n/a	GoodResponse	1	n/a	n/a	1	3	Fixation	Win	True
42.818	0.37	Win2	1.0	0.001	Yes	2.831	-0.001	3.0	GoodResponse	1	0.204	42.022	1	3	Target	Win	True
43.022	0.3	Win2	1.0	0.001	Yes	2.831	-0.001	3.0	GoodResponse	1	0.204	n/a	1	3	ButtonPress	Win	True
43.201	0.33	Win2	1.0	n/a	Yes	2.831	n/a	n/a	GoodResponse	1	n/a	n/a	1	3	Blank	Win	True
43.517	1.45	Win2	1.0	n/a	Yes	2.831	n/a	5.0	GoodResponse	1	0.022	42.539	1	3	Feedback	Win	True
44.967	2.831	Win2	1.0	n/a	Yes	2.831	n/a	n/a	GoodResponse	1	0.0	n/a	1	3	ISIslide	Win	True
47.816	0.25	Win2	1.0	0.0	Yes	3.284	0.016	n/a	GoodResponse	1	n/a	n/a	2	4	Cue	Win	True
48.066	4.0	Win2	1.0	0.0	Yes	3.284	0.0	n/a	GoodResponse	1	n/a	n/a	2	4	Fixation	Win	True
52.064	0.36	Win2	1.0	0.002	Yes	3.284	-0.002	3.0	GoodResponse	1	0.211	51.275	2	4	Target	Win	True
52.275	0.3	Win2	1.0	0.002	Yes	3.284	-0.002	3.0	GoodResponse	1	0.211	n/a	2	4	ButtonPress	Win	True
52.431	0.34	Win2	1.0	n/a	Yes	3.284	n/a	n/a	GoodResponse	1	n/a	n/a	2	4	Blank	Win	True
52.764	1.45	Win2	1.0	n/a	Yes	3.284	n/a	5.0	GoodResponse	1	0.043	51.807	2	4	Feedback	Win	True
54.214	3.284	Win2	1.0	n/a	Yes	3.284	n/a	n/a	GoodResponse	1	0.0	n/a	2	4	ISIslide	Win	True
57.529	0.25	Win2	1.0	0.0	Yes	2.771	0.029	n/a	GoodResponse	1	n/a	n/a	3	5	Cue	Win	True
57.779	4.0	Win2	1.0	0.0	Yes	2.771	0.0	n/a	GoodResponse	1	n/a	n/a	3	5	Fixation	Win	True
61.778	0.35	Win2	1.0	0.001	Yes	2.771	-0.001	3.0	GoodResponse	1	0.205	60.983	3	5	Target	Win	True
61.983	0.3	Win2	1.0	0.001	Yes	2.771	-0.001	3.0	GoodResponse	1	0.205	n/a	3	5	ButtonPress	Win	True
62.128	0.35	Win2	1.0	n/a	Yes	2.771	n/a	n/a	GoodResponse	1	n/a	n/a	3	5	Blank	Win	True
62.477	1.45	Win2	1.0	n/a	Yes	2.771	n/a	5.0	GoodResponse	1	0.038	61.515	3	5	Feedback	Win	True
63.927	2.771	Win2	1.0	n/a	Yes	2.771	n/a	n/a	GoodResponse	1	0.0	n/a	3	5	ISIslide	Win	True
66.726	0.25	Lose2	1.0	0.0	Yes	2.724	0.026	n/a	GoodResponse	0	n/a	n/a	3	6	Cue	AvoidedLoss	True
66.976	3.95	Lose2	1.0	0.0	Yes	2.724	0.0	n/a	GoodResponse	0	n/a	n/a	3	6	Fixation	AvoidedLoss	True
70.925	0.34	Lose2	1.0	0.001	Yes	2.724	-0.001	3.0	GoodResponse	0	0.216	70.141	3	6	Target	AvoidedLoss	True
71.141	0.3	Lose2	1.0	0.001	Yes	2.724	-0.001	3.0	GoodResponse	0	0.216	n/a	3	6	ButtonPress	AvoidedLoss	True
71.274	0.36	Lose2	1.0	n/a	Yes	2.724	n/a	n/a	GoodResponse	0	n/a	n/a	3	6	Blank	AvoidedLoss	True
71.624	1.45	Lose2	1.0	n/a	Yes	2.724	n/a	5.0	GoodResponse	0	0.013	70.637	3	6	Feedback	AvoidedLoss	True
73.074	2.724	Lose2	1.0	n/a	Yes	2.724	n/a	n/a	GoodResponse	0	0.0	n/a	3	6	ISIslide	AvoidedLoss	True
75.823	0.25	Lose2	1.0	0.0	Yes	4.027	0.023	n/a	GoodResponse	0	n/a	n/a	3	7	Cue	AvoidedLoss	True
76.073	4.05	Lose2	1.0	0.0	Yes	4.027	0.0	n/a	GoodResponse	0	n/a	n/a	3	7	Fixation	AvoidedLoss	True
80.121	0.33	Lose2	1.0	0.002	Yes	4.027	-0.002	3.0	GoodResponse	0	0.2	79.321	3	7	Target	AvoidedLoss	True
80.321	0.3	Lose2	1.0	0.002	Yes	4.027	-0.002	3.0	GoodResponse	0	0.2	n/a	3	7	ButtonPress	AvoidedLoss	True
80.455	0.37	Lose2	1.0	n/a	Yes	4.027	n/a	n/a	GoodResponse	0	n/a	n/a	3	7	Blank	AvoidedLoss	True
80.821	1.45	Lose2	1.0	n/a	Yes	4.027	n/a	5.0	GoodResponse	0	0.036	79.857	3	7	Feedback	AvoidedLoss	True
82.271	4.027	Lose2	1.0	n/a	Yes	4.027	n/a	n/a	GoodResponse	0	0.0	n/a	3	7	ISIslide	AvoidedLoss	True
86.319	0.25	Lose2	1.0	0.0	Yes	3.031	0.019	n/a	GoodResponse	0	n/a	n/a	3	8	Cue	AvoidedLoss	True
86.569	3.95	Lose2	1.0	0.0	Yes	3.031	0.0	n/a	GoodResponse	0	n/a	n/a	3	8	Fixation	AvoidedLoss	True
90.518	0.32	Lose2	1.0	0.001	Yes	3.031	-0.001	3.0	GoodResponse	0	0.23	89.748	3	8	Target	AvoidedLoss	True
90.748	0.3	Lose2	1.0	0.001	Yes	3.031	-0.001	3.0	GoodResponse	0	0.23	n/a	3	8	ButtonPress	AvoidedLoss	True
90.834	0.38	Lose2	1.0	n/a	Yes	3.031	n/a	n/a	GoodResponse	0	n/a	n/a	3	8	Blank	AvoidedLoss	True
91.218	1.45	Lose2	1.0	n/a	Yes	3.031	n/a	5.0	GoodResponse	0	0.029	90.247	3	8	Feedback	AvoidedLoss	True
92.667	3.031	Lose2	1.0	n/a	Yes	3.031	n/a	n/a	GoodResponse	0	0.0	n/a	3	8	ISIslide	AvoidedLoss	True
95.716	0.25	Lose2	1.0	0.0	Yes	3.134	0.016	n/a	GoodResponse	0	n/a	n/a	3	9	Cue	AvoidedLoss	True
95.966	3.95	Lose2	1.0	0.0	Yes	3.134	0.0	n/a	GoodResponse	0	n/a	n/a	3	9	Fixation	AvoidedLoss	True
99.915	0.31	Lose2	1.0	0.001	Yes	3.134	-0.001	3.0	GoodResponse	0	0.228	99.143	3	9	Target	AvoidedLoss	True
100.143	0.3	Lose2	1.0	0.001	Yes	3.134	-0.001	3.0	GoodResponse	0	0.228	n/a	3	9	ButtonPress	AvoidedLoss	True
100.231	0.39	Lose2	1.0	n/a	Yes	3.134	n/a	n/a	GoodResponse	0	n/a	n/a	3	9	Blank	AvoidedLoss	True
100.614	1.45	Lose2	1.0	n/a	Yes	3.134	n/a	5.0	GoodResponse	0	0.048	99.662	3	9	Feedback	AvoidedLoss	True
102.064	3.134	Lose2	1.0	n/a	Yes	3.134	n/a	n/a	GoodResponse	0	0.0	n/a	3	9	ISIslide	AvoidedLoss	True
105.213	0.25	Control	1.0	0.0	Yes	3.287	0.013	n/a	GoodResponse	0	n/a	n/a	3	10	Cue	Neutral	True
105.463	4.0	Control	1.0	0.0	Yes	3.287	0.0	n/a	GoodResponse	0	n/a	n/a	3	10	Fixation	Neutral	True
109.461	0.3	Control	1.0	0.002	Yes	3.287	-0.002	3.0	GoodResponse	0	0.22	108.681	3	10	Target	Neutral	True
109.681	0.3	Control	1.0	0.002	Yes	3.287	-0.002	3.0	GoodResponse	0	0.22	n/a	3	10	ButtonPress	Neutral	True
109.761	0.4	Control	1.0	n/a	Yes	3.287	n/a	n/a	GoodResponse	0	n/a	n/a	3	10	Blank	Neutral	True
110.161	1.45	Control	1.0	n/a	Yes	3.287	n/a	5.0	GoodResponse	0	0.012	109.173	3	10	Feedback	Neutral	True
111.611	3.287	Control	1.0	n/a	Yes	3.287	n/a	n/a	GoodResponse	0	0.0	n/a	3	10	ISIslide	Neutral	True
114.926	0.25	Lose2	0.9167000000000001	0.0	No	2.724	0.026	n/a	NoResponse	-1	n/a	n/a	2	11	Cue	Loss	False
115.176	4.05	Lose2	0.9167000000000001	0.0	No	2.724	0.0	3.0	NoResponse	-1	4.029	118.205	2	11	Fixation	Loss	False
119.205	0.3	Lose2	0.9167000000000001	0.0	No	2.724	0.0	3.0	NoResponse	-1	4.029	n/a	2	11	ButtonPress	Loss	False
119.225	0.29	Lose2	0.9167000000000001	0.001	No	2.724	-0.001	3.0	NoResponse	-1	0.468	118.693	2	11	Target	Loss	False
119.525	0.41	Lose2	0.9167000000000001	n/a	No	2.724	n/a	n/a	NoResponse	-1	n/a	n/a	2	11	Blank	Loss	False
119.693	0.3	Lose2	0.9167000000000001	0.001	No	2.724	-0.001	3.0	NoResponse	-1	0.468	n/a	2	11	ButtonPress	Loss	False
119.924	1.45	Lose2	0.9167000000000001	n/a	No	2.724	n/a	5.0	NoResponse	-1	0.007	118.931	2	11	Feedback	Loss	False
121.374	2.724	Lose2	0.9167000000000001	n/a	No	2.724	n/a	n/a	NoResponse	-1	0.0	n/a	2	11	ISIslide	Loss	False
124.123	0.25	Control	0.9231	0.0	Yes	2.977	0.023	n/a	GoodResponse	0	n/a	n/a	2	12	Cue	Neutral	True
124.373	3.9	Control	0.9231	0.0	Yes	2.977	0.0	n/a	GoodResponse	0	n/a	n/a	2	12	Fixation	Neutral	True
128.272	0.28	Control	0.9231	0.001	Yes	2.977	-0.001	3.0	GoodResponse	0	0.247	127.519	2	12	Target	Neutral	True
128.519	0.3	Control	0.9231	0.001	Yes	2.977	-0.001	3.0	GoodResponse	0	0.247	n/a	2	12	ButtonPress	Neutral	True
128.555	0.42	Control	0.9231	n/a	Yes	2.977	n/a	n/a	GoodResponse	0	n/a	n/a	2	12	Blank	Neutral	True
128.971	1.45	Control	0.9231	n/a	Yes	2.977	n/a	5.0	GoodResponse	0	0.032	128.003	2	12	Feedback	Neutral	True
130.421	2.977	Control	0.9231	n/a	Yes	2.977	n/a	n/a	GoodResponse	0	0.0	n/a	2	12	ISIslide	Neutral	True
133.42	0.25	Control	0.8571	0.0	No	2.78	0.02	n/a	LatePress	0	n/a	n/a	2	13	Cue	Neutral	True
133.67	4.0	Control	0.8571	0.0	No	2.78	0.0	n/a	LatePress	0	n/a	n/a	2	13	Fixation	Neutral	True
137.668	0.27	Control	0.8571	0.002	No	2.78	-0.002	3.0	LatePress	0	0.278	136.946	2	13	Target	Neutral	True
137.946	0.3	Control	0.8571	0.002	No	2.78	-0.002	3.0	LatePress	0	0.278	n/a	2	13	ButtonPress	Neutral	True
137.952	0.43	Control	0.8571	n/a	No	2.78	n/a	n/a	LatePress	0	n/a	n/a	2	13	Blank	Neutral	True
138.368	1.45	Control	0.8571	n/a	No	2.78	n/a	5.0	LatePress	0	0.049	137.417	2	13	Feedback	Neutral	True
139.818	2.78	Control	0.8571	n/a	No	2.78	n/a	n/a	LatePress	0	0.0	n/a	2	13	ISIslide	Neutral	True
142.617	0.25	Win2	0.8667	0.0	Yes	2.683	0.017	n/a	GoodResponse	1	n/a	n/a	3	14	Cue	Win	True
142.867	4.1	Win2	0.8667	0.0	Yes	2.683	0.0	n/a	GoodResponse	1	n/a	n/a	3	14	Fixation	Win	True
146.965	0.26	Win2	0.8667	0.002	Yes	2.683	-0.002	3.0	GoodResponse	1	0.215	146.18	3	14	Target	Win	True
147.18	0.3	Win2	0.8667	0.002	Yes	2.683	-0.002	3.0	GoodResponse	1	0.215	n/a	3	14	ButtonPress	Win	True
147.232	0.44	Win2	0.8667	n/a	Yes	2.683	n/a	n/a	GoodResponse	1	n/a	n/a	3	14	Blank	Win	True
147.665	1.45	Win2	0.8667	n/a	Yes	2.683	n/a	5.0	GoodResponse	1	0.021	146.686	3	14	Feedback	Win	True
149.114	2.683	Win2	0.8667	n/a	Yes	2.683	n/a	n/a	GoodResponse	1	0.0	n/a	3	14	ISIslide	Win	True
151.814	0.25	Control	0.8125	0.0	No	2.986	0.014	n/a	NoResponse	0	n/a	n/a	3	15	Cue	Neutral	True
152.063	4.0	Control	0.8125	0.001	No	2.986	-0.001	n/a	NoResponse	0	n/a	n/a	3	15	Fixation	Neutral	True
156.062	0.25	Control	0.8125	0.002	No	2.986	-0.002	3.0	NoResponse	0	0.259	155.321	3	15	Target	Neutral	True
156.312	0.45	Control	0.8125	n/a	No	2.986	n/a	n/a	NoResponse	0	n/a	n/a	3	15	Blank	Neutral	True
156.321	0.3	Control	0.8125	0.002	No	2.986	-0.002	3.0	NoResponse	0	0.259	n/a	3	15	ButtonPress	Neutral	True
156.762	1.45	Control	0.8125	n/a	No	2.986	n/a	5.0	NoResponse	0	0.046	155.808	3	15	Feedback	Neutral	True
158.211	2.986	Control	0.8125	n/a	No	2.986	n/a	n/a	NoResponse	0	0.0	n/a	3	15	ISIslide	Neutral	True
161.227	0.25	Win2	0.8234999999999999	0.0	Yes	2.873	0.027	n/a	GoodResponse	1	n/a	n/a	4	16	Cue	Win	True
161.477	4.0	Win2	0.8234999999999999	0.0	Yes	2.873	0.0	n/a	GoodResponse	1	n/a	n/a	4	16	Fixation	Win	True
165.476	0.24	Win2	0.8234999999999999	0.001	Yes	2.873	-0.001	3.0	GoodResponse	1	0.205	164.681	4	16	Target	Win	True
165.681	0.3	Win2	0.8234999999999999	0.001	Yes	2.873	-0.001	3.0	GoodResponse	1	0.205	n/a	4	16	ButtonPress	Win	True
165.725	0.46	Win2	0.8234999999999999	n/a	Yes	2.873	n/a	n/a	GoodResponse	1	n/a	n/a	4	16	Blank	Win	True
166.175	1.45	Win2	0.8234999999999999	n/a	Yes	2.873	n/a	5.0	GoodResponse	1	0.047	165.222	4	16	Feedback	Win	True
167.625	2.873	Win2	0.8234999999999999	n/a	Yes	2.873	n/a	n/a	GoodResponse	1	0.0	n/a	4	16	ISIslide	Win	True
170.524	0.25	Lose2	0.8332999999999999	0.0	Yes	2.726	0.024	n/a	GoodResponse	0	n/a	n/a	4	17	Cue	AvoidedLoss	True
170.774	3.95	Lose2	0.8332999999999999	0.0	Yes	2.726	0.0	n/a	GoodResponse	0	n/a	n/a	4	17	Fixation	AvoidedLoss	True
174.722	0.23	Lose2	0.8332999999999999	0.002	Yes	2.726	-0.002	3.0	GoodResponse	0	0.185	173.907	4	17	Target	AvoidedLoss	True
174.907	0.3	Lose2	0.8332999999999999	0.002	Yes	2.726	-0.002	3.0	GoodResponse	0	0.185	n/a	4	17	ButtonPress	AvoidedLoss	True
174.956	0.47	Lose2	0.8332999999999999	n/a	Yes	2.726	n/a	n/a	GoodResponse	0	n/a	n/a	4	17	Blank	AvoidedLoss	True
175.422	1.45	Lose2	0.8332999999999999	n/a	Yes	2.726	n/a	5.0	GoodResponse	0	0.02	174.442	4	17	Feedback	AvoidedLoss	True
176.872	2.726	Lose2	0.8332999999999999	n/a	Yes	2.726	n/a	n/a	GoodResponse	0	0.0	n/a	4	17	ISIslide	AvoidedLoss	True
179.621	0.25	Lose2	0.7895	0.0	No	2.729	0.021	n/a	LatePress	-1	n/a	n/a	3	18	Cue	Loss	True
179.871	4.05	Lose2	0.7895	0.0	No	2.729	0.0	n/a	LatePress	-1	n/a	n/a	3	18	Fixation	Loss	True
183.919	0.22	Lose2	0.7895	0.002	No	2.729	-0.002	3.0	LatePress	-1	0.228	183.147	3	18	Target	Loss	True
184.147	0.3	Lose2	0.7895	0.002	No	2.729	-0.002	3.0	LatePress	-1	0.228	n/a	3	18	ButtonPress	Loss	True
184.152	0.48	Lose2	0.7895	n/a	No	2.729	n/a	n/a	LatePress	-1	n/a	n/a	3	18	Blank	Loss	True
184.619	1.45	Lose2	0.7895	n/a	No	2.729	n/a	5.0	LatePress	-1	0.042	183.661	3	18	Feedback	Loss	True
186.068	2.729	Lose2	0.7895	n/a	No	2.729	n/a	n/a	LatePress	-1	0.0	n/a	3	18	ISIslide	Loss	True
188.818	0.25	Control	0.8	0.0	Yes	2.932	0.018	n/a	GoodResponse	0	n/a	n/a	3	19	Cue	Neutral	True
189.067	3.95	Control	0.8	0.001	Yes	2.932	-0.001	n/a	GoodResponse	0	n/a	n/a	3	19	Fixation	Neutral	True
193.016	0.21	Control	0.8	0.002	Yes	2.932	-0.002	3.0	GoodResponse	0	0.207	192.223	3	19	Target	Neutral	True
193.223	0.3	Control	0.8	0.002	Yes	2.932	-0.002	3.0	GoodResponse	0	0.207	n/a	3	19	ButtonPress	Neutral	True
193.233	0.49	Control	0.8	n/a	Yes	2.932	n/a	n/a	GoodResponse	0	n/a	n/a	3	19	Blank	Neutral	True
193.716	1.45	Control	0.8	n/a	Yes	2.932	n/a	5.0	GoodResponse	0	0.018	192.734	3	19	Feedback	Neutral	True
195.165	2.932	Control	0.8	n/a	Yes	2.932	n/a	n/a	GoodResponse	0	0.0	n/a	3	19	ISIslide	Neutral	True
198.114	0.25	Control	0.7619	0.0	No	2.636	0.014	n/a	NoResponse	0	n/a	n/a	3	20	Cue	Neutral	True
198.364	4.05	Control	0.7619	0.0	No	2.636	0.0	n/a	NoResponse	0	n/a	n/a	3	20	Fixation	Neutral	True
202.413	0.2	Control	0.7619	0.001	No	2.636	-0.001	3.0	NoResponse	0	0.237	201.65	3	20	Target	Neutral	True
202.613	0.5	Control	0.7619	n/a	No	2.636	n/a	n/a	NoResponse	0	n/a	n/a	3	20	Blank	Neutral	True
202.65	0.3	Control	0.7619	0.001	No	2.636	-0.001	3.0	NoResponse	0	0.237	n/a	3	20	ButtonPress	Neutral	True
203.113	1.45	Control	0.7619	n/a	No	2.636	n/a	5.0	NoResponse	0	0.036	202.149	3	20	Feedback	Neutral	True
204.562	2.636	Control	0.7619	n/a	No	2.636	n/a	n/a	NoResponse	0	0.0	n/a	3	20	ISIslide	Neutral	True
207.228	0.25	Control	0.7273000000000001	0.0	No	2.772	0.028	n/a	NoResponse	0	n/a	n/a	3	21	Cue	Neutral	True
207.478	4.1	Control	0.7273000000000001	0.0	No	2.772	0.0	n/a	NoResponse	0	n/a	n/a	3	21	Fixation	Neutral	True
211.576	0.19	Control	0.7273000000000001	0.002	No	2.772	-0.002	3.0	NoResponse	0	0.213	210.789	3	21	Target	Neutral	True
211.776	0.51	Control	0.7273000000000001	n/a	No	2.772	n/a	n/a	NoResponse	0	n/a	n/a	3	21	Blank	Neutral	True
211.789	0.3	Control	0.7273000000000001	0.002	No	2.772	-0.002	3.0	NoResponse	0	0.213	n/a	3	21	ButtonPress	Neutral	True
212.276	1.45	Control	0.7273000000000001	n/a	No	2.772	n/a	5.0	NoResponse	0	0.044	211.32	3	21	Feedback	Neutral	True
213.726	2.772	Control	0.7273000000000001	n/a	No	2.772	n/a	n/a	NoResponse	0	0.0	n/a	3	21	ISIslide	Neutral	True
216.525	0.25	Control	0.6957	0.0	No	2.775	0.025	n/a	NoResponse	0	n/a	n/a	3	22	Cue	Neutral	True
216.775	4.0	Control	0.6957	0.0	No	2.775	0.0	n/a	NoResponse	0	n/a	n/a	3	22	Fixation	Neutral	True
220.773	0.18	Control	0.6957	0.002	No	2.775	-0.002	3.0	NoResponse	0	0.199	219.972	3	22	Target	Neutral	True
220.957	0.52	Control	0.6957	n/a	No	2.775	n/a	n/a	NoResponse	0	n/a	n/a	3	22	Blank	Neutral	True
220.972	0.3	Control	0.6957	0.002	No	2.775	-0.002	3.0	NoResponse	0	0.199	n/a	3	22	ButtonPress	Neutral	True
221.473	1.45	Control	0.6957	n/a	No	2.775	n/a	5.0	NoResponse	0	0.018	220.491	3	22	Feedback	Neutral	True
222.923	2.775	Control	0.6957	n/a	No	2.775	n/a	n/a	NoResponse	0	0.0	n/a	3	22	ISIslide	Neutral	True
225.722	0.25	Control	0.6667000000000001	0.0	No	2.778	0.022	n/a	NoResponse	0	n/a	n/a	3	23	Cue	Neutral	True
225.971	3.9	Control	0.6667000000000001	0.001	No	2.778	-0.001	n/a	NoResponse	0	n/a	n/a	3	23	Fixation	Neutral	True
229.87	0.17	Control	0.6667000000000001	0.002	No	2.778	-0.002	3.0	NoResponse	0	0.213	229.083	3	23	Target	Neutral	True
230.053	0.53	Control	0.6667000000000001	n/a	No	2.778	n/a	n/a	NoResponse	0	n/a	n/a	3	23	Blank	Neutral	True
230.083	0.3	Control	0.6667000000000001	0.002	No	2.778	-0.002	3.0	NoResponse	0	0.213	n/a	3	23	ButtonPress	Neutral	True
230.57	1.45	Control	0.6667000000000001	n/a	No	2.778	n/a	5.0	NoResponse	0	0.043	229.613	3	23	Feedback	Neutral	True
232.019	2.778	Control	0.6667000000000001	n/a	No	2.778	n/a	n/a	NoResponse	0	0.0	n/a	3	23	ISIslide	Neutral	True
234.818	0.25	Win2	0.64	0.001	No	3.132	0.018	n/a	NoResponse	0	n/a	n/a	3	24	Cue	MissedWin	True
235.068	3.95	Win2	0.64	0.0	No	3.132	0.0	n/a	NoResponse	0	n/a	n/a	3	24	Fixation	MissedWin	True
239.017	0.16	Win2	0.64	0.001	No	3.132	-0.001	3.0	NoResponse	0	0.205	238.222	3	24	Target	MissedWin	True
239.184	0.54	Win2	0.64	n/a	No	3.132	n/a	n/a	NoResponse	0	n/a	n/a	3	24	Blank	MissedWin	True
239.222	0.3	Win2	0.64	0.001	No	3.132	-0.001	3.0	NoResponse	0	0.205	n/a	3	24	ButtonPress	MissedWin	True
239.717	1.45	Win2	0.64	n/a	No	3.132	n/a	5.0	NoResponse	0	0.018	238.735	3	24	Feedback	MissedWin	True
241.166	3.132	Win2	0.64	n/a	No	3.132	n/a	n/a	NoResponse	0	0.0	n/a	3	24	ISIslide	MissedWin	True
244.315	0.25	Win2	0.6154	0.0	No	3.085	0.015	n/a	NoResponse	0	n/a	n/a	3	25	Cue	MissedWin	True
244.565	4.0	Win2	0.6154	0.0	No	3.085	0.0	n/a	NoResponse	0	n/a	n/a	3	25	Fixation	MissedWin	True
248.564	0.17	Win2	0.6154	0.001	No	3.085	-0.001	3.0	NoResponse	0	0.199	247.763	3	25	Target	MissedWin	True
248.73	0.53	Win2	0.6154	n/a	No	3.085	n/a	n/a	NoResponse	0	n/a	n/a	3	25	Blank	MissedWin	True
248.763	0.3	Win2	0.6154	0.001	No	3.085	-0.001	3.0	NoResponse	0	0.199	n/a	3	25	ButtonPress	MissedWin	True
249.263	1.45	Win2	0.6154	n/a	No	3.085	n/a	5.0	NoResponse	0	0.033	248.296	3	25	Feedback	MissedWin	True
250.713	3.085	Win2	0.6154	n/a	No	3.085	n/a	n/a	NoResponse	0	0.0	n/a	3	25	ISIslide	MissedWin	True
253.829	0.25	Win2	0.5926	0.0	No	2.921	0.029	n/a	NoResponse	0	n/a	n/a	3	26	Cue	MissedWin	False
254.079	3.95	Win2	0.5926	0.0	No	2.921	0.0	3.0	NoResponse	0	3.851	256.93	3	26	Fixation	MissedWin	False
257.93	0.3	Win2	0.5926	0.0	No	2.921	0.0	3.0	NoResponse	0	3.851	n/a	3	26	ButtonPress	MissedWin	False
258.027	0.18	Win2	0.5926	0.002	No	2.921	-0.002	3.0	NoResponse	0	0.205	257.232	3	26	Target	MissedWin	False
258.21	0.52	Win2	0.5926	n/a	No	2.921	n/a	n/a	NoResponse	0	n/a	n/a	3	26	Blank	MissedWin	False
258.232	0.3	Win2	0.5926	0.002	No	2.921	-0.002	3.0	NoResponse	0	0.205	n/a	3	26	ButtonPress	MissedWin	False
258.727	1.45	Win2	0.5926	n/a	No	2.921	n/a	5.0	NoResponse	0	0.031	257.758	3	26	Feedback	MissedWin	False
260.176	2.921	Win2	0.5926	n/a	No	2.921	n/a	n/a	NoResponse	0	0.0	n/a	3	26	ISIslide	MissedWin	False
263.125	0.25	Lose2	0.5714	0.001	No	2.825	0.025	n/a	NoResponse	-1	n/a	n/a	2	27	Cue	Loss	True
263.375	4.05	Lose2	0.5714	0.0	No	2.825	0.0	n/a	NoResponse	-1	n/a	n/a	2	27	Fixation	Loss	True
267.424	0.19	Lose2	0.5714	0.001	No	2.825	-0.001	3.0	NoResponse	-1	0.224	266.648	2	27	Target	Loss	True
267.624	0.51	Lose2	0.5714	n/a	No	2.825	n/a	n/a	NoResponse	-1	n/a	n/a	2	27	Blank	Loss	True
267.648	0.3	Lose2	0.5714	0.001	No	2.825	-0.001	3.0	NoResponse	-1	0.224	n/a	2	27	ButtonPress	Loss	True
268.124	1.45	Lose2	0.5714	n/a	No	2.825	n/a	5.0	NoResponse	-1	0.0	267.124	2	27	Feedback	Loss	True
269.573	2.825	Lose2	0.5714	n/a	No	2.825	n/a	n/a	NoResponse	-1	0.0	n/a	2	27	ISIslide	Loss	True
272.422	0.25	Control	0.5517	0.0	No	2.828	0.022	n/a	NoResponse	0	n/a	n/a	2	28	Cue	Neutral	True
272.672	4.05	Control	0.5517	0.0	No	2.828	0.0	n/a	NoResponse	0	n/a	n/a	2	28	Fixation	Neutral	True
276.721	0.2	Control	0.5517	0.001	No	2.828	-0.001	3.0	NoResponse	0	0.212	275.933	2	28	Target	Neutral	True
276.921	0.5	Control	0.5517	n/a	No	2.828	n/a	n/a	NoResponse	0	n/a	n/a	2	28	Blank	Neutral	True
276.933	0.3	Control	0.5517	0.001	No	2.828	-0.001	3.0	NoResponse	0	0.212	n/a	2	28	ButtonPress	Neutral	True
277.421	1.45	Control	0.5517	n/a	No	2.828	n/a	5.0	NoResponse	0	0.02	276.441	2	28	Feedback	Neutral	True
278.87	2.828	Control	0.5517	n/a	No	2.828	n/a	n/a	NoResponse	0	0.0	n/a	2	28	ISIslide	Neutral	True
281.719	0.25	Lose2	0.5333	0.0	No	2.831	0.019	n/a	LatePress	-1	n/a	n/a	1	29	Cue	Loss	True
281.969	3.95	Lose2	0.5333	0.0	No	2.831	0.0	n/a	LatePress	-1	n/a	n/a	1	29	Fixation	Loss	True
285.918	0.21	Lose2	0.5333	0.001	No	2.831	-0.001	3.0	LatePress	-1	0.214	285.132	1	29	Target	Loss	True
286.132	0.3	Lose2	0.5333	0.001	No	2.831	-0.001	3.0	LatePress	-1	0.214	n/a	1	29	ButtonPress	Loss	True
286.134	0.49	Lose2	0.5333	n/a	No	2.831	n/a	n/a	LatePress	-1	n/a	n/a	1	29	Blank	Loss	True
286.617	1.45	Lose2	0.5333	n/a	No	2.831	n/a	5.0	LatePress	-1	0.044	285.661	1	29	Feedback	Loss	True
288.067	2.831	Lose2	0.5333	n/a	No	2.831	n/a	n/a	LatePress	-1	0.0	n/a	1	29	ISIslide	Loss	True
290.916	0.25	Win2	0.5484	0.0	Yes	2.784	0.016	n/a	GoodResponse	1	n/a	n/a	2	30	Cue	Win	True
291.166	3.9	Win2	0.5484	0.0	Yes	2.784	0.0	n/a	GoodResponse	1	n/a	n/a	2	30	Fixation	Win	True
295.064	0.22	Win2	0.5484	0.002	Yes	2.784	-0.002	3.0	GoodResponse	1	0.199	294.263	2	30	Target	Win	True
295.263	0.3	Win2	0.5484	0.002	Yes	2.784	-0.002	3.0	GoodResponse	1	0.199	n/a	2	30	ButtonPress	Win	True
295.298	0.48	Win2	0.5484	n/a	Yes	2.784	n/a	n/a	GoodResponse	1	n/a	n/a	2	30	Blank	Win	True
295.764	1.45	Win2	0.5484	n/a	Yes	2.784	n/a	5.0	GoodResponse	1	0.019	294.783	2	30	Feedback	Win	True
297.214	2.784	Win2	0.5484	n/a	Yes	2.784	n/a	n/a	GoodResponse	1	0.0	n/a	2	30	ISIslide	Win	True
300.013	0.25	Lose2	0.5625	0.0	Yes	2.837	0.013	n/a	GoodResponse	0	n/a	n/a	2	31	Cue	AvoidedLoss	True
300.263	4.05	Lose2	0.5625	0.0	Yes	2.837	0.0	n/a	GoodResponse	0	n/a	n/a	2	31	Fixation	AvoidedLoss	True
304.311	0.23	Lose2	0.5625	0.002	Yes	2.837	-0.002	3.0	GoodResponse	0	0.207	303.518	2	31	Target	AvoidedLoss	True
304.518	0.3	Lose2	0.5625	0.002	Yes	2.837	-0.002	3.0	GoodResponse	0	0.207	n/a	2	31	ButtonPress	AvoidedLoss	True
304.545	0.47	Lose2	0.5625	n/a	Yes	2.837	n/a	n/a	GoodResponse	0	n/a	n/a	2	31	Blank	AvoidedLoss	True
305.011	1.45	Lose2	0.5625	n/a	Yes	2.837	n/a	5.0	GoodResponse	0	0.041	304.052	2	31	Feedback	AvoidedLoss	True
306.461	2.837	Lose2	0.5625	n/a	Yes	2.837	n/a	n/a	GoodResponse	0	0.0	n/a	2	31	ISIslide	AvoidedLoss	True
309.326	0.25	Lose2	0.5455	0.0	No	2.624	0.026	n/a	PrematurePress	-1	n/a	n/a	1	32	Cue	Loss	True
309.576	4.15	Lose2	0.5455	0.0	No	2.624	0.0	n/a	PrematurePress	-1	n/a	n/a	1	32	Fixation	Loss	True
313.725	0.24	Lose2	0.5455	0.001	No	2.624	-0.001	3.0	PrematurePress	-1	0.063	312.788	1	32	Target	Loss	True
313.788	0.3	Lose2	0.5455	0.001	No	2.624	-0.001	3.0	PrematurePress	-1	0.063	n/a	1	32	ButtonPress	Loss	True
313.975	0.46	Lose2	0.5455	n/a	No	2.624	n/a	n/a	PrematurePress	-1	n/a	n/a	1	32	Blank	Loss	True
314.425	1.45	Lose2	0.5455	n/a	No	2.624	n/a	5.0	PrematurePress	-1	0.041	313.466	1	32	Feedback	Loss	True
315.874	2.624	Lose2	0.5455	n/a	No	2.624	n/a	n/a	PrematurePress	-1	0.0	n/a	1	32	ISIslide	Loss	True
318.523	0.25	Win2	0.5588000000000001	0.0	Yes	2.677	0.023	n/a	GoodResponse	1	n/a	n/a	2	33	Cue	Win	True
318.773	4.0	Win2	0.5588000000000001	0.0	Yes	2.677	0.0	n/a	GoodResponse	1	n/a	n/a	2	33	Fixation	Win	True
322.772	0.25	Win2	0.5588000000000001	0.001	Yes	2.677	-0.001	3.0	GoodResponse	1	0.191	321.963	2	33	Target	Win	True
322.963	0.3	Win2	0.5588000000000001	0.001	Yes	2.677	-0.001	3.0	GoodResponse	1	0.191	n/a	2	33	ButtonPress	Win	True
323.022	0.45	Win2	0.5588000000000001	n/a	Yes	2.677	n/a	n/a	GoodResponse	1	n/a	n/a	2	33	Blank	Win	True
323.471	1.45	Win2	0.5588000000000001	n/a	Yes	2.677	n/a	5.0	GoodResponse	1	0.02	322.491	2	33	Feedback	Win	True
324.921	2.677	Win2	0.5588000000000001	n/a	Yes	2.677	n/a	n/a	GoodResponse	1	0.0	n/a	2	33	ISIslide	Win	True
327.62	0.25	Lose2	0.5714	0.0	Yes	2.63	0.02	n/a	GoodResponse	0	n/a	n/a	2	34	Cue	AvoidedLoss	True
327.87	4.05	Lose2	0.5714	0.0	Yes	2.63	0.0	n/a	GoodResponse	0	n/a	n/a	2	34	Fixation	AvoidedLoss	True
331.919	0.26	Lose2	0.5714	0.001	Yes	2.63	-0.001	3.0	GoodResponse	0	0.163	331.082	2	34	Target	AvoidedLoss	True
332.082	0.3	Lose2	0.5714	0.001	Yes	2.63	-0.001	3.0	GoodResponse	0	0.163	n/a	2	34	ButtonPress	AvoidedLoss	True
332.185	0.44	Lose2	0.5714	n/a	Yes	2.63	n/a	n/a	GoodResponse	0	n/a	n/a	2	34	Blank	AvoidedLoss	True
332.618	1.45	Lose2	0.5714	n/a	Yes	2.63	n/a	5.0	GoodResponse	0	0.043	331.661	2	34	Feedback	AvoidedLoss	True
334.068	2.63	Lose2	0.5714	n/a	Yes	2.63	n/a	n/a	GoodResponse	0	0.0	n/a	2	34	ISIslide	AvoidedLoss	True
336.717	0.25	Lose2	0.5832999999999999	0.0	Yes	2.683	0.017	n/a	GoodResponse	0	n/a	n/a	2	35	Cue	AvoidedLoss	True
336.967	4.0	Lose2	0.5832999999999999	0.0	Yes	2.683	0.0	n/a	GoodResponse	0	n/a	n/a	2	35	Fixation	AvoidedLoss	True
340.965	0.27	Lose2	0.5832999999999999	0.002	Yes	2.683	-0.002	3.0	GoodResponse	0	0.203	340.168	2	35	Target	AvoidedLoss	True
341.168	0.3	Lose2	0.5832999999999999	0.002	Yes	2.683	-0.002	3.0	GoodResponse	0	0.203	n/a	2	35	ButtonPress	AvoidedLoss	True
341.249	0.43	Lose2	0.5832999999999999	n/a	Yes	2.683	n/a	n/a	GoodResponse	0	n/a	n/a	2	35	Blank	AvoidedLoss	True
341.665	1.45	Lose2	0.5832999999999999	n/a	Yes	2.683	n/a	5.0	GoodResponse	0	0.02	340.685	2	35	Feedback	AvoidedLoss	True
343.115	2.683	Lose2	0.5832999999999999	n/a	Yes	2.683	n/a	n/a	GoodResponse	0	0.0	n/a	2	35	ISIslide	AvoidedLoss	True
345.814	0.25	Control	0.5946	0.0	Yes	2.686	0.014	n/a	GoodResponse	0	n/a	n/a	2	36	Cue	Neutral	True
346.064	4.0	Control	0.5946	0.0	Yes	2.686	0.0	n/a	GoodResponse	0	n/a	n/a	2	36	Fixation	Neutral	True
350.062	0.28	Control	0.5946	0.002	Yes	2.686	-0.002	3.0	GoodResponse	0	0.215	349.277	2	36	Target	Neutral	True
350.277	0.3	Control	0.5946	0.002	Yes	2.686	-0.002	3.0	GoodResponse	0	0.215	n/a	2	36	ButtonPress	Neutral	True
350.346	0.42	Control	0.5946	n/a	Yes	2.686	n/a	n/a	GoodResponse	0	n/a	n/a	2	36	Blank	Neutral	True
350.762	1.45	Control	0.5946	n/a	Yes	2.686	n/a	5.0	GoodResponse	0	0.045	349.807	2	36	Feedback	Neutral	True
352.212	2.686	Control	0.5946	n/a	Yes	2.686	n/a	n/a	GoodResponse	0	0.0	n/a	2	36	ISIslide	Neutral	True
354.927	0.25	Win2	0.6053000000000001	0.0	Yes	2.873	0.027	n/a	GoodResponse	1	n/a	n/a	3	37	Cue	Win	True
355.177	4.0	Win2	0.6053000000000001	0.0	Yes	2.873	0.0	n/a	GoodResponse	1	n/a	n/a	3	37	Fixation	Win	True
359.176	0.29	Win2	0.6053000000000001	0.001	Yes	2.873	-0.001	3.0	GoodResponse	1	0.196	358.372	3	37	Target	Win	True
359.372	0.3	Win2	0.6053000000000001	0.001	Yes	2.873	-0.001	3.0	GoodResponse	1	0.196	n/a	3	37	ButtonPress	Win	True
359.476	0.41	Win2	0.6053000000000001	n/a	Yes	2.873	n/a	n/a	GoodResponse	1	n/a	n/a	3	37	Blank	Win	True
359.876	1.45	Win2	0.6053000000000001	n/a	Yes	2.873	n/a	5.0	GoodResponse	1	0.005	358.881	3	37	Feedback	Win	True
361.325	2.873	Win2	0.6053000000000001	n/a	Yes	2.873	n/a	n/a	GoodResponse	1	0.0	n/a	3	37	ISIslide	Win	True
364.224	0.25	Lose2	0.6154	0.0	Yes	2.826	0.024	n/a	GoodResponse	0	n/a	n/a	3	38	Cue	AvoidedLoss	True
364.474	3.95	Lose2	0.6154	0.0	Yes	2.826	0.0	n/a	GoodResponse	0	n/a	n/a	3	38	Fixation	AvoidedLoss	True
368.423	0.3	Lose2	0.6154	0.001	Yes	2.826	-0.001	3.0	GoodResponse	0	0.196	367.619	3	38	Target	AvoidedLoss	True
368.619	0.3	Lose2	0.6154	0.001	Yes	2.826	-0.001	3.0	GoodResponse	0	0.196	n/a	3	38	ButtonPress	AvoidedLoss	True
368.723	0.4	Lose2	0.6154	n/a	Yes	2.826	n/a	n/a	GoodResponse	0	n/a	n/a	3	38	Blank	AvoidedLoss	True
369.122	1.45	Lose2	0.6154	n/a	Yes	2.826	n/a	5.0	GoodResponse	0	0.027	368.149	3	38	Feedback	AvoidedLoss	True
370.572	2.826	Lose2	0.6154	n/a	Yes	2.826	n/a	n/a	GoodResponse	0	0.0	n/a	3	38	ISIslide	AvoidedLoss	True
373.421	0.25	Win2	0.625	0.0	Yes	2.979	0.021	n/a	GoodResponse	1	n/a	n/a	4	39	Cue	Win	True
373.671	4.1	Win2	0.625	0.0	Yes	2.979	0.0	n/a	GoodResponse	1	n/a	n/a	4	39	Fixation	Win	True
377.77	0.31	Win2	0.625	0.001	Yes	2.979	-0.001	3.0	GoodResponse	1	0.211	376.981	4	39	Target	Win	True
377.981	0.3	Win2	0.625	0.001	Yes	2.979	-0.001	3.0	GoodResponse	1	0.211	n/a	4	39	ButtonPress	Win	True
378.086	0.39	Win2	0.625	n/a	Yes	2.979	n/a	n/a	GoodResponse	1	n/a	n/a	4	39	Blank	Win	True
378.469	1.45	Win2	0.625	n/a	Yes	2.979	n/a	5.0	GoodResponse	1	0.046	377.515	4	39	Feedback	Win	True
379.919	2.979	Win2	0.625	n/a	Yes	2.979	n/a	n/a	GoodResponse	1	0.0	n/a	4	39	ISIslide	Win	True
382.918	0.25	Win2	0.6341	0.0	Yes	2.732	0.018	n/a	GoodResponse	1	n/a	n/a	5	40	Cue	Win	True
383.168	3.95	Win2	0.6341	0.0	Yes	2.732	0.0	n/a	GoodResponse	1	n/a	n/a	5	40	Fixation	Win	True
387.116	0.32	Win2	0.6341	0.002	Yes	2.732	-0.002	3.0	GoodResponse	1	0.206	386.322	5	40	Target	Win	True
387.322	0.3	Win2	0.6341	0.002	Yes	2.732	-0.002	3.0	GoodResponse	1	0.206	n/a	5	40	ButtonPress	Win	True
387.45	0.38	Win2	0.6341	n/a	Yes	2.732	n/a	n/a	GoodResponse	1	n/a	n/a	5	40	Blank	Win	True
387.816	1.45	Win2	0.6341	n/a	Yes	2.732	n/a	5.0	GoodResponse	1	0.016	386.832	5	40	Feedback	Win	True
389.266	2.732	Win2	0.6341	n/a	Yes	2.732	n/a	n/a	GoodResponse	1	0.0	n/a	5	40	ISIslide	Win	True
392.015	0.25	Win2	0.6429	0.0	Yes	2.785	0.015	n/a	GoodResponse	1	n/a	n/a	6	41	Cue	Win	True
392.265	3.9	Win2	0.6429	0.0	Yes	2.785	0.0	n/a	GoodResponse	1	n/a	n/a	6	41	Fixation	Win	True
396.163	0.33	Win2	0.6429	0.002	Yes	2.785	-0.002	3.0	GoodResponse	1	0.251	395.414	6	41	Target	Win	True
396.414	0.3	Win2	0.6429	0.002	Yes	2.785	-0.002	3.0	GoodResponse	1	0.251	n/a	6	41	ButtonPress	Win	True
396.496	0.37	Win2	0.6429	n/a	Yes	2.785	n/a	n/a	GoodResponse	1	n/a	n/a	6	41	Blank	Win	True
396.863	1.45	Win2	0.6429	n/a	Yes	2.785	n/a	5.0	GoodResponse	1	0.042	395.905	6	41	Feedback	Win	True
398.312	2.785	Win2	0.6429	n/a	Yes	2.785	n/a	n/a	GoodResponse	1	0.0	n/a	6	41	ISIslide	Win	True
401.112	0.25	Control	0.6512	0.0	Yes	2.938	0.012	n/a	GoodResponse	0	n/a	n/a	6	42	Cue	Neutral	True
401.361	3.85	Control	0.6512	0.001	Yes	2.938	-0.001	n/a	GoodResponse	0	n/a	n/a	6	42	Fixation	Neutral	True
405.21	0.34	Control	0.6512	0.002	Yes	2.938	-0.002	3.0	GoodResponse	0	0.109	404.319	6	42	Target	Neutral	True
405.319	0.3	Control	0.6512	0.002	Yes	2.938	-0.002	3.0	GoodResponse	0	0.109	n/a	6	42	ButtonPress	Neutral	True
405.56	0.36	Control	0.6512	n/a	Yes	2.938	n/a	n/a	GoodResponse	0	n/a	n/a	6	42	Blank	Neutral	True
405.91	1.45	Control	0.6512	n/a	Yes	2.938	n/a	5.0	GoodResponse	0	0.019	404.929	6	42	Feedback	Neutral	True
407.359	2.938	Control	0.6512	n/a	Yes	2.938	n/a	n/a	GoodResponse	0	0.0	n/a	6	42	ISIslide	Neutral	True
410.325	0.25	Win2	0.6591	0.0	Yes	3.175	0.025	n/a	GoodResponse	1	n/a	n/a	7	43	Cue	Win	True
410.575	4.0	Win2	0.6591	0.0	Yes	3.175	0.0	n/a	GoodResponse	1	n/a	n/a	7	43	Fixation	Win	True
414.574	0.35	Win2	0.6591	0.001	Yes	3.175	-0.001	3.0	GoodResponse	1	0.205	413.779	7	43	Target	Win	True
414.779	0.3	Win2	0.6591	0.001	Yes	3.175	-0.001	3.0	GoodResponse	1	0.205	n/a	7	43	ButtonPress	Win	True
414.923	0.35	Win2	0.6591	n/a	Yes	3.175	n/a	n/a	GoodResponse	1	n/a	n/a	7	43	Blank	Win	True
415.273	1.45	Win2	0.6591	n/a	Yes	3.175	n/a	5.0	GoodResponse	1	0.022	414.295	7	43	Feedback	Win	True
416.723	3.175	Win2	0.6591	n/a	Yes	3.175	n/a	n/a	GoodResponse	1	0.0	n/a	7	43	ISIslide	Win	True
419.922	0.25	Win2	0.6667000000000001	0.0	Yes	2.978	0.022	n/a	GoodResponse	1	n/a	n/a	8	44	Cue	Win	True
420.172	4.0	Win2	0.6667000000000001	0.0	Yes	2.978	0.0	n/a	GoodResponse	1	n/a	n/a	8	44	Fixation	Win	True
424.17	0.35	Win2	0.6667000000000001	0.002	Yes	2.978	-0.002	3.0	GoodResponse	1	0.252	423.422	8	44	Target	Win	True
424.422	0.3	Win2	0.6667000000000001	0.002	Yes	2.978	-0.002	3.0	GoodResponse	1	0.252	n/a	8	44	ButtonPress	Win	True
424.52	0.35	Win2	0.6667000000000001	n/a	Yes	2.978	n/a	n/a	GoodResponse	1	n/a	n/a	8	44	Blank	Win	True
424.87	1.45	Win2	0.6667000000000001	n/a	Yes	2.978	n/a	5.0	GoodResponse	1	0.035	423.905	8	44	Feedback	Win	True
426.32	2.978	Win2	0.6667000000000001	n/a	Yes	2.978	n/a	n/a	GoodResponse	1	0.0	n/a	8	44	ISIslide	Win	True
429.319	0.25	Control	0.6739	0.0	Yes	2.881	0.019	n/a	GoodResponse	0	n/a	n/a	8	45	Cue	Neutral	True
429.568	4.1	Control	0.6739	0.001	Yes	2.881	-0.001	n/a	GoodResponse	0	n/a	n/a	8	45	Fixation	Neutral	True
433.667	0.34	Control	0.6739	0.002	Yes	2.881	-0.002	3.0	GoodResponse	0	0.199	432.866	8	45	Target	Neutral	True
433.866	0.3	Control	0.6739	0.002	Yes	2.881	-0.002	3.0	GoodResponse	0	0.199	n/a	8	45	ButtonPress	Neutral	True
434.017	0.36	Control	0.6739	n/a	Yes	2.881	n/a	n/a	GoodResponse	0	n/a	n/a	8	45	Blank	Neutral	True
434.367	1.45	Control	0.6739	n/a	Yes	2.881	n/a	5.0	GoodResponse	0	0.001	433.368	8	45	Feedback	Neutral	True
435.816	2.881	Control	0.6739	n/a	Yes	2.881	n/a	n/a	GoodResponse	0	0.0	n/a	8	45	ISIslide	Neutral	True
438.715	0.25	Lose2	0.6809000000000001	0.0	Yes	3.385	0.015	n/a	GoodResponse	0	n/a	n/a	8	46	Cue	AvoidedLoss	True
438.965	4.0	Lose2	0.6809000000000001	0.0	Yes	3.385	0.0	n/a	GoodResponse	0	n/a	n/a	8	46	Fixation	AvoidedLoss	True
442.964	0.33	Lose2	0.6809000000000001	0.001	Yes	3.385	-0.001	3.0	GoodResponse	0	0.211	442.175	8	46	Target	AvoidedLoss	True
443.175	0.3	Lose2	0.6809000000000001	0.001	Yes	3.385	-0.001	3.0	GoodResponse	0	0.211	n/a	8	46	ButtonPress	AvoidedLoss	True
443.297	0.37	Lose2	0.6809000000000001	n/a	Yes	3.385	n/a	n/a	GoodResponse	0	n/a	n/a	8	46	Blank	AvoidedLoss	True
443.664	1.45	Lose2	0.6809000000000001	n/a	Yes	3.385	n/a	5.0	GoodResponse	0	0.022	442.686	8	46	Feedback	AvoidedLoss	True
445.113	3.385	Lose2	0.6809000000000001	n/a	Yes	3.385	n/a	n/a	GoodResponse	0	0.0	n/a	8	46	ISIslide	AvoidedLoss	True
448.512	0.25	Lose2	0.6875	0.0	Yes	2.688	0.012	n/a	GoodResponse	0	n/a	n/a	8	47	Cue	AvoidedLoss	True
448.762	4.0	Lose2	0.6875	0.0	Yes	2.688	0.0	n/a	GoodResponse	0	n/a	n/a	8	47	Fixation	AvoidedLoss	True
452.761	0.32	Lose2	0.6875	0.001	Yes	2.688	-0.001	3.0	GoodResponse	0	0.218	451.979	8	47	Target	AvoidedLoss	True
452.979	0.3	Lose2	0.6875	0.001	Yes	2.688	-0.001	3.0	GoodResponse	0	0.218	n/a	8	47	ButtonPress	AvoidedLoss	True
453.094	0.38	Lose2	0.6875	n/a	Yes	2.688	n/a	n/a	GoodResponse	0	n/a	n/a	8	47	Blank	AvoidedLoss	True
453.46	1.45	Lose2	0.6875	n/a	Yes	2.688	n/a	5.0	GoodResponse	0	0.031	452.491	8	47	Feedback	AvoidedLoss	True
454.91	2.688	Lose2	0.6875	n/a	Yes	2.688	n/a	n/a	GoodResponse	0	0.0	n/a	8	47	ISIslide	AvoidedLoss	True
457.626	0.25	Lose2	0.6939	0.0	Yes	3.024	0.026	n/a	GoodResponse	0	n/a	n/a	8	48	Cue	AvoidedLoss	True
457.875	3.95	Lose2	0.6939	0.001	Yes	3.024	-0.001	n/a	GoodResponse	0	n/a	n/a	8	48	Fixation	AvoidedLoss	True
461.824	0.31	Lose2	0.6939	0.002	Yes	3.024	-0.002	3.0	GoodResponse	0	0.24	461.064	8	48	Target	AvoidedLoss	True
462.064	0.3	Lose2	0.6939	0.002	Yes	3.024	-0.002	3.0	GoodResponse	0	0.24	n/a	8	48	ButtonPress	AvoidedLoss	True
462.141	0.39	Lose2	0.6939	n/a	Yes	3.024	n/a	n/a	GoodResponse	0	n/a	n/a	8	48	Blank	AvoidedLoss	True
462.524	1.45	Lose2	0.6939	n/a	Yes	3.024	n/a	5.0	GoodResponse	0	0.04	461.564	8	48	Feedback	AvoidedLoss	True
463.973	3.024	Lose2	0.6939	n/a	Yes	3.024	n/a	n/a	GoodResponse	0	0.0	n/a	8	48	ISIslide	AvoidedLoss	True
467.022	0.25	Control	0.7	0.0	Yes	2.878	0.022	n/a	GoodResponse	0	n/a	n/a	8	49	Cue	Neutral	True
467.272	4.0	Control	0.7	0.0	Yes	2.878	0.0	n/a	GoodResponse	0	n/a	n/a	8	49	Fixation	Neutral	True
471.271	0.3	Control	0.7	0.001	Yes	2.878	-0.001	3.0	GoodResponse	0	0.213	470.484	8	49	Target	Neutral	True
471.484	0.3	Control	0.7	0.001	Yes	2.878	-0.001	3.0	GoodResponse	0	0.213	n/a	8	49	ButtonPress	Neutral	True
471.571	0.4	Control	0.7	n/a	Yes	2.878	n/a	n/a	GoodResponse	0	n/a	n/a	8	49	Blank	Neutral	True
471.971	1.45	Control	0.7	n/a	Yes	2.878	n/a	5.0	GoodResponse	0	0.008	470.979	8	49	Feedback	Neutral	True
473.42	2.878	Control	0.7	n/a	Yes	2.878	n/a	n/a	GoodResponse	0	0.0	n/a	8	49	ISIslide	Neutral	True
476.319	0.25	Control	0.7059000000000001	0.0	Yes	2.781	0.019	n/a	GoodResponse	0	n/a	n/a	8	50	Cue	Neutral	True
476.569	4.0	Control	0.7059000000000001	0.0	Yes	2.781	0.0	n/a	GoodResponse	0	n/a	n/a	8	50	Fixation	Neutral	True
480.568	0.29	Control	0.7059000000000001	0.001	Yes	2.781	-0.001	3.0	GoodResponse	0	0.204	479.772	8	50	Target	Neutral	True
480.772	0.3	Control	0.7059000000000001	0.001	Yes	2.781	-0.001	3.0	GoodResponse	0	0.204	n/a	8	50	ButtonPress	Neutral	True
480.868	0.41	Control	0.7059000000000001	n/a	Yes	2.781	n/a	n/a	GoodResponse	0	n/a	n/a	8	50	Blank	Neutral	True
481.267	1.45	Control	0.7059000000000001	n/a	Yes	2.781	n/a	5.0	GoodResponse	0	0.028	480.295	8	50	Feedback	Neutral	True
482.717	2.781	Control	0.7059000000000001	n/a	Yes	2.781	n/a	n/a	GoodResponse	0	0.0	n/a	8	50	ISIslide	Neutral	True
485.516	0.25	Control	0.7115	0.0	Yes	2.734	0.016	n/a	GoodResponse	0	n/a	n/a	8	51	Cue	Neutral	True
485.766	3.95	Control	0.7115	0.0	Yes	2.734	0.0	n/a	GoodResponse	0	n/a	n/a	8	51	Fixation	Neutral	True
489.715	0.28	Control	0.7115	0.001	Yes	2.734	-0.001	3.0	GoodResponse	0	0.228	488.943	8	51	Target	Neutral	True
489.943	0.3	Control	0.7115	0.001	Yes	2.734	-0.001	3.0	GoodResponse	0	0.228	n/a	8	51	ButtonPress	Neutral	True
489.998	0.42	Control	0.7115	n/a	Yes	2.734	n/a	n/a	GoodResponse	0	n/a	n/a	8	51	Blank	Neutral	True
490.414	1.45	Control	0.7115	n/a	Yes	2.734	n/a	5.0	GoodResponse	0	0.005	489.419	8	51	Feedback	Neutral	True
491.864	2.734	Control	0.7115	n/a	Yes	2.734	n/a	n/a	GoodResponse	0	0.0	n/a	8	51	ISIslide	Neutral	True
494.613	0.25	Control	0.7170000000000001	0.0	Yes	2.637	0.013	n/a	GoodResponse	0	n/a	n/a	8	52	Cue	Neutral	True
494.863	4.05	Control	0.7170000000000001	0.0	Yes	2.637	0.0	n/a	GoodResponse	0	n/a	n/a	8	52	Fixation	Neutral	True
498.911	0.27	Control	0.7170000000000001	0.002	Yes	2.637	-0.002	3.0	GoodResponse	0	0.22	498.131	8	52	Target	Neutral	True
499.131	0.3	Control	0.7170000000000001	0.002	Yes	2.637	-0.002	3.0	GoodResponse	0	0.22	n/a	8	52	ButtonPress	Neutral	True
499.195	0.43	Control	0.7170000000000001	n/a	Yes	2.637	n/a	n/a	GoodResponse	0	n/a	n/a	8	52	Blank	Neutral	True
499.611	1.45	Control	0.7170000000000001	n/a	Yes	2.637	n/a	5.0	GoodResponse	0	0.026	498.637	8	52	Feedback	Neutral	True
501.061	2.637	Control	0.7170000000000001	n/a	Yes	2.637	n/a	n/a	GoodResponse	0	0.0	n/a	8	52	ISIslide	Neutral	True
503.726	0.25	Win2	0.7222	0.0	Yes	2.924	0.026	n/a	GoodResponse	1	n/a	n/a	9	53	Cue	Win	True
503.976	4.05	Win2	0.7222	0.0	Yes	2.924	0.0	n/a	GoodResponse	1	n/a	n/a	9	53	Fixation	Win	True
508.025	0.26	Win2	0.7222	0.001	Yes	2.924	-0.001	3.0	GoodResponse	1	0.216	507.241	9	53	Target	Win	True
508.241	0.3	Win2	0.7222	0.001	Yes	2.924	-0.001	3.0	GoodResponse	1	0.216	n/a	9	53	ButtonPress	Win	True
508.291	0.44	Win2	0.7222	n/a	Yes	2.924	n/a	n/a	GoodResponse	1	n/a	n/a	9	53	Blank	Win	True
508.725	1.45	Win2	0.7222	n/a	Yes	2.924	n/a	5.0	GoodResponse	1	0.034	507.759	9	53	Feedback	Win	True
510.174	2.924	Win2	0.7222	n/a	Yes	2.924	n/a	n/a	GoodResponse	1	0.0	n/a	9	53	ISIslide	Win	True
513.123	0.25	Win2	0.7273000000000001	0.0	Yes	2.727	0.023	n/a	GoodResponse	1	n/a	n/a	10	54	Cue	Win	True
513.373	3.95	Win2	0.7273000000000001	0.0	Yes	2.727	0.0	n/a	GoodResponse	1	n/a	n/a	10	54	Fixation	Win	True
517.322	0.25	Win2	0.7273000000000001	0.001	Yes	2.727	-0.001	3.0	GoodResponse	1	0.242	516.564	10	54	Target	Win	True
517.564	0.3	Win2	0.7273000000000001	0.001	Yes	2.727	-0.001	3.0	GoodResponse	1	0.242	n/a	10	54	ButtonPress	Win	True
517.572	0.45	Win2	0.7273000000000001	n/a	Yes	2.727	n/a	n/a	GoodResponse	1	n/a	n/a	10	54	Blank	Win	True
518.021	1.45	Win2	0.7273000000000001	n/a	Yes	2.727	n/a	5.0	GoodResponse	1	0.006	517.027	10	54	Feedback	Win	True
519.471	2.727	Win2	0.7273000000000001	n/a	Yes	2.727	n/a	n/a	GoodResponse	1	0.0	n/a	10	54	ISIslide	Win	True
522.22	0.25	Control	0.7143	0.0	No	3.03	0.02	n/a	NoResponse	0	n/a	n/a	10	55	Cue	Neutral	True
522.47	3.95	Control	0.7143	0.0	No	3.03	0.0	n/a	NoResponse	0	n/a	n/a	10	55	Fixation	Neutral	True
526.419	0.24	Control	0.7143	0.001	No	3.03	-0.001	3.0	NoResponse	0	0.266	525.685	10	55	Target	Neutral	True
526.669	0.46	Control	0.7143	n/a	No	3.03	n/a	n/a	NoResponse	0	n/a	n/a	10	55	Blank	Neutral	True
526.685	0.3	Control	0.7143	0.001	No	3.03	-0.001	3.0	NoResponse	0	0.266	n/a	10	55	ButtonPress	Neutral	True
527.118	1.45	Control	0.7143	n/a	No	3.03	n/a	5.0	NoResponse	0	0.031	526.149	10	55	Feedback	Neutral	True
528.568	3.03	Control	0.7143	n/a	No	3.03	n/a	n/a	NoResponse	0	0.0	n/a	10	55	ISIslide	Neutral	True
531.617	0.25	Control	0.7018000000000001	0.0	No	2.833	0.017	n/a	NoResponse	0	n/a	n/a	10	56	Cue	Neutral	True
531.867	3.95	Control	0.7018000000000001	0.0	No	2.833	0.0	n/a	NoResponse	0	n/a	n/a	10	56	Fixation	Neutral	True
535.815	0.23	Control	0.7018000000000001	0.002	No	2.833	-0.002	3.0	NoResponse	0	0.252	535.067	10	56	Target	Neutral	True
536.049	0.47	Control	0.7018000000000001	n/a	No	2.833	n/a	n/a	NoResponse	0	n/a	n/a	10	56	Blank	Neutral	True
536.067	0.3	Control	0.7018000000000001	0.002	No	2.833	-0.002	3.0	NoResponse	0	0.252	n/a	10	56	ButtonPress	Neutral	True
536.515	1.45	Control	0.7018000000000001	n/a	No	2.833	n/a	5.0	NoResponse	0	0.049	535.564	10	56	Feedback	Neutral	True
537.965	2.833	Control	0.7018000000000001	n/a	No	2.833	n/a	n/a	NoResponse	0	0.0	n/a	10	56	ISIslide	Neutral	True
540.814	0.25	Control	0.7069	0.0	Yes	3.486	0.014	n/a	GoodResponse	0	n/a	n/a	10	57	Cue	Neutral	True
541.064	4.0	Control	0.7069	0.0	Yes	3.486	0.0	n/a	GoodResponse	0	n/a	n/a	10	57	Fixation	Neutral	True
545.062	0.22	Control	0.7069	0.002	Yes	3.486	-0.002	3.0	GoodResponse	0	0.214	544.276	10	57	Target	Neutral	True
545.276	0.3	Control	0.7069	0.002	Yes	3.486	-0.002	3.0	GoodResponse	0	0.214	n/a	10	57	ButtonPress	Neutral	True
545.295	0.48	Control	0.7069	n/a	Yes	3.486	n/a	n/a	GoodResponse	0	n/a	n/a	10	57	Blank	Neutral	True
545.762	1.45	Control	0.7069	n/a	Yes	3.486	n/a	5.0	GoodResponse	0	0.021	544.783	10	57	Feedback	Neutral	True
547.212	3.486	Control	0.7069	n/a	Yes	3.486	n/a	n/a	GoodResponse	0	0.0	n/a	10	57	ISIslide	Neutral	True
550.727	0.25	Win2	0.7119	0.0	Yes	2.723	0.027	n/a	GoodResponse	1	n/a	n/a	11	58	Cue	Win	True
550.977	4.05	Win2	0.7119	0.0	Yes	2.723	0.0	n/a	GoodResponse	1	n/a	n/a	11	58	Fixation	Win	True
555.025	0.21	Win2	0.7119	0.002	Yes	2.723	-0.002	3.0	GoodResponse	1	0.208	554.233	11	58	Target	Win	True
555.233	0.3	Win2	0.7119	0.002	Yes	2.723	-0.002	3.0	GoodResponse	1	0.208	n/a	11	58	ButtonPress	Win	True
555.242	0.49	Win2	0.7119	n/a	Yes	2.723	n/a	n/a	GoodResponse	1	n/a	n/a	11	58	Blank	Win	True
555.725	1.45	Win2	0.7119	n/a	Yes	2.723	n/a	5.0	GoodResponse	1	0.009	554.734	11	58	Feedback	Win	True
557.175	2.723	Win2	0.7119	n/a	Yes	2.723	n/a	n/a	GoodResponse	1	0.0	n/a	11	58	ISIslide	Win	True
559.924	0.25	Lose2	0.7	0.0	No	2.676	0.024	n/a	NoResponse	-1	n/a	n/a	10	59	Cue	Loss	True
560.174	4.0	Lose2	0.7	0.0	No	2.676	0.0	n/a	NoResponse	-1	n/a	n/a	10	59	Fixation	Loss	True
564.172	0.2	Lose2	0.7	0.002	No	2.676	-0.002	3.0	NoResponse	-1	0.225	563.397	10	59	Target	Loss	True
564.372	0.5	Lose2	0.7	n/a	No	2.676	n/a	n/a	NoResponse	-1	n/a	n/a	10	59	Blank	Loss	True
564.397	0.3	Lose2	0.7	0.002	No	2.676	-0.002	3.0	NoResponse	-1	0.225	n/a	10	59	ButtonPress	Loss	True
564.872	1.45	Lose2	0.7	n/a	No	2.676	n/a	5.0	NoResponse	-1	0.033	563.905	10	59	Feedback	Loss	True
566.322	2.676	Lose2	0.7	n/a	No	2.676	n/a	n/a	NoResponse	-1	0.0	n/a	10	59	ISIslide	Loss	True
569.021	0.25	Control	0.6884999999999999	0.0	No	2.679	0.021	n/a	NoResponse	0	n/a	n/a	10	60	Cue	Neutral	True
569.271	4.0	Control	0.6884999999999999	0.0	No	2.679	0.0	n/a	NoResponse	0	n/a	n/a	10	60	Fixation	Neutral	True
573.269	0.19	Control	0.6884999999999999	0.002	No	2.679	-0.002	3.0	NoResponse	0	0.206	572.475	10	60	Target	Neutral	True
573.469	0.51	Control	0.6884999999999999	n/a	No	2.679	n/a	n/a	NoResponse	0	n/a	n/a	10	60	Blank	Neutral	True
573.475	0.3	Control	0.6884999999999999	0.002	No	2.679	-0.002	3.0	NoResponse	0	0.206	n/a	10	60	ButtonPress	Neutral	True
573.969	1.45	Control	0.6884999999999999	n/a	No	2.679	n/a	5.0	NoResponse	0	0.009	572.978	10	60	Feedback	Neutral	True
575.419	2.679	Control	0.6884999999999999	n/a	No	2.679	n/a	n/a	NoResponse	0	0.0	n/a	10	60	ISIslide	Neutral	True
578.118	0.25	Lose2	0.6774	0.0	No	2.982	0.018	n/a	NoResponse	-1	n/a	n/a	9	61	Cue	Loss	True
578.368	4.0	Lose2	0.6774	0.0	No	2.982	0.0	n/a	NoResponse	-1	n/a	n/a	9	61	Fixation	Loss	True
582.366	0.18	Lose2	0.6774	0.002	No	2.982	-0.002	3.0	NoResponse	-1	0.211	581.577	9	61	Target	Loss	True
582.549	0.52	Lose2	0.6774	n/a	No	2.982	n/a	n/a	NoResponse	-1	n/a	n/a	9	61	Blank	Loss	True
582.577	0.3	Lose2	0.6774	0.002	No	2.982	-0.002	3.0	NoResponse	-1	0.211	n/a	9	61	ButtonPress	Loss	True
583.066	1.45	Lose2	0.6774	n/a	No	2.982	n/a	5.0	NoResponse	-1	0.034	582.1	9	61	Feedback	Loss	True
584.515	2.982	Lose2	0.6774	n/a	No	2.982	n/a	n/a	NoResponse	-1	0.0	n/a	9	61	ISIslide	Loss	True
587.514	0.25	Lose2	0.6667000000000001	0.0	No	2.886	0.014	n/a	NoResponse	-1	n/a	n/a	8	62	Cue	Loss	False
587.764	3.9	Lose2	0.6667000000000001	0.0	No	2.886	0.0	3.0	NoResponse	-1	3.853	590.617	8	62	Fixation	Loss	False
591.617	0.3	Lose2	0.6667000000000001	0.0	No	2.886	0.0	3.0	NoResponse	-1	3.853	n/a	8	62	ButtonPress	Loss	False
591.663	0.17	Lose2	0.6667000000000001	0.001	No	2.886	-0.001	3.0	NoResponse	-1	0.241	590.904	8	62	Target	Loss	False
591.83	0.53	Lose2	0.6667000000000001	n/a	No	2.886	n/a	n/a	NoResponse	-1	n/a	n/a	8	62	Blank	Loss	False
591.904	0.3	Lose2	0.6667000000000001	0.001	No	2.886	-0.001	3.0	NoResponse	-1	0.241	n/a	8	62	ButtonPress	Loss	False
592.363	1.45	Lose2	0.6667000000000001	n/a	No	2.886	n/a	5.0	NoResponse	-1	0.005	591.368	8	62	Feedback	Loss	False
593.812	2.886	Lose2	0.6667000000000001	n/a	No	2.886	n/a	n/a	NoResponse	-1	0.0	n/a	8	62	ISIslide	Loss	False
596.728	0.25	Lose2	0.6562	0.0	No	2.622	0.028	n/a	NoResponse	-1	n/a	n/a	7	63	Cue	Loss	True
596.978	4.05	Lose2	0.6562	0.0	No	2.622	0.0	n/a	NoResponse	-1	n/a	n/a	7	63	Fixation	Loss	True
601.026	0.16	Lose2	0.6562	0.002	No	2.622	-0.002	3.0	NoResponse	-1	0.235	600.261	7	63	Target	Loss	True
601.193	0.54	Lose2	0.6562	n/a	No	2.622	n/a	n/a	NoResponse	-1	n/a	n/a	7	63	Blank	Loss	True
601.261	0.3	Lose2	0.6562	0.002	No	2.622	-0.002	3.0	NoResponse	-1	0.235	n/a	7	63	ButtonPress	Loss	True
601.726	1.45	Lose2	0.6562	n/a	No	2.622	n/a	5.0	NoResponse	-1	0.008	600.734	7	63	Feedback	Loss	True
603.176	2.622	Lose2	0.6562	n/a	No	2.622	n/a	n/a	NoResponse	-1	0.0	n/a	7	63	ISIslide	Loss	True
605.825	0.25	Win2	0.6462	0.0	No	3.125	0.025	n/a	NoResponse	0	n/a	n/a	7	64	Cue	MissedWin	True
606.075	4.15	Win2	0.6462	0.0	No	3.125	0.0	n/a	NoResponse	0	n/a	n/a	7	64	Fixation	MissedWin	True
610.223	0.16	Win2	0.6462	0.002	No	3.125	-0.002	3.0	NoResponse	0	0.209	609.432	7	64	Target	MissedWin	True
610.39	0.54	Win2	0.6462	n/a	No	3.125	n/a	n/a	NoResponse	0	n/a	n/a	7	64	Blank	MissedWin	True
610.432	0.3	Win2	0.6462	0.002	No	3.125	-0.002	3.0	NoResponse	0	0.209	n/a	7	64	ButtonPress	MissedWin	True
610.923	1.45	Win2	0.6462	n/a	No	3.125	n/a	5.0	NoResponse	0	0.031	609.954	7	64	Feedback	MissedWin	True
612.373	3.125	Win2	0.6462	n/a	No	3.125	n/a	n/a	NoResponse	0	0.0	n/a	7	64	ISIslide	MissedWin	True
615.521	0.25	Control	0.6364	0.001	No	2.779	0.021	n/a	NoResponse	0	n/a	n/a	7	65	Cue	Neutral	True
615.771	4.0	Control	0.6364	0.0	No	2.779	0.0	n/a	NoResponse	0	n/a	n/a	7	65	Fixation	Neutral	True
619.77	0.17	Control	0.6364	0.001	No	2.779	-0.001	3.0	NoResponse	0	0.275	619.045	7	65	Target	Neutral	True
619.937	0.53	Control	0.6364	n/a	No	2.779	n/a	n/a	NoResponse	0	n/a	n/a	7	65	Blank	Neutral	True
620.045	0.3	Control	0.6364	0.001	No	2.779	-0.001	3.0	NoResponse	0	0.275	n/a	7	65	ButtonPress	Neutral	True
620.47	1.45	Control	0.6364	n/a	No	2.779	n/a	5.0	NoResponse	0	0.045	619.515	7	65	Feedback	Neutral	True
621.919	2.779	Control	0.6364	n/a	No	2.779	n/a	n/a	NoResponse	0	0.0	n/a	7	65	ISIslide	Neutral	True
624.718	0.25	Win2	0.6418	0.0	Yes	2.782	0.018	n/a	GoodResponse	1	n/a	n/a	8	66	Cue	Win	True
624.968	3.9	Win2	0.6418	0.0	Yes	2.782	0.0	n/a	GoodResponse	1	n/a	n/a	8	66	Fixation	Win	True
628.867	0.18	Win2	0.6418	0.001	Yes	2.782	-0.001	3.0	GoodResponse	1	0.159	628.026	8	66	Target	Win	True
629.026	0.3	Win2	0.6418	0.001	Yes	2.782	-0.001	3.0	GoodResponse	1	0.159	n/a	8	66	ButtonPress	Win	True
629.05	0.52	Win2	0.6418	n/a	Yes	2.782	n/a	n/a	GoodResponse	1	n/a	n/a	8	66	Blank	Win	True
629.567	1.45	Win2	0.6418	n/a	Yes	2.782	n/a	5.0	GoodResponse	1	0.02	628.587	8	66	Feedback	Win	True
631.016	2.782	Win2	0.6418	n/a	Yes	2.782	n/a	n/a	GoodResponse	1	0.0	n/a	8	66	ISIslide	Win	True
633.815	0.25	Control	0.6324000000000001	0.0	No	2.735	0.015	n/a	NoResponse	0	n/a	n/a	8	67	Cue	Neutral	False
634.065	3.95	Control	0.6324000000000001	0.0	No	2.735	0.0	n/a	NoResponse	0	n/a	n/a	8	67	Fixation	Neutral	False
638.014	0.19	Control	0.6324000000000001	0.001	No	2.735	-0.001	n/a	NoResponse	0	n/a	n/a	8	67	Target	Neutral	False
638.214	0.51	Control	0.6324000000000001	n/a	No	2.735	n/a	n/a	NoResponse	0	n/a	n/a	8	67	Blank	Neutral	False
638.714	1.45	Control	0.6324000000000001	n/a	No	2.735	n/a	5.0	NoResponse	0	0.044	637.758	8	67	Feedback	Neutral	False
640.163	2.735	Control	0.6324000000000001	n/a	No	2.735	n/a	n/a	NoResponse	0	0.0	n/a	8	67	ISIslide	Neutral	False
642.929	0.25	Win2	0.6377	0.0	Yes	3.071	0.029	n/a	GoodResponse	1	n/a	n/a	9	68	Cue	Win	True
643.179	4.0	Win2	0.6377	0.0	Yes	3.071	0.0	n/a	GoodResponse	1	n/a	n/a	9	68	Fixation	Win	True
647.177	0.2	Win2	0.6377	0.002	Yes	3.071	-0.002	3.0	GoodResponse	1	0.191	646.368	9	68	Target	Win	True
647.368	0.3	Win2	0.6377	0.002	Yes	3.071	-0.002	3.0	GoodResponse	1	0.191	n/a	9	68	ButtonPress	Win	True
647.377	0.5	Win2	0.6377	n/a	Yes	3.071	n/a	n/a	GoodResponse	1	n/a	n/a	9	68	Blank	Win	True
647.877	1.45	Win2	0.6377	n/a	Yes	3.071	n/a	5.0	GoodResponse	1	0.005	646.882	9	68	Feedback	Win	True
649.327	3.071	Win2	0.6377	n/a	Yes	3.071	n/a	n/a	GoodResponse	1	0.0	n/a	9	68	ISIslide	Win	True
652.425	0.25	Win2	0.6286	0.001	No	3.225	0.025	n/a	LatePress	0	n/a	n/a	9	69	Cue	MissedWin	True
652.675	3.95	Win2	0.6286	0.0	No	3.225	0.0	n/a	LatePress	0	n/a	n/a	9	69	Fixation	MissedWin	True
656.624	0.21	Win2	0.6286	0.001	No	3.225	-0.001	3.0	LatePress	0	0.211	655.835	9	69	Target	MissedWin	True
656.835	0.3	Win2	0.6286	0.001	No	3.225	-0.001	3.0	LatePress	0	0.211	n/a	9	69	ButtonPress	MissedWin	True
656.841	0.49	Win2	0.6286	n/a	No	3.225	n/a	n/a	LatePress	0	n/a	n/a	9	69	Blank	MissedWin	True
657.324	1.45	Win2	0.6286	n/a	No	3.225	n/a	5.0	LatePress	0	0.02	656.344	9	69	Feedback	MissedWin	True
658.773	3.225	Win2	0.6286	n/a	No	3.225	n/a	n/a	LatePress	0	0.0	n/a	9	69	ISIslide	MissedWin	True
662.022	0.25	Lose2	0.6338	0.0	Yes	3.028	0.022	n/a	GoodResponse	0	n/a	n/a	9	70	Cue	AvoidedLoss	True
662.272	4.05	Lose2	0.6338	0.0	Yes	3.028	0.0	n/a	GoodResponse	0	n/a	n/a	9	70	Fixation	AvoidedLoss	True
666.321	0.22	Lose2	0.6338	0.001	Yes	3.028	-0.001	3.0	GoodResponse	0	0.202	665.523	9	70	Target	AvoidedLoss	True
666.523	0.3	Lose2	0.6338	0.001	Yes	3.028	-0.001	3.0	GoodResponse	0	0.202	n/a	9	70	ButtonPress	AvoidedLoss	True
666.537	0.48	Lose2	0.6338	n/a	Yes	3.028	n/a	n/a	GoodResponse	0	n/a	n/a	9	70	Blank	AvoidedLoss	True
667.021	1.45	Lose2	0.6338	n/a	Yes	3.028	n/a	5.0	GoodResponse	0	0.03	666.051	9	70	Feedback	AvoidedLoss	True
668.47	3.028	Lose2	0.6338	n/a	Yes	3.028	n/a	n/a	GoodResponse	0	0.0	n/a	9	70	ISIslide	AvoidedLoss	True
671.519	0.25	Win2	0.6389	0.0	Yes	2.731	0.019	n/a	GoodResponse	1	n/a	n/a	10	71	Cue	Win	True
671.769	4.05	Win2	0.6389	0.0	Yes	2.731	0.0	n/a	GoodResponse	1	n/a	n/a	10	71	Fixation	Win	True
675.817	0.23	Win2	0.6389	0.002	Yes	2.731	-0.002	3.0	GoodResponse	1	0.209	675.026	10	71	Target	Win	True
676.026	0.3	Win2	0.6389	0.002	Yes	2.731	-0.002	3.0	GoodResponse	1	0.209	n/a	10	71	ButtonPress	Win	True
676.051	0.47	Win2	0.6389	n/a	Yes	2.731	n/a	n/a	GoodResponse	1	n/a	n/a	10	71	Blank	Win	True
676.517	1.45	Win2	0.6389	n/a	Yes	2.731	n/a	5.0	GoodResponse	1	0.047	675.564	10	71	Feedback	Win	True
677.967	2.731	Win2	0.6389	n/a	Yes	2.731	n/a	n/a	GoodResponse	1	0.0	n/a	10	71	ISIslide	Win	True
680.716	0.25	Win2	0.6437999999999999	0.0	Yes	2.784	0.016	n/a	GoodResponse	1	n/a	n/a	11	72	Cue	Win	True
680.966	4.1	Win2	0.6437999999999999	0.0	Yes	2.784	0.0	n/a	GoodResponse	1	n/a	n/a	11	72	Fixation	Win	True
685.064	0.24	Win2	0.6437999999999999	0.002	Yes	2.784	-0.002	3.0	GoodResponse	1	0.216	684.28	11	72	Target	Win	True
685.28	0.3	Win2	0.6437999999999999	0.002	Yes	2.784	-0.002	3.0	GoodResponse	1	0.216	n/a	11	72	ButtonPress	Win	True
685.314	0.46	Win2	0.6437999999999999	n/a	Yes	2.784	n/a	n/a	GoodResponse	1	n/a	n/a	11	72	Blank	Win	True
685.764	1.45	Win2	0.6437999999999999	n/a	Yes	2.784	n/a	5.0	GoodResponse	1	0.019	684.783	11	72	Feedback	Win	True
687.214	2.784	Win2	0.6437999999999999	n/a	Yes	2.784	n/a	n/a	GoodResponse	1	0.0	n/a	11	72	ISIslide	Win	True
690.013	0.25	Win2	0.6486	0.0	Yes	2.687	0.013	n/a	GoodResponse	1	n/a	n/a	12	73	Cue	Win	True
690.263	4.0	Win2	0.6486	0.0	Yes	2.687	0.0	n/a	GoodResponse	1	n/a	n/a	12	73	Fixation	Win	True
694.261	0.25	Win2	0.6486	0.002	Yes	2.687	-0.002	3.0	GoodResponse	1	0.23	693.491	12	73	Target	Win	True
694.491	0.3	Win2	0.6486	0.002	Yes	2.687	-0.002	3.0	GoodResponse	1	0.23	n/a	12	73	ButtonPress	Win	True
694.511	0.45	Win2	0.6486	n/a	Yes	2.687	n/a	n/a	GoodResponse	1	n/a	n/a	12	73	Blank	Win	True
694.961	1.45	Win2	0.6486	n/a	Yes	2.687	n/a	5.0	GoodResponse	1	0.042	694.003	12	73	Feedback	Win	True
696.41	2.687	Win2	0.6486	n/a	Yes	2.687	n/a	n/a	GoodResponse	1	0.0	n/a	12	73	ISIslide	Win	True
699.126	0.25	Lose2	0.6533	0.0	Yes	2.624	0.026	n/a	GoodResponse	0	n/a	n/a	12	74	Cue	AvoidedLoss	True
699.376	4.05	Lose2	0.6533	0.0	Yes	2.624	0.0	n/a	GoodResponse	0	n/a	n/a	12	74	Fixation	AvoidedLoss	True
703.425	0.26	Lose2	0.6533	0.001	Yes	2.624	-0.001	3.0	GoodResponse	0	0.21	702.635	12	74	Target	AvoidedLoss	True
703.635	0.3	Lose2	0.6533	0.001	Yes	2.624	-0.001	3.0	GoodResponse	0	0.21	n/a	12	74	ButtonPress	AvoidedLoss	True
703.691	0.44	Lose2	0.6533	n/a	Yes	2.624	n/a	n/a	GoodResponse	0	n/a	n/a	12	74	Blank	AvoidedLoss	True
704.124	1.45	Lose2	0.6533	n/a	Yes	2.624	n/a	5.0	GoodResponse	0	0.001	703.125	12	74	Feedback	AvoidedLoss	True
705.574	2.624	Lose2	0.6533	n/a	Yes	2.624	n/a	n/a	GoodResponse	0	0.0	n/a	12	74	ISIslide	AvoidedLoss	True
708.223	0.25	Lose2	0.6579	0.0	Yes	2.927	0.023	n/a	GoodResponse	0	n/a	n/a	12	75	Cue	AvoidedLoss	True
708.473	3.95	Lose2	0.6579	0.0	Yes	2.927	0.0	n/a	GoodResponse	0	n/a	n/a	12	75	Fixation	AvoidedLoss	True
712.422	0.27	Lose2	0.6579	0.001	Yes	2.927	-0.001	3.0	GoodResponse	0	0.23	711.652	12	75	Target	AvoidedLoss	True
712.652	0.3	Lose2	0.6579	0.001	Yes	2.927	-0.001	3.0	GoodResponse	0	0.23	n/a	12	75	ButtonPress	AvoidedLoss	True
712.705	0.43	Lose2	0.6579	n/a	Yes	2.927	n/a	n/a	GoodResponse	0	n/a	n/a	12	75	Blank	AvoidedLoss	True
713.121	1.45	Lose2	0.6579	n/a	Yes	2.927	n/a	5.0	GoodResponse	0	0.027	712.148	12	75	Feedback	AvoidedLoss	True
714.571	2.927	Lose2	0.6579	n/a	Yes	2.927	n/a	n/a	GoodResponse	0	0.0	n/a	12	75	ISIslide	AvoidedLoss	True
717.52	0.25	Control	0.6623	0.0	Yes	3.23	0.02	n/a	GoodResponse	0	n/a	n/a	12	76	Cue	Neutral	True
717.77	4.05	Control	0.6623	0.0	Yes	3.23	0.0	n/a	GoodResponse	0	n/a	n/a	12	76	Fixation	Neutral	True
721.818	0.27	Control	0.6623	0.002	Yes	3.23	-0.002	3.0	GoodResponse	0	0.263	721.081	12	76	Target	Neutral	True
722.081	0.3	Control	0.6623	0.002	Yes	3.23	-0.002	3.0	GoodResponse	0	0.263	n/a	12	76	ButtonPress	Neutral	True
722.102	0.43	Control	0.6623	n/a	Yes	3.23	n/a	n/a	GoodResponse	0	n/a	n/a	12	76	Blank	Neutral	True
722.518	1.45	Control	0.6623	n/a	Yes	3.23	n/a	5.0	GoodResponse	0	0.045	721.563	12	76	Feedback	Neutral	True
723.968	3.23	Control	0.6623	n/a	Yes	3.23	n/a	n/a	GoodResponse	0	0.0	n/a	12	76	ISIslide	Neutral	True
727.217	0.25	Lose2	0.6667000000000001	0.0	Yes	2.583	0.017	n/a	GoodResponse	0	n/a	n/a	12	77	Cue	AvoidedLoss	True
727.466	3.95	Lose2	0.6667000000000001	0.001	Yes	2.583	-0.001	n/a	GoodResponse	0	n/a	n/a	12	77	Fixation	AvoidedLoss	True
731.415	0.27	Lose2	0.6667000000000001	0.002	Yes	2.583	-0.002	3.0	GoodResponse	0	0.228	730.643	12	77	Target	AvoidedLoss	True
731.643	0.3	Lose2	0.6667000000000001	0.002	Yes	2.583	-0.002	3.0	GoodResponse	0	0.228	n/a	12	77	ButtonPress	AvoidedLoss	True
731.698	0.43	Lose2	0.6667000000000001	n/a	Yes	2.583	n/a	n/a	GoodResponse	0	n/a	n/a	12	77	Blank	AvoidedLoss	True
732.115	1.45	Lose2	0.6667000000000001	n/a	Yes	2.583	n/a	5.0	GoodResponse	0	0.009	731.124	12	77	Feedback	AvoidedLoss	True
733.564	2.583	Lose2	0.6667000000000001	n/a	Yes	2.583	n/a	n/a	GoodResponse	0	0.0	n/a	12	77	ISIslide	AvoidedLoss	True
