onset	duration	cue_type	current_mean_accuracy	duration_error	is_hit	isi_adjusted	onset_delay	response	response_type	reward	rt	rt_time	total_reward	trial_number	trial_phase	trial_type	one_press
11.111	0.25	Control	1.0	0.0	Yes	2.939	0.011	n/a	GoodResponse	0	n/a	n/a	0	0	Cue	Neutral	True
11.361	3.85	Control	1.0	0.0	Yes	2.939	0.0	n/a	GoodResponse	0	n/a	n/a	0	0	Fixation	Neutral	True
15.223	0.4	Control	1.0	0.0	Yes	2.939	0.012	2.0	GoodResponse	0	0.29	14.513	0	0	Target	Neutral	True
15.513	0.3	Control	1.0	0.0	Yes	2.939	0.012	2.0	GoodResponse	0	0.29	n/a	0	0	ButtonPress	Neutral	True
15.607	0.3	Control	1.0	n/a	Yes	2.939	n/a	n/a	GoodResponse	0	n/a	n/a	0	0	Blank	Neutral	True
15.908	1.45	Control	1.0	n/a	Yes	2.939	n/a	5.0	GoodResponse	0	0.019	14.927	0	0	Feedback	Neutral	True
17.363	2.939	Control	1.0	n/a	Yes	2.939	n/a	n/a	GoodResponse	0	0.0	n/a	0	0	ISIslide	Neutral	True
20.321	0.25	Lose2	1.0	0.0	Yes	2.779	0.021	n/a	GoodResponse	0	n/a	n/a	0	1	Cue	AvoidedLoss	True
20.572	4.0	Lose2	1.0	0.0	Yes	2.779	0.001	n/a	GoodResponse	0	n/a	n/a	0	1	Fixation	AvoidedLoss	True
24.567	0.39	Lose2	1.0	0.004	Yes	2.779	-0.004	2.0	GoodResponse	0	0.197	23.764	0	1	Target	AvoidedLoss	True
24.764	0.3	Lose2	1.0	0.004	Yes	2.779	-0.004	2.0	GoodResponse	0	0.197	n/a	0	1	ButtonPress	AvoidedLoss	True
24.969	0.31	Lose2	1.0	n/a	Yes	2.779	n/a	n/a	GoodResponse	0	n/a	n/a	0	1	Blank	AvoidedLoss	True
25.269	1.45	Lose2	1.0	n/a	Yes	2.779	n/a	5.0	GoodResponse	0	0.024	24.293	0	1	Feedback	AvoidedLoss	True
26.724	2.779	Lose2	1.0	n/a	Yes	2.779	n/a	n/a	GoodResponse	0	0.0	n/a	0	1	ISIslide	AvoidedLoss	True
29.515	0.25	Control	1.0	0.001	Yes	2.585	0.015	n/a	GoodResponse	0	n/a	n/a	0	2	Cue	Neutral	True
29.766	4.1	Control	1.0	0.0	Yes	2.585	0.001	n/a	GoodResponse	0	n/a	n/a	0	2	Fixation	Neutral	True
33.862	0.38	Control	1.0	0.003	Yes	2.585	-0.003	2.0	GoodResponse	0	0.217	33.079	0	2	Target	Neutral	True
34.079	0.3	Control	1.0	0.003	Yes	2.585	-0.003	2.0	GoodResponse	0	0.217	n/a	0	2	ButtonPress	Neutral	True
34.246	0.32	Control	1.0	n/a	Yes	2.585	n/a	n/a	GoodResponse	0	n/a	n/a	0	2	Blank	Neutral	True
34.564	1.45	Control	1.0	n/a	Yes	2.585	n/a	5.0	GoodResponse	0	0.045	33.609	0	2	Feedback	Neutral	True
36.018	2.585	Control	1.0	n/a	Yes	2.585	n/a	n/a	GoodResponse	0	0.0	n/a	0	2	ISIslide	Neutral	True
38.626	0.25	Win2	1.0	0.0	Yes	2.824	0.026	n/a	GoodResponse	1	n/a	n/a	1	3	Cue	Win	True
38.877	3.95	Win2	1.0	0.0	Yes	2.824	0.001	n/a	GoodResponse	1	n/a	n/a	1	3	Fixation	Win	True
42.822	0.37	Win2	1.0	0.004	Yes	2.824	-0.004	2.0	GoodResponse	1	0.212	42.034	1	3	Target	Win	True
43.034	0.3	Win2	1.0	0.004	Yes	2.824	-0.004	2.0	GoodResponse	1	0.212	n/a	1	3	ButtonPress	Win	True
43.206	0.33	Win2	1.0	n/a	Yes	2.824	n/a	n/a	GoodResponse	1	n/a	n/a	1	3	Blank	Win	True
43.524	1.45	Win2	1.0	n/a	Yes	2.824	n/a	5.0	GoodResponse	1	0.012	42.536	1	3	Feedback	Win	True
44.978	2.824	Win2	1.0	n/a	Yes	2.824	n/a	n/a	GoodResponse	1	0.0	n/a	1	3	ISIslide	Win	True
47.82	0.25	Win2	1.0	0.0	Yes	3.28	0.02	n/a	GoodResponse	1	n/a	n/a	2	4	Cue	Win	True
48.071	4.0	Win2	1.0	0.0	Yes	3.28	0.001	n/a	GoodResponse	1	n/a	n/a	2	4	Fixation	Win	True
52.066	0.36	Win2	1.0	0.004	Yes	3.28	-0.004	2.0	GoodResponse	1	0.215	51.281	2	4	Target	Win	True
52.281	0.3	Win2	1.0	0.004	Yes	3.28	-0.004	2.0	GoodResponse	1	0.215	n/a	2	4	ButtonPress	Win	True
52.434	0.34	Win2	1.0	n/a	Yes	3.28	n/a	n/a	GoodResponse	1	n/a	n/a	2	4	Blank	Win	True
52.768	1.45	Win2	1.0	n/a	Yes	3.28	n/a	5.0	GoodResponse	1	0.037	51.805	2	4	Feedback	Win	True
54.223	3.28	Win2	1.0	n/a	Yes	3.28	n/a	n/a	GoodResponse	1	0.0	n/a	2	4	ISIslide	Win	True
57.516	0.25	Win2	1.0	0.0	Yes	2.784	0.016	n/a	GoodResponse	1	n/a	n/a	3	5	Cue	Win	True
57.767	4.0	Win2	1.0	0.0	Yes	2.784	0.001	n/a	GoodResponse	1	n/a	n/a	3	5	Fixation	Win	True
61.762	0.35	Win2	1.0	0.004	Yes	2.784	-0.004	2.0	GoodResponse	1	0.243	61.005	3	5	Target	Win	True
62.005	0.3	Win2	1.0	0.004	Yes	2.784	-0.004	2.0	GoodResponse	1	0.243	n/a	3	5	ButtonPress	Win	True
62.113	0.35	Win2	1.0	n/a	Yes	2.784	n/a	n/a	GoodResponse	1	n/a	n/a	3	5	Blank	Win	True
62.464	1.45	Win2	1.0	n/a	Yes	2.784	n/a	5.0	GoodResponse	1	0.047	61.511	3	5	Feedback	Win	True
63.918	2.784	Win2	1.0	n/a	Yes	2.784	n/a	n/a	GoodResponse	1	0.0	n/a	3	5	ISIslide	Win	True
66.727	0.25	Lose2	1.0	0.0	Yes	2.723	0.027	n/a	GoodResponse	0	n/a	n/a	3	6	Cue	AvoidedLoss	True
66.977	3.95	Lose2	1.0	0.0	Yes	2.723	0.0	n/a	GoodResponse	0	n/a	n/a	3	6	Fixation	AvoidedLoss	True
70.939	0.34	Lose2	1.0	0.0	Yes	2.723	0.012	2.0	GoodResponse	0	0.204	70.143	3	6	Target	AvoidedLoss	True
71.143	0.3	Lose2	1.0	0.0	Yes	2.723	0.012	2.0	GoodResponse	0	0.204	n/a	3	6	ButtonPress	AvoidedLoss	True
71.274	0.36	Lose2	1.0	n/a	Yes	2.723	n/a	n/a	GoodResponse	0	n/a	n/a	3	6	Blank	AvoidedLoss	True
71.625	1.45	Lose2	1.0	n/a	Yes	2.723	n/a	5.0	GoodResponse	0	0.008	70.633	3	6	Feedback	AvoidedLoss	True
73.079	2.723	Lose2	1.0	n/a	Yes	2.723	n/a	n/a	GoodResponse	0	0.0	n/a	3	6	ISIslide	AvoidedLoss	True
75.82	0.25	Lose2	1.0	0.001	Yes	4.03	0.02	n/a	GoodResponse	0	n/a	n/a	3	7	Cue	AvoidedLoss	True
76.071	4.05	Lose2	1.0	0.0	Yes	4.03	0.001	n/a	GoodResponse	0	n/a	n/a	3	7	Fixation	AvoidedLoss	True
80.117	0.33	Lose2	1.0	0.003	Yes	4.03	-0.003	2.0	GoodResponse	0	0.195	79.312	3	7	Target	AvoidedLoss	True
80.312	0.3	Lose2	1.0	0.003	Yes	4.03	-0.003	2.0	GoodResponse	0	0.195	n/a	3	7	ButtonPress	AvoidedLoss	True
80.451	0.37	Lose2	1.0	n/a	Yes	4.03	n/a	n/a	GoodResponse	0	n/a	n/a	3	7	Blank	AvoidedLoss	True
80.819	1.45	Lose2	1.0	n/a	Yes	4.03	n/a	5.0	GoodResponse	0	0.034	79.853	3	7	Feedback	AvoidedLoss	True
82.273	4.03	Lose2	1.0	n/a	Yes	4.03	n/a	n/a	GoodResponse	0	0.0	n/a	3	7	ISIslide	AvoidedLoss	True
86.318	0.25	Lose2	1.0	0.001	Yes	3.032	0.018	n/a	GoodResponse	0	n/a	n/a	3	8	Cue	AvoidedLoss	True
86.569	3.95	Lose2	1.0	0.0	Yes	3.032	0.001	n/a	GoodResponse	0	n/a	n/a	3	8	Fixation	AvoidedLoss	True
90.514	0.32	Lose2	1.0	0.004	Yes	3.032	-0.004	2.0	GoodResponse	0	0.222	89.736	3	8	Target	AvoidedLoss	True
90.736	0.3	Lose2	1.0	0.004	Yes	3.032	-0.004	2.0	GoodResponse	0	0.222	n/a	3	8	ButtonPress	AvoidedLoss	True
90.849	0.38	Lose2	1.0	n/a	Yes	3.032	n/a	n/a	GoodResponse	0	n/a	n/a	3	8	Blank	AvoidedLoss	True
91.216	1.45	Lose2	1.0	n/a	Yes	3.032	n/a	5.0	GoodResponse	0	0.027	90.243	3	8	Feedback	AvoidedLoss	True
92.671	3.032	Lose2	1.0	n/a	Yes	3.032	n/a	n/a	GoodResponse	0	0.0	n/a	3	8	ISIslide	AvoidedLoss	True
95.73	0.25	Lose2	1.0	0.0	Yes	3.12	0.03	n/a	GoodResponse	0	n/a	n/a	3	9	Cue	AvoidedLoss	True
95.981	3.95	Lose2	1.0	0.0	Yes	3.12	0.001	n/a	GoodResponse	0	n/a	n/a	3	9	Fixation	AvoidedLoss	True
99.926	0.31	Lose2	1.0	0.004	Yes	3.12	-0.004	2.0	GoodResponse	0	0.225	99.151	3	9	Target	AvoidedLoss	True
100.151	0.3	Lose2	1.0	0.004	Yes	3.12	-0.004	2.0	GoodResponse	0	0.225	n/a	3	9	ButtonPress	AvoidedLoss	True
100.243	0.39	Lose2	1.0	n/a	Yes	3.12	n/a	n/a	GoodResponse	0	n/a	n/a	3	9	Blank	AvoidedLoss	True
100.628	1.45	Lose2	1.0	n/a	Yes	3.12	n/a	5.0	GoodResponse	0	0.029	99.657	3	9	Feedback	AvoidedLoss	True
102.082	3.12	Lose2	1.0	n/a	Yes	3.12	n/a	n/a	GoodResponse	0	0.0	n/a	3	9	ISIslide	AvoidedLoss	True
105.225	0.25	Control	0.9091	0.0	No	3.275	0.025	n/a	NoResponse	0	n/a	n/a	3	10	Cue	Neutral	False
105.476	4.0	Control	0.9091	0.0	No	3.275	0.001	n/a	NoResponse	0	n/a	n/a	3	10	Fixation	Neutral	False
109.471	0.3	Control	0.9091	0.004	No	3.275	-0.004	n/a	NoResponse	0	n/a	n/a	3	10	Target	Neutral	False
109.772	0.4	Control	0.9091	n/a	No	3.275	n/a	n/a	NoResponse	0	n/a	n/a	3	10	Blank	Neutral	False
110.173	1.45	Control	0.9091	n/a	No	3.275	n/a	5.0	NoResponse	0	0.045	109.218	3	10	Feedback	Neutral	False
111.627	3.275	Control	0.9091	n/a	No	3.275	n/a	n/a	NoResponse	0	0.0	n/a	3	10	ISIslide	Neutral	False
114.921	0.25	Lose2	0.9167000000000001	0.0	Yes	2.729	0.021	n/a	GoodResponse	0	n/a	n/a	3	11	Cue	AvoidedLoss	True
115.171	4.05	Lose2	0.9167000000000001	0.0	Yes	2.729	0.0	n/a	GoodResponse	0	n/a	n/a	3	11	Fixation	AvoidedLoss	True
119.217	0.29	Lose2	0.9167000000000001	0.004	Yes	2.729	-0.004	2.0	GoodResponse	0	0.206	118.423	3	11	Target	AvoidedLoss	True
119.423	0.3	Lose2	0.9167000000000001	0.004	Yes	2.729	-0.004	2.0	GoodResponse	0	0.206	n/a	3	11	ButtonPress	AvoidedLoss	True
119.518	0.41	Lose2	0.9167000000000001	n/a	Yes	2.729	n/a	n/a	GoodResponse	0	n/a	n/a	3	11	Blank	AvoidedLoss	True
119.919	1.45	Lose2	0.9167000000000001	n/a	Yes	2.729	n/a	5.0	GoodResponse	0	0.006	118.925	3	11	Feedback	AvoidedLoss	True
121.373	2.729	Lose2	0.9167000000000001	n/a	Yes	2.729	n/a	n/a	GoodResponse	0	0.0	n/a	3	11	ISIslide	AvoidedLoss	True
124.115	0.25	Control	0.8462000000000001	0.0	No	2.985	0.015	n/a	NoResponse	0	n/a	n/a	3	12	Cue	Neutral	False
124.365	3.9	Control	0.8462000000000001	0.001	No	2.985	0.0	n/a	NoResponse	0	n/a	n/a	3	12	Fixation	Neutral	False
128.277	0.28	Control	0.8462000000000001	0.0	No	2.985	0.012	n/a	NoResponse	0	n/a	n/a	3	12	Target	Neutral	False
128.545	0.42	Control	0.8462000000000001	n/a	No	2.985	n/a	n/a	NoResponse	0	n/a	n/a	3	12	Blank	Neutral	False
128.962	1.45	Control	0.8462000000000001	n/a	No	2.985	n/a	5.0	NoResponse	0	0.037	127.999	3	12	Feedback	Neutral	False
130.417	2.985	Control	0.8462000000000001	n/a	No	2.985	n/a	n/a	NoResponse	0	0.0	n/a	3	12	ISIslide	Neutral	False
133.426	0.25	Control	0.7857	0.0	No	2.774	0.026	n/a	NoResponse	0	n/a	n/a	3	13	Cue	Neutral	False
133.677	4.0	Control	0.7857	0.0	No	2.774	0.001	n/a	NoResponse	0	n/a	n/a	3	13	Fixation	Neutral	False
137.672	0.27	Control	0.7857	0.004	No	2.774	-0.004	n/a	NoResponse	0	n/a	n/a	3	13	Target	Neutral	False
137.956	0.43	Control	0.7857	n/a	No	2.774	n/a	n/a	NoResponse	0	n/a	n/a	3	13	Blank	Neutral	False
138.374	1.45	Control	0.7857	n/a	No	2.774	n/a	5.0	NoResponse	0	0.038	137.412	3	13	Feedback	Neutral	False
139.828	2.774	Control	0.7857	n/a	No	2.774	n/a	n/a	NoResponse	0	0.0	n/a	3	13	ISIslide	Neutral	False
142.62	0.25	Win2	0.7333	0.0	No	2.68	0.02	n/a	NoResponse	0	n/a	n/a	3	14	Cue	MissedWin	False
142.871	4.1	Win2	0.7333	0.0	No	2.68	0.001	2.0	NoResponse	0	4.045	145.916	3	14	Fixation	MissedWin	False
146.916	0.3	Win2	0.7333	0.0	No	2.68	0.001	2.0	NoResponse	0	4.045	n/a	3	14	ButtonPress	MissedWin	False
146.966	0.26	Win2	0.7333	0.004	No	2.68	-0.004	2.0	NoResponse	0	0.555	146.521	3	14	Target	MissedWin	False
147.234	0.44	Win2	0.7333	n/a	No	2.68	n/a	n/a	NoResponse	0	n/a	n/a	3	14	Blank	MissedWin	False
147.521	0.3	Win2	0.7333	0.004	No	2.68	-0.004	2.0	NoResponse	0	0.555	n/a	3	14	ButtonPress	MissedWin	False
147.668	1.45	Win2	0.7333	n/a	No	2.68	n/a	5.0	NoResponse	0	0.013	146.681	3	14	Feedback	MissedWin	False
149.123	2.68	Win2	0.7333	n/a	No	2.68	n/a	n/a	NoResponse	0	0.0	n/a	3	14	ISIslide	MissedWin	False
151.814	0.25	Control	0.6875	0.0	No	2.986	0.014	n/a	NoResponse	0	n/a	n/a	3	15	Cue	Neutral	False
152.065	4.0	Control	0.6875	0.0	No	2.986	0.001	n/a	NoResponse	0	n/a	n/a	3	15	Fixation	Neutral	False
156.06	0.25	Control	0.6875	0.004	No	2.986	-0.004	n/a	NoResponse	0	n/a	n/a	3	15	Target	Neutral	False
156.311	0.45	Control	0.6875	n/a	No	2.986	n/a	n/a	NoResponse	0	n/a	n/a	3	15	Blank	Neutral	False
156.762	1.45	Control	0.6875	n/a	No	2.986	n/a	5.0	NoResponse	0	0.041	155.803	3	15	Feedback	Neutral	False
158.217	2.986	Control	0.6875	n/a	No	2.986	n/a	n/a	NoResponse	0	0.0	n/a	3	15	ISIslide	Neutral	False
161.225	0.25	Win2	0.7059000000000001	0.001	Yes	2.875	0.025	n/a	GoodResponse	1	n/a	n/a	4	16	Cue	Win	True
161.476	4.0	Win2	0.7059000000000001	0.0	Yes	2.875	0.001	n/a	GoodResponse	1	n/a	n/a	4	16	Fixation	Win	True
165.472	0.24	Win2	0.7059000000000001	0.003	Yes	2.875	-0.003	2.0	GoodResponse	1	0.236	164.708	4	16	Target	Win	True
165.708	0.3	Win2	0.7059000000000001	0.003	Yes	2.875	-0.003	2.0	GoodResponse	1	0.236	n/a	4	16	ButtonPress	Win	True
165.722	0.46	Win2	0.7059000000000001	n/a	Yes	2.875	n/a	n/a	GoodResponse	1	n/a	n/a	4	16	Blank	Win	True
166.174	1.45	Win2	0.7059000000000001	n/a	Yes	2.875	n/a	5.0	GoodResponse	1	0.044	165.218	4	16	Feedback	Win	True
167.628	2.875	Win2	0.7059000000000001	n/a	Yes	2.875	n/a	n/a	GoodResponse	1	0.0	n/a	4	16	ISIslide	Win	True
170.52	0.25	Lose2	0.7222	0.0	Yes	2.73	0.02	n/a	GoodResponse	0	n/a	n/a	4	17	Cue	AvoidedLoss	True
170.771	3.95	Lose2	0.7222	0.0	Yes	2.73	0.001	n/a	GoodResponse	0	n/a	n/a	4	17	Fixation	AvoidedLoss	True
174.716	0.23	Lose2	0.7222	0.004	Yes	2.73	-0.004	2.0	GoodResponse	0	0.215	173.931	4	17	Target	AvoidedLoss	True
174.931	0.3	Lose2	0.7222	0.004	Yes	2.73	-0.004	2.0	GoodResponse	0	0.215	n/a	4	17	ButtonPress	AvoidedLoss	True
174.95	0.47	Lose2	0.7222	n/a	Yes	2.73	n/a	n/a	GoodResponse	0	n/a	n/a	4	17	Blank	AvoidedLoss	True
175.418	1.45	Lose2	0.7222	n/a	Yes	2.73	n/a	5.0	GoodResponse	0	0.018	174.436	4	17	Feedback	AvoidedLoss	True
176.872	2.73	Lose2	0.7222	n/a	Yes	2.73	n/a	n/a	GoodResponse	0	0.0	n/a	4	17	ISIslide	AvoidedLoss	True
179.63	0.25	Lose2	0.7368000000000001	0.001	Yes	2.72	0.03	n/a	GoodResponse	0	n/a	n/a	4	18	Cue	AvoidedLoss	True
179.881	4.05	Lose2	0.7368000000000001	0.0	Yes	2.72	0.001	n/a	GoodResponse	0	n/a	n/a	4	18	Fixation	AvoidedLoss	True
183.927	0.22	Lose2	0.7368000000000001	0.003	Yes	2.72	-0.003	2.0	GoodResponse	0	0.21	183.137	4	18	Target	AvoidedLoss	True
184.137	0.3	Lose2	0.7368000000000001	0.003	Yes	2.72	-0.003	2.0	GoodResponse	0	0.21	n/a	4	18	ButtonPress	AvoidedLoss	True
184.161	0.48	Lose2	0.7368000000000001	n/a	Yes	2.72	n/a	n/a	GoodResponse	0	n/a	n/a	4	18	Blank	AvoidedLoss	True
184.629	1.45	Lose2	0.7368000000000001	n/a	Yes	2.72	n/a	5.0	GoodResponse	0	0.027	183.656	4	18	Feedback	AvoidedLoss	True
186.083	2.72	Lose2	0.7368000000000001	n/a	Yes	2.72	n/a	n/a	GoodResponse	0	0.0	n/a	4	18	ISIslide	AvoidedLoss	True
188.825	0.25	Control	0.7	0.0	No	2.925	0.025	n/a	NoResponse	0	n/a	n/a	4	19	Cue	Neutral	False
189.075	3.95	Control	0.7	0.0	No	2.925	0.0	n/a	NoResponse	0	n/a	n/a	4	19	Fixation	Neutral	False
193.02	0.21	Control	0.7	0.005	No	2.925	-0.005	n/a	NoResponse	0	n/a	n/a	4	19	Target	Neutral	False
193.238	0.49	Control	0.7	n/a	No	2.925	n/a	n/a	NoResponse	0	n/a	n/a	4	19	Blank	Neutral	False
193.723	1.45	Control	0.7	n/a	No	2.925	n/a	5.0	NoResponse	0	0.006	192.729	4	19	Feedback	Neutral	False
195.177	2.925	Control	0.7	n/a	No	2.925	n/a	n/a	NoResponse	0	0.0	n/a	4	19	ISIslide	Neutral	False
198.119	0.25	Control	0.6667000000000001	0.0	No	2.631	0.019	n/a	NoResponse	0	n/a	n/a	4	20	Cue	Neutral	False
198.37	4.05	Control	0.6667000000000001	0.0	No	2.631	0.001	n/a	NoResponse	0	n/a	n/a	4	20	Fixation	Neutral	False
202.415	0.2	Control	0.6667000000000001	0.004	No	2.631	-0.004	n/a	NoResponse	0	n/a	n/a	4	20	Target	Neutral	False
202.616	0.5	Control	0.6667000000000001	n/a	No	2.631	n/a	n/a	NoResponse	0	n/a	n/a	4	20	Blank	Neutral	False
203.117	1.45	Control	0.6667000000000001	n/a	No	2.631	n/a	5.0	NoResponse	0	0.027	202.144	4	20	Feedback	Neutral	False
204.572	2.631	Control	0.6667000000000001	n/a	No	2.631	n/a	n/a	NoResponse	0	0.0	n/a	4	20	ISIslide	Neutral	False
207.23	0.25	Control	0.6364	0.0	No	2.77	0.03	n/a	NoResponse	0	n/a	n/a	4	21	Cue	Neutral	False
207.48	4.1	Control	0.6364	0.0	No	2.77	0.0	n/a	NoResponse	0	n/a	n/a	4	21	Fixation	Neutral	False
211.576	0.19	Control	0.6364	0.004	No	2.77	-0.004	n/a	NoResponse	0	n/a	n/a	4	21	Target	Neutral	False
211.776	0.51	Control	0.6364	n/a	No	2.77	n/a	n/a	NoResponse	0	n/a	n/a	4	21	Blank	Neutral	False
212.278	1.45	Control	0.6364	n/a	No	2.77	n/a	5.0	NoResponse	0	0.036	211.314	4	21	Feedback	Neutral	False
213.732	2.77	Control	0.6364	n/a	No	2.77	n/a	n/a	NoResponse	0	0.0	n/a	4	21	ISIslide	Neutral	False
216.524	0.25	Control	0.6087	0.0	No	2.776	0.024	n/a	NoResponse	0	n/a	n/a	4	22	Cue	Neutral	False
216.775	4.0	Control	0.6087	0.0	No	2.776	0.001	n/a	NoResponse	0	n/a	n/a	4	22	Fixation	Neutral	False
220.77	0.2	Control	0.6087	0.004	No	2.776	-0.004	n/a	NoResponse	0	n/a	n/a	4	22	Target	Neutral	False
220.971	0.5	Control	0.6087	n/a	No	2.776	n/a	n/a	NoResponse	0	n/a	n/a	4	22	Blank	Neutral	False
221.472	1.45	Control	0.6087	n/a	No	2.776	n/a	5.0	NoResponse	0	0.012	220.484	4	22	Feedback	Neutral	False
222.926	2.776	Control	0.6087	n/a	No	2.776	n/a	n/a	NoResponse	0	0.0	n/a	4	22	ISIslide	Neutral	False
225.718	0.25	Control	0.5832999999999999	0.0	No	2.782	0.018	n/a	NoResponse	0	n/a	n/a	4	23	Cue	Neutral	False
225.969	3.9	Control	0.5832999999999999	0.0	No	2.782	0.001	n/a	NoResponse	0	n/a	n/a	4	23	Fixation	Neutral	False
229.864	0.21	Control	0.5832999999999999	0.004	No	2.782	-0.004	n/a	NoResponse	0	n/a	n/a	4	23	Target	Neutral	False
230.081	0.49	Control	0.5832999999999999	n/a	No	2.782	n/a	n/a	NoResponse	0	n/a	n/a	4	23	Blank	Neutral	False
230.566	1.45	Control	0.5832999999999999	n/a	No	2.782	n/a	5.0	NoResponse	0	0.04	229.606	4	23	Feedback	Neutral	False
232.02	2.782	Control	0.5832999999999999	n/a	No	2.782	n/a	n/a	NoResponse	0	0.0	n/a	4	23	ISIslide	Neutral	False
234.829	0.25	Win2	0.6	0.0	Yes	3.121	0.029	n/a	GoodResponse	1	n/a	n/a	5	24	Cue	Win	True
235.079	3.95	Win2	0.6	0.0	Yes	3.121	0.0	n/a	GoodResponse	1	n/a	n/a	5	24	Fixation	Win	True
239.025	0.22	Win2	0.6	0.004	Yes	3.121	-0.004	2.0	GoodResponse	1	0.193	238.218	5	24	Target	Win	True
239.218	0.3	Win2	0.6	0.004	Yes	3.121	-0.004	2.0	GoodResponse	1	0.193	n/a	5	24	ButtonPress	Win	True
239.259	0.48	Win2	0.6	n/a	Yes	3.121	n/a	n/a	GoodResponse	1	n/a	n/a	5	24	Blank	Win	True
239.727	1.45	Win2	0.6	n/a	Yes	3.121	n/a	5.0	GoodResponse	1	0.002	238.729	5	24	Feedback	Win	True
241.181	3.121	Win2	0.6	n/a	Yes	3.121	n/a	n/a	GoodResponse	1	0.0	n/a	5	24	ISIslide	Win	True
244.324	0.25	Win2	0.5769	0.0	No	3.076	0.024	n/a	NoResponse	0	n/a	n/a	5	25	Cue	MissedWin	True
244.574	4.0	Win2	0.5769	0.0	No	3.076	0.0	n/a	NoResponse	0	n/a	n/a	5	25	Fixation	MissedWin	True
248.57	0.23	Win2	0.5769	0.004	No	3.076	-0.004	2.0	NoResponse	0	0.235	247.805	5	25	Target	MissedWin	True
248.804	0.47	Win2	0.5769	n/a	No	3.076	n/a	n/a	NoResponse	0	n/a	n/a	5	25	Blank	MissedWin	True
248.805	0.3	Win2	0.5769	0.004	No	3.076	-0.004	2.0	NoResponse	0	0.235	n/a	5	25	ButtonPress	MissedWin	True
249.272	1.45	Win2	0.5769	n/a	No	3.076	n/a	5.0	NoResponse	0	0.018	248.29	5	25	Feedback	MissedWin	True
250.726	3.076	Win2	0.5769	n/a	No	3.076	n/a	n/a	NoResponse	0	0.0	n/a	5	25	ISIslide	MissedWin	True
253.819	0.25	Win2	0.5926	0.0	Yes	2.931	0.019	n/a	GoodResponse	1	n/a	n/a	6	26	Cue	Win	True
254.069	3.95	Win2	0.5926	0.001	Yes	2.931	0.0	n/a	GoodResponse	1	n/a	n/a	6	26	Fixation	Win	True
258.015	0.24	Win2	0.5926	0.004	Yes	2.931	-0.004	2.0	GoodResponse	1	0.214	257.229	6	26	Target	Win	True
258.229	0.3	Win2	0.5926	0.004	Yes	2.931	-0.004	2.0	GoodResponse	1	0.214	n/a	6	26	ButtonPress	Win	True
258.265	0.46	Win2	0.5926	n/a	Yes	2.931	n/a	n/a	GoodResponse	1	n/a	n/a	6	26	Blank	Win	True
258.717	1.45	Win2	0.5926	n/a	Yes	2.931	n/a	5.0	GoodResponse	1	0.035	257.752	6	26	Feedback	Win	True
260.171	2.931	Win2	0.5926	n/a	Yes	2.931	n/a	n/a	GoodResponse	1	0.0	n/a	6	26	ISIslide	Win	True
263.13	0.25	Lose2	0.6071	0.0	Yes	2.82	0.03	n/a	GoodResponse	0	n/a	n/a	6	27	Cue	AvoidedLoss	True
263.381	4.05	Lose2	0.6071	0.0	Yes	2.82	0.001	n/a	GoodResponse	0	n/a	n/a	6	27	Fixation	AvoidedLoss	True
267.426	0.25	Lose2	0.6071	0.004	Yes	2.82	-0.004	2.0	GoodResponse	0	0.2	266.626	6	27	Target	AvoidedLoss	True
267.626	0.3	Lose2	0.6071	0.004	Yes	2.82	-0.004	2.0	GoodResponse	0	0.2	n/a	6	27	ButtonPress	AvoidedLoss	True
267.677	0.45	Lose2	0.6071	n/a	Yes	2.82	n/a	n/a	GoodResponse	0	n/a	n/a	6	27	Blank	AvoidedLoss	True
268.128	1.45	Lose2	0.6071	n/a	Yes	2.82	n/a	5.0	GoodResponse	0	0.039	267.167	6	27	Feedback	AvoidedLoss	True
269.582	2.82	Lose2	0.6071	n/a	Yes	2.82	n/a	n/a	GoodResponse	0	0.0	n/a	6	27	ISIslide	AvoidedLoss	True
272.424	0.25	Control	0.5861999999999999	0.0	No	2.826	0.024	n/a	NoResponse	0	n/a	n/a	6	28	Cue	Neutral	False
272.675	4.05	Control	0.5861999999999999	0.0	No	2.826	0.001	n/a	NoResponse	0	n/a	n/a	6	28	Fixation	Neutral	False
276.72	0.26	Control	0.5861999999999999	0.004	No	2.826	-0.004	n/a	NoResponse	0	n/a	n/a	6	28	Target	Neutral	False
276.988	0.44	Control	0.5861999999999999	n/a	No	2.826	n/a	n/a	NoResponse	0	n/a	n/a	6	28	Blank	Neutral	False
277.423	1.45	Control	0.5861999999999999	n/a	No	2.826	n/a	5.0	NoResponse	0	0.012	276.435	6	28	Feedback	Neutral	False
278.877	2.826	Control	0.5861999999999999	n/a	No	2.826	n/a	n/a	NoResponse	0	0.0	n/a	6	28	ISIslide	Neutral	False
281.719	0.25	Lose2	0.6	0.0	Yes	2.831	0.019	n/a	GoodResponse	0	n/a	n/a	6	29	Cue	AvoidedLoss	True
281.969	3.95	Lose2	0.6	0.0	Yes	2.831	0.0	n/a	GoodResponse	0	n/a	n/a	6	29	Fixation	AvoidedLoss	True
285.915	0.27	Lose2	0.6	0.004	Yes	2.831	-0.004	2.0	GoodResponse	0	0.218	285.133	6	29	Target	AvoidedLoss	True
286.133	0.3	Lose2	0.6	0.004	Yes	2.831	-0.004	2.0	GoodResponse	0	0.218	n/a	6	29	ButtonPress	AvoidedLoss	True
286.199	0.43	Lose2	0.6	n/a	Yes	2.831	n/a	n/a	GoodResponse	0	n/a	n/a	6	29	Blank	AvoidedLoss	True
286.617	1.45	Lose2	0.6	n/a	Yes	2.831	n/a	5.0	GoodResponse	0	0.038	285.655	6	29	Feedback	AvoidedLoss	True
288.071	2.831	Lose2	0.6	n/a	Yes	2.831	n/a	n/a	GoodResponse	0	0.0	n/a	6	29	ISIslide	AvoidedLoss	True
290.93	0.25	Win2	0.6129	0.0	Yes	2.77	0.03	n/a	GoodResponse	1	n/a	n/a	7	30	Cue	Win	True
291.18	3.9	Win2	0.6129	0.0	Yes	2.77	0.0	n/a	GoodResponse	1	n/a	n/a	7	30	Fixation	Win	True
295.092	0.28	Win2	0.6129	0.0	Yes	2.77	0.012	2.0	GoodResponse	1	0.198	294.29	7	30	Target	Win	True
295.29	0.3	Win2	0.6129	0.0	Yes	2.77	0.012	2.0	GoodResponse	1	0.198	n/a	7	30	ButtonPress	Win	True
295.359	0.42	Win2	0.6129	n/a	Yes	2.77	n/a	n/a	GoodResponse	1	n/a	n/a	7	30	Blank	Win	True
295.777	1.45	Win2	0.6129	n/a	Yes	2.77	n/a	5.0	GoodResponse	1	0.048	294.825	7	30	Feedback	Win	True
297.232	2.77	Win2	0.6129	n/a	Yes	2.77	n/a	n/a	GoodResponse	1	0.0	n/a	7	30	ISIslide	Win	True
300.023	0.25	Lose2	0.625	0.0	Yes	2.827	0.023	n/a	GoodResponse	0	n/a	n/a	7	31	Cue	AvoidedLoss	True
300.274	4.05	Lose2	0.625	0.0	Yes	2.827	0.001	n/a	GoodResponse	0	n/a	n/a	7	31	Fixation	AvoidedLoss	True
304.32	0.29	Lose2	0.625	0.003	Yes	2.827	-0.003	2.0	GoodResponse	0	0.2	303.52	7	31	Target	AvoidedLoss	True
304.52	0.3	Lose2	0.625	0.003	Yes	2.827	-0.003	2.0	GoodResponse	0	0.2	n/a	7	31	ButtonPress	AvoidedLoss	True
304.62	0.41	Lose2	0.625	n/a	Yes	2.827	n/a	n/a	GoodResponse	0	n/a	n/a	7	31	Blank	AvoidedLoss	True
305.022	1.45	Lose2	0.625	n/a	Yes	2.827	n/a	5.0	GoodResponse	0	0.022	304.044	7	31	Feedback	AvoidedLoss	True
306.476	2.827	Lose2	0.625	n/a	Yes	2.827	n/a	n/a	GoodResponse	0	0.0	n/a	7	31	ISIslide	AvoidedLoss	True
309.318	0.25	Lose2	0.6364	0.0	Yes	2.632	0.018	n/a	GoodResponse	0	n/a	n/a	7	32	Cue	AvoidedLoss	True
309.569	4.15	Lose2	0.6364	0.0	Yes	2.632	0.001	n/a	GoodResponse	0	n/a	n/a	7	32	Fixation	AvoidedLoss	True
313.714	0.3	Lose2	0.6364	0.004	Yes	2.632	-0.004	2.0	GoodResponse	0	0.193	312.907	7	32	Target	AvoidedLoss	True
313.907	0.3	Lose2	0.6364	0.004	Yes	2.632	-0.004	2.0	GoodResponse	0	0.193	n/a	7	32	ButtonPress	AvoidedLoss	True
314.015	0.4	Lose2	0.6364	n/a	Yes	2.632	n/a	n/a	GoodResponse	0	n/a	n/a	7	32	Blank	AvoidedLoss	True
314.416	1.45	Lose2	0.6364	n/a	Yes	2.632	n/a	5.0	GoodResponse	0	0.043	313.459	7	32	Feedback	AvoidedLoss	True
315.871	2.632	Lose2	0.6364	n/a	Yes	2.632	n/a	n/a	GoodResponse	0	0.0	n/a	7	32	ISIslide	AvoidedLoss	True
318.529	0.25	Win2	0.6470999999999999	0.0	Yes	2.671	0.029	n/a	GoodResponse	1	n/a	n/a	8	33	Cue	Win	True
318.779	4.0	Win2	0.6470999999999999	0.0	Yes	2.671	0.0	n/a	GoodResponse	1	n/a	n/a	8	33	Fixation	Win	True
322.775	0.31	Win2	0.6470999999999999	0.004	Yes	2.671	-0.004	2.0	GoodResponse	1	0.206	321.981	8	33	Target	Win	True
322.981	0.3	Win2	0.6470999999999999	0.004	Yes	2.671	-0.004	2.0	GoodResponse	1	0.206	n/a	8	33	ButtonPress	Win	True
323.092	0.39	Win2	0.6470999999999999	n/a	Yes	2.671	n/a	n/a	GoodResponse	1	n/a	n/a	8	33	Blank	Win	True
323.477	1.45	Win2	0.6470999999999999	n/a	Yes	2.671	n/a	5.0	GoodResponse	1	0.007	322.484	8	33	Feedback	Win	True
324.931	2.671	Win2	0.6470999999999999	n/a	Yes	2.671	n/a	n/a	GoodResponse	1	0.0	n/a	8	33	ISIslide	Win	True
327.622	0.25	Lose2	0.6570999999999999	0.001	Yes	2.628	0.022	n/a	GoodResponse	0	n/a	n/a	8	34	Cue	AvoidedLoss	True
327.873	4.05	Lose2	0.6570999999999999	0.0	Yes	2.628	0.001	n/a	GoodResponse	0	n/a	n/a	8	34	Fixation	AvoidedLoss	True
331.919	0.32	Lose2	0.6570999999999999	0.003	Yes	2.628	-0.003	2.0	GoodResponse	0	0.207	331.126	8	34	Target	AvoidedLoss	True
332.126	0.3	Lose2	0.6570999999999999	0.003	Yes	2.628	-0.003	2.0	GoodResponse	0	0.207	n/a	8	34	ButtonPress	AvoidedLoss	True
332.253	0.38	Lose2	0.6570999999999999	n/a	Yes	2.628	n/a	n/a	GoodResponse	0	n/a	n/a	8	34	Blank	AvoidedLoss	True
332.621	1.45	Lose2	0.6570999999999999	n/a	Yes	2.628	n/a	5.0	GoodResponse	0	0.032	331.653	8	34	Feedback	AvoidedLoss	True
334.075	2.628	Lose2	0.6570999999999999	n/a	Yes	2.628	n/a	n/a	GoodResponse	0	0.0	n/a	8	34	ISIslide	AvoidedLoss	True
336.716	0.25	Lose2	0.6667000000000001	0.0	Yes	2.684	0.016	n/a	GoodResponse	0	n/a	n/a	8	35	Cue	AvoidedLoss	True
336.967	4.0	Lose2	0.6667000000000001	0.0	Yes	2.684	0.001	n/a	GoodResponse	0	n/a	n/a	8	35	Fixation	AvoidedLoss	True
340.962	0.32	Lose2	0.6667000000000001	0.004	Yes	2.684	-0.004	2.0	GoodResponse	0	0.214	340.176	8	35	Target	AvoidedLoss	True
341.176	0.3	Lose2	0.6667000000000001	0.004	Yes	2.684	-0.004	2.0	GoodResponse	0	0.214	n/a	8	35	ButtonPress	AvoidedLoss	True
341.297	0.38	Lose2	0.6667000000000001	n/a	Yes	2.684	n/a	n/a	GoodResponse	0	n/a	n/a	8	35	Blank	AvoidedLoss	True
341.664	1.45	Lose2	0.6667000000000001	n/a	Yes	2.684	n/a	5.0	GoodResponse	0	0.014	340.678	8	35	Feedback	AvoidedLoss	True
343.119	2.684	Lose2	0.6667000000000001	n/a	Yes	2.684	n/a	n/a	GoodResponse	0	0.0	n/a	8	35	ISIslide	AvoidedLoss	True
345.827	0.25	Control	0.6486	0.0	No	2.673	0.027	n/a	NoResponse	0	n/a	n/a	8	36	Cue	Neutral	False
346.078	4.0	Control	0.6486	0.0	No	2.673	0.001	n/a	NoResponse	0	n/a	n/a	8	36	Fixation	Neutral	False
350.073	0.31	Control	0.6486	0.004	No	2.673	-0.004	n/a	NoResponse	0	n/a	n/a	8	36	Target	Neutral	False
350.39	0.39	Control	0.6486	n/a	No	2.673	n/a	n/a	NoResponse	0	n/a	n/a	8	36	Blank	Neutral	False
350.775	1.45	Control	0.6486	n/a	No	2.673	n/a	5.0	NoResponse	0	0.025	349.8	8	36	Feedback	Neutral	False
352.229	2.673	Control	0.6486	n/a	No	2.673	n/a	n/a	NoResponse	0	0.0	n/a	8	36	ISIslide	Neutral	False
354.921	0.25	Win2	0.6579	0.0	Yes	2.879	0.021	n/a	GoodResponse	1	n/a	n/a	9	37	Cue	Win	True
355.171	4.0	Win2	0.6579	0.0	Yes	2.879	0.0	n/a	GoodResponse	1	n/a	n/a	9	37	Fixation	Win	True
359.167	0.32	Win2	0.6579	0.004	Yes	2.879	-0.004	2.0	GoodResponse	1	0.197	358.364	9	37	Target	Win	True
359.364	0.3	Win2	0.6579	0.004	Yes	2.879	-0.004	2.0	GoodResponse	1	0.197	n/a	9	37	ButtonPress	Win	True
359.501	0.38	Win2	0.6579	n/a	Yes	2.879	n/a	n/a	GoodResponse	1	n/a	n/a	9	37	Blank	Win	True
359.869	1.45	Win2	0.6579	n/a	Yes	2.879	n/a	5.0	GoodResponse	1	0.007	358.876	9	37	Feedback	Win	True
361.323	2.879	Win2	0.6579	n/a	Yes	2.879	n/a	n/a	GoodResponse	1	0.0	n/a	9	37	ISIslide	Win	True
364.215	0.25	Lose2	0.6667000000000001	0.0	Yes	2.835	0.015	n/a	GoodResponse	0	n/a	n/a	9	38	Cue	AvoidedLoss	True
364.466	3.95	Lose2	0.6667000000000001	0.0	Yes	2.835	0.001	n/a	GoodResponse	0	n/a	n/a	9	38	Fixation	AvoidedLoss	True
368.411	0.32	Lose2	0.6667000000000001	0.004	Yes	2.835	-0.004	2.0	GoodResponse	0	0.209	367.62	9	38	Target	AvoidedLoss	True
368.62	0.3	Lose2	0.6667000000000001	0.004	Yes	2.835	-0.004	2.0	GoodResponse	0	0.209	n/a	9	38	ButtonPress	AvoidedLoss	True
368.745	0.38	Lose2	0.6667000000000001	n/a	Yes	2.835	n/a	n/a	GoodResponse	0	n/a	n/a	9	38	Blank	AvoidedLoss	True
369.113	1.45	Lose2	0.6667000000000001	n/a	Yes	2.835	n/a	5.0	GoodResponse	0	0.028	368.141	9	38	Feedback	AvoidedLoss	True
370.567	2.835	Lose2	0.6667000000000001	n/a	Yes	2.835	n/a	n/a	GoodResponse	0	0.0	n/a	9	38	ISIslide	AvoidedLoss	True
373.426	0.25	Win2	0.65	0.0	No	2.974	0.026	n/a	PrematurePress	0	n/a	n/a	9	39	Cue	MissedWin	True
373.677	4.1	Win2	0.65	0.0	No	2.974	0.001	n/a	PrematurePress	0	n/a	n/a	9	39	Fixation	MissedWin	True
377.772	0.31	Win2	0.65	0.004	No	2.974	-0.004	2.0	PrematurePress	0	0.038	376.81	9	39	Target	MissedWin	True
377.81	0.3	Win2	0.65	0.004	No	2.974	-0.004	2.0	PrematurePress	0	0.038	n/a	9	39	ButtonPress	MissedWin	True
378.09	0.39	Win2	0.65	n/a	No	2.974	n/a	n/a	PrematurePress	0	n/a	n/a	9	39	Blank	MissedWin	True
378.474	1.45	Win2	0.65	n/a	No	2.974	n/a	5.0	PrematurePress	0	0.032	377.506	9	39	Feedback	MissedWin	True
379.929	2.974	Win2	0.65	n/a	No	2.974	n/a	n/a	PrematurePress	0	0.0	n/a	9	39	ISIslide	MissedWin	True
382.921	0.25	Win2	0.6585	0.0	Yes	2.729	0.021	n/a	GoodResponse	1	n/a	n/a	10	40	Cue	Win	True
383.172	3.95	Win2	0.6585	0.0	Yes	2.729	0.001	n/a	GoodResponse	1	n/a	n/a	10	40	Fixation	Win	True
387.117	0.32	Win2	0.6585	0.004	Yes	2.729	-0.004	2.0	GoodResponse	1	0.222	386.339	10	40	Target	Win	True
387.339	0.3	Win2	0.6585	0.004	Yes	2.729	-0.004	2.0	GoodResponse	1	0.222	n/a	10	40	ButtonPress	Win	True
387.451	0.38	Win2	0.6585	n/a	Yes	2.729	n/a	n/a	GoodResponse	1	n/a	n/a	10	40	Blank	Win	True
387.819	1.45	Win2	0.6585	n/a	Yes	2.729	n/a	5.0	GoodResponse	1	0.006	386.825	10	40	Feedback	Win	True
389.273	2.729	Win2	0.6585	n/a	Yes	2.729	n/a	n/a	GoodResponse	1	0.0	n/a	10	40	ISIslide	Win	True
392.031	0.25	Win2	0.6667000000000001	0.001	Yes	2.769	0.031	n/a	GoodResponse	1	n/a	n/a	11	41	Cue	Win	True
392.282	3.9	Win2	0.6667000000000001	0.0	Yes	2.769	0.001	n/a	GoodResponse	1	n/a	n/a	11	41	Fixation	Win	True
396.177	0.32	Win2	0.6667000000000001	0.004	Yes	2.769	-0.004	2.0	GoodResponse	1	0.201	395.378	11	41	Target	Win	True
396.378	0.3	Win2	0.6667000000000001	0.004	Yes	2.769	-0.004	2.0	GoodResponse	1	0.201	n/a	11	41	ButtonPress	Win	True
396.512	0.38	Win2	0.6667000000000001	n/a	Yes	2.769	n/a	n/a	GoodResponse	1	n/a	n/a	11	41	Blank	Win	True
396.879	1.45	Win2	0.6667000000000001	n/a	Yes	2.769	n/a	5.0	GoodResponse	1	0.018	395.897	11	41	Feedback	Win	True
398.334	2.769	Win2	0.6667000000000001	n/a	Yes	2.769	n/a	n/a	GoodResponse	1	0.0	n/a	11	41	ISIslide	Win	True
401.125	0.25	Control	0.6512	0.0	No	2.925	0.025	n/a	NoResponse	0	n/a	n/a	11	42	Cue	Neutral	False
401.376	3.85	Control	0.6512	0.0	No	2.925	0.001	n/a	NoResponse	0	n/a	n/a	11	42	Fixation	Neutral	False
405.221	0.31	Control	0.6512	0.004	No	2.925	-0.004	n/a	NoResponse	0	n/a	n/a	11	42	Target	Neutral	False
405.538	0.39	Control	0.6512	n/a	No	2.925	n/a	n/a	NoResponse	0	n/a	n/a	11	42	Blank	Neutral	False
405.923	1.45	Control	0.6512	n/a	No	2.925	n/a	5.0	NoResponse	0	0.046	404.969	11	42	Feedback	Neutral	False
407.377	2.925	Control	0.6512	n/a	No	2.925	n/a	n/a	NoResponse	0	0.0	n/a	11	42	ISIslide	Neutral	False
410.319	0.25	Win2	0.6591	0.001	Yes	3.181	0.019	n/a	GoodResponse	1	n/a	n/a	12	43	Cue	Win	True
410.57	4.0	Win2	0.6591	0.0	Yes	3.181	0.001	n/a	GoodResponse	1	n/a	n/a	12	43	Fixation	Win	True
414.565	0.32	Win2	0.6591	0.004	Yes	3.181	-0.004	2.0	GoodResponse	1	0.21	413.775	12	43	Target	Win	True
414.775	0.3	Win2	0.6591	0.004	Yes	3.181	-0.004	2.0	GoodResponse	1	0.21	n/a	12	43	ButtonPress	Win	True
414.9	0.38	Win2	0.6591	n/a	Yes	3.181	n/a	n/a	GoodResponse	1	n/a	n/a	12	43	Blank	Win	True
415.268	1.45	Win2	0.6591	n/a	Yes	3.181	n/a	5.0	GoodResponse	1	0.018	414.286	12	43	Feedback	Win	True
416.722	3.181	Win2	0.6591	n/a	Yes	3.181	n/a	n/a	GoodResponse	1	0.0	n/a	12	43	ISIslide	Win	True
419.915	0.25	Win2	0.6667000000000001	0.0	Yes	2.985	0.015	n/a	GoodResponse	1	n/a	n/a	13	44	Cue	Win	True
420.165	4.0	Win2	0.6667000000000001	0.001	Yes	2.985	0.0	n/a	GoodResponse	1	n/a	n/a	13	44	Fixation	Win	True
424.161	0.32	Win2	0.6667000000000001	0.004	Yes	2.985	-0.004	2.0	GoodResponse	1	0.244	423.405	13	44	Target	Win	True
424.405	0.3	Win2	0.6667000000000001	0.004	Yes	2.985	-0.004	2.0	GoodResponse	1	0.244	n/a	13	44	ButtonPress	Win	True
424.495	0.38	Win2	0.6667000000000001	n/a	Yes	2.985	n/a	n/a	GoodResponse	1	n/a	n/a	13	44	Blank	Win	True
424.863	1.45	Win2	0.6667000000000001	n/a	Yes	2.985	n/a	5.0	GoodResponse	1	0.033	423.896	13	44	Feedback	Win	True
426.317	2.985	Win2	0.6667000000000001	n/a	Yes	2.985	n/a	n/a	GoodResponse	1	0.0	n/a	13	44	ISIslide	Win	True
429.326	0.25	Control	0.6522	0.0	No	2.874	0.026	n/a	NoResponse	0	n/a	n/a	13	45	Cue	Neutral	False
429.577	4.1	Control	0.6522	0.0	No	2.874	0.001	n/a	NoResponse	0	n/a	n/a	13	45	Fixation	Neutral	False
433.672	0.31	Control	0.6522	0.004	No	2.874	-0.004	n/a	NoResponse	0	n/a	n/a	13	45	Target	Neutral	False
433.99	0.39	Control	0.6522	n/a	No	2.874	n/a	n/a	NoResponse	0	n/a	n/a	13	45	Blank	Neutral	False
434.375	1.45	Control	0.6522	n/a	No	2.874	n/a	5.0	NoResponse	0	0.034	433.409	13	45	Feedback	Neutral	False
435.829	2.874	Control	0.6522	n/a	No	2.874	n/a	n/a	NoResponse	0	0.0	n/a	13	45	ISIslide	Neutral	False
438.721	0.25	Lose2	0.6596	0.0	Yes	3.379	0.021	n/a	GoodResponse	0	n/a	n/a	13	46	Cue	AvoidedLoss	True
438.972	4.0	Lose2	0.6596	0.0	Yes	3.379	0.001	n/a	GoodResponse	0	n/a	n/a	13	46	Fixation	AvoidedLoss	True
442.967	0.32	Lose2	0.6596	0.004	Yes	3.379	-0.004	2.0	GoodResponse	0	0.217	442.184	13	46	Target	AvoidedLoss	True
443.184	0.3	Lose2	0.6596	0.004	Yes	3.379	-0.004	2.0	GoodResponse	0	0.217	n/a	13	46	ButtonPress	AvoidedLoss	True
443.301	0.38	Lose2	0.6596	n/a	Yes	3.379	n/a	n/a	GoodResponse	0	n/a	n/a	13	46	Blank	AvoidedLoss	True
443.669	1.45	Lose2	0.6596	n/a	Yes	3.379	n/a	5.0	GoodResponse	0	0.007	442.676	13	46	Feedback	AvoidedLoss	True
445.123	3.379	Lose2	0.6596	n/a	Yes	3.379	n/a	n/a	GoodResponse	0	0.0	n/a	13	46	ISIslide	AvoidedLoss	True
448.517	0.25	Lose2	0.6667000000000001	0.0	Yes	2.683	0.017	n/a	GoodResponse	0	n/a	n/a	13	47	Cue	AvoidedLoss	True
448.768	4.0	Lose2	0.6667000000000001	0.0	Yes	2.683	0.001	n/a	GoodResponse	0	n/a	n/a	13	47	Fixation	AvoidedLoss	True
452.763	0.32	Lose2	0.6667000000000001	0.004	Yes	2.683	-0.004	2.0	GoodResponse	0	0.219	451.982	13	47	Target	AvoidedLoss	True
452.982	0.3	Lose2	0.6667000000000001	0.004	Yes	2.683	-0.004	2.0	GoodResponse	0	0.219	n/a	13	47	ButtonPress	AvoidedLoss	True
453.097	0.38	Lose2	0.6667000000000001	n/a	Yes	2.683	n/a	n/a	GoodResponse	0	n/a	n/a	13	47	Blank	AvoidedLoss	True
453.465	1.45	Lose2	0.6667000000000001	n/a	Yes	2.683	n/a	5.0	GoodResponse	0	0.016	452.481	13	47	Feedback	AvoidedLoss	True
454.919	2.683	Lose2	0.6667000000000001	n/a	Yes	2.683	n/a	n/a	GoodResponse	0	0.0	n/a	13	47	ISIslide	AvoidedLoss	True
457.627	0.25	Lose2	0.6735	0.0	Yes	3.023	0.027	n/a	GoodResponse	0	n/a	n/a	13	48	Cue	AvoidedLoss	True
457.878	3.95	Lose2	0.6735	0.0	Yes	3.023	0.001	n/a	GoodResponse	0	n/a	n/a	13	48	Fixation	AvoidedLoss	True
461.823	0.31	Lose2	0.6735	0.004	Yes	3.023	-0.004	2.0	GoodResponse	0	0.214	461.037	13	48	Target	AvoidedLoss	True
462.037	0.3	Lose2	0.6735	0.004	Yes	3.023	-0.004	2.0	GoodResponse	0	0.214	n/a	13	48	ButtonPress	AvoidedLoss	True
462.141	0.39	Lose2	0.6735	n/a	Yes	3.023	n/a	n/a	GoodResponse	0	n/a	n/a	13	48	Blank	AvoidedLoss	True
462.525	1.45	Lose2	0.6735	n/a	Yes	3.023	n/a	5.0	GoodResponse	0	0.029	461.554	13	48	Feedback	AvoidedLoss	True
463.98	3.023	Lose2	0.6735	n/a	Yes	3.023	n/a	n/a	GoodResponse	0	0.0	n/a	13	48	ISIslide	AvoidedLoss	True
467.022	0.25	Control	0.66	0.0	No	2.878	0.022	n/a	NoResponse	0	n/a	n/a	13	49	Cue	Neutral	False
467.273	4.0	Control	0.66	0.0	No	2.878	0.001	n/a	NoResponse	0	n/a	n/a	13	49	Fixation	Neutral	False
471.268	0.3	Control	0.66	0.004	No	2.878	-0.004	n/a	NoResponse	0	n/a	n/a	13	49	Target	Neutral	False
471.569	0.4	Control	0.66	n/a	No	2.878	n/a	n/a	NoResponse	0	n/a	n/a	13	49	Blank	Neutral	False
471.97	1.45	Control	0.66	n/a	No	2.878	n/a	5.0	NoResponse	0	0.048	471.018	13	49	Feedback	Neutral	False
473.425	2.878	Control	0.66	n/a	No	2.878	n/a	n/a	NoResponse	0	0.0	n/a	13	49	ISIslide	Neutral	False
476.317	0.25	Control	0.6470999999999999	0.0	No	2.783	0.017	n/a	NoResponse	0	n/a	n/a	13	50	Cue	Neutral	False
476.567	4.0	Control	0.6470999999999999	0.0	No	2.783	0.0	n/a	NoResponse	0	n/a	n/a	13	50	Fixation	Neutral	False
480.563	0.3	Control	0.6470999999999999	0.004	No	2.783	-0.004	n/a	NoResponse	0	n/a	n/a	13	50	Target	Neutral	False
480.863	0.4	Control	0.6470999999999999	n/a	No	2.783	n/a	n/a	NoResponse	0	n/a	n/a	13	50	Blank	Neutral	False
481.265	1.45	Control	0.6470999999999999	n/a	No	2.783	n/a	5.0	NoResponse	0	0.02	480.285	13	50	Feedback	Neutral	False
482.719	2.783	Control	0.6470999999999999	n/a	No	2.783	n/a	n/a	NoResponse	0	0.0	n/a	13	50	ISIslide	Neutral	False
485.527	0.25	Control	0.6346	0.0	No	2.723	0.027	n/a	NoResponse	0	n/a	n/a	13	51	Cue	Neutral	False
485.778	3.95	Control	0.6346	0.0	No	2.723	0.001	n/a	NoResponse	0	n/a	n/a	13	51	Fixation	Neutral	False
489.723	0.31	Control	0.6346	0.004	No	2.723	-0.004	n/a	NoResponse	0	n/a	n/a	13	51	Target	Neutral	False
490.041	0.39	Control	0.6346	n/a	No	2.723	n/a	n/a	NoResponse	0	n/a	n/a	13	51	Blank	Neutral	False
490.425	1.45	Control	0.6346	n/a	No	2.723	n/a	5.0	NoResponse	0	0.031	489.456	13	51	Feedback	Neutral	False
491.88	2.723	Control	0.6346	n/a	No	2.723	n/a	n/a	NoResponse	0	0.0	n/a	13	51	ISIslide	Neutral	False
494.621	0.25	Control	0.6225999999999999	0.0	No	2.629	0.021	n/a	NoResponse	0	n/a	n/a	13	52	Cue	Neutral	False
494.872	4.05	Control	0.6225999999999999	0.0	No	2.629	0.001	n/a	NoResponse	0	n/a	n/a	13	52	Fixation	Neutral	False
498.917	0.32	Control	0.6225999999999999	0.004	No	2.629	-0.004	n/a	NoResponse	0	n/a	n/a	13	52	Target	Neutral	False
499.252	0.38	Control	0.6225999999999999	n/a	No	2.629	n/a	n/a	NoResponse	0	n/a	n/a	13	52	Blank	Neutral	False
499.619	1.45	Control	0.6225999999999999	n/a	No	2.629	n/a	5.0	NoResponse	0	0.008	498.627	13	52	Feedback	Neutral	False
501.074	2.629	Control	0.6225999999999999	n/a	No	2.629	n/a	n/a	NoResponse	0	0.0	n/a	13	52	ISIslide	Neutral	False
503.732	0.25	Win2	0.6296	0.0	Yes	2.918	0.032	n/a	GoodResponse	1	n/a	n/a	14	53	Cue	Win	True
503.982	4.05	Win2	0.6296	0.001	Yes	2.918	0.0	n/a	GoodResponse	1	n/a	n/a	14	53	Fixation	Win	True
508.028	0.33	Win2	0.6296	0.004	Yes	2.918	-0.004	2.0	GoodResponse	1	0.187	507.215	14	53	Target	Win	True
508.215	0.3	Win2	0.6296	0.004	Yes	2.918	-0.004	2.0	GoodResponse	1	0.187	n/a	14	53	ButtonPress	Win	True
508.362	0.37	Win2	0.6296	n/a	Yes	2.918	n/a	n/a	GoodResponse	1	n/a	n/a	14	53	Blank	Win	True
508.73	1.45	Win2	0.6296	n/a	Yes	2.918	n/a	5.0	GoodResponse	1	0.019	507.749	14	53	Feedback	Win	True
510.184	2.918	Win2	0.6296	n/a	Yes	2.918	n/a	n/a	GoodResponse	1	0.0	n/a	14	53	ISIslide	Win	True
513.126	0.25	Win2	0.6364	0.001	Yes	2.724	0.026	n/a	GoodResponse	1	n/a	n/a	15	54	Cue	Win	True
513.377	3.95	Win2	0.6364	0.0	Yes	2.724	0.001	n/a	GoodResponse	1	n/a	n/a	15	54	Fixation	Win	True
517.322	0.34	Win2	0.6364	0.004	Yes	2.724	-0.004	2.0	GoodResponse	1	0.192	516.514	15	54	Target	Win	True
517.514	0.3	Win2	0.6364	0.004	Yes	2.724	-0.004	2.0	GoodResponse	1	0.192	n/a	15	54	ButtonPress	Win	True
517.673	0.36	Win2	0.6364	n/a	Yes	2.724	n/a	n/a	GoodResponse	1	n/a	n/a	15	54	Blank	Win	True
518.024	1.45	Win2	0.6364	n/a	Yes	2.724	n/a	5.0	GoodResponse	1	0.041	517.065	15	54	Feedback	Win	True
519.479	2.724	Win2	0.6364	n/a	Yes	2.724	n/a	n/a	GoodResponse	1	0.0	n/a	15	54	ISIslide	Win	True
522.22	0.25	Control	0.625	0.0	No	3.03	0.02	n/a	NoResponse	0	n/a	n/a	15	55	Cue	Neutral	False
522.471	3.95	Control	0.625	0.0	No	3.03	0.001	n/a	NoResponse	0	n/a	n/a	15	55	Fixation	Neutral	False
526.416	0.35	Control	0.625	0.004	No	3.03	-0.004	n/a	NoResponse	0	n/a	n/a	15	55	Target	Neutral	False
526.767	0.35	Control	0.625	n/a	No	3.03	n/a	n/a	NoResponse	0	n/a	n/a	15	55	Blank	Neutral	False
527.118	1.45	Control	0.625	n/a	No	3.03	n/a	5.0	NoResponse	0	0.02	526.138	15	55	Feedback	Neutral	False
528.573	3.03	Control	0.625	n/a	No	3.03	n/a	n/a	NoResponse	0	0.0	n/a	15	55	ISIslide	Neutral	False
531.615	0.25	Control	0.614	0.0	No	2.835	0.015	n/a	NoResponse	0	n/a	n/a	15	56	Cue	Neutral	False
531.866	3.95	Control	0.614	0.0	No	2.835	0.001	n/a	NoResponse	0	n/a	n/a	15	56	Fixation	Neutral	False
535.811	0.36	Control	0.614	0.004	No	2.835	-0.004	n/a	NoResponse	0	n/a	n/a	15	56	Target	Neutral	False
536.179	0.34	Control	0.614	n/a	No	2.835	n/a	n/a	NoResponse	0	n/a	n/a	15	56	Blank	Neutral	False
536.513	1.45	Control	0.614	n/a	No	2.835	n/a	5.0	NoResponse	0	0.04	535.553	15	56	Feedback	Neutral	False
537.967	2.835	Control	0.614	n/a	No	2.835	n/a	n/a	NoResponse	0	0.0	n/a	15	56	ISIslide	Neutral	False
540.826	0.25	Control	0.6034	0.0	No	3.474	0.026	n/a	NoResponse	0	n/a	n/a	15	57	Cue	Neutral	False
541.077	4.0	Control	0.6034	0.0	No	3.474	0.001	n/a	NoResponse	0	n/a	n/a	15	57	Fixation	Neutral	False
545.072	0.37	Control	0.6034	0.004	No	3.474	-0.004	n/a	NoResponse	0	n/a	n/a	15	57	Target	Neutral	False
545.456	0.33	Control	0.6034	n/a	No	3.474	n/a	n/a	NoResponse	0	n/a	n/a	15	57	Blank	Neutral	False
545.774	1.45	Control	0.6034	n/a	No	3.474	n/a	5.0	NoResponse	0	0.047	544.821	15	57	Feedback	Neutral	False
547.228	3.474	Control	0.6034	n/a	No	3.474	n/a	n/a	NoResponse	0	0.0	n/a	15	57	ISIslide	Neutral	False
550.722	0.25	Win2	0.6102000000000001	0.0	Yes	2.728	0.022	n/a	GoodResponse	1	n/a	n/a	16	58	Cue	Win	True
550.973	4.05	Win2	0.6102000000000001	0.0	Yes	2.728	0.001	n/a	GoodResponse	1	n/a	n/a	16	58	Fixation	Win	True
555.018	0.38	Win2	0.6102000000000001	0.004	Yes	2.728	-0.004	2.0	GoodResponse	1	0.228	554.246	16	58	Target	Win	True
555.246	0.3	Win2	0.6102000000000001	0.004	Yes	2.728	-0.004	2.0	GoodResponse	1	0.228	n/a	16	58	ButtonPress	Win	True
555.403	0.32	Win2	0.6102000000000001	n/a	Yes	2.728	n/a	n/a	GoodResponse	1	n/a	n/a	16	58	Blank	Win	True
555.72	1.45	Win2	0.6102000000000001	n/a	Yes	2.728	n/a	5.0	GoodResponse	1	0.005	554.725	16	58	Feedback	Win	True
557.175	2.728	Win2	0.6102000000000001	n/a	Yes	2.728	n/a	n/a	GoodResponse	1	0.0	n/a	16	58	ISIslide	Win	True
559.916	0.25	Lose2	0.6167	0.0	Yes	2.684	0.016	n/a	GoodResponse	0	n/a	n/a	16	59	Cue	AvoidedLoss	True
560.167	4.0	Lose2	0.6167	0.0	Yes	2.684	0.001	n/a	GoodResponse	0	n/a	n/a	16	59	Fixation	AvoidedLoss	True
564.162	0.39	Lose2	0.6167	0.004	Yes	2.684	-0.004	2.0	GoodResponse	0	0.207	563.369	16	59	Target	AvoidedLoss	True
564.369	0.3	Lose2	0.6167	0.004	Yes	2.684	-0.004	2.0	GoodResponse	0	0.207	n/a	16	59	ButtonPress	AvoidedLoss	True
564.563	0.31	Lose2	0.6167	n/a	Yes	2.684	n/a	n/a	GoodResponse	0	n/a	n/a	16	59	Blank	AvoidedLoss	True
564.864	1.45	Lose2	0.6167	n/a	Yes	2.684	n/a	5.0	GoodResponse	0	0.03	563.894	16	59	Feedback	AvoidedLoss	True
566.319	2.684	Lose2	0.6167	n/a	Yes	2.684	n/a	n/a	GoodResponse	0	0.0	n/a	16	59	ISIslide	AvoidedLoss	True
569.027	0.25	Control	0.6065999999999999	0.0	No	2.673	0.027	n/a	NoResponse	0	n/a	n/a	16	60	Cue	Neutral	False
569.277	4.0	Control	0.6065999999999999	0.001	No	2.673	0.0	n/a	NoResponse	0	n/a	n/a	16	60	Fixation	Neutral	False
573.273	0.4	Control	0.6065999999999999	0.004	No	2.673	-0.004	n/a	NoResponse	0	n/a	n/a	16	60	Target	Neutral	False
573.674	0.3	Control	0.6065999999999999	n/a	No	2.673	n/a	n/a	NoResponse	0	n/a	n/a	16	60	Blank	Neutral	False
573.975	1.45	Control	0.6065999999999999	n/a	No	2.673	n/a	5.0	NoResponse	0	0.041	573.016	16	60	Feedback	Neutral	False
575.429	2.673	Control	0.6065999999999999	n/a	No	2.673	n/a	n/a	NoResponse	0	0.0	n/a	16	60	ISIslide	Neutral	False
578.121	0.25	Lose2	0.6129	0.0	Yes	2.979	0.021	n/a	GoodResponse	0	n/a	n/a	16	61	Cue	AvoidedLoss	True
578.371	4.0	Lose2	0.6129	0.0	Yes	2.979	0.0	n/a	GoodResponse	0	n/a	n/a	16	61	Fixation	AvoidedLoss	True
582.367	0.41	Lose2	0.6129	0.004	Yes	2.979	-0.004	2.0	GoodResponse	0	0.215	581.582	16	61	Target	AvoidedLoss	True
582.582	0.3	Lose2	0.6129	0.004	Yes	2.979	-0.004	2.0	GoodResponse	0	0.215	n/a	16	61	ButtonPress	AvoidedLoss	True
582.784	0.29	Lose2	0.6129	n/a	Yes	2.979	n/a	n/a	GoodResponse	0	n/a	n/a	16	61	Blank	AvoidedLoss	True
583.069	1.45	Lose2	0.6129	n/a	Yes	2.979	n/a	5.0	GoodResponse	0	0.02	582.089	16	61	Feedback	AvoidedLoss	True
584.523	2.979	Lose2	0.6129	n/a	Yes	2.979	n/a	n/a	GoodResponse	0	0.0	n/a	16	61	ISIslide	AvoidedLoss	True
587.515	0.25	Lose2	0.619	0.0	Yes	2.885	0.015	n/a	GoodResponse	0	n/a	n/a	16	62	Cue	AvoidedLoss	True
587.766	3.9	Lose2	0.619	0.0	Yes	2.885	0.001	n/a	GoodResponse	0	n/a	n/a	16	62	Fixation	AvoidedLoss	True
591.661	0.42	Lose2	0.619	0.004	Yes	2.885	-0.004	2.0	GoodResponse	0	0.204	590.865	16	62	Target	AvoidedLoss	True
591.865	0.3	Lose2	0.619	0.004	Yes	2.885	-0.004	2.0	GoodResponse	0	0.204	n/a	16	62	ButtonPress	AvoidedLoss	True
592.096	0.28	Lose2	0.619	n/a	Yes	2.885	n/a	n/a	GoodResponse	0	n/a	n/a	16	62	Blank	AvoidedLoss	True
592.363	1.45	Lose2	0.619	n/a	Yes	2.885	n/a	5.0	GoodResponse	0	0.042	591.405	16	62	Feedback	AvoidedLoss	True
593.817	2.885	Lose2	0.619	n/a	Yes	2.885	n/a	n/a	GoodResponse	0	0.0	n/a	16	62	ISIslide	AvoidedLoss	True
596.726	0.25	Lose2	0.625	0.0	Yes	2.624	0.026	n/a	GoodResponse	0	n/a	n/a	16	63	Cue	AvoidedLoss	True
596.977	4.05	Lose2	0.625	0.0	Yes	2.624	0.001	n/a	GoodResponse	0	n/a	n/a	16	63	Fixation	AvoidedLoss	True
601.022	0.43	Lose2	0.625	0.004	Yes	2.624	-0.004	2.0	GoodResponse	0	0.199	600.221	16	63	Target	AvoidedLoss	True
601.221	0.3	Lose2	0.625	0.004	Yes	2.624	-0.004	2.0	GoodResponse	0	0.199	n/a	16	63	ButtonPress	AvoidedLoss	True
601.457	0.27	Lose2	0.625	n/a	Yes	2.624	n/a	n/a	GoodResponse	0	n/a	n/a	16	63	Blank	AvoidedLoss	True
601.724	1.45	Lose2	0.625	n/a	Yes	2.624	n/a	5.0	GoodResponse	0	0.047	600.771	16	63	Feedback	AvoidedLoss	True
603.179	2.624	Lose2	0.625	n/a	Yes	2.624	n/a	n/a	GoodResponse	0	0.0	n/a	16	63	ISIslide	AvoidedLoss	True
605.82	0.25	Win2	0.6308	0.0	Yes	3.13	0.02	n/a	GoodResponse	1	n/a	n/a	17	64	Cue	Win	True
606.071	4.15	Win2	0.6308	0.0	Yes	3.13	0.001	n/a	GoodResponse	1	n/a	n/a	17	64	Fixation	Win	True
610.216	0.44	Win2	0.6308	0.004	Yes	3.13	-0.004	2.0	GoodResponse	1	0.213	609.429	17	64	Target	Win	True
610.429	0.3	Win2	0.6308	0.004	Yes	3.13	-0.004	2.0	GoodResponse	1	0.213	n/a	17	64	ButtonPress	Win	True
610.668	0.26	Win2	0.6308	n/a	Yes	3.13	n/a	n/a	GoodResponse	1	n/a	n/a	17	64	Blank	Win	True
610.919	1.45	Win2	0.6308	n/a	Yes	3.13	n/a	5.0	GoodResponse	1	0.023	609.942	17	64	Feedback	Win	True
612.373	3.13	Win2	0.6308	n/a	Yes	3.13	n/a	n/a	GoodResponse	1	0.0	n/a	17	64	ISIslide	Win	True
615.516	0.25	Control	0.6212	0.0	No	2.784	0.016	n/a	NoResponse	0	n/a	n/a	17	65	Cue	Neutral	False
615.766	4.0	Control	0.6212	0.0	No	2.784	0.0	n/a	NoResponse	0	n/a	n/a	17	65	Fixation	Neutral	False
619.762	0.45	Control	0.6212	0.004	No	2.784	-0.004	n/a	NoResponse	0	n/a	n/a	17	65	Target	Neutral	False
620.213	0.25	Control	0.6212	n/a	No	2.784	n/a	n/a	NoResponse	0	n/a	n/a	17	65	Blank	Neutral	False
620.464	1.45	Control	0.6212	n/a	No	2.784	n/a	5.0	NoResponse	0	0.039	619.503	17	65	Feedback	Neutral	False
621.918	2.784	Control	0.6212	n/a	No	2.784	n/a	n/a	NoResponse	0	0.0	n/a	17	65	ISIslide	Neutral	False
624.726	0.25	Win2	0.6269	0.0	Yes	2.774	0.026	n/a	GoodResponse	1	n/a	n/a	18	66	Cue	Win	True
624.977	3.9	Win2	0.6269	0.0	Yes	2.774	0.001	n/a	GoodResponse	1	n/a	n/a	18	66	Fixation	Win	True
628.872	0.46	Win2	0.6269	0.004	Yes	2.774	-0.004	2.0	GoodResponse	1	0.226	628.098	18	66	Target	Win	True
629.098	0.3	Win2	0.6269	0.004	Yes	2.774	-0.004	2.0	GoodResponse	1	0.226	n/a	18	66	ButtonPress	Win	True
629.34	0.24	Win2	0.6269	n/a	Yes	2.774	n/a	n/a	GoodResponse	1	n/a	n/a	18	66	Blank	Win	True
629.574	1.45	Win2	0.6269	n/a	Yes	2.774	n/a	5.0	GoodResponse	1	0.001	628.575	18	66	Feedback	Win	True
631.029	2.774	Win2	0.6269	n/a	Yes	2.774	n/a	n/a	GoodResponse	1	0.0	n/a	18	66	ISIslide	Win	True
633.82	0.25	Control	0.6175999999999999	0.0	No	2.73	0.02	n/a	NoResponse	0	n/a	n/a	18	67	Cue	Neutral	False
634.071	3.95	Control	0.6175999999999999	0.0	No	2.73	0.001	n/a	NoResponse	0	n/a	n/a	18	67	Fixation	Neutral	False
638.016	0.47	Control	0.6175999999999999	0.004	No	2.73	-0.004	n/a	NoResponse	0	n/a	n/a	18	67	Target	Neutral	False
638.501	0.23	Control	0.6175999999999999	n/a	No	2.73	n/a	n/a	NoResponse	0	n/a	n/a	18	67	Blank	Neutral	False
638.718	1.45	Control	0.6175999999999999	n/a	No	2.73	n/a	5.0	NoResponse	0	0.028	637.746	18	67	Feedback	Neutral	False
640.173	2.73	Control	0.6175999999999999	n/a	No	2.73	n/a	n/a	NoResponse	0	0.0	n/a	18	67	ISIslide	Neutral	False
642.914	0.25	Win2	0.6232	0.0	Yes	3.086	0.014	n/a	GoodResponse	1	n/a	n/a	19	68	Cue	Win	True
643.165	4.0	Win2	0.6232	0.0	Yes	3.086	0.001	n/a	GoodResponse	1	n/a	n/a	19	68	Fixation	Win	True
647.16	0.48	Win2	0.6232	0.004	Yes	3.086	-0.004	2.0	GoodResponse	1	0.212	646.372	19	68	Target	Win	True
647.372	0.3	Win2	0.6232	0.004	Yes	3.086	-0.004	2.0	GoodResponse	1	0.212	n/a	19	68	ButtonPress	Win	True
647.645	0.22	Win2	0.6232	n/a	Yes	3.086	n/a	n/a	GoodResponse	1	n/a	n/a	19	68	Blank	Win	True
647.862	1.45	Win2	0.6232	n/a	Yes	3.086	n/a	5.0	GoodResponse	1	0.006	646.868	19	68	Feedback	Win	True
649.317	3.086	Win2	0.6232	n/a	Yes	3.086	n/a	n/a	GoodResponse	1	0.0	n/a	19	68	ISIslide	Win	True
652.426	0.25	Win2	0.6286	0.0	Yes	3.224	0.026	n/a	GoodResponse	1	n/a	n/a	20	69	Cue	Win	True
652.677	3.95	Win2	0.6286	0.0	Yes	3.224	0.001	n/a	GoodResponse	1	n/a	n/a	20	69	Fixation	Win	True
656.622	0.49	Win2	0.6286	0.004	Yes	3.224	-0.004	2.0	GoodResponse	1	0.231	655.853	20	69	Target	Win	True
656.853	0.3	Win2	0.6286	0.004	Yes	3.224	-0.004	2.0	GoodResponse	1	0.231	n/a	20	69	ButtonPress	Win	True
657.123	0.21	Win2	0.6286	n/a	Yes	3.224	n/a	n/a	GoodResponse	1	n/a	n/a	20	69	Blank	Win	True
657.324	1.45	Win2	0.6286	n/a	Yes	3.224	n/a	5.0	GoodResponse	1	0.008	656.332	20	69	Feedback	Win	True
658.778	3.224	Win2	0.6286	n/a	Yes	3.224	n/a	n/a	GoodResponse	1	0.0	n/a	20	69	ISIslide	Win	True
662.021	0.25	Lose2	0.6338	0.0	Yes	3.029	0.021	n/a	GoodResponse	0	n/a	n/a	20	70	Cue	AvoidedLoss	True
662.272	4.05	Lose2	0.6338	0.0	Yes	3.029	0.001	n/a	GoodResponse	0	n/a	n/a	20	70	Fixation	AvoidedLoss	True
666.317	0.5	Lose2	0.6338	0.004	Yes	3.029	-0.004	2.0	GoodResponse	0	0.201	665.518	20	70	Target	AvoidedLoss	True
666.518	0.3	Lose2	0.6338	0.004	Yes	3.029	-0.004	2.0	GoodResponse	0	0.201	n/a	20	70	ButtonPress	AvoidedLoss	True
666.819	0.2	Lose2	0.6338	n/a	Yes	3.029	n/a	n/a	GoodResponse	0	n/a	n/a	20	70	Blank	AvoidedLoss	True
667.019	1.45	Lose2	0.6338	n/a	Yes	3.029	n/a	5.0	GoodResponse	0	0.019	666.038	20	70	Feedback	AvoidedLoss	True
668.474	3.029	Lose2	0.6338	n/a	Yes	3.029	n/a	n/a	GoodResponse	0	0.0	n/a	20	70	ISIslide	AvoidedLoss	True
671.516	0.25	Win2	0.6389	0.0	Yes	2.734	0.016	n/a	GoodResponse	1	n/a	n/a	21	71	Cue	Win	True
671.767	4.05	Win2	0.6389	0.0	Yes	2.734	0.001	n/a	GoodResponse	1	n/a	n/a	21	71	Fixation	Win	True
675.812	0.5	Win2	0.6389	0.004	Yes	2.734	-0.004	2.0	GoodResponse	1	0.223	675.035	21	71	Target	Win	True
676.035	0.3	Win2	0.6389	0.004	Yes	2.734	-0.004	2.0	GoodResponse	1	0.223	n/a	21	71	ButtonPress	Win	True
676.314	0.2	Win2	0.6389	n/a	Yes	2.734	n/a	n/a	GoodResponse	1	n/a	n/a	21	71	Blank	Win	True
676.514	1.45	Win2	0.6389	n/a	Yes	2.734	n/a	5.0	GoodResponse	1	0.037	675.551	21	71	Feedback	Win	True
677.969	2.734	Win2	0.6389	n/a	Yes	2.734	n/a	n/a	GoodResponse	1	0.0	n/a	21	71	ISIslide	Win	True
680.727	0.25	Win2	0.6437999999999999	0.0	Yes	2.773	0.027	n/a	GoodResponse	1	n/a	n/a	22	72	Cue	Win	True
680.978	4.1	Win2	0.6437999999999999	0.0	Yes	2.773	0.001	n/a	GoodResponse	1	n/a	n/a	22	72	Fixation	Win	True
685.073	0.5	Win2	0.6437999999999999	0.004	Yes	2.773	-0.004	2.0	GoodResponse	1	0.234	684.307	22	72	Target	Win	True
685.307	0.3	Win2	0.6437999999999999	0.004	Yes	2.773	-0.004	2.0	GoodResponse	1	0.234	n/a	22	72	ButtonPress	Win	True
685.575	0.2	Win2	0.6437999999999999	n/a	Yes	2.773	n/a	n/a	GoodResponse	1	n/a	n/a	22	72	Blank	Win	True
685.775	1.45	Win2	0.6437999999999999	n/a	Yes	2.773	n/a	5.0	GoodResponse	1	0.044	684.819	22	72	Feedback	Win	True
687.23	2.773	Win2	0.6437999999999999	n/a	Yes	2.773	n/a	n/a	GoodResponse	1	0.0	n/a	22	72	ISIslide	Win	True
690.021	0.25	Win2	0.6486	0.001	Yes	2.679	0.021	n/a	GoodResponse	1	n/a	n/a	23	73	Cue	Win	True
690.272	4.0	Win2	0.6486	0.0	Yes	2.679	0.001	n/a	GoodResponse	1	n/a	n/a	23	73	Fixation	Win	True
694.267	0.5	Win2	0.6486	0.004	Yes	2.679	-0.004	2.0	GoodResponse	1	0.208	693.475	23	73	Target	Win	True
694.475	0.3	Win2	0.6486	0.004	Yes	2.679	-0.004	2.0	GoodResponse	1	0.208	n/a	23	73	ButtonPress	Win	True
694.769	0.2	Win2	0.6486	n/a	Yes	2.679	n/a	n/a	GoodResponse	1	n/a	n/a	23	73	Blank	Win	True
694.97	1.45	Win2	0.6486	n/a	Yes	2.679	n/a	5.0	GoodResponse	1	0.02	693.99	23	73	Feedback	Win	True
696.424	2.679	Win2	0.6486	n/a	Yes	2.679	n/a	n/a	GoodResponse	1	0.0	n/a	23	73	ISIslide	Win	True
699.115	0.25	Lose2	0.6533	0.0	Yes	2.635	0.015	n/a	GoodResponse	0	n/a	n/a	23	74	Cue	AvoidedLoss	True
699.366	4.05	Lose2	0.6533	0.0	Yes	2.635	0.001	n/a	GoodResponse	0	n/a	n/a	23	74	Fixation	AvoidedLoss	True
703.411	0.5	Lose2	0.6533	0.004	Yes	2.635	-0.004	2.0	GoodResponse	0	0.191	702.602	23	74	Target	AvoidedLoss	True
703.602	0.3	Lose2	0.6533	0.004	Yes	2.635	-0.004	2.0	GoodResponse	0	0.191	n/a	23	74	ButtonPress	AvoidedLoss	True
703.913	0.2	Lose2	0.6533	n/a	Yes	2.635	n/a	n/a	GoodResponse	0	n/a	n/a	23	74	Blank	AvoidedLoss	True
704.113	1.45	Lose2	0.6533	n/a	Yes	2.635	n/a	5.0	GoodResponse	0	0.047	703.16	23	74	Feedback	AvoidedLoss	True
705.568	2.635	Lose2	0.6533	n/a	Yes	2.635	n/a	n/a	GoodResponse	0	0.0	n/a	23	74	ISIslide	AvoidedLoss	True
708.226	0.25	Lose2	0.6579	0.0	Yes	2.924	0.026	n/a	GoodResponse	0	n/a	n/a	23	75	Cue	AvoidedLoss	True
708.477	3.95	Lose2	0.6579	0.0	Yes	2.924	0.001	n/a	GoodResponse	0	n/a	n/a	23	75	Fixation	AvoidedLoss	True
712.422	0.5	Lose2	0.6579	0.004	Yes	2.924	-0.004	2.0	GoodResponse	0	0.229	711.651	23	75	Target	AvoidedLoss	True
712.651	0.3	Lose2	0.6579	0.004	Yes	2.924	-0.004	2.0	GoodResponse	0	0.229	n/a	23	75	ButtonPress	AvoidedLoss	True
712.923	0.2	Lose2	0.6579	n/a	Yes	2.924	n/a	n/a	GoodResponse	0	n/a	n/a	23	75	Blank	AvoidedLoss	True
713.124	1.45	Lose2	0.6579	n/a	Yes	2.924	n/a	5.0	GoodResponse	0	0.011	712.135	23	75	Feedback	AvoidedLoss	True
714.578	2.924	Lose2	0.6579	n/a	Yes	2.924	n/a	n/a	GoodResponse	0	0.0	n/a	23	75	ISIslide	AvoidedLoss	True
717.52	0.25	Control	0.6494	0.0	No	3.23	0.02	n/a	NoResponse	0	n/a	n/a	23	76	Cue	Neutral	False
717.771	4.05	Control	0.6494	0.0	No	3.23	0.001	n/a	NoResponse	0	n/a	n/a	23	76	Fixation	Neutral	False
721.816	0.5	Control	0.6494	0.004	No	3.23	-0.004	n/a	NoResponse	0	n/a	n/a	23	76	Target	Neutral	False
722.318	0.2	Control	0.6494	n/a	No	3.23	n/a	n/a	NoResponse	0	n/a	n/a	23	76	Blank	Neutral	False
722.518	1.45	Control	0.6494	n/a	No	3.23	n/a	5.0	NoResponse	0	0.032	721.55	23	76	Feedback	Neutral	False
723.973	3.23	Control	0.6494	n/a	No	3.23	n/a	n/a	NoResponse	0	0.0	n/a	23	76	ISIslide	Neutral	False
727.216	0.25	Lose2	0.6537999999999999	0.0	Yes	2.584	0.016	n/a	GoodResponse	0	n/a	n/a	23	77	Cue	AvoidedLoss	True
727.467	3.95	Lose2	0.6537999999999999	0.0	Yes	2.584	0.001	n/a	GoodResponse	0	n/a	n/a	23	77	Fixation	AvoidedLoss	True
731.412	0.5	Lose2	0.6537999999999999	0.004	Yes	2.584	-0.004	2.0	GoodResponse	0	0.215	730.627	23	77	Target	AvoidedLoss	True
731.627	0.3	Lose2	0.6537999999999999	0.004	Yes	2.584	-0.004	2.0	GoodResponse	0	0.215	n/a	23	77	ButtonPress	AvoidedLoss	True
731.913	0.2	Lose2	0.6537999999999999	n/a	Yes	2.584	n/a	n/a	GoodResponse	0	n/a	n/a	23	77	Blank	AvoidedLoss	True
732.114	1.45	Lose2	0.6537999999999999	n/a	Yes	2.584	n/a	5.0	GoodResponse	0	0.046	731.16	23	77	Feedback	AvoidedLoss	True
733.568	2.584	Lose2	0.6537999999999999	n/a	Yes	2.584	n/a	n/a	GoodResponse	0	0.0	n/a	23	77	ISIslide	AvoidedLoss	True
