onset	duration	cue_type	current_mean_accuracy	duration_error	is_hit	isi_adjusted	onset_delay	response	response_type	reward	rt	rt_time	total_reward	trial_number	trial_phase	trial_type	one_press
11.106	0.25	Control	1.0	0.0	Yes	2.944	0.006	n/a	GoodResponse	0	n/a	n/a	0	0	Cue	Neutral	True
11.357	3.85	Control	1.0	0.0	Yes	2.944	0.001	n/a	GoodResponse	0	n/a	n/a	0	0	Fixation	Neutral	True
15.202	0.4	Control	1.0	0.004	Yes	2.944	-0.004	4.0	GoodResponse	0	0.219	14.421	0	0	Target	Neutral	True
15.421	0.3	Control	1.0	0.004	Yes	2.944	-0.004	4.0	GoodResponse	0	0.219	n/a	0	0	ButtonPress	Neutral	True
15.603	0.3	Control	1.0	n/a	Yes	2.944	n/a	n/a	GoodResponse	0	n/a	n/a	0	0	Blank	Neutral	True
15.904	1.45	Control	1.0	n/a	Yes	2.944	n/a	5.0	GoodResponse	0	0.021	14.925	0	0	Feedback	Neutral	True
17.358	2.944	Control	1.0	n/a	Yes	2.944	n/a	n/a	GoodResponse	0	0.0	n/a	0	0	ISIslide	Neutral	True
20.317	0.25	Lose2	1.0	0.0	Yes	2.783	0.017	n/a	GoodResponse	0	n/a	n/a	0	1	Cue	AvoidedLoss	True
20.568	4.0	Lose2	1.0	0.0	Yes	2.783	0.001	n/a	GoodResponse	0	n/a	n/a	0	1	Fixation	AvoidedLoss	True
24.563	0.39	Lose2	1.0	0.004	Yes	2.783	-0.004	4.0	GoodResponse	0	0.194	23.757	0	1	Target	AvoidedLoss	True
24.757	0.3	Lose2	1.0	0.004	Yes	2.783	-0.004	4.0	GoodResponse	0	0.194	n/a	0	1	ButtonPress	AvoidedLoss	True
24.964	0.31	Lose2	1.0	n/a	Yes	2.783	n/a	n/a	GoodResponse	0	n/a	n/a	0	1	Blank	AvoidedLoss	True
25.265	1.45	Lose2	1.0	n/a	Yes	2.783	n/a	5.0	GoodResponse	0	0.026	24.291	0	1	Feedback	AvoidedLoss	True
26.72	2.783	Lose2	1.0	n/a	Yes	2.783	n/a	n/a	GoodResponse	0	0.0	n/a	0	1	ISIslide	AvoidedLoss	True
29.528	0.25	Control	0.6667000000000001	0.0	No	2.572	0.028	n/a	NoResponse	0	n/a	n/a	0	2	Cue	Neutral	False
29.779	4.1	Control	0.6667000000000001	0.0	No	2.572	0.001	4.0	NoResponse	0	3.831	32.61	0	2	Fixation	Neutral	False
33.61	0.3	Control	0.6667000000000001	0.0	No	2.572	0.001	4.0	NoResponse	0	3.831	n/a	0	2	ButtonPress	Neutral	False
33.874	0.38	Control	0.6667000000000001	0.004	No	2.572	-0.004	4.0	NoResponse	0	0.5	33.374	0	2	Target	Neutral	False
34.259	0.32	Control	0.6667000000000001	n/a	No	2.572	n/a	n/a	NoResponse	0	n/a	n/a	0	2	Blank	Neutral	False
34.374	0.3	Control	0.6667000000000001	0.004	No	2.572	-0.004	4.0	NoResponse	0	0.5	n/a	0	2	ButtonPress	Neutral	False
34.577	1.45	Control	0.6667000000000001	n/a	No	2.572	n/a	5.0	NoResponse	0	0.032	33.609	0	2	Feedback	Neutral	False
36.031	2.572	Control	0.6667000000000001	n/a	No	2.572	n/a	n/a	NoResponse	0	0.0	n/a	0	2	ISIslide	Neutral	False
38.622	0.25	Win2	0.75	0.0	Yes	2.828	0.022	n/a	GoodResponse	1	n/a	n/a	1	3	Cue	Win	True
38.873	3.95	Win2	0.75	0.0	Yes	2.828	0.001	n/a	GoodResponse	1	n/a	n/a	1	3	Fixation	Win	True
42.818	0.37	Win2	0.75	0.004	Yes	2.828	-0.004	4.0	GoodResponse	1	0.221	42.039	1	3	Target	Win	True
43.039	0.3	Win2	0.75	0.004	Yes	2.828	-0.004	4.0	GoodResponse	1	0.221	n/a	1	3	ButtonPress	Win	True
43.202	0.33	Win2	0.75	n/a	Yes	2.828	n/a	n/a	GoodResponse	1	n/a	n/a	1	3	Blank	Win	True
43.52	1.45	Win2	0.75	n/a	Yes	2.828	n/a	5.0	GoodResponse	1	0.016	42.536	1	3	Feedback	Win	True
44.974	2.828	Win2	0.75	n/a	Yes	2.828	n/a	n/a	GoodResponse	1	0.0	n/a	1	3	ISIslide	Win	True
47.816	0.25	Win2	0.8	0.0	Yes	3.284	0.016	n/a	GoodResponse	1	n/a	n/a	2	4	Cue	Win	True
48.067	4.0	Win2	0.8	0.0	Yes	3.284	0.001	n/a	GoodResponse	1	n/a	n/a	2	4	Fixation	Win	True
52.062	0.36	Win2	0.8	0.004	Yes	3.284	-0.004	4.0	GoodResponse	1	0.198	51.26	2	4	Target	Win	True
52.26	0.3	Win2	0.8	0.004	Yes	3.284	-0.004	4.0	GoodResponse	1	0.198	n/a	2	4	ButtonPress	Win	True
52.43	0.34	Win2	0.8	n/a	Yes	3.284	n/a	n/a	GoodResponse	1	n/a	n/a	2	4	Blank	Win	True
52.764	1.45	Win2	0.8	n/a	Yes	3.284	n/a	5.0	GoodResponse	1	0.04	51.804	2	4	Feedback	Win	True
54.219	3.284	Win2	0.8	n/a	Yes	3.284	n/a	n/a	GoodResponse	1	0.0	n/a	2	4	ISIslide	Win	True
57.529	0.25	Win2	0.8332999999999999	0.0	Yes	2.771	0.029	n/a	GoodResponse	1	n/a	n/a	3	5	Cue	Win	True
57.779	4.0	Win2	0.8332999999999999	0.001	Yes	2.771	0.0	n/a	GoodResponse	1	n/a	n/a	3	5	Fixation	Win	True
61.775	0.35	Win2	0.8332999999999999	0.004	Yes	2.771	-0.004	4.0	GoodResponse	1	0.179	60.954	3	5	Target	Win	True
61.954	0.3	Win2	0.8332999999999999	0.004	Yes	2.771	-0.004	4.0	GoodResponse	1	0.179	n/a	3	5	ButtonPress	Win	True
62.126	0.35	Win2	0.8332999999999999	n/a	Yes	2.771	n/a	n/a	GoodResponse	1	n/a	n/a	3	5	Blank	Win	True
62.477	1.45	Win2	0.8332999999999999	n/a	Yes	2.771	n/a	5.0	GoodResponse	1	0.033	61.51	3	5	Feedback	Win	True
63.931	2.771	Win2	0.8332999999999999	n/a	Yes	2.771	n/a	n/a	GoodResponse	1	0.0	n/a	3	5	ISIslide	Win	True
66.723	0.25	Lose2	0.8571	0.0	Yes	2.727	0.023	n/a	GoodResponse	0	n/a	n/a	3	6	Cue	AvoidedLoss	True
66.974	3.95	Lose2	0.8571	0.0	Yes	2.727	0.001	n/a	GoodResponse	0	n/a	n/a	3	6	Fixation	AvoidedLoss	True
70.919	0.34	Lose2	0.8571	0.004	Yes	2.727	-0.004	4.0	GoodResponse	0	0.216	70.135	3	6	Target	AvoidedLoss	True
71.135	0.3	Lose2	0.8571	0.004	Yes	2.727	-0.004	4.0	GoodResponse	0	0.216	n/a	3	6	ButtonPress	AvoidedLoss	True
71.27	0.36	Lose2	0.8571	n/a	Yes	2.727	n/a	n/a	GoodResponse	0	n/a	n/a	3	6	Blank	AvoidedLoss	True
71.621	1.45	Lose2	0.8571	n/a	Yes	2.727	n/a	5.0	GoodResponse	0	0.011	70.632	3	6	Feedback	AvoidedLoss	True
73.075	2.727	Lose2	0.8571	n/a	Yes	2.727	n/a	n/a	GoodResponse	0	0.0	n/a	3	6	ISIslide	AvoidedLoss	True
75.817	0.25	Lose2	0.875	0.0	Yes	4.033	0.017	n/a	GoodResponse	0	n/a	n/a	3	7	Cue	AvoidedLoss	True
76.068	4.05	Lose2	0.875	0.0	Yes	4.033	0.001	n/a	GoodResponse	0	n/a	n/a	3	7	Fixation	AvoidedLoss	True
80.113	0.33	Lose2	0.875	0.004	Yes	4.033	-0.004	4.0	GoodResponse	0	0.194	79.307	3	7	Target	AvoidedLoss	True
80.307	0.3	Lose2	0.875	0.004	Yes	4.033	-0.004	4.0	GoodResponse	0	0.194	n/a	3	7	ButtonPress	AvoidedLoss	True
80.447	0.37	Lose2	0.875	n/a	Yes	4.033	n/a	n/a	GoodResponse	0	n/a	n/a	3	7	Blank	AvoidedLoss	True
80.815	1.45	Lose2	0.875	n/a	Yes	4.033	n/a	5.0	GoodResponse	0	0.037	79.852	3	7	Feedback	AvoidedLoss	True
82.27	4.033	Lose2	0.875	n/a	Yes	4.033	n/a	n/a	GoodResponse	0	0.0	n/a	3	7	ISIslide	AvoidedLoss	True
86.315	0.25	Lose2	0.8889	0.0	Yes	3.035	0.015	n/a	GoodResponse	0	n/a	n/a	3	8	Cue	AvoidedLoss	True
86.566	3.95	Lose2	0.8889	0.0	Yes	3.035	0.001	n/a	GoodResponse	0	n/a	n/a	3	8	Fixation	AvoidedLoss	True
90.511	0.32	Lose2	0.8889	0.004	Yes	3.035	-0.004	4.0	GoodResponse	0	0.198	89.709	3	8	Target	AvoidedLoss	True
90.709	0.3	Lose2	0.8889	0.004	Yes	3.035	-0.004	4.0	GoodResponse	0	0.198	n/a	3	8	ButtonPress	AvoidedLoss	True
90.845	0.38	Lose2	0.8889	n/a	Yes	3.035	n/a	n/a	GoodResponse	0	n/a	n/a	3	8	Blank	AvoidedLoss	True
91.213	1.45	Lose2	0.8889	n/a	Yes	3.035	n/a	5.0	GoodResponse	0	0.029	90.242	3	8	Feedback	AvoidedLoss	True
92.667	3.035	Lose2	0.8889	n/a	Yes	3.035	n/a	n/a	GoodResponse	0	0.0	n/a	3	8	ISIslide	AvoidedLoss	True
95.726	0.25	Lose2	0.9	0.001	Yes	3.124	0.026	n/a	GoodResponse	0	n/a	n/a	3	9	Cue	AvoidedLoss	True
95.977	3.95	Lose2	0.9	0.0	Yes	3.124	0.001	n/a	GoodResponse	0	n/a	n/a	3	9	Fixation	AvoidedLoss	True
99.922	0.31	Lose2	0.9	0.004	Yes	3.124	-0.004	4.0	GoodResponse	0	0.198	99.12	3	9	Target	AvoidedLoss	True
100.12	0.3	Lose2	0.9	0.004	Yes	3.124	-0.004	4.0	GoodResponse	0	0.198	n/a	3	9	ButtonPress	AvoidedLoss	True
100.24	0.39	Lose2	0.9	n/a	Yes	3.124	n/a	n/a	GoodResponse	0	n/a	n/a	3	9	Blank	AvoidedLoss	True
100.624	1.45	Lose2	0.9	n/a	Yes	3.124	n/a	5.0	GoodResponse	0	0.033	99.657	3	9	Feedback	AvoidedLoss	True
102.079	3.124	Lose2	0.9	n/a	Yes	3.124	n/a	n/a	GoodResponse	0	0.0	n/a	3	9	ISIslide	AvoidedLoss	True
105.222	0.25	Control	0.9091	0.0	Yes	3.278	0.022	n/a	GoodResponse	0	n/a	n/a	3	10	Cue	Neutral	True
105.472	4.0	Control	0.9091	0.0	Yes	3.278	0.0	n/a	GoodResponse	0	n/a	n/a	3	10	Fixation	Neutral	True
109.468	0.3	Control	0.9091	0.004	Yes	3.278	-0.004	4.0	GoodResponse	0	0.191	108.659	3	10	Target	Neutral	True
109.659	0.3	Control	0.9091	0.004	Yes	3.278	-0.004	4.0	GoodResponse	0	0.191	n/a	3	10	ButtonPress	Neutral	True
109.769	0.4	Control	0.9091	n/a	Yes	3.278	n/a	n/a	GoodResponse	0	n/a	n/a	3	10	Blank	Neutral	True
110.17	1.45	Control	0.9091	n/a	Yes	3.278	n/a	5.0	GoodResponse	0	0.048	109.218	3	10	Feedback	Neutral	True
111.624	3.278	Control	0.9091	n/a	Yes	3.278	n/a	n/a	GoodResponse	0	0.0	n/a	3	10	ISIslide	Neutral	True
114.917	0.25	Lose2	0.9167000000000001	0.0	Yes	2.733	0.017	n/a	GoodResponse	0	n/a	n/a	3	11	Cue	AvoidedLoss	True
115.168	4.05	Lose2	0.9167000000000001	0.0	Yes	2.733	0.001	n/a	GoodResponse	0	n/a	n/a	3	11	Fixation	AvoidedLoss	True
119.214	0.29	Lose2	0.9167000000000001	0.003	Yes	2.733	-0.003	4.0	GoodResponse	0	0.214	118.428	3	11	Target	AvoidedLoss	True
119.428	0.3	Lose2	0.9167000000000001	0.003	Yes	2.733	-0.003	4.0	GoodResponse	0	0.214	n/a	3	11	ButtonPress	AvoidedLoss	True
119.514	0.41	Lose2	0.9167000000000001	n/a	Yes	2.733	n/a	n/a	GoodResponse	0	n/a	n/a	3	11	Blank	AvoidedLoss	True
119.916	1.45	Lose2	0.9167000000000001	n/a	Yes	2.733	n/a	5.0	GoodResponse	0	0.009	118.925	3	11	Feedback	AvoidedLoss	True
121.37	2.733	Lose2	0.9167000000000001	n/a	Yes	2.733	n/a	n/a	GoodResponse	0	0.0	n/a	3	11	ISIslide	AvoidedLoss	True
124.128	0.25	Control	0.8462000000000001	0.0	No	2.972	0.028	n/a	PrematurePress	0	n/a	n/a	3	12	Cue	Neutral	True
124.379	3.9	Control	0.8462000000000001	0.0	No	2.972	0.001	n/a	PrematurePress	0	n/a	n/a	3	12	Fixation	Neutral	True
128.274	0.28	Control	0.8462000000000001	0.004	No	2.972	-0.004	4.0	PrematurePress	0	0.01	127.284	3	12	Target	Neutral	True
128.284	0.3	Control	0.8462000000000001	0.004	No	2.972	-0.004	4.0	PrematurePress	0	0.01	n/a	3	12	ButtonPress	Neutral	True
128.558	0.42	Control	0.8462000000000001	n/a	No	2.972	n/a	n/a	PrematurePress	0	n/a	n/a	3	12	Blank	Neutral	True
128.976	1.45	Control	0.8462000000000001	n/a	No	2.972	n/a	5.0	PrematurePress	0	0.022	127.998	3	12	Feedback	Neutral	True
130.43	2.972	Control	0.8462000000000001	n/a	No	2.972	n/a	n/a	PrematurePress	0	0.0	n/a	3	12	ISIslide	Neutral	True
133.423	0.25	Control	0.8571	0.0	Yes	2.777	0.023	n/a	GoodResponse	0	n/a	n/a	3	13	Cue	Neutral	True
133.674	4.0	Control	0.8571	0.0	Yes	2.777	0.001	n/a	GoodResponse	0	n/a	n/a	3	13	Fixation	Neutral	True
137.669	0.27	Control	0.8571	0.004	Yes	2.777	-0.004	4.0	GoodResponse	0	0.231	136.9	3	13	Target	Neutral	True
137.9	0.3	Control	0.8571	0.004	Yes	2.777	-0.004	4.0	GoodResponse	0	0.231	n/a	3	13	ButtonPress	Neutral	True
137.953	0.43	Control	0.8571	n/a	Yes	2.777	n/a	n/a	GoodResponse	0	n/a	n/a	3	13	Blank	Neutral	True
138.371	1.45	Control	0.8571	n/a	Yes	2.777	n/a	5.0	GoodResponse	0	0.042	137.413	3	13	Feedback	Neutral	True
139.825	2.777	Control	0.8571	n/a	Yes	2.777	n/a	n/a	GoodResponse	0	0.0	n/a	3	13	ISIslide	Neutral	True
142.617	0.25	Win2	0.8667	0.0	Yes	2.683	0.017	n/a	GoodResponse	1	n/a	n/a	4	14	Cue	Win	True
142.868	4.1	Win2	0.8667	0.0	Yes	2.683	0.001	n/a	GoodResponse	1	n/a	n/a	4	14	Fixation	Win	True
146.963	0.26	Win2	0.8667	0.004	Yes	2.683	-0.004	4.0	GoodResponse	1	0.196	146.159	4	14	Target	Win	True
147.159	0.3	Win2	0.8667	0.004	Yes	2.683	-0.004	4.0	GoodResponse	1	0.196	n/a	4	14	ButtonPress	Win	True
147.231	0.44	Win2	0.8667	n/a	Yes	2.683	n/a	n/a	GoodResponse	1	n/a	n/a	4	14	Blank	Win	True
147.665	1.45	Win2	0.8667	n/a	Yes	2.683	n/a	5.0	GoodResponse	1	0.016	146.681	4	14	Feedback	Win	True
149.12	2.683	Win2	0.8667	n/a	Yes	2.683	n/a	n/a	GoodResponse	1	0.0	n/a	4	14	ISIslide	Win	True
151.828	0.25	Control	0.875	0.0	Yes	2.972	0.028	n/a	GoodResponse	0	n/a	n/a	4	15	Cue	Neutral	True
152.079	4.0	Control	0.875	0.0	Yes	2.972	0.001	n/a	GoodResponse	0	n/a	n/a	4	15	Fixation	Neutral	True
156.074	0.25	Control	0.875	0.004	Yes	2.972	-0.004	4.0	GoodResponse	0	0.174	155.248	4	15	Target	Neutral	True
156.248	0.3	Control	0.875	0.004	Yes	2.972	-0.004	4.0	GoodResponse	0	0.174	n/a	4	15	ButtonPress	Neutral	True
156.325	0.45	Control	0.875	n/a	Yes	2.972	n/a	n/a	GoodResponse	0	n/a	n/a	4	15	Blank	Neutral	True
156.776	1.45	Control	0.875	n/a	Yes	2.972	n/a	5.0	GoodResponse	0	0.027	155.803	4	15	Feedback	Neutral	True
158.23	2.972	Control	0.875	n/a	Yes	2.972	n/a	n/a	GoodResponse	0	0.0	n/a	4	15	ISIslide	Neutral	True
161.223	0.25	Win2	0.8824	0.0	Yes	2.877	0.023	n/a	GoodResponse	1	n/a	n/a	5	16	Cue	Win	True
161.473	4.0	Win2	0.8824	0.001	Yes	2.877	0.0	n/a	GoodResponse	1	n/a	n/a	5	16	Fixation	Win	True
165.469	0.24	Win2	0.8824	0.004	Yes	2.877	-0.004	4.0	GoodResponse	1	0.199	164.668	5	16	Target	Win	True
165.668	0.3	Win2	0.8824	0.004	Yes	2.877	-0.004	4.0	GoodResponse	1	0.199	n/a	5	16	ButtonPress	Win	True
165.72	0.46	Win2	0.8824	n/a	Yes	2.877	n/a	n/a	GoodResponse	1	n/a	n/a	5	16	Blank	Win	True
166.171	1.45	Win2	0.8824	n/a	Yes	2.877	n/a	5.0	GoodResponse	1	0.047	165.218	5	16	Feedback	Win	True
167.625	2.877	Win2	0.8824	n/a	Yes	2.877	n/a	n/a	GoodResponse	1	0.0	n/a	5	16	ISIslide	Win	True
170.517	0.25	Lose2	0.8889	0.0	Yes	2.733	0.017	n/a	GoodResponse	0	n/a	n/a	5	17	Cue	AvoidedLoss	True
170.768	3.95	Lose2	0.8889	0.0	Yes	2.733	0.001	n/a	GoodResponse	0	n/a	n/a	5	17	Fixation	AvoidedLoss	True
174.713	0.23	Lose2	0.8889	0.004	Yes	2.733	-0.004	4.0	GoodResponse	0	0.18	173.893	5	17	Target	AvoidedLoss	True
174.893	0.3	Lose2	0.8889	0.004	Yes	2.733	-0.004	4.0	GoodResponse	0	0.18	n/a	5	17	ButtonPress	AvoidedLoss	True
174.947	0.47	Lose2	0.8889	n/a	Yes	2.733	n/a	n/a	GoodResponse	0	n/a	n/a	5	17	Blank	AvoidedLoss	True
175.415	1.45	Lose2	0.8889	n/a	Yes	2.733	n/a	5.0	GoodResponse	0	0.023	174.438	5	17	Feedback	AvoidedLoss	True
176.87	2.733	Lose2	0.8889	n/a	Yes	2.733	n/a	n/a	GoodResponse	0	0.0	n/a	5	17	ISIslide	AvoidedLoss	True
179.628	0.25	Lose2	0.8946999999999999	0.0	Yes	2.722	0.028	n/a	GoodResponse	0	n/a	n/a	5	18	Cue	AvoidedLoss	True
179.879	4.05	Lose2	0.8946999999999999	0.0	Yes	2.722	0.001	n/a	GoodResponse	0	n/a	n/a	5	18	Fixation	AvoidedLoss	True
183.924	0.22	Lose2	0.8946999999999999	0.004	Yes	2.722	-0.004	4.0	GoodResponse	0	0.177	183.101	5	18	Target	AvoidedLoss	True
184.101	0.3	Lose2	0.8946999999999999	0.004	Yes	2.722	-0.004	4.0	GoodResponse	0	0.177	n/a	5	18	ButtonPress	AvoidedLoss	True
184.158	0.48	Lose2	0.8946999999999999	n/a	Yes	2.722	n/a	n/a	GoodResponse	0	n/a	n/a	5	18	Blank	AvoidedLoss	True
184.626	1.45	Lose2	0.8946999999999999	n/a	Yes	2.722	n/a	5.0	GoodResponse	0	0.03	183.656	5	18	Feedback	AvoidedLoss	True
186.081	2.722	Lose2	0.8946999999999999	n/a	Yes	2.722	n/a	n/a	GoodResponse	0	0.0	n/a	5	18	ISIslide	AvoidedLoss	True
188.822	0.25	Control	0.9	0.0	Yes	2.928	0.022	n/a	GoodResponse	0	n/a	n/a	5	19	Cue	Neutral	True
189.073	3.95	Control	0.9	0.0	Yes	2.928	0.001	n/a	GoodResponse	0	n/a	n/a	5	19	Fixation	Neutral	True
193.018	0.21	Control	0.9	0.004	Yes	2.928	-0.004	4.0	GoodResponse	0	0.163	192.181	5	19	Target	Neutral	True
193.181	0.3	Control	0.9	0.004	Yes	2.928	-0.004	4.0	GoodResponse	0	0.163	n/a	5	19	ButtonPress	Neutral	True
193.235	0.49	Control	0.9	n/a	Yes	2.928	n/a	n/a	GoodResponse	0	n/a	n/a	5	19	Blank	Neutral	True
193.72	1.45	Control	0.9	n/a	Yes	2.928	n/a	5.0	GoodResponse	0	0.009	192.729	5	19	Feedback	Neutral	True
195.174	2.928	Control	0.9	n/a	Yes	2.928	n/a	n/a	GoodResponse	0	0.0	n/a	5	19	ISIslide	Neutral	True
198.117	0.25	Control	0.8571	0.0	No	2.633	0.017	n/a	LatePress	0	n/a	n/a	5	20	Cue	Neutral	True
198.367	4.05	Control	0.8571	0.0	No	2.633	0.0	n/a	LatePress	0	n/a	n/a	5	20	Fixation	Neutral	True
202.413	0.2	Control	0.8571	0.004	No	2.633	-0.004	4.0	LatePress	0	0.203	201.616	5	20	Target	Neutral	True
202.613	0.5	Control	0.8571	n/a	No	2.633	n/a	n/a	LatePress	0	n/a	n/a	5	20	Blank	Neutral	True
202.616	0.3	Control	0.8571	0.004	No	2.633	-0.004	4.0	LatePress	0	0.203	n/a	5	20	ButtonPress	Neutral	True
203.115	1.45	Control	0.8571	n/a	No	2.633	n/a	5.0	LatePress	0	0.029	202.144	5	20	Feedback	Neutral	True
204.569	2.633	Control	0.8571	n/a	No	2.633	n/a	n/a	LatePress	0	0.0	n/a	5	20	ISIslide	Neutral	True
207.227	0.25	Control	0.8181999999999999	0.0	No	2.773	0.027	n/a	NoResponse	0	n/a	n/a	5	21	Cue	Neutral	False
207.478	4.1	Control	0.8181999999999999	0.0	No	2.773	0.001	4.0	NoResponse	0	3.923	210.401	5	21	Fixation	Neutral	False
211.401	0.3	Control	0.8181999999999999	0.0	No	2.773	0.001	4.0	NoResponse	0	3.923	n/a	5	21	ButtonPress	Neutral	False
211.574	0.19	Control	0.8181999999999999	0.003	No	2.773	-0.003	4.0	NoResponse	0	0.32	210.894	5	21	Target	Neutral	False
211.774	0.51	Control	0.8181999999999999	n/a	No	2.773	n/a	n/a	NoResponse	0	n/a	n/a	5	21	Blank	Neutral	False
211.894	0.3	Control	0.8181999999999999	0.003	No	2.773	-0.003	4.0	NoResponse	0	0.32	n/a	5	21	ButtonPress	Neutral	False
212.276	1.45	Control	0.8181999999999999	n/a	No	2.773	n/a	5.0	NoResponse	0	0.039	211.315	5	21	Feedback	Neutral	False
213.73	2.773	Control	0.8181999999999999	n/a	No	2.773	n/a	n/a	NoResponse	0	0.0	n/a	5	21	ISIslide	Neutral	False
216.522	0.25	Control	0.7826000000000001	0.0	No	2.778	0.022	n/a	NoResponse	0	n/a	n/a	5	22	Cue	Neutral	True
216.773	4.0	Control	0.7826000000000001	0.0	No	2.778	0.001	n/a	NoResponse	0	n/a	n/a	5	22	Fixation	Neutral	True
220.768	0.18	Control	0.7826000000000001	0.004	No	2.778	-0.004	4.0	NoResponse	0	0.223	219.991	5	22	Target	Neutral	True
220.952	0.52	Control	0.7826000000000001	n/a	No	2.778	n/a	n/a	NoResponse	0	n/a	n/a	5	22	Blank	Neutral	True
220.991	0.3	Control	0.7826000000000001	0.004	No	2.778	-0.004	4.0	NoResponse	0	0.223	n/a	5	22	ButtonPress	Neutral	True
221.47	1.45	Control	0.7826000000000001	n/a	No	2.778	n/a	5.0	NoResponse	0	0.016	220.486	5	22	Feedback	Neutral	True
222.924	2.778	Control	0.7826000000000001	n/a	No	2.778	n/a	n/a	NoResponse	0	0.0	n/a	5	22	ISIslide	Neutral	True
225.716	0.25	Control	0.7917000000000001	0.0	Yes	2.784	0.016	n/a	GoodResponse	0	n/a	n/a	5	23	Cue	Neutral	True
225.967	3.9	Control	0.7917000000000001	0.0	Yes	2.784	0.001	n/a	GoodResponse	0	n/a	n/a	5	23	Fixation	Neutral	True
229.862	0.17	Control	0.7917000000000001	0.004	Yes	2.784	-0.004	4.0	GoodResponse	0	0.169	229.031	5	23	Target	Neutral	True
230.031	0.3	Control	0.7917000000000001	0.004	Yes	2.784	-0.004	4.0	GoodResponse	0	0.169	n/a	5	23	ButtonPress	Neutral	True
230.046	0.53	Control	0.7917000000000001	n/a	Yes	2.784	n/a	n/a	GoodResponse	0	n/a	n/a	5	23	Blank	Neutral	True
230.564	1.45	Control	0.7917000000000001	n/a	Yes	2.784	n/a	5.0	GoodResponse	0	0.044	229.608	5	23	Feedback	Neutral	True
232.018	2.784	Control	0.7917000000000001	n/a	Yes	2.784	n/a	n/a	GoodResponse	0	0.0	n/a	5	23	ISIslide	Neutral	True
234.827	0.25	Win2	0.76	0.0	No	3.123	0.027	n/a	NoResponse	0	n/a	n/a	5	24	Cue	MissedWin	True
235.077	3.95	Win2	0.76	0.0	No	3.123	0.0	n/a	NoResponse	0	n/a	n/a	5	24	Fixation	MissedWin	True
239.023	0.16	Win2	0.76	0.004	No	3.123	-0.004	4.0	NoResponse	0	0.178	238.201	5	24	Target	MissedWin	True
239.19	0.54	Win2	0.76	n/a	No	3.123	n/a	n/a	NoResponse	0	n/a	n/a	5	24	Blank	MissedWin	True
239.201	0.3	Win2	0.76	0.004	No	3.123	-0.004	4.0	NoResponse	0	0.178	n/a	5	24	ButtonPress	MissedWin	True
239.725	1.45	Win2	0.76	n/a	No	3.123	n/a	5.0	NoResponse	0	0.005	238.73	5	24	Feedback	MissedWin	True
241.179	3.123	Win2	0.76	n/a	No	3.123	n/a	n/a	NoResponse	0	0.0	n/a	5	24	ISIslide	MissedWin	True
244.322	0.25	Win2	0.7308	0.0	No	3.078	0.022	n/a	NoResponse	0	n/a	n/a	5	25	Cue	MissedWin	True
244.572	4.0	Win2	0.7308	0.001	No	3.078	0.0	4.0	NoResponse	0	3.909	247.481	5	25	Fixation	MissedWin	True
248.481	0.3	Win2	0.7308	0.001	No	3.078	0.0	4.0	NoResponse	0	3.909	n/a	5	25	ButtonPress	MissedWin	True
248.568	0.15	Win2	0.7308	0.004	No	3.078	-0.004	n/a	NoResponse	0	n/a	n/a	5	25	Target	MissedWin	True
248.718	0.55	Win2	0.7308	n/a	No	3.078	n/a	n/a	NoResponse	0	n/a	n/a	5	25	Blank	MissedWin	True
249.27	1.45	Win2	0.7308	n/a	No	3.078	n/a	5.0	NoResponse	0	0.02	248.29	5	25	Feedback	MissedWin	True
250.724	3.078	Win2	0.7308	n/a	No	3.078	n/a	n/a	NoResponse	0	0.0	n/a	5	25	ISIslide	MissedWin	True
253.817	0.25	Win2	0.7037	0.0	No	2.933	0.017	n/a	NoResponse	0	n/a	n/a	5	26	Cue	MissedWin	True
254.068	3.95	Win2	0.7037	0.0	No	2.933	0.001	n/a	NoResponse	0	n/a	n/a	5	26	Fixation	MissedWin	True
258.013	0.15	Win2	0.7037	0.004	No	2.933	-0.004	4.0	NoResponse	0	0.211	257.224	5	26	Target	MissedWin	True
258.163	0.55	Win2	0.7037	n/a	No	2.933	n/a	n/a	NoResponse	0	n/a	n/a	5	26	Blank	MissedWin	True
258.224	0.3	Win2	0.7037	0.004	No	2.933	-0.004	4.0	NoResponse	0	0.211	n/a	5	26	ButtonPress	MissedWin	True
258.715	1.45	Win2	0.7037	n/a	No	2.933	n/a	5.0	NoResponse	0	0.039	257.754	5	26	Feedback	MissedWin	True
260.169	2.933	Win2	0.7037	n/a	No	2.933	n/a	n/a	NoResponse	0	0.0	n/a	5	26	ISIslide	MissedWin	True
263.128	0.25	Lose2	0.6786	0.0	No	2.822	0.028	n/a	NoResponse	-1	n/a	n/a	4	27	Cue	Loss	True
263.379	4.05	Lose2	0.6786	0.0	No	2.822	0.001	n/a	NoResponse	-1	n/a	n/a	4	27	Fixation	Loss	True
267.424	0.15	Lose2	0.6786	0.004	No	2.822	-0.004	4.0	NoResponse	-1	0.177	266.601	4	27	Target	Loss	True
267.575	0.55	Lose2	0.6786	n/a	No	2.822	n/a	n/a	NoResponse	-1	n/a	n/a	4	27	Blank	Loss	True
267.601	0.3	Lose2	0.6786	0.004	No	2.822	-0.004	4.0	NoResponse	-1	0.177	n/a	4	27	ButtonPress	Loss	True
268.126	1.45	Lose2	0.6786	n/a	No	2.822	n/a	5.0	NoResponse	-1	0.042	267.168	4	27	Feedback	Loss	True
269.581	2.822	Lose2	0.6786	n/a	No	2.822	n/a	n/a	NoResponse	-1	0.0	n/a	4	27	ISIslide	Loss	True
272.423	0.25	Control	0.6552	0.0	No	2.827	0.023	n/a	NoResponse	0	n/a	n/a	4	28	Cue	Neutral	True
272.673	4.05	Control	0.6552	0.0	No	2.827	0.0	n/a	NoResponse	0	n/a	n/a	4	28	Fixation	Neutral	True
276.719	0.15	Control	0.6552	0.004	No	2.827	-0.004	4.0	NoResponse	0	0.201	275.92	4	28	Target	Neutral	True
276.869	0.55	Control	0.6552	n/a	No	2.827	n/a	n/a	NoResponse	0	n/a	n/a	4	28	Blank	Neutral	True
276.92	0.3	Control	0.6552	0.004	No	2.827	-0.004	4.0	NoResponse	0	0.201	n/a	4	28	ButtonPress	Neutral	True
277.421	1.45	Control	0.6552	n/a	No	2.827	n/a	5.0	NoResponse	0	0.016	276.437	4	28	Feedback	Neutral	True
278.875	2.827	Control	0.6552	n/a	No	2.827	n/a	n/a	NoResponse	0	0.0	n/a	4	28	ISIslide	Neutral	True
281.717	0.25	Lose2	0.6333	0.0	No	2.833	0.017	n/a	PrematurePress	-1	n/a	n/a	3	29	Cue	Loss	False
281.968	3.95	Lose2	0.6333	0.0	No	2.833	0.001	4.0	PrematurePress	-1	3.948	284.916	3	29	Fixation	Loss	False
285.913	0.15	Lose2	0.6333	0.004	No	2.833	-0.004	4.0	PrematurePress	-1	0.003	284.916	3	29	Target	Loss	False
285.916	0.3	Lose2	0.6333	0.0	No	2.833	0.001	4.0	PrematurePress	-1	3.948	n/a	3	29	ButtonPress	Loss	False
285.916	0.3	Lose2	0.6333	0.004	No	2.833	-0.004	4.0	PrematurePress	-1	0.003	n/a	3	29	ButtonPress	Loss	False
286.063	0.55	Lose2	0.6333	n/a	No	2.833	n/a	n/a	PrematurePress	-1	n/a	n/a	3	29	Blank	Loss	False
286.615	1.45	Lose2	0.6333	n/a	No	2.833	n/a	5.0	PrematurePress	-1	0.041	285.656	3	29	Feedback	Loss	False
288.069	2.833	Lose2	0.6333	n/a	No	2.833	n/a	n/a	PrematurePress	-1	0.0	n/a	3	29	ISIslide	Loss	False
290.928	0.25	Win2	0.6129	0.0	No	2.772	0.028	n/a	NoResponse	0	n/a	n/a	3	30	Cue	MissedWin	True
291.179	3.9	Win2	0.6129	0.0	No	2.772	0.001	n/a	NoResponse	0	n/a	n/a	3	30	Fixation	MissedWin	True
295.074	0.16	Win2	0.6129	0.004	No	2.772	-0.004	4.0	NoResponse	0	0.216	294.29	3	30	Target	MissedWin	True
295.241	0.54	Win2	0.6129	n/a	No	2.772	n/a	n/a	NoResponse	0	n/a	n/a	3	30	Blank	MissedWin	True
295.29	0.3	Win2	0.6129	0.004	No	2.772	-0.004	4.0	NoResponse	0	0.216	n/a	3	30	ButtonPress	MissedWin	True
295.776	1.45	Win2	0.6129	n/a	No	2.772	n/a	5.0	NoResponse	0	0.004	294.78	3	30	Feedback	MissedWin	True
297.23	2.772	Win2	0.6129	n/a	No	2.772	n/a	n/a	NoResponse	0	0.0	n/a	3	30	ISIslide	MissedWin	True
300.022	0.25	Lose2	0.5938	0.0	No	2.828	0.022	n/a	NoResponse	-1	n/a	n/a	2	31	Cue	Loss	True
300.273	4.05	Lose2	0.5938	0.0	No	2.828	0.001	4.0	NoResponse	-1	3.925	303.198	2	31	Fixation	Loss	True
304.198	0.3	Lose2	0.5938	0.0	No	2.828	0.001	4.0	NoResponse	-1	3.925	n/a	2	31	ButtonPress	Loss	True
304.318	0.17	Lose2	0.5938	0.004	No	2.828	-0.004	n/a	NoResponse	-1	n/a	n/a	2	31	Target	Loss	True
304.502	0.53	Lose2	0.5938	n/a	No	2.828	n/a	n/a	NoResponse	-1	n/a	n/a	2	31	Blank	Loss	True
305.02	1.45	Lose2	0.5938	n/a	No	2.828	n/a	5.0	NoResponse	-1	0.026	304.046	2	31	Feedback	Loss	True
306.475	2.828	Lose2	0.5938	n/a	No	2.828	n/a	n/a	NoResponse	-1	0.0	n/a	2	31	ISIslide	Loss	True
309.316	0.25	Lose2	0.5758	0.001	No	2.634	0.016	n/a	NoResponse	-1	n/a	n/a	1	32	Cue	Loss	True
309.567	4.15	Lose2	0.5758	0.0	No	2.634	0.001	n/a	NoResponse	-1	n/a	n/a	1	32	Fixation	Loss	True
313.713	0.18	Lose2	0.5758	0.003	No	2.634	-0.003	4.0	NoResponse	-1	0.208	312.921	1	32	Target	Loss	True
313.897	0.52	Lose2	0.5758	n/a	No	2.634	n/a	n/a	NoResponse	-1	n/a	n/a	1	32	Blank	Loss	True
313.921	0.3	Lose2	0.5758	0.003	No	2.634	-0.003	4.0	NoResponse	-1	0.208	n/a	1	32	ButtonPress	Loss	True
314.415	1.45	Lose2	0.5758	n/a	No	2.634	n/a	5.0	NoResponse	-1	0.046	313.461	1	32	Feedback	Loss	True
315.869	2.634	Lose2	0.5758	n/a	No	2.634	n/a	n/a	NoResponse	-1	0.0	n/a	1	32	ISIslide	Loss	True
318.527	0.25	Win2	0.5588000000000001	0.0	No	2.673	0.027	n/a	NoResponse	0	n/a	n/a	1	33	Cue	MissedWin	False
318.778	4.0	Win2	0.5588000000000001	0.0	No	2.673	0.001	4.0	NoResponse	0	3.834	321.612	1	33	Fixation	MissedWin	False
322.612	0.3	Win2	0.5588000000000001	0.0	No	2.673	0.001	4.0	NoResponse	0	3.834	n/a	1	33	ButtonPress	MissedWin	False
322.773	0.19	Win2	0.5588000000000001	0.004	No	2.673	-0.004	4.0	NoResponse	0	0.225	321.998	1	33	Target	MissedWin	False
322.974	0.51	Win2	0.5588000000000001	n/a	No	2.673	n/a	n/a	NoResponse	0	n/a	n/a	1	33	Blank	MissedWin	False
322.998	0.3	Win2	0.5588000000000001	0.004	No	2.673	-0.004	4.0	NoResponse	0	0.225	n/a	1	33	ButtonPress	MissedWin	False
323.476	1.45	Win2	0.5588000000000001	n/a	No	2.673	n/a	5.0	NoResponse	0	0.009	322.485	1	33	Feedback	MissedWin	False
324.93	2.673	Win2	0.5588000000000001	n/a	No	2.673	n/a	n/a	NoResponse	0	0.0	n/a	1	33	ISIslide	MissedWin	False
327.621	0.25	Lose2	0.5428999999999999	0.0	No	2.629	0.021	n/a	NoResponse	-1	n/a	n/a	0	34	Cue	Loss	True
327.872	4.05	Lose2	0.5428999999999999	0.0	No	2.629	0.001	n/a	NoResponse	-1	n/a	n/a	0	34	Fixation	Loss	True
331.918	0.2	Lose2	0.5428999999999999	0.003	No	2.629	-0.003	4.0	NoResponse	-1	0.209	331.127	0	34	Target	Loss	True
332.118	0.5	Lose2	0.5428999999999999	n/a	No	2.629	n/a	n/a	NoResponse	-1	n/a	n/a	0	34	Blank	Loss	True
332.127	0.3	Lose2	0.5428999999999999	0.003	No	2.629	-0.003	4.0	NoResponse	-1	0.209	n/a	0	34	ButtonPress	Loss	True
332.62	1.45	Lose2	0.5428999999999999	n/a	No	2.629	n/a	5.0	NoResponse	-1	0.036	331.656	0	34	Feedback	Loss	True
334.074	2.629	Lose2	0.5428999999999999	n/a	No	2.629	n/a	n/a	NoResponse	-1	0.0	n/a	0	34	ISIslide	Loss	True
336.715	0.25	Lose2	0.5556	0.0	Yes	2.685	0.015	n/a	GoodResponse	0	n/a	n/a	0	35	Cue	AvoidedLoss	True
336.966	4.0	Lose2	0.5556	0.0	Yes	2.685	0.001	n/a	GoodResponse	0	n/a	n/a	0	35	Fixation	AvoidedLoss	True
340.961	0.21	Lose2	0.5556	0.004	Yes	2.685	-0.004	4.0	GoodResponse	0	0.198	340.159	0	35	Target	AvoidedLoss	True
341.159	0.3	Lose2	0.5556	0.004	Yes	2.685	-0.004	4.0	GoodResponse	0	0.198	n/a	0	35	ButtonPress	AvoidedLoss	True
341.179	0.49	Lose2	0.5556	n/a	Yes	2.685	n/a	n/a	GoodResponse	0	n/a	n/a	0	35	Blank	AvoidedLoss	True
341.663	1.45	Lose2	0.5556	n/a	Yes	2.685	n/a	5.0	GoodResponse	0	0.018	340.681	0	35	Feedback	AvoidedLoss	True
343.118	2.685	Lose2	0.5556	n/a	Yes	2.685	n/a	n/a	GoodResponse	0	0.0	n/a	0	35	ISIslide	AvoidedLoss	True
345.826	0.25	Control	0.5405	0.0	No	2.674	0.026	n/a	NoResponse	0	n/a	n/a	0	36	Cue	Neutral	True
346.077	4.0	Control	0.5405	0.0	No	2.674	0.001	4.0	NoResponse	0	3.851	348.928	0	36	Fixation	Neutral	True
349.928	0.3	Control	0.5405	0.0	No	2.674	0.001	4.0	NoResponse	0	3.851	n/a	0	36	ButtonPress	Neutral	True
350.072	0.22	Control	0.5405	0.004	No	2.674	-0.004	n/a	NoResponse	0	n/a	n/a	0	36	Target	Neutral	True
350.306	0.48	Control	0.5405	n/a	No	2.674	n/a	n/a	NoResponse	0	n/a	n/a	0	36	Blank	Neutral	True
350.774	1.45	Control	0.5405	n/a	No	2.674	n/a	5.0	NoResponse	0	0.029	349.803	0	36	Feedback	Neutral	True
352.228	2.674	Control	0.5405	n/a	No	2.674	n/a	n/a	NoResponse	0	0.0	n/a	0	36	ISIslide	Neutral	True
354.92	0.25	Win2	0.5526	0.0	Yes	2.88	0.02	n/a	GoodResponse	1	n/a	n/a	1	37	Cue	Win	True
355.171	4.0	Win2	0.5526	0.0	Yes	2.88	0.001	n/a	GoodResponse	1	n/a	n/a	1	37	Fixation	Win	True
359.166	0.23	Win2	0.5526	0.004	Yes	2.88	-0.004	4.0	GoodResponse	1	0.187	358.353	1	37	Target	Win	True
359.353	0.3	Win2	0.5526	0.004	Yes	2.88	-0.004	4.0	GoodResponse	1	0.187	n/a	1	37	ButtonPress	Win	True
359.4	0.47	Win2	0.5526	n/a	Yes	2.88	n/a	n/a	GoodResponse	1	n/a	n/a	1	37	Blank	Win	True
359.868	1.45	Win2	0.5526	n/a	Yes	2.88	n/a	5.0	GoodResponse	1	0.007	358.875	1	37	Feedback	Win	True
361.322	2.88	Win2	0.5526	n/a	Yes	2.88	n/a	n/a	GoodResponse	1	0.0	n/a	1	37	ISIslide	Win	True
364.214	0.25	Lose2	0.5640999999999999	0.0	Yes	2.836	0.014	n/a	GoodResponse	0	n/a	n/a	1	38	Cue	AvoidedLoss	True
364.465	3.95	Lose2	0.5640999999999999	0.0	Yes	2.836	0.001	n/a	GoodResponse	0	n/a	n/a	1	38	Fixation	AvoidedLoss	True
368.41	0.24	Lose2	0.5640999999999999	0.004	Yes	2.836	-0.004	4.0	GoodResponse	0	0.205	367.615	1	38	Target	AvoidedLoss	True
368.615	0.3	Lose2	0.5640999999999999	0.004	Yes	2.836	-0.004	4.0	GoodResponse	0	0.205	n/a	1	38	ButtonPress	AvoidedLoss	True
368.661	0.46	Lose2	0.5640999999999999	n/a	Yes	2.836	n/a	n/a	GoodResponse	0	n/a	n/a	1	38	Blank	AvoidedLoss	True
369.112	1.45	Lose2	0.5640999999999999	n/a	Yes	2.836	n/a	5.0	GoodResponse	0	0.031	368.143	1	38	Feedback	AvoidedLoss	True
370.567	2.836	Lose2	0.5640999999999999	n/a	Yes	2.836	n/a	n/a	GoodResponse	0	0.0	n/a	1	38	ISIslide	AvoidedLoss	True
373.425	0.25	Win2	0.575	0.0	Yes	2.975	0.025	n/a	GoodResponse	1	n/a	n/a	2	39	Cue	Win	True
373.676	4.1	Win2	0.575	0.0	Yes	2.975	0.001	n/a	GoodResponse	1	n/a	n/a	2	39	Fixation	Win	True
377.772	0.25	Win2	0.575	0.003	Yes	2.975	-0.003	4.0	GoodResponse	1	0.174	376.946	2	39	Target	Win	True
377.946	0.3	Win2	0.575	0.003	Yes	2.975	-0.003	4.0	GoodResponse	1	0.174	n/a	2	39	ButtonPress	Win	True
378.022	0.45	Win2	0.575	n/a	Yes	2.975	n/a	n/a	GoodResponse	1	n/a	n/a	2	39	Blank	Win	True
378.474	1.45	Win2	0.575	n/a	Yes	2.975	n/a	5.0	GoodResponse	1	0.035	377.509	2	39	Feedback	Win	True
379.928	2.975	Win2	0.575	n/a	Yes	2.975	n/a	n/a	GoodResponse	1	0.0	n/a	2	39	ISIslide	Win	True
382.92	0.25	Win2	0.5854	0.0	Yes	2.73	0.02	n/a	GoodResponse	1	n/a	n/a	3	40	Cue	Win	True
383.171	3.95	Win2	0.5854	0.0	Yes	2.73	0.001	n/a	GoodResponse	1	n/a	n/a	3	40	Fixation	Win	True
387.116	0.26	Win2	0.5854	0.004	Yes	2.73	-0.004	4.0	GoodResponse	1	0.2	386.316	3	40	Target	Win	True
387.316	0.3	Win2	0.5854	0.004	Yes	2.73	-0.004	4.0	GoodResponse	1	0.2	n/a	3	40	ButtonPress	Win	True
387.384	0.44	Win2	0.5854	n/a	Yes	2.73	n/a	n/a	GoodResponse	1	n/a	n/a	3	40	Blank	Win	True
387.818	1.45	Win2	0.5854	n/a	Yes	2.73	n/a	5.0	GoodResponse	1	0.009	386.827	3	40	Feedback	Win	True
389.273	2.73	Win2	0.5854	n/a	Yes	2.73	n/a	n/a	GoodResponse	1	0.0	n/a	3	40	ISIslide	Win	True
392.014	0.25	Win2	0.5952000000000001	0.0	Yes	2.786	0.014	n/a	GoodResponse	1	n/a	n/a	4	41	Cue	Win	True
392.265	3.9	Win2	0.5952000000000001	0.0	Yes	2.786	0.001	n/a	GoodResponse	1	n/a	n/a	4	41	Fixation	Win	True
396.16	0.27	Win2	0.5952000000000001	0.004	Yes	2.786	-0.004	4.0	GoodResponse	1	0.193	395.353	4	41	Target	Win	True
396.353	0.3	Win2	0.5952000000000001	0.004	Yes	2.786	-0.004	4.0	GoodResponse	1	0.193	n/a	4	41	ButtonPress	Win	True
396.444	0.43	Win2	0.5952000000000001	n/a	Yes	2.786	n/a	n/a	GoodResponse	1	n/a	n/a	4	41	Blank	Win	True
396.862	1.45	Win2	0.5952000000000001	n/a	Yes	2.786	n/a	5.0	GoodResponse	1	0.038	395.9	4	41	Feedback	Win	True
398.317	2.786	Win2	0.5952000000000001	n/a	Yes	2.786	n/a	n/a	GoodResponse	1	0.0	n/a	4	41	ISIslide	Win	True
401.125	0.25	Control	0.6047	0.0	Yes	2.925	0.025	n/a	GoodResponse	0	n/a	n/a	4	42	Cue	Neutral	True
401.376	3.85	Control	0.6047	0.0	Yes	2.925	0.001	n/a	GoodResponse	0	n/a	n/a	4	42	Fixation	Neutral	True
405.221	0.28	Control	0.6047	0.004	Yes	2.925	-0.004	4.0	GoodResponse	0	0.231	404.452	4	42	Target	Neutral	True
405.452	0.3	Control	0.6047	0.004	Yes	2.925	-0.004	4.0	GoodResponse	0	0.231	n/a	4	42	ButtonPress	Neutral	True
405.505	0.42	Control	0.6047	n/a	Yes	2.925	n/a	n/a	GoodResponse	0	n/a	n/a	4	42	Blank	Neutral	True
405.923	1.45	Control	0.6047	n/a	Yes	2.925	n/a	5.0	GoodResponse	0	0.001	404.924	4	42	Feedback	Neutral	True
407.377	2.925	Control	0.6047	n/a	Yes	2.925	n/a	n/a	GoodResponse	0	0.0	n/a	4	42	ISIslide	Neutral	True
410.319	0.25	Win2	0.6136	0.0	Yes	3.181	0.019	n/a	GoodResponse	1	n/a	n/a	5	43	Cue	Win	True
410.57	4.0	Win2	0.6136	0.0	Yes	3.181	0.001	n/a	GoodResponse	1	n/a	n/a	5	43	Fixation	Win	True
414.565	0.29	Win2	0.6136	0.004	Yes	3.181	-0.004	4.0	GoodResponse	1	0.22	413.785	5	43	Target	Win	True
414.785	0.3	Win2	0.6136	0.004	Yes	3.181	-0.004	4.0	GoodResponse	1	0.22	n/a	5	43	ButtonPress	Win	True
414.866	0.41	Win2	0.6136	n/a	Yes	3.181	n/a	n/a	GoodResponse	1	n/a	n/a	5	43	Blank	Win	True
415.267	1.45	Win2	0.6136	n/a	Yes	3.181	n/a	5.0	GoodResponse	1	0.023	414.29	5	43	Feedback	Win	True
416.722	3.181	Win2	0.6136	n/a	Yes	3.181	n/a	n/a	GoodResponse	1	0.0	n/a	5	43	ISIslide	Win	True
419.915	0.25	Win2	0.6222	0.0	Yes	2.985	0.015	n/a	GoodResponse	1	n/a	n/a	6	44	Cue	Win	True
420.165	4.0	Win2	0.6222	0.0	Yes	2.985	0.0	n/a	GoodResponse	1	n/a	n/a	6	44	Fixation	Win	True
424.161	0.3	Win2	0.6222	0.004	Yes	2.985	-0.004	4.0	GoodResponse	1	0.194	423.355	6	44	Target	Win	True
424.355	0.3	Win2	0.6222	0.004	Yes	2.985	-0.004	4.0	GoodResponse	1	0.194	n/a	6	44	ButtonPress	Win	True
424.462	0.4	Win2	0.6222	n/a	Yes	2.985	n/a	n/a	GoodResponse	1	n/a	n/a	6	44	Blank	Win	True
424.863	1.45	Win2	0.6222	n/a	Yes	2.985	n/a	5.0	GoodResponse	1	0.036	423.899	6	44	Feedback	Win	True
426.317	2.985	Win2	0.6222	n/a	Yes	2.985	n/a	n/a	GoodResponse	1	0.0	n/a	6	44	ISIslide	Win	True
429.326	0.25	Control	0.6304	0.0	Yes	2.874	0.026	n/a	GoodResponse	0	n/a	n/a	6	45	Cue	Neutral	True
429.577	4.1	Control	0.6304	0.0	Yes	2.874	0.001	n/a	GoodResponse	0	n/a	n/a	6	45	Fixation	Neutral	True
433.672	0.31	Control	0.6304	0.004	Yes	2.874	-0.004	4.0	GoodResponse	0	0.212	432.884	6	45	Target	Neutral	True
433.884	0.3	Control	0.6304	0.004	Yes	2.874	-0.004	4.0	GoodResponse	0	0.212	n/a	6	45	ButtonPress	Neutral	True
433.99	0.39	Control	0.6304	n/a	Yes	2.874	n/a	n/a	GoodResponse	0	n/a	n/a	6	45	Blank	Neutral	True
434.375	1.45	Control	0.6304	n/a	Yes	2.874	n/a	5.0	GoodResponse	0	0.036	433.411	6	45	Feedback	Neutral	True
435.829	2.874	Control	0.6304	n/a	Yes	2.874	n/a	n/a	GoodResponse	0	0.0	n/a	6	45	ISIslide	Neutral	True
438.721	0.25	Lose2	0.6383	0.0	Yes	3.379	0.021	n/a	GoodResponse	0	n/a	n/a	6	46	Cue	AvoidedLoss	True
438.972	4.0	Lose2	0.6383	0.0	Yes	3.379	0.001	n/a	GoodResponse	0	n/a	n/a	6	46	Fixation	AvoidedLoss	True
442.967	0.32	Lose2	0.6383	0.004	Yes	3.379	-0.004	4.0	GoodResponse	0	0.23	442.197	6	46	Target	AvoidedLoss	True
443.197	0.3	Lose2	0.6383	0.004	Yes	3.379	-0.004	4.0	GoodResponse	0	0.23	n/a	6	46	ButtonPress	AvoidedLoss	True
443.301	0.38	Lose2	0.6383	n/a	Yes	3.379	n/a	n/a	GoodResponse	0	n/a	n/a	6	46	Blank	AvoidedLoss	True
443.669	1.45	Lose2	0.6383	n/a	Yes	3.379	n/a	5.0	GoodResponse	0	0.011	442.68	6	46	Feedback	AvoidedLoss	True
445.123	3.379	Lose2	0.6383	n/a	Yes	3.379	n/a	n/a	GoodResponse	0	0.0	n/a	6	46	ISIslide	AvoidedLoss	True
448.517	0.25	Lose2	0.6457999999999999	0.0	Yes	2.683	0.017	n/a	GoodResponse	0	n/a	n/a	6	47	Cue	AvoidedLoss	True
448.768	4.0	Lose2	0.6457999999999999	0.0	Yes	2.683	0.001	n/a	GoodResponse	0	n/a	n/a	6	47	Fixation	AvoidedLoss	True
452.763	0.33	Lose2	0.6457999999999999	0.004	Yes	2.683	-0.004	4.0	GoodResponse	0	0.202	451.965	6	47	Target	AvoidedLoss	True
452.965	0.3	Lose2	0.6457999999999999	0.004	Yes	2.683	-0.004	4.0	GoodResponse	0	0.202	n/a	6	47	ButtonPress	AvoidedLoss	True
453.097	0.37	Lose2	0.6457999999999999	n/a	Yes	2.683	n/a	n/a	GoodResponse	0	n/a	n/a	6	47	Blank	AvoidedLoss	True
453.465	1.45	Lose2	0.6457999999999999	n/a	Yes	2.683	n/a	5.0	GoodResponse	0	0.02	452.485	6	47	Feedback	AvoidedLoss	True
454.919	2.683	Lose2	0.6457999999999999	n/a	Yes	2.683	n/a	n/a	GoodResponse	0	0.0	n/a	6	47	ISIslide	AvoidedLoss	True
457.628	0.25	Lose2	0.6531	0.0	Yes	3.022	0.028	n/a	GoodResponse	0	n/a	n/a	6	48	Cue	AvoidedLoss	True
457.878	3.95	Lose2	0.6531	0.0	Yes	3.022	0.0	n/a	GoodResponse	0	n/a	n/a	6	48	Fixation	AvoidedLoss	True
461.84	0.34	Lose2	0.6531	0.0	Yes	3.022	0.012	4.0	GoodResponse	0	0.215	461.055	6	48	Target	AvoidedLoss	True
462.055	0.3	Lose2	0.6531	0.0	Yes	3.022	0.012	4.0	GoodResponse	0	0.215	n/a	6	48	ButtonPress	AvoidedLoss	True
462.175	0.36	Lose2	0.6531	n/a	Yes	3.022	n/a	n/a	GoodResponse	0	n/a	n/a	6	48	Blank	AvoidedLoss	True
462.526	1.45	Lose2	0.6531	n/a	Yes	3.022	n/a	5.0	GoodResponse	0	0.032	461.558	6	48	Feedback	AvoidedLoss	True
463.98	3.022	Lose2	0.6531	n/a	Yes	3.022	n/a	n/a	GoodResponse	0	0.0	n/a	6	48	ISIslide	AvoidedLoss	True
467.022	0.25	Control	0.66	0.0	Yes	2.878	0.022	n/a	GoodResponse	0	n/a	n/a	6	49	Cue	Neutral	True
467.273	4.0	Control	0.66	0.0	Yes	2.878	0.001	n/a	GoodResponse	0	n/a	n/a	6	49	Fixation	Neutral	True
471.268	0.35	Control	0.66	0.004	Yes	2.878	-0.004	4.0	GoodResponse	0	0.17	470.438	6	49	Target	Neutral	True
471.438	0.3	Control	0.66	0.004	Yes	2.878	-0.004	4.0	GoodResponse	0	0.17	n/a	6	49	ButtonPress	Neutral	True
471.619	0.35	Control	0.66	n/a	Yes	2.878	n/a	n/a	GoodResponse	0	n/a	n/a	6	49	Blank	Neutral	True
471.971	1.45	Control	0.66	n/a	Yes	2.878	n/a	5.0	GoodResponse	0	0.003	470.974	6	49	Feedback	Neutral	True
473.425	2.878	Control	0.66	n/a	Yes	2.878	n/a	n/a	GoodResponse	0	0.0	n/a	6	49	ISIslide	Neutral	True
476.317	0.25	Control	0.6667000000000001	0.0	Yes	2.783	0.017	n/a	GoodResponse	0	n/a	n/a	6	50	Cue	Neutral	True
476.568	4.0	Control	0.6667000000000001	0.0	Yes	2.783	0.001	n/a	GoodResponse	0	n/a	n/a	6	50	Fixation	Neutral	True
480.563	0.35	Control	0.6667000000000001	0.004	Yes	2.783	-0.004	4.0	GoodResponse	0	0.2	479.763	6	50	Target	Neutral	True
480.763	0.3	Control	0.6667000000000001	0.004	Yes	2.783	-0.004	4.0	GoodResponse	0	0.2	n/a	6	50	ButtonPress	Neutral	True
480.914	0.35	Control	0.6667000000000001	n/a	Yes	2.783	n/a	n/a	GoodResponse	0	n/a	n/a	6	50	Blank	Neutral	True
481.265	1.45	Control	0.6667000000000001	n/a	Yes	2.783	n/a	5.0	GoodResponse	0	0.024	480.289	6	50	Feedback	Neutral	True
482.719	2.783	Control	0.6667000000000001	n/a	Yes	2.783	n/a	n/a	GoodResponse	0	0.0	n/a	6	50	ISIslide	Neutral	True
485.528	0.25	Control	0.6731	0.0	Yes	2.722	0.028	n/a	GoodResponse	0	n/a	n/a	6	51	Cue	Neutral	True
485.779	3.95	Control	0.6731	0.0	Yes	2.722	0.001	n/a	GoodResponse	0	n/a	n/a	6	51	Fixation	Neutral	True
489.724	0.34	Control	0.6731	0.004	Yes	2.722	-0.004	4.0	GoodResponse	0	0.209	488.933	6	51	Target	Neutral	True
489.933	0.3	Control	0.6731	0.004	Yes	2.722	-0.004	4.0	GoodResponse	0	0.209	n/a	6	51	ButtonPress	Neutral	True
490.075	0.36	Control	0.6731	n/a	Yes	2.722	n/a	n/a	GoodResponse	0	n/a	n/a	6	51	Blank	Neutral	True
490.426	1.45	Control	0.6731	n/a	Yes	2.722	n/a	5.0	GoodResponse	0	0.034	489.46	6	51	Feedback	Neutral	True
491.88	2.722	Control	0.6731	n/a	Yes	2.722	n/a	n/a	GoodResponse	0	0.0	n/a	6	51	ISIslide	Neutral	True
494.622	0.25	Control	0.6792	0.0	Yes	2.628	0.022	n/a	GoodResponse	0	n/a	n/a	6	52	Cue	Neutral	True
494.872	4.05	Control	0.6792	0.001	Yes	2.628	0.0	n/a	GoodResponse	0	n/a	n/a	6	52	Fixation	Neutral	True
498.918	0.33	Control	0.6792	0.004	Yes	2.628	-0.004	4.0	GoodResponse	0	0.212	498.13	6	52	Target	Neutral	True
499.13	0.3	Control	0.6792	0.004	Yes	2.628	-0.004	4.0	GoodResponse	0	0.212	n/a	6	52	ButtonPress	Neutral	True
499.252	0.37	Control	0.6792	n/a	Yes	2.628	n/a	n/a	GoodResponse	0	n/a	n/a	6	52	Blank	Neutral	True
499.62	1.45	Control	0.6792	n/a	Yes	2.628	n/a	5.0	GoodResponse	0	0.011	498.631	6	52	Feedback	Neutral	True
501.074	2.628	Control	0.6792	n/a	Yes	2.628	n/a	n/a	GoodResponse	0	0.0	n/a	6	52	ISIslide	Neutral	True
503.716	0.25	Win2	0.6851999999999999	0.0	Yes	2.934	0.016	n/a	GoodResponse	1	n/a	n/a	7	53	Cue	Win	True
503.966	4.05	Win2	0.6851999999999999	0.0	Yes	2.934	0.0	n/a	GoodResponse	1	n/a	n/a	7	53	Fixation	Win	True
508.012	0.32	Win2	0.6851999999999999	0.004	Yes	2.934	-0.004	4.0	GoodResponse	1	0.229	507.241	7	53	Target	Win	True
508.241	0.3	Win2	0.6851999999999999	0.004	Yes	2.934	-0.004	4.0	GoodResponse	1	0.229	n/a	7	53	ButtonPress	Win	True
508.346	0.38	Win2	0.6851999999999999	n/a	Yes	2.934	n/a	n/a	GoodResponse	1	n/a	n/a	7	53	Blank	Win	True
508.714	1.45	Win2	0.6851999999999999	n/a	Yes	2.934	n/a	5.0	GoodResponse	1	0.039	507.753	7	53	Feedback	Win	True
510.168	2.934	Win2	0.6851999999999999	n/a	Yes	2.934	n/a	n/a	GoodResponse	1	0.0	n/a	7	53	ISIslide	Win	True
513.127	0.25	Win2	0.6909000000000001	0.0	Yes	2.723	0.027	n/a	GoodResponse	1	n/a	n/a	8	54	Cue	Win	True
513.378	3.95	Win2	0.6909000000000001	0.0	Yes	2.723	0.001	n/a	GoodResponse	1	n/a	n/a	8	54	Fixation	Win	True
517.323	0.31	Win2	0.6909000000000001	0.004	Yes	2.723	-0.004	4.0	GoodResponse	1	0.206	516.529	8	54	Target	Win	True
517.529	0.3	Win2	0.6909000000000001	0.004	Yes	2.723	-0.004	4.0	GoodResponse	1	0.206	n/a	8	54	ButtonPress	Win	True
517.641	0.39	Win2	0.6909000000000001	n/a	Yes	2.723	n/a	n/a	GoodResponse	1	n/a	n/a	8	54	Blank	Win	True
518.025	1.45	Win2	0.6909000000000001	n/a	Yes	2.723	n/a	5.0	GoodResponse	1	0.045	517.07	8	54	Feedback	Win	True
519.48	2.723	Win2	0.6909000000000001	n/a	Yes	2.723	n/a	n/a	GoodResponse	1	0.0	n/a	8	54	ISIslide	Win	True
522.221	0.25	Control	0.6964	0.0	Yes	3.029	0.021	n/a	GoodResponse	0	n/a	n/a	8	55	Cue	Neutral	True
522.472	3.95	Control	0.6964	0.0	Yes	3.029	0.001	n/a	GoodResponse	0	n/a	n/a	8	55	Fixation	Neutral	True
526.417	0.3	Control	0.6964	0.004	Yes	3.029	-0.004	4.0	GoodResponse	0	0.227	525.644	8	55	Target	Neutral	True
526.644	0.3	Control	0.6964	0.004	Yes	3.029	-0.004	4.0	GoodResponse	0	0.227	n/a	8	55	ButtonPress	Neutral	True
526.718	0.4	Control	0.6964	n/a	Yes	3.029	n/a	n/a	GoodResponse	0	n/a	n/a	8	55	Blank	Neutral	True
527.119	1.45	Control	0.6964	n/a	Yes	3.029	n/a	5.0	GoodResponse	0	0.024	526.143	8	55	Feedback	Neutral	True
528.573	3.029	Control	0.6964	n/a	Yes	3.029	n/a	n/a	GoodResponse	0	0.0	n/a	8	55	ISIslide	Neutral	True
531.616	0.25	Control	0.7018000000000001	0.0	Yes	2.834	0.016	n/a	GoodResponse	0	n/a	n/a	8	56	Cue	Neutral	True
531.867	3.95	Control	0.7018000000000001	0.0	Yes	2.834	0.001	n/a	GoodResponse	0	n/a	n/a	8	56	Fixation	Neutral	True
535.812	0.29	Control	0.7018000000000001	0.004	Yes	2.834	-0.004	4.0	GoodResponse	0	0.244	535.056	8	56	Target	Neutral	True
536.056	0.3	Control	0.7018000000000001	0.004	Yes	2.834	-0.004	4.0	GoodResponse	0	0.244	n/a	8	56	ButtonPress	Neutral	True
536.113	0.41	Control	0.7018000000000001	n/a	Yes	2.834	n/a	n/a	GoodResponse	0	n/a	n/a	8	56	Blank	Neutral	True
536.514	1.45	Control	0.7018000000000001	n/a	Yes	2.834	n/a	5.0	GoodResponse	0	0.043	535.557	8	56	Feedback	Neutral	True
537.968	2.834	Control	0.7018000000000001	n/a	Yes	2.834	n/a	n/a	GoodResponse	0	0.0	n/a	8	56	ISIslide	Neutral	True
540.827	0.25	Control	0.7069	0.0	Yes	3.473	0.027	n/a	GoodResponse	0	n/a	n/a	8	57	Cue	Neutral	True
541.078	4.0	Control	0.7069	0.0	Yes	3.473	0.001	n/a	GoodResponse	0	n/a	n/a	8	57	Fixation	Neutral	True
545.073	0.28	Control	0.7069	0.004	Yes	3.473	-0.004	4.0	GoodResponse	0	0.273	544.346	8	57	Target	Neutral	True
545.346	0.3	Control	0.7069	0.004	Yes	3.473	-0.004	4.0	GoodResponse	0	0.273	n/a	8	57	ButtonPress	Neutral	True
545.357	0.42	Control	0.7069	n/a	Yes	3.473	n/a	n/a	GoodResponse	0	n/a	n/a	8	57	Blank	Neutral	True
545.775	1.45	Control	0.7069	n/a	Yes	3.473	n/a	5.0	GoodResponse	0	0.004	544.779	8	57	Feedback	Neutral	True
547.229	3.473	Control	0.7069	n/a	Yes	3.473	n/a	n/a	GoodResponse	0	0.0	n/a	8	57	ISIslide	Neutral	True
550.723	0.25	Win2	0.7119	0.0	Yes	2.727	0.023	n/a	GoodResponse	1	n/a	n/a	9	58	Cue	Win	True
550.974	4.05	Win2	0.7119	0.0	Yes	2.727	0.001	n/a	GoodResponse	1	n/a	n/a	9	58	Fixation	Win	True
555.019	0.27	Win2	0.7119	0.004	Yes	2.727	-0.004	4.0	GoodResponse	1	0.208	554.227	9	58	Target	Win	True
555.227	0.3	Win2	0.7119	0.004	Yes	2.727	-0.004	4.0	GoodResponse	1	0.208	n/a	9	58	ButtonPress	Win	True
555.304	0.43	Win2	0.7119	n/a	Yes	2.727	n/a	n/a	GoodResponse	1	n/a	n/a	9	58	Blank	Win	True
555.721	1.45	Win2	0.7119	n/a	Yes	2.727	n/a	5.0	GoodResponse	1	0.007	554.728	9	58	Feedback	Win	True
557.176	2.727	Win2	0.7119	n/a	Yes	2.727	n/a	n/a	GoodResponse	1	0.0	n/a	9	58	ISIslide	Win	True
559.917	0.25	Lose2	0.7167	0.0	Yes	2.683	0.017	n/a	GoodResponse	0	n/a	n/a	9	59	Cue	AvoidedLoss	True
560.168	4.0	Lose2	0.7167	0.0	Yes	2.683	0.001	n/a	GoodResponse	0	n/a	n/a	9	59	Fixation	AvoidedLoss	True
564.163	0.26	Lose2	0.7167	0.004	Yes	2.683	-0.004	4.0	GoodResponse	0	0.181	563.344	9	59	Target	AvoidedLoss	True
564.344	0.3	Lose2	0.7167	0.004	Yes	2.683	-0.004	4.0	GoodResponse	0	0.181	n/a	9	59	ButtonPress	AvoidedLoss	True
564.431	0.44	Lose2	0.7167	n/a	Yes	2.683	n/a	n/a	GoodResponse	0	n/a	n/a	9	59	Blank	AvoidedLoss	True
564.866	1.45	Lose2	0.7167	n/a	Yes	2.683	n/a	5.0	GoodResponse	0	0.033	563.899	9	59	Feedback	AvoidedLoss	True
566.32	2.683	Lose2	0.7167	n/a	Yes	2.683	n/a	n/a	GoodResponse	0	0.0	n/a	9	59	ISIslide	AvoidedLoss	True
569.028	0.25	Control	0.7212999999999999	0.0	Yes	2.672	0.028	n/a	GoodResponse	0	n/a	n/a	9	60	Cue	Neutral	True
569.279	4.0	Control	0.7212999999999999	0.0	Yes	2.672	0.001	n/a	GoodResponse	0	n/a	n/a	9	60	Fixation	Neutral	True
573.274	0.25	Control	0.7212999999999999	0.004	Yes	2.672	-0.004	4.0	GoodResponse	0	0.194	572.468	9	60	Target	Neutral	True
573.468	0.3	Control	0.7212999999999999	0.004	Yes	2.672	-0.004	4.0	GoodResponse	0	0.194	n/a	9	60	ButtonPress	Neutral	True
573.525	0.45	Control	0.7212999999999999	n/a	Yes	2.672	n/a	n/a	GoodResponse	0	n/a	n/a	9	60	Blank	Neutral	True
573.976	1.45	Control	0.7212999999999999	n/a	Yes	2.672	n/a	5.0	GoodResponse	0	0.045	573.021	9	60	Feedback	Neutral	True
575.431	2.672	Control	0.7212999999999999	n/a	Yes	2.672	n/a	n/a	GoodResponse	0	0.0	n/a	9	60	ISIslide	Neutral	True
578.122	0.25	Lose2	0.7097	0.0	No	2.978	0.022	n/a	LatePress	-1	n/a	n/a	8	61	Cue	Loss	True
578.373	4.0	Lose2	0.7097	0.0	No	2.978	0.001	n/a	LatePress	-1	n/a	n/a	8	61	Fixation	Loss	True
582.368	0.24	Lose2	0.7097	0.004	No	2.978	-0.004	4.0	LatePress	-1	0.241	581.609	8	61	Target	Loss	True
582.609	0.3	Lose2	0.7097	0.004	No	2.978	-0.004	4.0	LatePress	-1	0.241	n/a	8	61	ButtonPress	Loss	True
582.619	0.46	Lose2	0.7097	n/a	No	2.978	n/a	n/a	LatePress	-1	n/a	n/a	8	61	Blank	Loss	True
583.07	1.45	Lose2	0.7097	n/a	No	2.978	n/a	5.0	LatePress	-1	0.024	582.094	8	61	Feedback	Loss	True
584.524	2.978	Lose2	0.7097	n/a	No	2.978	n/a	n/a	LatePress	-1	0.0	n/a	8	61	ISIslide	Loss	True
587.517	0.25	Lose2	0.7143	0.0	Yes	2.883	0.017	n/a	GoodResponse	0	n/a	n/a	8	62	Cue	AvoidedLoss	True
587.768	3.9	Lose2	0.7143	0.0	Yes	2.883	0.001	n/a	GoodResponse	0	n/a	n/a	8	62	Fixation	AvoidedLoss	True
591.663	0.23	Lose2	0.7143	0.004	Yes	2.883	-0.004	4.0	GoodResponse	0	0.189	590.852	8	62	Target	AvoidedLoss	True
591.852	0.3	Lose2	0.7143	0.004	Yes	2.883	-0.004	4.0	GoodResponse	0	0.189	n/a	8	62	ButtonPress	AvoidedLoss	True
591.897	0.47	Lose2	0.7143	n/a	Yes	2.883	n/a	n/a	GoodResponse	0	n/a	n/a	8	62	Blank	AvoidedLoss	True
592.365	1.45	Lose2	0.7143	n/a	Yes	2.883	n/a	5.0	GoodResponse	0	0.047	591.412	8	62	Feedback	AvoidedLoss	True
593.819	2.883	Lose2	0.7143	n/a	Yes	2.883	n/a	n/a	GoodResponse	0	0.0	n/a	8	62	ISIslide	AvoidedLoss	True
596.728	0.25	Lose2	0.7188	0.0	Yes	2.622	0.028	n/a	GoodResponse	0	n/a	n/a	8	63	Cue	AvoidedLoss	True
596.978	4.05	Lose2	0.7188	0.001	Yes	2.622	0.0	n/a	GoodResponse	0	n/a	n/a	8	63	Fixation	AvoidedLoss	True
601.024	0.22	Lose2	0.7188	0.004	Yes	2.622	-0.004	4.0	GoodResponse	0	0.195	600.219	8	63	Target	AvoidedLoss	True
601.219	0.3	Lose2	0.7188	0.004	Yes	2.622	-0.004	4.0	GoodResponse	0	0.195	n/a	8	63	ButtonPress	AvoidedLoss	True
601.258	0.48	Lose2	0.7188	n/a	Yes	2.622	n/a	n/a	GoodResponse	0	n/a	n/a	8	63	Blank	AvoidedLoss	True
601.726	1.45	Lose2	0.7188	n/a	Yes	2.622	n/a	5.0	GoodResponse	0	0.004	600.73	8	63	Feedback	AvoidedLoss	True
603.18	2.622	Lose2	0.7188	n/a	Yes	2.622	n/a	n/a	GoodResponse	0	0.0	n/a	8	63	ISIslide	AvoidedLoss	True
605.822	0.25	Win2	0.7231000000000001	0.0	Yes	3.128	0.022	n/a	GoodResponse	1	n/a	n/a	9	64	Cue	Win	True
606.072	4.15	Win2	0.7231000000000001	0.0	Yes	3.128	0.0	n/a	GoodResponse	1	n/a	n/a	9	64	Fixation	Win	True
610.218	0.21	Win2	0.7231000000000001	0.004	Yes	3.128	-0.004	4.0	GoodResponse	1	0.19	609.408	9	64	Target	Win	True
610.408	0.3	Win2	0.7231000000000001	0.004	Yes	3.128	-0.004	4.0	GoodResponse	1	0.19	n/a	9	64	ButtonPress	Win	True
610.435	0.49	Win2	0.7231000000000001	n/a	Yes	3.128	n/a	n/a	GoodResponse	1	n/a	n/a	9	64	Blank	Win	True
610.92	1.45	Win2	0.7231000000000001	n/a	Yes	3.128	n/a	5.0	GoodResponse	1	0.027	609.947	9	64	Feedback	Win	True
612.375	3.128	Win2	0.7231000000000001	n/a	Yes	3.128	n/a	n/a	GoodResponse	1	0.0	n/a	9	64	ISIslide	Win	True
615.517	0.25	Control	0.7121	0.0	No	2.783	0.017	n/a	LatePress	0	n/a	n/a	9	65	Cue	Neutral	True
615.768	4.0	Control	0.7121	0.0	No	2.783	0.001	n/a	LatePress	0	n/a	n/a	9	65	Fixation	Neutral	True
619.763	0.2	Control	0.7121	0.004	No	2.783	-0.004	4.0	LatePress	0	0.203	618.966	9	65	Target	Neutral	True
619.964	0.5	Control	0.7121	n/a	No	2.783	n/a	n/a	LatePress	0	n/a	n/a	9	65	Blank	Neutral	True
619.966	0.3	Control	0.7121	0.004	No	2.783	-0.004	4.0	LatePress	0	0.203	n/a	9	65	ButtonPress	Neutral	True
620.465	1.45	Control	0.7121	n/a	No	2.783	n/a	5.0	LatePress	0	0.043	619.508	9	65	Feedback	Neutral	True
621.92	2.783	Control	0.7121	n/a	No	2.783	n/a	n/a	LatePress	0	0.0	n/a	9	65	ISIslide	Neutral	True
624.728	0.25	Win2	0.7015	0.0	No	2.772	0.028	n/a	NoResponse	0	n/a	n/a	9	66	Cue	MissedWin	True
624.979	3.9	Win2	0.7015	0.0	No	2.772	0.001	n/a	NoResponse	0	n/a	n/a	9	66	Fixation	MissedWin	True
628.874	0.19	Win2	0.7015	0.004	No	2.772	-0.004	4.0	NoResponse	0	0.206	628.08	9	66	Target	MissedWin	True
629.075	0.51	Win2	0.7015	n/a	No	2.772	n/a	n/a	NoResponse	0	n/a	n/a	9	66	Blank	MissedWin	True
629.08	0.3	Win2	0.7015	0.004	No	2.772	-0.004	4.0	NoResponse	0	0.206	n/a	9	66	ButtonPress	MissedWin	True
629.576	1.45	Win2	0.7015	n/a	No	2.772	n/a	5.0	NoResponse	0	0.006	628.582	9	66	Feedback	MissedWin	True
631.03	2.772	Win2	0.7015	n/a	No	2.772	n/a	n/a	NoResponse	0	0.0	n/a	9	66	ISIslide	MissedWin	True
633.822	0.25	Control	0.6912	0.0	No	2.728	0.022	n/a	NoResponse	0	n/a	n/a	9	67	Cue	Neutral	True
634.073	3.95	Control	0.6912	0.0	No	2.728	0.001	n/a	NoResponse	0	n/a	n/a	9	67	Fixation	Neutral	True
638.018	0.18	Control	0.6912	0.004	No	2.728	-0.004	4.0	NoResponse	0	0.227	637.245	9	67	Target	Neutral	True
638.202	0.52	Control	0.6912	n/a	No	2.728	n/a	n/a	NoResponse	0	n/a	n/a	9	67	Blank	Neutral	True
638.245	0.3	Control	0.6912	0.004	No	2.728	-0.004	4.0	NoResponse	0	0.227	n/a	9	67	ButtonPress	Neutral	True
638.72	1.45	Control	0.6912	n/a	No	2.728	n/a	5.0	NoResponse	0	0.033	637.753	9	67	Feedback	Neutral	True
640.175	2.728	Control	0.6912	n/a	No	2.728	n/a	n/a	NoResponse	0	0.0	n/a	9	67	ISIslide	Neutral	True
642.916	0.25	Win2	0.6812	0.0	No	3.084	0.016	n/a	LatePress	0	n/a	n/a	9	68	Cue	MissedWin	True
643.167	4.0	Win2	0.6812	0.0	No	3.084	0.001	n/a	LatePress	0	n/a	n/a	9	68	Fixation	MissedWin	True
647.162	0.17	Win2	0.6812	0.004	No	3.084	-0.004	4.0	LatePress	0	0.179	646.341	9	68	Target	MissedWin	True
647.341	0.3	Win2	0.6812	0.004	No	3.084	-0.004	4.0	LatePress	0	0.179	n/a	9	68	ButtonPress	MissedWin	True
647.346	0.53	Win2	0.6812	n/a	No	3.084	n/a	n/a	LatePress	0	n/a	n/a	9	68	Blank	MissedWin	True
647.864	1.45	Win2	0.6812	n/a	No	3.084	n/a	5.0	LatePress	0	0.011	646.875	9	68	Feedback	MissedWin	True
649.319	3.084	Win2	0.6812	n/a	No	3.084	n/a	n/a	LatePress	0	0.0	n/a	9	68	ISIslide	MissedWin	True
652.428	0.25	Win2	0.6714	0.0	No	3.222	0.028	n/a	NoResponse	0	n/a	n/a	9	69	Cue	MissedWin	True
652.679	3.95	Win2	0.6714	0.0	No	3.222	0.001	n/a	NoResponse	0	n/a	n/a	9	69	Fixation	MissedWin	True
656.624	0.16	Win2	0.6714	0.004	No	3.222	-0.004	4.0	NoResponse	0	0.193	655.817	9	69	Target	MissedWin	True
656.791	0.54	Win2	0.6714	n/a	No	3.222	n/a	n/a	NoResponse	0	n/a	n/a	9	69	Blank	MissedWin	True
656.817	0.3	Win2	0.6714	0.004	No	3.222	-0.004	4.0	NoResponse	0	0.193	n/a	9	69	ButtonPress	MissedWin	True
657.326	1.45	Win2	0.6714	n/a	No	3.222	n/a	5.0	NoResponse	0	0.011	656.337	9	69	Feedback	MissedWin	True
658.78	3.222	Win2	0.6714	n/a	No	3.222	n/a	n/a	NoResponse	0	0.0	n/a	9	69	ISIslide	MissedWin	True
662.023	0.25	Lose2	0.662	0.0	No	3.027	0.023	n/a	NoResponse	-1	n/a	n/a	8	70	Cue	Loss	True
662.274	4.05	Lose2	0.662	0.0	No	3.027	0.001	n/a	NoResponse	-1	n/a	n/a	8	70	Fixation	Loss	True
666.32	0.15	Lose2	0.662	0.003	No	3.027	-0.003	4.0	NoResponse	-1	0.195	665.515	8	70	Target	Loss	True
666.47	0.55	Lose2	0.662	n/a	No	3.027	n/a	n/a	NoResponse	-1	n/a	n/a	8	70	Blank	Loss	True
666.515	0.3	Lose2	0.662	0.003	No	3.027	-0.003	4.0	NoResponse	-1	0.195	n/a	8	70	ButtonPress	Loss	True
667.022	1.45	Lose2	0.662	n/a	No	3.027	n/a	5.0	NoResponse	-1	0.023	666.045	8	70	Feedback	Loss	True
668.476	3.027	Lose2	0.662	n/a	No	3.027	n/a	n/a	NoResponse	-1	0.0	n/a	8	70	ISIslide	Loss	True
671.518	0.25	Win2	0.6528	0.001	No	2.732	0.018	n/a	NoResponse	0	n/a	n/a	8	71	Cue	MissedWin	True
671.769	4.05	Win2	0.6528	0.0	No	2.732	0.001	n/a	NoResponse	0	n/a	n/a	8	71	Fixation	MissedWin	True
675.815	0.15	Win2	0.6528	0.003	No	2.732	-0.003	4.0	NoResponse	0	0.224	675.039	8	71	Target	MissedWin	True
675.965	0.55	Win2	0.6528	n/a	No	2.732	n/a	n/a	NoResponse	0	n/a	n/a	8	71	Blank	MissedWin	True
676.039	0.3	Win2	0.6528	0.003	No	2.732	-0.003	4.0	NoResponse	0	0.224	n/a	8	71	ButtonPress	MissedWin	True
676.517	1.45	Win2	0.6528	n/a	No	2.732	n/a	5.0	NoResponse	0	0.04	675.557	8	71	Feedback	MissedWin	True
677.971	2.732	Win2	0.6528	n/a	No	2.732	n/a	n/a	NoResponse	0	0.0	n/a	8	71	ISIslide	MissedWin	True
680.729	0.25	Win2	0.6437999999999999	0.0	No	2.771	0.029	n/a	NoResponse	0	n/a	n/a	8	72	Cue	MissedWin	True
680.98	4.1	Win2	0.6437999999999999	0.0	No	2.771	0.001	4.0	NoResponse	0	4.057	684.037	8	72	Fixation	MissedWin	True
685.037	0.3	Win2	0.6437999999999999	0.0	No	2.771	0.001	4.0	NoResponse	0	4.057	n/a	8	72	ButtonPress	MissedWin	True
685.076	0.16	Win2	0.6437999999999999	0.003	No	2.771	-0.003	n/a	NoResponse	0	n/a	n/a	8	72	Target	MissedWin	True
685.243	0.54	Win2	0.6437999999999999	n/a	No	2.771	n/a	n/a	NoResponse	0	n/a	n/a	8	72	Blank	MissedWin	True
685.778	1.45	Win2	0.6437999999999999	n/a	No	2.771	n/a	5.0	NoResponse	0	0.047	684.825	8	72	Feedback	MissedWin	True
687.232	2.771	Win2	0.6437999999999999	n/a	No	2.771	n/a	n/a	NoResponse	0	0.0	n/a	8	72	ISIslide	MissedWin	True
690.024	0.25	Win2	0.6351	0.0	No	2.676	0.024	n/a	NoResponse	0	n/a	n/a	8	73	Cue	MissedWin	True
690.275	4.0	Win2	0.6351	0.0	No	2.676	0.001	n/a	NoResponse	0	n/a	n/a	8	73	Fixation	MissedWin	True
694.27	0.17	Win2	0.6351	0.004	No	2.676	-0.004	4.0	NoResponse	0	0.2	693.47	8	73	Target	MissedWin	True
694.454	0.53	Win2	0.6351	n/a	No	2.676	n/a	n/a	NoResponse	0	n/a	n/a	8	73	Blank	MissedWin	True
694.47	0.3	Win2	0.6351	0.004	No	2.676	-0.004	4.0	NoResponse	0	0.2	n/a	8	73	ButtonPress	MissedWin	True
694.972	1.45	Win2	0.6351	n/a	No	2.676	n/a	5.0	NoResponse	0	0.024	693.996	8	73	Feedback	MissedWin	True
696.426	2.676	Win2	0.6351	n/a	No	2.676	n/a	n/a	NoResponse	0	0.0	n/a	8	73	ISIslide	MissedWin	True
699.118	0.25	Lose2	0.64	0.0	Yes	2.632	0.018	n/a	GoodResponse	0	n/a	n/a	8	74	Cue	AvoidedLoss	True
699.369	4.05	Lose2	0.64	0.0	Yes	2.632	0.001	n/a	GoodResponse	0	n/a	n/a	8	74	Fixation	AvoidedLoss	True
703.414	0.18	Lose2	0.64	0.004	Yes	2.632	-0.004	4.0	GoodResponse	0	0.177	702.591	8	74	Target	AvoidedLoss	True
703.591	0.3	Lose2	0.64	0.004	Yes	2.632	-0.004	4.0	GoodResponse	0	0.177	n/a	8	74	ButtonPress	AvoidedLoss	True
703.598	0.52	Lose2	0.64	n/a	Yes	2.632	n/a	n/a	GoodResponse	0	n/a	n/a	8	74	Blank	AvoidedLoss	True
704.116	1.45	Lose2	0.64	n/a	Yes	2.632	n/a	5.0	GoodResponse	0	0.002	703.118	8	74	Feedback	AvoidedLoss	True
705.57	2.632	Lose2	0.64	n/a	Yes	2.632	n/a	n/a	GoodResponse	0	0.0	n/a	8	74	ISIslide	AvoidedLoss	True
708.228	0.25	Lose2	0.6446999999999999	0.001	Yes	2.922	0.028	n/a	GoodResponse	0	n/a	n/a	8	75	Cue	AvoidedLoss	True
708.479	3.95	Lose2	0.6446999999999999	0.0	Yes	2.922	0.001	n/a	GoodResponse	0	n/a	n/a	8	75	Fixation	AvoidedLoss	True
712.424	0.19	Lose2	0.6446999999999999	0.004	Yes	2.922	-0.004	4.0	GoodResponse	0	0.1	711.524	8	75	Target	AvoidedLoss	True
712.524	0.3	Lose2	0.6446999999999999	0.004	Yes	2.922	-0.004	4.0	GoodResponse	0	0.1	n/a	8	75	ButtonPress	AvoidedLoss	True
712.625	0.51	Lose2	0.6446999999999999	n/a	Yes	2.922	n/a	n/a	GoodResponse	0	n/a	n/a	8	75	Blank	AvoidedLoss	True
713.126	1.45	Lose2	0.6446999999999999	n/a	Yes	2.922	n/a	5.0	GoodResponse	0	0.016	712.142	8	75	Feedback	AvoidedLoss	True
714.581	2.922	Lose2	0.6446999999999999	n/a	Yes	2.922	n/a	n/a	GoodResponse	0	0.0	n/a	8	75	ISIslide	AvoidedLoss	True
717.523	0.25	Control	0.6364	0.0	No	3.227	0.023	n/a	NoResponse	0	n/a	n/a	8	76	Cue	Neutral	True
717.774	4.05	Control	0.6364	0.0	No	3.227	0.001	4.0	NoResponse	0	3.816	720.59	8	76	Fixation	Neutral	True
721.59	0.3	Control	0.6364	0.0	No	3.227	0.001	4.0	NoResponse	0	3.816	n/a	8	76	ButtonPress	Neutral	True
721.819	0.2	Control	0.6364	0.004	No	3.227	-0.004	n/a	NoResponse	0	n/a	n/a	8	76	Target	Neutral	True
722.02	0.5	Control	0.6364	n/a	No	3.227	n/a	n/a	NoResponse	0	n/a	n/a	8	76	Blank	Neutral	True
722.521	1.45	Control	0.6364	n/a	No	3.227	n/a	5.0	NoResponse	0	0.035	721.556	8	76	Feedback	Neutral	True
723.976	3.227	Control	0.6364	n/a	No	3.227	n/a	n/a	NoResponse	0	0.0	n/a	8	76	ISIslide	Neutral	True
727.219	0.25	Lose2	0.6409999999999999	0.0	Yes	2.581	0.019	n/a	GoodResponse	0	n/a	n/a	8	77	Cue	AvoidedLoss	True
727.469	3.95	Lose2	0.6409999999999999	0.001	Yes	2.581	0.0	n/a	GoodResponse	0	n/a	n/a	8	77	Fixation	AvoidedLoss	True
731.415	0.21	Lose2	0.6409999999999999	0.004	Yes	2.581	-0.004	4.0	GoodResponse	0	0.169	730.584	8	77	Target	AvoidedLoss	True
731.584	0.3	Lose2	0.6409999999999999	0.004	Yes	2.581	-0.004	4.0	GoodResponse	0	0.169	n/a	8	77	ButtonPress	AvoidedLoss	True
731.632	0.49	Lose2	0.6409999999999999	n/a	Yes	2.581	n/a	n/a	GoodResponse	0	n/a	n/a	8	77	Blank	AvoidedLoss	True
732.117	1.45	Lose2	0.6409999999999999	n/a	Yes	2.581	n/a	5.0	GoodResponse	0	0.001	731.118	8	77	Feedback	AvoidedLoss	True
733.571	2.581	Lose2	0.6409999999999999	n/a	Yes	2.581	n/a	n/a	GoodResponse	0	0.0	n/a	8	77	ISIslide	AvoidedLoss	True
