onset	duration	cue_type	current_mean_accuracy	duration_error	is_hit	isi_adjusted	onset_delay	response	response_type	reward	rt	rt_time	total_reward	trial_number	trial_phase	trial_type	one_press
11.098	0.25	Control	1.0	0.0	Yes	2.952	-0.002	n/a	GoodResponse	0	n/a	n/a	0	0	Cue	Neutral	True
11.349	3.85	Control	1.0	0.0	Yes	2.952	0.001	n/a	GoodResponse	0	n/a	n/a	0	0	Fixation	Neutral	True
15.194	0.4	Control	1.0	0.004	Yes	2.952	-0.004	3.0	GoodResponse	0	0.204	14.398	0	0	Target	Neutral	True
15.398	0.3	Control	1.0	0.004	Yes	2.952	-0.004	3.0	GoodResponse	0	0.204	n/a	0	0	ButtonPress	Neutral	True
15.595	0.3	Control	1.0	n/a	Yes	2.952	n/a	n/a	GoodResponse	0	n/a	n/a	0	0	Blank	Neutral	True
15.896	1.45	Control	1.0	n/a	Yes	2.952	n/a	5.0	GoodResponse	0	0.031	14.927	0	0	Feedback	Neutral	True
17.35	2.952	Control	1.0	n/a	Yes	2.952	n/a	n/a	GoodResponse	0	0.0	n/a	0	0	ISIslide	Neutral	True
20.326	0.25	Lose2	1.0	0.0	Yes	2.774	0.026	n/a	GoodResponse	0	n/a	n/a	0	1	Cue	AvoidedLoss	True
20.576	4.0	Lose2	1.0	0.0	Yes	2.774	0.0	n/a	GoodResponse	0	n/a	n/a	0	1	Fixation	AvoidedLoss	True
24.572	0.39	Lose2	1.0	0.004	Yes	2.774	-0.004	3.0	GoodResponse	0	0.205	23.777	0	1	Target	AvoidedLoss	True
24.777	0.3	Lose2	1.0	0.004	Yes	2.774	-0.004	3.0	GoodResponse	0	0.205	n/a	0	1	ButtonPress	AvoidedLoss	True
24.973	0.31	Lose2	1.0	n/a	Yes	2.774	n/a	n/a	GoodResponse	0	n/a	n/a	0	1	Blank	AvoidedLoss	True
25.274	1.45	Lose2	1.0	n/a	Yes	2.774	n/a	5.0	GoodResponse	0	0.019	24.293	0	1	Feedback	AvoidedLoss	True
26.728	2.774	Lose2	1.0	n/a	Yes	2.774	n/a	n/a	GoodResponse	0	0.0	n/a	0	1	ISIslide	AvoidedLoss	True
29.52	0.25	Control	1.0	0.0	Yes	2.58	0.02	n/a	GoodResponse	0	n/a	n/a	0	2	Cue	Neutral	True
29.77	4.1	Control	1.0	0.001	Yes	2.58	0.0	n/a	GoodResponse	0	n/a	n/a	0	2	Fixation	Neutral	True
33.866	0.38	Control	1.0	0.004	Yes	2.58	-0.004	3.0	GoodResponse	0	0.235	33.101	0	2	Target	Neutral	True
34.101	0.3	Control	1.0	0.004	Yes	2.58	-0.004	3.0	GoodResponse	0	0.235	n/a	0	2	ButtonPress	Neutral	True
34.251	0.32	Control	1.0	n/a	Yes	2.58	n/a	n/a	GoodResponse	0	n/a	n/a	0	2	Blank	Neutral	True
34.568	1.45	Control	1.0	n/a	Yes	2.58	n/a	5.0	GoodResponse	0	0.041	33.609	0	2	Feedback	Neutral	True
36.022	2.58	Control	1.0	n/a	Yes	2.58	n/a	n/a	GoodResponse	0	0.0	n/a	0	2	ISIslide	Neutral	True
38.63	0.25	Win2	1.0	0.0	Yes	2.82	0.03	n/a	GoodResponse	1	n/a	n/a	1	3	Cue	Win	True
38.881	3.95	Win2	1.0	0.0	Yes	2.82	0.001	n/a	GoodResponse	1	n/a	n/a	1	3	Fixation	Win	True
42.826	0.37	Win2	1.0	0.004	Yes	2.82	-0.004	3.0	GoodResponse	1	0.22	42.046	1	3	Target	Win	True
43.046	0.3	Win2	1.0	0.004	Yes	2.82	-0.004	3.0	GoodResponse	1	0.22	n/a	1	3	ButtonPress	Win	True
43.211	0.33	Win2	1.0	n/a	Yes	2.82	n/a	n/a	GoodResponse	1	n/a	n/a	1	3	Blank	Win	True
43.528	1.45	Win2	1.0	n/a	Yes	2.82	n/a	5.0	GoodResponse	1	0.008	42.536	1	3	Feedback	Win	True
44.983	2.82	Win2	1.0	n/a	Yes	2.82	n/a	n/a	GoodResponse	1	0.0	n/a	1	3	ISIslide	Win	True
47.824	0.25	Win2	1.0	0.0	Yes	3.276	0.024	n/a	GoodResponse	1	n/a	n/a	2	4	Cue	Win	True
48.075	4.0	Win2	1.0	0.0	Yes	3.276	0.001	n/a	GoodResponse	1	n/a	n/a	2	4	Fixation	Win	True
52.07	0.36	Win2	1.0	0.004	Yes	3.276	-0.004	3.0	GoodResponse	1	0.236	51.306	2	4	Target	Win	True
52.306	0.3	Win2	1.0	0.004	Yes	3.276	-0.004	3.0	GoodResponse	1	0.236	n/a	2	4	ButtonPress	Win	True
52.438	0.34	Win2	1.0	n/a	Yes	3.276	n/a	n/a	GoodResponse	1	n/a	n/a	2	4	Blank	Win	True
52.772	1.45	Win2	1.0	n/a	Yes	3.276	n/a	5.0	GoodResponse	1	0.032	51.804	2	4	Feedback	Win	True
54.227	3.276	Win2	1.0	n/a	Yes	3.276	n/a	n/a	GoodResponse	1	0.0	n/a	2	4	ISIslide	Win	True
57.52	0.25	Win2	1.0	0.0	Yes	2.78	0.02	n/a	GoodResponse	1	n/a	n/a	3	5	Cue	Win	True
57.771	4.0	Win2	1.0	0.0	Yes	2.78	0.001	n/a	GoodResponse	1	n/a	n/a	3	5	Fixation	Win	True
61.766	0.35	Win2	1.0	0.004	Yes	2.78	-0.004	3.0	GoodResponse	1	0.255	61.021	3	5	Target	Win	True
62.021	0.3	Win2	1.0	0.004	Yes	2.78	-0.004	3.0	GoodResponse	1	0.255	n/a	3	5	ButtonPress	Win	True
62.117	0.35	Win2	1.0	n/a	Yes	2.78	n/a	n/a	GoodResponse	1	n/a	n/a	3	5	Blank	Win	True
62.468	1.45	Win2	1.0	n/a	Yes	2.78	n/a	5.0	GoodResponse	1	0.044	61.512	3	5	Feedback	Win	True
63.922	2.78	Win2	1.0	n/a	Yes	2.78	n/a	n/a	GoodResponse	1	0.0	n/a	3	5	ISIslide	Win	True
66.731	0.25	Lose2	1.0	0.0	Yes	2.719	0.031	n/a	GoodResponse	0	n/a	n/a	3	6	Cue	AvoidedLoss	True
66.982	3.95	Lose2	1.0	0.0	Yes	2.719	0.001	n/a	GoodResponse	0	n/a	n/a	3	6	Fixation	AvoidedLoss	True
70.927	0.34	Lose2	1.0	0.004	Yes	2.719	-0.004	3.0	GoodResponse	0	0.297	70.224	3	6	Target	AvoidedLoss	True
71.224	0.3	Lose2	1.0	0.004	Yes	2.719	-0.004	3.0	GoodResponse	0	0.297	n/a	3	6	ButtonPress	AvoidedLoss	True
71.278	0.36	Lose2	1.0	n/a	Yes	2.719	n/a	n/a	GoodResponse	0	n/a	n/a	3	6	Blank	AvoidedLoss	True
71.629	1.45	Lose2	1.0	n/a	Yes	2.719	n/a	5.0	GoodResponse	0	0.007	70.636	3	6	Feedback	AvoidedLoss	True
73.083	2.719	Lose2	1.0	n/a	Yes	2.719	n/a	n/a	GoodResponse	0	0.0	n/a	3	6	ISIslide	AvoidedLoss	True
75.825	0.25	Lose2	1.0	0.0	Yes	4.025	0.025	n/a	GoodResponse	0	n/a	n/a	3	7	Cue	AvoidedLoss	True
76.075	4.05	Lose2	1.0	0.001	Yes	4.025	0.0	n/a	GoodResponse	0	n/a	n/a	3	7	Fixation	AvoidedLoss	True
80.121	0.33	Lose2	1.0	0.004	Yes	4.025	-0.004	3.0	GoodResponse	0	0.219	79.34	3	7	Target	AvoidedLoss	True
80.34	0.3	Lose2	1.0	0.004	Yes	4.025	-0.004	3.0	GoodResponse	0	0.219	n/a	3	7	ButtonPress	AvoidedLoss	True
80.455	0.37	Lose2	1.0	n/a	Yes	4.025	n/a	n/a	GoodResponse	0	n/a	n/a	3	7	Blank	AvoidedLoss	True
80.823	1.45	Lose2	1.0	n/a	Yes	4.025	n/a	5.0	GoodResponse	0	0.029	79.852	3	7	Feedback	AvoidedLoss	True
82.277	4.025	Lose2	1.0	n/a	Yes	4.025	n/a	n/a	GoodResponse	0	0.0	n/a	3	7	ISIslide	AvoidedLoss	True
86.323	0.25	Lose2	1.0	0.0	Yes	3.027	0.023	n/a	GoodResponse	0	n/a	n/a	3	8	Cue	AvoidedLoss	True
86.573	3.95	Lose2	1.0	0.001	Yes	3.027	0.0	n/a	GoodResponse	0	n/a	n/a	3	8	Fixation	AvoidedLoss	True
90.519	0.32	Lose2	1.0	0.004	Yes	3.027	-0.004	3.0	GoodResponse	0	0.242	89.761	3	8	Target	AvoidedLoss	True
90.761	0.3	Lose2	1.0	0.004	Yes	3.027	-0.004	3.0	GoodResponse	0	0.242	n/a	3	8	ButtonPress	AvoidedLoss	True
90.853	0.38	Lose2	1.0	n/a	Yes	3.027	n/a	n/a	GoodResponse	0	n/a	n/a	3	8	Blank	AvoidedLoss	True
91.221	1.45	Lose2	1.0	n/a	Yes	3.027	n/a	5.0	GoodResponse	0	0.022	90.243	3	8	Feedback	AvoidedLoss	True
92.675	3.027	Lose2	1.0	n/a	Yes	3.027	n/a	n/a	GoodResponse	0	0.0	n/a	3	8	ISIslide	AvoidedLoss	True
95.717	0.25	Lose2	1.0	0.0	Yes	3.133	0.017	n/a	GoodResponse	0	n/a	n/a	3	9	Cue	AvoidedLoss	True
95.968	3.95	Lose2	1.0	0.0	Yes	3.133	0.001	n/a	GoodResponse	0	n/a	n/a	3	9	Fixation	AvoidedLoss	True
99.913	0.31	Lose2	1.0	0.004	Yes	3.133	-0.004	3.0	GoodResponse	0	0.201	99.114	3	9	Target	AvoidedLoss	True
100.114	0.3	Lose2	1.0	0.004	Yes	3.133	-0.004	3.0	GoodResponse	0	0.201	n/a	3	9	ButtonPress	AvoidedLoss	True
100.231	0.39	Lose2	1.0	n/a	Yes	3.133	n/a	n/a	GoodResponse	0	n/a	n/a	3	9	Blank	AvoidedLoss	True
100.615	1.45	Lose2	1.0	n/a	Yes	3.133	n/a	5.0	GoodResponse	0	0.043	99.658	3	9	Feedback	AvoidedLoss	True
102.07	3.133	Lose2	1.0	n/a	Yes	3.133	n/a	n/a	GoodResponse	0	0.0	n/a	3	9	ISIslide	AvoidedLoss	True
105.229	0.25	Control	0.9091	0.0	No	3.271	0.029	n/a	NoResponse	0	n/a	n/a	3	10	Cue	Neutral	False
105.48	4.0	Control	0.9091	0.0	No	3.271	0.001	3.0	NoResponse	0	3.806	108.286	3	10	Fixation	Neutral	False
109.286	0.3	Control	0.9091	0.0	No	3.271	0.001	3.0	NoResponse	0	3.806	n/a	3	10	ButtonPress	Neutral	False
109.475	0.3	Control	0.9091	0.004	No	3.271	-0.004	3.0	NoResponse	0	0.326	108.801	3	10	Target	Neutral	False
109.776	0.4	Control	0.9091	n/a	No	3.271	n/a	n/a	NoResponse	0	n/a	n/a	3	10	Blank	Neutral	False
109.801	0.3	Control	0.9091	0.004	No	3.271	-0.004	3.0	NoResponse	0	0.326	n/a	3	10	ButtonPress	Neutral	False
110.177	1.45	Control	0.9091	n/a	No	3.271	n/a	5.0	NoResponse	0	0.041	109.218	3	10	Feedback	Neutral	False
111.632	3.271	Control	0.9091	n/a	No	3.271	n/a	n/a	NoResponse	0	0.0	n/a	3	10	ISIslide	Neutral	False
114.925	0.25	Lose2	0.9167000000000001	0.0	Yes	2.725	0.025	n/a	GoodResponse	0	n/a	n/a	3	11	Cue	AvoidedLoss	True
115.176	4.05	Lose2	0.9167000000000001	0.0	Yes	2.725	0.001	n/a	GoodResponse	0	n/a	n/a	3	11	Fixation	AvoidedLoss	True
119.221	0.29	Lose2	0.9167000000000001	0.004	Yes	2.725	-0.004	3.0	GoodResponse	0	0.218	118.439	3	11	Target	AvoidedLoss	True
119.439	0.3	Lose2	0.9167000000000001	0.004	Yes	2.725	-0.004	3.0	GoodResponse	0	0.218	n/a	3	11	ButtonPress	AvoidedLoss	True
119.522	0.41	Lose2	0.9167000000000001	n/a	Yes	2.725	n/a	n/a	GoodResponse	0	n/a	n/a	3	11	Blank	AvoidedLoss	True
119.923	1.45	Lose2	0.9167000000000001	n/a	Yes	2.725	n/a	5.0	GoodResponse	0	0.002	118.925	3	11	Feedback	AvoidedLoss	True
121.377	2.725	Lose2	0.9167000000000001	n/a	Yes	2.725	n/a	n/a	GoodResponse	0	0.0	n/a	3	11	ISIslide	AvoidedLoss	True
124.119	0.25	Control	0.9231	0.0	Yes	2.981	0.019	n/a	GoodResponse	0	n/a	n/a	3	12	Cue	Neutral	True
124.37	3.9	Control	0.9231	0.0	Yes	2.981	0.001	n/a	GoodResponse	0	n/a	n/a	3	12	Fixation	Neutral	True
128.265	0.28	Control	0.9231	0.004	Yes	2.981	-0.004	3.0	GoodResponse	0	0.248	127.513	3	12	Target	Neutral	True
128.513	0.3	Control	0.9231	0.004	Yes	2.981	-0.004	3.0	GoodResponse	0	0.248	n/a	3	12	ButtonPress	Neutral	True
128.549	0.42	Control	0.9231	n/a	Yes	2.981	n/a	n/a	GoodResponse	0	n/a	n/a	3	12	Blank	Neutral	True
128.967	1.45	Control	0.9231	n/a	Yes	2.981	n/a	5.0	GoodResponse	0	0.031	127.998	3	12	Feedback	Neutral	True
130.421	2.981	Control	0.9231	n/a	Yes	2.981	n/a	n/a	GoodResponse	0	0.0	n/a	3	12	ISIslide	Neutral	True
133.43	0.25	Control	0.9286	0.0	Yes	2.77	0.03	n/a	GoodResponse	0	n/a	n/a	3	13	Cue	Neutral	True
133.681	4.0	Control	0.9286	0.0	Yes	2.77	0.001	n/a	GoodResponse	0	n/a	n/a	3	13	Fixation	Neutral	True
137.676	0.27	Control	0.9286	0.004	Yes	2.77	-0.004	3.0	GoodResponse	0	0.259	136.935	3	13	Target	Neutral	True
137.935	0.3	Control	0.9286	0.004	Yes	2.77	-0.004	3.0	GoodResponse	0	0.259	n/a	3	13	ButtonPress	Neutral	True
137.96	0.43	Control	0.9286	n/a	Yes	2.77	n/a	n/a	GoodResponse	0	n/a	n/a	3	13	Blank	Neutral	True
138.378	1.45	Control	0.9286	n/a	Yes	2.77	n/a	5.0	GoodResponse	0	0.035	137.413	3	13	Feedback	Neutral	True
139.833	2.77	Control	0.9286	n/a	Yes	2.77	n/a	n/a	GoodResponse	0	0.0	n/a	3	13	ISIslide	Neutral	True
142.624	0.25	Win2	0.9333	0.0	Yes	2.676	0.024	n/a	GoodResponse	1	n/a	n/a	4	14	Cue	Win	True
142.875	4.1	Win2	0.9333	0.0	Yes	2.676	0.001	n/a	GoodResponse	1	n/a	n/a	4	14	Fixation	Win	True
146.97	0.26	Win2	0.9333	0.004	Yes	2.676	-0.004	3.0	GoodResponse	1	0.225	146.195	4	14	Target	Win	True
147.195	0.3	Win2	0.9333	0.004	Yes	2.676	-0.004	3.0	GoodResponse	1	0.225	n/a	4	14	ButtonPress	Win	True
147.238	0.44	Win2	0.9333	n/a	Yes	2.676	n/a	n/a	GoodResponse	1	n/a	n/a	4	14	Blank	Win	True
147.673	1.45	Win2	0.9333	n/a	Yes	2.676	n/a	5.0	GoodResponse	1	0.008	146.681	4	14	Feedback	Win	True
149.127	2.676	Win2	0.9333	n/a	Yes	2.676	n/a	n/a	GoodResponse	1	0.0	n/a	4	14	ISIslide	Win	True
151.818	0.25	Control	0.9375	0.0	Yes	2.982	0.018	n/a	GoodResponse	0	n/a	n/a	4	15	Cue	Neutral	True
152.069	4.0	Control	0.9375	0.0	Yes	2.982	0.001	n/a	GoodResponse	0	n/a	n/a	4	15	Fixation	Neutral	True
156.064	0.25	Control	0.9375	0.004	Yes	2.982	-0.004	3.0	GoodResponse	0	0.185	155.249	4	15	Target	Neutral	True
156.249	0.3	Control	0.9375	0.004	Yes	2.982	-0.004	3.0	GoodResponse	0	0.185	n/a	4	15	ButtonPress	Neutral	True
156.315	0.45	Control	0.9375	n/a	Yes	2.982	n/a	n/a	GoodResponse	0	n/a	n/a	4	15	Blank	Neutral	True
156.766	1.45	Control	0.9375	n/a	Yes	2.982	n/a	5.0	GoodResponse	0	0.037	155.803	4	15	Feedback	Neutral	True
158.221	2.982	Control	0.9375	n/a	Yes	2.982	n/a	n/a	GoodResponse	0	0.0	n/a	4	15	ISIslide	Neutral	True
161.23	0.25	Win2	0.9412	0.0	Yes	2.87	0.03	n/a	GoodResponse	1	n/a	n/a	5	16	Cue	Win	False
161.48	4.0	Win2	0.9412	0.001	Yes	2.87	0.0	3.0	GoodResponse	1	0.046	160.526	5	16	Fixation	Win	False
161.526	0.3	Win2	0.9412	0.001	Yes	2.87	0.0	3.0	GoodResponse	1	0.046	n/a	5	16	ButtonPress	Win	False
165.476	0.24	Win2	0.9412	0.004	Yes	2.87	-0.004	3.0	GoodResponse	1	0.218	164.694	5	16	Target	Win	False
165.694	0.3	Win2	0.9412	0.004	Yes	2.87	-0.004	3.0	GoodResponse	1	0.218	n/a	5	16	ButtonPress	Win	False
165.727	0.46	Win2	0.9412	n/a	Yes	2.87	n/a	n/a	GoodResponse	1	n/a	n/a	5	16	Blank	Win	False
166.178	1.45	Win2	0.9412	n/a	Yes	2.87	n/a	5.0	GoodResponse	1	0.039	165.217	5	16	Feedback	Win	False
167.632	2.87	Win2	0.9412	n/a	Yes	2.87	n/a	n/a	GoodResponse	1	0.0	n/a	5	16	ISIslide	Win	False
170.524	0.25	Lose2	0.9444	0.0	Yes	2.726	0.024	n/a	GoodResponse	0	n/a	n/a	5	17	Cue	AvoidedLoss	True
170.775	3.95	Lose2	0.9444	0.0	Yes	2.726	0.001	n/a	GoodResponse	0	n/a	n/a	5	17	Fixation	AvoidedLoss	True
174.72	0.23	Lose2	0.9444	0.004	Yes	2.726	-0.004	3.0	GoodResponse	0	0.182	173.902	5	17	Target	AvoidedLoss	True
174.902	0.3	Lose2	0.9444	0.004	Yes	2.726	-0.004	3.0	GoodResponse	0	0.182	n/a	5	17	ButtonPress	AvoidedLoss	True
174.954	0.47	Lose2	0.9444	n/a	Yes	2.726	n/a	n/a	GoodResponse	0	n/a	n/a	5	17	Blank	AvoidedLoss	True
175.422	1.45	Lose2	0.9444	n/a	Yes	2.726	n/a	5.0	GoodResponse	0	0.015	174.437	5	17	Feedback	AvoidedLoss	True
176.876	2.726	Lose2	0.9444	n/a	Yes	2.726	n/a	n/a	GoodResponse	0	0.0	n/a	5	17	ISIslide	AvoidedLoss	True
179.618	0.25	Lose2	0.8946999999999999	0.0	No	2.732	0.018	n/a	LatePress	-1	n/a	n/a	4	18	Cue	Loss	True
179.869	4.05	Lose2	0.8946999999999999	0.0	No	2.732	0.001	n/a	LatePress	-1	n/a	n/a	4	18	Fixation	Loss	True
183.914	0.22	Lose2	0.8946999999999999	0.004	No	2.732	-0.004	3.0	LatePress	-1	0.225	183.139	4	18	Target	Loss	True
184.139	0.3	Lose2	0.8946999999999999	0.004	No	2.732	-0.004	3.0	LatePress	-1	0.225	n/a	4	18	ButtonPress	Loss	True
184.148	0.48	Lose2	0.8946999999999999	n/a	No	2.732	n/a	n/a	LatePress	-1	n/a	n/a	4	18	Blank	Loss	True
184.616	1.45	Lose2	0.8946999999999999	n/a	No	2.732	n/a	5.0	LatePress	-1	0.04	183.656	4	18	Feedback	Loss	True
186.071	2.732	Lose2	0.8946999999999999	n/a	No	2.732	n/a	n/a	LatePress	-1	0.0	n/a	4	18	ISIslide	Loss	True
188.829	0.25	Control	0.85	0.0	No	2.921	0.029	n/a	LatePress	0	n/a	n/a	4	19	Cue	Neutral	True
189.08	3.95	Control	0.85	0.0	No	2.921	0.001	n/a	LatePress	0	n/a	n/a	4	19	Fixation	Neutral	True
193.025	0.21	Control	0.85	0.004	No	2.921	-0.004	3.0	LatePress	0	0.216	192.241	4	19	Target	Neutral	True
193.241	0.3	Control	0.85	0.004	No	2.921	-0.004	3.0	LatePress	0	0.216	n/a	4	19	ButtonPress	Neutral	True
193.242	0.49	Control	0.85	n/a	No	2.921	n/a	n/a	LatePress	0	n/a	n/a	4	19	Blank	Neutral	True
193.727	1.45	Control	0.85	n/a	No	2.921	n/a	5.0	LatePress	0	0.002	192.729	4	19	Feedback	Neutral	True
195.181	2.921	Control	0.85	n/a	No	2.921	n/a	n/a	LatePress	0	0.0	n/a	4	19	ISIslide	Neutral	True
198.123	0.25	Control	0.8095	0.0	No	2.627	0.023	n/a	NoResponse	0	n/a	n/a	4	20	Cue	Neutral	True
198.374	4.05	Control	0.8095	0.0	No	2.627	0.001	n/a	NoResponse	0	n/a	n/a	4	20	Fixation	Neutral	True
202.419	0.2	Control	0.8095	0.004	No	2.627	-0.004	3.0	NoResponse	0	0.223	201.642	4	20	Target	Neutral	True
202.62	0.5	Control	0.8095	n/a	No	2.627	n/a	n/a	NoResponse	0	n/a	n/a	4	20	Blank	Neutral	True
202.642	0.3	Control	0.8095	0.004	No	2.627	-0.004	3.0	NoResponse	0	0.223	n/a	4	20	ButtonPress	Neutral	True
203.122	1.45	Control	0.8095	n/a	No	2.627	n/a	5.0	NoResponse	0	0.022	202.144	4	20	Feedback	Neutral	True
204.576	2.627	Control	0.8095	n/a	No	2.627	n/a	n/a	NoResponse	0	0.0	n/a	4	20	ISIslide	Neutral	True
207.217	0.25	Control	0.7726999999999999	0.0	No	2.783	0.017	n/a	NoResponse	0	n/a	n/a	4	21	Cue	Neutral	True
207.468	4.1	Control	0.7726999999999999	0.0	No	2.783	0.001	n/a	NoResponse	0	n/a	n/a	4	21	Fixation	Neutral	True
211.563	0.19	Control	0.7726999999999999	0.004	No	2.783	-0.004	3.0	NoResponse	0	0.249	210.812	4	21	Target	Neutral	True
211.764	0.51	Control	0.7726999999999999	n/a	No	2.783	n/a	n/a	NoResponse	0	n/a	n/a	4	21	Blank	Neutral	True
211.812	0.3	Control	0.7726999999999999	0.004	No	2.783	-0.004	3.0	NoResponse	0	0.249	n/a	4	21	ButtonPress	Neutral	True
212.265	1.45	Control	0.7726999999999999	n/a	No	2.783	n/a	5.0	NoResponse	0	0.001	211.266	4	21	Feedback	Neutral	True
213.72	2.783	Control	0.7726999999999999	n/a	No	2.783	n/a	n/a	NoResponse	0	0.0	n/a	4	21	ISIslide	Neutral	True
216.528	0.25	Control	0.7391	0.0	No	2.772	0.028	n/a	NoResponse	0	n/a	n/a	4	22	Cue	Neutral	True
216.779	4.0	Control	0.7391	0.0	No	2.772	0.001	n/a	NoResponse	0	n/a	n/a	4	22	Fixation	Neutral	True
220.774	0.18	Control	0.7391	0.004	No	2.772	-0.004	3.0	NoResponse	0	0.225	219.999	4	22	Target	Neutral	True
220.958	0.52	Control	0.7391	n/a	No	2.772	n/a	n/a	NoResponse	0	n/a	n/a	4	22	Blank	Neutral	True
220.999	0.3	Control	0.7391	0.004	No	2.772	-0.004	3.0	NoResponse	0	0.225	n/a	4	22	ButtonPress	Neutral	True
221.476	1.45	Control	0.7391	n/a	No	2.772	n/a	5.0	NoResponse	0	0.008	220.484	4	22	Feedback	Neutral	True
222.931	2.772	Control	0.7391	n/a	No	2.772	n/a	n/a	NoResponse	0	0.0	n/a	4	22	ISIslide	Neutral	True
225.722	0.25	Control	0.7082999999999999	0.0	No	2.778	0.022	n/a	NoResponse	0	n/a	n/a	4	23	Cue	Neutral	True
225.973	3.9	Control	0.7082999999999999	0.0	No	2.778	0.001	n/a	NoResponse	0	n/a	n/a	4	23	Fixation	Neutral	True
229.868	0.17	Control	0.7082999999999999	0.004	No	2.778	-0.004	3.0	NoResponse	0	0.26	229.128	4	23	Target	Neutral	True
230.052	0.53	Control	0.7082999999999999	n/a	No	2.778	n/a	n/a	NoResponse	0	n/a	n/a	4	23	Blank	Neutral	True
230.128	0.3	Control	0.7082999999999999	0.004	No	2.778	-0.004	3.0	NoResponse	0	0.26	n/a	4	23	ButtonPress	Neutral	True
230.57	1.45	Control	0.7082999999999999	n/a	No	2.778	n/a	5.0	NoResponse	0	0.036	229.606	4	23	Feedback	Neutral	True
232.024	2.778	Control	0.7082999999999999	n/a	No	2.778	n/a	n/a	NoResponse	0	0.0	n/a	4	23	ISIslide	Neutral	True
234.816	0.25	Win2	0.68	0.0	No	3.134	0.016	n/a	NoResponse	0	n/a	n/a	4	24	Cue	MissedWin	True
235.067	3.95	Win2	0.68	0.0	No	3.134	0.001	n/a	NoResponse	0	n/a	n/a	4	24	Fixation	MissedWin	True
239.012	0.16	Win2	0.68	0.004	No	3.134	-0.004	3.0	NoResponse	0	0.193	238.205	4	24	Target	MissedWin	True
239.179	0.54	Win2	0.68	n/a	No	3.134	n/a	n/a	NoResponse	0	n/a	n/a	4	24	Blank	MissedWin	True
239.205	0.3	Win2	0.68	0.004	No	3.134	-0.004	3.0	NoResponse	0	0.193	n/a	4	24	ButtonPress	MissedWin	True
239.714	1.45	Win2	0.68	n/a	No	3.134	n/a	5.0	NoResponse	0	0.015	238.729	4	24	Feedback	MissedWin	True
241.168	3.134	Win2	0.68	n/a	No	3.134	n/a	n/a	NoResponse	0	0.0	n/a	4	24	ISIslide	MissedWin	True
244.328	0.25	Win2	0.6537999999999999	0.0	No	3.072	0.028	n/a	NoResponse	0	n/a	n/a	4	25	Cue	MissedWin	True
244.579	4.0	Win2	0.6537999999999999	0.0	No	3.072	0.001	n/a	NoResponse	0	n/a	n/a	4	25	Fixation	MissedWin	True
248.574	0.15	Win2	0.6537999999999999	0.004	No	3.072	-0.004	3.0	NoResponse	0	0.196	247.77	4	25	Target	MissedWin	True
248.724	0.55	Win2	0.6537999999999999	n/a	No	3.072	n/a	n/a	NoResponse	0	n/a	n/a	4	25	Blank	MissedWin	True
248.77	0.3	Win2	0.6537999999999999	0.004	No	3.072	-0.004	3.0	NoResponse	0	0.196	n/a	4	25	ButtonPress	MissedWin	True
249.276	1.45	Win2	0.6537999999999999	n/a	No	3.072	n/a	5.0	NoResponse	0	0.014	248.29	4	25	Feedback	MissedWin	True
250.73	3.072	Win2	0.6537999999999999	n/a	No	3.072	n/a	n/a	NoResponse	0	0.0	n/a	4	25	ISIslide	MissedWin	True
253.823	0.25	Win2	0.6296	0.0	No	2.927	0.023	n/a	NoResponse	0	n/a	n/a	4	26	Cue	MissedWin	False
254.074	3.95	Win2	0.6296	0.0	No	2.927	0.001	3.0	NoResponse	0	3.715	256.789	4	26	Fixation	MissedWin	False
257.789	0.3	Win2	0.6296	0.0	No	2.927	0.001	3.0	NoResponse	0	3.715	n/a	4	26	ButtonPress	MissedWin	False
258.019	0.16	Win2	0.6296	0.004	No	2.927	-0.004	3.0	NoResponse	0	0.175	257.194	4	26	Target	MissedWin	False
258.186	0.54	Win2	0.6296	n/a	No	2.927	n/a	n/a	NoResponse	0	n/a	n/a	4	26	Blank	MissedWin	False
258.194	0.3	Win2	0.6296	0.004	No	2.927	-0.004	3.0	NoResponse	0	0.175	n/a	4	26	ButtonPress	MissedWin	False
258.721	1.45	Win2	0.6296	n/a	No	2.927	n/a	5.0	NoResponse	0	0.031	257.752	4	26	Feedback	MissedWin	False
260.175	2.927	Win2	0.6296	n/a	No	2.927	n/a	n/a	NoResponse	0	0.0	n/a	4	26	ISIslide	MissedWin	False
263.117	0.25	Lose2	0.6071	0.0	No	2.833	0.017	n/a	LatePress	-1	n/a	n/a	3	27	Cue	Loss	True
263.368	4.05	Lose2	0.6071	0.0	No	2.833	0.001	n/a	LatePress	-1	n/a	n/a	3	27	Fixation	Loss	True
267.414	0.17	Lose2	0.6071	0.003	No	2.833	-0.003	3.0	LatePress	-1	0.175	266.589	3	27	Target	Loss	True
267.589	0.3	Lose2	0.6071	0.003	No	2.833	-0.003	3.0	LatePress	-1	0.175	n/a	3	27	ButtonPress	Loss	True
267.597	0.53	Lose2	0.6071	n/a	No	2.833	n/a	n/a	LatePress	-1	n/a	n/a	3	27	Blank	Loss	True
268.116	1.45	Lose2	0.6071	n/a	No	2.833	n/a	5.0	LatePress	-1	0.006	267.122	3	27	Feedback	Loss	True
269.57	2.833	Lose2	0.6071	n/a	No	2.833	n/a	n/a	LatePress	-1	0.0	n/a	3	27	ISIslide	Loss	True
272.428	0.25	Control	0.5861999999999999	0.001	No	2.822	0.028	n/a	NoResponse	0	n/a	n/a	3	28	Cue	Neutral	True
272.679	4.05	Control	0.5861999999999999	0.0	No	2.822	0.001	n/a	NoResponse	0	n/a	n/a	3	28	Fixation	Neutral	True
276.725	0.18	Control	0.5861999999999999	0.003	No	2.822	-0.003	3.0	NoResponse	0	0.221	275.946	3	28	Target	Neutral	True
276.909	0.52	Control	0.5861999999999999	n/a	No	2.822	n/a	n/a	NoResponse	0	n/a	n/a	3	28	Blank	Neutral	True
276.946	0.3	Control	0.5861999999999999	0.003	No	2.822	-0.003	3.0	NoResponse	0	0.221	n/a	3	28	ButtonPress	Neutral	True
277.427	1.45	Control	0.5861999999999999	n/a	No	2.822	n/a	5.0	NoResponse	0	0.008	276.435	3	28	Feedback	Neutral	True
278.881	2.822	Control	0.5861999999999999	n/a	No	2.822	n/a	n/a	NoResponse	0	0.0	n/a	3	28	ISIslide	Neutral	True
281.723	0.25	Lose2	0.5667	0.0	No	2.827	0.023	n/a	NoResponse	-1	n/a	n/a	2	29	Cue	Loss	True
281.974	3.95	Lose2	0.5667	0.0	No	2.827	0.001	n/a	NoResponse	-1	n/a	n/a	2	29	Fixation	Loss	True
285.919	0.19	Lose2	0.5667	0.004	No	2.827	-0.004	3.0	NoResponse	-1	0.214	285.133	2	29	Target	Loss	True
286.119	0.51	Lose2	0.5667	n/a	No	2.827	n/a	n/a	NoResponse	-1	n/a	n/a	2	29	Blank	Loss	True
286.133	0.3	Lose2	0.5667	0.004	No	2.827	-0.004	3.0	NoResponse	-1	0.214	n/a	2	29	ButtonPress	Loss	True
286.621	1.45	Lose2	0.5667	n/a	No	2.827	n/a	5.0	NoResponse	-1	0.034	285.655	2	29	Feedback	Loss	True
288.075	2.827	Lose2	0.5667	n/a	No	2.827	n/a	n/a	NoResponse	-1	0.0	n/a	2	29	ISIslide	Loss	True
290.917	0.25	Win2	0.5484	0.0	No	2.783	0.017	n/a	NoResponse	0	n/a	n/a	2	30	Cue	MissedWin	True
291.168	3.9	Win2	0.5484	0.0	No	2.783	0.001	n/a	NoResponse	0	n/a	n/a	2	30	Fixation	MissedWin	True
295.063	0.2	Win2	0.5484	0.004	No	2.783	-0.004	3.0	NoResponse	0	0.217	294.28	2	30	Target	MissedWin	True
295.263	0.5	Win2	0.5484	n/a	No	2.783	n/a	n/a	NoResponse	0	n/a	n/a	2	30	Blank	MissedWin	True
295.28	0.3	Win2	0.5484	0.004	No	2.783	-0.004	3.0	NoResponse	0	0.217	n/a	2	30	ButtonPress	MissedWin	True
295.765	1.45	Win2	0.5484	n/a	No	2.783	n/a	5.0	NoResponse	0	0.011	294.776	2	30	Feedback	MissedWin	True
297.219	2.783	Win2	0.5484	n/a	No	2.783	n/a	n/a	NoResponse	0	0.0	n/a	2	30	ISIslide	MissedWin	True
300.028	0.25	Lose2	0.5312	0.0	No	2.822	0.028	n/a	NoResponse	-1	n/a	n/a	1	31	Cue	Loss	True
300.278	4.05	Lose2	0.5312	0.0	No	2.822	0.0	n/a	NoResponse	-1	n/a	n/a	1	31	Fixation	Loss	True
304.324	0.21	Lose2	0.5312	0.004	No	2.822	-0.004	3.0	NoResponse	-1	0.257	303.581	1	31	Target	Loss	True
304.541	0.49	Lose2	0.5312	n/a	No	2.822	n/a	n/a	NoResponse	-1	n/a	n/a	1	31	Blank	Loss	True
304.581	0.3	Lose2	0.5312	0.004	No	2.822	-0.004	3.0	NoResponse	-1	0.257	n/a	1	31	ButtonPress	Loss	True
305.026	1.45	Lose2	0.5312	n/a	No	2.822	n/a	5.0	NoResponse	-1	0.018	304.044	1	31	Feedback	Loss	True
306.48	2.822	Lose2	0.5312	n/a	No	2.822	n/a	n/a	NoResponse	-1	0.0	n/a	1	31	ISIslide	Loss	True
309.322	0.25	Lose2	0.5152	0.0	No	2.628	0.022	n/a	NoResponse	-1	n/a	n/a	0	32	Cue	Loss	True
309.573	4.15	Lose2	0.5152	0.0	No	2.628	0.001	n/a	NoResponse	-1	n/a	n/a	0	32	Fixation	Loss	True
313.718	0.22	Lose2	0.5152	0.004	No	2.628	-0.004	3.0	NoResponse	-1	0.246	312.964	0	32	Target	Loss	True
313.953	0.48	Lose2	0.5152	n/a	No	2.628	n/a	n/a	NoResponse	-1	n/a	n/a	0	32	Blank	Loss	True
313.964	0.3	Lose2	0.5152	0.004	No	2.628	-0.004	3.0	NoResponse	-1	0.246	n/a	0	32	ButtonPress	Loss	True
314.421	1.45	Lose2	0.5152	n/a	No	2.628	n/a	5.0	NoResponse	-1	0.038	313.459	0	32	Feedback	Loss	True
315.875	2.628	Lose2	0.5152	n/a	No	2.628	n/a	n/a	NoResponse	-1	0.0	n/a	0	32	ISIslide	Loss	True
318.516	0.25	Win2	0.5294	0.0	Yes	2.684	0.016	n/a	GoodResponse	1	n/a	n/a	1	33	Cue	Win	True
318.767	4.0	Win2	0.5294	0.0	Yes	2.684	0.001	n/a	GoodResponse	1	n/a	n/a	1	33	Fixation	Win	True
322.762	0.23	Win2	0.5294	0.004	Yes	2.684	-0.004	3.0	GoodResponse	1	0.228	321.99	1	33	Target	Win	True
322.99	0.3	Win2	0.5294	0.004	Yes	2.684	-0.004	3.0	GoodResponse	1	0.228	n/a	1	33	ButtonPress	Win	True
322.996	0.47	Win2	0.5294	n/a	Yes	2.684	n/a	n/a	GoodResponse	1	n/a	n/a	1	33	Blank	Win	True
323.464	1.45	Win2	0.5294	n/a	Yes	2.684	n/a	5.0	GoodResponse	1	0.02	322.484	1	33	Feedback	Win	True
324.919	2.684	Win2	0.5294	n/a	Yes	2.684	n/a	n/a	GoodResponse	1	0.0	n/a	1	33	ISIslide	Win	True
327.627	0.25	Lose2	0.5428999999999999	0.0	Yes	2.623	0.027	n/a	GoodResponse	0	n/a	n/a	1	34	Cue	AvoidedLoss	False
327.877	4.05	Lose2	0.5428999999999999	0.001	Yes	2.623	0.0	3.0	GoodResponse	0	3.92	330.797	1	34	Fixation	AvoidedLoss	False
331.797	0.3	Lose2	0.5428999999999999	0.001	Yes	2.623	0.0	3.0	GoodResponse	0	3.92	n/a	1	34	ButtonPress	AvoidedLoss	False
331.923	0.24	Lose2	0.5428999999999999	0.004	Yes	2.623	-0.004	3.0	GoodResponse	0	0.222	331.145	1	34	Target	AvoidedLoss	False
332.145	0.3	Lose2	0.5428999999999999	0.004	Yes	2.623	-0.004	3.0	GoodResponse	0	0.222	n/a	1	34	ButtonPress	AvoidedLoss	False
332.174	0.46	Lose2	0.5428999999999999	n/a	Yes	2.623	n/a	n/a	GoodResponse	0	n/a	n/a	1	34	Blank	AvoidedLoss	False
332.625	1.45	Lose2	0.5428999999999999	n/a	Yes	2.623	n/a	5.0	GoodResponse	0	0.029	331.654	1	34	Feedback	AvoidedLoss	False
334.079	2.623	Lose2	0.5428999999999999	n/a	Yes	2.623	n/a	n/a	GoodResponse	0	0.0	n/a	1	34	ISIslide	AvoidedLoss	False
336.721	0.25	Lose2	0.5556	0.0	Yes	2.679	0.021	n/a	GoodResponse	0	n/a	n/a	1	35	Cue	AvoidedLoss	True
336.971	4.0	Lose2	0.5556	0.0	Yes	2.679	0.0	n/a	GoodResponse	0	n/a	n/a	1	35	Fixation	AvoidedLoss	True
340.967	0.25	Lose2	0.5556	0.004	Yes	2.679	-0.004	3.0	GoodResponse	0	0.202	340.169	1	35	Target	AvoidedLoss	True
341.169	0.3	Lose2	0.5556	0.004	Yes	2.679	-0.004	3.0	GoodResponse	0	0.202	n/a	1	35	ButtonPress	AvoidedLoss	True
341.217	0.45	Lose2	0.5556	n/a	Yes	2.679	n/a	n/a	GoodResponse	0	n/a	n/a	1	35	Blank	AvoidedLoss	True
341.669	1.45	Lose2	0.5556	n/a	Yes	2.679	n/a	5.0	GoodResponse	0	0.009	340.678	1	35	Feedback	AvoidedLoss	True
343.123	2.679	Lose2	0.5556	n/a	Yes	2.679	n/a	n/a	GoodResponse	0	0.0	n/a	1	35	ISIslide	AvoidedLoss	True
345.831	0.25	Control	0.5405	0.0	No	2.669	0.031	n/a	NoResponse	0	n/a	n/a	1	36	Cue	Neutral	False
346.082	4.0	Control	0.5405	0.0	No	2.669	0.001	n/a	NoResponse	0	n/a	n/a	1	36	Fixation	Neutral	False
350.077	0.26	Control	0.5405	0.004	No	2.669	-0.004	n/a	NoResponse	0	n/a	n/a	1	36	Target	Neutral	False
350.345	0.44	Control	0.5405	n/a	No	2.669	n/a	n/a	NoResponse	0	n/a	n/a	1	36	Blank	Neutral	False
350.779	1.45	Control	0.5405	n/a	No	2.669	n/a	5.0	NoResponse	0	0.021	349.8	1	36	Feedback	Neutral	False
352.234	2.669	Control	0.5405	n/a	No	2.669	n/a	n/a	NoResponse	0	0.0	n/a	1	36	ISIslide	Neutral	False
354.925	0.25	Win2	0.5526	0.0	Yes	2.875	0.025	n/a	GoodResponse	1	n/a	n/a	2	37	Cue	Win	True
355.176	4.0	Win2	0.5526	0.0	Yes	2.875	0.001	n/a	GoodResponse	1	n/a	n/a	2	37	Fixation	Win	True
359.171	0.27	Win2	0.5526	0.004	Yes	2.875	-0.004	3.0	GoodResponse	1	0.259	358.43	2	37	Target	Win	True
359.43	0.3	Win2	0.5526	0.004	Yes	2.875	-0.004	3.0	GoodResponse	1	0.259	n/a	2	37	ButtonPress	Win	True
359.455	0.43	Win2	0.5526	n/a	Yes	2.875	n/a	n/a	GoodResponse	1	n/a	n/a	2	37	Blank	Win	True
359.873	1.45	Win2	0.5526	n/a	Yes	2.875	n/a	5.0	GoodResponse	1	0.049	358.922	2	37	Feedback	Win	True
361.327	2.875	Win2	0.5526	n/a	Yes	2.875	n/a	n/a	GoodResponse	1	0.0	n/a	2	37	ISIslide	Win	True
364.219	0.25	Lose2	0.5385	0.0	No	2.831	0.019	n/a	NoResponse	-1	n/a	n/a	1	38	Cue	Loss	False
364.47	3.95	Lose2	0.5385	0.0	No	2.831	0.001	3.0	NoResponse	-1	3.889	367.359	1	38	Fixation	Loss	False
368.359	0.3	Lose2	0.5385	0.0	No	2.831	0.001	3.0	NoResponse	-1	3.889	n/a	1	38	ButtonPress	Loss	False
368.415	0.28	Lose2	0.5385	0.004	No	2.831	-0.004	3.0	NoResponse	-1	0.322	367.737	1	38	Target	Loss	False
368.699	0.42	Lose2	0.5385	n/a	No	2.831	n/a	n/a	NoResponse	-1	n/a	n/a	1	38	Blank	Loss	False
368.737	0.3	Lose2	0.5385	0.004	No	2.831	-0.004	3.0	NoResponse	-1	0.322	n/a	1	38	ButtonPress	Loss	False
369.117	1.45	Lose2	0.5385	n/a	No	2.831	n/a	5.0	NoResponse	-1	0.024	368.141	1	38	Feedback	Loss	False
370.572	2.831	Lose2	0.5385	n/a	No	2.831	n/a	n/a	NoResponse	-1	0.0	n/a	1	38	ISIslide	Loss	False
373.43	0.25	Win2	0.55	0.0	Yes	2.97	0.03	n/a	GoodResponse	1	n/a	n/a	2	39	Cue	Win	True
373.681	4.1	Win2	0.55	0.0	Yes	2.97	0.001	n/a	GoodResponse	1	n/a	n/a	2	39	Fixation	Win	True
377.776	0.29	Win2	0.55	0.004	Yes	2.97	-0.004	3.0	GoodResponse	1	0.217	376.993	2	39	Target	Win	True
377.993	0.3	Win2	0.55	0.004	Yes	2.97	-0.004	3.0	GoodResponse	1	0.217	n/a	2	39	ButtonPress	Win	True
378.077	0.41	Win2	0.55	n/a	Yes	2.97	n/a	n/a	GoodResponse	1	n/a	n/a	2	39	Blank	Win	True
378.479	1.45	Win2	0.55	n/a	Yes	2.97	n/a	5.0	GoodResponse	1	0.028	377.507	2	39	Feedback	Win	True
379.933	2.97	Win2	0.55	n/a	Yes	2.97	n/a	n/a	GoodResponse	1	0.0	n/a	2	39	ISIslide	Win	True
382.925	0.25	Win2	0.561	0.0	Yes	2.725	0.025	n/a	GoodResponse	1	n/a	n/a	3	40	Cue	Win	True
383.176	3.95	Win2	0.561	0.0	Yes	2.725	0.001	n/a	GoodResponse	1	n/a	n/a	3	40	Fixation	Win	True
387.121	0.3	Win2	0.561	0.004	Yes	2.725	-0.004	3.0	GoodResponse	1	0.202	386.323	3	40	Target	Win	True
387.323	0.3	Win2	0.561	0.004	Yes	2.725	-0.004	3.0	GoodResponse	1	0.202	n/a	3	40	ButtonPress	Win	True
387.422	0.4	Win2	0.561	n/a	Yes	2.725	n/a	n/a	GoodResponse	1	n/a	n/a	3	40	Blank	Win	True
387.823	1.45	Win2	0.561	n/a	Yes	2.725	n/a	5.0	GoodResponse	1	0.001	386.824	3	40	Feedback	Win	True
389.277	2.725	Win2	0.561	n/a	Yes	2.725	n/a	n/a	GoodResponse	1	0.0	n/a	3	40	ISIslide	Win	True
392.019	0.25	Win2	0.5714	0.0	Yes	2.781	0.019	n/a	GoodResponse	1	n/a	n/a	4	41	Cue	Win	True
392.27	3.9	Win2	0.5714	0.0	Yes	2.781	0.001	n/a	GoodResponse	1	n/a	n/a	4	41	Fixation	Win	True
396.165	0.31	Win2	0.5714	0.004	Yes	2.781	-0.004	3.0	GoodResponse	1	0.229	395.394	4	41	Target	Win	True
396.394	0.3	Win2	0.5714	0.004	Yes	2.781	-0.004	3.0	GoodResponse	1	0.229	n/a	4	41	ButtonPress	Win	True
396.482	0.39	Win2	0.5714	n/a	Yes	2.781	n/a	n/a	GoodResponse	1	n/a	n/a	4	41	Blank	Win	True
396.867	1.45	Win2	0.5714	n/a	Yes	2.781	n/a	5.0	GoodResponse	1	0.03	395.897	4	41	Feedback	Win	True
398.321	2.781	Win2	0.5714	n/a	Yes	2.781	n/a	n/a	GoodResponse	1	0.0	n/a	4	41	ISIslide	Win	True
401.13	0.25	Control	0.5814	0.0	Yes	2.92	0.03	n/a	GoodResponse	0	n/a	n/a	4	42	Cue	Neutral	True
401.38	3.85	Control	0.5814	0.0	Yes	2.92	0.0	n/a	GoodResponse	0	n/a	n/a	4	42	Fixation	Neutral	True
405.242	0.32	Control	0.5814	0.0	Yes	2.92	0.012	3.0	GoodResponse	0	0.214	404.456	4	42	Target	Neutral	True
405.456	0.3	Control	0.5814	0.0	Yes	2.92	0.012	3.0	GoodResponse	0	0.214	n/a	4	42	ButtonPress	Neutral	True
405.559	0.38	Control	0.5814	n/a	Yes	2.92	n/a	n/a	GoodResponse	0	n/a	n/a	4	42	Blank	Neutral	True
405.927	1.45	Control	0.5814	n/a	Yes	2.92	n/a	5.0	GoodResponse	0	0.043	404.97	4	42	Feedback	Neutral	True
407.382	2.92	Control	0.5814	n/a	Yes	2.92	n/a	n/a	GoodResponse	0	0.0	n/a	4	42	ISIslide	Neutral	True
410.324	0.25	Win2	0.5909	0.0	Yes	3.176	0.024	n/a	GoodResponse	1	n/a	n/a	5	43	Cue	Win	True
410.574	4.0	Win2	0.5909	0.0	Yes	3.176	0.0	n/a	GoodResponse	1	n/a	n/a	5	43	Fixation	Win	True
414.57	0.33	Win2	0.5909	0.004	Yes	3.176	-0.004	3.0	GoodResponse	1	0.251	413.821	5	43	Target	Win	True
414.821	0.3	Win2	0.5909	0.004	Yes	3.176	-0.004	3.0	GoodResponse	1	0.251	n/a	5	43	ButtonPress	Win	True
414.904	0.37	Win2	0.5909	n/a	Yes	3.176	n/a	n/a	GoodResponse	1	n/a	n/a	5	43	Blank	Win	True
415.272	1.45	Win2	0.5909	n/a	Yes	3.176	n/a	5.0	GoodResponse	1	0.015	414.287	5	43	Feedback	Win	True
416.726	3.176	Win2	0.5909	n/a	Yes	3.176	n/a	n/a	GoodResponse	1	0.0	n/a	5	43	ISIslide	Win	True
419.919	0.25	Win2	0.6	0.0	Yes	2.981	0.019	n/a	GoodResponse	1	n/a	n/a	6	44	Cue	Win	True
420.17	4.0	Win2	0.6	0.0	Yes	2.981	0.001	n/a	GoodResponse	1	n/a	n/a	6	44	Fixation	Win	True
424.165	0.34	Win2	0.6	0.004	Yes	2.981	-0.004	3.0	GoodResponse	1	0.301	423.466	6	44	Target	Win	True
424.466	0.3	Win2	0.6	0.004	Yes	2.981	-0.004	3.0	GoodResponse	1	0.301	n/a	6	44	ButtonPress	Win	True
424.516	0.36	Win2	0.6	n/a	Yes	2.981	n/a	n/a	GoodResponse	1	n/a	n/a	6	44	Blank	Win	True
424.867	1.45	Win2	0.6	n/a	Yes	2.981	n/a	5.0	GoodResponse	1	0.03	423.897	6	44	Feedback	Win	True
426.321	2.981	Win2	0.6	n/a	Yes	2.981	n/a	n/a	GoodResponse	1	0.0	n/a	6	44	ISIslide	Win	True
429.33	0.25	Control	0.6087	0.0	Yes	2.87	0.03	n/a	GoodResponse	0	n/a	n/a	6	45	Cue	Neutral	True
429.581	4.1	Control	0.6087	0.0	Yes	2.87	0.001	n/a	GoodResponse	0	n/a	n/a	6	45	Fixation	Neutral	True
433.677	0.35	Control	0.6087	0.003	Yes	2.87	-0.003	3.0	GoodResponse	0	0.232	432.909	6	45	Target	Neutral	True
433.909	0.3	Control	0.6087	0.003	Yes	2.87	-0.003	3.0	GoodResponse	0	0.232	n/a	6	45	ButtonPress	Neutral	True
434.028	0.35	Control	0.6087	n/a	Yes	2.87	n/a	n/a	GoodResponse	0	n/a	n/a	6	45	Blank	Neutral	True
434.379	1.45	Control	0.6087	n/a	Yes	2.87	n/a	5.0	GoodResponse	0	0.03	433.409	6	45	Feedback	Neutral	True
435.833	2.87	Control	0.6087	n/a	Yes	2.87	n/a	n/a	GoodResponse	0	0.0	n/a	6	45	ISIslide	Neutral	True
438.725	0.25	Lose2	0.617	0.0	Yes	3.375	0.025	n/a	GoodResponse	0	n/a	n/a	6	46	Cue	AvoidedLoss	True
438.976	4.0	Lose2	0.617	0.0	Yes	3.375	0.001	n/a	GoodResponse	0	n/a	n/a	6	46	Fixation	AvoidedLoss	True
442.971	0.36	Lose2	0.617	0.004	Yes	3.375	-0.004	3.0	GoodResponse	0	0.219	442.19	6	46	Target	AvoidedLoss	True
443.19	0.3	Lose2	0.617	0.004	Yes	3.375	-0.004	3.0	GoodResponse	0	0.219	n/a	6	46	ButtonPress	AvoidedLoss	True
443.339	0.34	Lose2	0.617	n/a	Yes	3.375	n/a	n/a	GoodResponse	0	n/a	n/a	6	46	Blank	AvoidedLoss	True
443.673	1.45	Lose2	0.617	n/a	Yes	3.375	n/a	5.0	GoodResponse	0	0.007	442.68	6	46	Feedback	AvoidedLoss	True
445.128	3.375	Lose2	0.617	n/a	Yes	3.375	n/a	n/a	GoodResponse	0	0.0	n/a	6	46	ISIslide	AvoidedLoss	True
448.521	0.25	Lose2	0.625	0.0	Yes	2.679	0.021	n/a	GoodResponse	0	n/a	n/a	6	47	Cue	AvoidedLoss	True
448.772	4.0	Lose2	0.625	0.0	Yes	2.679	0.001	n/a	GoodResponse	0	n/a	n/a	6	47	Fixation	AvoidedLoss	True
452.767	0.37	Lose2	0.625	0.004	Yes	2.679	-0.004	3.0	GoodResponse	0	0.25	452.017	6	47	Target	AvoidedLoss	True
453.017	0.3	Lose2	0.625	0.004	Yes	2.679	-0.004	3.0	GoodResponse	0	0.25	n/a	6	47	ButtonPress	AvoidedLoss	True
453.152	0.33	Lose2	0.625	n/a	Yes	2.679	n/a	n/a	GoodResponse	0	n/a	n/a	6	47	Blank	AvoidedLoss	True
453.469	1.45	Lose2	0.625	n/a	Yes	2.679	n/a	5.0	GoodResponse	0	0.012	452.481	6	47	Feedback	AvoidedLoss	True
454.924	2.679	Lose2	0.625	n/a	Yes	2.679	n/a	n/a	GoodResponse	0	0.0	n/a	6	47	ISIslide	AvoidedLoss	True
457.632	0.25	Lose2	0.6327	0.0	Yes	3.018	0.032	n/a	GoodResponse	0	n/a	n/a	6	48	Cue	AvoidedLoss	True
457.882	3.95	Lose2	0.6327	0.0	Yes	3.018	0.0	n/a	GoodResponse	0	n/a	n/a	6	48	Fixation	AvoidedLoss	True
461.844	0.38	Lose2	0.6327	0.0	Yes	3.018	0.012	3.0	GoodResponse	0	0.218	461.062	6	48	Target	AvoidedLoss	True
462.062	0.3	Lose2	0.6327	0.0	Yes	3.018	0.012	3.0	GoodResponse	0	0.218	n/a	6	48	ButtonPress	AvoidedLoss	True
462.212	0.32	Lose2	0.6327	n/a	Yes	3.018	n/a	n/a	GoodResponse	0	n/a	n/a	6	48	Blank	AvoidedLoss	True
462.53	1.45	Lose2	0.6327	n/a	Yes	3.018	n/a	5.0	GoodResponse	0	0.025	461.555	6	48	Feedback	AvoidedLoss	True
463.984	3.018	Lose2	0.6327	n/a	Yes	3.018	n/a	n/a	GoodResponse	0	0.0	n/a	6	48	ISIslide	AvoidedLoss	True
467.026	0.25	Control	0.64	0.0	Yes	2.874	0.026	n/a	GoodResponse	0	n/a	n/a	6	49	Cue	Neutral	True
467.277	4.0	Control	0.64	0.0	Yes	2.874	0.001	n/a	GoodResponse	0	n/a	n/a	6	49	Fixation	Neutral	True
471.272	0.39	Control	0.64	0.004	Yes	2.874	-0.004	3.0	GoodResponse	0	0.24	470.512	6	49	Target	Neutral	True
471.512	0.3	Control	0.64	0.004	Yes	2.874	-0.004	3.0	GoodResponse	0	0.24	n/a	6	49	ButtonPress	Neutral	True
471.674	0.31	Control	0.64	n/a	Yes	2.874	n/a	n/a	GoodResponse	0	n/a	n/a	6	49	Blank	Neutral	True
471.974	1.45	Control	0.64	n/a	Yes	2.874	n/a	5.0	GoodResponse	0	0.044	471.018	6	49	Feedback	Neutral	True
473.429	2.874	Control	0.64	n/a	Yes	2.874	n/a	n/a	GoodResponse	0	0.0	n/a	6	49	ISIslide	Neutral	True
476.321	0.25	Control	0.6470999999999999	0.0	Yes	2.779	0.021	n/a	GoodResponse	0	n/a	n/a	6	50	Cue	Neutral	True
476.572	4.0	Control	0.6470999999999999	0.0	Yes	2.779	0.001	n/a	GoodResponse	0	n/a	n/a	6	50	Fixation	Neutral	True
480.567	0.4	Control	0.6470999999999999	0.004	Yes	2.779	-0.004	3.0	GoodResponse	0	0.259	479.826	6	50	Target	Neutral	True
480.826	0.3	Control	0.6470999999999999	0.004	Yes	2.779	-0.004	3.0	GoodResponse	0	0.259	n/a	6	50	ButtonPress	Neutral	True
480.968	0.3	Control	0.6470999999999999	n/a	Yes	2.779	n/a	n/a	GoodResponse	0	n/a	n/a	6	50	Blank	Neutral	True
481.269	1.45	Control	0.6470999999999999	n/a	Yes	2.779	n/a	5.0	GoodResponse	0	0.017	480.286	6	50	Feedback	Neutral	True
482.723	2.779	Control	0.6470999999999999	n/a	Yes	2.779	n/a	n/a	GoodResponse	0	0.0	n/a	6	50	ISIslide	Neutral	True
485.515	0.25	Control	0.6537999999999999	0.0	Yes	2.735	0.015	n/a	GoodResponse	0	n/a	n/a	6	51	Cue	Neutral	True
485.766	3.95	Control	0.6537999999999999	0.0	Yes	2.735	0.001	n/a	GoodResponse	0	n/a	n/a	6	51	Fixation	Neutral	True
489.711	0.41	Control	0.6537999999999999	0.004	Yes	2.735	-0.004	3.0	GoodResponse	0	0.26	488.971	6	51	Target	Neutral	True
489.971	0.3	Control	0.6537999999999999	0.004	Yes	2.735	-0.004	3.0	GoodResponse	0	0.26	n/a	6	51	ButtonPress	Neutral	True
490.129	0.29	Control	0.6537999999999999	n/a	Yes	2.735	n/a	n/a	GoodResponse	0	n/a	n/a	6	51	Blank	Neutral	True
490.413	1.45	Control	0.6537999999999999	n/a	Yes	2.735	n/a	5.0	GoodResponse	0	0.043	489.456	6	51	Feedback	Neutral	True
491.867	2.735	Control	0.6537999999999999	n/a	Yes	2.735	n/a	n/a	GoodResponse	0	0.0	n/a	6	51	ISIslide	Neutral	True
494.625	0.25	Control	0.6604000000000001	0.001	Yes	2.625	0.025	n/a	GoodResponse	0	n/a	n/a	6	52	Cue	Neutral	True
494.876	4.05	Control	0.6604000000000001	0.0	Yes	2.625	0.001	n/a	GoodResponse	0	n/a	n/a	6	52	Fixation	Neutral	True
498.922	0.42	Control	0.6604000000000001	0.003	Yes	2.625	-0.003	3.0	GoodResponse	0	0.273	498.195	6	52	Target	Neutral	True
499.195	0.3	Control	0.6604000000000001	0.003	Yes	2.625	-0.003	3.0	GoodResponse	0	0.273	n/a	6	52	ButtonPress	Neutral	True
499.356	0.28	Control	0.6604000000000001	n/a	Yes	2.625	n/a	n/a	GoodResponse	0	n/a	n/a	6	52	Blank	Neutral	True
499.624	1.45	Control	0.6604000000000001	n/a	Yes	2.625	n/a	5.0	GoodResponse	0	0.006	498.63	6	52	Feedback	Neutral	True
501.078	2.625	Control	0.6604000000000001	n/a	Yes	2.625	n/a	n/a	GoodResponse	0	0.0	n/a	6	52	ISIslide	Neutral	True
503.719	0.25	Win2	0.6667000000000001	0.0	Yes	2.931	0.019	n/a	GoodResponse	1	n/a	n/a	7	53	Cue	Win	True
503.97	4.05	Win2	0.6667000000000001	0.0	Yes	2.931	0.001	n/a	GoodResponse	1	n/a	n/a	7	53	Fixation	Win	True
508.015	0.42	Win2	0.6667000000000001	0.004	Yes	2.931	-0.004	3.0	GoodResponse	1	0.214	507.229	7	53	Target	Win	True
508.229	0.3	Win2	0.6667000000000001	0.004	Yes	2.931	-0.004	3.0	GoodResponse	1	0.214	n/a	7	53	ButtonPress	Win	True
508.45	0.28	Win2	0.6667000000000001	n/a	Yes	2.931	n/a	n/a	GoodResponse	1	n/a	n/a	7	53	Blank	Win	True
508.718	1.45	Win2	0.6667000000000001	n/a	Yes	2.931	n/a	5.0	GoodResponse	1	0.031	507.749	7	53	Feedback	Win	True
510.172	2.931	Win2	0.6667000000000001	n/a	Yes	2.931	n/a	n/a	GoodResponse	1	0.0	n/a	7	53	ISIslide	Win	True
513.131	0.25	Win2	0.6727	0.0	Yes	2.719	0.031	n/a	GoodResponse	1	n/a	n/a	8	54	Cue	Win	True
513.381	3.95	Win2	0.6727	0.001	Yes	2.719	0.0	n/a	GoodResponse	1	n/a	n/a	8	54	Fixation	Win	True
517.327	0.41	Win2	0.6727	0.004	Yes	2.719	-0.004	3.0	GoodResponse	1	0.236	516.563	8	54	Target	Win	True
517.563	0.3	Win2	0.6727	0.004	Yes	2.719	-0.004	3.0	GoodResponse	1	0.236	n/a	8	54	ButtonPress	Win	True
517.744	0.29	Win2	0.6727	n/a	Yes	2.719	n/a	n/a	GoodResponse	1	n/a	n/a	8	54	Blank	Win	True
518.029	1.45	Win2	0.6727	n/a	Yes	2.719	n/a	5.0	GoodResponse	1	0.036	517.065	8	54	Feedback	Win	True
519.483	2.719	Win2	0.6727	n/a	Yes	2.719	n/a	n/a	GoodResponse	1	0.0	n/a	8	54	ISIslide	Win	True
522.225	0.25	Control	0.6607	0.0	No	3.025	0.025	n/a	NoResponse	0	n/a	n/a	8	55	Cue	Neutral	False
522.475	3.95	Control	0.6607	0.0	No	3.025	0.0	n/a	NoResponse	0	n/a	n/a	8	55	Fixation	Neutral	False
526.437	0.4	Control	0.6607	0.0	No	3.025	0.012	n/a	NoResponse	0	n/a	n/a	8	55	Target	Neutral	False
526.822	0.3	Control	0.6607	n/a	No	3.025	n/a	n/a	NoResponse	0	n/a	n/a	8	55	Blank	Neutral	False
527.122	1.45	Control	0.6607	n/a	No	3.025	n/a	5.0	NoResponse	0	0.017	526.139	8	55	Feedback	Neutral	False
528.577	3.025	Control	0.6607	n/a	No	3.025	n/a	n/a	NoResponse	0	0.0	n/a	8	55	ISIslide	Neutral	False
531.619	0.25	Control	0.6667000000000001	0.0	Yes	2.831	0.019	n/a	GoodResponse	0	n/a	n/a	8	56	Cue	Neutral	True
531.87	3.95	Control	0.6667000000000001	0.0	Yes	2.831	0.001	n/a	GoodResponse	0	n/a	n/a	8	56	Fixation	Neutral	True
535.815	0.4	Control	0.6667000000000001	0.004	Yes	2.831	-0.004	3.0	GoodResponse	0	0.258	535.073	8	56	Target	Neutral	True
536.073	0.3	Control	0.6667000000000001	0.004	Yes	2.831	-0.004	3.0	GoodResponse	0	0.258	n/a	8	56	ButtonPress	Neutral	True
536.216	0.3	Control	0.6667000000000001	n/a	Yes	2.831	n/a	n/a	GoodResponse	0	n/a	n/a	8	56	Blank	Neutral	True
536.517	1.45	Control	0.6667000000000001	n/a	Yes	2.831	n/a	5.0	GoodResponse	0	0.037	535.554	8	56	Feedback	Neutral	True
537.972	2.831	Control	0.6667000000000001	n/a	Yes	2.831	n/a	n/a	GoodResponse	0	0.0	n/a	8	56	ISIslide	Neutral	True
540.83	0.25	Control	0.6724	0.0	Yes	3.47	0.03	n/a	GoodResponse	0	n/a	n/a	8	57	Cue	Neutral	True
541.081	4.0	Control	0.6724	0.0	Yes	3.47	0.001	n/a	GoodResponse	0	n/a	n/a	8	57	Fixation	Neutral	True
545.076	0.39	Control	0.6724	0.004	Yes	3.47	-0.004	3.0	GoodResponse	0	0.372	544.448	8	57	Target	Neutral	True
545.448	0.3	Control	0.6724	0.004	Yes	3.47	-0.004	3.0	GoodResponse	0	0.372	n/a	8	57	ButtonPress	Neutral	True
545.477	0.31	Control	0.6724	n/a	Yes	3.47	n/a	n/a	GoodResponse	0	n/a	n/a	8	57	Blank	Neutral	True
545.778	1.45	Control	0.6724	n/a	Yes	3.47	n/a	5.0	GoodResponse	0	0.044	544.822	8	57	Feedback	Neutral	True
547.233	3.47	Control	0.6724	n/a	Yes	3.47	n/a	n/a	GoodResponse	0	0.0	n/a	8	57	ISIslide	Neutral	True
550.726	0.25	Win2	0.6779999999999999	0.0	Yes	2.724	0.026	n/a	GoodResponse	1	n/a	n/a	9	58	Cue	Win	True
550.977	4.05	Win2	0.6779999999999999	0.0	Yes	2.724	0.001	n/a	GoodResponse	1	n/a	n/a	9	58	Fixation	Win	True
555.022	0.38	Win2	0.6779999999999999	0.004	Yes	2.724	-0.004	3.0	GoodResponse	1	0.213	554.235	9	58	Target	Win	True
555.235	0.3	Win2	0.6779999999999999	0.004	Yes	2.724	-0.004	3.0	GoodResponse	1	0.213	n/a	9	58	ButtonPress	Win	True
555.407	0.32	Win2	0.6779999999999999	n/a	Yes	2.724	n/a	n/a	GoodResponse	1	n/a	n/a	9	58	Blank	Win	True
555.725	1.45	Win2	0.6779999999999999	n/a	Yes	2.724	n/a	5.0	GoodResponse	1	0.047	554.772	9	58	Feedback	Win	True
557.179	2.724	Win2	0.6779999999999999	n/a	Yes	2.724	n/a	n/a	GoodResponse	1	0.0	n/a	9	58	ISIslide	Win	True
559.92	0.25	Lose2	0.6833	0.001	Yes	2.68	0.02	n/a	GoodResponse	0	n/a	n/a	9	59	Cue	AvoidedLoss	True
560.171	4.0	Lose2	0.6833	0.0	Yes	2.68	0.001	n/a	GoodResponse	0	n/a	n/a	9	59	Fixation	AvoidedLoss	True
564.166	0.37	Lose2	0.6833	0.004	Yes	2.68	-0.004	3.0	GoodResponse	0	0.214	563.38	9	59	Target	AvoidedLoss	True
564.38	0.3	Lose2	0.6833	0.004	Yes	2.68	-0.004	3.0	GoodResponse	0	0.214	n/a	9	59	ButtonPress	AvoidedLoss	True
564.551	0.33	Lose2	0.6833	n/a	Yes	2.68	n/a	n/a	GoodResponse	0	n/a	n/a	9	59	Blank	AvoidedLoss	True
564.869	1.45	Lose2	0.6833	n/a	Yes	2.68	n/a	5.0	GoodResponse	0	0.025	563.894	9	59	Feedback	AvoidedLoss	True
566.323	2.68	Lose2	0.6833	n/a	Yes	2.68	n/a	n/a	GoodResponse	0	0.0	n/a	9	59	ISIslide	AvoidedLoss	True
569.031	0.25	Control	0.6884999999999999	0.0	Yes	2.669	0.031	n/a	GoodResponse	0	n/a	n/a	9	60	Cue	Neutral	True
569.282	4.0	Control	0.6884999999999999	0.0	Yes	2.669	0.001	n/a	GoodResponse	0	n/a	n/a	9	60	Fixation	Neutral	True
573.277	0.36	Control	0.6884999999999999	0.004	Yes	2.669	-0.004	3.0	GoodResponse	0	0.21	572.487	9	60	Target	Neutral	True
573.487	0.3	Control	0.6884999999999999	0.004	Yes	2.669	-0.004	3.0	GoodResponse	0	0.21	n/a	9	60	ButtonPress	Neutral	True
573.645	0.34	Control	0.6884999999999999	n/a	Yes	2.669	n/a	n/a	GoodResponse	0	n/a	n/a	9	60	Blank	Neutral	True
573.979	1.45	Control	0.6884999999999999	n/a	Yes	2.669	n/a	5.0	GoodResponse	0	0.037	573.016	9	60	Feedback	Neutral	True
575.433	2.669	Control	0.6884999999999999	n/a	Yes	2.669	n/a	n/a	GoodResponse	0	0.0	n/a	9	60	ISIslide	Neutral	True
578.125	0.25	Lose2	0.6934999999999999	0.0	Yes	2.975	0.025	n/a	GoodResponse	0	n/a	n/a	9	61	Cue	AvoidedLoss	True
578.376	4.0	Lose2	0.6934999999999999	0.0	Yes	2.975	0.001	n/a	GoodResponse	0	n/a	n/a	9	61	Fixation	AvoidedLoss	True
582.371	0.35	Lose2	0.6934999999999999	0.004	Yes	2.975	-0.004	3.0	GoodResponse	0	0.207	581.578	9	61	Target	AvoidedLoss	True
582.578	0.3	Lose2	0.6934999999999999	0.004	Yes	2.975	-0.004	3.0	GoodResponse	0	0.207	n/a	9	61	ButtonPress	AvoidedLoss	True
582.722	0.35	Lose2	0.6934999999999999	n/a	Yes	2.975	n/a	n/a	GoodResponse	0	n/a	n/a	9	61	Blank	AvoidedLoss	True
583.073	1.45	Lose2	0.6934999999999999	n/a	Yes	2.975	n/a	5.0	GoodResponse	0	0.017	582.09	9	61	Feedback	AvoidedLoss	True
584.527	2.975	Lose2	0.6934999999999999	n/a	Yes	2.975	n/a	n/a	GoodResponse	0	0.0	n/a	9	61	ISIslide	AvoidedLoss	True
587.52	0.25	Lose2	0.6984	0.0	Yes	2.88	0.02	n/a	GoodResponse	0	n/a	n/a	9	62	Cue	AvoidedLoss	True
587.77	3.9	Lose2	0.6984	0.0	Yes	2.88	0.0	n/a	GoodResponse	0	n/a	n/a	9	62	Fixation	AvoidedLoss	True
591.682	0.34	Lose2	0.6984	0.0	Yes	2.88	0.012	3.0	GoodResponse	0	0.2	590.882	9	62	Target	AvoidedLoss	True
591.882	0.3	Lose2	0.6984	0.0	Yes	2.88	0.012	3.0	GoodResponse	0	0.2	n/a	9	62	ButtonPress	AvoidedLoss	True
592.016	0.36	Lose2	0.6984	n/a	Yes	2.88	n/a	n/a	GoodResponse	0	n/a	n/a	9	62	Blank	AvoidedLoss	True
592.367	1.45	Lose2	0.6984	n/a	Yes	2.88	n/a	5.0	GoodResponse	0	0.039	591.406	9	62	Feedback	AvoidedLoss	True
593.822	2.88	Lose2	0.6984	n/a	Yes	2.88	n/a	n/a	GoodResponse	0	0.0	n/a	9	62	ISIslide	AvoidedLoss	True
596.73	0.25	Lose2	0.7031000000000001	0.0	Yes	2.62	0.03	n/a	GoodResponse	0	n/a	n/a	9	63	Cue	AvoidedLoss	True
596.981	4.05	Lose2	0.7031000000000001	0.0	Yes	2.62	0.001	n/a	GoodResponse	0	n/a	n/a	9	63	Fixation	AvoidedLoss	True
601.027	0.33	Lose2	0.7031000000000001	0.003	Yes	2.62	-0.003	3.0	GoodResponse	0	0.277	600.304	9	63	Target	AvoidedLoss	True
601.304	0.3	Lose2	0.7031000000000001	0.003	Yes	2.62	-0.003	3.0	GoodResponse	0	0.277	n/a	9	63	ButtonPress	AvoidedLoss	True
601.361	0.37	Lose2	0.7031000000000001	n/a	Yes	2.62	n/a	n/a	GoodResponse	0	n/a	n/a	9	63	Blank	AvoidedLoss	True
601.729	1.45	Lose2	0.7031000000000001	n/a	Yes	2.62	n/a	5.0	GoodResponse	0	0.043	600.772	9	63	Feedback	AvoidedLoss	True
603.183	2.62	Lose2	0.7031000000000001	n/a	Yes	2.62	n/a	n/a	GoodResponse	0	0.0	n/a	9	63	ISIslide	AvoidedLoss	True
605.824	0.25	Win2	0.7077	0.0	Yes	3.126	0.024	n/a	GoodResponse	1	n/a	n/a	10	64	Cue	Win	True
606.075	4.15	Win2	0.7077	0.0	Yes	3.126	0.001	n/a	GoodResponse	1	n/a	n/a	10	64	Fixation	Win	True
610.221	0.32	Win2	0.7077	0.003	Yes	3.126	-0.003	3.0	GoodResponse	1	0.203	609.424	10	64	Target	Win	True
610.424	0.3	Win2	0.7077	0.003	Yes	3.126	-0.003	3.0	GoodResponse	1	0.203	n/a	10	64	ButtonPress	Win	True
610.555	0.38	Win2	0.7077	n/a	Yes	3.126	n/a	n/a	GoodResponse	1	n/a	n/a	10	64	Blank	Win	True
610.923	1.45	Win2	0.7077	n/a	Yes	3.126	n/a	5.0	GoodResponse	1	0.02	609.943	10	64	Feedback	Win	True
612.377	3.126	Win2	0.7077	n/a	Yes	3.126	n/a	n/a	GoodResponse	1	0.0	n/a	10	64	ISIslide	Win	True
615.52	0.25	Control	0.7121	0.0	Yes	2.78	0.02	n/a	GoodResponse	0	n/a	n/a	10	65	Cue	Neutral	True
615.771	4.0	Control	0.7121	0.0	Yes	2.78	0.001	n/a	GoodResponse	0	n/a	n/a	10	65	Fixation	Neutral	True
619.766	0.31	Control	0.7121	0.004	Yes	2.78	-0.004	3.0	GoodResponse	0	0.212	618.978	10	65	Target	Neutral	True
619.978	0.3	Control	0.7121	0.004	Yes	2.78	-0.004	3.0	GoodResponse	0	0.212	n/a	10	65	ButtonPress	Neutral	True
620.083	0.39	Control	0.7121	n/a	Yes	2.78	n/a	n/a	GoodResponse	0	n/a	n/a	10	65	Blank	Neutral	True
620.468	1.45	Control	0.7121	n/a	Yes	2.78	n/a	5.0	GoodResponse	0	0.036	619.504	10	65	Feedback	Neutral	True
621.922	2.78	Control	0.7121	n/a	Yes	2.78	n/a	n/a	GoodResponse	0	0.0	n/a	10	65	ISIslide	Neutral	True
624.731	0.25	Win2	0.7164	0.0	Yes	2.769	0.031	n/a	GoodResponse	1	n/a	n/a	11	66	Cue	Win	True
624.981	3.9	Win2	0.7164	0.0	Yes	2.769	0.0	n/a	GoodResponse	1	n/a	n/a	11	66	Fixation	Win	True
628.893	0.3	Win2	0.7164	0.0	Yes	2.769	0.012	3.0	GoodResponse	1	0.231	628.124	11	66	Target	Win	True
629.124	0.3	Win2	0.7164	0.0	Yes	2.769	0.012	3.0	GoodResponse	1	0.231	n/a	11	66	ButtonPress	Win	True
629.177	0.4	Win2	0.7164	n/a	Yes	2.769	n/a	n/a	GoodResponse	1	n/a	n/a	11	66	Blank	Win	True
629.578	1.45	Win2	0.7164	n/a	Yes	2.769	n/a	5.0	GoodResponse	1	0.047	628.625	11	66	Feedback	Win	True
631.033	2.769	Win2	0.7164	n/a	Yes	2.769	n/a	n/a	GoodResponse	1	0.0	n/a	11	66	ISIslide	Win	True
633.824	0.25	Control	0.7206	0.001	Yes	2.726	0.024	n/a	GoodResponse	0	n/a	n/a	11	67	Cue	Neutral	True
634.075	3.95	Control	0.7206	0.0	Yes	2.726	0.001	n/a	GoodResponse	0	n/a	n/a	11	67	Fixation	Neutral	True
638.02	0.29	Control	0.7206	0.004	Yes	2.726	-0.004	3.0	GoodResponse	0	0.226	637.246	11	67	Target	Neutral	True
638.246	0.3	Control	0.7206	0.004	Yes	2.726	-0.004	3.0	GoodResponse	0	0.226	n/a	11	67	ButtonPress	Neutral	True
638.321	0.41	Control	0.7206	n/a	Yes	2.726	n/a	n/a	GoodResponse	0	n/a	n/a	11	67	Blank	Neutral	True
638.722	1.45	Control	0.7206	n/a	Yes	2.726	n/a	5.0	GoodResponse	0	0.025	637.747	11	67	Feedback	Neutral	True
640.177	2.726	Control	0.7206	n/a	Yes	2.726	n/a	n/a	GoodResponse	0	0.0	n/a	11	67	ISIslide	Neutral	True
642.918	0.25	Win2	0.7245999999999999	0.0	Yes	3.082	0.018	n/a	GoodResponse	1	n/a	n/a	12	68	Cue	Win	True
643.169	4.0	Win2	0.7245999999999999	0.0	Yes	3.082	0.001	n/a	GoodResponse	1	n/a	n/a	12	68	Fixation	Win	True
647.164	0.28	Win2	0.7245999999999999	0.004	Yes	3.082	-0.004	3.0	GoodResponse	1	0.221	646.385	12	68	Target	Win	True
647.385	0.3	Win2	0.7245999999999999	0.004	Yes	3.082	-0.004	3.0	GoodResponse	1	0.221	n/a	12	68	ButtonPress	Win	True
647.448	0.42	Win2	0.7245999999999999	n/a	Yes	3.082	n/a	n/a	GoodResponse	1	n/a	n/a	12	68	Blank	Win	True
647.866	1.45	Win2	0.7245999999999999	n/a	Yes	3.082	n/a	5.0	GoodResponse	1	0.007	646.873	12	68	Feedback	Win	True
649.321	3.082	Win2	0.7245999999999999	n/a	Yes	3.082	n/a	n/a	GoodResponse	1	0.0	n/a	12	68	ISIslide	Win	True
652.43	0.25	Win2	0.7286	0.0	Yes	3.22	0.03	n/a	GoodResponse	1	n/a	n/a	13	69	Cue	Win	True
652.681	3.95	Win2	0.7286	0.0	Yes	3.22	0.001	n/a	GoodResponse	1	n/a	n/a	13	69	Fixation	Win	True
656.626	0.27	Win2	0.7286	0.004	Yes	3.22	-0.004	3.0	GoodResponse	1	0.225	655.851	13	69	Target	Win	True
656.851	0.3	Win2	0.7286	0.004	Yes	3.22	-0.004	3.0	GoodResponse	1	0.225	n/a	13	69	ButtonPress	Win	True
656.91	0.43	Win2	0.7286	n/a	Yes	3.22	n/a	n/a	GoodResponse	1	n/a	n/a	13	69	Blank	Win	True
657.328	1.45	Win2	0.7286	n/a	Yes	3.22	n/a	5.0	GoodResponse	1	0.007	656.335	13	69	Feedback	Win	True
658.782	3.22	Win2	0.7286	n/a	Yes	3.22	n/a	n/a	GoodResponse	1	0.0	n/a	13	69	ISIslide	Win	True
662.025	0.25	Lose2	0.7323999999999999	0.0	Yes	3.025	0.025	n/a	GoodResponse	0	n/a	n/a	13	70	Cue	AvoidedLoss	True
662.276	4.05	Lose2	0.7323999999999999	0.0	Yes	3.025	0.001	n/a	GoodResponse	0	n/a	n/a	13	70	Fixation	AvoidedLoss	True
666.322	0.26	Lose2	0.7323999999999999	0.003	Yes	3.025	-0.003	3.0	GoodResponse	0	0.228	665.55	13	70	Target	AvoidedLoss	True
666.55	0.3	Lose2	0.7323999999999999	0.003	Yes	3.025	-0.003	3.0	GoodResponse	0	0.228	n/a	13	70	ButtonPress	AvoidedLoss	True
666.589	0.44	Lose2	0.7323999999999999	n/a	Yes	3.025	n/a	n/a	GoodResponse	0	n/a	n/a	13	70	Blank	AvoidedLoss	True
667.024	1.45	Lose2	0.7323999999999999	n/a	Yes	3.025	n/a	5.0	GoodResponse	0	0.015	666.039	13	70	Feedback	AvoidedLoss	True
668.478	3.025	Lose2	0.7323999999999999	n/a	Yes	3.025	n/a	n/a	GoodResponse	0	0.0	n/a	13	70	ISIslide	AvoidedLoss	True
671.52	0.25	Win2	0.7361	0.0	Yes	2.73	0.02	n/a	GoodResponse	1	n/a	n/a	14	71	Cue	Win	True
671.771	4.05	Win2	0.7361	0.0	Yes	2.73	0.001	n/a	GoodResponse	1	n/a	n/a	14	71	Fixation	Win	True
675.817	0.25	Win2	0.7361	0.003	Yes	2.73	-0.003	3.0	GoodResponse	1	0.226	675.043	14	71	Target	Win	True
676.043	0.3	Win2	0.7361	0.003	Yes	2.73	-0.003	3.0	GoodResponse	1	0.226	n/a	14	71	ButtonPress	Win	True
676.067	0.45	Win2	0.7361	n/a	Yes	2.73	n/a	n/a	GoodResponse	1	n/a	n/a	14	71	Blank	Win	True
676.519	1.45	Win2	0.7361	n/a	Yes	2.73	n/a	5.0	GoodResponse	1	0.032	675.551	14	71	Feedback	Win	True
677.973	2.73	Win2	0.7361	n/a	Yes	2.73	n/a	n/a	GoodResponse	1	0.0	n/a	14	71	ISIslide	Win	True
680.731	0.25	Win2	0.726	0.0	No	2.769	0.031	n/a	LatePress	0	n/a	n/a	14	72	Cue	MissedWin	True
680.982	4.1	Win2	0.726	0.0	No	2.769	0.001	n/a	LatePress	0	n/a	n/a	14	72	Fixation	MissedWin	True
685.078	0.24	Win2	0.726	0.003	No	2.769	-0.003	3.0	LatePress	0	0.244	684.322	14	72	Target	MissedWin	True
685.322	0.3	Win2	0.726	0.003	No	2.769	-0.003	3.0	LatePress	0	0.244	n/a	14	72	ButtonPress	MissedWin	True
685.328	0.46	Win2	0.726	n/a	No	2.769	n/a	n/a	LatePress	0	n/a	n/a	14	72	Blank	MissedWin	True
685.78	1.45	Win2	0.726	n/a	No	2.769	n/a	5.0	LatePress	0	0.04	684.82	14	72	Feedback	MissedWin	True
687.234	2.769	Win2	0.726	n/a	No	2.769	n/a	n/a	LatePress	0	0.0	n/a	14	72	ISIslide	MissedWin	True
690.026	0.25	Win2	0.7162000000000001	0.0	No	2.674	0.026	n/a	NoResponse	0	n/a	n/a	14	73	Cue	MissedWin	True
690.276	4.0	Win2	0.7162000000000001	0.0	No	2.674	0.0	n/a	NoResponse	0	n/a	n/a	14	73	Fixation	MissedWin	True
694.272	0.23	Win2	0.7162000000000001	0.004	No	2.674	-0.004	3.0	NoResponse	0	0.264	693.536	14	73	Target	MissedWin	True
694.506	0.47	Win2	0.7162000000000001	n/a	No	2.674	n/a	n/a	NoResponse	0	n/a	n/a	14	73	Blank	MissedWin	True
694.536	0.3	Win2	0.7162000000000001	0.004	No	2.674	-0.004	3.0	NoResponse	0	0.264	n/a	14	73	ButtonPress	MissedWin	True
694.974	1.45	Win2	0.7162000000000001	n/a	No	2.674	n/a	5.0	NoResponse	0	0.017	693.991	14	73	Feedback	MissedWin	True
696.428	2.674	Win2	0.7162000000000001	n/a	No	2.674	n/a	n/a	NoResponse	0	0.0	n/a	14	73	ISIslide	MissedWin	True
699.119	0.25	Lose2	0.7067	0.001	No	2.631	0.019	n/a	LatePress	-1	n/a	n/a	13	74	Cue	Loss	True
699.37	4.05	Lose2	0.7067	0.0	No	2.631	0.001	n/a	LatePress	-1	n/a	n/a	13	74	Fixation	Loss	True
703.416	0.22	Lose2	0.7067	0.003	No	2.631	-0.003	3.0	LatePress	-1	0.221	702.637	13	74	Target	Loss	True
703.637	0.3	Lose2	0.7067	0.003	No	2.631	-0.003	3.0	LatePress	-1	0.221	n/a	13	74	ButtonPress	Loss	True
703.65	0.48	Lose2	0.7067	n/a	No	2.631	n/a	n/a	LatePress	-1	n/a	n/a	13	74	Blank	Loss	True
704.118	1.45	Lose2	0.7067	n/a	No	2.631	n/a	5.0	LatePress	-1	0.042	703.16	13	74	Feedback	Loss	True
705.572	2.631	Lose2	0.7067	n/a	No	2.631	n/a	n/a	LatePress	-1	0.0	n/a	13	74	ISIslide	Loss	True
708.23	0.25	Lose2	0.7105	0.0	Yes	2.92	0.03	n/a	GoodResponse	0	n/a	n/a	13	75	Cue	AvoidedLoss	True
708.481	3.95	Lose2	0.7105	0.0	Yes	2.92	0.001	n/a	GoodResponse	0	n/a	n/a	13	75	Fixation	AvoidedLoss	True
712.426	0.21	Lose2	0.7105	0.004	Yes	2.92	-0.004	3.0	GoodResponse	0	0.206	711.632	13	75	Target	AvoidedLoss	True
712.632	0.3	Lose2	0.7105	0.004	Yes	2.92	-0.004	3.0	GoodResponse	0	0.206	n/a	13	75	ButtonPress	AvoidedLoss	True
712.643	0.49	Lose2	0.7105	n/a	Yes	2.92	n/a	n/a	GoodResponse	0	n/a	n/a	13	75	Blank	AvoidedLoss	True
713.128	1.45	Lose2	0.7105	n/a	Yes	2.92	n/a	5.0	GoodResponse	0	0.008	712.136	13	75	Feedback	AvoidedLoss	True
714.582	2.92	Lose2	0.7105	n/a	Yes	2.92	n/a	n/a	GoodResponse	0	0.0	n/a	13	75	ISIslide	AvoidedLoss	True
717.524	0.25	Control	0.7012999999999999	0.001	No	3.226	0.024	n/a	NoResponse	0	n/a	n/a	13	76	Cue	Neutral	True
717.775	4.05	Control	0.7012999999999999	0.0	No	3.226	0.001	n/a	NoResponse	0	n/a	n/a	13	76	Fixation	Neutral	True
721.821	0.2	Control	0.7012999999999999	0.003	No	3.226	-0.003	3.0	NoResponse	0	0.37	721.191	13	76	Target	Neutral	True
722.021	0.5	Control	0.7012999999999999	n/a	No	3.226	n/a	n/a	NoResponse	0	n/a	n/a	13	76	Blank	Neutral	True
722.191	0.3	Control	0.7012999999999999	0.003	No	3.226	-0.003	3.0	NoResponse	0	0.37	n/a	13	76	ButtonPress	Neutral	True
722.523	1.45	Control	0.7012999999999999	n/a	No	3.226	n/a	5.0	NoResponse	0	0.028	721.551	13	76	Feedback	Neutral	True
723.977	3.226	Control	0.7012999999999999	n/a	No	3.226	n/a	n/a	NoResponse	0	0.0	n/a	13	76	ISIslide	Neutral	True
727.22	0.25	Lose2	0.6923	0.0	No	2.58	0.02	n/a	NoResponse	-1	n/a	n/a	12	77	Cue	Loss	True
727.471	3.95	Lose2	0.6923	0.0	No	2.58	0.001	n/a	NoResponse	-1	n/a	n/a	12	77	Fixation	Loss	True
731.416	0.19	Lose2	0.6923	0.004	No	2.58	-0.004	3.0	NoResponse	-1	0.242	730.658	12	77	Target	Loss	True
731.617	0.51	Lose2	0.6923	n/a	No	2.58	n/a	n/a	NoResponse	-1	n/a	n/a	12	77	Blank	Loss	True
731.658	0.3	Lose2	0.6923	0.004	No	2.58	-0.004	3.0	NoResponse	-1	0.242	n/a	12	77	ButtonPress	Loss	True
732.118	1.45	Lose2	0.6923	n/a	No	2.58	n/a	5.0	NoResponse	-1	0.043	731.161	12	77	Feedback	Loss	True
733.572	2.58	Lose2	0.6923	n/a	No	2.58	n/a	n/a	NoResponse	-1	0.0	n/a	12	77	ISIslide	Loss	True
