onset	duration	cue_type	current_mean_accuracy	duration_error	is_hit	isi_adjusted	onset_delay	response	response_type	reward	rt	rt_time	total_reward	trial_number	trial_phase	trial_type	one_press
11.096	0.25	Control	1.0	0.0	Yes	2.954	-0.004	n/a	GoodResponse	0	n/a	n/a	0	0	Cue	Neutral	True
11.347	3.85	Control	1.0	0.0	Yes	2.954	0.001	n/a	GoodResponse	0	n/a	n/a	0	0	Fixation	Neutral	True
15.192	0.4	Control	1.0	0.004	Yes	2.954	-0.004	2.0	GoodResponse	0	0.194	14.386	0	0	Target	Neutral	True
15.386	0.3	Control	1.0	0.004	Yes	2.954	-0.004	2.0	GoodResponse	0	0.194	n/a	0	0	ButtonPress	Neutral	True
15.593	0.3	Control	1.0	n/a	Yes	2.954	n/a	n/a	GoodResponse	0	n/a	n/a	0	0	Blank	Neutral	True
15.894	1.45	Control	1.0	n/a	Yes	2.954	n/a	5.0	GoodResponse	0	0.032	14.926	0	0	Feedback	Neutral	True
17.348	2.954	Control	1.0	n/a	Yes	2.954	n/a	n/a	GoodResponse	0	0.0	n/a	0	0	ISIslide	Neutral	True
20.324	0.25	Lose2	1.0	0.0	Yes	2.776	0.024	n/a	GoodResponse	0	n/a	n/a	0	1	Cue	AvoidedLoss	True
20.574	4.0	Lose2	1.0	0.0	Yes	2.776	0.0	n/a	GoodResponse	0	n/a	n/a	0	1	Fixation	AvoidedLoss	True
24.57	0.39	Lose2	1.0	0.004	Yes	2.776	-0.004	2.0	GoodResponse	0	0.194	23.764	0	1	Target	AvoidedLoss	True
24.764	0.3	Lose2	1.0	0.004	Yes	2.776	-0.004	2.0	GoodResponse	0	0.194	n/a	0	1	ButtonPress	AvoidedLoss	True
24.971	0.31	Lose2	1.0	n/a	Yes	2.776	n/a	n/a	GoodResponse	0	n/a	n/a	0	1	Blank	AvoidedLoss	True
25.272	1.45	Lose2	1.0	n/a	Yes	2.776	n/a	5.0	GoodResponse	0	0.02	24.292	0	1	Feedback	AvoidedLoss	True
26.726	2.776	Lose2	1.0	n/a	Yes	2.776	n/a	n/a	GoodResponse	0	0.0	n/a	0	1	ISIslide	AvoidedLoss	True
29.518	0.25	Control	1.0	0.0	Yes	2.582	0.018	n/a	GoodResponse	0	n/a	n/a	0	2	Cue	Neutral	True
29.769	4.1	Control	1.0	0.0	Yes	2.582	0.001	n/a	GoodResponse	0	n/a	n/a	0	2	Fixation	Neutral	True
33.864	0.38	Control	1.0	0.004	Yes	2.582	-0.004	2.0	GoodResponse	0	0.219	33.083	0	2	Target	Neutral	True
34.083	0.3	Control	1.0	0.004	Yes	2.582	-0.004	2.0	GoodResponse	0	0.219	n/a	0	2	ButtonPress	Neutral	True
34.249	0.32	Control	1.0	n/a	Yes	2.582	n/a	n/a	GoodResponse	0	n/a	n/a	0	2	Blank	Neutral	True
34.566	1.45	Control	1.0	n/a	Yes	2.582	n/a	5.0	GoodResponse	0	0.042	33.608	0	2	Feedback	Neutral	True
36.021	2.582	Control	1.0	n/a	Yes	2.582	n/a	n/a	GoodResponse	0	0.0	n/a	0	2	ISIslide	Neutral	True
38.628	0.25	Win2	1.0	0.001	Yes	2.822	0.028	n/a	GoodResponse	1	n/a	n/a	1	3	Cue	Win	True
38.879	3.95	Win2	1.0	0.0	Yes	2.822	0.001	n/a	GoodResponse	1	n/a	n/a	1	3	Fixation	Win	True
42.824	0.37	Win2	1.0	0.004	Yes	2.822	-0.004	2.0	GoodResponse	1	0.22	42.044	1	3	Target	Win	True
43.044	0.3	Win2	1.0	0.004	Yes	2.822	-0.004	2.0	GoodResponse	1	0.22	n/a	1	3	ButtonPress	Win	True
43.209	0.33	Win2	1.0	n/a	Yes	2.822	n/a	n/a	GoodResponse	1	n/a	n/a	1	3	Blank	Win	True
43.526	1.45	Win2	1.0	n/a	Yes	2.822	n/a	5.0	GoodResponse	1	0.009	42.535	1	3	Feedback	Win	True
44.981	2.822	Win2	1.0	n/a	Yes	2.822	n/a	n/a	GoodResponse	1	0.0	n/a	1	3	ISIslide	Win	True
47.823	0.25	Win2	1.0	0.0	Yes	3.277	0.023	n/a	GoodResponse	1	n/a	n/a	2	4	Cue	Win	True
48.073	4.0	Win2	1.0	0.001	Yes	3.277	0.0	n/a	GoodResponse	1	n/a	n/a	2	4	Fixation	Win	True
52.069	0.36	Win2	1.0	0.004	Yes	3.277	-0.004	2.0	GoodResponse	1	0.193	51.262	2	4	Target	Win	True
52.262	0.3	Win2	1.0	0.004	Yes	3.277	-0.004	2.0	GoodResponse	1	0.193	n/a	2	4	ButtonPress	Win	True
52.437	0.34	Win2	1.0	n/a	Yes	3.277	n/a	n/a	GoodResponse	1	n/a	n/a	2	4	Blank	Win	True
52.771	1.45	Win2	1.0	n/a	Yes	3.277	n/a	5.0	GoodResponse	1	0.033	51.804	2	4	Feedback	Win	True
54.225	3.277	Win2	1.0	n/a	Yes	3.277	n/a	n/a	GoodResponse	1	0.0	n/a	2	4	ISIslide	Win	True
57.518	0.25	Win2	1.0	0.001	Yes	2.782	0.018	n/a	GoodResponse	1	n/a	n/a	3	5	Cue	Win	True
57.769	4.0	Win2	1.0	0.0	Yes	2.782	0.001	n/a	GoodResponse	1	n/a	n/a	3	5	Fixation	Win	True
61.764	0.35	Win2	1.0	0.004	Yes	2.782	-0.004	2.0	GoodResponse	1	0.222	60.986	3	5	Target	Win	True
61.986	0.3	Win2	1.0	0.004	Yes	2.782	-0.004	2.0	GoodResponse	1	0.222	n/a	3	5	ButtonPress	Win	True
62.116	0.35	Win2	1.0	n/a	Yes	2.782	n/a	n/a	GoodResponse	1	n/a	n/a	3	5	Blank	Win	True
62.467	1.45	Win2	1.0	n/a	Yes	2.782	n/a	5.0	GoodResponse	1	0.044	61.511	3	5	Feedback	Win	True
63.921	2.782	Win2	1.0	n/a	Yes	2.782	n/a	n/a	GoodResponse	1	0.0	n/a	3	5	ISIslide	Win	True
66.729	0.25	Lose2	1.0	0.0	Yes	2.721	0.029	n/a	GoodResponse	0	n/a	n/a	3	6	Cue	AvoidedLoss	True
66.98	3.95	Lose2	1.0	0.0	Yes	2.721	0.001	n/a	GoodResponse	0	n/a	n/a	3	6	Fixation	AvoidedLoss	True
70.925	0.34	Lose2	1.0	0.004	Yes	2.721	-0.004	2.0	GoodResponse	0	0.329	70.254	3	6	Target	AvoidedLoss	True
71.254	0.3	Lose2	1.0	0.004	Yes	2.721	-0.004	2.0	GoodResponse	0	0.329	n/a	3	6	ButtonPress	AvoidedLoss	True
71.276	0.36	Lose2	1.0	n/a	Yes	2.721	n/a	n/a	GoodResponse	0	n/a	n/a	3	6	Blank	AvoidedLoss	True
71.627	1.45	Lose2	1.0	n/a	Yes	2.721	n/a	5.0	GoodResponse	0	0.007	70.634	3	6	Feedback	AvoidedLoss	True
73.082	2.721	Lose2	1.0	n/a	Yes	2.721	n/a	n/a	GoodResponse	0	0.0	n/a	3	6	ISIslide	AvoidedLoss	True
75.823	0.25	Lose2	1.0	0.0	Yes	4.027	0.023	n/a	GoodResponse	0	n/a	n/a	3	7	Cue	AvoidedLoss	True
76.074	4.05	Lose2	1.0	0.0	Yes	4.027	0.001	n/a	GoodResponse	0	n/a	n/a	3	7	Fixation	AvoidedLoss	True
80.119	0.33	Lose2	1.0	0.004	Yes	4.027	-0.004	2.0	GoodResponse	0	0.186	79.305	3	7	Target	AvoidedLoss	True
80.305	0.3	Lose2	1.0	0.004	Yes	4.027	-0.004	2.0	GoodResponse	0	0.186	n/a	3	7	ButtonPress	AvoidedLoss	True
80.454	0.37	Lose2	1.0	n/a	Yes	4.027	n/a	n/a	GoodResponse	0	n/a	n/a	3	7	Blank	AvoidedLoss	True
80.822	1.45	Lose2	1.0	n/a	Yes	4.027	n/a	5.0	GoodResponse	0	0.031	79.853	3	7	Feedback	AvoidedLoss	True
82.276	4.027	Lose2	1.0	n/a	Yes	4.027	n/a	n/a	GoodResponse	0	0.0	n/a	3	7	ISIslide	AvoidedLoss	True
86.321	0.25	Lose2	0.8889	0.001	No	3.029	0.021	n/a	NoResponse	-1	n/a	n/a	2	8	Cue	Loss	True
86.572	3.95	Lose2	0.8889	0.0	No	3.029	0.001	2.0	NoResponse	-1	3.704	89.276	2	8	Fixation	Loss	True
90.276	0.3	Lose2	0.8889	0.0	No	3.029	0.001	2.0	NoResponse	-1	3.704	n/a	2	8	ButtonPress	Loss	True
90.517	0.32	Lose2	0.8889	0.004	No	3.029	-0.004	n/a	NoResponse	-1	n/a	n/a	2	8	Target	Loss	True
90.852	0.38	Lose2	0.8889	n/a	No	3.029	n/a	n/a	NoResponse	-1	n/a	n/a	2	8	Blank	Loss	True
91.219	1.45	Lose2	0.8889	n/a	No	3.029	n/a	5.0	NoResponse	-1	0.024	90.243	2	8	Feedback	Loss	True
92.674	3.029	Lose2	0.8889	n/a	No	3.029	n/a	n/a	NoResponse	-1	0.0	n/a	2	8	ISIslide	Loss	True
95.716	0.25	Lose2	0.9	0.0	Yes	3.134	0.016	n/a	GoodResponse	0	n/a	n/a	2	9	Cue	AvoidedLoss	True
95.967	3.95	Lose2	0.9	0.0	Yes	3.134	0.001	n/a	GoodResponse	0	n/a	n/a	2	9	Fixation	AvoidedLoss	True
99.912	0.31	Lose2	0.9	0.004	Yes	3.134	-0.004	2.0	GoodResponse	0	0.22	99.132	2	9	Target	AvoidedLoss	True
100.132	0.3	Lose2	0.9	0.004	Yes	3.134	-0.004	2.0	GoodResponse	0	0.22	n/a	2	9	ButtonPress	AvoidedLoss	True
100.23	0.39	Lose2	0.9	n/a	Yes	3.134	n/a	n/a	GoodResponse	0	n/a	n/a	2	9	Blank	AvoidedLoss	True
100.614	1.45	Lose2	0.9	n/a	Yes	3.134	n/a	5.0	GoodResponse	0	0.043	99.657	2	9	Feedback	AvoidedLoss	True
102.069	3.134	Lose2	0.9	n/a	Yes	3.134	n/a	n/a	GoodResponse	0	0.0	n/a	2	9	ISIslide	AvoidedLoss	True
105.228	0.25	Control	0.9091	0.0	Yes	3.272	0.028	n/a	GoodResponse	0	n/a	n/a	2	10	Cue	Neutral	True
105.479	4.0	Control	0.9091	0.0	Yes	3.272	0.001	n/a	GoodResponse	0	n/a	n/a	2	10	Fixation	Neutral	True
109.474	0.3	Control	0.9091	0.004	Yes	3.272	-0.004	2.0	GoodResponse	0	0.195	108.669	2	10	Target	Neutral	True
109.669	0.3	Control	0.9091	0.004	Yes	3.272	-0.004	2.0	GoodResponse	0	0.195	n/a	2	10	ButtonPress	Neutral	True
109.775	0.4	Control	0.9091	n/a	Yes	3.272	n/a	n/a	GoodResponse	0	n/a	n/a	2	10	Blank	Neutral	True
110.176	1.45	Control	0.9091	n/a	Yes	3.272	n/a	5.0	GoodResponse	0	0.042	109.218	2	10	Feedback	Neutral	True
111.631	3.272	Control	0.9091	n/a	Yes	3.272	n/a	n/a	GoodResponse	0	0.0	n/a	2	10	ISIslide	Neutral	True
114.924	0.25	Lose2	0.9167000000000001	0.0	Yes	2.726	0.024	n/a	GoodResponse	0	n/a	n/a	2	11	Cue	AvoidedLoss	True
115.174	4.05	Lose2	0.9167000000000001	0.001	Yes	2.726	0.0	n/a	GoodResponse	0	n/a	n/a	2	11	Fixation	AvoidedLoss	True
119.22	0.29	Lose2	0.9167000000000001	0.004	Yes	2.726	-0.004	2.0	GoodResponse	0	0.213	118.433	2	11	Target	AvoidedLoss	True
119.433	0.3	Lose2	0.9167000000000001	0.004	Yes	2.726	-0.004	2.0	GoodResponse	0	0.213	n/a	2	11	ButtonPress	AvoidedLoss	True
119.521	0.41	Lose2	0.9167000000000001	n/a	Yes	2.726	n/a	n/a	GoodResponse	0	n/a	n/a	2	11	Blank	AvoidedLoss	True
119.922	1.45	Lose2	0.9167000000000001	n/a	Yes	2.726	n/a	5.0	GoodResponse	0	0.007	118.929	2	11	Feedback	AvoidedLoss	True
121.376	2.726	Lose2	0.9167000000000001	n/a	Yes	2.726	n/a	n/a	GoodResponse	0	0.0	n/a	2	11	ISIslide	AvoidedLoss	True
124.118	0.25	Control	0.9231	0.0	Yes	2.982	0.018	n/a	GoodResponse	0	n/a	n/a	2	12	Cue	Neutral	True
124.369	3.9	Control	0.9231	0.0	Yes	2.982	0.001	n/a	GoodResponse	0	n/a	n/a	2	12	Fixation	Neutral	True
128.264	0.28	Control	0.9231	0.004	Yes	2.982	-0.004	2.0	GoodResponse	0	0.221	127.485	2	12	Target	Neutral	True
128.485	0.3	Control	0.9231	0.004	Yes	2.982	-0.004	2.0	GoodResponse	0	0.221	n/a	2	12	ButtonPress	Neutral	True
128.548	0.42	Control	0.9231	n/a	Yes	2.982	n/a	n/a	GoodResponse	0	n/a	n/a	2	12	Blank	Neutral	True
128.966	1.45	Control	0.9231	n/a	Yes	2.982	n/a	5.0	GoodResponse	0	0.033	127.999	2	12	Feedback	Neutral	True
130.42	2.982	Control	0.9231	n/a	Yes	2.982	n/a	n/a	GoodResponse	0	0.0	n/a	2	12	ISIslide	Neutral	True
133.429	0.25	Control	0.9286	0.0	Yes	2.771	0.029	n/a	GoodResponse	0	n/a	n/a	2	13	Cue	Neutral	True
133.68	4.0	Control	0.9286	0.0	Yes	2.771	0.001	n/a	GoodResponse	0	n/a	n/a	2	13	Fixation	Neutral	True
137.675	0.27	Control	0.9286	0.004	Yes	2.771	-0.004	2.0	GoodResponse	0	0.232	136.907	2	13	Target	Neutral	True
137.907	0.3	Control	0.9286	0.004	Yes	2.771	-0.004	2.0	GoodResponse	0	0.232	n/a	2	13	ButtonPress	Neutral	True
137.959	0.43	Control	0.9286	n/a	Yes	2.771	n/a	n/a	GoodResponse	0	n/a	n/a	2	13	Blank	Neutral	True
138.377	1.45	Control	0.9286	n/a	Yes	2.771	n/a	5.0	GoodResponse	0	0.036	137.413	2	13	Feedback	Neutral	True
139.832	2.771	Control	0.9286	n/a	Yes	2.771	n/a	n/a	GoodResponse	0	0.0	n/a	2	13	ISIslide	Neutral	True
142.623	0.25	Win2	0.8667	0.0	No	2.677	0.023	n/a	NoResponse	0	n/a	n/a	2	14	Cue	MissedWin	True
142.874	4.1	Win2	0.8667	0.0	No	2.677	0.001	2.0	NoResponse	0	3.774	145.648	2	14	Fixation	MissedWin	True
146.648	0.3	Win2	0.8667	0.0	No	2.677	0.001	2.0	NoResponse	0	3.774	n/a	2	14	ButtonPress	MissedWin	True
146.97	0.26	Win2	0.8667	0.003	No	2.677	-0.003	n/a	NoResponse	0	n/a	n/a	2	14	Target	MissedWin	True
147.237	0.44	Win2	0.8667	n/a	No	2.677	n/a	n/a	NoResponse	0	n/a	n/a	2	14	Blank	MissedWin	True
147.672	1.45	Win2	0.8667	n/a	No	2.677	n/a	5.0	NoResponse	0	0.01	146.682	2	14	Feedback	MissedWin	True
149.126	2.677	Win2	0.8667	n/a	No	2.677	n/a	n/a	NoResponse	0	0.0	n/a	2	14	ISIslide	MissedWin	True
151.818	0.25	Control	0.875	0.0	Yes	2.982	0.018	n/a	GoodResponse	0	n/a	n/a	2	15	Cue	Neutral	True
152.068	4.0	Control	0.875	0.0	Yes	2.982	0.0	n/a	GoodResponse	0	n/a	n/a	2	15	Fixation	Neutral	True
156.064	0.25	Control	0.875	0.004	Yes	2.982	-0.004	2.0	GoodResponse	0	0.22	155.284	2	15	Target	Neutral	True
156.284	0.3	Control	0.875	0.004	Yes	2.982	-0.004	2.0	GoodResponse	0	0.22	n/a	2	15	ButtonPress	Neutral	True
156.314	0.45	Control	0.875	n/a	Yes	2.982	n/a	n/a	GoodResponse	0	n/a	n/a	2	15	Blank	Neutral	True
156.766	1.45	Control	0.875	n/a	Yes	2.982	n/a	5.0	GoodResponse	0	0.037	155.803	2	15	Feedback	Neutral	True
158.22	2.982	Control	0.875	n/a	Yes	2.982	n/a	n/a	GoodResponse	0	0.0	n/a	2	15	ISIslide	Neutral	True
161.229	0.25	Win2	0.8234999999999999	0.0	No	2.871	0.029	n/a	NoResponse	0	n/a	n/a	2	16	Cue	MissedWin	True
161.48	4.0	Win2	0.8234999999999999	0.0	No	2.871	0.001	n/a	NoResponse	0	n/a	n/a	2	16	Fixation	MissedWin	True
165.475	0.24	Win2	0.8234999999999999	0.004	No	2.871	-0.004	2.0	NoResponse	0	0.298	164.773	2	16	Target	MissedWin	True
165.726	0.46	Win2	0.8234999999999999	n/a	No	2.871	n/a	n/a	NoResponse	0	n/a	n/a	2	16	Blank	MissedWin	True
165.773	0.3	Win2	0.8234999999999999	0.004	No	2.871	-0.004	2.0	NoResponse	0	0.298	n/a	2	16	ButtonPress	MissedWin	True
166.177	1.45	Win2	0.8234999999999999	n/a	No	2.871	n/a	5.0	NoResponse	0	0.041	165.218	2	16	Feedback	MissedWin	True
167.632	2.871	Win2	0.8234999999999999	n/a	No	2.871	n/a	n/a	NoResponse	0	0.0	n/a	2	16	ISIslide	MissedWin	True
170.524	0.25	Lose2	0.7778	0.0	No	2.726	0.024	n/a	NoResponse	-1	n/a	n/a	1	17	Cue	Loss	True
170.774	3.95	Lose2	0.7778	0.001	No	2.726	0.0	n/a	NoResponse	-1	n/a	n/a	1	17	Fixation	Loss	True
174.72	0.23	Lose2	0.7778	0.004	No	2.726	-0.004	2.0	NoResponse	-1	0.294	174.014	1	17	Target	Loss	True
174.954	0.47	Lose2	0.7778	n/a	No	2.726	n/a	n/a	NoResponse	-1	n/a	n/a	1	17	Blank	Loss	True
175.014	0.3	Lose2	0.7778	0.004	No	2.726	-0.004	2.0	NoResponse	-1	0.294	n/a	1	17	ButtonPress	Loss	True
175.422	1.45	Lose2	0.7778	n/a	No	2.726	n/a	5.0	NoResponse	-1	0.015	174.437	1	17	Feedback	Loss	True
176.876	2.726	Lose2	0.7778	n/a	No	2.726	n/a	n/a	NoResponse	-1	0.0	n/a	1	17	ISIslide	Loss	True
179.618	0.25	Lose2	0.7895	0.0	Yes	2.732	0.018	n/a	GoodResponse	0	n/a	n/a	1	18	Cue	AvoidedLoss	True
179.868	4.05	Lose2	0.7895	0.0	Yes	2.732	0.0	n/a	GoodResponse	0	n/a	n/a	1	18	Fixation	AvoidedLoss	True
183.914	0.22	Lose2	0.7895	0.004	Yes	2.732	-0.004	2.0	GoodResponse	0	0.207	183.121	1	18	Target	AvoidedLoss	True
184.121	0.3	Lose2	0.7895	0.004	Yes	2.732	-0.004	2.0	GoodResponse	0	0.207	n/a	1	18	ButtonPress	AvoidedLoss	True
184.148	0.48	Lose2	0.7895	n/a	Yes	2.732	n/a	n/a	GoodResponse	0	n/a	n/a	1	18	Blank	AvoidedLoss	True
184.616	1.45	Lose2	0.7895	n/a	Yes	2.732	n/a	5.0	GoodResponse	0	0.041	183.657	1	18	Feedback	AvoidedLoss	True
186.07	2.732	Lose2	0.7895	n/a	Yes	2.732	n/a	n/a	GoodResponse	0	0.0	n/a	1	18	ISIslide	AvoidedLoss	True
188.829	0.25	Control	0.8	0.0	Yes	2.921	0.029	n/a	GoodResponse	0	n/a	n/a	1	19	Cue	Neutral	False
189.079	3.95	Control	0.8	0.0	Yes	2.921	0.0	2.0	GoodResponse	0	3.193	191.272	1	19	Fixation	Neutral	False
192.272	0.3	Control	0.8	0.0	Yes	2.921	0.0	2.0	GoodResponse	0	3.193	n/a	1	19	ButtonPress	Neutral	False
193.041	0.21	Control	0.8	0.0	Yes	2.921	0.012	2.0	GoodResponse	0	0.194	192.235	1	19	Target	Neutral	False
193.235	0.3	Control	0.8	0.0	Yes	2.921	0.012	2.0	GoodResponse	0	0.194	n/a	1	19	ButtonPress	Neutral	False
193.242	0.49	Control	0.8	n/a	Yes	2.921	n/a	n/a	GoodResponse	0	n/a	n/a	1	19	Blank	Neutral	False
193.727	1.45	Control	0.8	n/a	Yes	2.921	n/a	5.0	GoodResponse	0	0.007	192.734	1	19	Feedback	Neutral	False
195.181	2.921	Control	0.8	n/a	Yes	2.921	n/a	n/a	GoodResponse	0	0.0	n/a	1	19	ISIslide	Neutral	False
198.123	0.25	Control	0.7619	0.0	No	2.627	0.023	n/a	NoResponse	0	n/a	n/a	1	20	Cue	Neutral	True
198.374	4.05	Control	0.7619	0.0	No	2.627	0.001	n/a	NoResponse	0	n/a	n/a	1	20	Fixation	Neutral	True
202.419	0.2	Control	0.7619	0.004	No	2.627	-0.004	2.0	NoResponse	0	0.212	201.631	1	20	Target	Neutral	True
202.62	0.5	Control	0.7619	n/a	No	2.627	n/a	n/a	NoResponse	0	n/a	n/a	1	20	Blank	Neutral	True
202.631	0.3	Control	0.7619	0.004	No	2.627	-0.004	2.0	NoResponse	0	0.212	n/a	1	20	ButtonPress	Neutral	True
203.121	1.45	Control	0.7619	n/a	No	2.627	n/a	5.0	NoResponse	0	0.024	202.145	1	20	Feedback	Neutral	True
204.576	2.627	Control	0.7619	n/a	No	2.627	n/a	n/a	NoResponse	0	0.0	n/a	1	20	ISIslide	Neutral	True
207.217	0.25	Control	0.7273000000000001	0.0	No	2.783	0.017	n/a	NoResponse	0	n/a	n/a	1	21	Cue	Neutral	True
207.468	4.1	Control	0.7273000000000001	0.0	No	2.783	0.001	n/a	NoResponse	0	n/a	n/a	1	21	Fixation	Neutral	True
211.563	0.19	Control	0.7273000000000001	0.004	No	2.783	-0.004	2.0	NoResponse	0	0.238	210.801	1	21	Target	Neutral	True
211.764	0.51	Control	0.7273000000000001	n/a	No	2.783	n/a	n/a	NoResponse	0	n/a	n/a	1	21	Blank	Neutral	True
211.801	0.3	Control	0.7273000000000001	0.004	No	2.783	-0.004	2.0	NoResponse	0	0.238	n/a	1	21	ButtonPress	Neutral	True
212.265	1.45	Control	0.7273000000000001	n/a	No	2.783	n/a	5.0	NoResponse	0	0.001	211.266	1	21	Feedback	Neutral	True
213.72	2.783	Control	0.7273000000000001	n/a	No	2.783	n/a	n/a	NoResponse	0	0.0	n/a	1	21	ISIslide	Neutral	True
216.528	0.25	Control	0.6957	0.0	No	2.772	0.028	n/a	NoResponse	0	n/a	n/a	1	22	Cue	Neutral	True
216.779	4.0	Control	0.6957	0.0	No	2.772	0.001	n/a	NoResponse	0	n/a	n/a	1	22	Fixation	Neutral	True
220.774	0.18	Control	0.6957	0.004	No	2.772	-0.004	2.0	NoResponse	0	0.193	219.967	1	22	Target	Neutral	True
220.958	0.52	Control	0.6957	n/a	No	2.772	n/a	n/a	NoResponse	0	n/a	n/a	1	22	Blank	Neutral	True
220.967	0.3	Control	0.6957	0.004	No	2.772	-0.004	2.0	NoResponse	0	0.193	n/a	1	22	ButtonPress	Neutral	True
221.476	1.45	Control	0.6957	n/a	No	2.772	n/a	5.0	NoResponse	0	0.01	220.486	1	22	Feedback	Neutral	True
222.931	2.772	Control	0.6957	n/a	No	2.772	n/a	n/a	NoResponse	0	0.0	n/a	1	22	ISIslide	Neutral	True
225.722	0.25	Control	0.6667000000000001	0.0	No	2.778	0.022	n/a	NoResponse	0	n/a	n/a	1	23	Cue	Neutral	True
225.973	3.9	Control	0.6667000000000001	0.0	No	2.778	0.001	n/a	NoResponse	0	n/a	n/a	1	23	Fixation	Neutral	True
229.868	0.17	Control	0.6667000000000001	0.004	No	2.778	-0.004	2.0	NoResponse	0	0.385	229.253	1	23	Target	Neutral	True
230.052	0.53	Control	0.6667000000000001	n/a	No	2.778	n/a	n/a	NoResponse	0	n/a	n/a	1	23	Blank	Neutral	True
230.253	0.3	Control	0.6667000000000001	0.004	No	2.778	-0.004	2.0	NoResponse	0	0.385	n/a	1	23	ButtonPress	Neutral	True
230.57	1.45	Control	0.6667000000000001	n/a	No	2.778	n/a	5.0	NoResponse	0	0.038	229.608	1	23	Feedback	Neutral	True
232.025	2.778	Control	0.6667000000000001	n/a	No	2.778	n/a	n/a	NoResponse	0	0.0	n/a	1	23	ISIslide	Neutral	True
234.816	0.25	Win2	0.64	0.0	No	3.134	0.016	n/a	NoResponse	0	n/a	n/a	1	24	Cue	MissedWin	True
235.067	3.95	Win2	0.64	0.0	No	3.134	0.001	n/a	NoResponse	0	n/a	n/a	1	24	Fixation	MissedWin	True
239.012	0.16	Win2	0.64	0.004	No	3.134	-0.004	2.0	NoResponse	0	0.213	238.225	1	24	Target	MissedWin	True
239.179	0.54	Win2	0.64	n/a	No	3.134	n/a	n/a	NoResponse	0	n/a	n/a	1	24	Blank	MissedWin	True
239.225	0.3	Win2	0.64	0.004	No	3.134	-0.004	2.0	NoResponse	0	0.213	n/a	1	24	ButtonPress	MissedWin	True
239.714	1.45	Win2	0.64	n/a	No	3.134	n/a	5.0	NoResponse	0	0.016	238.73	1	24	Feedback	MissedWin	True
241.169	3.134	Win2	0.64	n/a	No	3.134	n/a	n/a	NoResponse	0	0.0	n/a	1	24	ISIslide	MissedWin	True
244.328	0.25	Win2	0.6154	0.0	No	3.072	0.028	n/a	NoResponse	0	n/a	n/a	1	25	Cue	MissedWin	True
244.579	4.0	Win2	0.6154	0.0	No	3.072	0.001	n/a	NoResponse	0	n/a	n/a	1	25	Fixation	MissedWin	True
248.574	0.17	Win2	0.6154	0.004	No	3.072	-0.004	2.0	NoResponse	0	0.212	247.786	1	25	Target	MissedWin	True
248.758	0.53	Win2	0.6154	n/a	No	3.072	n/a	n/a	NoResponse	0	n/a	n/a	1	25	Blank	MissedWin	True
248.786	0.3	Win2	0.6154	0.004	No	3.072	-0.004	2.0	NoResponse	0	0.212	n/a	1	25	ButtonPress	MissedWin	True
249.276	1.45	Win2	0.6154	n/a	No	3.072	n/a	5.0	NoResponse	0	0.015	248.291	1	25	Feedback	MissedWin	True
250.731	3.072	Win2	0.6154	n/a	No	3.072	n/a	n/a	NoResponse	0	0.0	n/a	1	25	ISIslide	MissedWin	True
253.823	0.25	Win2	0.6296	0.0	Yes	2.927	0.023	n/a	GoodResponse	1	n/a	n/a	2	26	Cue	Win	True
254.074	3.95	Win2	0.6296	0.0	Yes	2.927	0.001	n/a	GoodResponse	1	n/a	n/a	2	26	Fixation	Win	True
258.019	0.18	Win2	0.6296	0.004	Yes	2.927	-0.004	2.0	GoodResponse	1	0.174	257.193	2	26	Target	Win	True
258.193	0.3	Win2	0.6296	0.004	Yes	2.927	-0.004	2.0	GoodResponse	1	0.174	n/a	2	26	ButtonPress	Win	True
258.203	0.52	Win2	0.6296	n/a	Yes	2.927	n/a	n/a	GoodResponse	1	n/a	n/a	2	26	Blank	Win	True
258.721	1.45	Win2	0.6296	n/a	Yes	2.927	n/a	5.0	GoodResponse	1	0.033	257.754	2	26	Feedback	Win	True
260.176	2.927	Win2	0.6296	n/a	Yes	2.927	n/a	n/a	GoodResponse	1	0.0	n/a	2	26	ISIslide	Win	True
263.118	0.25	Lose2	0.6071	0.0	No	2.832	0.018	n/a	LatePress	-1	n/a	n/a	1	27	Cue	Loss	False
263.369	4.05	Lose2	0.6071	0.0	No	2.832	0.001	2.0	LatePress	-1	3.268	265.637	1	27	Fixation	Loss	False
266.637	0.3	Lose2	0.6071	0.0	No	2.832	0.001	2.0	LatePress	-1	3.268	n/a	1	27	ButtonPress	Loss	False
267.414	0.19	Lose2	0.6071	0.004	No	2.832	-0.004	2.0	LatePress	-1	0.192	266.606	1	27	Target	Loss	False
267.606	0.3	Lose2	0.6071	0.004	No	2.832	-0.004	2.0	LatePress	-1	0.192	n/a	1	27	ButtonPress	Loss	False
267.615	0.51	Lose2	0.6071	n/a	No	2.832	n/a	n/a	LatePress	-1	n/a	n/a	1	27	Blank	Loss	False
268.116	1.45	Lose2	0.6071	n/a	No	2.832	n/a	5.0	LatePress	-1	0.007	267.123	1	27	Feedback	Loss	False
269.57	2.832	Lose2	0.6071	n/a	No	2.832	n/a	n/a	LatePress	-1	0.0	n/a	1	27	ISIslide	Loss	False
272.429	0.25	Control	0.5861999999999999	0.0	No	2.821	0.029	n/a	NoResponse	0	n/a	n/a	1	28	Cue	Neutral	True
272.68	4.05	Control	0.5861999999999999	0.0	No	2.821	0.001	n/a	NoResponse	0	n/a	n/a	1	28	Fixation	Neutral	True
276.725	0.2	Control	0.5861999999999999	0.004	No	2.821	-0.004	2.0	NoResponse	0	0.234	275.959	1	28	Target	Neutral	True
276.926	0.5	Control	0.5861999999999999	n/a	No	2.821	n/a	n/a	NoResponse	0	n/a	n/a	1	28	Blank	Neutral	True
276.959	0.3	Control	0.5861999999999999	0.004	No	2.821	-0.004	2.0	NoResponse	0	0.234	n/a	1	28	ButtonPress	Neutral	True
277.427	1.45	Control	0.5861999999999999	n/a	No	2.821	n/a	5.0	NoResponse	0	0.009	276.436	1	28	Feedback	Neutral	True
278.882	2.821	Control	0.5861999999999999	n/a	No	2.821	n/a	n/a	NoResponse	0	0.0	n/a	1	28	ISIslide	Neutral	True
281.724	0.25	Lose2	0.5667	0.0	No	2.826	0.024	n/a	NoResponse	-1	n/a	n/a	0	29	Cue	Loss	True
281.974	3.95	Lose2	0.5667	0.0	No	2.826	0.0	n/a	NoResponse	-1	n/a	n/a	0	29	Fixation	Loss	True
285.919	0.21	Lose2	0.5667	0.005	No	2.826	-0.005	2.0	NoResponse	-1	0.229	285.148	0	29	Target	Loss	True
286.137	0.49	Lose2	0.5667	n/a	No	2.826	n/a	n/a	NoResponse	-1	n/a	n/a	0	29	Blank	Loss	True
286.148	0.3	Lose2	0.5667	0.005	No	2.826	-0.005	2.0	NoResponse	-1	0.229	n/a	0	29	ButtonPress	Loss	True
286.622	1.45	Lose2	0.5667	n/a	No	2.826	n/a	5.0	NoResponse	-1	0.034	285.656	0	29	Feedback	Loss	True
288.076	2.826	Lose2	0.5667	n/a	No	2.826	n/a	n/a	NoResponse	-1	0.0	n/a	0	29	ISIslide	Loss	True
290.918	0.25	Win2	0.5806	0.0	Yes	2.782	0.018	n/a	GoodResponse	1	n/a	n/a	1	30	Cue	Win	True
291.169	3.9	Win2	0.5806	0.0	Yes	2.782	0.001	n/a	GoodResponse	1	n/a	n/a	1	30	Fixation	Win	True
295.064	0.22	Win2	0.5806	0.004	Yes	2.782	-0.004	2.0	GoodResponse	1	0.196	294.26	1	30	Target	Win	True
295.26	0.3	Win2	0.5806	0.004	Yes	2.782	-0.004	2.0	GoodResponse	1	0.196	n/a	1	30	ButtonPress	Win	True
295.298	0.48	Win2	0.5806	n/a	Yes	2.782	n/a	n/a	GoodResponse	1	n/a	n/a	1	30	Blank	Win	True
295.766	1.45	Win2	0.5806	n/a	Yes	2.782	n/a	5.0	GoodResponse	1	0.012	294.778	1	30	Feedback	Win	True
297.22	2.782	Win2	0.5806	n/a	Yes	2.782	n/a	n/a	GoodResponse	1	0.0	n/a	1	30	ISIslide	Win	True
300.028	0.25	Lose2	0.5625	0.001	No	2.822	0.028	n/a	NoResponse	-1	n/a	n/a	0	31	Cue	Loss	True
300.279	4.05	Lose2	0.5625	0.0	No	2.822	0.001	n/a	NoResponse	-1	n/a	n/a	0	31	Fixation	Loss	True
304.325	0.23	Lose2	0.5625	0.003	No	2.822	-0.003	2.0	NoResponse	-1	0.244	303.569	0	31	Target	Loss	True
304.559	0.47	Lose2	0.5625	n/a	No	2.822	n/a	n/a	NoResponse	-1	n/a	n/a	0	31	Blank	Loss	True
304.569	0.3	Lose2	0.5625	0.003	No	2.822	-0.003	2.0	NoResponse	-1	0.244	n/a	0	31	ButtonPress	Loss	True
305.027	1.45	Lose2	0.5625	n/a	No	2.822	n/a	5.0	NoResponse	-1	0.02	304.047	0	31	Feedback	Loss	True
306.481	2.822	Lose2	0.5625	n/a	No	2.822	n/a	2.0	NoResponse	-1	1.971	n/a	0	31	ISIslide	Loss	True
309.306	0.25	Lose2	0.5758	0.0	Yes	2.644	0.006	n/a	GoodResponse	0	n/a	n/a	0	32	Cue	AvoidedLoss	True
309.557	4.15	Lose2	0.5758	0.0	Yes	2.644	0.001	n/a	GoodResponse	0	n/a	n/a	0	32	Fixation	AvoidedLoss	True
313.703	0.24	Lose2	0.5758	0.003	Yes	2.644	-0.003	2.0	GoodResponse	0	0.174	312.877	0	32	Target	AvoidedLoss	True
313.877	0.3	Lose2	0.5758	0.003	Yes	2.644	-0.003	2.0	GoodResponse	0	0.174	n/a	0	32	ButtonPress	AvoidedLoss	True
313.953	0.46	Lose2	0.5758	n/a	Yes	2.644	n/a	n/a	GoodResponse	0	n/a	n/a	0	32	Blank	AvoidedLoss	True
314.405	1.45	Lose2	0.5758	n/a	Yes	2.644	n/a	5.0	GoodResponse	0	0.007	313.412	0	32	Feedback	AvoidedLoss	True
315.859	2.644	Lose2	0.5758	n/a	Yes	2.644	n/a	n/a	GoodResponse	0	0.0	n/a	0	32	ISIslide	AvoidedLoss	True
318.517	0.25	Win2	0.5882000000000001	0.0	Yes	2.683	0.017	n/a	GoodResponse	1	n/a	n/a	1	33	Cue	Win	True
318.768	4.0	Win2	0.5882000000000001	0.0	Yes	2.683	0.001	n/a	GoodResponse	1	n/a	n/a	1	33	Fixation	Win	True
322.763	0.25	Win2	0.5882000000000001	0.004	Yes	2.683	-0.004	2.0	GoodResponse	1	0.181	321.944	1	33	Target	Win	True
322.944	0.3	Win2	0.5882000000000001	0.004	Yes	2.683	-0.004	2.0	GoodResponse	1	0.181	n/a	1	33	ButtonPress	Win	True
323.014	0.45	Win2	0.5882000000000001	n/a	Yes	2.683	n/a	n/a	GoodResponse	1	n/a	n/a	1	33	Blank	Win	True
323.465	1.45	Win2	0.5882000000000001	n/a	Yes	2.683	n/a	5.0	GoodResponse	1	0.021	322.486	1	33	Feedback	Win	True
324.92	2.683	Win2	0.5882000000000001	n/a	Yes	2.683	n/a	n/a	GoodResponse	1	0.0	n/a	1	33	ISIslide	Win	True
327.628	0.25	Lose2	0.6	0.0	Yes	2.622	0.028	n/a	GoodResponse	0	n/a	n/a	1	34	Cue	AvoidedLoss	True
327.879	4.05	Lose2	0.6	0.0	Yes	2.622	0.001	n/a	GoodResponse	0	n/a	n/a	1	34	Fixation	AvoidedLoss	True
331.924	0.26	Lose2	0.6	0.004	Yes	2.622	-0.004	2.0	GoodResponse	0	0.183	331.107	1	34	Target	AvoidedLoss	True
332.107	0.3	Lose2	0.6	0.004	Yes	2.622	-0.004	2.0	GoodResponse	0	0.183	n/a	1	34	ButtonPress	AvoidedLoss	True
332.191	0.44	Lose2	0.6	n/a	Yes	2.622	n/a	n/a	GoodResponse	0	n/a	n/a	1	34	Blank	AvoidedLoss	True
332.626	1.45	Lose2	0.6	n/a	Yes	2.622	n/a	5.0	GoodResponse	0	0.03	331.656	1	34	Feedback	AvoidedLoss	True
334.08	2.622	Lose2	0.6	n/a	Yes	2.622	n/a	n/a	GoodResponse	0	0.0	n/a	1	34	ISIslide	AvoidedLoss	True
336.722	0.25	Lose2	0.6111	0.0	Yes	2.678	0.022	n/a	GoodResponse	0	n/a	n/a	1	35	Cue	AvoidedLoss	True
336.972	4.0	Lose2	0.6111	0.001	Yes	2.678	0.0	n/a	GoodResponse	0	n/a	n/a	1	35	Fixation	AvoidedLoss	True
340.968	0.27	Lose2	0.6111	0.004	Yes	2.678	-0.004	2.0	GoodResponse	0	0.225	340.193	1	35	Target	AvoidedLoss	True
341.193	0.3	Lose2	0.6111	0.004	Yes	2.678	-0.004	2.0	GoodResponse	0	0.225	n/a	1	35	ButtonPress	AvoidedLoss	True
341.252	0.43	Lose2	0.6111	n/a	Yes	2.678	n/a	n/a	GoodResponse	0	n/a	n/a	1	35	Blank	AvoidedLoss	True
341.67	1.45	Lose2	0.6111	n/a	Yes	2.678	n/a	5.0	GoodResponse	0	0.01	340.68	1	35	Feedback	AvoidedLoss	True
343.124	2.678	Lose2	0.6111	n/a	Yes	2.678	n/a	n/a	GoodResponse	0	0.0	n/a	1	35	ISIslide	AvoidedLoss	True
345.816	0.25	Control	0.5946	0.0	No	2.684	0.016	n/a	LatePress	0	n/a	n/a	1	36	Cue	Neutral	False
346.066	4.0	Control	0.5946	0.0	No	2.684	0.0	2.0	LatePress	0	3.769	348.835	1	36	Fixation	Neutral	False
349.835	0.3	Control	0.5946	0.0	No	2.684	0.0	2.0	LatePress	0	3.769	n/a	1	36	ButtonPress	Neutral	False
350.062	0.28	Control	0.5946	0.004	No	2.684	-0.004	2.0	LatePress	0	0.281	349.343	1	36	Target	Neutral	False
350.343	0.3	Control	0.5946	0.004	No	2.684	-0.004	2.0	LatePress	0	0.281	n/a	1	36	ButtonPress	Neutral	False
350.346	0.42	Control	0.5946	n/a	No	2.684	n/a	n/a	LatePress	0	n/a	n/a	1	36	Blank	Neutral	False
350.764	1.45	Control	0.5946	n/a	No	2.684	n/a	5.0	LatePress	0	0.038	349.802	1	36	Feedback	Neutral	False
352.218	2.684	Control	0.5946	n/a	No	2.684	n/a	n/a	LatePress	0	0.0	n/a	1	36	ISIslide	Neutral	False
354.926	0.25	Win2	0.6053000000000001	0.0	Yes	2.874	0.026	n/a	GoodResponse	1	n/a	n/a	2	37	Cue	Win	True
355.177	4.0	Win2	0.6053000000000001	0.0	Yes	2.874	0.001	n/a	GoodResponse	1	n/a	n/a	2	37	Fixation	Win	True
359.172	0.29	Win2	0.6053000000000001	0.004	Yes	2.874	-0.004	2.0	GoodResponse	1	0.194	358.366	2	37	Target	Win	True
359.366	0.3	Win2	0.6053000000000001	0.004	Yes	2.874	-0.004	2.0	GoodResponse	1	0.194	n/a	2	37	ButtonPress	Win	True
359.473	0.41	Win2	0.6053000000000001	n/a	Yes	2.874	n/a	n/a	GoodResponse	1	n/a	n/a	2	37	Blank	Win	True
359.874	1.45	Win2	0.6053000000000001	n/a	Yes	2.874	n/a	5.0	GoodResponse	1	0.001	358.875	2	37	Feedback	Win	True
361.329	2.874	Win2	0.6053000000000001	n/a	Yes	2.874	n/a	n/a	GoodResponse	1	0.0	n/a	2	37	ISIslide	Win	True
364.221	0.25	Lose2	0.6154	0.0	Yes	2.829	0.021	n/a	GoodResponse	0	n/a	n/a	2	38	Cue	AvoidedLoss	True
364.471	3.95	Lose2	0.6154	0.001	Yes	2.829	0.0	n/a	GoodResponse	0	n/a	n/a	2	38	Fixation	AvoidedLoss	True
368.417	0.3	Lose2	0.6154	0.004	Yes	2.829	-0.004	2.0	GoodResponse	0	0.265	367.682	2	38	Target	AvoidedLoss	True
368.682	0.3	Lose2	0.6154	0.004	Yes	2.829	-0.004	2.0	GoodResponse	0	0.265	n/a	2	38	ButtonPress	AvoidedLoss	True
368.718	0.4	Lose2	0.6154	n/a	Yes	2.829	n/a	n/a	GoodResponse	0	n/a	n/a	2	38	Blank	AvoidedLoss	True
369.119	1.45	Lose2	0.6154	n/a	Yes	2.829	n/a	5.0	GoodResponse	0	0.025	368.144	2	38	Feedback	AvoidedLoss	True
370.573	2.829	Lose2	0.6154	n/a	Yes	2.829	n/a	n/a	GoodResponse	0	0.0	n/a	2	38	ISIslide	AvoidedLoss	True
373.415	0.25	Win2	0.625	0.0	Yes	2.985	0.015	n/a	GoodResponse	1	n/a	n/a	3	39	Cue	Win	True
373.666	4.1	Win2	0.625	0.0	Yes	2.985	0.001	n/a	GoodResponse	1	n/a	n/a	3	39	Fixation	Win	True
377.761	0.31	Win2	0.625	0.004	Yes	2.985	-0.004	2.0	GoodResponse	1	0.219	376.98	3	39	Target	Win	True
377.98	0.3	Win2	0.625	0.004	Yes	2.985	-0.004	2.0	GoodResponse	1	0.219	n/a	3	39	ButtonPress	Win	True
378.079	0.39	Win2	0.625	n/a	Yes	2.985	n/a	n/a	GoodResponse	1	n/a	n/a	3	39	Blank	Win	True
378.463	1.45	Win2	0.625	n/a	Yes	2.985	n/a	5.0	GoodResponse	1	0.047	377.51	3	39	Feedback	Win	True
379.918	2.985	Win2	0.625	n/a	Yes	2.985	n/a	n/a	GoodResponse	1	0.0	n/a	3	39	ISIslide	Win	True
382.927	0.25	Win2	0.6098	0.0	No	2.723	0.027	n/a	NoResponse	0	n/a	n/a	3	40	Cue	MissedWin	True
383.178	3.95	Win2	0.6098	0.0	No	2.723	0.001	n/a	NoResponse	0	n/a	n/a	3	40	Fixation	MissedWin	True
387.123	0.32	Win2	0.6098	0.004	No	2.723	-0.004	2.0	NoResponse	0	0.34	386.463	3	40	Target	MissedWin	True
387.457	0.38	Win2	0.6098	n/a	No	2.723	n/a	n/a	NoResponse	0	n/a	n/a	3	40	Blank	MissedWin	True
387.463	0.3	Win2	0.6098	0.004	No	2.723	-0.004	2.0	NoResponse	0	0.34	n/a	3	40	ButtonPress	MissedWin	True
387.825	1.45	Win2	0.6098	n/a	No	2.723	n/a	5.0	NoResponse	0	0.002	386.827	3	40	Feedback	MissedWin	True
389.279	2.723	Win2	0.6098	n/a	No	2.723	n/a	n/a	NoResponse	0	0.0	n/a	3	40	ISIslide	MissedWin	True
392.021	0.25	Win2	0.619	0.0	Yes	2.779	0.021	n/a	GoodResponse	1	n/a	n/a	4	41	Cue	Win	True
392.271	3.9	Win2	0.619	0.001	Yes	2.779	0.0	n/a	GoodResponse	1	n/a	n/a	4	41	Fixation	Win	True
396.183	0.33	Win2	0.619	0.0	Yes	2.779	0.012	2.0	GoodResponse	1	0.276	395.459	4	41	Target	Win	True
396.459	0.3	Win2	0.619	0.0	Yes	2.779	0.012	2.0	GoodResponse	1	0.276	n/a	4	41	ButtonPress	Win	True
396.501	0.37	Win2	0.619	n/a	Yes	2.779	n/a	n/a	GoodResponse	1	n/a	n/a	4	41	Blank	Win	True
396.869	1.45	Win2	0.619	n/a	Yes	2.779	n/a	5.0	GoodResponse	1	0.03	395.899	4	41	Feedback	Win	True
398.323	2.779	Win2	0.619	n/a	Yes	2.779	n/a	n/a	GoodResponse	1	0.0	n/a	4	41	ISIslide	Win	True
401.115	0.25	Control	0.6279	0.0	Yes	2.935	0.015	n/a	GoodResponse	0	n/a	n/a	4	42	Cue	Neutral	True
401.365	3.85	Control	0.6279	0.0	Yes	2.935	0.0	n/a	GoodResponse	0	n/a	n/a	4	42	Fixation	Neutral	True
405.227	0.34	Control	0.6279	0.0	Yes	2.935	0.012	2.0	GoodResponse	0	0.202	404.429	4	42	Target	Neutral	True
405.429	0.3	Control	0.6279	0.0	Yes	2.935	0.012	2.0	GoodResponse	0	0.202	n/a	4	42	ButtonPress	Neutral	True
405.561	0.36	Control	0.6279	n/a	Yes	2.935	n/a	n/a	GoodResponse	0	n/a	n/a	4	42	Blank	Neutral	True
405.912	1.45	Control	0.6279	n/a	Yes	2.935	n/a	5.0	GoodResponse	0	0.012	404.924	4	42	Feedback	Neutral	True
407.367	2.935	Control	0.6279	n/a	Yes	2.935	n/a	n/a	GoodResponse	0	0.0	n/a	4	42	ISIslide	Neutral	True
410.326	0.25	Win2	0.6364	0.0	Yes	3.174	0.026	n/a	GoodResponse	1	n/a	n/a	5	43	Cue	Win	True
410.576	4.0	Win2	0.6364	0.0	Yes	3.174	0.0	n/a	GoodResponse	1	n/a	n/a	5	43	Fixation	Win	True
414.572	0.35	Win2	0.6364	0.004	Yes	3.174	-0.004	2.0	GoodResponse	1	0.313	413.885	5	43	Target	Win	True
414.885	0.3	Win2	0.6364	0.004	Yes	3.174	-0.004	2.0	GoodResponse	1	0.313	n/a	5	43	ButtonPress	Win	True
414.923	0.35	Win2	0.6364	n/a	Yes	3.174	n/a	n/a	GoodResponse	1	n/a	n/a	5	43	Blank	Win	True
415.274	1.45	Win2	0.6364	n/a	Yes	3.174	n/a	5.0	GoodResponse	1	0.016	414.29	5	43	Feedback	Win	True
416.728	3.174	Win2	0.6364	n/a	Yes	3.174	n/a	n/a	GoodResponse	1	0.0	n/a	5	43	ISIslide	Win	True
419.921	0.25	Win2	0.6444	0.0	Yes	2.979	0.021	n/a	GoodResponse	1	n/a	n/a	6	44	Cue	Win	True
420.172	4.0	Win2	0.6444	0.0	Yes	2.979	0.001	n/a	GoodResponse	1	n/a	n/a	6	44	Fixation	Win	True
424.167	0.36	Win2	0.6444	0.004	Yes	2.979	-0.004	2.0	GoodResponse	1	0.204	423.371	6	44	Target	Win	True
424.371	0.3	Win2	0.6444	0.004	Yes	2.979	-0.004	2.0	GoodResponse	1	0.204	n/a	6	44	ButtonPress	Win	True
424.535	0.34	Win2	0.6444	n/a	Yes	2.979	n/a	n/a	GoodResponse	1	n/a	n/a	6	44	Blank	Win	True
424.869	1.45	Win2	0.6444	n/a	Yes	2.979	n/a	5.0	GoodResponse	1	0.03	423.899	6	44	Feedback	Win	True
426.323	2.979	Win2	0.6444	n/a	Yes	2.979	n/a	n/a	GoodResponse	1	0.0	n/a	6	44	ISIslide	Win	True
429.316	0.25	Control	0.6522	0.0	Yes	2.884	0.016	n/a	GoodResponse	0	n/a	n/a	6	45	Cue	Neutral	False
429.567	4.1	Control	0.6522	0.0	Yes	2.884	0.001	2.0	GoodResponse	0	3.086	431.653	6	45	Fixation	Neutral	False
432.653	0.3	Control	0.6522	0.0	Yes	2.884	0.001	2.0	GoodResponse	0	3.086	n/a	6	45	ButtonPress	Neutral	False
433.662	0.37	Control	0.6522	0.004	Yes	2.884	-0.004	2.0	GoodResponse	0	0.16	432.822	6	45	Target	Neutral	False
433.822	0.3	Control	0.6522	0.004	Yes	2.884	-0.004	2.0	GoodResponse	0	0.16	n/a	6	45	ButtonPress	Neutral	False
434.047	0.33	Control	0.6522	n/a	Yes	2.884	n/a	n/a	GoodResponse	0	n/a	n/a	6	45	Blank	Neutral	False
434.364	1.45	Control	0.6522	n/a	Yes	2.884	n/a	5.0	GoodResponse	0	0.048	433.412	6	45	Feedback	Neutral	False
435.819	2.884	Control	0.6522	n/a	Yes	2.884	n/a	n/a	GoodResponse	0	0.0	n/a	6	45	ISIslide	Neutral	False
438.727	0.25	Lose2	0.6596	0.0	Yes	3.373	0.027	n/a	GoodResponse	0	n/a	n/a	6	46	Cue	AvoidedLoss	True
438.978	4.0	Lose2	0.6596	0.0	Yes	3.373	0.001	n/a	GoodResponse	0	n/a	n/a	6	46	Fixation	AvoidedLoss	True
442.973	0.38	Lose2	0.6596	0.004	Yes	3.373	-0.004	2.0	GoodResponse	0	0.247	442.22	6	46	Target	AvoidedLoss	True
443.22	0.3	Lose2	0.6596	0.004	Yes	3.373	-0.004	2.0	GoodResponse	0	0.247	n/a	6	46	ButtonPress	AvoidedLoss	True
443.358	0.32	Lose2	0.6596	n/a	Yes	3.373	n/a	n/a	GoodResponse	0	n/a	n/a	6	46	Blank	AvoidedLoss	True
443.675	1.45	Lose2	0.6596	n/a	Yes	3.373	n/a	5.0	GoodResponse	0	0.005	442.68	6	46	Feedback	AvoidedLoss	True
445.13	3.373	Lose2	0.6596	n/a	Yes	3.373	n/a	n/a	GoodResponse	0	0.0	n/a	6	46	ISIslide	AvoidedLoss	True
448.523	0.25	Lose2	0.6667000000000001	0.0	Yes	2.677	0.023	n/a	GoodResponse	0	n/a	n/a	6	47	Cue	AvoidedLoss	True
448.774	4.0	Lose2	0.6667000000000001	0.0	Yes	2.677	0.001	n/a	GoodResponse	0	n/a	n/a	6	47	Fixation	AvoidedLoss	True
452.769	0.38	Lose2	0.6667000000000001	0.004	Yes	2.677	-0.004	2.0	GoodResponse	0	0.214	451.983	6	47	Target	AvoidedLoss	True
452.983	0.3	Lose2	0.6667000000000001	0.004	Yes	2.677	-0.004	2.0	GoodResponse	0	0.214	n/a	6	47	ButtonPress	AvoidedLoss	True
453.154	0.32	Lose2	0.6667000000000001	n/a	Yes	2.677	n/a	n/a	GoodResponse	0	n/a	n/a	6	47	Blank	AvoidedLoss	True
453.472	1.45	Lose2	0.6667000000000001	n/a	Yes	2.677	n/a	5.0	GoodResponse	0	0.012	452.484	6	47	Feedback	AvoidedLoss	True
454.926	2.677	Lose2	0.6667000000000001	n/a	Yes	2.677	n/a	n/a	GoodResponse	0	0.0	n/a	6	47	ISIslide	AvoidedLoss	True
457.617	0.25	Lose2	0.6735	0.0	Yes	3.033	0.017	n/a	GoodResponse	0	n/a	n/a	6	48	Cue	AvoidedLoss	True
457.868	3.95	Lose2	0.6735	0.0	Yes	3.033	0.001	n/a	GoodResponse	0	n/a	n/a	6	48	Fixation	AvoidedLoss	True
461.813	0.37	Lose2	0.6735	0.004	Yes	3.033	-0.004	2.0	GoodResponse	0	0.221	461.034	6	48	Target	AvoidedLoss	True
462.034	0.3	Lose2	0.6735	0.004	Yes	3.033	-0.004	2.0	GoodResponse	0	0.221	n/a	6	48	ButtonPress	AvoidedLoss	True
462.198	0.33	Lose2	0.6735	n/a	Yes	3.033	n/a	n/a	GoodResponse	0	n/a	n/a	6	48	Blank	AvoidedLoss	True
462.515	1.45	Lose2	0.6735	n/a	Yes	3.033	n/a	5.0	GoodResponse	0	0.043	461.558	6	48	Feedback	AvoidedLoss	True
463.97	3.033	Lose2	0.6735	n/a	Yes	3.033	n/a	n/a	GoodResponse	0	0.0	n/a	6	48	ISIslide	AvoidedLoss	True
467.029	0.25	Control	0.68	0.0	Yes	2.871	0.029	n/a	GoodResponse	0	n/a	n/a	6	49	Cue	Neutral	True
467.28	4.0	Control	0.68	0.0	Yes	2.871	0.001	n/a	GoodResponse	0	n/a	n/a	6	49	Fixation	Neutral	True
471.275	0.36	Control	0.68	0.004	Yes	2.871	-0.004	2.0	GoodResponse	0	0.272	470.547	6	49	Target	Neutral	True
471.547	0.3	Control	0.68	0.004	Yes	2.871	-0.004	2.0	GoodResponse	0	0.272	n/a	6	49	ButtonPress	Neutral	True
471.643	0.34	Control	0.68	n/a	Yes	2.871	n/a	n/a	GoodResponse	0	n/a	n/a	6	49	Blank	Neutral	True
471.977	1.45	Control	0.68	n/a	Yes	2.871	n/a	5.0	GoodResponse	0	0.044	471.021	6	49	Feedback	Neutral	True
473.431	2.871	Control	0.68	n/a	Yes	2.871	n/a	n/a	GoodResponse	0	0.0	n/a	6	49	ISIslide	Neutral	True
476.323	0.25	Control	0.6862999999999999	0.0	Yes	2.777	0.023	n/a	GoodResponse	0	n/a	n/a	6	50	Cue	Neutral	True
476.574	4.0	Control	0.6862999999999999	0.0	Yes	2.777	0.001	n/a	GoodResponse	0	n/a	n/a	6	50	Fixation	Neutral	True
480.569	0.35	Control	0.6862999999999999	0.004	Yes	2.777	-0.004	2.0	GoodResponse	0	0.192	479.761	6	50	Target	Neutral	True
480.761	0.3	Control	0.6862999999999999	0.004	Yes	2.777	-0.004	2.0	GoodResponse	0	0.192	n/a	6	50	ButtonPress	Neutral	True
480.92	0.35	Control	0.6862999999999999	n/a	Yes	2.777	n/a	n/a	GoodResponse	0	n/a	n/a	6	50	Blank	Neutral	True
481.271	1.45	Control	0.6862999999999999	n/a	Yes	2.777	n/a	5.0	GoodResponse	0	0.018	480.289	6	50	Feedback	Neutral	True
482.726	2.777	Control	0.6862999999999999	n/a	Yes	2.777	n/a	n/a	GoodResponse	0	0.0	n/a	6	50	ISIslide	Neutral	True
485.518	0.25	Control	0.6731	0.0	No	2.732	0.018	n/a	NoResponse	0	n/a	n/a	6	51	Cue	Neutral	False
485.768	3.95	Control	0.6731	0.0	No	2.732	0.0	n/a	NoResponse	0	n/a	n/a	6	51	Fixation	Neutral	False
489.73	0.34	Control	0.6731	0.0	No	2.732	0.012	2.0	NoResponse	0	0.691	489.421	6	51	Target	Neutral	False
490.064	0.36	Control	0.6731	n/a	No	2.732	n/a	n/a	NoResponse	0	n/a	n/a	6	51	Blank	Neutral	False
490.416	1.45	Control	0.6731	n/a	No	2.732	n/a	2.0	NoResponse	0	0.005	489.421	6	51	Feedback	Neutral	False
490.421	0.3	Control	0.6731	0.0	No	2.732	0.012	2.0	NoResponse	0	0.691	n/a	6	51	ButtonPress	Neutral	False
490.421	0.3	Control	0.6731	n/a	No	2.732	n/a	2.0	NoResponse	0	0.005	n/a	6	51	ButtonPress	Neutral	False
491.87	2.732	Control	0.6731	n/a	No	2.732	n/a	n/a	NoResponse	0	0.0	n/a	6	51	ISIslide	Neutral	False
494.628	0.25	Control	0.6792	0.0	Yes	2.622	0.028	n/a	GoodResponse	0	n/a	n/a	6	52	Cue	Neutral	True
494.879	4.05	Control	0.6792	0.0	Yes	2.622	0.001	n/a	GoodResponse	0	n/a	n/a	6	52	Fixation	Neutral	True
498.924	0.33	Control	0.6792	0.004	Yes	2.622	-0.004	2.0	GoodResponse	0	0.304	498.228	6	52	Target	Neutral	True
499.228	0.3	Control	0.6792	0.004	Yes	2.622	-0.004	2.0	GoodResponse	0	0.304	n/a	6	52	ButtonPress	Neutral	True
499.259	0.37	Control	0.6792	n/a	Yes	2.622	n/a	n/a	GoodResponse	0	n/a	n/a	6	52	Blank	Neutral	True
499.626	1.45	Control	0.6792	n/a	Yes	2.622	n/a	5.0	GoodResponse	0	0.005	498.631	6	52	Feedback	Neutral	True
501.081	2.622	Control	0.6792	n/a	Yes	2.622	n/a	n/a	GoodResponse	0	0.0	n/a	6	52	ISIslide	Neutral	True
503.722	0.25	Win2	0.6667000000000001	0.0	No	2.928	0.022	n/a	NoResponse	0	n/a	n/a	6	53	Cue	MissedWin	True
503.973	4.05	Win2	0.6667000000000001	0.0	No	2.928	0.001	n/a	NoResponse	0	n/a	n/a	6	53	Fixation	MissedWin	True
508.018	0.32	Win2	0.6667000000000001	0.004	No	2.928	-0.004	2.0	NoResponse	0	0.517	507.535	6	53	Target	MissedWin	True
508.353	0.38	Win2	0.6667000000000001	n/a	No	2.928	n/a	n/a	NoResponse	0	n/a	n/a	6	53	Blank	MissedWin	True
508.535	0.3	Win2	0.6667000000000001	0.004	No	2.928	-0.004	2.0	NoResponse	0	0.517	n/a	6	53	ButtonPress	MissedWin	True
508.72	1.45	Win2	0.6667000000000001	n/a	No	2.928	n/a	5.0	NoResponse	0	0.033	507.753	6	53	Feedback	MissedWin	True
510.175	2.928	Win2	0.6667000000000001	n/a	No	2.928	n/a	n/a	NoResponse	0	0.0	n/a	6	53	ISIslide	MissedWin	True
513.117	0.25	Win2	0.6727	0.0	Yes	2.733	0.017	n/a	GoodResponse	1	n/a	n/a	7	54	Cue	Win	True
513.368	3.95	Win2	0.6727	0.0	Yes	2.733	0.001	n/a	GoodResponse	1	n/a	n/a	7	54	Fixation	Win	True
517.313	0.31	Win2	0.6727	0.004	Yes	2.733	-0.004	2.0	GoodResponse	1	0.253	516.566	7	54	Target	Win	True
517.566	0.3	Win2	0.6727	0.004	Yes	2.733	-0.004	2.0	GoodResponse	1	0.253	n/a	7	54	ButtonPress	Win	True
517.63	0.39	Win2	0.6727	n/a	Yes	2.733	n/a	n/a	GoodResponse	1	n/a	n/a	7	54	Blank	Win	True
518.015	1.45	Win2	0.6727	n/a	Yes	2.733	n/a	5.0	GoodResponse	1	0.006	517.021	7	54	Feedback	Win	True
519.469	2.733	Win2	0.6727	n/a	Yes	2.733	n/a	n/a	GoodResponse	1	0.0	n/a	7	54	ISIslide	Win	True
522.228	0.25	Control	0.6786	0.0	Yes	3.022	0.028	n/a	GoodResponse	0	n/a	n/a	7	55	Cue	Neutral	True
522.478	3.95	Control	0.6786	0.0	Yes	3.022	0.0	n/a	GoodResponse	0	n/a	n/a	7	55	Fixation	Neutral	True
526.44	0.3	Control	0.6786	0.0	Yes	3.022	0.012	2.0	GoodResponse	0	0.243	525.683	7	55	Target	Neutral	True
526.683	0.3	Control	0.6786	0.0	Yes	3.022	0.012	2.0	GoodResponse	0	0.243	n/a	7	55	ButtonPress	Neutral	True
526.724	0.4	Control	0.6786	n/a	Yes	3.022	n/a	n/a	GoodResponse	0	n/a	n/a	7	55	Blank	Neutral	True
527.126	1.45	Control	0.6786	n/a	Yes	3.022	n/a	5.0	GoodResponse	0	0.017	526.143	7	55	Feedback	Neutral	True
528.58	3.022	Control	0.6786	n/a	Yes	3.022	n/a	n/a	GoodResponse	0	0.0	n/a	7	55	ISIslide	Neutral	True
531.622	0.25	Control	0.6842	0.0	Yes	2.828	0.022	n/a	GoodResponse	0	n/a	n/a	7	56	Cue	Neutral	False
531.873	3.95	Control	0.6842	0.0	Yes	2.828	0.001	2.0	GoodResponse	0	2.068	532.941	7	56	Fixation	Neutral	False
533.941	0.3	Control	0.6842	0.0	Yes	2.828	0.001	2.0	GoodResponse	0	2.068	n/a	7	56	ButtonPress	Neutral	False
535.818	0.29	Control	0.6842	0.004	Yes	2.828	-0.004	2.0	GoodResponse	0	0.173	534.991	7	56	Target	Neutral	False
535.991	0.3	Control	0.6842	0.004	Yes	2.828	-0.004	2.0	GoodResponse	0	0.173	n/a	7	56	ButtonPress	Neutral	False
536.119	0.41	Control	0.6842	n/a	Yes	2.828	n/a	n/a	GoodResponse	0	n/a	n/a	7	56	Blank	Neutral	False
536.52	1.45	Control	0.6842	n/a	Yes	2.828	n/a	5.0	GoodResponse	0	0.037	535.557	7	56	Feedback	Neutral	False
537.975	2.828	Control	0.6842	n/a	Yes	2.828	n/a	n/a	GoodResponse	0	0.0	n/a	7	56	ISIslide	Neutral	False
540.817	0.25	Control	0.6897	0.0	Yes	3.483	0.017	n/a	GoodResponse	0	n/a	n/a	7	57	Cue	Neutral	True
541.067	4.0	Control	0.6897	0.0	Yes	3.483	0.0	n/a	GoodResponse	0	n/a	n/a	7	57	Fixation	Neutral	True
545.063	0.28	Control	0.6897	0.004	Yes	3.483	-0.004	2.0	GoodResponse	0	0.279	544.342	7	57	Target	Neutral	True
545.342	0.3	Control	0.6897	0.004	Yes	3.483	-0.004	2.0	GoodResponse	0	0.279	n/a	7	57	ButtonPress	Neutral	True
545.347	0.42	Control	0.6897	n/a	Yes	3.483	n/a	n/a	GoodResponse	0	n/a	n/a	7	57	Blank	Neutral	True
545.765	1.45	Control	0.6897	n/a	Yes	3.483	n/a	5.0	GoodResponse	0	0.012	544.777	7	57	Feedback	Neutral	True
547.219	3.483	Control	0.6897	n/a	Yes	3.483	n/a	n/a	GoodResponse	0	0.0	n/a	7	57	ISIslide	Neutral	True
550.73	0.25	Win2	0.6949	0.0	Yes	2.72	0.03	n/a	GoodResponse	1	n/a	n/a	8	58	Cue	Win	True
550.98	4.05	Win2	0.6949	0.0	Yes	2.72	0.0	n/a	GoodResponse	1	n/a	n/a	8	58	Fixation	Win	True
555.026	0.27	Win2	0.6949	0.004	Yes	2.72	-0.004	2.0	GoodResponse	1	0.213	554.239	8	58	Target	Win	True
555.239	0.3	Win2	0.6949	0.004	Yes	2.72	-0.004	2.0	GoodResponse	1	0.213	n/a	8	58	ButtonPress	Win	True
555.31	0.43	Win2	0.6949	n/a	Yes	2.72	n/a	n/a	GoodResponse	1	n/a	n/a	8	58	Blank	Win	True
555.728	1.45	Win2	0.6949	n/a	Yes	2.72	n/a	5.0	GoodResponse	1	0.049	554.777	8	58	Feedback	Win	True
557.182	2.72	Win2	0.6949	n/a	Yes	2.72	n/a	n/a	GoodResponse	1	0.0	n/a	8	58	ISIslide	Win	True
559.924	0.25	Lose2	0.7	0.0	Yes	2.676	0.024	n/a	GoodResponse	0	n/a	n/a	8	59	Cue	AvoidedLoss	True
560.175	4.0	Lose2	0.7	0.0	Yes	2.676	0.001	n/a	GoodResponse	0	n/a	n/a	8	59	Fixation	AvoidedLoss	True
564.17	0.26	Lose2	0.7	0.004	Yes	2.676	-0.004	2.0	GoodResponse	0	0.184	563.354	8	59	Target	AvoidedLoss	True
564.354	0.3	Lose2	0.7	0.004	Yes	2.676	-0.004	2.0	GoodResponse	0	0.184	n/a	8	59	ButtonPress	AvoidedLoss	True
564.437	0.44	Lose2	0.7	n/a	Yes	2.676	n/a	n/a	GoodResponse	0	n/a	n/a	8	59	Blank	AvoidedLoss	True
564.872	1.45	Lose2	0.7	n/a	Yes	2.676	n/a	5.0	GoodResponse	0	0.027	563.899	8	59	Feedback	AvoidedLoss	True
566.326	2.676	Lose2	0.7	n/a	Yes	2.676	n/a	n/a	GoodResponse	0	0.0	n/a	8	59	ISIslide	AvoidedLoss	True
569.018	0.25	Control	0.6884999999999999	0.0	No	2.682	0.018	n/a	NoResponse	0	n/a	n/a	8	60	Cue	Neutral	True
569.268	4.0	Control	0.6884999999999999	0.001	No	2.682	0.0	n/a	NoResponse	0	n/a	n/a	8	60	Fixation	Neutral	True
573.264	0.25	Control	0.6884999999999999	0.004	No	2.682	-0.004	2.0	NoResponse	0	0.374	572.638	8	60	Target	Neutral	True
573.515	0.45	Control	0.6884999999999999	n/a	No	2.682	n/a	n/a	NoResponse	0	n/a	n/a	8	60	Blank	Neutral	True
573.638	0.3	Control	0.6884999999999999	0.004	No	2.682	-0.004	2.0	NoResponse	0	0.374	n/a	8	60	ButtonPress	Neutral	True
573.966	1.45	Control	0.6884999999999999	n/a	No	2.682	n/a	5.0	NoResponse	0	0.005	572.971	8	60	Feedback	Neutral	True
575.42	2.682	Control	0.6884999999999999	n/a	No	2.682	n/a	n/a	NoResponse	0	0.0	n/a	8	60	ISIslide	Neutral	True
578.128	0.25	Lose2	0.6934999999999999	0.0	Yes	2.972	0.028	n/a	GoodResponse	0	n/a	n/a	8	61	Cue	AvoidedLoss	True
578.379	4.0	Lose2	0.6934999999999999	0.0	Yes	2.972	0.001	n/a	GoodResponse	0	n/a	n/a	8	61	Fixation	AvoidedLoss	True
582.374	0.24	Lose2	0.6934999999999999	0.004	Yes	2.972	-0.004	2.0	GoodResponse	0	0.194	581.568	8	61	Target	AvoidedLoss	True
582.568	0.3	Lose2	0.6934999999999999	0.004	Yes	2.972	-0.004	2.0	GoodResponse	0	0.194	n/a	8	61	ButtonPress	AvoidedLoss	True
582.625	0.46	Lose2	0.6934999999999999	n/a	Yes	2.972	n/a	n/a	GoodResponse	0	n/a	n/a	8	61	Blank	AvoidedLoss	True
583.077	1.45	Lose2	0.6934999999999999	n/a	Yes	2.972	n/a	5.0	GoodResponse	0	0.016	582.093	8	61	Feedback	AvoidedLoss	True
584.531	2.972	Lose2	0.6934999999999999	n/a	Yes	2.972	n/a	n/a	GoodResponse	0	0.0	n/a	8	61	ISIslide	AvoidedLoss	True
587.523	0.25	Lose2	0.6984	0.0	Yes	2.877	0.023	n/a	GoodResponse	0	n/a	n/a	8	62	Cue	AvoidedLoss	True
587.774	3.9	Lose2	0.6984	0.0	Yes	2.877	0.001	n/a	GoodResponse	0	n/a	n/a	8	62	Fixation	AvoidedLoss	True
591.669	0.23	Lose2	0.6984	0.004	Yes	2.877	-0.004	2.0	GoodResponse	0	0.208	590.877	8	62	Target	AvoidedLoss	True
591.877	0.3	Lose2	0.6984	0.004	Yes	2.877	-0.004	2.0	GoodResponse	0	0.208	n/a	8	62	ButtonPress	AvoidedLoss	True
591.903	0.47	Lose2	0.6984	n/a	Yes	2.877	n/a	n/a	GoodResponse	0	n/a	n/a	8	62	Blank	AvoidedLoss	True
592.371	1.45	Lose2	0.6984	n/a	Yes	2.877	n/a	5.0	GoodResponse	0	0.04	591.411	8	62	Feedback	AvoidedLoss	True
593.825	2.877	Lose2	0.6984	n/a	Yes	2.877	n/a	n/a	GoodResponse	0	0.0	n/a	8	62	ISIslide	AvoidedLoss	True
596.717	0.25	Lose2	0.6875	0.0	No	2.633	0.017	n/a	NoResponse	-1	n/a	n/a	7	63	Cue	Loss	True
596.968	4.05	Lose2	0.6875	0.0	No	2.633	0.001	n/a	NoResponse	-1	n/a	n/a	7	63	Fixation	Loss	True
601.014	0.22	Lose2	0.6875	0.003	No	2.633	-0.003	2.0	NoResponse	-1	0.251	600.265	7	63	Target	Loss	True
601.248	0.48	Lose2	0.6875	n/a	No	2.633	n/a	n/a	NoResponse	-1	n/a	n/a	7	63	Blank	Loss	True
601.265	0.3	Lose2	0.6875	0.003	No	2.633	-0.003	2.0	NoResponse	-1	0.251	n/a	7	63	ButtonPress	Loss	True
601.716	1.45	Lose2	0.6875	n/a	No	2.633	n/a	5.0	NoResponse	-1	0.012	600.728	7	63	Feedback	Loss	True
603.17	2.633	Lose2	0.6875	n/a	No	2.633	n/a	n/a	NoResponse	-1	0.0	n/a	7	63	ISIslide	Loss	True
605.828	0.25	Win2	0.6769	0.0	No	3.122	0.028	n/a	NoResponse	0	n/a	n/a	7	64	Cue	MissedWin	False
606.079	4.15	Win2	0.6769	0.0	No	3.122	0.001	2.0	NoResponse	0	0.252	605.331	7	64	Fixation	MissedWin	False
606.331	0.3	Win2	0.6769	0.0	No	3.122	0.001	2.0	NoResponse	0	0.252	n/a	7	64	ButtonPress	MissedWin	False
610.225	0.21	Win2	0.6769	0.003	No	3.122	-0.003	2.0	NoResponse	0	0.218	609.443	7	64	Target	MissedWin	False
610.442	0.49	Win2	0.6769	n/a	No	3.122	n/a	n/a	NoResponse	0	n/a	n/a	7	64	Blank	MissedWin	False
610.443	0.3	Win2	0.6769	0.003	No	3.122	-0.003	2.0	NoResponse	0	0.218	n/a	7	64	ButtonPress	MissedWin	False
610.927	1.45	Win2	0.6769	n/a	No	3.122	n/a	5.0	NoResponse	0	0.02	609.947	7	64	Feedback	MissedWin	False
612.381	3.122	Win2	0.6769	n/a	No	3.122	n/a	n/a	NoResponse	0	0.0	n/a	7	64	ISIslide	MissedWin	False
615.524	0.25	Control	0.6667000000000001	0.0	No	2.776	0.024	n/a	NoResponse	0	n/a	n/a	7	65	Cue	Neutral	False
615.774	4.0	Control	0.6667000000000001	0.001	No	2.776	0.0	n/a	NoResponse	0	n/a	n/a	7	65	Fixation	Neutral	False
619.77	0.2	Control	0.6667000000000001	0.004	No	2.776	-0.004	n/a	NoResponse	0	n/a	n/a	7	65	Target	Neutral	False
619.97	0.5	Control	0.6667000000000001	n/a	No	2.776	n/a	n/a	NoResponse	0	n/a	n/a	7	65	Blank	Neutral	False
620.472	1.45	Control	0.6667000000000001	n/a	No	2.776	n/a	5.0	NoResponse	0	0.036	619.508	7	65	Feedback	Neutral	False
621.926	2.776	Control	0.6667000000000001	n/a	No	2.776	n/a	n/a	NoResponse	0	0.0	n/a	7	65	ISIslide	Neutral	False
624.718	0.25	Win2	0.6567000000000001	0.0	No	2.782	0.018	n/a	NoResponse	0	n/a	n/a	7	66	Cue	MissedWin	True
624.969	3.9	Win2	0.6567000000000001	0.0	No	2.782	0.001	n/a	NoResponse	0	n/a	n/a	7	66	Fixation	MissedWin	True
628.864	0.19	Win2	0.6567000000000001	0.004	No	2.782	-0.004	2.0	NoResponse	0	0.267	628.131	7	66	Target	MissedWin	True
629.064	0.51	Win2	0.6567000000000001	n/a	No	2.782	n/a	n/a	NoResponse	0	n/a	n/a	7	66	Blank	MissedWin	True
629.131	0.3	Win2	0.6567000000000001	0.004	No	2.782	-0.004	2.0	NoResponse	0	0.267	n/a	7	66	ButtonPress	MissedWin	True
629.566	1.45	Win2	0.6567000000000001	n/a	No	2.782	n/a	5.0	NoResponse	0	0.016	628.582	7	66	Feedback	MissedWin	True
631.02	2.782	Win2	0.6567000000000001	n/a	No	2.782	n/a	n/a	NoResponse	0	0.0	n/a	7	66	ISIslide	MissedWin	True
633.829	0.25	Control	0.6470999999999999	0.0	No	2.721	0.029	n/a	NoResponse	0	n/a	n/a	7	67	Cue	Neutral	True
634.079	3.95	Control	0.6470999999999999	0.0	No	2.721	0.0	n/a	NoResponse	0	n/a	n/a	7	67	Fixation	Neutral	True
638.041	0.19	Control	0.6470999999999999	0.0	No	2.721	0.012	2.0	NoResponse	0	0.304	637.345	7	67	Target	Neutral	True
638.225	0.51	Control	0.6470999999999999	n/a	No	2.721	n/a	n/a	NoResponse	0	n/a	n/a	7	67	Blank	Neutral	True
638.345	0.3	Control	0.6470999999999999	0.0	No	2.721	0.012	2.0	NoResponse	0	0.304	n/a	7	67	ButtonPress	Neutral	True
638.727	1.45	Control	0.6470999999999999	n/a	No	2.721	n/a	5.0	NoResponse	0	0.025	637.752	7	67	Feedback	Neutral	True
640.181	2.721	Control	0.6470999999999999	n/a	No	2.721	n/a	n/a	NoResponse	0	0.0	n/a	7	67	ISIslide	Neutral	True
642.922	0.25	Win2	0.6377	0.001	No	3.078	0.022	n/a	NoResponse	0	n/a	n/a	7	68	Cue	MissedWin	True
643.173	4.0	Win2	0.6377	0.0	No	3.078	0.001	n/a	NoResponse	0	n/a	n/a	7	68	Fixation	MissedWin	True
647.169	0.2	Win2	0.6377	0.003	No	3.078	-0.003	2.0	NoResponse	0	0.32	646.489	7	68	Target	MissedWin	True
647.369	0.5	Win2	0.6377	n/a	No	3.078	n/a	n/a	NoResponse	0	n/a	n/a	7	68	Blank	MissedWin	True
647.489	0.3	Win2	0.6377	0.003	No	3.078	-0.003	2.0	NoResponse	0	0.32	n/a	7	68	ButtonPress	MissedWin	True
647.871	1.45	Win2	0.6377	n/a	No	3.078	n/a	5.0	NoResponse	0	0.003	646.874	7	68	Feedback	MissedWin	True
649.325	3.078	Win2	0.6377	n/a	No	3.078	n/a	n/a	NoResponse	0	0.0	n/a	7	68	ISIslide	MissedWin	True
652.418	0.25	Win2	0.6286	0.0	No	3.232	0.018	n/a	NoResponse	0	n/a	n/a	7	69	Cue	MissedWin	True
652.668	3.95	Win2	0.6286	0.0	No	3.232	0.0	n/a	NoResponse	0	n/a	n/a	7	69	Fixation	MissedWin	True
656.614	0.21	Win2	0.6286	0.004	No	3.232	-0.004	2.0	NoResponse	0	0.325	655.939	7	69	Target	MissedWin	True
656.831	0.49	Win2	0.6286	n/a	No	3.232	n/a	n/a	NoResponse	0	n/a	n/a	7	69	Blank	MissedWin	True
656.939	0.3	Win2	0.6286	0.004	No	3.232	-0.004	2.0	NoResponse	0	0.325	n/a	7	69	ButtonPress	MissedWin	True
657.316	1.45	Win2	0.6286	n/a	No	3.232	n/a	5.0	NoResponse	0	0.021	656.337	7	69	Feedback	MissedWin	True
658.77	3.232	Win2	0.6286	n/a	No	3.232	n/a	n/a	NoResponse	0	0.0	n/a	7	69	ISIslide	MissedWin	True
662.013	0.25	Lose2	0.6197	0.0	No	3.037	0.013	n/a	NoResponse	-1	n/a	n/a	6	70	Cue	Loss	True
662.264	4.05	Lose2	0.6197	0.0	No	3.037	0.001	2.0	NoResponse	-1	3.431	664.695	6	70	Fixation	Loss	True
665.695	0.3	Lose2	0.6197	0.0	No	3.037	0.001	2.0	NoResponse	-1	3.431	n/a	6	70	ButtonPress	Loss	True
666.309	0.22	Lose2	0.6197	0.004	No	3.037	-0.004	n/a	NoResponse	-1	n/a	n/a	6	70	Target	Loss	True
666.543	0.48	Lose2	0.6197	n/a	No	3.037	n/a	n/a	NoResponse	-1	n/a	n/a	6	70	Blank	Loss	True
667.011	1.45	Lose2	0.6197	n/a	No	3.037	n/a	5.0	NoResponse	-1	0.034	666.045	6	70	Feedback	Loss	True
668.466	3.037	Lose2	0.6197	n/a	No	3.037	n/a	n/a	NoResponse	-1	0.0	n/a	6	70	ISIslide	Loss	True
671.525	0.25	Win2	0.625	0.0	Yes	2.725	0.025	n/a	GoodResponse	1	n/a	n/a	7	71	Cue	Win	True
671.776	4.05	Win2	0.625	0.0	Yes	2.725	0.001	n/a	GoodResponse	1	n/a	n/a	7	71	Fixation	Win	True
675.821	0.23	Win2	0.625	0.004	Yes	2.725	-0.004	2.0	GoodResponse	1	0.212	675.033	7	71	Target	Win	True
676.033	0.3	Win2	0.625	0.004	Yes	2.725	-0.004	2.0	GoodResponse	1	0.212	n/a	7	71	ButtonPress	Win	True
676.055	0.47	Win2	0.625	n/a	Yes	2.725	n/a	n/a	GoodResponse	1	n/a	n/a	7	71	Blank	Win	True
676.523	1.45	Win2	0.625	n/a	Yes	2.725	n/a	5.0	GoodResponse	1	0.034	675.557	7	71	Feedback	Win	True
677.978	2.725	Win2	0.625	n/a	Yes	2.725	n/a	n/a	GoodResponse	1	0.0	n/a	7	71	ISIslide	Win	True
680.719	0.25	Win2	0.6164000000000001	0.0	No	2.781	0.019	n/a	NoResponse	0	n/a	n/a	7	72	Cue	MissedWin	True
680.97	4.1	Win2	0.6164000000000001	0.0	No	2.781	0.001	n/a	NoResponse	0	n/a	n/a	7	72	Fixation	MissedWin	True
685.065	0.24	Win2	0.6164000000000001	0.004	No	2.781	-0.004	2.0	NoResponse	0	0.261	684.326	7	72	Target	MissedWin	True
685.316	0.46	Win2	0.6164000000000001	n/a	No	2.781	n/a	n/a	NoResponse	0	n/a	n/a	7	72	Blank	MissedWin	True
685.326	0.3	Win2	0.6164000000000001	0.004	No	2.781	-0.004	2.0	NoResponse	0	0.261	n/a	7	72	ButtonPress	MissedWin	True
685.768	1.45	Win2	0.6164000000000001	n/a	No	2.781	n/a	5.0	NoResponse	0	0.009	684.777	7	72	Feedback	MissedWin	True
687.222	2.781	Win2	0.6164000000000001	n/a	No	2.781	n/a	n/a	NoResponse	0	0.0	n/a	7	72	ISIslide	MissedWin	True
690.014	0.25	Win2	0.6081	0.0	No	2.686	0.014	n/a	NoResponse	0	n/a	n/a	7	73	Cue	MissedWin	False
690.264	4.0	Win2	0.6081	0.0	No	2.686	0.0	n/a	NoResponse	0	n/a	n/a	7	73	Fixation	MissedWin	False
694.26	0.25	Win2	0.6081	0.004	No	2.686	-0.004	n/a	NoResponse	0	n/a	n/a	7	73	Target	MissedWin	False
694.51	0.45	Win2	0.6081	n/a	No	2.686	n/a	n/a	NoResponse	0	n/a	n/a	7	73	Blank	MissedWin	False
694.962	1.45	Win2	0.6081	n/a	No	2.686	n/a	5.0	NoResponse	0	0.033	693.995	7	73	Feedback	MissedWin	False
696.416	2.686	Win2	0.6081	n/a	No	2.686	n/a	n/a	NoResponse	0	0.0	n/a	7	73	ISIslide	MissedWin	False
699.124	0.25	Lose2	0.6133	0.0	Yes	2.626	0.024	n/a	GoodResponse	0	n/a	n/a	7	74	Cue	AvoidedLoss	False
699.375	4.05	Lose2	0.6133	0.0	Yes	2.626	0.001	2.0	GoodResponse	0	0.104	698.479	7	74	Fixation	AvoidedLoss	False
699.479	0.3	Lose2	0.6133	0.0	Yes	2.626	0.001	2.0	GoodResponse	0	0.104	n/a	7	74	ButtonPress	AvoidedLoss	False
703.42	0.26	Lose2	0.6133	0.004	Yes	2.626	-0.004	2.0	GoodResponse	0	0.237	702.657	7	74	Target	AvoidedLoss	False
703.657	0.3	Lose2	0.6133	0.004	Yes	2.626	-0.004	2.0	GoodResponse	0	0.237	n/a	7	74	ButtonPress	AvoidedLoss	False
703.688	0.44	Lose2	0.6133	n/a	Yes	2.626	n/a	n/a	GoodResponse	0	n/a	n/a	7	74	Blank	AvoidedLoss	False
704.123	1.45	Lose2	0.6133	n/a	Yes	2.626	n/a	5.0	GoodResponse	0	0.043	703.166	7	74	Feedback	AvoidedLoss	False
705.577	2.626	Lose2	0.6133	n/a	Yes	2.626	n/a	n/a	GoodResponse	0	0.0	n/a	7	74	ISIslide	AvoidedLoss	False
708.218	0.25	Lose2	0.6053000000000001	0.0	No	2.932	0.018	n/a	NoResponse	-1	n/a	n/a	6	75	Cue	Loss	True
708.469	3.95	Lose2	0.6053000000000001	0.0	No	2.932	0.001	n/a	NoResponse	-1	n/a	n/a	6	75	Fixation	Loss	True
712.414	0.27	Lose2	0.6053000000000001	0.004	No	2.932	-0.004	2.0	NoResponse	-1	0.308	711.722	6	75	Target	Loss	True
712.698	0.43	Lose2	0.6053000000000001	n/a	No	2.932	n/a	n/a	NoResponse	-1	n/a	n/a	6	75	Blank	Loss	True
712.722	0.3	Lose2	0.6053000000000001	0.004	No	2.932	-0.004	2.0	NoResponse	-1	0.308	n/a	6	75	ButtonPress	Loss	True
713.116	1.45	Lose2	0.6053000000000001	n/a	No	2.932	n/a	5.0	NoResponse	-1	0.026	712.142	6	75	Feedback	Loss	True
714.571	2.932	Lose2	0.6053000000000001	n/a	No	2.932	n/a	n/a	NoResponse	-1	0.0	n/a	6	75	ISIslide	Loss	True
717.513	0.25	Control	0.5974	0.0	No	3.237	0.013	n/a	NoResponse	0	n/a	n/a	6	76	Cue	Neutral	False
717.763	4.05	Control	0.5974	0.0	No	3.237	0.0	n/a	NoResponse	0	n/a	n/a	6	76	Fixation	Neutral	False
721.809	0.28	Control	0.5974	0.004	No	3.237	-0.004	n/a	NoResponse	0	n/a	n/a	6	76	Target	Neutral	False
722.093	0.42	Control	0.5974	n/a	No	3.237	n/a	n/a	NoResponse	0	n/a	n/a	6	76	Blank	Neutral	False
722.511	1.45	Control	0.5974	n/a	No	3.237	n/a	5.0	NoResponse	0	0.045	721.556	6	76	Feedback	Neutral	False
723.965	3.237	Control	0.5974	n/a	No	3.237	n/a	n/a	NoResponse	0	0.0	n/a	6	76	ISIslide	Neutral	False
727.225	0.25	Lose2	0.6026	0.0	Yes	2.575	0.025	n/a	GoodResponse	0	n/a	n/a	6	77	Cue	AvoidedLoss	True
727.476	3.95	Lose2	0.6026	0.0	Yes	2.575	0.001	n/a	GoodResponse	0	n/a	n/a	6	77	Fixation	AvoidedLoss	True
731.421	0.29	Lose2	0.6026	0.004	Yes	2.575	-0.004	2.0	GoodResponse	0	0.237	730.658	6	77	Target	AvoidedLoss	True
731.658	0.3	Lose2	0.6026	0.004	Yes	2.575	-0.004	2.0	GoodResponse	0	0.237	n/a	6	77	ButtonPress	AvoidedLoss	True
731.722	0.41	Lose2	0.6026	n/a	Yes	2.575	n/a	n/a	GoodResponse	0	n/a	n/a	6	77	Blank	AvoidedLoss	True
732.123	1.45	Lose2	0.6026	n/a	Yes	2.575	n/a	5.0	GoodResponse	0	0.043	731.166	6	77	Feedback	AvoidedLoss	True
733.577	2.575	Lose2	0.6026	n/a	Yes	2.575	n/a	n/a	GoodResponse	0	0.0	n/a	6	77	ISIslide	AvoidedLoss	True
