onset	duration	cue_type	current_mean_accuracy	duration_error	is_hit	isi_adjusted	onset_delay	response	response_type	reward	rt	rt_time	total_reward	trial_number	trial_phase	trial_type	one_press
11.101	0.25	Control	0.0	0.001	No	2.949	0.001	n/a	NoResponse	0	n/a	n/a	0	0	Cue	Neutral	False
11.351	3.85	Control	0.0	0.0	No	2.949	0.0	n/a	NoResponse	0	n/a	n/a	0	0	Fixation	Neutral	False
15.2	0.4	Control	0.0	0.001	No	2.949	-0.001	n/a	NoResponse	0	n/a	n/a	0	0	Target	Neutral	False
15.6	0.3	Control	0.0	n/a	No	2.949	n/a	n/a	NoResponse	0	n/a	n/a	0	0	Blank	Neutral	False
15.9	1.45	Control	0.0	n/a	No	2.949	n/a	5.0	NoResponse	0	0.026	14.926	0	0	Feedback	Neutral	False
17.349	2.949	Control	0.0	n/a	No	2.949	n/a	n/a	NoResponse	0	0.0	n/a	0	0	ISIslide	Neutral	False
20.365	0.25	Lose2	0.0	0.0	No	2.735	0.065	n/a	NoResponse	-1	n/a	n/a	-1	1	Cue	Loss	False
20.615	4.0	Lose2	0.0	0.0	No	2.735	0.0	n/a	NoResponse	-1	n/a	n/a	-1	1	Fixation	Loss	False
24.613	0.41	Lose2	0.0	0.002	No	2.735	-0.002	n/a	NoResponse	-1	n/a	n/a	-1	1	Target	Loss	False
25.03	0.29	Lose2	0.0	n/a	No	2.735	n/a	n/a	NoResponse	-1	n/a	n/a	-1	1	Blank	Loss	False
25.313	1.45	Lose2	0.0	n/a	No	2.735	n/a	5.0	NoResponse	-1	0.027	24.34	-1	1	Feedback	Loss	False
26.763	2.735	Lose2	0.0	n/a	No	2.735	n/a	n/a	NoResponse	-1	0.0	n/a	-1	1	ISIslide	Loss	False
29.528	0.25	Control	0.3333	0.001	Yes	2.572	0.028	n/a	GoodResponse	0	n/a	n/a	-1	2	Cue	Neutral	True
29.778	4.1	Control	0.3333	0.0	Yes	2.572	0.0	n/a	GoodResponse	0	n/a	n/a	-1	2	Fixation	Neutral	True
33.877	0.42	Control	0.3333	0.001	Yes	2.572	-0.001	2.0	GoodResponse	0	0.203	33.08	-1	2	Target	Neutral	True
34.08	0.3	Control	0.3333	0.001	Yes	2.572	-0.001	2.0	GoodResponse	0	0.203	n/a	-1	2	ButtonPress	Neutral	True
34.293	0.28	Control	0.3333	n/a	Yes	2.572	n/a	n/a	GoodResponse	0	n/a	n/a	-1	2	Blank	Neutral	True
34.577	1.45	Control	0.3333	n/a	Yes	2.572	n/a	5.0	GoodResponse	0	0.032	33.609	-1	2	Feedback	Neutral	True
36.026	2.572	Control	0.3333	n/a	Yes	2.572	n/a	n/a	GoodResponse	0	0.0	n/a	-1	2	ISIslide	Neutral	True
38.642	0.25	Win2	0.5	0.0	Yes	2.808	0.042	n/a	GoodResponse	1	n/a	n/a	0	3	Cue	Win	False
38.892	3.95	Win2	0.5	0.0	Yes	2.808	0.0	2.0	GoodResponse	1	2.768	40.66	0	3	Fixation	Win	False
41.66	0.3	Win2	0.5	0.0	Yes	2.808	0.0	2.0	GoodResponse	1	2.768	n/a	0	3	ButtonPress	Win	False
42.84	0.43	Win2	0.5	0.002	Yes	2.808	-0.002	2.0	GoodResponse	1	0.178	42.018	0	3	Target	Win	False
43.018	0.3	Win2	0.5	0.002	Yes	2.808	-0.002	2.0	GoodResponse	1	0.178	n/a	0	3	ButtonPress	Win	False
43.274	0.27	Win2	0.5	n/a	Yes	2.808	n/a	n/a	GoodResponse	1	n/a	n/a	0	3	Blank	Win	False
43.54	1.45	Win2	0.5	n/a	Yes	2.808	n/a	5.0	GoodResponse	1	0.045	42.585	0	3	Feedback	Win	False
44.99	2.808	Win2	0.5	n/a	Yes	2.808	n/a	n/a	GoodResponse	1	0.0	n/a	0	3	ISIslide	Win	False
47.822	0.25	Win2	0.4	0.0	No	3.278	0.022	n/a	PrematurePress	0	n/a	n/a	0	4	Cue	MissedWin	True
48.072	4.0	Win2	0.4	0.0	No	3.278	0.0	n/a	PrematurePress	0	n/a	n/a	0	4	Fixation	MissedWin	True
52.071	0.44	Win2	0.4	0.001	No	3.278	-0.001	2.0	PrematurePress	0	0.048	51.119	0	4	Target	MissedWin	True
52.119	0.3	Win2	0.4	0.001	No	3.278	-0.001	2.0	PrematurePress	0	0.048	n/a	0	4	ButtonPress	MissedWin	True
52.52	0.26	Win2	0.4	n/a	No	3.278	n/a	n/a	PrematurePress	0	n/a	n/a	0	4	Blank	MissedWin	True
52.77	1.45	Win2	0.4	n/a	No	3.278	n/a	5.0	PrematurePress	0	0.034	51.804	0	4	Feedback	MissedWin	True
54.22	3.278	Win2	0.4	n/a	No	3.278	n/a	n/a	PrematurePress	0	0.0	n/a	0	4	ISIslide	MissedWin	True
57.519	0.25	Win2	0.5	0.0	Yes	2.781	0.019	n/a	GoodResponse	1	n/a	n/a	1	5	Cue	Win	True
57.769	4.0	Win2	0.5	0.0	Yes	2.781	0.0	n/a	GoodResponse	1	n/a	n/a	1	5	Fixation	Win	True
61.767	0.45	Win2	0.5	0.002	Yes	2.781	-0.002	2.0	GoodResponse	1	0.209	60.976	1	5	Target	Win	True
61.976	0.3	Win2	0.5	0.002	Yes	2.781	-0.002	2.0	GoodResponse	1	0.209	n/a	1	5	ButtonPress	Win	True
62.217	0.25	Win2	0.5	n/a	Yes	2.781	n/a	n/a	GoodResponse	1	n/a	n/a	1	5	Blank	Win	True
62.467	1.45	Win2	0.5	n/a	Yes	2.781	n/a	5.0	GoodResponse	1	0.045	61.512	1	5	Feedback	Win	True
63.917	2.781	Win2	0.5	n/a	Yes	2.781	n/a	n/a	GoodResponse	1	0.0	n/a	1	5	ISIslide	Win	True
66.716	0.25	Lose2	0.5714	0.0	Yes	2.734	0.016	n/a	GoodResponse	0	n/a	n/a	1	6	Cue	AvoidedLoss	False
66.965	3.95	Lose2	0.5714	0.001	Yes	2.734	-0.001	2.0	GoodResponse	0	3.806	69.771	1	6	Fixation	AvoidedLoss	False
70.771	0.3	Lose2	0.5714	0.001	Yes	2.734	-0.001	2.0	GoodResponse	0	3.806	n/a	1	6	ButtonPress	AvoidedLoss	False
70.914	0.46	Lose2	0.5714	0.002	Yes	2.734	-0.002	2.0	GoodResponse	0	0.202	70.116	1	6	Target	AvoidedLoss	False
71.116	0.3	Lose2	0.5714	0.002	Yes	2.734	-0.002	2.0	GoodResponse	0	0.202	n/a	1	6	ButtonPress	AvoidedLoss	False
71.381	0.24	Lose2	0.5714	n/a	Yes	2.734	n/a	n/a	GoodResponse	0	n/a	n/a	1	6	Blank	AvoidedLoss	False
71.614	1.45	Lose2	0.5714	n/a	Yes	2.734	n/a	5.0	GoodResponse	0	0.02	70.634	1	6	Feedback	AvoidedLoss	False
73.063	2.734	Lose2	0.5714	n/a	Yes	2.734	n/a	n/a	GoodResponse	0	0.0	n/a	1	6	ISIslide	AvoidedLoss	False
75.829	0.25	Lose2	0.625	0.0	Yes	4.021	0.029	n/a	GoodResponse	0	n/a	n/a	1	7	Cue	AvoidedLoss	True
76.079	4.05	Lose2	0.625	0.0	Yes	4.021	0.0	n/a	GoodResponse	0	n/a	n/a	1	7	Fixation	AvoidedLoss	True
80.128	0.47	Lose2	0.625	0.001	Yes	4.021	-0.001	2.0	GoodResponse	0	0.153	79.281	1	7	Target	AvoidedLoss	True
80.281	0.3	Lose2	0.625	0.001	Yes	4.021	-0.001	2.0	GoodResponse	0	0.153	n/a	1	7	ButtonPress	AvoidedLoss	True
80.611	0.23	Lose2	0.625	n/a	Yes	4.021	n/a	n/a	GoodResponse	0	n/a	n/a	1	7	Blank	AvoidedLoss	True
80.827	1.45	Lose2	0.625	n/a	Yes	4.021	n/a	5.0	GoodResponse	0	0.025	79.852	1	7	Feedback	AvoidedLoss	True
82.277	4.021	Lose2	0.625	n/a	Yes	4.021	n/a	n/a	GoodResponse	0	0.0	n/a	1	7	ISIslide	AvoidedLoss	True
86.325	0.25	Lose2	0.6667000000000001	0.001	Yes	3.025	0.025	n/a	GoodResponse	0	n/a	n/a	1	8	Cue	AvoidedLoss	True
86.575	3.95	Lose2	0.6667000000000001	0.0	Yes	3.025	0.0	n/a	GoodResponse	0	n/a	n/a	1	8	Fixation	AvoidedLoss	True
90.524	0.48	Lose2	0.6667000000000001	0.001	Yes	3.025	-0.001	2.0	GoodResponse	0	0.203	89.727	1	8	Target	AvoidedLoss	True
90.727	0.3	Lose2	0.6667000000000001	0.001	Yes	3.025	-0.001	2.0	GoodResponse	0	0.203	n/a	1	8	ButtonPress	AvoidedLoss	True
91.007	0.22	Lose2	0.6667000000000001	n/a	Yes	3.025	n/a	n/a	GoodResponse	0	n/a	n/a	1	8	Blank	AvoidedLoss	True
91.224	1.45	Lose2	0.6667000000000001	n/a	Yes	3.025	n/a	5.0	GoodResponse	0	0.019	90.243	1	8	Feedback	AvoidedLoss	True
92.673	3.025	Lose2	0.6667000000000001	n/a	Yes	3.025	n/a	n/a	GoodResponse	0	0.0	n/a	1	8	ISIslide	AvoidedLoss	True
95.722	0.25	Lose2	0.7	0.0	Yes	3.128	0.022	n/a	GoodResponse	0	n/a	n/a	1	9	Cue	AvoidedLoss	True
95.972	3.95	Lose2	0.7	0.0	Yes	3.128	0.0	n/a	GoodResponse	0	n/a	n/a	1	9	Fixation	AvoidedLoss	True
99.921	0.47	Lose2	0.7	0.001	Yes	3.128	-0.001	2.0	GoodResponse	0	0.182	99.103	1	9	Target	AvoidedLoss	True
100.103	0.3	Lose2	0.7	0.001	Yes	3.128	-0.001	2.0	GoodResponse	0	0.182	n/a	1	9	ButtonPress	AvoidedLoss	True
100.404	0.23	Lose2	0.7	n/a	Yes	3.128	n/a	n/a	GoodResponse	0	n/a	n/a	1	9	Blank	AvoidedLoss	True
100.621	1.45	Lose2	0.7	n/a	Yes	3.128	n/a	5.0	GoodResponse	0	0.036	99.657	1	9	Feedback	AvoidedLoss	True
102.07	3.128	Lose2	0.7	n/a	Yes	3.128	n/a	n/a	GoodResponse	0	0.0	n/a	1	9	ISIslide	AvoidedLoss	True
105.219	0.25	Control	0.6364	0.0	No	3.281	0.019	n/a	NoResponse	0	n/a	n/a	1	10	Cue	Neutral	False
105.469	4.0	Control	0.6364	0.0	No	3.281	0.0	n/a	NoResponse	0	n/a	n/a	1	10	Fixation	Neutral	False
109.467	0.46	Control	0.6364	0.002	No	3.281	-0.002	n/a	NoResponse	0	n/a	n/a	1	10	Target	Neutral	False
109.934	0.24	Control	0.6364	n/a	No	3.281	n/a	n/a	NoResponse	0	n/a	n/a	1	10	Blank	Neutral	False
110.167	1.45	Control	0.6364	n/a	No	3.281	n/a	5.0	NoResponse	0	0.007	109.174	1	10	Feedback	Neutral	False
111.617	3.281	Control	0.6364	n/a	No	3.281	n/a	n/a	NoResponse	0	0.0	n/a	1	10	ISIslide	Neutral	False
114.916	0.25	Lose2	0.6667000000000001	0.0	Yes	2.734	0.016	n/a	GoodResponse	0	n/a	n/a	1	11	Cue	AvoidedLoss	True
115.165	4.05	Lose2	0.6667000000000001	0.001	Yes	2.734	-0.001	n/a	GoodResponse	0	n/a	n/a	1	11	Fixation	AvoidedLoss	True
119.214	0.47	Lose2	0.6667000000000001	0.002	Yes	2.734	-0.002	2.0	GoodResponse	0	0.178	118.392	1	11	Target	AvoidedLoss	True
119.392	0.3	Lose2	0.6667000000000001	0.002	Yes	2.734	-0.002	2.0	GoodResponse	0	0.178	n/a	1	11	ButtonPress	AvoidedLoss	True
119.697	0.23	Lose2	0.6667000000000001	n/a	Yes	2.734	n/a	n/a	GoodResponse	0	n/a	n/a	1	11	Blank	AvoidedLoss	True
119.914	1.45	Lose2	0.6667000000000001	n/a	Yes	2.734	n/a	5.0	GoodResponse	0	0.012	118.926	1	11	Feedback	AvoidedLoss	True
121.363	2.734	Lose2	0.6667000000000001	n/a	Yes	2.734	n/a	n/a	GoodResponse	0	0.0	n/a	1	11	ISIslide	AvoidedLoss	True
124.129	0.25	Control	0.6154	0.0	No	2.971	0.029	n/a	NoResponse	0	n/a	n/a	1	12	Cue	Neutral	False
124.379	3.9	Control	0.6154	0.0	No	2.971	0.0	n/a	NoResponse	0	n/a	n/a	1	12	Fixation	Neutral	False
128.278	0.46	Control	0.6154	0.001	No	2.971	-0.001	n/a	NoResponse	0	n/a	n/a	1	12	Target	Neutral	False
128.744	0.24	Control	0.6154	n/a	No	2.971	n/a	n/a	NoResponse	0	n/a	n/a	1	12	Blank	Neutral	False
128.977	1.45	Control	0.6154	n/a	No	2.971	n/a	5.0	NoResponse	0	0.022	127.999	1	12	Feedback	Neutral	False
130.427	2.971	Control	0.6154	n/a	No	2.971	n/a	n/a	NoResponse	0	0.0	n/a	1	12	ISIslide	Neutral	False
133.426	0.25	Control	0.5714	0.0	No	2.774	0.026	n/a	NoResponse	0	n/a	n/a	1	13	Cue	Neutral	False
133.676	4.0	Control	0.5714	0.0	No	2.774	0.0	n/a	NoResponse	0	n/a	n/a	1	13	Fixation	Neutral	False
137.674	0.47	Control	0.5714	0.002	No	2.774	-0.002	n/a	NoResponse	0	n/a	n/a	1	13	Target	Neutral	False
138.158	0.23	Control	0.5714	n/a	No	2.774	n/a	n/a	NoResponse	0	n/a	n/a	1	13	Blank	Neutral	False
138.374	1.45	Control	0.5714	n/a	No	2.774	n/a	5.0	NoResponse	0	0.039	137.413	1	13	Feedback	Neutral	False
139.824	2.774	Control	0.5714	n/a	No	2.774	n/a	n/a	NoResponse	0	0.0	n/a	1	13	ISIslide	Neutral	False
142.623	0.25	Win2	0.6	0.0	Yes	2.677	0.023	n/a	GoodResponse	1	n/a	n/a	2	14	Cue	Win	False
142.873	4.1	Win2	0.6	0.0	Yes	2.677	0.0	2.0	GoodResponse	1	3.851	145.724	2	14	Fixation	Win	False
146.724	0.3	Win2	0.6	0.0	Yes	2.677	0.0	2.0	GoodResponse	1	3.851	n/a	2	14	ButtonPress	Win	False
146.971	0.48	Win2	0.6	0.002	Yes	2.677	-0.002	2.0	GoodResponse	1	0.168	146.139	2	14	Target	Win	False
147.139	0.3	Win2	0.6	0.002	Yes	2.677	-0.002	2.0	GoodResponse	1	0.168	n/a	2	14	ButtonPress	Win	False
147.454	0.22	Win2	0.6	n/a	Yes	2.677	n/a	n/a	GoodResponse	1	n/a	n/a	2	14	Blank	Win	False
147.671	1.45	Win2	0.6	n/a	Yes	2.677	n/a	5.0	GoodResponse	1	0.011	146.682	2	14	Feedback	Win	False
149.12	2.677	Win2	0.6	n/a	Yes	2.677	n/a	n/a	GoodResponse	1	0.0	n/a	2	14	ISIslide	Win	False
151.819	0.25	Control	0.5625	0.001	No	2.981	0.019	n/a	NoResponse	0	n/a	n/a	2	15	Cue	Neutral	False
152.069	4.0	Control	0.5625	0.0	No	2.981	0.0	n/a	NoResponse	0	n/a	n/a	2	15	Fixation	Neutral	False
156.068	0.49	Control	0.5625	0.001	No	2.981	-0.001	n/a	NoResponse	0	n/a	n/a	2	15	Target	Neutral	False
156.568	0.21	Control	0.5625	n/a	No	2.981	n/a	n/a	NoResponse	0	n/a	n/a	2	15	Blank	Neutral	False
156.768	1.45	Control	0.5625	n/a	No	2.981	n/a	5.0	NoResponse	0	0.036	155.804	2	15	Feedback	Neutral	False
158.217	2.981	Control	0.5625	n/a	No	2.981	n/a	n/a	NoResponse	0	0.0	n/a	2	15	ISIslide	Neutral	False
161.216	0.25	Win2	0.5882000000000001	0.0	Yes	2.884	0.016	n/a	GoodResponse	1	n/a	n/a	3	16	Cue	Win	True
161.466	4.0	Win2	0.5882000000000001	0.0	Yes	2.884	0.0	n/a	GoodResponse	1	n/a	n/a	3	16	Fixation	Win	True
165.465	0.5	Win2	0.5882000000000001	0.001	Yes	2.884	-0.001	2.0	GoodResponse	1	0.187	164.652	3	16	Target	Win	True
165.652	0.3	Win2	0.5882000000000001	0.001	Yes	2.884	-0.001	2.0	GoodResponse	1	0.187	n/a	3	16	ButtonPress	Win	True
165.965	0.2	Win2	0.5882000000000001	n/a	Yes	2.884	n/a	n/a	GoodResponse	1	n/a	n/a	3	16	Blank	Win	True
166.165	1.45	Win2	0.5882000000000001	n/a	Yes	2.884	n/a	5.0	GoodResponse	1	0.006	165.171	3	16	Feedback	Win	True
167.614	2.884	Win2	0.5882000000000001	n/a	Yes	2.884	n/a	n/a	GoodResponse	1	0.0	n/a	3	16	ISIslide	Win	True
170.513	0.25	Lose2	0.6111	0.0	Yes	2.737	0.013	n/a	GoodResponse	0	n/a	n/a	3	17	Cue	AvoidedLoss	True
170.763	3.95	Lose2	0.6111	0.0	Yes	2.737	0.0	n/a	GoodResponse	0	n/a	n/a	3	17	Fixation	AvoidedLoss	True
174.712	0.5	Lose2	0.6111	0.001	Yes	2.737	-0.001	2.0	GoodResponse	0	0.188	173.9	3	17	Target	AvoidedLoss	True
174.9	0.3	Lose2	0.6111	0.001	Yes	2.737	-0.001	2.0	GoodResponse	0	0.188	n/a	3	17	ButtonPress	AvoidedLoss	True
175.211	0.2	Lose2	0.6111	n/a	Yes	2.737	n/a	n/a	GoodResponse	0	n/a	n/a	3	17	Blank	AvoidedLoss	True
175.411	1.45	Lose2	0.6111	n/a	Yes	2.737	n/a	5.0	GoodResponse	0	0.027	174.438	3	17	Feedback	AvoidedLoss	True
176.861	2.737	Lose2	0.6111	n/a	Yes	2.737	n/a	n/a	GoodResponse	0	0.0	n/a	3	17	ISIslide	AvoidedLoss	True
179.627	0.25	Lose2	0.6315999999999999	0.0	Yes	2.723	0.027	n/a	GoodResponse	0	n/a	n/a	3	18	Cue	AvoidedLoss	False
179.876	4.05	Lose2	0.6315999999999999	0.001	Yes	2.723	-0.001	2.0	GoodResponse	0	3.851	182.727	3	18	Fixation	AvoidedLoss	False
183.727	0.3	Lose2	0.6315999999999999	0.001	Yes	2.723	-0.001	2.0	GoodResponse	0	3.851	n/a	3	18	ButtonPress	AvoidedLoss	False
183.925	0.5	Lose2	0.6315999999999999	0.002	Yes	2.723	-0.002	2.0	GoodResponse	0	0.214	183.139	3	18	Target	AvoidedLoss	False
184.139	0.3	Lose2	0.6315999999999999	0.002	Yes	2.723	-0.002	2.0	GoodResponse	0	0.214	n/a	3	18	ButtonPress	AvoidedLoss	False
184.425	0.2	Lose2	0.6315999999999999	n/a	Yes	2.723	n/a	n/a	GoodResponse	0	n/a	n/a	3	18	Blank	AvoidedLoss	False
184.625	1.45	Lose2	0.6315999999999999	n/a	Yes	2.723	n/a	5.0	GoodResponse	0	0.033	183.658	3	18	Feedback	AvoidedLoss	False
186.074	2.723	Lose2	0.6315999999999999	n/a	Yes	2.723	n/a	n/a	GoodResponse	0	0.0	n/a	3	18	ISIslide	AvoidedLoss	False
188.823	0.25	Control	0.6	0.0	No	2.927	0.023	n/a	NoResponse	0	n/a	n/a	3	19	Cue	Neutral	False
189.073	3.95	Control	0.6	0.0	No	2.927	0.0	n/a	NoResponse	0	n/a	n/a	3	19	Fixation	Neutral	False
193.022	0.5	Control	0.6	0.001	No	2.927	-0.001	n/a	NoResponse	0	n/a	n/a	3	19	Target	Neutral	False
193.522	0.2	Control	0.6	n/a	No	2.927	n/a	n/a	NoResponse	0	n/a	n/a	3	19	Blank	Neutral	False
193.722	1.45	Control	0.6	n/a	No	2.927	n/a	5.0	NoResponse	0	0.008	192.73	3	19	Feedback	Neutral	False
195.171	2.927	Control	0.6	n/a	No	2.927	n/a	n/a	NoResponse	0	0.0	n/a	3	19	ISIslide	Neutral	False
198.12	0.25	Control	0.5714	0.0	No	2.63	0.02	n/a	NoResponse	0	n/a	n/a	3	20	Cue	Neutral	False
198.37	4.05	Control	0.5714	0.0	No	2.63	0.0	n/a	NoResponse	0	n/a	n/a	3	20	Fixation	Neutral	False
202.419	0.5	Control	0.5714	0.001	No	2.63	-0.001	n/a	NoResponse	0	n/a	n/a	3	20	Target	Neutral	False
202.918	0.2	Control	0.5714	n/a	No	2.63	n/a	n/a	NoResponse	0	n/a	n/a	3	20	Blank	Neutral	False
203.118	1.45	Control	0.5714	n/a	No	2.63	n/a	5.0	NoResponse	0	0.027	202.145	3	20	Feedback	Neutral	False
204.568	2.63	Control	0.5714	n/a	No	2.63	n/a	n/a	NoResponse	0	0.0	n/a	3	20	ISIslide	Neutral	False
207.217	0.25	Control	0.5455	0.0	No	2.783	0.017	n/a	NoResponse	0	n/a	n/a	3	21	Cue	Neutral	False
207.467	4.1	Control	0.5455	0.0	No	2.783	0.0	n/a	NoResponse	0	n/a	n/a	3	21	Fixation	Neutral	False
211.565	0.5	Control	0.5455	0.002	No	2.783	-0.002	n/a	NoResponse	0	n/a	n/a	3	21	Target	Neutral	False
212.065	0.2	Control	0.5455	n/a	No	2.783	n/a	n/a	NoResponse	0	n/a	n/a	3	21	Blank	Neutral	False
212.265	1.45	Control	0.5455	n/a	No	2.783	n/a	5.0	NoResponse	0	0.007	211.272	3	21	Feedback	Neutral	False
213.715	2.783	Control	0.5455	n/a	No	2.783	n/a	n/a	NoResponse	0	0.0	n/a	3	21	ISIslide	Neutral	False
216.514	0.25	Control	0.5217	0.0	No	2.786	0.014	n/a	NoResponse	0	n/a	n/a	3	22	Cue	Neutral	False
216.764	4.0	Control	0.5217	0.0	No	2.786	0.0	n/a	NoResponse	0	n/a	n/a	3	22	Fixation	Neutral	False
220.762	0.5	Control	0.5217	0.002	No	2.786	-0.002	n/a	NoResponse	0	n/a	n/a	3	22	Target	Neutral	False
221.262	0.2	Control	0.5217	n/a	No	2.786	n/a	n/a	NoResponse	0	n/a	n/a	3	22	Blank	Neutral	False
221.462	1.45	Control	0.5217	n/a	No	2.786	n/a	5.0	NoResponse	0	0.024	220.486	3	22	Feedback	Neutral	False
222.912	2.786	Control	0.5217	n/a	No	2.786	n/a	n/a	NoResponse	0	0.0	n/a	3	22	ISIslide	Neutral	False
225.727	0.25	Control	0.5	0.0	No	2.773	0.027	n/a	NoResponse	0	n/a	n/a	3	23	Cue	Neutral	False
225.977	3.9	Control	0.5	0.0	No	2.773	0.0	n/a	NoResponse	0	n/a	n/a	3	23	Fixation	Neutral	False
229.876	0.5	Control	0.5	0.001	No	2.773	-0.001	n/a	NoResponse	0	n/a	n/a	3	23	Target	Neutral	False
230.376	0.2	Control	0.5	n/a	No	2.773	n/a	n/a	NoResponse	0	n/a	n/a	3	23	Blank	Neutral	False
230.576	1.45	Control	0.5	n/a	No	2.773	n/a	5.0	NoResponse	0	0.032	229.608	3	23	Feedback	Neutral	False
232.025	2.773	Control	0.5	n/a	No	2.773	n/a	n/a	NoResponse	0	0.0	n/a	3	23	ISIslide	Neutral	False
234.824	0.25	Win2	0.52	0.0	Yes	3.126	0.024	n/a	GoodResponse	1	n/a	n/a	4	24	Cue	Win	True
235.074	3.95	Win2	0.52	0.0	Yes	3.126	0.0	n/a	GoodResponse	1	n/a	n/a	4	24	Fixation	Win	True
239.023	0.5	Win2	0.52	0.001	Yes	3.126	-0.001	2.0	GoodResponse	1	0.182	238.205	4	24	Target	Win	True
239.205	0.3	Win2	0.52	0.001	Yes	3.126	-0.001	2.0	GoodResponse	1	0.182	n/a	4	24	ButtonPress	Win	True
239.522	0.2	Win2	0.52	n/a	Yes	3.126	n/a	n/a	GoodResponse	1	n/a	n/a	4	24	Blank	Win	True
239.722	1.45	Win2	0.52	n/a	Yes	3.126	n/a	5.0	GoodResponse	1	0.009	238.731	4	24	Feedback	Win	True
241.172	3.126	Win2	0.52	n/a	Yes	3.126	n/a	n/a	GoodResponse	1	0.0	n/a	4	24	ISIslide	Win	True
244.321	0.25	Win2	0.5385	0.0	Yes	3.079	0.021	n/a	GoodResponse	1	n/a	n/a	5	25	Cue	Win	True
244.571	4.0	Win2	0.5385	0.0	Yes	3.079	0.0	n/a	GoodResponse	1	n/a	n/a	5	25	Fixation	Win	True
248.569	0.5	Win2	0.5385	0.002	Yes	3.079	-0.002	2.0	GoodResponse	1	0.222	247.791	5	25	Target	Win	True
248.791	0.3	Win2	0.5385	0.002	Yes	3.079	-0.002	2.0	GoodResponse	1	0.222	n/a	5	25	ButtonPress	Win	True
249.069	0.2	Win2	0.5385	n/a	Yes	3.079	n/a	n/a	GoodResponse	1	n/a	n/a	5	25	Blank	Win	True
249.269	1.45	Win2	0.5385	n/a	Yes	3.079	n/a	5.0	GoodResponse	1	0.023	248.292	5	25	Feedback	Win	True
250.719	3.079	Win2	0.5385	n/a	Yes	3.079	n/a	n/a	GoodResponse	1	0.0	n/a	5	25	ISIslide	Win	True
253.818	0.25	Win2	0.5185	0.0	No	2.932	0.018	n/a	PrematurePress	0	n/a	n/a	5	26	Cue	MissedWin	False
254.067	3.95	Win2	0.5185	0.001	No	2.932	-0.001	2.0	PrematurePress	0	3.545	256.612	5	26	Fixation	MissedWin	False
257.612	0.3	Win2	0.5185	0.001	No	2.932	-0.001	2.0	PrematurePress	0	3.545	n/a	5	26	ButtonPress	MissedWin	False
258.016	0.5	Win2	0.5185	0.002	No	2.932	-0.002	2.0	PrematurePress	0	0.007	257.023	5	26	Target	MissedWin	False
258.023	0.3	Win2	0.5185	0.002	No	2.932	-0.002	2.0	PrematurePress	0	0.007	n/a	5	26	ButtonPress	MissedWin	False
258.516	0.2	Win2	0.5185	n/a	No	2.932	n/a	n/a	PrematurePress	0	n/a	n/a	5	26	Blank	MissedWin	False
258.716	1.45	Win2	0.5185	n/a	No	2.932	n/a	5.0	PrematurePress	0	0.038	257.754	5	26	Feedback	MissedWin	False
260.165	2.932	Win2	0.5185	n/a	No	2.932	n/a	n/a	PrematurePress	0	0.0	n/a	5	26	ISIslide	MissedWin	False
263.131	0.25	Lose2	0.5	0.0	No	2.819	0.031	n/a	PrematurePress	-1	n/a	n/a	4	27	Cue	Loss	True
263.381	4.05	Lose2	0.5	0.0	No	2.819	0.0	n/a	PrematurePress	-1	n/a	n/a	4	27	Fixation	Loss	True
267.43	0.5	Lose2	0.5	0.001	No	2.819	-0.001	2.0	PrematurePress	-1	0.057	266.487	4	27	Target	Loss	True
267.487	0.3	Lose2	0.5	0.001	No	2.819	-0.001	2.0	PrematurePress	-1	0.057	n/a	4	27	ButtonPress	Loss	True
267.929	0.2	Lose2	0.5	n/a	No	2.819	n/a	n/a	PrematurePress	-1	n/a	n/a	4	27	Blank	Loss	True
268.129	1.45	Lose2	0.5	n/a	No	2.819	n/a	5.0	PrematurePress	-1	0.04	267.169	4	27	Feedback	Loss	True
269.579	2.819	Lose2	0.5	n/a	No	2.819	n/a	n/a	PrematurePress	-1	0.0	n/a	4	27	ISIslide	Loss	True
272.428	0.25	Control	0.4828	0.0	No	2.822	0.028	n/a	NoResponse	0	n/a	n/a	4	28	Cue	Neutral	False
272.678	4.05	Control	0.4828	0.0	No	2.822	0.0	n/a	NoResponse	0	n/a	n/a	4	28	Fixation	Neutral	False
276.726	0.5	Control	0.4828	0.002	No	2.822	-0.002	n/a	NoResponse	0	n/a	n/a	4	28	Target	Neutral	False
277.226	0.2	Control	0.4828	n/a	No	2.822	n/a	n/a	NoResponse	0	n/a	n/a	4	28	Blank	Neutral	False
277.426	1.45	Control	0.4828	n/a	No	2.822	n/a	5.0	NoResponse	0	0.011	276.437	4	28	Feedback	Neutral	False
278.876	2.822	Control	0.4828	n/a	No	2.822	n/a	n/a	NoResponse	0	0.0	n/a	4	28	ISIslide	Neutral	False
281.725	0.25	Lose2	0.5	0.0	Yes	2.825	0.025	n/a	GoodResponse	0	n/a	n/a	4	29	Cue	AvoidedLoss	True
281.974	3.95	Lose2	0.5	0.001	Yes	2.825	-0.001	n/a	GoodResponse	0	n/a	n/a	4	29	Fixation	AvoidedLoss	True
285.923	0.5	Lose2	0.5	0.002	Yes	2.825	-0.002	2.0	GoodResponse	0	0.186	285.109	4	29	Target	AvoidedLoss	True
286.109	0.3	Lose2	0.5	0.002	Yes	2.825	-0.002	2.0	GoodResponse	0	0.186	n/a	4	29	ButtonPress	AvoidedLoss	True
286.423	0.2	Lose2	0.5	n/a	Yes	2.825	n/a	n/a	GoodResponse	0	n/a	n/a	4	29	Blank	AvoidedLoss	True
286.623	1.45	Lose2	0.5	n/a	Yes	2.825	n/a	5.0	GoodResponse	0	0.034	285.657	4	29	Feedback	AvoidedLoss	True
288.072	2.825	Lose2	0.5	n/a	Yes	2.825	n/a	n/a	GoodResponse	0	0.0	n/a	4	29	ISIslide	AvoidedLoss	True
290.921	0.25	Win2	0.5161	0.0	Yes	2.779	0.021	n/a	GoodResponse	1	n/a	n/a	5	30	Cue	Win	True
291.171	3.9	Win2	0.5161	0.0	Yes	2.779	0.0	n/a	GoodResponse	1	n/a	n/a	5	30	Fixation	Win	True
295.07	0.5	Win2	0.5161	0.001	Yes	2.779	-0.001	2.0	GoodResponse	1	0.192	294.262	5	30	Target	Win	True
295.262	0.3	Win2	0.5161	0.001	Yes	2.779	-0.001	2.0	GoodResponse	1	0.192	n/a	5	30	ButtonPress	Win	True
295.57	0.2	Win2	0.5161	n/a	Yes	2.779	n/a	n/a	GoodResponse	1	n/a	n/a	5	30	Blank	Win	True
295.77	1.45	Win2	0.5161	n/a	Yes	2.779	n/a	5.0	GoodResponse	1	0.009	294.779	5	30	Feedback	Win	True
297.219	2.779	Win2	0.5161	n/a	Yes	2.779	n/a	n/a	GoodResponse	1	0.0	n/a	5	30	ISIslide	Win	True
300.018	0.25	Lose2	0.5	0.0	No	2.832	0.018	n/a	PrematurePress	-1	n/a	n/a	4	31	Cue	Loss	True
300.268	4.05	Lose2	0.5	0.0	No	2.832	0.0	n/a	PrematurePress	-1	n/a	n/a	4	31	Fixation	Loss	True
304.317	0.5	Lose2	0.5	0.001	No	2.832	-0.001	2.0	PrematurePress	-1	0.056	303.373	4	31	Target	Loss	True
304.373	0.3	Lose2	0.5	0.001	No	2.832	-0.001	2.0	PrematurePress	-1	0.056	n/a	4	31	ButtonPress	Loss	True
304.817	0.2	Lose2	0.5	n/a	No	2.832	n/a	n/a	PrematurePress	-1	n/a	n/a	4	31	Blank	Loss	True
305.017	1.45	Lose2	0.5	n/a	No	2.832	n/a	5.0	PrematurePress	-1	0.03	304.047	4	31	Feedback	Loss	True
306.466	2.832	Lose2	0.5	n/a	No	2.832	n/a	n/a	PrematurePress	-1	0.0	n/a	4	31	ISIslide	Loss	True
309.315	0.25	Lose2	0.5152	0.0	Yes	2.635	0.015	n/a	GoodResponse	0	n/a	n/a	4	32	Cue	AvoidedLoss	True
309.565	4.15	Lose2	0.5152	0.0	Yes	2.635	0.0	n/a	GoodResponse	0	n/a	n/a	4	32	Fixation	AvoidedLoss	True
313.714	0.5	Lose2	0.5152	0.001	Yes	2.635	-0.001	2.0	GoodResponse	0	0.168	312.882	4	32	Target	AvoidedLoss	True
313.882	0.3	Lose2	0.5152	0.001	Yes	2.635	-0.001	2.0	GoodResponse	0	0.168	n/a	4	32	ButtonPress	AvoidedLoss	True
314.213	0.2	Lose2	0.5152	n/a	Yes	2.635	n/a	n/a	GoodResponse	0	n/a	n/a	4	32	Blank	AvoidedLoss	True
314.413	1.45	Lose2	0.5152	n/a	Yes	2.635	n/a	5.0	GoodResponse	0	0.048	313.461	4	32	Feedback	AvoidedLoss	True
315.863	2.635	Lose2	0.5152	n/a	Yes	2.635	n/a	n/a	GoodResponse	0	0.0	n/a	4	32	ISIslide	AvoidedLoss	True
318.529	0.25	Win2	0.5	0.0	No	2.671	0.029	n/a	PrematurePress	0	n/a	n/a	4	33	Cue	MissedWin	False
318.778	4.0	Win2	0.5	0.001	No	2.671	-0.001	2.0	PrematurePress	0	3.595	321.373	4	33	Fixation	MissedWin	False
322.373	0.3	Win2	0.5	0.001	No	2.671	-0.001	2.0	PrematurePress	0	3.595	n/a	4	33	ButtonPress	MissedWin	False
322.777	0.5	Win2	0.5	0.002	No	2.671	-0.002	2.0	PrematurePress	0	0.08	321.857	4	33	Target	MissedWin	False
322.857	0.3	Win2	0.5	0.002	No	2.671	-0.002	2.0	PrematurePress	0	0.08	n/a	4	33	ButtonPress	MissedWin	False
323.277	0.2	Win2	0.5	n/a	No	2.671	n/a	n/a	PrematurePress	0	n/a	n/a	4	33	Blank	MissedWin	False
323.477	1.45	Win2	0.5	n/a	No	2.671	n/a	5.0	PrematurePress	0	0.009	322.486	4	33	Feedback	MissedWin	False
324.926	2.671	Win2	0.5	n/a	No	2.671	n/a	n/a	PrematurePress	0	0.0	n/a	4	33	ISIslide	MissedWin	False
327.625	0.25	Lose2	0.5143	0.0	Yes	2.625	0.025	n/a	GoodResponse	0	n/a	n/a	4	34	Cue	AvoidedLoss	True
327.875	4.05	Lose2	0.5143	0.0	Yes	2.625	0.0	n/a	GoodResponse	0	n/a	n/a	4	34	Fixation	AvoidedLoss	True
331.924	0.5	Lose2	0.5143	0.001	Yes	2.625	-0.001	2.0	GoodResponse	0	0.211	331.135	4	34	Target	AvoidedLoss	True
332.135	0.3	Lose2	0.5143	0.001	Yes	2.625	-0.001	2.0	GoodResponse	0	0.211	n/a	4	34	ButtonPress	AvoidedLoss	True
332.424	0.2	Lose2	0.5143	n/a	Yes	2.625	n/a	n/a	GoodResponse	0	n/a	n/a	4	34	Blank	AvoidedLoss	True
332.624	1.45	Lose2	0.5143	n/a	Yes	2.625	n/a	5.0	GoodResponse	0	0.033	331.657	4	34	Feedback	AvoidedLoss	True
334.073	2.625	Lose2	0.5143	n/a	Yes	2.625	n/a	n/a	GoodResponse	0	0.0	n/a	4	34	ISIslide	AvoidedLoss	True
336.722	0.25	Lose2	0.5278	0.0	Yes	2.678	0.022	n/a	GoodResponse	0	n/a	n/a	4	35	Cue	AvoidedLoss	True
336.972	4.0	Lose2	0.5278	0.0	Yes	2.678	0.0	n/a	GoodResponse	0	n/a	n/a	4	35	Fixation	AvoidedLoss	True
340.971	0.5	Lose2	0.5278	0.001	Yes	2.678	-0.001	2.0	GoodResponse	0	0.209	340.18	4	35	Target	AvoidedLoss	True
341.18	0.3	Lose2	0.5278	0.001	Yes	2.678	-0.001	2.0	GoodResponse	0	0.209	n/a	4	35	ButtonPress	AvoidedLoss	True
341.471	0.2	Lose2	0.5278	n/a	Yes	2.678	n/a	n/a	GoodResponse	0	n/a	n/a	4	35	Blank	AvoidedLoss	True
341.67	1.45	Lose2	0.5278	n/a	Yes	2.678	n/a	5.0	GoodResponse	0	0.011	340.681	4	35	Feedback	AvoidedLoss	True
343.12	2.678	Lose2	0.5278	n/a	Yes	2.678	n/a	n/a	GoodResponse	0	0.0	n/a	4	35	ISIslide	AvoidedLoss	True
345.819	0.25	Control	0.5135000000000001	0.0	No	2.681	0.019	n/a	NoResponse	0	n/a	n/a	4	36	Cue	Neutral	False
346.069	4.0	Control	0.5135000000000001	0.0	No	2.681	0.0	n/a	NoResponse	0	n/a	n/a	4	36	Fixation	Neutral	False
350.068	0.5	Control	0.5135000000000001	0.001	No	2.681	-0.001	n/a	NoResponse	0	n/a	n/a	4	36	Target	Neutral	False
350.567	0.2	Control	0.5135000000000001	n/a	No	2.681	n/a	n/a	NoResponse	0	n/a	n/a	4	36	Blank	Neutral	False
350.767	1.45	Control	0.5135000000000001	n/a	No	2.681	n/a	5.0	NoResponse	0	0.036	349.803	4	36	Feedback	Neutral	False
352.217	2.681	Control	0.5135000000000001	n/a	No	2.681	n/a	n/a	NoResponse	0	0.0	n/a	4	36	ISIslide	Neutral	False
354.916	0.25	Win2	0.5263	0.0	Yes	2.884	0.016	n/a	GoodResponse	1	n/a	n/a	5	37	Cue	Win	False
355.166	4.0	Win2	0.5263	0.0	Yes	2.884	0.0	2.0	GoodResponse	1	3.805	357.971	5	37	Fixation	Win	False
358.971	0.3	Win2	0.5263	0.0	Yes	2.884	0.0	2.0	GoodResponse	1	3.805	n/a	5	37	ButtonPress	Win	False
359.164	0.5	Win2	0.5263	0.002	Yes	2.884	-0.002	2.0	GoodResponse	1	0.189	358.353	5	37	Target	Win	False
359.353	0.3	Win2	0.5263	0.002	Yes	2.884	-0.002	2.0	GoodResponse	1	0.189	n/a	5	37	ButtonPress	Win	False
359.664	0.2	Win2	0.5263	n/a	Yes	2.884	n/a	n/a	GoodResponse	1	n/a	n/a	5	37	Blank	Win	False
359.864	1.45	Win2	0.5263	n/a	Yes	2.884	n/a	5.0	GoodResponse	1	0.012	358.876	5	37	Feedback	Win	False
361.314	2.884	Win2	0.5263	n/a	Yes	2.884	n/a	n/a	GoodResponse	1	0.0	n/a	5	37	ISIslide	Win	False
364.213	0.25	Lose2	0.5385	0.0	Yes	2.837	0.013	n/a	GoodResponse	0	n/a	n/a	5	38	Cue	AvoidedLoss	True
364.463	3.95	Lose2	0.5385	0.0	Yes	2.837	0.0	n/a	GoodResponse	0	n/a	n/a	5	38	Fixation	AvoidedLoss	True
368.411	0.5	Lose2	0.5385	0.002	Yes	2.837	-0.002	2.0	GoodResponse	0	0.148	367.559	5	38	Target	AvoidedLoss	True
368.559	0.3	Lose2	0.5385	0.002	Yes	2.837	-0.002	2.0	GoodResponse	0	0.148	n/a	5	38	ButtonPress	AvoidedLoss	True
368.911	0.2	Lose2	0.5385	n/a	Yes	2.837	n/a	n/a	GoodResponse	0	n/a	n/a	5	38	Blank	AvoidedLoss	True
369.111	1.45	Lose2	0.5385	n/a	Yes	2.837	n/a	5.0	GoodResponse	0	0.034	368.145	5	38	Feedback	AvoidedLoss	True
370.561	2.837	Lose2	0.5385	n/a	Yes	2.837	n/a	n/a	GoodResponse	0	0.0	n/a	5	38	ISIslide	AvoidedLoss	True
373.426	0.25	Win2	0.55	0.0	Yes	2.974	0.026	n/a	GoodResponse	1	n/a	n/a	6	39	Cue	Win	True
373.676	4.1	Win2	0.55	0.0	Yes	2.974	0.0	n/a	GoodResponse	1	n/a	n/a	6	39	Fixation	Win	True
377.775	0.5	Win2	0.55	0.001	Yes	2.974	-0.001	2.0	GoodResponse	1	0.183	376.958	6	39	Target	Win	True
377.958	0.3	Win2	0.55	0.001	Yes	2.974	-0.001	2.0	GoodResponse	1	0.183	n/a	6	39	ButtonPress	Win	True
378.275	0.2	Win2	0.55	n/a	Yes	2.974	n/a	n/a	GoodResponse	1	n/a	n/a	6	39	Blank	Win	True
378.474	1.45	Win2	0.55	n/a	Yes	2.974	n/a	5.0	GoodResponse	1	0.036	377.51	6	39	Feedback	Win	True
379.924	2.974	Win2	0.55	n/a	Yes	2.974	n/a	n/a	GoodResponse	1	0.0	n/a	6	39	ISIslide	Win	True
382.923	0.25	Win2	0.561	0.0	Yes	2.727	0.023	n/a	GoodResponse	1	n/a	n/a	7	40	Cue	Win	False
383.173	3.95	Win2	0.561	0.0	Yes	2.727	0.0	2.0	GoodResponse	1	3.939	386.112	7	40	Fixation	Win	False
387.112	0.3	Win2	0.561	0.0	Yes	2.727	0.0	2.0	GoodResponse	1	3.939	n/a	7	40	ButtonPress	Win	False
387.121	0.5	Win2	0.561	0.002	Yes	2.727	-0.002	2.0	GoodResponse	1	0.184	386.305	7	40	Target	Win	False
387.305	0.3	Win2	0.561	0.002	Yes	2.727	-0.002	2.0	GoodResponse	1	0.184	n/a	7	40	ButtonPress	Win	False
387.621	0.2	Win2	0.561	n/a	Yes	2.727	n/a	n/a	GoodResponse	1	n/a	n/a	7	40	Blank	Win	False
387.821	1.45	Win2	0.561	n/a	Yes	2.727	n/a	5.0	GoodResponse	1	0.007	386.828	7	40	Feedback	Win	False
389.271	2.727	Win2	0.561	n/a	Yes	2.727	n/a	n/a	GoodResponse	1	0.0	n/a	7	40	ISIslide	Win	False
392.02	0.25	Win2	0.5714	0.0	Yes	2.78	0.02	n/a	GoodResponse	1	n/a	n/a	8	41	Cue	Win	True
392.27	3.9	Win2	0.5714	0.0	Yes	2.78	0.0	n/a	GoodResponse	1	n/a	n/a	8	41	Fixation	Win	True
396.168	0.5	Win2	0.5714	0.002	Yes	2.78	-0.002	2.0	GoodResponse	1	0.21	395.378	8	41	Target	Win	True
396.378	0.3	Win2	0.5714	0.002	Yes	2.78	-0.002	2.0	GoodResponse	1	0.21	n/a	8	41	ButtonPress	Win	True
396.668	0.2	Win2	0.5714	n/a	Yes	2.78	n/a	n/a	GoodResponse	1	n/a	n/a	8	41	Blank	Win	True
396.868	1.45	Win2	0.5714	n/a	Yes	2.78	n/a	5.0	GoodResponse	1	0.032	395.9	8	41	Feedback	Win	True
398.318	2.78	Win2	0.5714	n/a	Yes	2.78	n/a	n/a	GoodResponse	1	0.0	n/a	8	41	ISIslide	Win	True
401.117	0.25	Control	0.5581	0.0	No	2.933	0.017	n/a	NoResponse	0	n/a	n/a	8	42	Cue	Neutral	False
401.367	3.85	Control	0.5581	0.0	No	2.933	0.0	n/a	NoResponse	0	n/a	n/a	8	42	Fixation	Neutral	False
405.215	0.5	Control	0.5581	0.002	No	2.933	-0.002	n/a	NoResponse	0	n/a	n/a	8	42	Target	Neutral	False
405.715	0.2	Control	0.5581	n/a	No	2.933	n/a	n/a	NoResponse	0	n/a	n/a	8	42	Blank	Neutral	False
405.915	1.45	Control	0.5581	n/a	No	2.933	n/a	5.0	NoResponse	0	0.01	404.925	8	42	Feedback	Neutral	False
407.364	2.933	Control	0.5581	n/a	No	2.933	n/a	n/a	NoResponse	0	0.0	n/a	8	42	ISIslide	Neutral	False
410.313	0.25	Win2	0.5682	0.001	Yes	3.187	0.013	n/a	GoodResponse	1	n/a	n/a	9	43	Cue	Win	True
410.563	4.0	Win2	0.5682	0.0	Yes	3.187	0.0	n/a	GoodResponse	1	n/a	n/a	9	43	Fixation	Win	True
414.562	0.5	Win2	0.5682	0.001	Yes	3.187	-0.001	2.0	GoodResponse	1	0.185	413.747	9	43	Target	Win	True
414.747	0.3	Win2	0.5682	0.001	Yes	3.187	-0.001	2.0	GoodResponse	1	0.185	n/a	9	43	ButtonPress	Win	True
415.062	0.2	Win2	0.5682	n/a	Yes	3.187	n/a	n/a	GoodResponse	1	n/a	n/a	9	43	Blank	Win	True
415.262	1.45	Win2	0.5682	n/a	Yes	3.187	n/a	5.0	GoodResponse	1	0.029	414.291	9	43	Feedback	Win	True
416.711	3.187	Win2	0.5682	n/a	Yes	3.187	n/a	n/a	GoodResponse	1	0.0	n/a	9	43	ISIslide	Win	True
419.927	0.25	Win2	0.5778	0.0	Yes	2.973	0.027	n/a	GoodResponse	1	n/a	n/a	10	44	Cue	Win	True
420.177	4.0	Win2	0.5778	0.0	Yes	2.973	0.0	n/a	GoodResponse	1	n/a	n/a	10	44	Fixation	Win	True
424.175	0.5	Win2	0.5778	0.002	Yes	2.973	-0.002	2.0	GoodResponse	1	0.191	423.366	10	44	Target	Win	True
424.366	0.3	Win2	0.5778	0.002	Yes	2.973	-0.002	2.0	GoodResponse	1	0.191	n/a	10	44	ButtonPress	Win	True
424.675	0.2	Win2	0.5778	n/a	Yes	2.973	n/a	n/a	GoodResponse	1	n/a	n/a	10	44	Blank	Win	True
424.875	1.45	Win2	0.5778	n/a	Yes	2.973	n/a	5.0	GoodResponse	1	0.026	423.901	10	44	Feedback	Win	True
426.325	2.973	Win2	0.5778	n/a	Yes	2.973	n/a	n/a	GoodResponse	1	0.0	n/a	10	44	ISIslide	Win	True
429.324	0.25	Control	0.5652	0.0	No	2.876	0.024	n/a	NoResponse	0	n/a	n/a	10	45	Cue	Neutral	False
429.573	4.1	Control	0.5652	0.001	No	2.876	-0.001	n/a	NoResponse	0	n/a	n/a	10	45	Fixation	Neutral	False
433.672	0.5	Control	0.5652	0.002	No	2.876	-0.002	n/a	NoResponse	0	n/a	n/a	10	45	Target	Neutral	False
434.172	0.2	Control	0.5652	n/a	No	2.876	n/a	n/a	NoResponse	0	n/a	n/a	10	45	Blank	Neutral	False
434.372	1.45	Control	0.5652	n/a	No	2.876	n/a	5.0	NoResponse	0	0.04	433.412	10	45	Feedback	Neutral	False
435.821	2.876	Control	0.5652	n/a	No	2.876	n/a	n/a	NoResponse	0	0.0	n/a	10	45	ISIslide	Neutral	False
438.72	0.25	Lose2	0.5745	0.0	Yes	3.38	0.02	n/a	GoodResponse	0	n/a	n/a	10	46	Cue	AvoidedLoss	True
438.97	4.0	Lose2	0.5745	0.0	Yes	3.38	0.0	n/a	GoodResponse	0	n/a	n/a	10	46	Fixation	AvoidedLoss	True
442.969	0.5	Lose2	0.5745	0.001	Yes	3.38	-0.001	2.0	GoodResponse	0	0.179	442.148	10	46	Target	AvoidedLoss	True
443.148	0.3	Lose2	0.5745	0.001	Yes	3.38	-0.001	2.0	GoodResponse	0	0.179	n/a	10	46	ButtonPress	AvoidedLoss	True
443.469	0.2	Lose2	0.5745	n/a	Yes	3.38	n/a	n/a	GoodResponse	0	n/a	n/a	10	46	Blank	AvoidedLoss	True
443.669	1.45	Lose2	0.5745	n/a	Yes	3.38	n/a	5.0	GoodResponse	0	0.011	442.68	10	46	Feedback	AvoidedLoss	True
445.118	3.38	Lose2	0.5745	n/a	Yes	3.38	n/a	n/a	GoodResponse	0	0.0	n/a	10	46	ISIslide	AvoidedLoss	True
448.517	0.25	Lose2	0.5832999999999999	0.0	Yes	2.683	0.017	n/a	GoodResponse	0	n/a	n/a	10	47	Cue	AvoidedLoss	True
448.767	4.0	Lose2	0.5832999999999999	0.0	Yes	2.683	0.0	n/a	GoodResponse	0	n/a	n/a	10	47	Fixation	AvoidedLoss	True
452.765	0.5	Lose2	0.5832999999999999	0.002	Yes	2.683	-0.002	2.0	GoodResponse	0	0.179	451.944	10	47	Target	AvoidedLoss	True
452.944	0.3	Lose2	0.5832999999999999	0.002	Yes	2.683	-0.002	2.0	GoodResponse	0	0.179	n/a	10	47	ButtonPress	AvoidedLoss	True
453.265	0.2	Lose2	0.5832999999999999	n/a	Yes	2.683	n/a	n/a	GoodResponse	0	n/a	n/a	10	47	Blank	AvoidedLoss	True
453.465	1.45	Lose2	0.5832999999999999	n/a	Yes	2.683	n/a	5.0	GoodResponse	0	0.02	452.485	10	47	Feedback	AvoidedLoss	True
454.915	2.683	Lose2	0.5832999999999999	n/a	Yes	2.683	n/a	n/a	GoodResponse	0	0.0	n/a	10	47	ISIslide	AvoidedLoss	True
457.63	0.25	Lose2	0.5918	0.0	Yes	3.02	0.03	n/a	GoodResponse	0	n/a	n/a	10	48	Cue	AvoidedLoss	True
457.88	3.95	Lose2	0.5918	0.0	Yes	3.02	0.0	n/a	GoodResponse	0	n/a	n/a	10	48	Fixation	AvoidedLoss	True
461.829	0.5	Lose2	0.5918	0.001	Yes	3.02	-0.001	2.0	GoodResponse	0	0.17	460.999	10	48	Target	AvoidedLoss	True
461.999	0.3	Lose2	0.5918	0.001	Yes	3.02	-0.001	2.0	GoodResponse	0	0.17	n/a	10	48	ButtonPress	AvoidedLoss	True
462.329	0.2	Lose2	0.5918	n/a	Yes	3.02	n/a	n/a	GoodResponse	0	n/a	n/a	10	48	Blank	AvoidedLoss	True
462.529	1.45	Lose2	0.5918	n/a	Yes	3.02	n/a	5.0	GoodResponse	0	0.03	461.559	10	48	Feedback	AvoidedLoss	True
463.978	3.02	Lose2	0.5918	n/a	Yes	3.02	n/a	n/a	GoodResponse	0	0.0	n/a	10	48	ISIslide	AvoidedLoss	True
467.027	0.25	Control	0.58	0.0	No	2.873	0.027	n/a	NoResponse	0	n/a	n/a	10	49	Cue	Neutral	False
467.277	4.0	Control	0.58	0.0	No	2.873	0.0	n/a	NoResponse	0	n/a	n/a	10	49	Fixation	Neutral	False
471.276	0.5	Control	0.58	0.001	No	2.873	-0.001	n/a	NoResponse	0	n/a	n/a	10	49	Target	Neutral	False
471.776	0.2	Control	0.58	n/a	No	2.873	n/a	n/a	NoResponse	0	n/a	n/a	10	49	Blank	Neutral	False
471.975	1.45	Control	0.58	n/a	No	2.873	n/a	5.0	NoResponse	0	0.047	471.022	10	49	Feedback	Neutral	False
473.425	2.873	Control	0.58	n/a	No	2.873	n/a	n/a	NoResponse	0	0.0	n/a	10	49	ISIslide	Neutral	False
476.324	0.25	Control	0.5686	0.0	No	2.776	0.024	n/a	NoResponse	0	n/a	n/a	10	50	Cue	Neutral	False
476.574	4.0	Control	0.5686	0.0	No	2.776	0.0	n/a	NoResponse	0	n/a	n/a	10	50	Fixation	Neutral	False
480.572	0.5	Control	0.5686	0.002	No	2.776	-0.002	n/a	NoResponse	0	n/a	n/a	10	50	Target	Neutral	False
481.072	0.2	Control	0.5686	n/a	No	2.776	n/a	n/a	NoResponse	0	n/a	n/a	10	50	Blank	Neutral	False
481.272	1.45	Control	0.5686	n/a	No	2.776	n/a	5.0	NoResponse	0	0.019	480.291	10	50	Feedback	Neutral	False
482.722	2.776	Control	0.5686	n/a	No	2.776	n/a	n/a	NoResponse	0	0.0	n/a	10	50	ISIslide	Neutral	False
485.521	0.25	Control	0.5577000000000001	0.0	No	2.729	0.021	n/a	NoResponse	0	n/a	n/a	10	51	Cue	Neutral	False
485.771	3.95	Control	0.5577000000000001	0.0	No	2.729	0.0	n/a	NoResponse	0	n/a	n/a	10	51	Fixation	Neutral	False
489.719	0.5	Control	0.5577000000000001	0.002	No	2.729	-0.002	n/a	NoResponse	0	n/a	n/a	10	51	Target	Neutral	False
490.219	0.2	Control	0.5577000000000001	n/a	No	2.729	n/a	n/a	NoResponse	0	n/a	n/a	10	51	Blank	Neutral	False
490.419	1.45	Control	0.5577000000000001	n/a	No	2.729	n/a	5.0	NoResponse	0	0.041	489.46	10	51	Feedback	Neutral	False
491.869	2.729	Control	0.5577000000000001	n/a	No	2.729	n/a	n/a	NoResponse	0	0.0	n/a	10	51	ISIslide	Neutral	False
494.618	0.25	Control	0.5472	0.0	No	2.632	0.018	n/a	NoResponse	0	n/a	n/a	10	52	Cue	Neutral	False
494.868	4.05	Control	0.5472	0.0	No	2.632	0.0	n/a	NoResponse	0	n/a	n/a	10	52	Fixation	Neutral	False
498.916	0.5	Control	0.5472	0.002	No	2.632	-0.002	n/a	NoResponse	0	n/a	n/a	10	52	Target	Neutral	False
499.416	0.2	Control	0.5472	n/a	No	2.632	n/a	n/a	NoResponse	0	n/a	n/a	10	52	Blank	Neutral	False
499.616	1.45	Control	0.5472	n/a	No	2.632	n/a	5.0	NoResponse	0	0.015	498.631	10	52	Feedback	Neutral	False
501.065	2.632	Control	0.5472	n/a	No	2.632	n/a	n/a	NoResponse	0	0.0	n/a	10	52	ISIslide	Neutral	False
503.714	0.25	Win2	0.537	0.001	No	2.936	0.014	n/a	NoResponse	0	n/a	n/a	10	53	Cue	MissedWin	True
503.964	4.05	Win2	0.537	0.0	No	2.936	0.0	2.0	NoResponse	0	4.012	506.976	10	53	Fixation	MissedWin	True
507.976	0.3	Win2	0.537	0.0	No	2.936	0.0	2.0	NoResponse	0	4.012	n/a	10	53	ButtonPress	MissedWin	True
508.013	0.5	Win2	0.537	0.001	No	2.936	-0.001	n/a	NoResponse	0	n/a	n/a	10	53	Target	MissedWin	True
508.513	0.2	Win2	0.537	n/a	No	2.936	n/a	n/a	NoResponse	0	n/a	n/a	10	53	Blank	MissedWin	True
508.713	1.45	Win2	0.537	n/a	No	2.936	n/a	5.0	NoResponse	0	0.04	507.753	10	53	Feedback	MissedWin	True
510.162	2.936	Win2	0.537	n/a	No	2.936	n/a	n/a	NoResponse	0	0.0	n/a	10	53	ISIslide	MissedWin	True
513.128	0.25	Win2	0.5455	0.0	Yes	2.722	0.028	n/a	GoodResponse	1	n/a	n/a	11	54	Cue	Win	True
513.378	3.95	Win2	0.5455	0.0	Yes	2.722	0.0	n/a	GoodResponse	1	n/a	n/a	11	54	Fixation	Win	True
517.326	0.5	Win2	0.5455	0.002	Yes	2.722	-0.002	2.0	GoodResponse	1	0.203	516.529	11	54	Target	Win	True
517.529	0.3	Win2	0.5455	0.002	Yes	2.722	-0.002	2.0	GoodResponse	1	0.203	n/a	11	54	ButtonPress	Win	True
517.826	0.2	Win2	0.5455	n/a	Yes	2.722	n/a	n/a	GoodResponse	1	n/a	n/a	11	54	Blank	Win	True
518.026	1.45	Win2	0.5455	n/a	Yes	2.722	n/a	5.0	GoodResponse	1	0.045	517.071	11	54	Feedback	Win	True
519.476	2.722	Win2	0.5455	n/a	Yes	2.722	n/a	n/a	GoodResponse	1	0.0	n/a	11	54	ISIslide	Win	True
522.225	0.25	Control	0.5357	0.0	No	3.025	0.025	n/a	NoResponse	0	n/a	n/a	11	55	Cue	Neutral	False
522.475	3.95	Control	0.5357	0.0	No	3.025	0.0	n/a	NoResponse	0	n/a	n/a	11	55	Fixation	Neutral	False
526.423	0.5	Control	0.5357	0.002	No	3.025	-0.002	n/a	NoResponse	0	n/a	n/a	11	55	Target	Neutral	False
526.923	0.2	Control	0.5357	n/a	No	3.025	n/a	n/a	NoResponse	0	n/a	n/a	11	55	Blank	Neutral	False
527.123	1.45	Control	0.5357	n/a	No	3.025	n/a	5.0	NoResponse	0	0.021	526.144	11	55	Feedback	Neutral	False
528.573	3.025	Control	0.5357	n/a	No	3.025	n/a	n/a	NoResponse	0	0.0	n/a	11	55	ISIslide	Neutral	False
531.621	0.25	Control	0.5263	0.001	No	2.829	0.021	n/a	NoResponse	0	n/a	n/a	11	56	Cue	Neutral	False
531.871	3.95	Control	0.5263	0.0	No	2.829	0.0	n/a	NoResponse	0	n/a	n/a	11	56	Fixation	Neutral	False
535.82	0.5	Control	0.5263	0.001	No	2.829	-0.001	n/a	NoResponse	0	n/a	n/a	11	56	Target	Neutral	False
536.32	0.2	Control	0.5263	n/a	No	2.829	n/a	n/a	NoResponse	0	n/a	n/a	11	56	Blank	Neutral	False
536.52	1.45	Control	0.5263	n/a	No	2.829	n/a	5.0	NoResponse	0	0.039	535.559	11	56	Feedback	Neutral	False
537.969	2.829	Control	0.5263	n/a	No	2.829	n/a	n/a	NoResponse	0	0.0	n/a	11	56	ISIslide	Neutral	False
540.818	0.25	Control	0.5172	0.0	No	3.482	0.018	n/a	NoResponse	0	n/a	n/a	11	57	Cue	Neutral	False
541.068	4.0	Control	0.5172	0.0	No	3.482	0.0	n/a	NoResponse	0	n/a	n/a	11	57	Fixation	Neutral	False
545.067	0.5	Control	0.5172	0.001	No	3.482	-0.001	n/a	NoResponse	0	n/a	n/a	11	57	Target	Neutral	False
545.567	0.2	Control	0.5172	n/a	No	3.482	n/a	n/a	NoResponse	0	n/a	n/a	11	57	Blank	Neutral	False
545.767	1.45	Control	0.5172	n/a	No	3.482	n/a	5.0	NoResponse	0	0.011	544.778	11	57	Feedback	Neutral	False
547.216	3.482	Control	0.5172	n/a	No	3.482	n/a	n/a	NoResponse	0	0.0	n/a	11	57	ISIslide	Neutral	False
550.715	0.25	Win2	0.5254	0.0	Yes	2.735	0.015	n/a	GoodResponse	1	n/a	n/a	12	58	Cue	Win	True
550.965	4.05	Win2	0.5254	0.0	Yes	2.735	0.0	n/a	GoodResponse	1	n/a	n/a	12	58	Fixation	Win	True
555.013	0.5	Win2	0.5254	0.002	Yes	2.735	-0.002	2.0	GoodResponse	1	0.182	554.195	12	58	Target	Win	True
555.195	0.3	Win2	0.5254	0.002	Yes	2.735	-0.002	2.0	GoodResponse	1	0.182	n/a	12	58	ButtonPress	Win	True
555.513	0.2	Win2	0.5254	n/a	Yes	2.735	n/a	n/a	GoodResponse	1	n/a	n/a	12	58	Blank	Win	True
555.713	1.45	Win2	0.5254	n/a	Yes	2.735	n/a	5.0	GoodResponse	1	0.016	554.729	12	58	Feedback	Win	True
557.163	2.735	Win2	0.5254	n/a	Yes	2.735	n/a	n/a	GoodResponse	1	0.0	n/a	12	58	ISIslide	Win	True
559.928	0.25	Lose2	0.5167	0.0	No	2.672	0.028	n/a	PrematurePress	-1	n/a	n/a	11	59	Cue	Loss	True
560.178	4.0	Lose2	0.5167	0.0	No	2.672	0.0	n/a	PrematurePress	-1	n/a	n/a	11	59	Fixation	Loss	True
564.177	0.5	Lose2	0.5167	0.001	No	2.672	-0.001	2.0	PrematurePress	-1	0.075	563.252	11	59	Target	Loss	True
564.252	0.3	Lose2	0.5167	0.001	No	2.672	-0.001	2.0	PrematurePress	-1	0.075	n/a	11	59	ButtonPress	Loss	True
564.677	0.2	Lose2	0.5167	n/a	No	2.672	n/a	n/a	PrematurePress	-1	n/a	n/a	11	59	Blank	Loss	True
564.877	1.45	Lose2	0.5167	n/a	No	2.672	n/a	5.0	PrematurePress	-1	0.022	563.899	11	59	Feedback	Loss	True
566.326	2.672	Lose2	0.5167	n/a	No	2.672	n/a	n/a	PrematurePress	-1	0.0	n/a	11	59	ISIslide	Loss	True
569.025	0.25	Control	0.5082	0.0	No	2.675	0.025	n/a	NoResponse	0	n/a	n/a	11	60	Cue	Neutral	False
569.275	4.0	Control	0.5082	0.0	No	2.675	0.0	n/a	NoResponse	0	n/a	n/a	11	60	Fixation	Neutral	False
573.274	0.5	Control	0.5082	0.001	No	2.675	-0.001	n/a	NoResponse	0	n/a	n/a	11	60	Target	Neutral	False
573.774	0.2	Control	0.5082	n/a	No	2.675	n/a	n/a	NoResponse	0	n/a	n/a	11	60	Blank	Neutral	False
573.974	1.45	Control	0.5082	n/a	No	2.675	n/a	5.0	NoResponse	0	0.048	573.022	11	60	Feedback	Neutral	False
575.423	2.675	Control	0.5082	n/a	No	2.675	n/a	n/a	NoResponse	0	0.0	n/a	11	60	ISIslide	Neutral	False
578.122	0.25	Lose2	0.5161	0.0	Yes	2.978	0.022	n/a	GoodResponse	0	n/a	n/a	11	61	Cue	AvoidedLoss	True
578.372	4.0	Lose2	0.5161	0.0	Yes	2.978	0.0	n/a	GoodResponse	0	n/a	n/a	11	61	Fixation	AvoidedLoss	True
582.371	0.5	Lose2	0.5161	0.001	Yes	2.978	-0.001	2.0	GoodResponse	0	0.174	581.545	11	61	Target	AvoidedLoss	True
582.545	0.3	Lose2	0.5161	0.001	Yes	2.978	-0.001	2.0	GoodResponse	0	0.174	n/a	11	61	ButtonPress	AvoidedLoss	True
582.87	0.2	Lose2	0.5161	n/a	Yes	2.978	n/a	n/a	GoodResponse	0	n/a	n/a	11	61	Blank	AvoidedLoss	True
583.07	1.45	Lose2	0.5161	n/a	Yes	2.978	n/a	5.0	GoodResponse	0	0.025	582.095	11	61	Feedback	AvoidedLoss	True
584.52	2.978	Lose2	0.5161	n/a	Yes	2.978	n/a	n/a	GoodResponse	0	0.0	n/a	11	61	ISIslide	AvoidedLoss	True
587.519	0.25	Lose2	0.5238	0.0	Yes	2.881	0.019	n/a	GoodResponse	0	n/a	n/a	11	62	Cue	AvoidedLoss	True
587.769	3.9	Lose2	0.5238	0.0	Yes	2.881	0.0	n/a	GoodResponse	0	n/a	n/a	11	62	Fixation	AvoidedLoss	True
591.667	0.5	Lose2	0.5238	0.002	Yes	2.881	-0.002	2.0	GoodResponse	0	0.207	590.874	11	62	Target	AvoidedLoss	True
591.874	0.3	Lose2	0.5238	0.002	Yes	2.881	-0.002	2.0	GoodResponse	0	0.207	n/a	11	62	ButtonPress	AvoidedLoss	True
592.167	0.2	Lose2	0.5238	n/a	Yes	2.881	n/a	n/a	GoodResponse	0	n/a	n/a	11	62	Blank	AvoidedLoss	True
592.367	1.45	Lose2	0.5238	n/a	Yes	2.881	n/a	5.0	GoodResponse	0	0.045	591.412	11	62	Feedback	AvoidedLoss	True
593.817	2.881	Lose2	0.5238	n/a	Yes	2.881	n/a	n/a	GoodResponse	0	0.0	n/a	11	62	ISIslide	AvoidedLoss	True
596.716	0.25	Lose2	0.5156000000000001	0.0	No	2.634	0.016	n/a	PrematurePress	-1	n/a	n/a	10	63	Cue	Loss	True
596.966	4.05	Lose2	0.5156000000000001	0.0	No	2.634	0.0	n/a	PrematurePress	-1	n/a	n/a	10	63	Fixation	Loss	True
601.014	0.5	Lose2	0.5156000000000001	0.002	No	2.634	-0.002	2.0	PrematurePress	-1	0.009	600.023	10	63	Target	Loss	True
601.023	0.3	Lose2	0.5156000000000001	0.002	No	2.634	-0.002	2.0	PrematurePress	-1	0.009	n/a	10	63	ButtonPress	Loss	True
601.514	0.2	Lose2	0.5156000000000001	n/a	No	2.634	n/a	n/a	PrematurePress	-1	n/a	n/a	10	63	Blank	Loss	True
601.714	1.45	Lose2	0.5156000000000001	n/a	No	2.634	n/a	5.0	PrematurePress	-1	0.015	600.729	10	63	Feedback	Loss	True
603.163	2.634	Lose2	0.5156000000000001	n/a	No	2.634	n/a	n/a	PrematurePress	-1	0.0	n/a	10	63	ISIslide	Loss	True
605.813	0.25	Win2	0.5231	0.0	Yes	3.137	0.013	n/a	GoodResponse	1	n/a	n/a	11	64	Cue	Win	True
606.062	4.15	Win2	0.5231	0.001	Yes	3.137	-0.001	n/a	GoodResponse	1	n/a	n/a	11	64	Fixation	Win	True
610.211	0.5	Win2	0.5231	0.002	Yes	3.137	-0.002	2.0	GoodResponse	1	0.177	609.388	11	64	Target	Win	True
610.388	0.3	Win2	0.5231	0.002	Yes	3.137	-0.002	2.0	GoodResponse	1	0.177	n/a	11	64	ButtonPress	Win	True
610.711	0.2	Win2	0.5231	n/a	Yes	3.137	n/a	n/a	GoodResponse	1	n/a	n/a	11	64	Blank	Win	True
610.911	1.45	Win2	0.5231	n/a	Yes	3.137	n/a	5.0	GoodResponse	1	0.037	609.948	11	64	Feedback	Win	True
612.36	3.137	Win2	0.5231	n/a	Yes	3.137	n/a	n/a	GoodResponse	1	0.0	n/a	11	64	ISIslide	Win	True
615.526	0.25	Control	0.5152	0.0	No	2.774	0.026	n/a	NoResponse	0	n/a	n/a	11	65	Cue	Neutral	False
615.776	4.0	Control	0.5152	0.0	No	2.774	0.0	n/a	NoResponse	0	n/a	n/a	11	65	Fixation	Neutral	False
619.774	0.5	Control	0.5152	0.002	No	2.774	-0.002	n/a	NoResponse	0	n/a	n/a	11	65	Target	Neutral	False
620.274	0.2	Control	0.5152	n/a	No	2.774	n/a	n/a	NoResponse	0	n/a	n/a	11	65	Blank	Neutral	False
620.474	1.45	Control	0.5152	n/a	No	2.774	n/a	5.0	NoResponse	0	0.035	619.509	11	65	Feedback	Neutral	False
621.924	2.774	Control	0.5152	n/a	No	2.774	n/a	n/a	NoResponse	0	0.0	n/a	11	65	ISIslide	Neutral	False
624.723	0.25	Win2	0.5224	0.0	Yes	2.777	0.023	n/a	GoodResponse	1	n/a	n/a	12	66	Cue	Win	True
624.973	3.9	Win2	0.5224	0.0	Yes	2.777	0.0	n/a	GoodResponse	1	n/a	n/a	12	66	Fixation	Win	True
628.871	0.5	Win2	0.5224	0.002	Yes	2.777	-0.002	2.0	GoodResponse	1	0.19	628.061	12	66	Target	Win	True
629.061	0.3	Win2	0.5224	0.002	Yes	2.777	-0.002	2.0	GoodResponse	1	0.19	n/a	12	66	ButtonPress	Win	True
629.371	0.2	Win2	0.5224	n/a	Yes	2.777	n/a	n/a	GoodResponse	1	n/a	n/a	12	66	Blank	Win	True
629.571	1.45	Win2	0.5224	n/a	Yes	2.777	n/a	5.0	GoodResponse	1	0.011	628.582	12	66	Feedback	Win	True
631.02	2.777	Win2	0.5224	n/a	Yes	2.777	n/a	n/a	GoodResponse	1	0.0	n/a	12	66	ISIslide	Win	True
633.819	0.25	Control	0.5146999999999999	0.001	No	2.731	0.019	n/a	NoResponse	0	n/a	n/a	12	67	Cue	Neutral	False
634.069	3.95	Control	0.5146999999999999	0.0	No	2.731	0.0	n/a	NoResponse	0	n/a	n/a	12	67	Fixation	Neutral	False
638.018	0.5	Control	0.5146999999999999	0.001	No	2.731	-0.001	n/a	NoResponse	0	n/a	n/a	12	67	Target	Neutral	False
638.518	0.2	Control	0.5146999999999999	n/a	No	2.731	n/a	n/a	NoResponse	0	n/a	n/a	12	67	Blank	Neutral	False
638.718	1.45	Control	0.5146999999999999	n/a	No	2.731	n/a	5.0	NoResponse	0	0.035	637.753	12	67	Feedback	Neutral	False
640.167	2.731	Control	0.5146999999999999	n/a	No	2.731	n/a	n/a	NoResponse	0	0.0	n/a	12	67	ISIslide	Neutral	False
642.916	0.25	Win2	0.5217	0.0	Yes	3.084	0.016	n/a	GoodResponse	1	n/a	n/a	13	68	Cue	Win	True
643.166	4.0	Win2	0.5217	0.0	Yes	3.084	0.0	n/a	GoodResponse	1	n/a	n/a	13	68	Fixation	Win	True
647.165	0.5	Win2	0.5217	0.001	Yes	3.084	-0.001	2.0	GoodResponse	1	0.146	646.311	13	68	Target	Win	True
647.311	0.3	Win2	0.5217	0.001	Yes	3.084	-0.001	2.0	GoodResponse	1	0.146	n/a	13	68	ButtonPress	Win	True
647.665	0.2	Win2	0.5217	n/a	Yes	3.084	n/a	n/a	GoodResponse	1	n/a	n/a	13	68	Blank	Win	True
647.865	1.45	Win2	0.5217	n/a	Yes	3.084	n/a	5.0	GoodResponse	1	0.01	646.875	13	68	Feedback	Win	True
649.314	3.084	Win2	0.5217	n/a	Yes	3.084	n/a	n/a	GoodResponse	1	0.0	n/a	13	68	ISIslide	Win	True
652.43	0.25	Win2	0.5286	0.0	Yes	3.22	0.03	n/a	GoodResponse	1	n/a	n/a	14	69	Cue	Win	True
652.68	3.95	Win2	0.5286	0.0	Yes	3.22	0.0	n/a	GoodResponse	1	n/a	n/a	14	69	Fixation	Win	True
656.628	0.5	Win2	0.5286	0.002	Yes	3.22	-0.002	2.0	GoodResponse	1	0.332	655.96	14	69	Target	Win	True
656.96	0.3	Win2	0.5286	0.002	Yes	3.22	-0.002	2.0	GoodResponse	1	0.332	n/a	14	69	ButtonPress	Win	True
657.128	0.2	Win2	0.5286	n/a	Yes	3.22	n/a	n/a	GoodResponse	1	n/a	n/a	14	69	Blank	Win	True
657.328	1.45	Win2	0.5286	n/a	Yes	3.22	n/a	5.0	GoodResponse	1	0.011	656.339	14	69	Feedback	Win	True
658.778	3.22	Win2	0.5286	n/a	Yes	3.22	n/a	n/a	GoodResponse	1	0.0	n/a	14	69	ISIslide	Win	True
662.026	0.25	Lose2	0.5352	0.001	Yes	3.024	0.026	n/a	GoodResponse	0	n/a	n/a	14	70	Cue	AvoidedLoss	True
662.276	4.05	Lose2	0.5352	0.0	Yes	3.024	0.0	n/a	GoodResponse	0	n/a	n/a	14	70	Fixation	AvoidedLoss	True
666.325	0.5	Lose2	0.5352	0.001	Yes	3.024	-0.001	2.0	GoodResponse	0	0.178	665.503	14	70	Target	AvoidedLoss	True
666.503	0.3	Lose2	0.5352	0.001	Yes	3.024	-0.001	2.0	GoodResponse	0	0.178	n/a	14	70	ButtonPress	AvoidedLoss	True
666.825	0.2	Lose2	0.5352	n/a	Yes	3.024	n/a	n/a	GoodResponse	0	n/a	n/a	14	70	Blank	AvoidedLoss	True
667.025	1.45	Lose2	0.5352	n/a	Yes	3.024	n/a	5.0	GoodResponse	0	0.021	666.046	14	70	Feedback	AvoidedLoss	True
668.474	3.024	Lose2	0.5352	n/a	Yes	3.024	n/a	n/a	GoodResponse	0	0.0	n/a	14	70	ISIslide	AvoidedLoss	True
671.523	0.25	Win2	0.5417000000000001	0.0	Yes	2.727	0.023	n/a	GoodResponse	1	n/a	n/a	15	71	Cue	Win	True
671.773	4.05	Win2	0.5417000000000001	0.0	Yes	2.727	0.0	n/a	GoodResponse	1	n/a	n/a	15	71	Fixation	Win	True
675.822	0.5	Win2	0.5417000000000001	0.001	Yes	2.727	-0.001	2.0	GoodResponse	1	0.186	675.008	15	71	Target	Win	True
676.008	0.3	Win2	0.5417000000000001	0.001	Yes	2.727	-0.001	2.0	GoodResponse	1	0.186	n/a	15	71	ButtonPress	Win	True
676.321	0.2	Win2	0.5417000000000001	n/a	Yes	2.727	n/a	n/a	GoodResponse	1	n/a	n/a	15	71	Blank	Win	True
676.521	1.45	Win2	0.5417000000000001	n/a	Yes	2.727	n/a	5.0	GoodResponse	1	0.036	675.557	15	71	Feedback	Win	True
677.971	2.727	Win2	0.5417000000000001	n/a	Yes	2.727	n/a	n/a	GoodResponse	1	0.0	n/a	15	71	ISIslide	Win	True
680.72	0.25	Win2	0.5478999999999999	0.0	Yes	2.78	0.02	n/a	GoodResponse	1	n/a	n/a	16	72	Cue	Win	False
680.97	4.1	Win2	0.5478999999999999	0.0	Yes	2.78	0.0	2.0	GoodResponse	1	0.269	680.239	16	72	Fixation	Win	False
681.239	0.3	Win2	0.5478999999999999	0.0	Yes	2.78	0.0	2.0	GoodResponse	1	0.269	n/a	16	72	ButtonPress	Win	False
685.068	0.5	Win2	0.5478999999999999	0.002	Yes	2.78	-0.002	2.0	GoodResponse	1	0.216	684.284	16	72	Target	Win	False
685.284	0.3	Win2	0.5478999999999999	0.002	Yes	2.78	-0.002	2.0	GoodResponse	1	0.216	n/a	16	72	ButtonPress	Win	False
685.568	0.2	Win2	0.5478999999999999	n/a	Yes	2.78	n/a	n/a	GoodResponse	1	n/a	n/a	16	72	Blank	Win	False
685.768	1.45	Win2	0.5478999999999999	n/a	Yes	2.78	n/a	5.0	GoodResponse	1	0.009	684.777	16	72	Feedback	Win	False
687.218	2.78	Win2	0.5478999999999999	n/a	Yes	2.78	n/a	n/a	GoodResponse	1	0.0	n/a	16	72	ISIslide	Win	False
690.017	0.25	Win2	0.5540999999999999	0.0	Yes	2.683	0.017	n/a	GoodResponse	1	n/a	n/a	17	73	Cue	Win	False
690.267	4.0	Win2	0.5540999999999999	0.0	Yes	2.683	0.0	2.0	GoodResponse	1	3.896	693.163	17	73	Fixation	Win	False
694.163	0.3	Win2	0.5540999999999999	0.0	Yes	2.683	0.0	2.0	GoodResponse	1	3.896	n/a	17	73	ButtonPress	Win	False
694.265	0.5	Win2	0.5540999999999999	0.002	Yes	2.683	-0.002	2.0	GoodResponse	1	0.215	693.48	17	73	Target	Win	False
694.48	0.3	Win2	0.5540999999999999	0.002	Yes	2.683	-0.002	2.0	GoodResponse	1	0.215	n/a	17	73	ButtonPress	Win	False
694.765	0.2	Win2	0.5540999999999999	n/a	Yes	2.683	n/a	n/a	GoodResponse	1	n/a	n/a	17	73	Blank	Win	False
694.965	1.45	Win2	0.5540999999999999	n/a	Yes	2.683	n/a	5.0	GoodResponse	1	0.032	693.997	17	73	Feedback	Win	False
696.415	2.683	Win2	0.5540999999999999	n/a	Yes	2.683	n/a	n/a	GoodResponse	1	0.0	n/a	17	73	ISIslide	Win	False
699.13	0.25	Lose2	0.56	0.0	Yes	2.62	0.03	n/a	GoodResponse	0	n/a	n/a	17	74	Cue	AvoidedLoss	True
699.38	4.05	Lose2	0.56	0.0	Yes	2.62	0.0	n/a	GoodResponse	0	n/a	n/a	17	74	Fixation	AvoidedLoss	True
703.429	0.5	Lose2	0.56	0.001	Yes	2.62	-0.001	2.0	GoodResponse	0	0.19	702.619	17	74	Target	AvoidedLoss	True
703.619	0.3	Lose2	0.56	0.001	Yes	2.62	-0.001	2.0	GoodResponse	0	0.19	n/a	17	74	ButtonPress	AvoidedLoss	True
703.929	0.2	Lose2	0.56	n/a	Yes	2.62	n/a	n/a	GoodResponse	0	n/a	n/a	17	74	Blank	AvoidedLoss	True
704.128	1.45	Lose2	0.56	n/a	Yes	2.62	n/a	5.0	GoodResponse	0	0.04	703.168	17	74	Feedback	AvoidedLoss	True
705.578	2.62	Lose2	0.56	n/a	Yes	2.62	n/a	n/a	GoodResponse	0	0.0	n/a	17	74	ISIslide	AvoidedLoss	True
708.227	0.25	Lose2	0.5658	0.0	Yes	2.923	0.027	n/a	GoodResponse	0	n/a	n/a	17	75	Cue	AvoidedLoss	True
708.477	3.95	Lose2	0.5658	0.0	Yes	2.923	0.0	n/a	GoodResponse	0	n/a	n/a	17	75	Fixation	AvoidedLoss	True
712.426	0.5	Lose2	0.5658	0.001	Yes	2.923	-0.001	2.0	GoodResponse	0	0.207	711.633	17	75	Target	AvoidedLoss	True
712.633	0.3	Lose2	0.5658	0.001	Yes	2.923	-0.001	2.0	GoodResponse	0	0.207	n/a	17	75	ButtonPress	AvoidedLoss	True
712.925	0.2	Lose2	0.5658	n/a	Yes	2.923	n/a	n/a	GoodResponse	0	n/a	n/a	17	75	Blank	AvoidedLoss	True
713.125	1.45	Lose2	0.5658	n/a	Yes	2.923	n/a	5.0	GoodResponse	0	0.018	712.143	17	75	Feedback	AvoidedLoss	True
714.575	2.923	Lose2	0.5658	n/a	Yes	2.923	n/a	n/a	GoodResponse	0	0.0	n/a	17	75	ISIslide	AvoidedLoss	True
717.524	0.25	Control	0.5584	0.0	No	3.226	0.024	n/a	NoResponse	0	n/a	n/a	17	76	Cue	Neutral	False
717.774	4.05	Control	0.5584	0.0	No	3.226	0.0	n/a	NoResponse	0	n/a	n/a	17	76	Fixation	Neutral	False
721.822	0.5	Control	0.5584	0.002	No	3.226	-0.002	n/a	NoResponse	0	n/a	n/a	17	76	Target	Neutral	False
722.322	0.2	Control	0.5584	n/a	No	3.226	n/a	n/a	NoResponse	0	n/a	n/a	17	76	Blank	Neutral	False
722.522	1.45	Control	0.5584	n/a	No	3.226	n/a	5.0	NoResponse	0	0.036	721.558	17	76	Feedback	Neutral	False
723.972	3.226	Control	0.5584	n/a	No	3.226	n/a	n/a	NoResponse	0	0.0	n/a	17	76	ISIslide	Neutral	False
727.221	0.25	Lose2	0.5640999999999999	0.0	Yes	2.579	0.021	n/a	GoodResponse	0	n/a	n/a	17	77	Cue	AvoidedLoss	True
727.47	3.95	Lose2	0.5640999999999999	0.001	Yes	2.579	-0.001	n/a	GoodResponse	0	n/a	n/a	17	77	Fixation	AvoidedLoss	True
731.419	0.5	Lose2	0.5640999999999999	0.002	Yes	2.579	-0.002	2.0	GoodResponse	0	0.203	730.622	17	77	Target	AvoidedLoss	True
731.622	0.3	Lose2	0.5640999999999999	0.002	Yes	2.579	-0.002	2.0	GoodResponse	0	0.203	n/a	17	77	ButtonPress	AvoidedLoss	True
731.919	0.2	Lose2	0.5640999999999999	n/a	Yes	2.579	n/a	n/a	GoodResponse	0	n/a	n/a	17	77	Blank	AvoidedLoss	True
732.119	1.45	Lose2	0.5640999999999999	n/a	Yes	2.579	n/a	5.0	GoodResponse	0	0.048	731.167	17	77	Feedback	AvoidedLoss	True
733.568	2.579	Lose2	0.5640999999999999	n/a	Yes	2.579	n/a	n/a	GoodResponse	0	0.0	n/a	17	77	ISIslide	AvoidedLoss	True
