onset	duration	cue_type	current_mean_accuracy	duration_error	is_hit	isi_adjusted	onset_delay	response	response_type	reward	rt	rt_time	total_reward	trial_number	trial_phase	trial_type	one_press
11.11	0.25	Control	1.0	0.0	Yes	2.94	0.01	n/a	GoodResponse	0	n/a	n/a	0	0	Cue	Neutral	True
11.361	3.85	Control	1.0	0.0	Yes	2.94	0.001	n/a	GoodResponse	0	n/a	n/a	0	0	Fixation	Neutral	True
15.206	0.4	Control	1.0	0.004	Yes	2.94	-0.004	2.0	GoodResponse	0	0.245	14.451	0	0	Target	Neutral	True
15.451	0.3	Control	1.0	0.004	Yes	2.94	-0.004	2.0	GoodResponse	0	0.245	n/a	0	0	ButtonPress	Neutral	True
15.607	0.3	Control	1.0	n/a	Yes	2.94	n/a	n/a	GoodResponse	0	n/a	n/a	0	0	Blank	Neutral	True
15.908	1.45	Control	1.0	n/a	Yes	2.94	n/a	5.0	GoodResponse	0	0.018	14.926	0	0	Feedback	Neutral	True
17.362	2.94	Control	1.0	n/a	Yes	2.94	n/a	n/a	GoodResponse	0	0.0	n/a	0	0	ISIslide	Neutral	True
20.371	0.25	Lose2	1.0	0.0	Yes	2.729	0.071	n/a	GoodResponse	0	n/a	n/a	0	1	Cue	AvoidedLoss	True
20.622	4.0	Lose2	1.0	0.0	Yes	2.729	0.001	n/a	GoodResponse	0	n/a	n/a	0	1	Fixation	AvoidedLoss	True
24.617	0.39	Lose2	1.0	0.004	Yes	2.729	-0.004	2.0	GoodResponse	0	0.209	23.826	0	1	Target	AvoidedLoss	True
24.826	0.3	Lose2	1.0	0.004	Yes	2.729	-0.004	2.0	GoodResponse	0	0.209	n/a	0	1	ButtonPress	AvoidedLoss	True
25.018	0.31	Lose2	1.0	n/a	Yes	2.729	n/a	n/a	GoodResponse	0	n/a	n/a	0	1	Blank	AvoidedLoss	True
25.319	1.45	Lose2	1.0	n/a	Yes	2.729	n/a	5.0	GoodResponse	0	0.021	24.34	0	1	Feedback	AvoidedLoss	True
26.773	2.729	Lose2	1.0	n/a	Yes	2.729	n/a	n/a	GoodResponse	0	0.0	n/a	0	1	ISIslide	AvoidedLoss	True
29.515	0.25	Control	1.0	0.0	Yes	2.585	0.015	n/a	GoodResponse	0	n/a	n/a	0	2	Cue	Neutral	True
29.766	4.1	Control	1.0	0.0	Yes	2.585	0.001	n/a	GoodResponse	0	n/a	n/a	0	2	Fixation	Neutral	True
33.861	0.38	Control	1.0	0.004	Yes	2.585	-0.004	2.0	GoodResponse	0	0.219	33.08	0	2	Target	Neutral	True
34.08	0.3	Control	1.0	0.004	Yes	2.585	-0.004	2.0	GoodResponse	0	0.219	n/a	0	2	ButtonPress	Neutral	True
34.246	0.32	Control	1.0	n/a	Yes	2.585	n/a	n/a	GoodResponse	0	n/a	n/a	0	2	Blank	Neutral	True
34.563	1.45	Control	1.0	n/a	Yes	2.585	n/a	5.0	GoodResponse	0	0.046	33.609	0	2	Feedback	Neutral	True
36.018	2.585	Control	1.0	n/a	Yes	2.585	n/a	n/a	GoodResponse	0	0.0	n/a	0	2	ISIslide	Neutral	True
38.676	0.25	Win2	1.0	0.0	Yes	2.774	0.076	n/a	GoodResponse	1	n/a	n/a	1	3	Cue	Win	True
38.926	3.95	Win2	1.0	0.001	Yes	2.774	0.0	n/a	GoodResponse	1	n/a	n/a	1	3	Fixation	Win	True
42.872	0.37	Win2	1.0	0.004	Yes	2.774	-0.004	2.0	GoodResponse	1	0.199	42.071	1	3	Target	Win	True
43.071	0.3	Win2	1.0	0.004	Yes	2.774	-0.004	2.0	GoodResponse	1	0.199	n/a	1	3	ButtonPress	Win	True
43.256	0.33	Win2	1.0	n/a	Yes	2.774	n/a	n/a	GoodResponse	1	n/a	n/a	1	3	Blank	Win	True
43.574	1.45	Win2	1.0	n/a	Yes	2.774	n/a	5.0	GoodResponse	1	0.01	42.584	1	3	Feedback	Win	True
45.028	2.774	Win2	1.0	n/a	Yes	2.774	n/a	n/a	GoodResponse	1	0.0	n/a	1	3	ISIslide	Win	True
47.82	0.25	Win2	1.0	0.0	Yes	3.28	0.02	n/a	GoodResponse	1	n/a	n/a	2	4	Cue	Win	True
48.07	4.0	Win2	1.0	0.001	Yes	3.28	0.0	n/a	GoodResponse	1	n/a	n/a	2	4	Fixation	Win	True
52.066	0.36	Win2	1.0	0.004	Yes	3.28	-0.004	2.0	GoodResponse	1	0.229	51.295	2	4	Target	Win	True
52.295	0.3	Win2	1.0	0.004	Yes	3.28	-0.004	2.0	GoodResponse	1	0.229	n/a	2	4	ButtonPress	Win	True
52.433	0.34	Win2	1.0	n/a	Yes	3.28	n/a	n/a	GoodResponse	1	n/a	n/a	2	4	Blank	Win	True
52.768	1.45	Win2	1.0	n/a	Yes	3.28	n/a	5.0	GoodResponse	1	0.035	51.803	2	4	Feedback	Win	True
54.222	3.28	Win2	1.0	n/a	Yes	3.28	n/a	n/a	GoodResponse	1	0.0	n/a	2	4	ISIslide	Win	True
57.515	0.25	Win2	1.0	0.0	Yes	2.785	0.015	n/a	GoodResponse	1	n/a	n/a	3	5	Cue	Win	True
57.766	4.0	Win2	1.0	0.0	Yes	2.785	0.001	n/a	GoodResponse	1	n/a	n/a	3	5	Fixation	Win	True
61.761	0.35	Win2	1.0	0.004	Yes	2.785	-0.004	2.0	GoodResponse	1	0.227	60.988	3	5	Target	Win	True
61.988	0.3	Win2	1.0	0.004	Yes	2.785	-0.004	2.0	GoodResponse	1	0.227	n/a	3	5	ButtonPress	Win	True
62.112	0.35	Win2	1.0	n/a	Yes	2.785	n/a	n/a	GoodResponse	1	n/a	n/a	3	5	Blank	Win	True
62.463	1.45	Win2	1.0	n/a	Yes	2.785	n/a	5.0	GoodResponse	1	0.047	61.51	3	5	Feedback	Win	True
63.918	2.785	Win2	1.0	n/a	Yes	2.785	n/a	n/a	GoodResponse	1	0.0	n/a	3	5	ISIslide	Win	True
66.726	0.25	Lose2	1.0	0.0	Yes	2.724	0.026	n/a	GoodResponse	0	n/a	n/a	3	6	Cue	AvoidedLoss	True
66.977	3.95	Lose2	1.0	0.0	Yes	2.724	0.001	n/a	GoodResponse	0	n/a	n/a	3	6	Fixation	AvoidedLoss	True
70.922	0.34	Lose2	1.0	0.004	Yes	2.724	-0.004	2.0	GoodResponse	0	0.19	70.112	3	6	Target	AvoidedLoss	True
71.112	0.3	Lose2	1.0	0.004	Yes	2.724	-0.004	2.0	GoodResponse	0	0.19	n/a	3	6	ButtonPress	AvoidedLoss	True
71.273	0.36	Lose2	1.0	n/a	Yes	2.724	n/a	n/a	GoodResponse	0	n/a	n/a	3	6	Blank	AvoidedLoss	True
71.624	1.45	Lose2	1.0	n/a	Yes	2.724	n/a	5.0	GoodResponse	0	0.008	70.632	3	6	Feedback	AvoidedLoss	True
73.079	2.724	Lose2	1.0	n/a	Yes	2.724	n/a	n/a	GoodResponse	0	0.0	n/a	3	6	ISIslide	AvoidedLoss	True
75.82	0.25	Lose2	0.875	0.0	No	4.03	0.02	n/a	NoResponse	-1	n/a	n/a	2	7	Cue	Loss	True
76.071	4.05	Lose2	0.875	0.0	No	4.03	0.001	n/a	NoResponse	-1	n/a	n/a	2	7	Fixation	Loss	True
80.116	0.33	Lose2	0.875	0.004	No	4.03	-0.004	2.0	NoResponse	-1	0.361	79.477	2	7	Target	Loss	True
80.451	0.37	Lose2	0.875	n/a	No	4.03	n/a	n/a	NoResponse	-1	n/a	n/a	2	7	Blank	Loss	True
80.477	0.3	Lose2	0.875	0.004	No	4.03	-0.004	2.0	NoResponse	-1	0.361	n/a	2	7	ButtonPress	Loss	True
80.818	1.45	Lose2	0.875	n/a	No	4.03	n/a	5.0	NoResponse	-1	0.034	79.852	2	7	Feedback	Loss	True
82.273	4.03	Lose2	0.875	n/a	No	4.03	n/a	n/a	NoResponse	-1	0.0	n/a	2	7	ISIslide	Loss	True
86.318	0.25	Lose2	0.8889	0.0	Yes	3.032	0.018	n/a	GoodResponse	0	n/a	n/a	2	8	Cue	AvoidedLoss	True
86.569	3.95	Lose2	0.8889	0.0	Yes	3.032	0.001	n/a	GoodResponse	0	n/a	n/a	2	8	Fixation	AvoidedLoss	True
90.514	0.32	Lose2	0.8889	0.004	Yes	3.032	-0.004	2.0	GoodResponse	0	0.178	89.692	2	8	Target	AvoidedLoss	True
90.692	0.3	Lose2	0.8889	0.004	Yes	3.032	-0.004	2.0	GoodResponse	0	0.178	n/a	2	8	ButtonPress	AvoidedLoss	True
90.848	0.38	Lose2	0.8889	n/a	Yes	3.032	n/a	n/a	GoodResponse	0	n/a	n/a	2	8	Blank	AvoidedLoss	True
91.216	1.45	Lose2	0.8889	n/a	Yes	3.032	n/a	5.0	GoodResponse	0	0.026	90.242	2	8	Feedback	AvoidedLoss	True
92.67	3.032	Lose2	0.8889	n/a	Yes	3.032	n/a	n/a	GoodResponse	0	0.0	n/a	2	8	ISIslide	AvoidedLoss	True
95.73	0.25	Lose2	0.9	0.0	Yes	3.12	0.03	n/a	GoodResponse	0	n/a	n/a	2	9	Cue	AvoidedLoss	True
95.98	3.95	Lose2	0.9	0.0	Yes	3.12	0.0	n/a	GoodResponse	0	n/a	n/a	2	9	Fixation	AvoidedLoss	True
99.925	0.31	Lose2	0.9	0.005	Yes	3.12	-0.005	2.0	GoodResponse	0	0.199	99.124	2	9	Target	AvoidedLoss	True
100.124	0.3	Lose2	0.9	0.005	Yes	3.12	-0.005	2.0	GoodResponse	0	0.199	n/a	2	9	ButtonPress	AvoidedLoss	True
100.243	0.39	Lose2	0.9	n/a	Yes	3.12	n/a	n/a	GoodResponse	0	n/a	n/a	2	9	Blank	AvoidedLoss	True
100.628	1.45	Lose2	0.9	n/a	Yes	3.12	n/a	5.0	GoodResponse	0	0.028	99.656	2	9	Feedback	AvoidedLoss	True
102.082	3.12	Lose2	0.9	n/a	Yes	3.12	n/a	n/a	GoodResponse	0	0.0	n/a	2	9	ISIslide	AvoidedLoss	True
105.225	0.25	Control	0.9091	0.0	Yes	3.275	0.025	n/a	GoodResponse	0	n/a	n/a	2	10	Cue	Neutral	True
105.475	4.0	Control	0.9091	0.0	Yes	3.275	0.0	n/a	GoodResponse	0	n/a	n/a	2	10	Fixation	Neutral	True
109.471	0.3	Control	0.9091	0.004	Yes	3.275	-0.004	2.0	GoodResponse	0	0.21	108.681	2	10	Target	Neutral	True
109.681	0.3	Control	0.9091	0.004	Yes	3.275	-0.004	2.0	GoodResponse	0	0.21	n/a	2	10	ButtonPress	Neutral	True
109.772	0.4	Control	0.9091	n/a	Yes	3.275	n/a	n/a	GoodResponse	0	n/a	n/a	2	10	Blank	Neutral	True
110.173	1.45	Control	0.9091	n/a	Yes	3.275	n/a	5.0	GoodResponse	0	0.044	109.217	2	10	Feedback	Neutral	True
111.627	3.275	Control	0.9091	n/a	Yes	3.275	n/a	n/a	GoodResponse	0	0.0	n/a	2	10	ISIslide	Neutral	True
114.92	0.25	Lose2	0.9167000000000001	0.0	Yes	2.73	0.02	n/a	GoodResponse	0	n/a	n/a	2	11	Cue	AvoidedLoss	True
115.171	4.05	Lose2	0.9167000000000001	0.0	Yes	2.73	0.001	n/a	GoodResponse	0	n/a	n/a	2	11	Fixation	AvoidedLoss	True
119.217	0.29	Lose2	0.9167000000000001	0.003	Yes	2.73	-0.003	2.0	GoodResponse	0	0.261	118.478	2	11	Target	AvoidedLoss	True
119.478	0.3	Lose2	0.9167000000000001	0.003	Yes	2.73	-0.003	2.0	GoodResponse	0	0.261	n/a	2	11	ButtonPress	AvoidedLoss	True
119.517	0.41	Lose2	0.9167000000000001	n/a	Yes	2.73	n/a	n/a	GoodResponse	0	n/a	n/a	2	11	Blank	AvoidedLoss	True
119.919	1.45	Lose2	0.9167000000000001	n/a	Yes	2.73	n/a	5.0	GoodResponse	0	0.006	118.925	2	11	Feedback	AvoidedLoss	True
121.373	2.73	Lose2	0.9167000000000001	n/a	Yes	2.73	n/a	n/a	GoodResponse	0	0.0	n/a	2	11	ISIslide	AvoidedLoss	True
124.114	0.25	Control	0.9231	0.001	Yes	2.986	0.014	n/a	GoodResponse	0	n/a	n/a	2	12	Cue	Neutral	True
124.365	3.9	Control	0.9231	0.0	Yes	2.986	0.001	n/a	GoodResponse	0	n/a	n/a	2	12	Fixation	Neutral	True
128.26	0.28	Control	0.9231	0.004	Yes	2.986	-0.004	2.0	GoodResponse	0	0.235	127.495	2	12	Target	Neutral	True
128.495	0.3	Control	0.9231	0.004	Yes	2.986	-0.004	2.0	GoodResponse	0	0.235	n/a	2	12	ButtonPress	Neutral	True
128.544	0.42	Control	0.9231	n/a	Yes	2.986	n/a	n/a	GoodResponse	0	n/a	n/a	2	12	Blank	Neutral	True
128.962	1.45	Control	0.9231	n/a	Yes	2.986	n/a	5.0	GoodResponse	0	0.036	127.998	2	12	Feedback	Neutral	True
130.417	2.986	Control	0.9231	n/a	Yes	2.986	n/a	n/a	GoodResponse	0	0.0	n/a	2	12	ISIslide	Neutral	True
133.426	0.25	Control	0.9286	0.0	Yes	2.774	0.026	n/a	GoodResponse	0	n/a	n/a	2	13	Cue	Neutral	True
133.676	4.0	Control	0.9286	0.0	Yes	2.774	0.0	n/a	GoodResponse	0	n/a	n/a	2	13	Fixation	Neutral	True
137.672	0.27	Control	0.9286	0.004	Yes	2.774	-0.004	2.0	GoodResponse	0	0.176	136.848	2	13	Target	Neutral	True
137.848	0.3	Control	0.9286	0.004	Yes	2.774	-0.004	2.0	GoodResponse	0	0.176	n/a	2	13	ButtonPress	Neutral	True
137.956	0.43	Control	0.9286	n/a	Yes	2.774	n/a	n/a	GoodResponse	0	n/a	n/a	2	13	Blank	Neutral	True
138.374	1.45	Control	0.9286	n/a	Yes	2.774	n/a	5.0	GoodResponse	0	0.038	137.412	2	13	Feedback	Neutral	True
139.828	2.774	Control	0.9286	n/a	Yes	2.774	n/a	n/a	GoodResponse	0	0.0	n/a	2	13	ISIslide	Neutral	True
142.62	0.25	Win2	0.9333	0.0	Yes	2.68	0.02	n/a	GoodResponse	1	n/a	n/a	3	14	Cue	Win	True
142.871	4.1	Win2	0.9333	0.0	Yes	2.68	0.001	n/a	GoodResponse	1	n/a	n/a	3	14	Fixation	Win	True
146.966	0.26	Win2	0.9333	0.004	Yes	2.68	-0.004	2.0	GoodResponse	1	0.21	146.176	3	14	Target	Win	True
147.176	0.3	Win2	0.9333	0.004	Yes	2.68	-0.004	2.0	GoodResponse	1	0.21	n/a	3	14	ButtonPress	Win	True
147.234	0.44	Win2	0.9333	n/a	Yes	2.68	n/a	n/a	GoodResponse	1	n/a	n/a	3	14	Blank	Win	True
147.668	1.45	Win2	0.9333	n/a	Yes	2.68	n/a	5.0	GoodResponse	1	0.012	146.68	3	14	Feedback	Win	True
149.123	2.68	Win2	0.9333	n/a	Yes	2.68	n/a	n/a	GoodResponse	1	0.0	n/a	3	14	ISIslide	Win	True
151.814	0.25	Control	0.875	0.0	No	2.986	0.014	n/a	NoResponse	0	n/a	n/a	3	15	Cue	Neutral	True
152.065	4.0	Control	0.875	0.0	No	2.986	0.001	2.0	NoResponse	0	3.705	154.77	3	15	Fixation	Neutral	True
155.77	0.3	Control	0.875	0.0	No	2.986	0.001	2.0	NoResponse	0	3.705	n/a	3	15	ButtonPress	Neutral	True
156.06	0.25	Control	0.875	0.004	No	2.986	-0.004	n/a	NoResponse	0	n/a	n/a	3	15	Target	Neutral	True
156.311	0.45	Control	0.875	n/a	No	2.986	n/a	n/a	NoResponse	0	n/a	n/a	3	15	Blank	Neutral	True
156.762	1.45	Control	0.875	n/a	No	2.986	n/a	5.0	NoResponse	0	0.04	155.802	3	15	Feedback	Neutral	True
158.216	2.986	Control	0.875	n/a	No	2.986	n/a	n/a	NoResponse	0	0.0	n/a	3	15	ISIslide	Neutral	True
161.225	0.25	Win2	0.8824	0.001	Yes	2.875	0.025	n/a	GoodResponse	1	n/a	n/a	4	16	Cue	Win	True
161.476	4.0	Win2	0.8824	0.0	Yes	2.875	0.001	n/a	GoodResponse	1	n/a	n/a	4	16	Fixation	Win	True
165.471	0.24	Win2	0.8824	0.004	Yes	2.875	-0.004	2.0	GoodResponse	1	0.216	164.687	4	16	Target	Win	True
165.687	0.3	Win2	0.8824	0.004	Yes	2.875	-0.004	2.0	GoodResponse	1	0.216	n/a	4	16	ButtonPress	Win	True
165.722	0.46	Win2	0.8824	n/a	Yes	2.875	n/a	n/a	GoodResponse	1	n/a	n/a	4	16	Blank	Win	True
166.174	1.45	Win2	0.8824	n/a	Yes	2.875	n/a	5.0	GoodResponse	1	0.043	165.217	4	16	Feedback	Win	True
167.628	2.875	Win2	0.8824	n/a	Yes	2.875	n/a	n/a	GoodResponse	1	0.0	n/a	4	16	ISIslide	Win	True
170.52	0.25	Lose2	0.8332999999999999	0.0	No	2.73	0.02	n/a	LatePress	-1	n/a	n/a	3	17	Cue	Loss	True
170.771	3.95	Lose2	0.8332999999999999	0.0	No	2.73	0.001	n/a	LatePress	-1	n/a	n/a	3	17	Fixation	Loss	True
174.716	0.23	Lose2	0.8332999999999999	0.004	No	2.73	-0.004	2.0	LatePress	-1	0.234	173.95	3	17	Target	Loss	True
174.95	0.47	Lose2	0.8332999999999999	n/a	No	2.73	n/a	n/a	LatePress	-1	n/a	n/a	3	17	Blank	Loss	True
174.95	0.3	Lose2	0.8332999999999999	0.004	No	2.73	-0.004	2.0	LatePress	-1	0.234	n/a	3	17	ButtonPress	Loss	True
175.418	1.45	Lose2	0.8332999999999999	n/a	No	2.73	n/a	5.0	LatePress	-1	0.019	174.437	3	17	Feedback	Loss	True
176.872	2.73	Lose2	0.8332999999999999	n/a	No	2.73	n/a	n/a	LatePress	-1	0.0	n/a	3	17	ISIslide	Loss	True
179.63	0.25	Lose2	0.8421	0.001	Yes	2.72	0.03	n/a	GoodResponse	0	n/a	n/a	3	18	Cue	AvoidedLoss	True
179.881	4.05	Lose2	0.8421	0.0	Yes	2.72	0.001	n/a	GoodResponse	0	n/a	n/a	3	18	Fixation	AvoidedLoss	True
183.927	0.22	Lose2	0.8421	0.003	Yes	2.72	-0.003	2.0	GoodResponse	0	0.205	183.132	3	18	Target	AvoidedLoss	True
184.132	0.3	Lose2	0.8421	0.003	Yes	2.72	-0.003	2.0	GoodResponse	0	0.205	n/a	3	18	ButtonPress	AvoidedLoss	True
184.161	0.48	Lose2	0.8421	n/a	Yes	2.72	n/a	n/a	GoodResponse	0	n/a	n/a	3	18	Blank	AvoidedLoss	True
184.629	1.45	Lose2	0.8421	n/a	Yes	2.72	n/a	5.0	GoodResponse	0	0.026	183.655	3	18	Feedback	AvoidedLoss	True
186.083	2.72	Lose2	0.8421	n/a	Yes	2.72	n/a	n/a	GoodResponse	0	0.0	n/a	3	18	ISIslide	AvoidedLoss	True
188.825	0.25	Control	0.85	0.0	Yes	2.925	0.025	n/a	GoodResponse	0	n/a	n/a	3	19	Cue	Neutral	True
189.075	3.95	Control	0.85	0.0	Yes	2.925	0.0	n/a	GoodResponse	0	n/a	n/a	3	19	Fixation	Neutral	True
193.021	0.21	Control	0.85	0.004	Yes	2.925	-0.004	2.0	GoodResponse	0	0.19	192.211	3	19	Target	Neutral	True
193.211	0.3	Control	0.85	0.004	Yes	2.925	-0.004	2.0	GoodResponse	0	0.19	n/a	3	19	ButtonPress	Neutral	True
193.238	0.49	Control	0.85	n/a	Yes	2.925	n/a	n/a	GoodResponse	0	n/a	n/a	3	19	Blank	Neutral	True
193.723	1.45	Control	0.85	n/a	Yes	2.925	n/a	5.0	GoodResponse	0	0.006	192.729	3	19	Feedback	Neutral	True
195.177	2.925	Control	0.85	n/a	Yes	2.925	n/a	n/a	GoodResponse	0	0.0	n/a	3	19	ISIslide	Neutral	True
198.119	0.25	Control	0.8095	0.0	No	2.631	0.019	n/a	NoResponse	0	n/a	n/a	3	20	Cue	Neutral	True
198.37	4.05	Control	0.8095	0.0	No	2.631	0.001	n/a	NoResponse	0	n/a	n/a	3	20	Fixation	Neutral	True
202.415	0.2	Control	0.8095	0.004	No	2.631	-0.004	2.0	NoResponse	0	0.239	201.654	3	20	Target	Neutral	True
202.616	0.5	Control	0.8095	n/a	No	2.631	n/a	n/a	NoResponse	0	n/a	n/a	3	20	Blank	Neutral	True
202.654	0.3	Control	0.8095	0.004	No	2.631	-0.004	2.0	NoResponse	0	0.239	n/a	3	20	ButtonPress	Neutral	True
203.117	1.45	Control	0.8095	n/a	No	2.631	n/a	5.0	NoResponse	0	0.026	202.143	3	20	Feedback	Neutral	True
204.572	2.631	Control	0.8095	n/a	No	2.631	n/a	n/a	NoResponse	0	0.0	n/a	3	20	ISIslide	Neutral	True
207.23	0.25	Control	0.7726999999999999	0.0	No	2.77	0.03	n/a	NoResponse	0	n/a	n/a	3	21	Cue	Neutral	True
207.48	4.1	Control	0.7726999999999999	0.0	No	2.77	0.0	n/a	NoResponse	0	n/a	n/a	3	21	Fixation	Neutral	True
211.576	0.19	Control	0.7726999999999999	0.004	No	2.77	-0.004	2.0	NoResponse	0	0.243	210.819	3	21	Target	Neutral	True
211.777	0.51	Control	0.7726999999999999	n/a	No	2.77	n/a	n/a	NoResponse	0	n/a	n/a	3	21	Blank	Neutral	True
211.819	0.3	Control	0.7726999999999999	0.004	No	2.77	-0.004	2.0	NoResponse	0	0.243	n/a	3	21	ButtonPress	Neutral	True
212.278	1.45	Control	0.7726999999999999	n/a	No	2.77	n/a	5.0	NoResponse	0	0.036	211.314	3	21	Feedback	Neutral	True
213.732	2.77	Control	0.7726999999999999	n/a	No	2.77	n/a	n/a	NoResponse	0	0.0	n/a	3	21	ISIslide	Neutral	True
216.524	0.25	Control	0.7391	0.0	No	2.776	0.024	n/a	NoResponse	0	n/a	n/a	3	22	Cue	Neutral	False
216.775	4.0	Control	0.7391	0.0	No	2.776	0.001	2.0	NoResponse	0	2.902	218.677	3	22	Fixation	Neutral	False
219.677	0.3	Control	0.7391	0.0	No	2.776	0.001	2.0	NoResponse	0	2.902	n/a	3	22	ButtonPress	Neutral	False
220.77	0.18	Control	0.7391	0.004	No	2.776	-0.004	2.0	NoResponse	0	0.228	219.998	3	22	Target	Neutral	False
220.954	0.52	Control	0.7391	n/a	No	2.776	n/a	n/a	NoResponse	0	n/a	n/a	3	22	Blank	Neutral	False
220.998	0.3	Control	0.7391	0.004	No	2.776	-0.004	2.0	NoResponse	0	0.228	n/a	3	22	ButtonPress	Neutral	False
221.472	1.45	Control	0.7391	n/a	No	2.776	n/a	5.0	NoResponse	0	0.013	220.485	3	22	Feedback	Neutral	False
222.927	2.776	Control	0.7391	n/a	No	2.776	n/a	n/a	NoResponse	0	0.0	n/a	3	22	ISIslide	Neutral	False
225.718	0.25	Control	0.7082999999999999	0.0	No	2.782	0.018	n/a	NoResponse	0	n/a	n/a	3	23	Cue	Neutral	True
225.969	3.9	Control	0.7082999999999999	0.0	No	2.782	0.001	n/a	NoResponse	0	n/a	n/a	3	23	Fixation	Neutral	True
229.864	0.17	Control	0.7082999999999999	0.004	No	2.782	-0.004	2.0	NoResponse	0	0.235	229.099	3	23	Target	Neutral	True
230.048	0.53	Control	0.7082999999999999	n/a	No	2.782	n/a	n/a	NoResponse	0	n/a	n/a	3	23	Blank	Neutral	True
230.099	0.3	Control	0.7082999999999999	0.004	No	2.782	-0.004	2.0	NoResponse	0	0.235	n/a	3	23	ButtonPress	Neutral	True
230.566	1.45	Control	0.7082999999999999	n/a	No	2.782	n/a	5.0	NoResponse	0	0.04	229.606	3	23	Feedback	Neutral	True
232.02	2.782	Control	0.7082999999999999	n/a	No	2.782	n/a	n/a	NoResponse	0	0.0	n/a	3	23	ISIslide	Neutral	True
234.829	0.25	Win2	0.68	0.0	No	3.121	0.029	n/a	PrematurePress	0	n/a	n/a	3	24	Cue	MissedWin	False
235.08	3.95	Win2	0.68	0.0	No	3.121	0.001	2.0	PrematurePress	0	3.209	237.289	3	24	Fixation	MissedWin	False
238.289	0.3	Win2	0.68	0.0	No	3.121	0.001	2.0	PrematurePress	0	3.209	n/a	3	24	ButtonPress	MissedWin	False
239.025	0.16	Win2	0.68	0.004	No	3.121	-0.004	2.0	PrematurePress	0	0.027	238.052	3	24	Target	MissedWin	False
239.052	0.3	Win2	0.68	0.004	No	3.121	-0.004	2.0	PrematurePress	0	0.027	n/a	3	24	ButtonPress	MissedWin	False
239.192	0.54	Win2	0.68	n/a	No	3.121	n/a	n/a	PrematurePress	0	n/a	n/a	3	24	Blank	MissedWin	False
239.727	1.45	Win2	0.68	n/a	No	3.121	n/a	5.0	PrematurePress	0	0.001	238.728	3	24	Feedback	MissedWin	False
241.181	3.121	Win2	0.68	n/a	No	3.121	n/a	n/a	PrematurePress	0	0.0	n/a	3	24	ISIslide	MissedWin	False
244.324	0.25	Win2	0.6537999999999999	0.0	No	3.076	0.024	n/a	NoResponse	0	n/a	n/a	3	25	Cue	MissedWin	True
244.575	4.0	Win2	0.6537999999999999	0.0	No	3.076	0.001	n/a	NoResponse	0	n/a	n/a	3	25	Fixation	MissedWin	True
248.57	0.15	Win2	0.6537999999999999	0.004	No	3.076	-0.004	2.0	NoResponse	0	0.225	247.795	3	25	Target	MissedWin	True
248.72	0.55	Win2	0.6537999999999999	n/a	No	3.076	n/a	n/a	NoResponse	0	n/a	n/a	3	25	Blank	MissedWin	True
248.795	0.3	Win2	0.6537999999999999	0.004	No	3.076	-0.004	2.0	NoResponse	0	0.225	n/a	3	25	ButtonPress	MissedWin	True
249.272	1.45	Win2	0.6537999999999999	n/a	No	3.076	n/a	5.0	NoResponse	0	0.017	248.289	3	25	Feedback	MissedWin	True
250.726	3.076	Win2	0.6537999999999999	n/a	No	3.076	n/a	n/a	NoResponse	0	0.0	n/a	3	25	ISIslide	MissedWin	True
253.819	0.25	Win2	0.6296	0.0	No	2.931	0.019	n/a	NoResponse	0	n/a	n/a	3	26	Cue	MissedWin	True
254.07	3.95	Win2	0.6296	0.0	No	2.931	0.001	n/a	NoResponse	0	n/a	n/a	3	26	Fixation	MissedWin	True
258.015	0.16	Win2	0.6296	0.004	No	2.931	-0.004	2.0	NoResponse	0	0.225	257.24	3	26	Target	MissedWin	True
258.182	0.54	Win2	0.6296	n/a	No	2.931	n/a	n/a	NoResponse	0	n/a	n/a	3	26	Blank	MissedWin	True
258.24	0.3	Win2	0.6296	0.004	No	2.931	-0.004	2.0	NoResponse	0	0.225	n/a	3	26	ButtonPress	MissedWin	True
258.717	1.45	Win2	0.6296	n/a	No	2.931	n/a	5.0	NoResponse	0	0.035	257.752	3	26	Feedback	MissedWin	True
260.171	2.931	Win2	0.6296	n/a	No	2.931	n/a	n/a	NoResponse	0	0.0	n/a	3	26	ISIslide	MissedWin	True
263.13	0.25	Lose2	0.6071	0.0	No	2.82	0.03	n/a	NoResponse	-1	n/a	n/a	2	27	Cue	Loss	True
263.381	4.05	Lose2	0.6071	0.0	No	2.82	0.001	n/a	NoResponse	-1	n/a	n/a	2	27	Fixation	Loss	True
267.426	0.17	Lose2	0.6071	0.004	No	2.82	-0.004	2.0	NoResponse	-1	0.209	266.635	2	27	Target	Loss	True
267.61	0.53	Lose2	0.6071	n/a	No	2.82	n/a	n/a	NoResponse	-1	n/a	n/a	2	27	Blank	Loss	True
267.635	0.3	Lose2	0.6071	0.004	No	2.82	-0.004	2.0	NoResponse	-1	0.209	n/a	2	27	ButtonPress	Loss	True
268.128	1.45	Lose2	0.6071	n/a	No	2.82	n/a	5.0	NoResponse	-1	0.038	267.166	2	27	Feedback	Loss	True
269.583	2.82	Lose2	0.6071	n/a	No	2.82	n/a	n/a	NoResponse	-1	0.0	n/a	2	27	ISIslide	Loss	True
272.425	0.25	Control	0.5861999999999999	0.0	No	2.825	0.025	n/a	NoResponse	0	n/a	n/a	2	28	Cue	Neutral	True
272.675	4.05	Control	0.5861999999999999	0.0	No	2.825	0.0	n/a	NoResponse	0	n/a	n/a	2	28	Fixation	Neutral	True
276.721	0.18	Control	0.5861999999999999	0.004	No	2.825	-0.004	2.0	NoResponse	0	0.204	275.925	2	28	Target	Neutral	True
276.905	0.52	Control	0.5861999999999999	n/a	No	2.825	n/a	n/a	NoResponse	0	n/a	n/a	2	28	Blank	Neutral	True
276.925	0.3	Control	0.5861999999999999	0.004	No	2.825	-0.004	2.0	NoResponse	0	0.204	n/a	2	28	ButtonPress	Neutral	True
277.423	1.45	Control	0.5861999999999999	n/a	No	2.825	n/a	5.0	NoResponse	0	0.012	276.435	2	28	Feedback	Neutral	True
278.877	2.825	Control	0.5861999999999999	n/a	No	2.825	n/a	n/a	NoResponse	0	0.0	n/a	2	28	ISIslide	Neutral	True
281.719	0.25	Lose2	0.5667	0.0	No	2.831	0.019	n/a	LatePress	-1	n/a	n/a	1	29	Cue	Loss	True
281.97	3.95	Lose2	0.5667	0.0	No	2.831	0.001	n/a	LatePress	-1	n/a	n/a	1	29	Fixation	Loss	True
285.915	0.19	Lose2	0.5667	0.004	No	2.831	-0.004	2.0	LatePress	-1	0.195	285.11	1	29	Target	Loss	True
286.11	0.3	Lose2	0.5667	0.004	No	2.831	-0.004	2.0	LatePress	-1	0.195	n/a	1	29	ButtonPress	Loss	True
286.116	0.51	Lose2	0.5667	n/a	No	2.831	n/a	n/a	LatePress	-1	n/a	n/a	1	29	Blank	Loss	True
286.617	1.45	Lose2	0.5667	n/a	No	2.831	n/a	5.0	LatePress	-1	0.037	285.654	1	29	Feedback	Loss	True
288.071	2.831	Lose2	0.5667	n/a	No	2.831	n/a	n/a	LatePress	-1	0.0	n/a	1	29	ISIslide	Loss	True
290.93	0.25	Win2	0.5806	0.0	Yes	2.77	0.03	n/a	GoodResponse	1	n/a	n/a	2	30	Cue	Win	True
291.181	3.9	Win2	0.5806	0.0	Yes	2.77	0.001	n/a	GoodResponse	1	n/a	n/a	2	30	Fixation	Win	True
295.076	0.2	Win2	0.5806	0.004	Yes	2.77	-0.004	2.0	GoodResponse	1	0.199	294.275	2	30	Target	Win	True
295.275	0.3	Win2	0.5806	0.004	Yes	2.77	-0.004	2.0	GoodResponse	1	0.199	n/a	2	30	ButtonPress	Win	True
295.276	0.5	Win2	0.5806	n/a	Yes	2.77	n/a	n/a	GoodResponse	1	n/a	n/a	2	30	Blank	Win	True
295.778	1.45	Win2	0.5806	n/a	Yes	2.77	n/a	5.0	GoodResponse	1	0.047	294.825	2	30	Feedback	Win	True
297.232	2.77	Win2	0.5806	n/a	Yes	2.77	n/a	n/a	GoodResponse	1	0.0	n/a	2	30	ISIslide	Win	True
300.024	0.25	Lose2	0.5938	0.0	Yes	2.826	0.024	n/a	GoodResponse	0	n/a	n/a	2	31	Cue	AvoidedLoss	True
300.275	4.05	Lose2	0.5938	0.0	Yes	2.826	0.001	n/a	GoodResponse	0	n/a	n/a	2	31	Fixation	AvoidedLoss	True
304.32	0.21	Lose2	0.5938	0.004	Yes	2.826	-0.004	2.0	GoodResponse	0	0.163	303.483	2	31	Target	AvoidedLoss	True
304.483	0.3	Lose2	0.5938	0.004	Yes	2.826	-0.004	2.0	GoodResponse	0	0.163	n/a	2	31	ButtonPress	AvoidedLoss	True
304.537	0.49	Lose2	0.5938	n/a	Yes	2.826	n/a	n/a	GoodResponse	0	n/a	n/a	2	31	Blank	AvoidedLoss	True
305.022	1.45	Lose2	0.5938	n/a	Yes	2.826	n/a	5.0	GoodResponse	0	0.023	304.045	2	31	Feedback	AvoidedLoss	True
306.476	2.826	Lose2	0.5938	n/a	Yes	2.826	n/a	n/a	GoodResponse	0	0.0	n/a	2	31	ISIslide	AvoidedLoss	True
309.318	0.25	Lose2	0.6061	0.0	Yes	2.632	0.018	n/a	GoodResponse	0	n/a	n/a	2	32	Cue	AvoidedLoss	False
309.569	4.15	Lose2	0.6061	0.0	Yes	2.632	0.001	2.0	GoodResponse	0	3.798	312.367	2	32	Fixation	AvoidedLoss	False
313.367	0.3	Lose2	0.6061	0.0	Yes	2.632	0.001	2.0	GoodResponse	0	3.798	n/a	2	32	ButtonPress	AvoidedLoss	False
313.715	0.22	Lose2	0.6061	0.003	Yes	2.632	-0.003	2.0	GoodResponse	0	0.216	312.931	2	32	Target	AvoidedLoss	False
313.931	0.3	Lose2	0.6061	0.003	Yes	2.632	-0.003	2.0	GoodResponse	0	0.216	n/a	2	32	ButtonPress	AvoidedLoss	False
313.949	0.48	Lose2	0.6061	n/a	Yes	2.632	n/a	n/a	GoodResponse	0	n/a	n/a	2	32	Blank	AvoidedLoss	False
314.417	1.45	Lose2	0.6061	n/a	Yes	2.632	n/a	5.0	GoodResponse	0	0.041	313.458	2	32	Feedback	AvoidedLoss	False
315.871	2.632	Lose2	0.6061	n/a	Yes	2.632	n/a	n/a	GoodResponse	0	0.0	n/a	2	32	ISIslide	AvoidedLoss	False
318.529	0.25	Win2	0.6175999999999999	0.0	Yes	2.671	0.029	n/a	GoodResponse	1	n/a	n/a	3	33	Cue	Win	True
318.78	4.0	Win2	0.6175999999999999	0.0	Yes	2.671	0.001	n/a	GoodResponse	1	n/a	n/a	3	33	Fixation	Win	True
322.775	0.23	Win2	0.6175999999999999	0.004	Yes	2.671	-0.004	2.0	GoodResponse	1	0.165	321.94	3	33	Target	Win	True
322.94	0.3	Win2	0.6175999999999999	0.004	Yes	2.671	-0.004	2.0	GoodResponse	1	0.165	n/a	3	33	ButtonPress	Win	True
323.009	0.47	Win2	0.6175999999999999	n/a	Yes	2.671	n/a	n/a	GoodResponse	1	n/a	n/a	3	33	Blank	Win	True
323.477	1.45	Win2	0.6175999999999999	n/a	Yes	2.671	n/a	5.0	GoodResponse	1	0.006	322.483	3	33	Feedback	Win	True
324.932	2.671	Win2	0.6175999999999999	n/a	Yes	2.671	n/a	n/a	GoodResponse	1	0.0	n/a	3	33	ISIslide	Win	True
327.623	0.25	Lose2	0.6286	0.0	Yes	2.627	0.023	n/a	GoodResponse	0	n/a	n/a	3	34	Cue	AvoidedLoss	True
327.874	4.05	Lose2	0.6286	0.0	Yes	2.627	0.001	n/a	GoodResponse	0	n/a	n/a	3	34	Fixation	AvoidedLoss	True
331.919	0.24	Lose2	0.6286	0.004	Yes	2.627	-0.004	2.0	GoodResponse	0	0.211	331.13	3	34	Target	AvoidedLoss	True
332.13	0.3	Lose2	0.6286	0.004	Yes	2.627	-0.004	2.0	GoodResponse	0	0.211	n/a	3	34	ButtonPress	AvoidedLoss	True
332.17	0.46	Lose2	0.6286	n/a	Yes	2.627	n/a	n/a	GoodResponse	0	n/a	n/a	3	34	Blank	AvoidedLoss	True
332.621	1.45	Lose2	0.6286	n/a	Yes	2.627	n/a	5.0	GoodResponse	0	0.033	331.654	3	34	Feedback	AvoidedLoss	True
334.076	2.627	Lose2	0.6286	n/a	Yes	2.627	n/a	n/a	GoodResponse	0	0.0	n/a	3	34	ISIslide	AvoidedLoss	True
336.717	0.25	Lose2	0.6389	0.0	Yes	2.683	0.017	n/a	GoodResponse	0	n/a	n/a	3	35	Cue	AvoidedLoss	True
336.968	4.0	Lose2	0.6389	0.0	Yes	2.683	0.001	n/a	GoodResponse	0	n/a	n/a	3	35	Fixation	AvoidedLoss	True
340.963	0.25	Lose2	0.6389	0.004	Yes	2.683	-0.004	2.0	GoodResponse	0	0.238	340.201	3	35	Target	AvoidedLoss	True
341.201	0.3	Lose2	0.6389	0.004	Yes	2.683	-0.004	2.0	GoodResponse	0	0.238	n/a	3	35	ButtonPress	AvoidedLoss	True
341.214	0.45	Lose2	0.6389	n/a	Yes	2.683	n/a	n/a	GoodResponse	0	n/a	n/a	3	35	Blank	AvoidedLoss	True
341.665	1.45	Lose2	0.6389	n/a	Yes	2.683	n/a	5.0	GoodResponse	0	0.013	340.678	3	35	Feedback	AvoidedLoss	True
343.119	2.683	Lose2	0.6389	n/a	Yes	2.683	n/a	n/a	GoodResponse	0	0.0	n/a	3	35	ISIslide	AvoidedLoss	True
345.827	0.25	Control	0.6486	0.0	Yes	2.673	0.027	n/a	GoodResponse	0	n/a	n/a	3	36	Cue	Neutral	True
346.078	4.0	Control	0.6486	0.0	Yes	2.673	0.001	n/a	GoodResponse	0	n/a	n/a	3	36	Fixation	Neutral	True
350.073	0.26	Control	0.6486	0.004	Yes	2.673	-0.004	2.0	GoodResponse	0	0.213	349.286	3	36	Target	Neutral	True
350.286	0.3	Control	0.6486	0.004	Yes	2.673	-0.004	2.0	GoodResponse	0	0.213	n/a	3	36	ButtonPress	Neutral	True
350.341	0.44	Control	0.6486	n/a	Yes	2.673	n/a	n/a	GoodResponse	0	n/a	n/a	3	36	Blank	Neutral	True
350.776	1.45	Control	0.6486	n/a	Yes	2.673	n/a	5.0	GoodResponse	0	0.024	349.8	3	36	Feedback	Neutral	True
352.23	2.673	Control	0.6486	n/a	Yes	2.673	n/a	n/a	GoodResponse	0	0.0	n/a	3	36	ISIslide	Neutral	True
354.921	0.25	Win2	0.6579	0.0	Yes	2.879	0.021	n/a	GoodResponse	1	n/a	n/a	4	37	Cue	Win	False
355.172	4.0	Win2	0.6579	0.0	Yes	2.879	0.001	2.0	GoodResponse	1	3.806	357.978	4	37	Fixation	Win	False
358.978	0.3	Win2	0.6579	0.0	Yes	2.879	0.001	2.0	GoodResponse	1	3.806	n/a	4	37	ButtonPress	Win	False
359.167	0.27	Win2	0.6579	0.004	Yes	2.879	-0.004	2.0	GoodResponse	1	0.215	358.382	4	37	Target	Win	False
359.382	0.3	Win2	0.6579	0.004	Yes	2.879	-0.004	2.0	GoodResponse	1	0.215	n/a	4	37	ButtonPress	Win	False
359.451	0.43	Win2	0.6579	n/a	Yes	2.879	n/a	n/a	GoodResponse	1	n/a	n/a	4	37	Blank	Win	False
359.869	1.45	Win2	0.6579	n/a	Yes	2.879	n/a	5.0	GoodResponse	1	0.007	358.876	4	37	Feedback	Win	False
361.324	2.879	Win2	0.6579	n/a	Yes	2.879	n/a	n/a	GoodResponse	1	0.0	n/a	4	37	ISIslide	Win	False
364.216	0.25	Lose2	0.6667000000000001	0.0	Yes	2.834	0.016	n/a	GoodResponse	0	n/a	n/a	4	38	Cue	AvoidedLoss	False
364.466	3.95	Lose2	0.6667000000000001	0.001	Yes	2.834	0.0	2.0	GoodResponse	0	3.529	366.995	4	38	Fixation	AvoidedLoss	False
367.995	0.3	Lose2	0.6667000000000001	0.001	Yes	2.834	0.0	2.0	GoodResponse	0	3.529	n/a	4	38	ButtonPress	AvoidedLoss	False
368.412	0.27	Lose2	0.6667000000000001	0.004	Yes	2.834	-0.004	2.0	GoodResponse	0	0.176	367.588	4	38	Target	AvoidedLoss	False
368.588	0.3	Lose2	0.6667000000000001	0.004	Yes	2.834	-0.004	2.0	GoodResponse	0	0.176	n/a	4	38	ButtonPress	AvoidedLoss	False
368.696	0.43	Lose2	0.6667000000000001	n/a	Yes	2.834	n/a	n/a	GoodResponse	0	n/a	n/a	4	38	Blank	AvoidedLoss	False
369.114	1.45	Lose2	0.6667000000000001	n/a	Yes	2.834	n/a	5.0	GoodResponse	0	0.027	368.141	4	38	Feedback	AvoidedLoss	False
370.568	2.834	Lose2	0.6667000000000001	n/a	Yes	2.834	n/a	n/a	GoodResponse	0	0.0	n/a	4	38	ISIslide	AvoidedLoss	False
373.427	0.25	Win2	0.675	0.0	Yes	2.973	0.027	n/a	GoodResponse	1	n/a	n/a	5	39	Cue	Win	True
373.677	4.1	Win2	0.675	0.0	Yes	2.973	0.0	n/a	GoodResponse	1	n/a	n/a	5	39	Fixation	Win	True
377.773	0.26	Win2	0.675	0.004	Yes	2.973	-0.004	2.0	GoodResponse	1	0.253	377.026	5	39	Target	Win	True
378.026	0.3	Win2	0.675	0.004	Yes	2.973	-0.004	2.0	GoodResponse	1	0.253	n/a	5	39	ButtonPress	Win	True
378.04	0.44	Win2	0.675	n/a	Yes	2.973	n/a	n/a	GoodResponse	1	n/a	n/a	5	39	Blank	Win	True
378.475	1.45	Win2	0.675	n/a	Yes	2.973	n/a	5.0	GoodResponse	1	0.032	377.507	5	39	Feedback	Win	True
379.929	2.973	Win2	0.675	n/a	Yes	2.973	n/a	n/a	GoodResponse	1	0.0	n/a	5	39	ISIslide	Win	True
382.922	0.25	Win2	0.6829000000000001	0.0	Yes	2.728	0.022	n/a	GoodResponse	1	n/a	n/a	6	40	Cue	Win	True
383.172	3.95	Win2	0.6829000000000001	0.0	Yes	2.728	0.0	n/a	GoodResponse	1	n/a	n/a	6	40	Fixation	Win	True
387.118	0.25	Win2	0.6829000000000001	0.004	Yes	2.728	-0.004	2.0	GoodResponse	1	0.21	386.328	6	40	Target	Win	True
387.328	0.3	Win2	0.6829000000000001	0.004	Yes	2.728	-0.004	2.0	GoodResponse	1	0.21	n/a	6	40	ButtonPress	Win	True
387.368	0.45	Win2	0.6829000000000001	n/a	Yes	2.728	n/a	n/a	GoodResponse	1	n/a	n/a	6	40	Blank	Win	True
387.82	1.45	Win2	0.6829000000000001	n/a	Yes	2.728	n/a	5.0	GoodResponse	1	0.006	386.826	6	40	Feedback	Win	True
389.274	2.728	Win2	0.6829000000000001	n/a	Yes	2.728	n/a	n/a	GoodResponse	1	0.0	n/a	6	40	ISIslide	Win	True
392.015	0.25	Win2	0.6905	0.001	Yes	2.785	0.015	n/a	GoodResponse	1	n/a	n/a	7	41	Cue	Win	True
392.266	3.9	Win2	0.6905	0.0	Yes	2.785	0.001	n/a	GoodResponse	1	n/a	n/a	7	41	Fixation	Win	True
396.161	0.24	Win2	0.6905	0.004	Yes	2.785	-0.004	2.0	GoodResponse	1	0.22	395.381	7	41	Target	Win	True
396.381	0.3	Win2	0.6905	0.004	Yes	2.785	-0.004	2.0	GoodResponse	1	0.22	n/a	7	41	ButtonPress	Win	True
396.412	0.46	Win2	0.6905	n/a	Yes	2.785	n/a	n/a	GoodResponse	1	n/a	n/a	7	41	Blank	Win	True
396.863	1.45	Win2	0.6905	n/a	Yes	2.785	n/a	5.0	GoodResponse	1	0.033	395.896	7	41	Feedback	Win	True
398.318	2.785	Win2	0.6905	n/a	Yes	2.785	n/a	n/a	GoodResponse	1	0.0	n/a	7	41	ISIslide	Win	True
401.126	0.25	Control	0.6977	0.0	Yes	2.924	0.026	n/a	GoodResponse	0	n/a	n/a	7	42	Cue	Neutral	True
401.377	3.85	Control	0.6977	0.0	Yes	2.924	0.001	n/a	GoodResponse	0	n/a	n/a	7	42	Fixation	Neutral	True
405.222	0.23	Control	0.6977	0.004	Yes	2.924	-0.004	2.0	GoodResponse	0	0.208	404.43	7	42	Target	Neutral	True
405.43	0.3	Control	0.6977	0.004	Yes	2.924	-0.004	2.0	GoodResponse	0	0.208	n/a	7	42	ButtonPress	Neutral	True
405.456	0.47	Control	0.6977	n/a	Yes	2.924	n/a	n/a	GoodResponse	0	n/a	n/a	7	42	Blank	Neutral	True
405.924	1.45	Control	0.6977	n/a	Yes	2.924	n/a	5.0	GoodResponse	0	0.046	404.97	7	42	Feedback	Neutral	True
407.378	2.924	Control	0.6977	n/a	Yes	2.924	n/a	n/a	GoodResponse	0	0.0	n/a	7	42	ISIslide	Neutral	True
410.32	0.25	Win2	0.7045	0.0	Yes	3.18	0.02	n/a	GoodResponse	1	n/a	n/a	8	43	Cue	Win	True
410.571	4.0	Win2	0.7045	0.0	Yes	3.18	0.001	n/a	GoodResponse	1	n/a	n/a	8	43	Fixation	Win	True
414.566	0.22	Win2	0.7045	0.004	Yes	3.18	-0.004	2.0	GoodResponse	1	0.199	413.765	8	43	Target	Win	True
414.765	0.3	Win2	0.7045	0.004	Yes	3.18	-0.004	2.0	GoodResponse	1	0.199	n/a	8	43	ButtonPress	Win	True
414.8	0.48	Win2	0.7045	n/a	Yes	3.18	n/a	n/a	GoodResponse	1	n/a	n/a	8	43	Blank	Win	True
415.268	1.45	Win2	0.7045	n/a	Yes	3.18	n/a	5.0	GoodResponse	1	0.019	414.287	8	43	Feedback	Win	True
416.723	3.18	Win2	0.7045	n/a	Yes	3.18	n/a	n/a	GoodResponse	1	0.0	n/a	8	43	ISIslide	Win	True
419.916	0.25	Win2	0.6889	0.0	No	2.984	0.016	n/a	NoResponse	0	n/a	n/a	8	44	Cue	MissedWin	True
420.166	4.0	Win2	0.6889	0.0	No	2.984	0.0	n/a	NoResponse	0	n/a	n/a	8	44	Fixation	MissedWin	True
424.162	0.21	Win2	0.6889	0.004	No	2.984	-0.004	2.0	NoResponse	0	0.284	423.446	8	44	Target	MissedWin	True
424.379	0.49	Win2	0.6889	n/a	No	2.984	n/a	n/a	NoResponse	0	n/a	n/a	8	44	Blank	MissedWin	True
424.446	0.3	Win2	0.6889	0.004	No	2.984	-0.004	2.0	NoResponse	0	0.284	n/a	8	44	ButtonPress	MissedWin	True
424.864	1.45	Win2	0.6889	n/a	No	2.984	n/a	5.0	NoResponse	0	0.033	423.897	8	44	Feedback	MissedWin	True
426.318	2.984	Win2	0.6889	n/a	No	2.984	n/a	n/a	NoResponse	0	0.0	n/a	8	44	ISIslide	MissedWin	True
429.327	0.25	Control	0.6739	0.0	No	2.873	0.027	n/a	NoResponse	0	n/a	n/a	8	45	Cue	Neutral	True
429.578	4.1	Control	0.6739	0.0	No	2.873	0.001	n/a	NoResponse	0	n/a	n/a	8	45	Fixation	Neutral	True
433.673	0.2	Control	0.6739	0.004	No	2.873	-0.004	2.0	NoResponse	0	0.22	432.893	8	45	Target	Neutral	True
433.874	0.5	Control	0.6739	n/a	No	2.873	n/a	n/a	NoResponse	0	n/a	n/a	8	45	Blank	Neutral	True
433.893	0.3	Control	0.6739	0.004	No	2.873	-0.004	2.0	NoResponse	0	0.22	n/a	8	45	ButtonPress	Neutral	True
434.375	1.45	Control	0.6739	n/a	No	2.873	n/a	5.0	NoResponse	0	0.034	433.409	8	45	Feedback	Neutral	True
435.83	2.873	Control	0.6739	n/a	No	2.873	n/a	n/a	NoResponse	0	0.0	n/a	8	45	ISIslide	Neutral	True
438.722	0.25	Lose2	0.6596	0.0	No	3.378	0.022	n/a	NoResponse	-1	n/a	n/a	7	46	Cue	Loss	True
438.973	4.0	Lose2	0.6596	0.0	No	3.378	0.001	n/a	NoResponse	-1	n/a	n/a	7	46	Fixation	Loss	True
442.968	0.19	Lose2	0.6596	0.004	No	3.378	-0.004	2.0	NoResponse	-1	0.266	442.234	7	46	Target	Loss	True
443.168	0.51	Lose2	0.6596	n/a	No	3.378	n/a	n/a	NoResponse	-1	n/a	n/a	7	46	Blank	Loss	True
443.234	0.3	Lose2	0.6596	0.004	No	3.378	-0.004	2.0	NoResponse	-1	0.266	n/a	7	46	ButtonPress	Loss	True
443.67	1.45	Lose2	0.6596	n/a	No	3.378	n/a	5.0	NoResponse	-1	0.007	442.677	7	46	Feedback	Loss	True
445.124	3.378	Lose2	0.6596	n/a	No	3.378	n/a	n/a	NoResponse	-1	0.0	n/a	7	46	ISIslide	Loss	True
448.518	0.25	Lose2	0.6457999999999999	0.0	No	2.682	0.018	n/a	NoResponse	-1	n/a	n/a	6	47	Cue	Loss	True
448.768	4.0	Lose2	0.6457999999999999	0.001	No	2.682	0.0	n/a	NoResponse	-1	n/a	n/a	6	47	Fixation	Loss	True
452.764	0.19	Lose2	0.6457999999999999	0.004	No	2.682	-0.004	2.0	NoResponse	-1	0.209	451.973	6	47	Target	Loss	True
452.964	0.51	Lose2	0.6457999999999999	n/a	No	2.682	n/a	n/a	NoResponse	-1	n/a	n/a	6	47	Blank	Loss	True
452.973	0.3	Lose2	0.6457999999999999	0.004	No	2.682	-0.004	2.0	NoResponse	-1	0.209	n/a	6	47	ButtonPress	Loss	True
453.466	1.45	Lose2	0.6457999999999999	n/a	No	2.682	n/a	5.0	NoResponse	-1	0.015	452.481	6	47	Feedback	Loss	True
454.92	2.682	Lose2	0.6457999999999999	n/a	No	2.682	n/a	n/a	NoResponse	-1	0.0	n/a	6	47	ISIslide	Loss	True
457.628	0.25	Lose2	0.6327	0.0	No	3.022	0.028	n/a	NoResponse	-1	n/a	n/a	5	48	Cue	Loss	True
457.879	3.95	Lose2	0.6327	0.0	No	3.022	0.001	n/a	NoResponse	-1	n/a	n/a	5	48	Fixation	Loss	True
461.824	0.2	Lose2	0.6327	0.004	No	3.022	-0.004	2.0	NoResponse	-1	0.211	461.035	5	48	Target	Loss	True
462.025	0.5	Lose2	0.6327	n/a	No	3.022	n/a	n/a	NoResponse	-1	n/a	n/a	5	48	Blank	Loss	True
462.035	0.3	Lose2	0.6327	0.004	No	3.022	-0.004	2.0	NoResponse	-1	0.211	n/a	5	48	ButtonPress	Loss	True
462.526	1.45	Lose2	0.6327	n/a	No	3.022	n/a	5.0	NoResponse	-1	0.029	461.555	5	48	Feedback	Loss	True
463.981	3.022	Lose2	0.6327	n/a	No	3.022	n/a	n/a	NoResponse	-1	0.0	n/a	5	48	ISIslide	Loss	True
467.023	0.25	Control	0.62	0.0	No	2.877	0.023	n/a	LatePress	0	n/a	n/a	5	49	Cue	Neutral	True
467.274	4.0	Control	0.62	0.0	No	2.877	0.001	n/a	LatePress	0	n/a	n/a	5	49	Fixation	Neutral	True
471.269	0.21	Control	0.62	0.004	No	2.877	-0.004	2.0	LatePress	0	0.213	470.482	5	49	Target	Neutral	True
471.482	0.3	Control	0.62	0.004	No	2.877	-0.004	2.0	LatePress	0	0.213	n/a	5	49	ButtonPress	Neutral	True
471.486	0.49	Control	0.62	n/a	No	2.877	n/a	n/a	LatePress	0	n/a	n/a	5	49	Blank	Neutral	True
471.971	1.45	Control	0.62	n/a	No	2.877	n/a	5.0	LatePress	0	0.047	471.018	5	49	Feedback	Neutral	True
473.426	2.877	Control	0.62	n/a	No	2.877	n/a	n/a	LatePress	0	0.0	n/a	5	49	ISIslide	Neutral	True
476.318	0.25	Control	0.6078	0.0	No	2.782	0.018	n/a	NoResponse	0	n/a	n/a	5	50	Cue	Neutral	True
476.568	4.0	Control	0.6078	0.0	No	2.782	0.0	n/a	NoResponse	0	n/a	n/a	5	50	Fixation	Neutral	True
480.564	0.22	Control	0.6078	0.004	No	2.782	-0.004	2.0	NoResponse	0	0.242	479.806	5	50	Target	Neutral	True
480.798	0.48	Control	0.6078	n/a	No	2.782	n/a	n/a	NoResponse	0	n/a	n/a	5	50	Blank	Neutral	True
480.806	0.3	Control	0.6078	0.004	No	2.782	-0.004	2.0	NoResponse	0	0.242	n/a	5	50	ButtonPress	Neutral	True
481.266	1.45	Control	0.6078	n/a	No	2.782	n/a	5.0	NoResponse	0	0.02	480.286	5	50	Feedback	Neutral	True
482.72	2.782	Control	0.6078	n/a	No	2.782	n/a	n/a	NoResponse	0	0.0	n/a	5	50	ISIslide	Neutral	True
485.528	0.25	Control	0.5962	0.0	No	2.722	0.028	n/a	NoResponse	0	n/a	n/a	5	51	Cue	Neutral	True
485.779	3.95	Control	0.5962	0.0	No	2.722	0.001	n/a	NoResponse	0	n/a	n/a	5	51	Fixation	Neutral	True
489.724	0.23	Control	0.5962	0.004	No	2.722	-0.004	2.0	NoResponse	0	0.243	488.967	5	51	Target	Neutral	True
489.958	0.47	Control	0.5962	n/a	No	2.722	n/a	n/a	NoResponse	0	n/a	n/a	5	51	Blank	Neutral	True
489.967	0.3	Control	0.5962	0.004	No	2.722	-0.004	2.0	NoResponse	0	0.243	n/a	5	51	ButtonPress	Neutral	True
490.426	1.45	Control	0.5962	n/a	No	2.722	n/a	5.0	NoResponse	0	0.03	489.456	5	51	Feedback	Neutral	True
491.881	2.722	Control	0.5962	n/a	No	2.722	n/a	n/a	NoResponse	0	0.0	n/a	5	51	ISIslide	Neutral	True
494.622	0.25	Control	0.6038	0.0	Yes	2.628	0.022	n/a	GoodResponse	0	n/a	n/a	5	52	Cue	Neutral	True
494.873	4.05	Control	0.6038	0.0	Yes	2.628	0.001	n/a	GoodResponse	0	n/a	n/a	5	52	Fixation	Neutral	True
498.918	0.24	Control	0.6038	0.004	Yes	2.628	-0.004	2.0	GoodResponse	0	0.229	498.147	5	52	Target	Neutral	True
499.147	0.3	Control	0.6038	0.004	Yes	2.628	-0.004	2.0	GoodResponse	0	0.229	n/a	5	52	ButtonPress	Neutral	True
499.169	0.46	Control	0.6038	n/a	Yes	2.628	n/a	n/a	GoodResponse	0	n/a	n/a	5	52	Blank	Neutral	True
499.621	1.45	Control	0.6038	n/a	Yes	2.628	n/a	5.0	GoodResponse	0	0.006	498.627	5	52	Feedback	Neutral	True
501.075	2.628	Control	0.6038	n/a	Yes	2.628	n/a	n/a	GoodResponse	0	0.0	n/a	5	52	ISIslide	Neutral	True
503.716	0.25	Win2	0.6111	0.0	Yes	2.934	0.016	n/a	GoodResponse	1	n/a	n/a	6	53	Cue	Win	True
503.967	4.05	Win2	0.6111	0.0	Yes	2.934	0.001	n/a	GoodResponse	1	n/a	n/a	6	53	Fixation	Win	True
508.012	0.25	Win2	0.6111	0.004	Yes	2.934	-0.004	2.0	GoodResponse	1	0.196	507.208	6	53	Target	Win	True
508.208	0.3	Win2	0.6111	0.004	Yes	2.934	-0.004	2.0	GoodResponse	1	0.196	n/a	6	53	ButtonPress	Win	True
508.263	0.45	Win2	0.6111	n/a	Yes	2.934	n/a	n/a	GoodResponse	1	n/a	n/a	6	53	Blank	Win	True
508.714	1.45	Win2	0.6111	n/a	Yes	2.934	n/a	5.0	GoodResponse	1	0.035	507.749	6	53	Feedback	Win	True
510.169	2.934	Win2	0.6111	n/a	Yes	2.934	n/a	n/a	GoodResponse	1	0.0	n/a	6	53	ISIslide	Win	True
513.128	0.25	Win2	0.6	0.0	No	2.722	0.028	n/a	PrematurePress	0	n/a	n/a	6	54	Cue	MissedWin	True
513.378	3.95	Win2	0.6	0.0	No	2.722	0.0	n/a	PrematurePress	0	n/a	n/a	6	54	Fixation	MissedWin	True
517.34	0.26	Win2	0.6	0.0	No	2.722	0.012	2.0	PrematurePress	0	0.065	516.405	6	54	Target	MissedWin	True
517.405	0.3	Win2	0.6	0.0	No	2.722	0.012	2.0	PrematurePress	0	0.065	n/a	6	54	ButtonPress	MissedWin	True
517.591	0.44	Win2	0.6	n/a	No	2.722	n/a	n/a	PrematurePress	0	n/a	n/a	6	54	Blank	MissedWin	True
518.026	1.45	Win2	0.6	n/a	No	2.722	n/a	5.0	PrematurePress	0	0.04	517.066	6	54	Feedback	MissedWin	True
519.48	2.722	Win2	0.6	n/a	No	2.722	n/a	n/a	PrematurePress	0	0.0	n/a	6	54	ISIslide	MissedWin	True
522.221	0.25	Control	0.6071	0.001	Yes	3.029	0.021	n/a	GoodResponse	0	n/a	n/a	6	55	Cue	Neutral	True
522.472	3.95	Control	0.6071	0.0	Yes	3.029	0.001	n/a	GoodResponse	0	n/a	n/a	6	55	Fixation	Neutral	True
526.417	0.27	Control	0.6071	0.004	Yes	3.029	-0.004	2.0	GoodResponse	0	0.258	525.675	6	55	Target	Neutral	True
526.675	0.3	Control	0.6071	0.004	Yes	3.029	-0.004	2.0	GoodResponse	0	0.258	n/a	6	55	ButtonPress	Neutral	True
526.702	0.43	Control	0.6071	n/a	Yes	3.029	n/a	n/a	GoodResponse	0	n/a	n/a	6	55	Blank	Neutral	True
527.119	1.45	Control	0.6071	n/a	Yes	3.029	n/a	5.0	GoodResponse	0	0.02	526.139	6	55	Feedback	Neutral	True
528.574	3.029	Control	0.6071	n/a	Yes	3.029	n/a	n/a	GoodResponse	0	0.0	n/a	6	55	ISIslide	Neutral	True
531.616	0.25	Control	0.614	0.0	Yes	2.834	0.016	n/a	GoodResponse	0	n/a	n/a	6	56	Cue	Neutral	True
531.867	3.95	Control	0.614	0.0	Yes	2.834	0.001	n/a	GoodResponse	0	n/a	n/a	6	56	Fixation	Neutral	True
535.812	0.28	Control	0.614	0.004	Yes	2.834	-0.004	2.0	GoodResponse	0	0.21	535.022	6	56	Target	Neutral	True
536.022	0.3	Control	0.614	0.004	Yes	2.834	-0.004	2.0	GoodResponse	0	0.21	n/a	6	56	ButtonPress	Neutral	True
536.096	0.42	Control	0.614	n/a	Yes	2.834	n/a	n/a	GoodResponse	0	n/a	n/a	6	56	Blank	Neutral	True
536.514	1.45	Control	0.614	n/a	Yes	2.834	n/a	5.0	GoodResponse	0	0.039	535.553	6	56	Feedback	Neutral	True
537.969	2.834	Control	0.614	n/a	Yes	2.834	n/a	n/a	GoodResponse	0	0.0	n/a	6	56	ISIslide	Neutral	True
540.827	0.25	Control	0.6034	0.0	No	3.473	0.027	n/a	NoResponse	0	n/a	n/a	6	57	Cue	Neutral	True
541.078	4.0	Control	0.6034	0.0	No	3.473	0.001	n/a	NoResponse	0	n/a	n/a	6	57	Fixation	Neutral	True
545.073	0.29	Control	0.6034	0.004	No	3.473	-0.004	2.0	NoResponse	0	0.539	544.612	6	57	Target	Neutral	True
545.374	0.41	Control	0.6034	n/a	No	3.473	n/a	n/a	NoResponse	0	n/a	n/a	6	57	Blank	Neutral	True
545.612	0.3	Control	0.6034	0.004	No	3.473	-0.004	2.0	NoResponse	0	0.539	n/a	6	57	ButtonPress	Neutral	True
545.775	1.45	Control	0.6034	n/a	No	3.473	n/a	5.0	NoResponse	0	0.047	544.822	6	57	Feedback	Neutral	True
547.23	3.473	Control	0.6034	n/a	No	3.473	n/a	n/a	NoResponse	0	0.0	n/a	6	57	ISIslide	Neutral	True
550.723	0.25	Win2	0.6102000000000001	0.0	Yes	2.727	0.023	n/a	GoodResponse	1	n/a	n/a	7	58	Cue	Win	True
550.974	4.05	Win2	0.6102000000000001	0.0	Yes	2.727	0.001	n/a	GoodResponse	1	n/a	n/a	7	58	Fixation	Win	True
555.02	0.3	Win2	0.6102000000000001	0.003	Yes	2.727	-0.003	2.0	GoodResponse	1	0.202	554.222	7	58	Target	Win	True
555.222	0.3	Win2	0.6102000000000001	0.003	Yes	2.727	-0.003	2.0	GoodResponse	1	0.202	n/a	7	58	ButtonPress	Win	True
555.32	0.4	Win2	0.6102000000000001	n/a	Yes	2.727	n/a	n/a	GoodResponse	1	n/a	n/a	7	58	Blank	Win	True
555.722	1.45	Win2	0.6102000000000001	n/a	Yes	2.727	n/a	5.0	GoodResponse	1	0.005	554.727	7	58	Feedback	Win	True
557.176	2.727	Win2	0.6102000000000001	n/a	Yes	2.727	n/a	n/a	GoodResponse	1	0.0	n/a	7	58	ISIslide	Win	True
559.917	0.25	Lose2	0.6167	0.001	Yes	2.683	0.017	n/a	GoodResponse	0	n/a	n/a	7	59	Cue	AvoidedLoss	True
560.168	4.0	Lose2	0.6167	0.0	Yes	2.683	0.001	n/a	GoodResponse	0	n/a	n/a	7	59	Fixation	AvoidedLoss	True
564.164	0.31	Lose2	0.6167	0.003	Yes	2.683	-0.003	2.0	GoodResponse	0	0.237	563.401	7	59	Target	AvoidedLoss	True
564.401	0.3	Lose2	0.6167	0.003	Yes	2.683	-0.003	2.0	GoodResponse	0	0.237	n/a	7	59	ButtonPress	AvoidedLoss	True
564.481	0.39	Lose2	0.6167	n/a	Yes	2.683	n/a	n/a	GoodResponse	0	n/a	n/a	7	59	Blank	AvoidedLoss	True
564.866	1.45	Lose2	0.6167	n/a	Yes	2.683	n/a	5.0	GoodResponse	0	0.029	563.895	7	59	Feedback	AvoidedLoss	True
566.32	2.683	Lose2	0.6167	n/a	Yes	2.683	n/a	n/a	GoodResponse	0	0.0	n/a	7	59	ISIslide	AvoidedLoss	True
569.028	0.25	Control	0.623	0.0	Yes	2.672	0.028	n/a	GoodResponse	0	n/a	n/a	7	60	Cue	Neutral	True
569.279	4.0	Control	0.623	0.0	Yes	2.672	0.001	n/a	GoodResponse	0	n/a	n/a	7	60	Fixation	Neutral	True
573.274	0.32	Control	0.623	0.004	Yes	2.672	-0.004	2.0	GoodResponse	0	0.221	572.495	7	60	Target	Neutral	True
573.495	0.3	Control	0.623	0.004	Yes	2.672	-0.004	2.0	GoodResponse	0	0.221	n/a	7	60	ButtonPress	Neutral	True
573.608	0.38	Control	0.623	n/a	Yes	2.672	n/a	n/a	GoodResponse	0	n/a	n/a	7	60	Blank	Neutral	True
573.976	1.45	Control	0.623	n/a	Yes	2.672	n/a	5.0	GoodResponse	0	0.04	573.016	7	60	Feedback	Neutral	True
575.431	2.672	Control	0.623	n/a	Yes	2.672	n/a	n/a	GoodResponse	0	0.0	n/a	7	60	ISIslide	Neutral	True
578.122	0.25	Lose2	0.629	0.0	Yes	2.978	0.022	n/a	GoodResponse	0	n/a	n/a	7	61	Cue	AvoidedLoss	True
578.373	4.0	Lose2	0.629	0.0	Yes	2.978	0.001	n/a	GoodResponse	0	n/a	n/a	7	61	Fixation	AvoidedLoss	True
582.368	0.33	Lose2	0.629	0.004	Yes	2.978	-0.004	2.0	GoodResponse	0	0.182	581.55	7	61	Target	AvoidedLoss	True
582.55	0.3	Lose2	0.629	0.004	Yes	2.978	-0.004	2.0	GoodResponse	0	0.182	n/a	7	61	ButtonPress	AvoidedLoss	True
582.702	0.37	Lose2	0.629	n/a	Yes	2.978	n/a	n/a	GoodResponse	0	n/a	n/a	7	61	Blank	AvoidedLoss	True
583.07	1.45	Lose2	0.629	n/a	Yes	2.978	n/a	5.0	GoodResponse	0	0.019	582.089	7	61	Feedback	AvoidedLoss	True
584.524	2.978	Lose2	0.629	n/a	Yes	2.978	n/a	n/a	GoodResponse	0	0.0	n/a	7	61	ISIslide	AvoidedLoss	True
587.517	0.25	Lose2	0.6349	0.0	Yes	2.883	0.017	n/a	GoodResponse	0	n/a	n/a	7	62	Cue	AvoidedLoss	True
587.767	3.9	Lose2	0.6349	0.0	Yes	2.883	0.0	n/a	GoodResponse	0	n/a	n/a	7	62	Fixation	AvoidedLoss	True
591.679	0.34	Lose2	0.6349	0.0	Yes	2.883	0.012	2.0	GoodResponse	0	0.201	590.88	7	62	Target	AvoidedLoss	True
591.88	0.3	Lose2	0.6349	0.0	Yes	2.883	0.012	2.0	GoodResponse	0	0.201	n/a	7	62	ButtonPress	AvoidedLoss	True
592.013	0.36	Lose2	0.6349	n/a	Yes	2.883	n/a	n/a	GoodResponse	0	n/a	n/a	7	62	Blank	AvoidedLoss	True
592.365	1.45	Lose2	0.6349	n/a	Yes	2.883	n/a	5.0	GoodResponse	0	0.042	591.407	7	62	Feedback	AvoidedLoss	True
593.819	2.883	Lose2	0.6349	n/a	Yes	2.883	n/a	n/a	GoodResponse	0	0.0	n/a	7	62	ISIslide	AvoidedLoss	True
596.728	0.25	Lose2	0.6406000000000001	0.0	Yes	2.622	0.028	n/a	GoodResponse	0	n/a	n/a	7	63	Cue	AvoidedLoss	True
596.978	4.05	Lose2	0.6406000000000001	0.0	Yes	2.622	0.0	n/a	GoodResponse	0	n/a	n/a	7	63	Fixation	AvoidedLoss	True
601.024	0.35	Lose2	0.6406000000000001	0.004	Yes	2.622	-0.004	2.0	GoodResponse	0	0.215	600.239	7	63	Target	AvoidedLoss	True
601.239	0.3	Lose2	0.6406000000000001	0.004	Yes	2.622	-0.004	2.0	GoodResponse	0	0.215	n/a	7	63	ButtonPress	AvoidedLoss	True
601.375	0.35	Lose2	0.6406000000000001	n/a	Yes	2.622	n/a	n/a	GoodResponse	0	n/a	n/a	7	63	Blank	AvoidedLoss	True
601.726	1.45	Lose2	0.6406000000000001	n/a	Yes	2.622	n/a	5.0	GoodResponse	0	0.046	600.772	7	63	Feedback	AvoidedLoss	True
603.18	2.622	Lose2	0.6406000000000001	n/a	Yes	2.622	n/a	n/a	GoodResponse	0	0.0	n/a	7	63	ISIslide	AvoidedLoss	True
605.821	0.25	Win2	0.6462	0.001	Yes	3.129	0.021	n/a	GoodResponse	1	n/a	n/a	8	64	Cue	Win	True
606.072	4.15	Win2	0.6462	0.0	Yes	3.129	0.001	n/a	GoodResponse	1	n/a	n/a	8	64	Fixation	Win	True
610.218	0.36	Win2	0.6462	0.003	Yes	3.129	-0.003	2.0	GoodResponse	1	0.201	609.419	8	64	Target	Win	True
610.419	0.3	Win2	0.6462	0.003	Yes	3.129	-0.003	2.0	GoodResponse	1	0.201	n/a	8	64	ButtonPress	Win	True
610.586	0.34	Win2	0.6462	n/a	Yes	3.129	n/a	n/a	GoodResponse	1	n/a	n/a	8	64	Blank	Win	True
610.92	1.45	Win2	0.6462	n/a	Yes	3.129	n/a	5.0	GoodResponse	1	0.022	609.942	8	64	Feedback	Win	True
612.374	3.129	Win2	0.6462	n/a	Yes	3.129	n/a	n/a	GoodResponse	1	0.0	n/a	8	64	ISIslide	Win	True
615.517	0.25	Control	0.6515000000000001	0.0	Yes	2.783	0.017	n/a	GoodResponse	0	n/a	n/a	8	65	Cue	Neutral	True
615.768	4.0	Control	0.6515000000000001	0.0	Yes	2.783	0.001	n/a	GoodResponse	0	n/a	n/a	8	65	Fixation	Neutral	True
619.763	0.37	Control	0.6515000000000001	0.004	Yes	2.783	-0.004	2.0	GoodResponse	0	0.268	619.031	8	65	Target	Neutral	True
620.031	0.3	Control	0.6515000000000001	0.004	Yes	2.783	-0.004	2.0	GoodResponse	0	0.268	n/a	8	65	ButtonPress	Neutral	True
620.148	0.33	Control	0.6515000000000001	n/a	Yes	2.783	n/a	n/a	GoodResponse	0	n/a	n/a	8	65	Blank	Neutral	True
620.465	1.45	Control	0.6515000000000001	n/a	Yes	2.783	n/a	5.0	GoodResponse	0	0.038	619.503	8	65	Feedback	Neutral	True
621.92	2.783	Control	0.6515000000000001	n/a	Yes	2.783	n/a	n/a	GoodResponse	0	0.0	n/a	8	65	ISIslide	Neutral	True
624.728	0.25	Win2	0.6567000000000001	0.0	Yes	2.772	0.028	n/a	GoodResponse	1	n/a	n/a	9	66	Cue	Win	True
624.979	3.9	Win2	0.6567000000000001	0.0	Yes	2.772	0.001	n/a	GoodResponse	1	n/a	n/a	9	66	Fixation	Win	True
628.874	0.38	Win2	0.6567000000000001	0.004	Yes	2.772	-0.004	2.0	GoodResponse	1	0.216	628.09	9	66	Target	Win	True
629.09	0.3	Win2	0.6567000000000001	0.004	Yes	2.772	-0.004	2.0	GoodResponse	1	0.216	n/a	9	66	ButtonPress	Win	True
629.258	0.32	Win2	0.6567000000000001	n/a	Yes	2.772	n/a	n/a	GoodResponse	1	n/a	n/a	9	66	Blank	Win	True
629.576	1.45	Win2	0.6567000000000001	n/a	Yes	2.772	n/a	5.0	GoodResponse	1	0.001	628.577	9	66	Feedback	Win	True
631.03	2.772	Win2	0.6567000000000001	n/a	Yes	2.772	n/a	n/a	GoodResponse	1	0.0	n/a	9	66	ISIslide	Win	True
633.822	0.25	Control	0.6618	0.0	Yes	2.728	0.022	n/a	GoodResponse	0	n/a	n/a	9	67	Cue	Neutral	True
634.073	3.95	Control	0.6618	0.0	Yes	2.728	0.001	n/a	GoodResponse	0	n/a	n/a	9	67	Fixation	Neutral	True
638.018	0.38	Control	0.6618	0.004	Yes	2.728	-0.004	2.0	GoodResponse	0	0.243	637.261	9	67	Target	Neutral	True
638.261	0.3	Control	0.6618	0.004	Yes	2.728	-0.004	2.0	GoodResponse	0	0.243	n/a	9	67	ButtonPress	Neutral	True
638.402	0.32	Control	0.6618	n/a	Yes	2.728	n/a	n/a	GoodResponse	0	n/a	n/a	9	67	Blank	Neutral	True
638.72	1.45	Control	0.6618	n/a	Yes	2.728	n/a	5.0	GoodResponse	0	0.027	637.747	9	67	Feedback	Neutral	True
640.174	2.728	Control	0.6618	n/a	Yes	2.728	n/a	n/a	GoodResponse	0	0.0	n/a	9	67	ISIslide	Neutral	True
642.916	0.25	Win2	0.6667000000000001	0.0	Yes	3.084	0.016	n/a	GoodResponse	1	n/a	n/a	10	68	Cue	Win	True
643.166	4.0	Win2	0.6667000000000001	0.0	Yes	3.084	0.0	n/a	GoodResponse	1	n/a	n/a	10	68	Fixation	Win	True
647.162	0.38	Win2	0.6667000000000001	0.004	Yes	3.084	-0.004	2.0	GoodResponse	1	0.189	646.351	10	68	Target	Win	True
647.351	0.3	Win2	0.6667000000000001	0.004	Yes	3.084	-0.004	2.0	GoodResponse	1	0.189	n/a	10	68	ButtonPress	Win	True
647.546	0.32	Win2	0.6667000000000001	n/a	Yes	3.084	n/a	n/a	GoodResponse	1	n/a	n/a	10	68	Blank	Win	True
647.864	1.45	Win2	0.6667000000000001	n/a	Yes	3.084	n/a	5.0	GoodResponse	1	0.007	646.871	10	68	Feedback	Win	True
649.318	3.084	Win2	0.6667000000000001	n/a	Yes	3.084	n/a	n/a	GoodResponse	1	0.0	n/a	10	68	ISIslide	Win	True
652.427	0.25	Win2	0.6714	0.001	Yes	3.223	0.027	n/a	GoodResponse	1	n/a	n/a	11	69	Cue	Win	True
652.678	3.95	Win2	0.6714	0.0	Yes	3.223	0.001	n/a	GoodResponse	1	n/a	n/a	11	69	Fixation	Win	True
656.623	0.37	Win2	0.6714	0.004	Yes	3.223	-0.004	2.0	GoodResponse	1	0.189	655.812	11	69	Target	Win	True
656.812	0.3	Win2	0.6714	0.004	Yes	3.223	-0.004	2.0	GoodResponse	1	0.189	n/a	11	69	ButtonPress	Win	True
657.008	0.33	Win2	0.6714	n/a	Yes	3.223	n/a	n/a	GoodResponse	1	n/a	n/a	11	69	Blank	Win	True
657.325	1.45	Win2	0.6714	n/a	Yes	3.223	n/a	5.0	GoodResponse	1	0.007	656.332	11	69	Feedback	Win	True
658.78	3.223	Win2	0.6714	n/a	Yes	3.223	n/a	n/a	GoodResponse	1	0.0	n/a	11	69	ISIslide	Win	True
662.023	0.25	Lose2	0.6761	0.0	Yes	3.027	0.023	n/a	GoodResponse	0	n/a	n/a	11	70	Cue	AvoidedLoss	True
662.274	4.05	Lose2	0.6761	0.0	Yes	3.027	0.001	n/a	GoodResponse	0	n/a	n/a	11	70	Fixation	AvoidedLoss	True
666.319	0.36	Lose2	0.6761	0.004	Yes	3.027	-0.004	2.0	GoodResponse	0	0.213	665.532	11	70	Target	AvoidedLoss	True
666.532	0.3	Lose2	0.6761	0.004	Yes	3.027	-0.004	2.0	GoodResponse	0	0.213	n/a	11	70	ButtonPress	AvoidedLoss	True
666.687	0.34	Lose2	0.6761	n/a	Yes	3.027	n/a	n/a	GoodResponse	0	n/a	n/a	11	70	Blank	AvoidedLoss	True
667.021	1.45	Lose2	0.6761	n/a	Yes	3.027	n/a	5.0	GoodResponse	0	0.018	666.039	11	70	Feedback	AvoidedLoss	True
668.475	3.027	Lose2	0.6761	n/a	Yes	3.027	n/a	n/a	GoodResponse	0	0.0	n/a	11	70	ISIslide	AvoidedLoss	True
671.518	0.25	Win2	0.6806	0.0	Yes	2.732	0.018	n/a	GoodResponse	1	n/a	n/a	12	71	Cue	Win	True
671.769	4.05	Win2	0.6806	0.0	Yes	2.732	0.001	n/a	GoodResponse	1	n/a	n/a	12	71	Fixation	Win	True
675.814	0.35	Win2	0.6806	0.004	Yes	2.732	-0.004	2.0	GoodResponse	1	0.215	675.029	12	71	Target	Win	True
676.029	0.3	Win2	0.6806	0.004	Yes	2.732	-0.004	2.0	GoodResponse	1	0.215	n/a	12	71	ButtonPress	Win	True
676.165	0.35	Win2	0.6806	n/a	Yes	2.732	n/a	n/a	GoodResponse	1	n/a	n/a	12	71	Blank	Win	True
676.516	1.45	Win2	0.6806	n/a	Yes	2.732	n/a	5.0	GoodResponse	1	0.036	675.552	12	71	Feedback	Win	True
677.97	2.732	Win2	0.6806	n/a	Yes	2.732	n/a	n/a	GoodResponse	1	0.0	n/a	12	71	ISIslide	Win	True
680.729	0.25	Win2	0.6849	0.0	Yes	2.771	0.029	n/a	GoodResponse	1	n/a	n/a	13	72	Cue	Win	True
680.979	4.1	Win2	0.6849	0.001	Yes	2.771	0.0	n/a	GoodResponse	1	n/a	n/a	13	72	Fixation	Win	True
685.075	0.34	Win2	0.6849	0.004	Yes	2.771	-0.004	2.0	GoodResponse	1	0.233	684.308	13	72	Target	Win	True
685.308	0.3	Win2	0.6849	0.004	Yes	2.771	-0.004	2.0	GoodResponse	1	0.233	n/a	13	72	ButtonPress	Win	True
685.426	0.36	Win2	0.6849	n/a	Yes	2.771	n/a	n/a	GoodResponse	1	n/a	n/a	13	72	Blank	Win	True
685.777	1.45	Win2	0.6849	n/a	Yes	2.771	n/a	5.0	GoodResponse	1	0.043	684.82	13	72	Feedback	Win	True
687.231	2.771	Win2	0.6849	n/a	Yes	2.771	n/a	n/a	GoodResponse	1	0.0	n/a	13	72	ISIslide	Win	True
690.023	0.25	Win2	0.6892	0.0	Yes	2.677	0.023	n/a	GoodResponse	1	n/a	n/a	14	73	Cue	Win	True
690.274	4.0	Win2	0.6892	0.0	Yes	2.677	0.001	n/a	GoodResponse	1	n/a	n/a	14	73	Fixation	Win	True
694.269	0.33	Win2	0.6892	0.004	Yes	2.677	-0.004	2.0	GoodResponse	1	0.204	693.473	14	73	Target	Win	True
694.473	0.3	Win2	0.6892	0.004	Yes	2.677	-0.004	2.0	GoodResponse	1	0.204	n/a	14	73	ButtonPress	Win	True
694.604	0.37	Win2	0.6892	n/a	Yes	2.677	n/a	n/a	GoodResponse	1	n/a	n/a	14	73	Blank	Win	True
694.971	1.45	Win2	0.6892	n/a	Yes	2.677	n/a	5.0	GoodResponse	1	0.02	693.991	14	73	Feedback	Win	True
696.426	2.677	Win2	0.6892	n/a	Yes	2.677	n/a	n/a	GoodResponse	1	0.0	n/a	14	73	ISIslide	Win	True
699.117	0.25	Lose2	0.6933	0.0	Yes	2.633	0.017	n/a	GoodResponse	0	n/a	n/a	14	74	Cue	AvoidedLoss	True
699.368	4.05	Lose2	0.6933	0.0	Yes	2.633	0.001	n/a	GoodResponse	0	n/a	n/a	14	74	Fixation	AvoidedLoss	True
703.413	0.32	Lose2	0.6933	0.004	Yes	2.633	-0.004	2.0	GoodResponse	0	0.179	702.592	14	74	Target	AvoidedLoss	True
703.592	0.3	Lose2	0.6933	0.004	Yes	2.633	-0.004	2.0	GoodResponse	0	0.179	n/a	14	74	ButtonPress	AvoidedLoss	True
703.748	0.38	Lose2	0.6933	n/a	Yes	2.633	n/a	n/a	GoodResponse	0	n/a	n/a	14	74	Blank	AvoidedLoss	True
704.115	1.45	Lose2	0.6933	n/a	Yes	2.633	n/a	5.0	GoodResponse	0	0.046	703.161	14	74	Feedback	AvoidedLoss	True
705.57	2.633	Lose2	0.6933	n/a	Yes	2.633	n/a	n/a	GoodResponse	0	0.0	n/a	14	74	ISIslide	AvoidedLoss	True
708.228	0.25	Lose2	0.6973999999999999	0.0	Yes	2.922	0.028	n/a	GoodResponse	0	n/a	n/a	14	75	Cue	AvoidedLoss	True
708.478	3.95	Lose2	0.6973999999999999	0.0	Yes	2.922	0.0	n/a	GoodResponse	0	n/a	n/a	14	75	Fixation	AvoidedLoss	True
712.423	0.31	Lose2	0.6973999999999999	0.005	Yes	2.922	-0.005	2.0	GoodResponse	0	0.206	711.629	14	75	Target	AvoidedLoss	True
712.629	0.3	Lose2	0.6973999999999999	0.005	Yes	2.922	-0.005	2.0	GoodResponse	0	0.206	n/a	14	75	ButtonPress	AvoidedLoss	True
712.741	0.39	Lose2	0.6973999999999999	n/a	Yes	2.922	n/a	n/a	GoodResponse	0	n/a	n/a	14	75	Blank	AvoidedLoss	True
713.126	1.45	Lose2	0.6973999999999999	n/a	Yes	2.922	n/a	5.0	GoodResponse	0	0.011	712.137	14	75	Feedback	AvoidedLoss	True
714.58	2.922	Lose2	0.6973999999999999	n/a	Yes	2.922	n/a	n/a	GoodResponse	0	0.0	n/a	14	75	ISIslide	AvoidedLoss	True
717.522	0.25	Control	0.7012999999999999	0.0	Yes	3.228	0.022	n/a	GoodResponse	0	n/a	n/a	14	76	Cue	Neutral	True
717.773	4.05	Control	0.7012999999999999	0.0	Yes	3.228	0.001	n/a	GoodResponse	0	n/a	n/a	14	76	Fixation	Neutral	True
721.818	0.3	Control	0.7012999999999999	0.004	Yes	3.228	-0.004	2.0	GoodResponse	0	0.218	721.036	14	76	Target	Neutral	True
722.036	0.3	Control	0.7012999999999999	0.004	Yes	3.228	-0.004	2.0	GoodResponse	0	0.218	n/a	14	76	ButtonPress	Neutral	True
722.119	0.4	Control	0.7012999999999999	n/a	Yes	3.228	n/a	n/a	GoodResponse	0	n/a	n/a	14	76	Blank	Neutral	True
722.52	1.45	Control	0.7012999999999999	n/a	Yes	3.228	n/a	5.0	GoodResponse	0	0.031	721.551	14	76	Feedback	Neutral	True
723.975	3.228	Control	0.7012999999999999	n/a	Yes	3.228	n/a	n/a	GoodResponse	0	0.0	n/a	14	76	ISIslide	Neutral	True
727.218	0.25	Lose2	0.7051000000000001	0.0	Yes	2.582	0.018	n/a	GoodResponse	0	n/a	n/a	14	77	Cue	AvoidedLoss	True
727.468	3.95	Lose2	0.7051000000000001	0.001	Yes	2.582	0.0	n/a	GoodResponse	0	n/a	n/a	14	77	Fixation	AvoidedLoss	True
731.414	0.29	Lose2	0.7051000000000001	0.004	Yes	2.582	-0.004	2.0	GoodResponse	0	0.195	730.609	14	77	Target	AvoidedLoss	True
731.609	0.3	Lose2	0.7051000000000001	0.004	Yes	2.582	-0.004	2.0	GoodResponse	0	0.195	n/a	14	77	ButtonPress	AvoidedLoss	True
731.714	0.41	Lose2	0.7051000000000001	n/a	Yes	2.582	n/a	n/a	GoodResponse	0	n/a	n/a	14	77	Blank	AvoidedLoss	True
732.116	1.45	Lose2	0.7051000000000001	n/a	Yes	2.582	n/a	5.0	GoodResponse	0	0.045	731.161	14	77	Feedback	AvoidedLoss	True
733.57	2.582	Lose2	0.7051000000000001	n/a	Yes	2.582	n/a	n/a	GoodResponse	0	0.0	n/a	14	77	ISIslide	AvoidedLoss	True
