onset	duration	cue_type	current_mean_accuracy	duration_error	is_hit	isi_adjusted	onset_delay	response	response_type	reward	rt	rt_time	total_reward	trial_number	trial_phase	trial_type	one_press
11.098	0.25	Control	1.0	0.0	Yes	2.952	-0.002	n/a	GoodResponse	0	n/a	n/a	0	0	Cue	Neutral	True
11.348	3.85	Control	1.0	0.0	Yes	2.952	0.0	n/a	GoodResponse	0	n/a	n/a	0	0	Fixation	Neutral	True
15.197	0.4	Control	1.0	0.001	Yes	2.952	-0.001	2.0	GoodResponse	0	0.247	14.444	0	0	Target	Neutral	True
15.444	0.3	Control	1.0	0.001	Yes	2.952	-0.001	2.0	GoodResponse	0	0.247	n/a	0	0	ButtonPress	Neutral	True
15.597	0.3	Control	1.0	n/a	Yes	2.952	n/a	n/a	GoodResponse	0	n/a	n/a	0	0	Blank	Neutral	True
15.897	1.45	Control	1.0	n/a	Yes	2.952	n/a	5.0	GoodResponse	0	0.033	14.93	0	0	Feedback	Neutral	True
17.346	2.952	Control	1.0	n/a	Yes	2.952	n/a	n/a	GoodResponse	0	0.0	n/a	0	0	ISIslide	Neutral	True
20.378	0.25	Lose2	1.0	0.001	Yes	2.722	0.078	n/a	GoodResponse	0	n/a	n/a	0	1	Cue	AvoidedLoss	True
20.628	4.0	Lose2	1.0	0.0	Yes	2.722	0.0	n/a	GoodResponse	0	n/a	n/a	0	1	Fixation	AvoidedLoss	True
24.627	0.39	Lose2	1.0	0.001	Yes	2.722	-0.001	2.0	GoodResponse	0	0.203	23.83	0	1	Target	AvoidedLoss	True
24.83	0.3	Lose2	1.0	0.001	Yes	2.722	-0.001	2.0	GoodResponse	0	0.203	n/a	0	1	ButtonPress	AvoidedLoss	True
25.027	0.31	Lose2	1.0	n/a	Yes	2.722	n/a	n/a	GoodResponse	0	n/a	n/a	0	1	Blank	AvoidedLoss	True
25.327	1.45	Lose2	1.0	n/a	Yes	2.722	n/a	5.0	GoodResponse	0	0.017	24.344	0	1	Feedback	AvoidedLoss	True
26.776	2.722	Lose2	1.0	n/a	Yes	2.722	n/a	n/a	GoodResponse	0	0.0	n/a	0	1	ISIslide	AvoidedLoss	True
29.525	0.25	Control	1.0	0.0	Yes	2.575	0.025	n/a	GoodResponse	0	n/a	n/a	0	2	Cue	Neutral	True
29.775	4.1	Control	1.0	0.0	Yes	2.575	0.0	n/a	GoodResponse	0	n/a	n/a	0	2	Fixation	Neutral	True
33.874	0.38	Control	1.0	0.001	Yes	2.575	-0.001	2.0	GoodResponse	0	0.212	33.086	0	2	Target	Neutral	True
34.086	0.3	Control	1.0	0.001	Yes	2.575	-0.001	2.0	GoodResponse	0	0.212	n/a	0	2	ButtonPress	Neutral	True
34.257	0.32	Control	1.0	n/a	Yes	2.575	n/a	n/a	GoodResponse	0	n/a	n/a	0	2	Blank	Neutral	True
34.573	1.45	Control	1.0	n/a	Yes	2.575	n/a	5.0	GoodResponse	0	0.039	33.612	0	2	Feedback	Neutral	True
36.023	2.575	Control	1.0	n/a	Yes	2.575	n/a	n/a	GoodResponse	0	0.0	n/a	0	2	ISIslide	Neutral	True
38.622	0.25	Win2	1.0	0.0	Yes	2.828	0.022	n/a	GoodResponse	1	n/a	n/a	1	3	Cue	Win	True
38.872	3.95	Win2	1.0	0.0	Yes	2.828	0.0	n/a	GoodResponse	1	n/a	n/a	1	3	Fixation	Win	True
42.821	0.37	Win2	1.0	0.001	Yes	2.828	-0.001	2.0	GoodResponse	1	0.197	42.018	1	3	Target	Win	True
43.018	0.3	Win2	1.0	0.001	Yes	2.828	-0.001	2.0	GoodResponse	1	0.197	n/a	1	3	ButtonPress	Win	True
43.204	0.33	Win2	1.0	n/a	Yes	2.828	n/a	n/a	GoodResponse	1	n/a	n/a	1	3	Blank	Win	True
43.52	1.45	Win2	1.0	n/a	Yes	2.828	n/a	5.0	GoodResponse	1	0.019	42.539	1	3	Feedback	Win	True
44.97	2.828	Win2	1.0	n/a	Yes	2.828	n/a	n/a	GoodResponse	1	0.0	n/a	1	3	ISIslide	Win	True
47.819	0.25	Win2	1.0	0.0	Yes	3.281	0.019	n/a	GoodResponse	1	n/a	n/a	2	4	Cue	Win	True
48.069	4.0	Win2	1.0	0.0	Yes	3.281	0.0	n/a	GoodResponse	1	n/a	n/a	2	4	Fixation	Win	True
52.067	0.36	Win2	1.0	0.002	Yes	3.281	-0.002	2.0	GoodResponse	1	0.199	51.266	2	4	Target	Win	True
52.266	0.3	Win2	1.0	0.002	Yes	3.281	-0.002	2.0	GoodResponse	1	0.199	n/a	2	4	ButtonPress	Win	True
52.434	0.34	Win2	1.0	n/a	Yes	3.281	n/a	n/a	GoodResponse	1	n/a	n/a	2	4	Blank	Win	True
52.767	1.45	Win2	1.0	n/a	Yes	3.281	n/a	5.0	GoodResponse	1	0.04	51.807	2	4	Feedback	Win	True
54.217	3.281	Win2	1.0	n/a	Yes	3.281	n/a	n/a	GoodResponse	1	0.0	n/a	2	4	ISIslide	Win	True
57.515	0.25	Win2	1.0	0.001	Yes	2.785	0.015	n/a	GoodResponse	1	n/a	n/a	3	5	Cue	Win	True
57.765	4.0	Win2	1.0	0.0	Yes	2.785	0.0	n/a	GoodResponse	1	n/a	n/a	3	5	Fixation	Win	True
61.764	0.35	Win2	1.0	0.001	Yes	2.785	-0.001	2.0	GoodResponse	1	0.178	60.942	3	5	Target	Win	True
61.942	0.3	Win2	1.0	0.001	Yes	2.785	-0.001	2.0	GoodResponse	1	0.178	n/a	3	5	ButtonPress	Win	True
62.114	0.35	Win2	1.0	n/a	Yes	2.785	n/a	n/a	GoodResponse	1	n/a	n/a	3	5	Blank	Win	True
62.464	1.45	Win2	1.0	n/a	Yes	2.785	n/a	5.0	GoodResponse	1	0.007	61.471	3	5	Feedback	Win	True
63.913	2.785	Win2	1.0	n/a	Yes	2.785	n/a	n/a	GoodResponse	1	0.0	n/a	3	5	ISIslide	Win	True
66.729	0.25	Lose2	1.0	0.0	Yes	2.721	0.029	n/a	GoodResponse	0	n/a	n/a	3	6	Cue	AvoidedLoss	True
66.979	3.95	Lose2	1.0	0.0	Yes	2.721	0.0	n/a	GoodResponse	0	n/a	n/a	3	6	Fixation	AvoidedLoss	True
70.927	0.34	Lose2	1.0	0.002	Yes	2.721	-0.002	2.0	GoodResponse	0	0.165	70.092	3	6	Target	AvoidedLoss	True
71.092	0.3	Lose2	1.0	0.002	Yes	2.721	-0.002	2.0	GoodResponse	0	0.165	n/a	3	6	ButtonPress	AvoidedLoss	True
71.277	0.36	Lose2	1.0	n/a	Yes	2.721	n/a	n/a	GoodResponse	0	n/a	n/a	3	6	Blank	AvoidedLoss	True
71.627	1.45	Lose2	1.0	n/a	Yes	2.721	n/a	5.0	GoodResponse	0	0.009	70.636	3	6	Feedback	AvoidedLoss	True
73.077	2.721	Lose2	1.0	n/a	Yes	2.721	n/a	n/a	GoodResponse	0	0.0	n/a	3	6	ISIslide	AvoidedLoss	True
75.826	0.25	Lose2	1.0	0.0	Yes	4.024	0.026	n/a	GoodResponse	0	n/a	n/a	3	7	Cue	AvoidedLoss	False
76.076	4.05	Lose2	1.0	0.0	Yes	4.024	0.0	2.0	GoodResponse	0	3.714	78.79	3	7	Fixation	AvoidedLoss	False
79.79	0.3	Lose2	1.0	0.0	Yes	4.024	0.0	2.0	GoodResponse	0	3.714	n/a	3	7	ButtonPress	AvoidedLoss	False
80.124	0.33	Lose2	1.0	0.002	Yes	4.024	-0.002	2.0	GoodResponse	0	0.191	79.315	3	7	Target	AvoidedLoss	False
80.315	0.3	Lose2	1.0	0.002	Yes	4.024	-0.002	2.0	GoodResponse	0	0.191	n/a	3	7	ButtonPress	AvoidedLoss	False
80.457	0.37	Lose2	1.0	n/a	Yes	4.024	n/a	n/a	GoodResponse	0	n/a	n/a	3	7	Blank	AvoidedLoss	False
80.824	1.45	Lose2	1.0	n/a	Yes	4.024	n/a	5.0	GoodResponse	0	0.031	79.855	3	7	Feedback	AvoidedLoss	False
82.273	4.024	Lose2	1.0	n/a	Yes	4.024	n/a	n/a	GoodResponse	0	0.0	n/a	3	7	ISIslide	AvoidedLoss	False
86.322	0.25	Lose2	1.0	0.0	Yes	3.028	0.022	n/a	GoodResponse	0	n/a	n/a	3	8	Cue	AvoidedLoss	True
86.572	3.95	Lose2	1.0	0.0	Yes	3.028	0.0	n/a	GoodResponse	0	n/a	n/a	3	8	Fixation	AvoidedLoss	True
90.521	0.32	Lose2	1.0	0.001	Yes	3.028	-0.001	2.0	GoodResponse	0	0.187	89.708	3	8	Target	AvoidedLoss	True
90.708	0.3	Lose2	1.0	0.001	Yes	3.028	-0.001	2.0	GoodResponse	0	0.187	n/a	3	8	ButtonPress	AvoidedLoss	True
90.854	0.38	Lose2	1.0	n/a	Yes	3.028	n/a	n/a	GoodResponse	0	n/a	n/a	3	8	Blank	AvoidedLoss	True
91.22	1.45	Lose2	1.0	n/a	Yes	3.028	n/a	5.0	GoodResponse	0	0.026	90.246	3	8	Feedback	AvoidedLoss	True
92.67	3.028	Lose2	1.0	n/a	Yes	3.028	n/a	n/a	GoodResponse	0	0.0	n/a	3	8	ISIslide	AvoidedLoss	True
95.719	0.25	Lose2	1.0	0.0	Yes	3.131	0.019	n/a	GoodResponse	0	n/a	n/a	3	9	Cue	AvoidedLoss	True
95.969	3.95	Lose2	1.0	0.0	Yes	3.131	0.0	n/a	GoodResponse	0	n/a	n/a	3	9	Fixation	AvoidedLoss	True
99.917	0.31	Lose2	1.0	0.002	Yes	3.131	-0.002	2.0	GoodResponse	0	0.2	99.117	3	9	Target	AvoidedLoss	True
100.117	0.3	Lose2	1.0	0.002	Yes	3.131	-0.002	2.0	GoodResponse	0	0.2	n/a	3	9	ButtonPress	AvoidedLoss	True
100.234	0.39	Lose2	1.0	n/a	Yes	3.131	n/a	n/a	GoodResponse	0	n/a	n/a	3	9	Blank	AvoidedLoss	True
100.617	1.45	Lose2	1.0	n/a	Yes	3.131	n/a	5.0	GoodResponse	0	0.044	99.661	3	9	Feedback	AvoidedLoss	True
102.067	3.131	Lose2	1.0	n/a	Yes	3.131	n/a	n/a	GoodResponse	0	0.0	n/a	3	9	ISIslide	AvoidedLoss	True
105.215	0.25	Control	1.0	0.001	Yes	3.285	0.015	n/a	GoodResponse	0	n/a	n/a	3	10	Cue	Neutral	True
105.465	4.0	Control	1.0	0.0	Yes	3.285	0.0	n/a	GoodResponse	0	n/a	n/a	3	10	Fixation	Neutral	True
109.464	0.3	Control	1.0	0.001	Yes	3.285	-0.001	2.0	GoodResponse	0	0.234	108.698	3	10	Target	Neutral	True
109.698	0.3	Control	1.0	0.001	Yes	3.285	-0.001	2.0	GoodResponse	0	0.234	n/a	3	10	ButtonPress	Neutral	True
109.764	0.4	Control	1.0	n/a	Yes	3.285	n/a	n/a	GoodResponse	0	n/a	n/a	3	10	Blank	Neutral	True
110.164	1.45	Control	1.0	n/a	Yes	3.285	n/a	5.0	GoodResponse	0	0.009	109.173	3	10	Feedback	Neutral	True
111.613	3.285	Control	1.0	n/a	Yes	3.285	n/a	n/a	GoodResponse	0	0.0	n/a	3	10	ISIslide	Neutral	True
114.929	0.25	Lose2	1.0	0.0	Yes	2.721	0.029	n/a	GoodResponse	0	n/a	n/a	3	11	Cue	AvoidedLoss	True
115.179	4.05	Lose2	1.0	0.0	Yes	2.721	0.0	n/a	GoodResponse	0	n/a	n/a	3	11	Fixation	AvoidedLoss	True
119.227	0.29	Lose2	1.0	0.002	Yes	2.721	-0.002	2.0	GoodResponse	0	0.193	118.42	3	11	Target	AvoidedLoss	True
119.42	0.3	Lose2	1.0	0.002	Yes	2.721	-0.002	2.0	GoodResponse	0	0.193	n/a	3	11	ButtonPress	AvoidedLoss	True
119.527	0.41	Lose2	1.0	n/a	Yes	2.721	n/a	n/a	GoodResponse	0	n/a	n/a	3	11	Blank	AvoidedLoss	True
119.927	1.45	Lose2	1.0	n/a	Yes	2.721	n/a	5.0	GoodResponse	0	0.001	118.928	3	11	Feedback	AvoidedLoss	True
121.376	2.721	Lose2	1.0	n/a	Yes	2.721	n/a	n/a	GoodResponse	0	0.0	n/a	3	11	ISIslide	AvoidedLoss	True
124.126	0.25	Control	1.0	0.0	Yes	2.974	0.026	n/a	GoodResponse	0	n/a	n/a	3	12	Cue	Neutral	True
124.375	3.9	Control	1.0	0.001	Yes	2.974	-0.001	n/a	GoodResponse	0	n/a	n/a	3	12	Fixation	Neutral	True
128.274	0.28	Control	1.0	0.002	Yes	2.974	-0.002	2.0	GoodResponse	0	0.197	127.471	3	12	Target	Neutral	True
128.471	0.3	Control	1.0	0.002	Yes	2.974	-0.002	2.0	GoodResponse	0	0.197	n/a	3	12	ButtonPress	Neutral	True
128.557	0.42	Control	1.0	n/a	Yes	2.974	n/a	n/a	GoodResponse	0	n/a	n/a	3	12	Blank	Neutral	True
128.974	1.45	Control	1.0	n/a	Yes	2.974	n/a	5.0	GoodResponse	0	0.027	128.001	3	12	Feedback	Neutral	True
130.423	2.974	Control	1.0	n/a	Yes	2.974	n/a	n/a	GoodResponse	0	0.0	n/a	3	12	ISIslide	Neutral	True
133.422	0.25	Control	1.0	0.0	Yes	2.778	0.022	n/a	GoodResponse	0	n/a	n/a	3	13	Cue	Neutral	True
133.672	4.0	Control	1.0	0.0	Yes	2.778	0.0	n/a	GoodResponse	0	n/a	n/a	3	13	Fixation	Neutral	True
137.671	0.27	Control	1.0	0.001	Yes	2.778	-0.001	2.0	GoodResponse	0	0.186	136.857	3	13	Target	Neutral	True
137.857	0.3	Control	1.0	0.001	Yes	2.778	-0.001	2.0	GoodResponse	0	0.186	n/a	3	13	ButtonPress	Neutral	True
137.937	0.43	Control	1.0	n/a	Yes	2.778	n/a	n/a	GoodResponse	0	n/a	n/a	3	13	Blank	Neutral	True
138.371	1.45	Control	1.0	n/a	Yes	2.778	n/a	5.0	GoodResponse	0	0.045	137.416	3	13	Feedback	Neutral	True
139.82	2.778	Control	1.0	n/a	Yes	2.778	n/a	n/a	GoodResponse	0	0.0	n/a	3	13	ISIslide	Neutral	True
142.619	0.25	Win2	1.0	0.0	Yes	2.681	0.019	n/a	GoodResponse	1	n/a	n/a	4	14	Cue	Win	True
142.869	4.1	Win2	1.0	0.0	Yes	2.681	0.0	n/a	GoodResponse	1	n/a	n/a	4	14	Fixation	Win	True
146.968	0.26	Win2	1.0	0.001	Yes	2.681	-0.001	2.0	GoodResponse	1	0.161	146.129	4	14	Target	Win	True
147.129	0.3	Win2	1.0	0.001	Yes	2.681	-0.001	2.0	GoodResponse	1	0.161	n/a	4	14	ButtonPress	Win	True
147.234	0.44	Win2	1.0	n/a	Yes	2.681	n/a	n/a	GoodResponse	1	n/a	n/a	4	14	Blank	Win	True
147.667	1.45	Win2	1.0	n/a	Yes	2.681	n/a	5.0	GoodResponse	1	0.018	146.685	4	14	Feedback	Win	True
149.117	2.681	Win2	1.0	n/a	Yes	2.681	n/a	n/a	GoodResponse	1	0.0	n/a	4	14	ISIslide	Win	True
151.816	0.25	Control	0.9375	0.0	No	2.984	0.016	n/a	NoResponse	0	n/a	n/a	4	15	Cue	Neutral	True
152.066	4.0	Control	0.9375	0.0	No	2.984	0.0	n/a	NoResponse	0	n/a	n/a	4	15	Fixation	Neutral	True
156.064	0.25	Control	0.9375	0.002	No	2.984	-0.002	2.0	NoResponse	0	0.354	155.418	4	15	Target	Neutral	True
156.314	0.45	Control	0.9375	n/a	No	2.984	n/a	n/a	NoResponse	0	n/a	n/a	4	15	Blank	Neutral	True
156.418	0.3	Control	0.9375	0.002	No	2.984	-0.002	2.0	NoResponse	0	0.354	n/a	4	15	ButtonPress	Neutral	True
156.764	1.45	Control	0.9375	n/a	No	2.984	n/a	5.0	NoResponse	0	0.043	155.807	4	15	Feedback	Neutral	True
158.214	2.984	Control	0.9375	n/a	No	2.984	n/a	n/a	NoResponse	0	0.0	n/a	4	15	ISIslide	Neutral	True
161.213	0.25	Win2	0.9412	0.0	Yes	2.887	0.013	n/a	GoodResponse	1	n/a	n/a	5	16	Cue	Win	True
161.463	4.0	Win2	0.9412	0.0	Yes	2.887	0.0	n/a	GoodResponse	1	n/a	n/a	5	16	Fixation	Win	True
165.461	0.24	Win2	0.9412	0.002	Yes	2.887	-0.002	2.0	GoodResponse	1	0.197	164.658	5	16	Target	Win	True
165.658	0.3	Win2	0.9412	0.002	Yes	2.887	-0.002	2.0	GoodResponse	1	0.197	n/a	5	16	ButtonPress	Win	True
165.711	0.46	Win2	0.9412	n/a	Yes	2.887	n/a	n/a	GoodResponse	1	n/a	n/a	5	16	Blank	Win	True
166.161	1.45	Win2	0.9412	n/a	Yes	2.887	n/a	5.0	GoodResponse	1	0.012	165.173	5	16	Feedback	Win	True
167.61	2.887	Win2	0.9412	n/a	Yes	2.887	n/a	n/a	GoodResponse	1	0.0	n/a	5	16	ISIslide	Win	True
170.526	0.25	Lose2	0.9444	0.0	Yes	2.724	0.026	n/a	GoodResponse	0	n/a	n/a	5	17	Cue	AvoidedLoss	True
170.776	3.95	Lose2	0.9444	0.0	Yes	2.724	0.0	n/a	GoodResponse	0	n/a	n/a	5	17	Fixation	AvoidedLoss	True
174.725	0.23	Lose2	0.9444	0.001	Yes	2.724	-0.001	2.0	GoodResponse	0	0.177	173.902	5	17	Target	AvoidedLoss	True
174.902	0.3	Lose2	0.9444	0.001	Yes	2.724	-0.001	2.0	GoodResponse	0	0.177	n/a	5	17	ButtonPress	AvoidedLoss	True
174.958	0.47	Lose2	0.9444	n/a	Yes	2.724	n/a	n/a	GoodResponse	0	n/a	n/a	5	17	Blank	AvoidedLoss	True
175.424	1.45	Lose2	0.9444	n/a	Yes	2.724	n/a	5.0	GoodResponse	0	0.016	174.44	5	17	Feedback	AvoidedLoss	True
176.874	2.724	Lose2	0.9444	n/a	Yes	2.724	n/a	n/a	GoodResponse	0	0.0	n/a	5	17	ISIslide	AvoidedLoss	True
179.623	0.25	Lose2	0.9473999999999999	0.0	Yes	2.727	0.023	n/a	GoodResponse	0	n/a	n/a	5	18	Cue	AvoidedLoss	False
179.873	4.05	Lose2	0.9473999999999999	0.0	Yes	2.727	0.0	2.0	GoodResponse	0	3.167	182.04	5	18	Fixation	AvoidedLoss	False
183.04	0.3	Lose2	0.9473999999999999	0.0	Yes	2.727	0.0	2.0	GoodResponse	0	3.167	n/a	5	18	ButtonPress	AvoidedLoss	False
183.921	0.22	Lose2	0.9473999999999999	0.002	Yes	2.727	-0.002	2.0	GoodResponse	0	0.194	183.115	5	18	Target	AvoidedLoss	False
184.115	0.3	Lose2	0.9473999999999999	0.002	Yes	2.727	-0.002	2.0	GoodResponse	0	0.194	n/a	5	18	ButtonPress	AvoidedLoss	False
184.155	0.48	Lose2	0.9473999999999999	n/a	Yes	2.727	n/a	n/a	GoodResponse	0	n/a	n/a	5	18	Blank	AvoidedLoss	False
184.621	1.45	Lose2	0.9473999999999999	n/a	Yes	2.727	n/a	5.0	GoodResponse	0	0.039	183.66	5	18	Feedback	AvoidedLoss	False
186.071	2.727	Lose2	0.9473999999999999	n/a	Yes	2.727	n/a	n/a	GoodResponse	0	0.0	n/a	5	18	ISIslide	AvoidedLoss	False
188.82	0.25	Control	0.9	0.0	No	2.93	0.02	n/a	NoResponse	0	n/a	n/a	5	19	Cue	Neutral	False
189.07	3.95	Control	0.9	0.0	No	2.93	0.0	n/a	NoResponse	0	n/a	n/a	5	19	Fixation	Neutral	False
193.018	0.21	Control	0.9	0.002	No	2.93	-0.002	n/a	NoResponse	0	n/a	n/a	5	19	Target	Neutral	False
193.235	0.49	Control	0.9	n/a	No	2.93	n/a	n/a	NoResponse	0	n/a	n/a	5	19	Blank	Neutral	False
193.718	1.45	Control	0.9	n/a	No	2.93	n/a	5.0	NoResponse	0	0.015	192.733	5	19	Feedback	Neutral	False
195.167	2.93	Control	0.9	n/a	No	2.93	n/a	n/a	NoResponse	0	0.0	n/a	5	19	ISIslide	Neutral	False
198.116	0.25	Control	0.9048	0.0	Yes	2.634	0.016	n/a	GoodResponse	0	n/a	n/a	5	20	Cue	Neutral	True
198.366	4.05	Control	0.9048	0.0	Yes	2.634	0.0	n/a	GoodResponse	0	n/a	n/a	5	20	Fixation	Neutral	True
202.415	0.2	Control	0.9048	0.001	Yes	2.634	-0.001	2.0	GoodResponse	0	0.196	201.611	5	20	Target	Neutral	True
202.611	0.3	Control	0.9048	0.001	Yes	2.634	-0.001	2.0	GoodResponse	0	0.196	n/a	5	20	ButtonPress	Neutral	True
202.615	0.5	Control	0.9048	n/a	Yes	2.634	n/a	n/a	GoodResponse	0	n/a	n/a	5	20	Blank	Neutral	True
203.115	1.45	Control	0.9048	n/a	Yes	2.634	n/a	5.0	GoodResponse	0	0.033	202.148	5	20	Feedback	Neutral	True
204.564	2.634	Control	0.9048	n/a	Yes	2.634	n/a	n/a	GoodResponse	0	0.0	n/a	5	20	ISIslide	Neutral	True
207.213	0.25	Control	0.8636	0.0	No	2.787	0.013	n/a	NoResponse	0	n/a	n/a	5	21	Cue	Neutral	True
207.463	4.1	Control	0.8636	0.0	No	2.787	0.0	n/a	NoResponse	0	n/a	n/a	5	21	Fixation	Neutral	True
211.562	0.19	Control	0.8636	0.001	No	2.787	-0.001	2.0	NoResponse	0	0.205	210.767	5	21	Target	Neutral	True
211.762	0.51	Control	0.8636	n/a	No	2.787	n/a	n/a	NoResponse	0	n/a	n/a	5	21	Blank	Neutral	True
211.767	0.3	Control	0.8636	0.001	No	2.787	-0.001	2.0	NoResponse	0	0.205	n/a	5	21	ButtonPress	Neutral	True
212.261	1.45	Control	0.8636	n/a	No	2.787	n/a	5.0	NoResponse	0	0.009	211.27	5	21	Feedback	Neutral	True
213.711	2.787	Control	0.8636	n/a	No	2.787	n/a	n/a	NoResponse	0	0.0	n/a	5	21	ISIslide	Neutral	True
216.527	0.25	Control	0.8261	0.0	No	2.773	0.027	n/a	NoResponse	0	n/a	n/a	5	22	Cue	Neutral	True
216.777	4.0	Control	0.8261	0.0	No	2.773	0.0	n/a	NoResponse	0	n/a	n/a	5	22	Fixation	Neutral	True
220.775	0.18	Control	0.8261	0.002	No	2.773	-0.002	2.0	NoResponse	0	0.247	220.022	5	22	Target	Neutral	True
220.958	0.52	Control	0.8261	n/a	No	2.773	n/a	n/a	NoResponse	0	n/a	n/a	5	22	Blank	Neutral	True
221.022	0.3	Control	0.8261	0.002	No	2.773	-0.002	2.0	NoResponse	0	0.247	n/a	5	22	ButtonPress	Neutral	True
221.475	1.45	Control	0.8261	n/a	No	2.773	n/a	5.0	NoResponse	0	0.013	220.488	5	22	Feedback	Neutral	True
222.924	2.773	Control	0.8261	n/a	No	2.773	n/a	n/a	NoResponse	0	0.0	n/a	5	22	ISIslide	Neutral	True
225.723	0.25	Control	0.7917000000000001	0.0	No	2.777	0.023	n/a	NoResponse	0	n/a	n/a	5	23	Cue	Neutral	True
225.973	3.9	Control	0.7917000000000001	0.0	No	2.777	0.0	n/a	NoResponse	0	n/a	n/a	5	23	Fixation	Neutral	True
229.872	0.17	Control	0.7917000000000001	0.001	No	2.777	-0.001	2.0	NoResponse	0	0.205	229.077	5	23	Target	Neutral	True
230.039	0.53	Control	0.7917000000000001	n/a	No	2.777	n/a	n/a	NoResponse	0	n/a	n/a	5	23	Blank	Neutral	True
230.077	0.3	Control	0.7917000000000001	0.001	No	2.777	-0.001	2.0	NoResponse	0	0.205	n/a	5	23	ButtonPress	Neutral	True
230.572	1.45	Control	0.7917000000000001	n/a	No	2.777	n/a	5.0	NoResponse	0	0.038	229.61	5	23	Feedback	Neutral	True
232.021	2.777	Control	0.7917000000000001	n/a	No	2.777	n/a	n/a	NoResponse	0	0.0	n/a	5	23	ISIslide	Neutral	True
234.82	0.25	Win2	0.76	0.0	No	3.13	0.02	n/a	NoResponse	0	n/a	n/a	5	24	Cue	MissedWin	True
235.07	3.95	Win2	0.76	0.0	No	3.13	0.0	n/a	NoResponse	0	n/a	n/a	5	24	Fixation	MissedWin	True
239.019	0.16	Win2	0.76	0.001	No	3.13	-0.001	2.0	NoResponse	0	0.219	238.238	5	24	Target	MissedWin	True
239.185	0.54	Win2	0.76	n/a	No	3.13	n/a	n/a	NoResponse	0	n/a	n/a	5	24	Blank	MissedWin	True
239.238	0.3	Win2	0.76	0.001	No	3.13	-0.001	2.0	NoResponse	0	0.219	n/a	5	24	ButtonPress	MissedWin	True
239.719	1.45	Win2	0.76	n/a	No	3.13	n/a	5.0	NoResponse	0	0.013	238.732	5	24	Feedback	MissedWin	True
241.168	3.13	Win2	0.76	n/a	No	3.13	n/a	n/a	NoResponse	0	0.0	n/a	5	24	ISIslide	MissedWin	True
244.317	0.25	Win2	0.7308	0.0	No	3.083	0.017	n/a	NoResponse	0	n/a	n/a	5	25	Cue	MissedWin	True
244.567	4.0	Win2	0.7308	0.0	No	3.083	0.0	n/a	NoResponse	0	n/a	n/a	5	25	Fixation	MissedWin	True
248.565	0.15	Win2	0.7308	0.002	No	3.083	-0.002	2.0	NoResponse	0	0.2	247.765	5	25	Target	MissedWin	True
248.715	0.55	Win2	0.7308	n/a	No	3.083	n/a	n/a	NoResponse	0	n/a	n/a	5	25	Blank	MissedWin	True
248.765	0.3	Win2	0.7308	0.002	No	3.083	-0.002	2.0	NoResponse	0	0.2	n/a	5	25	ButtonPress	MissedWin	True
249.265	1.45	Win2	0.7308	n/a	No	3.083	n/a	5.0	NoResponse	0	0.029	248.294	5	25	Feedback	MissedWin	True
250.715	3.083	Win2	0.7308	n/a	No	3.083	n/a	n/a	NoResponse	0	0.0	n/a	5	25	ISIslide	MissedWin	True
253.814	0.25	Win2	0.7037	0.0	No	2.936	0.014	n/a	NoResponse	0	n/a	n/a	5	26	Cue	MissedWin	True
254.064	3.95	Win2	0.7037	0.0	No	2.936	0.0	n/a	NoResponse	0	n/a	n/a	5	26	Fixation	MissedWin	True
258.012	0.15	Win2	0.7037	0.002	No	2.936	-0.002	2.0	NoResponse	0	0.198	257.21	5	26	Target	MissedWin	True
258.162	0.55	Win2	0.7037	n/a	No	2.936	n/a	n/a	NoResponse	0	n/a	n/a	5	26	Blank	MissedWin	True
258.21	0.3	Win2	0.7037	0.002	No	2.936	-0.002	2.0	NoResponse	0	0.198	n/a	5	26	ButtonPress	MissedWin	True
258.712	1.45	Win2	0.7037	n/a	No	2.936	n/a	5.0	NoResponse	0	0.045	257.757	5	26	Feedback	MissedWin	True
260.161	2.936	Win2	0.7037	n/a	No	2.936	n/a	n/a	NoResponse	0	0.0	n/a	5	26	ISIslide	MissedWin	True
263.127	0.25	Lose2	0.6786	0.0	No	2.823	0.027	n/a	NoResponse	-1	n/a	n/a	4	27	Cue	Loss	True
263.377	4.05	Lose2	0.6786	0.0	No	2.823	0.0	n/a	NoResponse	-1	n/a	n/a	4	27	Fixation	Loss	True
267.426	0.15	Lose2	0.6786	0.001	No	2.823	-0.001	2.0	NoResponse	-1	0.198	266.624	4	27	Target	Loss	True
267.575	0.55	Lose2	0.6786	n/a	No	2.823	n/a	n/a	NoResponse	-1	n/a	n/a	4	27	Blank	Loss	True
267.624	0.3	Lose2	0.6786	0.001	No	2.823	-0.001	2.0	NoResponse	-1	0.198	n/a	4	27	ButtonPress	Loss	True
268.125	1.45	Lose2	0.6786	n/a	No	2.823	n/a	5.0	NoResponse	-1	0.047	267.172	4	27	Feedback	Loss	True
269.575	2.823	Lose2	0.6786	n/a	No	2.823	n/a	n/a	NoResponse	-1	0.0	n/a	4	27	ISIslide	Loss	True
272.424	0.25	Control	0.6552	0.0	No	2.826	0.024	n/a	NoResponse	0	n/a	n/a	4	28	Cue	Neutral	False
272.674	4.05	Control	0.6552	0.0	No	2.826	0.0	n/a	NoResponse	0	n/a	n/a	4	28	Fixation	Neutral	False
276.722	0.15	Control	0.6552	0.002	No	2.826	-0.002	n/a	NoResponse	0	n/a	n/a	4	28	Target	Neutral	False
276.872	0.55	Control	0.6552	n/a	No	2.826	n/a	n/a	NoResponse	0	n/a	n/a	4	28	Blank	Neutral	False
277.422	1.45	Control	0.6552	n/a	No	2.826	n/a	5.0	NoResponse	0	0.017	276.439	4	28	Feedback	Neutral	False
278.872	2.826	Control	0.6552	n/a	No	2.826	n/a	n/a	NoResponse	0	0.0	n/a	4	28	ISIslide	Neutral	False
281.721	0.25	Lose2	0.6333	0.0	No	2.829	0.021	n/a	NoResponse	-1	n/a	n/a	3	29	Cue	Loss	True
281.97	3.95	Lose2	0.6333	0.001	No	2.829	-0.001	2.0	NoResponse	-1	3.887	284.857	3	29	Fixation	Loss	True
285.857	0.3	Lose2	0.6333	0.001	No	2.829	-0.001	2.0	NoResponse	-1	3.887	n/a	3	29	ButtonPress	Loss	True
285.919	0.15	Lose2	0.6333	0.002	No	2.829	-0.002	n/a	NoResponse	-1	n/a	n/a	3	29	Target	Loss	True
286.069	0.55	Lose2	0.6333	n/a	No	2.829	n/a	n/a	NoResponse	-1	n/a	n/a	3	29	Blank	Loss	True
286.619	1.45	Lose2	0.6333	n/a	No	2.829	n/a	5.0	NoResponse	-1	0.04	285.659	3	29	Feedback	Loss	True
288.068	2.829	Lose2	0.6333	n/a	No	2.829	n/a	n/a	NoResponse	-1	0.0	n/a	3	29	ISIslide	Loss	True
290.917	0.25	Win2	0.6129	0.0	No	2.783	0.017	n/a	NoResponse	0	n/a	n/a	3	30	Cue	MissedWin	True
291.167	3.9	Win2	0.6129	0.0	No	2.783	0.0	n/a	NoResponse	0	n/a	n/a	3	30	Fixation	MissedWin	True
295.066	0.16	Win2	0.6129	0.001	No	2.783	-0.001	2.0	NoResponse	0	0.223	294.289	3	30	Target	MissedWin	True
295.233	0.54	Win2	0.6129	n/a	No	2.783	n/a	n/a	NoResponse	0	n/a	n/a	3	30	Blank	MissedWin	True
295.289	0.3	Win2	0.6129	0.001	No	2.783	-0.001	2.0	NoResponse	0	0.223	n/a	3	30	ButtonPress	MissedWin	True
295.766	1.45	Win2	0.6129	n/a	No	2.783	n/a	5.0	NoResponse	0	0.015	294.781	3	30	Feedback	MissedWin	True
297.215	2.783	Win2	0.6129	n/a	No	2.783	n/a	n/a	NoResponse	0	0.0	n/a	3	30	ISIslide	MissedWin	True
300.014	0.25	Lose2	0.5938	0.0	No	2.836	0.014	n/a	LatePress	-1	n/a	n/a	2	31	Cue	Loss	False
300.264	4.05	Lose2	0.5938	0.0	No	2.836	0.0	2.0	LatePress	-1	3.386	302.65	2	31	Fixation	Loss	False
303.65	0.3	Lose2	0.5938	0.0	No	2.836	0.0	2.0	LatePress	-1	3.386	n/a	2	31	ButtonPress	Loss	False
304.313	0.17	Lose2	0.5938	0.001	No	2.836	-0.001	2.0	LatePress	-1	0.18	303.493	2	31	Target	Loss	False
304.493	0.3	Lose2	0.5938	0.001	No	2.836	-0.001	2.0	LatePress	-1	0.18	n/a	2	31	ButtonPress	Loss	False
304.496	0.53	Lose2	0.5938	n/a	No	2.836	n/a	n/a	LatePress	-1	n/a	n/a	2	31	Blank	Loss	False
305.012	1.45	Lose2	0.5938	n/a	No	2.836	n/a	5.0	LatePress	-1	0.037	304.049	2	31	Feedback	Loss	False
306.462	2.836	Lose2	0.5938	n/a	No	2.836	n/a	n/a	LatePress	-1	0.0	n/a	2	31	ISIslide	Loss	False
309.328	0.25	Lose2	0.5758	0.0	No	2.622	0.028	n/a	NoResponse	-1	n/a	n/a	1	32	Cue	Loss	True
309.578	4.15	Lose2	0.5758	0.0	No	2.622	0.0	n/a	NoResponse	-1	n/a	n/a	1	32	Fixation	Loss	True
313.726	0.18	Lose2	0.5758	0.002	No	2.622	-0.002	2.0	NoResponse	-1	0.189	312.915	1	32	Target	Loss	True
313.909	0.52	Lose2	0.5758	n/a	No	2.622	n/a	n/a	NoResponse	-1	n/a	n/a	1	32	Blank	Loss	True
313.915	0.3	Lose2	0.5758	0.002	No	2.622	-0.002	2.0	NoResponse	-1	0.189	n/a	1	32	ButtonPress	Loss	True
314.426	1.45	Lose2	0.5758	n/a	No	2.622	n/a	5.0	NoResponse	-1	0.038	313.464	1	32	Feedback	Loss	True
315.875	2.622	Lose2	0.5758	n/a	No	2.622	n/a	n/a	NoResponse	-1	0.0	n/a	1	32	ISIslide	Loss	True
318.524	0.25	Win2	0.5588000000000001	0.0	No	2.676	0.024	n/a	LatePress	0	n/a	n/a	1	33	Cue	MissedWin	True
318.774	4.0	Win2	0.5588000000000001	0.0	No	2.676	0.0	n/a	LatePress	0	n/a	n/a	1	33	Fixation	MissedWin	True
322.773	0.19	Win2	0.5588000000000001	0.001	No	2.676	-0.001	2.0	LatePress	0	0.192	321.965	1	33	Target	MissedWin	True
322.965	0.3	Win2	0.5588000000000001	0.001	No	2.676	-0.001	2.0	LatePress	0	0.192	n/a	1	33	ButtonPress	MissedWin	True
322.973	0.51	Win2	0.5588000000000001	n/a	No	2.676	n/a	n/a	LatePress	0	n/a	n/a	1	33	Blank	MissedWin	True
323.473	1.45	Win2	0.5588000000000001	n/a	No	2.676	n/a	5.0	LatePress	0	0.015	322.488	1	33	Feedback	MissedWin	True
324.922	2.676	Win2	0.5588000000000001	n/a	No	2.676	n/a	n/a	LatePress	0	0.0	n/a	1	33	ISIslide	MissedWin	True
327.621	0.25	Lose2	0.5714	0.0	Yes	2.629	0.021	n/a	GoodResponse	0	n/a	n/a	1	34	Cue	AvoidedLoss	True
327.871	4.05	Lose2	0.5714	0.0	Yes	2.629	0.0	n/a	GoodResponse	0	n/a	n/a	1	34	Fixation	AvoidedLoss	True
331.92	0.2	Lose2	0.5714	0.001	Yes	2.629	-0.001	2.0	GoodResponse	0	0.149	331.069	1	34	Target	AvoidedLoss	True
332.069	0.3	Lose2	0.5714	0.001	Yes	2.629	-0.001	2.0	GoodResponse	0	0.149	n/a	1	34	ButtonPress	AvoidedLoss	True
332.12	0.5	Lose2	0.5714	n/a	Yes	2.629	n/a	n/a	GoodResponse	0	n/a	n/a	1	34	Blank	AvoidedLoss	True
332.619	1.45	Lose2	0.5714	n/a	Yes	2.629	n/a	5.0	GoodResponse	0	0.039	331.658	1	34	Feedback	AvoidedLoss	True
334.069	2.629	Lose2	0.5714	n/a	Yes	2.629	n/a	n/a	GoodResponse	0	0.0	n/a	1	34	ISIslide	AvoidedLoss	True
336.718	0.25	Lose2	0.5556	0.0	No	2.682	0.018	n/a	LatePress	-1	n/a	n/a	0	35	Cue	Loss	False
336.968	4.0	Lose2	0.5556	0.0	No	2.682	0.0	2.0	LatePress	-1	2.332	338.3	0	35	Fixation	Loss	False
339.3	0.3	Lose2	0.5556	0.0	No	2.682	0.0	2.0	LatePress	-1	2.332	n/a	0	35	ButtonPress	Loss	False
340.967	0.21	Lose2	0.5556	0.001	No	2.682	-0.001	2.0	LatePress	-1	0.21	340.177	0	35	Target	Loss	False
341.177	0.3	Lose2	0.5556	0.001	No	2.682	-0.001	2.0	LatePress	-1	0.21	n/a	0	35	ButtonPress	Loss	False
341.183	0.49	Lose2	0.5556	n/a	No	2.682	n/a	n/a	LatePress	-1	n/a	n/a	0	35	Blank	Loss	False
341.666	1.45	Lose2	0.5556	n/a	No	2.682	n/a	5.0	LatePress	-1	0.017	340.683	0	35	Feedback	Loss	False
343.116	2.682	Lose2	0.5556	n/a	No	2.682	n/a	n/a	LatePress	-1	0.0	n/a	0	35	ISIslide	Loss	False
345.815	0.25	Control	0.5405	0.0	No	2.685	0.015	n/a	NoResponse	0	n/a	n/a	0	36	Cue	Neutral	False
346.065	4.0	Control	0.5405	0.0	No	2.685	0.0	n/a	NoResponse	0	n/a	n/a	0	36	Fixation	Neutral	False
350.063	0.22	Control	0.5405	0.002	No	2.685	-0.002	n/a	NoResponse	0	n/a	n/a	0	36	Target	Neutral	False
350.297	0.48	Control	0.5405	n/a	No	2.685	n/a	n/a	NoResponse	0	n/a	n/a	0	36	Blank	Neutral	False
350.763	1.45	Control	0.5405	n/a	No	2.685	n/a	5.0	NoResponse	0	0.042	349.805	0	36	Feedback	Neutral	False
352.213	2.685	Control	0.5405	n/a	No	2.685	n/a	n/a	NoResponse	0	0.0	n/a	0	36	ISIslide	Neutral	False
354.928	0.25	Win2	0.5526	0.0	Yes	2.872	0.028	n/a	GoodResponse	1	n/a	n/a	1	37	Cue	Win	True
355.178	4.0	Win2	0.5526	0.0	Yes	2.872	0.0	n/a	GoodResponse	1	n/a	n/a	1	37	Fixation	Win	True
359.177	0.23	Win2	0.5526	0.001	Yes	2.872	-0.001	2.0	GoodResponse	1	0.191	358.368	1	37	Target	Win	True
359.368	0.3	Win2	0.5526	0.001	Yes	2.872	-0.001	2.0	GoodResponse	1	0.191	n/a	1	37	ButtonPress	Win	True
359.41	0.47	Win2	0.5526	n/a	Yes	2.872	n/a	n/a	GoodResponse	1	n/a	n/a	1	37	Blank	Win	True
359.877	1.45	Win2	0.5526	n/a	Yes	2.872	n/a	5.0	GoodResponse	1	0.001	358.878	1	37	Feedback	Win	True
361.326	2.872	Win2	0.5526	n/a	Yes	2.872	n/a	n/a	GoodResponse	1	0.0	n/a	1	37	ISIslide	Win	True
364.225	0.25	Lose2	0.5640999999999999	0.0	Yes	2.825	0.025	n/a	GoodResponse	0	n/a	n/a	1	38	Cue	AvoidedLoss	True
364.475	3.95	Lose2	0.5640999999999999	0.0	Yes	2.825	0.0	n/a	GoodResponse	0	n/a	n/a	1	38	Fixation	AvoidedLoss	True
368.424	0.24	Lose2	0.5640999999999999	0.001	Yes	2.825	-0.001	2.0	GoodResponse	0	0.199	367.623	1	38	Target	AvoidedLoss	True
368.623	0.3	Lose2	0.5640999999999999	0.001	Yes	2.825	-0.001	2.0	GoodResponse	0	0.199	n/a	1	38	ButtonPress	AvoidedLoss	True
368.674	0.46	Lose2	0.5640999999999999	n/a	Yes	2.825	n/a	n/a	GoodResponse	0	n/a	n/a	1	38	Blank	AvoidedLoss	True
369.123	1.45	Lose2	0.5640999999999999	n/a	Yes	2.825	n/a	5.0	GoodResponse	0	0.024	368.147	1	38	Feedback	AvoidedLoss	True
370.573	2.825	Lose2	0.5640999999999999	n/a	Yes	2.825	n/a	n/a	GoodResponse	0	0.0	n/a	1	38	ISIslide	AvoidedLoss	True
373.422	0.25	Win2	0.575	0.0	Yes	2.978	0.022	n/a	GoodResponse	1	n/a	n/a	2	39	Cue	Win	False
373.672	4.1	Win2	0.575	0.0	Yes	2.978	0.0	2.0	GoodResponse	1	2.895	375.567	2	39	Fixation	Win	False
376.567	0.3	Win2	0.575	0.0	Yes	2.978	0.0	2.0	GoodResponse	1	2.895	n/a	2	39	ButtonPress	Win	False
377.77	0.25	Win2	0.575	0.002	Yes	2.978	-0.002	2.0	GoodResponse	1	0.104	376.874	2	39	Target	Win	False
377.874	0.3	Win2	0.575	0.002	Yes	2.978	-0.002	2.0	GoodResponse	1	0.104	n/a	2	39	ButtonPress	Win	False
378.02	0.45	Win2	0.575	n/a	Yes	2.978	n/a	n/a	GoodResponse	1	n/a	n/a	2	39	Blank	Win	False
378.47	1.45	Win2	0.575	n/a	Yes	2.978	n/a	5.0	GoodResponse	1	0.042	377.512	2	39	Feedback	Win	False
379.92	2.978	Win2	0.575	n/a	Yes	2.978	n/a	n/a	GoodResponse	1	0.0	n/a	2	39	ISIslide	Win	False
382.919	0.25	Win2	0.5854	0.0	Yes	2.731	0.019	n/a	GoodResponse	1	n/a	n/a	3	40	Cue	Win	True
383.169	3.95	Win2	0.5854	0.0	Yes	2.731	0.0	n/a	GoodResponse	1	n/a	n/a	3	40	Fixation	Win	True
387.117	0.26	Win2	0.5854	0.002	Yes	2.731	-0.002	2.0	GoodResponse	1	0.185	386.302	3	40	Target	Win	True
387.302	0.3	Win2	0.5854	0.002	Yes	2.731	-0.002	2.0	GoodResponse	1	0.185	n/a	3	40	ButtonPress	Win	True
387.384	0.44	Win2	0.5854	n/a	Yes	2.731	n/a	n/a	GoodResponse	1	n/a	n/a	3	40	Blank	Win	True
387.817	1.45	Win2	0.5854	n/a	Yes	2.731	n/a	5.0	GoodResponse	1	0.012	386.829	3	40	Feedback	Win	True
389.266	2.731	Win2	0.5854	n/a	Yes	2.731	n/a	n/a	GoodResponse	1	0.0	n/a	3	40	ISIslide	Win	True
392.015	0.25	Win2	0.5952000000000001	0.0	Yes	2.785	0.015	n/a	GoodResponse	1	n/a	n/a	4	41	Cue	Win	True
392.265	3.9	Win2	0.5952000000000001	0.0	Yes	2.785	0.0	n/a	GoodResponse	1	n/a	n/a	4	41	Fixation	Win	True
396.164	0.27	Win2	0.5952000000000001	0.001	Yes	2.785	-0.001	2.0	GoodResponse	1	0.191	395.355	4	41	Target	Win	True
396.355	0.3	Win2	0.5952000000000001	0.001	Yes	2.785	-0.001	2.0	GoodResponse	1	0.191	n/a	4	41	ButtonPress	Win	True
396.431	0.43	Win2	0.5952000000000001	n/a	Yes	2.785	n/a	n/a	GoodResponse	1	n/a	n/a	4	41	Blank	Win	True
396.864	1.45	Win2	0.5952000000000001	n/a	Yes	2.785	n/a	5.0	GoodResponse	1	0.038	395.902	4	41	Feedback	Win	True
398.313	2.785	Win2	0.5952000000000001	n/a	Yes	2.785	n/a	n/a	GoodResponse	1	0.0	n/a	4	41	ISIslide	Win	True
401.112	0.25	Control	0.6047	0.0	Yes	2.938	0.012	n/a	GoodResponse	0	n/a	n/a	4	42	Cue	Neutral	True
401.362	3.85	Control	0.6047	0.0	Yes	2.938	0.0	n/a	GoodResponse	0	n/a	n/a	4	42	Fixation	Neutral	True
405.211	0.28	Control	0.6047	0.001	Yes	2.938	-0.001	2.0	GoodResponse	0	0.2	404.411	4	42	Target	Neutral	True
405.411	0.3	Control	0.6047	0.001	Yes	2.938	-0.001	2.0	GoodResponse	0	0.2	n/a	4	42	ButtonPress	Neutral	True
405.494	0.42	Control	0.6047	n/a	Yes	2.938	n/a	n/a	GoodResponse	0	n/a	n/a	4	42	Blank	Neutral	True
405.911	1.45	Control	0.6047	n/a	Yes	2.938	n/a	5.0	GoodResponse	0	0.016	404.927	4	42	Feedback	Neutral	True
407.36	2.938	Control	0.6047	n/a	Yes	2.938	n/a	n/a	GoodResponse	0	0.0	n/a	4	42	ISIslide	Neutral	True
410.326	0.25	Win2	0.6136	0.0	Yes	3.174	0.026	n/a	GoodResponse	1	n/a	n/a	5	43	Cue	Win	True
410.576	4.0	Win2	0.6136	0.0	Yes	3.174	0.0	n/a	GoodResponse	1	n/a	n/a	5	43	Fixation	Win	True
414.574	0.29	Win2	0.6136	0.002	Yes	3.174	-0.002	2.0	GoodResponse	1	0.193	413.767	5	43	Target	Win	True
414.767	0.3	Win2	0.6136	0.002	Yes	3.174	-0.002	2.0	GoodResponse	1	0.193	n/a	5	43	ButtonPress	Win	True
414.874	0.41	Win2	0.6136	n/a	Yes	3.174	n/a	n/a	GoodResponse	1	n/a	n/a	5	43	Blank	Win	True
415.274	1.45	Win2	0.6136	n/a	Yes	3.174	n/a	5.0	GoodResponse	1	0.019	414.293	5	43	Feedback	Win	True
416.723	3.174	Win2	0.6136	n/a	Yes	3.174	n/a	n/a	GoodResponse	1	0.0	n/a	5	43	ISIslide	Win	True
419.922	0.25	Win2	0.6222	0.0	Yes	2.978	0.022	n/a	GoodResponse	1	n/a	n/a	6	44	Cue	Win	True
420.172	4.0	Win2	0.6222	0.0	Yes	2.978	0.0	n/a	GoodResponse	1	n/a	n/a	6	44	Fixation	Win	True
424.171	0.3	Win2	0.6222	0.001	Yes	2.978	-0.001	2.0	GoodResponse	1	0.213	423.384	6	44	Target	Win	True
424.384	0.3	Win2	0.6222	0.001	Yes	2.978	-0.001	2.0	GoodResponse	1	0.213	n/a	6	44	ButtonPress	Win	True
424.471	0.4	Win2	0.6222	n/a	Yes	2.978	n/a	n/a	GoodResponse	1	n/a	n/a	6	44	Blank	Win	True
424.871	1.45	Win2	0.6222	n/a	Yes	2.978	n/a	5.0	GoodResponse	1	0.031	423.902	6	44	Feedback	Win	True
426.32	2.978	Win2	0.6222	n/a	Yes	2.978	n/a	n/a	GoodResponse	1	0.0	n/a	6	44	ISIslide	Win	True
429.319	0.25	Control	0.6087	0.0	No	2.881	0.019	n/a	NoResponse	0	n/a	n/a	6	45	Cue	Neutral	False
429.569	4.1	Control	0.6087	0.0	No	2.881	0.0	n/a	NoResponse	0	n/a	n/a	6	45	Fixation	Neutral	False
433.668	0.31	Control	0.6087	0.001	No	2.881	-0.001	n/a	NoResponse	0	n/a	n/a	6	45	Target	Neutral	False
433.984	0.39	Control	0.6087	n/a	No	2.881	n/a	n/a	NoResponse	0	n/a	n/a	6	45	Blank	Neutral	False
434.367	1.45	Control	0.6087	n/a	No	2.881	n/a	5.0	NoResponse	0	0.047	433.414	6	45	Feedback	Neutral	False
435.817	2.881	Control	0.6087	n/a	No	2.881	n/a	n/a	NoResponse	0	0.0	n/a	6	45	ISIslide	Neutral	False
438.716	0.25	Lose2	0.617	0.0	Yes	3.384	0.016	n/a	GoodResponse	0	n/a	n/a	6	46	Cue	AvoidedLoss	True
438.966	4.0	Lose2	0.617	0.0	Yes	3.384	0.0	n/a	GoodResponse	0	n/a	n/a	6	46	Fixation	AvoidedLoss	True
442.964	0.32	Lose2	0.617	0.002	Yes	3.384	-0.002	2.0	GoodResponse	0	0.188	442.152	6	46	Target	AvoidedLoss	True
443.152	0.3	Lose2	0.617	0.002	Yes	3.384	-0.002	2.0	GoodResponse	0	0.188	n/a	6	46	ButtonPress	AvoidedLoss	True
443.298	0.38	Lose2	0.617	n/a	Yes	3.384	n/a	n/a	GoodResponse	0	n/a	n/a	6	46	Blank	AvoidedLoss	True
443.664	1.45	Lose2	0.617	n/a	Yes	3.384	n/a	5.0	GoodResponse	0	0.018	442.682	6	46	Feedback	AvoidedLoss	True
445.114	3.384	Lose2	0.617	n/a	Yes	3.384	n/a	n/a	GoodResponse	0	0.0	n/a	6	46	ISIslide	AvoidedLoss	True
448.512	0.25	Lose2	0.625	0.0	Yes	2.688	0.012	n/a	GoodResponse	0	n/a	n/a	6	47	Cue	AvoidedLoss	True
448.762	4.0	Lose2	0.625	0.0	Yes	2.688	0.0	n/a	GoodResponse	0	n/a	n/a	6	47	Fixation	AvoidedLoss	True
452.761	0.33	Lose2	0.625	0.001	Yes	2.688	-0.001	2.0	GoodResponse	0	0.205	451.966	6	47	Target	AvoidedLoss	True
452.966	0.3	Lose2	0.625	0.001	Yes	2.688	-0.001	2.0	GoodResponse	0	0.205	n/a	6	47	ButtonPress	AvoidedLoss	True
453.094	0.37	Lose2	0.625	n/a	Yes	2.688	n/a	n/a	GoodResponse	0	n/a	n/a	6	47	Blank	AvoidedLoss	True
453.461	1.45	Lose2	0.625	n/a	Yes	2.688	n/a	5.0	GoodResponse	0	0.026	452.487	6	47	Feedback	AvoidedLoss	True
454.91	2.688	Lose2	0.625	n/a	Yes	2.688	n/a	n/a	GoodResponse	0	0.0	n/a	6	47	ISIslide	AvoidedLoss	True
457.626	0.25	Lose2	0.6327	0.0	Yes	3.024	0.026	n/a	GoodResponse	0	n/a	n/a	6	48	Cue	AvoidedLoss	True
457.876	3.95	Lose2	0.6327	0.0	Yes	3.024	0.0	n/a	GoodResponse	0	n/a	n/a	6	48	Fixation	AvoidedLoss	True
461.824	0.34	Lose2	0.6327	0.002	Yes	3.024	-0.002	2.0	GoodResponse	0	0.219	461.043	6	48	Target	AvoidedLoss	True
462.043	0.3	Lose2	0.6327	0.002	Yes	3.024	-0.002	2.0	GoodResponse	0	0.219	n/a	6	48	ButtonPress	AvoidedLoss	True
462.174	0.36	Lose2	0.6327	n/a	Yes	3.024	n/a	n/a	GoodResponse	0	n/a	n/a	6	48	Blank	AvoidedLoss	True
462.524	1.45	Lose2	0.6327	n/a	Yes	3.024	n/a	5.0	GoodResponse	0	0.037	461.561	6	48	Feedback	AvoidedLoss	True
463.974	3.024	Lose2	0.6327	n/a	Yes	3.024	n/a	n/a	GoodResponse	0	0.0	n/a	6	48	ISIslide	AvoidedLoss	True
467.023	0.25	Control	0.62	0.0	No	2.877	0.023	n/a	NoResponse	0	n/a	n/a	6	49	Cue	Neutral	True
467.272	4.0	Control	0.62	0.001	No	2.877	-0.001	n/a	NoResponse	0	n/a	n/a	6	49	Fixation	Neutral	True
471.271	0.35	Control	0.62	0.002	No	2.877	-0.002	2.0	NoResponse	0	0.421	470.692	6	49	Target	Neutral	True
471.621	0.35	Control	0.62	n/a	No	2.877	n/a	n/a	NoResponse	0	n/a	n/a	6	49	Blank	Neutral	True
471.692	0.3	Control	0.62	0.002	No	2.877	-0.002	2.0	NoResponse	0	0.421	n/a	6	49	ButtonPress	Neutral	True
471.971	1.45	Control	0.62	n/a	No	2.877	n/a	5.0	NoResponse	0	0.005	470.976	6	49	Feedback	Neutral	True
473.42	2.877	Control	0.62	n/a	No	2.877	n/a	n/a	NoResponse	0	0.0	n/a	6	49	ISIslide	Neutral	True
476.319	0.25	Control	0.6275	0.0	Yes	2.781	0.019	n/a	GoodResponse	0	n/a	n/a	6	50	Cue	Neutral	True
476.569	4.0	Control	0.6275	0.0	Yes	2.781	0.0	n/a	GoodResponse	0	n/a	n/a	6	50	Fixation	Neutral	True
480.568	0.36	Control	0.6275	0.001	Yes	2.781	-0.001	2.0	GoodResponse	0	0.314	479.882	6	50	Target	Neutral	True
480.882	0.3	Control	0.6275	0.001	Yes	2.781	-0.001	2.0	GoodResponse	0	0.314	n/a	6	50	ButtonPress	Neutral	True
480.934	0.34	Control	0.6275	n/a	Yes	2.781	n/a	n/a	GoodResponse	0	n/a	n/a	6	50	Blank	Neutral	True
481.268	1.45	Control	0.6275	n/a	Yes	2.781	n/a	5.0	GoodResponse	0	0.024	480.292	6	50	Feedback	Neutral	True
482.717	2.781	Control	0.6275	n/a	Yes	2.781	n/a	n/a	GoodResponse	0	0.0	n/a	6	50	ISIslide	Neutral	True
485.516	0.25	Control	0.6346	0.0	Yes	2.734	0.016	n/a	GoodResponse	0	n/a	n/a	6	51	Cue	Neutral	True
485.766	3.95	Control	0.6346	0.0	Yes	2.734	0.0	n/a	GoodResponse	0	n/a	n/a	6	51	Fixation	Neutral	True
489.715	0.37	Control	0.6346	0.001	Yes	2.734	-0.001	2.0	GoodResponse	0	0.227	488.942	6	51	Target	Neutral	True
489.942	0.3	Control	0.6346	0.001	Yes	2.734	-0.001	2.0	GoodResponse	0	0.227	n/a	6	51	ButtonPress	Neutral	True
490.098	0.33	Control	0.6346	n/a	Yes	2.734	n/a	n/a	GoodResponse	0	n/a	n/a	6	51	Blank	Neutral	True
490.414	1.45	Control	0.6346	n/a	Yes	2.734	n/a	5.0	GoodResponse	0	0.048	489.462	6	51	Feedback	Neutral	True
491.864	2.734	Control	0.6346	n/a	Yes	2.734	n/a	n/a	GoodResponse	0	0.0	n/a	6	51	ISIslide	Neutral	True
494.613	0.25	Control	0.6225999999999999	0.0	No	2.637	0.013	n/a	NoResponse	0	n/a	n/a	6	52	Cue	Neutral	True
494.863	4.05	Control	0.6225999999999999	0.0	No	2.637	0.0	n/a	NoResponse	0	n/a	n/a	6	52	Fixation	Neutral	True
498.911	0.38	Control	0.6225999999999999	0.002	No	2.637	-0.002	2.0	NoResponse	0	0.414	498.325	6	52	Target	Neutral	True
499.295	0.32	Control	0.6225999999999999	n/a	No	2.637	n/a	n/a	NoResponse	0	n/a	n/a	6	52	Blank	Neutral	True
499.325	0.3	Control	0.6225999999999999	0.002	No	2.637	-0.002	2.0	NoResponse	0	0.414	n/a	6	52	ButtonPress	Neutral	True
499.611	1.45	Control	0.6225999999999999	n/a	No	2.637	n/a	5.0	NoResponse	0	0.022	498.633	6	52	Feedback	Neutral	True
501.061	2.637	Control	0.6225999999999999	n/a	No	2.637	n/a	n/a	NoResponse	0	0.0	n/a	6	52	ISIslide	Neutral	True
503.726	0.25	Win2	0.6296	0.001	Yes	2.924	0.026	n/a	GoodResponse	1	n/a	n/a	7	53	Cue	Win	True
503.976	4.05	Win2	0.6296	0.0	Yes	2.924	0.0	n/a	GoodResponse	1	n/a	n/a	7	53	Fixation	Win	True
508.025	0.39	Win2	0.6296	0.001	Yes	2.924	-0.001	2.0	GoodResponse	1	0.196	507.221	7	53	Target	Win	True
508.221	0.3	Win2	0.6296	0.001	Yes	2.924	-0.001	2.0	GoodResponse	1	0.196	n/a	7	53	ButtonPress	Win	True
508.425	0.31	Win2	0.6296	n/a	Yes	2.924	n/a	n/a	GoodResponse	1	n/a	n/a	7	53	Blank	Win	True
508.725	1.45	Win2	0.6296	n/a	Yes	2.924	n/a	5.0	GoodResponse	1	0.03	507.755	7	53	Feedback	Win	True
510.174	2.924	Win2	0.6296	n/a	Yes	2.924	n/a	n/a	GoodResponse	1	0.0	n/a	7	53	ISIslide	Win	True
513.123	0.25	Win2	0.6364	0.0	Yes	2.727	0.023	n/a	GoodResponse	1	n/a	n/a	8	54	Cue	Win	False
513.373	3.95	Win2	0.6364	0.0	Yes	2.727	0.0	2.0	GoodResponse	1	3.437	515.81	8	54	Fixation	Win	False
516.81	0.3	Win2	0.6364	0.0	Yes	2.727	0.0	2.0	GoodResponse	1	3.437	n/a	8	54	ButtonPress	Win	False
517.322	0.4	Win2	0.6364	0.001	Yes	2.727	-0.001	2.0	GoodResponse	1	0.159	516.481	8	54	Target	Win	False
517.481	0.3	Win2	0.6364	0.001	Yes	2.727	-0.001	2.0	GoodResponse	1	0.159	n/a	8	54	ButtonPress	Win	False
517.722	0.3	Win2	0.6364	n/a	Yes	2.727	n/a	n/a	GoodResponse	1	n/a	n/a	8	54	Blank	Win	False
518.021	1.45	Win2	0.6364	n/a	Yes	2.727	n/a	5.0	GoodResponse	1	0.005	517.026	8	54	Feedback	Win	False
519.471	2.727	Win2	0.6364	n/a	Yes	2.727	n/a	n/a	GoodResponse	1	0.0	n/a	8	54	ISIslide	Win	False
522.22	0.25	Control	0.6429	0.0	Yes	3.03	0.02	n/a	GoodResponse	0	n/a	n/a	8	55	Cue	Neutral	True
522.47	3.95	Control	0.6429	0.0	Yes	3.03	0.0	n/a	GoodResponse	0	n/a	n/a	8	55	Fixation	Neutral	True
526.419	0.41	Control	0.6429	0.001	Yes	3.03	-0.001	2.0	GoodResponse	0	0.213	525.632	8	55	Target	Neutral	True
526.632	0.3	Control	0.6429	0.001	Yes	3.03	-0.001	2.0	GoodResponse	0	0.213	n/a	8	55	ButtonPress	Neutral	True
526.835	0.29	Control	0.6429	n/a	Yes	3.03	n/a	n/a	GoodResponse	0	n/a	n/a	8	55	Blank	Neutral	True
527.118	1.45	Control	0.6429	n/a	Yes	3.03	n/a	5.0	GoodResponse	0	0.027	526.145	8	55	Feedback	Neutral	True
528.568	3.03	Control	0.6429	n/a	Yes	3.03	n/a	n/a	GoodResponse	0	0.0	n/a	8	55	ISIslide	Neutral	True
531.617	0.25	Control	0.6491	0.0	Yes	2.833	0.017	n/a	GoodResponse	0	n/a	n/a	8	56	Cue	Neutral	True
531.867	3.95	Control	0.6491	0.0	Yes	2.833	0.0	n/a	GoodResponse	0	n/a	n/a	8	56	Fixation	Neutral	True
535.815	0.42	Control	0.6491	0.002	Yes	2.833	-0.002	2.0	GoodResponse	0	0.345	535.16	8	56	Target	Neutral	True
536.16	0.3	Control	0.6491	0.002	Yes	2.833	-0.002	2.0	GoodResponse	0	0.345	n/a	8	56	ButtonPress	Neutral	True
536.248	0.28	Control	0.6491	n/a	Yes	2.833	n/a	n/a	GoodResponse	0	n/a	n/a	8	56	Blank	Neutral	True
536.515	1.45	Control	0.6491	n/a	Yes	2.833	n/a	5.0	GoodResponse	0	0.045	535.56	8	56	Feedback	Neutral	True
537.964	2.833	Control	0.6491	n/a	Yes	2.833	n/a	n/a	GoodResponse	0	0.0	n/a	8	56	ISIslide	Neutral	True
540.814	0.25	Control	0.6552	0.0	Yes	3.486	0.014	n/a	GoodResponse	0	n/a	n/a	8	57	Cue	Neutral	True
541.063	4.0	Control	0.6552	0.001	Yes	3.486	-0.001	n/a	GoodResponse	0	n/a	n/a	8	57	Fixation	Neutral	True
545.062	0.43	Control	0.6552	0.002	Yes	3.486	-0.002	2.0	GoodResponse	0	0.198	544.26	8	57	Target	Neutral	True
545.26	0.3	Control	0.6552	0.002	Yes	3.486	-0.002	2.0	GoodResponse	0	0.198	n/a	8	57	ButtonPress	Neutral	True
545.495	0.27	Control	0.6552	n/a	Yes	3.486	n/a	n/a	GoodResponse	0	n/a	n/a	8	57	Blank	Neutral	True
545.762	1.45	Control	0.6552	n/a	Yes	3.486	n/a	5.0	GoodResponse	0	0.017	544.779	8	57	Feedback	Neutral	True
547.211	3.486	Control	0.6552	n/a	Yes	3.486	n/a	n/a	GoodResponse	0	0.0	n/a	8	57	ISIslide	Neutral	True
550.727	0.25	Win2	0.6609999999999999	0.0	Yes	2.723	0.027	n/a	GoodResponse	1	n/a	n/a	9	58	Cue	Win	True
550.977	4.05	Win2	0.6609999999999999	0.0	Yes	2.723	0.0	n/a	GoodResponse	1	n/a	n/a	9	58	Fixation	Win	True
555.025	0.43	Win2	0.6609999999999999	0.002	Yes	2.723	-0.002	2.0	GoodResponse	1	0.22	554.245	9	58	Target	Win	True
555.245	0.3	Win2	0.6609999999999999	0.002	Yes	2.723	-0.002	2.0	GoodResponse	1	0.22	n/a	9	58	ButtonPress	Win	True
555.458	0.27	Win2	0.6609999999999999	n/a	Yes	2.723	n/a	n/a	GoodResponse	1	n/a	n/a	9	58	Blank	Win	True
555.725	1.45	Win2	0.6609999999999999	n/a	Yes	2.723	n/a	5.0	GoodResponse	1	0.006	554.731	9	58	Feedback	Win	True
557.174	2.723	Win2	0.6609999999999999	n/a	Yes	2.723	n/a	n/a	GoodResponse	1	0.0	n/a	9	58	ISIslide	Win	True
559.924	0.25	Lose2	0.6667000000000001	0.0	Yes	2.676	0.024	n/a	GoodResponse	0	n/a	n/a	9	59	Cue	AvoidedLoss	True
560.173	4.0	Lose2	0.6667000000000001	0.001	Yes	2.676	-0.001	n/a	GoodResponse	0	n/a	n/a	9	59	Fixation	AvoidedLoss	True
564.172	0.43	Lose2	0.6667000000000001	0.002	Yes	2.676	-0.002	2.0	GoodResponse	0	0.185	563.357	9	59	Target	AvoidedLoss	True
564.357	0.3	Lose2	0.6667000000000001	0.002	Yes	2.676	-0.002	2.0	GoodResponse	0	0.185	n/a	9	59	ButtonPress	AvoidedLoss	True
564.605	0.27	Lose2	0.6667000000000001	n/a	Yes	2.676	n/a	n/a	GoodResponse	0	n/a	n/a	9	59	Blank	AvoidedLoss	True
564.872	1.45	Lose2	0.6667000000000001	n/a	Yes	2.676	n/a	5.0	GoodResponse	0	0.029	563.901	9	59	Feedback	AvoidedLoss	True
566.321	2.676	Lose2	0.6667000000000001	n/a	Yes	2.676	n/a	n/a	GoodResponse	0	0.0	n/a	9	59	ISIslide	AvoidedLoss	True
569.02	0.25	Control	0.6720999999999999	0.0	Yes	2.68	0.02	n/a	GoodResponse	0	n/a	n/a	9	60	Cue	Neutral	True
569.27	4.0	Control	0.6720999999999999	0.0	Yes	2.68	0.0	n/a	GoodResponse	0	n/a	n/a	9	60	Fixation	Neutral	True
573.269	0.42	Control	0.6720999999999999	0.001	Yes	2.68	-0.001	2.0	GoodResponse	0	0.228	572.497	9	60	Target	Neutral	True
573.497	0.3	Control	0.6720999999999999	0.001	Yes	2.68	-0.001	2.0	GoodResponse	0	0.228	n/a	9	60	ButtonPress	Neutral	True
573.685	0.28	Control	0.6720999999999999	n/a	Yes	2.68	n/a	n/a	GoodResponse	0	n/a	n/a	9	60	Blank	Neutral	True
573.969	1.45	Control	0.6720999999999999	n/a	Yes	2.68	n/a	5.0	GoodResponse	0	0.005	572.974	9	60	Feedback	Neutral	True
575.418	2.68	Control	0.6720999999999999	n/a	Yes	2.68	n/a	n/a	GoodResponse	0	0.0	n/a	9	60	ISIslide	Neutral	True
578.117	0.25	Lose2	0.6774	0.0	Yes	2.983	0.017	n/a	GoodResponse	0	n/a	n/a	9	61	Cue	AvoidedLoss	True
578.367	4.0	Lose2	0.6774	0.0	Yes	2.983	0.0	n/a	GoodResponse	0	n/a	n/a	9	61	Fixation	AvoidedLoss	True
582.366	0.41	Lose2	0.6774	0.001	Yes	2.983	-0.001	2.0	GoodResponse	0	0.192	581.558	9	61	Target	AvoidedLoss	True
582.558	0.3	Lose2	0.6774	0.001	Yes	2.983	-0.001	2.0	GoodResponse	0	0.192	n/a	9	61	ButtonPress	AvoidedLoss	True
582.782	0.29	Lose2	0.6774	n/a	Yes	2.983	n/a	n/a	GoodResponse	0	n/a	n/a	9	61	Blank	AvoidedLoss	True
583.065	1.45	Lose2	0.6774	n/a	Yes	2.983	n/a	5.0	GoodResponse	0	0.031	582.096	9	61	Feedback	AvoidedLoss	True
584.515	2.983	Lose2	0.6774	n/a	Yes	2.983	n/a	n/a	GoodResponse	0	0.0	n/a	9	61	ISIslide	AvoidedLoss	True
587.514	0.25	Lose2	0.6825	0.0	Yes	2.886	0.014	n/a	GoodResponse	0	n/a	n/a	9	62	Cue	AvoidedLoss	True
587.764	3.9	Lose2	0.6825	0.0	Yes	2.886	0.0	n/a	GoodResponse	0	n/a	n/a	9	62	Fixation	AvoidedLoss	True
591.662	0.4	Lose2	0.6825	0.002	Yes	2.886	-0.002	2.0	GoodResponse	0	0.16	590.822	9	62	Target	AvoidedLoss	True
591.822	0.3	Lose2	0.6825	0.002	Yes	2.886	-0.002	2.0	GoodResponse	0	0.16	n/a	9	62	ButtonPress	AvoidedLoss	True
592.062	0.3	Lose2	0.6825	n/a	Yes	2.886	n/a	n/a	GoodResponse	0	n/a	n/a	9	62	Blank	AvoidedLoss	True
592.362	1.45	Lose2	0.6825	n/a	Yes	2.886	n/a	5.0	GoodResponse	0	0.002	591.364	9	62	Feedback	AvoidedLoss	True
593.812	2.886	Lose2	0.6825	n/a	Yes	2.886	n/a	n/a	GoodResponse	0	0.0	n/a	9	62	ISIslide	AvoidedLoss	True
596.727	0.25	Lose2	0.6875	0.0	Yes	2.623	0.027	n/a	GoodResponse	0	n/a	n/a	9	63	Cue	AvoidedLoss	True
596.977	4.05	Lose2	0.6875	0.0	Yes	2.623	0.0	n/a	GoodResponse	0	n/a	n/a	9	63	Fixation	AvoidedLoss	True
601.026	0.39	Lose2	0.6875	0.001	Yes	2.623	-0.001	2.0	GoodResponse	0	0.198	600.224	9	63	Target	AvoidedLoss	True
601.224	0.3	Lose2	0.6875	0.001	Yes	2.623	-0.001	2.0	GoodResponse	0	0.198	n/a	9	63	ButtonPress	AvoidedLoss	True
601.426	0.31	Lose2	0.6875	n/a	Yes	2.623	n/a	n/a	GoodResponse	0	n/a	n/a	9	63	Blank	AvoidedLoss	True
601.726	1.45	Lose2	0.6875	n/a	Yes	2.623	n/a	5.0	GoodResponse	0	0.005	600.731	9	63	Feedback	AvoidedLoss	True
603.175	2.623	Lose2	0.6875	n/a	Yes	2.623	n/a	n/a	GoodResponse	0	0.0	n/a	9	63	ISIslide	AvoidedLoss	True
605.824	0.25	Win2	0.6923	0.0	Yes	3.126	0.024	n/a	GoodResponse	1	n/a	n/a	10	64	Cue	Win	True
606.074	4.15	Win2	0.6923	0.0	Yes	3.126	0.0	n/a	GoodResponse	1	n/a	n/a	10	64	Fixation	Win	True
610.223	0.38	Win2	0.6923	0.001	Yes	3.126	-0.001	2.0	GoodResponse	1	0.184	609.407	10	64	Target	Win	True
610.407	0.3	Win2	0.6923	0.001	Yes	3.126	-0.001	2.0	GoodResponse	1	0.184	n/a	10	64	ButtonPress	Win	True
610.606	0.32	Win2	0.6923	n/a	Yes	3.126	n/a	n/a	GoodResponse	1	n/a	n/a	10	64	Blank	Win	True
610.922	1.45	Win2	0.6923	n/a	Yes	3.126	n/a	5.0	GoodResponse	1	0.028	609.95	10	64	Feedback	Win	True
612.372	3.126	Win2	0.6923	n/a	Yes	3.126	n/a	n/a	GoodResponse	1	0.0	n/a	10	64	ISIslide	Win	True
615.521	0.25	Control	0.6970000000000001	0.0	Yes	2.779	0.021	n/a	GoodResponse	0	n/a	n/a	10	65	Cue	Neutral	True
615.771	4.0	Control	0.6970000000000001	0.0	Yes	2.779	0.0	n/a	GoodResponse	0	n/a	n/a	10	65	Fixation	Neutral	True
619.769	0.37	Control	0.6970000000000001	0.002	Yes	2.779	-0.002	2.0	GoodResponse	0	0.198	618.967	10	65	Target	Neutral	True
619.967	0.3	Control	0.6970000000000001	0.002	Yes	2.779	-0.002	2.0	GoodResponse	0	0.198	n/a	10	65	ButtonPress	Neutral	True
620.152	0.33	Control	0.6970000000000001	n/a	Yes	2.779	n/a	n/a	GoodResponse	0	n/a	n/a	10	65	Blank	Neutral	True
620.469	1.45	Control	0.6970000000000001	n/a	Yes	2.779	n/a	5.0	GoodResponse	0	0.042	619.511	10	65	Feedback	Neutral	True
621.919	2.779	Control	0.6970000000000001	n/a	Yes	2.779	n/a	n/a	GoodResponse	0	0.0	n/a	10	65	ISIslide	Neutral	True
624.718	0.25	Win2	0.7015	0.0	Yes	2.782	0.018	n/a	GoodResponse	1	n/a	n/a	11	66	Cue	Win	True
624.967	3.9	Win2	0.7015	0.001	Yes	2.782	-0.001	n/a	GoodResponse	1	n/a	n/a	11	66	Fixation	Win	True
628.866	0.36	Win2	0.7015	0.002	Yes	2.782	-0.002	2.0	GoodResponse	1	0.203	628.069	11	66	Target	Win	True
629.069	0.3	Win2	0.7015	0.002	Yes	2.782	-0.002	2.0	GoodResponse	1	0.203	n/a	11	66	ButtonPress	Win	True
629.233	0.34	Win2	0.7015	n/a	Yes	2.782	n/a	n/a	GoodResponse	1	n/a	n/a	11	66	Blank	Win	True
629.566	1.45	Win2	0.7015	n/a	Yes	2.782	n/a	5.0	GoodResponse	1	0.017	628.583	11	66	Feedback	Win	True
631.015	2.782	Win2	0.7015	n/a	Yes	2.782	n/a	n/a	GoodResponse	1	0.0	n/a	11	66	ISIslide	Win	True
633.814	0.25	Control	0.7059000000000001	0.0	Yes	2.736	0.014	n/a	GoodResponse	0	n/a	n/a	11	67	Cue	Neutral	True
634.064	3.95	Control	0.7059000000000001	0.0	Yes	2.736	0.0	n/a	GoodResponse	0	n/a	n/a	11	67	Fixation	Neutral	True
638.013	0.35	Control	0.7059000000000001	0.001	Yes	2.736	-0.001	2.0	GoodResponse	0	0.2	637.213	11	67	Target	Neutral	True
638.213	0.3	Control	0.7059000000000001	0.001	Yes	2.736	-0.001	2.0	GoodResponse	0	0.2	n/a	11	67	ButtonPress	Neutral	True
638.363	0.35	Control	0.7059000000000001	n/a	Yes	2.736	n/a	n/a	GoodResponse	0	n/a	n/a	11	67	Blank	Neutral	True
638.713	1.45	Control	0.7059000000000001	n/a	Yes	2.736	n/a	5.0	GoodResponse	0	0.041	637.754	11	67	Feedback	Neutral	True
640.162	2.736	Control	0.7059000000000001	n/a	Yes	2.736	n/a	n/a	GoodResponse	0	0.0	n/a	11	67	ISIslide	Neutral	True
642.928	0.25	Win2	0.6957	0.0	No	3.072	0.028	n/a	NoResponse	0	n/a	n/a	11	68	Cue	MissedWin	False
643.178	4.0	Win2	0.6957	0.0	No	3.072	0.0	2.0	NoResponse	0	3.908	646.086	11	68	Fixation	MissedWin	False
647.086	0.3	Win2	0.6957	0.0	No	3.072	0.0	2.0	NoResponse	0	3.908	n/a	11	68	ButtonPress	MissedWin	False
647.176	0.34	Win2	0.6957	0.002	No	3.072	-0.002	2.0	NoResponse	0	0.532	646.708	11	68	Target	MissedWin	False
647.526	0.36	Win2	0.6957	n/a	No	3.072	n/a	n/a	NoResponse	0	n/a	n/a	11	68	Blank	MissedWin	False
647.708	0.3	Win2	0.6957	0.002	No	3.072	-0.002	2.0	NoResponse	0	0.532	n/a	11	68	ButtonPress	MissedWin	False
647.876	1.45	Win2	0.6957	n/a	No	3.072	n/a	5.0	NoResponse	0	0.049	646.925	11	68	Feedback	MissedWin	False
649.326	3.072	Win2	0.6957	n/a	No	3.072	n/a	n/a	NoResponse	0	0.0	n/a	11	68	ISIslide	MissedWin	False
652.425	0.25	Win2	0.7	0.0	Yes	3.225	0.025	n/a	GoodResponse	1	n/a	n/a	12	69	Cue	Win	True
652.674	3.95	Win2	0.7	0.001	Yes	3.225	-0.001	n/a	GoodResponse	1	n/a	n/a	12	69	Fixation	Win	True
656.623	0.33	Win2	0.7	0.002	Yes	3.225	-0.002	2.0	GoodResponse	1	0.256	655.879	12	69	Target	Win	True
656.879	0.3	Win2	0.7	0.002	Yes	3.225	-0.002	2.0	GoodResponse	1	0.256	n/a	12	69	ButtonPress	Win	True
656.956	0.37	Win2	0.7	n/a	Yes	3.225	n/a	n/a	GoodResponse	1	n/a	n/a	12	69	Blank	Win	True
657.323	1.45	Win2	0.7	n/a	Yes	3.225	n/a	5.0	GoodResponse	1	0.017	656.34	12	69	Feedback	Win	True
658.772	3.225	Win2	0.7	n/a	Yes	3.225	n/a	n/a	GoodResponse	1	0.0	n/a	12	69	ISIslide	Win	True
662.021	0.25	Lose2	0.7042	0.0	Yes	3.029	0.021	n/a	GoodResponse	0	n/a	n/a	12	70	Cue	AvoidedLoss	True
662.271	4.05	Lose2	0.7042	0.0	Yes	3.029	0.0	n/a	GoodResponse	0	n/a	n/a	12	70	Fixation	AvoidedLoss	True
666.32	0.32	Lose2	0.7042	0.001	Yes	3.029	-0.001	2.0	GoodResponse	0	0.197	665.517	12	70	Target	AvoidedLoss	True
666.517	0.3	Lose2	0.7042	0.001	Yes	3.029	-0.001	2.0	GoodResponse	0	0.197	n/a	12	70	ButtonPress	AvoidedLoss	True
666.653	0.38	Lose2	0.7042	n/a	Yes	3.029	n/a	n/a	GoodResponse	0	n/a	n/a	12	70	Blank	AvoidedLoss	True
667.019	1.45	Lose2	0.7042	n/a	Yes	3.029	n/a	5.0	GoodResponse	0	0.028	666.047	12	70	Feedback	AvoidedLoss	True
668.469	3.029	Lose2	0.7042	n/a	Yes	3.029	n/a	n/a	GoodResponse	0	0.0	n/a	12	70	ISIslide	AvoidedLoss	True
671.518	0.25	Win2	0.7082999999999999	0.0	Yes	2.732	0.018	n/a	GoodResponse	1	n/a	n/a	13	71	Cue	Win	True
671.768	4.05	Win2	0.7082999999999999	0.0	Yes	2.732	0.0	n/a	GoodResponse	1	n/a	n/a	13	71	Fixation	Win	True
675.816	0.31	Win2	0.7082999999999999	0.002	Yes	2.732	-0.002	2.0	GoodResponse	1	0.178	674.994	13	71	Target	Win	True
675.994	0.3	Win2	0.7082999999999999	0.002	Yes	2.732	-0.002	2.0	GoodResponse	1	0.178	n/a	13	71	ButtonPress	Win	True
676.133	0.39	Win2	0.7082999999999999	n/a	Yes	2.732	n/a	n/a	GoodResponse	1	n/a	n/a	13	71	Blank	Win	True
676.516	1.45	Win2	0.7082999999999999	n/a	Yes	2.732	n/a	5.0	GoodResponse	1	0.042	675.558	13	71	Feedback	Win	True
677.966	2.732	Win2	0.7082999999999999	n/a	Yes	2.732	n/a	n/a	GoodResponse	1	0.0	n/a	13	71	ISIslide	Win	True
680.715	0.25	Win2	0.7123	0.0	Yes	2.785	0.015	n/a	GoodResponse	1	n/a	n/a	14	72	Cue	Win	True
680.965	4.1	Win2	0.7123	0.0	Yes	2.785	0.0	n/a	GoodResponse	1	n/a	n/a	14	72	Fixation	Win	True
685.063	0.3	Win2	0.7123	0.002	Yes	2.785	-0.002	2.0	GoodResponse	1	0.169	684.232	14	72	Target	Win	True
685.232	0.3	Win2	0.7123	0.002	Yes	2.785	-0.002	2.0	GoodResponse	1	0.169	n/a	14	72	ButtonPress	Win	True
685.363	0.4	Win2	0.7123	n/a	Yes	2.785	n/a	n/a	GoodResponse	1	n/a	n/a	14	72	Blank	Win	True
685.763	1.45	Win2	0.7123	n/a	Yes	2.785	n/a	5.0	GoodResponse	1	0.015	684.778	14	72	Feedback	Win	True
687.212	2.785	Win2	0.7123	n/a	Yes	2.785	n/a	n/a	GoodResponse	1	0.0	n/a	14	72	ISIslide	Win	True
690.028	0.25	Win2	0.7162000000000001	0.0	Yes	2.672	0.028	n/a	GoodResponse	1	n/a	n/a	15	73	Cue	Win	True
690.278	4.0	Win2	0.7162000000000001	0.0	Yes	2.672	0.0	n/a	GoodResponse	1	n/a	n/a	15	73	Fixation	Win	True
694.277	0.29	Win2	0.7162000000000001	0.001	Yes	2.672	-0.001	2.0	GoodResponse	1	0.188	693.465	15	73	Target	Win	True
694.465	0.3	Win2	0.7162000000000001	0.001	Yes	2.672	-0.001	2.0	GoodResponse	1	0.188	n/a	15	73	ButtonPress	Win	True
694.577	0.41	Win2	0.7162000000000001	n/a	Yes	2.672	n/a	n/a	GoodResponse	1	n/a	n/a	15	73	Blank	Win	True
694.976	1.45	Win2	0.7162000000000001	n/a	Yes	2.672	n/a	5.0	GoodResponse	1	0.022	693.998	15	73	Feedback	Win	True
696.426	2.672	Win2	0.7162000000000001	n/a	Yes	2.672	n/a	n/a	GoodResponse	1	0.0	n/a	15	73	ISIslide	Win	True
699.125	0.25	Lose2	0.72	0.0	Yes	2.625	0.025	n/a	GoodResponse	0	n/a	n/a	15	74	Cue	AvoidedLoss	True
699.375	4.05	Lose2	0.72	0.0	Yes	2.625	0.0	n/a	GoodResponse	0	n/a	n/a	15	74	Fixation	AvoidedLoss	True
703.423	0.28	Lose2	0.72	0.002	Yes	2.625	-0.002	2.0	GoodResponse	0	0.187	702.61	15	74	Target	AvoidedLoss	True
703.61	0.3	Lose2	0.72	0.002	Yes	2.625	-0.002	2.0	GoodResponse	0	0.187	n/a	15	74	ButtonPress	AvoidedLoss	True
703.707	0.42	Lose2	0.72	n/a	Yes	2.625	n/a	n/a	GoodResponse	0	n/a	n/a	15	74	Blank	AvoidedLoss	True
704.123	1.45	Lose2	0.72	n/a	Yes	2.625	n/a	5.0	GoodResponse	0	0.045	703.168	15	74	Feedback	AvoidedLoss	True
705.573	2.625	Lose2	0.72	n/a	Yes	2.625	n/a	n/a	GoodResponse	0	0.0	n/a	15	74	ISIslide	AvoidedLoss	True
708.222	0.25	Lose2	0.7237	0.0	Yes	2.928	0.022	n/a	GoodResponse	0	n/a	n/a	15	75	Cue	AvoidedLoss	True
708.472	3.95	Lose2	0.7237	0.0	Yes	2.928	0.0	n/a	GoodResponse	0	n/a	n/a	15	75	Fixation	AvoidedLoss	True
712.42	0.27	Lose2	0.7237	0.002	Yes	2.928	-0.002	2.0	GoodResponse	0	0.231	711.651	15	75	Target	AvoidedLoss	True
712.651	0.3	Lose2	0.7237	0.002	Yes	2.928	-0.002	2.0	GoodResponse	0	0.231	n/a	15	75	ButtonPress	AvoidedLoss	True
712.704	0.43	Lose2	0.7237	n/a	Yes	2.928	n/a	n/a	GoodResponse	0	n/a	n/a	15	75	Blank	AvoidedLoss	True
713.12	1.45	Lose2	0.7237	n/a	Yes	2.928	n/a	5.0	GoodResponse	0	0.024	712.144	15	75	Feedback	AvoidedLoss	True
714.57	2.928	Lose2	0.7237	n/a	Yes	2.928	n/a	n/a	GoodResponse	0	0.0	n/a	15	75	ISIslide	AvoidedLoss	True
717.519	0.25	Control	0.7273000000000001	0.0	Yes	3.231	0.019	n/a	GoodResponse	0	n/a	n/a	15	76	Cue	Neutral	True
717.768	4.05	Control	0.7273000000000001	0.001	Yes	3.231	-0.001	n/a	GoodResponse	0	n/a	n/a	15	76	Fixation	Neutral	True
721.817	0.26	Control	0.7273000000000001	0.002	Yes	3.231	-0.002	2.0	GoodResponse	0	0.229	721.046	15	76	Target	Neutral	True
722.046	0.3	Control	0.7273000000000001	0.002	Yes	3.231	-0.002	2.0	GoodResponse	0	0.229	n/a	15	76	ButtonPress	Neutral	True
722.084	0.44	Control	0.7273000000000001	n/a	Yes	3.231	n/a	n/a	GoodResponse	0	n/a	n/a	15	76	Blank	Neutral	True
722.517	1.45	Control	0.7273000000000001	n/a	Yes	3.231	n/a	5.0	GoodResponse	0	0.042	721.559	15	76	Feedback	Neutral	True
723.966	3.231	Control	0.7273000000000001	n/a	Yes	3.231	n/a	n/a	GoodResponse	0	0.0	n/a	15	76	ISIslide	Neutral	True
727.215	0.25	Lose2	0.7308	0.0	Yes	2.585	0.015	n/a	GoodResponse	0	n/a	n/a	15	77	Cue	AvoidedLoss	True
727.465	3.95	Lose2	0.7308	0.0	Yes	2.585	0.0	n/a	GoodResponse	0	n/a	n/a	15	77	Fixation	AvoidedLoss	True
731.414	0.25	Lose2	0.7308	0.001	Yes	2.585	-0.001	2.0	GoodResponse	0	0.192	730.606	15	77	Target	AvoidedLoss	True
731.606	0.3	Lose2	0.7308	0.001	Yes	2.585	-0.001	2.0	GoodResponse	0	0.192	n/a	15	77	ButtonPress	AvoidedLoss	True
731.664	0.45	Lose2	0.7308	n/a	Yes	2.585	n/a	n/a	GoodResponse	0	n/a	n/a	15	77	Blank	AvoidedLoss	True
732.113	1.45	Lose2	0.7308	n/a	Yes	2.585	n/a	5.0	GoodResponse	0	0.006	731.119	15	77	Feedback	AvoidedLoss	True
733.563	2.585	Lose2	0.7308	n/a	Yes	2.585	n/a	n/a	GoodResponse	0	0.0	n/a	15	77	ISIslide	AvoidedLoss	True
