onset	duration	cue_type	current_mean_accuracy	duration_error	is_hit	isi_adjusted	onset_delay	response	response_type	reward	rt	rt_time	total_reward	trial_number	trial_phase	trial_type	one_press
11.101	0.25	Control	1.0	0.0	Yes	2.949	0.001	n/a	GoodResponse	0	n/a	n/a	0	0	Cue	Neutral	True
11.35	3.85	Control	1.0	0.001	Yes	2.949	-0.001	n/a	GoodResponse	0	n/a	n/a	0	0	Fixation	Neutral	True
15.199	0.4	Control	1.0	0.002	Yes	2.949	-0.002	2.0	GoodResponse	0	0.206	14.405	0	0	Target	Neutral	True
15.405	0.3	Control	1.0	0.002	Yes	2.949	-0.002	2.0	GoodResponse	0	0.206	n/a	0	0	ButtonPress	Neutral	True
15.599	0.3	Control	1.0	n/a	Yes	2.949	n/a	n/a	GoodResponse	0	n/a	n/a	0	0	Blank	Neutral	True
15.899	1.45	Control	1.0	n/a	Yes	2.949	n/a	5.0	GoodResponse	0	0.028	14.927	0	0	Feedback	Neutral	True
17.348	2.949	Control	1.0	n/a	Yes	2.949	n/a	n/a	GoodResponse	0	0.0	n/a	0	0	ISIslide	Neutral	True
20.314	0.25	Lose2	1.0	0.0	Yes	2.786	0.014	n/a	GoodResponse	0	n/a	n/a	0	1	Cue	AvoidedLoss	True
20.564	4.0	Lose2	1.0	0.0	Yes	2.786	0.0	n/a	GoodResponse	0	n/a	n/a	0	1	Fixation	AvoidedLoss	True
24.562	0.39	Lose2	1.0	0.002	Yes	2.786	-0.002	2.0	GoodResponse	0	0.233	23.795	0	1	Target	AvoidedLoss	True
24.795	0.3	Lose2	1.0	0.002	Yes	2.786	-0.002	2.0	GoodResponse	0	0.233	n/a	0	1	ButtonPress	AvoidedLoss	True
24.962	0.31	Lose2	1.0	n/a	Yes	2.786	n/a	n/a	GoodResponse	0	n/a	n/a	0	1	Blank	AvoidedLoss	True
25.262	1.45	Lose2	1.0	n/a	Yes	2.786	n/a	5.0	GoodResponse	0	0.031	24.293	0	1	Feedback	AvoidedLoss	True
26.712	2.786	Lose2	1.0	n/a	Yes	2.786	n/a	n/a	GoodResponse	0	0.0	n/a	0	1	ISIslide	AvoidedLoss	True
29.527	0.25	Control	1.0	0.0	Yes	2.573	0.027	n/a	GoodResponse	0	n/a	n/a	0	2	Cue	Neutral	True
29.777	4.1	Control	1.0	0.0	Yes	2.573	0.0	n/a	GoodResponse	0	n/a	n/a	0	2	Fixation	Neutral	True
33.876	0.38	Control	1.0	0.001	Yes	2.573	-0.001	2.0	GoodResponse	0	0.187	33.063	0	2	Target	Neutral	True
34.063	0.3	Control	1.0	0.001	Yes	2.573	-0.001	2.0	GoodResponse	0	0.187	n/a	0	2	ButtonPress	Neutral	True
34.259	0.32	Control	1.0	n/a	Yes	2.573	n/a	n/a	GoodResponse	0	n/a	n/a	0	2	Blank	Neutral	True
34.576	1.45	Control	1.0	n/a	Yes	2.573	n/a	5.0	GoodResponse	0	0.033	33.609	0	2	Feedback	Neutral	True
36.025	2.573	Control	1.0	n/a	Yes	2.573	n/a	n/a	GoodResponse	0	0.0	n/a	0	2	ISIslide	Neutral	True
38.624	0.25	Win2	1.0	0.0	Yes	2.826	0.024	n/a	GoodResponse	1	n/a	n/a	1	3	Cue	Win	True
38.874	3.95	Win2	1.0	0.0	Yes	2.826	0.0	n/a	GoodResponse	1	n/a	n/a	1	3	Fixation	Win	True
42.823	0.37	Win2	1.0	0.001	Yes	2.826	-0.001	2.0	GoodResponse	1	0.242	42.065	1	3	Target	Win	True
43.065	0.3	Win2	1.0	0.001	Yes	2.826	-0.001	2.0	GoodResponse	1	0.242	n/a	1	3	ButtonPress	Win	True
43.206	0.33	Win2	1.0	n/a	Yes	2.826	n/a	n/a	GoodResponse	1	n/a	n/a	1	3	Blank	Win	True
43.522	1.45	Win2	1.0	n/a	Yes	2.826	n/a	5.0	GoodResponse	1	0.014	42.536	1	3	Feedback	Win	True
44.972	2.826	Win2	1.0	n/a	Yes	2.826	n/a	n/a	GoodResponse	1	0.0	n/a	1	3	ISIslide	Win	True
47.821	0.25	Win2	1.0	0.0	Yes	3.279	0.021	n/a	GoodResponse	1	n/a	n/a	2	4	Cue	Win	True
48.071	4.0	Win2	1.0	0.0	Yes	3.279	0.0	n/a	GoodResponse	1	n/a	n/a	2	4	Fixation	Win	True
52.069	0.36	Win2	1.0	0.002	Yes	3.279	-0.002	2.0	GoodResponse	1	0.22	51.289	2	4	Target	Win	True
52.289	0.3	Win2	1.0	0.002	Yes	3.279	-0.002	2.0	GoodResponse	1	0.22	n/a	2	4	ButtonPress	Win	True
52.436	0.34	Win2	1.0	n/a	Yes	3.279	n/a	n/a	GoodResponse	1	n/a	n/a	2	4	Blank	Win	True
52.769	1.45	Win2	1.0	n/a	Yes	3.279	n/a	5.0	GoodResponse	1	0.035	51.804	2	4	Feedback	Win	True
54.219	3.279	Win2	1.0	n/a	Yes	3.279	n/a	n/a	GoodResponse	1	0.0	n/a	2	4	ISIslide	Win	True
57.518	0.25	Win2	1.0	0.0	Yes	2.782	0.018	n/a	GoodResponse	1	n/a	n/a	3	5	Cue	Win	True
57.767	4.0	Win2	1.0	0.001	Yes	2.782	-0.001	n/a	GoodResponse	1	n/a	n/a	3	5	Fixation	Win	True
61.766	0.35	Win2	1.0	0.002	Yes	2.782	-0.002	2.0	GoodResponse	1	0.23	60.996	3	5	Target	Win	True
61.996	0.3	Win2	1.0	0.002	Yes	2.782	-0.002	2.0	GoodResponse	1	0.23	n/a	3	5	ButtonPress	Win	True
62.116	0.35	Win2	1.0	n/a	Yes	2.782	n/a	n/a	GoodResponse	1	n/a	n/a	3	5	Blank	Win	True
62.466	1.45	Win2	1.0	n/a	Yes	2.782	n/a	5.0	GoodResponse	1	0.046	61.512	3	5	Feedback	Win	True
63.915	2.782	Win2	1.0	n/a	Yes	2.782	n/a	n/a	GoodResponse	1	0.0	n/a	3	5	ISIslide	Win	True
66.714	0.25	Lose2	1.0	0.0	Yes	2.736	0.014	n/a	GoodResponse	0	n/a	n/a	3	6	Cue	AvoidedLoss	True
66.964	3.95	Lose2	1.0	0.0	Yes	2.736	0.0	n/a	GoodResponse	0	n/a	n/a	3	6	Fixation	AvoidedLoss	True
70.913	0.34	Lose2	1.0	0.001	Yes	2.736	-0.001	2.0	GoodResponse	0	0.208	70.121	3	6	Target	AvoidedLoss	True
71.121	0.3	Lose2	1.0	0.001	Yes	2.736	-0.001	2.0	GoodResponse	0	0.208	n/a	3	6	ButtonPress	AvoidedLoss	True
71.263	0.36	Lose2	1.0	n/a	Yes	2.736	n/a	n/a	GoodResponse	0	n/a	n/a	3	6	Blank	AvoidedLoss	True
71.613	1.45	Lose2	1.0	n/a	Yes	2.736	n/a	5.0	GoodResponse	0	0.02	70.633	3	6	Feedback	AvoidedLoss	True
73.062	2.736	Lose2	1.0	n/a	Yes	2.736	n/a	n/a	GoodResponse	0	0.0	n/a	3	6	ISIslide	AvoidedLoss	True
75.811	0.25	Lose2	1.0	0.0	Yes	4.039	0.011	n/a	GoodResponse	0	n/a	n/a	3	7	Cue	AvoidedLoss	True
76.061	4.05	Lose2	1.0	0.0	Yes	4.039	0.0	n/a	GoodResponse	0	n/a	n/a	3	7	Fixation	AvoidedLoss	True
80.11	0.33	Lose2	1.0	0.001	Yes	4.039	-0.001	2.0	GoodResponse	0	0.203	79.313	3	7	Target	AvoidedLoss	True
80.313	0.3	Lose2	1.0	0.001	Yes	4.039	-0.001	2.0	GoodResponse	0	0.203	n/a	3	7	ButtonPress	AvoidedLoss	True
80.443	0.37	Lose2	1.0	n/a	Yes	4.039	n/a	n/a	GoodResponse	0	n/a	n/a	3	7	Blank	AvoidedLoss	True
80.809	1.45	Lose2	1.0	n/a	Yes	4.039	n/a	5.0	GoodResponse	0	0.043	79.852	3	7	Feedback	AvoidedLoss	True
82.259	4.039	Lose2	1.0	n/a	Yes	4.039	n/a	n/a	GoodResponse	0	0.0	n/a	3	7	ISIslide	AvoidedLoss	True
86.324	0.25	Lose2	0.8889	0.0	No	3.026	0.024	n/a	NoResponse	-1	n/a	n/a	2	8	Cue	Loss	True
86.574	3.95	Lose2	0.8889	0.0	No	3.026	0.0	2.0	NoResponse	-1	3.777	89.351	2	8	Fixation	Loss	True
90.351	0.3	Lose2	0.8889	0.0	No	3.026	0.0	2.0	NoResponse	-1	3.777	n/a	2	8	ButtonPress	Loss	True
90.523	0.32	Lose2	0.8889	0.001	No	3.026	-0.001	n/a	NoResponse	-1	n/a	n/a	2	8	Target	Loss	True
90.856	0.38	Lose2	0.8889	n/a	No	3.026	n/a	n/a	NoResponse	-1	n/a	n/a	2	8	Blank	Loss	True
91.222	1.45	Lose2	0.8889	n/a	No	3.026	n/a	5.0	NoResponse	-1	0.021	90.243	2	8	Feedback	Loss	True
92.672	3.026	Lose2	0.8889	n/a	No	3.026	n/a	n/a	NoResponse	-1	0.0	n/a	2	8	ISIslide	Loss	True
95.721	0.25	Lose2	0.9	0.0	Yes	3.129	0.021	n/a	GoodResponse	0	n/a	n/a	2	9	Cue	AvoidedLoss	True
95.971	3.95	Lose2	0.9	0.0	Yes	3.129	0.0	n/a	GoodResponse	0	n/a	n/a	2	9	Fixation	AvoidedLoss	True
99.919	0.31	Lose2	0.9	0.002	Yes	3.129	-0.002	2.0	GoodResponse	0	0.192	99.111	2	9	Target	AvoidedLoss	True
100.111	0.3	Lose2	0.9	0.002	Yes	3.129	-0.002	2.0	GoodResponse	0	0.192	n/a	2	9	ButtonPress	AvoidedLoss	True
100.236	0.39	Lose2	0.9	n/a	Yes	3.129	n/a	n/a	GoodResponse	0	n/a	n/a	2	9	Blank	AvoidedLoss	True
100.619	1.45	Lose2	0.9	n/a	Yes	3.129	n/a	5.0	GoodResponse	0	0.039	99.658	2	9	Feedback	AvoidedLoss	True
102.068	3.129	Lose2	0.9	n/a	Yes	3.129	n/a	n/a	GoodResponse	0	0.0	n/a	2	9	ISIslide	AvoidedLoss	True
105.217	0.25	Control	0.9091	0.0	Yes	3.283	0.017	n/a	GoodResponse	0	n/a	n/a	2	10	Cue	Neutral	True
105.467	4.0	Control	0.9091	0.0	Yes	3.283	0.0	n/a	GoodResponse	0	n/a	n/a	2	10	Fixation	Neutral	True
109.466	0.3	Control	0.9091	0.001	Yes	3.283	-0.001	2.0	GoodResponse	0	0.21	108.676	2	10	Target	Neutral	True
109.676	0.3	Control	0.9091	0.001	Yes	3.283	-0.001	2.0	GoodResponse	0	0.21	n/a	2	10	ButtonPress	Neutral	True
109.766	0.4	Control	0.9091	n/a	Yes	3.283	n/a	n/a	GoodResponse	0	n/a	n/a	2	10	Blank	Neutral	True
110.166	1.45	Control	0.9091	n/a	Yes	3.283	n/a	5.0	GoodResponse	0	0.004	109.17	2	10	Feedback	Neutral	True
111.615	3.283	Control	0.9091	n/a	Yes	3.283	n/a	n/a	GoodResponse	0	0.0	n/a	2	10	ISIslide	Neutral	True
114.914	0.25	Lose2	0.9167000000000001	0.0	Yes	2.736	0.014	n/a	GoodResponse	0	n/a	n/a	2	11	Cue	AvoidedLoss	True
115.164	4.05	Lose2	0.9167000000000001	0.0	Yes	2.736	0.0	n/a	GoodResponse	0	n/a	n/a	2	11	Fixation	AvoidedLoss	True
119.212	0.29	Lose2	0.9167000000000001	0.002	Yes	2.736	-0.002	2.0	GoodResponse	0	0.211	118.423	2	11	Target	AvoidedLoss	True
119.423	0.3	Lose2	0.9167000000000001	0.002	Yes	2.736	-0.002	2.0	GoodResponse	0	0.211	n/a	2	11	ButtonPress	AvoidedLoss	True
119.512	0.41	Lose2	0.9167000000000001	n/a	Yes	2.736	n/a	n/a	GoodResponse	0	n/a	n/a	2	11	Blank	AvoidedLoss	True
119.912	1.45	Lose2	0.9167000000000001	n/a	Yes	2.736	n/a	5.0	GoodResponse	0	0.013	118.925	2	11	Feedback	AvoidedLoss	True
121.362	2.736	Lose2	0.9167000000000001	n/a	Yes	2.736	n/a	n/a	GoodResponse	0	0.0	n/a	2	11	ISIslide	AvoidedLoss	True
124.127	0.25	Control	0.9231	0.001	Yes	2.973	0.027	n/a	GoodResponse	0	n/a	n/a	2	12	Cue	Neutral	True
124.377	3.9	Control	0.9231	0.0	Yes	2.973	0.0	n/a	GoodResponse	0	n/a	n/a	2	12	Fixation	Neutral	True
128.276	0.28	Control	0.9231	0.001	Yes	2.973	-0.001	2.0	GoodResponse	0	0.221	127.497	2	12	Target	Neutral	True
128.497	0.3	Control	0.9231	0.001	Yes	2.973	-0.001	2.0	GoodResponse	0	0.221	n/a	2	12	ButtonPress	Neutral	True
128.559	0.42	Control	0.9231	n/a	Yes	2.973	n/a	n/a	GoodResponse	0	n/a	n/a	2	12	Blank	Neutral	True
128.976	1.45	Control	0.9231	n/a	Yes	2.973	n/a	5.0	GoodResponse	0	0.022	127.998	2	12	Feedback	Neutral	True
130.425	2.973	Control	0.9231	n/a	Yes	2.973	n/a	n/a	GoodResponse	0	0.0	n/a	2	12	ISIslide	Neutral	True
133.424	0.25	Control	0.9286	0.0	Yes	2.776	0.024	n/a	GoodResponse	0	n/a	n/a	2	13	Cue	Neutral	True
133.674	4.0	Control	0.9286	0.0	Yes	2.776	0.0	n/a	GoodResponse	0	n/a	n/a	2	13	Fixation	Neutral	True
137.673	0.27	Control	0.9286	0.001	Yes	2.776	-0.001	2.0	GoodResponse	0	0.2	136.873	2	13	Target	Neutral	True
137.873	0.3	Control	0.9286	0.001	Yes	2.776	-0.001	2.0	GoodResponse	0	0.2	n/a	2	13	ButtonPress	Neutral	True
137.956	0.43	Control	0.9286	n/a	Yes	2.776	n/a	n/a	GoodResponse	0	n/a	n/a	2	13	Blank	Neutral	True
138.372	1.45	Control	0.9286	n/a	Yes	2.776	n/a	5.0	GoodResponse	0	0.041	137.413	2	13	Feedback	Neutral	True
139.822	2.776	Control	0.9286	n/a	Yes	2.776	n/a	n/a	GoodResponse	0	0.0	n/a	2	13	ISIslide	Neutral	True
142.621	0.25	Win2	0.9333	0.0	Yes	2.679	0.021	n/a	GoodResponse	1	n/a	n/a	3	14	Cue	Win	False
142.871	4.1	Win2	0.9333	0.0	Yes	2.679	0.0	2.0	GoodResponse	1	3.509	145.38	3	14	Fixation	Win	False
146.38	0.3	Win2	0.9333	0.0	Yes	2.679	0.0	2.0	GoodResponse	1	3.509	n/a	3	14	ButtonPress	Win	False
146.969	0.26	Win2	0.9333	0.002	Yes	2.679	-0.002	2.0	GoodResponse	1	0.247	146.216	3	14	Target	Win	False
147.216	0.3	Win2	0.9333	0.002	Yes	2.679	-0.002	2.0	GoodResponse	1	0.247	n/a	3	14	ButtonPress	Win	False
147.236	0.44	Win2	0.9333	n/a	Yes	2.679	n/a	n/a	GoodResponse	1	n/a	n/a	3	14	Blank	Win	False
147.669	1.45	Win2	0.9333	n/a	Yes	2.679	n/a	5.0	GoodResponse	1	0.013	146.682	3	14	Feedback	Win	False
149.119	2.679	Win2	0.9333	n/a	Yes	2.679	n/a	n/a	GoodResponse	1	0.0	n/a	3	14	ISIslide	Win	False
151.818	0.25	Control	0.875	0.0	No	2.982	0.018	n/a	PrematurePress	0	n/a	n/a	3	15	Cue	Neutral	True
152.068	4.0	Control	0.875	0.0	No	2.982	0.0	n/a	PrematurePress	0	n/a	n/a	3	15	Fixation	Neutral	True
156.066	0.25	Control	0.875	0.002	No	2.982	-0.002	2.0	PrematurePress	0	0.061	155.127	3	15	Target	Neutral	True
156.127	0.3	Control	0.875	0.002	No	2.982	-0.002	2.0	PrematurePress	0	0.061	n/a	3	15	ButtonPress	Neutral	True
156.316	0.45	Control	0.875	n/a	No	2.982	n/a	n/a	PrematurePress	0	n/a	n/a	3	15	Blank	Neutral	True
156.766	1.45	Control	0.875	n/a	No	2.982	n/a	5.0	PrematurePress	0	0.038	155.804	3	15	Feedback	Neutral	True
158.215	2.982	Control	0.875	n/a	No	2.982	n/a	n/a	PrematurePress	0	0.0	n/a	3	15	ISIslide	Neutral	True
161.214	0.25	Win2	0.8234999999999999	0.0	No	2.886	0.014	n/a	NoResponse	0	n/a	n/a	3	16	Cue	MissedWin	False
161.464	4.0	Win2	0.8234999999999999	0.0	No	2.886	0.0	2.0	NoResponse	0	3.711	164.175	3	16	Fixation	MissedWin	False
165.175	0.3	Win2	0.8234999999999999	0.0	No	2.886	0.0	2.0	NoResponse	0	3.711	n/a	3	16	ButtonPress	MissedWin	False
165.463	0.24	Win2	0.8234999999999999	0.001	No	2.886	-0.001	2.0	NoResponse	0	0.256	164.719	3	16	Target	MissedWin	False
165.713	0.46	Win2	0.8234999999999999	n/a	No	2.886	n/a	n/a	NoResponse	0	n/a	n/a	3	16	Blank	MissedWin	False
165.719	0.3	Win2	0.8234999999999999	0.001	No	2.886	-0.001	2.0	NoResponse	0	0.256	n/a	3	16	ButtonPress	MissedWin	False
166.163	1.45	Win2	0.8234999999999999	n/a	No	2.886	n/a	5.0	NoResponse	0	0.006	165.169	3	16	Feedback	MissedWin	False
167.612	2.886	Win2	0.8234999999999999	n/a	No	2.886	n/a	n/a	NoResponse	0	0.0	n/a	3	16	ISIslide	MissedWin	False
170.528	0.25	Lose2	0.7778	0.0	No	2.722	0.028	n/a	NoResponse	-1	n/a	n/a	2	17	Cue	Loss	True
170.778	3.95	Lose2	0.7778	0.0	No	2.722	0.0	n/a	NoResponse	-1	n/a	n/a	2	17	Fixation	Loss	True
174.726	0.23	Lose2	0.7778	0.002	No	2.722	-0.002	2.0	NoResponse	-1	0.239	173.965	2	17	Target	Loss	True
174.959	0.47	Lose2	0.7778	n/a	No	2.722	n/a	n/a	NoResponse	-1	n/a	n/a	2	17	Blank	Loss	True
174.965	0.3	Lose2	0.7778	0.002	No	2.722	-0.002	2.0	NoResponse	-1	0.239	n/a	2	17	ButtonPress	Loss	True
175.426	1.45	Lose2	0.7778	n/a	No	2.722	n/a	5.0	NoResponse	-1	0.011	174.437	2	17	Feedback	Loss	True
176.875	2.722	Lose2	0.7778	n/a	No	2.722	n/a	n/a	NoResponse	-1	0.0	n/a	2	17	ISIslide	Loss	True
179.625	0.25	Lose2	0.7895	0.0	Yes	2.725	0.025	n/a	GoodResponse	0	n/a	n/a	2	18	Cue	AvoidedLoss	False
179.874	4.05	Lose2	0.7895	0.001	Yes	2.725	-0.001	2.0	GoodResponse	0	3.412	182.286	2	18	Fixation	AvoidedLoss	False
183.286	0.3	Lose2	0.7895	0.001	Yes	2.725	-0.001	2.0	GoodResponse	0	3.412	n/a	2	18	ButtonPress	AvoidedLoss	False
183.923	0.22	Lose2	0.7895	0.002	Yes	2.725	-0.002	2.0	GoodResponse	0	0.175	183.098	2	18	Target	AvoidedLoss	False
184.098	0.3	Lose2	0.7895	0.002	Yes	2.725	-0.002	2.0	GoodResponse	0	0.175	n/a	2	18	ButtonPress	AvoidedLoss	False
184.156	0.48	Lose2	0.7895	n/a	Yes	2.725	n/a	n/a	GoodResponse	0	n/a	n/a	2	18	Blank	AvoidedLoss	False
184.623	1.45	Lose2	0.7895	n/a	Yes	2.725	n/a	5.0	GoodResponse	0	0.034	183.657	2	18	Feedback	AvoidedLoss	False
186.072	2.725	Lose2	0.7895	n/a	Yes	2.725	n/a	n/a	GoodResponse	0	0.0	n/a	2	18	ISIslide	AvoidedLoss	False
188.821	0.25	Control	0.75	0.0	No	2.929	0.021	n/a	PrematurePress	0	n/a	n/a	2	19	Cue	Neutral	True
189.071	3.95	Control	0.75	0.0	No	2.929	0.0	n/a	PrematurePress	0	n/a	n/a	2	19	Fixation	Neutral	True
193.02	0.21	Control	0.75	0.001	No	2.929	-0.001	2.0	PrematurePress	0	0.099	192.119	2	19	Target	Neutral	True
193.119	0.3	Control	0.75	0.001	No	2.929	-0.001	2.0	PrematurePress	0	0.099	n/a	2	19	ButtonPress	Neutral	True
193.236	0.49	Control	0.75	n/a	No	2.929	n/a	n/a	PrematurePress	0	n/a	n/a	2	19	Blank	Neutral	True
193.72	1.45	Control	0.75	n/a	No	2.929	n/a	5.0	PrematurePress	0	0.01	192.73	2	19	Feedback	Neutral	True
195.169	2.929	Control	0.75	n/a	No	2.929	n/a	n/a	PrematurePress	0	0.0	n/a	2	19	ISIslide	Neutral	True
198.118	0.25	Control	0.7143	0.0	No	2.632	0.018	n/a	NoResponse	0	n/a	n/a	2	20	Cue	Neutral	False
198.368	4.05	Control	0.7143	0.0	No	2.632	0.0	2.0	NoResponse	0	3.852	201.22	2	20	Fixation	Neutral	False
202.22	0.3	Control	0.7143	0.0	No	2.632	0.0	2.0	NoResponse	0	3.852	n/a	2	20	ButtonPress	Neutral	False
202.416	0.2	Control	0.7143	0.002	No	2.632	-0.002	2.0	NoResponse	0	0.274	201.69	2	20	Target	Neutral	False
202.616	0.5	Control	0.7143	n/a	No	2.632	n/a	n/a	NoResponse	0	n/a	n/a	2	20	Blank	Neutral	False
202.69	0.3	Control	0.7143	0.002	No	2.632	-0.002	2.0	NoResponse	0	0.274	n/a	2	20	ButtonPress	Neutral	False
203.116	1.45	Control	0.7143	n/a	No	2.632	n/a	5.0	NoResponse	0	0.028	202.144	2	20	Feedback	Neutral	False
204.566	2.632	Control	0.7143	n/a	No	2.632	n/a	n/a	NoResponse	0	0.0	n/a	2	20	ISIslide	Neutral	False
207.215	0.25	Control	0.6818000000000001	0.0	No	2.785	0.015	n/a	NoResponse	0	n/a	n/a	2	21	Cue	Neutral	True
207.465	4.1	Control	0.6818000000000001	0.0	No	2.785	0.0	n/a	NoResponse	0	n/a	n/a	2	21	Fixation	Neutral	True
211.563	0.19	Control	0.6818000000000001	0.002	No	2.785	-0.002	2.0	NoResponse	0	0.274	210.837	2	21	Target	Neutral	True
211.763	0.51	Control	0.6818000000000001	n/a	No	2.785	n/a	n/a	NoResponse	0	n/a	n/a	2	21	Blank	Neutral	True
211.837	0.3	Control	0.6818000000000001	0.002	No	2.785	-0.002	2.0	NoResponse	0	0.274	n/a	2	21	ButtonPress	Neutral	True
212.263	1.45	Control	0.6818000000000001	n/a	No	2.785	n/a	5.0	NoResponse	0	0.005	211.268	2	21	Feedback	Neutral	True
213.713	2.785	Control	0.6818000000000001	n/a	No	2.785	n/a	n/a	NoResponse	0	0.0	n/a	2	21	ISIslide	Neutral	True
216.512	0.25	Control	0.6522	0.0	No	2.788	0.012	n/a	NoResponse	0	n/a	n/a	2	22	Cue	Neutral	True
216.761	4.0	Control	0.6522	0.001	No	2.788	-0.001	n/a	NoResponse	0	n/a	n/a	2	22	Fixation	Neutral	True
220.76	0.18	Control	0.6522	0.002	No	2.788	-0.002	2.0	NoResponse	0	0.225	219.985	2	22	Target	Neutral	True
220.943	0.52	Control	0.6522	n/a	No	2.788	n/a	n/a	NoResponse	0	n/a	n/a	2	22	Blank	Neutral	True
220.985	0.3	Control	0.6522	0.002	No	2.788	-0.002	2.0	NoResponse	0	0.225	n/a	2	22	ButtonPress	Neutral	True
221.46	1.45	Control	0.6522	n/a	No	2.788	n/a	5.0	NoResponse	0	0.025	220.485	2	22	Feedback	Neutral	True
222.909	2.788	Control	0.6522	n/a	No	2.788	n/a	n/a	NoResponse	0	0.0	n/a	2	22	ISIslide	Neutral	True
225.725	0.25	Control	0.625	0.0	No	2.775	0.025	n/a	NoResponse	0	n/a	n/a	2	23	Cue	Neutral	True
225.975	3.9	Control	0.625	0.0	No	2.775	0.0	n/a	NoResponse	0	n/a	n/a	2	23	Fixation	Neutral	True
229.873	0.19	Control	0.625	0.002	No	2.775	-0.002	2.0	NoResponse	0	0.226	229.099	2	23	Target	Neutral	True
230.073	0.51	Control	0.625	n/a	No	2.775	n/a	n/a	NoResponse	0	n/a	n/a	2	23	Blank	Neutral	True
230.099	0.3	Control	0.625	0.002	No	2.775	-0.002	2.0	NoResponse	0	0.226	n/a	2	23	ButtonPress	Neutral	True
230.573	1.45	Control	0.625	n/a	No	2.775	n/a	5.0	NoResponse	0	0.034	229.607	2	23	Feedback	Neutral	True
232.023	2.775	Control	0.625	n/a	No	2.775	n/a	n/a	NoResponse	0	0.0	n/a	2	23	ISIslide	Neutral	True
234.822	0.25	Win2	0.6	0.0	No	3.128	0.022	n/a	LatePress	0	n/a	n/a	2	24	Cue	MissedWin	True
235.072	3.95	Win2	0.6	0.0	No	3.128	0.0	n/a	LatePress	0	n/a	n/a	2	24	Fixation	MissedWin	True
239.02	0.2	Win2	0.6	0.002	No	3.128	-0.002	2.0	LatePress	0	0.202	238.222	2	24	Target	MissedWin	True
239.22	0.5	Win2	0.6	n/a	No	3.128	n/a	n/a	LatePress	0	n/a	n/a	2	24	Blank	MissedWin	True
239.222	0.3	Win2	0.6	0.002	No	3.128	-0.002	2.0	LatePress	0	0.202	n/a	2	24	ButtonPress	MissedWin	True
239.72	1.45	Win2	0.6	n/a	No	3.128	n/a	5.0	LatePress	0	0.009	238.729	2	24	Feedback	MissedWin	True
241.169	3.128	Win2	0.6	n/a	No	3.128	n/a	n/a	LatePress	0	0.0	n/a	2	24	ISIslide	MissedWin	True
244.318	0.25	Win2	0.5769	0.0	No	3.082	0.018	n/a	NoResponse	0	n/a	n/a	2	25	Cue	MissedWin	True
244.568	4.0	Win2	0.5769	0.0	No	3.082	0.0	2.0	NoResponse	0	3.814	247.382	2	25	Fixation	MissedWin	True
248.382	0.3	Win2	0.5769	0.0	No	3.082	0.0	2.0	NoResponse	0	3.814	n/a	2	25	ButtonPress	MissedWin	True
248.567	0.21	Win2	0.5769	0.001	No	3.082	-0.001	n/a	NoResponse	0	n/a	n/a	2	25	Target	MissedWin	True
248.783	0.49	Win2	0.5769	n/a	No	3.082	n/a	n/a	NoResponse	0	n/a	n/a	2	25	Blank	MissedWin	True
249.267	1.45	Win2	0.5769	n/a	No	3.082	n/a	5.0	NoResponse	0	0.023	248.29	2	25	Feedback	MissedWin	True
250.716	3.082	Win2	0.5769	n/a	No	3.082	n/a	n/a	NoResponse	0	0.0	n/a	2	25	ISIslide	MissedWin	True
253.815	0.25	Win2	0.5556	0.0	No	2.935	0.015	n/a	NoResponse	0	n/a	n/a	2	26	Cue	MissedWin	True
254.065	3.95	Win2	0.5556	0.0	No	2.935	0.0	n/a	NoResponse	0	n/a	n/a	2	26	Fixation	MissedWin	True
258.014	0.22	Win2	0.5556	0.001	No	2.935	-0.001	2.0	NoResponse	0	0.251	257.265	2	26	Target	MissedWin	True
258.247	0.48	Win2	0.5556	n/a	No	2.935	n/a	n/a	NoResponse	0	n/a	n/a	2	26	Blank	MissedWin	True
258.265	0.3	Win2	0.5556	0.001	No	2.935	-0.001	2.0	NoResponse	0	0.251	n/a	2	26	ButtonPress	MissedWin	True
258.713	1.45	Win2	0.5556	n/a	No	2.935	n/a	5.0	NoResponse	0	0.04	257.753	2	26	Feedback	MissedWin	True
260.163	2.935	Win2	0.5556	n/a	No	2.935	n/a	n/a	NoResponse	0	0.0	n/a	2	26	ISIslide	MissedWin	True
263.112	0.25	Lose2	0.5714	0.0	Yes	2.838	0.012	n/a	GoodResponse	0	n/a	n/a	2	27	Cue	AvoidedLoss	True
263.362	4.05	Lose2	0.5714	0.0	Yes	2.838	0.0	n/a	GoodResponse	0	n/a	n/a	2	27	Fixation	AvoidedLoss	True
267.41	0.23	Lose2	0.5714	0.002	Yes	2.838	-0.002	2.0	GoodResponse	0	0.215	266.625	2	27	Target	AvoidedLoss	True
267.625	0.3	Lose2	0.5714	0.002	Yes	2.838	-0.002	2.0	GoodResponse	0	0.215	n/a	2	27	ButtonPress	AvoidedLoss	True
267.644	0.47	Lose2	0.5714	n/a	Yes	2.838	n/a	n/a	GoodResponse	0	n/a	n/a	2	27	Blank	AvoidedLoss	True
268.11	1.45	Lose2	0.5714	n/a	Yes	2.838	n/a	5.0	GoodResponse	0	0.009	267.119	2	27	Feedback	AvoidedLoss	True
269.559	2.838	Lose2	0.5714	n/a	Yes	2.838	n/a	n/a	GoodResponse	0	0.0	n/a	2	27	ISIslide	AvoidedLoss	True
272.425	0.25	Control	0.5517	0.0	No	2.825	0.025	n/a	NoResponse	0	n/a	n/a	2	28	Cue	Neutral	True
272.675	4.05	Control	0.5517	0.0	No	2.825	0.0	n/a	NoResponse	0	n/a	n/a	2	28	Fixation	Neutral	True
276.724	0.24	Control	0.5517	0.001	No	2.825	-0.001	2.0	NoResponse	0	0.264	275.988	2	28	Target	Neutral	True
276.974	0.46	Control	0.5517	n/a	No	2.825	n/a	n/a	NoResponse	0	n/a	n/a	2	28	Blank	Neutral	True
276.988	0.3	Control	0.5517	0.001	No	2.825	-0.001	2.0	NoResponse	0	0.264	n/a	2	28	ButtonPress	Neutral	True
277.423	1.45	Control	0.5517	n/a	No	2.825	n/a	5.0	NoResponse	0	0.013	276.436	2	28	Feedback	Neutral	True
278.873	2.825	Control	0.5517	n/a	No	2.825	n/a	n/a	NoResponse	0	0.0	n/a	2	28	ISIslide	Neutral	True
281.722	0.25	Lose2	0.5667	0.0	Yes	2.828	0.022	n/a	GoodResponse	0	n/a	n/a	2	29	Cue	AvoidedLoss	False
281.972	3.95	Lose2	0.5667	0.0	Yes	2.828	0.0	2.0	GoodResponse	0	3.547	284.519	2	29	Fixation	AvoidedLoss	False
285.519	0.3	Lose2	0.5667	0.0	Yes	2.828	0.0	2.0	GoodResponse	0	3.547	n/a	2	29	ButtonPress	AvoidedLoss	False
285.92	0.25	Lose2	0.5667	0.002	Yes	2.828	-0.002	2.0	GoodResponse	0	0.202	285.122	2	29	Target	AvoidedLoss	False
286.122	0.3	Lose2	0.5667	0.002	Yes	2.828	-0.002	2.0	GoodResponse	0	0.202	n/a	2	29	ButtonPress	AvoidedLoss	False
286.17	0.45	Lose2	0.5667	n/a	Yes	2.828	n/a	n/a	GoodResponse	0	n/a	n/a	2	29	Blank	AvoidedLoss	False
286.62	1.45	Lose2	0.5667	n/a	Yes	2.828	n/a	5.0	GoodResponse	0	0.036	285.656	2	29	Feedback	AvoidedLoss	False
288.07	2.828	Lose2	0.5667	n/a	Yes	2.828	n/a	n/a	GoodResponse	0	0.0	n/a	2	29	ISIslide	AvoidedLoss	False
290.919	0.25	Win2	0.5806	0.0	Yes	2.781	0.019	n/a	GoodResponse	1	n/a	n/a	3	30	Cue	Win	True
291.169	3.9	Win2	0.5806	0.0	Yes	2.781	0.0	n/a	GoodResponse	1	n/a	n/a	3	30	Fixation	Win	True
295.067	0.26	Win2	0.5806	0.002	Yes	2.781	-0.002	2.0	GoodResponse	1	0.229	294.296	3	30	Target	Win	True
295.296	0.3	Win2	0.5806	0.002	Yes	2.781	-0.002	2.0	GoodResponse	1	0.229	n/a	3	30	ButtonPress	Win	True
295.334	0.44	Win2	0.5806	n/a	Yes	2.781	n/a	n/a	GoodResponse	1	n/a	n/a	3	30	Blank	Win	True
295.767	1.45	Win2	0.5806	n/a	Yes	2.781	n/a	5.0	GoodResponse	1	0.01	294.777	3	30	Feedback	Win	True
297.216	2.781	Win2	0.5806	n/a	Yes	2.781	n/a	n/a	GoodResponse	1	0.0	n/a	3	30	ISIslide	Win	True
300.015	0.25	Lose2	0.5938	0.001	Yes	2.835	0.015	n/a	GoodResponse	0	n/a	n/a	3	31	Cue	AvoidedLoss	True
300.265	4.05	Lose2	0.5938	0.0	Yes	2.835	0.0	n/a	GoodResponse	0	n/a	n/a	3	31	Fixation	AvoidedLoss	True
304.314	0.27	Lose2	0.5938	0.001	Yes	2.835	-0.001	2.0	GoodResponse	0	0.193	303.507	3	31	Target	AvoidedLoss	True
304.507	0.3	Lose2	0.5938	0.001	Yes	2.835	-0.001	2.0	GoodResponse	0	0.193	n/a	3	31	ButtonPress	AvoidedLoss	True
304.58	0.43	Lose2	0.5938	n/a	Yes	2.835	n/a	n/a	GoodResponse	0	n/a	n/a	3	31	Blank	AvoidedLoss	True
305.014	1.45	Lose2	0.5938	n/a	Yes	2.835	n/a	5.0	GoodResponse	0	0.031	304.045	3	31	Feedback	AvoidedLoss	True
306.463	2.835	Lose2	0.5938	n/a	Yes	2.835	n/a	n/a	GoodResponse	0	0.0	n/a	3	31	ISIslide	AvoidedLoss	True
309.312	0.25	Lose2	0.6061	0.0	Yes	2.638	0.012	n/a	GoodResponse	0	n/a	n/a	3	32	Cue	AvoidedLoss	True
309.562	4.15	Lose2	0.6061	0.0	Yes	2.638	0.0	n/a	GoodResponse	0	n/a	n/a	3	32	Fixation	AvoidedLoss	True
313.711	0.28	Lose2	0.6061	0.001	Yes	2.638	-0.001	2.0	GoodResponse	0	0.207	312.918	3	32	Target	AvoidedLoss	True
313.918	0.3	Lose2	0.6061	0.001	Yes	2.638	-0.001	2.0	GoodResponse	0	0.207	n/a	3	32	ButtonPress	AvoidedLoss	True
313.994	0.42	Lose2	0.6061	n/a	Yes	2.638	n/a	n/a	GoodResponse	0	n/a	n/a	3	32	Blank	AvoidedLoss	True
314.41	1.45	Lose2	0.6061	n/a	Yes	2.638	n/a	5.0	GoodResponse	0	0.001	313.411	3	32	Feedback	AvoidedLoss	True
315.86	2.638	Lose2	0.6061	n/a	Yes	2.638	n/a	n/a	GoodResponse	0	0.0	n/a	3	32	ISIslide	AvoidedLoss	True
318.526	0.25	Win2	0.6175999999999999	0.0	Yes	2.674	0.026	n/a	GoodResponse	1	n/a	n/a	4	33	Cue	Win	True
318.775	4.0	Win2	0.6175999999999999	0.001	Yes	2.674	-0.001	n/a	GoodResponse	1	n/a	n/a	4	33	Fixation	Win	True
322.774	0.29	Win2	0.6175999999999999	0.002	Yes	2.674	-0.002	2.0	GoodResponse	1	0.185	321.959	4	33	Target	Win	True
322.959	0.3	Win2	0.6175999999999999	0.002	Yes	2.674	-0.002	2.0	GoodResponse	1	0.185	n/a	4	33	ButtonPress	Win	True
323.074	0.41	Win2	0.6175999999999999	n/a	Yes	2.674	n/a	n/a	GoodResponse	1	n/a	n/a	4	33	Blank	Win	True
323.474	1.45	Win2	0.6175999999999999	n/a	Yes	2.674	n/a	5.0	GoodResponse	1	0.011	322.485	4	33	Feedback	Win	True
324.923	2.674	Win2	0.6175999999999999	n/a	Yes	2.674	n/a	n/a	GoodResponse	1	0.0	n/a	4	33	ISIslide	Win	True
327.622	0.25	Lose2	0.6286	0.0	Yes	2.628	0.022	n/a	GoodResponse	0	n/a	n/a	4	34	Cue	AvoidedLoss	True
327.872	4.05	Lose2	0.6286	0.0	Yes	2.628	0.0	n/a	GoodResponse	0	n/a	n/a	4	34	Fixation	AvoidedLoss	True
331.921	0.3	Lose2	0.6286	0.001	Yes	2.628	-0.001	2.0	GoodResponse	0	0.201	331.122	4	34	Target	AvoidedLoss	True
332.122	0.3	Lose2	0.6286	0.001	Yes	2.628	-0.001	2.0	GoodResponse	0	0.201	n/a	4	34	ButtonPress	AvoidedLoss	True
332.221	0.4	Lose2	0.6286	n/a	Yes	2.628	n/a	n/a	GoodResponse	0	n/a	n/a	4	34	Blank	AvoidedLoss	True
332.621	1.45	Lose2	0.6286	n/a	Yes	2.628	n/a	5.0	GoodResponse	0	0.034	331.655	4	34	Feedback	AvoidedLoss	True
334.07	2.628	Lose2	0.6286	n/a	Yes	2.628	n/a	n/a	GoodResponse	0	0.0	n/a	4	34	ISIslide	AvoidedLoss	True
336.719	0.25	Lose2	0.6389	0.0	Yes	2.681	0.019	n/a	GoodResponse	0	n/a	n/a	4	35	Cue	AvoidedLoss	True
336.969	4.0	Lose2	0.6389	0.0	Yes	2.681	0.0	n/a	GoodResponse	0	n/a	n/a	4	35	Fixation	AvoidedLoss	True
340.968	0.31	Lose2	0.6389	0.001	Yes	2.681	-0.001	2.0	GoodResponse	0	0.222	340.19	4	35	Target	AvoidedLoss	True
341.19	0.3	Lose2	0.6389	0.001	Yes	2.681	-0.001	2.0	GoodResponse	0	0.222	n/a	4	35	ButtonPress	AvoidedLoss	True
341.284	0.39	Lose2	0.6389	n/a	Yes	2.681	n/a	n/a	GoodResponse	0	n/a	n/a	4	35	Blank	AvoidedLoss	True
341.667	1.45	Lose2	0.6389	n/a	Yes	2.681	n/a	5.0	GoodResponse	0	0.012	340.679	4	35	Feedback	AvoidedLoss	True
343.117	2.681	Lose2	0.6389	n/a	Yes	2.681	n/a	n/a	GoodResponse	0	0.0	n/a	4	35	ISIslide	AvoidedLoss	True
345.816	0.25	Control	0.6215999999999999	0.0	No	2.684	0.016	n/a	NoResponse	0	n/a	n/a	4	36	Cue	Neutral	True
346.066	4.0	Control	0.6215999999999999	0.0	No	2.684	0.0	2.0	NoResponse	0	3.722	348.788	4	36	Fixation	Neutral	True
349.788	0.3	Control	0.6215999999999999	0.0	No	2.684	0.0	2.0	NoResponse	0	3.722	n/a	4	36	ButtonPress	Neutral	True
350.064	0.32	Control	0.6215999999999999	0.002	No	2.684	-0.002	n/a	NoResponse	0	n/a	n/a	4	36	Target	Neutral	True
350.398	0.38	Control	0.6215999999999999	n/a	No	2.684	n/a	n/a	NoResponse	0	n/a	n/a	4	36	Blank	Neutral	True
350.764	1.45	Control	0.6215999999999999	n/a	No	2.684	n/a	5.0	NoResponse	0	0.037	349.801	4	36	Feedback	Neutral	True
352.214	2.684	Control	0.6215999999999999	n/a	No	2.684	n/a	n/a	NoResponse	0	0.0	n/a	4	36	ISIslide	Neutral	True
354.913	0.25	Win2	0.6315999999999999	0.0	Yes	2.887	0.013	n/a	GoodResponse	1	n/a	n/a	5	37	Cue	Win	False
355.163	4.0	Win2	0.6315999999999999	0.0	Yes	2.887	0.0	2.0	GoodResponse	1	3.797	357.96	5	37	Fixation	Win	False
358.96	0.3	Win2	0.6315999999999999	0.0	Yes	2.887	0.0	2.0	GoodResponse	1	3.797	n/a	5	37	ButtonPress	Win	False
359.161	0.33	Win2	0.6315999999999999	0.002	Yes	2.887	-0.002	2.0	GoodResponse	1	0.195	358.356	5	37	Target	Win	False
359.356	0.3	Win2	0.6315999999999999	0.002	Yes	2.887	-0.002	2.0	GoodResponse	1	0.195	n/a	5	37	ButtonPress	Win	False
359.494	0.37	Win2	0.6315999999999999	n/a	Yes	2.887	n/a	n/a	GoodResponse	1	n/a	n/a	5	37	Blank	Win	False
359.861	1.45	Win2	0.6315999999999999	n/a	Yes	2.887	n/a	5.0	GoodResponse	1	0.013	358.874	5	37	Feedback	Win	False
361.31	2.887	Win2	0.6315999999999999	n/a	Yes	2.887	n/a	n/a	GoodResponse	1	0.0	n/a	5	37	ISIslide	Win	False
364.226	0.25	Lose2	0.6409999999999999	0.0	Yes	2.824	0.026	n/a	GoodResponse	0	n/a	n/a	5	38	Cue	AvoidedLoss	True
364.476	3.95	Lose2	0.6409999999999999	0.0	Yes	2.824	0.0	n/a	GoodResponse	0	n/a	n/a	5	38	Fixation	AvoidedLoss	True
368.425	0.34	Lose2	0.6409999999999999	0.001	Yes	2.824	-0.001	2.0	GoodResponse	0	0.212	367.637	5	38	Target	AvoidedLoss	True
368.637	0.3	Lose2	0.6409999999999999	0.001	Yes	2.824	-0.001	2.0	GoodResponse	0	0.212	n/a	5	38	ButtonPress	AvoidedLoss	True
368.775	0.36	Lose2	0.6409999999999999	n/a	Yes	2.824	n/a	n/a	GoodResponse	0	n/a	n/a	5	38	Blank	AvoidedLoss	True
369.124	1.45	Lose2	0.6409999999999999	n/a	Yes	2.824	n/a	5.0	GoodResponse	0	0.019	368.143	5	38	Feedback	AvoidedLoss	True
370.574	2.824	Lose2	0.6409999999999999	n/a	Yes	2.824	n/a	n/a	GoodResponse	0	0.0	n/a	5	38	ISIslide	AvoidedLoss	True
373.423	0.25	Win2	0.65	0.0	Yes	2.977	0.023	n/a	GoodResponse	1	n/a	n/a	6	39	Cue	Win	True
373.673	4.1	Win2	0.65	0.0	Yes	2.977	0.0	n/a	GoodResponse	1	n/a	n/a	6	39	Fixation	Win	True
377.771	0.35	Win2	0.65	0.002	Yes	2.977	-0.002	2.0	GoodResponse	1	0.198	376.969	6	39	Target	Win	True
377.969	0.3	Win2	0.65	0.002	Yes	2.977	-0.002	2.0	GoodResponse	1	0.198	n/a	6	39	ButtonPress	Win	True
378.121	0.35	Win2	0.65	n/a	Yes	2.977	n/a	n/a	GoodResponse	1	n/a	n/a	6	39	Blank	Win	True
378.471	1.45	Win2	0.65	n/a	Yes	2.977	n/a	5.0	GoodResponse	1	0.037	377.508	6	39	Feedback	Win	True
379.921	2.977	Win2	0.65	n/a	Yes	2.977	n/a	n/a	GoodResponse	1	0.0	n/a	6	39	ISIslide	Win	True
382.92	0.25	Win2	0.6585	0.0	Yes	2.73	0.02	n/a	GoodResponse	1	n/a	n/a	7	40	Cue	Win	True
383.169	3.95	Win2	0.6585	0.001	Yes	2.73	-0.001	n/a	GoodResponse	1	n/a	n/a	7	40	Fixation	Win	True
387.118	0.36	Win2	0.6585	0.002	Yes	2.73	-0.002	2.0	GoodResponse	1	0.208	386.326	7	40	Target	Win	True
387.326	0.3	Win2	0.6585	0.002	Yes	2.73	-0.002	2.0	GoodResponse	1	0.208	n/a	7	40	ButtonPress	Win	True
387.485	0.34	Win2	0.6585	n/a	Yes	2.73	n/a	n/a	GoodResponse	1	n/a	n/a	7	40	Blank	Win	True
387.818	1.45	Win2	0.6585	n/a	Yes	2.73	n/a	5.0	GoodResponse	1	0.007	386.825	7	40	Feedback	Win	True
389.267	2.73	Win2	0.6585	n/a	Yes	2.73	n/a	n/a	GoodResponse	1	0.0	n/a	7	40	ISIslide	Win	True
392.016	0.25	Win2	0.6429	0.0	No	2.784	0.016	n/a	NoResponse	0	n/a	n/a	7	41	Cue	MissedWin	True
392.266	3.9	Win2	0.6429	0.0	No	2.784	0.0	2.0	NoResponse	0	3.845	395.111	7	41	Fixation	MissedWin	True
396.111	0.3	Win2	0.6429	0.0	No	2.784	0.0	2.0	NoResponse	0	3.845	n/a	7	41	ButtonPress	MissedWin	True
396.165	0.36	Win2	0.6429	0.001	No	2.784	-0.001	n/a	NoResponse	0	n/a	n/a	7	41	Target	MissedWin	True
396.531	0.34	Win2	0.6429	n/a	No	2.784	n/a	n/a	NoResponse	0	n/a	n/a	7	41	Blank	MissedWin	True
396.865	1.45	Win2	0.6429	n/a	No	2.784	n/a	5.0	NoResponse	0	0.033	395.898	7	41	Feedback	MissedWin	True
398.314	2.784	Win2	0.6429	n/a	No	2.784	n/a	n/a	NoResponse	0	0.0	n/a	7	41	ISIslide	MissedWin	True
401.113	0.25	Control	0.6512	0.0	Yes	2.937	0.013	n/a	GoodResponse	0	n/a	n/a	7	42	Cue	Neutral	True
401.363	3.85	Control	0.6512	0.0	Yes	2.937	0.0	n/a	GoodResponse	0	n/a	n/a	7	42	Fixation	Neutral	True
405.212	0.37	Control	0.6512	0.001	Yes	2.937	-0.001	2.0	GoodResponse	0	0.232	404.444	7	42	Target	Neutral	True
405.444	0.3	Control	0.6512	0.001	Yes	2.937	-0.001	2.0	GoodResponse	0	0.232	n/a	7	42	ButtonPress	Neutral	True
405.595	0.33	Control	0.6512	n/a	Yes	2.937	n/a	n/a	GoodResponse	0	n/a	n/a	7	42	Blank	Neutral	True
405.911	1.45	Control	0.6512	n/a	Yes	2.937	n/a	5.0	GoodResponse	0	0.012	404.923	7	42	Feedback	Neutral	True
407.361	2.937	Control	0.6512	n/a	Yes	2.937	n/a	n/a	GoodResponse	0	0.0	n/a	7	42	ISIslide	Neutral	True
410.327	0.25	Win2	0.6591	0.0	Yes	3.173	0.027	n/a	GoodResponse	1	n/a	n/a	8	43	Cue	Win	True
410.576	4.0	Win2	0.6591	0.001	Yes	3.173	-0.001	n/a	GoodResponse	1	n/a	n/a	8	43	Fixation	Win	True
414.575	0.38	Win2	0.6591	0.002	Yes	3.173	-0.002	2.0	GoodResponse	1	0.23	413.805	8	43	Target	Win	True
414.805	0.3	Win2	0.6591	0.002	Yes	3.173	-0.002	2.0	GoodResponse	1	0.23	n/a	8	43	ButtonPress	Win	True
414.958	0.32	Win2	0.6591	n/a	Yes	3.173	n/a	n/a	GoodResponse	1	n/a	n/a	8	43	Blank	Win	True
415.275	1.45	Win2	0.6591	n/a	Yes	3.173	n/a	5.0	GoodResponse	1	0.014	414.289	8	43	Feedback	Win	True
416.724	3.173	Win2	0.6591	n/a	Yes	3.173	n/a	n/a	GoodResponse	1	0.0	n/a	8	43	ISIslide	Win	True
419.923	0.25	Win2	0.6667000000000001	0.0	Yes	2.977	0.023	n/a	GoodResponse	1	n/a	n/a	9	44	Cue	Win	True
420.173	4.0	Win2	0.6667000000000001	0.0	Yes	2.977	0.0	n/a	GoodResponse	1	n/a	n/a	9	44	Fixation	Win	True
424.172	0.38	Win2	0.6667000000000001	0.001	Yes	2.977	-0.001	2.0	GoodResponse	1	0.274	423.446	9	44	Target	Win	True
424.446	0.3	Win2	0.6667000000000001	0.001	Yes	2.977	-0.001	2.0	GoodResponse	1	0.274	n/a	9	44	ButtonPress	Win	True
424.555	0.32	Win2	0.6667000000000001	n/a	Yes	2.977	n/a	n/a	GoodResponse	1	n/a	n/a	9	44	Blank	Win	True
424.871	1.45	Win2	0.6667000000000001	n/a	Yes	2.977	n/a	5.0	GoodResponse	1	0.027	423.898	9	44	Feedback	Win	True
426.321	2.977	Win2	0.6667000000000001	n/a	Yes	2.977	n/a	n/a	GoodResponse	1	0.0	n/a	9	44	ISIslide	Win	True
429.32	0.25	Control	0.6739	0.0	Yes	2.88	0.02	n/a	GoodResponse	0	n/a	n/a	9	45	Cue	Neutral	True
429.57	4.1	Control	0.6739	0.0	Yes	2.88	0.0	n/a	GoodResponse	0	n/a	n/a	9	45	Fixation	Neutral	True
433.668	0.37	Control	0.6739	0.002	Yes	2.88	-0.002	2.0	GoodResponse	0	0.231	432.899	9	45	Target	Neutral	True
433.899	0.3	Control	0.6739	0.002	Yes	2.88	-0.002	2.0	GoodResponse	0	0.231	n/a	9	45	ButtonPress	Neutral	True
434.052	0.33	Control	0.6739	n/a	Yes	2.88	n/a	n/a	GoodResponse	0	n/a	n/a	9	45	Blank	Neutral	True
434.368	1.45	Control	0.6739	n/a	Yes	2.88	n/a	5.0	GoodResponse	0	0.042	433.41	9	45	Feedback	Neutral	True
435.818	2.88	Control	0.6739	n/a	Yes	2.88	n/a	n/a	GoodResponse	0	0.0	n/a	9	45	ISIslide	Neutral	True
438.717	0.25	Lose2	0.6809000000000001	0.0	Yes	3.383	0.017	n/a	GoodResponse	0	n/a	n/a	9	46	Cue	AvoidedLoss	True
438.966	4.0	Lose2	0.6809000000000001	0.001	Yes	3.383	-0.001	n/a	GoodResponse	0	n/a	n/a	9	46	Fixation	AvoidedLoss	True
442.965	0.36	Lose2	0.6809000000000001	0.002	Yes	3.383	-0.002	2.0	GoodResponse	0	0.225	442.19	9	46	Target	AvoidedLoss	True
443.19	0.3	Lose2	0.6809000000000001	0.002	Yes	3.383	-0.002	2.0	GoodResponse	0	0.225	n/a	9	46	ButtonPress	AvoidedLoss	True
443.332	0.34	Lose2	0.6809000000000001	n/a	Yes	3.383	n/a	n/a	GoodResponse	0	n/a	n/a	9	46	Blank	AvoidedLoss	True
443.665	1.45	Lose2	0.6809000000000001	n/a	Yes	3.383	n/a	5.0	GoodResponse	0	0.013	442.678	9	46	Feedback	AvoidedLoss	True
445.114	3.383	Lose2	0.6809000000000001	n/a	Yes	3.383	n/a	n/a	GoodResponse	0	0.0	n/a	9	46	ISIslide	AvoidedLoss	True
448.53	0.25	Lose2	0.6875	0.0	Yes	2.67	0.03	n/a	GoodResponse	0	n/a	n/a	9	47	Cue	AvoidedLoss	True
448.78	4.0	Lose2	0.6875	0.0	Yes	2.67	0.0	n/a	GoodResponse	0	n/a	n/a	9	47	Fixation	AvoidedLoss	True
452.778	0.35	Lose2	0.6875	0.002	Yes	2.67	-0.002	2.0	GoodResponse	0	0.17	451.948	9	47	Target	AvoidedLoss	True
452.948	0.3	Lose2	0.6875	0.002	Yes	2.67	-0.002	2.0	GoodResponse	0	0.17	n/a	9	47	ButtonPress	AvoidedLoss	True
453.128	0.35	Lose2	0.6875	n/a	Yes	2.67	n/a	n/a	GoodResponse	0	n/a	n/a	9	47	Blank	AvoidedLoss	True
453.478	1.45	Lose2	0.6875	n/a	Yes	2.67	n/a	5.0	GoodResponse	0	0.005	452.483	9	47	Feedback	AvoidedLoss	True
454.928	2.67	Lose2	0.6875	n/a	Yes	2.67	n/a	n/a	GoodResponse	0	0.0	n/a	9	47	ISIslide	AvoidedLoss	True
457.627	0.25	Lose2	0.6939	0.0	Yes	3.023	0.027	n/a	GoodResponse	0	n/a	n/a	9	48	Cue	AvoidedLoss	True
457.876	3.95	Lose2	0.6939	0.001	Yes	3.023	-0.001	n/a	GoodResponse	0	n/a	n/a	9	48	Fixation	AvoidedLoss	True
461.825	0.34	Lose2	0.6939	0.002	Yes	3.023	-0.002	2.0	GoodResponse	0	0.213	461.038	9	48	Target	AvoidedLoss	True
462.038	0.3	Lose2	0.6939	0.002	Yes	3.023	-0.002	2.0	GoodResponse	0	0.213	n/a	9	48	ButtonPress	AvoidedLoss	True
462.175	0.36	Lose2	0.6939	n/a	Yes	3.023	n/a	n/a	GoodResponse	0	n/a	n/a	9	48	Blank	AvoidedLoss	True
462.525	1.45	Lose2	0.6939	n/a	Yes	3.023	n/a	5.0	GoodResponse	0	0.031	461.556	9	48	Feedback	AvoidedLoss	True
463.974	3.023	Lose2	0.6939	n/a	Yes	3.023	n/a	n/a	GoodResponse	0	0.0	n/a	9	48	ISIslide	AvoidedLoss	True
467.023	0.25	Control	0.7	0.0	Yes	2.877	0.023	n/a	GoodResponse	0	n/a	n/a	9	49	Cue	Neutral	True
467.273	4.0	Control	0.7	0.0	Yes	2.877	0.0	n/a	GoodResponse	0	n/a	n/a	9	49	Fixation	Neutral	True
471.272	0.33	Control	0.7	0.001	Yes	2.877	-0.001	2.0	GoodResponse	0	0.226	470.498	9	49	Target	Neutral	True
471.498	0.3	Control	0.7	0.001	Yes	2.877	-0.001	2.0	GoodResponse	0	0.226	n/a	9	49	ButtonPress	Neutral	True
471.605	0.37	Control	0.7	n/a	Yes	2.877	n/a	n/a	GoodResponse	0	n/a	n/a	9	49	Blank	Neutral	True
471.972	1.45	Control	0.7	n/a	Yes	2.877	n/a	5.0	GoodResponse	0	0.047	471.019	9	49	Feedback	Neutral	True
473.421	2.877	Control	0.7	n/a	Yes	2.877	n/a	n/a	GoodResponse	0	0.0	n/a	9	49	ISIslide	Neutral	True
476.32	0.25	Control	0.7059000000000001	0.0	Yes	2.78	0.02	n/a	GoodResponse	0	n/a	n/a	9	50	Cue	Neutral	True
476.57	4.0	Control	0.7059000000000001	0.0	Yes	2.78	0.0	n/a	GoodResponse	0	n/a	n/a	9	50	Fixation	Neutral	True
480.568	0.32	Control	0.7059000000000001	0.002	Yes	2.78	-0.002	2.0	GoodResponse	0	0.216	479.784	9	50	Target	Neutral	True
480.784	0.3	Control	0.7059000000000001	0.002	Yes	2.78	-0.002	2.0	GoodResponse	0	0.216	n/a	9	50	ButtonPress	Neutral	True
480.902	0.38	Control	0.7059000000000001	n/a	Yes	2.78	n/a	n/a	GoodResponse	0	n/a	n/a	9	50	Blank	Neutral	True
481.268	1.45	Control	0.7059000000000001	n/a	Yes	2.78	n/a	5.0	GoodResponse	0	0.02	480.288	9	50	Feedback	Neutral	True
482.718	2.78	Control	0.7059000000000001	n/a	Yes	2.78	n/a	n/a	GoodResponse	0	0.0	n/a	9	50	ISIslide	Neutral	True
485.517	0.25	Control	0.7115	0.0	Yes	2.733	0.017	n/a	GoodResponse	0	n/a	n/a	9	51	Cue	Neutral	True
485.767	3.95	Control	0.7115	0.0	Yes	2.733	0.0	n/a	GoodResponse	0	n/a	n/a	9	51	Fixation	Neutral	True
489.715	0.31	Control	0.7115	0.002	Yes	2.733	-0.002	2.0	GoodResponse	0	0.199	488.914	9	51	Target	Neutral	True
489.914	0.3	Control	0.7115	0.002	Yes	2.733	-0.002	2.0	GoodResponse	0	0.199	n/a	9	51	ButtonPress	Neutral	True
490.032	0.39	Control	0.7115	n/a	Yes	2.733	n/a	n/a	GoodResponse	0	n/a	n/a	9	51	Blank	Neutral	True
490.415	1.45	Control	0.7115	n/a	Yes	2.733	n/a	5.0	GoodResponse	0	0.043	489.458	9	51	Feedback	Neutral	True
491.865	2.733	Control	0.7115	n/a	Yes	2.733	n/a	n/a	GoodResponse	0	0.0	n/a	9	51	ISIslide	Neutral	True
494.614	0.25	Control	0.7170000000000001	0.0	Yes	2.636	0.014	n/a	GoodResponse	0	n/a	n/a	9	52	Cue	Neutral	True
494.863	4.05	Control	0.7170000000000001	0.001	Yes	2.636	-0.001	n/a	GoodResponse	0	n/a	n/a	9	52	Fixation	Neutral	True
498.912	0.3	Control	0.7170000000000001	0.002	Yes	2.636	-0.002	2.0	GoodResponse	0	0.187	498.099	9	52	Target	Neutral	True
499.099	0.3	Control	0.7170000000000001	0.002	Yes	2.636	-0.002	2.0	GoodResponse	0	0.187	n/a	9	52	ButtonPress	Neutral	True
499.212	0.4	Control	0.7170000000000001	n/a	Yes	2.636	n/a	n/a	GoodResponse	0	n/a	n/a	9	52	Blank	Neutral	True
499.612	1.45	Control	0.7170000000000001	n/a	Yes	2.636	n/a	5.0	GoodResponse	0	0.017	498.629	9	52	Feedback	Neutral	True
501.061	2.636	Control	0.7170000000000001	n/a	Yes	2.636	n/a	n/a	GoodResponse	0	0.0	n/a	9	52	ISIslide	Neutral	True
503.71	0.25	Win2	0.7222	0.0	Yes	2.94	0.01	n/a	GoodResponse	1	n/a	n/a	10	53	Cue	Win	True
503.96	4.05	Win2	0.7222	0.0	Yes	2.94	0.0	n/a	GoodResponse	1	n/a	n/a	10	53	Fixation	Win	True
508.009	0.29	Win2	0.7222	0.001	Yes	2.94	-0.001	2.0	GoodResponse	1	0.159	507.168	10	53	Target	Win	True
508.168	0.3	Win2	0.7222	0.001	Yes	2.94	-0.001	2.0	GoodResponse	1	0.159	n/a	10	53	ButtonPress	Win	True
508.309	0.41	Win2	0.7222	n/a	Yes	2.94	n/a	n/a	GoodResponse	1	n/a	n/a	10	53	Blank	Win	True
508.709	1.45	Win2	0.7222	n/a	Yes	2.94	n/a	5.0	GoodResponse	1	0.041	507.75	10	53	Feedback	Win	True
510.158	2.94	Win2	0.7222	n/a	Yes	2.94	n/a	n/a	GoodResponse	1	0.0	n/a	10	53	ISIslide	Win	True
513.124	0.25	Win2	0.7273000000000001	0.0	Yes	2.726	0.024	n/a	GoodResponse	1	n/a	n/a	11	54	Cue	Win	True
513.374	3.95	Win2	0.7273000000000001	0.0	Yes	2.726	0.0	n/a	GoodResponse	1	n/a	n/a	11	54	Fixation	Win	True
517.322	0.28	Win2	0.7273000000000001	0.002	Yes	2.726	-0.002	2.0	GoodResponse	1	0.215	516.537	11	54	Target	Win	True
517.537	0.3	Win2	0.7273000000000001	0.002	Yes	2.726	-0.002	2.0	GoodResponse	1	0.215	n/a	11	54	ButtonPress	Win	True
517.605	0.42	Win2	0.7273000000000001	n/a	Yes	2.726	n/a	n/a	GoodResponse	1	n/a	n/a	11	54	Blank	Win	True
518.022	1.45	Win2	0.7273000000000001	n/a	Yes	2.726	n/a	5.0	GoodResponse	1	0.046	517.068	11	54	Feedback	Win	True
519.471	2.726	Win2	0.7273000000000001	n/a	Yes	2.726	n/a	n/a	GoodResponse	1	0.0	n/a	11	54	ISIslide	Win	True
522.22	0.25	Control	0.7321	0.001	Yes	3.03	0.02	n/a	GoodResponse	0	n/a	n/a	11	55	Cue	Neutral	True
522.47	3.95	Control	0.7321	0.0	Yes	3.03	0.0	n/a	GoodResponse	0	n/a	n/a	11	55	Fixation	Neutral	True
526.419	0.27	Control	0.7321	0.001	Yes	3.03	-0.001	2.0	GoodResponse	0	0.216	525.635	11	55	Target	Neutral	True
526.635	0.3	Control	0.7321	0.001	Yes	3.03	-0.001	2.0	GoodResponse	0	0.216	n/a	11	55	ButtonPress	Neutral	True
526.686	0.43	Control	0.7321	n/a	Yes	3.03	n/a	n/a	GoodResponse	0	n/a	n/a	11	55	Blank	Neutral	True
527.119	1.45	Control	0.7321	n/a	Yes	3.03	n/a	5.0	GoodResponse	0	0.022	526.141	11	55	Feedback	Neutral	True
528.568	3.03	Control	0.7321	n/a	Yes	3.03	n/a	n/a	GoodResponse	0	0.0	n/a	11	55	ISIslide	Neutral	True
531.617	0.25	Control	0.7193	0.0	No	2.833	0.017	n/a	NoResponse	0	n/a	n/a	11	56	Cue	Neutral	True
531.867	3.95	Control	0.7193	0.0	No	2.833	0.0	n/a	NoResponse	0	n/a	n/a	11	56	Fixation	Neutral	True
535.816	0.26	Control	0.7193	0.001	No	2.833	-0.001	2.0	NoResponse	0	0.283	535.099	11	56	Target	Neutral	True
536.082	0.44	Control	0.7193	n/a	No	2.833	n/a	n/a	NoResponse	0	n/a	n/a	11	56	Blank	Neutral	True
536.099	0.3	Control	0.7193	0.001	No	2.833	-0.001	2.0	NoResponse	0	0.283	n/a	11	56	ButtonPress	Neutral	True
536.515	1.45	Control	0.7193	n/a	No	2.833	n/a	5.0	NoResponse	0	0.041	535.556	11	56	Feedback	Neutral	True
537.965	2.833	Control	0.7193	n/a	No	2.833	n/a	n/a	NoResponse	0	0.0	n/a	11	56	ISIslide	Neutral	True
540.814	0.25	Control	0.7241	0.0	Yes	3.486	0.014	n/a	GoodResponse	0	n/a	n/a	11	57	Cue	Neutral	True
541.064	4.0	Control	0.7241	0.0	Yes	3.486	0.0	n/a	GoodResponse	0	n/a	n/a	11	57	Fixation	Neutral	True
545.062	0.25	Control	0.7241	0.002	Yes	3.486	-0.002	2.0	GoodResponse	0	0.219	544.281	11	57	Target	Neutral	True
545.281	0.3	Control	0.7241	0.002	Yes	3.486	-0.002	2.0	GoodResponse	0	0.219	n/a	11	57	ButtonPress	Neutral	True
545.312	0.45	Control	0.7241	n/a	Yes	3.486	n/a	n/a	GoodResponse	0	n/a	n/a	11	57	Blank	Neutral	True
545.762	1.45	Control	0.7241	n/a	Yes	3.486	n/a	5.0	GoodResponse	0	0.012	544.774	11	57	Feedback	Neutral	True
547.212	3.486	Control	0.7241	n/a	Yes	3.486	n/a	n/a	GoodResponse	0	0.0	n/a	11	57	ISIslide	Neutral	True
550.727	0.25	Win2	0.7119	0.0	No	2.723	0.027	n/a	NoResponse	0	n/a	n/a	11	58	Cue	MissedWin	False
550.977	4.05	Win2	0.7119	0.0	No	2.723	0.0	2.0	NoResponse	0	3.934	553.911	11	58	Fixation	MissedWin	False
554.911	0.3	Win2	0.7119	0.0	No	2.723	0.0	2.0	NoResponse	0	3.934	n/a	11	58	ButtonPress	MissedWin	False
555.026	0.24	Win2	0.7119	0.001	No	2.723	-0.001	2.0	NoResponse	0	0.355	554.381	11	58	Target	MissedWin	False
555.275	0.46	Win2	0.7119	n/a	No	2.723	n/a	n/a	NoResponse	0	n/a	n/a	11	58	Blank	MissedWin	False
555.381	0.3	Win2	0.7119	0.001	No	2.723	-0.001	2.0	NoResponse	0	0.355	n/a	11	58	ButtonPress	MissedWin	False
555.725	1.45	Win2	0.7119	n/a	No	2.723	n/a	5.0	NoResponse	0	0.049	554.774	11	58	Feedback	MissedWin	False
557.175	2.723	Win2	0.7119	n/a	No	2.723	n/a	n/a	NoResponse	0	0.0	n/a	11	58	ISIslide	MissedWin	False
559.924	0.25	Lose2	0.7167	0.0	Yes	2.676	0.024	n/a	GoodResponse	0	n/a	n/a	11	59	Cue	AvoidedLoss	True
560.174	4.0	Lose2	0.7167	0.0	Yes	2.676	0.0	n/a	GoodResponse	0	n/a	n/a	11	59	Fixation	AvoidedLoss	True
564.172	0.23	Lose2	0.7167	0.002	Yes	2.676	-0.002	2.0	GoodResponse	0	0.185	563.357	11	59	Target	AvoidedLoss	True
564.357	0.3	Lose2	0.7167	0.002	Yes	2.676	-0.002	2.0	GoodResponse	0	0.185	n/a	11	59	ButtonPress	AvoidedLoss	True
564.406	0.47	Lose2	0.7167	n/a	Yes	2.676	n/a	n/a	GoodResponse	0	n/a	n/a	11	59	Blank	AvoidedLoss	True
564.872	1.45	Lose2	0.7167	n/a	Yes	2.676	n/a	5.0	GoodResponse	0	0.024	563.896	11	59	Feedback	AvoidedLoss	True
566.322	2.676	Lose2	0.7167	n/a	Yes	2.676	n/a	n/a	GoodResponse	0	0.0	n/a	11	59	ISIslide	AvoidedLoss	True
569.021	0.25	Control	0.7049	0.0	No	2.679	0.021	n/a	NoResponse	0	n/a	n/a	11	60	Cue	Neutral	True
569.271	4.0	Control	0.7049	0.0	No	2.679	0.0	n/a	NoResponse	0	n/a	n/a	11	60	Fixation	Neutral	True
573.269	0.22	Control	0.7049	0.002	No	2.679	-0.002	2.0	NoResponse	0	0.246	572.515	11	60	Target	Neutral	True
573.502	0.48	Control	0.7049	n/a	No	2.679	n/a	n/a	NoResponse	0	n/a	n/a	11	60	Blank	Neutral	True
573.515	0.3	Control	0.7049	0.002	No	2.679	-0.002	2.0	NoResponse	0	0.246	n/a	11	60	ButtonPress	Neutral	True
573.969	1.45	Control	0.7049	n/a	No	2.679	n/a	5.0	NoResponse	0	0.001	572.97	11	60	Feedback	Neutral	True
575.418	2.679	Control	0.7049	n/a	No	2.679	n/a	n/a	NoResponse	0	0.0	n/a	11	60	ISIslide	Neutral	True
578.117	0.25	Lose2	0.7097	0.001	Yes	2.983	0.017	n/a	GoodResponse	0	n/a	n/a	11	61	Cue	AvoidedLoss	True
578.367	4.0	Lose2	0.7097	0.0	Yes	2.983	0.0	n/a	GoodResponse	0	n/a	n/a	11	61	Fixation	AvoidedLoss	True
582.366	0.21	Lose2	0.7097	0.001	Yes	2.983	-0.001	2.0	GoodResponse	0	0.195	581.561	11	61	Target	AvoidedLoss	True
582.561	0.3	Lose2	0.7097	0.001	Yes	2.983	-0.001	2.0	GoodResponse	0	0.195	n/a	11	61	ButtonPress	AvoidedLoss	True
582.583	0.49	Lose2	0.7097	n/a	Yes	2.983	n/a	n/a	GoodResponse	0	n/a	n/a	11	61	Blank	AvoidedLoss	True
583.066	1.45	Lose2	0.7097	n/a	Yes	2.983	n/a	5.0	GoodResponse	0	0.026	582.092	11	61	Feedback	AvoidedLoss	True
584.515	2.983	Lose2	0.7097	n/a	Yes	2.983	n/a	n/a	GoodResponse	0	0.0	n/a	11	61	ISIslide	AvoidedLoss	True
587.514	0.25	Lose2	0.7143	0.0	Yes	2.886	0.014	n/a	GoodResponse	0	n/a	n/a	11	62	Cue	AvoidedLoss	True
587.764	3.9	Lose2	0.7143	0.0	Yes	2.886	0.0	n/a	GoodResponse	0	n/a	n/a	11	62	Fixation	AvoidedLoss	True
591.663	0.2	Lose2	0.7143	0.001	Yes	2.886	-0.001	2.0	GoodResponse	0	0.186	590.849	11	62	Target	AvoidedLoss	True
591.849	0.3	Lose2	0.7143	0.001	Yes	2.886	-0.001	2.0	GoodResponse	0	0.186	n/a	11	62	ButtonPress	AvoidedLoss	True
591.863	0.5	Lose2	0.7143	n/a	Yes	2.886	n/a	n/a	GoodResponse	0	n/a	n/a	11	62	Blank	AvoidedLoss	True
592.362	1.45	Lose2	0.7143	n/a	Yes	2.886	n/a	5.0	GoodResponse	0	0.046	591.408	11	62	Feedback	AvoidedLoss	True
593.812	2.886	Lose2	0.7143	n/a	Yes	2.886	n/a	n/a	GoodResponse	0	0.0	n/a	11	62	ISIslide	AvoidedLoss	True
596.728	0.25	Lose2	0.7031000000000001	0.0	No	2.622	0.028	n/a	NoResponse	-1	n/a	n/a	10	63	Cue	Loss	True
596.977	4.05	Lose2	0.7031000000000001	0.001	No	2.622	-0.001	n/a	NoResponse	-1	n/a	n/a	10	63	Fixation	Loss	True
601.026	0.19	Lose2	0.7031000000000001	0.002	No	2.622	-0.002	2.0	NoResponse	-1	0.213	600.239	10	63	Target	Loss	True
601.226	0.51	Lose2	0.7031000000000001	n/a	No	2.622	n/a	n/a	NoResponse	-1	n/a	n/a	10	63	Blank	Loss	True
601.239	0.3	Lose2	0.7031000000000001	0.002	No	2.622	-0.002	2.0	NoResponse	-1	0.213	n/a	10	63	ButtonPress	Loss	True
601.726	1.45	Lose2	0.7031000000000001	n/a	No	2.622	n/a	5.0	NoResponse	-1	0.048	600.774	10	63	Feedback	Loss	True
603.175	2.622	Lose2	0.7031000000000001	n/a	No	2.622	n/a	n/a	NoResponse	-1	0.0	n/a	10	63	ISIslide	Loss	True
605.824	0.25	Win2	0.6923	0.0	No	3.126	0.024	n/a	NoResponse	0	n/a	n/a	10	64	Cue	MissedWin	True
606.074	4.15	Win2	0.6923	0.0	No	3.126	0.0	n/a	NoResponse	0	n/a	n/a	10	64	Fixation	MissedWin	True
610.223	0.18	Win2	0.6923	0.001	No	3.126	-0.001	2.0	NoResponse	0	0.204	609.427	10	64	Target	MissedWin	True
610.406	0.52	Win2	0.6923	n/a	No	3.126	n/a	n/a	NoResponse	0	n/a	n/a	10	64	Blank	MissedWin	True
610.427	0.3	Win2	0.6923	0.001	No	3.126	-0.001	2.0	NoResponse	0	0.204	n/a	10	64	ButtonPress	MissedWin	True
610.923	1.45	Win2	0.6923	n/a	No	3.126	n/a	5.0	NoResponse	0	0.022	609.945	10	64	Feedback	MissedWin	True
612.372	3.126	Win2	0.6923	n/a	No	3.126	n/a	n/a	NoResponse	0	0.0	n/a	10	64	ISIslide	MissedWin	True
615.521	0.25	Control	0.6818000000000001	0.0	No	2.779	0.021	n/a	NoResponse	0	n/a	n/a	10	65	Cue	Neutral	True
615.771	4.0	Control	0.6818000000000001	0.0	No	2.779	0.0	n/a	NoResponse	0	n/a	n/a	10	65	Fixation	Neutral	True
619.769	0.17	Control	0.6818000000000001	0.002	No	2.779	-0.002	2.0	NoResponse	0	0.231	619.0	10	65	Target	Neutral	True
619.953	0.53	Control	0.6818000000000001	n/a	No	2.779	n/a	n/a	NoResponse	0	n/a	n/a	10	65	Blank	Neutral	True
620	0.3	Control	0.6818000000000001	0.002	No	2.779	-0.002	2.0	NoResponse	0	0.231	n/a	10	65	ButtonPress	Neutral	True
620.469	1.45	Control	0.6818000000000001	n/a	No	2.779	n/a	5.0	NoResponse	0	0.037	619.506	10	65	Feedback	Neutral	True
621.919	2.779	Control	0.6818000000000001	n/a	No	2.779	n/a	n/a	NoResponse	0	0.0	n/a	10	65	ISIslide	Neutral	True
624.718	0.25	Win2	0.6716	0.0	No	2.782	0.018	n/a	NoResponse	0	n/a	n/a	10	66	Cue	MissedWin	True
624.968	3.9	Win2	0.6716	0.0	No	2.782	0.0	n/a	NoResponse	0	n/a	n/a	10	66	Fixation	MissedWin	True
628.866	0.16	Win2	0.6716	0.002	No	2.782	-0.002	2.0	NoResponse	0	0.188	628.054	10	66	Target	MissedWin	True
629.033	0.54	Win2	0.6716	n/a	No	2.782	n/a	n/a	NoResponse	0	n/a	n/a	10	66	Blank	MissedWin	True
629.054	0.3	Win2	0.6716	0.002	No	2.782	-0.002	2.0	NoResponse	0	0.188	n/a	10	66	ButtonPress	MissedWin	True
629.566	1.45	Win2	0.6716	n/a	No	2.782	n/a	5.0	NoResponse	0	0.013	628.579	10	66	Feedback	MissedWin	True
631.015	2.782	Win2	0.6716	n/a	No	2.782	n/a	n/a	NoResponse	0	0.0	n/a	10	66	ISIslide	MissedWin	True
633.815	0.25	Control	0.6618	0.0	No	2.735	0.015	n/a	NoResponse	0	n/a	n/a	10	67	Cue	Neutral	True
634.064	3.95	Control	0.6618	0.001	No	2.735	-0.001	n/a	NoResponse	0	n/a	n/a	10	67	Fixation	Neutral	True
638.013	0.15	Control	0.6618	0.002	No	2.735	-0.002	2.0	NoResponse	0	0.197	637.21	10	67	Target	Neutral	True
638.163	0.55	Control	0.6618	n/a	No	2.735	n/a	n/a	NoResponse	0	n/a	n/a	10	67	Blank	Neutral	True
638.21	0.3	Control	0.6618	0.002	No	2.735	-0.002	2.0	NoResponse	0	0.197	n/a	10	67	ButtonPress	Neutral	True
638.713	1.45	Control	0.6618	n/a	No	2.735	n/a	5.0	NoResponse	0	0.036	637.749	10	67	Feedback	Neutral	True
640.162	2.735	Control	0.6618	n/a	No	2.735	n/a	n/a	NoResponse	0	0.0	n/a	10	67	ISIslide	Neutral	True
642.928	0.25	Win2	0.6522	0.0	No	3.072	0.028	n/a	NoResponse	0	n/a	n/a	10	68	Cue	MissedWin	True
643.178	4.0	Win2	0.6522	0.0	No	3.072	0.0	n/a	NoResponse	0	n/a	n/a	10	68	Fixation	MissedWin	True
647.176	0.15	Win2	0.6522	0.002	No	3.072	-0.002	2.0	NoResponse	0	0.212	646.388	10	68	Target	MissedWin	True
647.326	0.55	Win2	0.6522	n/a	No	3.072	n/a	n/a	NoResponse	0	n/a	n/a	10	68	Blank	MissedWin	True
647.388	0.3	Win2	0.6522	0.002	No	3.072	-0.002	2.0	NoResponse	0	0.212	n/a	10	68	ButtonPress	MissedWin	True
647.876	1.45	Win2	0.6522	n/a	No	3.072	n/a	5.0	NoResponse	0	0.044	646.92	10	68	Feedback	MissedWin	True
649.326	3.072	Win2	0.6522	n/a	No	3.072	n/a	n/a	NoResponse	0	0.0	n/a	10	68	ISIslide	MissedWin	True
652.425	0.25	Win2	0.6429	0.0	No	3.225	0.025	n/a	NoResponse	0	n/a	n/a	10	69	Cue	MissedWin	False
652.675	3.95	Win2	0.6429	0.0	No	3.225	0.0	2.0	NoResponse	0	3.138	654.813	10	69	Fixation	MissedWin	False
655.813	0.3	Win2	0.6429	0.0	No	3.225	0.0	2.0	NoResponse	0	3.138	n/a	10	69	ButtonPress	MissedWin	False
656.623	0.16	Win2	0.6429	0.002	No	3.225	-0.002	2.0	NoResponse	0	0.272	655.895	10	69	Target	MissedWin	False
656.79	0.54	Win2	0.6429	n/a	No	3.225	n/a	n/a	NoResponse	0	n/a	n/a	10	69	Blank	MissedWin	False
656.895	0.3	Win2	0.6429	0.002	No	3.225	-0.002	2.0	NoResponse	0	0.272	n/a	10	69	ButtonPress	MissedWin	False
657.323	1.45	Win2	0.6429	n/a	No	3.225	n/a	5.0	NoResponse	0	0.012	656.335	10	69	Feedback	MissedWin	False
658.772	3.225	Win2	0.6429	n/a	No	3.225	n/a	n/a	NoResponse	0	0.0	n/a	10	69	ISIslide	MissedWin	False
662.021	0.25	Lose2	0.6338	0.0	No	3.029	0.021	n/a	NoResponse	-1	n/a	n/a	9	70	Cue	Loss	False
662.271	4.05	Lose2	0.6338	0.0	No	3.029	0.0	2.0	NoResponse	-1	3.123	664.394	9	70	Fixation	Loss	False
665.394	0.3	Lose2	0.6338	0.0	No	3.029	0.0	2.0	NoResponse	-1	3.123	n/a	9	70	ButtonPress	Loss	False
666.32	0.17	Lose2	0.6338	0.001	No	3.029	-0.001	2.0	NoResponse	-1	0.211	665.531	9	70	Target	Loss	False
666.503	0.53	Lose2	0.6338	n/a	No	3.029	n/a	n/a	NoResponse	-1	n/a	n/a	9	70	Blank	Loss	False
666.531	0.3	Lose2	0.6338	0.001	No	3.029	-0.001	2.0	NoResponse	-1	0.211	n/a	9	70	ButtonPress	Loss	False
667.019	1.45	Lose2	0.6338	n/a	No	3.029	n/a	5.0	NoResponse	-1	0.023	666.042	9	70	Feedback	Loss	False
668.469	3.029	Lose2	0.6338	n/a	No	3.029	n/a	n/a	NoResponse	-1	0.0	n/a	9	70	ISIslide	Loss	False
671.518	0.25	Win2	0.625	0.0	No	2.732	0.018	n/a	NoResponse	0	n/a	n/a	9	71	Cue	MissedWin	True
671.768	4.05	Win2	0.625	0.0	No	2.732	0.0	2.0	NoResponse	0	3.023	673.791	9	71	Fixation	MissedWin	True
674.791	0.3	Win2	0.625	0.0	No	2.732	0.0	2.0	NoResponse	0	3.023	n/a	9	71	ButtonPress	MissedWin	True
675.816	0.18	Win2	0.625	0.002	No	2.732	-0.002	n/a	NoResponse	0	n/a	n/a	9	71	Target	MissedWin	True
676	0.52	Win2	0.625	n/a	No	2.732	n/a	n/a	NoResponse	0	n/a	n/a	9	71	Blank	MissedWin	True
676.516	1.45	Win2	0.625	n/a	No	2.732	n/a	5.0	NoResponse	0	0.037	675.553	9	71	Feedback	MissedWin	True
677.966	2.732	Win2	0.625	n/a	No	2.732	n/a	n/a	NoResponse	0	0.0	n/a	9	71	ISIslide	MissedWin	True
680.715	0.25	Win2	0.6164000000000001	0.0	No	2.785	0.015	n/a	NoResponse	0	n/a	n/a	9	72	Cue	MissedWin	True
680.965	4.1	Win2	0.6164000000000001	0.0	No	2.785	0.0	n/a	NoResponse	0	n/a	n/a	9	72	Fixation	MissedWin	True
685.063	0.19	Win2	0.6164000000000001	0.002	No	2.785	-0.002	2.0	NoResponse	0	0.218	684.281	9	72	Target	MissedWin	True
685.263	0.51	Win2	0.6164000000000001	n/a	No	2.785	n/a	n/a	NoResponse	0	n/a	n/a	9	72	Blank	MissedWin	True
685.281	0.3	Win2	0.6164000000000001	0.002	No	2.785	-0.002	2.0	NoResponse	0	0.218	n/a	9	72	ButtonPress	MissedWin	True
685.763	1.45	Win2	0.6164000000000001	n/a	No	2.785	n/a	5.0	NoResponse	0	0.01	684.773	9	72	Feedback	MissedWin	True
687.212	2.785	Win2	0.6164000000000001	n/a	No	2.785	n/a	n/a	NoResponse	0	0.0	n/a	9	72	ISIslide	MissedWin	True
690.028	0.25	Win2	0.6215999999999999	0.0	Yes	2.672	0.028	n/a	GoodResponse	1	n/a	n/a	10	73	Cue	Win	True
690.278	4.0	Win2	0.6215999999999999	0.0	Yes	2.672	0.0	n/a	GoodResponse	1	n/a	n/a	10	73	Fixation	Win	True
694.277	0.2	Win2	0.6215999999999999	0.001	Yes	2.672	-0.001	2.0	GoodResponse	1	0.16	693.437	10	73	Target	Win	True
694.437	0.3	Win2	0.6215999999999999	0.001	Yes	2.672	-0.001	2.0	GoodResponse	1	0.16	n/a	10	73	ButtonPress	Win	True
694.476	0.5	Win2	0.6215999999999999	n/a	Yes	2.672	n/a	n/a	GoodResponse	1	n/a	n/a	10	73	Blank	Win	True
694.976	1.45	Win2	0.6215999999999999	n/a	Yes	2.672	n/a	5.0	GoodResponse	1	0.017	693.993	10	73	Feedback	Win	True
696.426	2.672	Win2	0.6215999999999999	n/a	Yes	2.672	n/a	n/a	GoodResponse	1	0.0	n/a	10	73	ISIslide	Win	True
699.125	0.25	Lose2	0.6267	0.0	Yes	2.625	0.025	n/a	GoodResponse	0	n/a	n/a	10	74	Cue	AvoidedLoss	True
699.375	4.05	Lose2	0.6267	0.0	Yes	2.625	0.0	n/a	GoodResponse	0	n/a	n/a	10	74	Fixation	AvoidedLoss	True
703.423	0.21	Lose2	0.6267	0.002	Yes	2.625	-0.002	2.0	GoodResponse	0	0.2	702.623	10	74	Target	AvoidedLoss	True
703.623	0.3	Lose2	0.6267	0.002	Yes	2.625	-0.002	2.0	GoodResponse	0	0.2	n/a	10	74	ButtonPress	AvoidedLoss	True
703.64	0.49	Lose2	0.6267	n/a	Yes	2.625	n/a	n/a	GoodResponse	0	n/a	n/a	10	74	Blank	AvoidedLoss	True
704.123	1.45	Lose2	0.6267	n/a	Yes	2.625	n/a	5.0	GoodResponse	0	0.04	703.163	10	74	Feedback	AvoidedLoss	True
705.573	2.625	Lose2	0.6267	n/a	Yes	2.625	n/a	n/a	GoodResponse	0	0.0	n/a	10	74	ISIslide	AvoidedLoss	True
708.222	0.25	Lose2	0.6184000000000001	0.0	No	2.928	0.022	n/a	LatePress	-1	n/a	n/a	9	75	Cue	Loss	True
708.472	3.95	Lose2	0.6184000000000001	0.0	No	2.928	0.0	n/a	LatePress	-1	n/a	n/a	9	75	Fixation	Loss	True
712.42	0.22	Lose2	0.6184000000000001	0.002	No	2.928	-0.002	2.0	LatePress	-1	0.232	711.652	9	75	Target	Loss	True
712.652	0.3	Lose2	0.6184000000000001	0.002	No	2.928	-0.002	2.0	LatePress	-1	0.232	n/a	9	75	ButtonPress	Loss	True
712.653	0.48	Lose2	0.6184000000000001	n/a	No	2.928	n/a	n/a	LatePress	-1	n/a	n/a	9	75	Blank	Loss	True
713.12	1.45	Lose2	0.6184000000000001	n/a	No	2.928	n/a	5.0	LatePress	-1	0.019	712.139	9	75	Feedback	Loss	True
714.569	2.928	Lose2	0.6184000000000001	n/a	No	2.928	n/a	n/a	LatePress	-1	0.0	n/a	9	75	ISIslide	Loss	True
717.518	0.25	Control	0.6103999999999999	0.0	No	3.232	0.018	n/a	NoResponse	0	n/a	n/a	9	76	Cue	Neutral	True
717.768	4.05	Control	0.6103999999999999	0.0	No	3.232	0.0	n/a	NoResponse	0	n/a	n/a	9	76	Fixation	Neutral	True
721.817	0.23	Control	0.6103999999999999	0.001	No	3.232	-0.001	2.0	NoResponse	0	0.344	721.161	9	76	Target	Neutral	True
722.05	0.47	Control	0.6103999999999999	n/a	No	3.232	n/a	n/a	NoResponse	0	n/a	n/a	9	76	Blank	Neutral	True
722.161	0.3	Control	0.6103999999999999	0.001	No	3.232	-0.001	2.0	NoResponse	0	0.344	n/a	9	76	ButtonPress	Neutral	True
722.517	1.45	Control	0.6103999999999999	n/a	No	3.232	n/a	5.0	NoResponse	0	0.036	721.553	9	76	Feedback	Neutral	True
723.966	3.232	Control	0.6103999999999999	n/a	No	3.232	n/a	n/a	NoResponse	0	0.0	n/a	9	76	ISIslide	Neutral	True
727.215	0.25	Lose2	0.6026	0.0	No	2.585	0.015	n/a	NoResponse	-1	n/a	n/a	8	77	Cue	Loss	False
727.465	3.95	Lose2	0.6026	0.0	No	2.585	0.0	2.0	NoResponse	-1	3.694	730.159	8	77	Fixation	Loss	False
731.159	0.3	Lose2	0.6026	0.0	No	2.585	0.0	2.0	NoResponse	-1	3.694	n/a	8	77	ButtonPress	Loss	False
731.413	0.24	Lose2	0.6026	0.002	No	2.585	-0.002	2.0	NoResponse	-1	0.275	730.688	8	77	Target	Loss	False
731.663	0.46	Lose2	0.6026	n/a	No	2.585	n/a	n/a	NoResponse	-1	n/a	n/a	8	77	Blank	Loss	False
731.688	0.3	Lose2	0.6026	0.002	No	2.585	-0.002	2.0	NoResponse	-1	0.275	n/a	8	77	ButtonPress	Loss	False
732.113	1.45	Lose2	0.6026	n/a	No	2.585	n/a	5.0	NoResponse	-1	0.001	731.114	8	77	Feedback	Loss	False
733.563	2.585	Lose2	0.6026	n/a	No	2.585	n/a	n/a	NoResponse	-1	0.0	n/a	8	77	ISIslide	Loss	False
