onset	duration	cue_type	current_mean_accuracy	duration_error	is_hit	isi_adjusted	onset_delay	response	response_type	reward	rt	rt_time	total_reward	trial_number	trial_phase	trial_type	one_press
11.112	0.25	Control	1.0	0.0	Yes	2.938	0.012	n/a	GoodResponse	0	n/a	n/a	0	0	Cue	Neutral	True
11.363	3.85	Control	1.0	0.0	Yes	2.938	0.001	n/a	GoodResponse	0	n/a	n/a	0	0	Fixation	Neutral	True
15.208	0.4	Control	1.0	0.004	Yes	2.938	-0.004	4.0	GoodResponse	0	0.24	14.448	0	0	Target	Neutral	True
15.448	0.3	Control	1.0	0.004	Yes	2.938	-0.004	4.0	GoodResponse	0	0.24	n/a	0	0	ButtonPress	Neutral	True
15.609	0.3	Control	1.0	n/a	Yes	2.938	n/a	n/a	GoodResponse	0	n/a	n/a	0	0	Blank	Neutral	True
15.91	1.45	Control	1.0	n/a	Yes	2.938	n/a	5.0	GoodResponse	0	0.016	14.926	0	0	Feedback	Neutral	True
17.364	2.938	Control	1.0	n/a	Yes	2.938	n/a	n/a	GoodResponse	0	0.0	n/a	0	0	ISIslide	Neutral	True
20.323	0.25	Lose2	1.0	0.0	Yes	2.777	0.023	n/a	GoodResponse	0	n/a	n/a	0	1	Cue	AvoidedLoss	True
20.574	4.0	Lose2	1.0	0.0	Yes	2.777	0.001	n/a	GoodResponse	0	n/a	n/a	0	1	Fixation	AvoidedLoss	True
24.569	0.39	Lose2	1.0	0.004	Yes	2.777	-0.004	4.0	GoodResponse	0	0.231	23.8	0	1	Target	AvoidedLoss	True
24.8	0.3	Lose2	1.0	0.004	Yes	2.777	-0.004	4.0	GoodResponse	0	0.231	n/a	0	1	ButtonPress	AvoidedLoss	True
24.97	0.31	Lose2	1.0	n/a	Yes	2.777	n/a	n/a	GoodResponse	0	n/a	n/a	0	1	Blank	AvoidedLoss	True
25.271	1.45	Lose2	1.0	n/a	Yes	2.777	n/a	5.0	GoodResponse	0	0.021	24.292	0	1	Feedback	AvoidedLoss	True
26.726	2.777	Lose2	1.0	n/a	Yes	2.777	n/a	n/a	GoodResponse	0	0.0	n/a	0	1	ISIslide	AvoidedLoss	True
29.517	0.25	Control	1.0	0.0	Yes	2.583	0.017	n/a	GoodResponse	0	n/a	n/a	0	2	Cue	Neutral	True
29.768	4.1	Control	1.0	0.0	Yes	2.583	0.001	n/a	GoodResponse	0	n/a	n/a	0	2	Fixation	Neutral	True
33.864	0.38	Control	1.0	0.003	Yes	2.583	-0.003	4.0	GoodResponse	0	0.274	33.138	0	2	Target	Neutral	True
34.138	0.3	Control	1.0	0.003	Yes	2.583	-0.003	4.0	GoodResponse	0	0.274	n/a	0	2	ButtonPress	Neutral	True
34.248	0.32	Control	1.0	n/a	Yes	2.583	n/a	n/a	GoodResponse	0	n/a	n/a	0	2	Blank	Neutral	True
34.566	1.45	Control	1.0	n/a	Yes	2.583	n/a	5.0	GoodResponse	0	0.043	33.609	0	2	Feedback	Neutral	True
36.02	2.583	Control	1.0	n/a	Yes	2.583	n/a	n/a	GoodResponse	0	0.0	n/a	0	2	ISIslide	Neutral	True
38.628	0.25	Win2	1.0	0.0	Yes	2.822	0.028	n/a	GoodResponse	1	n/a	n/a	1	3	Cue	Win	True
38.878	3.95	Win2	1.0	0.001	Yes	2.822	0.0	n/a	GoodResponse	1	n/a	n/a	1	3	Fixation	Win	True
42.824	0.37	Win2	1.0	0.004	Yes	2.822	-0.004	4.0	GoodResponse	1	0.194	42.018	1	3	Target	Win	True
43.018	0.3	Win2	1.0	0.004	Yes	2.822	-0.004	4.0	GoodResponse	1	0.194	n/a	1	3	ButtonPress	Win	True
43.208	0.33	Win2	1.0	n/a	Yes	2.822	n/a	n/a	GoodResponse	1	n/a	n/a	1	3	Blank	Win	True
43.526	1.45	Win2	1.0	n/a	Yes	2.822	n/a	5.0	GoodResponse	1	0.009	42.535	1	3	Feedback	Win	True
44.98	2.822	Win2	1.0	n/a	Yes	2.822	n/a	n/a	GoodResponse	1	0.0	n/a	1	3	ISIslide	Win	True
47.822	0.25	Win2	1.0	0.0	Yes	3.278	0.022	n/a	GoodResponse	1	n/a	n/a	2	4	Cue	Win	True
48.073	4.0	Win2	1.0	0.0	Yes	3.278	0.001	n/a	GoodResponse	1	n/a	n/a	2	4	Fixation	Win	True
52.068	0.36	Win2	1.0	0.004	Yes	3.278	-0.004	4.0	GoodResponse	1	0.313	51.381	2	4	Target	Win	True
52.381	0.3	Win2	1.0	0.004	Yes	3.278	-0.004	4.0	GoodResponse	1	0.313	n/a	2	4	ButtonPress	Win	True
52.436	0.34	Win2	1.0	n/a	Yes	3.278	n/a	n/a	GoodResponse	1	n/a	n/a	2	4	Blank	Win	True
52.77	1.45	Win2	1.0	n/a	Yes	3.278	n/a	5.0	GoodResponse	1	0.034	51.804	2	4	Feedback	Win	True
54.224	3.278	Win2	1.0	n/a	Yes	3.278	n/a	n/a	GoodResponse	1	0.0	n/a	2	4	ISIslide	Win	True
57.517	0.25	Win2	1.0	0.001	Yes	2.783	0.017	n/a	GoodResponse	1	n/a	n/a	3	5	Cue	Win	True
57.768	4.0	Win2	1.0	0.0	Yes	2.783	0.001	n/a	GoodResponse	1	n/a	n/a	3	5	Fixation	Win	True
61.764	0.35	Win2	1.0	0.003	Yes	2.783	-0.003	4.0	GoodResponse	1	0.263	61.027	3	5	Target	Win	True
62.027	0.3	Win2	1.0	0.003	Yes	2.783	-0.003	4.0	GoodResponse	1	0.263	n/a	3	5	ButtonPress	Win	True
62.115	0.35	Win2	1.0	n/a	Yes	2.783	n/a	n/a	GoodResponse	1	n/a	n/a	3	5	Blank	Win	True
62.466	1.45	Win2	1.0	n/a	Yes	2.783	n/a	5.0	GoodResponse	1	0.045	61.511	3	5	Feedback	Win	True
63.92	2.783	Win2	1.0	n/a	Yes	2.783	n/a	n/a	GoodResponse	1	0.0	n/a	3	5	ISIslide	Win	True
66.728	0.25	Lose2	1.0	0.0	Yes	2.722	0.028	n/a	GoodResponse	0	n/a	n/a	3	6	Cue	AvoidedLoss	True
66.979	3.95	Lose2	1.0	0.0	Yes	2.722	0.001	n/a	GoodResponse	0	n/a	n/a	3	6	Fixation	AvoidedLoss	True
70.924	0.34	Lose2	1.0	0.004	Yes	2.722	-0.004	4.0	GoodResponse	0	0.199	70.123	3	6	Target	AvoidedLoss	True
71.123	0.3	Lose2	1.0	0.004	Yes	2.722	-0.004	4.0	GoodResponse	0	0.199	n/a	3	6	ButtonPress	AvoidedLoss	True
71.275	0.36	Lose2	1.0	n/a	Yes	2.722	n/a	n/a	GoodResponse	0	n/a	n/a	3	6	Blank	AvoidedLoss	True
71.626	1.45	Lose2	1.0	n/a	Yes	2.722	n/a	5.0	GoodResponse	0	0.007	70.633	3	6	Feedback	AvoidedLoss	True
73.081	2.722	Lose2	1.0	n/a	Yes	2.722	n/a	n/a	GoodResponse	0	0.0	n/a	3	6	ISIslide	AvoidedLoss	True
75.822	0.25	Lose2	1.0	0.0	Yes	4.028	0.022	n/a	GoodResponse	0	n/a	n/a	3	7	Cue	AvoidedLoss	True
76.073	4.05	Lose2	1.0	0.0	Yes	4.028	0.001	n/a	GoodResponse	0	n/a	n/a	3	7	Fixation	AvoidedLoss	True
80.118	0.33	Lose2	1.0	0.004	Yes	4.028	-0.004	4.0	GoodResponse	0	0.223	79.341	3	7	Target	AvoidedLoss	True
80.341	0.3	Lose2	1.0	0.004	Yes	4.028	-0.004	4.0	GoodResponse	0	0.223	n/a	3	7	ButtonPress	AvoidedLoss	True
80.453	0.37	Lose2	1.0	n/a	Yes	4.028	n/a	n/a	GoodResponse	0	n/a	n/a	3	7	Blank	AvoidedLoss	True
80.82	1.45	Lose2	1.0	n/a	Yes	4.028	n/a	5.0	GoodResponse	0	0.032	79.852	3	7	Feedback	AvoidedLoss	True
82.275	4.028	Lose2	1.0	n/a	Yes	4.028	n/a	n/a	GoodResponse	0	0.0	n/a	3	7	ISIslide	AvoidedLoss	True
86.32	0.25	Lose2	1.0	0.0	Yes	3.03	0.02	n/a	GoodResponse	0	n/a	n/a	3	8	Cue	AvoidedLoss	True
86.571	3.95	Lose2	1.0	0.0	Yes	3.03	0.001	n/a	GoodResponse	0	n/a	n/a	3	8	Fixation	AvoidedLoss	True
90.516	0.32	Lose2	1.0	0.004	Yes	3.03	-0.004	4.0	GoodResponse	0	0.237	89.753	3	8	Target	AvoidedLoss	True
90.753	0.3	Lose2	1.0	0.004	Yes	3.03	-0.004	4.0	GoodResponse	0	0.237	n/a	3	8	ButtonPress	AvoidedLoss	True
90.85	0.38	Lose2	1.0	n/a	Yes	3.03	n/a	n/a	GoodResponse	0	n/a	n/a	3	8	Blank	AvoidedLoss	True
91.218	1.45	Lose2	1.0	n/a	Yes	3.03	n/a	5.0	GoodResponse	0	0.024	90.242	3	8	Feedback	AvoidedLoss	True
92.672	3.03	Lose2	1.0	n/a	Yes	3.03	n/a	n/a	GoodResponse	0	0.0	n/a	3	8	ISIslide	AvoidedLoss	True
95.715	0.25	Lose2	0.9	0.0	No	3.135	0.015	n/a	NoResponse	-1	n/a	n/a	2	9	Cue	Loss	True
95.966	3.95	Lose2	0.9	0.0	No	3.135	0.001	n/a	NoResponse	-1	n/a	n/a	2	9	Fixation	Loss	True
99.911	0.31	Lose2	0.9	0.004	No	3.135	-0.004	4.0	NoResponse	-1	0.348	99.259	2	9	Target	Loss	True
100.228	0.39	Lose2	0.9	n/a	No	3.135	n/a	n/a	NoResponse	-1	n/a	n/a	2	9	Blank	Loss	True
100.259	0.3	Lose2	0.9	0.004	No	3.135	-0.004	4.0	NoResponse	-1	0.348	n/a	2	9	ButtonPress	Loss	True
100.613	1.45	Lose2	0.9	n/a	No	3.135	n/a	5.0	NoResponse	-1	0.044	99.657	2	9	Feedback	Loss	True
102.067	3.135	Lose2	0.9	n/a	No	3.135	n/a	n/a	NoResponse	-1	0.0	n/a	2	9	ISIslide	Loss	True
105.227	0.25	Control	0.9091	0.0	Yes	3.273	0.027	n/a	GoodResponse	0	n/a	n/a	2	10	Cue	Neutral	True
105.477	4.0	Control	0.9091	0.0	Yes	3.273	0.0	n/a	GoodResponse	0	n/a	n/a	2	10	Fixation	Neutral	True
109.473	0.3	Control	0.9091	0.004	Yes	3.273	-0.004	4.0	GoodResponse	0	0.213	108.686	2	10	Target	Neutral	True
109.686	0.3	Control	0.9091	0.004	Yes	3.273	-0.004	4.0	GoodResponse	0	0.213	n/a	2	10	ButtonPress	Neutral	True
109.774	0.4	Control	0.9091	n/a	Yes	3.273	n/a	n/a	GoodResponse	0	n/a	n/a	2	10	Blank	Neutral	True
110.175	1.45	Control	0.9091	n/a	Yes	3.273	n/a	5.0	GoodResponse	0	0.043	109.218	2	10	Feedback	Neutral	True
111.629	3.273	Control	0.9091	n/a	Yes	3.273	n/a	n/a	GoodResponse	0	0.0	n/a	2	10	ISIslide	Neutral	True
114.922	0.25	Lose2	0.9167000000000001	0.0	Yes	2.728	0.022	n/a	GoodResponse	0	n/a	n/a	2	11	Cue	AvoidedLoss	True
115.173	4.05	Lose2	0.9167000000000001	0.0	Yes	2.728	0.001	n/a	GoodResponse	0	n/a	n/a	2	11	Fixation	AvoidedLoss	True
119.218	0.29	Lose2	0.9167000000000001	0.004	Yes	2.728	-0.004	4.0	GoodResponse	0	0.187	118.405	2	11	Target	AvoidedLoss	True
119.405	0.3	Lose2	0.9167000000000001	0.004	Yes	2.728	-0.004	4.0	GoodResponse	0	0.187	n/a	2	11	ButtonPress	AvoidedLoss	True
119.519	0.41	Lose2	0.9167000000000001	n/a	Yes	2.728	n/a	n/a	GoodResponse	0	n/a	n/a	2	11	Blank	AvoidedLoss	True
119.921	1.45	Lose2	0.9167000000000001	n/a	Yes	2.728	n/a	5.0	GoodResponse	0	0.006	118.927	2	11	Feedback	AvoidedLoss	True
121.375	2.728	Lose2	0.9167000000000001	n/a	Yes	2.728	n/a	n/a	GoodResponse	0	0.0	n/a	2	11	ISIslide	AvoidedLoss	True
124.116	0.25	Control	0.9231	0.0	Yes	2.984	0.016	n/a	GoodResponse	0	n/a	n/a	2	12	Cue	Neutral	True
124.367	3.9	Control	0.9231	0.0	Yes	2.984	0.001	n/a	GoodResponse	0	n/a	n/a	2	12	Fixation	Neutral	True
128.262	0.28	Control	0.9231	0.004	Yes	2.984	-0.004	4.0	GoodResponse	0	0.206	127.468	2	12	Target	Neutral	True
128.468	0.3	Control	0.9231	0.004	Yes	2.984	-0.004	4.0	GoodResponse	0	0.206	n/a	2	12	ButtonPress	Neutral	True
128.546	0.42	Control	0.9231	n/a	Yes	2.984	n/a	n/a	GoodResponse	0	n/a	n/a	2	12	Blank	Neutral	True
128.964	1.45	Control	0.9231	n/a	Yes	2.984	n/a	5.0	GoodResponse	0	0.034	127.998	2	12	Feedback	Neutral	True
130.419	2.984	Control	0.9231	n/a	Yes	2.984	n/a	n/a	GoodResponse	0	0.0	n/a	2	12	ISIslide	Neutral	True
133.428	0.25	Control	0.9286	0.0	Yes	2.772	0.028	n/a	GoodResponse	0	n/a	n/a	2	13	Cue	Neutral	True
133.678	4.0	Control	0.9286	0.0	Yes	2.772	0.0	n/a	GoodResponse	0	n/a	n/a	2	13	Fixation	Neutral	True
137.674	0.27	Control	0.9286	0.004	Yes	2.772	-0.004	4.0	GoodResponse	0	0.218	136.892	2	13	Target	Neutral	True
137.892	0.3	Control	0.9286	0.004	Yes	2.772	-0.004	4.0	GoodResponse	0	0.218	n/a	2	13	ButtonPress	Neutral	True
137.958	0.43	Control	0.9286	n/a	Yes	2.772	n/a	n/a	GoodResponse	0	n/a	n/a	2	13	Blank	Neutral	True
138.376	1.45	Control	0.9286	n/a	Yes	2.772	n/a	5.0	GoodResponse	0	0.036	137.412	2	13	Feedback	Neutral	True
139.83	2.772	Control	0.9286	n/a	Yes	2.772	n/a	n/a	GoodResponse	0	0.0	n/a	2	13	ISIslide	Neutral	True
142.622	0.25	Win2	0.8667	0.0	No	2.678	0.022	n/a	LatePress	0	n/a	n/a	2	14	Cue	MissedWin	False
142.872	4.1	Win2	0.8667	0.001	No	2.678	0.0	4.0	LatePress	0	3.807	145.679	2	14	Fixation	MissedWin	False
146.679	0.3	Win2	0.8667	0.001	No	2.678	0.0	4.0	LatePress	0	3.807	n/a	2	14	ButtonPress	MissedWin	False
146.968	0.26	Win2	0.8667	0.004	No	2.678	-0.004	4.0	LatePress	0	0.26	146.228	2	14	Target	MissedWin	False
147.228	0.3	Win2	0.8667	0.004	No	2.678	-0.004	4.0	LatePress	0	0.26	n/a	2	14	ButtonPress	MissedWin	False
147.235	0.44	Win2	0.8667	n/a	No	2.678	n/a	n/a	LatePress	0	n/a	n/a	2	14	Blank	MissedWin	False
147.67	1.45	Win2	0.8667	n/a	No	2.678	n/a	5.0	LatePress	0	0.011	146.681	2	14	Feedback	MissedWin	False
149.124	2.678	Win2	0.8667	n/a	No	2.678	n/a	n/a	LatePress	0	0.0	n/a	2	14	ISIslide	MissedWin	False
151.816	0.25	Control	0.875	0.0	Yes	2.984	0.016	n/a	GoodResponse	0	n/a	n/a	2	15	Cue	Neutral	True
152.067	4.0	Control	0.875	0.0	Yes	2.984	0.001	n/a	GoodResponse	0	n/a	n/a	2	15	Fixation	Neutral	True
156.062	0.25	Control	0.875	0.004	Yes	2.984	-0.004	4.0	GoodResponse	0	0.229	155.291	2	15	Target	Neutral	True
156.291	0.3	Control	0.875	0.004	Yes	2.984	-0.004	4.0	GoodResponse	0	0.229	n/a	2	15	ButtonPress	Neutral	True
156.313	0.45	Control	0.875	n/a	Yes	2.984	n/a	n/a	GoodResponse	0	n/a	n/a	2	15	Blank	Neutral	True
156.764	1.45	Control	0.875	n/a	Yes	2.984	n/a	5.0	GoodResponse	0	0.038	155.802	2	15	Feedback	Neutral	True
158.218	2.984	Control	0.875	n/a	Yes	2.984	n/a	n/a	GoodResponse	0	0.0	n/a	2	15	ISIslide	Neutral	True
161.227	0.25	Win2	0.8824	0.0	Yes	2.873	0.027	n/a	GoodResponse	1	n/a	n/a	3	16	Cue	Win	True
161.478	4.0	Win2	0.8824	0.0	Yes	2.873	0.001	n/a	GoodResponse	1	n/a	n/a	3	16	Fixation	Win	True
165.473	0.24	Win2	0.8824	0.004	Yes	2.873	-0.004	4.0	GoodResponse	1	0.237	164.71	3	16	Target	Win	True
165.71	0.3	Win2	0.8824	0.004	Yes	2.873	-0.004	4.0	GoodResponse	1	0.237	n/a	3	16	ButtonPress	Win	True
165.724	0.46	Win2	0.8824	n/a	Yes	2.873	n/a	n/a	GoodResponse	1	n/a	n/a	3	16	Blank	Win	True
166.175	1.45	Win2	0.8824	n/a	Yes	2.873	n/a	5.0	GoodResponse	1	0.042	165.217	3	16	Feedback	Win	True
167.63	2.873	Win2	0.8824	n/a	Yes	2.873	n/a	n/a	GoodResponse	1	0.0	n/a	3	16	ISIslide	Win	True
170.522	0.25	Lose2	0.8332999999999999	0.0	No	2.728	0.022	n/a	NoResponse	-1	n/a	n/a	2	17	Cue	Loss	True
170.772	3.95	Lose2	0.8332999999999999	0.0	No	2.728	0.0	n/a	NoResponse	-1	n/a	n/a	2	17	Fixation	Loss	True
174.718	0.23	Lose2	0.8332999999999999	0.004	No	2.728	-0.004	4.0	NoResponse	-1	0.299	174.017	2	17	Target	Loss	True
174.952	0.47	Lose2	0.8332999999999999	n/a	No	2.728	n/a	n/a	NoResponse	-1	n/a	n/a	2	17	Blank	Loss	True
175.017	0.3	Lose2	0.8332999999999999	0.004	No	2.728	-0.004	4.0	NoResponse	-1	0.299	n/a	2	17	ButtonPress	Loss	True
175.42	1.45	Lose2	0.8332999999999999	n/a	No	2.728	n/a	5.0	NoResponse	-1	0.016	174.436	2	17	Feedback	Loss	True
176.874	2.728	Lose2	0.8332999999999999	n/a	No	2.728	n/a	n/a	NoResponse	-1	0.0	n/a	2	17	ISIslide	Loss	True
179.615	0.25	Lose2	0.8421	0.001	Yes	2.735	0.015	n/a	GoodResponse	0	n/a	n/a	2	18	Cue	AvoidedLoss	True
179.866	4.05	Lose2	0.8421	0.0	Yes	2.735	0.001	n/a	GoodResponse	0	n/a	n/a	2	18	Fixation	AvoidedLoss	True
183.912	0.22	Lose2	0.8421	0.003	Yes	2.735	-0.003	4.0	GoodResponse	0	0.179	183.091	2	18	Target	AvoidedLoss	True
184.091	0.3	Lose2	0.8421	0.003	Yes	2.735	-0.003	4.0	GoodResponse	0	0.179	n/a	2	18	ButtonPress	AvoidedLoss	True
184.146	0.48	Lose2	0.8421	n/a	Yes	2.735	n/a	n/a	GoodResponse	0	n/a	n/a	2	18	Blank	AvoidedLoss	True
184.614	1.45	Lose2	0.8421	n/a	Yes	2.735	n/a	5.0	GoodResponse	0	0.042	183.656	2	18	Feedback	AvoidedLoss	True
186.068	2.735	Lose2	0.8421	n/a	Yes	2.735	n/a	n/a	GoodResponse	0	0.0	n/a	2	18	ISIslide	AvoidedLoss	True
188.826	0.25	Control	0.8	0.0	No	2.924	0.026	n/a	NoResponse	0	n/a	n/a	2	19	Cue	Neutral	True
189.077	3.95	Control	0.8	0.0	No	2.924	0.001	n/a	NoResponse	0	n/a	n/a	2	19	Fixation	Neutral	True
193.022	0.21	Control	0.8	0.004	No	2.924	-0.004	4.0	NoResponse	0	0.224	192.246	2	19	Target	Neutral	True
193.24	0.49	Control	0.8	n/a	No	2.924	n/a	n/a	NoResponse	0	n/a	n/a	2	19	Blank	Neutral	True
193.246	0.3	Control	0.8	0.004	No	2.924	-0.004	4.0	NoResponse	0	0.224	n/a	2	19	ButtonPress	Neutral	True
193.724	1.45	Control	0.8	n/a	No	2.924	n/a	5.0	NoResponse	0	0.005	192.729	2	19	Feedback	Neutral	True
195.179	2.924	Control	0.8	n/a	No	2.924	n/a	n/a	NoResponse	0	0.0	n/a	2	19	ISIslide	Neutral	True
198.121	0.25	Control	0.7619	0.0	No	2.629	0.021	n/a	NoResponse	0	n/a	n/a	2	20	Cue	Neutral	True
198.371	4.05	Control	0.7619	0.001	No	2.629	0.0	n/a	NoResponse	0	n/a	n/a	2	20	Fixation	Neutral	True
202.417	0.2	Control	0.7619	0.004	No	2.629	-0.004	4.0	NoResponse	0	0.21	201.627	2	20	Target	Neutral	True
202.618	0.5	Control	0.7619	n/a	No	2.629	n/a	n/a	NoResponse	0	n/a	n/a	2	20	Blank	Neutral	True
202.627	0.3	Control	0.7619	0.004	No	2.629	-0.004	4.0	NoResponse	0	0.21	n/a	2	20	ButtonPress	Neutral	True
203.119	1.45	Control	0.7619	n/a	No	2.629	n/a	5.0	NoResponse	0	0.024	202.143	2	20	Feedback	Neutral	True
204.573	2.629	Control	0.7619	n/a	No	2.629	n/a	n/a	NoResponse	0	0.0	n/a	2	20	ISIslide	Neutral	True
207.215	0.25	Control	0.7273000000000001	0.0	No	2.785	0.015	n/a	NoResponse	0	n/a	n/a	2	21	Cue	Neutral	True
207.465	4.1	Control	0.7273000000000001	0.0	No	2.785	0.0	n/a	NoResponse	0	n/a	n/a	2	21	Fixation	Neutral	True
211.561	0.19	Control	0.7273000000000001	0.004	No	2.785	-0.004	4.0	NoResponse	0	0.206	210.767	2	21	Target	Neutral	True
211.761	0.51	Control	0.7273000000000001	n/a	No	2.785	n/a	n/a	NoResponse	0	n/a	n/a	2	21	Blank	Neutral	True
211.767	0.3	Control	0.7273000000000001	0.004	No	2.785	-0.004	4.0	NoResponse	0	0.206	n/a	2	21	ButtonPress	Neutral	True
212.263	1.45	Control	0.7273000000000001	n/a	No	2.785	n/a	5.0	NoResponse	0	0.002	211.265	2	21	Feedback	Neutral	True
213.717	2.785	Control	0.7273000000000001	n/a	No	2.785	n/a	n/a	NoResponse	0	0.0	n/a	2	21	ISIslide	Neutral	True
216.526	0.25	Control	0.6957	0.0	No	2.774	0.026	n/a	NoResponse	0	n/a	n/a	2	22	Cue	Neutral	True
216.776	4.0	Control	0.6957	0.001	No	2.774	0.0	n/a	NoResponse	0	n/a	n/a	2	22	Fixation	Neutral	True
220.772	0.18	Control	0.6957	0.004	No	2.774	-0.004	4.0	NoResponse	0	0.231	220.003	2	22	Target	Neutral	True
220.956	0.52	Control	0.6957	n/a	No	2.774	n/a	n/a	NoResponse	0	n/a	n/a	2	22	Blank	Neutral	True
221.003	0.3	Control	0.6957	0.004	No	2.774	-0.004	4.0	NoResponse	0	0.231	n/a	2	22	ButtonPress	Neutral	True
221.474	1.45	Control	0.6957	n/a	No	2.774	n/a	5.0	NoResponse	0	0.01	220.484	2	22	Feedback	Neutral	True
222.928	2.774	Control	0.6957	n/a	No	2.774	n/a	n/a	NoResponse	0	0.0	n/a	2	22	ISIslide	Neutral	True
225.72	0.25	Control	0.6667000000000001	0.0	No	2.78	0.02	n/a	NoResponse	0	n/a	n/a	2	23	Cue	Neutral	True
225.971	3.9	Control	0.6667000000000001	0.0	No	2.78	0.001	n/a	NoResponse	0	n/a	n/a	2	23	Fixation	Neutral	True
229.866	0.17	Control	0.6667000000000001	0.004	No	2.78	-0.004	4.0	NoResponse	0	0.22	229.086	2	23	Target	Neutral	True
230.049	0.53	Control	0.6667000000000001	n/a	No	2.78	n/a	n/a	NoResponse	0	n/a	n/a	2	23	Blank	Neutral	True
230.086	0.3	Control	0.6667000000000001	0.004	No	2.78	-0.004	4.0	NoResponse	0	0.22	n/a	2	23	ButtonPress	Neutral	True
230.568	1.45	Control	0.6667000000000001	n/a	No	2.78	n/a	5.0	NoResponse	0	0.037	229.605	2	23	Feedback	Neutral	True
232.022	2.78	Control	0.6667000000000001	n/a	No	2.78	n/a	n/a	NoResponse	0	0.0	n/a	2	23	ISIslide	Neutral	True
234.814	0.25	Win2	0.64	0.0	No	3.136	0.014	n/a	NoResponse	0	n/a	n/a	2	24	Cue	MissedWin	True
235.064	3.95	Win2	0.64	0.0	No	3.136	0.0	n/a	NoResponse	0	n/a	n/a	2	24	Fixation	MissedWin	True
239.01	0.16	Win2	0.64	0.004	No	3.136	-0.004	4.0	NoResponse	0	0.21	238.22	2	24	Target	MissedWin	True
239.177	0.54	Win2	0.64	n/a	No	3.136	n/a	n/a	NoResponse	0	n/a	n/a	2	24	Blank	MissedWin	True
239.22	0.3	Win2	0.64	0.004	No	3.136	-0.004	4.0	NoResponse	0	0.21	n/a	2	24	ButtonPress	MissedWin	True
239.712	1.45	Win2	0.64	n/a	No	3.136	n/a	5.0	NoResponse	0	0.016	238.728	2	24	Feedback	MissedWin	True
241.166	3.136	Win2	0.64	n/a	No	3.136	n/a	n/a	NoResponse	0	0.0	n/a	2	24	ISIslide	MissedWin	True
244.325	0.25	Win2	0.6154	0.0	No	3.075	0.025	n/a	LatePress	0	n/a	n/a	2	25	Cue	MissedWin	True
244.576	4.0	Win2	0.6154	0.0	No	3.075	0.001	n/a	LatePress	0	n/a	n/a	2	25	Fixation	MissedWin	True
248.571	0.17	Win2	0.6154	0.004	No	3.075	-0.004	4.0	LatePress	0	0.184	247.755	2	25	Target	MissedWin	True
248.755	0.53	Win2	0.6154	n/a	No	3.075	n/a	n/a	LatePress	0	n/a	n/a	2	25	Blank	MissedWin	True
248.755	0.3	Win2	0.6154	0.004	No	3.075	-0.004	4.0	LatePress	0	0.184	n/a	2	25	ButtonPress	MissedWin	True
249.274	1.45	Win2	0.6154	n/a	No	3.075	n/a	5.0	LatePress	0	0.015	248.289	2	25	Feedback	MissedWin	True
250.728	3.075	Win2	0.6154	n/a	No	3.075	n/a	n/a	LatePress	0	0.0	n/a	2	25	ISIslide	MissedWin	True
253.82	0.25	Win2	0.5926	0.001	No	2.93	0.02	n/a	NoResponse	0	n/a	n/a	2	26	Cue	MissedWin	True
254.071	3.95	Win2	0.5926	0.0	No	2.93	0.001	n/a	NoResponse	0	n/a	n/a	2	26	Fixation	MissedWin	True
258.016	0.18	Win2	0.5926	0.004	No	2.93	-0.004	4.0	NoResponse	0	0.274	257.29	2	26	Target	MissedWin	True
258.2	0.52	Win2	0.5926	n/a	No	2.93	n/a	n/a	NoResponse	0	n/a	n/a	2	26	Blank	MissedWin	True
258.29	0.3	Win2	0.5926	0.004	No	2.93	-0.004	4.0	NoResponse	0	0.274	n/a	2	26	ButtonPress	MissedWin	True
258.718	1.45	Win2	0.5926	n/a	No	2.93	n/a	5.0	NoResponse	0	0.034	257.752	2	26	Feedback	MissedWin	True
260.173	2.93	Win2	0.5926	n/a	No	2.93	n/a	n/a	NoResponse	0	0.0	n/a	2	26	ISIslide	MissedWin	True
263.115	0.25	Lose2	0.5714	0.0	No	2.835	0.015	n/a	LatePress	-1	n/a	n/a	1	27	Cue	Loss	True
263.366	4.05	Lose2	0.5714	0.0	No	2.835	0.001	n/a	LatePress	-1	n/a	n/a	1	27	Fixation	Loss	True
267.411	0.19	Lose2	0.5714	0.004	No	2.835	-0.004	4.0	LatePress	-1	0.191	266.602	1	27	Target	Loss	True
267.602	0.3	Lose2	0.5714	0.004	No	2.835	-0.004	4.0	LatePress	-1	0.191	n/a	1	27	ButtonPress	Loss	True
267.612	0.51	Lose2	0.5714	n/a	No	2.835	n/a	n/a	LatePress	-1	n/a	n/a	1	27	Blank	Loss	True
268.113	1.45	Lose2	0.5714	n/a	No	2.835	n/a	5.0	LatePress	-1	0.004	267.117	1	27	Feedback	Loss	True
269.567	2.835	Lose2	0.5714	n/a	No	2.835	n/a	n/a	LatePress	-1	0.0	n/a	1	27	ISIslide	Loss	True
272.426	0.25	Control	0.5861999999999999	0.0	Yes	2.824	0.026	n/a	GoodResponse	0	n/a	n/a	1	28	Cue	Neutral	True
272.677	4.05	Control	0.5861999999999999	0.0	Yes	2.824	0.001	n/a	GoodResponse	0	n/a	n/a	1	28	Fixation	Neutral	True
276.722	0.2	Control	0.5861999999999999	0.004	Yes	2.824	-0.004	4.0	GoodResponse	0	0.188	275.91	1	28	Target	Neutral	True
276.91	0.3	Control	0.5861999999999999	0.004	Yes	2.824	-0.004	4.0	GoodResponse	0	0.188	n/a	1	28	ButtonPress	Neutral	True
276.923	0.5	Control	0.5861999999999999	n/a	Yes	2.824	n/a	n/a	GoodResponse	0	n/a	n/a	1	28	Blank	Neutral	True
277.424	1.45	Control	0.5861999999999999	n/a	Yes	2.824	n/a	5.0	GoodResponse	0	0.01	276.434	1	28	Feedback	Neutral	True
278.879	2.824	Control	0.5861999999999999	n/a	Yes	2.824	n/a	n/a	GoodResponse	0	0.0	n/a	1	28	ISIslide	Neutral	True
281.72	0.25	Lose2	0.5667	0.0	No	2.83	0.02	n/a	LatePress	-1	n/a	n/a	0	29	Cue	Loss	True
281.971	3.95	Lose2	0.5667	0.0	No	2.83	0.001	n/a	LatePress	-1	n/a	n/a	0	29	Fixation	Loss	True
285.916	0.21	Lose2	0.5667	0.004	No	2.83	-0.004	4.0	LatePress	-1	0.211	285.127	0	29	Target	Loss	True
286.127	0.3	Lose2	0.5667	0.004	No	2.83	-0.004	4.0	LatePress	-1	0.211	n/a	0	29	ButtonPress	Loss	True
286.134	0.49	Lose2	0.5667	n/a	No	2.83	n/a	n/a	LatePress	-1	n/a	n/a	0	29	Blank	Loss	True
286.618	1.45	Lose2	0.5667	n/a	No	2.83	n/a	5.0	LatePress	-1	0.036	285.654	0	29	Feedback	Loss	True
288.073	2.83	Lose2	0.5667	n/a	No	2.83	n/a	n/a	LatePress	-1	0.0	n/a	0	29	ISIslide	Loss	True
290.915	0.25	Win2	0.5806	0.0	Yes	2.785	0.015	n/a	GoodResponse	1	n/a	n/a	1	30	Cue	Win	True
291.165	3.9	Win2	0.5806	0.0	Yes	2.785	0.0	n/a	GoodResponse	1	n/a	n/a	1	30	Fixation	Win	True
295.077	0.22	Win2	0.5806	0.0	Yes	2.785	0.012	4.0	GoodResponse	1	0.197	294.274	1	30	Target	Win	True
295.274	0.3	Win2	0.5806	0.0	Yes	2.785	0.012	4.0	GoodResponse	1	0.197	n/a	1	30	ButtonPress	Win	True
295.294	0.48	Win2	0.5806	n/a	Yes	2.785	n/a	n/a	GoodResponse	1	n/a	n/a	1	30	Blank	Win	True
295.762	1.45	Win2	0.5806	n/a	Yes	2.785	n/a	5.0	GoodResponse	1	0.014	294.776	1	30	Feedback	Win	True
297.217	2.785	Win2	0.5806	n/a	Yes	2.785	n/a	n/a	GoodResponse	1	0.0	n/a	1	30	ISIslide	Win	True
300.025	0.25	Lose2	0.5938	0.0	Yes	2.825	0.025	n/a	GoodResponse	0	n/a	n/a	1	31	Cue	AvoidedLoss	True
300.276	4.05	Lose2	0.5938	0.0	Yes	2.825	0.001	n/a	GoodResponse	0	n/a	n/a	1	31	Fixation	AvoidedLoss	True
304.321	0.23	Lose2	0.5938	0.004	Yes	2.825	-0.004	4.0	GoodResponse	0	0.215	303.536	1	31	Target	AvoidedLoss	True
304.536	0.3	Lose2	0.5938	0.004	Yes	2.825	-0.004	4.0	GoodResponse	0	0.215	n/a	1	31	ButtonPress	AvoidedLoss	True
304.555	0.47	Lose2	0.5938	n/a	Yes	2.825	n/a	n/a	GoodResponse	0	n/a	n/a	1	31	Blank	AvoidedLoss	True
305.023	1.45	Lose2	0.5938	n/a	Yes	2.825	n/a	5.0	GoodResponse	0	0.02	304.043	1	31	Feedback	AvoidedLoss	True
306.478	2.825	Lose2	0.5938	n/a	Yes	2.825	n/a	n/a	GoodResponse	0	0.0	n/a	1	31	ISIslide	AvoidedLoss	True
309.32	0.25	Lose2	0.6061	0.0	Yes	2.63	0.02	n/a	GoodResponse	0	n/a	n/a	1	32	Cue	AvoidedLoss	True
309.57	4.15	Lose2	0.6061	0.0	Yes	2.63	0.0	n/a	GoodResponse	0	n/a	n/a	1	32	Fixation	AvoidedLoss	True
313.716	0.24	Lose2	0.6061	0.004	Yes	2.63	-0.004	4.0	GoodResponse	0	0.188	312.904	1	32	Target	AvoidedLoss	True
313.904	0.3	Lose2	0.6061	0.004	Yes	2.63	-0.004	4.0	GoodResponse	0	0.188	n/a	1	32	ButtonPress	AvoidedLoss	True
313.967	0.46	Lose2	0.6061	n/a	Yes	2.63	n/a	n/a	GoodResponse	0	n/a	n/a	1	32	Blank	AvoidedLoss	True
314.418	1.45	Lose2	0.6061	n/a	Yes	2.63	n/a	5.0	GoodResponse	0	0.04	313.458	1	32	Feedback	AvoidedLoss	True
315.872	2.63	Lose2	0.6061	n/a	Yes	2.63	n/a	n/a	GoodResponse	0	0.0	n/a	1	32	ISIslide	AvoidedLoss	True
318.514	0.25	Win2	0.6175999999999999	0.0	Yes	2.686	0.014	n/a	GoodResponse	1	n/a	n/a	2	33	Cue	Win	True
318.764	4.0	Win2	0.6175999999999999	0.0	Yes	2.686	0.0	n/a	GoodResponse	1	n/a	n/a	2	33	Fixation	Win	True
322.76	0.25	Win2	0.6175999999999999	0.004	Yes	2.686	-0.004	4.0	GoodResponse	1	0.184	321.944	2	33	Target	Win	True
322.944	0.3	Win2	0.6175999999999999	0.004	Yes	2.686	-0.004	4.0	GoodResponse	1	0.184	n/a	2	33	ButtonPress	Win	True
323.01	0.45	Win2	0.6175999999999999	n/a	Yes	2.686	n/a	n/a	GoodResponse	1	n/a	n/a	2	33	Blank	Win	True
323.462	1.45	Win2	0.6175999999999999	n/a	Yes	2.686	n/a	5.0	GoodResponse	1	0.021	322.483	2	33	Feedback	Win	True
324.916	2.686	Win2	0.6175999999999999	n/a	Yes	2.686	n/a	n/a	GoodResponse	1	0.0	n/a	2	33	ISIslide	Win	True
327.624	0.25	Lose2	0.6286	0.0	Yes	2.626	0.024	n/a	GoodResponse	0	n/a	n/a	2	34	Cue	AvoidedLoss	True
327.875	4.05	Lose2	0.6286	0.0	Yes	2.626	0.001	n/a	GoodResponse	0	n/a	n/a	2	34	Fixation	AvoidedLoss	True
331.92	0.26	Lose2	0.6286	0.004	Yes	2.626	-0.004	4.0	GoodResponse	0	0.195	331.115	2	34	Target	AvoidedLoss	True
332.115	0.3	Lose2	0.6286	0.004	Yes	2.626	-0.004	4.0	GoodResponse	0	0.195	n/a	2	34	ButtonPress	AvoidedLoss	True
332.188	0.44	Lose2	0.6286	n/a	Yes	2.626	n/a	n/a	GoodResponse	0	n/a	n/a	2	34	Blank	AvoidedLoss	True
332.622	1.45	Lose2	0.6286	n/a	Yes	2.626	n/a	5.0	GoodResponse	0	0.031	331.653	2	34	Feedback	AvoidedLoss	True
334.077	2.626	Lose2	0.6286	n/a	Yes	2.626	n/a	n/a	GoodResponse	0	0.0	n/a	2	34	ISIslide	AvoidedLoss	True
336.718	0.25	Lose2	0.6389	0.0	Yes	2.682	0.018	n/a	GoodResponse	0	n/a	n/a	2	35	Cue	AvoidedLoss	True
336.969	4.0	Lose2	0.6389	0.0	Yes	2.682	0.001	n/a	GoodResponse	0	n/a	n/a	2	35	Fixation	AvoidedLoss	True
340.964	0.27	Lose2	0.6389	0.004	Yes	2.682	-0.004	4.0	GoodResponse	0	0.17	340.134	2	35	Target	AvoidedLoss	True
341.134	0.3	Lose2	0.6389	0.004	Yes	2.682	-0.004	4.0	GoodResponse	0	0.17	n/a	2	35	ButtonPress	AvoidedLoss	True
341.248	0.43	Lose2	0.6389	n/a	Yes	2.682	n/a	n/a	GoodResponse	0	n/a	n/a	2	35	Blank	AvoidedLoss	True
341.666	1.45	Lose2	0.6389	n/a	Yes	2.682	n/a	5.0	GoodResponse	0	0.011	340.677	2	35	Feedback	AvoidedLoss	True
343.12	2.682	Lose2	0.6389	n/a	Yes	2.682	n/a	n/a	GoodResponse	0	0.0	n/a	2	35	ISIslide	AvoidedLoss	True
345.829	0.25	Control	0.6486	0.0	Yes	2.671	0.029	n/a	GoodResponse	0	n/a	n/a	2	36	Cue	Neutral	True
346.079	4.0	Control	0.6486	0.0	Yes	2.671	0.0	n/a	GoodResponse	0	n/a	n/a	2	36	Fixation	Neutral	True
350.075	0.28	Control	0.6486	0.004	Yes	2.671	-0.004	4.0	GoodResponse	0	0.16	349.235	2	36	Target	Neutral	True
350.235	0.3	Control	0.6486	0.004	Yes	2.671	-0.004	4.0	GoodResponse	0	0.16	n/a	2	36	ButtonPress	Neutral	True
350.359	0.42	Control	0.6486	n/a	Yes	2.671	n/a	n/a	GoodResponse	0	n/a	n/a	2	36	Blank	Neutral	True
350.777	1.45	Control	0.6486	n/a	Yes	2.671	n/a	5.0	GoodResponse	0	0.022	349.799	2	36	Feedback	Neutral	True
352.231	2.671	Control	0.6486	n/a	Yes	2.671	n/a	n/a	GoodResponse	0	0.0	n/a	2	36	ISIslide	Neutral	True
354.922	0.25	Win2	0.6579	0.0	Yes	2.878	0.022	n/a	GoodResponse	1	n/a	n/a	3	37	Cue	Win	True
355.173	4.0	Win2	0.6579	0.0	Yes	2.878	0.001	n/a	GoodResponse	1	n/a	n/a	3	37	Fixation	Win	True
359.168	0.29	Win2	0.6579	0.004	Yes	2.878	-0.004	4.0	GoodResponse	1	0.168	358.336	3	37	Target	Win	True
359.336	0.3	Win2	0.6579	0.004	Yes	2.878	-0.004	4.0	GoodResponse	1	0.168	n/a	3	37	ButtonPress	Win	True
359.469	0.41	Win2	0.6579	n/a	Yes	2.878	n/a	n/a	GoodResponse	1	n/a	n/a	3	37	Blank	Win	True
359.87	1.45	Win2	0.6579	n/a	Yes	2.878	n/a	5.0	GoodResponse	1	0.002	358.872	3	37	Feedback	Win	True
361.325	2.878	Win2	0.6579	n/a	Yes	2.878	n/a	n/a	GoodResponse	1	0.0	n/a	3	37	ISIslide	Win	True
364.217	0.25	Lose2	0.6667000000000001	0.0	Yes	2.833	0.017	n/a	GoodResponse	0	n/a	n/a	3	38	Cue	AvoidedLoss	True
364.468	3.95	Lose2	0.6667000000000001	0.0	Yes	2.833	0.001	n/a	GoodResponse	0	n/a	n/a	3	38	Fixation	AvoidedLoss	True
368.413	0.29	Lose2	0.6667000000000001	0.004	Yes	2.833	-0.004	4.0	GoodResponse	0	0.2	367.613	3	38	Target	AvoidedLoss	True
368.613	0.3	Lose2	0.6667000000000001	0.004	Yes	2.833	-0.004	4.0	GoodResponse	0	0.2	n/a	3	38	ButtonPress	AvoidedLoss	True
368.714	0.41	Lose2	0.6667000000000001	n/a	Yes	2.833	n/a	n/a	GoodResponse	0	n/a	n/a	3	38	Blank	AvoidedLoss	True
369.115	1.45	Lose2	0.6667000000000001	n/a	Yes	2.833	n/a	5.0	GoodResponse	0	0.026	368.141	3	38	Feedback	AvoidedLoss	True
370.569	2.833	Lose2	0.6667000000000001	n/a	Yes	2.833	n/a	n/a	GoodResponse	0	0.0	n/a	3	38	ISIslide	AvoidedLoss	True
373.428	0.25	Win2	0.675	0.0	Yes	2.972	0.028	n/a	GoodResponse	1	n/a	n/a	4	39	Cue	Win	True
373.678	4.1	Win2	0.675	0.0	Yes	2.972	0.0	n/a	GoodResponse	1	n/a	n/a	4	39	Fixation	Win	True
377.774	0.28	Win2	0.675	0.004	Yes	2.972	-0.004	4.0	GoodResponse	1	0.245	377.019	4	39	Target	Win	True
378.019	0.3	Win2	0.675	0.004	Yes	2.972	-0.004	4.0	GoodResponse	1	0.245	n/a	4	39	ButtonPress	Win	True
378.058	0.42	Win2	0.675	n/a	Yes	2.972	n/a	n/a	GoodResponse	1	n/a	n/a	4	39	Blank	Win	True
378.476	1.45	Win2	0.675	n/a	Yes	2.972	n/a	5.0	GoodResponse	1	0.03	377.506	4	39	Feedback	Win	True
379.93	2.972	Win2	0.675	n/a	Yes	2.972	n/a	n/a	GoodResponse	1	0.0	n/a	4	39	ISIslide	Win	True
382.923	0.25	Win2	0.6829000000000001	0.0	Yes	2.727	0.023	n/a	GoodResponse	1	n/a	n/a	5	40	Cue	Win	True
383.173	3.95	Win2	0.6829000000000001	0.0	Yes	2.727	0.0	n/a	GoodResponse	1	n/a	n/a	5	40	Fixation	Win	True
387.119	0.27	Win2	0.6829000000000001	0.004	Yes	2.727	-0.004	4.0	GoodResponse	1	0.208	386.327	5	40	Target	Win	True
387.327	0.3	Win2	0.6829000000000001	0.004	Yes	2.727	-0.004	4.0	GoodResponse	1	0.208	n/a	5	40	ButtonPress	Win	True
387.403	0.43	Win2	0.6829000000000001	n/a	Yes	2.727	n/a	n/a	GoodResponse	1	n/a	n/a	5	40	Blank	Win	True
387.821	1.45	Win2	0.6829000000000001	n/a	Yes	2.727	n/a	5.0	GoodResponse	1	0.002	386.823	5	40	Feedback	Win	True
389.275	2.727	Win2	0.6829000000000001	n/a	Yes	2.727	n/a	n/a	GoodResponse	1	0.0	n/a	5	40	ISIslide	Win	True
392.016	0.25	Win2	0.6905	0.001	Yes	2.784	0.016	n/a	GoodResponse	1	n/a	n/a	6	41	Cue	Win	True
392.267	3.9	Win2	0.6905	0.0	Yes	2.784	0.001	n/a	GoodResponse	1	n/a	n/a	6	41	Fixation	Win	True
396.162	0.26	Win2	0.6905	0.004	Yes	2.784	-0.004	4.0	GoodResponse	1	0.182	395.344	6	41	Target	Win	True
396.344	0.3	Win2	0.6905	0.004	Yes	2.784	-0.004	4.0	GoodResponse	1	0.182	n/a	6	41	ButtonPress	Win	True
396.43	0.44	Win2	0.6905	n/a	Yes	2.784	n/a	n/a	GoodResponse	1	n/a	n/a	6	41	Blank	Win	True
396.864	1.45	Win2	0.6905	n/a	Yes	2.784	n/a	5.0	GoodResponse	1	0.032	395.896	6	41	Feedback	Win	True
398.319	2.784	Win2	0.6905	n/a	Yes	2.784	n/a	n/a	GoodResponse	1	0.0	n/a	6	41	ISIslide	Win	True
401.127	0.25	Control	0.6977	0.0	Yes	2.923	0.027	n/a	GoodResponse	0	n/a	n/a	6	42	Cue	Neutral	True
401.378	3.85	Control	0.6977	0.0	Yes	2.923	0.001	n/a	GoodResponse	0	n/a	n/a	6	42	Fixation	Neutral	True
405.223	0.25	Control	0.6977	0.004	Yes	2.923	-0.004	4.0	GoodResponse	0	0.181	404.404	6	42	Target	Neutral	True
405.404	0.3	Control	0.6977	0.004	Yes	2.923	-0.004	4.0	GoodResponse	0	0.181	n/a	6	42	ButtonPress	Neutral	True
405.473	0.45	Control	0.6977	n/a	Yes	2.923	n/a	n/a	GoodResponse	0	n/a	n/a	6	42	Blank	Neutral	True
405.925	1.45	Control	0.6977	n/a	Yes	2.923	n/a	5.0	GoodResponse	0	0.044	404.969	6	42	Feedback	Neutral	True
407.379	2.923	Control	0.6977	n/a	Yes	2.923	n/a	n/a	GoodResponse	0	0.0	n/a	6	42	ISIslide	Neutral	True
410.321	0.25	Win2	0.7045	0.0	Yes	3.179	0.021	n/a	GoodResponse	1	n/a	n/a	7	43	Cue	Win	True
410.572	4.0	Win2	0.7045	0.0	Yes	3.179	0.001	n/a	GoodResponse	1	n/a	n/a	7	43	Fixation	Win	True
414.567	0.24	Win2	0.7045	0.004	Yes	3.179	-0.004	4.0	GoodResponse	1	0.188	413.755	7	43	Target	Win	True
414.755	0.3	Win2	0.7045	0.004	Yes	3.179	-0.004	4.0	GoodResponse	1	0.188	n/a	7	43	ButtonPress	Win	True
414.818	0.46	Win2	0.7045	n/a	Yes	3.179	n/a	n/a	GoodResponse	1	n/a	n/a	7	43	Blank	Win	True
415.269	1.45	Win2	0.7045	n/a	Yes	3.179	n/a	5.0	GoodResponse	1	0.016	414.285	7	43	Feedback	Win	True
416.724	3.179	Win2	0.7045	n/a	Yes	3.179	n/a	n/a	GoodResponse	1	0.0	n/a	7	43	ISIslide	Win	True
419.916	0.25	Win2	0.7111	0.001	Yes	2.984	0.016	n/a	GoodResponse	1	n/a	n/a	8	44	Cue	Win	True
420.167	4.0	Win2	0.7111	0.0	Yes	2.984	0.001	n/a	GoodResponse	1	n/a	n/a	8	44	Fixation	Win	True
424.162	0.23	Win2	0.7111	0.004	Yes	2.984	-0.004	4.0	GoodResponse	1	0.187	423.349	8	44	Target	Win	True
424.349	0.3	Win2	0.7111	0.004	Yes	2.984	-0.004	4.0	GoodResponse	1	0.187	n/a	8	44	ButtonPress	Win	True
424.397	0.47	Win2	0.7111	n/a	Yes	2.984	n/a	n/a	GoodResponse	1	n/a	n/a	8	44	Blank	Win	True
424.865	1.45	Win2	0.7111	n/a	Yes	2.984	n/a	5.0	GoodResponse	1	0.03	423.895	8	44	Feedback	Win	True
426.319	2.984	Win2	0.7111	n/a	Yes	2.984	n/a	n/a	GoodResponse	1	0.0	n/a	8	44	ISIslide	Win	True
429.328	0.25	Control	0.6957	0.0	No	2.872	0.028	n/a	NoResponse	0	n/a	n/a	8	45	Cue	Neutral	True
429.579	4.1	Control	0.6957	0.0	No	2.872	0.001	n/a	NoResponse	0	n/a	n/a	8	45	Fixation	Neutral	True
433.674	0.22	Control	0.6957	0.004	No	2.872	-0.004	4.0	NoResponse	0	0.259	432.933	8	45	Target	Neutral	True
433.908	0.48	Control	0.6957	n/a	No	2.872	n/a	n/a	NoResponse	0	n/a	n/a	8	45	Blank	Neutral	True
433.933	0.3	Control	0.6957	0.004	No	2.872	-0.004	4.0	NoResponse	0	0.259	n/a	8	45	ButtonPress	Neutral	True
434.376	1.45	Control	0.6957	n/a	No	2.872	n/a	5.0	NoResponse	0	0.032	433.408	8	45	Feedback	Neutral	True
435.831	2.872	Control	0.6957	n/a	No	2.872	n/a	n/a	NoResponse	0	0.0	n/a	8	45	ISIslide	Neutral	True
438.723	0.25	Lose2	0.6809000000000001	0.0	No	3.377	0.023	n/a	NoResponse	-1	n/a	n/a	7	46	Cue	Loss	True
438.973	4.0	Lose2	0.6809000000000001	0.0	No	3.377	0.0	n/a	NoResponse	-1	n/a	n/a	7	46	Fixation	Loss	True
442.969	0.21	Lose2	0.6809000000000001	0.004	No	3.377	-0.004	4.0	NoResponse	-1	0.218	442.187	7	46	Target	Loss	True
443.186	0.49	Lose2	0.6809000000000001	n/a	No	3.377	n/a	n/a	NoResponse	-1	n/a	n/a	7	46	Blank	Loss	True
443.187	0.3	Lose2	0.6809000000000001	0.004	No	3.377	-0.004	4.0	NoResponse	-1	0.218	n/a	7	46	ButtonPress	Loss	True
443.671	1.45	Lose2	0.6809000000000001	n/a	No	3.377	n/a	5.0	NoResponse	-1	0.005	442.676	7	46	Feedback	Loss	True
445.125	3.377	Lose2	0.6809000000000001	n/a	No	3.377	n/a	n/a	NoResponse	-1	0.0	n/a	7	46	ISIslide	Loss	True
448.519	0.25	Lose2	0.6667000000000001	0.0	No	2.681	0.019	n/a	NoResponse	-1	n/a	n/a	6	47	Cue	Loss	True
448.769	4.0	Lose2	0.6667000000000001	0.0	No	2.681	0.0	n/a	NoResponse	-1	n/a	n/a	6	47	Fixation	Loss	True
452.765	0.2	Lose2	0.6667000000000001	0.004	No	2.681	-0.004	4.0	NoResponse	-1	0.205	451.97	6	47	Target	Loss	True
452.965	0.5	Lose2	0.6667000000000001	n/a	No	2.681	n/a	n/a	NoResponse	-1	n/a	n/a	6	47	Blank	Loss	True
452.97	0.3	Lose2	0.6667000000000001	0.004	No	2.681	-0.004	4.0	NoResponse	-1	0.205	n/a	6	47	ButtonPress	Loss	True
453.467	1.45	Lose2	0.6667000000000001	n/a	No	2.681	n/a	5.0	NoResponse	-1	0.013	452.48	6	47	Feedback	Loss	True
454.921	2.681	Lose2	0.6667000000000001	n/a	No	2.681	n/a	n/a	NoResponse	-1	0.0	n/a	6	47	ISIslide	Loss	True
457.629	0.25	Lose2	0.6531	0.0	No	3.021	0.029	n/a	NoResponse	-1	n/a	n/a	5	48	Cue	Loss	True
457.88	3.95	Lose2	0.6531	0.0	No	3.021	0.001	n/a	NoResponse	-1	n/a	n/a	5	48	Fixation	Loss	True
461.825	0.19	Lose2	0.6531	0.004	No	3.021	-0.004	4.0	NoResponse	-1	0.296	461.121	5	48	Target	Loss	True
462.026	0.51	Lose2	0.6531	n/a	No	3.021	n/a	n/a	NoResponse	-1	n/a	n/a	5	48	Blank	Loss	True
462.121	0.3	Lose2	0.6531	0.004	No	3.021	-0.004	4.0	NoResponse	-1	0.296	n/a	5	48	ButtonPress	Loss	True
462.527	1.45	Lose2	0.6531	n/a	No	3.021	n/a	5.0	NoResponse	-1	0.026	461.553	5	48	Feedback	Loss	True
463.981	3.021	Lose2	0.6531	n/a	No	3.021	n/a	n/a	NoResponse	-1	0.0	n/a	5	48	ISIslide	Loss	True
467.024	0.25	Control	0.64	0.0	No	2.876	0.024	n/a	LatePress	0	n/a	n/a	5	49	Cue	Neutral	True
467.275	4.0	Control	0.64	0.0	No	2.876	0.001	n/a	LatePress	0	n/a	n/a	5	49	Fixation	Neutral	True
471.27	0.2	Control	0.64	0.004	No	2.876	-0.004	4.0	LatePress	0	0.201	470.471	5	49	Target	Neutral	True
471.47	0.5	Control	0.64	n/a	No	2.876	n/a	n/a	LatePress	0	n/a	n/a	5	49	Blank	Neutral	True
471.471	0.3	Control	0.64	0.004	No	2.876	-0.004	4.0	LatePress	0	0.201	n/a	5	49	ButtonPress	Neutral	True
471.972	1.45	Control	0.64	n/a	No	2.876	n/a	5.0	LatePress	0	0.045	471.017	5	49	Feedback	Neutral	True
473.426	2.876	Control	0.64	n/a	No	2.876	n/a	n/a	LatePress	0	0.0	n/a	5	49	ISIslide	Neutral	True
476.318	0.25	Control	0.6470999999999999	0.0	Yes	2.782	0.018	n/a	GoodResponse	0	n/a	n/a	5	50	Cue	Neutral	True
476.569	4.0	Control	0.6470999999999999	0.0	Yes	2.782	0.001	n/a	GoodResponse	0	n/a	n/a	5	50	Fixation	Neutral	True
480.564	0.21	Control	0.6470999999999999	0.004	Yes	2.782	-0.004	4.0	GoodResponse	0	0.195	479.759	5	50	Target	Neutral	True
480.759	0.3	Control	0.6470999999999999	0.004	Yes	2.782	-0.004	4.0	GoodResponse	0	0.195	n/a	5	50	ButtonPress	Neutral	True
480.782	0.49	Control	0.6470999999999999	n/a	Yes	2.782	n/a	n/a	GoodResponse	0	n/a	n/a	5	50	Blank	Neutral	True
481.266	1.45	Control	0.6470999999999999	n/a	Yes	2.782	n/a	5.0	GoodResponse	0	0.019	480.285	5	50	Feedback	Neutral	True
482.721	2.782	Control	0.6470999999999999	n/a	Yes	2.782	n/a	n/a	GoodResponse	0	0.0	n/a	5	50	ISIslide	Neutral	True
485.529	0.25	Control	0.6537999999999999	0.0	Yes	2.721	0.029	n/a	GoodResponse	0	n/a	n/a	5	51	Cue	Neutral	True
485.78	3.95	Control	0.6537999999999999	0.0	Yes	2.721	0.001	n/a	GoodResponse	0	n/a	n/a	5	51	Fixation	Neutral	True
489.725	0.22	Control	0.6537999999999999	0.004	Yes	2.721	-0.004	4.0	GoodResponse	0	0.193	488.918	5	51	Target	Neutral	True
489.918	0.3	Control	0.6537999999999999	0.004	Yes	2.721	-0.004	4.0	GoodResponse	0	0.193	n/a	5	51	ButtonPress	Neutral	True
489.959	0.48	Control	0.6537999999999999	n/a	Yes	2.721	n/a	n/a	GoodResponse	0	n/a	n/a	5	51	Blank	Neutral	True
490.427	1.45	Control	0.6537999999999999	n/a	Yes	2.721	n/a	5.0	GoodResponse	0	0.028	489.455	5	51	Feedback	Neutral	True
491.881	2.721	Control	0.6537999999999999	n/a	Yes	2.721	n/a	n/a	GoodResponse	0	0.0	n/a	5	51	ISIslide	Neutral	True
494.623	0.25	Control	0.6604000000000001	0.0	Yes	2.627	0.023	n/a	GoodResponse	0	n/a	n/a	5	52	Cue	Neutral	True
494.874	4.05	Control	0.6604000000000001	0.0	Yes	2.627	0.001	n/a	GoodResponse	0	n/a	n/a	5	52	Fixation	Neutral	True
498.919	0.23	Control	0.6604000000000001	0.004	Yes	2.627	-0.004	4.0	GoodResponse	0	0.197	498.116	5	52	Target	Neutral	True
499.116	0.3	Control	0.6604000000000001	0.004	Yes	2.627	-0.004	4.0	GoodResponse	0	0.197	n/a	5	52	ButtonPress	Neutral	True
499.153	0.47	Control	0.6604000000000001	n/a	Yes	2.627	n/a	n/a	GoodResponse	0	n/a	n/a	5	52	Blank	Neutral	True
499.621	1.45	Control	0.6604000000000001	n/a	Yes	2.627	n/a	5.0	GoodResponse	0	0.005	498.626	5	52	Feedback	Neutral	True
501.076	2.627	Control	0.6604000000000001	n/a	Yes	2.627	n/a	n/a	GoodResponse	0	0.0	n/a	5	52	ISIslide	Neutral	True
503.717	0.25	Win2	0.6667000000000001	0.0	Yes	2.933	0.017	n/a	GoodResponse	1	n/a	n/a	6	53	Cue	Win	True
503.967	4.05	Win2	0.6667000000000001	0.001	Yes	2.933	0.0	n/a	GoodResponse	1	n/a	n/a	6	53	Fixation	Win	True
508.013	0.23	Win2	0.6667000000000001	0.004	Yes	2.933	-0.004	4.0	GoodResponse	1	0.2	507.213	6	53	Target	Win	True
508.213	0.3	Win2	0.6667000000000001	0.004	Yes	2.933	-0.004	4.0	GoodResponse	1	0.2	n/a	6	53	ButtonPress	Win	True
508.247	0.47	Win2	0.6667000000000001	n/a	Yes	2.933	n/a	n/a	GoodResponse	1	n/a	n/a	6	53	Blank	Win	True
508.715	1.45	Win2	0.6667000000000001	n/a	Yes	2.933	n/a	5.0	GoodResponse	1	0.033	507.748	6	53	Feedback	Win	True
510.169	2.933	Win2	0.6667000000000001	n/a	Yes	2.933	n/a	n/a	GoodResponse	1	0.0	n/a	6	53	ISIslide	Win	True
513.128	0.25	Win2	0.6727	0.0	Yes	2.722	0.028	n/a	GoodResponse	1	n/a	n/a	7	54	Cue	Win	True
513.379	3.95	Win2	0.6727	0.0	Yes	2.722	0.001	n/a	GoodResponse	1	n/a	n/a	7	54	Fixation	Win	True
517.324	0.22	Win2	0.6727	0.004	Yes	2.722	-0.004	4.0	GoodResponse	1	0.213	516.537	7	54	Target	Win	True
517.537	0.3	Win2	0.6727	0.004	Yes	2.722	-0.004	4.0	GoodResponse	1	0.213	n/a	7	54	ButtonPress	Win	True
517.558	0.48	Win2	0.6727	n/a	Yes	2.722	n/a	n/a	GoodResponse	1	n/a	n/a	7	54	Blank	Win	True
518.026	1.45	Win2	0.6727	n/a	Yes	2.722	n/a	5.0	GoodResponse	1	0.039	517.065	7	54	Feedback	Win	True
519.48	2.722	Win2	0.6727	n/a	Yes	2.722	n/a	n/a	GoodResponse	1	0.0	n/a	7	54	ISIslide	Win	True
522.222	0.25	Control	0.6786	0.0	Yes	3.028	0.022	n/a	GoodResponse	0	n/a	n/a	7	55	Cue	Neutral	True
522.473	3.95	Control	0.6786	0.0	Yes	3.028	0.001	n/a	GoodResponse	0	n/a	n/a	7	55	Fixation	Neutral	True
526.418	0.21	Control	0.6786	0.004	Yes	3.028	-0.004	4.0	GoodResponse	0	0.184	525.602	7	55	Target	Neutral	True
526.602	0.3	Control	0.6786	0.004	Yes	3.028	-0.004	4.0	GoodResponse	0	0.184	n/a	7	55	ButtonPress	Neutral	True
526.635	0.49	Control	0.6786	n/a	Yes	3.028	n/a	n/a	GoodResponse	0	n/a	n/a	7	55	Blank	Neutral	True
527.12	1.45	Control	0.6786	n/a	Yes	3.028	n/a	5.0	GoodResponse	0	0.017	526.137	7	55	Feedback	Neutral	True
528.574	3.028	Control	0.6786	n/a	Yes	3.028	n/a	n/a	GoodResponse	0	0.0	n/a	7	55	ISIslide	Neutral	True
531.617	0.25	Control	0.6842	0.0	Yes	2.833	0.017	n/a	GoodResponse	0	n/a	n/a	7	56	Cue	Neutral	True
531.867	3.95	Control	0.6842	0.001	Yes	2.833	0.0	n/a	GoodResponse	0	n/a	n/a	7	56	Fixation	Neutral	True
535.813	0.2	Control	0.6842	0.004	Yes	2.833	-0.004	4.0	GoodResponse	0	0.193	535.006	7	56	Target	Neutral	True
536.006	0.3	Control	0.6842	0.004	Yes	2.833	-0.004	4.0	GoodResponse	0	0.193	n/a	7	56	ButtonPress	Neutral	True
536.013	0.5	Control	0.6842	n/a	Yes	2.833	n/a	n/a	GoodResponse	0	n/a	n/a	7	56	Blank	Neutral	True
536.515	1.45	Control	0.6842	n/a	Yes	2.833	n/a	5.0	GoodResponse	0	0.037	535.552	7	56	Feedback	Neutral	True
537.969	2.833	Control	0.6842	n/a	Yes	2.833	n/a	n/a	GoodResponse	0	0.0	n/a	7	56	ISIslide	Neutral	True
540.828	0.25	Control	0.6724	0.0	No	3.472	0.028	n/a	NoResponse	0	n/a	n/a	7	57	Cue	Neutral	True
541.078	4.0	Control	0.6724	0.0	No	3.472	0.0	n/a	NoResponse	0	n/a	n/a	7	57	Fixation	Neutral	True
545.074	0.19	Control	0.6724	0.004	No	3.472	-0.004	4.0	NoResponse	0	0.211	544.285	7	57	Target	Neutral	True
545.274	0.51	Control	0.6724	n/a	No	3.472	n/a	n/a	NoResponse	0	n/a	n/a	7	57	Blank	Neutral	True
545.285	0.3	Control	0.6724	0.004	No	3.472	-0.004	4.0	NoResponse	0	0.211	n/a	7	57	ButtonPress	Neutral	True
545.776	1.45	Control	0.6724	n/a	No	3.472	n/a	5.0	NoResponse	0	0.044	544.82	7	57	Feedback	Neutral	True
547.23	3.472	Control	0.6724	n/a	No	3.472	n/a	n/a	NoResponse	0	0.0	n/a	7	57	ISIslide	Neutral	True
550.724	0.25	Win2	0.6609999999999999	0.0	No	2.726	0.024	n/a	NoResponse	0	n/a	n/a	7	58	Cue	MissedWin	True
550.975	4.05	Win2	0.6609999999999999	0.0	No	2.726	0.001	n/a	NoResponse	0	n/a	n/a	7	58	Fixation	MissedWin	True
555.02	0.18	Win2	0.6609999999999999	0.004	No	2.726	-0.004	4.0	NoResponse	0	0.193	554.213	7	58	Target	MissedWin	True
555.204	0.52	Win2	0.6609999999999999	n/a	No	2.726	n/a	n/a	NoResponse	0	n/a	n/a	7	58	Blank	MissedWin	True
555.213	0.3	Win2	0.6609999999999999	0.004	No	2.726	-0.004	4.0	NoResponse	0	0.193	n/a	7	58	ButtonPress	MissedWin	True
555.722	1.45	Win2	0.6609999999999999	n/a	No	2.726	n/a	5.0	NoResponse	0	0.001	554.723	7	58	Feedback	MissedWin	True
557.176	2.726	Win2	0.6609999999999999	n/a	No	2.726	n/a	n/a	NoResponse	0	0.0	n/a	7	58	ISIslide	MissedWin	True
559.918	0.25	Lose2	0.65	0.0	No	2.682	0.018	n/a	NoResponse	-1	n/a	n/a	6	59	Cue	Loss	True
560.169	4.0	Lose2	0.65	0.0	No	2.682	0.001	n/a	NoResponse	-1	n/a	n/a	6	59	Fixation	Loss	True
564.164	0.18	Lose2	0.65	0.004	No	2.682	-0.004	4.0	NoResponse	-1	0.207	563.371	6	59	Target	Loss	True
564.348	0.52	Lose2	0.65	n/a	No	2.682	n/a	n/a	NoResponse	-1	n/a	n/a	6	59	Blank	Loss	True
564.371	0.3	Lose2	0.65	0.004	No	2.682	-0.004	4.0	NoResponse	-1	0.207	n/a	6	59	ButtonPress	Loss	True
564.866	1.45	Lose2	0.65	n/a	No	2.682	n/a	5.0	NoResponse	-1	0.027	563.893	6	59	Feedback	Loss	True
566.32	2.682	Lose2	0.65	n/a	No	2.682	n/a	n/a	NoResponse	-1	0.0	n/a	6	59	ISIslide	Loss	True
569.028	0.25	Control	0.6393	0.001	No	2.672	0.028	n/a	LatePress	0	n/a	n/a	6	60	Cue	Neutral	True
569.279	4.0	Control	0.6393	0.0	No	2.672	0.001	n/a	LatePress	0	n/a	n/a	6	60	Fixation	Neutral	True
573.274	0.19	Control	0.6393	0.004	No	2.672	-0.004	4.0	LatePress	0	0.19	572.464	6	60	Target	Neutral	True
573.464	0.3	Control	0.6393	0.004	No	2.672	-0.004	4.0	LatePress	0	0.19	n/a	6	60	ButtonPress	Neutral	True
573.475	0.51	Control	0.6393	n/a	No	2.672	n/a	n/a	LatePress	0	n/a	n/a	6	60	Blank	Neutral	True
573.977	1.45	Control	0.6393	n/a	No	2.672	n/a	5.0	LatePress	0	0.038	573.015	6	60	Feedback	Neutral	True
575.431	2.672	Control	0.6393	n/a	No	2.672	n/a	n/a	LatePress	0	0.0	n/a	6	60	ISIslide	Neutral	True
578.122	0.25	Lose2	0.6452	0.0	Yes	2.978	0.022	n/a	GoodResponse	0	n/a	n/a	6	61	Cue	AvoidedLoss	True
578.373	4.0	Lose2	0.6452	0.0	Yes	2.978	0.001	n/a	GoodResponse	0	n/a	n/a	6	61	Fixation	AvoidedLoss	True
582.368	0.2	Lose2	0.6452	0.004	Yes	2.978	-0.004	4.0	GoodResponse	0	0.197	581.565	6	61	Target	AvoidedLoss	True
582.565	0.3	Lose2	0.6452	0.004	Yes	2.978	-0.004	4.0	GoodResponse	0	0.197	n/a	6	61	ButtonPress	AvoidedLoss	True
582.569	0.5	Lose2	0.6452	n/a	Yes	2.978	n/a	n/a	GoodResponse	0	n/a	n/a	6	61	Blank	AvoidedLoss	True
583.07	1.45	Lose2	0.6452	n/a	Yes	2.978	n/a	5.0	GoodResponse	0	0.018	582.088	6	61	Feedback	AvoidedLoss	True
584.525	2.978	Lose2	0.6452	n/a	Yes	2.978	n/a	n/a	GoodResponse	0	0.0	n/a	6	61	ISIslide	AvoidedLoss	True
587.517	0.25	Lose2	0.6349	0.0	No	2.883	0.017	n/a	NoResponse	-1	n/a	n/a	5	62	Cue	Loss	True
587.768	3.9	Lose2	0.6349	0.0	No	2.883	0.001	n/a	NoResponse	-1	n/a	n/a	5	62	Fixation	Loss	True
591.663	0.21	Lose2	0.6349	0.004	No	2.883	-0.004	4.0	NoResponse	-1	0.235	590.898	5	62	Target	Loss	True
591.88	0.49	Lose2	0.6349	n/a	No	2.883	n/a	n/a	NoResponse	-1	n/a	n/a	5	62	Blank	Loss	True
591.898	0.3	Lose2	0.6349	0.004	No	2.883	-0.004	4.0	NoResponse	-1	0.235	n/a	5	62	ButtonPress	Loss	True
592.365	1.45	Lose2	0.6349	n/a	No	2.883	n/a	5.0	NoResponse	-1	0.04	591.405	5	62	Feedback	Loss	True
593.819	2.883	Lose2	0.6349	n/a	No	2.883	n/a	n/a	NoResponse	-1	0.0	n/a	5	62	ISIslide	Loss	True
596.728	0.25	Lose2	0.6406000000000001	0.0	Yes	2.622	0.028	n/a	GoodResponse	0	n/a	n/a	5	63	Cue	AvoidedLoss	True
596.979	4.05	Lose2	0.6406000000000001	0.0	Yes	2.622	0.001	n/a	GoodResponse	0	n/a	n/a	5	63	Fixation	AvoidedLoss	True
601.024	0.22	Lose2	0.6406000000000001	0.004	Yes	2.622	-0.004	4.0	GoodResponse	0	0.196	600.22	5	63	Target	AvoidedLoss	True
601.22	0.3	Lose2	0.6406000000000001	0.004	Yes	2.622	-0.004	4.0	GoodResponse	0	0.196	n/a	5	63	ButtonPress	AvoidedLoss	True
601.258	0.48	Lose2	0.6406000000000001	n/a	Yes	2.622	n/a	n/a	GoodResponse	0	n/a	n/a	5	63	Blank	AvoidedLoss	True
601.726	1.45	Lose2	0.6406000000000001	n/a	Yes	2.622	n/a	5.0	GoodResponse	0	0.044	600.77	5	63	Feedback	AvoidedLoss	True
603.18	2.622	Lose2	0.6406000000000001	n/a	Yes	2.622	n/a	n/a	GoodResponse	0	0.0	n/a	5	63	ISIslide	AvoidedLoss	True
605.822	0.25	Win2	0.6308	0.0	No	3.128	0.022	n/a	NoResponse	0	n/a	n/a	5	64	Cue	MissedWin	True
606.072	4.15	Win2	0.6308	0.0	No	3.128	0.0	n/a	NoResponse	0	n/a	n/a	5	64	Fixation	MissedWin	True
610.218	0.23	Win2	0.6308	0.004	No	3.128	-0.004	4.0	NoResponse	0	0.24	609.458	5	64	Target	MissedWin	True
610.452	0.47	Win2	0.6308	n/a	No	3.128	n/a	n/a	NoResponse	0	n/a	n/a	5	64	Blank	MissedWin	True
610.458	0.3	Win2	0.6308	0.004	No	3.128	-0.004	4.0	NoResponse	0	0.24	n/a	5	64	ButtonPress	MissedWin	True
610.92	1.45	Win2	0.6308	n/a	No	3.128	n/a	5.0	NoResponse	0	0.021	609.941	5	64	Feedback	MissedWin	True
612.375	3.128	Win2	0.6308	n/a	No	3.128	n/a	n/a	NoResponse	0	0.0	n/a	5	64	ISIslide	MissedWin	True
615.517	0.25	Control	0.6364	0.0	Yes	2.783	0.017	n/a	GoodResponse	0	n/a	n/a	5	65	Cue	Neutral	True
615.768	4.0	Control	0.6364	0.0	Yes	2.783	0.001	n/a	GoodResponse	0	n/a	n/a	5	65	Fixation	Neutral	True
619.763	0.24	Control	0.6364	0.004	Yes	2.783	-0.004	4.0	GoodResponse	0	0.184	618.947	5	65	Target	Neutral	True
619.947	0.3	Control	0.6364	0.004	Yes	2.783	-0.004	4.0	GoodResponse	0	0.184	n/a	5	65	ButtonPress	Neutral	True
620.014	0.46	Control	0.6364	n/a	Yes	2.783	n/a	n/a	GoodResponse	0	n/a	n/a	5	65	Blank	Neutral	True
620.465	1.45	Control	0.6364	n/a	Yes	2.783	n/a	5.0	GoodResponse	0	0.037	619.502	5	65	Feedback	Neutral	True
621.92	2.783	Control	0.6364	n/a	Yes	2.783	n/a	n/a	GoodResponse	0	0.0	n/a	5	65	ISIslide	Neutral	True
624.728	0.25	Win2	0.6418	0.0	Yes	2.772	0.028	n/a	GoodResponse	1	n/a	n/a	6	66	Cue	Win	True
624.979	3.9	Win2	0.6418	0.0	Yes	2.772	0.001	n/a	GoodResponse	1	n/a	n/a	6	66	Fixation	Win	True
628.874	0.25	Win2	0.6418	0.004	Yes	2.772	-0.004	4.0	GoodResponse	1	0.191	628.065	6	66	Target	Win	True
629.065	0.3	Win2	0.6418	0.004	Yes	2.772	-0.004	4.0	GoodResponse	1	0.191	n/a	6	66	ButtonPress	Win	True
629.125	0.45	Win2	0.6418	n/a	Yes	2.772	n/a	n/a	GoodResponse	1	n/a	n/a	6	66	Blank	Win	True
629.576	1.45	Win2	0.6418	n/a	Yes	2.772	n/a	5.0	GoodResponse	1	0.048	628.624	6	66	Feedback	Win	True
631.03	2.772	Win2	0.6418	n/a	Yes	2.772	n/a	n/a	GoodResponse	1	0.0	n/a	6	66	ISIslide	Win	True
633.822	0.25	Control	0.6470999999999999	0.0	Yes	2.728	0.022	n/a	GoodResponse	0	n/a	n/a	6	67	Cue	Neutral	True
634.073	3.95	Control	0.6470999999999999	0.0	Yes	2.728	0.001	n/a	GoodResponse	0	n/a	n/a	6	67	Fixation	Neutral	True
638.018	0.26	Control	0.6470999999999999	0.004	Yes	2.728	-0.004	4.0	GoodResponse	0	0.167	637.185	6	67	Target	Neutral	True
638.185	0.3	Control	0.6470999999999999	0.004	Yes	2.728	-0.004	4.0	GoodResponse	0	0.167	n/a	6	67	ButtonPress	Neutral	True
638.285	0.44	Control	0.6470999999999999	n/a	Yes	2.728	n/a	n/a	GoodResponse	0	n/a	n/a	6	67	Blank	Neutral	True
638.72	1.45	Control	0.6470999999999999	n/a	Yes	2.728	n/a	5.0	GoodResponse	0	0.025	637.745	6	67	Feedback	Neutral	True
640.174	2.728	Control	0.6470999999999999	n/a	Yes	2.728	n/a	n/a	GoodResponse	0	0.0	n/a	6	67	ISIslide	Neutral	True
642.916	0.25	Win2	0.6522	0.0	Yes	3.084	0.016	n/a	GoodResponse	1	n/a	n/a	7	68	Cue	Win	True
643.167	4.0	Win2	0.6522	0.0	Yes	3.084	0.001	n/a	GoodResponse	1	n/a	n/a	7	68	Fixation	Win	True
647.162	0.27	Win2	0.6522	0.004	Yes	3.084	-0.004	4.0	GoodResponse	1	0.192	646.354	7	68	Target	Win	True
647.354	0.3	Win2	0.6522	0.004	Yes	3.084	-0.004	4.0	GoodResponse	1	0.192	n/a	7	68	ButtonPress	Win	True
647.446	0.43	Win2	0.6522	n/a	Yes	3.084	n/a	n/a	GoodResponse	1	n/a	n/a	7	68	Blank	Win	True
647.864	1.45	Win2	0.6522	n/a	Yes	3.084	n/a	5.0	GoodResponse	1	0.005	646.869	7	68	Feedback	Win	True
649.318	3.084	Win2	0.6522	n/a	Yes	3.084	n/a	n/a	GoodResponse	1	0.0	n/a	7	68	ISIslide	Win	True
652.428	0.25	Win2	0.6429	0.0	No	3.222	0.028	n/a	NoResponse	0	n/a	n/a	7	69	Cue	MissedWin	True
652.678	3.95	Win2	0.6429	0.0	No	3.222	0.0	n/a	NoResponse	0	n/a	n/a	7	69	Fixation	MissedWin	True
656.64	0.28	Win2	0.6429	0.0	No	3.222	0.012	4.0	NoResponse	0	0.321	655.961	7	69	Target	MissedWin	True
656.908	0.42	Win2	0.6429	n/a	No	3.222	n/a	n/a	NoResponse	0	n/a	n/a	7	69	Blank	MissedWin	True
656.961	0.3	Win2	0.6429	0.0	No	3.222	0.012	4.0	NoResponse	0	0.321	n/a	7	69	ButtonPress	MissedWin	True
657.325	1.45	Win2	0.6429	n/a	No	3.222	n/a	5.0	NoResponse	0	0.006	656.331	7	69	Feedback	MissedWin	True
658.78	3.222	Win2	0.6429	n/a	No	3.222	n/a	n/a	NoResponse	0	0.0	n/a	7	69	ISIslide	MissedWin	True
662.023	0.25	Lose2	0.6479	0.0	Yes	3.027	0.023	n/a	GoodResponse	0	n/a	n/a	7	70	Cue	AvoidedLoss	True
662.274	4.05	Lose2	0.6479	0.0	Yes	3.027	0.001	n/a	GoodResponse	0	n/a	n/a	7	70	Fixation	AvoidedLoss	True
666.319	0.29	Lose2	0.6479	0.004	Yes	3.027	-0.004	4.0	GoodResponse	0	0.202	665.521	7	70	Target	AvoidedLoss	True
666.521	0.3	Lose2	0.6479	0.004	Yes	3.027	-0.004	4.0	GoodResponse	0	0.202	n/a	7	70	ButtonPress	AvoidedLoss	True
666.62	0.41	Lose2	0.6479	n/a	Yes	3.027	n/a	n/a	GoodResponse	0	n/a	n/a	7	70	Blank	AvoidedLoss	True
667.021	1.45	Lose2	0.6479	n/a	Yes	3.027	n/a	5.0	GoodResponse	0	0.017	666.038	7	70	Feedback	AvoidedLoss	True
668.475	3.027	Lose2	0.6479	n/a	Yes	3.027	n/a	n/a	GoodResponse	0	0.0	n/a	7	70	ISIslide	AvoidedLoss	True
671.518	0.25	Win2	0.6528	0.0	Yes	2.732	0.018	n/a	GoodResponse	1	n/a	n/a	8	71	Cue	Win	True
671.769	4.05	Win2	0.6528	0.0	Yes	2.732	0.001	n/a	GoodResponse	1	n/a	n/a	8	71	Fixation	Win	True
675.814	0.3	Win2	0.6528	0.004	Yes	2.732	-0.004	4.0	GoodResponse	1	0.186	675.0	8	71	Target	Win	True
676	0.3	Win2	0.6528	0.004	Yes	2.732	-0.004	4.0	GoodResponse	1	0.186	n/a	8	71	ButtonPress	Win	True
676.115	0.4	Win2	0.6528	n/a	Yes	2.732	n/a	n/a	GoodResponse	1	n/a	n/a	8	71	Blank	Win	True
676.516	1.45	Win2	0.6528	n/a	Yes	2.732	n/a	5.0	GoodResponse	1	0.034	675.55	8	71	Feedback	Win	True
677.97	2.732	Win2	0.6528	n/a	Yes	2.732	n/a	n/a	GoodResponse	1	0.0	n/a	8	71	ISIslide	Win	True
680.729	0.25	Win2	0.6575	0.0	Yes	2.771	0.029	n/a	GoodResponse	1	n/a	n/a	9	72	Cue	Win	True
680.979	4.1	Win2	0.6575	0.001	Yes	2.771	0.0	n/a	GoodResponse	1	n/a	n/a	9	72	Fixation	Win	True
685.075	0.31	Win2	0.6575	0.004	Yes	2.771	-0.004	4.0	GoodResponse	1	0.206	684.281	9	72	Target	Win	True
685.281	0.3	Win2	0.6575	0.004	Yes	2.771	-0.004	4.0	GoodResponse	1	0.206	n/a	9	72	ButtonPress	Win	True
685.393	0.39	Win2	0.6575	n/a	Yes	2.771	n/a	n/a	GoodResponse	1	n/a	n/a	9	72	Blank	Win	True
685.777	1.45	Win2	0.6575	n/a	Yes	2.771	n/a	5.0	GoodResponse	1	0.041	684.818	9	72	Feedback	Win	True
687.231	2.771	Win2	0.6575	n/a	Yes	2.771	n/a	n/a	GoodResponse	1	0.0	n/a	9	72	ISIslide	Win	True
690.023	0.25	Win2	0.6622	0.0	Yes	2.677	0.023	n/a	GoodResponse	1	n/a	n/a	10	73	Cue	Win	True
690.274	4.0	Win2	0.6622	0.0	Yes	2.677	0.001	n/a	GoodResponse	1	n/a	n/a	10	73	Fixation	Win	True
694.269	0.31	Win2	0.6622	0.004	Yes	2.677	-0.004	4.0	GoodResponse	1	0.26	693.529	10	73	Target	Win	True
694.529	0.3	Win2	0.6622	0.004	Yes	2.677	-0.004	4.0	GoodResponse	1	0.26	n/a	10	73	ButtonPress	Win	True
694.587	0.39	Win2	0.6622	n/a	Yes	2.677	n/a	n/a	GoodResponse	1	n/a	n/a	10	73	Blank	Win	True
694.971	1.45	Win2	0.6622	n/a	Yes	2.677	n/a	5.0	GoodResponse	1	0.018	693.989	10	73	Feedback	Win	True
696.426	2.677	Win2	0.6622	n/a	Yes	2.677	n/a	n/a	GoodResponse	1	0.0	n/a	10	73	ISIslide	Win	True
699.117	0.25	Lose2	0.6667000000000001	0.0	Yes	2.633	0.017	n/a	GoodResponse	0	n/a	n/a	10	74	Cue	AvoidedLoss	True
699.368	4.05	Lose2	0.6667000000000001	0.0	Yes	2.633	0.001	n/a	GoodResponse	0	n/a	n/a	10	74	Fixation	AvoidedLoss	True
703.413	0.31	Lose2	0.6667000000000001	0.004	Yes	2.633	-0.004	4.0	GoodResponse	0	0.184	702.597	10	74	Target	AvoidedLoss	True
703.597	0.3	Lose2	0.6667000000000001	0.004	Yes	2.633	-0.004	4.0	GoodResponse	0	0.184	n/a	10	74	ButtonPress	AvoidedLoss	True
703.731	0.39	Lose2	0.6667000000000001	n/a	Yes	2.633	n/a	n/a	GoodResponse	0	n/a	n/a	10	74	Blank	AvoidedLoss	True
704.115	1.45	Lose2	0.6667000000000001	n/a	Yes	2.633	n/a	5.0	GoodResponse	0	0.045	703.16	10	74	Feedback	AvoidedLoss	True
705.57	2.633	Lose2	0.6667000000000001	n/a	Yes	2.633	n/a	n/a	GoodResponse	0	0.0	n/a	10	74	ISIslide	AvoidedLoss	True
708.228	0.25	Lose2	0.6711	0.0	Yes	2.922	0.028	n/a	GoodResponse	0	n/a	n/a	10	75	Cue	AvoidedLoss	True
708.478	3.95	Lose2	0.6711	0.0	Yes	2.922	0.0	n/a	GoodResponse	0	n/a	n/a	10	75	Fixation	AvoidedLoss	True
712.44	0.3	Lose2	0.6711	0.0	Yes	2.922	0.012	4.0	GoodResponse	0	0.284	711.724	10	75	Target	AvoidedLoss	True
712.724	0.4	Lose2	0.6711	n/a	Yes	2.922	n/a	n/a	GoodResponse	0	n/a	n/a	10	75	Blank	AvoidedLoss	True
712.724	0.3	Lose2	0.6711	0.0	Yes	2.922	0.012	4.0	GoodResponse	0	0.284	n/a	10	75	ButtonPress	AvoidedLoss	True
713.125	1.45	Lose2	0.6711	n/a	Yes	2.922	n/a	5.0	GoodResponse	0	0.009	712.134	10	75	Feedback	AvoidedLoss	True
714.58	2.922	Lose2	0.6711	n/a	Yes	2.922	n/a	n/a	GoodResponse	0	0.0	n/a	10	75	ISIslide	AvoidedLoss	True
717.522	0.25	Control	0.6753	0.0	Yes	3.228	0.022	n/a	GoodResponse	0	n/a	n/a	10	76	Cue	Neutral	True
717.773	4.05	Control	0.6753	0.0	Yes	3.228	0.001	n/a	GoodResponse	0	n/a	n/a	10	76	Fixation	Neutral	True
721.818	0.29	Control	0.6753	0.004	Yes	3.228	-0.004	4.0	GoodResponse	0	0.185	721.003	10	76	Target	Neutral	True
722.003	0.3	Control	0.6753	0.004	Yes	3.228	-0.004	4.0	GoodResponse	0	0.185	n/a	10	76	ButtonPress	Neutral	True
722.119	0.41	Control	0.6753	n/a	Yes	3.228	n/a	n/a	GoodResponse	0	n/a	n/a	10	76	Blank	Neutral	True
722.52	1.45	Control	0.6753	n/a	Yes	3.228	n/a	5.0	GoodResponse	0	0.029	721.549	10	76	Feedback	Neutral	True
723.975	3.228	Control	0.6753	n/a	Yes	3.228	n/a	n/a	GoodResponse	0	0.0	n/a	10	76	ISIslide	Neutral	True
727.218	0.25	Lose2	0.6795	0.0	Yes	2.582	0.018	n/a	GoodResponse	0	n/a	n/a	10	77	Cue	AvoidedLoss	True
727.468	3.95	Lose2	0.6795	0.0	Yes	2.582	0.0	n/a	GoodResponse	0	n/a	n/a	10	77	Fixation	AvoidedLoss	True
731.413	0.28	Lose2	0.6795	0.005	Yes	2.582	-0.005	4.0	GoodResponse	0	0.201	730.614	10	77	Target	AvoidedLoss	True
731.614	0.3	Lose2	0.6795	0.005	Yes	2.582	-0.005	4.0	GoodResponse	0	0.201	n/a	10	77	ButtonPress	AvoidedLoss	True
731.698	0.42	Lose2	0.6795	n/a	Yes	2.582	n/a	n/a	GoodResponse	0	n/a	n/a	10	77	Blank	AvoidedLoss	True
732.116	1.45	Lose2	0.6795	n/a	Yes	2.582	n/a	5.0	GoodResponse	0	0.043	731.159	10	77	Feedback	AvoidedLoss	True
733.57	2.582	Lose2	0.6795	n/a	Yes	2.582	n/a	n/a	GoodResponse	0	0.0	n/a	10	77	ISIslide	AvoidedLoss	True
