onset	duration	cue_type	current_mean_accuracy	duration_error	is_hit	isi_adjusted	onset_delay	response	response_type	reward	rt	rt_time	total_reward	trial_number	trial_phase	trial_type	one_press
11.098	0.25	Control	1.0	0.0	Yes	2.952	-0.002	n/a	GoodResponse	0	n/a	n/a	0	0	Cue	Neutral	True
11.349	3.85	Control	1.0	0.0	Yes	2.952	0.001	n/a	GoodResponse	0	n/a	n/a	0	0	Fixation	Neutral	True
15.194	0.4	Control	1.0	0.004	Yes	2.952	-0.004	2.0	GoodResponse	0	0.39	14.584	0	0	Target	Neutral	True
15.584	0.3	Control	1.0	0.004	Yes	2.952	-0.004	2.0	GoodResponse	0	0.39	n/a	0	0	ButtonPress	Neutral	True
15.595	0.3	Control	1.0	n/a	Yes	2.952	n/a	n/a	GoodResponse	0	n/a	n/a	0	0	Blank	Neutral	True
15.896	1.45	Control	1.0	n/a	Yes	2.952	n/a	5.0	GoodResponse	0	0.031	14.927	0	0	Feedback	Neutral	True
17.35	2.952	Control	1.0	n/a	Yes	2.952	n/a	n/a	GoodResponse	0	0.0	n/a	0	0	ISIslide	Neutral	True
20.326	0.25	Lose2	1.0	0.0	Yes	2.774	0.026	n/a	GoodResponse	0	n/a	n/a	0	1	Cue	AvoidedLoss	True
20.577	4.0	Lose2	1.0	0.0	Yes	2.774	0.001	n/a	GoodResponse	0	n/a	n/a	0	1	Fixation	AvoidedLoss	True
24.572	0.39	Lose2	1.0	0.004	Yes	2.774	-0.004	2.0	GoodResponse	0	0.324	23.896	0	1	Target	AvoidedLoss	True
24.896	0.3	Lose2	1.0	0.004	Yes	2.774	-0.004	2.0	GoodResponse	0	0.324	n/a	0	1	ButtonPress	AvoidedLoss	True
24.973	0.31	Lose2	1.0	n/a	Yes	2.774	n/a	n/a	GoodResponse	0	n/a	n/a	0	1	Blank	AvoidedLoss	True
25.274	1.45	Lose2	1.0	n/a	Yes	2.774	n/a	5.0	GoodResponse	0	0.019	24.293	0	1	Feedback	AvoidedLoss	True
26.728	2.774	Lose2	1.0	n/a	Yes	2.774	n/a	n/a	GoodResponse	0	0.0	n/a	0	1	ISIslide	AvoidedLoss	True
29.52	0.25	Control	0.6667000000000001	0.0	No	2.58	0.02	n/a	NoResponse	0	n/a	n/a	0	2	Cue	Neutral	True
29.771	4.1	Control	0.6667000000000001	0.0	No	2.58	0.001	n/a	NoResponse	0	n/a	n/a	0	2	Fixation	Neutral	True
33.866	0.38	Control	0.6667000000000001	0.004	No	2.58	-0.004	2.0	NoResponse	0	0.481	33.347	0	2	Target	Neutral	True
34.251	0.32	Control	0.6667000000000001	n/a	No	2.58	n/a	n/a	NoResponse	0	n/a	n/a	0	2	Blank	Neutral	True
34.347	0.3	Control	0.6667000000000001	0.004	No	2.58	-0.004	2.0	NoResponse	0	0.481	n/a	0	2	ButtonPress	Neutral	True
34.568	1.45	Control	0.6667000000000001	n/a	No	2.58	n/a	5.0	NoResponse	0	0.041	33.609	0	2	Feedback	Neutral	True
36.023	2.58	Control	0.6667000000000001	n/a	No	2.58	n/a	n/a	NoResponse	0	0.0	n/a	0	2	ISIslide	Neutral	True
38.63	0.25	Win2	0.75	0.001	Yes	2.82	0.03	n/a	GoodResponse	1	n/a	n/a	1	3	Cue	Win	True
38.881	3.95	Win2	0.75	0.0	Yes	2.82	0.001	n/a	GoodResponse	1	n/a	n/a	1	3	Fixation	Win	True
42.826	0.37	Win2	0.75	0.004	Yes	2.82	-0.004	2.0	GoodResponse	1	0.299	42.125	1	3	Target	Win	True
43.125	0.3	Win2	0.75	0.004	Yes	2.82	-0.004	2.0	GoodResponse	1	0.299	n/a	1	3	ButtonPress	Win	True
43.211	0.33	Win2	0.75	n/a	Yes	2.82	n/a	n/a	GoodResponse	1	n/a	n/a	1	3	Blank	Win	True
43.528	1.45	Win2	0.75	n/a	Yes	2.82	n/a	5.0	GoodResponse	1	0.008	42.536	1	3	Feedback	Win	True
44.983	2.82	Win2	0.75	n/a	Yes	2.82	n/a	n/a	GoodResponse	1	0.0	n/a	1	3	ISIslide	Win	True
47.825	0.25	Win2	0.8	0.0	Yes	3.275	0.025	n/a	GoodResponse	1	n/a	n/a	2	4	Cue	Win	True
48.075	4.0	Win2	0.8	0.0	Yes	3.275	0.0	n/a	GoodResponse	1	n/a	n/a	2	4	Fixation	Win	True
52.071	0.36	Win2	0.8	0.004	Yes	3.275	-0.004	2.0	GoodResponse	1	0.287	51.358	2	4	Target	Win	True
52.358	0.3	Win2	0.8	0.004	Yes	3.275	-0.004	2.0	GoodResponse	1	0.287	n/a	2	4	ButtonPress	Win	True
52.438	0.34	Win2	0.8	n/a	Yes	3.275	n/a	n/a	GoodResponse	1	n/a	n/a	2	4	Blank	Win	True
52.773	1.45	Win2	0.8	n/a	Yes	3.275	n/a	5.0	GoodResponse	1	0.032	51.805	2	4	Feedback	Win	True
54.227	3.275	Win2	0.8	n/a	Yes	3.275	n/a	n/a	GoodResponse	1	0.0	n/a	2	4	ISIslide	Win	True
57.52	0.25	Win2	0.8332999999999999	0.0	Yes	2.78	0.02	n/a	GoodResponse	1	n/a	n/a	3	5	Cue	Win	True
57.771	4.0	Win2	0.8332999999999999	0.0	Yes	2.78	0.001	n/a	GoodResponse	1	n/a	n/a	3	5	Fixation	Win	True
61.766	0.35	Win2	0.8332999999999999	0.004	Yes	2.78	-0.004	2.0	GoodResponse	1	0.335	61.101	3	5	Target	Win	True
62.101	0.3	Win2	0.8332999999999999	0.004	Yes	2.78	-0.004	2.0	GoodResponse	1	0.335	n/a	3	5	ButtonPress	Win	True
62.117	0.35	Win2	0.8332999999999999	n/a	Yes	2.78	n/a	n/a	GoodResponse	1	n/a	n/a	3	5	Blank	Win	True
62.468	1.45	Win2	0.8332999999999999	n/a	Yes	2.78	n/a	5.0	GoodResponse	1	0.044	61.512	3	5	Feedback	Win	True
63.923	2.78	Win2	0.8332999999999999	n/a	Yes	2.78	n/a	n/a	GoodResponse	1	0.0	n/a	3	5	ISIslide	Win	True
66.731	0.25	Lose2	0.7143	0.0	No	2.719	0.031	n/a	LatePress	-1	n/a	n/a	2	6	Cue	Loss	True
66.982	3.95	Lose2	0.7143	0.0	No	2.719	0.001	n/a	LatePress	-1	n/a	n/a	2	6	Fixation	Loss	True
70.927	0.34	Lose2	0.7143	0.004	No	2.719	-0.004	2.0	LatePress	-1	0.344	70.271	2	6	Target	Loss	True
71.271	0.3	Lose2	0.7143	0.004	No	2.719	-0.004	2.0	LatePress	-1	0.344	n/a	2	6	ButtonPress	Loss	True
71.278	0.36	Lose2	0.7143	n/a	No	2.719	n/a	n/a	LatePress	-1	n/a	n/a	2	6	Blank	Loss	True
71.629	1.45	Lose2	0.7143	n/a	No	2.719	n/a	5.0	LatePress	-1	0.006	70.635	2	6	Feedback	Loss	True
73.083	2.719	Lose2	0.7143	n/a	No	2.719	n/a	n/a	LatePress	-1	0.0	n/a	2	6	ISIslide	Loss	True
75.825	0.25	Lose2	0.75	0.0	Yes	4.025	0.025	n/a	GoodResponse	0	n/a	n/a	2	7	Cue	AvoidedLoss	True
76.076	4.05	Lose2	0.75	0.0	Yes	4.025	0.001	n/a	GoodResponse	0	n/a	n/a	2	7	Fixation	AvoidedLoss	True
80.121	0.33	Lose2	0.75	0.004	Yes	4.025	-0.004	2.0	GoodResponse	0	0.288	79.409	2	7	Target	AvoidedLoss	True
80.409	0.3	Lose2	0.75	0.004	Yes	4.025	-0.004	2.0	GoodResponse	0	0.288	n/a	2	7	ButtonPress	AvoidedLoss	True
80.455	0.37	Lose2	0.75	n/a	Yes	4.025	n/a	n/a	GoodResponse	0	n/a	n/a	2	7	Blank	AvoidedLoss	True
80.823	1.45	Lose2	0.75	n/a	Yes	4.025	n/a	5.0	GoodResponse	0	0.03	79.853	2	7	Feedback	AvoidedLoss	True
82.277	4.025	Lose2	0.75	n/a	Yes	4.025	n/a	n/a	GoodResponse	0	0.0	n/a	2	7	ISIslide	AvoidedLoss	True
86.323	0.25	Lose2	0.7778	0.0	Yes	3.027	0.023	n/a	GoodResponse	0	n/a	n/a	2	8	Cue	AvoidedLoss	True
86.574	3.95	Lose2	0.7778	0.0	Yes	3.027	0.001	n/a	GoodResponse	0	n/a	n/a	2	8	Fixation	AvoidedLoss	True
90.519	0.32	Lose2	0.7778	0.004	Yes	3.027	-0.004	2.0	GoodResponse	0	0.247	89.766	2	8	Target	AvoidedLoss	True
90.766	0.3	Lose2	0.7778	0.004	Yes	3.027	-0.004	2.0	GoodResponse	0	0.247	n/a	2	8	ButtonPress	AvoidedLoss	True
90.853	0.38	Lose2	0.7778	n/a	Yes	3.027	n/a	n/a	GoodResponse	0	n/a	n/a	2	8	Blank	AvoidedLoss	True
91.221	1.45	Lose2	0.7778	n/a	Yes	3.027	n/a	5.0	GoodResponse	0	0.022	90.243	2	8	Feedback	AvoidedLoss	True
92.675	3.027	Lose2	0.7778	n/a	Yes	3.027	n/a	n/a	GoodResponse	0	0.0	n/a	2	8	ISIslide	AvoidedLoss	True
95.718	0.25	Lose2	0.8	0.0	Yes	3.132	0.018	n/a	GoodResponse	0	n/a	n/a	2	9	Cue	AvoidedLoss	True
95.968	3.95	Lose2	0.8	0.0	Yes	3.132	0.0	n/a	GoodResponse	0	n/a	n/a	2	9	Fixation	AvoidedLoss	True
99.913	0.31	Lose2	0.8	0.005	Yes	3.132	-0.005	2.0	GoodResponse	0	0.248	99.161	2	9	Target	AvoidedLoss	True
100.161	0.3	Lose2	0.8	0.005	Yes	3.132	-0.005	2.0	GoodResponse	0	0.248	n/a	2	9	ButtonPress	AvoidedLoss	True
100.231	0.39	Lose2	0.8	n/a	Yes	3.132	n/a	n/a	GoodResponse	0	n/a	n/a	2	9	Blank	AvoidedLoss	True
100.616	1.45	Lose2	0.8	n/a	Yes	3.132	n/a	5.0	GoodResponse	0	0.042	99.658	2	9	Feedback	AvoidedLoss	True
102.07	3.132	Lose2	0.8	n/a	Yes	3.132	n/a	n/a	GoodResponse	0	0.0	n/a	2	9	ISIslide	AvoidedLoss	True
105.229	0.25	Control	0.7273000000000001	0.0	No	3.271	0.029	n/a	NoResponse	0	n/a	n/a	2	10	Cue	Neutral	True
105.48	4.0	Control	0.7273000000000001	0.0	No	3.271	0.001	n/a	NoResponse	0	n/a	n/a	2	10	Fixation	Neutral	True
109.475	0.3	Control	0.7273000000000001	0.004	No	3.271	-0.004	2.0	NoResponse	0	0.339	108.814	2	10	Target	Neutral	True
109.776	0.4	Control	0.7273000000000001	n/a	No	3.271	n/a	n/a	NoResponse	0	n/a	n/a	2	10	Blank	Neutral	True
109.814	0.3	Control	0.7273000000000001	0.004	No	3.271	-0.004	2.0	NoResponse	0	0.339	n/a	2	10	ButtonPress	Neutral	True
110.177	1.45	Control	0.7273000000000001	n/a	No	3.271	n/a	5.0	NoResponse	0	0.041	109.218	2	10	Feedback	Neutral	True
111.632	3.271	Control	0.7273000000000001	n/a	No	3.271	n/a	n/a	NoResponse	0	0.0	n/a	2	10	ISIslide	Neutral	True
114.925	0.25	Lose2	0.75	0.0	Yes	2.725	0.025	n/a	GoodResponse	0	n/a	n/a	2	11	Cue	AvoidedLoss	True
115.176	4.05	Lose2	0.75	0.0	Yes	2.725	0.001	n/a	GoodResponse	0	n/a	n/a	2	11	Fixation	AvoidedLoss	True
119.221	0.29	Lose2	0.75	0.004	Yes	2.725	-0.004	2.0	GoodResponse	0	0.278	118.499	2	11	Target	AvoidedLoss	True
119.499	0.3	Lose2	0.75	0.004	Yes	2.725	-0.004	2.0	GoodResponse	0	0.278	n/a	2	11	ButtonPress	AvoidedLoss	True
119.522	0.41	Lose2	0.75	n/a	Yes	2.725	n/a	n/a	GoodResponse	0	n/a	n/a	2	11	Blank	AvoidedLoss	True
119.923	1.45	Lose2	0.75	n/a	Yes	2.725	n/a	5.0	GoodResponse	0	0.002	118.925	2	11	Feedback	AvoidedLoss	True
121.378	2.725	Lose2	0.75	n/a	Yes	2.725	n/a	n/a	GoodResponse	0	0.0	n/a	2	11	ISIslide	AvoidedLoss	True
124.119	0.25	Control	0.6923	0.0	No	2.981	0.019	n/a	NoResponse	0	n/a	n/a	2	12	Cue	Neutral	True
124.37	3.9	Control	0.6923	0.0	No	2.981	0.001	n/a	NoResponse	0	n/a	n/a	2	12	Fixation	Neutral	True
128.265	0.28	Control	0.6923	0.004	No	2.981	-0.004	2.0	NoResponse	0	0.327	127.592	2	12	Target	Neutral	True
128.549	0.42	Control	0.6923	n/a	No	2.981	n/a	n/a	NoResponse	0	n/a	n/a	2	12	Blank	Neutral	True
128.592	0.3	Control	0.6923	0.004	No	2.981	-0.004	2.0	NoResponse	0	0.327	n/a	2	12	ButtonPress	Neutral	True
128.967	1.45	Control	0.6923	n/a	No	2.981	n/a	5.0	NoResponse	0	0.032	127.999	2	12	Feedback	Neutral	True
130.421	2.981	Control	0.6923	n/a	No	2.981	n/a	n/a	NoResponse	0	0.0	n/a	2	12	ISIslide	Neutral	True
133.43	0.25	Control	0.6429	0.0	No	2.77	0.03	n/a	NoResponse	0	n/a	n/a	2	13	Cue	Neutral	True
133.681	4.0	Control	0.6429	0.0	No	2.77	0.001	n/a	NoResponse	0	n/a	n/a	2	13	Fixation	Neutral	True
137.676	0.27	Control	0.6429	0.004	No	2.77	-0.004	2.0	NoResponse	0	0.532	137.208	2	13	Target	Neutral	True
137.96	0.43	Control	0.6429	n/a	No	2.77	n/a	n/a	NoResponse	0	n/a	n/a	2	13	Blank	Neutral	True
138.208	0.3	Control	0.6429	0.004	No	2.77	-0.004	2.0	NoResponse	0	0.532	n/a	2	13	ButtonPress	Neutral	True
138.378	1.45	Control	0.6429	n/a	No	2.77	n/a	5.0	NoResponse	0	0.035	137.413	2	13	Feedback	Neutral	True
139.833	2.77	Control	0.6429	n/a	No	2.77	n/a	n/a	NoResponse	0	0.0	n/a	2	13	ISIslide	Neutral	True
142.624	0.25	Win2	0.6667000000000001	0.0	Yes	2.676	0.024	n/a	GoodResponse	1	n/a	n/a	3	14	Cue	Win	True
142.875	4.1	Win2	0.6667000000000001	0.0	Yes	2.676	0.001	n/a	GoodResponse	1	n/a	n/a	3	14	Fixation	Win	True
146.971	0.28	Win2	0.6667000000000001	0.003	Yes	2.676	-0.003	2.0	GoodResponse	1	0.248	146.219	3	14	Target	Win	True
147.219	0.3	Win2	0.6667000000000001	0.003	Yes	2.676	-0.003	2.0	GoodResponse	1	0.248	n/a	3	14	ButtonPress	Win	True
147.255	0.42	Win2	0.6667000000000001	n/a	Yes	2.676	n/a	n/a	GoodResponse	1	n/a	n/a	3	14	Blank	Win	True
147.673	1.45	Win2	0.6667000000000001	n/a	Yes	2.676	n/a	5.0	GoodResponse	1	0.008	146.681	3	14	Feedback	Win	True
149.127	2.676	Win2	0.6667000000000001	n/a	Yes	2.676	n/a	n/a	GoodResponse	1	0.0	n/a	3	14	ISIslide	Win	True
151.819	0.25	Control	0.625	0.0	No	2.981	0.019	n/a	LatePress	0	n/a	n/a	3	15	Cue	Neutral	True
152.069	4.0	Control	0.625	0.0	No	2.981	0.0	n/a	LatePress	0	n/a	n/a	3	15	Fixation	Neutral	True
156.065	0.27	Control	0.625	0.004	No	2.981	-0.004	2.0	LatePress	0	0.281	155.346	3	15	Target	Neutral	True
156.346	0.3	Control	0.625	0.004	No	2.981	-0.004	2.0	LatePress	0	0.281	n/a	3	15	ButtonPress	Neutral	True
156.349	0.43	Control	0.625	n/a	No	2.981	n/a	n/a	LatePress	0	n/a	n/a	3	15	Blank	Neutral	True
156.767	1.45	Control	0.625	n/a	No	2.981	n/a	5.0	LatePress	0	0.036	155.803	3	15	Feedback	Neutral	True
158.221	2.981	Control	0.625	n/a	No	2.981	n/a	n/a	LatePress	0	0.0	n/a	3	15	ISIslide	Neutral	True
161.23	0.25	Win2	0.6470999999999999	0.0	Yes	2.87	0.03	n/a	GoodResponse	1	n/a	n/a	4	16	Cue	Win	True
161.481	4.0	Win2	0.6470999999999999	0.0	Yes	2.87	0.001	n/a	GoodResponse	1	n/a	n/a	4	16	Fixation	Win	True
165.476	0.28	Win2	0.6470999999999999	0.004	Yes	2.87	-0.004	2.0	GoodResponse	1	0.245	164.721	4	16	Target	Win	True
165.721	0.3	Win2	0.6470999999999999	0.004	Yes	2.87	-0.004	2.0	GoodResponse	1	0.245	n/a	4	16	ButtonPress	Win	True
165.76	0.42	Win2	0.6470999999999999	n/a	Yes	2.87	n/a	n/a	GoodResponse	1	n/a	n/a	4	16	Blank	Win	True
166.178	1.45	Win2	0.6470999999999999	n/a	Yes	2.87	n/a	5.0	GoodResponse	1	0.039	165.217	4	16	Feedback	Win	True
167.632	2.87	Win2	0.6470999999999999	n/a	Yes	2.87	n/a	n/a	GoodResponse	1	0.0	n/a	4	16	ISIslide	Win	True
170.524	0.25	Lose2	0.6111	0.0	No	2.726	0.024	n/a	NoResponse	-1	n/a	n/a	3	17	Cue	Loss	True
170.775	3.95	Lose2	0.6111	0.0	No	2.726	0.001	n/a	NoResponse	-1	n/a	n/a	3	17	Fixation	Loss	True
174.72	0.29	Lose2	0.6111	0.004	No	2.726	-0.004	2.0	NoResponse	-1	0.352	174.072	3	17	Target	Loss	True
175.021	0.41	Lose2	0.6111	n/a	No	2.726	n/a	n/a	NoResponse	-1	n/a	n/a	3	17	Blank	Loss	True
175.072	0.3	Lose2	0.6111	0.004	No	2.726	-0.004	2.0	NoResponse	-1	0.352	n/a	3	17	ButtonPress	Loss	True
175.422	1.45	Lose2	0.6111	n/a	No	2.726	n/a	5.0	NoResponse	-1	0.015	174.437	3	17	Feedback	Loss	True
176.877	2.726	Lose2	0.6111	n/a	No	2.726	n/a	n/a	NoResponse	-1	0.0	n/a	3	17	ISIslide	Loss	True
179.618	0.25	Lose2	0.5789	0.0	No	2.732	0.018	n/a	NoResponse	-1	n/a	n/a	2	18	Cue	Loss	True
179.869	4.05	Lose2	0.5789	0.0	No	2.732	0.001	n/a	NoResponse	-1	n/a	n/a	2	18	Fixation	Loss	True
183.914	0.3	Lose2	0.5789	0.004	No	2.732	-0.004	2.0	NoResponse	-1	0.305	183.219	2	18	Target	Loss	True
184.215	0.4	Lose2	0.5789	n/a	No	2.732	n/a	n/a	NoResponse	-1	n/a	n/a	2	18	Blank	Loss	True
184.219	0.3	Lose2	0.5789	0.004	No	2.732	-0.004	2.0	NoResponse	-1	0.305	n/a	2	18	ButtonPress	Loss	True
184.616	1.45	Lose2	0.5789	n/a	No	2.732	n/a	5.0	NoResponse	-1	0.04	183.656	2	18	Feedback	Loss	True
186.071	2.732	Lose2	0.5789	n/a	No	2.732	n/a	n/a	NoResponse	-1	0.0	n/a	2	18	ISIslide	Loss	True
188.829	0.25	Control	0.6	0.0	Yes	2.921	0.029	n/a	GoodResponse	0	n/a	n/a	2	19	Cue	Neutral	True
189.08	3.95	Control	0.6	0.0	Yes	2.921	0.001	n/a	GoodResponse	0	n/a	n/a	2	19	Fixation	Neutral	True
193.025	0.31	Control	0.6	0.004	Yes	2.921	-0.004	2.0	GoodResponse	0	0.231	192.256	2	19	Target	Neutral	True
193.256	0.3	Control	0.6	0.004	Yes	2.921	-0.004	2.0	GoodResponse	0	0.231	n/a	2	19	ButtonPress	Neutral	True
193.343	0.39	Control	0.6	n/a	Yes	2.921	n/a	n/a	GoodResponse	0	n/a	n/a	2	19	Blank	Neutral	True
193.727	1.45	Control	0.6	n/a	Yes	2.921	n/a	5.0	GoodResponse	0	0.002	192.729	2	19	Feedback	Neutral	True
195.181	2.921	Control	0.6	n/a	Yes	2.921	n/a	n/a	GoodResponse	0	0.0	n/a	2	19	ISIslide	Neutral	True
198.123	0.25	Control	0.619	0.001	Yes	2.627	0.023	n/a	GoodResponse	0	n/a	n/a	2	20	Cue	Neutral	True
198.374	4.05	Control	0.619	0.0	Yes	2.627	0.001	n/a	GoodResponse	0	n/a	n/a	2	20	Fixation	Neutral	True
202.42	0.32	Control	0.619	0.003	Yes	2.627	-0.003	2.0	GoodResponse	0	0.315	201.735	2	20	Target	Neutral	True
202.735	0.3	Control	0.619	0.003	Yes	2.627	-0.003	2.0	GoodResponse	0	0.315	n/a	2	20	ButtonPress	Neutral	True
202.754	0.38	Control	0.619	n/a	Yes	2.627	n/a	n/a	GoodResponse	0	n/a	n/a	2	20	Blank	Neutral	True
203.122	1.45	Control	0.619	n/a	Yes	2.627	n/a	5.0	GoodResponse	0	0.022	202.144	2	20	Feedback	Neutral	True
204.576	2.627	Control	0.619	n/a	Yes	2.627	n/a	n/a	GoodResponse	0	0.0	n/a	2	20	ISIslide	Neutral	True
207.217	0.25	Control	0.6364	0.0	Yes	2.783	0.017	n/a	GoodResponse	0	n/a	n/a	2	21	Cue	Neutral	True
207.468	4.1	Control	0.6364	0.0	Yes	2.783	0.001	n/a	GoodResponse	0	n/a	n/a	2	21	Fixation	Neutral	True
211.564	0.33	Control	0.6364	0.003	Yes	2.783	-0.003	2.0	GoodResponse	0	0.293	210.857	2	21	Target	Neutral	True
211.857	0.3	Control	0.6364	0.003	Yes	2.783	-0.003	2.0	GoodResponse	0	0.293	n/a	2	21	ButtonPress	Neutral	True
211.898	0.37	Control	0.6364	n/a	Yes	2.783	n/a	n/a	GoodResponse	0	n/a	n/a	2	21	Blank	Neutral	True
212.266	1.45	Control	0.6364	n/a	Yes	2.783	n/a	5.0	GoodResponse	0	0.049	211.315	2	21	Feedback	Neutral	True
213.72	2.783	Control	0.6364	n/a	Yes	2.783	n/a	n/a	GoodResponse	0	0.0	n/a	2	21	ISIslide	Neutral	True
216.528	0.25	Control	0.6522	0.001	Yes	2.772	0.028	n/a	GoodResponse	0	n/a	n/a	2	22	Cue	Neutral	True
216.779	4.0	Control	0.6522	0.0	Yes	2.772	0.001	n/a	GoodResponse	0	n/a	n/a	2	22	Fixation	Neutral	True
220.774	0.34	Control	0.6522	0.004	Yes	2.772	-0.004	2.0	GoodResponse	0	0.328	220.102	2	22	Target	Neutral	True
221.102	0.3	Control	0.6522	0.004	Yes	2.772	-0.004	2.0	GoodResponse	0	0.328	n/a	2	22	ButtonPress	Neutral	True
221.125	0.36	Control	0.6522	n/a	Yes	2.772	n/a	n/a	GoodResponse	0	n/a	n/a	2	22	Blank	Neutral	True
221.477	1.45	Control	0.6522	n/a	Yes	2.772	n/a	5.0	GoodResponse	0	0.007	220.484	2	22	Feedback	Neutral	True
222.931	2.772	Control	0.6522	n/a	Yes	2.772	n/a	n/a	GoodResponse	0	0.0	n/a	2	22	ISIslide	Neutral	True
225.723	0.25	Control	0.6667000000000001	0.0	Yes	2.777	0.023	n/a	GoodResponse	0	n/a	n/a	2	23	Cue	Neutral	True
225.973	3.9	Control	0.6667000000000001	0.0	Yes	2.777	0.0	n/a	GoodResponse	0	n/a	n/a	2	23	Fixation	Neutral	True
229.885	0.35	Control	0.6667000000000001	0.0	Yes	2.777	0.012	2.0	GoodResponse	0	0.291	229.176	2	23	Target	Neutral	True
230.176	0.3	Control	0.6667000000000001	0.0	Yes	2.777	0.012	2.0	GoodResponse	0	0.291	n/a	2	23	ButtonPress	Neutral	True
230.219	0.35	Control	0.6667000000000001	n/a	Yes	2.777	n/a	n/a	GoodResponse	0	n/a	n/a	2	23	Blank	Neutral	True
230.57	1.45	Control	0.6667000000000001	n/a	Yes	2.777	n/a	5.0	GoodResponse	0	0.036	229.606	2	23	Feedback	Neutral	True
232.025	2.777	Control	0.6667000000000001	n/a	Yes	2.777	n/a	n/a	GoodResponse	0	0.0	n/a	2	23	ISIslide	Neutral	True
234.816	0.25	Win2	0.68	0.0	Yes	3.134	0.016	n/a	GoodResponse	1	n/a	n/a	3	24	Cue	Win	True
235.067	3.95	Win2	0.68	0.0	Yes	3.134	0.001	n/a	GoodResponse	1	n/a	n/a	3	24	Fixation	Win	True
239.012	0.34	Win2	0.68	0.004	Yes	3.134	-0.004	2.0	GoodResponse	1	0.265	238.277	3	24	Target	Win	True
239.277	0.3	Win2	0.68	0.004	Yes	3.134	-0.004	2.0	GoodResponse	1	0.265	n/a	3	24	ButtonPress	Win	True
239.363	0.36	Win2	0.68	n/a	Yes	3.134	n/a	n/a	GoodResponse	1	n/a	n/a	3	24	Blank	Win	True
239.714	1.45	Win2	0.68	n/a	Yes	3.134	n/a	5.0	GoodResponse	1	0.015	238.729	3	24	Feedback	Win	True
241.169	3.134	Win2	0.68	n/a	Yes	3.134	n/a	n/a	GoodResponse	1	0.0	n/a	3	24	ISIslide	Win	True
244.328	0.25	Win2	0.6537999999999999	0.0	No	3.072	0.028	n/a	NoResponse	0	n/a	n/a	3	25	Cue	MissedWin	True
244.579	4.0	Win2	0.6537999999999999	0.0	No	3.072	0.001	n/a	NoResponse	0	n/a	n/a	3	25	Fixation	MissedWin	True
248.574	0.33	Win2	0.6537999999999999	0.004	No	3.072	-0.004	2.0	NoResponse	0	0.347	247.921	3	25	Target	MissedWin	True
248.908	0.37	Win2	0.6537999999999999	n/a	No	3.072	n/a	n/a	NoResponse	0	n/a	n/a	3	25	Blank	MissedWin	True
248.921	0.3	Win2	0.6537999999999999	0.004	No	3.072	-0.004	2.0	NoResponse	0	0.347	n/a	3	25	ButtonPress	MissedWin	True
249.276	1.45	Win2	0.6537999999999999	n/a	No	3.072	n/a	5.0	NoResponse	0	0.014	248.29	3	25	Feedback	MissedWin	True
250.731	3.072	Win2	0.6537999999999999	n/a	No	3.072	n/a	n/a	NoResponse	0	0.0	n/a	3	25	ISIslide	MissedWin	True
253.823	0.25	Win2	0.6667000000000001	0.0	Yes	2.927	0.023	n/a	GoodResponse	1	n/a	n/a	4	26	Cue	Win	True
254.074	3.95	Win2	0.6667000000000001	0.0	Yes	2.927	0.001	n/a	GoodResponse	1	n/a	n/a	4	26	Fixation	Win	True
258.019	0.34	Win2	0.6667000000000001	0.004	Yes	2.927	-0.004	2.0	GoodResponse	1	0.247	257.266	4	26	Target	Win	True
258.266	0.3	Win2	0.6667000000000001	0.004	Yes	2.927	-0.004	2.0	GoodResponse	1	0.247	n/a	4	26	ButtonPress	Win	True
258.37	0.36	Win2	0.6667000000000001	n/a	Yes	2.927	n/a	n/a	GoodResponse	1	n/a	n/a	4	26	Blank	Win	True
258.721	1.45	Win2	0.6667000000000001	n/a	Yes	2.927	n/a	5.0	GoodResponse	1	0.031	257.752	4	26	Feedback	Win	True
260.175	2.927	Win2	0.6667000000000001	n/a	Yes	2.927	n/a	n/a	GoodResponse	1	0.0	n/a	4	26	ISIslide	Win	True
263.118	0.25	Lose2	0.6786	0.0	Yes	2.832	0.018	n/a	GoodResponse	0	n/a	n/a	4	27	Cue	AvoidedLoss	True
263.368	4.05	Lose2	0.6786	0.0	Yes	2.832	0.0	n/a	GoodResponse	0	n/a	n/a	4	27	Fixation	AvoidedLoss	True
267.414	0.33	Lose2	0.6786	0.004	Yes	2.832	-0.004	2.0	GoodResponse	0	0.278	266.692	4	27	Target	AvoidedLoss	True
267.692	0.3	Lose2	0.6786	0.004	Yes	2.832	-0.004	2.0	GoodResponse	0	0.278	n/a	4	27	ButtonPress	AvoidedLoss	True
267.748	0.37	Lose2	0.6786	n/a	Yes	2.832	n/a	n/a	GoodResponse	0	n/a	n/a	4	27	Blank	AvoidedLoss	True
268.116	1.45	Lose2	0.6786	n/a	Yes	2.832	n/a	5.0	GoodResponse	0	0.007	267.123	4	27	Feedback	AvoidedLoss	True
269.57	2.832	Lose2	0.6786	n/a	Yes	2.832	n/a	n/a	GoodResponse	0	0.0	n/a	4	27	ISIslide	AvoidedLoss	True
272.429	0.25	Control	0.6552	0.0	No	2.821	0.029	n/a	LatePress	0	n/a	n/a	4	28	Cue	Neutral	True
272.679	4.05	Control	0.6552	0.001	No	2.821	0.0	n/a	LatePress	0	n/a	n/a	4	28	Fixation	Neutral	True
276.725	0.32	Control	0.6552	0.004	No	2.821	-0.004	2.0	LatePress	0	0.331	276.056	4	28	Target	Neutral	True
277.056	0.3	Control	0.6552	0.004	No	2.821	-0.004	2.0	LatePress	0	0.331	n/a	4	28	ButtonPress	Neutral	True
277.059	0.38	Control	0.6552	n/a	No	2.821	n/a	n/a	LatePress	0	n/a	n/a	4	28	Blank	Neutral	True
277.427	1.45	Control	0.6552	n/a	No	2.821	n/a	5.0	LatePress	0	0.008	276.435	4	28	Feedback	Neutral	True
278.881	2.821	Control	0.6552	n/a	No	2.821	n/a	n/a	LatePress	0	0.0	n/a	4	28	ISIslide	Neutral	True
281.723	0.25	Lose2	0.6667000000000001	0.0	Yes	2.827	0.023	n/a	GoodResponse	0	n/a	n/a	4	29	Cue	AvoidedLoss	False
281.974	3.95	Lose2	0.6667000000000001	0.0	Yes	2.827	0.001	2.0	GoodResponse	0	0.243	281.217	4	29	Fixation	AvoidedLoss	False
282.217	0.3	Lose2	0.6667000000000001	0.0	Yes	2.827	0.001	2.0	GoodResponse	0	0.243	n/a	4	29	ButtonPress	AvoidedLoss	False
285.919	0.32	Lose2	0.6667000000000001	0.004	Yes	2.827	-0.004	2.0	GoodResponse	0	0.287	285.206	4	29	Target	AvoidedLoss	False
286.206	0.3	Lose2	0.6667000000000001	0.004	Yes	2.827	-0.004	2.0	GoodResponse	0	0.287	n/a	4	29	ButtonPress	AvoidedLoss	False
286.253	0.38	Lose2	0.6667000000000001	n/a	Yes	2.827	n/a	n/a	GoodResponse	0	n/a	n/a	4	29	Blank	AvoidedLoss	False
286.621	1.45	Lose2	0.6667000000000001	n/a	Yes	2.827	n/a	5.0	GoodResponse	0	0.034	285.655	4	29	Feedback	AvoidedLoss	False
288.075	2.827	Lose2	0.6667000000000001	n/a	Yes	2.827	n/a	n/a	GoodResponse	0	0.0	n/a	4	29	ISIslide	AvoidedLoss	False
290.917	0.25	Win2	0.6774	0.0	Yes	2.783	0.017	n/a	GoodResponse	1	n/a	n/a	5	30	Cue	Win	True
291.168	3.9	Win2	0.6774	0.0	Yes	2.783	0.001	n/a	GoodResponse	1	n/a	n/a	5	30	Fixation	Win	True
295.063	0.31	Win2	0.6774	0.004	Yes	2.783	-0.004	2.0	GoodResponse	1	0.239	294.302	5	30	Target	Win	True
295.302	0.3	Win2	0.6774	0.004	Yes	2.783	-0.004	2.0	GoodResponse	1	0.239	n/a	5	30	ButtonPress	Win	True
295.381	0.39	Win2	0.6774	n/a	Yes	2.783	n/a	n/a	GoodResponse	1	n/a	n/a	5	30	Blank	Win	True
295.765	1.45	Win2	0.6774	n/a	Yes	2.783	n/a	5.0	GoodResponse	1	0.011	294.776	5	30	Feedback	Win	True
297.219	2.783	Win2	0.6774	n/a	Yes	2.783	n/a	n/a	GoodResponse	1	0.0	n/a	5	30	ISIslide	Win	True
300.028	0.25	Lose2	0.6875	0.0	Yes	2.822	0.028	n/a	GoodResponse	0	n/a	n/a	5	31	Cue	AvoidedLoss	True
300.279	4.05	Lose2	0.6875	0.0	Yes	2.822	0.001	n/a	GoodResponse	0	n/a	n/a	5	31	Fixation	AvoidedLoss	True
304.324	0.3	Lose2	0.6875	0.004	Yes	2.822	-0.004	2.0	GoodResponse	0	0.259	303.583	5	31	Target	AvoidedLoss	True
304.583	0.3	Lose2	0.6875	0.004	Yes	2.822	-0.004	2.0	GoodResponse	0	0.259	n/a	5	31	ButtonPress	AvoidedLoss	True
304.625	0.4	Lose2	0.6875	n/a	Yes	2.822	n/a	n/a	GoodResponse	0	n/a	n/a	5	31	Blank	AvoidedLoss	True
305.026	1.45	Lose2	0.6875	n/a	Yes	2.822	n/a	5.0	GoodResponse	0	0.018	304.044	5	31	Feedback	AvoidedLoss	True
306.48	2.822	Lose2	0.6875	n/a	Yes	2.822	n/a	n/a	GoodResponse	0	0.0	n/a	5	31	ISIslide	AvoidedLoss	True
309.322	0.25	Lose2	0.6667000000000001	0.0	No	2.628	0.022	n/a	NoResponse	-1	n/a	n/a	4	32	Cue	Loss	True
309.573	4.15	Lose2	0.6667000000000001	0.0	No	2.628	0.001	n/a	NoResponse	-1	n/a	n/a	4	32	Fixation	Loss	True
313.719	0.29	Lose2	0.6667000000000001	0.003	No	2.628	-0.003	2.0	NoResponse	-1	0.32	313.039	4	32	Target	Loss	True
314.02	0.41	Lose2	0.6667000000000001	n/a	No	2.628	n/a	n/a	NoResponse	-1	n/a	n/a	4	32	Blank	Loss	True
314.039	0.3	Lose2	0.6667000000000001	0.003	No	2.628	-0.003	2.0	NoResponse	-1	0.32	n/a	4	32	ButtonPress	Loss	True
314.421	1.45	Lose2	0.6667000000000001	n/a	No	2.628	n/a	5.0	NoResponse	-1	0.038	313.459	4	32	Feedback	Loss	True
315.875	2.628	Lose2	0.6667000000000001	n/a	No	2.628	n/a	n/a	NoResponse	-1	0.0	n/a	4	32	ISIslide	Loss	True
318.516	0.25	Win2	0.6470999999999999	0.0	No	2.684	0.016	n/a	NoResponse	0	n/a	n/a	4	33	Cue	MissedWin	True
318.767	4.0	Win2	0.6470999999999999	0.0	No	2.684	0.001	n/a	NoResponse	0	n/a	n/a	4	33	Fixation	MissedWin	True
322.762	0.28	Win2	0.6470999999999999	0.004	No	2.684	-0.004	2.0	NoResponse	0	0.338	322.1	4	33	Target	MissedWin	True
323.047	0.42	Win2	0.6470999999999999	n/a	No	2.684	n/a	n/a	NoResponse	0	n/a	n/a	4	33	Blank	MissedWin	True
323.1	0.3	Win2	0.6470999999999999	0.004	No	2.684	-0.004	2.0	NoResponse	0	0.338	n/a	4	33	ButtonPress	MissedWin	True
323.464	1.45	Win2	0.6470999999999999	n/a	No	2.684	n/a	5.0	NoResponse	0	0.02	322.484	4	33	Feedback	MissedWin	True
324.919	2.684	Win2	0.6470999999999999	n/a	No	2.684	n/a	n/a	NoResponse	0	0.0	n/a	4	33	ISIslide	MissedWin	True
327.627	0.25	Lose2	0.6570999999999999	0.0	Yes	2.623	0.027	n/a	GoodResponse	0	n/a	n/a	4	34	Cue	AvoidedLoss	True
327.878	4.05	Lose2	0.6570999999999999	0.0	Yes	2.623	0.001	n/a	GoodResponse	0	n/a	n/a	4	34	Fixation	AvoidedLoss	True
331.923	0.29	Lose2	0.6570999999999999	0.004	Yes	2.623	-0.004	2.0	GoodResponse	0	0.289	331.212	4	34	Target	AvoidedLoss	True
332.212	0.3	Lose2	0.6570999999999999	0.004	Yes	2.623	-0.004	2.0	GoodResponse	0	0.289	n/a	4	34	ButtonPress	AvoidedLoss	True
332.224	0.41	Lose2	0.6570999999999999	n/a	Yes	2.623	n/a	n/a	GoodResponse	0	n/a	n/a	4	34	Blank	AvoidedLoss	True
332.625	1.45	Lose2	0.6570999999999999	n/a	Yes	2.623	n/a	5.0	GoodResponse	0	0.028	331.653	4	34	Feedback	AvoidedLoss	True
334.08	2.623	Lose2	0.6570999999999999	n/a	Yes	2.623	n/a	n/a	GoodResponse	0	0.0	n/a	4	34	ISIslide	AvoidedLoss	True
336.721	0.25	Lose2	0.6389	0.0	No	2.679	0.021	n/a	NoResponse	-1	n/a	n/a	3	35	Cue	Loss	True
336.971	4.0	Lose2	0.6389	0.001	No	2.679	0.0	n/a	NoResponse	-1	n/a	n/a	3	35	Fixation	Loss	True
340.967	0.29	Lose2	0.6389	0.004	No	2.679	-0.004	2.0	NoResponse	-1	0.309	340.276	3	35	Target	Loss	True
341.268	0.41	Lose2	0.6389	n/a	No	2.679	n/a	n/a	NoResponse	-1	n/a	n/a	3	35	Blank	Loss	True
341.276	0.3	Lose2	0.6389	0.004	No	2.679	-0.004	2.0	NoResponse	-1	0.309	n/a	3	35	ButtonPress	Loss	True
341.669	1.45	Lose2	0.6389	n/a	No	2.679	n/a	5.0	NoResponse	-1	0.009	340.678	3	35	Feedback	Loss	True
343.123	2.679	Lose2	0.6389	n/a	No	2.679	n/a	n/a	NoResponse	-1	0.0	n/a	3	35	ISIslide	Loss	True
345.815	0.25	Control	0.6215999999999999	0.0	No	2.685	0.015	n/a	NoResponse	0	n/a	n/a	3	36	Cue	Neutral	True
346.065	4.0	Control	0.6215999999999999	0.0	No	2.685	0.0	n/a	NoResponse	0	n/a	n/a	3	36	Fixation	Neutral	True
350.061	0.3	Control	0.6215999999999999	0.004	No	2.685	-0.004	2.0	NoResponse	0	0.312	349.373	3	36	Target	Neutral	True
350.361	0.4	Control	0.6215999999999999	n/a	No	2.685	n/a	n/a	NoResponse	0	n/a	n/a	3	36	Blank	Neutral	True
350.373	0.3	Control	0.6215999999999999	0.004	No	2.685	-0.004	2.0	NoResponse	0	0.312	n/a	3	36	ButtonPress	Neutral	True
350.763	1.45	Control	0.6215999999999999	n/a	No	2.685	n/a	5.0	NoResponse	0	0.037	349.8	3	36	Feedback	Neutral	True
352.217	2.685	Control	0.6215999999999999	n/a	No	2.685	n/a	n/a	NoResponse	0	0.0	n/a	3	36	ISIslide	Neutral	True
354.925	0.25	Win2	0.6315999999999999	0.0	Yes	2.875	0.025	n/a	GoodResponse	1	n/a	n/a	4	37	Cue	Win	True
355.176	4.0	Win2	0.6315999999999999	0.0	Yes	2.875	0.001	n/a	GoodResponse	1	n/a	n/a	4	37	Fixation	Win	True
359.171	0.31	Win2	0.6315999999999999	0.004	Yes	2.875	-0.004	2.0	GoodResponse	1	0.264	358.435	4	37	Target	Win	True
359.435	0.3	Win2	0.6315999999999999	0.004	Yes	2.875	-0.004	2.0	GoodResponse	1	0.264	n/a	4	37	ButtonPress	Win	True
359.489	0.39	Win2	0.6315999999999999	n/a	Yes	2.875	n/a	n/a	GoodResponse	1	n/a	n/a	4	37	Blank	Win	True
359.873	1.45	Win2	0.6315999999999999	n/a	Yes	2.875	n/a	5.0	GoodResponse	1	0.049	358.922	4	37	Feedback	Win	True
361.328	2.875	Win2	0.6315999999999999	n/a	Yes	2.875	n/a	n/a	GoodResponse	1	0.0	n/a	4	37	ISIslide	Win	True
364.22	0.25	Lose2	0.6409999999999999	0.0	Yes	2.83	0.02	n/a	GoodResponse	0	n/a	n/a	4	38	Cue	AvoidedLoss	True
364.47	3.95	Lose2	0.6409999999999999	0.0	Yes	2.83	0.0	n/a	GoodResponse	0	n/a	n/a	4	38	Fixation	AvoidedLoss	True
368.432	0.32	Lose2	0.6409999999999999	0.0	Yes	2.83	0.012	2.0	GoodResponse	0	0.273	367.705	4	38	Target	AvoidedLoss	True
368.705	0.3	Lose2	0.6409999999999999	0.0	Yes	2.83	0.012	2.0	GoodResponse	0	0.273	n/a	4	38	ButtonPress	AvoidedLoss	True
368.75	0.38	Lose2	0.6409999999999999	n/a	Yes	2.83	n/a	n/a	GoodResponse	0	n/a	n/a	4	38	Blank	AvoidedLoss	True
369.117	1.45	Lose2	0.6409999999999999	n/a	Yes	2.83	n/a	5.0	GoodResponse	0	0.024	368.141	4	38	Feedback	AvoidedLoss	True
370.572	2.83	Lose2	0.6409999999999999	n/a	Yes	2.83	n/a	n/a	GoodResponse	0	0.0	n/a	4	38	ISIslide	AvoidedLoss	True
373.43	0.25	Win2	0.65	0.0	Yes	2.97	0.03	n/a	GoodResponse	1	n/a	n/a	5	39	Cue	Win	True
373.681	4.1	Win2	0.65	0.0	Yes	2.97	0.001	n/a	GoodResponse	1	n/a	n/a	5	39	Fixation	Win	True
377.777	0.33	Win2	0.65	0.003	Yes	2.97	-0.003	2.0	GoodResponse	1	0.298	377.075	5	39	Target	Win	True
378.075	0.3	Win2	0.65	0.003	Yes	2.97	-0.003	2.0	GoodResponse	1	0.298	n/a	5	39	ButtonPress	Win	True
378.111	0.37	Win2	0.65	n/a	Yes	2.97	n/a	n/a	GoodResponse	1	n/a	n/a	5	39	Blank	Win	True
378.479	1.45	Win2	0.65	n/a	Yes	2.97	n/a	5.0	GoodResponse	1	0.028	377.507	5	39	Feedback	Win	True
379.933	2.97	Win2	0.65	n/a	Yes	2.97	n/a	n/a	GoodResponse	1	0.0	n/a	5	39	ISIslide	Win	True
382.925	0.25	Win2	0.6585	0.0	Yes	2.725	0.025	n/a	GoodResponse	1	n/a	n/a	6	40	Cue	Win	True
383.176	3.95	Win2	0.6585	0.0	Yes	2.725	0.001	n/a	GoodResponse	1	n/a	n/a	6	40	Fixation	Win	True
387.121	0.34	Win2	0.6585	0.004	Yes	2.725	-0.004	2.0	GoodResponse	1	0.337	386.458	6	40	Target	Win	True
387.458	0.3	Win2	0.6585	0.004	Yes	2.725	-0.004	2.0	GoodResponse	1	0.337	n/a	6	40	ButtonPress	Win	True
387.472	0.36	Win2	0.6585	n/a	Yes	2.725	n/a	n/a	GoodResponse	1	n/a	n/a	6	40	Blank	Win	True
387.823	1.45	Win2	0.6585	n/a	Yes	2.725	n/a	5.0	GoodResponse	1	0.001	386.824	6	40	Feedback	Win	True
389.278	2.725	Win2	0.6585	n/a	Yes	2.725	n/a	n/a	GoodResponse	1	0.0	n/a	6	40	ISIslide	Win	True
392.019	0.25	Win2	0.6667000000000001	0.0	Yes	2.781	0.019	n/a	GoodResponse	1	n/a	n/a	7	41	Cue	Win	True
392.27	3.9	Win2	0.6667000000000001	0.0	Yes	2.781	0.001	n/a	GoodResponse	1	n/a	n/a	7	41	Fixation	Win	True
396.165	0.34	Win2	0.6667000000000001	0.004	Yes	2.781	-0.004	2.0	GoodResponse	1	0.303	395.468	7	41	Target	Win	True
396.468	0.3	Win2	0.6667000000000001	0.004	Yes	2.781	-0.004	2.0	GoodResponse	1	0.303	n/a	7	41	ButtonPress	Win	True
396.516	0.36	Win2	0.6667000000000001	n/a	Yes	2.781	n/a	n/a	GoodResponse	1	n/a	n/a	7	41	Blank	Win	True
396.867	1.45	Win2	0.6667000000000001	n/a	Yes	2.781	n/a	5.0	GoodResponse	1	0.03	395.897	7	41	Feedback	Win	True
398.321	2.781	Win2	0.6667000000000001	n/a	Yes	2.781	n/a	n/a	GoodResponse	1	0.0	n/a	7	41	ISIslide	Win	True
401.113	0.25	Control	0.6512	0.0	No	2.937	0.013	n/a	NoResponse	0	n/a	n/a	7	42	Cue	Neutral	True
401.364	3.85	Control	0.6512	0.0	No	2.937	0.001	n/a	NoResponse	0	n/a	n/a	7	42	Fixation	Neutral	True
405.209	0.33	Control	0.6512	0.004	No	2.937	-0.004	2.0	NoResponse	0	0.352	404.561	7	42	Target	Neutral	True
405.543	0.37	Control	0.6512	n/a	No	2.937	n/a	n/a	NoResponse	0	n/a	n/a	7	42	Blank	Neutral	True
405.561	0.3	Control	0.6512	0.004	No	2.937	-0.004	2.0	NoResponse	0	0.352	n/a	7	42	ButtonPress	Neutral	True
405.911	1.45	Control	0.6512	n/a	No	2.937	n/a	5.0	NoResponse	0	0.011	404.922	7	42	Feedback	Neutral	True
407.365	2.937	Control	0.6512	n/a	No	2.937	n/a	n/a	NoResponse	0	0.0	n/a	7	42	ISIslide	Neutral	True
410.324	0.25	Win2	0.6591	0.0	Yes	3.176	0.024	n/a	GoodResponse	1	n/a	n/a	8	43	Cue	Win	True
410.575	4.0	Win2	0.6591	0.0	Yes	3.176	0.001	n/a	GoodResponse	1	n/a	n/a	8	43	Fixation	Win	True
414.57	0.34	Win2	0.6591	0.004	Yes	3.176	-0.004	2.0	GoodResponse	1	0.255	413.825	8	43	Target	Win	True
414.825	0.3	Win2	0.6591	0.004	Yes	3.176	-0.004	2.0	GoodResponse	1	0.255	n/a	8	43	ButtonPress	Win	True
414.921	0.36	Win2	0.6591	n/a	Yes	3.176	n/a	n/a	GoodResponse	1	n/a	n/a	8	43	Blank	Win	True
415.272	1.45	Win2	0.6591	n/a	Yes	3.176	n/a	5.0	GoodResponse	1	0.014	414.286	8	43	Feedback	Win	True
416.726	3.176	Win2	0.6591	n/a	Yes	3.176	n/a	n/a	GoodResponse	1	0.0	n/a	8	43	ISIslide	Win	True
419.919	0.25	Win2	0.6667000000000001	0.0	Yes	2.981	0.019	n/a	GoodResponse	1	n/a	n/a	9	44	Cue	Win	True
420.17	4.0	Win2	0.6667000000000001	0.0	Yes	2.981	0.001	n/a	GoodResponse	1	n/a	n/a	9	44	Fixation	Win	True
424.165	0.34	Win2	0.6667000000000001	0.004	Yes	2.981	-0.004	2.0	GoodResponse	1	0.281	423.446	9	44	Target	Win	True
424.446	0.3	Win2	0.6667000000000001	0.004	Yes	2.981	-0.004	2.0	GoodResponse	1	0.281	n/a	9	44	ButtonPress	Win	True
424.516	0.36	Win2	0.6667000000000001	n/a	Yes	2.981	n/a	n/a	GoodResponse	1	n/a	n/a	9	44	Blank	Win	True
424.867	1.45	Win2	0.6667000000000001	n/a	Yes	2.981	n/a	5.0	GoodResponse	1	0.029	423.896	9	44	Feedback	Win	True
426.322	2.981	Win2	0.6667000000000001	n/a	Yes	2.981	n/a	n/a	GoodResponse	1	0.0	n/a	9	44	ISIslide	Win	True
429.314	0.25	Control	0.6739	0.0	Yes	2.886	0.014	n/a	GoodResponse	0	n/a	n/a	9	45	Cue	Neutral	True
429.565	4.1	Control	0.6739	0.0	Yes	2.886	0.001	n/a	GoodResponse	0	n/a	n/a	9	45	Fixation	Neutral	True
433.66	0.33	Control	0.6739	0.004	Yes	2.886	-0.004	2.0	GoodResponse	0	0.317	432.977	9	45	Target	Neutral	True
433.977	0.3	Control	0.6739	0.004	Yes	2.886	-0.004	2.0	GoodResponse	0	0.317	n/a	9	45	ButtonPress	Neutral	True
433.995	0.37	Control	0.6739	n/a	Yes	2.886	n/a	n/a	GoodResponse	0	n/a	n/a	9	45	Blank	Neutral	True
434.362	1.45	Control	0.6739	n/a	Yes	2.886	n/a	5.0	GoodResponse	0	0.047	433.409	9	45	Feedback	Neutral	True
435.817	2.886	Control	0.6739	n/a	Yes	2.886	n/a	n/a	GoodResponse	0	0.0	n/a	9	45	ISIslide	Neutral	True
438.725	0.25	Lose2	0.6596	0.0	No	3.375	0.025	n/a	NoResponse	-1	n/a	n/a	8	46	Cue	Loss	True
438.976	4.0	Lose2	0.6596	0.0	No	3.375	0.001	n/a	NoResponse	-1	n/a	n/a	8	46	Fixation	Loss	True
442.971	0.32	Lose2	0.6596	0.004	No	3.375	-0.004	2.0	NoResponse	-1	0.353	442.324	8	46	Target	Loss	True
443.306	0.38	Lose2	0.6596	n/a	No	3.375	n/a	n/a	NoResponse	-1	n/a	n/a	8	46	Blank	Loss	True
443.324	0.3	Lose2	0.6596	0.004	No	3.375	-0.004	2.0	NoResponse	-1	0.353	n/a	8	46	ButtonPress	Loss	True
443.673	1.45	Lose2	0.6596	n/a	No	3.375	n/a	5.0	NoResponse	-1	0.004	442.677	8	46	Feedback	Loss	True
445.128	3.375	Lose2	0.6596	n/a	No	3.375	n/a	n/a	NoResponse	-1	0.0	n/a	8	46	ISIslide	Loss	True
448.521	0.25	Lose2	0.6667000000000001	0.0	Yes	2.679	0.021	n/a	GoodResponse	0	n/a	n/a	8	47	Cue	AvoidedLoss	True
448.772	4.0	Lose2	0.6667000000000001	0.0	Yes	2.679	0.001	n/a	GoodResponse	0	n/a	n/a	8	47	Fixation	AvoidedLoss	True
452.767	0.32	Lose2	0.6667000000000001	0.004	Yes	2.679	-0.004	2.0	GoodResponse	0	0.315	452.082	8	47	Target	AvoidedLoss	True
453.082	0.3	Lose2	0.6667000000000001	0.004	Yes	2.679	-0.004	2.0	GoodResponse	0	0.315	n/a	8	47	ButtonPress	AvoidedLoss	True
453.102	0.38	Lose2	0.6667000000000001	n/a	Yes	2.679	n/a	n/a	GoodResponse	0	n/a	n/a	8	47	Blank	AvoidedLoss	True
453.469	1.45	Lose2	0.6667000000000001	n/a	Yes	2.679	n/a	5.0	GoodResponse	0	0.012	452.481	8	47	Feedback	AvoidedLoss	True
454.924	2.679	Lose2	0.6667000000000001	n/a	Yes	2.679	n/a	n/a	GoodResponse	0	0.0	n/a	8	47	ISIslide	AvoidedLoss	True
457.615	0.25	Lose2	0.6531	0.0	No	3.035	0.015	n/a	NoResponse	-1	n/a	n/a	7	48	Cue	Loss	True
457.866	3.95	Lose2	0.6531	0.0	No	3.035	0.001	n/a	NoResponse	-1	n/a	n/a	7	48	Fixation	Loss	True
461.811	0.31	Lose2	0.6531	0.004	No	3.035	-0.004	2.0	NoResponse	-1	0.351	461.162	7	48	Target	Loss	True
462.129	0.39	Lose2	0.6531	n/a	No	3.035	n/a	n/a	NoResponse	-1	n/a	n/a	7	48	Blank	Loss	True
462.162	0.3	Lose2	0.6531	0.004	No	3.035	-0.004	2.0	NoResponse	-1	0.351	n/a	7	48	ButtonPress	Loss	True
462.513	1.45	Lose2	0.6531	n/a	No	3.035	n/a	5.0	NoResponse	-1	0.041	461.554	7	48	Feedback	Loss	True
463.967	3.035	Lose2	0.6531	n/a	No	3.035	n/a	n/a	NoResponse	-1	0.0	n/a	7	48	ISIslide	Loss	True
467.027	0.25	Control	0.66	0.0	Yes	2.873	0.027	n/a	GoodResponse	0	n/a	n/a	7	49	Cue	Neutral	True
467.277	4.0	Control	0.66	0.0	Yes	2.873	0.0	n/a	GoodResponse	0	n/a	n/a	7	49	Fixation	Neutral	True
471.273	0.32	Control	0.66	0.004	Yes	2.873	-0.004	2.0	GoodResponse	0	0.318	470.591	7	49	Target	Neutral	True
471.591	0.3	Control	0.66	0.004	Yes	2.873	-0.004	2.0	GoodResponse	0	0.318	n/a	7	49	ButtonPress	Neutral	True
471.607	0.38	Control	0.66	n/a	Yes	2.873	n/a	n/a	GoodResponse	0	n/a	n/a	7	49	Blank	Neutral	True
471.975	1.45	Control	0.66	n/a	Yes	2.873	n/a	5.0	GoodResponse	0	0.043	471.018	7	49	Feedback	Neutral	True
473.429	2.873	Control	0.66	n/a	Yes	2.873	n/a	n/a	GoodResponse	0	0.0	n/a	7	49	ISIslide	Neutral	True
476.321	0.25	Control	0.6470999999999999	0.0	No	2.779	0.021	n/a	NoResponse	0	n/a	n/a	7	50	Cue	Neutral	True
476.572	4.0	Control	0.6470999999999999	0.0	No	2.779	0.001	n/a	NoResponse	0	n/a	n/a	7	50	Fixation	Neutral	True
480.567	0.32	Control	0.6470999999999999	0.004	No	2.779	-0.004	2.0	NoResponse	0	0.464	480.031	7	50	Target	Neutral	True
480.901	0.38	Control	0.6470999999999999	n/a	No	2.779	n/a	n/a	NoResponse	0	n/a	n/a	7	50	Blank	Neutral	True
481.031	0.3	Control	0.6470999999999999	0.004	No	2.779	-0.004	2.0	NoResponse	0	0.464	n/a	7	50	ButtonPress	Neutral	True
481.269	1.45	Control	0.6470999999999999	n/a	No	2.779	n/a	5.0	NoResponse	0	0.016	480.285	7	50	Feedback	Neutral	True
482.723	2.779	Control	0.6470999999999999	n/a	No	2.779	n/a	n/a	NoResponse	0	0.0	n/a	7	50	ISIslide	Neutral	True
485.515	0.25	Control	0.6346	0.0	No	2.735	0.015	n/a	LatePress	0	n/a	n/a	7	51	Cue	Neutral	True
485.766	3.95	Control	0.6346	0.0	No	2.735	0.001	n/a	LatePress	0	n/a	n/a	7	51	Fixation	Neutral	True
489.711	0.33	Control	0.6346	0.004	No	2.735	-0.004	2.0	LatePress	0	0.333	489.044	7	51	Target	Neutral	True
490.044	0.3	Control	0.6346	0.004	No	2.735	-0.004	2.0	LatePress	0	0.333	n/a	7	51	ButtonPress	Neutral	True
490.045	0.37	Control	0.6346	n/a	No	2.735	n/a	n/a	LatePress	0	n/a	n/a	7	51	Blank	Neutral	True
490.413	1.45	Control	0.6346	n/a	No	2.735	n/a	5.0	LatePress	0	0.043	489.456	7	51	Feedback	Neutral	True
491.867	2.735	Control	0.6346	n/a	No	2.735	n/a	n/a	LatePress	0	0.0	n/a	7	51	ISIslide	Neutral	True
494.626	0.25	Control	0.6225999999999999	0.0	No	2.624	0.026	n/a	NoResponse	0	n/a	n/a	7	52	Cue	Neutral	True
494.876	4.05	Control	0.6225999999999999	0.0	No	2.624	0.0	n/a	NoResponse	0	n/a	n/a	7	52	Fixation	Neutral	True
498.922	0.34	Control	0.6225999999999999	0.004	No	2.624	-0.004	2.0	NoResponse	0	0.615	498.537	7	52	Target	Neutral	True
499.273	0.36	Control	0.6225999999999999	n/a	No	2.624	n/a	n/a	NoResponse	0	n/a	n/a	7	52	Blank	Neutral	True
499.537	0.3	Control	0.6225999999999999	0.004	No	2.624	-0.004	2.0	NoResponse	0	0.615	n/a	7	52	ButtonPress	Neutral	True
499.624	1.45	Control	0.6225999999999999	n/a	No	2.624	n/a	5.0	NoResponse	0	0.004	498.628	7	52	Feedback	Neutral	True
501.078	2.624	Control	0.6225999999999999	n/a	No	2.624	n/a	n/a	NoResponse	0	0.0	n/a	7	52	ISIslide	Neutral	True
503.719	0.25	Win2	0.6296	0.001	Yes	2.931	0.019	n/a	GoodResponse	1	n/a	n/a	8	53	Cue	Win	True
503.97	4.05	Win2	0.6296	0.0	Yes	2.931	0.001	n/a	GoodResponse	1	n/a	n/a	8	53	Fixation	Win	True
508.016	0.35	Win2	0.6296	0.003	Yes	2.931	-0.003	2.0	GoodResponse	1	0.284	507.3	8	53	Target	Win	True
508.3	0.3	Win2	0.6296	0.003	Yes	2.931	-0.003	2.0	GoodResponse	1	0.284	n/a	8	53	ButtonPress	Win	True
508.367	0.35	Win2	0.6296	n/a	Yes	2.931	n/a	n/a	GoodResponse	1	n/a	n/a	8	53	Blank	Win	True
508.718	1.45	Win2	0.6296	n/a	Yes	2.931	n/a	5.0	GoodResponse	1	0.031	507.749	8	53	Feedback	Win	True
510.172	2.931	Win2	0.6296	n/a	Yes	2.931	n/a	n/a	GoodResponse	1	0.0	n/a	8	53	ISIslide	Win	True
513.114	0.25	Win2	0.6182	0.0	No	2.736	0.014	n/a	NoResponse	0	n/a	n/a	8	54	Cue	MissedWin	True
513.365	3.95	Win2	0.6182	0.0	No	2.736	0.001	n/a	NoResponse	0	n/a	n/a	8	54	Fixation	MissedWin	True
517.31	0.36	Win2	0.6182	0.004	No	2.736	-0.004	2.0	NoResponse	0	0.413	516.723	8	54	Target	MissedWin	True
517.678	0.34	Win2	0.6182	n/a	No	2.736	n/a	n/a	NoResponse	0	n/a	n/a	8	54	Blank	MissedWin	True
517.723	0.3	Win2	0.6182	0.004	No	2.736	-0.004	2.0	NoResponse	0	0.413	n/a	8	54	ButtonPress	MissedWin	True
518.012	1.45	Win2	0.6182	n/a	No	2.736	n/a	5.0	NoResponse	0	0.005	517.017	8	54	Feedback	MissedWin	True
519.466	2.736	Win2	0.6182	n/a	No	2.736	n/a	n/a	NoResponse	0	0.0	n/a	8	54	ISIslide	MissedWin	True
522.225	0.25	Control	0.625	0.0	Yes	3.025	0.025	n/a	GoodResponse	0	n/a	n/a	8	55	Cue	Neutral	True
522.475	3.95	Control	0.625	0.001	Yes	3.025	0.0	n/a	GoodResponse	0	n/a	n/a	8	55	Fixation	Neutral	True
526.421	0.37	Control	0.625	0.004	Yes	3.025	-0.004	2.0	GoodResponse	0	0.342	525.763	8	55	Target	Neutral	True
526.763	0.3	Control	0.625	0.004	Yes	3.025	-0.004	2.0	GoodResponse	0	0.342	n/a	8	55	ButtonPress	Neutral	True
526.805	0.33	Control	0.625	n/a	Yes	3.025	n/a	n/a	GoodResponse	0	n/a	n/a	8	55	Blank	Neutral	True
527.123	1.45	Control	0.625	n/a	Yes	3.025	n/a	5.0	GoodResponse	0	0.015	526.138	8	55	Feedback	Neutral	True
528.577	3.025	Control	0.625	n/a	Yes	3.025	n/a	n/a	GoodResponse	0	0.0	n/a	8	55	ISIslide	Neutral	True
531.619	0.25	Control	0.614	0.001	No	2.831	0.019	n/a	NoResponse	0	n/a	n/a	8	56	Cue	Neutral	False
531.87	3.95	Control	0.614	0.0	No	2.831	0.001	n/a	NoResponse	0	n/a	n/a	8	56	Fixation	Neutral	False
535.815	0.38	Control	0.614	0.004	No	2.831	-0.004	n/a	NoResponse	0	n/a	n/a	8	56	Target	Neutral	False
536.2	0.32	Control	0.614	n/a	No	2.831	n/a	n/a	NoResponse	0	n/a	n/a	8	56	Blank	Neutral	False
536.517	1.45	Control	0.614	n/a	No	2.831	n/a	5.0	NoResponse	0	0.036	535.553	8	56	Feedback	Neutral	False
537.972	2.831	Control	0.614	n/a	No	2.831	n/a	n/a	NoResponse	0	0.0	n/a	8	56	ISIslide	Neutral	False
540.814	0.25	Control	0.6207	0.0	Yes	3.486	0.014	n/a	GoodResponse	0	n/a	n/a	8	57	Cue	Neutral	True
541.064	4.0	Control	0.6207	0.0	Yes	3.486	0.0	n/a	GoodResponse	0	n/a	n/a	8	57	Fixation	Neutral	True
545.06	0.39	Control	0.6207	0.004	Yes	3.486	-0.004	2.0	GoodResponse	0	0.254	544.314	8	57	Target	Neutral	True
545.314	0.3	Control	0.6207	0.004	Yes	3.486	-0.004	2.0	GoodResponse	0	0.254	n/a	8	57	ButtonPress	Neutral	True
545.461	0.31	Control	0.6207	n/a	Yes	3.486	n/a	n/a	GoodResponse	0	n/a	n/a	8	57	Blank	Neutral	True
545.762	1.45	Control	0.6207	n/a	Yes	3.486	n/a	5.0	GoodResponse	0	0.011	544.773	8	57	Feedback	Neutral	True
547.216	3.486	Control	0.6207	n/a	Yes	3.486	n/a	n/a	GoodResponse	0	0.0	n/a	8	57	ISIslide	Neutral	True
550.727	0.25	Win2	0.6271	0.0	Yes	2.723	0.027	n/a	GoodResponse	1	n/a	n/a	9	58	Cue	Win	True
550.977	4.05	Win2	0.6271	0.0	Yes	2.723	0.0	n/a	GoodResponse	1	n/a	n/a	9	58	Fixation	Win	True
555.023	0.4	Win2	0.6271	0.004	Yes	2.723	-0.004	2.0	GoodResponse	1	0.347	554.37	9	58	Target	Win	True
555.37	0.3	Win2	0.6271	0.004	Yes	2.723	-0.004	2.0	GoodResponse	1	0.347	n/a	9	58	ButtonPress	Win	True
555.424	0.3	Win2	0.6271	n/a	Yes	2.723	n/a	n/a	GoodResponse	1	n/a	n/a	9	58	Blank	Win	True
555.725	1.45	Win2	0.6271	n/a	Yes	2.723	n/a	5.0	GoodResponse	1	0.047	554.772	9	58	Feedback	Win	True
557.179	2.723	Win2	0.6271	n/a	Yes	2.723	n/a	n/a	GoodResponse	1	0.0	n/a	9	58	ISIslide	Win	True
559.921	0.25	Lose2	0.6333	0.0	Yes	2.679	0.021	n/a	GoodResponse	0	n/a	n/a	9	59	Cue	AvoidedLoss	True
560.171	4.0	Lose2	0.6333	0.0	Yes	2.679	0.0	n/a	GoodResponse	0	n/a	n/a	9	59	Fixation	AvoidedLoss	True
564.167	0.41	Lose2	0.6333	0.004	Yes	2.679	-0.004	2.0	GoodResponse	0	0.254	563.421	9	59	Target	AvoidedLoss	True
564.421	0.3	Lose2	0.6333	0.004	Yes	2.679	-0.004	2.0	GoodResponse	0	0.254	n/a	9	59	ButtonPress	AvoidedLoss	True
564.585	0.29	Lose2	0.6333	n/a	Yes	2.679	n/a	n/a	GoodResponse	0	n/a	n/a	9	59	Blank	AvoidedLoss	True
564.869	1.45	Lose2	0.6333	n/a	Yes	2.679	n/a	5.0	GoodResponse	0	0.025	563.894	9	59	Feedback	AvoidedLoss	True
566.323	2.679	Lose2	0.6333	n/a	Yes	2.679	n/a	n/a	GoodResponse	0	0.0	n/a	9	59	ISIslide	AvoidedLoss	True
569.014	0.25	Control	0.6393	0.001	Yes	2.686	0.014	n/a	GoodResponse	0	n/a	n/a	9	60	Cue	Neutral	True
569.265	4.0	Control	0.6393	0.0	Yes	2.686	0.001	n/a	GoodResponse	0	n/a	n/a	9	60	Fixation	Neutral	True
573.26	0.42	Control	0.6393	0.004	Yes	2.686	-0.004	2.0	GoodResponse	0	0.283	572.543	9	60	Target	Neutral	True
573.543	0.3	Control	0.6393	0.004	Yes	2.686	-0.004	2.0	GoodResponse	0	0.283	n/a	9	60	ButtonPress	Neutral	True
573.695	0.28	Control	0.6393	n/a	Yes	2.686	n/a	n/a	GoodResponse	0	n/a	n/a	9	60	Blank	Neutral	True
573.963	1.45	Control	0.6393	n/a	Yes	2.686	n/a	5.0	GoodResponse	0	0.004	572.967	9	60	Feedback	Neutral	True
575.417	2.686	Control	0.6393	n/a	Yes	2.686	n/a	n/a	GoodResponse	0	0.0	n/a	9	60	ISIslide	Neutral	True
578.125	0.25	Lose2	0.6452	0.0	Yes	2.975	0.025	n/a	GoodResponse	0	n/a	n/a	9	61	Cue	AvoidedLoss	True
578.376	4.0	Lose2	0.6452	0.0	Yes	2.975	0.001	n/a	GoodResponse	0	n/a	n/a	9	61	Fixation	AvoidedLoss	True
582.371	0.43	Lose2	0.6452	0.004	Yes	2.975	-0.004	2.0	GoodResponse	0	0.306	581.677	9	61	Target	AvoidedLoss	True
582.677	0.3	Lose2	0.6452	0.004	Yes	2.975	-0.004	2.0	GoodResponse	0	0.306	n/a	9	61	ButtonPress	AvoidedLoss	True
582.806	0.27	Lose2	0.6452	n/a	Yes	2.975	n/a	n/a	GoodResponse	0	n/a	n/a	9	61	Blank	AvoidedLoss	True
583.073	1.45	Lose2	0.6452	n/a	Yes	2.975	n/a	5.0	GoodResponse	0	0.016	582.089	9	61	Feedback	AvoidedLoss	True
584.527	2.975	Lose2	0.6452	n/a	Yes	2.975	n/a	n/a	GoodResponse	0	0.0	n/a	9	61	ISIslide	AvoidedLoss	True
587.52	0.25	Lose2	0.6507999999999999	0.0	Yes	2.88	0.02	n/a	GoodResponse	0	n/a	n/a	9	62	Cue	AvoidedLoss	True
587.77	3.9	Lose2	0.6507999999999999	0.001	Yes	2.88	0.0	n/a	GoodResponse	0	n/a	n/a	9	62	Fixation	AvoidedLoss	True
591.665	0.44	Lose2	0.6507999999999999	0.005	Yes	2.88	-0.005	2.0	GoodResponse	0	0.281	590.946	9	62	Target	AvoidedLoss	True
591.946	0.3	Lose2	0.6507999999999999	0.005	Yes	2.88	-0.005	2.0	GoodResponse	0	0.281	n/a	9	62	ButtonPress	AvoidedLoss	True
592.117	0.26	Lose2	0.6507999999999999	n/a	Yes	2.88	n/a	n/a	GoodResponse	0	n/a	n/a	9	62	Blank	AvoidedLoss	True
592.368	1.45	Lose2	0.6507999999999999	n/a	Yes	2.88	n/a	5.0	GoodResponse	0	0.037	591.405	9	62	Feedback	AvoidedLoss	True
593.822	2.88	Lose2	0.6507999999999999	n/a	Yes	2.88	n/a	n/a	GoodResponse	0	0.0	n/a	9	62	ISIslide	AvoidedLoss	True
596.714	0.25	Lose2	0.6562	0.0	Yes	2.636	0.014	n/a	GoodResponse	0	n/a	n/a	9	63	Cue	AvoidedLoss	True
596.965	4.05	Lose2	0.6562	0.0	Yes	2.636	0.001	n/a	GoodResponse	0	n/a	n/a	9	63	Fixation	AvoidedLoss	True
601.01	0.45	Lose2	0.6562	0.004	Yes	2.636	-0.004	2.0	GoodResponse	0	0.261	600.271	9	63	Target	AvoidedLoss	True
601.271	0.3	Lose2	0.6562	0.004	Yes	2.636	-0.004	2.0	GoodResponse	0	0.261	n/a	9	63	ButtonPress	AvoidedLoss	True
601.461	0.25	Lose2	0.6562	n/a	Yes	2.636	n/a	n/a	GoodResponse	0	n/a	n/a	9	63	Blank	AvoidedLoss	True
601.712	1.45	Lose2	0.6562	n/a	Yes	2.636	n/a	5.0	GoodResponse	0	0.011	600.723	9	63	Feedback	AvoidedLoss	True
603.166	2.636	Lose2	0.6562	n/a	Yes	2.636	n/a	n/a	GoodResponse	0	0.0	n/a	9	63	ISIslide	AvoidedLoss	True
605.824	0.25	Win2	0.6615000000000001	0.001	Yes	3.126	0.024	n/a	GoodResponse	1	n/a	n/a	10	64	Cue	Win	True
606.075	4.15	Win2	0.6615000000000001	0.0	Yes	3.126	0.001	n/a	GoodResponse	1	n/a	n/a	10	64	Fixation	Win	True
610.221	0.45	Win2	0.6615000000000001	0.003	Yes	3.126	-0.003	2.0	GoodResponse	1	0.271	609.492	10	64	Target	Win	True
610.492	0.3	Win2	0.6615000000000001	0.003	Yes	3.126	-0.003	2.0	GoodResponse	1	0.271	n/a	10	64	ButtonPress	Win	True
610.672	0.25	Win2	0.6615000000000001	n/a	Yes	3.126	n/a	n/a	GoodResponse	1	n/a	n/a	10	64	Blank	Win	True
610.923	1.45	Win2	0.6615000000000001	n/a	Yes	3.126	n/a	5.0	GoodResponse	1	0.019	609.942	10	64	Feedback	Win	True
612.377	3.126	Win2	0.6615000000000001	n/a	Yes	3.126	n/a	n/a	GoodResponse	1	0.0	n/a	10	64	ISIslide	Win	True
615.52	0.25	Control	0.6515000000000001	0.0	No	2.78	0.02	n/a	NoResponse	0	n/a	n/a	10	65	Cue	Neutral	True
615.771	4.0	Control	0.6515000000000001	0.0	No	2.78	0.001	n/a	NoResponse	0	n/a	n/a	10	65	Fixation	Neutral	True
619.766	0.45	Control	0.6515000000000001	0.004	No	2.78	-0.004	2.0	NoResponse	0	0.501	619.267	10	65	Target	Neutral	True
620.217	0.25	Control	0.6515000000000001	n/a	No	2.78	n/a	n/a	NoResponse	0	n/a	n/a	10	65	Blank	Neutral	True
620.267	0.3	Control	0.6515000000000001	0.004	No	2.78	-0.004	2.0	NoResponse	0	0.501	n/a	10	65	ButtonPress	Neutral	True
620.468	1.45	Control	0.6515000000000001	n/a	No	2.78	n/a	5.0	NoResponse	0	0.035	619.503	10	65	Feedback	Neutral	True
621.922	2.78	Control	0.6515000000000001	n/a	No	2.78	n/a	n/a	NoResponse	0	0.0	n/a	10	65	ISIslide	Neutral	True
624.714	0.25	Win2	0.6567000000000001	0.0	Yes	2.786	0.014	n/a	GoodResponse	1	n/a	n/a	11	66	Cue	Win	True
624.965	3.9	Win2	0.6567000000000001	0.0	Yes	2.786	0.001	n/a	GoodResponse	1	n/a	n/a	11	66	Fixation	Win	True
628.86	0.46	Win2	0.6567000000000001	0.004	Yes	2.786	-0.004	2.0	GoodResponse	1	0.299	628.159	11	66	Target	Win	True
629.159	0.3	Win2	0.6567000000000001	0.004	Yes	2.786	-0.004	2.0	GoodResponse	1	0.299	n/a	11	66	ButtonPress	Win	True
629.328	0.24	Win2	0.6567000000000001	n/a	Yes	2.786	n/a	n/a	GoodResponse	1	n/a	n/a	11	66	Blank	Win	True
629.562	1.45	Win2	0.6567000000000001	n/a	Yes	2.786	n/a	5.0	GoodResponse	1	0.015	628.577	11	66	Feedback	Win	True
631.016	2.786	Win2	0.6567000000000001	n/a	Yes	2.786	n/a	n/a	GoodResponse	1	0.0	n/a	11	66	ISIslide	Win	True
633.825	0.25	Control	0.6618	0.0	Yes	2.725	0.025	n/a	GoodResponse	0	n/a	n/a	11	67	Cue	Neutral	True
634.075	3.95	Control	0.6618	0.001	Yes	2.725	0.0	n/a	GoodResponse	0	n/a	n/a	11	67	Fixation	Neutral	True
638.021	0.46	Control	0.6618	0.004	Yes	2.725	-0.004	2.0	GoodResponse	0	0.271	637.292	11	67	Target	Neutral	True
638.292	0.3	Control	0.6618	0.004	Yes	2.725	-0.004	2.0	GoodResponse	0	0.271	n/a	11	67	ButtonPress	Neutral	True
638.489	0.24	Control	0.6618	n/a	Yes	2.725	n/a	n/a	GoodResponse	0	n/a	n/a	11	67	Blank	Neutral	True
638.723	1.45	Control	0.6618	n/a	Yes	2.725	n/a	5.0	GoodResponse	0	0.023	637.746	11	67	Feedback	Neutral	True
640.177	2.725	Control	0.6618	n/a	Yes	2.725	n/a	n/a	GoodResponse	0	0.0	n/a	11	67	ISIslide	Neutral	True
642.919	0.25	Win2	0.6667000000000001	0.0	Yes	3.081	0.019	n/a	GoodResponse	1	n/a	n/a	12	68	Cue	Win	True
643.169	4.0	Win2	0.6667000000000001	0.0	Yes	3.081	0.0	n/a	GoodResponse	1	n/a	n/a	12	68	Fixation	Win	True
647.165	0.46	Win2	0.6667000000000001	0.004	Yes	3.081	-0.004	2.0	GoodResponse	1	0.353	646.518	12	68	Target	Win	True
647.518	0.3	Win2	0.6667000000000001	0.004	Yes	3.081	-0.004	2.0	GoodResponse	1	0.353	n/a	12	68	ButtonPress	Win	True
647.633	0.24	Win2	0.6667000000000001	n/a	Yes	3.081	n/a	n/a	GoodResponse	1	n/a	n/a	12	68	Blank	Win	True
647.867	1.45	Win2	0.6667000000000001	n/a	Yes	3.081	n/a	5.0	GoodResponse	1	0.001	646.868	12	68	Feedback	Win	True
649.321	3.081	Win2	0.6667000000000001	n/a	Yes	3.081	n/a	n/a	GoodResponse	1	0.0	n/a	12	68	ISIslide	Win	True
652.414	0.25	Win2	0.6714	0.0	Yes	3.236	0.014	n/a	GoodResponse	1	n/a	n/a	13	69	Cue	Win	True
652.664	3.95	Win2	0.6714	0.0	Yes	3.236	0.0	n/a	GoodResponse	1	n/a	n/a	13	69	Fixation	Win	True
656.626	0.45	Win2	0.6714	0.0	Yes	3.236	0.012	2.0	GoodResponse	1	0.426	656.052	13	69	Target	Win	True
657.052	0.3	Win2	0.6714	0.0	Yes	3.236	0.012	2.0	GoodResponse	1	0.426	n/a	13	69	ButtonPress	Win	True
657.061	0.25	Win2	0.6714	n/a	Yes	3.236	n/a	n/a	GoodResponse	1	n/a	n/a	13	69	Blank	Win	True
657.311	1.45	Win2	0.6714	n/a	Yes	3.236	n/a	5.0	GoodResponse	1	0.021	656.332	13	69	Feedback	Win	True
658.766	3.236	Win2	0.6714	n/a	Yes	3.236	n/a	n/a	GoodResponse	1	0.0	n/a	13	69	ISIslide	Win	True
662.026	0.25	Lose2	0.6761	0.0	Yes	3.024	0.026	n/a	GoodResponse	0	n/a	n/a	13	70	Cue	AvoidedLoss	True
662.276	4.05	Lose2	0.6761	0.0	Yes	3.024	0.0	n/a	GoodResponse	0	n/a	n/a	13	70	Fixation	AvoidedLoss	True
666.322	0.44	Lose2	0.6761	0.004	Yes	3.024	-0.004	2.0	GoodResponse	0	0.43	665.752	13	70	Target	AvoidedLoss	True
666.752	0.3	Lose2	0.6761	0.004	Yes	3.024	-0.004	2.0	GoodResponse	0	0.43	n/a	13	70	ButtonPress	AvoidedLoss	True
666.773	0.26	Lose2	0.6761	n/a	Yes	3.024	n/a	n/a	GoodResponse	0	n/a	n/a	13	70	Blank	AvoidedLoss	True
667.024	1.45	Lose2	0.6761	n/a	Yes	3.024	n/a	5.0	GoodResponse	0	0.015	666.039	13	70	Feedback	AvoidedLoss	True
668.478	3.024	Lose2	0.6761	n/a	Yes	3.024	n/a	n/a	GoodResponse	0	0.0	n/a	13	70	ISIslide	AvoidedLoss	True
671.521	0.25	Win2	0.6806	0.0	Yes	2.729	0.021	n/a	GoodResponse	1	n/a	n/a	14	71	Cue	Win	True
671.771	4.05	Win2	0.6806	0.0	Yes	2.729	0.0	n/a	GoodResponse	1	n/a	n/a	14	71	Fixation	Win	True
675.817	0.43	Win2	0.6806	0.004	Yes	2.729	-0.004	2.0	GoodResponse	1	0.312	675.129	14	71	Target	Win	True
676.129	0.3	Win2	0.6806	0.004	Yes	2.729	-0.004	2.0	GoodResponse	1	0.312	n/a	14	71	ButtonPress	Win	True
676.251	0.27	Win2	0.6806	n/a	Yes	2.729	n/a	n/a	GoodResponse	1	n/a	n/a	14	71	Blank	Win	True
676.519	1.45	Win2	0.6806	n/a	Yes	2.729	n/a	5.0	GoodResponse	1	0.032	675.551	14	71	Feedback	Win	True
677.973	2.729	Win2	0.6806	n/a	Yes	2.729	n/a	n/a	GoodResponse	1	0.0	n/a	14	71	ISIslide	Win	True
680.715	0.25	Win2	0.6849	0.0	Yes	2.785	0.015	n/a	GoodResponse	1	n/a	n/a	15	72	Cue	Win	True
680.965	4.1	Win2	0.6849	0.001	Yes	2.785	0.0	n/a	GoodResponse	1	n/a	n/a	15	72	Fixation	Win	True
685.061	0.42	Win2	0.6849	0.004	Yes	2.785	-0.004	2.0	GoodResponse	1	0.282	684.343	15	72	Target	Win	True
685.343	0.3	Win2	0.6849	0.004	Yes	2.785	-0.004	2.0	GoodResponse	1	0.282	n/a	15	72	ButtonPress	Win	True
685.496	0.28	Win2	0.6849	n/a	Yes	2.785	n/a	n/a	GoodResponse	1	n/a	n/a	15	72	Blank	Win	True
685.763	1.45	Win2	0.6849	n/a	Yes	2.785	n/a	5.0	GoodResponse	1	0.007	684.77	15	72	Feedback	Win	True
687.217	2.785	Win2	0.6849	n/a	Yes	2.785	n/a	n/a	GoodResponse	1	0.0	n/a	15	72	ISIslide	Win	True
690.026	0.25	Win2	0.6892	0.0	Yes	2.674	0.026	n/a	GoodResponse	1	n/a	n/a	16	73	Cue	Win	True
690.277	4.0	Win2	0.6892	0.0	Yes	2.674	0.001	n/a	GoodResponse	1	n/a	n/a	16	73	Fixation	Win	True
694.272	0.41	Win2	0.6892	0.004	Yes	2.674	-0.004	2.0	GoodResponse	1	0.306	693.578	16	73	Target	Win	True
694.578	0.3	Win2	0.6892	0.004	Yes	2.674	-0.004	2.0	GoodResponse	1	0.306	n/a	16	73	ButtonPress	Win	True
694.69	0.29	Win2	0.6892	n/a	Yes	2.674	n/a	n/a	GoodResponse	1	n/a	n/a	16	73	Blank	Win	True
694.974	1.45	Win2	0.6892	n/a	Yes	2.674	n/a	5.0	GoodResponse	1	0.016	693.99	16	73	Feedback	Win	True
696.428	2.674	Win2	0.6892	n/a	Yes	2.674	n/a	n/a	GoodResponse	1	0.0	n/a	16	73	ISIslide	Win	True
699.12	0.25	Lose2	0.6933	0.0	Yes	2.63	0.02	n/a	GoodResponse	0	n/a	n/a	16	74	Cue	AvoidedLoss	True
699.37	4.05	Lose2	0.6933	0.001	Yes	2.63	0.0	n/a	GoodResponse	0	n/a	n/a	16	74	Fixation	AvoidedLoss	True
703.416	0.4	Lose2	0.6933	0.004	Yes	2.63	-0.004	2.0	GoodResponse	0	0.308	702.724	16	74	Target	AvoidedLoss	True
703.724	0.3	Lose2	0.6933	0.004	Yes	2.63	-0.004	2.0	GoodResponse	0	0.308	n/a	16	74	ButtonPress	AvoidedLoss	True
703.817	0.3	Lose2	0.6933	n/a	Yes	2.63	n/a	n/a	GoodResponse	0	n/a	n/a	16	74	Blank	AvoidedLoss	True
704.118	1.45	Lose2	0.6933	n/a	Yes	2.63	n/a	5.0	GoodResponse	0	0.043	703.161	16	74	Feedback	AvoidedLoss	True
705.572	2.63	Lose2	0.6933	n/a	Yes	2.63	n/a	n/a	GoodResponse	0	0.0	n/a	16	74	ISIslide	AvoidedLoss	True
708.214	0.25	Lose2	0.6973999999999999	0.0	Yes	2.936	0.014	n/a	GoodResponse	0	n/a	n/a	16	75	Cue	AvoidedLoss	True
708.464	3.95	Lose2	0.6973999999999999	0.0	Yes	2.936	0.0	n/a	GoodResponse	0	n/a	n/a	16	75	Fixation	AvoidedLoss	True
712.426	0.39	Lose2	0.6973999999999999	0.0	Yes	2.936	0.012	2.0	GoodResponse	0	0.328	711.754	16	75	Target	AvoidedLoss	True
712.754	0.3	Lose2	0.6973999999999999	0.0	Yes	2.936	0.012	2.0	GoodResponse	0	0.328	n/a	16	75	ButtonPress	AvoidedLoss	True
712.811	0.31	Lose2	0.6973999999999999	n/a	Yes	2.936	n/a	n/a	GoodResponse	0	n/a	n/a	16	75	Blank	AvoidedLoss	True
713.111	1.45	Lose2	0.6973999999999999	n/a	Yes	2.936	n/a	5.0	GoodResponse	0	0.025	712.136	16	75	Feedback	AvoidedLoss	True
714.566	2.936	Lose2	0.6973999999999999	n/a	Yes	2.936	n/a	n/a	GoodResponse	0	0.0	n/a	16	75	ISIslide	AvoidedLoss	True
717.525	0.25	Control	0.7012999999999999	0.0	Yes	3.225	0.025	n/a	GoodResponse	0	n/a	n/a	16	76	Cue	Neutral	True
717.775	4.05	Control	0.7012999999999999	0.0	Yes	3.225	0.0	n/a	GoodResponse	0	n/a	n/a	16	76	Fixation	Neutral	True
721.821	0.38	Control	0.7012999999999999	0.004	Yes	3.225	-0.004	2.0	GoodResponse	0	0.284	721.105	16	76	Target	Neutral	True
722.105	0.3	Control	0.7012999999999999	0.004	Yes	3.225	-0.004	2.0	GoodResponse	0	0.284	n/a	16	76	ButtonPress	Neutral	True
722.205	0.32	Control	0.7012999999999999	n/a	Yes	3.225	n/a	n/a	GoodResponse	0	n/a	n/a	16	76	Blank	Neutral	True
722.523	1.45	Control	0.7012999999999999	n/a	Yes	3.225	n/a	5.0	GoodResponse	0	0.027	721.55	16	76	Feedback	Neutral	True
723.977	3.225	Control	0.7012999999999999	n/a	Yes	3.225	n/a	n/a	GoodResponse	0	0.0	n/a	16	76	ISIslide	Neutral	True
727.22	0.25	Lose2	0.7051000000000001	0.0	Yes	2.58	0.02	n/a	GoodResponse	0	n/a	n/a	16	77	Cue	AvoidedLoss	True
727.471	3.95	Lose2	0.7051000000000001	0.0	Yes	2.58	0.001	n/a	GoodResponse	0	n/a	n/a	16	77	Fixation	AvoidedLoss	True
731.416	0.37	Lose2	0.7051000000000001	0.004	Yes	2.58	-0.004	2.0	GoodResponse	0	0.289	730.705	16	77	Target	AvoidedLoss	True
731.705	0.3	Lose2	0.7051000000000001	0.004	Yes	2.58	-0.004	2.0	GoodResponse	0	0.289	n/a	16	77	ButtonPress	AvoidedLoss	True
731.801	0.33	Lose2	0.7051000000000001	n/a	Yes	2.58	n/a	n/a	GoodResponse	0	n/a	n/a	16	77	Blank	AvoidedLoss	True
732.118	1.45	Lose2	0.7051000000000001	n/a	Yes	2.58	n/a	5.0	GoodResponse	0	0.042	731.16	16	77	Feedback	AvoidedLoss	True
733.573	2.58	Lose2	0.7051000000000001	n/a	Yes	2.58	n/a	n/a	GoodResponse	0	0.0	n/a	16	77	ISIslide	AvoidedLoss	True
