onset	duration	cue_type	current_mean_accuracy	duration_error	is_hit	isi_adjusted	onset_delay	response	response_type	reward	rt	rt_time	total_reward	trial_number	trial_phase	trial_type	one_press
11.099	0.25	Control	1.0	0.0	Yes	2.951	-0.001	n/a	GoodResponse	0	n/a	n/a	0	0	Cue	Neutral	True
11.35	3.85	Control	1.0	0.0	Yes	2.951	0.001	n/a	GoodResponse	0	n/a	n/a	0	0	Fixation	Neutral	True
15.194	0.4	Control	1.0	0.005	Yes	2.951	-0.005	2.0	GoodResponse	0	0.218	14.412	0	0	Target	Neutral	True
15.412	0.3	Control	1.0	0.005	Yes	2.951	-0.005	2.0	GoodResponse	0	0.218	n/a	0	0	ButtonPress	Neutral	True
15.596	0.3	Control	1.0	n/a	Yes	2.951	n/a	n/a	GoodResponse	0	n/a	n/a	0	0	Blank	Neutral	True
15.897	1.45	Control	1.0	n/a	Yes	2.951	n/a	5.0	GoodResponse	0	0.032	14.929	0	0	Feedback	Neutral	True
17.351	2.951	Control	1.0	n/a	Yes	2.951	n/a	n/a	GoodResponse	0	0.0	n/a	0	0	ISIslide	Neutral	True
20.327	0.25	Lose2	1.0	0.0	Yes	2.773	0.027	n/a	GoodResponse	0	n/a	n/a	0	1	Cue	AvoidedLoss	True
20.577	4.0	Lose2	1.0	0.0	Yes	2.773	0.0	n/a	GoodResponse	0	n/a	n/a	0	1	Fixation	AvoidedLoss	True
24.573	0.39	Lose2	1.0	0.004	Yes	2.773	-0.004	2.0	GoodResponse	0	0.198	23.771	0	1	Target	AvoidedLoss	True
24.771	0.3	Lose2	1.0	0.004	Yes	2.773	-0.004	2.0	GoodResponse	0	0.198	n/a	0	1	ButtonPress	AvoidedLoss	True
24.974	0.31	Lose2	1.0	n/a	Yes	2.773	n/a	n/a	GoodResponse	0	n/a	n/a	0	1	Blank	AvoidedLoss	True
25.275	1.45	Lose2	1.0	n/a	Yes	2.773	n/a	5.0	GoodResponse	0	0.02	24.295	0	1	Feedback	AvoidedLoss	True
26.729	2.773	Lose2	1.0	n/a	Yes	2.773	n/a	n/a	GoodResponse	0	0.0	n/a	0	1	ISIslide	AvoidedLoss	True
29.521	0.25	Control	1.0	0.0	Yes	2.579	0.021	n/a	GoodResponse	0	n/a	n/a	0	2	Cue	Neutral	True
29.771	4.1	Control	1.0	0.001	Yes	2.579	0.0	n/a	GoodResponse	0	n/a	n/a	0	2	Fixation	Neutral	True
33.867	0.38	Control	1.0	0.004	Yes	2.579	-0.004	2.0	GoodResponse	0	0.204	33.071	0	2	Target	Neutral	True
34.071	0.3	Control	1.0	0.004	Yes	2.579	-0.004	2.0	GoodResponse	0	0.204	n/a	0	2	ButtonPress	Neutral	True
34.251	0.32	Control	1.0	n/a	Yes	2.579	n/a	n/a	GoodResponse	0	n/a	n/a	0	2	Blank	Neutral	True
34.569	1.45	Control	1.0	n/a	Yes	2.579	n/a	5.0	GoodResponse	0	0.043	33.612	0	2	Feedback	Neutral	True
36.023	2.579	Control	1.0	n/a	Yes	2.579	n/a	n/a	GoodResponse	0	0.0	n/a	0	2	ISIslide	Neutral	True
38.681	0.25	Win2	1.0	0.0	Yes	2.769	0.081	n/a	GoodResponse	1	n/a	n/a	1	3	Cue	Win	True
38.932	3.95	Win2	1.0	0.0	Yes	2.769	0.001	n/a	GoodResponse	1	n/a	n/a	1	3	Fixation	Win	True
42.877	0.37	Win2	1.0	0.004	Yes	2.769	-0.004	2.0	GoodResponse	1	0.17	42.047	1	3	Target	Win	True
43.047	0.3	Win2	1.0	0.004	Yes	2.769	-0.004	2.0	GoodResponse	1	0.17	n/a	1	3	ButtonPress	Win	True
43.262	0.33	Win2	1.0	n/a	Yes	2.769	n/a	n/a	GoodResponse	1	n/a	n/a	1	3	Blank	Win	True
43.579	1.45	Win2	1.0	n/a	Yes	2.769	n/a	5.0	GoodResponse	1	0.008	42.587	1	3	Feedback	Win	True
45.034	2.769	Win2	1.0	n/a	Yes	2.769	n/a	n/a	GoodResponse	1	0.0	n/a	1	3	ISIslide	Win	True
47.825	0.25	Win2	1.0	0.0	Yes	3.275	0.025	n/a	GoodResponse	1	n/a	n/a	2	4	Cue	Win	True
48.076	4.0	Win2	1.0	0.0	Yes	3.275	0.001	n/a	GoodResponse	1	n/a	n/a	2	4	Fixation	Win	True
52.071	0.36	Win2	1.0	0.004	Yes	3.275	-0.004	2.0	GoodResponse	1	0.27	51.341	2	4	Target	Win	True
52.341	0.3	Win2	1.0	0.004	Yes	3.275	-0.004	2.0	GoodResponse	1	0.27	n/a	2	4	ButtonPress	Win	True
52.439	0.34	Win2	1.0	n/a	Yes	3.275	n/a	n/a	GoodResponse	1	n/a	n/a	2	4	Blank	Win	True
52.774	1.45	Win2	1.0	n/a	Yes	3.275	n/a	5.0	GoodResponse	1	0.033	51.807	2	4	Feedback	Win	True
54.228	3.275	Win2	1.0	n/a	Yes	3.275	n/a	n/a	GoodResponse	1	0.0	n/a	2	4	ISIslide	Win	True
57.521	0.25	Win2	1.0	0.0	Yes	2.779	0.021	n/a	GoodResponse	1	n/a	n/a	3	5	Cue	Win	True
57.772	4.0	Win2	1.0	0.0	Yes	2.779	0.001	n/a	GoodResponse	1	n/a	n/a	3	5	Fixation	Win	True
61.767	0.35	Win2	1.0	0.004	Yes	2.779	-0.004	2.0	GoodResponse	1	0.198	60.965	3	5	Target	Win	True
61.965	0.3	Win2	1.0	0.004	Yes	2.779	-0.004	2.0	GoodResponse	1	0.198	n/a	3	5	ButtonPress	Win	True
62.118	0.35	Win2	1.0	n/a	Yes	2.779	n/a	n/a	GoodResponse	1	n/a	n/a	3	5	Blank	Win	True
62.469	1.45	Win2	1.0	n/a	Yes	2.779	n/a	5.0	GoodResponse	1	0.045	61.514	3	5	Feedback	Win	True
63.924	2.779	Win2	1.0	n/a	Yes	2.779	n/a	n/a	GoodResponse	1	0.0	n/a	3	5	ISIslide	Win	True
66.715	0.25	Lose2	0.8571	0.0	No	2.735	0.015	n/a	NoResponse	-1	n/a	n/a	2	6	Cue	Loss	True
66.966	3.95	Lose2	0.8571	0.0	No	2.735	0.001	n/a	NoResponse	-1	n/a	n/a	2	6	Fixation	Loss	True
70.911	0.34	Lose2	0.8571	0.004	No	2.735	-0.004	2.0	NoResponse	-1	0.377	70.288	2	6	Target	Loss	True
71.262	0.36	Lose2	0.8571	n/a	No	2.735	n/a	n/a	NoResponse	-1	n/a	n/a	2	6	Blank	Loss	True
71.288	0.3	Lose2	0.8571	0.004	No	2.735	-0.004	2.0	NoResponse	-1	0.377	n/a	2	6	ButtonPress	Loss	True
71.613	1.45	Lose2	0.8571	n/a	No	2.735	n/a	5.0	NoResponse	-1	0.023	70.636	2	6	Feedback	Loss	True
73.068	2.735	Lose2	0.8571	n/a	No	2.735	n/a	n/a	NoResponse	-1	0.0	n/a	2	6	ISIslide	Loss	True
75.826	0.25	Lose2	0.875	0.0	Yes	4.024	0.026	n/a	GoodResponse	0	n/a	n/a	2	7	Cue	AvoidedLoss	True
76.077	4.05	Lose2	0.875	0.0	Yes	4.024	0.001	n/a	GoodResponse	0	n/a	n/a	2	7	Fixation	AvoidedLoss	True
80.122	0.33	Lose2	0.875	0.004	Yes	4.024	-0.004	2.0	GoodResponse	0	0.207	79.329	2	7	Target	AvoidedLoss	True
80.329	0.3	Lose2	0.875	0.004	Yes	4.024	-0.004	2.0	GoodResponse	0	0.207	n/a	2	7	ButtonPress	AvoidedLoss	True
80.456	0.37	Lose2	0.875	n/a	Yes	4.024	n/a	n/a	GoodResponse	0	n/a	n/a	2	7	Blank	AvoidedLoss	True
80.824	1.45	Lose2	0.875	n/a	Yes	4.024	n/a	5.0	GoodResponse	0	0.031	79.855	2	7	Feedback	AvoidedLoss	True
82.278	4.024	Lose2	0.875	n/a	Yes	4.024	n/a	n/a	GoodResponse	0	0.0	n/a	2	7	ISIslide	AvoidedLoss	True
86.324	0.25	Lose2	0.8889	0.0	Yes	3.026	0.024	n/a	GoodResponse	0	n/a	n/a	2	8	Cue	AvoidedLoss	True
86.575	3.95	Lose2	0.8889	0.0	Yes	3.026	0.001	n/a	GoodResponse	0	n/a	n/a	2	8	Fixation	AvoidedLoss	True
90.52	0.32	Lose2	0.8889	0.004	Yes	3.026	-0.004	2.0	GoodResponse	0	0.245	89.765	2	8	Target	AvoidedLoss	True
90.765	0.3	Lose2	0.8889	0.004	Yes	3.026	-0.004	2.0	GoodResponse	0	0.245	n/a	2	8	ButtonPress	AvoidedLoss	True
90.854	0.38	Lose2	0.8889	n/a	Yes	3.026	n/a	n/a	GoodResponse	0	n/a	n/a	2	8	Blank	AvoidedLoss	True
91.222	1.45	Lose2	0.8889	n/a	Yes	3.026	n/a	5.0	GoodResponse	0	0.024	90.246	2	8	Feedback	AvoidedLoss	True
92.676	3.026	Lose2	0.8889	n/a	Yes	3.026	n/a	n/a	GoodResponse	0	0.0	n/a	2	8	ISIslide	AvoidedLoss	True
95.719	0.25	Lose2	0.9	0.0	Yes	3.131	0.019	n/a	GoodResponse	0	n/a	n/a	2	9	Cue	AvoidedLoss	True
95.969	3.95	Lose2	0.9	0.0	Yes	3.131	0.0	n/a	GoodResponse	0	n/a	n/a	2	9	Fixation	AvoidedLoss	True
99.931	0.31	Lose2	0.9	0.0	Yes	3.131	0.012	2.0	GoodResponse	0	0.186	99.117	2	9	Target	AvoidedLoss	True
100.117	0.3	Lose2	0.9	0.0	Yes	3.131	0.012	2.0	GoodResponse	0	0.186	n/a	2	9	ButtonPress	AvoidedLoss	True
100.232	0.39	Lose2	0.9	n/a	Yes	3.131	n/a	n/a	GoodResponse	0	n/a	n/a	2	9	Blank	AvoidedLoss	True
100.617	1.45	Lose2	0.9	n/a	Yes	3.131	n/a	5.0	GoodResponse	0	0.043	99.66	2	9	Feedback	AvoidedLoss	True
102.071	3.131	Lose2	0.9	n/a	Yes	3.131	n/a	n/a	GoodResponse	0	0.0	n/a	2	9	ISIslide	AvoidedLoss	True
105.23	0.25	Control	0.9091	0.0	Yes	3.27	0.03	n/a	GoodResponse	0	n/a	n/a	2	10	Cue	Neutral	True
105.481	4.0	Control	0.9091	0.0	Yes	3.27	0.001	n/a	GoodResponse	0	n/a	n/a	2	10	Fixation	Neutral	True
109.476	0.3	Control	0.9091	0.004	Yes	3.27	-0.004	2.0	GoodResponse	0	0.217	108.693	2	10	Target	Neutral	True
109.693	0.3	Control	0.9091	0.004	Yes	3.27	-0.004	2.0	GoodResponse	0	0.217	n/a	2	10	ButtonPress	Neutral	True
109.777	0.4	Control	0.9091	n/a	Yes	3.27	n/a	n/a	GoodResponse	0	n/a	n/a	2	10	Blank	Neutral	True
110.178	1.45	Control	0.9091	n/a	Yes	3.27	n/a	5.0	GoodResponse	0	0.043	109.221	2	10	Feedback	Neutral	True
111.633	3.27	Control	0.9091	n/a	Yes	3.27	n/a	n/a	GoodResponse	0	0.0	n/a	2	10	ISIslide	Neutral	True
114.926	0.25	Lose2	0.9167000000000001	0.0	Yes	2.724	0.026	n/a	GoodResponse	0	n/a	n/a	2	11	Cue	AvoidedLoss	True
115.177	4.05	Lose2	0.9167000000000001	0.0	Yes	2.724	0.001	n/a	GoodResponse	0	n/a	n/a	2	11	Fixation	AvoidedLoss	True
119.222	0.29	Lose2	0.9167000000000001	0.004	Yes	2.724	-0.004	2.0	GoodResponse	0	0.218	118.44	2	11	Target	AvoidedLoss	True
119.44	0.3	Lose2	0.9167000000000001	0.004	Yes	2.724	-0.004	2.0	GoodResponse	0	0.218	n/a	2	11	ButtonPress	AvoidedLoss	True
119.523	0.41	Lose2	0.9167000000000001	n/a	Yes	2.724	n/a	n/a	GoodResponse	0	n/a	n/a	2	11	Blank	AvoidedLoss	True
119.924	1.45	Lose2	0.9167000000000001	n/a	Yes	2.724	n/a	5.0	GoodResponse	0	0.006	118.93	2	11	Feedback	AvoidedLoss	True
121.379	2.724	Lose2	0.9167000000000001	n/a	Yes	2.724	n/a	n/a	GoodResponse	0	0.0	n/a	2	11	ISIslide	AvoidedLoss	True
124.12	0.25	Control	0.8462000000000001	0.0	No	2.98	0.02	n/a	PrematurePress	0	n/a	n/a	2	12	Cue	Neutral	True
124.371	3.9	Control	0.8462000000000001	0.0	No	2.98	0.001	n/a	PrematurePress	0	n/a	n/a	2	12	Fixation	Neutral	True
128.266	0.28	Control	0.8462000000000001	0.004	No	2.98	-0.004	2.0	PrematurePress	0	0.013	127.279	2	12	Target	Neutral	True
128.279	0.3	Control	0.8462000000000001	0.004	No	2.98	-0.004	2.0	PrematurePress	0	0.013	n/a	2	12	ButtonPress	Neutral	True
128.55	0.42	Control	0.8462000000000001	n/a	No	2.98	n/a	n/a	PrematurePress	0	n/a	n/a	2	12	Blank	Neutral	True
128.968	1.45	Control	0.8462000000000001	n/a	No	2.98	n/a	5.0	PrematurePress	0	0.033	128.001	2	12	Feedback	Neutral	True
130.422	2.98	Control	0.8462000000000001	n/a	No	2.98	n/a	n/a	PrematurePress	0	0.0	n/a	2	12	ISIslide	Neutral	True
133.415	0.25	Control	0.8571	0.0	Yes	2.785	0.015	n/a	GoodResponse	0	n/a	n/a	2	13	Cue	Neutral	True
133.665	4.0	Control	0.8571	0.0	Yes	2.785	0.0	n/a	GoodResponse	0	n/a	n/a	2	13	Fixation	Neutral	True
137.661	0.27	Control	0.8571	0.004	Yes	2.785	-0.004	2.0	GoodResponse	0	0.268	136.929	2	13	Target	Neutral	True
137.929	0.3	Control	0.8571	0.004	Yes	2.785	-0.004	2.0	GoodResponse	0	0.268	n/a	2	13	ButtonPress	Neutral	True
137.945	0.43	Control	0.8571	n/a	Yes	2.785	n/a	n/a	GoodResponse	0	n/a	n/a	2	13	Blank	Neutral	True
138.363	1.45	Control	0.8571	n/a	Yes	2.785	n/a	5.0	GoodResponse	0	0.006	137.369	2	13	Feedback	Neutral	True
139.817	2.785	Control	0.8571	n/a	Yes	2.785	n/a	n/a	GoodResponse	0	0.0	n/a	2	13	ISIslide	Neutral	True
142.626	0.25	Win2	0.8667	0.0	Yes	2.674	0.026	n/a	GoodResponse	1	n/a	n/a	3	14	Cue	Win	True
142.876	4.1	Win2	0.8667	0.0	Yes	2.674	0.0	n/a	GoodResponse	1	n/a	n/a	3	14	Fixation	Win	True
146.972	0.26	Win2	0.8667	0.004	Yes	2.674	-0.004	2.0	GoodResponse	1	0.24	146.212	3	14	Target	Win	True
147.212	0.3	Win2	0.8667	0.004	Yes	2.674	-0.004	2.0	GoodResponse	1	0.24	n/a	3	14	ButtonPress	Win	True
147.239	0.44	Win2	0.8667	n/a	Yes	2.674	n/a	n/a	GoodResponse	1	n/a	n/a	3	14	Blank	Win	True
147.674	1.45	Win2	0.8667	n/a	Yes	2.674	n/a	5.0	GoodResponse	1	0.01	146.684	3	14	Feedback	Win	True
149.128	2.674	Win2	0.8667	n/a	Yes	2.674	n/a	n/a	GoodResponse	1	0.0	n/a	3	14	ISIslide	Win	True
151.82	0.25	Control	0.8125	0.0	No	2.98	0.02	n/a	LatePress	0	n/a	n/a	3	15	Cue	Neutral	True
152.07	4.0	Control	0.8125	0.0	No	2.98	0.0	n/a	LatePress	0	n/a	n/a	3	15	Fixation	Neutral	True
156.066	0.25	Control	0.8125	0.004	No	2.98	-0.004	2.0	LatePress	0	0.25	155.316	3	15	Target	Neutral	True
156.316	0.45	Control	0.8125	n/a	No	2.98	n/a	n/a	LatePress	0	n/a	n/a	3	15	Blank	Neutral	True
156.316	0.3	Control	0.8125	0.004	No	2.98	-0.004	2.0	LatePress	0	0.25	n/a	3	15	ButtonPress	Neutral	True
156.768	1.45	Control	0.8125	n/a	No	2.98	n/a	5.0	LatePress	0	0.037	155.805	3	15	Feedback	Neutral	True
158.222	2.98	Control	0.8125	n/a	No	2.98	n/a	n/a	LatePress	0	0.0	n/a	3	15	ISIslide	Neutral	True
161.214	0.25	Win2	0.8234999999999999	0.0	Yes	2.886	0.014	n/a	GoodResponse	1	n/a	n/a	4	16	Cue	Win	True
161.465	4.0	Win2	0.8234999999999999	0.0	Yes	2.886	0.001	n/a	GoodResponse	1	n/a	n/a	4	16	Fixation	Win	True
165.46	0.24	Win2	0.8234999999999999	0.004	Yes	2.886	-0.004	2.0	GoodResponse	1	0.196	164.656	4	16	Target	Win	True
165.656	0.3	Win2	0.8234999999999999	0.004	Yes	2.886	-0.004	2.0	GoodResponse	1	0.196	n/a	4	16	ButtonPress	Win	True
165.711	0.46	Win2	0.8234999999999999	n/a	Yes	2.886	n/a	n/a	GoodResponse	1	n/a	n/a	4	16	Blank	Win	True
166.163	1.45	Win2	0.8234999999999999	n/a	Yes	2.886	n/a	5.0	GoodResponse	1	0.008	165.171	4	16	Feedback	Win	True
167.617	2.886	Win2	0.8234999999999999	n/a	Yes	2.886	n/a	n/a	GoodResponse	1	0.0	n/a	4	16	ISIslide	Win	True
170.526	0.25	Lose2	0.8332999999999999	0.0	Yes	2.724	0.026	n/a	GoodResponse	0	n/a	n/a	4	17	Cue	AvoidedLoss	True
170.776	3.95	Lose2	0.8332999999999999	0.0	Yes	2.724	0.0	n/a	GoodResponse	0	n/a	n/a	4	17	Fixation	AvoidedLoss	True
174.738	0.23	Lose2	0.8332999999999999	0.0	Yes	2.724	0.012	2.0	GoodResponse	0	0.212	173.95	4	17	Target	AvoidedLoss	True
174.95	0.3	Lose2	0.8332999999999999	0.0	Yes	2.724	0.012	2.0	GoodResponse	0	0.212	n/a	4	17	ButtonPress	AvoidedLoss	True
174.956	0.47	Lose2	0.8332999999999999	n/a	Yes	2.724	n/a	n/a	GoodResponse	0	n/a	n/a	4	17	Blank	AvoidedLoss	True
175.424	1.45	Lose2	0.8332999999999999	n/a	Yes	2.724	n/a	5.0	GoodResponse	0	0.016	174.44	4	17	Feedback	AvoidedLoss	True
176.878	2.724	Lose2	0.8332999999999999	n/a	Yes	2.724	n/a	n/a	GoodResponse	0	0.0	n/a	4	17	ISIslide	AvoidedLoss	True
179.619	0.25	Lose2	0.8421	0.001	Yes	2.731	0.019	n/a	GoodResponse	0	n/a	n/a	4	18	Cue	AvoidedLoss	True
179.87	4.05	Lose2	0.8421	0.0	Yes	2.731	0.001	n/a	GoodResponse	0	n/a	n/a	4	18	Fixation	AvoidedLoss	True
183.916	0.22	Lose2	0.8421	0.003	Yes	2.731	-0.003	2.0	GoodResponse	0	0.185	183.101	4	18	Target	AvoidedLoss	True
184.101	0.3	Lose2	0.8421	0.003	Yes	2.731	-0.003	2.0	GoodResponse	0	0.185	n/a	4	18	ButtonPress	AvoidedLoss	True
184.15	0.48	Lose2	0.8421	n/a	Yes	2.731	n/a	n/a	GoodResponse	0	n/a	n/a	4	18	Blank	AvoidedLoss	True
184.618	1.45	Lose2	0.8421	n/a	Yes	2.731	n/a	5.0	GoodResponse	0	0.041	183.659	4	18	Feedback	AvoidedLoss	True
186.072	2.731	Lose2	0.8421	n/a	Yes	2.731	n/a	n/a	GoodResponse	0	0.0	n/a	4	18	ISIslide	AvoidedLoss	True
188.814	0.25	Control	0.8	0.0	No	2.936	0.014	n/a	NoResponse	0	n/a	n/a	4	19	Cue	Neutral	True
189.064	3.95	Control	0.8	0.0	No	2.936	0.0	n/a	NoResponse	0	n/a	n/a	4	19	Fixation	Neutral	True
193.026	0.21	Control	0.8	0.0	No	2.936	0.012	2.0	NoResponse	0	0.267	192.293	4	19	Target	Neutral	True
193.227	0.49	Control	0.8	n/a	No	2.936	n/a	n/a	NoResponse	0	n/a	n/a	4	19	Blank	Neutral	True
193.293	0.3	Control	0.8	0.0	No	2.936	0.012	2.0	NoResponse	0	0.267	n/a	4	19	ButtonPress	Neutral	True
193.712	1.45	Control	0.8	n/a	No	2.936	n/a	5.0	NoResponse	0	0.021	192.733	4	19	Feedback	Neutral	True
195.166	2.936	Control	0.8	n/a	No	2.936	n/a	n/a	NoResponse	0	0.0	n/a	4	19	ISIslide	Neutral	True
198.125	0.25	Control	0.7619	0.0	No	2.625	0.025	n/a	NoResponse	0	n/a	n/a	4	20	Cue	Neutral	True
198.376	4.05	Control	0.7619	0.0	No	2.625	0.001	n/a	NoResponse	0	n/a	n/a	4	20	Fixation	Neutral	True
202.421	0.2	Control	0.7619	0.004	No	2.625	-0.004	2.0	NoResponse	0	0.228	201.649	4	20	Target	Neutral	True
202.622	0.5	Control	0.7619	n/a	No	2.625	n/a	n/a	NoResponse	0	n/a	n/a	4	20	Blank	Neutral	True
202.649	0.3	Control	0.7619	0.004	No	2.625	-0.004	2.0	NoResponse	0	0.228	n/a	4	20	ButtonPress	Neutral	True
203.123	1.45	Control	0.7619	n/a	No	2.625	n/a	5.0	NoResponse	0	0.023	202.146	4	20	Feedback	Neutral	True
204.577	2.625	Control	0.7619	n/a	No	2.625	n/a	n/a	NoResponse	0	0.0	n/a	4	20	ISIslide	Neutral	True
207.219	0.25	Control	0.7273000000000001	0.0	No	2.781	0.019	n/a	LatePress	0	n/a	n/a	4	21	Cue	Neutral	True
207.469	4.1	Control	0.7273000000000001	0.0	No	2.781	0.0	n/a	LatePress	0	n/a	n/a	4	21	Fixation	Neutral	True
211.565	0.19	Control	0.7273000000000001	0.004	No	2.781	-0.004	2.0	LatePress	0	0.2	210.765	4	21	Target	Neutral	True
211.765	0.3	Control	0.7273000000000001	0.004	No	2.781	-0.004	2.0	LatePress	0	0.2	n/a	4	21	ButtonPress	Neutral	True
211.766	0.51	Control	0.7273000000000001	n/a	No	2.781	n/a	n/a	LatePress	0	n/a	n/a	4	21	Blank	Neutral	True
212.267	1.45	Control	0.7273000000000001	n/a	No	2.781	n/a	5.0	LatePress	0	0.002	211.269	4	21	Feedback	Neutral	True
213.721	2.781	Control	0.7273000000000001	n/a	No	2.781	n/a	n/a	LatePress	0	0.0	n/a	4	21	ISIslide	Neutral	True
216.513	0.25	Control	0.6957	0.0	No	2.787	0.013	n/a	NoResponse	0	n/a	n/a	4	22	Cue	Neutral	True
216.764	4.0	Control	0.6957	0.0	No	2.787	0.001	n/a	NoResponse	0	n/a	n/a	4	22	Fixation	Neutral	True
220.759	0.18	Control	0.6957	0.004	No	2.787	-0.004	2.0	NoResponse	0	0.21	219.969	4	22	Target	Neutral	True
220.943	0.52	Control	0.6957	n/a	No	2.787	n/a	n/a	NoResponse	0	n/a	n/a	4	22	Blank	Neutral	True
220.969	0.3	Control	0.6957	0.004	No	2.787	-0.004	2.0	NoResponse	0	0.21	n/a	4	22	ButtonPress	Neutral	True
221.461	1.45	Control	0.6957	n/a	No	2.787	n/a	5.0	NoResponse	0	0.027	220.488	4	22	Feedback	Neutral	True
222.916	2.787	Control	0.6957	n/a	No	2.787	n/a	n/a	NoResponse	0	0.0	n/a	4	22	ISIslide	Neutral	True
225.724	0.25	Control	0.6667000000000001	0.0	No	2.776	0.024	n/a	NoResponse	0	n/a	n/a	4	23	Cue	Neutral	True
225.975	3.9	Control	0.6667000000000001	0.0	No	2.776	0.001	n/a	NoResponse	0	n/a	n/a	4	23	Fixation	Neutral	True
229.87	0.17	Control	0.6667000000000001	0.004	No	2.776	-0.004	2.0	NoResponse	0	0.245	229.115	4	23	Target	Neutral	True
230.054	0.53	Control	0.6667000000000001	n/a	No	2.776	n/a	n/a	NoResponse	0	n/a	n/a	4	23	Blank	Neutral	True
230.115	0.3	Control	0.6667000000000001	0.004	No	2.776	-0.004	2.0	NoResponse	0	0.245	n/a	4	23	ButtonPress	Neutral	True
230.572	1.45	Control	0.6667000000000001	n/a	No	2.776	n/a	5.0	NoResponse	0	0.038	229.61	4	23	Feedback	Neutral	True
232.026	2.776	Control	0.6667000000000001	n/a	No	2.776	n/a	n/a	NoResponse	0	0.0	n/a	4	23	ISIslide	Neutral	True
234.818	0.25	Win2	0.64	0.0	No	3.132	0.018	n/a	NoResponse	0	n/a	n/a	4	24	Cue	MissedWin	True
235.069	3.95	Win2	0.64	0.0	No	3.132	0.001	n/a	NoResponse	0	n/a	n/a	4	24	Fixation	MissedWin	True
239.014	0.16	Win2	0.64	0.004	No	3.132	-0.004	2.0	NoResponse	0	0.195	238.209	4	24	Target	MissedWin	True
239.181	0.54	Win2	0.64	n/a	No	3.132	n/a	n/a	NoResponse	0	n/a	n/a	4	24	Blank	MissedWin	True
239.209	0.3	Win2	0.64	0.004	No	3.132	-0.004	2.0	NoResponse	0	0.195	n/a	4	24	ButtonPress	MissedWin	True
239.716	1.45	Win2	0.64	n/a	No	3.132	n/a	5.0	NoResponse	0	0.016	238.732	4	24	Feedback	MissedWin	True
241.17	3.132	Win2	0.64	n/a	No	3.132	n/a	n/a	NoResponse	0	0.0	n/a	4	24	ISIslide	MissedWin	True
244.33	0.25	Win2	0.6154	0.0	No	3.07	0.03	n/a	NoResponse	0	n/a	n/a	4	25	Cue	MissedWin	True
244.58	4.0	Win2	0.6154	0.0	No	3.07	0.0	n/a	NoResponse	0	n/a	n/a	4	25	Fixation	MissedWin	True
248.576	0.17	Win2	0.6154	0.004	No	3.07	-0.004	2.0	NoResponse	0	0.212	247.788	4	25	Target	MissedWin	True
248.759	0.53	Win2	0.6154	n/a	No	3.07	n/a	n/a	NoResponse	0	n/a	n/a	4	25	Blank	MissedWin	True
248.788	0.3	Win2	0.6154	0.004	No	3.07	-0.004	2.0	NoResponse	0	0.212	n/a	4	25	ButtonPress	MissedWin	True
249.278	1.45	Win2	0.6154	n/a	No	3.07	n/a	5.0	NoResponse	0	0.014	248.292	4	25	Feedback	MissedWin	True
250.732	3.07	Win2	0.6154	n/a	No	3.07	n/a	n/a	NoResponse	0	0.0	n/a	4	25	ISIslide	MissedWin	True
253.825	0.25	Win2	0.5926	0.0	No	2.925	0.025	n/a	NoResponse	0	n/a	n/a	4	26	Cue	MissedWin	True
254.075	3.95	Win2	0.5926	0.001	No	2.925	0.0	n/a	NoResponse	0	n/a	n/a	4	26	Fixation	MissedWin	True
258.021	0.18	Win2	0.5926	0.004	No	2.925	-0.004	2.0	NoResponse	0	0.198	257.219	4	26	Target	MissedWin	True
258.204	0.52	Win2	0.5926	n/a	No	2.925	n/a	n/a	NoResponse	0	n/a	n/a	4	26	Blank	MissedWin	True
258.219	0.3	Win2	0.5926	0.004	No	2.925	-0.004	2.0	NoResponse	0	0.198	n/a	4	26	ButtonPress	MissedWin	True
258.723	1.45	Win2	0.5926	n/a	No	2.925	n/a	5.0	NoResponse	0	0.033	257.756	4	26	Feedback	MissedWin	True
260.177	2.925	Win2	0.5926	n/a	No	2.925	n/a	n/a	NoResponse	0	0.0	n/a	4	26	ISIslide	MissedWin	True
263.119	0.25	Lose2	0.5714	0.0	No	2.831	0.019	n/a	NoResponse	-1	n/a	n/a	3	27	Cue	Loss	True
263.37	4.05	Lose2	0.5714	0.0	No	2.831	0.001	n/a	NoResponse	-1	n/a	n/a	3	27	Fixation	Loss	True
267.415	0.19	Lose2	0.5714	0.004	No	2.831	-0.004	2.0	NoResponse	-1	0.252	266.667	3	27	Target	Loss	True
267.616	0.51	Lose2	0.5714	n/a	No	2.831	n/a	n/a	NoResponse	-1	n/a	n/a	3	27	Blank	Loss	True
267.667	0.3	Lose2	0.5714	0.004	No	2.831	-0.004	2.0	NoResponse	-1	0.252	n/a	3	27	ButtonPress	Loss	True
268.117	1.45	Lose2	0.5714	n/a	No	2.831	n/a	5.0	NoResponse	-1	0.006	267.123	3	27	Feedback	Loss	True
269.572	2.831	Lose2	0.5714	n/a	No	2.831	n/a	n/a	NoResponse	-1	0.0	n/a	3	27	ISIslide	Loss	True
272.414	0.25	Control	0.5517	0.0	No	2.836	0.014	n/a	NoResponse	0	n/a	n/a	3	28	Cue	Neutral	True
272.664	4.05	Control	0.5517	0.0	No	2.836	0.0	n/a	NoResponse	0	n/a	n/a	3	28	Fixation	Neutral	True
276.71	0.2	Control	0.5517	0.004	No	2.836	-0.004	2.0	NoResponse	0	0.211	275.921	3	28	Target	Neutral	True
276.91	0.5	Control	0.5517	n/a	No	2.836	n/a	n/a	NoResponse	0	n/a	n/a	3	28	Blank	Neutral	True
276.921	0.3	Control	0.5517	0.004	No	2.836	-0.004	2.0	NoResponse	0	0.211	n/a	3	28	ButtonPress	Neutral	True
277.412	1.45	Control	0.5517	n/a	No	2.836	n/a	5.0	NoResponse	0	0.027	276.439	3	28	Feedback	Neutral	True
278.866	2.836	Control	0.5517	n/a	No	2.836	n/a	n/a	NoResponse	0	0.0	n/a	3	28	ISIslide	Neutral	True
281.725	0.25	Lose2	0.5667	0.0	Yes	2.825	0.025	n/a	GoodResponse	0	n/a	n/a	3	29	Cue	AvoidedLoss	True
281.975	3.95	Lose2	0.5667	0.001	Yes	2.825	0.0	n/a	GoodResponse	0	n/a	n/a	3	29	Fixation	AvoidedLoss	True
285.921	0.21	Lose2	0.5667	0.004	Yes	2.825	-0.004	2.0	GoodResponse	0	0.205	285.126	3	29	Target	AvoidedLoss	True
286.126	0.3	Lose2	0.5667	0.004	Yes	2.825	-0.004	2.0	GoodResponse	0	0.205	n/a	3	29	ButtonPress	AvoidedLoss	True
286.138	0.49	Lose2	0.5667	n/a	Yes	2.825	n/a	n/a	GoodResponse	0	n/a	n/a	3	29	Blank	AvoidedLoss	True
286.623	1.45	Lose2	0.5667	n/a	Yes	2.825	n/a	5.0	GoodResponse	0	0.035	285.658	3	29	Feedback	AvoidedLoss	True
288.077	2.825	Lose2	0.5667	n/a	Yes	2.825	n/a	n/a	GoodResponse	0	0.0	n/a	3	29	ISIslide	AvoidedLoss	True
290.919	0.25	Win2	0.5806	0.0	Yes	2.781	0.019	n/a	GoodResponse	1	n/a	n/a	4	30	Cue	Win	True
291.17	3.9	Win2	0.5806	0.0	Yes	2.781	0.001	n/a	GoodResponse	1	n/a	n/a	4	30	Fixation	Win	True
295.065	0.22	Win2	0.5806	0.004	Yes	2.781	-0.004	2.0	GoodResponse	1	0.189	294.254	4	30	Target	Win	True
295.254	0.3	Win2	0.5806	0.004	Yes	2.781	-0.004	2.0	GoodResponse	1	0.189	n/a	4	30	ButtonPress	Win	True
295.299	0.48	Win2	0.5806	n/a	Yes	2.781	n/a	n/a	GoodResponse	1	n/a	n/a	4	30	Blank	Win	True
295.767	1.45	Win2	0.5806	n/a	Yes	2.781	n/a	5.0	GoodResponse	1	0.013	294.78	4	30	Feedback	Win	True
297.221	2.781	Win2	0.5806	n/a	Yes	2.781	n/a	n/a	GoodResponse	1	0.0	n/a	4	30	ISIslide	Win	True
300.029	0.25	Lose2	0.5938	0.001	Yes	2.821	0.029	n/a	GoodResponse	0	n/a	n/a	4	31	Cue	AvoidedLoss	True
300.28	4.05	Lose2	0.5938	0.0	Yes	2.821	0.001	n/a	GoodResponse	0	n/a	n/a	4	31	Fixation	AvoidedLoss	True
304.326	0.23	Lose2	0.5938	0.003	Yes	2.821	-0.003	2.0	GoodResponse	0	0.195	303.521	4	31	Target	AvoidedLoss	True
304.521	0.3	Lose2	0.5938	0.003	Yes	2.821	-0.003	2.0	GoodResponse	0	0.195	n/a	4	31	ButtonPress	AvoidedLoss	True
304.56	0.47	Lose2	0.5938	n/a	Yes	2.821	n/a	n/a	GoodResponse	0	n/a	n/a	4	31	Blank	AvoidedLoss	True
305.028	1.45	Lose2	0.5938	n/a	Yes	2.821	n/a	5.0	GoodResponse	0	0.02	304.048	4	31	Feedback	AvoidedLoss	True
306.482	2.821	Lose2	0.5938	n/a	Yes	2.821	n/a	n/a	GoodResponse	0	0.0	n/a	4	31	ISIslide	AvoidedLoss	True
309.324	0.25	Lose2	0.6061	0.0	Yes	2.626	0.024	n/a	GoodResponse	0	n/a	n/a	4	32	Cue	AvoidedLoss	True
309.575	4.15	Lose2	0.6061	0.0	Yes	2.626	0.001	n/a	GoodResponse	0	n/a	n/a	4	32	Fixation	AvoidedLoss	True
313.72	0.24	Lose2	0.6061	0.004	Yes	2.626	-0.004	2.0	GoodResponse	0	0.237	312.957	4	32	Target	AvoidedLoss	True
313.957	0.3	Lose2	0.6061	0.004	Yes	2.626	-0.004	2.0	GoodResponse	0	0.237	n/a	4	32	ButtonPress	AvoidedLoss	True
313.971	0.46	Lose2	0.6061	n/a	Yes	2.626	n/a	n/a	GoodResponse	0	n/a	n/a	4	32	Blank	AvoidedLoss	True
314.422	1.45	Lose2	0.6061	n/a	Yes	2.626	n/a	5.0	GoodResponse	0	0.041	313.463	4	32	Feedback	AvoidedLoss	True
315.877	2.626	Lose2	0.6061	n/a	Yes	2.626	n/a	n/a	GoodResponse	0	0.0	n/a	4	32	ISIslide	AvoidedLoss	True
318.518	0.25	Win2	0.5882000000000001	0.0	No	2.682	0.018	n/a	PrematurePress	0	n/a	n/a	4	33	Cue	MissedWin	True
318.769	4.0	Win2	0.5882000000000001	0.0	No	2.682	0.001	n/a	PrematurePress	0	n/a	n/a	4	33	Fixation	MissedWin	True
322.764	0.25	Win2	0.5882000000000001	0.004	No	2.682	-0.004	2.0	PrematurePress	0	0.085	321.849	4	33	Target	MissedWin	True
322.849	0.3	Win2	0.5882000000000001	0.004	No	2.682	-0.004	2.0	PrematurePress	0	0.085	n/a	4	33	ButtonPress	MissedWin	True
323.015	0.45	Win2	0.5882000000000001	n/a	No	2.682	n/a	n/a	PrematurePress	0	n/a	n/a	4	33	Blank	MissedWin	True
323.466	1.45	Win2	0.5882000000000001	n/a	No	2.682	n/a	5.0	PrematurePress	0	0.022	322.488	4	33	Feedback	MissedWin	True
324.921	2.682	Win2	0.5882000000000001	n/a	No	2.682	n/a	n/a	PrematurePress	0	0.0	n/a	4	33	ISIslide	MissedWin	True
327.629	0.25	Lose2	0.5714	0.0	No	2.621	0.029	n/a	NoResponse	-1	n/a	n/a	3	34	Cue	Loss	True
327.879	4.05	Lose2	0.5714	0.001	No	2.621	0.0	n/a	NoResponse	-1	n/a	n/a	3	34	Fixation	Loss	True
331.925	0.26	Lose2	0.5714	0.004	No	2.621	-0.004	2.0	NoResponse	-1	0.284	331.209	3	34	Target	Loss	True
332.192	0.44	Lose2	0.5714	n/a	No	2.621	n/a	n/a	NoResponse	-1	n/a	n/a	3	34	Blank	Loss	True
332.209	0.3	Lose2	0.5714	0.004	No	2.621	-0.004	2.0	NoResponse	-1	0.284	n/a	3	34	ButtonPress	Loss	True
332.627	1.45	Lose2	0.5714	n/a	No	2.621	n/a	5.0	NoResponse	-1	0.03	331.657	3	34	Feedback	Loss	True
334.081	2.621	Lose2	0.5714	n/a	No	2.621	n/a	n/a	NoResponse	-1	0.0	n/a	3	34	ISIslide	Loss	True
336.723	0.25	Lose2	0.5832999999999999	0.0	Yes	2.677	0.023	n/a	GoodResponse	0	n/a	n/a	3	35	Cue	AvoidedLoss	True
336.973	4.0	Lose2	0.5832999999999999	0.0	Yes	2.677	0.0	n/a	GoodResponse	0	n/a	n/a	3	35	Fixation	AvoidedLoss	True
340.969	0.27	Lose2	0.5832999999999999	0.004	Yes	2.677	-0.004	2.0	GoodResponse	0	0.255	340.224	3	35	Target	AvoidedLoss	True
341.224	0.3	Lose2	0.5832999999999999	0.004	Yes	2.677	-0.004	2.0	GoodResponse	0	0.255	n/a	3	35	ButtonPress	AvoidedLoss	True
341.253	0.43	Lose2	0.5832999999999999	n/a	Yes	2.677	n/a	n/a	GoodResponse	0	n/a	n/a	3	35	Blank	AvoidedLoss	True
341.671	1.45	Lose2	0.5832999999999999	n/a	Yes	2.677	n/a	5.0	GoodResponse	0	0.011	340.682	3	35	Feedback	AvoidedLoss	True
343.125	2.677	Lose2	0.5832999999999999	n/a	Yes	2.677	n/a	n/a	GoodResponse	0	0.0	n/a	3	35	ISIslide	AvoidedLoss	True
345.816	0.25	Control	0.5946	0.0	Yes	2.684	0.016	n/a	GoodResponse	0	n/a	n/a	3	36	Cue	Neutral	True
346.067	4.0	Control	0.5946	0.0	Yes	2.684	0.001	n/a	GoodResponse	0	n/a	n/a	3	36	Fixation	Neutral	True
350.062	0.28	Control	0.5946	0.004	Yes	2.684	-0.004	2.0	GoodResponse	0	0.209	349.271	3	36	Target	Neutral	True
350.271	0.3	Control	0.5946	0.004	Yes	2.684	-0.004	2.0	GoodResponse	0	0.209	n/a	3	36	ButtonPress	Neutral	True
350.347	0.42	Control	0.5946	n/a	Yes	2.684	n/a	n/a	GoodResponse	0	n/a	n/a	3	36	Blank	Neutral	True
350.764	1.45	Control	0.5946	n/a	Yes	2.684	n/a	5.0	GoodResponse	0	0.04	349.804	3	36	Feedback	Neutral	True
352.219	2.684	Control	0.5946	n/a	Yes	2.684	n/a	n/a	GoodResponse	0	0.0	n/a	3	36	ISIslide	Neutral	True
354.927	0.25	Win2	0.6053000000000001	0.0	Yes	2.873	0.027	n/a	GoodResponse	1	n/a	n/a	4	37	Cue	Win	True
355.178	4.0	Win2	0.6053000000000001	0.0	Yes	2.873	0.001	n/a	GoodResponse	1	n/a	n/a	4	37	Fixation	Win	True
359.173	0.29	Win2	0.6053000000000001	0.004	Yes	2.873	-0.004	2.0	GoodResponse	1	0.22	358.393	4	37	Target	Win	True
359.393	0.3	Win2	0.6053000000000001	0.004	Yes	2.873	-0.004	2.0	GoodResponse	1	0.22	n/a	4	37	ButtonPress	Win	True
359.474	0.41	Win2	0.6053000000000001	n/a	Yes	2.873	n/a	n/a	GoodResponse	1	n/a	n/a	4	37	Blank	Win	True
359.875	1.45	Win2	0.6053000000000001	n/a	Yes	2.873	n/a	5.0	GoodResponse	1	0.002	358.877	4	37	Feedback	Win	True
361.329	2.873	Win2	0.6053000000000001	n/a	Yes	2.873	n/a	n/a	GoodResponse	1	0.0	n/a	4	37	ISIslide	Win	True
364.221	0.25	Lose2	0.6154	0.001	Yes	2.829	0.021	n/a	GoodResponse	0	n/a	n/a	4	38	Cue	AvoidedLoss	True
364.472	3.95	Lose2	0.6154	0.0	Yes	2.829	0.001	n/a	GoodResponse	0	n/a	n/a	4	38	Fixation	AvoidedLoss	True
368.417	0.3	Lose2	0.6154	0.004	Yes	2.829	-0.004	2.0	GoodResponse	0	0.26	367.677	4	38	Target	AvoidedLoss	True
368.677	0.3	Lose2	0.6154	0.004	Yes	2.829	-0.004	2.0	GoodResponse	0	0.26	n/a	4	38	ButtonPress	AvoidedLoss	True
368.718	0.4	Lose2	0.6154	n/a	Yes	2.829	n/a	n/a	GoodResponse	0	n/a	n/a	4	38	Blank	AvoidedLoss	True
369.119	1.45	Lose2	0.6154	n/a	Yes	2.829	n/a	5.0	GoodResponse	0	0.027	368.146	4	38	Feedback	AvoidedLoss	True
370.574	2.829	Lose2	0.6154	n/a	Yes	2.829	n/a	n/a	GoodResponse	0	0.0	n/a	4	38	ISIslide	AvoidedLoss	True
373.416	0.25	Win2	0.625	0.0	Yes	2.984	0.016	n/a	GoodResponse	1	n/a	n/a	5	39	Cue	Win	True
373.666	4.1	Win2	0.625	0.0	Yes	2.984	0.0	n/a	GoodResponse	1	n/a	n/a	5	39	Fixation	Win	True
377.762	0.31	Win2	0.625	0.004	Yes	2.984	-0.004	2.0	GoodResponse	1	0.187	376.949	5	39	Target	Win	True
377.949	0.3	Win2	0.625	0.004	Yes	2.984	-0.004	2.0	GoodResponse	1	0.187	n/a	5	39	ButtonPress	Win	True
378.079	0.39	Win2	0.625	n/a	Yes	2.984	n/a	n/a	GoodResponse	1	n/a	n/a	5	39	Blank	Win	True
378.464	1.45	Win2	0.625	n/a	Yes	2.984	n/a	5.0	GoodResponse	1	0.047	377.511	5	39	Feedback	Win	True
379.918	2.984	Win2	0.625	n/a	Yes	2.984	n/a	n/a	GoodResponse	1	0.0	n/a	5	39	ISIslide	Win	True
382.927	0.25	Win2	0.6341	0.0	Yes	2.723	0.027	n/a	GoodResponse	1	n/a	n/a	6	40	Cue	Win	True
383.178	3.95	Win2	0.6341	0.0	Yes	2.723	0.001	n/a	GoodResponse	1	n/a	n/a	6	40	Fixation	Win	True
387.123	0.32	Win2	0.6341	0.004	Yes	2.723	-0.004	2.0	GoodResponse	1	0.263	386.386	6	40	Target	Win	True
387.386	0.3	Win2	0.6341	0.004	Yes	2.723	-0.004	2.0	GoodResponse	1	0.263	n/a	6	40	ButtonPress	Win	True
387.458	0.38	Win2	0.6341	n/a	Yes	2.723	n/a	n/a	GoodResponse	1	n/a	n/a	6	40	Blank	Win	True
387.825	1.45	Win2	0.6341	n/a	Yes	2.723	n/a	5.0	GoodResponse	1	0.005	386.83	6	40	Feedback	Win	True
389.28	2.723	Win2	0.6341	n/a	Yes	2.723	n/a	n/a	GoodResponse	1	0.0	n/a	6	40	ISIslide	Win	True
392.021	0.25	Win2	0.6429	0.0	Yes	2.779	0.021	n/a	GoodResponse	1	n/a	n/a	7	41	Cue	Win	True
392.272	3.9	Win2	0.6429	0.0	Yes	2.779	0.001	n/a	GoodResponse	1	n/a	n/a	7	41	Fixation	Win	True
396.167	0.33	Win2	0.6429	0.004	Yes	2.779	-0.004	2.0	GoodResponse	1	0.217	395.384	7	41	Target	Win	True
396.384	0.3	Win2	0.6429	0.004	Yes	2.779	-0.004	2.0	GoodResponse	1	0.217	n/a	7	41	ButtonPress	Win	True
396.501	0.37	Win2	0.6429	n/a	Yes	2.779	n/a	n/a	GoodResponse	1	n/a	n/a	7	41	Blank	Win	True
396.869	1.45	Win2	0.6429	n/a	Yes	2.779	n/a	5.0	GoodResponse	1	0.032	395.901	7	41	Feedback	Win	True
398.323	2.779	Win2	0.6429	n/a	Yes	2.779	n/a	n/a	GoodResponse	1	0.0	n/a	7	41	ISIslide	Win	True
401.115	0.25	Control	0.6512	0.0	Yes	2.935	0.015	n/a	GoodResponse	0	n/a	n/a	7	42	Cue	Neutral	True
401.366	3.85	Control	0.6512	0.0	Yes	2.935	0.001	n/a	GoodResponse	0	n/a	n/a	7	42	Fixation	Neutral	True
405.211	0.34	Control	0.6512	0.004	Yes	2.935	-0.004	2.0	GoodResponse	0	0.218	404.429	7	42	Target	Neutral	True
405.429	0.3	Control	0.6512	0.004	Yes	2.935	-0.004	2.0	GoodResponse	0	0.218	n/a	7	42	ButtonPress	Neutral	True
405.562	0.36	Control	0.6512	n/a	Yes	2.935	n/a	n/a	GoodResponse	0	n/a	n/a	7	42	Blank	Neutral	True
405.913	1.45	Control	0.6512	n/a	Yes	2.935	n/a	5.0	GoodResponse	0	0.013	404.926	7	42	Feedback	Neutral	True
407.367	2.935	Control	0.6512	n/a	Yes	2.935	n/a	n/a	GoodResponse	0	0.0	n/a	7	42	ISIslide	Neutral	True
410.326	0.25	Win2	0.6591	0.0	Yes	3.174	0.026	n/a	GoodResponse	1	n/a	n/a	8	43	Cue	Win	True
410.577	4.0	Win2	0.6591	0.0	Yes	3.174	0.001	n/a	GoodResponse	1	n/a	n/a	8	43	Fixation	Win	True
414.572	0.35	Win2	0.6591	0.004	Yes	3.174	-0.004	2.0	GoodResponse	1	0.236	413.808	8	43	Target	Win	True
414.808	0.3	Win2	0.6591	0.004	Yes	3.174	-0.004	2.0	GoodResponse	1	0.236	n/a	8	43	ButtonPress	Win	True
414.923	0.35	Win2	0.6591	n/a	Yes	3.174	n/a	n/a	GoodResponse	1	n/a	n/a	8	43	Blank	Win	True
415.274	1.45	Win2	0.6591	n/a	Yes	3.174	n/a	5.0	GoodResponse	1	0.017	414.291	8	43	Feedback	Win	True
416.728	3.174	Win2	0.6591	n/a	Yes	3.174	n/a	n/a	GoodResponse	1	0.0	n/a	8	43	ISIslide	Win	True
419.921	0.25	Win2	0.6667000000000001	0.0	Yes	2.979	0.021	n/a	GoodResponse	1	n/a	n/a	9	44	Cue	Win	True
420.172	4.0	Win2	0.6667000000000001	0.0	Yes	2.979	0.001	n/a	GoodResponse	1	n/a	n/a	9	44	Fixation	Win	True
424.167	0.35	Win2	0.6667000000000001	0.004	Yes	2.979	-0.004	2.0	GoodResponse	1	0.216	423.383	9	44	Target	Win	True
424.383	0.3	Win2	0.6667000000000001	0.004	Yes	2.979	-0.004	2.0	GoodResponse	1	0.216	n/a	9	44	ButtonPress	Win	True
424.518	0.35	Win2	0.6667000000000001	n/a	Yes	2.979	n/a	n/a	GoodResponse	1	n/a	n/a	9	44	Blank	Win	True
424.869	1.45	Win2	0.6667000000000001	n/a	Yes	2.979	n/a	5.0	GoodResponse	1	0.032	423.901	9	44	Feedback	Win	True
426.324	2.979	Win2	0.6667000000000001	n/a	Yes	2.979	n/a	n/a	GoodResponse	1	0.0	n/a	9	44	ISIslide	Win	True
429.316	0.25	Control	0.6739	0.0	Yes	2.884	0.016	n/a	GoodResponse	0	n/a	n/a	9	45	Cue	Neutral	True
429.567	4.1	Control	0.6739	0.0	Yes	2.884	0.001	n/a	GoodResponse	0	n/a	n/a	9	45	Fixation	Neutral	True
433.662	0.34	Control	0.6739	0.004	Yes	2.884	-0.004	2.0	GoodResponse	0	0.227	432.889	9	45	Target	Neutral	True
433.889	0.3	Control	0.6739	0.004	Yes	2.884	-0.004	2.0	GoodResponse	0	0.227	n/a	9	45	ButtonPress	Neutral	True
434.013	0.36	Control	0.6739	n/a	Yes	2.884	n/a	n/a	GoodResponse	0	n/a	n/a	9	45	Blank	Neutral	True
434.364	1.45	Control	0.6739	n/a	Yes	2.884	n/a	5.0	GoodResponse	0	0.049	433.413	9	45	Feedback	Neutral	True
435.819	2.884	Control	0.6739	n/a	Yes	2.884	n/a	n/a	GoodResponse	0	0.0	n/a	9	45	ISIslide	Neutral	True
438.727	0.25	Lose2	0.6809000000000001	0.001	Yes	3.373	0.027	n/a	GoodResponse	0	n/a	n/a	9	46	Cue	AvoidedLoss	True
438.978	4.0	Lose2	0.6809000000000001	0.0	Yes	3.373	0.001	n/a	GoodResponse	0	n/a	n/a	9	46	Fixation	AvoidedLoss	True
442.974	0.33	Lose2	0.6809000000000001	0.003	Yes	3.373	-0.003	2.0	GoodResponse	0	0.212	442.186	9	46	Target	AvoidedLoss	True
443.186	0.3	Lose2	0.6809000000000001	0.003	Yes	3.373	-0.003	2.0	GoodResponse	0	0.212	n/a	9	46	ButtonPress	AvoidedLoss	True
443.308	0.37	Lose2	0.6809000000000001	n/a	Yes	3.373	n/a	n/a	GoodResponse	0	n/a	n/a	9	46	Blank	AvoidedLoss	True
443.676	1.45	Lose2	0.6809000000000001	n/a	Yes	3.373	n/a	5.0	GoodResponse	0	0.005	442.681	9	46	Feedback	AvoidedLoss	True
445.13	3.373	Lose2	0.6809000000000001	n/a	Yes	3.373	n/a	n/a	GoodResponse	0	0.0	n/a	9	46	ISIslide	AvoidedLoss	True
448.523	0.25	Lose2	0.6875	0.001	Yes	2.677	0.023	n/a	GoodResponse	0	n/a	n/a	9	47	Cue	AvoidedLoss	True
448.774	4.0	Lose2	0.6875	0.0	Yes	2.677	0.001	n/a	GoodResponse	0	n/a	n/a	9	47	Fixation	AvoidedLoss	True
452.769	0.32	Lose2	0.6875	0.004	Yes	2.677	-0.004	2.0	GoodResponse	0	0.211	451.98	9	47	Target	AvoidedLoss	True
452.98	0.3	Lose2	0.6875	0.004	Yes	2.677	-0.004	2.0	GoodResponse	0	0.211	n/a	9	47	ButtonPress	AvoidedLoss	True
453.104	0.38	Lose2	0.6875	n/a	Yes	2.677	n/a	n/a	GoodResponse	0	n/a	n/a	9	47	Blank	AvoidedLoss	True
453.472	1.45	Lose2	0.6875	n/a	Yes	2.677	n/a	5.0	GoodResponse	0	0.014	452.486	9	47	Feedback	AvoidedLoss	True
454.926	2.677	Lose2	0.6875	n/a	Yes	2.677	n/a	n/a	GoodResponse	0	0.0	n/a	9	47	ISIslide	AvoidedLoss	True
457.617	0.25	Lose2	0.6939	0.0	Yes	3.033	0.017	n/a	GoodResponse	0	n/a	n/a	9	48	Cue	AvoidedLoss	True
457.868	3.95	Lose2	0.6939	0.0	Yes	3.033	0.001	n/a	GoodResponse	0	n/a	n/a	9	48	Fixation	AvoidedLoss	True
461.813	0.31	Lose2	0.6939	0.004	Yes	3.033	-0.004	2.0	GoodResponse	0	0.189	461.002	9	48	Target	AvoidedLoss	True
462.002	0.3	Lose2	0.6939	0.004	Yes	3.033	-0.004	2.0	GoodResponse	0	0.189	n/a	9	48	ButtonPress	AvoidedLoss	True
462.131	0.39	Lose2	0.6939	n/a	Yes	3.033	n/a	n/a	GoodResponse	0	n/a	n/a	9	48	Blank	AvoidedLoss	True
462.515	1.45	Lose2	0.6939	n/a	Yes	3.033	n/a	5.0	GoodResponse	0	0.044	461.559	9	48	Feedback	AvoidedLoss	True
463.97	3.033	Lose2	0.6939	n/a	Yes	3.033	n/a	n/a	GoodResponse	0	0.0	n/a	9	48	ISIslide	AvoidedLoss	True
467.029	0.25	Control	0.7	0.0	Yes	2.871	0.029	n/a	GoodResponse	0	n/a	n/a	9	49	Cue	Neutral	True
467.28	4.0	Control	0.7	0.0	Yes	2.871	0.001	n/a	GoodResponse	0	n/a	n/a	9	49	Fixation	Neutral	True
471.275	0.3	Control	0.7	0.004	Yes	2.871	-0.004	2.0	GoodResponse	0	0.204	470.479	9	49	Target	Neutral	True
471.479	0.3	Control	0.7	0.004	Yes	2.871	-0.004	2.0	GoodResponse	0	0.204	n/a	9	49	ButtonPress	Neutral	True
471.576	0.4	Control	0.7	n/a	Yes	2.871	n/a	n/a	GoodResponse	0	n/a	n/a	9	49	Blank	Neutral	True
471.977	1.45	Control	0.7	n/a	Yes	2.871	n/a	5.0	GoodResponse	0	0.045	471.022	9	49	Feedback	Neutral	True
473.431	2.871	Control	0.7	n/a	Yes	2.871	n/a	n/a	GoodResponse	0	0.0	n/a	9	49	ISIslide	Neutral	True
476.323	0.25	Control	0.7059000000000001	0.0	Yes	2.777	0.023	n/a	GoodResponse	0	n/a	n/a	9	50	Cue	Neutral	True
476.574	4.0	Control	0.7059000000000001	0.0	Yes	2.777	0.001	n/a	GoodResponse	0	n/a	n/a	9	50	Fixation	Neutral	True
480.569	0.29	Control	0.7059000000000001	0.004	Yes	2.777	-0.004	2.0	GoodResponse	0	0.213	479.782	9	50	Target	Neutral	True
480.782	0.3	Control	0.7059000000000001	0.004	Yes	2.777	-0.004	2.0	GoodResponse	0	0.213	n/a	9	50	ButtonPress	Neutral	True
480.87	0.41	Control	0.7059000000000001	n/a	Yes	2.777	n/a	n/a	GoodResponse	0	n/a	n/a	9	50	Blank	Neutral	True
481.271	1.45	Control	0.7059000000000001	n/a	Yes	2.777	n/a	5.0	GoodResponse	0	0.02	480.291	9	50	Feedback	Neutral	True
482.726	2.777	Control	0.7059000000000001	n/a	Yes	2.777	n/a	n/a	GoodResponse	0	0.0	n/a	9	50	ISIslide	Neutral	True
485.517	0.25	Control	0.6923	0.0	No	2.733	0.017	n/a	NoResponse	0	n/a	n/a	9	51	Cue	Neutral	True
485.768	3.95	Control	0.6923	0.0	No	2.733	0.001	n/a	NoResponse	0	n/a	n/a	9	51	Fixation	Neutral	True
489.713	0.28	Control	0.6923	0.004	No	2.733	-0.004	2.0	NoResponse	0	0.343	489.056	9	51	Target	Neutral	True
489.997	0.42	Control	0.6923	n/a	No	2.733	n/a	n/a	NoResponse	0	n/a	n/a	9	51	Blank	Neutral	True
490.056	0.3	Control	0.6923	0.004	No	2.733	-0.004	2.0	NoResponse	0	0.343	n/a	9	51	ButtonPress	Neutral	True
490.415	1.45	Control	0.6923	n/a	No	2.733	n/a	5.0	NoResponse	0	0.046	489.461	9	51	Feedback	Neutral	True
491.87	2.733	Control	0.6923	n/a	No	2.733	n/a	n/a	NoResponse	0	0.0	n/a	9	51	ISIslide	Neutral	True
494.628	0.25	Control	0.6981	0.0	Yes	2.622	0.028	n/a	GoodResponse	0	n/a	n/a	9	52	Cue	Neutral	True
494.879	4.05	Control	0.6981	0.0	Yes	2.622	0.001	n/a	GoodResponse	0	n/a	n/a	9	52	Fixation	Neutral	True
498.924	0.27	Control	0.6981	0.004	Yes	2.622	-0.004	2.0	GoodResponse	0	0.219	498.143	9	52	Target	Neutral	True
499.143	0.3	Control	0.6981	0.004	Yes	2.622	-0.004	2.0	GoodResponse	0	0.219	n/a	9	52	ButtonPress	Neutral	True
499.208	0.43	Control	0.6981	n/a	Yes	2.622	n/a	n/a	GoodResponse	0	n/a	n/a	9	52	Blank	Neutral	True
499.626	1.45	Control	0.6981	n/a	Yes	2.622	n/a	5.0	GoodResponse	0	0.006	498.632	9	52	Feedback	Neutral	True
501.081	2.622	Control	0.6981	n/a	Yes	2.622	n/a	n/a	GoodResponse	0	0.0	n/a	9	52	ISIslide	Neutral	True
503.722	0.25	Win2	0.7037	0.0	Yes	2.928	0.022	n/a	GoodResponse	1	n/a	n/a	10	53	Cue	Win	True
503.973	4.05	Win2	0.7037	0.0	Yes	2.928	0.001	n/a	GoodResponse	1	n/a	n/a	10	53	Fixation	Win	True
508.018	0.26	Win2	0.7037	0.004	Yes	2.928	-0.004	2.0	GoodResponse	1	0.192	507.21	10	53	Target	Win	True
508.21	0.3	Win2	0.7037	0.004	Yes	2.928	-0.004	2.0	GoodResponse	1	0.192	n/a	10	53	ButtonPress	Win	True
508.285	0.44	Win2	0.7037	n/a	Yes	2.928	n/a	n/a	GoodResponse	1	n/a	n/a	10	53	Blank	Win	True
508.72	1.45	Win2	0.7037	n/a	Yes	2.928	n/a	5.0	GoodResponse	1	0.033	507.753	10	53	Feedback	Win	True
510.174	2.928	Win2	0.7037	n/a	Yes	2.928	n/a	n/a	GoodResponse	1	0.0	n/a	10	53	ISIslide	Win	True
513.117	0.25	Win2	0.6909000000000001	0.0	No	2.733	0.017	n/a	NoResponse	0	n/a	n/a	10	54	Cue	MissedWin	True
513.367	3.95	Win2	0.6909000000000001	0.0	No	2.733	0.0	n/a	NoResponse	0	n/a	n/a	10	54	Fixation	MissedWin	True
517.329	0.25	Win2	0.6909000000000001	0.0	No	2.733	0.012	2.0	NoResponse	0	0.261	516.59	10	54	Target	MissedWin	True
517.563	0.45	Win2	0.6909000000000001	n/a	No	2.733	n/a	n/a	NoResponse	0	n/a	n/a	10	54	Blank	MissedWin	True
517.59	0.3	Win2	0.6909000000000001	0.0	No	2.733	0.012	2.0	NoResponse	0	0.261	n/a	10	54	ButtonPress	MissedWin	True
518.015	1.45	Win2	0.6909000000000001	n/a	No	2.733	n/a	5.0	NoResponse	0	0.007	517.022	10	54	Feedback	MissedWin	True
519.469	2.733	Win2	0.6909000000000001	n/a	No	2.733	n/a	n/a	NoResponse	0	0.0	n/a	10	54	ISIslide	MissedWin	True
522.227	0.25	Control	0.6964	0.0	Yes	3.023	0.027	n/a	GoodResponse	0	n/a	n/a	10	55	Cue	Neutral	True
522.478	3.95	Control	0.6964	0.0	Yes	3.023	0.001	n/a	GoodResponse	0	n/a	n/a	10	55	Fixation	Neutral	True
526.423	0.24	Control	0.6964	0.004	Yes	3.023	-0.004	2.0	GoodResponse	0	0.214	525.637	10	55	Target	Neutral	True
526.637	0.3	Control	0.6964	0.004	Yes	3.023	-0.004	2.0	GoodResponse	0	0.214	n/a	10	55	ButtonPress	Neutral	True
526.674	0.46	Control	0.6964	n/a	Yes	3.023	n/a	n/a	GoodResponse	0	n/a	n/a	10	55	Blank	Neutral	True
527.125	1.45	Control	0.6964	n/a	Yes	3.023	n/a	5.0	GoodResponse	0	0.019	526.144	10	55	Feedback	Neutral	True
528.579	3.023	Control	0.6964	n/a	Yes	3.023	n/a	n/a	GoodResponse	0	0.0	n/a	10	55	ISIslide	Neutral	True
531.622	0.25	Control	0.7018000000000001	0.0	Yes	2.828	0.022	n/a	GoodResponse	0	n/a	n/a	10	56	Cue	Neutral	True
531.873	3.95	Control	0.7018000000000001	0.0	Yes	2.828	0.001	n/a	GoodResponse	0	n/a	n/a	10	56	Fixation	Neutral	True
535.818	0.23	Control	0.7018000000000001	0.004	Yes	2.828	-0.004	2.0	GoodResponse	0	0.196	535.014	10	56	Target	Neutral	True
536.014	0.3	Control	0.7018000000000001	0.004	Yes	2.828	-0.004	2.0	GoodResponse	0	0.196	n/a	10	56	ButtonPress	Neutral	True
536.052	0.47	Control	0.7018000000000001	n/a	Yes	2.828	n/a	n/a	GoodResponse	0	n/a	n/a	10	56	Blank	Neutral	True
536.52	1.45	Control	0.7018000000000001	n/a	Yes	2.828	n/a	5.0	GoodResponse	0	0.039	535.559	10	56	Feedback	Neutral	True
537.974	2.828	Control	0.7018000000000001	n/a	Yes	2.828	n/a	n/a	GoodResponse	0	0.0	n/a	10	56	ISIslide	Neutral	True
540.816	0.25	Control	0.7069	0.0	Yes	3.484	0.016	n/a	GoodResponse	0	n/a	n/a	10	57	Cue	Neutral	True
541.067	4.0	Control	0.7069	0.0	Yes	3.484	0.001	n/a	GoodResponse	0	n/a	n/a	10	57	Fixation	Neutral	True
545.062	0.22	Control	0.7069	0.004	Yes	3.484	-0.004	2.0	GoodResponse	0	0.211	544.273	10	57	Target	Neutral	True
545.273	0.3	Control	0.7069	0.004	Yes	3.484	-0.004	2.0	GoodResponse	0	0.211	n/a	10	57	ButtonPress	Neutral	True
545.296	0.48	Control	0.7069	n/a	Yes	3.484	n/a	n/a	GoodResponse	0	n/a	n/a	10	57	Blank	Neutral	True
545.764	1.45	Control	0.7069	n/a	Yes	3.484	n/a	5.0	GoodResponse	0	0.014	544.778	10	57	Feedback	Neutral	True
547.219	3.484	Control	0.7069	n/a	Yes	3.484	n/a	n/a	GoodResponse	0	0.0	n/a	10	57	ISIslide	Neutral	True
550.729	0.25	Win2	0.6949	0.0	No	2.721	0.029	n/a	LatePress	0	n/a	n/a	10	58	Cue	MissedWin	True
550.98	4.05	Win2	0.6949	0.0	No	2.721	0.001	n/a	LatePress	0	n/a	n/a	10	58	Fixation	MissedWin	True
555.025	0.21	Win2	0.6949	0.004	No	2.721	-0.004	2.0	LatePress	0	0.217	554.242	10	58	Target	MissedWin	True
555.242	0.3	Win2	0.6949	0.004	No	2.721	-0.004	2.0	LatePress	0	0.217	n/a	10	58	ButtonPress	MissedWin	True
555.243	0.49	Win2	0.6949	n/a	No	2.721	n/a	n/a	LatePress	0	n/a	n/a	10	58	Blank	MissedWin	True
555.727	1.45	Win2	0.6949	n/a	No	2.721	n/a	5.0	LatePress	0	0.002	554.729	10	58	Feedback	MissedWin	True
557.182	2.721	Win2	0.6949	n/a	No	2.721	n/a	n/a	LatePress	0	0.0	n/a	10	58	ISIslide	MissedWin	True
559.923	0.25	Lose2	0.6833	0.0	No	2.677	0.023	n/a	LatePress	-1	n/a	n/a	9	59	Cue	Loss	True
560.174	4.0	Lose2	0.6833	0.0	No	2.677	0.001	n/a	LatePress	-1	n/a	n/a	9	59	Fixation	Loss	True
564.169	0.2	Lose2	0.6833	0.004	No	2.677	-0.004	2.0	LatePress	-1	0.201	563.37	9	59	Target	Loss	True
564.37	0.5	Lose2	0.6833	n/a	No	2.677	n/a	n/a	LatePress	-1	n/a	n/a	9	59	Blank	Loss	True
564.37	0.3	Lose2	0.6833	0.004	No	2.677	-0.004	2.0	LatePress	-1	0.201	n/a	9	59	ButtonPress	Loss	True
564.871	1.45	Lose2	0.6833	n/a	No	2.677	n/a	5.0	LatePress	-1	0.028	563.899	9	59	Feedback	Loss	True
566.326	2.677	Lose2	0.6833	n/a	No	2.677	n/a	n/a	LatePress	-1	0.0	n/a	9	59	ISIslide	Loss	True
569.017	0.25	Control	0.6720999999999999	0.0	No	2.683	0.017	n/a	NoResponse	0	n/a	n/a	9	60	Cue	Neutral	True
569.268	4.0	Control	0.6720999999999999	0.0	No	2.683	0.001	n/a	NoResponse	0	n/a	n/a	9	60	Fixation	Neutral	True
573.263	0.19	Control	0.6720999999999999	0.004	No	2.683	-0.004	2.0	NoResponse	0	0.211	572.474	9	60	Target	Neutral	True
573.464	0.51	Control	0.6720999999999999	n/a	No	2.683	n/a	n/a	NoResponse	0	n/a	n/a	9	60	Blank	Neutral	True
573.474	0.3	Control	0.6720999999999999	0.004	No	2.683	-0.004	2.0	NoResponse	0	0.211	n/a	9	60	ButtonPress	Neutral	True
573.965	1.45	Control	0.6720999999999999	n/a	No	2.683	n/a	5.0	NoResponse	0	0.008	572.973	9	60	Feedback	Neutral	True
575.42	2.683	Control	0.6720999999999999	n/a	No	2.683	n/a	n/a	NoResponse	0	0.0	n/a	9	60	ISIslide	Neutral	True
578.128	0.25	Lose2	0.6613	0.0	No	2.972	0.028	n/a	NoResponse	-1	n/a	n/a	8	61	Cue	Loss	True
578.378	4.0	Lose2	0.6613	0.0	No	2.972	0.0	n/a	NoResponse	-1	n/a	n/a	8	61	Fixation	Loss	True
582.374	0.18	Lose2	0.6613	0.004	No	2.972	-0.004	2.0	NoResponse	-1	0.247	581.621	8	61	Target	Loss	True
582.558	0.52	Lose2	0.6613	n/a	No	2.972	n/a	n/a	NoResponse	-1	n/a	n/a	8	61	Blank	Loss	True
582.621	0.3	Lose2	0.6613	0.004	No	2.972	-0.004	2.0	NoResponse	-1	0.247	n/a	8	61	ButtonPress	Loss	True
583.076	1.45	Lose2	0.6613	n/a	No	2.972	n/a	5.0	NoResponse	-1	0.019	582.095	8	61	Feedback	Loss	True
584.53	2.972	Lose2	0.6613	n/a	No	2.972	n/a	n/a	NoResponse	-1	0.0	n/a	8	61	ISIslide	Loss	True
587.522	0.25	Lose2	0.6507999999999999	0.0	No	2.878	0.022	n/a	NoResponse	-1	n/a	n/a	7	62	Cue	Loss	True
587.773	3.9	Lose2	0.6507999999999999	0.0	No	2.878	0.001	n/a	NoResponse	-1	n/a	n/a	7	62	Fixation	Loss	True
591.668	0.18	Lose2	0.6507999999999999	0.004	No	2.878	-0.004	2.0	NoResponse	-1	0.208	590.876	7	62	Target	Loss	True
591.852	0.52	Lose2	0.6507999999999999	n/a	No	2.878	n/a	n/a	NoResponse	-1	n/a	n/a	7	62	Blank	Loss	True
591.876	0.3	Lose2	0.6507999999999999	0.004	No	2.878	-0.004	2.0	NoResponse	-1	0.208	n/a	7	62	ButtonPress	Loss	True
592.37	1.45	Lose2	0.6507999999999999	n/a	No	2.878	n/a	5.0	NoResponse	-1	0.041	591.411	7	62	Feedback	Loss	True
593.825	2.878	Lose2	0.6507999999999999	n/a	No	2.878	n/a	n/a	NoResponse	-1	0.0	n/a	7	62	ISIslide	Loss	True
596.717	0.25	Lose2	0.6406000000000001	0.0	No	2.633	0.017	n/a	PrematurePress	-1	n/a	n/a	6	63	Cue	Loss	True
596.967	4.05	Lose2	0.6406000000000001	0.0	No	2.633	0.0	n/a	PrematurePress	-1	n/a	n/a	6	63	Fixation	Loss	True
601.013	0.19	Lose2	0.6406000000000001	0.004	No	2.633	-0.004	2.0	PrematurePress	-1	0.044	600.057	6	63	Target	Loss	True
601.057	0.3	Lose2	0.6406000000000001	0.004	No	2.633	-0.004	2.0	PrematurePress	-1	0.044	n/a	6	63	ButtonPress	Loss	True
601.213	0.51	Lose2	0.6406000000000001	n/a	No	2.633	n/a	n/a	PrematurePress	-1	n/a	n/a	6	63	Blank	Loss	True
601.715	1.45	Lose2	0.6406000000000001	n/a	No	2.633	n/a	5.0	PrematurePress	-1	0.013	600.728	6	63	Feedback	Loss	True
603.169	2.633	Lose2	0.6406000000000001	n/a	No	2.633	n/a	n/a	PrematurePress	-1	0.0	n/a	6	63	ISIslide	Loss	True
605.827	0.25	Win2	0.6462	0.0	Yes	3.123	0.027	n/a	GoodResponse	1	n/a	n/a	7	64	Cue	Win	True
606.078	4.15	Win2	0.6462	0.0	Yes	3.123	0.001	n/a	GoodResponse	1	n/a	n/a	7	64	Fixation	Win	True
610.224	0.2	Win2	0.6462	0.003	Yes	3.123	-0.003	2.0	GoodResponse	1	0.186	609.41	7	64	Target	Win	True
610.41	0.3	Win2	0.6462	0.003	Yes	3.123	-0.003	2.0	GoodResponse	1	0.186	n/a	7	64	ButtonPress	Win	True
610.424	0.5	Win2	0.6462	n/a	Yes	3.123	n/a	n/a	GoodResponse	1	n/a	n/a	7	64	Blank	Win	True
610.926	1.45	Win2	0.6462	n/a	Yes	3.123	n/a	5.0	GoodResponse	1	0.022	609.948	7	64	Feedback	Win	True
612.38	3.123	Win2	0.6462	n/a	Yes	3.123	n/a	n/a	GoodResponse	1	0.0	n/a	7	64	ISIslide	Win	True
615.523	0.25	Control	0.6515000000000001	0.0	Yes	2.777	0.023	n/a	GoodResponse	0	n/a	n/a	7	65	Cue	Neutral	True
615.774	4.0	Control	0.6515000000000001	0.0	Yes	2.777	0.001	n/a	GoodResponse	0	n/a	n/a	7	65	Fixation	Neutral	True
619.769	0.21	Control	0.6515000000000001	0.004	Yes	2.777	-0.004	2.0	GoodResponse	0	0.184	618.953	7	65	Target	Neutral	True
619.953	0.3	Control	0.6515000000000001	0.004	Yes	2.777	-0.004	2.0	GoodResponse	0	0.184	n/a	7	65	ButtonPress	Neutral	True
619.986	0.49	Control	0.6515000000000001	n/a	Yes	2.777	n/a	n/a	GoodResponse	0	n/a	n/a	7	65	Blank	Neutral	True
620.471	1.45	Control	0.6515000000000001	n/a	Yes	2.777	n/a	5.0	GoodResponse	0	0.038	619.509	7	65	Feedback	Neutral	True
621.925	2.777	Control	0.6515000000000001	n/a	Yes	2.777	n/a	n/a	GoodResponse	0	0.0	n/a	7	65	ISIslide	Neutral	True
624.717	0.25	Win2	0.6418	0.0	No	2.783	0.017	n/a	NoResponse	0	n/a	n/a	7	66	Cue	MissedWin	False
624.968	3.9	Win2	0.6418	0.0	No	2.783	0.001	2.0	NoResponse	0	0.135	624.103	7	66	Fixation	MissedWin	False
625.103	0.3	Win2	0.6418	0.0	No	2.783	0.001	2.0	NoResponse	0	0.135	n/a	7	66	ButtonPress	MissedWin	False
628.863	0.22	Win2	0.6418	0.004	No	2.783	-0.004	2.0	NoResponse	0	0.317	628.18	7	66	Target	MissedWin	False
629.097	0.48	Win2	0.6418	n/a	No	2.783	n/a	n/a	NoResponse	0	n/a	n/a	7	66	Blank	MissedWin	False
629.18	0.3	Win2	0.6418	0.004	No	2.783	-0.004	2.0	NoResponse	0	0.317	n/a	7	66	ButtonPress	MissedWin	False
629.565	1.45	Win2	0.6418	n/a	No	2.783	n/a	5.0	NoResponse	0	0.017	628.582	7	66	Feedback	MissedWin	False
631.019	2.783	Win2	0.6418	n/a	No	2.783	n/a	n/a	NoResponse	0	0.0	n/a	7	66	ISIslide	MissedWin	False
633.827	0.25	Control	0.6324000000000001	0.001	No	2.723	0.027	n/a	NoResponse	0	n/a	n/a	7	67	Cue	Neutral	True
634.078	3.95	Control	0.6324000000000001	0.0	No	2.723	0.001	n/a	NoResponse	0	n/a	n/a	7	67	Fixation	Neutral	True
638.023	0.23	Control	0.6324000000000001	0.004	No	2.723	-0.004	2.0	NoResponse	0	0.325	637.348	7	67	Target	Neutral	True
638.257	0.47	Control	0.6324000000000001	n/a	No	2.723	n/a	n/a	NoResponse	0	n/a	n/a	7	67	Blank	Neutral	True
638.348	0.3	Control	0.6324000000000001	0.004	No	2.723	-0.004	2.0	NoResponse	0	0.325	n/a	7	67	ButtonPress	Neutral	True
638.725	1.45	Control	0.6324000000000001	n/a	No	2.723	n/a	5.0	NoResponse	0	0.027	637.752	7	67	Feedback	Neutral	True
640.18	2.723	Control	0.6324000000000001	n/a	No	2.723	n/a	n/a	NoResponse	0	0.0	n/a	7	67	ISIslide	Neutral	True
642.921	0.25	Win2	0.6377	0.0	Yes	3.079	0.021	n/a	GoodResponse	1	n/a	n/a	8	68	Cue	Win	True
643.172	4.0	Win2	0.6377	0.0	Yes	3.079	0.001	n/a	GoodResponse	1	n/a	n/a	8	68	Fixation	Win	True
647.167	0.24	Win2	0.6377	0.004	Yes	3.079	-0.004	2.0	GoodResponse	1	0.208	646.375	8	68	Target	Win	True
647.375	0.3	Win2	0.6377	0.004	Yes	3.079	-0.004	2.0	GoodResponse	1	0.208	n/a	8	68	ButtonPress	Win	True
647.418	0.46	Win2	0.6377	n/a	Yes	3.079	n/a	n/a	GoodResponse	1	n/a	n/a	8	68	Blank	Win	True
647.869	1.45	Win2	0.6377	n/a	Yes	3.079	n/a	5.0	GoodResponse	1	0.006	646.875	8	68	Feedback	Win	True
649.324	3.079	Win2	0.6377	n/a	Yes	3.079	n/a	n/a	GoodResponse	1	0.0	n/a	8	68	ISIslide	Win	True
652.416	0.25	Win2	0.6429	0.001	Yes	3.234	0.016	n/a	GoodResponse	1	n/a	n/a	9	69	Cue	Win	True
652.667	3.95	Win2	0.6429	0.0	Yes	3.234	0.001	n/a	GoodResponse	1	n/a	n/a	9	69	Fixation	Win	True
656.612	0.25	Win2	0.6429	0.004	Yes	3.234	-0.004	2.0	GoodResponse	1	0.246	655.858	9	69	Target	Win	True
656.858	0.3	Win2	0.6429	0.004	Yes	3.234	-0.004	2.0	GoodResponse	1	0.246	n/a	9	69	ButtonPress	Win	True
656.863	0.45	Win2	0.6429	n/a	Yes	3.234	n/a	n/a	GoodResponse	1	n/a	n/a	9	69	Blank	Win	True
657.314	1.45	Win2	0.6429	n/a	Yes	3.234	n/a	5.0	GoodResponse	1	0.024	656.338	9	69	Feedback	Win	True
658.769	3.234	Win2	0.6429	n/a	Yes	3.234	n/a	n/a	GoodResponse	1	0.0	n/a	9	69	ISIslide	Win	True
662.028	0.25	Lose2	0.6479	0.001	Yes	3.022	0.028	n/a	GoodResponse	0	n/a	n/a	9	70	Cue	AvoidedLoss	True
662.279	4.05	Lose2	0.6479	0.0	Yes	3.022	0.001	n/a	GoodResponse	0	n/a	n/a	9	70	Fixation	AvoidedLoss	True
666.325	0.26	Lose2	0.6479	0.003	Yes	3.022	-0.003	2.0	GoodResponse	0	0.201	665.526	9	70	Target	AvoidedLoss	True
666.526	0.3	Lose2	0.6479	0.003	Yes	3.022	-0.003	2.0	GoodResponse	0	0.201	n/a	9	70	ButtonPress	AvoidedLoss	True
666.592	0.44	Lose2	0.6479	n/a	Yes	3.022	n/a	n/a	GoodResponse	0	n/a	n/a	9	70	Blank	AvoidedLoss	True
667.027	1.45	Lose2	0.6479	n/a	Yes	3.022	n/a	5.0	GoodResponse	0	0.018	666.045	9	70	Feedback	AvoidedLoss	True
668.481	3.022	Lose2	0.6479	n/a	Yes	3.022	n/a	n/a	GoodResponse	0	0.0	n/a	9	70	ISIslide	AvoidedLoss	True
671.524	0.25	Win2	0.6528	0.0	Yes	2.726	0.024	n/a	GoodResponse	1	n/a	n/a	10	71	Cue	Win	True
671.774	4.05	Win2	0.6528	0.0	Yes	2.726	0.0	n/a	GoodResponse	1	n/a	n/a	10	71	Fixation	Win	True
675.82	0.27	Win2	0.6528	0.004	Yes	2.726	-0.004	2.0	GoodResponse	1	0.198	675.018	10	71	Target	Win	True
676.018	0.3	Win2	0.6528	0.004	Yes	2.726	-0.004	2.0	GoodResponse	1	0.198	n/a	10	71	ButtonPress	Win	True
676.104	0.43	Win2	0.6528	n/a	Yes	2.726	n/a	n/a	GoodResponse	1	n/a	n/a	10	71	Blank	Win	True
676.522	1.45	Win2	0.6528	n/a	Yes	2.726	n/a	5.0	GoodResponse	1	0.034	675.556	10	71	Feedback	Win	True
677.976	2.726	Win2	0.6528	n/a	Yes	2.726	n/a	n/a	GoodResponse	1	0.0	n/a	10	71	ISIslide	Win	True
680.718	0.25	Win2	0.6575	0.0	Yes	2.782	0.018	n/a	GoodResponse	1	n/a	n/a	11	72	Cue	Win	True
680.968	4.1	Win2	0.6575	0.001	Yes	2.782	0.0	n/a	GoodResponse	1	n/a	n/a	11	72	Fixation	Win	True
685.064	0.28	Win2	0.6575	0.004	Yes	2.782	-0.004	2.0	GoodResponse	1	0.251	684.315	11	72	Target	Win	True
685.315	0.3	Win2	0.6575	0.004	Yes	2.782	-0.004	2.0	GoodResponse	1	0.251	n/a	11	72	ButtonPress	Win	True
685.348	0.42	Win2	0.6575	n/a	Yes	2.782	n/a	n/a	GoodResponse	1	n/a	n/a	11	72	Blank	Win	True
685.766	1.45	Win2	0.6575	n/a	Yes	2.782	n/a	5.0	GoodResponse	1	0.01	684.776	11	72	Feedback	Win	True
687.22	2.782	Win2	0.6575	n/a	Yes	2.782	n/a	n/a	GoodResponse	1	0.0	n/a	11	72	ISIslide	Win	True
690.029	0.25	Win2	0.6622	0.0	Yes	2.671	0.029	n/a	GoodResponse	1	n/a	n/a	12	73	Cue	Win	True
690.28	4.0	Win2	0.6622	0.0	Yes	2.671	0.001	n/a	GoodResponse	1	n/a	n/a	12	73	Fixation	Win	True
694.275	0.28	Win2	0.6622	0.004	Yes	2.671	-0.004	2.0	GoodResponse	1	0.198	693.473	12	73	Target	Win	True
694.473	0.3	Win2	0.6622	0.004	Yes	2.671	-0.004	2.0	GoodResponse	1	0.198	n/a	12	73	ButtonPress	Win	True
694.559	0.42	Win2	0.6622	n/a	Yes	2.671	n/a	n/a	GoodResponse	1	n/a	n/a	12	73	Blank	Win	True
694.977	1.45	Win2	0.6622	n/a	Yes	2.671	n/a	5.0	GoodResponse	1	0.019	693.996	12	73	Feedback	Win	True
696.431	2.671	Win2	0.6622	n/a	Yes	2.671	n/a	n/a	GoodResponse	1	0.0	n/a	12	73	ISIslide	Win	True
699.123	0.25	Lose2	0.6667000000000001	0.0	Yes	2.627	0.023	n/a	GoodResponse	0	n/a	n/a	12	74	Cue	AvoidedLoss	True
699.373	4.05	Lose2	0.6667000000000001	0.001	Yes	2.627	0.0	n/a	GoodResponse	0	n/a	n/a	12	74	Fixation	AvoidedLoss	True
703.419	0.28	Lose2	0.6667000000000001	0.004	Yes	2.627	-0.004	2.0	GoodResponse	0	0.227	702.646	12	74	Target	AvoidedLoss	True
703.646	0.3	Lose2	0.6667000000000001	0.004	Yes	2.627	-0.004	2.0	GoodResponse	0	0.227	n/a	12	74	ButtonPress	AvoidedLoss	True
703.703	0.42	Lose2	0.6667000000000001	n/a	Yes	2.627	n/a	n/a	GoodResponse	0	n/a	n/a	12	74	Blank	AvoidedLoss	True
704.121	1.45	Lose2	0.6667000000000001	n/a	Yes	2.627	n/a	5.0	GoodResponse	0	0.046	703.167	12	74	Feedback	AvoidedLoss	True
705.575	2.627	Lose2	0.6667000000000001	n/a	Yes	2.627	n/a	n/a	GoodResponse	0	0.0	n/a	12	74	ISIslide	AvoidedLoss	True
708.217	0.25	Lose2	0.6711	0.0	Yes	2.933	0.017	n/a	GoodResponse	0	n/a	n/a	12	75	Cue	AvoidedLoss	True
708.467	3.95	Lose2	0.6711	0.0	Yes	2.933	0.0	n/a	GoodResponse	0	n/a	n/a	12	75	Fixation	AvoidedLoss	True
712.429	0.27	Lose2	0.6711	0.0	Yes	2.933	0.012	2.0	GoodResponse	0	0.19	711.619	12	75	Target	AvoidedLoss	True
712.619	0.3	Lose2	0.6711	0.0	Yes	2.933	0.012	2.0	GoodResponse	0	0.19	n/a	12	75	ButtonPress	AvoidedLoss	True
712.697	0.43	Lose2	0.6711	n/a	Yes	2.933	n/a	n/a	GoodResponse	0	n/a	n/a	12	75	Blank	AvoidedLoss	True
713.115	1.45	Lose2	0.6711	n/a	Yes	2.933	n/a	5.0	GoodResponse	0	0.027	712.142	12	75	Feedback	AvoidedLoss	True
714.569	2.933	Lose2	0.6711	n/a	Yes	2.933	n/a	n/a	GoodResponse	0	0.0	n/a	12	75	ISIslide	AvoidedLoss	True
717.528	0.25	Control	0.6753	0.0	Yes	3.222	0.028	n/a	GoodResponse	0	n/a	n/a	12	76	Cue	Neutral	True
717.779	4.05	Control	0.6753	0.0	Yes	3.222	0.001	n/a	GoodResponse	0	n/a	n/a	12	76	Fixation	Neutral	True
721.824	0.26	Control	0.6753	0.004	Yes	3.222	-0.004	2.0	GoodResponse	0	0.232	721.056	12	76	Target	Neutral	True
722.056	0.3	Control	0.6753	0.004	Yes	3.222	-0.004	2.0	GoodResponse	0	0.232	n/a	12	76	ButtonPress	Neutral	True
722.091	0.44	Control	0.6753	n/a	Yes	3.222	n/a	n/a	GoodResponse	0	n/a	n/a	12	76	Blank	Neutral	True
722.526	1.45	Control	0.6753	n/a	Yes	3.222	n/a	5.0	GoodResponse	0	0.03	721.556	12	76	Feedback	Neutral	True
723.98	3.222	Control	0.6753	n/a	Yes	3.222	n/a	n/a	GoodResponse	0	0.0	n/a	12	76	ISIslide	Neutral	True
727.223	0.25	Lose2	0.6795	0.0	Yes	2.577	0.023	n/a	GoodResponse	0	n/a	n/a	12	77	Cue	AvoidedLoss	True
727.474	3.95	Lose2	0.6795	0.0	Yes	2.577	0.001	n/a	GoodResponse	0	n/a	n/a	12	77	Fixation	AvoidedLoss	True
731.419	0.25	Lose2	0.6795	0.004	Yes	2.577	-0.004	2.0	GoodResponse	0	0.222	730.641	12	77	Target	AvoidedLoss	True
731.641	0.3	Lose2	0.6795	0.004	Yes	2.577	-0.004	2.0	GoodResponse	0	0.222	n/a	12	77	ButtonPress	AvoidedLoss	True
731.67	0.45	Lose2	0.6795	n/a	Yes	2.577	n/a	n/a	GoodResponse	0	n/a	n/a	12	77	Blank	AvoidedLoss	True
732.121	1.45	Lose2	0.6795	n/a	Yes	2.577	n/a	5.0	GoodResponse	0	0.045	731.166	12	77	Feedback	AvoidedLoss	True
733.576	2.577	Lose2	0.6795	n/a	Yes	2.577	n/a	n/a	GoodResponse	0	0.0	n/a	12	77	ISIslide	AvoidedLoss	True
