onset	duration	cue_type	current_mean_accuracy	duration_error	is_hit	isi_adjusted	onset_delay	response	response_type	reward	rt	rt_time	total_reward	trial_number	trial_phase	trial_type	one_press
11.097	0.25	Control	1.0	0.0	Yes	2.953	-0.003	n/a	GoodResponse	0	n/a	n/a	0	0	Cue	Neutral	True
11.348	3.85	Control	1.0	0.0	Yes	2.953	0.001	n/a	GoodResponse	0	n/a	n/a	0	0	Fixation	Neutral	True
15.193	0.4	Control	1.0	0.004	Yes	2.953	-0.004	2.0	GoodResponse	0	0.224	14.417	0	0	Target	Neutral	True
15.417	0.3	Control	1.0	0.004	Yes	2.953	-0.004	2.0	GoodResponse	0	0.224	n/a	0	0	ButtonPress	Neutral	True
15.594	0.3	Control	1.0	n/a	Yes	2.953	n/a	n/a	GoodResponse	0	n/a	n/a	0	0	Blank	Neutral	True
15.895	1.45	Control	1.0	n/a	Yes	2.953	n/a	5.0	GoodResponse	0	0.032	14.927	0	0	Feedback	Neutral	True
17.349	2.953	Control	1.0	n/a	Yes	2.953	n/a	n/a	GoodResponse	0	0.0	n/a	0	0	ISIslide	Neutral	True
20.325	0.25	Lose2	1.0	0.0	Yes	2.775	0.025	n/a	GoodResponse	0	n/a	n/a	0	1	Cue	AvoidedLoss	True
20.575	4.0	Lose2	1.0	0.001	Yes	2.775	0.0	n/a	GoodResponse	0	n/a	n/a	0	1	Fixation	AvoidedLoss	True
24.571	0.39	Lose2	1.0	0.004	Yes	2.775	-0.004	2.0	GoodResponse	0	0.211	23.782	0	1	Target	AvoidedLoss	True
24.782	0.3	Lose2	1.0	0.004	Yes	2.775	-0.004	2.0	GoodResponse	0	0.211	n/a	0	1	ButtonPress	AvoidedLoss	True
24.972	0.31	Lose2	1.0	n/a	Yes	2.775	n/a	n/a	GoodResponse	0	n/a	n/a	0	1	Blank	AvoidedLoss	True
25.273	1.45	Lose2	1.0	n/a	Yes	2.775	n/a	5.0	GoodResponse	0	0.02	24.293	0	1	Feedback	AvoidedLoss	True
26.727	2.775	Lose2	1.0	n/a	Yes	2.775	n/a	n/a	GoodResponse	0	0.0	n/a	0	1	ISIslide	AvoidedLoss	True
29.519	0.25	Control	1.0	0.0	Yes	2.581	0.019	n/a	GoodResponse	0	n/a	n/a	0	2	Cue	Neutral	True
29.77	4.1	Control	1.0	0.0	Yes	2.581	0.001	n/a	GoodResponse	0	n/a	n/a	0	2	Fixation	Neutral	True
33.865	0.38	Control	1.0	0.004	Yes	2.581	-0.004	2.0	GoodResponse	0	0.205	33.07	0	2	Target	Neutral	True
34.07	0.3	Control	1.0	0.004	Yes	2.581	-0.004	2.0	GoodResponse	0	0.205	n/a	0	2	ButtonPress	Neutral	True
34.25	0.32	Control	1.0	n/a	Yes	2.581	n/a	n/a	GoodResponse	0	n/a	n/a	0	2	Blank	Neutral	True
34.567	1.45	Control	1.0	n/a	Yes	2.581	n/a	5.0	GoodResponse	0	0.043	33.61	0	2	Feedback	Neutral	True
36.022	2.581	Control	1.0	n/a	Yes	2.581	n/a	n/a	GoodResponse	0	0.0	n/a	0	2	ISIslide	Neutral	True
38.63	0.25	Win2	1.0	0.0	Yes	2.82	0.03	n/a	GoodResponse	1	n/a	n/a	1	3	Cue	Win	True
38.88	3.95	Win2	1.0	0.0	Yes	2.82	0.0	n/a	GoodResponse	1	n/a	n/a	1	3	Fixation	Win	True
42.842	0.37	Win2	1.0	0.0	Yes	2.82	0.012	2.0	GoodResponse	1	0.21	42.052	1	3	Target	Win	True
43.052	0.3	Win2	1.0	0.0	Yes	2.82	0.012	2.0	GoodResponse	1	0.21	n/a	1	3	ButtonPress	Win	True
43.21	0.33	Win2	1.0	n/a	Yes	2.82	n/a	n/a	GoodResponse	1	n/a	n/a	1	3	Blank	Win	True
43.528	1.45	Win2	1.0	n/a	Yes	2.82	n/a	5.0	GoodResponse	1	0.008	42.536	1	3	Feedback	Win	True
44.982	2.82	Win2	1.0	n/a	Yes	2.82	n/a	n/a	GoodResponse	1	0.0	n/a	1	3	ISIslide	Win	True
47.824	0.25	Win2	1.0	0.0	Yes	3.276	0.024	n/a	GoodResponse	1	n/a	n/a	2	4	Cue	Win	True
48.075	4.0	Win2	1.0	0.0	Yes	3.276	0.001	n/a	GoodResponse	1	n/a	n/a	2	4	Fixation	Win	True
52.07	0.36	Win2	1.0	0.004	Yes	3.276	-0.004	2.0	GoodResponse	1	0.294	51.364	2	4	Target	Win	True
52.364	0.3	Win2	1.0	0.004	Yes	3.276	-0.004	2.0	GoodResponse	1	0.294	n/a	2	4	ButtonPress	Win	True
52.438	0.34	Win2	1.0	n/a	Yes	3.276	n/a	n/a	GoodResponse	1	n/a	n/a	2	4	Blank	Win	True
52.772	1.45	Win2	1.0	n/a	Yes	3.276	n/a	5.0	GoodResponse	1	0.032	51.804	2	4	Feedback	Win	True
54.226	3.276	Win2	1.0	n/a	Yes	3.276	n/a	n/a	GoodResponse	1	0.0	n/a	2	4	ISIslide	Win	True
57.519	0.25	Win2	1.0	0.001	Yes	2.781	0.019	n/a	GoodResponse	1	n/a	n/a	3	5	Cue	Win	True
57.77	4.0	Win2	1.0	0.0	Yes	2.781	0.001	n/a	GoodResponse	1	n/a	n/a	3	5	Fixation	Win	True
61.766	0.35	Win2	1.0	0.003	Yes	2.781	-0.003	2.0	GoodResponse	1	0.227	60.993	3	5	Target	Win	True
61.993	0.3	Win2	1.0	0.003	Yes	2.781	-0.003	2.0	GoodResponse	1	0.227	n/a	3	5	ButtonPress	Win	True
62.117	0.35	Win2	1.0	n/a	Yes	2.781	n/a	n/a	GoodResponse	1	n/a	n/a	3	5	Blank	Win	True
62.468	1.45	Win2	1.0	n/a	Yes	2.781	n/a	5.0	GoodResponse	1	0.044	61.512	3	5	Feedback	Win	True
63.922	2.781	Win2	1.0	n/a	Yes	2.781	n/a	n/a	GoodResponse	1	0.0	n/a	3	5	ISIslide	Win	True
66.73	0.25	Lose2	1.0	0.001	Yes	2.72	0.03	n/a	GoodResponse	0	n/a	n/a	3	6	Cue	AvoidedLoss	True
66.981	3.95	Lose2	1.0	0.0	Yes	2.72	0.001	n/a	GoodResponse	0	n/a	n/a	3	6	Fixation	AvoidedLoss	True
70.926	0.34	Lose2	1.0	0.004	Yes	2.72	-0.004	2.0	GoodResponse	0	0.199	70.125	3	6	Target	AvoidedLoss	True
71.125	0.3	Lose2	1.0	0.004	Yes	2.72	-0.004	2.0	GoodResponse	0	0.199	n/a	3	6	ButtonPress	AvoidedLoss	True
71.277	0.36	Lose2	1.0	n/a	Yes	2.72	n/a	n/a	GoodResponse	0	n/a	n/a	3	6	Blank	AvoidedLoss	True
71.628	1.45	Lose2	1.0	n/a	Yes	2.72	n/a	5.0	GoodResponse	0	0.006	70.634	3	6	Feedback	AvoidedLoss	True
73.083	2.72	Lose2	1.0	n/a	Yes	2.72	n/a	n/a	GoodResponse	0	0.0	n/a	3	6	ISIslide	AvoidedLoss	True
75.824	0.25	Lose2	1.0	0.0	Yes	4.026	0.024	n/a	GoodResponse	0	n/a	n/a	3	7	Cue	AvoidedLoss	True
76.075	4.05	Lose2	1.0	0.0	Yes	4.026	0.001	n/a	GoodResponse	0	n/a	n/a	3	7	Fixation	AvoidedLoss	True
80.121	0.33	Lose2	1.0	0.003	Yes	4.026	-0.003	2.0	GoodResponse	0	0.222	79.343	3	7	Target	AvoidedLoss	True
80.343	0.3	Lose2	1.0	0.003	Yes	4.026	-0.003	2.0	GoodResponse	0	0.222	n/a	3	7	ButtonPress	AvoidedLoss	True
80.455	0.37	Lose2	1.0	n/a	Yes	4.026	n/a	n/a	GoodResponse	0	n/a	n/a	3	7	Blank	AvoidedLoss	True
80.823	1.45	Lose2	1.0	n/a	Yes	4.026	n/a	5.0	GoodResponse	0	0.031	79.854	3	7	Feedback	AvoidedLoss	True
82.277	4.026	Lose2	1.0	n/a	Yes	4.026	n/a	n/a	GoodResponse	0	0.0	n/a	3	7	ISIslide	AvoidedLoss	True
86.322	0.25	Lose2	1.0	0.001	Yes	3.028	0.022	n/a	GoodResponse	0	n/a	n/a	3	8	Cue	AvoidedLoss	True
86.573	3.95	Lose2	1.0	0.0	Yes	3.028	0.001	n/a	GoodResponse	0	n/a	n/a	3	8	Fixation	AvoidedLoss	True
90.518	0.32	Lose2	1.0	0.004	Yes	3.028	-0.004	2.0	GoodResponse	0	0.244	89.762	3	8	Target	AvoidedLoss	True
90.762	0.3	Lose2	1.0	0.004	Yes	3.028	-0.004	2.0	GoodResponse	0	0.244	n/a	3	8	ButtonPress	AvoidedLoss	True
90.853	0.38	Lose2	1.0	n/a	Yes	3.028	n/a	n/a	GoodResponse	0	n/a	n/a	3	8	Blank	AvoidedLoss	True
91.22	1.45	Lose2	1.0	n/a	Yes	3.028	n/a	5.0	GoodResponse	0	0.024	90.244	3	8	Feedback	AvoidedLoss	True
92.675	3.028	Lose2	1.0	n/a	Yes	3.028	n/a	n/a	GoodResponse	0	0.0	n/a	3	8	ISIslide	AvoidedLoss	True
95.717	0.25	Lose2	1.0	0.0	Yes	3.133	0.017	n/a	GoodResponse	0	n/a	n/a	3	9	Cue	AvoidedLoss	True
95.968	3.95	Lose2	1.0	0.0	Yes	3.133	0.001	n/a	GoodResponse	0	n/a	n/a	3	9	Fixation	AvoidedLoss	True
99.913	0.31	Lose2	1.0	0.004	Yes	3.133	-0.004	2.0	GoodResponse	0	0.199	99.112	3	9	Target	AvoidedLoss	True
100.112	0.3	Lose2	1.0	0.004	Yes	3.133	-0.004	2.0	GoodResponse	0	0.199	n/a	3	9	ButtonPress	AvoidedLoss	True
100.231	0.39	Lose2	1.0	n/a	Yes	3.133	n/a	n/a	GoodResponse	0	n/a	n/a	3	9	Blank	AvoidedLoss	True
100.615	1.45	Lose2	1.0	n/a	Yes	3.133	n/a	5.0	GoodResponse	0	0.043	99.658	3	9	Feedback	AvoidedLoss	True
102.07	3.133	Lose2	1.0	n/a	Yes	3.133	n/a	n/a	GoodResponse	0	0.0	n/a	3	9	ISIslide	AvoidedLoss	True
105.229	0.25	Control	1.0	0.0	Yes	3.271	0.029	n/a	GoodResponse	0	n/a	n/a	3	10	Cue	Neutral	True
105.48	4.0	Control	1.0	0.0	Yes	3.271	0.001	n/a	GoodResponse	0	n/a	n/a	3	10	Fixation	Neutral	True
109.475	0.3	Control	1.0	0.004	Yes	3.271	-0.004	2.0	GoodResponse	0	0.219	108.694	3	10	Target	Neutral	True
109.694	0.3	Control	1.0	0.004	Yes	3.271	-0.004	2.0	GoodResponse	0	0.219	n/a	3	10	ButtonPress	Neutral	True
109.776	0.4	Control	1.0	n/a	Yes	3.271	n/a	n/a	GoodResponse	0	n/a	n/a	3	10	Blank	Neutral	True
110.177	1.45	Control	1.0	n/a	Yes	3.271	n/a	5.0	GoodResponse	0	0.042	109.219	3	10	Feedback	Neutral	True
111.632	3.271	Control	1.0	n/a	Yes	3.271	n/a	n/a	GoodResponse	0	0.0	n/a	3	10	ISIslide	Neutral	True
114.925	0.25	Lose2	1.0	0.0	Yes	2.725	0.025	n/a	GoodResponse	0	n/a	n/a	3	11	Cue	AvoidedLoss	True
115.176	4.05	Lose2	1.0	0.0	Yes	2.725	0.001	n/a	GoodResponse	0	n/a	n/a	3	11	Fixation	AvoidedLoss	True
119.221	0.29	Lose2	1.0	0.004	Yes	2.725	-0.004	2.0	GoodResponse	0	0.223	118.444	3	11	Target	AvoidedLoss	True
119.444	0.3	Lose2	1.0	0.004	Yes	2.725	-0.004	2.0	GoodResponse	0	0.223	n/a	3	11	ButtonPress	AvoidedLoss	True
119.522	0.41	Lose2	1.0	n/a	Yes	2.725	n/a	n/a	GoodResponse	0	n/a	n/a	3	11	Blank	AvoidedLoss	True
119.923	1.45	Lose2	1.0	n/a	Yes	2.725	n/a	5.0	GoodResponse	0	0.006	118.929	3	11	Feedback	AvoidedLoss	True
121.377	2.725	Lose2	1.0	n/a	Yes	2.725	n/a	n/a	GoodResponse	0	0.0	n/a	3	11	ISIslide	AvoidedLoss	True
124.119	0.25	Control	1.0	0.0	Yes	2.981	0.019	n/a	GoodResponse	0	n/a	n/a	3	12	Cue	Neutral	True
124.37	3.9	Control	1.0	0.0	Yes	2.981	0.001	n/a	GoodResponse	0	n/a	n/a	3	12	Fixation	Neutral	True
128.265	0.28	Control	1.0	0.004	Yes	2.981	-0.004	2.0	GoodResponse	0	0.188	127.453	3	12	Target	Neutral	True
128.453	0.3	Control	1.0	0.004	Yes	2.981	-0.004	2.0	GoodResponse	0	0.188	n/a	3	12	ButtonPress	Neutral	True
128.549	0.42	Control	1.0	n/a	Yes	2.981	n/a	n/a	GoodResponse	0	n/a	n/a	3	12	Blank	Neutral	True
128.967	1.45	Control	1.0	n/a	Yes	2.981	n/a	5.0	GoodResponse	0	0.032	127.999	3	12	Feedback	Neutral	True
130.421	2.981	Control	1.0	n/a	Yes	2.981	n/a	n/a	GoodResponse	0	0.0	n/a	3	12	ISIslide	Neutral	True
133.43	0.25	Control	1.0	0.0	Yes	2.77	0.03	n/a	GoodResponse	0	n/a	n/a	3	13	Cue	Neutral	True
133.681	4.0	Control	1.0	0.0	Yes	2.77	0.001	n/a	GoodResponse	0	n/a	n/a	3	13	Fixation	Neutral	True
137.676	0.27	Control	1.0	0.004	Yes	2.77	-0.004	2.0	GoodResponse	0	0.243	136.919	3	13	Target	Neutral	True
137.919	0.3	Control	1.0	0.004	Yes	2.77	-0.004	2.0	GoodResponse	0	0.243	n/a	3	13	ButtonPress	Neutral	True
137.961	0.43	Control	1.0	n/a	Yes	2.77	n/a	n/a	GoodResponse	0	n/a	n/a	3	13	Blank	Neutral	True
138.378	1.45	Control	1.0	n/a	Yes	2.77	n/a	5.0	GoodResponse	0	0.036	137.414	3	13	Feedback	Neutral	True
139.833	2.77	Control	1.0	n/a	Yes	2.77	n/a	n/a	GoodResponse	0	0.0	n/a	3	13	ISIslide	Neutral	True
142.624	0.25	Win2	1.0	0.001	Yes	2.676	0.024	n/a	GoodResponse	1	n/a	n/a	4	14	Cue	Win	True
142.875	4.1	Win2	1.0	0.0	Yes	2.676	0.001	n/a	GoodResponse	1	n/a	n/a	4	14	Fixation	Win	True
146.971	0.26	Win2	1.0	0.003	Yes	2.676	-0.003	2.0	GoodResponse	1	0.222	146.193	4	14	Target	Win	True
147.193	0.3	Win2	1.0	0.003	Yes	2.676	-0.003	2.0	GoodResponse	1	0.222	n/a	4	14	ButtonPress	Win	True
147.238	0.44	Win2	1.0	n/a	Yes	2.676	n/a	n/a	GoodResponse	1	n/a	n/a	4	14	Blank	Win	True
147.673	1.45	Win2	1.0	n/a	Yes	2.676	n/a	5.0	GoodResponse	1	0.01	146.683	4	14	Feedback	Win	True
149.127	2.676	Win2	1.0	n/a	Yes	2.676	n/a	n/a	GoodResponse	1	0.0	n/a	4	14	ISIslide	Win	True
151.819	0.25	Control	1.0	0.0	Yes	2.981	0.019	n/a	GoodResponse	0	n/a	n/a	4	15	Cue	Neutral	True
152.069	4.0	Control	1.0	0.001	Yes	2.981	0.0	n/a	GoodResponse	0	n/a	n/a	4	15	Fixation	Neutral	True
156.065	0.25	Control	1.0	0.004	Yes	2.981	-0.004	2.0	GoodResponse	0	0.211	155.276	4	15	Target	Neutral	True
156.276	0.3	Control	1.0	0.004	Yes	2.981	-0.004	2.0	GoodResponse	0	0.211	n/a	4	15	ButtonPress	Neutral	True
156.316	0.45	Control	1.0	n/a	Yes	2.981	n/a	n/a	GoodResponse	0	n/a	n/a	4	15	Blank	Neutral	True
156.767	1.45	Control	1.0	n/a	Yes	2.981	n/a	5.0	GoodResponse	0	0.037	155.804	4	15	Feedback	Neutral	True
158.221	2.981	Control	1.0	n/a	Yes	2.981	n/a	n/a	GoodResponse	0	0.0	n/a	4	15	ISIslide	Neutral	True
161.23	0.25	Win2	0.9412	0.0	No	2.87	0.03	n/a	NoResponse	0	n/a	n/a	4	16	Cue	MissedWin	True
161.481	4.0	Win2	0.9412	0.0	No	2.87	0.001	2.0	NoResponse	0	3.931	164.412	4	16	Fixation	MissedWin	True
165.412	0.3	Win2	0.9412	0.0	No	2.87	0.001	2.0	NoResponse	0	3.931	n/a	4	16	ButtonPress	MissedWin	True
165.476	0.24	Win2	0.9412	0.004	No	2.87	-0.004	n/a	NoResponse	0	n/a	n/a	4	16	Target	MissedWin	True
165.727	0.46	Win2	0.9412	n/a	No	2.87	n/a	n/a	NoResponse	0	n/a	n/a	4	16	Blank	MissedWin	True
166.178	1.45	Win2	0.9412	n/a	No	2.87	n/a	5.0	NoResponse	0	0.04	165.218	4	16	Feedback	MissedWin	True
167.633	2.87	Win2	0.9412	n/a	No	2.87	n/a	n/a	NoResponse	0	0.0	n/a	4	16	ISIslide	MissedWin	True
170.525	0.25	Lose2	0.8889	0.0	No	2.725	0.025	n/a	LatePress	-1	n/a	n/a	3	17	Cue	Loss	True
170.775	3.95	Lose2	0.8889	0.001	No	2.725	0.0	n/a	LatePress	-1	n/a	n/a	3	17	Fixation	Loss	True
174.721	0.23	Lose2	0.8889	0.004	No	2.725	-0.004	2.0	LatePress	-1	0.233	173.954	3	17	Target	Loss	True
174.954	0.3	Lose2	0.8889	0.004	No	2.725	-0.004	2.0	LatePress	-1	0.233	n/a	3	17	ButtonPress	Loss	True
174.955	0.47	Lose2	0.8889	n/a	No	2.725	n/a	n/a	LatePress	-1	n/a	n/a	3	17	Blank	Loss	True
175.423	1.45	Lose2	0.8889	n/a	No	2.725	n/a	5.0	LatePress	-1	0.015	174.438	3	17	Feedback	Loss	True
176.877	2.725	Lose2	0.8889	n/a	No	2.725	n/a	n/a	LatePress	-1	0.0	n/a	3	17	ISIslide	Loss	True
179.619	0.25	Lose2	0.8946999999999999	0.0	Yes	2.731	0.019	n/a	GoodResponse	0	n/a	n/a	3	18	Cue	AvoidedLoss	True
179.869	4.05	Lose2	0.8946999999999999	0.0	Yes	2.731	0.0	n/a	GoodResponse	0	n/a	n/a	3	18	Fixation	AvoidedLoss	True
183.915	0.22	Lose2	0.8946999999999999	0.004	Yes	2.731	-0.004	2.0	GoodResponse	0	0.212	183.127	3	18	Target	AvoidedLoss	True
184.127	0.3	Lose2	0.8946999999999999	0.004	Yes	2.731	-0.004	2.0	GoodResponse	0	0.212	n/a	3	18	ButtonPress	AvoidedLoss	True
184.149	0.48	Lose2	0.8946999999999999	n/a	Yes	2.731	n/a	n/a	GoodResponse	0	n/a	n/a	3	18	Blank	AvoidedLoss	True
184.617	1.45	Lose2	0.8946999999999999	n/a	Yes	2.731	n/a	5.0	GoodResponse	0	0.041	183.658	3	18	Feedback	AvoidedLoss	True
186.071	2.731	Lose2	0.8946999999999999	n/a	Yes	2.731	n/a	n/a	GoodResponse	0	0.0	n/a	3	18	ISIslide	AvoidedLoss	True
188.83	0.25	Control	0.85	0.0	No	2.92	0.03	n/a	NoResponse	0	n/a	n/a	3	19	Cue	Neutral	True
189.08	3.95	Control	0.85	0.0	No	2.92	0.0	n/a	NoResponse	0	n/a	n/a	3	19	Fixation	Neutral	True
193.042	0.21	Control	0.85	0.0	No	2.92	0.012	2.0	NoResponse	0	0.269	192.311	3	19	Target	Neutral	True
193.243	0.49	Control	0.85	n/a	No	2.92	n/a	n/a	NoResponse	0	n/a	n/a	3	19	Blank	Neutral	True
193.311	0.3	Control	0.85	0.0	No	2.92	0.012	2.0	NoResponse	0	0.269	n/a	3	19	ButtonPress	Neutral	True
193.728	1.45	Control	0.85	n/a	No	2.92	n/a	5.0	NoResponse	0	0.007	192.735	3	19	Feedback	Neutral	True
195.182	2.92	Control	0.85	n/a	No	2.92	n/a	n/a	NoResponse	0	0.0	n/a	3	19	ISIslide	Neutral	True
198.124	0.25	Control	0.8095	0.0	No	2.626	0.024	n/a	NoResponse	0	n/a	n/a	3	20	Cue	Neutral	True
198.375	4.05	Control	0.8095	0.0	No	2.626	0.001	n/a	NoResponse	0	n/a	n/a	3	20	Fixation	Neutral	True
202.42	0.2	Control	0.8095	0.004	No	2.626	-0.004	2.0	NoResponse	0	0.212	201.632	3	20	Target	Neutral	True
202.621	0.5	Control	0.8095	n/a	No	2.626	n/a	n/a	NoResponse	0	n/a	n/a	3	20	Blank	Neutral	True
202.632	0.3	Control	0.8095	0.004	No	2.626	-0.004	2.0	NoResponse	0	0.212	n/a	3	20	ButtonPress	Neutral	True
203.122	1.45	Control	0.8095	n/a	No	2.626	n/a	5.0	NoResponse	0	0.024	202.146	3	20	Feedback	Neutral	True
204.577	2.626	Control	0.8095	n/a	No	2.626	n/a	n/a	NoResponse	0	0.0	n/a	3	20	ISIslide	Neutral	True
207.218	0.25	Control	0.7726999999999999	0.0	No	2.782	0.018	n/a	NoResponse	0	n/a	n/a	3	21	Cue	Neutral	True
207.469	4.1	Control	0.7726999999999999	0.0	No	2.782	0.001	n/a	NoResponse	0	n/a	n/a	3	21	Fixation	Neutral	True
211.564	0.19	Control	0.7726999999999999	0.004	No	2.782	-0.004	2.0	NoResponse	0	0.202	210.766	3	21	Target	Neutral	True
211.765	0.51	Control	0.7726999999999999	n/a	No	2.782	n/a	n/a	NoResponse	0	n/a	n/a	3	21	Blank	Neutral	True
211.766	0.3	Control	0.7726999999999999	0.004	No	2.782	-0.004	2.0	NoResponse	0	0.202	n/a	3	21	ButtonPress	Neutral	True
212.266	1.45	Control	0.7726999999999999	n/a	No	2.782	n/a	5.0	NoResponse	0	0.002	211.268	3	21	Feedback	Neutral	True
213.721	2.782	Control	0.7726999999999999	n/a	No	2.782	n/a	n/a	NoResponse	0	0.0	n/a	3	21	ISIslide	Neutral	True
216.529	0.25	Control	0.7391	0.0	No	2.771	0.029	n/a	NoResponse	0	n/a	n/a	3	22	Cue	Neutral	True
216.78	4.0	Control	0.7391	0.0	No	2.771	0.001	n/a	NoResponse	0	n/a	n/a	3	22	Fixation	Neutral	True
220.775	0.18	Control	0.7391	0.004	No	2.771	-0.004	2.0	NoResponse	0	0.227	220.002	3	22	Target	Neutral	True
220.959	0.52	Control	0.7391	n/a	No	2.771	n/a	n/a	NoResponse	0	n/a	n/a	3	22	Blank	Neutral	True
221.002	0.3	Control	0.7391	0.004	No	2.771	-0.004	2.0	NoResponse	0	0.227	n/a	3	22	ButtonPress	Neutral	True
221.477	1.45	Control	0.7391	n/a	No	2.771	n/a	5.0	NoResponse	0	0.009	220.486	3	22	Feedback	Neutral	True
222.932	2.771	Control	0.7391	n/a	No	2.771	n/a	n/a	NoResponse	0	0.0	n/a	3	22	ISIslide	Neutral	True
225.723	0.25	Control	0.7082999999999999	0.001	No	2.777	0.023	n/a	NoResponse	0	n/a	n/a	3	23	Cue	Neutral	True
225.974	3.9	Control	0.7082999999999999	0.0	No	2.777	0.001	n/a	NoResponse	0	n/a	n/a	3	23	Fixation	Neutral	True
229.869	0.17	Control	0.7082999999999999	0.004	No	2.777	-0.004	2.0	NoResponse	0	0.334	229.203	3	23	Target	Neutral	True
230.053	0.53	Control	0.7082999999999999	n/a	No	2.777	n/a	n/a	NoResponse	0	n/a	n/a	3	23	Blank	Neutral	True
230.203	0.3	Control	0.7082999999999999	0.004	No	2.777	-0.004	2.0	NoResponse	0	0.334	n/a	3	23	ButtonPress	Neutral	True
230.571	1.45	Control	0.7082999999999999	n/a	No	2.777	n/a	5.0	NoResponse	0	0.037	229.608	3	23	Feedback	Neutral	True
232.026	2.777	Control	0.7082999999999999	n/a	No	2.777	n/a	n/a	NoResponse	0	0.0	n/a	3	23	ISIslide	Neutral	True
234.817	0.25	Win2	0.68	0.0	No	3.133	0.017	n/a	LatePress	0	n/a	n/a	3	24	Cue	MissedWin	True
235.068	3.95	Win2	0.68	0.0	No	3.133	0.001	n/a	LatePress	0	n/a	n/a	3	24	Fixation	MissedWin	True
239.013	0.16	Win2	0.68	0.004	No	3.133	-0.004	2.0	LatePress	0	0.16	238.173	3	24	Target	MissedWin	True
239.173	0.3	Win2	0.68	0.004	No	3.133	-0.004	2.0	LatePress	0	0.16	n/a	3	24	ButtonPress	MissedWin	True
239.18	0.54	Win2	0.68	n/a	No	3.133	n/a	n/a	LatePress	0	n/a	n/a	3	24	Blank	MissedWin	True
239.715	1.45	Win2	0.68	n/a	No	3.133	n/a	5.0	LatePress	0	0.015	238.73	3	24	Feedback	MissedWin	True
241.17	3.133	Win2	0.68	n/a	No	3.133	n/a	n/a	LatePress	0	0.0	n/a	3	24	ISIslide	MissedWin	True
244.329	0.25	Win2	0.6537999999999999	0.0	No	3.071	0.029	n/a	NoResponse	0	n/a	n/a	3	25	Cue	MissedWin	True
244.58	4.0	Win2	0.6537999999999999	0.0	No	3.071	0.001	n/a	NoResponse	0	n/a	n/a	3	25	Fixation	MissedWin	True
248.575	0.15	Win2	0.6537999999999999	0.004	No	3.071	-0.004	2.0	NoResponse	0	0.212	247.787	3	25	Target	MissedWin	True
248.726	0.55	Win2	0.6537999999999999	n/a	No	3.071	n/a	n/a	NoResponse	0	n/a	n/a	3	25	Blank	MissedWin	True
248.787	0.3	Win2	0.6537999999999999	0.004	No	3.071	-0.004	2.0	NoResponse	0	0.212	n/a	3	25	ButtonPress	MissedWin	True
249.277	1.45	Win2	0.6537999999999999	n/a	No	3.071	n/a	5.0	NoResponse	0	0.014	248.291	3	25	Feedback	MissedWin	True
250.732	3.071	Win2	0.6537999999999999	n/a	No	3.071	n/a	n/a	NoResponse	0	0.0	n/a	3	25	ISIslide	MissedWin	True
253.824	0.25	Win2	0.6296	0.0	No	2.926	0.024	n/a	NoResponse	0	n/a	n/a	3	26	Cue	MissedWin	True
254.075	3.95	Win2	0.6296	0.0	No	2.926	0.001	2.0	NoResponse	0	3.873	256.948	3	26	Fixation	MissedWin	True
257.948	0.3	Win2	0.6296	0.0	No	2.926	0.001	2.0	NoResponse	0	3.873	n/a	3	26	ButtonPress	MissedWin	True
258.02	0.16	Win2	0.6296	0.004	No	2.926	-0.004	n/a	NoResponse	0	n/a	n/a	3	26	Target	MissedWin	True
258.187	0.54	Win2	0.6296	n/a	No	2.926	n/a	n/a	NoResponse	0	n/a	n/a	3	26	Blank	MissedWin	True
258.722	1.45	Win2	0.6296	n/a	No	2.926	n/a	5.0	NoResponse	0	0.033	257.755	3	26	Feedback	MissedWin	True
260.177	2.926	Win2	0.6296	n/a	No	2.926	n/a	n/a	NoResponse	0	0.0	n/a	3	26	ISIslide	MissedWin	True
263.119	0.25	Lose2	0.6071	0.0	No	2.831	0.019	n/a	NoResponse	-1	n/a	n/a	2	27	Cue	Loss	True
263.37	4.05	Lose2	0.6071	0.0	No	2.831	0.001	n/a	NoResponse	-1	n/a	n/a	2	27	Fixation	Loss	True
267.415	0.17	Lose2	0.6071	0.004	No	2.831	-0.004	2.0	NoResponse	-1	0.237	266.652	2	27	Target	Loss	True
267.599	0.53	Lose2	0.6071	n/a	No	2.831	n/a	n/a	NoResponse	-1	n/a	n/a	2	27	Blank	Loss	True
267.652	0.3	Lose2	0.6071	0.004	No	2.831	-0.004	2.0	NoResponse	-1	0.237	n/a	2	27	ButtonPress	Loss	True
268.117	1.45	Lose2	0.6071	n/a	No	2.831	n/a	5.0	NoResponse	-1	0.006	267.123	2	27	Feedback	Loss	True
269.572	2.831	Lose2	0.6071	n/a	No	2.831	n/a	n/a	NoResponse	-1	0.0	n/a	2	27	ISIslide	Loss	True
272.43	0.25	Control	0.5861999999999999	0.0	No	2.82	0.03	n/a	NoResponse	0	n/a	n/a	2	28	Cue	Neutral	True
272.681	4.05	Control	0.5861999999999999	0.0	No	2.82	0.001	n/a	NoResponse	0	n/a	n/a	2	28	Fixation	Neutral	True
276.726	0.18	Control	0.5861999999999999	0.004	No	2.82	-0.004	2.0	NoResponse	0	0.207	275.933	2	28	Target	Neutral	True
276.91	0.52	Control	0.5861999999999999	n/a	No	2.82	n/a	n/a	NoResponse	0	n/a	n/a	2	28	Blank	Neutral	True
276.933	0.3	Control	0.5861999999999999	0.004	No	2.82	-0.004	2.0	NoResponse	0	0.207	n/a	2	28	ButtonPress	Neutral	True
277.428	1.45	Control	0.5861999999999999	n/a	No	2.82	n/a	5.0	NoResponse	0	0.009	276.437	2	28	Feedback	Neutral	True
278.883	2.82	Control	0.5861999999999999	n/a	No	2.82	n/a	n/a	NoResponse	0	0.0	n/a	2	28	ISIslide	Neutral	True
281.725	0.25	Lose2	0.5667	0.0	No	2.825	0.025	n/a	PrematurePress	-1	n/a	n/a	1	29	Cue	Loss	True
281.975	3.95	Lose2	0.5667	0.0	No	2.825	0.0	n/a	PrematurePress	-1	n/a	n/a	1	29	Fixation	Loss	True
285.921	0.19	Lose2	0.5667	0.004	No	2.825	-0.004	2.0	PrematurePress	-1	0.027	284.948	1	29	Target	Loss	True
285.948	0.3	Lose2	0.5667	0.004	No	2.825	-0.004	2.0	PrematurePress	-1	0.027	n/a	1	29	ButtonPress	Loss	True
286.121	0.51	Lose2	0.5667	n/a	No	2.825	n/a	n/a	PrematurePress	-1	n/a	n/a	1	29	Blank	Loss	True
286.623	1.45	Lose2	0.5667	n/a	No	2.825	n/a	5.0	PrematurePress	-1	0.034	285.657	1	29	Feedback	Loss	True
288.077	2.825	Lose2	0.5667	n/a	No	2.825	n/a	n/a	PrematurePress	-1	0.0	n/a	1	29	ISIslide	Loss	True
290.919	0.25	Win2	0.5806	0.0	Yes	2.781	0.019	n/a	GoodResponse	1	n/a	n/a	2	30	Cue	Win	True
291.17	3.9	Win2	0.5806	0.0	Yes	2.781	0.001	n/a	GoodResponse	1	n/a	n/a	2	30	Fixation	Win	True
295.065	0.2	Win2	0.5806	0.004	Yes	2.781	-0.004	2.0	GoodResponse	1	0.196	294.261	2	30	Target	Win	True
295.261	0.3	Win2	0.5806	0.004	Yes	2.781	-0.004	2.0	GoodResponse	1	0.196	n/a	2	30	ButtonPress	Win	True
295.265	0.5	Win2	0.5806	n/a	Yes	2.781	n/a	n/a	GoodResponse	1	n/a	n/a	2	30	Blank	Win	True
295.767	1.45	Win2	0.5806	n/a	Yes	2.781	n/a	5.0	GoodResponse	1	0.012	294.779	2	30	Feedback	Win	True
297.221	2.781	Win2	0.5806	n/a	Yes	2.781	n/a	n/a	GoodResponse	1	0.0	n/a	2	30	ISIslide	Win	True
300.029	0.25	Lose2	0.5625	0.001	No	2.821	0.029	n/a	NoResponse	-1	n/a	n/a	1	31	Cue	Loss	True
300.28	4.05	Lose2	0.5625	0.0	No	2.821	0.001	n/a	NoResponse	-1	n/a	n/a	1	31	Fixation	Loss	True
304.326	0.21	Lose2	0.5625	0.003	No	2.821	-0.003	2.0	NoResponse	-1	0.229	303.555	1	31	Target	Loss	True
304.543	0.49	Lose2	0.5625	n/a	No	2.821	n/a	n/a	NoResponse	-1	n/a	n/a	1	31	Blank	Loss	True
304.555	0.3	Lose2	0.5625	0.003	No	2.821	-0.003	2.0	NoResponse	-1	0.229	n/a	1	31	ButtonPress	Loss	True
305.028	1.45	Lose2	0.5625	n/a	No	2.821	n/a	5.0	NoResponse	-1	0.019	304.047	1	31	Feedback	Loss	True
306.482	2.821	Lose2	0.5625	n/a	No	2.821	n/a	n/a	NoResponse	-1	0.0	n/a	1	31	ISIslide	Loss	True
309.324	0.25	Lose2	0.5758	0.0	Yes	2.626	0.024	n/a	GoodResponse	0	n/a	n/a	1	32	Cue	AvoidedLoss	True
309.575	4.15	Lose2	0.5758	0.0	Yes	2.626	0.001	n/a	GoodResponse	0	n/a	n/a	1	32	Fixation	AvoidedLoss	True
313.72	0.22	Lose2	0.5758	0.004	Yes	2.626	-0.004	2.0	GoodResponse	0	0.105	312.825	1	32	Target	AvoidedLoss	True
313.825	0.3	Lose2	0.5758	0.004	Yes	2.626	-0.004	2.0	GoodResponse	0	0.105	n/a	1	32	ButtonPress	AvoidedLoss	True
313.955	0.48	Lose2	0.5758	n/a	Yes	2.626	n/a	n/a	GoodResponse	0	n/a	n/a	1	32	Blank	AvoidedLoss	True
314.423	1.45	Lose2	0.5758	n/a	Yes	2.626	n/a	5.0	GoodResponse	0	0.039	313.462	1	32	Feedback	AvoidedLoss	True
315.877	2.626	Lose2	0.5758	n/a	Yes	2.626	n/a	n/a	GoodResponse	0	0.0	n/a	1	32	ISIslide	AvoidedLoss	True
318.518	0.25	Win2	0.5882000000000001	0.0	Yes	2.682	0.018	n/a	GoodResponse	1	n/a	n/a	2	33	Cue	Win	False
318.769	4.0	Win2	0.5882000000000001	0.0	Yes	2.682	0.001	2.0	GoodResponse	1	3.552	321.321	2	33	Fixation	Win	False
322.321	0.3	Win2	0.5882000000000001	0.0	Yes	2.682	0.001	2.0	GoodResponse	1	3.552	n/a	2	33	ButtonPress	Win	False
322.764	0.23	Win2	0.5882000000000001	0.004	Yes	2.682	-0.004	2.0	GoodResponse	1	0.16	321.924	2	33	Target	Win	False
322.924	0.3	Win2	0.5882000000000001	0.004	Yes	2.682	-0.004	2.0	GoodResponse	1	0.16	n/a	2	33	ButtonPress	Win	False
322.998	0.47	Win2	0.5882000000000001	n/a	Yes	2.682	n/a	n/a	GoodResponse	1	n/a	n/a	2	33	Blank	Win	False
323.466	1.45	Win2	0.5882000000000001	n/a	Yes	2.682	n/a	5.0	GoodResponse	1	0.02	322.486	2	33	Feedback	Win	False
324.921	2.682	Win2	0.5882000000000001	n/a	Yes	2.682	n/a	n/a	GoodResponse	1	0.0	n/a	2	33	ISIslide	Win	False
327.629	0.25	Lose2	0.6	0.0	Yes	2.621	0.029	n/a	GoodResponse	0	n/a	n/a	2	34	Cue	AvoidedLoss	True
327.88	4.05	Lose2	0.6	0.0	Yes	2.621	0.001	n/a	GoodResponse	0	n/a	n/a	2	34	Fixation	AvoidedLoss	True
331.925	0.24	Lose2	0.6	0.004	Yes	2.621	-0.004	2.0	GoodResponse	0	0.238	331.163	2	34	Target	AvoidedLoss	True
332.163	0.3	Lose2	0.6	0.004	Yes	2.621	-0.004	2.0	GoodResponse	0	0.238	n/a	2	34	ButtonPress	AvoidedLoss	True
332.176	0.46	Lose2	0.6	n/a	Yes	2.621	n/a	n/a	GoodResponse	0	n/a	n/a	2	34	Blank	AvoidedLoss	True
332.627	1.45	Lose2	0.6	n/a	Yes	2.621	n/a	5.0	GoodResponse	0	0.03	331.657	2	34	Feedback	AvoidedLoss	True
334.081	2.621	Lose2	0.6	n/a	Yes	2.621	n/a	n/a	GoodResponse	0	0.0	n/a	2	34	ISIslide	AvoidedLoss	True
336.723	0.25	Lose2	0.6111	0.0	Yes	2.677	0.023	n/a	GoodResponse	0	n/a	n/a	2	35	Cue	AvoidedLoss	True
336.973	4.0	Lose2	0.6111	0.001	Yes	2.677	0.0	n/a	GoodResponse	0	n/a	n/a	2	35	Fixation	AvoidedLoss	True
340.969	0.25	Lose2	0.6111	0.004	Yes	2.677	-0.004	2.0	GoodResponse	0	0.193	340.162	2	35	Target	AvoidedLoss	True
341.162	0.3	Lose2	0.6111	0.004	Yes	2.677	-0.004	2.0	GoodResponse	0	0.193	n/a	2	35	ButtonPress	AvoidedLoss	True
341.22	0.45	Lose2	0.6111	n/a	Yes	2.677	n/a	n/a	GoodResponse	0	n/a	n/a	2	35	Blank	AvoidedLoss	True
341.671	1.45	Lose2	0.6111	n/a	Yes	2.677	n/a	5.0	GoodResponse	0	0.01	340.681	2	35	Feedback	AvoidedLoss	True
343.125	2.677	Lose2	0.6111	n/a	Yes	2.677	n/a	n/a	GoodResponse	0	0.0	n/a	2	35	ISIslide	AvoidedLoss	True
345.817	0.25	Control	0.6215999999999999	0.0	Yes	2.683	0.017	n/a	GoodResponse	0	n/a	n/a	2	36	Cue	Neutral	True
346.067	4.0	Control	0.6215999999999999	0.0	Yes	2.683	0.0	n/a	GoodResponse	0	n/a	n/a	2	36	Fixation	Neutral	True
350.063	0.26	Control	0.6215999999999999	0.004	Yes	2.683	-0.004	2.0	GoodResponse	0	0.21	349.273	2	36	Target	Neutral	True
350.273	0.3	Control	0.6215999999999999	0.004	Yes	2.683	-0.004	2.0	GoodResponse	0	0.21	n/a	2	36	ButtonPress	Neutral	True
350.33	0.44	Control	0.6215999999999999	n/a	Yes	2.683	n/a	n/a	GoodResponse	0	n/a	n/a	2	36	Blank	Neutral	True
350.765	1.45	Control	0.6215999999999999	n/a	Yes	2.683	n/a	5.0	GoodResponse	0	0.038	349.803	2	36	Feedback	Neutral	True
352.219	2.683	Control	0.6215999999999999	n/a	Yes	2.683	n/a	n/a	GoodResponse	0	0.0	n/a	2	36	ISIslide	Neutral	True
354.927	0.25	Win2	0.6315999999999999	0.0	Yes	2.873	0.027	n/a	GoodResponse	1	n/a	n/a	3	37	Cue	Win	True
355.178	4.0	Win2	0.6315999999999999	0.0	Yes	2.873	0.001	n/a	GoodResponse	1	n/a	n/a	3	37	Fixation	Win	True
359.173	0.27	Win2	0.6315999999999999	0.004	Yes	2.873	-0.004	2.0	GoodResponse	1	0.181	358.354	3	37	Target	Win	True
359.354	0.3	Win2	0.6315999999999999	0.004	Yes	2.873	-0.004	2.0	GoodResponse	1	0.181	n/a	3	37	ButtonPress	Win	True
359.458	0.43	Win2	0.6315999999999999	n/a	Yes	2.873	n/a	n/a	GoodResponse	1	n/a	n/a	3	37	Blank	Win	True
359.875	1.45	Win2	0.6315999999999999	n/a	Yes	2.873	n/a	5.0	GoodResponse	1	0.001	358.876	3	37	Feedback	Win	True
361.33	2.873	Win2	0.6315999999999999	n/a	Yes	2.873	n/a	n/a	GoodResponse	1	0.0	n/a	3	37	ISIslide	Win	True
364.222	0.25	Lose2	0.6409999999999999	0.0	Yes	2.828	0.022	n/a	GoodResponse	0	n/a	n/a	3	38	Cue	AvoidedLoss	True
364.473	3.95	Lose2	0.6409999999999999	0.0	Yes	2.828	0.001	n/a	GoodResponse	0	n/a	n/a	3	38	Fixation	AvoidedLoss	True
368.418	0.28	Lose2	0.6409999999999999	0.004	Yes	2.828	-0.004	2.0	GoodResponse	0	0.254	367.672	3	38	Target	AvoidedLoss	True
368.672	0.3	Lose2	0.6409999999999999	0.004	Yes	2.828	-0.004	2.0	GoodResponse	0	0.254	n/a	3	38	ButtonPress	AvoidedLoss	True
368.702	0.42	Lose2	0.6409999999999999	n/a	Yes	2.828	n/a	n/a	GoodResponse	0	n/a	n/a	3	38	Blank	AvoidedLoss	True
369.12	1.45	Lose2	0.6409999999999999	n/a	Yes	2.828	n/a	5.0	GoodResponse	0	0.024	368.144	3	38	Feedback	AvoidedLoss	True
370.574	2.828	Lose2	0.6409999999999999	n/a	Yes	2.828	n/a	n/a	GoodResponse	0	0.0	n/a	3	38	ISIslide	AvoidedLoss	True
373.416	0.25	Win2	0.65	0.0	Yes	2.984	0.016	n/a	GoodResponse	1	n/a	n/a	4	39	Cue	Win	True
373.667	4.1	Win2	0.65	0.0	Yes	2.984	0.001	n/a	GoodResponse	1	n/a	n/a	4	39	Fixation	Win	True
377.762	0.29	Win2	0.65	0.004	Yes	2.984	-0.004	2.0	GoodResponse	1	0.208	376.97	4	39	Target	Win	True
377.97	0.3	Win2	0.65	0.004	Yes	2.984	-0.004	2.0	GoodResponse	1	0.208	n/a	4	39	ButtonPress	Win	True
378.063	0.41	Win2	0.65	n/a	Yes	2.984	n/a	n/a	GoodResponse	1	n/a	n/a	4	39	Blank	Win	True
378.464	1.45	Win2	0.65	n/a	Yes	2.984	n/a	5.0	GoodResponse	1	0.046	377.51	4	39	Feedback	Win	True
379.919	2.984	Win2	0.65	n/a	Yes	2.984	n/a	n/a	GoodResponse	1	0.0	n/a	4	39	ISIslide	Win	True
382.928	0.25	Win2	0.6585	0.0	Yes	2.722	0.028	n/a	GoodResponse	1	n/a	n/a	5	40	Cue	Win	True
383.179	3.95	Win2	0.6585	0.0	Yes	2.722	0.001	n/a	GoodResponse	1	n/a	n/a	5	40	Fixation	Win	True
387.124	0.3	Win2	0.6585	0.004	Yes	2.722	-0.004	2.0	GoodResponse	1	0.243	386.367	5	40	Target	Win	True
387.367	0.3	Win2	0.6585	0.004	Yes	2.722	-0.004	2.0	GoodResponse	1	0.243	n/a	5	40	ButtonPress	Win	True
387.425	0.4	Win2	0.6585	n/a	Yes	2.722	n/a	n/a	GoodResponse	1	n/a	n/a	5	40	Blank	Win	True
387.826	1.45	Win2	0.6585	n/a	Yes	2.722	n/a	5.0	GoodResponse	1	0.002	386.828	5	40	Feedback	Win	True
389.28	2.722	Win2	0.6585	n/a	Yes	2.722	n/a	n/a	GoodResponse	1	0.0	n/a	5	40	ISIslide	Win	True
392.022	0.25	Win2	0.6667000000000001	0.0	Yes	2.778	0.022	n/a	GoodResponse	1	n/a	n/a	6	41	Cue	Win	True
392.273	3.9	Win2	0.6667000000000001	0.0	Yes	2.778	0.001	n/a	GoodResponse	1	n/a	n/a	6	41	Fixation	Win	True
396.168	0.3	Win2	0.6667000000000001	0.004	Yes	2.778	-0.004	2.0	GoodResponse	1	0.204	395.372	6	41	Target	Win	True
396.372	0.3	Win2	0.6667000000000001	0.004	Yes	2.778	-0.004	2.0	GoodResponse	1	0.204	n/a	6	41	ButtonPress	Win	True
396.468	0.4	Win2	0.6667000000000001	n/a	Yes	2.778	n/a	n/a	GoodResponse	1	n/a	n/a	6	41	Blank	Win	True
396.87	1.45	Win2	0.6667000000000001	n/a	Yes	2.778	n/a	5.0	GoodResponse	1	0.03	395.9	6	41	Feedback	Win	True
398.324	2.778	Win2	0.6667000000000001	n/a	Yes	2.778	n/a	n/a	GoodResponse	1	0.0	n/a	6	41	ISIslide	Win	True
401.116	0.25	Control	0.6744	0.0	Yes	2.934	0.016	n/a	GoodResponse	0	n/a	n/a	6	42	Cue	Neutral	True
401.366	3.85	Control	0.6744	0.001	Yes	2.934	0.0	n/a	GoodResponse	0	n/a	n/a	6	42	Fixation	Neutral	True
405.228	0.29	Control	0.6744	0.0	Yes	2.934	0.012	2.0	GoodResponse	0	0.235	404.463	6	42	Target	Neutral	True
405.463	0.3	Control	0.6744	0.0	Yes	2.934	0.012	2.0	GoodResponse	0	0.235	n/a	6	42	ButtonPress	Neutral	True
405.512	0.41	Control	0.6744	n/a	Yes	2.934	n/a	n/a	GoodResponse	0	n/a	n/a	6	42	Blank	Neutral	True
405.913	1.45	Control	0.6744	n/a	Yes	2.934	n/a	5.0	GoodResponse	0	0.011	404.924	6	42	Feedback	Neutral	True
407.368	2.934	Control	0.6744	n/a	Yes	2.934	n/a	n/a	GoodResponse	0	0.0	n/a	6	42	ISIslide	Neutral	True
410.327	0.25	Win2	0.6818000000000001	0.0	Yes	3.173	0.027	n/a	GoodResponse	1	n/a	n/a	7	43	Cue	Win	True
410.577	4.0	Win2	0.6818000000000001	0.0	Yes	3.173	0.0	n/a	GoodResponse	1	n/a	n/a	7	43	Fixation	Win	True
414.573	0.28	Win2	0.6818000000000001	0.004	Yes	3.173	-0.004	2.0	GoodResponse	1	0.225	413.798	7	43	Target	Win	True
414.798	0.3	Win2	0.6818000000000001	0.004	Yes	3.173	-0.004	2.0	GoodResponse	1	0.225	n/a	7	43	ButtonPress	Win	True
414.857	0.42	Win2	0.6818000000000001	n/a	Yes	3.173	n/a	n/a	GoodResponse	1	n/a	n/a	7	43	Blank	Win	True
415.275	1.45	Win2	0.6818000000000001	n/a	Yes	3.173	n/a	5.0	GoodResponse	1	0.015	414.29	7	43	Feedback	Win	True
416.729	3.173	Win2	0.6818000000000001	n/a	Yes	3.173	n/a	n/a	GoodResponse	1	0.0	n/a	7	43	ISIslide	Win	True
419.922	0.25	Win2	0.6667000000000001	0.0	No	2.978	0.022	n/a	PrematurePress	0	n/a	n/a	7	44	Cue	MissedWin	True
420.173	4.0	Win2	0.6667000000000001	0.0	No	2.978	0.001	n/a	PrematurePress	0	n/a	n/a	7	44	Fixation	MissedWin	True
424.168	0.27	Win2	0.6667000000000001	0.004	No	2.978	-0.004	2.0	PrematurePress	0	0.039	423.207	7	44	Target	MissedWin	True
424.207	0.3	Win2	0.6667000000000001	0.004	No	2.978	-0.004	2.0	PrematurePress	0	0.039	n/a	7	44	ButtonPress	MissedWin	True
424.452	0.43	Win2	0.6667000000000001	n/a	No	2.978	n/a	n/a	PrematurePress	0	n/a	n/a	7	44	Blank	MissedWin	True
424.87	1.45	Win2	0.6667000000000001	n/a	No	2.978	n/a	5.0	PrematurePress	0	0.03	423.9	7	44	Feedback	MissedWin	True
426.325	2.978	Win2	0.6667000000000001	n/a	No	2.978	n/a	n/a	PrematurePress	0	0.0	n/a	7	44	ISIslide	MissedWin	True
429.317	0.25	Control	0.6739	0.0	Yes	2.883	0.017	n/a	GoodResponse	0	n/a	n/a	7	45	Cue	Neutral	True
429.568	4.1	Control	0.6739	0.0	Yes	2.883	0.001	n/a	GoodResponse	0	n/a	n/a	7	45	Fixation	Neutral	True
433.663	0.26	Control	0.6739	0.004	Yes	2.883	-0.004	2.0	GoodResponse	0	0.225	432.888	7	45	Target	Neutral	True
433.888	0.3	Control	0.6739	0.004	Yes	2.883	-0.004	2.0	GoodResponse	0	0.225	n/a	7	45	ButtonPress	Neutral	True
433.931	0.44	Control	0.6739	n/a	Yes	2.883	n/a	n/a	GoodResponse	0	n/a	n/a	7	45	Blank	Neutral	True
434.365	1.45	Control	0.6739	n/a	Yes	2.883	n/a	5.0	GoodResponse	0	0.047	433.412	7	45	Feedback	Neutral	True
435.82	2.883	Control	0.6739	n/a	Yes	2.883	n/a	n/a	GoodResponse	0	0.0	n/a	7	45	ISIslide	Neutral	True
438.728	0.25	Lose2	0.6809000000000001	0.0	Yes	3.372	0.028	n/a	GoodResponse	0	n/a	n/a	7	46	Cue	AvoidedLoss	True
438.979	4.0	Lose2	0.6809000000000001	0.0	Yes	3.372	0.001	n/a	GoodResponse	0	n/a	n/a	7	46	Fixation	AvoidedLoss	True
442.974	0.25	Lose2	0.6809000000000001	0.004	Yes	3.372	-0.004	2.0	GoodResponse	0	0.209	442.183	7	46	Target	AvoidedLoss	True
443.183	0.3	Lose2	0.6809000000000001	0.004	Yes	3.372	-0.004	2.0	GoodResponse	0	0.209	n/a	7	46	ButtonPress	AvoidedLoss	True
443.225	0.45	Lose2	0.6809000000000001	n/a	Yes	3.372	n/a	n/a	GoodResponse	0	n/a	n/a	7	46	Blank	AvoidedLoss	True
443.677	1.45	Lose2	0.6809000000000001	n/a	Yes	3.372	n/a	5.0	GoodResponse	0	0.006	442.683	7	46	Feedback	AvoidedLoss	True
445.131	3.372	Lose2	0.6809000000000001	n/a	Yes	3.372	n/a	n/a	GoodResponse	0	0.0	n/a	7	46	ISIslide	AvoidedLoss	True
448.524	0.25	Lose2	0.6667000000000001	0.0	No	2.676	0.024	n/a	LatePress	-1	n/a	n/a	6	47	Cue	Loss	True
448.775	4.0	Lose2	0.6667000000000001	0.0	No	2.676	0.001	n/a	LatePress	-1	n/a	n/a	6	47	Fixation	Loss	True
452.77	0.24	Lose2	0.6667000000000001	0.004	No	2.676	-0.004	2.0	LatePress	-1	0.245	452.015	6	47	Target	Loss	True
453.015	0.3	Lose2	0.6667000000000001	0.004	No	2.676	-0.004	2.0	LatePress	-1	0.245	n/a	6	47	ButtonPress	Loss	True
453.021	0.46	Lose2	0.6667000000000001	n/a	No	2.676	n/a	n/a	LatePress	-1	n/a	n/a	6	47	Blank	Loss	True
453.473	1.45	Lose2	0.6667000000000001	n/a	No	2.676	n/a	5.0	LatePress	-1	0.013	452.486	6	47	Feedback	Loss	True
454.927	2.676	Lose2	0.6667000000000001	n/a	No	2.676	n/a	n/a	LatePress	-1	0.0	n/a	6	47	ISIslide	Loss	True
457.618	0.25	Lose2	0.6735	0.0	Yes	3.032	0.018	n/a	GoodResponse	0	n/a	n/a	6	48	Cue	AvoidedLoss	True
457.869	3.95	Lose2	0.6735	0.0	Yes	3.032	0.001	n/a	GoodResponse	0	n/a	n/a	6	48	Fixation	AvoidedLoss	True
461.814	0.23	Lose2	0.6735	0.004	Yes	3.032	-0.004	2.0	GoodResponse	0	0.202	461.016	6	48	Target	AvoidedLoss	True
462.016	0.3	Lose2	0.6735	0.004	Yes	3.032	-0.004	2.0	GoodResponse	0	0.202	n/a	6	48	ButtonPress	AvoidedLoss	True
462.048	0.47	Lose2	0.6735	n/a	Yes	3.032	n/a	n/a	GoodResponse	0	n/a	n/a	6	48	Blank	AvoidedLoss	True
462.516	1.45	Lose2	0.6735	n/a	Yes	3.032	n/a	5.0	GoodResponse	0	0.042	461.558	6	48	Feedback	AvoidedLoss	True
463.971	3.032	Lose2	0.6735	n/a	Yes	3.032	n/a	n/a	GoodResponse	0	0.0	n/a	6	48	ISIslide	AvoidedLoss	True
467.03	0.25	Control	0.68	0.0	Yes	2.87	0.03	n/a	GoodResponse	0	n/a	n/a	6	49	Cue	Neutral	True
467.281	4.0	Control	0.68	0.0	Yes	2.87	0.001	n/a	GoodResponse	0	n/a	n/a	6	49	Fixation	Neutral	True
471.276	0.22	Control	0.68	0.004	Yes	2.87	-0.004	2.0	GoodResponse	0	0.206	470.482	6	49	Target	Neutral	True
471.482	0.3	Control	0.68	0.004	Yes	2.87	-0.004	2.0	GoodResponse	0	0.206	n/a	6	49	ButtonPress	Neutral	True
471.51	0.48	Control	0.68	n/a	Yes	2.87	n/a	n/a	GoodResponse	0	n/a	n/a	6	49	Blank	Neutral	True
471.978	1.45	Control	0.68	n/a	Yes	2.87	n/a	5.0	GoodResponse	0	0.044	471.022	6	49	Feedback	Neutral	True
473.432	2.87	Control	0.68	n/a	Yes	2.87	n/a	n/a	GoodResponse	0	0.0	n/a	6	49	ISIslide	Neutral	True
476.324	0.25	Control	0.6667000000000001	0.0	No	2.776	0.024	n/a	NoResponse	0	n/a	n/a	6	50	Cue	Neutral	True
476.575	4.0	Control	0.6667000000000001	0.0	No	2.776	0.001	n/a	NoResponse	0	n/a	n/a	6	50	Fixation	Neutral	True
480.57	0.21	Control	0.6667000000000001	0.004	No	2.776	-0.004	2.0	NoResponse	0	0.263	479.833	6	50	Target	Neutral	True
480.788	0.49	Control	0.6667000000000001	n/a	No	2.776	n/a	n/a	NoResponse	0	n/a	n/a	6	50	Blank	Neutral	True
480.833	0.3	Control	0.6667000000000001	0.004	No	2.776	-0.004	2.0	NoResponse	0	0.263	n/a	6	50	ButtonPress	Neutral	True
481.273	1.45	Control	0.6667000000000001	n/a	No	2.776	n/a	5.0	NoResponse	0	0.017	480.29	6	50	Feedback	Neutral	True
482.727	2.776	Control	0.6667000000000001	n/a	No	2.776	n/a	n/a	NoResponse	0	0.0	n/a	6	50	ISIslide	Neutral	True
485.519	0.25	Control	0.6537999999999999	0.0	No	2.731	0.019	n/a	NoResponse	0	n/a	n/a	6	51	Cue	Neutral	True
485.769	3.95	Control	0.6537999999999999	0.0	No	2.731	0.0	n/a	NoResponse	0	n/a	n/a	6	51	Fixation	Neutral	True
489.731	0.2	Control	0.6537999999999999	0.0	No	2.731	0.012	2.0	NoResponse	0	0.225	488.956	6	51	Target	Neutral	True
489.915	0.5	Control	0.6537999999999999	n/a	No	2.731	n/a	n/a	NoResponse	0	n/a	n/a	6	51	Blank	Neutral	True
489.956	0.3	Control	0.6537999999999999	0.0	No	2.731	0.012	2.0	NoResponse	0	0.225	n/a	6	51	ButtonPress	Neutral	True
490.417	1.45	Control	0.6537999999999999	n/a	No	2.731	n/a	5.0	NoResponse	0	0.044	489.461	6	51	Feedback	Neutral	True
491.871	2.731	Control	0.6537999999999999	n/a	No	2.731	n/a	n/a	NoResponse	0	0.0	n/a	6	51	ISIslide	Neutral	True
494.629	0.25	Control	0.6415000000000001	0.0	No	2.621	0.029	n/a	LatePress	0	n/a	n/a	6	52	Cue	Neutral	True
494.88	4.05	Control	0.6415000000000001	0.0	No	2.621	0.001	n/a	LatePress	0	n/a	n/a	6	52	Fixation	Neutral	True
498.925	0.21	Control	0.6415000000000001	0.004	No	2.621	-0.004	2.0	LatePress	0	0.212	498.137	6	52	Target	Neutral	True
499.137	0.3	Control	0.6415000000000001	0.004	No	2.621	-0.004	2.0	LatePress	0	0.212	n/a	6	52	ButtonPress	Neutral	True
499.143	0.49	Control	0.6415000000000001	n/a	No	2.621	n/a	n/a	LatePress	0	n/a	n/a	6	52	Blank	Neutral	True
499.628	1.45	Control	0.6415000000000001	n/a	No	2.621	n/a	5.0	LatePress	0	0.005	498.633	6	52	Feedback	Neutral	True
501.082	2.621	Control	0.6415000000000001	n/a	No	2.621	n/a	n/a	LatePress	0	0.0	n/a	6	52	ISIslide	Neutral	True
503.723	0.25	Win2	0.6481	0.0	Yes	2.927	0.023	n/a	GoodResponse	1	n/a	n/a	7	53	Cue	Win	True
503.974	4.05	Win2	0.6481	0.0	Yes	2.927	0.001	n/a	GoodResponse	1	n/a	n/a	7	53	Fixation	Win	True
508.019	0.22	Win2	0.6481	0.004	Yes	2.927	-0.004	2.0	GoodResponse	1	0.212	507.231	7	53	Target	Win	True
508.231	0.3	Win2	0.6481	0.004	Yes	2.927	-0.004	2.0	GoodResponse	1	0.212	n/a	7	53	ButtonPress	Win	True
508.253	0.48	Win2	0.6481	n/a	Yes	2.927	n/a	n/a	GoodResponse	1	n/a	n/a	7	53	Blank	Win	True
508.721	1.45	Win2	0.6481	n/a	Yes	2.927	n/a	5.0	GoodResponse	1	0.033	507.754	7	53	Feedback	Win	True
510.176	2.927	Win2	0.6481	n/a	Yes	2.927	n/a	n/a	GoodResponse	1	0.0	n/a	7	53	ISIslide	Win	True
513.118	0.25	Win2	0.6364	0.0	No	2.732	0.018	n/a	NoResponse	0	n/a	n/a	7	54	Cue	MissedWin	True
513.369	3.95	Win2	0.6364	0.0	No	2.732	0.001	n/a	NoResponse	0	n/a	n/a	7	54	Fixation	MissedWin	True
517.314	0.23	Win2	0.6364	0.004	No	2.732	-0.004	2.0	NoResponse	0	0.241	516.555	7	54	Target	MissedWin	True
517.548	0.47	Win2	0.6364	n/a	No	2.732	n/a	n/a	NoResponse	0	n/a	n/a	7	54	Blank	MissedWin	True
517.555	0.3	Win2	0.6364	0.004	No	2.732	-0.004	2.0	NoResponse	0	0.241	n/a	7	54	ButtonPress	MissedWin	True
518.016	1.45	Win2	0.6364	n/a	No	2.732	n/a	5.0	NoResponse	0	0.007	517.023	7	54	Feedback	MissedWin	True
519.47	2.732	Win2	0.6364	n/a	No	2.732	n/a	n/a	NoResponse	0	0.0	n/a	7	54	ISIslide	MissedWin	True
522.229	0.25	Control	0.625	0.0	No	3.021	0.029	n/a	NoResponse	0	n/a	n/a	7	55	Cue	Neutral	True
522.479	3.95	Control	0.625	0.0	No	3.021	0.0	2.0	NoResponse	0	3.661	525.14	7	55	Fixation	Neutral	True
526.14	0.3	Control	0.625	0.0	No	3.021	0.0	2.0	NoResponse	0	3.661	n/a	7	55	ButtonPress	Neutral	True
526.424	0.24	Control	0.625	0.005	No	3.021	-0.005	n/a	NoResponse	0	n/a	n/a	7	55	Target	Neutral	True
526.675	0.46	Control	0.625	n/a	No	3.021	n/a	n/a	NoResponse	0	n/a	n/a	7	55	Blank	Neutral	True
527.127	1.45	Control	0.625	n/a	No	3.021	n/a	5.0	NoResponse	0	0.016	526.143	7	55	Feedback	Neutral	True
528.581	3.021	Control	0.625	n/a	No	3.021	n/a	n/a	NoResponse	0	0.0	n/a	7	55	ISIslide	Neutral	True
531.623	0.25	Control	0.6315999999999999	0.0	Yes	2.827	0.023	n/a	GoodResponse	0	n/a	n/a	7	56	Cue	Neutral	True
531.874	3.95	Control	0.6315999999999999	0.0	Yes	2.827	0.001	n/a	GoodResponse	0	n/a	n/a	7	56	Fixation	Neutral	True
535.819	0.25	Control	0.6315999999999999	0.004	Yes	2.827	-0.004	2.0	GoodResponse	0	0.235	535.054	7	56	Target	Neutral	True
536.054	0.3	Control	0.6315999999999999	0.004	Yes	2.827	-0.004	2.0	GoodResponse	0	0.235	n/a	7	56	ButtonPress	Neutral	True
536.07	0.45	Control	0.6315999999999999	n/a	Yes	2.827	n/a	n/a	GoodResponse	0	n/a	n/a	7	56	Blank	Neutral	True
536.521	1.45	Control	0.6315999999999999	n/a	Yes	2.827	n/a	5.0	GoodResponse	0	0.037	535.558	7	56	Feedback	Neutral	True
537.976	2.827	Control	0.6315999999999999	n/a	Yes	2.827	n/a	n/a	GoodResponse	0	0.0	n/a	7	56	ISIslide	Neutral	True
540.818	0.25	Control	0.6379	0.0	Yes	3.482	0.018	n/a	GoodResponse	0	n/a	n/a	7	57	Cue	Neutral	True
541.068	4.0	Control	0.6379	0.0	Yes	3.482	0.0	n/a	GoodResponse	0	n/a	n/a	7	57	Fixation	Neutral	True
545.064	0.26	Control	0.6379	0.004	Yes	3.482	-0.004	2.0	GoodResponse	0	0.235	544.299	7	57	Target	Neutral	True
545.299	0.3	Control	0.6379	0.004	Yes	3.482	-0.004	2.0	GoodResponse	0	0.235	n/a	7	57	ButtonPress	Neutral	True
545.331	0.44	Control	0.6379	n/a	Yes	3.482	n/a	n/a	GoodResponse	0	n/a	n/a	7	57	Blank	Neutral	True
545.766	1.45	Control	0.6379	n/a	Yes	3.482	n/a	5.0	GoodResponse	0	0.012	544.778	7	57	Feedback	Neutral	True
547.22	3.482	Control	0.6379	n/a	Yes	3.482	n/a	n/a	GoodResponse	0	0.0	n/a	7	57	ISIslide	Neutral	True
550.731	0.25	Win2	0.6441	0.0	Yes	2.719	0.031	n/a	GoodResponse	1	n/a	n/a	8	58	Cue	Win	True
550.981	4.05	Win2	0.6441	0.0	Yes	2.719	0.0	n/a	GoodResponse	1	n/a	n/a	8	58	Fixation	Win	True
555.027	0.27	Win2	0.6441	0.004	Yes	2.719	-0.004	2.0	GoodResponse	1	0.21	554.237	8	58	Target	Win	True
555.237	0.3	Win2	0.6441	0.004	Yes	2.719	-0.004	2.0	GoodResponse	1	0.21	n/a	8	58	ButtonPress	Win	True
555.311	0.43	Win2	0.6441	n/a	Yes	2.719	n/a	n/a	GoodResponse	1	n/a	n/a	8	58	Blank	Win	True
555.729	1.45	Win2	0.6441	n/a	Yes	2.719	n/a	5.0	GoodResponse	1	0.049	554.778	8	58	Feedback	Win	True
557.183	2.719	Win2	0.6441	n/a	Yes	2.719	n/a	n/a	GoodResponse	1	0.0	n/a	8	58	ISIslide	Win	True
559.925	0.25	Lose2	0.65	0.0	Yes	2.675	0.025	n/a	GoodResponse	0	n/a	n/a	8	59	Cue	AvoidedLoss	True
560.176	4.0	Lose2	0.65	0.0	Yes	2.675	0.001	n/a	GoodResponse	0	n/a	n/a	8	59	Fixation	AvoidedLoss	True
564.171	0.28	Lose2	0.65	0.004	Yes	2.675	-0.004	2.0	GoodResponse	0	0.254	563.425	8	59	Target	AvoidedLoss	True
564.425	0.3	Lose2	0.65	0.004	Yes	2.675	-0.004	2.0	GoodResponse	0	0.254	n/a	8	59	ButtonPress	AvoidedLoss	True
564.455	0.42	Lose2	0.65	n/a	Yes	2.675	n/a	n/a	GoodResponse	0	n/a	n/a	8	59	Blank	AvoidedLoss	True
564.873	1.45	Lose2	0.65	n/a	Yes	2.675	n/a	5.0	GoodResponse	0	0.027	563.9	8	59	Feedback	AvoidedLoss	True
566.327	2.675	Lose2	0.65	n/a	Yes	2.675	n/a	n/a	GoodResponse	0	0.0	n/a	8	59	ISIslide	AvoidedLoss	True
569.019	0.25	Control	0.6557	0.0	Yes	2.681	0.019	n/a	GoodResponse	0	n/a	n/a	8	60	Cue	Neutral	True
569.27	4.0	Control	0.6557	0.0	Yes	2.681	0.001	n/a	GoodResponse	0	n/a	n/a	8	60	Fixation	Neutral	True
573.265	0.29	Control	0.6557	0.004	Yes	2.681	-0.004	2.0	GoodResponse	0	0.28	572.545	8	60	Target	Neutral	True
573.545	0.3	Control	0.6557	0.004	Yes	2.681	-0.004	2.0	GoodResponse	0	0.28	n/a	8	60	ButtonPress	Neutral	True
573.566	0.41	Control	0.6557	n/a	Yes	2.681	n/a	n/a	GoodResponse	0	n/a	n/a	8	60	Blank	Neutral	True
573.967	1.45	Control	0.6557	n/a	Yes	2.681	n/a	5.0	GoodResponse	0	0.007	572.974	8	60	Feedback	Neutral	True
575.421	2.681	Control	0.6557	n/a	Yes	2.681	n/a	n/a	GoodResponse	0	0.0	n/a	8	60	ISIslide	Neutral	True
578.129	0.25	Lose2	0.6613	0.0	Yes	2.971	0.029	n/a	GoodResponse	0	n/a	n/a	8	61	Cue	AvoidedLoss	True
578.38	4.0	Lose2	0.6613	0.0	Yes	2.971	0.001	n/a	GoodResponse	0	n/a	n/a	8	61	Fixation	AvoidedLoss	True
582.375	0.29	Lose2	0.6613	0.004	Yes	2.971	-0.004	2.0	GoodResponse	0	0.255	581.63	8	61	Target	AvoidedLoss	True
582.63	0.3	Lose2	0.6613	0.004	Yes	2.971	-0.004	2.0	GoodResponse	0	0.255	n/a	8	61	ButtonPress	AvoidedLoss	True
582.676	0.41	Lose2	0.6613	n/a	Yes	2.971	n/a	n/a	GoodResponse	0	n/a	n/a	8	61	Blank	AvoidedLoss	True
583.078	1.45	Lose2	0.6613	n/a	Yes	2.971	n/a	5.0	GoodResponse	0	0.016	582.094	8	61	Feedback	AvoidedLoss	True
584.532	2.971	Lose2	0.6613	n/a	Yes	2.971	n/a	n/a	GoodResponse	0	0.0	n/a	8	61	ISIslide	AvoidedLoss	True
587.524	0.25	Lose2	0.6667000000000001	0.0	Yes	2.876	0.024	n/a	GoodResponse	0	n/a	n/a	8	62	Cue	AvoidedLoss	True
587.775	3.9	Lose2	0.6667000000000001	0.0	Yes	2.876	0.001	n/a	GoodResponse	0	n/a	n/a	8	62	Fixation	AvoidedLoss	True
591.67	0.29	Lose2	0.6667000000000001	0.004	Yes	2.876	-0.004	2.0	GoodResponse	0	0.21	590.88	8	62	Target	AvoidedLoss	True
591.88	0.3	Lose2	0.6667000000000001	0.004	Yes	2.876	-0.004	2.0	GoodResponse	0	0.21	n/a	8	62	ButtonPress	AvoidedLoss	True
591.971	0.41	Lose2	0.6667000000000001	n/a	Yes	2.876	n/a	n/a	GoodResponse	0	n/a	n/a	8	62	Blank	AvoidedLoss	True
592.372	1.45	Lose2	0.6667000000000001	n/a	Yes	2.876	n/a	5.0	GoodResponse	0	0.039	591.411	8	62	Feedback	AvoidedLoss	True
593.826	2.876	Lose2	0.6667000000000001	n/a	Yes	2.876	n/a	n/a	GoodResponse	0	0.0	n/a	8	62	ISIslide	AvoidedLoss	True
596.718	0.25	Lose2	0.6718999999999999	0.001	Yes	2.632	0.018	n/a	GoodResponse	0	n/a	n/a	8	63	Cue	AvoidedLoss	True
596.969	4.05	Lose2	0.6718999999999999	0.0	Yes	2.632	0.001	n/a	GoodResponse	0	n/a	n/a	8	63	Fixation	AvoidedLoss	True
601.015	0.28	Lose2	0.6718999999999999	0.003	Yes	2.632	-0.003	2.0	GoodResponse	0	0.21	600.225	8	63	Target	AvoidedLoss	True
601.225	0.3	Lose2	0.6718999999999999	0.003	Yes	2.632	-0.003	2.0	GoodResponse	0	0.21	n/a	8	63	ButtonPress	AvoidedLoss	True
601.299	0.42	Lose2	0.6718999999999999	n/a	Yes	2.632	n/a	n/a	GoodResponse	0	n/a	n/a	8	63	Blank	AvoidedLoss	True
601.717	1.45	Lose2	0.6718999999999999	n/a	Yes	2.632	n/a	5.0	GoodResponse	0	0.011	600.728	8	63	Feedback	AvoidedLoss	True
603.171	2.632	Lose2	0.6718999999999999	n/a	Yes	2.632	n/a	n/a	GoodResponse	0	0.0	n/a	8	63	ISIslide	AvoidedLoss	True
605.829	0.25	Win2	0.6769	0.0	Yes	3.121	0.029	n/a	GoodResponse	1	n/a	n/a	9	64	Cue	Win	True
606.08	4.15	Win2	0.6769	0.0	Yes	3.121	0.001	n/a	GoodResponse	1	n/a	n/a	9	64	Fixation	Win	True
610.226	0.27	Win2	0.6769	0.003	Yes	3.121	-0.003	2.0	GoodResponse	1	0.204	609.43	9	64	Target	Win	True
610.43	0.3	Win2	0.6769	0.003	Yes	3.121	-0.003	2.0	GoodResponse	1	0.204	n/a	9	64	ButtonPress	Win	True
610.51	0.43	Win2	0.6769	n/a	Yes	3.121	n/a	n/a	GoodResponse	1	n/a	n/a	9	64	Blank	Win	True
610.928	1.45	Win2	0.6769	n/a	Yes	3.121	n/a	5.0	GoodResponse	1	0.02	609.948	9	64	Feedback	Win	True
612.382	3.121	Win2	0.6769	n/a	Yes	3.121	n/a	n/a	GoodResponse	1	0.0	n/a	9	64	ISIslide	Win	True
615.525	0.25	Control	0.6818000000000001	0.0	Yes	2.775	0.025	n/a	GoodResponse	0	n/a	n/a	9	65	Cue	Neutral	True
615.776	4.0	Control	0.6818000000000001	0.0	Yes	2.775	0.001	n/a	GoodResponse	0	n/a	n/a	9	65	Fixation	Neutral	True
619.771	0.26	Control	0.6818000000000001	0.004	Yes	2.775	-0.004	2.0	GoodResponse	0	0.199	618.97	9	65	Target	Neutral	True
619.97	0.3	Control	0.6818000000000001	0.004	Yes	2.775	-0.004	2.0	GoodResponse	0	0.199	n/a	9	65	ButtonPress	Neutral	True
620.038	0.44	Control	0.6818000000000001	n/a	Yes	2.775	n/a	n/a	GoodResponse	0	n/a	n/a	9	65	Blank	Neutral	True
620.473	1.45	Control	0.6818000000000001	n/a	Yes	2.775	n/a	5.0	GoodResponse	0	0.036	619.509	9	65	Feedback	Neutral	True
621.927	2.775	Control	0.6818000000000001	n/a	Yes	2.775	n/a	n/a	GoodResponse	0	0.0	n/a	9	65	ISIslide	Neutral	True
624.719	0.25	Win2	0.6866	0.0	Yes	2.781	0.019	n/a	GoodResponse	1	n/a	n/a	10	66	Cue	Win	True
624.97	3.9	Win2	0.6866	0.0	Yes	2.781	0.001	n/a	GoodResponse	1	n/a	n/a	10	66	Fixation	Win	True
628.865	0.25	Win2	0.6866	0.004	Yes	2.781	-0.004	2.0	GoodResponse	1	0.231	628.096	10	66	Target	Win	True
629.096	0.3	Win2	0.6866	0.004	Yes	2.781	-0.004	2.0	GoodResponse	1	0.231	n/a	10	66	ButtonPress	Win	True
629.116	0.45	Win2	0.6866	n/a	Yes	2.781	n/a	n/a	GoodResponse	1	n/a	n/a	10	66	Blank	Win	True
629.567	1.45	Win2	0.6866	n/a	Yes	2.781	n/a	5.0	GoodResponse	1	0.015	628.582	10	66	Feedback	Win	True
631.021	2.781	Win2	0.6866	n/a	Yes	2.781	n/a	n/a	GoodResponse	1	0.0	n/a	10	66	ISIslide	Win	True
633.83	0.25	Control	0.6765000000000001	0.0	No	2.72	0.03	n/a	NoResponse	0	n/a	n/a	10	67	Cue	Neutral	True
634.08	3.95	Control	0.6765000000000001	0.0	No	2.72	0.0	n/a	NoResponse	0	n/a	n/a	10	67	Fixation	Neutral	True
638.026	0.24	Control	0.6765000000000001	0.004	No	2.72	-0.004	2.0	NoResponse	0	0.259	637.285	10	67	Target	Neutral	True
638.276	0.46	Control	0.6765000000000001	n/a	No	2.72	n/a	n/a	NoResponse	0	n/a	n/a	10	67	Blank	Neutral	True
638.285	0.3	Control	0.6765000000000001	0.004	No	2.72	-0.004	2.0	NoResponse	0	0.259	n/a	10	67	ButtonPress	Neutral	True
638.728	1.45	Control	0.6765000000000001	n/a	No	2.72	n/a	5.0	NoResponse	0	0.024	637.752	10	67	Feedback	Neutral	True
640.182	2.72	Control	0.6765000000000001	n/a	No	2.72	n/a	n/a	NoResponse	0	0.0	n/a	10	67	ISIslide	Neutral	True
642.924	0.25	Win2	0.6812	0.0	Yes	3.076	0.024	n/a	GoodResponse	1	n/a	n/a	11	68	Cue	Win	True
643.174	4.0	Win2	0.6812	0.0	Yes	3.076	0.0	n/a	GoodResponse	1	n/a	n/a	11	68	Fixation	Win	True
647.17	0.23	Win2	0.6812	0.004	Yes	3.076	-0.004	2.0	GoodResponse	1	0.222	646.392	11	68	Target	Win	True
647.392	0.3	Win2	0.6812	0.004	Yes	3.076	-0.004	2.0	GoodResponse	1	0.222	n/a	11	68	ButtonPress	Win	True
647.404	0.47	Win2	0.6812	n/a	Yes	3.076	n/a	n/a	GoodResponse	1	n/a	n/a	11	68	Blank	Win	True
647.872	1.45	Win2	0.6812	n/a	Yes	3.076	n/a	5.0	GoodResponse	1	0.006	646.878	11	68	Feedback	Win	True
649.326	3.076	Win2	0.6812	n/a	Yes	3.076	n/a	n/a	GoodResponse	1	0.0	n/a	11	68	ISIslide	Win	True
652.419	0.25	Win2	0.6857	0.0	Yes	3.231	0.019	n/a	GoodResponse	1	n/a	n/a	12	69	Cue	Win	True
652.669	3.95	Win2	0.6857	0.001	Yes	3.231	0.0	n/a	GoodResponse	1	n/a	n/a	12	69	Fixation	Win	True
656.615	0.22	Win2	0.6857	0.004	Yes	3.231	-0.004	2.0	GoodResponse	1	0.218	655.833	12	69	Target	Win	True
656.833	0.3	Win2	0.6857	0.004	Yes	3.231	-0.004	2.0	GoodResponse	1	0.218	n/a	12	69	ButtonPress	Win	True
656.849	0.48	Win2	0.6857	n/a	Yes	3.231	n/a	n/a	GoodResponse	1	n/a	n/a	12	69	Blank	Win	True
657.317	1.45	Win2	0.6857	n/a	Yes	3.231	n/a	5.0	GoodResponse	1	0.021	656.338	12	69	Feedback	Win	True
658.771	3.231	Win2	0.6857	n/a	Yes	3.231	n/a	n/a	GoodResponse	1	0.0	n/a	12	69	ISIslide	Win	True
662.014	0.25	Lose2	0.6761	0.0	No	3.036	0.014	n/a	NoResponse	-1	n/a	n/a	11	70	Cue	Loss	True
662.265	4.05	Lose2	0.6761	0.0	No	3.036	0.001	n/a	NoResponse	-1	n/a	n/a	11	70	Fixation	Loss	True
666.31	0.21	Lose2	0.6761	0.004	No	3.036	-0.004	2.0	NoResponse	-1	0.223	665.533	11	70	Target	Loss	True
666.528	0.49	Lose2	0.6761	n/a	No	3.036	n/a	n/a	NoResponse	-1	n/a	n/a	11	70	Blank	Loss	True
666.533	0.3	Lose2	0.6761	0.004	No	3.036	-0.004	2.0	NoResponse	-1	0.223	n/a	11	70	ButtonPress	Loss	True
667.012	1.45	Lose2	0.6761	n/a	No	3.036	n/a	5.0	NoResponse	-1	0.033	666.045	11	70	Feedback	Loss	True
668.467	3.036	Lose2	0.6761	n/a	No	3.036	n/a	n/a	NoResponse	-1	0.0	n/a	11	70	ISIslide	Loss	True
671.526	0.25	Win2	0.6667000000000001	0.0	No	2.724	0.026	n/a	NoResponse	0	n/a	n/a	11	71	Cue	MissedWin	True
671.777	4.05	Win2	0.6667000000000001	0.0	No	2.724	0.001	n/a	NoResponse	0	n/a	n/a	11	71	Fixation	MissedWin	True
675.822	0.2	Win2	0.6667000000000001	0.004	No	2.724	-0.004	2.0	NoResponse	0	0.216	675.038	11	71	Target	MissedWin	True
676.023	0.5	Win2	0.6667000000000001	n/a	No	2.724	n/a	n/a	NoResponse	0	n/a	n/a	11	71	Blank	MissedWin	True
676.038	0.3	Win2	0.6667000000000001	0.004	No	2.724	-0.004	2.0	NoResponse	0	0.216	n/a	11	71	ButtonPress	MissedWin	True
676.524	1.45	Win2	0.6667000000000001	n/a	No	2.724	n/a	5.0	NoResponse	0	0.033	675.557	11	71	Feedback	MissedWin	True
677.979	2.724	Win2	0.6667000000000001	n/a	No	2.724	n/a	n/a	NoResponse	0	0.0	n/a	11	71	ISIslide	MissedWin	True
680.72	0.25	Win2	0.6575	0.0	No	2.78	0.02	n/a	NoResponse	0	n/a	n/a	11	72	Cue	MissedWin	True
680.971	4.1	Win2	0.6575	0.0	No	2.78	0.001	n/a	NoResponse	0	n/a	n/a	11	72	Fixation	MissedWin	True
685.067	0.19	Win2	0.6575	0.003	No	2.78	-0.003	2.0	NoResponse	0	0.233	684.3	11	72	Target	MissedWin	True
685.267	0.51	Win2	0.6575	n/a	No	2.78	n/a	n/a	NoResponse	0	n/a	n/a	11	72	Blank	MissedWin	True
685.3	0.3	Win2	0.6575	0.003	No	2.78	-0.003	2.0	NoResponse	0	0.233	n/a	11	72	ButtonPress	MissedWin	True
685.769	1.45	Win2	0.6575	n/a	No	2.78	n/a	5.0	NoResponse	0	0.008	684.777	11	72	Feedback	MissedWin	True
687.223	2.78	Win2	0.6575	n/a	No	2.78	n/a	n/a	NoResponse	0	0.0	n/a	11	72	ISIslide	MissedWin	True
690.015	0.25	Win2	0.6622	0.0	Yes	2.685	0.015	n/a	GoodResponse	1	n/a	n/a	12	73	Cue	Win	True
690.265	4.0	Win2	0.6622	0.001	Yes	2.685	0.0	n/a	GoodResponse	1	n/a	n/a	12	73	Fixation	Win	True
694.261	0.19	Win2	0.6622	0.004	Yes	2.685	-0.004	2.0	GoodResponse	1	0.171	693.432	12	73	Target	Win	True
694.432	0.3	Win2	0.6622	0.004	Yes	2.685	-0.004	2.0	GoodResponse	1	0.171	n/a	12	73	ButtonPress	Win	True
694.461	0.51	Win2	0.6622	n/a	Yes	2.685	n/a	n/a	GoodResponse	1	n/a	n/a	12	73	Blank	Win	True
694.963	1.45	Win2	0.6622	n/a	Yes	2.685	n/a	5.0	GoodResponse	1	0.033	693.996	12	73	Feedback	Win	True
696.417	2.685	Win2	0.6622	n/a	Yes	2.685	n/a	n/a	GoodResponse	1	0.0	n/a	12	73	ISIslide	Win	True
699.125	0.25	Lose2	0.6533	0.0	No	2.625	0.025	n/a	NoResponse	-1	n/a	n/a	11	74	Cue	Loss	True
699.376	4.05	Lose2	0.6533	0.0	No	2.625	0.001	n/a	NoResponse	-1	n/a	n/a	11	74	Fixation	Loss	True
703.422	0.19	Lose2	0.6533	0.003	No	2.625	-0.003	2.0	NoResponse	-1	0.206	702.628	11	74	Target	Loss	True
703.622	0.51	Lose2	0.6533	n/a	No	2.625	n/a	n/a	NoResponse	-1	n/a	n/a	11	74	Blank	Loss	True
703.628	0.3	Lose2	0.6533	0.003	No	2.625	-0.003	2.0	NoResponse	-1	0.206	n/a	11	74	ButtonPress	Loss	True
704.124	1.45	Lose2	0.6533	n/a	No	2.625	n/a	5.0	NoResponse	-1	0.043	703.167	11	74	Feedback	Loss	True
705.578	2.625	Lose2	0.6533	n/a	No	2.625	n/a	n/a	NoResponse	-1	0.0	n/a	11	74	ISIslide	Loss	True
708.219	0.25	Lose2	0.6446999999999999	0.0	No	2.931	0.019	n/a	NoResponse	-1	n/a	n/a	10	75	Cue	Loss	True
708.47	3.95	Lose2	0.6446999999999999	0.0	No	2.931	0.001	n/a	NoResponse	-1	n/a	n/a	10	75	Fixation	Loss	True
712.415	0.2	Lose2	0.6446999999999999	0.004	No	2.931	-0.004	2.0	NoResponse	-1	0.244	711.659	10	75	Target	Loss	True
712.616	0.5	Lose2	0.6446999999999999	n/a	No	2.931	n/a	n/a	NoResponse	-1	n/a	n/a	10	75	Blank	Loss	True
712.659	0.3	Lose2	0.6446999999999999	0.004	No	2.931	-0.004	2.0	NoResponse	-1	0.244	n/a	10	75	ButtonPress	Loss	True
713.117	1.45	Lose2	0.6446999999999999	n/a	No	2.931	n/a	5.0	NoResponse	-1	0.025	712.142	10	75	Feedback	Loss	True
714.572	2.931	Lose2	0.6446999999999999	n/a	No	2.931	n/a	n/a	NoResponse	-1	0.0	n/a	10	75	ISIslide	Loss	True
717.514	0.25	Control	0.6494	0.0	Yes	3.236	0.014	n/a	GoodResponse	0	n/a	n/a	10	76	Cue	Neutral	True
717.764	4.05	Control	0.6494	0.001	Yes	3.236	0.0	n/a	GoodResponse	0	n/a	n/a	10	76	Fixation	Neutral	True
721.81	0.21	Control	0.6494	0.004	Yes	3.236	-0.004	2.0	GoodResponse	0	0.154	720.964	10	76	Target	Neutral	True
721.964	0.3	Control	0.6494	0.004	Yes	3.236	-0.004	2.0	GoodResponse	0	0.154	n/a	10	76	ButtonPress	Neutral	True
722.027	0.49	Control	0.6494	n/a	Yes	3.236	n/a	n/a	GoodResponse	0	n/a	n/a	10	76	Blank	Neutral	True
722.512	1.45	Control	0.6494	n/a	Yes	3.236	n/a	5.0	GoodResponse	0	0.045	721.557	10	76	Feedback	Neutral	True
723.966	3.236	Control	0.6494	n/a	Yes	3.236	n/a	n/a	GoodResponse	0	0.0	n/a	10	76	ISIslide	Neutral	True
727.226	0.25	Lose2	0.6537999999999999	0.0	Yes	2.574	0.026	n/a	GoodResponse	0	n/a	n/a	10	77	Cue	AvoidedLoss	True
727.477	3.95	Lose2	0.6537999999999999	0.0	Yes	2.574	0.001	n/a	GoodResponse	0	n/a	n/a	10	77	Fixation	AvoidedLoss	True
731.422	0.22	Lose2	0.6537999999999999	0.004	Yes	2.574	-0.004	2.0	GoodResponse	0	0.183	730.605	10	77	Target	AvoidedLoss	True
731.605	0.3	Lose2	0.6537999999999999	0.004	Yes	2.574	-0.004	2.0	GoodResponse	0	0.183	n/a	10	77	ButtonPress	AvoidedLoss	True
731.656	0.48	Lose2	0.6537999999999999	n/a	Yes	2.574	n/a	n/a	GoodResponse	0	n/a	n/a	10	77	Blank	AvoidedLoss	True
732.124	1.45	Lose2	0.6537999999999999	n/a	Yes	2.574	n/a	5.0	GoodResponse	0	0.043	731.167	10	77	Feedback	AvoidedLoss	True
733.579	2.574	Lose2	0.6537999999999999	n/a	Yes	2.574	n/a	n/a	GoodResponse	0	0.0	n/a	10	77	ISIslide	AvoidedLoss	True
