onset	duration	cue_type	current_mean_accuracy	duration_error	is_hit	isi_adjusted	onset_delay	response	response_type	reward	rt	rt_time	total_reward	trial_number	trial_phase	trial_type	one_press
11.101	0.25	Control	1.0	0.001	Yes	2.949	0.001	n/a	GoodResponse	0	n/a	n/a	0	0	Cue	Neutral	True
11.352	3.85	Control	1.0	0.0	Yes	2.949	0.001	n/a	GoodResponse	0	n/a	n/a	0	0	Fixation	Neutral	True
15.197	0.4	Control	1.0	0.004	Yes	2.949	-0.004	4.0	GoodResponse	0	0.228	14.425	0	0	Target	Neutral	True
15.425	0.3	Control	1.0	0.004	Yes	2.949	-0.004	4.0	GoodResponse	0	0.228	n/a	0	0	ButtonPress	Neutral	True
15.598	0.3	Control	1.0	n/a	Yes	2.949	n/a	n/a	GoodResponse	0	n/a	n/a	0	0	Blank	Neutral	True
15.899	1.45	Control	1.0	n/a	Yes	2.949	n/a	5.0	GoodResponse	0	0.028	14.927	0	0	Feedback	Neutral	True
17.353	2.949	Control	1.0	n/a	Yes	2.949	n/a	n/a	GoodResponse	0	0.0	n/a	0	0	ISIslide	Neutral	True
20.329	0.25	Lose2	1.0	0.0	Yes	2.771	0.029	n/a	GoodResponse	0	n/a	n/a	0	1	Cue	AvoidedLoss	True
20.58	4.0	Lose2	1.0	0.0	Yes	2.771	0.001	n/a	GoodResponse	0	n/a	n/a	0	1	Fixation	AvoidedLoss	True
24.575	0.39	Lose2	1.0	0.004	Yes	2.771	-0.004	4.0	GoodResponse	0	0.214	23.789	0	1	Target	AvoidedLoss	True
24.789	0.3	Lose2	1.0	0.004	Yes	2.771	-0.004	4.0	GoodResponse	0	0.214	n/a	0	1	ButtonPress	AvoidedLoss	True
24.976	0.31	Lose2	1.0	n/a	Yes	2.771	n/a	n/a	GoodResponse	0	n/a	n/a	0	1	Blank	AvoidedLoss	True
25.277	1.45	Lose2	1.0	n/a	Yes	2.771	n/a	5.0	GoodResponse	0	0.015	24.292	0	1	Feedback	AvoidedLoss	True
26.732	2.771	Lose2	1.0	n/a	Yes	2.771	n/a	n/a	GoodResponse	0	0.0	n/a	0	1	ISIslide	AvoidedLoss	True
29.523	0.25	Control	1.0	0.0	Yes	2.577	0.023	n/a	GoodResponse	0	n/a	n/a	0	2	Cue	Neutral	True
29.774	4.1	Control	1.0	0.0	Yes	2.577	0.001	n/a	GoodResponse	0	n/a	n/a	0	2	Fixation	Neutral	True
33.87	0.38	Control	1.0	0.003	Yes	2.577	-0.003	4.0	GoodResponse	0	0.199	33.069	0	2	Target	Neutral	True
34.069	0.3	Control	1.0	0.003	Yes	2.577	-0.003	4.0	GoodResponse	0	0.199	n/a	0	2	ButtonPress	Neutral	True
34.254	0.32	Control	1.0	n/a	Yes	2.577	n/a	n/a	GoodResponse	0	n/a	n/a	0	2	Blank	Neutral	True
34.572	1.45	Control	1.0	n/a	Yes	2.577	n/a	5.0	GoodResponse	0	0.037	33.609	0	2	Feedback	Neutral	True
36.026	2.577	Control	1.0	n/a	Yes	2.577	n/a	n/a	GoodResponse	0	0.0	n/a	0	2	ISIslide	Neutral	True
38.617	0.25	Win2	1.0	0.0	Yes	2.833	0.017	n/a	GoodResponse	1	n/a	n/a	1	3	Cue	Win	True
38.868	3.95	Win2	1.0	0.0	Yes	2.833	0.001	n/a	GoodResponse	1	n/a	n/a	1	3	Fixation	Win	True
42.813	0.37	Win2	1.0	0.004	Yes	2.833	-0.004	4.0	GoodResponse	1	0.208	42.021	1	3	Target	Win	True
43.021	0.3	Win2	1.0	0.004	Yes	2.833	-0.004	4.0	GoodResponse	1	0.208	n/a	1	3	ButtonPress	Win	True
43.197	0.33	Win2	1.0	n/a	Yes	2.833	n/a	n/a	GoodResponse	1	n/a	n/a	1	3	Blank	Win	True
43.515	1.45	Win2	1.0	n/a	Yes	2.833	n/a	5.0	GoodResponse	1	0.021	42.536	1	3	Feedback	Win	True
44.969	2.833	Win2	1.0	n/a	Yes	2.833	n/a	n/a	GoodResponse	1	0.0	n/a	1	3	ISIslide	Win	True
47.828	0.25	Win2	1.0	0.0	Yes	3.272	0.028	n/a	GoodResponse	1	n/a	n/a	2	4	Cue	Win	True
48.079	4.0	Win2	1.0	0.0	Yes	3.272	0.001	n/a	GoodResponse	1	n/a	n/a	2	4	Fixation	Win	True
52.074	0.36	Win2	1.0	0.004	Yes	3.272	-0.004	4.0	GoodResponse	1	0.198	51.272	2	4	Target	Win	True
52.272	0.3	Win2	1.0	0.004	Yes	3.272	-0.004	4.0	GoodResponse	1	0.198	n/a	2	4	ButtonPress	Win	True
52.442	0.34	Win2	1.0	n/a	Yes	3.272	n/a	n/a	GoodResponse	1	n/a	n/a	2	4	Blank	Win	True
52.776	1.45	Win2	1.0	n/a	Yes	3.272	n/a	5.0	GoodResponse	1	0.028	51.804	2	4	Feedback	Win	True
54.23	3.272	Win2	1.0	n/a	Yes	3.272	n/a	n/a	GoodResponse	1	0.0	n/a	2	4	ISIslide	Win	True
57.524	0.25	Win2	1.0	0.0	Yes	2.776	0.024	n/a	GoodResponse	1	n/a	n/a	3	5	Cue	Win	True
57.774	4.0	Win2	1.0	0.001	Yes	2.776	0.0	n/a	GoodResponse	1	n/a	n/a	3	5	Fixation	Win	True
61.77	0.35	Win2	1.0	0.004	Yes	2.776	-0.004	4.0	GoodResponse	1	0.29	61.06	3	5	Target	Win	True
62.06	0.3	Win2	1.0	0.004	Yes	2.776	-0.004	4.0	GoodResponse	1	0.29	n/a	3	5	ButtonPress	Win	True
62.121	0.35	Win2	1.0	n/a	Yes	2.776	n/a	n/a	GoodResponse	1	n/a	n/a	3	5	Blank	Win	True
62.472	1.45	Win2	1.0	n/a	Yes	2.776	n/a	5.0	GoodResponse	1	0.04	61.512	3	5	Feedback	Win	True
63.926	2.776	Win2	1.0	n/a	Yes	2.776	n/a	n/a	GoodResponse	1	0.0	n/a	3	5	ISIslide	Win	True
66.718	0.25	Lose2	1.0	0.0	Yes	2.732	0.018	n/a	GoodResponse	0	n/a	n/a	3	6	Cue	AvoidedLoss	True
66.969	3.95	Lose2	1.0	0.0	Yes	2.732	0.001	n/a	GoodResponse	0	n/a	n/a	3	6	Fixation	AvoidedLoss	True
70.914	0.34	Lose2	1.0	0.004	Yes	2.732	-0.004	4.0	GoodResponse	0	0.195	70.109	3	6	Target	AvoidedLoss	True
71.109	0.3	Lose2	1.0	0.004	Yes	2.732	-0.004	4.0	GoodResponse	0	0.195	n/a	3	6	ButtonPress	AvoidedLoss	True
71.265	0.36	Lose2	1.0	n/a	Yes	2.732	n/a	n/a	GoodResponse	0	n/a	n/a	3	6	Blank	AvoidedLoss	True
71.616	1.45	Lose2	1.0	n/a	Yes	2.732	n/a	5.0	GoodResponse	0	0.017	70.633	3	6	Feedback	AvoidedLoss	True
73.07	2.732	Lose2	1.0	n/a	Yes	2.732	n/a	n/a	GoodResponse	0	0.0	n/a	3	6	ISIslide	AvoidedLoss	True
75.828	0.25	Lose2	1.0	0.001	Yes	4.022	0.028	n/a	GoodResponse	0	n/a	n/a	3	7	Cue	AvoidedLoss	True
76.079	4.05	Lose2	1.0	0.0	Yes	4.022	0.001	n/a	GoodResponse	0	n/a	n/a	3	7	Fixation	AvoidedLoss	True
80.125	0.33	Lose2	1.0	0.003	Yes	4.022	-0.003	4.0	GoodResponse	0	0.165	79.29	3	7	Target	AvoidedLoss	True
80.29	0.3	Lose2	1.0	0.003	Yes	4.022	-0.003	4.0	GoodResponse	0	0.165	n/a	3	7	ButtonPress	AvoidedLoss	True
80.459	0.37	Lose2	1.0	n/a	Yes	4.022	n/a	n/a	GoodResponse	0	n/a	n/a	3	7	Blank	AvoidedLoss	True
80.827	1.45	Lose2	1.0	n/a	Yes	4.022	n/a	5.0	GoodResponse	0	0.025	79.852	3	7	Feedback	AvoidedLoss	True
82.281	4.022	Lose2	1.0	n/a	Yes	4.022	n/a	n/a	GoodResponse	0	0.0	n/a	3	7	ISIslide	AvoidedLoss	True
86.327	0.25	Lose2	1.0	0.0	Yes	3.023	0.027	n/a	GoodResponse	0	n/a	n/a	3	8	Cue	AvoidedLoss	True
86.577	3.95	Lose2	1.0	0.0	Yes	3.023	0.0	n/a	GoodResponse	0	n/a	n/a	3	8	Fixation	AvoidedLoss	True
90.539	0.32	Lose2	1.0	0.0	Yes	3.023	0.012	4.0	GoodResponse	0	0.191	89.73	3	8	Target	AvoidedLoss	True
90.73	0.3	Lose2	1.0	0.0	Yes	3.023	0.012	4.0	GoodResponse	0	0.191	n/a	3	8	ButtonPress	AvoidedLoss	True
90.857	0.38	Lose2	1.0	n/a	Yes	3.023	n/a	n/a	GoodResponse	0	n/a	n/a	3	8	Blank	AvoidedLoss	True
91.225	1.45	Lose2	1.0	n/a	Yes	3.023	n/a	5.0	GoodResponse	0	0.018	90.243	3	8	Feedback	AvoidedLoss	True
92.679	3.023	Lose2	1.0	n/a	Yes	3.023	n/a	n/a	GoodResponse	0	0.0	n/a	3	8	ISIslide	AvoidedLoss	True
95.721	0.25	Lose2	1.0	0.0	Yes	3.129	0.021	n/a	GoodResponse	0	n/a	n/a	3	9	Cue	AvoidedLoss	True
95.972	3.95	Lose2	1.0	0.0	Yes	3.129	0.001	n/a	GoodResponse	0	n/a	n/a	3	9	Fixation	AvoidedLoss	True
99.917	0.31	Lose2	1.0	0.004	Yes	3.129	-0.004	4.0	GoodResponse	0	0.262	99.179	3	9	Target	AvoidedLoss	True
100.179	0.3	Lose2	1.0	0.004	Yes	3.129	-0.004	4.0	GoodResponse	0	0.262	n/a	3	9	ButtonPress	AvoidedLoss	True
100.235	0.39	Lose2	1.0	n/a	Yes	3.129	n/a	n/a	GoodResponse	0	n/a	n/a	3	9	Blank	AvoidedLoss	True
100.619	1.45	Lose2	1.0	n/a	Yes	3.129	n/a	5.0	GoodResponse	0	0.038	99.657	3	9	Feedback	AvoidedLoss	True
102.074	3.129	Lose2	1.0	n/a	Yes	3.129	n/a	n/a	GoodResponse	0	0.0	n/a	3	9	ISIslide	AvoidedLoss	True
105.216	0.25	Control	1.0	0.001	Yes	3.284	0.016	n/a	GoodResponse	0	n/a	n/a	3	10	Cue	Neutral	True
105.467	4.0	Control	1.0	0.0	Yes	3.284	0.001	n/a	GoodResponse	0	n/a	n/a	3	10	Fixation	Neutral	True
109.462	0.3	Control	1.0	0.004	Yes	3.284	-0.004	4.0	GoodResponse	0	0.173	108.635	3	10	Target	Neutral	True
109.635	0.3	Control	1.0	0.004	Yes	3.284	-0.004	4.0	GoodResponse	0	0.173	n/a	3	10	ButtonPress	Neutral	True
109.763	0.4	Control	1.0	n/a	Yes	3.284	n/a	n/a	GoodResponse	0	n/a	n/a	3	10	Blank	Neutral	True
110.165	1.45	Control	1.0	n/a	Yes	3.284	n/a	5.0	GoodResponse	0	0.006	109.171	3	10	Feedback	Neutral	True
111.619	3.284	Control	1.0	n/a	Yes	3.284	n/a	n/a	GoodResponse	0	0.0	n/a	3	10	ISIslide	Neutral	True
114.929	0.25	Lose2	1.0	0.0	Yes	2.721	0.029	n/a	GoodResponse	0	n/a	n/a	3	11	Cue	AvoidedLoss	True
115.18	4.05	Lose2	1.0	0.0	Yes	2.721	0.001	n/a	GoodResponse	0	n/a	n/a	3	11	Fixation	AvoidedLoss	True
119.225	0.29	Lose2	1.0	0.004	Yes	2.721	-0.004	4.0	GoodResponse	0	0.247	118.472	3	11	Target	AvoidedLoss	True
119.472	0.3	Lose2	1.0	0.004	Yes	2.721	-0.004	4.0	GoodResponse	0	0.247	n/a	3	11	ButtonPress	AvoidedLoss	True
119.526	0.41	Lose2	1.0	n/a	Yes	2.721	n/a	n/a	GoodResponse	0	n/a	n/a	3	11	Blank	AvoidedLoss	True
119.927	1.45	Lose2	1.0	n/a	Yes	2.721	n/a	5.0	GoodResponse	0	0.047	118.974	3	11	Feedback	AvoidedLoss	True
121.381	2.721	Lose2	1.0	n/a	Yes	2.721	n/a	n/a	GoodResponse	0	0.0	n/a	3	11	ISIslide	AvoidedLoss	True
124.123	0.25	Control	1.0	0.0	Yes	2.977	0.023	n/a	GoodResponse	0	n/a	n/a	3	12	Cue	Neutral	True
124.374	3.9	Control	1.0	0.0	Yes	2.977	0.001	n/a	GoodResponse	0	n/a	n/a	3	12	Fixation	Neutral	True
128.269	0.28	Control	1.0	0.004	Yes	2.977	-0.004	4.0	GoodResponse	0	0.218	127.487	3	12	Target	Neutral	True
128.487	0.3	Control	1.0	0.004	Yes	2.977	-0.004	4.0	GoodResponse	0	0.218	n/a	3	12	ButtonPress	Neutral	True
128.553	0.42	Control	1.0	n/a	Yes	2.977	n/a	n/a	GoodResponse	0	n/a	n/a	3	12	Blank	Neutral	True
128.971	1.45	Control	1.0	n/a	Yes	2.977	n/a	5.0	GoodResponse	0	0.027	127.998	3	12	Feedback	Neutral	True
130.425	2.977	Control	1.0	n/a	Yes	2.977	n/a	n/a	GoodResponse	0	0.0	n/a	3	12	ISIslide	Neutral	True
133.418	0.25	Control	1.0	0.0	Yes	2.782	0.018	n/a	GoodResponse	0	n/a	n/a	3	13	Cue	Neutral	True
133.668	4.0	Control	1.0	0.0	Yes	2.782	0.0	n/a	GoodResponse	0	n/a	n/a	3	13	Fixation	Neutral	True
137.664	0.27	Control	1.0	0.004	Yes	2.782	-0.004	4.0	GoodResponse	0	0.193	136.857	3	13	Target	Neutral	True
137.857	0.3	Control	1.0	0.004	Yes	2.782	-0.004	4.0	GoodResponse	0	0.193	n/a	3	13	ButtonPress	Neutral	True
137.948	0.43	Control	1.0	n/a	Yes	2.782	n/a	n/a	GoodResponse	0	n/a	n/a	3	13	Blank	Neutral	True
138.366	1.45	Control	1.0	n/a	Yes	2.782	n/a	5.0	GoodResponse	0	0.047	137.413	3	13	Feedback	Neutral	True
139.82	2.782	Control	1.0	n/a	Yes	2.782	n/a	n/a	GoodResponse	0	0.0	n/a	3	13	ISIslide	Neutral	True
142.628	0.25	Win2	1.0	0.001	Yes	2.672	0.028	n/a	GoodResponse	1	n/a	n/a	4	14	Cue	Win	True
142.879	4.1	Win2	1.0	0.0	Yes	2.672	0.001	n/a	GoodResponse	1	n/a	n/a	4	14	Fixation	Win	True
146.975	0.26	Win2	1.0	0.003	Yes	2.672	-0.003	4.0	GoodResponse	1	0.193	146.168	4	14	Target	Win	True
147.168	0.3	Win2	1.0	0.003	Yes	2.672	-0.003	4.0	GoodResponse	1	0.193	n/a	4	14	ButtonPress	Win	True
147.242	0.44	Win2	1.0	n/a	Yes	2.672	n/a	n/a	GoodResponse	1	n/a	n/a	4	14	Blank	Win	True
147.677	1.45	Win2	1.0	n/a	Yes	2.672	n/a	5.0	GoodResponse	1	0.007	146.684	4	14	Feedback	Win	True
149.131	2.672	Win2	1.0	n/a	Yes	2.672	n/a	n/a	GoodResponse	1	0.0	n/a	4	14	ISIslide	Win	True
151.823	0.25	Control	1.0	0.0	Yes	2.977	0.023	n/a	GoodResponse	0	n/a	n/a	4	15	Cue	Neutral	True
152.073	4.0	Control	1.0	0.0	Yes	2.977	0.0	n/a	GoodResponse	0	n/a	n/a	4	15	Fixation	Neutral	True
156.069	0.25	Control	1.0	0.004	Yes	2.977	-0.004	4.0	GoodResponse	0	0.165	155.234	4	15	Target	Neutral	True
156.234	0.3	Control	1.0	0.004	Yes	2.977	-0.004	4.0	GoodResponse	0	0.165	n/a	4	15	ButtonPress	Neutral	True
156.319	0.45	Control	1.0	n/a	Yes	2.977	n/a	n/a	GoodResponse	0	n/a	n/a	4	15	Blank	Neutral	True
156.771	1.45	Control	1.0	n/a	Yes	2.977	n/a	5.0	GoodResponse	0	0.032	155.803	4	15	Feedback	Neutral	True
158.225	2.977	Control	1.0	n/a	Yes	2.977	n/a	n/a	GoodResponse	0	0.0	n/a	4	15	ISIslide	Neutral	True
161.217	0.25	Win2	1.0	0.001	Yes	2.883	0.017	n/a	GoodResponse	1	n/a	n/a	5	16	Cue	Win	True
161.468	4.0	Win2	1.0	0.0	Yes	2.883	0.001	n/a	GoodResponse	1	n/a	n/a	5	16	Fixation	Win	True
165.463	0.24	Win2	1.0	0.004	Yes	2.883	-0.004	4.0	GoodResponse	1	0.196	164.659	5	16	Target	Win	True
165.659	0.3	Win2	1.0	0.004	Yes	2.883	-0.004	4.0	GoodResponse	1	0.196	n/a	5	16	ButtonPress	Win	True
165.714	0.46	Win2	1.0	n/a	Yes	2.883	n/a	n/a	GoodResponse	1	n/a	n/a	5	16	Blank	Win	True
166.166	1.45	Win2	1.0	n/a	Yes	2.883	n/a	5.0	GoodResponse	1	0.007	165.173	5	16	Feedback	Win	True
167.62	2.883	Win2	1.0	n/a	Yes	2.883	n/a	n/a	GoodResponse	1	0.0	n/a	5	16	ISIslide	Win	True
170.529	0.25	Lose2	1.0	0.0	Yes	2.721	0.029	n/a	GoodResponse	0	n/a	n/a	5	17	Cue	AvoidedLoss	True
170.779	3.95	Lose2	1.0	0.0	Yes	2.721	0.0	n/a	GoodResponse	0	n/a	n/a	5	17	Fixation	AvoidedLoss	True
174.724	0.23	Lose2	1.0	0.005	Yes	2.721	-0.005	4.0	GoodResponse	0	0.197	173.921	5	17	Target	AvoidedLoss	True
174.921	0.3	Lose2	1.0	0.005	Yes	2.721	-0.005	4.0	GoodResponse	0	0.197	n/a	5	17	ButtonPress	AvoidedLoss	True
174.959	0.47	Lose2	1.0	n/a	Yes	2.721	n/a	n/a	GoodResponse	0	n/a	n/a	5	17	Blank	AvoidedLoss	True
175.427	1.45	Lose2	1.0	n/a	Yes	2.721	n/a	5.0	GoodResponse	0	0.01	174.437	5	17	Feedback	AvoidedLoss	True
176.881	2.721	Lose2	1.0	n/a	Yes	2.721	n/a	n/a	GoodResponse	0	0.0	n/a	5	17	ISIslide	AvoidedLoss	True
179.623	0.25	Lose2	0.9473999999999999	0.0	No	2.727	0.023	n/a	NoResponse	-1	n/a	n/a	4	18	Cue	Loss	False
179.873	4.05	Lose2	0.9473999999999999	0.0	No	2.727	0.0	4.0	NoResponse	-1	3.765	182.638	4	18	Fixation	Loss	False
183.638	0.3	Lose2	0.9473999999999999	0.0	No	2.727	0.0	4.0	NoResponse	-1	3.765	n/a	4	18	ButtonPress	Loss	False
183.919	0.22	Lose2	0.9473999999999999	0.004	No	2.727	-0.004	4.0	NoResponse	-1	0.28	183.199	4	18	Target	Loss	False
184.153	0.48	Lose2	0.9473999999999999	n/a	No	2.727	n/a	n/a	NoResponse	-1	n/a	n/a	4	18	Blank	Loss	False
184.199	0.3	Lose2	0.9473999999999999	0.004	No	2.727	-0.004	4.0	NoResponse	-1	0.28	n/a	4	18	ButtonPress	Loss	False
184.621	1.45	Lose2	0.9473999999999999	n/a	No	2.727	n/a	5.0	NoResponse	-1	0.035	183.656	4	18	Feedback	Loss	False
186.075	2.727	Lose2	0.9473999999999999	n/a	No	2.727	n/a	n/a	NoResponse	-1	0.0	n/a	4	18	ISIslide	Loss	False
188.817	0.25	Control	0.9	0.0	No	2.933	0.017	n/a	NoResponse	0	n/a	n/a	4	19	Cue	Neutral	True
189.067	3.95	Control	0.9	0.001	No	2.933	0.0	n/a	NoResponse	0	n/a	n/a	4	19	Fixation	Neutral	True
193.013	0.21	Control	0.9	0.004	No	2.933	-0.004	4.0	NoResponse	0	0.226	192.239	4	19	Target	Neutral	True
193.23	0.49	Control	0.9	n/a	No	2.933	n/a	n/a	NoResponse	0	n/a	n/a	4	19	Blank	Neutral	True
193.239	0.3	Control	0.9	0.004	No	2.933	-0.004	4.0	NoResponse	0	0.226	n/a	4	19	ButtonPress	Neutral	True
193.715	1.45	Control	0.9	n/a	No	2.933	n/a	5.0	NoResponse	0	0.015	192.73	4	19	Feedback	Neutral	True
195.169	2.933	Control	0.9	n/a	No	2.933	n/a	n/a	NoResponse	0	0.0	n/a	4	19	ISIslide	Neutral	True
198.128	0.25	Control	0.9048	0.0	Yes	2.622	0.028	n/a	GoodResponse	0	n/a	n/a	4	20	Cue	Neutral	True
198.379	4.05	Control	0.9048	0.0	Yes	2.622	0.001	n/a	GoodResponse	0	n/a	n/a	4	20	Fixation	Neutral	True
202.424	0.2	Control	0.9048	0.004	Yes	2.622	-0.004	4.0	GoodResponse	0	0.192	201.616	4	20	Target	Neutral	True
202.616	0.3	Control	0.9048	0.004	Yes	2.622	-0.004	4.0	GoodResponse	0	0.192	n/a	4	20	ButtonPress	Neutral	True
202.625	0.5	Control	0.9048	n/a	Yes	2.622	n/a	n/a	GoodResponse	0	n/a	n/a	4	20	Blank	Neutral	True
203.126	1.45	Control	0.9048	n/a	Yes	2.622	n/a	5.0	GoodResponse	0	0.018	202.144	4	20	Feedback	Neutral	True
204.581	2.622	Control	0.9048	n/a	Yes	2.622	n/a	n/a	GoodResponse	0	0.0	n/a	4	20	ISIslide	Neutral	True
207.222	0.25	Control	0.8636	0.0	No	2.778	0.022	n/a	NoResponse	0	n/a	n/a	4	21	Cue	Neutral	True
207.473	4.1	Control	0.8636	0.0	No	2.778	0.001	n/a	NoResponse	0	n/a	n/a	4	21	Fixation	Neutral	True
211.568	0.19	Control	0.8636	0.004	No	2.778	-0.004	4.0	NoResponse	0	0.232	210.8	4	21	Target	Neutral	True
211.769	0.51	Control	0.8636	n/a	No	2.778	n/a	n/a	NoResponse	0	n/a	n/a	4	21	Blank	Neutral	True
211.8	0.3	Control	0.8636	0.004	No	2.778	-0.004	4.0	NoResponse	0	0.232	n/a	4	21	ButtonPress	Neutral	True
212.27	1.45	Control	0.8636	n/a	No	2.778	n/a	5.0	NoResponse	0	0.045	211.315	4	21	Feedback	Neutral	True
213.725	2.778	Control	0.8636	n/a	No	2.778	n/a	n/a	NoResponse	0	0.0	n/a	4	21	ISIslide	Neutral	True
216.516	0.25	Control	0.8261	0.0	No	2.784	0.016	n/a	NoResponse	0	n/a	n/a	4	22	Cue	Neutral	True
216.767	4.0	Control	0.8261	0.0	No	2.784	0.001	n/a	NoResponse	0	n/a	n/a	4	22	Fixation	Neutral	True
220.762	0.18	Control	0.8261	0.004	No	2.784	-0.004	4.0	NoResponse	0	0.193	219.955	4	22	Target	Neutral	True
220.946	0.52	Control	0.8261	n/a	No	2.784	n/a	n/a	NoResponse	0	n/a	n/a	4	22	Blank	Neutral	True
220.955	0.3	Control	0.8261	0.004	No	2.784	-0.004	4.0	NoResponse	0	0.193	n/a	4	22	ButtonPress	Neutral	True
221.464	1.45	Control	0.8261	n/a	No	2.784	n/a	5.0	NoResponse	0	0.021	220.485	4	22	Feedback	Neutral	True
222.919	2.784	Control	0.8261	n/a	No	2.784	n/a	n/a	NoResponse	0	0.0	n/a	4	22	ISIslide	Neutral	True
225.727	0.25	Control	0.7917000000000001	0.0	No	2.773	0.027	n/a	NoResponse	0	n/a	n/a	4	23	Cue	Neutral	True
225.978	3.9	Control	0.7917000000000001	0.0	No	2.773	0.001	n/a	NoResponse	0	n/a	n/a	4	23	Fixation	Neutral	True
229.873	0.17	Control	0.7917000000000001	0.004	No	2.773	-0.004	4.0	NoResponse	0	0.194	229.067	4	23	Target	Neutral	True
230.057	0.53	Control	0.7917000000000001	n/a	No	2.773	n/a	n/a	NoResponse	0	n/a	n/a	4	23	Blank	Neutral	True
230.067	0.3	Control	0.7917000000000001	0.004	No	2.773	-0.004	4.0	NoResponse	0	0.194	n/a	4	23	ButtonPress	Neutral	True
230.575	1.45	Control	0.7917000000000001	n/a	No	2.773	n/a	5.0	NoResponse	0	0.032	229.607	4	23	Feedback	Neutral	True
232.029	2.773	Control	0.7917000000000001	n/a	No	2.773	n/a	n/a	NoResponse	0	0.0	n/a	4	23	ISIslide	Neutral	True
234.821	0.25	Win2	0.76	0.0	No	3.129	0.021	n/a	NoResponse	0	n/a	n/a	4	24	Cue	MissedWin	True
235.072	3.95	Win2	0.76	0.0	No	3.129	0.001	n/a	NoResponse	0	n/a	n/a	4	24	Fixation	MissedWin	True
239.017	0.16	Win2	0.76	0.004	No	3.129	-0.004	4.0	NoResponse	0	0.18	238.197	4	24	Target	MissedWin	True
239.184	0.54	Win2	0.76	n/a	No	3.129	n/a	n/a	NoResponse	0	n/a	n/a	4	24	Blank	MissedWin	True
239.197	0.3	Win2	0.76	0.004	No	3.129	-0.004	4.0	NoResponse	0	0.18	n/a	4	24	ButtonPress	MissedWin	True
239.719	1.45	Win2	0.76	n/a	No	3.129	n/a	5.0	NoResponse	0	0.01	238.729	4	24	Feedback	MissedWin	True
241.173	3.129	Win2	0.76	n/a	No	3.129	n/a	n/a	NoResponse	0	0.0	n/a	4	24	ISIslide	MissedWin	True
244.316	0.25	Win2	0.7308	0.0	No	3.084	0.016	n/a	NoResponse	0	n/a	n/a	4	25	Cue	MissedWin	True
244.567	4.0	Win2	0.7308	0.0	No	3.084	0.001	n/a	NoResponse	0	n/a	n/a	4	25	Fixation	MissedWin	True
248.562	0.15	Win2	0.7308	0.004	No	3.084	-0.004	4.0	NoResponse	0	0.175	247.737	4	25	Target	MissedWin	True
248.713	0.55	Win2	0.7308	n/a	No	3.084	n/a	n/a	NoResponse	0	n/a	n/a	4	25	Blank	MissedWin	True
248.737	0.3	Win2	0.7308	0.004	No	3.084	-0.004	4.0	NoResponse	0	0.175	n/a	4	25	ButtonPress	MissedWin	True
249.264	1.45	Win2	0.7308	n/a	No	3.084	n/a	5.0	NoResponse	0	0.026	248.29	4	25	Feedback	MissedWin	True
250.719	3.084	Win2	0.7308	n/a	No	3.084	n/a	n/a	NoResponse	0	0.0	n/a	4	25	ISIslide	MissedWin	True
253.828	0.25	Win2	0.7037	0.0	No	2.922	0.028	n/a	NoResponse	0	n/a	n/a	4	26	Cue	MissedWin	True
254.079	3.95	Win2	0.7037	0.0	No	2.922	0.001	n/a	NoResponse	0	n/a	n/a	4	26	Fixation	MissedWin	True
258.024	0.15	Win2	0.7037	0.004	No	2.922	-0.004	4.0	NoResponse	0	0.189	257.213	4	26	Target	MissedWin	True
258.174	0.55	Win2	0.7037	n/a	No	2.922	n/a	n/a	NoResponse	0	n/a	n/a	4	26	Blank	MissedWin	True
258.213	0.3	Win2	0.7037	0.004	No	2.922	-0.004	4.0	NoResponse	0	0.189	n/a	4	26	ButtonPress	MissedWin	True
258.726	1.45	Win2	0.7037	n/a	No	2.922	n/a	5.0	NoResponse	0	0.028	257.754	4	26	Feedback	MissedWin	True
260.18	2.922	Win2	0.7037	n/a	No	2.922	n/a	n/a	NoResponse	0	0.0	n/a	4	26	ISIslide	MissedWin	True
263.122	0.25	Lose2	0.6786	0.001	No	2.828	0.022	n/a	NoResponse	-1	n/a	n/a	3	27	Cue	Loss	True
263.373	4.05	Lose2	0.6786	0.0	No	2.828	0.001	n/a	NoResponse	-1	n/a	n/a	3	27	Fixation	Loss	True
267.419	0.15	Lose2	0.6786	0.003	No	2.828	-0.003	4.0	NoResponse	-1	0.19	266.609	3	27	Target	Loss	True
267.569	0.55	Lose2	0.6786	n/a	No	2.828	n/a	n/a	NoResponse	-1	n/a	n/a	3	27	Blank	Loss	True
267.609	0.3	Lose2	0.6786	0.003	No	2.828	-0.003	4.0	NoResponse	-1	0.19	n/a	3	27	ButtonPress	Loss	True
268.121	1.45	Lose2	0.6786	n/a	No	2.828	n/a	5.0	NoResponse	-1	0.047	267.168	3	27	Feedback	Loss	True
269.575	2.828	Lose2	0.6786	n/a	No	2.828	n/a	n/a	NoResponse	-1	0.0	n/a	3	27	ISIslide	Loss	True
272.417	0.25	Control	0.6552	0.0	No	2.833	0.017	n/a	NoResponse	0	n/a	n/a	3	28	Cue	Neutral	False
272.668	4.05	Control	0.6552	0.0	No	2.833	0.001	n/a	NoResponse	0	n/a	n/a	3	28	Fixation	Neutral	False
276.713	0.15	Control	0.6552	0.004	No	2.833	-0.004	n/a	NoResponse	0	n/a	n/a	3	28	Target	Neutral	False
276.864	0.55	Control	0.6552	n/a	No	2.833	n/a	n/a	NoResponse	0	n/a	n/a	3	28	Blank	Neutral	False
277.415	1.45	Control	0.6552	n/a	No	2.833	n/a	5.0	NoResponse	0	0.021	276.436	3	28	Feedback	Neutral	False
278.87	2.833	Control	0.6552	n/a	No	2.833	n/a	n/a	NoResponse	0	0.0	n/a	3	28	ISIslide	Neutral	False
281.728	0.25	Lose2	0.6333	0.0	No	2.822	0.028	n/a	NoResponse	-1	n/a	n/a	2	29	Cue	Loss	True
281.979	3.95	Lose2	0.6333	0.0	No	2.822	0.001	n/a	NoResponse	-1	n/a	n/a	2	29	Fixation	Loss	True
285.924	0.15	Lose2	0.6333	0.004	No	2.822	-0.004	4.0	NoResponse	-1	0.183	285.107	2	29	Target	Loss	True
286.074	0.55	Lose2	0.6333	n/a	No	2.822	n/a	n/a	NoResponse	-1	n/a	n/a	2	29	Blank	Loss	True
286.107	0.3	Lose2	0.6333	0.004	No	2.822	-0.004	4.0	NoResponse	-1	0.183	n/a	2	29	ButtonPress	Loss	True
286.626	1.45	Lose2	0.6333	n/a	No	2.822	n/a	5.0	NoResponse	-1	0.03	285.656	2	29	Feedback	Loss	True
288.08	2.822	Lose2	0.6333	n/a	No	2.822	n/a	n/a	NoResponse	-1	0.0	n/a	2	29	ISIslide	Loss	True
290.922	0.25	Win2	0.6129	0.0	No	2.778	0.022	n/a	NoResponse	0	n/a	n/a	2	30	Cue	MissedWin	False
291.173	3.9	Win2	0.6129	0.0	No	2.778	0.001	4.0	NoResponse	0	3.723	293.896	2	30	Fixation	MissedWin	False
294.896	0.3	Win2	0.6129	0.0	No	2.778	0.001	4.0	NoResponse	0	3.723	n/a	2	30	ButtonPress	MissedWin	False
295.068	0.16	Win2	0.6129	0.004	No	2.778	-0.004	4.0	NoResponse	0	0.176	294.244	2	30	Target	MissedWin	False
295.235	0.54	Win2	0.6129	n/a	No	2.778	n/a	n/a	NoResponse	0	n/a	n/a	2	30	Blank	MissedWin	False
295.244	0.3	Win2	0.6129	0.004	No	2.778	-0.004	4.0	NoResponse	0	0.176	n/a	2	30	ButtonPress	MissedWin	False
295.77	1.45	Win2	0.6129	n/a	No	2.778	n/a	5.0	NoResponse	0	0.008	294.778	2	30	Feedback	MissedWin	False
297.225	2.778	Win2	0.6129	n/a	No	2.778	n/a	n/a	NoResponse	0	0.0	n/a	2	30	ISIslide	MissedWin	False
300.016	0.25	Lose2	0.5938	0.0	No	2.834	0.016	n/a	NoResponse	-1	n/a	n/a	1	31	Cue	Loss	True
300.267	4.05	Lose2	0.5938	0.0	No	2.834	0.001	n/a	NoResponse	-1	n/a	n/a	1	31	Fixation	Loss	True
304.312	0.17	Lose2	0.5938	0.004	No	2.834	-0.004	4.0	NoResponse	-1	0.196	303.508	1	31	Target	Loss	True
304.496	0.53	Lose2	0.5938	n/a	No	2.834	n/a	n/a	NoResponse	-1	n/a	n/a	1	31	Blank	Loss	True
304.508	0.3	Lose2	0.5938	0.004	No	2.834	-0.004	4.0	NoResponse	-1	0.196	n/a	1	31	ButtonPress	Loss	True
305.014	1.45	Lose2	0.5938	n/a	No	2.834	n/a	5.0	NoResponse	-1	0.032	304.046	1	31	Feedback	Loss	True
306.469	2.834	Lose2	0.5938	n/a	No	2.834	n/a	n/a	NoResponse	-1	0.0	n/a	1	31	ISIslide	Loss	True
309.327	0.25	Lose2	0.5758	0.0	No	2.623	0.027	n/a	LatePress	-1	n/a	n/a	0	32	Cue	Loss	True
309.578	4.15	Lose2	0.5758	0.0	No	2.623	0.001	n/a	LatePress	-1	n/a	n/a	0	32	Fixation	Loss	True
313.724	0.18	Lose2	0.5758	0.003	No	2.623	-0.003	4.0	LatePress	-1	0.183	312.907	0	32	Target	Loss	True
313.907	0.3	Lose2	0.5758	0.003	No	2.623	-0.003	4.0	LatePress	-1	0.183	n/a	0	32	ButtonPress	Loss	True
313.908	0.52	Lose2	0.5758	n/a	No	2.623	n/a	n/a	LatePress	-1	n/a	n/a	0	32	Blank	Loss	True
314.426	1.45	Lose2	0.5758	n/a	No	2.623	n/a	5.0	LatePress	-1	0.035	313.461	0	32	Feedback	Loss	True
315.88	2.623	Lose2	0.5758	n/a	No	2.623	n/a	n/a	LatePress	-1	0.0	n/a	0	32	ISIslide	Loss	True
318.522	0.25	Win2	0.5588000000000001	0.0	No	2.678	0.022	n/a	NoResponse	0	n/a	n/a	0	33	Cue	MissedWin	True
318.772	4.0	Win2	0.5588000000000001	0.0	No	2.678	0.0	n/a	NoResponse	0	n/a	n/a	0	33	Fixation	MissedWin	True
322.768	0.19	Win2	0.5588000000000001	0.004	No	2.678	-0.004	4.0	NoResponse	0	0.21	321.978	0	33	Target	MissedWin	True
322.968	0.51	Win2	0.5588000000000001	n/a	No	2.678	n/a	n/a	NoResponse	0	n/a	n/a	0	33	Blank	MissedWin	True
322.978	0.3	Win2	0.5588000000000001	0.004	No	2.678	-0.004	4.0	NoResponse	0	0.21	n/a	0	33	ButtonPress	MissedWin	True
323.47	1.45	Win2	0.5588000000000001	n/a	No	2.678	n/a	5.0	NoResponse	0	0.014	322.484	0	33	Feedback	MissedWin	True
324.924	2.678	Win2	0.5588000000000001	n/a	No	2.678	n/a	n/a	NoResponse	0	0.0	n/a	0	33	ISIslide	MissedWin	True
327.615	0.25	Lose2	0.5428999999999999	0.001	No	2.635	0.015	n/a	NoResponse	-1	n/a	n/a	-1	34	Cue	Loss	True
327.866	4.05	Lose2	0.5428999999999999	0.0	No	2.635	0.001	n/a	NoResponse	-1	n/a	n/a	-1	34	Fixation	Loss	True
331.912	0.2	Lose2	0.5428999999999999	0.003	No	2.635	-0.003	4.0	NoResponse	-1	0.231	331.143	-1	34	Target	Loss	True
332.112	0.5	Lose2	0.5428999999999999	n/a	No	2.635	n/a	n/a	NoResponse	-1	n/a	n/a	-1	34	Blank	Loss	True
332.143	0.3	Lose2	0.5428999999999999	0.003	No	2.635	-0.003	4.0	NoResponse	-1	0.231	n/a	-1	34	ButtonPress	Loss	True
332.614	1.45	Lose2	0.5428999999999999	n/a	No	2.635	n/a	5.0	NoResponse	-1	0.041	331.655	-1	34	Feedback	Loss	True
334.068	2.635	Lose2	0.5428999999999999	n/a	No	2.635	n/a	n/a	NoResponse	-1	0.0	n/a	-1	34	ISIslide	Loss	True
336.726	0.25	Lose2	0.5556	0.0	Yes	2.674	0.026	n/a	GoodResponse	0	n/a	n/a	-1	35	Cue	AvoidedLoss	True
336.977	4.0	Lose2	0.5556	0.0	Yes	2.674	0.001	n/a	GoodResponse	0	n/a	n/a	-1	35	Fixation	AvoidedLoss	True
340.972	0.21	Lose2	0.5556	0.004	Yes	2.674	-0.004	4.0	GoodResponse	0	0.196	340.168	-1	35	Target	AvoidedLoss	True
341.168	0.3	Lose2	0.5556	0.004	Yes	2.674	-0.004	4.0	GoodResponse	0	0.196	n/a	-1	35	ButtonPress	AvoidedLoss	True
341.189	0.49	Lose2	0.5556	n/a	Yes	2.674	n/a	n/a	GoodResponse	0	n/a	n/a	-1	35	Blank	AvoidedLoss	True
341.674	1.45	Lose2	0.5556	n/a	Yes	2.674	n/a	5.0	GoodResponse	0	0.008	340.682	-1	35	Feedback	AvoidedLoss	True
343.129	2.674	Lose2	0.5556	n/a	Yes	2.674	n/a	n/a	GoodResponse	0	0.0	n/a	-1	35	ISIslide	AvoidedLoss	True
345.82	0.25	Control	0.5405	0.0	No	2.68	0.02	n/a	LatePress	0	n/a	n/a	-1	36	Cue	Neutral	True
346.071	4.0	Control	0.5405	0.0	No	2.68	0.001	n/a	LatePress	0	n/a	n/a	-1	36	Fixation	Neutral	True
350.066	0.22	Control	0.5405	0.004	No	2.68	-0.004	4.0	LatePress	0	0.233	349.299	-1	36	Target	Neutral	True
350.299	0.3	Control	0.5405	0.004	No	2.68	-0.004	4.0	LatePress	0	0.233	n/a	-1	36	ButtonPress	Neutral	True
350.3	0.48	Control	0.5405	n/a	No	2.68	n/a	n/a	LatePress	0	n/a	n/a	-1	36	Blank	Neutral	True
350.768	1.45	Control	0.5405	n/a	No	2.68	n/a	5.0	LatePress	0	0.034	349.802	-1	36	Feedback	Neutral	True
352.222	2.68	Control	0.5405	n/a	No	2.68	n/a	n/a	LatePress	0	0.0	n/a	-1	36	ISIslide	Neutral	True
354.931	0.25	Win2	0.5263	0.0	No	2.869	0.031	n/a	NoResponse	0	n/a	n/a	-1	37	Cue	MissedWin	False
355.181	4.0	Win2	0.5263	0.0	No	2.869	0.0	4.0	NoResponse	0	3.711	357.892	-1	37	Fixation	MissedWin	False
358.892	0.3	Win2	0.5263	0.0	No	2.869	0.0	4.0	NoResponse	0	3.711	n/a	-1	37	ButtonPress	MissedWin	False
359.177	0.23	Win2	0.5263	0.004	No	2.869	-0.004	4.0	NoResponse	0	0.449	358.626	-1	37	Target	MissedWin	False
359.411	0.47	Win2	0.5263	n/a	No	2.869	n/a	n/a	NoResponse	0	n/a	n/a	-1	37	Blank	MissedWin	False
359.626	0.3	Win2	0.5263	0.004	No	2.869	-0.004	4.0	NoResponse	0	0.449	n/a	-1	37	ButtonPress	MissedWin	False
359.879	1.45	Win2	0.5263	n/a	No	2.869	n/a	5.0	NoResponse	0	0.045	358.924	-1	37	Feedback	MissedWin	False
361.333	2.869	Win2	0.5263	n/a	No	2.869	n/a	n/a	NoResponse	0	0.0	n/a	-1	37	ISIslide	MissedWin	False
364.225	0.25	Lose2	0.5385	0.0	Yes	2.825	0.025	n/a	GoodResponse	0	n/a	n/a	-1	38	Cue	AvoidedLoss	True
364.476	3.95	Lose2	0.5385	0.0	Yes	2.825	0.001	n/a	GoodResponse	0	n/a	n/a	-1	38	Fixation	AvoidedLoss	True
368.421	0.24	Lose2	0.5385	0.004	Yes	2.825	-0.004	4.0	GoodResponse	0	0.215	367.636	-1	38	Target	AvoidedLoss	True
368.636	0.3	Lose2	0.5385	0.004	Yes	2.825	-0.004	4.0	GoodResponse	0	0.215	n/a	-1	38	ButtonPress	AvoidedLoss	True
368.672	0.46	Lose2	0.5385	n/a	Yes	2.825	n/a	n/a	GoodResponse	0	n/a	n/a	-1	38	Blank	AvoidedLoss	True
369.123	1.45	Lose2	0.5385	n/a	Yes	2.825	n/a	5.0	GoodResponse	0	0.02	368.143	-1	38	Feedback	AvoidedLoss	True
370.577	2.825	Lose2	0.5385	n/a	Yes	2.825	n/a	n/a	GoodResponse	0	0.0	n/a	-1	38	ISIslide	AvoidedLoss	True
373.419	0.25	Win2	0.55	0.0	Yes	2.981	0.019	n/a	GoodResponse	1	n/a	n/a	0	39	Cue	Win	True
373.67	4.1	Win2	0.55	0.0	Yes	2.981	0.001	n/a	GoodResponse	1	n/a	n/a	0	39	Fixation	Win	True
377.766	0.25	Win2	0.55	0.003	Yes	2.981	-0.003	4.0	GoodResponse	1	0.236	377.002	0	39	Target	Win	True
378.002	0.3	Win2	0.55	0.003	Yes	2.981	-0.003	4.0	GoodResponse	1	0.236	n/a	0	39	ButtonPress	Win	True
378.016	0.45	Win2	0.55	n/a	Yes	2.981	n/a	n/a	GoodResponse	1	n/a	n/a	0	39	Blank	Win	True
378.468	1.45	Win2	0.55	n/a	Yes	2.981	n/a	5.0	GoodResponse	1	0.04	377.508	0	39	Feedback	Win	True
379.922	2.981	Win2	0.55	n/a	Yes	2.981	n/a	n/a	GoodResponse	1	0.0	n/a	0	39	ISIslide	Win	True
382.931	0.25	Win2	0.561	0.0	Yes	2.719	0.031	n/a	GoodResponse	1	n/a	n/a	1	40	Cue	Win	True
383.182	3.95	Win2	0.561	0.0	Yes	2.719	0.001	n/a	GoodResponse	1	n/a	n/a	1	40	Fixation	Win	True
387.127	0.26	Win2	0.561	0.004	Yes	2.719	-0.004	4.0	GoodResponse	1	0.204	386.331	1	40	Target	Win	True
387.331	0.3	Win2	0.561	0.004	Yes	2.719	-0.004	4.0	GoodResponse	1	0.204	n/a	1	40	ButtonPress	Win	True
387.394	0.44	Win2	0.561	n/a	Yes	2.719	n/a	n/a	GoodResponse	1	n/a	n/a	1	40	Blank	Win	True
387.829	1.45	Win2	0.561	n/a	Yes	2.719	n/a	5.0	GoodResponse	1	0.045	386.874	1	40	Feedback	Win	True
389.283	2.719	Win2	0.561	n/a	Yes	2.719	n/a	n/a	GoodResponse	1	0.0	n/a	1	40	ISIslide	Win	True
392.025	0.25	Win2	0.5714	0.0	Yes	2.775	0.025	n/a	GoodResponse	1	n/a	n/a	2	41	Cue	Win	True
392.276	3.9	Win2	0.5714	0.0	Yes	2.775	0.001	n/a	GoodResponse	1	n/a	n/a	2	41	Fixation	Win	True
396.171	0.27	Win2	0.5714	0.004	Yes	2.775	-0.004	4.0	GoodResponse	1	0.169	395.34	2	41	Target	Win	True
396.34	0.3	Win2	0.5714	0.004	Yes	2.775	-0.004	4.0	GoodResponse	1	0.169	n/a	2	41	ButtonPress	Win	True
396.455	0.43	Win2	0.5714	n/a	Yes	2.775	n/a	n/a	GoodResponse	1	n/a	n/a	2	41	Blank	Win	True
396.873	1.45	Win2	0.5714	n/a	Yes	2.775	n/a	5.0	GoodResponse	1	0.026	395.899	2	41	Feedback	Win	True
398.327	2.775	Win2	0.5714	n/a	Yes	2.775	n/a	n/a	GoodResponse	1	0.0	n/a	2	41	ISIslide	Win	True
401.119	0.25	Control	0.5581	0.0	No	2.931	0.019	n/a	NoResponse	0	n/a	n/a	2	42	Cue	Neutral	False
401.37	3.85	Control	0.5581	0.0	No	2.931	0.001	n/a	NoResponse	0	n/a	n/a	2	42	Fixation	Neutral	False
405.231	0.28	Control	0.5581	0.0	No	2.931	0.012	n/a	NoResponse	0	n/a	n/a	2	42	Target	Neutral	False
405.499	0.42	Control	0.5581	n/a	No	2.931	n/a	n/a	NoResponse	0	n/a	n/a	2	42	Blank	Neutral	False
405.917	1.45	Control	0.5581	n/a	No	2.931	n/a	5.0	NoResponse	0	0.008	404.925	2	42	Feedback	Neutral	False
407.371	2.931	Control	0.5581	n/a	No	2.931	n/a	n/a	NoResponse	0	0.0	n/a	2	42	ISIslide	Neutral	False
410.33	0.25	Win2	0.5682	0.0	Yes	3.17	0.03	n/a	GoodResponse	1	n/a	n/a	3	43	Cue	Win	True
410.58	4.0	Win2	0.5682	0.001	Yes	3.17	0.0	n/a	GoodResponse	1	n/a	n/a	3	43	Fixation	Win	True
414.576	0.29	Win2	0.5682	0.004	Yes	3.17	-0.004	4.0	GoodResponse	1	0.18	413.756	3	43	Target	Win	True
414.756	0.3	Win2	0.5682	0.004	Yes	3.17	-0.004	4.0	GoodResponse	1	0.18	n/a	3	43	ButtonPress	Win	True
414.877	0.41	Win2	0.5682	n/a	Yes	3.17	n/a	n/a	GoodResponse	1	n/a	n/a	3	43	Blank	Win	True
415.278	1.45	Win2	0.5682	n/a	Yes	3.17	n/a	5.0	GoodResponse	1	0.011	414.289	3	43	Feedback	Win	True
416.732	3.17	Win2	0.5682	n/a	Yes	3.17	n/a	n/a	GoodResponse	1	0.0	n/a	3	43	ISIslide	Win	True
419.925	0.25	Win2	0.5778	0.0	Yes	2.975	0.025	n/a	GoodResponse	1	n/a	n/a	4	44	Cue	Win	True
420.176	4.0	Win2	0.5778	0.0	Yes	2.975	0.001	n/a	GoodResponse	1	n/a	n/a	4	44	Fixation	Win	True
424.171	0.3	Win2	0.5778	0.004	Yes	2.975	-0.004	4.0	GoodResponse	1	0.212	423.383	4	44	Target	Win	True
424.383	0.3	Win2	0.5778	0.004	Yes	2.975	-0.004	4.0	GoodResponse	1	0.212	n/a	4	44	ButtonPress	Win	True
424.472	0.4	Win2	0.5778	n/a	Yes	2.975	n/a	n/a	GoodResponse	1	n/a	n/a	4	44	Blank	Win	True
424.873	1.45	Win2	0.5778	n/a	Yes	2.975	n/a	5.0	GoodResponse	1	0.025	423.898	4	44	Feedback	Win	True
426.328	2.975	Win2	0.5778	n/a	Yes	2.975	n/a	n/a	GoodResponse	1	0.0	n/a	4	44	ISIslide	Win	True
429.32	0.25	Control	0.5652	0.0	No	2.88	0.02	n/a	NoResponse	0	n/a	n/a	4	45	Cue	Neutral	False
429.571	4.1	Control	0.5652	0.0	No	2.88	0.001	n/a	NoResponse	0	n/a	n/a	4	45	Fixation	Neutral	False
433.666	0.31	Control	0.5652	0.004	No	2.88	-0.004	n/a	NoResponse	0	n/a	n/a	4	45	Target	Neutral	False
433.984	0.39	Control	0.5652	n/a	No	2.88	n/a	n/a	NoResponse	0	n/a	n/a	4	45	Blank	Neutral	False
434.368	1.45	Control	0.5652	n/a	No	2.88	n/a	5.0	NoResponse	0	0.042	433.41	4	45	Feedback	Neutral	False
435.823	2.88	Control	0.5652	n/a	No	2.88	n/a	n/a	NoResponse	0	0.0	n/a	4	45	ISIslide	Neutral	False
438.715	0.25	Lose2	0.5745	0.0	Yes	3.385	0.015	n/a	GoodResponse	0	n/a	n/a	4	46	Cue	AvoidedLoss	True
438.965	4.0	Lose2	0.5745	0.001	Yes	3.385	0.0	n/a	GoodResponse	0	n/a	n/a	4	46	Fixation	AvoidedLoss	True
442.961	0.32	Lose2	0.5745	0.004	Yes	3.385	-0.004	4.0	GoodResponse	0	0.194	442.155	4	46	Target	AvoidedLoss	True
443.155	0.3	Lose2	0.5745	0.004	Yes	3.385	-0.004	4.0	GoodResponse	0	0.194	n/a	4	46	ButtonPress	AvoidedLoss	True
443.295	0.38	Lose2	0.5745	n/a	Yes	3.385	n/a	n/a	GoodResponse	0	n/a	n/a	4	46	Blank	AvoidedLoss	True
443.663	1.45	Lose2	0.5745	n/a	Yes	3.385	n/a	5.0	GoodResponse	0	0.016	442.679	4	46	Feedback	AvoidedLoss	True
445.117	3.385	Lose2	0.5745	n/a	Yes	3.385	n/a	n/a	GoodResponse	0	0.0	n/a	4	46	ISIslide	AvoidedLoss	True
448.527	0.25	Lose2	0.5832999999999999	0.0	Yes	2.673	0.027	n/a	GoodResponse	0	n/a	n/a	4	47	Cue	AvoidedLoss	True
448.778	4.0	Lose2	0.5832999999999999	0.0	Yes	2.673	0.001	n/a	GoodResponse	0	n/a	n/a	4	47	Fixation	AvoidedLoss	True
452.773	0.33	Lose2	0.5832999999999999	0.004	Yes	2.673	-0.004	4.0	GoodResponse	0	0.157	451.93	4	47	Target	AvoidedLoss	True
452.93	0.3	Lose2	0.5832999999999999	0.004	Yes	2.673	-0.004	4.0	GoodResponse	0	0.157	n/a	4	47	ButtonPress	AvoidedLoss	True
453.108	0.37	Lose2	0.5832999999999999	n/a	Yes	2.673	n/a	n/a	GoodResponse	0	n/a	n/a	4	47	Blank	AvoidedLoss	True
453.476	1.45	Lose2	0.5832999999999999	n/a	Yes	2.673	n/a	5.0	GoodResponse	0	0.008	452.484	4	47	Feedback	AvoidedLoss	True
454.93	2.673	Lose2	0.5832999999999999	n/a	Yes	2.673	n/a	n/a	GoodResponse	0	0.0	n/a	4	47	ISIslide	AvoidedLoss	True
457.621	0.25	Lose2	0.5918	0.0	Yes	3.029	0.021	n/a	GoodResponse	0	n/a	n/a	4	48	Cue	AvoidedLoss	True
457.872	3.95	Lose2	0.5918	0.0	Yes	3.029	0.001	n/a	GoodResponse	0	n/a	n/a	4	48	Fixation	AvoidedLoss	True
461.817	0.34	Lose2	0.5918	0.004	Yes	3.029	-0.004	4.0	GoodResponse	0	0.212	461.029	4	48	Target	AvoidedLoss	True
462.029	0.3	Lose2	0.5918	0.004	Yes	3.029	-0.004	4.0	GoodResponse	0	0.212	n/a	4	48	ButtonPress	AvoidedLoss	True
462.168	0.36	Lose2	0.5918	n/a	Yes	3.029	n/a	n/a	GoodResponse	0	n/a	n/a	4	48	Blank	AvoidedLoss	True
462.519	1.45	Lose2	0.5918	n/a	Yes	3.029	n/a	5.0	GoodResponse	0	0.038	461.557	4	48	Feedback	AvoidedLoss	True
463.974	3.029	Lose2	0.5918	n/a	Yes	3.029	n/a	n/a	GoodResponse	0	0.0	n/a	4	48	ISIslide	AvoidedLoss	True
467.016	0.25	Control	0.58	0.0	No	2.884	0.016	n/a	NoResponse	0	n/a	n/a	4	49	Cue	Neutral	False
467.267	4.0	Control	0.58	0.0	No	2.884	0.001	n/a	NoResponse	0	n/a	n/a	4	49	Fixation	Neutral	False
471.262	0.35	Control	0.58	0.004	No	2.884	-0.004	n/a	NoResponse	0	n/a	n/a	4	49	Target	Neutral	False
471.613	0.35	Control	0.58	n/a	No	2.884	n/a	n/a	NoResponse	0	n/a	n/a	4	49	Blank	Neutral	False
471.964	1.45	Control	0.58	n/a	No	2.884	n/a	5.0	NoResponse	0	0.008	470.972	4	49	Feedback	Neutral	False
473.419	2.884	Control	0.58	n/a	No	2.884	n/a	n/a	NoResponse	0	0.0	n/a	4	49	ISIslide	Neutral	False
476.327	0.25	Control	0.5686	0.0	No	2.773	0.027	n/a	NoResponse	0	n/a	n/a	4	50	Cue	Neutral	False
476.578	4.0	Control	0.5686	0.0	No	2.773	0.001	n/a	NoResponse	0	n/a	n/a	4	50	Fixation	Neutral	False
480.573	0.36	Control	0.5686	0.004	No	2.773	-0.004	n/a	NoResponse	0	n/a	n/a	4	50	Target	Neutral	False
480.941	0.34	Control	0.5686	n/a	No	2.773	n/a	n/a	NoResponse	0	n/a	n/a	4	50	Blank	Neutral	False
481.275	1.45	Control	0.5686	n/a	No	2.773	n/a	5.0	NoResponse	0	0.013	480.288	4	50	Feedback	Neutral	False
482.73	2.773	Control	0.5686	n/a	No	2.773	n/a	n/a	NoResponse	0	0.0	n/a	4	50	ISIslide	Neutral	False
485.521	0.25	Control	0.5577000000000001	0.001	No	2.729	0.021	n/a	NoResponse	0	n/a	n/a	4	51	Cue	Neutral	False
485.772	3.95	Control	0.5577000000000001	0.0	No	2.729	0.001	n/a	NoResponse	0	n/a	n/a	4	51	Fixation	Neutral	False
489.717	0.37	Control	0.5577000000000001	0.004	No	2.729	-0.004	n/a	NoResponse	0	n/a	n/a	4	51	Target	Neutral	False
490.102	0.33	Control	0.5577000000000001	n/a	No	2.729	n/a	n/a	NoResponse	0	n/a	n/a	4	51	Blank	Neutral	False
490.419	1.45	Control	0.5577000000000001	n/a	No	2.729	n/a	5.0	NoResponse	0	0.04	489.459	4	51	Feedback	Neutral	False
491.874	2.729	Control	0.5577000000000001	n/a	No	2.729	n/a	n/a	NoResponse	0	0.0	n/a	4	51	ISIslide	Neutral	False
494.615	0.25	Control	0.5472	0.0	No	2.635	0.015	n/a	NoResponse	0	n/a	n/a	4	52	Cue	Neutral	False
494.866	4.05	Control	0.5472	0.0	No	2.635	0.001	n/a	NoResponse	0	n/a	n/a	4	52	Fixation	Neutral	False
498.912	0.38	Control	0.5472	0.003	No	2.635	-0.003	n/a	NoResponse	0	n/a	n/a	4	52	Target	Neutral	False
499.296	0.32	Control	0.5472	n/a	No	2.635	n/a	n/a	NoResponse	0	n/a	n/a	4	52	Blank	Neutral	False
499.614	1.45	Control	0.5472	n/a	No	2.635	n/a	5.0	NoResponse	0	0.016	498.63	4	52	Feedback	Neutral	False
501.068	2.635	Control	0.5472	n/a	No	2.635	n/a	n/a	NoResponse	0	0.0	n/a	4	52	ISIslide	Neutral	False
503.726	0.25	Win2	0.5556	0.0	Yes	2.924	0.026	n/a	GoodResponse	1	n/a	n/a	5	53	Cue	Win	True
503.977	4.05	Win2	0.5556	0.0	Yes	2.924	0.001	n/a	GoodResponse	1	n/a	n/a	5	53	Fixation	Win	True
508.022	0.39	Win2	0.5556	0.004	Yes	2.924	-0.004	4.0	GoodResponse	1	0.176	507.198	5	53	Target	Win	True
508.198	0.3	Win2	0.5556	0.004	Yes	2.924	-0.004	4.0	GoodResponse	1	0.176	n/a	5	53	ButtonPress	Win	True
508.423	0.31	Win2	0.5556	n/a	Yes	2.924	n/a	n/a	GoodResponse	1	n/a	n/a	5	53	Blank	Win	True
508.724	1.45	Win2	0.5556	n/a	Yes	2.924	n/a	5.0	GoodResponse	1	0.028	507.752	5	53	Feedback	Win	True
510.179	2.924	Win2	0.5556	n/a	Yes	2.924	n/a	n/a	GoodResponse	1	0.0	n/a	5	53	ISIslide	Win	True
513.121	0.25	Win2	0.5636	0.0	Yes	2.729	0.021	n/a	GoodResponse	1	n/a	n/a	6	54	Cue	Win	True
513.372	3.95	Win2	0.5636	0.0	Yes	2.729	0.001	n/a	GoodResponse	1	n/a	n/a	6	54	Fixation	Win	True
517.317	0.4	Win2	0.5636	0.004	Yes	2.729	-0.004	4.0	GoodResponse	1	0.22	516.537	6	54	Target	Win	True
517.537	0.3	Win2	0.5636	0.004	Yes	2.729	-0.004	4.0	GoodResponse	1	0.22	n/a	6	54	ButtonPress	Win	True
517.718	0.3	Win2	0.5636	n/a	Yes	2.729	n/a	n/a	GoodResponse	1	n/a	n/a	6	54	Blank	Win	True
518.019	1.45	Win2	0.5636	n/a	Yes	2.729	n/a	5.0	GoodResponse	1	0.001	517.02	6	54	Feedback	Win	True
519.473	2.729	Win2	0.5636	n/a	Yes	2.729	n/a	n/a	GoodResponse	1	0.0	n/a	6	54	ISIslide	Win	True
522.215	0.25	Control	0.5536	0.0	No	3.035	0.015	n/a	NoResponse	0	n/a	n/a	6	55	Cue	Neutral	False
522.465	3.95	Control	0.5536	0.0	No	3.035	0.0	n/a	NoResponse	0	n/a	n/a	6	55	Fixation	Neutral	False
526.411	0.41	Control	0.5536	0.004	No	3.035	-0.004	n/a	NoResponse	0	n/a	n/a	6	55	Target	Neutral	False
526.828	0.29	Control	0.5536	n/a	No	3.035	n/a	n/a	NoResponse	0	n/a	n/a	6	55	Blank	Neutral	False
527.113	1.45	Control	0.5536	n/a	No	3.035	n/a	5.0	NoResponse	0	0.028	526.141	6	55	Feedback	Neutral	False
528.567	3.035	Control	0.5536	n/a	No	3.035	n/a	n/a	NoResponse	0	0.0	n/a	6	55	ISIslide	Neutral	False
531.626	0.25	Control	0.5439	0.0	No	2.824	0.026	n/a	NoResponse	0	n/a	n/a	6	56	Cue	Neutral	False
531.877	3.95	Control	0.5439	0.0	No	2.824	0.001	n/a	NoResponse	0	n/a	n/a	6	56	Fixation	Neutral	False
535.822	0.42	Control	0.5439	0.004	No	2.824	-0.004	n/a	NoResponse	0	n/a	n/a	6	56	Target	Neutral	False
536.257	0.28	Control	0.5439	n/a	No	2.824	n/a	n/a	NoResponse	0	n/a	n/a	6	56	Blank	Neutral	False
536.524	1.45	Control	0.5439	n/a	No	2.824	n/a	5.0	NoResponse	0	0.032	535.556	6	56	Feedback	Neutral	False
537.979	2.824	Control	0.5439	n/a	No	2.824	n/a	n/a	NoResponse	0	0.0	n/a	6	56	ISIslide	Neutral	False
540.82	0.25	Control	0.5345	0.0	No	3.48	0.02	n/a	NoResponse	0	n/a	n/a	6	57	Cue	Neutral	False
541.071	4.0	Control	0.5345	0.0	No	3.48	0.001	n/a	NoResponse	0	n/a	n/a	6	57	Fixation	Neutral	False
545.066	0.43	Control	0.5345	0.004	No	3.48	-0.004	n/a	NoResponse	0	n/a	n/a	6	57	Target	Neutral	False
545.501	0.27	Control	0.5345	n/a	No	3.48	n/a	n/a	NoResponse	0	n/a	n/a	6	57	Blank	Neutral	False
545.768	1.45	Control	0.5345	n/a	No	3.48	n/a	5.0	NoResponse	0	0.008	544.776	6	57	Feedback	Neutral	False
547.223	3.48	Control	0.5345	n/a	No	3.48	n/a	n/a	NoResponse	0	0.0	n/a	6	57	ISIslide	Neutral	False
550.717	0.25	Win2	0.5424	0.0	Yes	2.733	0.017	n/a	GoodResponse	1	n/a	n/a	7	58	Cue	Win	True
550.967	4.05	Win2	0.5424	0.0	Yes	2.733	0.0	n/a	GoodResponse	1	n/a	n/a	7	58	Fixation	Win	True
555.013	0.44	Win2	0.5424	0.004	Yes	2.733	-0.004	4.0	GoodResponse	1	0.185	554.198	7	58	Target	Win	True
555.198	0.3	Win2	0.5424	0.004	Yes	2.733	-0.004	4.0	GoodResponse	1	0.185	n/a	7	58	ButtonPress	Win	True
555.464	0.26	Win2	0.5424	n/a	Yes	2.733	n/a	n/a	GoodResponse	1	n/a	n/a	7	58	Blank	Win	True
555.715	1.45	Win2	0.5424	n/a	Yes	2.733	n/a	5.0	GoodResponse	1	0.012	554.727	7	58	Feedback	Win	True
557.169	2.733	Win2	0.5424	n/a	Yes	2.733	n/a	n/a	GoodResponse	1	0.0	n/a	7	58	ISIslide	Win	True
559.928	0.25	Lose2	0.55	0.0	Yes	2.672	0.028	n/a	GoodResponse	0	n/a	n/a	7	59	Cue	AvoidedLoss	True
560.178	4.0	Lose2	0.55	0.0	Yes	2.672	0.0	n/a	GoodResponse	0	n/a	n/a	7	59	Fixation	AvoidedLoss	True
564.174	0.45	Lose2	0.55	0.004	Yes	2.672	-0.004	4.0	GoodResponse	0	0.149	563.323	7	59	Target	AvoidedLoss	True
564.323	0.3	Lose2	0.55	0.004	Yes	2.672	-0.004	4.0	GoodResponse	0	0.149	n/a	7	59	ButtonPress	AvoidedLoss	True
564.625	0.25	Lose2	0.55	n/a	Yes	2.672	n/a	n/a	GoodResponse	0	n/a	n/a	7	59	Blank	AvoidedLoss	True
564.876	1.45	Lose2	0.55	n/a	Yes	2.672	n/a	5.0	GoodResponse	0	0.022	563.898	7	59	Feedback	AvoidedLoss	True
566.33	2.672	Lose2	0.55	n/a	Yes	2.672	n/a	n/a	GoodResponse	0	0.0	n/a	7	59	ISIslide	AvoidedLoss	True
569.021	0.25	Control	0.541	0.001	No	2.679	0.021	n/a	NoResponse	0	n/a	n/a	7	60	Cue	Neutral	False
569.272	4.0	Control	0.541	0.0	No	2.679	0.001	n/a	NoResponse	0	n/a	n/a	7	60	Fixation	Neutral	False
573.267	0.46	Control	0.541	0.004	No	2.679	-0.004	n/a	NoResponse	0	n/a	n/a	7	60	Target	Neutral	False
573.736	0.24	Control	0.541	n/a	No	2.679	n/a	n/a	NoResponse	0	n/a	n/a	7	60	Blank	Neutral	False
573.97	1.45	Control	0.541	n/a	No	2.679	n/a	5.0	NoResponse	0	0.0	572.97	7	60	Feedback	Neutral	False
575.424	2.679	Control	0.541	n/a	No	2.679	n/a	n/a	NoResponse	0	0.0	n/a	7	60	ISIslide	Neutral	False
578.115	0.25	Lose2	0.5484	0.0	Yes	2.985	0.015	n/a	GoodResponse	0	n/a	n/a	7	61	Cue	AvoidedLoss	True
578.366	4.0	Lose2	0.5484	0.0	Yes	2.985	0.001	n/a	GoodResponse	0	n/a	n/a	7	61	Fixation	AvoidedLoss	True
582.361	0.47	Lose2	0.5484	0.004	Yes	2.985	-0.004	4.0	GoodResponse	0	0.228	581.589	7	61	Target	AvoidedLoss	True
582.589	0.3	Lose2	0.5484	0.004	Yes	2.985	-0.004	4.0	GoodResponse	0	0.228	n/a	7	61	ButtonPress	AvoidedLoss	True
582.846	0.23	Lose2	0.5484	n/a	Yes	2.985	n/a	n/a	GoodResponse	0	n/a	n/a	7	61	Blank	AvoidedLoss	True
583.063	1.45	Lose2	0.5484	n/a	Yes	2.985	n/a	5.0	GoodResponse	0	0.029	582.092	7	61	Feedback	AvoidedLoss	True
584.518	2.985	Lose2	0.5484	n/a	Yes	2.985	n/a	n/a	GoodResponse	0	0.0	n/a	7	61	ISIslide	AvoidedLoss	True
587.527	0.25	Lose2	0.5556	0.0	Yes	2.873	0.027	n/a	GoodResponse	0	n/a	n/a	7	62	Cue	AvoidedLoss	True
587.778	3.9	Lose2	0.5556	0.0	Yes	2.873	0.001	n/a	GoodResponse	0	n/a	n/a	7	62	Fixation	AvoidedLoss	True
591.673	0.48	Lose2	0.5556	0.004	Yes	2.873	-0.004	4.0	GoodResponse	0	0.192	590.865	7	62	Target	AvoidedLoss	True
591.865	0.3	Lose2	0.5556	0.004	Yes	2.873	-0.004	4.0	GoodResponse	0	0.192	n/a	7	62	ButtonPress	AvoidedLoss	True
592.157	0.22	Lose2	0.5556	n/a	Yes	2.873	n/a	n/a	GoodResponse	0	n/a	n/a	7	62	Blank	AvoidedLoss	True
592.375	1.45	Lose2	0.5556	n/a	Yes	2.873	n/a	5.0	GoodResponse	0	0.034	591.409	7	62	Feedback	AvoidedLoss	True
593.829	2.873	Lose2	0.5556	n/a	Yes	2.873	n/a	n/a	GoodResponse	0	0.0	n/a	7	62	ISIslide	AvoidedLoss	True
596.721	0.25	Lose2	0.5625	0.0	Yes	2.629	0.021	n/a	GoodResponse	0	n/a	n/a	7	63	Cue	AvoidedLoss	True
596.972	4.05	Lose2	0.5625	0.0	Yes	2.629	0.001	n/a	GoodResponse	0	n/a	n/a	7	63	Fixation	AvoidedLoss	True
601.017	0.49	Lose2	0.5625	0.004	Yes	2.629	-0.004	4.0	GoodResponse	0	0.202	600.219	7	63	Target	AvoidedLoss	True
601.219	0.3	Lose2	0.5625	0.004	Yes	2.629	-0.004	4.0	GoodResponse	0	0.202	n/a	7	63	ButtonPress	AvoidedLoss	True
601.519	0.21	Lose2	0.5625	n/a	Yes	2.629	n/a	n/a	GoodResponse	0	n/a	n/a	7	63	Blank	AvoidedLoss	True
601.719	1.45	Lose2	0.5625	n/a	Yes	2.629	n/a	5.0	GoodResponse	0	0.007	600.726	7	63	Feedback	AvoidedLoss	True
603.174	2.629	Lose2	0.5625	n/a	Yes	2.629	n/a	n/a	GoodResponse	0	0.0	n/a	7	63	ISIslide	AvoidedLoss	True
605.832	0.25	Win2	0.5692	0.0	Yes	3.118	0.032	n/a	GoodResponse	1	n/a	n/a	8	64	Cue	Win	True
606.082	4.15	Win2	0.5692	0.0	Yes	3.118	0.0	n/a	GoodResponse	1	n/a	n/a	8	64	Fixation	Win	True
610.228	0.5	Win2	0.5692	0.004	Yes	3.118	-0.004	4.0	GoodResponse	1	0.21	609.438	8	64	Target	Win	True
610.438	0.3	Win2	0.5692	0.004	Yes	3.118	-0.004	4.0	GoodResponse	1	0.21	n/a	8	64	ButtonPress	Win	True
610.73	0.2	Win2	0.5692	n/a	Yes	3.118	n/a	n/a	GoodResponse	1	n/a	n/a	8	64	Blank	Win	True
610.93	1.45	Win2	0.5692	n/a	Yes	3.118	n/a	5.0	GoodResponse	1	0.016	609.946	8	64	Feedback	Win	True
612.385	3.118	Win2	0.5692	n/a	Yes	3.118	n/a	n/a	GoodResponse	1	0.0	n/a	8	64	ISIslide	Win	True
615.527	0.25	Control	0.5606	0.0	No	2.773	0.027	n/a	NoResponse	0	n/a	n/a	8	65	Cue	Neutral	False
615.778	4.0	Control	0.5606	0.0	No	2.773	0.001	n/a	NoResponse	0	n/a	n/a	8	65	Fixation	Neutral	False
619.773	0.5	Control	0.5606	0.004	No	2.773	-0.004	n/a	NoResponse	0	n/a	n/a	8	65	Target	Neutral	False
620.275	0.2	Control	0.5606	n/a	No	2.773	n/a	n/a	NoResponse	0	n/a	n/a	8	65	Blank	Neutral	False
620.475	1.45	Control	0.5606	n/a	No	2.773	n/a	5.0	NoResponse	0	0.032	619.507	8	65	Feedback	Neutral	False
621.93	2.773	Control	0.5606	n/a	No	2.773	n/a	n/a	NoResponse	0	0.0	n/a	8	65	ISIslide	Neutral	False
624.721	0.25	Win2	0.5672	0.001	Yes	2.779	0.021	n/a	GoodResponse	1	n/a	n/a	9	66	Cue	Win	True
624.972	3.9	Win2	0.5672	0.0	Yes	2.779	0.001	n/a	GoodResponse	1	n/a	n/a	9	66	Fixation	Win	True
628.867	0.5	Win2	0.5672	0.004	Yes	2.779	-0.004	4.0	GoodResponse	1	0.21	628.077	9	66	Target	Win	True
629.077	0.3	Win2	0.5672	0.004	Yes	2.779	-0.004	4.0	GoodResponse	1	0.21	n/a	9	66	ButtonPress	Win	True
629.369	0.2	Win2	0.5672	n/a	Yes	2.779	n/a	n/a	GoodResponse	1	n/a	n/a	9	66	Blank	Win	True
629.569	1.45	Win2	0.5672	n/a	Yes	2.779	n/a	5.0	GoodResponse	1	0.01	628.579	9	66	Feedback	Win	True
631.024	2.779	Win2	0.5672	n/a	Yes	2.779	n/a	n/a	GoodResponse	1	0.0	n/a	9	66	ISIslide	Win	True
633.815	0.25	Control	0.5588000000000001	0.0	No	2.735	0.015	n/a	NoResponse	0	n/a	n/a	9	67	Cue	Neutral	False
634.066	3.95	Control	0.5588000000000001	0.0	No	2.735	0.001	n/a	NoResponse	0	n/a	n/a	9	67	Fixation	Neutral	False
638.011	0.5	Control	0.5588000000000001	0.004	No	2.735	-0.004	n/a	NoResponse	0	n/a	n/a	9	67	Target	Neutral	False
638.513	0.2	Control	0.5588000000000001	n/a	No	2.735	n/a	n/a	NoResponse	0	n/a	n/a	9	67	Blank	Neutral	False
638.713	1.45	Control	0.5588000000000001	n/a	No	2.735	n/a	5.0	NoResponse	0	0.037	637.75	9	67	Feedback	Neutral	False
640.168	2.735	Control	0.5588000000000001	n/a	No	2.735	n/a	n/a	NoResponse	0	0.0	n/a	9	67	ISIslide	Neutral	False
642.926	0.25	Win2	0.5652	0.0	Yes	3.074	0.026	n/a	GoodResponse	1	n/a	n/a	10	68	Cue	Win	True
643.177	4.0	Win2	0.5652	0.0	Yes	3.074	0.001	n/a	GoodResponse	1	n/a	n/a	10	68	Fixation	Win	True
647.172	0.5	Win2	0.5652	0.004	Yes	3.074	-0.004	4.0	GoodResponse	1	0.196	646.368	10	68	Target	Win	True
647.368	0.3	Win2	0.5652	0.004	Yes	3.074	-0.004	4.0	GoodResponse	1	0.196	n/a	10	68	ButtonPress	Win	True
647.674	0.2	Win2	0.5652	n/a	Yes	3.074	n/a	n/a	GoodResponse	1	n/a	n/a	10	68	Blank	Win	True
647.874	1.45	Win2	0.5652	n/a	Yes	3.074	n/a	5.0	GoodResponse	1	0.047	646.921	10	68	Feedback	Win	True
649.328	3.074	Win2	0.5652	n/a	Yes	3.074	n/a	n/a	GoodResponse	1	0.0	n/a	10	68	ISIslide	Win	True
652.421	0.25	Win2	0.5714	0.0	Yes	3.229	0.021	n/a	GoodResponse	1	n/a	n/a	11	69	Cue	Win	True
652.672	3.95	Win2	0.5714	0.0	Yes	3.229	0.001	n/a	GoodResponse	1	n/a	n/a	11	69	Fixation	Win	True
656.617	0.5	Win2	0.5714	0.004	Yes	3.229	-0.004	4.0	GoodResponse	1	0.224	655.841	11	69	Target	Win	True
656.841	0.3	Win2	0.5714	0.004	Yes	3.229	-0.004	4.0	GoodResponse	1	0.224	n/a	11	69	ButtonPress	Win	True
657.118	0.2	Win2	0.5714	n/a	Yes	3.229	n/a	n/a	GoodResponse	1	n/a	n/a	11	69	Blank	Win	True
657.319	1.45	Win2	0.5714	n/a	Yes	3.229	n/a	5.0	GoodResponse	1	0.017	656.336	11	69	Feedback	Win	True
658.773	3.229	Win2	0.5714	n/a	Yes	3.229	n/a	n/a	GoodResponse	1	0.0	n/a	11	69	ISIslide	Win	True
662.016	0.25	Lose2	0.5775	0.001	Yes	3.034	0.016	n/a	GoodResponse	0	n/a	n/a	11	70	Cue	AvoidedLoss	True
662.267	4.05	Lose2	0.5775	0.0	Yes	3.034	0.001	n/a	GoodResponse	0	n/a	n/a	11	70	Fixation	AvoidedLoss	True
666.313	0.5	Lose2	0.5775	0.003	Yes	3.034	-0.003	4.0	GoodResponse	0	0.214	665.527	11	70	Target	AvoidedLoss	True
666.527	0.3	Lose2	0.5775	0.003	Yes	3.034	-0.003	4.0	GoodResponse	0	0.214	n/a	11	70	ButtonPress	AvoidedLoss	True
666.814	0.2	Lose2	0.5775	n/a	Yes	3.034	n/a	n/a	GoodResponse	0	n/a	n/a	11	70	Blank	AvoidedLoss	True
667.015	1.45	Lose2	0.5775	n/a	Yes	3.034	n/a	5.0	GoodResponse	0	0.028	666.043	11	70	Feedback	AvoidedLoss	True
668.469	3.034	Lose2	0.5775	n/a	Yes	3.034	n/a	n/a	GoodResponse	0	0.0	n/a	11	70	ISIslide	AvoidedLoss	True
671.528	0.25	Win2	0.5832999999999999	0.0	Yes	2.722	0.028	n/a	GoodResponse	1	n/a	n/a	12	71	Cue	Win	True
671.779	4.05	Win2	0.5832999999999999	0.0	Yes	2.722	0.001	n/a	GoodResponse	1	n/a	n/a	12	71	Fixation	Win	True
675.824	0.5	Win2	0.5832999999999999	0.004	Yes	2.722	-0.004	4.0	GoodResponse	1	0.191	675.015	12	71	Target	Win	True
676.015	0.3	Win2	0.5832999999999999	0.004	Yes	2.722	-0.004	4.0	GoodResponse	1	0.191	n/a	12	71	ButtonPress	Win	True
676.326	0.2	Win2	0.5832999999999999	n/a	Yes	2.722	n/a	n/a	GoodResponse	1	n/a	n/a	12	71	Blank	Win	True
676.527	1.45	Win2	0.5832999999999999	n/a	Yes	2.722	n/a	5.0	GoodResponse	1	0.028	675.555	12	71	Feedback	Win	True
677.981	2.722	Win2	0.5832999999999999	n/a	Yes	2.722	n/a	n/a	GoodResponse	1	0.0	n/a	12	71	ISIslide	Win	True
680.722	0.25	Win2	0.5753	0.001	No	2.778	0.022	n/a	NoResponse	0	n/a	n/a	12	72	Cue	MissedWin	False
680.973	4.1	Win2	0.5753	0.0	No	2.778	0.001	4.0	NoResponse	0	4.043	684.016	12	72	Fixation	MissedWin	False
685.016	0.3	Win2	0.5753	0.0	No	2.778	0.001	4.0	NoResponse	0	4.043	n/a	12	72	ButtonPress	MissedWin	False
685.069	0.5	Win2	0.5753	0.003	No	2.778	-0.003	4.0	NoResponse	0	0.592	684.661	12	72	Target	MissedWin	False
685.57	0.2	Win2	0.5753	n/a	No	2.778	n/a	n/a	NoResponse	0	n/a	n/a	12	72	Blank	MissedWin	False
685.661	0.3	Win2	0.5753	0.003	No	2.778	-0.003	4.0	NoResponse	0	0.592	n/a	12	72	ButtonPress	MissedWin	False
685.771	1.45	Win2	0.5753	n/a	No	2.778	n/a	5.0	NoResponse	0	0.007	684.778	12	72	Feedback	MissedWin	False
687.225	2.778	Win2	0.5753	n/a	No	2.778	n/a	n/a	NoResponse	0	0.0	n/a	12	72	ISIslide	MissedWin	False
690.017	0.25	Win2	0.5811	0.0	Yes	2.683	0.017	n/a	GoodResponse	1	n/a	n/a	13	73	Cue	Win	True
690.268	4.0	Win2	0.5811	0.0	Yes	2.683	0.001	n/a	GoodResponse	1	n/a	n/a	13	73	Fixation	Win	True
694.263	0.5	Win2	0.5811	0.004	Yes	2.683	-0.004	4.0	GoodResponse	1	0.244	693.507	13	73	Target	Win	True
694.507	0.3	Win2	0.5811	0.004	Yes	2.683	-0.004	4.0	GoodResponse	1	0.244	n/a	13	73	ButtonPress	Win	True
694.764	0.2	Win2	0.5811	n/a	Yes	2.683	n/a	n/a	GoodResponse	1	n/a	n/a	13	73	Blank	Win	True
694.965	1.45	Win2	0.5811	n/a	Yes	2.683	n/a	5.0	GoodResponse	1	0.029	693.994	13	73	Feedback	Win	True
696.419	2.683	Win2	0.5811	n/a	Yes	2.683	n/a	n/a	GoodResponse	1	0.0	n/a	13	73	ISIslide	Win	True
699.128	0.25	Lose2	0.5867	0.0	Yes	2.622	0.028	n/a	GoodResponse	0	n/a	n/a	13	74	Cue	AvoidedLoss	True
699.378	4.05	Lose2	0.5867	0.0	Yes	2.622	0.0	n/a	GoodResponse	0	n/a	n/a	13	74	Fixation	AvoidedLoss	True
703.424	0.5	Lose2	0.5867	0.004	Yes	2.622	-0.004	4.0	GoodResponse	0	0.195	702.619	13	74	Target	AvoidedLoss	True
703.619	0.3	Lose2	0.5867	0.004	Yes	2.622	-0.004	4.0	GoodResponse	0	0.195	n/a	13	74	ButtonPress	AvoidedLoss	True
703.925	0.2	Lose2	0.5867	n/a	Yes	2.622	n/a	n/a	GoodResponse	0	n/a	n/a	13	74	Blank	AvoidedLoss	True
704.126	1.45	Lose2	0.5867	n/a	Yes	2.622	n/a	5.0	GoodResponse	0	0.039	703.165	13	74	Feedback	AvoidedLoss	True
705.58	2.622	Lose2	0.5867	n/a	Yes	2.622	n/a	n/a	GoodResponse	0	0.0	n/a	13	74	ISIslide	AvoidedLoss	True
708.221	0.25	Lose2	0.5921	0.001	Yes	2.929	0.021	n/a	GoodResponse	0	n/a	n/a	13	75	Cue	AvoidedLoss	True
708.472	3.95	Lose2	0.5921	0.0	Yes	2.929	0.001	n/a	GoodResponse	0	n/a	n/a	13	75	Fixation	AvoidedLoss	True
712.417	0.5	Lose2	0.5921	0.004	Yes	2.929	-0.004	4.0	GoodResponse	0	0.195	711.612	13	75	Target	AvoidedLoss	True
712.612	0.3	Lose2	0.5921	0.004	Yes	2.929	-0.004	4.0	GoodResponse	0	0.195	n/a	13	75	ButtonPress	AvoidedLoss	True
712.919	0.2	Lose2	0.5921	n/a	Yes	2.929	n/a	n/a	GoodResponse	0	n/a	n/a	13	75	Blank	AvoidedLoss	True
713.119	1.45	Lose2	0.5921	n/a	Yes	2.929	n/a	5.0	GoodResponse	0	0.021	712.14	13	75	Feedback	AvoidedLoss	True
714.574	2.929	Lose2	0.5921	n/a	Yes	2.929	n/a	n/a	GoodResponse	0	0.0	n/a	13	75	ISIslide	AvoidedLoss	True
717.516	0.25	Control	0.5844	0.0	No	3.234	0.016	n/a	NoResponse	0	n/a	n/a	13	76	Cue	Neutral	False
717.767	4.05	Control	0.5844	0.0	No	3.234	0.001	n/a	NoResponse	0	n/a	n/a	13	76	Fixation	Neutral	False
721.812	0.5	Control	0.5844	0.004	No	3.234	-0.004	n/a	NoResponse	0	n/a	n/a	13	76	Target	Neutral	False
722.314	0.2	Control	0.5844	n/a	No	3.234	n/a	n/a	NoResponse	0	n/a	n/a	13	76	Blank	Neutral	False
722.514	1.45	Control	0.5844	n/a	No	3.234	n/a	5.0	NoResponse	0	0.04	721.554	13	76	Feedback	Neutral	False
723.969	3.234	Control	0.5844	n/a	No	3.234	n/a	n/a	NoResponse	0	0.0	n/a	13	76	ISIslide	Neutral	False
727.228	0.25	Lose2	0.5897	0.0	Yes	2.572	0.028	n/a	GoodResponse	0	n/a	n/a	13	77	Cue	AvoidedLoss	True
727.479	3.95	Lose2	0.5897	0.0	Yes	2.572	0.001	n/a	GoodResponse	0	n/a	n/a	13	77	Fixation	AvoidedLoss	True
731.424	0.5	Lose2	0.5897	0.004	Yes	2.572	-0.004	4.0	GoodResponse	0	0.218	730.642	13	77	Target	AvoidedLoss	True
731.642	0.3	Lose2	0.5897	0.004	Yes	2.572	-0.004	4.0	GoodResponse	0	0.218	n/a	13	77	ButtonPress	AvoidedLoss	True
731.926	0.2	Lose2	0.5897	n/a	Yes	2.572	n/a	n/a	GoodResponse	0	n/a	n/a	13	77	Blank	AvoidedLoss	True
732.126	1.45	Lose2	0.5897	n/a	Yes	2.572	n/a	5.0	GoodResponse	0	0.038	731.164	13	77	Feedback	AvoidedLoss	True
733.581	2.572	Lose2	0.5897	n/a	Yes	2.572	n/a	n/a	GoodResponse	0	0.0	n/a	13	77	ISIslide	AvoidedLoss	True
