onset	duration	cue_type	current_mean_accuracy	duration_error	is_hit	isi_adjusted	onset_delay	response	response_type	reward	rt	rt_time	total_reward	trial_number	trial_phase	trial_type	one_press
11.103	0.25	Control	1.0	0.0	Yes	2.947	0.003	n/a	GoodResponse	0	n/a	n/a	0	0	Cue	Neutral	True
11.354	3.85	Control	1.0	0.0	Yes	2.947	0.001	n/a	GoodResponse	0	n/a	n/a	0	0	Fixation	Neutral	True
15.215	0.4	Control	1.0	0.0	Yes	2.947	0.012	4.0	GoodResponse	0	0.286	14.501	0	0	Target	Neutral	True
15.501	0.3	Control	1.0	0.0	Yes	2.947	0.012	4.0	GoodResponse	0	0.286	n/a	0	0	ButtonPress	Neutral	True
15.6	0.3	Control	1.0	n/a	Yes	2.947	n/a	n/a	GoodResponse	0	n/a	n/a	0	0	Blank	Neutral	True
15.9	1.45	Control	1.0	n/a	Yes	2.947	n/a	5.0	GoodResponse	0	0.026	14.926	0	0	Feedback	Neutral	True
17.355	2.947	Control	1.0	n/a	Yes	2.947	n/a	n/a	GoodResponse	0	0.0	n/a	0	0	ISIslide	Neutral	True
20.33	0.25	Lose2	1.0	0.0	Yes	2.77	0.03	n/a	GoodResponse	0	n/a	n/a	0	1	Cue	AvoidedLoss	True
20.581	4.0	Lose2	1.0	0.0	Yes	2.77	0.001	n/a	GoodResponse	0	n/a	n/a	0	1	Fixation	AvoidedLoss	True
24.576	0.39	Lose2	1.0	0.004	Yes	2.77	-0.004	4.0	GoodResponse	0	0.292	23.868	0	1	Target	AvoidedLoss	True
24.868	0.3	Lose2	1.0	0.004	Yes	2.77	-0.004	4.0	GoodResponse	0	0.292	n/a	0	1	ButtonPress	AvoidedLoss	True
24.978	0.31	Lose2	1.0	n/a	Yes	2.77	n/a	n/a	GoodResponse	0	n/a	n/a	0	1	Blank	AvoidedLoss	True
25.278	1.45	Lose2	1.0	n/a	Yes	2.77	n/a	5.0	GoodResponse	0	0.014	24.292	0	1	Feedback	AvoidedLoss	True
26.733	2.77	Lose2	1.0	n/a	Yes	2.77	n/a	n/a	GoodResponse	0	0.0	n/a	0	1	ISIslide	AvoidedLoss	True
29.524	0.25	Control	1.0	0.001	Yes	2.576	0.024	n/a	GoodResponse	0	n/a	n/a	0	2	Cue	Neutral	True
29.775	4.1	Control	1.0	0.0	Yes	2.576	0.001	n/a	GoodResponse	0	n/a	n/a	0	2	Fixation	Neutral	True
33.871	0.38	Control	1.0	0.003	Yes	2.576	-0.003	4.0	GoodResponse	0	0.324	33.195	0	2	Target	Neutral	True
34.195	0.3	Control	1.0	0.003	Yes	2.576	-0.003	4.0	GoodResponse	0	0.324	n/a	0	2	ButtonPress	Neutral	True
34.255	0.32	Control	1.0	n/a	Yes	2.576	n/a	n/a	GoodResponse	0	n/a	n/a	0	2	Blank	Neutral	True
34.573	1.45	Control	1.0	n/a	Yes	2.576	n/a	5.0	GoodResponse	0	0.036	33.609	0	2	Feedback	Neutral	True
36.027	2.576	Control	1.0	n/a	Yes	2.576	n/a	n/a	GoodResponse	0	0.0	n/a	0	2	ISIslide	Neutral	True
38.618	0.25	Win2	1.0	0.0	Yes	2.832	0.018	n/a	GoodResponse	1	n/a	n/a	1	3	Cue	Win	True
38.869	3.95	Win2	1.0	0.0	Yes	2.832	0.001	n/a	GoodResponse	1	n/a	n/a	1	3	Fixation	Win	True
42.814	0.37	Win2	1.0	0.004	Yes	2.832	-0.004	4.0	GoodResponse	1	0.228	42.042	1	3	Target	Win	True
43.042	0.3	Win2	1.0	0.004	Yes	2.832	-0.004	4.0	GoodResponse	1	0.228	n/a	1	3	ButtonPress	Win	True
43.199	0.33	Win2	1.0	n/a	Yes	2.832	n/a	n/a	GoodResponse	1	n/a	n/a	1	3	Blank	Win	True
43.516	1.45	Win2	1.0	n/a	Yes	2.832	n/a	5.0	GoodResponse	1	0.019	42.535	1	3	Feedback	Win	True
44.971	2.832	Win2	1.0	n/a	Yes	2.832	n/a	n/a	GoodResponse	1	0.0	n/a	1	3	ISIslide	Win	True
47.829	0.25	Win2	1.0	0.0	Yes	3.271	0.029	n/a	GoodResponse	1	n/a	n/a	2	4	Cue	Win	True
48.08	4.0	Win2	1.0	0.0	Yes	3.271	0.001	n/a	GoodResponse	1	n/a	n/a	2	4	Fixation	Win	True
52.075	0.36	Win2	1.0	0.004	Yes	3.271	-0.004	4.0	GoodResponse	1	0.203	51.278	2	4	Target	Win	True
52.278	0.3	Win2	1.0	0.004	Yes	3.271	-0.004	4.0	GoodResponse	1	0.203	n/a	2	4	ButtonPress	Win	True
52.443	0.34	Win2	1.0	n/a	Yes	3.271	n/a	n/a	GoodResponse	1	n/a	n/a	2	4	Blank	Win	True
52.777	1.45	Win2	1.0	n/a	Yes	3.271	n/a	5.0	GoodResponse	1	0.026	51.803	2	4	Feedback	Win	True
54.232	3.271	Win2	1.0	n/a	Yes	3.271	n/a	n/a	GoodResponse	1	0.0	n/a	2	4	ISIslide	Win	True
57.525	0.25	Win2	1.0	0.0	Yes	2.775	0.025	n/a	GoodResponse	1	n/a	n/a	3	5	Cue	Win	True
57.775	4.0	Win2	1.0	0.0	Yes	2.775	0.0	n/a	GoodResponse	1	n/a	n/a	3	5	Fixation	Win	True
61.771	0.35	Win2	1.0	0.004	Yes	2.775	-0.004	4.0	GoodResponse	1	0.286	61.057	3	5	Target	Win	True
62.057	0.3	Win2	1.0	0.004	Yes	2.775	-0.004	4.0	GoodResponse	1	0.286	n/a	3	5	ButtonPress	Win	True
62.122	0.35	Win2	1.0	n/a	Yes	2.775	n/a	n/a	GoodResponse	1	n/a	n/a	3	5	Blank	Win	True
62.473	1.45	Win2	1.0	n/a	Yes	2.775	n/a	5.0	GoodResponse	1	0.038	61.511	3	5	Feedback	Win	True
63.927	2.775	Win2	1.0	n/a	Yes	2.775	n/a	n/a	GoodResponse	1	0.0	n/a	3	5	ISIslide	Win	True
66.719	0.25	Lose2	1.0	0.0	Yes	2.731	0.019	n/a	GoodResponse	0	n/a	n/a	3	6	Cue	AvoidedLoss	True
66.969	3.95	Lose2	1.0	0.001	Yes	2.731	0.0	n/a	GoodResponse	0	n/a	n/a	3	6	Fixation	AvoidedLoss	True
70.915	0.34	Lose2	1.0	0.004	Yes	2.731	-0.004	4.0	GoodResponse	0	0.228	70.143	3	6	Target	AvoidedLoss	True
71.143	0.3	Lose2	1.0	0.004	Yes	2.731	-0.004	4.0	GoodResponse	0	0.228	n/a	3	6	ButtonPress	AvoidedLoss	True
71.266	0.36	Lose2	1.0	n/a	Yes	2.731	n/a	n/a	GoodResponse	0	n/a	n/a	3	6	Blank	AvoidedLoss	True
71.617	1.45	Lose2	1.0	n/a	Yes	2.731	n/a	5.0	GoodResponse	0	0.016	70.633	3	6	Feedback	AvoidedLoss	True
73.071	2.731	Lose2	1.0	n/a	Yes	2.731	n/a	n/a	GoodResponse	0	0.0	n/a	3	6	ISIslide	AvoidedLoss	True
75.829	0.25	Lose2	1.0	0.0	Yes	4.021	0.029	n/a	GoodResponse	0	n/a	n/a	3	7	Cue	AvoidedLoss	True
76.08	4.05	Lose2	1.0	0.0	Yes	4.021	0.001	n/a	GoodResponse	0	n/a	n/a	3	7	Fixation	AvoidedLoss	True
80.125	0.33	Lose2	1.0	0.004	Yes	4.021	-0.004	4.0	GoodResponse	0	0.204	79.329	3	7	Target	AvoidedLoss	True
80.329	0.3	Lose2	1.0	0.004	Yes	4.021	-0.004	4.0	GoodResponse	0	0.204	n/a	3	7	ButtonPress	AvoidedLoss	True
80.46	0.37	Lose2	1.0	n/a	Yes	4.021	n/a	n/a	GoodResponse	0	n/a	n/a	3	7	Blank	AvoidedLoss	True
80.828	1.45	Lose2	1.0	n/a	Yes	4.021	n/a	5.0	GoodResponse	0	0.024	79.852	3	7	Feedback	AvoidedLoss	True
82.282	4.021	Lose2	1.0	n/a	Yes	4.021	n/a	n/a	GoodResponse	0	0.0	n/a	3	7	ISIslide	AvoidedLoss	True
86.327	0.25	Lose2	1.0	0.0	Yes	3.023	0.027	n/a	GoodResponse	0	n/a	n/a	3	8	Cue	AvoidedLoss	True
86.578	3.95	Lose2	1.0	0.0	Yes	3.023	0.001	n/a	GoodResponse	0	n/a	n/a	3	8	Fixation	AvoidedLoss	True
90.523	0.32	Lose2	1.0	0.004	Yes	3.023	-0.004	4.0	GoodResponse	0	0.182	89.705	3	8	Target	AvoidedLoss	True
90.705	0.3	Lose2	1.0	0.004	Yes	3.023	-0.004	4.0	GoodResponse	0	0.182	n/a	3	8	ButtonPress	AvoidedLoss	True
90.857	0.38	Lose2	1.0	n/a	Yes	3.023	n/a	n/a	GoodResponse	0	n/a	n/a	3	8	Blank	AvoidedLoss	True
91.225	1.45	Lose2	1.0	n/a	Yes	3.023	n/a	5.0	GoodResponse	0	0.017	90.242	3	8	Feedback	AvoidedLoss	True
92.68	3.023	Lose2	1.0	n/a	Yes	3.023	n/a	n/a	GoodResponse	0	0.0	n/a	3	8	ISIslide	AvoidedLoss	True
95.722	0.25	Lose2	1.0	0.0	Yes	3.128	0.022	n/a	GoodResponse	0	n/a	n/a	3	9	Cue	AvoidedLoss	True
95.973	3.95	Lose2	1.0	0.0	Yes	3.128	0.001	n/a	GoodResponse	0	n/a	n/a	3	9	Fixation	AvoidedLoss	True
99.918	0.31	Lose2	1.0	0.004	Yes	3.128	-0.004	4.0	GoodResponse	0	0.233	99.151	3	9	Target	AvoidedLoss	True
100.151	0.3	Lose2	1.0	0.004	Yes	3.128	-0.004	4.0	GoodResponse	0	0.233	n/a	3	9	ButtonPress	AvoidedLoss	True
100.235	0.39	Lose2	1.0	n/a	Yes	3.128	n/a	n/a	GoodResponse	0	n/a	n/a	3	9	Blank	AvoidedLoss	True
100.62	1.45	Lose2	1.0	n/a	Yes	3.128	n/a	5.0	GoodResponse	0	0.037	99.657	3	9	Feedback	AvoidedLoss	True
102.074	3.128	Lose2	1.0	n/a	Yes	3.128	n/a	n/a	GoodResponse	0	0.0	n/a	3	9	ISIslide	AvoidedLoss	True
105.217	0.25	Control	1.0	0.0	Yes	3.283	0.017	n/a	GoodResponse	0	n/a	n/a	3	10	Cue	Neutral	True
105.468	4.0	Control	1.0	0.0	Yes	3.283	0.001	n/a	GoodResponse	0	n/a	n/a	3	10	Fixation	Neutral	True
109.463	0.3	Control	1.0	0.004	Yes	3.283	-0.004	4.0	GoodResponse	0	0.252	108.715	3	10	Target	Neutral	True
109.715	0.3	Control	1.0	0.004	Yes	3.283	-0.004	4.0	GoodResponse	0	0.252	n/a	3	10	ButtonPress	Neutral	True
109.764	0.4	Control	1.0	n/a	Yes	3.283	n/a	n/a	GoodResponse	0	n/a	n/a	3	10	Blank	Neutral	True
110.165	1.45	Control	1.0	n/a	Yes	3.283	n/a	5.0	GoodResponse	0	0.006	109.171	3	10	Feedback	Neutral	True
111.619	3.283	Control	1.0	n/a	Yes	3.283	n/a	n/a	GoodResponse	0	0.0	n/a	3	10	ISIslide	Neutral	True
114.929	0.25	Lose2	1.0	0.0	Yes	2.721	0.029	n/a	GoodResponse	0	n/a	n/a	3	11	Cue	AvoidedLoss	True
115.18	4.05	Lose2	1.0	0.0	Yes	2.721	0.001	n/a	GoodResponse	0	n/a	n/a	3	11	Fixation	AvoidedLoss	True
119.225	0.29	Lose2	1.0	0.004	Yes	2.721	-0.004	4.0	GoodResponse	0	0.245	118.47	3	11	Target	AvoidedLoss	True
119.47	0.3	Lose2	1.0	0.004	Yes	2.721	-0.004	4.0	GoodResponse	0	0.245	n/a	3	11	ButtonPress	AvoidedLoss	True
119.526	0.41	Lose2	1.0	n/a	Yes	2.721	n/a	n/a	GoodResponse	0	n/a	n/a	3	11	Blank	AvoidedLoss	True
119.927	1.45	Lose2	1.0	n/a	Yes	2.721	n/a	5.0	GoodResponse	0	0.046	118.973	3	11	Feedback	AvoidedLoss	True
121.382	2.721	Lose2	1.0	n/a	Yes	2.721	n/a	n/a	GoodResponse	0	0.0	n/a	3	11	ISIslide	AvoidedLoss	True
124.123	0.25	Control	0.9231	0.0	No	2.977	0.023	n/a	NoResponse	0	n/a	n/a	3	12	Cue	Neutral	True
124.374	3.9	Control	0.9231	0.0	No	2.977	0.001	n/a	NoResponse	0	n/a	n/a	3	12	Fixation	Neutral	True
128.269	0.28	Control	0.9231	0.004	No	2.977	-0.004	4.0	NoResponse	0	0.293	127.562	3	12	Target	Neutral	True
128.553	0.42	Control	0.9231	n/a	No	2.977	n/a	n/a	NoResponse	0	n/a	n/a	3	12	Blank	Neutral	True
128.562	0.3	Control	0.9231	0.004	No	2.977	-0.004	4.0	NoResponse	0	0.293	n/a	3	12	ButtonPress	Neutral	True
128.971	1.45	Control	0.9231	n/a	No	2.977	n/a	5.0	NoResponse	0	0.026	127.997	3	12	Feedback	Neutral	True
130.425	2.977	Control	0.9231	n/a	No	2.977	n/a	n/a	NoResponse	0	0.0	n/a	3	12	ISIslide	Neutral	True
133.418	0.25	Control	0.8571	0.0	No	2.782	0.018	n/a	NoResponse	0	n/a	n/a	3	13	Cue	Neutral	True
133.668	4.0	Control	0.8571	0.001	No	2.782	0.0	n/a	NoResponse	0	n/a	n/a	3	13	Fixation	Neutral	True
137.664	0.27	Control	0.8571	0.004	No	2.782	-0.004	4.0	NoResponse	0	0.311	136.975	3	13	Target	Neutral	True
137.948	0.43	Control	0.8571	n/a	No	2.782	n/a	n/a	NoResponse	0	n/a	n/a	3	13	Blank	Neutral	True
137.975	0.3	Control	0.8571	0.004	No	2.782	-0.004	4.0	NoResponse	0	0.311	n/a	3	13	ButtonPress	Neutral	True
138.366	1.45	Control	0.8571	n/a	No	2.782	n/a	5.0	NoResponse	0	0.045	137.411	3	13	Feedback	Neutral	True
139.82	2.782	Control	0.8571	n/a	No	2.782	n/a	n/a	NoResponse	0	0.0	n/a	3	13	ISIslide	Neutral	True
142.629	0.25	Win2	0.8667	0.0	Yes	2.671	0.029	n/a	GoodResponse	1	n/a	n/a	4	14	Cue	Win	True
142.879	4.1	Win2	0.8667	0.0	Yes	2.671	0.0	n/a	GoodResponse	1	n/a	n/a	4	14	Fixation	Win	True
146.975	0.26	Win2	0.8667	0.004	Yes	2.671	-0.004	4.0	GoodResponse	1	0.209	146.184	4	14	Target	Win	True
147.184	0.3	Win2	0.8667	0.004	Yes	2.671	-0.004	4.0	GoodResponse	1	0.209	n/a	4	14	ButtonPress	Win	True
147.242	0.44	Win2	0.8667	n/a	Yes	2.671	n/a	n/a	GoodResponse	1	n/a	n/a	4	14	Blank	Win	True
147.677	1.45	Win2	0.8667	n/a	Yes	2.671	n/a	5.0	GoodResponse	1	0.004	146.681	4	14	Feedback	Win	True
149.131	2.671	Win2	0.8667	n/a	Yes	2.671	n/a	n/a	GoodResponse	1	0.0	n/a	4	14	ISIslide	Win	True
151.823	0.25	Control	0.875	0.0	Yes	2.977	0.023	n/a	GoodResponse	0	n/a	n/a	4	15	Cue	Neutral	True
152.073	4.0	Control	0.875	0.0	Yes	2.977	0.0	n/a	GoodResponse	0	n/a	n/a	4	15	Fixation	Neutral	True
156.069	0.25	Control	0.875	0.004	Yes	2.977	-0.004	4.0	GoodResponse	0	0.199	155.268	4	15	Target	Neutral	True
156.268	0.3	Control	0.875	0.004	Yes	2.977	-0.004	4.0	GoodResponse	0	0.199	n/a	4	15	ButtonPress	Neutral	True
156.319	0.45	Control	0.875	n/a	Yes	2.977	n/a	n/a	GoodResponse	0	n/a	n/a	4	15	Blank	Neutral	True
156.771	1.45	Control	0.875	n/a	Yes	2.977	n/a	5.0	GoodResponse	0	0.031	155.802	4	15	Feedback	Neutral	True
158.225	2.977	Control	0.875	n/a	Yes	2.977	n/a	n/a	GoodResponse	0	0.0	n/a	4	15	ISIslide	Neutral	True
161.217	0.25	Win2	0.8824	0.0	Yes	2.883	0.017	n/a	GoodResponse	1	n/a	n/a	5	16	Cue	Win	True
161.468	4.0	Win2	0.8824	0.0	Yes	2.883	0.001	n/a	GoodResponse	1	n/a	n/a	5	16	Fixation	Win	True
165.463	0.24	Win2	0.8824	0.004	Yes	2.883	-0.004	4.0	GoodResponse	1	0.199	164.662	5	16	Target	Win	True
165.662	0.3	Win2	0.8824	0.004	Yes	2.883	-0.004	4.0	GoodResponse	1	0.199	n/a	5	16	ButtonPress	Win	True
165.714	0.46	Win2	0.8824	n/a	Yes	2.883	n/a	n/a	GoodResponse	1	n/a	n/a	5	16	Blank	Win	True
166.165	1.45	Win2	0.8824	n/a	Yes	2.883	n/a	5.0	GoodResponse	1	0.005	165.17	5	16	Feedback	Win	True
167.62	2.883	Win2	0.8824	n/a	Yes	2.883	n/a	n/a	GoodResponse	1	0.0	n/a	5	16	ISIslide	Win	True
170.528	0.25	Lose2	0.8889	0.001	Yes	2.722	0.028	n/a	GoodResponse	0	n/a	n/a	5	17	Cue	AvoidedLoss	True
170.779	3.95	Lose2	0.8889	0.0	Yes	2.722	0.001	n/a	GoodResponse	0	n/a	n/a	5	17	Fixation	AvoidedLoss	True
174.724	0.23	Lose2	0.8889	0.004	Yes	2.722	-0.004	4.0	GoodResponse	0	0.19	173.914	5	17	Target	AvoidedLoss	True
174.914	0.3	Lose2	0.8889	0.004	Yes	2.722	-0.004	4.0	GoodResponse	0	0.19	n/a	5	17	ButtonPress	AvoidedLoss	True
174.958	0.47	Lose2	0.8889	n/a	Yes	2.722	n/a	n/a	GoodResponse	0	n/a	n/a	5	17	Blank	AvoidedLoss	True
175.426	1.45	Lose2	0.8889	n/a	Yes	2.722	n/a	5.0	GoodResponse	0	0.009	174.435	5	17	Feedback	AvoidedLoss	True
176.881	2.722	Lose2	0.8889	n/a	Yes	2.722	n/a	n/a	GoodResponse	0	0.0	n/a	5	17	ISIslide	AvoidedLoss	True
179.622	0.25	Lose2	0.8421	0.0	No	2.728	0.022	n/a	LatePress	-1	n/a	n/a	4	18	Cue	Loss	True
179.873	4.05	Lose2	0.8421	0.0	No	2.728	0.001	n/a	LatePress	-1	n/a	n/a	4	18	Fixation	Loss	True
183.918	0.22	Lose2	0.8421	0.004	No	2.728	-0.004	4.0	LatePress	-1	0.222	183.14	4	18	Target	Loss	True
184.14	0.3	Lose2	0.8421	0.004	No	2.728	-0.004	4.0	LatePress	-1	0.222	n/a	4	18	ButtonPress	Loss	True
184.152	0.48	Lose2	0.8421	n/a	No	2.728	n/a	n/a	LatePress	-1	n/a	n/a	4	18	Blank	Loss	True
184.62	1.45	Lose2	0.8421	n/a	No	2.728	n/a	5.0	LatePress	-1	0.035	183.655	4	18	Feedback	Loss	True
186.075	2.728	Lose2	0.8421	n/a	No	2.728	n/a	n/a	LatePress	-1	0.0	n/a	4	18	ISIslide	Loss	True
188.816	0.25	Control	0.8	0.0	No	2.934	0.016	n/a	NoResponse	0	n/a	n/a	4	19	Cue	Neutral	True
189.067	3.95	Control	0.8	0.0	No	2.934	0.001	n/a	NoResponse	0	n/a	n/a	4	19	Fixation	Neutral	True
193.012	0.21	Control	0.8	0.004	No	2.934	-0.004	4.0	NoResponse	0	0.253	192.265	4	19	Target	Neutral	True
193.229	0.49	Control	0.8	n/a	No	2.934	n/a	n/a	NoResponse	0	n/a	n/a	4	19	Blank	Neutral	True
193.265	0.3	Control	0.8	0.004	No	2.934	-0.004	4.0	NoResponse	0	0.253	n/a	4	19	ButtonPress	Neutral	True
193.714	1.45	Control	0.8	n/a	No	2.934	n/a	5.0	NoResponse	0	0.014	192.728	4	19	Feedback	Neutral	True
195.169	2.934	Control	0.8	n/a	No	2.934	n/a	n/a	NoResponse	0	0.0	n/a	4	19	ISIslide	Neutral	True
198.127	0.25	Control	0.7619	0.0	No	2.623	0.027	n/a	NoResponse	0	n/a	n/a	4	20	Cue	Neutral	True
198.378	4.05	Control	0.7619	0.0	No	2.623	0.001	n/a	NoResponse	0	n/a	n/a	4	20	Fixation	Neutral	True
202.424	0.2	Control	0.7619	0.003	No	2.623	-0.003	4.0	NoResponse	0	0.213	201.637	4	20	Target	Neutral	True
202.624	0.5	Control	0.7619	n/a	No	2.623	n/a	n/a	NoResponse	0	n/a	n/a	4	20	Blank	Neutral	True
202.637	0.3	Control	0.7619	0.003	No	2.623	-0.003	4.0	NoResponse	0	0.213	n/a	4	20	ButtonPress	Neutral	True
203.126	1.45	Control	0.7619	n/a	No	2.623	n/a	5.0	NoResponse	0	0.017	202.143	4	20	Feedback	Neutral	True
204.58	2.623	Control	0.7619	n/a	No	2.623	n/a	n/a	NoResponse	0	0.0	n/a	4	20	ISIslide	Neutral	True
207.221	0.25	Control	0.7273000000000001	0.0	No	2.779	0.021	n/a	NoResponse	0	n/a	n/a	4	21	Cue	Neutral	True
207.472	4.1	Control	0.7273000000000001	0.0	No	2.779	0.001	n/a	NoResponse	0	n/a	n/a	4	21	Fixation	Neutral	True
211.568	0.19	Control	0.7273000000000001	0.003	No	2.779	-0.003	4.0	NoResponse	0	0.235	210.803	4	21	Target	Neutral	True
211.768	0.51	Control	0.7273000000000001	n/a	No	2.779	n/a	n/a	NoResponse	0	n/a	n/a	4	21	Blank	Neutral	True
211.803	0.3	Control	0.7273000000000001	0.003	No	2.779	-0.003	4.0	NoResponse	0	0.235	n/a	4	21	ButtonPress	Neutral	True
212.27	1.45	Control	0.7273000000000001	n/a	No	2.779	n/a	5.0	NoResponse	0	0.042	211.312	4	21	Feedback	Neutral	True
213.724	2.779	Control	0.7273000000000001	n/a	No	2.779	n/a	n/a	NoResponse	0	0.0	n/a	4	21	ISIslide	Neutral	True
216.516	0.25	Control	0.6957	0.0	No	2.784	0.016	n/a	NoResponse	0	n/a	n/a	4	22	Cue	Neutral	True
216.766	4.0	Control	0.6957	0.0	No	2.784	0.0	n/a	NoResponse	0	n/a	n/a	4	22	Fixation	Neutral	True
220.762	0.18	Control	0.6957	0.004	No	2.784	-0.004	4.0	NoResponse	0	0.213	219.975	4	22	Target	Neutral	True
220.945	0.52	Control	0.6957	n/a	No	2.784	n/a	n/a	NoResponse	0	n/a	n/a	4	22	Blank	Neutral	True
220.975	0.3	Control	0.6957	0.004	No	2.784	-0.004	4.0	NoResponse	0	0.213	n/a	4	22	ButtonPress	Neutral	True
221.464	1.45	Control	0.6957	n/a	No	2.784	n/a	5.0	NoResponse	0	0.019	220.483	4	22	Feedback	Neutral	True
222.918	2.784	Control	0.6957	n/a	No	2.784	n/a	n/a	NoResponse	0	0.0	n/a	4	22	ISIslide	Neutral	True
225.726	0.25	Control	0.6667000000000001	0.0	No	2.774	0.026	n/a	NoResponse	0	n/a	n/a	4	23	Cue	Neutral	True
225.977	3.9	Control	0.6667000000000001	0.0	No	2.774	0.001	n/a	NoResponse	0	n/a	n/a	4	23	Fixation	Neutral	True
229.872	0.17	Control	0.6667000000000001	0.004	No	2.774	-0.004	4.0	NoResponse	0	0.2	229.072	4	23	Target	Neutral	True
230.056	0.53	Control	0.6667000000000001	n/a	No	2.774	n/a	n/a	NoResponse	0	n/a	n/a	4	23	Blank	Neutral	True
230.072	0.3	Control	0.6667000000000001	0.004	No	2.774	-0.004	4.0	NoResponse	0	0.2	n/a	4	23	ButtonPress	Neutral	True
230.574	1.45	Control	0.6667000000000001	n/a	No	2.774	n/a	5.0	NoResponse	0	0.031	229.605	4	23	Feedback	Neutral	True
232.029	2.774	Control	0.6667000000000001	n/a	No	2.774	n/a	n/a	NoResponse	0	0.0	n/a	4	23	ISIslide	Neutral	True
234.82	0.25	Win2	0.64	0.0	No	3.13	0.02	n/a	NoResponse	0	n/a	n/a	4	24	Cue	MissedWin	True
235.071	3.95	Win2	0.64	0.0	No	3.13	0.001	n/a	NoResponse	0	n/a	n/a	4	24	Fixation	MissedWin	True
239.016	0.16	Win2	0.64	0.004	No	3.13	-0.004	4.0	NoResponse	0	0.218	238.234	4	24	Target	MissedWin	True
239.183	0.54	Win2	0.64	n/a	No	3.13	n/a	n/a	NoResponse	0	n/a	n/a	4	24	Blank	MissedWin	True
239.234	0.3	Win2	0.64	0.004	No	3.13	-0.004	4.0	NoResponse	0	0.218	n/a	4	24	ButtonPress	MissedWin	True
239.718	1.45	Win2	0.64	n/a	No	3.13	n/a	5.0	NoResponse	0	0.008	238.726	4	24	Feedback	MissedWin	True
241.172	3.13	Win2	0.64	n/a	No	3.13	n/a	n/a	NoResponse	0	0.0	n/a	4	24	ISIslide	MissedWin	True
244.315	0.25	Win2	0.6154	0.0	No	3.085	0.015	n/a	LatePress	0	n/a	n/a	4	25	Cue	MissedWin	True
244.566	4.0	Win2	0.6154	0.0	No	3.085	0.001	n/a	LatePress	0	n/a	n/a	4	25	Fixation	MissedWin	True
248.561	0.17	Win2	0.6154	0.004	No	3.085	-0.004	4.0	LatePress	0	0.182	247.743	4	25	Target	MissedWin	True
248.743	0.3	Win2	0.6154	0.004	No	3.085	-0.004	4.0	LatePress	0	0.182	n/a	4	25	ButtonPress	MissedWin	True
248.745	0.53	Win2	0.6154	n/a	No	3.085	n/a	n/a	LatePress	0	n/a	n/a	4	25	Blank	MissedWin	True
249.263	1.45	Win2	0.6154	n/a	No	3.085	n/a	5.0	LatePress	0	0.024	248.287	4	25	Feedback	MissedWin	True
250.718	3.085	Win2	0.6154	n/a	No	3.085	n/a	n/a	LatePress	0	0.0	n/a	4	25	ISIslide	MissedWin	True
253.827	0.25	Win2	0.5926	0.0	No	2.923	0.027	n/a	NoResponse	0	n/a	n/a	4	26	Cue	MissedWin	True
254.078	3.95	Win2	0.5926	0.0	No	2.923	0.001	n/a	NoResponse	0	n/a	n/a	4	26	Fixation	MissedWin	True
258.023	0.18	Win2	0.5926	0.004	No	2.923	-0.004	4.0	NoResponse	0	0.282	257.305	4	26	Target	MissedWin	True
258.207	0.52	Win2	0.5926	n/a	No	2.923	n/a	n/a	NoResponse	0	n/a	n/a	4	26	Blank	MissedWin	True
258.305	0.3	Win2	0.5926	0.004	No	2.923	-0.004	4.0	NoResponse	0	0.282	n/a	4	26	ButtonPress	MissedWin	True
258.725	1.45	Win2	0.5926	n/a	No	2.923	n/a	5.0	NoResponse	0	0.026	257.751	4	26	Feedback	MissedWin	True
260.179	2.923	Win2	0.5926	n/a	No	2.923	n/a	n/a	NoResponse	0	0.0	n/a	4	26	ISIslide	MissedWin	True
263.121	0.25	Lose2	0.5714	0.0	No	2.829	0.021	n/a	LatePress	-1	n/a	n/a	3	27	Cue	Loss	True
263.372	4.05	Lose2	0.5714	0.0	No	2.829	0.001	n/a	LatePress	-1	n/a	n/a	3	27	Fixation	Loss	True
267.417	0.19	Lose2	0.5714	0.004	No	2.829	-0.004	4.0	LatePress	-1	0.197	266.614	3	27	Target	Loss	True
267.614	0.3	Lose2	0.5714	0.004	No	2.829	-0.004	4.0	LatePress	-1	0.197	n/a	3	27	ButtonPress	Loss	True
267.618	0.51	Lose2	0.5714	n/a	No	2.829	n/a	n/a	LatePress	-1	n/a	n/a	3	27	Blank	Loss	True
268.12	1.45	Lose2	0.5714	n/a	No	2.829	n/a	5.0	LatePress	-1	0.046	267.166	3	27	Feedback	Loss	True
269.574	2.829	Lose2	0.5714	n/a	No	2.829	n/a	n/a	LatePress	-1	0.0	n/a	3	27	ISIslide	Loss	True
272.416	0.25	Control	0.5861999999999999	0.0	Yes	2.834	0.016	n/a	GoodResponse	0	n/a	n/a	3	28	Cue	Neutral	True
272.666	4.05	Control	0.5861999999999999	0.001	Yes	2.834	0.0	n/a	GoodResponse	0	n/a	n/a	3	28	Fixation	Neutral	True
276.712	0.2	Control	0.5861999999999999	0.004	Yes	2.834	-0.004	4.0	GoodResponse	0	0.194	275.906	3	28	Target	Neutral	True
276.906	0.3	Control	0.5861999999999999	0.004	Yes	2.834	-0.004	4.0	GoodResponse	0	0.194	n/a	3	28	ButtonPress	Neutral	True
276.912	0.5	Control	0.5861999999999999	n/a	Yes	2.834	n/a	n/a	GoodResponse	0	n/a	n/a	3	28	Blank	Neutral	True
277.414	1.45	Control	0.5861999999999999	n/a	Yes	2.834	n/a	5.0	GoodResponse	0	0.019	276.433	3	28	Feedback	Neutral	True
278.868	2.834	Control	0.5861999999999999	n/a	Yes	2.834	n/a	n/a	GoodResponse	0	0.0	n/a	3	28	ISIslide	Neutral	True
281.727	0.25	Lose2	0.5667	0.0	No	2.823	0.027	n/a	NoResponse	-1	n/a	n/a	2	29	Cue	Loss	True
281.978	3.95	Lose2	0.5667	0.0	No	2.823	0.001	n/a	NoResponse	-1	n/a	n/a	2	29	Fixation	Loss	True
285.923	0.21	Lose2	0.5667	0.004	No	2.823	-0.004	4.0	NoResponse	-1	0.25	285.173	2	29	Target	Loss	True
286.14	0.49	Lose2	0.5667	n/a	No	2.823	n/a	n/a	NoResponse	-1	n/a	n/a	2	29	Blank	Loss	True
286.173	0.3	Lose2	0.5667	0.004	No	2.823	-0.004	4.0	NoResponse	-1	0.25	n/a	2	29	ButtonPress	Loss	True
286.625	1.45	Lose2	0.5667	n/a	No	2.823	n/a	5.0	NoResponse	-1	0.028	285.653	2	29	Feedback	Loss	True
288.079	2.823	Lose2	0.5667	n/a	No	2.823	n/a	n/a	NoResponse	-1	0.0	n/a	2	29	ISIslide	Loss	True
290.921	0.25	Win2	0.5484	0.0	No	2.779	0.021	n/a	PrematurePress	0	n/a	n/a	2	30	Cue	MissedWin	True
291.172	3.9	Win2	0.5484	0.0	No	2.779	0.001	n/a	PrematurePress	0	n/a	n/a	2	30	Fixation	MissedWin	True
295.067	0.22	Win2	0.5484	0.004	No	2.779	-0.004	4.0	PrematurePress	0	0.023	294.09	2	30	Target	MissedWin	True
295.09	0.3	Win2	0.5484	0.004	No	2.779	-0.004	4.0	PrematurePress	0	0.023	n/a	2	30	ButtonPress	MissedWin	True
295.301	0.48	Win2	0.5484	n/a	No	2.779	n/a	n/a	PrematurePress	0	n/a	n/a	2	30	Blank	MissedWin	True
295.769	1.45	Win2	0.5484	n/a	No	2.779	n/a	5.0	PrematurePress	0	0.006	294.775	2	30	Feedback	MissedWin	True
297.223	2.779	Win2	0.5484	n/a	No	2.779	n/a	n/a	PrematurePress	0	0.0	n/a	2	30	ISIslide	MissedWin	True
300.015	0.25	Lose2	0.5625	0.0	Yes	2.835	0.015	n/a	GoodResponse	0	n/a	n/a	2	31	Cue	AvoidedLoss	True
300.265	4.05	Lose2	0.5625	0.001	Yes	2.835	0.0	n/a	GoodResponse	0	n/a	n/a	2	31	Fixation	AvoidedLoss	True
304.311	0.23	Lose2	0.5625	0.004	Yes	2.835	-0.004	4.0	GoodResponse	0	0.199	303.51	2	31	Target	AvoidedLoss	True
304.51	0.3	Lose2	0.5625	0.004	Yes	2.835	-0.004	4.0	GoodResponse	0	0.199	n/a	2	31	ButtonPress	AvoidedLoss	True
304.545	0.47	Lose2	0.5625	n/a	Yes	2.835	n/a	n/a	GoodResponse	0	n/a	n/a	2	31	Blank	AvoidedLoss	True
305.013	1.45	Lose2	0.5625	n/a	Yes	2.835	n/a	5.0	GoodResponse	0	0.029	304.042	2	31	Feedback	AvoidedLoss	True
306.467	2.835	Lose2	0.5625	n/a	Yes	2.835	n/a	n/a	GoodResponse	0	0.0	n/a	2	31	ISIslide	AvoidedLoss	True
309.326	0.25	Lose2	0.5758	0.0	Yes	2.624	0.026	n/a	GoodResponse	0	n/a	n/a	2	32	Cue	AvoidedLoss	True
309.577	4.15	Lose2	0.5758	0.0	Yes	2.624	0.001	n/a	GoodResponse	0	n/a	n/a	2	32	Fixation	AvoidedLoss	True
313.722	0.24	Lose2	0.5758	0.004	Yes	2.624	-0.004	4.0	GoodResponse	0	0.196	312.918	2	32	Target	AvoidedLoss	True
313.918	0.3	Lose2	0.5758	0.004	Yes	2.624	-0.004	4.0	GoodResponse	0	0.196	n/a	2	32	ButtonPress	AvoidedLoss	True
313.973	0.46	Lose2	0.5758	n/a	Yes	2.624	n/a	n/a	GoodResponse	0	n/a	n/a	2	32	Blank	AvoidedLoss	True
314.424	1.45	Lose2	0.5758	n/a	Yes	2.624	n/a	5.0	GoodResponse	0	0.033	313.457	2	32	Feedback	AvoidedLoss	True
315.879	2.624	Lose2	0.5758	n/a	Yes	2.624	n/a	n/a	GoodResponse	0	0.0	n/a	2	32	ISIslide	AvoidedLoss	True
318.52	0.25	Win2	0.5882000000000001	0.0	Yes	2.68	0.02	n/a	GoodResponse	1	n/a	n/a	3	33	Cue	Win	True
318.771	4.0	Win2	0.5882000000000001	0.0	Yes	2.68	0.001	n/a	GoodResponse	1	n/a	n/a	3	33	Fixation	Win	True
322.766	0.25	Win2	0.5882000000000001	0.004	Yes	2.68	-0.004	4.0	GoodResponse	1	0.213	321.979	3	33	Target	Win	True
322.979	0.3	Win2	0.5882000000000001	0.004	Yes	2.68	-0.004	4.0	GoodResponse	1	0.213	n/a	3	33	ButtonPress	Win	True
323.017	0.45	Win2	0.5882000000000001	n/a	Yes	2.68	n/a	n/a	GoodResponse	1	n/a	n/a	3	33	Blank	Win	True
323.468	1.45	Win2	0.5882000000000001	n/a	Yes	2.68	n/a	5.0	GoodResponse	1	0.013	322.481	3	33	Feedback	Win	True
324.922	2.68	Win2	0.5882000000000001	n/a	Yes	2.68	n/a	n/a	GoodResponse	1	0.0	n/a	3	33	ISIslide	Win	True
327.614	0.25	Lose2	0.6	0.0	Yes	2.636	0.014	n/a	GoodResponse	0	n/a	n/a	3	34	Cue	AvoidedLoss	True
327.864	4.05	Lose2	0.6	0.001	Yes	2.636	0.0	n/a	GoodResponse	0	n/a	n/a	3	34	Fixation	AvoidedLoss	True
331.91	0.26	Lose2	0.6	0.004	Yes	2.636	-0.004	4.0	GoodResponse	0	0.23	331.14	3	34	Target	AvoidedLoss	True
332.14	0.3	Lose2	0.6	0.004	Yes	2.636	-0.004	4.0	GoodResponse	0	0.23	n/a	3	34	ButtonPress	AvoidedLoss	True
332.177	0.44	Lose2	0.6	n/a	Yes	2.636	n/a	n/a	GoodResponse	0	n/a	n/a	3	34	Blank	AvoidedLoss	True
332.612	1.45	Lose2	0.6	n/a	Yes	2.636	n/a	5.0	GoodResponse	0	0.04	331.652	3	34	Feedback	AvoidedLoss	True
334.066	2.636	Lose2	0.6	n/a	Yes	2.636	n/a	n/a	GoodResponse	0	0.0	n/a	3	34	ISIslide	AvoidedLoss	True
336.724	0.25	Lose2	0.6111	0.0	Yes	2.676	0.024	n/a	GoodResponse	0	n/a	n/a	3	35	Cue	AvoidedLoss	True
336.975	4.0	Lose2	0.6111	0.0	Yes	2.676	0.001	n/a	GoodResponse	0	n/a	n/a	3	35	Fixation	AvoidedLoss	True
340.97	0.27	Lose2	0.6111	0.004	Yes	2.676	-0.004	4.0	GoodResponse	0	0.2	340.17	3	35	Target	AvoidedLoss	True
341.17	0.3	Lose2	0.6111	0.004	Yes	2.676	-0.004	4.0	GoodResponse	0	0.2	n/a	3	35	ButtonPress	AvoidedLoss	True
341.254	0.43	Lose2	0.6111	n/a	Yes	2.676	n/a	n/a	GoodResponse	0	n/a	n/a	3	35	Blank	AvoidedLoss	True
341.672	1.45	Lose2	0.6111	n/a	Yes	2.676	n/a	5.0	GoodResponse	0	0.005	340.677	3	35	Feedback	AvoidedLoss	True
343.127	2.676	Lose2	0.6111	n/a	Yes	2.676	n/a	n/a	GoodResponse	0	0.0	n/a	3	35	ISIslide	AvoidedLoss	True
345.818	0.25	Control	0.6215999999999999	0.0	Yes	2.682	0.018	n/a	GoodResponse	0	n/a	n/a	3	36	Cue	Neutral	True
346.069	4.0	Control	0.6215999999999999	0.0	Yes	2.682	0.001	n/a	GoodResponse	0	n/a	n/a	3	36	Fixation	Neutral	True
350.064	0.28	Control	0.6215999999999999	0.004	Yes	2.682	-0.004	4.0	GoodResponse	0	0.205	349.269	3	36	Target	Neutral	True
350.269	0.3	Control	0.6215999999999999	0.004	Yes	2.682	-0.004	4.0	GoodResponse	0	0.205	n/a	3	36	ButtonPress	Neutral	True
350.348	0.42	Control	0.6215999999999999	n/a	Yes	2.682	n/a	n/a	GoodResponse	0	n/a	n/a	3	36	Blank	Neutral	True
350.766	1.45	Control	0.6215999999999999	n/a	Yes	2.682	n/a	5.0	GoodResponse	0	0.032	349.798	3	36	Feedback	Neutral	True
352.22	2.682	Control	0.6215999999999999	n/a	Yes	2.682	n/a	n/a	GoodResponse	0	0.0	n/a	3	36	ISIslide	Neutral	True
354.929	0.25	Win2	0.6053000000000001	0.0	No	2.871	0.029	n/a	LatePress	0	n/a	n/a	3	37	Cue	MissedWin	True
355.179	4.0	Win2	0.6053000000000001	0.0	No	2.871	0.0	n/a	LatePress	0	n/a	n/a	3	37	Fixation	MissedWin	True
359.175	0.29	Win2	0.6053000000000001	0.004	No	2.871	-0.004	4.0	LatePress	0	0.29	358.465	3	37	Target	MissedWin	True
359.465	0.3	Win2	0.6053000000000001	0.004	No	2.871	-0.004	4.0	LatePress	0	0.29	n/a	3	37	ButtonPress	MissedWin	True
359.475	0.41	Win2	0.6053000000000001	n/a	No	2.871	n/a	n/a	LatePress	0	n/a	n/a	3	37	Blank	MissedWin	True
359.877	1.45	Win2	0.6053000000000001	n/a	No	2.871	n/a	5.0	LatePress	0	0.043	358.92	3	37	Feedback	MissedWin	True
361.331	2.871	Win2	0.6053000000000001	n/a	No	2.871	n/a	n/a	LatePress	0	0.0	n/a	3	37	ISIslide	MissedWin	True
364.223	0.25	Lose2	0.6154	0.0	Yes	2.827	0.023	n/a	GoodResponse	0	n/a	n/a	3	38	Cue	AvoidedLoss	True
364.474	3.95	Lose2	0.6154	0.0	Yes	2.827	0.001	n/a	GoodResponse	0	n/a	n/a	3	38	Fixation	AvoidedLoss	True
368.419	0.3	Lose2	0.6154	0.004	Yes	2.827	-0.004	4.0	GoodResponse	0	0.215	367.634	3	38	Target	AvoidedLoss	True
368.634	0.3	Lose2	0.6154	0.004	Yes	2.827	-0.004	4.0	GoodResponse	0	0.215	n/a	3	38	ButtonPress	AvoidedLoss	True
368.72	0.4	Lose2	0.6154	n/a	Yes	2.827	n/a	n/a	GoodResponse	0	n/a	n/a	3	38	Blank	AvoidedLoss	True
369.121	1.45	Lose2	0.6154	n/a	Yes	2.827	n/a	5.0	GoodResponse	0	0.018	368.139	3	38	Feedback	AvoidedLoss	True
370.575	2.827	Lose2	0.6154	n/a	Yes	2.827	n/a	n/a	GoodResponse	0	0.0	n/a	3	38	ISIslide	AvoidedLoss	True
373.417	0.25	Win2	0.625	0.0	Yes	2.983	0.017	n/a	GoodResponse	1	n/a	n/a	4	39	Cue	Win	True
373.668	4.1	Win2	0.625	0.0	Yes	2.983	0.001	n/a	GoodResponse	1	n/a	n/a	4	39	Fixation	Win	True
377.763	0.31	Win2	0.625	0.004	Yes	2.983	-0.004	4.0	GoodResponse	1	0.196	376.959	4	39	Target	Win	True
377.959	0.3	Win2	0.625	0.004	Yes	2.983	-0.004	4.0	GoodResponse	1	0.196	n/a	4	39	ButtonPress	Win	True
378.081	0.39	Win2	0.625	n/a	Yes	2.983	n/a	n/a	GoodResponse	1	n/a	n/a	4	39	Blank	Win	True
378.465	1.45	Win2	0.625	n/a	Yes	2.983	n/a	5.0	GoodResponse	1	0.039	377.504	4	39	Feedback	Win	True
379.92	2.983	Win2	0.625	n/a	Yes	2.983	n/a	n/a	GoodResponse	1	0.0	n/a	4	39	ISIslide	Win	True
382.929	0.25	Win2	0.6341	0.0	Yes	2.721	0.029	n/a	GoodResponse	1	n/a	n/a	5	40	Cue	Win	True
383.179	3.95	Win2	0.6341	0.001	Yes	2.721	0.0	n/a	GoodResponse	1	n/a	n/a	5	40	Fixation	Win	True
387.125	0.32	Win2	0.6341	0.004	Yes	2.721	-0.004	4.0	GoodResponse	1	0.206	386.331	5	40	Target	Win	True
387.331	0.3	Win2	0.6341	0.004	Yes	2.721	-0.004	4.0	GoodResponse	1	0.206	n/a	5	40	ButtonPress	Win	True
387.459	0.38	Win2	0.6341	n/a	Yes	2.721	n/a	n/a	GoodResponse	1	n/a	n/a	5	40	Blank	Win	True
387.827	1.45	Win2	0.6341	n/a	Yes	2.721	n/a	5.0	GoodResponse	1	0.043	386.87	5	40	Feedback	Win	True
389.281	2.721	Win2	0.6341	n/a	Yes	2.721	n/a	n/a	GoodResponse	1	0.0	n/a	5	40	ISIslide	Win	True
392.023	0.25	Win2	0.6429	0.0	Yes	2.777	0.023	n/a	GoodResponse	1	n/a	n/a	6	41	Cue	Win	True
392.273	3.9	Win2	0.6429	0.0	Yes	2.777	0.0	n/a	GoodResponse	1	n/a	n/a	6	41	Fixation	Win	True
396.185	0.33	Win2	0.6429	0.0	Yes	2.777	0.012	4.0	GoodResponse	1	0.272	395.457	6	41	Target	Win	True
396.457	0.3	Win2	0.6429	0.0	Yes	2.777	0.012	4.0	GoodResponse	1	0.272	n/a	6	41	ButtonPress	Win	True
396.503	0.37	Win2	0.6429	n/a	Yes	2.777	n/a	n/a	GoodResponse	1	n/a	n/a	6	41	Blank	Win	True
396.87	1.45	Win2	0.6429	n/a	Yes	2.777	n/a	5.0	GoodResponse	1	0.025	395.895	6	41	Feedback	Win	True
398.325	2.777	Win2	0.6429	n/a	Yes	2.777	n/a	n/a	GoodResponse	1	0.0	n/a	6	41	ISIslide	Win	True
401.116	0.25	Control	0.6512	0.0	Yes	2.934	0.016	n/a	GoodResponse	0	n/a	n/a	6	42	Cue	Neutral	True
401.367	3.85	Control	0.6512	0.0	Yes	2.934	0.001	n/a	GoodResponse	0	n/a	n/a	6	42	Fixation	Neutral	True
405.212	0.34	Control	0.6512	0.004	Yes	2.934	-0.004	4.0	GoodResponse	0	0.248	404.46	6	42	Target	Neutral	True
405.46	0.3	Control	0.6512	0.004	Yes	2.934	-0.004	4.0	GoodResponse	0	0.248	n/a	6	42	ButtonPress	Neutral	True
405.563	0.36	Control	0.6512	n/a	Yes	2.934	n/a	n/a	GoodResponse	0	n/a	n/a	6	42	Blank	Neutral	True
405.914	1.45	Control	0.6512	n/a	Yes	2.934	n/a	5.0	GoodResponse	0	0.005	404.919	6	42	Feedback	Neutral	True
407.368	2.934	Control	0.6512	n/a	Yes	2.934	n/a	n/a	GoodResponse	0	0.0	n/a	6	42	ISIslide	Neutral	True
410.327	0.25	Win2	0.6591	0.0	Yes	3.173	0.027	n/a	GoodResponse	1	n/a	n/a	7	43	Cue	Win	True
410.578	4.0	Win2	0.6591	0.0	Yes	3.173	0.001	n/a	GoodResponse	1	n/a	n/a	7	43	Fixation	Win	True
414.573	0.35	Win2	0.6591	0.004	Yes	3.173	-0.004	4.0	GoodResponse	1	0.196	413.769	7	43	Target	Win	True
414.769	0.3	Win2	0.6591	0.004	Yes	3.173	-0.004	4.0	GoodResponse	1	0.196	n/a	7	43	ButtonPress	Win	True
414.924	0.35	Win2	0.6591	n/a	Yes	3.173	n/a	n/a	GoodResponse	1	n/a	n/a	7	43	Blank	Win	True
415.275	1.45	Win2	0.6591	n/a	Yes	3.173	n/a	5.0	GoodResponse	1	0.009	414.284	7	43	Feedback	Win	True
416.73	3.173	Win2	0.6591	n/a	Yes	3.173	n/a	n/a	GoodResponse	1	0.0	n/a	7	43	ISIslide	Win	True
419.922	0.25	Win2	0.6667000000000001	0.001	Yes	2.978	0.022	n/a	GoodResponse	1	n/a	n/a	8	44	Cue	Win	True
420.173	4.0	Win2	0.6667000000000001	0.0	Yes	2.978	0.001	n/a	GoodResponse	1	n/a	n/a	8	44	Fixation	Win	True
424.168	0.35	Win2	0.6667000000000001	0.004	Yes	2.978	-0.004	4.0	GoodResponse	1	0.198	423.366	8	44	Target	Win	True
424.366	0.3	Win2	0.6667000000000001	0.004	Yes	2.978	-0.004	4.0	GoodResponse	1	0.198	n/a	8	44	ButtonPress	Win	True
424.519	0.35	Win2	0.6667000000000001	n/a	Yes	2.978	n/a	n/a	GoodResponse	1	n/a	n/a	8	44	Blank	Win	True
424.87	1.45	Win2	0.6667000000000001	n/a	Yes	2.978	n/a	5.0	GoodResponse	1	0.024	423.894	8	44	Feedback	Win	True
426.325	2.978	Win2	0.6667000000000001	n/a	Yes	2.978	n/a	n/a	GoodResponse	1	0.0	n/a	8	44	ISIslide	Win	True
429.317	0.25	Control	0.6739	0.0	Yes	2.883	0.017	n/a	GoodResponse	0	n/a	n/a	8	45	Cue	Neutral	True
429.568	4.1	Control	0.6739	0.0	Yes	2.883	0.001	n/a	GoodResponse	0	n/a	n/a	8	45	Fixation	Neutral	True
433.663	0.34	Control	0.6739	0.004	Yes	2.883	-0.004	4.0	GoodResponse	0	0.147	432.81	8	45	Target	Neutral	True
433.81	0.3	Control	0.6739	0.004	Yes	2.883	-0.004	4.0	GoodResponse	0	0.147	n/a	8	45	ButtonPress	Neutral	True
434.014	0.36	Control	0.6739	n/a	Yes	2.883	n/a	n/a	GoodResponse	0	n/a	n/a	8	45	Blank	Neutral	True
434.365	1.45	Control	0.6739	n/a	Yes	2.883	n/a	5.0	GoodResponse	0	0.041	433.406	8	45	Feedback	Neutral	True
435.82	2.883	Control	0.6739	n/a	Yes	2.883	n/a	n/a	GoodResponse	0	0.0	n/a	8	45	ISIslide	Neutral	True
438.728	0.25	Lose2	0.6809000000000001	0.001	Yes	3.372	0.028	n/a	GoodResponse	0	n/a	n/a	8	46	Cue	AvoidedLoss	True
438.979	4.0	Lose2	0.6809000000000001	0.0	Yes	3.372	0.001	n/a	GoodResponse	0	n/a	n/a	8	46	Fixation	AvoidedLoss	True
442.974	0.33	Lose2	0.6809000000000001	0.004	Yes	3.372	-0.004	4.0	GoodResponse	0	0.243	442.217	8	46	Target	AvoidedLoss	True
443.217	0.3	Lose2	0.6809000000000001	0.004	Yes	3.372	-0.004	4.0	GoodResponse	0	0.243	n/a	8	46	ButtonPress	AvoidedLoss	True
443.309	0.37	Lose2	0.6809000000000001	n/a	Yes	3.372	n/a	n/a	GoodResponse	0	n/a	n/a	8	46	Blank	AvoidedLoss	True
443.677	1.45	Lose2	0.6809000000000001	n/a	Yes	3.372	n/a	5.0	GoodResponse	0	0.046	442.723	8	46	Feedback	AvoidedLoss	True
445.131	3.372	Lose2	0.6809000000000001	n/a	Yes	3.372	n/a	n/a	GoodResponse	0	0.0	n/a	8	46	ISIslide	AvoidedLoss	True
448.524	0.25	Lose2	0.6875	0.0	Yes	2.676	0.024	n/a	GoodResponse	0	n/a	n/a	8	47	Cue	AvoidedLoss	True
448.775	4.0	Lose2	0.6875	0.0	Yes	2.676	0.001	n/a	GoodResponse	0	n/a	n/a	8	47	Fixation	AvoidedLoss	True
452.77	0.32	Lose2	0.6875	0.004	Yes	2.676	-0.004	4.0	GoodResponse	0	0.215	451.985	8	47	Target	AvoidedLoss	True
452.985	0.3	Lose2	0.6875	0.004	Yes	2.676	-0.004	4.0	GoodResponse	0	0.215	n/a	8	47	ButtonPress	AvoidedLoss	True
453.105	0.38	Lose2	0.6875	n/a	Yes	2.676	n/a	n/a	GoodResponse	0	n/a	n/a	8	47	Blank	AvoidedLoss	True
453.472	1.45	Lose2	0.6875	n/a	Yes	2.676	n/a	5.0	GoodResponse	0	0.007	452.479	8	47	Feedback	AvoidedLoss	True
454.927	2.676	Lose2	0.6875	n/a	Yes	2.676	n/a	n/a	GoodResponse	0	0.0	n/a	8	47	ISIslide	AvoidedLoss	True
457.618	0.25	Lose2	0.6939	0.0	Yes	3.032	0.018	n/a	GoodResponse	0	n/a	n/a	8	48	Cue	AvoidedLoss	True
457.869	3.95	Lose2	0.6939	0.0	Yes	3.032	0.001	n/a	GoodResponse	0	n/a	n/a	8	48	Fixation	AvoidedLoss	True
461.814	0.31	Lose2	0.6939	0.004	Yes	3.032	-0.004	4.0	GoodResponse	0	0.26	461.074	8	48	Target	AvoidedLoss	True
462.074	0.3	Lose2	0.6939	0.004	Yes	3.032	-0.004	4.0	GoodResponse	0	0.26	n/a	8	48	ButtonPress	AvoidedLoss	True
462.132	0.39	Lose2	0.6939	n/a	Yes	3.032	n/a	n/a	GoodResponse	0	n/a	n/a	8	48	Blank	AvoidedLoss	True
462.516	1.45	Lose2	0.6939	n/a	Yes	3.032	n/a	5.0	GoodResponse	0	0.036	461.552	8	48	Feedback	AvoidedLoss	True
463.97	3.032	Lose2	0.6939	n/a	Yes	3.032	n/a	n/a	GoodResponse	0	0.0	n/a	8	48	ISIslide	AvoidedLoss	True
467.013	0.25	Control	0.7	0.0	Yes	2.887	0.013	n/a	GoodResponse	0	n/a	n/a	8	49	Cue	Neutral	True
467.264	4.0	Control	0.7	0.0	Yes	2.887	0.001	n/a	GoodResponse	0	n/a	n/a	8	49	Fixation	Neutral	True
471.259	0.3	Control	0.7	0.004	Yes	2.887	-0.004	4.0	GoodResponse	0	0.261	470.52	8	49	Target	Neutral	True
471.52	0.3	Control	0.7	0.004	Yes	2.887	-0.004	4.0	GoodResponse	0	0.261	n/a	8	49	ButtonPress	Neutral	True
471.56	0.4	Control	0.7	n/a	Yes	2.887	n/a	n/a	GoodResponse	0	n/a	n/a	8	49	Blank	Neutral	True
471.961	1.45	Control	0.7	n/a	Yes	2.887	n/a	5.0	GoodResponse	0	0.005	470.966	8	49	Feedback	Neutral	True
473.415	2.887	Control	0.7	n/a	Yes	2.887	n/a	n/a	GoodResponse	0	0.0	n/a	8	49	ISIslide	Neutral	True
476.324	0.25	Control	0.6862999999999999	0.0	No	2.776	0.024	n/a	LatePress	0	n/a	n/a	8	50	Cue	Neutral	True
476.575	4.0	Control	0.6862999999999999	0.0	No	2.776	0.001	n/a	LatePress	0	n/a	n/a	8	50	Fixation	Neutral	True
480.57	0.29	Control	0.6862999999999999	0.004	No	2.776	-0.004	4.0	LatePress	0	0.295	479.865	8	50	Target	Neutral	True
480.865	0.3	Control	0.6862999999999999	0.004	No	2.776	-0.004	4.0	LatePress	0	0.295	n/a	8	50	ButtonPress	Neutral	True
480.871	0.41	Control	0.6862999999999999	n/a	No	2.776	n/a	n/a	LatePress	0	n/a	n/a	8	50	Blank	Neutral	True
481.272	1.45	Control	0.6862999999999999	n/a	No	2.776	n/a	5.0	LatePress	0	0.011	480.283	8	50	Feedback	Neutral	True
482.726	2.776	Control	0.6862999999999999	n/a	No	2.776	n/a	n/a	LatePress	0	0.0	n/a	8	50	ISIslide	Neutral	True
485.518	0.25	Control	0.6731	0.0	No	2.732	0.018	n/a	NoResponse	0	n/a	n/a	8	51	Cue	Neutral	True
485.769	3.95	Control	0.6731	0.0	No	2.732	0.001	n/a	NoResponse	0	n/a	n/a	8	51	Fixation	Neutral	True
489.714	0.28	Control	0.6731	0.004	No	2.732	-0.004	4.0	NoResponse	0	0.302	489.016	8	51	Target	Neutral	True
489.998	0.42	Control	0.6731	n/a	No	2.732	n/a	n/a	NoResponse	0	n/a	n/a	8	51	Blank	Neutral	True
490.016	0.3	Control	0.6731	0.004	No	2.732	-0.004	4.0	NoResponse	0	0.302	n/a	8	51	ButtonPress	Neutral	True
490.416	1.45	Control	0.6731	n/a	No	2.732	n/a	5.0	NoResponse	0	0.038	489.454	8	51	Feedback	Neutral	True
491.87	2.732	Control	0.6731	n/a	No	2.732	n/a	n/a	NoResponse	0	0.0	n/a	8	51	ISIslide	Neutral	True
494.629	0.25	Control	0.6792	0.0	Yes	2.621	0.029	n/a	GoodResponse	0	n/a	n/a	8	52	Cue	Neutral	True
494.879	4.05	Control	0.6792	0.0	Yes	2.621	0.0	n/a	GoodResponse	0	n/a	n/a	8	52	Fixation	Neutral	True
498.925	0.27	Control	0.6792	0.004	Yes	2.621	-0.004	4.0	GoodResponse	0	0.204	498.129	8	52	Target	Neutral	True
499.129	0.3	Control	0.6792	0.004	Yes	2.621	-0.004	4.0	GoodResponse	0	0.204	n/a	8	52	ButtonPress	Neutral	True
499.209	0.43	Control	0.6792	n/a	Yes	2.621	n/a	n/a	GoodResponse	0	n/a	n/a	8	52	Blank	Neutral	True
499.627	1.45	Control	0.6792	n/a	Yes	2.621	n/a	5.0	GoodResponse	0	0.046	498.673	8	52	Feedback	Neutral	True
501.081	2.621	Control	0.6792	n/a	Yes	2.621	n/a	n/a	GoodResponse	0	0.0	n/a	8	52	ISIslide	Neutral	True
503.722	0.25	Win2	0.6667000000000001	0.001	No	2.928	0.022	n/a	PrematurePress	0	n/a	n/a	8	53	Cue	MissedWin	True
503.973	4.05	Win2	0.6667000000000001	0.0	No	2.928	0.001	n/a	PrematurePress	0	n/a	n/a	8	53	Fixation	MissedWin	True
508.019	0.26	Win2	0.6667000000000001	0.003	No	2.928	-0.003	4.0	PrematurePress	0	0.087	507.106	8	53	Target	MissedWin	True
508.106	0.3	Win2	0.6667000000000001	0.003	No	2.928	-0.003	4.0	PrematurePress	0	0.087	n/a	8	53	ButtonPress	MissedWin	True
508.286	0.44	Win2	0.6667000000000001	n/a	No	2.928	n/a	n/a	PrematurePress	0	n/a	n/a	8	53	Blank	MissedWin	True
508.721	1.45	Win2	0.6667000000000001	n/a	No	2.928	n/a	5.0	PrematurePress	0	0.025	507.746	8	53	Feedback	MissedWin	True
510.175	2.928	Win2	0.6667000000000001	n/a	No	2.928	n/a	n/a	PrematurePress	0	0.0	n/a	8	53	ISIslide	MissedWin	True
513.117	0.25	Win2	0.6727	0.0	Yes	2.733	0.017	n/a	GoodResponse	1	n/a	n/a	9	54	Cue	Win	True
513.368	3.95	Win2	0.6727	0.0	Yes	2.733	0.001	n/a	GoodResponse	1	n/a	n/a	9	54	Fixation	Win	True
517.313	0.25	Win2	0.6727	0.004	Yes	2.733	-0.004	4.0	GoodResponse	1	0.244	516.557	9	54	Target	Win	True
517.557	0.3	Win2	0.6727	0.004	Yes	2.733	-0.004	4.0	GoodResponse	1	0.244	n/a	9	54	ButtonPress	Win	True
517.564	0.45	Win2	0.6727	n/a	Yes	2.733	n/a	n/a	GoodResponse	1	n/a	n/a	9	54	Blank	Win	True
518.015	1.45	Win2	0.6727	n/a	Yes	2.733	n/a	5.0	GoodResponse	1	0.048	517.063	9	54	Feedback	Win	True
519.469	2.733	Win2	0.6727	n/a	Yes	2.733	n/a	n/a	GoodResponse	1	0.0	n/a	9	54	ISIslide	Win	True
522.228	0.25	Control	0.6786	0.0	Yes	3.022	0.028	n/a	GoodResponse	0	n/a	n/a	9	55	Cue	Neutral	True
522.478	3.95	Control	0.6786	0.0	Yes	3.022	0.0	n/a	GoodResponse	0	n/a	n/a	9	55	Fixation	Neutral	True
526.44	0.24	Control	0.6786	0.0	Yes	3.022	0.012	4.0	GoodResponse	0	0.208	525.648	9	55	Target	Neutral	True
526.648	0.3	Control	0.6786	0.0	Yes	3.022	0.012	4.0	GoodResponse	0	0.208	n/a	9	55	ButtonPress	Neutral	True
526.674	0.46	Control	0.6786	n/a	Yes	3.022	n/a	n/a	GoodResponse	0	n/a	n/a	9	55	Blank	Neutral	True
527.126	1.45	Control	0.6786	n/a	Yes	3.022	n/a	5.0	GoodResponse	0	0.01	526.136	9	55	Feedback	Neutral	True
528.58	3.022	Control	0.6786	n/a	Yes	3.022	n/a	n/a	GoodResponse	0	0.0	n/a	9	55	ISIslide	Neutral	True
531.622	0.25	Control	0.6842	0.0	Yes	2.828	0.022	n/a	GoodResponse	0	n/a	n/a	9	56	Cue	Neutral	True
531.873	3.95	Control	0.6842	0.0	Yes	2.828	0.001	n/a	GoodResponse	0	n/a	n/a	9	56	Fixation	Neutral	True
535.818	0.23	Control	0.6842	0.004	Yes	2.828	-0.004	4.0	GoodResponse	0	0.216	535.034	9	56	Target	Neutral	True
536.034	0.3	Control	0.6842	0.004	Yes	2.828	-0.004	4.0	GoodResponse	0	0.216	n/a	9	56	ButtonPress	Neutral	True
536.052	0.47	Control	0.6842	n/a	Yes	2.828	n/a	n/a	GoodResponse	0	n/a	n/a	9	56	Blank	Neutral	True
536.52	1.45	Control	0.6842	n/a	Yes	2.828	n/a	5.0	GoodResponse	0	0.031	535.551	9	56	Feedback	Neutral	True
537.975	2.828	Control	0.6842	n/a	Yes	2.828	n/a	n/a	GoodResponse	0	0.0	n/a	9	56	ISIslide	Neutral	True
540.816	0.25	Control	0.6724	0.0	No	3.484	0.016	n/a	NoResponse	0	n/a	n/a	9	57	Cue	Neutral	True
541.067	4.0	Control	0.6724	0.0	No	3.484	0.001	n/a	NoResponse	0	n/a	n/a	9	57	Fixation	Neutral	True
545.062	0.22	Control	0.6724	0.004	No	3.484	-0.004	4.0	NoResponse	0	0.254	544.316	9	57	Target	Neutral	True
545.296	0.48	Control	0.6724	n/a	No	3.484	n/a	n/a	NoResponse	0	n/a	n/a	9	57	Blank	Neutral	True
545.316	0.3	Control	0.6724	0.004	No	3.484	-0.004	4.0	NoResponse	0	0.254	n/a	9	57	ButtonPress	Neutral	True
545.764	1.45	Control	0.6724	n/a	No	3.484	n/a	5.0	NoResponse	0	0.006	544.77	9	57	Feedback	Neutral	True
547.219	3.484	Control	0.6724	n/a	No	3.484	n/a	n/a	NoResponse	0	0.0	n/a	9	57	ISIslide	Neutral	True
550.729	0.25	Win2	0.6609999999999999	0.0	No	2.721	0.029	n/a	NoResponse	0	n/a	n/a	9	58	Cue	MissedWin	True
550.98	4.05	Win2	0.6609999999999999	0.0	No	2.721	0.001	n/a	NoResponse	0	n/a	n/a	9	58	Fixation	MissedWin	True
555.025	0.21	Win2	0.6609999999999999	0.004	No	2.721	-0.004	4.0	NoResponse	0	0.223	554.248	9	58	Target	MissedWin	True
555.243	0.49	Win2	0.6609999999999999	n/a	No	2.721	n/a	n/a	NoResponse	0	n/a	n/a	9	58	Blank	MissedWin	True
555.248	0.3	Win2	0.6609999999999999	0.004	No	2.721	-0.004	4.0	NoResponse	0	0.223	n/a	9	58	ButtonPress	MissedWin	True
555.728	1.45	Win2	0.6609999999999999	n/a	No	2.721	n/a	5.0	NoResponse	0	0.042	554.77	9	58	Feedback	MissedWin	True
557.182	2.721	Win2	0.6609999999999999	n/a	No	2.721	n/a	n/a	NoResponse	0	0.0	n/a	9	58	ISIslide	MissedWin	True
559.923	0.25	Lose2	0.65	0.0	No	2.677	0.023	n/a	NoResponse	-1	n/a	n/a	8	59	Cue	Loss	True
560.174	4.0	Lose2	0.65	0.0	No	2.677	0.001	n/a	NoResponse	-1	n/a	n/a	8	59	Fixation	Loss	True
564.169	0.21	Lose2	0.65	0.004	No	2.677	-0.004	4.0	NoResponse	-1	0.233	563.402	8	59	Target	Loss	True
564.387	0.49	Lose2	0.65	n/a	No	2.677	n/a	n/a	NoResponse	-1	n/a	n/a	8	59	Blank	Loss	True
564.402	0.3	Lose2	0.65	0.004	No	2.677	-0.004	4.0	NoResponse	-1	0.233	n/a	8	59	ButtonPress	Loss	True
564.871	1.45	Lose2	0.65	n/a	No	2.677	n/a	5.0	NoResponse	-1	0.021	563.892	8	59	Feedback	Loss	True
566.326	2.677	Lose2	0.65	n/a	No	2.677	n/a	n/a	NoResponse	-1	0.0	n/a	8	59	ISIslide	Loss	True
569.017	0.25	Control	0.6557	0.0	Yes	2.683	0.017	n/a	GoodResponse	0	n/a	n/a	8	60	Cue	Neutral	True
569.268	4.0	Control	0.6557	0.0	Yes	2.683	0.001	n/a	GoodResponse	0	n/a	n/a	8	60	Fixation	Neutral	True
573.263	0.22	Control	0.6557	0.004	Yes	2.683	-0.004	4.0	GoodResponse	0	0.208	572.471	8	60	Target	Neutral	True
573.471	0.3	Control	0.6557	0.004	Yes	2.683	-0.004	4.0	GoodResponse	0	0.208	n/a	8	60	ButtonPress	Neutral	True
573.497	0.48	Control	0.6557	n/a	Yes	2.683	n/a	n/a	GoodResponse	0	n/a	n/a	8	60	Blank	Neutral	True
573.965	1.45	Control	0.6557	n/a	Yes	2.683	n/a	5.0	GoodResponse	0	0.048	573.013	8	60	Feedback	Neutral	True
575.42	2.683	Control	0.6557	n/a	Yes	2.683	n/a	n/a	GoodResponse	0	0.0	n/a	8	60	ISIslide	Neutral	True
578.128	0.25	Lose2	0.6613	0.0	Yes	2.972	0.028	n/a	GoodResponse	0	n/a	n/a	8	61	Cue	AvoidedLoss	True
578.378	4.0	Lose2	0.6613	0.0	Yes	2.972	0.0	n/a	GoodResponse	0	n/a	n/a	8	61	Fixation	AvoidedLoss	True
582.374	0.22	Lose2	0.6613	0.004	Yes	2.972	-0.004	4.0	GoodResponse	0	0.217	581.591	8	61	Target	AvoidedLoss	True
582.591	0.3	Lose2	0.6613	0.004	Yes	2.972	-0.004	4.0	GoodResponse	0	0.217	n/a	8	61	ButtonPress	AvoidedLoss	True
582.608	0.48	Lose2	0.6613	n/a	Yes	2.972	n/a	n/a	GoodResponse	0	n/a	n/a	8	61	Blank	AvoidedLoss	True
583.076	1.45	Lose2	0.6613	n/a	Yes	2.972	n/a	5.0	GoodResponse	0	0.01	582.086	8	61	Feedback	AvoidedLoss	True
584.53	2.972	Lose2	0.6613	n/a	Yes	2.972	n/a	n/a	GoodResponse	0	0.0	n/a	8	61	ISIslide	AvoidedLoss	True
587.522	0.25	Lose2	0.6667000000000001	0.0	Yes	2.878	0.022	n/a	GoodResponse	0	n/a	n/a	8	62	Cue	AvoidedLoss	True
587.773	3.9	Lose2	0.6667000000000001	0.0	Yes	2.878	0.001	n/a	GoodResponse	0	n/a	n/a	8	62	Fixation	AvoidedLoss	True
591.668	0.22	Lose2	0.6667000000000001	0.004	Yes	2.878	-0.004	4.0	GoodResponse	0	0.191	590.859	8	62	Target	AvoidedLoss	True
591.859	0.3	Lose2	0.6667000000000001	0.004	Yes	2.878	-0.004	4.0	GoodResponse	0	0.191	n/a	8	62	ButtonPress	AvoidedLoss	True
591.902	0.48	Lose2	0.6667000000000001	n/a	Yes	2.878	n/a	n/a	GoodResponse	0	n/a	n/a	8	62	Blank	AvoidedLoss	True
592.37	1.45	Lose2	0.6667000000000001	n/a	Yes	2.878	n/a	5.0	GoodResponse	0	0.033	591.403	8	62	Feedback	AvoidedLoss	True
593.824	2.878	Lose2	0.6667000000000001	n/a	Yes	2.878	n/a	n/a	GoodResponse	0	0.0	n/a	8	62	ISIslide	AvoidedLoss	True
596.716	0.25	Lose2	0.6562	0.001	No	2.634	0.016	n/a	NoResponse	-1	n/a	n/a	7	63	Cue	Loss	True
596.967	4.05	Lose2	0.6562	0.0	No	2.634	0.001	n/a	NoResponse	-1	n/a	n/a	7	63	Fixation	Loss	True
601.013	0.21	Lose2	0.6562	0.003	No	2.634	-0.003	4.0	NoResponse	-1	0.283	600.296	7	63	Target	Loss	True
601.23	0.49	Lose2	0.6562	n/a	No	2.634	n/a	n/a	NoResponse	-1	n/a	n/a	7	63	Blank	Loss	True
601.296	0.3	Lose2	0.6562	0.003	No	2.634	-0.003	4.0	NoResponse	-1	0.283	n/a	7	63	ButtonPress	Loss	True
601.715	1.45	Lose2	0.6562	n/a	No	2.634	n/a	5.0	NoResponse	-1	0.005	600.72	7	63	Feedback	Loss	True
603.169	2.634	Lose2	0.6562	n/a	No	2.634	n/a	n/a	NoResponse	-1	0.0	n/a	7	63	ISIslide	Loss	True
605.827	0.25	Win2	0.6462	0.0	No	3.123	0.027	n/a	NoResponse	0	n/a	n/a	7	64	Cue	MissedWin	True
606.078	4.15	Win2	0.6462	0.0	No	3.123	0.001	n/a	NoResponse	0	n/a	n/a	7	64	Fixation	MissedWin	True
610.223	0.21	Win2	0.6462	0.004	No	3.123	-0.004	4.0	NoResponse	0	0.223	609.446	7	64	Target	MissedWin	True
610.441	0.49	Win2	0.6462	n/a	No	3.123	n/a	n/a	NoResponse	0	n/a	n/a	7	64	Blank	MissedWin	True
610.446	0.3	Win2	0.6462	0.004	No	3.123	-0.004	4.0	NoResponse	0	0.223	n/a	7	64	ButtonPress	MissedWin	True
610.926	1.45	Win2	0.6462	n/a	No	3.123	n/a	5.0	NoResponse	0	0.013	609.939	7	64	Feedback	MissedWin	True
612.38	3.123	Win2	0.6462	n/a	No	3.123	n/a	n/a	NoResponse	0	0.0	n/a	7	64	ISIslide	MissedWin	True
615.523	0.25	Control	0.6515000000000001	0.0	Yes	2.777	0.023	n/a	GoodResponse	0	n/a	n/a	7	65	Cue	Neutral	True
615.773	4.0	Control	0.6515000000000001	0.0	Yes	2.777	0.0	n/a	GoodResponse	0	n/a	n/a	7	65	Fixation	Neutral	True
619.769	0.22	Control	0.6515000000000001	0.004	Yes	2.777	-0.004	4.0	GoodResponse	0	0.182	618.951	7	65	Target	Neutral	True
619.951	0.3	Control	0.6515000000000001	0.004	Yes	2.777	-0.004	4.0	GoodResponse	0	0.182	n/a	7	65	ButtonPress	Neutral	True
620.003	0.48	Control	0.6515000000000001	n/a	Yes	2.777	n/a	n/a	GoodResponse	0	n/a	n/a	7	65	Blank	Neutral	True
620.471	1.45	Control	0.6515000000000001	n/a	Yes	2.777	n/a	5.0	GoodResponse	0	0.029	619.5	7	65	Feedback	Neutral	True
621.925	2.777	Control	0.6515000000000001	n/a	Yes	2.777	n/a	n/a	GoodResponse	0	0.0	n/a	7	65	ISIslide	Neutral	True
624.717	0.25	Win2	0.6567000000000001	0.0	Yes	2.783	0.017	n/a	GoodResponse	1	n/a	n/a	8	66	Cue	Win	True
624.967	3.9	Win2	0.6567000000000001	0.0	Yes	2.783	0.0	n/a	GoodResponse	1	n/a	n/a	8	66	Fixation	Win	True
628.879	0.23	Win2	0.6567000000000001	0.0	Yes	2.783	0.012	4.0	GoodResponse	1	0.202	628.081	8	66	Target	Win	True
629.081	0.3	Win2	0.6567000000000001	0.0	Yes	2.783	0.012	4.0	GoodResponse	1	0.202	n/a	8	66	ButtonPress	Win	True
629.096	0.47	Win2	0.6567000000000001	n/a	Yes	2.783	n/a	n/a	GoodResponse	1	n/a	n/a	8	66	Blank	Win	True
629.564	1.45	Win2	0.6567000000000001	n/a	Yes	2.783	n/a	5.0	GoodResponse	1	0.009	628.573	8	66	Feedback	Win	True
631.019	2.783	Win2	0.6567000000000001	n/a	Yes	2.783	n/a	n/a	GoodResponse	1	0.0	n/a	8	66	ISIslide	Win	True
633.827	0.25	Control	0.6618	0.0	Yes	2.723	0.027	n/a	GoodResponse	0	n/a	n/a	8	67	Cue	Neutral	True
634.078	3.95	Control	0.6618	0.0	Yes	2.723	0.001	n/a	GoodResponse	0	n/a	n/a	8	67	Fixation	Neutral	True
638.023	0.23	Control	0.6618	0.004	Yes	2.723	-0.004	4.0	GoodResponse	0	0.213	637.236	8	67	Target	Neutral	True
638.236	0.3	Control	0.6618	0.004	Yes	2.723	-0.004	4.0	GoodResponse	0	0.213	n/a	8	67	ButtonPress	Neutral	True
638.257	0.47	Control	0.6618	n/a	Yes	2.723	n/a	n/a	GoodResponse	0	n/a	n/a	8	67	Blank	Neutral	True
638.725	1.45	Control	0.6618	n/a	Yes	2.723	n/a	5.0	GoodResponse	0	0.018	637.743	8	67	Feedback	Neutral	True
640.179	2.723	Control	0.6618	n/a	Yes	2.723	n/a	n/a	GoodResponse	0	0.0	n/a	8	67	ISIslide	Neutral	True
642.921	0.25	Win2	0.6667000000000001	0.0	Yes	3.079	0.021	n/a	GoodResponse	1	n/a	n/a	9	68	Cue	Win	True
643.172	4.0	Win2	0.6667000000000001	0.0	Yes	3.079	0.001	n/a	GoodResponse	1	n/a	n/a	9	68	Fixation	Win	True
647.167	0.23	Win2	0.6667000000000001	0.004	Yes	3.079	-0.004	4.0	GoodResponse	1	0.198	646.365	9	68	Target	Win	True
647.365	0.3	Win2	0.6667000000000001	0.004	Yes	3.079	-0.004	4.0	GoodResponse	1	0.198	n/a	9	68	ButtonPress	Win	True
647.401	0.47	Win2	0.6667000000000001	n/a	Yes	3.079	n/a	n/a	GoodResponse	1	n/a	n/a	9	68	Blank	Win	True
647.869	1.45	Win2	0.6667000000000001	n/a	Yes	3.079	n/a	5.0	GoodResponse	1	0.045	646.914	9	68	Feedback	Win	True
649.323	3.079	Win2	0.6667000000000001	n/a	Yes	3.079	n/a	n/a	GoodResponse	1	0.0	n/a	9	68	ISIslide	Win	True
652.416	0.25	Win2	0.6714	0.0	Yes	3.234	0.016	n/a	GoodResponse	1	n/a	n/a	10	69	Cue	Win	True
652.667	3.95	Win2	0.6714	0.0	Yes	3.234	0.001	n/a	GoodResponse	1	n/a	n/a	10	69	Fixation	Win	True
656.612	0.22	Win2	0.6714	0.004	Yes	3.234	-0.004	4.0	GoodResponse	1	0.21	655.822	10	69	Target	Win	True
656.822	0.3	Win2	0.6714	0.004	Yes	3.234	-0.004	4.0	GoodResponse	1	0.21	n/a	10	69	ButtonPress	Win	True
656.846	0.48	Win2	0.6714	n/a	Yes	3.234	n/a	n/a	GoodResponse	1	n/a	n/a	10	69	Blank	Win	True
657.314	1.45	Win2	0.6714	n/a	Yes	3.234	n/a	5.0	GoodResponse	1	0.015	656.329	10	69	Feedback	Win	True
658.768	3.234	Win2	0.6714	n/a	Yes	3.234	n/a	n/a	GoodResponse	1	0.0	n/a	10	69	ISIslide	Win	True
662.028	0.25	Lose2	0.662	0.0	No	3.022	0.028	n/a	NoResponse	-1	n/a	n/a	9	70	Cue	Loss	True
662.279	4.05	Lose2	0.662	0.0	No	3.022	0.001	n/a	NoResponse	-1	n/a	n/a	9	70	Fixation	Loss	True
666.324	0.21	Lose2	0.662	0.004	No	3.022	-0.004	4.0	NoResponse	-1	0.223	665.547	9	70	Target	Loss	True
666.541	0.49	Lose2	0.662	n/a	No	3.022	n/a	n/a	NoResponse	-1	n/a	n/a	9	70	Blank	Loss	True
666.547	0.3	Lose2	0.662	0.004	No	3.022	-0.004	4.0	NoResponse	-1	0.223	n/a	9	70	ButtonPress	Loss	True
667.026	1.45	Lose2	0.662	n/a	No	3.022	n/a	5.0	NoResponse	-1	0.01	666.036	9	70	Feedback	Loss	True
668.481	3.022	Lose2	0.662	n/a	No	3.022	n/a	n/a	NoResponse	-1	0.0	n/a	9	70	ISIslide	Loss	True
671.523	0.25	Win2	0.6528	0.0	No	2.727	0.023	n/a	NoResponse	0	n/a	n/a	9	71	Cue	MissedWin	True
671.774	4.05	Win2	0.6528	0.0	No	2.727	0.001	n/a	NoResponse	0	n/a	n/a	9	71	Fixation	MissedWin	True
675.819	0.21	Win2	0.6528	0.004	No	2.727	-0.004	4.0	NoResponse	0	0.223	675.042	9	71	Target	MissedWin	True
676.036	0.49	Win2	0.6528	n/a	No	2.727	n/a	n/a	NoResponse	0	n/a	n/a	9	71	Blank	MissedWin	True
676.042	0.3	Win2	0.6528	0.004	No	2.727	-0.004	4.0	NoResponse	0	0.223	n/a	9	71	ButtonPress	MissedWin	True
676.521	1.45	Win2	0.6528	n/a	No	2.727	n/a	5.0	NoResponse	0	0.026	675.547	9	71	Feedback	MissedWin	True
677.976	2.727	Win2	0.6528	n/a	No	2.727	n/a	n/a	NoResponse	0	0.0	n/a	9	71	ISIslide	MissedWin	True
680.717	0.25	Win2	0.6575	0.0	Yes	2.783	0.017	n/a	GoodResponse	1	n/a	n/a	10	72	Cue	Win	True
680.968	4.1	Win2	0.6575	0.0	Yes	2.783	0.001	n/a	GoodResponse	1	n/a	n/a	10	72	Fixation	Win	True
685.063	0.22	Win2	0.6575	0.004	Yes	2.783	-0.004	4.0	GoodResponse	1	0.185	684.248	10	72	Target	Win	True
685.248	0.3	Win2	0.6575	0.004	Yes	2.783	-0.004	4.0	GoodResponse	1	0.185	n/a	10	72	ButtonPress	Win	True
685.297	0.48	Win2	0.6575	n/a	Yes	2.783	n/a	n/a	GoodResponse	1	n/a	n/a	10	72	Blank	Win	True
685.765	1.45	Win2	0.6575	n/a	Yes	2.783	n/a	5.0	GoodResponse	1	0.002	684.767	10	72	Feedback	Win	True
687.22	2.783	Win2	0.6575	n/a	Yes	2.783	n/a	n/a	GoodResponse	1	0.0	n/a	10	72	ISIslide	Win	True
690.028	0.25	Win2	0.6622	0.0	Yes	2.672	0.028	n/a	GoodResponse	1	n/a	n/a	11	73	Cue	Win	True
690.279	4.0	Win2	0.6622	0.0	Yes	2.672	0.001	n/a	GoodResponse	1	n/a	n/a	11	73	Fixation	Win	True
694.274	0.22	Win2	0.6622	0.004	Yes	2.672	-0.004	4.0	GoodResponse	1	0.188	693.462	11	73	Target	Win	True
694.462	0.3	Win2	0.6622	0.004	Yes	2.672	-0.004	4.0	GoodResponse	1	0.188	n/a	11	73	ButtonPress	Win	True
694.508	0.48	Win2	0.6622	n/a	Yes	2.672	n/a	n/a	GoodResponse	1	n/a	n/a	11	73	Blank	Win	True
694.976	1.45	Win2	0.6622	n/a	Yes	2.672	n/a	5.0	GoodResponse	1	0.011	693.987	11	73	Feedback	Win	True
696.431	2.672	Win2	0.6622	n/a	Yes	2.672	n/a	n/a	GoodResponse	1	0.0	n/a	11	73	ISIslide	Win	True
699.122	0.25	Lose2	0.6667000000000001	0.0	Yes	2.628	0.022	n/a	GoodResponse	0	n/a	n/a	11	74	Cue	AvoidedLoss	True
699.373	4.05	Lose2	0.6667000000000001	0.0	Yes	2.628	0.001	n/a	GoodResponse	0	n/a	n/a	11	74	Fixation	AvoidedLoss	True
703.418	0.22	Lose2	0.6667000000000001	0.004	Yes	2.628	-0.004	4.0	GoodResponse	0	0.201	702.619	11	74	Target	AvoidedLoss	True
703.619	0.3	Lose2	0.6667000000000001	0.004	Yes	2.628	-0.004	4.0	GoodResponse	0	0.201	n/a	11	74	ButtonPress	AvoidedLoss	True
703.652	0.48	Lose2	0.6667000000000001	n/a	Yes	2.628	n/a	n/a	GoodResponse	0	n/a	n/a	11	74	Blank	AvoidedLoss	True
704.12	1.45	Lose2	0.6667000000000001	n/a	Yes	2.628	n/a	5.0	GoodResponse	0	0.036	703.156	11	74	Feedback	AvoidedLoss	True
705.575	2.628	Lose2	0.6667000000000001	n/a	Yes	2.628	n/a	n/a	GoodResponse	0	0.0	n/a	11	74	ISIslide	AvoidedLoss	True
708.216	0.25	Lose2	0.6579	0.0	No	2.934	0.016	n/a	NoResponse	-1	n/a	n/a	10	75	Cue	Loss	True
708.466	3.95	Lose2	0.6579	0.001	No	2.934	0.0	n/a	NoResponse	-1	n/a	n/a	10	75	Fixation	Loss	True
712.412	0.21	Lose2	0.6579	0.004	No	2.934	-0.004	4.0	NoResponse	-1	0.23	711.642	10	75	Target	Loss	True
712.629	0.49	Lose2	0.6579	n/a	No	2.934	n/a	n/a	NoResponse	-1	n/a	n/a	10	75	Blank	Loss	True
712.642	0.3	Lose2	0.6579	0.004	No	2.934	-0.004	4.0	NoResponse	-1	0.23	n/a	10	75	ButtonPress	Loss	True
713.114	1.45	Lose2	0.6579	n/a	No	2.934	n/a	5.0	NoResponse	-1	0.018	712.132	10	75	Feedback	Loss	True
714.568	2.934	Lose2	0.6579	n/a	No	2.934	n/a	n/a	NoResponse	-1	0.0	n/a	10	75	ISIslide	Loss	True
717.527	0.25	Control	0.6623	0.0	Yes	3.223	0.027	n/a	GoodResponse	0	n/a	n/a	10	76	Cue	Neutral	True
717.778	4.05	Control	0.6623	0.0	Yes	3.223	0.001	n/a	GoodResponse	0	n/a	n/a	10	76	Fixation	Neutral	True
721.823	0.21	Control	0.6623	0.004	Yes	3.223	-0.004	4.0	GoodResponse	0	0.203	721.026	10	76	Target	Neutral	True
722.026	0.3	Control	0.6623	0.004	Yes	3.223	-0.004	4.0	GoodResponse	0	0.203	n/a	10	76	ButtonPress	Neutral	True
722.04	0.49	Control	0.6623	n/a	Yes	3.223	n/a	n/a	GoodResponse	0	n/a	n/a	10	76	Blank	Neutral	True
722.525	1.45	Control	0.6623	n/a	Yes	3.223	n/a	5.0	GoodResponse	0	0.022	721.547	10	76	Feedback	Neutral	True
723.979	3.223	Control	0.6623	n/a	Yes	3.223	n/a	n/a	GoodResponse	0	0.0	n/a	10	76	ISIslide	Neutral	True
727.222	0.25	Lose2	0.6667000000000001	0.0	Yes	2.578	0.022	n/a	GoodResponse	0	n/a	n/a	10	77	Cue	AvoidedLoss	True
727.473	3.95	Lose2	0.6667000000000001	0.0	Yes	2.578	0.001	n/a	GoodResponse	0	n/a	n/a	10	77	Fixation	AvoidedLoss	True
731.418	0.21	Lose2	0.6667000000000001	0.004	Yes	2.578	-0.004	4.0	GoodResponse	0	0.198	730.616	10	77	Target	AvoidedLoss	True
731.616	0.3	Lose2	0.6667000000000001	0.004	Yes	2.578	-0.004	4.0	GoodResponse	0	0.198	n/a	10	77	ButtonPress	AvoidedLoss	True
731.636	0.49	Lose2	0.6667000000000001	n/a	Yes	2.578	n/a	n/a	GoodResponse	0	n/a	n/a	10	77	Blank	AvoidedLoss	True
732.12	1.45	Lose2	0.6667000000000001	n/a	Yes	2.578	n/a	5.0	GoodResponse	0	0.037	731.157	10	77	Feedback	AvoidedLoss	True
733.575	2.578	Lose2	0.6667000000000001	n/a	Yes	2.578	n/a	n/a	GoodResponse	0	0.0	n/a	10	77	ISIslide	AvoidedLoss	True
