onset	duration	cue_type	current_mean_accuracy	duration_error	is_hit	isi_adjusted	onset_delay	response	response_type	reward	rt	rt_time	total_reward	trial_number	trial_phase	trial_type	one_press
11.108	0.25	Control	1.0	0.0	Yes	2.942	0.008	n/a	GoodResponse	0	n/a	n/a	0	0	Cue	Neutral	True
11.358	3.85	Control	1.0	0.0	Yes	2.942	0.0	n/a	GoodResponse	0	n/a	n/a	0	0	Fixation	Neutral	True
15.22	0.4	Control	1.0	0.0	Yes	2.942	0.012	3.0	GoodResponse	0	0.232	14.452	0	0	Target	Neutral	True
15.452	0.3	Control	1.0	0.0	Yes	2.942	0.012	3.0	GoodResponse	0	0.232	n/a	0	0	ButtonPress	Neutral	True
15.604	0.3	Control	1.0	n/a	Yes	2.942	n/a	n/a	GoodResponse	0	n/a	n/a	0	0	Blank	Neutral	True
15.905	1.45	Control	1.0	n/a	Yes	2.942	n/a	5.0	GoodResponse	0	0.021	14.926	0	0	Feedback	Neutral	True
17.36	2.942	Control	1.0	n/a	Yes	2.942	n/a	n/a	GoodResponse	0	0.0	n/a	0	0	ISIslide	Neutral	True
20.319	0.25	Lose2	1.0	0.0	Yes	2.781	0.019	n/a	GoodResponse	0	n/a	n/a	0	1	Cue	AvoidedLoss	True
20.569	4.0	Lose2	1.0	0.0	Yes	2.781	0.0	n/a	GoodResponse	0	n/a	n/a	0	1	Fixation	AvoidedLoss	True
24.565	0.39	Lose2	1.0	0.004	Yes	2.781	-0.004	3.0	GoodResponse	0	0.253	23.818	0	1	Target	AvoidedLoss	True
24.818	0.3	Lose2	1.0	0.004	Yes	2.781	-0.004	3.0	GoodResponse	0	0.253	n/a	0	1	ButtonPress	AvoidedLoss	True
24.966	0.31	Lose2	1.0	n/a	Yes	2.781	n/a	n/a	GoodResponse	0	n/a	n/a	0	1	Blank	AvoidedLoss	True
25.267	1.45	Lose2	1.0	n/a	Yes	2.781	n/a	5.0	GoodResponse	0	0.025	24.292	0	1	Feedback	AvoidedLoss	True
26.721	2.781	Lose2	1.0	n/a	Yes	2.781	n/a	n/a	GoodResponse	0	0.0	n/a	0	1	ISIslide	AvoidedLoss	True
29.513	0.25	Control	1.0	0.0	Yes	2.587	0.013	n/a	GoodResponse	0	n/a	n/a	0	2	Cue	Neutral	True
29.763	4.1	Control	1.0	0.0	Yes	2.587	0.0	n/a	GoodResponse	0	n/a	n/a	0	2	Fixation	Neutral	True
33.859	0.38	Control	1.0	0.004	Yes	2.587	-0.004	3.0	GoodResponse	0	0.249	33.108	0	2	Target	Neutral	True
34.108	0.3	Control	1.0	0.004	Yes	2.587	-0.004	3.0	GoodResponse	0	0.249	n/a	0	2	ButtonPress	Neutral	True
34.243	0.32	Control	1.0	n/a	Yes	2.587	n/a	n/a	GoodResponse	0	n/a	n/a	0	2	Blank	Neutral	True
34.561	1.45	Control	1.0	n/a	Yes	2.587	n/a	5.0	GoodResponse	0	0.047	33.608	0	2	Feedback	Neutral	True
36.015	2.587	Control	1.0	n/a	Yes	2.587	n/a	n/a	GoodResponse	0	0.0	n/a	0	2	ISIslide	Neutral	True
38.623	0.25	Win2	1.0	0.0	Yes	2.827	0.023	n/a	GoodResponse	1	n/a	n/a	1	3	Cue	Win	False
38.874	3.95	Win2	1.0	0.0	Yes	2.827	0.001	3.0	GoodResponse	1	3.57	41.444	1	3	Fixation	Win	False
42.444	0.3	Win2	1.0	0.0	Yes	2.827	0.001	3.0	GoodResponse	1	3.57	n/a	1	3	ButtonPress	Win	False
42.819	0.37	Win2	1.0	0.004	Yes	2.827	-0.004	3.0	GoodResponse	1	0.303	42.122	1	3	Target	Win	False
43.122	0.3	Win2	1.0	0.004	Yes	2.827	-0.004	3.0	GoodResponse	1	0.303	n/a	1	3	ButtonPress	Win	False
43.204	0.33	Win2	1.0	n/a	Yes	2.827	n/a	n/a	GoodResponse	1	n/a	n/a	1	3	Blank	Win	False
43.521	1.45	Win2	1.0	n/a	Yes	2.827	n/a	5.0	GoodResponse	1	0.014	42.535	1	3	Feedback	Win	False
44.976	2.827	Win2	1.0	n/a	Yes	2.827	n/a	n/a	GoodResponse	1	0.0	n/a	1	3	ISIslide	Win	False
47.817	0.25	Win2	1.0	0.0	Yes	3.283	0.017	n/a	GoodResponse	1	n/a	n/a	2	4	Cue	Win	True
48.068	4.0	Win2	1.0	0.0	Yes	3.283	0.001	n/a	GoodResponse	1	n/a	n/a	2	4	Fixation	Win	True
52.063	0.36	Win2	1.0	0.004	Yes	3.283	-0.004	3.0	GoodResponse	1	0.213	51.276	2	4	Target	Win	True
52.276	0.3	Win2	1.0	0.004	Yes	3.283	-0.004	3.0	GoodResponse	1	0.213	n/a	2	4	ButtonPress	Win	True
52.431	0.34	Win2	1.0	n/a	Yes	3.283	n/a	n/a	GoodResponse	1	n/a	n/a	2	4	Blank	Win	True
52.766	1.45	Win2	1.0	n/a	Yes	3.283	n/a	5.0	GoodResponse	1	0.038	51.804	2	4	Feedback	Win	True
54.22	3.283	Win2	1.0	n/a	Yes	3.283	n/a	n/a	GoodResponse	1	0.0	n/a	2	4	ISIslide	Win	True
57.53	0.25	Win2	1.0	0.0	Yes	2.77	0.03	n/a	GoodResponse	1	n/a	n/a	3	5	Cue	Win	True
57.781	4.0	Win2	1.0	0.0	Yes	2.77	0.001	n/a	GoodResponse	1	n/a	n/a	3	5	Fixation	Win	True
61.776	0.35	Win2	1.0	0.004	Yes	2.77	-0.004	3.0	GoodResponse	1	0.214	60.99	3	5	Target	Win	True
61.99	0.3	Win2	1.0	0.004	Yes	2.77	-0.004	3.0	GoodResponse	1	0.214	n/a	3	5	ButtonPress	Win	True
62.127	0.35	Win2	1.0	n/a	Yes	2.77	n/a	n/a	GoodResponse	1	n/a	n/a	3	5	Blank	Win	True
62.478	1.45	Win2	1.0	n/a	Yes	2.77	n/a	5.0	GoodResponse	1	0.033	61.511	3	5	Feedback	Win	True
63.932	2.77	Win2	1.0	n/a	Yes	2.77	n/a	n/a	GoodResponse	1	0.0	n/a	3	5	ISIslide	Win	True
66.724	0.25	Lose2	1.0	0.0	Yes	2.726	0.024	n/a	GoodResponse	0	n/a	n/a	3	6	Cue	AvoidedLoss	True
66.975	3.95	Lose2	1.0	0.0	Yes	2.726	0.001	n/a	GoodResponse	0	n/a	n/a	3	6	Fixation	AvoidedLoss	True
70.92	0.34	Lose2	1.0	0.004	Yes	2.726	-0.004	3.0	GoodResponse	0	0.182	70.102	3	6	Target	AvoidedLoss	True
71.102	0.3	Lose2	1.0	0.004	Yes	2.726	-0.004	3.0	GoodResponse	0	0.182	n/a	3	6	ButtonPress	AvoidedLoss	True
71.271	0.36	Lose2	1.0	n/a	Yes	2.726	n/a	n/a	GoodResponse	0	n/a	n/a	3	6	Blank	AvoidedLoss	True
71.622	1.45	Lose2	1.0	n/a	Yes	2.726	n/a	5.0	GoodResponse	0	0.011	70.633	3	6	Feedback	AvoidedLoss	True
73.076	2.726	Lose2	1.0	n/a	Yes	2.726	n/a	n/a	GoodResponse	0	0.0	n/a	3	6	ISIslide	AvoidedLoss	True
75.818	0.25	Lose2	1.0	0.0	Yes	4.032	0.018	n/a	GoodResponse	0	n/a	n/a	3	7	Cue	AvoidedLoss	True
76.069	4.05	Lose2	1.0	0.0	Yes	4.032	0.001	n/a	GoodResponse	0	n/a	n/a	3	7	Fixation	AvoidedLoss	True
80.114	0.33	Lose2	1.0	0.004	Yes	4.032	-0.004	3.0	GoodResponse	0	0.178	79.292	3	7	Target	AvoidedLoss	True
80.292	0.3	Lose2	1.0	0.004	Yes	4.032	-0.004	3.0	GoodResponse	0	0.178	n/a	3	7	ButtonPress	AvoidedLoss	True
80.448	0.37	Lose2	1.0	n/a	Yes	4.032	n/a	n/a	GoodResponse	0	n/a	n/a	3	7	Blank	AvoidedLoss	True
80.816	1.45	Lose2	1.0	n/a	Yes	4.032	n/a	5.0	GoodResponse	0	0.036	79.852	3	7	Feedback	AvoidedLoss	True
82.27	4.032	Lose2	1.0	n/a	Yes	4.032	n/a	n/a	GoodResponse	0	0.0	n/a	3	7	ISIslide	AvoidedLoss	True
86.316	0.25	Lose2	1.0	0.0	Yes	3.034	0.016	n/a	GoodResponse	0	n/a	n/a	3	8	Cue	AvoidedLoss	True
86.567	3.95	Lose2	1.0	0.0	Yes	3.034	0.001	n/a	GoodResponse	0	n/a	n/a	3	8	Fixation	AvoidedLoss	True
90.512	0.32	Lose2	1.0	0.004	Yes	3.034	-0.004	3.0	GoodResponse	0	0.242	89.754	3	8	Target	AvoidedLoss	True
90.754	0.3	Lose2	1.0	0.004	Yes	3.034	-0.004	3.0	GoodResponse	0	0.242	n/a	3	8	ButtonPress	AvoidedLoss	True
90.846	0.38	Lose2	1.0	n/a	Yes	3.034	n/a	n/a	GoodResponse	0	n/a	n/a	3	8	Blank	AvoidedLoss	True
91.214	1.45	Lose2	1.0	n/a	Yes	3.034	n/a	5.0	GoodResponse	0	0.028	90.242	3	8	Feedback	AvoidedLoss	True
92.668	3.034	Lose2	1.0	n/a	Yes	3.034	n/a	n/a	GoodResponse	0	0.0	n/a	3	8	ISIslide	AvoidedLoss	True
95.727	0.25	Lose2	1.0	0.0	Yes	3.123	0.027	n/a	GoodResponse	0	n/a	n/a	3	9	Cue	AvoidedLoss	True
95.978	3.95	Lose2	1.0	0.0	Yes	3.123	0.001	n/a	GoodResponse	0	n/a	n/a	3	9	Fixation	AvoidedLoss	True
99.923	0.31	Lose2	1.0	0.004	Yes	3.123	-0.004	3.0	GoodResponse	0	0.172	99.095	3	9	Target	AvoidedLoss	True
100.095	0.3	Lose2	1.0	0.004	Yes	3.123	-0.004	3.0	GoodResponse	0	0.172	n/a	3	9	ButtonPress	AvoidedLoss	True
100.241	0.39	Lose2	1.0	n/a	Yes	3.123	n/a	n/a	GoodResponse	0	n/a	n/a	3	9	Blank	AvoidedLoss	True
100.625	1.45	Lose2	1.0	n/a	Yes	3.123	n/a	5.0	GoodResponse	0	0.032	99.657	3	9	Feedback	AvoidedLoss	True
102.08	3.123	Lose2	1.0	n/a	Yes	3.123	n/a	n/a	GoodResponse	0	0.0	n/a	3	9	ISIslide	AvoidedLoss	True
105.222	0.25	Control	1.0	0.0	Yes	3.278	0.022	n/a	GoodResponse	0	n/a	n/a	3	10	Cue	Neutral	True
105.473	4.0	Control	1.0	0.0	Yes	3.278	0.001	n/a	GoodResponse	0	n/a	n/a	3	10	Fixation	Neutral	True
109.468	0.3	Control	1.0	0.004	Yes	3.278	-0.004	3.0	GoodResponse	0	0.171	108.639	3	10	Target	Neutral	True
109.639	0.3	Control	1.0	0.004	Yes	3.278	-0.004	3.0	GoodResponse	0	0.171	n/a	3	10	ButtonPress	Neutral	True
109.769	0.4	Control	1.0	n/a	Yes	3.278	n/a	n/a	GoodResponse	0	n/a	n/a	3	10	Blank	Neutral	True
110.171	1.45	Control	1.0	n/a	Yes	3.278	n/a	5.0	GoodResponse	0	0.047	109.218	3	10	Feedback	Neutral	True
111.625	3.278	Control	1.0	n/a	Yes	3.278	n/a	n/a	GoodResponse	0	0.0	n/a	3	10	ISIslide	Neutral	True
114.918	0.25	Lose2	1.0	0.0	Yes	2.732	0.018	n/a	GoodResponse	0	n/a	n/a	3	11	Cue	AvoidedLoss	True
115.169	4.05	Lose2	1.0	0.0	Yes	2.732	0.001	n/a	GoodResponse	0	n/a	n/a	3	11	Fixation	AvoidedLoss	True
119.214	0.29	Lose2	1.0	0.004	Yes	2.732	-0.004	3.0	GoodResponse	0	0.17	118.384	3	11	Target	AvoidedLoss	True
119.384	0.3	Lose2	1.0	0.004	Yes	2.732	-0.004	3.0	GoodResponse	0	0.17	n/a	3	11	ButtonPress	AvoidedLoss	True
119.515	0.41	Lose2	1.0	n/a	Yes	2.732	n/a	n/a	GoodResponse	0	n/a	n/a	3	11	Blank	AvoidedLoss	True
119.916	1.45	Lose2	1.0	n/a	Yes	2.732	n/a	5.0	GoodResponse	0	0.008	118.924	3	11	Feedback	AvoidedLoss	True
121.371	2.732	Lose2	1.0	n/a	Yes	2.732	n/a	n/a	GoodResponse	0	0.0	n/a	3	11	ISIslide	AvoidedLoss	True
124.112	0.25	Control	1.0	0.0	Yes	2.988	0.012	n/a	GoodResponse	0	n/a	n/a	3	12	Cue	Neutral	True
124.363	3.9	Control	1.0	0.0	Yes	2.988	0.001	n/a	GoodResponse	0	n/a	n/a	3	12	Fixation	Neutral	True
128.258	0.28	Control	1.0	0.004	Yes	2.988	-0.004	3.0	GoodResponse	0	0.188	127.446	3	12	Target	Neutral	True
128.446	0.3	Control	1.0	0.004	Yes	2.988	-0.004	3.0	GoodResponse	0	0.188	n/a	3	12	ButtonPress	Neutral	True
128.542	0.42	Control	1.0	n/a	Yes	2.988	n/a	n/a	GoodResponse	0	n/a	n/a	3	12	Blank	Neutral	True
128.96	1.45	Control	1.0	n/a	Yes	2.988	n/a	5.0	GoodResponse	0	0.038	127.998	3	12	Feedback	Neutral	True
130.414	2.988	Control	1.0	n/a	Yes	2.988	n/a	n/a	GoodResponse	0	0.0	n/a	3	12	ISIslide	Neutral	True
133.423	0.25	Control	1.0	0.0	Yes	2.777	0.023	n/a	GoodResponse	0	n/a	n/a	3	13	Cue	Neutral	True
133.674	4.0	Control	1.0	0.0	Yes	2.777	0.001	n/a	GoodResponse	0	n/a	n/a	3	13	Fixation	Neutral	True
137.669	0.27	Control	1.0	0.004	Yes	2.777	-0.004	3.0	GoodResponse	0	0.223	136.892	3	13	Target	Neutral	True
137.892	0.3	Control	1.0	0.004	Yes	2.777	-0.004	3.0	GoodResponse	0	0.223	n/a	3	13	ButtonPress	Neutral	True
137.954	0.43	Control	1.0	n/a	Yes	2.777	n/a	n/a	GoodResponse	0	n/a	n/a	3	13	Blank	Neutral	True
138.371	1.45	Control	1.0	n/a	Yes	2.777	n/a	5.0	GoodResponse	0	0.042	137.413	3	13	Feedback	Neutral	True
139.826	2.777	Control	1.0	n/a	Yes	2.777	n/a	n/a	GoodResponse	0	0.0	n/a	3	13	ISIslide	Neutral	True
142.618	0.25	Win2	1.0	0.0	Yes	2.682	0.018	n/a	GoodResponse	1	n/a	n/a	4	14	Cue	Win	True
142.868	4.1	Win2	1.0	0.0	Yes	2.682	0.0	n/a	GoodResponse	1	n/a	n/a	4	14	Fixation	Win	True
146.964	0.26	Win2	1.0	0.004	Yes	2.682	-0.004	3.0	GoodResponse	1	0.184	146.148	4	14	Target	Win	True
147.148	0.3	Win2	1.0	0.004	Yes	2.682	-0.004	3.0	GoodResponse	1	0.184	n/a	4	14	ButtonPress	Win	True
147.231	0.44	Win2	1.0	n/a	Yes	2.682	n/a	n/a	GoodResponse	1	n/a	n/a	4	14	Blank	Win	True
147.666	1.45	Win2	1.0	n/a	Yes	2.682	n/a	5.0	GoodResponse	1	0.015	146.681	4	14	Feedback	Win	True
149.12	2.682	Win2	1.0	n/a	Yes	2.682	n/a	n/a	GoodResponse	1	0.0	n/a	4	14	ISIslide	Win	True
151.828	0.25	Control	1.0	0.0	Yes	2.972	0.028	n/a	GoodResponse	0	n/a	n/a	4	15	Cue	Neutral	True
152.079	4.0	Control	1.0	0.0	Yes	2.972	0.001	n/a	GoodResponse	0	n/a	n/a	4	15	Fixation	Neutral	True
156.074	0.25	Control	1.0	0.004	Yes	2.972	-0.004	3.0	GoodResponse	0	0.185	155.259	4	15	Target	Neutral	True
156.259	0.3	Control	1.0	0.004	Yes	2.972	-0.004	3.0	GoodResponse	0	0.185	n/a	4	15	ButtonPress	Neutral	True
156.325	0.45	Control	1.0	n/a	Yes	2.972	n/a	n/a	GoodResponse	0	n/a	n/a	4	15	Blank	Neutral	True
156.777	1.45	Control	1.0	n/a	Yes	2.972	n/a	5.0	GoodResponse	0	0.026	155.803	4	15	Feedback	Neutral	True
158.231	2.972	Control	1.0	n/a	Yes	2.972	n/a	n/a	GoodResponse	0	0.0	n/a	4	15	ISIslide	Neutral	True
161.223	0.25	Win2	0.9412	0.0	No	2.877	0.023	n/a	NoResponse	0	n/a	n/a	4	16	Cue	MissedWin	True
161.474	4.0	Win2	0.9412	0.0	No	2.877	0.001	n/a	NoResponse	0	n/a	n/a	4	16	Fixation	MissedWin	True
165.469	0.24	Win2	0.9412	0.004	No	2.877	-0.004	3.0	NoResponse	0	0.258	164.727	4	16	Target	MissedWin	True
165.72	0.46	Win2	0.9412	n/a	No	2.877	n/a	n/a	NoResponse	0	n/a	n/a	4	16	Blank	MissedWin	True
165.727	0.3	Win2	0.9412	0.004	No	2.877	-0.004	3.0	NoResponse	0	0.258	n/a	4	16	ButtonPress	MissedWin	True
166.171	1.45	Win2	0.9412	n/a	No	2.877	n/a	5.0	NoResponse	0	0.046	165.217	4	16	Feedback	MissedWin	True
167.626	2.877	Win2	0.9412	n/a	No	2.877	n/a	n/a	NoResponse	0	0.0	n/a	4	16	ISIslide	MissedWin	True
170.518	0.25	Lose2	0.9444	0.0	Yes	2.732	0.018	n/a	GoodResponse	0	n/a	n/a	4	17	Cue	AvoidedLoss	True
170.768	3.95	Lose2	0.9444	0.0	Yes	2.732	0.0	n/a	GoodResponse	0	n/a	n/a	4	17	Fixation	AvoidedLoss	True
174.73	0.23	Lose2	0.9444	0.0	Yes	2.732	0.012	3.0	GoodResponse	0	0.192	173.922	4	17	Target	AvoidedLoss	True
174.922	0.3	Lose2	0.9444	0.0	Yes	2.732	0.012	3.0	GoodResponse	0	0.192	n/a	4	17	ButtonPress	AvoidedLoss	True
174.948	0.47	Lose2	0.9444	n/a	Yes	2.732	n/a	n/a	GoodResponse	0	n/a	n/a	4	17	Blank	AvoidedLoss	True
175.416	1.45	Lose2	0.9444	n/a	Yes	2.732	n/a	5.0	GoodResponse	0	0.02	174.436	4	17	Feedback	AvoidedLoss	True
176.87	2.732	Lose2	0.9444	n/a	Yes	2.732	n/a	n/a	GoodResponse	0	0.0	n/a	4	17	ISIslide	AvoidedLoss	True
179.628	0.25	Lose2	0.9473999999999999	0.0	Yes	2.722	0.028	n/a	GoodResponse	0	n/a	n/a	4	18	Cue	AvoidedLoss	True
179.879	4.05	Lose2	0.9473999999999999	0.0	Yes	2.722	0.001	n/a	GoodResponse	0	n/a	n/a	4	18	Fixation	AvoidedLoss	True
183.924	0.22	Lose2	0.9473999999999999	0.004	Yes	2.722	-0.004	3.0	GoodResponse	0	0.168	183.092	4	18	Target	AvoidedLoss	True
184.092	0.3	Lose2	0.9473999999999999	0.004	Yes	2.722	-0.004	3.0	GoodResponse	0	0.168	n/a	4	18	ButtonPress	AvoidedLoss	True
184.158	0.48	Lose2	0.9473999999999999	n/a	Yes	2.722	n/a	n/a	GoodResponse	0	n/a	n/a	4	18	Blank	AvoidedLoss	True
184.626	1.45	Lose2	0.9473999999999999	n/a	Yes	2.722	n/a	5.0	GoodResponse	0	0.03	183.656	4	18	Feedback	AvoidedLoss	True
186.081	2.722	Lose2	0.9473999999999999	n/a	Yes	2.722	n/a	n/a	GoodResponse	0	0.0	n/a	4	18	ISIslide	AvoidedLoss	True
188.822	0.25	Control	0.95	0.0	Yes	2.928	0.022	n/a	GoodResponse	0	n/a	n/a	4	19	Cue	Neutral	True
189.073	3.95	Control	0.95	0.0	Yes	2.928	0.001	n/a	GoodResponse	0	n/a	n/a	4	19	Fixation	Neutral	True
193.018	0.21	Control	0.95	0.004	Yes	2.928	-0.004	3.0	GoodResponse	0	0.188	192.206	4	19	Target	Neutral	True
193.206	0.3	Control	0.95	0.004	Yes	2.928	-0.004	3.0	GoodResponse	0	0.188	n/a	4	19	ButtonPress	Neutral	True
193.236	0.49	Control	0.95	n/a	Yes	2.928	n/a	n/a	GoodResponse	0	n/a	n/a	4	19	Blank	Neutral	True
193.72	1.45	Control	0.95	n/a	Yes	2.928	n/a	5.0	GoodResponse	0	0.009	192.729	4	19	Feedback	Neutral	True
195.175	2.928	Control	0.95	n/a	Yes	2.928	n/a	n/a	GoodResponse	0	0.0	n/a	4	19	ISIslide	Neutral	True
198.117	0.25	Control	0.9523999999999999	0.0	Yes	2.633	0.017	n/a	GoodResponse	0	n/a	n/a	4	20	Cue	Neutral	True
198.368	4.05	Control	0.9523999999999999	0.0	Yes	2.633	0.001	n/a	GoodResponse	0	n/a	n/a	4	20	Fixation	Neutral	True
202.413	0.2	Control	0.9523999999999999	0.004	Yes	2.633	-0.004	3.0	GoodResponse	0	0.175	201.588	4	20	Target	Neutral	True
202.588	0.3	Control	0.9523999999999999	0.004	Yes	2.633	-0.004	3.0	GoodResponse	0	0.175	n/a	4	20	ButtonPress	Neutral	True
202.614	0.5	Control	0.9523999999999999	n/a	Yes	2.633	n/a	n/a	GoodResponse	0	n/a	n/a	4	20	Blank	Neutral	True
203.115	1.45	Control	0.9523999999999999	n/a	Yes	2.633	n/a	5.0	GoodResponse	0	0.028	202.143	4	20	Feedback	Neutral	True
204.569	2.633	Control	0.9523999999999999	n/a	Yes	2.633	n/a	n/a	GoodResponse	0	0.0	n/a	4	20	ISIslide	Neutral	True
207.227	0.25	Control	0.9091	0.0	No	2.773	0.027	n/a	NoResponse	0	n/a	n/a	4	21	Cue	Neutral	False
207.478	4.1	Control	0.9091	0.0	No	2.773	0.001	3.0	NoResponse	0	2.39	208.868	4	21	Fixation	Neutral	False
209.868	0.3	Control	0.9091	0.0	No	2.773	0.001	3.0	NoResponse	0	2.39	n/a	4	21	ButtonPress	Neutral	False
211.574	0.19	Control	0.9091	0.003	No	2.773	-0.003	3.0	NoResponse	0	0.236	210.81	4	21	Target	Neutral	False
211.774	0.51	Control	0.9091	n/a	No	2.773	n/a	n/a	NoResponse	0	n/a	n/a	4	21	Blank	Neutral	False
211.81	0.3	Control	0.9091	0.003	No	2.773	-0.003	3.0	NoResponse	0	0.236	n/a	4	21	ButtonPress	Neutral	False
212.276	1.45	Control	0.9091	n/a	No	2.773	n/a	5.0	NoResponse	0	0.038	211.314	4	21	Feedback	Neutral	False
213.73	2.773	Control	0.9091	n/a	No	2.773	n/a	n/a	NoResponse	0	0.0	n/a	4	21	ISIslide	Neutral	False
216.522	0.25	Control	0.8695999999999999	0.0	No	2.778	0.022	n/a	NoResponse	0	n/a	n/a	4	22	Cue	Neutral	True
216.773	4.0	Control	0.8695999999999999	0.0	No	2.778	0.001	n/a	NoResponse	0	n/a	n/a	4	22	Fixation	Neutral	True
220.768	0.18	Control	0.8695999999999999	0.004	No	2.778	-0.004	3.0	NoResponse	0	0.209	219.977	4	22	Target	Neutral	True
220.952	0.52	Control	0.8695999999999999	n/a	No	2.778	n/a	n/a	NoResponse	0	n/a	n/a	4	22	Blank	Neutral	True
220.977	0.3	Control	0.8695999999999999	0.004	No	2.778	-0.004	3.0	NoResponse	0	0.209	n/a	4	22	ButtonPress	Neutral	True
221.47	1.45	Control	0.8695999999999999	n/a	No	2.778	n/a	5.0	NoResponse	0	0.015	220.485	4	22	Feedback	Neutral	True
222.924	2.778	Control	0.8695999999999999	n/a	No	2.778	n/a	n/a	NoResponse	0	0.0	n/a	4	22	ISIslide	Neutral	True
225.716	0.25	Control	0.875	0.0	Yes	2.784	0.016	n/a	GoodResponse	0	n/a	n/a	4	23	Cue	Neutral	True
225.967	3.9	Control	0.875	0.0	Yes	2.784	0.001	n/a	GoodResponse	0	n/a	n/a	4	23	Fixation	Neutral	True
229.862	0.17	Control	0.875	0.004	Yes	2.784	-0.004	3.0	GoodResponse	0	0.168	229.03	4	23	Target	Neutral	True
230.03	0.3	Control	0.875	0.004	Yes	2.784	-0.004	3.0	GoodResponse	0	0.168	n/a	4	23	ButtonPress	Neutral	True
230.046	0.53	Control	0.875	n/a	Yes	2.784	n/a	n/a	GoodResponse	0	n/a	n/a	4	23	Blank	Neutral	True
230.564	1.45	Control	0.875	n/a	Yes	2.784	n/a	5.0	GoodResponse	0	0.043	229.607	4	23	Feedback	Neutral	True
232.018	2.784	Control	0.875	n/a	Yes	2.784	n/a	3.0	GoodResponse	0	1.316	n/a	4	23	ISIslide	Neutral	True
234.81	0.25	Win2	0.84	0.0	No	3.14	0.01	n/a	LatePress	0	n/a	n/a	4	24	Cue	MissedWin	True
235.061	3.95	Win2	0.84	0.0	No	3.14	0.001	n/a	LatePress	0	n/a	n/a	4	24	Fixation	MissedWin	True
239.006	0.16	Win2	0.84	0.004	No	3.14	-0.004	3.0	LatePress	0	0.162	238.168	4	24	Target	MissedWin	True
239.168	0.3	Win2	0.84	0.004	No	3.14	-0.004	3.0	LatePress	0	0.162	n/a	4	24	ButtonPress	MissedWin	True
239.173	0.54	Win2	0.84	n/a	No	3.14	n/a	n/a	LatePress	0	n/a	n/a	4	24	Blank	MissedWin	True
239.708	1.45	Win2	0.84	n/a	No	3.14	n/a	5.0	LatePress	0	0.021	238.729	4	24	Feedback	MissedWin	True
241.162	3.14	Win2	0.84	n/a	No	3.14	n/a	n/a	LatePress	0	0.0	n/a	4	24	ISIslide	MissedWin	True
244.322	0.25	Win2	0.8077	0.0	No	3.078	0.022	n/a	NoResponse	0	n/a	n/a	4	25	Cue	MissedWin	True
244.572	4.0	Win2	0.8077	0.0	No	3.078	0.0	n/a	NoResponse	0	n/a	n/a	4	25	Fixation	MissedWin	True
248.568	0.15	Win2	0.8077	0.004	No	3.078	-0.004	3.0	NoResponse	0	0.169	247.737	4	25	Target	MissedWin	True
248.718	0.55	Win2	0.8077	n/a	No	3.078	n/a	n/a	NoResponse	0	n/a	n/a	4	25	Blank	MissedWin	True
248.737	0.3	Win2	0.8077	0.004	No	3.078	-0.004	3.0	NoResponse	0	0.169	n/a	4	25	ButtonPress	MissedWin	True
249.27	1.45	Win2	0.8077	n/a	No	3.078	n/a	5.0	NoResponse	0	0.019	248.289	4	25	Feedback	MissedWin	True
250.724	3.078	Win2	0.8077	n/a	No	3.078	n/a	n/a	NoResponse	0	0.0	n/a	4	25	ISIslide	MissedWin	True
253.817	0.25	Win2	0.7778	0.0	No	2.933	0.017	n/a	NoResponse	0	n/a	n/a	4	26	Cue	MissedWin	True
254.067	3.95	Win2	0.7778	0.0	No	2.933	0.0	n/a	NoResponse	0	n/a	n/a	4	26	Fixation	MissedWin	True
258.013	0.15	Win2	0.7778	0.004	No	2.933	-0.004	3.0	NoResponse	0	0.26	257.273	4	26	Target	MissedWin	True
258.163	0.55	Win2	0.7778	n/a	No	2.933	n/a	n/a	NoResponse	0	n/a	n/a	4	26	Blank	MissedWin	True
258.273	0.3	Win2	0.7778	0.004	No	2.933	-0.004	3.0	NoResponse	0	0.26	n/a	4	26	ButtonPress	MissedWin	True
258.715	1.45	Win2	0.7778	n/a	No	2.933	n/a	5.0	NoResponse	0	0.037	257.752	4	26	Feedback	MissedWin	True
260.169	2.933	Win2	0.7778	n/a	No	2.933	n/a	n/a	NoResponse	0	0.0	n/a	4	26	ISIslide	MissedWin	True
263.128	0.25	Lose2	0.75	0.0	No	2.822	0.028	n/a	NoResponse	-1	n/a	n/a	3	27	Cue	Loss	True
263.379	4.05	Lose2	0.75	0.0	No	2.822	0.001	n/a	NoResponse	-1	n/a	n/a	3	27	Fixation	Loss	True
267.424	0.15	Lose2	0.75	0.004	No	2.822	-0.004	3.0	NoResponse	-1	0.154	266.578	3	27	Target	Loss	True
267.574	0.55	Lose2	0.75	n/a	No	2.822	n/a	n/a	NoResponse	-1	n/a	n/a	3	27	Blank	Loss	True
267.578	0.3	Lose2	0.75	0.004	No	2.822	-0.004	3.0	NoResponse	-1	0.154	n/a	3	27	ButtonPress	Loss	True
268.126	1.45	Lose2	0.75	n/a	No	2.822	n/a	5.0	NoResponse	-1	0.041	267.167	3	27	Feedback	Loss	True
269.58	2.822	Lose2	0.75	n/a	No	2.822	n/a	n/a	NoResponse	-1	0.0	n/a	3	27	ISIslide	Loss	True
272.422	0.25	Control	0.7241	0.0	No	2.828	0.022	n/a	NoResponse	0	n/a	n/a	3	28	Cue	Neutral	True
272.673	4.05	Control	0.7241	0.0	No	2.828	0.001	n/a	NoResponse	0	n/a	n/a	3	28	Fixation	Neutral	True
276.718	0.15	Control	0.7241	0.004	No	2.828	-0.004	3.0	NoResponse	0	0.193	275.911	3	28	Target	Neutral	True
276.869	0.55	Control	0.7241	n/a	No	2.828	n/a	n/a	NoResponse	0	n/a	n/a	3	28	Blank	Neutral	True
276.911	0.3	Control	0.7241	0.004	No	2.828	-0.004	3.0	NoResponse	0	0.193	n/a	3	28	ButtonPress	Neutral	True
277.421	1.45	Control	0.7241	n/a	No	2.828	n/a	5.0	NoResponse	0	0.014	276.435	3	28	Feedback	Neutral	True
278.875	2.828	Control	0.7241	n/a	No	2.828	n/a	n/a	NoResponse	0	0.0	n/a	3	28	ISIslide	Neutral	True
281.717	0.25	Lose2	0.7	0.0	No	2.833	0.017	n/a	NoResponse	-1	n/a	n/a	2	29	Cue	Loss	False
281.967	3.95	Lose2	0.7	0.001	No	2.833	0.0	3.0	NoResponse	-1	2.864	283.831	2	29	Fixation	Loss	False
284.831	0.3	Lose2	0.7	0.001	No	2.833	0.0	3.0	NoResponse	-1	2.864	n/a	2	29	ButtonPress	Loss	False
285.913	0.15	Lose2	0.7	0.004	No	2.833	-0.004	3.0	NoResponse	-1	0.2	285.113	2	29	Target	Loss	False
286.063	0.55	Lose2	0.7	n/a	No	2.833	n/a	n/a	NoResponse	-1	n/a	n/a	2	29	Blank	Loss	False
286.113	0.3	Lose2	0.7	0.004	No	2.833	-0.004	3.0	NoResponse	-1	0.2	n/a	2	29	ButtonPress	Loss	False
286.615	1.45	Lose2	0.7	n/a	No	2.833	n/a	5.0	NoResponse	-1	0.039	285.654	2	29	Feedback	Loss	False
288.069	2.833	Lose2	0.7	n/a	No	2.833	n/a	n/a	NoResponse	-1	0.0	n/a	2	29	ISIslide	Loss	False
290.928	0.25	Win2	0.6774	0.0	No	2.772	0.028	n/a	NoResponse	0	n/a	n/a	2	30	Cue	MissedWin	True
291.178	3.9	Win2	0.6774	0.0	No	2.772	0.0	n/a	NoResponse	0	n/a	n/a	2	30	Fixation	MissedWin	True
295.09	0.15	Win2	0.6774	0.0	No	2.772	0.012	3.0	NoResponse	0	0.199	294.289	2	30	Target	MissedWin	True
295.224	0.55	Win2	0.6774	n/a	No	2.772	n/a	n/a	NoResponse	0	n/a	n/a	2	30	Blank	MissedWin	True
295.289	0.3	Win2	0.6774	0.0	No	2.772	0.012	3.0	NoResponse	0	0.199	n/a	2	30	ButtonPress	MissedWin	True
295.775	1.45	Win2	0.6774	n/a	No	2.772	n/a	5.0	NoResponse	0	0.001	294.776	2	30	Feedback	MissedWin	True
297.23	2.772	Win2	0.6774	n/a	No	2.772	n/a	n/a	NoResponse	0	0.0	n/a	2	30	ISIslide	MissedWin	True
300.021	0.25	Lose2	0.6562	0.001	No	2.829	0.021	n/a	NoResponse	-1	n/a	n/a	1	31	Cue	Loss	False
300.272	4.05	Lose2	0.6562	0.0	No	2.829	0.001	3.0	NoResponse	-1	3.081	302.353	1	31	Fixation	Loss	False
303.353	0.3	Lose2	0.6562	0.0	No	2.829	0.001	3.0	NoResponse	-1	3.081	n/a	1	31	ButtonPress	Loss	False
304.318	0.15	Lose2	0.6562	0.003	No	2.829	-0.003	3.0	NoResponse	-1	0.188	303.506	1	31	Target	Loss	False
304.468	0.55	Lose2	0.6562	n/a	No	2.829	n/a	n/a	NoResponse	-1	n/a	n/a	1	31	Blank	Loss	False
304.506	0.3	Lose2	0.6562	0.003	No	2.829	-0.003	3.0	NoResponse	-1	0.188	n/a	1	31	ButtonPress	Loss	False
305.02	1.45	Lose2	0.6562	n/a	No	2.829	n/a	5.0	NoResponse	-1	0.024	304.044	1	31	Feedback	Loss	False
306.474	2.829	Lose2	0.6562	n/a	No	2.829	n/a	n/a	NoResponse	-1	0.0	n/a	1	31	ISIslide	Loss	False
309.316	0.25	Lose2	0.6364	0.0	No	2.634	0.016	n/a	NoResponse	-1	n/a	n/a	0	32	Cue	Loss	True
309.567	4.15	Lose2	0.6364	0.0	No	2.634	0.001	n/a	NoResponse	-1	n/a	n/a	0	32	Fixation	Loss	True
313.712	0.15	Lose2	0.6364	0.004	No	2.634	-0.004	3.0	NoResponse	-1	0.185	312.897	0	32	Target	Loss	True
313.863	0.55	Lose2	0.6364	n/a	No	2.634	n/a	n/a	NoResponse	-1	n/a	n/a	0	32	Blank	Loss	True
313.897	0.3	Lose2	0.6364	0.004	No	2.634	-0.004	3.0	NoResponse	-1	0.185	n/a	0	32	ButtonPress	Loss	True
314.415	1.45	Lose2	0.6364	n/a	No	2.634	n/a	5.0	NoResponse	-1	0.044	313.459	0	32	Feedback	Loss	True
315.869	2.634	Lose2	0.6364	n/a	No	2.634	n/a	n/a	NoResponse	-1	0.0	n/a	0	32	ISIslide	Loss	True
318.527	0.25	Win2	0.6175999999999999	0.0	No	2.673	0.027	n/a	NoResponse	0	n/a	n/a	0	33	Cue	MissedWin	True
318.778	4.0	Win2	0.6175999999999999	0.0	No	2.673	0.001	n/a	NoResponse	0	n/a	n/a	0	33	Fixation	MissedWin	True
322.773	0.16	Win2	0.6175999999999999	0.004	No	2.673	-0.004	3.0	NoResponse	0	0.172	321.945	0	33	Target	MissedWin	True
322.94	0.54	Win2	0.6175999999999999	n/a	No	2.673	n/a	n/a	NoResponse	0	n/a	n/a	0	33	Blank	MissedWin	True
322.945	0.3	Win2	0.6175999999999999	0.004	No	2.673	-0.004	3.0	NoResponse	0	0.172	n/a	0	33	ButtonPress	MissedWin	True
323.475	1.45	Win2	0.6175999999999999	n/a	No	2.673	n/a	5.0	NoResponse	0	0.009	322.484	0	33	Feedback	MissedWin	True
324.929	2.673	Win2	0.6175999999999999	n/a	No	2.673	n/a	n/a	NoResponse	0	0.0	n/a	0	33	ISIslide	MissedWin	True
327.621	0.25	Lose2	0.6	0.0	No	2.629	0.021	3.0	NoResponse	-1	0.233	326.854	-1	34	Cue	Loss	False
327.854	0.3	Lose2	0.6	0.0	No	2.629	0.021	3.0	NoResponse	-1	0.233	n/a	-1	34	ButtonPress	Loss	False
327.871	4.05	Lose2	0.6	0.0	No	2.629	0.0	n/a	NoResponse	-1	n/a	n/a	-1	34	Fixation	Loss	False
331.917	0.17	Lose2	0.6	0.004	No	2.629	-0.004	3.0	NoResponse	-1	0.206	331.123	-1	34	Target	Loss	False
332.101	0.53	Lose2	0.6	n/a	No	2.629	n/a	n/a	NoResponse	-1	n/a	n/a	-1	34	Blank	Loss	False
332.123	0.3	Lose2	0.6	0.004	No	2.629	-0.004	3.0	NoResponse	-1	0.206	n/a	-1	34	ButtonPress	Loss	False
332.619	1.45	Lose2	0.6	n/a	No	2.629	n/a	5.0	NoResponse	-1	0.035	331.654	-1	34	Feedback	Loss	False
334.073	2.629	Lose2	0.6	n/a	No	2.629	n/a	n/a	NoResponse	-1	0.0	n/a	-1	34	ISIslide	Loss	False
336.715	0.25	Lose2	0.6111	0.0	Yes	2.685	0.015	n/a	GoodResponse	0	n/a	n/a	-1	35	Cue	AvoidedLoss	True
336.965	4.0	Lose2	0.6111	0.0	Yes	2.685	0.0	n/a	GoodResponse	0	n/a	n/a	-1	35	Fixation	AvoidedLoss	True
340.961	0.18	Lose2	0.6111	0.004	Yes	2.685	-0.004	3.0	GoodResponse	0	0.169	340.13	-1	35	Target	AvoidedLoss	True
341.13	0.3	Lose2	0.6111	0.004	Yes	2.685	-0.004	3.0	GoodResponse	0	0.169	n/a	-1	35	ButtonPress	AvoidedLoss	True
341.144	0.52	Lose2	0.6111	n/a	Yes	2.685	n/a	n/a	GoodResponse	0	n/a	n/a	-1	35	Blank	AvoidedLoss	True
341.663	1.45	Lose2	0.6111	n/a	Yes	2.685	n/a	5.0	GoodResponse	0	0.015	340.678	-1	35	Feedback	AvoidedLoss	True
343.117	2.685	Lose2	0.6111	n/a	Yes	2.685	n/a	n/a	GoodResponse	0	0.0	n/a	-1	35	ISIslide	AvoidedLoss	True
345.825	0.25	Control	0.5946	0.0	No	2.675	0.025	n/a	LatePress	0	n/a	n/a	-1	36	Cue	Neutral	True
346.076	4.0	Control	0.5946	0.0	No	2.675	0.001	n/a	LatePress	0	n/a	n/a	-1	36	Fixation	Neutral	True
350.071	0.19	Control	0.5946	0.004	No	2.675	-0.004	3.0	LatePress	0	0.19	349.261	-1	36	Target	Neutral	True
350.261	0.3	Control	0.5946	0.004	No	2.675	-0.004	3.0	LatePress	0	0.19	n/a	-1	36	ButtonPress	Neutral	True
350.272	0.51	Control	0.5946	n/a	No	2.675	n/a	n/a	LatePress	0	n/a	n/a	-1	36	Blank	Neutral	True
350.773	1.45	Control	0.5946	n/a	No	2.675	n/a	5.0	LatePress	0	0.027	349.8	-1	36	Feedback	Neutral	True
352.228	2.675	Control	0.5946	n/a	No	2.675	n/a	n/a	LatePress	0	0.0	n/a	-1	36	ISIslide	Neutral	True
354.919	0.25	Win2	0.5789	0.0	No	2.881	0.019	n/a	NoResponse	0	n/a	n/a	-1	37	Cue	MissedWin	False
355.17	4.0	Win2	0.5789	0.0	No	2.881	0.001	3.0	NoResponse	0	2.591	356.761	-1	37	Fixation	MissedWin	False
357.761	0.3	Win2	0.5789	0.0	No	2.881	0.001	3.0	NoResponse	0	2.591	n/a	-1	37	ButtonPress	MissedWin	False
359.165	0.2	Win2	0.5789	0.004	No	2.881	-0.004	3.0	NoResponse	0	0.209	358.374	-1	37	Target	MissedWin	False
359.366	0.5	Win2	0.5789	n/a	No	2.881	n/a	n/a	NoResponse	0	n/a	n/a	-1	37	Blank	MissedWin	False
359.374	0.3	Win2	0.5789	0.004	No	2.881	-0.004	3.0	NoResponse	0	0.209	n/a	-1	37	ButtonPress	MissedWin	False
359.867	1.45	Win2	0.5789	n/a	No	2.881	n/a	5.0	NoResponse	0	0.006	358.873	-1	37	Feedback	MissedWin	False
361.321	2.881	Win2	0.5789	n/a	No	2.881	n/a	n/a	NoResponse	0	0.0	n/a	-1	37	ISIslide	MissedWin	False
364.213	0.25	Lose2	0.5897	0.0	Yes	2.837	0.013	n/a	GoodResponse	0	n/a	n/a	-1	38	Cue	AvoidedLoss	True
364.464	3.95	Lose2	0.5897	0.0	Yes	2.837	0.001	n/a	GoodResponse	0	n/a	n/a	-1	38	Fixation	AvoidedLoss	True
368.409	0.21	Lose2	0.5897	0.004	Yes	2.837	-0.004	3.0	GoodResponse	0	0.163	367.572	-1	38	Target	AvoidedLoss	True
368.572	0.3	Lose2	0.5897	0.004	Yes	2.837	-0.004	3.0	GoodResponse	0	0.163	n/a	-1	38	ButtonPress	AvoidedLoss	True
368.627	0.49	Lose2	0.5897	n/a	Yes	2.837	n/a	n/a	GoodResponse	0	n/a	n/a	-1	38	Blank	AvoidedLoss	True
369.111	1.45	Lose2	0.5897	n/a	Yes	2.837	n/a	5.0	GoodResponse	0	0.031	368.142	-1	38	Feedback	AvoidedLoss	True
370.566	2.837	Lose2	0.5897	n/a	Yes	2.837	n/a	n/a	GoodResponse	0	0.0	n/a	-1	38	ISIslide	AvoidedLoss	True
373.424	0.25	Win2	0.6	0.0	Yes	2.976	0.024	n/a	GoodResponse	1	n/a	n/a	0	39	Cue	Win	True
373.675	4.1	Win2	0.6	0.0	Yes	2.976	0.001	n/a	GoodResponse	1	n/a	n/a	0	39	Fixation	Win	True
377.771	0.22	Win2	0.6	0.003	Yes	2.976	-0.003	3.0	GoodResponse	1	0.19	376.961	0	39	Target	Win	True
377.961	0.3	Win2	0.6	0.003	Yes	2.976	-0.003	3.0	GoodResponse	1	0.19	n/a	0	39	ButtonPress	Win	True
378.005	0.48	Win2	0.6	n/a	Yes	2.976	n/a	n/a	GoodResponse	1	n/a	n/a	0	39	Blank	Win	True
378.473	1.45	Win2	0.6	n/a	Yes	2.976	n/a	5.0	GoodResponse	1	0.034	377.507	0	39	Feedback	Win	True
379.927	2.976	Win2	0.6	n/a	Yes	2.976	n/a	3.0	GoodResponse	1	2.015	n/a	0	39	ISIslide	Win	True
382.903	0.25	Win2	0.6098	0.0	Yes	2.747	0.003	n/a	GoodResponse	1	n/a	n/a	1	40	Cue	Win	True
383.153	3.95	Win2	0.6098	0.0	Yes	2.747	0.0	n/a	GoodResponse	1	n/a	n/a	1	40	Fixation	Win	True
387.098	0.23	Win2	0.6098	0.005	Yes	2.747	-0.005	3.0	GoodResponse	1	0.161	386.259	1	40	Target	Win	True
387.259	0.3	Win2	0.6098	0.005	Yes	2.747	-0.005	3.0	GoodResponse	1	0.161	n/a	1	40	ButtonPress	Win	True
387.333	0.47	Win2	0.6098	n/a	Yes	2.747	n/a	n/a	GoodResponse	1	n/a	n/a	1	40	Blank	Win	True
387.801	1.45	Win2	0.6098	n/a	Yes	2.747	n/a	5.0	GoodResponse	1	0.023	386.824	1	40	Feedback	Win	True
389.255	2.747	Win2	0.6098	n/a	Yes	2.747	n/a	n/a	GoodResponse	1	0.0	n/a	1	40	ISIslide	Win	True
392.013	0.25	Win2	0.5952000000000001	0.0	No	2.787	0.013	n/a	PrematurePress	0	n/a	n/a	1	41	Cue	MissedWin	True
392.264	3.9	Win2	0.5952000000000001	0.0	No	2.787	0.001	n/a	PrematurePress	0	n/a	n/a	1	41	Fixation	MissedWin	True
396.159	0.24	Win2	0.5952000000000001	0.004	No	2.787	-0.004	3.0	PrematurePress	0	0.01	395.169	1	41	Target	MissedWin	True
396.169	0.3	Win2	0.5952000000000001	0.004	No	2.787	-0.004	3.0	PrematurePress	0	0.01	n/a	1	41	ButtonPress	MissedWin	True
396.41	0.46	Win2	0.5952000000000001	n/a	No	2.787	n/a	n/a	PrematurePress	0	n/a	n/a	1	41	Blank	MissedWin	True
396.861	1.45	Win2	0.5952000000000001	n/a	No	2.787	n/a	5.0	PrematurePress	0	0.036	395.897	1	41	Feedback	MissedWin	True
398.315	2.787	Win2	0.5952000000000001	n/a	No	2.787	n/a	n/a	PrematurePress	0	0.0	n/a	1	41	ISIslide	MissedWin	True
401.124	0.25	Control	0.5814	0.0	No	2.926	0.024	n/a	NoResponse	0	n/a	n/a	1	42	Cue	Neutral	True
401.375	3.85	Control	0.5814	0.0	No	2.926	0.001	n/a	NoResponse	0	n/a	n/a	1	42	Fixation	Neutral	True
405.236	0.25	Control	0.5814	0.0	No	2.926	0.012	3.0	NoResponse	0	0.25	404.486	1	42	Target	Neutral	True
405.47	0.45	Control	0.5814	n/a	No	2.926	n/a	n/a	NoResponse	0	n/a	n/a	1	42	Blank	Neutral	True
405.486	0.3	Control	0.5814	0.0	No	2.926	0.012	3.0	NoResponse	0	0.25	n/a	1	42	ButtonPress	Neutral	True
405.921	1.45	Control	0.5814	n/a	No	2.926	n/a	5.0	NoResponse	0	0.001	404.922	1	42	Feedback	Neutral	True
407.376	2.926	Control	0.5814	n/a	No	2.926	n/a	n/a	NoResponse	0	0.0	n/a	1	42	ISIslide	Neutral	True
410.318	0.25	Win2	0.5909	0.0	Yes	3.182	0.018	n/a	GoodResponse	1	n/a	n/a	2	43	Cue	Win	True
410.569	4.0	Win2	0.5909	0.0	Yes	3.182	0.001	n/a	GoodResponse	1	n/a	n/a	2	43	Fixation	Win	True
414.564	0.26	Win2	0.5909	0.004	Yes	3.182	-0.004	3.0	GoodResponse	1	0.165	413.729	2	43	Target	Win	True
414.729	0.3	Win2	0.5909	0.004	Yes	3.182	-0.004	3.0	GoodResponse	1	0.165	n/a	2	43	ButtonPress	Win	True
414.831	0.44	Win2	0.5909	n/a	Yes	3.182	n/a	n/a	GoodResponse	1	n/a	n/a	2	43	Blank	Win	True
415.266	1.45	Win2	0.5909	n/a	Yes	3.182	n/a	5.0	GoodResponse	1	0.022	414.288	2	43	Feedback	Win	True
416.72	3.182	Win2	0.5909	n/a	Yes	3.182	n/a	n/a	GoodResponse	1	0.0	n/a	2	43	ISIslide	Win	True
419.913	0.25	Win2	0.6	0.0	Yes	2.987	0.013	n/a	GoodResponse	1	n/a	n/a	3	44	Cue	Win	True
420.164	4.0	Win2	0.6	0.0	Yes	2.987	0.001	n/a	GoodResponse	1	n/a	n/a	3	44	Fixation	Win	True
424.159	0.27	Win2	0.6	0.004	Yes	2.987	-0.004	3.0	GoodResponse	1	0.179	423.338	3	44	Target	Win	True
424.338	0.3	Win2	0.6	0.004	Yes	2.987	-0.004	3.0	GoodResponse	1	0.179	n/a	3	44	ButtonPress	Win	True
424.443	0.43	Win2	0.6	n/a	Yes	2.987	n/a	n/a	GoodResponse	1	n/a	n/a	3	44	Blank	Win	True
424.861	1.45	Win2	0.6	n/a	Yes	2.987	n/a	5.0	GoodResponse	1	0.035	423.896	3	44	Feedback	Win	True
426.316	2.987	Win2	0.6	n/a	Yes	2.987	n/a	n/a	GoodResponse	1	0.0	n/a	3	44	ISIslide	Win	True
429.325	0.25	Control	0.6087	0.0	Yes	2.875	0.025	n/a	GoodResponse	0	n/a	n/a	3	45	Cue	Neutral	True
429.575	4.1	Control	0.6087	0.001	Yes	2.875	0.0	n/a	GoodResponse	0	n/a	n/a	3	45	Fixation	Neutral	True
433.671	0.28	Control	0.6087	0.004	Yes	2.875	-0.004	3.0	GoodResponse	0	0.188	432.859	3	45	Target	Neutral	True
433.859	0.3	Control	0.6087	0.004	Yes	2.875	-0.004	3.0	GoodResponse	0	0.188	n/a	3	45	ButtonPress	Neutral	True
433.955	0.42	Control	0.6087	n/a	Yes	2.875	n/a	n/a	GoodResponse	0	n/a	n/a	3	45	Blank	Neutral	True
434.373	1.45	Control	0.6087	n/a	Yes	2.875	n/a	5.0	GoodResponse	0	0.036	433.409	3	45	Feedback	Neutral	True
435.828	2.875	Control	0.6087	n/a	Yes	2.875	n/a	3.0	GoodResponse	0	1.9	n/a	3	45	ISIslide	Neutral	True
438.703	0.25	Lose2	0.617	0.0	Yes	3.397	0.003	n/a	GoodResponse	0	n/a	n/a	3	46	Cue	AvoidedLoss	True
438.954	4.0	Lose2	0.617	0.0	Yes	3.397	0.001	n/a	GoodResponse	0	n/a	n/a	3	46	Fixation	AvoidedLoss	True
442.949	0.29	Lose2	0.617	0.004	Yes	3.397	-0.004	3.0	GoodResponse	0	0.162	442.111	3	46	Target	AvoidedLoss	True
443.111	0.3	Lose2	0.617	0.004	Yes	3.397	-0.004	3.0	GoodResponse	0	0.162	n/a	3	46	ButtonPress	AvoidedLoss	True
443.25	0.41	Lose2	0.617	n/a	Yes	3.397	n/a	n/a	GoodResponse	0	n/a	n/a	3	46	Blank	AvoidedLoss	True
443.651	1.45	Lose2	0.617	n/a	Yes	3.397	n/a	5.0	GoodResponse	0	0.026	442.677	3	46	Feedback	AvoidedLoss	True
445.105	3.397	Lose2	0.617	n/a	Yes	3.397	n/a	n/a	GoodResponse	0	0.0	n/a	3	46	ISIslide	AvoidedLoss	True
448.515	0.25	Lose2	0.625	0.001	Yes	2.685	0.015	n/a	GoodResponse	0	n/a	n/a	3	47	Cue	AvoidedLoss	True
448.766	4.0	Lose2	0.625	0.0	Yes	2.685	0.001	n/a	GoodResponse	0	n/a	n/a	3	47	Fixation	AvoidedLoss	True
452.761	0.3	Lose2	0.625	0.004	Yes	2.685	-0.004	3.0	GoodResponse	0	0.242	452.003	3	47	Target	AvoidedLoss	True
453.003	0.3	Lose2	0.625	0.004	Yes	2.685	-0.004	3.0	GoodResponse	0	0.242	n/a	3	47	ButtonPress	AvoidedLoss	True
453.062	0.4	Lose2	0.625	n/a	Yes	2.685	n/a	n/a	GoodResponse	0	n/a	n/a	3	47	Blank	AvoidedLoss	True
453.464	1.45	Lose2	0.625	n/a	Yes	2.685	n/a	5.0	GoodResponse	0	0.018	452.482	3	47	Feedback	AvoidedLoss	True
454.918	2.685	Lose2	0.625	n/a	Yes	2.685	n/a	n/a	GoodResponse	0	0.0	n/a	3	47	ISIslide	AvoidedLoss	True
457.626	0.25	Lose2	0.6327	0.0	Yes	3.024	0.026	n/a	GoodResponse	0	n/a	n/a	3	48	Cue	AvoidedLoss	True
457.877	3.95	Lose2	0.6327	0.0	Yes	3.024	0.001	n/a	GoodResponse	0	n/a	n/a	3	48	Fixation	AvoidedLoss	True
461.822	0.31	Lose2	0.6327	0.004	Yes	3.024	-0.004	3.0	GoodResponse	0	0.194	461.016	3	48	Target	AvoidedLoss	True
462.016	0.3	Lose2	0.6327	0.004	Yes	3.024	-0.004	3.0	GoodResponse	0	0.194	n/a	3	48	ButtonPress	AvoidedLoss	True
462.14	0.39	Lose2	0.6327	n/a	Yes	3.024	n/a	n/a	GoodResponse	0	n/a	n/a	3	48	Blank	AvoidedLoss	True
462.524	1.45	Lose2	0.6327	n/a	Yes	3.024	n/a	5.0	GoodResponse	0	0.03	461.554	3	48	Feedback	AvoidedLoss	True
463.978	3.024	Lose2	0.6327	n/a	Yes	3.024	n/a	n/a	GoodResponse	0	0.0	n/a	3	48	ISIslide	AvoidedLoss	True
467.021	0.25	Control	0.64	0.0	Yes	2.879	0.021	n/a	GoodResponse	0	n/a	n/a	3	49	Cue	Neutral	True
467.272	4.0	Control	0.64	0.0	Yes	2.879	0.001	n/a	GoodResponse	0	n/a	n/a	3	49	Fixation	Neutral	True
471.267	0.32	Control	0.64	0.004	Yes	2.879	-0.004	3.0	GoodResponse	0	0.247	470.514	3	49	Target	Neutral	True
471.514	0.3	Control	0.64	0.004	Yes	2.879	-0.004	3.0	GoodResponse	0	0.247	n/a	3	49	ButtonPress	Neutral	True
471.601	0.38	Control	0.64	n/a	Yes	2.879	n/a	n/a	GoodResponse	0	n/a	n/a	3	49	Blank	Neutral	True
471.969	1.45	Control	0.64	n/a	Yes	2.879	n/a	5.0	GoodResponse	0	0.0	470.969	3	49	Feedback	Neutral	True
473.423	2.879	Control	0.64	n/a	Yes	2.879	n/a	n/a	GoodResponse	0	0.0	n/a	3	49	ISIslide	Neutral	True
476.315	0.25	Control	0.6470999999999999	0.0	Yes	2.785	0.015	n/a	GoodResponse	0	n/a	n/a	3	50	Cue	Neutral	True
476.566	4.0	Control	0.6470999999999999	0.0	Yes	2.785	0.001	n/a	GoodResponse	0	n/a	n/a	3	50	Fixation	Neutral	True
480.561	0.33	Control	0.6470999999999999	0.004	Yes	2.785	-0.004	3.0	GoodResponse	0	0.175	479.736	3	50	Target	Neutral	True
480.736	0.3	Control	0.6470999999999999	0.004	Yes	2.785	-0.004	3.0	GoodResponse	0	0.175	n/a	3	50	ButtonPress	Neutral	True
480.896	0.37	Control	0.6470999999999999	n/a	Yes	2.785	n/a	n/a	GoodResponse	0	n/a	n/a	3	50	Blank	Neutral	True
481.263	1.45	Control	0.6470999999999999	n/a	Yes	2.785	n/a	5.0	GoodResponse	0	0.023	480.286	3	50	Feedback	Neutral	True
482.718	2.785	Control	0.6470999999999999	n/a	Yes	2.785	n/a	n/a	GoodResponse	0	0.0	n/a	3	50	ISIslide	Neutral	True
485.526	0.25	Control	0.6537999999999999	0.0	Yes	2.724	0.026	n/a	GoodResponse	0	n/a	n/a	3	51	Cue	Neutral	True
485.777	3.95	Control	0.6537999999999999	0.0	Yes	2.724	0.001	n/a	GoodResponse	0	n/a	n/a	3	51	Fixation	Neutral	True
489.722	0.34	Control	0.6537999999999999	0.004	Yes	2.724	-0.004	3.0	GoodResponse	0	0.249	488.971	3	51	Target	Neutral	True
489.971	0.3	Control	0.6537999999999999	0.004	Yes	2.724	-0.004	3.0	GoodResponse	0	0.249	n/a	3	51	ButtonPress	Neutral	True
490.073	0.36	Control	0.6537999999999999	n/a	Yes	2.724	n/a	n/a	GoodResponse	0	n/a	n/a	3	51	Blank	Neutral	True
490.424	1.45	Control	0.6537999999999999	n/a	Yes	2.724	n/a	5.0	GoodResponse	0	0.033	489.457	3	51	Feedback	Neutral	True
491.878	2.724	Control	0.6537999999999999	n/a	Yes	2.724	n/a	n/a	GoodResponse	0	0.0	n/a	3	51	ISIslide	Neutral	True
494.62	0.25	Control	0.6604000000000001	0.0	Yes	2.63	0.02	n/a	GoodResponse	0	n/a	n/a	3	52	Cue	Neutral	True
494.871	4.05	Control	0.6604000000000001	0.0	Yes	2.63	0.001	n/a	GoodResponse	0	n/a	n/a	3	52	Fixation	Neutral	True
498.916	0.35	Control	0.6604000000000001	0.004	Yes	2.63	-0.004	3.0	GoodResponse	0	0.189	498.105	3	52	Target	Neutral	True
499.105	0.3	Control	0.6604000000000001	0.004	Yes	2.63	-0.004	3.0	GoodResponse	0	0.189	n/a	3	52	ButtonPress	Neutral	True
499.267	0.35	Control	0.6604000000000001	n/a	Yes	2.63	n/a	n/a	GoodResponse	0	n/a	n/a	3	52	Blank	Neutral	True
499.618	1.45	Control	0.6604000000000001	n/a	Yes	2.63	n/a	5.0	GoodResponse	0	0.01	498.628	3	52	Feedback	Neutral	True
501.073	2.63	Control	0.6604000000000001	n/a	Yes	2.63	n/a	n/a	GoodResponse	0	0.0	n/a	3	52	ISIslide	Neutral	True
503.714	0.25	Win2	0.6667000000000001	0.0	Yes	2.936	0.014	n/a	GoodResponse	1	n/a	n/a	4	53	Cue	Win	True
503.965	4.05	Win2	0.6667000000000001	0.0	Yes	2.936	0.001	n/a	GoodResponse	1	n/a	n/a	4	53	Fixation	Win	True
508.01	0.35	Win2	0.6667000000000001	0.004	Yes	2.936	-0.004	3.0	GoodResponse	1	0.223	507.233	4	53	Target	Win	True
508.233	0.3	Win2	0.6667000000000001	0.004	Yes	2.936	-0.004	3.0	GoodResponse	1	0.223	n/a	4	53	ButtonPress	Win	True
508.361	0.35	Win2	0.6667000000000001	n/a	Yes	2.936	n/a	n/a	GoodResponse	1	n/a	n/a	4	53	Blank	Win	True
508.712	1.45	Win2	0.6667000000000001	n/a	Yes	2.936	n/a	5.0	GoodResponse	1	0.037	507.749	4	53	Feedback	Win	True
510.166	2.936	Win2	0.6667000000000001	n/a	Yes	2.936	n/a	n/a	GoodResponse	1	0.0	n/a	4	53	ISIslide	Win	True
513.125	0.25	Win2	0.6727	0.0	Yes	2.725	0.025	n/a	GoodResponse	1	n/a	n/a	5	54	Cue	Win	True
513.376	3.95	Win2	0.6727	0.0	Yes	2.725	0.001	n/a	GoodResponse	1	n/a	n/a	5	54	Fixation	Win	True
517.321	0.34	Win2	0.6727	0.004	Yes	2.725	-0.004	3.0	GoodResponse	1	0.18	516.501	5	54	Target	Win	True
517.501	0.3	Win2	0.6727	0.004	Yes	2.725	-0.004	3.0	GoodResponse	1	0.18	n/a	5	54	ButtonPress	Win	True
517.672	0.36	Win2	0.6727	n/a	Yes	2.725	n/a	n/a	GoodResponse	1	n/a	n/a	5	54	Blank	Win	True
518.023	1.45	Win2	0.6727	n/a	Yes	2.725	n/a	5.0	GoodResponse	1	0.043	517.066	5	54	Feedback	Win	True
519.478	2.725	Win2	0.6727	n/a	Yes	2.725	n/a	n/a	GoodResponse	1	0.0	n/a	5	54	ISIslide	Win	True
522.219	0.25	Control	0.6786	0.0	Yes	3.031	0.019	n/a	GoodResponse	0	n/a	n/a	5	55	Cue	Neutral	True
522.47	3.95	Control	0.6786	0.0	Yes	3.031	0.001	n/a	GoodResponse	0	n/a	n/a	5	55	Fixation	Neutral	True
526.415	0.33	Control	0.6786	0.004	Yes	3.031	-0.004	3.0	GoodResponse	0	0.226	525.641	5	55	Target	Neutral	True
526.641	0.3	Control	0.6786	0.004	Yes	3.031	-0.004	3.0	GoodResponse	0	0.226	n/a	5	55	ButtonPress	Neutral	True
526.749	0.37	Control	0.6786	n/a	Yes	3.031	n/a	n/a	GoodResponse	0	n/a	n/a	5	55	Blank	Neutral	True
527.117	1.45	Control	0.6786	n/a	Yes	3.031	n/a	5.0	GoodResponse	0	0.022	526.139	5	55	Feedback	Neutral	True
528.571	3.031	Control	0.6786	n/a	Yes	3.031	n/a	n/a	GoodResponse	0	0.0	n/a	5	55	ISIslide	Neutral	True
531.614	0.25	Control	0.6842	0.0	Yes	2.836	0.014	n/a	GoodResponse	0	n/a	n/a	5	56	Cue	Neutral	True
531.865	3.95	Control	0.6842	0.0	Yes	2.836	0.001	n/a	GoodResponse	0	n/a	n/a	5	56	Fixation	Neutral	True
535.81	0.32	Control	0.6842	0.004	Yes	2.836	-0.004	3.0	GoodResponse	0	0.199	535.009	5	56	Target	Neutral	True
536.009	0.3	Control	0.6842	0.004	Yes	2.836	-0.004	3.0	GoodResponse	0	0.199	n/a	5	56	ButtonPress	Neutral	True
536.144	0.38	Control	0.6842	n/a	Yes	2.836	n/a	n/a	GoodResponse	0	n/a	n/a	5	56	Blank	Neutral	True
536.512	1.45	Control	0.6842	n/a	Yes	2.836	n/a	5.0	GoodResponse	0	0.042	535.554	5	56	Feedback	Neutral	True
537.966	2.836	Control	0.6842	n/a	Yes	2.836	n/a	n/a	GoodResponse	0	0.0	n/a	5	56	ISIslide	Neutral	True
540.825	0.25	Control	0.6897	0.0	Yes	3.475	0.025	n/a	GoodResponse	0	n/a	n/a	5	57	Cue	Neutral	True
541.076	4.0	Control	0.6897	0.0	Yes	3.475	0.001	n/a	GoodResponse	0	n/a	n/a	5	57	Fixation	Neutral	True
545.071	0.31	Control	0.6897	0.004	Yes	3.475	-0.004	3.0	GoodResponse	0	0.195	544.266	5	57	Target	Neutral	True
545.266	0.3	Control	0.6897	0.004	Yes	3.475	-0.004	3.0	GoodResponse	0	0.195	n/a	5	57	ButtonPress	Neutral	True
545.388	0.39	Control	0.6897	n/a	Yes	3.475	n/a	n/a	GoodResponse	0	n/a	n/a	5	57	Blank	Neutral	True
545.773	1.45	Control	0.6897	n/a	Yes	3.475	n/a	5.0	GoodResponse	0	0.001	544.774	5	57	Feedback	Neutral	True
547.227	3.475	Control	0.6897	n/a	Yes	3.475	n/a	n/a	GoodResponse	0	0.0	n/a	5	57	ISIslide	Neutral	True
550.721	0.25	Win2	0.6949	0.0	Yes	2.729	0.021	n/a	GoodResponse	1	n/a	n/a	6	58	Cue	Win	True
550.972	4.05	Win2	0.6949	0.0	Yes	2.729	0.001	n/a	GoodResponse	1	n/a	n/a	6	58	Fixation	Win	True
555.017	0.3	Win2	0.6949	0.004	Yes	2.729	-0.004	3.0	GoodResponse	1	0.168	554.185	6	58	Target	Win	True
555.185	0.3	Win2	0.6949	0.004	Yes	2.729	-0.004	3.0	GoodResponse	1	0.168	n/a	6	58	ButtonPress	Win	True
555.318	0.4	Win2	0.6949	n/a	Yes	2.729	n/a	n/a	GoodResponse	1	n/a	n/a	6	58	Blank	Win	True
555.719	1.45	Win2	0.6949	n/a	Yes	2.729	n/a	5.0	GoodResponse	1	0.005	554.724	6	58	Feedback	Win	True
557.174	2.729	Win2	0.6949	n/a	Yes	2.729	n/a	n/a	GoodResponse	1	0.0	n/a	6	58	ISIslide	Win	True
559.915	0.25	Lose2	0.7	0.0	Yes	2.685	0.015	n/a	GoodResponse	0	n/a	n/a	6	59	Cue	AvoidedLoss	True
560.166	4.0	Lose2	0.7	0.0	Yes	2.685	0.001	n/a	GoodResponse	0	n/a	n/a	6	59	Fixation	AvoidedLoss	True
564.161	0.29	Lose2	0.7	0.004	Yes	2.685	-0.004	3.0	GoodResponse	0	0.173	563.334	6	59	Target	AvoidedLoss	True
564.334	0.3	Lose2	0.7	0.004	Yes	2.685	-0.004	3.0	GoodResponse	0	0.173	n/a	6	59	ButtonPress	AvoidedLoss	True
564.462	0.41	Lose2	0.7	n/a	Yes	2.685	n/a	n/a	GoodResponse	0	n/a	n/a	6	59	Blank	AvoidedLoss	True
564.863	1.45	Lose2	0.7	n/a	Yes	2.685	n/a	5.0	GoodResponse	0	0.032	563.895	6	59	Feedback	AvoidedLoss	True
566.318	2.685	Lose2	0.7	n/a	Yes	2.685	n/a	n/a	GoodResponse	0	0.0	n/a	6	59	ISIslide	AvoidedLoss	True
569.026	0.25	Control	0.7049	0.0	Yes	2.674	0.026	n/a	GoodResponse	0	n/a	n/a	6	60	Cue	Neutral	True
569.277	4.0	Control	0.7049	0.0	Yes	2.674	0.001	n/a	GoodResponse	0	n/a	n/a	6	60	Fixation	Neutral	True
573.272	0.28	Control	0.7049	0.004	Yes	2.674	-0.004	3.0	GoodResponse	0	0.172	572.444	6	60	Target	Neutral	True
573.444	0.3	Control	0.7049	0.004	Yes	2.674	-0.004	3.0	GoodResponse	0	0.172	n/a	6	60	ButtonPress	Neutral	True
573.556	0.42	Control	0.7049	n/a	Yes	2.674	n/a	n/a	GoodResponse	0	n/a	n/a	6	60	Blank	Neutral	True
573.974	1.45	Control	0.7049	n/a	Yes	2.674	n/a	5.0	GoodResponse	0	0.043	573.017	6	60	Feedback	Neutral	True
575.428	2.674	Control	0.7049	n/a	Yes	2.674	n/a	n/a	GoodResponse	0	0.0	n/a	6	60	ISIslide	Neutral	True
578.12	0.25	Lose2	0.7097	0.0	Yes	2.98	0.02	n/a	GoodResponse	0	n/a	n/a	6	61	Cue	AvoidedLoss	True
578.37	4.0	Lose2	0.7097	0.0	Yes	2.98	0.0	n/a	GoodResponse	0	n/a	n/a	6	61	Fixation	AvoidedLoss	True
582.366	0.27	Lose2	0.7097	0.004	Yes	2.98	-0.004	3.0	GoodResponse	0	0.167	581.533	6	61	Target	AvoidedLoss	True
582.533	0.3	Lose2	0.7097	0.004	Yes	2.98	-0.004	3.0	GoodResponse	0	0.167	n/a	6	61	ButtonPress	AvoidedLoss	True
582.65	0.43	Lose2	0.7097	n/a	Yes	2.98	n/a	n/a	GoodResponse	0	n/a	n/a	6	61	Blank	AvoidedLoss	True
583.068	1.45	Lose2	0.7097	n/a	Yes	2.98	n/a	5.0	GoodResponse	0	0.022	582.09	6	61	Feedback	AvoidedLoss	True
584.522	2.98	Lose2	0.7097	n/a	Yes	2.98	n/a	n/a	GoodResponse	0	0.0	n/a	6	61	ISIslide	AvoidedLoss	True
587.531	0.25	Lose2	0.7143	0.0	Yes	2.869	0.031	n/a	GoodResponse	0	n/a	n/a	6	62	Cue	AvoidedLoss	False
587.782	3.9	Lose2	0.7143	0.0	Yes	2.869	0.001	3.0	GoodResponse	0	0.714	587.496	6	62	Fixation	AvoidedLoss	False
588.496	0.3	Lose2	0.7143	0.0	Yes	2.869	0.001	3.0	GoodResponse	0	0.714	n/a	6	62	ButtonPress	AvoidedLoss	False
591.677	0.26	Lose2	0.7143	0.004	Yes	2.869	-0.004	3.0	GoodResponse	0	0.173	590.85	6	62	Target	AvoidedLoss	False
591.85	0.3	Lose2	0.7143	0.004	Yes	2.869	-0.004	3.0	GoodResponse	0	0.173	n/a	6	62	ButtonPress	AvoidedLoss	False
591.944	0.44	Lose2	0.7143	n/a	Yes	2.869	n/a	n/a	GoodResponse	0	n/a	n/a	6	62	Blank	AvoidedLoss	False
592.379	1.45	Lose2	0.7143	n/a	Yes	2.869	n/a	5.0	GoodResponse	0	0.027	591.406	6	62	Feedback	AvoidedLoss	False
593.833	2.869	Lose2	0.7143	n/a	Yes	2.869	n/a	n/a	GoodResponse	0	0.0	n/a	6	62	ISIslide	AvoidedLoss	False
596.725	0.25	Lose2	0.7188	0.0	Yes	2.625	0.025	n/a	GoodResponse	0	n/a	n/a	6	63	Cue	AvoidedLoss	True
596.976	4.05	Lose2	0.7188	0.0	Yes	2.625	0.001	n/a	GoodResponse	0	n/a	n/a	6	63	Fixation	AvoidedLoss	True
601.021	0.25	Lose2	0.7188	0.004	Yes	2.625	-0.004	3.0	GoodResponse	0	0.17	600.191	6	63	Target	AvoidedLoss	True
601.191	0.3	Lose2	0.7188	0.004	Yes	2.625	-0.004	3.0	GoodResponse	0	0.17	n/a	6	63	ButtonPress	AvoidedLoss	True
601.272	0.45	Lose2	0.7188	n/a	Yes	2.625	n/a	n/a	GoodResponse	0	n/a	n/a	6	63	Blank	AvoidedLoss	True
601.724	1.45	Lose2	0.7188	n/a	Yes	2.625	n/a	5.0	GoodResponse	0	0.0	600.724	6	63	Feedback	AvoidedLoss	True
603.178	2.625	Lose2	0.7188	n/a	Yes	2.625	n/a	n/a	GoodResponse	0	0.0	n/a	6	63	ISIslide	AvoidedLoss	True
605.819	0.25	Win2	0.7231000000000001	0.0	Yes	3.131	0.019	n/a	GoodResponse	1	n/a	n/a	7	64	Cue	Win	True
606.07	4.15	Win2	0.7231000000000001	0.0	Yes	3.131	0.001	n/a	GoodResponse	1	n/a	n/a	7	64	Fixation	Win	True
610.216	0.24	Win2	0.7231000000000001	0.003	Yes	3.131	-0.003	3.0	GoodResponse	1	0.198	609.414	7	64	Target	Win	True
610.414	0.3	Win2	0.7231000000000001	0.003	Yes	3.131	-0.003	3.0	GoodResponse	1	0.198	n/a	7	64	ButtonPress	Win	True
610.466	0.46	Win2	0.7231000000000001	n/a	Yes	3.131	n/a	n/a	GoodResponse	1	n/a	n/a	7	64	Blank	Win	True
610.918	1.45	Win2	0.7231000000000001	n/a	Yes	3.131	n/a	5.0	GoodResponse	1	0.025	609.943	7	64	Feedback	Win	True
612.372	3.131	Win2	0.7231000000000001	n/a	Yes	3.131	n/a	n/a	GoodResponse	1	0.0	n/a	7	64	ISIslide	Win	True
615.531	0.25	Control	0.7121	0.001	No	2.769	0.031	n/a	NoResponse	0	n/a	n/a	7	65	Cue	Neutral	True
615.782	4.0	Control	0.7121	0.0	No	2.769	0.001	n/a	NoResponse	0	n/a	n/a	7	65	Fixation	Neutral	True
619.778	0.23	Control	0.7121	0.003	No	2.769	-0.003	3.0	NoResponse	0	0.307	619.085	7	65	Target	Neutral	True
620.012	0.47	Control	0.7121	n/a	No	2.769	n/a	n/a	NoResponse	0	n/a	n/a	7	65	Blank	Neutral	True
620.085	0.3	Control	0.7121	0.003	No	2.769	-0.003	3.0	NoResponse	0	0.307	n/a	7	65	ButtonPress	Neutral	True
620.48	1.45	Control	0.7121	n/a	No	2.769	n/a	5.0	NoResponse	0	0.024	619.504	7	65	Feedback	Neutral	True
621.934	2.769	Control	0.7121	n/a	No	2.769	n/a	n/a	NoResponse	0	0.0	n/a	7	65	ISIslide	Neutral	True
624.726	0.25	Win2	0.7164	0.0	Yes	2.774	0.026	n/a	GoodResponse	1	n/a	n/a	8	66	Cue	Win	True
624.976	3.9	Win2	0.7164	0.0	Yes	2.774	0.0	n/a	GoodResponse	1	n/a	n/a	8	66	Fixation	Win	True
628.888	0.22	Win2	0.7164	0.0	Yes	2.774	0.012	3.0	GoodResponse	1	0.179	628.067	8	66	Target	Win	True
629.067	0.3	Win2	0.7164	0.0	Yes	2.774	0.012	3.0	GoodResponse	1	0.179	n/a	8	66	ButtonPress	Win	True
629.105	0.48	Win2	0.7164	n/a	Yes	2.774	n/a	n/a	GoodResponse	1	n/a	n/a	8	66	Blank	Win	True
629.573	1.45	Win2	0.7164	n/a	Yes	2.774	n/a	5.0	GoodResponse	1	0.008	628.581	8	66	Feedback	Win	True
631.028	2.774	Win2	0.7164	n/a	Yes	2.774	n/a	n/a	GoodResponse	1	0.0	n/a	8	66	ISIslide	Win	True
633.819	0.25	Control	0.7206	0.001	Yes	2.731	0.019	n/a	GoodResponse	0	n/a	n/a	8	67	Cue	Neutral	True
634.07	3.95	Control	0.7206	0.0	Yes	2.731	0.001	n/a	GoodResponse	0	n/a	n/a	8	67	Fixation	Neutral	True
638.015	0.21	Control	0.7206	0.004	Yes	2.731	-0.004	3.0	GoodResponse	0	0.198	637.213	8	67	Target	Neutral	True
638.213	0.3	Control	0.7206	0.004	Yes	2.731	-0.004	3.0	GoodResponse	0	0.198	n/a	8	67	ButtonPress	Neutral	True
638.233	0.49	Control	0.7206	n/a	Yes	2.731	n/a	n/a	GoodResponse	0	n/a	n/a	8	67	Blank	Neutral	True
638.717	1.45	Control	0.7206	n/a	Yes	2.731	n/a	5.0	GoodResponse	0	0.03	637.747	8	67	Feedback	Neutral	True
640.172	2.731	Control	0.7206	n/a	Yes	2.731	n/a	n/a	GoodResponse	0	0.0	n/a	8	67	ISIslide	Neutral	True
642.93	0.25	Win2	0.7245999999999999	0.0	Yes	3.07	0.03	n/a	GoodResponse	1	n/a	n/a	9	68	Cue	Win	True
643.181	4.0	Win2	0.7245999999999999	0.0	Yes	3.07	0.001	n/a	GoodResponse	1	n/a	n/a	9	68	Fixation	Win	True
647.176	0.2	Win2	0.7245999999999999	0.004	Yes	3.07	-0.004	3.0	GoodResponse	1	0.174	646.35	9	68	Target	Win	True
647.35	0.3	Win2	0.7245999999999999	0.004	Yes	3.07	-0.004	3.0	GoodResponse	1	0.174	n/a	9	68	ButtonPress	Win	True
647.377	0.5	Win2	0.7245999999999999	n/a	Yes	3.07	n/a	n/a	GoodResponse	1	n/a	n/a	9	68	Blank	Win	True
647.878	1.45	Win2	0.7245999999999999	n/a	Yes	3.07	n/a	5.0	GoodResponse	1	0.04	646.918	9	68	Feedback	Win	True
649.333	3.07	Win2	0.7245999999999999	n/a	Yes	3.07	n/a	n/a	GoodResponse	1	0.0	n/a	9	68	ISIslide	Win	True
652.425	0.25	Win2	0.7286	0.0	Yes	3.225	0.025	n/a	GoodResponse	1	n/a	n/a	10	69	Cue	Win	True
652.676	3.95	Win2	0.7286	0.0	Yes	3.225	0.001	n/a	GoodResponse	1	n/a	n/a	10	69	Fixation	Win	True
656.621	0.19	Win2	0.7286	0.004	Yes	3.225	-0.004	3.0	GoodResponse	1	0.181	655.802	10	69	Target	Win	True
656.802	0.3	Win2	0.7286	0.004	Yes	3.225	-0.004	3.0	GoodResponse	1	0.181	n/a	10	69	ButtonPress	Win	True
656.822	0.51	Win2	0.7286	n/a	Yes	3.225	n/a	n/a	GoodResponse	1	n/a	n/a	10	69	Blank	Win	True
657.323	1.45	Win2	0.7286	n/a	Yes	3.225	n/a	5.0	GoodResponse	1	0.01	656.333	10	69	Feedback	Win	True
658.777	3.225	Win2	0.7286	n/a	Yes	3.225	n/a	n/a	GoodResponse	1	0.0	n/a	10	69	ISIslide	Win	True
662.02	0.25	Lose2	0.7323999999999999	0.001	Yes	3.03	0.02	n/a	GoodResponse	0	n/a	n/a	10	70	Cue	AvoidedLoss	True
662.271	4.05	Lose2	0.7323999999999999	0.0	Yes	3.03	0.001	n/a	GoodResponse	0	n/a	n/a	10	70	Fixation	AvoidedLoss	True
666.317	0.18	Lose2	0.7323999999999999	0.003	Yes	3.03	-0.003	3.0	GoodResponse	0	0.174	665.491	10	70	Target	AvoidedLoss	True
666.491	0.3	Lose2	0.7323999999999999	0.003	Yes	3.03	-0.003	3.0	GoodResponse	0	0.174	n/a	10	70	ButtonPress	AvoidedLoss	True
666.501	0.52	Lose2	0.7323999999999999	n/a	Yes	3.03	n/a	n/a	GoodResponse	0	n/a	n/a	10	70	Blank	AvoidedLoss	True
667.019	1.45	Lose2	0.7323999999999999	n/a	Yes	3.03	n/a	5.0	GoodResponse	0	0.021	666.04	10	70	Feedback	AvoidedLoss	True
668.473	3.03	Lose2	0.7323999999999999	n/a	Yes	3.03	n/a	n/a	GoodResponse	0	0.0	n/a	10	70	ISIslide	AvoidedLoss	True
671.516	0.25	Win2	0.7222	0.0	No	2.734	0.016	n/a	NoResponse	0	n/a	n/a	10	71	Cue	MissedWin	True
671.766	4.05	Win2	0.7222	0.0	No	2.734	0.0	n/a	NoResponse	0	n/a	n/a	10	71	Fixation	MissedWin	True
675.812	0.17	Win2	0.7222	0.004	No	2.734	-0.004	3.0	NoResponse	0	0.191	675.003	10	71	Target	MissedWin	True
675.996	0.53	Win2	0.7222	n/a	No	2.734	n/a	n/a	NoResponse	0	n/a	n/a	10	71	Blank	MissedWin	True
676.003	0.3	Win2	0.7222	0.004	No	2.734	-0.004	3.0	NoResponse	0	0.191	n/a	10	71	ButtonPress	MissedWin	True
676.514	1.45	Win2	0.7222	n/a	No	2.734	n/a	5.0	NoResponse	0	0.038	675.552	10	71	Feedback	MissedWin	True
677.968	2.734	Win2	0.7222	n/a	No	2.734	n/a	n/a	NoResponse	0	0.0	n/a	10	71	ISIslide	MissedWin	True
680.726	0.25	Win2	0.7123	0.001	No	2.774	0.026	n/a	NoResponse	0	n/a	n/a	10	72	Cue	MissedWin	True
680.977	4.1	Win2	0.7123	0.0	No	2.774	0.001	n/a	NoResponse	0	n/a	n/a	10	72	Fixation	MissedWin	True
685.073	0.16	Win2	0.7123	0.003	No	2.774	-0.003	3.0	NoResponse	0	0.177	684.25	10	72	Target	MissedWin	True
685.24	0.54	Win2	0.7123	n/a	No	2.774	n/a	n/a	NoResponse	0	n/a	n/a	10	72	Blank	MissedWin	True
685.25	0.3	Win2	0.7123	0.003	No	2.774	-0.003	3.0	NoResponse	0	0.177	n/a	10	72	ButtonPress	MissedWin	True
685.775	1.45	Win2	0.7123	n/a	No	2.774	n/a	5.0	NoResponse	0	0.045	684.82	10	72	Feedback	MissedWin	True
687.229	2.774	Win2	0.7123	n/a	No	2.774	n/a	n/a	NoResponse	0	0.0	n/a	10	72	ISIslide	MissedWin	True
690.021	0.25	Win2	0.7027	0.0	No	2.679	0.021	n/a	LatePress	0	n/a	n/a	10	73	Cue	MissedWin	True
690.272	4.0	Win2	0.7027	0.0	No	2.679	0.001	n/a	LatePress	0	n/a	n/a	10	73	Fixation	MissedWin	True
694.267	0.15	Win2	0.7027	0.004	No	2.679	-0.004	3.0	LatePress	0	0.15	693.417	10	73	Target	MissedWin	True
694.417	0.55	Win2	0.7027	n/a	No	2.679	n/a	n/a	LatePress	0	n/a	n/a	10	73	Blank	MissedWin	True
694.417	0.3	Win2	0.7027	0.004	No	2.679	-0.004	3.0	LatePress	0	0.15	n/a	10	73	ButtonPress	MissedWin	True
694.969	1.45	Win2	0.7027	n/a	No	2.679	n/a	5.0	LatePress	0	0.022	693.991	10	73	Feedback	MissedWin	True
696.423	2.679	Win2	0.7027	n/a	No	2.679	n/a	n/a	LatePress	0	0.0	n/a	10	73	ISIslide	MissedWin	True
699.131	0.25	Lose2	0.6933	0.001	No	2.619	0.031	n/a	NoResponse	-1	n/a	n/a	9	74	Cue	Loss	False
699.382	4.05	Lose2	0.6933	0.0	No	2.619	0.001	3.0	NoResponse	-1	3.819	702.201	9	74	Fixation	Loss	False
703.201	0.3	Lose2	0.6933	0.0	No	2.619	0.001	3.0	NoResponse	-1	3.819	n/a	9	74	ButtonPress	Loss	False
703.428	0.15	Lose2	0.6933	0.003	No	2.619	-0.003	3.0	NoResponse	-1	0.212	702.64	9	74	Target	Loss	False
703.578	0.55	Lose2	0.6933	n/a	No	2.619	n/a	n/a	NoResponse	-1	n/a	n/a	9	74	Blank	Loss	False
703.64	0.3	Lose2	0.6933	0.003	No	2.619	-0.003	3.0	NoResponse	-1	0.212	n/a	9	74	ButtonPress	Loss	False
704.13	1.45	Lose2	0.6933	n/a	No	2.619	n/a	5.0	NoResponse	-1	0.032	703.162	9	74	Feedback	Loss	False
705.584	2.619	Lose2	0.6933	n/a	No	2.619	n/a	n/a	NoResponse	-1	0.0	n/a	9	74	ISIslide	Loss	False
708.225	0.25	Lose2	0.6842	0.0	No	2.925	0.025	n/a	NoResponse	-1	n/a	n/a	8	75	Cue	Loss	True
708.476	3.95	Lose2	0.6842	0.0	No	2.925	0.001	n/a	NoResponse	-1	n/a	n/a	8	75	Fixation	Loss	True
712.421	0.15	Lose2	0.6842	0.004	No	2.925	-0.004	3.0	NoResponse	-1	0.176	711.597	8	75	Target	Loss	True
712.572	0.55	Lose2	0.6842	n/a	No	2.925	n/a	n/a	NoResponse	-1	n/a	n/a	8	75	Blank	Loss	True
712.597	0.3	Lose2	0.6842	0.004	No	2.925	-0.004	3.0	NoResponse	-1	0.176	n/a	8	75	ButtonPress	Loss	True
713.123	1.45	Lose2	0.6842	n/a	No	2.925	n/a	5.0	NoResponse	-1	0.014	712.137	8	75	Feedback	Loss	True
714.578	2.925	Lose2	0.6842	n/a	No	2.925	n/a	n/a	NoResponse	-1	0.0	n/a	8	75	ISIslide	Loss	True
717.52	0.25	Control	0.6753	0.0	No	3.23	0.02	n/a	NoResponse	0	n/a	n/a	8	76	Cue	Neutral	True
717.77	4.05	Control	0.6753	0.001	No	3.23	0.0	n/a	NoResponse	0	n/a	n/a	8	76	Fixation	Neutral	True
721.816	0.15	Control	0.6753	0.004	No	3.23	-0.004	3.0	NoResponse	0	0.179	720.995	8	76	Target	Neutral	True
721.966	0.55	Control	0.6753	n/a	No	3.23	n/a	n/a	NoResponse	0	n/a	n/a	8	76	Blank	Neutral	True
721.995	0.3	Control	0.6753	0.004	No	3.23	-0.004	3.0	NoResponse	0	0.179	n/a	8	76	ButtonPress	Neutral	True
722.518	1.45	Control	0.6753	n/a	No	3.23	n/a	5.0	NoResponse	0	0.033	721.551	8	76	Feedback	Neutral	True
723.972	3.23	Control	0.6753	n/a	No	3.23	n/a	n/a	NoResponse	0	0.0	n/a	8	76	ISIslide	Neutral	True
727.215	0.25	Lose2	0.6667000000000001	0.0	No	2.585	0.015	n/a	NoResponse	-1	n/a	n/a	7	77	Cue	Loss	True
727.466	3.95	Lose2	0.6667000000000001	0.0	No	2.585	0.001	n/a	NoResponse	-1	n/a	n/a	7	77	Fixation	Loss	True
731.411	0.15	Lose2	0.6667000000000001	0.004	No	2.585	-0.004	3.0	NoResponse	-1	0.174	730.585	7	77	Target	Loss	True
731.562	0.55	Lose2	0.6667000000000001	n/a	No	2.585	n/a	n/a	NoResponse	-1	n/a	n/a	7	77	Blank	Loss	True
731.585	0.3	Lose2	0.6667000000000001	0.004	No	2.585	-0.004	3.0	NoResponse	-1	0.174	n/a	7	77	ButtonPress	Loss	True
732.113	1.45	Lose2	0.6667000000000001	n/a	No	2.585	n/a	5.0	NoResponse	-1	0.048	731.161	7	77	Feedback	Loss	True
733.568	2.585	Lose2	0.6667000000000001	n/a	No	2.585	n/a	n/a	NoResponse	-1	0.0	n/a	7	77	ISIslide	Loss	True
