onset	duration	cue_type	current_mean_accuracy	duration_error	is_hit	isi_adjusted	onset_delay	response	response_type	reward	rt	rt_time	total_reward	trial_number	trial_phase	trial_type	one_press
11.108	0.25	Control	1.0	0.0	Yes	2.942	0.008	n/a	GoodResponse	0	n/a	n/a	0	0	Cue	Neutral	True
11.358	3.85	Control	1.0	0.0	Yes	2.942	0.0	n/a	GoodResponse	0	n/a	n/a	0	0	Fixation	Neutral	True
15.22	0.4	Control	1.0	0.0	Yes	2.942	0.012	4.0	GoodResponse	0	0.216	14.435999999999996	0	0	Target	Neutral	True
15.436	0.3	Control	1.0	0.0	Yes	2.942	0.012	4.0	GoodResponse	0	0.216	n/a	0	0	ButtonPress	Neutral	True
15.604	0.3	Control	1.0	n/a	Yes	2.942	n/a	n/a	GoodResponse	0	n/a	n/a	0	0	Blank	Neutral	True
15.905	1.45	Control	1.0	n/a	Yes	2.942	n/a	5.0	GoodResponse	0	0.021	14.925999999999997	0	0	Feedback	Neutral	True
17.36	2.942	Control	1.0	n/a	Yes	2.942	n/a	n/a	GoodResponse	0	0.0	n/a	0	0	ISIslide	Neutral	True
20.318	0.25	Lose2	1.0	0.001	Yes	2.782	0.018	n/a	GoodResponse	0	n/a	n/a	0	1	Cue	AvoidedLoss	True
20.569	4.0	Lose2	1.0	0.0	Yes	2.782	0.001	n/a	GoodResponse	0	n/a	n/a	0	1	Fixation	AvoidedLoss	True
24.564	0.39	Lose2	1.0	0.004	Yes	2.782	-0.004	4.0	GoodResponse	0	0.272	23.835999999999995	0	1	Target	AvoidedLoss	True
24.836	0.3	Lose2	1.0	0.004	Yes	2.782	-0.004	4.0	GoodResponse	0	0.272	n/a	0	1	ButtonPress	AvoidedLoss	True
24.966	0.31	Lose2	1.0	n/a	Yes	2.782	n/a	n/a	GoodResponse	0	n/a	n/a	0	1	Blank	AvoidedLoss	True
25.267	1.45	Lose2	1.0	n/a	Yes	2.782	n/a	5.0	GoodResponse	0	0.025	24.291999999999998	0	1	Feedback	AvoidedLoss	True
26.721	2.782	Lose2	1.0	n/a	Yes	2.782	n/a	n/a	GoodResponse	0	0.0	n/a	0	1	ISIslide	AvoidedLoss	True
29.529	0.25	Control	1.0	0.0	Yes	2.571	0.029	n/a	GoodResponse	0	n/a	n/a	0	2	Cue	Neutral	True
29.78	4.1	Control	1.0	0.0	Yes	2.571	0.001	n/a	GoodResponse	0	n/a	n/a	0	2	Fixation	Neutral	True
33.876	0.38	Control	1.0	0.003	Yes	2.571	-0.003	4.0	GoodResponse	0	0.225	33.101	0	2	Target	Neutral	True
34.101	0.3	Control	1.0	0.003	Yes	2.571	-0.003	4.0	GoodResponse	0	0.225	n/a	0	2	ButtonPress	Neutral	True
34.26	0.32	Control	1.0	n/a	Yes	2.571	n/a	n/a	GoodResponse	0	n/a	n/a	0	2	Blank	Neutral	True
34.578	1.45	Control	1.0	n/a	Yes	2.571	n/a	5.0	GoodResponse	0	0.031	33.609	0	2	Feedback	Neutral	True
36.032	2.571	Control	1.0	n/a	Yes	2.571	n/a	n/a	GoodResponse	0	0.0	n/a	0	2	ISIslide	Neutral	True
38.623	0.25	Win2	1.0	0.0	Yes	2.827	0.023	n/a	GoodResponse	1	n/a	n/a	1	3	Cue	Win	True
38.874	3.95	Win2	1.0	0.0	Yes	2.827	0.001	n/a	GoodResponse	1	n/a	n/a	1	3	Fixation	Win	True
42.819	0.37	Win2	1.0	0.004	Yes	2.827	-0.004	4.0	GoodResponse	1	0.253	42.072	1	3	Target	Win	True
43.072	0.3	Win2	1.0	0.004	Yes	2.827	-0.004	4.0	GoodResponse	1	0.253	n/a	1	3	ButtonPress	Win	True
43.204	0.33	Win2	1.0	n/a	Yes	2.827	n/a	n/a	GoodResponse	1	n/a	n/a	1	3	Blank	Win	True
43.521	1.45	Win2	1.0	n/a	Yes	2.827	n/a	5.0	GoodResponse	1	0.015	42.536	1	3	Feedback	Win	True
44.976	2.827	Win2	1.0	n/a	Yes	2.827	n/a	n/a	GoodResponse	1	0.0	n/a	1	3	ISIslide	Win	True
47.817	0.25	Win2	1.0	0.0	Yes	3.283	0.017	n/a	GoodResponse	1	n/a	n/a	2	4	Cue	Win	True
48.068	4.0	Win2	1.0	0.0	Yes	3.283	0.001	n/a	GoodResponse	1	n/a	n/a	2	4	Fixation	Win	True
52.063	0.36	Win2	1.0	0.004	Yes	3.283	-0.004	4.0	GoodResponse	1	0.251	51.314	2	4	Target	Win	True
52.314	0.3	Win2	1.0	0.004	Yes	3.283	-0.004	4.0	GoodResponse	1	0.251	n/a	2	4	ButtonPress	Win	True
52.431	0.34	Win2	1.0	n/a	Yes	3.283	n/a	n/a	GoodResponse	1	n/a	n/a	2	4	Blank	Win	True
52.765	1.45	Win2	1.0	n/a	Yes	3.283	n/a	5.0	GoodResponse	1	0.039	51.804	2	4	Feedback	Win	True
54.22	3.283	Win2	1.0	n/a	Yes	3.283	n/a	n/a	GoodResponse	1	0.0	n/a	2	4	ISIslide	Win	True
57.53	0.25	Win2	1.0	0.0	Yes	2.77	0.03	n/a	GoodResponse	1	n/a	n/a	3	5	Cue	Win	True
57.78	4.0	Win2	1.0	0.001	Yes	2.77	0.0	n/a	GoodResponse	1	n/a	n/a	3	5	Fixation	Win	True
61.776	0.35	Win2	1.0	0.004	Yes	2.77	-0.004	4.0	GoodResponse	1	0.232	61.008	3	5	Target	Win	True
62.008	0.3	Win2	1.0	0.004	Yes	2.77	-0.004	4.0	GoodResponse	1	0.232	n/a	3	5	ButtonPress	Win	True
62.127	0.35	Win2	1.0	n/a	Yes	2.77	n/a	n/a	GoodResponse	1	n/a	n/a	3	5	Blank	Win	True
62.478	1.45	Win2	1.0	n/a	Yes	2.77	n/a	5.0	GoodResponse	1	0.033	61.511	3	5	Feedback	Win	True
63.932	2.77	Win2	1.0	n/a	Yes	2.77	n/a	n/a	GoodResponse	1	0.0	n/a	3	5	ISIslide	Win	True
66.724	0.25	Lose2	1.0	0.0	Yes	2.726	0.024	n/a	GoodResponse	0	n/a	n/a	3	6	Cue	AvoidedLoss	True
66.975	3.95	Lose2	1.0	0.0	Yes	2.726	0.001	n/a	GoodResponse	0	n/a	n/a	3	6	Fixation	AvoidedLoss	True
70.92	0.34	Lose2	1.0	0.004	Yes	2.726	-0.004	4.0	GoodResponse	0	0.223	70.143	3	6	Target	AvoidedLoss	True
71.143	0.3	Lose2	1.0	0.004	Yes	2.726	-0.004	4.0	GoodResponse	0	0.223	n/a	3	6	ButtonPress	AvoidedLoss	True
71.271	0.36	Lose2	1.0	n/a	Yes	2.726	n/a	n/a	GoodResponse	0	n/a	n/a	3	6	Blank	AvoidedLoss	True
71.622	1.45	Lose2	1.0	n/a	Yes	2.726	n/a	5.0	GoodResponse	0	0.011	70.633	3	6	Feedback	AvoidedLoss	True
73.076	2.726	Lose2	1.0	n/a	Yes	2.726	n/a	n/a	GoodResponse	0	0.0	n/a	3	6	ISIslide	AvoidedLoss	True
75.818	0.25	Lose2	1.0	0.0	Yes	4.032	0.018	n/a	GoodResponse	0	n/a	n/a	3	7	Cue	AvoidedLoss	True
76.068	4.05	Lose2	1.0	0.001	Yes	4.032	0.0	n/a	GoodResponse	0	n/a	n/a	3	7	Fixation	AvoidedLoss	True
80.114	0.33	Lose2	1.0	0.004	Yes	4.032	-0.004	4.0	GoodResponse	0	0.188	79.302	3	7	Target	AvoidedLoss	True
80.302	0.3	Lose2	1.0	0.004	Yes	4.032	-0.004	4.0	GoodResponse	0	0.188	n/a	3	7	ButtonPress	AvoidedLoss	True
80.448	0.37	Lose2	1.0	n/a	Yes	4.032	n/a	n/a	GoodResponse	0	n/a	n/a	3	7	Blank	AvoidedLoss	True
80.816	1.45	Lose2	1.0	n/a	Yes	4.032	n/a	5.0	GoodResponse	0	0.036	79.852	3	7	Feedback	AvoidedLoss	True
82.27	4.032	Lose2	1.0	n/a	Yes	4.032	n/a	n/a	GoodResponse	0	0.0	n/a	3	7	ISIslide	AvoidedLoss	True
86.316	0.25	Lose2	1.0	0.0	Yes	3.034	0.016	n/a	GoodResponse	0	n/a	n/a	3	8	Cue	AvoidedLoss	True
86.567	3.95	Lose2	1.0	0.0	Yes	3.034	0.001	n/a	GoodResponse	0	n/a	n/a	3	8	Fixation	AvoidedLoss	True
90.512	0.32	Lose2	1.0	0.004	Yes	3.034	-0.004	4.0	GoodResponse	0	0.211	89.723	3	8	Target	AvoidedLoss	True
90.723	0.3	Lose2	1.0	0.004	Yes	3.034	-0.004	4.0	GoodResponse	0	0.211	n/a	3	8	ButtonPress	AvoidedLoss	True
90.846	0.38	Lose2	1.0	n/a	Yes	3.034	n/a	n/a	GoodResponse	0	n/a	n/a	3	8	Blank	AvoidedLoss	True
91.214	1.45	Lose2	1.0	n/a	Yes	3.034	n/a	5.0	GoodResponse	0	0.029	90.243	3	8	Feedback	AvoidedLoss	True
92.668	3.034	Lose2	1.0	n/a	Yes	3.034	n/a	n/a	GoodResponse	0	0.0	n/a	3	8	ISIslide	AvoidedLoss	True
95.727	0.25	Lose2	1.0	0.0	Yes	3.123	0.027	n/a	GoodResponse	0	n/a	n/a	3	9	Cue	AvoidedLoss	True
95.978	3.95	Lose2	1.0	0.0	Yes	3.123	0.001	n/a	GoodResponse	0	n/a	n/a	3	9	Fixation	AvoidedLoss	True
99.923	0.31	Lose2	1.0	0.004	Yes	3.123	-0.004	4.0	GoodResponse	0	0.214	99.137	3	9	Target	AvoidedLoss	True
100.137	0.3	Lose2	1.0	0.004	Yes	3.123	-0.004	4.0	GoodResponse	0	0.214	n/a	3	9	ButtonPress	AvoidedLoss	True
100.241	0.39	Lose2	1.0	n/a	Yes	3.123	n/a	n/a	GoodResponse	0	n/a	n/a	3	9	Blank	AvoidedLoss	True
100.625	1.45	Lose2	1.0	n/a	Yes	3.123	n/a	5.0	GoodResponse	0	0.032	99.657	3	9	Feedback	AvoidedLoss	True
102.08	3.123	Lose2	1.0	n/a	Yes	3.123	n/a	n/a	GoodResponse	0	0.0	n/a	3	9	ISIslide	AvoidedLoss	True
105.222	0.25	Control	1.0	0.0	Yes	3.278	0.022	n/a	GoodResponse	0	n/a	n/a	3	10	Cue	Neutral	True
105.473	4.0	Control	1.0	0.0	Yes	3.278	0.001	n/a	GoodResponse	0	n/a	n/a	3	10	Fixation	Neutral	True
109.468	0.3	Control	1.0	0.004	Yes	3.278	-0.004	4.0	GoodResponse	0	0.238	108.706	3	10	Target	Neutral	True
109.706	0.3	Control	1.0	0.004	Yes	3.278	-0.004	4.0	GoodResponse	0	0.238	n/a	3	10	ButtonPress	Neutral	True
109.769	0.4	Control	1.0	n/a	Yes	3.278	n/a	n/a	GoodResponse	0	n/a	n/a	3	10	Blank	Neutral	True
110.17	1.45	Control	1.0	n/a	Yes	3.278	n/a	5.0	GoodResponse	0	0.048	109.218	3	10	Feedback	Neutral	True
111.625	3.278	Control	1.0	n/a	Yes	3.278	n/a	n/a	GoodResponse	0	0.0	n/a	3	10	ISIslide	Neutral	True
114.918	0.25	Lose2	1.0	0.0	Yes	2.732	0.018	n/a	GoodResponse	0	n/a	n/a	3	11	Cue	AvoidedLoss	True
115.169	4.05	Lose2	1.0	0.0	Yes	2.732	0.001	n/a	GoodResponse	0	n/a	n/a	3	11	Fixation	AvoidedLoss	True
119.214	0.29	Lose2	1.0	0.004	Yes	2.732	-0.004	4.0	GoodResponse	0	0.235	118.449	3	11	Target	AvoidedLoss	True
119.449	0.3	Lose2	1.0	0.004	Yes	2.732	-0.004	4.0	GoodResponse	0	0.235	n/a	3	11	ButtonPress	AvoidedLoss	True
119.515	0.41	Lose2	1.0	n/a	Yes	2.732	n/a	n/a	GoodResponse	0	n/a	n/a	3	11	Blank	AvoidedLoss	True
119.916	1.45	Lose2	1.0	n/a	Yes	2.732	n/a	5.0	GoodResponse	0	0.009	118.925	3	11	Feedback	AvoidedLoss	True
121.371	2.732	Lose2	1.0	n/a	Yes	2.732	n/a	n/a	GoodResponse	0	0.0	n/a	3	11	ISIslide	AvoidedLoss	True
124.129	0.25	Control	1.0	0.0	Yes	2.971	0.029	n/a	GoodResponse	0	n/a	n/a	3	12	Cue	Neutral	True
124.38	3.9	Control	1.0	0.0	Yes	2.971	0.001	n/a	GoodResponse	0	n/a	n/a	3	12	Fixation	Neutral	True
128.275	0.28	Control	1.0	0.004	Yes	2.971	-0.004	4.0	GoodResponse	0	0.208	127.483	3	12	Target	Neutral	True
128.483	0.3	Control	1.0	0.004	Yes	2.971	-0.004	4.0	GoodResponse	0	0.208	n/a	3	12	ButtonPress	Neutral	True
128.559	0.42	Control	1.0	n/a	Yes	2.971	n/a	n/a	GoodResponse	0	n/a	n/a	3	12	Blank	Neutral	True
128.977	1.45	Control	1.0	n/a	Yes	2.971	n/a	5.0	GoodResponse	0	0.021	127.998	3	12	Feedback	Neutral	True
130.431	2.971	Control	1.0	n/a	Yes	2.971	n/a	n/a	GoodResponse	0	0.0	n/a	3	12	ISIslide	Neutral	True
133.423	0.25	Control	0.9286	0.0	No	2.777	0.023	n/a	NoResponse	0	n/a	n/a	3	13	Cue	Neutral	True
133.674	4.0	Control	0.9286	0.0	No	2.777	0.001	n/a	NoResponse	0	n/a	n/a	3	13	Fixation	Neutral	True
137.669	0.27	Control	0.9286	0.004	No	2.777	-0.004	4.0	NoResponse	0	0.384	137.053	3	13	Target	Neutral	True
137.954	0.43	Control	0.9286	n/a	No	2.777	n/a	n/a	NoResponse	0	n/a	n/a	3	13	Blank	Neutral	True
138.053	0.3	Control	0.9286	0.004	No	2.777	-0.004	4.0	NoResponse	0	0.384	n/a	3	13	ButtonPress	Neutral	True
138.371	1.45	Control	0.9286	n/a	No	2.777	n/a	5.0	NoResponse	0	0.042	137.413	3	13	Feedback	Neutral	True
139.826	2.777	Control	0.9286	n/a	No	2.777	n/a	n/a	NoResponse	0	0.0	n/a	3	13	ISIslide	Neutral	True
142.617	0.25	Win2	0.9333	0.001	Yes	2.683	0.017	n/a	GoodResponse	1	n/a	n/a	4	14	Cue	Win	True
142.868	4.1	Win2	0.9333	0.0	Yes	2.683	0.001	n/a	GoodResponse	1	n/a	n/a	4	14	Fixation	Win	True
146.964	0.26	Win2	0.9333	0.003	Yes	2.683	-0.003	4.0	GoodResponse	1	0.204	146.168	4	14	Target	Win	True
147.168	0.3	Win2	0.9333	0.003	Yes	2.683	-0.003	4.0	GoodResponse	1	0.204	n/a	4	14	ButtonPress	Win	True
147.231	0.44	Win2	0.9333	n/a	Yes	2.683	n/a	n/a	GoodResponse	1	n/a	n/a	4	14	Blank	Win	True
147.666	1.45	Win2	0.9333	n/a	Yes	2.683	n/a	5.0	GoodResponse	1	0.014	146.68	4	14	Feedback	Win	True
149.12	2.683	Win2	0.9333	n/a	Yes	2.683	n/a	n/a	GoodResponse	1	0.0	n/a	4	14	ISIslide	Win	True
151.828	0.25	Control	0.9375	0.0	Yes	2.972	0.028	n/a	GoodResponse	0	n/a	n/a	4	15	Cue	Neutral	True
152.079	4.0	Control	0.9375	0.0	Yes	2.972	0.001	n/a	GoodResponse	0	n/a	n/a	4	15	Fixation	Neutral	True
156.074	0.25	Control	0.9375	0.004	Yes	2.972	-0.004	4.0	GoodResponse	0	0.188	155.262	4	15	Target	Neutral	True
156.262	0.3	Control	0.9375	0.004	Yes	2.972	-0.004	4.0	GoodResponse	0	0.188	n/a	4	15	ButtonPress	Neutral	True
156.325	0.45	Control	0.9375	n/a	Yes	2.972	n/a	n/a	GoodResponse	0	n/a	n/a	4	15	Blank	Neutral	True
156.776	1.45	Control	0.9375	n/a	Yes	2.972	n/a	5.0	GoodResponse	0	0.027	155.803	4	15	Feedback	Neutral	True
158.231	2.972	Control	0.9375	n/a	Yes	2.972	n/a	n/a	GoodResponse	0	0.0	n/a	4	15	ISIslide	Neutral	True
161.223	0.25	Win2	0.9412	0.0	Yes	2.877	0.023	n/a	GoodResponse	1	n/a	n/a	5	16	Cue	Win	True
161.474	4.0	Win2	0.9412	0.0	Yes	2.877	0.001	n/a	GoodResponse	1	n/a	n/a	5	16	Fixation	Win	True
165.469	0.24	Win2	0.9412	0.004	Yes	2.877	-0.004	4.0	GoodResponse	1	0.218	164.687	5	16	Target	Win	True
165.687	0.3	Win2	0.9412	0.004	Yes	2.877	-0.004	4.0	GoodResponse	1	0.218	n/a	5	16	ButtonPress	Win	True
165.72	0.46	Win2	0.9412	n/a	Yes	2.877	n/a	n/a	GoodResponse	1	n/a	n/a	5	16	Blank	Win	True
166.171	1.45	Win2	0.9412	n/a	Yes	2.877	n/a	5.0	GoodResponse	1	0.046	165.217	5	16	Feedback	Win	True
167.626	2.877	Win2	0.9412	n/a	Yes	2.877	n/a	n/a	GoodResponse	1	0.0	n/a	5	16	ISIslide	Win	True
170.518	0.25	Lose2	0.9444	0.0	Yes	2.732	0.018	n/a	GoodResponse	0	n/a	n/a	5	17	Cue	AvoidedLoss	True
170.768	3.95	Lose2	0.9444	0.0	Yes	2.732	0.0	n/a	GoodResponse	0	n/a	n/a	5	17	Fixation	AvoidedLoss	True
174.73	0.23	Lose2	0.9444	0.0	Yes	2.732	0.012	4.0	GoodResponse	0	0.174	173.904	5	17	Target	AvoidedLoss	True
174.904	0.3	Lose2	0.9444	0.0	Yes	2.732	0.012	4.0	GoodResponse	0	0.174	n/a	5	17	ButtonPress	AvoidedLoss	True
174.947	0.47	Lose2	0.9444	n/a	Yes	2.732	n/a	n/a	GoodResponse	0	n/a	n/a	5	17	Blank	AvoidedLoss	True
175.415	1.45	Lose2	0.9444	n/a	Yes	2.732	n/a	5.0	GoodResponse	0	0.022	174.437	5	17	Feedback	AvoidedLoss	True
176.87	2.732	Lose2	0.9444	n/a	Yes	2.732	n/a	n/a	GoodResponse	0	0.0	n/a	5	17	ISIslide	AvoidedLoss	True
179.628	0.25	Lose2	0.9473999999999999	0.0	Yes	2.722	0.028	n/a	GoodResponse	0	n/a	n/a	5	18	Cue	AvoidedLoss	True
179.879	4.05	Lose2	0.9473999999999999	0.0	Yes	2.722	0.001	n/a	GoodResponse	0	n/a	n/a	5	18	Fixation	AvoidedLoss	True
183.924	0.22	Lose2	0.9473999999999999	0.004	Yes	2.722	-0.004	4.0	GoodResponse	0	0.21	183.134	5	18	Target	AvoidedLoss	True
184.134	0.3	Lose2	0.9473999999999999	0.004	Yes	2.722	-0.004	4.0	GoodResponse	0	0.21	n/a	5	18	ButtonPress	AvoidedLoss	True
184.158	0.48	Lose2	0.9473999999999999	n/a	Yes	2.722	n/a	n/a	GoodResponse	0	n/a	n/a	5	18	Blank	AvoidedLoss	True
184.626	1.45	Lose2	0.9473999999999999	n/a	Yes	2.722	n/a	5.0	GoodResponse	0	0.029	183.655	5	18	Feedback	AvoidedLoss	True
186.081	2.722	Lose2	0.9473999999999999	n/a	Yes	2.722	n/a	n/a	GoodResponse	0	0.0	n/a	5	18	ISIslide	AvoidedLoss	True
188.822	0.25	Control	0.95	0.0	Yes	2.928	0.022	n/a	GoodResponse	0	n/a	n/a	5	19	Cue	Neutral	True
189.073	3.95	Control	0.95	0.0	Yes	2.928	0.001	n/a	GoodResponse	0	n/a	n/a	5	19	Fixation	Neutral	True
193.018	0.21	Control	0.95	0.004	Yes	2.928	-0.004	4.0	GoodResponse	0	0.178	192.196	5	19	Target	Neutral	True
193.196	0.3	Control	0.95	0.004	Yes	2.928	-0.004	4.0	GoodResponse	0	0.178	n/a	5	19	ButtonPress	Neutral	True
193.235	0.49	Control	0.95	n/a	Yes	2.928	n/a	n/a	GoodResponse	0	n/a	n/a	5	19	Blank	Neutral	True
193.72	1.45	Control	0.95	n/a	Yes	2.928	n/a	5.0	GoodResponse	0	0.009	192.729	5	19	Feedback	Neutral	True
195.175	2.928	Control	0.95	n/a	Yes	2.928	n/a	n/a	GoodResponse	0	0.0	n/a	5	19	ISIslide	Neutral	True
198.117	0.25	Control	0.9048	0.0	No	2.633	0.017	n/a	NoResponse	0	n/a	n/a	5	20	Cue	Neutral	True
198.367	4.05	Control	0.9048	0.001	No	2.633	0.0	n/a	NoResponse	0	n/a	n/a	5	20	Fixation	Neutral	True
202.413	0.2	Control	0.9048	0.004	No	2.633	-0.004	4.0	NoResponse	0	0.212	201.625	5	20	Target	Neutral	True
202.613	0.5	Control	0.9048	n/a	No	2.633	n/a	n/a	NoResponse	0	n/a	n/a	5	20	Blank	Neutral	True
202.625	0.3	Control	0.9048	0.004	No	2.633	-0.004	4.0	NoResponse	0	0.212	n/a	5	20	ButtonPress	Neutral	True
203.115	1.45	Control	0.9048	n/a	No	2.633	n/a	5.0	NoResponse	0	0.029	202.144	5	20	Feedback	Neutral	True
204.569	2.633	Control	0.9048	n/a	No	2.633	n/a	n/a	NoResponse	0	0.0	n/a	5	20	ISIslide	Neutral	True
207.227	0.25	Control	0.8636	0.0	No	2.773	0.027	n/a	LatePress	0	n/a	n/a	5	21	Cue	Neutral	True
207.478	4.1	Control	0.8636	0.0	No	2.773	0.001	n/a	LatePress	0	n/a	n/a	5	21	Fixation	Neutral	True
211.574	0.19	Control	0.8636	0.003	No	2.773	-0.003	4.0	LatePress	0	0.197	210.771	5	21	Target	Neutral	True
211.771	0.3	Control	0.8636	0.003	No	2.773	-0.003	4.0	LatePress	0	0.197	n/a	5	21	ButtonPress	Neutral	True
211.774	0.51	Control	0.8636	n/a	No	2.773	n/a	n/a	LatePress	0	n/a	n/a	5	21	Blank	Neutral	True
212.276	1.45	Control	0.8636	n/a	No	2.773	n/a	5.0	LatePress	0	0.038	211.314	5	21	Feedback	Neutral	True
213.73	2.773	Control	0.8636	n/a	No	2.773	n/a	n/a	LatePress	0	0.0	n/a	5	21	ISIslide	Neutral	True
216.522	0.25	Control	0.8261	0.0	No	2.778	0.022	n/a	NoResponse	0	n/a	n/a	5	22	Cue	Neutral	True
216.772	4.0	Control	0.8261	0.001	No	2.778	0.0	n/a	NoResponse	0	n/a	n/a	5	22	Fixation	Neutral	True
220.768	0.18	Control	0.8261	0.004	No	2.778	-0.004	4.0	NoResponse	0	0.202	219.97	5	22	Target	Neutral	True
220.952	0.52	Control	0.8261	n/a	No	2.778	n/a	n/a	NoResponse	0	n/a	n/a	5	22	Blank	Neutral	True
220.97	0.3	Control	0.8261	0.004	No	2.778	-0.004	4.0	NoResponse	0	0.202	n/a	5	22	ButtonPress	Neutral	True
221.47	1.45	Control	0.8261	n/a	No	2.778	n/a	5.0	NoResponse	0	0.015	220.485	5	22	Feedback	Neutral	True
222.924	2.778	Control	0.8261	n/a	No	2.778	n/a	n/a	NoResponse	0	0.0	n/a	5	22	ISIslide	Neutral	True
225.716	0.25	Control	0.7917000000000001	0.0	No	2.784	0.016	n/a	NoResponse	0	n/a	n/a	5	23	Cue	Neutral	True
225.967	3.9	Control	0.7917000000000001	0.0	No	2.784	0.001	n/a	NoResponse	0	n/a	n/a	5	23	Fixation	Neutral	True
229.862	0.17	Control	0.7917000000000001	0.004	No	2.784	-0.004	4.0	NoResponse	0	0.267	229.129	5	23	Target	Neutral	True
230.046	0.53	Control	0.7917000000000001	n/a	No	2.784	n/a	n/a	NoResponse	0	n/a	n/a	5	23	Blank	Neutral	True
230.129	0.3	Control	0.7917000000000001	0.004	No	2.784	-0.004	4.0	NoResponse	0	0.267	n/a	5	23	ButtonPress	Neutral	True
230.564	1.45	Control	0.7917000000000001	n/a	No	2.784	n/a	5.0	NoResponse	0	0.042	229.606	5	23	Feedback	Neutral	True
232.018	2.784	Control	0.7917000000000001	n/a	No	2.784	n/a	n/a	NoResponse	0	0.0	n/a	5	23	ISIslide	Neutral	True
234.826	0.25	Win2	0.76	0.001	No	3.124	0.026	n/a	NoResponse	0	n/a	n/a	5	24	Cue	MissedWin	True
235.077	3.95	Win2	0.76	0.0	No	3.124	0.001	4.0	NoResponse	0	3.755	237.832	5	24	Fixation	MissedWin	True
238.832	0.3	Win2	0.76	0.0	No	3.124	0.001	4.0	NoResponse	0	3.755	n/a	5	24	ButtonPress	MissedWin	True
239.022	0.16	Win2	0.76	0.004	No	3.124	-0.004	n/a	NoResponse	0	n/a	n/a	5	24	Target	MissedWin	True
239.19	0.54	Win2	0.76	n/a	No	3.124	n/a	n/a	NoResponse	0	n/a	n/a	5	24	Blank	MissedWin	True
239.724	1.45	Win2	0.76	n/a	No	3.124	n/a	5.0	NoResponse	0	0.007	238.731	5	24	Feedback	MissedWin	True
241.179	3.124	Win2	0.76	n/a	No	3.124	n/a	n/a	NoResponse	0	0.0	n/a	5	24	ISIslide	MissedWin	True
244.322	0.25	Win2	0.7308	0.0	No	3.078	0.022	n/a	NoResponse	0	n/a	n/a	5	25	Cue	MissedWin	True
244.572	4.0	Win2	0.7308	0.0	No	3.078	0.0	n/a	NoResponse	0	n/a	n/a	5	25	Fixation	MissedWin	True
248.568	0.15	Win2	0.7308	0.004	No	3.078	-0.004	4.0	NoResponse	0	0.221	247.789	5	25	Target	MissedWin	True
248.718	0.55	Win2	0.7308	n/a	No	3.078	n/a	n/a	NoResponse	0	n/a	n/a	5	25	Blank	MissedWin	True
248.789	0.3	Win2	0.7308	0.004	No	3.078	-0.004	4.0	NoResponse	0	0.221	n/a	5	25	ButtonPress	MissedWin	True
249.27	1.45	Win2	0.7308	n/a	No	3.078	n/a	5.0	NoResponse	0	0.019	248.289	5	25	Feedback	MissedWin	True
250.724	3.078	Win2	0.7308	n/a	No	3.078	n/a	n/a	NoResponse	0	0.0	n/a	5	25	ISIslide	MissedWin	True
253.817	0.25	Win2	0.7037	0.0	No	2.933	0.017	n/a	NoResponse	0	n/a	n/a	5	26	Cue	MissedWin	True
254.067	3.95	Win2	0.7037	0.0	No	2.933	0.0	n/a	NoResponse	0	n/a	n/a	5	26	Fixation	MissedWin	True
258.029	0.15	Win2	0.7037	0.0	No	2.933	0.012	4.0	NoResponse	0	0.249	257.278	5	26	Target	MissedWin	True
258.163	0.55	Win2	0.7037	n/a	No	2.933	n/a	n/a	NoResponse	0	n/a	n/a	5	26	Blank	MissedWin	True
258.278	0.3	Win2	0.7037	0.0	No	2.933	0.012	4.0	NoResponse	0	0.249	n/a	5	26	ButtonPress	MissedWin	True
258.715	1.45	Win2	0.7037	n/a	No	2.933	n/a	5.0	NoResponse	0	0.038	257.753	5	26	Feedback	MissedWin	True
260.169	2.933	Win2	0.7037	n/a	No	2.933	n/a	n/a	NoResponse	0	0.0	n/a	5	26	ISIslide	MissedWin	True
263.128	0.25	Lose2	0.6786	0.0	No	2.822	0.028	n/a	NoResponse	-1	n/a	n/a	4	27	Cue	Loss	True
263.379	4.05	Lose2	0.6786	0.0	No	2.822	0.001	n/a	NoResponse	-1	n/a	n/a	4	27	Fixation	Loss	True
267.424	0.15	Lose2	0.6786	0.004	No	2.822	-0.004	4.0	NoResponse	-1	0.246	266.67	4	27	Target	Loss	True
267.574	0.55	Lose2	0.6786	n/a	No	2.822	n/a	n/a	NoResponse	-1	n/a	n/a	4	27	Blank	Loss	True
267.67	0.3	Lose2	0.6786	0.004	No	2.822	-0.004	4.0	NoResponse	-1	0.246	n/a	4	27	ButtonPress	Loss	True
268.126	1.45	Lose2	0.6786	n/a	No	2.822	n/a	5.0	NoResponse	-1	0.042	267.168	4	27	Feedback	Loss	True
269.58	2.822	Lose2	0.6786	n/a	No	2.822	n/a	n/a	NoResponse	-1	0.0	n/a	4	27	ISIslide	Loss	True
272.422	0.25	Control	0.6552	0.0	No	2.828	0.022	n/a	NoResponse	0	n/a	n/a	4	28	Cue	Neutral	True
272.673	4.05	Control	0.6552	0.0	No	2.828	0.001	n/a	NoResponse	0	n/a	n/a	4	28	Fixation	Neutral	True
276.718	0.15	Control	0.6552	0.004	No	2.828	-0.004	4.0	NoResponse	0	0.248	275.966	4	28	Target	Neutral	True
276.869	0.55	Control	0.6552	n/a	No	2.828	n/a	n/a	NoResponse	0	n/a	n/a	4	28	Blank	Neutral	True
276.966	0.3	Control	0.6552	0.004	No	2.828	-0.004	4.0	NoResponse	0	0.248	n/a	4	28	ButtonPress	Neutral	True
277.42	1.45	Control	0.6552	n/a	No	2.828	n/a	5.0	NoResponse	0	0.015	276.435	4	28	Feedback	Neutral	True
278.875	2.828	Control	0.6552	n/a	No	2.828	n/a	n/a	NoResponse	0	0.0	n/a	4	28	ISIslide	Neutral	True
281.717	0.25	Lose2	0.6333	0.0	No	2.833	0.017	n/a	NoResponse	-1	n/a	n/a	3	29	Cue	Loss	True
281.967	3.95	Lose2	0.6333	0.0	No	2.833	0.0	n/a	NoResponse	-1	n/a	n/a	3	29	Fixation	Loss	True
285.913	0.15	Lose2	0.6333	0.004	No	2.833	-0.004	4.0	NoResponse	-1	0.237	285.15	3	29	Target	Loss	True
286.063	0.55	Lose2	0.6333	n/a	No	2.833	n/a	n/a	NoResponse	-1	n/a	n/a	3	29	Blank	Loss	True
286.15	0.3	Lose2	0.6333	0.004	No	2.833	-0.004	4.0	NoResponse	-1	0.237	n/a	3	29	ButtonPress	Loss	True
286.615	1.45	Lose2	0.6333	n/a	No	2.833	n/a	5.0	NoResponse	-1	0.04	285.655	3	29	Feedback	Loss	True
288.069	2.833	Lose2	0.6333	n/a	No	2.833	n/a	n/a	NoResponse	-1	0.0	n/a	3	29	ISIslide	Loss	True
290.928	0.25	Win2	0.6129	0.0	No	2.772	0.028	n/a	NoResponse	0	n/a	n/a	3	30	Cue	MissedWin	True
291.178	3.9	Win2	0.6129	0.0	No	2.772	0.0	n/a	NoResponse	0	n/a	n/a	3	30	Fixation	MissedWin	True
295.09	0.16	Win2	0.6129	0.0	No	2.772	0.012	4.0	NoResponse	0	0.281	294.371	3	30	Target	MissedWin	True
295.24	0.54	Win2	0.6129	n/a	No	2.772	n/a	n/a	NoResponse	0	n/a	n/a	3	30	Blank	MissedWin	True
295.371	0.3	Win2	0.6129	0.0	No	2.772	0.012	4.0	NoResponse	0	0.281	n/a	3	30	ButtonPress	MissedWin	True
295.775	1.45	Win2	0.6129	n/a	No	2.772	n/a	5.0	NoResponse	0	0.002	294.777	3	30	Feedback	MissedWin	True
297.23	2.772	Win2	0.6129	n/a	No	2.772	n/a	n/a	NoResponse	0	0.0	n/a	3	30	ISIslide	MissedWin	True
300.021	0.25	Lose2	0.5938	0.001	No	2.829	0.021	n/a	NoResponse	-1	n/a	n/a	2	31	Cue	Loss	True
300.272	4.05	Lose2	0.5938	0.0	No	2.829	0.001	n/a	NoResponse	-1	n/a	n/a	2	31	Fixation	Loss	True
304.318	0.17	Lose2	0.5938	0.003	No	2.829	-0.003	4.0	NoResponse	-1	0.198	303.516	2	31	Target	Loss	True
304.501	0.53	Lose2	0.5938	n/a	No	2.829	n/a	n/a	NoResponse	-1	n/a	n/a	2	31	Blank	Loss	True
304.516	0.3	Lose2	0.5938	0.003	No	2.829	-0.003	4.0	NoResponse	-1	0.198	n/a	2	31	ButtonPress	Loss	True
305.02	1.45	Lose2	0.5938	n/a	No	2.829	n/a	5.0	NoResponse	-1	0.025	304.045	2	31	Feedback	Loss	True
306.474	2.829	Lose2	0.5938	n/a	No	2.829	n/a	n/a	NoResponse	-1	0.0	n/a	2	31	ISIslide	Loss	True
309.316	0.25	Lose2	0.5758	0.0	No	2.634	0.016	n/a	NoResponse	-1	n/a	n/a	1	32	Cue	Loss	True
309.567	4.15	Lose2	0.5758	0.0	No	2.634	0.001	n/a	NoResponse	-1	n/a	n/a	1	32	Fixation	Loss	True
313.712	0.18	Lose2	0.5758	0.004	No	2.634	-0.004	4.0	NoResponse	-1	0.233	312.945	1	32	Target	Loss	True
313.896	0.52	Lose2	0.5758	n/a	No	2.634	n/a	n/a	NoResponse	-1	n/a	n/a	1	32	Blank	Loss	True
313.945	0.3	Lose2	0.5758	0.004	No	2.634	-0.004	4.0	NoResponse	-1	0.233	n/a	1	32	ButtonPress	Loss	True
314.414	1.45	Lose2	0.5758	n/a	No	2.634	n/a	5.0	NoResponse	-1	0.045	313.459	1	32	Feedback	Loss	True
315.869	2.634	Lose2	0.5758	n/a	No	2.634	n/a	n/a	NoResponse	-1	0.0	n/a	1	32	ISIslide	Loss	True
318.527	0.25	Win2	0.5588000000000001	0.0	No	2.673	0.027	n/a	NoResponse	0	n/a	n/a	1	33	Cue	MissedWin	True
318.777	4.0	Win2	0.5588000000000001	0.001	No	2.673	0.0	n/a	NoResponse	0	n/a	n/a	1	33	Fixation	MissedWin	True
322.773	0.19	Win2	0.5588000000000001	0.004	No	2.673	-0.004	4.0	NoResponse	0	0.212	321.985	1	33	Target	MissedWin	True
322.973	0.51	Win2	0.5588000000000001	n/a	No	2.673	n/a	n/a	NoResponse	0	n/a	n/a	1	33	Blank	MissedWin	True
322.985	0.3	Win2	0.5588000000000001	0.004	No	2.673	-0.004	4.0	NoResponse	0	0.212	n/a	1	33	ButtonPress	MissedWin	True
323.475	1.45	Win2	0.5588000000000001	n/a	No	2.673	n/a	5.0	NoResponse	0	0.01	322.485	1	33	Feedback	MissedWin	True
324.929	2.673	Win2	0.5588000000000001	n/a	No	2.673	n/a	n/a	NoResponse	0	0.0	n/a	1	33	ISIslide	MissedWin	True
327.621	0.25	Lose2	0.5428999999999999	0.0	No	2.629	0.021	n/a	NoResponse	-1	n/a	n/a	0	34	Cue	Loss	True
327.871	4.05	Lose2	0.5428999999999999	0.0	No	2.629	0.0	n/a	NoResponse	-1	n/a	n/a	0	34	Fixation	Loss	True
331.917	0.2	Lose2	0.5428999999999999	0.004	No	2.629	-0.004	4.0	NoResponse	-1	0.23	331.147	0	34	Target	Loss	True
332.117	0.5	Lose2	0.5428999999999999	n/a	No	2.629	n/a	n/a	NoResponse	-1	n/a	n/a	0	34	Blank	Loss	True
332.147	0.3	Lose2	0.5428999999999999	0.004	No	2.629	-0.004	4.0	NoResponse	-1	0.23	n/a	0	34	ButtonPress	Loss	True
332.619	1.45	Lose2	0.5428999999999999	n/a	No	2.629	n/a	5.0	NoResponse	-1	0.035	331.654	0	34	Feedback	Loss	True
334.073	2.629	Lose2	0.5428999999999999	n/a	No	2.629	n/a	n/a	NoResponse	-1	0.0	n/a	0	34	ISIslide	Loss	True
336.714	0.25	Lose2	0.5278	0.001	No	2.686	0.014	n/a	NoResponse	-1	n/a	n/a	-1	35	Cue	Loss	True
336.965	4.0	Lose2	0.5278	0.0	No	2.686	0.001	n/a	NoResponse	-1	n/a	n/a	-1	35	Fixation	Loss	True
340.96	0.21	Lose2	0.5278	0.004	No	2.686	-0.004	4.0	NoResponse	-1	0.237	340.197	-1	35	Target	Loss	True
341.178	0.49	Lose2	0.5278	n/a	No	2.686	n/a	n/a	NoResponse	-1	n/a	n/a	-1	35	Blank	Loss	True
341.197	0.3	Lose2	0.5278	0.004	No	2.686	-0.004	4.0	NoResponse	-1	0.237	n/a	-1	35	ButtonPress	Loss	True
341.663	1.45	Lose2	0.5278	n/a	No	2.686	n/a	5.0	NoResponse	-1	0.016	340.679	-1	35	Feedback	Loss	True
343.117	2.686	Lose2	0.5278	n/a	No	2.686	n/a	n/a	NoResponse	-1	0.0	n/a	-1	35	ISIslide	Loss	True
345.825	0.25	Control	0.5135000000000001	0.0	No	2.675	0.025	n/a	NoResponse	0	n/a	n/a	-1	36	Cue	Neutral	True
346.076	4.0	Control	0.5135000000000001	0.0	No	2.675	0.001	n/a	NoResponse	0	n/a	n/a	-1	36	Fixation	Neutral	True
350.071	0.22	Control	0.5135000000000001	0.004	No	2.675	-0.004	4.0	NoResponse	0	0.285	349.356	-1	36	Target	Neutral	True
350.305	0.48	Control	0.5135000000000001	n/a	No	2.675	n/a	n/a	NoResponse	0	n/a	n/a	-1	36	Blank	Neutral	True
350.356	0.3	Control	0.5135000000000001	0.004	No	2.675	-0.004	4.0	NoResponse	0	0.285	n/a	-1	36	ButtonPress	Neutral	True
350.773	1.45	Control	0.5135000000000001	n/a	No	2.675	n/a	5.0	NoResponse	0	0.028	349.801	-1	36	Feedback	Neutral	True
352.227	2.675	Control	0.5135000000000001	n/a	No	2.675	n/a	n/a	NoResponse	0	0.0	n/a	-1	36	ISIslide	Neutral	True
354.919	0.25	Win2	0.5	0.0	No	2.881	0.019	n/a	NoResponse	0	n/a	n/a	-1	37	Cue	MissedWin	True
355.17	4.0	Win2	0.5	0.0	No	2.881	0.001	n/a	NoResponse	0	n/a	n/a	-1	37	Fixation	MissedWin	True
359.165	0.23	Win2	0.5	0.004	No	2.881	-0.004	4.0	NoResponse	0	0.259	358.424	-1	37	Target	MissedWin	True
359.399	0.47	Win2	0.5	n/a	No	2.881	n/a	n/a	NoResponse	0	n/a	n/a	-1	37	Blank	MissedWin	True
359.424	0.3	Win2	0.5	0.004	No	2.881	-0.004	4.0	NoResponse	0	0.259	n/a	-1	37	ButtonPress	MissedWin	True
359.867	1.45	Win2	0.5	n/a	No	2.881	n/a	5.0	NoResponse	0	0.006	358.873	-1	37	Feedback	MissedWin	True
361.321	2.881	Win2	0.5	n/a	No	2.881	n/a	n/a	NoResponse	0	0.0	n/a	-1	37	ISIslide	MissedWin	True
364.23	0.25	Lose2	0.5128	0.0	Yes	2.82	0.03	n/a	GoodResponse	0	n/a	n/a	-1	38	Cue	AvoidedLoss	True
364.481	3.95	Lose2	0.5128	0.0	Yes	2.82	0.001	n/a	GoodResponse	0	n/a	n/a	-1	38	Fixation	AvoidedLoss	True
368.426	0.24	Lose2	0.5128	0.004	Yes	2.82	-0.004	4.0	GoodResponse	0	0.238	367.664	-1	38	Target	AvoidedLoss	True
368.664	0.3	Lose2	0.5128	0.004	Yes	2.82	-0.004	4.0	GoodResponse	0	0.238	n/a	-1	38	ButtonPress	AvoidedLoss	True
368.677	0.46	Lose2	0.5128	n/a	Yes	2.82	n/a	n/a	GoodResponse	0	n/a	n/a	-1	38	Blank	AvoidedLoss	True
369.128	1.45	Lose2	0.5128	n/a	Yes	2.82	n/a	5.0	GoodResponse	0	0.013	368.141	-1	38	Feedback	AvoidedLoss	True
370.582	2.82	Lose2	0.5128	n/a	Yes	2.82	n/a	n/a	GoodResponse	0	0.0	n/a	-1	38	ISIslide	AvoidedLoss	True
373.424	0.25	Win2	0.5	0.0	No	2.976	0.024	n/a	NoResponse	0	n/a	n/a	-1	39	Cue	MissedWin	True
373.675	4.1	Win2	0.5	0.0	No	2.976	0.001	n/a	NoResponse	0	n/a	n/a	-1	39	Fixation	MissedWin	True
377.771	0.25	Win2	0.5	0.003	No	2.976	-0.003	4.0	NoResponse	0	0.282	377.053	-1	39	Target	MissedWin	True
378.021	0.45	Win2	0.5	n/a	No	2.976	n/a	n/a	NoResponse	0	n/a	n/a	-1	39	Blank	MissedWin	True
378.053	0.3	Win2	0.5	0.003	No	2.976	-0.003	4.0	NoResponse	0	0.282	n/a	-1	39	ButtonPress	MissedWin	True
378.473	1.45	Win2	0.5	n/a	No	2.976	n/a	5.0	NoResponse	0	0.034	377.507	-1	39	Feedback	MissedWin	True
379.927	2.976	Win2	0.5	n/a	No	2.976	n/a	n/a	NoResponse	0	0.0	n/a	-1	39	ISIslide	MissedWin	True
382.919	0.25	Win2	0.5122	0.0	Yes	2.731	0.019	n/a	GoodResponse	1	n/a	n/a	0	40	Cue	Win	True
383.17	3.95	Win2	0.5122	0.0	Yes	2.731	0.001	n/a	GoodResponse	1	n/a	n/a	0	40	Fixation	Win	True
387.115	0.26	Win2	0.5122	0.004	Yes	2.731	-0.004	4.0	GoodResponse	1	0.214	386.329	0	40	Target	Win	True
387.329	0.3	Win2	0.5122	0.004	Yes	2.731	-0.004	4.0	GoodResponse	1	0.214	n/a	0	40	ButtonPress	Win	True
387.383	0.44	Win2	0.5122	n/a	Yes	2.731	n/a	n/a	GoodResponse	1	n/a	n/a	0	40	Blank	Win	True
387.817	1.45	Win2	0.5122	n/a	Yes	2.731	n/a	5.0	GoodResponse	1	0.007	386.824	0	40	Feedback	Win	True
389.272	2.731	Win2	0.5122	n/a	Yes	2.731	n/a	n/a	GoodResponse	1	0.0	n/a	0	40	ISIslide	Win	True
392.03	0.25	Win2	0.5	0.0	No	2.77	0.03	n/a	NoResponse	0	n/a	n/a	0	41	Cue	MissedWin	True
392.281	3.9	Win2	0.5	0.0	No	2.77	0.001	n/a	NoResponse	0	n/a	n/a	0	41	Fixation	MissedWin	True
396.176	0.27	Win2	0.5	0.004	No	2.77	-0.004	4.0	NoResponse	0	0.33	395.506	0	41	Target	MissedWin	True
396.46	0.43	Win2	0.5	n/a	No	2.77	n/a	n/a	NoResponse	0	n/a	n/a	0	41	Blank	MissedWin	True
396.506	0.3	Win2	0.5	0.004	No	2.77	-0.004	4.0	NoResponse	0	0.33	n/a	0	41	ButtonPress	MissedWin	True
396.878	1.45	Win2	0.5	n/a	No	2.77	n/a	5.0	NoResponse	0	0.02	395.898	0	41	Feedback	MissedWin	True
398.332	2.77	Win2	0.5	n/a	No	2.77	n/a	n/a	NoResponse	0	0.0	n/a	0	41	ISIslide	MissedWin	True
401.124	0.25	Control	0.48840000000000006	0.0	No	2.926	0.024	n/a	NoResponse	0	n/a	n/a	0	42	Cue	Neutral	True
401.374	3.85	Control	0.48840000000000006	0.001	No	2.926	0.0	n/a	NoResponse	0	n/a	n/a	0	42	Fixation	Neutral	True
405.236	0.28	Control	0.48840000000000006	0.0	No	2.926	0.012	4.0	NoResponse	0	0.328	404.564	0	42	Target	Neutral	True
405.503	0.42	Control	0.48840000000000006	n/a	No	2.926	n/a	n/a	NoResponse	0	n/a	n/a	0	42	Blank	Neutral	True
405.564	0.3	Control	0.48840000000000006	0.0	No	2.926	0.012	4.0	NoResponse	0	0.328	n/a	0	42	ButtonPress	Neutral	True
405.921	1.45	Control	0.48840000000000006	n/a	No	2.926	n/a	5.0	NoResponse	0	0.049	404.97	0	42	Feedback	Neutral	True
407.376	2.926	Control	0.48840000000000006	n/a	No	2.926	n/a	n/a	NoResponse	0	0.0	n/a	0	42	ISIslide	Neutral	True
410.318	0.25	Win2	0.5	0.0	Yes	3.182	0.018	n/a	GoodResponse	1	n/a	n/a	1	43	Cue	Win	True
410.569	4.0	Win2	0.5	0.0	Yes	3.182	0.001	n/a	GoodResponse	1	n/a	n/a	1	43	Fixation	Win	True
414.564	0.29	Win2	0.5	0.004	Yes	3.182	-0.004	4.0	GoodResponse	1	0.245	413.809	1	43	Target	Win	True
414.809	0.3	Win2	0.5	0.004	Yes	3.182	-0.004	4.0	GoodResponse	1	0.245	n/a	1	43	ButtonPress	Win	True
414.865	0.41	Win2	0.5	n/a	Yes	3.182	n/a	n/a	GoodResponse	1	n/a	n/a	1	43	Blank	Win	True
415.266	1.45	Win2	0.5	n/a	Yes	3.182	n/a	5.0	GoodResponse	1	0.021	414.287	1	43	Feedback	Win	True
416.72	3.182	Win2	0.5	n/a	Yes	3.182	n/a	n/a	GoodResponse	1	0.0	n/a	1	43	ISIslide	Win	True
419.913	0.25	Win2	0.5111	0.0	Yes	2.987	0.013	n/a	GoodResponse	1	n/a	n/a	2	44	Cue	Win	True
420.164	4.0	Win2	0.5111	0.0	Yes	2.987	0.001	n/a	GoodResponse	1	n/a	n/a	2	44	Fixation	Win	True
424.159	0.3	Win2	0.5111	0.004	Yes	2.987	-0.004	4.0	GoodResponse	1	0.248	423.407	2	44	Target	Win	True
424.407	0.3	Win2	0.5111	0.004	Yes	2.987	-0.004	4.0	GoodResponse	1	0.248	n/a	2	44	ButtonPress	Win	True
424.46	0.4	Win2	0.5111	n/a	Yes	2.987	n/a	n/a	GoodResponse	1	n/a	n/a	2	44	Blank	Win	True
424.861	1.45	Win2	0.5111	n/a	Yes	2.987	n/a	5.0	GoodResponse	1	0.036	423.897	2	44	Feedback	Win	True
426.316	2.987	Win2	0.5111	n/a	Yes	2.987	n/a	n/a	GoodResponse	1	0.0	n/a	2	44	ISIslide	Win	True
429.325	0.25	Control	0.5	0.0	No	2.875	0.025	n/a	NoResponse	0	n/a	n/a	2	45	Cue	Neutral	True
429.575	4.1	Control	0.5	0.0	No	2.875	0.0	n/a	NoResponse	0	n/a	n/a	2	45	Fixation	Neutral	True
433.671	0.31	Control	0.5	0.004	No	2.875	-0.004	4.0	NoResponse	0	0.381	433.052	2	45	Target	Neutral	True
433.989	0.39	Control	0.5	n/a	No	2.875	n/a	n/a	NoResponse	0	n/a	n/a	2	45	Blank	Neutral	True
434.052	0.3	Control	0.5	0.004	No	2.875	-0.004	4.0	NoResponse	0	0.381	n/a	2	45	ButtonPress	Neutral	True
434.373	1.45	Control	0.5	n/a	No	2.875	n/a	5.0	NoResponse	0	0.036	433.409	2	45	Feedback	Neutral	True
435.827	2.875	Control	0.5	n/a	No	2.875	n/a	n/a	NoResponse	0	0.0	n/a	2	45	ISIslide	Neutral	True
438.719	0.25	Lose2	0.5106	0.001	Yes	3.381	0.019	n/a	GoodResponse	0	n/a	n/a	2	46	Cue	AvoidedLoss	True
438.97	4.0	Lose2	0.5106	0.0	Yes	3.381	0.001	n/a	GoodResponse	0	n/a	n/a	2	46	Fixation	AvoidedLoss	True
442.965	0.32	Lose2	0.5106	0.004	Yes	3.381	-0.004	4.0	GoodResponse	0	0.276	442.241	2	46	Target	AvoidedLoss	True
443.241	0.3	Lose2	0.5106	0.004	Yes	3.381	-0.004	4.0	GoodResponse	0	0.276	n/a	2	46	ButtonPress	AvoidedLoss	True
443.3	0.38	Lose2	0.5106	n/a	Yes	3.381	n/a	n/a	GoodResponse	0	n/a	n/a	2	46	Blank	AvoidedLoss	True
443.668	1.45	Lose2	0.5106	n/a	Yes	3.381	n/a	5.0	GoodResponse	0	0.009	442.677	2	46	Feedback	AvoidedLoss	True
445.122	3.381	Lose2	0.5106	n/a	Yes	3.381	n/a	n/a	GoodResponse	0	0.0	n/a	2	46	ISIslide	AvoidedLoss	True
448.515	0.25	Lose2	0.5207999999999999	0.0	Yes	2.685	0.015	n/a	GoodResponse	0	n/a	n/a	2	47	Cue	AvoidedLoss	True
448.766	4.0	Lose2	0.5207999999999999	0.0	Yes	2.685	0.001	n/a	GoodResponse	0	n/a	n/a	2	47	Fixation	AvoidedLoss	True
452.761	0.33	Lose2	0.5207999999999999	0.004	Yes	2.685	-0.004	4.0	GoodResponse	0	0.265	452.026	2	47	Target	AvoidedLoss	True
453.026	0.3	Lose2	0.5207999999999999	0.004	Yes	2.685	-0.004	4.0	GoodResponse	0	0.265	n/a	2	47	ButtonPress	AvoidedLoss	True
453.096	0.37	Lose2	0.5207999999999999	n/a	Yes	2.685	n/a	n/a	GoodResponse	0	n/a	n/a	2	47	Blank	AvoidedLoss	True
453.464	1.45	Lose2	0.5207999999999999	n/a	Yes	2.685	n/a	5.0	GoodResponse	0	0.018	452.482	2	47	Feedback	AvoidedLoss	True
454.918	2.685	Lose2	0.5207999999999999	n/a	Yes	2.685	n/a	n/a	GoodResponse	0	0.0	n/a	2	47	ISIslide	AvoidedLoss	True
457.626	0.25	Lose2	0.5306000000000001	0.0	Yes	3.024	0.026	n/a	GoodResponse	0	n/a	n/a	2	48	Cue	AvoidedLoss	True
457.877	3.95	Lose2	0.5306000000000001	0.0	Yes	3.024	0.001	n/a	GoodResponse	0	n/a	n/a	2	48	Fixation	AvoidedLoss	True
461.822	0.34	Lose2	0.5306000000000001	0.004	Yes	3.024	-0.004	4.0	GoodResponse	0	0.238	461.06	2	48	Target	AvoidedLoss	True
462.06	0.3	Lose2	0.5306000000000001	0.004	Yes	3.024	-0.004	4.0	GoodResponse	0	0.238	n/a	2	48	ButtonPress	AvoidedLoss	True
462.173	0.36	Lose2	0.5306000000000001	n/a	Yes	3.024	n/a	n/a	GoodResponse	0	n/a	n/a	2	48	Blank	AvoidedLoss	True
462.524	1.45	Lose2	0.5306000000000001	n/a	Yes	3.024	n/a	5.0	GoodResponse	0	0.031	461.555	2	48	Feedback	AvoidedLoss	True
463.978	3.024	Lose2	0.5306000000000001	n/a	Yes	3.024	n/a	n/a	GoodResponse	0	0.0	n/a	2	48	ISIslide	AvoidedLoss	True
467.021	0.25	Control	0.54	0.0	Yes	2.879	0.021	n/a	GoodResponse	0	n/a	n/a	2	49	Cue	Neutral	True
467.271	4.0	Control	0.54	0.001	Yes	2.879	0.0	n/a	GoodResponse	0	n/a	n/a	2	49	Fixation	Neutral	True
471.267	0.35	Control	0.54	0.004	Yes	2.879	-0.004	4.0	GoodResponse	0	0.223	470.49	2	49	Target	Neutral	True
471.49	0.3	Control	0.54	0.004	Yes	2.879	-0.004	4.0	GoodResponse	0	0.223	n/a	2	49	ButtonPress	Neutral	True
471.618	0.35	Control	0.54	n/a	Yes	2.879	n/a	n/a	GoodResponse	0	n/a	n/a	2	49	Blank	Neutral	True
471.969	1.45	Control	0.54	n/a	Yes	2.879	n/a	5.0	GoodResponse	0	0.001	470.97	2	49	Feedback	Neutral	True
473.423	2.879	Control	0.54	n/a	Yes	2.879	n/a	n/a	GoodResponse	0	0.0	n/a	2	49	ISIslide	Neutral	True
476.315	0.25	Control	0.5489999999999999	0.0	Yes	2.785	0.015	n/a	GoodResponse	0	n/a	n/a	2	50	Cue	Neutral	True
476.566	4.0	Control	0.5489999999999999	0.0	Yes	2.785	0.001	n/a	GoodResponse	0	n/a	n/a	2	50	Fixation	Neutral	True
480.561	0.36	Control	0.5489999999999999	0.004	Yes	2.785	-0.004	4.0	GoodResponse	0	0.221	479.782	2	50	Target	Neutral	True
480.782	0.3	Control	0.5489999999999999	0.004	Yes	2.785	-0.004	4.0	GoodResponse	0	0.221	n/a	2	50	ButtonPress	Neutral	True
480.929	0.34	Control	0.5489999999999999	n/a	Yes	2.785	n/a	n/a	GoodResponse	0	n/a	n/a	2	50	Blank	Neutral	True
481.263	1.45	Control	0.5489999999999999	n/a	Yes	2.785	n/a	5.0	GoodResponse	0	0.024	480.287	2	50	Feedback	Neutral	True
482.718	2.785	Control	0.5489999999999999	n/a	Yes	2.785	n/a	n/a	GoodResponse	0	0.0	n/a	2	50	ISIslide	Neutral	True
485.526	0.25	Control	0.5385	0.0	No	2.724	0.026	n/a	NoResponse	0	n/a	n/a	2	51	Cue	Neutral	True
485.777	3.95	Control	0.5385	0.0	No	2.724	0.001	n/a	NoResponse	0	n/a	n/a	2	51	Fixation	Neutral	True
489.722	0.37	Control	0.5385	0.004	No	2.724	-0.004	4.0	NoResponse	0	0.396	489.118	2	51	Target	Neutral	True
490.106	0.33	Control	0.5385	n/a	No	2.724	n/a	n/a	NoResponse	0	n/a	n/a	2	51	Blank	Neutral	True
490.118	0.3	Control	0.5385	0.004	No	2.724	-0.004	4.0	NoResponse	0	0.396	n/a	2	51	ButtonPress	Neutral	True
490.424	1.45	Control	0.5385	n/a	No	2.724	n/a	5.0	NoResponse	0	0.033	489.457	2	51	Feedback	Neutral	True
491.878	2.724	Control	0.5385	n/a	No	2.724	n/a	n/a	NoResponse	0	0.0	n/a	2	51	ISIslide	Neutral	True
494.62	0.25	Control	0.5472	0.0	Yes	2.63	0.02	n/a	GoodResponse	0	n/a	n/a	2	52	Cue	Neutral	True
494.871	4.05	Control	0.5472	0.0	Yes	2.63	0.001	n/a	GoodResponse	0	n/a	n/a	2	52	Fixation	Neutral	True
498.916	0.38	Control	0.5472	0.004	Yes	2.63	-0.004	4.0	GoodResponse	0	0.261	498.177	2	52	Target	Neutral	True
499.177	0.3	Control	0.5472	0.004	Yes	2.63	-0.004	4.0	GoodResponse	0	0.261	n/a	2	52	ButtonPress	Neutral	True
499.301	0.32	Control	0.5472	n/a	Yes	2.63	n/a	n/a	GoodResponse	0	n/a	n/a	2	52	Blank	Neutral	True
499.618	1.45	Control	0.5472	n/a	Yes	2.63	n/a	5.0	GoodResponse	0	0.01	498.628	2	52	Feedback	Neutral	True
501.073	2.63	Control	0.5472	n/a	Yes	2.63	n/a	n/a	GoodResponse	0	0.0	n/a	2	52	ISIslide	Neutral	True
503.714	0.25	Win2	0.5556	0.0	Yes	2.936	0.014	n/a	GoodResponse	1	n/a	n/a	3	53	Cue	Win	True
503.965	4.05	Win2	0.5556	0.0	Yes	2.936	0.001	n/a	GoodResponse	1	n/a	n/a	3	53	Fixation	Win	True
508.01	0.39	Win2	0.5556	0.004	Yes	2.936	-0.004	4.0	GoodResponse	1	0.231	507.241	3	53	Target	Win	True
508.241	0.3	Win2	0.5556	0.004	Yes	2.936	-0.004	4.0	GoodResponse	1	0.231	n/a	3	53	ButtonPress	Win	True
508.411	0.31	Win2	0.5556	n/a	Yes	2.936	n/a	n/a	GoodResponse	1	n/a	n/a	3	53	Blank	Win	True
508.712	1.45	Win2	0.5556	n/a	Yes	2.936	n/a	5.0	GoodResponse	1	0.038	507.75	3	53	Feedback	Win	True
510.166	2.936	Win2	0.5556	n/a	Yes	2.936	n/a	n/a	GoodResponse	1	0.0	n/a	3	53	ISIslide	Win	True
513.125	0.25	Win2	0.5636	0.0	Yes	2.725	0.025	n/a	GoodResponse	1	n/a	n/a	4	54	Cue	Win	True
513.376	3.95	Win2	0.5636	0.0	Yes	2.725	0.001	n/a	GoodResponse	1	n/a	n/a	4	54	Fixation	Win	True
517.321	0.4	Win2	0.5636	0.004	Yes	2.725	-0.004	4.0	GoodResponse	1	0.241	516.562	4	54	Target	Win	True
517.562	0.3	Win2	0.5636	0.004	Yes	2.725	-0.004	4.0	GoodResponse	1	0.241	n/a	4	54	ButtonPress	Win	True
517.722	0.3	Win2	0.5636	n/a	Yes	2.725	n/a	n/a	GoodResponse	1	n/a	n/a	4	54	Blank	Win	True
518.023	1.45	Win2	0.5636	n/a	Yes	2.725	n/a	5.0	GoodResponse	1	0.044	517.067	4	54	Feedback	Win	True
519.478	2.725	Win2	0.5636	n/a	Yes	2.725	n/a	n/a	GoodResponse	1	0.0	n/a	4	54	ISIslide	Win	True
522.219	0.25	Control	0.5714	0.0	Yes	3.031	0.019	n/a	GoodResponse	0	n/a	n/a	4	55	Cue	Neutral	True
522.47	3.95	Control	0.5714	0.0	Yes	3.031	0.001	n/a	GoodResponse	0	n/a	n/a	4	55	Fixation	Neutral	True
526.415	0.41	Control	0.5714	0.004	Yes	3.031	-0.004	4.0	GoodResponse	0	0.219	525.634	4	55	Target	Neutral	True
526.634	0.3	Control	0.5714	0.004	Yes	3.031	-0.004	4.0	GoodResponse	0	0.219	n/a	4	55	ButtonPress	Neutral	True
526.833	0.29	Control	0.5714	n/a	Yes	3.031	n/a	n/a	GoodResponse	0	n/a	n/a	4	55	Blank	Neutral	True
527.117	1.45	Control	0.5714	n/a	Yes	3.031	n/a	5.0	GoodResponse	0	0.023	526.14	4	55	Feedback	Neutral	True
528.571	3.031	Control	0.5714	n/a	Yes	3.031	n/a	n/a	GoodResponse	0	0.0	n/a	4	55	ISIslide	Neutral	True
531.614	0.25	Control	0.5789	0.0	Yes	2.836	0.014	n/a	GoodResponse	0	n/a	n/a	4	56	Cue	Neutral	True
531.865	3.95	Control	0.5789	0.0	Yes	2.836	0.001	n/a	GoodResponse	0	n/a	n/a	4	56	Fixation	Neutral	True
535.81	0.42	Control	0.5789	0.004	Yes	2.836	-0.004	4.0	GoodResponse	0	0.29	535.1	4	56	Target	Neutral	True
536.1	0.3	Control	0.5789	0.004	Yes	2.836	-0.004	4.0	GoodResponse	0	0.29	n/a	4	56	ButtonPress	Neutral	True
536.244	0.28	Control	0.5789	n/a	Yes	2.836	n/a	n/a	GoodResponse	0	n/a	n/a	4	56	Blank	Neutral	True
536.512	1.45	Control	0.5789	n/a	Yes	2.836	n/a	5.0	GoodResponse	0	0.042	535.554	4	56	Feedback	Neutral	True
537.966	2.836	Control	0.5789	n/a	Yes	2.836	n/a	n/a	GoodResponse	0	0.0	n/a	4	56	ISIslide	Neutral	True
540.825	0.25	Control	0.5861999999999999	0.0	Yes	3.475	0.025	n/a	GoodResponse	0	n/a	n/a	4	57	Cue	Neutral	True
541.075	4.0	Control	0.5861999999999999	0.001	Yes	3.475	0.0	n/a	GoodResponse	0	n/a	n/a	4	57	Fixation	Neutral	True
545.071	0.43	Control	0.5861999999999999	0.004	Yes	3.475	-0.004	4.0	GoodResponse	0	0.324	544.395	4	57	Target	Neutral	True
545.395	0.3	Control	0.5861999999999999	0.004	Yes	3.475	-0.004	4.0	GoodResponse	0	0.324	n/a	4	57	ButtonPress	Neutral	True
545.505	0.27	Control	0.5861999999999999	n/a	Yes	3.475	n/a	n/a	GoodResponse	0	n/a	n/a	4	57	Blank	Neutral	True
545.773	1.45	Control	0.5861999999999999	n/a	Yes	3.475	n/a	5.0	GoodResponse	0	0.0	544.773	4	57	Feedback	Neutral	True
547.227	3.475	Control	0.5861999999999999	n/a	Yes	3.475	n/a	n/a	GoodResponse	0	0.0	n/a	4	57	ISIslide	Neutral	True
550.721	0.25	Win2	0.5932	0.0	Yes	2.729	0.021	n/a	GoodResponse	1	n/a	n/a	5	58	Cue	Win	True
550.972	4.05	Win2	0.5932	0.0	Yes	2.729	0.001	n/a	GoodResponse	1	n/a	n/a	5	58	Fixation	Win	True
555.017	0.44	Win2	0.5932	0.004	Yes	2.729	-0.004	4.0	GoodResponse	1	0.25	554.267	5	58	Target	Win	True
555.267	0.3	Win2	0.5932	0.004	Yes	2.729	-0.004	4.0	GoodResponse	1	0.25	n/a	5	58	ButtonPress	Win	True
555.468	0.26	Win2	0.5932	n/a	Yes	2.729	n/a	n/a	GoodResponse	1	n/a	n/a	5	58	Blank	Win	True
555.719	1.45	Win2	0.5932	n/a	Yes	2.729	n/a	5.0	GoodResponse	1	0.006	554.725	5	58	Feedback	Win	True
557.174	2.729	Win2	0.5932	n/a	Yes	2.729	n/a	n/a	GoodResponse	1	0.0	n/a	5	58	ISIslide	Win	True
559.915	0.25	Lose2	0.6	0.0	Yes	2.685	0.015	n/a	GoodResponse	0	n/a	n/a	5	59	Cue	AvoidedLoss	True
560.166	4.0	Lose2	0.6	0.0	Yes	2.685	0.001	n/a	GoodResponse	0	n/a	n/a	5	59	Fixation	AvoidedLoss	True
564.161	0.45	Lose2	0.6	0.004	Yes	2.685	-0.004	4.0	GoodResponse	0	0.259	563.42	5	59	Target	AvoidedLoss	True
564.42	0.3	Lose2	0.6	0.004	Yes	2.685	-0.004	4.0	GoodResponse	0	0.259	n/a	5	59	ButtonPress	AvoidedLoss	True
564.613	0.25	Lose2	0.6	n/a	Yes	2.685	n/a	n/a	GoodResponse	0	n/a	n/a	5	59	Blank	AvoidedLoss	True
564.863	1.45	Lose2	0.6	n/a	Yes	2.685	n/a	5.0	GoodResponse	0	0.033	563.896	5	59	Feedback	AvoidedLoss	True
566.318	2.685	Lose2	0.6	n/a	Yes	2.685	n/a	n/a	GoodResponse	0	0.0	n/a	5	59	ISIslide	AvoidedLoss	True
569.026	0.25	Control	0.6065999999999999	0.0	Yes	2.674	0.026	n/a	GoodResponse	0	n/a	n/a	5	60	Cue	Neutral	True
569.276	4.0	Control	0.6065999999999999	0.001	Yes	2.674	0.0	n/a	GoodResponse	0	n/a	n/a	5	60	Fixation	Neutral	True
573.272	0.46	Control	0.6065999999999999	0.004	Yes	2.674	-0.004	4.0	GoodResponse	0	0.245	572.517	5	60	Target	Neutral	True
573.517	0.3	Control	0.6065999999999999	0.004	Yes	2.674	-0.004	4.0	GoodResponse	0	0.245	n/a	5	60	ButtonPress	Neutral	True
573.74	0.24	Control	0.6065999999999999	n/a	Yes	2.674	n/a	n/a	GoodResponse	0	n/a	n/a	5	60	Blank	Neutral	True
573.974	1.45	Control	0.6065999999999999	n/a	Yes	2.674	n/a	5.0	GoodResponse	0	0.043	573.017	5	60	Feedback	Neutral	True
575.428	2.674	Control	0.6065999999999999	n/a	Yes	2.674	n/a	n/a	GoodResponse	0	0.0	n/a	5	60	ISIslide	Neutral	True
578.12	0.25	Lose2	0.6129	0.0	Yes	2.98	0.02	n/a	GoodResponse	0	n/a	n/a	5	61	Cue	AvoidedLoss	True
578.37	4.0	Lose2	0.6129	0.0	Yes	2.98	0.0	n/a	GoodResponse	0	n/a	n/a	5	61	Fixation	AvoidedLoss	True
582.366	0.47	Lose2	0.6129	0.004	Yes	2.98	-0.004	4.0	GoodResponse	0	0.255	581.621	5	61	Target	AvoidedLoss	True
582.621	0.3	Lose2	0.6129	0.004	Yes	2.98	-0.004	4.0	GoodResponse	0	0.255	n/a	5	61	ButtonPress	AvoidedLoss	True
582.85	0.23	Lose2	0.6129	n/a	Yes	2.98	n/a	n/a	GoodResponse	0	n/a	n/a	5	61	Blank	AvoidedLoss	True
583.068	1.45	Lose2	0.6129	n/a	Yes	2.98	n/a	5.0	GoodResponse	0	0.022	582.09	5	61	Feedback	AvoidedLoss	True
584.522	2.98	Lose2	0.6129	n/a	Yes	2.98	n/a	n/a	GoodResponse	0	0.0	n/a	5	61	ISIslide	AvoidedLoss	True
587.514	0.25	Lose2	0.619	0.0	Yes	2.886	0.014	n/a	GoodResponse	0	n/a	n/a	5	62	Cue	AvoidedLoss	True
587.765	3.9	Lose2	0.619	0.0	Yes	2.886	0.001	n/a	GoodResponse	0	n/a	n/a	5	62	Fixation	AvoidedLoss	True
591.66	0.48	Lose2	0.619	0.004	Yes	2.886	-0.004	4.0	GoodResponse	0	0.21	590.87	5	62	Target	AvoidedLoss	True
591.87	0.3	Lose2	0.619	0.004	Yes	2.886	-0.004	4.0	GoodResponse	0	0.21	n/a	5	62	ButtonPress	AvoidedLoss	True
592.145	0.22	Lose2	0.619	n/a	Yes	2.886	n/a	n/a	GoodResponse	0	n/a	n/a	5	62	Blank	AvoidedLoss	True
592.362	1.45	Lose2	0.619	n/a	Yes	2.886	n/a	5.0	GoodResponse	0	0.045	591.407	5	62	Feedback	AvoidedLoss	True
593.816	2.886	Lose2	0.619	n/a	Yes	2.886	n/a	n/a	GoodResponse	0	0.0	n/a	5	62	ISIslide	AvoidedLoss	True
596.725	0.25	Lose2	0.625	0.0	Yes	2.625	0.025	n/a	GoodResponse	0	n/a	n/a	5	63	Cue	AvoidedLoss	True
596.976	4.05	Lose2	0.625	0.0	Yes	2.625	0.001	n/a	GoodResponse	0	n/a	n/a	5	63	Fixation	AvoidedLoss	True
601.021	0.49	Lose2	0.625	0.004	Yes	2.625	-0.004	4.0	GoodResponse	0	0.244	600.265	5	63	Target	AvoidedLoss	True
601.265	0.3	Lose2	0.625	0.004	Yes	2.625	-0.004	4.0	GoodResponse	0	0.244	n/a	5	63	ButtonPress	AvoidedLoss	True
601.523	0.21	Lose2	0.625	n/a	Yes	2.625	n/a	n/a	GoodResponse	0	n/a	n/a	5	63	Blank	AvoidedLoss	True
601.723	1.45	Lose2	0.625	n/a	Yes	2.625	n/a	5.0	GoodResponse	0	0.001	600.724	5	63	Feedback	AvoidedLoss	True
603.178	2.625	Lose2	0.625	n/a	Yes	2.625	n/a	n/a	GoodResponse	0	0.0	n/a	5	63	ISIslide	AvoidedLoss	True
605.819	0.25	Win2	0.6308	0.0	Yes	3.131	0.019	n/a	GoodResponse	1	n/a	n/a	6	64	Cue	Win	True
606.07	4.15	Win2	0.6308	0.0	Yes	3.131	0.001	n/a	GoodResponse	1	n/a	n/a	6	64	Fixation	Win	True
610.216	0.5	Win2	0.6308	0.003	Yes	3.131	-0.003	4.0	GoodResponse	1	0.237	609.453	6	64	Target	Win	True
610.453	0.3	Win2	0.6308	0.003	Yes	3.131	-0.003	4.0	GoodResponse	1	0.237	n/a	6	64	ButtonPress	Win	True
610.717	0.2	Win2	0.6308	n/a	Yes	3.131	n/a	n/a	GoodResponse	1	n/a	n/a	6	64	Blank	Win	True
610.918	1.45	Win2	0.6308	n/a	Yes	3.131	n/a	5.0	GoodResponse	1	0.026	609.944	6	64	Feedback	Win	True
612.372	3.131	Win2	0.6308	n/a	Yes	3.131	n/a	n/a	GoodResponse	1	0.0	n/a	6	64	ISIslide	Win	True
615.515	0.25	Control	0.6364	0.0	Yes	2.785	0.015	n/a	GoodResponse	0	n/a	n/a	6	65	Cue	Neutral	True
615.765	4.0	Control	0.6364	0.001	Yes	2.785	0.0	n/a	GoodResponse	0	n/a	n/a	6	65	Fixation	Neutral	True
619.761	0.5	Control	0.6364	0.004	Yes	2.785	-0.004	4.0	GoodResponse	0	0.164	618.925	6	65	Target	Neutral	True
619.925	0.3	Control	0.6364	0.004	Yes	2.785	-0.004	4.0	GoodResponse	0	0.164	n/a	6	65	ButtonPress	Neutral	True
620.262	0.2	Control	0.6364	n/a	Yes	2.785	n/a	n/a	GoodResponse	0	n/a	n/a	6	65	Blank	Neutral	True
620.463	1.45	Control	0.6364	n/a	Yes	2.785	n/a	5.0	GoodResponse	0	0.041	619.504	6	65	Feedback	Neutral	True
621.917	2.785	Control	0.6364	n/a	Yes	2.785	n/a	n/a	GoodResponse	0	0.0	n/a	6	65	ISIslide	Neutral	True
624.726	0.25	Win2	0.6418	0.0	Yes	2.774	0.026	n/a	GoodResponse	1	n/a	n/a	7	66	Cue	Win	True
624.976	3.9	Win2	0.6418	0.0	Yes	2.774	0.0	n/a	GoodResponse	1	n/a	n/a	7	66	Fixation	Win	True
628.888	0.5	Win2	0.6418	0.0	Yes	2.774	0.012	4.0	GoodResponse	1	0.249	628.137	7	66	Target	Win	True
629.137	0.3	Win2	0.6418	0.0	Yes	2.774	0.012	4.0	GoodResponse	1	0.249	n/a	7	66	ButtonPress	Win	True
629.373	0.2	Win2	0.6418	n/a	Yes	2.774	n/a	n/a	GoodResponse	1	n/a	n/a	7	66	Blank	Win	True
629.573	1.45	Win2	0.6418	n/a	Yes	2.774	n/a	5.0	GoodResponse	1	0.006	628.579	7	66	Feedback	Win	True
631.028	2.774	Win2	0.6418	n/a	Yes	2.774	n/a	n/a	GoodResponse	1	0.0	n/a	7	66	ISIslide	Win	True
633.819	0.25	Control	0.6470999999999999	0.001	Yes	2.731	0.019	n/a	GoodResponse	0	n/a	n/a	7	67	Cue	Neutral	True
634.07	3.95	Control	0.6470999999999999	0.0	Yes	2.731	0.001	n/a	GoodResponse	0	n/a	n/a	7	67	Fixation	Neutral	True
638.015	0.5	Control	0.6470999999999999	0.004	Yes	2.731	-0.004	4.0	GoodResponse	0	0.335	637.35	7	67	Target	Neutral	True
638.35	0.3	Control	0.6470999999999999	0.004	Yes	2.731	-0.004	4.0	GoodResponse	0	0.335	n/a	7	67	ButtonPress	Neutral	True
638.517	0.2	Control	0.6470999999999999	n/a	Yes	2.731	n/a	n/a	GoodResponse	0	n/a	n/a	7	67	Blank	Neutral	True
638.717	1.45	Control	0.6470999999999999	n/a	Yes	2.731	n/a	5.0	GoodResponse	0	0.031	637.748	7	67	Feedback	Neutral	True
640.172	2.731	Control	0.6470999999999999	n/a	Yes	2.731	n/a	n/a	GoodResponse	0	0.0	n/a	7	67	ISIslide	Neutral	True
642.913	0.25	Win2	0.6522	0.0	Yes	3.087	0.013	n/a	GoodResponse	1	n/a	n/a	8	68	Cue	Win	True
643.164	4.0	Win2	0.6522	0.0	Yes	3.087	0.001	n/a	GoodResponse	1	n/a	n/a	8	68	Fixation	Win	True
647.159	0.5	Win2	0.6522	0.004	Yes	3.087	-0.004	4.0	GoodResponse	1	0.254	646.413	8	68	Target	Win	True
647.413	0.3	Win2	0.6522	0.004	Yes	3.087	-0.004	4.0	GoodResponse	1	0.254	n/a	8	68	ButtonPress	Win	True
647.661	0.2	Win2	0.6522	n/a	Yes	3.087	n/a	n/a	GoodResponse	1	n/a	n/a	8	68	Blank	Win	True
647.861	1.45	Win2	0.6522	n/a	Yes	3.087	n/a	5.0	GoodResponse	1	0.009	646.87	8	68	Feedback	Win	True
649.316	3.087	Win2	0.6522	n/a	Yes	3.087	n/a	n/a	GoodResponse	1	0.0	n/a	8	68	ISIslide	Win	True
652.425	0.25	Win2	0.6570999999999999	0.0	Yes	3.225	0.025	n/a	GoodResponse	1	n/a	n/a	9	69	Cue	Win	True
652.676	3.95	Win2	0.6570999999999999	0.0	Yes	3.225	0.001	n/a	GoodResponse	1	n/a	n/a	9	69	Fixation	Win	True
656.621	0.5	Win2	0.6570999999999999	0.004	Yes	3.225	-0.004	4.0	GoodResponse	1	0.198	655.819	9	69	Target	Win	True
656.819	0.3	Win2	0.6570999999999999	0.004	Yes	3.225	-0.004	4.0	GoodResponse	1	0.198	n/a	9	69	ButtonPress	Win	True
657.122	0.2	Win2	0.6570999999999999	n/a	Yes	3.225	n/a	n/a	GoodResponse	1	n/a	n/a	9	69	Blank	Win	True
657.323	1.45	Win2	0.6570999999999999	n/a	Yes	3.225	n/a	5.0	GoodResponse	1	0.01	656.333	9	69	Feedback	Win	True
658.777	3.225	Win2	0.6570999999999999	n/a	Yes	3.225	n/a	n/a	GoodResponse	1	0.0	n/a	9	69	ISIslide	Win	True
662.02	0.25	Lose2	0.662	0.001	Yes	3.03	0.02	n/a	GoodResponse	0	n/a	n/a	9	70	Cue	AvoidedLoss	True
662.271	4.05	Lose2	0.662	0.0	Yes	3.03	0.001	n/a	GoodResponse	0	n/a	n/a	9	70	Fixation	AvoidedLoss	True
666.317	0.5	Lose2	0.662	0.003	Yes	3.03	-0.003	4.0	GoodResponse	0	0.247	665.564	9	70	Target	AvoidedLoss	True
666.564	0.3	Lose2	0.662	0.003	Yes	3.03	-0.003	4.0	GoodResponse	0	0.247	n/a	9	70	ButtonPress	AvoidedLoss	True
666.818	0.2	Lose2	0.662	n/a	Yes	3.03	n/a	n/a	GoodResponse	0	n/a	n/a	9	70	Blank	AvoidedLoss	True
667.019	1.45	Lose2	0.662	n/a	Yes	3.03	n/a	5.0	GoodResponse	0	0.021	666.04	9	70	Feedback	AvoidedLoss	True
668.473	3.03	Lose2	0.662	n/a	Yes	3.03	n/a	n/a	GoodResponse	0	0.0	n/a	9	70	ISIslide	AvoidedLoss	True
671.515	0.25	Win2	0.6667000000000001	0.001	Yes	2.735	0.015	n/a	GoodResponse	1	n/a	n/a	10	71	Cue	Win	True
671.766	4.05	Win2	0.6667000000000001	0.0	Yes	2.735	0.001	n/a	GoodResponse	1	n/a	n/a	10	71	Fixation	Win	True
675.812	0.5	Win2	0.6667000000000001	0.003	Yes	2.735	-0.003	4.0	GoodResponse	1	0.234	675.046	10	71	Target	Win	True
676.046	0.3	Win2	0.6667000000000001	0.003	Yes	2.735	-0.003	4.0	GoodResponse	1	0.234	n/a	10	71	ButtonPress	Win	True
676.313	0.2	Win2	0.6667000000000001	n/a	Yes	2.735	n/a	n/a	GoodResponse	1	n/a	n/a	10	71	Blank	Win	True
676.514	1.45	Win2	0.6667000000000001	n/a	Yes	2.735	n/a	5.0	GoodResponse	1	0.038	675.552	10	71	Feedback	Win	True
677.968	2.735	Win2	0.6667000000000001	n/a	Yes	2.735	n/a	n/a	GoodResponse	1	0.0	n/a	10	71	ISIslide	Win	True
680.726	0.25	Win2	0.6712	0.0	Yes	2.774	0.026	n/a	GoodResponse	1	n/a	n/a	11	72	Cue	Win	True
680.977	4.1	Win2	0.6712	0.0	Yes	2.774	0.001	n/a	GoodResponse	1	n/a	n/a	11	72	Fixation	Win	True
685.073	0.49	Win2	0.6712	0.003	Yes	2.774	-0.003	4.0	GoodResponse	1	0.254	684.327	11	72	Target	Win	True
685.327	0.3	Win2	0.6712	0.003	Yes	2.774	-0.003	4.0	GoodResponse	1	0.254	n/a	11	72	ButtonPress	Win	True
685.574	0.21	Win2	0.6712	n/a	Yes	2.774	n/a	n/a	GoodResponse	1	n/a	n/a	11	72	Blank	Win	True
685.775	1.45	Win2	0.6712	n/a	Yes	2.774	n/a	5.0	GoodResponse	1	0.046	684.821	11	72	Feedback	Win	True
687.229	2.774	Win2	0.6712	n/a	Yes	2.774	n/a	n/a	GoodResponse	1	0.0	n/a	11	72	ISIslide	Win	True
690.021	0.25	Win2	0.6757	0.0	Yes	2.679	0.021	n/a	GoodResponse	1	n/a	n/a	12	73	Cue	Win	True
690.272	4.0	Win2	0.6757	0.0	Yes	2.679	0.001	n/a	GoodResponse	1	n/a	n/a	12	73	Fixation	Win	True
694.267	0.48	Win2	0.6757	0.004	Yes	2.679	-0.004	4.0	GoodResponse	1	0.277	693.544	12	73	Target	Win	True
694.544	0.3	Win2	0.6757	0.004	Yes	2.679	-0.004	4.0	GoodResponse	1	0.277	n/a	12	73	ButtonPress	Win	True
694.752	0.22	Win2	0.6757	n/a	Yes	2.679	n/a	n/a	GoodResponse	1	n/a	n/a	12	73	Blank	Win	True
694.969	1.45	Win2	0.6757	n/a	Yes	2.679	n/a	5.0	GoodResponse	1	0.023	693.992	12	73	Feedback	Win	True
696.423	2.679	Win2	0.6757	n/a	Yes	2.679	n/a	n/a	GoodResponse	1	0.0	n/a	12	73	ISIslide	Win	True
699.115	0.25	Lose2	0.68	0.0	Yes	2.635	0.015	n/a	GoodResponse	0	n/a	n/a	12	74	Cue	AvoidedLoss	True
699.365	4.05	Lose2	0.68	0.0	Yes	2.635	0.0	n/a	GoodResponse	0	n/a	n/a	12	74	Fixation	AvoidedLoss	True
703.411	0.47	Lose2	0.68	0.004	Yes	2.635	-0.004	4.0	GoodResponse	0	0.271	702.682	12	74	Target	AvoidedLoss	True
703.682	0.3	Lose2	0.68	0.004	Yes	2.635	-0.004	4.0	GoodResponse	0	0.271	n/a	12	74	ButtonPress	AvoidedLoss	True
703.896	0.23	Lose2	0.68	n/a	Yes	2.635	n/a	n/a	GoodResponse	0	n/a	n/a	12	74	Blank	AvoidedLoss	True
704.113	1.45	Lose2	0.68	n/a	Yes	2.635	n/a	5.0	GoodResponse	0	0.0	703.113	12	74	Feedback	AvoidedLoss	True
705.567	2.635	Lose2	0.68	n/a	Yes	2.635	n/a	n/a	GoodResponse	0	0.0	n/a	12	74	ISIslide	AvoidedLoss	True
708.225	0.25	Lose2	0.6842	0.0	Yes	2.925	0.025	n/a	GoodResponse	0	n/a	n/a	12	75	Cue	AvoidedLoss	True
708.476	3.95	Lose2	0.6842	0.0	Yes	2.925	0.001	n/a	GoodResponse	0	n/a	n/a	12	75	Fixation	AvoidedLoss	True
712.421	0.46	Lose2	0.6842	0.004	Yes	2.925	-0.004	4.0	GoodResponse	0	0.255	711.676	12	75	Target	AvoidedLoss	True
712.676	0.3	Lose2	0.6842	0.004	Yes	2.925	-0.004	4.0	GoodResponse	0	0.255	n/a	12	75	ButtonPress	AvoidedLoss	True
712.889	0.24	Lose2	0.6842	n/a	Yes	2.925	n/a	n/a	GoodResponse	0	n/a	n/a	12	75	Blank	AvoidedLoss	True
713.123	1.45	Lose2	0.6842	n/a	Yes	2.925	n/a	5.0	GoodResponse	0	0.014	712.137	12	75	Feedback	AvoidedLoss	True
714.578	2.925	Lose2	0.6842	n/a	Yes	2.925	n/a	n/a	GoodResponse	0	0.0	n/a	12	75	ISIslide	AvoidedLoss	True
717.52	0.25	Control	0.6883	0.0	Yes	3.23	0.02	n/a	GoodResponse	0	n/a	n/a	12	76	Cue	Neutral	True
717.77	4.05	Control	0.6883	0.0	Yes	3.23	0.0	n/a	GoodResponse	0	n/a	n/a	12	76	Fixation	Neutral	True
721.816	0.45	Control	0.6883	0.004	Yes	3.23	-0.004	4.0	GoodResponse	0	0.258	721.074	12	76	Target	Neutral	True
722.074	0.3	Control	0.6883	0.004	Yes	3.23	-0.004	4.0	GoodResponse	0	0.258	n/a	12	76	ButtonPress	Neutral	True
722.267	0.25	Control	0.6883	n/a	Yes	3.23	n/a	n/a	GoodResponse	0	n/a	n/a	12	76	Blank	Neutral	True
722.518	1.45	Control	0.6883	n/a	Yes	3.23	n/a	5.0	GoodResponse	0	0.034	721.552	12	76	Feedback	Neutral	True
723.972	3.23	Control	0.6883	n/a	Yes	3.23	n/a	n/a	GoodResponse	0	0.0	n/a	12	76	ISIslide	Neutral	True
727.215	0.25	Lose2	0.6923	0.0	Yes	2.585	0.015	n/a	GoodResponse	0	n/a	n/a	12	77	Cue	AvoidedLoss	True
727.466	3.95	Lose2	0.6923	0.0	Yes	2.585	0.001	n/a	GoodResponse	0	n/a	n/a	12	77	Fixation	AvoidedLoss	True
731.411	0.44	Lose2	0.6923	0.004	Yes	2.585	-0.004	4.0	GoodResponse	0	0.273	730.684	12	77	Target	AvoidedLoss	True
731.684	0.3	Lose2	0.6923	0.004	Yes	2.585	-0.004	4.0	GoodResponse	0	0.273	n/a	12	77	ButtonPress	AvoidedLoss	True
731.863	0.26	Lose2	0.6923	n/a	Yes	2.585	n/a	n/a	GoodResponse	0	n/a	n/a	12	77	Blank	AvoidedLoss	True
732.113	1.45	Lose2	0.6923	n/a	Yes	2.585	n/a	5.0	GoodResponse	0	0.049	731.162	12	77	Feedback	AvoidedLoss	True
733.568	2.585	Lose2	0.6923	n/a	Yes	2.585	n/a	n/a	GoodResponse	0	0.0	n/a	12	77	ISIslide	AvoidedLoss	True
