onset	duration	cue_type	current_mean_accuracy	duration_error	is_hit	isi_adjusted	onset_delay	response	response_type	reward	rt	rt_time	total_reward	trial_number	trial_phase	trial_type	one_press
11.096	0.25	Control	1.0	0.0	Yes	2.954	-0.004	n/a	GoodResponse	0	n/a	n/a	0	0	Cue	Neutral	True
11.346	3.85	Control	1.0	0.0	Yes	2.954	0.0	n/a	GoodResponse	0	n/a	n/a	0	0	Fixation	Neutral	True
15.195	0.4	Control	1.0	0.001	Yes	2.954	-0.001	3.0	GoodResponse	0	0.198	14.393	0	0	Target	Neutral	True
15.393	0.3	Control	1.0	0.001	Yes	2.954	-0.001	3.0	GoodResponse	0	0.198	n/a	0	0	ButtonPress	Neutral	True
15.595	0.3	Control	1.0	n/a	Yes	2.954	n/a	n/a	GoodResponse	0	n/a	n/a	0	0	Blank	Neutral	True
15.895	1.45	Control	1.0	n/a	Yes	2.954	n/a	5.0	GoodResponse	0	0.034	14.929	0	0	Feedback	Neutral	True
17.344	2.954	Control	1.0	n/a	Yes	2.954	n/a	n/a	GoodResponse	0	0.0	n/a	0	0	ISIslide	Neutral	True
20.326	0.25	Lose2	1.0	0.001	Yes	2.774	0.026	n/a	GoodResponse	0	n/a	n/a	0	1	Cue	AvoidedLoss	True
20.576	4.0	Lose2	1.0	0.0	Yes	2.774	0.0	n/a	GoodResponse	0	n/a	n/a	0	1	Fixation	AvoidedLoss	True
24.575	0.39	Lose2	1.0	0.001	Yes	2.774	-0.001	3.0	GoodResponse	0	0.177	23.752	0	1	Target	AvoidedLoss	True
24.752	0.3	Lose2	1.0	0.001	Yes	2.774	-0.001	3.0	GoodResponse	0	0.177	n/a	0	1	ButtonPress	AvoidedLoss	True
24.975	0.31	Lose2	1.0	n/a	Yes	2.774	n/a	n/a	GoodResponse	0	n/a	n/a	0	1	Blank	AvoidedLoss	True
25.275	1.45	Lose2	1.0	n/a	Yes	2.774	n/a	5.0	GoodResponse	0	0.02	24.295	0	1	Feedback	AvoidedLoss	True
26.724	2.774	Lose2	1.0	n/a	Yes	2.774	n/a	n/a	GoodResponse	0	0.0	n/a	0	1	ISIslide	AvoidedLoss	True
29.523	0.25	Control	1.0	0.0	Yes	2.577	0.023	n/a	GoodResponse	0	n/a	n/a	0	2	Cue	Neutral	True
29.773	4.1	Control	1.0	0.0	Yes	2.577	0.0	n/a	GoodResponse	0	n/a	n/a	0	2	Fixation	Neutral	True
33.872	0.38	Control	1.0	0.001	Yes	2.577	-0.001	3.0	GoodResponse	0	0.189	33.061	0	2	Target	Neutral	True
34.061	0.3	Control	1.0	0.001	Yes	2.577	-0.001	3.0	GoodResponse	0	0.189	n/a	0	2	ButtonPress	Neutral	True
34.255	0.32	Control	1.0	n/a	Yes	2.577	n/a	n/a	GoodResponse	0	n/a	n/a	0	2	Blank	Neutral	True
34.572	1.45	Control	1.0	n/a	Yes	2.577	n/a	5.0	GoodResponse	0	0.039	33.611	0	2	Feedback	Neutral	True
36.021	2.577	Control	1.0	n/a	Yes	2.577	n/a	n/a	GoodResponse	0	0.0	n/a	0	2	ISIslide	Neutral	True
38.62	0.25	Win2	1.0	0.0	Yes	2.83	0.02	n/a	GoodResponse	1	n/a	n/a	1	3	Cue	Win	True
38.87	3.95	Win2	1.0	0.0	Yes	2.83	0.0	n/a	GoodResponse	1	n/a	n/a	1	3	Fixation	Win	True
42.819	0.37	Win2	1.0	0.001	Yes	2.83	-0.001	3.0	GoodResponse	1	0.187	42.006	1	3	Target	Win	True
43.006	0.3	Win2	1.0	0.001	Yes	2.83	-0.001	3.0	GoodResponse	1	0.187	n/a	1	3	ButtonPress	Win	True
43.202	0.33	Win2	1.0	n/a	Yes	2.83	n/a	n/a	GoodResponse	1	n/a	n/a	1	3	Blank	Win	True
43.518	1.45	Win2	1.0	n/a	Yes	2.83	n/a	5.0	GoodResponse	1	0.02	42.538	1	3	Feedback	Win	True
44.968	2.83	Win2	1.0	n/a	Yes	2.83	n/a	n/a	GoodResponse	1	0.0	n/a	1	3	ISIslide	Win	True
47.817	0.25	Win2	1.0	0.0	Yes	3.283	0.017	n/a	GoodResponse	1	n/a	n/a	2	4	Cue	Win	True
48.067	4.0	Win2	1.0	0.0	Yes	3.283	0.0	n/a	GoodResponse	1	n/a	n/a	2	4	Fixation	Win	True
52.066	0.36	Win2	1.0	0.001	Yes	3.283	-0.001	3.0	GoodResponse	1	0.17	51.236	2	4	Target	Win	True
52.236	0.3	Win2	1.0	0.001	Yes	3.283	-0.001	3.0	GoodResponse	1	0.17	n/a	2	4	ButtonPress	Win	True
52.432	0.34	Win2	1.0	n/a	Yes	3.283	n/a	n/a	GoodResponse	1	n/a	n/a	2	4	Blank	Win	True
52.765	1.45	Win2	1.0	n/a	Yes	3.283	n/a	5.0	GoodResponse	1	0.042	51.807	2	4	Feedback	Win	True
54.215	3.283	Win2	1.0	n/a	Yes	3.283	n/a	n/a	GoodResponse	1	0.0	n/a	2	4	ISIslide	Win	True
57.53	0.25	Win2	1.0	0.0	Yes	2.77	0.03	n/a	GoodResponse	1	n/a	n/a	3	5	Cue	Win	True
57.78	4.0	Win2	1.0	0.0	Yes	2.77	0.0	n/a	GoodResponse	1	n/a	n/a	3	5	Fixation	Win	True
61.779	0.35	Win2	1.0	0.001	Yes	2.77	-0.001	3.0	GoodResponse	1	0.196	60.975	3	5	Target	Win	True
61.975	0.3	Win2	1.0	0.001	Yes	2.77	-0.001	3.0	GoodResponse	1	0.196	n/a	3	5	ButtonPress	Win	True
62.129	0.35	Win2	1.0	n/a	Yes	2.77	n/a	n/a	GoodResponse	1	n/a	n/a	3	5	Blank	Win	True
62.479	1.45	Win2	1.0	n/a	Yes	2.77	n/a	5.0	GoodResponse	1	0.035	61.514	3	5	Feedback	Win	True
63.928	2.77	Win2	1.0	n/a	Yes	2.77	n/a	n/a	GoodResponse	1	0.0	n/a	3	5	ISIslide	Win	True
66.727	0.25	Lose2	1.0	0.0	Yes	2.723	0.027	n/a	GoodResponse	0	n/a	n/a	3	6	Cue	AvoidedLoss	False
66.977	3.95	Lose2	1.0	0.0	Yes	2.723	0.0	3.0	GoodResponse	0	0.018	65.995	3	6	Fixation	AvoidedLoss	False
66.995	0.3	Lose2	1.0	0.0	Yes	2.723	0.0	3.0	GoodResponse	0	0.018	n/a	3	6	ButtonPress	AvoidedLoss	False
70.926	0.34	Lose2	1.0	0.001	Yes	2.723	-0.001	3.0	GoodResponse	0	0.192	70.118	3	6	Target	AvoidedLoss	False
71.118	0.3	Lose2	1.0	0.001	Yes	2.723	-0.001	3.0	GoodResponse	0	0.192	n/a	3	6	ButtonPress	AvoidedLoss	False
71.276	0.36	Lose2	1.0	n/a	Yes	2.723	n/a	n/a	GoodResponse	0	n/a	n/a	3	6	Blank	AvoidedLoss	False
71.625	1.45	Lose2	1.0	n/a	Yes	2.723	n/a	5.0	GoodResponse	0	0.011	70.636	3	6	Feedback	AvoidedLoss	False
73.075	2.723	Lose2	1.0	n/a	Yes	2.723	n/a	n/a	GoodResponse	0	0.0	n/a	3	6	ISIslide	AvoidedLoss	False
75.824	0.25	Lose2	1.0	0.0	Yes	4.026	0.024	n/a	GoodResponse	0	n/a	n/a	3	7	Cue	AvoidedLoss	True
76.074	4.05	Lose2	1.0	0.0	Yes	4.026	0.0	n/a	GoodResponse	0	n/a	n/a	3	7	Fixation	AvoidedLoss	True
80.123	0.33	Lose2	1.0	0.001	Yes	4.026	-0.001	3.0	GoodResponse	0	0.236	79.359	3	7	Target	AvoidedLoss	True
80.359	0.3	Lose2	1.0	0.001	Yes	4.026	-0.001	3.0	GoodResponse	0	0.236	n/a	3	7	ButtonPress	AvoidedLoss	True
80.456	0.37	Lose2	1.0	n/a	Yes	4.026	n/a	n/a	GoodResponse	0	n/a	n/a	3	7	Blank	AvoidedLoss	True
80.822	1.45	Lose2	1.0	n/a	Yes	4.026	n/a	5.0	GoodResponse	0	0.034	79.856	3	7	Feedback	AvoidedLoss	True
82.272	4.026	Lose2	1.0	n/a	Yes	4.026	n/a	n/a	GoodResponse	0	0.0	n/a	3	7	ISIslide	AvoidedLoss	True
86.32	0.25	Lose2	1.0	0.001	Yes	3.03	0.02	n/a	GoodResponse	0	n/a	n/a	3	8	Cue	AvoidedLoss	True
86.57	3.95	Lose2	1.0	0.0	Yes	3.03	0.0	n/a	GoodResponse	0	n/a	n/a	3	8	Fixation	AvoidedLoss	True
90.519	0.32	Lose2	1.0	0.001	Yes	3.03	-0.001	3.0	GoodResponse	0	0.212	89.731	3	8	Target	AvoidedLoss	True
90.731	0.3	Lose2	1.0	0.001	Yes	3.03	-0.001	3.0	GoodResponse	0	0.212	n/a	3	8	ButtonPress	AvoidedLoss	True
90.836	0.38	Lose2	1.0	n/a	Yes	3.03	n/a	n/a	GoodResponse	0	n/a	n/a	3	8	Blank	AvoidedLoss	True
91.219	1.45	Lose2	1.0	n/a	Yes	3.03	n/a	5.0	GoodResponse	0	0.027	90.246	3	8	Feedback	AvoidedLoss	True
92.668	3.03	Lose2	1.0	n/a	Yes	3.03	n/a	n/a	GoodResponse	0	0.0	n/a	3	8	ISIslide	AvoidedLoss	True
95.717	0.25	Lose2	1.0	0.0	Yes	3.133	0.017	n/a	GoodResponse	0	n/a	n/a	3	9	Cue	AvoidedLoss	True
95.967	3.95	Lose2	1.0	0.0	Yes	3.133	0.0	n/a	GoodResponse	0	n/a	n/a	3	9	Fixation	AvoidedLoss	True
99.916	0.31	Lose2	1.0	0.001	Yes	3.133	-0.001	3.0	GoodResponse	0	0.299	99.215	3	9	Target	AvoidedLoss	True
100.215	0.3	Lose2	1.0	0.001	Yes	3.133	-0.001	3.0	GoodResponse	0	0.299	n/a	3	9	ButtonPress	AvoidedLoss	True
100.232	0.39	Lose2	1.0	n/a	Yes	3.133	n/a	n/a	GoodResponse	0	n/a	n/a	3	9	Blank	AvoidedLoss	True
100.616	1.45	Lose2	1.0	n/a	Yes	3.133	n/a	5.0	GoodResponse	0	0.044	99.66	3	9	Feedback	AvoidedLoss	True
102.065	3.133	Lose2	1.0	n/a	Yes	3.133	n/a	n/a	GoodResponse	0	0.0	n/a	3	9	ISIslide	AvoidedLoss	True
105.214	0.25	Control	1.0	0.0	Yes	3.286	0.014	n/a	GoodResponse	0	n/a	n/a	3	10	Cue	Neutral	True
105.464	4.0	Control	1.0	0.0	Yes	3.286	0.0	n/a	GoodResponse	0	n/a	n/a	3	10	Fixation	Neutral	True
109.463	0.3	Control	1.0	0.001	Yes	3.286	-0.001	3.0	GoodResponse	0	0.204	108.667	3	10	Target	Neutral	True
109.667	0.3	Control	1.0	0.001	Yes	3.286	-0.001	3.0	GoodResponse	0	0.204	n/a	3	10	ButtonPress	Neutral	True
109.762	0.4	Control	1.0	n/a	Yes	3.286	n/a	n/a	GoodResponse	0	n/a	n/a	3	10	Blank	Neutral	True
110.162	1.45	Control	1.0	n/a	Yes	3.286	n/a	5.0	GoodResponse	0	0.01	109.172	3	10	Feedback	Neutral	True
111.612	3.286	Control	1.0	n/a	Yes	3.286	n/a	n/a	GoodResponse	0	0.0	n/a	3	10	ISIslide	Neutral	True
114.927	0.25	Lose2	1.0	0.0	Yes	2.723	0.027	n/a	GoodResponse	0	n/a	n/a	3	11	Cue	AvoidedLoss	True
115.177	4.05	Lose2	1.0	0.0	Yes	2.723	0.0	n/a	GoodResponse	0	n/a	n/a	3	11	Fixation	AvoidedLoss	True
119.226	0.29	Lose2	1.0	0.001	Yes	2.723	-0.001	3.0	GoodResponse	0	0.202	118.428	3	11	Target	AvoidedLoss	True
119.428	0.3	Lose2	1.0	0.001	Yes	2.723	-0.001	3.0	GoodResponse	0	0.202	n/a	3	11	ButtonPress	AvoidedLoss	True
119.526	0.41	Lose2	1.0	n/a	Yes	2.723	n/a	n/a	GoodResponse	0	n/a	n/a	3	11	Blank	AvoidedLoss	True
119.926	1.45	Lose2	1.0	n/a	Yes	2.723	n/a	5.0	GoodResponse	0	0.007	118.933	3	11	Feedback	AvoidedLoss	True
121.375	2.723	Lose2	1.0	n/a	Yes	2.723	n/a	n/a	GoodResponse	0	0.0	n/a	3	11	ISIslide	AvoidedLoss	True
124.124	0.25	Control	1.0	0.0	Yes	2.976	0.024	n/a	GoodResponse	0	n/a	n/a	3	12	Cue	Neutral	True
124.374	3.9	Control	1.0	0.0	Yes	2.976	0.0	n/a	GoodResponse	0	n/a	n/a	3	12	Fixation	Neutral	True
128.273	0.28	Control	1.0	0.001	Yes	2.976	-0.001	3.0	GoodResponse	0	0.208	127.481	3	12	Target	Neutral	True
128.481	0.3	Control	1.0	0.001	Yes	2.976	-0.001	3.0	GoodResponse	0	0.208	n/a	3	12	ButtonPress	Neutral	True
128.556	0.42	Control	1.0	n/a	Yes	2.976	n/a	n/a	GoodResponse	0	n/a	n/a	3	12	Blank	Neutral	True
128.973	1.45	Control	1.0	n/a	Yes	2.976	n/a	5.0	GoodResponse	0	0.029	128.002	3	12	Feedback	Neutral	True
130.422	2.976	Control	1.0	n/a	Yes	2.976	n/a	n/a	GoodResponse	0	0.0	n/a	3	12	ISIslide	Neutral	True
133.421	0.25	Control	1.0	0.0	Yes	2.779	0.021	n/a	GoodResponse	0	n/a	n/a	3	13	Cue	Neutral	True
133.671	4.0	Control	1.0	0.0	Yes	2.779	0.0	n/a	GoodResponse	0	n/a	n/a	3	13	Fixation	Neutral	True
137.67	0.27	Control	1.0	0.001	Yes	2.779	-0.001	3.0	GoodResponse	0	0.207	136.877	3	13	Target	Neutral	True
137.877	0.3	Control	1.0	0.001	Yes	2.779	-0.001	3.0	GoodResponse	0	0.207	n/a	3	13	ButtonPress	Neutral	True
137.953	0.43	Control	1.0	n/a	Yes	2.779	n/a	n/a	GoodResponse	0	n/a	n/a	3	13	Blank	Neutral	True
138.369	1.45	Control	1.0	n/a	Yes	2.779	n/a	5.0	GoodResponse	0	0.047	137.416	3	13	Feedback	Neutral	True
139.819	2.779	Control	1.0	n/a	Yes	2.779	n/a	n/a	GoodResponse	0	0.0	n/a	3	13	ISIslide	Neutral	True
142.618	0.25	Win2	1.0	0.0	Yes	2.682	0.018	n/a	GoodResponse	1	n/a	n/a	4	14	Cue	Win	True
142.868	4.1	Win2	1.0	0.0	Yes	2.682	0.0	n/a	GoodResponse	1	n/a	n/a	4	14	Fixation	Win	True
146.966	0.26	Win2	1.0	0.002	Yes	2.682	-0.002	3.0	GoodResponse	1	0.202	146.168	4	14	Target	Win	True
147.168	0.3	Win2	1.0	0.002	Yes	2.682	-0.002	3.0	GoodResponse	1	0.202	n/a	4	14	ButtonPress	Win	True
147.233	0.44	Win2	1.0	n/a	Yes	2.682	n/a	n/a	GoodResponse	1	n/a	n/a	4	14	Blank	Win	True
147.666	1.45	Win2	1.0	n/a	Yes	2.682	n/a	5.0	GoodResponse	1	0.019	146.685	4	14	Feedback	Win	True
149.116	2.682	Win2	1.0	n/a	Yes	2.682	n/a	n/a	GoodResponse	1	0.0	n/a	4	14	ISIslide	Win	True
151.815	0.25	Control	1.0	0.0	Yes	2.985	0.015	n/a	GoodResponse	0	n/a	n/a	4	15	Cue	Neutral	True
152.065	4.0	Control	1.0	0.0	Yes	2.985	0.0	n/a	GoodResponse	0	n/a	n/a	4	15	Fixation	Neutral	True
156.063	0.25	Control	1.0	0.002	Yes	2.985	-0.002	3.0	GoodResponse	0	0.238	155.301	4	15	Target	Neutral	True
156.301	0.3	Control	1.0	0.002	Yes	2.985	-0.002	3.0	GoodResponse	0	0.238	n/a	4	15	ButtonPress	Neutral	True
156.313	0.45	Control	1.0	n/a	Yes	2.985	n/a	n/a	GoodResponse	0	n/a	n/a	4	15	Blank	Neutral	True
156.763	1.45	Control	1.0	n/a	Yes	2.985	n/a	5.0	GoodResponse	0	0.044	155.807	4	15	Feedback	Neutral	True
158.213	2.985	Control	1.0	n/a	Yes	2.985	n/a	n/a	GoodResponse	0	0.0	n/a	4	15	ISIslide	Neutral	True
161.228	0.25	Win2	1.0	0.0	Yes	2.872	0.028	n/a	GoodResponse	1	n/a	n/a	5	16	Cue	Win	True
161.478	4.0	Win2	1.0	0.0	Yes	2.872	0.0	n/a	GoodResponse	1	n/a	n/a	5	16	Fixation	Win	True
165.477	0.24	Win2	1.0	0.001	Yes	2.872	-0.001	3.0	GoodResponse	1	0.109	164.586	5	16	Target	Win	True
165.586	0.3	Win2	1.0	0.001	Yes	2.872	-0.001	3.0	GoodResponse	1	0.109	n/a	5	16	ButtonPress	Win	True
165.727	0.46	Win2	1.0	n/a	Yes	2.872	n/a	n/a	GoodResponse	1	n/a	n/a	5	16	Blank	Win	True
166.176	1.45	Win2	1.0	n/a	Yes	2.872	n/a	5.0	GoodResponse	1	0.046	165.222	5	16	Feedback	Win	True
167.626	2.872	Win2	1.0	n/a	Yes	2.872	n/a	n/a	GoodResponse	1	0.0	n/a	5	16	ISIslide	Win	True
170.525	0.25	Lose2	1.0	0.0	Yes	2.725	0.025	n/a	GoodResponse	0	n/a	n/a	5	17	Cue	AvoidedLoss	True
170.775	3.95	Lose2	1.0	0.0	Yes	2.725	0.0	n/a	GoodResponse	0	n/a	n/a	5	17	Fixation	AvoidedLoss	True
174.724	0.23	Lose2	1.0	0.001	Yes	2.725	-0.001	3.0	GoodResponse	0	0.215	173.939	5	17	Target	AvoidedLoss	True
174.939	0.3	Lose2	1.0	0.001	Yes	2.725	-0.001	3.0	GoodResponse	0	0.215	n/a	5	17	ButtonPress	AvoidedLoss	True
174.957	0.47	Lose2	1.0	n/a	Yes	2.725	n/a	n/a	GoodResponse	0	n/a	n/a	5	17	Blank	AvoidedLoss	True
175.423	1.45	Lose2	1.0	n/a	Yes	2.725	n/a	5.0	GoodResponse	0	0.017	174.44	5	17	Feedback	AvoidedLoss	True
176.873	2.725	Lose2	1.0	n/a	Yes	2.725	n/a	n/a	GoodResponse	0	0.0	n/a	5	17	ISIslide	AvoidedLoss	True
179.622	0.25	Lose2	0.9473999999999999	0.0	No	2.728	0.022	n/a	NoResponse	-1	n/a	n/a	4	18	Cue	Loss	True
179.872	4.05	Lose2	0.9473999999999999	0.0	No	2.728	0.0	n/a	NoResponse	-1	n/a	n/a	4	18	Fixation	Loss	True
183.92	0.22	Lose2	0.9473999999999999	0.002	No	2.728	-0.002	3.0	NoResponse	-1	0.264	183.184	4	18	Target	Loss	True
184.154	0.48	Lose2	0.9473999999999999	n/a	No	2.728	n/a	n/a	NoResponse	-1	n/a	n/a	4	18	Blank	Loss	True
184.184	0.3	Lose2	0.9473999999999999	0.002	No	2.728	-0.002	3.0	NoResponse	-1	0.264	n/a	4	18	ButtonPress	Loss	True
184.62	1.45	Lose2	0.9473999999999999	n/a	No	2.728	n/a	5.0	NoResponse	-1	0.04	183.66	4	18	Feedback	Loss	True
186.07	2.728	Lose2	0.9473999999999999	n/a	No	2.728	n/a	n/a	NoResponse	-1	0.0	n/a	4	18	ISIslide	Loss	True
188.819	0.25	Control	0.95	0.0	Yes	2.931	0.019	n/a	GoodResponse	0	n/a	n/a	4	19	Cue	Neutral	True
189.069	3.95	Control	0.95	0.0	Yes	2.931	0.0	n/a	GoodResponse	0	n/a	n/a	4	19	Fixation	Neutral	True
193.017	0.21	Control	0.95	0.002	Yes	2.931	-0.002	3.0	GoodResponse	0	0.201	192.218	4	19	Target	Neutral	True
193.218	0.3	Control	0.95	0.002	Yes	2.931	-0.002	3.0	GoodResponse	0	0.201	n/a	4	19	ButtonPress	Neutral	True
193.234	0.49	Control	0.95	n/a	Yes	2.931	n/a	n/a	GoodResponse	0	n/a	n/a	4	19	Blank	Neutral	True
193.717	1.45	Control	0.95	n/a	Yes	2.931	n/a	5.0	GoodResponse	0	0.016	192.733	4	19	Feedback	Neutral	True
195.167	2.931	Control	0.95	n/a	Yes	2.931	n/a	n/a	GoodResponse	0	0.0	n/a	4	19	ISIslide	Neutral	True
198.116	0.25	Control	0.9048	0.0	No	2.634	0.016	n/a	NoResponse	0	n/a	n/a	4	20	Cue	Neutral	True
198.365	4.05	Control	0.9048	0.001	No	2.634	-0.001	n/a	NoResponse	0	n/a	n/a	4	20	Fixation	Neutral	True
202.414	0.2	Control	0.9048	0.002	No	2.634	-0.002	3.0	NoResponse	0	0.202	201.616	4	20	Target	Neutral	True
202.614	0.5	Control	0.9048	n/a	No	2.634	n/a	n/a	NoResponse	0	n/a	n/a	4	20	Blank	Neutral	True
202.616	0.3	Control	0.9048	0.002	No	2.634	-0.002	3.0	NoResponse	0	0.202	n/a	4	20	ButtonPress	Neutral	True
203.114	1.45	Control	0.9048	n/a	No	2.634	n/a	5.0	NoResponse	0	0.034	202.148	4	20	Feedback	Neutral	True
204.563	2.634	Control	0.9048	n/a	No	2.634	n/a	n/a	NoResponse	0	0.0	n/a	4	20	ISIslide	Neutral	True
207.212	0.25	Control	0.8636	0.0	No	2.788	0.012	n/a	PrematurePress	0	n/a	n/a	4	21	Cue	Neutral	False
207.462	4.1	Control	0.8636	0.0	No	2.788	0.0	3.0	PrematurePress	0	3.725	210.187	4	21	Fixation	Neutral	False
211.187	0.3	Control	0.8636	0.0	No	2.788	0.0	3.0	PrematurePress	0	3.725	n/a	4	21	ButtonPress	Neutral	False
211.561	0.19	Control	0.8636	0.001	No	2.788	-0.001	3.0	PrematurePress	0	0.043	210.604	4	21	Target	Neutral	False
211.604	0.3	Control	0.8636	0.001	No	2.788	-0.001	3.0	PrematurePress	0	0.043	n/a	4	21	ButtonPress	Neutral	False
211.761	0.51	Control	0.8636	n/a	No	2.788	n/a	n/a	PrematurePress	0	n/a	n/a	4	21	Blank	Neutral	False
212.261	1.45	Control	0.8636	n/a	No	2.788	n/a	5.0	PrematurePress	0	0.009	211.27	4	21	Feedback	Neutral	False
213.71	2.788	Control	0.8636	n/a	No	2.788	n/a	n/a	PrematurePress	0	0.0	n/a	4	21	ISIslide	Neutral	False
216.526	0.25	Control	0.8261	0.0	No	2.774	0.026	n/a	NoResponse	0	n/a	n/a	4	22	Cue	Neutral	True
216.776	4.0	Control	0.8261	0.0	No	2.774	0.0	n/a	NoResponse	0	n/a	n/a	4	22	Fixation	Neutral	True
220.774	0.18	Control	0.8261	0.002	No	2.774	-0.002	3.0	NoResponse	0	0.286	220.06	4	22	Target	Neutral	True
220.958	0.52	Control	0.8261	n/a	No	2.774	n/a	n/a	NoResponse	0	n/a	n/a	4	22	Blank	Neutral	True
221.06	0.3	Control	0.8261	0.002	No	2.774	-0.002	3.0	NoResponse	0	0.286	n/a	4	22	ButtonPress	Neutral	True
221.474	1.45	Control	0.8261	n/a	No	2.774	n/a	5.0	NoResponse	0	0.016	220.49	4	22	Feedback	Neutral	True
222.924	2.774	Control	0.8261	n/a	No	2.774	n/a	n/a	NoResponse	0	0.0	n/a	4	22	ISIslide	Neutral	True
225.723	0.25	Control	0.7917000000000001	0.0	No	2.777	0.023	n/a	NoResponse	0	n/a	n/a	4	23	Cue	Neutral	True
225.973	3.9	Control	0.7917000000000001	0.0	No	2.777	0.0	n/a	NoResponse	0	n/a	n/a	4	23	Fixation	Neutral	True
229.871	0.17	Control	0.7917000000000001	0.002	No	2.777	-0.002	3.0	NoResponse	0	0.228	229.099	4	23	Target	Neutral	True
230.055	0.53	Control	0.7917000000000001	n/a	No	2.777	n/a	n/a	NoResponse	0	n/a	n/a	4	23	Blank	Neutral	True
230.099	0.3	Control	0.7917000000000001	0.002	No	2.777	-0.002	3.0	NoResponse	0	0.228	n/a	4	23	ButtonPress	Neutral	True
230.571	1.45	Control	0.7917000000000001	n/a	No	2.777	n/a	5.0	NoResponse	0	0.041	229.612	4	23	Feedback	Neutral	True
232.021	2.777	Control	0.7917000000000001	n/a	No	2.777	n/a	n/a	NoResponse	0	0.0	n/a	4	23	ISIslide	Neutral	True
234.82	0.25	Win2	0.76	0.0	No	3.13	0.02	n/a	NoResponse	0	n/a	n/a	4	24	Cue	MissedWin	True
235.07	3.95	Win2	0.76	0.0	No	3.13	0.0	n/a	NoResponse	0	n/a	n/a	4	24	Fixation	MissedWin	True
239.018	0.16	Win2	0.76	0.002	No	3.13	-0.002	3.0	NoResponse	0	0.186	238.204	4	24	Target	MissedWin	True
239.185	0.54	Win2	0.76	n/a	No	3.13	n/a	n/a	NoResponse	0	n/a	n/a	4	24	Blank	MissedWin	True
239.204	0.3	Win2	0.76	0.002	No	3.13	-0.002	3.0	NoResponse	0	0.186	n/a	4	24	ButtonPress	MissedWin	True
239.718	1.45	Win2	0.76	n/a	No	3.13	n/a	5.0	NoResponse	0	0.016	238.734	4	24	Feedback	MissedWin	True
241.167	3.13	Win2	0.76	n/a	No	3.13	n/a	n/a	NoResponse	0	0.0	n/a	4	24	ISIslide	MissedWin	True
244.316	0.25	Win2	0.7308	0.0	No	3.084	0.016	n/a	NoResponse	0	n/a	n/a	4	25	Cue	MissedWin	True
244.566	4.0	Win2	0.7308	0.0	No	3.084	0.0	n/a	NoResponse	0	n/a	n/a	4	25	Fixation	MissedWin	True
248.565	0.15	Win2	0.7308	0.001	No	3.084	-0.001	3.0	NoResponse	0	0.206	247.771	4	25	Target	MissedWin	True
248.715	0.55	Win2	0.7308	n/a	No	3.084	n/a	n/a	NoResponse	0	n/a	n/a	4	25	Blank	MissedWin	True
248.771	0.3	Win2	0.7308	0.001	No	3.084	-0.001	3.0	NoResponse	0	0.206	n/a	4	25	ButtonPress	MissedWin	True
249.265	1.45	Win2	0.7308	n/a	No	3.084	n/a	5.0	NoResponse	0	0.03	248.295	4	25	Feedback	MissedWin	True
250.714	3.084	Win2	0.7308	n/a	No	3.084	n/a	n/a	NoResponse	0	0.0	n/a	4	25	ISIslide	MissedWin	True
253.83	0.25	Win2	0.7037	0.0	No	2.92	0.03	n/a	NoResponse	0	n/a	n/a	4	26	Cue	MissedWin	True
254.08	3.95	Win2	0.7037	0.0	No	2.92	0.0	n/a	NoResponse	0	n/a	n/a	4	26	Fixation	MissedWin	True
258.028	0.15	Win2	0.7037	0.002	No	2.92	-0.002	3.0	NoResponse	0	0.199	257.227	4	26	Target	MissedWin	True
258.178	0.55	Win2	0.7037	n/a	No	2.92	n/a	n/a	NoResponse	0	n/a	n/a	4	26	Blank	MissedWin	True
258.227	0.3	Win2	0.7037	0.002	No	2.92	-0.002	3.0	NoResponse	0	0.199	n/a	4	26	ButtonPress	MissedWin	True
258.728	1.45	Win2	0.7037	n/a	No	2.92	n/a	5.0	NoResponse	0	0.029	257.757	4	26	Feedback	MissedWin	True
260.178	2.92	Win2	0.7037	n/a	No	2.92	n/a	n/a	NoResponse	0	0.0	n/a	4	26	ISIslide	MissedWin	True
263.127	0.25	Lose2	0.6786	0.0	No	2.823	0.027	n/a	NoResponse	-1	n/a	n/a	3	27	Cue	Loss	True
263.377	4.05	Lose2	0.6786	0.0	No	2.823	0.0	n/a	NoResponse	-1	n/a	n/a	3	27	Fixation	Loss	True
267.425	0.15	Lose2	0.6786	0.002	No	2.823	-0.002	3.0	NoResponse	-1	0.195	266.62	3	27	Target	Loss	True
267.575	0.55	Lose2	0.6786	n/a	No	2.823	n/a	n/a	NoResponse	-1	n/a	n/a	3	27	Blank	Loss	True
267.62	0.3	Lose2	0.6786	0.002	No	2.823	-0.002	3.0	NoResponse	-1	0.195	n/a	3	27	ButtonPress	Loss	True
268.125	1.45	Lose2	0.6786	n/a	No	2.823	n/a	5.0	NoResponse	-1	0.047	267.172	3	27	Feedback	Loss	True
269.574	2.823	Lose2	0.6786	n/a	No	2.823	n/a	n/a	NoResponse	-1	0.0	n/a	3	27	ISIslide	Loss	True
272.423	0.25	Control	0.6552	0.001	No	2.827	0.023	n/a	NoResponse	0	n/a	n/a	3	28	Cue	Neutral	True
272.673	4.05	Control	0.6552	0.0	No	2.827	0.0	n/a	NoResponse	0	n/a	n/a	3	28	Fixation	Neutral	True
276.722	0.15	Control	0.6552	0.001	No	2.827	-0.001	3.0	NoResponse	0	0.196	275.918	3	28	Target	Neutral	True
276.872	0.55	Control	0.6552	n/a	No	2.827	n/a	n/a	NoResponse	0	n/a	n/a	3	28	Blank	Neutral	True
276.918	0.3	Control	0.6552	0.001	No	2.827	-0.001	3.0	NoResponse	0	0.196	n/a	3	28	ButtonPress	Neutral	True
277.422	1.45	Control	0.6552	n/a	No	2.827	n/a	5.0	NoResponse	0	0.019	276.441	3	28	Feedback	Neutral	True
278.871	2.827	Control	0.6552	n/a	No	2.827	n/a	n/a	NoResponse	0	0.0	n/a	3	28	ISIslide	Neutral	True
281.72	0.25	Lose2	0.6333	0.0	No	2.83	0.02	n/a	NoResponse	-1	n/a	n/a	2	29	Cue	Loss	True
281.97	3.95	Lose2	0.6333	0.0	No	2.83	0.0	n/a	NoResponse	-1	n/a	n/a	2	29	Fixation	Loss	True
285.919	0.15	Lose2	0.6333	0.001	No	2.83	-0.001	3.0	NoResponse	-1	0.19	285.109	2	29	Target	Loss	True
286.069	0.55	Lose2	0.6333	n/a	No	2.83	n/a	n/a	NoResponse	-1	n/a	n/a	2	29	Blank	Loss	True
286.109	0.3	Lose2	0.6333	0.001	No	2.83	-0.001	3.0	NoResponse	-1	0.19	n/a	2	29	ButtonPress	Loss	True
286.619	1.45	Lose2	0.6333	n/a	No	2.83	n/a	5.0	NoResponse	-1	0.041	285.66	2	29	Feedback	Loss	True
288.068	2.83	Lose2	0.6333	n/a	No	2.83	n/a	n/a	NoResponse	-1	0.0	n/a	2	29	ISIslide	Loss	True
290.917	0.25	Win2	0.6129	0.0	No	2.783	0.017	n/a	NoResponse	0	n/a	n/a	2	30	Cue	MissedWin	True
291.167	3.9	Win2	0.6129	0.0	No	2.783	0.0	n/a	NoResponse	0	n/a	n/a	2	30	Fixation	MissedWin	True
295.066	0.16	Win2	0.6129	0.001	No	2.783	-0.001	3.0	NoResponse	0	0.206	294.272	2	30	Target	MissedWin	True
295.232	0.54	Win2	0.6129	n/a	No	2.783	n/a	n/a	NoResponse	0	n/a	n/a	2	30	Blank	MissedWin	True
295.272	0.3	Win2	0.6129	0.001	No	2.783	-0.001	3.0	NoResponse	0	0.206	n/a	2	30	ButtonPress	MissedWin	True
295.765	1.45	Win2	0.6129	n/a	No	2.783	n/a	5.0	NoResponse	0	0.017	294.782	2	30	Feedback	MissedWin	True
297.215	2.783	Win2	0.6129	n/a	No	2.783	n/a	n/a	NoResponse	0	0.0	n/a	2	30	ISIslide	MissedWin	True
300.014	0.25	Lose2	0.5938	0.0	No	2.836	0.014	n/a	NoResponse	-1	n/a	n/a	1	31	Cue	Loss	True
300.264	4.05	Lose2	0.5938	0.0	No	2.836	0.0	n/a	NoResponse	-1	n/a	n/a	1	31	Fixation	Loss	True
304.312	0.17	Lose2	0.5938	0.002	No	2.836	-0.002	3.0	NoResponse	-1	0.197	303.509	1	31	Target	Loss	True
304.496	0.53	Lose2	0.5938	n/a	No	2.836	n/a	n/a	NoResponse	-1	n/a	n/a	1	31	Blank	Loss	True
304.509	0.3	Lose2	0.5938	0.002	No	2.836	-0.002	3.0	NoResponse	-1	0.197	n/a	1	31	ButtonPress	Loss	True
305.012	1.45	Lose2	0.5938	n/a	No	2.836	n/a	5.0	NoResponse	-1	0.039	304.051	1	31	Feedback	Loss	True
306.462	2.836	Lose2	0.5938	n/a	No	2.836	n/a	n/a	NoResponse	-1	0.0	n/a	1	31	ISIslide	Loss	True
309.327	0.25	Lose2	0.5758	0.001	No	2.623	0.027	n/a	NoResponse	-1	n/a	n/a	0	32	Cue	Loss	True
309.577	4.15	Lose2	0.5758	0.0	No	2.623	0.0	3.0	NoResponse	-1	3.781	312.358	0	32	Fixation	Loss	True
313.358	0.3	Lose2	0.5758	0.0	No	2.623	0.0	3.0	NoResponse	-1	3.781	n/a	0	32	ButtonPress	Loss	True
313.726	0.18	Lose2	0.5758	0.001	No	2.623	-0.001	n/a	NoResponse	-1	n/a	n/a	0	32	Target	Loss	True
313.909	0.52	Lose2	0.5758	n/a	No	2.623	n/a	n/a	NoResponse	-1	n/a	n/a	0	32	Blank	Loss	True
314.426	1.45	Lose2	0.5758	n/a	No	2.623	n/a	5.0	NoResponse	-1	0.039	313.465	0	32	Feedback	Loss	True
315.875	2.623	Lose2	0.5758	n/a	No	2.623	n/a	n/a	NoResponse	-1	0.0	n/a	0	32	ISIslide	Loss	True
318.524	0.25	Win2	0.5882000000000001	0.0	Yes	2.676	0.024	n/a	GoodResponse	1	n/a	n/a	1	33	Cue	Win	True
318.774	4.0	Win2	0.5882000000000001	0.0	Yes	2.676	0.0	n/a	GoodResponse	1	n/a	n/a	1	33	Fixation	Win	True
322.773	0.19	Win2	0.5882000000000001	0.001	Yes	2.676	-0.001	3.0	GoodResponse	1	0.184	321.957	1	33	Target	Win	True
322.957	0.3	Win2	0.5882000000000001	0.001	Yes	2.676	-0.001	3.0	GoodResponse	1	0.184	n/a	1	33	ButtonPress	Win	True
322.973	0.51	Win2	0.5882000000000001	n/a	Yes	2.676	n/a	n/a	GoodResponse	1	n/a	n/a	1	33	Blank	Win	True
323.473	1.45	Win2	0.5882000000000001	n/a	Yes	2.676	n/a	5.0	GoodResponse	1	0.017	322.49	1	33	Feedback	Win	True
324.922	2.676	Win2	0.5882000000000001	n/a	Yes	2.676	n/a	n/a	GoodResponse	1	0.0	n/a	1	33	ISIslide	Win	True
327.621	0.25	Lose2	0.6	0.0	Yes	2.629	0.021	n/a	GoodResponse	0	n/a	n/a	1	34	Cue	AvoidedLoss	True
327.871	4.05	Lose2	0.6	0.0	Yes	2.629	0.0	n/a	GoodResponse	0	n/a	n/a	1	34	Fixation	AvoidedLoss	True
331.92	0.2	Lose2	0.6	0.001	Yes	2.629	-0.001	3.0	GoodResponse	0	0.195	331.115	1	34	Target	AvoidedLoss	True
332.115	0.3	Lose2	0.6	0.001	Yes	2.629	-0.001	3.0	GoodResponse	0	0.195	n/a	1	34	ButtonPress	AvoidedLoss	True
332.12	0.5	Lose2	0.6	n/a	Yes	2.629	n/a	n/a	GoodResponse	0	n/a	n/a	1	34	Blank	AvoidedLoss	True
332.619	1.45	Lose2	0.6	n/a	Yes	2.629	n/a	5.0	GoodResponse	0	0.041	331.66	1	34	Feedback	AvoidedLoss	True
334.069	2.629	Lose2	0.6	n/a	Yes	2.629	n/a	n/a	GoodResponse	0	0.0	n/a	1	34	ISIslide	AvoidedLoss	True
336.718	0.25	Lose2	0.5832999999999999	0.0	No	2.682	0.018	n/a	LatePress	-1	n/a	n/a	0	35	Cue	Loss	True
336.968	4.0	Lose2	0.5832999999999999	0.0	No	2.682	0.0	n/a	LatePress	-1	n/a	n/a	0	35	Fixation	Loss	True
340.967	0.21	Lose2	0.5832999999999999	0.001	No	2.682	-0.001	3.0	LatePress	-1	0.212	340.179	0	35	Target	Loss	True
341.179	0.3	Lose2	0.5832999999999999	0.001	No	2.682	-0.001	3.0	LatePress	-1	0.212	n/a	0	35	ButtonPress	Loss	True
341.183	0.49	Lose2	0.5832999999999999	n/a	No	2.682	n/a	n/a	LatePress	-1	n/a	n/a	0	35	Blank	Loss	True
341.666	1.45	Lose2	0.5832999999999999	n/a	No	2.682	n/a	5.0	LatePress	-1	0.018	340.684	0	35	Feedback	Loss	True
343.116	2.682	Lose2	0.5832999999999999	n/a	No	2.682	n/a	n/a	LatePress	-1	0.0	n/a	0	35	ISIslide	Loss	True
345.815	0.25	Control	0.5946	0.0	Yes	2.685	0.015	n/a	GoodResponse	0	n/a	n/a	0	36	Cue	Neutral	True
346.065	4.0	Control	0.5946	0.0	Yes	2.685	0.0	n/a	GoodResponse	0	n/a	n/a	0	36	Fixation	Neutral	True
350.063	0.22	Control	0.5946	0.002	Yes	2.685	-0.002	3.0	GoodResponse	0	0.215	349.278	0	36	Target	Neutral	True
350.278	0.3	Control	0.5946	0.002	Yes	2.685	-0.002	3.0	GoodResponse	0	0.215	n/a	0	36	ButtonPress	Neutral	True
350.297	0.48	Control	0.5946	n/a	Yes	2.685	n/a	n/a	GoodResponse	0	n/a	n/a	0	36	Blank	Neutral	True
350.763	1.45	Control	0.5946	n/a	Yes	2.685	n/a	5.0	GoodResponse	0	0.043	349.806	0	36	Feedback	Neutral	True
352.213	2.685	Control	0.5946	n/a	Yes	2.685	n/a	n/a	GoodResponse	0	0.0	n/a	0	36	ISIslide	Neutral	True
354.928	0.25	Win2	0.6053000000000001	0.001	Yes	2.872	0.028	n/a	GoodResponse	1	n/a	n/a	1	37	Cue	Win	True
355.178	4.0	Win2	0.6053000000000001	0.0	Yes	2.872	0.0	n/a	GoodResponse	1	n/a	n/a	1	37	Fixation	Win	True
359.177	0.23	Win2	0.6053000000000001	0.001	Yes	2.872	-0.001	3.0	GoodResponse	1	0.199	358.376	1	37	Target	Win	True
359.376	0.3	Win2	0.6053000000000001	0.001	Yes	2.872	-0.001	3.0	GoodResponse	1	0.199	n/a	1	37	ButtonPress	Win	True
359.41	0.47	Win2	0.6053000000000001	n/a	Yes	2.872	n/a	n/a	GoodResponse	1	n/a	n/a	1	37	Blank	Win	True
359.877	1.45	Win2	0.6053000000000001	n/a	Yes	2.872	n/a	5.0	GoodResponse	1	0.007	358.884	1	37	Feedback	Win	True
361.326	2.872	Win2	0.6053000000000001	n/a	Yes	2.872	n/a	n/a	GoodResponse	1	0.0	n/a	1	37	ISIslide	Win	True
364.225	0.25	Lose2	0.6154	0.0	Yes	2.825	0.025	n/a	GoodResponse	0	n/a	n/a	1	38	Cue	AvoidedLoss	True
364.475	3.95	Lose2	0.6154	0.0	Yes	2.825	0.0	n/a	GoodResponse	0	n/a	n/a	1	38	Fixation	AvoidedLoss	True
368.424	0.24	Lose2	0.6154	0.001	Yes	2.825	-0.001	3.0	GoodResponse	0	0.237	367.661	1	38	Target	AvoidedLoss	True
368.661	0.3	Lose2	0.6154	0.001	Yes	2.825	-0.001	3.0	GoodResponse	0	0.237	n/a	1	38	ButtonPress	AvoidedLoss	True
368.674	0.46	Lose2	0.6154	n/a	Yes	2.825	n/a	n/a	GoodResponse	0	n/a	n/a	1	38	Blank	AvoidedLoss	True
369.124	1.45	Lose2	0.6154	n/a	Yes	2.825	n/a	5.0	GoodResponse	0	0.024	368.148	1	38	Feedback	AvoidedLoss	True
370.573	2.825	Lose2	0.6154	n/a	Yes	2.825	n/a	n/a	GoodResponse	0	0.0	n/a	1	38	ISIslide	AvoidedLoss	True
373.422	0.25	Win2	0.625	0.0	Yes	2.978	0.022	n/a	GoodResponse	1	n/a	n/a	2	39	Cue	Win	True
373.672	4.1	Win2	0.625	0.0	Yes	2.978	0.0	n/a	GoodResponse	1	n/a	n/a	2	39	Fixation	Win	True
377.771	0.25	Win2	0.625	0.001	Yes	2.978	-0.001	3.0	GoodResponse	1	0.202	376.973	2	39	Target	Win	True
377.973	0.3	Win2	0.625	0.001	Yes	2.978	-0.001	3.0	GoodResponse	1	0.202	n/a	2	39	ButtonPress	Win	True
378.021	0.45	Win2	0.625	n/a	Yes	2.978	n/a	n/a	GoodResponse	1	n/a	n/a	2	39	Blank	Win	True
378.47	1.45	Win2	0.625	n/a	Yes	2.978	n/a	5.0	GoodResponse	1	0.044	377.514	2	39	Feedback	Win	True
379.92	2.978	Win2	0.625	n/a	Yes	2.978	n/a	n/a	GoodResponse	1	0.0	n/a	2	39	ISIslide	Win	True
382.919	0.25	Win2	0.6341	0.0	Yes	2.731	0.019	3.0	GoodResponse	1	0.248	382.167	3	40	Cue	Win	False
383.167	0.3	Win2	0.6341	0.0	Yes	2.731	0.019	3.0	GoodResponse	1	0.248	n/a	3	40	ButtonPress	Win	False
383.169	3.95	Win2	0.6341	0.0	Yes	2.731	0.0	n/a	GoodResponse	1	n/a	n/a	3	40	Fixation	Win	False
387.117	0.26	Win2	0.6341	0.002	Yes	2.731	-0.002	3.0	GoodResponse	1	0.205	386.322	3	40	Target	Win	False
387.322	0.3	Win2	0.6341	0.002	Yes	2.731	-0.002	3.0	GoodResponse	1	0.205	n/a	3	40	ButtonPress	Win	False
387.384	0.44	Win2	0.6341	n/a	Yes	2.731	n/a	n/a	GoodResponse	1	n/a	n/a	3	40	Blank	Win	False
387.817	1.45	Win2	0.6341	n/a	Yes	2.731	n/a	5.0	GoodResponse	1	0.014	386.831	3	40	Feedback	Win	False
389.267	2.731	Win2	0.6341	n/a	Yes	2.731	n/a	n/a	GoodResponse	1	0.0	n/a	3	40	ISIslide	Win	False
392.016	0.25	Win2	0.6429	0.0	Yes	2.784	0.016	n/a	GoodResponse	1	n/a	n/a	4	41	Cue	Win	True
392.266	3.9	Win2	0.6429	0.0	Yes	2.784	0.0	n/a	GoodResponse	1	n/a	n/a	4	41	Fixation	Win	True
396.164	0.27	Win2	0.6429	0.002	Yes	2.784	-0.002	3.0	GoodResponse	1	0.211	395.375	4	41	Target	Win	True
396.375	0.3	Win2	0.6429	0.002	Yes	2.784	-0.002	3.0	GoodResponse	1	0.211	n/a	4	41	ButtonPress	Win	True
396.448	0.43	Win2	0.6429	n/a	Yes	2.784	n/a	n/a	GoodResponse	1	n/a	n/a	4	41	Blank	Win	True
396.864	1.45	Win2	0.6429	n/a	Yes	2.784	n/a	5.0	GoodResponse	1	0.04	395.904	4	41	Feedback	Win	True
398.314	2.784	Win2	0.6429	n/a	Yes	2.784	n/a	n/a	GoodResponse	1	0.0	n/a	4	41	ISIslide	Win	True
401.129	0.25	Control	0.6512	0.0	Yes	2.921	0.029	n/a	GoodResponse	0	n/a	n/a	4	42	Cue	Neutral	True
401.379	3.85	Control	0.6512	0.0	Yes	2.921	0.0	n/a	GoodResponse	0	n/a	n/a	4	42	Fixation	Neutral	True
405.228	0.28	Control	0.6512	0.001	Yes	2.921	-0.001	3.0	GoodResponse	0	0.232	404.46	4	42	Target	Neutral	True
405.46	0.3	Control	0.6512	0.001	Yes	2.921	-0.001	3.0	GoodResponse	0	0.232	n/a	4	42	ButtonPress	Neutral	True
405.511	0.42	Control	0.6512	n/a	Yes	2.921	n/a	n/a	GoodResponse	0	n/a	n/a	4	42	Blank	Neutral	True
405.928	1.45	Control	0.6512	n/a	Yes	2.921	n/a	5.0	GoodResponse	0	0.0	404.928	4	42	Feedback	Neutral	True
407.377	2.921	Control	0.6512	n/a	Yes	2.921	n/a	n/a	GoodResponse	0	0.0	n/a	4	42	ISIslide	Neutral	True
410.326	0.25	Win2	0.6591	0.0	Yes	3.174	0.026	n/a	GoodResponse	1	n/a	n/a	5	43	Cue	Win	True
410.576	4.0	Win2	0.6591	0.0	Yes	3.174	0.0	n/a	GoodResponse	1	n/a	n/a	5	43	Fixation	Win	True
414.575	0.29	Win2	0.6591	0.001	Yes	3.174	-0.001	3.0	GoodResponse	1	0.221	413.796	5	43	Target	Win	True
414.796	0.3	Win2	0.6591	0.001	Yes	3.174	-0.001	3.0	GoodResponse	1	0.221	n/a	5	43	ButtonPress	Win	True
414.875	0.41	Win2	0.6591	n/a	Yes	3.174	n/a	n/a	GoodResponse	1	n/a	n/a	5	43	Blank	Win	True
415.275	1.45	Win2	0.6591	n/a	Yes	3.174	n/a	5.0	GoodResponse	1	0.019	414.294	5	43	Feedback	Win	True
416.724	3.174	Win2	0.6591	n/a	Yes	3.174	n/a	n/a	GoodResponse	1	0.0	n/a	5	43	ISIslide	Win	True
419.923	0.25	Win2	0.6667000000000001	0.0	Yes	2.977	0.023	n/a	GoodResponse	1	n/a	n/a	6	44	Cue	Win	True
420.173	4.0	Win2	0.6667000000000001	0.0	Yes	2.977	0.0	n/a	GoodResponse	1	n/a	n/a	6	44	Fixation	Win	True
424.171	0.29	Win2	0.6667000000000001	0.002	Yes	2.977	-0.002	3.0	GoodResponse	1	0.268	423.439	6	44	Target	Win	True
424.439	0.3	Win2	0.6667000000000001	0.002	Yes	2.977	-0.002	3.0	GoodResponse	1	0.268	n/a	6	44	ButtonPress	Win	True
424.471	0.41	Win2	0.6667000000000001	n/a	Yes	2.977	n/a	n/a	GoodResponse	1	n/a	n/a	6	44	Blank	Win	True
424.871	1.45	Win2	0.6667000000000001	n/a	Yes	2.977	n/a	5.0	GoodResponse	1	0.033	423.904	6	44	Feedback	Win	True
426.321	2.977	Win2	0.6667000000000001	n/a	Yes	2.977	n/a	n/a	GoodResponse	1	0.0	n/a	6	44	ISIslide	Win	True
429.32	0.25	Control	0.6739	0.0	Yes	2.88	0.02	n/a	GoodResponse	0	n/a	n/a	6	45	Cue	Neutral	True
429.57	4.1	Control	0.6739	0.0	Yes	2.88	0.0	n/a	GoodResponse	0	n/a	n/a	6	45	Fixation	Neutral	True
433.668	0.28	Control	0.6739	0.002	Yes	2.88	-0.002	3.0	GoodResponse	0	0.194	432.862	6	45	Target	Neutral	True
433.862	0.3	Control	0.6739	0.002	Yes	2.88	-0.002	3.0	GoodResponse	0	0.194	n/a	6	45	ButtonPress	Neutral	True
433.951	0.42	Control	0.6739	n/a	Yes	2.88	n/a	n/a	GoodResponse	0	n/a	n/a	6	45	Blank	Neutral	True
434.368	1.45	Control	0.6739	n/a	Yes	2.88	n/a	5.0	GoodResponse	0	0.048	433.416	6	45	Feedback	Neutral	True
435.817	2.88	Control	0.6739	n/a	Yes	2.88	n/a	n/a	GoodResponse	0	0.0	n/a	6	45	ISIslide	Neutral	True
438.716	0.25	Lose2	0.6809000000000001	0.001	Yes	3.384	0.016	n/a	GoodResponse	0	n/a	n/a	6	46	Cue	AvoidedLoss	False
438.966	4.0	Lose2	0.6809000000000001	0.0	Yes	3.384	0.0	3.0	GoodResponse	0	3.414	441.38	6	46	Fixation	AvoidedLoss	False
442.38	0.3	Lose2	0.6809000000000001	0.0	Yes	3.384	0.0	3.0	GoodResponse	0	3.414	n/a	6	46	ButtonPress	AvoidedLoss	False
442.965	0.27	Lose2	0.6809000000000001	0.001	Yes	3.384	-0.001	3.0	GoodResponse	0	0.191	442.156	6	46	Target	AvoidedLoss	False
443.156	0.3	Lose2	0.6809000000000001	0.001	Yes	3.384	-0.001	3.0	GoodResponse	0	0.191	n/a	6	46	ButtonPress	AvoidedLoss	False
443.232	0.43	Lose2	0.6809000000000001	n/a	Yes	3.384	n/a	n/a	GoodResponse	0	n/a	n/a	6	46	Blank	AvoidedLoss	False
443.665	1.45	Lose2	0.6809000000000001	n/a	Yes	3.384	n/a	5.0	GoodResponse	0	0.02	442.685	6	46	Feedback	AvoidedLoss	False
445.114	3.384	Lose2	0.6809000000000001	n/a	Yes	3.384	n/a	n/a	GoodResponse	0	0.0	n/a	6	46	ISIslide	AvoidedLoss	False
448.53	0.25	Lose2	0.6667000000000001	0.0	No	2.67	0.03	n/a	NoResponse	-1	n/a	n/a	5	47	Cue	Loss	False
448.78	4.0	Lose2	0.6667000000000001	0.0	No	2.67	0.0	n/a	NoResponse	-1	n/a	n/a	5	47	Fixation	Loss	False
452.778	0.26	Lose2	0.6667000000000001	0.002	No	2.67	-0.002	n/a	NoResponse	-1	n/a	n/a	5	47	Target	Loss	False
453.045	0.44	Lose2	0.6667000000000001	n/a	No	2.67	n/a	n/a	NoResponse	-1	n/a	n/a	5	47	Blank	Loss	False
453.478	1.45	Lose2	0.6667000000000001	n/a	No	2.67	n/a	5.0	NoResponse	-1	0.012	452.49	5	47	Feedback	Loss	False
454.928	2.67	Lose2	0.6667000000000001	n/a	No	2.67	n/a	n/a	NoResponse	-1	0.0	n/a	5	47	ISIslide	Loss	False
457.627	0.25	Lose2	0.6735	0.0	Yes	3.023	0.027	n/a	GoodResponse	0	n/a	n/a	5	48	Cue	AvoidedLoss	True
457.877	3.95	Lose2	0.6735	0.0	Yes	3.023	0.0	n/a	GoodResponse	0	n/a	n/a	5	48	Fixation	AvoidedLoss	True
461.825	0.25	Lose2	0.6735	0.002	Yes	3.023	-0.002	3.0	GoodResponse	0	0.195	461.02	5	48	Target	AvoidedLoss	True
462.02	0.3	Lose2	0.6735	0.002	Yes	3.023	-0.002	3.0	GoodResponse	0	0.195	n/a	5	48	ButtonPress	AvoidedLoss	True
462.075	0.45	Lose2	0.6735	n/a	Yes	3.023	n/a	n/a	GoodResponse	0	n/a	n/a	5	48	Blank	AvoidedLoss	True
462.525	1.45	Lose2	0.6735	n/a	Yes	3.023	n/a	5.0	GoodResponse	0	0.038	461.563	5	48	Feedback	AvoidedLoss	True
463.974	3.023	Lose2	0.6735	n/a	Yes	3.023	n/a	n/a	GoodResponse	0	0.0	n/a	5	48	ISIslide	AvoidedLoss	True
467.023	0.25	Control	0.68	0.001	Yes	2.877	0.023	n/a	GoodResponse	0	n/a	n/a	5	49	Cue	Neutral	True
467.273	4.0	Control	0.68	0.0	Yes	2.877	0.0	n/a	GoodResponse	0	n/a	n/a	5	49	Fixation	Neutral	True
471.272	0.24	Control	0.68	0.001	Yes	2.877	-0.001	3.0	GoodResponse	0	0.136	470.408	5	49	Target	Neutral	True
471.408	0.3	Control	0.68	0.001	Yes	2.877	-0.001	3.0	GoodResponse	0	0.136	n/a	5	49	ButtonPress	Neutral	True
471.522	0.46	Control	0.68	n/a	Yes	2.877	n/a	n/a	GoodResponse	0	n/a	n/a	5	49	Blank	Neutral	True
471.972	1.45	Control	0.68	n/a	Yes	2.877	n/a	5.0	GoodResponse	0	0.007	470.979	5	49	Feedback	Neutral	True
473.421	2.877	Control	0.68	n/a	Yes	2.877	n/a	n/a	GoodResponse	0	0.0	n/a	5	49	ISIslide	Neutral	True
476.32	0.25	Control	0.6862999999999999	0.0	Yes	2.78	0.02	3.0	GoodResponse	0	0.218	475.538	5	50	Cue	Neutral	False
476.538	0.3	Control	0.6862999999999999	0.0	Yes	2.78	0.02	3.0	GoodResponse	0	0.218	n/a	5	50	ButtonPress	Neutral	False
476.57	4.0	Control	0.6862999999999999	0.0	Yes	2.78	0.0	3.0	GoodResponse	0	0.501	476.071	5	50	Fixation	Neutral	False
477.071	0.3	Control	0.6862999999999999	0.0	Yes	2.78	0.0	3.0	GoodResponse	0	0.501	n/a	5	50	ButtonPress	Neutral	False
480.569	0.23	Control	0.6862999999999999	0.001	Yes	2.78	-0.001	3.0	GoodResponse	0	0.216	479.785	5	50	Target	Neutral	False
480.785	0.3	Control	0.6862999999999999	0.001	Yes	2.78	-0.001	3.0	GoodResponse	0	0.216	n/a	5	50	ButtonPress	Neutral	False
480.802	0.47	Control	0.6862999999999999	n/a	Yes	2.78	n/a	n/a	GoodResponse	0	n/a	n/a	5	50	Blank	Neutral	False
481.269	1.45	Control	0.6862999999999999	n/a	Yes	2.78	n/a	5.0	GoodResponse	0	0.025	480.294	5	50	Feedback	Neutral	False
482.718	2.78	Control	0.6862999999999999	n/a	Yes	2.78	n/a	n/a	GoodResponse	0	0.0	n/a	5	50	ISIslide	Neutral	False
485.517	0.25	Control	0.6923	0.0	Yes	2.733	0.017	n/a	GoodResponse	0	n/a	n/a	5	51	Cue	Neutral	True
485.767	3.95	Control	0.6923	0.0	Yes	2.733	0.0	n/a	GoodResponse	0	n/a	n/a	5	51	Fixation	Neutral	True
489.716	0.22	Control	0.6923	0.001	Yes	2.733	-0.001	3.0	GoodResponse	0	0.187	488.903	5	51	Target	Neutral	True
489.903	0.3	Control	0.6923	0.001	Yes	2.733	-0.001	3.0	GoodResponse	0	0.187	n/a	5	51	ButtonPress	Neutral	True
489.949	0.48	Control	0.6923	n/a	Yes	2.733	n/a	n/a	GoodResponse	0	n/a	n/a	5	51	Blank	Neutral	True
490.415	1.45	Control	0.6923	n/a	Yes	2.733	n/a	5.0	GoodResponse	0	0.001	489.416	5	51	Feedback	Neutral	True
491.865	2.733	Control	0.6923	n/a	Yes	2.733	n/a	n/a	GoodResponse	0	0.0	n/a	5	51	ISIslide	Neutral	True
494.614	0.25	Control	0.6792	0.0	No	2.636	0.014	n/a	NoResponse	0	n/a	n/a	5	52	Cue	Neutral	True
494.864	4.05	Control	0.6792	0.0	No	2.636	0.0	n/a	NoResponse	0	n/a	n/a	5	52	Fixation	Neutral	True
498.913	0.21	Control	0.6792	0.001	No	2.636	-0.001	3.0	NoResponse	0	0.248	498.161	5	52	Target	Neutral	True
499.129	0.49	Control	0.6792	n/a	No	2.636	n/a	n/a	NoResponse	0	n/a	n/a	5	52	Blank	Neutral	True
499.161	0.3	Control	0.6792	0.001	No	2.636	-0.001	3.0	NoResponse	0	0.248	n/a	5	52	ButtonPress	Neutral	True
499.612	1.45	Control	0.6792	n/a	No	2.636	n/a	5.0	NoResponse	0	0.023	498.635	5	52	Feedback	Neutral	True
501.062	2.636	Control	0.6792	n/a	No	2.636	n/a	n/a	NoResponse	0	0.0	n/a	5	52	ISIslide	Neutral	True
503.728	0.25	Win2	0.6667000000000001	0.0	No	2.922	0.028	n/a	NoResponse	0	n/a	n/a	5	53	Cue	MissedWin	True
503.977	4.05	Win2	0.6667000000000001	0.001	No	2.922	-0.001	n/a	NoResponse	0	n/a	n/a	5	53	Fixation	MissedWin	True
508.026	0.2	Win2	0.6667000000000001	0.002	No	2.922	-0.002	3.0	NoResponse	0	0.249	507.275	5	53	Target	MissedWin	True
508.226	0.5	Win2	0.6667000000000001	n/a	No	2.922	n/a	n/a	NoResponse	0	n/a	n/a	5	53	Blank	MissedWin	True
508.275	0.3	Win2	0.6667000000000001	0.002	No	2.922	-0.002	3.0	NoResponse	0	0.249	n/a	5	53	ButtonPress	MissedWin	True
508.726	1.45	Win2	0.6667000000000001	n/a	No	2.922	n/a	5.0	NoResponse	0	0.032	507.758	5	53	Feedback	MissedWin	True
510.175	2.922	Win2	0.6667000000000001	n/a	No	2.922	n/a	n/a	NoResponse	0	0.0	n/a	5	53	ISIslide	MissedWin	True
513.124	0.25	Win2	0.6727	0.0	Yes	2.726	0.024	n/a	GoodResponse	1	n/a	n/a	6	54	Cue	Win	True
513.374	3.95	Win2	0.6727	0.0	Yes	2.726	0.0	n/a	GoodResponse	1	n/a	n/a	6	54	Fixation	Win	True
517.323	0.19	Win2	0.6727	0.001	Yes	2.726	-0.001	3.0	GoodResponse	1	0.156	516.479	6	54	Target	Win	True
517.479	0.3	Win2	0.6727	0.001	Yes	2.726	-0.001	3.0	GoodResponse	1	0.156	n/a	6	54	ButtonPress	Win	True
517.523	0.51	Win2	0.6727	n/a	Yes	2.726	n/a	n/a	GoodResponse	1	n/a	n/a	6	54	Blank	Win	True
518.023	1.45	Win2	0.6727	n/a	Yes	2.726	n/a	5.0	GoodResponse	1	0.007	517.03	6	54	Feedback	Win	True
519.472	2.726	Win2	0.6727	n/a	Yes	2.726	n/a	n/a	GoodResponse	1	0.0	n/a	6	54	ISIslide	Win	True
522.221	0.25	Control	0.6607	0.0	No	3.029	0.021	n/a	NoResponse	0	n/a	n/a	6	55	Cue	Neutral	True
522.471	3.95	Control	0.6607	0.0	No	3.029	0.0	n/a	NoResponse	0	n/a	n/a	6	55	Fixation	Neutral	True
526.42	0.18	Control	0.6607	0.001	No	3.029	-0.001	3.0	NoResponse	0	0.227	525.647	6	55	Target	Neutral	True
526.603	0.52	Control	0.6607	n/a	No	3.029	n/a	n/a	NoResponse	0	n/a	n/a	6	55	Blank	Neutral	True
526.647	0.3	Control	0.6607	0.001	No	3.029	-0.001	3.0	NoResponse	0	0.227	n/a	6	55	ButtonPress	Neutral	True
527.12	1.45	Control	0.6607	n/a	No	3.029	n/a	5.0	NoResponse	0	0.028	526.148	6	55	Feedback	Neutral	True
528.569	3.029	Control	0.6607	n/a	No	3.029	n/a	n/a	NoResponse	0	0.0	n/a	6	55	ISIslide	Neutral	True
531.618	0.25	Control	0.6491	0.0	No	2.832	0.018	n/a	PrematurePress	0	n/a	n/a	6	56	Cue	Neutral	False
531.868	3.95	Control	0.6491	0.0	No	2.832	0.0	3.0	PrematurePress	0	3.594	534.462	6	56	Fixation	Neutral	False
535.462	0.3	Control	0.6491	0.0	No	2.832	0.0	3.0	PrematurePress	0	3.594	n/a	6	56	ButtonPress	Neutral	False
535.817	0.18	Control	0.6491	0.001	No	2.832	-0.001	3.0	PrematurePress	0	0.044	534.861	6	56	Target	Neutral	False
535.861	0.3	Control	0.6491	0.001	No	2.832	-0.001	3.0	PrematurePress	0	0.044	n/a	6	56	ButtonPress	Neutral	False
536	0.52	Control	0.6491	n/a	No	2.832	n/a	n/a	PrematurePress	0	n/a	n/a	6	56	Blank	Neutral	False
536.516	1.45	Control	0.6491	n/a	No	2.832	n/a	5.0	PrematurePress	0	0.047	535.563	6	56	Feedback	Neutral	False
537.966	2.832	Control	0.6491	n/a	No	2.832	n/a	n/a	PrematurePress	0	0.0	n/a	6	56	ISIslide	Neutral	False
540.815	0.25	Control	0.6379	0.0	No	3.485	0.015	n/a	LatePress	0	n/a	n/a	6	57	Cue	Neutral	True
541.065	4.0	Control	0.6379	0.0	No	3.485	0.0	n/a	LatePress	0	n/a	n/a	6	57	Fixation	Neutral	True
545.063	0.19	Control	0.6379	0.002	No	3.485	-0.002	3.0	LatePress	0	0.196	544.259	6	57	Target	Neutral	True
545.259	0.3	Control	0.6379	0.002	No	3.485	-0.002	3.0	LatePress	0	0.196	n/a	6	57	ButtonPress	Neutral	True
545.263	0.51	Control	0.6379	n/a	No	3.485	n/a	n/a	LatePress	0	n/a	n/a	6	57	Blank	Neutral	True
545.763	1.45	Control	0.6379	n/a	No	3.485	n/a	5.0	LatePress	0	0.019	544.782	6	57	Feedback	Neutral	True
547.213	3.485	Control	0.6379	n/a	No	3.485	n/a	n/a	LatePress	0	0.0	n/a	6	57	ISIslide	Neutral	True
550.728	0.25	Win2	0.6271	0.0	No	2.722	0.028	n/a	NoResponse	0	n/a	n/a	6	58	Cue	MissedWin	True
550.978	4.05	Win2	0.6271	0.0	No	2.722	0.0	3.0	NoResponse	0	4.032	554.01	6	58	Fixation	MissedWin	True
555.01	0.3	Win2	0.6271	0.0	No	2.722	0.0	3.0	NoResponse	0	4.032	n/a	6	58	ButtonPress	MissedWin	True
555.027	0.2	Win2	0.6271	0.001	No	2.722	-0.001	n/a	NoResponse	0	n/a	n/a	6	58	Target	MissedWin	True
555.227	0.5	Win2	0.6271	n/a	No	2.722	n/a	n/a	NoResponse	0	n/a	n/a	6	58	Blank	MissedWin	True
555.726	1.45	Win2	0.6271	n/a	No	2.722	n/a	5.0	NoResponse	0	0.009	554.735	6	58	Feedback	MissedWin	True
557.176	2.722	Win2	0.6271	n/a	No	2.722	n/a	n/a	NoResponse	0	0.0	n/a	6	58	ISIslide	MissedWin	True
559.925	0.25	Lose2	0.6333	0.0	Yes	2.675	0.025	n/a	GoodResponse	0	n/a	n/a	6	59	Cue	AvoidedLoss	True
560.175	4.0	Lose2	0.6333	0.0	Yes	2.675	0.0	n/a	GoodResponse	0	n/a	n/a	6	59	Fixation	AvoidedLoss	True
564.174	0.21	Lose2	0.6333	0.001	Yes	2.675	-0.001	3.0	GoodResponse	0	0.177	563.351	6	59	Target	AvoidedLoss	True
564.351	0.3	Lose2	0.6333	0.001	Yes	2.675	-0.001	3.0	GoodResponse	0	0.177	n/a	6	59	ButtonPress	AvoidedLoss	True
564.39	0.49	Lose2	0.6333	n/a	Yes	2.675	n/a	n/a	GoodResponse	0	n/a	n/a	6	59	Blank	AvoidedLoss	True
564.873	1.45	Lose2	0.6333	n/a	Yes	2.675	n/a	5.0	GoodResponse	0	0.031	563.904	6	59	Feedback	AvoidedLoss	True
566.323	2.675	Lose2	0.6333	n/a	Yes	2.675	n/a	n/a	GoodResponse	0	0.0	n/a	6	59	ISIslide	AvoidedLoss	True
569.022	0.25	Control	0.6393	0.0	Yes	2.678	0.022	n/a	GoodResponse	0	n/a	n/a	6	60	Cue	Neutral	True
569.272	4.0	Control	0.6393	0.0	Yes	2.678	0.0	n/a	GoodResponse	0	n/a	n/a	6	60	Fixation	Neutral	True
573.27	0.22	Control	0.6393	0.002	Yes	2.678	-0.002	3.0	GoodResponse	0	0.188	572.458	6	60	Target	Neutral	True
573.458	0.3	Control	0.6393	0.002	Yes	2.678	-0.002	3.0	GoodResponse	0	0.188	n/a	6	60	ButtonPress	Neutral	True
573.504	0.48	Control	0.6393	n/a	Yes	2.678	n/a	n/a	GoodResponse	0	n/a	n/a	6	60	Blank	Neutral	True
573.97	1.45	Control	0.6393	n/a	Yes	2.678	n/a	5.0	GoodResponse	0	0.007	572.977	6	60	Feedback	Neutral	True
575.42	2.678	Control	0.6393	n/a	Yes	2.678	n/a	n/a	GoodResponse	0	0.0	n/a	6	60	ISIslide	Neutral	True
578.119	0.25	Lose2	0.6452	0.0	Yes	2.981	0.019	n/a	GoodResponse	0	n/a	n/a	6	61	Cue	AvoidedLoss	True
578.369	4.0	Lose2	0.6452	0.0	Yes	2.981	0.0	n/a	GoodResponse	0	n/a	n/a	6	61	Fixation	AvoidedLoss	True
582.367	0.23	Lose2	0.6452	0.002	Yes	2.981	-0.002	3.0	GoodResponse	0	0.185	581.552	6	61	Target	AvoidedLoss	True
582.552	0.3	Lose2	0.6452	0.002	Yes	2.981	-0.002	3.0	GoodResponse	0	0.185	n/a	6	61	ButtonPress	AvoidedLoss	True
582.601	0.47	Lose2	0.6452	n/a	Yes	2.981	n/a	n/a	GoodResponse	0	n/a	n/a	6	61	Blank	AvoidedLoss	True
583.067	1.45	Lose2	0.6452	n/a	Yes	2.981	n/a	5.0	GoodResponse	0	0.032	582.099	6	61	Feedback	AvoidedLoss	True
584.517	2.981	Lose2	0.6452	n/a	Yes	2.981	n/a	n/a	GoodResponse	0	0.0	n/a	6	61	ISIslide	AvoidedLoss	True
587.516	0.25	Lose2	0.6507999999999999	0.0	Yes	2.884	0.016	n/a	GoodResponse	0	n/a	n/a	6	62	Cue	AvoidedLoss	True
587.765	3.9	Lose2	0.6507999999999999	0.001	Yes	2.884	-0.001	n/a	GoodResponse	0	n/a	n/a	6	62	Fixation	AvoidedLoss	True
591.664	0.24	Lose2	0.6507999999999999	0.002	Yes	2.884	-0.002	3.0	GoodResponse	0	0.202	590.866	6	62	Target	AvoidedLoss	True
591.866	0.3	Lose2	0.6507999999999999	0.002	Yes	2.884	-0.002	3.0	GoodResponse	0	0.202	n/a	6	62	ButtonPress	AvoidedLoss	True
591.914	0.46	Lose2	0.6507999999999999	n/a	Yes	2.884	n/a	n/a	GoodResponse	0	n/a	n/a	6	62	Blank	AvoidedLoss	True
592.364	1.45	Lose2	0.6507999999999999	n/a	Yes	2.884	n/a	5.0	GoodResponse	0	0.007	591.371	6	62	Feedback	AvoidedLoss	True
593.813	2.884	Lose2	0.6507999999999999	n/a	Yes	2.884	n/a	n/a	GoodResponse	0	0.0	n/a	6	62	ISIslide	AvoidedLoss	True
596.712	0.25	Lose2	0.6562	0.001	Yes	2.638	0.012	n/a	GoodResponse	0	n/a	n/a	6	63	Cue	AvoidedLoss	True
596.962	4.05	Lose2	0.6562	0.0	Yes	2.638	0.0	n/a	GoodResponse	0	n/a	n/a	6	63	Fixation	AvoidedLoss	True
601.011	0.25	Lose2	0.6562	0.001	Yes	2.638	-0.001	3.0	GoodResponse	0	0.224	600.235	6	63	Target	AvoidedLoss	True
601.235	0.3	Lose2	0.6562	0.001	Yes	2.638	-0.001	3.0	GoodResponse	0	0.224	n/a	6	63	ButtonPress	AvoidedLoss	True
601.261	0.45	Lose2	0.6562	n/a	Yes	2.638	n/a	n/a	GoodResponse	0	n/a	n/a	6	63	Blank	AvoidedLoss	True
601.711	1.45	Lose2	0.6562	n/a	Yes	2.638	n/a	5.0	GoodResponse	0	0.022	600.733	6	63	Feedback	AvoidedLoss	True
603.16	2.638	Lose2	0.6562	n/a	Yes	2.638	n/a	n/a	GoodResponse	0	0.0	n/a	6	63	ISIslide	AvoidedLoss	True
605.826	0.25	Win2	0.6615000000000001	0.0	Yes	3.124	0.026	3.0	GoodResponse	1	0.222	605.048	7	64	Cue	Win	False
606.048	0.3	Win2	0.6615000000000001	0.0	Yes	3.124	0.026	3.0	GoodResponse	1	0.222	n/a	7	64	ButtonPress	Win	False
606.076	4.15	Win2	0.6615000000000001	0.0	Yes	3.124	0.0	3.0	GoodResponse	1	0.54	605.616	7	64	Fixation	Win	False
606.616	0.3	Win2	0.6615000000000001	0.0	Yes	3.124	0.0	3.0	GoodResponse	1	0.54	n/a	7	64	ButtonPress	Win	False
610.224	0.25	Win2	0.6615000000000001	0.002	Yes	3.124	-0.002	3.0	GoodResponse	1	0.201	609.425	7	64	Target	Win	False
610.425	0.3	Win2	0.6615000000000001	0.002	Yes	3.124	-0.002	3.0	GoodResponse	1	0.201	n/a	7	64	ButtonPress	Win	False
610.474	0.45	Win2	0.6615000000000001	n/a	Yes	3.124	n/a	n/a	GoodResponse	1	n/a	n/a	7	64	Blank	Win	False
610.924	1.45	Win2	0.6615000000000001	n/a	Yes	3.124	n/a	5.0	GoodResponse	1	0.029	609.953	7	64	Feedback	Win	False
612.374	3.124	Win2	0.6615000000000001	n/a	Yes	3.124	n/a	n/a	GoodResponse	1	0.0	n/a	7	64	ISIslide	Win	False
615.523	0.25	Control	0.6667000000000001	0.0	Yes	2.777	0.023	n/a	GoodResponse	0	n/a	n/a	7	65	Cue	Neutral	True
615.773	4.0	Control	0.6667000000000001	0.0	Yes	2.777	0.0	n/a	GoodResponse	0	n/a	n/a	7	65	Fixation	Neutral	True
619.771	0.25	Control	0.6667000000000001	0.002	Yes	2.777	-0.002	3.0	GoodResponse	0	0.221	618.992	7	65	Target	Neutral	True
619.992	0.3	Control	0.6667000000000001	0.002	Yes	2.777	-0.002	3.0	GoodResponse	0	0.221	n/a	7	65	ButtonPress	Neutral	True
620.021	0.45	Control	0.6667000000000001	n/a	Yes	2.777	n/a	n/a	GoodResponse	0	n/a	n/a	7	65	Blank	Neutral	True
620.471	1.45	Control	0.6667000000000001	n/a	Yes	2.777	n/a	5.0	GoodResponse	0	0.043	619.514	7	65	Feedback	Neutral	True
621.92	2.777	Control	0.6667000000000001	n/a	Yes	2.777	n/a	n/a	GoodResponse	0	0.0	n/a	7	65	ISIslide	Neutral	True
624.719	0.25	Win2	0.6716	0.001	Yes	2.781	0.019	n/a	GoodResponse	1	n/a	n/a	8	66	Cue	Win	True
624.969	3.9	Win2	0.6716	0.0	Yes	2.781	0.0	n/a	GoodResponse	1	n/a	n/a	8	66	Fixation	Win	True
628.868	0.24	Win2	0.6716	0.001	Yes	2.781	-0.001	3.0	GoodResponse	1	0.184	628.052	8	66	Target	Win	True
629.052	0.3	Win2	0.6716	0.001	Yes	2.781	-0.001	3.0	GoodResponse	1	0.184	n/a	8	66	ButtonPress	Win	True
629.118	0.46	Win2	0.6716	n/a	Yes	2.781	n/a	n/a	GoodResponse	1	n/a	n/a	8	66	Blank	Win	True
629.568	1.45	Win2	0.6716	n/a	Yes	2.781	n/a	5.0	GoodResponse	1	0.018	628.586	8	66	Feedback	Win	True
631.017	2.781	Win2	0.6716	n/a	Yes	2.781	n/a	n/a	GoodResponse	1	0.0	n/a	8	66	ISIslide	Win	True
633.816	0.25	Control	0.6765000000000001	0.0	Yes	2.734	0.016	n/a	GoodResponse	0	n/a	n/a	8	67	Cue	Neutral	True
634.066	3.95	Control	0.6765000000000001	0.0	Yes	2.734	0.0	n/a	GoodResponse	0	n/a	n/a	8	67	Fixation	Neutral	True
638.015	0.23	Control	0.6765000000000001	0.001	Yes	2.734	-0.001	3.0	GoodResponse	0	0.151	637.166	8	67	Target	Neutral	True
638.166	0.3	Control	0.6765000000000001	0.001	Yes	2.734	-0.001	3.0	GoodResponse	0	0.151	n/a	8	67	ButtonPress	Neutral	True
638.248	0.47	Control	0.6765000000000001	n/a	Yes	2.734	n/a	n/a	GoodResponse	0	n/a	n/a	8	67	Blank	Neutral	True
638.715	1.45	Control	0.6765000000000001	n/a	Yes	2.734	n/a	5.0	GoodResponse	0	0.042	637.757	8	67	Feedback	Neutral	True
640.164	2.734	Control	0.6765000000000001	n/a	Yes	2.734	n/a	n/a	GoodResponse	0	0.0	n/a	8	67	ISIslide	Neutral	True
642.913	0.25	Win2	0.6812	0.0	Yes	3.087	0.013	n/a	GoodResponse	1	n/a	n/a	9	68	Cue	Win	True
643.163	4.0	Win2	0.6812	0.0	Yes	3.087	0.0	n/a	GoodResponse	1	n/a	n/a	9	68	Fixation	Win	True
647.162	0.22	Win2	0.6812	0.001	Yes	3.087	-0.001	3.0	GoodResponse	1	0.202	646.364	9	68	Target	Win	True
647.364	0.3	Win2	0.6812	0.001	Yes	3.087	-0.001	3.0	GoodResponse	1	0.202	n/a	9	68	ButtonPress	Win	True
647.378	0.48	Win2	0.6812	n/a	Yes	3.087	n/a	n/a	GoodResponse	1	n/a	n/a	9	68	Blank	Win	True
647.862	1.45	Win2	0.6812	n/a	Yes	3.087	n/a	5.0	GoodResponse	1	0.017	646.879	9	68	Feedback	Win	True
649.311	3.087	Win2	0.6812	n/a	Yes	3.087	n/a	n/a	GoodResponse	1	0.0	n/a	9	68	ISIslide	Win	True
652.427	0.25	Win2	0.6714	0.0	No	3.223	0.027	n/a	NoResponse	0	n/a	n/a	9	69	Cue	MissedWin	True
652.677	3.95	Win2	0.6714	0.0	No	3.223	0.0	n/a	NoResponse	0	n/a	n/a	9	69	Fixation	MissedWin	True
656.625	0.21	Win2	0.6714	0.002	No	3.223	-0.002	3.0	NoResponse	0	0.293	655.918	9	69	Target	MissedWin	True
656.842	0.49	Win2	0.6714	n/a	No	3.223	n/a	n/a	NoResponse	0	n/a	n/a	9	69	Blank	MissedWin	True
656.918	0.3	Win2	0.6714	0.002	No	3.223	-0.002	3.0	NoResponse	0	0.293	n/a	9	69	ButtonPress	MissedWin	True
657.325	1.45	Win2	0.6714	n/a	No	3.223	n/a	5.0	NoResponse	0	0.018	656.343	9	69	Feedback	MissedWin	True
658.774	3.223	Win2	0.6714	n/a	No	3.223	n/a	n/a	NoResponse	0	0.0	n/a	9	69	ISIslide	MissedWin	True
662.023	0.25	Lose2	0.6761	0.0	Yes	3.027	0.023	n/a	GoodResponse	0	n/a	n/a	9	70	Cue	AvoidedLoss	True
662.273	4.05	Lose2	0.6761	0.0	Yes	3.027	0.0	n/a	GoodResponse	0	n/a	n/a	9	70	Fixation	AvoidedLoss	True
666.322	0.2	Lose2	0.6761	0.001	Yes	3.027	-0.001	3.0	GoodResponse	0	0.193	665.515	9	70	Target	AvoidedLoss	True
666.515	0.3	Lose2	0.6761	0.001	Yes	3.027	-0.001	3.0	GoodResponse	0	0.193	n/a	9	70	ButtonPress	AvoidedLoss	True
666.522	0.5	Lose2	0.6761	n/a	Yes	3.027	n/a	n/a	GoodResponse	0	n/a	n/a	9	70	Blank	AvoidedLoss	True
667.022	1.45	Lose2	0.6761	n/a	Yes	3.027	n/a	5.0	GoodResponse	0	0.028	666.05	9	70	Feedback	AvoidedLoss	True
668.471	3.027	Lose2	0.6761	n/a	Yes	3.027	n/a	n/a	GoodResponse	0	0.0	n/a	9	70	ISIslide	AvoidedLoss	True
671.52	0.25	Win2	0.6806	0.0	Yes	2.73	0.02	n/a	GoodResponse	1	n/a	n/a	10	71	Cue	Win	True
671.77	4.05	Win2	0.6806	0.0	Yes	2.73	0.0	n/a	GoodResponse	1	n/a	n/a	10	71	Fixation	Win	True
675.819	0.19	Win2	0.6806	0.001	Yes	2.73	-0.001	3.0	GoodResponse	1	0.183	675.002	10	71	Target	Win	True
676.002	0.3	Win2	0.6806	0.001	Yes	2.73	-0.001	3.0	GoodResponse	1	0.183	n/a	10	71	ButtonPress	Win	True
676.019	0.51	Win2	0.6806	n/a	Yes	2.73	n/a	n/a	GoodResponse	1	n/a	n/a	10	71	Blank	Win	True
676.518	1.45	Win2	0.6806	n/a	Yes	2.73	n/a	5.0	GoodResponse	1	0.044	675.562	10	71	Feedback	Win	True
677.968	2.73	Win2	0.6806	n/a	Yes	2.73	n/a	n/a	GoodResponse	1	0.0	n/a	10	71	ISIslide	Win	True
680.717	0.25	Win2	0.6712	0.0	No	2.783	0.017	n/a	PrematurePress	0	n/a	n/a	10	72	Cue	MissedWin	True
680.967	4.1	Win2	0.6712	0.0	No	2.783	0.0	n/a	PrematurePress	0	n/a	n/a	10	72	Fixation	MissedWin	True
685.065	0.18	Win2	0.6712	0.002	No	2.783	-0.002	3.0	PrematurePress	0	0.096	684.161	10	72	Target	MissedWin	True
685.161	0.3	Win2	0.6712	0.002	No	2.783	-0.002	3.0	PrematurePress	0	0.096	n/a	10	72	ButtonPress	MissedWin	True
685.249	0.52	Win2	0.6712	n/a	No	2.783	n/a	n/a	PrematurePress	0	n/a	n/a	10	72	Blank	MissedWin	True
685.765	1.45	Win2	0.6712	n/a	No	2.783	n/a	5.0	PrematurePress	0	0.017	684.782	10	72	Feedback	MissedWin	True
687.215	2.783	Win2	0.6712	n/a	No	2.783	n/a	n/a	PrematurePress	0	0.0	n/a	10	72	ISIslide	MissedWin	True
690.014	0.25	Win2	0.6622	0.0	No	2.686	0.014	n/a	NoResponse	0	n/a	n/a	10	73	Cue	MissedWin	True
690.264	4.0	Win2	0.6622	0.0	No	2.686	0.0	n/a	NoResponse	0	n/a	n/a	10	73	Fixation	MissedWin	True
694.262	0.17	Win2	0.6622	0.002	No	2.686	-0.002	3.0	NoResponse	0	0.212	693.474	10	73	Target	MissedWin	True
694.446	0.53	Win2	0.6622	n/a	No	2.686	n/a	n/a	NoResponse	0	n/a	n/a	10	73	Blank	MissedWin	True
694.474	0.3	Win2	0.6622	0.002	No	2.686	-0.002	3.0	NoResponse	0	0.212	n/a	10	73	ButtonPress	MissedWin	True
694.962	1.45	Win2	0.6622	n/a	No	2.686	n/a	5.0	NoResponse	0	0.04	694.002	10	73	Feedback	MissedWin	True
696.412	2.686	Win2	0.6622	n/a	No	2.686	n/a	n/a	NoResponse	0	0.0	n/a	10	73	ISIslide	MissedWin	True
699.127	0.25	Lose2	0.6533	0.0	No	2.623	0.027	n/a	NoResponse	-1	n/a	n/a	9	74	Cue	Loss	True
699.377	4.05	Lose2	0.6533	0.0	No	2.623	0.0	n/a	NoResponse	-1	n/a	n/a	9	74	Fixation	Loss	True
703.426	0.17	Lose2	0.6533	0.001	No	2.623	-0.001	3.0	NoResponse	-1	0.206	702.632	9	74	Target	Loss	True
703.592	0.53	Lose2	0.6533	n/a	No	2.623	n/a	n/a	NoResponse	-1	n/a	n/a	9	74	Blank	Loss	True
703.632	0.3	Lose2	0.6533	0.001	No	2.623	-0.001	3.0	NoResponse	-1	0.206	n/a	9	74	ButtonPress	Loss	True
704.126	1.45	Lose2	0.6533	n/a	No	2.623	n/a	5.0	NoResponse	-1	0.046	703.172	9	74	Feedback	Loss	True
705.575	2.623	Lose2	0.6533	n/a	No	2.623	n/a	n/a	NoResponse	-1	0.0	n/a	9	74	ISIslide	Loss	True
708.224	0.25	Lose2	0.6446999999999999	0.0	No	2.926	0.024	n/a	NoResponse	-1	n/a	n/a	8	75	Cue	Loss	True
708.474	3.95	Lose2	0.6446999999999999	0.0	No	2.926	0.0	n/a	NoResponse	-1	n/a	n/a	8	75	Fixation	Loss	True
712.423	0.18	Lose2	0.6446999999999999	0.001	No	2.926	-0.001	3.0	NoResponse	-1	0.2	711.623	8	75	Target	Loss	True
712.606	0.52	Lose2	0.6446999999999999	n/a	No	2.926	n/a	n/a	NoResponse	-1	n/a	n/a	8	75	Blank	Loss	True
712.623	0.3	Lose2	0.6446999999999999	0.001	No	2.926	-0.001	3.0	NoResponse	-1	0.2	n/a	8	75	ButtonPress	Loss	True
713.123	1.45	Lose2	0.6446999999999999	n/a	No	2.926	n/a	5.0	NoResponse	-1	0.024	712.147	8	75	Feedback	Loss	True
714.572	2.926	Lose2	0.6446999999999999	n/a	No	2.926	n/a	n/a	NoResponse	-1	0.0	n/a	8	75	ISIslide	Loss	True
717.521	0.25	Control	0.6494	0.0	Yes	3.229	0.021	n/a	GoodResponse	0	n/a	n/a	8	76	Cue	Neutral	True
717.771	4.05	Control	0.6494	0.0	Yes	3.229	0.0	n/a	GoodResponse	0	n/a	n/a	8	76	Fixation	Neutral	True
721.82	0.19	Control	0.6494	0.001	Yes	3.229	-0.001	3.0	GoodResponse	0	0.178	720.998	8	76	Target	Neutral	True
721.998	0.3	Control	0.6494	0.001	Yes	3.229	-0.001	3.0	GoodResponse	0	0.178	n/a	8	76	ButtonPress	Neutral	True
722.019	0.51	Control	0.6494	n/a	Yes	3.229	n/a	n/a	GoodResponse	0	n/a	n/a	8	76	Blank	Neutral	True
722.519	1.45	Control	0.6494	n/a	Yes	3.229	n/a	5.0	GoodResponse	0	0.043	721.562	8	76	Feedback	Neutral	True
723.969	3.229	Control	0.6494	n/a	Yes	3.229	n/a	n/a	GoodResponse	0	0.0	n/a	8	76	ISIslide	Neutral	True
727.218	0.25	Lose2	0.6537999999999999	0.0	Yes	2.582	0.018	n/a	GoodResponse	0	n/a	n/a	8	77	Cue	AvoidedLoss	True
727.468	3.95	Lose2	0.6537999999999999	0.0	Yes	2.582	0.0	n/a	GoodResponse	0	n/a	n/a	8	77	Fixation	AvoidedLoss	True
731.416	0.2	Lose2	0.6537999999999999	0.002	Yes	2.582	-0.002	3.0	GoodResponse	0	0.186	730.602	8	77	Target	AvoidedLoss	True
731.602	0.3	Lose2	0.6537999999999999	0.002	Yes	2.582	-0.002	3.0	GoodResponse	0	0.186	n/a	8	77	ButtonPress	AvoidedLoss	True
731.616	0.5	Lose2	0.6537999999999999	n/a	Yes	2.582	n/a	n/a	GoodResponse	0	n/a	n/a	8	77	Blank	AvoidedLoss	True
732.116	1.45	Lose2	0.6537999999999999	n/a	Yes	2.582	n/a	5.0	GoodResponse	0	0.007	731.123	8	77	Feedback	AvoidedLoss	True
733.566	2.582	Lose2	0.6537999999999999	n/a	Yes	2.582	n/a	n/a	GoodResponse	0	0.0	n/a	8	77	ISIslide	AvoidedLoss	True
