onset	duration	cue_type	current_mean_accuracy	duration_error	is_hit	isi_adjusted	onset_delay	response	response_type	reward	rt	rt_time	total_reward	trial_number	trial_phase	trial_type	one_press
11.104	0.25	Control	1.0	0.0	Yes	2.946	0.004	n/a	GoodResponse	0	n/a	n/a	0	0	Cue	Neutral	True
11.355	3.85	Control	1.0	0.0	Yes	2.946	0.001	n/a	GoodResponse	0	n/a	n/a	0	0	Fixation	Neutral	True
15.2	0.4	Control	1.0	0.004	Yes	2.946	-0.004	2.0	GoodResponse	0	0.244	14.444	0	0	Target	Neutral	True
15.444	0.3	Control	1.0	0.004	Yes	2.946	-0.004	2.0	GoodResponse	0	0.244	n/a	0	0	ButtonPress	Neutral	True
15.601	0.3	Control	1.0	n/a	Yes	2.946	n/a	n/a	GoodResponse	0	n/a	n/a	0	0	Blank	Neutral	True
15.902	1.45	Control	1.0	n/a	Yes	2.946	n/a	5.0	GoodResponse	0	0.024	14.926	0	0	Feedback	Neutral	True
17.356	2.946	Control	1.0	n/a	Yes	2.946	n/a	n/a	GoodResponse	0	0.0	n/a	0	0	ISIslide	Neutral	True
20.315	0.25	Lose2	1.0	0.0	Yes	2.785	0.015	n/a	GoodResponse	0	n/a	n/a	0	1	Cue	AvoidedLoss	True
20.566	4.0	Lose2	1.0	0.0	Yes	2.785	0.001	n/a	GoodResponse	0	n/a	n/a	0	1	Fixation	AvoidedLoss	True
24.561	0.39	Lose2	1.0	0.004	Yes	2.785	-0.004	2.0	GoodResponse	0	0.106	23.667	0	1	Target	AvoidedLoss	True
24.667	0.3	Lose2	1.0	0.004	Yes	2.785	-0.004	2.0	GoodResponse	0	0.106	n/a	0	1	ButtonPress	AvoidedLoss	True
24.963	0.31	Lose2	1.0	n/a	Yes	2.785	n/a	n/a	GoodResponse	0	n/a	n/a	0	1	Blank	AvoidedLoss	True
25.263	1.45	Lose2	1.0	n/a	Yes	2.785	n/a	5.0	GoodResponse	0	0.029	24.292	0	1	Feedback	AvoidedLoss	True
26.718	2.785	Lose2	1.0	n/a	Yes	2.785	n/a	n/a	GoodResponse	0	0.0	n/a	0	1	ISIslide	AvoidedLoss	True
29.526	0.25	Control	1.0	0.0	Yes	2.574	0.026	n/a	GoodResponse	0	n/a	n/a	0	2	Cue	Neutral	True
29.777	4.1	Control	1.0	0.0	Yes	2.574	0.001	n/a	GoodResponse	0	n/a	n/a	0	2	Fixation	Neutral	True
33.873	0.38	Control	1.0	0.003	Yes	2.574	-0.003	2.0	GoodResponse	0	0.362	33.235	0	2	Target	Neutral	True
34.235	0.3	Control	1.0	0.003	Yes	2.574	-0.003	2.0	GoodResponse	0	0.362	n/a	0	2	ButtonPress	Neutral	True
34.257	0.32	Control	1.0	n/a	Yes	2.574	n/a	n/a	GoodResponse	0	n/a	n/a	0	2	Blank	Neutral	True
34.575	1.45	Control	1.0	n/a	Yes	2.574	n/a	5.0	GoodResponse	0	0.035	33.61	0	2	Feedback	Neutral	True
36.029	2.574	Control	1.0	n/a	Yes	2.574	n/a	n/a	GoodResponse	0	0.0	n/a	0	2	ISIslide	Neutral	True
38.62	0.25	Win2	1.0	0.0	Yes	2.83	0.02	n/a	GoodResponse	1	n/a	n/a	1	3	Cue	Win	False
38.871	3.95	Win2	1.0	0.0	Yes	2.83	0.001	2.0	GoodResponse	1	3.729	41.6	1	3	Fixation	Win	False
42.6	0.3	Win2	1.0	0.0	Yes	2.83	0.001	2.0	GoodResponse	1	3.729	n/a	1	3	ButtonPress	Win	False
42.816	0.37	Win2	1.0	0.004	Yes	2.83	-0.004	2.0	GoodResponse	1	0.276	42.092	1	3	Target	Win	False
43.092	0.3	Win2	1.0	0.004	Yes	2.83	-0.004	2.0	GoodResponse	1	0.276	n/a	1	3	ButtonPress	Win	False
43.2	0.33	Win2	1.0	n/a	Yes	2.83	n/a	n/a	GoodResponse	1	n/a	n/a	1	3	Blank	Win	False
43.518	1.45	Win2	1.0	n/a	Yes	2.83	n/a	5.0	GoodResponse	1	0.018	42.536	1	3	Feedback	Win	False
44.972	2.83	Win2	1.0	n/a	Yes	2.83	n/a	n/a	GoodResponse	1	0.0	n/a	1	3	ISIslide	Win	False
47.831	0.25	Win2	1.0	0.0	Yes	3.269	0.031	n/a	GoodResponse	1	n/a	n/a	2	4	Cue	Win	True
48.082	4.0	Win2	1.0	0.0	Yes	3.269	0.001	n/a	GoodResponse	1	n/a	n/a	2	4	Fixation	Win	True
52.077	0.36	Win2	1.0	0.004	Yes	3.269	-0.004	2.0	GoodResponse	1	0.225	51.302	2	4	Target	Win	True
52.302	0.3	Win2	1.0	0.004	Yes	3.269	-0.004	2.0	GoodResponse	1	0.225	n/a	2	4	ButtonPress	Win	True
52.445	0.34	Win2	1.0	n/a	Yes	3.269	n/a	n/a	GoodResponse	1	n/a	n/a	2	4	Blank	Win	True
52.779	1.45	Win2	1.0	n/a	Yes	3.269	n/a	5.0	GoodResponse	1	0.025	51.804	2	4	Feedback	Win	True
54.233	3.269	Win2	1.0	n/a	Yes	3.269	n/a	n/a	GoodResponse	1	0.0	n/a	2	4	ISIslide	Win	True
57.527	0.25	Win2	1.0	0.0	Yes	2.773	0.027	n/a	GoodResponse	1	n/a	n/a	3	5	Cue	Win	True
57.777	4.0	Win2	1.0	0.0	Yes	2.773	0.0	n/a	GoodResponse	1	n/a	n/a	3	5	Fixation	Win	True
61.773	0.35	Win2	1.0	0.004	Yes	2.773	-0.004	2.0	GoodResponse	1	0.314	61.087	3	5	Target	Win	True
62.087	0.3	Win2	1.0	0.004	Yes	2.773	-0.004	2.0	GoodResponse	1	0.314	n/a	3	5	ButtonPress	Win	True
62.124	0.35	Win2	1.0	n/a	Yes	2.773	n/a	n/a	GoodResponse	1	n/a	n/a	3	5	Blank	Win	True
62.475	1.45	Win2	1.0	n/a	Yes	2.773	n/a	5.0	GoodResponse	1	0.036	61.511	3	5	Feedback	Win	True
63.929	2.773	Win2	1.0	n/a	Yes	2.773	n/a	n/a	GoodResponse	1	0.0	n/a	3	5	ISIslide	Win	True
66.721	0.25	Lose2	1.0	0.0	Yes	2.729	0.021	n/a	GoodResponse	0	n/a	n/a	3	6	Cue	AvoidedLoss	True
66.972	3.95	Lose2	1.0	0.0	Yes	2.729	0.001	n/a	GoodResponse	0	n/a	n/a	3	6	Fixation	AvoidedLoss	True
70.917	0.34	Lose2	1.0	0.004	Yes	2.729	-0.004	2.0	GoodResponse	0	0.195	70.112	3	6	Target	AvoidedLoss	True
71.112	0.3	Lose2	1.0	0.004	Yes	2.729	-0.004	2.0	GoodResponse	0	0.195	n/a	3	6	ButtonPress	AvoidedLoss	True
71.268	0.36	Lose2	1.0	n/a	Yes	2.729	n/a	n/a	GoodResponse	0	n/a	n/a	3	6	Blank	AvoidedLoss	True
71.619	1.45	Lose2	1.0	n/a	Yes	2.729	n/a	5.0	GoodResponse	0	0.014	70.633	3	6	Feedback	AvoidedLoss	True
73.073	2.729	Lose2	1.0	n/a	Yes	2.729	n/a	n/a	GoodResponse	0	0.0	n/a	3	6	ISIslide	AvoidedLoss	True
75.831	0.25	Lose2	0.875	0.001	No	4.019	0.031	n/a	NoResponse	-1	n/a	n/a	2	7	Cue	Loss	True
76.082	4.05	Lose2	0.875	0.0	No	4.019	0.001	n/a	NoResponse	-1	n/a	n/a	2	7	Fixation	Loss	True
80.128	0.33	Lose2	0.875	0.003	No	4.019	-0.003	2.0	NoResponse	-1	0.346	79.474	2	7	Target	Loss	True
80.462	0.37	Lose2	0.875	n/a	No	4.019	n/a	n/a	NoResponse	-1	n/a	n/a	2	7	Blank	Loss	True
80.474	0.3	Lose2	0.875	0.003	No	4.019	-0.003	2.0	NoResponse	-1	0.346	n/a	2	7	ButtonPress	Loss	True
80.83	1.45	Lose2	0.875	n/a	No	4.019	n/a	5.0	NoResponse	-1	0.023	79.853	2	7	Feedback	Loss	True
82.284	4.019	Lose2	0.875	n/a	No	4.019	n/a	n/a	NoResponse	-1	0.0	n/a	2	7	ISIslide	Loss	True
86.33	0.25	Lose2	0.8889	0.0	Yes	3.02	0.03	n/a	GoodResponse	0	n/a	n/a	2	8	Cue	AvoidedLoss	True
86.58	3.95	Lose2	0.8889	0.0	Yes	3.02	0.0	n/a	GoodResponse	0	n/a	n/a	2	8	Fixation	AvoidedLoss	True
90.525	0.32	Lose2	0.8889	0.005	Yes	3.02	-0.005	2.0	GoodResponse	0	0.203	89.728	2	8	Target	AvoidedLoss	True
90.728	0.3	Lose2	0.8889	0.005	Yes	3.02	-0.005	2.0	GoodResponse	0	0.203	n/a	2	8	ButtonPress	AvoidedLoss	True
90.86	0.38	Lose2	0.8889	n/a	Yes	3.02	n/a	n/a	GoodResponse	0	n/a	n/a	2	8	Blank	AvoidedLoss	True
91.228	1.45	Lose2	0.8889	n/a	Yes	3.02	n/a	5.0	GoodResponse	0	0.015	90.243	2	8	Feedback	AvoidedLoss	True
92.682	3.02	Lose2	0.8889	n/a	Yes	3.02	n/a	n/a	GoodResponse	0	0.0	n/a	2	8	ISIslide	AvoidedLoss	True
95.724	0.25	Lose2	0.9	0.0	Yes	3.126	0.024	n/a	GoodResponse	0	n/a	n/a	2	9	Cue	AvoidedLoss	False
95.975	3.95	Lose2	0.9	0.0	Yes	3.126	0.001	2.0	GoodResponse	0	3.787	98.762	2	9	Fixation	AvoidedLoss	False
99.762	0.3	Lose2	0.9	0.0	Yes	3.126	0.001	2.0	GoodResponse	0	3.787	n/a	2	9	ButtonPress	AvoidedLoss	False
99.92	0.31	Lose2	0.9	0.004	Yes	3.126	-0.004	2.0	GoodResponse	0	0.309	99.229	2	9	Target	AvoidedLoss	False
100.229	0.3	Lose2	0.9	0.004	Yes	3.126	-0.004	2.0	GoodResponse	0	0.309	n/a	2	9	ButtonPress	AvoidedLoss	False
100.238	0.39	Lose2	0.9	n/a	Yes	3.126	n/a	n/a	GoodResponse	0	n/a	n/a	2	9	Blank	AvoidedLoss	False
100.622	1.45	Lose2	0.9	n/a	Yes	3.126	n/a	5.0	GoodResponse	0	0.035	99.657	2	9	Feedback	AvoidedLoss	False
102.077	3.126	Lose2	0.9	n/a	Yes	3.126	n/a	n/a	GoodResponse	0	0.0	n/a	2	9	ISIslide	AvoidedLoss	False
105.219	0.25	Control	0.8181999999999999	0.001	No	3.281	0.019	n/a	LatePress	0	n/a	n/a	2	10	Cue	Neutral	True
105.47	4.0	Control	0.8181999999999999	0.0	No	3.281	0.001	n/a	LatePress	0	n/a	n/a	2	10	Fixation	Neutral	True
109.465	0.3	Control	0.8181999999999999	0.004	No	3.281	-0.004	2.0	LatePress	0	0.301	108.766	2	10	Target	Neutral	True
109.766	0.4	Control	0.8181999999999999	n/a	No	3.281	n/a	n/a	LatePress	0	n/a	n/a	2	10	Blank	Neutral	True
109.766	0.3	Control	0.8181999999999999	0.004	No	3.281	-0.004	2.0	LatePress	0	0.301	n/a	2	10	ButtonPress	Neutral	True
110.168	1.45	Control	0.8181999999999999	n/a	No	3.281	n/a	5.0	LatePress	0	0.001	109.169	2	10	Feedback	Neutral	True
111.622	3.281	Control	0.8181999999999999	n/a	No	3.281	n/a	n/a	LatePress	0	0.0	n/a	2	10	ISIslide	Neutral	True
114.915	0.25	Lose2	0.8332999999999999	0.0	Yes	2.735	0.015	n/a	GoodResponse	0	n/a	n/a	2	11	Cue	AvoidedLoss	True
115.166	4.05	Lose2	0.8332999999999999	0.0	Yes	2.735	0.001	n/a	GoodResponse	0	n/a	n/a	2	11	Fixation	AvoidedLoss	True
119.211	0.29	Lose2	0.8332999999999999	0.004	Yes	2.735	-0.004	2.0	GoodResponse	0	0.257	118.468	2	11	Target	AvoidedLoss	True
119.468	0.3	Lose2	0.8332999999999999	0.004	Yes	2.735	-0.004	2.0	GoodResponse	0	0.257	n/a	2	11	ButtonPress	AvoidedLoss	True
119.512	0.41	Lose2	0.8332999999999999	n/a	Yes	2.735	n/a	n/a	GoodResponse	0	n/a	n/a	2	11	Blank	AvoidedLoss	True
119.913	1.45	Lose2	0.8332999999999999	n/a	Yes	2.735	n/a	5.0	GoodResponse	0	0.013	118.926	2	11	Feedback	AvoidedLoss	True
121.368	2.735	Lose2	0.8332999999999999	n/a	Yes	2.735	n/a	n/a	GoodResponse	0	0.0	n/a	2	11	ISIslide	AvoidedLoss	True
124.126	0.25	Control	0.8462000000000001	0.0	Yes	2.974	0.026	n/a	GoodResponse	0	n/a	n/a	2	12	Cue	Neutral	True
124.377	3.9	Control	0.8462000000000001	0.0	Yes	2.974	0.001	n/a	GoodResponse	0	n/a	n/a	2	12	Fixation	Neutral	True
128.272	0.28	Control	0.8462000000000001	0.004	Yes	2.974	-0.004	2.0	GoodResponse	0	0.221	127.493	2	12	Target	Neutral	True
128.493	0.3	Control	0.8462000000000001	0.004	Yes	2.974	-0.004	2.0	GoodResponse	0	0.221	n/a	2	12	ButtonPress	Neutral	True
128.556	0.42	Control	0.8462000000000001	n/a	Yes	2.974	n/a	n/a	GoodResponse	0	n/a	n/a	2	12	Blank	Neutral	True
128.974	1.45	Control	0.8462000000000001	n/a	Yes	2.974	n/a	5.0	GoodResponse	0	0.025	127.999	2	12	Feedback	Neutral	True
130.428	2.974	Control	0.8462000000000001	n/a	Yes	2.974	n/a	n/a	GoodResponse	0	0.0	n/a	2	12	ISIslide	Neutral	True
133.421	0.25	Control	0.7857	0.0	No	2.779	0.021	n/a	LatePress	0	n/a	n/a	2	13	Cue	Neutral	True
133.671	4.0	Control	0.7857	0.0	No	2.779	0.0	n/a	LatePress	0	n/a	n/a	2	13	Fixation	Neutral	True
137.667	0.27	Control	0.7857	0.004	No	2.779	-0.004	2.0	LatePress	0	0.28	136.947	2	13	Target	Neutral	True
137.947	0.3	Control	0.7857	0.004	No	2.779	-0.004	2.0	LatePress	0	0.28	n/a	2	13	ButtonPress	Neutral	True
137.951	0.43	Control	0.7857	n/a	No	2.779	n/a	n/a	LatePress	0	n/a	n/a	2	13	Blank	Neutral	True
138.369	1.45	Control	0.7857	n/a	No	2.779	n/a	5.0	LatePress	0	0.045	137.414	2	13	Feedback	Neutral	True
139.823	2.779	Control	0.7857	n/a	No	2.779	n/a	n/a	LatePress	0	0.0	n/a	2	13	ISIslide	Neutral	True
142.631	0.25	Win2	0.8	0.001	Yes	2.669	0.031	n/a	GoodResponse	1	n/a	n/a	3	14	Cue	Win	True
142.882	4.1	Win2	0.8	0.0	Yes	2.669	0.001	n/a	GoodResponse	1	n/a	n/a	3	14	Fixation	Win	True
146.978	0.26	Win2	0.8	0.003	Yes	2.669	-0.003	2.0	GoodResponse	1	0.258	146.236	3	14	Target	Win	True
147.236	0.3	Win2	0.8	0.003	Yes	2.669	-0.003	2.0	GoodResponse	1	0.258	n/a	3	14	ButtonPress	Win	True
147.245	0.44	Win2	0.8	n/a	Yes	2.669	n/a	n/a	GoodResponse	1	n/a	n/a	3	14	Blank	Win	True
147.68	1.45	Win2	0.8	n/a	Yes	2.669	n/a	5.0	GoodResponse	1	0.007	146.687	3	14	Feedback	Win	True
149.134	2.669	Win2	0.8	n/a	Yes	2.669	n/a	n/a	GoodResponse	1	0.0	n/a	3	14	ISIslide	Win	True
151.826	0.25	Control	0.8125	0.0	Yes	2.974	0.026	n/a	GoodResponse	0	n/a	n/a	3	15	Cue	Neutral	True
152.076	4.0	Control	0.8125	0.0	Yes	2.974	0.0	n/a	GoodResponse	0	n/a	n/a	3	15	Fixation	Neutral	True
156.072	0.25	Control	0.8125	0.004	Yes	2.974	-0.004	2.0	GoodResponse	0	0.21	155.282	3	15	Target	Neutral	True
156.282	0.3	Control	0.8125	0.004	Yes	2.974	-0.004	2.0	GoodResponse	0	0.21	n/a	3	15	ButtonPress	Neutral	True
156.322	0.45	Control	0.8125	n/a	Yes	2.974	n/a	n/a	GoodResponse	0	n/a	n/a	3	15	Blank	Neutral	True
156.774	1.45	Control	0.8125	n/a	Yes	2.974	n/a	5.0	GoodResponse	0	0.029	155.803	3	15	Feedback	Neutral	True
158.228	2.974	Control	0.8125	n/a	Yes	2.974	n/a	n/a	GoodResponse	0	0.0	n/a	3	15	ISIslide	Neutral	True
161.22	0.25	Win2	0.7646999999999999	0.0	No	2.88	0.02	n/a	NoResponse	0	n/a	n/a	3	16	Cue	MissedWin	False
161.471	4.0	Win2	0.7646999999999999	0.0	No	2.88	0.001	2.0	NoResponse	0	3.818	164.289	3	16	Fixation	MissedWin	False
165.289	0.3	Win2	0.7646999999999999	0.0	No	2.88	0.001	2.0	NoResponse	0	3.818	n/a	3	16	ButtonPress	MissedWin	False
165.466	0.24	Win2	0.7646999999999999	0.004	No	2.88	-0.004	2.0	NoResponse	0	0.384	164.85	3	16	Target	MissedWin	False
165.717	0.46	Win2	0.7646999999999999	n/a	No	2.88	n/a	n/a	NoResponse	0	n/a	n/a	3	16	Blank	MissedWin	False
165.85	0.3	Win2	0.7646999999999999	0.004	No	2.88	-0.004	2.0	NoResponse	0	0.384	n/a	3	16	ButtonPress	MissedWin	False
166.169	1.45	Win2	0.7646999999999999	n/a	No	2.88	n/a	5.0	NoResponse	0	0.0	165.169	3	16	Feedback	MissedWin	False
167.623	2.88	Win2	0.7646999999999999	n/a	No	2.88	n/a	n/a	NoResponse	0	0.0	n/a	3	16	ISIslide	MissedWin	False
170.532	0.25	Lose2	0.7222	0.0	No	2.718	0.032	n/a	NoResponse	-1	n/a	n/a	2	17	Cue	Loss	True
170.782	3.95	Lose2	0.7222	0.0	No	2.718	0.0	n/a	NoResponse	-1	n/a	n/a	2	17	Fixation	Loss	True
174.727	0.23	Lose2	0.7222	0.005	No	2.718	-0.005	2.0	NoResponse	-1	0.246	173.973	2	17	Target	Loss	True
174.962	0.47	Lose2	0.7222	n/a	No	2.718	n/a	n/a	NoResponse	-1	n/a	n/a	2	17	Blank	Loss	True
174.973	0.3	Lose2	0.7222	0.005	No	2.718	-0.005	2.0	NoResponse	-1	0.246	n/a	2	17	ButtonPress	Loss	True
175.43	1.45	Lose2	0.7222	n/a	No	2.718	n/a	5.0	NoResponse	-1	0.008	174.438	2	17	Feedback	Loss	True
176.884	2.718	Lose2	0.7222	n/a	No	2.718	n/a	n/a	NoResponse	-1	0.0	n/a	2	17	ISIslide	Loss	True
179.625	0.25	Lose2	0.6842	0.001	No	2.725	0.025	n/a	NoResponse	-1	n/a	n/a	1	18	Cue	Loss	True
179.876	4.05	Lose2	0.6842	0.0	No	2.725	0.001	n/a	NoResponse	-1	n/a	n/a	1	18	Fixation	Loss	True
183.922	0.22	Lose2	0.6842	0.003	No	2.725	-0.003	2.0	NoResponse	-1	0.249	183.171	1	18	Target	Loss	True
184.156	0.48	Lose2	0.6842	n/a	No	2.725	n/a	n/a	NoResponse	-1	n/a	n/a	1	18	Blank	Loss	True
184.171	0.3	Lose2	0.6842	0.003	No	2.725	-0.003	2.0	NoResponse	-1	0.249	n/a	1	18	ButtonPress	Loss	True
184.624	1.45	Lose2	0.6842	n/a	No	2.725	n/a	5.0	NoResponse	-1	0.033	183.657	1	18	Feedback	Loss	True
186.078	2.725	Lose2	0.6842	n/a	No	2.725	n/a	n/a	NoResponse	-1	0.0	n/a	1	18	ISIslide	Loss	True
188.82	0.25	Control	0.65	0.0	No	2.93	0.02	n/a	NoResponse	0	n/a	n/a	1	19	Cue	Neutral	False
189.07	3.95	Control	0.65	0.001	No	2.93	0.0	2.0	NoResponse	0	3.502	191.572	1	19	Fixation	Neutral	False
192.572	0.3	Control	0.65	0.001	No	2.93	0.0	2.0	NoResponse	0	3.502	n/a	1	19	ButtonPress	Neutral	False
193.016	0.21	Control	0.65	0.004	No	2.93	-0.004	2.0	NoResponse	0	0.294	192.31	1	19	Target	Neutral	False
193.233	0.49	Control	0.65	n/a	No	2.93	n/a	n/a	NoResponse	0	n/a	n/a	1	19	Blank	Neutral	False
193.31	0.3	Control	0.65	0.004	No	2.93	-0.004	2.0	NoResponse	0	0.294	n/a	1	19	ButtonPress	Neutral	False
193.718	1.45	Control	0.65	n/a	No	2.93	n/a	5.0	NoResponse	0	0.011	192.729	1	19	Feedback	Neutral	False
195.172	2.93	Control	0.65	n/a	No	2.93	n/a	n/a	NoResponse	0	0.0	n/a	1	19	ISIslide	Neutral	False
198.131	0.25	Control	0.619	0.0	No	2.619	0.031	n/a	NoResponse	0	n/a	n/a	1	20	Cue	Neutral	False
198.382	4.05	Control	0.619	0.0	No	2.619	0.001	n/a	NoResponse	0	n/a	n/a	1	20	Fixation	Neutral	False
202.427	0.22	Control	0.619	0.004	No	2.619	-0.004	n/a	NoResponse	0	n/a	n/a	1	20	Target	Neutral	False
202.661	0.48	Control	0.619	n/a	No	2.619	n/a	n/a	NoResponse	0	n/a	n/a	1	20	Blank	Neutral	False
203.129	1.45	Control	0.619	n/a	No	2.619	n/a	5.0	NoResponse	0	0.015	202.144	1	20	Feedback	Neutral	False
204.584	2.619	Control	0.619	n/a	No	2.619	n/a	n/a	NoResponse	0	0.0	n/a	1	20	ISIslide	Neutral	False
207.225	0.25	Control	0.6364	0.0	Yes	2.775	0.025	n/a	GoodResponse	0	n/a	n/a	1	21	Cue	Neutral	True
207.476	4.1	Control	0.6364	0.0	Yes	2.775	0.001	n/a	GoodResponse	0	n/a	n/a	1	21	Fixation	Neutral	True
211.571	0.23	Control	0.6364	0.004	Yes	2.775	-0.004	2.0	GoodResponse	0	0.188	210.759	1	21	Target	Neutral	True
211.759	0.3	Control	0.6364	0.004	Yes	2.775	-0.004	2.0	GoodResponse	0	0.188	n/a	1	21	ButtonPress	Neutral	True
211.805	0.47	Control	0.6364	n/a	Yes	2.775	n/a	n/a	GoodResponse	0	n/a	n/a	1	21	Blank	Neutral	True
212.273	1.45	Control	0.6364	n/a	Yes	2.775	n/a	5.0	GoodResponse	0	0.042	211.315	1	21	Feedback	Neutral	True
213.728	2.775	Control	0.6364	n/a	Yes	2.775	n/a	n/a	GoodResponse	0	0.0	n/a	1	21	ISIslide	Neutral	True
216.519	0.25	Control	0.6522	0.0	Yes	2.781	0.019	n/a	GoodResponse	0	n/a	n/a	1	22	Cue	Neutral	False
216.77	4.0	Control	0.6522	0.0	Yes	2.781	0.001	2.0	GoodResponse	0	3.371	219.141	1	22	Fixation	Neutral	False
220.141	0.3	Control	0.6522	0.0	Yes	2.781	0.001	2.0	GoodResponse	0	3.371	n/a	1	22	ButtonPress	Neutral	False
220.765	0.24	Control	0.6522	0.004	Yes	2.781	-0.004	2.0	GoodResponse	0	0.191	219.956	1	22	Target	Neutral	False
220.956	0.3	Control	0.6522	0.004	Yes	2.781	-0.004	2.0	GoodResponse	0	0.191	n/a	1	22	ButtonPress	Neutral	False
221.016	0.46	Control	0.6522	n/a	Yes	2.781	n/a	n/a	GoodResponse	0	n/a	n/a	1	22	Blank	Neutral	False
221.467	1.45	Control	0.6522	n/a	Yes	2.781	n/a	5.0	GoodResponse	0	0.019	220.486	1	22	Feedback	Neutral	False
222.922	2.781	Control	0.6522	n/a	Yes	2.781	n/a	n/a	GoodResponse	0	0.0	n/a	1	22	ISIslide	Neutral	False
225.73	0.25	Control	0.6667000000000001	0.0	Yes	2.77	0.03	n/a	GoodResponse	0	n/a	n/a	1	23	Cue	Neutral	False
225.981	3.9	Control	0.6667000000000001	0.0	Yes	2.77	0.001	2.0	GoodResponse	0	2.936	227.917	1	23	Fixation	Neutral	False
228.917	0.3	Control	0.6667000000000001	0.0	Yes	2.77	0.001	2.0	GoodResponse	0	2.936	n/a	1	23	ButtonPress	Neutral	False
229.876	0.25	Control	0.6667000000000001	0.004	Yes	2.77	-0.004	2.0	GoodResponse	0	0.2	229.076	1	23	Target	Neutral	False
230.076	0.3	Control	0.6667000000000001	0.004	Yes	2.77	-0.004	2.0	GoodResponse	0	0.2	n/a	1	23	ButtonPress	Neutral	False
230.127	0.45	Control	0.6667000000000001	n/a	Yes	2.77	n/a	n/a	GoodResponse	0	n/a	n/a	1	23	Blank	Neutral	False
230.578	1.45	Control	0.6667000000000001	n/a	Yes	2.77	n/a	5.0	GoodResponse	0	0.03	229.608	1	23	Feedback	Neutral	False
232.032	2.77	Control	0.6667000000000001	n/a	Yes	2.77	n/a	n/a	GoodResponse	0	0.0	n/a	1	23	ISIslide	Neutral	False
234.824	0.25	Win2	0.68	0.0	Yes	3.126	0.024	n/a	GoodResponse	1	n/a	n/a	2	24	Cue	Win	True
235.075	3.95	Win2	0.68	0.0	Yes	3.126	0.001	n/a	GoodResponse	1	n/a	n/a	2	24	Fixation	Win	True
239.02	0.24	Win2	0.68	0.004	Yes	3.126	-0.004	2.0	GoodResponse	1	0.224	238.244	2	24	Target	Win	True
239.244	0.3	Win2	0.68	0.004	Yes	3.126	-0.004	2.0	GoodResponse	1	0.224	n/a	2	24	ButtonPress	Win	True
239.271	0.46	Win2	0.68	n/a	Yes	3.126	n/a	n/a	GoodResponse	1	n/a	n/a	2	24	Blank	Win	True
239.722	1.45	Win2	0.68	n/a	Yes	3.126	n/a	5.0	GoodResponse	1	0.008	238.73	2	24	Feedback	Win	True
241.176	3.126	Win2	0.68	n/a	Yes	3.126	n/a	n/a	GoodResponse	1	0.0	n/a	2	24	ISIslide	Win	True
244.319	0.25	Win2	0.6923	0.0	Yes	3.081	0.019	n/a	GoodResponse	1	n/a	n/a	3	25	Cue	Win	False
244.57	4.0	Win2	0.6923	0.0	Yes	3.081	0.001	2.0	GoodResponse	1	3.827	247.397	3	25	Fixation	Win	False
248.397	0.3	Win2	0.6923	0.0	Yes	3.081	0.001	2.0	GoodResponse	1	3.827	n/a	3	25	ButtonPress	Win	False
248.565	0.23	Win2	0.6923	0.004	Yes	3.081	-0.004	2.0	GoodResponse	1	0.166	247.731	3	25	Target	Win	False
248.731	0.3	Win2	0.6923	0.004	Yes	3.081	-0.004	2.0	GoodResponse	1	0.166	n/a	3	25	ButtonPress	Win	False
248.799	0.47	Win2	0.6923	n/a	Yes	3.081	n/a	n/a	GoodResponse	1	n/a	n/a	3	25	Blank	Win	False
249.267	1.45	Win2	0.6923	n/a	Yes	3.081	n/a	5.0	GoodResponse	1	0.023	248.29	3	25	Feedback	Win	False
250.722	3.081	Win2	0.6923	n/a	Yes	3.081	n/a	n/a	GoodResponse	1	0.0	n/a	3	25	ISIslide	Win	False
253.831	0.25	Win2	0.6667000000000001	0.0	No	2.919	0.031	n/a	NoResponse	0	n/a	n/a	3	26	Cue	MissedWin	False
254.082	3.95	Win2	0.6667000000000001	0.0	No	2.919	0.001	n/a	NoResponse	0	n/a	n/a	3	26	Fixation	MissedWin	False
258.027	0.22	Win2	0.6667000000000001	0.004	No	2.919	-0.004	n/a	NoResponse	0	n/a	n/a	3	26	Target	MissedWin	False
258.261	0.48	Win2	0.6667000000000001	n/a	No	2.919	n/a	n/a	NoResponse	0	n/a	n/a	3	26	Blank	MissedWin	False
258.729	1.45	Win2	0.6667000000000001	n/a	No	2.919	n/a	5.0	NoResponse	0	0.024	257.753	3	26	Feedback	MissedWin	False
260.183	2.919	Win2	0.6667000000000001	n/a	No	2.919	n/a	n/a	NoResponse	0	0.0	n/a	3	26	ISIslide	MissedWin	False
263.125	0.25	Lose2	0.6786	0.001	Yes	2.825	0.025	n/a	GoodResponse	0	n/a	n/a	3	27	Cue	AvoidedLoss	True
263.376	4.05	Lose2	0.6786	0.0	Yes	2.825	0.001	n/a	GoodResponse	0	n/a	n/a	3	27	Fixation	AvoidedLoss	True
267.422	0.21	Lose2	0.6786	0.003	Yes	2.825	-0.003	2.0	GoodResponse	0	0.197	266.619	3	27	Target	AvoidedLoss	True
267.619	0.3	Lose2	0.6786	0.003	Yes	2.825	-0.003	2.0	GoodResponse	0	0.197	n/a	3	27	ButtonPress	AvoidedLoss	True
267.639	0.49	Lose2	0.6786	n/a	Yes	2.825	n/a	n/a	GoodResponse	0	n/a	n/a	3	27	Blank	AvoidedLoss	True
268.124	1.45	Lose2	0.6786	n/a	Yes	2.825	n/a	5.0	GoodResponse	0	0.044	267.168	3	27	Feedback	AvoidedLoss	True
269.578	2.825	Lose2	0.6786	n/a	Yes	2.825	n/a	n/a	GoodResponse	0	0.0	n/a	3	27	ISIslide	AvoidedLoss	True
272.42	0.25	Control	0.6897	0.0	Yes	2.83	0.02	n/a	GoodResponse	0	n/a	n/a	3	28	Cue	Neutral	True
272.671	4.05	Control	0.6897	0.0	Yes	2.83	0.001	n/a	GoodResponse	0	n/a	n/a	3	28	Fixation	Neutral	True
276.716	0.2	Control	0.6897	0.004	Yes	2.83	-0.004	2.0	GoodResponse	0	0.189	275.905	3	28	Target	Neutral	True
276.905	0.3	Control	0.6897	0.004	Yes	2.83	-0.004	2.0	GoodResponse	0	0.189	n/a	3	28	ButtonPress	Neutral	True
276.917	0.5	Control	0.6897	n/a	Yes	2.83	n/a	n/a	GoodResponse	0	n/a	n/a	3	28	Blank	Neutral	True
277.418	1.45	Control	0.6897	n/a	Yes	2.83	n/a	5.0	GoodResponse	0	0.019	276.437	3	28	Feedback	Neutral	True
278.873	2.83	Control	0.6897	n/a	Yes	2.83	n/a	n/a	GoodResponse	0	0.0	n/a	3	28	ISIslide	Neutral	True
281.731	0.25	Lose2	0.6667000000000001	0.0	No	2.819	0.031	n/a	NoResponse	-1	n/a	n/a	2	29	Cue	Loss	True
281.982	3.95	Lose2	0.6667000000000001	0.0	No	2.819	0.001	n/a	NoResponse	-1	n/a	n/a	2	29	Fixation	Loss	True
285.927	0.19	Lose2	0.6667000000000001	0.004	No	2.819	-0.004	2.0	NoResponse	-1	0.26	285.187	2	29	Target	Loss	True
286.128	0.51	Lose2	0.6667000000000001	n/a	No	2.819	n/a	n/a	NoResponse	-1	n/a	n/a	2	29	Blank	Loss	True
286.187	0.3	Lose2	0.6667000000000001	0.004	No	2.819	-0.004	2.0	NoResponse	-1	0.26	n/a	2	29	ButtonPress	Loss	True
286.629	1.45	Lose2	0.6667000000000001	n/a	No	2.819	n/a	5.0	NoResponse	-1	0.027	285.656	2	29	Feedback	Loss	True
288.083	2.819	Lose2	0.6667000000000001	n/a	No	2.819	n/a	n/a	NoResponse	-1	0.0	n/a	2	29	ISIslide	Loss	True
290.925	0.25	Win2	0.6452	0.0	No	2.775	0.025	n/a	NoResponse	0	n/a	n/a	2	30	Cue	MissedWin	False
291.176	3.9	Win2	0.6452	0.0	No	2.775	0.001	n/a	NoResponse	0	n/a	n/a	2	30	Fixation	MissedWin	False
295.071	0.18	Win2	0.6452	0.004	No	2.775	-0.004	n/a	NoResponse	0	n/a	n/a	2	30	Target	MissedWin	False
295.255	0.52	Win2	0.6452	n/a	No	2.775	n/a	n/a	NoResponse	0	n/a	n/a	2	30	Blank	MissedWin	False
295.773	1.45	Win2	0.6452	n/a	No	2.775	n/a	5.0	NoResponse	0	0.008	294.781	2	30	Feedback	MissedWin	False
297.228	2.775	Win2	0.6452	n/a	No	2.775	n/a	n/a	NoResponse	0	0.0	n/a	2	30	ISIslide	MissedWin	False
300.019	0.25	Lose2	0.625	0.0	No	2.831	0.019	n/a	NoResponse	-1	n/a	n/a	1	31	Cue	Loss	True
300.27	4.05	Lose2	0.625	0.0	No	2.831	0.001	n/a	NoResponse	-1	n/a	n/a	1	31	Fixation	Loss	True
304.315	0.19	Lose2	0.625	0.004	No	2.831	-0.004	2.0	NoResponse	-1	0.217	303.532	1	31	Target	Loss	True
304.516	0.51	Lose2	0.625	n/a	No	2.831	n/a	n/a	NoResponse	-1	n/a	n/a	1	31	Blank	Loss	True
304.532	0.3	Lose2	0.625	0.004	No	2.831	-0.004	2.0	NoResponse	-1	0.217	n/a	1	31	ButtonPress	Loss	True
305.017	1.45	Lose2	0.625	n/a	No	2.831	n/a	5.0	NoResponse	-1	0.029	304.046	1	31	Feedback	Loss	True
306.472	2.831	Lose2	0.625	n/a	No	2.831	n/a	n/a	NoResponse	-1	0.0	n/a	1	31	ISIslide	Loss	True
309.33	0.25	Lose2	0.6061	0.0	No	2.62	0.03	n/a	NoResponse	-1	n/a	n/a	0	32	Cue	Loss	False
309.581	4.15	Lose2	0.6061	0.0	No	2.62	0.001	n/a	NoResponse	-1	n/a	n/a	0	32	Fixation	Loss	False
313.727	0.2	Lose2	0.6061	0.003	No	2.62	-0.003	n/a	NoResponse	-1	n/a	n/a	0	32	Target	Loss	False
313.928	0.5	Lose2	0.6061	n/a	No	2.62	n/a	n/a	NoResponse	-1	n/a	n/a	0	32	Blank	Loss	False
314.429	1.45	Lose2	0.6061	n/a	No	2.62	n/a	5.0	NoResponse	-1	0.031	313.46	0	32	Feedback	Loss	False
315.883	2.62	Lose2	0.6061	n/a	No	2.62	n/a	n/a	NoResponse	-1	0.0	n/a	0	32	ISIslide	Loss	False
318.525	0.25	Win2	0.5882000000000001	0.0	No	2.675	0.025	n/a	NoResponse	0	n/a	n/a	0	33	Cue	MissedWin	True
318.775	4.0	Win2	0.5882000000000001	0.0	No	2.675	0.0	n/a	NoResponse	0	n/a	n/a	0	33	Fixation	MissedWin	True
322.771	0.21	Win2	0.5882000000000001	0.004	No	2.675	-0.004	2.0	NoResponse	0	0.231	322.002	0	33	Target	MissedWin	True
322.988	0.49	Win2	0.5882000000000001	n/a	No	2.675	n/a	n/a	NoResponse	0	n/a	n/a	0	33	Blank	MissedWin	True
323.002	0.3	Win2	0.5882000000000001	0.004	No	2.675	-0.004	2.0	NoResponse	0	0.231	n/a	0	33	ButtonPress	MissedWin	True
323.473	1.45	Win2	0.5882000000000001	n/a	No	2.675	n/a	5.0	NoResponse	0	0.012	322.485	0	33	Feedback	MissedWin	True
324.927	2.675	Win2	0.5882000000000001	n/a	No	2.675	n/a	n/a	NoResponse	0	0.0	n/a	0	33	ISIslide	MissedWin	True
327.618	0.25	Lose2	0.5714	0.001	No	2.632	0.018	n/a	NoResponse	-1	n/a	n/a	-1	34	Cue	Loss	False
327.869	4.05	Lose2	0.5714	0.0	No	2.632	0.001	2.0	NoResponse	-1	3.787	330.656	-1	34	Fixation	Loss	False
331.656	0.3	Lose2	0.5714	0.0	No	2.632	0.001	2.0	NoResponse	-1	3.787	n/a	-1	34	ButtonPress	Loss	False
331.915	0.22	Lose2	0.5714	0.003	No	2.632	-0.003	2.0	NoResponse	-1	0.242	331.157	-1	34	Target	Loss	False
332.149	0.48	Lose2	0.5714	n/a	No	2.632	n/a	n/a	NoResponse	-1	n/a	n/a	-1	34	Blank	Loss	False
332.157	0.3	Lose2	0.5714	0.003	No	2.632	-0.003	2.0	NoResponse	-1	0.242	n/a	-1	34	ButtonPress	Loss	False
332.617	1.45	Lose2	0.5714	n/a	No	2.632	n/a	5.0	NoResponse	-1	0.039	331.656	-1	34	Feedback	Loss	False
334.071	2.632	Lose2	0.5714	n/a	No	2.632	n/a	n/a	NoResponse	-1	0.0	n/a	-1	34	ISIslide	Loss	False
336.729	0.25	Lose2	0.5556	0.0	No	2.671	0.029	n/a	NoResponse	-1	n/a	n/a	-2	35	Cue	Loss	True
336.98	4.0	Lose2	0.5556	0.0	No	2.671	0.001	n/a	NoResponse	-1	n/a	n/a	-2	35	Fixation	Loss	True
340.975	0.23	Lose2	0.5556	0.004	No	2.671	-0.004	2.0	NoResponse	-1	0.247	340.222	-2	35	Target	Loss	True
341.209	0.47	Lose2	0.5556	n/a	No	2.671	n/a	n/a	NoResponse	-1	n/a	n/a	-2	35	Blank	Loss	True
341.222	0.3	Lose2	0.5556	0.004	No	2.671	-0.004	2.0	NoResponse	-1	0.247	n/a	-2	35	ButtonPress	Loss	True
341.677	1.45	Lose2	0.5556	n/a	No	2.671	n/a	5.0	NoResponse	-1	0.008	340.685	-2	35	Feedback	Loss	True
343.132	2.671	Lose2	0.5556	n/a	No	2.671	n/a	n/a	NoResponse	-1	0.0	n/a	-2	35	ISIslide	Loss	True
345.823	0.25	Control	0.5676	0.0	Yes	2.677	0.023	n/a	GoodResponse	0	n/a	n/a	-2	36	Cue	Neutral	True
346.074	4.0	Control	0.5676	0.0	Yes	2.677	0.001	n/a	GoodResponse	0	n/a	n/a	-2	36	Fixation	Neutral	True
350.069	0.24	Control	0.5676	0.004	Yes	2.677	-0.004	2.0	GoodResponse	0	0.208	349.277	-2	36	Target	Neutral	True
350.277	0.3	Control	0.5676	0.004	Yes	2.677	-0.004	2.0	GoodResponse	0	0.208	n/a	-2	36	ButtonPress	Neutral	True
350.32	0.46	Control	0.5676	n/a	Yes	2.677	n/a	n/a	GoodResponse	0	n/a	n/a	-2	36	Blank	Neutral	True
350.771	1.45	Control	0.5676	n/a	Yes	2.677	n/a	5.0	GoodResponse	0	0.03	349.801	-2	36	Feedback	Neutral	True
352.225	2.677	Control	0.5676	n/a	Yes	2.677	n/a	n/a	GoodResponse	0	0.0	n/a	-2	36	ISIslide	Neutral	True
354.917	0.25	Win2	0.5789	0.0	Yes	2.883	0.017	n/a	GoodResponse	1	n/a	n/a	-1	37	Cue	Win	True
355.168	4.0	Win2	0.5789	0.0	Yes	2.883	0.001	n/a	GoodResponse	1	n/a	n/a	-1	37	Fixation	Win	True
359.163	0.25	Win2	0.5789	0.004	Yes	2.883	-0.004	2.0	GoodResponse	1	0.248	358.411	-1	37	Target	Win	True
359.411	0.3	Win2	0.5789	0.004	Yes	2.883	-0.004	2.0	GoodResponse	1	0.248	n/a	-1	37	ButtonPress	Win	True
359.414	0.45	Win2	0.5789	n/a	Yes	2.883	n/a	n/a	GoodResponse	1	n/a	n/a	-1	37	Blank	Win	True
359.865	1.45	Win2	0.5789	n/a	Yes	2.883	n/a	5.0	GoodResponse	1	0.01	358.875	-1	37	Feedback	Win	True
361.319	2.883	Win2	0.5789	n/a	Yes	2.883	n/a	n/a	GoodResponse	1	0.0	n/a	-1	37	ISIslide	Win	True
364.228	0.25	Lose2	0.5640999999999999	0.0	No	2.822	0.028	n/a	NoResponse	-1	n/a	n/a	-2	38	Cue	Loss	True
364.479	3.95	Lose2	0.5640999999999999	0.0	No	2.822	0.001	n/a	NoResponse	-1	n/a	n/a	-2	38	Fixation	Loss	True
368.424	0.26	Lose2	0.5640999999999999	0.004	No	2.822	-0.004	2.0	NoResponse	-1	0.336	367.76	-2	38	Target	Loss	True
368.691	0.44	Lose2	0.5640999999999999	n/a	No	2.822	n/a	n/a	NoResponse	-1	n/a	n/a	-2	38	Blank	Loss	True
368.76	0.3	Lose2	0.5640999999999999	0.004	No	2.822	-0.004	2.0	NoResponse	-1	0.336	n/a	-2	38	ButtonPress	Loss	True
369.126	1.45	Lose2	0.5640999999999999	n/a	No	2.822	n/a	5.0	NoResponse	-1	0.017	368.143	-2	38	Feedback	Loss	True
370.58	2.822	Lose2	0.5640999999999999	n/a	No	2.822	n/a	n/a	NoResponse	-1	0.0	n/a	-2	38	ISIslide	Loss	True
373.422	0.25	Win2	0.575	0.0	Yes	2.978	0.022	n/a	GoodResponse	1	n/a	n/a	-1	39	Cue	Win	True
373.673	4.1	Win2	0.575	0.0	Yes	2.978	0.001	n/a	GoodResponse	1	n/a	n/a	-1	39	Fixation	Win	True
377.769	0.27	Win2	0.575	0.003	Yes	2.978	-0.003	2.0	GoodResponse	1	0.169	376.938	-1	39	Target	Win	True
377.938	0.3	Win2	0.575	0.003	Yes	2.978	-0.003	2.0	GoodResponse	1	0.169	n/a	-1	39	ButtonPress	Win	True
378.053	0.43	Win2	0.575	n/a	Yes	2.978	n/a	n/a	GoodResponse	1	n/a	n/a	-1	39	Blank	Win	True
378.471	1.45	Win2	0.575	n/a	Yes	2.978	n/a	5.0	GoodResponse	1	0.038	377.509	-1	39	Feedback	Win	True
379.925	2.978	Win2	0.575	n/a	Yes	2.978	n/a	n/a	GoodResponse	1	0.0	n/a	-1	39	ISIslide	Win	True
382.917	0.25	Win2	0.5854	0.0	Yes	2.733	0.017	n/a	GoodResponse	1	n/a	n/a	0	40	Cue	Win	True
383.168	3.95	Win2	0.5854	0.0	Yes	2.733	0.001	n/a	GoodResponse	1	n/a	n/a	0	40	Fixation	Win	True
387.113	0.28	Win2	0.5854	0.004	Yes	2.733	-0.004	2.0	GoodResponse	1	0.154	386.267	0	40	Target	Win	True
387.267	0.3	Win2	0.5854	0.004	Yes	2.733	-0.004	2.0	GoodResponse	1	0.154	n/a	0	40	ButtonPress	Win	True
387.397	0.42	Win2	0.5854	n/a	Yes	2.733	n/a	n/a	GoodResponse	1	n/a	n/a	0	40	Blank	Win	True
387.815	1.45	Win2	0.5854	n/a	Yes	2.733	n/a	5.0	GoodResponse	1	0.011	386.826	0	40	Feedback	Win	True
389.27	2.733	Win2	0.5854	n/a	Yes	2.733	n/a	n/a	GoodResponse	1	0.0	n/a	0	40	ISIslide	Win	True
392.028	0.25	Win2	0.5952000000000001	0.0	Yes	2.772	0.028	n/a	GoodResponse	1	n/a	n/a	1	41	Cue	Win	True
392.279	3.9	Win2	0.5952000000000001	0.0	Yes	2.772	0.001	n/a	GoodResponse	1	n/a	n/a	1	41	Fixation	Win	True
396.174	0.29	Win2	0.5952000000000001	0.004	Yes	2.772	-0.004	2.0	GoodResponse	1	0.231	395.405	1	41	Target	Win	True
396.405	0.3	Win2	0.5952000000000001	0.004	Yes	2.772	-0.004	2.0	GoodResponse	1	0.231	n/a	1	41	ButtonPress	Win	True
396.475	0.41	Win2	0.5952000000000001	n/a	Yes	2.772	n/a	n/a	GoodResponse	1	n/a	n/a	1	41	Blank	Win	True
396.876	1.45	Win2	0.5952000000000001	n/a	Yes	2.772	n/a	5.0	GoodResponse	1	0.022	395.898	1	41	Feedback	Win	True
398.33	2.772	Win2	0.5952000000000001	n/a	Yes	2.772	n/a	n/a	GoodResponse	1	0.0	n/a	1	41	ISIslide	Win	True
401.122	0.25	Control	0.5814	0.0	No	2.928	0.022	n/a	PrematurePress	0	n/a	n/a	1	42	Cue	Neutral	True
401.373	3.85	Control	0.5814	0.0	No	2.928	0.001	n/a	PrematurePress	0	n/a	n/a	1	42	Fixation	Neutral	True
405.234	0.3	Control	0.5814	0.0	No	2.928	0.012	2.0	PrematurePress	0	0.052	404.286	1	42	Target	Neutral	True
405.286	0.3	Control	0.5814	0.0	No	2.928	0.012	2.0	PrematurePress	0	0.052	n/a	1	42	ButtonPress	Neutral	True
405.518	0.4	Control	0.5814	n/a	No	2.928	n/a	n/a	PrematurePress	0	n/a	n/a	1	42	Blank	Neutral	True
405.92	1.45	Control	0.5814	n/a	No	2.928	n/a	5.0	PrematurePress	0	0.008	404.928	1	42	Feedback	Neutral	True
407.374	2.928	Control	0.5814	n/a	No	2.928	n/a	n/a	PrematurePress	0	0.0	n/a	1	42	ISIslide	Neutral	True
410.316	0.25	Win2	0.5909	0.0	Yes	3.184	0.016	n/a	GoodResponse	1	n/a	n/a	2	43	Cue	Win	True
410.567	4.0	Win2	0.5909	0.0	Yes	3.184	0.001	n/a	GoodResponse	1	n/a	n/a	2	43	Fixation	Win	True
414.562	0.31	Win2	0.5909	0.004	Yes	3.184	-0.004	2.0	GoodResponse	1	0.229	413.791	2	43	Target	Win	True
414.791	0.3	Win2	0.5909	0.004	Yes	3.184	-0.004	2.0	GoodResponse	1	0.229	n/a	2	43	ButtonPress	Win	True
414.88	0.39	Win2	0.5909	n/a	Yes	3.184	n/a	n/a	GoodResponse	1	n/a	n/a	2	43	Blank	Win	True
415.264	1.45	Win2	0.5909	n/a	Yes	3.184	n/a	5.0	GoodResponse	1	0.025	414.289	2	43	Feedback	Win	True
416.719	3.184	Win2	0.5909	n/a	Yes	3.184	n/a	n/a	GoodResponse	1	0.0	n/a	2	43	ISIslide	Win	True
419.928	0.25	Win2	0.6	0.0	Yes	2.972	0.028	n/a	GoodResponse	1	n/a	n/a	3	44	Cue	Win	True
420.179	4.0	Win2	0.6	0.0	Yes	2.972	0.001	n/a	GoodResponse	1	n/a	n/a	3	44	Fixation	Win	True
424.174	0.32	Win2	0.6	0.004	Yes	2.972	-0.004	2.0	GoodResponse	1	0.274	423.448	3	44	Target	Win	True
424.448	0.3	Win2	0.6	0.004	Yes	2.972	-0.004	2.0	GoodResponse	1	0.274	n/a	3	44	ButtonPress	Win	True
424.508	0.38	Win2	0.6	n/a	Yes	2.972	n/a	n/a	GoodResponse	1	n/a	n/a	3	44	Blank	Win	True
424.876	1.45	Win2	0.6	n/a	Yes	2.972	n/a	5.0	GoodResponse	1	0.023	423.899	3	44	Feedback	Win	True
426.331	2.972	Win2	0.6	n/a	Yes	2.972	n/a	n/a	GoodResponse	1	0.0	n/a	3	44	ISIslide	Win	True
429.323	0.25	Control	0.6087	0.0	Yes	2.877	0.023	n/a	GoodResponse	0	n/a	n/a	3	45	Cue	Neutral	True
429.574	4.1	Control	0.6087	0.0	Yes	2.877	0.001	n/a	GoodResponse	0	n/a	n/a	3	45	Fixation	Neutral	True
433.669	0.33	Control	0.6087	0.004	Yes	2.877	-0.004	2.0	GoodResponse	0	0.293	432.962	3	45	Target	Neutral	True
433.962	0.3	Control	0.6087	0.004	Yes	2.877	-0.004	2.0	GoodResponse	0	0.293	n/a	3	45	ButtonPress	Neutral	True
434.004	0.37	Control	0.6087	n/a	Yes	2.877	n/a	n/a	GoodResponse	0	n/a	n/a	3	45	Blank	Neutral	True
434.371	1.45	Control	0.6087	n/a	Yes	2.877	n/a	5.0	GoodResponse	0	0.04	433.411	3	45	Feedback	Neutral	True
435.826	2.877	Control	0.6087	n/a	Yes	2.877	n/a	n/a	GoodResponse	0	0.0	n/a	3	45	ISIslide	Neutral	True
438.718	0.25	Lose2	0.617	0.0	Yes	3.382	0.018	n/a	GoodResponse	0	n/a	n/a	3	46	Cue	AvoidedLoss	True
438.968	4.0	Lose2	0.617	0.001	Yes	3.382	0.0	n/a	GoodResponse	0	n/a	n/a	3	46	Fixation	AvoidedLoss	True
442.964	0.34	Lose2	0.617	0.004	Yes	3.382	-0.004	2.0	GoodResponse	0	0.213	442.177	3	46	Target	AvoidedLoss	True
443.177	0.3	Lose2	0.617	0.004	Yes	3.382	-0.004	2.0	GoodResponse	0	0.213	n/a	3	46	ButtonPress	AvoidedLoss	True
443.315	0.36	Lose2	0.617	n/a	Yes	3.382	n/a	n/a	GoodResponse	0	n/a	n/a	3	46	Blank	AvoidedLoss	True
443.666	1.45	Lose2	0.617	n/a	Yes	3.382	n/a	5.0	GoodResponse	0	0.013	442.679	3	46	Feedback	AvoidedLoss	True
445.12	3.382	Lose2	0.617	n/a	Yes	3.382	n/a	n/a	GoodResponse	0	0.0	n/a	3	46	ISIslide	AvoidedLoss	True
448.53	0.25	Lose2	0.625	0.001	Yes	2.67	0.03	n/a	GoodResponse	0	n/a	n/a	3	47	Cue	AvoidedLoss	True
448.781	4.0	Lose2	0.625	0.0	Yes	2.67	0.001	n/a	GoodResponse	0	n/a	n/a	3	47	Fixation	AvoidedLoss	True
452.776	0.35	Lose2	0.625	0.004	Yes	2.67	-0.004	2.0	GoodResponse	0	0.229	452.005	3	47	Target	AvoidedLoss	True
453.005	0.3	Lose2	0.625	0.004	Yes	2.67	-0.004	2.0	GoodResponse	0	0.229	n/a	3	47	ButtonPress	AvoidedLoss	True
453.127	0.35	Lose2	0.625	n/a	Yes	2.67	n/a	n/a	GoodResponse	0	n/a	n/a	3	47	Blank	AvoidedLoss	True
453.479	1.45	Lose2	0.625	n/a	Yes	2.67	n/a	5.0	GoodResponse	0	0.007	452.486	3	47	Feedback	AvoidedLoss	True
454.933	2.67	Lose2	0.625	n/a	Yes	2.67	n/a	n/a	GoodResponse	0	0.0	n/a	3	47	ISIslide	AvoidedLoss	True
457.624	0.25	Lose2	0.6122	0.0	No	3.026	0.024	n/a	NoResponse	-1	n/a	n/a	2	48	Cue	Loss	True
457.875	3.95	Lose2	0.6122	0.0	No	3.026	0.001	2.0	NoResponse	-1	0.09	456.965	2	48	Fixation	Loss	True
457.965	0.3	Lose2	0.6122	0.0	No	3.026	0.001	2.0	NoResponse	-1	0.09	n/a	2	48	ButtonPress	Loss	True
461.82	0.36	Lose2	0.6122	0.004	No	3.026	-0.004	n/a	NoResponse	-1	n/a	n/a	2	48	Target	Loss	True
462.188	0.34	Lose2	0.6122	n/a	No	3.026	n/a	n/a	NoResponse	-1	n/a	n/a	2	48	Blank	Loss	True
462.522	1.45	Lose2	0.6122	n/a	No	3.026	n/a	5.0	NoResponse	-1	0.035	461.557	2	48	Feedback	Loss	True
463.977	3.026	Lose2	0.6122	n/a	No	3.026	n/a	n/a	NoResponse	-1	0.0	n/a	2	48	ISIslide	Loss	True
467.019	0.25	Control	0.62	0.0	Yes	2.881	0.019	n/a	GoodResponse	0	n/a	n/a	2	49	Cue	Neutral	True
467.27	4.0	Control	0.62	0.0	Yes	2.881	0.001	n/a	GoodResponse	0	n/a	n/a	2	49	Fixation	Neutral	True
471.265	0.37	Control	0.62	0.004	Yes	2.881	-0.004	2.0	GoodResponse	0	0.257	470.522	2	49	Target	Neutral	True
471.522	0.3	Control	0.62	0.004	Yes	2.881	-0.004	2.0	GoodResponse	0	0.257	n/a	2	49	ButtonPress	Neutral	True
471.65	0.33	Control	0.62	n/a	Yes	2.881	n/a	n/a	GoodResponse	0	n/a	n/a	2	49	Blank	Neutral	True
471.967	1.45	Control	0.62	n/a	Yes	2.881	n/a	5.0	GoodResponse	0	0.008	470.975	2	49	Feedback	Neutral	True
473.422	2.881	Control	0.62	n/a	Yes	2.881	n/a	n/a	GoodResponse	0	0.0	n/a	2	49	ISIslide	Neutral	True
476.33	0.25	Control	0.6275	0.0	Yes	2.77	0.03	n/a	GoodResponse	0	n/a	n/a	2	50	Cue	Neutral	True
476.581	4.0	Control	0.6275	0.0	Yes	2.77	0.001	n/a	GoodResponse	0	n/a	n/a	2	50	Fixation	Neutral	True
480.576	0.38	Control	0.6275	0.004	Yes	2.77	-0.004	2.0	GoodResponse	0	0.246	479.822	2	50	Target	Neutral	True
480.822	0.3	Control	0.6275	0.004	Yes	2.77	-0.004	2.0	GoodResponse	0	0.246	n/a	2	50	ButtonPress	Neutral	True
480.961	0.32	Control	0.6275	n/a	Yes	2.77	n/a	n/a	GoodResponse	0	n/a	n/a	2	50	Blank	Neutral	True
481.278	1.45	Control	0.6275	n/a	Yes	2.77	n/a	5.0	GoodResponse	0	0.01	480.288	2	50	Feedback	Neutral	True
482.733	2.77	Control	0.6275	n/a	Yes	2.77	n/a	n/a	GoodResponse	0	0.0	n/a	2	50	ISIslide	Neutral	True
485.524	0.25	Control	0.6346	0.001	Yes	2.726	0.024	n/a	GoodResponse	0	n/a	n/a	2	51	Cue	Neutral	True
485.775	3.95	Control	0.6346	0.0	Yes	2.726	0.001	n/a	GoodResponse	0	n/a	n/a	2	51	Fixation	Neutral	True
489.72	0.39	Control	0.6346	0.004	Yes	2.726	-0.004	2.0	GoodResponse	0	0.238	488.958	2	51	Target	Neutral	True
489.958	0.3	Control	0.6346	0.004	Yes	2.726	-0.004	2.0	GoodResponse	0	0.238	n/a	2	51	ButtonPress	Neutral	True
490.122	0.31	Control	0.6346	n/a	Yes	2.726	n/a	n/a	GoodResponse	0	n/a	n/a	2	51	Blank	Neutral	True
490.422	1.45	Control	0.6346	n/a	Yes	2.726	n/a	5.0	GoodResponse	0	0.037	489.459	2	51	Feedback	Neutral	True
491.877	2.726	Control	0.6346	n/a	Yes	2.726	n/a	n/a	GoodResponse	0	0.0	n/a	2	51	ISIslide	Neutral	True
494.618	0.25	Control	0.6415000000000001	0.0	Yes	2.632	0.018	n/a	GoodResponse	0	n/a	n/a	2	52	Cue	Neutral	True
494.869	4.05	Control	0.6415000000000001	0.0	Yes	2.632	0.001	n/a	GoodResponse	0	n/a	n/a	2	52	Fixation	Neutral	True
498.915	0.4	Control	0.6415000000000001	0.003	Yes	2.632	-0.003	2.0	GoodResponse	0	0.254	498.169	2	52	Target	Neutral	True
499.169	0.3	Control	0.6415000000000001	0.003	Yes	2.632	-0.003	2.0	GoodResponse	0	0.254	n/a	2	52	ButtonPress	Neutral	True
499.316	0.3	Control	0.6415000000000001	n/a	Yes	2.632	n/a	n/a	GoodResponse	0	n/a	n/a	2	52	Blank	Neutral	True
499.617	1.45	Control	0.6415000000000001	n/a	Yes	2.632	n/a	5.0	GoodResponse	0	0.012	498.629	2	52	Feedback	Neutral	True
501.071	2.632	Control	0.6415000000000001	n/a	Yes	2.632	n/a	n/a	GoodResponse	0	0.0	n/a	2	52	ISIslide	Neutral	True
503.729	0.25	Win2	0.6481	0.0	Yes	2.921	0.029	n/a	GoodResponse	1	n/a	n/a	3	53	Cue	Win	True
503.98	4.05	Win2	0.6481	0.0	Yes	2.921	0.001	n/a	GoodResponse	1	n/a	n/a	3	53	Fixation	Win	True
508.025	0.41	Win2	0.6481	0.004	Yes	2.921	-0.004	2.0	GoodResponse	1	0.221	507.246	3	53	Target	Win	True
508.246	0.3	Win2	0.6481	0.004	Yes	2.921	-0.004	2.0	GoodResponse	1	0.221	n/a	3	53	ButtonPress	Win	True
508.443	0.29	Win2	0.6481	n/a	Yes	2.921	n/a	n/a	GoodResponse	1	n/a	n/a	3	53	Blank	Win	True
508.727	1.45	Win2	0.6481	n/a	Yes	2.921	n/a	5.0	GoodResponse	1	0.024	507.751	3	53	Feedback	Win	True
510.182	2.921	Win2	0.6481	n/a	Yes	2.921	n/a	n/a	GoodResponse	1	0.0	n/a	3	53	ISIslide	Win	True
513.124	0.25	Win2	0.6545000000000001	0.0	Yes	2.726	0.024	n/a	GoodResponse	1	n/a	n/a	4	54	Cue	Win	True
513.375	3.95	Win2	0.6545000000000001	0.0	Yes	2.726	0.001	n/a	GoodResponse	1	n/a	n/a	4	54	Fixation	Win	True
517.32	0.42	Win2	0.6545000000000001	0.004	Yes	2.726	-0.004	2.0	GoodResponse	1	0.282	516.602	4	54	Target	Win	True
517.602	0.3	Win2	0.6545000000000001	0.004	Yes	2.726	-0.004	2.0	GoodResponse	1	0.282	n/a	4	54	ButtonPress	Win	True
517.754	0.28	Win2	0.6545000000000001	n/a	Yes	2.726	n/a	n/a	GoodResponse	1	n/a	n/a	4	54	Blank	Win	True
518.022	1.45	Win2	0.6545000000000001	n/a	Yes	2.726	n/a	5.0	GoodResponse	1	0.046	517.068	4	54	Feedback	Win	True
519.476	2.726	Win2	0.6545000000000001	n/a	Yes	2.726	n/a	n/a	GoodResponse	1	0.0	n/a	4	54	ISIslide	Win	True
522.218	0.25	Control	0.6607	0.0	Yes	3.032	0.018	n/a	GoodResponse	0	n/a	n/a	4	55	Cue	Neutral	True
522.468	3.95	Control	0.6607	0.0	Yes	3.032	0.0	n/a	GoodResponse	0	n/a	n/a	4	55	Fixation	Neutral	True
526.414	0.43	Control	0.6607	0.004	Yes	3.032	-0.004	2.0	GoodResponse	0	0.234	525.648	4	55	Target	Neutral	True
526.648	0.3	Control	0.6607	0.004	Yes	3.032	-0.004	2.0	GoodResponse	0	0.234	n/a	4	55	ButtonPress	Neutral	True
526.848	0.27	Control	0.6607	n/a	Yes	3.032	n/a	n/a	GoodResponse	0	n/a	n/a	4	55	Blank	Neutral	True
527.116	1.45	Control	0.6607	n/a	Yes	3.032	n/a	5.0	GoodResponse	0	0.026	526.142	4	55	Feedback	Neutral	True
528.57	3.032	Control	0.6607	n/a	Yes	3.032	n/a	n/a	GoodResponse	0	0.0	n/a	4	55	ISIslide	Neutral	True
531.629	0.25	Control	0.6667000000000001	0.0	Yes	2.821	0.029	n/a	GoodResponse	0	n/a	n/a	4	56	Cue	Neutral	True
531.88	3.95	Control	0.6667000000000001	0.0	Yes	2.821	0.001	n/a	GoodResponse	0	n/a	n/a	4	56	Fixation	Neutral	True
535.825	0.43	Control	0.6667000000000001	0.004	Yes	2.821	-0.004	2.0	GoodResponse	0	0.22	535.045	4	56	Target	Neutral	True
536.045	0.3	Control	0.6667000000000001	0.004	Yes	2.821	-0.004	2.0	GoodResponse	0	0.22	n/a	4	56	ButtonPress	Neutral	True
536.26	0.27	Control	0.6667000000000001	n/a	Yes	2.821	n/a	n/a	GoodResponse	0	n/a	n/a	4	56	Blank	Neutral	True
536.527	1.45	Control	0.6667000000000001	n/a	Yes	2.821	n/a	5.0	GoodResponse	0	0.029	535.556	4	56	Feedback	Neutral	True
537.981	2.821	Control	0.6667000000000001	n/a	Yes	2.821	n/a	n/a	GoodResponse	0	0.0	n/a	4	56	ISIslide	Neutral	True
540.823	0.25	Control	0.6724	0.0	Yes	3.477	0.023	n/a	GoodResponse	0	n/a	n/a	4	57	Cue	Neutral	True
541.074	4.0	Control	0.6724	0.0	Yes	3.477	0.001	n/a	GoodResponse	0	n/a	n/a	4	57	Fixation	Neutral	True
545.069	0.42	Control	0.6724	0.004	Yes	3.477	-0.004	2.0	GoodResponse	0	0.229	544.298	4	57	Target	Neutral	True
545.298	0.3	Control	0.6724	0.004	Yes	3.477	-0.004	2.0	GoodResponse	0	0.229	n/a	4	57	ButtonPress	Neutral	True
545.504	0.28	Control	0.6724	n/a	Yes	3.477	n/a	n/a	GoodResponse	0	n/a	n/a	4	57	Blank	Neutral	True
545.771	1.45	Control	0.6724	n/a	Yes	3.477	n/a	5.0	GoodResponse	0	0.005	544.776	4	57	Feedback	Neutral	True
547.226	3.477	Control	0.6724	n/a	Yes	3.477	n/a	n/a	GoodResponse	0	0.0	n/a	4	57	ISIslide	Neutral	True
550.72	0.25	Win2	0.6609999999999999	0.0	No	2.73	0.02	n/a	NoResponse	0	n/a	n/a	4	58	Cue	MissedWin	False
550.97	4.05	Win2	0.6609999999999999	0.0	No	2.73	0.0	n/a	NoResponse	0	n/a	n/a	4	58	Fixation	MissedWin	False
555.016	0.41	Win2	0.6609999999999999	0.004	No	2.73	-0.004	n/a	NoResponse	0	n/a	n/a	4	58	Target	MissedWin	False
555.434	0.29	Win2	0.6609999999999999	n/a	No	2.73	n/a	n/a	NoResponse	0	n/a	n/a	4	58	Blank	MissedWin	False
555.718	1.45	Win2	0.6609999999999999	n/a	No	2.73	n/a	5.0	NoResponse	0	0.008	554.726	4	58	Feedback	MissedWin	False
557.172	2.73	Win2	0.6609999999999999	n/a	No	2.73	n/a	n/a	NoResponse	0	0.0	n/a	4	58	ISIslide	MissedWin	False
559.914	0.25	Lose2	0.6667000000000001	0.0	Yes	2.686	0.014	n/a	GoodResponse	0	n/a	n/a	4	59	Cue	AvoidedLoss	True
560.165	4.0	Lose2	0.6667000000000001	0.0	Yes	2.686	0.001	n/a	GoodResponse	0	n/a	n/a	4	59	Fixation	AvoidedLoss	True
564.16	0.41	Lose2	0.6667000000000001	0.004	Yes	2.686	-0.004	2.0	GoodResponse	0	0.228	563.388	4	59	Target	AvoidedLoss	True
564.388	0.3	Lose2	0.6667000000000001	0.004	Yes	2.686	-0.004	2.0	GoodResponse	0	0.228	n/a	4	59	ButtonPress	AvoidedLoss	True
564.578	0.29	Lose2	0.6667000000000001	n/a	Yes	2.686	n/a	n/a	GoodResponse	0	n/a	n/a	4	59	Blank	AvoidedLoss	True
564.862	1.45	Lose2	0.6667000000000001	n/a	Yes	2.686	n/a	5.0	GoodResponse	0	0.035	563.897	4	59	Feedback	AvoidedLoss	True
566.316	2.686	Lose2	0.6667000000000001	n/a	Yes	2.686	n/a	n/a	GoodResponse	0	0.0	n/a	4	59	ISIslide	AvoidedLoss	True
569.024	0.25	Control	0.6557	0.0	No	2.676	0.024	n/a	NoResponse	0	n/a	n/a	4	60	Cue	Neutral	False
569.275	4.0	Control	0.6557	0.0	No	2.676	0.001	n/a	NoResponse	0	n/a	n/a	4	60	Fixation	Neutral	False
573.27	0.4	Control	0.6557	0.004	No	2.676	-0.004	n/a	NoResponse	0	n/a	n/a	4	60	Target	Neutral	False
573.672	0.3	Control	0.6557	n/a	No	2.676	n/a	n/a	NoResponse	0	n/a	n/a	4	60	Blank	Neutral	False
573.973	1.45	Control	0.6557	n/a	No	2.676	n/a	5.0	NoResponse	0	0.046	573.019	4	60	Feedback	Neutral	False
575.427	2.676	Control	0.6557	n/a	No	2.676	n/a	n/a	NoResponse	0	0.0	n/a	4	60	ISIslide	Neutral	False
578.118	0.25	Lose2	0.6452	0.0	No	2.982	0.018	n/a	NoResponse	-1	n/a	n/a	3	61	Cue	Loss	True
578.369	4.0	Lose2	0.6452	0.0	No	2.982	0.001	n/a	NoResponse	-1	n/a	n/a	3	61	Fixation	Loss	True
582.364	0.4	Lose2	0.6452	0.004	No	2.982	-0.004	2.0	NoResponse	-1	0.409	581.773	3	61	Target	Loss	True
582.766	0.3	Lose2	0.6452	n/a	No	2.982	n/a	n/a	NoResponse	-1	n/a	n/a	3	61	Blank	Loss	True
582.773	0.3	Lose2	0.6452	0.004	No	2.982	-0.004	2.0	NoResponse	-1	0.409	n/a	3	61	ButtonPress	Loss	True
583.066	1.45	Lose2	0.6452	n/a	No	2.982	n/a	5.0	NoResponse	-1	0.026	582.092	3	61	Feedback	Loss	True
584.521	2.982	Lose2	0.6452	n/a	No	2.982	n/a	n/a	NoResponse	-1	0.0	n/a	3	61	ISIslide	Loss	True
587.513	0.25	Lose2	0.6507999999999999	0.0	Yes	2.887	0.013	n/a	GoodResponse	0	n/a	n/a	3	62	Cue	AvoidedLoss	True
587.764	3.9	Lose2	0.6507999999999999	0.0	Yes	2.887	0.001	n/a	GoodResponse	0	n/a	n/a	3	62	Fixation	AvoidedLoss	True
591.659	0.41	Lose2	0.6507999999999999	0.004	Yes	2.887	-0.004	2.0	GoodResponse	0	0.286	590.945	3	62	Target	AvoidedLoss	True
591.945	0.3	Lose2	0.6507999999999999	0.004	Yes	2.887	-0.004	2.0	GoodResponse	0	0.286	n/a	3	62	ButtonPress	AvoidedLoss	True
592.077	0.29	Lose2	0.6507999999999999	n/a	Yes	2.887	n/a	n/a	GoodResponse	0	n/a	n/a	3	62	Blank	AvoidedLoss	True
592.361	1.45	Lose2	0.6507999999999999	n/a	Yes	2.887	n/a	5.0	GoodResponse	0	0.049	591.41	3	62	Feedback	AvoidedLoss	True
593.815	2.887	Lose2	0.6507999999999999	n/a	Yes	2.887	n/a	n/a	GoodResponse	0	0.0	n/a	3	62	ISIslide	AvoidedLoss	True
596.724	0.25	Lose2	0.6562	0.0	Yes	2.626	0.024	n/a	GoodResponse	0	n/a	n/a	3	63	Cue	AvoidedLoss	True
596.975	4.05	Lose2	0.6562	0.0	Yes	2.626	0.001	n/a	GoodResponse	0	n/a	n/a	3	63	Fixation	AvoidedLoss	True
601.02	0.42	Lose2	0.6562	0.004	Yes	2.626	-0.004	2.0	GoodResponse	0	0.276	600.296	3	63	Target	AvoidedLoss	True
601.296	0.3	Lose2	0.6562	0.004	Yes	2.626	-0.004	2.0	GoodResponse	0	0.276	n/a	3	63	ButtonPress	AvoidedLoss	True
601.455	0.28	Lose2	0.6562	n/a	Yes	2.626	n/a	n/a	GoodResponse	0	n/a	n/a	3	63	Blank	AvoidedLoss	True
601.722	1.45	Lose2	0.6562	n/a	Yes	2.626	n/a	5.0	GoodResponse	0	0.005	600.727	3	63	Feedback	AvoidedLoss	True
603.177	2.626	Lose2	0.6562	n/a	Yes	2.626	n/a	n/a	GoodResponse	0	0.0	n/a	3	63	ISIslide	AvoidedLoss	True
605.818	0.25	Win2	0.6615000000000001	0.0	Yes	3.132	0.018	n/a	GoodResponse	1	n/a	n/a	4	64	Cue	Win	True
606.069	4.15	Win2	0.6615000000000001	0.0	Yes	3.132	0.001	n/a	GoodResponse	1	n/a	n/a	4	64	Fixation	Win	True
610.214	0.42	Win2	0.6615000000000001	0.004	Yes	3.132	-0.004	2.0	GoodResponse	1	0.222	609.436	4	64	Target	Win	True
610.436	0.3	Win2	0.6615000000000001	0.004	Yes	3.132	-0.004	2.0	GoodResponse	1	0.222	n/a	4	64	ButtonPress	Win	True
610.649	0.28	Win2	0.6615000000000001	n/a	Yes	3.132	n/a	n/a	GoodResponse	1	n/a	n/a	4	64	Blank	Win	True
610.916	1.45	Win2	0.6615000000000001	n/a	Yes	3.132	n/a	5.0	GoodResponse	1	0.029	609.945	4	64	Feedback	Win	True
612.371	3.132	Win2	0.6615000000000001	n/a	Yes	3.132	n/a	n/a	GoodResponse	1	0.0	n/a	4	64	ISIslide	Win	True
615.514	0.25	Control	0.6667000000000001	0.0	Yes	2.786	0.014	n/a	GoodResponse	0	n/a	n/a	4	65	Cue	Neutral	True
615.764	4.0	Control	0.6667000000000001	0.0	Yes	2.786	0.0	n/a	GoodResponse	0	n/a	n/a	4	65	Fixation	Neutral	True
619.76	0.42	Control	0.6667000000000001	0.004	Yes	2.786	-0.004	2.0	GoodResponse	0	0.243	619.003	4	65	Target	Neutral	True
620.003	0.3	Control	0.6667000000000001	0.004	Yes	2.786	-0.004	2.0	GoodResponse	0	0.243	n/a	4	65	ButtonPress	Neutral	True
620.194	0.28	Control	0.6667000000000001	n/a	Yes	2.786	n/a	n/a	GoodResponse	0	n/a	n/a	4	65	Blank	Neutral	True
620.462	1.45	Control	0.6667000000000001	n/a	Yes	2.786	n/a	5.0	GoodResponse	0	0.045	619.507	4	65	Feedback	Neutral	True
621.916	2.786	Control	0.6667000000000001	n/a	Yes	2.786	n/a	n/a	GoodResponse	0	0.0	n/a	4	65	ISIslide	Neutral	True
624.724	0.25	Win2	0.6716	0.001	Yes	2.776	0.024	n/a	GoodResponse	1	n/a	n/a	5	66	Cue	Win	True
624.975	3.9	Win2	0.6716	0.0	Yes	2.776	0.001	n/a	GoodResponse	1	n/a	n/a	5	66	Fixation	Win	True
628.87	0.41	Win2	0.6716	0.004	Yes	2.776	-0.004	2.0	GoodResponse	1	0.243	628.113	5	66	Target	Win	True
629.113	0.3	Win2	0.6716	0.004	Yes	2.776	-0.004	2.0	GoodResponse	1	0.243	n/a	5	66	ButtonPress	Win	True
629.288	0.29	Win2	0.6716	n/a	Yes	2.776	n/a	n/a	GoodResponse	1	n/a	n/a	5	66	Blank	Win	True
629.572	1.45	Win2	0.6716	n/a	Yes	2.776	n/a	5.0	GoodResponse	1	0.008	628.58	5	66	Feedback	Win	True
631.027	2.776	Win2	0.6716	n/a	Yes	2.776	n/a	n/a	GoodResponse	1	0.0	n/a	5	66	ISIslide	Win	True
633.818	0.25	Control	0.6765000000000001	0.0	Yes	2.732	0.018	n/a	GoodResponse	0	n/a	n/a	5	67	Cue	Neutral	True
634.069	3.95	Control	0.6765000000000001	0.0	Yes	2.732	0.001	n/a	GoodResponse	0	n/a	n/a	5	67	Fixation	Neutral	True
638.014	0.4	Control	0.6765000000000001	0.004	Yes	2.732	-0.004	2.0	GoodResponse	0	0.271	637.285	5	67	Target	Neutral	True
638.285	0.3	Control	0.6765000000000001	0.004	Yes	2.732	-0.004	2.0	GoodResponse	0	0.271	n/a	5	67	ButtonPress	Neutral	True
638.415	0.3	Control	0.6765000000000001	n/a	Yes	2.732	n/a	n/a	GoodResponse	0	n/a	n/a	5	67	Blank	Neutral	True
638.716	1.45	Control	0.6765000000000001	n/a	Yes	2.732	n/a	5.0	GoodResponse	0	0.035	637.751	5	67	Feedback	Neutral	True
640.171	2.732	Control	0.6765000000000001	n/a	Yes	2.732	n/a	n/a	GoodResponse	0	0.0	n/a	5	67	ISIslide	Neutral	True
642.929	0.25	Win2	0.6812	0.0	Yes	3.071	0.029	n/a	GoodResponse	1	n/a	n/a	6	68	Cue	Win	True
643.18	4.0	Win2	0.6812	0.0	Yes	3.071	0.001	n/a	GoodResponse	1	n/a	n/a	6	68	Fixation	Win	True
647.175	0.39	Win2	0.6812	0.004	Yes	3.071	-0.004	2.0	GoodResponse	1	0.269	646.444	6	68	Target	Win	True
647.444	0.3	Win2	0.6812	0.004	Yes	3.071	-0.004	2.0	GoodResponse	1	0.269	n/a	6	68	ButtonPress	Win	True
647.576	0.31	Win2	0.6812	n/a	Yes	3.071	n/a	n/a	GoodResponse	1	n/a	n/a	6	68	Blank	Win	True
647.877	1.45	Win2	0.6812	n/a	Yes	3.071	n/a	5.0	GoodResponse	1	0.043	646.92	6	68	Feedback	Win	True
649.331	3.071	Win2	0.6812	n/a	Yes	3.071	n/a	n/a	GoodResponse	1	0.0	n/a	6	68	ISIslide	Win	True
652.424	0.25	Win2	0.6714	0.0	No	3.226	0.024	n/a	NoResponse	0	n/a	n/a	6	69	Cue	MissedWin	True
652.675	3.95	Win2	0.6714	0.0	No	3.226	0.001	n/a	NoResponse	0	n/a	n/a	6	69	Fixation	MissedWin	True
656.62	0.38	Win2	0.6714	0.004	No	3.226	-0.004	2.0	NoResponse	0	0.539	656.159	6	69	Target	MissedWin	True
657.004	0.32	Win2	0.6714	n/a	No	3.226	n/a	n/a	NoResponse	0	n/a	n/a	6	69	Blank	MissedWin	True
657.159	0.3	Win2	0.6714	0.004	No	3.226	-0.004	2.0	NoResponse	0	0.539	n/a	6	69	ButtonPress	MissedWin	True
657.322	1.45	Win2	0.6714	n/a	No	3.226	n/a	5.0	NoResponse	0	0.013	656.335	6	69	Feedback	MissedWin	True
658.776	3.226	Win2	0.6714	n/a	No	3.226	n/a	n/a	NoResponse	0	0.0	n/a	6	69	ISIslide	MissedWin	True
662.019	0.25	Lose2	0.6761	0.001	Yes	3.031	0.019	n/a	GoodResponse	0	n/a	n/a	6	70	Cue	AvoidedLoss	True
662.27	4.05	Lose2	0.6761	0.0	Yes	3.031	0.001	n/a	GoodResponse	0	n/a	n/a	6	70	Fixation	AvoidedLoss	True
666.316	0.37	Lose2	0.6761	0.003	Yes	3.031	-0.003	2.0	GoodResponse	0	0.243	665.559	6	70	Target	AvoidedLoss	True
666.559	0.3	Lose2	0.6761	0.003	Yes	3.031	-0.003	2.0	GoodResponse	0	0.243	n/a	6	70	ButtonPress	AvoidedLoss	True
666.7	0.33	Lose2	0.6761	n/a	Yes	3.031	n/a	n/a	GoodResponse	0	n/a	n/a	6	70	Blank	AvoidedLoss	True
667.018	1.45	Lose2	0.6761	n/a	Yes	3.031	n/a	5.0	GoodResponse	0	0.025	666.043	6	70	Feedback	AvoidedLoss	True
668.472	3.031	Lose2	0.6761	n/a	Yes	3.031	n/a	n/a	GoodResponse	0	0.0	n/a	6	70	ISIslide	AvoidedLoss	True
671.515	0.25	Win2	0.6667000000000001	0.0	No	2.735	0.015	n/a	NoResponse	0	n/a	n/a	6	71	Cue	MissedWin	False
671.765	4.05	Win2	0.6667000000000001	0.0	No	2.735	0.0	n/a	NoResponse	0	n/a	n/a	6	71	Fixation	MissedWin	False
675.811	0.36	Win2	0.6667000000000001	0.004	No	2.735	-0.004	n/a	NoResponse	0	n/a	n/a	6	71	Target	MissedWin	False
676.178	0.34	Win2	0.6667000000000001	n/a	No	2.735	n/a	n/a	NoResponse	0	n/a	n/a	6	71	Blank	MissedWin	False
676.513	1.45	Win2	0.6667000000000001	n/a	No	2.735	n/a	5.0	NoResponse	0	0.042	675.555	6	71	Feedback	MissedWin	False
677.967	2.735	Win2	0.6667000000000001	n/a	No	2.735	n/a	n/a	NoResponse	0	0.0	n/a	6	71	ISIslide	MissedWin	False
680.725	0.25	Win2	0.6575	0.001	No	2.775	0.025	n/a	NoResponse	0	n/a	n/a	6	72	Cue	MissedWin	False
680.976	4.1	Win2	0.6575	0.0	No	2.775	0.001	n/a	NoResponse	0	n/a	n/a	6	72	Fixation	MissedWin	False
685.072	0.35	Win2	0.6575	0.003	No	2.775	-0.003	n/a	NoResponse	0	n/a	n/a	6	72	Target	MissedWin	False
685.423	0.35	Win2	0.6575	n/a	No	2.775	n/a	n/a	NoResponse	0	n/a	n/a	6	72	Blank	MissedWin	False
685.774	1.45	Win2	0.6575	n/a	No	2.775	n/a	5.0	NoResponse	0	0.001	684.775	6	72	Feedback	MissedWin	False
687.228	2.775	Win2	0.6575	n/a	No	2.775	n/a	n/a	NoResponse	0	0.0	n/a	6	72	ISIslide	MissedWin	False
690.02	0.25	Win2	0.6622	0.0	Yes	2.68	0.02	n/a	GoodResponse	1	n/a	n/a	7	73	Cue	Win	True
690.271	4.0	Win2	0.6622	0.0	Yes	2.68	0.001	n/a	GoodResponse	1	n/a	n/a	7	73	Fixation	Win	True
694.266	0.35	Win2	0.6622	0.004	Yes	2.68	-0.004	2.0	GoodResponse	1	0.275	693.541	7	73	Target	Win	True
694.541	0.3	Win2	0.6622	0.004	Yes	2.68	-0.004	2.0	GoodResponse	1	0.275	n/a	7	73	ButtonPress	Win	True
694.617	0.35	Win2	0.6622	n/a	Yes	2.68	n/a	n/a	GoodResponse	1	n/a	n/a	7	73	Blank	Win	True
694.968	1.45	Win2	0.6622	n/a	Yes	2.68	n/a	5.0	GoodResponse	1	0.026	693.994	7	73	Feedback	Win	True
696.422	2.68	Win2	0.6622	n/a	Yes	2.68	n/a	n/a	GoodResponse	1	0.0	n/a	7	73	ISIslide	Win	True
699.114	0.25	Lose2	0.6533	0.0	No	2.636	0.014	n/a	NoResponse	-1	n/a	n/a	6	74	Cue	Loss	False
699.365	4.05	Lose2	0.6533	0.0	No	2.636	0.001	n/a	NoResponse	-1	n/a	n/a	6	74	Fixation	Loss	False
703.41	0.35	Lose2	0.6533	0.004	No	2.636	-0.004	n/a	NoResponse	-1	n/a	n/a	6	74	Target	Loss	False
703.761	0.35	Lose2	0.6533	n/a	No	2.636	n/a	n/a	NoResponse	-1	n/a	n/a	6	74	Blank	Loss	False
704.112	1.45	Lose2	0.6533	n/a	No	2.636	n/a	5.0	NoResponse	-1	0.004	703.116	6	74	Feedback	Loss	False
705.566	2.636	Lose2	0.6533	n/a	No	2.636	n/a	n/a	NoResponse	-1	0.0	n/a	6	74	ISIslide	Loss	False
708.224	0.25	Lose2	0.6446999999999999	0.0	No	2.926	0.024	n/a	NoResponse	-1	n/a	n/a	5	75	Cue	Loss	True
708.475	3.95	Lose2	0.6446999999999999	0.0	No	2.926	0.001	n/a	NoResponse	-1	n/a	n/a	5	75	Fixation	Loss	True
712.42	0.36	Lose2	0.6446999999999999	0.004	No	2.926	-0.004	2.0	NoResponse	-1	0.395	711.815	5	75	Target	Loss	True
712.788	0.34	Lose2	0.6446999999999999	n/a	No	2.926	n/a	n/a	NoResponse	-1	n/a	n/a	5	75	Blank	Loss	True
712.815	0.3	Lose2	0.6446999999999999	0.004	No	2.926	-0.004	2.0	NoResponse	-1	0.395	n/a	5	75	ButtonPress	Loss	True
713.122	1.45	Lose2	0.6446999999999999	n/a	No	2.926	n/a	5.0	NoResponse	-1	0.018	712.14	5	75	Feedback	Loss	True
714.577	2.926	Lose2	0.6446999999999999	n/a	No	2.926	n/a	n/a	NoResponse	-1	0.0	n/a	5	75	ISIslide	Loss	True
717.519	0.25	Control	0.6364	0.0	No	3.231	0.019	n/a	NoResponse	0	n/a	n/a	5	76	Cue	Neutral	False
717.77	4.05	Control	0.6364	0.0	No	3.231	0.001	n/a	NoResponse	0	n/a	n/a	5	76	Fixation	Neutral	False
721.815	0.37	Control	0.6364	0.004	No	3.231	-0.004	n/a	NoResponse	0	n/a	n/a	5	76	Target	Neutral	False
722.2	0.33	Control	0.6364	n/a	No	3.231	n/a	n/a	NoResponse	0	n/a	n/a	5	76	Blank	Neutral	False
722.517	1.45	Control	0.6364	n/a	No	3.231	n/a	5.0	NoResponse	0	0.037	721.554	5	76	Feedback	Neutral	False
723.972	3.231	Control	0.6364	n/a	No	3.231	n/a	2.0	NoResponse	0	0.055	n/a	5	76	ISIslide	Neutral	False
727.198	0.25	Lose2	0.6282	0.0	No	2.602	-0.002	n/a	PrematurePress	-1	n/a	n/a	4	77	Cue	Loss	True
727.449	3.95	Lose2	0.6282	0.0	No	2.602	0.001	n/a	PrematurePress	-1	n/a	n/a	4	77	Fixation	Loss	True
731.394	0.38	Lose2	0.6282	0.004	No	2.602	-0.004	2.0	PrematurePress	-1	0.023	730.417	4	77	Target	Loss	True
731.417	0.3	Lose2	0.6282	0.004	No	2.602	-0.004	2.0	PrematurePress	-1	0.023	n/a	4	77	ButtonPress	Loss	True
731.778	0.32	Lose2	0.6282	n/a	No	2.602	n/a	n/a	PrematurePress	-1	n/a	n/a	4	77	Blank	Loss	True
732.096	1.45	Lose2	0.6282	n/a	No	2.602	n/a	5.0	PrematurePress	-1	0.02	731.116	4	77	Feedback	Loss	True
733.55	2.602	Lose2	0.6282	n/a	No	2.602	n/a	n/a	PrematurePress	-1	0.0	n/a	4	77	ISIslide	Loss	True
