onset	duration	cue_type	current_mean_accuracy	duration_error	is_hit	isi_adjusted	onset_delay	response	response_type	reward	rt	rt_time	total_reward	trial_number	trial_phase	trial_type	one_press
11.102	0.25	Control	1.0	0.0	Yes	2.948	0.002	n/a	GoodResponse	0	n/a	n/a	0	0	Cue	Neutral	True
11.353	3.85	Control	1.0	0.0	Yes	2.948	0.001	n/a	GoodResponse	0	n/a	n/a	0	0	Fixation	Neutral	True
15.198	0.4	Control	1.0	0.004	Yes	2.948	-0.004	1.0	GoodResponse	0	0.198	14.396	0	0	Target	Neutral	True
15.396	0.3	Control	1.0	0.004	Yes	2.948	-0.004	1.0	GoodResponse	0	0.198	n/a	0	0	ButtonPress	Neutral	True
15.599	0.3	Control	1.0	n/a	Yes	2.948	n/a	n/a	GoodResponse	0	n/a	n/a	0	0	Blank	Neutral	True
15.9	1.45	Control	1.0	n/a	Yes	2.948	n/a	5.0	GoodResponse	0	0.029	14.929	0	0	Feedback	Neutral	True
17.354	2.948	Control	1.0	n/a	Yes	2.948	n/a	n/a	GoodResponse	0	0.0	n/a	0	0	ISIslide	Neutral	True
20.33	0.25	Lose2	1.0	0.0	Yes	2.77	0.03	n/a	GoodResponse	0	n/a	n/a	0	1	Cue	AvoidedLoss	True
20.58	4.0	Lose2	1.0	0.0	Yes	2.77	0.0	n/a	GoodResponse	0	n/a	n/a	0	1	Fixation	AvoidedLoss	True
24.576	0.39	Lose2	1.0	0.004	Yes	2.77	-0.004	1.0	GoodResponse	0	0.196	23.772	0	1	Target	AvoidedLoss	True
24.772	0.3	Lose2	1.0	0.004	Yes	2.77	-0.004	1.0	GoodResponse	0	0.196	n/a	0	1	ButtonPress	AvoidedLoss	True
24.977	0.31	Lose2	1.0	n/a	Yes	2.77	n/a	n/a	GoodResponse	0	n/a	n/a	0	1	Blank	AvoidedLoss	True
25.278	1.45	Lose2	1.0	n/a	Yes	2.77	n/a	5.0	GoodResponse	0	0.016	24.294	0	1	Feedback	AvoidedLoss	True
26.732	2.77	Lose2	1.0	n/a	Yes	2.77	n/a	n/a	GoodResponse	0	0.0	n/a	0	1	ISIslide	AvoidedLoss	True
29.524	0.25	Control	1.0	0.0	Yes	2.576	0.024	n/a	GoodResponse	0	n/a	n/a	0	2	Cue	Neutral	True
29.774	4.1	Control	1.0	0.001	Yes	2.576	0.0	n/a	GoodResponse	0	n/a	n/a	0	2	Fixation	Neutral	True
33.87	0.38	Control	1.0	0.004	Yes	2.576	-0.004	1.0	GoodResponse	0	0.188	33.058	0	2	Target	Neutral	True
34.058	0.3	Control	1.0	0.004	Yes	2.576	-0.004	1.0	GoodResponse	0	0.188	n/a	0	2	ButtonPress	Neutral	True
34.255	0.32	Control	1.0	n/a	Yes	2.576	n/a	n/a	GoodResponse	0	n/a	n/a	0	2	Blank	Neutral	True
34.572	1.45	Control	1.0	n/a	Yes	2.576	n/a	5.0	GoodResponse	0	0.039	33.611	0	2	Feedback	Neutral	True
36.026	2.576	Control	1.0	n/a	Yes	2.576	n/a	n/a	GoodResponse	0	0.0	n/a	0	2	ISIslide	Neutral	True
38.684	0.25	Win2	1.0	0.001	Yes	2.766	0.084	n/a	GoodResponse	1	n/a	n/a	1	3	Cue	Win	True
38.935	3.95	Win2	1.0	0.0	Yes	2.766	0.001	n/a	GoodResponse	1	n/a	n/a	1	3	Fixation	Win	True
42.88	0.37	Win2	1.0	0.004	Yes	2.766	-0.004	1.0	GoodResponse	1	0.202	42.082	1	3	Target	Win	True
43.082	0.3	Win2	1.0	0.004	Yes	2.766	-0.004	1.0	GoodResponse	1	0.202	n/a	1	3	ButtonPress	Win	True
43.265	0.33	Win2	1.0	n/a	Yes	2.766	n/a	n/a	GoodResponse	1	n/a	n/a	1	3	Blank	Win	True
43.582	1.45	Win2	1.0	n/a	Yes	2.766	n/a	5.0	GoodResponse	1	0.005	42.587	1	3	Feedback	Win	True
45.037	2.766	Win2	1.0	n/a	Yes	2.766	n/a	n/a	GoodResponse	1	0.0	n/a	1	3	ISIslide	Win	True
47.828	0.25	Win2	1.0	0.001	Yes	3.272	0.028	n/a	GoodResponse	1	n/a	n/a	2	4	Cue	Win	True
48.079	4.0	Win2	1.0	0.0	Yes	3.272	0.001	n/a	GoodResponse	1	n/a	n/a	2	4	Fixation	Win	True
52.074	0.36	Win2	1.0	0.004	Yes	3.272	-0.004	1.0	GoodResponse	1	0.217	51.291	2	4	Target	Win	True
52.291	0.3	Win2	1.0	0.004	Yes	3.272	-0.004	1.0	GoodResponse	1	0.217	n/a	2	4	ButtonPress	Win	True
52.442	0.34	Win2	1.0	n/a	Yes	3.272	n/a	n/a	GoodResponse	1	n/a	n/a	2	4	Blank	Win	True
52.777	1.45	Win2	1.0	n/a	Yes	3.272	n/a	5.0	GoodResponse	1	0.03	51.807	2	4	Feedback	Win	True
54.231	3.272	Win2	1.0	n/a	Yes	3.272	n/a	n/a	GoodResponse	1	0.0	n/a	2	4	ISIslide	Win	True
57.524	0.25	Win2	1.0	0.0	Yes	2.776	0.024	n/a	GoodResponse	1	n/a	n/a	3	5	Cue	Win	True
57.775	4.0	Win2	1.0	0.0	Yes	2.776	0.001	n/a	GoodResponse	1	n/a	n/a	3	5	Fixation	Win	True
61.77	0.35	Win2	1.0	0.004	Yes	2.776	-0.004	1.0	GoodResponse	1	0.181	60.951	3	5	Target	Win	True
61.951	0.3	Win2	1.0	0.004	Yes	2.776	-0.004	1.0	GoodResponse	1	0.181	n/a	3	5	ButtonPress	Win	True
62.121	0.35	Win2	1.0	n/a	Yes	2.776	n/a	n/a	GoodResponse	1	n/a	n/a	3	5	Blank	Win	True
62.472	1.45	Win2	1.0	n/a	Yes	2.776	n/a	5.0	GoodResponse	1	0.041	61.513	3	5	Feedback	Win	True
63.927	2.776	Win2	1.0	n/a	Yes	2.776	n/a	n/a	GoodResponse	1	0.0	n/a	3	5	ISIslide	Win	True
66.718	0.25	Lose2	1.0	0.0	Yes	2.732	0.018	n/a	GoodResponse	0	n/a	n/a	3	6	Cue	AvoidedLoss	True
66.969	3.95	Lose2	1.0	0.0	Yes	2.732	0.001	n/a	GoodResponse	0	n/a	n/a	3	6	Fixation	AvoidedLoss	True
70.914	0.34	Lose2	1.0	0.004	Yes	2.732	-0.004	1.0	GoodResponse	0	0.221	70.135	3	6	Target	AvoidedLoss	True
71.135	0.3	Lose2	1.0	0.004	Yes	2.732	-0.004	1.0	GoodResponse	0	0.221	n/a	3	6	ButtonPress	AvoidedLoss	True
71.265	0.36	Lose2	1.0	n/a	Yes	2.732	n/a	n/a	GoodResponse	0	n/a	n/a	3	6	Blank	AvoidedLoss	True
71.616	1.45	Lose2	1.0	n/a	Yes	2.732	n/a	5.0	GoodResponse	0	0.019	70.635	3	6	Feedback	AvoidedLoss	True
73.071	2.732	Lose2	1.0	n/a	Yes	2.732	n/a	n/a	GoodResponse	0	0.0	n/a	3	6	ISIslide	AvoidedLoss	True
75.829	0.25	Lose2	1.0	0.0	Yes	4.021	0.029	n/a	GoodResponse	0	n/a	n/a	3	7	Cue	AvoidedLoss	True
76.08	4.05	Lose2	1.0	0.0	Yes	4.021	0.001	n/a	GoodResponse	0	n/a	n/a	3	7	Fixation	AvoidedLoss	True
80.125	0.33	Lose2	1.0	0.004	Yes	4.021	-0.004	1.0	GoodResponse	0	0.212	79.337	3	7	Target	AvoidedLoss	True
80.337	0.3	Lose2	1.0	0.004	Yes	4.021	-0.004	1.0	GoodResponse	0	0.212	n/a	3	7	ButtonPress	AvoidedLoss	True
80.459	0.37	Lose2	1.0	n/a	Yes	4.021	n/a	n/a	GoodResponse	0	n/a	n/a	3	7	Blank	AvoidedLoss	True
80.827	1.45	Lose2	1.0	n/a	Yes	4.021	n/a	5.0	GoodResponse	0	0.028	79.855	3	7	Feedback	AvoidedLoss	True
82.281	4.021	Lose2	1.0	n/a	Yes	4.021	n/a	n/a	GoodResponse	0	0.0	n/a	3	7	ISIslide	AvoidedLoss	True
86.327	0.25	Lose2	1.0	0.0	Yes	3.023	0.027	n/a	GoodResponse	0	n/a	n/a	3	8	Cue	AvoidedLoss	True
86.578	3.95	Lose2	1.0	0.0	Yes	3.023	0.001	n/a	GoodResponse	0	n/a	n/a	3	8	Fixation	AvoidedLoss	True
90.523	0.32	Lose2	1.0	0.004	Yes	3.023	-0.004	1.0	GoodResponse	0	0.18	89.703	3	8	Target	AvoidedLoss	True
90.703	0.3	Lose2	1.0	0.004	Yes	3.023	-0.004	1.0	GoodResponse	0	0.18	n/a	3	8	ButtonPress	AvoidedLoss	True
90.857	0.38	Lose2	1.0	n/a	Yes	3.023	n/a	n/a	GoodResponse	0	n/a	n/a	3	8	Blank	AvoidedLoss	True
91.225	1.45	Lose2	1.0	n/a	Yes	3.023	n/a	5.0	GoodResponse	0	0.02	90.245	3	8	Feedback	AvoidedLoss	True
92.679	3.023	Lose2	1.0	n/a	Yes	3.023	n/a	n/a	GoodResponse	0	0.0	n/a	3	8	ISIslide	AvoidedLoss	True
95.722	0.25	Lose2	1.0	0.0	Yes	3.128	0.022	n/a	GoodResponse	0	n/a	n/a	3	9	Cue	AvoidedLoss	True
95.972	3.95	Lose2	1.0	0.0	Yes	3.128	0.0	n/a	GoodResponse	0	n/a	n/a	3	9	Fixation	AvoidedLoss	True
99.918	0.31	Lose2	1.0	0.004	Yes	3.128	-0.004	1.0	GoodResponse	0	0.18	99.098	3	9	Target	AvoidedLoss	True
100.098	0.3	Lose2	1.0	0.004	Yes	3.128	-0.004	1.0	GoodResponse	0	0.18	n/a	3	9	ButtonPress	AvoidedLoss	True
100.235	0.39	Lose2	1.0	n/a	Yes	3.128	n/a	n/a	GoodResponse	0	n/a	n/a	3	9	Blank	AvoidedLoss	True
100.62	1.45	Lose2	1.0	n/a	Yes	3.128	n/a	5.0	GoodResponse	0	0.04	99.66	3	9	Feedback	AvoidedLoss	True
102.074	3.128	Lose2	1.0	n/a	Yes	3.128	n/a	n/a	GoodResponse	0	0.0	n/a	3	9	ISIslide	AvoidedLoss	True
105.217	0.25	Control	1.0	0.0	Yes	3.283	0.017	n/a	GoodResponse	0	n/a	n/a	3	10	Cue	Neutral	True
105.467	4.0	Control	1.0	0.001	Yes	3.283	0.0	n/a	GoodResponse	0	n/a	n/a	3	10	Fixation	Neutral	True
109.463	0.3	Control	1.0	0.004	Yes	3.283	-0.004	1.0	GoodResponse	0	0.186	108.649	3	10	Target	Neutral	True
109.649	0.3	Control	1.0	0.004	Yes	3.283	-0.004	1.0	GoodResponse	0	0.186	n/a	3	10	ButtonPress	Neutral	True
109.764	0.4	Control	1.0	n/a	Yes	3.283	n/a	n/a	GoodResponse	0	n/a	n/a	3	10	Blank	Neutral	True
110.165	1.45	Control	1.0	n/a	Yes	3.283	n/a	5.0	GoodResponse	0	0.006	109.171	3	10	Feedback	Neutral	True
111.619	3.283	Control	1.0	n/a	Yes	3.283	n/a	n/a	GoodResponse	0	0.0	n/a	3	10	ISIslide	Neutral	True
114.929	0.25	Lose2	1.0	0.0	Yes	2.721	0.029	n/a	GoodResponse	0	n/a	n/a	3	11	Cue	AvoidedLoss	True
115.18	4.05	Lose2	1.0	0.0	Yes	2.721	0.001	n/a	GoodResponse	0	n/a	n/a	3	11	Fixation	AvoidedLoss	True
119.225	0.29	Lose2	1.0	0.004	Yes	2.721	-0.004	1.0	GoodResponse	0	0.187	118.412	3	11	Target	AvoidedLoss	True
119.412	0.3	Lose2	1.0	0.004	Yes	2.721	-0.004	1.0	GoodResponse	0	0.187	n/a	3	11	ButtonPress	AvoidedLoss	True
119.526	0.41	Lose2	1.0	n/a	Yes	2.721	n/a	n/a	GoodResponse	0	n/a	n/a	3	11	Blank	AvoidedLoss	True
119.927	1.45	Lose2	1.0	n/a	Yes	2.721	n/a	5.0	GoodResponse	0	0.001	118.928	3	11	Feedback	AvoidedLoss	True
121.382	2.721	Lose2	1.0	n/a	Yes	2.721	n/a	n/a	GoodResponse	0	0.0	n/a	3	11	ISIslide	AvoidedLoss	True
124.123	0.25	Control	1.0	0.0	Yes	2.977	0.023	n/a	GoodResponse	0	n/a	n/a	3	12	Cue	Neutral	True
124.374	3.9	Control	1.0	0.0	Yes	2.977	0.001	n/a	GoodResponse	0	n/a	n/a	3	12	Fixation	Neutral	True
128.269	0.28	Control	1.0	0.004	Yes	2.977	-0.004	1.0	GoodResponse	0	0.191	127.46	3	12	Target	Neutral	True
128.46	0.3	Control	1.0	0.004	Yes	2.977	-0.004	1.0	GoodResponse	0	0.191	n/a	3	12	ButtonPress	Neutral	True
128.553	0.42	Control	1.0	n/a	Yes	2.977	n/a	n/a	GoodResponse	0	n/a	n/a	3	12	Blank	Neutral	True
128.971	1.45	Control	1.0	n/a	Yes	2.977	n/a	5.0	GoodResponse	0	0.03	128.001	3	12	Feedback	Neutral	True
130.425	2.977	Control	1.0	n/a	Yes	2.977	n/a	n/a	GoodResponse	0	0.0	n/a	3	12	ISIslide	Neutral	True
133.418	0.25	Control	1.0	0.0	Yes	2.782	0.018	n/a	GoodResponse	0	n/a	n/a	3	13	Cue	Neutral	True
133.668	4.0	Control	1.0	0.001	Yes	2.782	0.0	n/a	GoodResponse	0	n/a	n/a	3	13	Fixation	Neutral	True
137.664	0.27	Control	1.0	0.004	Yes	2.782	-0.004	1.0	GoodResponse	0	0.213	136.877	3	13	Target	Neutral	True
137.877	0.3	Control	1.0	0.004	Yes	2.782	-0.004	1.0	GoodResponse	0	0.213	n/a	3	13	ButtonPress	Neutral	True
137.948	0.43	Control	1.0	n/a	Yes	2.782	n/a	n/a	GoodResponse	0	n/a	n/a	3	13	Blank	Neutral	True
138.366	1.45	Control	1.0	n/a	Yes	2.782	n/a	5.0	GoodResponse	0	0.001	137.367	3	13	Feedback	Neutral	True
139.82	2.782	Control	1.0	n/a	Yes	2.782	n/a	n/a	GoodResponse	0	0.0	n/a	3	13	ISIslide	Neutral	True
142.629	0.25	Win2	1.0	0.0	Yes	2.671	0.029	n/a	GoodResponse	1	n/a	n/a	4	14	Cue	Win	True
142.879	4.1	Win2	1.0	0.0	Yes	2.671	0.0	n/a	GoodResponse	1	n/a	n/a	4	14	Fixation	Win	True
146.975	0.26	Win2	1.0	0.004	Yes	2.671	-0.004	1.0	GoodResponse	1	0.183	146.158	4	14	Target	Win	True
147.158	0.3	Win2	1.0	0.004	Yes	2.671	-0.004	1.0	GoodResponse	1	0.183	n/a	4	14	ButtonPress	Win	True
147.242	0.44	Win2	1.0	n/a	Yes	2.671	n/a	n/a	GoodResponse	1	n/a	n/a	4	14	Blank	Win	True
147.677	1.45	Win2	1.0	n/a	Yes	2.671	n/a	5.0	GoodResponse	1	0.007	146.684	4	14	Feedback	Win	True
149.131	2.671	Win2	1.0	n/a	Yes	2.671	n/a	n/a	GoodResponse	1	0.0	n/a	4	14	ISIslide	Win	True
151.823	0.25	Control	1.0	0.0	Yes	2.977	0.023	n/a	GoodResponse	0	n/a	n/a	4	15	Cue	Neutral	False
152.073	4.0	Control	1.0	0.001	Yes	2.977	0.0	1.0	GoodResponse	0	0.012	151.085	4	15	Fixation	Neutral	False
152.085	0.3	Control	1.0	0.001	Yes	2.977	0.0	1.0	GoodResponse	0	0.012	n/a	4	15	ButtonPress	Neutral	False
156.069	0.25	Control	1.0	0.004	Yes	2.977	-0.004	1.0	GoodResponse	0	0.229	155.298	4	15	Target	Neutral	False
156.298	0.3	Control	1.0	0.004	Yes	2.977	-0.004	1.0	GoodResponse	0	0.229	n/a	4	15	ButtonPress	Neutral	False
156.32	0.45	Control	1.0	n/a	Yes	2.977	n/a	n/a	GoodResponse	0	n/a	n/a	4	15	Blank	Neutral	False
156.771	1.45	Control	1.0	n/a	Yes	2.977	n/a	5.0	GoodResponse	0	0.034	155.805	4	15	Feedback	Neutral	False
158.225	2.977	Control	1.0	n/a	Yes	2.977	n/a	n/a	GoodResponse	0	0.0	n/a	4	15	ISIslide	Neutral	False
161.217	0.25	Win2	1.0	0.001	Yes	2.883	0.017	n/a	GoodResponse	1	n/a	n/a	5	16	Cue	Win	True
161.468	4.0	Win2	1.0	0.0	Yes	2.883	0.001	n/a	GoodResponse	1	n/a	n/a	5	16	Fixation	Win	True
165.464	0.24	Win2	1.0	0.003	Yes	2.883	-0.003	1.0	GoodResponse	1	0.188	164.652	5	16	Target	Win	True
165.652	0.3	Win2	1.0	0.003	Yes	2.883	-0.003	1.0	GoodResponse	1	0.188	n/a	5	16	ButtonPress	Win	True
165.714	0.46	Win2	1.0	n/a	Yes	2.883	n/a	n/a	GoodResponse	1	n/a	n/a	5	16	Blank	Win	True
166.166	1.45	Win2	1.0	n/a	Yes	2.883	n/a	5.0	GoodResponse	1	0.005	165.171	5	16	Feedback	Win	True
167.62	2.883	Win2	1.0	n/a	Yes	2.883	n/a	n/a	GoodResponse	1	0.0	n/a	5	16	ISIslide	Win	True
170.529	0.25	Lose2	1.0	0.0	Yes	2.721	0.029	n/a	GoodResponse	0	n/a	n/a	5	17	Cue	AvoidedLoss	True
170.779	3.95	Lose2	1.0	0.001	Yes	2.721	0.0	n/a	GoodResponse	0	n/a	n/a	5	17	Fixation	AvoidedLoss	True
174.725	0.23	Lose2	1.0	0.004	Yes	2.721	-0.004	1.0	GoodResponse	0	0.201	173.926	5	17	Target	AvoidedLoss	True
174.926	0.3	Lose2	1.0	0.004	Yes	2.721	-0.004	1.0	GoodResponse	0	0.201	n/a	5	17	ButtonPress	AvoidedLoss	True
174.959	0.47	Lose2	1.0	n/a	Yes	2.721	n/a	n/a	GoodResponse	0	n/a	n/a	5	17	Blank	AvoidedLoss	True
175.427	1.45	Lose2	1.0	n/a	Yes	2.721	n/a	5.0	GoodResponse	0	0.012	174.439	5	17	Feedback	AvoidedLoss	True
176.881	2.721	Lose2	1.0	n/a	Yes	2.721	n/a	n/a	GoodResponse	0	0.0	n/a	5	17	ISIslide	AvoidedLoss	True
179.623	0.25	Lose2	0.9473999999999999	0.0	No	2.727	0.023	n/a	NoResponse	-1	n/a	n/a	4	18	Cue	Loss	True
179.873	4.05	Lose2	0.9473999999999999	0.0	No	2.727	0.0	n/a	NoResponse	-1	n/a	n/a	4	18	Fixation	Loss	True
183.919	0.22	Lose2	0.9473999999999999	0.004	No	2.727	-0.004	1.0	NoResponse	-1	0.266	183.185	4	18	Target	Loss	True
184.153	0.48	Lose2	0.9473999999999999	n/a	No	2.727	n/a	n/a	NoResponse	-1	n/a	n/a	4	18	Blank	Loss	True
184.185	0.3	Lose2	0.9473999999999999	0.004	No	2.727	-0.004	1.0	NoResponse	-1	0.266	n/a	4	18	ButtonPress	Loss	True
184.621	1.45	Lose2	0.9473999999999999	n/a	No	2.727	n/a	5.0	NoResponse	-1	0.038	183.659	4	18	Feedback	Loss	True
186.075	2.727	Lose2	0.9473999999999999	n/a	No	2.727	n/a	n/a	NoResponse	-1	0.0	n/a	4	18	ISIslide	Loss	True
188.817	0.25	Control	0.95	0.0	Yes	2.933	0.017	n/a	GoodResponse	0	n/a	n/a	4	19	Cue	Neutral	True
189.067	3.95	Control	0.95	0.0	Yes	2.933	0.0	n/a	GoodResponse	0	n/a	n/a	4	19	Fixation	Neutral	True
193.013	0.21	Control	0.95	0.004	Yes	2.933	-0.004	1.0	GoodResponse	0	0.179	192.192	4	19	Target	Neutral	True
193.192	0.3	Control	0.95	0.004	Yes	2.933	-0.004	1.0	GoodResponse	0	0.179	n/a	4	19	ButtonPress	Neutral	True
193.23	0.49	Control	0.95	n/a	Yes	2.933	n/a	n/a	GoodResponse	0	n/a	n/a	4	19	Blank	Neutral	True
193.715	1.45	Control	0.95	n/a	Yes	2.933	n/a	5.0	GoodResponse	0	0.016	192.731	4	19	Feedback	Neutral	True
195.169	2.933	Control	0.95	n/a	Yes	2.933	n/a	n/a	GoodResponse	0	0.0	n/a	4	19	ISIslide	Neutral	True
198.128	0.25	Control	0.9523999999999999	0.0	Yes	2.622	0.028	n/a	GoodResponse	0	n/a	n/a	4	20	Cue	Neutral	True
198.379	4.05	Control	0.9523999999999999	0.0	Yes	2.622	0.001	n/a	GoodResponse	0	n/a	n/a	4	20	Fixation	Neutral	True
202.424	0.2	Control	0.9523999999999999	0.004	Yes	2.622	-0.004	1.0	GoodResponse	0	0.197	201.621	4	20	Target	Neutral	True
202.621	0.3	Control	0.9523999999999999	0.004	Yes	2.622	-0.004	1.0	GoodResponse	0	0.197	n/a	4	20	ButtonPress	Neutral	True
202.625	0.5	Control	0.9523999999999999	n/a	Yes	2.622	n/a	n/a	GoodResponse	0	n/a	n/a	4	20	Blank	Neutral	True
203.126	1.45	Control	0.9523999999999999	n/a	Yes	2.622	n/a	5.0	GoodResponse	0	0.02	202.146	4	20	Feedback	Neutral	True
204.58	2.622	Control	0.9523999999999999	n/a	Yes	2.622	n/a	n/a	GoodResponse	0	0.0	n/a	4	20	ISIslide	Neutral	True
207.222	0.25	Control	0.9545	0.0	Yes	2.778	0.022	n/a	GoodResponse	0	n/a	n/a	4	21	Cue	Neutral	True
207.472	4.1	Control	0.9545	0.001	Yes	2.778	0.0	n/a	GoodResponse	0	n/a	n/a	4	21	Fixation	Neutral	True
211.568	0.19	Control	0.9545	0.004	Yes	2.778	-0.004	1.0	GoodResponse	0	0.177	210.745	4	21	Target	Neutral	True
211.745	0.3	Control	0.9545	0.004	Yes	2.778	-0.004	1.0	GoodResponse	0	0.177	n/a	4	21	ButtonPress	Neutral	True
211.769	0.51	Control	0.9545	n/a	Yes	2.778	n/a	n/a	GoodResponse	0	n/a	n/a	4	21	Blank	Neutral	True
212.27	1.45	Control	0.9545	n/a	Yes	2.778	n/a	5.0	GoodResponse	0	0.047	211.317	4	21	Feedback	Neutral	True
213.724	2.778	Control	0.9545	n/a	Yes	2.778	n/a	n/a	GoodResponse	0	0.0	n/a	4	21	ISIslide	Neutral	True
216.516	0.25	Control	0.9129999999999999	0.0	No	2.784	0.016	n/a	NoResponse	0	n/a	n/a	4	22	Cue	Neutral	True
216.767	4.0	Control	0.9129999999999999	0.0	No	2.784	0.001	n/a	NoResponse	0	n/a	n/a	4	22	Fixation	Neutral	True
220.762	0.18	Control	0.9129999999999999	0.004	No	2.784	-0.004	1.0	NoResponse	0	0.19	219.952	4	22	Target	Neutral	True
220.946	0.52	Control	0.9129999999999999	n/a	No	2.784	n/a	n/a	NoResponse	0	n/a	n/a	4	22	Blank	Neutral	True
220.952	0.3	Control	0.9129999999999999	0.004	No	2.784	-0.004	1.0	NoResponse	0	0.19	n/a	4	22	ButtonPress	Neutral	True
221.464	1.45	Control	0.9129999999999999	n/a	No	2.784	n/a	5.0	NoResponse	0	0.024	220.488	4	22	Feedback	Neutral	True
222.919	2.784	Control	0.9129999999999999	n/a	No	2.784	n/a	n/a	NoResponse	0	0.0	n/a	4	22	ISIslide	Neutral	True
225.727	0.25	Control	0.875	0.0	No	2.773	0.027	n/a	NoResponse	0	n/a	n/a	4	23	Cue	Neutral	True
225.978	3.9	Control	0.875	0.0	No	2.773	0.001	n/a	NoResponse	0	n/a	n/a	4	23	Fixation	Neutral	True
229.873	0.17	Control	0.875	0.004	No	2.773	-0.004	1.0	NoResponse	0	0.189	229.062	4	23	Target	Neutral	True
230.057	0.53	Control	0.875	n/a	No	2.773	n/a	n/a	NoResponse	0	n/a	n/a	4	23	Blank	Neutral	True
230.062	0.3	Control	0.875	0.004	No	2.773	-0.004	1.0	NoResponse	0	0.189	n/a	4	23	ButtonPress	Neutral	True
230.575	1.45	Control	0.875	n/a	No	2.773	n/a	5.0	NoResponse	0	0.035	229.61	4	23	Feedback	Neutral	True
232.029	2.773	Control	0.875	n/a	No	2.773	n/a	n/a	NoResponse	0	0.0	n/a	4	23	ISIslide	Neutral	True
234.821	0.25	Win2	0.84	0.0	No	3.129	0.021	n/a	NoResponse	0	n/a	n/a	4	24	Cue	MissedWin	True
235.072	3.95	Win2	0.84	0.0	No	3.129	0.001	n/a	NoResponse	0	n/a	n/a	4	24	Fixation	MissedWin	True
239.017	0.16	Win2	0.84	0.004	No	3.129	-0.004	1.0	NoResponse	0	0.181	238.198	4	24	Target	MissedWin	True
239.184	0.54	Win2	0.84	n/a	No	3.129	n/a	n/a	NoResponse	0	n/a	n/a	4	24	Blank	MissedWin	True
239.198	0.3	Win2	0.84	0.004	No	3.129	-0.004	1.0	NoResponse	0	0.181	n/a	4	24	ButtonPress	MissedWin	True
239.719	1.45	Win2	0.84	n/a	No	3.129	n/a	5.0	NoResponse	0	0.012	238.731	4	24	Feedback	MissedWin	True
241.173	3.129	Win2	0.84	n/a	No	3.129	n/a	n/a	NoResponse	0	0.0	n/a	4	24	ISIslide	MissedWin	True
244.316	0.25	Win2	0.8077	0.0	No	3.084	0.016	n/a	NoResponse	0	n/a	n/a	4	25	Cue	MissedWin	True
244.567	4.0	Win2	0.8077	0.0	No	3.084	0.001	n/a	NoResponse	0	n/a	n/a	4	25	Fixation	MissedWin	True
248.562	0.15	Win2	0.8077	0.004	No	3.084	-0.004	1.0	NoResponse	0	0.178	247.74	4	25	Target	MissedWin	True
248.712	0.55	Win2	0.8077	n/a	No	3.084	n/a	n/a	NoResponse	0	n/a	n/a	4	25	Blank	MissedWin	True
248.74	0.3	Win2	0.8077	0.004	No	3.084	-0.004	1.0	NoResponse	0	0.178	n/a	4	25	ButtonPress	MissedWin	True
249.264	1.45	Win2	0.8077	n/a	No	3.084	n/a	5.0	NoResponse	0	0.028	248.292	4	25	Feedback	MissedWin	True
250.718	3.084	Win2	0.8077	n/a	No	3.084	n/a	n/a	NoResponse	0	0.0	n/a	4	25	ISIslide	MissedWin	True
253.828	0.25	Win2	0.7778	0.0	No	2.922	0.028	n/a	NoResponse	0	n/a	n/a	4	26	Cue	MissedWin	True
254.078	3.95	Win2	0.7778	0.001	No	2.922	0.0	n/a	NoResponse	0	n/a	n/a	4	26	Fixation	MissedWin	True
258.024	0.15	Win2	0.7778	0.004	No	2.922	-0.004	1.0	NoResponse	0	0.185	257.209	4	26	Target	MissedWin	True
258.174	0.55	Win2	0.7778	n/a	No	2.922	n/a	n/a	NoResponse	0	n/a	n/a	4	26	Blank	MissedWin	True
258.209	0.3	Win2	0.7778	0.004	No	2.922	-0.004	1.0	NoResponse	0	0.185	n/a	4	26	ButtonPress	MissedWin	True
258.726	1.45	Win2	0.7778	n/a	No	2.922	n/a	5.0	NoResponse	0	0.03	257.756	4	26	Feedback	MissedWin	True
260.18	2.922	Win2	0.7778	n/a	No	2.922	n/a	n/a	NoResponse	0	0.0	n/a	4	26	ISIslide	MissedWin	True
263.122	0.25	Lose2	0.75	0.0	No	2.828	0.022	n/a	NoResponse	-1	n/a	n/a	3	27	Cue	Loss	True
263.373	4.05	Lose2	0.75	0.0	No	2.828	0.001	n/a	NoResponse	-1	n/a	n/a	3	27	Fixation	Loss	True
267.418	0.15	Lose2	0.75	0.004	No	2.828	-0.004	1.0	NoResponse	-1	0.164	266.582	3	27	Target	Loss	True
267.569	0.55	Lose2	0.75	n/a	No	2.828	n/a	n/a	NoResponse	-1	n/a	n/a	3	27	Blank	Loss	True
267.582	0.3	Lose2	0.75	0.004	No	2.828	-0.004	1.0	NoResponse	-1	0.164	n/a	3	27	ButtonPress	Loss	True
268.12	1.45	Lose2	0.75	n/a	No	2.828	n/a	5.0	NoResponse	-1	0.002	267.122	3	27	Feedback	Loss	True
269.575	2.828	Lose2	0.75	n/a	No	2.828	n/a	n/a	NoResponse	-1	0.0	n/a	3	27	ISIslide	Loss	True
272.417	0.25	Control	0.7241	0.0	No	2.833	0.017	n/a	NoResponse	0	n/a	n/a	3	28	Cue	Neutral	True
272.667	4.05	Control	0.7241	0.0	No	2.833	0.0	n/a	NoResponse	0	n/a	n/a	3	28	Fixation	Neutral	True
276.713	0.15	Control	0.7241	0.004	No	2.833	-0.004	1.0	NoResponse	0	0.201	275.914	3	28	Target	Neutral	True
276.863	0.55	Control	0.7241	n/a	No	2.833	n/a	n/a	NoResponse	0	n/a	n/a	3	28	Blank	Neutral	True
276.914	0.3	Control	0.7241	0.004	No	2.833	-0.004	1.0	NoResponse	0	0.201	n/a	3	28	ButtonPress	Neutral	True
277.415	1.45	Control	0.7241	n/a	No	2.833	n/a	5.0	NoResponse	0	0.023	276.438	3	28	Feedback	Neutral	True
278.869	2.833	Control	0.7241	n/a	No	2.833	n/a	n/a	NoResponse	0	0.0	n/a	3	28	ISIslide	Neutral	True
281.728	0.25	Lose2	0.7	0.0	No	2.822	0.028	n/a	NoResponse	-1	n/a	n/a	2	29	Cue	Loss	True
281.979	3.95	Lose2	0.7	0.0	No	2.822	0.001	n/a	NoResponse	-1	n/a	n/a	2	29	Fixation	Loss	True
285.924	0.15	Lose2	0.7	0.004	No	2.822	-0.004	1.0	NoResponse	-1	0.185	285.109	2	29	Target	Loss	True
286.074	0.55	Lose2	0.7	n/a	No	2.822	n/a	n/a	NoResponse	-1	n/a	n/a	2	29	Blank	Loss	True
286.109	0.3	Lose2	0.7	0.004	No	2.822	-0.004	1.0	NoResponse	-1	0.185	n/a	2	29	ButtonPress	Loss	True
286.626	1.45	Lose2	0.7	n/a	No	2.822	n/a	5.0	NoResponse	-1	0.031	285.657	2	29	Feedback	Loss	True
288.08	2.822	Lose2	0.7	n/a	No	2.822	n/a	n/a	NoResponse	-1	0.0	n/a	2	29	ISIslide	Loss	True
290.922	0.25	Win2	0.6774	0.0	No	2.778	0.022	n/a	NoResponse	0	n/a	n/a	2	30	Cue	MissedWin	True
291.173	3.9	Win2	0.6774	0.0	No	2.778	0.001	n/a	NoResponse	0	n/a	n/a	2	30	Fixation	MissedWin	True
295.068	0.15	Win2	0.6774	0.004	No	2.778	-0.004	1.0	NoResponse	0	0.171	294.239	2	30	Target	MissedWin	True
295.218	0.55	Win2	0.6774	n/a	No	2.778	n/a	n/a	NoResponse	0	n/a	n/a	2	30	Blank	MissedWin	True
295.239	0.3	Win2	0.6774	0.004	No	2.778	-0.004	1.0	NoResponse	0	0.171	n/a	2	30	ButtonPress	MissedWin	True
295.77	1.45	Win2	0.6774	n/a	No	2.778	n/a	5.0	NoResponse	0	0.01	294.78	2	30	Feedback	MissedWin	True
297.224	2.778	Win2	0.6774	n/a	No	2.778	n/a	n/a	NoResponse	0	0.0	n/a	2	30	ISIslide	MissedWin	True
300.016	0.25	Lose2	0.6562	0.0	No	2.834	0.016	n/a	PrematurePress	-1	n/a	n/a	1	31	Cue	Loss	False
300.267	4.05	Lose2	0.6562	0.0	No	2.834	0.001	1.0	PrematurePress	-1	3.654	302.921	1	31	Fixation	Loss	False
303.921	0.3	Lose2	0.6562	0.0	No	2.834	0.001	1.0	PrematurePress	-1	3.654	n/a	1	31	ButtonPress	Loss	False
304.312	0.15	Lose2	0.6562	0.004	No	2.834	-0.004	1.0	PrematurePress	-1	0.048	303.36	1	31	Target	Loss	False
304.36	0.3	Lose2	0.6562	0.004	No	2.834	-0.004	1.0	PrematurePress	-1	0.048	n/a	1	31	ButtonPress	Loss	False
304.462	0.55	Lose2	0.6562	n/a	No	2.834	n/a	n/a	PrematurePress	-1	n/a	n/a	1	31	Blank	Loss	False
305.014	1.45	Lose2	0.6562	n/a	No	2.834	n/a	5.0	PrematurePress	-1	0.034	304.048	1	31	Feedback	Loss	False
306.468	2.834	Lose2	0.6562	n/a	No	2.834	n/a	n/a	PrematurePress	-1	0.0	n/a	1	31	ISIslide	Loss	False
309.327	0.25	Lose2	0.6364	0.0	No	2.623	0.027	n/a	NoResponse	-1	n/a	n/a	0	32	Cue	Loss	True
309.578	4.15	Lose2	0.6364	0.0	No	2.623	0.001	n/a	NoResponse	-1	n/a	n/a	0	32	Fixation	Loss	True
313.723	0.15	Lose2	0.6364	0.004	No	2.623	-0.004	1.0	NoResponse	-1	0.21	312.933	0	32	Target	Loss	True
313.874	0.55	Lose2	0.6364	n/a	No	2.623	n/a	n/a	NoResponse	-1	n/a	n/a	0	32	Blank	Loss	True
313.933	0.3	Lose2	0.6364	0.004	No	2.623	-0.004	1.0	NoResponse	-1	0.21	n/a	0	32	ButtonPress	Loss	True
314.426	1.45	Lose2	0.6364	n/a	No	2.623	n/a	5.0	NoResponse	-1	0.037	313.463	0	32	Feedback	Loss	True
315.88	2.623	Lose2	0.6364	n/a	No	2.623	n/a	n/a	NoResponse	-1	0.0	n/a	0	32	ISIslide	Loss	True
318.521	0.25	Win2	0.6175999999999999	0.0	No	2.679	0.021	n/a	NoResponse	0	n/a	n/a	0	33	Cue	MissedWin	True
318.772	4.0	Win2	0.6175999999999999	0.0	No	2.679	0.001	n/a	NoResponse	0	n/a	n/a	0	33	Fixation	MissedWin	True
322.767	0.16	Win2	0.6175999999999999	0.004	No	2.679	-0.004	1.0	NoResponse	0	0.177	321.944	0	33	Target	MissedWin	True
322.934	0.54	Win2	0.6175999999999999	n/a	No	2.679	n/a	n/a	NoResponse	0	n/a	n/a	0	33	Blank	MissedWin	True
322.944	0.3	Win2	0.6175999999999999	0.004	No	2.679	-0.004	1.0	NoResponse	0	0.177	n/a	0	33	ButtonPress	MissedWin	True
323.469	1.45	Win2	0.6175999999999999	n/a	No	2.679	n/a	5.0	NoResponse	0	0.017	322.486	0	33	Feedback	MissedWin	True
324.924	2.679	Win2	0.6175999999999999	n/a	No	2.679	n/a	n/a	NoResponse	0	0.0	n/a	0	33	ISIslide	MissedWin	True
327.615	0.25	Lose2	0.6286	0.0	Yes	2.635	0.015	n/a	GoodResponse	0	n/a	n/a	0	34	Cue	AvoidedLoss	True
327.866	4.05	Lose2	0.6286	0.0	Yes	2.635	0.001	n/a	GoodResponse	0	n/a	n/a	0	34	Fixation	AvoidedLoss	True
331.911	0.17	Lose2	0.6286	0.004	Yes	2.635	-0.004	1.0	GoodResponse	0	0.167	331.078	0	34	Target	AvoidedLoss	True
332.078	0.3	Lose2	0.6286	0.004	Yes	2.635	-0.004	1.0	GoodResponse	0	0.167	n/a	0	34	ButtonPress	AvoidedLoss	True
332.095	0.53	Lose2	0.6286	n/a	Yes	2.635	n/a	n/a	GoodResponse	0	n/a	n/a	0	34	Blank	AvoidedLoss	True
332.613	1.45	Lose2	0.6286	n/a	Yes	2.635	n/a	5.0	GoodResponse	0	0.044	331.657	0	34	Feedback	AvoidedLoss	True
334.068	2.635	Lose2	0.6286	n/a	Yes	2.635	n/a	n/a	GoodResponse	0	0.0	n/a	0	34	ISIslide	AvoidedLoss	True
336.726	0.25	Lose2	0.6111	0.0	No	2.674	0.026	n/a	NoResponse	-1	n/a	n/a	-1	35	Cue	Loss	True
336.976	4.0	Lose2	0.6111	0.0	No	2.674	0.0	1.0	NoResponse	-1	3.953	339.929	-1	35	Fixation	Loss	True
340.929	0.3	Lose2	0.6111	0.0	No	2.674	0.0	1.0	NoResponse	-1	3.953	n/a	-1	35	ButtonPress	Loss	True
340.972	0.18	Lose2	0.6111	0.004	No	2.674	-0.004	n/a	NoResponse	-1	n/a	n/a	-1	35	Target	Loss	True
341.155	0.52	Lose2	0.6111	n/a	No	2.674	n/a	n/a	NoResponse	-1	n/a	n/a	-1	35	Blank	Loss	True
341.674	1.45	Lose2	0.6111	n/a	No	2.674	n/a	5.0	NoResponse	-1	0.008	340.682	-1	35	Feedback	Loss	True
343.128	2.674	Lose2	0.6111	n/a	No	2.674	n/a	n/a	NoResponse	-1	0.0	n/a	-1	35	ISIslide	Loss	True
345.819	0.25	Control	0.5946	0.0	No	2.681	0.019	n/a	LatePress	0	n/a	n/a	-1	36	Cue	Neutral	True
346.07	4.0	Control	0.5946	0.0	No	2.681	0.001	n/a	LatePress	0	n/a	n/a	-1	36	Fixation	Neutral	True
350.065	0.19	Control	0.5946	0.004	No	2.681	-0.004	1.0	LatePress	0	0.193	349.258	-1	36	Target	Neutral	True
350.258	0.3	Control	0.5946	0.004	No	2.681	-0.004	1.0	LatePress	0	0.193	n/a	-1	36	ButtonPress	Neutral	True
350.266	0.51	Control	0.5946	n/a	No	2.681	n/a	n/a	LatePress	0	n/a	n/a	-1	36	Blank	Neutral	True
350.768	1.45	Control	0.5946	n/a	No	2.681	n/a	5.0	LatePress	0	0.036	349.804	-1	36	Feedback	Neutral	True
352.222	2.681	Control	0.5946	n/a	No	2.681	n/a	n/a	LatePress	0	0.0	n/a	-1	36	ISIslide	Neutral	True
354.93	0.25	Win2	0.6053000000000001	0.0	Yes	2.87	0.03	n/a	GoodResponse	1	n/a	n/a	0	37	Cue	Win	False
355.181	4.0	Win2	0.6053000000000001	0.0	Yes	2.87	0.001	1.0	GoodResponse	1	3.8	357.981	0	37	Fixation	Win	False
358.981	0.3	Win2	0.6053000000000001	0.0	Yes	2.87	0.001	1.0	GoodResponse	1	3.8	n/a	0	37	ButtonPress	Win	False
359.176	0.2	Win2	0.6053000000000001	0.004	Yes	2.87	-0.004	1.0	GoodResponse	1	0.146	358.322	0	37	Target	Win	False
359.322	0.3	Win2	0.6053000000000001	0.004	Yes	2.87	-0.004	1.0	GoodResponse	1	0.146	n/a	0	37	ButtonPress	Win	False
359.377	0.5	Win2	0.6053000000000001	n/a	Yes	2.87	n/a	n/a	GoodResponse	1	n/a	n/a	0	37	Blank	Win	False
359.878	1.45	Win2	0.6053000000000001	n/a	Yes	2.87	n/a	5.0	GoodResponse	1	0.048	358.926	0	37	Feedback	Win	False
361.332	2.87	Win2	0.6053000000000001	n/a	Yes	2.87	n/a	n/a	GoodResponse	1	0.0	n/a	0	37	ISIslide	Win	False
364.224	0.25	Lose2	0.6154	0.001	Yes	2.826	0.024	n/a	GoodResponse	0	n/a	n/a	0	38	Cue	AvoidedLoss	True
364.475	3.95	Lose2	0.6154	0.0	Yes	2.826	0.001	n/a	GoodResponse	0	n/a	n/a	0	38	Fixation	AvoidedLoss	True
368.42	0.21	Lose2	0.6154	0.004	Yes	2.826	-0.004	1.0	GoodResponse	0	0.205	367.625	0	38	Target	AvoidedLoss	True
368.625	0.3	Lose2	0.6154	0.004	Yes	2.826	-0.004	1.0	GoodResponse	0	0.205	n/a	0	38	ButtonPress	AvoidedLoss	True
368.638	0.49	Lose2	0.6154	n/a	Yes	2.826	n/a	n/a	GoodResponse	0	n/a	n/a	0	38	Blank	AvoidedLoss	True
369.122	1.45	Lose2	0.6154	n/a	Yes	2.826	n/a	5.0	GoodResponse	0	0.022	368.144	0	38	Feedback	AvoidedLoss	True
370.577	2.826	Lose2	0.6154	n/a	Yes	2.826	n/a	n/a	GoodResponse	0	0.0	n/a	0	38	ISIslide	AvoidedLoss	True
373.419	0.25	Win2	0.625	0.0	Yes	2.981	0.019	n/a	GoodResponse	1	n/a	n/a	1	39	Cue	Win	True
373.669	4.1	Win2	0.625	0.0	Yes	2.981	0.0	n/a	GoodResponse	1	n/a	n/a	1	39	Fixation	Win	True
377.765	0.22	Win2	0.625	0.004	Yes	2.981	-0.004	1.0	GoodResponse	1	0.195	376.96	1	39	Target	Win	True
377.96	0.3	Win2	0.625	0.004	Yes	2.981	-0.004	1.0	GoodResponse	1	0.195	n/a	1	39	ButtonPress	Win	True
377.999	0.48	Win2	0.625	n/a	Yes	2.981	n/a	n/a	GoodResponse	1	n/a	n/a	1	39	Blank	Win	True
378.467	1.45	Win2	0.625	n/a	Yes	2.981	n/a	5.0	GoodResponse	1	0.043	377.51	1	39	Feedback	Win	True
379.921	2.981	Win2	0.625	n/a	Yes	2.981	n/a	n/a	GoodResponse	1	0.0	n/a	1	39	ISIslide	Win	True
382.93	0.25	Win2	0.6341	0.0	Yes	2.72	0.03	n/a	GoodResponse	1	n/a	n/a	2	40	Cue	Win	True
383.181	3.95	Win2	0.6341	0.0	Yes	2.72	0.001	n/a	GoodResponse	1	n/a	n/a	2	40	Fixation	Win	True
387.126	0.23	Win2	0.6341	0.004	Yes	2.72	-0.004	1.0	GoodResponse	1	0.197	386.323	2	40	Target	Win	True
387.323	0.3	Win2	0.6341	0.004	Yes	2.72	-0.004	1.0	GoodResponse	1	0.197	n/a	2	40	ButtonPress	Win	True
387.36	0.47	Win2	0.6341	n/a	Yes	2.72	n/a	n/a	GoodResponse	1	n/a	n/a	2	40	Blank	Win	True
387.828	1.45	Win2	0.6341	n/a	Yes	2.72	n/a	5.0	GoodResponse	1	0.048	386.876	2	40	Feedback	Win	True
389.283	2.72	Win2	0.6341	n/a	Yes	2.72	n/a	n/a	GoodResponse	1	0.0	n/a	2	40	ISIslide	Win	True
392.024	0.25	Win2	0.619	0.0	No	2.776	0.024	n/a	PrematurePress	0	n/a	n/a	2	41	Cue	MissedWin	True
392.275	3.9	Win2	0.619	0.0	No	2.776	0.001	n/a	PrematurePress	0	n/a	n/a	2	41	Fixation	MissedWin	True
396.17	0.24	Win2	0.619	0.004	No	2.776	-0.004	1.0	PrematurePress	0	0.029	395.199	2	41	Target	MissedWin	True
396.199	0.3	Win2	0.619	0.004	No	2.776	-0.004	1.0	PrematurePress	0	0.029	n/a	2	41	ButtonPress	MissedWin	True
396.421	0.46	Win2	0.619	n/a	No	2.776	n/a	n/a	PrematurePress	0	n/a	n/a	2	41	Blank	MissedWin	True
396.872	1.45	Win2	0.619	n/a	No	2.776	n/a	5.0	PrematurePress	0	0.029	395.901	2	41	Feedback	MissedWin	True
398.326	2.776	Win2	0.619	n/a	No	2.776	n/a	n/a	PrematurePress	0	0.0	n/a	2	41	ISIslide	MissedWin	True
401.118	0.25	Control	0.6279	0.0	Yes	2.932	0.018	n/a	GoodResponse	0	n/a	n/a	2	42	Cue	Neutral	True
401.369	3.85	Control	0.6279	0.0	Yes	2.932	0.001	n/a	GoodResponse	0	n/a	n/a	2	42	Fixation	Neutral	True
405.214	0.25	Control	0.6279	0.004	Yes	2.932	-0.004	1.0	GoodResponse	0	0.202	404.416	2	42	Target	Neutral	True
405.416	0.3	Control	0.6279	0.004	Yes	2.932	-0.004	1.0	GoodResponse	0	0.202	n/a	2	42	ButtonPress	Neutral	True
405.464	0.45	Control	0.6279	n/a	Yes	2.932	n/a	n/a	GoodResponse	0	n/a	n/a	2	42	Blank	Neutral	True
405.916	1.45	Control	0.6279	n/a	Yes	2.932	n/a	5.0	GoodResponse	0	0.009	404.925	2	42	Feedback	Neutral	True
407.37	2.932	Control	0.6279	n/a	Yes	2.932	n/a	n/a	GoodResponse	0	0.0	n/a	2	42	ISIslide	Neutral	True
410.329	0.25	Win2	0.6364	0.0	Yes	3.171	0.029	n/a	GoodResponse	1	n/a	n/a	3	43	Cue	Win	True
410.58	4.0	Win2	0.6364	0.0	Yes	3.171	0.001	n/a	GoodResponse	1	n/a	n/a	3	43	Fixation	Win	True
414.575	0.26	Win2	0.6364	0.004	Yes	3.171	-0.004	1.0	GoodResponse	1	0.186	413.761	3	43	Target	Win	True
414.761	0.3	Win2	0.6364	0.004	Yes	3.171	-0.004	1.0	GoodResponse	1	0.186	n/a	3	43	ButtonPress	Win	True
414.842	0.44	Win2	0.6364	n/a	Yes	3.171	n/a	n/a	GoodResponse	1	n/a	n/a	3	43	Blank	Win	True
415.277	1.45	Win2	0.6364	n/a	Yes	3.171	n/a	5.0	GoodResponse	1	0.013	414.29	3	43	Feedback	Win	True
416.731	3.171	Win2	0.6364	n/a	Yes	3.171	n/a	n/a	GoodResponse	1	0.0	n/a	3	43	ISIslide	Win	True
419.924	0.25	Win2	0.6444	0.0	Yes	2.976	0.024	n/a	GoodResponse	1	n/a	n/a	4	44	Cue	Win	True
420.175	4.0	Win2	0.6444	0.0	Yes	2.976	0.001	n/a	GoodResponse	1	n/a	n/a	4	44	Fixation	Win	True
424.17	0.27	Win2	0.6444	0.004	Yes	2.976	-0.004	1.0	GoodResponse	1	0.176	423.346	4	44	Target	Win	True
424.346	0.3	Win2	0.6444	0.004	Yes	2.976	-0.004	1.0	GoodResponse	1	0.176	n/a	4	44	ButtonPress	Win	True
424.455	0.43	Win2	0.6444	n/a	Yes	2.976	n/a	n/a	GoodResponse	1	n/a	n/a	4	44	Blank	Win	True
424.872	1.45	Win2	0.6444	n/a	Yes	2.976	n/a	5.0	GoodResponse	1	0.028	423.9	4	44	Feedback	Win	True
426.327	2.976	Win2	0.6444	n/a	Yes	2.976	n/a	n/a	GoodResponse	1	0.0	n/a	4	44	ISIslide	Win	True
429.319	0.25	Control	0.6522	0.0	Yes	2.881	0.019	n/a	GoodResponse	0	n/a	n/a	4	45	Cue	Neutral	True
429.57	4.1	Control	0.6522	0.0	Yes	2.881	0.001	n/a	GoodResponse	0	n/a	n/a	4	45	Fixation	Neutral	True
433.665	0.28	Control	0.6522	0.004	Yes	2.881	-0.004	1.0	GoodResponse	0	0.198	432.863	4	45	Target	Neutral	True
433.863	0.3	Control	0.6522	0.004	Yes	2.881	-0.004	1.0	GoodResponse	0	0.198	n/a	4	45	ButtonPress	Neutral	True
433.95	0.42	Control	0.6522	n/a	Yes	2.881	n/a	n/a	GoodResponse	0	n/a	n/a	4	45	Blank	Neutral	True
434.368	1.45	Control	0.6522	n/a	Yes	2.881	n/a	5.0	GoodResponse	0	0.044	433.412	4	45	Feedback	Neutral	True
435.822	2.881	Control	0.6522	n/a	Yes	2.881	n/a	n/a	GoodResponse	0	0.0	n/a	4	45	ISIslide	Neutral	True
438.731	0.25	Lose2	0.6596	0.0	Yes	3.369	0.031	n/a	GoodResponse	0	n/a	n/a	4	46	Cue	AvoidedLoss	True
438.981	4.0	Lose2	0.6596	0.0	Yes	3.369	0.0	n/a	GoodResponse	0	n/a	n/a	4	46	Fixation	AvoidedLoss	True
442.977	0.29	Lose2	0.6596	0.004	Yes	3.369	-0.004	1.0	GoodResponse	0	0.161	442.138	4	46	Target	AvoidedLoss	True
443.138	0.3	Lose2	0.6596	0.004	Yes	3.369	-0.004	1.0	GoodResponse	0	0.161	n/a	4	46	ButtonPress	AvoidedLoss	True
443.277	0.41	Lose2	0.6596	n/a	Yes	3.369	n/a	n/a	GoodResponse	0	n/a	n/a	4	46	Blank	AvoidedLoss	True
443.679	1.45	Lose2	0.6596	n/a	Yes	3.369	n/a	5.0	GoodResponse	0	0.002	442.681	4	46	Feedback	AvoidedLoss	True
445.133	3.369	Lose2	0.6596	n/a	Yes	3.369	n/a	n/a	GoodResponse	0	0.0	n/a	4	46	ISIslide	AvoidedLoss	True
448.527	0.25	Lose2	0.6667000000000001	0.0	Yes	2.673	0.027	n/a	GoodResponse	0	n/a	n/a	4	47	Cue	AvoidedLoss	True
448.777	4.0	Lose2	0.6667000000000001	0.0	Yes	2.673	0.0	n/a	GoodResponse	0	n/a	n/a	4	47	Fixation	AvoidedLoss	True
452.773	0.29	Lose2	0.6667000000000001	0.004	Yes	2.673	-0.004	1.0	GoodResponse	0	0.164	451.937	4	47	Target	AvoidedLoss	True
452.937	0.3	Lose2	0.6667000000000001	0.004	Yes	2.673	-0.004	1.0	GoodResponse	0	0.164	n/a	4	47	ButtonPress	AvoidedLoss	True
453.073	0.41	Lose2	0.6667000000000001	n/a	Yes	2.673	n/a	n/a	GoodResponse	0	n/a	n/a	4	47	Blank	AvoidedLoss	True
453.475	1.45	Lose2	0.6667000000000001	n/a	Yes	2.673	n/a	5.0	GoodResponse	0	0.01	452.485	4	47	Feedback	AvoidedLoss	True
454.929	2.673	Lose2	0.6667000000000001	n/a	Yes	2.673	n/a	n/a	GoodResponse	0	0.0	n/a	4	47	ISIslide	AvoidedLoss	True
457.62	0.25	Lose2	0.6735	0.0	Yes	3.03	0.02	n/a	GoodResponse	0	n/a	n/a	4	48	Cue	AvoidedLoss	True
457.871	3.95	Lose2	0.6735	0.0	Yes	3.03	0.001	n/a	GoodResponse	0	n/a	n/a	4	48	Fixation	AvoidedLoss	True
461.816	0.28	Lose2	0.6735	0.004	Yes	3.03	-0.004	1.0	GoodResponse	0	0.194	461.01	4	48	Target	AvoidedLoss	True
462.01	0.3	Lose2	0.6735	0.004	Yes	3.03	-0.004	1.0	GoodResponse	0	0.194	n/a	4	48	ButtonPress	AvoidedLoss	True
462.1	0.42	Lose2	0.6735	n/a	Yes	3.03	n/a	n/a	GoodResponse	0	n/a	n/a	4	48	Blank	AvoidedLoss	True
462.518	1.45	Lose2	0.6735	n/a	Yes	3.03	n/a	5.0	GoodResponse	0	0.04	461.558	4	48	Feedback	AvoidedLoss	True
463.973	3.03	Lose2	0.6735	n/a	Yes	3.03	n/a	n/a	GoodResponse	0	0.0	n/a	4	48	ISIslide	AvoidedLoss	True
467.015	0.25	Control	0.68	0.0	Yes	2.885	0.015	n/a	GoodResponse	0	n/a	n/a	4	49	Cue	Neutral	False
467.266	4.0	Control	0.68	0.0	Yes	2.885	0.001	1.0	GoodResponse	0	3.854	470.12	4	49	Fixation	Neutral	False
471.12	0.3	Control	0.68	0.0	Yes	2.885	0.001	1.0	GoodResponse	0	3.854	n/a	4	49	ButtonPress	Neutral	False
471.261	0.27	Control	0.68	0.004	Yes	2.885	-0.004	1.0	GoodResponse	0	0.154	470.415	4	49	Target	Neutral	False
471.415	0.3	Control	0.68	0.004	Yes	2.885	-0.004	1.0	GoodResponse	0	0.154	n/a	4	49	ButtonPress	Neutral	False
471.545	0.43	Control	0.68	n/a	Yes	2.885	n/a	n/a	GoodResponse	0	n/a	n/a	4	49	Blank	Neutral	False
471.963	1.45	Control	0.68	n/a	Yes	2.885	n/a	5.0	GoodResponse	0	0.01	470.973	4	49	Feedback	Neutral	False
473.418	2.885	Control	0.68	n/a	Yes	2.885	n/a	n/a	GoodResponse	0	0.0	n/a	4	49	ISIslide	Neutral	False
476.326	0.25	Control	0.6862999999999999	0.0	Yes	2.774	0.026	n/a	GoodResponse	0	n/a	n/a	4	50	Cue	Neutral	True
476.577	4.0	Control	0.6862999999999999	0.0	Yes	2.774	0.001	n/a	GoodResponse	0	n/a	n/a	4	50	Fixation	Neutral	True
480.572	0.26	Control	0.6862999999999999	0.004	Yes	2.774	-0.004	1.0	GoodResponse	0	0.225	479.797	4	50	Target	Neutral	True
480.797	0.3	Control	0.6862999999999999	0.004	Yes	2.774	-0.004	1.0	GoodResponse	0	0.225	n/a	4	50	ButtonPress	Neutral	True
480.84	0.44	Control	0.6862999999999999	n/a	Yes	2.774	n/a	n/a	GoodResponse	0	n/a	n/a	4	50	Blank	Neutral	True
481.274	1.45	Control	0.6862999999999999	n/a	Yes	2.774	n/a	5.0	GoodResponse	0	0.016	480.29	4	50	Feedback	Neutral	True
482.729	2.774	Control	0.6862999999999999	n/a	Yes	2.774	n/a	n/a	GoodResponse	0	0.0	n/a	4	50	ISIslide	Neutral	True
485.52	0.25	Control	0.6923	0.001	Yes	2.73	0.02	n/a	GoodResponse	0	n/a	n/a	4	51	Cue	Neutral	True
485.771	3.95	Control	0.6923	0.0	Yes	2.73	0.001	n/a	GoodResponse	0	n/a	n/a	4	51	Fixation	Neutral	True
489.716	0.25	Control	0.6923	0.004	Yes	2.73	-0.004	1.0	GoodResponse	0	0.174	488.89	4	51	Target	Neutral	True
489.89	0.3	Control	0.6923	0.004	Yes	2.73	-0.004	1.0	GoodResponse	0	0.174	n/a	4	51	ButtonPress	Neutral	True
489.967	0.45	Control	0.6923	n/a	Yes	2.73	n/a	n/a	GoodResponse	0	n/a	n/a	4	51	Blank	Neutral	True
490.418	1.45	Control	0.6923	n/a	Yes	2.73	n/a	5.0	GoodResponse	0	0.043	489.461	4	51	Feedback	Neutral	True
491.873	2.73	Control	0.6923	n/a	Yes	2.73	n/a	n/a	GoodResponse	0	0.0	n/a	4	51	ISIslide	Neutral	True
494.631	0.25	Control	0.6792	0.0	No	2.619	0.031	n/a	NoResponse	0	n/a	n/a	4	52	Cue	Neutral	True
494.882	4.05	Control	0.6792	0.0	No	2.619	0.001	n/a	NoResponse	0	n/a	n/a	4	52	Fixation	Neutral	True
498.927	0.24	Control	0.6792	0.004	No	2.619	-0.004	1.0	NoResponse	0	0.329	498.256	4	52	Target	Neutral	True
499.178	0.46	Control	0.6792	n/a	No	2.619	n/a	n/a	NoResponse	0	n/a	n/a	4	52	Blank	Neutral	True
499.256	0.3	Control	0.6792	0.004	No	2.619	-0.004	1.0	NoResponse	0	0.329	n/a	4	52	ButtonPress	Neutral	True
499.629	1.45	Control	0.6792	n/a	No	2.619	n/a	5.0	NoResponse	0	0.008	498.637	4	52	Feedback	Neutral	True
501.084	2.619	Control	0.6792	n/a	No	2.619	n/a	n/a	NoResponse	0	0.0	n/a	4	52	ISIslide	Neutral	True
503.725	0.25	Win2	0.6851999999999999	0.0	Yes	2.925	0.025	n/a	GoodResponse	1	n/a	n/a	5	53	Cue	Win	True
503.976	4.05	Win2	0.6851999999999999	0.0	Yes	2.925	0.001	n/a	GoodResponse	1	n/a	n/a	5	53	Fixation	Win	True
508.021	0.23	Win2	0.6851999999999999	0.004	Yes	2.925	-0.004	1.0	GoodResponse	1	0.181	507.202	5	53	Target	Win	True
508.202	0.3	Win2	0.6851999999999999	0.004	Yes	2.925	-0.004	1.0	GoodResponse	1	0.181	n/a	5	53	ButtonPress	Win	True
508.255	0.47	Win2	0.6851999999999999	n/a	Yes	2.925	n/a	n/a	GoodResponse	1	n/a	n/a	5	53	Blank	Win	True
508.723	1.45	Win2	0.6851999999999999	n/a	Yes	2.925	n/a	5.0	GoodResponse	1	0.03	507.753	5	53	Feedback	Win	True
510.178	2.925	Win2	0.6851999999999999	n/a	Yes	2.925	n/a	n/a	GoodResponse	1	0.0	n/a	5	53	ISIslide	Win	True
513.12	0.25	Win2	0.6909000000000001	0.0	Yes	2.73	0.02	n/a	GoodResponse	1	n/a	n/a	6	54	Cue	Win	True
513.37	3.95	Win2	0.6909000000000001	0.0	Yes	2.73	0.0	n/a	GoodResponse	1	n/a	n/a	6	54	Fixation	Win	True
517.316	0.22	Win2	0.6909000000000001	0.004	Yes	2.73	-0.004	1.0	GoodResponse	1	0.188	516.504	6	54	Target	Win	True
517.504	0.3	Win2	0.6909000000000001	0.004	Yes	2.73	-0.004	1.0	GoodResponse	1	0.188	n/a	6	54	ButtonPress	Win	True
517.55	0.48	Win2	0.6909000000000001	n/a	Yes	2.73	n/a	n/a	GoodResponse	1	n/a	n/a	6	54	Blank	Win	True
518.018	1.45	Win2	0.6909000000000001	n/a	Yes	2.73	n/a	5.0	GoodResponse	1	0.007	517.025	6	54	Feedback	Win	True
519.472	2.73	Win2	0.6909000000000001	n/a	Yes	2.73	n/a	n/a	GoodResponse	1	0.0	n/a	6	54	ISIslide	Win	True
522.23	0.25	Control	0.6786	0.0	No	3.02	0.03	n/a	NoResponse	0	n/a	n/a	6	55	Cue	Neutral	False
522.481	3.95	Control	0.6786	0.0	No	3.02	0.001	1.0	NoResponse	0	3.84	525.321	6	55	Fixation	Neutral	False
526.321	0.3	Control	0.6786	0.0	No	3.02	0.001	1.0	NoResponse	0	3.84	n/a	6	55	ButtonPress	Neutral	False
526.426	0.21	Control	0.6786	0.004	No	3.02	-0.004	1.0	NoResponse	0	0.225	525.651	6	55	Target	Neutral	False
526.643	0.49	Control	0.6786	n/a	No	3.02	n/a	n/a	NoResponse	0	n/a	n/a	6	55	Blank	Neutral	False
526.651	0.3	Control	0.6786	0.004	No	3.02	-0.004	1.0	NoResponse	0	0.225	n/a	6	55	ButtonPress	Neutral	False
527.128	1.45	Control	0.6786	n/a	No	3.02	n/a	5.0	NoResponse	0	0.015	526.143	6	55	Feedback	Neutral	False
528.583	3.02	Control	0.6786	n/a	No	3.02	n/a	n/a	NoResponse	0	0.0	n/a	6	55	ISIslide	Neutral	False
531.625	0.25	Control	0.6842	0.0	Yes	2.825	0.025	n/a	GoodResponse	0	n/a	n/a	6	56	Cue	Neutral	True
531.876	3.95	Control	0.6842	0.0	Yes	2.825	0.001	n/a	GoodResponse	0	n/a	n/a	6	56	Fixation	Neutral	True
535.821	0.2	Control	0.6842	0.004	Yes	2.825	-0.004	1.0	GoodResponse	0	0.184	535.005	6	56	Target	Neutral	True
536.005	0.3	Control	0.6842	0.004	Yes	2.825	-0.004	1.0	GoodResponse	0	0.184	n/a	6	56	ButtonPress	Neutral	True
536.021	0.5	Control	0.6842	n/a	Yes	2.825	n/a	n/a	GoodResponse	0	n/a	n/a	6	56	Blank	Neutral	True
536.523	1.45	Control	0.6842	n/a	Yes	2.825	n/a	5.0	GoodResponse	0	0.034	535.557	6	56	Feedback	Neutral	True
537.977	2.825	Control	0.6842	n/a	Yes	2.825	n/a	n/a	GoodResponse	0	0.0	n/a	6	56	ISIslide	Neutral	True
540.819	0.25	Control	0.6724	0.0	No	3.481	0.019	n/a	NoResponse	0	n/a	n/a	6	57	Cue	Neutral	True
541.07	4.0	Control	0.6724	0.0	No	3.481	0.001	1.0	NoResponse	0	3.643	543.713	6	57	Fixation	Neutral	True
544.713	0.3	Control	0.6724	0.0	No	3.481	0.001	1.0	NoResponse	0	3.643	n/a	6	57	ButtonPress	Neutral	True
545.065	0.19	Control	0.6724	0.004	No	3.481	-0.004	n/a	NoResponse	0	n/a	n/a	6	57	Target	Neutral	True
545.266	0.51	Control	0.6724	n/a	No	3.481	n/a	n/a	NoResponse	0	n/a	n/a	6	57	Blank	Neutral	True
545.767	1.45	Control	0.6724	n/a	No	3.481	n/a	5.0	NoResponse	0	0.01	544.777	6	57	Feedback	Neutral	True
547.222	3.481	Control	0.6724	n/a	No	3.481	n/a	n/a	NoResponse	0	0.0	n/a	6	57	ISIslide	Neutral	True
550.732	0.25	Win2	0.6609999999999999	0.0	No	2.718	0.032	n/a	NoResponse	0	n/a	n/a	6	58	Cue	MissedWin	True
550.983	4.05	Win2	0.6609999999999999	0.0	No	2.718	0.001	n/a	NoResponse	0	n/a	n/a	6	58	Fixation	MissedWin	True
555.028	0.18	Win2	0.6609999999999999	0.004	No	2.718	-0.004	1.0	NoResponse	0	0.192	554.22	6	58	Target	MissedWin	True
555.212	0.52	Win2	0.6609999999999999	n/a	No	2.718	n/a	n/a	NoResponse	0	n/a	n/a	6	58	Blank	MissedWin	True
555.22	0.3	Win2	0.6609999999999999	0.004	No	2.718	-0.004	1.0	NoResponse	0	0.192	n/a	6	58	ButtonPress	MissedWin	True
555.73	1.45	Win2	0.6609999999999999	n/a	No	2.718	n/a	5.0	NoResponse	0	0.047	554.777	6	58	Feedback	MissedWin	True
557.185	2.718	Win2	0.6609999999999999	n/a	No	2.718	n/a	n/a	NoResponse	0	0.0	n/a	6	58	ISIslide	MissedWin	True
559.926	0.25	Lose2	0.6667000000000001	0.0	Yes	2.674	0.026	n/a	GoodResponse	0	n/a	n/a	6	59	Cue	AvoidedLoss	True
560.177	4.0	Lose2	0.6667000000000001	0.0	Yes	2.674	0.001	n/a	GoodResponse	0	n/a	n/a	6	59	Fixation	AvoidedLoss	True
564.172	0.18	Lose2	0.6667000000000001	0.004	Yes	2.674	-0.004	1.0	GoodResponse	0	0.178	563.35	6	59	Target	AvoidedLoss	True
564.35	0.3	Lose2	0.6667000000000001	0.004	Yes	2.674	-0.004	1.0	GoodResponse	0	0.178	n/a	6	59	ButtonPress	AvoidedLoss	True
564.356	0.52	Lose2	0.6667000000000001	n/a	Yes	2.674	n/a	n/a	GoodResponse	0	n/a	n/a	6	59	Blank	AvoidedLoss	True
564.874	1.45	Lose2	0.6667000000000001	n/a	Yes	2.674	n/a	5.0	GoodResponse	0	0.025	563.899	6	59	Feedback	AvoidedLoss	True
566.329	2.674	Lose2	0.6667000000000001	n/a	Yes	2.674	n/a	n/a	GoodResponse	0	0.0	n/a	6	59	ISIslide	AvoidedLoss	True
569.02	0.25	Control	0.6557	0.0	No	2.68	0.02	n/a	LatePress	0	n/a	n/a	6	60	Cue	Neutral	True
569.271	4.0	Control	0.6557	0.0	No	2.68	0.001	n/a	LatePress	0	n/a	n/a	6	60	Fixation	Neutral	True
573.266	0.17	Control	0.6557	0.004	No	2.68	-0.004	1.0	LatePress	0	0.182	572.448	6	60	Target	Neutral	True
573.448	0.3	Control	0.6557	0.004	No	2.68	-0.004	1.0	LatePress	0	0.182	n/a	6	60	ButtonPress	Neutral	True
573.45	0.53	Control	0.6557	n/a	No	2.68	n/a	n/a	LatePress	0	n/a	n/a	6	60	Blank	Neutral	True
573.968	1.45	Control	0.6557	n/a	No	2.68	n/a	5.0	LatePress	0	0.007	572.975	6	60	Feedback	Neutral	True
575.423	2.68	Control	0.6557	n/a	No	2.68	n/a	n/a	LatePress	0	0.0	n/a	6	60	ISIslide	Neutral	True
578.131	0.25	Lose2	0.6452	0.0	No	2.969	0.031	n/a	LatePress	-1	n/a	n/a	5	61	Cue	Loss	True
578.381	4.0	Lose2	0.6452	0.001	No	2.969	0.0	n/a	LatePress	-1	n/a	n/a	5	61	Fixation	Loss	True
582.377	0.17	Lose2	0.6452	0.004	No	2.969	-0.004	1.0	LatePress	-1	0.177	581.554	5	61	Target	Loss	True
582.554	0.3	Lose2	0.6452	0.004	No	2.969	-0.004	1.0	LatePress	-1	0.177	n/a	5	61	ButtonPress	Loss	True
582.561	0.53	Lose2	0.6452	n/a	No	2.969	n/a	n/a	LatePress	-1	n/a	n/a	5	61	Blank	Loss	True
583.079	1.45	Lose2	0.6452	n/a	No	2.969	n/a	5.0	LatePress	-1	0.014	582.093	5	61	Feedback	Loss	True
584.533	2.969	Lose2	0.6452	n/a	No	2.969	n/a	n/a	LatePress	-1	0.0	n/a	5	61	ISIslide	Loss	True
587.525	0.25	Lose2	0.6349	0.001	No	2.875	0.025	n/a	NoResponse	-1	n/a	n/a	4	62	Cue	Loss	True
587.776	3.9	Lose2	0.6349	0.0	No	2.875	0.001	n/a	NoResponse	-1	n/a	n/a	4	62	Fixation	Loss	True
591.671	0.18	Lose2	0.6349	0.004	No	2.875	-0.004	1.0	NoResponse	-1	0.193	590.864	4	62	Target	Loss	True
591.855	0.52	Lose2	0.6349	n/a	No	2.875	n/a	n/a	NoResponse	-1	n/a	n/a	4	62	Blank	Loss	True
591.864	0.3	Lose2	0.6349	0.004	No	2.875	-0.004	1.0	NoResponse	-1	0.193	n/a	4	62	ButtonPress	Loss	True
592.373	1.45	Lose2	0.6349	n/a	No	2.875	n/a	5.0	NoResponse	-1	0.037	591.41	4	62	Feedback	Loss	True
593.828	2.875	Lose2	0.6349	n/a	No	2.875	n/a	n/a	NoResponse	-1	0.0	n/a	4	62	ISIslide	Loss	True
596.72	0.25	Lose2	0.6406000000000001	0.0	Yes	2.63	0.02	n/a	GoodResponse	0	n/a	n/a	4	63	Cue	AvoidedLoss	True
596.97	4.05	Lose2	0.6406000000000001	0.0	Yes	2.63	0.0	n/a	GoodResponse	0	n/a	n/a	4	63	Fixation	AvoidedLoss	True
601.016	0.19	Lose2	0.6406000000000001	0.004	Yes	2.63	-0.004	1.0	GoodResponse	0	0.178	600.194	4	63	Target	AvoidedLoss	True
601.194	0.3	Lose2	0.6406000000000001	0.004	Yes	2.63	-0.004	1.0	GoodResponse	0	0.178	n/a	4	63	ButtonPress	AvoidedLoss	True
601.216	0.51	Lose2	0.6406000000000001	n/a	Yes	2.63	n/a	n/a	GoodResponse	0	n/a	n/a	4	63	Blank	AvoidedLoss	True
601.718	1.45	Lose2	0.6406000000000001	n/a	Yes	2.63	n/a	5.0	GoodResponse	0	0.01	600.728	4	63	Feedback	AvoidedLoss	True
603.172	2.63	Lose2	0.6406000000000001	n/a	Yes	2.63	n/a	n/a	GoodResponse	0	0.0	n/a	4	63	ISIslide	AvoidedLoss	True
605.83	0.25	Win2	0.6308	0.0	No	3.12	0.03	n/a	NoResponse	0	n/a	n/a	4	64	Cue	MissedWin	False
606.081	4.15	Win2	0.6308	0.0	No	3.12	0.001	1.0	NoResponse	0	4.077	609.158	4	64	Fixation	MissedWin	False
610.158	0.3	Win2	0.6308	0.0	No	3.12	0.001	1.0	NoResponse	0	4.077	n/a	4	64	ButtonPress	MissedWin	False
610.227	0.2	Win2	0.6308	0.003	No	3.12	-0.003	1.0	NoResponse	0	0.225	609.452	4	64	Target	MissedWin	False
610.427	0.5	Win2	0.6308	n/a	No	3.12	n/a	n/a	NoResponse	0	n/a	n/a	4	64	Blank	MissedWin	False
610.452	0.3	Win2	0.6308	0.003	No	3.12	-0.003	1.0	NoResponse	0	0.225	n/a	4	64	ButtonPress	MissedWin	False
610.929	1.45	Win2	0.6308	n/a	No	3.12	n/a	5.0	NoResponse	0	0.018	609.947	4	64	Feedback	MissedWin	False
612.383	3.12	Win2	0.6308	n/a	No	3.12	n/a	n/a	NoResponse	0	0.0	n/a	4	64	ISIslide	MissedWin	False
615.526	0.25	Control	0.6364	0.0	Yes	2.774	0.026	n/a	GoodResponse	0	n/a	n/a	4	65	Cue	Neutral	True
615.777	4.0	Control	0.6364	0.0	Yes	2.774	0.001	n/a	GoodResponse	0	n/a	n/a	4	65	Fixation	Neutral	True
619.772	0.21	Control	0.6364	0.004	Yes	2.774	-0.004	1.0	GoodResponse	0	0.19	618.962	4	65	Target	Neutral	True
619.962	0.3	Control	0.6364	0.004	Yes	2.774	-0.004	1.0	GoodResponse	0	0.19	n/a	4	65	ButtonPress	Neutral	True
619.989	0.49	Control	0.6364	n/a	Yes	2.774	n/a	n/a	GoodResponse	0	n/a	n/a	4	65	Blank	Neutral	True
620.474	1.45	Control	0.6364	n/a	Yes	2.774	n/a	5.0	GoodResponse	0	0.033	619.507	4	65	Feedback	Neutral	True
621.928	2.774	Control	0.6364	n/a	Yes	2.774	n/a	n/a	GoodResponse	0	0.0	n/a	4	65	ISIslide	Neutral	True
624.72	0.25	Win2	0.6269	0.0	No	2.78	0.02	n/a	PrematurePress	0	n/a	n/a	4	66	Cue	MissedWin	True
624.971	3.9	Win2	0.6269	0.0	No	2.78	0.001	n/a	PrematurePress	0	n/a	n/a	4	66	Fixation	MissedWin	True
628.866	0.22	Win2	0.6269	0.004	No	2.78	-0.004	1.0	PrematurePress	0	0.067	627.933	4	66	Target	MissedWin	True
628.933	0.3	Win2	0.6269	0.004	No	2.78	-0.004	1.0	PrematurePress	0	0.067	n/a	4	66	ButtonPress	MissedWin	True
629.1	0.48	Win2	0.6269	n/a	No	2.78	n/a	n/a	PrematurePress	0	n/a	n/a	4	66	Blank	MissedWin	True
629.568	1.45	Win2	0.6269	n/a	No	2.78	n/a	5.0	PrematurePress	0	0.013	628.581	4	66	Feedback	MissedWin	True
631.022	2.78	Win2	0.6269	n/a	No	2.78	n/a	n/a	PrematurePress	0	0.0	n/a	4	66	ISIslide	MissedWin	True
633.831	0.25	Control	0.6175999999999999	0.0	No	2.719	0.031	n/a	NoResponse	0	n/a	n/a	4	67	Cue	Neutral	True
634.081	3.95	Control	0.6175999999999999	0.0	No	2.719	0.0	n/a	NoResponse	0	n/a	n/a	4	67	Fixation	Neutral	True
638.043	0.23	Control	0.6175999999999999	0.0	No	2.719	0.012	1.0	NoResponse	0	0.226	637.269	4	67	Target	Neutral	True
638.26	0.47	Control	0.6175999999999999	n/a	No	2.719	n/a	n/a	NoResponse	0	n/a	n/a	4	67	Blank	Neutral	True
638.269	0.3	Control	0.6175999999999999	0.0	No	2.719	0.012	1.0	NoResponse	0	0.226	n/a	4	67	ButtonPress	Neutral	True
638.729	1.45	Control	0.6175999999999999	n/a	No	2.719	n/a	5.0	NoResponse	0	0.023	637.752	4	67	Feedback	Neutral	True
640.183	2.719	Control	0.6175999999999999	n/a	No	2.719	n/a	n/a	NoResponse	0	0.0	n/a	4	67	ISIslide	Neutral	True
642.924	0.25	Win2	0.6232	0.001	Yes	3.076	0.024	n/a	GoodResponse	1	n/a	n/a	5	68	Cue	Win	True
643.175	4.0	Win2	0.6232	0.0	Yes	3.076	0.001	n/a	GoodResponse	1	n/a	n/a	5	68	Fixation	Win	True
647.17	0.24	Win2	0.6232	0.004	Yes	3.076	-0.004	1.0	GoodResponse	1	0.194	646.364	5	68	Target	Win	True
647.364	0.3	Win2	0.6232	0.004	Yes	3.076	-0.004	1.0	GoodResponse	1	0.194	n/a	5	68	ButtonPress	Win	True
647.421	0.46	Win2	0.6232	n/a	Yes	3.076	n/a	n/a	GoodResponse	1	n/a	n/a	5	68	Blank	Win	True
647.873	1.45	Win2	0.6232	n/a	Yes	3.076	n/a	5.0	GoodResponse	1	0.001	646.874	5	68	Feedback	Win	True
649.327	3.076	Win2	0.6232	n/a	Yes	3.076	n/a	n/a	GoodResponse	1	0.0	n/a	5	68	ISIslide	Win	True
652.419	0.25	Win2	0.6286	0.001	Yes	3.231	0.019	n/a	GoodResponse	1	n/a	n/a	6	69	Cue	Win	True
652.67	3.95	Win2	0.6286	0.0	Yes	3.231	0.001	n/a	GoodResponse	1	n/a	n/a	6	69	Fixation	Win	True
656.615	0.25	Win2	0.6286	0.004	Yes	3.231	-0.004	1.0	GoodResponse	1	0.188	655.803	6	69	Target	Win	True
656.803	0.3	Win2	0.6286	0.004	Yes	3.231	-0.004	1.0	GoodResponse	1	0.188	n/a	6	69	ButtonPress	Win	True
656.866	0.45	Win2	0.6286	n/a	Yes	3.231	n/a	n/a	GoodResponse	1	n/a	n/a	6	69	Blank	Win	True
657.317	1.45	Win2	0.6286	n/a	Yes	3.231	n/a	5.0	GoodResponse	1	0.02	656.337	6	69	Feedback	Win	True
658.772	3.231	Win2	0.6286	n/a	Yes	3.231	n/a	n/a	GoodResponse	1	0.0	n/a	6	69	ISIslide	Win	True
662.032	0.25	Lose2	0.6338	0.0	Yes	3.018	0.032	n/a	GoodResponse	0	n/a	n/a	6	70	Cue	AvoidedLoss	True
662.282	4.05	Lose2	0.6338	0.0	Yes	3.018	0.0	n/a	GoodResponse	0	n/a	n/a	6	70	Fixation	AvoidedLoss	True
666.328	0.26	Lose2	0.6338	0.004	Yes	3.018	-0.004	1.0	GoodResponse	0	0.18	665.508	6	70	Target	AvoidedLoss	True
666.508	0.3	Lose2	0.6338	0.004	Yes	3.018	-0.004	1.0	GoodResponse	0	0.18	n/a	6	70	ButtonPress	AvoidedLoss	True
666.595	0.44	Lose2	0.6338	n/a	Yes	3.018	n/a	n/a	GoodResponse	0	n/a	n/a	6	70	Blank	AvoidedLoss	True
667.03	1.45	Lose2	0.6338	n/a	Yes	3.018	n/a	5.0	GoodResponse	0	0.014	666.044	6	70	Feedback	AvoidedLoss	True
668.484	3.018	Lose2	0.6338	n/a	Yes	3.018	n/a	n/a	GoodResponse	0	0.0	n/a	6	70	ISIslide	AvoidedLoss	True
671.527	0.25	Win2	0.6389	0.0	Yes	2.723	0.027	n/a	GoodResponse	1	n/a	n/a	7	71	Cue	Win	True
671.777	4.05	Win2	0.6389	0.0	Yes	2.723	0.0	n/a	GoodResponse	1	n/a	n/a	7	71	Fixation	Win	True
675.823	0.27	Win2	0.6389	0.004	Yes	2.723	-0.004	1.0	GoodResponse	1	0.185	675.008	7	71	Target	Win	True
676.008	0.3	Win2	0.6389	0.004	Yes	2.723	-0.004	1.0	GoodResponse	1	0.185	n/a	7	71	ButtonPress	Win	True
676.107	0.43	Win2	0.6389	n/a	Yes	2.723	n/a	n/a	GoodResponse	1	n/a	n/a	7	71	Blank	Win	True
676.525	1.45	Win2	0.6389	n/a	Yes	2.723	n/a	5.0	GoodResponse	1	0.031	675.556	7	71	Feedback	Win	True
677.979	2.723	Win2	0.6389	n/a	Yes	2.723	n/a	n/a	GoodResponse	1	0.0	n/a	7	71	ISIslide	Win	True
680.721	0.25	Win2	0.6437999999999999	0.0	Yes	2.779	0.021	n/a	GoodResponse	1	n/a	n/a	8	72	Cue	Win	True
680.971	4.1	Win2	0.6437999999999999	0.001	Yes	2.779	0.0	n/a	GoodResponse	1	n/a	n/a	8	72	Fixation	Win	True
685.067	0.28	Win2	0.6437999999999999	0.004	Yes	2.779	-0.004	1.0	GoodResponse	1	0.117	684.184	8	72	Target	Win	True
685.184	0.3	Win2	0.6437999999999999	0.004	Yes	2.779	-0.004	1.0	GoodResponse	1	0.117	n/a	8	72	ButtonPress	Win	True
685.351	0.42	Win2	0.6437999999999999	n/a	Yes	2.779	n/a	n/a	GoodResponse	1	n/a	n/a	8	72	Blank	Win	True
685.769	1.45	Win2	0.6437999999999999	n/a	Yes	2.779	n/a	5.0	GoodResponse	1	0.008	684.777	8	72	Feedback	Win	True
687.224	2.779	Win2	0.6437999999999999	n/a	Yes	2.779	n/a	n/a	GoodResponse	1	0.0	n/a	8	72	ISIslide	Win	True
690.032	0.25	Win2	0.6486	0.0	Yes	2.668	0.032	n/a	GoodResponse	1	n/a	n/a	9	73	Cue	Win	True
690.283	4.0	Win2	0.6486	0.0	Yes	2.668	0.001	n/a	GoodResponse	1	n/a	n/a	9	73	Fixation	Win	True
694.278	0.29	Win2	0.6486	0.004	Yes	2.668	-0.004	1.0	GoodResponse	1	0.191	693.469	9	73	Target	Win	True
694.469	0.3	Win2	0.6486	0.004	Yes	2.668	-0.004	1.0	GoodResponse	1	0.191	n/a	9	73	ButtonPress	Win	True
694.579	0.41	Win2	0.6486	n/a	Yes	2.668	n/a	n/a	GoodResponse	1	n/a	n/a	9	73	Blank	Win	True
694.98	1.45	Win2	0.6486	n/a	Yes	2.668	n/a	5.0	GoodResponse	1	0.015	693.995	9	73	Feedback	Win	True
696.434	2.668	Win2	0.6486	n/a	Yes	2.668	n/a	n/a	GoodResponse	1	0.0	n/a	9	73	ISIslide	Win	True
699.126	0.25	Lose2	0.6533	0.0	Yes	2.624	0.026	n/a	GoodResponse	0	n/a	n/a	9	74	Cue	AvoidedLoss	True
699.377	4.05	Lose2	0.6533	0.0	Yes	2.624	0.001	n/a	GoodResponse	0	n/a	n/a	9	74	Fixation	AvoidedLoss	True
703.422	0.3	Lose2	0.6533	0.004	Yes	2.624	-0.004	1.0	GoodResponse	0	0.181	702.603	9	74	Target	AvoidedLoss	True
703.603	0.3	Lose2	0.6533	0.004	Yes	2.624	-0.004	1.0	GoodResponse	0	0.181	n/a	9	74	ButtonPress	AvoidedLoss	True
703.723	0.4	Lose2	0.6533	n/a	Yes	2.624	n/a	n/a	GoodResponse	0	n/a	n/a	9	74	Blank	AvoidedLoss	True
704.124	1.45	Lose2	0.6533	n/a	Yes	2.624	n/a	5.0	GoodResponse	0	0.042	703.166	9	74	Feedback	AvoidedLoss	True
705.578	2.624	Lose2	0.6533	n/a	Yes	2.624	n/a	n/a	GoodResponse	0	0.0	n/a	9	74	ISIslide	AvoidedLoss	True
708.22	0.25	Lose2	0.6446999999999999	0.0	No	2.93	0.02	n/a	PrematurePress	-1	n/a	n/a	8	75	Cue	Loss	True
708.47	3.95	Lose2	0.6446999999999999	0.001	No	2.93	0.0	n/a	PrematurePress	-1	n/a	n/a	8	75	Fixation	Loss	True
712.416	0.31	Lose2	0.6446999999999999	0.004	No	2.93	-0.004	1.0	PrematurePress	-1	0.036	711.452	8	75	Target	Loss	True
712.452	0.3	Lose2	0.6446999999999999	0.004	No	2.93	-0.004	1.0	PrematurePress	-1	0.036	n/a	8	75	ButtonPress	Loss	True
712.733	0.39	Lose2	0.6446999999999999	n/a	No	2.93	n/a	n/a	PrematurePress	-1	n/a	n/a	8	75	Blank	Loss	True
713.118	1.45	Lose2	0.6446999999999999	n/a	No	2.93	n/a	5.0	PrematurePress	-1	0.023	712.141	8	75	Feedback	Loss	True
714.572	2.93	Lose2	0.6446999999999999	n/a	No	2.93	n/a	n/a	PrematurePress	-1	0.0	n/a	8	75	ISIslide	Loss	True
717.531	0.25	Control	0.6494	0.0	Yes	3.219	0.031	n/a	GoodResponse	0	n/a	n/a	8	76	Cue	Neutral	True
717.782	4.05	Control	0.6494	0.0	Yes	3.219	0.001	n/a	GoodResponse	0	n/a	n/a	8	76	Fixation	Neutral	True
721.827	0.32	Control	0.6494	0.004	Yes	3.219	-0.004	1.0	GoodResponse	0	0.187	721.014	8	76	Target	Neutral	True
722.014	0.3	Control	0.6494	0.004	Yes	3.219	-0.004	1.0	GoodResponse	0	0.187	n/a	8	76	ButtonPress	Neutral	True
722.161	0.38	Control	0.6494	n/a	Yes	3.219	n/a	n/a	GoodResponse	0	n/a	n/a	8	76	Blank	Neutral	True
722.529	1.45	Control	0.6494	n/a	Yes	3.219	n/a	5.0	GoodResponse	0	0.026	721.555	8	76	Feedback	Neutral	True
723.983	3.219	Control	0.6494	n/a	Yes	3.219	n/a	n/a	GoodResponse	0	0.0	n/a	8	76	ISIslide	Neutral	True
727.226	0.25	Lose2	0.6537999999999999	0.001	Yes	2.574	0.026	n/a	GoodResponse	0	n/a	n/a	8	77	Cue	AvoidedLoss	True
727.477	3.95	Lose2	0.6537999999999999	0.0	Yes	2.574	0.001	n/a	GoodResponse	0	n/a	n/a	8	77	Fixation	AvoidedLoss	True
731.422	0.33	Lose2	0.6537999999999999	0.004	Yes	2.574	-0.004	1.0	GoodResponse	0	0.198	730.62	8	77	Target	AvoidedLoss	True
731.62	0.3	Lose2	0.6537999999999999	0.004	Yes	2.574	-0.004	1.0	GoodResponse	0	0.198	n/a	8	77	ButtonPress	AvoidedLoss	True
731.757	0.37	Lose2	0.6537999999999999	n/a	Yes	2.574	n/a	n/a	GoodResponse	0	n/a	n/a	8	77	Blank	AvoidedLoss	True
732.124	1.45	Lose2	0.6537999999999999	n/a	Yes	2.574	n/a	5.0	GoodResponse	0	0.041	731.165	8	77	Feedback	AvoidedLoss	True
733.579	2.574	Lose2	0.6537999999999999	n/a	Yes	2.574	n/a	n/a	GoodResponse	0	0.0	n/a	8	77	ISIslide	AvoidedLoss	True
