onset	duration	cue_type	current_mean_accuracy	duration_error	is_hit	isi_adjusted	onset_delay	response	response_type	reward	rt	rt_time	total_reward	trial_number	trial_phase	trial_type	one_press
11.112	0.25	Control	0.0	0.0	No	2.938	0.012	n/a	NoResponse	0	n/a	n/a	0	0	Cue	Neutral	True
11.362	3.85	Control	0.0	0.0	No	2.938	0.0	n/a	NoResponse	0	n/a	n/a	0	0	Fixation	Neutral	True
15.224	0.4	Control	0.0	0.0	No	2.938	0.012	4.0	NoResponse	0	0.393	14.617	0	0	Target	Neutral	True
15.608	0.3	Control	0.0	n/a	No	2.938	n/a	n/a	NoResponse	0	n/a	n/a	0	0	Blank	Neutral	True
15.617	0.3	Control	0.0	0.0	No	2.938	0.012	4.0	NoResponse	0	0.393	n/a	0	0	ButtonPress	Neutral	True
15.909	1.45	Control	0.0	n/a	No	2.938	n/a	5	NoResponse	0	0.019	14.928	0	0	Feedback	Neutral	True
17.364	2.938	Control	0.0	n/a	No	2.938	n/a	n/a	NoResponse	0	0.0	n/a	0	0	ISIslide	Neutral	True
20.322	0.25	Lose2	0.5	0.001	Yes	2.778	0.022	n/a	GoodResponse	0	n/a	n/a	0	1	Cue	AvoidedLoss	True
20.573	4.0	Lose2	0.5	0.0	Yes	2.778	0.001	n/a	GoodResponse	0	n/a	n/a	0	1	Fixation	AvoidedLoss	True
24.568	0.41	Lose2	0.5	0.004	Yes	2.778	-0.004	4.0	GoodResponse	0	0.271	23.839	0	1	Target	AvoidedLoss	True
24.839	0.3	Lose2	0.5	0.004	Yes	2.778	-0.004	4.0	GoodResponse	0	0.271	n/a	0	1	ButtonPress	AvoidedLoss	True
24.986	0.29	Lose2	0.5	n/a	Yes	2.778	n/a	n/a	GoodResponse	0	n/a	n/a	0	1	Blank	AvoidedLoss	True
25.271	1.45	Lose2	0.5	n/a	Yes	2.778	n/a	5	GoodResponse	0	0.023	24.294	0	1	Feedback	AvoidedLoss	True
26.725	2.778	Lose2	0.5	n/a	Yes	2.778	n/a	n/a	GoodResponse	0	0.0	n/a	0	1	ISIslide	AvoidedLoss	True
29.517	0.25	Control	0.6667000000000001	0.0	Yes	2.583	0.017	n/a	GoodResponse	0	n/a	n/a	0	2	Cue	Neutral	True
29.767	4.1	Control	0.6667000000000001	0.0	Yes	2.583	0.0	n/a	GoodResponse	0	n/a	n/a	0	2	Fixation	Neutral	True
33.863	0.42	Control	0.6667000000000001	0.004	Yes	2.583	-0.004	4.0	GoodResponse	0	0.391	33.254	0	2	Target	Neutral	True
34.254	0.3	Control	0.6667000000000001	0.004	Yes	2.583	-0.004	4.0	GoodResponse	0	0.391	n/a	0	2	ButtonPress	Neutral	True
34.298	0.28	Control	0.6667000000000001	n/a	Yes	2.583	n/a	n/a	GoodResponse	0	n/a	n/a	0	2	Blank	Neutral	True
34.565	1.45	Control	0.6667000000000001	n/a	Yes	2.583	n/a	5	GoodResponse	0	0.046	33.611	0	2	Feedback	Neutral	True
36.019	2.583	Control	0.6667000000000001	n/a	Yes	2.583	n/a	n/a	GoodResponse	0	0.0	n/a	0	2	ISIslide	Neutral	True
38.627	0.25	Win2	0.75	0.0	Yes	2.823	0.027	n/a	GoodResponse	1	n/a	n/a	1	3	Cue	Win	True
38.878	3.95	Win2	0.75	0.0	Yes	2.823	0.001	n/a	GoodResponse	1	n/a	n/a	1	3	Fixation	Win	True
42.823	0.41	Win2	0.75	0.004	Yes	2.823	-0.004	4.0	GoodResponse	1	0.25	42.073	1	3	Target	Win	True
43.073	0.3	Win2	0.75	0.004	Yes	2.823	-0.004	4.0	GoodResponse	1	0.25	n/a	1	3	ButtonPress	Win	True
43.241	0.29	Win2	0.75	n/a	Yes	2.823	n/a	n/a	GoodResponse	1	n/a	n/a	1	3	Blank	Win	True
43.525	1.45	Win2	0.75	n/a	Yes	2.823	n/a	5	GoodResponse	1	0.013	42.538	1	3	Feedback	Win	True
44.979	2.823	Win2	0.75	n/a	Yes	2.823	n/a	n/a	GoodResponse	1	0.0	n/a	1	3	ISIslide	Win	True
47.821	0.25	Win2	0.8	0.0	Yes	3.279	0.021	n/a	GoodResponse	1	n/a	n/a	2	4	Cue	Win	True
48.072	4.0	Win2	0.8	0.0	Yes	3.279	0.001	n/a	GoodResponse	1	n/a	n/a	2	4	Fixation	Win	True
52.067	0.4	Win2	0.8	0.004	Yes	3.279	-0.004	4.0	GoodResponse	1	0.221	51.288	2	4	Target	Win	True
52.288	0.3	Win2	0.8	0.004	Yes	3.279	-0.004	4.0	GoodResponse	1	0.221	n/a	2	4	ButtonPress	Win	True
52.469	0.3	Win2	0.8	n/a	Yes	3.279	n/a	n/a	GoodResponse	1	n/a	n/a	2	4	Blank	Win	True
52.769	1.45	Win2	0.8	n/a	Yes	3.279	n/a	5	GoodResponse	1	0.038	51.807	2	4	Feedback	Win	True
54.224	3.279	Win2	0.8	n/a	Yes	3.279	n/a	n/a	GoodResponse	1	0.0	n/a	2	4	ISIslide	Win	True
57.517	0.25	Win2	0.8332999999999999	0.0	Yes	2.783	0.017	n/a	GoodResponse	1	n/a	n/a	3	5	Cue	Win	True
57.768	4.0	Win2	0.8332999999999999	0.0	Yes	2.783	0.001	n/a	GoodResponse	1	n/a	n/a	3	5	Fixation	Win	True
61.763	0.39	Win2	0.8332999999999999	0.004	Yes	2.783	-0.004	4.0	GoodResponse	1	0.27	61.033	3	5	Target	Win	True
62.033	0.3	Win2	0.8332999999999999	0.004	Yes	2.783	-0.004	4.0	GoodResponse	1	0.27	n/a	3	5	ButtonPress	Win	True
62.164	0.31	Win2	0.8332999999999999	n/a	Yes	2.783	n/a	n/a	GoodResponse	1	n/a	n/a	3	5	Blank	Win	True
62.465	1.45	Win2	0.8332999999999999	n/a	Yes	2.783	n/a	5	GoodResponse	1	0.048	61.513	3	5	Feedback	Win	True
63.919	2.783	Win2	0.8332999999999999	n/a	Yes	2.783	n/a	n/a	GoodResponse	1	0.0	n/a	3	5	ISIslide	Win	True
66.728	0.25	Lose2	0.8571	0.0	Yes	2.722	0.028	n/a	GoodResponse	0	n/a	n/a	3	6	Cue	AvoidedLoss	True
66.979	3.95	Lose2	0.8571	0.0	Yes	2.722	0.001	n/a	GoodResponse	0	n/a	n/a	3	6	Fixation	AvoidedLoss	True
70.924	0.38	Lose2	0.8571	0.004	Yes	2.722	-0.004	4.0	GoodResponse	0	0.199	70.123	3	6	Target	AvoidedLoss	True
71.123	0.3	Lose2	0.8571	0.004	Yes	2.722	-0.004	4.0	GoodResponse	0	0.199	n/a	3	6	ButtonPress	AvoidedLoss	True
71.308	0.32	Lose2	0.8571	n/a	Yes	2.722	n/a	n/a	GoodResponse	0	n/a	n/a	3	6	Blank	AvoidedLoss	True
71.626	1.45	Lose2	0.8571	n/a	Yes	2.722	n/a	5	GoodResponse	0	0.009	70.635	3	6	Feedback	AvoidedLoss	True
73.08	2.722	Lose2	0.8571	n/a	Yes	2.722	n/a	n/a	GoodResponse	0	0.0	n/a	3	6	ISIslide	AvoidedLoss	True
75.822	0.25	Lose2	0.875	0.0	Yes	4.028	0.022	n/a	GoodResponse	0	n/a	n/a	3	7	Cue	AvoidedLoss	False
76.072	4.05	Lose2	0.875	0.001	Yes	4.028	0.0	4	GoodResponse	0	0.137	75.209	3	7	Fixation	AvoidedLoss	False
76.209	0.3	Lose2	0.875	0.001	Yes	4.028	0.0	4	GoodResponse	0	0.137	n/a	3	7	ButtonPress	AvoidedLoss	False
80.118	0.37	Lose2	0.875	0.004	Yes	4.028	-0.004	4.0	GoodResponse	0	0.285	79.403	3	7	Target	AvoidedLoss	False
80.403	0.3	Lose2	0.875	0.004	Yes	4.028	-0.004	4.0	GoodResponse	0	0.285	n/a	3	7	ButtonPress	AvoidedLoss	False
80.502	0.33	Lose2	0.875	n/a	Yes	4.028	n/a	n/a	GoodResponse	0	n/a	n/a	3	7	Blank	AvoidedLoss	False
80.82	1.45	Lose2	0.875	n/a	Yes	4.028	n/a	5	GoodResponse	0	0.035	79.855	3	7	Feedback	AvoidedLoss	False
82.274	4.028	Lose2	0.875	n/a	Yes	4.028	n/a	n/a	GoodResponse	0	0.0	n/a	3	7	ISIslide	AvoidedLoss	False
86.32	0.25	Lose2	0.8889	0.0	Yes	3.03	0.02	n/a	GoodResponse	0	n/a	n/a	3	8	Cue	AvoidedLoss	False
86.57	3.95	Lose2	0.8889	0.001	Yes	3.03	0.0	4	GoodResponse	0	0.16	85.73	3	8	Fixation	AvoidedLoss	False
86.73	0.3	Lose2	0.8889	0.001	Yes	3.03	0.0	4	GoodResponse	0	0.16	n/a	3	8	ButtonPress	AvoidedLoss	False
90.516	0.36	Lose2	0.8889	0.004	Yes	3.03	-0.004	4.0	GoodResponse	0	0.288	89.804	3	8	Target	AvoidedLoss	False
90.804	0.3	Lose2	0.8889	0.004	Yes	3.03	-0.004	4.0	GoodResponse	0	0.288	n/a	3	8	ButtonPress	AvoidedLoss	False
90.883	0.34	Lose2	0.8889	n/a	Yes	3.03	n/a	n/a	GoodResponse	0	n/a	n/a	3	8	Blank	AvoidedLoss	False
91.218	1.45	Lose2	0.8889	n/a	Yes	3.03	n/a	5	GoodResponse	0	0.027	90.245	3	8	Feedback	AvoidedLoss	False
92.672	3.03	Lose2	0.8889	n/a	Yes	3.03	n/a	n/a	GoodResponse	0	0.0	n/a	3	8	ISIslide	AvoidedLoss	False
95.715	0.25	Lose2	0.8	0.0	No	3.135	0.015	n/a	NoResponse	-1	n/a	n/a	2	9	Cue	Loss	True
95.965	3.95	Lose2	0.8	0.0	No	3.135	0.0	n/a	NoResponse	-1	n/a	n/a	2	9	Fixation	Loss	True
99.927	0.35	Lose2	0.8	0.0	No	3.135	0.012	4.0	NoResponse	-1	0.37	99.297	2	9	Target	Loss	True
100.261	0.35	Lose2	0.8	n/a	No	3.135	n/a	n/a	NoResponse	-1	n/a	n/a	2	9	Blank	Loss	True
100.297	0.3	Lose2	0.8	0.0	No	3.135	0.012	4.0	NoResponse	-1	0.37	n/a	2	9	ButtonPress	Loss	True
100.612	1.45	Lose2	0.8	n/a	No	3.135	n/a	5	NoResponse	-1	0.048	99.66	2	9	Feedback	Loss	True
102.067	3.135	Lose2	0.8	n/a	No	3.135	n/a	n/a	NoResponse	-1	0.0	n/a	2	9	ISIslide	Loss	True
105.226	0.25	Control	0.7273000000000001	0.0	No	3.274	0.026	n/a	NoResponse	0	n/a	n/a	2	10	Cue	Neutral	True
105.477	4.0	Control	0.7273000000000001	0.0	No	3.274	0.001	n/a	NoResponse	0	n/a	n/a	2	10	Fixation	Neutral	True
109.472	0.34	Control	0.7273000000000001	0.004	No	3.274	-0.004	4.0	NoResponse	0	0.405	108.877	2	10	Target	Neutral	True
109.823	0.36	Control	0.7273000000000001	n/a	No	3.274	n/a	n/a	NoResponse	0	n/a	n/a	2	10	Blank	Neutral	True
109.877	0.3	Control	0.7273000000000001	0.004	No	3.274	-0.004	4.0	NoResponse	0	0.405	n/a	2	10	ButtonPress	Neutral	True
110.174	1.45	Control	0.7273000000000001	n/a	No	3.274	n/a	5	NoResponse	0	0.046	109.22	2	10	Feedback	Neutral	True
111.629	3.274	Control	0.7273000000000001	n/a	No	3.274	n/a	n/a	NoResponse	0	0.0	n/a	2	10	ISIslide	Neutral	True
114.922	0.25	Lose2	0.75	0.0	Yes	2.728	0.022	n/a	GoodResponse	0	n/a	n/a	2	11	Cue	AvoidedLoss	True
115.173	4.05	Lose2	0.75	0.0	Yes	2.728	0.001	n/a	GoodResponse	0	n/a	n/a	2	11	Fixation	AvoidedLoss	True
119.218	0.33	Lose2	0.75	0.004	Yes	2.728	-0.004	4.0	GoodResponse	0	0.262	118.48	2	11	Target	AvoidedLoss	True
119.48	0.3	Lose2	0.75	0.004	Yes	2.728	-0.004	4.0	GoodResponse	0	0.262	n/a	2	11	ButtonPress	AvoidedLoss	True
119.552	0.37	Lose2	0.75	n/a	Yes	2.728	n/a	n/a	GoodResponse	0	n/a	n/a	2	11	Blank	AvoidedLoss	True
119.92	1.45	Lose2	0.75	n/a	Yes	2.728	n/a	5	GoodResponse	0	0.008	118.928	2	11	Feedback	AvoidedLoss	True
121.375	2.728	Lose2	0.75	n/a	Yes	2.728	n/a	n/a	GoodResponse	0	0.0	n/a	2	11	ISIslide	AvoidedLoss	True
124.116	0.25	Control	0.6923	0.0	No	2.984	0.016	n/a	NoResponse	0	n/a	n/a	2	12	Cue	Neutral	False
124.367	3.9	Control	0.6923	0.0	No	2.984	0.001	n/a	NoResponse	0	n/a	n/a	2	12	Fixation	Neutral	False
128.262	0.32	Control	0.6923	0.004	No	2.984	-0.004	n/a	NoResponse	0	n/a	n/a	2	12	Target	Neutral	False
128.596	0.38	Control	0.6923	n/a	No	2.984	n/a	n/a	NoResponse	0	n/a	n/a	2	12	Blank	Neutral	False
128.964	1.45	Control	0.6923	n/a	No	2.984	n/a	5	NoResponse	0	0.037	128.001	2	12	Feedback	Neutral	False
130.418	2.984	Control	0.6923	n/a	No	2.984	n/a	n/a	NoResponse	0	0.0	n/a	2	12	ISIslide	Neutral	False
133.427	0.25	Control	0.7143	0.0	Yes	2.773	0.027	n/a	GoodResponse	0	n/a	n/a	2	13	Cue	Neutral	True
133.678	4.0	Control	0.7143	0.0	Yes	2.773	0.001	n/a	GoodResponse	0	n/a	n/a	2	13	Fixation	Neutral	True
137.673	0.31	Control	0.7143	0.004	Yes	2.773	-0.004	4.0	GoodResponse	0	0.259	136.932	2	13	Target	Neutral	True
137.932	0.3	Control	0.7143	0.004	Yes	2.773	-0.004	4.0	GoodResponse	0	0.259	n/a	2	13	ButtonPress	Neutral	True
137.991	0.39	Control	0.7143	n/a	Yes	2.773	n/a	n/a	GoodResponse	0	n/a	n/a	2	13	Blank	Neutral	True
138.375	1.45	Control	0.7143	n/a	Yes	2.773	n/a	5	GoodResponse	0	0.041	137.416	2	13	Feedback	Neutral	True
139.83	2.773	Control	0.7143	n/a	Yes	2.773	n/a	n/a	GoodResponse	0	0.0	n/a	2	13	ISIslide	Neutral	True
142.621	0.25	Win2	0.7333	0.0	Yes	2.679	0.021	n/a	GoodResponse	1	n/a	n/a	3	14	Cue	Win	True
142.872	4.1	Win2	0.7333	0.0	Yes	2.679	0.001	n/a	GoodResponse	1	n/a	n/a	3	14	Fixation	Win	True
146.968	0.3	Win2	0.7333	0.003	Yes	2.679	-0.003	4.0	GoodResponse	1	0.204	146.172	3	14	Target	Win	True
147.172	0.3	Win2	0.7333	0.003	Yes	2.679	-0.003	4.0	GoodResponse	1	0.204	n/a	3	14	ButtonPress	Win	True
147.269	0.4	Win2	0.7333	n/a	Yes	2.679	n/a	n/a	GoodResponse	1	n/a	n/a	3	14	Blank	Win	True
147.67	1.45	Win2	0.7333	n/a	Yes	2.679	n/a	5	GoodResponse	1	0.013	146.683	3	14	Feedback	Win	True
149.124	2.679	Win2	0.7333	n/a	Yes	2.679	n/a	n/a	GoodResponse	1	0.0	n/a	3	14	ISIslide	Win	True
151.816	0.25	Control	0.6875	0.0	No	2.984	0.016	n/a	NoResponse	0	n/a	n/a	3	15	Cue	Neutral	False
152.066	4.0	Control	0.6875	0.0	No	2.984	0.0	n/a	NoResponse	0	n/a	n/a	3	15	Fixation	Neutral	False
156.062	0.29	Control	0.6875	0.004	No	2.984	-0.004	n/a	NoResponse	0	n/a	n/a	3	15	Target	Neutral	False
156.363	0.41	Control	0.6875	n/a	No	2.984	n/a	n/a	NoResponse	0	n/a	n/a	3	15	Blank	Neutral	False
156.764	1.45	Control	0.6875	n/a	No	2.984	n/a	5	NoResponse	0	0.041	155.805	3	15	Feedback	Neutral	False
158.218	2.984	Control	0.6875	n/a	No	2.984	n/a	n/a	NoResponse	0	0.0	n/a	3	15	ISIslide	Neutral	False
161.227	0.25	Win2	0.7059000000000001	0.0	Yes	2.873	0.027	n/a	GoodResponse	1	n/a	n/a	4	16	Cue	Win	True
161.478	4.0	Win2	0.7059000000000001	0.0	Yes	2.873	0.001	n/a	GoodResponse	1	n/a	n/a	4	16	Fixation	Win	True
165.473	0.28	Win2	0.7059000000000001	0.004	Yes	2.873	-0.004	4.0	GoodResponse	1	0.277	164.75	4	16	Target	Win	True
165.75	0.3	Win2	0.7059000000000001	0.004	Yes	2.873	-0.004	4.0	GoodResponse	1	0.277	n/a	4	16	ButtonPress	Win	True
165.757	0.42	Win2	0.7059000000000001	n/a	Yes	2.873	n/a	n/a	GoodResponse	1	n/a	n/a	4	16	Blank	Win	True
166.175	1.45	Win2	0.7059000000000001	n/a	Yes	2.873	n/a	5	GoodResponse	1	0.045	165.22	4	16	Feedback	Win	True
167.63	2.873	Win2	0.7059000000000001	n/a	Yes	2.873	n/a	n/a	GoodResponse	1	0.0	n/a	4	16	ISIslide	Win	True
170.522	0.25	Lose2	0.7222	0.0	Yes	2.728	0.022	n/a	GoodResponse	0	n/a	n/a	4	17	Cue	AvoidedLoss	True
170.772	3.95	Lose2	0.7222	0.0	Yes	2.728	0.0	n/a	GoodResponse	0	n/a	n/a	4	17	Fixation	AvoidedLoss	True
174.734	0.27	Lose2	0.7222	0.0	Yes	2.728	0.012	4.0	GoodResponse	0	0.264	173.998	4	17	Target	AvoidedLoss	True
174.998	0.3	Lose2	0.7222	0.0	Yes	2.728	0.012	4.0	GoodResponse	0	0.264	n/a	4	17	ButtonPress	AvoidedLoss	True
175.002	0.43	Lose2	0.7222	n/a	Yes	2.728	n/a	n/a	GoodResponse	0	n/a	n/a	4	17	Blank	AvoidedLoss	True
175.419	1.45	Lose2	0.7222	n/a	Yes	2.728	n/a	5	GoodResponse	0	0.02	174.439	4	17	Feedback	AvoidedLoss	True
176.874	2.728	Lose2	0.7222	n/a	Yes	2.728	n/a	n/a	GoodResponse	0	0.0	n/a	4	17	ISIslide	AvoidedLoss	True
179.615	0.25	Lose2	0.6842	0.0	No	2.735	0.015	n/a	NoResponse	-1	n/a	n/a	3	18	Cue	Loss	True
179.866	4.05	Lose2	0.6842	0.0	No	2.735	0.001	n/a	NoResponse	-1	n/a	n/a	3	18	Fixation	Loss	True
183.912	0.26	Lose2	0.6842	0.003	No	2.735	-0.003	4.0	NoResponse	-1	0.323	183.235	3	18	Target	Loss	True
184.179	0.44	Lose2	0.6842	n/a	No	2.735	n/a	n/a	NoResponse	-1	n/a	n/a	3	18	Blank	Loss	True
184.235	0.3	Lose2	0.6842	0.003	No	2.735	-0.003	4.0	NoResponse	-1	0.323	n/a	3	18	ButtonPress	Loss	True
184.614	1.45	Lose2	0.6842	n/a	No	2.735	n/a	5	NoResponse	-1	0.044	183.658	3	18	Feedback	Loss	True
186.068	2.735	Lose2	0.6842	n/a	No	2.735	n/a	n/a	NoResponse	-1	0.0	n/a	3	18	ISIslide	Loss	True
188.826	0.25	Control	0.65	0.0	No	2.924	0.026	n/a	NoResponse	0	n/a	n/a	3	19	Cue	Neutral	False
189.077	3.95	Control	0.65	0.0	No	2.924	0.001	n/a	NoResponse	0	n/a	n/a	3	19	Fixation	Neutral	False
193.022	0.25	Control	0.65	0.004	No	2.924	-0.004	n/a	NoResponse	0	n/a	n/a	3	19	Target	Neutral	False
193.273	0.45	Control	0.65	n/a	No	2.924	n/a	n/a	NoResponse	0	n/a	n/a	3	19	Blank	Neutral	False
193.724	1.45	Control	0.65	n/a	No	2.924	n/a	5	NoResponse	0	0.007	192.731	3	19	Feedback	Neutral	False
195.179	2.924	Control	0.65	n/a	No	2.924	n/a	n/a	NoResponse	0	0.0	n/a	3	19	ISIslide	Neutral	False
198.121	0.25	Control	0.619	0.0	No	2.629	0.021	n/a	NoResponse	0	n/a	n/a	3	20	Cue	Neutral	True
198.371	4.05	Control	0.619	0.001	No	2.629	0.0	n/a	NoResponse	0	n/a	n/a	3	20	Fixation	Neutral	True
202.417	0.26	Control	0.619	0.004	No	2.629	-0.004	4.0	NoResponse	0	0.36	201.777	3	20	Target	Neutral	True
202.684	0.44	Control	0.619	n/a	No	2.629	n/a	n/a	NoResponse	0	n/a	n/a	3	20	Blank	Neutral	True
202.777	0.3	Control	0.619	0.004	No	2.629	-0.004	4.0	NoResponse	0	0.36	n/a	3	20	ButtonPress	Neutral	True
203.119	1.45	Control	0.619	n/a	No	2.629	n/a	5	NoResponse	0	0.027	202.146	3	20	Feedback	Neutral	True
204.573	2.629	Control	0.619	n/a	No	2.629	n/a	n/a	NoResponse	0	0.0	n/a	3	20	ISIslide	Neutral	True
207.215	0.25	Control	0.6364	0.0	Yes	2.785	0.015	n/a	GoodResponse	0	n/a	n/a	3	21	Cue	Neutral	False
207.465	4.1	Control	0.6364	0.0	Yes	2.785	0.0	4	GoodResponse	0	2.498	208.963	3	21	Fixation	Neutral	False
209.963	0.3	Control	0.6364	0.0	Yes	2.785	0.0	4	GoodResponse	0	2.498	n/a	3	21	ButtonPress	Neutral	False
211.561	0.27	Control	0.6364	0.004	Yes	2.785	-0.004	4.0	GoodResponse	0	0.177	210.738	3	21	Target	Neutral	False
211.738	0.3	Control	0.6364	0.004	Yes	2.785	-0.004	4.0	GoodResponse	0	0.177	n/a	3	21	ButtonPress	Neutral	False
211.845	0.43	Control	0.6364	n/a	Yes	2.785	n/a	n/a	GoodResponse	0	n/a	n/a	3	21	Blank	Neutral	False
212.263	1.45	Control	0.6364	n/a	Yes	2.785	n/a	5	GoodResponse	0	0.007	211.27	3	21	Feedback	Neutral	False
213.717	2.785	Control	0.6364	n/a	Yes	2.785	n/a	n/a	GoodResponse	0	0.0	n/a	3	21	ISIslide	Neutral	False
216.526	0.25	Control	0.6522	0.0	Yes	2.774	0.026	n/a	GoodResponse	0	n/a	n/a	3	22	Cue	Neutral	True
216.776	4.0	Control	0.6522	0.001	Yes	2.774	0.0	n/a	GoodResponse	0	n/a	n/a	3	22	Fixation	Neutral	True
220.772	0.28	Control	0.6522	0.004	Yes	2.774	-0.004	4.0	GoodResponse	0	0.272	220.044	3	22	Target	Neutral	True
221.044	0.3	Control	0.6522	0.004	Yes	2.774	-0.004	4.0	GoodResponse	0	0.272	n/a	3	22	ButtonPress	Neutral	True
221.056	0.42	Control	0.6522	n/a	Yes	2.774	n/a	n/a	GoodResponse	0	n/a	n/a	3	22	Blank	Neutral	True
221.474	1.45	Control	0.6522	n/a	Yes	2.774	n/a	5	GoodResponse	0	0.014	220.488	3	22	Feedback	Neutral	True
222.928	2.774	Control	0.6522	n/a	Yes	2.774	n/a	n/a	GoodResponse	0	0.0	n/a	3	22	ISIslide	Neutral	True
225.72	0.25	Control	0.625	0.0	No	2.78	0.02	n/a	NoResponse	0	n/a	n/a	3	23	Cue	Neutral	True
225.971	3.9	Control	0.625	0.0	No	2.78	0.001	n/a	NoResponse	0	n/a	n/a	3	23	Fixation	Neutral	True
229.866	0.29	Control	0.625	0.004	No	2.78	-0.004	4.0	NoResponse	0	0.382	229.248	3	23	Target	Neutral	True
230.167	0.41	Control	0.625	n/a	No	2.78	n/a	n/a	NoResponse	0	n/a	n/a	3	23	Blank	Neutral	True
230.248	0.3	Control	0.625	0.004	No	2.78	-0.004	4.0	NoResponse	0	0.382	n/a	3	23	ButtonPress	Neutral	True
230.568	1.45	Control	0.625	n/a	No	2.78	n/a	5	NoResponse	0	0.041	229.609	3	23	Feedback	Neutral	True
232.022	2.78	Control	0.625	n/a	No	2.78	n/a	n/a	NoResponse	0	0.0	n/a	3	23	ISIslide	Neutral	True
234.83	0.25	Win2	0.64	0.001	Yes	3.12	0.03	n/a	GoodResponse	1	n/a	n/a	4	24	Cue	Win	False
235.081	3.95	Win2	0.64	0.0	Yes	3.12	0.001	4	GoodResponse	1	2.671	236.752	4	24	Fixation	Win	False
237.752	0.3	Win2	0.64	0.0	Yes	3.12	0.001	4	GoodResponse	1	2.671	n/a	4	24	ButtonPress	Win	False
239.026	0.3	Win2	0.64	0.004	Yes	3.12	-0.004	4.0	GoodResponse	1	0.258	238.284	4	24	Target	Win	False
239.284	0.3	Win2	0.64	0.004	Yes	3.12	-0.004	4.0	GoodResponse	1	0.258	n/a	4	24	ButtonPress	Win	False
239.327	0.4	Win2	0.64	n/a	Yes	3.12	n/a	n/a	GoodResponse	1	n/a	n/a	4	24	Blank	Win	False
239.728	1.45	Win2	0.64	n/a	Yes	3.12	n/a	5	GoodResponse	1	0.007	238.735	4	24	Feedback	Win	False
241.183	3.12	Win2	0.64	n/a	Yes	3.12	n/a	n/a	GoodResponse	1	0.0	n/a	4	24	ISIslide	Win	False
244.326	0.25	Win2	0.6154	0.0	No	3.074	0.026	n/a	NoResponse	0	n/a	n/a	4	25	Cue	MissedWin	True
244.576	4.0	Win2	0.6154	0.0	No	3.074	0.0	n/a	NoResponse	0	n/a	n/a	4	25	Fixation	MissedWin	True
248.572	0.31	Win2	0.6154	0.004	No	3.074	-0.004	4.0	NoResponse	0	0.325	247.897	4	25	Target	MissedWin	True
248.889	0.39	Win2	0.6154	n/a	No	3.074	n/a	n/a	NoResponse	0	n/a	n/a	4	25	Blank	MissedWin	True
248.897	0.3	Win2	0.6154	0.004	No	3.074	-0.004	4.0	NoResponse	0	0.325	n/a	4	25	ButtonPress	MissedWin	True
249.274	1.45	Win2	0.6154	n/a	No	3.074	n/a	5	NoResponse	0	0.018	248.292	4	25	Feedback	MissedWin	True
250.728	3.074	Win2	0.6154	n/a	No	3.074	n/a	n/a	NoResponse	0	0.0	n/a	4	25	ISIslide	MissedWin	True
253.821	0.25	Win2	0.6296	0.0	Yes	2.929	0.021	n/a	GoodResponse	1	n/a	n/a	5	26	Cue	Win	True
254.071	3.95	Win2	0.6296	0.0	Yes	2.929	0.0	n/a	GoodResponse	1	n/a	n/a	5	26	Fixation	Win	True
258.033	0.32	Win2	0.6296	0.0	Yes	2.929	0.012	4.0	GoodResponse	1	0.256	257.289	5	26	Target	Win	True
258.289	0.3	Win2	0.6296	0.0	Yes	2.929	0.012	4.0	GoodResponse	1	0.256	n/a	5	26	ButtonPress	Win	True
258.351	0.38	Win2	0.6296	n/a	Yes	2.929	n/a	n/a	GoodResponse	1	n/a	n/a	5	26	Blank	Win	True
258.719	1.45	Win2	0.6296	n/a	Yes	2.929	n/a	5	GoodResponse	1	0.037	257.756	5	26	Feedback	Win	True
260.173	2.929	Win2	0.6296	n/a	Yes	2.929	n/a	n/a	GoodResponse	1	0.0	n/a	5	26	ISIslide	Win	True
263.132	0.25	Lose2	0.6429	0.0	Yes	2.818	0.032	n/a	GoodResponse	0	n/a	n/a	5	27	Cue	AvoidedLoss	True
263.382	4.05	Lose2	0.6429	0.001	Yes	2.818	0.0	n/a	GoodResponse	0	n/a	n/a	5	27	Fixation	AvoidedLoss	True
267.428	0.33	Lose2	0.6429	0.004	Yes	2.818	-0.004	4.0	GoodResponse	0	0.328	266.756	5	27	Target	AvoidedLoss	True
267.756	0.3	Lose2	0.6429	0.004	Yes	2.818	-0.004	4.0	GoodResponse	0	0.328	n/a	5	27	ButtonPress	AvoidedLoss	True
267.762	0.37	Lose2	0.6429	n/a	Yes	2.818	n/a	n/a	GoodResponse	0	n/a	n/a	5	27	Blank	AvoidedLoss	True
268.13	1.45	Lose2	0.6429	n/a	Yes	2.818	n/a	5	GoodResponse	0	0.04	267.17	5	27	Feedback	AvoidedLoss	True
269.584	2.818	Lose2	0.6429	n/a	Yes	2.818	n/a	n/a	GoodResponse	0	0.0	n/a	5	27	ISIslide	AvoidedLoss	True
272.426	0.25	Control	0.6552	0.0	Yes	2.824	0.026	n/a	GoodResponse	0	n/a	n/a	5	28	Cue	Neutral	True
272.677	4.05	Control	0.6552	0.0	Yes	2.824	0.001	n/a	GoodResponse	0	n/a	n/a	5	28	Fixation	Neutral	True
276.722	0.34	Control	0.6552	0.004	Yes	2.824	-0.004	4.0	GoodResponse	0	0.27	275.992	5	28	Target	Neutral	True
276.992	0.3	Control	0.6552	0.004	Yes	2.824	-0.004	4.0	GoodResponse	0	0.27	n/a	5	28	ButtonPress	Neutral	True
277.073	0.36	Control	0.6552	n/a	Yes	2.824	n/a	n/a	GoodResponse	0	n/a	n/a	5	28	Blank	Neutral	True
277.424	1.45	Control	0.6552	n/a	Yes	2.824	n/a	5	GoodResponse	0	0.014	276.438	5	28	Feedback	Neutral	True
278.879	2.824	Control	0.6552	n/a	Yes	2.824	n/a	n/a	GoodResponse	0	0.0	n/a	5	28	ISIslide	Neutral	True
281.721	0.25	Lose2	0.6667000000000001	0.0	Yes	2.829	0.021	n/a	GoodResponse	0	n/a	n/a	5	29	Cue	AvoidedLoss	True
281.971	3.95	Lose2	0.6667000000000001	0.001	Yes	2.829	0.0	n/a	GoodResponse	0	n/a	n/a	5	29	Fixation	AvoidedLoss	True
285.917	0.34	Lose2	0.6667000000000001	0.004	Yes	2.829	-0.004	4.0	GoodResponse	0	0.31	285.227	5	29	Target	AvoidedLoss	True
286.227	0.3	Lose2	0.6667000000000001	0.004	Yes	2.829	-0.004	4.0	GoodResponse	0	0.31	n/a	5	29	ButtonPress	AvoidedLoss	True
286.268	0.36	Lose2	0.6667000000000001	n/a	Yes	2.829	n/a	n/a	GoodResponse	0	n/a	n/a	5	29	Blank	AvoidedLoss	True
286.619	1.45	Lose2	0.6667000000000001	n/a	Yes	2.829	n/a	5	GoodResponse	0	0.038	285.657	5	29	Feedback	AvoidedLoss	True
288.073	2.829	Lose2	0.6667000000000001	n/a	Yes	2.829	n/a	n/a	GoodResponse	0	0.0	n/a	5	29	ISIslide	AvoidedLoss	True
290.932	0.25	Win2	0.6774	0.0	Yes	2.768	0.032	n/a	GoodResponse	1	n/a	n/a	6	30	Cue	Win	True
291.182	3.9	Win2	0.6774	0.0	Yes	2.768	0.0	n/a	GoodResponse	1	n/a	n/a	6	30	Fixation	Win	True
295.094	0.33	Win2	0.6774	0.0	Yes	2.768	0.012	4.0	GoodResponse	1	0.292	294.386	6	30	Target	Win	True
295.386	0.3	Win2	0.6774	0.0	Yes	2.768	0.012	4.0	GoodResponse	1	0.292	n/a	6	30	ButtonPress	Win	True
295.412	0.37	Win2	0.6774	n/a	Yes	2.768	n/a	n/a	GoodResponse	1	n/a	n/a	6	30	Blank	Win	True
295.779	1.45	Win2	0.6774	n/a	Yes	2.768	n/a	5	GoodResponse	1	0.001	294.78	6	30	Feedback	Win	True
297.234	2.768	Win2	0.6774	n/a	Yes	2.768	n/a	n/a	GoodResponse	1	0.0	n/a	6	30	ISIslide	Win	True
300.025	0.25	Lose2	0.6562	0.0	No	2.825	0.025	n/a	LatePress	-1	n/a	n/a	5	31	Cue	Loss	True
300.276	4.05	Lose2	0.6562	0.0	No	2.825	0.001	n/a	LatePress	-1	n/a	n/a	5	31	Fixation	Loss	True
304.322	0.32	Lose2	0.6562	0.003	No	2.825	-0.003	4.0	LatePress	-1	0.33	303.652	5	31	Target	Loss	True
304.652	0.3	Lose2	0.6562	0.003	No	2.825	-0.003	4.0	LatePress	-1	0.33	n/a	5	31	ButtonPress	Loss	True
304.656	0.38	Lose2	0.6562	n/a	No	2.825	n/a	n/a	LatePress	-1	n/a	n/a	5	31	Blank	Loss	True
305.024	1.45	Lose2	0.6562	n/a	No	2.825	n/a	5	LatePress	-1	0.024	304.048	5	31	Feedback	Loss	True
306.478	2.825	Lose2	0.6562	n/a	No	2.825	n/a	n/a	LatePress	-1	0.0	n/a	5	31	ISIslide	Loss	True
309.32	0.25	Lose2	0.6667000000000001	0.0	Yes	2.63	0.02	n/a	GoodResponse	0	n/a	n/a	5	32	Cue	AvoidedLoss	True
309.571	4.15	Lose2	0.6667000000000001	0.0	Yes	2.63	0.001	n/a	GoodResponse	0	n/a	n/a	5	32	Fixation	AvoidedLoss	True
313.716	0.32	Lose2	0.6667000000000001	0.004	Yes	2.63	-0.004	4.0	GoodResponse	0	0.244	312.96	5	32	Target	AvoidedLoss	True
313.96	0.3	Lose2	0.6667000000000001	0.004	Yes	2.63	-0.004	4.0	GoodResponse	0	0.244	n/a	5	32	ButtonPress	AvoidedLoss	True
314.051	0.38	Lose2	0.6667000000000001	n/a	Yes	2.63	n/a	n/a	GoodResponse	0	n/a	n/a	5	32	Blank	AvoidedLoss	True
314.418	1.45	Lose2	0.6667000000000001	n/a	Yes	2.63	n/a	5	GoodResponse	0	0.044	313.462	5	32	Feedback	AvoidedLoss	True
315.873	2.63	Lose2	0.6667000000000001	n/a	Yes	2.63	n/a	n/a	GoodResponse	0	0.0	n/a	5	32	ISIslide	AvoidedLoss	True
318.531	0.25	Win2	0.6765000000000001	0.0	Yes	2.669	0.031	n/a	GoodResponse	1	n/a	n/a	6	33	Cue	Win	True
318.781	4.0	Win2	0.6765000000000001	0.001	Yes	2.669	0.0	n/a	GoodResponse	1	n/a	n/a	6	33	Fixation	Win	True
322.777	0.31	Win2	0.6765000000000001	0.004	Yes	2.669	-0.004	4.0	GoodResponse	1	0.246	322.023	6	33	Target	Win	True
323.023	0.3	Win2	0.6765000000000001	0.004	Yes	2.669	-0.004	4.0	GoodResponse	1	0.246	n/a	6	33	ButtonPress	Win	True
323.094	0.39	Win2	0.6765000000000001	n/a	Yes	2.669	n/a	n/a	GoodResponse	1	n/a	n/a	6	33	Blank	Win	True
323.479	1.45	Win2	0.6765000000000001	n/a	Yes	2.669	n/a	5	GoodResponse	1	0.008	322.487	6	33	Feedback	Win	True
324.933	2.669	Win2	0.6765000000000001	n/a	Yes	2.669	n/a	n/a	GoodResponse	1	0.0	n/a	6	33	ISIslide	Win	True
327.625	0.25	Lose2	0.6857	0.0	Yes	2.625	0.025	n/a	GoodResponse	0	n/a	n/a	6	34	Cue	AvoidedLoss	True
327.875	4.05	Lose2	0.6857	0.0	Yes	2.625	0.0	n/a	GoodResponse	0	n/a	n/a	6	34	Fixation	AvoidedLoss	True
331.921	0.3	Lose2	0.6857	0.004	Yes	2.625	-0.004	4.0	GoodResponse	0	0.281	331.202	6	34	Target	AvoidedLoss	True
332.202	0.3	Lose2	0.6857	0.004	Yes	2.625	-0.004	4.0	GoodResponse	0	0.281	n/a	6	34	ButtonPress	AvoidedLoss	True
332.222	0.4	Lose2	0.6857	n/a	Yes	2.625	n/a	n/a	GoodResponse	0	n/a	n/a	6	34	Blank	AvoidedLoss	True
332.623	1.45	Lose2	0.6857	n/a	Yes	2.625	n/a	5	GoodResponse	0	0.034	331.657	6	34	Feedback	AvoidedLoss	True
334.077	2.625	Lose2	0.6857	n/a	Yes	2.625	n/a	n/a	GoodResponse	0	0.0	n/a	6	34	ISIslide	AvoidedLoss	True
336.718	0.25	Lose2	0.6667000000000001	0.001	No	2.682	0.018	n/a	NoResponse	-1	n/a	n/a	5	35	Cue	Loss	True
336.969	4.0	Lose2	0.6667000000000001	0.0	No	2.682	0.001	n/a	NoResponse	-1	n/a	n/a	5	35	Fixation	Loss	True
340.964	0.29	Lose2	0.6667000000000001	0.004	No	2.682	-0.004	4.0	NoResponse	-1	0.342	340.306	5	35	Target	Loss	True
341.265	0.41	Lose2	0.6667000000000001	n/a	No	2.682	n/a	n/a	NoResponse	-1	n/a	n/a	5	35	Blank	Loss	True
341.306	0.3	Lose2	0.6667000000000001	0.004	No	2.682	-0.004	4.0	NoResponse	-1	0.342	n/a	5	35	ButtonPress	Loss	True
341.667	1.45	Lose2	0.6667000000000001	n/a	No	2.682	n/a	5	NoResponse	-1	0.015	340.682	5	35	Feedback	Loss	True
343.121	2.682	Lose2	0.6667000000000001	n/a	No	2.682	n/a	n/a	NoResponse	-1	0.0	n/a	5	35	ISIslide	Loss	True
345.829	0.25	Control	0.6486	0.0	No	2.671	0.029	n/a	NoResponse	0	n/a	n/a	5	36	Cue	Neutral	True
346.08	4.0	Control	0.6486	0.0	No	2.671	0.001	n/a	NoResponse	0	n/a	n/a	5	36	Fixation	Neutral	True
350.075	0.28	Control	0.6486	0.004	No	2.671	-0.004	4.0	NoResponse	0	0.292	349.367	5	36	Target	Neutral	True
350.359	0.42	Control	0.6486	n/a	No	2.671	n/a	n/a	NoResponse	0	n/a	n/a	5	36	Blank	Neutral	True
350.367	0.3	Control	0.6486	0.004	No	2.671	-0.004	4.0	NoResponse	0	0.292	n/a	5	36	ButtonPress	Neutral	True
350.777	1.45	Control	0.6486	n/a	No	2.671	n/a	5	NoResponse	0	0.027	349.804	5	36	Feedback	Neutral	True
352.231	2.671	Control	0.6486	n/a	No	2.671	n/a	n/a	NoResponse	0	0.0	n/a	5	36	ISIslide	Neutral	True
354.923	0.25	Win2	0.6579	0.0	Yes	2.877	0.023	n/a	GoodResponse	1	n/a	n/a	6	37	Cue	Win	True
355.174	4.0	Win2	0.6579	0.0	Yes	2.877	0.001	n/a	GoodResponse	1	n/a	n/a	6	37	Fixation	Win	True
359.169	0.29	Win2	0.6579	0.004	Yes	2.877	-0.004	4.0	GoodResponse	1	0.265	358.434	6	37	Target	Win	True
359.434	0.3	Win2	0.6579	0.004	Yes	2.877	-0.004	4.0	GoodResponse	1	0.265	n/a	6	37	ButtonPress	Win	True
359.47	0.41	Win2	0.6579	n/a	Yes	2.877	n/a	n/a	GoodResponse	1	n/a	n/a	6	37	Blank	Win	True
359.871	1.45	Win2	0.6579	n/a	Yes	2.877	n/a	5	GoodResponse	1	0.008	358.879	6	37	Feedback	Win	True
361.325	2.877	Win2	0.6579	n/a	Yes	2.877	n/a	n/a	GoodResponse	1	0.0	n/a	6	37	ISIslide	Win	True
364.217	0.25	Lose2	0.6409999999999999	0.0	No	2.833	0.017	n/a	NoResponse	-1	n/a	n/a	5	38	Cue	Loss	True
364.468	3.95	Lose2	0.6409999999999999	0.0	No	2.833	0.001	n/a	NoResponse	-1	n/a	n/a	5	38	Fixation	Loss	True
368.413	0.29	Lose2	0.6409999999999999	0.004	No	2.833	-0.004	4.0	NoResponse	-1	0.309	367.722	5	38	Target	Loss	True
368.714	0.41	Lose2	0.6409999999999999	n/a	No	2.833	n/a	n/a	NoResponse	-1	n/a	n/a	5	38	Blank	Loss	True
368.722	0.3	Lose2	0.6409999999999999	0.004	No	2.833	-0.004	4.0	NoResponse	-1	0.309	n/a	5	38	ButtonPress	Loss	True
369.115	1.45	Lose2	0.6409999999999999	n/a	No	2.833	n/a	5	NoResponse	-1	0.029	368.144	5	38	Feedback	Loss	True
370.57	2.833	Lose2	0.6409999999999999	n/a	No	2.833	n/a	n/a	NoResponse	-1	0.0	n/a	5	38	ISIslide	Loss	True
373.428	0.25	Win2	0.65	0.0	Yes	2.972	0.028	n/a	GoodResponse	1	n/a	n/a	6	39	Cue	Win	True
373.679	4.1	Win2	0.65	0.0	Yes	2.972	0.001	n/a	GoodResponse	1	n/a	n/a	6	39	Fixation	Win	True
377.775	0.3	Win2	0.65	0.003	Yes	2.972	-0.003	4.0	GoodResponse	1	0.287	377.062	6	39	Target	Win	True
378.062	0.3	Win2	0.65	0.003	Yes	2.972	-0.003	4.0	GoodResponse	1	0.287	n/a	6	39	ButtonPress	Win	True
378.075	0.4	Win2	0.65	n/a	Yes	2.972	n/a	n/a	GoodResponse	1	n/a	n/a	6	39	Blank	Win	True
378.477	1.45	Win2	0.65	n/a	Yes	2.972	n/a	5	GoodResponse	1	0.033	377.51	6	39	Feedback	Win	True
379.931	2.972	Win2	0.65	n/a	Yes	2.972	n/a	n/a	GoodResponse	1	0.0	n/a	6	39	ISIslide	Win	True
382.923	0.25	Win2	0.6585	0.0	Yes	2.727	0.023	n/a	GoodResponse	1	n/a	n/a	7	40	Cue	Win	True
383.174	3.95	Win2	0.6585	0.0	Yes	2.727	0.001	n/a	GoodResponse	1	n/a	n/a	7	40	Fixation	Win	True
387.119	0.31	Win2	0.6585	0.004	Yes	2.727	-0.004	4.0	GoodResponse	1	0.239	386.358	7	40	Target	Win	True
387.358	0.3	Win2	0.6585	0.004	Yes	2.727	-0.004	4.0	GoodResponse	1	0.239	n/a	7	40	ButtonPress	Win	True
387.437	0.39	Win2	0.6585	n/a	Yes	2.727	n/a	n/a	GoodResponse	1	n/a	n/a	7	40	Blank	Win	True
387.821	1.45	Win2	0.6585	n/a	Yes	2.727	n/a	5	GoodResponse	1	0.009	386.83	7	40	Feedback	Win	True
389.276	2.727	Win2	0.6585	n/a	Yes	2.727	n/a	n/a	GoodResponse	1	0.0	n/a	7	40	ISIslide	Win	True
392.017	0.25	Win2	0.6667000000000001	0.0	Yes	2.783	0.017	n/a	GoodResponse	1	n/a	n/a	8	41	Cue	Win	False
392.268	3.9	Win2	0.6667000000000001	0.0	Yes	2.783	0.001	4	GoodResponse	1	2.605	393.873	8	41	Fixation	Win	False
394.873	0.3	Win2	0.6667000000000001	0.0	Yes	2.783	0.001	4	GoodResponse	1	2.605	n/a	8	41	ButtonPress	Win	False
396.163	0.31	Win2	0.6667000000000001	0.004	Yes	2.783	-0.004	4.0	GoodResponse	1	0.242	395.405	8	41	Target	Win	False
396.405	0.3	Win2	0.6667000000000001	0.004	Yes	2.783	-0.004	4.0	GoodResponse	1	0.242	n/a	8	41	ButtonPress	Win	False
396.48	0.39	Win2	0.6667000000000001	n/a	Yes	2.783	n/a	n/a	GoodResponse	1	n/a	n/a	8	41	Blank	Win	False
396.865	1.45	Win2	0.6667000000000001	n/a	Yes	2.783	n/a	5	GoodResponse	1	0.036	395.901	8	41	Feedback	Win	False
398.319	2.783	Win2	0.6667000000000001	n/a	Yes	2.783	n/a	n/a	GoodResponse	1	0.0	n/a	8	41	ISIslide	Win	False
401.128	0.25	Control	0.6744	0.0	Yes	2.922	0.028	n/a	GoodResponse	0	n/a	n/a	8	42	Cue	Neutral	True
401.378	3.85	Control	0.6744	0.0	Yes	2.922	0.0	n/a	GoodResponse	0	n/a	n/a	8	42	Fixation	Neutral	True
405.24	0.3	Control	0.6744	0.0	Yes	2.922	0.012	4.0	GoodResponse	0	0.24	404.48	8	42	Target	Neutral	True
405.48	0.3	Control	0.6744	0.0	Yes	2.922	0.012	4.0	GoodResponse	0	0.24	n/a	8	42	ButtonPress	Neutral	True
405.524	0.4	Control	0.6744	n/a	Yes	2.922	n/a	n/a	GoodResponse	0	n/a	n/a	8	42	Blank	Neutral	True
405.925	1.45	Control	0.6744	n/a	Yes	2.922	n/a	5	GoodResponse	0	0.048	404.973	8	42	Feedback	Neutral	True
407.38	2.922	Control	0.6744	n/a	Yes	2.922	n/a	n/a	GoodResponse	0	0.0	n/a	8	42	ISIslide	Neutral	True
410.322	0.25	Win2	0.6818000000000001	0.0	Yes	3.178	0.022	n/a	GoodResponse	1	n/a	n/a	9	43	Cue	Win	True
410.573	4.0	Win2	0.6818000000000001	0.0	Yes	3.178	0.001	n/a	GoodResponse	1	n/a	n/a	9	43	Fixation	Win	True
414.568	0.29	Win2	0.6818000000000001	0.004	Yes	3.178	-0.004	4.0	GoodResponse	1	0.255	413.823	9	43	Target	Win	True
414.823	0.3	Win2	0.6818000000000001	0.004	Yes	3.178	-0.004	4.0	GoodResponse	1	0.255	n/a	9	43	ButtonPress	Win	True
414.869	0.41	Win2	0.6818000000000001	n/a	Yes	3.178	n/a	n/a	GoodResponse	1	n/a	n/a	9	43	Blank	Win	True
415.27	1.45	Win2	0.6818000000000001	n/a	Yes	3.178	n/a	5	GoodResponse	1	0.02	414.29	9	43	Feedback	Win	True
416.724	3.178	Win2	0.6818000000000001	n/a	Yes	3.178	n/a	n/a	GoodResponse	1	0.0	n/a	9	43	ISIslide	Win	True
419.917	0.25	Win2	0.6889	0.0	Yes	2.983	0.017	n/a	GoodResponse	1	n/a	n/a	10	44	Cue	Win	True
420.168	4.0	Win2	0.6889	0.0	Yes	2.983	0.001	n/a	GoodResponse	1	n/a	n/a	10	44	Fixation	Win	True
424.163	0.28	Win2	0.6889	0.004	Yes	2.983	-0.004	4.0	GoodResponse	1	0.234	423.397	10	44	Target	Win	True
424.397	0.3	Win2	0.6889	0.004	Yes	2.983	-0.004	4.0	GoodResponse	1	0.234	n/a	10	44	ButtonPress	Win	True
424.447	0.42	Win2	0.6889	n/a	Yes	2.983	n/a	n/a	GoodResponse	1	n/a	n/a	10	44	Blank	Win	True
424.865	1.45	Win2	0.6889	n/a	Yes	2.983	n/a	5	GoodResponse	1	0.035	423.9	10	44	Feedback	Win	True
426.32	2.983	Win2	0.6889	n/a	Yes	2.983	n/a	n/a	GoodResponse	1	0.0	n/a	10	44	ISIslide	Win	True
429.329	0.25	Control	0.6957	0.0	Yes	2.871	0.029	n/a	GoodResponse	0	n/a	n/a	10	45	Cue	Neutral	True
429.579	4.1	Control	0.6957	0.0	Yes	2.871	0.0	n/a	GoodResponse	0	n/a	n/a	10	45	Fixation	Neutral	True
433.675	0.27	Control	0.6957	0.004	Yes	2.871	-0.004	4.0	GoodResponse	0	0.262	432.937	10	45	Target	Neutral	True
433.937	0.3	Control	0.6957	0.004	Yes	2.871	-0.004	4.0	GoodResponse	0	0.262	n/a	10	45	ButtonPress	Neutral	True
433.959	0.43	Control	0.6957	n/a	Yes	2.871	n/a	n/a	GoodResponse	0	n/a	n/a	10	45	Blank	Neutral	True
434.377	1.45	Control	0.6957	n/a	Yes	2.871	n/a	5	GoodResponse	0	0.035	433.412	10	45	Feedback	Neutral	True
435.831	2.871	Control	0.6957	n/a	Yes	2.871	n/a	n/a	GoodResponse	0	0.0	n/a	10	45	ISIslide	Neutral	True
438.723	0.25	Lose2	0.6809000000000001	0.0	No	3.377	0.023	n/a	NoResponse	-1	n/a	n/a	9	46	Cue	Loss	False
438.974	4.0	Lose2	0.6809000000000001	0.0	No	3.377	0.001	4	NoResponse	-1	0.099	438.073	9	46	Fixation	Loss	False
439.073	0.3	Lose2	0.6809000000000001	0.0	No	3.377	0.001	4	NoResponse	-1	0.099	n/a	9	46	ButtonPress	Loss	False
442.969	0.26	Lose2	0.6809000000000001	0.004	No	3.377	-0.004	4.0	NoResponse	-1	0.282	442.251	9	46	Target	Loss	False
443.237	0.44	Lose2	0.6809000000000001	n/a	No	3.377	n/a	n/a	NoResponse	-1	n/a	n/a	9	46	Blank	Loss	False
443.251	0.3	Lose2	0.6809000000000001	0.004	No	3.377	-0.004	4.0	NoResponse	-1	0.282	n/a	9	46	ButtonPress	Loss	False
443.672	1.45	Lose2	0.6809000000000001	n/a	No	3.377	n/a	5	NoResponse	-1	0.008	442.68	9	46	Feedback	Loss	False
445.126	3.377	Lose2	0.6809000000000001	n/a	No	3.377	n/a	n/a	NoResponse	-1	0.0	n/a	9	46	ISIslide	Loss	False
448.519	0.25	Lose2	0.6667000000000001	0.0	No	2.681	0.019	n/a	NoResponse	-1	n/a	n/a	8	47	Cue	Loss	True
448.77	4.0	Lose2	0.6667000000000001	0.0	No	2.681	0.001	n/a	NoResponse	-1	n/a	n/a	8	47	Fixation	Loss	True
452.765	0.25	Lose2	0.6667000000000001	0.004	No	2.681	-0.004	4.0	NoResponse	-1	0.27	452.035	8	47	Target	Loss	True
453.016	0.45	Lose2	0.6667000000000001	n/a	No	2.681	n/a	n/a	NoResponse	-1	n/a	n/a	8	47	Blank	Loss	True
453.035	0.3	Lose2	0.6667000000000001	0.004	No	2.681	-0.004	4.0	NoResponse	-1	0.27	n/a	8	47	ButtonPress	Loss	True
453.467	1.45	Lose2	0.6667000000000001	n/a	No	2.681	n/a	5	NoResponse	-1	0.018	452.485	8	47	Feedback	Loss	True
454.922	2.681	Lose2	0.6667000000000001	n/a	No	2.681	n/a	n/a	NoResponse	-1	0.0	n/a	8	47	ISIslide	Loss	True
457.63	0.25	Lose2	0.6735	0.0	Yes	3.02	0.03	n/a	GoodResponse	0	n/a	n/a	8	48	Cue	AvoidedLoss	True
457.881	3.95	Lose2	0.6735	0.0	Yes	3.02	0.001	n/a	GoodResponse	0	n/a	n/a	8	48	Fixation	AvoidedLoss	True
461.826	0.24	Lose2	0.6735	0.004	Yes	3.02	-0.004	4.0	GoodResponse	0	0.222	461.048	8	48	Target	AvoidedLoss	True
462.048	0.3	Lose2	0.6735	0.004	Yes	3.02	-0.004	4.0	GoodResponse	0	0.222	n/a	8	48	ButtonPress	AvoidedLoss	True
462.077	0.46	Lose2	0.6735	n/a	Yes	3.02	n/a	n/a	GoodResponse	0	n/a	n/a	8	48	Blank	AvoidedLoss	True
462.528	1.45	Lose2	0.6735	n/a	Yes	3.02	n/a	5	GoodResponse	0	0.03	461.558	8	48	Feedback	AvoidedLoss	True
463.982	3.02	Lose2	0.6735	n/a	Yes	3.02	n/a	n/a	GoodResponse	0	0.0	n/a	8	48	ISIslide	AvoidedLoss	True
467.025	0.25	Control	0.68	0.0	Yes	2.875	0.025	n/a	GoodResponse	0	n/a	n/a	8	49	Cue	Neutral	True
467.275	4.0	Control	0.68	0.001	Yes	2.875	0.0	n/a	GoodResponse	0	n/a	n/a	8	49	Fixation	Neutral	True
471.271	0.23	Control	0.68	0.004	Yes	2.875	-0.004	4.0	GoodResponse	0	0.219	470.49	8	49	Target	Neutral	True
471.49	0.3	Control	0.68	0.004	Yes	2.875	-0.004	4.0	GoodResponse	0	0.219	n/a	8	49	ButtonPress	Neutral	True
471.505	0.47	Control	0.68	n/a	Yes	2.875	n/a	n/a	GoodResponse	0	n/a	n/a	8	49	Blank	Neutral	True
471.973	1.45	Control	0.68	n/a	Yes	2.875	n/a	5	GoodResponse	0	0.049	471.022	8	49	Feedback	Neutral	True
473.427	2.875	Control	0.68	n/a	Yes	2.875	n/a	n/a	GoodResponse	0	0.0	n/a	8	49	ISIslide	Neutral	True
476.319	0.25	Control	0.6667000000000001	0.0	No	2.781	0.019	n/a	NoResponse	0	n/a	n/a	8	50	Cue	Neutral	True
476.57	4.0	Control	0.6667000000000001	0.0	No	2.781	0.001	n/a	NoResponse	0	n/a	n/a	8	50	Fixation	Neutral	True
480.565	0.22	Control	0.6667000000000001	0.004	No	2.781	-0.004	4.0	NoResponse	0	0.284	479.849	8	50	Target	Neutral	True
480.799	0.48	Control	0.6667000000000001	n/a	No	2.781	n/a	n/a	NoResponse	0	n/a	n/a	8	50	Blank	Neutral	True
480.849	0.3	Control	0.6667000000000001	0.004	No	2.781	-0.004	4.0	NoResponse	0	0.284	n/a	8	50	ButtonPress	Neutral	True
481.267	1.45	Control	0.6667000000000001	n/a	No	2.781	n/a	5	NoResponse	0	0.023	480.29	8	50	Feedback	Neutral	True
482.722	2.781	Control	0.6667000000000001	n/a	No	2.781	n/a	n/a	NoResponse	0	0.0	n/a	8	50	ISIslide	Neutral	True
485.53	0.25	Control	0.6537999999999999	0.0	No	2.72	0.03	n/a	NoResponse	0	n/a	n/a	8	51	Cue	Neutral	True
485.781	3.95	Control	0.6537999999999999	0.0	No	2.72	0.001	n/a	NoResponse	0	n/a	n/a	8	51	Fixation	Neutral	True
489.726	0.21	Control	0.6537999999999999	0.004	No	2.72	-0.004	4.0	NoResponse	0	0.442	489.168	8	51	Target	Neutral	True
489.943	0.49	Control	0.6537999999999999	n/a	No	2.72	n/a	n/a	NoResponse	0	n/a	n/a	8	51	Blank	Neutral	True
490.168	0.3	Control	0.6537999999999999	0.004	No	2.72	-0.004	4.0	NoResponse	0	0.442	n/a	8	51	ButtonPress	Neutral	True
490.428	1.45	Control	0.6537999999999999	n/a	No	2.72	n/a	5	NoResponse	0	0.032	489.46	8	51	Feedback	Neutral	True
491.882	2.72	Control	0.6537999999999999	n/a	No	2.72	n/a	n/a	NoResponse	0	0.0	n/a	8	51	ISIslide	Neutral	True
494.624	0.25	Control	0.6415000000000001	0.0	No	2.626	0.024	n/a	NoResponse	0	n/a	n/a	8	52	Cue	Neutral	True
494.875	4.05	Control	0.6415000000000001	0.0	No	2.626	0.001	n/a	NoResponse	0	n/a	n/a	8	52	Fixation	Neutral	True
498.92	0.22	Control	0.6415000000000001	0.004	No	2.626	-0.004	4.0	NoResponse	0	0.298	498.218	8	52	Target	Neutral	True
499.154	0.48	Control	0.6415000000000001	n/a	No	2.626	n/a	n/a	NoResponse	0	n/a	n/a	8	52	Blank	Neutral	True
499.218	0.3	Control	0.6415000000000001	0.004	No	2.626	-0.004	4.0	NoResponse	0	0.298	n/a	8	52	ButtonPress	Neutral	True
499.622	1.45	Control	0.6415000000000001	n/a	No	2.626	n/a	5	NoResponse	0	0.009	498.631	8	52	Feedback	Neutral	True
501.076	2.626	Control	0.6415000000000001	n/a	No	2.626	n/a	n/a	NoResponse	0	0.0	n/a	8	52	ISIslide	Neutral	True
503.718	0.25	Win2	0.6296	0.0	No	2.932	0.018	n/a	NoResponse	0	n/a	n/a	8	53	Cue	MissedWin	False
503.968	4.05	Win2	0.6296	0.001	No	2.932	0.0	4	NoResponse	0	0.101	503.069	8	53	Fixation	MissedWin	False
504.069	0.3	Win2	0.6296	0.001	No	2.932	0.0	4	NoResponse	0	0.101	n/a	8	53	ButtonPress	MissedWin	False
508.014	0.23	Win2	0.6296	0.004	No	2.932	-0.004	4.0	NoResponse	0	0.266	507.28	8	53	Target	MissedWin	False
508.248	0.47	Win2	0.6296	n/a	No	2.932	n/a	n/a	NoResponse	0	n/a	n/a	8	53	Blank	MissedWin	False
508.28	0.3	Win2	0.6296	0.004	No	2.932	-0.004	4.0	NoResponse	0	0.266	n/a	8	53	ButtonPress	MissedWin	False
508.716	1.45	Win2	0.6296	n/a	No	2.932	n/a	5	NoResponse	0	0.037	507.753	8	53	Feedback	MissedWin	False
510.17	2.932	Win2	0.6296	n/a	No	2.932	n/a	n/a	NoResponse	0	0.0	n/a	8	53	ISIslide	MissedWin	False
513.129	0.25	Win2	0.6182	0.0	No	2.721	0.029	n/a	NoResponse	0	n/a	n/a	8	54	Cue	MissedWin	False
513.38	3.95	Win2	0.6182	0.0	No	2.721	0.001	4	NoResponse	0	3.083	515.463	8	54	Fixation	MissedWin	False
516.463	0.3	Win2	0.6182	0.0	No	2.721	0.001	4	NoResponse	0	3.083	n/a	8	54	ButtonPress	MissedWin	False
517.325	0.24	Win2	0.6182	0.004	No	2.721	-0.004	4.0	NoResponse	0	0.261	516.586	8	54	Target	MissedWin	False
517.576	0.46	Win2	0.6182	n/a	No	2.721	n/a	n/a	NoResponse	0	n/a	n/a	8	54	Blank	MissedWin	False
517.586	0.3	Win2	0.6182	0.004	No	2.721	-0.004	4.0	NoResponse	0	0.261	n/a	8	54	ButtonPress	MissedWin	False
518.027	1.45	Win2	0.6182	n/a	No	2.721	n/a	5	NoResponse	0	0.043	517.07	8	54	Feedback	MissedWin	False
519.482	2.721	Win2	0.6182	n/a	No	2.721	n/a	n/a	NoResponse	0	0.0	n/a	8	54	ISIslide	MissedWin	False
522.223	0.25	Control	0.6071	0.0	No	3.027	0.023	n/a	NoResponse	0	n/a	n/a	8	55	Cue	Neutral	False
522.474	3.95	Control	0.6071	0.0	No	3.027	0.001	n/a	NoResponse	0	n/a	n/a	8	55	Fixation	Neutral	False
526.419	0.25	Control	0.6071	0.004	No	3.027	-0.004	n/a	NoResponse	0	n/a	n/a	8	55	Target	Neutral	False
526.67	0.45	Control	0.6071	n/a	No	3.027	n/a	n/a	NoResponse	0	n/a	n/a	8	55	Blank	Neutral	False
527.121	1.45	Control	0.6071	n/a	No	3.027	n/a	5	NoResponse	0	0.022	526.143	8	55	Feedback	Neutral	False
528.575	3.027	Control	0.6071	n/a	No	3.027	n/a	n/a	NoResponse	0	0.0	n/a	8	55	ISIslide	Neutral	False
531.618	0.25	Control	0.5965	0.0	No	2.832	0.018	n/a	NoResponse	0	n/a	n/a	8	56	Cue	Neutral	True
531.869	3.95	Control	0.5965	0.0	No	2.832	0.001	n/a	NoResponse	0	n/a	n/a	8	56	Fixation	Neutral	True
535.814	0.26	Control	0.5965	0.004	No	2.832	-0.004	4.0	NoResponse	0	0.29	535.104	8	56	Target	Neutral	True
536.081	0.44	Control	0.5965	n/a	No	2.832	n/a	n/a	NoResponse	0	n/a	n/a	8	56	Blank	Neutral	True
536.104	0.3	Control	0.5965	0.004	No	2.832	-0.004	4.0	NoResponse	0	0.29	n/a	8	56	ButtonPress	Neutral	True
536.516	1.45	Control	0.5965	n/a	No	2.832	n/a	5	NoResponse	0	0.041	535.557	8	56	Feedback	Neutral	True
537.97	2.832	Control	0.5965	n/a	No	2.832	n/a	4.0	NoResponse	0	0.18	n/a	8	56	ISIslide	Neutral	True
540.812	0.25	Control	0.6034	0.0	Yes	3.488	0.012	n/a	GoodResponse	0	n/a	n/a	8	57	Cue	Neutral	False
541.063	4.0	Control	0.6034	0.0	Yes	3.488	0.001	4	GoodResponse	0	0.765	540.828	8	57	Fixation	Neutral	False
541.828	0.3	Control	0.6034	0.0	Yes	3.488	0.001	4	GoodResponse	0	0.765	n/a	8	57	ButtonPress	Neutral	False
545.058	0.27	Control	0.6034	0.004	Yes	3.488	-0.004	4.0	GoodResponse	0	0.232	544.29	8	57	Target	Neutral	False
545.29	0.3	Control	0.6034	0.004	Yes	3.488	-0.004	4.0	GoodResponse	0	0.232	n/a	8	57	ButtonPress	Neutral	False
545.342	0.43	Control	0.6034	n/a	Yes	3.488	n/a	n/a	GoodResponse	0	n/a	n/a	8	57	Blank	Neutral	False
545.76	1.45	Control	0.6034	n/a	Yes	3.488	n/a	5	GoodResponse	0	0.017	544.777	8	57	Feedback	Neutral	False
547.214	3.488	Control	0.6034	n/a	Yes	3.488	n/a	n/a	GoodResponse	0	0.0	n/a	8	57	ISIslide	Neutral	False
550.725	0.25	Win2	0.6102000000000001	0.0	Yes	2.725	0.025	n/a	GoodResponse	1	n/a	n/a	9	58	Cue	Win	True
550.976	4.05	Win2	0.6102000000000001	0.0	Yes	2.725	0.001	n/a	GoodResponse	1	n/a	n/a	9	58	Fixation	Win	True
555.021	0.28	Win2	0.6102000000000001	0.004	Yes	2.725	-0.004	4.0	GoodResponse	1	0.253	554.274	9	58	Target	Win	True
555.274	0.3	Win2	0.6102000000000001	0.004	Yes	2.725	-0.004	4.0	GoodResponse	1	0.253	n/a	9	58	ButtonPress	Win	True
555.305	0.42	Win2	0.6102000000000001	n/a	Yes	2.725	n/a	n/a	GoodResponse	1	n/a	n/a	9	58	Blank	Win	True
555.723	1.45	Win2	0.6102000000000001	n/a	Yes	2.725	n/a	5	GoodResponse	1	0.007	554.73	9	58	Feedback	Win	True
557.178	2.725	Win2	0.6102000000000001	n/a	Yes	2.725	n/a	n/a	GoodResponse	1	0.0	n/a	9	58	ISIslide	Win	True
559.919	0.25	Lose2	0.6167	0.0	Yes	2.681	0.019	n/a	GoodResponse	0	n/a	n/a	9	59	Cue	AvoidedLoss	False
560.17	4.0	Lose2	0.6167	0.0	Yes	2.681	0.001	{SPACE}	GoodResponse	0	3.977	563.147	9	59	Fixation	AvoidedLoss	False
564.147	0.3	Lose2	0.6167	0.0	Yes	2.681	0.001	{SPACE}	GoodResponse	0	3.977	n/a	9	59	ButtonPress	AvoidedLoss	False
564.165	0.29	Lose2	0.6167	0.004	Yes	2.681	-0.004	4.0	GoodResponse	0	0.26	563.425	9	59	Target	AvoidedLoss	False
564.425	0.3	Lose2	0.6167	0.004	Yes	2.681	-0.004	4.0	GoodResponse	0	0.26	n/a	9	59	ButtonPress	AvoidedLoss	False
564.466	0.41	Lose2	0.6167	n/a	Yes	2.681	n/a	n/a	GoodResponse	0	n/a	n/a	9	59	Blank	AvoidedLoss	False
564.867	1.45	Lose2	0.6167	n/a	Yes	2.681	n/a	5	GoodResponse	0	0.032	563.899	9	59	Feedback	AvoidedLoss	False
566.322	2.681	Lose2	0.6167	n/a	Yes	2.681	n/a	n/a	GoodResponse	0	0.0	n/a	9	59	ISIslide	AvoidedLoss	False
569.03	0.25	Control	0.6065999999999999	0.0	No	2.67	0.03	n/a	NoResponse	0	n/a	n/a	9	60	Cue	Neutral	True
569.28	4.0	Control	0.6065999999999999	0.0	No	2.67	0.0	n/a	NoResponse	0	n/a	n/a	9	60	Fixation	Neutral	True
573.276	0.3	Control	0.6065999999999999	0.004	No	2.67	-0.004	4.0	NoResponse	0	0.343	572.619	9	60	Target	Neutral	True
573.577	0.4	Control	0.6065999999999999	n/a	No	2.67	n/a	n/a	NoResponse	0	n/a	n/a	9	60	Blank	Neutral	True
573.619	0.3	Control	0.6065999999999999	0.004	No	2.67	-0.004	4.0	NoResponse	0	0.343	n/a	9	60	ButtonPress	Neutral	True
573.978	1.45	Control	0.6065999999999999	n/a	No	2.67	n/a	5	NoResponse	0	0.042	573.02	9	60	Feedback	Neutral	True
575.432	2.67	Control	0.6065999999999999	n/a	No	2.67	n/a	n/a	NoResponse	0	0.0	n/a	9	60	ISIslide	Neutral	True
578.124	0.25	Lose2	0.5968	0.0	No	2.976	0.024	n/a	NoResponse	-1	n/a	n/a	8	61	Cue	Loss	True
578.374	4.0	Lose2	0.5968	0.0	No	2.976	0.0	n/a	NoResponse	-1	n/a	n/a	8	61	Fixation	Loss	True
582.37	0.31	Lose2	0.5968	0.004	No	2.976	-0.004	4.0	NoResponse	-1	0.528	581.898	8	61	Target	Loss	True
582.687	0.39	Lose2	0.5968	n/a	No	2.976	n/a	n/a	NoResponse	-1	n/a	n/a	8	61	Blank	Loss	True
582.898	0.3	Lose2	0.5968	0.004	No	2.976	-0.004	4.0	NoResponse	-1	0.528	n/a	8	61	ButtonPress	Loss	True
583.072	1.45	Lose2	0.5968	n/a	No	2.976	n/a	5	NoResponse	-1	0.021	582.093	8	61	Feedback	Loss	True
584.526	2.976	Lose2	0.5968	n/a	No	2.976	n/a	n/a	NoResponse	-1	0.0	n/a	8	61	ISIslide	Loss	True
587.518	0.25	Lose2	0.5872999999999999	0.0	No	2.882	0.018	n/a	NoResponse	-1	n/a	n/a	7	62	Cue	Loss	True
587.769	3.9	Lose2	0.5872999999999999	0.0	No	2.882	0.001	n/a	NoResponse	-1	n/a	n/a	7	62	Fixation	Loss	True
591.664	0.32	Lose2	0.5872999999999999	0.004	No	2.882	-0.004	4.0	NoResponse	-1	0.414	591.078	7	62	Target	Loss	True
591.998	0.38	Lose2	0.5872999999999999	n/a	No	2.882	n/a	n/a	NoResponse	-1	n/a	n/a	7	62	Blank	Loss	True
592.078	0.3	Lose2	0.5872999999999999	0.004	No	2.882	-0.004	4.0	NoResponse	-1	0.414	n/a	7	62	ButtonPress	Loss	True
592.366	1.45	Lose2	0.5872999999999999	n/a	No	2.882	n/a	5	NoResponse	-1	0.045	591.411	7	62	Feedback	Loss	True
593.82	2.882	Lose2	0.5872999999999999	n/a	No	2.882	n/a	n/a	NoResponse	-1	0.0	n/a	7	62	ISIslide	Loss	True
596.729	0.25	Lose2	0.5938	0.0	Yes	2.621	0.029	n/a	GoodResponse	0	n/a	n/a	7	63	Cue	AvoidedLoss	True
596.98	4.05	Lose2	0.5938	0.0	Yes	2.621	0.001	n/a	GoodResponse	0	n/a	n/a	7	63	Fixation	AvoidedLoss	True
601.025	0.33	Lose2	0.5938	0.004	Yes	2.621	-0.004	4.0	GoodResponse	0	0.255	600.28	7	63	Target	AvoidedLoss	True
601.28	0.3	Lose2	0.5938	0.004	Yes	2.621	-0.004	4.0	GoodResponse	0	0.255	n/a	7	63	ButtonPress	AvoidedLoss	True
601.36	0.37	Lose2	0.5938	n/a	Yes	2.621	n/a	n/a	GoodResponse	0	n/a	n/a	7	63	Blank	AvoidedLoss	True
601.727	1.45	Lose2	0.5938	n/a	Yes	2.621	n/a	5	GoodResponse	0	0.001	600.728	7	63	Feedback	AvoidedLoss	True
603.182	2.621	Lose2	0.5938	n/a	Yes	2.621	n/a	n/a	GoodResponse	0	0.0	n/a	7	63	ISIslide	AvoidedLoss	True
605.823	0.25	Win2	0.6	0.0	Yes	3.127	0.023	n/a	GoodResponse	1	n/a	n/a	8	64	Cue	Win	True
606.074	4.15	Win2	0.6	0.0	Yes	3.127	0.001	n/a	GoodResponse	1	n/a	n/a	8	64	Fixation	Win	True
610.219	0.34	Win2	0.6	0.004	Yes	3.127	-0.004	4.0	GoodResponse	1	0.236	609.455	8	64	Target	Win	True
610.455	0.3	Win2	0.6	0.004	Yes	3.127	-0.004	4.0	GoodResponse	1	0.236	n/a	8	64	ButtonPress	Win	True
610.571	0.36	Win2	0.6	n/a	Yes	3.127	n/a	n/a	GoodResponse	1	n/a	n/a	8	64	Blank	Win	True
610.922	1.45	Win2	0.6	n/a	Yes	3.127	n/a	5	GoodResponse	1	0.025	609.947	8	64	Feedback	Win	True
612.376	3.127	Win2	0.6	n/a	Yes	3.127	n/a	n/a	GoodResponse	1	0.0	n/a	8	64	ISIslide	Win	True
615.519	0.25	Control	0.6061	0.0	Yes	2.781	0.019	n/a	GoodResponse	0	n/a	n/a	8	65	Cue	Neutral	True
615.769	4.0	Control	0.6061	0.0	Yes	2.781	0.0	n/a	GoodResponse	0	n/a	n/a	8	65	Fixation	Neutral	True
619.765	0.35	Control	0.6061	0.004	Yes	2.781	-0.004	4.0	GoodResponse	0	0.263	619.028	8	65	Target	Neutral	True
620.028	0.3	Control	0.6061	0.004	Yes	2.781	-0.004	4.0	GoodResponse	0	0.263	n/a	8	65	ButtonPress	Neutral	True
620.116	0.35	Control	0.6061	n/a	Yes	2.781	n/a	n/a	GoodResponse	0	n/a	n/a	8	65	Blank	Neutral	True
620.467	1.45	Control	0.6061	n/a	Yes	2.781	n/a	5	GoodResponse	0	0.04	619.507	8	65	Feedback	Neutral	True
621.921	2.781	Control	0.6061	n/a	Yes	2.781	n/a	n/a	GoodResponse	0	0.0	n/a	8	65	ISIslide	Neutral	True
624.73	0.25	Win2	0.6119	0.0	Yes	2.77	0.03	n/a	GoodResponse	1	n/a	n/a	9	66	Cue	Win	True
624.98	3.9	Win2	0.6119	0.0	Yes	2.77	0.0	n/a	GoodResponse	1	n/a	n/a	9	66	Fixation	Win	True
628.892	0.36	Win2	0.6119	0.0	Yes	2.77	0.012	4.0	GoodResponse	1	0.282	628.174	9	66	Target	Win	True
629.174	0.3	Win2	0.6119	0.0	Yes	2.77	0.012	4.0	GoodResponse	1	0.282	n/a	9	66	ButtonPress	Win	True
629.243	0.34	Win2	0.6119	n/a	Yes	2.77	n/a	n/a	GoodResponse	1	n/a	n/a	9	66	Blank	Win	True
629.577	1.45	Win2	0.6119	n/a	Yes	2.77	n/a	5	GoodResponse	1	0.008	628.585	9	66	Feedback	Win	True
631.032	2.77	Win2	0.6119	n/a	Yes	2.77	n/a	n/a	GoodResponse	1	0.0	n/a	9	66	ISIslide	Win	True
633.823	0.25	Control	0.6175999999999999	0.0	Yes	2.727	0.023	n/a	GoodResponse	0	n/a	n/a	9	67	Cue	Neutral	True
634.074	3.95	Control	0.6175999999999999	0.0	Yes	2.727	0.001	n/a	GoodResponse	0	n/a	n/a	9	67	Fixation	Neutral	True
638.019	0.37	Control	0.6175999999999999	0.004	Yes	2.727	-0.004	4.0	GoodResponse	0	0.359	637.378	9	67	Target	Neutral	True
638.378	0.3	Control	0.6175999999999999	0.004	Yes	2.727	-0.004	4.0	GoodResponse	0	0.359	n/a	9	67	ButtonPress	Neutral	True
638.404	0.33	Control	0.6175999999999999	n/a	Yes	2.727	n/a	n/a	GoodResponse	0	n/a	n/a	9	67	Blank	Neutral	True
638.721	1.45	Control	0.6175999999999999	n/a	Yes	2.727	n/a	5	GoodResponse	0	0.031	637.752	9	67	Feedback	Neutral	True
640.176	2.727	Control	0.6175999999999999	n/a	Yes	2.727	n/a	n/a	GoodResponse	0	0.0	n/a	9	67	ISIslide	Neutral	True
642.917	0.25	Win2	0.6232	0.0	Yes	3.083	0.017	n/a	GoodResponse	1	n/a	n/a	10	68	Cue	Win	True
643.168	4.0	Win2	0.6232	0.0	Yes	3.083	0.001	n/a	GoodResponse	1	n/a	n/a	10	68	Fixation	Win	True
647.163	0.38	Win2	0.6232	0.004	Yes	3.083	-0.004	4.0	GoodResponse	1	0.256	646.419	10	68	Target	Win	True
647.419	0.3	Win2	0.6232	0.004	Yes	3.083	-0.004	4.0	GoodResponse	1	0.256	n/a	10	68	ButtonPress	Win	True
647.548	0.32	Win2	0.6232	n/a	Yes	3.083	n/a	n/a	GoodResponse	1	n/a	n/a	10	68	Blank	Win	True
647.865	1.45	Win2	0.6232	n/a	Yes	3.083	n/a	5	GoodResponse	1	0.009	646.874	10	68	Feedback	Win	True
649.32	3.083	Win2	0.6232	n/a	Yes	3.083	n/a	n/a	GoodResponse	1	0.0	n/a	10	68	ISIslide	Win	True
652.429	0.25	Win2	0.6286	0.0	Yes	3.221	0.029	n/a	GoodResponse	1	n/a	n/a	11	69	Cue	Win	True
652.68	3.95	Win2	0.6286	0.0	Yes	3.221	0.001	n/a	GoodResponse	1	n/a	n/a	11	69	Fixation	Win	True
656.625	0.39	Win2	0.6286	0.004	Yes	3.221	-0.004	4.0	GoodResponse	1	0.223	655.848	11	69	Target	Win	True
656.848	0.3	Win2	0.6286	0.004	Yes	3.221	-0.004	4.0	GoodResponse	1	0.223	n/a	11	69	ButtonPress	Win	True
657.026	0.31	Win2	0.6286	n/a	Yes	3.221	n/a	n/a	GoodResponse	1	n/a	n/a	11	69	Blank	Win	True
657.327	1.45	Win2	0.6286	n/a	Yes	3.221	n/a	5	GoodResponse	1	0.01	656.337	11	69	Feedback	Win	True
658.781	3.221	Win2	0.6286	n/a	Yes	3.221	n/a	n/a	GoodResponse	1	0.0	n/a	11	69	ISIslide	Win	True
662.024	0.25	Lose2	0.6338	0.001	Yes	3.026	0.024	n/a	GoodResponse	0	n/a	n/a	11	70	Cue	AvoidedLoss	True
662.275	4.05	Lose2	0.6338	0.0	Yes	3.026	0.001	n/a	GoodResponse	0	n/a	n/a	11	70	Fixation	AvoidedLoss	True
666.321	0.4	Lose2	0.6338	0.003	Yes	3.026	-0.003	4.0	GoodResponse	0	0.248	665.569	11	70	Target	AvoidedLoss	True
666.569	0.3	Lose2	0.6338	0.003	Yes	3.026	-0.003	4.0	GoodResponse	0	0.248	n/a	11	70	ButtonPress	AvoidedLoss	True
666.722	0.3	Lose2	0.6338	n/a	Yes	3.026	n/a	n/a	GoodResponse	0	n/a	n/a	11	70	Blank	AvoidedLoss	True
667.023	1.45	Lose2	0.6338	n/a	Yes	3.026	n/a	5	GoodResponse	0	0.021	666.044	11	70	Feedback	AvoidedLoss	True
668.477	3.026	Lose2	0.6338	n/a	Yes	3.026	n/a	n/a	GoodResponse	0	0.0	n/a	11	70	ISIslide	AvoidedLoss	True
671.519	0.25	Win2	0.6389	0.001	Yes	2.731	0.019	n/a	GoodResponse	1	n/a	n/a	12	71	Cue	Win	True
671.77	4.05	Win2	0.6389	0.0	Yes	2.731	0.001	n/a	GoodResponse	1	n/a	n/a	12	71	Fixation	Win	True
675.816	0.41	Win2	0.6389	0.003	Yes	2.731	-0.003	4.0	GoodResponse	1	0.288	675.104	12	71	Target	Win	True
676.104	0.3	Win2	0.6389	0.003	Yes	2.731	-0.003	4.0	GoodResponse	1	0.288	n/a	12	71	ButtonPress	Win	True
676.234	0.29	Win2	0.6389	n/a	Yes	2.731	n/a	n/a	GoodResponse	1	n/a	n/a	12	71	Blank	Win	True
676.518	1.45	Win2	0.6389	n/a	Yes	2.731	n/a	5	GoodResponse	1	0.038	675.556	12	71	Feedback	Win	True
677.972	2.731	Win2	0.6389	n/a	Yes	2.731	n/a	n/a	GoodResponse	1	0.0	n/a	12	71	ISIslide	Win	True
680.73	0.25	Win2	0.6437999999999999	0.0	Yes	2.77	0.03	n/a	GoodResponse	1	n/a	n/a	13	72	Cue	Win	True
680.981	4.1	Win2	0.6437999999999999	0.0	Yes	2.77	0.001	n/a	GoodResponse	1	n/a	n/a	13	72	Fixation	Win	True
685.077	0.42	Win2	0.6437999999999999	0.003	Yes	2.77	-0.003	4.0	GoodResponse	1	0.269	684.346	13	72	Target	Win	True
685.346	0.3	Win2	0.6437999999999999	0.003	Yes	2.77	-0.003	4.0	GoodResponse	1	0.269	n/a	13	72	ButtonPress	Win	True
685.511	0.28	Win2	0.6437999999999999	n/a	Yes	2.77	n/a	n/a	GoodResponse	1	n/a	n/a	13	72	Blank	Win	True
685.779	1.45	Win2	0.6437999999999999	n/a	Yes	2.77	n/a	5	GoodResponse	1	0.045	684.824	13	72	Feedback	Win	True
687.233	2.77	Win2	0.6437999999999999	n/a	Yes	2.77	n/a	n/a	GoodResponse	1	0.0	n/a	13	72	ISIslide	Win	True
690.025	0.25	Win2	0.6486	0.0	Yes	2.675	0.025	n/a	GoodResponse	1	n/a	n/a	14	73	Cue	Win	True
690.276	4.0	Win2	0.6486	0.0	Yes	2.675	0.001	n/a	GoodResponse	1	n/a	n/a	14	73	Fixation	Win	True
694.271	0.43	Win2	0.6486	0.004	Yes	2.675	-0.004	4.0	GoodResponse	1	0.29	693.561	14	73	Target	Win	True
694.561	0.3	Win2	0.6486	0.004	Yes	2.675	-0.004	4.0	GoodResponse	1	0.29	n/a	14	73	ButtonPress	Win	True
694.705	0.27	Win2	0.6486	n/a	Yes	2.675	n/a	n/a	GoodResponse	1	n/a	n/a	14	73	Blank	Win	True
694.973	1.45	Win2	0.6486	n/a	Yes	2.675	n/a	5	GoodResponse	1	0.022	693.995	14	73	Feedback	Win	True
696.427	2.675	Win2	0.6486	n/a	Yes	2.675	n/a	n/a	GoodResponse	1	0.0	n/a	14	73	ISIslide	Win	True
699.119	0.25	Lose2	0.64	0.0	No	2.631	0.019	n/a	NoResponse	-1	n/a	n/a	13	74	Cue	Loss	False
699.369	4.05	Lose2	0.64	0.0	No	2.631	0.0	n/a	NoResponse	-1	n/a	n/a	13	74	Fixation	Loss	False
703.415	0.44	Lose2	0.64	0.004	No	2.631	-0.004	n/a	NoResponse	-1	n/a	n/a	13	74	Target	Loss	False
703.866	0.26	Lose2	0.64	n/a	No	2.631	n/a	n/a	NoResponse	-1	n/a	n/a	13	74	Blank	Loss	False
704.117	1.45	Lose2	0.64	n/a	No	2.631	n/a	5	NoResponse	-1	0.048	703.165	13	74	Feedback	Loss	False
705.571	2.631	Lose2	0.64	n/a	No	2.631	n/a	n/a	NoResponse	-1	0.0	n/a	13	74	ISIslide	Loss	False
708.229	0.25	Lose2	0.6446999999999999	0.0	Yes	2.921	0.029	n/a	GoodResponse	0	n/a	n/a	13	75	Cue	AvoidedLoss	True
708.48	3.95	Lose2	0.6446999999999999	0.0	Yes	2.921	0.001	n/a	GoodResponse	0	n/a	n/a	13	75	Fixation	AvoidedLoss	True
712.425	0.45	Lose2	0.6446999999999999	0.004	Yes	2.921	-0.004	4.0	GoodResponse	0	0.24	711.665	13	75	Target	AvoidedLoss	True
712.665	0.3	Lose2	0.6446999999999999	0.004	Yes	2.921	-0.004	4.0	GoodResponse	0	0.24	n/a	13	75	ButtonPress	AvoidedLoss	True
712.876	0.25	Lose2	0.6446999999999999	n/a	Yes	2.921	n/a	n/a	GoodResponse	0	n/a	n/a	13	75	Blank	AvoidedLoss	True
713.127	1.45	Lose2	0.6446999999999999	n/a	Yes	2.921	n/a	5	GoodResponse	0	0.014	712.141	13	75	Feedback	AvoidedLoss	True
714.582	2.921	Lose2	0.6446999999999999	n/a	Yes	2.921	n/a	n/a	GoodResponse	0	0.0	n/a	13	75	ISIslide	AvoidedLoss	True
717.524	0.25	Control	0.6494	0.0	Yes	3.226	0.024	n/a	GoodResponse	0	n/a	n/a	13	76	Cue	Neutral	True
717.774	4.05	Control	0.6494	0.0	Yes	3.226	0.0	n/a	GoodResponse	0	n/a	n/a	13	76	Fixation	Neutral	True
721.82	0.46	Control	0.6494	0.004	Yes	3.226	-0.004	4.0	GoodResponse	0	0.288	721.108	13	76	Target	Neutral	True
722.108	0.3	Control	0.6494	0.004	Yes	3.226	-0.004	4.0	GoodResponse	0	0.288	n/a	13	76	ButtonPress	Neutral	True
722.288	0.24	Control	0.6494	n/a	Yes	3.226	n/a	n/a	GoodResponse	0	n/a	n/a	13	76	Blank	Neutral	True
722.522	1.45	Control	0.6494	n/a	Yes	3.226	n/a	5	GoodResponse	0	0.034	721.556	13	76	Feedback	Neutral	True
723.976	3.226	Control	0.6494	n/a	Yes	3.226	n/a	n/a	GoodResponse	0	0.0	n/a	13	76	ISIslide	Neutral	True
727.219	0.25	Lose2	0.6537999999999999	0.0	Yes	2.581	0.019	n/a	GoodResponse	0	n/a	n/a	13	77	Cue	AvoidedLoss	True
727.47	3.95	Lose2	0.6537999999999999	0.0	Yes	2.581	0.001	n/a	GoodResponse	0	n/a	n/a	13	77	Fixation	AvoidedLoss	True
731.415	0.47	Lose2	0.6537999999999999	0.004	Yes	2.581	-0.004	4.0	GoodResponse	0	0.252	730.667	13	77	Target	AvoidedLoss	True
731.667	0.3	Lose2	0.6537999999999999	0.004	Yes	2.581	-0.004	4.0	GoodResponse	0	0.252	n/a	13	77	ButtonPress	AvoidedLoss	True
731.9	0.23	Lose2	0.6537999999999999	n/a	Yes	2.581	n/a	n/a	GoodResponse	0	n/a	n/a	13	77	Blank	AvoidedLoss	True
732.117	1.45	Lose2	0.6537999999999999	n/a	Yes	2.581	n/a	5	GoodResponse	0	0.048	731.165	13	77	Feedback	AvoidedLoss	True
733.572	2.581	Lose2	0.6537999999999999	n/a	Yes	2.581	n/a	n/a	GoodResponse	0	0.0	n/a	13	77	ISIslide	AvoidedLoss	True
