onset	duration	cue_type	current_mean_accuracy	duration_error	is_hit	isi_adjusted	onset_delay	response	response_type	reward	rt	rt_time	total_reward	trial_number	trial_phase	trial_type	one_press
11.111	0.25	Control	1.0	0.0	Yes	2.939	0.011	n/a	GoodResponse	0	n/a	n/a	0	0	Cue	Neutral	True
11.362	3.85	Control	1.0	0.0	Yes	2.939	0.001	n/a	GoodResponse	0	n/a	n/a	0	0	Fixation	Neutral	True
15.207	0.4	Control	1.0	0.004	Yes	2.939	-0.004	4.0	GoodResponse	0	0.296	14.503	0	0	Target	Neutral	True
15.503	0.3	Control	1.0	0.004	Yes	2.939	-0.004	4.0	GoodResponse	0	0.296	n/a	0	0	ButtonPress	Neutral	True
15.608	0.3	Control	1.0	n/a	Yes	2.939	n/a	n/a	GoodResponse	0	n/a	n/a	0	0	Blank	Neutral	True
15.909	1.45	Control	1.0	n/a	Yes	2.939	n/a	5.0	GoodResponse	0	0.017	14.926	0	0	Feedback	Neutral	True
17.363	2.939	Control	1.0	n/a	Yes	2.939	n/a	n/a	GoodResponse	0	0.0	n/a	0	0	ISIslide	Neutral	True
20.322	0.25	Lose2	1.0	0.0	Yes	2.778	0.022	n/a	GoodResponse	0	n/a	n/a	0	1	Cue	AvoidedLoss	True
20.573	4.0	Lose2	1.0	0.0	Yes	2.778	0.001	n/a	GoodResponse	0	n/a	n/a	0	1	Fixation	AvoidedLoss	True
24.568	0.39	Lose2	1.0	0.004	Yes	2.778	-0.004	4.0	GoodResponse	0	0.26	23.828	0	1	Target	AvoidedLoss	True
24.828	0.3	Lose2	1.0	0.004	Yes	2.778	-0.004	4.0	GoodResponse	0	0.26	n/a	0	1	ButtonPress	AvoidedLoss	True
24.969	0.31	Lose2	1.0	n/a	Yes	2.778	n/a	n/a	GoodResponse	0	n/a	n/a	0	1	Blank	AvoidedLoss	True
25.27	1.45	Lose2	1.0	n/a	Yes	2.778	n/a	5.0	GoodResponse	0	0.022	24.292	0	1	Feedback	AvoidedLoss	True
26.724	2.778	Lose2	1.0	n/a	Yes	2.778	n/a	n/a	GoodResponse	0	0.0	n/a	0	1	ISIslide	AvoidedLoss	True
29.516	0.25	Control	1.0	0.0	Yes	2.584	0.016	n/a	GoodResponse	0	n/a	n/a	0	2	Cue	Neutral	True
29.767	4.1	Control	1.0	0.0	Yes	2.584	0.001	n/a	GoodResponse	0	n/a	n/a	0	2	Fixation	Neutral	True
33.862	0.38	Control	1.0	0.004	Yes	2.584	-0.004	4.0	GoodResponse	0	0.317	33.179	0	2	Target	Neutral	True
34.179	0.3	Control	1.0	0.004	Yes	2.584	-0.004	4.0	GoodResponse	0	0.317	n/a	0	2	ButtonPress	Neutral	True
34.247	0.32	Control	1.0	n/a	Yes	2.584	n/a	n/a	GoodResponse	0	n/a	n/a	0	2	Blank	Neutral	True
34.564	1.45	Control	1.0	n/a	Yes	2.584	n/a	5.0	GoodResponse	0	0.045	33.609	0	2	Feedback	Neutral	True
36.019	2.584	Control	1.0	n/a	Yes	2.584	n/a	n/a	GoodResponse	0	0.0	n/a	0	2	ISIslide	Neutral	True
38.626	0.25	Win2	0.75	0.001	No	2.824	0.026	n/a	NoResponse	0	n/a	n/a	0	3	Cue	MissedWin	True
38.877	3.95	Win2	0.75	0.0	No	2.824	0.001	n/a	NoResponse	0	n/a	n/a	0	3	Fixation	MissedWin	True
42.822	0.37	Win2	0.75	0.004	No	2.824	-0.004	4.0	NoResponse	0	0.442	42.264	0	3	Target	MissedWin	True
43.207	0.33	Win2	0.75	n/a	No	2.824	n/a	n/a	NoResponse	0	n/a	n/a	0	3	Blank	MissedWin	True
43.264	0.3	Win2	0.75	0.004	No	2.824	-0.004	4.0	NoResponse	0	0.442	n/a	0	3	ButtonPress	MissedWin	True
43.524	1.45	Win2	0.75	n/a	No	2.824	n/a	5.0	NoResponse	0	0.011	42.535	0	3	Feedback	MissedWin	True
44.979	2.824	Win2	0.75	n/a	No	2.824	n/a	n/a	NoResponse	0	0.0	n/a	0	3	ISIslide	MissedWin	True
47.821	0.25	Win2	0.8	0.0	Yes	3.279	0.021	n/a	GoodResponse	1	n/a	n/a	1	4	Cue	Win	True
48.071	4.0	Win2	0.8	0.0	Yes	3.279	0.0	n/a	GoodResponse	1	n/a	n/a	1	4	Fixation	Win	True
52.067	0.36	Win2	0.8	0.004	Yes	3.279	-0.004	4.0	GoodResponse	1	0.245	51.312	1	4	Target	Win	True
52.312	0.3	Win2	0.8	0.004	Yes	3.279	-0.004	4.0	GoodResponse	1	0.245	n/a	1	4	ButtonPress	Win	True
52.434	0.34	Win2	0.8	n/a	Yes	3.279	n/a	n/a	GoodResponse	1	n/a	n/a	1	4	Blank	Win	True
52.769	1.45	Win2	0.8	n/a	Yes	3.279	n/a	5.0	GoodResponse	1	0.034	51.803	1	4	Feedback	Win	True
54.223	3.279	Win2	0.8	n/a	Yes	3.279	n/a	n/a	GoodResponse	1	0.0	n/a	1	4	ISIslide	Win	True
57.516	0.25	Win2	0.8332999999999999	0.0	Yes	2.784	0.016	n/a	GoodResponse	1	n/a	n/a	2	5	Cue	Win	True
57.767	4.0	Win2	0.8332999999999999	0.0	Yes	2.784	0.001	n/a	GoodResponse	1	n/a	n/a	2	5	Fixation	Win	True
61.762	0.35	Win2	0.8332999999999999	0.004	Yes	2.784	-0.004	4.0	GoodResponse	1	0.239	61.001	2	5	Target	Win	True
62.001	0.3	Win2	0.8332999999999999	0.004	Yes	2.784	-0.004	4.0	GoodResponse	1	0.239	n/a	2	5	ButtonPress	Win	True
62.113	0.35	Win2	0.8332999999999999	n/a	Yes	2.784	n/a	n/a	GoodResponse	1	n/a	n/a	2	5	Blank	Win	True
62.464	1.45	Win2	0.8332999999999999	n/a	Yes	2.784	n/a	5.0	GoodResponse	1	0.047	61.511	2	5	Feedback	Win	True
63.919	2.784	Win2	0.8332999999999999	n/a	Yes	2.784	n/a	n/a	GoodResponse	1	0.0	n/a	2	5	ISIslide	Win	True
66.727	0.25	Lose2	0.8571	0.0	Yes	2.723	0.027	n/a	GoodResponse	0	n/a	n/a	2	6	Cue	AvoidedLoss	True
66.978	3.95	Lose2	0.8571	0.0	Yes	2.723	0.001	n/a	GoodResponse	0	n/a	n/a	2	6	Fixation	AvoidedLoss	True
70.923	0.34	Lose2	0.8571	0.004	Yes	2.723	-0.004	4.0	GoodResponse	0	0.206	70.129	2	6	Target	AvoidedLoss	True
71.129	0.3	Lose2	0.8571	0.004	Yes	2.723	-0.004	4.0	GoodResponse	0	0.206	n/a	2	6	ButtonPress	AvoidedLoss	True
71.274	0.36	Lose2	0.8571	n/a	Yes	2.723	n/a	n/a	GoodResponse	0	n/a	n/a	2	6	Blank	AvoidedLoss	True
71.625	1.45	Lose2	0.8571	n/a	Yes	2.723	n/a	5.0	GoodResponse	0	0.008	70.633	2	6	Feedback	AvoidedLoss	True
73.079	2.723	Lose2	0.8571	n/a	Yes	2.723	n/a	n/a	GoodResponse	0	0.0	n/a	2	6	ISIslide	AvoidedLoss	True
75.821	0.25	Lose2	0.875	0.0	Yes	4.029	0.021	n/a	GoodResponse	0	n/a	n/a	2	7	Cue	AvoidedLoss	True
76.072	4.05	Lose2	0.875	0.0	Yes	4.029	0.001	n/a	GoodResponse	0	n/a	n/a	2	7	Fixation	AvoidedLoss	True
80.117	0.33	Lose2	0.875	0.004	Yes	4.029	-0.004	4.0	GoodResponse	0	0.212	79.329	2	7	Target	AvoidedLoss	True
80.329	0.3	Lose2	0.875	0.004	Yes	4.029	-0.004	4.0	GoodResponse	0	0.212	n/a	2	7	ButtonPress	AvoidedLoss	True
80.451	0.37	Lose2	0.875	n/a	Yes	4.029	n/a	n/a	GoodResponse	0	n/a	n/a	2	7	Blank	AvoidedLoss	True
80.819	1.45	Lose2	0.875	n/a	Yes	4.029	n/a	5.0	GoodResponse	0	0.033	79.852	2	7	Feedback	AvoidedLoss	True
82.273	4.029	Lose2	0.875	n/a	Yes	4.029	n/a	n/a	GoodResponse	0	0.0	n/a	2	7	ISIslide	AvoidedLoss	True
86.319	0.25	Lose2	0.8889	0.0	Yes	3.031	0.019	n/a	GoodResponse	0	n/a	n/a	2	8	Cue	AvoidedLoss	True
86.57	3.95	Lose2	0.8889	0.0	Yes	3.031	0.001	n/a	GoodResponse	0	n/a	n/a	2	8	Fixation	AvoidedLoss	True
90.515	0.32	Lose2	0.8889	0.004	Yes	3.031	-0.004	4.0	GoodResponse	0	0.233	89.748	2	8	Target	AvoidedLoss	True
90.748	0.3	Lose2	0.8889	0.004	Yes	3.031	-0.004	4.0	GoodResponse	0	0.233	n/a	2	8	ButtonPress	AvoidedLoss	True
90.849	0.38	Lose2	0.8889	n/a	Yes	3.031	n/a	n/a	GoodResponse	0	n/a	n/a	2	8	Blank	AvoidedLoss	True
91.217	1.45	Lose2	0.8889	n/a	Yes	3.031	n/a	5.0	GoodResponse	0	0.025	90.242	2	8	Feedback	AvoidedLoss	True
92.671	3.031	Lose2	0.8889	n/a	Yes	3.031	n/a	n/a	GoodResponse	0	0.0	n/a	2	8	ISIslide	AvoidedLoss	True
95.73	0.25	Lose2	0.9	0.0	Yes	3.12	0.03	n/a	GoodResponse	0	n/a	n/a	2	9	Cue	AvoidedLoss	True
95.981	3.95	Lose2	0.9	0.0	Yes	3.12	0.001	n/a	GoodResponse	0	n/a	n/a	2	9	Fixation	AvoidedLoss	True
99.926	0.31	Lose2	0.9	0.004	Yes	3.12	-0.004	4.0	GoodResponse	0	0.186	99.112	2	9	Target	AvoidedLoss	True
100.112	0.3	Lose2	0.9	0.004	Yes	3.12	-0.004	4.0	GoodResponse	0	0.186	n/a	2	9	ButtonPress	AvoidedLoss	True
100.244	0.39	Lose2	0.9	n/a	Yes	3.12	n/a	n/a	GoodResponse	0	n/a	n/a	2	9	Blank	AvoidedLoss	True
100.628	1.45	Lose2	0.9	n/a	Yes	3.12	n/a	5.0	GoodResponse	0	0.029	99.657	2	9	Feedback	AvoidedLoss	True
102.082	3.12	Lose2	0.9	n/a	Yes	3.12	n/a	n/a	GoodResponse	0	0.0	n/a	2	9	ISIslide	AvoidedLoss	True
105.225	0.25	Control	0.9091	0.0	Yes	3.275	0.025	n/a	GoodResponse	0	n/a	n/a	2	10	Cue	Neutral	True
105.476	4.0	Control	0.9091	0.0	Yes	3.275	0.001	n/a	GoodResponse	0	n/a	n/a	2	10	Fixation	Neutral	True
109.471	0.3	Control	0.9091	0.004	Yes	3.275	-0.004	4.0	GoodResponse	0	0.25	108.721	2	10	Target	Neutral	True
109.721	0.3	Control	0.9091	0.004	Yes	3.275	-0.004	4.0	GoodResponse	0	0.25	n/a	2	10	ButtonPress	Neutral	True
109.772	0.4	Control	0.9091	n/a	Yes	3.275	n/a	n/a	GoodResponse	0	n/a	n/a	2	10	Blank	Neutral	True
110.173	1.45	Control	0.9091	n/a	Yes	3.275	n/a	5.0	GoodResponse	0	0.044	109.217	2	10	Feedback	Neutral	True
111.628	3.275	Control	0.9091	n/a	Yes	3.275	n/a	n/a	GoodResponse	0	0.0	n/a	2	10	ISIslide	Neutral	True
114.921	0.25	Lose2	0.9167000000000001	0.0	Yes	2.729	0.021	n/a	GoodResponse	0	n/a	n/a	2	11	Cue	AvoidedLoss	True
115.172	4.05	Lose2	0.9167000000000001	0.0	Yes	2.729	0.001	n/a	GoodResponse	0	n/a	n/a	2	11	Fixation	AvoidedLoss	True
119.217	0.29	Lose2	0.9167000000000001	0.004	Yes	2.729	-0.004	4.0	GoodResponse	0	0.223	118.44	2	11	Target	AvoidedLoss	True
119.44	0.3	Lose2	0.9167000000000001	0.004	Yes	2.729	-0.004	4.0	GoodResponse	0	0.223	n/a	2	11	ButtonPress	AvoidedLoss	True
119.518	0.41	Lose2	0.9167000000000001	n/a	Yes	2.729	n/a	n/a	GoodResponse	0	n/a	n/a	2	11	Blank	AvoidedLoss	True
119.919	1.45	Lose2	0.9167000000000001	n/a	Yes	2.729	n/a	5.0	GoodResponse	0	0.007	118.926	2	11	Feedback	AvoidedLoss	True
121.373	2.729	Lose2	0.9167000000000001	n/a	Yes	2.729	n/a	n/a	GoodResponse	0	0.0	n/a	2	11	ISIslide	AvoidedLoss	True
124.115	0.25	Control	0.9231	0.0	Yes	2.985	0.015	n/a	GoodResponse	0	n/a	n/a	2	12	Cue	Neutral	True
124.366	3.9	Control	0.9231	0.0	Yes	2.985	0.001	n/a	GoodResponse	0	n/a	n/a	2	12	Fixation	Neutral	True
128.261	0.28	Control	0.9231	0.004	Yes	2.985	-0.004	4.0	GoodResponse	0	0.204	127.465	2	12	Target	Neutral	True
128.465	0.3	Control	0.9231	0.004	Yes	2.985	-0.004	4.0	GoodResponse	0	0.204	n/a	2	12	ButtonPress	Neutral	True
128.545	0.42	Control	0.9231	n/a	Yes	2.985	n/a	n/a	GoodResponse	0	n/a	n/a	2	12	Blank	Neutral	True
128.963	1.45	Control	0.9231	n/a	Yes	2.985	n/a	5.0	GoodResponse	0	0.034	127.997	2	12	Feedback	Neutral	True
130.417	2.985	Control	0.9231	n/a	Yes	2.985	n/a	n/a	GoodResponse	0	0.0	n/a	2	12	ISIslide	Neutral	True
133.426	0.25	Control	0.9286	0.0	Yes	2.774	0.026	n/a	GoodResponse	0	n/a	n/a	2	13	Cue	Neutral	True
133.677	4.0	Control	0.9286	0.0	Yes	2.774	0.001	n/a	GoodResponse	0	n/a	n/a	2	13	Fixation	Neutral	True
137.672	0.27	Control	0.9286	0.004	Yes	2.774	-0.004	4.0	GoodResponse	0	0.232	136.904	2	13	Target	Neutral	True
137.904	0.3	Control	0.9286	0.004	Yes	2.774	-0.004	4.0	GoodResponse	0	0.232	n/a	2	13	ButtonPress	Neutral	True
137.956	0.43	Control	0.9286	n/a	Yes	2.774	n/a	n/a	GoodResponse	0	n/a	n/a	2	13	Blank	Neutral	True
138.374	1.45	Control	0.9286	n/a	Yes	2.774	n/a	5.0	GoodResponse	0	0.038	137.412	2	13	Feedback	Neutral	True
139.828	2.774	Control	0.9286	n/a	Yes	2.774	n/a	n/a	GoodResponse	0	0.0	n/a	2	13	ISIslide	Neutral	True
142.62	0.25	Win2	0.9333	0.0	Yes	2.68	0.02	n/a	GoodResponse	1	n/a	n/a	3	14	Cue	Win	True
142.871	4.1	Win2	0.9333	0.0	Yes	2.68	0.001	n/a	GoodResponse	1	n/a	n/a	3	14	Fixation	Win	True
146.966	0.26	Win2	0.9333	0.004	Yes	2.68	-0.004	4.0	GoodResponse	1	0.226	146.192	3	14	Target	Win	True
147.192	0.3	Win2	0.9333	0.004	Yes	2.68	-0.004	4.0	GoodResponse	1	0.226	n/a	3	14	ButtonPress	Win	True
147.234	0.44	Win2	0.9333	n/a	Yes	2.68	n/a	n/a	GoodResponse	1	n/a	n/a	3	14	Blank	Win	True
147.668	1.45	Win2	0.9333	n/a	Yes	2.68	n/a	5.0	GoodResponse	1	0.012	146.68	3	14	Feedback	Win	True
149.123	2.68	Win2	0.9333	n/a	Yes	2.68	n/a	n/a	GoodResponse	1	0.0	n/a	3	14	ISIslide	Win	True
151.831	0.25	Control	0.9375	0.0	Yes	2.969	0.031	n/a	GoodResponse	0	n/a	n/a	3	15	Cue	Neutral	True
152.082	4.0	Control	0.9375	0.0	Yes	2.969	0.001	n/a	GoodResponse	0	n/a	n/a	3	15	Fixation	Neutral	True
156.077	0.25	Control	0.9375	0.004	Yes	2.969	-0.004	4.0	GoodResponse	0	0.238	155.315	3	15	Target	Neutral	True
156.315	0.3	Control	0.9375	0.004	Yes	2.969	-0.004	4.0	GoodResponse	0	0.238	n/a	3	15	ButtonPress	Neutral	True
156.328	0.45	Control	0.9375	n/a	Yes	2.969	n/a	n/a	GoodResponse	0	n/a	n/a	3	15	Blank	Neutral	True
156.779	1.45	Control	0.9375	n/a	Yes	2.969	n/a	5.0	GoodResponse	0	0.023	155.802	3	15	Feedback	Neutral	True
158.233	2.969	Control	0.9375	n/a	Yes	2.969	n/a	n/a	GoodResponse	0	0.0	n/a	3	15	ISIslide	Neutral	True
161.226	0.25	Win2	0.9412	0.0	Yes	2.874	0.026	n/a	GoodResponse	1	n/a	n/a	4	16	Cue	Win	True
161.476	4.0	Win2	0.9412	0.0	Yes	2.874	0.0	n/a	GoodResponse	1	n/a	n/a	4	16	Fixation	Win	True
165.472	0.24	Win2	0.9412	0.004	Yes	2.874	-0.004	4.0	GoodResponse	1	0.202	164.674	4	16	Target	Win	True
165.674	0.3	Win2	0.9412	0.004	Yes	2.874	-0.004	4.0	GoodResponse	1	0.202	n/a	4	16	ButtonPress	Win	True
165.722	0.46	Win2	0.9412	n/a	Yes	2.874	n/a	n/a	GoodResponse	1	n/a	n/a	4	16	Blank	Win	True
166.174	1.45	Win2	0.9412	n/a	Yes	2.874	n/a	5.0	GoodResponse	1	0.042	165.216	4	16	Feedback	Win	True
167.628	2.874	Win2	0.9412	n/a	Yes	2.874	n/a	n/a	GoodResponse	1	0.0	n/a	4	16	ISIslide	Win	True
170.52	0.25	Lose2	0.9444	0.0	Yes	2.73	0.02	n/a	GoodResponse	0	n/a	n/a	4	17	Cue	AvoidedLoss	True
170.771	3.95	Lose2	0.9444	0.0	Yes	2.73	0.001	n/a	GoodResponse	0	n/a	n/a	4	17	Fixation	AvoidedLoss	True
174.716	0.23	Lose2	0.9444	0.004	Yes	2.73	-0.004	4.0	GoodResponse	0	0.2	173.916	4	17	Target	AvoidedLoss	True
174.916	0.3	Lose2	0.9444	0.004	Yes	2.73	-0.004	4.0	GoodResponse	0	0.2	n/a	4	17	ButtonPress	AvoidedLoss	True
174.95	0.47	Lose2	0.9444	n/a	Yes	2.73	n/a	n/a	GoodResponse	0	n/a	n/a	4	17	Blank	AvoidedLoss	True
175.418	1.45	Lose2	0.9444	n/a	Yes	2.73	n/a	5.0	GoodResponse	0	0.017	174.435	4	17	Feedback	AvoidedLoss	True
176.872	2.73	Lose2	0.9444	n/a	Yes	2.73	n/a	n/a	GoodResponse	0	0.0	n/a	4	17	ISIslide	AvoidedLoss	True
179.63	0.25	Lose2	0.9473999999999999	0.001	Yes	2.72	0.03	n/a	GoodResponse	0	n/a	n/a	4	18	Cue	AvoidedLoss	True
179.881	4.05	Lose2	0.9473999999999999	0.0	Yes	2.72	0.001	n/a	GoodResponse	0	n/a	n/a	4	18	Fixation	AvoidedLoss	True
183.927	0.22	Lose2	0.9473999999999999	0.003	Yes	2.72	-0.003	4.0	GoodResponse	0	0.203	183.13	4	18	Target	AvoidedLoss	True
184.13	0.3	Lose2	0.9473999999999999	0.003	Yes	2.72	-0.003	4.0	GoodResponse	0	0.203	n/a	4	18	ButtonPress	AvoidedLoss	True
184.161	0.48	Lose2	0.9473999999999999	n/a	Yes	2.72	n/a	n/a	GoodResponse	0	n/a	n/a	4	18	Blank	AvoidedLoss	True
184.629	1.45	Lose2	0.9473999999999999	n/a	Yes	2.72	n/a	5.0	GoodResponse	0	0.026	183.655	4	18	Feedback	AvoidedLoss	True
186.083	2.72	Lose2	0.9473999999999999	n/a	Yes	2.72	n/a	n/a	GoodResponse	0	0.0	n/a	4	18	ISIslide	AvoidedLoss	True
188.825	0.25	Control	0.9	0.0	No	2.925	0.025	n/a	NoResponse	0	n/a	n/a	4	19	Cue	Neutral	True
189.075	3.95	Control	0.9	0.0	No	2.925	0.0	n/a	NoResponse	0	n/a	n/a	4	19	Fixation	Neutral	True
193.037	0.21	Control	0.9	0.0	No	2.925	0.012	4.0	NoResponse	0	0.256	192.293	4	19	Target	Neutral	True
193.238	0.49	Control	0.9	n/a	No	2.925	n/a	n/a	NoResponse	0	n/a	n/a	4	19	Blank	Neutral	True
193.293	0.3	Control	0.9	0.0	No	2.925	0.012	4.0	NoResponse	0	0.256	n/a	4	19	ButtonPress	Neutral	True
193.722	1.45	Control	0.9	n/a	No	2.925	n/a	5.0	NoResponse	0	0.008	192.73	4	19	Feedback	Neutral	True
195.177	2.925	Control	0.9	n/a	No	2.925	n/a	n/a	NoResponse	0	0.0	n/a	4	19	ISIslide	Neutral	True
198.119	0.25	Control	0.8571	0.0	No	2.631	0.019	n/a	NoResponse	0	n/a	n/a	4	20	Cue	Neutral	True
198.37	4.05	Control	0.8571	0.0	No	2.631	0.001	n/a	NoResponse	0	n/a	n/a	4	20	Fixation	Neutral	True
202.415	0.2	Control	0.8571	0.004	No	2.631	-0.004	4.0	NoResponse	0	0.211	201.626	4	20	Target	Neutral	True
202.616	0.5	Control	0.8571	n/a	No	2.631	n/a	n/a	NoResponse	0	n/a	n/a	4	20	Blank	Neutral	True
202.626	0.3	Control	0.8571	0.004	No	2.631	-0.004	4.0	NoResponse	0	0.211	n/a	4	20	ButtonPress	Neutral	True
203.117	1.45	Control	0.8571	n/a	No	2.631	n/a	5.0	NoResponse	0	0.026	202.143	4	20	Feedback	Neutral	True
204.572	2.631	Control	0.8571	n/a	No	2.631	n/a	n/a	NoResponse	0	0.0	n/a	4	20	ISIslide	Neutral	True
207.229	0.25	Control	0.8181999999999999	0.001	No	2.771	0.029	n/a	NoResponse	0	n/a	n/a	4	21	Cue	Neutral	True
207.48	4.1	Control	0.8181999999999999	0.0	No	2.771	0.001	n/a	NoResponse	0	n/a	n/a	4	21	Fixation	Neutral	True
211.576	0.19	Control	0.8181999999999999	0.003	No	2.771	-0.003	4.0	NoResponse	0	0.236	210.812	4	21	Target	Neutral	True
211.776	0.51	Control	0.8181999999999999	n/a	No	2.771	n/a	n/a	NoResponse	0	n/a	n/a	4	21	Blank	Neutral	True
211.812	0.3	Control	0.8181999999999999	0.003	No	2.771	-0.003	4.0	NoResponse	0	0.236	n/a	4	21	ButtonPress	Neutral	True
212.278	1.45	Control	0.8181999999999999	n/a	No	2.771	n/a	5.0	NoResponse	0	0.034	211.312	4	21	Feedback	Neutral	True
213.732	2.771	Control	0.8181999999999999	n/a	No	2.771	n/a	n/a	NoResponse	0	0.0	n/a	4	21	ISIslide	Neutral	True
216.524	0.25	Control	0.8261	0.0	Yes	2.776	0.024	n/a	GoodResponse	0	n/a	n/a	4	22	Cue	Neutral	True
216.775	4.0	Control	0.8261	0.0	Yes	2.776	0.001	n/a	GoodResponse	0	n/a	n/a	4	22	Fixation	Neutral	True
220.77	0.18	Control	0.8261	0.004	Yes	2.776	-0.004	4.0	GoodResponse	0	0.174	219.944	4	22	Target	Neutral	True
220.944	0.3	Control	0.8261	0.004	Yes	2.776	-0.004	4.0	GoodResponse	0	0.174	n/a	4	22	ButtonPress	Neutral	True
220.954	0.52	Control	0.8261	n/a	Yes	2.776	n/a	n/a	GoodResponse	0	n/a	n/a	4	22	Blank	Neutral	True
221.472	1.45	Control	0.8261	n/a	Yes	2.776	n/a	5.0	GoodResponse	0	0.011	220.483	4	22	Feedback	Neutral	True
222.926	2.776	Control	0.8261	n/a	Yes	2.776	n/a	n/a	GoodResponse	0	0.0	n/a	4	22	ISIslide	Neutral	True
225.718	0.25	Control	0.7917000000000001	0.0	No	2.782	0.018	n/a	NoResponse	0	n/a	n/a	4	23	Cue	Neutral	True
225.969	3.9	Control	0.7917000000000001	0.0	No	2.782	0.001	n/a	NoResponse	0	n/a	n/a	4	23	Fixation	Neutral	True
229.864	0.17	Control	0.7917000000000001	0.004	No	2.782	-0.004	4.0	NoResponse	0	0.226	229.09	4	23	Target	Neutral	True
230.048	0.53	Control	0.7917000000000001	n/a	No	2.782	n/a	n/a	NoResponse	0	n/a	n/a	4	23	Blank	Neutral	True
230.09	0.3	Control	0.7917000000000001	0.004	No	2.782	-0.004	4.0	NoResponse	0	0.226	n/a	4	23	ButtonPress	Neutral	True
230.566	1.45	Control	0.7917000000000001	n/a	No	2.782	n/a	5.0	NoResponse	0	0.039	229.605	4	23	Feedback	Neutral	True
232.02	2.782	Control	0.7917000000000001	n/a	No	2.782	n/a	n/a	NoResponse	0	0.0	n/a	4	23	ISIslide	Neutral	True
234.828	0.25	Win2	0.76	0.001	No	3.122	0.028	n/a	NoResponse	0	n/a	n/a	4	24	Cue	MissedWin	True
235.079	3.95	Win2	0.76	0.0	No	3.122	0.001	n/a	NoResponse	0	n/a	n/a	4	24	Fixation	MissedWin	True
239.024	0.16	Win2	0.76	0.004	No	3.122	-0.004	4.0	NoResponse	0	0.209	238.233	4	24	Target	MissedWin	True
239.191	0.54	Win2	0.76	n/a	No	3.122	n/a	n/a	NoResponse	0	n/a	n/a	4	24	Blank	MissedWin	True
239.233	0.3	Win2	0.76	0.004	No	3.122	-0.004	4.0	NoResponse	0	0.209	n/a	4	24	ButtonPress	MissedWin	True
239.726	1.45	Win2	0.76	n/a	No	3.122	n/a	5.0	NoResponse	0	0.0	238.726	4	24	Feedback	MissedWin	True
241.181	3.122	Win2	0.76	n/a	No	3.122	n/a	n/a	NoResponse	0	0.0	n/a	4	24	ISIslide	MissedWin	True
244.323	0.25	Win2	0.7308	0.001	No	3.077	0.023	n/a	NoResponse	0	n/a	n/a	4	25	Cue	MissedWin	True
244.574	4.0	Win2	0.7308	0.0	No	3.077	0.001	n/a	NoResponse	0	n/a	n/a	4	25	Fixation	MissedWin	True
248.569	0.15	Win2	0.7308	0.004	No	3.077	-0.004	4.0	NoResponse	0	0.181	247.75	4	25	Target	MissedWin	True
248.72	0.55	Win2	0.7308	n/a	No	3.077	n/a	n/a	NoResponse	0	n/a	n/a	4	25	Blank	MissedWin	True
248.75	0.3	Win2	0.7308	0.004	No	3.077	-0.004	4.0	NoResponse	0	0.181	n/a	4	25	ButtonPress	MissedWin	True
249.272	1.45	Win2	0.7308	n/a	No	3.077	n/a	5.0	NoResponse	0	0.015	248.287	4	25	Feedback	MissedWin	True
250.726	3.077	Win2	0.7308	n/a	No	3.077	n/a	n/a	NoResponse	0	0.0	n/a	4	25	ISIslide	MissedWin	True
253.818	0.25	Win2	0.7037	0.001	No	2.932	0.018	n/a	NoResponse	0	n/a	n/a	4	26	Cue	MissedWin	False
254.069	3.95	Win2	0.7037	0.0	No	2.932	0.001	4.0	NoResponse	0	3.879	256.948	4	26	Fixation	MissedWin	False
257.948	0.3	Win2	0.7037	0.0	No	2.932	0.001	4.0	NoResponse	0	3.879	n/a	4	26	ButtonPress	MissedWin	False
258.014	0.15	Win2	0.7037	0.004	No	2.932	-0.004	4.0	NoResponse	0	0.454	257.468	4	26	Target	MissedWin	False
258.165	0.55	Win2	0.7037	n/a	No	2.932	n/a	n/a	NoResponse	0	n/a	n/a	4	26	Blank	MissedWin	False
258.468	0.3	Win2	0.7037	0.004	No	2.932	-0.004	4.0	NoResponse	0	0.454	n/a	4	26	ButtonPress	MissedWin	False
258.716	1.45	Win2	0.7037	n/a	No	2.932	n/a	5.0	NoResponse	0	0.035	257.751	4	26	Feedback	MissedWin	False
260.171	2.932	Win2	0.7037	n/a	No	2.932	n/a	n/a	NoResponse	0	0.0	n/a	4	26	ISIslide	MissedWin	False
263.13	0.25	Lose2	0.6786	0.0	No	2.82	0.03	n/a	NoResponse	-1	n/a	n/a	3	27	Cue	Loss	True
263.38	4.05	Lose2	0.6786	0.0	No	2.82	0.0	n/a	NoResponse	-1	n/a	n/a	3	27	Fixation	Loss	True
267.426	0.15	Lose2	0.6786	0.004	No	2.82	-0.004	4.0	NoResponse	-1	0.203	266.629	3	27	Target	Loss	True
267.576	0.55	Lose2	0.6786	n/a	No	2.82	n/a	n/a	NoResponse	-1	n/a	n/a	3	27	Blank	Loss	True
267.629	0.3	Lose2	0.6786	0.004	No	2.82	-0.004	4.0	NoResponse	-1	0.203	n/a	3	27	ButtonPress	Loss	True
268.128	1.45	Lose2	0.6786	n/a	No	2.82	n/a	5.0	NoResponse	-1	0.038	267.166	3	27	Feedback	Loss	True
269.582	2.82	Lose2	0.6786	n/a	No	2.82	n/a	n/a	NoResponse	-1	0.0	n/a	3	27	ISIslide	Loss	True
272.424	0.25	Control	0.6552	0.0	No	2.826	0.024	n/a	NoResponse	0	n/a	n/a	3	28	Cue	Neutral	True
272.675	4.05	Control	0.6552	0.0	No	2.826	0.001	n/a	NoResponse	0	n/a	n/a	3	28	Fixation	Neutral	True
276.72	0.15	Control	0.6552	0.004	No	2.826	-0.004	4.0	NoResponse	0	0.192	275.912	3	28	Target	Neutral	True
276.871	0.55	Control	0.6552	n/a	No	2.826	n/a	n/a	NoResponse	0	n/a	n/a	3	28	Blank	Neutral	True
276.912	0.3	Control	0.6552	0.004	No	2.826	-0.004	4.0	NoResponse	0	0.192	n/a	3	28	ButtonPress	Neutral	True
277.422	1.45	Control	0.6552	n/a	No	2.826	n/a	5.0	NoResponse	0	0.011	276.433	3	28	Feedback	Neutral	True
278.877	2.826	Control	0.6552	n/a	No	2.826	n/a	n/a	NoResponse	0	0.0	n/a	3	28	ISIslide	Neutral	True
281.718	0.25	Lose2	0.6333	0.0	No	2.832	0.018	n/a	NoResponse	-1	n/a	n/a	2	29	Cue	Loss	True
281.969	3.95	Lose2	0.6333	0.0	No	2.832	0.001	n/a	NoResponse	-1	n/a	n/a	2	29	Fixation	Loss	True
285.914	0.15	Lose2	0.6333	0.004	No	2.832	-0.004	4.0	NoResponse	-1	0.177	285.091	2	29	Target	Loss	True
286.065	0.55	Lose2	0.6333	n/a	No	2.832	n/a	n/a	NoResponse	-1	n/a	n/a	2	29	Blank	Loss	True
286.091	0.3	Lose2	0.6333	0.004	No	2.832	-0.004	4.0	NoResponse	-1	0.177	n/a	2	29	ButtonPress	Loss	True
286.616	1.45	Lose2	0.6333	n/a	No	2.832	n/a	5.0	NoResponse	-1	0.037	285.653	2	29	Feedback	Loss	True
288.071	2.832	Lose2	0.6333	n/a	No	2.832	n/a	n/a	NoResponse	-1	0.0	n/a	2	29	ISIslide	Loss	True
290.929	0.25	Win2	0.6129	0.0	No	2.771	0.029	n/a	NoResponse	0	n/a	n/a	2	30	Cue	MissedWin	True
291.18	3.9	Win2	0.6129	0.0	No	2.771	0.001	n/a	NoResponse	0	n/a	n/a	2	30	Fixation	MissedWin	True
295.075	0.16	Win2	0.6129	0.004	No	2.771	-0.004	4.0	NoResponse	0	0.18	294.255	2	30	Target	MissedWin	True
295.242	0.54	Win2	0.6129	n/a	No	2.771	n/a	n/a	NoResponse	0	n/a	n/a	2	30	Blank	MissedWin	True
295.255	0.3	Win2	0.6129	0.004	No	2.771	-0.004	4.0	NoResponse	0	0.18	n/a	2	30	ButtonPress	MissedWin	True
295.777	1.45	Win2	0.6129	n/a	No	2.771	n/a	5.0	NoResponse	0	0.047	294.824	2	30	Feedback	MissedWin	True
297.231	2.771	Win2	0.6129	n/a	No	2.771	n/a	n/a	NoResponse	0	0.0	n/a	2	30	ISIslide	MissedWin	True
300.023	0.25	Lose2	0.5938	0.0	No	2.827	0.023	n/a	NoResponse	-1	n/a	n/a	1	31	Cue	Loss	True
300.274	4.05	Lose2	0.5938	0.0	No	2.827	0.001	n/a	NoResponse	-1	n/a	n/a	1	31	Fixation	Loss	True
304.319	0.17	Lose2	0.5938	0.004	No	2.827	-0.004	4.0	NoResponse	-1	0.191	303.51	1	31	Target	Loss	True
304.503	0.53	Lose2	0.5938	n/a	No	2.827	n/a	n/a	NoResponse	-1	n/a	n/a	1	31	Blank	Loss	True
304.51	0.3	Lose2	0.5938	0.004	No	2.827	-0.004	4.0	NoResponse	-1	0.191	n/a	1	31	ButtonPress	Loss	True
305.021	1.45	Lose2	0.5938	n/a	No	2.827	n/a	5.0	NoResponse	-1	0.021	304.042	1	31	Feedback	Loss	True
306.476	2.827	Lose2	0.5938	n/a	No	2.827	n/a	n/a	NoResponse	-1	0.0	n/a	1	31	ISIslide	Loss	True
309.317	0.25	Lose2	0.5758	0.0	No	2.633	0.017	n/a	NoResponse	-1	n/a	n/a	0	32	Cue	Loss	True
309.568	4.15	Lose2	0.5758	0.0	No	2.633	0.001	n/a	NoResponse	-1	n/a	n/a	0	32	Fixation	Loss	True
313.714	0.18	Lose2	0.5758	0.003	No	2.633	-0.003	4.0	NoResponse	-1	0.209	312.923	0	32	Target	Loss	True
313.898	0.52	Lose2	0.5758	n/a	No	2.633	n/a	n/a	NoResponse	-1	n/a	n/a	0	32	Blank	Loss	True
313.923	0.3	Lose2	0.5758	0.003	No	2.633	-0.003	4.0	NoResponse	-1	0.209	n/a	0	32	ButtonPress	Loss	True
314.416	1.45	Lose2	0.5758	n/a	No	2.633	n/a	5.0	NoResponse	-1	0.041	313.457	0	32	Feedback	Loss	True
315.87	2.633	Lose2	0.5758	n/a	No	2.633	n/a	n/a	NoResponse	-1	0.0	n/a	0	32	ISIslide	Loss	True
318.528	0.25	Win2	0.5882000000000001	0.0	Yes	2.672	0.028	n/a	GoodResponse	1	n/a	n/a	1	33	Cue	Win	True
318.779	4.0	Win2	0.5882000000000001	0.0	Yes	2.672	0.001	n/a	GoodResponse	1	n/a	n/a	1	33	Fixation	Win	True
322.774	0.19	Win2	0.5882000000000001	0.004	Yes	2.672	-0.004	4.0	GoodResponse	1	0.178	321.952	1	33	Target	Win	True
322.952	0.3	Win2	0.5882000000000001	0.004	Yes	2.672	-0.004	4.0	GoodResponse	1	0.178	n/a	1	33	ButtonPress	Win	True
322.975	0.51	Win2	0.5882000000000001	n/a	Yes	2.672	n/a	n/a	GoodResponse	1	n/a	n/a	1	33	Blank	Win	True
323.476	1.45	Win2	0.5882000000000001	n/a	Yes	2.672	n/a	5.0	GoodResponse	1	0.007	322.483	1	33	Feedback	Win	True
324.931	2.672	Win2	0.5882000000000001	n/a	Yes	2.672	n/a	n/a	GoodResponse	1	0.0	n/a	1	33	ISIslide	Win	True
327.622	0.25	Lose2	0.6	0.0	Yes	2.628	0.022	n/a	GoodResponse	0	n/a	n/a	1	34	Cue	AvoidedLoss	True
327.873	4.05	Lose2	0.6	0.0	Yes	2.628	0.001	n/a	GoodResponse	0	n/a	n/a	1	34	Fixation	AvoidedLoss	True
331.918	0.2	Lose2	0.6	0.004	Yes	2.628	-0.004	4.0	GoodResponse	0	0.197	331.115	1	34	Target	AvoidedLoss	True
332.115	0.3	Lose2	0.6	0.004	Yes	2.628	-0.004	4.0	GoodResponse	0	0.197	n/a	1	34	ButtonPress	AvoidedLoss	True
332.119	0.5	Lose2	0.6	n/a	Yes	2.628	n/a	n/a	GoodResponse	0	n/a	n/a	1	34	Blank	AvoidedLoss	True
332.62	1.45	Lose2	0.6	n/a	Yes	2.628	n/a	5.0	GoodResponse	0	0.032	331.652	1	34	Feedback	AvoidedLoss	True
334.075	2.628	Lose2	0.6	n/a	Yes	2.628	n/a	n/a	GoodResponse	0	0.0	n/a	1	34	ISIslide	AvoidedLoss	True
336.716	0.25	Lose2	0.5832999999999999	0.0	No	2.684	0.016	n/a	NoResponse	-1	n/a	n/a	0	35	Cue	Loss	True
336.966	4.0	Lose2	0.5832999999999999	0.001	No	2.684	0.0	n/a	NoResponse	-1	n/a	n/a	0	35	Fixation	Loss	True
340.962	0.21	Lose2	0.5832999999999999	0.004	No	2.684	-0.004	4.0	NoResponse	-1	0.238	340.2	0	35	Target	Loss	True
341.179	0.49	Lose2	0.5832999999999999	n/a	No	2.684	n/a	n/a	NoResponse	-1	n/a	n/a	0	35	Blank	Loss	True
341.2	0.3	Lose2	0.5832999999999999	0.004	No	2.684	-0.004	4.0	NoResponse	-1	0.238	n/a	0	35	ButtonPress	Loss	True
341.664	1.45	Lose2	0.5832999999999999	n/a	No	2.684	n/a	5.0	NoResponse	-1	0.012	340.676	0	35	Feedback	Loss	True
343.118	2.684	Lose2	0.5832999999999999	n/a	No	2.684	n/a	n/a	NoResponse	-1	0.0	n/a	0	35	ISIslide	Loss	True
345.826	0.25	Control	0.5946	0.0	Yes	2.674	0.026	n/a	GoodResponse	0	n/a	n/a	0	36	Cue	Neutral	True
346.077	4.0	Control	0.5946	0.0	Yes	2.674	0.001	n/a	GoodResponse	0	n/a	n/a	0	36	Fixation	Neutral	True
350.072	0.22	Control	0.5946	0.004	Yes	2.674	-0.004	4.0	GoodResponse	0	0.195	349.267	0	36	Target	Neutral	True
350.267	0.3	Control	0.5946	0.004	Yes	2.674	-0.004	4.0	GoodResponse	0	0.195	n/a	0	36	ButtonPress	Neutral	True
350.306	0.48	Control	0.5946	n/a	Yes	2.674	n/a	n/a	GoodResponse	0	n/a	n/a	0	36	Blank	Neutral	True
350.774	1.45	Control	0.5946	n/a	Yes	2.674	n/a	5.0	GoodResponse	0	0.024	349.798	0	36	Feedback	Neutral	True
352.229	2.674	Control	0.5946	n/a	Yes	2.674	n/a	n/a	GoodResponse	0	0.0	n/a	0	36	ISIslide	Neutral	True
354.92	0.25	Win2	0.5789	0.0	No	2.88	0.02	n/a	NoResponse	0	n/a	n/a	0	37	Cue	MissedWin	False
355.171	4.0	Win2	0.5789	0.0	No	2.88	0.001	4.0	NoResponse	0	3.929	358.1	0	37	Fixation	MissedWin	False
359.1	0.3	Win2	0.5789	0.0	No	2.88	0.001	4.0	NoResponse	0	3.929	n/a	0	37	ButtonPress	MissedWin	False
359.166	0.23	Win2	0.5789	0.004	No	2.88	-0.004	4.0	NoResponse	0	0.266	358.432	0	37	Target	MissedWin	False
359.4	0.47	Win2	0.5789	n/a	No	2.88	n/a	n/a	NoResponse	0	n/a	n/a	0	37	Blank	MissedWin	False
359.432	0.3	Win2	0.5789	0.004	No	2.88	-0.004	4.0	NoResponse	0	0.266	n/a	0	37	ButtonPress	MissedWin	False
359.868	1.45	Win2	0.5789	n/a	No	2.88	n/a	5.0	NoResponse	0	0.007	358.875	0	37	Feedback	MissedWin	False
361.322	2.88	Win2	0.5789	n/a	No	2.88	n/a	n/a	NoResponse	0	0.0	n/a	0	37	ISIslide	MissedWin	False
364.231	0.25	Lose2	0.5897	0.0	Yes	2.819	0.031	n/a	GoodResponse	0	n/a	n/a	0	38	Cue	AvoidedLoss	False
364.482	3.95	Lose2	0.5897	0.0	Yes	2.819	0.001	4.0	GoodResponse	0	3.393	366.875	0	38	Fixation	AvoidedLoss	False
367.875	0.3	Lose2	0.5897	0.0	Yes	2.819	0.001	4.0	GoodResponse	0	3.393	n/a	0	38	ButtonPress	AvoidedLoss	False
368.427	0.24	Lose2	0.5897	0.004	Yes	2.819	-0.004	4.0	GoodResponse	0	0.188	367.615	0	38	Target	AvoidedLoss	False
368.615	0.3	Lose2	0.5897	0.004	Yes	2.819	-0.004	4.0	GoodResponse	0	0.188	n/a	0	38	ButtonPress	AvoidedLoss	False
368.678	0.46	Lose2	0.5897	n/a	Yes	2.819	n/a	n/a	GoodResponse	0	n/a	n/a	0	38	Blank	AvoidedLoss	False
369.129	1.45	Lose2	0.5897	n/a	Yes	2.819	n/a	5.0	GoodResponse	0	0.01	368.139	0	38	Feedback	AvoidedLoss	False
370.583	2.819	Lose2	0.5897	n/a	Yes	2.819	n/a	n/a	GoodResponse	0	0.0	n/a	0	38	ISIslide	AvoidedLoss	False
373.425	0.25	Win2	0.6	0.0	Yes	2.975	0.025	n/a	GoodResponse	1	n/a	n/a	1	39	Cue	Win	True
373.676	4.1	Win2	0.6	0.0	Yes	2.975	0.001	n/a	GoodResponse	1	n/a	n/a	1	39	Fixation	Win	True
377.772	0.25	Win2	0.6	0.003	Yes	2.975	-0.003	4.0	GoodResponse	1	0.219	376.991	1	39	Target	Win	True
377.991	0.3	Win2	0.6	0.003	Yes	2.975	-0.003	4.0	GoodResponse	1	0.219	n/a	1	39	ButtonPress	Win	True
378.022	0.45	Win2	0.6	n/a	Yes	2.975	n/a	n/a	GoodResponse	1	n/a	n/a	1	39	Blank	Win	True
378.474	1.45	Win2	0.6	n/a	Yes	2.975	n/a	5.0	GoodResponse	1	0.03	377.504	1	39	Feedback	Win	True
379.928	2.975	Win2	0.6	n/a	Yes	2.975	n/a	n/a	GoodResponse	1	0.0	n/a	1	39	ISIslide	Win	True
382.92	0.25	Win2	0.6098	0.0	Yes	2.73	0.02	n/a	GoodResponse	1	n/a	n/a	2	40	Cue	Win	True
383.171	3.95	Win2	0.6098	0.0	Yes	2.73	0.001	n/a	GoodResponse	1	n/a	n/a	2	40	Fixation	Win	True
387.116	0.26	Win2	0.6098	0.004	Yes	2.73	-0.004	4.0	GoodResponse	1	0.24	386.356	2	40	Target	Win	True
387.356	0.3	Win2	0.6098	0.004	Yes	2.73	-0.004	4.0	GoodResponse	1	0.24	n/a	2	40	ButtonPress	Win	True
387.384	0.44	Win2	0.6098	n/a	Yes	2.73	n/a	n/a	GoodResponse	1	n/a	n/a	2	40	Blank	Win	True
387.818	1.45	Win2	0.6098	n/a	Yes	2.73	n/a	5.0	GoodResponse	1	0.006	386.824	2	40	Feedback	Win	True
389.273	2.73	Win2	0.6098	n/a	Yes	2.73	n/a	n/a	GoodResponse	1	0.0	n/a	2	40	ISIslide	Win	True
392.031	0.25	Win2	0.619	0.0	Yes	2.769	0.031	n/a	GoodResponse	1	n/a	n/a	3	41	Cue	Win	True
392.281	3.9	Win2	0.619	0.001	Yes	2.769	0.0	n/a	GoodResponse	1	n/a	n/a	3	41	Fixation	Win	True
396.193	0.27	Win2	0.619	0.0	Yes	2.769	0.012	4.0	GoodResponse	1	0.21	395.403	3	41	Target	Win	True
396.403	0.3	Win2	0.619	0.0	Yes	2.769	0.012	4.0	GoodResponse	1	0.21	n/a	3	41	ButtonPress	Win	True
396.461	0.43	Win2	0.619	n/a	Yes	2.769	n/a	n/a	GoodResponse	1	n/a	n/a	3	41	Blank	Win	True
396.879	1.45	Win2	0.619	n/a	Yes	2.769	n/a	5.0	GoodResponse	1	0.016	395.895	3	41	Feedback	Win	True
398.333	2.769	Win2	0.619	n/a	Yes	2.769	n/a	n/a	GoodResponse	1	0.0	n/a	3	41	ISIslide	Win	True
401.125	0.25	Control	0.6279	0.0	Yes	2.925	0.025	n/a	GoodResponse	0	n/a	n/a	3	42	Cue	Neutral	True
401.375	3.85	Control	0.6279	0.0	Yes	2.925	0.0	n/a	GoodResponse	0	n/a	n/a	3	42	Fixation	Neutral	True
405.237	0.28	Control	0.6279	0.0	Yes	2.925	0.012	4.0	GoodResponse	0	0.235	404.472	3	42	Target	Neutral	True
405.472	0.3	Control	0.6279	0.0	Yes	2.925	0.012	4.0	GoodResponse	0	0.235	n/a	3	42	ButtonPress	Neutral	True
405.504	0.42	Control	0.6279	n/a	Yes	2.925	n/a	n/a	GoodResponse	0	n/a	n/a	3	42	Blank	Neutral	True
405.922	1.45	Control	0.6279	n/a	Yes	2.925	n/a	5.0	GoodResponse	0	0.045	404.967	3	42	Feedback	Neutral	True
407.377	2.925	Control	0.6279	n/a	Yes	2.925	n/a	n/a	GoodResponse	0	0.0	n/a	3	42	ISIslide	Neutral	True
410.319	0.25	Win2	0.6364	0.0	Yes	3.181	0.019	n/a	GoodResponse	1	n/a	n/a	4	43	Cue	Win	True
410.569	4.0	Win2	0.6364	0.0	Yes	3.181	0.0	n/a	GoodResponse	1	n/a	n/a	4	43	Fixation	Win	True
414.565	0.29	Win2	0.6364	0.004	Yes	3.181	-0.004	4.0	GoodResponse	1	0.218	413.783	4	43	Target	Win	True
414.783	0.3	Win2	0.6364	0.004	Yes	3.181	-0.004	4.0	GoodResponse	1	0.218	n/a	4	43	ButtonPress	Win	True
414.866	0.41	Win2	0.6364	n/a	Yes	3.181	n/a	n/a	GoodResponse	1	n/a	n/a	4	43	Blank	Win	True
415.267	1.45	Win2	0.6364	n/a	Yes	3.181	n/a	5.0	GoodResponse	1	0.017	414.284	4	43	Feedback	Win	True
416.721	3.181	Win2	0.6364	n/a	Yes	3.181	n/a	n/a	GoodResponse	1	0.0	n/a	4	43	ISIslide	Win	True
419.931	0.25	Win2	0.6444	0.0	Yes	2.969	0.031	n/a	GoodResponse	1	n/a	n/a	5	44	Cue	Win	True
420.181	4.0	Win2	0.6444	0.0	Yes	2.969	0.0	n/a	GoodResponse	1	n/a	n/a	5	44	Fixation	Win	True
424.177	0.3	Win2	0.6444	0.004	Yes	2.969	-0.004	4.0	GoodResponse	1	0.22	423.397	5	44	Target	Win	True
424.397	0.3	Win2	0.6444	0.004	Yes	2.969	-0.004	4.0	GoodResponse	1	0.22	n/a	5	44	ButtonPress	Win	True
424.478	0.4	Win2	0.6444	n/a	Yes	2.969	n/a	n/a	GoodResponse	1	n/a	n/a	5	44	Blank	Win	True
424.879	1.45	Win2	0.6444	n/a	Yes	2.969	n/a	5.0	GoodResponse	1	0.015	423.894	5	44	Feedback	Win	True
426.333	2.969	Win2	0.6444	n/a	Yes	2.969	n/a	n/a	GoodResponse	1	0.0	n/a	5	44	ISIslide	Win	True
429.325	0.25	Control	0.6522	0.0	Yes	2.875	0.025	n/a	GoodResponse	0	n/a	n/a	5	45	Cue	Neutral	True
429.576	4.1	Control	0.6522	0.0	Yes	2.875	0.001	n/a	GoodResponse	0	n/a	n/a	5	45	Fixation	Neutral	True
433.672	0.31	Control	0.6522	0.003	Yes	2.875	-0.003	4.0	GoodResponse	0	0.199	432.871	5	45	Target	Neutral	True
433.871	0.3	Control	0.6522	0.003	Yes	2.875	-0.003	4.0	GoodResponse	0	0.199	n/a	5	45	ButtonPress	Neutral	True
433.989	0.39	Control	0.6522	n/a	Yes	2.875	n/a	n/a	GoodResponse	0	n/a	n/a	5	45	Blank	Neutral	True
434.374	1.45	Control	0.6522	n/a	Yes	2.875	n/a	5.0	GoodResponse	0	0.032	433.406	5	45	Feedback	Neutral	True
435.828	2.875	Control	0.6522	n/a	Yes	2.875	n/a	n/a	GoodResponse	0	0.0	n/a	5	45	ISIslide	Neutral	True
438.72	0.25	Lose2	0.6383	0.0	No	3.38	0.02	n/a	NoResponse	-1	n/a	n/a	4	46	Cue	Loss	True
438.971	4.0	Lose2	0.6383	0.0	No	3.38	0.001	n/a	NoResponse	-1	n/a	n/a	4	46	Fixation	Loss	True
442.966	0.32	Lose2	0.6383	0.004	No	3.38	-0.004	4.0	NoResponse	-1	0.394	442.36	4	46	Target	Loss	True
443.3	0.38	Lose2	0.6383	n/a	No	3.38	n/a	n/a	NoResponse	-1	n/a	n/a	4	46	Blank	Loss	True
443.36	0.3	Lose2	0.6383	0.004	No	3.38	-0.004	4.0	NoResponse	-1	0.394	n/a	4	46	ButtonPress	Loss	True
443.668	1.45	Lose2	0.6383	n/a	No	3.38	n/a	5.0	NoResponse	-1	0.007	442.675	4	46	Feedback	Loss	True
445.122	3.38	Lose2	0.6383	n/a	No	3.38	n/a	n/a	NoResponse	-1	0.0	n/a	4	46	ISIslide	Loss	True
448.516	0.25	Lose2	0.6457999999999999	0.0	Yes	2.684	0.016	n/a	GoodResponse	0	n/a	n/a	4	47	Cue	AvoidedLoss	True
448.767	4.0	Lose2	0.6457999999999999	0.0	Yes	2.684	0.001	n/a	GoodResponse	0	n/a	n/a	4	47	Fixation	AvoidedLoss	True
452.762	0.33	Lose2	0.6457999999999999	0.004	Yes	2.684	-0.004	4.0	GoodResponse	0	0.218	451.98	4	47	Target	AvoidedLoss	True
452.98	0.3	Lose2	0.6457999999999999	0.004	Yes	2.684	-0.004	4.0	GoodResponse	0	0.218	n/a	4	47	ButtonPress	AvoidedLoss	True
453.096	0.37	Lose2	0.6457999999999999	n/a	Yes	2.684	n/a	n/a	GoodResponse	0	n/a	n/a	4	47	Blank	AvoidedLoss	True
453.464	1.45	Lose2	0.6457999999999999	n/a	Yes	2.684	n/a	5.0	GoodResponse	0	0.015	452.479	4	47	Feedback	AvoidedLoss	True
454.918	2.684	Lose2	0.6457999999999999	n/a	Yes	2.684	n/a	n/a	GoodResponse	0	0.0	n/a	4	47	ISIslide	AvoidedLoss	True
457.626	0.25	Lose2	0.6531	0.001	Yes	3.024	0.026	n/a	GoodResponse	0	n/a	n/a	4	48	Cue	AvoidedLoss	True
457.877	3.95	Lose2	0.6531	0.0	Yes	3.024	0.001	n/a	GoodResponse	0	n/a	n/a	4	48	Fixation	AvoidedLoss	True
461.822	0.34	Lose2	0.6531	0.004	Yes	3.024	-0.004	4.0	GoodResponse	0	0.292	461.114	4	48	Target	AvoidedLoss	True
462.114	0.3	Lose2	0.6531	0.004	Yes	3.024	-0.004	4.0	GoodResponse	0	0.292	n/a	4	48	ButtonPress	AvoidedLoss	True
462.173	0.36	Lose2	0.6531	n/a	Yes	3.024	n/a	n/a	GoodResponse	0	n/a	n/a	4	48	Blank	AvoidedLoss	True
462.524	1.45	Lose2	0.6531	n/a	Yes	3.024	n/a	5.0	GoodResponse	0	0.028	461.552	4	48	Feedback	AvoidedLoss	True
463.979	3.024	Lose2	0.6531	n/a	Yes	3.024	n/a	n/a	GoodResponse	0	0.0	n/a	4	48	ISIslide	AvoidedLoss	True
467.021	0.25	Control	0.66	0.0	Yes	2.879	0.021	n/a	GoodResponse	0	n/a	n/a	4	49	Cue	Neutral	True
467.272	4.0	Control	0.66	0.0	Yes	2.879	0.001	n/a	GoodResponse	0	n/a	n/a	4	49	Fixation	Neutral	True
471.267	0.35	Control	0.66	0.004	Yes	2.879	-0.004	4.0	GoodResponse	0	0.229	470.496	4	49	Target	Neutral	True
471.496	0.3	Control	0.66	0.004	Yes	2.879	-0.004	4.0	GoodResponse	0	0.229	n/a	4	49	ButtonPress	Neutral	True
471.618	0.35	Control	0.66	n/a	Yes	2.879	n/a	n/a	GoodResponse	0	n/a	n/a	4	49	Blank	Neutral	True
471.969	1.45	Control	0.66	n/a	Yes	2.879	n/a	5.0	GoodResponse	0	0.046	471.015	4	49	Feedback	Neutral	True
473.424	2.879	Control	0.66	n/a	Yes	2.879	n/a	n/a	GoodResponse	0	0.0	n/a	4	49	ISIslide	Neutral	True
476.315	0.25	Control	0.6667000000000001	0.001	Yes	2.785	0.015	n/a	GoodResponse	0	n/a	n/a	4	50	Cue	Neutral	True
476.566	4.0	Control	0.6667000000000001	0.0	Yes	2.785	0.001	n/a	GoodResponse	0	n/a	n/a	4	50	Fixation	Neutral	True
480.561	0.35	Control	0.6667000000000001	0.004	Yes	2.785	-0.004	4.0	GoodResponse	0	0.286	479.847	4	50	Target	Neutral	True
480.847	0.3	Control	0.6667000000000001	0.004	Yes	2.785	-0.004	4.0	GoodResponse	0	0.286	n/a	4	50	ButtonPress	Neutral	True
480.913	0.35	Control	0.6667000000000001	n/a	Yes	2.785	n/a	n/a	GoodResponse	0	n/a	n/a	4	50	Blank	Neutral	True
481.264	1.45	Control	0.6667000000000001	n/a	Yes	2.785	n/a	5.0	GoodResponse	0	0.019	480.283	4	50	Feedback	Neutral	True
482.718	2.785	Control	0.6667000000000001	n/a	Yes	2.785	n/a	n/a	GoodResponse	0	0.0	n/a	4	50	ISIslide	Neutral	True
485.526	0.25	Control	0.6731	0.0	Yes	2.724	0.026	n/a	GoodResponse	0	n/a	n/a	4	51	Cue	Neutral	True
485.777	3.95	Control	0.6731	0.0	Yes	2.724	0.001	n/a	GoodResponse	0	n/a	n/a	4	51	Fixation	Neutral	True
489.722	0.34	Control	0.6731	0.004	Yes	2.724	-0.004	4.0	GoodResponse	0	0.219	488.941	4	51	Target	Neutral	True
489.941	0.3	Control	0.6731	0.004	Yes	2.724	-0.004	4.0	GoodResponse	0	0.219	n/a	4	51	ButtonPress	Neutral	True
490.073	0.36	Control	0.6731	n/a	Yes	2.724	n/a	n/a	GoodResponse	0	n/a	n/a	4	51	Blank	Neutral	True
490.424	1.45	Control	0.6731	n/a	Yes	2.724	n/a	5.0	GoodResponse	0	0.03	489.454	4	51	Feedback	Neutral	True
491.879	2.724	Control	0.6731	n/a	Yes	2.724	n/a	n/a	GoodResponse	0	0.0	n/a	4	51	ISIslide	Neutral	True
494.62	0.25	Control	0.6792	0.0	Yes	2.63	0.02	n/a	GoodResponse	0	n/a	n/a	4	52	Cue	Neutral	True
494.871	4.05	Control	0.6792	0.0	Yes	2.63	0.001	n/a	GoodResponse	0	n/a	n/a	4	52	Fixation	Neutral	True
498.916	0.33	Control	0.6792	0.004	Yes	2.63	-0.004	4.0	GoodResponse	0	0.225	498.141	4	52	Target	Neutral	True
499.141	0.3	Control	0.6792	0.004	Yes	2.63	-0.004	4.0	GoodResponse	0	0.225	n/a	4	52	ButtonPress	Neutral	True
499.251	0.37	Control	0.6792	n/a	Yes	2.63	n/a	n/a	GoodResponse	0	n/a	n/a	4	52	Blank	Neutral	True
499.618	1.45	Control	0.6792	n/a	Yes	2.63	n/a	5.0	GoodResponse	0	0.007	498.625	4	52	Feedback	Neutral	True
501.073	2.63	Control	0.6792	n/a	Yes	2.63	n/a	n/a	GoodResponse	0	0.0	n/a	4	52	ISIslide	Neutral	True
503.731	0.25	Win2	0.6851999999999999	0.0	Yes	2.919	0.031	n/a	GoodResponse	1	n/a	n/a	5	53	Cue	Win	True
503.981	4.05	Win2	0.6851999999999999	0.0	Yes	2.919	0.0	n/a	GoodResponse	1	n/a	n/a	5	53	Fixation	Win	True
508.027	0.32	Win2	0.6851999999999999	0.004	Yes	2.919	-0.004	4.0	GoodResponse	1	0.227	507.254	5	53	Target	Win	True
508.254	0.3	Win2	0.6851999999999999	0.004	Yes	2.919	-0.004	4.0	GoodResponse	1	0.227	n/a	5	53	ButtonPress	Win	True
508.361	0.38	Win2	0.6851999999999999	n/a	Yes	2.919	n/a	n/a	GoodResponse	1	n/a	n/a	5	53	Blank	Win	True
508.729	1.45	Win2	0.6851999999999999	n/a	Yes	2.919	n/a	5.0	GoodResponse	1	0.017	507.746	5	53	Feedback	Win	True
510.183	2.919	Win2	0.6851999999999999	n/a	Yes	2.919	n/a	n/a	GoodResponse	1	0.0	n/a	5	53	ISIslide	Win	True
513.125	0.25	Win2	0.6909000000000001	0.0	Yes	2.725	0.025	n/a	GoodResponse	1	n/a	n/a	6	54	Cue	Win	True
513.376	3.95	Win2	0.6909000000000001	0.0	Yes	2.725	0.001	n/a	GoodResponse	1	n/a	n/a	6	54	Fixation	Win	True
517.321	0.31	Win2	0.6909000000000001	0.004	Yes	2.725	-0.004	4.0	GoodResponse	1	0.216	516.537	6	54	Target	Win	True
517.537	0.3	Win2	0.6909000000000001	0.004	Yes	2.725	-0.004	4.0	GoodResponse	1	0.216	n/a	6	54	ButtonPress	Win	True
517.639	0.39	Win2	0.6909000000000001	n/a	Yes	2.725	n/a	n/a	GoodResponse	1	n/a	n/a	6	54	Blank	Win	True
518.023	1.45	Win2	0.6909000000000001	n/a	Yes	2.725	n/a	5.0	GoodResponse	1	0.04	517.063	6	54	Feedback	Win	True
519.478	2.725	Win2	0.6909000000000001	n/a	Yes	2.725	n/a	n/a	GoodResponse	1	0.0	n/a	6	54	ISIslide	Win	True
522.219	0.25	Control	0.6964	0.0	Yes	3.031	0.019	n/a	GoodResponse	0	n/a	n/a	6	55	Cue	Neutral	True
522.47	3.95	Control	0.6964	0.0	Yes	3.031	0.001	n/a	GoodResponse	0	n/a	n/a	6	55	Fixation	Neutral	True
526.415	0.3	Control	0.6964	0.004	Yes	3.031	-0.004	4.0	GoodResponse	0	0.25	525.665	6	55	Target	Neutral	True
526.665	0.3	Control	0.6964	0.004	Yes	3.031	-0.004	4.0	GoodResponse	0	0.25	n/a	6	55	ButtonPress	Neutral	True
526.716	0.4	Control	0.6964	n/a	Yes	3.031	n/a	n/a	GoodResponse	0	n/a	n/a	6	55	Blank	Neutral	True
527.117	1.45	Control	0.6964	n/a	Yes	3.031	n/a	5.0	GoodResponse	0	0.019	526.136	6	55	Feedback	Neutral	True
528.571	3.031	Control	0.6964	n/a	Yes	3.031	n/a	n/a	GoodResponse	0	0.0	n/a	6	55	ISIslide	Neutral	True
531.631	0.25	Control	0.7018000000000001	0.0	Yes	2.819	0.031	n/a	GoodResponse	0	n/a	n/a	6	56	Cue	Neutral	True
531.881	3.95	Control	0.7018000000000001	0.0	Yes	2.819	0.0	n/a	GoodResponse	0	n/a	n/a	6	56	Fixation	Neutral	True
535.843	0.29	Control	0.7018000000000001	0.0	Yes	2.819	0.012	4.0	GoodResponse	0	0.23	535.073	6	56	Target	Neutral	True
536.073	0.3	Control	0.7018000000000001	0.0	Yes	2.819	0.012	4.0	GoodResponse	0	0.23	n/a	6	56	ButtonPress	Neutral	True
536.127	0.41	Control	0.7018000000000001	n/a	Yes	2.819	n/a	n/a	GoodResponse	0	n/a	n/a	6	56	Blank	Neutral	True
536.528	1.45	Control	0.7018000000000001	n/a	Yes	2.819	n/a	5.0	GoodResponse	0	0.023	535.551	6	56	Feedback	Neutral	True
537.983	2.819	Control	0.7018000000000001	n/a	Yes	2.819	n/a	n/a	GoodResponse	0	0.0	n/a	6	56	ISIslide	Neutral	True
540.825	0.25	Control	0.7069	0.0	Yes	3.475	0.025	n/a	GoodResponse	0	n/a	n/a	6	57	Cue	Neutral	True
541.075	4.0	Control	0.7069	0.0	Yes	3.475	0.0	n/a	GoodResponse	0	n/a	n/a	6	57	Fixation	Neutral	True
545.071	0.28	Control	0.7069	0.004	Yes	3.475	-0.004	4.0	GoodResponse	0	0.267	544.338	6	57	Target	Neutral	True
545.338	0.3	Control	0.7069	0.004	Yes	3.475	-0.004	4.0	GoodResponse	0	0.267	n/a	6	57	ButtonPress	Neutral	True
545.355	0.42	Control	0.7069	n/a	Yes	3.475	n/a	n/a	GoodResponse	0	n/a	n/a	6	57	Blank	Neutral	True
545.773	1.45	Control	0.7069	n/a	Yes	3.475	n/a	5.0	GoodResponse	0	0.045	544.818	6	57	Feedback	Neutral	True
547.227	3.475	Control	0.7069	n/a	Yes	3.475	n/a	n/a	GoodResponse	0	0.0	n/a	6	57	ISIslide	Neutral	True
550.721	0.25	Win2	0.7119	0.0	Yes	2.729	0.021	n/a	GoodResponse	1	n/a	n/a	7	58	Cue	Win	True
550.972	4.05	Win2	0.7119	0.0	Yes	2.729	0.001	n/a	GoodResponse	1	n/a	n/a	7	58	Fixation	Win	True
555.017	0.27	Win2	0.7119	0.004	Yes	2.729	-0.004	4.0	GoodResponse	1	0.23	554.247	7	58	Target	Win	True
555.247	0.3	Win2	0.7119	0.004	Yes	2.729	-0.004	4.0	GoodResponse	1	0.23	n/a	7	58	ButtonPress	Win	True
555.301	0.43	Win2	0.7119	n/a	Yes	2.729	n/a	n/a	GoodResponse	1	n/a	n/a	7	58	Blank	Win	True
555.719	1.45	Win2	0.7119	n/a	Yes	2.729	n/a	5.0	GoodResponse	1	0.002	554.721	7	58	Feedback	Win	True
557.173	2.729	Win2	0.7119	n/a	Yes	2.729	n/a	n/a	GoodResponse	1	0.0	n/a	7	58	ISIslide	Win	True
559.915	0.25	Lose2	0.7167	0.0	Yes	2.685	0.015	n/a	GoodResponse	0	n/a	n/a	7	59	Cue	AvoidedLoss	True
560.166	4.0	Lose2	0.7167	0.0	Yes	2.685	0.001	n/a	GoodResponse	0	n/a	n/a	7	59	Fixation	AvoidedLoss	True
564.161	0.26	Lose2	0.7167	0.004	Yes	2.685	-0.004	4.0	GoodResponse	0	0.213	563.374	7	59	Target	AvoidedLoss	True
564.374	0.3	Lose2	0.7167	0.004	Yes	2.685	-0.004	4.0	GoodResponse	0	0.213	n/a	7	59	ButtonPress	AvoidedLoss	True
564.428	0.44	Lose2	0.7167	n/a	Yes	2.685	n/a	n/a	GoodResponse	0	n/a	n/a	7	59	Blank	AvoidedLoss	True
564.863	1.45	Lose2	0.7167	n/a	Yes	2.685	n/a	5.0	GoodResponse	0	0.029	563.892	7	59	Feedback	AvoidedLoss	True
566.317	2.685	Lose2	0.7167	n/a	Yes	2.685	n/a	n/a	GoodResponse	0	0.0	n/a	7	59	ISIslide	AvoidedLoss	True
569.025	0.25	Control	0.7049	0.0	No	2.675	0.025	n/a	NoResponse	0	n/a	n/a	7	60	Cue	Neutral	True
569.276	4.0	Control	0.7049	0.0	No	2.675	0.001	n/a	NoResponse	0	n/a	n/a	7	60	Fixation	Neutral	True
573.271	0.25	Control	0.7049	0.004	No	2.675	-0.004	4.0	NoResponse	0	0.281	572.552	7	60	Target	Neutral	True
573.522	0.45	Control	0.7049	n/a	No	2.675	n/a	n/a	NoResponse	0	n/a	n/a	7	60	Blank	Neutral	True
573.552	0.3	Control	0.7049	0.004	No	2.675	-0.004	4.0	NoResponse	0	0.281	n/a	7	60	ButtonPress	Neutral	True
573.973	1.45	Control	0.7049	n/a	No	2.675	n/a	5.0	NoResponse	0	0.04	573.013	7	60	Feedback	Neutral	True
575.428	2.675	Control	0.7049	n/a	No	2.675	n/a	n/a	NoResponse	0	0.0	n/a	7	60	ISIslide	Neutral	True
578.119	0.25	Lose2	0.7097	0.0	Yes	2.981	0.019	n/a	GoodResponse	0	n/a	n/a	7	61	Cue	AvoidedLoss	True
578.37	4.0	Lose2	0.7097	0.0	Yes	2.981	0.001	n/a	GoodResponse	0	n/a	n/a	7	61	Fixation	AvoidedLoss	True
582.365	0.24	Lose2	0.7097	0.004	Yes	2.981	-0.004	4.0	GoodResponse	0	0.197	581.562	7	61	Target	AvoidedLoss	True
582.562	0.3	Lose2	0.7097	0.004	Yes	2.981	-0.004	4.0	GoodResponse	0	0.197	n/a	7	61	ButtonPress	AvoidedLoss	True
582.616	0.46	Lose2	0.7097	n/a	Yes	2.981	n/a	n/a	GoodResponse	0	n/a	n/a	7	61	Blank	AvoidedLoss	True
583.067	1.45	Lose2	0.7097	n/a	Yes	2.981	n/a	5.0	GoodResponse	0	0.019	582.086	7	61	Feedback	AvoidedLoss	True
584.522	2.981	Lose2	0.7097	n/a	Yes	2.981	n/a	n/a	GoodResponse	0	0.0	n/a	7	61	ISIslide	AvoidedLoss	True
587.531	0.25	Lose2	0.6984	0.0	No	2.869	0.031	n/a	NoResponse	-1	n/a	n/a	6	62	Cue	Loss	True
587.781	3.9	Lose2	0.6984	0.0	No	2.869	0.0	n/a	NoResponse	-1	n/a	n/a	6	62	Fixation	Loss	True
591.693	0.23	Lose2	0.6984	0.0	No	2.869	0.012	4.0	NoResponse	-1	0.226	590.919	6	62	Target	Loss	True
591.91	0.47	Lose2	0.6984	n/a	No	2.869	n/a	n/a	NoResponse	-1	n/a	n/a	6	62	Blank	Loss	True
591.919	0.3	Lose2	0.6984	0.0	No	2.869	0.012	4.0	NoResponse	-1	0.226	n/a	6	62	ButtonPress	Loss	True
592.378	1.45	Lose2	0.6984	n/a	No	2.869	n/a	5.0	NoResponse	-1	0.025	591.403	6	62	Feedback	Loss	True
593.833	2.869	Lose2	0.6984	n/a	No	2.869	n/a	n/a	NoResponse	-1	0.0	n/a	6	62	ISIslide	Loss	True
596.725	0.25	Lose2	0.7031000000000001	0.0	Yes	2.625	0.025	n/a	GoodResponse	0	n/a	n/a	6	63	Cue	AvoidedLoss	True
596.975	4.05	Lose2	0.7031000000000001	0.001	Yes	2.625	0.0	n/a	GoodResponse	0	n/a	n/a	6	63	Fixation	AvoidedLoss	True
601.021	0.22	Lose2	0.7031000000000001	0.004	Yes	2.625	-0.004	4.0	GoodResponse	0	0.21	600.231	6	63	Target	AvoidedLoss	True
601.231	0.3	Lose2	0.7031000000000001	0.004	Yes	2.625	-0.004	4.0	GoodResponse	0	0.21	n/a	6	63	ButtonPress	AvoidedLoss	True
601.255	0.48	Lose2	0.7031000000000001	n/a	Yes	2.625	n/a	n/a	GoodResponse	0	n/a	n/a	6	63	Blank	AvoidedLoss	True
601.723	1.45	Lose2	0.7031000000000001	n/a	Yes	2.625	n/a	5.0	GoodResponse	0	0.046	600.769	6	63	Feedback	AvoidedLoss	True
603.177	2.625	Lose2	0.7031000000000001	n/a	Yes	2.625	n/a	n/a	GoodResponse	0	0.0	n/a	6	63	ISIslide	AvoidedLoss	True
605.818	0.25	Win2	0.6923	0.001	No	3.132	0.018	n/a	LatePress	0	n/a	n/a	6	64	Cue	MissedWin	True
606.069	4.15	Win2	0.6923	0.0	No	3.132	0.001	n/a	LatePress	0	n/a	n/a	6	64	Fixation	MissedWin	True
610.215	0.21	Win2	0.6923	0.003	No	3.132	-0.003	4.0	LatePress	0	0.217	609.432	6	64	Target	MissedWin	True
610.432	0.49	Win2	0.6923	n/a	No	3.132	n/a	n/a	LatePress	0	n/a	n/a	6	64	Blank	MissedWin	True
610.432	0.3	Win2	0.6923	0.003	No	3.132	-0.003	4.0	LatePress	0	0.217	n/a	6	64	ButtonPress	MissedWin	True
610.917	1.45	Win2	0.6923	n/a	No	3.132	n/a	5.0	LatePress	0	0.022	609.939	6	64	Feedback	MissedWin	True
612.371	3.132	Win2	0.6923	n/a	No	3.132	n/a	n/a	LatePress	0	0.0	n/a	6	64	ISIslide	MissedWin	True
615.531	0.25	Control	0.6818000000000001	0.0	No	2.769	0.031	n/a	NoResponse	0	n/a	n/a	6	65	Cue	Neutral	True
615.782	4.0	Control	0.6818000000000001	0.0	No	2.769	0.001	n/a	NoResponse	0	n/a	n/a	6	65	Fixation	Neutral	True
619.777	0.2	Control	0.6818000000000001	0.004	No	2.769	-0.004	4.0	NoResponse	0	0.244	619.021	6	65	Target	Neutral	True
619.977	0.5	Control	0.6818000000000001	n/a	No	2.769	n/a	n/a	NoResponse	0	n/a	n/a	6	65	Blank	Neutral	True
620.021	0.3	Control	0.6818000000000001	0.004	No	2.769	-0.004	4.0	NoResponse	0	0.244	n/a	6	65	ButtonPress	Neutral	True
620.479	1.45	Control	0.6818000000000001	n/a	No	2.769	n/a	5.0	NoResponse	0	0.021	619.5	6	65	Feedback	Neutral	True
621.933	2.769	Control	0.6818000000000001	n/a	No	2.769	n/a	n/a	NoResponse	0	0.0	n/a	6	65	ISIslide	Neutral	True
624.725	0.25	Win2	0.6716	0.0	No	2.775	0.025	n/a	LatePress	0	n/a	n/a	6	66	Cue	MissedWin	True
624.976	3.9	Win2	0.6716	0.0	No	2.775	0.001	n/a	LatePress	0	n/a	n/a	6	66	Fixation	MissedWin	True
628.871	0.19	Win2	0.6716	0.004	No	2.775	-0.004	4.0	LatePress	0	0.198	628.069	6	66	Target	MissedWin	True
629.069	0.3	Win2	0.6716	0.004	No	2.775	-0.004	4.0	LatePress	0	0.198	n/a	6	66	ButtonPress	MissedWin	True
629.071	0.51	Win2	0.6716	n/a	No	2.775	n/a	n/a	LatePress	0	n/a	n/a	6	66	Blank	MissedWin	True
629.573	1.45	Win2	0.6716	n/a	No	2.775	n/a	5.0	LatePress	0	0.049	628.622	6	66	Feedback	MissedWin	True
631.027	2.775	Win2	0.6716	n/a	No	2.775	n/a	n/a	LatePress	0	0.0	n/a	6	66	ISIslide	MissedWin	True
633.819	0.25	Control	0.6618	0.0	No	2.731	0.019	n/a	NoResponse	0	n/a	n/a	6	67	Cue	Neutral	True
634.069	3.95	Control	0.6618	0.0	No	2.731	0.0	n/a	NoResponse	0	n/a	n/a	6	67	Fixation	Neutral	True
638.015	0.18	Control	0.6618	0.004	No	2.731	-0.004	4.0	NoResponse	0	0.195	637.21	6	67	Target	Neutral	True
638.198	0.52	Control	0.6618	n/a	No	2.731	n/a	n/a	NoResponse	0	n/a	n/a	6	67	Blank	Neutral	True
638.21	0.3	Control	0.6618	0.004	No	2.731	-0.004	4.0	NoResponse	0	0.195	n/a	6	67	ButtonPress	Neutral	True
638.717	1.45	Control	0.6618	n/a	No	2.731	n/a	5.0	NoResponse	0	0.026	637.743	6	67	Feedback	Neutral	True
640.171	2.731	Control	0.6618	n/a	No	2.731	n/a	n/a	NoResponse	0	0.0	n/a	6	67	ISIslide	Neutral	True
642.929	0.25	Win2	0.6522	0.0	No	3.071	0.029	n/a	NoResponse	0	n/a	n/a	6	68	Cue	MissedWin	True
643.18	4.0	Win2	0.6522	0.0	No	3.071	0.001	n/a	NoResponse	0	n/a	n/a	6	68	Fixation	MissedWin	True
647.175	0.18	Win2	0.6522	0.004	No	3.071	-0.004	4.0	NoResponse	0	0.192	646.367	6	68	Target	MissedWin	True
647.359	0.52	Win2	0.6522	n/a	No	3.071	n/a	n/a	NoResponse	0	n/a	n/a	6	68	Blank	MissedWin	True
647.367	0.3	Win2	0.6522	0.004	No	3.071	-0.004	4.0	NoResponse	0	0.192	n/a	6	68	ButtonPress	MissedWin	True
647.877	1.45	Win2	0.6522	n/a	No	3.071	n/a	5.0	NoResponse	0	0.037	646.914	6	68	Feedback	MissedWin	True
649.332	3.071	Win2	0.6522	n/a	No	3.071	n/a	n/a	NoResponse	0	0.0	n/a	6	68	ISIslide	MissedWin	True
652.424	0.25	Win2	0.6570999999999999	0.0	Yes	3.226	0.024	n/a	GoodResponse	1	n/a	n/a	7	69	Cue	Win	True
652.675	3.95	Win2	0.6570999999999999	0.0	Yes	3.226	0.001	n/a	GoodResponse	1	n/a	n/a	7	69	Fixation	Win	True
656.62	0.19	Win2	0.6570999999999999	0.004	Yes	3.226	-0.004	4.0	GoodResponse	1	0.185	655.805	7	69	Target	Win	True
656.805	0.3	Win2	0.6570999999999999	0.004	Yes	3.226	-0.004	4.0	GoodResponse	1	0.185	n/a	7	69	ButtonPress	Win	True
656.821	0.51	Win2	0.6570999999999999	n/a	Yes	3.226	n/a	n/a	GoodResponse	1	n/a	n/a	7	69	Blank	Win	True
657.322	1.45	Win2	0.6570999999999999	n/a	Yes	3.226	n/a	5.0	GoodResponse	1	0.007	656.329	7	69	Feedback	Win	True
658.776	3.226	Win2	0.6570999999999999	n/a	Yes	3.226	n/a	n/a	GoodResponse	1	0.0	n/a	7	69	ISIslide	Win	True
662.019	0.25	Lose2	0.662	0.001	Yes	3.031	0.019	n/a	GoodResponse	0	n/a	n/a	7	70	Cue	AvoidedLoss	True
662.27	4.05	Lose2	0.662	0.0	Yes	3.031	0.001	n/a	GoodResponse	0	n/a	n/a	7	70	Fixation	AvoidedLoss	True
666.316	0.19	Lose2	0.662	0.003	Yes	3.031	-0.003	4.0	GoodResponse	0	0.179	665.495	7	70	Target	AvoidedLoss	True
666.495	0.3	Lose2	0.662	0.003	Yes	3.031	-0.003	4.0	GoodResponse	0	0.179	n/a	7	70	ButtonPress	AvoidedLoss	True
666.516	0.51	Lose2	0.662	n/a	Yes	3.031	n/a	n/a	GoodResponse	0	n/a	n/a	7	70	Blank	AvoidedLoss	True
667.018	1.45	Lose2	0.662	n/a	Yes	3.031	n/a	5.0	GoodResponse	0	0.018	666.036	7	70	Feedback	AvoidedLoss	True
668.472	3.031	Lose2	0.662	n/a	Yes	3.031	n/a	n/a	GoodResponse	0	0.0	n/a	7	70	ISIslide	AvoidedLoss	True
671.531	0.25	Win2	0.6528	0.0	No	2.719	0.031	n/a	LatePress	0	n/a	n/a	7	71	Cue	MissedWin	True
671.782	4.05	Win2	0.6528	0.0	No	2.719	0.001	n/a	LatePress	0	n/a	n/a	7	71	Fixation	MissedWin	True
675.827	0.19	Win2	0.6528	0.004	No	2.719	-0.004	4.0	LatePress	0	0.199	675.026	7	71	Target	MissedWin	True
676.026	0.3	Win2	0.6528	0.004	No	2.719	-0.004	4.0	LatePress	0	0.199	n/a	7	71	ButtonPress	MissedWin	True
676.028	0.51	Win2	0.6528	n/a	No	2.719	n/a	n/a	LatePress	0	n/a	n/a	7	71	Blank	MissedWin	True
676.529	1.45	Win2	0.6528	n/a	No	2.719	n/a	5.0	LatePress	0	0.018	675.547	7	71	Feedback	MissedWin	True
677.984	2.719	Win2	0.6528	n/a	No	2.719	n/a	n/a	LatePress	0	0.0	n/a	7	71	ISIslide	MissedWin	True
680.725	0.25	Win2	0.6575	0.0	Yes	2.775	0.025	n/a	GoodResponse	1	n/a	n/a	8	72	Cue	Win	True
680.976	4.1	Win2	0.6575	0.0	Yes	2.775	0.001	n/a	GoodResponse	1	n/a	n/a	8	72	Fixation	Win	True
685.072	0.2	Win2	0.6575	0.003	Yes	2.775	-0.003	4.0	GoodResponse	1	0.182	684.254	8	72	Target	Win	True
685.254	0.3	Win2	0.6575	0.003	Yes	2.775	-0.003	4.0	GoodResponse	1	0.182	n/a	8	72	ButtonPress	Win	True
685.272	0.5	Win2	0.6575	n/a	Yes	2.775	n/a	n/a	GoodResponse	1	n/a	n/a	8	72	Blank	Win	True
685.774	1.45	Win2	0.6575	n/a	Yes	2.775	n/a	5.0	GoodResponse	1	0.042	684.816	8	72	Feedback	Win	True
687.228	2.775	Win2	0.6575	n/a	Yes	2.775	n/a	n/a	GoodResponse	1	0.0	n/a	8	72	ISIslide	Win	True
690.02	0.25	Win2	0.6486	0.0	No	2.68	0.02	n/a	NoResponse	0	n/a	n/a	8	73	Cue	MissedWin	True
690.27	4.0	Win2	0.6486	0.0	No	2.68	0.0	n/a	NoResponse	0	n/a	n/a	8	73	Fixation	MissedWin	True
694.266	0.2	Win2	0.6486	0.004	No	2.68	-0.004	4.0	NoResponse	0	0.212	693.478	8	73	Target	MissedWin	True
694.466	0.5	Win2	0.6486	n/a	No	2.68	n/a	n/a	NoResponse	0	n/a	n/a	8	73	Blank	MissedWin	True
694.478	0.3	Win2	0.6486	0.004	No	2.68	-0.004	4.0	NoResponse	0	0.212	n/a	8	73	ButtonPress	MissedWin	True
694.968	1.45	Win2	0.6486	n/a	No	2.68	n/a	5.0	NoResponse	0	0.019	693.987	8	73	Feedback	MissedWin	True
696.422	2.68	Win2	0.6486	n/a	No	2.68	n/a	n/a	NoResponse	0	0.0	n/a	8	73	ISIslide	MissedWin	True
699.13	0.25	Lose2	0.64	0.0	No	2.62	0.03	n/a	LatePress	-1	n/a	n/a	7	74	Cue	Loss	True
699.381	4.05	Lose2	0.64	0.0	No	2.62	0.001	n/a	LatePress	-1	n/a	n/a	7	74	Fixation	Loss	True
703.426	0.21	Lose2	0.64	0.004	No	2.62	-0.004	4.0	LatePress	-1	0.214	702.64	7	74	Target	Loss	True
703.64	0.3	Lose2	0.64	0.004	No	2.62	-0.004	4.0	LatePress	-1	0.214	n/a	7	74	ButtonPress	Loss	True
703.644	0.49	Lose2	0.64	n/a	No	2.62	n/a	n/a	LatePress	-1	n/a	n/a	7	74	Blank	Loss	True
704.128	1.45	Lose2	0.64	n/a	No	2.62	n/a	5.0	LatePress	-1	0.028	703.156	7	74	Feedback	Loss	True
705.583	2.62	Lose2	0.64	n/a	No	2.62	n/a	n/a	LatePress	-1	0.0	n/a	7	74	ISIslide	Loss	True
708.224	0.25	Lose2	0.6446999999999999	0.0	Yes	2.926	0.024	n/a	GoodResponse	0	n/a	n/a	7	75	Cue	AvoidedLoss	True
708.475	3.95	Lose2	0.6446999999999999	0.0	Yes	2.926	0.001	n/a	GoodResponse	0	n/a	n/a	7	75	Fixation	AvoidedLoss	True
712.42	0.22	Lose2	0.6446999999999999	0.004	Yes	2.926	-0.004	4.0	GoodResponse	0	0.206	711.626	7	75	Target	AvoidedLoss	True
712.626	0.3	Lose2	0.6446999999999999	0.004	Yes	2.926	-0.004	4.0	GoodResponse	0	0.206	n/a	7	75	ButtonPress	AvoidedLoss	True
712.654	0.48	Lose2	0.6446999999999999	n/a	Yes	2.926	n/a	n/a	GoodResponse	0	n/a	n/a	7	75	Blank	AvoidedLoss	True
713.122	1.45	Lose2	0.6446999999999999	n/a	Yes	2.926	n/a	5.0	GoodResponse	0	0.01	712.132	7	75	Feedback	AvoidedLoss	True
714.576	2.926	Lose2	0.6446999999999999	n/a	Yes	2.926	n/a	n/a	GoodResponse	0	0.0	n/a	7	75	ISIslide	AvoidedLoss	True
717.518	0.25	Control	0.6494	0.0	Yes	3.232	0.018	n/a	GoodResponse	0	n/a	n/a	7	76	Cue	Neutral	True
717.769	4.05	Control	0.6494	0.0	Yes	3.232	0.001	n/a	GoodResponse	0	n/a	n/a	7	76	Fixation	Neutral	True
721.815	0.23	Control	0.6494	0.003	Yes	3.232	-0.003	4.0	GoodResponse	0	0.188	721.003	7	76	Target	Neutral	True
722.003	0.3	Control	0.6494	0.003	Yes	3.232	-0.003	4.0	GoodResponse	0	0.188	n/a	7	76	ButtonPress	Neutral	True
722.049	0.47	Control	0.6494	n/a	Yes	3.232	n/a	n/a	GoodResponse	0	n/a	n/a	7	76	Blank	Neutral	True
722.517	1.45	Control	0.6494	n/a	Yes	3.232	n/a	5.0	GoodResponse	0	0.03	721.547	7	76	Feedback	Neutral	True
723.971	3.232	Control	0.6494	n/a	Yes	3.232	n/a	n/a	GoodResponse	0	0.0	n/a	7	76	ISIslide	Neutral	True
727.231	0.25	Lose2	0.6537999999999999	0.0	Yes	2.569	0.031	n/a	GoodResponse	0	n/a	n/a	7	77	Cue	AvoidedLoss	True
727.481	3.95	Lose2	0.6537999999999999	0.001	Yes	2.569	0.0	n/a	GoodResponse	0	n/a	n/a	7	77	Fixation	AvoidedLoss	True
731.427	0.24	Lose2	0.6537999999999999	0.004	Yes	2.569	-0.004	4.0	GoodResponse	0	0.185	730.612	7	77	Target	AvoidedLoss	True
731.612	0.3	Lose2	0.6537999999999999	0.004	Yes	2.569	-0.004	4.0	GoodResponse	0	0.185	n/a	7	77	ButtonPress	AvoidedLoss	True
731.677	0.46	Lose2	0.6537999999999999	n/a	Yes	2.569	n/a	n/a	GoodResponse	0	n/a	n/a	7	77	Blank	AvoidedLoss	True
732.129	1.45	Lose2	0.6537999999999999	n/a	Yes	2.569	n/a	5.0	GoodResponse	0	0.028	731.157	7	77	Feedback	AvoidedLoss	True
733.583	2.569	Lose2	0.6537999999999999	n/a	Yes	2.569	n/a	n/a	GoodResponse	0	0.0	n/a	7	77	ISIslide	AvoidedLoss	True
