onset	duration	cue_type	current_mean_accuracy	duration_error	is_hit	isi_adjusted	onset_delay	response	response_type	reward	rt	rt_time	total_reward	trial_number	trial_phase	trial_type	one_press
11.108	0.25	Control	0.0	0.0	No	2.942	0.008	n/a	NoResponse	0	n/a	n/a	0	0	Cue	Neutral	False
11.359	3.85	Control	0.0	0.0	No	2.942	0.001	n/a	NoResponse	0	n/a	n/a	0	0	Fixation	Neutral	False
15.204	0.4	Control	0.0	0.004	No	2.942	-0.004	n/a	NoResponse	0	n/a	n/a	0	0	Target	Neutral	False
15.605	0.3	Control	0.0	n/a	No	2.942	n/a	n/a	NoResponse	0	n/a	n/a	0	0	Blank	Neutral	False
15.906	1.45	Control	0.0	n/a	No	2.942	n/a	5.0	NoResponse	0	0.019	14.925	0	0	Feedback	Neutral	False
17.36	2.942	Control	0.0	n/a	No	2.942	n/a	n/a	NoResponse	0	0.0	n/a	0	0	ISIslide	Neutral	False
20.319	0.25	Lose2	0.5	0.0	Yes	2.781	0.019	n/a	GoodResponse	0	n/a	n/a	0	1	Cue	AvoidedLoss	True
20.57	4.0	Lose2	0.5	0.0	Yes	2.781	0.001	n/a	GoodResponse	0	n/a	n/a	0	1	Fixation	AvoidedLoss	True
24.565	0.41	Lose2	0.5	0.004	Yes	2.781	-0.004	2.0	GoodResponse	0	0.219	23.784	0	1	Target	AvoidedLoss	True
24.784	0.3	Lose2	0.5	0.004	Yes	2.781	-0.004	2.0	GoodResponse	0	0.219	n/a	0	1	ButtonPress	AvoidedLoss	True
24.983	0.29	Lose2	0.5	n/a	Yes	2.781	n/a	n/a	GoodResponse	0	n/a	n/a	0	1	Blank	AvoidedLoss	True
25.267	1.45	Lose2	0.5	n/a	Yes	2.781	n/a	5.0	GoodResponse	0	0.024	24.291	0	1	Feedback	AvoidedLoss	True
26.722	2.781	Lose2	0.5	n/a	Yes	2.781	n/a	n/a	GoodResponse	0	0.0	n/a	0	1	ISIslide	AvoidedLoss	True
29.53	0.25	Control	0.3333	0.0	No	2.57	0.03	n/a	NoResponse	0	n/a	n/a	0	2	Cue	Neutral	False
29.781	4.1	Control	0.3333	0.0	No	2.57	0.001	n/a	NoResponse	0	n/a	n/a	0	2	Fixation	Neutral	False
33.876	0.42	Control	0.3333	0.004	No	2.57	-0.004	n/a	NoResponse	0	n/a	n/a	0	2	Target	Neutral	False
34.311	0.28	Control	0.3333	n/a	No	2.57	n/a	n/a	NoResponse	0	n/a	n/a	0	2	Blank	Neutral	False
34.578	1.45	Control	0.3333	n/a	No	2.57	n/a	5.0	NoResponse	0	0.031	33.609	0	2	Feedback	Neutral	False
36.033	2.57	Control	0.3333	n/a	No	2.57	n/a	n/a	NoResponse	0	0.0	n/a	0	2	ISIslide	Neutral	False
38.624	0.25	Win2	0.5	0.0	Yes	2.826	0.024	n/a	GoodResponse	1	n/a	n/a	1	3	Cue	Win	True
38.875	3.95	Win2	0.5	0.0	Yes	2.826	0.001	n/a	GoodResponse	1	n/a	n/a	1	3	Fixation	Win	True
42.82	0.43	Win2	0.5	0.004	Yes	2.826	-0.004	2.0	GoodResponse	1	0.238	42.058	1	3	Target	Win	True
43.058	0.3	Win2	0.5	0.004	Yes	2.826	-0.004	2.0	GoodResponse	1	0.238	n/a	1	3	ButtonPress	Win	True
43.254	0.27	Win2	0.5	n/a	Yes	2.826	n/a	n/a	GoodResponse	1	n/a	n/a	1	3	Blank	Win	True
43.522	1.45	Win2	0.5	n/a	Yes	2.826	n/a	5.0	GoodResponse	1	0.014	42.536	1	3	Feedback	Win	True
44.976	2.826	Win2	0.5	n/a	Yes	2.826	n/a	n/a	GoodResponse	1	0.0	n/a	1	3	ISIslide	Win	True
47.818	0.25	Win2	0.6	0.0	Yes	3.282	0.018	n/a	GoodResponse	1	n/a	n/a	2	4	Cue	Win	True
48.069	4.0	Win2	0.6	0.0	Yes	3.282	0.001	n/a	GoodResponse	1	n/a	n/a	2	4	Fixation	Win	True
52.064	0.44	Win2	0.6	0.004	Yes	3.282	-0.004	2.0	GoodResponse	1	0.233	51.297	2	4	Target	Win	True
52.297	0.3	Win2	0.6	0.004	Yes	3.282	-0.004	2.0	GoodResponse	1	0.233	n/a	2	4	ButtonPress	Win	True
52.515	0.26	Win2	0.6	n/a	Yes	3.282	n/a	n/a	GoodResponse	1	n/a	n/a	2	4	Blank	Win	True
52.766	1.45	Win2	0.6	n/a	Yes	3.282	n/a	5.0	GoodResponse	1	0.037	51.803	2	4	Feedback	Win	True
54.221	3.282	Win2	0.6	n/a	Yes	3.282	n/a	n/a	GoodResponse	1	0.0	n/a	2	4	ISIslide	Win	True
57.53	0.25	Win2	0.6667000000000001	0.0	Yes	2.77	0.03	n/a	GoodResponse	1	n/a	n/a	3	5	Cue	Win	True
57.781	4.0	Win2	0.6667000000000001	0.0	Yes	2.77	0.001	n/a	GoodResponse	1	n/a	n/a	3	5	Fixation	Win	True
61.776	0.45	Win2	0.6667000000000001	0.004	Yes	2.77	-0.004	2.0	GoodResponse	1	0.241	61.017	3	5	Target	Win	True
62.017	0.3	Win2	0.6667000000000001	0.004	Yes	2.77	-0.004	2.0	GoodResponse	1	0.241	n/a	3	5	ButtonPress	Win	True
62.228	0.25	Win2	0.6667000000000001	n/a	Yes	2.77	n/a	n/a	GoodResponse	1	n/a	n/a	3	5	Blank	Win	True
62.479	1.45	Win2	0.6667000000000001	n/a	Yes	2.77	n/a	5.0	GoodResponse	1	0.031	61.51	3	5	Feedback	Win	True
63.933	2.77	Win2	0.6667000000000001	n/a	Yes	2.77	n/a	n/a	GoodResponse	1	0.0	n/a	3	5	ISIslide	Win	True
66.725	0.25	Lose2	0.7143	0.0	Yes	2.725	0.025	n/a	GoodResponse	0	n/a	n/a	3	6	Cue	AvoidedLoss	True
66.975	3.95	Lose2	0.7143	0.0	Yes	2.725	0.0	n/a	GoodResponse	0	n/a	n/a	3	6	Fixation	AvoidedLoss	True
70.937	0.44	Lose2	0.7143	0.0	Yes	2.725	0.012	2.0	GoodResponse	0	0.244	70.181	3	6	Target	AvoidedLoss	True
71.181	0.3	Lose2	0.7143	0.0	Yes	2.725	0.012	2.0	GoodResponse	0	0.244	n/a	3	6	ButtonPress	AvoidedLoss	True
71.372	0.26	Lose2	0.7143	n/a	Yes	2.725	n/a	n/a	GoodResponse	0	n/a	n/a	3	6	Blank	AvoidedLoss	True
71.623	1.45	Lose2	0.7143	n/a	Yes	2.725	n/a	5.0	GoodResponse	0	0.009	70.632	3	6	Feedback	AvoidedLoss	True
73.077	2.725	Lose2	0.7143	n/a	Yes	2.725	n/a	n/a	GoodResponse	0	0.0	n/a	3	6	ISIslide	AvoidedLoss	True
75.818	0.25	Lose2	0.75	0.0	Yes	4.032	0.018	n/a	GoodResponse	0	n/a	n/a	3	7	Cue	AvoidedLoss	True
76.069	4.05	Lose2	0.75	0.0	Yes	4.032	0.001	n/a	GoodResponse	0	n/a	n/a	3	7	Fixation	AvoidedLoss	True
80.115	0.43	Lose2	0.75	0.003	Yes	4.032	-0.003	2.0	GoodResponse	0	0.215	79.33	3	7	Target	AvoidedLoss	True
80.33	0.3	Lose2	0.75	0.003	Yes	4.032	-0.003	2.0	GoodResponse	0	0.215	n/a	3	7	ButtonPress	AvoidedLoss	True
80.549	0.27	Lose2	0.75	n/a	Yes	4.032	n/a	n/a	GoodResponse	0	n/a	n/a	3	7	Blank	AvoidedLoss	True
80.817	1.45	Lose2	0.75	n/a	Yes	4.032	n/a	5.0	GoodResponse	0	0.035	79.852	3	7	Feedback	AvoidedLoss	True
82.271	4.032	Lose2	0.75	n/a	Yes	4.032	n/a	n/a	GoodResponse	0	0.0	n/a	3	7	ISIslide	AvoidedLoss	True
86.316	0.25	Lose2	0.7778	0.001	Yes	3.034	0.016	n/a	GoodResponse	0	n/a	n/a	3	8	Cue	AvoidedLoss	True
86.567	3.95	Lose2	0.7778	0.0	Yes	3.034	0.001	n/a	GoodResponse	0	n/a	n/a	3	8	Fixation	AvoidedLoss	True
90.512	0.42	Lose2	0.7778	0.004	Yes	3.034	-0.004	2.0	GoodResponse	0	0.228	89.74	3	8	Target	AvoidedLoss	True
90.74	0.3	Lose2	0.7778	0.004	Yes	3.034	-0.004	2.0	GoodResponse	0	0.228	n/a	3	8	ButtonPress	AvoidedLoss	True
90.947	0.28	Lose2	0.7778	n/a	Yes	3.034	n/a	n/a	GoodResponse	0	n/a	n/a	3	8	Blank	AvoidedLoss	True
91.214	1.45	Lose2	0.7778	n/a	Yes	3.034	n/a	5.0	GoodResponse	0	0.027	90.241	3	8	Feedback	AvoidedLoss	True
92.669	3.034	Lose2	0.7778	n/a	Yes	3.034	n/a	n/a	GoodResponse	0	0.0	n/a	3	8	ISIslide	AvoidedLoss	True
95.728	0.25	Lose2	0.8	0.0	Yes	3.122	0.028	n/a	GoodResponse	0	n/a	n/a	3	9	Cue	AvoidedLoss	True
95.979	3.95	Lose2	0.8	0.0	Yes	3.122	0.001	n/a	GoodResponse	0	n/a	n/a	3	9	Fixation	AvoidedLoss	True
99.924	0.41	Lose2	0.8	0.004	Yes	3.122	-0.004	2.0	GoodResponse	0	0.316	99.24	3	9	Target	AvoidedLoss	True
100.24	0.3	Lose2	0.8	0.004	Yes	3.122	-0.004	2.0	GoodResponse	0	0.316	n/a	3	9	ButtonPress	AvoidedLoss	True
100.342	0.29	Lose2	0.8	n/a	Yes	3.122	n/a	n/a	GoodResponse	0	n/a	n/a	3	9	Blank	AvoidedLoss	True
100.626	1.45	Lose2	0.8	n/a	Yes	3.122	n/a	5.0	GoodResponse	0	0.03	99.656	3	9	Feedback	AvoidedLoss	True
102.08	3.122	Lose2	0.8	n/a	Yes	3.122	n/a	n/a	GoodResponse	0	0.0	n/a	3	9	ISIslide	AvoidedLoss	True
105.223	0.25	Control	0.7273000000000001	0.0	No	3.277	0.023	n/a	NoResponse	0	n/a	n/a	3	10	Cue	Neutral	False
105.474	4.0	Control	0.7273000000000001	0.0	No	3.277	0.001	n/a	NoResponse	0	n/a	n/a	3	10	Fixation	Neutral	False
109.469	0.4	Control	0.7273000000000001	0.004	No	3.277	-0.004	n/a	NoResponse	0	n/a	n/a	3	10	Target	Neutral	False
109.87	0.3	Control	0.7273000000000001	n/a	No	3.277	n/a	n/a	NoResponse	0	n/a	n/a	3	10	Blank	Neutral	False
110.171	1.45	Control	0.7273000000000001	n/a	No	3.277	n/a	5.0	NoResponse	0	0.046	109.217	3	10	Feedback	Neutral	False
111.625	3.277	Control	0.7273000000000001	n/a	No	3.277	n/a	n/a	NoResponse	0	0.0	n/a	3	10	ISIslide	Neutral	False
114.919	0.25	Lose2	0.75	0.0	Yes	2.731	0.019	n/a	GoodResponse	0	n/a	n/a	3	11	Cue	AvoidedLoss	True
115.169	4.05	Lose2	0.75	0.0	Yes	2.731	0.0	n/a	GoodResponse	0	n/a	n/a	3	11	Fixation	AvoidedLoss	True
119.215	0.39	Lose2	0.75	0.004	Yes	2.731	-0.004	2.0	GoodResponse	0	0.19	118.405	3	11	Target	AvoidedLoss	True
119.405	0.3	Lose2	0.75	0.004	Yes	2.731	-0.004	2.0	GoodResponse	0	0.19	n/a	3	11	ButtonPress	AvoidedLoss	True
119.616	0.31	Lose2	0.75	n/a	Yes	2.731	n/a	n/a	GoodResponse	0	n/a	n/a	3	11	Blank	AvoidedLoss	True
119.917	1.45	Lose2	0.75	n/a	Yes	2.731	n/a	5.0	GoodResponse	0	0.008	118.925	3	11	Feedback	AvoidedLoss	True
121.371	2.731	Lose2	0.75	n/a	Yes	2.731	n/a	n/a	GoodResponse	0	0.0	n/a	3	11	ISIslide	AvoidedLoss	True
124.13	0.25	Control	0.6923	0.0	No	2.97	0.03	n/a	NoResponse	0	n/a	n/a	3	12	Cue	Neutral	False
124.38	3.9	Control	0.6923	0.0	No	2.97	0.0	n/a	NoResponse	0	n/a	n/a	3	12	Fixation	Neutral	False
128.292	0.38	Control	0.6923	0.0	No	2.97	0.012	n/a	NoResponse	0	n/a	n/a	3	12	Target	Neutral	False
128.66	0.32	Control	0.6923	n/a	No	2.97	n/a	n/a	NoResponse	0	n/a	n/a	3	12	Blank	Neutral	False
128.977	1.45	Control	0.6923	n/a	No	2.97	n/a	5.0	NoResponse	0	0.021	127.998	3	12	Feedback	Neutral	False
130.432	2.97	Control	0.6923	n/a	No	2.97	n/a	n/a	NoResponse	0	0.0	n/a	3	12	ISIslide	Neutral	False
133.424	0.25	Control	0.6429	0.0	No	2.776	0.024	n/a	NoResponse	0	n/a	n/a	3	13	Cue	Neutral	False
133.675	4.0	Control	0.6429	0.0	No	2.776	0.001	n/a	NoResponse	0	n/a	n/a	3	13	Fixation	Neutral	False
137.67	0.37	Control	0.6429	0.004	No	2.776	-0.004	n/a	NoResponse	0	n/a	n/a	3	13	Target	Neutral	False
138.055	0.33	Control	0.6429	n/a	No	2.776	n/a	n/a	NoResponse	0	n/a	n/a	3	13	Blank	Neutral	False
138.372	1.45	Control	0.6429	n/a	No	2.776	n/a	5.0	NoResponse	0	0.04	137.412	3	13	Feedback	Neutral	False
139.826	2.776	Control	0.6429	n/a	No	2.776	n/a	n/a	NoResponse	0	0.0	n/a	3	13	ISIslide	Neutral	False
142.618	0.25	Win2	0.6667000000000001	0.0	Yes	2.682	0.018	n/a	GoodResponse	1	n/a	n/a	4	14	Cue	Win	True
142.869	4.1	Win2	0.6667000000000001	0.0	Yes	2.682	0.001	n/a	GoodResponse	1	n/a	n/a	4	14	Fixation	Win	True
146.964	0.38	Win2	0.6667000000000001	0.004	Yes	2.682	-0.004	2.0	GoodResponse	1	0.255	146.219	4	14	Target	Win	True
147.219	0.3	Win2	0.6667000000000001	0.004	Yes	2.682	-0.004	2.0	GoodResponse	1	0.255	n/a	4	14	ButtonPress	Win	True
147.349	0.32	Win2	0.6667000000000001	n/a	Yes	2.682	n/a	n/a	GoodResponse	1	n/a	n/a	4	14	Blank	Win	True
147.667	1.45	Win2	0.6667000000000001	n/a	Yes	2.682	n/a	5.0	GoodResponse	1	0.013	146.68	4	14	Feedback	Win	True
149.121	2.682	Win2	0.6667000000000001	n/a	Yes	2.682	n/a	n/a	GoodResponse	1	0.0	n/a	4	14	ISIslide	Win	True
151.829	0.25	Control	0.625	0.0	No	2.971	0.029	n/a	NoResponse	0	n/a	n/a	4	15	Cue	Neutral	False
152.08	4.0	Control	0.625	0.0	No	2.971	0.001	n/a	NoResponse	0	n/a	n/a	4	15	Fixation	Neutral	False
156.075	0.37	Control	0.625	0.004	No	2.971	-0.004	n/a	NoResponse	0	n/a	n/a	4	15	Target	Neutral	False
156.46	0.33	Control	0.625	n/a	No	2.971	n/a	n/a	NoResponse	0	n/a	n/a	4	15	Blank	Neutral	False
156.777	1.45	Control	0.625	n/a	No	2.971	n/a	5.0	NoResponse	0	0.025	155.802	4	15	Feedback	Neutral	False
158.232	2.971	Control	0.625	n/a	No	2.971	n/a	n/a	NoResponse	0	0.0	n/a	4	15	ISIslide	Neutral	False
161.224	0.25	Win2	0.6470999999999999	0.0	Yes	2.876	0.024	n/a	GoodResponse	1	n/a	n/a	5	16	Cue	Win	True
161.475	4.0	Win2	0.6470999999999999	0.0	Yes	2.876	0.001	n/a	GoodResponse	1	n/a	n/a	5	16	Fixation	Win	True
165.47	0.38	Win2	0.6470999999999999	0.004	Yes	2.876	-0.004	2.0	GoodResponse	1	0.294	164.764	5	16	Target	Win	True
165.764	0.3	Win2	0.6470999999999999	0.004	Yes	2.876	-0.004	2.0	GoodResponse	1	0.294	n/a	5	16	ButtonPress	Win	True
165.854	0.32	Win2	0.6470999999999999	n/a	Yes	2.876	n/a	n/a	GoodResponse	1	n/a	n/a	5	16	Blank	Win	True
166.172	1.45	Win2	0.6470999999999999	n/a	Yes	2.876	n/a	5.0	GoodResponse	1	0.045	165.217	5	16	Feedback	Win	True
167.626	2.876	Win2	0.6470999999999999	n/a	Yes	2.876	n/a	n/a	GoodResponse	1	0.0	n/a	5	16	ISIslide	Win	True
170.518	0.25	Lose2	0.6667000000000001	0.0	Yes	2.732	0.018	n/a	GoodResponse	0	n/a	n/a	5	17	Cue	AvoidedLoss	True
170.769	3.95	Lose2	0.6667000000000001	0.0	Yes	2.732	0.001	n/a	GoodResponse	0	n/a	n/a	5	17	Fixation	AvoidedLoss	True
174.714	0.39	Lose2	0.6667000000000001	0.004	Yes	2.732	-0.004	2.0	GoodResponse	0	0.284	173.998	5	17	Target	AvoidedLoss	True
174.998	0.3	Lose2	0.6667000000000001	0.004	Yes	2.732	-0.004	2.0	GoodResponse	0	0.284	n/a	5	17	ButtonPress	AvoidedLoss	True
175.115	0.31	Lose2	0.6667000000000001	n/a	Yes	2.732	n/a	n/a	GoodResponse	0	n/a	n/a	5	17	Blank	AvoidedLoss	True
175.416	1.45	Lose2	0.6667000000000001	n/a	Yes	2.732	n/a	5.0	GoodResponse	0	0.019	174.435	5	17	Feedback	AvoidedLoss	True
176.871	2.732	Lose2	0.6667000000000001	n/a	Yes	2.732	n/a	n/a	GoodResponse	0	0.0	n/a	5	17	ISIslide	AvoidedLoss	True
179.629	0.25	Lose2	0.6842	0.0	Yes	2.721	0.029	n/a	GoodResponse	0	n/a	n/a	5	18	Cue	AvoidedLoss	True
179.88	4.05	Lose2	0.6842	0.0	Yes	2.721	0.001	n/a	GoodResponse	0	n/a	n/a	5	18	Fixation	AvoidedLoss	True
183.925	0.38	Lose2	0.6842	0.004	Yes	2.721	-0.004	2.0	GoodResponse	0	0.262	183.187	5	18	Target	AvoidedLoss	True
184.187	0.3	Lose2	0.6842	0.004	Yes	2.721	-0.004	2.0	GoodResponse	0	0.262	n/a	5	18	ButtonPress	AvoidedLoss	True
184.309	0.32	Lose2	0.6842	n/a	Yes	2.721	n/a	n/a	GoodResponse	0	n/a	n/a	5	18	Blank	AvoidedLoss	True
184.627	1.45	Lose2	0.6842	n/a	Yes	2.721	n/a	5.0	GoodResponse	0	0.028	183.655	5	18	Feedback	AvoidedLoss	True
186.081	2.721	Lose2	0.6842	n/a	Yes	2.721	n/a	n/a	GoodResponse	0	0.0	n/a	5	18	ISIslide	AvoidedLoss	True
188.823	0.25	Control	0.65	0.0	No	2.927	0.023	n/a	NoResponse	0	n/a	n/a	5	19	Cue	Neutral	False
189.074	3.95	Control	0.65	0.0	No	2.927	0.001	n/a	NoResponse	0	n/a	n/a	5	19	Fixation	Neutral	False
193.019	0.37	Control	0.65	0.004	No	2.927	-0.004	n/a	NoResponse	0	n/a	n/a	5	19	Target	Neutral	False
193.403	0.33	Control	0.65	n/a	No	2.927	n/a	n/a	NoResponse	0	n/a	n/a	5	19	Blank	Neutral	False
193.721	1.45	Control	0.65	n/a	No	2.927	n/a	5.0	NoResponse	0	0.007	192.728	5	19	Feedback	Neutral	False
195.175	2.927	Control	0.65	n/a	No	2.927	n/a	n/a	NoResponse	0	0.0	n/a	5	19	ISIslide	Neutral	False
198.117	0.25	Control	0.619	0.0	No	2.633	0.017	n/a	NoResponse	0	n/a	n/a	5	20	Cue	Neutral	False
198.368	4.05	Control	0.619	0.0	No	2.633	0.001	n/a	NoResponse	0	n/a	n/a	5	20	Fixation	Neutral	False
202.414	0.38	Control	0.619	0.003	No	2.633	-0.003	n/a	NoResponse	0	n/a	n/a	5	20	Target	Neutral	False
202.798	0.32	Control	0.619	n/a	No	2.633	n/a	n/a	NoResponse	0	n/a	n/a	5	20	Blank	Neutral	False
203.116	1.45	Control	0.619	n/a	No	2.633	n/a	5.0	NoResponse	0	0.027	202.143	5	20	Feedback	Neutral	False
204.57	2.633	Control	0.619	n/a	No	2.633	n/a	n/a	NoResponse	0	0.0	n/a	5	20	ISIslide	Neutral	False
207.228	0.25	Control	0.5909	0.0	No	2.772	0.028	n/a	NoResponse	0	n/a	n/a	5	21	Cue	Neutral	False
207.479	4.1	Control	0.5909	0.0	No	2.772	0.001	n/a	NoResponse	0	n/a	n/a	5	21	Fixation	Neutral	False
211.574	0.39	Control	0.5909	0.004	No	2.772	-0.004	n/a	NoResponse	0	n/a	n/a	5	21	Target	Neutral	False
211.976	0.31	Control	0.5909	n/a	No	2.772	n/a	n/a	NoResponse	0	n/a	n/a	5	21	Blank	Neutral	False
212.276	1.45	Control	0.5909	n/a	No	2.772	n/a	5.0	NoResponse	0	0.038	211.314	5	21	Feedback	Neutral	False
213.731	2.772	Control	0.5909	n/a	No	2.772	n/a	n/a	NoResponse	0	0.0	n/a	5	21	ISIslide	Neutral	False
216.522	0.25	Control	0.5652	0.001	No	2.778	0.022	n/a	NoResponse	0	n/a	n/a	5	22	Cue	Neutral	False
216.773	4.0	Control	0.5652	0.0	No	2.778	0.001	n/a	NoResponse	0	n/a	n/a	5	22	Fixation	Neutral	False
220.768	0.4	Control	0.5652	0.004	No	2.778	-0.004	n/a	NoResponse	0	n/a	n/a	5	22	Target	Neutral	False
221.17	0.3	Control	0.5652	n/a	No	2.778	n/a	n/a	NoResponse	0	n/a	n/a	5	22	Blank	Neutral	False
221.471	1.45	Control	0.5652	n/a	No	2.778	n/a	5.0	NoResponse	0	0.013	220.484	5	22	Feedback	Neutral	False
222.925	2.778	Control	0.5652	n/a	No	2.778	n/a	n/a	NoResponse	0	0.0	n/a	5	22	ISIslide	Neutral	False
225.717	0.25	Control	0.5417000000000001	0.0	No	2.783	0.017	n/a	NoResponse	0	n/a	n/a	5	23	Cue	Neutral	False
225.967	3.9	Control	0.5417000000000001	0.0	No	2.783	0.0	n/a	NoResponse	0	n/a	n/a	5	23	Fixation	Neutral	False
229.879	0.41	Control	0.5417000000000001	0.0	No	2.783	0.012	n/a	NoResponse	0	n/a	n/a	5	23	Target	Neutral	False
230.28	0.29	Control	0.5417000000000001	n/a	No	2.783	n/a	n/a	NoResponse	0	n/a	n/a	5	23	Blank	Neutral	False
230.564	1.45	Control	0.5417000000000001	n/a	No	2.783	n/a	5.0	NoResponse	0	0.042	229.606	5	23	Feedback	Neutral	False
232.019	2.783	Control	0.5417000000000001	n/a	No	2.783	n/a	n/a	NoResponse	0	0.0	n/a	5	23	ISIslide	Neutral	False
234.827	0.25	Win2	0.56	0.0	Yes	3.123	0.027	n/a	GoodResponse	1	n/a	n/a	6	24	Cue	Win	True
235.078	3.95	Win2	0.56	0.0	Yes	3.123	0.001	n/a	GoodResponse	1	n/a	n/a	6	24	Fixation	Win	True
239.023	0.42	Win2	0.56	0.004	Yes	3.123	-0.004	2.0	GoodResponse	1	0.234	238.257	6	24	Target	Win	True
239.257	0.3	Win2	0.56	0.004	Yes	3.123	-0.004	2.0	GoodResponse	1	0.234	n/a	6	24	ButtonPress	Win	True
239.458	0.28	Win2	0.56	n/a	Yes	3.123	n/a	n/a	GoodResponse	1	n/a	n/a	6	24	Blank	Win	True
239.725	1.45	Win2	0.56	n/a	Yes	3.123	n/a	5.0	GoodResponse	1	0.006	238.731	6	24	Feedback	Win	True
241.18	3.123	Win2	0.56	n/a	Yes	3.123	n/a	n/a	GoodResponse	1	0.0	n/a	6	24	ISIslide	Win	True
244.322	0.25	Win2	0.5769	0.0	Yes	3.078	0.022	n/a	GoodResponse	1	n/a	n/a	7	25	Cue	Win	True
244.573	4.0	Win2	0.5769	0.0	Yes	3.078	0.001	n/a	GoodResponse	1	n/a	n/a	7	25	Fixation	Win	True
248.568	0.43	Win2	0.5769	0.004	Yes	3.078	-0.004	2.0	GoodResponse	1	0.211	247.779	7	25	Target	Win	True
248.779	0.3	Win2	0.5769	0.004	Yes	3.078	-0.004	2.0	GoodResponse	1	0.211	n/a	7	25	ButtonPress	Win	True
249.003	0.27	Win2	0.5769	n/a	Yes	3.078	n/a	n/a	GoodResponse	1	n/a	n/a	7	25	Blank	Win	True
249.27	1.45	Win2	0.5769	n/a	Yes	3.078	n/a	5.0	GoodResponse	1	0.019	248.289	7	25	Feedback	Win	True
250.725	3.078	Win2	0.5769	n/a	Yes	3.078	n/a	n/a	GoodResponse	1	0.0	n/a	7	25	ISIslide	Win	True
253.817	0.25	Win2	0.5926	0.0	Yes	2.933	0.017	n/a	GoodResponse	1	n/a	n/a	8	26	Cue	Win	True
254.068	3.95	Win2	0.5926	0.0	Yes	2.933	0.001	n/a	GoodResponse	1	n/a	n/a	8	26	Fixation	Win	True
258.013	0.44	Win2	0.5926	0.004	Yes	2.933	-0.004	2.0	GoodResponse	1	0.209	257.222	8	26	Target	Win	True
258.222	0.3	Win2	0.5926	0.004	Yes	2.933	-0.004	2.0	GoodResponse	1	0.209	n/a	8	26	ButtonPress	Win	True
258.465	0.26	Win2	0.5926	n/a	Yes	2.933	n/a	n/a	GoodResponse	1	n/a	n/a	8	26	Blank	Win	True
258.715	1.45	Win2	0.5926	n/a	Yes	2.933	n/a	5.0	GoodResponse	1	0.036	257.751	8	26	Feedback	Win	True
260.17	2.933	Win2	0.5926	n/a	Yes	2.933	n/a	n/a	GoodResponse	1	0.0	n/a	8	26	ISIslide	Win	True
263.128	0.25	Lose2	0.6071	0.001	Yes	2.822	0.028	n/a	GoodResponse	0	n/a	n/a	8	27	Cue	AvoidedLoss	True
263.379	4.05	Lose2	0.6071	0.0	Yes	2.822	0.001	n/a	GoodResponse	0	n/a	n/a	8	27	Fixation	AvoidedLoss	True
267.425	0.45	Lose2	0.6071	0.003	Yes	2.822	-0.003	2.0	GoodResponse	0	0.288	266.713	8	27	Target	AvoidedLoss	True
267.713	0.3	Lose2	0.6071	0.003	Yes	2.822	-0.003	2.0	GoodResponse	0	0.288	n/a	8	27	ButtonPress	AvoidedLoss	True
267.876	0.25	Lose2	0.6071	n/a	Yes	2.822	n/a	n/a	GoodResponse	0	n/a	n/a	8	27	Blank	AvoidedLoss	True
268.127	1.45	Lose2	0.6071	n/a	Yes	2.822	n/a	5.0	GoodResponse	0	0.039	267.166	8	27	Feedback	AvoidedLoss	True
269.581	2.822	Lose2	0.6071	n/a	Yes	2.822	n/a	n/a	GoodResponse	0	0.0	n/a	8	27	ISIslide	AvoidedLoss	True
272.423	0.25	Control	0.5861999999999999	0.0	No	2.827	0.023	n/a	NoResponse	0	n/a	n/a	8	28	Cue	Neutral	False
272.674	4.05	Control	0.5861999999999999	0.0	No	2.827	0.001	n/a	NoResponse	0	n/a	n/a	8	28	Fixation	Neutral	False
276.719	0.46	Control	0.5861999999999999	0.004	No	2.827	-0.004	n/a	NoResponse	0	n/a	n/a	8	28	Target	Neutral	False
277.187	0.24	Control	0.5861999999999999	n/a	No	2.827	n/a	n/a	NoResponse	0	n/a	n/a	8	28	Blank	Neutral	False
277.421	1.45	Control	0.5861999999999999	n/a	No	2.827	n/a	5.0	NoResponse	0	0.013	276.434	8	28	Feedback	Neutral	False
278.876	2.827	Control	0.5861999999999999	n/a	No	2.827	n/a	n/a	NoResponse	0	0.0	n/a	8	28	ISIslide	Neutral	False
281.717	0.25	Lose2	0.6	0.0	Yes	2.833	0.017	n/a	GoodResponse	0	n/a	n/a	8	29	Cue	AvoidedLoss	True
281.968	3.95	Lose2	0.6	0.0	Yes	2.833	0.001	n/a	GoodResponse	0	n/a	n/a	8	29	Fixation	AvoidedLoss	True
285.913	0.47	Lose2	0.6	0.004	Yes	2.833	-0.004	2.0	GoodResponse	0	0.254	285.167	8	29	Target	AvoidedLoss	True
286.167	0.3	Lose2	0.6	0.004	Yes	2.833	-0.004	2.0	GoodResponse	0	0.254	n/a	8	29	ButtonPress	AvoidedLoss	True
286.398	0.23	Lose2	0.6	n/a	Yes	2.833	n/a	n/a	GoodResponse	0	n/a	n/a	8	29	Blank	AvoidedLoss	True
286.615	1.45	Lose2	0.6	n/a	Yes	2.833	n/a	5.0	GoodResponse	0	0.039	285.654	8	29	Feedback	AvoidedLoss	True
288.07	2.833	Lose2	0.6	n/a	Yes	2.833	n/a	n/a	GoodResponse	0	0.0	n/a	8	29	ISIslide	AvoidedLoss	True
290.928	0.25	Win2	0.6129	0.0	Yes	2.772	0.028	n/a	GoodResponse	1	n/a	n/a	9	30	Cue	Win	True
291.179	3.9	Win2	0.6129	0.0	Yes	2.772	0.001	n/a	GoodResponse	1	n/a	n/a	9	30	Fixation	Win	True
295.074	0.48	Win2	0.6129	0.004	Yes	2.772	-0.004	2.0	GoodResponse	1	0.334	294.408	9	30	Target	Win	True
295.408	0.3	Win2	0.6129	0.004	Yes	2.772	-0.004	2.0	GoodResponse	1	0.334	n/a	9	30	ButtonPress	Win	True
295.559	0.22	Win2	0.6129	n/a	Yes	2.772	n/a	n/a	GoodResponse	1	n/a	n/a	9	30	Blank	Win	True
295.776	1.45	Win2	0.6129	n/a	Yes	2.772	n/a	5.0	GoodResponse	1	0.049	294.825	9	30	Feedback	Win	True
297.23	2.772	Win2	0.6129	n/a	Yes	2.772	n/a	n/a	GoodResponse	1	0.0	n/a	9	30	ISIslide	Win	True
300.022	0.25	Lose2	0.625	0.0	Yes	2.828	0.022	n/a	GoodResponse	0	n/a	n/a	9	31	Cue	AvoidedLoss	True
300.273	4.05	Lose2	0.625	0.0	Yes	2.828	0.001	n/a	GoodResponse	0	n/a	n/a	9	31	Fixation	AvoidedLoss	True
304.318	0.49	Lose2	0.625	0.004	Yes	2.828	-0.004	2.0	GoodResponse	0	0.245	303.563	9	31	Target	AvoidedLoss	True
304.563	0.3	Lose2	0.625	0.004	Yes	2.828	-0.004	2.0	GoodResponse	0	0.245	n/a	9	31	ButtonPress	AvoidedLoss	True
304.82	0.21	Lose2	0.625	n/a	Yes	2.828	n/a	n/a	GoodResponse	0	n/a	n/a	9	31	Blank	AvoidedLoss	True
305.02	1.45	Lose2	0.625	n/a	Yes	2.828	n/a	5.0	GoodResponse	0	0.023	304.043	9	31	Feedback	AvoidedLoss	True
306.475	2.828	Lose2	0.625	n/a	Yes	2.828	n/a	n/a	GoodResponse	0	0.0	n/a	9	31	ISIslide	AvoidedLoss	True
309.317	0.25	Lose2	0.6364	0.0	Yes	2.633	0.017	n/a	GoodResponse	0	n/a	n/a	9	32	Cue	AvoidedLoss	True
309.567	4.15	Lose2	0.6364	0.0	Yes	2.633	0.0	n/a	GoodResponse	0	n/a	n/a	9	32	Fixation	AvoidedLoss	True
313.713	0.5	Lose2	0.6364	0.004	Yes	2.633	-0.004	2.0	GoodResponse	0	0.227	312.94	9	32	Target	AvoidedLoss	True
313.94	0.3	Lose2	0.6364	0.004	Yes	2.633	-0.004	2.0	GoodResponse	0	0.227	n/a	9	32	ButtonPress	AvoidedLoss	True
314.215	0.2	Lose2	0.6364	n/a	Yes	2.633	n/a	n/a	GoodResponse	0	n/a	n/a	9	32	Blank	AvoidedLoss	True
314.415	1.45	Lose2	0.6364	n/a	Yes	2.633	n/a	5.0	GoodResponse	0	0.043	313.458	9	32	Feedback	AvoidedLoss	True
315.869	2.633	Lose2	0.6364	n/a	Yes	2.633	n/a	n/a	GoodResponse	0	0.0	n/a	9	32	ISIslide	AvoidedLoss	True
318.527	0.25	Win2	0.6470999999999999	0.001	Yes	2.673	0.027	n/a	GoodResponse	1	n/a	n/a	10	33	Cue	Win	True
318.778	4.0	Win2	0.6470999999999999	0.0	Yes	2.673	0.001	n/a	GoodResponse	1	n/a	n/a	10	33	Fixation	Win	True
322.773	0.5	Win2	0.6470999999999999	0.004	Yes	2.673	-0.004	2.0	GoodResponse	1	0.277	322.05	10	33	Target	Win	True
323.05	0.3	Win2	0.6470999999999999	0.004	Yes	2.673	-0.004	2.0	GoodResponse	1	0.277	n/a	10	33	ButtonPress	Win	True
323.275	0.2	Win2	0.6470999999999999	n/a	Yes	2.673	n/a	n/a	GoodResponse	1	n/a	n/a	10	33	Blank	Win	True
323.476	1.45	Win2	0.6470999999999999	n/a	Yes	2.673	n/a	5.0	GoodResponse	1	0.007	322.483	10	33	Feedback	Win	True
324.93	2.673	Win2	0.6470999999999999	n/a	Yes	2.673	n/a	n/a	GoodResponse	1	0.0	n/a	10	33	ISIslide	Win	True
327.621	0.25	Lose2	0.6570999999999999	0.0	Yes	2.629	0.021	n/a	GoodResponse	0	n/a	n/a	10	34	Cue	AvoidedLoss	True
327.872	4.05	Lose2	0.6570999999999999	0.0	Yes	2.629	0.001	n/a	GoodResponse	0	n/a	n/a	10	34	Fixation	AvoidedLoss	True
331.917	0.5	Lose2	0.6570999999999999	0.004	Yes	2.629	-0.004	2.0	GoodResponse	0	0.233	331.15	10	34	Target	AvoidedLoss	True
332.15	0.3	Lose2	0.6570999999999999	0.004	Yes	2.629	-0.004	2.0	GoodResponse	0	0.233	n/a	10	34	ButtonPress	AvoidedLoss	True
332.419	0.2	Lose2	0.6570999999999999	n/a	Yes	2.629	n/a	n/a	GoodResponse	0	n/a	n/a	10	34	Blank	AvoidedLoss	True
332.62	1.45	Lose2	0.6570999999999999	n/a	Yes	2.629	n/a	5.0	GoodResponse	0	0.033	331.653	10	34	Feedback	AvoidedLoss	True
334.074	2.629	Lose2	0.6570999999999999	n/a	Yes	2.629	n/a	n/a	GoodResponse	0	0.0	n/a	10	34	ISIslide	AvoidedLoss	True
336.715	0.25	Lose2	0.6667000000000001	0.0	Yes	2.685	0.015	n/a	GoodResponse	0	n/a	n/a	10	35	Cue	AvoidedLoss	True
336.966	4.0	Lose2	0.6667000000000001	0.0	Yes	2.685	0.001	n/a	GoodResponse	0	n/a	n/a	10	35	Fixation	AvoidedLoss	True
340.961	0.5	Lose2	0.6667000000000001	0.004	Yes	2.685	-0.004	2.0	GoodResponse	0	0.454	340.415	10	35	Target	AvoidedLoss	True
341.415	0.3	Lose2	0.6667000000000001	0.004	Yes	2.685	-0.004	2.0	GoodResponse	0	0.454	n/a	10	35	ButtonPress	AvoidedLoss	True
341.463	0.2	Lose2	0.6667000000000001	n/a	Yes	2.685	n/a	n/a	GoodResponse	0	n/a	n/a	10	35	Blank	AvoidedLoss	True
341.663	1.45	Lose2	0.6667000000000001	n/a	Yes	2.685	n/a	5.0	GoodResponse	0	0.015	340.678	10	35	Feedback	AvoidedLoss	True
343.118	2.685	Lose2	0.6667000000000001	n/a	Yes	2.685	n/a	n/a	GoodResponse	0	0.0	n/a	10	35	ISIslide	AvoidedLoss	True
345.826	0.25	Control	0.6486	0.0	No	2.674	0.026	n/a	NoResponse	0	n/a	n/a	10	36	Cue	Neutral	False
346.076	4.0	Control	0.6486	0.001	No	2.674	0.0	n/a	NoResponse	0	n/a	n/a	10	36	Fixation	Neutral	False
350.072	0.49	Control	0.6486	0.004	No	2.674	-0.004	n/a	NoResponse	0	n/a	n/a	10	36	Target	Neutral	False
350.573	0.21	Control	0.6486	n/a	No	2.674	n/a	n/a	NoResponse	0	n/a	n/a	10	36	Blank	Neutral	False
350.774	1.45	Control	0.6486	n/a	No	2.674	n/a	5.0	NoResponse	0	0.025	349.799	10	36	Feedback	Neutral	False
352.228	2.674	Control	0.6486	n/a	No	2.674	n/a	n/a	NoResponse	0	0.0	n/a	10	36	ISIslide	Neutral	False
354.92	0.25	Win2	0.6579	0.0	Yes	2.88	0.02	n/a	GoodResponse	1	n/a	n/a	11	37	Cue	Win	True
355.17	4.0	Win2	0.6579	0.0	Yes	2.88	0.0	n/a	GoodResponse	1	n/a	n/a	11	37	Fixation	Win	True
359.166	0.5	Win2	0.6579	0.004	Yes	2.88	-0.004	2.0	GoodResponse	1	0.231	358.397	11	37	Target	Win	True
359.397	0.3	Win2	0.6579	0.004	Yes	2.88	-0.004	2.0	GoodResponse	1	0.231	n/a	11	37	ButtonPress	Win	True
359.667	0.2	Win2	0.6579	n/a	Yes	2.88	n/a	n/a	GoodResponse	1	n/a	n/a	11	37	Blank	Win	True
359.868	1.45	Win2	0.6579	n/a	Yes	2.88	n/a	5.0	GoodResponse	1	0.005	358.873	11	37	Feedback	Win	True
361.322	2.88	Win2	0.6579	n/a	Yes	2.88	n/a	n/a	GoodResponse	1	0.0	n/a	11	37	ISIslide	Win	True
364.214	0.25	Lose2	0.6667000000000001	0.0	Yes	2.836	0.014	n/a	GoodResponse	0	n/a	n/a	11	38	Cue	AvoidedLoss	True
364.465	3.95	Lose2	0.6667000000000001	0.0	Yes	2.836	0.001	n/a	GoodResponse	0	n/a	n/a	11	38	Fixation	AvoidedLoss	True
368.41	0.5	Lose2	0.6667000000000001	0.004	Yes	2.836	-0.004	2.0	GoodResponse	0	0.28	367.69	11	38	Target	AvoidedLoss	True
368.69	0.3	Lose2	0.6667000000000001	0.004	Yes	2.836	-0.004	2.0	GoodResponse	0	0.28	n/a	11	38	ButtonPress	AvoidedLoss	True
368.911	0.2	Lose2	0.6667000000000001	n/a	Yes	2.836	n/a	n/a	GoodResponse	0	n/a	n/a	11	38	Blank	AvoidedLoss	True
369.112	1.45	Lose2	0.6667000000000001	n/a	Yes	2.836	n/a	5.0	GoodResponse	0	0.029	368.141	11	38	Feedback	AvoidedLoss	True
370.566	2.836	Lose2	0.6667000000000001	n/a	Yes	2.836	n/a	n/a	GoodResponse	0	0.0	n/a	11	38	ISIslide	AvoidedLoss	True
373.425	0.25	Win2	0.675	0.0	Yes	2.975	0.025	n/a	GoodResponse	1	n/a	n/a	12	39	Cue	Win	True
373.676	4.1	Win2	0.675	0.0	Yes	2.975	0.001	n/a	GoodResponse	1	n/a	n/a	12	39	Fixation	Win	True
377.771	0.49	Win2	0.675	0.004	Yes	2.975	-0.004	2.0	GoodResponse	1	0.232	377.003	12	39	Target	Win	True
378.003	0.3	Win2	0.675	0.004	Yes	2.975	-0.004	2.0	GoodResponse	1	0.232	n/a	12	39	ButtonPress	Win	True
378.273	0.21	Win2	0.675	n/a	Yes	2.975	n/a	n/a	GoodResponse	1	n/a	n/a	12	39	Blank	Win	True
378.473	1.45	Win2	0.675	n/a	Yes	2.975	n/a	5.0	GoodResponse	1	0.034	377.507	12	39	Feedback	Win	True
379.928	2.975	Win2	0.675	n/a	Yes	2.975	n/a	n/a	GoodResponse	1	0.0	n/a	12	39	ISIslide	Win	True
382.92	0.25	Win2	0.6829000000000001	0.0	Yes	2.73	0.02	n/a	GoodResponse	1	n/a	n/a	13	40	Cue	Win	True
383.171	3.95	Win2	0.6829000000000001	0.0	Yes	2.73	0.001	n/a	GoodResponse	1	n/a	n/a	13	40	Fixation	Win	True
387.116	0.48	Win2	0.6829000000000001	0.004	Yes	2.73	-0.004	2.0	GoodResponse	1	0.227	386.343	13	40	Target	Win	True
387.343	0.3	Win2	0.6829000000000001	0.004	Yes	2.73	-0.004	2.0	GoodResponse	1	0.227	n/a	13	40	ButtonPress	Win	True
387.601	0.22	Win2	0.6829000000000001	n/a	Yes	2.73	n/a	n/a	GoodResponse	1	n/a	n/a	13	40	Blank	Win	True
387.818	1.45	Win2	0.6829000000000001	n/a	Yes	2.73	n/a	5.0	GoodResponse	1	0.006	386.824	13	40	Feedback	Win	True
389.272	2.73	Win2	0.6829000000000001	n/a	Yes	2.73	n/a	n/a	GoodResponse	1	0.0	n/a	13	40	ISIslide	Win	True
392.014	0.25	Win2	0.6905	0.0	Yes	2.786	0.014	n/a	GoodResponse	1	n/a	n/a	14	41	Cue	Win	True
392.265	3.9	Win2	0.6905	0.0	Yes	2.786	0.001	n/a	GoodResponse	1	n/a	n/a	14	41	Fixation	Win	True
396.16	0.47	Win2	0.6905	0.004	Yes	2.786	-0.004	2.0	GoodResponse	1	0.269	395.429	14	41	Target	Win	True
396.429	0.3	Win2	0.6905	0.004	Yes	2.786	-0.004	2.0	GoodResponse	1	0.269	n/a	14	41	ButtonPress	Win	True
396.644	0.23	Win2	0.6905	n/a	Yes	2.786	n/a	n/a	GoodResponse	1	n/a	n/a	14	41	Blank	Win	True
396.862	1.45	Win2	0.6905	n/a	Yes	2.786	n/a	5.0	GoodResponse	1	0.034	395.896	14	41	Feedback	Win	True
398.316	2.786	Win2	0.6905	n/a	Yes	2.786	n/a	n/a	GoodResponse	1	0.0	n/a	14	41	ISIslide	Win	True
401.124	0.25	Control	0.6744	0.0	No	2.926	0.024	n/a	NoResponse	0	n/a	n/a	14	42	Cue	Neutral	False
401.375	3.85	Control	0.6744	0.0	No	2.926	0.001	n/a	NoResponse	0	n/a	n/a	14	42	Fixation	Neutral	False
405.22	0.46	Control	0.6744	0.004	No	2.926	-0.004	n/a	NoResponse	0	n/a	n/a	14	42	Target	Neutral	False
405.688	0.24	Control	0.6744	n/a	No	2.926	n/a	n/a	NoResponse	0	n/a	n/a	14	42	Blank	Neutral	False
405.922	1.45	Control	0.6744	n/a	No	2.926	n/a	5.0	NoResponse	0	0.047	404.969	14	42	Feedback	Neutral	False
407.376	2.926	Control	0.6744	n/a	No	2.926	n/a	n/a	NoResponse	0	0.0	n/a	14	42	ISIslide	Neutral	False
410.319	0.25	Win2	0.6818000000000001	0.0	Yes	3.181	0.019	n/a	GoodResponse	1	n/a	n/a	15	43	Cue	Win	True
410.569	4.0	Win2	0.6818000000000001	0.0	Yes	3.181	0.0	n/a	GoodResponse	1	n/a	n/a	15	43	Fixation	Win	True
414.565	0.45	Win2	0.6818000000000001	0.004	Yes	3.181	-0.004	2.0	GoodResponse	1	0.263	413.828	15	43	Target	Win	True
414.828	0.3	Win2	0.6818000000000001	0.004	Yes	3.181	-0.004	2.0	GoodResponse	1	0.263	n/a	15	43	ButtonPress	Win	True
415.016	0.25	Win2	0.6818000000000001	n/a	Yes	3.181	n/a	n/a	GoodResponse	1	n/a	n/a	15	43	Blank	Win	True
415.267	1.45	Win2	0.6818000000000001	n/a	Yes	3.181	n/a	5.0	GoodResponse	1	0.019	414.286	15	43	Feedback	Win	True
416.721	3.181	Win2	0.6818000000000001	n/a	Yes	3.181	n/a	n/a	GoodResponse	1	0.0	n/a	15	43	ISIslide	Win	True
419.914	0.25	Win2	0.6889	0.0	Yes	2.986	0.014	n/a	GoodResponse	1	n/a	n/a	16	44	Cue	Win	True
420.165	4.0	Win2	0.6889	0.0	Yes	2.986	0.001	n/a	GoodResponse	1	n/a	n/a	16	44	Fixation	Win	True
424.16	0.44	Win2	0.6889	0.004	Yes	2.986	-0.004	2.0	GoodResponse	1	0.235	423.395	16	44	Target	Win	True
424.395	0.3	Win2	0.6889	0.004	Yes	2.986	-0.004	2.0	GoodResponse	1	0.235	n/a	16	44	ButtonPress	Win	True
424.611	0.26	Win2	0.6889	n/a	Yes	2.986	n/a	n/a	GoodResponse	1	n/a	n/a	16	44	Blank	Win	True
424.862	1.45	Win2	0.6889	n/a	Yes	2.986	n/a	5.0	GoodResponse	1	0.034	423.896	16	44	Feedback	Win	True
426.316	2.986	Win2	0.6889	n/a	Yes	2.986	n/a	n/a	GoodResponse	1	0.0	n/a	16	44	ISIslide	Win	True
429.325	0.25	Control	0.6739	0.0	No	2.875	0.025	n/a	NoResponse	0	n/a	n/a	16	45	Cue	Neutral	False
429.576	4.1	Control	0.6739	0.0	No	2.875	0.001	n/a	NoResponse	0	n/a	n/a	16	45	Fixation	Neutral	False
433.672	0.43	Control	0.6739	0.003	No	2.875	-0.003	n/a	NoResponse	0	n/a	n/a	16	45	Target	Neutral	False
434.106	0.27	Control	0.6739	n/a	No	2.875	n/a	n/a	NoResponse	0	n/a	n/a	16	45	Blank	Neutral	False
434.374	1.45	Control	0.6739	n/a	No	2.875	n/a	5.0	NoResponse	0	0.034	433.408	16	45	Feedback	Neutral	False
435.828	2.875	Control	0.6739	n/a	No	2.875	n/a	n/a	NoResponse	0	0.0	n/a	16	45	ISIslide	Neutral	False
438.72	0.25	Lose2	0.6809000000000001	0.0	Yes	3.38	0.02	n/a	GoodResponse	0	n/a	n/a	16	46	Cue	AvoidedLoss	True
438.971	4.0	Lose2	0.6809000000000001	0.0	Yes	3.38	0.001	n/a	GoodResponse	0	n/a	n/a	16	46	Fixation	AvoidedLoss	True
442.966	0.42	Lose2	0.6809000000000001	0.004	Yes	3.38	-0.004	2.0	GoodResponse	0	0.281	442.247	16	46	Target	AvoidedLoss	True
443.247	0.3	Lose2	0.6809000000000001	0.004	Yes	3.38	-0.004	2.0	GoodResponse	0	0.281	n/a	16	46	ButtonPress	AvoidedLoss	True
443.401	0.28	Lose2	0.6809000000000001	n/a	Yes	3.38	n/a	n/a	GoodResponse	0	n/a	n/a	16	46	Blank	AvoidedLoss	True
443.668	1.45	Lose2	0.6809000000000001	n/a	Yes	3.38	n/a	5.0	GoodResponse	0	0.008	442.676	16	46	Feedback	AvoidedLoss	True
445.123	3.38	Lose2	0.6809000000000001	n/a	Yes	3.38	n/a	n/a	GoodResponse	0	0.0	n/a	16	46	ISIslide	AvoidedLoss	True
448.516	0.25	Lose2	0.6875	0.0	Yes	2.684	0.016	n/a	GoodResponse	0	n/a	n/a	16	47	Cue	AvoidedLoss	True
448.767	4.0	Lose2	0.6875	0.0	Yes	2.684	0.001	n/a	GoodResponse	0	n/a	n/a	16	47	Fixation	AvoidedLoss	True
452.762	0.41	Lose2	0.6875	0.004	Yes	2.684	-0.004	2.0	GoodResponse	0	0.23	451.992	16	47	Target	AvoidedLoss	True
452.992	0.3	Lose2	0.6875	0.004	Yes	2.684	-0.004	2.0	GoodResponse	0	0.23	n/a	16	47	ButtonPress	AvoidedLoss	True
453.18	0.29	Lose2	0.6875	n/a	Yes	2.684	n/a	n/a	GoodResponse	0	n/a	n/a	16	47	Blank	AvoidedLoss	True
453.464	1.45	Lose2	0.6875	n/a	Yes	2.684	n/a	5.0	GoodResponse	0	0.017	452.481	16	47	Feedback	AvoidedLoss	True
454.919	2.684	Lose2	0.6875	n/a	Yes	2.684	n/a	n/a	GoodResponse	0	0.0	n/a	16	47	ISIslide	AvoidedLoss	True
457.627	0.25	Lose2	0.6939	0.0	Yes	3.023	0.027	n/a	GoodResponse	0	n/a	n/a	16	48	Cue	AvoidedLoss	True
457.877	3.95	Lose2	0.6939	0.001	Yes	3.023	0.0	n/a	GoodResponse	0	n/a	n/a	16	48	Fixation	AvoidedLoss	True
461.823	0.4	Lose2	0.6939	0.004	Yes	3.023	-0.004	2.0	GoodResponse	0	0.216	461.039	16	48	Target	AvoidedLoss	True
462.039	0.3	Lose2	0.6939	0.004	Yes	3.023	-0.004	2.0	GoodResponse	0	0.216	n/a	16	48	ButtonPress	AvoidedLoss	True
462.224	0.3	Lose2	0.6939	n/a	Yes	3.023	n/a	n/a	GoodResponse	0	n/a	n/a	16	48	Blank	AvoidedLoss	True
462.525	1.45	Lose2	0.6939	n/a	Yes	3.023	n/a	5.0	GoodResponse	0	0.029	461.554	16	48	Feedback	AvoidedLoss	True
463.979	3.023	Lose2	0.6939	n/a	Yes	3.023	n/a	n/a	GoodResponse	0	0.0	n/a	16	48	ISIslide	AvoidedLoss	True
467.021	0.25	Control	0.68	0.001	No	2.879	0.021	n/a	NoResponse	0	n/a	n/a	16	49	Cue	Neutral	False
467.272	4.0	Control	0.68	0.0	No	2.879	0.001	n/a	NoResponse	0	n/a	n/a	16	49	Fixation	Neutral	False
471.267	0.39	Control	0.68	0.004	No	2.879	-0.004	n/a	NoResponse	0	n/a	n/a	16	49	Target	Neutral	False
471.669	0.31	Control	0.68	n/a	No	2.879	n/a	n/a	NoResponse	0	n/a	n/a	16	49	Blank	Neutral	False
471.97	1.45	Control	0.68	n/a	No	2.879	n/a	5.0	NoResponse	0	0.048	471.018	16	49	Feedback	Neutral	False
473.424	2.879	Control	0.68	n/a	No	2.879	n/a	n/a	NoResponse	0	0.0	n/a	16	49	ISIslide	Neutral	False
476.316	0.25	Control	0.6667000000000001	0.0	No	2.784	0.016	n/a	NoResponse	0	n/a	n/a	16	50	Cue	Neutral	False
476.567	4.0	Control	0.6667000000000001	0.0	No	2.784	0.001	n/a	NoResponse	0	n/a	n/a	16	50	Fixation	Neutral	False
480.562	0.38	Control	0.6667000000000001	0.004	No	2.784	-0.004	n/a	NoResponse	0	n/a	n/a	16	50	Target	Neutral	False
480.946	0.32	Control	0.6667000000000001	n/a	No	2.784	n/a	n/a	NoResponse	0	n/a	n/a	16	50	Blank	Neutral	False
481.264	1.45	Control	0.6667000000000001	n/a	No	2.784	n/a	5.0	NoResponse	0	0.021	480.285	16	50	Feedback	Neutral	False
482.718	2.784	Control	0.6667000000000001	n/a	No	2.784	n/a	n/a	NoResponse	0	0.0	n/a	16	50	ISIslide	Neutral	False
485.527	0.25	Control	0.6537999999999999	0.0	No	2.723	0.027	n/a	NoResponse	0	n/a	n/a	16	51	Cue	Neutral	False
485.777	3.95	Control	0.6537999999999999	0.001	No	2.723	0.0	n/a	NoResponse	0	n/a	n/a	16	51	Fixation	Neutral	False
489.723	0.37	Control	0.6537999999999999	0.004	No	2.723	-0.004	n/a	NoResponse	0	n/a	n/a	16	51	Target	Neutral	False
490.107	0.33	Control	0.6537999999999999	n/a	No	2.723	n/a	n/a	NoResponse	0	n/a	n/a	16	51	Blank	Neutral	False
490.425	1.45	Control	0.6537999999999999	n/a	No	2.723	n/a	5.0	NoResponse	0	0.031	489.456	16	51	Feedback	Neutral	False
491.879	2.723	Control	0.6537999999999999	n/a	No	2.723	n/a	n/a	NoResponse	0	0.0	n/a	16	51	ISIslide	Neutral	False
494.621	0.25	Control	0.6415000000000001	0.0	No	2.629	0.021	n/a	NoResponse	0	n/a	n/a	16	52	Cue	Neutral	False
494.871	4.05	Control	0.6415000000000001	0.0	No	2.629	0.0	n/a	NoResponse	0	n/a	n/a	16	52	Fixation	Neutral	False
498.917	0.38	Control	0.6415000000000001	0.004	No	2.629	-0.004	n/a	NoResponse	0	n/a	n/a	16	52	Target	Neutral	False
499.301	0.32	Control	0.6415000000000001	n/a	No	2.629	n/a	n/a	NoResponse	0	n/a	n/a	16	52	Blank	Neutral	False
499.619	1.45	Control	0.6415000000000001	n/a	No	2.629	n/a	5.0	NoResponse	0	0.008	498.627	16	52	Feedback	Neutral	False
501.073	2.629	Control	0.6415000000000001	n/a	No	2.629	n/a	n/a	NoResponse	0	0.0	n/a	16	52	ISIslide	Neutral	False
503.714	0.25	Win2	0.6481	0.001	Yes	2.936	0.014	n/a	GoodResponse	1	n/a	n/a	17	53	Cue	Win	True
503.965	4.05	Win2	0.6481	0.0	Yes	2.936	0.001	n/a	GoodResponse	1	n/a	n/a	17	53	Fixation	Win	True
508.011	0.39	Win2	0.6481	0.003	Yes	2.936	-0.003	2.0	GoodResponse	1	0.251	507.262	17	53	Target	Win	True
508.262	0.3	Win2	0.6481	0.003	Yes	2.936	-0.003	2.0	GoodResponse	1	0.251	n/a	17	53	ButtonPress	Win	True
508.412	0.31	Win2	0.6481	n/a	Yes	2.936	n/a	n/a	GoodResponse	1	n/a	n/a	17	53	Blank	Win	True
508.713	1.45	Win2	0.6481	n/a	Yes	2.936	n/a	5.0	GoodResponse	1	0.036	507.749	17	53	Feedback	Win	True
510.167	2.936	Win2	0.6481	n/a	Yes	2.936	n/a	n/a	GoodResponse	1	0.0	n/a	17	53	ISIslide	Win	True
513.126	0.25	Win2	0.6545000000000001	0.0	Yes	2.724	0.026	n/a	GoodResponse	1	n/a	n/a	18	54	Cue	Win	True
513.377	3.95	Win2	0.6545000000000001	0.0	Yes	2.724	0.001	n/a	GoodResponse	1	n/a	n/a	18	54	Fixation	Win	True
517.322	0.4	Win2	0.6545000000000001	0.004	Yes	2.724	-0.004	2.0	GoodResponse	1	0.261	516.583	18	54	Target	Win	True
517.583	0.3	Win2	0.6545000000000001	0.004	Yes	2.724	-0.004	2.0	GoodResponse	1	0.261	n/a	18	54	ButtonPress	Win	True
517.723	0.3	Win2	0.6545000000000001	n/a	Yes	2.724	n/a	n/a	GoodResponse	1	n/a	n/a	18	54	Blank	Win	True
518.024	1.45	Win2	0.6545000000000001	n/a	Yes	2.724	n/a	5.0	GoodResponse	1	0.041	517.065	18	54	Feedback	Win	True
519.478	2.724	Win2	0.6545000000000001	n/a	Yes	2.724	n/a	n/a	GoodResponse	1	0.0	n/a	18	54	ISIslide	Win	True
522.22	0.25	Control	0.6429	0.0	No	3.03	0.02	n/a	NoResponse	0	n/a	n/a	18	55	Cue	Neutral	False
522.471	3.95	Control	0.6429	0.0	No	3.03	0.001	n/a	NoResponse	0	n/a	n/a	18	55	Fixation	Neutral	False
526.416	0.41	Control	0.6429	0.004	No	3.03	-0.004	n/a	NoResponse	0	n/a	n/a	18	55	Target	Neutral	False
526.834	0.29	Control	0.6429	n/a	No	3.03	n/a	n/a	NoResponse	0	n/a	n/a	18	55	Blank	Neutral	False
527.118	1.45	Control	0.6429	n/a	No	3.03	n/a	5.0	NoResponse	0	0.02	526.138	18	55	Feedback	Neutral	False
528.572	3.03	Control	0.6429	n/a	No	3.03	n/a	n/a	NoResponse	0	0.0	n/a	18	55	ISIslide	Neutral	False
531.615	0.25	Control	0.6315999999999999	0.0	No	2.835	0.015	n/a	NoResponse	0	n/a	n/a	18	56	Cue	Neutral	False
531.865	3.95	Control	0.6315999999999999	0.0	No	2.835	0.0	n/a	NoResponse	0	n/a	n/a	18	56	Fixation	Neutral	False
535.827	0.42	Control	0.6315999999999999	0.0	No	2.835	0.012	n/a	NoResponse	0	n/a	n/a	18	56	Target	Neutral	False
536.245	0.28	Control	0.6315999999999999	n/a	No	2.835	n/a	n/a	NoResponse	0	n/a	n/a	18	56	Blank	Neutral	False
536.513	1.45	Control	0.6315999999999999	n/a	No	2.835	n/a	5.0	NoResponse	0	0.04	535.553	18	56	Feedback	Neutral	False
537.967	2.835	Control	0.6315999999999999	n/a	No	2.835	n/a	n/a	NoResponse	0	0.0	n/a	18	56	ISIslide	Neutral	False
540.825	0.25	Control	0.6207	0.0	No	3.475	0.025	n/a	NoResponse	0	n/a	n/a	18	57	Cue	Neutral	False
541.076	4.0	Control	0.6207	0.0	No	3.475	0.001	n/a	NoResponse	0	n/a	n/a	18	57	Fixation	Neutral	False
545.071	0.43	Control	0.6207	0.004	No	3.475	-0.004	n/a	NoResponse	0	n/a	n/a	18	57	Target	Neutral	False
545.506	0.27	Control	0.6207	n/a	No	3.475	n/a	n/a	NoResponse	0	n/a	n/a	18	57	Blank	Neutral	False
545.774	1.45	Control	0.6207	n/a	No	3.475	n/a	5.0	NoResponse	0	0.047	544.821	18	57	Feedback	Neutral	False
547.228	3.475	Control	0.6207	n/a	No	3.475	n/a	n/a	NoResponse	0	0.0	n/a	18	57	ISIslide	Neutral	False
550.722	0.25	Win2	0.6271	0.0	Yes	2.728	0.022	n/a	GoodResponse	1	n/a	n/a	19	58	Cue	Win	True
550.972	4.05	Win2	0.6271	0.0	Yes	2.728	0.0	n/a	GoodResponse	1	n/a	n/a	19	58	Fixation	Win	True
555.018	0.44	Win2	0.6271	0.004	Yes	2.728	-0.004	2.0	GoodResponse	1	0.215	554.233	19	58	Target	Win	True
555.233	0.3	Win2	0.6271	0.004	Yes	2.728	-0.004	2.0	GoodResponse	1	0.215	n/a	19	58	ButtonPress	Win	True
555.469	0.26	Win2	0.6271	n/a	Yes	2.728	n/a	n/a	GoodResponse	1	n/a	n/a	19	58	Blank	Win	True
555.72	1.45	Win2	0.6271	n/a	Yes	2.728	n/a	5.0	GoodResponse	1	0.004	554.724	19	58	Feedback	Win	True
557.174	2.728	Win2	0.6271	n/a	Yes	2.728	n/a	n/a	GoodResponse	1	0.0	n/a	19	58	ISIslide	Win	True
559.916	0.25	Lose2	0.6333	0.0	Yes	2.684	0.016	n/a	GoodResponse	0	n/a	n/a	19	59	Cue	AvoidedLoss	True
560.167	4.0	Lose2	0.6333	0.0	Yes	2.684	0.001	n/a	GoodResponse	0	n/a	n/a	19	59	Fixation	AvoidedLoss	True
564.162	0.45	Lose2	0.6333	0.004	Yes	2.684	-0.004	2.0	GoodResponse	0	0.275	563.437	19	59	Target	AvoidedLoss	True
564.437	0.3	Lose2	0.6333	0.004	Yes	2.684	-0.004	2.0	GoodResponse	0	0.275	n/a	19	59	ButtonPress	AvoidedLoss	True
564.613	0.25	Lose2	0.6333	n/a	Yes	2.684	n/a	n/a	GoodResponse	0	n/a	n/a	19	59	Blank	AvoidedLoss	True
564.864	1.45	Lose2	0.6333	n/a	Yes	2.684	n/a	5.0	GoodResponse	0	0.03	563.894	19	59	Feedback	AvoidedLoss	True
566.318	2.684	Lose2	0.6333	n/a	Yes	2.684	n/a	n/a	GoodResponse	0	0.0	n/a	19	59	ISIslide	AvoidedLoss	True
569.026	0.25	Control	0.623	0.0	No	2.674	0.026	n/a	NoResponse	0	n/a	n/a	19	60	Cue	Neutral	False
569.277	4.0	Control	0.623	0.0	No	2.674	0.001	n/a	NoResponse	0	n/a	n/a	19	60	Fixation	Neutral	False
573.272	0.46	Control	0.623	0.004	No	2.674	-0.004	n/a	NoResponse	0	n/a	n/a	19	60	Target	Neutral	False
573.741	0.24	Control	0.623	n/a	No	2.674	n/a	n/a	NoResponse	0	n/a	n/a	19	60	Blank	Neutral	False
573.975	1.45	Control	0.623	n/a	No	2.674	n/a	5.0	NoResponse	0	0.041	573.016	19	60	Feedback	Neutral	False
575.429	2.674	Control	0.623	n/a	No	2.674	n/a	n/a	NoResponse	0	0.0	n/a	19	60	ISIslide	Neutral	False
578.12	0.25	Lose2	0.629	0.0	Yes	2.98	0.02	n/a	GoodResponse	0	n/a	n/a	19	61	Cue	AvoidedLoss	True
578.371	4.0	Lose2	0.629	0.0	Yes	2.98	0.001	n/a	GoodResponse	0	n/a	n/a	19	61	Fixation	AvoidedLoss	True
582.366	0.47	Lose2	0.629	0.004	Yes	2.98	-0.004	2.0	GoodResponse	0	0.255	581.621	19	61	Target	AvoidedLoss	True
582.621	0.3	Lose2	0.629	0.004	Yes	2.98	-0.004	2.0	GoodResponse	0	0.255	n/a	19	61	ButtonPress	AvoidedLoss	True
582.851	0.23	Lose2	0.629	n/a	Yes	2.98	n/a	n/a	GoodResponse	0	n/a	n/a	19	61	Blank	AvoidedLoss	True
583.068	1.45	Lose2	0.629	n/a	Yes	2.98	n/a	5.0	GoodResponse	0	0.021	582.089	19	61	Feedback	AvoidedLoss	True
584.523	2.98	Lose2	0.629	n/a	Yes	2.98	n/a	n/a	GoodResponse	0	0.0	n/a	19	61	ISIslide	AvoidedLoss	True
587.515	0.25	Lose2	0.619	0.0	No	2.885	0.015	n/a	NoResponse	-1	n/a	n/a	18	62	Cue	Loss	True
587.766	3.9	Lose2	0.619	0.0	No	2.885	0.001	n/a	NoResponse	-1	n/a	n/a	18	62	Fixation	Loss	True
591.661	0.48	Lose2	0.619	0.004	No	2.885	-0.004	2.0	NoResponse	-1	0.633	591.294	18	62	Target	Loss	True
592.146	0.22	Lose2	0.619	n/a	No	2.885	n/a	n/a	NoResponse	-1	n/a	n/a	18	62	Blank	Loss	True
592.294	0.3	Lose2	0.619	0.004	No	2.885	-0.004	2.0	NoResponse	-1	0.633	n/a	18	62	ButtonPress	Loss	True
592.363	1.45	Lose2	0.619	n/a	No	2.885	n/a	5.0	NoResponse	-1	0.043	591.406	18	62	Feedback	Loss	True
593.817	2.885	Lose2	0.619	n/a	No	2.885	n/a	n/a	NoResponse	-1	0.0	n/a	18	62	ISIslide	Loss	True
596.726	0.25	Lose2	0.625	0.0	Yes	2.624	0.026	n/a	GoodResponse	0	n/a	n/a	18	63	Cue	AvoidedLoss	True
596.977	4.05	Lose2	0.625	0.0	Yes	2.624	0.001	n/a	GoodResponse	0	n/a	n/a	18	63	Fixation	AvoidedLoss	True
601.022	0.49	Lose2	0.625	0.004	Yes	2.624	-0.004	2.0	GoodResponse	0	0.188	600.21	18	63	Target	AvoidedLoss	True
601.21	0.3	Lose2	0.625	0.004	Yes	2.624	-0.004	2.0	GoodResponse	0	0.188	n/a	18	63	ButtonPress	AvoidedLoss	True
601.524	0.21	Lose2	0.625	n/a	Yes	2.624	n/a	n/a	GoodResponse	0	n/a	n/a	18	63	Blank	AvoidedLoss	True
601.724	1.45	Lose2	0.625	n/a	Yes	2.624	n/a	5.0	GoodResponse	0	0.048	600.772	18	63	Feedback	AvoidedLoss	True
603.179	2.624	Lose2	0.625	n/a	Yes	2.624	n/a	n/a	GoodResponse	0	0.0	n/a	18	63	ISIslide	AvoidedLoss	True
605.82	0.25	Win2	0.6308	0.0	Yes	3.13	0.02	n/a	GoodResponse	1	n/a	n/a	19	64	Cue	Win	True
606.07	4.15	Win2	0.6308	0.001	Yes	3.13	0.0	n/a	GoodResponse	1	n/a	n/a	19	64	Fixation	Win	True
610.216	0.5	Win2	0.6308	0.004	Yes	3.13	-0.004	2.0	GoodResponse	1	0.199	609.415	19	64	Target	Win	True
610.415	0.3	Win2	0.6308	0.004	Yes	3.13	-0.004	2.0	GoodResponse	1	0.199	n/a	19	64	ButtonPress	Win	True
610.718	0.2	Win2	0.6308	n/a	Yes	3.13	n/a	n/a	GoodResponse	1	n/a	n/a	19	64	Blank	Win	True
610.918	1.45	Win2	0.6308	n/a	Yes	3.13	n/a	5.0	GoodResponse	1	0.024	609.942	19	64	Feedback	Win	True
612.373	3.13	Win2	0.6308	n/a	Yes	3.13	n/a	n/a	GoodResponse	1	0.0	n/a	19	64	ISIslide	Win	True
615.515	0.25	Control	0.6212	0.0	No	2.785	0.015	n/a	NoResponse	0	n/a	n/a	19	65	Cue	Neutral	False
615.766	4.0	Control	0.6212	0.0	No	2.785	0.001	n/a	NoResponse	0	n/a	n/a	19	65	Fixation	Neutral	False
619.761	0.5	Control	0.6212	0.004	No	2.785	-0.004	n/a	NoResponse	0	n/a	n/a	19	65	Target	Neutral	False
620.263	0.2	Control	0.6212	n/a	No	2.785	n/a	n/a	NoResponse	0	n/a	n/a	19	65	Blank	Neutral	False
620.464	1.45	Control	0.6212	n/a	No	2.785	n/a	5.0	NoResponse	0	0.039	619.503	19	65	Feedback	Neutral	False
621.918	2.785	Control	0.6212	n/a	No	2.785	n/a	n/a	NoResponse	0	0.0	n/a	19	65	ISIslide	Neutral	False
624.726	0.25	Win2	0.6269	0.0	Yes	2.774	0.026	n/a	GoodResponse	1	n/a	n/a	20	66	Cue	Win	True
624.977	3.9	Win2	0.6269	0.0	Yes	2.774	0.001	n/a	GoodResponse	1	n/a	n/a	20	66	Fixation	Win	True
628.872	0.5	Win2	0.6269	0.004	Yes	2.774	-0.004	2.0	GoodResponse	1	0.318	628.19	20	66	Target	Win	True
629.19	0.3	Win2	0.6269	0.004	Yes	2.774	-0.004	2.0	GoodResponse	1	0.318	n/a	20	66	ButtonPress	Win	True
629.374	0.2	Win2	0.6269	n/a	Yes	2.774	n/a	n/a	GoodResponse	1	n/a	n/a	20	66	Blank	Win	True
629.574	1.45	Win2	0.6269	n/a	Yes	2.774	n/a	5.0	GoodResponse	1	0.002	628.576	20	66	Feedback	Win	True
631.028	2.774	Win2	0.6269	n/a	Yes	2.774	n/a	n/a	GoodResponse	1	0.0	n/a	20	66	ISIslide	Win	True
633.82	0.25	Control	0.6175999999999999	0.0	No	2.73	0.02	n/a	NoResponse	0	n/a	n/a	20	67	Cue	Neutral	False
634.071	3.95	Control	0.6175999999999999	0.0	No	2.73	0.001	n/a	NoResponse	0	n/a	n/a	20	67	Fixation	Neutral	False
638.016	0.5	Control	0.6175999999999999	0.004	No	2.73	-0.004	n/a	NoResponse	0	n/a	n/a	20	67	Target	Neutral	False
638.518	0.2	Control	0.6175999999999999	n/a	No	2.73	n/a	n/a	NoResponse	0	n/a	n/a	20	67	Blank	Neutral	False
638.718	1.45	Control	0.6175999999999999	n/a	No	2.73	n/a	5.0	NoResponse	0	0.029	637.747	20	67	Feedback	Neutral	False
640.172	2.73	Control	0.6175999999999999	n/a	No	2.73	n/a	n/a	NoResponse	0	0.0	n/a	20	67	ISIslide	Neutral	False
642.914	0.25	Win2	0.6232	0.0	Yes	3.086	0.014	n/a	GoodResponse	1	n/a	n/a	21	68	Cue	Win	True
643.165	4.0	Win2	0.6232	0.0	Yes	3.086	0.001	n/a	GoodResponse	1	n/a	n/a	21	68	Fixation	Win	True
647.16	0.5	Win2	0.6232	0.004	Yes	3.086	-0.004	2.0	GoodResponse	1	0.237	646.397	21	68	Target	Win	True
647.397	0.3	Win2	0.6232	0.004	Yes	3.086	-0.004	2.0	GoodResponse	1	0.237	n/a	21	68	ButtonPress	Win	True
647.662	0.2	Win2	0.6232	n/a	Yes	3.086	n/a	n/a	GoodResponse	1	n/a	n/a	21	68	Blank	Win	True
647.862	1.45	Win2	0.6232	n/a	Yes	3.086	n/a	5.0	GoodResponse	1	0.006	646.868	21	68	Feedback	Win	True
649.316	3.086	Win2	0.6232	n/a	Yes	3.086	n/a	n/a	GoodResponse	1	0.0	n/a	21	68	ISIslide	Win	True
652.426	0.25	Win2	0.6286	0.0	Yes	3.224	0.026	n/a	GoodResponse	1	n/a	n/a	22	69	Cue	Win	True
652.677	3.95	Win2	0.6286	0.0	Yes	3.224	0.001	n/a	GoodResponse	1	n/a	n/a	22	69	Fixation	Win	True
656.622	0.5	Win2	0.6286	0.004	Yes	3.224	-0.004	2.0	GoodResponse	1	0.201	655.823	22	69	Target	Win	True
656.823	0.3	Win2	0.6286	0.004	Yes	3.224	-0.004	2.0	GoodResponse	1	0.201	n/a	22	69	ButtonPress	Win	True
657.123	0.2	Win2	0.6286	n/a	Yes	3.224	n/a	n/a	GoodResponse	1	n/a	n/a	22	69	Blank	Win	True
657.324	1.45	Win2	0.6286	n/a	Yes	3.224	n/a	5.0	GoodResponse	1	0.008	656.332	22	69	Feedback	Win	True
658.778	3.224	Win2	0.6286	n/a	Yes	3.224	n/a	n/a	GoodResponse	1	0.0	n/a	22	69	ISIslide	Win	True
662.021	0.25	Lose2	0.6338	0.0	Yes	3.029	0.021	n/a	GoodResponse	0	n/a	n/a	22	70	Cue	AvoidedLoss	True
662.272	4.05	Lose2	0.6338	0.0	Yes	3.029	0.001	n/a	GoodResponse	0	n/a	n/a	22	70	Fixation	AvoidedLoss	True
666.317	0.5	Lose2	0.6338	0.004	Yes	3.029	-0.004	2.0	GoodResponse	0	0.304	665.621	22	70	Target	AvoidedLoss	True
666.621	0.3	Lose2	0.6338	0.004	Yes	3.029	-0.004	2.0	GoodResponse	0	0.304	n/a	22	70	ButtonPress	AvoidedLoss	True
666.819	0.2	Lose2	0.6338	n/a	Yes	3.029	n/a	n/a	GoodResponse	0	n/a	n/a	22	70	Blank	AvoidedLoss	True
667.019	1.45	Lose2	0.6338	n/a	Yes	3.029	n/a	5.0	GoodResponse	0	0.02	666.039	22	70	Feedback	AvoidedLoss	True
668.474	3.029	Lose2	0.6338	n/a	Yes	3.029	n/a	n/a	GoodResponse	0	0.0	n/a	22	70	ISIslide	AvoidedLoss	True
671.516	0.25	Win2	0.6389	0.0	Yes	2.734	0.016	n/a	GoodResponse	1	n/a	n/a	23	71	Cue	Win	True
671.767	4.05	Win2	0.6389	0.0	Yes	2.734	0.001	n/a	GoodResponse	1	n/a	n/a	23	71	Fixation	Win	True
675.812	0.5	Win2	0.6389	0.004	Yes	2.734	-0.004	2.0	GoodResponse	1	0.219	675.031	23	71	Target	Win	True
676.031	0.3	Win2	0.6389	0.004	Yes	2.734	-0.004	2.0	GoodResponse	1	0.219	n/a	23	71	ButtonPress	Win	True
676.314	0.2	Win2	0.6389	n/a	Yes	2.734	n/a	n/a	GoodResponse	1	n/a	n/a	23	71	Blank	Win	True
676.514	1.45	Win2	0.6389	n/a	Yes	2.734	n/a	5.0	GoodResponse	1	0.038	675.552	23	71	Feedback	Win	True
677.969	2.734	Win2	0.6389	n/a	Yes	2.734	n/a	n/a	GoodResponse	1	0.0	n/a	23	71	ISIslide	Win	True
680.727	0.25	Win2	0.6437999999999999	0.0	Yes	2.773	0.027	n/a	GoodResponse	1	n/a	n/a	24	72	Cue	Win	True
680.978	4.1	Win2	0.6437999999999999	0.0	Yes	2.773	0.001	n/a	GoodResponse	1	n/a	n/a	24	72	Fixation	Win	True
685.073	0.5	Win2	0.6437999999999999	0.004	Yes	2.773	-0.004	2.0	GoodResponse	1	0.209	684.282	24	72	Target	Win	True
685.282	0.3	Win2	0.6437999999999999	0.004	Yes	2.773	-0.004	2.0	GoodResponse	1	0.209	n/a	24	72	ButtonPress	Win	True
685.575	0.2	Win2	0.6437999999999999	n/a	Yes	2.773	n/a	n/a	GoodResponse	1	n/a	n/a	24	72	Blank	Win	True
685.775	1.45	Win2	0.6437999999999999	n/a	Yes	2.773	n/a	5.0	GoodResponse	1	0.045	684.82	24	72	Feedback	Win	True
687.23	2.773	Win2	0.6437999999999999	n/a	Yes	2.773	n/a	n/a	GoodResponse	1	0.0	n/a	24	72	ISIslide	Win	True
690.022	0.25	Win2	0.6486	0.0	Yes	2.678	0.022	n/a	GoodResponse	1	n/a	n/a	25	73	Cue	Win	True
690.272	4.0	Win2	0.6486	0.0	Yes	2.678	0.0	n/a	GoodResponse	1	n/a	n/a	25	73	Fixation	Win	True
694.268	0.5	Win2	0.6486	0.004	Yes	2.678	-0.004	2.0	GoodResponse	1	0.206	693.474	25	73	Target	Win	True
694.474	0.3	Win2	0.6486	0.004	Yes	2.678	-0.004	2.0	GoodResponse	1	0.206	n/a	25	73	ButtonPress	Win	True
694.769	0.2	Win2	0.6486	n/a	Yes	2.678	n/a	n/a	GoodResponse	1	n/a	n/a	25	73	Blank	Win	True
694.97	1.45	Win2	0.6486	n/a	Yes	2.678	n/a	5.0	GoodResponse	1	0.02	693.99	25	73	Feedback	Win	True
696.424	2.678	Win2	0.6486	n/a	Yes	2.678	n/a	n/a	GoodResponse	1	0.0	n/a	25	73	ISIslide	Win	True
699.115	0.25	Lose2	0.6533	0.0	Yes	2.635	0.015	n/a	GoodResponse	0	n/a	n/a	25	74	Cue	AvoidedLoss	True
699.366	4.05	Lose2	0.6533	0.0	Yes	2.635	0.001	n/a	GoodResponse	0	n/a	n/a	25	74	Fixation	AvoidedLoss	True
703.412	0.5	Lose2	0.6533	0.003	Yes	2.635	-0.003	2.0	GoodResponse	0	0.228	702.64	25	74	Target	AvoidedLoss	True
703.64	0.3	Lose2	0.6533	0.003	Yes	2.635	-0.003	2.0	GoodResponse	0	0.228	n/a	25	74	ButtonPress	AvoidedLoss	True
703.913	0.2	Lose2	0.6533	n/a	Yes	2.635	n/a	n/a	GoodResponse	0	n/a	n/a	25	74	Blank	AvoidedLoss	True
704.114	1.45	Lose2	0.6533	n/a	Yes	2.635	n/a	5.0	GoodResponse	0	0.047	703.161	25	74	Feedback	AvoidedLoss	True
705.568	2.635	Lose2	0.6533	n/a	Yes	2.635	n/a	n/a	GoodResponse	0	0.0	n/a	25	74	ISIslide	AvoidedLoss	True
708.226	0.25	Lose2	0.6579	0.0	Yes	2.924	0.026	n/a	GoodResponse	0	n/a	n/a	25	75	Cue	AvoidedLoss	True
708.477	3.95	Lose2	0.6579	0.0	Yes	2.924	0.001	n/a	GoodResponse	0	n/a	n/a	25	75	Fixation	AvoidedLoss	True
712.422	0.5	Lose2	0.6579	0.004	Yes	2.924	-0.004	2.0	GoodResponse	0	0.299	711.721	25	75	Target	AvoidedLoss	True
712.721	0.3	Lose2	0.6579	0.004	Yes	2.924	-0.004	2.0	GoodResponse	0	0.299	n/a	25	75	ButtonPress	AvoidedLoss	True
712.923	0.2	Lose2	0.6579	n/a	Yes	2.924	n/a	n/a	GoodResponse	0	n/a	n/a	25	75	Blank	AvoidedLoss	True
713.124	1.45	Lose2	0.6579	n/a	Yes	2.924	n/a	5.0	GoodResponse	0	0.012	712.136	25	75	Feedback	AvoidedLoss	True
714.578	2.924	Lose2	0.6579	n/a	Yes	2.924	n/a	n/a	GoodResponse	0	0.0	n/a	25	75	ISIslide	AvoidedLoss	True
717.52	0.25	Control	0.6494	0.0	No	3.23	0.02	n/a	NoResponse	0	n/a	n/a	25	76	Cue	Neutral	False
717.771	4.05	Control	0.6494	0.0	No	3.23	0.001	n/a	NoResponse	0	n/a	n/a	25	76	Fixation	Neutral	False
721.817	0.5	Control	0.6494	0.003	No	3.23	-0.003	n/a	NoResponse	0	n/a	n/a	25	76	Target	Neutral	False
722.318	0.2	Control	0.6494	n/a	No	3.23	n/a	n/a	NoResponse	0	n/a	n/a	25	76	Blank	Neutral	False
722.519	1.45	Control	0.6494	n/a	No	3.23	n/a	5.0	NoResponse	0	0.032	721.551	25	76	Feedback	Neutral	False
723.973	3.23	Control	0.6494	n/a	No	3.23	n/a	n/a	NoResponse	0	0.0	n/a	25	76	ISIslide	Neutral	False
727.216	0.25	Lose2	0.6537999999999999	0.0	Yes	2.584	0.016	n/a	GoodResponse	0	n/a	n/a	25	77	Cue	AvoidedLoss	True
727.467	3.95	Lose2	0.6537999999999999	0.0	Yes	2.584	0.001	n/a	GoodResponse	0	n/a	n/a	25	77	Fixation	AvoidedLoss	True
731.412	0.5	Lose2	0.6537999999999999	0.004	Yes	2.584	-0.004	2.0	GoodResponse	0	0.199	730.611	25	77	Target	AvoidedLoss	True
731.611	0.3	Lose2	0.6537999999999999	0.004	Yes	2.584	-0.004	2.0	GoodResponse	0	0.199	n/a	25	77	ButtonPress	AvoidedLoss	True
731.913	0.2	Lose2	0.6537999999999999	n/a	Yes	2.584	n/a	n/a	GoodResponse	0	n/a	n/a	25	77	Blank	AvoidedLoss	True
732.114	1.45	Lose2	0.6537999999999999	n/a	Yes	2.584	n/a	5.0	GoodResponse	0	0.046	731.16	25	77	Feedback	AvoidedLoss	True
733.568	2.584	Lose2	0.6537999999999999	n/a	Yes	2.584	n/a	n/a	GoodResponse	0	0.0	n/a	25	77	ISIslide	AvoidedLoss	True
