onset	duration	cue_type	current_mean_accuracy	duration_error	is_hit	isi_adjusted	onset_delay	response	response_type	reward	rt	rt_time	total_reward	trial_number	trial_phase	trial_type	one_press
11.101	0.25	Control	1.0	0.0	Yes	2.949	0.001	n/a	GoodResponse	0	n/a	n/a	0	0	Cue	Neutral	True
11.351	3.85	Control	1.0	0.001	Yes	2.949	0.0	n/a	GoodResponse	0	n/a	n/a	0	0	Fixation	Neutral	True
15.213	0.4	Control	1.0	0.0	Yes	2.949	0.012	2.0	GoodResponse	0	0.218	14.431	0	0	Target	Neutral	True
15.431	0.3	Control	1.0	0.0	Yes	2.949	0.012	2.0	GoodResponse	0	0.218	n/a	0	0	ButtonPress	Neutral	True
15.598	0.3	Control	1.0	n/a	Yes	2.949	n/a	n/a	GoodResponse	0	n/a	n/a	0	0	Blank	Neutral	True
15.898	1.45	Control	1.0	n/a	Yes	2.949	n/a	5.0	GoodResponse	0	0.028	14.926	0	0	Feedback	Neutral	True
17.353	2.949	Control	1.0	n/a	Yes	2.949	n/a	n/a	GoodResponse	0	0.0	n/a	0	0	ISIslide	Neutral	True
20.345	0.25	Lose2	1.0	0.0	Yes	2.755	0.045	n/a	GoodResponse	0	n/a	n/a	0	1	Cue	AvoidedLoss	True
20.596	4.0	Lose2	1.0	0.0	Yes	2.755	0.001	n/a	GoodResponse	0	n/a	n/a	0	1	Fixation	AvoidedLoss	True
24.591	0.39	Lose2	1.0	0.004	Yes	2.755	-0.004	2.0	GoodResponse	0	0.203	23.794	0	1	Target	AvoidedLoss	True
24.794	0.3	Lose2	1.0	0.004	Yes	2.755	-0.004	2.0	GoodResponse	0	0.203	n/a	0	1	ButtonPress	AvoidedLoss	True
24.992	0.31	Lose2	1.0	n/a	Yes	2.755	n/a	n/a	GoodResponse	0	n/a	n/a	0	1	Blank	AvoidedLoss	True
25.293	1.45	Lose2	1.0	n/a	Yes	2.755	n/a	5.0	GoodResponse	0	0.047	24.34	0	1	Feedback	AvoidedLoss	True
26.748	2.755	Lose2	1.0	n/a	Yes	2.755	n/a	n/a	GoodResponse	0	0.0	n/a	0	1	ISIslide	AvoidedLoss	True
29.522	0.25	Control	0.6667000000000001	0.001	No	2.578	0.022	n/a	NoResponse	0	n/a	n/a	0	2	Cue	Neutral	False
29.773	4.1	Control	0.6667000000000001	0.0	No	2.578	0.001	2.0	NoResponse	0	3.516	32.289	0	2	Fixation	Neutral	False
33.289	0.3	Control	0.6667000000000001	0.0	No	2.578	0.001	2.0	NoResponse	0	3.516	n/a	0	2	ButtonPress	Neutral	False
33.869	0.38	Control	0.6667000000000001	0.003	No	2.578	-0.003	2.0	NoResponse	0	0.619	33.488	0	2	Target	Neutral	False
34.253	0.32	Control	0.6667000000000001	n/a	No	2.578	n/a	n/a	NoResponse	0	n/a	n/a	0	2	Blank	Neutral	False
34.488	0.3	Control	0.6667000000000001	0.003	No	2.578	-0.003	2.0	NoResponse	0	0.619	n/a	0	2	ButtonPress	Neutral	False
34.571	1.45	Control	0.6667000000000001	n/a	No	2.578	n/a	5.0	NoResponse	0	0.038	33.609	0	2	Feedback	Neutral	False
36.025	2.578	Control	0.6667000000000001	n/a	No	2.578	n/a	n/a	NoResponse	0	0.0	n/a	0	2	ISIslide	Neutral	False
38.683	0.25	Win2	0.75	0.0	Yes	2.767	0.083	n/a	GoodResponse	1	n/a	n/a	1	3	Cue	Win	True
38.934	3.95	Win2	0.75	0.0	Yes	2.767	0.001	n/a	GoodResponse	1	n/a	n/a	1	3	Fixation	Win	True
42.879	0.37	Win2	0.75	0.004	Yes	2.767	-0.004	2.0	GoodResponse	1	0.193	42.072	1	3	Target	Win	True
43.072	0.3	Win2	0.75	0.004	Yes	2.767	-0.004	2.0	GoodResponse	1	0.193	n/a	1	3	ButtonPress	Win	True
43.264	0.33	Win2	0.75	n/a	Yes	2.767	n/a	n/a	GoodResponse	1	n/a	n/a	1	3	Blank	Win	True
43.581	1.45	Win2	0.75	n/a	Yes	2.767	n/a	5.0	GoodResponse	1	0.008	42.589	1	3	Feedback	Win	True
45.036	2.767	Win2	0.75	n/a	Yes	2.767	n/a	n/a	GoodResponse	1	0.0	n/a	1	3	ISIslide	Win	True
47.827	0.25	Win2	0.8	0.0	Yes	3.273	0.027	n/a	GoodResponse	1	n/a	n/a	2	4	Cue	Win	True
48.078	4.0	Win2	0.8	0.0	Yes	3.273	0.001	n/a	GoodResponse	1	n/a	n/a	2	4	Fixation	Win	True
52.073	0.36	Win2	0.8	0.004	Yes	3.273	-0.004	2.0	GoodResponse	1	0.174	51.247	2	4	Target	Win	True
52.247	0.3	Win2	0.8	0.004	Yes	3.273	-0.004	2.0	GoodResponse	1	0.174	n/a	2	4	ButtonPress	Win	True
52.441	0.34	Win2	0.8	n/a	Yes	3.273	n/a	n/a	GoodResponse	1	n/a	n/a	2	4	Blank	Win	True
52.775	1.45	Win2	0.8	n/a	Yes	3.273	n/a	5.0	GoodResponse	1	0.029	51.804	2	4	Feedback	Win	True
54.23	3.273	Win2	0.8	n/a	Yes	3.273	n/a	n/a	GoodResponse	1	0.0	n/a	2	4	ISIslide	Win	True
57.523	0.25	Win2	0.8332999999999999	0.0	Yes	2.777	0.023	n/a	GoodResponse	1	n/a	n/a	3	5	Cue	Win	True
57.774	4.0	Win2	0.8332999999999999	0.0	Yes	2.777	0.001	n/a	GoodResponse	1	n/a	n/a	3	5	Fixation	Win	True
61.769	0.35	Win2	0.8332999999999999	0.004	Yes	2.777	-0.004	2.0	GoodResponse	1	0.242	61.011	3	5	Target	Win	True
62.011	0.3	Win2	0.8332999999999999	0.004	Yes	2.777	-0.004	2.0	GoodResponse	1	0.242	n/a	3	5	ButtonPress	Win	True
62.12	0.35	Win2	0.8332999999999999	n/a	Yes	2.777	n/a	n/a	GoodResponse	1	n/a	n/a	3	5	Blank	Win	True
62.471	1.45	Win2	0.8332999999999999	n/a	Yes	2.777	n/a	5.0	GoodResponse	1	0.039	61.51	3	5	Feedback	Win	True
63.925	2.777	Win2	0.8332999999999999	n/a	Yes	2.777	n/a	n/a	GoodResponse	1	0.0	n/a	3	5	ISIslide	Win	True
66.717	0.25	Lose2	0.8571	0.0	Yes	2.733	0.017	n/a	GoodResponse	0	n/a	n/a	3	6	Cue	AvoidedLoss	True
66.968	3.95	Lose2	0.8571	0.0	Yes	2.733	0.001	n/a	GoodResponse	0	n/a	n/a	3	6	Fixation	AvoidedLoss	True
70.913	0.34	Lose2	0.8571	0.004	Yes	2.733	-0.004	2.0	GoodResponse	0	0.193	70.106	3	6	Target	AvoidedLoss	True
71.106	0.3	Lose2	0.8571	0.004	Yes	2.733	-0.004	2.0	GoodResponse	0	0.193	n/a	3	6	ButtonPress	AvoidedLoss	True
71.264	0.36	Lose2	0.8571	n/a	Yes	2.733	n/a	n/a	GoodResponse	0	n/a	n/a	3	6	Blank	AvoidedLoss	True
71.615	1.45	Lose2	0.8571	n/a	Yes	2.733	n/a	5.0	GoodResponse	0	0.017	70.632	3	6	Feedback	AvoidedLoss	True
73.069	2.733	Lose2	0.8571	n/a	Yes	2.733	n/a	n/a	GoodResponse	0	0.0	n/a	3	6	ISIslide	AvoidedLoss	True
75.828	0.25	Lose2	0.875	0.0	Yes	4.022	0.028	n/a	GoodResponse	0	n/a	n/a	3	7	Cue	AvoidedLoss	True
76.078	4.05	Lose2	0.875	0.0	Yes	4.022	0.0	n/a	GoodResponse	0	n/a	n/a	3	7	Fixation	AvoidedLoss	True
80.124	0.33	Lose2	0.875	0.004	Yes	4.022	-0.004	2.0	GoodResponse	0	0.254	79.378	3	7	Target	AvoidedLoss	True
80.378	0.3	Lose2	0.875	0.004	Yes	4.022	-0.004	2.0	GoodResponse	0	0.254	n/a	3	7	ButtonPress	AvoidedLoss	True
80.458	0.37	Lose2	0.875	n/a	Yes	4.022	n/a	n/a	GoodResponse	0	n/a	n/a	3	7	Blank	AvoidedLoss	True
80.826	1.45	Lose2	0.875	n/a	Yes	4.022	n/a	5.0	GoodResponse	0	0.026	79.852	3	7	Feedback	AvoidedLoss	True
82.28	4.022	Lose2	0.875	n/a	Yes	4.022	n/a	n/a	GoodResponse	0	0.0	n/a	3	7	ISIslide	AvoidedLoss	True
86.326	0.25	Lose2	0.8889	0.0	Yes	3.024	0.026	n/a	GoodResponse	0	n/a	n/a	3	8	Cue	AvoidedLoss	True
86.576	3.95	Lose2	0.8889	0.0	Yes	3.024	0.0	n/a	GoodResponse	0	n/a	n/a	3	8	Fixation	AvoidedLoss	True
90.522	0.32	Lose2	0.8889	0.004	Yes	3.024	-0.004	2.0	GoodResponse	0	0.24	89.762	3	8	Target	AvoidedLoss	True
90.762	0.3	Lose2	0.8889	0.004	Yes	3.024	-0.004	2.0	GoodResponse	0	0.24	n/a	3	8	ButtonPress	AvoidedLoss	True
90.856	0.38	Lose2	0.8889	n/a	Yes	3.024	n/a	n/a	GoodResponse	0	n/a	n/a	3	8	Blank	AvoidedLoss	True
91.224	1.45	Lose2	0.8889	n/a	Yes	3.024	n/a	5.0	GoodResponse	0	0.018	90.242	3	8	Feedback	AvoidedLoss	True
92.678	3.024	Lose2	0.8889	n/a	Yes	3.024	n/a	n/a	GoodResponse	0	0.0	n/a	3	8	ISIslide	AvoidedLoss	True
95.72	0.25	Lose2	0.9	0.0	Yes	3.13	0.02	n/a	GoodResponse	0	n/a	n/a	3	9	Cue	AvoidedLoss	True
95.971	3.95	Lose2	0.9	0.0	Yes	3.13	0.001	n/a	GoodResponse	0	n/a	n/a	3	9	Fixation	AvoidedLoss	True
99.916	0.31	Lose2	0.9	0.004	Yes	3.13	-0.004	2.0	GoodResponse	0	0.173	99.089	3	9	Target	AvoidedLoss	True
100.089	0.3	Lose2	0.9	0.004	Yes	3.13	-0.004	2.0	GoodResponse	0	0.173	n/a	3	9	ButtonPress	AvoidedLoss	True
100.234	0.39	Lose2	0.9	n/a	Yes	3.13	n/a	n/a	GoodResponse	0	n/a	n/a	3	9	Blank	AvoidedLoss	True
100.618	1.45	Lose2	0.9	n/a	Yes	3.13	n/a	5.0	GoodResponse	0	0.038	99.656	3	9	Feedback	AvoidedLoss	True
102.073	3.13	Lose2	0.9	n/a	Yes	3.13	n/a	n/a	GoodResponse	0	0.0	n/a	3	9	ISIslide	AvoidedLoss	True
105.215	0.25	Control	0.9091	0.001	Yes	3.285	0.015	n/a	GoodResponse	0	n/a	n/a	3	10	Cue	Neutral	True
105.466	4.0	Control	0.9091	0.0	Yes	3.285	0.001	n/a	GoodResponse	0	n/a	n/a	3	10	Fixation	Neutral	True
109.462	0.3	Control	0.9091	0.003	Yes	3.285	-0.003	2.0	GoodResponse	0	0.221	108.683	3	10	Target	Neutral	True
109.683	0.3	Control	0.9091	0.003	Yes	3.285	-0.003	2.0	GoodResponse	0	0.221	n/a	3	10	ButtonPress	Neutral	True
109.762	0.4	Control	0.9091	n/a	Yes	3.285	n/a	n/a	GoodResponse	0	n/a	n/a	3	10	Blank	Neutral	True
110.164	1.45	Control	0.9091	n/a	Yes	3.285	n/a	5.0	GoodResponse	0	0.006	109.17	3	10	Feedback	Neutral	True
111.618	3.285	Control	0.9091	n/a	Yes	3.285	n/a	n/a	GoodResponse	0	0.0	n/a	3	10	ISIslide	Neutral	True
114.928	0.25	Lose2	0.9167000000000001	0.0	Yes	2.722	0.028	n/a	GoodResponse	0	n/a	n/a	3	11	Cue	AvoidedLoss	True
115.179	4.05	Lose2	0.9167000000000001	0.0	Yes	2.722	0.001	n/a	GoodResponse	0	n/a	n/a	3	11	Fixation	AvoidedLoss	True
119.224	0.29	Lose2	0.9167000000000001	0.004	Yes	2.722	-0.004	2.0	GoodResponse	0	0.226	118.45	3	11	Target	AvoidedLoss	True
119.45	0.3	Lose2	0.9167000000000001	0.004	Yes	2.722	-0.004	2.0	GoodResponse	0	0.226	n/a	3	11	ButtonPress	AvoidedLoss	True
119.525	0.41	Lose2	0.9167000000000001	n/a	Yes	2.722	n/a	n/a	GoodResponse	0	n/a	n/a	3	11	Blank	AvoidedLoss	True
119.926	1.45	Lose2	0.9167000000000001	n/a	Yes	2.722	n/a	5.0	GoodResponse	0	0.047	118.973	3	11	Feedback	AvoidedLoss	True
121.38	2.722	Lose2	0.9167000000000001	n/a	Yes	2.722	n/a	n/a	GoodResponse	0	0.0	n/a	3	11	ISIslide	AvoidedLoss	True
124.122	0.25	Control	0.9231	0.0	Yes	2.978	0.022	n/a	GoodResponse	0	n/a	n/a	3	12	Cue	Neutral	True
124.373	3.9	Control	0.9231	0.0	Yes	2.978	0.001	n/a	GoodResponse	0	n/a	n/a	3	12	Fixation	Neutral	True
128.268	0.28	Control	0.9231	0.004	Yes	2.978	-0.004	2.0	GoodResponse	0	0.212	127.48	3	12	Target	Neutral	True
128.48	0.3	Control	0.9231	0.004	Yes	2.978	-0.004	2.0	GoodResponse	0	0.212	n/a	3	12	ButtonPress	Neutral	True
128.552	0.42	Control	0.9231	n/a	Yes	2.978	n/a	n/a	GoodResponse	0	n/a	n/a	3	12	Blank	Neutral	True
128.97	1.45	Control	0.9231	n/a	Yes	2.978	n/a	5.0	GoodResponse	0	0.028	127.998	3	12	Feedback	Neutral	True
130.424	2.978	Control	0.9231	n/a	Yes	2.978	n/a	n/a	GoodResponse	0	0.0	n/a	3	12	ISIslide	Neutral	True
133.416	0.25	Control	0.9286	0.001	Yes	2.784	0.016	n/a	GoodResponse	0	n/a	n/a	3	13	Cue	Neutral	True
133.667	4.0	Control	0.9286	0.0	Yes	2.784	0.001	n/a	GoodResponse	0	n/a	n/a	3	13	Fixation	Neutral	True
137.662	0.27	Control	0.9286	0.004	Yes	2.784	-0.004	2.0	GoodResponse	0	0.186	136.848	3	13	Target	Neutral	True
137.848	0.3	Control	0.9286	0.004	Yes	2.784	-0.004	2.0	GoodResponse	0	0.186	n/a	3	13	ButtonPress	Neutral	True
137.947	0.43	Control	0.9286	n/a	Yes	2.784	n/a	n/a	GoodResponse	0	n/a	n/a	3	13	Blank	Neutral	True
138.365	1.45	Control	0.9286	n/a	Yes	2.784	n/a	5.0	GoodResponse	0	0.048	137.413	3	13	Feedback	Neutral	True
139.819	2.784	Control	0.9286	n/a	Yes	2.784	n/a	n/a	GoodResponse	0	0.0	n/a	3	13	ISIslide	Neutral	True
142.627	0.25	Win2	0.9333	0.0	Yes	2.673	0.027	n/a	GoodResponse	1	n/a	n/a	4	14	Cue	Win	True
142.878	4.1	Win2	0.9333	0.0	Yes	2.673	0.001	n/a	GoodResponse	1	n/a	n/a	4	14	Fixation	Win	True
146.974	0.26	Win2	0.9333	0.003	Yes	2.673	-0.003	2.0	GoodResponse	1	0.213	146.187	4	14	Target	Win	True
147.187	0.3	Win2	0.9333	0.003	Yes	2.673	-0.003	2.0	GoodResponse	1	0.213	n/a	4	14	ButtonPress	Win	True
147.241	0.44	Win2	0.9333	n/a	Yes	2.673	n/a	n/a	GoodResponse	1	n/a	n/a	4	14	Blank	Win	True
147.676	1.45	Win2	0.9333	n/a	Yes	2.673	n/a	5.0	GoodResponse	1	0.007	146.683	4	14	Feedback	Win	True
149.13	2.673	Win2	0.9333	n/a	Yes	2.673	n/a	n/a	GoodResponse	1	0.0	n/a	4	14	ISIslide	Win	True
151.821	0.25	Control	0.9375	0.001	Yes	2.979	0.021	n/a	GoodResponse	0	n/a	n/a	4	15	Cue	Neutral	True
152.072	4.0	Control	0.9375	0.0	Yes	2.979	0.001	n/a	GoodResponse	0	n/a	n/a	4	15	Fixation	Neutral	True
156.068	0.25	Control	0.9375	0.003	Yes	2.979	-0.003	2.0	GoodResponse	0	0.229	155.297	4	15	Target	Neutral	True
156.297	0.3	Control	0.9375	0.003	Yes	2.979	-0.003	2.0	GoodResponse	0	0.229	n/a	4	15	ButtonPress	Neutral	True
156.318	0.45	Control	0.9375	n/a	Yes	2.979	n/a	n/a	GoodResponse	0	n/a	n/a	4	15	Blank	Neutral	True
156.77	1.45	Control	0.9375	n/a	Yes	2.979	n/a	5.0	GoodResponse	0	0.032	155.802	4	15	Feedback	Neutral	True
158.224	2.979	Control	0.9375	n/a	Yes	2.979	n/a	n/a	GoodResponse	0	0.0	n/a	4	15	ISIslide	Neutral	True
161.216	0.25	Win2	0.8824	0.0	No	2.884	0.016	n/a	LatePress	0	n/a	n/a	4	16	Cue	MissedWin	True
161.467	4.0	Win2	0.8824	0.0	No	2.884	0.001	n/a	LatePress	0	n/a	n/a	4	16	Fixation	MissedWin	True
165.462	0.24	Win2	0.8824	0.004	No	2.884	-0.004	2.0	LatePress	0	0.244	164.706	4	16	Target	MissedWin	True
165.706	0.3	Win2	0.8824	0.004	No	2.884	-0.004	2.0	LatePress	0	0.244	n/a	4	16	ButtonPress	MissedWin	True
165.713	0.46	Win2	0.8824	n/a	No	2.884	n/a	n/a	LatePress	0	n/a	n/a	4	16	Blank	MissedWin	True
166.164	1.45	Win2	0.8824	n/a	No	2.884	n/a	5.0	LatePress	0	0.008	165.172	4	16	Feedback	MissedWin	True
167.619	2.884	Win2	0.8824	n/a	No	2.884	n/a	n/a	LatePress	0	0.0	n/a	4	16	ISIslide	MissedWin	True
170.527	0.25	Lose2	0.8332999999999999	0.0	No	2.723	0.027	n/a	NoResponse	-1	n/a	n/a	3	17	Cue	Loss	True
170.778	3.95	Lose2	0.8332999999999999	0.0	No	2.723	0.001	n/a	NoResponse	-1	n/a	n/a	3	17	Fixation	Loss	True
174.723	0.23	Lose2	0.8332999999999999	0.004	No	2.723	-0.004	2.0	NoResponse	-1	0.243	173.966	3	17	Target	Loss	True
174.957	0.47	Lose2	0.8332999999999999	n/a	No	2.723	n/a	n/a	NoResponse	-1	n/a	n/a	3	17	Blank	Loss	True
174.966	0.3	Lose2	0.8332999999999999	0.004	No	2.723	-0.004	2.0	NoResponse	-1	0.243	n/a	3	17	ButtonPress	Loss	True
175.425	1.45	Lose2	0.8332999999999999	n/a	No	2.723	n/a	5.0	NoResponse	-1	0.011	174.436	3	17	Feedback	Loss	True
176.88	2.723	Lose2	0.8332999999999999	n/a	No	2.723	n/a	n/a	NoResponse	-1	0.0	n/a	3	17	ISIslide	Loss	True
179.621	0.25	Lose2	0.7895	0.0	No	2.729	0.021	n/a	NoResponse	-1	n/a	n/a	2	18	Cue	Loss	True
179.872	4.05	Lose2	0.7895	0.0	No	2.729	0.001	n/a	NoResponse	-1	n/a	n/a	2	18	Fixation	Loss	True
183.917	0.22	Lose2	0.7895	0.004	No	2.729	-0.004	2.0	NoResponse	-1	0.242	183.159	2	18	Target	Loss	True
184.151	0.48	Lose2	0.7895	n/a	No	2.729	n/a	n/a	NoResponse	-1	n/a	n/a	2	18	Blank	Loss	True
184.159	0.3	Lose2	0.7895	0.004	No	2.729	-0.004	2.0	NoResponse	-1	0.242	n/a	2	18	ButtonPress	Loss	True
184.62	1.45	Lose2	0.7895	n/a	No	2.729	n/a	5.0	NoResponse	-1	0.036	183.656	2	18	Feedback	Loss	True
186.074	2.729	Lose2	0.7895	n/a	No	2.729	n/a	n/a	NoResponse	-1	0.0	n/a	2	18	ISIslide	Loss	True
188.815	0.25	Control	0.75	0.0	No	2.935	0.015	n/a	NoResponse	0	n/a	n/a	2	19	Cue	Neutral	True
189.066	3.95	Control	0.75	0.0	No	2.935	0.001	n/a	NoResponse	0	n/a	n/a	2	19	Fixation	Neutral	True
193.011	0.21	Control	0.75	0.004	No	2.935	-0.004	2.0	NoResponse	0	0.225	192.236	2	19	Target	Neutral	True
193.229	0.49	Control	0.75	n/a	No	2.935	n/a	n/a	NoResponse	0	n/a	n/a	2	19	Blank	Neutral	True
193.236	0.3	Control	0.75	0.004	No	2.935	-0.004	2.0	NoResponse	0	0.225	n/a	2	19	ButtonPress	Neutral	True
193.713	1.45	Control	0.75	n/a	No	2.935	n/a	5.0	NoResponse	0	0.015	192.728	2	19	Feedback	Neutral	True
195.168	2.935	Control	0.75	n/a	No	2.935	n/a	n/a	NoResponse	0	0.0	n/a	2	19	ISIslide	Neutral	True
198.127	0.25	Control	0.7143	0.0	No	2.623	0.027	n/a	NoResponse	0	n/a	n/a	2	20	Cue	Neutral	True
198.377	4.05	Control	0.7143	0.0	No	2.623	0.0	n/a	NoResponse	0	n/a	n/a	2	20	Fixation	Neutral	True
202.423	0.2	Control	0.7143	0.004	No	2.623	-0.004	2.0	NoResponse	0	0.221	201.644	2	20	Target	Neutral	True
202.623	0.5	Control	0.7143	n/a	No	2.623	n/a	n/a	NoResponse	0	n/a	n/a	2	20	Blank	Neutral	True
202.644	0.3	Control	0.7143	0.004	No	2.623	-0.004	2.0	NoResponse	0	0.221	n/a	2	20	ButtonPress	Neutral	True
203.125	1.45	Control	0.7143	n/a	No	2.623	n/a	5.0	NoResponse	0	0.018	202.143	2	20	Feedback	Neutral	True
204.579	2.623	Control	0.7143	n/a	No	2.623	n/a	n/a	NoResponse	0	0.0	n/a	2	20	ISIslide	Neutral	True
207.22	0.25	Control	0.7273000000000001	0.001	Yes	2.78	0.02	n/a	GoodResponse	0	n/a	n/a	2	21	Cue	Neutral	True
207.471	4.1	Control	0.7273000000000001	0.0	Yes	2.78	0.001	n/a	GoodResponse	0	n/a	n/a	2	21	Fixation	Neutral	True
211.567	0.19	Control	0.7273000000000001	0.003	Yes	2.78	-0.003	2.0	GoodResponse	0	0.152	210.719	2	21	Target	Neutral	True
211.719	0.3	Control	0.7273000000000001	0.003	Yes	2.78	-0.003	2.0	GoodResponse	0	0.152	n/a	2	21	ButtonPress	Neutral	True
211.767	0.51	Control	0.7273000000000001	n/a	Yes	2.78	n/a	n/a	GoodResponse	0	n/a	n/a	2	21	Blank	Neutral	True
212.269	1.45	Control	0.7273000000000001	n/a	Yes	2.78	n/a	5.0	GoodResponse	0	0.045	211.314	2	21	Feedback	Neutral	True
213.723	2.78	Control	0.7273000000000001	n/a	Yes	2.78	n/a	n/a	GoodResponse	0	0.0	n/a	2	21	ISIslide	Neutral	True
216.515	0.25	Control	0.6957	0.0	No	2.785	0.015	n/a	NoResponse	0	n/a	n/a	2	22	Cue	Neutral	True
216.766	4.0	Control	0.6957	0.0	No	2.785	0.001	n/a	NoResponse	0	n/a	n/a	2	22	Fixation	Neutral	True
220.761	0.18	Control	0.6957	0.004	No	2.785	-0.004	2.0	NoResponse	0	0.341	220.102	2	22	Target	Neutral	True
220.945	0.52	Control	0.6957	n/a	No	2.785	n/a	n/a	NoResponse	0	n/a	n/a	2	22	Blank	Neutral	True
221.102	0.3	Control	0.6957	0.004	No	2.785	-0.004	2.0	NoResponse	0	0.341	n/a	2	22	ButtonPress	Neutral	True
221.463	1.45	Control	0.6957	n/a	No	2.785	n/a	5.0	NoResponse	0	0.022	220.485	2	22	Feedback	Neutral	True
222.917	2.785	Control	0.6957	n/a	No	2.785	n/a	n/a	NoResponse	0	0.0	n/a	2	22	ISIslide	Neutral	True
225.726	0.25	Control	0.6667000000000001	0.0	No	2.774	0.026	n/a	NoResponse	0	n/a	n/a	2	23	Cue	Neutral	True
225.977	3.9	Control	0.6667000000000001	0.0	No	2.774	0.001	n/a	NoResponse	0	n/a	n/a	2	23	Fixation	Neutral	True
229.872	0.17	Control	0.6667000000000001	0.004	No	2.774	-0.004	2.0	NoResponse	0	0.215	229.087	2	23	Target	Neutral	True
230.055	0.53	Control	0.6667000000000001	n/a	No	2.774	n/a	n/a	NoResponse	0	n/a	n/a	2	23	Blank	Neutral	True
230.087	0.3	Control	0.6667000000000001	0.004	No	2.774	-0.004	2.0	NoResponse	0	0.215	n/a	2	23	ButtonPress	Neutral	True
230.574	1.45	Control	0.6667000000000001	n/a	No	2.774	n/a	5.0	NoResponse	0	0.032	229.606	2	23	Feedback	Neutral	True
232.028	2.774	Control	0.6667000000000001	n/a	No	2.774	n/a	n/a	NoResponse	0	0.0	n/a	2	23	ISIslide	Neutral	True
234.82	0.25	Win2	0.64	0.0	No	3.13	0.02	n/a	NoResponse	0	n/a	n/a	2	24	Cue	MissedWin	True
235.07	3.95	Win2	0.64	0.0	No	3.13	0.0	2.0	NoResponse	0	3.779	237.849	2	24	Fixation	MissedWin	True
238.849	0.3	Win2	0.64	0.0	No	3.13	0.0	2.0	NoResponse	0	3.779	n/a	2	24	ButtonPress	MissedWin	True
239.016	0.16	Win2	0.64	0.004	No	3.13	-0.004	n/a	NoResponse	0	n/a	n/a	2	24	Target	MissedWin	True
239.183	0.54	Win2	0.64	n/a	No	3.13	n/a	n/a	NoResponse	0	n/a	n/a	2	24	Blank	MissedWin	True
239.718	1.45	Win2	0.64	n/a	No	3.13	n/a	5.0	NoResponse	0	0.01	238.728	2	24	Feedback	MissedWin	True
241.172	3.13	Win2	0.64	n/a	No	3.13	n/a	n/a	NoResponse	0	0.0	n/a	2	24	ISIslide	MissedWin	True
244.331	0.25	Win2	0.6154	0.0	No	3.069	0.031	n/a	NoResponse	0	n/a	n/a	2	25	Cue	MissedWin	True
244.582	4.0	Win2	0.6154	0.0	No	3.069	0.001	n/a	NoResponse	0	n/a	n/a	2	25	Fixation	MissedWin	True
248.577	0.17	Win2	0.6154	0.004	No	3.069	-0.004	2.0	NoResponse	0	0.207	247.784	2	25	Target	MissedWin	True
248.761	0.53	Win2	0.6154	n/a	No	3.069	n/a	n/a	NoResponse	0	n/a	n/a	2	25	Blank	MissedWin	True
248.784	0.3	Win2	0.6154	0.004	No	3.069	-0.004	2.0	NoResponse	0	0.207	n/a	2	25	ButtonPress	MissedWin	True
249.28	1.45	Win2	0.6154	n/a	No	3.069	n/a	5.0	NoResponse	0	0.009	248.289	2	25	Feedback	MissedWin	True
250.734	3.069	Win2	0.6154	n/a	No	3.069	n/a	n/a	NoResponse	0	0.0	n/a	2	25	ISIslide	MissedWin	True
253.826	0.25	Win2	0.5926	0.001	No	2.924	0.026	n/a	PrematurePress	0	n/a	n/a	2	26	Cue	MissedWin	True
254.077	3.95	Win2	0.5926	0.0	No	2.924	0.001	n/a	PrematurePress	0	n/a	n/a	2	26	Fixation	MissedWin	True
258.022	0.18	Win2	0.5926	0.004	No	2.924	-0.004	2.0	PrematurePress	0	0.038	257.06	2	26	Target	MissedWin	True
258.06	0.3	Win2	0.5926	0.004	No	2.924	-0.004	2.0	PrematurePress	0	0.038	n/a	2	26	ButtonPress	MissedWin	True
258.206	0.52	Win2	0.5926	n/a	No	2.924	n/a	n/a	PrematurePress	0	n/a	n/a	2	26	Blank	MissedWin	True
258.724	1.45	Win2	0.5926	n/a	No	2.924	n/a	5.0	PrematurePress	0	0.028	257.752	2	26	Feedback	MissedWin	True
260.179	2.924	Win2	0.5926	n/a	No	2.924	n/a	n/a	PrematurePress	0	0.0	n/a	2	26	ISIslide	MissedWin	True
263.121	0.25	Lose2	0.6071	0.0	Yes	2.829	0.021	n/a	GoodResponse	0	n/a	n/a	2	27	Cue	AvoidedLoss	True
263.372	4.05	Lose2	0.6071	0.0	Yes	2.829	0.001	n/a	GoodResponse	0	n/a	n/a	2	27	Fixation	AvoidedLoss	True
267.417	0.19	Lose2	0.6071	0.004	Yes	2.829	-0.004	2.0	GoodResponse	0	0.169	266.586	2	27	Target	AvoidedLoss	True
267.586	0.3	Lose2	0.6071	0.004	Yes	2.829	-0.004	2.0	GoodResponse	0	0.169	n/a	2	27	ButtonPress	AvoidedLoss	True
267.618	0.51	Lose2	0.6071	n/a	Yes	2.829	n/a	n/a	GoodResponse	0	n/a	n/a	2	27	Blank	AvoidedLoss	True
268.119	1.45	Lose2	0.6071	n/a	Yes	2.829	n/a	5.0	GoodResponse	0	0.048	267.167	2	27	Feedback	AvoidedLoss	True
269.574	2.829	Lose2	0.6071	n/a	Yes	2.829	n/a	n/a	GoodResponse	0	0.0	n/a	2	27	ISIslide	AvoidedLoss	True
272.415	0.25	Control	0.5861999999999999	0.001	No	2.835	0.015	n/a	NoResponse	0	n/a	n/a	2	28	Cue	Neutral	True
272.666	4.05	Control	0.5861999999999999	0.0	No	2.835	0.001	n/a	NoResponse	0	n/a	n/a	2	28	Fixation	Neutral	True
276.712	0.2	Control	0.5861999999999999	0.003	No	2.835	-0.003	2.0	NoResponse	0	0.223	275.935	2	28	Target	Neutral	True
276.912	0.5	Control	0.5861999999999999	n/a	No	2.835	n/a	n/a	NoResponse	0	n/a	n/a	2	28	Blank	Neutral	True
276.935	0.3	Control	0.5861999999999999	0.003	No	2.835	-0.003	2.0	NoResponse	0	0.223	n/a	2	28	ButtonPress	Neutral	True
277.414	1.45	Control	0.5861999999999999	n/a	No	2.835	n/a	5.0	NoResponse	0	0.02	276.434	2	28	Feedback	Neutral	True
278.868	2.835	Control	0.5861999999999999	n/a	No	2.835	n/a	n/a	NoResponse	0	0.0	n/a	2	28	ISIslide	Neutral	True
281.727	0.25	Lose2	0.5667	0.0	No	2.823	0.027	n/a	NoResponse	-1	n/a	n/a	1	29	Cue	Loss	True
281.977	3.95	Lose2	0.5667	0.0	No	2.823	0.0	n/a	NoResponse	-1	n/a	n/a	1	29	Fixation	Loss	True
285.939	0.21	Lose2	0.5667	0.0	No	2.823	0.012	2.0	NoResponse	-1	0.26	285.199	1	29	Target	Loss	True
286.14	0.49	Lose2	0.5667	n/a	No	2.823	n/a	n/a	NoResponse	-1	n/a	n/a	1	29	Blank	Loss	True
286.199	0.3	Lose2	0.5667	0.0	No	2.823	0.012	2.0	NoResponse	-1	0.26	n/a	1	29	ButtonPress	Loss	True
286.625	1.45	Lose2	0.5667	n/a	No	2.823	n/a	5.0	NoResponse	-1	0.029	285.654	1	29	Feedback	Loss	True
288.079	2.823	Lose2	0.5667	n/a	No	2.823	n/a	n/a	NoResponse	-1	0.0	n/a	1	29	ISIslide	Loss	True
290.921	0.25	Win2	0.5806	0.0	Yes	2.779	0.021	n/a	GoodResponse	1	n/a	n/a	2	30	Cue	Win	True
291.171	3.9	Win2	0.5806	0.001	Yes	2.779	0.0	n/a	GoodResponse	1	n/a	n/a	2	30	Fixation	Win	True
295.066	0.22	Win2	0.5806	0.005	Yes	2.779	-0.005	2.0	GoodResponse	1	0.215	294.281	2	30	Target	Win	True
295.281	0.3	Win2	0.5806	0.005	Yes	2.779	-0.005	2.0	GoodResponse	1	0.215	n/a	2	30	ButtonPress	Win	True
295.3	0.48	Win2	0.5806	n/a	Yes	2.779	n/a	n/a	GoodResponse	1	n/a	n/a	2	30	Blank	Win	True
295.769	1.45	Win2	0.5806	n/a	Yes	2.779	n/a	5.0	GoodResponse	1	0.007	294.776	2	30	Feedback	Win	True
297.223	2.779	Win2	0.5806	n/a	Yes	2.779	n/a	n/a	GoodResponse	1	0.0	n/a	2	30	ISIslide	Win	True
300.031	0.25	Lose2	0.5938	0.0	Yes	2.819	0.031	n/a	GoodResponse	0	n/a	n/a	2	31	Cue	AvoidedLoss	True
300.282	4.05	Lose2	0.5938	0.0	Yes	2.819	0.001	n/a	GoodResponse	0	n/a	n/a	2	31	Fixation	AvoidedLoss	True
304.327	0.23	Lose2	0.5938	0.004	Yes	2.819	-0.004	2.0	GoodResponse	0	0.195	303.522	2	31	Target	AvoidedLoss	True
304.522	0.3	Lose2	0.5938	0.004	Yes	2.819	-0.004	2.0	GoodResponse	0	0.195	n/a	2	31	ButtonPress	AvoidedLoss	True
304.561	0.47	Lose2	0.5938	n/a	Yes	2.819	n/a	n/a	GoodResponse	0	n/a	n/a	2	31	Blank	AvoidedLoss	True
305.03	1.45	Lose2	0.5938	n/a	Yes	2.819	n/a	5.0	GoodResponse	0	0.015	304.045	2	31	Feedback	AvoidedLoss	True
306.484	2.819	Lose2	0.5938	n/a	Yes	2.819	n/a	n/a	GoodResponse	0	0.0	n/a	2	31	ISIslide	AvoidedLoss	True
309.326	0.25	Lose2	0.5758	0.0	No	2.624	0.026	n/a	NoResponse	-1	n/a	n/a	1	32	Cue	Loss	True
309.576	4.15	Lose2	0.5758	0.001	No	2.624	0.0	n/a	NoResponse	-1	n/a	n/a	1	32	Fixation	Loss	True
313.722	0.24	Lose2	0.5758	0.004	No	2.624	-0.004	2.0	NoResponse	-1	0.259	312.981	1	32	Target	Loss	True
313.973	0.46	Lose2	0.5758	n/a	No	2.624	n/a	n/a	NoResponse	-1	n/a	n/a	1	32	Blank	Loss	True
313.981	0.3	Lose2	0.5758	0.004	No	2.624	-0.004	2.0	NoResponse	-1	0.259	n/a	1	32	ButtonPress	Loss	True
314.424	1.45	Lose2	0.5758	n/a	No	2.624	n/a	5.0	NoResponse	-1	0.035	313.459	1	32	Feedback	Loss	True
315.879	2.624	Lose2	0.5758	n/a	No	2.624	n/a	n/a	NoResponse	-1	0.0	n/a	1	32	ISIslide	Loss	True
318.52	0.25	Win2	0.5882000000000001	0.0	Yes	2.68	0.02	n/a	GoodResponse	1	n/a	n/a	2	33	Cue	Win	True
318.771	4.0	Win2	0.5882000000000001	0.0	Yes	2.68	0.001	n/a	GoodResponse	1	n/a	n/a	2	33	Fixation	Win	True
322.766	0.25	Win2	0.5882000000000001	0.004	Yes	2.68	-0.004	2.0	GoodResponse	1	0.21	321.976	2	33	Target	Win	True
322.976	0.3	Win2	0.5882000000000001	0.004	Yes	2.68	-0.004	2.0	GoodResponse	1	0.21	n/a	2	33	ButtonPress	Win	True
323.017	0.45	Win2	0.5882000000000001	n/a	Yes	2.68	n/a	n/a	GoodResponse	1	n/a	n/a	2	33	Blank	Win	True
323.468	1.45	Win2	0.5882000000000001	n/a	Yes	2.68	n/a	5.0	GoodResponse	1	0.015	322.483	2	33	Feedback	Win	True
324.922	2.68	Win2	0.5882000000000001	n/a	Yes	2.68	n/a	n/a	GoodResponse	1	0.0	n/a	2	33	ISIslide	Win	True
327.63	0.25	Lose2	0.6	0.001	Yes	2.62	0.03	n/a	GoodResponse	0	n/a	n/a	2	34	Cue	AvoidedLoss	True
327.881	4.05	Lose2	0.6	0.0	Yes	2.62	0.001	n/a	GoodResponse	0	n/a	n/a	2	34	Fixation	AvoidedLoss	True
331.927	0.26	Lose2	0.6	0.003	Yes	2.62	-0.003	2.0	GoodResponse	0	0.203	331.13	2	34	Target	AvoidedLoss	True
332.13	0.3	Lose2	0.6	0.003	Yes	2.62	-0.003	2.0	GoodResponse	0	0.203	n/a	2	34	ButtonPress	AvoidedLoss	True
332.194	0.44	Lose2	0.6	n/a	Yes	2.62	n/a	n/a	GoodResponse	0	n/a	n/a	2	34	Blank	AvoidedLoss	True
332.629	1.45	Lose2	0.6	n/a	Yes	2.62	n/a	5.0	GoodResponse	0	0.025	331.654	2	34	Feedback	AvoidedLoss	True
334.083	2.62	Lose2	0.6	n/a	Yes	2.62	n/a	n/a	GoodResponse	0	0.0	n/a	2	34	ISIslide	AvoidedLoss	True
336.724	0.25	Lose2	0.5832999999999999	0.0	No	2.676	0.024	n/a	NoResponse	-1	n/a	n/a	1	35	Cue	Loss	True
336.975	4.0	Lose2	0.5832999999999999	0.0	No	2.676	0.001	n/a	NoResponse	-1	n/a	n/a	1	35	Fixation	Loss	True
340.97	0.27	Lose2	0.5832999999999999	0.004	No	2.676	-0.004	2.0	NoResponse	-1	0.365	340.335	1	35	Target	Loss	True
341.255	0.43	Lose2	0.5832999999999999	n/a	No	2.676	n/a	n/a	NoResponse	-1	n/a	n/a	1	35	Blank	Loss	True
341.335	0.3	Lose2	0.5832999999999999	0.004	No	2.676	-0.004	2.0	NoResponse	-1	0.365	n/a	1	35	ButtonPress	Loss	True
341.672	1.45	Lose2	0.5832999999999999	n/a	No	2.676	n/a	5.0	NoResponse	-1	0.008	340.68	1	35	Feedback	Loss	True
343.127	2.676	Lose2	0.5832999999999999	n/a	No	2.676	n/a	n/a	NoResponse	-1	0.0	n/a	1	35	ISIslide	Loss	True
345.818	0.25	Control	0.5946	0.0	Yes	2.682	0.018	n/a	GoodResponse	0	n/a	n/a	1	36	Cue	Neutral	True
346.069	4.0	Control	0.5946	0.0	Yes	2.682	0.001	n/a	GoodResponse	0	n/a	n/a	1	36	Fixation	Neutral	True
350.064	0.28	Control	0.5946	0.004	Yes	2.682	-0.004	2.0	GoodResponse	0	0.227	349.291	1	36	Target	Neutral	True
350.291	0.3	Control	0.5946	0.004	Yes	2.682	-0.004	2.0	GoodResponse	0	0.227	n/a	1	36	ButtonPress	Neutral	True
350.348	0.42	Control	0.5946	n/a	Yes	2.682	n/a	n/a	GoodResponse	0	n/a	n/a	1	36	Blank	Neutral	True
350.766	1.45	Control	0.5946	n/a	Yes	2.682	n/a	5.0	GoodResponse	0	0.034	349.8	1	36	Feedback	Neutral	True
352.221	2.682	Control	0.5946	n/a	Yes	2.682	n/a	n/a	GoodResponse	0	0.0	n/a	1	36	ISIslide	Neutral	True
354.929	0.25	Win2	0.6053000000000001	0.0	Yes	2.871	0.029	n/a	GoodResponse	1	n/a	n/a	2	37	Cue	Win	True
355.18	4.0	Win2	0.6053000000000001	0.0	Yes	2.871	0.001	n/a	GoodResponse	1	n/a	n/a	2	37	Fixation	Win	True
359.175	0.29	Win2	0.6053000000000001	0.004	Yes	2.871	-0.004	2.0	GoodResponse	1	0.223	358.398	2	37	Target	Win	True
359.398	0.3	Win2	0.6053000000000001	0.004	Yes	2.871	-0.004	2.0	GoodResponse	1	0.223	n/a	2	37	ButtonPress	Win	True
359.476	0.41	Win2	0.6053000000000001	n/a	Yes	2.871	n/a	n/a	GoodResponse	1	n/a	n/a	2	37	Blank	Win	True
359.877	1.45	Win2	0.6053000000000001	n/a	Yes	2.871	n/a	5.0	GoodResponse	1	0.044	358.921	2	37	Feedback	Win	True
361.331	2.871	Win2	0.6053000000000001	n/a	Yes	2.871	n/a	n/a	GoodResponse	1	0.0	n/a	2	37	ISIslide	Win	True
364.223	0.25	Lose2	0.6154	0.0	Yes	2.827	0.023	n/a	GoodResponse	0	n/a	n/a	2	38	Cue	AvoidedLoss	True
364.474	3.95	Lose2	0.6154	0.0	Yes	2.827	0.001	n/a	GoodResponse	0	n/a	n/a	2	38	Fixation	AvoidedLoss	True
368.419	0.3	Lose2	0.6154	0.004	Yes	2.827	-0.004	2.0	GoodResponse	0	0.22	367.639	2	38	Target	AvoidedLoss	True
368.639	0.3	Lose2	0.6154	0.004	Yes	2.827	-0.004	2.0	GoodResponse	0	0.22	n/a	2	38	ButtonPress	AvoidedLoss	True
368.72	0.4	Lose2	0.6154	n/a	Yes	2.827	n/a	n/a	GoodResponse	0	n/a	n/a	2	38	Blank	AvoidedLoss	True
369.121	1.45	Lose2	0.6154	n/a	Yes	2.827	n/a	5.0	GoodResponse	0	0.02	368.141	2	38	Feedback	AvoidedLoss	True
370.576	2.827	Lose2	0.6154	n/a	Yes	2.827	n/a	n/a	GoodResponse	0	0.0	n/a	2	38	ISIslide	AvoidedLoss	True
373.417	0.25	Win2	0.625	0.0	Yes	2.983	0.017	n/a	GoodResponse	1	n/a	n/a	3	39	Cue	Win	False
373.668	4.1	Win2	0.625	0.0	Yes	2.983	0.001	2.0	GoodResponse	1	3.694	376.362	3	39	Fixation	Win	False
377.362	0.3	Win2	0.625	0.0	Yes	2.983	0.001	2.0	GoodResponse	1	3.694	n/a	3	39	ButtonPress	Win	False
377.764	0.31	Win2	0.625	0.003	Yes	2.983	-0.003	2.0	GoodResponse	1	0.263	377.027	3	39	Target	Win	False
378.027	0.3	Win2	0.625	0.003	Yes	2.983	-0.003	2.0	GoodResponse	1	0.263	n/a	3	39	ButtonPress	Win	False
378.081	0.39	Win2	0.625	n/a	Yes	2.983	n/a	n/a	GoodResponse	1	n/a	n/a	3	39	Blank	Win	False
378.466	1.45	Win2	0.625	n/a	Yes	2.983	n/a	5.0	GoodResponse	1	0.041	377.507	3	39	Feedback	Win	False
379.92	2.983	Win2	0.625	n/a	Yes	2.983	n/a	n/a	GoodResponse	1	0.0	n/a	3	39	ISIslide	Win	False
382.929	0.25	Win2	0.6341	0.0	Yes	2.721	0.029	n/a	GoodResponse	1	n/a	n/a	4	40	Cue	Win	True
383.18	3.95	Win2	0.6341	0.0	Yes	2.721	0.001	n/a	GoodResponse	1	n/a	n/a	4	40	Fixation	Win	True
387.125	0.32	Win2	0.6341	0.004	Yes	2.721	-0.004	2.0	GoodResponse	1	0.293	386.418	4	40	Target	Win	True
387.418	0.3	Win2	0.6341	0.004	Yes	2.721	-0.004	2.0	GoodResponse	1	0.293	n/a	4	40	ButtonPress	Win	True
387.459	0.38	Win2	0.6341	n/a	Yes	2.721	n/a	n/a	GoodResponse	1	n/a	n/a	4	40	Blank	Win	True
387.827	1.45	Win2	0.6341	n/a	Yes	2.721	n/a	5.0	GoodResponse	1	0.046	386.873	4	40	Feedback	Win	True
389.281	2.721	Win2	0.6341	n/a	Yes	2.721	n/a	n/a	GoodResponse	1	0.0	n/a	4	40	ISIslide	Win	True
392.023	0.25	Win2	0.6429	0.0	Yes	2.777	0.023	n/a	GoodResponse	1	n/a	n/a	5	41	Cue	Win	True
392.274	3.9	Win2	0.6429	0.0	Yes	2.777	0.001	n/a	GoodResponse	1	n/a	n/a	5	41	Fixation	Win	True
396.169	0.33	Win2	0.6429	0.004	Yes	2.777	-0.004	2.0	GoodResponse	1	0.262	395.431	5	41	Target	Win	True
396.431	0.3	Win2	0.6429	0.004	Yes	2.777	-0.004	2.0	GoodResponse	1	0.262	n/a	5	41	ButtonPress	Win	True
396.503	0.37	Win2	0.6429	n/a	Yes	2.777	n/a	n/a	GoodResponse	1	n/a	n/a	5	41	Blank	Win	True
396.871	1.45	Win2	0.6429	n/a	Yes	2.777	n/a	5.0	GoodResponse	1	0.026	395.897	5	41	Feedback	Win	True
398.325	2.777	Win2	0.6429	n/a	Yes	2.777	n/a	n/a	GoodResponse	1	0.0	n/a	5	41	ISIslide	Win	True
401.117	0.25	Control	0.6512	0.0	Yes	2.933	0.017	n/a	GoodResponse	0	n/a	n/a	5	42	Cue	Neutral	True
401.368	3.85	Control	0.6512	0.0	Yes	2.933	0.001	n/a	GoodResponse	0	n/a	n/a	5	42	Fixation	Neutral	True
405.229	0.34	Control	0.6512	0.0	Yes	2.933	0.012	2.0	GoodResponse	0	0.251	404.48	5	42	Target	Neutral	True
405.48	0.3	Control	0.6512	0.0	Yes	2.933	0.012	2.0	GoodResponse	0	0.251	n/a	5	42	ButtonPress	Neutral	True
405.563	0.36	Control	0.6512	n/a	Yes	2.933	n/a	n/a	GoodResponse	0	n/a	n/a	5	42	Blank	Neutral	True
405.915	1.45	Control	0.6512	n/a	Yes	2.933	n/a	5.0	GoodResponse	0	0.007	404.922	5	42	Feedback	Neutral	True
407.369	2.933	Control	0.6512	n/a	Yes	2.933	n/a	n/a	GoodResponse	0	0.0	n/a	5	42	ISIslide	Neutral	True
410.328	0.25	Win2	0.6591	0.0	Yes	3.172	0.028	n/a	GoodResponse	1	n/a	n/a	6	43	Cue	Win	True
410.578	4.0	Win2	0.6591	0.001	Yes	3.172	0.0	n/a	GoodResponse	1	n/a	n/a	6	43	Fixation	Win	True
414.574	0.35	Win2	0.6591	0.004	Yes	3.172	-0.004	2.0	GoodResponse	1	0.221	413.795	6	43	Target	Win	True
414.795	0.3	Win2	0.6591	0.004	Yes	3.172	-0.004	2.0	GoodResponse	1	0.221	n/a	6	43	ButtonPress	Win	True
414.925	0.35	Win2	0.6591	n/a	Yes	3.172	n/a	n/a	GoodResponse	1	n/a	n/a	6	43	Blank	Win	True
415.276	1.45	Win2	0.6591	n/a	Yes	3.172	n/a	5.0	GoodResponse	1	0.011	414.287	6	43	Feedback	Win	True
416.73	3.172	Win2	0.6591	n/a	Yes	3.172	n/a	n/a	GoodResponse	1	0.0	n/a	6	43	ISIslide	Win	True
419.923	0.25	Win2	0.6667000000000001	0.0	Yes	2.977	0.023	n/a	GoodResponse	1	n/a	n/a	7	44	Cue	Win	True
420.174	4.0	Win2	0.6667000000000001	0.0	Yes	2.977	0.001	n/a	GoodResponse	1	n/a	n/a	7	44	Fixation	Win	True
424.169	0.35	Win2	0.6667000000000001	0.004	Yes	2.977	-0.004	2.0	GoodResponse	1	0.208	423.377	7	44	Target	Win	True
424.377	0.3	Win2	0.6667000000000001	0.004	Yes	2.977	-0.004	2.0	GoodResponse	1	0.208	n/a	7	44	ButtonPress	Win	True
424.52	0.35	Win2	0.6667000000000001	n/a	Yes	2.977	n/a	n/a	GoodResponse	1	n/a	n/a	7	44	Blank	Win	True
424.871	1.45	Win2	0.6667000000000001	n/a	Yes	2.977	n/a	5.0	GoodResponse	1	0.026	423.897	7	44	Feedback	Win	True
426.326	2.977	Win2	0.6667000000000001	n/a	Yes	2.977	n/a	n/a	GoodResponse	1	0.0	n/a	7	44	ISIslide	Win	True
429.318	0.25	Control	0.6739	0.0	Yes	2.882	0.018	n/a	GoodResponse	0	n/a	n/a	7	45	Cue	Neutral	True
429.569	4.1	Control	0.6739	0.0	Yes	2.882	0.001	n/a	GoodResponse	0	n/a	n/a	7	45	Fixation	Neutral	True
433.664	0.34	Control	0.6739	0.004	Yes	2.882	-0.004	2.0	GoodResponse	0	0.254	432.918	7	45	Target	Neutral	True
433.918	0.3	Control	0.6739	0.004	Yes	2.882	-0.004	2.0	GoodResponse	0	0.254	n/a	7	45	ButtonPress	Neutral	True
434.015	0.36	Control	0.6739	n/a	Yes	2.882	n/a	n/a	GoodResponse	0	n/a	n/a	7	45	Blank	Neutral	True
434.366	1.45	Control	0.6739	n/a	Yes	2.882	n/a	5.0	GoodResponse	0	0.043	433.409	7	45	Feedback	Neutral	True
435.821	2.882	Control	0.6739	n/a	Yes	2.882	n/a	n/a	GoodResponse	0	0.0	n/a	7	45	ISIslide	Neutral	True
438.729	0.25	Lose2	0.6809000000000001	0.0	Yes	3.371	0.029	n/a	GoodResponse	0	n/a	n/a	7	46	Cue	AvoidedLoss	True
438.98	4.0	Lose2	0.6809000000000001	0.0	Yes	3.371	0.001	n/a	GoodResponse	0	n/a	n/a	7	46	Fixation	AvoidedLoss	True
442.975	0.33	Lose2	0.6809000000000001	0.004	Yes	3.371	-0.004	2.0	GoodResponse	0	0.228	442.203	7	46	Target	AvoidedLoss	True
443.203	0.3	Lose2	0.6809000000000001	0.004	Yes	3.371	-0.004	2.0	GoodResponse	0	0.228	n/a	7	46	ButtonPress	AvoidedLoss	True
443.31	0.37	Lose2	0.6809000000000001	n/a	Yes	3.371	n/a	n/a	GoodResponse	0	n/a	n/a	7	46	Blank	AvoidedLoss	True
443.677	1.45	Lose2	0.6809000000000001	n/a	Yes	3.371	n/a	5.0	GoodResponse	0	0.048	442.725	7	46	Feedback	AvoidedLoss	True
445.132	3.371	Lose2	0.6809000000000001	n/a	Yes	3.371	n/a	n/a	GoodResponse	0	0.0	n/a	7	46	ISIslide	AvoidedLoss	True
448.525	0.25	Lose2	0.6875	0.0	Yes	2.675	0.025	n/a	GoodResponse	0	n/a	n/a	7	47	Cue	AvoidedLoss	True
448.776	4.0	Lose2	0.6875	0.0	Yes	2.675	0.001	n/a	GoodResponse	0	n/a	n/a	7	47	Fixation	AvoidedLoss	True
452.771	0.32	Lose2	0.6875	0.004	Yes	2.675	-0.004	2.0	GoodResponse	0	0.204	451.975	7	47	Target	AvoidedLoss	True
452.975	0.3	Lose2	0.6875	0.004	Yes	2.675	-0.004	2.0	GoodResponse	0	0.204	n/a	7	47	ButtonPress	AvoidedLoss	True
453.106	0.38	Lose2	0.6875	n/a	Yes	2.675	n/a	n/a	GoodResponse	0	n/a	n/a	7	47	Blank	AvoidedLoss	True
453.473	1.45	Lose2	0.6875	n/a	Yes	2.675	n/a	5.0	GoodResponse	0	0.008	452.481	7	47	Feedback	AvoidedLoss	True
454.928	2.675	Lose2	0.6875	n/a	Yes	2.675	n/a	n/a	GoodResponse	0	0.0	n/a	7	47	ISIslide	AvoidedLoss	True
457.619	0.25	Lose2	0.6939	0.0	Yes	3.031	0.019	n/a	GoodResponse	0	n/a	n/a	7	48	Cue	AvoidedLoss	True
457.87	3.95	Lose2	0.6939	0.0	Yes	3.031	0.001	n/a	GoodResponse	0	n/a	n/a	7	48	Fixation	AvoidedLoss	True
461.815	0.31	Lose2	0.6939	0.004	Yes	3.031	-0.004	2.0	GoodResponse	0	0.228	461.043	7	48	Target	AvoidedLoss	True
462.043	0.3	Lose2	0.6939	0.004	Yes	3.031	-0.004	2.0	GoodResponse	0	0.228	n/a	7	48	ButtonPress	AvoidedLoss	True
462.133	0.39	Lose2	0.6939	n/a	Yes	3.031	n/a	n/a	GoodResponse	0	n/a	n/a	7	48	Blank	AvoidedLoss	True
462.517	1.45	Lose2	0.6939	n/a	Yes	3.031	n/a	5.0	GoodResponse	0	0.037	461.554	7	48	Feedback	AvoidedLoss	True
463.971	3.031	Lose2	0.6939	n/a	Yes	3.031	n/a	n/a	GoodResponse	0	0.0	n/a	7	48	ISIslide	AvoidedLoss	True
467.031	0.25	Control	0.7	0.0	Yes	2.869	0.031	n/a	GoodResponse	0	n/a	n/a	7	49	Cue	Neutral	True
467.281	4.0	Control	0.7	0.0	Yes	2.869	0.0	n/a	GoodResponse	0	n/a	n/a	7	49	Fixation	Neutral	True
471.277	0.3	Control	0.7	0.004	Yes	2.869	-0.004	2.0	GoodResponse	0	0.234	470.511	7	49	Target	Neutral	True
471.511	0.3	Control	0.7	0.004	Yes	2.869	-0.004	2.0	GoodResponse	0	0.234	n/a	7	49	ButtonPress	Neutral	True
471.578	0.4	Control	0.7	n/a	Yes	2.869	n/a	n/a	GoodResponse	0	n/a	n/a	7	49	Blank	Neutral	True
471.979	1.45	Control	0.7	n/a	Yes	2.869	n/a	5.0	GoodResponse	0	0.039	471.018	7	49	Feedback	Neutral	True
473.433	2.869	Control	0.7	n/a	Yes	2.869	n/a	n/a	GoodResponse	0	0.0	n/a	7	49	ISIslide	Neutral	True
476.325	0.25	Control	0.7059000000000001	0.0	Yes	2.775	0.025	n/a	GoodResponse	0	n/a	n/a	7	50	Cue	Neutral	True
476.576	4.0	Control	0.7059000000000001	0.0	Yes	2.775	0.001	n/a	GoodResponse	0	n/a	n/a	7	50	Fixation	Neutral	True
480.571	0.29	Control	0.7059000000000001	0.004	Yes	2.775	-0.004	2.0	GoodResponse	0	0.187	479.758	7	50	Target	Neutral	True
480.758	0.3	Control	0.7059000000000001	0.004	Yes	2.775	-0.004	2.0	GoodResponse	0	0.187	n/a	7	50	ButtonPress	Neutral	True
480.872	0.41	Control	0.7059000000000001	n/a	Yes	2.775	n/a	n/a	GoodResponse	0	n/a	n/a	7	50	Blank	Neutral	True
481.273	1.45	Control	0.7059000000000001	n/a	Yes	2.775	n/a	5.0	GoodResponse	0	0.013	480.286	7	50	Feedback	Neutral	True
482.728	2.775	Control	0.7059000000000001	n/a	Yes	2.775	n/a	n/a	GoodResponse	0	0.0	n/a	7	50	ISIslide	Neutral	True
485.519	0.25	Control	0.7115	0.0	Yes	2.731	0.019	n/a	GoodResponse	0	n/a	n/a	7	51	Cue	Neutral	True
485.77	3.95	Control	0.7115	0.0	Yes	2.731	0.001	n/a	GoodResponse	0	n/a	n/a	7	51	Fixation	Neutral	True
489.715	0.28	Control	0.7115	0.004	Yes	2.731	-0.004	2.0	GoodResponse	0	0.204	488.919	7	51	Target	Neutral	True
489.919	0.3	Control	0.7115	0.004	Yes	2.731	-0.004	2.0	GoodResponse	0	0.204	n/a	7	51	ButtonPress	Neutral	True
489.999	0.42	Control	0.7115	n/a	Yes	2.731	n/a	n/a	GoodResponse	0	n/a	n/a	7	51	Blank	Neutral	True
490.417	1.45	Control	0.7115	n/a	Yes	2.731	n/a	5.0	GoodResponse	0	0.039	489.456	7	51	Feedback	Neutral	True
491.872	2.731	Control	0.7115	n/a	Yes	2.731	n/a	n/a	GoodResponse	0	0.0	n/a	7	51	ISIslide	Neutral	True
494.63	0.25	Control	0.7170000000000001	0.0	Yes	2.62	0.03	n/a	GoodResponse	0	n/a	n/a	7	52	Cue	Neutral	True
494.881	4.05	Control	0.7170000000000001	0.0	Yes	2.62	0.001	n/a	GoodResponse	0	n/a	n/a	7	52	Fixation	Neutral	True
498.926	0.27	Control	0.7170000000000001	0.004	Yes	2.62	-0.004	2.0	GoodResponse	0	0.189	498.115	7	52	Target	Neutral	True
499.115	0.3	Control	0.7170000000000001	0.004	Yes	2.62	-0.004	2.0	GoodResponse	0	0.189	n/a	7	52	ButtonPress	Neutral	True
499.21	0.43	Control	0.7170000000000001	n/a	Yes	2.62	n/a	n/a	GoodResponse	0	n/a	n/a	7	52	Blank	Neutral	True
499.628	1.45	Control	0.7170000000000001	n/a	Yes	2.62	n/a	5.0	GoodResponse	0	0.048	498.676	7	52	Feedback	Neutral	True
501.082	2.62	Control	0.7170000000000001	n/a	Yes	2.62	n/a	n/a	GoodResponse	0	0.0	n/a	7	52	ISIslide	Neutral	True
503.724	0.25	Win2	0.7037	0.0	No	2.926	0.024	n/a	NoResponse	0	n/a	n/a	7	53	Cue	MissedWin	False
503.974	4.05	Win2	0.7037	0.0	No	2.926	0.0	2.0	NoResponse	0	3.96	506.934	7	53	Fixation	MissedWin	False
507.934	0.3	Win2	0.7037	0.0	No	2.926	0.0	2.0	NoResponse	0	3.96	n/a	7	53	ButtonPress	MissedWin	False
508.02	0.26	Win2	0.7037	0.004	No	2.926	-0.004	2.0	NoResponse	0	0.508	507.528	7	53	Target	MissedWin	False
508.287	0.44	Win2	0.7037	n/a	No	2.926	n/a	n/a	NoResponse	0	n/a	n/a	7	53	Blank	MissedWin	False
508.528	0.3	Win2	0.7037	0.004	No	2.926	-0.004	2.0	NoResponse	0	0.508	n/a	7	53	ButtonPress	MissedWin	False
508.722	1.45	Win2	0.7037	n/a	No	2.926	n/a	5.0	NoResponse	0	0.027	507.749	7	53	Feedback	MissedWin	False
510.176	2.926	Win2	0.7037	n/a	No	2.926	n/a	n/a	NoResponse	0	0.0	n/a	7	53	ISIslide	MissedWin	False
513.118	0.25	Win2	0.6909000000000001	0.001	No	2.732	0.018	n/a	NoResponse	0	n/a	n/a	7	54	Cue	MissedWin	True
513.369	3.95	Win2	0.6909000000000001	0.0	No	2.732	0.001	n/a	NoResponse	0	n/a	n/a	7	54	Fixation	MissedWin	True
517.314	0.25	Win2	0.6909000000000001	0.004	No	2.732	-0.004	2.0	NoResponse	0	0.261	516.575	7	54	Target	MissedWin	True
517.565	0.45	Win2	0.6909000000000001	n/a	No	2.732	n/a	n/a	NoResponse	0	n/a	n/a	7	54	Blank	MissedWin	True
517.575	0.3	Win2	0.6909000000000001	0.004	No	2.732	-0.004	2.0	NoResponse	0	0.261	n/a	7	54	ButtonPress	MissedWin	True
518.016	1.45	Win2	0.6909000000000001	n/a	No	2.732	n/a	5.0	NoResponse	0	0.001	517.017	7	54	Feedback	MissedWin	True
519.471	2.732	Win2	0.6909000000000001	n/a	No	2.732	n/a	n/a	NoResponse	0	0.0	n/a	7	54	ISIslide	MissedWin	True
522.229	0.25	Control	0.6964	0.0	Yes	3.021	0.029	n/a	GoodResponse	0	n/a	n/a	7	55	Cue	Neutral	True
522.48	3.95	Control	0.6964	0.0	Yes	3.021	0.001	n/a	GoodResponse	0	n/a	n/a	7	55	Fixation	Neutral	True
526.425	0.24	Control	0.6964	0.004	Yes	3.021	-0.004	2.0	GoodResponse	0	0.217	525.642	7	55	Target	Neutral	True
526.642	0.3	Control	0.6964	0.004	Yes	3.021	-0.004	2.0	GoodResponse	0	0.217	n/a	7	55	ButtonPress	Neutral	True
526.676	0.46	Control	0.6964	n/a	Yes	3.021	n/a	n/a	GoodResponse	0	n/a	n/a	7	55	Blank	Neutral	True
527.127	1.45	Control	0.6964	n/a	Yes	3.021	n/a	5.0	GoodResponse	0	0.012	526.139	7	55	Feedback	Neutral	True
528.581	3.021	Control	0.6964	n/a	Yes	3.021	n/a	n/a	GoodResponse	0	0.0	n/a	7	55	ISIslide	Neutral	True
531.624	0.25	Control	0.7018000000000001	0.0	Yes	2.826	0.024	n/a	GoodResponse	0	n/a	n/a	7	56	Cue	Neutral	True
531.874	3.95	Control	0.7018000000000001	0.001	Yes	2.826	0.0	n/a	GoodResponse	0	n/a	n/a	7	56	Fixation	Neutral	True
535.82	0.23	Control	0.7018000000000001	0.004	Yes	2.826	-0.004	2.0	GoodResponse	0	0.206	535.026	7	56	Target	Neutral	True
536.026	0.3	Control	0.7018000000000001	0.004	Yes	2.826	-0.004	2.0	GoodResponse	0	0.206	n/a	7	56	ButtonPress	Neutral	True
536.054	0.47	Control	0.7018000000000001	n/a	Yes	2.826	n/a	n/a	GoodResponse	0	n/a	n/a	7	56	Blank	Neutral	True
536.522	1.45	Control	0.7018000000000001	n/a	Yes	2.826	n/a	5.0	GoodResponse	0	0.031	535.553	7	56	Feedback	Neutral	True
537.976	2.826	Control	0.7018000000000001	n/a	Yes	2.826	n/a	n/a	GoodResponse	0	0.0	n/a	7	56	ISIslide	Neutral	True
540.818	0.25	Control	0.6897	0.0	No	3.482	0.018	n/a	NoResponse	0	n/a	n/a	7	57	Cue	Neutral	True
541.069	4.0	Control	0.6897	0.0	No	3.482	0.001	n/a	NoResponse	0	n/a	n/a	7	57	Fixation	Neutral	True
545.064	0.22	Control	0.6897	0.004	No	3.482	-0.004	2.0	NoResponse	0	0.271	544.335	7	57	Target	Neutral	True
545.298	0.48	Control	0.6897	n/a	No	3.482	n/a	n/a	NoResponse	0	n/a	n/a	7	57	Blank	Neutral	True
545.335	0.3	Control	0.6897	0.004	No	3.482	-0.004	2.0	NoResponse	0	0.271	n/a	7	57	ButtonPress	Neutral	True
545.766	1.45	Control	0.6897	n/a	No	3.482	n/a	5.0	NoResponse	0	0.008	544.774	7	57	Feedback	Neutral	True
547.22	3.482	Control	0.6897	n/a	No	3.482	n/a	n/a	NoResponse	0	0.0	n/a	7	57	ISIslide	Neutral	True
550.731	0.25	Win2	0.6779999999999999	0.0	No	2.719	0.031	n/a	NoResponse	0	n/a	n/a	7	58	Cue	MissedWin	True
550.982	4.05	Win2	0.6779999999999999	0.0	No	2.719	0.001	n/a	NoResponse	0	n/a	n/a	7	58	Fixation	MissedWin	True
555.027	0.21	Win2	0.6779999999999999	0.004	No	2.719	-0.004	2.0	NoResponse	0	0.285	554.312	7	58	Target	MissedWin	True
555.244	0.49	Win2	0.6779999999999999	n/a	No	2.719	n/a	n/a	NoResponse	0	n/a	n/a	7	58	Blank	MissedWin	True
555.312	0.3	Win2	0.6779999999999999	0.004	No	2.719	-0.004	2.0	NoResponse	0	0.285	n/a	7	58	ButtonPress	MissedWin	True
555.729	1.45	Win2	0.6779999999999999	n/a	No	2.719	n/a	5.0	NoResponse	0	0.044	554.773	7	58	Feedback	MissedWin	True
557.183	2.719	Win2	0.6779999999999999	n/a	No	2.719	n/a	n/a	NoResponse	0	0.0	n/a	7	58	ISIslide	MissedWin	True
559.925	0.25	Lose2	0.6667000000000001	0.0	No	2.675	0.025	n/a	NoResponse	-1	n/a	n/a	6	59	Cue	Loss	True
560.176	4.0	Lose2	0.6667000000000001	0.0	No	2.675	0.001	n/a	NoResponse	-1	n/a	n/a	6	59	Fixation	Loss	True
564.171	0.2	Lose2	0.6667000000000001	0.004	No	2.675	-0.004	2.0	NoResponse	-1	0.249	563.42	6	59	Target	Loss	True
564.372	0.5	Lose2	0.6667000000000001	n/a	No	2.675	n/a	n/a	NoResponse	-1	n/a	n/a	6	59	Blank	Loss	True
564.42	0.3	Lose2	0.6667000000000001	0.004	No	2.675	-0.004	2.0	NoResponse	-1	0.249	n/a	6	59	ButtonPress	Loss	True
564.873	1.45	Lose2	0.6667000000000001	n/a	No	2.675	n/a	5.0	NoResponse	-1	0.022	563.895	6	59	Feedback	Loss	True
566.327	2.675	Lose2	0.6667000000000001	n/a	No	2.675	n/a	n/a	NoResponse	-1	0.0	n/a	6	59	ISIslide	Loss	True
569.019	0.25	Control	0.6557	0.0	No	2.681	0.019	n/a	NoResponse	0	n/a	n/a	6	60	Cue	Neutral	True
569.27	4.0	Control	0.6557	0.0	No	2.681	0.001	n/a	NoResponse	0	n/a	n/a	6	60	Fixation	Neutral	True
573.265	0.19	Control	0.6557	0.004	No	2.681	-0.004	2.0	NoResponse	0	0.236	572.501	6	60	Target	Neutral	True
573.466	0.51	Control	0.6557	n/a	No	2.681	n/a	n/a	NoResponse	0	n/a	n/a	6	60	Blank	Neutral	True
573.501	0.3	Control	0.6557	0.004	No	2.681	-0.004	2.0	NoResponse	0	0.236	n/a	6	60	ButtonPress	Neutral	True
573.967	1.45	Control	0.6557	n/a	No	2.681	n/a	5.0	NoResponse	0	0.0	572.967	6	60	Feedback	Neutral	True
575.421	2.681	Control	0.6557	n/a	No	2.681	n/a	n/a	NoResponse	0	0.0	n/a	6	60	ISIslide	Neutral	True
578.129	0.25	Lose2	0.6452	0.001	No	2.971	0.029	n/a	LatePress	-1	n/a	n/a	5	61	Cue	Loss	False
578.38	4.0	Lose2	0.6452	0.0	No	2.971	0.001	2.0	LatePress	-1	2.924	580.304	5	61	Fixation	Loss	False
581.304	0.3	Lose2	0.6452	0.0	No	2.971	0.001	2.0	LatePress	-1	2.924	n/a	5	61	ButtonPress	Loss	False
582.375	0.19	Lose2	0.6452	0.004	No	2.971	-0.004	2.0	LatePress	-1	0.192	581.567	5	61	Target	Loss	False
582.567	0.3	Lose2	0.6452	0.004	No	2.971	-0.004	2.0	LatePress	-1	0.192	n/a	5	61	ButtonPress	Loss	False
582.576	0.51	Lose2	0.6452	n/a	No	2.971	n/a	n/a	LatePress	-1	n/a	n/a	5	61	Blank	Loss	False
583.078	1.45	Lose2	0.6452	n/a	No	2.971	n/a	5.0	LatePress	-1	0.011	582.089	5	61	Feedback	Loss	False
584.532	2.971	Lose2	0.6452	n/a	No	2.971	n/a	n/a	LatePress	-1	0.0	n/a	5	61	ISIslide	Loss	False
587.524	0.25	Lose2	0.6507999999999999	0.0	Yes	2.876	0.024	n/a	GoodResponse	0	n/a	n/a	5	62	Cue	AvoidedLoss	True
587.775	3.9	Lose2	0.6507999999999999	0.0	Yes	2.876	0.001	n/a	GoodResponse	0	n/a	n/a	5	62	Fixation	AvoidedLoss	True
591.67	0.2	Lose2	0.6507999999999999	0.004	Yes	2.876	-0.004	2.0	GoodResponse	0	0.199	590.869	5	62	Target	AvoidedLoss	True
591.869	0.3	Lose2	0.6507999999999999	0.004	Yes	2.876	-0.004	2.0	GoodResponse	0	0.199	n/a	5	62	ButtonPress	AvoidedLoss	True
591.871	0.5	Lose2	0.6507999999999999	n/a	Yes	2.876	n/a	n/a	GoodResponse	0	n/a	n/a	5	62	Blank	AvoidedLoss	True
592.372	1.45	Lose2	0.6507999999999999	n/a	Yes	2.876	n/a	5.0	GoodResponse	0	0.034	591.406	5	62	Feedback	AvoidedLoss	True
593.826	2.876	Lose2	0.6507999999999999	n/a	Yes	2.876	n/a	2.0	GoodResponse	0	2.373	n/a	5	62	ISIslide	AvoidedLoss	True
596.702	0.25	Lose2	0.6562	0.0	Yes	2.648	0.002	n/a	GoodResponse	0	n/a	n/a	5	63	Cue	AvoidedLoss	True
596.952	4.05	Lose2	0.6562	0.0	Yes	2.648	0.0	n/a	GoodResponse	0	n/a	n/a	5	63	Fixation	AvoidedLoss	True
600.998	0.21	Lose2	0.6562	0.004	Yes	2.648	-0.004	2.0	GoodResponse	0	0.2	600.198	5	63	Target	AvoidedLoss	True
601.198	0.3	Lose2	0.6562	0.004	Yes	2.648	-0.004	2.0	GoodResponse	0	0.2	n/a	5	63	ButtonPress	AvoidedLoss	True
601.215	0.49	Lose2	0.6562	n/a	Yes	2.648	n/a	n/a	GoodResponse	0	n/a	n/a	5	63	Blank	AvoidedLoss	True
601.7	1.45	Lose2	0.6562	n/a	Yes	2.648	n/a	5.0	GoodResponse	0	0.024	600.724	5	63	Feedback	AvoidedLoss	True
603.154	2.648	Lose2	0.6562	n/a	Yes	2.648	n/a	n/a	GoodResponse	0	0.0	n/a	5	63	ISIslide	AvoidedLoss	True
605.829	0.25	Win2	0.6462	0.0	No	3.121	0.029	n/a	NoResponse	0	n/a	n/a	5	64	Cue	MissedWin	True
606.08	4.15	Win2	0.6462	0.0	No	3.121	0.001	n/a	NoResponse	0	n/a	n/a	5	64	Fixation	MissedWin	True
610.225	0.21	Win2	0.6462	0.004	No	3.121	-0.004	2.0	NoResponse	0	0.247	609.472	5	64	Target	MissedWin	True
610.443	0.49	Win2	0.6462	n/a	No	3.121	n/a	n/a	NoResponse	0	n/a	n/a	5	64	Blank	MissedWin	True
610.472	0.3	Win2	0.6462	0.004	No	3.121	-0.004	2.0	NoResponse	0	0.247	n/a	5	64	ButtonPress	MissedWin	True
610.928	1.45	Win2	0.6462	n/a	No	3.121	n/a	5.0	NoResponse	0	0.015	609.943	5	64	Feedback	MissedWin	True
612.382	3.121	Win2	0.6462	n/a	No	3.121	n/a	n/a	NoResponse	0	0.0	n/a	5	64	ISIslide	MissedWin	True
615.525	0.25	Control	0.6515000000000001	0.0	Yes	2.775	0.025	n/a	GoodResponse	0	n/a	n/a	5	65	Cue	Neutral	True
615.775	4.0	Control	0.6515000000000001	0.0	Yes	2.775	0.0	n/a	GoodResponse	0	n/a	n/a	5	65	Fixation	Neutral	True
619.771	0.22	Control	0.6515000000000001	0.004	Yes	2.775	-0.004	2.0	GoodResponse	0	0.21	618.981	5	65	Target	Neutral	True
619.981	0.3	Control	0.6515000000000001	0.004	Yes	2.775	-0.004	2.0	GoodResponse	0	0.21	n/a	5	65	ButtonPress	Neutral	True
620.005	0.48	Control	0.6515000000000001	n/a	Yes	2.775	n/a	n/a	GoodResponse	0	n/a	n/a	5	65	Blank	Neutral	True
620.473	1.45	Control	0.6515000000000001	n/a	Yes	2.775	n/a	5.0	GoodResponse	0	0.03	619.503	5	65	Feedback	Neutral	True
621.927	2.775	Control	0.6515000000000001	n/a	Yes	2.775	n/a	n/a	GoodResponse	0	0.0	n/a	5	65	ISIslide	Neutral	True
624.719	0.25	Win2	0.6418	0.0	No	2.781	0.019	n/a	NoResponse	0	n/a	n/a	5	66	Cue	MissedWin	True
624.969	3.9	Win2	0.6418	0.001	No	2.781	0.0	n/a	NoResponse	0	n/a	n/a	5	66	Fixation	MissedWin	True
628.881	0.23	Win2	0.6418	0.0	No	2.781	0.012	2.0	NoResponse	0	0.226	628.107	5	66	Target	MissedWin	True
629.099	0.47	Win2	0.6418	n/a	No	2.781	n/a	n/a	NoResponse	0	n/a	n/a	5	66	Blank	MissedWin	True
629.107	0.3	Win2	0.6418	0.0	No	2.781	0.012	2.0	NoResponse	0	0.226	n/a	5	66	ButtonPress	MissedWin	True
629.567	1.45	Win2	0.6418	n/a	No	2.781	n/a	5.0	NoResponse	0	0.01	628.577	5	66	Feedback	MissedWin	True
631.021	2.781	Win2	0.6418	n/a	No	2.781	n/a	n/a	NoResponse	0	0.0	n/a	5	66	ISIslide	MissedWin	True
633.829	0.25	Control	0.6324000000000001	0.0	No	2.721	0.029	n/a	NoResponse	0	n/a	n/a	5	67	Cue	Neutral	False
634.08	3.95	Control	0.6324000000000001	0.0	No	2.721	0.001	n/a	NoResponse	0	n/a	n/a	5	67	Fixation	Neutral	False
638.025	0.24	Control	0.6324000000000001	0.004	No	2.721	-0.004	n/a	NoResponse	0	n/a	n/a	5	67	Target	Neutral	False
638.276	0.46	Control	0.6324000000000001	n/a	No	2.721	n/a	n/a	NoResponse	0	n/a	n/a	5	67	Blank	Neutral	False
638.727	1.45	Control	0.6324000000000001	n/a	No	2.721	n/a	5.0	NoResponse	0	0.02	637.747	5	67	Feedback	Neutral	False
640.182	2.721	Control	0.6324000000000001	n/a	No	2.721	n/a	n/a	NoResponse	0	0.0	n/a	5	67	ISIslide	Neutral	False
642.923	0.25	Win2	0.6232	0.0	No	3.077	0.023	n/a	NoResponse	0	n/a	n/a	5	68	Cue	MissedWin	False
643.174	4.0	Win2	0.6232	0.0	No	3.077	0.001	2.0	NoResponse	0	3.992	646.166	5	68	Fixation	MissedWin	False
647.166	0.3	Win2	0.6232	0.0	No	3.077	0.001	2.0	NoResponse	0	3.992	n/a	5	68	ButtonPress	MissedWin	False
647.169	0.25	Win2	0.6232	0.004	No	3.077	-0.004	2.0	NoResponse	0	0.578	646.747	5	68	Target	MissedWin	False
647.42	0.45	Win2	0.6232	n/a	No	3.077	n/a	n/a	NoResponse	0	n/a	n/a	5	68	Blank	MissedWin	False
647.747	0.3	Win2	0.6232	0.004	No	3.077	-0.004	2.0	NoResponse	0	0.578	n/a	5	68	ButtonPress	MissedWin	False
647.871	1.45	Win2	0.6232	n/a	No	3.077	n/a	5.0	NoResponse	0	0.047	646.918	5	68	Feedback	MissedWin	False
649.326	3.077	Win2	0.6232	n/a	No	3.077	n/a	n/a	NoResponse	0	0.0	n/a	5	68	ISIslide	MissedWin	False
652.418	0.25	Win2	0.6286	0.0	Yes	3.232	0.018	n/a	GoodResponse	1	n/a	n/a	6	69	Cue	Win	True
652.669	3.95	Win2	0.6286	0.0	Yes	3.232	0.001	n/a	GoodResponse	1	n/a	n/a	6	69	Fixation	Win	True
656.614	0.26	Win2	0.6286	0.004	Yes	3.232	-0.004	2.0	GoodResponse	1	0.156	655.77	6	69	Target	Win	True
656.77	0.3	Win2	0.6286	0.004	Yes	3.232	-0.004	2.0	GoodResponse	1	0.156	n/a	6	69	ButtonPress	Win	True
656.882	0.44	Win2	0.6286	n/a	Yes	3.232	n/a	n/a	GoodResponse	1	n/a	n/a	6	69	Blank	Win	True
657.316	1.45	Win2	0.6286	n/a	Yes	3.232	n/a	5.0	GoodResponse	1	0.017	656.333	6	69	Feedback	Win	True
658.771	3.232	Win2	0.6286	n/a	Yes	3.232	n/a	n/a	GoodResponse	1	0.0	n/a	6	69	ISIslide	Win	True
662.03	0.25	Lose2	0.6338	0.0	Yes	3.02	0.03	n/a	GoodResponse	0	n/a	n/a	6	70	Cue	AvoidedLoss	False
662.281	4.05	Lose2	0.6338	0.0	Yes	3.02	0.001	2.0	GoodResponse	0	3.878	665.159	6	70	Fixation	AvoidedLoss	False
666.159	0.3	Lose2	0.6338	0.0	Yes	3.02	0.001	2.0	GoodResponse	0	3.878	n/a	6	70	ButtonPress	AvoidedLoss	False
666.326	0.27	Lose2	0.6338	0.004	Yes	3.02	-0.004	2.0	GoodResponse	0	0.267	665.593	6	70	Target	AvoidedLoss	False
666.593	0.3	Lose2	0.6338	0.004	Yes	3.02	-0.004	2.0	GoodResponse	0	0.267	n/a	6	70	ButtonPress	AvoidedLoss	False
666.611	0.43	Lose2	0.6338	n/a	Yes	3.02	n/a	n/a	GoodResponse	0	n/a	n/a	6	70	Blank	AvoidedLoss	False
667.029	1.45	Lose2	0.6338	n/a	Yes	3.02	n/a	5.0	GoodResponse	0	0.01	666.039	6	70	Feedback	AvoidedLoss	False
668.483	3.02	Lose2	0.6338	n/a	Yes	3.02	n/a	n/a	GoodResponse	0	0.0	n/a	6	70	ISIslide	AvoidedLoss	False
671.525	0.25	Win2	0.6389	0.0	Yes	2.725	0.025	n/a	GoodResponse	1	n/a	n/a	7	71	Cue	Win	True
671.776	4.05	Win2	0.6389	0.0	Yes	2.725	0.001	n/a	GoodResponse	1	n/a	n/a	7	71	Fixation	Win	True
675.822	0.28	Win2	0.6389	0.003	Yes	2.725	-0.003	2.0	GoodResponse	1	0.175	674.997	7	71	Target	Win	True
675.997	0.3	Win2	0.6389	0.003	Yes	2.725	-0.003	2.0	GoodResponse	1	0.175	n/a	7	71	ButtonPress	Win	True
676.106	0.42	Win2	0.6389	n/a	Yes	2.725	n/a	n/a	GoodResponse	1	n/a	n/a	7	71	Blank	Win	True
676.524	1.45	Win2	0.6389	n/a	Yes	2.725	n/a	5.0	GoodResponse	1	0.028	675.552	7	71	Feedback	Win	True
677.978	2.725	Win2	0.6389	n/a	Yes	2.725	n/a	n/a	GoodResponse	1	0.0	n/a	7	71	ISIslide	Win	True
680.72	0.25	Win2	0.6437999999999999	0.0	Yes	2.78	0.02	n/a	GoodResponse	1	n/a	n/a	8	72	Cue	Win	True
680.97	4.1	Win2	0.6437999999999999	0.0	Yes	2.78	0.0	n/a	GoodResponse	1	n/a	n/a	8	72	Fixation	Win	True
685.066	0.29	Win2	0.6437999999999999	0.004	Yes	2.78	-0.004	2.0	GoodResponse	1	0.219	684.285	8	72	Target	Win	True
685.285	0.3	Win2	0.6437999999999999	0.004	Yes	2.78	-0.004	2.0	GoodResponse	1	0.219	n/a	8	72	ButtonPress	Win	True
685.367	0.41	Win2	0.6437999999999999	n/a	Yes	2.78	n/a	n/a	GoodResponse	1	n/a	n/a	8	72	Blank	Win	True
685.768	1.45	Win2	0.6437999999999999	n/a	Yes	2.78	n/a	5.0	GoodResponse	1	0.007	684.775	8	72	Feedback	Win	True
687.222	2.78	Win2	0.6437999999999999	n/a	Yes	2.78	n/a	n/a	GoodResponse	1	0.0	n/a	8	72	ISIslide	Win	True
690.031	0.25	Win2	0.6351	0.0	No	2.669	0.031	n/a	LatePress	0	n/a	n/a	8	73	Cue	MissedWin	True
690.281	4.0	Win2	0.6351	0.001	No	2.669	0.0	n/a	LatePress	0	n/a	n/a	8	73	Fixation	MissedWin	True
694.277	0.3	Win2	0.6351	0.004	No	2.669	-0.004	2.0	LatePress	0	0.302	693.579	8	73	Target	MissedWin	True
694.578	0.4	Win2	0.6351	n/a	No	2.669	n/a	n/a	LatePress	0	n/a	n/a	8	73	Blank	MissedWin	True
694.579	0.3	Win2	0.6351	0.004	No	2.669	-0.004	2.0	LatePress	0	0.302	n/a	8	73	ButtonPress	MissedWin	True
694.979	1.45	Win2	0.6351	n/a	No	2.669	n/a	5.0	LatePress	0	0.012	693.991	8	73	Feedback	MissedWin	True
696.433	2.669	Win2	0.6351	n/a	No	2.669	n/a	n/a	LatePress	0	0.0	n/a	8	73	ISIslide	MissedWin	True
699.125	0.25	Lose2	0.6267	0.0	No	2.625	0.025	n/a	PrematurePress	-1	n/a	n/a	7	74	Cue	Loss	True
699.375	4.05	Lose2	0.6267	0.0	No	2.625	0.0	n/a	PrematurePress	-1	n/a	n/a	7	74	Fixation	Loss	True
703.421	0.31	Lose2	0.6267	0.004	No	2.625	-0.004	2.0	PrematurePress	-1	0.044	702.465	7	74	Target	Loss	True
703.465	0.3	Lose2	0.6267	0.004	No	2.625	-0.004	2.0	PrematurePress	-1	0.044	n/a	7	74	ButtonPress	Loss	True
703.738	0.39	Lose2	0.6267	n/a	No	2.625	n/a	n/a	PrematurePress	-1	n/a	n/a	7	74	Blank	Loss	True
704.123	1.45	Lose2	0.6267	n/a	No	2.625	n/a	5.0	PrematurePress	-1	0.038	703.161	7	74	Feedback	Loss	True
705.577	2.625	Lose2	0.6267	n/a	No	2.625	n/a	n/a	PrematurePress	-1	0.0	n/a	7	74	ISIslide	Loss	True
708.218	0.25	Lose2	0.6315999999999999	0.001	Yes	2.932	0.018	n/a	GoodResponse	0	n/a	n/a	7	75	Cue	AvoidedLoss	True
708.469	3.95	Lose2	0.6315999999999999	0.0	Yes	2.932	0.001	n/a	GoodResponse	0	n/a	n/a	7	75	Fixation	AvoidedLoss	True
712.414	0.32	Lose2	0.6315999999999999	0.004	Yes	2.932	-0.004	2.0	GoodResponse	0	0.236	711.65	7	75	Target	AvoidedLoss	True
712.65	0.3	Lose2	0.6315999999999999	0.004	Yes	2.932	-0.004	2.0	GoodResponse	0	0.236	n/a	7	75	ButtonPress	AvoidedLoss	True
712.749	0.38	Lose2	0.6315999999999999	n/a	Yes	2.932	n/a	n/a	GoodResponse	0	n/a	n/a	7	75	Blank	AvoidedLoss	True
713.116	1.45	Lose2	0.6315999999999999	n/a	Yes	2.932	n/a	5.0	GoodResponse	0	0.02	712.136	7	75	Feedback	AvoidedLoss	True
714.571	2.932	Lose2	0.6315999999999999	n/a	Yes	2.932	n/a	n/a	GoodResponse	0	0.0	n/a	7	75	ISIslide	AvoidedLoss	True
717.53	0.25	Control	0.6364	0.0	Yes	3.22	0.03	n/a	GoodResponse	0	n/a	n/a	7	76	Cue	Neutral	True
717.78	4.05	Control	0.6364	0.0	Yes	3.22	0.0	n/a	GoodResponse	0	n/a	n/a	7	76	Fixation	Neutral	True
721.826	0.33	Control	0.6364	0.004	Yes	3.22	-0.004	2.0	GoodResponse	0	0.245	721.071	7	76	Target	Neutral	True
722.071	0.3	Control	0.6364	0.004	Yes	3.22	-0.004	2.0	GoodResponse	0	0.245	n/a	7	76	ButtonPress	Neutral	True
722.16	0.37	Control	0.6364	n/a	Yes	3.22	n/a	n/a	GoodResponse	0	n/a	n/a	7	76	Blank	Neutral	True
722.528	1.45	Control	0.6364	n/a	Yes	3.22	n/a	5.0	GoodResponse	0	0.023	721.551	7	76	Feedback	Neutral	True
723.982	3.22	Control	0.6364	n/a	Yes	3.22	n/a	n/a	GoodResponse	0	0.0	n/a	7	76	ISIslide	Neutral	True
727.225	0.25	Lose2	0.6409999999999999	0.0	Yes	2.575	0.025	n/a	GoodResponse	0	n/a	n/a	7	77	Cue	AvoidedLoss	True
727.476	3.95	Lose2	0.6409999999999999	0.0	Yes	2.575	0.001	n/a	GoodResponse	0	n/a	n/a	7	77	Fixation	AvoidedLoss	True
731.421	0.34	Lose2	0.6409999999999999	0.004	Yes	2.575	-0.004	2.0	GoodResponse	0	0.223	730.644	7	77	Target	AvoidedLoss	True
731.644	0.3	Lose2	0.6409999999999999	0.004	Yes	2.575	-0.004	2.0	GoodResponse	0	0.223	n/a	7	77	ButtonPress	AvoidedLoss	True
731.772	0.36	Lose2	0.6409999999999999	n/a	Yes	2.575	n/a	n/a	GoodResponse	0	n/a	n/a	7	77	Blank	AvoidedLoss	True
732.123	1.45	Lose2	0.6409999999999999	n/a	Yes	2.575	n/a	5.0	GoodResponse	0	0.038	731.161	7	77	Feedback	AvoidedLoss	True
733.578	2.575	Lose2	0.6409999999999999	n/a	Yes	2.575	n/a	n/a	GoodResponse	0	0.0	n/a	7	77	ISIslide	AvoidedLoss	True
