onset	duration	cue_type	current_mean_accuracy	duration_error	is_hit	isi_adjusted	onset_delay	response	response_type	reward	rt	rt_time	total_reward	trial_number	trial_phase	trial_type	one_press
11.097	0.25	Control	0.0	0.0	No	2.953	-0.003	n/a	NoResponse	0	n/a	n/a	0	0	Cue	Neutral	True
11.347	3.85	Control	0.0	0.001	No	2.953	0.0	n/a	NoResponse	0	n/a	n/a	0	0	Fixation	Neutral	True
15.209	0.4	Control	0.0	0.0	No	2.953	0.012	2.0	NoResponse	0	0.414	14.623	0	0	Target	Neutral	True
15.593	0.3	Control	0.0	n/a	No	2.953	n/a	n/a	NoResponse	0	n/a	n/a	0	0	Blank	Neutral	True
15.623	0.3	Control	0.0	0.0	No	2.953	0.012	2.0	NoResponse	0	0.414	n/a	0	0	ButtonPress	Neutral	True
15.894	1.45	Control	0.0	n/a	No	2.953	n/a	5.0	NoResponse	0	0.033	14.927	0	0	Feedback	Neutral	True
17.349	2.953	Control	0.0	n/a	No	2.953	n/a	n/a	NoResponse	0	0.0	n/a	0	0	ISIslide	Neutral	True
20.324	0.25	Lose2	0.5	0.0	Yes	2.776	0.024	n/a	GoodResponse	0	n/a	n/a	0	1	Cue	AvoidedLoss	True
20.575	4.0	Lose2	0.5	0.0	Yes	2.776	0.001	n/a	GoodResponse	0	n/a	n/a	0	1	Fixation	AvoidedLoss	True
24.57	0.41	Lose2	0.5	0.004	Yes	2.776	-0.004	2.0	GoodResponse	0	0.242	23.812	0	1	Target	AvoidedLoss	True
24.812	0.3	Lose2	0.5	0.004	Yes	2.776	-0.004	2.0	GoodResponse	0	0.242	n/a	0	1	ButtonPress	AvoidedLoss	True
24.988	0.29	Lose2	0.5	n/a	Yes	2.776	n/a	n/a	GoodResponse	0	n/a	n/a	0	1	Blank	AvoidedLoss	True
25.272	1.45	Lose2	0.5	n/a	Yes	2.776	n/a	5.0	GoodResponse	0	0.021	24.293	0	1	Feedback	AvoidedLoss	True
26.727	2.776	Lose2	0.5	n/a	Yes	2.776	n/a	n/a	GoodResponse	0	0.0	n/a	0	1	ISIslide	AvoidedLoss	True
29.518	0.25	Control	0.6667000000000001	0.001	Yes	2.582	0.018	n/a	GoodResponse	0	n/a	n/a	0	2	Cue	Neutral	True
29.769	4.1	Control	0.6667000000000001	0.0	Yes	2.582	0.001	n/a	GoodResponse	0	n/a	n/a	0	2	Fixation	Neutral	True
33.865	0.42	Control	0.6667000000000001	0.003	Yes	2.582	-0.003	2.0	GoodResponse	0	0.26	33.125	0	2	Target	Neutral	True
34.125	0.3	Control	0.6667000000000001	0.003	Yes	2.582	-0.003	2.0	GoodResponse	0	0.26	n/a	0	2	ButtonPress	Neutral	True
34.299	0.28	Control	0.6667000000000001	n/a	Yes	2.582	n/a	n/a	GoodResponse	0	n/a	n/a	0	2	Blank	Neutral	True
34.567	1.45	Control	0.6667000000000001	n/a	Yes	2.582	n/a	5.0	GoodResponse	0	0.042	33.609	0	2	Feedback	Neutral	True
36.021	2.582	Control	0.6667000000000001	n/a	Yes	2.582	n/a	n/a	GoodResponse	0	0.0	n/a	0	2	ISIslide	Neutral	True
38.629	0.25	Win2	0.75	0.0	Yes	2.821	0.029	n/a	GoodResponse	1	n/a	n/a	1	3	Cue	Win	True
38.88	3.95	Win2	0.75	0.0	Yes	2.821	0.001	n/a	GoodResponse	1	n/a	n/a	1	3	Fixation	Win	True
42.825	0.41	Win2	0.75	0.004	Yes	2.821	-0.004	2.0	GoodResponse	1	0.221	42.046	1	3	Target	Win	True
43.046	0.3	Win2	0.75	0.004	Yes	2.821	-0.004	2.0	GoodResponse	1	0.221	n/a	1	3	ButtonPress	Win	True
43.243	0.29	Win2	0.75	n/a	Yes	2.821	n/a	n/a	GoodResponse	1	n/a	n/a	1	3	Blank	Win	True
43.527	1.45	Win2	0.75	n/a	Yes	2.821	n/a	5.0	GoodResponse	1	0.009	42.536	1	3	Feedback	Win	True
44.981	2.821	Win2	0.75	n/a	Yes	2.821	n/a	n/a	GoodResponse	1	0.0	n/a	1	3	ISIslide	Win	True
47.823	0.25	Win2	0.8	0.0	Yes	3.277	0.023	n/a	GoodResponse	1	n/a	n/a	2	4	Cue	Win	True
48.074	4.0	Win2	0.8	0.0	Yes	3.277	0.001	n/a	GoodResponse	1	n/a	n/a	2	4	Fixation	Win	True
52.069	0.4	Win2	0.8	0.004	Yes	3.277	-0.004	2.0	GoodResponse	1	0.313	51.382	2	4	Target	Win	True
52.382	0.3	Win2	0.8	0.004	Yes	3.277	-0.004	2.0	GoodResponse	1	0.313	n/a	2	4	ButtonPress	Win	True
52.471	0.3	Win2	0.8	n/a	Yes	3.277	n/a	n/a	GoodResponse	1	n/a	n/a	2	4	Blank	Win	True
52.771	1.45	Win2	0.8	n/a	Yes	3.277	n/a	5.0	GoodResponse	1	0.033	51.804	2	4	Feedback	Win	True
54.226	3.277	Win2	0.8	n/a	Yes	3.277	n/a	n/a	GoodResponse	1	0.0	n/a	2	4	ISIslide	Win	True
57.519	0.25	Win2	0.8332999999999999	0.0	Yes	2.781	0.019	n/a	GoodResponse	1	n/a	n/a	3	5	Cue	Win	True
57.77	4.0	Win2	0.8332999999999999	0.0	Yes	2.781	0.001	n/a	GoodResponse	1	n/a	n/a	3	5	Fixation	Win	True
61.765	0.39	Win2	0.8332999999999999	0.004	Yes	2.781	-0.004	2.0	GoodResponse	1	0.274	61.039	3	5	Target	Win	True
62.039	0.3	Win2	0.8332999999999999	0.004	Yes	2.781	-0.004	2.0	GoodResponse	1	0.274	n/a	3	5	ButtonPress	Win	True
62.166	0.31	Win2	0.8332999999999999	n/a	Yes	2.781	n/a	n/a	GoodResponse	1	n/a	n/a	3	5	Blank	Win	True
62.467	1.45	Win2	0.8332999999999999	n/a	Yes	2.781	n/a	5.0	GoodResponse	1	0.045	61.512	3	5	Feedback	Win	True
63.921	2.781	Win2	0.8332999999999999	n/a	Yes	2.781	n/a	n/a	GoodResponse	1	0.0	n/a	3	5	ISIslide	Win	True
66.73	0.25	Lose2	0.8571	0.0	Yes	2.72	0.03	n/a	GoodResponse	0	n/a	n/a	3	6	Cue	AvoidedLoss	True
66.981	3.95	Lose2	0.8571	0.0	Yes	2.72	0.001	n/a	GoodResponse	0	n/a	n/a	3	6	Fixation	AvoidedLoss	True
70.926	0.38	Lose2	0.8571	0.004	Yes	2.72	-0.004	2.0	GoodResponse	0	0.231	70.157	3	6	Target	AvoidedLoss	True
71.157	0.3	Lose2	0.8571	0.004	Yes	2.72	-0.004	2.0	GoodResponse	0	0.231	n/a	3	6	ButtonPress	AvoidedLoss	True
71.31	0.32	Lose2	0.8571	n/a	Yes	2.72	n/a	n/a	GoodResponse	0	n/a	n/a	3	6	Blank	AvoidedLoss	True
71.628	1.45	Lose2	0.8571	n/a	Yes	2.72	n/a	5.0	GoodResponse	0	0.007	70.635	3	6	Feedback	AvoidedLoss	True
73.082	2.72	Lose2	0.8571	n/a	Yes	2.72	n/a	n/a	GoodResponse	0	0.0	n/a	3	6	ISIslide	AvoidedLoss	True
75.824	0.25	Lose2	0.875	0.0	Yes	4.026	0.024	n/a	GoodResponse	0	n/a	n/a	3	7	Cue	AvoidedLoss	True
76.075	4.05	Lose2	0.875	0.0	Yes	4.026	0.001	n/a	GoodResponse	0	n/a	n/a	3	7	Fixation	AvoidedLoss	True
80.12	0.37	Lose2	0.875	0.004	Yes	4.026	-0.004	2.0	GoodResponse	0	0.231	79.351	3	7	Target	AvoidedLoss	True
80.351	0.3	Lose2	0.875	0.004	Yes	4.026	-0.004	2.0	GoodResponse	0	0.231	n/a	3	7	ButtonPress	AvoidedLoss	True
80.504	0.33	Lose2	0.875	n/a	Yes	4.026	n/a	n/a	GoodResponse	0	n/a	n/a	3	7	Blank	AvoidedLoss	True
80.822	1.45	Lose2	0.875	n/a	Yes	4.026	n/a	5.0	GoodResponse	0	0.031	79.853	3	7	Feedback	AvoidedLoss	True
82.276	4.026	Lose2	0.875	n/a	Yes	4.026	n/a	n/a	GoodResponse	0	0.0	n/a	3	7	ISIslide	AvoidedLoss	True
86.322	0.25	Lose2	0.8889	0.0	Yes	3.028	0.022	n/a	GoodResponse	0	n/a	n/a	3	8	Cue	AvoidedLoss	True
86.573	3.95	Lose2	0.8889	0.0	Yes	3.028	0.001	n/a	GoodResponse	0	n/a	n/a	3	8	Fixation	AvoidedLoss	True
90.518	0.36	Lose2	0.8889	0.004	Yes	3.028	-0.004	2.0	GoodResponse	0	0.265	89.783	3	8	Target	AvoidedLoss	True
90.783	0.3	Lose2	0.8889	0.004	Yes	3.028	-0.004	2.0	GoodResponse	0	0.265	n/a	3	8	ButtonPress	AvoidedLoss	True
90.886	0.34	Lose2	0.8889	n/a	Yes	3.028	n/a	n/a	GoodResponse	0	n/a	n/a	3	8	Blank	AvoidedLoss	True
91.22	1.45	Lose2	0.8889	n/a	Yes	3.028	n/a	5.0	GoodResponse	0	0.023	90.243	3	8	Feedback	AvoidedLoss	True
92.674	3.028	Lose2	0.8889	n/a	Yes	3.028	n/a	n/a	GoodResponse	0	0.0	n/a	3	8	ISIslide	AvoidedLoss	True
95.717	0.25	Lose2	0.9	0.0	Yes	3.133	0.017	n/a	GoodResponse	0	n/a	n/a	3	9	Cue	AvoidedLoss	True
95.967	3.95	Lose2	0.9	0.0	Yes	3.133	0.0	n/a	GoodResponse	0	n/a	n/a	3	9	Fixation	AvoidedLoss	True
99.913	0.35	Lose2	0.9	0.004	Yes	3.133	-0.004	2.0	GoodResponse	0	0.295	99.208	3	9	Target	AvoidedLoss	True
100.208	0.3	Lose2	0.9	0.004	Yes	3.133	-0.004	2.0	GoodResponse	0	0.295	n/a	3	9	ButtonPress	AvoidedLoss	True
100.264	0.35	Lose2	0.9	n/a	Yes	3.133	n/a	n/a	GoodResponse	0	n/a	n/a	3	9	Blank	AvoidedLoss	True
100.615	1.45	Lose2	0.9	n/a	Yes	3.133	n/a	5.0	GoodResponse	0	0.043	99.658	3	9	Feedback	AvoidedLoss	True
102.069	3.133	Lose2	0.9	n/a	Yes	3.133	n/a	n/a	GoodResponse	0	0.0	n/a	3	9	ISIslide	AvoidedLoss	True
105.228	0.25	Control	0.8181999999999999	0.001	No	3.272	0.028	n/a	NoResponse	0	n/a	n/a	3	10	Cue	Neutral	True
105.479	4.0	Control	0.8181999999999999	0.0	No	3.272	0.001	n/a	NoResponse	0	n/a	n/a	3	10	Fixation	Neutral	True
109.474	0.34	Control	0.8181999999999999	0.004	No	3.272	-0.004	2.0	NoResponse	0	0.366	108.84	3	10	Target	Neutral	True
109.826	0.36	Control	0.8181999999999999	n/a	No	3.272	n/a	n/a	NoResponse	0	n/a	n/a	3	10	Blank	Neutral	True
109.84	0.3	Control	0.8181999999999999	0.004	No	3.272	-0.004	2.0	NoResponse	0	0.366	n/a	3	10	ButtonPress	Neutral	True
110.177	1.45	Control	0.8181999999999999	n/a	No	3.272	n/a	5.0	NoResponse	0	0.042	109.219	3	10	Feedback	Neutral	True
111.631	3.272	Control	0.8181999999999999	n/a	No	3.272	n/a	n/a	NoResponse	0	0.0	n/a	3	10	ISIslide	Neutral	True
114.924	0.25	Lose2	0.8332999999999999	0.0	Yes	2.726	0.024	n/a	GoodResponse	0	n/a	n/a	3	11	Cue	AvoidedLoss	True
115.175	4.05	Lose2	0.8332999999999999	0.0	Yes	2.726	0.001	n/a	GoodResponse	0	n/a	n/a	3	11	Fixation	AvoidedLoss	True
119.22	0.33	Lose2	0.8332999999999999	0.004	Yes	2.726	-0.004	2.0	GoodResponse	0	0.258	118.478	3	11	Target	AvoidedLoss	True
119.478	0.3	Lose2	0.8332999999999999	0.004	Yes	2.726	-0.004	2.0	GoodResponse	0	0.258	n/a	3	11	ButtonPress	AvoidedLoss	True
119.555	0.37	Lose2	0.8332999999999999	n/a	Yes	2.726	n/a	n/a	GoodResponse	0	n/a	n/a	3	11	Blank	AvoidedLoss	True
119.922	1.45	Lose2	0.8332999999999999	n/a	Yes	2.726	n/a	5.0	GoodResponse	0	0.007	118.929	3	11	Feedback	AvoidedLoss	True
121.377	2.726	Lose2	0.8332999999999999	n/a	Yes	2.726	n/a	n/a	GoodResponse	0	0.0	n/a	3	11	ISIslide	AvoidedLoss	True
124.118	0.25	Control	0.8462000000000001	0.0	Yes	2.982	0.018	n/a	GoodResponse	0	n/a	n/a	3	12	Cue	Neutral	True
124.369	3.9	Control	0.8462000000000001	0.0	Yes	2.982	0.001	n/a	GoodResponse	0	n/a	n/a	3	12	Fixation	Neutral	True
128.264	0.32	Control	0.8462000000000001	0.004	Yes	2.982	-0.004	2.0	GoodResponse	0	0.212	127.476	3	12	Target	Neutral	True
128.476	0.3	Control	0.8462000000000001	0.004	Yes	2.982	-0.004	2.0	GoodResponse	0	0.212	n/a	3	12	ButtonPress	Neutral	True
128.598	0.38	Control	0.8462000000000001	n/a	Yes	2.982	n/a	n/a	GoodResponse	0	n/a	n/a	3	12	Blank	Neutral	True
128.966	1.45	Control	0.8462000000000001	n/a	Yes	2.982	n/a	5.0	GoodResponse	0	0.032	127.998	3	12	Feedback	Neutral	True
130.421	2.982	Control	0.8462000000000001	n/a	Yes	2.982	n/a	n/a	GoodResponse	0	0.0	n/a	3	12	ISIslide	Neutral	True
133.43	0.25	Control	0.8571	0.0	Yes	2.77	0.03	n/a	GoodResponse	0	n/a	n/a	3	13	Cue	Neutral	True
133.68	4.0	Control	0.8571	0.0	Yes	2.77	0.0	n/a	GoodResponse	0	n/a	n/a	3	13	Fixation	Neutral	True
137.676	0.31	Control	0.8571	0.004	Yes	2.77	-0.004	2.0	GoodResponse	0	0.264	136.94	3	13	Target	Neutral	True
137.94	0.3	Control	0.8571	0.004	Yes	2.77	-0.004	2.0	GoodResponse	0	0.264	n/a	3	13	ButtonPress	Neutral	True
137.993	0.39	Control	0.8571	n/a	Yes	2.77	n/a	n/a	GoodResponse	0	n/a	n/a	3	13	Blank	Neutral	True
138.378	1.45	Control	0.8571	n/a	Yes	2.77	n/a	5.0	GoodResponse	0	0.035	137.413	3	13	Feedback	Neutral	True
139.832	2.77	Control	0.8571	n/a	Yes	2.77	n/a	n/a	GoodResponse	0	0.0	n/a	3	13	ISIslide	Neutral	True
142.624	0.25	Win2	0.8667	0.0	Yes	2.676	0.024	n/a	GoodResponse	1	n/a	n/a	4	14	Cue	Win	True
142.874	4.1	Win2	0.8667	0.001	Yes	2.676	0.0	n/a	GoodResponse	1	n/a	n/a	4	14	Fixation	Win	True
146.97	0.3	Win2	0.8667	0.004	Yes	2.676	-0.004	2.0	GoodResponse	1	0.231	146.201	4	14	Target	Win	True
147.201	0.3	Win2	0.8667	0.004	Yes	2.676	-0.004	2.0	GoodResponse	1	0.231	n/a	4	14	ButtonPress	Win	True
147.271	0.4	Win2	0.8667	n/a	Yes	2.676	n/a	n/a	GoodResponse	1	n/a	n/a	4	14	Blank	Win	True
147.672	1.45	Win2	0.8667	n/a	Yes	2.676	n/a	5.0	GoodResponse	1	0.009	146.681	4	14	Feedback	Win	True
149.127	2.676	Win2	0.8667	n/a	Yes	2.676	n/a	n/a	GoodResponse	1	0.0	n/a	4	14	ISIslide	Win	True
151.818	0.25	Control	0.875	0.0	Yes	2.982	0.018	n/a	GoodResponse	0	n/a	n/a	4	15	Cue	Neutral	True
152.069	4.0	Control	0.875	0.0	Yes	2.982	0.001	n/a	GoodResponse	0	n/a	n/a	4	15	Fixation	Neutral	True
156.064	0.29	Control	0.875	0.004	Yes	2.982	-0.004	2.0	GoodResponse	0	0.221	155.285	4	15	Target	Neutral	True
156.285	0.3	Control	0.875	0.004	Yes	2.982	-0.004	2.0	GoodResponse	0	0.221	n/a	4	15	ButtonPress	Neutral	True
156.365	0.41	Control	0.875	n/a	Yes	2.982	n/a	n/a	GoodResponse	0	n/a	n/a	4	15	Blank	Neutral	True
156.766	1.45	Control	0.875	n/a	Yes	2.982	n/a	5.0	GoodResponse	0	0.038	155.804	4	15	Feedback	Neutral	True
158.22	2.982	Control	0.875	n/a	Yes	2.982	n/a	n/a	GoodResponse	0	0.0	n/a	4	15	ISIslide	Neutral	True
161.229	0.25	Win2	0.8824	0.001	Yes	2.871	0.029	n/a	GoodResponse	1	n/a	n/a	5	16	Cue	Win	True
161.48	4.0	Win2	0.8824	0.0	Yes	2.871	0.001	n/a	GoodResponse	1	n/a	n/a	5	16	Fixation	Win	True
165.475	0.28	Win2	0.8824	0.004	Yes	2.871	-0.004	2.0	GoodResponse	1	0.211	164.686	5	16	Target	Win	True
165.686	0.3	Win2	0.8824	0.004	Yes	2.871	-0.004	2.0	GoodResponse	1	0.211	n/a	5	16	ButtonPress	Win	True
165.76	0.42	Win2	0.8824	n/a	Yes	2.871	n/a	n/a	GoodResponse	1	n/a	n/a	5	16	Blank	Win	True
166.178	1.45	Win2	0.8824	n/a	Yes	2.871	n/a	5.0	GoodResponse	1	0.04	165.218	5	16	Feedback	Win	True
167.632	2.871	Win2	0.8824	n/a	Yes	2.871	n/a	n/a	GoodResponse	1	0.0	n/a	5	16	ISIslide	Win	True
170.524	0.25	Lose2	0.8889	0.0	Yes	2.726	0.024	n/a	GoodResponse	0	n/a	n/a	5	17	Cue	AvoidedLoss	True
170.775	3.95	Lose2	0.8889	0.0	Yes	2.726	0.001	n/a	GoodResponse	0	n/a	n/a	5	17	Fixation	AvoidedLoss	True
174.72	0.27	Lose2	0.8889	0.004	Yes	2.726	-0.004	2.0	GoodResponse	0	0.221	173.941	5	17	Target	AvoidedLoss	True
174.941	0.3	Lose2	0.8889	0.004	Yes	2.726	-0.004	2.0	GoodResponse	0	0.221	n/a	5	17	ButtonPress	AvoidedLoss	True
175.004	0.43	Lose2	0.8889	n/a	Yes	2.726	n/a	n/a	GoodResponse	0	n/a	n/a	5	17	Blank	AvoidedLoss	True
175.422	1.45	Lose2	0.8889	n/a	Yes	2.726	n/a	5.0	GoodResponse	0	0.016	174.438	5	17	Feedback	AvoidedLoss	True
176.876	2.726	Lose2	0.8889	n/a	Yes	2.726	n/a	n/a	GoodResponse	0	0.0	n/a	5	17	ISIslide	AvoidedLoss	True
179.618	0.25	Lose2	0.8946999999999999	0.0	Yes	2.732	0.018	n/a	GoodResponse	0	n/a	n/a	5	18	Cue	AvoidedLoss	True
179.869	4.05	Lose2	0.8946999999999999	0.0	Yes	2.732	0.001	n/a	GoodResponse	0	n/a	n/a	5	18	Fixation	AvoidedLoss	True
183.914	0.26	Lose2	0.8946999999999999	0.004	Yes	2.732	-0.004	2.0	GoodResponse	0	0.25	183.164	5	18	Target	AvoidedLoss	True
184.164	0.3	Lose2	0.8946999999999999	0.004	Yes	2.732	-0.004	2.0	GoodResponse	0	0.25	n/a	5	18	ButtonPress	AvoidedLoss	True
184.181	0.44	Lose2	0.8946999999999999	n/a	Yes	2.732	n/a	n/a	GoodResponse	0	n/a	n/a	5	18	Blank	AvoidedLoss	True
184.616	1.45	Lose2	0.8946999999999999	n/a	Yes	2.732	n/a	5.0	GoodResponse	0	0.04	183.656	5	18	Feedback	AvoidedLoss	True
186.07	2.732	Lose2	0.8946999999999999	n/a	Yes	2.732	n/a	n/a	GoodResponse	0	0.0	n/a	5	18	ISIslide	AvoidedLoss	True
188.829	0.25	Control	0.9	0.0	Yes	2.921	0.029	n/a	GoodResponse	0	n/a	n/a	5	19	Cue	Neutral	True
189.079	3.95	Control	0.9	0.001	Yes	2.921	0.0	n/a	GoodResponse	0	n/a	n/a	5	19	Fixation	Neutral	True
193.025	0.25	Control	0.9	0.004	Yes	2.921	-0.004	2.0	GoodResponse	0	0.238	192.263	5	19	Target	Neutral	True
193.263	0.3	Control	0.9	0.004	Yes	2.921	-0.004	2.0	GoodResponse	0	0.238	n/a	5	19	ButtonPress	Neutral	True
193.275	0.45	Control	0.9	n/a	Yes	2.921	n/a	n/a	GoodResponse	0	n/a	n/a	5	19	Blank	Neutral	True
193.727	1.45	Control	0.9	n/a	Yes	2.921	n/a	5.0	GoodResponse	0	0.007	192.734	5	19	Feedback	Neutral	True
195.181	2.921	Control	0.9	n/a	Yes	2.921	n/a	n/a	GoodResponse	0	0.0	n/a	5	19	ISIslide	Neutral	True
198.123	0.25	Control	0.9048	0.0	Yes	2.627	0.023	n/a	GoodResponse	0	n/a	n/a	5	20	Cue	Neutral	True
198.374	4.05	Control	0.9048	0.0	Yes	2.627	0.001	n/a	GoodResponse	0	n/a	n/a	5	20	Fixation	Neutral	True
202.419	0.24	Control	0.9048	0.004	Yes	2.627	-0.004	2.0	GoodResponse	0	0.212	201.631	5	20	Target	Neutral	True
202.631	0.3	Control	0.9048	0.004	Yes	2.627	-0.004	2.0	GoodResponse	0	0.212	n/a	5	20	ButtonPress	Neutral	True
202.67	0.46	Control	0.9048	n/a	Yes	2.627	n/a	n/a	GoodResponse	0	n/a	n/a	5	20	Blank	Neutral	True
203.121	1.45	Control	0.9048	n/a	Yes	2.627	n/a	5.0	GoodResponse	0	0.023	202.144	5	20	Feedback	Neutral	True
204.576	2.627	Control	0.9048	n/a	Yes	2.627	n/a	n/a	GoodResponse	0	0.0	n/a	5	20	ISIslide	Neutral	True
207.217	0.25	Control	0.8636	0.0	No	2.783	0.017	n/a	NoResponse	0	n/a	n/a	5	21	Cue	Neutral	False
207.468	4.1	Control	0.8636	0.0	No	2.783	0.001	n/a	NoResponse	0	n/a	n/a	5	21	Fixation	Neutral	False
211.563	0.23	Control	0.8636	0.004	No	2.783	-0.004	n/a	NoResponse	0	n/a	n/a	5	21	Target	Neutral	False
211.797	0.47	Control	0.8636	n/a	No	2.783	n/a	n/a	NoResponse	0	n/a	n/a	5	21	Blank	Neutral	False
212.266	1.45	Control	0.8636	n/a	No	2.783	n/a	5.0	NoResponse	0	0.001	211.267	5	21	Feedback	Neutral	False
213.72	2.783	Control	0.8636	n/a	No	2.783	n/a	n/a	NoResponse	0	0.0	n/a	5	21	ISIslide	Neutral	False
216.528	0.25	Control	0.8261	0.0	No	2.772	0.028	n/a	NoResponse	0	n/a	n/a	5	22	Cue	Neutral	True
216.779	4.0	Control	0.8261	0.0	No	2.772	0.001	n/a	NoResponse	0	n/a	n/a	5	22	Fixation	Neutral	True
220.774	0.22	Control	0.8261	0.004	No	2.772	-0.004	2.0	NoResponse	0	0.247	220.021	5	22	Target	Neutral	True
221.008	0.48	Control	0.8261	n/a	No	2.772	n/a	n/a	NoResponse	0	n/a	n/a	5	22	Blank	Neutral	True
221.021	0.3	Control	0.8261	0.004	No	2.772	-0.004	2.0	NoResponse	0	0.247	n/a	5	22	ButtonPress	Neutral	True
221.476	1.45	Control	0.8261	n/a	No	2.772	n/a	5.0	NoResponse	0	0.01	220.486	5	22	Feedback	Neutral	True
222.931	2.772	Control	0.8261	n/a	No	2.772	n/a	n/a	NoResponse	0	0.0	n/a	5	22	ISIslide	Neutral	True
225.722	0.25	Control	0.7917000000000001	0.001	No	2.778	0.022	n/a	NoResponse	0	n/a	n/a	5	23	Cue	Neutral	True
225.973	3.9	Control	0.7917000000000001	0.0	No	2.778	0.001	n/a	NoResponse	0	n/a	n/a	5	23	Fixation	Neutral	True
229.868	0.21	Control	0.7917000000000001	0.004	No	2.778	-0.004	2.0	NoResponse	0	0.294	229.162	5	23	Target	Neutral	True
230.086	0.49	Control	0.7917000000000001	n/a	No	2.778	n/a	n/a	NoResponse	0	n/a	n/a	5	23	Blank	Neutral	True
230.162	0.3	Control	0.7917000000000001	0.004	No	2.778	-0.004	2.0	NoResponse	0	0.294	n/a	5	23	ButtonPress	Neutral	True
230.57	1.45	Control	0.7917000000000001	n/a	No	2.778	n/a	5.0	NoResponse	0	0.037	229.607	5	23	Feedback	Neutral	True
232.025	2.778	Control	0.7917000000000001	n/a	No	2.778	n/a	n/a	NoResponse	0	0.0	n/a	5	23	ISIslide	Neutral	True
234.816	0.25	Win2	0.76	0.0	No	3.134	0.016	n/a	LatePress	0	n/a	n/a	5	24	Cue	MissedWin	True
235.067	3.95	Win2	0.76	0.0	No	3.134	0.001	n/a	LatePress	0	n/a	n/a	5	24	Fixation	MissedWin	True
239.012	0.2	Win2	0.76	0.004	No	3.134	-0.004	2.0	LatePress	0	0.202	238.214	5	24	Target	MissedWin	True
239.213	0.5	Win2	0.76	n/a	No	3.134	n/a	n/a	LatePress	0	n/a	n/a	5	24	Blank	MissedWin	True
239.214	0.3	Win2	0.76	0.004	No	3.134	-0.004	2.0	LatePress	0	0.202	n/a	5	24	ButtonPress	MissedWin	True
239.714	1.45	Win2	0.76	n/a	No	3.134	n/a	5.0	LatePress	0	0.015	238.729	5	24	Feedback	MissedWin	True
241.169	3.134	Win2	0.76	n/a	No	3.134	n/a	n/a	LatePress	0	0.0	n/a	5	24	ISIslide	MissedWin	True
244.328	0.25	Win2	0.7308	0.0	No	3.072	0.028	n/a	NoResponse	0	n/a	n/a	5	25	Cue	MissedWin	True
244.579	4.0	Win2	0.7308	0.0	No	3.072	0.001	n/a	NoResponse	0	n/a	n/a	5	25	Fixation	MissedWin	True
248.574	0.19	Win2	0.7308	0.004	No	3.072	-0.004	2.0	NoResponse	0	0.214	247.788	5	25	Target	MissedWin	True
248.775	0.51	Win2	0.7308	n/a	No	3.072	n/a	n/a	NoResponse	0	n/a	n/a	5	25	Blank	MissedWin	True
248.788	0.3	Win2	0.7308	0.004	No	3.072	-0.004	2.0	NoResponse	0	0.214	n/a	5	25	ButtonPress	MissedWin	True
249.276	1.45	Win2	0.7308	n/a	No	3.072	n/a	5.0	NoResponse	0	0.014	248.29	5	25	Feedback	MissedWin	True
250.731	3.072	Win2	0.7308	n/a	No	3.072	n/a	n/a	NoResponse	0	0.0	n/a	5	25	ISIslide	MissedWin	True
253.823	0.25	Win2	0.7037	0.0	No	2.927	0.023	n/a	NoResponse	0	n/a	n/a	5	26	Cue	MissedWin	True
254.074	3.95	Win2	0.7037	0.0	No	2.927	0.001	n/a	NoResponse	0	n/a	n/a	5	26	Fixation	MissedWin	True
258.019	0.18	Win2	0.7037	0.004	No	2.927	-0.004	2.0	NoResponse	0	0.204	257.223	5	26	Target	MissedWin	True
258.203	0.52	Win2	0.7037	n/a	No	2.927	n/a	n/a	NoResponse	0	n/a	n/a	5	26	Blank	MissedWin	True
258.223	0.3	Win2	0.7037	0.004	No	2.927	-0.004	2.0	NoResponse	0	0.204	n/a	5	26	ButtonPress	MissedWin	True
258.721	1.45	Win2	0.7037	n/a	No	2.927	n/a	5.0	NoResponse	0	0.033	257.754	5	26	Feedback	MissedWin	True
260.176	2.927	Win2	0.7037	n/a	No	2.927	n/a	n/a	NoResponse	0	0.0	n/a	5	26	ISIslide	MissedWin	True
263.118	0.25	Lose2	0.6786	0.0	No	2.832	0.018	n/a	NoResponse	-1	n/a	n/a	4	27	Cue	Loss	True
263.368	4.05	Lose2	0.6786	0.001	No	2.832	0.0	n/a	NoResponse	-1	n/a	n/a	4	27	Fixation	Loss	True
267.414	0.17	Lose2	0.6786	0.004	No	2.832	-0.004	2.0	NoResponse	-1	0.212	266.626	4	27	Target	Loss	True
267.598	0.53	Lose2	0.6786	n/a	No	2.832	n/a	n/a	NoResponse	-1	n/a	n/a	4	27	Blank	Loss	True
267.626	0.3	Lose2	0.6786	0.004	No	2.832	-0.004	2.0	NoResponse	-1	0.212	n/a	4	27	ButtonPress	Loss	True
268.116	1.45	Lose2	0.6786	n/a	No	2.832	n/a	5.0	NoResponse	-1	0.007	267.123	4	27	Feedback	Loss	True
269.57	2.832	Lose2	0.6786	n/a	No	2.832	n/a	n/a	NoResponse	-1	0.0	n/a	4	27	ISIslide	Loss	True
272.429	0.25	Control	0.6552	0.0	No	2.821	0.029	n/a	NoResponse	0	n/a	n/a	4	28	Cue	Neutral	True
272.68	4.05	Control	0.6552	0.0	No	2.821	0.001	n/a	NoResponse	0	n/a	n/a	4	28	Fixation	Neutral	True
276.725	0.16	Control	0.6552	0.004	No	2.821	-0.004	2.0	NoResponse	0	0.235	275.96	4	28	Target	Neutral	True
276.892	0.54	Control	0.6552	n/a	No	2.821	n/a	n/a	NoResponse	0	n/a	n/a	4	28	Blank	Neutral	True
276.96	0.3	Control	0.6552	0.004	No	2.821	-0.004	2.0	NoResponse	0	0.235	n/a	4	28	ButtonPress	Neutral	True
277.427	1.45	Control	0.6552	n/a	No	2.821	n/a	5.0	NoResponse	0	0.009	276.436	4	28	Feedback	Neutral	True
278.882	2.821	Control	0.6552	n/a	No	2.821	n/a	n/a	NoResponse	0	0.0	n/a	4	28	ISIslide	Neutral	True
281.723	0.25	Lose2	0.6333	0.001	No	2.827	0.023	n/a	NoResponse	-1	n/a	n/a	3	29	Cue	Loss	True
281.974	3.95	Lose2	0.6333	0.0	No	2.827	0.001	n/a	NoResponse	-1	n/a	n/a	3	29	Fixation	Loss	True
285.919	0.16	Lose2	0.6333	0.004	No	2.827	-0.004	2.0	NoResponse	-1	0.288	285.207	3	29	Target	Loss	True
286.086	0.54	Lose2	0.6333	n/a	No	2.827	n/a	n/a	NoResponse	-1	n/a	n/a	3	29	Blank	Loss	True
286.207	0.3	Lose2	0.6333	0.004	No	2.827	-0.004	2.0	NoResponse	-1	0.288	n/a	3	29	ButtonPress	Loss	True
286.621	1.45	Lose2	0.6333	n/a	No	2.827	n/a	5.0	NoResponse	-1	0.035	285.656	3	29	Feedback	Loss	True
288.076	2.827	Lose2	0.6333	n/a	No	2.827	n/a	n/a	NoResponse	-1	0.0	n/a	3	29	ISIslide	Loss	True
290.918	0.25	Win2	0.6129	0.0	No	2.782	0.018	n/a	NoResponse	0	n/a	n/a	3	30	Cue	MissedWin	True
291.168	3.9	Win2	0.6129	0.0	No	2.782	0.0	n/a	NoResponse	0	n/a	n/a	3	30	Fixation	MissedWin	True
295.08	0.17	Win2	0.6129	0.0	No	2.782	0.012	2.0	NoResponse	0	0.26	294.34	3	30	Target	MissedWin	True
295.247	0.53	Win2	0.6129	n/a	No	2.782	n/a	n/a	NoResponse	0	n/a	n/a	3	30	Blank	MissedWin	True
295.34	0.3	Win2	0.6129	0.0	No	2.782	0.012	2.0	NoResponse	0	0.26	n/a	3	30	ButtonPress	MissedWin	True
295.765	1.45	Win2	0.6129	n/a	No	2.782	n/a	5.0	NoResponse	0	0.013	294.778	3	30	Feedback	MissedWin	True
297.22	2.782	Win2	0.6129	n/a	No	2.782	n/a	n/a	NoResponse	0	0.0	n/a	3	30	ISIslide	MissedWin	True
300.028	0.25	Lose2	0.5938	0.0	No	2.822	0.028	n/a	LatePress	-1	n/a	n/a	2	31	Cue	Loss	True
300.279	4.05	Lose2	0.5938	0.0	No	2.822	0.001	n/a	LatePress	-1	n/a	n/a	2	31	Fixation	Loss	True
304.324	0.18	Lose2	0.5938	0.004	No	2.822	-0.004	2.0	LatePress	-1	0.183	303.507	2	31	Target	Loss	True
304.507	0.3	Lose2	0.5938	0.004	No	2.822	-0.004	2.0	LatePress	-1	0.183	n/a	2	31	ButtonPress	Loss	True
304.508	0.52	Lose2	0.5938	n/a	No	2.822	n/a	n/a	LatePress	-1	n/a	n/a	2	31	Blank	Loss	True
305.027	1.45	Lose2	0.5938	n/a	No	2.822	n/a	5.0	LatePress	-1	0.019	304.046	2	31	Feedback	Loss	True
306.481	2.822	Lose2	0.5938	n/a	No	2.822	n/a	n/a	LatePress	-1	0.0	n/a	2	31	ISIslide	Loss	True
309.323	0.25	Lose2	0.5758	0.0	No	2.627	0.023	n/a	LatePress	-1	n/a	n/a	1	32	Cue	Loss	False
309.573	4.15	Lose2	0.5758	0.001	No	2.627	0.0	2.0	LatePress	-1	3.416	311.989	1	32	Fixation	Loss	False
312.989	0.3	Lose2	0.5758	0.001	No	2.627	0.0	2.0	LatePress	-1	3.416	n/a	1	32	ButtonPress	Loss	False
313.719	0.19	Lose2	0.5758	0.004	No	2.627	-0.004	2.0	LatePress	-1	0.194	312.913	1	32	Target	Loss	False
313.913	0.3	Lose2	0.5758	0.004	No	2.627	-0.004	2.0	LatePress	-1	0.194	n/a	1	32	ButtonPress	Loss	False
313.92	0.51	Lose2	0.5758	n/a	No	2.627	n/a	n/a	LatePress	-1	n/a	n/a	1	32	Blank	Loss	False
314.421	1.45	Lose2	0.5758	n/a	No	2.627	n/a	5.0	LatePress	-1	0.04	313.461	1	32	Feedback	Loss	False
315.876	2.627	Lose2	0.5758	n/a	No	2.627	n/a	n/a	LatePress	-1	0.0	n/a	1	32	ISIslide	Loss	False
318.517	0.25	Win2	0.5588000000000001	0.0	No	2.683	0.017	n/a	NoResponse	0	n/a	n/a	1	33	Cue	MissedWin	True
318.768	4.0	Win2	0.5588000000000001	0.0	No	2.683	0.001	n/a	NoResponse	0	n/a	n/a	1	33	Fixation	MissedWin	True
322.763	0.2	Win2	0.5588000000000001	0.004	No	2.683	-0.004	2.0	NoResponse	0	0.306	322.069	1	33	Target	MissedWin	True
322.964	0.5	Win2	0.5588000000000001	n/a	No	2.683	n/a	n/a	NoResponse	0	n/a	n/a	1	33	Blank	MissedWin	True
323.069	0.3	Win2	0.5588000000000001	0.004	No	2.683	-0.004	2.0	NoResponse	0	0.306	n/a	1	33	ButtonPress	MissedWin	True
323.465	1.45	Win2	0.5588000000000001	n/a	No	2.683	n/a	5.0	NoResponse	0	0.02	322.485	1	33	Feedback	MissedWin	True
324.919	2.683	Win2	0.5588000000000001	n/a	No	2.683	n/a	n/a	NoResponse	0	0.0	n/a	1	33	ISIslide	MissedWin	True
327.627	0.25	Lose2	0.5428999999999999	0.001	No	2.623	0.027	n/a	NoResponse	-1	n/a	n/a	0	34	Cue	Loss	True
327.878	4.05	Lose2	0.5428999999999999	0.0	No	2.623	0.001	n/a	NoResponse	-1	n/a	n/a	0	34	Fixation	Loss	True
331.924	0.21	Lose2	0.5428999999999999	0.003	No	2.623	-0.003	2.0	NoResponse	-1	0.327	331.251	0	34	Target	Loss	True
332.141	0.49	Lose2	0.5428999999999999	n/a	No	2.623	n/a	n/a	NoResponse	-1	n/a	n/a	0	34	Blank	Loss	True
332.251	0.3	Lose2	0.5428999999999999	0.003	No	2.623	-0.003	2.0	NoResponse	-1	0.327	n/a	0	34	ButtonPress	Loss	True
332.626	1.45	Lose2	0.5428999999999999	n/a	No	2.623	n/a	5.0	NoResponse	-1	0.029	331.655	0	34	Feedback	Loss	True
334.08	2.623	Lose2	0.5428999999999999	n/a	No	2.623	n/a	n/a	NoResponse	-1	0.0	n/a	0	34	ISIslide	Loss	True
336.721	0.25	Lose2	0.5278	0.0	No	2.679	0.021	n/a	NoResponse	-1	n/a	n/a	-1	35	Cue	Loss	True
336.972	4.0	Lose2	0.5278	0.0	No	2.679	0.001	n/a	NoResponse	-1	n/a	n/a	-1	35	Fixation	Loss	True
340.967	0.22	Lose2	0.5278	0.004	No	2.679	-0.004	2.0	NoResponse	-1	0.318	340.285	-1	35	Target	Loss	True
341.201	0.48	Lose2	0.5278	n/a	No	2.679	n/a	n/a	NoResponse	-1	n/a	n/a	-1	35	Blank	Loss	True
341.285	0.3	Lose2	0.5278	0.004	No	2.679	-0.004	2.0	NoResponse	-1	0.318	n/a	-1	35	ButtonPress	Loss	True
341.67	1.45	Lose2	0.5278	n/a	No	2.679	n/a	5.0	NoResponse	-1	0.009	340.679	-1	35	Feedback	Loss	True
343.124	2.679	Lose2	0.5278	n/a	No	2.679	n/a	n/a	NoResponse	-1	0.0	n/a	-1	35	ISIslide	Loss	True
345.815	0.25	Control	0.5135000000000001	0.0	No	2.685	0.015	n/a	NoResponse	0	n/a	n/a	-1	36	Cue	Neutral	True
346.066	4.0	Control	0.5135000000000001	0.0	No	2.685	0.001	n/a	NoResponse	0	n/a	n/a	-1	36	Fixation	Neutral	True
350.061	0.23	Control	0.5135000000000001	0.004	No	2.685	-0.004	2.0	NoResponse	0	0.364	349.425	-1	36	Target	Neutral	True
350.295	0.47	Control	0.5135000000000001	n/a	No	2.685	n/a	n/a	NoResponse	0	n/a	n/a	-1	36	Blank	Neutral	True
350.425	0.3	Control	0.5135000000000001	0.004	No	2.685	-0.004	2.0	NoResponse	0	0.364	n/a	-1	36	ButtonPress	Neutral	True
350.763	1.45	Control	0.5135000000000001	n/a	No	2.685	n/a	5.0	NoResponse	0	0.039	349.802	-1	36	Feedback	Neutral	True
352.218	2.685	Control	0.5135000000000001	n/a	No	2.685	n/a	n/a	NoResponse	0	0.0	n/a	-1	36	ISIslide	Neutral	True
354.926	0.25	Win2	0.5	0.0	No	2.874	0.026	n/a	LatePress	0	n/a	n/a	-1	37	Cue	MissedWin	True
355.177	4.0	Win2	0.5	0.0	No	2.874	0.001	n/a	LatePress	0	n/a	n/a	-1	37	Fixation	MissedWin	True
359.172	0.24	Win2	0.5	0.004	No	2.874	-0.004	2.0	LatePress	0	0.24	358.412	-1	37	Target	MissedWin	True
359.412	0.3	Win2	0.5	0.004	No	2.874	-0.004	2.0	LatePress	0	0.24	n/a	-1	37	ButtonPress	MissedWin	True
359.423	0.46	Win2	0.5	n/a	No	2.874	n/a	n/a	LatePress	0	n/a	n/a	-1	37	Blank	MissedWin	True
359.874	1.45	Win2	0.5	n/a	No	2.874	n/a	5.0	LatePress	0	0.001	358.875	-1	37	Feedback	MissedWin	True
361.328	2.874	Win2	0.5	n/a	No	2.874	n/a	n/a	LatePress	0	0.0	n/a	-1	37	ISIslide	MissedWin	True
364.22	0.25	Lose2	0.48719999999999997	0.0	No	2.83	0.02	n/a	NoResponse	-1	n/a	n/a	-2	38	Cue	Loss	True
364.471	3.95	Lose2	0.48719999999999997	0.0	No	2.83	0.001	n/a	NoResponse	-1	n/a	n/a	-2	38	Fixation	Loss	True
368.416	0.25	Lose2	0.48719999999999997	0.004	No	2.83	-0.004	2.0	NoResponse	-1	0.255	367.671	-2	38	Target	Loss	True
368.667	0.45	Lose2	0.48719999999999997	n/a	No	2.83	n/a	n/a	NoResponse	-1	n/a	n/a	-2	38	Blank	Loss	True
368.671	0.3	Lose2	0.48719999999999997	0.004	No	2.83	-0.004	2.0	NoResponse	-1	0.255	n/a	-2	38	ButtonPress	Loss	True
369.118	1.45	Lose2	0.48719999999999997	n/a	No	2.83	n/a	5.0	NoResponse	-1	0.025	368.143	-2	38	Feedback	Loss	True
370.573	2.83	Lose2	0.48719999999999997	n/a	No	2.83	n/a	n/a	NoResponse	-1	0.0	n/a	-2	38	ISIslide	Loss	True
373.415	0.25	Win2	0.5	0.0	Yes	2.985	0.015	n/a	GoodResponse	1	n/a	n/a	-1	39	Cue	Win	True
373.665	4.1	Win2	0.5	0.0	Yes	2.985	0.0	n/a	GoodResponse	1	n/a	n/a	-1	39	Fixation	Win	True
377.761	0.26	Win2	0.5	0.004	Yes	2.985	-0.004	2.0	GoodResponse	1	0.208	376.969	-1	39	Target	Win	True
377.969	0.3	Win2	0.5	0.004	Yes	2.985	-0.004	2.0	GoodResponse	1	0.208	n/a	-1	39	ButtonPress	Win	True
378.028	0.44	Win2	0.5	n/a	Yes	2.985	n/a	n/a	GoodResponse	1	n/a	n/a	-1	39	Blank	Win	True
378.463	1.45	Win2	0.5	n/a	Yes	2.985	n/a	5.0	GoodResponse	1	0.045	377.508	-1	39	Feedback	Win	True
379.917	2.985	Win2	0.5	n/a	Yes	2.985	n/a	n/a	GoodResponse	1	0.0	n/a	-1	39	ISIslide	Win	True
382.926	0.25	Win2	0.4878	0.0	No	2.724	0.026	n/a	NoResponse	0	n/a	n/a	-1	40	Cue	MissedWin	False
383.177	3.95	Win2	0.4878	0.0	No	2.724	0.001	n/a	NoResponse	0	n/a	n/a	-1	40	Fixation	MissedWin	False
387.122	0.27	Win2	0.4878	0.004	No	2.724	-0.004	n/a	NoResponse	0	n/a	n/a	-1	40	Target	MissedWin	False
387.406	0.43	Win2	0.4878	n/a	No	2.724	n/a	n/a	NoResponse	0	n/a	n/a	-1	40	Blank	MissedWin	False
387.824	1.45	Win2	0.4878	n/a	No	2.724	n/a	5.0	NoResponse	0	0.001	386.825	-1	40	Feedback	MissedWin	False
389.279	2.724	Win2	0.4878	n/a	No	2.724	n/a	n/a	NoResponse	0	0.0	n/a	-1	40	ISIslide	MissedWin	False
392.02	0.25	Win2	0.5	0.0	Yes	2.78	0.02	n/a	GoodResponse	1	n/a	n/a	0	41	Cue	Win	True
392.271	3.9	Win2	0.5	0.0	Yes	2.78	0.001	n/a	GoodResponse	1	n/a	n/a	0	41	Fixation	Win	True
396.166	0.28	Win2	0.5	0.004	Yes	2.78	-0.004	2.0	GoodResponse	1	0.248	395.414	0	41	Target	Win	True
396.414	0.3	Win2	0.5	0.004	Yes	2.78	-0.004	2.0	GoodResponse	1	0.248	n/a	0	41	ButtonPress	Win	True
396.45	0.42	Win2	0.5	n/a	Yes	2.78	n/a	n/a	GoodResponse	1	n/a	n/a	0	41	Blank	Win	True
396.868	1.45	Win2	0.5	n/a	Yes	2.78	n/a	5.0	GoodResponse	1	0.031	395.899	0	41	Feedback	Win	True
398.322	2.78	Win2	0.5	n/a	Yes	2.78	n/a	n/a	GoodResponse	1	0.0	n/a	0	41	ISIslide	Win	True
401.114	0.25	Control	0.5115999999999999	0.0	Yes	2.936	0.014	n/a	GoodResponse	0	n/a	n/a	0	42	Cue	Neutral	True
401.365	3.85	Control	0.5115999999999999	0.0	Yes	2.936	0.001	n/a	GoodResponse	0	n/a	n/a	0	42	Fixation	Neutral	True
405.21	0.29	Control	0.5115999999999999	0.004	Yes	2.936	-0.004	2.0	GoodResponse	0	0.217	404.427	0	42	Target	Neutral	True
405.427	0.3	Control	0.5115999999999999	0.004	Yes	2.936	-0.004	2.0	GoodResponse	0	0.217	n/a	0	42	ButtonPress	Neutral	True
405.511	0.41	Control	0.5115999999999999	n/a	Yes	2.936	n/a	n/a	GoodResponse	0	n/a	n/a	0	42	Blank	Neutral	True
405.912	1.45	Control	0.5115999999999999	n/a	Yes	2.936	n/a	5.0	GoodResponse	0	0.011	404.923	0	42	Feedback	Neutral	True
407.366	2.936	Control	0.5115999999999999	n/a	Yes	2.936	n/a	n/a	GoodResponse	0	0.0	n/a	0	42	ISIslide	Neutral	True
410.325	0.25	Win2	0.5227	0.0	Yes	3.175	0.025	n/a	GoodResponse	1	n/a	n/a	1	43	Cue	Win	True
410.576	4.0	Win2	0.5227	0.0	Yes	3.175	0.001	n/a	GoodResponse	1	n/a	n/a	1	43	Fixation	Win	True
414.571	0.3	Win2	0.5227	0.004	Yes	3.175	-0.004	2.0	GoodResponse	1	0.256	413.827	1	43	Target	Win	True
414.827	0.3	Win2	0.5227	0.004	Yes	3.175	-0.004	2.0	GoodResponse	1	0.256	n/a	1	43	ButtonPress	Win	True
414.872	0.4	Win2	0.5227	n/a	Yes	3.175	n/a	n/a	GoodResponse	1	n/a	n/a	1	43	Blank	Win	True
415.273	1.45	Win2	0.5227	n/a	Yes	3.175	n/a	5.0	GoodResponse	1	0.016	414.289	1	43	Feedback	Win	True
416.728	3.175	Win2	0.5227	n/a	Yes	3.175	n/a	n/a	GoodResponse	1	0.0	n/a	1	43	ISIslide	Win	True
419.92	0.25	Win2	0.5111	0.0	No	2.98	0.02	n/a	NoResponse	0	n/a	n/a	1	44	Cue	MissedWin	True
420.171	4.0	Win2	0.5111	0.0	No	2.98	0.001	n/a	NoResponse	0	n/a	n/a	1	44	Fixation	MissedWin	True
424.166	0.31	Win2	0.5111	0.004	No	2.98	-0.004	2.0	NoResponse	0	0.402	423.568	1	44	Target	MissedWin	True
424.484	0.39	Win2	0.5111	n/a	No	2.98	n/a	n/a	NoResponse	0	n/a	n/a	1	44	Blank	MissedWin	True
424.568	0.3	Win2	0.5111	0.004	No	2.98	-0.004	2.0	NoResponse	0	0.402	n/a	1	44	ButtonPress	MissedWin	True
424.869	1.45	Win2	0.5111	n/a	No	2.98	n/a	5.0	NoResponse	0	0.03	423.899	1	44	Feedback	MissedWin	True
426.323	2.98	Win2	0.5111	n/a	No	2.98	n/a	n/a	NoResponse	0	0.0	n/a	1	44	ISIslide	MissedWin	True
429.315	0.25	Control	0.5217	0.0	Yes	2.885	0.015	n/a	GoodResponse	0	n/a	n/a	1	45	Cue	Neutral	True
429.566	4.1	Control	0.5217	0.0	Yes	2.885	0.001	n/a	GoodResponse	0	n/a	n/a	1	45	Fixation	Neutral	True
433.662	0.32	Control	0.5217	0.003	Yes	2.885	-0.003	2.0	GoodResponse	0	0.238	432.9	1	45	Target	Neutral	True
433.9	0.3	Control	0.5217	0.003	Yes	2.885	-0.003	2.0	GoodResponse	0	0.238	n/a	1	45	ButtonPress	Neutral	True
433.996	0.38	Control	0.5217	n/a	Yes	2.885	n/a	n/a	GoodResponse	0	n/a	n/a	1	45	Blank	Neutral	True
434.364	1.45	Control	0.5217	n/a	Yes	2.885	n/a	5.0	GoodResponse	0	0.046	433.41	1	45	Feedback	Neutral	True
435.818	2.885	Control	0.5217	n/a	Yes	2.885	n/a	n/a	GoodResponse	0	0.0	n/a	1	45	ISIslide	Neutral	True
438.727	0.25	Lose2	0.5318999999999999	0.0	Yes	3.373	0.027	n/a	GoodResponse	0	n/a	n/a	1	46	Cue	AvoidedLoss	True
438.977	4.0	Lose2	0.5318999999999999	0.001	Yes	3.373	0.0	n/a	GoodResponse	0	n/a	n/a	1	46	Fixation	AvoidedLoss	True
442.973	0.33	Lose2	0.5318999999999999	0.004	Yes	3.373	-0.004	2.0	GoodResponse	0	0.252	442.225	1	46	Target	AvoidedLoss	True
443.225	0.3	Lose2	0.5318999999999999	0.004	Yes	3.373	-0.004	2.0	GoodResponse	0	0.252	n/a	1	46	ButtonPress	AvoidedLoss	True
443.307	0.37	Lose2	0.5318999999999999	n/a	Yes	3.373	n/a	n/a	GoodResponse	0	n/a	n/a	1	46	Blank	AvoidedLoss	True
443.675	1.45	Lose2	0.5318999999999999	n/a	Yes	3.373	n/a	5.0	GoodResponse	0	0.007	442.682	1	46	Feedback	AvoidedLoss	True
445.129	3.373	Lose2	0.5318999999999999	n/a	Yes	3.373	n/a	n/a	GoodResponse	0	0.0	n/a	1	46	ISIslide	AvoidedLoss	True
448.523	0.25	Lose2	0.5417000000000001	0.0	Yes	2.677	0.023	n/a	GoodResponse	0	n/a	n/a	1	47	Cue	AvoidedLoss	True
448.773	4.0	Lose2	0.5417000000000001	0.001	Yes	2.677	0.0	n/a	GoodResponse	0	n/a	n/a	1	47	Fixation	AvoidedLoss	True
452.769	0.34	Lose2	0.5417000000000001	0.004	Yes	2.677	-0.004	2.0	GoodResponse	0	0.267	452.036	1	47	Target	AvoidedLoss	True
453.036	0.3	Lose2	0.5417000000000001	0.004	Yes	2.677	-0.004	2.0	GoodResponse	0	0.267	n/a	1	47	ButtonPress	AvoidedLoss	True
453.12	0.36	Lose2	0.5417000000000001	n/a	Yes	2.677	n/a	n/a	GoodResponse	0	n/a	n/a	1	47	Blank	AvoidedLoss	True
453.471	1.45	Lose2	0.5417000000000001	n/a	Yes	2.677	n/a	5.0	GoodResponse	0	0.013	452.484	1	47	Feedback	AvoidedLoss	True
454.925	2.677	Lose2	0.5417000000000001	n/a	Yes	2.677	n/a	n/a	GoodResponse	0	0.0	n/a	1	47	ISIslide	AvoidedLoss	True
457.617	0.25	Lose2	0.5306000000000001	0.0	No	3.033	0.017	n/a	NoResponse	-1	n/a	n/a	0	48	Cue	Loss	True
457.867	3.95	Lose2	0.5306000000000001	0.0	No	3.033	0.0	n/a	NoResponse	-1	n/a	n/a	0	48	Fixation	Loss	True
461.829	0.35	Lose2	0.5306000000000001	0.0	No	3.033	0.012	2.0	NoResponse	-1	0.379	461.208	0	48	Target	Loss	True
462.164	0.35	Lose2	0.5306000000000001	n/a	No	3.033	n/a	n/a	NoResponse	-1	n/a	n/a	0	48	Blank	Loss	True
462.208	0.3	Lose2	0.5306000000000001	0.0	No	3.033	0.012	2.0	NoResponse	-1	0.379	n/a	0	48	ButtonPress	Loss	True
462.515	1.45	Lose2	0.5306000000000001	n/a	No	3.033	n/a	5.0	NoResponse	-1	0.042	461.557	0	48	Feedback	Loss	True
463.969	3.033	Lose2	0.5306000000000001	n/a	No	3.033	n/a	n/a	NoResponse	-1	0.0	n/a	0	48	ISIslide	Loss	True
467.028	0.25	Control	0.54	0.0	Yes	2.872	0.028	n/a	GoodResponse	0	n/a	n/a	0	49	Cue	Neutral	True
467.279	4.0	Control	0.54	0.0	Yes	2.872	0.001	n/a	GoodResponse	0	n/a	n/a	0	49	Fixation	Neutral	True
471.274	0.36	Control	0.54	0.004	Yes	2.872	-0.004	2.0	GoodResponse	0	0.267	470.541	0	49	Target	Neutral	True
471.541	0.3	Control	0.54	0.004	Yes	2.872	-0.004	2.0	GoodResponse	0	0.267	n/a	0	49	ButtonPress	Neutral	True
471.642	0.34	Control	0.54	n/a	Yes	2.872	n/a	n/a	GoodResponse	0	n/a	n/a	0	49	Blank	Neutral	True
471.976	1.45	Control	0.54	n/a	Yes	2.872	n/a	5.0	GoodResponse	0	0.044	471.02	0	49	Feedback	Neutral	True
473.431	2.872	Control	0.54	n/a	Yes	2.872	n/a	n/a	GoodResponse	0	0.0	n/a	0	49	ISIslide	Neutral	True
476.323	0.25	Control	0.5489999999999999	0.0	Yes	2.777	0.023	n/a	GoodResponse	0	n/a	n/a	0	50	Cue	Neutral	True
476.573	4.0	Control	0.5489999999999999	0.0	Yes	2.777	0.0	n/a	GoodResponse	0	n/a	n/a	0	50	Fixation	Neutral	True
480.569	0.37	Control	0.5489999999999999	0.004	Yes	2.777	-0.004	2.0	GoodResponse	0	0.211	479.78	0	50	Target	Neutral	True
480.78	0.3	Control	0.5489999999999999	0.004	Yes	2.777	-0.004	2.0	GoodResponse	0	0.211	n/a	0	50	ButtonPress	Neutral	True
480.953	0.33	Control	0.5489999999999999	n/a	Yes	2.777	n/a	n/a	GoodResponse	0	n/a	n/a	0	50	Blank	Neutral	True
481.271	1.45	Control	0.5489999999999999	n/a	Yes	2.777	n/a	5.0	GoodResponse	0	0.017	480.288	0	50	Feedback	Neutral	True
482.725	2.777	Control	0.5489999999999999	n/a	Yes	2.777	n/a	n/a	GoodResponse	0	0.0	n/a	0	50	ISIslide	Neutral	True
485.517	0.25	Control	0.5577000000000001	0.0	Yes	2.733	0.017	n/a	GoodResponse	0	n/a	n/a	0	51	Cue	Neutral	True
485.768	3.95	Control	0.5577000000000001	0.0	Yes	2.733	0.001	n/a	GoodResponse	0	n/a	n/a	0	51	Fixation	Neutral	True
489.713	0.38	Control	0.5577000000000001	0.004	Yes	2.733	-0.004	2.0	GoodResponse	0	0.231	488.944	0	51	Target	Neutral	True
489.944	0.3	Control	0.5577000000000001	0.004	Yes	2.733	-0.004	2.0	GoodResponse	0	0.231	n/a	0	51	ButtonPress	Neutral	True
490.097	0.32	Control	0.5577000000000001	n/a	Yes	2.733	n/a	n/a	GoodResponse	0	n/a	n/a	0	51	Blank	Neutral	True
490.415	1.45	Control	0.5577000000000001	n/a	Yes	2.733	n/a	5.0	GoodResponse	0	0.044	489.459	0	51	Feedback	Neutral	True
491.869	2.733	Control	0.5577000000000001	n/a	Yes	2.733	n/a	n/a	GoodResponse	0	0.0	n/a	0	51	ISIslide	Neutral	True
494.627	0.25	Control	0.5660000000000001	0.0	Yes	2.623	0.027	n/a	GoodResponse	0	n/a	n/a	0	52	Cue	Neutral	True
494.878	4.05	Control	0.5660000000000001	0.0	Yes	2.623	0.001	n/a	GoodResponse	0	n/a	n/a	0	52	Fixation	Neutral	True
498.924	0.39	Control	0.5660000000000001	0.003	Yes	2.623	-0.003	2.0	GoodResponse	0	0.246	498.17	0	52	Target	Neutral	True
499.17	0.3	Control	0.5660000000000001	0.003	Yes	2.623	-0.003	2.0	GoodResponse	0	0.246	n/a	0	52	ButtonPress	Neutral	True
499.325	0.31	Control	0.5660000000000001	n/a	Yes	2.623	n/a	n/a	GoodResponse	0	n/a	n/a	0	52	Blank	Neutral	True
499.626	1.45	Control	0.5660000000000001	n/a	Yes	2.623	n/a	5.0	GoodResponse	0	0.006	498.632	0	52	Feedback	Neutral	True
501.08	2.623	Control	0.5660000000000001	n/a	Yes	2.623	n/a	n/a	GoodResponse	0	0.0	n/a	0	52	ISIslide	Neutral	True
503.721	0.25	Win2	0.5740999999999999	0.0	Yes	2.929	0.021	n/a	GoodResponse	1	n/a	n/a	1	53	Cue	Win	True
503.972	4.05	Win2	0.5740999999999999	0.0	Yes	2.929	0.001	n/a	GoodResponse	1	n/a	n/a	1	53	Fixation	Win	True
508.017	0.4	Win2	0.5740999999999999	0.004	Yes	2.929	-0.004	2.0	GoodResponse	1	0.282	507.299	1	53	Target	Win	True
508.299	0.3	Win2	0.5740999999999999	0.004	Yes	2.929	-0.004	2.0	GoodResponse	1	0.282	n/a	1	53	ButtonPress	Win	True
508.419	0.3	Win2	0.5740999999999999	n/a	Yes	2.929	n/a	n/a	GoodResponse	1	n/a	n/a	1	53	Blank	Win	True
508.72	1.45	Win2	0.5740999999999999	n/a	Yes	2.929	n/a	5.0	GoodResponse	1	0.031	507.751	1	53	Feedback	Win	True
510.174	2.929	Win2	0.5740999999999999	n/a	Yes	2.929	n/a	n/a	GoodResponse	1	0.0	n/a	1	53	ISIslide	Win	True
513.116	0.25	Win2	0.5818	0.0	Yes	2.734	0.016	n/a	GoodResponse	1	n/a	n/a	2	54	Cue	Win	True
513.367	3.95	Win2	0.5818	0.0	Yes	2.734	0.001	n/a	GoodResponse	1	n/a	n/a	2	54	Fixation	Win	True
517.312	0.41	Win2	0.5818	0.004	Yes	2.734	-0.004	2.0	GoodResponse	1	0.327	516.639	2	54	Target	Win	True
517.639	0.3	Win2	0.5818	0.004	Yes	2.734	-0.004	2.0	GoodResponse	1	0.327	n/a	2	54	ButtonPress	Win	True
517.73	0.29	Win2	0.5818	n/a	Yes	2.734	n/a	n/a	GoodResponse	1	n/a	n/a	2	54	Blank	Win	True
518.014	1.45	Win2	0.5818	n/a	Yes	2.734	n/a	5.0	GoodResponse	1	0.007	517.021	2	54	Feedback	Win	True
519.468	2.734	Win2	0.5818	n/a	Yes	2.734	n/a	n/a	GoodResponse	1	0.0	n/a	2	54	ISIslide	Win	True
522.227	0.25	Control	0.5893	0.0	Yes	3.023	0.027	n/a	GoodResponse	0	n/a	n/a	2	55	Cue	Neutral	True
522.477	3.95	Control	0.5893	0.0	Yes	3.023	0.0	n/a	GoodResponse	0	n/a	n/a	2	55	Fixation	Neutral	True
526.423	0.42	Control	0.5893	0.004	Yes	3.023	-0.004	2.0	GoodResponse	0	0.29	525.713	2	55	Target	Neutral	True
526.713	0.3	Control	0.5893	0.004	Yes	3.023	-0.004	2.0	GoodResponse	0	0.29	n/a	2	55	ButtonPress	Neutral	True
526.857	0.28	Control	0.5893	n/a	Yes	3.023	n/a	n/a	GoodResponse	0	n/a	n/a	2	55	Blank	Neutral	True
527.125	1.45	Control	0.5893	n/a	Yes	3.023	n/a	5.0	GoodResponse	0	0.017	526.142	2	55	Feedback	Neutral	True
528.579	3.023	Control	0.5893	n/a	Yes	3.023	n/a	n/a	GoodResponse	0	0.0	n/a	2	55	ISIslide	Neutral	True
531.621	0.25	Control	0.5965	0.001	Yes	2.829	0.021	n/a	GoodResponse	0	n/a	n/a	2	56	Cue	Neutral	True
531.872	3.95	Control	0.5965	0.0	Yes	2.829	0.001	n/a	GoodResponse	0	n/a	n/a	2	56	Fixation	Neutral	True
535.817	0.43	Control	0.5965	0.004	Yes	2.829	-0.004	2.0	GoodResponse	0	0.303	535.12	2	56	Target	Neutral	True
536.12	0.3	Control	0.5965	0.004	Yes	2.829	-0.004	2.0	GoodResponse	0	0.303	n/a	2	56	ButtonPress	Neutral	True
536.252	0.27	Control	0.5965	n/a	Yes	2.829	n/a	n/a	GoodResponse	0	n/a	n/a	2	56	Blank	Neutral	True
536.519	1.45	Control	0.5965	n/a	Yes	2.829	n/a	5.0	GoodResponse	0	0.037	535.556	2	56	Feedback	Neutral	True
537.974	2.829	Control	0.5965	n/a	Yes	2.829	n/a	n/a	GoodResponse	0	0.0	n/a	2	56	ISIslide	Neutral	True
540.816	0.25	Control	0.6034	0.0	Yes	3.484	0.016	n/a	GoodResponse	0	n/a	n/a	2	57	Cue	Neutral	True
541.066	4.0	Control	0.6034	0.0	Yes	3.484	0.0	n/a	GoodResponse	0	n/a	n/a	2	57	Fixation	Neutral	True
545.062	0.44	Control	0.6034	0.004	Yes	3.484	-0.004	2.0	GoodResponse	0	0.288	544.35	2	57	Target	Neutral	True
545.35	0.3	Control	0.6034	0.004	Yes	3.484	-0.004	2.0	GoodResponse	0	0.288	n/a	2	57	ButtonPress	Neutral	True
545.513	0.26	Control	0.6034	n/a	Yes	3.484	n/a	n/a	GoodResponse	0	n/a	n/a	2	57	Blank	Neutral	True
545.764	1.45	Control	0.6034	n/a	Yes	3.484	n/a	5.0	GoodResponse	0	0.011	544.775	2	57	Feedback	Neutral	True
547.218	3.484	Control	0.6034	n/a	Yes	3.484	n/a	n/a	GoodResponse	0	0.0	n/a	2	57	ISIslide	Neutral	True
550.729	0.25	Win2	0.6102000000000001	0.0	Yes	2.721	0.029	n/a	GoodResponse	1	n/a	n/a	3	58	Cue	Win	True
550.979	4.05	Win2	0.6102000000000001	0.0	Yes	2.721	0.0	n/a	GoodResponse	1	n/a	n/a	3	58	Fixation	Win	True
555.025	0.45	Win2	0.6102000000000001	0.004	Yes	2.721	-0.004	2.0	GoodResponse	1	0.21	554.235	3	58	Target	Win	True
555.235	0.3	Win2	0.6102000000000001	0.004	Yes	2.721	-0.004	2.0	GoodResponse	1	0.21	n/a	3	58	ButtonPress	Win	True
555.476	0.25	Win2	0.6102000000000001	n/a	Yes	2.721	n/a	n/a	GoodResponse	1	n/a	n/a	3	58	Blank	Win	True
555.727	1.45	Win2	0.6102000000000001	n/a	Yes	2.721	n/a	5.0	GoodResponse	1	0.048	554.775	3	58	Feedback	Win	True
557.181	2.721	Win2	0.6102000000000001	n/a	Yes	2.721	n/a	n/a	GoodResponse	1	0.0	n/a	3	58	ISIslide	Win	True
559.923	0.25	Lose2	0.6167	0.0	Yes	2.677	0.023	n/a	GoodResponse	0	n/a	n/a	3	59	Cue	AvoidedLoss	True
560.174	4.0	Lose2	0.6167	0.0	Yes	2.677	0.001	n/a	GoodResponse	0	n/a	n/a	3	59	Fixation	AvoidedLoss	True
564.169	0.46	Lose2	0.6167	0.004	Yes	2.677	-0.004	2.0	GoodResponse	0	0.282	563.451	3	59	Target	AvoidedLoss	True
564.451	0.3	Lose2	0.6167	0.004	Yes	2.677	-0.004	2.0	GoodResponse	0	0.282	n/a	3	59	ButtonPress	AvoidedLoss	True
564.637	0.24	Lose2	0.6167	n/a	Yes	2.677	n/a	n/a	GoodResponse	0	n/a	n/a	3	59	Blank	AvoidedLoss	True
564.871	1.45	Lose2	0.6167	n/a	Yes	2.677	n/a	5.0	GoodResponse	0	0.026	563.897	3	59	Feedback	AvoidedLoss	True
566.325	2.677	Lose2	0.6167	n/a	Yes	2.677	n/a	n/a	GoodResponse	0	0.0	n/a	3	59	ISIslide	AvoidedLoss	True
569.017	0.25	Control	0.623	0.0	Yes	2.683	0.017	n/a	GoodResponse	0	n/a	n/a	3	60	Cue	Neutral	True
569.267	4.0	Control	0.623	0.001	Yes	2.683	0.0	n/a	GoodResponse	0	n/a	n/a	3	60	Fixation	Neutral	True
573.263	0.47	Control	0.623	0.004	Yes	2.683	-0.004	2.0	GoodResponse	0	0.259	572.522	3	60	Target	Neutral	True
573.522	0.3	Control	0.623	0.004	Yes	2.683	-0.004	2.0	GoodResponse	0	0.259	n/a	3	60	ButtonPress	Neutral	True
573.748	0.23	Control	0.623	n/a	Yes	2.683	n/a	n/a	GoodResponse	0	n/a	n/a	3	60	Blank	Neutral	True
573.965	1.45	Control	0.623	n/a	Yes	2.683	n/a	5.0	GoodResponse	0	0.006	572.971	3	60	Feedback	Neutral	True
575.419	2.683	Control	0.623	n/a	Yes	2.683	n/a	n/a	GoodResponse	0	0.0	n/a	3	60	ISIslide	Neutral	True
578.127	0.25	Lose2	0.629	0.0	Yes	2.973	0.027	n/a	GoodResponse	0	n/a	n/a	3	61	Cue	AvoidedLoss	True
578.378	4.0	Lose2	0.629	0.0	Yes	2.973	0.001	n/a	GoodResponse	0	n/a	n/a	3	61	Fixation	AvoidedLoss	True
582.373	0.48	Lose2	0.629	0.004	Yes	2.973	-0.004	2.0	GoodResponse	0	0.295	581.668	3	61	Target	AvoidedLoss	True
582.668	0.3	Lose2	0.629	0.004	Yes	2.973	-0.004	2.0	GoodResponse	0	0.295	n/a	3	61	ButtonPress	AvoidedLoss	True
582.858	0.22	Lose2	0.629	n/a	Yes	2.973	n/a	n/a	GoodResponse	0	n/a	n/a	3	61	Blank	AvoidedLoss	True
583.075	1.45	Lose2	0.629	n/a	Yes	2.973	n/a	5.0	GoodResponse	0	0.017	582.092	3	61	Feedback	AvoidedLoss	True
584.53	2.973	Lose2	0.629	n/a	Yes	2.973	n/a	n/a	GoodResponse	0	0.0	n/a	3	61	ISIslide	AvoidedLoss	True
587.522	0.25	Lose2	0.6349	0.0	Yes	2.878	0.022	n/a	GoodResponse	0	n/a	n/a	3	62	Cue	AvoidedLoss	True
587.773	3.9	Lose2	0.6349	0.0	Yes	2.878	0.001	n/a	GoodResponse	0	n/a	n/a	3	62	Fixation	AvoidedLoss	True
591.668	0.49	Lose2	0.6349	0.004	Yes	2.878	-0.004	2.0	GoodResponse	0	0.283	590.951	3	62	Target	AvoidedLoss	True
591.951	0.3	Lose2	0.6349	0.004	Yes	2.878	-0.004	2.0	GoodResponse	0	0.283	n/a	3	62	ButtonPress	AvoidedLoss	True
592.169	0.21	Lose2	0.6349	n/a	Yes	2.878	n/a	n/a	GoodResponse	0	n/a	n/a	3	62	Blank	AvoidedLoss	True
592.37	1.45	Lose2	0.6349	n/a	Yes	2.878	n/a	5.0	GoodResponse	0	0.039	591.409	3	62	Feedback	AvoidedLoss	True
593.824	2.878	Lose2	0.6349	n/a	Yes	2.878	n/a	n/a	GoodResponse	0	0.0	n/a	3	62	ISIslide	AvoidedLoss	True
596.716	0.25	Lose2	0.6406000000000001	0.0	Yes	2.634	0.016	n/a	GoodResponse	0	n/a	n/a	3	63	Cue	AvoidedLoss	True
596.967	4.05	Lose2	0.6406000000000001	0.0	Yes	2.634	0.001	n/a	GoodResponse	0	n/a	n/a	3	63	Fixation	AvoidedLoss	True
601.012	0.5	Lose2	0.6406000000000001	0.004	Yes	2.634	-0.004	2.0	GoodResponse	0	0.297	600.309	3	63	Target	AvoidedLoss	True
601.309	0.3	Lose2	0.6406000000000001	0.004	Yes	2.634	-0.004	2.0	GoodResponse	0	0.297	n/a	3	63	ButtonPress	AvoidedLoss	True
601.514	0.2	Lose2	0.6406000000000001	n/a	Yes	2.634	n/a	n/a	GoodResponse	0	n/a	n/a	3	63	Blank	AvoidedLoss	True
601.715	1.45	Lose2	0.6406000000000001	n/a	Yes	2.634	n/a	5.0	GoodResponse	0	0.011	600.726	3	63	Feedback	AvoidedLoss	True
603.169	2.634	Lose2	0.6406000000000001	n/a	Yes	2.634	n/a	n/a	GoodResponse	0	0.0	n/a	3	63	ISIslide	AvoidedLoss	True
605.827	0.25	Win2	0.6462	0.0	Yes	3.123	0.027	n/a	GoodResponse	1	n/a	n/a	4	64	Cue	Win	True
606.078	4.15	Win2	0.6462	0.0	Yes	3.123	0.001	n/a	GoodResponse	1	n/a	n/a	4	64	Fixation	Win	True
610.223	0.5	Win2	0.6462	0.004	Yes	3.123	-0.004	2.0	GoodResponse	1	0.269	609.492	4	64	Target	Win	True
610.492	0.3	Win2	0.6462	0.004	Yes	3.123	-0.004	2.0	GoodResponse	1	0.269	n/a	4	64	ButtonPress	Win	True
610.725	0.2	Win2	0.6462	n/a	Yes	3.123	n/a	n/a	GoodResponse	1	n/a	n/a	4	64	Blank	Win	True
610.925	1.45	Win2	0.6462	n/a	Yes	3.123	n/a	5.0	GoodResponse	1	0.021	609.946	4	64	Feedback	Win	True
612.38	3.123	Win2	0.6462	n/a	Yes	3.123	n/a	n/a	GoodResponse	1	0.0	n/a	4	64	ISIslide	Win	True
615.523	0.25	Control	0.6515000000000001	0.0	Yes	2.777	0.023	n/a	GoodResponse	0	n/a	n/a	4	65	Cue	Neutral	True
615.773	4.0	Control	0.6515000000000001	0.0	Yes	2.777	0.0	n/a	GoodResponse	0	n/a	n/a	4	65	Fixation	Neutral	True
619.769	0.5	Control	0.6515000000000001	0.004	Yes	2.777	-0.004	2.0	GoodResponse	0	0.276	619.045	4	65	Target	Neutral	True
620.045	0.3	Control	0.6515000000000001	0.004	Yes	2.777	-0.004	2.0	GoodResponse	0	0.276	n/a	4	65	ButtonPress	Neutral	True
620.27	0.2	Control	0.6515000000000001	n/a	Yes	2.777	n/a	n/a	GoodResponse	0	n/a	n/a	4	65	Blank	Neutral	True
620.471	1.45	Control	0.6515000000000001	n/a	Yes	2.777	n/a	5.0	GoodResponse	0	0.036	619.507	4	65	Feedback	Neutral	True
621.925	2.777	Control	0.6515000000000001	n/a	Yes	2.777	n/a	n/a	GoodResponse	0	0.0	n/a	4	65	ISIslide	Neutral	True
624.717	0.25	Win2	0.6567000000000001	0.0	Yes	2.783	0.017	n/a	GoodResponse	1	n/a	n/a	5	66	Cue	Win	True
624.968	3.9	Win2	0.6567000000000001	0.0	Yes	2.783	0.001	n/a	GoodResponse	1	n/a	n/a	5	66	Fixation	Win	True
628.863	0.5	Win2	0.6567000000000001	0.004	Yes	2.783	-0.004	2.0	GoodResponse	1	0.46	628.323	5	66	Target	Win	True
629.323	0.3	Win2	0.6567000000000001	0.004	Yes	2.783	-0.004	2.0	GoodResponse	1	0.46	n/a	5	66	ButtonPress	Win	True
629.364	0.2	Win2	0.6567000000000001	n/a	Yes	2.783	n/a	n/a	GoodResponse	1	n/a	n/a	5	66	Blank	Win	True
629.565	1.45	Win2	0.6567000000000001	n/a	Yes	2.783	n/a	5.0	GoodResponse	1	0.014	628.579	5	66	Feedback	Win	True
631.019	2.783	Win2	0.6567000000000001	n/a	Yes	2.783	n/a	n/a	GoodResponse	1	0.0	n/a	5	66	ISIslide	Win	True
633.827	0.25	Control	0.6618	0.0	Yes	2.723	0.027	n/a	GoodResponse	0	n/a	n/a	5	67	Cue	Neutral	True
634.078	3.95	Control	0.6618	0.0	Yes	2.723	0.001	n/a	GoodResponse	0	n/a	n/a	5	67	Fixation	Neutral	True
638.023	0.5	Control	0.6618	0.004	Yes	2.723	-0.004	2.0	GoodResponse	0	0.298	637.321	5	67	Target	Neutral	True
638.321	0.3	Control	0.6618	0.004	Yes	2.723	-0.004	2.0	GoodResponse	0	0.298	n/a	5	67	ButtonPress	Neutral	True
638.525	0.2	Control	0.6618	n/a	Yes	2.723	n/a	n/a	GoodResponse	0	n/a	n/a	5	67	Blank	Neutral	True
638.725	1.45	Control	0.6618	n/a	Yes	2.723	n/a	5.0	GoodResponse	0	0.025	637.75	5	67	Feedback	Neutral	True
640.18	2.723	Control	0.6618	n/a	Yes	2.723	n/a	n/a	GoodResponse	0	0.0	n/a	5	67	ISIslide	Neutral	True
642.921	0.25	Win2	0.6667000000000001	0.0	Yes	3.079	0.021	n/a	GoodResponse	1	n/a	n/a	6	68	Cue	Win	True
643.172	4.0	Win2	0.6667000000000001	0.0	Yes	3.079	0.001	n/a	GoodResponse	1	n/a	n/a	6	68	Fixation	Win	True
647.167	0.5	Win2	0.6667000000000001	0.004	Yes	3.079	-0.004	2.0	GoodResponse	1	0.265	646.432	6	68	Target	Win	True
647.432	0.3	Win2	0.6667000000000001	0.004	Yes	3.079	-0.004	2.0	GoodResponse	1	0.265	n/a	6	68	ButtonPress	Win	True
647.669	0.2	Win2	0.6667000000000001	n/a	Yes	3.079	n/a	n/a	GoodResponse	1	n/a	n/a	6	68	Blank	Win	True
647.869	1.45	Win2	0.6667000000000001	n/a	Yes	3.079	n/a	5.0	GoodResponse	1	0.007	646.876	6	68	Feedback	Win	True
649.324	3.079	Win2	0.6667000000000001	n/a	Yes	3.079	n/a	n/a	GoodResponse	1	0.0	n/a	6	68	ISIslide	Win	True
652.416	0.25	Win2	0.6714	0.0	Yes	3.234	0.016	n/a	GoodResponse	1	n/a	n/a	7	69	Cue	Win	True
652.667	3.95	Win2	0.6714	0.0	Yes	3.234	0.001	n/a	GoodResponse	1	n/a	n/a	7	69	Fixation	Win	True
656.612	0.49	Win2	0.6714	0.004	Yes	3.234	-0.004	2.0	GoodResponse	1	0.306	655.918	7	69	Target	Win	True
656.918	0.3	Win2	0.6714	0.004	Yes	3.234	-0.004	2.0	GoodResponse	1	0.306	n/a	7	69	ButtonPress	Win	True
657.114	0.21	Win2	0.6714	n/a	Yes	3.234	n/a	n/a	GoodResponse	1	n/a	n/a	7	69	Blank	Win	True
657.314	1.45	Win2	0.6714	n/a	Yes	3.234	n/a	5.0	GoodResponse	1	0.021	656.335	7	69	Feedback	Win	True
658.769	3.234	Win2	0.6714	n/a	Yes	3.234	n/a	n/a	GoodResponse	1	0.0	n/a	7	69	ISIslide	Win	True
662.028	0.25	Lose2	0.6761	0.001	Yes	3.022	0.028	n/a	GoodResponse	0	n/a	n/a	7	70	Cue	AvoidedLoss	True
662.279	4.05	Lose2	0.6761	0.0	Yes	3.022	0.001	n/a	GoodResponse	0	n/a	n/a	7	70	Fixation	AvoidedLoss	True
666.325	0.48	Lose2	0.6761	0.003	Yes	3.022	-0.003	2.0	GoodResponse	0	0.36	665.685	7	70	Target	AvoidedLoss	True
666.685	0.3	Lose2	0.6761	0.003	Yes	3.022	-0.003	2.0	GoodResponse	0	0.36	n/a	7	70	ButtonPress	AvoidedLoss	True
666.809	0.22	Lose2	0.6761	n/a	Yes	3.022	n/a	n/a	GoodResponse	0	n/a	n/a	7	70	Blank	AvoidedLoss	True
667.027	1.45	Lose2	0.6761	n/a	Yes	3.022	n/a	5.0	GoodResponse	0	0.016	666.043	7	70	Feedback	AvoidedLoss	True
668.481	3.022	Lose2	0.6761	n/a	Yes	3.022	n/a	n/a	GoodResponse	0	0.0	n/a	7	70	ISIslide	AvoidedLoss	True
671.524	0.25	Win2	0.6806	0.0	Yes	2.726	0.024	n/a	GoodResponse	1	n/a	n/a	8	71	Cue	Win	True
671.774	4.05	Win2	0.6806	0.0	Yes	2.726	0.0	n/a	GoodResponse	1	n/a	n/a	8	71	Fixation	Win	True
675.82	0.47	Win2	0.6806	0.004	Yes	2.726	-0.004	2.0	GoodResponse	1	0.293	675.113	8	71	Target	Win	True
676.113	0.3	Win2	0.6806	0.004	Yes	2.726	-0.004	2.0	GoodResponse	1	0.293	n/a	8	71	ButtonPress	Win	True
676.305	0.23	Win2	0.6806	n/a	Yes	2.726	n/a	n/a	GoodResponse	1	n/a	n/a	8	71	Blank	Win	True
676.522	1.45	Win2	0.6806	n/a	Yes	2.726	n/a	5.0	GoodResponse	1	0.033	675.555	8	71	Feedback	Win	True
677.976	2.726	Win2	0.6806	n/a	Yes	2.726	n/a	n/a	GoodResponse	1	0.0	n/a	8	71	ISIslide	Win	True
680.718	0.25	Win2	0.6849	0.0	Yes	2.782	0.018	n/a	GoodResponse	1	n/a	n/a	9	72	Cue	Win	True
680.968	4.1	Win2	0.6849	0.001	Yes	2.782	0.0	n/a	GoodResponse	1	n/a	n/a	9	72	Fixation	Win	True
685.064	0.46	Win2	0.6849	0.004	Yes	2.782	-0.004	2.0	GoodResponse	1	0.28	684.344	9	72	Target	Win	True
685.344	0.3	Win2	0.6849	0.004	Yes	2.782	-0.004	2.0	GoodResponse	1	0.28	n/a	9	72	ButtonPress	Win	True
685.532	0.24	Win2	0.6849	n/a	Yes	2.782	n/a	n/a	GoodResponse	1	n/a	n/a	9	72	Blank	Win	True
685.766	1.45	Win2	0.6849	n/a	Yes	2.782	n/a	5.0	GoodResponse	1	0.008	684.774	9	72	Feedback	Win	True
687.221	2.782	Win2	0.6849	n/a	Yes	2.782	n/a	n/a	GoodResponse	1	0.0	n/a	9	72	ISIslide	Win	True
690.029	0.25	Win2	0.6757	0.0	No	2.671	0.029	n/a	NoResponse	0	n/a	n/a	9	73	Cue	MissedWin	True
690.28	4.0	Win2	0.6757	0.0	No	2.671	0.001	n/a	NoResponse	0	n/a	n/a	9	73	Fixation	MissedWin	True
694.275	0.45	Win2	0.6757	0.004	No	2.671	-0.004	2.0	NoResponse	0	0.481	693.756	9	73	Target	MissedWin	True
694.726	0.25	Win2	0.6757	n/a	No	2.671	n/a	n/a	NoResponse	0	n/a	n/a	9	73	Blank	MissedWin	True
694.756	0.3	Win2	0.6757	0.004	No	2.671	-0.004	2.0	NoResponse	0	0.481	n/a	9	73	ButtonPress	MissedWin	True
694.977	1.45	Win2	0.6757	n/a	No	2.671	n/a	5.0	NoResponse	0	0.016	693.993	9	73	Feedback	MissedWin	True
696.431	2.671	Win2	0.6757	n/a	No	2.671	n/a	n/a	NoResponse	0	0.0	n/a	9	73	ISIslide	MissedWin	True
699.123	0.25	Lose2	0.68	0.0	Yes	2.627	0.023	n/a	GoodResponse	0	n/a	n/a	9	74	Cue	AvoidedLoss	True
699.374	4.05	Lose2	0.68	0.0	Yes	2.627	0.001	n/a	GoodResponse	0	n/a	n/a	9	74	Fixation	AvoidedLoss	True
703.419	0.44	Lose2	0.68	0.004	Yes	2.627	-0.004	2.0	GoodResponse	0	0.26	702.679	9	74	Target	AvoidedLoss	True
703.679	0.3	Lose2	0.68	0.004	Yes	2.627	-0.004	2.0	GoodResponse	0	0.26	n/a	9	74	ButtonPress	AvoidedLoss	True
703.87	0.26	Lose2	0.68	n/a	Yes	2.627	n/a	n/a	GoodResponse	0	n/a	n/a	9	74	Blank	AvoidedLoss	True
704.121	1.45	Lose2	0.68	n/a	Yes	2.627	n/a	5.0	GoodResponse	0	0.043	703.164	9	74	Feedback	AvoidedLoss	True
705.575	2.627	Lose2	0.68	n/a	Yes	2.627	n/a	n/a	GoodResponse	0	0.0	n/a	9	74	ISIslide	AvoidedLoss	True
708.217	0.25	Lose2	0.6842	0.0	Yes	2.933	0.017	n/a	GoodResponse	0	n/a	n/a	9	75	Cue	AvoidedLoss	True
708.467	3.95	Lose2	0.6842	0.001	Yes	2.933	0.0	n/a	GoodResponse	0	n/a	n/a	9	75	Fixation	AvoidedLoss	True
712.413	0.43	Lose2	0.6842	0.004	Yes	2.933	-0.004	2.0	GoodResponse	0	0.274	711.687	9	75	Target	AvoidedLoss	True
712.687	0.3	Lose2	0.6842	0.004	Yes	2.933	-0.004	2.0	GoodResponse	0	0.274	n/a	9	75	ButtonPress	AvoidedLoss	True
712.847	0.27	Lose2	0.6842	n/a	Yes	2.933	n/a	n/a	GoodResponse	0	n/a	n/a	9	75	Blank	AvoidedLoss	True
713.115	1.45	Lose2	0.6842	n/a	Yes	2.933	n/a	5.0	GoodResponse	0	0.025	712.14	9	75	Feedback	AvoidedLoss	True
714.569	2.933	Lose2	0.6842	n/a	Yes	2.933	n/a	n/a	GoodResponse	0	0.0	n/a	9	75	ISIslide	AvoidedLoss	True
717.528	0.25	Control	0.6753	0.0	No	3.222	0.028	n/a	LatePress	0	n/a	n/a	9	76	Cue	Neutral	True
717.779	4.05	Control	0.6753	0.0	No	3.222	0.001	n/a	LatePress	0	n/a	n/a	9	76	Fixation	Neutral	True
721.824	0.42	Control	0.6753	0.004	No	3.222	-0.004	2.0	LatePress	0	0.421	721.245	9	76	Target	Neutral	True
722.245	0.3	Control	0.6753	0.004	No	3.222	-0.004	2.0	LatePress	0	0.421	n/a	9	76	ButtonPress	Neutral	True
722.259	0.28	Control	0.6753	n/a	No	3.222	n/a	n/a	LatePress	0	n/a	n/a	9	76	Blank	Neutral	True
722.526	1.45	Control	0.6753	n/a	No	3.222	n/a	5.0	LatePress	0	0.028	721.554	9	76	Feedback	Neutral	True
723.981	3.222	Control	0.6753	n/a	No	3.222	n/a	n/a	LatePress	0	0.0	n/a	9	76	ISIslide	Neutral	True
727.224	0.25	Lose2	0.6795	0.0	Yes	2.576	0.024	n/a	GoodResponse	0	n/a	n/a	9	77	Cue	AvoidedLoss	True
727.474	3.95	Lose2	0.6795	0.0	Yes	2.576	0.0	n/a	GoodResponse	0	n/a	n/a	9	77	Fixation	AvoidedLoss	True
731.42	0.41	Lose2	0.6795	0.004	Yes	2.576	-0.004	2.0	GoodResponse	0	0.233	730.653	9	77	Target	AvoidedLoss	True
731.653	0.3	Lose2	0.6795	0.004	Yes	2.576	-0.004	2.0	GoodResponse	0	0.233	n/a	9	77	ButtonPress	AvoidedLoss	True
731.837	0.29	Lose2	0.6795	n/a	Yes	2.576	n/a	n/a	GoodResponse	0	n/a	n/a	9	77	Blank	AvoidedLoss	True
732.122	1.45	Lose2	0.6795	n/a	Yes	2.576	n/a	5.0	GoodResponse	0	0.041	731.163	9	77	Feedback	AvoidedLoss	True
733.576	2.576	Lose2	0.6795	n/a	Yes	2.576	n/a	n/a	GoodResponse	0	0.0	n/a	9	77	ISIslide	AvoidedLoss	True
