onset	duration	cue_type	current_mean_accuracy	duration_error	is_hit	isi_adjusted	onset_delay	response	response_type	reward	rt	rt_time	total_reward	trial_number	trial_phase	trial_type	one_press
11.108	0.25	Control	1.0	0.0	Yes	2.942	0.008	n/a	GoodResponse	0	n/a	n/a	0	0	Cue	Neutral	True
11.358	3.85	Control	1.0	0.0	Yes	2.942	0.0	n/a	GoodResponse	0	n/a	n/a	0	0	Fixation	Neutral	True
15.22	0.4	Control	1.0	0.0	Yes	2.942	0.012	4.0	GoodResponse	0	0.316	14.536	0	0	Target	Neutral	True
15.536	0.3	Control	1.0	0.0	Yes	2.942	0.012	4.0	GoodResponse	0	0.316	n/a	0	0	ButtonPress	Neutral	True
15.604	0.3	Control	1.0	n/a	Yes	2.942	n/a	n/a	GoodResponse	0	n/a	n/a	0	0	Blank	Neutral	True
15.905	1.45	Control	1.0	n/a	Yes	2.942	n/a	5.0	GoodResponse	0	0.022	14.927	0	0	Feedback	Neutral	True
17.36	2.942	Control	1.0	n/a	Yes	2.942	n/a	n/a	GoodResponse	0	0.0	n/a	0	0	ISIslide	Neutral	True
20.319	0.25	Lose2	1.0	0.0	Yes	2.781	0.019	n/a	GoodResponse	0	n/a	n/a	0	1	Cue	AvoidedLoss	True
20.569	4.0	Lose2	1.0	0.0	Yes	2.781	0.0	n/a	GoodResponse	0	n/a	n/a	0	1	Fixation	AvoidedLoss	True
24.565	0.39	Lose2	1.0	0.004	Yes	2.781	-0.004	4.0	GoodResponse	0	0.294	23.859	0	1	Target	AvoidedLoss	True
24.859	0.3	Lose2	1.0	0.004	Yes	2.781	-0.004	4.0	GoodResponse	0	0.294	n/a	0	1	ButtonPress	AvoidedLoss	True
24.966	0.31	Lose2	1.0	n/a	Yes	2.781	n/a	n/a	GoodResponse	0	n/a	n/a	0	1	Blank	AvoidedLoss	True
25.267	1.45	Lose2	1.0	n/a	Yes	2.781	n/a	5.0	GoodResponse	0	0.026	24.293	0	1	Feedback	AvoidedLoss	True
26.721	2.781	Lose2	1.0	n/a	Yes	2.781	n/a	n/a	GoodResponse	0	0.0	n/a	0	1	ISIslide	AvoidedLoss	True
29.529	0.25	Control	0.6667000000000001	0.0	No	2.571	0.029	n/a	NoResponse	0	n/a	n/a	0	2	Cue	Neutral	True
29.78	4.1	Control	0.6667000000000001	0.0	No	2.571	0.001	n/a	NoResponse	0	n/a	n/a	0	2	Fixation	Neutral	True
33.876	0.38	Control	0.6667000000000001	0.003	No	2.571	-0.003	4.0	NoResponse	0	0.395	33.271	0	2	Target	Neutral	True
34.26	0.32	Control	0.6667000000000001	n/a	No	2.571	n/a	n/a	NoResponse	0	n/a	n/a	0	2	Blank	Neutral	True
34.271	0.3	Control	0.6667000000000001	0.003	No	2.571	-0.003	4.0	NoResponse	0	0.395	n/a	0	2	ButtonPress	Neutral	True
34.578	1.45	Control	0.6667000000000001	n/a	No	2.571	n/a	5.0	NoResponse	0	0.031	33.609	0	2	Feedback	Neutral	True
36.032	2.571	Control	0.6667000000000001	n/a	No	2.571	n/a	n/a	NoResponse	0	0.0	n/a	0	2	ISIslide	Neutral	True
38.623	0.25	Win2	0.75	0.0	Yes	2.827	0.023	n/a	GoodResponse	1	n/a	n/a	1	3	Cue	Win	True
38.874	3.95	Win2	0.75	0.0	Yes	2.827	0.001	n/a	GoodResponse	1	n/a	n/a	1	3	Fixation	Win	True
42.819	0.37	Win2	0.75	0.004	Yes	2.827	-0.004	4.0	GoodResponse	1	0.366	42.185	1	3	Target	Win	True
43.185	0.3	Win2	0.75	0.004	Yes	2.827	-0.004	4.0	GoodResponse	1	0.366	n/a	1	3	ButtonPress	Win	True
43.204	0.33	Win2	0.75	n/a	Yes	2.827	n/a	n/a	GoodResponse	1	n/a	n/a	1	3	Blank	Win	True
43.521	1.45	Win2	0.75	n/a	Yes	2.827	n/a	5.0	GoodResponse	1	0.015	42.536	1	3	Feedback	Win	True
44.976	2.827	Win2	0.75	n/a	Yes	2.827	n/a	n/a	GoodResponse	1	0.0	n/a	1	3	ISIslide	Win	True
47.817	0.25	Win2	0.8	0.001	Yes	3.283	0.017	n/a	GoodResponse	1	n/a	n/a	2	4	Cue	Win	True
48.068	4.0	Win2	0.8	0.0	Yes	3.283	0.001	n/a	GoodResponse	1	n/a	n/a	2	4	Fixation	Win	True
52.064	0.36	Win2	0.8	0.003	Yes	3.283	-0.003	4.0	GoodResponse	1	0.353	51.417	2	4	Target	Win	True
52.417	0.3	Win2	0.8	0.003	Yes	3.283	-0.003	4.0	GoodResponse	1	0.353	n/a	2	4	ButtonPress	Win	True
52.431	0.34	Win2	0.8	n/a	Yes	3.283	n/a	n/a	GoodResponse	1	n/a	n/a	2	4	Blank	Win	True
52.766	1.45	Win2	0.8	n/a	Yes	3.283	n/a	5.0	GoodResponse	1	0.038	51.804	2	4	Feedback	Win	True
54.22	3.283	Win2	0.8	n/a	Yes	3.283	n/a	n/a	GoodResponse	1	0.0	n/a	2	4	ISIslide	Win	True
57.53	0.25	Win2	0.8332999999999999	0.0	Yes	2.77	0.03	n/a	GoodResponse	1	n/a	n/a	3	5	Cue	Win	True
57.781	4.0	Win2	0.8332999999999999	0.0	Yes	2.77	0.001	n/a	GoodResponse	1	n/a	n/a	3	5	Fixation	Win	True
61.776	0.35	Win2	0.8332999999999999	0.004	Yes	2.77	-0.004	4.0	GoodResponse	1	0.244	61.02	3	5	Target	Win	True
62.02	0.3	Win2	0.8332999999999999	0.004	Yes	2.77	-0.004	4.0	GoodResponse	1	0.244	n/a	3	5	ButtonPress	Win	True
62.127	0.35	Win2	0.8332999999999999	n/a	Yes	2.77	n/a	n/a	GoodResponse	1	n/a	n/a	3	5	Blank	Win	True
62.478	1.45	Win2	0.8332999999999999	n/a	Yes	2.77	n/a	5.0	GoodResponse	1	0.034	61.512	3	5	Feedback	Win	True
63.932	2.77	Win2	0.8332999999999999	n/a	Yes	2.77	n/a	n/a	GoodResponse	1	0.0	n/a	3	5	ISIslide	Win	True
66.724	0.25	Lose2	0.8571	0.0	Yes	2.726	0.024	n/a	GoodResponse	0	n/a	n/a	3	6	Cue	AvoidedLoss	True
66.975	3.95	Lose2	0.8571	0.0	Yes	2.726	0.001	n/a	GoodResponse	0	n/a	n/a	3	6	Fixation	AvoidedLoss	True
70.92	0.34	Lose2	0.8571	0.004	Yes	2.726	-0.004	4.0	GoodResponse	0	0.287	70.207	3	6	Target	AvoidedLoss	True
71.207	0.3	Lose2	0.8571	0.004	Yes	2.726	-0.004	4.0	GoodResponse	0	0.287	n/a	3	6	ButtonPress	AvoidedLoss	True
71.271	0.36	Lose2	0.8571	n/a	Yes	2.726	n/a	n/a	GoodResponse	0	n/a	n/a	3	6	Blank	AvoidedLoss	True
71.622	1.45	Lose2	0.8571	n/a	Yes	2.726	n/a	5.0	GoodResponse	0	0.012	70.634	3	6	Feedback	AvoidedLoss	True
73.076	2.726	Lose2	0.8571	n/a	Yes	2.726	n/a	n/a	GoodResponse	0	0.0	n/a	3	6	ISIslide	AvoidedLoss	True
75.818	0.25	Lose2	0.875	0.0	Yes	4.032	0.018	n/a	GoodResponse	0	n/a	n/a	3	7	Cue	AvoidedLoss	True
76.069	4.05	Lose2	0.875	0.0	Yes	4.032	0.001	n/a	GoodResponse	0	n/a	n/a	3	7	Fixation	AvoidedLoss	True
80.114	0.33	Lose2	0.875	0.004	Yes	4.032	-0.004	4.0	GoodResponse	0	0.284	79.398	3	7	Target	AvoidedLoss	True
80.398	0.3	Lose2	0.875	0.004	Yes	4.032	-0.004	4.0	GoodResponse	0	0.284	n/a	3	7	ButtonPress	AvoidedLoss	True
80.448	0.37	Lose2	0.875	n/a	Yes	4.032	n/a	n/a	GoodResponse	0	n/a	n/a	3	7	Blank	AvoidedLoss	True
80.816	1.45	Lose2	0.875	n/a	Yes	4.032	n/a	5.0	GoodResponse	0	0.036	79.852	3	7	Feedback	AvoidedLoss	True
82.271	4.032	Lose2	0.875	n/a	Yes	4.032	n/a	n/a	GoodResponse	0	0.0	n/a	3	7	ISIslide	AvoidedLoss	True
86.316	0.25	Lose2	0.8889	0.0	Yes	3.034	0.016	n/a	GoodResponse	0	n/a	n/a	3	8	Cue	AvoidedLoss	True
86.567	3.95	Lose2	0.8889	0.0	Yes	3.034	0.001	n/a	GoodResponse	0	n/a	n/a	3	8	Fixation	AvoidedLoss	True
90.512	0.32	Lose2	0.8889	0.004	Yes	3.034	-0.004	4.0	GoodResponse	0	0.273	89.785	3	8	Target	AvoidedLoss	True
90.785	0.3	Lose2	0.8889	0.004	Yes	3.034	-0.004	4.0	GoodResponse	0	0.273	n/a	3	8	ButtonPress	AvoidedLoss	True
90.846	0.38	Lose2	0.8889	n/a	Yes	3.034	n/a	n/a	GoodResponse	0	n/a	n/a	3	8	Blank	AvoidedLoss	True
91.214	1.45	Lose2	0.8889	n/a	Yes	3.034	n/a	5.0	GoodResponse	0	0.029	90.243	3	8	Feedback	AvoidedLoss	True
92.668	3.034	Lose2	0.8889	n/a	Yes	3.034	n/a	n/a	GoodResponse	0	0.0	n/a	3	8	ISIslide	AvoidedLoss	True
95.728	0.25	Lose2	0.8	0.0	No	3.122	0.028	n/a	NoResponse	-1	n/a	n/a	2	9	Cue	Loss	False
95.978	3.95	Lose2	0.8	0.0	No	3.122	0.0	n/a	NoResponse	-1	n/a	n/a	2	9	Fixation	Loss	False
99.94	0.31	Lose2	0.8	0.0	No	3.122	0.012	n/a	NoResponse	-1	n/a	n/a	2	9	Target	Loss	False
100.241	0.39	Lose2	0.8	n/a	No	3.122	n/a	n/a	NoResponse	-1	n/a	n/a	2	9	Blank	Loss	False
100.626	1.45	Lose2	0.8	n/a	No	3.122	n/a	5.0	NoResponse	-1	0.031	99.657	2	9	Feedback	Loss	False
102.08	3.122	Lose2	0.8	n/a	No	3.122	n/a	n/a	NoResponse	-1	0.0	n/a	2	9	ISIslide	Loss	False
105.223	0.25	Control	0.7273000000000001	0.0	No	3.277	0.023	n/a	NoResponse	0	n/a	n/a	2	10	Cue	Neutral	True
105.473	4.0	Control	0.7273000000000001	0.0	No	3.277	0.0	n/a	NoResponse	0	n/a	n/a	2	10	Fixation	Neutral	True
109.469	0.3	Control	0.7273000000000001	0.004	No	3.277	-0.004	4.0	NoResponse	0	0.364	108.833	2	10	Target	Neutral	True
109.77	0.4	Control	0.7273000000000001	n/a	No	3.277	n/a	n/a	NoResponse	0	n/a	n/a	2	10	Blank	Neutral	True
109.833	0.3	Control	0.7273000000000001	0.004	No	3.277	-0.004	4.0	NoResponse	0	0.364	n/a	2	10	ButtonPress	Neutral	True
110.171	1.45	Control	0.7273000000000001	n/a	No	3.277	n/a	5.0	NoResponse	0	0.048	109.219	2	10	Feedback	Neutral	True
111.625	3.277	Control	0.7273000000000001	n/a	No	3.277	n/a	n/a	NoResponse	0	0.0	n/a	2	10	ISIslide	Neutral	True
114.918	0.25	Lose2	0.6667000000000001	0.0	No	2.732	0.018	n/a	NoResponse	-1	n/a	n/a	1	11	Cue	Loss	True
115.169	4.05	Lose2	0.6667000000000001	0.0	No	2.732	0.001	n/a	NoResponse	-1	n/a	n/a	1	11	Fixation	Loss	True
119.215	0.29	Lose2	0.6667000000000001	0.003	No	2.732	-0.003	4.0	NoResponse	-1	0.618	118.833	1	11	Target	Loss	True
119.515	0.41	Lose2	0.6667000000000001	n/a	No	2.732	n/a	n/a	NoResponse	-1	n/a	n/a	1	11	Blank	Loss	True
119.833	0.3	Lose2	0.6667000000000001	0.003	No	2.732	-0.003	4.0	NoResponse	-1	0.618	n/a	1	11	ButtonPress	Loss	True
119.917	1.45	Lose2	0.6667000000000001	n/a	No	2.732	n/a	5.0	NoResponse	-1	0.009	118.926	1	11	Feedback	Loss	True
121.371	2.732	Lose2	0.6667000000000001	n/a	No	2.732	n/a	n/a	NoResponse	-1	0.0	n/a	1	11	ISIslide	Loss	True
124.129	0.25	Control	0.6154	0.0	No	2.971	0.029	n/a	NoResponse	0	n/a	n/a	1	12	Cue	Neutral	True
124.38	3.9	Control	0.6154	0.0	No	2.971	0.001	n/a	NoResponse	0	n/a	n/a	1	12	Fixation	Neutral	True
128.275	0.28	Control	0.6154	0.004	No	2.971	-0.004	4.0	NoResponse	0	0.34	127.615	1	12	Target	Neutral	True
128.559	0.42	Control	0.6154	n/a	No	2.971	n/a	n/a	NoResponse	0	n/a	n/a	1	12	Blank	Neutral	True
128.615	0.3	Control	0.6154	0.004	No	2.971	-0.004	4.0	NoResponse	0	0.34	n/a	1	12	ButtonPress	Neutral	True
128.977	1.45	Control	0.6154	n/a	No	2.971	n/a	5.0	NoResponse	0	0.022	127.999	1	12	Feedback	Neutral	True
130.431	2.971	Control	0.6154	n/a	No	2.971	n/a	n/a	NoResponse	0	0.0	n/a	1	12	ISIslide	Neutral	True
133.424	0.25	Control	0.6429	0.0	Yes	2.776	0.024	n/a	GoodResponse	0	n/a	n/a	1	13	Cue	Neutral	True
133.674	4.0	Control	0.6429	0.001	Yes	2.776	0.0	n/a	GoodResponse	0	n/a	n/a	1	13	Fixation	Neutral	True
137.67	0.29	Control	0.6429	0.004	Yes	2.776	-0.004	4.0	GoodResponse	0	0.28	136.95	1	13	Target	Neutral	True
137.95	0.3	Control	0.6429	0.004	Yes	2.776	-0.004	4.0	GoodResponse	0	0.28	n/a	1	13	ButtonPress	Neutral	True
137.971	0.41	Control	0.6429	n/a	Yes	2.776	n/a	n/a	GoodResponse	0	n/a	n/a	1	13	Blank	Neutral	True
138.372	1.45	Control	0.6429	n/a	Yes	2.776	n/a	5.0	GoodResponse	0	0.041	137.413	1	13	Feedback	Neutral	True
139.826	2.776	Control	0.6429	n/a	Yes	2.776	n/a	n/a	GoodResponse	0	0.0	n/a	1	13	ISIslide	Neutral	True
142.618	0.25	Win2	0.6667000000000001	0.0	Yes	2.682	0.018	n/a	GoodResponse	1	n/a	n/a	2	14	Cue	Win	True
142.869	4.1	Win2	0.6667000000000001	0.0	Yes	2.682	0.001	n/a	GoodResponse	1	n/a	n/a	2	14	Fixation	Win	True
146.964	0.3	Win2	0.6667000000000001	0.004	Yes	2.682	-0.004	4.0	GoodResponse	1	0.294	146.258	2	14	Target	Win	True
147.258	0.3	Win2	0.6667000000000001	0.004	Yes	2.682	-0.004	4.0	GoodResponse	1	0.294	n/a	2	14	ButtonPress	Win	True
147.265	0.4	Win2	0.6667000000000001	n/a	Yes	2.682	n/a	n/a	GoodResponse	1	n/a	n/a	2	14	Blank	Win	True
147.666	1.45	Win2	0.6667000000000001	n/a	Yes	2.682	n/a	5.0	GoodResponse	1	0.015	146.681	2	14	Feedback	Win	True
149.121	2.682	Win2	0.6667000000000001	n/a	Yes	2.682	n/a	n/a	GoodResponse	1	0.0	n/a	2	14	ISIslide	Win	True
151.829	0.25	Control	0.625	0.0	No	2.971	0.029	n/a	NoResponse	0	n/a	n/a	2	15	Cue	Neutral	True
152.08	4.0	Control	0.625	0.0	No	2.971	0.001	n/a	NoResponse	0	n/a	n/a	2	15	Fixation	Neutral	True
156.075	0.29	Control	0.625	0.004	No	2.971	-0.004	4.0	NoResponse	0	0.308	155.383	2	15	Target	Neutral	True
156.376	0.41	Control	0.625	n/a	No	2.971	n/a	n/a	NoResponse	0	n/a	n/a	2	15	Blank	Neutral	True
156.383	0.3	Control	0.625	0.004	No	2.971	-0.004	4.0	NoResponse	0	0.308	n/a	2	15	ButtonPress	Neutral	True
156.777	1.45	Control	0.625	n/a	No	2.971	n/a	5.0	NoResponse	0	0.027	155.804	2	15	Feedback	Neutral	True
158.231	2.971	Control	0.625	n/a	No	2.971	n/a	n/a	NoResponse	0	0.0	n/a	2	15	ISIslide	Neutral	True
161.224	0.25	Win2	0.6470999999999999	0.0	Yes	2.876	0.024	n/a	GoodResponse	1	n/a	n/a	3	16	Cue	Win	True
161.474	4.0	Win2	0.6470999999999999	0.0	Yes	2.876	0.0	n/a	GoodResponse	1	n/a	n/a	3	16	Fixation	Win	True
165.47	0.3	Win2	0.6470999999999999	0.004	Yes	2.876	-0.004	4.0	GoodResponse	1	0.273	164.743	3	16	Target	Win	True
165.743	0.3	Win2	0.6470999999999999	0.004	Yes	2.876	-0.004	4.0	GoodResponse	1	0.273	n/a	3	16	ButtonPress	Win	True
165.771	0.4	Win2	0.6470999999999999	n/a	Yes	2.876	n/a	n/a	GoodResponse	1	n/a	n/a	3	16	Blank	Win	True
166.172	1.45	Win2	0.6470999999999999	n/a	Yes	2.876	n/a	5.0	GoodResponse	1	0.046	165.218	3	16	Feedback	Win	True
167.626	2.876	Win2	0.6470999999999999	n/a	Yes	2.876	n/a	n/a	GoodResponse	1	0.0	n/a	3	16	ISIslide	Win	True
170.518	0.25	Lose2	0.6667000000000001	0.0	Yes	2.732	0.018	n/a	GoodResponse	0	n/a	n/a	3	17	Cue	AvoidedLoss	True
170.769	3.95	Lose2	0.6667000000000001	0.0	Yes	2.732	0.001	n/a	GoodResponse	0	n/a	n/a	3	17	Fixation	AvoidedLoss	True
174.714	0.31	Lose2	0.6667000000000001	0.004	Yes	2.732	-0.004	4.0	GoodResponse	0	0.258	173.972	3	17	Target	AvoidedLoss	True
174.972	0.3	Lose2	0.6667000000000001	0.004	Yes	2.732	-0.004	4.0	GoodResponse	0	0.258	n/a	3	17	ButtonPress	AvoidedLoss	True
175.032	0.39	Lose2	0.6667000000000001	n/a	Yes	2.732	n/a	n/a	GoodResponse	0	n/a	n/a	3	17	Blank	AvoidedLoss	True
175.416	1.45	Lose2	0.6667000000000001	n/a	Yes	2.732	n/a	5.0	GoodResponse	0	0.022	174.438	3	17	Feedback	AvoidedLoss	True
176.87	2.732	Lose2	0.6667000000000001	n/a	Yes	2.732	n/a	n/a	GoodResponse	0	0.0	n/a	3	17	ISIslide	AvoidedLoss	True
179.629	0.25	Lose2	0.6842	0.0	Yes	2.721	0.029	n/a	GoodResponse	0	n/a	n/a	3	18	Cue	AvoidedLoss	True
179.879	4.05	Lose2	0.6842	0.001	Yes	2.721	0.0	n/a	GoodResponse	0	n/a	n/a	3	18	Fixation	AvoidedLoss	True
183.925	0.3	Lose2	0.6842	0.004	Yes	2.721	-0.004	4.0	GoodResponse	0	0.257	183.182	3	18	Target	AvoidedLoss	True
184.182	0.3	Lose2	0.6842	0.004	Yes	2.721	-0.004	4.0	GoodResponse	0	0.257	n/a	3	18	ButtonPress	AvoidedLoss	True
184.226	0.4	Lose2	0.6842	n/a	Yes	2.721	n/a	n/a	GoodResponse	0	n/a	n/a	3	18	Blank	AvoidedLoss	True
184.627	1.45	Lose2	0.6842	n/a	Yes	2.721	n/a	5.0	GoodResponse	0	0.03	183.657	3	18	Feedback	AvoidedLoss	True
186.081	2.721	Lose2	0.6842	n/a	Yes	2.721	n/a	n/a	GoodResponse	0	0.0	n/a	3	18	ISIslide	AvoidedLoss	True
188.823	0.25	Control	0.65	0.0	No	2.927	0.023	n/a	NoResponse	0	n/a	n/a	3	19	Cue	Neutral	True
189.074	3.95	Control	0.65	0.0	No	2.927	0.001	n/a	NoResponse	0	n/a	n/a	3	19	Fixation	Neutral	True
193.019	0.29	Control	0.65	0.004	No	2.927	-0.004	4.0	NoResponse	0	0.344	192.363	3	19	Target	Neutral	True
193.32	0.41	Control	0.65	n/a	No	2.927	n/a	n/a	NoResponse	0	n/a	n/a	3	19	Blank	Neutral	True
193.363	0.3	Control	0.65	0.004	No	2.927	-0.004	4.0	NoResponse	0	0.344	n/a	3	19	ButtonPress	Neutral	True
193.721	1.45	Control	0.65	n/a	No	2.927	n/a	5.0	NoResponse	0	0.009	192.73	3	19	Feedback	Neutral	True
195.175	2.927	Control	0.65	n/a	No	2.927	n/a	n/a	NoResponse	0	0.0	n/a	3	19	ISIslide	Neutral	True
198.117	0.25	Control	0.6667000000000001	0.0	Yes	2.633	0.017	n/a	GoodResponse	0	n/a	n/a	3	20	Cue	Neutral	True
198.368	4.05	Control	0.6667000000000001	0.0	Yes	2.633	0.001	n/a	GoodResponse	0	n/a	n/a	3	20	Fixation	Neutral	True
202.414	0.3	Control	0.6667000000000001	0.003	Yes	2.633	-0.003	4.0	GoodResponse	0	0.279	201.693	3	20	Target	Neutral	True
202.693	0.3	Control	0.6667000000000001	0.003	Yes	2.633	-0.003	4.0	GoodResponse	0	0.279	n/a	3	20	ButtonPress	Neutral	True
202.714	0.4	Control	0.6667000000000001	n/a	Yes	2.633	n/a	n/a	GoodResponse	0	n/a	n/a	3	20	Blank	Neutral	True
203.116	1.45	Control	0.6667000000000001	n/a	Yes	2.633	n/a	5.0	GoodResponse	0	0.029	202.145	3	20	Feedback	Neutral	True
204.57	2.633	Control	0.6667000000000001	n/a	Yes	2.633	n/a	n/a	GoodResponse	0	0.0	n/a	3	20	ISIslide	Neutral	True
207.228	0.25	Control	0.6364	0.0	No	2.772	0.028	n/a	LatePress	0	n/a	n/a	3	21	Cue	Neutral	True
207.479	4.1	Control	0.6364	0.0	No	2.772	0.001	n/a	LatePress	0	n/a	n/a	3	21	Fixation	Neutral	True
211.574	0.29	Control	0.6364	0.004	No	2.772	-0.004	4.0	LatePress	0	0.29	210.864	3	21	Target	Neutral	True
211.864	0.3	Control	0.6364	0.004	No	2.772	-0.004	4.0	LatePress	0	0.29	n/a	3	21	ButtonPress	Neutral	True
211.875	0.41	Control	0.6364	n/a	No	2.772	n/a	n/a	LatePress	0	n/a	n/a	3	21	Blank	Neutral	True
212.276	1.45	Control	0.6364	n/a	No	2.772	n/a	5.0	LatePress	0	0.039	211.315	3	21	Feedback	Neutral	True
213.731	2.772	Control	0.6364	n/a	No	2.772	n/a	n/a	LatePress	0	0.0	n/a	3	21	ISIslide	Neutral	True
216.522	0.25	Control	0.6087	0.001	No	2.778	0.022	n/a	NoResponse	0	n/a	n/a	3	22	Cue	Neutral	True
216.773	4.0	Control	0.6087	0.0	No	2.778	0.001	n/a	NoResponse	0	n/a	n/a	3	22	Fixation	Neutral	True
220.769	0.3	Control	0.6087	0.003	No	2.778	-0.003	4.0	NoResponse	0	0.31	220.079	3	22	Target	Neutral	True
221.069	0.4	Control	0.6087	n/a	No	2.778	n/a	n/a	NoResponse	0	n/a	n/a	3	22	Blank	Neutral	True
221.079	0.3	Control	0.6087	0.003	No	2.778	-0.003	4.0	NoResponse	0	0.31	n/a	3	22	ButtonPress	Neutral	True
221.471	1.45	Control	0.6087	n/a	No	2.778	n/a	5.0	NoResponse	0	0.015	220.486	3	22	Feedback	Neutral	True
222.925	2.778	Control	0.6087	n/a	No	2.778	n/a	n/a	NoResponse	0	0.0	n/a	3	22	ISIslide	Neutral	True
225.717	0.25	Control	0.5832999999999999	0.0	No	2.783	0.017	n/a	NoResponse	0	n/a	n/a	3	23	Cue	Neutral	True
225.967	3.9	Control	0.5832999999999999	0.0	No	2.783	0.0	n/a	NoResponse	0	n/a	n/a	3	23	Fixation	Neutral	True
229.879	0.31	Control	0.5832999999999999	0.0	No	2.783	0.012	4.0	NoResponse	0	0.655	229.534	3	23	Target	Neutral	True
230.18	0.39	Control	0.5832999999999999	n/a	No	2.783	n/a	n/a	NoResponse	0	n/a	n/a	3	23	Blank	Neutral	True
230.534	0.3	Control	0.5832999999999999	0.0	No	2.783	0.012	4.0	NoResponse	0	0.655	n/a	3	23	ButtonPress	Neutral	True
230.564	1.45	Control	0.5832999999999999	n/a	No	2.783	n/a	5.0	NoResponse	0	0.043	229.607	3	23	Feedback	Neutral	True
232.019	2.783	Control	0.5832999999999999	n/a	No	2.783	n/a	n/a	NoResponse	0	0.0	n/a	3	23	ISIslide	Neutral	True
234.827	0.25	Win2	0.6	0.0	Yes	3.123	0.027	n/a	GoodResponse	1	n/a	n/a	4	24	Cue	Win	True
235.078	3.95	Win2	0.6	0.0	Yes	3.123	0.001	n/a	GoodResponse	1	n/a	n/a	4	24	Fixation	Win	True
239.023	0.32	Win2	0.6	0.004	Yes	3.123	-0.004	4.0	GoodResponse	1	0.311	238.334	4	24	Target	Win	True
239.334	0.3	Win2	0.6	0.004	Yes	3.123	-0.004	4.0	GoodResponse	1	0.311	n/a	4	24	ButtonPress	Win	True
239.357	0.38	Win2	0.6	n/a	Yes	3.123	n/a	n/a	GoodResponse	1	n/a	n/a	4	24	Blank	Win	True
239.725	1.45	Win2	0.6	n/a	Yes	3.123	n/a	5.0	GoodResponse	1	0.006	238.731	4	24	Feedback	Win	True
241.18	3.123	Win2	0.6	n/a	Yes	3.123	n/a	n/a	GoodResponse	1	0.0	n/a	4	24	ISIslide	Win	True
244.322	0.25	Win2	0.6154	0.0	Yes	3.078	0.022	n/a	GoodResponse	1	n/a	n/a	5	25	Cue	Win	True
244.573	4.0	Win2	0.6154	0.0	Yes	3.078	0.001	n/a	GoodResponse	1	n/a	n/a	5	25	Fixation	Win	True
248.568	0.33	Win2	0.6154	0.004	Yes	3.078	-0.004	4.0	GoodResponse	1	0.26	247.828	5	25	Target	Win	True
248.828	0.3	Win2	0.6154	0.004	Yes	3.078	-0.004	4.0	GoodResponse	1	0.26	n/a	5	25	ButtonPress	Win	True
248.903	0.37	Win2	0.6154	n/a	Yes	3.078	n/a	n/a	GoodResponse	1	n/a	n/a	5	25	Blank	Win	True
249.27	1.45	Win2	0.6154	n/a	Yes	3.078	n/a	5.0	GoodResponse	1	0.021	248.291	5	25	Feedback	Win	True
250.725	3.078	Win2	0.6154	n/a	Yes	3.078	n/a	n/a	GoodResponse	1	0.0	n/a	5	25	ISIslide	Win	True
253.817	0.25	Win2	0.6296	0.001	Yes	2.933	0.017	n/a	GoodResponse	1	n/a	n/a	6	26	Cue	Win	True
254.068	3.95	Win2	0.6296	0.0	Yes	2.933	0.001	n/a	GoodResponse	1	n/a	n/a	6	26	Fixation	Win	True
258.013	0.34	Win2	0.6296	0.004	Yes	2.933	-0.004	4.0	GoodResponse	1	0.269	257.282	6	26	Target	Win	True
258.282	0.3	Win2	0.6296	0.004	Yes	2.933	-0.004	4.0	GoodResponse	1	0.269	n/a	6	26	ButtonPress	Win	True
258.364	0.36	Win2	0.6296	n/a	Yes	2.933	n/a	n/a	GoodResponse	1	n/a	n/a	6	26	Blank	Win	True
258.715	1.45	Win2	0.6296	n/a	Yes	2.933	n/a	5.0	GoodResponse	1	0.039	257.754	6	26	Feedback	Win	True
260.17	2.933	Win2	0.6296	n/a	Yes	2.933	n/a	n/a	GoodResponse	1	0.0	n/a	6	26	ISIslide	Win	True
263.129	0.25	Lose2	0.6429	0.0	Yes	2.821	0.029	n/a	GoodResponse	0	n/a	n/a	6	27	Cue	AvoidedLoss	True
263.379	4.05	Lose2	0.6429	0.0	Yes	2.821	0.0	n/a	GoodResponse	0	n/a	n/a	6	27	Fixation	AvoidedLoss	True
267.425	0.35	Lose2	0.6429	0.004	Yes	2.821	-0.004	4.0	GoodResponse	0	0.214	266.639	6	27	Target	AvoidedLoss	True
267.639	0.3	Lose2	0.6429	0.004	Yes	2.821	-0.004	4.0	GoodResponse	0	0.214	n/a	6	27	ButtonPress	AvoidedLoss	True
267.776	0.35	Lose2	0.6429	n/a	Yes	2.821	n/a	n/a	GoodResponse	0	n/a	n/a	6	27	Blank	AvoidedLoss	True
268.127	1.45	Lose2	0.6429	n/a	Yes	2.821	n/a	5.0	GoodResponse	0	0.042	267.169	6	27	Feedback	AvoidedLoss	True
269.581	2.821	Lose2	0.6429	n/a	Yes	2.821	n/a	n/a	GoodResponse	0	0.0	n/a	6	27	ISIslide	AvoidedLoss	True
272.423	0.25	Control	0.6207	0.0	No	2.827	0.023	n/a	NoResponse	0	n/a	n/a	6	28	Cue	Neutral	False
272.674	4.05	Control	0.6207	0.0	No	2.827	0.001	4.0	NoResponse	0	3.78	275.454	6	28	Fixation	Neutral	False
276.454	0.3	Control	0.6207	0.0	No	2.827	0.001	4.0	NoResponse	0	3.78	n/a	6	28	ButtonPress	Neutral	False
276.719	0.36	Control	0.6207	0.004	No	2.827	-0.004	4.0	NoResponse	0	0.555	276.274	6	28	Target	Neutral	False
277.087	0.34	Control	0.6207	n/a	No	2.827	n/a	n/a	NoResponse	0	n/a	n/a	6	28	Blank	Neutral	False
277.274	0.3	Control	0.6207	0.004	No	2.827	-0.004	4.0	NoResponse	0	0.555	n/a	6	28	ButtonPress	Neutral	False
277.421	1.45	Control	0.6207	n/a	No	2.827	n/a	5.0	NoResponse	0	0.016	276.437	6	28	Feedback	Neutral	False
278.876	2.827	Control	0.6207	n/a	No	2.827	n/a	n/a	NoResponse	0	0.0	n/a	6	28	ISIslide	Neutral	False
281.718	0.25	Lose2	0.6333	0.0	Yes	2.832	0.018	n/a	GoodResponse	0	n/a	n/a	6	29	Cue	AvoidedLoss	True
281.968	3.95	Lose2	0.6333	0.0	Yes	2.832	0.0	n/a	GoodResponse	0	n/a	n/a	6	29	Fixation	AvoidedLoss	True
285.914	0.37	Lose2	0.6333	0.004	Yes	2.832	-0.004	4.0	GoodResponse	0	0.345	285.259	6	29	Target	AvoidedLoss	True
286.259	0.3	Lose2	0.6333	0.004	Yes	2.832	-0.004	4.0	GoodResponse	0	0.345	n/a	6	29	ButtonPress	AvoidedLoss	True
286.298	0.33	Lose2	0.6333	n/a	Yes	2.832	n/a	n/a	GoodResponse	0	n/a	n/a	6	29	Blank	AvoidedLoss	True
286.616	1.45	Lose2	0.6333	n/a	Yes	2.832	n/a	5.0	GoodResponse	0	0.04	285.656	6	29	Feedback	AvoidedLoss	True
288.07	2.832	Lose2	0.6333	n/a	Yes	2.832	n/a	n/a	GoodResponse	0	0.0	n/a	6	29	ISIslide	AvoidedLoss	True
290.929	0.25	Win2	0.6452	0.0	Yes	2.771	0.029	n/a	GoodResponse	1	n/a	n/a	7	30	Cue	Win	True
291.179	3.9	Win2	0.6452	0.0	Yes	2.771	0.0	n/a	GoodResponse	1	n/a	n/a	7	30	Fixation	Win	True
295.091	0.38	Win2	0.6452	0.0	Yes	2.771	0.012	4.0	GoodResponse	1	0.271	294.362	7	30	Target	Win	True
295.362	0.3	Win2	0.6452	0.0	Yes	2.771	0.012	4.0	GoodResponse	1	0.271	n/a	7	30	ButtonPress	Win	True
295.459	0.32	Win2	0.6452	n/a	Yes	2.771	n/a	n/a	GoodResponse	1	n/a	n/a	7	30	Blank	Win	True
295.776	1.45	Win2	0.6452	n/a	Yes	2.771	n/a	5.0	GoodResponse	1	0.002	294.778	7	30	Feedback	Win	True
297.231	2.771	Win2	0.6452	n/a	Yes	2.771	n/a	n/a	GoodResponse	1	0.0	n/a	7	30	ISIslide	Win	True
300.022	0.25	Lose2	0.6562	0.001	Yes	2.828	0.022	n/a	GoodResponse	0	n/a	n/a	7	31	Cue	AvoidedLoss	True
300.273	4.05	Lose2	0.6562	0.0	Yes	2.828	0.001	n/a	GoodResponse	0	n/a	n/a	7	31	Fixation	AvoidedLoss	True
304.319	0.39	Lose2	0.6562	0.003	Yes	2.828	-0.003	4.0	GoodResponse	0	0.274	303.593	7	31	Target	AvoidedLoss	True
304.593	0.3	Lose2	0.6562	0.003	Yes	2.828	-0.003	4.0	GoodResponse	0	0.274	n/a	7	31	ButtonPress	AvoidedLoss	True
304.72	0.31	Lose2	0.6562	n/a	Yes	2.828	n/a	n/a	GoodResponse	0	n/a	n/a	7	31	Blank	AvoidedLoss	True
305.021	1.45	Lose2	0.6562	n/a	Yes	2.828	n/a	5.0	GoodResponse	0	0.025	304.046	7	31	Feedback	AvoidedLoss	True
306.475	2.828	Lose2	0.6562	n/a	Yes	2.828	n/a	n/a	GoodResponse	0	0.0	n/a	7	31	ISIslide	AvoidedLoss	True
309.317	0.25	Lose2	0.6667000000000001	0.0	Yes	2.633	0.017	n/a	GoodResponse	0	n/a	n/a	7	32	Cue	AvoidedLoss	True
309.568	4.15	Lose2	0.6667000000000001	0.0	Yes	2.633	0.001	n/a	GoodResponse	0	n/a	n/a	7	32	Fixation	AvoidedLoss	True
313.713	0.39	Lose2	0.6667000000000001	0.004	Yes	2.633	-0.004	4.0	GoodResponse	0	0.283	312.996	7	32	Target	AvoidedLoss	True
313.996	0.3	Lose2	0.6667000000000001	0.004	Yes	2.633	-0.004	4.0	GoodResponse	0	0.283	n/a	7	32	ButtonPress	AvoidedLoss	True
314.115	0.31	Lose2	0.6667000000000001	n/a	Yes	2.633	n/a	n/a	GoodResponse	0	n/a	n/a	7	32	Blank	AvoidedLoss	True
314.416	1.45	Lose2	0.6667000000000001	n/a	Yes	2.633	n/a	5.0	GoodResponse	0	0.045	313.461	7	32	Feedback	AvoidedLoss	True
315.87	2.633	Lose2	0.6667000000000001	n/a	Yes	2.633	n/a	n/a	GoodResponse	0	0.0	n/a	7	32	ISIslide	AvoidedLoss	True
318.528	0.25	Win2	0.6765000000000001	0.0	Yes	2.672	0.028	n/a	GoodResponse	1	n/a	n/a	8	33	Cue	Win	True
318.779	4.0	Win2	0.6765000000000001	0.0	Yes	2.672	0.001	n/a	GoodResponse	1	n/a	n/a	8	33	Fixation	Win	True
322.774	0.38	Win2	0.6765000000000001	0.004	Yes	2.672	-0.004	4.0	GoodResponse	1	0.302	322.076	8	33	Target	Win	True
323.076	0.3	Win2	0.6765000000000001	0.004	Yes	2.672	-0.004	4.0	GoodResponse	1	0.302	n/a	8	33	ButtonPress	Win	True
323.158	0.32	Win2	0.6765000000000001	n/a	Yes	2.672	n/a	n/a	GoodResponse	1	n/a	n/a	8	33	Blank	Win	True
323.476	1.45	Win2	0.6765000000000001	n/a	Yes	2.672	n/a	5.0	GoodResponse	1	0.01	322.486	8	33	Feedback	Win	True
324.93	2.672	Win2	0.6765000000000001	n/a	Yes	2.672	n/a	n/a	GoodResponse	1	0.0	n/a	8	33	ISIslide	Win	True
327.622	0.25	Lose2	0.6857	0.0	Yes	2.628	0.022	n/a	GoodResponse	0	n/a	n/a	8	34	Cue	AvoidedLoss	True
327.872	4.05	Lose2	0.6857	0.001	Yes	2.628	0.0	n/a	GoodResponse	0	n/a	n/a	8	34	Fixation	AvoidedLoss	True
331.918	0.37	Lose2	0.6857	0.004	Yes	2.628	-0.004	4.0	GoodResponse	0	0.256	331.174	8	34	Target	AvoidedLoss	True
332.174	0.3	Lose2	0.6857	0.004	Yes	2.628	-0.004	4.0	GoodResponse	0	0.256	n/a	8	34	ButtonPress	AvoidedLoss	True
332.302	0.33	Lose2	0.6857	n/a	Yes	2.628	n/a	n/a	GoodResponse	0	n/a	n/a	8	34	Blank	AvoidedLoss	True
332.62	1.45	Lose2	0.6857	n/a	Yes	2.628	n/a	5.0	GoodResponse	0	0.036	331.656	8	34	Feedback	AvoidedLoss	True
334.074	2.628	Lose2	0.6857	n/a	Yes	2.628	n/a	n/a	GoodResponse	0	0.0	n/a	8	34	ISIslide	AvoidedLoss	True
336.716	0.25	Lose2	0.6944	0.0	Yes	2.684	0.016	n/a	GoodResponse	0	n/a	n/a	8	35	Cue	AvoidedLoss	True
336.966	4.0	Lose2	0.6944	0.0	Yes	2.684	0.0	n/a	GoodResponse	0	n/a	n/a	8	35	Fixation	AvoidedLoss	True
340.962	0.36	Lose2	0.6944	0.004	Yes	2.684	-0.004	4.0	GoodResponse	0	0.285	340.247	8	35	Target	AvoidedLoss	True
341.247	0.3	Lose2	0.6944	0.004	Yes	2.684	-0.004	4.0	GoodResponse	0	0.285	n/a	8	35	ButtonPress	AvoidedLoss	True
341.329	0.34	Lose2	0.6944	n/a	Yes	2.684	n/a	n/a	GoodResponse	0	n/a	n/a	8	35	Blank	AvoidedLoss	True
341.664	1.45	Lose2	0.6944	n/a	Yes	2.684	n/a	5.0	GoodResponse	0	0.016	340.68	8	35	Feedback	AvoidedLoss	True
343.118	2.684	Lose2	0.6944	n/a	Yes	2.684	n/a	n/a	GoodResponse	0	0.0	n/a	8	35	ISIslide	AvoidedLoss	True
345.826	0.25	Control	0.7027	0.0	Yes	2.674	0.026	n/a	GoodResponse	0	n/a	n/a	8	36	Cue	Neutral	True
346.077	4.0	Control	0.7027	0.0	Yes	2.674	0.001	n/a	GoodResponse	0	n/a	n/a	8	36	Fixation	Neutral	True
350.072	0.35	Control	0.7027	0.004	Yes	2.674	-0.004	4.0	GoodResponse	0	0.288	349.36	8	36	Target	Neutral	True
350.36	0.3	Control	0.7027	0.004	Yes	2.674	-0.004	4.0	GoodResponse	0	0.288	n/a	8	36	ButtonPress	Neutral	True
350.423	0.35	Control	0.7027	n/a	Yes	2.674	n/a	n/a	GoodResponse	0	n/a	n/a	8	36	Blank	Neutral	True
350.774	1.45	Control	0.7027	n/a	Yes	2.674	n/a	5.0	GoodResponse	0	0.028	349.802	8	36	Feedback	Neutral	True
352.229	2.674	Control	0.7027	n/a	Yes	2.674	n/a	n/a	GoodResponse	0	0.0	n/a	8	36	ISIslide	Neutral	True
354.92	0.25	Win2	0.7105	0.0	Yes	2.88	0.02	n/a	GoodResponse	1	n/a	n/a	9	37	Cue	Win	True
355.171	4.0	Win2	0.7105	0.0	Yes	2.88	0.001	n/a	GoodResponse	1	n/a	n/a	9	37	Fixation	Win	True
359.166	0.34	Win2	0.7105	0.004	Yes	2.88	-0.004	4.0	GoodResponse	1	0.255	358.421	9	37	Target	Win	True
359.421	0.3	Win2	0.7105	0.004	Yes	2.88	-0.004	4.0	GoodResponse	1	0.255	n/a	9	37	ButtonPress	Win	True
359.517	0.36	Win2	0.7105	n/a	Yes	2.88	n/a	n/a	GoodResponse	1	n/a	n/a	9	37	Blank	Win	True
359.868	1.45	Win2	0.7105	n/a	Yes	2.88	n/a	5.0	GoodResponse	1	0.007	358.875	9	37	Feedback	Win	True
361.323	2.88	Win2	0.7105	n/a	Yes	2.88	n/a	n/a	GoodResponse	1	0.0	n/a	9	37	ISIslide	Win	True
364.231	0.25	Lose2	0.7179000000000001	0.0	Yes	2.819	0.031	n/a	GoodResponse	0	n/a	n/a	9	38	Cue	AvoidedLoss	True
364.482	3.95	Lose2	0.7179000000000001	0.0	Yes	2.819	0.001	n/a	GoodResponse	0	n/a	n/a	9	38	Fixation	AvoidedLoss	True
368.427	0.33	Lose2	0.7179000000000001	0.004	Yes	2.819	-0.004	4.0	GoodResponse	0	0.271	367.698	9	38	Target	AvoidedLoss	True
368.698	0.3	Lose2	0.7179000000000001	0.004	Yes	2.819	-0.004	4.0	GoodResponse	0	0.271	n/a	9	38	ButtonPress	AvoidedLoss	True
368.762	0.37	Lose2	0.7179000000000001	n/a	Yes	2.819	n/a	n/a	GoodResponse	0	n/a	n/a	9	38	Blank	AvoidedLoss	True
369.129	1.45	Lose2	0.7179000000000001	n/a	Yes	2.819	n/a	5.0	GoodResponse	0	0.015	368.144	9	38	Feedback	AvoidedLoss	True
370.584	2.819	Lose2	0.7179000000000001	n/a	Yes	2.819	n/a	n/a	GoodResponse	0	0.0	n/a	9	38	ISIslide	AvoidedLoss	True
373.425	0.25	Win2	0.725	0.001	Yes	2.975	0.025	n/a	GoodResponse	1	n/a	n/a	10	39	Cue	Win	True
373.676	4.1	Win2	0.725	0.0	Yes	2.975	0.001	n/a	GoodResponse	1	n/a	n/a	10	39	Fixation	Win	True
377.772	0.32	Win2	0.725	0.003	Yes	2.975	-0.003	4.0	GoodResponse	1	0.262	377.034	10	39	Target	Win	True
378.034	0.3	Win2	0.725	0.003	Yes	2.975	-0.003	4.0	GoodResponse	1	0.262	n/a	10	39	ButtonPress	Win	True
378.106	0.38	Win2	0.725	n/a	Yes	2.975	n/a	n/a	GoodResponse	1	n/a	n/a	10	39	Blank	Win	True
378.474	1.45	Win2	0.725	n/a	Yes	2.975	n/a	5.0	GoodResponse	1	0.036	377.51	10	39	Feedback	Win	True
379.928	2.975	Win2	0.725	n/a	Yes	2.975	n/a	n/a	GoodResponse	1	0.0	n/a	10	39	ISIslide	Win	True
382.921	0.25	Win2	0.7073	0.0	No	2.729	0.021	n/a	NoResponse	0	n/a	n/a	10	40	Cue	MissedWin	False
383.171	3.95	Win2	0.7073	0.0	No	2.729	0.0	n/a	NoResponse	0	n/a	n/a	10	40	Fixation	MissedWin	False
387.133	0.31	Win2	0.7073	0.0	No	2.729	0.012	n/a	NoResponse	0	n/a	n/a	10	40	Target	MissedWin	False
387.434	0.39	Win2	0.7073	n/a	No	2.729	n/a	n/a	NoResponse	0	n/a	n/a	10	40	Blank	MissedWin	False
387.819	1.45	Win2	0.7073	n/a	No	2.729	n/a	5.0	NoResponse	0	0.008	386.827	10	40	Feedback	MissedWin	False
389.273	2.729	Win2	0.7073	n/a	No	2.729	n/a	n/a	NoResponse	0	0.0	n/a	10	40	ISIslide	MissedWin	False
392.031	0.25	Win2	0.7143	0.0	Yes	2.769	0.031	n/a	GoodResponse	1	n/a	n/a	11	41	Cue	Win	True
392.282	3.9	Win2	0.7143	0.0	Yes	2.769	0.001	n/a	GoodResponse	1	n/a	n/a	11	41	Fixation	Win	True
396.177	0.3	Win2	0.7143	0.004	Yes	2.769	-0.004	4.0	GoodResponse	1	0.271	395.448	11	41	Target	Win	True
396.448	0.3	Win2	0.7143	0.004	Yes	2.769	-0.004	4.0	GoodResponse	1	0.271	n/a	11	41	ButtonPress	Win	True
396.478	0.4	Win2	0.7143	n/a	Yes	2.769	n/a	n/a	GoodResponse	1	n/a	n/a	11	41	Blank	Win	True
396.879	1.45	Win2	0.7143	n/a	Yes	2.769	n/a	5.0	GoodResponse	1	0.02	395.899	11	41	Feedback	Win	True
398.333	2.769	Win2	0.7143	n/a	Yes	2.769	n/a	n/a	GoodResponse	1	0.0	n/a	11	41	ISIslide	Win	True
401.125	0.25	Control	0.6977	0.0	No	2.925	0.025	n/a	NoResponse	0	n/a	n/a	11	42	Cue	Neutral	True
401.376	3.85	Control	0.6977	0.0	No	2.925	0.001	n/a	NoResponse	0	n/a	n/a	11	42	Fixation	Neutral	True
405.221	0.29	Control	0.6977	0.004	No	2.925	-0.004	4.0	NoResponse	0	0.337	404.558	11	42	Target	Neutral	True
405.522	0.41	Control	0.6977	n/a	No	2.925	n/a	n/a	NoResponse	0	n/a	n/a	11	42	Blank	Neutral	True
405.558	0.3	Control	0.6977	0.004	No	2.925	-0.004	4.0	NoResponse	0	0.337	n/a	11	42	ButtonPress	Neutral	True
405.923	1.45	Control	0.6977	n/a	No	2.925	n/a	5.0	NoResponse	0	0.001	404.924	11	42	Feedback	Neutral	True
407.377	2.925	Control	0.6977	n/a	No	2.925	n/a	n/a	NoResponse	0	0.0	n/a	11	42	ISIslide	Neutral	True
410.319	0.25	Win2	0.7045	0.0	Yes	3.181	0.019	n/a	GoodResponse	1	n/a	n/a	12	43	Cue	Win	True
410.57	4.0	Win2	0.7045	0.0	Yes	3.181	0.001	n/a	GoodResponse	1	n/a	n/a	12	43	Fixation	Win	True
414.565	0.28	Win2	0.7045	0.004	Yes	3.181	-0.004	4.0	GoodResponse	1	0.227	413.792	12	43	Target	Win	True
414.792	0.3	Win2	0.7045	0.004	Yes	3.181	-0.004	4.0	GoodResponse	1	0.227	n/a	12	43	ButtonPress	Win	True
414.849	0.42	Win2	0.7045	n/a	Yes	3.181	n/a	n/a	GoodResponse	1	n/a	n/a	12	43	Blank	Win	True
415.267	1.45	Win2	0.7045	n/a	Yes	3.181	n/a	5.0	GoodResponse	1	0.023	414.29	12	43	Feedback	Win	True
416.722	3.181	Win2	0.7045	n/a	Yes	3.181	n/a	n/a	GoodResponse	1	0.0	n/a	12	43	ISIslide	Win	True
419.931	0.25	Win2	0.7111	0.0	Yes	2.969	0.031	n/a	GoodResponse	1	n/a	n/a	13	44	Cue	Win	True
420.182	4.0	Win2	0.7111	0.0	Yes	2.969	0.001	n/a	GoodResponse	1	n/a	n/a	13	44	Fixation	Win	True
424.177	0.27	Win2	0.7111	0.004	Yes	2.969	-0.004	4.0	GoodResponse	1	0.26	423.437	13	44	Target	Win	True
424.437	0.3	Win2	0.7111	0.004	Yes	2.969	-0.004	4.0	GoodResponse	1	0.26	n/a	13	44	ButtonPress	Win	True
424.462	0.43	Win2	0.7111	n/a	Yes	2.969	n/a	n/a	GoodResponse	1	n/a	n/a	13	44	Blank	Win	True
424.879	1.45	Win2	0.7111	n/a	Yes	2.969	n/a	5.0	GoodResponse	1	0.021	423.9	13	44	Feedback	Win	True
426.334	2.969	Win2	0.7111	n/a	Yes	2.969	n/a	n/a	GoodResponse	1	0.0	n/a	13	44	ISIslide	Win	True
429.326	0.25	Control	0.6957	0.0	No	2.874	0.026	n/a	NoResponse	0	n/a	n/a	13	45	Cue	Neutral	False
429.577	4.1	Control	0.6957	0.0	No	2.874	0.001	n/a	NoResponse	0	n/a	n/a	13	45	Fixation	Neutral	False
433.672	0.26	Control	0.6957	0.004	No	2.874	-0.004	n/a	NoResponse	0	n/a	n/a	13	45	Target	Neutral	False
433.94	0.44	Control	0.6957	n/a	No	2.874	n/a	n/a	NoResponse	0	n/a	n/a	13	45	Blank	Neutral	False
434.375	1.45	Control	0.6957	n/a	No	2.874	n/a	5.0	NoResponse	0	0.036	433.411	13	45	Feedback	Neutral	False
435.829	2.874	Control	0.6957	n/a	No	2.874	n/a	n/a	NoResponse	0	0.0	n/a	13	45	ISIslide	Neutral	False
438.721	0.25	Lose2	0.6809000000000001	0.0	No	3.379	0.021	n/a	NoResponse	-1	n/a	n/a	12	46	Cue	Loss	True
438.972	4.0	Lose2	0.6809000000000001	0.0	No	3.379	0.001	n/a	NoResponse	-1	n/a	n/a	12	46	Fixation	Loss	True
442.967	0.25	Lose2	0.6809000000000001	0.004	No	3.379	-0.004	4.0	NoResponse	-1	0.332	442.299	12	46	Target	Loss	True
443.218	0.45	Lose2	0.6809000000000001	n/a	No	3.379	n/a	n/a	NoResponse	-1	n/a	n/a	12	46	Blank	Loss	True
443.299	0.3	Lose2	0.6809000000000001	0.004	No	3.379	-0.004	4.0	NoResponse	-1	0.332	n/a	12	46	ButtonPress	Loss	True
443.669	1.45	Lose2	0.6809000000000001	n/a	No	3.379	n/a	5.0	NoResponse	-1	0.01	442.679	12	46	Feedback	Loss	True
445.123	3.379	Lose2	0.6809000000000001	n/a	No	3.379	n/a	n/a	NoResponse	-1	0.0	n/a	12	46	ISIslide	Loss	True
448.517	0.25	Lose2	0.6667000000000001	0.0	No	2.683	0.017	n/a	LatePress	-1	n/a	n/a	11	47	Cue	Loss	True
448.768	4.0	Lose2	0.6667000000000001	0.0	No	2.683	0.001	n/a	LatePress	-1	n/a	n/a	11	47	Fixation	Loss	True
452.763	0.24	Lose2	0.6667000000000001	0.004	No	2.683	-0.004	4.0	LatePress	-1	0.242	452.005	11	47	Target	Loss	True
453.005	0.3	Lose2	0.6667000000000001	0.004	No	2.683	-0.004	4.0	LatePress	-1	0.242	n/a	11	47	ButtonPress	Loss	True
453.014	0.46	Lose2	0.6667000000000001	n/a	No	2.683	n/a	n/a	LatePress	-1	n/a	n/a	11	47	Blank	Loss	True
453.465	1.45	Lose2	0.6667000000000001	n/a	No	2.683	n/a	5.0	LatePress	-1	0.019	452.484	11	47	Feedback	Loss	True
454.919	2.683	Lose2	0.6667000000000001	n/a	No	2.683	n/a	n/a	LatePress	-1	0.0	n/a	11	47	ISIslide	Loss	True
457.628	0.25	Lose2	0.6531	0.0	No	3.022	0.028	n/a	NoResponse	-1	n/a	n/a	10	48	Cue	Loss	True
457.878	3.95	Lose2	0.6531	0.0	No	3.022	0.0	n/a	NoResponse	-1	n/a	n/a	10	48	Fixation	Loss	True
461.84	0.23	Lose2	0.6531	0.0	No	3.022	0.012	4.0	NoResponse	-1	0.218	461.058	10	48	Target	Loss	True
462.057	0.47	Lose2	0.6531	n/a	No	3.022	n/a	n/a	NoResponse	-1	n/a	n/a	10	48	Blank	Loss	True
462.058	0.3	Lose2	0.6531	0.0	No	3.022	0.012	4.0	NoResponse	-1	0.218	n/a	10	48	ButtonPress	Loss	True
462.526	1.45	Lose2	0.6531	n/a	No	3.022	n/a	5.0	NoResponse	-1	0.032	461.558	10	48	Feedback	Loss	True
463.98	3.022	Lose2	0.6531	n/a	No	3.022	n/a	n/a	NoResponse	-1	0.0	n/a	10	48	ISIslide	Loss	True
467.022	0.25	Control	0.64	0.0	No	2.878	0.022	n/a	NoResponse	0	n/a	n/a	10	49	Cue	Neutral	True
467.273	4.0	Control	0.64	0.0	No	2.878	0.001	n/a	NoResponse	0	n/a	n/a	10	49	Fixation	Neutral	True
471.268	0.24	Control	0.64	0.004	No	2.878	-0.004	4.0	NoResponse	0	0.287	470.555	10	49	Target	Neutral	True
471.519	0.46	Control	0.64	n/a	No	2.878	n/a	n/a	NoResponse	0	n/a	n/a	10	49	Blank	Neutral	True
471.555	0.3	Control	0.64	0.004	No	2.878	-0.004	4.0	NoResponse	0	0.287	n/a	10	49	ButtonPress	Neutral	True
471.97	1.45	Control	0.64	n/a	No	2.878	n/a	5.0	NoResponse	0	0.002	470.972	10	49	Feedback	Neutral	True
473.425	2.878	Control	0.64	n/a	No	2.878	n/a	n/a	NoResponse	0	0.0	n/a	10	49	ISIslide	Neutral	True
476.317	0.25	Control	0.6275	0.0	No	2.783	0.017	n/a	NoResponse	0	n/a	n/a	10	50	Cue	Neutral	True
476.568	4.0	Control	0.6275	0.0	No	2.783	0.001	n/a	NoResponse	0	n/a	n/a	10	50	Fixation	Neutral	True
480.563	0.25	Control	0.6275	0.004	No	2.783	-0.004	4.0	NoResponse	0	0.386	479.949	10	50	Target	Neutral	True
480.814	0.45	Control	0.6275	n/a	No	2.783	n/a	n/a	NoResponse	0	n/a	n/a	10	50	Blank	Neutral	True
480.949	0.3	Control	0.6275	0.004	No	2.783	-0.004	4.0	NoResponse	0	0.386	n/a	10	50	ButtonPress	Neutral	True
481.265	1.45	Control	0.6275	n/a	No	2.783	n/a	5.0	NoResponse	0	0.025	480.29	10	50	Feedback	Neutral	True
482.719	2.783	Control	0.6275	n/a	No	2.783	n/a	n/a	NoResponse	0	0.0	n/a	10	50	ISIslide	Neutral	True
485.528	0.25	Control	0.6154	0.0	No	2.722	0.028	n/a	NoResponse	0	n/a	n/a	10	51	Cue	Neutral	False
485.778	3.95	Control	0.6154	0.001	No	2.722	0.0	4.0	NoResponse	0	1.423	486.201	10	51	Fixation	Neutral	False
487.201	0.3	Control	0.6154	0.001	No	2.722	0.0	4.0	NoResponse	0	1.423	n/a	10	51	ButtonPress	Neutral	False
489.724	0.26	Control	0.6154	0.004	No	2.722	-0.004	4.0	NoResponse	0	0.295	489.019	10	51	Target	Neutral	False
489.991	0.44	Control	0.6154	n/a	No	2.722	n/a	n/a	NoResponse	0	n/a	n/a	10	51	Blank	Neutral	False
490.019	0.3	Control	0.6154	0.004	No	2.722	-0.004	4.0	NoResponse	0	0.295	n/a	10	51	ButtonPress	Neutral	False
490.426	1.45	Control	0.6154	n/a	No	2.722	n/a	5.0	NoResponse	0	0.034	489.46	10	51	Feedback	Neutral	False
491.88	2.722	Control	0.6154	n/a	No	2.722	n/a	n/a	NoResponse	0	0.0	n/a	10	51	ISIslide	Neutral	False
494.622	0.25	Control	0.6038	0.0	No	2.628	0.022	n/a	NoResponse	0	n/a	n/a	10	52	Cue	Neutral	True
494.872	4.05	Control	0.6038	0.0	No	2.628	0.0	n/a	NoResponse	0	n/a	n/a	10	52	Fixation	Neutral	True
498.918	0.27	Control	0.6038	0.004	No	2.628	-0.004	4.0	NoResponse	0	0.302	498.22	10	52	Target	Neutral	True
499.202	0.43	Control	0.6038	n/a	No	2.628	n/a	n/a	NoResponse	0	n/a	n/a	10	52	Blank	Neutral	True
499.22	0.3	Control	0.6038	0.004	No	2.628	-0.004	4.0	NoResponse	0	0.302	n/a	10	52	ButtonPress	Neutral	True
499.62	1.45	Control	0.6038	n/a	No	2.628	n/a	5.0	NoResponse	0	0.01	498.63	10	52	Feedback	Neutral	True
501.074	2.628	Control	0.6038	n/a	No	2.628	n/a	n/a	NoResponse	0	0.0	n/a	10	52	ISIslide	Neutral	True
503.715	0.25	Win2	0.5926	0.001	No	2.935	0.015	n/a	NoResponse	0	n/a	n/a	10	53	Cue	MissedWin	False
503.966	4.05	Win2	0.5926	0.0	No	2.935	0.001	n/a	NoResponse	0	n/a	n/a	10	53	Fixation	MissedWin	False
508.012	0.28	Win2	0.5926	0.003	No	2.935	-0.003	n/a	NoResponse	0	n/a	n/a	10	53	Target	MissedWin	False
508.296	0.42	Win2	0.5926	n/a	No	2.935	n/a	n/a	NoResponse	0	n/a	n/a	10	53	Blank	MissedWin	False
508.714	1.45	Win2	0.5926	n/a	No	2.935	n/a	5.0	NoResponse	0	0.038	507.752	10	53	Feedback	MissedWin	False
510.168	2.935	Win2	0.5926	n/a	No	2.935	n/a	n/a	NoResponse	0	0.0	n/a	10	53	ISIslide	MissedWin	False
513.127	0.25	Win2	0.6	0.0	Yes	2.723	0.027	n/a	GoodResponse	1	n/a	n/a	11	54	Cue	Win	True
513.378	3.95	Win2	0.6	0.0	Yes	2.723	0.001	n/a	GoodResponse	1	n/a	n/a	11	54	Fixation	Win	True
517.323	0.29	Win2	0.6	0.004	Yes	2.723	-0.004	4.0	GoodResponse	1	0.288	516.611	11	54	Target	Win	True
517.611	0.3	Win2	0.6	0.004	Yes	2.723	-0.004	4.0	GoodResponse	1	0.288	n/a	11	54	ButtonPress	Win	True
517.624	0.41	Win2	0.6	n/a	Yes	2.723	n/a	n/a	GoodResponse	1	n/a	n/a	11	54	Blank	Win	True
518.025	1.45	Win2	0.6	n/a	Yes	2.723	n/a	5.0	GoodResponse	1	0.045	517.07	11	54	Feedback	Win	True
519.479	2.723	Win2	0.6	n/a	Yes	2.723	n/a	n/a	GoodResponse	1	0.0	n/a	11	54	ISIslide	Win	True
522.221	0.25	Control	0.5893	0.0	No	3.029	0.021	n/a	NoResponse	0	n/a	n/a	11	55	Cue	Neutral	False
522.472	3.95	Control	0.5893	0.0	No	3.029	0.001	n/a	NoResponse	0	n/a	n/a	11	55	Fixation	Neutral	False
526.417	0.3	Control	0.5893	0.004	No	3.029	-0.004	n/a	NoResponse	0	n/a	n/a	11	55	Target	Neutral	False
526.718	0.4	Control	0.5893	n/a	No	3.029	n/a	n/a	NoResponse	0	n/a	n/a	11	55	Blank	Neutral	False
527.119	1.45	Control	0.5893	n/a	No	3.029	n/a	5.0	NoResponse	0	0.024	526.143	11	55	Feedback	Neutral	False
528.573	3.029	Control	0.5893	n/a	No	3.029	n/a	n/a	NoResponse	0	0.0	n/a	11	55	ISIslide	Neutral	False
531.616	0.25	Control	0.5789	0.0	No	2.834	0.016	n/a	LatePress	0	n/a	n/a	11	56	Cue	Neutral	True
531.866	3.95	Control	0.5789	0.0	No	2.834	0.0	n/a	LatePress	0	n/a	n/a	11	56	Fixation	Neutral	True
535.812	0.31	Control	0.5789	0.004	No	2.834	-0.004	4.0	LatePress	0	0.312	535.124	11	56	Target	Neutral	True
536.124	0.3	Control	0.5789	0.004	No	2.834	-0.004	4.0	LatePress	0	0.312	n/a	11	56	ButtonPress	Neutral	True
536.129	0.39	Control	0.5789	n/a	No	2.834	n/a	n/a	LatePress	0	n/a	n/a	11	56	Blank	Neutral	True
536.514	1.45	Control	0.5789	n/a	No	2.834	n/a	5.0	LatePress	0	0.043	535.557	11	56	Feedback	Neutral	True
537.968	2.834	Control	0.5789	n/a	No	2.834	n/a	n/a	LatePress	0	0.0	n/a	11	56	ISIslide	Neutral	True
540.827	0.25	Control	0.569	0.0	No	3.473	0.027	n/a	NoResponse	0	n/a	n/a	11	57	Cue	Neutral	True
541.077	4.0	Control	0.569	0.0	No	3.473	0.0	n/a	NoResponse	0	n/a	n/a	11	57	Fixation	Neutral	True
545.073	0.32	Control	0.569	0.004	No	3.473	-0.004	4.0	NoResponse	0	0.345	544.418	11	57	Target	Neutral	True
545.407	0.38	Control	0.569	n/a	No	3.473	n/a	n/a	NoResponse	0	n/a	n/a	11	57	Blank	Neutral	True
545.418	0.3	Control	0.569	0.004	No	3.473	-0.004	4.0	NoResponse	0	0.345	n/a	11	57	ButtonPress	Neutral	True
545.775	1.45	Control	0.569	n/a	No	3.473	n/a	5.0	NoResponse	0	0.001	544.776	11	57	Feedback	Neutral	True
547.229	3.473	Control	0.569	n/a	No	3.473	n/a	n/a	NoResponse	0	0.0	n/a	11	57	ISIslide	Neutral	True
550.723	0.25	Win2	0.5763	0.0	Yes	2.727	0.023	n/a	GoodResponse	1	n/a	n/a	12	58	Cue	Win	True
550.974	4.05	Win2	0.5763	0.0	Yes	2.727	0.001	n/a	GoodResponse	1	n/a	n/a	12	58	Fixation	Win	True
555.019	0.33	Win2	0.5763	0.004	Yes	2.727	-0.004	4.0	GoodResponse	1	0.286	554.305	12	58	Target	Win	True
555.305	0.3	Win2	0.5763	0.004	Yes	2.727	-0.004	4.0	GoodResponse	1	0.286	n/a	12	58	ButtonPress	Win	True
555.353	0.37	Win2	0.5763	n/a	Yes	2.727	n/a	n/a	GoodResponse	1	n/a	n/a	12	58	Blank	Win	True
555.721	1.45	Win2	0.5763	n/a	Yes	2.727	n/a	5.0	GoodResponse	1	0.007	554.728	12	58	Feedback	Win	True
557.175	2.727	Win2	0.5763	n/a	Yes	2.727	n/a	n/a	GoodResponse	1	0.0	n/a	12	58	ISIslide	Win	True
559.917	0.25	Lose2	0.5832999999999999	0.0	Yes	2.683	0.017	n/a	GoodResponse	0	n/a	n/a	12	59	Cue	AvoidedLoss	True
560.168	4.0	Lose2	0.5832999999999999	0.0	Yes	2.683	0.001	n/a	GoodResponse	0	n/a	n/a	12	59	Fixation	AvoidedLoss	True
564.163	0.34	Lose2	0.5832999999999999	0.004	Yes	2.683	-0.004	4.0	GoodResponse	0	0.273	563.436	12	59	Target	AvoidedLoss	True
564.436	0.3	Lose2	0.5832999999999999	0.004	Yes	2.683	-0.004	4.0	GoodResponse	0	0.273	n/a	12	59	ButtonPress	AvoidedLoss	True
564.514	0.36	Lose2	0.5832999999999999	n/a	Yes	2.683	n/a	n/a	GoodResponse	0	n/a	n/a	12	59	Blank	AvoidedLoss	True
564.865	1.45	Lose2	0.5832999999999999	n/a	Yes	2.683	n/a	5.0	GoodResponse	0	0.033	563.898	12	59	Feedback	AvoidedLoss	True
566.32	2.683	Lose2	0.5832999999999999	n/a	Yes	2.683	n/a	n/a	GoodResponse	0	0.0	n/a	12	59	ISIslide	AvoidedLoss	True
569.028	0.25	Control	0.5902000000000001	0.0	Yes	2.672	0.028	n/a	GoodResponse	0	n/a	n/a	12	60	Cue	Neutral	True
569.278	4.0	Control	0.5902000000000001	0.0	Yes	2.672	0.0	n/a	GoodResponse	0	n/a	n/a	12	60	Fixation	Neutral	True
573.274	0.35	Control	0.5902000000000001	0.004	Yes	2.672	-0.004	4.0	GoodResponse	0	0.265	572.539	12	60	Target	Neutral	True
573.539	0.3	Control	0.5902000000000001	0.004	Yes	2.672	-0.004	4.0	GoodResponse	0	0.265	n/a	12	60	ButtonPress	Neutral	True
573.625	0.35	Control	0.5902000000000001	n/a	Yes	2.672	n/a	n/a	GoodResponse	0	n/a	n/a	12	60	Blank	Neutral	True
573.976	1.45	Control	0.5902000000000001	n/a	Yes	2.672	n/a	5.0	GoodResponse	0	0.045	573.021	12	60	Feedback	Neutral	True
575.43	2.672	Control	0.5902000000000001	n/a	Yes	2.672	n/a	n/a	GoodResponse	0	0.0	n/a	12	60	ISIslide	Neutral	True
578.122	0.25	Lose2	0.5968	0.0	Yes	2.978	0.022	n/a	GoodResponse	0	n/a	n/a	12	61	Cue	AvoidedLoss	True
578.372	4.0	Lose2	0.5968	0.0	Yes	2.978	0.0	n/a	GoodResponse	0	n/a	n/a	12	61	Fixation	AvoidedLoss	True
582.368	0.36	Lose2	0.5968	0.004	Yes	2.978	-0.004	4.0	GoodResponse	0	0.299	581.667	12	61	Target	AvoidedLoss	True
582.667	0.3	Lose2	0.5968	0.004	Yes	2.978	-0.004	4.0	GoodResponse	0	0.299	n/a	12	61	ButtonPress	AvoidedLoss	True
582.735	0.34	Lose2	0.5968	n/a	Yes	2.978	n/a	n/a	GoodResponse	0	n/a	n/a	12	61	Blank	AvoidedLoss	True
583.07	1.45	Lose2	0.5968	n/a	Yes	2.978	n/a	5.0	GoodResponse	0	0.023	582.093	12	61	Feedback	AvoidedLoss	True
584.524	2.978	Lose2	0.5968	n/a	Yes	2.978	n/a	n/a	GoodResponse	0	0.0	n/a	12	61	ISIslide	AvoidedLoss	True
587.516	0.25	Lose2	0.6032	0.0	Yes	2.884	0.016	n/a	GoodResponse	0	n/a	n/a	12	62	Cue	AvoidedLoss	True
587.767	3.9	Lose2	0.6032	0.0	Yes	2.884	0.001	n/a	GoodResponse	0	n/a	n/a	12	62	Fixation	AvoidedLoss	True
591.662	0.37	Lose2	0.6032	0.004	Yes	2.884	-0.004	4.0	GoodResponse	0	0.284	590.946	12	62	Target	AvoidedLoss	True
591.946	0.3	Lose2	0.6032	0.004	Yes	2.884	-0.004	4.0	GoodResponse	0	0.284	n/a	12	62	ButtonPress	AvoidedLoss	True
592.047	0.33	Lose2	0.6032	n/a	Yes	2.884	n/a	n/a	GoodResponse	0	n/a	n/a	12	62	Blank	AvoidedLoss	True
592.364	1.45	Lose2	0.6032	n/a	Yes	2.884	n/a	5.0	GoodResponse	0	0.046	591.41	12	62	Feedback	AvoidedLoss	True
593.819	2.884	Lose2	0.6032	n/a	Yes	2.884	n/a	n/a	GoodResponse	0	0.0	n/a	12	62	ISIslide	AvoidedLoss	True
596.727	0.25	Lose2	0.6093999999999999	0.0	Yes	2.623	0.027	n/a	GoodResponse	0	n/a	n/a	12	63	Cue	AvoidedLoss	True
596.978	4.05	Lose2	0.6093999999999999	0.0	Yes	2.623	0.001	n/a	GoodResponse	0	n/a	n/a	12	63	Fixation	AvoidedLoss	True
601.023	0.38	Lose2	0.6093999999999999	0.004	Yes	2.623	-0.004	4.0	GoodResponse	0	0.273	600.296	12	63	Target	AvoidedLoss	True
601.296	0.3	Lose2	0.6093999999999999	0.004	Yes	2.623	-0.004	4.0	GoodResponse	0	0.273	n/a	12	63	ButtonPress	AvoidedLoss	True
601.408	0.32	Lose2	0.6093999999999999	n/a	Yes	2.623	n/a	n/a	GoodResponse	0	n/a	n/a	12	63	Blank	AvoidedLoss	True
601.726	1.45	Lose2	0.6093999999999999	n/a	Yes	2.623	n/a	5.0	GoodResponse	0	0.001	600.727	12	63	Feedback	AvoidedLoss	True
603.18	2.623	Lose2	0.6093999999999999	n/a	Yes	2.623	n/a	n/a	GoodResponse	0	0.0	n/a	12	63	ISIslide	AvoidedLoss	True
605.821	0.25	Win2	0.6154	0.0	Yes	3.129	0.021	n/a	GoodResponse	1	n/a	n/a	13	64	Cue	Win	True
606.072	4.15	Win2	0.6154	0.0	Yes	3.129	0.001	n/a	GoodResponse	1	n/a	n/a	13	64	Fixation	Win	True
610.218	0.39	Win2	0.6154	0.003	Yes	3.129	-0.003	4.0	GoodResponse	1	0.302	609.52	13	64	Target	Win	True
610.52	0.3	Win2	0.6154	0.003	Yes	3.129	-0.003	4.0	GoodResponse	1	0.302	n/a	13	64	ButtonPress	Win	True
610.619	0.31	Win2	0.6154	n/a	Yes	3.129	n/a	n/a	GoodResponse	1	n/a	n/a	13	64	Blank	Win	True
610.92	1.45	Win2	0.6154	n/a	Yes	3.129	n/a	5.0	GoodResponse	1	0.027	609.947	13	64	Feedback	Win	True
612.374	3.129	Win2	0.6154	n/a	Yes	3.129	n/a	n/a	GoodResponse	1	0.0	n/a	13	64	ISIslide	Win	True
615.517	0.25	Control	0.6061	0.0	No	2.783	0.017	n/a	NoResponse	0	n/a	n/a	13	65	Cue	Neutral	True
615.768	4.0	Control	0.6061	0.0	No	2.783	0.001	n/a	NoResponse	0	n/a	n/a	13	65	Fixation	Neutral	True
619.763	0.4	Control	0.6061	0.004	No	2.783	-0.004	4.0	NoResponse	0	0.411	619.174	13	65	Target	Neutral	True
620.164	0.3	Control	0.6061	n/a	No	2.783	n/a	n/a	NoResponse	0	n/a	n/a	13	65	Blank	Neutral	True
620.174	0.3	Control	0.6061	0.004	No	2.783	-0.004	4.0	NoResponse	0	0.411	n/a	13	65	ButtonPress	Neutral	True
620.465	1.45	Control	0.6061	n/a	No	2.783	n/a	5.0	NoResponse	0	0.043	619.508	13	65	Feedback	Neutral	True
621.919	2.783	Control	0.6061	n/a	No	2.783	n/a	n/a	NoResponse	0	0.0	n/a	13	65	ISIslide	Neutral	True
624.728	0.25	Win2	0.597	0.0	No	2.772	0.028	n/a	NoResponse	0	n/a	n/a	13	66	Cue	MissedWin	False
624.978	3.9	Win2	0.597	0.001	No	2.772	0.0	n/a	NoResponse	0	n/a	n/a	13	66	Fixation	MissedWin	False
628.89	0.41	Win2	0.597	0.0	No	2.772	0.012	n/a	NoResponse	0	n/a	n/a	13	66	Target	MissedWin	False
629.291	0.29	Win2	0.597	n/a	No	2.772	n/a	n/a	NoResponse	0	n/a	n/a	13	66	Blank	MissedWin	False
629.576	1.45	Win2	0.597	n/a	No	2.772	n/a	5.0	NoResponse	0	0.007	628.583	13	66	Feedback	MissedWin	False
631.03	2.772	Win2	0.597	n/a	No	2.772	n/a	n/a	NoResponse	0	0.0	n/a	13	66	ISIslide	MissedWin	False
633.822	0.25	Control	0.6029	0.0	Yes	2.728	0.022	n/a	GoodResponse	0	n/a	n/a	13	67	Cue	Neutral	True
634.072	3.95	Control	0.6029	0.0	Yes	2.728	0.0	n/a	GoodResponse	0	n/a	n/a	13	67	Fixation	Neutral	True
638.034	0.42	Control	0.6029	0.0	Yes	2.728	0.012	4.0	GoodResponse	0	0.345	637.379	13	67	Target	Neutral	True
638.379	0.3	Control	0.6029	0.0	Yes	2.728	0.012	4.0	GoodResponse	0	0.345	n/a	13	67	ButtonPress	Neutral	True
638.452	0.28	Control	0.6029	n/a	Yes	2.728	n/a	n/a	GoodResponse	0	n/a	n/a	13	67	Blank	Neutral	True
638.72	1.45	Control	0.6029	n/a	Yes	2.728	n/a	5.0	GoodResponse	0	0.031	637.751	13	67	Feedback	Neutral	True
640.174	2.728	Control	0.6029	n/a	Yes	2.728	n/a	n/a	GoodResponse	0	0.0	n/a	13	67	ISIslide	Neutral	True
642.915	0.25	Win2	0.6087	0.001	Yes	3.085	0.015	n/a	GoodResponse	1	n/a	n/a	14	68	Cue	Win	True
643.166	4.0	Win2	0.6087	0.0	Yes	3.085	0.001	n/a	GoodResponse	1	n/a	n/a	14	68	Fixation	Win	True
647.162	0.43	Win2	0.6087	0.003	Yes	3.085	-0.003	4.0	GoodResponse	1	0.282	646.444	14	68	Target	Win	True
647.444	0.3	Win2	0.6087	0.003	Yes	3.085	-0.003	4.0	GoodResponse	1	0.282	n/a	14	68	ButtonPress	Win	True
647.596	0.27	Win2	0.6087	n/a	Yes	3.085	n/a	n/a	GoodResponse	1	n/a	n/a	14	68	Blank	Win	True
647.864	1.45	Win2	0.6087	n/a	Yes	3.085	n/a	5.0	GoodResponse	1	0.009	646.873	14	68	Feedback	Win	True
649.318	3.085	Win2	0.6087	n/a	Yes	3.085	n/a	n/a	GoodResponse	1	0.0	n/a	14	68	ISIslide	Win	True
652.427	0.25	Win2	0.6143	0.0	Yes	3.223	0.027	n/a	GoodResponse	1	n/a	n/a	15	69	Cue	Win	True
652.678	3.95	Win2	0.6143	0.0	Yes	3.223	0.001	n/a	GoodResponse	1	n/a	n/a	15	69	Fixation	Win	True
656.623	0.44	Win2	0.6143	0.004	Yes	3.223	-0.004	4.0	GoodResponse	1	0.301	655.924	15	69	Target	Win	True
656.924	0.3	Win2	0.6143	0.004	Yes	3.223	-0.004	4.0	GoodResponse	1	0.301	n/a	15	69	ButtonPress	Win	True
657.075	0.26	Win2	0.6143	n/a	Yes	3.223	n/a	n/a	GoodResponse	1	n/a	n/a	15	69	Blank	Win	True
657.325	1.45	Win2	0.6143	n/a	Yes	3.223	n/a	5.0	GoodResponse	1	0.012	656.337	15	69	Feedback	Win	True
658.78	3.223	Win2	0.6143	n/a	Yes	3.223	n/a	n/a	GoodResponse	1	0.0	n/a	15	69	ISIslide	Win	True
662.023	0.25	Lose2	0.6197	0.0	Yes	3.027	0.023	n/a	GoodResponse	0	n/a	n/a	15	70	Cue	AvoidedLoss	True
662.273	4.05	Lose2	0.6197	0.0	Yes	3.027	0.0	n/a	GoodResponse	0	n/a	n/a	15	70	Fixation	AvoidedLoss	True
666.319	0.45	Lose2	0.6197	0.004	Yes	3.027	-0.004	4.0	GoodResponse	0	0.282	665.601	15	70	Target	AvoidedLoss	True
666.601	0.3	Lose2	0.6197	0.004	Yes	3.027	-0.004	4.0	GoodResponse	0	0.282	n/a	15	70	ButtonPress	AvoidedLoss	True
666.77	0.25	Lose2	0.6197	n/a	Yes	3.027	n/a	n/a	GoodResponse	0	n/a	n/a	15	70	Blank	AvoidedLoss	True
667.021	1.45	Lose2	0.6197	n/a	Yes	3.027	n/a	5.0	GoodResponse	0	0.023	666.044	15	70	Feedback	AvoidedLoss	True
668.475	3.027	Lose2	0.6197	n/a	Yes	3.027	n/a	n/a	GoodResponse	0	0.0	n/a	15	70	ISIslide	AvoidedLoss	True
671.518	0.25	Win2	0.625	0.0	Yes	2.732	0.018	n/a	GoodResponse	1	n/a	n/a	16	71	Cue	Win	True
671.769	4.05	Win2	0.625	0.0	Yes	2.732	0.001	n/a	GoodResponse	1	n/a	n/a	16	71	Fixation	Win	True
675.814	0.46	Win2	0.625	0.004	Yes	2.732	-0.004	4.0	GoodResponse	1	0.333	675.147	16	71	Target	Win	True
676.147	0.3	Win2	0.625	0.004	Yes	2.732	-0.004	4.0	GoodResponse	1	0.333	n/a	16	71	ButtonPress	Win	True
676.282	0.24	Win2	0.625	n/a	Yes	2.732	n/a	n/a	GoodResponse	1	n/a	n/a	16	71	Blank	Win	True
676.516	1.45	Win2	0.625	n/a	Yes	2.732	n/a	5.0	GoodResponse	1	0.041	675.557	16	71	Feedback	Win	True
677.97	2.732	Win2	0.625	n/a	Yes	2.732	n/a	n/a	GoodResponse	1	0.0	n/a	16	71	ISIslide	Win	True
680.729	0.25	Win2	0.6301	0.0	Yes	2.771	0.029	n/a	GoodResponse	1	n/a	n/a	17	72	Cue	Win	True
680.979	4.1	Win2	0.6301	0.0	Yes	2.771	0.0	n/a	GoodResponse	1	n/a	n/a	17	72	Fixation	Win	True
685.075	0.47	Win2	0.6301	0.004	Yes	2.771	-0.004	4.0	GoodResponse	1	0.284	684.359	17	72	Target	Win	True
685.359	0.3	Win2	0.6301	0.004	Yes	2.771	-0.004	4.0	GoodResponse	1	0.284	n/a	17	72	ButtonPress	Win	True
685.56	0.23	Win2	0.6301	n/a	Yes	2.771	n/a	n/a	GoodResponse	1	n/a	n/a	17	72	Blank	Win	True
685.777	1.45	Win2	0.6301	n/a	Yes	2.771	n/a	5.0	GoodResponse	1	0.047	684.824	17	72	Feedback	Win	True
687.231	2.771	Win2	0.6301	n/a	Yes	2.771	n/a	n/a	GoodResponse	1	0.0	n/a	17	72	ISIslide	Win	True
690.023	0.25	Win2	0.6351	0.0	Yes	2.677	0.023	n/a	GoodResponse	1	n/a	n/a	18	73	Cue	Win	True
690.274	4.0	Win2	0.6351	0.0	Yes	2.677	0.001	n/a	GoodResponse	1	n/a	n/a	18	73	Fixation	Win	True
694.269	0.48	Win2	0.6351	0.004	Yes	2.677	-0.004	4.0	GoodResponse	1	0.258	693.527	18	73	Target	Win	True
694.527	0.3	Win2	0.6351	0.004	Yes	2.677	-0.004	4.0	GoodResponse	1	0.258	n/a	18	73	ButtonPress	Win	True
694.754	0.22	Win2	0.6351	n/a	Yes	2.677	n/a	n/a	GoodResponse	1	n/a	n/a	18	73	Blank	Win	True
694.971	1.45	Win2	0.6351	n/a	Yes	2.677	n/a	5.0	GoodResponse	1	0.024	693.995	18	73	Feedback	Win	True
696.426	2.677	Win2	0.6351	n/a	Yes	2.677	n/a	n/a	GoodResponse	1	0.0	n/a	18	73	ISIslide	Win	True
699.117	0.25	Lose2	0.6267	0.0	No	2.633	0.017	n/a	NoResponse	-1	n/a	n/a	17	74	Cue	Loss	False
699.368	4.05	Lose2	0.6267	0.0	No	2.633	0.001	n/a	NoResponse	-1	n/a	n/a	17	74	Fixation	Loss	False
703.413	0.49	Lose2	0.6267	0.004	No	2.633	-0.004	n/a	NoResponse	-1	n/a	n/a	17	74	Target	Loss	False
703.915	0.21	Lose2	0.6267	n/a	No	2.633	n/a	n/a	NoResponse	-1	n/a	n/a	17	74	Blank	Loss	False
704.115	1.45	Lose2	0.6267	n/a	No	2.633	n/a	5.0	NoResponse	-1	0.002	703.117	17	74	Feedback	Loss	False
705.57	2.633	Lose2	0.6267	n/a	No	2.633	n/a	n/a	NoResponse	-1	0.0	n/a	17	74	ISIslide	Loss	False
708.228	0.25	Lose2	0.6315999999999999	0.0	Yes	2.922	0.028	n/a	GoodResponse	0	n/a	n/a	17	75	Cue	AvoidedLoss	True
708.478	3.95	Lose2	0.6315999999999999	0.0	Yes	2.922	0.0	n/a	GoodResponse	0	n/a	n/a	17	75	Fixation	AvoidedLoss	True
712.424	0.5	Lose2	0.6315999999999999	0.004	Yes	2.922	-0.004	4.0	GoodResponse	0	0.272	711.696	17	75	Target	AvoidedLoss	True
712.696	0.3	Lose2	0.6315999999999999	0.004	Yes	2.922	-0.004	4.0	GoodResponse	0	0.272	n/a	17	75	ButtonPress	AvoidedLoss	True
712.925	0.2	Lose2	0.6315999999999999	n/a	Yes	2.922	n/a	n/a	GoodResponse	0	n/a	n/a	17	75	Blank	AvoidedLoss	True
713.126	1.45	Lose2	0.6315999999999999	n/a	Yes	2.922	n/a	5.0	GoodResponse	0	0.015	712.141	17	75	Feedback	AvoidedLoss	True
714.58	2.922	Lose2	0.6315999999999999	n/a	Yes	2.922	n/a	n/a	GoodResponse	0	0.0	n/a	17	75	ISIslide	AvoidedLoss	True
717.522	0.25	Control	0.6364	0.0	Yes	3.228	0.022	n/a	GoodResponse	0	n/a	n/a	17	76	Cue	Neutral	True
717.773	4.05	Control	0.6364	0.0	Yes	3.228	0.001	n/a	GoodResponse	0	n/a	n/a	17	76	Fixation	Neutral	True
721.818	0.5	Control	0.6364	0.004	Yes	3.228	-0.004	4.0	GoodResponse	0	0.429	721.247	17	76	Target	Neutral	True
722.247	0.3	Control	0.6364	0.004	Yes	3.228	-0.004	4.0	GoodResponse	0	0.429	n/a	17	76	ButtonPress	Neutral	True
722.32	0.2	Control	0.6364	n/a	Yes	3.228	n/a	n/a	GoodResponse	0	n/a	n/a	17	76	Blank	Neutral	True
722.52	1.45	Control	0.6364	n/a	Yes	3.228	n/a	5.0	GoodResponse	0	0.036	721.556	17	76	Feedback	Neutral	True
723.975	3.228	Control	0.6364	n/a	Yes	3.228	n/a	n/a	GoodResponse	0	0.0	n/a	17	76	ISIslide	Neutral	True
727.218	0.25	Lose2	0.6409999999999999	0.0	Yes	2.582	0.018	n/a	GoodResponse	0	n/a	n/a	17	77	Cue	AvoidedLoss	True
727.469	3.95	Lose2	0.6409999999999999	0.0	Yes	2.582	0.001	n/a	GoodResponse	0	n/a	n/a	17	77	Fixation	AvoidedLoss	True
731.414	0.5	Lose2	0.6409999999999999	0.004	Yes	2.582	-0.004	4.0	GoodResponse	0	0.273	730.687	17	77	Target	AvoidedLoss	True
731.687	0.3	Lose2	0.6409999999999999	0.004	Yes	2.582	-0.004	4.0	GoodResponse	0	0.273	n/a	17	77	ButtonPress	AvoidedLoss	True
731.915	0.2	Lose2	0.6409999999999999	n/a	Yes	2.582	n/a	n/a	GoodResponse	0	n/a	n/a	17	77	Blank	AvoidedLoss	True
732.116	1.45	Lose2	0.6409999999999999	n/a	Yes	2.582	n/a	5.0	GoodResponse	0	0.001	731.117	17	77	Feedback	AvoidedLoss	True
733.57	2.582	Lose2	0.6409999999999999	n/a	Yes	2.582	n/a	n/a	GoodResponse	0	0.0	n/a	17	77	ISIslide	AvoidedLoss	True
