onset	duration	cue_type	current_mean_accuracy	duration_error	is_hit	isi_adjusted	onset_delay	response	response_type	reward	rt	rt_time	total_reward	trial_number	trial_phase	trial_type	one_press
11.102	0.25	Control	1.0	0.0	Yes	2.948	0.002	n/a	GoodResponse	0	n/a	n/a	0	0	Cue	Neutral	True
11.352	3.85	Control	1.0	0.0	Yes	2.948	0.0	n/a	GoodResponse	0	n/a	n/a	0	0	Fixation	Neutral	True
15.201	0.4	Control	1.0	0.001	Yes	2.948	-0.001	4.0	GoodResponse	0	0.33	14.531	0	0	Target	Neutral	True
15.531	0.3	Control	1.0	0.001	Yes	2.948	-0.001	4.0	GoodResponse	0	0.33	n/a	0	0	ButtonPress	Neutral	True
15.6	0.3	Control	1.0	n/a	Yes	2.948	n/a	n/a	GoodResponse	0	n/a	n/a	0	0	Blank	Neutral	True
15.9	1.45	Control	1.0	n/a	Yes	2.948	n/a	5.0	GoodResponse	0	0.029	14.929	0	0	Feedback	Neutral	True
17.35	2.948	Control	1.0	n/a	Yes	2.948	n/a	n/a	GoodResponse	0	0.0	n/a	0	0	ISIslide	Neutral	True
20.315	0.25	Lose2	1.0	0.001	Yes	2.785	0.015	n/a	GoodResponse	0	n/a	n/a	0	1	Cue	AvoidedLoss	True
20.565	4.0	Lose2	1.0	0.0	Yes	2.785	0.0	n/a	GoodResponse	0	n/a	n/a	0	1	Fixation	AvoidedLoss	True
24.564	0.39	Lose2	1.0	0.001	Yes	2.785	-0.001	4.0	GoodResponse	0	0.213	23.777	0	1	Target	AvoidedLoss	True
24.777	0.3	Lose2	1.0	0.001	Yes	2.785	-0.001	4.0	GoodResponse	0	0.213	n/a	0	1	ButtonPress	AvoidedLoss	True
24.964	0.31	Lose2	1.0	n/a	Yes	2.785	n/a	n/a	GoodResponse	0	n/a	n/a	0	1	Blank	AvoidedLoss	True
25.264	1.45	Lose2	1.0	n/a	Yes	2.785	n/a	5.0	GoodResponse	0	0.03	24.294	0	1	Feedback	AvoidedLoss	True
26.713	2.785	Lose2	1.0	n/a	Yes	2.785	n/a	n/a	GoodResponse	0	0.0	n/a	0	1	ISIslide	AvoidedLoss	True
29.529	0.25	Control	1.0	0.0	Yes	2.571	0.029	n/a	GoodResponse	0	n/a	n/a	0	2	Cue	Neutral	False
29.779	4.1	Control	1.0	0.0	Yes	2.571	0.0	4.0	GoodResponse	0	3.126	31.905	0	2	Fixation	Neutral	False
32.905	0.3	Control	1.0	0.0	Yes	2.571	0.0	4.0	GoodResponse	0	3.126	n/a	0	2	ButtonPress	Neutral	False
33.877	0.38	Control	1.0	0.002	Yes	2.571	-0.002	4.0	GoodResponse	0	0.222	33.099	0	2	Target	Neutral	False
34.099	0.3	Control	1.0	0.002	Yes	2.571	-0.002	4.0	GoodResponse	0	0.222	n/a	0	2	ButtonPress	Neutral	False
34.26	0.32	Control	1.0	n/a	Yes	2.571	n/a	n/a	GoodResponse	0	n/a	n/a	0	2	Blank	Neutral	False
34.577	1.45	Control	1.0	n/a	Yes	2.571	n/a	5.0	GoodResponse	0	0.035	33.612	0	2	Feedback	Neutral	False
36.027	2.571	Control	1.0	n/a	Yes	2.571	n/a	n/a	GoodResponse	0	0.0	n/a	0	2	ISIslide	Neutral	False
38.626	0.25	Win2	1.0	0.0	Yes	2.824	0.026	n/a	GoodResponse	1	n/a	n/a	1	3	Cue	Win	True
38.876	3.95	Win2	1.0	0.0	Yes	2.824	0.0	n/a	GoodResponse	1	n/a	n/a	1	3	Fixation	Win	True
42.824	0.37	Win2	1.0	0.002	Yes	2.824	-0.002	4.0	GoodResponse	1	0.214	42.038	1	3	Target	Win	True
43.038	0.3	Win2	1.0	0.002	Yes	2.824	-0.002	4.0	GoodResponse	1	0.214	n/a	1	3	ButtonPress	Win	True
43.207	0.33	Win2	1.0	n/a	Yes	2.824	n/a	n/a	GoodResponse	1	n/a	n/a	1	3	Blank	Win	True
43.524	1.45	Win2	1.0	n/a	Yes	2.824	n/a	5.0	GoodResponse	1	0.015	42.539	1	3	Feedback	Win	True
44.973	2.824	Win2	1.0	n/a	Yes	2.824	n/a	n/a	GoodResponse	1	0.0	n/a	1	3	ISIslide	Win	True
47.822	0.25	Win2	1.0	0.0	Yes	3.278	0.022	n/a	GoodResponse	1	n/a	n/a	2	4	Cue	Win	True
48.072	4.0	Win2	1.0	0.0	Yes	3.278	0.0	n/a	GoodResponse	1	n/a	n/a	2	4	Fixation	Win	True
52.071	0.36	Win2	1.0	0.001	Yes	3.278	-0.001	4.0	GoodResponse	1	0.247	51.318	2	4	Target	Win	True
52.318	0.3	Win2	1.0	0.001	Yes	3.278	-0.001	4.0	GoodResponse	1	0.247	n/a	2	4	ButtonPress	Win	True
52.437	0.34	Win2	1.0	n/a	Yes	3.278	n/a	n/a	GoodResponse	1	n/a	n/a	2	4	Blank	Win	True
52.771	1.45	Win2	1.0	n/a	Yes	3.278	n/a	5.0	GoodResponse	1	0.036	51.807	2	4	Feedback	Win	True
54.22	3.278	Win2	1.0	n/a	Yes	3.278	n/a	n/a	GoodResponse	1	0.0	n/a	2	4	ISIslide	Win	True
57.519	0.25	Win2	1.0	0.0	Yes	2.781	0.019	n/a	GoodResponse	1	n/a	n/a	3	5	Cue	Win	True
57.769	4.0	Win2	1.0	0.0	Yes	2.781	0.0	n/a	GoodResponse	1	n/a	n/a	3	5	Fixation	Win	True
61.767	0.35	Win2	1.0	0.002	Yes	2.781	-0.002	4.0	GoodResponse	1	0.289	61.056	3	5	Target	Win	True
62.056	0.3	Win2	1.0	0.002	Yes	2.781	-0.002	4.0	GoodResponse	1	0.289	n/a	3	5	ButtonPress	Win	True
62.117	0.35	Win2	1.0	n/a	Yes	2.781	n/a	n/a	GoodResponse	1	n/a	n/a	3	5	Blank	Win	True
62.467	1.45	Win2	1.0	n/a	Yes	2.781	n/a	5.0	GoodResponse	1	0.046	61.513	3	5	Feedback	Win	True
63.917	2.781	Win2	1.0	n/a	Yes	2.781	n/a	n/a	GoodResponse	1	0.0	n/a	3	5	ISIslide	Win	True
66.716	0.25	Lose2	1.0	0.0	Yes	2.734	0.016	n/a	GoodResponse	0	n/a	n/a	3	6	Cue	AvoidedLoss	True
66.966	3.95	Lose2	1.0	0.0	Yes	2.734	0.0	n/a	GoodResponse	0	n/a	n/a	3	6	Fixation	AvoidedLoss	True
70.914	0.34	Lose2	1.0	0.002	Yes	2.734	-0.002	4.0	GoodResponse	0	0.31	70.224	3	6	Target	AvoidedLoss	True
71.224	0.3	Lose2	1.0	0.002	Yes	2.734	-0.002	4.0	GoodResponse	0	0.31	n/a	3	6	ButtonPress	AvoidedLoss	True
71.264	0.36	Lose2	1.0	n/a	Yes	2.734	n/a	n/a	GoodResponse	0	n/a	n/a	3	6	Blank	AvoidedLoss	True
71.614	1.45	Lose2	1.0	n/a	Yes	2.734	n/a	5.0	GoodResponse	0	0.021	70.635	3	6	Feedback	AvoidedLoss	True
73.063	2.734	Lose2	1.0	n/a	Yes	2.734	n/a	n/a	GoodResponse	0	0.0	n/a	3	6	ISIslide	AvoidedLoss	True
75.829	0.25	Lose2	1.0	0.0	Yes	4.021	0.029	n/a	GoodResponse	0	n/a	n/a	3	7	Cue	AvoidedLoss	True
76.079	4.05	Lose2	1.0	0.0	Yes	4.021	0.0	n/a	GoodResponse	0	n/a	n/a	3	7	Fixation	AvoidedLoss	True
80.128	0.33	Lose2	1.0	0.001	Yes	4.021	-0.001	4.0	GoodResponse	0	0.277	79.405	3	7	Target	AvoidedLoss	True
80.405	0.3	Lose2	1.0	0.001	Yes	4.021	-0.001	4.0	GoodResponse	0	0.277	n/a	3	7	ButtonPress	AvoidedLoss	True
80.461	0.37	Lose2	1.0	n/a	Yes	4.021	n/a	n/a	GoodResponse	0	n/a	n/a	3	7	Blank	AvoidedLoss	True
80.827	1.45	Lose2	1.0	n/a	Yes	4.021	n/a	5.0	GoodResponse	0	0.028	79.855	3	7	Feedback	AvoidedLoss	True
82.277	4.021	Lose2	1.0	n/a	Yes	4.021	n/a	n/a	GoodResponse	0	0.0	n/a	3	7	ISIslide	AvoidedLoss	True
86.325	0.25	Lose2	1.0	0.0	Yes	3.025	0.025	n/a	GoodResponse	0	n/a	n/a	3	8	Cue	AvoidedLoss	True
86.575	3.95	Lose2	1.0	0.0	Yes	3.025	0.0	n/a	GoodResponse	0	n/a	n/a	3	8	Fixation	AvoidedLoss	True
90.524	0.32	Lose2	1.0	0.001	Yes	3.025	-0.001	4.0	GoodResponse	0	0.248	89.772	3	8	Target	AvoidedLoss	True
90.772	0.3	Lose2	1.0	0.001	Yes	3.025	-0.001	4.0	GoodResponse	0	0.248	n/a	3	8	ButtonPress	AvoidedLoss	True
90.857	0.38	Lose2	1.0	n/a	Yes	3.025	n/a	n/a	GoodResponse	0	n/a	n/a	3	8	Blank	AvoidedLoss	True
91.224	1.45	Lose2	1.0	n/a	Yes	3.025	n/a	5.0	GoodResponse	0	0.021	90.245	3	8	Feedback	AvoidedLoss	True
92.673	3.025	Lose2	1.0	n/a	Yes	3.025	n/a	n/a	GoodResponse	0	0.0	n/a	3	8	ISIslide	AvoidedLoss	True
95.722	0.25	Lose2	1.0	0.0	Yes	3.128	0.022	n/a	GoodResponse	0	n/a	n/a	3	9	Cue	AvoidedLoss	True
95.972	3.95	Lose2	1.0	0.0	Yes	3.128	0.0	n/a	GoodResponse	0	n/a	n/a	3	9	Fixation	AvoidedLoss	True
99.92	0.31	Lose2	1.0	0.002	Yes	3.128	-0.002	4.0	GoodResponse	0	0.221	99.141	3	9	Target	AvoidedLoss	True
100.141	0.3	Lose2	1.0	0.002	Yes	3.128	-0.002	4.0	GoodResponse	0	0.221	n/a	3	9	ButtonPress	AvoidedLoss	True
100.237	0.39	Lose2	1.0	n/a	Yes	3.128	n/a	n/a	GoodResponse	0	n/a	n/a	3	9	Blank	AvoidedLoss	True
100.62	1.45	Lose2	1.0	n/a	Yes	3.128	n/a	5.0	GoodResponse	0	0.04	99.66	3	9	Feedback	AvoidedLoss	True
102.07	3.128	Lose2	1.0	n/a	Yes	3.128	n/a	n/a	GoodResponse	0	0.0	n/a	3	9	ISIslide	AvoidedLoss	True
105.219	0.25	Control	1.0	0.0	Yes	3.281	0.019	n/a	GoodResponse	0	n/a	n/a	3	10	Cue	Neutral	True
105.468	4.0	Control	1.0	0.001	Yes	3.281	-0.001	n/a	GoodResponse	0	n/a	n/a	3	10	Fixation	Neutral	True
109.467	0.3	Control	1.0	0.002	Yes	3.281	-0.002	4.0	GoodResponse	0	0.191	108.658	3	10	Target	Neutral	True
109.658	0.3	Control	1.0	0.002	Yes	3.281	-0.002	4.0	GoodResponse	0	0.191	n/a	3	10	ButtonPress	Neutral	True
109.767	0.4	Control	1.0	n/a	Yes	3.281	n/a	n/a	GoodResponse	0	n/a	n/a	3	10	Blank	Neutral	True
110.167	1.45	Control	1.0	n/a	Yes	3.281	n/a	5.0	GoodResponse	0	0.007	109.174	3	10	Feedback	Neutral	True
111.616	3.281	Control	1.0	n/a	Yes	3.281	n/a	n/a	GoodResponse	0	0.0	n/a	3	10	ISIslide	Neutral	True
114.915	0.25	Lose2	1.0	0.0	Yes	2.735	0.015	n/a	GoodResponse	0	n/a	n/a	3	11	Cue	AvoidedLoss	True
115.165	4.05	Lose2	1.0	0.0	Yes	2.735	0.0	n/a	GoodResponse	0	n/a	n/a	3	11	Fixation	AvoidedLoss	True
119.214	0.29	Lose2	1.0	0.001	Yes	2.735	-0.001	4.0	GoodResponse	0	0.279	118.493	3	11	Target	AvoidedLoss	True
119.493	0.3	Lose2	1.0	0.001	Yes	2.735	-0.001	4.0	GoodResponse	0	0.279	n/a	3	11	ButtonPress	AvoidedLoss	True
119.513	0.41	Lose2	1.0	n/a	Yes	2.735	n/a	n/a	GoodResponse	0	n/a	n/a	3	11	Blank	AvoidedLoss	True
119.913	1.45	Lose2	1.0	n/a	Yes	2.735	n/a	5.0	GoodResponse	0	0.015	118.928	3	11	Feedback	AvoidedLoss	True
121.363	2.735	Lose2	1.0	n/a	Yes	2.735	n/a	n/a	GoodResponse	0	0.0	n/a	3	11	ISIslide	AvoidedLoss	True
124.112	0.25	Control	0.9231	0.0	No	2.988	0.012	n/a	NoResponse	0	n/a	n/a	3	12	Cue	Neutral	True
124.362	3.9	Control	0.9231	0.0	No	2.988	0.0	n/a	NoResponse	0	n/a	n/a	3	12	Fixation	Neutral	True
128.26	0.28	Control	0.9231	0.002	No	2.988	-0.002	4.0	NoResponse	0	0.454	127.714	3	12	Target	Neutral	True
128.544	0.42	Control	0.9231	n/a	No	2.988	n/a	n/a	NoResponse	0	n/a	n/a	3	12	Blank	Neutral	True
128.714	0.3	Control	0.9231	0.002	No	2.988	-0.002	4.0	NoResponse	0	0.454	n/a	3	12	ButtonPress	Neutral	True
128.96	1.45	Control	0.9231	n/a	No	2.988	n/a	5.0	NoResponse	0	0.041	128.001	3	12	Feedback	Neutral	True
130.41	2.988	Control	0.9231	n/a	No	2.988	n/a	n/a	NoResponse	0	0.0	n/a	3	12	ISIslide	Neutral	True
133.425	0.25	Control	0.8571	0.0	No	2.775	0.025	n/a	LatePress	0	n/a	n/a	3	13	Cue	Neutral	True
133.675	4.0	Control	0.8571	0.0	No	2.775	0.0	n/a	LatePress	0	n/a	n/a	3	13	Fixation	Neutral	True
137.674	0.27	Control	0.8571	0.001	No	2.775	-0.001	4.0	LatePress	0	0.277	136.951	3	13	Target	Neutral	True
137.951	0.3	Control	0.8571	0.001	No	2.775	-0.001	4.0	LatePress	0	0.277	n/a	3	13	ButtonPress	Neutral	True
137.957	0.43	Control	0.8571	n/a	No	2.775	n/a	n/a	LatePress	0	n/a	n/a	3	13	Blank	Neutral	True
138.373	1.45	Control	0.8571	n/a	No	2.775	n/a	5.0	LatePress	0	0.042	137.415	3	13	Feedback	Neutral	True
139.823	2.775	Control	0.8571	n/a	No	2.775	n/a	n/a	LatePress	0	0.0	n/a	3	13	ISIslide	Neutral	True
142.622	0.25	Win2	0.8667	0.0	Yes	2.678	0.022	n/a	GoodResponse	1	n/a	n/a	4	14	Cue	Win	True
142.872	4.1	Win2	0.8667	0.0	Yes	2.678	0.0	n/a	GoodResponse	1	n/a	n/a	4	14	Fixation	Win	True
146.97	0.26	Win2	0.8667	0.002	Yes	2.678	-0.002	4.0	GoodResponse	1	0.231	146.201	4	14	Target	Win	True
147.201	0.3	Win2	0.8667	0.002	Yes	2.678	-0.002	4.0	GoodResponse	1	0.231	n/a	4	14	ButtonPress	Win	True
147.237	0.44	Win2	0.8667	n/a	Yes	2.678	n/a	n/a	GoodResponse	1	n/a	n/a	4	14	Blank	Win	True
147.67	1.45	Win2	0.8667	n/a	Yes	2.678	n/a	5.0	GoodResponse	1	0.013	146.683	4	14	Feedback	Win	True
149.12	2.678	Win2	0.8667	n/a	Yes	2.678	n/a	n/a	GoodResponse	1	0.0	n/a	4	14	ISIslide	Win	True
151.819	0.25	Control	0.875	0.0	Yes	2.981	0.019	n/a	GoodResponse	0	n/a	n/a	4	15	Cue	Neutral	True
152.069	4.0	Control	0.875	0.0	Yes	2.981	0.0	n/a	GoodResponse	0	n/a	n/a	4	15	Fixation	Neutral	True
156.067	0.25	Control	0.875	0.002	Yes	2.981	-0.002	4.0	GoodResponse	0	0.218	155.285	4	15	Target	Neutral	True
156.285	0.3	Control	0.875	0.002	Yes	2.981	-0.002	4.0	GoodResponse	0	0.218	n/a	4	15	ButtonPress	Neutral	True
156.317	0.45	Control	0.875	n/a	Yes	2.981	n/a	n/a	GoodResponse	0	n/a	n/a	4	15	Blank	Neutral	True
156.767	1.45	Control	0.875	n/a	Yes	2.981	n/a	5.0	GoodResponse	0	0.038	155.805	4	15	Feedback	Neutral	True
158.216	2.981	Control	0.875	n/a	Yes	2.981	n/a	n/a	GoodResponse	0	0.0	n/a	4	15	ISIslide	Neutral	True
161.215	0.25	Win2	0.8234999999999999	0.0	No	2.885	0.015	n/a	NoResponse	0	n/a	n/a	4	16	Cue	MissedWin	False
161.465	4.0	Win2	0.8234999999999999	0.0	No	2.885	0.0	n/a	NoResponse	0	n/a	n/a	4	16	Fixation	MissedWin	False
165.464	0.24	Win2	0.8234999999999999	0.001	No	2.885	-0.001	n/a	NoResponse	0	n/a	n/a	4	16	Target	MissedWin	False
165.714	0.46	Win2	0.8234999999999999	n/a	No	2.885	n/a	n/a	NoResponse	0	n/a	n/a	4	16	Blank	MissedWin	False
166.164	1.45	Win2	0.8234999999999999	n/a	No	2.885	n/a	5.0	NoResponse	0	0.007	165.171	4	16	Feedback	MissedWin	False
167.613	2.885	Win2	0.8234999999999999	n/a	No	2.885	n/a	n/a	NoResponse	0	0.0	n/a	4	16	ISIslide	MissedWin	False
170.529	0.25	Lose2	0.8332999999999999	0.0	Yes	2.721	0.029	n/a	GoodResponse	0	n/a	n/a	4	17	Cue	AvoidedLoss	True
170.779	3.95	Lose2	0.8332999999999999	0.0	Yes	2.721	0.0	n/a	GoodResponse	0	n/a	n/a	4	17	Fixation	AvoidedLoss	True
174.727	0.23	Lose2	0.8332999999999999	0.002	Yes	2.721	-0.002	4.0	GoodResponse	0	0.227	173.954	4	17	Target	AvoidedLoss	True
174.954	0.3	Lose2	0.8332999999999999	0.002	Yes	2.721	-0.002	4.0	GoodResponse	0	0.227	n/a	4	17	ButtonPress	AvoidedLoss	True
174.96	0.47	Lose2	0.8332999999999999	n/a	Yes	2.721	n/a	n/a	GoodResponse	0	n/a	n/a	4	17	Blank	AvoidedLoss	True
175.427	1.45	Lose2	0.8332999999999999	n/a	Yes	2.721	n/a	5.0	GoodResponse	0	0.012	174.439	4	17	Feedback	AvoidedLoss	True
176.876	2.721	Lose2	0.8332999999999999	n/a	Yes	2.721	n/a	n/a	GoodResponse	0	0.0	n/a	4	17	ISIslide	AvoidedLoss	True
179.625	0.25	Lose2	0.7895	0.001	No	2.725	0.025	n/a	NoResponse	-1	n/a	n/a	3	18	Cue	Loss	True
179.875	4.05	Lose2	0.7895	0.0	No	2.725	0.0	n/a	NoResponse	-1	n/a	n/a	3	18	Fixation	Loss	True
183.924	0.22	Lose2	0.7895	0.001	No	2.725	-0.001	4.0	NoResponse	-1	0.255	183.179	3	18	Target	Loss	True
184.141	0.48	Lose2	0.7895	n/a	No	2.725	n/a	n/a	NoResponse	-1	n/a	n/a	3	18	Blank	Loss	True
184.179	0.3	Lose2	0.7895	0.001	No	2.725	-0.001	4.0	NoResponse	-1	0.255	n/a	3	18	ButtonPress	Loss	True
184.624	1.45	Lose2	0.7895	n/a	No	2.725	n/a	5.0	NoResponse	-1	0.034	183.658	3	18	Feedback	Loss	True
186.073	2.725	Lose2	0.7895	n/a	No	2.725	n/a	n/a	NoResponse	-1	0.0	n/a	3	18	ISIslide	Loss	True
188.822	0.25	Control	0.75	0.0	No	2.928	0.022	n/a	NoResponse	0	n/a	n/a	3	19	Cue	Neutral	True
189.072	3.95	Control	0.75	0.0	No	2.928	0.0	n/a	NoResponse	0	n/a	n/a	3	19	Fixation	Neutral	True
193.021	0.21	Control	0.75	0.001	No	2.928	-0.001	4.0	NoResponse	0	0.224	192.245	3	19	Target	Neutral	True
193.237	0.49	Control	0.75	n/a	No	2.928	n/a	n/a	NoResponse	0	n/a	n/a	3	19	Blank	Neutral	True
193.245	0.3	Control	0.75	0.001	No	2.928	-0.001	4.0	NoResponse	0	0.224	n/a	3	19	ButtonPress	Neutral	True
193.72	1.45	Control	0.75	n/a	No	2.928	n/a	5.0	NoResponse	0	0.012	192.732	3	19	Feedback	Neutral	True
195.17	2.928	Control	0.75	n/a	No	2.928	n/a	n/a	NoResponse	0	0.0	n/a	3	19	ISIslide	Neutral	True
198.119	0.25	Control	0.7143	0.0	No	2.631	0.019	n/a	NoResponse	0	n/a	n/a	3	20	Cue	Neutral	True
198.369	4.05	Control	0.7143	0.0	No	2.631	0.0	n/a	NoResponse	0	n/a	n/a	3	20	Fixation	Neutral	True
202.417	0.2	Control	0.7143	0.002	No	2.631	-0.002	4.0	NoResponse	0	0.223	201.64	3	20	Target	Neutral	True
202.617	0.5	Control	0.7143	n/a	No	2.631	n/a	n/a	NoResponse	0	n/a	n/a	3	20	Blank	Neutral	True
202.64	0.3	Control	0.7143	0.002	No	2.631	-0.002	4.0	NoResponse	0	0.223	n/a	3	20	ButtonPress	Neutral	True
203.117	1.45	Control	0.7143	n/a	No	2.631	n/a	5.0	NoResponse	0	0.029	202.146	3	20	Feedback	Neutral	True
204.567	2.631	Control	0.7143	n/a	No	2.631	n/a	n/a	NoResponse	0	0.0	n/a	3	20	ISIslide	Neutral	True
207.216	0.25	Control	0.6818000000000001	0.0	No	2.784	0.016	n/a	NoResponse	0	n/a	n/a	3	21	Cue	Neutral	True
207.466	4.1	Control	0.6818000000000001	0.0	No	2.784	0.0	n/a	NoResponse	0	n/a	n/a	3	21	Fixation	Neutral	True
211.564	0.19	Control	0.6818000000000001	0.002	No	2.784	-0.002	4.0	NoResponse	0	0.264	210.828	3	21	Target	Neutral	True
211.764	0.51	Control	0.6818000000000001	n/a	No	2.784	n/a	n/a	NoResponse	0	n/a	n/a	3	21	Blank	Neutral	True
211.828	0.3	Control	0.6818000000000001	0.002	No	2.784	-0.002	4.0	NoResponse	0	0.264	n/a	3	21	ButtonPress	Neutral	True
212.264	1.45	Control	0.6818000000000001	n/a	No	2.784	n/a	5.0	NoResponse	0	0.006	211.27	3	21	Feedback	Neutral	True
213.713	2.784	Control	0.6818000000000001	n/a	No	2.784	n/a	n/a	NoResponse	0	0.0	n/a	3	21	ISIslide	Neutral	True
216.512	0.25	Control	0.6522	0.0	No	2.788	0.012	n/a	NoResponse	0	n/a	n/a	3	22	Cue	Neutral	False
216.762	4.0	Control	0.6522	0.0	No	2.788	0.0	n/a	NoResponse	0	n/a	n/a	3	22	Fixation	Neutral	False
220.761	0.18	Control	0.6522	0.001	No	2.788	-0.001	n/a	NoResponse	0	n/a	n/a	3	22	Target	Neutral	False
220.944	0.52	Control	0.6522	n/a	No	2.788	n/a	n/a	NoResponse	0	n/a	n/a	3	22	Blank	Neutral	False
221.461	1.45	Control	0.6522	n/a	No	2.788	n/a	5.0	NoResponse	0	0.026	220.487	3	22	Feedback	Neutral	False
222.91	2.788	Control	0.6522	n/a	No	2.788	n/a	n/a	NoResponse	0	0.0	n/a	3	22	ISIslide	Neutral	False
225.726	0.25	Control	0.625	0.0	No	2.774	0.026	n/a	NoResponse	0	n/a	n/a	3	23	Cue	Neutral	True
225.976	3.9	Control	0.625	0.0	No	2.774	0.0	n/a	NoResponse	0	n/a	n/a	3	23	Fixation	Neutral	True
229.874	0.19	Control	0.625	0.002	No	2.774	-0.002	4.0	NoResponse	0	0.207	229.081	3	23	Target	Neutral	True
230.074	0.51	Control	0.625	n/a	No	2.774	n/a	n/a	NoResponse	0	n/a	n/a	3	23	Blank	Neutral	True
230.081	0.3	Control	0.625	0.002	No	2.774	-0.002	4.0	NoResponse	0	0.207	n/a	3	23	ButtonPress	Neutral	True
230.574	1.45	Control	0.625	n/a	No	2.774	n/a	5.0	NoResponse	0	0.035	229.609	3	23	Feedback	Neutral	True
232.023	2.774	Control	0.625	n/a	No	2.774	n/a	n/a	NoResponse	0	0.0	n/a	3	23	ISIslide	Neutral	True
234.822	0.25	Win2	0.6	0.001	No	3.128	0.022	n/a	NoResponse	0	n/a	n/a	3	24	Cue	MissedWin	True
235.072	3.95	Win2	0.6	0.0	No	3.128	0.0	n/a	NoResponse	0	n/a	n/a	3	24	Fixation	MissedWin	True
239.021	0.2	Win2	0.6	0.001	No	3.128	-0.001	4.0	NoResponse	0	0.226	238.247	3	24	Target	MissedWin	True
239.221	0.5	Win2	0.6	n/a	No	3.128	n/a	n/a	NoResponse	0	n/a	n/a	3	24	Blank	MissedWin	True
239.247	0.3	Win2	0.6	0.001	No	3.128	-0.001	4.0	NoResponse	0	0.226	n/a	3	24	ButtonPress	MissedWin	True
239.721	1.45	Win2	0.6	n/a	No	3.128	n/a	5.0	NoResponse	0	0.01	238.731	3	24	Feedback	MissedWin	True
241.17	3.128	Win2	0.6	n/a	No	3.128	n/a	n/a	NoResponse	0	0.0	n/a	3	24	ISIslide	MissedWin	True
244.319	0.25	Win2	0.6154	0.0	Yes	3.081	0.019	n/a	GoodResponse	1	n/a	n/a	4	25	Cue	Win	True
244.569	4.0	Win2	0.6154	0.0	Yes	3.081	0.0	n/a	GoodResponse	1	n/a	n/a	4	25	Fixation	Win	True
248.568	0.21	Win2	0.6154	0.001	Yes	3.081	-0.001	4.0	GoodResponse	1	0.2	247.768	4	25	Target	Win	True
248.768	0.3	Win2	0.6154	0.001	Yes	3.081	-0.001	4.0	GoodResponse	1	0.2	n/a	4	25	ButtonPress	Win	True
248.784	0.49	Win2	0.6154	n/a	Yes	3.081	n/a	n/a	GoodResponse	1	n/a	n/a	4	25	Blank	Win	True
249.267	1.45	Win2	0.6154	n/a	Yes	3.081	n/a	5.0	GoodResponse	1	0.024	248.291	4	25	Feedback	Win	True
250.717	3.081	Win2	0.6154	n/a	Yes	3.081	n/a	n/a	GoodResponse	1	0.0	n/a	4	25	ISIslide	Win	True
253.816	0.25	Win2	0.5926	0.0	No	2.934	0.016	n/a	NoResponse	0	n/a	n/a	4	26	Cue	MissedWin	True
254.066	3.95	Win2	0.5926	0.0	No	2.934	0.0	n/a	NoResponse	0	n/a	n/a	4	26	Fixation	MissedWin	True
258.014	0.22	Win2	0.5926	0.002	No	2.934	-0.002	4.0	NoResponse	0	0.24	257.254	4	26	Target	MissedWin	True
258.247	0.48	Win2	0.5926	n/a	No	2.934	n/a	n/a	NoResponse	0	n/a	n/a	4	26	Blank	MissedWin	True
258.254	0.3	Win2	0.5926	0.002	No	2.934	-0.002	4.0	NoResponse	0	0.24	n/a	4	26	ButtonPress	MissedWin	True
258.714	1.45	Win2	0.5926	n/a	No	2.934	n/a	5.0	NoResponse	0	0.041	257.755	4	26	Feedback	MissedWin	True
260.163	2.934	Win2	0.5926	n/a	No	2.934	n/a	n/a	NoResponse	0	0.0	n/a	4	26	ISIslide	MissedWin	True
263.112	0.25	Lose2	0.6071	0.0	Yes	2.838	0.012	n/a	GoodResponse	0	n/a	n/a	4	27	Cue	AvoidedLoss	True
263.362	4.05	Lose2	0.6071	0.0	Yes	2.838	0.0	n/a	GoodResponse	0	n/a	n/a	4	27	Fixation	AvoidedLoss	True
267.411	0.23	Lose2	0.6071	0.001	Yes	2.838	-0.001	4.0	GoodResponse	0	0.212	266.623	4	27	Target	AvoidedLoss	True
267.623	0.3	Lose2	0.6071	0.001	Yes	2.838	-0.001	4.0	GoodResponse	0	0.212	n/a	4	27	ButtonPress	AvoidedLoss	True
267.644	0.47	Lose2	0.6071	n/a	Yes	2.838	n/a	n/a	GoodResponse	0	n/a	n/a	4	27	Blank	AvoidedLoss	True
268.111	1.45	Lose2	0.6071	n/a	Yes	2.838	n/a	5.0	GoodResponse	0	0.01	267.121	4	27	Feedback	AvoidedLoss	True
269.56	2.838	Lose2	0.6071	n/a	Yes	2.838	n/a	n/a	GoodResponse	0	0.0	n/a	4	27	ISIslide	AvoidedLoss	True
272.426	0.25	Control	0.6207	0.0	Yes	2.824	0.026	n/a	GoodResponse	0	n/a	n/a	4	28	Cue	Neutral	True
272.676	4.05	Control	0.6207	0.0	Yes	2.824	0.0	n/a	GoodResponse	0	n/a	n/a	4	28	Fixation	Neutral	True
276.724	0.24	Control	0.6207	0.002	Yes	2.824	-0.002	4.0	GoodResponse	0	0.228	275.952	4	28	Target	Neutral	True
276.952	0.3	Control	0.6207	0.002	Yes	2.824	-0.002	4.0	GoodResponse	0	0.228	n/a	4	28	ButtonPress	Neutral	True
276.974	0.46	Control	0.6207	n/a	Yes	2.824	n/a	n/a	GoodResponse	0	n/a	n/a	4	28	Blank	Neutral	True
277.424	1.45	Control	0.6207	n/a	Yes	2.824	n/a	5.0	GoodResponse	0	0.014	276.438	4	28	Feedback	Neutral	True
278.873	2.824	Control	0.6207	n/a	Yes	2.824	n/a	n/a	GoodResponse	0	0.0	n/a	4	28	ISIslide	Neutral	True
281.722	0.25	Lose2	0.6333	0.001	Yes	2.828	0.022	n/a	GoodResponse	0	n/a	n/a	4	29	Cue	AvoidedLoss	True
281.972	3.95	Lose2	0.6333	0.0	Yes	2.828	0.0	n/a	GoodResponse	0	n/a	n/a	4	29	Fixation	AvoidedLoss	True
285.921	0.25	Lose2	0.6333	0.001	Yes	2.828	-0.001	4.0	GoodResponse	0	0.22	285.141	4	29	Target	AvoidedLoss	True
286.141	0.3	Lose2	0.6333	0.001	Yes	2.828	-0.001	4.0	GoodResponse	0	0.22	n/a	4	29	ButtonPress	AvoidedLoss	True
286.171	0.45	Lose2	0.6333	n/a	Yes	2.828	n/a	n/a	GoodResponse	0	n/a	n/a	4	29	Blank	AvoidedLoss	True
286.621	1.45	Lose2	0.6333	n/a	Yes	2.828	n/a	5.0	GoodResponse	0	0.036	285.657	4	29	Feedback	AvoidedLoss	True
288.07	2.828	Lose2	0.6333	n/a	Yes	2.828	n/a	n/a	GoodResponse	0	0.0	n/a	4	29	ISIslide	AvoidedLoss	True
290.919	0.25	Win2	0.6452	0.0	Yes	2.781	0.019	n/a	GoodResponse	1	n/a	n/a	5	30	Cue	Win	True
291.169	3.9	Win2	0.6452	0.0	Yes	2.781	0.0	n/a	GoodResponse	1	n/a	n/a	5	30	Fixation	Win	True
295.068	0.26	Win2	0.6452	0.001	Yes	2.781	-0.001	4.0	GoodResponse	1	0.256	294.324	5	30	Target	Win	True
295.324	0.3	Win2	0.6452	0.001	Yes	2.781	-0.001	4.0	GoodResponse	1	0.256	n/a	5	30	ButtonPress	Win	True
295.334	0.44	Win2	0.6452	n/a	Yes	2.781	n/a	n/a	GoodResponse	1	n/a	n/a	5	30	Blank	Win	True
295.767	1.45	Win2	0.6452	n/a	Yes	2.781	n/a	5.0	GoodResponse	1	0.012	294.779	5	30	Feedback	Win	True
297.217	2.781	Win2	0.6452	n/a	Yes	2.781	n/a	n/a	GoodResponse	1	0.0	n/a	5	30	ISIslide	Win	True
300.016	0.25	Lose2	0.6562	0.0	Yes	2.834	0.016	n/a	GoodResponse	0	n/a	n/a	5	31	Cue	AvoidedLoss	True
300.266	4.05	Lose2	0.6562	0.0	Yes	2.834	0.0	n/a	GoodResponse	0	n/a	n/a	5	31	Fixation	AvoidedLoss	True
304.314	0.27	Lose2	0.6562	0.002	Yes	2.834	-0.002	4.0	GoodResponse	0	0.261	303.575	5	31	Target	AvoidedLoss	True
304.575	0.3	Lose2	0.6562	0.002	Yes	2.834	-0.002	4.0	GoodResponse	0	0.261	n/a	5	31	ButtonPress	AvoidedLoss	True
304.598	0.43	Lose2	0.6562	n/a	Yes	2.834	n/a	n/a	GoodResponse	0	n/a	n/a	5	31	Blank	AvoidedLoss	True
305.014	1.45	Lose2	0.6562	n/a	Yes	2.834	n/a	5.0	GoodResponse	0	0.033	304.047	5	31	Feedback	AvoidedLoss	True
306.464	2.834	Lose2	0.6562	n/a	Yes	2.834	n/a	n/a	GoodResponse	0	0.0	n/a	5	31	ISIslide	AvoidedLoss	True
309.329	0.25	Lose2	0.6667000000000001	0.0	Yes	2.621	0.029	n/a	GoodResponse	0	n/a	n/a	5	32	Cue	AvoidedLoss	True
309.579	4.15	Lose2	0.6667000000000001	0.0	Yes	2.621	0.0	n/a	GoodResponse	0	n/a	n/a	5	32	Fixation	AvoidedLoss	True
313.728	0.27	Lose2	0.6667000000000001	0.001	Yes	2.621	-0.001	4.0	GoodResponse	0	0.225	312.953	5	32	Target	AvoidedLoss	True
313.953	0.3	Lose2	0.6667000000000001	0.001	Yes	2.621	-0.001	4.0	GoodResponse	0	0.225	n/a	5	32	ButtonPress	AvoidedLoss	True
314.011	0.43	Lose2	0.6667000000000001	n/a	Yes	2.621	n/a	n/a	GoodResponse	0	n/a	n/a	5	32	Blank	AvoidedLoss	True
314.427	1.45	Lose2	0.6667000000000001	n/a	Yes	2.621	n/a	5.0	GoodResponse	0	0.035	313.462	5	32	Feedback	AvoidedLoss	True
315.877	2.621	Lose2	0.6667000000000001	n/a	Yes	2.621	n/a	n/a	GoodResponse	0	0.0	n/a	5	32	ISIslide	AvoidedLoss	True
318.526	0.25	Win2	0.6765000000000001	0.0	Yes	2.674	0.026	n/a	GoodResponse	1	n/a	n/a	6	33	Cue	Win	False
318.776	4.0	Win2	0.6765000000000001	0.0	Yes	2.674	0.0	4.0	GoodResponse	1	3.49	321.266	6	33	Fixation	Win	False
322.266	0.3	Win2	0.6765000000000001	0.0	Yes	2.674	0.0	4.0	GoodResponse	1	3.49	n/a	6	33	ButtonPress	Win	False
322.775	0.26	Win2	0.6765000000000001	0.001	Yes	2.674	-0.001	4.0	GoodResponse	1	0.175	321.95	6	33	Target	Win	False
322.95	0.3	Win2	0.6765000000000001	0.001	Yes	2.674	-0.001	4.0	GoodResponse	1	0.175	n/a	6	33	ButtonPress	Win	False
323.041	0.44	Win2	0.6765000000000001	n/a	Yes	2.674	n/a	n/a	GoodResponse	1	n/a	n/a	6	33	Blank	Win	False
323.474	1.45	Win2	0.6765000000000001	n/a	Yes	2.674	n/a	5.0	GoodResponse	1	0.012	322.486	6	33	Feedback	Win	False
324.924	2.674	Win2	0.6765000000000001	n/a	Yes	2.674	n/a	n/a	GoodResponse	1	0.0	n/a	6	33	ISIslide	Win	False
327.623	0.25	Lose2	0.6570999999999999	0.0	No	2.627	0.023	n/a	NoResponse	-1	n/a	n/a	5	34	Cue	Loss	True
327.873	4.05	Lose2	0.6570999999999999	0.0	No	2.627	0.0	n/a	NoResponse	-1	n/a	n/a	5	34	Fixation	Loss	True
331.921	0.25	Lose2	0.6570999999999999	0.002	No	2.627	-0.002	4.0	NoResponse	-1	0.294	331.215	5	34	Target	Loss	True
332.171	0.45	Lose2	0.6570999999999999	n/a	No	2.627	n/a	n/a	NoResponse	-1	n/a	n/a	5	34	Blank	Loss	True
332.215	0.3	Lose2	0.6570999999999999	0.002	No	2.627	-0.002	4.0	NoResponse	-1	0.294	n/a	5	34	ButtonPress	Loss	True
332.621	1.45	Lose2	0.6570999999999999	n/a	No	2.627	n/a	5.0	NoResponse	-1	0.035	331.656	5	34	Feedback	Loss	True
334.071	2.627	Lose2	0.6570999999999999	n/a	No	2.627	n/a	n/a	NoResponse	-1	0.0	n/a	5	34	ISIslide	Loss	True
336.72	0.25	Lose2	0.6667000000000001	0.0	Yes	2.68	0.02	n/a	GoodResponse	0	n/a	n/a	5	35	Cue	AvoidedLoss	True
336.969	4.0	Lose2	0.6667000000000001	0.001	Yes	2.68	-0.001	n/a	GoodResponse	0	n/a	n/a	5	35	Fixation	AvoidedLoss	True
340.968	0.25	Lose2	0.6667000000000001	0.002	Yes	2.68	-0.002	4.0	GoodResponse	0	0.24	340.208	5	35	Target	AvoidedLoss	True
341.208	0.3	Lose2	0.6667000000000001	0.002	Yes	2.68	-0.002	4.0	GoodResponse	0	0.24	n/a	5	35	ButtonPress	AvoidedLoss	True
341.218	0.45	Lose2	0.6667000000000001	n/a	Yes	2.68	n/a	n/a	GoodResponse	0	n/a	n/a	5	35	Blank	AvoidedLoss	True
341.668	1.45	Lose2	0.6667000000000001	n/a	Yes	2.68	n/a	5.0	GoodResponse	0	0.013	340.681	5	35	Feedback	AvoidedLoss	True
343.117	2.68	Lose2	0.6667000000000001	n/a	Yes	2.68	n/a	n/a	GoodResponse	0	0.0	n/a	5	35	ISIslide	AvoidedLoss	True
345.816	0.25	Control	0.6486	0.0	No	2.684	0.016	n/a	NoResponse	0	n/a	n/a	5	36	Cue	Neutral	True
346.066	4.0	Control	0.6486	0.0	No	2.684	0.0	n/a	NoResponse	0	n/a	n/a	5	36	Fixation	Neutral	True
350.065	0.24	Control	0.6486	0.001	No	2.684	-0.001	4.0	NoResponse	0	0.251	349.316	5	36	Target	Neutral	True
350.315	0.46	Control	0.6486	n/a	No	2.684	n/a	n/a	NoResponse	0	n/a	n/a	5	36	Blank	Neutral	True
350.316	0.3	Control	0.6486	0.001	No	2.684	-0.001	4.0	NoResponse	0	0.251	n/a	5	36	ButtonPress	Neutral	True
350.765	1.45	Control	0.6486	n/a	No	2.684	n/a	5.0	NoResponse	0	0.038	349.803	5	36	Feedback	Neutral	True
352.214	2.684	Control	0.6486	n/a	No	2.684	n/a	n/a	NoResponse	0	0.0	n/a	5	36	ISIslide	Neutral	True
354.93	0.25	Win2	0.6579	0.0	Yes	2.87	0.03	n/a	GoodResponse	1	n/a	n/a	6	37	Cue	Win	True
355.18	4.0	Win2	0.6579	0.0	Yes	2.87	0.0	n/a	GoodResponse	1	n/a	n/a	6	37	Fixation	Win	True
359.178	0.25	Win2	0.6579	0.002	Yes	2.87	-0.002	4.0	GoodResponse	1	0.225	358.403	6	37	Target	Win	True
359.403	0.3	Win2	0.6579	0.002	Yes	2.87	-0.002	4.0	GoodResponse	1	0.225	n/a	6	37	ButtonPress	Win	True
359.428	0.45	Win2	0.6579	n/a	Yes	2.87	n/a	n/a	GoodResponse	1	n/a	n/a	6	37	Blank	Win	True
359.878	1.45	Win2	0.6579	n/a	Yes	2.87	n/a	5.0	GoodResponse	1	0.046	358.924	6	37	Feedback	Win	True
361.327	2.87	Win2	0.6579	n/a	Yes	2.87	n/a	n/a	GoodResponse	1	0.0	n/a	6	37	ISIslide	Win	True
364.226	0.25	Lose2	0.6409999999999999	0.001	No	2.824	0.026	n/a	NoResponse	-1	n/a	n/a	5	38	Cue	Loss	True
364.476	3.95	Lose2	0.6409999999999999	0.0	No	2.824	0.0	n/a	NoResponse	-1	n/a	n/a	5	38	Fixation	Loss	True
368.425	0.25	Lose2	0.6409999999999999	0.001	No	2.824	-0.001	4.0	NoResponse	-1	0.272	367.697	5	38	Target	Loss	True
368.675	0.45	Lose2	0.6409999999999999	n/a	No	2.824	n/a	n/a	NoResponse	-1	n/a	n/a	5	38	Blank	Loss	True
368.697	0.3	Lose2	0.6409999999999999	0.001	No	2.824	-0.001	4.0	NoResponse	-1	0.272	n/a	5	38	ButtonPress	Loss	True
369.125	1.45	Lose2	0.6409999999999999	n/a	No	2.824	n/a	5.0	NoResponse	-1	0.018	368.143	5	38	Feedback	Loss	True
370.574	2.824	Lose2	0.6409999999999999	n/a	No	2.824	n/a	n/a	NoResponse	-1	0.0	n/a	5	38	ISIslide	Loss	True
373.423	0.25	Win2	0.625	0.0	No	2.977	0.023	n/a	PrematurePress	0	n/a	n/a	5	39	Cue	MissedWin	True
373.673	4.1	Win2	0.625	0.0	No	2.977	0.0	n/a	PrematurePress	0	n/a	n/a	5	39	Fixation	MissedWin	True
377.772	0.26	Win2	0.625	0.001	No	2.977	-0.001	4.0	PrematurePress	0	0.007	376.779	5	39	Target	MissedWin	True
377.779	0.3	Win2	0.625	0.001	No	2.977	-0.001	4.0	PrematurePress	0	0.007	n/a	5	39	ButtonPress	MissedWin	True
378.038	0.44	Win2	0.625	n/a	No	2.977	n/a	n/a	PrematurePress	0	n/a	n/a	5	39	Blank	MissedWin	True
378.471	1.45	Win2	0.625	n/a	No	2.977	n/a	5.0	PrematurePress	0	0.038	377.509	5	39	Feedback	MissedWin	True
379.921	2.977	Win2	0.625	n/a	No	2.977	n/a	n/a	PrematurePress	0	0.0	n/a	5	39	ISIslide	MissedWin	True
382.92	0.25	Win2	0.6341	0.0	Yes	2.73	0.02	n/a	GoodResponse	1	n/a	n/a	6	40	Cue	Win	True
383.17	3.95	Win2	0.6341	0.0	Yes	2.73	0.0	n/a	GoodResponse	1	n/a	n/a	6	40	Fixation	Win	True
387.118	0.27	Win2	0.6341	0.002	Yes	2.73	-0.002	4.0	GoodResponse	1	0.212	386.33	6	40	Target	Win	True
387.33	0.3	Win2	0.6341	0.002	Yes	2.73	-0.002	4.0	GoodResponse	1	0.212	n/a	6	40	ButtonPress	Win	True
387.402	0.43	Win2	0.6341	n/a	Yes	2.73	n/a	n/a	GoodResponse	1	n/a	n/a	6	40	Blank	Win	True
387.818	1.45	Win2	0.6341	n/a	Yes	2.73	n/a	5.0	GoodResponse	1	0.009	386.827	6	40	Feedback	Win	True
389.268	2.73	Win2	0.6341	n/a	Yes	2.73	n/a	n/a	GoodResponse	1	0.0	n/a	6	40	ISIslide	Win	True
392.017	0.25	Win2	0.6429	0.0	Yes	2.783	0.017	n/a	GoodResponse	1	n/a	n/a	7	41	Cue	Win	True
392.266	3.9	Win2	0.6429	0.001	Yes	2.783	-0.001	n/a	GoodResponse	1	n/a	n/a	7	41	Fixation	Win	True
396.165	0.28	Win2	0.6429	0.002	Yes	2.783	-0.002	4.0	GoodResponse	1	0.234	395.399	7	41	Target	Win	True
396.399	0.3	Win2	0.6429	0.002	Yes	2.783	-0.002	4.0	GoodResponse	1	0.234	n/a	7	41	ButtonPress	Win	True
396.448	0.42	Win2	0.6429	n/a	Yes	2.783	n/a	n/a	GoodResponse	1	n/a	n/a	7	41	Blank	Win	True
396.865	1.45	Win2	0.6429	n/a	Yes	2.783	n/a	5.0	GoodResponse	1	0.035	395.9	7	41	Feedback	Win	True
398.314	2.783	Win2	0.6429	n/a	Yes	2.783	n/a	n/a	GoodResponse	1	0.0	n/a	7	41	ISIslide	Win	True
401.13	0.25	Control	0.6512	0.0	Yes	2.92	0.03	n/a	GoodResponse	0	n/a	n/a	7	42	Cue	Neutral	True
401.38	3.85	Control	0.6512	0.0	Yes	2.92	0.0	n/a	GoodResponse	0	n/a	n/a	7	42	Fixation	Neutral	True
405.229	0.29	Control	0.6512	0.001	Yes	2.92	-0.001	4.0	GoodResponse	0	0.248	404.477	7	42	Target	Neutral	True
405.477	0.3	Control	0.6512	0.001	Yes	2.92	-0.001	4.0	GoodResponse	0	0.248	n/a	7	42	ButtonPress	Neutral	True
405.528	0.41	Control	0.6512	n/a	Yes	2.92	n/a	n/a	GoodResponse	0	n/a	n/a	7	42	Blank	Neutral	True
405.928	1.45	Control	0.6512	n/a	Yes	2.92	n/a	5.0	GoodResponse	0	0.044	404.972	7	42	Feedback	Neutral	True
407.378	2.92	Control	0.6512	n/a	Yes	2.92	n/a	n/a	GoodResponse	0	0.0	n/a	7	42	ISIslide	Neutral	True
410.327	0.25	Win2	0.6591	0.0	Yes	3.173	0.027	n/a	GoodResponse	1	n/a	n/a	8	43	Cue	Win	True
410.577	4.0	Win2	0.6591	0.0	Yes	3.173	0.0	n/a	GoodResponse	1	n/a	n/a	8	43	Fixation	Win	True
414.575	0.3	Win2	0.6591	0.002	Yes	3.173	-0.002	4.0	GoodResponse	1	0.197	413.772	8	43	Target	Win	True
414.772	0.3	Win2	0.6591	0.002	Yes	3.173	-0.002	4.0	GoodResponse	1	0.197	n/a	8	43	ButtonPress	Win	True
414.875	0.4	Win2	0.6591	n/a	Yes	3.173	n/a	n/a	GoodResponse	1	n/a	n/a	8	43	Blank	Win	True
415.275	1.45	Win2	0.6591	n/a	Yes	3.173	n/a	5.0	GoodResponse	1	0.014	414.289	8	43	Feedback	Win	True
416.724	3.173	Win2	0.6591	n/a	Yes	3.173	n/a	n/a	GoodResponse	1	0.0	n/a	8	43	ISIslide	Win	True
419.923	0.25	Win2	0.6667000000000001	0.0	Yes	2.977	0.023	n/a	GoodResponse	1	n/a	n/a	9	44	Cue	Win	True
420.173	4.0	Win2	0.6667000000000001	0.0	Yes	2.977	0.0	n/a	GoodResponse	1	n/a	n/a	9	44	Fixation	Win	True
424.172	0.3	Win2	0.6667000000000001	0.001	Yes	2.977	-0.001	4.0	GoodResponse	1	0.244	423.416	9	44	Target	Win	True
424.416	0.3	Win2	0.6667000000000001	0.001	Yes	2.977	-0.001	4.0	GoodResponse	1	0.244	n/a	9	44	ButtonPress	Win	True
424.472	0.4	Win2	0.6667000000000001	n/a	Yes	2.977	n/a	n/a	GoodResponse	1	n/a	n/a	9	44	Blank	Win	True
424.872	1.45	Win2	0.6667000000000001	n/a	Yes	2.977	n/a	5.0	GoodResponse	1	0.027	423.899	9	44	Feedback	Win	True
426.321	2.977	Win2	0.6667000000000001	n/a	Yes	2.977	n/a	n/a	GoodResponse	1	0.0	n/a	9	44	ISIslide	Win	True
429.32	0.25	Control	0.6739	0.0	Yes	2.88	0.02	n/a	GoodResponse	0	n/a	n/a	9	45	Cue	Neutral	True
429.57	4.1	Control	0.6739	0.0	Yes	2.88	0.0	n/a	GoodResponse	0	n/a	n/a	9	45	Fixation	Neutral	True
433.668	0.29	Control	0.6739	0.002	Yes	2.88	-0.002	4.0	GoodResponse	0	0.178	432.846	9	45	Target	Neutral	True
433.846	0.3	Control	0.6739	0.002	Yes	2.88	-0.002	4.0	GoodResponse	0	0.178	n/a	9	45	ButtonPress	Neutral	True
433.968	0.41	Control	0.6739	n/a	Yes	2.88	n/a	n/a	GoodResponse	0	n/a	n/a	9	45	Blank	Neutral	True
434.368	1.45	Control	0.6739	n/a	Yes	2.88	n/a	5.0	GoodResponse	0	0.043	433.411	9	45	Feedback	Neutral	True
435.818	2.88	Control	0.6739	n/a	Yes	2.88	n/a	n/a	GoodResponse	0	0.0	n/a	9	45	ISIslide	Neutral	True
438.717	0.25	Lose2	0.6596	0.0	No	3.383	0.017	n/a	NoResponse	-1	n/a	n/a	8	46	Cue	Loss	True
438.967	4.0	Lose2	0.6596	0.0	No	3.383	0.0	4.0	NoResponse	-1	3.342	441.309	8	46	Fixation	Loss	True
442.309	0.3	Lose2	0.6596	0.0	No	3.383	0.0	4.0	NoResponse	-1	3.342	n/a	8	46	ButtonPress	Loss	True
442.965	0.28	Lose2	0.6596	0.002	No	3.383	-0.002	n/a	NoResponse	-1	n/a	n/a	8	46	Target	Loss	True
443.248	0.42	Lose2	0.6596	n/a	No	3.383	n/a	n/a	NoResponse	-1	n/a	n/a	8	46	Blank	Loss	True
443.665	1.45	Lose2	0.6596	n/a	No	3.383	n/a	5.0	NoResponse	-1	0.014	442.679	8	46	Feedback	Loss	True
445.114	3.383	Lose2	0.6596	n/a	No	3.383	n/a	n/a	NoResponse	-1	0.0	n/a	8	46	ISIslide	Loss	True
448.513	0.25	Lose2	0.6667000000000001	0.0	Yes	2.687	0.013	n/a	GoodResponse	0	n/a	n/a	8	47	Cue	AvoidedLoss	True
448.763	4.0	Lose2	0.6667000000000001	0.0	Yes	2.687	0.0	n/a	GoodResponse	0	n/a	n/a	8	47	Fixation	AvoidedLoss	True
452.762	0.28	Lose2	0.6667000000000001	0.001	Yes	2.687	-0.001	4.0	GoodResponse	0	0.225	451.987	8	47	Target	AvoidedLoss	True
452.987	0.3	Lose2	0.6667000000000001	0.001	Yes	2.687	-0.001	4.0	GoodResponse	0	0.225	n/a	8	47	ButtonPress	AvoidedLoss	True
453.045	0.42	Lose2	0.6667000000000001	n/a	Yes	2.687	n/a	n/a	GoodResponse	0	n/a	n/a	8	47	Blank	AvoidedLoss	True
453.461	1.45	Lose2	0.6667000000000001	n/a	Yes	2.687	n/a	5.0	GoodResponse	0	0.023	452.484	8	47	Feedback	AvoidedLoss	True
454.911	2.687	Lose2	0.6667000000000001	n/a	Yes	2.687	n/a	n/a	GoodResponse	0	0.0	n/a	8	47	ISIslide	AvoidedLoss	True
457.627	0.25	Lose2	0.6735	0.0	Yes	3.023	0.027	n/a	GoodResponse	0	n/a	n/a	8	48	Cue	AvoidedLoss	True
457.876	3.95	Lose2	0.6735	0.001	Yes	3.023	-0.001	n/a	GoodResponse	0	n/a	n/a	8	48	Fixation	AvoidedLoss	True
461.825	0.27	Lose2	0.6735	0.002	Yes	3.023	-0.002	4.0	GoodResponse	0	0.217	461.042	8	48	Target	AvoidedLoss	True
462.042	0.3	Lose2	0.6735	0.002	Yes	3.023	-0.002	4.0	GoodResponse	0	0.217	n/a	8	48	ButtonPress	AvoidedLoss	True
462.108	0.43	Lose2	0.6735	n/a	Yes	3.023	n/a	n/a	GoodResponse	0	n/a	n/a	8	48	Blank	AvoidedLoss	True
462.525	1.45	Lose2	0.6735	n/a	Yes	3.023	n/a	5.0	GoodResponse	0	0.032	461.557	8	48	Feedback	AvoidedLoss	True
463.974	3.023	Lose2	0.6735	n/a	Yes	3.023	n/a	n/a	GoodResponse	0	0.0	n/a	8	48	ISIslide	AvoidedLoss	True
467.023	0.25	Control	0.66	0.0	No	2.877	0.023	n/a	NoResponse	0	n/a	n/a	8	49	Cue	Neutral	True
467.273	4.0	Control	0.66	0.0	No	2.877	0.0	n/a	NoResponse	0	n/a	n/a	8	49	Fixation	Neutral	True
471.272	0.26	Control	0.66	0.001	No	2.877	-0.001	4.0	NoResponse	0	0.273	470.545	8	49	Target	Neutral	True
471.538	0.44	Control	0.66	n/a	No	2.877	n/a	n/a	NoResponse	0	n/a	n/a	8	49	Blank	Neutral	True
471.545	0.3	Control	0.66	0.001	No	2.877	-0.001	4.0	NoResponse	0	0.273	n/a	8	49	ButtonPress	Neutral	True
471.972	1.45	Control	0.66	n/a	No	2.877	n/a	5.0	NoResponse	0	0.049	471.021	8	49	Feedback	Neutral	True
473.421	2.877	Control	0.66	n/a	No	2.877	n/a	n/a	NoResponse	0	0.0	n/a	8	49	ISIslide	Neutral	True
476.32	0.25	Control	0.6667000000000001	0.0	Yes	2.78	0.02	n/a	GoodResponse	0	n/a	n/a	8	50	Cue	Neutral	True
476.57	4.0	Control	0.6667000000000001	0.0	Yes	2.78	0.0	n/a	GoodResponse	0	n/a	n/a	8	50	Fixation	Neutral	True
480.568	0.26	Control	0.6667000000000001	0.002	Yes	2.78	-0.002	4.0	GoodResponse	0	0.233	479.801	8	50	Target	Neutral	True
480.801	0.3	Control	0.6667000000000001	0.002	Yes	2.78	-0.002	4.0	GoodResponse	0	0.233	n/a	8	50	ButtonPress	Neutral	True
480.835	0.44	Control	0.6667000000000001	n/a	Yes	2.78	n/a	n/a	GoodResponse	0	n/a	n/a	8	50	Blank	Neutral	True
481.268	1.45	Control	0.6667000000000001	n/a	Yes	2.78	n/a	5.0	GoodResponse	0	0.02	480.288	8	50	Feedback	Neutral	True
482.718	2.78	Control	0.6667000000000001	n/a	Yes	2.78	n/a	n/a	GoodResponse	0	0.0	n/a	8	50	ISIslide	Neutral	True
485.517	0.25	Control	0.6731	0.0	Yes	2.733	0.017	n/a	GoodResponse	0	n/a	n/a	8	51	Cue	Neutral	True
485.767	3.95	Control	0.6731	0.0	Yes	2.733	0.0	n/a	GoodResponse	0	n/a	n/a	8	51	Fixation	Neutral	True
489.715	0.25	Control	0.6731	0.002	Yes	2.733	-0.002	4.0	GoodResponse	0	0.223	488.938	8	51	Target	Neutral	True
489.938	0.3	Control	0.6731	0.002	Yes	2.733	-0.002	4.0	GoodResponse	0	0.223	n/a	8	51	ButtonPress	Neutral	True
489.965	0.45	Control	0.6731	n/a	Yes	2.733	n/a	n/a	GoodResponse	0	n/a	n/a	8	51	Blank	Neutral	True
490.415	1.45	Control	0.6731	n/a	Yes	2.733	n/a	5.0	GoodResponse	0	0.044	489.459	8	51	Feedback	Neutral	True
491.864	2.733	Control	0.6731	n/a	Yes	2.733	n/a	n/a	GoodResponse	0	0.0	n/a	8	51	ISIslide	Neutral	True
494.63	0.25	Control	0.6792	0.0	Yes	2.62	0.03	n/a	GoodResponse	0	n/a	n/a	8	52	Cue	Neutral	False
494.88	4.05	Control	0.6792	0.0	Yes	2.62	0.0	4.0	GoodResponse	0	3.454	497.334	8	52	Fixation	Neutral	False
498.334	0.3	Control	0.6792	0.0	Yes	2.62	0.0	4.0	GoodResponse	0	3.454	n/a	8	52	ButtonPress	Neutral	False
498.929	0.24	Control	0.6792	0.001	Yes	2.62	-0.001	4.0	GoodResponse	0	0.115	498.044	8	52	Target	Neutral	False
499.044	0.3	Control	0.6792	0.001	Yes	2.62	-0.001	4.0	GoodResponse	0	0.115	n/a	8	52	ButtonPress	Neutral	False
499.178	0.46	Control	0.6792	n/a	Yes	2.62	n/a	n/a	GoodResponse	0	n/a	n/a	8	52	Blank	Neutral	False
499.628	1.45	Control	0.6792	n/a	Yes	2.62	n/a	5.0	GoodResponse	0	0.002	498.63	8	52	Feedback	Neutral	False
501.078	2.62	Control	0.6792	n/a	Yes	2.62	n/a	n/a	GoodResponse	0	0.0	n/a	8	52	ISIslide	Neutral	False
503.727	0.25	Win2	0.6667000000000001	0.0	No	2.923	0.027	n/a	NoResponse	0	n/a	n/a	8	53	Cue	MissedWin	True
503.977	4.05	Win2	0.6667000000000001	0.0	No	2.923	0.0	n/a	NoResponse	0	n/a	n/a	8	53	Fixation	MissedWin	True
508.025	0.23	Win2	0.6667000000000001	0.002	No	2.923	-0.002	4.0	NoResponse	0	0.278	507.303	8	53	Target	MissedWin	True
508.259	0.47	Win2	0.6667000000000001	n/a	No	2.923	n/a	n/a	NoResponse	0	n/a	n/a	8	53	Blank	MissedWin	True
508.303	0.3	Win2	0.6667000000000001	0.002	No	2.923	-0.002	4.0	NoResponse	0	0.278	n/a	8	53	ButtonPress	MissedWin	True
508.725	1.45	Win2	0.6667000000000001	n/a	No	2.923	n/a	5.0	NoResponse	0	0.027	507.752	8	53	Feedback	MissedWin	True
510.175	2.923	Win2	0.6667000000000001	n/a	No	2.923	n/a	n/a	NoResponse	0	0.0	n/a	8	53	ISIslide	MissedWin	True
513.123	0.25	Win2	0.6545000000000001	0.001	No	2.727	0.023	n/a	NoResponse	0	n/a	n/a	8	54	Cue	MissedWin	True
513.373	3.95	Win2	0.6545000000000001	0.0	No	2.727	0.0	n/a	NoResponse	0	n/a	n/a	8	54	Fixation	MissedWin	True
517.322	0.22	Win2	0.6545000000000001	0.001	No	2.727	-0.001	4.0	NoResponse	0	0.275	516.597	8	54	Target	MissedWin	True
517.539	0.48	Win2	0.6545000000000001	n/a	No	2.727	n/a	n/a	NoResponse	0	n/a	n/a	8	54	Blank	MissedWin	True
517.597	0.3	Win2	0.6545000000000001	0.001	No	2.727	-0.001	4.0	NoResponse	0	0.275	n/a	8	54	ButtonPress	MissedWin	True
518.022	1.45	Win2	0.6545000000000001	n/a	No	2.727	n/a	5.0	NoResponse	0	0.046	517.068	8	54	Feedback	MissedWin	True
519.471	2.727	Win2	0.6545000000000001	n/a	No	2.727	n/a	n/a	NoResponse	0	0.0	n/a	8	54	ISIslide	MissedWin	True
522.22	0.25	Control	0.6429	0.0	No	3.03	0.02	n/a	NoResponse	0	n/a	n/a	8	55	Cue	Neutral	True
522.47	3.95	Control	0.6429	0.0	No	3.03	0.0	n/a	NoResponse	0	n/a	n/a	8	55	Fixation	Neutral	True
526.419	0.23	Control	0.6429	0.001	No	3.03	-0.001	4.0	NoResponse	0	0.267	525.686	8	55	Target	Neutral	True
526.652	0.47	Control	0.6429	n/a	No	3.03	n/a	n/a	NoResponse	0	n/a	n/a	8	55	Blank	Neutral	True
526.686	0.3	Control	0.6429	0.001	No	3.03	-0.001	4.0	NoResponse	0	0.267	n/a	8	55	ButtonPress	Neutral	True
527.119	1.45	Control	0.6429	n/a	No	3.03	n/a	5.0	NoResponse	0	0.022	526.141	8	55	Feedback	Neutral	True
528.568	3.03	Control	0.6429	n/a	No	3.03	n/a	n/a	NoResponse	0	0.0	n/a	8	55	ISIslide	Neutral	True
531.617	0.25	Control	0.6491	0.0	Yes	2.833	0.017	n/a	GoodResponse	0	n/a	n/a	8	56	Cue	Neutral	True
531.867	3.95	Control	0.6491	0.0	Yes	2.833	0.0	n/a	GoodResponse	0	n/a	n/a	8	56	Fixation	Neutral	True
535.815	0.24	Control	0.6491	0.002	Yes	2.833	-0.002	4.0	GoodResponse	0	0.203	535.018	8	56	Target	Neutral	True
536.018	0.3	Control	0.6491	0.002	Yes	2.833	-0.002	4.0	GoodResponse	0	0.203	n/a	8	56	ButtonPress	Neutral	True
536.065	0.46	Control	0.6491	n/a	Yes	2.833	n/a	n/a	GoodResponse	0	n/a	n/a	8	56	Blank	Neutral	True
536.515	1.45	Control	0.6491	n/a	Yes	2.833	n/a	5.0	GoodResponse	0	0.041	535.556	8	56	Feedback	Neutral	True
537.965	2.833	Control	0.6491	n/a	Yes	2.833	n/a	n/a	GoodResponse	0	0.0	n/a	8	56	ISIslide	Neutral	True
540.814	0.25	Control	0.6552	0.0	Yes	3.486	0.014	n/a	GoodResponse	0	n/a	n/a	8	57	Cue	Neutral	True
541.064	4.0	Control	0.6552	0.0	Yes	3.486	0.0	n/a	GoodResponse	0	n/a	n/a	8	57	Fixation	Neutral	True
545.062	0.25	Control	0.6552	0.002	Yes	3.486	-0.002	4.0	GoodResponse	0	0.188	544.25	8	57	Target	Neutral	True
545.25	0.3	Control	0.6552	0.002	Yes	3.486	-0.002	4.0	GoodResponse	0	0.188	n/a	8	57	ButtonPress	Neutral	True
545.312	0.45	Control	0.6552	n/a	Yes	3.486	n/a	n/a	GoodResponse	0	n/a	n/a	8	57	Blank	Neutral	True
545.762	1.45	Control	0.6552	n/a	Yes	3.486	n/a	5.0	GoodResponse	0	0.014	544.776	8	57	Feedback	Neutral	True
547.211	3.486	Control	0.6552	n/a	Yes	3.486	n/a	n/a	GoodResponse	0	0.0	n/a	8	57	ISIslide	Neutral	True
550.727	0.25	Win2	0.6609999999999999	0.0	Yes	2.723	0.027	n/a	GoodResponse	1	n/a	n/a	9	58	Cue	Win	False
550.977	4.05	Win2	0.6609999999999999	0.0	Yes	2.723	0.0	4.0	GoodResponse	1	0.245	550.222	9	58	Fixation	Win	False
551.222	0.3	Win2	0.6609999999999999	0.0	Yes	2.723	0.0	4.0	GoodResponse	1	0.245	n/a	9	58	ButtonPress	Win	False
555.025	0.25	Win2	0.6609999999999999	0.002	Yes	2.723	-0.002	4.0	GoodResponse	1	0.222	554.247	9	58	Target	Win	False
555.247	0.3	Win2	0.6609999999999999	0.002	Yes	2.723	-0.002	4.0	GoodResponse	1	0.222	n/a	9	58	ButtonPress	Win	False
555.275	0.45	Win2	0.6609999999999999	n/a	Yes	2.723	n/a	n/a	GoodResponse	1	n/a	n/a	9	58	Blank	Win	False
555.725	1.45	Win2	0.6609999999999999	n/a	Yes	2.723	n/a	5.0	GoodResponse	1	0.001	554.726	9	58	Feedback	Win	False
557.174	2.723	Win2	0.6609999999999999	n/a	Yes	2.723	n/a	n/a	GoodResponse	1	0.0	n/a	9	58	ISIslide	Win	False
559.924	0.25	Lose2	0.65	0.0	No	2.676	0.024	n/a	NoResponse	-1	n/a	n/a	8	59	Cue	Loss	True
560.173	4.0	Lose2	0.65	0.001	No	2.676	-0.001	n/a	NoResponse	-1	n/a	n/a	8	59	Fixation	Loss	True
564.172	0.25	Lose2	0.65	0.002	No	2.676	-0.002	4.0	NoResponse	-1	0.359	563.531	8	59	Target	Loss	True
564.422	0.45	Lose2	0.65	n/a	No	2.676	n/a	n/a	NoResponse	-1	n/a	n/a	8	59	Blank	Loss	True
564.531	0.3	Lose2	0.65	0.002	No	2.676	-0.002	4.0	NoResponse	-1	0.359	n/a	8	59	ButtonPress	Loss	True
564.872	1.45	Lose2	0.65	n/a	No	2.676	n/a	5.0	NoResponse	-1	0.025	563.897	8	59	Feedback	Loss	True
566.321	2.676	Lose2	0.65	n/a	No	2.676	n/a	n/a	NoResponse	-1	0.0	n/a	8	59	ISIslide	Loss	True
569.02	0.25	Control	0.6393	0.0	No	2.68	0.02	n/a	NoResponse	0	n/a	n/a	8	60	Cue	Neutral	False
569.27	4.0	Control	0.6393	0.0	No	2.68	0.0	n/a	NoResponse	0	n/a	n/a	8	60	Fixation	Neutral	False
573.269	0.26	Control	0.6393	0.001	No	2.68	-0.001	n/a	NoResponse	0	n/a	n/a	8	60	Target	Neutral	False
573.535	0.44	Control	0.6393	n/a	No	2.68	n/a	n/a	NoResponse	0	n/a	n/a	8	60	Blank	Neutral	False
573.969	1.45	Control	0.6393	n/a	No	2.68	n/a	5.0	NoResponse	0	0.001	572.97	8	60	Feedback	Neutral	False
575.418	2.68	Control	0.6393	n/a	No	2.68	n/a	n/a	NoResponse	0	0.0	n/a	8	60	ISIslide	Neutral	False
578.117	0.25	Lose2	0.6452	0.0	Yes	2.983	0.017	n/a	GoodResponse	0	n/a	n/a	8	61	Cue	AvoidedLoss	True
578.367	4.0	Lose2	0.6452	0.0	Yes	2.983	0.0	n/a	GoodResponse	0	n/a	n/a	8	61	Fixation	AvoidedLoss	True
582.366	0.27	Lose2	0.6452	0.001	Yes	2.983	-0.001	4.0	GoodResponse	0	0.211	581.577	8	61	Target	AvoidedLoss	True
582.577	0.3	Lose2	0.6452	0.001	Yes	2.983	-0.001	4.0	GoodResponse	0	0.211	n/a	8	61	ButtonPress	AvoidedLoss	True
582.649	0.43	Lose2	0.6452	n/a	Yes	2.983	n/a	n/a	GoodResponse	0	n/a	n/a	8	61	Blank	AvoidedLoss	True
583.065	1.45	Lose2	0.6452	n/a	Yes	2.983	n/a	5.0	GoodResponse	0	0.027	582.092	8	61	Feedback	AvoidedLoss	True
584.515	2.983	Lose2	0.6452	n/a	Yes	2.983	n/a	n/a	GoodResponse	0	0.0	n/a	8	61	ISIslide	AvoidedLoss	True
587.514	0.25	Lose2	0.6507999999999999	0.0	Yes	2.886	0.014	n/a	GoodResponse	0	n/a	n/a	8	62	Cue	AvoidedLoss	True
587.764	3.9	Lose2	0.6507999999999999	0.0	Yes	2.886	0.0	n/a	GoodResponse	0	n/a	n/a	8	62	Fixation	AvoidedLoss	True
591.662	0.28	Lose2	0.6507999999999999	0.002	Yes	2.886	-0.002	4.0	GoodResponse	0	0.221	590.883	8	62	Target	AvoidedLoss	True
591.883	0.3	Lose2	0.6507999999999999	0.002	Yes	2.886	-0.002	4.0	GoodResponse	0	0.221	n/a	8	62	ButtonPress	AvoidedLoss	True
591.945	0.42	Lose2	0.6507999999999999	n/a	Yes	2.886	n/a	n/a	GoodResponse	0	n/a	n/a	8	62	Blank	AvoidedLoss	True
592.362	1.45	Lose2	0.6507999999999999	n/a	Yes	2.886	n/a	5.0	GoodResponse	0	0.047	591.409	8	62	Feedback	AvoidedLoss	True
593.811	2.886	Lose2	0.6507999999999999	n/a	Yes	2.886	n/a	n/a	GoodResponse	0	0.0	n/a	8	62	ISIslide	AvoidedLoss	True
596.727	0.25	Lose2	0.6562	0.0	Yes	2.623	0.027	n/a	GoodResponse	0	n/a	n/a	8	63	Cue	AvoidedLoss	False
596.977	4.05	Lose2	0.6562	0.0	Yes	2.623	0.0	4.0	GoodResponse	0	2.081	598.058	8	63	Fixation	AvoidedLoss	False
599.058	0.3	Lose2	0.6562	0.0	Yes	2.623	0.0	4.0	GoodResponse	0	2.081	n/a	8	63	ButtonPress	AvoidedLoss	False
601.026	0.29	Lose2	0.6562	0.001	Yes	2.623	-0.001	4.0	GoodResponse	0	0.197	600.223	8	63	Target	AvoidedLoss	False
601.223	0.3	Lose2	0.6562	0.001	Yes	2.623	-0.001	4.0	GoodResponse	0	0.197	n/a	8	63	ButtonPress	AvoidedLoss	False
601.325	0.41	Lose2	0.6562	n/a	Yes	2.623	n/a	n/a	GoodResponse	0	n/a	n/a	8	63	Blank	AvoidedLoss	False
601.725	1.45	Lose2	0.6562	n/a	Yes	2.623	n/a	5.0	GoodResponse	0	0.001	600.726	8	63	Feedback	AvoidedLoss	False
603.175	2.623	Lose2	0.6562	n/a	Yes	2.623	n/a	n/a	GoodResponse	0	0.0	n/a	8	63	ISIslide	AvoidedLoss	False
605.824	0.25	Win2	0.6462	0.0	No	3.126	0.024	n/a	NoResponse	0	n/a	n/a	8	64	Cue	MissedWin	True
606.074	4.15	Win2	0.6462	0.0	No	3.126	0.0	4.0	NoResponse	0	3.857	608.931	8	64	Fixation	MissedWin	True
609.931	0.3	Win2	0.6462	0.0	No	3.126	0.0	4.0	NoResponse	0	3.857	n/a	8	64	ButtonPress	MissedWin	True
610.222	0.29	Win2	0.6462	0.002	No	3.126	-0.002	n/a	NoResponse	0	n/a	n/a	8	64	Target	MissedWin	True
610.522	0.41	Win2	0.6462	n/a	No	3.126	n/a	n/a	NoResponse	0	n/a	n/a	8	64	Blank	MissedWin	True
610.922	1.45	Win2	0.6462	n/a	No	3.126	n/a	5.0	NoResponse	0	0.023	609.945	8	64	Feedback	MissedWin	True
612.372	3.126	Win2	0.6462	n/a	No	3.126	n/a	n/a	NoResponse	0	0.0	n/a	8	64	ISIslide	MissedWin	True
615.52	0.25	Control	0.6364	0.0	No	2.78	0.02	n/a	NoResponse	0	n/a	n/a	8	65	Cue	Neutral	False
615.77	4.0	Control	0.6364	0.0	No	2.78	0.0	n/a	NoResponse	0	n/a	n/a	8	65	Fixation	Neutral	False
619.769	0.3	Control	0.6364	0.001	No	2.78	-0.001	n/a	NoResponse	0	n/a	n/a	8	65	Target	Neutral	False
620.069	0.4	Control	0.6364	n/a	No	2.78	n/a	n/a	NoResponse	0	n/a	n/a	8	65	Blank	Neutral	False
620.469	1.45	Control	0.6364	n/a	No	2.78	n/a	5.0	NoResponse	0	0.037	619.506	8	65	Feedback	Neutral	False
621.918	2.78	Control	0.6364	n/a	No	2.78	n/a	n/a	NoResponse	0	0.0	n/a	8	65	ISIslide	Neutral	False
624.717	0.25	Win2	0.6269	0.0	No	2.783	0.017	n/a	NoResponse	0	n/a	n/a	8	66	Cue	MissedWin	False
624.967	3.9	Win2	0.6269	0.0	No	2.783	0.0	4.0	NoResponse	0	3.785	627.752	8	66	Fixation	MissedWin	False
628.752	0.3	Win2	0.6269	0.0	No	2.783	0.0	4.0	NoResponse	0	3.785	n/a	8	66	ButtonPress	MissedWin	False
628.866	0.31	Win2	0.6269	0.001	No	2.783	-0.001	4.0	NoResponse	0	0.598	628.464	8	66	Target	MissedWin	False
629.182	0.39	Win2	0.6269	n/a	No	2.783	n/a	n/a	NoResponse	0	n/a	n/a	8	66	Blank	MissedWin	False
629.464	0.3	Win2	0.6269	0.001	No	2.783	-0.001	4.0	NoResponse	0	0.598	n/a	8	66	ButtonPress	MissedWin	False
629.565	1.45	Win2	0.6269	n/a	No	2.783	n/a	5.0	NoResponse	0	0.014	628.579	8	66	Feedback	MissedWin	False
631.015	2.783	Win2	0.6269	n/a	No	2.783	n/a	n/a	NoResponse	0	0.0	n/a	8	66	ISIslide	MissedWin	False
633.814	0.25	Control	0.6324000000000001	0.0	Yes	2.736	0.014	n/a	GoodResponse	0	n/a	n/a	8	67	Cue	Neutral	True
634.064	3.95	Control	0.6324000000000001	0.0	Yes	2.736	0.0	n/a	GoodResponse	0	n/a	n/a	8	67	Fixation	Neutral	True
638.012	0.32	Control	0.6324000000000001	0.002	Yes	2.736	-0.002	4.0	GoodResponse	0	0.218	637.23	8	67	Target	Neutral	True
638.23	0.3	Control	0.6324000000000001	0.002	Yes	2.736	-0.002	4.0	GoodResponse	0	0.218	n/a	8	67	ButtonPress	Neutral	True
638.346	0.38	Control	0.6324000000000001	n/a	Yes	2.736	n/a	n/a	GoodResponse	0	n/a	n/a	8	67	Blank	Neutral	True
638.712	1.45	Control	0.6324000000000001	n/a	Yes	2.736	n/a	5.0	GoodResponse	0	0.038	637.75	8	67	Feedback	Neutral	True
640.162	2.736	Control	0.6324000000000001	n/a	Yes	2.736	n/a	n/a	GoodResponse	0	0.0	n/a	8	67	ISIslide	Neutral	True
642.927	0.25	Win2	0.6377	0.0	Yes	3.073	0.027	n/a	GoodResponse	1	n/a	n/a	9	68	Cue	Win	True
643.177	4.0	Win2	0.6377	0.0	Yes	3.073	0.0	n/a	GoodResponse	1	n/a	n/a	9	68	Fixation	Win	True
647.176	0.33	Win2	0.6377	0.001	Yes	3.073	-0.001	4.0	GoodResponse	1	0.256	646.432	9	68	Target	Win	True
647.432	0.3	Win2	0.6377	0.001	Yes	3.073	-0.001	4.0	GoodResponse	1	0.256	n/a	9	68	ButtonPress	Win	True
647.509	0.37	Win2	0.6377	n/a	Yes	3.073	n/a	n/a	GoodResponse	1	n/a	n/a	9	68	Blank	Win	True
647.876	1.45	Win2	0.6377	n/a	Yes	3.073	n/a	5.0	GoodResponse	1	0.044	646.92	9	68	Feedback	Win	True
649.325	3.073	Win2	0.6377	n/a	Yes	3.073	n/a	n/a	GoodResponse	1	0.0	n/a	9	68	ISIslide	Win	True
652.424	0.25	Win2	0.6429	0.0	Yes	3.226	0.024	n/a	GoodResponse	1	n/a	n/a	10	69	Cue	Win	True
652.674	3.95	Win2	0.6429	0.0	Yes	3.226	0.0	n/a	GoodResponse	1	n/a	n/a	10	69	Fixation	Win	True
656.622	0.34	Win2	0.6429	0.002	Yes	3.226	-0.002	4.0	GoodResponse	1	0.256	655.878	10	69	Target	Win	True
656.878	0.3	Win2	0.6429	0.002	Yes	3.226	-0.002	4.0	GoodResponse	1	0.256	n/a	10	69	ButtonPress	Win	True
656.972	0.36	Win2	0.6429	n/a	Yes	3.226	n/a	n/a	GoodResponse	1	n/a	n/a	10	69	Blank	Win	True
657.322	1.45	Win2	0.6429	n/a	Yes	3.226	n/a	5.0	GoodResponse	1	0.013	656.335	10	69	Feedback	Win	True
658.772	3.226	Win2	0.6429	n/a	Yes	3.226	n/a	n/a	GoodResponse	1	0.0	n/a	10	69	ISIslide	Win	True
662.021	0.25	Lose2	0.6479	0.0	Yes	3.029	0.021	n/a	GoodResponse	0	n/a	n/a	10	70	Cue	AvoidedLoss	True
662.27	4.05	Lose2	0.6479	0.001	Yes	3.029	-0.001	n/a	GoodResponse	0	n/a	n/a	10	70	Fixation	AvoidedLoss	True
666.319	0.35	Lose2	0.6479	0.002	Yes	3.029	-0.002	4.0	GoodResponse	0	0.233	665.552	10	70	Target	AvoidedLoss	True
666.552	0.3	Lose2	0.6479	0.002	Yes	3.029	-0.002	4.0	GoodResponse	0	0.233	n/a	10	70	ButtonPress	AvoidedLoss	True
666.669	0.35	Lose2	0.6479	n/a	Yes	3.029	n/a	n/a	GoodResponse	0	n/a	n/a	10	70	Blank	AvoidedLoss	True
667.019	1.45	Lose2	0.6479	n/a	Yes	3.029	n/a	5.0	GoodResponse	0	0.023	666.042	10	70	Feedback	AvoidedLoss	True
668.468	3.029	Lose2	0.6479	n/a	Yes	3.029	n/a	n/a	GoodResponse	0	0.0	n/a	10	70	ISIslide	AvoidedLoss	True
671.517	0.25	Win2	0.6528	0.0	Yes	2.733	0.017	n/a	GoodResponse	1	n/a	n/a	11	71	Cue	Win	True
671.767	4.05	Win2	0.6528	0.0	Yes	2.733	0.0	n/a	GoodResponse	1	n/a	n/a	11	71	Fixation	Win	True
675.816	0.36	Win2	0.6528	0.001	Yes	2.733	-0.001	4.0	GoodResponse	1	0.241	675.057	11	71	Target	Win	True
676.057	0.3	Win2	0.6528	0.001	Yes	2.733	-0.001	4.0	GoodResponse	1	0.241	n/a	11	71	ButtonPress	Win	True
676.182	0.34	Win2	0.6528	n/a	Yes	2.733	n/a	n/a	GoodResponse	1	n/a	n/a	11	71	Blank	Win	True
676.515	1.45	Win2	0.6528	n/a	Yes	2.733	n/a	5.0	GoodResponse	1	0.039	675.554	11	71	Feedback	Win	True
677.965	2.733	Win2	0.6528	n/a	Yes	2.733	n/a	n/a	GoodResponse	1	0.0	n/a	11	71	ISIslide	Win	True
680.714	0.25	Win2	0.6437999999999999	0.0	No	2.786	0.014	n/a	NoResponse	0	n/a	n/a	11	72	Cue	MissedWin	False
680.964	4.1	Win2	0.6437999999999999	0.0	No	2.786	0.0	n/a	NoResponse	0	n/a	n/a	11	72	Fixation	MissedWin	False
685.062	0.37	Win2	0.6437999999999999	0.002	No	2.786	-0.002	n/a	NoResponse	0	n/a	n/a	11	72	Target	MissedWin	False
685.446	0.33	Win2	0.6437999999999999	n/a	No	2.786	n/a	n/a	NoResponse	0	n/a	n/a	11	72	Blank	MissedWin	False
685.762	1.45	Win2	0.6437999999999999	n/a	No	2.786	n/a	5.0	NoResponse	0	0.012	684.774	11	72	Feedback	MissedWin	False
687.212	2.786	Win2	0.6437999999999999	n/a	No	2.786	n/a	n/a	NoResponse	0	0.0	n/a	11	72	ISIslide	MissedWin	False
690.027	0.25	Win2	0.6351	0.0	No	2.673	0.027	n/a	NoResponse	0	n/a	n/a	11	73	Cue	MissedWin	True
690.277	4.0	Win2	0.6351	0.0	No	2.673	0.0	4.0	NoResponse	0	1.234	690.511	11	73	Fixation	MissedWin	True
691.511	0.3	Win2	0.6351	0.0	No	2.673	0.0	4.0	NoResponse	0	1.234	n/a	11	73	ButtonPress	MissedWin	True
694.276	0.38	Win2	0.6351	0.001	No	2.673	-0.001	n/a	NoResponse	0	n/a	n/a	11	73	Target	MissedWin	True
694.659	0.32	Win2	0.6351	n/a	No	2.673	n/a	n/a	NoResponse	0	n/a	n/a	11	73	Blank	MissedWin	True
694.975	1.45	Win2	0.6351	n/a	No	2.673	n/a	5.0	NoResponse	0	0.018	693.993	11	73	Feedback	MissedWin	True
696.425	2.673	Win2	0.6351	n/a	No	2.673	n/a	n/a	NoResponse	0	0.0	n/a	11	73	ISIslide	MissedWin	True
699.124	0.25	Lose2	0.64	0.0	Yes	2.626	0.024	n/a	GoodResponse	0	n/a	n/a	11	74	Cue	AvoidedLoss	True
699.374	4.05	Lose2	0.64	0.0	Yes	2.626	0.0	n/a	GoodResponse	0	n/a	n/a	11	74	Fixation	AvoidedLoss	True
703.422	0.39	Lose2	0.64	0.002	Yes	2.626	-0.002	4.0	GoodResponse	0	0.191	702.613	11	74	Target	AvoidedLoss	True
703.613	0.3	Lose2	0.64	0.002	Yes	2.626	-0.002	4.0	GoodResponse	0	0.191	n/a	11	74	ButtonPress	AvoidedLoss	True
703.822	0.31	Lose2	0.64	n/a	Yes	2.626	n/a	n/a	GoodResponse	0	n/a	n/a	11	74	Blank	AvoidedLoss	True
704.122	1.45	Lose2	0.64	n/a	Yes	2.626	n/a	5.0	GoodResponse	0	0.041	703.163	11	74	Feedback	AvoidedLoss	True
705.572	2.626	Lose2	0.64	n/a	Yes	2.626	n/a	n/a	GoodResponse	0	0.0	n/a	11	74	ISIslide	AvoidedLoss	True
708.221	0.25	Lose2	0.6446999999999999	0.0	Yes	2.929	0.021	n/a	GoodResponse	0	n/a	n/a	11	75	Cue	AvoidedLoss	True
708.471	3.95	Lose2	0.6446999999999999	0.0	Yes	2.929	0.0	n/a	GoodResponse	0	n/a	n/a	11	75	Fixation	AvoidedLoss	True
712.419	0.4	Lose2	0.6446999999999999	0.002	Yes	2.929	-0.002	4.0	GoodResponse	0	0.229	711.648	11	75	Target	AvoidedLoss	True
712.648	0.3	Lose2	0.6446999999999999	0.002	Yes	2.929	-0.002	4.0	GoodResponse	0	0.229	n/a	11	75	ButtonPress	AvoidedLoss	True
712.819	0.3	Lose2	0.6446999999999999	n/a	Yes	2.929	n/a	n/a	GoodResponse	0	n/a	n/a	11	75	Blank	AvoidedLoss	True
713.119	1.45	Lose2	0.6446999999999999	n/a	Yes	2.929	n/a	5.0	GoodResponse	0	0.02	712.139	11	75	Feedback	AvoidedLoss	True
714.568	2.929	Lose2	0.6446999999999999	n/a	Yes	2.929	n/a	n/a	GoodResponse	0	0.0	n/a	11	75	ISIslide	AvoidedLoss	True
717.517	0.25	Control	0.6494	0.001	Yes	3.233	0.017	n/a	GoodResponse	0	n/a	n/a	11	76	Cue	Neutral	True
717.767	4.05	Control	0.6494	0.0	Yes	3.233	0.0	n/a	GoodResponse	0	n/a	n/a	11	76	Fixation	Neutral	True
721.816	0.41	Control	0.6494	0.001	Yes	3.233	-0.001	4.0	GoodResponse	0	0.235	721.051	11	76	Target	Neutral	True
722.051	0.3	Control	0.6494	0.001	Yes	3.233	-0.001	4.0	GoodResponse	0	0.235	n/a	11	76	ButtonPress	Neutral	True
722.232	0.29	Control	0.6494	n/a	Yes	3.233	n/a	n/a	GoodResponse	0	n/a	n/a	11	76	Blank	Neutral	True
722.516	1.45	Control	0.6494	n/a	Yes	3.233	n/a	5.0	GoodResponse	0	0.038	721.554	11	76	Feedback	Neutral	True
723.965	3.233	Control	0.6494	n/a	Yes	3.233	n/a	n/a	GoodResponse	0	0.0	n/a	11	76	ISIslide	Neutral	True
727.214	0.25	Lose2	0.6537999999999999	0.0	Yes	2.586	0.014	n/a	GoodResponse	0	n/a	n/a	11	77	Cue	AvoidedLoss	True
727.464	3.95	Lose2	0.6537999999999999	0.0	Yes	2.586	0.0	n/a	GoodResponse	0	n/a	n/a	11	77	Fixation	AvoidedLoss	True
731.413	0.42	Lose2	0.6537999999999999	0.001	Yes	2.586	-0.001	4.0	GoodResponse	0	0.201	730.614	11	77	Target	AvoidedLoss	True
731.614	0.3	Lose2	0.6537999999999999	0.001	Yes	2.586	-0.001	4.0	GoodResponse	0	0.201	n/a	11	77	ButtonPress	AvoidedLoss	True
731.846	0.28	Lose2	0.6537999999999999	n/a	Yes	2.586	n/a	n/a	GoodResponse	0	n/a	n/a	11	77	Blank	AvoidedLoss	True
732.112	1.45	Lose2	0.6537999999999999	n/a	Yes	2.586	n/a	5.0	GoodResponse	0	0.005	731.117	11	77	Feedback	AvoidedLoss	True
733.562	2.586	Lose2	0.6537999999999999	n/a	Yes	2.586	n/a	n/a	GoodResponse	0	0.0	n/a	11	77	ISIslide	AvoidedLoss	True
