onset	duration	cue_type	current_mean_accuracy	duration_error	is_hit	isi_adjusted	onset_delay	response	response_type	reward	rt	rt_time	total_reward	trial_number	trial_phase	trial_type	one_press
11.096	0.25	Control	1.0	0.0	Yes	2.954	-0.004	n/a	GoodResponse	0	n/a	n/a	0	0	Cue	Neutral	True
11.347	3.85	Control	1.0	0.0	Yes	2.954	0.001	n/a	GoodResponse	0	n/a	n/a	0	0	Fixation	Neutral	True
15.192	0.4	Control	1.0	0.004	Yes	2.954	-0.004	4.0	GoodResponse	0	0.244	14.436	0	0	Target	Neutral	True
15.436	0.3	Control	1.0	0.004	Yes	2.954	-0.004	4.0	GoodResponse	0	0.244	n/a	0	0	ButtonPress	Neutral	True
15.593	0.3	Control	1.0	n/a	Yes	2.954	n/a	n/a	GoodResponse	0	n/a	n/a	0	0	Blank	Neutral	True
15.894	1.45	Control	1.0	n/a	Yes	2.954	n/a	5.0	GoodResponse	0	0.032	14.926	0	0	Feedback	Neutral	True
17.348	2.954	Control	1.0	n/a	Yes	2.954	n/a	n/a	GoodResponse	0	0.0	n/a	0	0	ISIslide	Neutral	True
20.324	0.25	Lose2	1.0	0.0	Yes	2.776	0.024	n/a	GoodResponse	0	n/a	n/a	0	1	Cue	AvoidedLoss	True
20.575	4.0	Lose2	1.0	0.0	Yes	2.776	0.001	n/a	GoodResponse	0	n/a	n/a	0	1	Fixation	AvoidedLoss	True
24.57	0.39	Lose2	1.0	0.004	Yes	2.776	-0.004	4.0	GoodResponse	0	0.217	23.787	0	1	Target	AvoidedLoss	True
24.787	0.3	Lose2	1.0	0.004	Yes	2.776	-0.004	4.0	GoodResponse	0	0.217	n/a	0	1	ButtonPress	AvoidedLoss	True
24.971	0.31	Lose2	1.0	n/a	Yes	2.776	n/a	n/a	GoodResponse	0	n/a	n/a	0	1	Blank	AvoidedLoss	True
25.272	1.45	Lose2	1.0	n/a	Yes	2.776	n/a	5.0	GoodResponse	0	0.02	24.292	0	1	Feedback	AvoidedLoss	True
26.726	2.776	Lose2	1.0	n/a	Yes	2.776	n/a	n/a	GoodResponse	0	0.0	n/a	0	1	ISIslide	AvoidedLoss	True
29.518	0.25	Control	1.0	0.0	Yes	2.582	0.018	n/a	GoodResponse	0	n/a	n/a	0	2	Cue	Neutral	True
29.769	4.1	Control	1.0	0.0	Yes	2.582	0.001	n/a	GoodResponse	0	n/a	n/a	0	2	Fixation	Neutral	True
33.864	0.38	Control	1.0	0.004	Yes	2.582	-0.004	4.0	GoodResponse	0	0.357	33.221	0	2	Target	Neutral	True
34.221	0.3	Control	1.0	0.004	Yes	2.582	-0.004	4.0	GoodResponse	0	0.357	n/a	0	2	ButtonPress	Neutral	True
34.249	0.32	Control	1.0	n/a	Yes	2.582	n/a	n/a	GoodResponse	0	n/a	n/a	0	2	Blank	Neutral	True
34.566	1.45	Control	1.0	n/a	Yes	2.582	n/a	5.0	GoodResponse	0	0.043	33.609	0	2	Feedback	Neutral	True
36.021	2.582	Control	1.0	n/a	Yes	2.582	n/a	n/a	GoodResponse	0	0.0	n/a	0	2	ISIslide	Neutral	True
38.629	0.25	Win2	1.0	0.0	Yes	2.821	0.029	n/a	GoodResponse	1	n/a	n/a	1	3	Cue	Win	True
38.879	3.95	Win2	1.0	0.0	Yes	2.821	0.0	n/a	GoodResponse	1	n/a	n/a	1	3	Fixation	Win	True
42.825	0.37	Win2	1.0	0.004	Yes	2.821	-0.004	4.0	GoodResponse	1	0.263	42.088	1	3	Target	Win	True
43.088	0.3	Win2	1.0	0.004	Yes	2.821	-0.004	4.0	GoodResponse	1	0.263	n/a	1	3	ButtonPress	Win	True
43.209	0.33	Win2	1.0	n/a	Yes	2.821	n/a	n/a	GoodResponse	1	n/a	n/a	1	3	Blank	Win	True
43.527	1.45	Win2	1.0	n/a	Yes	2.821	n/a	5.0	GoodResponse	1	0.009	42.536	1	3	Feedback	Win	True
44.981	2.821	Win2	1.0	n/a	Yes	2.821	n/a	n/a	GoodResponse	1	0.0	n/a	1	3	ISIslide	Win	True
47.823	0.25	Win2	1.0	0.0	Yes	3.277	0.023	n/a	GoodResponse	1	n/a	n/a	2	4	Cue	Win	True
48.074	4.0	Win2	1.0	0.0	Yes	3.277	0.001	n/a	GoodResponse	1	n/a	n/a	2	4	Fixation	Win	True
52.069	0.36	Win2	1.0	0.004	Yes	3.277	-0.004	4.0	GoodResponse	1	0.212	51.281	2	4	Target	Win	True
52.281	0.3	Win2	1.0	0.004	Yes	3.277	-0.004	4.0	GoodResponse	1	0.212	n/a	2	4	ButtonPress	Win	True
52.437	0.34	Win2	1.0	n/a	Yes	3.277	n/a	n/a	GoodResponse	1	n/a	n/a	2	4	Blank	Win	True
52.771	1.45	Win2	1.0	n/a	Yes	3.277	n/a	5.0	GoodResponse	1	0.033	51.804	2	4	Feedback	Win	True
54.225	3.277	Win2	1.0	n/a	Yes	3.277	n/a	n/a	GoodResponse	1	0.0	n/a	2	4	ISIslide	Win	True
57.518	0.25	Win2	1.0	0.001	Yes	2.782	0.018	n/a	GoodResponse	1	n/a	n/a	3	5	Cue	Win	True
57.769	4.0	Win2	1.0	0.0	Yes	2.782	0.001	n/a	GoodResponse	1	n/a	n/a	3	5	Fixation	Win	True
61.764	0.35	Win2	1.0	0.004	Yes	2.782	-0.004	4.0	GoodResponse	1	0.281	61.045	3	5	Target	Win	True
62.045	0.3	Win2	1.0	0.004	Yes	2.782	-0.004	4.0	GoodResponse	1	0.281	n/a	3	5	ButtonPress	Win	True
62.116	0.35	Win2	1.0	n/a	Yes	2.782	n/a	n/a	GoodResponse	1	n/a	n/a	3	5	Blank	Win	True
62.467	1.45	Win2	1.0	n/a	Yes	2.782	n/a	5.0	GoodResponse	1	0.044	61.511	3	5	Feedback	Win	True
63.921	2.782	Win2	1.0	n/a	Yes	2.782	n/a	n/a	GoodResponse	1	0.0	n/a	3	5	ISIslide	Win	True
66.729	0.25	Lose2	1.0	0.0	Yes	2.721	0.029	n/a	GoodResponse	0	n/a	n/a	3	6	Cue	AvoidedLoss	True
66.98	3.95	Lose2	1.0	0.0	Yes	2.721	0.001	n/a	GoodResponse	0	n/a	n/a	3	6	Fixation	AvoidedLoss	True
70.925	0.34	Lose2	1.0	0.004	Yes	2.721	-0.004	4.0	GoodResponse	0	0.245	70.17	3	6	Target	AvoidedLoss	True
71.17	0.3	Lose2	1.0	0.004	Yes	2.721	-0.004	4.0	GoodResponse	0	0.245	n/a	3	6	ButtonPress	AvoidedLoss	True
71.276	0.36	Lose2	1.0	n/a	Yes	2.721	n/a	n/a	GoodResponse	0	n/a	n/a	3	6	Blank	AvoidedLoss	True
71.627	1.45	Lose2	1.0	n/a	Yes	2.721	n/a	5.0	GoodResponse	0	0.007	70.634	3	6	Feedback	AvoidedLoss	True
73.082	2.721	Lose2	1.0	n/a	Yes	2.721	n/a	n/a	GoodResponse	0	0.0	n/a	3	6	ISIslide	AvoidedLoss	True
75.823	0.25	Lose2	1.0	0.0	Yes	4.027	0.023	n/a	GoodResponse	0	n/a	n/a	3	7	Cue	AvoidedLoss	True
76.074	4.05	Lose2	1.0	0.0	Yes	4.027	0.001	n/a	GoodResponse	0	n/a	n/a	3	7	Fixation	AvoidedLoss	True
80.119	0.33	Lose2	1.0	0.004	Yes	4.027	-0.004	4.0	GoodResponse	0	0.226	79.345	3	7	Target	AvoidedLoss	True
80.345	0.3	Lose2	1.0	0.004	Yes	4.027	-0.004	4.0	GoodResponse	0	0.226	n/a	3	7	ButtonPress	AvoidedLoss	True
80.454	0.37	Lose2	1.0	n/a	Yes	4.027	n/a	n/a	GoodResponse	0	n/a	n/a	3	7	Blank	AvoidedLoss	True
80.821	1.45	Lose2	1.0	n/a	Yes	4.027	n/a	5.0	GoodResponse	0	0.032	79.853	3	7	Feedback	AvoidedLoss	True
82.276	4.027	Lose2	1.0	n/a	Yes	4.027	n/a	n/a	GoodResponse	0	0.0	n/a	3	7	ISIslide	AvoidedLoss	True
86.321	0.25	Lose2	1.0	0.0	Yes	3.029	0.021	n/a	GoodResponse	0	n/a	n/a	3	8	Cue	AvoidedLoss	True
86.572	3.95	Lose2	1.0	0.0	Yes	3.029	0.001	n/a	GoodResponse	0	n/a	n/a	3	8	Fixation	AvoidedLoss	True
90.517	0.32	Lose2	1.0	0.004	Yes	3.029	-0.004	4.0	GoodResponse	0	0.235	89.752	3	8	Target	AvoidedLoss	True
90.752	0.3	Lose2	1.0	0.004	Yes	3.029	-0.004	4.0	GoodResponse	0	0.235	n/a	3	8	ButtonPress	AvoidedLoss	True
90.851	0.38	Lose2	1.0	n/a	Yes	3.029	n/a	n/a	GoodResponse	0	n/a	n/a	3	8	Blank	AvoidedLoss	True
91.219	1.45	Lose2	1.0	n/a	Yes	3.029	n/a	5.0	GoodResponse	0	0.023	90.242	3	8	Feedback	AvoidedLoss	True
92.674	3.029	Lose2	1.0	n/a	Yes	3.029	n/a	n/a	GoodResponse	0	0.0	n/a	3	8	ISIslide	AvoidedLoss	True
95.716	0.25	Lose2	1.0	0.0	Yes	3.134	0.016	n/a	GoodResponse	0	n/a	n/a	3	9	Cue	AvoidedLoss	True
95.967	3.95	Lose2	1.0	0.0	Yes	3.134	0.001	n/a	GoodResponse	0	n/a	n/a	3	9	Fixation	AvoidedLoss	True
99.912	0.31	Lose2	1.0	0.004	Yes	3.134	-0.004	4.0	GoodResponse	0	0.303	99.215	3	9	Target	AvoidedLoss	True
100.215	0.3	Lose2	1.0	0.004	Yes	3.134	-0.004	4.0	GoodResponse	0	0.303	n/a	3	9	ButtonPress	AvoidedLoss	True
100.229	0.39	Lose2	1.0	n/a	Yes	3.134	n/a	n/a	GoodResponse	0	n/a	n/a	3	9	Blank	AvoidedLoss	True
100.614	1.45	Lose2	1.0	n/a	Yes	3.134	n/a	5.0	GoodResponse	0	0.043	99.657	3	9	Feedback	AvoidedLoss	True
102.068	3.134	Lose2	1.0	n/a	Yes	3.134	n/a	n/a	GoodResponse	0	0.0	n/a	3	9	ISIslide	AvoidedLoss	True
105.228	0.25	Control	1.0	0.0	Yes	3.272	0.028	n/a	GoodResponse	0	n/a	n/a	3	10	Cue	Neutral	True
105.479	4.0	Control	1.0	0.0	Yes	3.272	0.001	n/a	GoodResponse	0	n/a	n/a	3	10	Fixation	Neutral	True
109.474	0.3	Control	1.0	0.004	Yes	3.272	-0.004	4.0	GoodResponse	0	0.21	108.684	3	10	Target	Neutral	True
109.684	0.3	Control	1.0	0.004	Yes	3.272	-0.004	4.0	GoodResponse	0	0.21	n/a	3	10	ButtonPress	Neutral	True
109.775	0.4	Control	1.0	n/a	Yes	3.272	n/a	n/a	GoodResponse	0	n/a	n/a	3	10	Blank	Neutral	True
110.176	1.45	Control	1.0	n/a	Yes	3.272	n/a	5.0	GoodResponse	0	0.042	109.218	3	10	Feedback	Neutral	True
111.63	3.272	Control	1.0	n/a	Yes	3.272	n/a	n/a	GoodResponse	0	0.0	n/a	3	10	ISIslide	Neutral	True
114.923	0.25	Lose2	1.0	0.001	Yes	2.727	0.023	n/a	GoodResponse	0	n/a	n/a	3	11	Cue	AvoidedLoss	True
115.174	4.05	Lose2	1.0	0.0	Yes	2.727	0.001	n/a	GoodResponse	0	n/a	n/a	3	11	Fixation	AvoidedLoss	True
119.22	0.29	Lose2	1.0	0.003	Yes	2.727	-0.003	4.0	GoodResponse	0	0.269	118.489	3	11	Target	AvoidedLoss	True
119.489	0.3	Lose2	1.0	0.003	Yes	2.727	-0.003	4.0	GoodResponse	0	0.269	n/a	3	11	ButtonPress	AvoidedLoss	True
119.52	0.41	Lose2	1.0	n/a	Yes	2.727	n/a	n/a	GoodResponse	0	n/a	n/a	3	11	Blank	AvoidedLoss	True
119.922	1.45	Lose2	1.0	n/a	Yes	2.727	n/a	5.0	GoodResponse	0	0.007	118.929	3	11	Feedback	AvoidedLoss	True
121.376	2.727	Lose2	1.0	n/a	Yes	2.727	n/a	n/a	GoodResponse	0	0.0	n/a	3	11	ISIslide	AvoidedLoss	True
124.118	0.25	Control	0.9231	0.0	No	2.982	0.018	n/a	NoResponse	0	n/a	n/a	3	12	Cue	Neutral	True
124.368	3.9	Control	0.9231	0.0	No	2.982	0.0	n/a	NoResponse	0	n/a	n/a	3	12	Fixation	Neutral	True
128.28	0.28	Control	0.9231	0.0	No	2.982	0.012	4.0	NoResponse	0	0.283	127.563	3	12	Target	Neutral	True
128.547	0.42	Control	0.9231	n/a	No	2.982	n/a	n/a	NoResponse	0	n/a	n/a	3	12	Blank	Neutral	True
128.563	0.3	Control	0.9231	0.0	No	2.982	0.012	4.0	NoResponse	0	0.283	n/a	3	12	ButtonPress	Neutral	True
128.965	1.45	Control	0.9231	n/a	No	2.982	n/a	5.0	NoResponse	0	0.033	127.998	3	12	Feedback	Neutral	True
130.42	2.982	Control	0.9231	n/a	No	2.982	n/a	n/a	NoResponse	0	0.0	n/a	3	12	ISIslide	Neutral	True
133.429	0.25	Control	0.9286	0.0	Yes	2.771	0.029	n/a	GoodResponse	0	n/a	n/a	3	13	Cue	Neutral	True
133.679	4.0	Control	0.9286	0.001	Yes	2.771	0.0	n/a	GoodResponse	0	n/a	n/a	3	13	Fixation	Neutral	True
137.675	0.27	Control	0.9286	0.004	Yes	2.771	-0.004	4.0	GoodResponse	0	0.209	136.884	3	13	Target	Neutral	True
137.884	0.3	Control	0.9286	0.004	Yes	2.771	-0.004	4.0	GoodResponse	0	0.209	n/a	3	13	ButtonPress	Neutral	True
137.959	0.43	Control	0.9286	n/a	Yes	2.771	n/a	n/a	GoodResponse	0	n/a	n/a	3	13	Blank	Neutral	True
138.377	1.45	Control	0.9286	n/a	Yes	2.771	n/a	5.0	GoodResponse	0	0.035	137.412	3	13	Feedback	Neutral	True
139.831	2.771	Control	0.9286	n/a	Yes	2.771	n/a	n/a	GoodResponse	0	0.0	n/a	3	13	ISIslide	Neutral	True
142.623	0.25	Win2	0.9333	0.0	Yes	2.677	0.023	n/a	GoodResponse	1	n/a	n/a	4	14	Cue	Win	True
142.874	4.1	Win2	0.9333	0.0	Yes	2.677	0.001	n/a	GoodResponse	1	n/a	n/a	4	14	Fixation	Win	True
146.969	0.26	Win2	0.9333	0.004	Yes	2.677	-0.004	4.0	GoodResponse	1	0.24	146.209	4	14	Target	Win	True
147.209	0.3	Win2	0.9333	0.004	Yes	2.677	-0.004	4.0	GoodResponse	1	0.24	n/a	4	14	ButtonPress	Win	True
147.237	0.44	Win2	0.9333	n/a	Yes	2.677	n/a	n/a	GoodResponse	1	n/a	n/a	4	14	Blank	Win	True
147.671	1.45	Win2	0.9333	n/a	Yes	2.677	n/a	5.0	GoodResponse	1	0.01	146.681	4	14	Feedback	Win	True
149.126	2.677	Win2	0.9333	n/a	Yes	2.677	n/a	n/a	GoodResponse	1	0.0	n/a	4	14	ISIslide	Win	True
151.817	0.25	Control	0.9375	0.0	Yes	2.983	0.017	n/a	GoodResponse	0	n/a	n/a	4	15	Cue	Neutral	True
152.068	4.0	Control	0.9375	0.0	Yes	2.983	0.001	n/a	GoodResponse	0	n/a	n/a	4	15	Fixation	Neutral	True
156.063	0.25	Control	0.9375	0.004	Yes	2.983	-0.004	4.0	GoodResponse	0	0.189	155.252	4	15	Target	Neutral	True
156.252	0.3	Control	0.9375	0.004	Yes	2.983	-0.004	4.0	GoodResponse	0	0.189	n/a	4	15	ButtonPress	Neutral	True
156.314	0.45	Control	0.9375	n/a	Yes	2.983	n/a	n/a	GoodResponse	0	n/a	n/a	4	15	Blank	Neutral	True
156.765	1.45	Control	0.9375	n/a	Yes	2.983	n/a	5.0	GoodResponse	0	0.038	155.803	4	15	Feedback	Neutral	True
158.22	2.983	Control	0.9375	n/a	Yes	2.983	n/a	n/a	GoodResponse	0	0.0	n/a	4	15	ISIslide	Neutral	True
161.229	0.25	Win2	0.9412	0.0	Yes	2.871	0.029	n/a	GoodResponse	1	n/a	n/a	5	16	Cue	Win	True
161.479	4.0	Win2	0.9412	0.0	Yes	2.871	0.0	n/a	GoodResponse	1	n/a	n/a	5	16	Fixation	Win	True
165.475	0.24	Win2	0.9412	0.004	Yes	2.871	-0.004	4.0	GoodResponse	1	0.207	164.682	5	16	Target	Win	True
165.682	0.3	Win2	0.9412	0.004	Yes	2.871	-0.004	4.0	GoodResponse	1	0.207	n/a	5	16	ButtonPress	Win	True
165.725	0.46	Win2	0.9412	n/a	Yes	2.871	n/a	n/a	GoodResponse	1	n/a	n/a	5	16	Blank	Win	True
166.177	1.45	Win2	0.9412	n/a	Yes	2.871	n/a	5.0	GoodResponse	1	0.04	165.217	5	16	Feedback	Win	True
167.631	2.871	Win2	0.9412	n/a	Yes	2.871	n/a	n/a	GoodResponse	1	0.0	n/a	5	16	ISIslide	Win	True
170.523	0.25	Lose2	0.8889	0.0	No	2.727	0.023	n/a	NoResponse	-1	n/a	n/a	4	17	Cue	Loss	True
170.774	3.95	Lose2	0.8889	0.0	No	2.727	0.001	n/a	NoResponse	-1	n/a	n/a	4	17	Fixation	Loss	True
174.719	0.23	Lose2	0.8889	0.004	No	2.727	-0.004	4.0	NoResponse	-1	0.25	173.969	4	17	Target	Loss	True
174.953	0.47	Lose2	0.8889	n/a	No	2.727	n/a	n/a	NoResponse	-1	n/a	n/a	4	17	Blank	Loss	True
174.969	0.3	Lose2	0.8889	0.004	No	2.727	-0.004	4.0	NoResponse	-1	0.25	n/a	4	17	ButtonPress	Loss	True
175.421	1.45	Lose2	0.8889	n/a	No	2.727	n/a	5.0	NoResponse	-1	0.015	174.436	4	17	Feedback	Loss	True
176.875	2.727	Lose2	0.8889	n/a	No	2.727	n/a	n/a	NoResponse	-1	0.0	n/a	4	17	ISIslide	Loss	True
179.617	0.25	Lose2	0.8421	0.0	No	2.733	0.017	n/a	NoResponse	-1	n/a	n/a	3	18	Cue	Loss	True
179.868	4.05	Lose2	0.8421	0.0	No	2.733	0.001	n/a	NoResponse	-1	n/a	n/a	3	18	Fixation	Loss	True
183.913	0.22	Lose2	0.8421	0.004	No	2.733	-0.004	4.0	NoResponse	-1	0.36	183.273	3	18	Target	Loss	True
184.147	0.48	Lose2	0.8421	n/a	No	2.733	n/a	n/a	NoResponse	-1	n/a	n/a	3	18	Blank	Loss	True
184.273	0.3	Lose2	0.8421	0.004	No	2.733	-0.004	4.0	NoResponse	-1	0.36	n/a	3	18	ButtonPress	Loss	True
184.615	1.45	Lose2	0.8421	n/a	No	2.733	n/a	5.0	NoResponse	-1	0.041	183.656	3	18	Feedback	Loss	True
186.069	2.733	Lose2	0.8421	n/a	No	2.733	n/a	n/a	NoResponse	-1	0.0	n/a	3	18	ISIslide	Loss	True
188.828	0.25	Control	0.8	0.0	No	2.922	0.028	n/a	LatePress	0	n/a	n/a	3	19	Cue	Neutral	True
189.078	3.95	Control	0.8	0.001	No	2.922	0.0	n/a	LatePress	0	n/a	n/a	3	19	Fixation	Neutral	True
193.024	0.21	Control	0.8	0.004	No	2.922	-0.004	4.0	LatePress	0	0.211	192.235	3	19	Target	Neutral	True
193.235	0.3	Control	0.8	0.004	No	2.922	-0.004	4.0	LatePress	0	0.211	n/a	3	19	ButtonPress	Neutral	True
193.241	0.49	Control	0.8	n/a	No	2.922	n/a	n/a	LatePress	0	n/a	n/a	3	19	Blank	Neutral	True
193.726	1.45	Control	0.8	n/a	No	2.922	n/a	5.0	LatePress	0	0.007	192.733	3	19	Feedback	Neutral	True
195.18	2.922	Control	0.8	n/a	No	2.922	n/a	n/a	LatePress	0	0.0	n/a	3	19	ISIslide	Neutral	True
198.122	0.25	Control	0.8095	0.0	Yes	2.628	0.022	n/a	GoodResponse	0	n/a	n/a	3	20	Cue	Neutral	True
198.373	4.05	Control	0.8095	0.0	Yes	2.628	0.001	n/a	GoodResponse	0	n/a	n/a	3	20	Fixation	Neutral	True
202.418	0.2	Control	0.8095	0.004	Yes	2.628	-0.004	4.0	GoodResponse	0	0.197	201.615	3	20	Target	Neutral	True
202.615	0.3	Control	0.8095	0.004	Yes	2.628	-0.004	4.0	GoodResponse	0	0.197	n/a	3	20	ButtonPress	Neutral	True
202.619	0.5	Control	0.8095	n/a	Yes	2.628	n/a	n/a	GoodResponse	0	n/a	n/a	3	20	Blank	Neutral	True
203.12	1.45	Control	0.8095	n/a	Yes	2.628	n/a	5.0	GoodResponse	0	0.024	202.144	3	20	Feedback	Neutral	True
204.575	2.628	Control	0.8095	n/a	Yes	2.628	n/a	n/a	GoodResponse	0	0.0	n/a	3	20	ISIslide	Neutral	True
207.216	0.25	Control	0.7726999999999999	0.0	No	2.784	0.016	n/a	NoResponse	0	n/a	n/a	3	21	Cue	Neutral	True
207.467	4.1	Control	0.7726999999999999	0.0	No	2.784	0.001	n/a	NoResponse	0	n/a	n/a	3	21	Fixation	Neutral	True
211.562	0.19	Control	0.7726999999999999	0.004	No	2.784	-0.004	4.0	NoResponse	0	0.239	210.801	3	21	Target	Neutral	True
211.763	0.51	Control	0.7726999999999999	n/a	No	2.784	n/a	n/a	NoResponse	0	n/a	n/a	3	21	Blank	Neutral	True
211.801	0.3	Control	0.7726999999999999	0.004	No	2.784	-0.004	4.0	NoResponse	0	0.239	n/a	3	21	ButtonPress	Neutral	True
212.264	1.45	Control	0.7726999999999999	n/a	No	2.784	n/a	5.0	NoResponse	0	0.002	211.266	3	21	Feedback	Neutral	True
213.719	2.784	Control	0.7726999999999999	n/a	No	2.784	n/a	n/a	NoResponse	0	0.0	n/a	3	21	ISIslide	Neutral	True
216.527	0.25	Control	0.7391	0.0	No	2.773	0.027	n/a	NoResponse	0	n/a	n/a	3	22	Cue	Neutral	True
216.778	4.0	Control	0.7391	0.0	No	2.773	0.001	n/a	NoResponse	0	n/a	n/a	3	22	Fixation	Neutral	True
220.773	0.18	Control	0.7391	0.004	No	2.773	-0.004	4.0	NoResponse	0	0.199	219.972	3	22	Target	Neutral	True
220.957	0.52	Control	0.7391	n/a	No	2.773	n/a	n/a	NoResponse	0	n/a	n/a	3	22	Blank	Neutral	True
220.972	0.3	Control	0.7391	0.004	No	2.773	-0.004	4.0	NoResponse	0	0.199	n/a	3	22	ButtonPress	Neutral	True
221.475	1.45	Control	0.7391	n/a	No	2.773	n/a	5.0	NoResponse	0	0.009	220.484	3	22	Feedback	Neutral	True
222.93	2.773	Control	0.7391	n/a	No	2.773	n/a	n/a	NoResponse	0	0.0	n/a	3	22	ISIslide	Neutral	True
225.721	0.25	Control	0.7082999999999999	0.0	No	2.779	0.021	n/a	NoResponse	0	n/a	n/a	3	23	Cue	Neutral	True
225.972	3.9	Control	0.7082999999999999	0.0	No	2.779	0.001	n/a	NoResponse	0	n/a	n/a	3	23	Fixation	Neutral	True
229.867	0.17	Control	0.7082999999999999	0.004	No	2.779	-0.004	4.0	NoResponse	0	0.235	229.102	3	23	Target	Neutral	True
230.051	0.53	Control	0.7082999999999999	n/a	No	2.779	n/a	n/a	NoResponse	0	n/a	n/a	3	23	Blank	Neutral	True
230.102	0.3	Control	0.7082999999999999	0.004	No	2.779	-0.004	4.0	NoResponse	0	0.235	n/a	3	23	ButtonPress	Neutral	True
230.569	1.45	Control	0.7082999999999999	n/a	No	2.779	n/a	5.0	NoResponse	0	0.037	229.606	3	23	Feedback	Neutral	True
232.024	2.779	Control	0.7082999999999999	n/a	No	2.779	n/a	n/a	NoResponse	0	0.0	n/a	3	23	ISIslide	Neutral	True
234.815	0.25	Win2	0.68	0.0	No	3.135	0.015	n/a	NoResponse	0	n/a	n/a	3	24	Cue	MissedWin	True
235.066	3.95	Win2	0.68	0.0	No	3.135	0.001	n/a	NoResponse	0	n/a	n/a	3	24	Fixation	MissedWin	True
239.011	0.16	Win2	0.68	0.004	No	3.135	-0.004	4.0	NoResponse	0	0.204	238.215	3	24	Target	MissedWin	True
239.178	0.54	Win2	0.68	n/a	No	3.135	n/a	n/a	NoResponse	0	n/a	n/a	3	24	Blank	MissedWin	True
239.215	0.3	Win2	0.68	0.004	No	3.135	-0.004	4.0	NoResponse	0	0.204	n/a	3	24	ButtonPress	MissedWin	True
239.713	1.45	Win2	0.68	n/a	No	3.135	n/a	5.0	NoResponse	0	0.015	238.728	3	24	Feedback	MissedWin	True
241.168	3.135	Win2	0.68	n/a	No	3.135	n/a	n/a	NoResponse	0	0.0	n/a	3	24	ISIslide	MissedWin	True
244.327	0.25	Win2	0.6537999999999999	0.0	No	3.073	0.027	n/a	NoResponse	0	n/a	n/a	3	25	Cue	MissedWin	True
244.578	4.0	Win2	0.6537999999999999	0.0	No	3.073	0.001	n/a	NoResponse	0	n/a	n/a	3	25	Fixation	MissedWin	True
248.573	0.15	Win2	0.6537999999999999	0.004	No	3.073	-0.004	4.0	NoResponse	0	0.452	248.025	3	25	Target	MissedWin	True
248.723	0.55	Win2	0.6537999999999999	n/a	No	3.073	n/a	n/a	NoResponse	0	n/a	n/a	3	25	Blank	MissedWin	True
249.025	0.3	Win2	0.6537999999999999	0.004	No	3.073	-0.004	4.0	NoResponse	0	0.452	n/a	3	25	ButtonPress	MissedWin	True
249.275	1.45	Win2	0.6537999999999999	n/a	No	3.073	n/a	5.0	NoResponse	0	0.014	248.289	3	25	Feedback	MissedWin	True
250.729	3.073	Win2	0.6537999999999999	n/a	No	3.073	n/a	n/a	NoResponse	0	0.0	n/a	3	25	ISIslide	MissedWin	True
253.822	0.25	Win2	0.6296	0.0	No	2.928	0.022	n/a	NoResponse	0	n/a	n/a	3	26	Cue	MissedWin	True
254.073	3.95	Win2	0.6296	0.0	No	2.928	0.001	n/a	NoResponse	0	n/a	n/a	3	26	Fixation	MissedWin	True
258.018	0.16	Win2	0.6296	0.004	No	2.928	-0.004	4.0	NoResponse	0	0.221	257.239	3	26	Target	MissedWin	True
258.185	0.54	Win2	0.6296	n/a	No	2.928	n/a	n/a	NoResponse	0	n/a	n/a	3	26	Blank	MissedWin	True
258.239	0.3	Win2	0.6296	0.004	No	2.928	-0.004	4.0	NoResponse	0	0.221	n/a	3	26	ButtonPress	MissedWin	True
258.72	1.45	Win2	0.6296	n/a	No	2.928	n/a	5.0	NoResponse	0	0.032	257.752	3	26	Feedback	MissedWin	True
260.174	2.928	Win2	0.6296	n/a	No	2.928	n/a	n/a	NoResponse	0	0.0	n/a	3	26	ISIslide	MissedWin	True
263.117	0.25	Lose2	0.6071	0.0	No	2.833	0.017	n/a	NoResponse	-1	n/a	n/a	2	27	Cue	Loss	True
263.367	4.05	Lose2	0.6071	0.0	No	2.833	0.0	n/a	NoResponse	-1	n/a	n/a	2	27	Fixation	Loss	True
267.413	0.17	Lose2	0.6071	0.004	No	2.833	-0.004	4.0	NoResponse	-1	0.196	266.609	2	27	Target	Loss	True
267.597	0.53	Lose2	0.6071	n/a	No	2.833	n/a	n/a	NoResponse	-1	n/a	n/a	2	27	Blank	Loss	True
267.609	0.3	Lose2	0.6071	0.004	No	2.833	-0.004	4.0	NoResponse	-1	0.196	n/a	2	27	ButtonPress	Loss	True
268.115	1.45	Lose2	0.6071	n/a	No	2.833	n/a	5.0	NoResponse	-1	0.008	267.123	2	27	Feedback	Loss	True
269.569	2.833	Lose2	0.6071	n/a	No	2.833	n/a	n/a	NoResponse	-1	0.0	n/a	2	27	ISIslide	Loss	True
272.428	0.25	Control	0.5861999999999999	0.0	No	2.822	0.028	n/a	NoResponse	0	n/a	n/a	2	28	Cue	Neutral	True
272.678	4.05	Control	0.5861999999999999	0.001	No	2.822	0.0	n/a	NoResponse	0	n/a	n/a	2	28	Fixation	Neutral	True
276.724	0.18	Control	0.5861999999999999	0.004	No	2.822	-0.004	4.0	NoResponse	0	0.205	275.929	2	28	Target	Neutral	True
276.908	0.52	Control	0.5861999999999999	n/a	No	2.822	n/a	n/a	NoResponse	0	n/a	n/a	2	28	Blank	Neutral	True
276.929	0.3	Control	0.5861999999999999	0.004	No	2.822	-0.004	4.0	NoResponse	0	0.205	n/a	2	28	ButtonPress	Neutral	True
277.426	1.45	Control	0.5861999999999999	n/a	No	2.822	n/a	5.0	NoResponse	0	0.009	276.435	2	28	Feedback	Neutral	True
278.88	2.822	Control	0.5861999999999999	n/a	No	2.822	n/a	n/a	NoResponse	0	0.0	n/a	2	28	ISIslide	Neutral	True
281.722	0.25	Lose2	0.5667	0.0	No	2.828	0.022	n/a	NoResponse	-1	n/a	n/a	1	29	Cue	Loss	True
281.973	3.95	Lose2	0.5667	0.0	No	2.828	0.001	n/a	NoResponse	-1	n/a	n/a	1	29	Fixation	Loss	True
285.918	0.19	Lose2	0.5667	0.004	No	2.828	-0.004	4.0	NoResponse	-1	0.325	285.243	1	29	Target	Loss	True
286.119	0.51	Lose2	0.5667	n/a	No	2.828	n/a	n/a	NoResponse	-1	n/a	n/a	1	29	Blank	Loss	True
286.243	0.3	Lose2	0.5667	0.004	No	2.828	-0.004	4.0	NoResponse	-1	0.325	n/a	1	29	ButtonPress	Loss	True
286.62	1.45	Lose2	0.5667	n/a	No	2.828	n/a	5.0	NoResponse	-1	0.035	285.655	1	29	Feedback	Loss	True
288.074	2.828	Lose2	0.5667	n/a	No	2.828	n/a	n/a	NoResponse	-1	0.0	n/a	1	29	ISIslide	Loss	True
290.916	0.25	Win2	0.5806	0.0	Yes	2.784	0.016	n/a	GoodResponse	1	n/a	n/a	2	30	Cue	Win	True
291.167	3.9	Win2	0.5806	0.0	Yes	2.784	0.001	n/a	GoodResponse	1	n/a	n/a	2	30	Fixation	Win	True
295.062	0.2	Win2	0.5806	0.004	Yes	2.784	-0.004	4.0	GoodResponse	1	0.183	294.245	2	30	Target	Win	True
295.245	0.3	Win2	0.5806	0.004	Yes	2.784	-0.004	4.0	GoodResponse	1	0.183	n/a	2	30	ButtonPress	Win	True
295.263	0.5	Win2	0.5806	n/a	Yes	2.784	n/a	n/a	GoodResponse	1	n/a	n/a	2	30	Blank	Win	True
295.764	1.45	Win2	0.5806	n/a	Yes	2.784	n/a	5.0	GoodResponse	1	0.013	294.777	2	30	Feedback	Win	True
297.218	2.784	Win2	0.5806	n/a	Yes	2.784	n/a	n/a	GoodResponse	1	0.0	n/a	2	30	ISIslide	Win	True
300.027	0.25	Lose2	0.5938	0.0	Yes	2.823	0.027	n/a	GoodResponse	0	n/a	n/a	2	31	Cue	AvoidedLoss	True
300.278	4.05	Lose2	0.5938	0.0	Yes	2.823	0.001	n/a	GoodResponse	0	n/a	n/a	2	31	Fixation	AvoidedLoss	True
304.323	0.21	Lose2	0.5938	0.004	Yes	2.823	-0.004	4.0	GoodResponse	0	0.207	303.53	2	31	Target	AvoidedLoss	True
304.53	0.3	Lose2	0.5938	0.004	Yes	2.823	-0.004	4.0	GoodResponse	0	0.207	n/a	2	31	ButtonPress	AvoidedLoss	True
304.54	0.49	Lose2	0.5938	n/a	Yes	2.823	n/a	n/a	GoodResponse	0	n/a	n/a	2	31	Blank	AvoidedLoss	True
305.025	1.45	Lose2	0.5938	n/a	Yes	2.823	n/a	5.0	GoodResponse	0	0.019	304.044	2	31	Feedback	AvoidedLoss	True
306.479	2.823	Lose2	0.5938	n/a	Yes	2.823	n/a	n/a	GoodResponse	0	0.0	n/a	2	31	ISIslide	AvoidedLoss	True
309.321	0.25	Lose2	0.6061	0.0	Yes	2.629	0.021	n/a	GoodResponse	0	n/a	n/a	2	32	Cue	AvoidedLoss	True
309.572	4.15	Lose2	0.6061	0.0	Yes	2.629	0.001	n/a	GoodResponse	0	n/a	n/a	2	32	Fixation	AvoidedLoss	True
313.718	0.22	Lose2	0.6061	0.003	Yes	2.629	-0.003	4.0	GoodResponse	0	0.173	312.891	2	32	Target	AvoidedLoss	True
313.891	0.3	Lose2	0.6061	0.003	Yes	2.629	-0.003	4.0	GoodResponse	0	0.173	n/a	2	32	ButtonPress	AvoidedLoss	True
313.952	0.48	Lose2	0.6061	n/a	Yes	2.629	n/a	n/a	GoodResponse	0	n/a	n/a	2	32	Blank	AvoidedLoss	True
314.42	1.45	Lose2	0.6061	n/a	Yes	2.629	n/a	5.0	GoodResponse	0	0.039	313.459	2	32	Feedback	AvoidedLoss	True
315.874	2.629	Lose2	0.6061	n/a	Yes	2.629	n/a	n/a	GoodResponse	0	0.0	n/a	2	32	ISIslide	AvoidedLoss	True
318.515	0.25	Win2	0.6175999999999999	0.001	Yes	2.685	0.015	n/a	GoodResponse	1	n/a	n/a	3	33	Cue	Win	False
318.766	4.0	Win2	0.6175999999999999	0.0	Yes	2.685	0.001	4.0	GoodResponse	1	3.338	321.104	3	33	Fixation	Win	False
322.104	0.3	Win2	0.6175999999999999	0.0	Yes	2.685	0.001	4.0	GoodResponse	1	3.338	n/a	3	33	ButtonPress	Win	False
322.761	0.23	Win2	0.6175999999999999	0.004	Yes	2.685	-0.004	4.0	GoodResponse	1	0.207	321.968	3	33	Target	Win	False
322.968	0.3	Win2	0.6175999999999999	0.004	Yes	2.685	-0.004	4.0	GoodResponse	1	0.207	n/a	3	33	ButtonPress	Win	False
322.996	0.47	Win2	0.6175999999999999	n/a	Yes	2.685	n/a	n/a	GoodResponse	1	n/a	n/a	3	33	Blank	Win	False
323.464	1.45	Win2	0.6175999999999999	n/a	Yes	2.685	n/a	5.0	GoodResponse	1	0.019	322.483	3	33	Feedback	Win	False
324.918	2.685	Win2	0.6175999999999999	n/a	Yes	2.685	n/a	n/a	GoodResponse	1	0.0	n/a	3	33	ISIslide	Win	False
327.626	0.25	Lose2	0.6	0.0	No	2.624	0.026	n/a	NoResponse	-1	n/a	n/a	2	34	Cue	Loss	True
327.877	4.05	Lose2	0.6	0.0	No	2.624	0.001	n/a	NoResponse	-1	n/a	n/a	2	34	Fixation	Loss	True
331.922	0.24	Lose2	0.6	0.004	No	2.624	-0.004	4.0	NoResponse	-1	0.337	331.259	2	34	Target	Loss	True
332.173	0.46	Lose2	0.6	n/a	No	2.624	n/a	n/a	NoResponse	-1	n/a	n/a	2	34	Blank	Loss	True
332.259	0.3	Lose2	0.6	0.004	No	2.624	-0.004	4.0	NoResponse	-1	0.337	n/a	2	34	ButtonPress	Loss	True
332.624	1.45	Lose2	0.6	n/a	No	2.624	n/a	5.0	NoResponse	-1	0.03	331.654	2	34	Feedback	Loss	True
334.079	2.624	Lose2	0.6	n/a	No	2.624	n/a	n/a	NoResponse	-1	0.0	n/a	2	34	ISIslide	Loss	True
336.72	0.25	Lose2	0.6111	0.0	Yes	2.68	0.02	n/a	GoodResponse	0	n/a	n/a	2	35	Cue	AvoidedLoss	True
336.971	4.0	Lose2	0.6111	0.0	Yes	2.68	0.001	n/a	GoodResponse	0	n/a	n/a	2	35	Fixation	AvoidedLoss	True
340.966	0.25	Lose2	0.6111	0.004	Yes	2.68	-0.004	4.0	GoodResponse	0	0.201	340.167	2	35	Target	AvoidedLoss	True
341.167	0.3	Lose2	0.6111	0.004	Yes	2.68	-0.004	4.0	GoodResponse	0	0.201	n/a	2	35	ButtonPress	AvoidedLoss	True
341.217	0.45	Lose2	0.6111	n/a	Yes	2.68	n/a	n/a	GoodResponse	0	n/a	n/a	2	35	Blank	AvoidedLoss	True
341.668	1.45	Lose2	0.6111	n/a	Yes	2.68	n/a	5.0	GoodResponse	0	0.011	340.679	2	35	Feedback	AvoidedLoss	True
343.122	2.68	Lose2	0.6111	n/a	Yes	2.68	n/a	n/a	GoodResponse	0	0.0	n/a	2	35	ISIslide	AvoidedLoss	True
345.83	0.25	Control	0.6215999999999999	0.001	Yes	2.67	0.03	n/a	GoodResponse	0	n/a	n/a	2	36	Cue	Neutral	True
346.081	4.0	Control	0.6215999999999999	0.0	Yes	2.67	0.001	n/a	GoodResponse	0	n/a	n/a	2	36	Fixation	Neutral	True
350.077	0.26	Control	0.6215999999999999	0.003	Yes	2.67	-0.003	4.0	GoodResponse	0	0.23	349.307	2	36	Target	Neutral	True
350.307	0.3	Control	0.6215999999999999	0.003	Yes	2.67	-0.003	4.0	GoodResponse	0	0.23	n/a	2	36	ButtonPress	Neutral	True
350.344	0.44	Control	0.6215999999999999	n/a	Yes	2.67	n/a	n/a	GoodResponse	0	n/a	n/a	2	36	Blank	Neutral	True
350.779	1.45	Control	0.6215999999999999	n/a	Yes	2.67	n/a	5.0	GoodResponse	0	0.021	349.8	2	36	Feedback	Neutral	True
352.233	2.67	Control	0.6215999999999999	n/a	Yes	2.67	n/a	n/a	GoodResponse	0	0.0	n/a	2	36	ISIslide	Neutral	True
354.924	0.25	Win2	0.6315999999999999	0.0	Yes	2.876	0.024	n/a	GoodResponse	1	n/a	n/a	3	37	Cue	Win	True
355.175	4.0	Win2	0.6315999999999999	0.0	Yes	2.876	0.001	n/a	GoodResponse	1	n/a	n/a	3	37	Fixation	Win	True
359.17	0.27	Win2	0.6315999999999999	0.004	Yes	2.876	-0.004	4.0	GoodResponse	1	0.219	358.389	3	37	Target	Win	True
359.389	0.3	Win2	0.6315999999999999	0.004	Yes	2.876	-0.004	4.0	GoodResponse	1	0.219	n/a	3	37	ButtonPress	Win	True
359.455	0.43	Win2	0.6315999999999999	n/a	Yes	2.876	n/a	n/a	GoodResponse	1	n/a	n/a	3	37	Blank	Win	True
359.872	1.45	Win2	0.6315999999999999	n/a	Yes	2.876	n/a	5.0	GoodResponse	1	0.001	358.873	3	37	Feedback	Win	True
361.327	2.876	Win2	0.6315999999999999	n/a	Yes	2.876	n/a	n/a	GoodResponse	1	0.0	n/a	3	37	ISIslide	Win	True
364.219	0.25	Lose2	0.6409999999999999	0.0	Yes	2.831	0.019	n/a	GoodResponse	0	n/a	n/a	3	38	Cue	AvoidedLoss	True
364.47	3.95	Lose2	0.6409999999999999	0.0	Yes	2.831	0.001	n/a	GoodResponse	0	n/a	n/a	3	38	Fixation	AvoidedLoss	True
368.415	0.28	Lose2	0.6409999999999999	0.004	Yes	2.831	-0.004	4.0	GoodResponse	0	0.217	367.632	3	38	Target	AvoidedLoss	True
368.632	0.3	Lose2	0.6409999999999999	0.004	Yes	2.831	-0.004	4.0	GoodResponse	0	0.217	n/a	3	38	ButtonPress	AvoidedLoss	True
368.699	0.42	Lose2	0.6409999999999999	n/a	Yes	2.831	n/a	n/a	GoodResponse	0	n/a	n/a	3	38	Blank	AvoidedLoss	True
369.117	1.45	Lose2	0.6409999999999999	n/a	Yes	2.831	n/a	5.0	GoodResponse	0	0.024	368.141	3	38	Feedback	AvoidedLoss	True
370.571	2.831	Lose2	0.6409999999999999	n/a	Yes	2.831	n/a	n/a	GoodResponse	0	0.0	n/a	3	38	ISIslide	AvoidedLoss	True
373.43	0.25	Win2	0.65	0.0	Yes	2.97	0.03	n/a	GoodResponse	1	n/a	n/a	4	39	Cue	Win	True
373.68	4.1	Win2	0.65	0.0	Yes	2.97	0.0	n/a	GoodResponse	1	n/a	n/a	4	39	Fixation	Win	True
377.776	0.29	Win2	0.65	0.004	Yes	2.97	-0.004	4.0	GoodResponse	1	0.245	377.021	4	39	Target	Win	True
378.021	0.3	Win2	0.65	0.004	Yes	2.97	-0.004	4.0	GoodResponse	1	0.245	n/a	4	39	ButtonPress	Win	True
378.077	0.41	Win2	0.65	n/a	Yes	2.97	n/a	n/a	GoodResponse	1	n/a	n/a	4	39	Blank	Win	True
378.478	1.45	Win2	0.65	n/a	Yes	2.97	n/a	5.0	GoodResponse	1	0.029	377.507	4	39	Feedback	Win	True
379.932	2.97	Win2	0.65	n/a	Yes	2.97	n/a	n/a	GoodResponse	1	0.0	n/a	4	39	ISIslide	Win	True
382.925	0.25	Win2	0.6585	0.0	Yes	2.725	0.025	n/a	GoodResponse	1	n/a	n/a	5	40	Cue	Win	True
383.175	3.95	Win2	0.6585	0.001	Yes	2.725	0.0	n/a	GoodResponse	1	n/a	n/a	5	40	Fixation	Win	True
387.121	0.3	Win2	0.6585	0.004	Yes	2.725	-0.004	4.0	GoodResponse	1	0.219	386.34	5	40	Target	Win	True
387.34	0.3	Win2	0.6585	0.004	Yes	2.725	-0.004	4.0	GoodResponse	1	0.219	n/a	5	40	ButtonPress	Win	True
387.421	0.4	Win2	0.6585	n/a	Yes	2.725	n/a	n/a	GoodResponse	1	n/a	n/a	5	40	Blank	Win	True
387.823	1.45	Win2	0.6585	n/a	Yes	2.725	n/a	5.0	GoodResponse	1	0.0	386.823	5	40	Feedback	Win	True
389.277	2.725	Win2	0.6585	n/a	Yes	2.725	n/a	n/a	GoodResponse	1	0.0	n/a	5	40	ISIslide	Win	True
392.019	0.25	Win2	0.6667000000000001	0.0	Yes	2.781	0.019	n/a	GoodResponse	1	n/a	n/a	6	41	Cue	Win	True
392.269	3.9	Win2	0.6667000000000001	0.0	Yes	2.781	0.0	n/a	GoodResponse	1	n/a	n/a	6	41	Fixation	Win	True
396.181	0.3	Win2	0.6667000000000001	0.0	Yes	2.781	0.012	4.0	GoodResponse	1	0.261	395.442	6	41	Target	Win	True
396.442	0.3	Win2	0.6667000000000001	0.0	Yes	2.781	0.012	4.0	GoodResponse	1	0.261	n/a	6	41	ButtonPress	Win	True
396.465	0.4	Win2	0.6667000000000001	n/a	Yes	2.781	n/a	n/a	GoodResponse	1	n/a	n/a	6	41	Blank	Win	True
396.866	1.45	Win2	0.6667000000000001	n/a	Yes	2.781	n/a	5.0	GoodResponse	1	0.031	395.897	6	41	Feedback	Win	True
398.321	2.781	Win2	0.6667000000000001	n/a	Yes	2.781	n/a	n/a	GoodResponse	1	0.0	n/a	6	41	ISIslide	Win	True
401.129	0.25	Control	0.6744	0.0	Yes	2.921	0.029	n/a	GoodResponse	0	n/a	n/a	6	42	Cue	Neutral	True
401.38	3.85	Control	0.6744	0.0	Yes	2.921	0.001	n/a	GoodResponse	0	n/a	n/a	6	42	Fixation	Neutral	True
405.225	0.29	Control	0.6744	0.004	Yes	2.921	-0.004	4.0	GoodResponse	0	0.256	404.481	6	42	Target	Neutral	True
405.481	0.3	Control	0.6744	0.004	Yes	2.921	-0.004	4.0	GoodResponse	0	0.256	n/a	6	42	ButtonPress	Neutral	True
405.526	0.41	Control	0.6744	n/a	Yes	2.921	n/a	n/a	GoodResponse	0	n/a	n/a	6	42	Blank	Neutral	True
405.927	1.45	Control	0.6744	n/a	Yes	2.921	n/a	5.0	GoodResponse	0	0.043	404.97	6	42	Feedback	Neutral	True
407.381	2.921	Control	0.6744	n/a	Yes	2.921	n/a	n/a	GoodResponse	0	0.0	n/a	6	42	ISIslide	Neutral	True
410.323	0.25	Win2	0.6818000000000001	0.0	Yes	3.177	0.023	n/a	GoodResponse	1	n/a	n/a	7	43	Cue	Win	True
410.574	4.0	Win2	0.6818000000000001	0.0	Yes	3.177	0.001	n/a	GoodResponse	1	n/a	n/a	7	43	Fixation	Win	True
414.569	0.28	Win2	0.6818000000000001	0.004	Yes	3.177	-0.004	4.0	GoodResponse	1	0.26	413.829	7	43	Target	Win	True
414.829	0.3	Win2	0.6818000000000001	0.004	Yes	3.177	-0.004	4.0	GoodResponse	1	0.26	n/a	7	43	ButtonPress	Win	True
414.854	0.42	Win2	0.6818000000000001	n/a	Yes	3.177	n/a	n/a	GoodResponse	1	n/a	n/a	7	43	Blank	Win	True
415.271	1.45	Win2	0.6818000000000001	n/a	Yes	3.177	n/a	5.0	GoodResponse	1	0.016	414.287	7	43	Feedback	Win	True
416.726	3.177	Win2	0.6818000000000001	n/a	Yes	3.177	n/a	n/a	GoodResponse	1	0.0	n/a	7	43	ISIslide	Win	True
419.919	0.25	Win2	0.6889	0.0	Yes	2.981	0.019	n/a	GoodResponse	1	n/a	n/a	8	44	Cue	Win	True
420.169	4.0	Win2	0.6889	0.0	Yes	2.981	0.0	n/a	GoodResponse	1	n/a	n/a	8	44	Fixation	Win	True
424.165	0.27	Win2	0.6889	0.004	Yes	2.981	-0.004	4.0	GoodResponse	1	0.228	423.393	8	44	Target	Win	True
424.393	0.3	Win2	0.6889	0.004	Yes	2.981	-0.004	4.0	GoodResponse	1	0.228	n/a	8	44	ButtonPress	Win	True
424.449	0.43	Win2	0.6889	n/a	Yes	2.981	n/a	n/a	GoodResponse	1	n/a	n/a	8	44	Blank	Win	True
424.867	1.45	Win2	0.6889	n/a	Yes	2.981	n/a	5.0	GoodResponse	1	0.03	423.897	8	44	Feedback	Win	True
426.321	2.981	Win2	0.6889	n/a	Yes	2.981	n/a	n/a	GoodResponse	1	0.0	n/a	8	44	ISIslide	Win	True
429.33	0.25	Control	0.6957	0.0	Yes	2.87	0.03	n/a	GoodResponse	0	n/a	n/a	8	45	Cue	Neutral	True
429.581	4.1	Control	0.6957	0.0	Yes	2.87	0.001	n/a	GoodResponse	0	n/a	n/a	8	45	Fixation	Neutral	True
433.676	0.26	Control	0.6957	0.004	Yes	2.87	-0.004	4.0	GoodResponse	0	0.232	432.908	8	45	Target	Neutral	True
433.908	0.3	Control	0.6957	0.004	Yes	2.87	-0.004	4.0	GoodResponse	0	0.232	n/a	8	45	ButtonPress	Neutral	True
433.944	0.44	Control	0.6957	n/a	Yes	2.87	n/a	n/a	GoodResponse	0	n/a	n/a	8	45	Blank	Neutral	True
434.379	1.45	Control	0.6957	n/a	Yes	2.87	n/a	5.0	GoodResponse	0	0.029	433.408	8	45	Feedback	Neutral	True
435.833	2.87	Control	0.6957	n/a	Yes	2.87	n/a	n/a	GoodResponse	0	0.0	n/a	8	45	ISIslide	Neutral	True
438.725	0.25	Lose2	0.6809000000000001	0.0	No	3.375	0.025	n/a	NoResponse	-1	n/a	n/a	7	46	Cue	Loss	True
438.976	4.0	Lose2	0.6809000000000001	0.0	No	3.375	0.001	n/a	NoResponse	-1	n/a	n/a	7	46	Fixation	Loss	True
442.971	0.25	Lose2	0.6809000000000001	0.004	No	3.375	-0.004	4.0	NoResponse	-1	0.288	442.259	7	46	Target	Loss	True
443.222	0.45	Lose2	0.6809000000000001	n/a	No	3.375	n/a	n/a	NoResponse	-1	n/a	n/a	7	46	Blank	Loss	True
443.259	0.3	Lose2	0.6809000000000001	0.004	No	3.375	-0.004	4.0	NoResponse	-1	0.288	n/a	7	46	ButtonPress	Loss	True
443.673	1.45	Lose2	0.6809000000000001	n/a	No	3.375	n/a	5.0	NoResponse	-1	0.008	442.681	7	46	Feedback	Loss	True
445.127	3.375	Lose2	0.6809000000000001	n/a	No	3.375	n/a	n/a	NoResponse	-1	0.0	n/a	7	46	ISIslide	Loss	True
448.521	0.25	Lose2	0.6875	0.0	Yes	2.679	0.021	n/a	GoodResponse	0	n/a	n/a	7	47	Cue	AvoidedLoss	True
448.772	4.0	Lose2	0.6875	0.0	Yes	2.679	0.001	n/a	GoodResponse	0	n/a	n/a	7	47	Fixation	AvoidedLoss	True
452.767	0.24	Lose2	0.6875	0.004	Yes	2.679	-0.004	4.0	GoodResponse	0	0.207	451.974	7	47	Target	AvoidedLoss	True
452.974	0.3	Lose2	0.6875	0.004	Yes	2.679	-0.004	4.0	GoodResponse	0	0.207	n/a	7	47	ButtonPress	AvoidedLoss	True
453.018	0.46	Lose2	0.6875	n/a	Yes	2.679	n/a	n/a	GoodResponse	0	n/a	n/a	7	47	Blank	AvoidedLoss	True
453.469	1.45	Lose2	0.6875	n/a	Yes	2.679	n/a	5.0	GoodResponse	0	0.013	452.482	7	47	Feedback	AvoidedLoss	True
454.923	2.679	Lose2	0.6875	n/a	Yes	2.679	n/a	n/a	GoodResponse	0	0.0	n/a	7	47	ISIslide	AvoidedLoss	True
457.631	0.25	Lose2	0.6939	0.001	Yes	3.019	0.031	n/a	GoodResponse	0	n/a	n/a	7	48	Cue	AvoidedLoss	True
457.882	3.95	Lose2	0.6939	0.0	Yes	3.019	0.001	n/a	GoodResponse	0	n/a	n/a	7	48	Fixation	AvoidedLoss	True
461.827	0.23	Lose2	0.6939	0.004	Yes	3.019	-0.004	4.0	GoodResponse	0	0.196	461.023	7	48	Target	AvoidedLoss	True
462.023	0.3	Lose2	0.6939	0.004	Yes	3.019	-0.004	4.0	GoodResponse	0	0.196	n/a	7	48	ButtonPress	AvoidedLoss	True
462.061	0.47	Lose2	0.6939	n/a	Yes	3.019	n/a	n/a	GoodResponse	0	n/a	n/a	7	48	Blank	AvoidedLoss	True
462.529	1.45	Lose2	0.6939	n/a	Yes	3.019	n/a	5.0	GoodResponse	0	0.026	461.555	7	48	Feedback	AvoidedLoss	True
463.984	3.019	Lose2	0.6939	n/a	Yes	3.019	n/a	n/a	GoodResponse	0	0.0	n/a	7	48	ISIslide	AvoidedLoss	True
467.026	0.25	Control	0.7	0.0	Yes	2.874	0.026	n/a	GoodResponse	0	n/a	n/a	7	49	Cue	Neutral	True
467.277	4.0	Control	0.7	0.0	Yes	2.874	0.001	n/a	GoodResponse	0	n/a	n/a	7	49	Fixation	Neutral	True
471.272	0.22	Control	0.7	0.004	Yes	2.874	-0.004	4.0	GoodResponse	0	0.212	470.484	7	49	Target	Neutral	True
471.484	0.3	Control	0.7	0.004	Yes	2.874	-0.004	4.0	GoodResponse	0	0.212	n/a	7	49	ButtonPress	Neutral	True
471.506	0.48	Control	0.7	n/a	Yes	2.874	n/a	n/a	GoodResponse	0	n/a	n/a	7	49	Blank	Neutral	True
471.974	1.45	Control	0.7	n/a	Yes	2.874	n/a	5.0	GoodResponse	0	0.044	471.018	7	49	Feedback	Neutral	True
473.429	2.874	Control	0.7	n/a	Yes	2.874	n/a	n/a	GoodResponse	0	0.0	n/a	7	49	ISIslide	Neutral	True
476.321	0.25	Control	0.6862999999999999	0.0	No	2.779	0.021	n/a	NoResponse	0	n/a	n/a	7	50	Cue	Neutral	True
476.571	4.0	Control	0.6862999999999999	0.0	No	2.779	0.0	n/a	NoResponse	0	n/a	n/a	7	50	Fixation	Neutral	True
480.567	0.21	Control	0.6862999999999999	0.004	No	2.779	-0.004	4.0	NoResponse	0	0.227	479.794	7	50	Target	Neutral	True
480.784	0.49	Control	0.6862999999999999	n/a	No	2.779	n/a	n/a	NoResponse	0	n/a	n/a	7	50	Blank	Neutral	True
480.794	0.3	Control	0.6862999999999999	0.004	No	2.779	-0.004	4.0	NoResponse	0	0.227	n/a	7	50	ButtonPress	Neutral	True
481.269	1.45	Control	0.6862999999999999	n/a	No	2.779	n/a	5.0	NoResponse	0	0.017	480.286	7	50	Feedback	Neutral	True
482.723	2.779	Control	0.6862999999999999	n/a	No	2.779	n/a	n/a	NoResponse	0	0.0	n/a	7	50	ISIslide	Neutral	True
485.515	0.25	Control	0.6731	0.0	No	2.735	0.015	n/a	NoResponse	0	n/a	n/a	7	51	Cue	Neutral	True
485.766	3.95	Control	0.6731	0.0	No	2.735	0.001	n/a	NoResponse	0	n/a	n/a	7	51	Fixation	Neutral	True
489.711	0.2	Control	0.6731	0.004	No	2.735	-0.004	4.0	NoResponse	0	0.229	488.94	7	51	Target	Neutral	True
489.911	0.5	Control	0.6731	n/a	No	2.735	n/a	n/a	NoResponse	0	n/a	n/a	7	51	Blank	Neutral	True
489.94	0.3	Control	0.6731	0.004	No	2.735	-0.004	4.0	NoResponse	0	0.229	n/a	7	51	ButtonPress	Neutral	True
490.413	1.45	Control	0.6731	n/a	No	2.735	n/a	5.0	NoResponse	0	0.044	489.457	7	51	Feedback	Neutral	True
491.867	2.735	Control	0.6731	n/a	No	2.735	n/a	n/a	NoResponse	0	0.0	n/a	7	51	ISIslide	Neutral	True
494.625	0.25	Control	0.6604000000000001	0.0	No	2.625	0.025	n/a	NoResponse	0	n/a	n/a	7	52	Cue	Neutral	False
494.876	4.05	Control	0.6604000000000001	0.0	No	2.625	0.001	4.0	NoResponse	0	3.676	497.552	7	52	Fixation	Neutral	False
498.552	0.3	Control	0.6604000000000001	0.0	No	2.625	0.001	4.0	NoResponse	0	3.676	n/a	7	52	ButtonPress	Neutral	False
498.922	0.19	Control	0.6604000000000001	0.003	No	2.625	-0.003	4.0	NoResponse	0	0.251	498.173	7	52	Target	Neutral	False
499.122	0.51	Control	0.6604000000000001	n/a	No	2.625	n/a	n/a	NoResponse	0	n/a	n/a	7	52	Blank	Neutral	False
499.173	0.3	Control	0.6604000000000001	0.003	No	2.625	-0.003	4.0	NoResponse	0	0.251	n/a	7	52	ButtonPress	Neutral	False
499.624	1.45	Control	0.6604000000000001	n/a	No	2.625	n/a	5.0	NoResponse	0	0.007	498.631	7	52	Feedback	Neutral	False
501.078	2.625	Control	0.6604000000000001	n/a	No	2.625	n/a	n/a	NoResponse	0	0.0	n/a	7	52	ISIslide	Neutral	False
503.719	0.25	Win2	0.6481	0.0	No	2.931	0.019	n/a	NoResponse	0	n/a	n/a	7	53	Cue	MissedWin	True
503.97	4.05	Win2	0.6481	0.0	No	2.931	0.001	n/a	NoResponse	0	n/a	n/a	7	53	Fixation	MissedWin	True
508.015	0.19	Win2	0.6481	0.004	No	2.931	-0.004	4.0	NoResponse	0	0.361	507.376	7	53	Target	MissedWin	True
508.216	0.51	Win2	0.6481	n/a	No	2.931	n/a	n/a	NoResponse	0	n/a	n/a	7	53	Blank	MissedWin	True
508.376	0.3	Win2	0.6481	0.004	No	2.931	-0.004	4.0	NoResponse	0	0.361	n/a	7	53	ButtonPress	MissedWin	True
508.717	1.45	Win2	0.6481	n/a	No	2.931	n/a	5.0	NoResponse	0	0.032	507.749	7	53	Feedback	MissedWin	True
510.172	2.931	Win2	0.6481	n/a	No	2.931	n/a	n/a	NoResponse	0	0.0	n/a	7	53	ISIslide	MissedWin	True
513.131	0.25	Win2	0.6364	0.0	No	2.719	0.031	n/a	NoResponse	0	n/a	n/a	7	54	Cue	MissedWin	True
513.381	3.95	Win2	0.6364	0.001	No	2.719	0.0	n/a	NoResponse	0	n/a	n/a	7	54	Fixation	MissedWin	True
517.327	0.2	Win2	0.6364	0.004	No	2.719	-0.004	4.0	NoResponse	0	0.234	516.561	7	54	Target	MissedWin	True
517.527	0.5	Win2	0.6364	n/a	No	2.719	n/a	n/a	NoResponse	0	n/a	n/a	7	54	Blank	MissedWin	True
517.561	0.3	Win2	0.6364	0.004	No	2.719	-0.004	4.0	NoResponse	0	0.234	n/a	7	54	ButtonPress	MissedWin	True
518.029	1.45	Win2	0.6364	n/a	No	2.719	n/a	5.0	NoResponse	0	0.037	517.066	7	54	Feedback	MissedWin	True
519.483	2.719	Win2	0.6364	n/a	No	2.719	n/a	n/a	NoResponse	0	0.0	n/a	7	54	ISIslide	MissedWin	True
522.225	0.25	Control	0.6429	0.0	Yes	3.025	0.025	n/a	GoodResponse	0	n/a	n/a	7	55	Cue	Neutral	True
522.475	3.95	Control	0.6429	0.0	Yes	3.025	0.0	n/a	GoodResponse	0	n/a	n/a	7	55	Fixation	Neutral	True
526.437	0.21	Control	0.6429	0.0	Yes	3.025	0.012	4.0	GoodResponse	0	0.199	525.636	7	55	Target	Neutral	True
526.636	0.3	Control	0.6429	0.0	Yes	3.025	0.012	4.0	GoodResponse	0	0.199	n/a	7	55	ButtonPress	Neutral	True
526.638	0.49	Control	0.6429	n/a	Yes	3.025	n/a	n/a	GoodResponse	0	n/a	n/a	7	55	Blank	Neutral	True
527.123	1.45	Control	0.6429	n/a	Yes	3.025	n/a	5.0	GoodResponse	0	0.016	526.139	7	55	Feedback	Neutral	True
528.577	3.025	Control	0.6429	n/a	Yes	3.025	n/a	n/a	GoodResponse	0	0.0	n/a	7	55	ISIslide	Neutral	True
531.619	0.25	Control	0.6315999999999999	0.0	No	2.831	0.019	n/a	LatePress	0	n/a	n/a	7	56	Cue	Neutral	True
531.87	3.95	Control	0.6315999999999999	0.0	No	2.831	0.001	n/a	LatePress	0	n/a	n/a	7	56	Fixation	Neutral	True
535.815	0.22	Control	0.6315999999999999	0.004	No	2.831	-0.004	4.0	LatePress	0	0.223	535.038	7	56	Target	Neutral	True
536.038	0.3	Control	0.6315999999999999	0.004	No	2.831	-0.004	4.0	LatePress	0	0.223	n/a	7	56	ButtonPress	Neutral	True
536.049	0.48	Control	0.6315999999999999	n/a	No	2.831	n/a	n/a	LatePress	0	n/a	n/a	7	56	Blank	Neutral	True
536.517	1.45	Control	0.6315999999999999	n/a	No	2.831	n/a	5.0	LatePress	0	0.037	535.554	7	56	Feedback	Neutral	True
537.972	2.831	Control	0.6315999999999999	n/a	No	2.831	n/a	n/a	LatePress	0	0.0	n/a	7	56	ISIslide	Neutral	True
540.813	0.25	Control	0.6207	0.001	No	3.487	0.013	n/a	LatePress	0	n/a	n/a	7	57	Cue	Neutral	True
541.064	4.0	Control	0.6207	0.0	No	3.487	0.001	n/a	LatePress	0	n/a	n/a	7	57	Fixation	Neutral	True
545.059	0.23	Control	0.6207	0.004	No	3.487	-0.004	4.0	LatePress	0	0.23	544.289	7	57	Target	Neutral	True
545.289	0.3	Control	0.6207	0.004	No	3.487	-0.004	4.0	LatePress	0	0.23	n/a	7	57	ButtonPress	Neutral	True
545.294	0.47	Control	0.6207	n/a	No	3.487	n/a	n/a	LatePress	0	n/a	n/a	7	57	Blank	Neutral	True
545.762	1.45	Control	0.6207	n/a	No	3.487	n/a	5.0	LatePress	0	0.011	544.773	7	57	Feedback	Neutral	True
547.216	3.487	Control	0.6207	n/a	No	3.487	n/a	n/a	LatePress	0	0.0	n/a	7	57	ISIslide	Neutral	True
550.726	0.25	Win2	0.6102000000000001	0.001	No	2.724	0.026	n/a	NoResponse	0	n/a	n/a	7	58	Cue	MissedWin	True
550.977	4.05	Win2	0.6102000000000001	0.0	No	2.724	0.001	n/a	NoResponse	0	n/a	n/a	7	58	Fixation	MissedWin	True
555.023	0.24	Win2	0.6102000000000001	0.003	No	2.724	-0.003	4.0	NoResponse	0	0.469	554.492	7	58	Target	MissedWin	True
555.273	0.46	Win2	0.6102000000000001	n/a	No	2.724	n/a	n/a	NoResponse	0	n/a	n/a	7	58	Blank	MissedWin	True
555.492	0.3	Win2	0.6102000000000001	0.003	No	2.724	-0.003	4.0	NoResponse	0	0.469	n/a	7	58	ButtonPress	MissedWin	True
555.725	1.45	Win2	0.6102000000000001	n/a	No	2.724	n/a	5.0	NoResponse	0	0.048	554.773	7	58	Feedback	MissedWin	True
557.179	2.724	Win2	0.6102000000000001	n/a	No	2.724	n/a	n/a	NoResponse	0	0.0	n/a	7	58	ISIslide	MissedWin	True
559.921	0.25	Lose2	0.6167	0.0	Yes	2.679	0.021	n/a	GoodResponse	0	n/a	n/a	7	59	Cue	AvoidedLoss	True
560.171	4.0	Lose2	0.6167	0.0	Yes	2.679	0.0	n/a	GoodResponse	0	n/a	n/a	7	59	Fixation	AvoidedLoss	True
564.167	0.25	Lose2	0.6167	0.004	Yes	2.679	-0.004	4.0	GoodResponse	0	0.208	563.375	7	59	Target	AvoidedLoss	True
564.375	0.3	Lose2	0.6167	0.004	Yes	2.679	-0.004	4.0	GoodResponse	0	0.208	n/a	7	59	ButtonPress	AvoidedLoss	True
564.417	0.45	Lose2	0.6167	n/a	Yes	2.679	n/a	n/a	GoodResponse	0	n/a	n/a	7	59	Blank	AvoidedLoss	True
564.869	1.45	Lose2	0.6167	n/a	Yes	2.679	n/a	5.0	GoodResponse	0	0.025	563.894	7	59	Feedback	AvoidedLoss	True
566.323	2.679	Lose2	0.6167	n/a	Yes	2.679	n/a	n/a	GoodResponse	0	0.0	n/a	7	59	ISIslide	AvoidedLoss	True
569.014	0.25	Control	0.623	0.001	Yes	2.686	0.014	n/a	GoodResponse	0	n/a	n/a	7	60	Cue	Neutral	True
569.265	4.0	Control	0.623	0.0	Yes	2.686	0.001	n/a	GoodResponse	0	n/a	n/a	7	60	Fixation	Neutral	True
573.26	0.26	Control	0.623	0.004	Yes	2.686	-0.004	4.0	GoodResponse	0	0.222	572.482	7	60	Target	Neutral	True
573.482	0.3	Control	0.623	0.004	Yes	2.686	-0.004	4.0	GoodResponse	0	0.222	n/a	7	60	ButtonPress	Neutral	True
573.528	0.44	Control	0.623	n/a	Yes	2.686	n/a	n/a	GoodResponse	0	n/a	n/a	7	60	Blank	Neutral	True
573.963	1.45	Control	0.623	n/a	Yes	2.686	n/a	5.0	GoodResponse	0	0.007	572.97	7	60	Feedback	Neutral	True
575.417	2.686	Control	0.623	n/a	Yes	2.686	n/a	n/a	GoodResponse	0	0.0	n/a	7	60	ISIslide	Neutral	True
578.125	0.25	Lose2	0.6129	0.0	No	2.975	0.025	n/a	NoResponse	-1	n/a	n/a	6	61	Cue	Loss	True
578.376	4.0	Lose2	0.6129	0.0	No	2.975	0.001	n/a	NoResponse	-1	n/a	n/a	6	61	Fixation	Loss	True
582.371	0.27	Lose2	0.6129	0.004	No	2.975	-0.004	4.0	NoResponse	-1	0.295	581.666	6	61	Target	Loss	True
582.655	0.43	Lose2	0.6129	n/a	No	2.975	n/a	n/a	NoResponse	-1	n/a	n/a	6	61	Blank	Loss	True
582.666	0.3	Lose2	0.6129	0.004	No	2.975	-0.004	4.0	NoResponse	-1	0.295	n/a	6	61	ButtonPress	Loss	True
583.073	1.45	Lose2	0.6129	n/a	No	2.975	n/a	5.0	NoResponse	-1	0.017	582.09	6	61	Feedback	Loss	True
584.527	2.975	Lose2	0.6129	n/a	No	2.975	n/a	n/a	NoResponse	-1	0.0	n/a	6	61	ISIslide	Loss	True
587.52	0.25	Lose2	0.619	0.0	Yes	2.88	0.02	n/a	GoodResponse	0	n/a	n/a	6	62	Cue	AvoidedLoss	True
587.771	3.9	Lose2	0.619	0.0	Yes	2.88	0.001	n/a	GoodResponse	0	n/a	n/a	6	62	Fixation	AvoidedLoss	True
591.665	0.28	Lose2	0.619	0.005	Yes	2.88	-0.005	4.0	GoodResponse	0	0.202	590.867	6	62	Target	AvoidedLoss	True
591.867	0.3	Lose2	0.619	0.005	Yes	2.88	-0.005	4.0	GoodResponse	0	0.202	n/a	6	62	ButtonPress	AvoidedLoss	True
591.95	0.42	Lose2	0.619	n/a	Yes	2.88	n/a	n/a	GoodResponse	0	n/a	n/a	6	62	Blank	AvoidedLoss	True
592.368	1.45	Lose2	0.619	n/a	Yes	2.88	n/a	5.0	GoodResponse	0	0.039	591.407	6	62	Feedback	AvoidedLoss	True
593.822	2.88	Lose2	0.619	n/a	Yes	2.88	n/a	n/a	GoodResponse	0	0.0	n/a	6	62	ISIslide	AvoidedLoss	True
596.731	0.25	Lose2	0.6093999999999999	0.0	No	2.619	0.031	n/a	NoResponse	-1	n/a	n/a	5	63	Cue	Loss	False
596.981	4.05	Lose2	0.6093999999999999	0.0	No	2.619	0.0	n/a	NoResponse	-1	n/a	n/a	5	63	Fixation	Loss	False
601.027	0.29	Lose2	0.6093999999999999	0.004	No	2.619	-0.004	n/a	NoResponse	-1	n/a	n/a	5	63	Target	Loss	False
601.328	0.41	Lose2	0.6093999999999999	n/a	No	2.619	n/a	n/a	NoResponse	-1	n/a	n/a	5	63	Blank	Loss	False
601.729	1.45	Lose2	0.6093999999999999	n/a	No	2.619	n/a	5.0	NoResponse	-1	0.043	600.772	5	63	Feedback	Loss	False
603.183	2.619	Lose2	0.6093999999999999	n/a	No	2.619	n/a	n/a	NoResponse	-1	0.0	n/a	5	63	ISIslide	Loss	False
605.824	0.25	Win2	0.6154	0.001	Yes	3.126	0.024	n/a	GoodResponse	1	n/a	n/a	6	64	Cue	Win	True
606.075	4.15	Win2	0.6154	0.0	Yes	3.126	0.001	n/a	GoodResponse	1	n/a	n/a	6	64	Fixation	Win	True
610.221	0.3	Win2	0.6154	0.003	Yes	3.126	-0.003	4.0	GoodResponse	1	0.213	609.434	6	64	Target	Win	True
610.434	0.3	Win2	0.6154	0.003	Yes	3.126	-0.003	4.0	GoodResponse	1	0.213	n/a	6	64	ButtonPress	Win	True
610.522	0.4	Win2	0.6154	n/a	Yes	3.126	n/a	n/a	GoodResponse	1	n/a	n/a	6	64	Blank	Win	True
610.923	1.45	Win2	0.6154	n/a	Yes	3.126	n/a	5.0	GoodResponse	1	0.02	609.943	6	64	Feedback	Win	True
612.377	3.126	Win2	0.6154	n/a	Yes	3.126	n/a	n/a	GoodResponse	1	0.0	n/a	6	64	ISIslide	Win	True
615.52	0.25	Control	0.6212	0.0	Yes	2.78	0.02	n/a	GoodResponse	0	n/a	n/a	6	65	Cue	Neutral	True
615.771	4.0	Control	0.6212	0.0	Yes	2.78	0.001	n/a	GoodResponse	0	n/a	n/a	6	65	Fixation	Neutral	True
619.766	0.31	Control	0.6212	0.004	Yes	2.78	-0.004	4.0	GoodResponse	0	0.219	618.985	6	65	Target	Neutral	True
619.985	0.3	Control	0.6212	0.004	Yes	2.78	-0.004	4.0	GoodResponse	0	0.219	n/a	6	65	ButtonPress	Neutral	True
620.084	0.39	Control	0.6212	n/a	Yes	2.78	n/a	n/a	GoodResponse	0	n/a	n/a	6	65	Blank	Neutral	True
620.468	1.45	Control	0.6212	n/a	Yes	2.78	n/a	5.0	GoodResponse	0	0.036	619.504	6	65	Feedback	Neutral	True
621.923	2.78	Control	0.6212	n/a	Yes	2.78	n/a	n/a	GoodResponse	0	0.0	n/a	6	65	ISIslide	Neutral	True
624.731	0.25	Win2	0.6269	0.0	Yes	2.769	0.031	n/a	GoodResponse	1	n/a	n/a	7	66	Cue	Win	True
624.982	3.9	Win2	0.6269	0.0	Yes	2.769	0.001	n/a	GoodResponse	1	n/a	n/a	7	66	Fixation	Win	True
628.877	0.32	Win2	0.6269	0.004	Yes	2.769	-0.004	4.0	GoodResponse	1	0.214	628.091	7	66	Target	Win	True
629.091	0.3	Win2	0.6269	0.004	Yes	2.769	-0.004	4.0	GoodResponse	1	0.214	n/a	7	66	ButtonPress	Win	True
629.211	0.38	Win2	0.6269	n/a	Yes	2.769	n/a	n/a	GoodResponse	1	n/a	n/a	7	66	Blank	Win	True
629.579	1.45	Win2	0.6269	n/a	Yes	2.769	n/a	5.0	GoodResponse	1	0.047	628.626	7	66	Feedback	Win	True
631.033	2.769	Win2	0.6269	n/a	Yes	2.769	n/a	n/a	GoodResponse	1	0.0	n/a	7	66	ISIslide	Win	True
633.825	0.25	Control	0.6175999999999999	0.0	No	2.725	0.025	n/a	NoResponse	0	n/a	n/a	7	67	Cue	Neutral	True
634.076	3.95	Control	0.6175999999999999	0.0	No	2.725	0.001	n/a	NoResponse	0	n/a	n/a	7	67	Fixation	Neutral	True
638.021	0.33	Control	0.6175999999999999	0.004	No	2.725	-0.004	4.0	NoResponse	0	0.349	637.37	7	67	Target	Neutral	True
638.355	0.37	Control	0.6175999999999999	n/a	No	2.725	n/a	n/a	NoResponse	0	n/a	n/a	7	67	Blank	Neutral	True
638.37	0.3	Control	0.6175999999999999	0.004	No	2.725	-0.004	4.0	NoResponse	0	0.349	n/a	7	67	ButtonPress	Neutral	True
638.723	1.45	Control	0.6175999999999999	n/a	No	2.725	n/a	5.0	NoResponse	0	0.025	637.748	7	67	Feedback	Neutral	True
640.177	2.725	Control	0.6175999999999999	n/a	No	2.725	n/a	n/a	NoResponse	0	0.0	n/a	7	67	ISIslide	Neutral	True
642.919	0.25	Win2	0.6232	0.0	Yes	3.081	0.019	n/a	GoodResponse	1	n/a	n/a	8	68	Cue	Win	True
643.169	4.0	Win2	0.6232	0.001	Yes	3.081	0.0	n/a	GoodResponse	1	n/a	n/a	8	68	Fixation	Win	True
647.165	0.34	Win2	0.6232	0.004	Yes	3.081	-0.004	4.0	GoodResponse	1	0.28	646.445	8	68	Target	Win	True
647.445	0.3	Win2	0.6232	0.004	Yes	3.081	-0.004	4.0	GoodResponse	1	0.28	n/a	8	68	ButtonPress	Win	True
647.516	0.36	Win2	0.6232	n/a	Yes	3.081	n/a	n/a	GoodResponse	1	n/a	n/a	8	68	Blank	Win	True
647.867	1.45	Win2	0.6232	n/a	Yes	3.081	n/a	5.0	GoodResponse	1	0.008	646.875	8	68	Feedback	Win	True
649.321	3.081	Win2	0.6232	n/a	Yes	3.081	n/a	n/a	GoodResponse	1	0.0	n/a	8	68	ISIslide	Win	True
652.431	0.25	Win2	0.6143	0.0	No	3.219	0.031	n/a	NoResponse	0	n/a	n/a	8	69	Cue	MissedWin	True
652.681	3.95	Win2	0.6143	0.0	No	3.219	0.0	n/a	NoResponse	0	n/a	n/a	8	69	Fixation	MissedWin	True
656.643	0.35	Win2	0.6143	0.0	No	3.219	0.012	4.0	NoResponse	0	0.372	656.015	8	69	Target	MissedWin	True
656.977	0.35	Win2	0.6143	n/a	No	3.219	n/a	n/a	NoResponse	0	n/a	n/a	8	69	Blank	MissedWin	True
657.015	0.3	Win2	0.6143	0.0	No	3.219	0.012	4.0	NoResponse	0	0.372	n/a	8	69	ButtonPress	MissedWin	True
657.328	1.45	Win2	0.6143	n/a	No	3.219	n/a	5.0	NoResponse	0	0.009	656.337	8	69	Feedback	MissedWin	True
658.783	3.219	Win2	0.6143	n/a	No	3.219	n/a	n/a	NoResponse	0	0.0	n/a	8	69	ISIslide	MissedWin	True
662.026	0.25	Lose2	0.6197	0.0	Yes	3.024	0.026	n/a	GoodResponse	0	n/a	n/a	8	70	Cue	AvoidedLoss	True
662.277	4.05	Lose2	0.6197	0.0	Yes	3.024	0.001	n/a	GoodResponse	0	n/a	n/a	8	70	Fixation	AvoidedLoss	True
666.322	0.36	Lose2	0.6197	0.004	Yes	3.024	-0.004	4.0	GoodResponse	0	0.216	665.538	8	70	Target	AvoidedLoss	True
666.538	0.3	Lose2	0.6197	0.004	Yes	3.024	-0.004	4.0	GoodResponse	0	0.216	n/a	8	70	ButtonPress	AvoidedLoss	True
666.69	0.34	Lose2	0.6197	n/a	Yes	3.024	n/a	n/a	GoodResponse	0	n/a	n/a	8	70	Blank	AvoidedLoss	True
667.024	1.45	Lose2	0.6197	n/a	Yes	3.024	n/a	5.0	GoodResponse	0	0.016	666.04	8	70	Feedback	AvoidedLoss	True
668.478	3.024	Lose2	0.6197	n/a	Yes	3.024	n/a	n/a	GoodResponse	0	0.0	n/a	8	70	ISIslide	AvoidedLoss	True
671.521	0.25	Win2	0.6111	0.0	No	2.729	0.021	n/a	NoResponse	0	n/a	n/a	8	71	Cue	MissedWin	False
671.772	4.05	Win2	0.6111	0.0	No	2.729	0.001	n/a	NoResponse	0	n/a	n/a	8	71	Fixation	MissedWin	False
675.817	0.37	Win2	0.6111	0.004	No	2.729	-0.004	n/a	NoResponse	0	n/a	n/a	8	71	Target	MissedWin	False
676.202	0.33	Win2	0.6111	n/a	No	2.729	n/a	n/a	NoResponse	0	n/a	n/a	8	71	Blank	MissedWin	False
676.519	1.45	Win2	0.6111	n/a	No	2.729	n/a	5.0	NoResponse	0	0.033	675.552	8	71	Feedback	MissedWin	False
677.974	2.729	Win2	0.6111	n/a	No	2.729	n/a	n/a	NoResponse	0	0.0	n/a	8	71	ISIslide	MissedWin	False
680.715	0.25	Win2	0.6164000000000001	0.0	Yes	2.785	0.015	n/a	GoodResponse	1	n/a	n/a	9	72	Cue	Win	True
680.966	4.1	Win2	0.6164000000000001	0.0	Yes	2.785	0.001	n/a	GoodResponse	1	n/a	n/a	9	72	Fixation	Win	True
685.061	0.38	Win2	0.6164000000000001	0.004	Yes	2.785	-0.004	4.0	GoodResponse	1	0.273	684.334	9	72	Target	Win	True
685.334	0.3	Win2	0.6164000000000001	0.004	Yes	2.785	-0.004	4.0	GoodResponse	1	0.273	n/a	9	72	ButtonPress	Win	True
685.446	0.32	Win2	0.6164000000000001	n/a	Yes	2.785	n/a	n/a	GoodResponse	1	n/a	n/a	9	72	Blank	Win	True
685.764	1.45	Win2	0.6164000000000001	n/a	Yes	2.785	n/a	5.0	GoodResponse	1	0.008	684.772	9	72	Feedback	Win	True
687.218	2.785	Win2	0.6164000000000001	n/a	Yes	2.785	n/a	n/a	GoodResponse	1	0.0	n/a	9	72	ISIslide	Win	True
690.026	0.25	Win2	0.6081	0.0	No	2.674	0.026	n/a	NoResponse	0	n/a	n/a	9	73	Cue	MissedWin	False
690.277	4.0	Win2	0.6081	0.0	No	2.674	0.001	n/a	NoResponse	0	n/a	n/a	9	73	Fixation	MissedWin	False
694.272	0.39	Win2	0.6081	0.004	No	2.674	-0.004	n/a	NoResponse	0	n/a	n/a	9	73	Target	MissedWin	False
694.673	0.31	Win2	0.6081	n/a	No	2.674	n/a	n/a	NoResponse	0	n/a	n/a	9	73	Blank	MissedWin	False
694.974	1.45	Win2	0.6081	n/a	No	2.674	n/a	5.0	NoResponse	0	0.016	693.99	9	73	Feedback	MissedWin	False
696.429	2.674	Win2	0.6081	n/a	No	2.674	n/a	n/a	NoResponse	0	0.0	n/a	9	73	ISIslide	MissedWin	False
699.12	0.25	Lose2	0.6133	0.0	Yes	2.63	0.02	n/a	GoodResponse	0	n/a	n/a	9	74	Cue	AvoidedLoss	True
699.371	4.05	Lose2	0.6133	0.0	Yes	2.63	0.001	n/a	GoodResponse	0	n/a	n/a	9	74	Fixation	AvoidedLoss	True
703.416	0.4	Lose2	0.6133	0.004	Yes	2.63	-0.004	4.0	GoodResponse	0	0.199	702.615	9	74	Target	AvoidedLoss	True
703.615	0.3	Lose2	0.6133	0.004	Yes	2.63	-0.004	4.0	GoodResponse	0	0.199	n/a	9	74	ButtonPress	AvoidedLoss	True
703.817	0.3	Lose2	0.6133	n/a	Yes	2.63	n/a	n/a	GoodResponse	0	n/a	n/a	9	74	Blank	AvoidedLoss	True
704.118	1.45	Lose2	0.6133	n/a	Yes	2.63	n/a	5.0	GoodResponse	0	0.043	703.161	9	74	Feedback	AvoidedLoss	True
705.573	2.63	Lose2	0.6133	n/a	Yes	2.63	n/a	n/a	GoodResponse	0	0.0	n/a	9	74	ISIslide	AvoidedLoss	True
708.231	0.25	Lose2	0.6184000000000001	0.0	Yes	2.919	0.031	n/a	GoodResponse	0	n/a	n/a	9	75	Cue	AvoidedLoss	True
708.481	3.95	Lose2	0.6184000000000001	0.001	Yes	2.919	0.0	n/a	GoodResponse	0	n/a	n/a	9	75	Fixation	AvoidedLoss	True
712.427	0.41	Lose2	0.6184000000000001	0.004	Yes	2.919	-0.004	4.0	GoodResponse	0	0.227	711.654	9	75	Target	AvoidedLoss	True
712.654	0.3	Lose2	0.6184000000000001	0.004	Yes	2.919	-0.004	4.0	GoodResponse	0	0.227	n/a	9	75	ButtonPress	AvoidedLoss	True
712.844	0.29	Lose2	0.6184000000000001	n/a	Yes	2.919	n/a	n/a	GoodResponse	0	n/a	n/a	9	75	Blank	AvoidedLoss	True
713.129	1.45	Lose2	0.6184000000000001	n/a	Yes	2.919	n/a	5.0	GoodResponse	0	0.008	712.137	9	75	Feedback	AvoidedLoss	True
714.583	2.919	Lose2	0.6184000000000001	n/a	Yes	2.919	n/a	n/a	GoodResponse	0	0.0	n/a	9	75	ISIslide	AvoidedLoss	True
717.525	0.25	Control	0.6234000000000001	0.0	Yes	3.225	0.025	n/a	GoodResponse	0	n/a	n/a	9	76	Cue	Neutral	True
717.776	4.05	Control	0.6234000000000001	0.0	Yes	3.225	0.001	n/a	GoodResponse	0	n/a	n/a	9	76	Fixation	Neutral	True
721.821	0.42	Control	0.6234000000000001	0.004	Yes	3.225	-0.004	4.0	GoodResponse	0	0.249	721.07	9	76	Target	Neutral	True
722.07	0.3	Control	0.6234000000000001	0.004	Yes	3.225	-0.004	4.0	GoodResponse	0	0.249	n/a	9	76	ButtonPress	Neutral	True
722.256	0.28	Control	0.6234000000000001	n/a	Yes	3.225	n/a	n/a	GoodResponse	0	n/a	n/a	9	76	Blank	Neutral	True
722.523	1.45	Control	0.6234000000000001	n/a	Yes	3.225	n/a	5.0	GoodResponse	0	0.029	721.552	9	76	Feedback	Neutral	True
723.978	3.225	Control	0.6234000000000001	n/a	Yes	3.225	n/a	n/a	GoodResponse	0	0.0	n/a	9	76	ISIslide	Neutral	True
727.221	0.25	Lose2	0.6282	0.0	Yes	2.579	0.021	n/a	GoodResponse	0	n/a	n/a	9	77	Cue	AvoidedLoss	True
727.472	3.95	Lose2	0.6282	0.0	Yes	2.579	0.001	n/a	GoodResponse	0	n/a	n/a	9	77	Fixation	AvoidedLoss	True
731.417	0.43	Lose2	0.6282	0.004	Yes	2.579	-0.004	4.0	GoodResponse	0	0.18	730.597	9	77	Target	AvoidedLoss	True
731.597	0.3	Lose2	0.6282	0.004	Yes	2.579	-0.004	4.0	GoodResponse	0	0.18	n/a	9	77	ButtonPress	AvoidedLoss	True
731.851	0.27	Lose2	0.6282	n/a	Yes	2.579	n/a	n/a	GoodResponse	0	n/a	n/a	9	77	Blank	AvoidedLoss	True
732.119	1.45	Lose2	0.6282	n/a	Yes	2.579	n/a	5.0	GoodResponse	0	0.042	731.161	9	77	Feedback	AvoidedLoss	True
733.573	2.579	Lose2	0.6282	n/a	Yes	2.579	n/a	n/a	GoodResponse	0	0.0	n/a	9	77	ISIslide	AvoidedLoss	True
