onset	duration	cue_type	current_mean_accuracy	duration_error	is_hit	isi_adjusted	onset_delay	response	response_type	reward	rt	rt_time	total_reward	trial_number	trial_phase	trial_type	one_press
11.109	0.25	Control	1.0	0.0	Yes	2.941	0.009	n/a	GoodResponse	0	n/a	n/a	0	0	Cue	Neutral	True
11.36	3.85	Control	1.0	0.0	Yes	2.941	0.001	n/a	GoodResponse	0	n/a	n/a	0	0	Fixation	Neutral	True
15.204	0.4	Control	1.0	0.005	Yes	2.941	-0.005	4.0	GoodResponse	0	0.214	14.418	0	0	Target	Neutral	True
15.418	0.3	Control	1.0	0.005	Yes	2.941	-0.005	4.0	GoodResponse	0	0.214	n/a	0	0	ButtonPress	Neutral	True
15.606	0.3	Control	1.0	n/a	Yes	2.941	n/a	n/a	GoodResponse	0	n/a	n/a	0	0	Blank	Neutral	True
15.907	1.45	Control	1.0	n/a	Yes	2.941	n/a	5.0	GoodResponse	0	0.019	14.926	0	0	Feedback	Neutral	True
17.361	2.941	Control	1.0	n/a	Yes	2.941	n/a	n/a	GoodResponse	0	0.0	n/a	0	0	ISIslide	Neutral	True
20.32	0.25	Lose2	1.0	0.0	Yes	2.78	0.02	n/a	GoodResponse	0	n/a	n/a	0	1	Cue	AvoidedLoss	True
20.571	4.0	Lose2	1.0	0.0	Yes	2.78	0.001	n/a	GoodResponse	0	n/a	n/a	0	1	Fixation	AvoidedLoss	True
24.566	0.39	Lose2	1.0	0.004	Yes	2.78	-0.004	4.0	GoodResponse	0	0.191	23.757	0	1	Target	AvoidedLoss	True
24.757	0.3	Lose2	1.0	0.004	Yes	2.78	-0.004	4.0	GoodResponse	0	0.191	n/a	0	1	ButtonPress	AvoidedLoss	True
24.967	0.31	Lose2	1.0	n/a	Yes	2.78	n/a	n/a	GoodResponse	0	n/a	n/a	0	1	Blank	AvoidedLoss	True
25.268	1.45	Lose2	1.0	n/a	Yes	2.78	n/a	5.0	GoodResponse	0	0.023	24.291	0	1	Feedback	AvoidedLoss	True
26.722	2.78	Lose2	1.0	n/a	Yes	2.78	n/a	n/a	GoodResponse	0	0.0	n/a	0	1	ISIslide	AvoidedLoss	True
29.531	0.25	Control	1.0	0.0	Yes	2.569	0.031	n/a	GoodResponse	0	n/a	n/a	0	2	Cue	Neutral	True
29.781	4.1	Control	1.0	0.0	Yes	2.569	0.0	n/a	GoodResponse	0	n/a	n/a	0	2	Fixation	Neutral	True
33.877	0.38	Control	1.0	0.004	Yes	2.569	-0.004	4.0	GoodResponse	0	0.228	33.105	0	2	Target	Neutral	True
34.105	0.3	Control	1.0	0.004	Yes	2.569	-0.004	4.0	GoodResponse	0	0.228	n/a	0	2	ButtonPress	Neutral	True
34.261	0.32	Control	1.0	n/a	Yes	2.569	n/a	n/a	GoodResponse	0	n/a	n/a	0	2	Blank	Neutral	True
34.579	1.45	Control	1.0	n/a	Yes	2.569	n/a	5.0	GoodResponse	0	0.029	33.608	0	2	Feedback	Neutral	True
36.033	2.569	Control	1.0	n/a	Yes	2.569	n/a	n/a	GoodResponse	0	0.0	n/a	0	2	ISIslide	Neutral	True
38.625	0.25	Win2	1.0	0.0	Yes	2.825	0.025	n/a	GoodResponse	1	n/a	n/a	1	3	Cue	Win	True
38.875	3.95	Win2	1.0	0.0	Yes	2.825	0.0	n/a	GoodResponse	1	n/a	n/a	1	3	Fixation	Win	True
42.837	0.37	Win2	1.0	0.0	Yes	2.825	0.012	4.0	GoodResponse	1	0.191	42.028	1	3	Target	Win	True
43.028	0.3	Win2	1.0	0.0	Yes	2.825	0.012	4.0	GoodResponse	1	0.191	n/a	1	3	ButtonPress	Win	True
43.205	0.33	Win2	1.0	n/a	Yes	2.825	n/a	n/a	GoodResponse	1	n/a	n/a	1	3	Blank	Win	True
43.522	1.45	Win2	1.0	n/a	Yes	2.825	n/a	5.0	GoodResponse	1	0.013	42.535	1	3	Feedback	Win	True
44.977	2.825	Win2	1.0	n/a	Yes	2.825	n/a	n/a	GoodResponse	1	0.0	n/a	1	3	ISIslide	Win	True
47.819	0.25	Win2	1.0	0.0	Yes	3.281	0.019	n/a	GoodResponse	1	n/a	n/a	2	4	Cue	Win	True
48.069	4.0	Win2	1.0	0.0	Yes	3.281	0.0	n/a	GoodResponse	1	n/a	n/a	2	4	Fixation	Win	True
52.065	0.36	Win2	1.0	0.004	Yes	3.281	-0.004	4.0	GoodResponse	1	0.221	51.286	2	4	Target	Win	True
52.286	0.3	Win2	1.0	0.004	Yes	3.281	-0.004	4.0	GoodResponse	1	0.221	n/a	2	4	ButtonPress	Win	True
52.432	0.34	Win2	1.0	n/a	Yes	3.281	n/a	n/a	GoodResponse	1	n/a	n/a	2	4	Blank	Win	True
52.767	1.45	Win2	1.0	n/a	Yes	3.281	n/a	5.0	GoodResponse	1	0.037	51.804	2	4	Feedback	Win	True
54.221	3.281	Win2	1.0	n/a	Yes	3.281	n/a	n/a	GoodResponse	1	0.0	n/a	2	4	ISIslide	Win	True
57.531	0.25	Win2	1.0	0.0	Yes	2.769	0.031	n/a	GoodResponse	1	n/a	n/a	3	5	Cue	Win	True
57.782	4.0	Win2	1.0	0.0	Yes	2.769	0.001	n/a	GoodResponse	1	n/a	n/a	3	5	Fixation	Win	True
61.777	0.35	Win2	1.0	0.004	Yes	2.769	-0.004	4.0	GoodResponse	1	0.23	61.007	3	5	Target	Win	True
62.007	0.3	Win2	1.0	0.004	Yes	2.769	-0.004	4.0	GoodResponse	1	0.23	n/a	3	5	ButtonPress	Win	True
62.128	0.35	Win2	1.0	n/a	Yes	2.769	n/a	n/a	GoodResponse	1	n/a	n/a	3	5	Blank	Win	True
62.479	1.45	Win2	1.0	n/a	Yes	2.769	n/a	5.0	GoodResponse	1	0.031	61.51	3	5	Feedback	Win	True
63.934	2.769	Win2	1.0	n/a	Yes	2.769	n/a	n/a	GoodResponse	1	0.0	n/a	3	5	ISIslide	Win	True
66.725	0.25	Lose2	1.0	0.0	Yes	2.725	0.025	n/a	GoodResponse	0	n/a	n/a	3	6	Cue	AvoidedLoss	True
66.976	3.95	Lose2	1.0	0.0	Yes	2.725	0.001	n/a	GoodResponse	0	n/a	n/a	3	6	Fixation	AvoidedLoss	True
70.921	0.34	Lose2	1.0	0.004	Yes	2.725	-0.004	4.0	GoodResponse	0	0.206	70.127	3	6	Target	AvoidedLoss	True
71.127	0.3	Lose2	1.0	0.004	Yes	2.725	-0.004	4.0	GoodResponse	0	0.206	n/a	3	6	ButtonPress	AvoidedLoss	True
71.272	0.36	Lose2	1.0	n/a	Yes	2.725	n/a	n/a	GoodResponse	0	n/a	n/a	3	6	Blank	AvoidedLoss	True
71.623	1.45	Lose2	1.0	n/a	Yes	2.725	n/a	5.0	GoodResponse	0	0.009	70.632	3	6	Feedback	AvoidedLoss	True
73.078	2.725	Lose2	1.0	n/a	Yes	2.725	n/a	n/a	GoodResponse	0	0.0	n/a	3	6	ISIslide	AvoidedLoss	True
75.819	0.25	Lose2	1.0	0.0	Yes	4.031	0.019	n/a	GoodResponse	0	n/a	n/a	3	7	Cue	AvoidedLoss	True
76.07	4.05	Lose2	1.0	0.0	Yes	4.031	0.001	n/a	GoodResponse	0	n/a	n/a	3	7	Fixation	AvoidedLoss	True
80.115	0.33	Lose2	1.0	0.004	Yes	4.031	-0.004	4.0	GoodResponse	0	0.181	79.296	3	7	Target	AvoidedLoss	True
80.296	0.3	Lose2	1.0	0.004	Yes	4.031	-0.004	4.0	GoodResponse	0	0.181	n/a	3	7	ButtonPress	AvoidedLoss	True
80.45	0.37	Lose2	1.0	n/a	Yes	4.031	n/a	n/a	GoodResponse	0	n/a	n/a	3	7	Blank	AvoidedLoss	True
80.817	1.45	Lose2	1.0	n/a	Yes	4.031	n/a	5.0	GoodResponse	0	0.035	79.852	3	7	Feedback	AvoidedLoss	True
82.272	4.031	Lose2	1.0	n/a	Yes	4.031	n/a	n/a	GoodResponse	0	0.0	n/a	3	7	ISIslide	AvoidedLoss	True
86.317	0.25	Lose2	0.8889	0.0	No	3.033	0.017	n/a	NoResponse	-1	n/a	n/a	2	8	Cue	Loss	True
86.568	3.95	Lose2	0.8889	0.0	No	3.033	0.001	n/a	NoResponse	-1	n/a	n/a	2	8	Fixation	Loss	True
90.513	0.32	Lose2	0.8889	0.004	No	3.033	-0.004	4.0	NoResponse	-1	0.343	89.856	2	8	Target	Loss	True
90.847	0.38	Lose2	0.8889	n/a	No	3.033	n/a	n/a	NoResponse	-1	n/a	n/a	2	8	Blank	Loss	True
90.856	0.3	Lose2	0.8889	0.004	No	3.033	-0.004	4.0	NoResponse	-1	0.343	n/a	2	8	ButtonPress	Loss	True
91.215	1.45	Lose2	0.8889	n/a	No	3.033	n/a	5.0	NoResponse	-1	0.027	90.242	2	8	Feedback	Loss	True
92.669	3.033	Lose2	0.8889	n/a	No	3.033	n/a	n/a	NoResponse	-1	0.0	n/a	2	8	ISIslide	Loss	True
95.729	0.25	Lose2	0.9	0.0	Yes	3.121	0.029	n/a	GoodResponse	0	n/a	n/a	2	9	Cue	AvoidedLoss	True
95.979	3.95	Lose2	0.9	0.0	Yes	3.121	0.0	n/a	GoodResponse	0	n/a	n/a	2	9	Fixation	AvoidedLoss	True
99.941	0.31	Lose2	0.9	0.0	Yes	3.121	0.012	4.0	GoodResponse	0	0.198	99.139	2	9	Target	AvoidedLoss	True
100.139	0.3	Lose2	0.9	0.0	Yes	3.121	0.012	4.0	GoodResponse	0	0.198	n/a	2	9	ButtonPress	AvoidedLoss	True
100.242	0.39	Lose2	0.9	n/a	Yes	3.121	n/a	n/a	GoodResponse	0	n/a	n/a	2	9	Blank	AvoidedLoss	True
100.627	1.45	Lose2	0.9	n/a	Yes	3.121	n/a	5.0	GoodResponse	0	0.03	99.657	2	9	Feedback	AvoidedLoss	True
102.081	3.121	Lose2	0.9	n/a	Yes	3.121	n/a	n/a	GoodResponse	0	0.0	n/a	2	9	ISIslide	AvoidedLoss	True
105.224	0.25	Control	0.8181999999999999	0.0	No	3.276	0.024	n/a	PrematurePress	0	n/a	n/a	2	10	Cue	Neutral	True
105.474	4.0	Control	0.8181999999999999	0.0	No	3.276	0.0	n/a	PrematurePress	0	n/a	n/a	2	10	Fixation	Neutral	True
109.47	0.3	Control	0.8181999999999999	0.004	No	3.276	-0.004	4.0	PrematurePress	0	0.056	108.526	2	10	Target	Neutral	True
109.526	0.3	Control	0.8181999999999999	0.004	No	3.276	-0.004	4.0	PrematurePress	0	0.056	n/a	2	10	ButtonPress	Neutral	True
109.771	0.4	Control	0.8181999999999999	n/a	No	3.276	n/a	n/a	PrematurePress	0	n/a	n/a	2	10	Blank	Neutral	True
110.172	1.45	Control	0.8181999999999999	n/a	No	3.276	n/a	5.0	PrematurePress	0	0.045	109.217	2	10	Feedback	Neutral	True
111.626	3.276	Control	0.8181999999999999	n/a	No	3.276	n/a	n/a	PrematurePress	0	0.0	n/a	2	10	ISIslide	Neutral	True
114.919	0.25	Lose2	0.8332999999999999	0.0	Yes	2.731	0.019	n/a	GoodResponse	0	n/a	n/a	2	11	Cue	AvoidedLoss	True
115.17	4.05	Lose2	0.8332999999999999	0.0	Yes	2.731	0.001	n/a	GoodResponse	0	n/a	n/a	2	11	Fixation	AvoidedLoss	True
119.215	0.29	Lose2	0.8332999999999999	0.004	Yes	2.731	-0.004	4.0	GoodResponse	0	0.219	118.434	2	11	Target	AvoidedLoss	True
119.434	0.3	Lose2	0.8332999999999999	0.004	Yes	2.731	-0.004	4.0	GoodResponse	0	0.219	n/a	2	11	ButtonPress	AvoidedLoss	True
119.516	0.41	Lose2	0.8332999999999999	n/a	Yes	2.731	n/a	n/a	GoodResponse	0	n/a	n/a	2	11	Blank	AvoidedLoss	True
119.918	1.45	Lose2	0.8332999999999999	n/a	Yes	2.731	n/a	5.0	GoodResponse	0	0.007	118.925	2	11	Feedback	AvoidedLoss	True
121.372	2.731	Lose2	0.8332999999999999	n/a	Yes	2.731	n/a	n/a	GoodResponse	0	0.0	n/a	2	11	ISIslide	AvoidedLoss	True
124.13	0.25	Control	0.8462000000000001	0.0	Yes	2.97	0.03	n/a	GoodResponse	0	n/a	n/a	2	12	Cue	Neutral	True
124.381	3.9	Control	0.8462000000000001	0.0	Yes	2.97	0.001	n/a	GoodResponse	0	n/a	n/a	2	12	Fixation	Neutral	True
128.276	0.28	Control	0.8462000000000001	0.004	Yes	2.97	-0.004	4.0	GoodResponse	0	0.211	127.487	2	12	Target	Neutral	True
128.487	0.3	Control	0.8462000000000001	0.004	Yes	2.97	-0.004	4.0	GoodResponse	0	0.211	n/a	2	12	ButtonPress	Neutral	True
128.56	0.42	Control	0.8462000000000001	n/a	Yes	2.97	n/a	n/a	GoodResponse	0	n/a	n/a	2	12	Blank	Neutral	True
128.978	1.45	Control	0.8462000000000001	n/a	Yes	2.97	n/a	5.0	GoodResponse	0	0.02	127.998	2	12	Feedback	Neutral	True
130.432	2.97	Control	0.8462000000000001	n/a	Yes	2.97	n/a	n/a	GoodResponse	0	0.0	n/a	2	12	ISIslide	Neutral	True
133.425	0.25	Control	0.8571	0.0	Yes	2.775	0.025	n/a	GoodResponse	0	n/a	n/a	2	13	Cue	Neutral	True
133.675	4.0	Control	0.8571	0.0	Yes	2.775	0.0	n/a	GoodResponse	0	n/a	n/a	2	13	Fixation	Neutral	True
137.671	0.27	Control	0.8571	0.004	Yes	2.775	-0.004	4.0	GoodResponse	0	0.197	136.868	2	13	Target	Neutral	True
137.868	0.3	Control	0.8571	0.004	Yes	2.775	-0.004	4.0	GoodResponse	0	0.197	n/a	2	13	ButtonPress	Neutral	True
137.955	0.43	Control	0.8571	n/a	Yes	2.775	n/a	n/a	GoodResponse	0	n/a	n/a	2	13	Blank	Neutral	True
138.373	1.45	Control	0.8571	n/a	Yes	2.775	n/a	5.0	GoodResponse	0	0.039	137.412	2	13	Feedback	Neutral	True
139.827	2.775	Control	0.8571	n/a	Yes	2.775	n/a	n/a	GoodResponse	0	0.0	n/a	2	13	ISIslide	Neutral	True
142.619	0.25	Win2	0.8667	0.0	Yes	2.681	0.019	n/a	GoodResponse	1	n/a	n/a	3	14	Cue	Win	True
142.87	4.1	Win2	0.8667	0.0	Yes	2.681	0.001	n/a	GoodResponse	1	n/a	n/a	3	14	Fixation	Win	True
146.965	0.26	Win2	0.8667	0.004	Yes	2.681	-0.004	4.0	GoodResponse	1	0.186	146.151	3	14	Target	Win	True
147.151	0.3	Win2	0.8667	0.004	Yes	2.681	-0.004	4.0	GoodResponse	1	0.186	n/a	3	14	ButtonPress	Win	True
147.233	0.44	Win2	0.8667	n/a	Yes	2.681	n/a	n/a	GoodResponse	1	n/a	n/a	3	14	Blank	Win	True
147.667	1.45	Win2	0.8667	n/a	Yes	2.681	n/a	5.0	GoodResponse	1	0.014	146.681	3	14	Feedback	Win	True
149.122	2.681	Win2	0.8667	n/a	Yes	2.681	n/a	n/a	GoodResponse	1	0.0	n/a	3	14	ISIslide	Win	True
151.83	0.25	Control	0.875	0.0	Yes	2.97	0.03	n/a	GoodResponse	0	n/a	n/a	3	15	Cue	Neutral	True
152.08	4.0	Control	0.875	0.0	Yes	2.97	0.0	n/a	GoodResponse	0	n/a	n/a	3	15	Fixation	Neutral	True
156.076	0.25	Control	0.875	0.004	Yes	2.97	-0.004	4.0	GoodResponse	0	0.222	155.298	3	15	Target	Neutral	True
156.298	0.3	Control	0.875	0.004	Yes	2.97	-0.004	4.0	GoodResponse	0	0.222	n/a	3	15	ButtonPress	Neutral	True
156.326	0.45	Control	0.875	n/a	Yes	2.97	n/a	n/a	GoodResponse	0	n/a	n/a	3	15	Blank	Neutral	True
156.778	1.45	Control	0.875	n/a	Yes	2.97	n/a	5.0	GoodResponse	0	0.024	155.802	3	15	Feedback	Neutral	True
158.232	2.97	Control	0.875	n/a	Yes	2.97	n/a	n/a	GoodResponse	0	0.0	n/a	3	15	ISIslide	Neutral	True
161.224	0.25	Win2	0.8234999999999999	0.0	No	2.876	0.024	n/a	NoResponse	0	n/a	n/a	3	16	Cue	MissedWin	True
161.475	4.0	Win2	0.8234999999999999	0.0	No	2.876	0.001	n/a	NoResponse	0	n/a	n/a	3	16	Fixation	MissedWin	True
165.47	0.24	Win2	0.8234999999999999	0.004	No	2.876	-0.004	4.0	NoResponse	0	0.278	164.748	3	16	Target	MissedWin	True
165.721	0.46	Win2	0.8234999999999999	n/a	No	2.876	n/a	n/a	NoResponse	0	n/a	n/a	3	16	Blank	MissedWin	True
165.748	0.3	Win2	0.8234999999999999	0.004	No	2.876	-0.004	4.0	NoResponse	0	0.278	n/a	3	16	ButtonPress	MissedWin	True
166.173	1.45	Win2	0.8234999999999999	n/a	No	2.876	n/a	5.0	NoResponse	0	0.044	165.217	3	16	Feedback	MissedWin	True
167.627	2.876	Win2	0.8234999999999999	n/a	No	2.876	n/a	n/a	NoResponse	0	0.0	n/a	3	16	ISIslide	MissedWin	True
170.519	0.25	Lose2	0.8332999999999999	0.0	Yes	2.731	0.019	n/a	GoodResponse	0	n/a	n/a	3	17	Cue	AvoidedLoss	True
170.77	3.95	Lose2	0.8332999999999999	0.0	Yes	2.731	0.001	n/a	GoodResponse	0	n/a	n/a	3	17	Fixation	AvoidedLoss	True
174.715	0.23	Lose2	0.8332999999999999	0.004	Yes	2.731	-0.004	4.0	GoodResponse	0	0.19	173.905	3	17	Target	AvoidedLoss	True
174.905	0.3	Lose2	0.8332999999999999	0.004	Yes	2.731	-0.004	4.0	GoodResponse	0	0.19	n/a	3	17	ButtonPress	AvoidedLoss	True
174.949	0.47	Lose2	0.8332999999999999	n/a	Yes	2.731	n/a	n/a	GoodResponse	0	n/a	n/a	3	17	Blank	AvoidedLoss	True
175.417	1.45	Lose2	0.8332999999999999	n/a	Yes	2.731	n/a	5.0	GoodResponse	0	0.019	174.436	3	17	Feedback	AvoidedLoss	True
176.871	2.731	Lose2	0.8332999999999999	n/a	Yes	2.731	n/a	n/a	GoodResponse	0	0.0	n/a	3	17	ISIslide	AvoidedLoss	True
179.629	0.25	Lose2	0.8421	0.001	Yes	2.721	0.029	n/a	GoodResponse	0	n/a	n/a	3	18	Cue	AvoidedLoss	True
179.88	4.05	Lose2	0.8421	0.0	Yes	2.721	0.001	n/a	GoodResponse	0	n/a	n/a	3	18	Fixation	AvoidedLoss	True
183.926	0.22	Lose2	0.8421	0.003	Yes	2.721	-0.003	4.0	GoodResponse	0	0.19	183.116	3	18	Target	AvoidedLoss	True
184.116	0.3	Lose2	0.8421	0.003	Yes	2.721	-0.003	4.0	GoodResponse	0	0.19	n/a	3	18	ButtonPress	AvoidedLoss	True
184.16	0.48	Lose2	0.8421	n/a	Yes	2.721	n/a	n/a	GoodResponse	0	n/a	n/a	3	18	Blank	AvoidedLoss	True
184.628	1.45	Lose2	0.8421	n/a	Yes	2.721	n/a	5.0	GoodResponse	0	0.028	183.656	3	18	Feedback	AvoidedLoss	True
186.082	2.721	Lose2	0.8421	n/a	Yes	2.721	n/a	n/a	GoodResponse	0	0.0	n/a	3	18	ISIslide	AvoidedLoss	True
188.824	0.25	Control	0.8	0.0	No	2.926	0.024	n/a	NoResponse	0	n/a	n/a	3	19	Cue	Neutral	True
189.074	3.95	Control	0.8	0.0	No	2.926	0.0	n/a	NoResponse	0	n/a	n/a	3	19	Fixation	Neutral	True
193.036	0.21	Control	0.8	0.0	No	2.926	0.012	4.0	NoResponse	0	0.239	192.275	3	19	Target	Neutral	True
193.237	0.49	Control	0.8	n/a	No	2.926	n/a	n/a	NoResponse	0	n/a	n/a	3	19	Blank	Neutral	True
193.275	0.3	Control	0.8	0.0	No	2.926	0.012	4.0	NoResponse	0	0.239	n/a	3	19	ButtonPress	Neutral	True
193.722	1.45	Control	0.8	n/a	No	2.926	n/a	5.0	NoResponse	0	0.008	192.73	3	19	Feedback	Neutral	True
195.176	2.926	Control	0.8	n/a	No	2.926	n/a	n/a	NoResponse	0	0.0	n/a	3	19	ISIslide	Neutral	True
198.118	0.25	Control	0.7619	0.0	No	2.632	0.018	n/a	NoResponse	0	n/a	n/a	3	20	Cue	Neutral	True
198.369	4.05	Control	0.7619	0.0	No	2.632	0.001	n/a	NoResponse	0	n/a	n/a	3	20	Fixation	Neutral	True
202.414	0.2	Control	0.7619	0.004	No	2.632	-0.004	4.0	NoResponse	0	0.228	201.642	3	20	Target	Neutral	True
202.615	0.5	Control	0.7619	n/a	No	2.632	n/a	n/a	NoResponse	0	n/a	n/a	3	20	Blank	Neutral	True
202.642	0.3	Control	0.7619	0.004	No	2.632	-0.004	4.0	NoResponse	0	0.228	n/a	3	20	ButtonPress	Neutral	True
203.116	1.45	Control	0.7619	n/a	No	2.632	n/a	5.0	NoResponse	0	0.027	202.143	3	20	Feedback	Neutral	True
204.571	2.632	Control	0.7619	n/a	No	2.632	n/a	n/a	NoResponse	0	0.0	n/a	3	20	ISIslide	Neutral	True
207.229	0.25	Control	0.7273000000000001	0.0	No	2.771	0.029	n/a	LatePress	0	n/a	n/a	3	21	Cue	Neutral	True
207.479	4.1	Control	0.7273000000000001	0.0	No	2.771	0.0	n/a	LatePress	0	n/a	n/a	3	21	Fixation	Neutral	True
211.575	0.19	Control	0.7273000000000001	0.004	No	2.771	-0.004	4.0	LatePress	0	0.192	210.767	3	21	Target	Neutral	True
211.767	0.3	Control	0.7273000000000001	0.004	No	2.771	-0.004	4.0	LatePress	0	0.192	n/a	3	21	ButtonPress	Neutral	True
211.776	0.51	Control	0.7273000000000001	n/a	No	2.771	n/a	n/a	LatePress	0	n/a	n/a	3	21	Blank	Neutral	True
212.277	1.45	Control	0.7273000000000001	n/a	No	2.771	n/a	5.0	LatePress	0	0.037	211.314	3	21	Feedback	Neutral	True
213.731	2.771	Control	0.7273000000000001	n/a	No	2.771	n/a	n/a	LatePress	0	0.0	n/a	3	21	ISIslide	Neutral	True
216.523	0.25	Control	0.6957	0.0	No	2.777	0.023	n/a	NoResponse	0	n/a	n/a	3	22	Cue	Neutral	True
216.774	4.0	Control	0.6957	0.0	No	2.777	0.001	n/a	NoResponse	0	n/a	n/a	3	22	Fixation	Neutral	True
220.769	0.18	Control	0.6957	0.004	No	2.777	-0.004	4.0	NoResponse	0	0.224	219.993	3	22	Target	Neutral	True
220.953	0.52	Control	0.6957	n/a	No	2.777	n/a	n/a	NoResponse	0	n/a	n/a	3	22	Blank	Neutral	True
220.993	0.3	Control	0.6957	0.004	No	2.777	-0.004	4.0	NoResponse	0	0.224	n/a	3	22	ButtonPress	Neutral	True
221.471	1.45	Control	0.6957	n/a	No	2.777	n/a	5.0	NoResponse	0	0.013	220.484	3	22	Feedback	Neutral	True
222.926	2.777	Control	0.6957	n/a	No	2.777	n/a	n/a	NoResponse	0	0.0	n/a	3	22	ISIslide	Neutral	True
225.717	0.25	Control	0.6667000000000001	0.0	No	2.783	0.017	n/a	NoResponse	0	n/a	n/a	3	23	Cue	Neutral	True
225.968	3.9	Control	0.6667000000000001	0.0	No	2.783	0.001	n/a	NoResponse	0	n/a	n/a	3	23	Fixation	Neutral	True
229.863	0.17	Control	0.6667000000000001	0.004	No	2.783	-0.004	4.0	NoResponse	0	0.193	229.056	3	23	Target	Neutral	True
230.047	0.53	Control	0.6667000000000001	n/a	No	2.783	n/a	n/a	NoResponse	0	n/a	n/a	3	23	Blank	Neutral	True
230.056	0.3	Control	0.6667000000000001	0.004	No	2.783	-0.004	4.0	NoResponse	0	0.193	n/a	3	23	ButtonPress	Neutral	True
230.565	1.45	Control	0.6667000000000001	n/a	No	2.783	n/a	5.0	NoResponse	0	0.041	229.606	3	23	Feedback	Neutral	True
232.019	2.783	Control	0.6667000000000001	n/a	No	2.783	n/a	n/a	NoResponse	0	0.0	n/a	3	23	ISIslide	Neutral	True
234.828	0.25	Win2	0.64	0.0	No	3.122	0.028	n/a	NoResponse	0	n/a	n/a	3	24	Cue	MissedWin	True
235.079	3.95	Win2	0.64	0.0	No	3.122	0.001	n/a	NoResponse	0	n/a	n/a	3	24	Fixation	MissedWin	True
239.024	0.16	Win2	0.64	0.004	No	3.122	-0.004	4.0	NoResponse	0	0.181	238.205	3	24	Target	MissedWin	True
239.191	0.54	Win2	0.64	n/a	No	3.122	n/a	n/a	NoResponse	0	n/a	n/a	3	24	Blank	MissedWin	True
239.205	0.3	Win2	0.64	0.004	No	3.122	-0.004	4.0	NoResponse	0	0.181	n/a	3	24	ButtonPress	MissedWin	True
239.726	1.45	Win2	0.64	n/a	No	3.122	n/a	5.0	NoResponse	0	0.008	238.734	3	24	Feedback	MissedWin	True
241.18	3.122	Win2	0.64	n/a	No	3.122	n/a	n/a	NoResponse	0	0.0	n/a	3	24	ISIslide	MissedWin	True
244.323	0.25	Win2	0.6154	0.0	No	3.077	0.023	n/a	PrematurePress	0	n/a	n/a	3	25	Cue	MissedWin	True
244.574	4.0	Win2	0.6154	0.0	No	3.077	0.001	n/a	PrematurePress	0	n/a	n/a	3	25	Fixation	MissedWin	True
248.569	0.17	Win2	0.6154	0.004	No	3.077	-0.004	4.0	PrematurePress	0	0.032	247.601	3	25	Target	MissedWin	True
248.601	0.3	Win2	0.6154	0.004	No	3.077	-0.004	4.0	PrematurePress	0	0.032	n/a	3	25	ButtonPress	MissedWin	True
248.753	0.53	Win2	0.6154	n/a	No	3.077	n/a	n/a	PrematurePress	0	n/a	n/a	3	25	Blank	MissedWin	True
249.271	1.45	Win2	0.6154	n/a	No	3.077	n/a	5.0	PrematurePress	0	0.018	248.289	3	25	Feedback	MissedWin	True
250.725	3.077	Win2	0.6154	n/a	No	3.077	n/a	n/a	PrematurePress	0	0.0	n/a	3	25	ISIslide	MissedWin	True
253.818	0.25	Win2	0.6296	0.0	Yes	2.932	0.018	n/a	GoodResponse	1	n/a	n/a	4	26	Cue	Win	True
254.069	3.95	Win2	0.6296	0.0	Yes	2.932	0.001	n/a	GoodResponse	1	n/a	n/a	4	26	Fixation	Win	True
258.014	0.18	Win2	0.6296	0.004	Yes	2.932	-0.004	4.0	GoodResponse	1	0.169	257.183	4	26	Target	Win	True
258.183	0.3	Win2	0.6296	0.004	Yes	2.932	-0.004	4.0	GoodResponse	1	0.169	n/a	4	26	ButtonPress	Win	True
258.198	0.52	Win2	0.6296	n/a	Yes	2.932	n/a	n/a	GoodResponse	1	n/a	n/a	4	26	Blank	Win	True
258.716	1.45	Win2	0.6296	n/a	Yes	2.932	n/a	5.0	GoodResponse	1	0.036	257.752	4	26	Feedback	Win	True
260.17	2.932	Win2	0.6296	n/a	Yes	2.932	n/a	n/a	GoodResponse	1	0.0	n/a	4	26	ISIslide	Win	True
263.129	0.25	Lose2	0.6429	0.0	Yes	2.821	0.029	n/a	GoodResponse	0	n/a	n/a	4	27	Cue	AvoidedLoss	True
263.38	4.05	Lose2	0.6429	0.0	Yes	2.821	0.001	n/a	GoodResponse	0	n/a	n/a	4	27	Fixation	AvoidedLoss	True
267.425	0.19	Lose2	0.6429	0.004	Yes	2.821	-0.004	4.0	GoodResponse	0	0.179	266.604	4	27	Target	AvoidedLoss	True
267.604	0.3	Lose2	0.6429	0.004	Yes	2.821	-0.004	4.0	GoodResponse	0	0.179	n/a	4	27	ButtonPress	AvoidedLoss	True
267.626	0.51	Lose2	0.6429	n/a	Yes	2.821	n/a	n/a	GoodResponse	0	n/a	n/a	4	27	Blank	AvoidedLoss	True
268.127	1.45	Lose2	0.6429	n/a	Yes	2.821	n/a	5.0	GoodResponse	0	0.04	267.167	4	27	Feedback	AvoidedLoss	True
269.582	2.821	Lose2	0.6429	n/a	Yes	2.821	n/a	n/a	GoodResponse	0	0.0	n/a	4	27	ISIslide	AvoidedLoss	True
272.424	0.25	Control	0.6207	0.0	No	2.826	0.024	n/a	NoResponse	0	n/a	n/a	4	28	Cue	Neutral	True
272.674	4.05	Control	0.6207	0.0	No	2.826	0.0	4.0	NoResponse	0	3.843	275.517	4	28	Fixation	Neutral	True
276.517	0.3	Control	0.6207	0.0	No	2.826	0.0	4.0	NoResponse	0	3.843	n/a	4	28	ButtonPress	Neutral	True
276.72	0.2	Control	0.6207	0.004	No	2.826	-0.004	n/a	NoResponse	0	n/a	n/a	4	28	Target	Neutral	True
276.92	0.5	Control	0.6207	n/a	No	2.826	n/a	n/a	NoResponse	0	n/a	n/a	4	28	Blank	Neutral	True
277.422	1.45	Control	0.6207	n/a	No	2.826	n/a	5.0	NoResponse	0	0.013	276.435	4	28	Feedback	Neutral	True
278.876	2.826	Control	0.6207	n/a	No	2.826	n/a	n/a	NoResponse	0	0.0	n/a	4	28	ISIslide	Neutral	True
281.718	0.25	Lose2	0.6333	0.0	Yes	2.832	0.018	n/a	GoodResponse	0	n/a	n/a	4	29	Cue	AvoidedLoss	True
281.969	3.95	Lose2	0.6333	0.0	Yes	2.832	0.001	n/a	GoodResponse	0	n/a	n/a	4	29	Fixation	AvoidedLoss	True
285.914	0.21	Lose2	0.6333	0.004	Yes	2.832	-0.004	4.0	GoodResponse	0	0.199	285.113	4	29	Target	AvoidedLoss	True
286.113	0.3	Lose2	0.6333	0.004	Yes	2.832	-0.004	4.0	GoodResponse	0	0.199	n/a	4	29	ButtonPress	AvoidedLoss	True
286.131	0.49	Lose2	0.6333	n/a	Yes	2.832	n/a	n/a	GoodResponse	0	n/a	n/a	4	29	Blank	AvoidedLoss	True
286.616	1.45	Lose2	0.6333	n/a	Yes	2.832	n/a	5.0	GoodResponse	0	0.038	285.654	4	29	Feedback	AvoidedLoss	True
288.07	2.832	Lose2	0.6333	n/a	Yes	2.832	n/a	n/a	GoodResponse	0	0.0	n/a	4	29	ISIslide	AvoidedLoss	True
290.929	0.25	Win2	0.6452	0.0	Yes	2.771	0.029	n/a	GoodResponse	1	n/a	n/a	5	30	Cue	Win	True
291.18	3.9	Win2	0.6452	0.0	Yes	2.771	0.001	n/a	GoodResponse	1	n/a	n/a	5	30	Fixation	Win	True
295.075	0.22	Win2	0.6452	0.004	Yes	2.771	-0.004	4.0	GoodResponse	1	0.21	294.285	5	30	Target	Win	True
295.285	0.3	Win2	0.6452	0.004	Yes	2.771	-0.004	4.0	GoodResponse	1	0.21	n/a	5	30	ButtonPress	Win	True
295.309	0.48	Win2	0.6452	n/a	Yes	2.771	n/a	n/a	GoodResponse	1	n/a	n/a	5	30	Blank	Win	True
295.777	1.45	Win2	0.6452	n/a	Yes	2.771	n/a	5.0	GoodResponse	1	0.048	294.825	5	30	Feedback	Win	True
297.231	2.771	Win2	0.6452	n/a	Yes	2.771	n/a	n/a	GoodResponse	1	0.0	n/a	5	30	ISIslide	Win	True
300.023	0.25	Lose2	0.6562	0.0	Yes	2.827	0.023	n/a	GoodResponse	0	n/a	n/a	5	31	Cue	AvoidedLoss	True
300.273	4.05	Lose2	0.6562	0.001	Yes	2.827	0.0	n/a	GoodResponse	0	n/a	n/a	5	31	Fixation	AvoidedLoss	True
304.319	0.23	Lose2	0.6562	0.004	Yes	2.827	-0.004	4.0	GoodResponse	0	0.169	303.488	5	31	Target	AvoidedLoss	True
304.488	0.3	Lose2	0.6562	0.004	Yes	2.827	-0.004	4.0	GoodResponse	0	0.169	n/a	5	31	ButtonPress	AvoidedLoss	True
304.553	0.47	Lose2	0.6562	n/a	Yes	2.827	n/a	n/a	GoodResponse	0	n/a	n/a	5	31	Blank	AvoidedLoss	True
305.021	1.45	Lose2	0.6562	n/a	Yes	2.827	n/a	5.0	GoodResponse	0	0.023	304.044	5	31	Feedback	AvoidedLoss	True
306.475	2.827	Lose2	0.6562	n/a	Yes	2.827	n/a	n/a	GoodResponse	0	0.0	n/a	5	31	ISIslide	AvoidedLoss	True
309.317	0.25	Lose2	0.6667000000000001	0.0	Yes	2.633	0.017	n/a	GoodResponse	0	n/a	n/a	5	32	Cue	AvoidedLoss	True
309.568	4.15	Lose2	0.6667000000000001	0.0	Yes	2.633	0.001	n/a	GoodResponse	0	n/a	n/a	5	32	Fixation	AvoidedLoss	True
313.714	0.23	Lose2	0.6667000000000001	0.003	Yes	2.633	-0.003	4.0	GoodResponse	0	0.227	312.941	5	32	Target	AvoidedLoss	True
313.941	0.3	Lose2	0.6667000000000001	0.003	Yes	2.633	-0.003	4.0	GoodResponse	0	0.227	n/a	5	32	ButtonPress	AvoidedLoss	True
313.948	0.47	Lose2	0.6667000000000001	n/a	Yes	2.633	n/a	n/a	GoodResponse	0	n/a	n/a	5	32	Blank	AvoidedLoss	True
314.416	1.45	Lose2	0.6667000000000001	n/a	Yes	2.633	n/a	5.0	GoodResponse	0	0.043	313.459	5	32	Feedback	AvoidedLoss	True
315.87	2.633	Lose2	0.6667000000000001	n/a	Yes	2.633	n/a	n/a	GoodResponse	0	0.0	n/a	5	32	ISIslide	AvoidedLoss	True
318.528	0.25	Win2	0.6765000000000001	0.0	Yes	2.672	0.028	n/a	GoodResponse	1	n/a	n/a	6	33	Cue	Win	True
318.779	4.0	Win2	0.6765000000000001	0.0	Yes	2.672	0.001	n/a	GoodResponse	1	n/a	n/a	6	33	Fixation	Win	True
322.774	0.22	Win2	0.6765000000000001	0.004	Yes	2.672	-0.004	4.0	GoodResponse	1	0.208	321.982	6	33	Target	Win	True
322.982	0.3	Win2	0.6765000000000001	0.004	Yes	2.672	-0.004	4.0	GoodResponse	1	0.208	n/a	6	33	ButtonPress	Win	True
323.008	0.48	Win2	0.6765000000000001	n/a	Yes	2.672	n/a	n/a	GoodResponse	1	n/a	n/a	6	33	Blank	Win	True
323.476	1.45	Win2	0.6765000000000001	n/a	Yes	2.672	n/a	5.0	GoodResponse	1	0.008	322.484	6	33	Feedback	Win	True
324.931	2.672	Win2	0.6765000000000001	n/a	Yes	2.672	n/a	n/a	GoodResponse	1	0.0	n/a	6	33	ISIslide	Win	True
327.622	0.25	Lose2	0.6857	0.0	Yes	2.628	0.022	n/a	GoodResponse	0	n/a	n/a	6	34	Cue	AvoidedLoss	True
327.873	4.05	Lose2	0.6857	0.0	Yes	2.628	0.001	n/a	GoodResponse	0	n/a	n/a	6	34	Fixation	AvoidedLoss	True
331.918	0.21	Lose2	0.6857	0.004	Yes	2.628	-0.004	4.0	GoodResponse	0	0.208	331.126	6	34	Target	AvoidedLoss	True
332.126	0.3	Lose2	0.6857	0.004	Yes	2.628	-0.004	4.0	GoodResponse	0	0.208	n/a	6	34	ButtonPress	AvoidedLoss	True
332.135	0.49	Lose2	0.6857	n/a	Yes	2.628	n/a	n/a	GoodResponse	0	n/a	n/a	6	34	Blank	AvoidedLoss	True
332.62	1.45	Lose2	0.6857	n/a	Yes	2.628	n/a	5.0	GoodResponse	0	0.033	331.653	6	34	Feedback	AvoidedLoss	True
334.075	2.628	Lose2	0.6857	n/a	Yes	2.628	n/a	n/a	GoodResponse	0	0.0	n/a	6	34	ISIslide	AvoidedLoss	True
336.716	0.25	Lose2	0.6667000000000001	0.0	No	2.684	0.016	n/a	NoResponse	-1	n/a	n/a	5	35	Cue	Loss	True
336.967	4.0	Lose2	0.6667000000000001	0.0	No	2.684	0.001	n/a	NoResponse	-1	n/a	n/a	5	35	Fixation	Loss	True
340.962	0.2	Lose2	0.6667000000000001	0.004	No	2.684	-0.004	4.0	NoResponse	-1	0.212	340.174	5	35	Target	Loss	True
341.162	0.5	Lose2	0.6667000000000001	n/a	No	2.684	n/a	n/a	NoResponse	-1	n/a	n/a	5	35	Blank	Loss	True
341.174	0.3	Lose2	0.6667000000000001	0.004	No	2.684	-0.004	4.0	NoResponse	-1	0.212	n/a	5	35	ButtonPress	Loss	True
341.664	1.45	Lose2	0.6667000000000001	n/a	No	2.684	n/a	5.0	NoResponse	-1	0.014	340.678	5	35	Feedback	Loss	True
343.118	2.684	Lose2	0.6667000000000001	n/a	No	2.684	n/a	n/a	NoResponse	-1	0.0	n/a	5	35	ISIslide	Loss	True
345.826	0.25	Control	0.6486	0.0	No	2.674	0.026	n/a	NoResponse	0	n/a	n/a	5	36	Cue	Neutral	True
346.077	4.0	Control	0.6486	0.0	No	2.674	0.001	n/a	NoResponse	0	n/a	n/a	5	36	Fixation	Neutral	True
350.072	0.19	Control	0.6486	0.004	No	2.674	-0.004	4.0	NoResponse	0	0.21	349.282	5	36	Target	Neutral	True
350.273	0.51	Control	0.6486	n/a	No	2.674	n/a	n/a	NoResponse	0	n/a	n/a	5	36	Blank	Neutral	True
350.282	0.3	Control	0.6486	0.004	No	2.674	-0.004	4.0	NoResponse	0	0.21	n/a	5	36	ButtonPress	Neutral	True
350.774	1.45	Control	0.6486	n/a	No	2.674	n/a	5.0	NoResponse	0	0.026	349.8	5	36	Feedback	Neutral	True
352.229	2.674	Control	0.6486	n/a	No	2.674	n/a	n/a	NoResponse	0	0.0	n/a	5	36	ISIslide	Neutral	True
354.92	0.25	Win2	0.6579	0.0	Yes	2.88	0.02	n/a	GoodResponse	1	n/a	n/a	6	37	Cue	Win	True
355.171	4.0	Win2	0.6579	0.0	Yes	2.88	0.001	n/a	GoodResponse	1	n/a	n/a	6	37	Fixation	Win	True
359.166	0.2	Win2	0.6579	0.004	Yes	2.88	-0.004	4.0	GoodResponse	1	0.198	358.364	6	37	Target	Win	True
359.364	0.3	Win2	0.6579	0.004	Yes	2.88	-0.004	4.0	GoodResponse	1	0.198	n/a	6	37	ButtonPress	Win	True
359.367	0.5	Win2	0.6579	n/a	Yes	2.88	n/a	n/a	GoodResponse	1	n/a	n/a	6	37	Blank	Win	True
359.868	1.45	Win2	0.6579	n/a	Yes	2.88	n/a	5.0	GoodResponse	1	0.007	358.875	6	37	Feedback	Win	True
361.323	2.88	Win2	0.6579	n/a	Yes	2.88	n/a	n/a	GoodResponse	1	0.0	n/a	6	37	ISIslide	Win	True
364.231	0.25	Lose2	0.6409999999999999	0.0	No	2.819	0.031	n/a	LatePress	-1	n/a	n/a	5	38	Cue	Loss	True
364.482	3.95	Lose2	0.6409999999999999	0.0	No	2.819	0.001	n/a	LatePress	-1	n/a	n/a	5	38	Fixation	Loss	True
368.427	0.2	Lose2	0.6409999999999999	0.004	No	2.819	-0.004	4.0	LatePress	-1	0.2	367.627	5	38	Target	Loss	True
368.627	0.3	Lose2	0.6409999999999999	0.004	No	2.819	-0.004	4.0	LatePress	-1	0.2	n/a	5	38	ButtonPress	Loss	True
368.628	0.5	Lose2	0.6409999999999999	n/a	No	2.819	n/a	n/a	LatePress	-1	n/a	n/a	5	38	Blank	Loss	True
369.129	1.45	Lose2	0.6409999999999999	n/a	No	2.819	n/a	5.0	LatePress	-1	0.012	368.141	5	38	Feedback	Loss	True
370.584	2.819	Lose2	0.6409999999999999	n/a	No	2.819	n/a	n/a	LatePress	-1	0.0	n/a	5	38	ISIslide	Loss	True
373.426	0.25	Win2	0.65	0.0	Yes	2.974	0.026	n/a	GoodResponse	1	n/a	n/a	6	39	Cue	Win	True
373.676	4.1	Win2	0.65	0.0	Yes	2.974	0.0	n/a	GoodResponse	1	n/a	n/a	6	39	Fixation	Win	True
377.772	0.21	Win2	0.65	0.004	Yes	2.974	-0.004	4.0	GoodResponse	1	0.195	376.967	6	39	Target	Win	True
377.967	0.3	Win2	0.65	0.004	Yes	2.974	-0.004	4.0	GoodResponse	1	0.195	n/a	6	39	ButtonPress	Win	True
377.989	0.49	Win2	0.65	n/a	Yes	2.974	n/a	n/a	GoodResponse	1	n/a	n/a	6	39	Blank	Win	True
378.474	1.45	Win2	0.65	n/a	Yes	2.974	n/a	5.0	GoodResponse	1	0.032	377.506	6	39	Feedback	Win	True
379.928	2.974	Win2	0.65	n/a	Yes	2.974	n/a	n/a	GoodResponse	1	0.0	n/a	6	39	ISIslide	Win	True
382.921	0.25	Win2	0.6585	0.0	Yes	2.729	0.021	n/a	GoodResponse	1	n/a	n/a	7	40	Cue	Win	True
383.171	3.95	Win2	0.6585	0.0	Yes	2.729	0.0	n/a	GoodResponse	1	n/a	n/a	7	40	Fixation	Win	True
387.133	0.22	Win2	0.6585	0.0	Yes	2.729	0.012	4.0	GoodResponse	1	0.208	386.341	7	40	Target	Win	True
387.341	0.3	Win2	0.6585	0.0	Yes	2.729	0.012	4.0	GoodResponse	1	0.208	n/a	7	40	ButtonPress	Win	True
387.35	0.48	Win2	0.6585	n/a	Yes	2.729	n/a	n/a	GoodResponse	1	n/a	n/a	7	40	Blank	Win	True
387.819	1.45	Win2	0.6585	n/a	Yes	2.729	n/a	5.0	GoodResponse	1	0.007	386.826	7	40	Feedback	Win	True
389.273	2.729	Win2	0.6585	n/a	Yes	2.729	n/a	n/a	GoodResponse	1	0.0	n/a	7	40	ISIslide	Win	True
392.031	0.25	Win2	0.6429	0.0	No	2.769	0.031	n/a	LatePress	0	n/a	n/a	7	41	Cue	MissedWin	True
392.282	3.9	Win2	0.6429	0.0	No	2.769	0.001	n/a	LatePress	0	n/a	n/a	7	41	Fixation	MissedWin	True
396.177	0.22	Win2	0.6429	0.004	No	2.769	-0.004	4.0	LatePress	0	0.225	395.402	7	41	Target	MissedWin	True
396.402	0.3	Win2	0.6429	0.004	No	2.769	-0.004	4.0	LatePress	0	0.225	n/a	7	41	ButtonPress	MissedWin	True
396.411	0.48	Win2	0.6429	n/a	No	2.769	n/a	n/a	LatePress	0	n/a	n/a	7	41	Blank	MissedWin	True
396.879	1.45	Win2	0.6429	n/a	No	2.769	n/a	5.0	LatePress	0	0.018	395.897	7	41	Feedback	MissedWin	True
398.333	2.769	Win2	0.6429	n/a	No	2.769	n/a	n/a	LatePress	0	0.0	n/a	7	41	ISIslide	MissedWin	True
401.125	0.25	Control	0.6512	0.0	Yes	2.925	0.025	n/a	GoodResponse	0	n/a	n/a	7	42	Cue	Neutral	True
401.376	3.85	Control	0.6512	0.0	Yes	2.925	0.001	n/a	GoodResponse	0	n/a	n/a	7	42	Fixation	Neutral	True
405.221	0.23	Control	0.6512	0.004	Yes	2.925	-0.004	4.0	GoodResponse	0	0.22	404.441	7	42	Target	Neutral	True
405.441	0.3	Control	0.6512	0.004	Yes	2.925	-0.004	4.0	GoodResponse	0	0.22	n/a	7	42	ButtonPress	Neutral	True
405.455	0.47	Control	0.6512	n/a	Yes	2.925	n/a	n/a	GoodResponse	0	n/a	n/a	7	42	Blank	Neutral	True
405.923	1.45	Control	0.6512	n/a	Yes	2.925	n/a	5.0	GoodResponse	0	0.046	404.969	7	42	Feedback	Neutral	True
407.377	2.925	Control	0.6512	n/a	Yes	2.925	n/a	n/a	GoodResponse	0	0.0	n/a	7	42	ISIslide	Neutral	True
410.319	0.25	Win2	0.6591	0.0	Yes	3.181	0.019	n/a	GoodResponse	1	n/a	n/a	8	43	Cue	Win	True
410.57	4.0	Win2	0.6591	0.0	Yes	3.181	0.001	n/a	GoodResponse	1	n/a	n/a	8	43	Fixation	Win	True
414.565	0.24	Win2	0.6591	0.004	Yes	3.181	-0.004	4.0	GoodResponse	1	0.18	413.745	8	43	Target	Win	True
414.745	0.3	Win2	0.6591	0.004	Yes	3.181	-0.004	4.0	GoodResponse	1	0.18	n/a	8	43	ButtonPress	Win	True
414.816	0.46	Win2	0.6591	n/a	Yes	3.181	n/a	n/a	GoodResponse	1	n/a	n/a	8	43	Blank	Win	True
415.267	1.45	Win2	0.6591	n/a	Yes	3.181	n/a	5.0	GoodResponse	1	0.019	414.286	8	43	Feedback	Win	True
416.722	3.181	Win2	0.6591	n/a	Yes	3.181	n/a	n/a	GoodResponse	1	0.0	n/a	8	43	ISIslide	Win	True
419.915	0.25	Win2	0.6667000000000001	0.0	Yes	2.985	0.015	n/a	GoodResponse	1	n/a	n/a	9	44	Cue	Win	True
420.165	4.0	Win2	0.6667000000000001	0.0	Yes	2.985	0.0	n/a	GoodResponse	1	n/a	n/a	9	44	Fixation	Win	True
424.161	0.24	Win2	0.6667000000000001	0.004	Yes	2.985	-0.004	4.0	GoodResponse	1	0.144	423.305	9	44	Target	Win	True
424.305	0.3	Win2	0.6667000000000001	0.004	Yes	2.985	-0.004	4.0	GoodResponse	1	0.144	n/a	9	44	ButtonPress	Win	True
424.411	0.46	Win2	0.6667000000000001	n/a	Yes	2.985	n/a	n/a	GoodResponse	1	n/a	n/a	9	44	Blank	Win	True
424.863	1.45	Win2	0.6667000000000001	n/a	Yes	2.985	n/a	5.0	GoodResponse	1	0.033	423.896	9	44	Feedback	Win	True
426.317	2.985	Win2	0.6667000000000001	n/a	Yes	2.985	n/a	n/a	GoodResponse	1	0.0	n/a	9	44	ISIslide	Win	True
429.326	0.25	Control	0.6739	0.0	Yes	2.874	0.026	n/a	GoodResponse	0	n/a	n/a	9	45	Cue	Neutral	True
429.577	4.1	Control	0.6739	0.0	Yes	2.874	0.001	n/a	GoodResponse	0	n/a	n/a	9	45	Fixation	Neutral	True
433.672	0.23	Control	0.6739	0.004	Yes	2.874	-0.004	4.0	GoodResponse	0	0.211	432.883	9	45	Target	Neutral	True
433.883	0.3	Control	0.6739	0.004	Yes	2.874	-0.004	4.0	GoodResponse	0	0.211	n/a	9	45	ButtonPress	Neutral	True
433.906	0.47	Control	0.6739	n/a	Yes	2.874	n/a	n/a	GoodResponse	0	n/a	n/a	9	45	Blank	Neutral	True
434.374	1.45	Control	0.6739	n/a	Yes	2.874	n/a	5.0	GoodResponse	0	0.034	433.408	9	45	Feedback	Neutral	True
435.829	2.874	Control	0.6739	n/a	Yes	2.874	n/a	n/a	GoodResponse	0	0.0	n/a	9	45	ISIslide	Neutral	True
438.721	0.25	Lose2	0.6809000000000001	0.0	Yes	3.379	0.021	n/a	GoodResponse	0	n/a	n/a	9	46	Cue	AvoidedLoss	True
438.972	4.0	Lose2	0.6809000000000001	0.0	Yes	3.379	0.001	n/a	GoodResponse	0	n/a	n/a	9	46	Fixation	AvoidedLoss	True
442.967	0.22	Lose2	0.6809000000000001	0.004	Yes	3.379	-0.004	4.0	GoodResponse	0	0.181	442.148	9	46	Target	AvoidedLoss	True
443.148	0.3	Lose2	0.6809000000000001	0.004	Yes	3.379	-0.004	4.0	GoodResponse	0	0.181	n/a	9	46	ButtonPress	AvoidedLoss	True
443.201	0.48	Lose2	0.6809000000000001	n/a	Yes	3.379	n/a	n/a	GoodResponse	0	n/a	n/a	9	46	Blank	AvoidedLoss	True
443.669	1.45	Lose2	0.6809000000000001	n/a	Yes	3.379	n/a	5.0	GoodResponse	0	0.008	442.677	9	46	Feedback	AvoidedLoss	True
445.123	3.379	Lose2	0.6809000000000001	n/a	Yes	3.379	n/a	n/a	GoodResponse	0	0.0	n/a	9	46	ISIslide	AvoidedLoss	True
448.517	0.25	Lose2	0.6875	0.0	Yes	2.683	0.017	n/a	GoodResponse	0	n/a	n/a	9	47	Cue	AvoidedLoss	True
448.767	4.0	Lose2	0.6875	0.001	Yes	2.683	0.0	n/a	GoodResponse	0	n/a	n/a	9	47	Fixation	AvoidedLoss	True
452.763	0.21	Lose2	0.6875	0.004	Yes	2.683	-0.004	4.0	GoodResponse	0	0.174	451.937	9	47	Target	AvoidedLoss	True
452.937	0.3	Lose2	0.6875	0.004	Yes	2.683	-0.004	4.0	GoodResponse	0	0.174	n/a	9	47	ButtonPress	AvoidedLoss	True
452.98	0.49	Lose2	0.6875	n/a	Yes	2.683	n/a	n/a	GoodResponse	0	n/a	n/a	9	47	Blank	AvoidedLoss	True
453.465	1.45	Lose2	0.6875	n/a	Yes	2.683	n/a	5.0	GoodResponse	0	0.016	452.481	9	47	Feedback	AvoidedLoss	True
454.919	2.683	Lose2	0.6875	n/a	Yes	2.683	n/a	n/a	GoodResponse	0	0.0	n/a	9	47	ISIslide	AvoidedLoss	True
457.627	0.25	Lose2	0.6735	0.0	No	3.023	0.027	n/a	NoResponse	-1	n/a	n/a	8	48	Cue	Loss	True
457.878	3.95	Lose2	0.6735	0.0	No	3.023	0.001	n/a	NoResponse	-1	n/a	n/a	8	48	Fixation	Loss	True
461.823	0.2	Lose2	0.6735	0.004	No	3.023	-0.004	4.0	NoResponse	-1	0.204	461.027	8	48	Target	Loss	True
462.024	0.5	Lose2	0.6735	n/a	No	3.023	n/a	n/a	NoResponse	-1	n/a	n/a	8	48	Blank	Loss	True
462.027	0.3	Lose2	0.6735	0.004	No	3.023	-0.004	4.0	NoResponse	-1	0.204	n/a	8	48	ButtonPress	Loss	True
462.525	1.45	Lose2	0.6735	n/a	No	3.023	n/a	5.0	NoResponse	-1	0.029	461.554	8	48	Feedback	Loss	True
463.98	3.023	Lose2	0.6735	n/a	No	3.023	n/a	n/a	NoResponse	-1	0.0	n/a	8	48	ISIslide	Loss	True
467.022	0.25	Control	0.68	0.0	Yes	2.878	0.022	n/a	GoodResponse	0	n/a	n/a	8	49	Cue	Neutral	True
467.273	4.0	Control	0.68	0.0	Yes	2.878	0.001	n/a	GoodResponse	0	n/a	n/a	8	49	Fixation	Neutral	True
471.268	0.19	Control	0.68	0.004	Yes	2.878	-0.004	4.0	GoodResponse	0	0.185	470.453	8	49	Target	Neutral	True
471.453	0.3	Control	0.68	0.004	Yes	2.878	-0.004	4.0	GoodResponse	0	0.185	n/a	8	49	ButtonPress	Neutral	True
471.469	0.51	Control	0.68	n/a	Yes	2.878	n/a	n/a	GoodResponse	0	n/a	n/a	8	49	Blank	Neutral	True
471.97	1.45	Control	0.68	n/a	Yes	2.878	n/a	5.0	GoodResponse	0	0.048	471.018	8	49	Feedback	Neutral	True
473.425	2.878	Control	0.68	n/a	Yes	2.878	n/a	n/a	GoodResponse	0	0.0	n/a	8	49	ISIslide	Neutral	True
476.317	0.25	Control	0.6667000000000001	0.0	No	2.783	0.017	n/a	LatePress	0	n/a	n/a	8	50	Cue	Neutral	True
476.567	4.0	Control	0.6667000000000001	0.0	No	2.783	0.0	n/a	LatePress	0	n/a	n/a	8	50	Fixation	Neutral	True
480.563	0.18	Control	0.6667000000000001	0.004	No	2.783	-0.004	4.0	LatePress	0	0.182	479.745	8	50	Target	Neutral	True
480.745	0.3	Control	0.6667000000000001	0.004	No	2.783	-0.004	4.0	LatePress	0	0.182	n/a	8	50	ButtonPress	Neutral	True
480.746	0.52	Control	0.6667000000000001	n/a	No	2.783	n/a	n/a	LatePress	0	n/a	n/a	8	50	Blank	Neutral	True
481.265	1.45	Control	0.6667000000000001	n/a	No	2.783	n/a	5.0	LatePress	0	0.021	480.286	8	50	Feedback	Neutral	True
482.719	2.783	Control	0.6667000000000001	n/a	No	2.783	n/a	n/a	LatePress	0	0.0	n/a	8	50	ISIslide	Neutral	True
485.527	0.25	Control	0.6731	0.0	Yes	2.723	0.027	n/a	GoodResponse	0	n/a	n/a	8	51	Cue	Neutral	True
485.778	3.95	Control	0.6731	0.0	Yes	2.723	0.001	n/a	GoodResponse	0	n/a	n/a	8	51	Fixation	Neutral	True
489.723	0.17	Control	0.6731	0.004	Yes	2.723	-0.004	4.0	GoodResponse	0	0.169	488.892	8	51	Target	Neutral	True
489.892	0.3	Control	0.6731	0.004	Yes	2.723	-0.004	4.0	GoodResponse	0	0.169	n/a	8	51	ButtonPress	Neutral	True
489.907	0.53	Control	0.6731	n/a	Yes	2.723	n/a	n/a	GoodResponse	0	n/a	n/a	8	51	Blank	Neutral	True
490.425	1.45	Control	0.6731	n/a	Yes	2.723	n/a	5.0	GoodResponse	0	0.032	489.457	8	51	Feedback	Neutral	True
491.88	2.723	Control	0.6731	n/a	Yes	2.723	n/a	n/a	GoodResponse	0	0.0	n/a	8	51	ISIslide	Neutral	True
494.621	0.25	Control	0.6604000000000001	0.0	No	2.629	0.021	n/a	NoResponse	0	n/a	n/a	8	52	Cue	Neutral	True
494.872	4.05	Control	0.6604000000000001	0.0	No	2.629	0.001	n/a	NoResponse	0	n/a	n/a	8	52	Fixation	Neutral	True
498.917	0.16	Control	0.6604000000000001	0.004	No	2.629	-0.004	4.0	NoResponse	0	0.209	498.126	8	52	Target	Neutral	True
499.085	0.54	Control	0.6604000000000001	n/a	No	2.629	n/a	n/a	NoResponse	0	n/a	n/a	8	52	Blank	Neutral	True
499.126	0.3	Control	0.6604000000000001	0.004	No	2.629	-0.004	4.0	NoResponse	0	0.209	n/a	8	52	ButtonPress	Neutral	True
499.62	1.45	Control	0.6604000000000001	n/a	No	2.629	n/a	5.0	NoResponse	0	0.007	498.627	8	52	Feedback	Neutral	True
501.074	2.629	Control	0.6604000000000001	n/a	No	2.629	n/a	n/a	NoResponse	0	0.0	n/a	8	52	ISIslide	Neutral	True
503.715	0.25	Win2	0.6481	0.0	No	2.935	0.015	n/a	NoResponse	0	n/a	n/a	8	53	Cue	MissedWin	True
503.966	4.05	Win2	0.6481	0.0	No	2.935	0.001	4.0	NoResponse	0	4.032	506.998	8	53	Fixation	MissedWin	True
507.998	0.3	Win2	0.6481	0.0	No	2.935	0.001	4.0	NoResponse	0	4.032	n/a	8	53	ButtonPress	MissedWin	True
508.011	0.16	Win2	0.6481	0.004	No	2.935	-0.004	n/a	NoResponse	0	n/a	n/a	8	53	Target	MissedWin	True
508.178	0.54	Win2	0.6481	n/a	No	2.935	n/a	n/a	NoResponse	0	n/a	n/a	8	53	Blank	MissedWin	True
508.713	1.45	Win2	0.6481	n/a	No	2.935	n/a	5.0	NoResponse	0	0.036	507.749	8	53	Feedback	MissedWin	True
510.168	2.935	Win2	0.6481	n/a	No	2.935	n/a	n/a	NoResponse	0	0.0	n/a	8	53	ISIslide	MissedWin	True
513.127	0.25	Win2	0.6364	0.0	No	2.723	0.027	n/a	NoResponse	0	n/a	n/a	8	54	Cue	MissedWin	True
513.377	3.95	Win2	0.6364	0.0	No	2.723	0.0	n/a	NoResponse	0	n/a	n/a	8	54	Fixation	MissedWin	True
517.339	0.17	Win2	0.6364	0.0	No	2.723	0.012	4.0	NoResponse	0	0.21	516.549	8	54	Target	MissedWin	True
517.506	0.53	Win2	0.6364	n/a	No	2.723	n/a	n/a	NoResponse	0	n/a	n/a	8	54	Blank	MissedWin	True
517.549	0.3	Win2	0.6364	0.0	No	2.723	0.012	4.0	NoResponse	0	0.21	n/a	8	54	ButtonPress	MissedWin	True
518.025	1.45	Win2	0.6364	n/a	No	2.723	n/a	5.0	NoResponse	0	0.041	517.066	8	54	Feedback	MissedWin	True
519.479	2.723	Win2	0.6364	n/a	No	2.723	n/a	n/a	NoResponse	0	0.0	n/a	8	54	ISIslide	MissedWin	True
522.22	0.25	Control	0.625	0.0	No	3.03	0.02	n/a	NoResponse	0	n/a	n/a	8	55	Cue	Neutral	True
522.471	3.95	Control	0.625	0.0	No	3.03	0.001	n/a	NoResponse	0	n/a	n/a	8	55	Fixation	Neutral	True
526.416	0.18	Control	0.625	0.004	No	3.03	-0.004	4.0	NoResponse	0	0.223	525.639	8	55	Target	Neutral	True
526.6	0.52	Control	0.625	n/a	No	3.03	n/a	n/a	NoResponse	0	n/a	n/a	8	55	Blank	Neutral	True
526.639	0.3	Control	0.625	0.004	No	3.03	-0.004	4.0	NoResponse	0	0.223	n/a	8	55	ButtonPress	Neutral	True
527.118	1.45	Control	0.625	n/a	No	3.03	n/a	5.0	NoResponse	0	0.021	526.139	8	55	Feedback	Neutral	True
528.573	3.03	Control	0.625	n/a	No	3.03	n/a	n/a	NoResponse	0	0.0	n/a	8	55	ISIslide	Neutral	True
531.615	0.25	Control	0.614	0.0	No	2.835	0.015	n/a	LatePress	0	n/a	n/a	8	56	Cue	Neutral	True
531.866	3.95	Control	0.614	0.0	No	2.835	0.001	n/a	LatePress	0	n/a	n/a	8	56	Fixation	Neutral	True
535.811	0.19	Control	0.614	0.004	No	2.835	-0.004	4.0	LatePress	0	0.196	535.007	8	56	Target	Neutral	True
536.007	0.3	Control	0.614	0.004	No	2.835	-0.004	4.0	LatePress	0	0.196	n/a	8	56	ButtonPress	Neutral	True
536.012	0.51	Control	0.614	n/a	No	2.835	n/a	n/a	LatePress	0	n/a	n/a	8	56	Blank	Neutral	True
536.513	1.45	Control	0.614	n/a	No	2.835	n/a	5.0	LatePress	0	0.04	535.553	8	56	Feedback	Neutral	True
537.967	2.835	Control	0.614	n/a	No	2.835	n/a	n/a	LatePress	0	0.0	n/a	8	56	ISIslide	Neutral	True
540.826	0.25	Control	0.6207	0.0	Yes	3.474	0.026	n/a	GoodResponse	0	n/a	n/a	8	57	Cue	Neutral	True
541.077	4.0	Control	0.6207	0.0	Yes	3.474	0.001	n/a	GoodResponse	0	n/a	n/a	8	57	Fixation	Neutral	True
545.072	0.2	Control	0.6207	0.004	Yes	3.474	-0.004	4.0	GoodResponse	0	0.186	544.258	8	57	Target	Neutral	True
545.258	0.3	Control	0.6207	0.004	Yes	3.474	-0.004	4.0	GoodResponse	0	0.186	n/a	8	57	ButtonPress	Neutral	True
545.273	0.5	Control	0.6207	n/a	Yes	3.474	n/a	n/a	GoodResponse	0	n/a	n/a	8	57	Blank	Neutral	True
545.774	1.45	Control	0.6207	n/a	Yes	3.474	n/a	5.0	GoodResponse	0	0.047	544.821	8	57	Feedback	Neutral	True
547.229	3.474	Control	0.6207	n/a	Yes	3.474	n/a	n/a	GoodResponse	0	0.0	n/a	8	57	ISIslide	Neutral	True
550.722	0.25	Win2	0.6102000000000001	0.0	No	2.728	0.022	n/a	PrematurePress	0	n/a	n/a	8	58	Cue	MissedWin	True
550.973	4.05	Win2	0.6102000000000001	0.0	No	2.728	0.001	n/a	PrematurePress	0	n/a	n/a	8	58	Fixation	MissedWin	True
555.018	0.21	Win2	0.6102000000000001	0.004	No	2.728	-0.004	4.0	PrematurePress	0	0.028	554.046	8	58	Target	MissedWin	True
555.046	0.3	Win2	0.6102000000000001	0.004	No	2.728	-0.004	4.0	PrematurePress	0	0.028	n/a	8	58	ButtonPress	MissedWin	True
555.236	0.49	Win2	0.6102000000000001	n/a	No	2.728	n/a	n/a	PrematurePress	0	n/a	n/a	8	58	Blank	MissedWin	True
555.721	1.45	Win2	0.6102000000000001	n/a	No	2.728	n/a	5.0	PrematurePress	0	0.006	554.727	8	58	Feedback	MissedWin	True
557.175	2.728	Win2	0.6102000000000001	n/a	No	2.728	n/a	n/a	PrematurePress	0	0.0	n/a	8	58	ISIslide	MissedWin	True
559.916	0.25	Lose2	0.6167	0.001	Yes	2.684	0.016	n/a	GoodResponse	0	n/a	n/a	8	59	Cue	AvoidedLoss	True
560.167	4.0	Lose2	0.6167	0.0	Yes	2.684	0.001	n/a	GoodResponse	0	n/a	n/a	8	59	Fixation	AvoidedLoss	True
564.162	0.22	Lose2	0.6167	0.004	Yes	2.684	-0.004	4.0	GoodResponse	0	0.195	563.357	8	59	Target	AvoidedLoss	True
564.357	0.3	Lose2	0.6167	0.004	Yes	2.684	-0.004	4.0	GoodResponse	0	0.195	n/a	8	59	ButtonPress	AvoidedLoss	True
564.397	0.48	Lose2	0.6167	n/a	Yes	2.684	n/a	n/a	GoodResponse	0	n/a	n/a	8	59	Blank	AvoidedLoss	True
564.865	1.45	Lose2	0.6167	n/a	Yes	2.684	n/a	5.0	GoodResponse	0	0.03	563.895	8	59	Feedback	AvoidedLoss	True
566.319	2.684	Lose2	0.6167	n/a	Yes	2.684	n/a	n/a	GoodResponse	0	0.0	n/a	8	59	ISIslide	AvoidedLoss	True
569.027	0.25	Control	0.623	0.0	Yes	2.673	0.027	n/a	GoodResponse	0	n/a	n/a	8	60	Cue	Neutral	True
569.278	4.0	Control	0.623	0.0	Yes	2.673	0.001	n/a	GoodResponse	0	n/a	n/a	8	60	Fixation	Neutral	True
573.273	0.23	Control	0.623	0.004	Yes	2.673	-0.004	4.0	GoodResponse	0	0.208	572.481	8	60	Target	Neutral	True
573.481	0.3	Control	0.623	0.004	Yes	2.673	-0.004	4.0	GoodResponse	0	0.208	n/a	8	60	ButtonPress	Neutral	True
573.507	0.47	Control	0.623	n/a	Yes	2.673	n/a	n/a	GoodResponse	0	n/a	n/a	8	60	Blank	Neutral	True
573.975	1.45	Control	0.623	n/a	Yes	2.673	n/a	5.0	GoodResponse	0	0.042	573.017	8	60	Feedback	Neutral	True
575.43	2.673	Control	0.623	n/a	Yes	2.673	n/a	n/a	GoodResponse	0	0.0	n/a	8	60	ISIslide	Neutral	True
578.121	0.25	Lose2	0.629	0.0	Yes	2.979	0.021	n/a	GoodResponse	0	n/a	n/a	8	61	Cue	AvoidedLoss	True
578.372	4.0	Lose2	0.629	0.0	Yes	2.979	0.001	n/a	GoodResponse	0	n/a	n/a	8	61	Fixation	AvoidedLoss	True
582.367	0.24	Lose2	0.629	0.004	Yes	2.979	-0.004	4.0	GoodResponse	0	0.193	581.56	8	61	Target	AvoidedLoss	True
582.56	0.3	Lose2	0.629	0.004	Yes	2.979	-0.004	4.0	GoodResponse	0	0.193	n/a	8	61	ButtonPress	AvoidedLoss	True
582.618	0.46	Lose2	0.629	n/a	Yes	2.979	n/a	n/a	GoodResponse	0	n/a	n/a	8	61	Blank	AvoidedLoss	True
583.069	1.45	Lose2	0.629	n/a	Yes	2.979	n/a	5.0	GoodResponse	0	0.02	582.089	8	61	Feedback	AvoidedLoss	True
584.523	2.979	Lose2	0.629	n/a	Yes	2.979	n/a	n/a	GoodResponse	0	0.0	n/a	8	61	ISIslide	AvoidedLoss	True
587.516	0.25	Lose2	0.619	0.0	No	2.884	0.016	n/a	NoResponse	-1	n/a	n/a	7	62	Cue	Loss	True
587.766	3.9	Lose2	0.619	0.0	No	2.884	0.0	n/a	NoResponse	-1	n/a	n/a	7	62	Fixation	Loss	True
591.678	0.25	Lose2	0.619	0.0	No	2.884	0.012	4.0	NoResponse	-1	0.246	590.924	7	62	Target	Loss	True
591.912	0.45	Lose2	0.619	n/a	No	2.884	n/a	n/a	NoResponse	-1	n/a	n/a	7	62	Blank	Loss	True
591.924	0.3	Lose2	0.619	0.0	No	2.884	0.012	4.0	NoResponse	-1	0.246	n/a	7	62	ButtonPress	Loss	True
592.363	1.45	Lose2	0.619	n/a	No	2.884	n/a	5.0	NoResponse	-1	0.043	591.406	7	62	Feedback	Loss	True
593.818	2.884	Lose2	0.619	n/a	No	2.884	n/a	n/a	NoResponse	-1	0.0	n/a	7	62	ISIslide	Loss	True
596.727	0.25	Lose2	0.625	0.0	Yes	2.623	0.027	n/a	GoodResponse	0	n/a	n/a	7	63	Cue	AvoidedLoss	True
596.977	4.05	Lose2	0.625	0.0	Yes	2.623	0.0	n/a	GoodResponse	0	n/a	n/a	7	63	Fixation	AvoidedLoss	True
601.023	0.26	Lose2	0.625	0.004	Yes	2.623	-0.004	4.0	GoodResponse	0	0.225	600.248	7	63	Target	AvoidedLoss	True
601.248	0.3	Lose2	0.625	0.004	Yes	2.623	-0.004	4.0	GoodResponse	0	0.225	n/a	7	63	ButtonPress	AvoidedLoss	True
601.29	0.44	Lose2	0.625	n/a	Yes	2.623	n/a	n/a	GoodResponse	0	n/a	n/a	7	63	Blank	AvoidedLoss	True
601.725	1.45	Lose2	0.625	n/a	Yes	2.623	n/a	5.0	GoodResponse	0	0.047	600.772	7	63	Feedback	AvoidedLoss	True
603.179	2.623	Lose2	0.625	n/a	Yes	2.623	n/a	n/a	GoodResponse	0	0.0	n/a	7	63	ISIslide	AvoidedLoss	True
605.82	0.25	Win2	0.6308	0.0	Yes	3.13	0.02	n/a	GoodResponse	1	n/a	n/a	8	64	Cue	Win	True
606.071	4.15	Win2	0.6308	0.0	Yes	3.13	0.001	n/a	GoodResponse	1	n/a	n/a	8	64	Fixation	Win	True
610.217	0.27	Win2	0.6308	0.003	Yes	3.13	-0.003	4.0	GoodResponse	1	0.207	609.424	8	64	Target	Win	True
610.424	0.3	Win2	0.6308	0.003	Yes	3.13	-0.003	4.0	GoodResponse	1	0.207	n/a	8	64	ButtonPress	Win	True
610.501	0.43	Win2	0.6308	n/a	Yes	3.13	n/a	n/a	GoodResponse	1	n/a	n/a	8	64	Blank	Win	True
610.919	1.45	Win2	0.6308	n/a	Yes	3.13	n/a	5.0	GoodResponse	1	0.024	609.943	8	64	Feedback	Win	True
612.373	3.13	Win2	0.6308	n/a	Yes	3.13	n/a	n/a	GoodResponse	1	0.0	n/a	8	64	ISIslide	Win	True
615.516	0.25	Control	0.6364	0.0	Yes	2.784	0.016	n/a	GoodResponse	0	n/a	n/a	8	65	Cue	Neutral	True
615.767	4.0	Control	0.6364	0.0	Yes	2.784	0.001	n/a	GoodResponse	0	n/a	n/a	8	65	Fixation	Neutral	True
619.762	0.28	Control	0.6364	0.004	Yes	2.784	-0.004	4.0	GoodResponse	0	0.211	618.973	8	65	Target	Neutral	True
619.973	0.3	Control	0.6364	0.004	Yes	2.784	-0.004	4.0	GoodResponse	0	0.211	n/a	8	65	ButtonPress	Neutral	True
620.046	0.42	Control	0.6364	n/a	Yes	2.784	n/a	n/a	GoodResponse	0	n/a	n/a	8	65	Blank	Neutral	True
620.464	1.45	Control	0.6364	n/a	Yes	2.784	n/a	5.0	GoodResponse	0	0.039	619.503	8	65	Feedback	Neutral	True
621.918	2.784	Control	0.6364	n/a	Yes	2.784	n/a	n/a	GoodResponse	0	0.0	n/a	8	65	ISIslide	Neutral	True
624.727	0.25	Win2	0.6418	0.0	Yes	2.773	0.027	n/a	GoodResponse	1	n/a	n/a	9	66	Cue	Win	True
624.978	3.9	Win2	0.6418	0.0	Yes	2.773	0.001	n/a	GoodResponse	1	n/a	n/a	9	66	Fixation	Win	True
628.873	0.29	Win2	0.6418	0.004	Yes	2.773	-0.004	4.0	GoodResponse	1	0.198	628.071	9	66	Target	Win	True
629.071	0.3	Win2	0.6418	0.004	Yes	2.773	-0.004	4.0	GoodResponse	1	0.198	n/a	9	66	ButtonPress	Win	True
629.174	0.41	Win2	0.6418	n/a	Yes	2.773	n/a	n/a	GoodResponse	1	n/a	n/a	9	66	Blank	Win	True
629.575	1.45	Win2	0.6418	n/a	Yes	2.773	n/a	5.0	GoodResponse	1	0.001	628.576	9	66	Feedback	Win	True
631.029	2.773	Win2	0.6418	n/a	Yes	2.773	n/a	n/a	GoodResponse	1	0.0	n/a	9	66	ISIslide	Win	True
633.821	0.25	Control	0.6470999999999999	0.0	Yes	2.729	0.021	n/a	GoodResponse	0	n/a	n/a	9	67	Cue	Neutral	True
634.072	3.95	Control	0.6470999999999999	0.0	Yes	2.729	0.001	n/a	GoodResponse	0	n/a	n/a	9	67	Fixation	Neutral	True
638.017	0.3	Control	0.6470999999999999	0.004	Yes	2.729	-0.004	4.0	GoodResponse	0	0.226	637.243	9	67	Target	Neutral	True
638.243	0.3	Control	0.6470999999999999	0.004	Yes	2.729	-0.004	4.0	GoodResponse	0	0.226	n/a	9	67	ButtonPress	Neutral	True
638.318	0.4	Control	0.6470999999999999	n/a	Yes	2.729	n/a	n/a	GoodResponse	0	n/a	n/a	9	67	Blank	Neutral	True
638.719	1.45	Control	0.6470999999999999	n/a	Yes	2.729	n/a	5.0	GoodResponse	0	0.028	637.747	9	67	Feedback	Neutral	True
640.173	2.729	Control	0.6470999999999999	n/a	Yes	2.729	n/a	n/a	GoodResponse	0	0.0	n/a	9	67	ISIslide	Neutral	True
642.931	0.25	Win2	0.6522	0.0	Yes	3.069	0.031	n/a	GoodResponse	1	n/a	n/a	10	68	Cue	Win	True
643.182	4.0	Win2	0.6522	0.0	Yes	3.069	0.001	n/a	GoodResponse	1	n/a	n/a	10	68	Fixation	Win	True
647.177	0.31	Win2	0.6522	0.004	Yes	3.069	-0.004	4.0	GoodResponse	1	0.201	646.378	10	68	Target	Win	True
647.378	0.3	Win2	0.6522	0.004	Yes	3.069	-0.004	4.0	GoodResponse	1	0.201	n/a	10	68	ButtonPress	Win	True
647.495	0.39	Win2	0.6522	n/a	Yes	3.069	n/a	n/a	GoodResponse	1	n/a	n/a	10	68	Blank	Win	True
647.879	1.45	Win2	0.6522	n/a	Yes	3.069	n/a	5.0	GoodResponse	1	0.039	646.918	10	68	Feedback	Win	True
649.334	3.069	Win2	0.6522	n/a	Yes	3.069	n/a	n/a	GoodResponse	1	0.0	n/a	10	68	ISIslide	Win	True
652.426	0.25	Win2	0.6570999999999999	0.0	Yes	3.224	0.026	n/a	GoodResponse	1	n/a	n/a	11	69	Cue	Win	True
652.677	3.95	Win2	0.6570999999999999	0.0	Yes	3.224	0.001	n/a	GoodResponse	1	n/a	n/a	11	69	Fixation	Win	True
656.622	0.32	Win2	0.6570999999999999	0.004	Yes	3.224	-0.004	4.0	GoodResponse	1	0.21	655.832	11	69	Target	Win	True
656.832	0.3	Win2	0.6570999999999999	0.004	Yes	3.224	-0.004	4.0	GoodResponse	1	0.21	n/a	11	69	ButtonPress	Win	True
656.957	0.38	Win2	0.6570999999999999	n/a	Yes	3.224	n/a	n/a	GoodResponse	1	n/a	n/a	11	69	Blank	Win	True
657.324	1.45	Win2	0.6570999999999999	n/a	Yes	3.224	n/a	5.0	GoodResponse	1	0.009	656.333	11	69	Feedback	Win	True
658.779	3.224	Win2	0.6570999999999999	n/a	Yes	3.224	n/a	n/a	GoodResponse	1	0.0	n/a	11	69	ISIslide	Win	True
662.022	0.25	Lose2	0.662	0.0	Yes	3.028	0.022	n/a	GoodResponse	0	n/a	n/a	11	70	Cue	AvoidedLoss	True
662.272	4.05	Lose2	0.662	0.001	Yes	3.028	0.0	n/a	GoodResponse	0	n/a	n/a	11	70	Fixation	AvoidedLoss	True
666.318	0.32	Lose2	0.662	0.004	Yes	3.028	-0.004	4.0	GoodResponse	0	0.19	665.508	11	70	Target	AvoidedLoss	True
666.508	0.3	Lose2	0.662	0.004	Yes	3.028	-0.004	4.0	GoodResponse	0	0.19	n/a	11	70	ButtonPress	AvoidedLoss	True
666.652	0.38	Lose2	0.662	n/a	Yes	3.028	n/a	n/a	GoodResponse	0	n/a	n/a	11	70	Blank	AvoidedLoss	True
667.02	1.45	Lose2	0.662	n/a	Yes	3.028	n/a	5.0	GoodResponse	0	0.019	666.039	11	70	Feedback	AvoidedLoss	True
668.474	3.028	Lose2	0.662	n/a	Yes	3.028	n/a	n/a	GoodResponse	0	0.0	n/a	11	70	ISIslide	AvoidedLoss	True
671.517	0.25	Win2	0.6667000000000001	0.0	Yes	2.733	0.017	n/a	GoodResponse	1	n/a	n/a	12	71	Cue	Win	True
671.768	4.05	Win2	0.6667000000000001	0.0	Yes	2.733	0.001	n/a	GoodResponse	1	n/a	n/a	12	71	Fixation	Win	True
675.813	0.32	Win2	0.6667000000000001	0.004	Yes	2.733	-0.004	4.0	GoodResponse	1	0.195	675.008	12	71	Target	Win	True
676.008	0.3	Win2	0.6667000000000001	0.004	Yes	2.733	-0.004	4.0	GoodResponse	1	0.195	n/a	12	71	ButtonPress	Win	True
676.147	0.38	Win2	0.6667000000000001	n/a	Yes	2.733	n/a	n/a	GoodResponse	1	n/a	n/a	12	71	Blank	Win	True
676.515	1.45	Win2	0.6667000000000001	n/a	Yes	2.733	n/a	5.0	GoodResponse	1	0.036	675.551	12	71	Feedback	Win	True
677.969	2.733	Win2	0.6667000000000001	n/a	Yes	2.733	n/a	n/a	GoodResponse	1	0.0	n/a	12	71	ISIslide	Win	True
680.728	0.25	Win2	0.6712	0.0	Yes	2.772	0.028	n/a	GoodResponse	1	n/a	n/a	13	72	Cue	Win	True
680.978	4.1	Win2	0.6712	0.0	Yes	2.772	0.0	n/a	GoodResponse	1	n/a	n/a	13	72	Fixation	Win	True
685.074	0.31	Win2	0.6712	0.004	Yes	2.772	-0.004	4.0	GoodResponse	1	0.188	684.262	13	72	Target	Win	True
685.262	0.3	Win2	0.6712	0.004	Yes	2.772	-0.004	4.0	GoodResponse	1	0.188	n/a	13	72	ButtonPress	Win	True
685.392	0.39	Win2	0.6712	n/a	Yes	2.772	n/a	n/a	GoodResponse	1	n/a	n/a	13	72	Blank	Win	True
685.776	1.45	Win2	0.6712	n/a	Yes	2.772	n/a	5.0	GoodResponse	1	0.044	684.82	13	72	Feedback	Win	True
687.23	2.772	Win2	0.6712	n/a	Yes	2.772	n/a	n/a	GoodResponse	1	0.0	n/a	13	72	ISIslide	Win	True
690.022	0.25	Win2	0.6757	0.0	Yes	2.678	0.022	n/a	GoodResponse	1	n/a	n/a	14	73	Cue	Win	True
690.273	4.0	Win2	0.6757	0.0	Yes	2.678	0.001	n/a	GoodResponse	1	n/a	n/a	14	73	Fixation	Win	True
694.268	0.3	Win2	0.6757	0.004	Yes	2.678	-0.004	4.0	GoodResponse	1	0.223	693.491	14	73	Target	Win	True
694.491	0.3	Win2	0.6757	0.004	Yes	2.678	-0.004	4.0	GoodResponse	1	0.223	n/a	14	73	ButtonPress	Win	True
694.569	0.4	Win2	0.6757	n/a	Yes	2.678	n/a	n/a	GoodResponse	1	n/a	n/a	14	73	Blank	Win	True
694.97	1.45	Win2	0.6757	n/a	Yes	2.678	n/a	5.0	GoodResponse	1	0.021	693.991	14	73	Feedback	Win	True
696.425	2.678	Win2	0.6757	n/a	Yes	2.678	n/a	n/a	GoodResponse	1	0.0	n/a	14	73	ISIslide	Win	True
699.116	0.25	Lose2	0.68	0.0	Yes	2.634	0.016	n/a	GoodResponse	0	n/a	n/a	14	74	Cue	AvoidedLoss	True
699.367	4.05	Lose2	0.68	0.0	Yes	2.634	0.001	n/a	GoodResponse	0	n/a	n/a	14	74	Fixation	AvoidedLoss	True
703.412	0.29	Lose2	0.68	0.004	Yes	2.634	-0.004	4.0	GoodResponse	0	0.213	702.625	14	74	Target	AvoidedLoss	True
703.625	0.3	Lose2	0.68	0.004	Yes	2.634	-0.004	4.0	GoodResponse	0	0.213	n/a	14	74	ButtonPress	AvoidedLoss	True
703.713	0.41	Lose2	0.68	n/a	Yes	2.634	n/a	n/a	GoodResponse	0	n/a	n/a	14	74	Blank	AvoidedLoss	True
704.114	1.45	Lose2	0.68	n/a	Yes	2.634	n/a	5.0	GoodResponse	0	0.047	703.161	14	74	Feedback	AvoidedLoss	True
705.569	2.634	Lose2	0.68	n/a	Yes	2.634	n/a	n/a	GoodResponse	0	0.0	n/a	14	74	ISIslide	AvoidedLoss	True
708.227	0.25	Lose2	0.6842	0.0	Yes	2.923	0.027	n/a	GoodResponse	0	n/a	n/a	14	75	Cue	AvoidedLoss	True
708.477	3.95	Lose2	0.6842	0.0	Yes	2.923	0.0	n/a	GoodResponse	0	n/a	n/a	14	75	Fixation	AvoidedLoss	True
712.422	0.28	Lose2	0.6842	0.005	Yes	2.923	-0.005	4.0	GoodResponse	0	0.209	711.631	14	75	Target	AvoidedLoss	True
712.631	0.3	Lose2	0.6842	0.005	Yes	2.923	-0.005	4.0	GoodResponse	0	0.209	n/a	14	75	ButtonPress	AvoidedLoss	True
712.707	0.42	Lose2	0.6842	n/a	Yes	2.923	n/a	n/a	GoodResponse	0	n/a	n/a	14	75	Blank	AvoidedLoss	True
713.125	1.45	Lose2	0.6842	n/a	Yes	2.923	n/a	5.0	GoodResponse	0	0.011	712.136	14	75	Feedback	AvoidedLoss	True
714.579	2.923	Lose2	0.6842	n/a	Yes	2.923	n/a	n/a	GoodResponse	0	0.0	n/a	14	75	ISIslide	AvoidedLoss	True
717.521	0.25	Control	0.6883	0.0	Yes	3.229	0.021	n/a	GoodResponse	0	n/a	n/a	14	76	Cue	Neutral	True
717.772	4.05	Control	0.6883	0.0	Yes	3.229	0.001	n/a	GoodResponse	0	n/a	n/a	14	76	Fixation	Neutral	True
721.817	0.27	Control	0.6883	0.004	Yes	3.229	-0.004	4.0	GoodResponse	0	0.206	721.023	14	76	Target	Neutral	True
722.023	0.3	Control	0.6883	0.004	Yes	3.229	-0.004	4.0	GoodResponse	0	0.206	n/a	14	76	ButtonPress	Neutral	True
722.101	0.43	Control	0.6883	n/a	Yes	3.229	n/a	n/a	GoodResponse	0	n/a	n/a	14	76	Blank	Neutral	True
722.519	1.45	Control	0.6883	n/a	Yes	3.229	n/a	5.0	GoodResponse	0	0.032	721.551	14	76	Feedback	Neutral	True
723.974	3.229	Control	0.6883	n/a	Yes	3.229	n/a	n/a	GoodResponse	0	0.0	n/a	14	76	ISIslide	Neutral	True
727.217	0.25	Lose2	0.6923	0.0	Yes	2.583	0.017	n/a	GoodResponse	0	n/a	n/a	14	77	Cue	AvoidedLoss	True
727.467	3.95	Lose2	0.6923	0.0	Yes	2.583	0.0	n/a	GoodResponse	0	n/a	n/a	14	77	Fixation	AvoidedLoss	True
731.413	0.26	Lose2	0.6923	0.004	Yes	2.583	-0.004	4.0	GoodResponse	0	0.217	730.63	14	77	Target	AvoidedLoss	True
731.63	0.3	Lose2	0.6923	0.004	Yes	2.583	-0.004	4.0	GoodResponse	0	0.217	n/a	14	77	ButtonPress	AvoidedLoss	True
731.68	0.44	Lose2	0.6923	n/a	Yes	2.583	n/a	n/a	GoodResponse	0	n/a	n/a	14	77	Blank	AvoidedLoss	True
732.115	1.45	Lose2	0.6923	n/a	Yes	2.583	n/a	5.0	GoodResponse	0	0.046	731.161	14	77	Feedback	AvoidedLoss	True
733.569	2.583	Lose2	0.6923	n/a	Yes	2.583	n/a	n/a	GoodResponse	0	0.0	n/a	14	77	ISIslide	AvoidedLoss	True
