onset	duration	cue_type	current_mean_accuracy	duration_error	is_hit	isi_adjusted	onset_delay	response	response_type	reward	rt	rt_time	total_reward	trial_number	trial_phase	trial_type	one_press
11.106	0.25	Control	1.0	0.0	Yes	2.944	0.006	3.0	GoodResponse	0	0.223	10.329	0	0	Cue	Neutral	False
11.329	0.3	Control	1.0	0.0	Yes	2.944	0.006	3.0	GoodResponse	0	0.223	n/a	0	0	ButtonPress	Neutral	False
11.357	3.85	Control	1.0	0.0	Yes	2.944	0.001	3.0	GoodResponse	0	0.576	10.933	0	0	Fixation	Neutral	False
11.933	0.3	Control	1.0	0.0	Yes	2.944	0.001	3.0	GoodResponse	0	0.576	n/a	0	0	ButtonPress	Neutral	False
15.202	0.4	Control	1.0	0.004	Yes	2.944	-0.004	3.0	GoodResponse	0	0.211	14.413	0	0	Target	Neutral	False
15.413	0.3	Control	1.0	0.004	Yes	2.944	-0.004	3.0	GoodResponse	0	0.211	n/a	0	0	ButtonPress	Neutral	False
15.603	0.3	Control	1.0	n/a	Yes	2.944	n/a	n/a	GoodResponse	0	n/a	n/a	0	0	Blank	Neutral	False
15.904	1.45	Control	1.0	n/a	Yes	2.944	n/a	5.0	GoodResponse	0	0.023	14.927	0	0	Feedback	Neutral	False
17.358	2.944	Control	1.0	n/a	Yes	2.944	n/a	n/a	GoodResponse	0	0.0	n/a	0	0	ISIslide	Neutral	False
20.317	0.25	Lose2	1.0	0.0	Yes	2.783	0.017	n/a	GoodResponse	0	n/a	n/a	0	1	Cue	AvoidedLoss	True
20.568	4.0	Lose2	1.0	0.0	Yes	2.783	0.001	n/a	GoodResponse	0	n/a	n/a	0	1	Fixation	AvoidedLoss	True
24.563	0.39	Lose2	1.0	0.004	Yes	2.783	-0.004	3.0	GoodResponse	0	0.201	23.764	0	1	Target	AvoidedLoss	True
24.764	0.3	Lose2	1.0	0.004	Yes	2.783	-0.004	3.0	GoodResponse	0	0.201	n/a	0	1	ButtonPress	AvoidedLoss	True
24.965	0.31	Lose2	1.0	n/a	Yes	2.783	n/a	n/a	GoodResponse	0	n/a	n/a	0	1	Blank	AvoidedLoss	True
25.265	1.45	Lose2	1.0	n/a	Yes	2.783	n/a	5.0	GoodResponse	0	0.028	24.293	0	1	Feedback	AvoidedLoss	True
26.72	2.783	Lose2	1.0	n/a	Yes	2.783	n/a	n/a	GoodResponse	0	0.0	n/a	0	1	ISIslide	AvoidedLoss	True
29.528	0.25	Control	1.0	0.0	Yes	2.572	0.028	n/a	GoodResponse	0	n/a	n/a	0	2	Cue	Neutral	True
29.779	4.1	Control	1.0	0.0	Yes	2.572	0.001	n/a	GoodResponse	0	n/a	n/a	0	2	Fixation	Neutral	True
33.875	0.38	Control	1.0	0.003	Yes	2.572	-0.003	3.0	GoodResponse	0	0.173	33.048	0	2	Target	Neutral	True
34.048	0.3	Control	1.0	0.003	Yes	2.572	-0.003	3.0	GoodResponse	0	0.173	n/a	0	2	ButtonPress	Neutral	True
34.259	0.32	Control	1.0	n/a	Yes	2.572	n/a	n/a	GoodResponse	0	n/a	n/a	0	2	Blank	Neutral	True
34.577	1.45	Control	1.0	n/a	Yes	2.572	n/a	5.0	GoodResponse	0	0.032	33.609	0	2	Feedback	Neutral	True
36.031	2.572	Control	1.0	n/a	Yes	2.572	n/a	n/a	GoodResponse	0	0.0	n/a	0	2	ISIslide	Neutral	True
38.622	0.25	Win2	1.0	0.0	Yes	2.828	0.022	n/a	GoodResponse	1	n/a	n/a	1	3	Cue	Win	True
38.873	3.95	Win2	1.0	0.0	Yes	2.828	0.001	n/a	GoodResponse	1	n/a	n/a	1	3	Fixation	Win	True
42.818	0.37	Win2	1.0	0.004	Yes	2.828	-0.004	3.0	GoodResponse	1	0.19	42.008	1	3	Target	Win	True
43.008	0.3	Win2	1.0	0.004	Yes	2.828	-0.004	3.0	GoodResponse	1	0.19	n/a	1	3	ButtonPress	Win	True
43.202	0.33	Win2	1.0	n/a	Yes	2.828	n/a	n/a	GoodResponse	1	n/a	n/a	1	3	Blank	Win	True
43.52	1.45	Win2	1.0	n/a	Yes	2.828	n/a	5.0	GoodResponse	1	0.016	42.536	1	3	Feedback	Win	True
44.974	2.828	Win2	1.0	n/a	Yes	2.828	n/a	n/a	GoodResponse	1	0.0	n/a	1	3	ISIslide	Win	True
47.816	0.25	Win2	1.0	0.0	Yes	3.284	0.016	n/a	GoodResponse	1	n/a	n/a	2	4	Cue	Win	True
48.067	4.0	Win2	1.0	0.0	Yes	3.284	0.001	n/a	GoodResponse	1	n/a	n/a	2	4	Fixation	Win	True
52.062	0.36	Win2	1.0	0.004	Yes	3.284	-0.004	3.0	GoodResponse	1	0.192	51.254	2	4	Target	Win	True
52.254	0.3	Win2	1.0	0.004	Yes	3.284	-0.004	3.0	GoodResponse	1	0.192	n/a	2	4	ButtonPress	Win	True
52.43	0.34	Win2	1.0	n/a	Yes	3.284	n/a	n/a	GoodResponse	1	n/a	n/a	2	4	Blank	Win	True
52.764	1.45	Win2	1.0	n/a	Yes	3.284	n/a	5.0	GoodResponse	1	0.04	51.804	2	4	Feedback	Win	True
54.219	3.284	Win2	1.0	n/a	Yes	3.284	n/a	n/a	GoodResponse	1	0.0	n/a	2	4	ISIslide	Win	True
57.529	0.25	Win2	1.0	0.0	Yes	2.771	0.029	n/a	GoodResponse	1	n/a	n/a	3	5	Cue	Win	True
57.78	4.0	Win2	1.0	0.0	Yes	2.771	0.001	n/a	GoodResponse	1	n/a	n/a	3	5	Fixation	Win	True
61.775	0.35	Win2	1.0	0.004	Yes	2.771	-0.004	3.0	GoodResponse	1	0.196	60.971	3	5	Target	Win	True
61.971	0.3	Win2	1.0	0.004	Yes	2.771	-0.004	3.0	GoodResponse	1	0.196	n/a	3	5	ButtonPress	Win	True
62.126	0.35	Win2	1.0	n/a	Yes	2.771	n/a	n/a	GoodResponse	1	n/a	n/a	3	5	Blank	Win	True
62.477	1.45	Win2	1.0	n/a	Yes	2.771	n/a	5.0	GoodResponse	1	0.034	61.511	3	5	Feedback	Win	True
63.931	2.771	Win2	1.0	n/a	Yes	2.771	n/a	n/a	GoodResponse	1	0.0	n/a	3	5	ISIslide	Win	True
66.723	0.25	Lose2	1.0	0.0	Yes	2.727	0.023	n/a	GoodResponse	0	n/a	n/a	3	6	Cue	AvoidedLoss	True
66.974	3.95	Lose2	1.0	0.0	Yes	2.727	0.001	n/a	GoodResponse	0	n/a	n/a	3	6	Fixation	AvoidedLoss	True
70.919	0.34	Lose2	1.0	0.004	Yes	2.727	-0.004	3.0	GoodResponse	0	0.191	70.11	3	6	Target	AvoidedLoss	True
71.11	0.3	Lose2	1.0	0.004	Yes	2.727	-0.004	3.0	GoodResponse	0	0.191	n/a	3	6	ButtonPress	AvoidedLoss	True
71.27	0.36	Lose2	1.0	n/a	Yes	2.727	n/a	n/a	GoodResponse	0	n/a	n/a	3	6	Blank	AvoidedLoss	True
71.621	1.45	Lose2	1.0	n/a	Yes	2.727	n/a	5.0	GoodResponse	0	0.013	70.634	3	6	Feedback	AvoidedLoss	True
73.075	2.727	Lose2	1.0	n/a	Yes	2.727	n/a	n/a	GoodResponse	0	0.0	n/a	3	6	ISIslide	AvoidedLoss	True
75.817	0.25	Lose2	1.0	0.0	Yes	4.033	0.017	n/a	GoodResponse	0	n/a	n/a	3	7	Cue	AvoidedLoss	True
76.068	4.05	Lose2	1.0	0.0	Yes	4.033	0.001	n/a	GoodResponse	0	n/a	n/a	3	7	Fixation	AvoidedLoss	True
80.113	0.33	Lose2	1.0	0.004	Yes	4.033	-0.004	3.0	GoodResponse	0	0.205	79.318	3	7	Target	AvoidedLoss	True
80.318	0.3	Lose2	1.0	0.004	Yes	4.033	-0.004	3.0	GoodResponse	0	0.205	n/a	3	7	ButtonPress	AvoidedLoss	True
80.447	0.37	Lose2	1.0	n/a	Yes	4.033	n/a	n/a	GoodResponse	0	n/a	n/a	3	7	Blank	AvoidedLoss	True
80.815	1.45	Lose2	1.0	n/a	Yes	4.033	n/a	5.0	GoodResponse	0	0.038	79.853	3	7	Feedback	AvoidedLoss	True
82.27	4.033	Lose2	1.0	n/a	Yes	4.033	n/a	n/a	GoodResponse	0	0.0	n/a	3	7	ISIslide	AvoidedLoss	True
86.315	0.25	Lose2	1.0	0.0	Yes	3.035	0.015	n/a	GoodResponse	0	n/a	n/a	3	8	Cue	AvoidedLoss	True
86.566	3.95	Lose2	1.0	0.0	Yes	3.035	0.001	n/a	GoodResponse	0	n/a	n/a	3	8	Fixation	AvoidedLoss	True
90.511	0.32	Lose2	1.0	0.004	Yes	3.035	-0.004	3.0	GoodResponse	0	0.213	89.724	3	8	Target	AvoidedLoss	True
90.724	0.3	Lose2	1.0	0.004	Yes	3.035	-0.004	3.0	GoodResponse	0	0.213	n/a	3	8	ButtonPress	AvoidedLoss	True
90.845	0.38	Lose2	1.0	n/a	Yes	3.035	n/a	n/a	GoodResponse	0	n/a	n/a	3	8	Blank	AvoidedLoss	True
91.213	1.45	Lose2	1.0	n/a	Yes	3.035	n/a	5.0	GoodResponse	0	0.029	90.242	3	8	Feedback	AvoidedLoss	True
92.667	3.035	Lose2	1.0	n/a	Yes	3.035	n/a	n/a	GoodResponse	0	0.0	n/a	3	8	ISIslide	AvoidedLoss	True
95.727	0.25	Lose2	1.0	0.0	Yes	3.123	0.027	n/a	GoodResponse	0	n/a	n/a	3	9	Cue	AvoidedLoss	True
95.977	3.95	Lose2	1.0	0.0	Yes	3.123	0.0	n/a	GoodResponse	0	n/a	n/a	3	9	Fixation	AvoidedLoss	True
99.939	0.31	Lose2	1.0	0.0	Yes	3.123	0.012	3.0	GoodResponse	0	0.178	99.117	3	9	Target	AvoidedLoss	True
100.117	0.3	Lose2	1.0	0.0	Yes	3.123	0.012	3.0	GoodResponse	0	0.178	n/a	3	9	ButtonPress	AvoidedLoss	True
100.24	0.39	Lose2	1.0	n/a	Yes	3.123	n/a	n/a	GoodResponse	0	n/a	n/a	3	9	Blank	AvoidedLoss	True
100.625	1.45	Lose2	1.0	n/a	Yes	3.123	n/a	5.0	GoodResponse	0	0.032	99.657	3	9	Feedback	AvoidedLoss	True
102.079	3.123	Lose2	1.0	n/a	Yes	3.123	n/a	n/a	GoodResponse	0	0.0	n/a	3	9	ISIslide	AvoidedLoss	True
105.222	0.25	Control	0.9091	0.0	No	3.278	0.022	n/a	NoResponse	0	n/a	n/a	3	10	Cue	Neutral	False
105.472	4.0	Control	0.9091	0.0	No	3.278	0.0	3.0	NoResponse	0	3.596	108.068	3	10	Fixation	Neutral	False
109.068	0.3	Control	0.9091	0.0	No	3.278	0.0	3.0	NoResponse	0	3.596	n/a	3	10	ButtonPress	Neutral	False
109.468	0.3	Control	0.9091	0.004	No	3.278	-0.004	3.0	NoResponse	0	0.407	108.875	3	10	Target	Neutral	False
109.769	0.4	Control	0.9091	n/a	No	3.278	n/a	n/a	NoResponse	0	n/a	n/a	3	10	Blank	Neutral	False
109.875	0.3	Control	0.9091	0.004	No	3.278	-0.004	3.0	NoResponse	0	0.407	n/a	3	10	ButtonPress	Neutral	False
110.17	1.45	Control	0.9091	n/a	No	3.278	n/a	5.0	NoResponse	0	0.048	109.218	3	10	Feedback	Neutral	False
111.624	3.278	Control	0.9091	n/a	No	3.278	n/a	n/a	NoResponse	0	0.0	n/a	3	10	ISIslide	Neutral	False
114.917	0.25	Lose2	0.9167000000000001	0.0	Yes	2.733	0.017	n/a	GoodResponse	0	n/a	n/a	3	11	Cue	AvoidedLoss	True
115.168	4.05	Lose2	0.9167000000000001	0.0	Yes	2.733	0.001	n/a	GoodResponse	0	n/a	n/a	3	11	Fixation	AvoidedLoss	True
119.214	0.29	Lose2	0.9167000000000001	0.003	Yes	2.733	-0.003	3.0	GoodResponse	0	0.177	118.391	3	11	Target	AvoidedLoss	True
119.391	0.3	Lose2	0.9167000000000001	0.003	Yes	2.733	-0.003	3.0	GoodResponse	0	0.177	n/a	3	11	ButtonPress	AvoidedLoss	True
119.514	0.41	Lose2	0.9167000000000001	n/a	Yes	2.733	n/a	n/a	GoodResponse	0	n/a	n/a	3	11	Blank	AvoidedLoss	True
119.916	1.45	Lose2	0.9167000000000001	n/a	Yes	2.733	n/a	5.0	GoodResponse	0	0.01	118.926	3	11	Feedback	AvoidedLoss	True
121.37	2.733	Lose2	0.9167000000000001	n/a	Yes	2.733	n/a	n/a	GoodResponse	0	0.0	n/a	3	11	ISIslide	AvoidedLoss	True
124.128	0.25	Control	0.9231	0.0	Yes	2.972	0.028	n/a	GoodResponse	0	n/a	n/a	3	12	Cue	Neutral	True
124.379	3.9	Control	0.9231	0.0	Yes	2.972	0.001	n/a	GoodResponse	0	n/a	n/a	3	12	Fixation	Neutral	True
128.274	0.28	Control	0.9231	0.004	Yes	2.972	-0.004	3.0	GoodResponse	0	0.188	127.462	3	12	Target	Neutral	True
128.462	0.3	Control	0.9231	0.004	Yes	2.972	-0.004	3.0	GoodResponse	0	0.188	n/a	3	12	ButtonPress	Neutral	True
128.558	0.42	Control	0.9231	n/a	Yes	2.972	n/a	n/a	GoodResponse	0	n/a	n/a	3	12	Blank	Neutral	True
128.976	1.45	Control	0.9231	n/a	Yes	2.972	n/a	5.0	GoodResponse	0	0.023	127.999	3	12	Feedback	Neutral	True
130.431	2.972	Control	0.9231	n/a	Yes	2.972	n/a	n/a	GoodResponse	0	0.0	n/a	3	12	ISIslide	Neutral	True
133.423	0.25	Control	0.9286	0.0	Yes	2.777	0.023	n/a	GoodResponse	0	n/a	n/a	3	13	Cue	Neutral	False
133.674	4.0	Control	0.9286	0.0	Yes	2.777	0.001	3.0	GoodResponse	0	0.936	133.61	3	13	Fixation	Neutral	False
134.61	0.3	Control	0.9286	0.0	Yes	2.777	0.001	3.0	GoodResponse	0	0.936	n/a	3	13	ButtonPress	Neutral	False
137.669	0.27	Control	0.9286	0.004	Yes	2.777	-0.004	3.0	GoodResponse	0	0.248	136.917	3	13	Target	Neutral	False
137.917	0.3	Control	0.9286	0.004	Yes	2.777	-0.004	3.0	GoodResponse	0	0.248	n/a	3	13	ButtonPress	Neutral	False
137.953	0.43	Control	0.9286	n/a	Yes	2.777	n/a	n/a	GoodResponse	0	n/a	n/a	3	13	Blank	Neutral	False
138.371	1.45	Control	0.9286	n/a	Yes	2.777	n/a	5.0	GoodResponse	0	0.043	137.414	3	13	Feedback	Neutral	False
139.825	2.777	Control	0.9286	n/a	Yes	2.777	n/a	n/a	GoodResponse	0	0.0	n/a	3	13	ISIslide	Neutral	False
142.617	0.25	Win2	0.9333	0.0	Yes	2.683	0.017	n/a	GoodResponse	1	n/a	n/a	4	14	Cue	Win	True
142.868	4.1	Win2	0.9333	0.0	Yes	2.683	0.001	n/a	GoodResponse	1	n/a	n/a	4	14	Fixation	Win	True
146.963	0.26	Win2	0.9333	0.004	Yes	2.683	-0.004	3.0	GoodResponse	1	0.185	146.148	4	14	Target	Win	True
147.148	0.3	Win2	0.9333	0.004	Yes	2.683	-0.004	3.0	GoodResponse	1	0.185	n/a	4	14	ButtonPress	Win	True
147.231	0.44	Win2	0.9333	n/a	Yes	2.683	n/a	n/a	GoodResponse	1	n/a	n/a	4	14	Blank	Win	True
147.666	1.45	Win2	0.9333	n/a	Yes	2.683	n/a	5.0	GoodResponse	1	0.015	146.681	4	14	Feedback	Win	True
149.12	2.683	Win2	0.9333	n/a	Yes	2.683	n/a	n/a	GoodResponse	1	0.0	n/a	4	14	ISIslide	Win	True
151.828	0.25	Control	0.875	0.0	No	2.972	0.028	n/a	NoResponse	0	n/a	n/a	4	15	Cue	Neutral	True
152.079	4.0	Control	0.875	0.0	No	2.972	0.001	n/a	NoResponse	0	n/a	n/a	4	15	Fixation	Neutral	True
156.091	0.25	Control	0.875	0.0	No	2.972	0.013	3.0	NoResponse	0	0.268	155.359	4	15	Target	Neutral	True
156.325	0.45	Control	0.875	n/a	No	2.972	n/a	n/a	NoResponse	0	n/a	n/a	4	15	Blank	Neutral	True
156.359	0.3	Control	0.875	0.0	No	2.972	0.013	3.0	NoResponse	0	0.268	n/a	4	15	ButtonPress	Neutral	True
156.776	1.45	Control	0.875	n/a	No	2.972	n/a	5.0	NoResponse	0	0.027	155.803	4	15	Feedback	Neutral	True
158.23	2.972	Control	0.875	n/a	No	2.972	n/a	n/a	NoResponse	0	0.0	n/a	4	15	ISIslide	Neutral	True
161.223	0.25	Win2	0.8234999999999999	0.0	No	2.877	0.023	n/a	NoResponse	0	n/a	n/a	4	16	Cue	MissedWin	True
161.474	4.0	Win2	0.8234999999999999	0.0	No	2.877	0.001	3.0	NoResponse	0	3.838	164.312	4	16	Fixation	MissedWin	True
165.312	0.3	Win2	0.8234999999999999	0.0	No	2.877	0.001	3.0	NoResponse	0	3.838	n/a	4	16	ButtonPress	MissedWin	True
165.469	0.24	Win2	0.8234999999999999	0.004	No	2.877	-0.004	n/a	NoResponse	0	n/a	n/a	4	16	Target	MissedWin	True
165.72	0.46	Win2	0.8234999999999999	n/a	No	2.877	n/a	n/a	NoResponse	0	n/a	n/a	4	16	Blank	MissedWin	True
166.171	1.45	Win2	0.8234999999999999	n/a	No	2.877	n/a	5.0	NoResponse	0	0.047	165.218	4	16	Feedback	MissedWin	True
167.625	2.877	Win2	0.8234999999999999	n/a	No	2.877	n/a	n/a	NoResponse	0	0.0	n/a	4	16	ISIslide	MissedWin	True
170.517	0.25	Lose2	0.8332999999999999	0.0	Yes	2.733	0.017	n/a	GoodResponse	0	n/a	n/a	4	17	Cue	AvoidedLoss	True
170.768	3.95	Lose2	0.8332999999999999	0.0	Yes	2.733	0.001	n/a	GoodResponse	0	n/a	n/a	4	17	Fixation	AvoidedLoss	True
174.713	0.23	Lose2	0.8332999999999999	0.004	Yes	2.733	-0.004	3.0	GoodResponse	0	0.19	173.903	4	17	Target	AvoidedLoss	True
174.903	0.3	Lose2	0.8332999999999999	0.004	Yes	2.733	-0.004	3.0	GoodResponse	0	0.19	n/a	4	17	ButtonPress	AvoidedLoss	True
174.947	0.47	Lose2	0.8332999999999999	n/a	Yes	2.733	n/a	n/a	GoodResponse	0	n/a	n/a	4	17	Blank	AvoidedLoss	True
175.415	1.45	Lose2	0.8332999999999999	n/a	Yes	2.733	n/a	5.0	GoodResponse	0	0.022	174.437	4	17	Feedback	AvoidedLoss	True
176.87	2.733	Lose2	0.8332999999999999	n/a	Yes	2.733	n/a	n/a	GoodResponse	0	0.0	n/a	4	17	ISIslide	AvoidedLoss	True
179.628	0.25	Lose2	0.8421	0.0	Yes	2.722	0.028	n/a	GoodResponse	0	n/a	n/a	4	18	Cue	AvoidedLoss	True
179.879	4.05	Lose2	0.8421	0.0	Yes	2.722	0.001	n/a	GoodResponse	0	n/a	n/a	4	18	Fixation	AvoidedLoss	True
183.924	0.22	Lose2	0.8421	0.004	Yes	2.722	-0.004	3.0	GoodResponse	0	0.18	183.104	4	18	Target	AvoidedLoss	True
184.104	0.3	Lose2	0.8421	0.004	Yes	2.722	-0.004	3.0	GoodResponse	0	0.18	n/a	4	18	ButtonPress	AvoidedLoss	True
184.158	0.48	Lose2	0.8421	n/a	Yes	2.722	n/a	n/a	GoodResponse	0	n/a	n/a	4	18	Blank	AvoidedLoss	True
184.626	1.45	Lose2	0.8421	n/a	Yes	2.722	n/a	5.0	GoodResponse	0	0.031	183.657	4	18	Feedback	AvoidedLoss	True
186.081	2.722	Lose2	0.8421	n/a	Yes	2.722	n/a	n/a	GoodResponse	0	0.0	n/a	4	18	ISIslide	AvoidedLoss	True
188.822	0.25	Control	0.85	0.0	Yes	2.928	0.022	n/a	GoodResponse	0	n/a	n/a	4	19	Cue	Neutral	True
189.073	3.95	Control	0.85	0.0	Yes	2.928	0.001	n/a	GoodResponse	0	n/a	n/a	4	19	Fixation	Neutral	True
193.018	0.21	Control	0.85	0.004	Yes	2.928	-0.004	3.0	GoodResponse	0	0.185	192.203	4	19	Target	Neutral	True
193.203	0.3	Control	0.85	0.004	Yes	2.928	-0.004	3.0	GoodResponse	0	0.185	n/a	4	19	ButtonPress	Neutral	True
193.235	0.49	Control	0.85	n/a	Yes	2.928	n/a	n/a	GoodResponse	0	n/a	n/a	4	19	Blank	Neutral	True
193.72	1.45	Control	0.85	n/a	Yes	2.928	n/a	5.0	GoodResponse	0	0.01	192.73	4	19	Feedback	Neutral	True
195.175	2.928	Control	0.85	n/a	Yes	2.928	n/a	n/a	GoodResponse	0	0.0	n/a	4	19	ISIslide	Neutral	True
198.117	0.25	Control	0.8095	0.0	No	2.633	0.017	n/a	NoResponse	0	n/a	n/a	4	20	Cue	Neutral	True
198.367	4.05	Control	0.8095	0.001	No	2.633	0.0	3.0	NoResponse	0	3.808	201.175	4	20	Fixation	Neutral	True
202.175	0.3	Control	0.8095	0.001	No	2.633	0.0	3.0	NoResponse	0	3.808	n/a	4	20	ButtonPress	Neutral	True
202.413	0.2	Control	0.8095	0.004	No	2.633	-0.004	n/a	NoResponse	0	n/a	n/a	4	20	Target	Neutral	True
202.613	0.5	Control	0.8095	n/a	No	2.633	n/a	n/a	NoResponse	0	n/a	n/a	4	20	Blank	Neutral	True
203.115	1.45	Control	0.8095	n/a	No	2.633	n/a	5.0	NoResponse	0	0.031	202.146	4	20	Feedback	Neutral	True
204.569	2.633	Control	0.8095	n/a	No	2.633	n/a	n/a	NoResponse	0	0.0	n/a	4	20	ISIslide	Neutral	True
207.227	0.25	Control	0.7726999999999999	0.0	No	2.773	0.027	n/a	NoResponse	0	n/a	n/a	4	21	Cue	Neutral	True
207.478	4.1	Control	0.7726999999999999	0.0	No	2.773	0.001	n/a	NoResponse	0	n/a	n/a	4	21	Fixation	Neutral	True
211.574	0.19	Control	0.7726999999999999	0.003	No	2.773	-0.003	3.0	NoResponse	0	0.22	210.794	4	21	Target	Neutral	True
211.774	0.51	Control	0.7726999999999999	n/a	No	2.773	n/a	n/a	NoResponse	0	n/a	n/a	4	21	Blank	Neutral	True
211.794	0.3	Control	0.7726999999999999	0.003	No	2.773	-0.003	3.0	NoResponse	0	0.22	n/a	4	21	ButtonPress	Neutral	True
212.276	1.45	Control	0.7726999999999999	n/a	No	2.773	n/a	5.0	NoResponse	0	0.039	211.315	4	21	Feedback	Neutral	True
213.73	2.773	Control	0.7726999999999999	n/a	No	2.773	n/a	n/a	NoResponse	0	0.0	n/a	4	21	ISIslide	Neutral	True
216.522	0.25	Control	0.7391	0.0	No	2.778	0.022	n/a	NoResponse	0	n/a	n/a	4	22	Cue	Neutral	False
216.773	4.0	Control	0.7391	0.0	No	2.778	0.001	3.0	NoResponse	0	0.01	215.783	4	22	Fixation	Neutral	False
216.783	0.3	Control	0.7391	0.0	No	2.778	0.001	3.0	NoResponse	0	0.01	n/a	4	22	ButtonPress	Neutral	False
220.768	0.18	Control	0.7391	0.004	No	2.778	-0.004	3.0	NoResponse	0	0.213	219.981	4	22	Target	Neutral	False
220.952	0.52	Control	0.7391	n/a	No	2.778	n/a	n/a	NoResponse	0	n/a	n/a	4	22	Blank	Neutral	False
220.981	0.3	Control	0.7391	0.004	No	2.778	-0.004	3.0	NoResponse	0	0.213	n/a	4	22	ButtonPress	Neutral	False
221.47	1.45	Control	0.7391	n/a	No	2.778	n/a	5.0	NoResponse	0	0.015	220.485	4	22	Feedback	Neutral	False
222.924	2.778	Control	0.7391	n/a	No	2.778	n/a	n/a	NoResponse	0	0.0	n/a	4	22	ISIslide	Neutral	False
225.716	0.25	Control	0.7082999999999999	0.0	No	2.784	0.016	n/a	NoResponse	0	n/a	n/a	4	23	Cue	Neutral	True
225.967	3.9	Control	0.7082999999999999	0.0	No	2.784	0.001	n/a	NoResponse	0	n/a	n/a	4	23	Fixation	Neutral	True
229.862	0.17	Control	0.7082999999999999	0.004	No	2.784	-0.004	3.0	NoResponse	0	0.191	229.053	4	23	Target	Neutral	True
230.046	0.53	Control	0.7082999999999999	n/a	No	2.784	n/a	n/a	NoResponse	0	n/a	n/a	4	23	Blank	Neutral	True
230.053	0.3	Control	0.7082999999999999	0.004	No	2.784	-0.004	3.0	NoResponse	0	0.191	n/a	4	23	ButtonPress	Neutral	True
230.564	1.45	Control	0.7082999999999999	n/a	No	2.784	n/a	5.0	NoResponse	0	0.043	229.607	4	23	Feedback	Neutral	True
232.018	2.784	Control	0.7082999999999999	n/a	No	2.784	n/a	n/a	NoResponse	0	0.0	n/a	4	23	ISIslide	Neutral	True
234.827	0.25	Win2	0.68	0.0	No	3.123	0.027	n/a	NoResponse	0	n/a	n/a	4	24	Cue	MissedWin	True
235.077	3.95	Win2	0.68	0.0	No	3.123	0.0	n/a	NoResponse	0	n/a	n/a	4	24	Fixation	MissedWin	True
239.023	0.16	Win2	0.68	0.004	No	3.123	-0.004	3.0	NoResponse	0	0.199	238.222	4	24	Target	MissedWin	True
239.19	0.54	Win2	0.68	n/a	No	3.123	n/a	n/a	NoResponse	0	n/a	n/a	4	24	Blank	MissedWin	True
239.222	0.3	Win2	0.68	0.004	No	3.123	-0.004	3.0	NoResponse	0	0.199	n/a	4	24	ButtonPress	MissedWin	True
239.725	1.45	Win2	0.68	n/a	No	3.123	n/a	5.0	NoResponse	0	0.007	238.732	4	24	Feedback	MissedWin	True
241.179	3.123	Win2	0.68	n/a	No	3.123	n/a	n/a	NoResponse	0	0.0	n/a	4	24	ISIslide	MissedWin	True
244.322	0.25	Win2	0.6537999999999999	0.0	No	3.078	0.022	n/a	NoResponse	0	n/a	n/a	4	25	Cue	MissedWin	False
244.573	4.0	Win2	0.6537999999999999	0.0	No	3.078	0.001	3.0	NoResponse	0	3.46	247.033	4	25	Fixation	MissedWin	False
248.033	0.3	Win2	0.6537999999999999	0.0	No	3.078	0.001	3.0	NoResponse	0	3.46	n/a	4	25	ButtonPress	MissedWin	False
248.568	0.15	Win2	0.6537999999999999	0.004	No	3.078	-0.004	3.0	NoResponse	0	0.275	247.843	4	25	Target	MissedWin	False
248.718	0.55	Win2	0.6537999999999999	n/a	No	3.078	n/a	n/a	NoResponse	0	n/a	n/a	4	25	Blank	MissedWin	False
248.843	0.3	Win2	0.6537999999999999	0.004	No	3.078	-0.004	3.0	NoResponse	0	0.275	n/a	4	25	ButtonPress	MissedWin	False
249.27	1.45	Win2	0.6537999999999999	n/a	No	3.078	n/a	5.0	NoResponse	0	0.021	248.291	4	25	Feedback	MissedWin	False
250.724	3.078	Win2	0.6537999999999999	n/a	No	3.078	n/a	n/a	NoResponse	0	0.0	n/a	4	25	ISIslide	MissedWin	False
253.817	0.25	Win2	0.6296	0.0	No	2.933	0.017	n/a	NoResponse	0	n/a	n/a	4	26	Cue	MissedWin	True
254.068	3.95	Win2	0.6296	0.0	No	2.933	0.001	n/a	NoResponse	0	n/a	n/a	4	26	Fixation	MissedWin	True
258.013	0.16	Win2	0.6296	0.004	No	2.933	-0.004	3.0	NoResponse	0	0.18	257.193	4	26	Target	MissedWin	True
258.18	0.54	Win2	0.6296	n/a	No	2.933	n/a	n/a	NoResponse	0	n/a	n/a	4	26	Blank	MissedWin	True
258.193	0.3	Win2	0.6296	0.004	No	2.933	-0.004	3.0	NoResponse	0	0.18	n/a	4	26	ButtonPress	MissedWin	True
258.715	1.45	Win2	0.6296	n/a	No	2.933	n/a	5.0	NoResponse	0	0.039	257.754	4	26	Feedback	MissedWin	True
260.169	2.933	Win2	0.6296	n/a	No	2.933	n/a	n/a	NoResponse	0	0.0	n/a	4	26	ISIslide	MissedWin	True
263.128	0.25	Lose2	0.6071	0.0	No	2.822	0.028	n/a	LatePress	-1	n/a	n/a	3	27	Cue	Loss	True
263.379	4.05	Lose2	0.6071	0.0	No	2.822	0.001	n/a	LatePress	-1	n/a	n/a	3	27	Fixation	Loss	True
267.424	0.17	Lose2	0.6071	0.004	No	2.822	-0.004	3.0	LatePress	-1	0.174	266.598	3	27	Target	Loss	True
267.598	0.3	Lose2	0.6071	0.004	No	2.822	-0.004	3.0	LatePress	-1	0.174	n/a	3	27	ButtonPress	Loss	True
267.608	0.53	Lose2	0.6071	n/a	No	2.822	n/a	n/a	LatePress	-1	n/a	n/a	3	27	Blank	Loss	True
268.126	1.45	Lose2	0.6071	n/a	No	2.822	n/a	5.0	LatePress	-1	0.042	267.168	3	27	Feedback	Loss	True
269.581	2.822	Lose2	0.6071	n/a	No	2.822	n/a	n/a	LatePress	-1	0.0	n/a	3	27	ISIslide	Loss	True
272.423	0.25	Control	0.5861999999999999	0.0	No	2.827	0.023	n/a	NoResponse	0	n/a	n/a	3	28	Cue	Neutral	True
272.673	4.05	Control	0.5861999999999999	0.0	No	2.827	0.0	n/a	NoResponse	0	n/a	n/a	3	28	Fixation	Neutral	True
276.719	0.18	Control	0.5861999999999999	0.004	No	2.827	-0.004	3.0	NoResponse	0	0.192	275.911	3	28	Target	Neutral	True
276.903	0.52	Control	0.5861999999999999	n/a	No	2.827	n/a	n/a	NoResponse	0	n/a	n/a	3	28	Blank	Neutral	True
276.911	0.3	Control	0.5861999999999999	0.004	No	2.827	-0.004	3.0	NoResponse	0	0.192	n/a	3	28	ButtonPress	Neutral	True
277.421	1.45	Control	0.5861999999999999	n/a	No	2.827	n/a	5.0	NoResponse	0	0.015	276.436	3	28	Feedback	Neutral	True
278.875	2.827	Control	0.5861999999999999	n/a	No	2.827	n/a	n/a	NoResponse	0	0.0	n/a	3	28	ISIslide	Neutral	True
281.717	0.25	Lose2	0.6	0.0	Yes	2.833	0.017	n/a	GoodResponse	0	n/a	n/a	3	29	Cue	AvoidedLoss	True
281.968	3.95	Lose2	0.6	0.0	Yes	2.833	0.001	n/a	GoodResponse	0	n/a	n/a	3	29	Fixation	AvoidedLoss	True
285.913	0.19	Lose2	0.6	0.004	Yes	2.833	-0.004	3.0	GoodResponse	0	0.18	285.093	3	29	Target	AvoidedLoss	True
286.093	0.3	Lose2	0.6	0.004	Yes	2.833	-0.004	3.0	GoodResponse	0	0.18	n/a	3	29	ButtonPress	AvoidedLoss	True
286.114	0.51	Lose2	0.6	n/a	Yes	2.833	n/a	n/a	GoodResponse	0	n/a	n/a	3	29	Blank	AvoidedLoss	True
286.615	1.45	Lose2	0.6	n/a	Yes	2.833	n/a	5.0	GoodResponse	0	0.041	285.656	3	29	Feedback	AvoidedLoss	True
288.07	2.833	Lose2	0.6	n/a	Yes	2.833	n/a	n/a	GoodResponse	0	0.0	n/a	3	29	ISIslide	AvoidedLoss	True
290.928	0.25	Win2	0.6129	0.0	Yes	2.772	0.028	n/a	GoodResponse	1	n/a	n/a	4	30	Cue	Win	True
291.179	3.9	Win2	0.6129	0.0	Yes	2.772	0.001	n/a	GoodResponse	1	n/a	n/a	4	30	Fixation	Win	True
295.074	0.2	Win2	0.6129	0.004	Yes	2.772	-0.004	3.0	GoodResponse	1	0.156	294.23	4	30	Target	Win	True
295.23	0.3	Win2	0.6129	0.004	Yes	2.772	-0.004	3.0	GoodResponse	1	0.156	n/a	4	30	ButtonPress	Win	True
295.274	0.5	Win2	0.6129	n/a	Yes	2.772	n/a	n/a	GoodResponse	1	n/a	n/a	4	30	Blank	Win	True
295.776	1.45	Win2	0.6129	n/a	Yes	2.772	n/a	5.0	GoodResponse	1	0.002	294.778	4	30	Feedback	Win	True
297.23	2.772	Win2	0.6129	n/a	Yes	2.772	n/a	n/a	GoodResponse	1	0.0	n/a	4	30	ISIslide	Win	True
300.022	0.25	Lose2	0.5938	0.0	No	2.828	0.022	n/a	NoResponse	-1	n/a	n/a	3	31	Cue	Loss	True
300.273	4.05	Lose2	0.5938	0.0	No	2.828	0.001	3.0	NoResponse	-1	3.807	303.08	3	31	Fixation	Loss	True
304.08	0.3	Lose2	0.5938	0.0	No	2.828	0.001	3.0	NoResponse	-1	3.807	n/a	3	31	ButtonPress	Loss	True
304.318	0.21	Lose2	0.5938	0.004	No	2.828	-0.004	n/a	NoResponse	-1	n/a	n/a	3	31	Target	Loss	True
304.536	0.49	Lose2	0.5938	n/a	No	2.828	n/a	n/a	NoResponse	-1	n/a	n/a	3	31	Blank	Loss	True
305.02	1.45	Lose2	0.5938	n/a	No	2.828	n/a	5.0	NoResponse	-1	0.026	304.046	3	31	Feedback	Loss	True
306.475	2.828	Lose2	0.5938	n/a	No	2.828	n/a	n/a	NoResponse	-1	0.0	n/a	3	31	ISIslide	Loss	True
309.317	0.25	Lose2	0.6061	0.0	Yes	2.633	0.017	n/a	GoodResponse	0	n/a	n/a	3	32	Cue	AvoidedLoss	True
309.567	4.15	Lose2	0.6061	0.0	Yes	2.633	0.0	n/a	GoodResponse	0	n/a	n/a	3	32	Fixation	AvoidedLoss	True
313.713	0.22	Lose2	0.6061	0.004	Yes	2.633	-0.004	3.0	GoodResponse	0	0.175	312.888	3	32	Target	AvoidedLoss	True
313.888	0.3	Lose2	0.6061	0.004	Yes	2.633	-0.004	3.0	GoodResponse	0	0.175	n/a	3	32	ButtonPress	AvoidedLoss	True
313.947	0.48	Lose2	0.6061	n/a	Yes	2.633	n/a	n/a	GoodResponse	0	n/a	n/a	3	32	Blank	AvoidedLoss	True
314.415	1.45	Lose2	0.6061	n/a	Yes	2.633	n/a	5.0	GoodResponse	0	0.046	313.461	3	32	Feedback	AvoidedLoss	True
315.886	2.633	Lose2	0.6061	n/a	Yes	2.633	n/a	n/a	GoodResponse	0	0.0	n/a	3	32	ISIslide	AvoidedLoss	True
318.527	0.25	Win2	0.6175999999999999	0.001	Yes	2.673	0.027	n/a	GoodResponse	1	n/a	n/a	4	33	Cue	Win	False
318.778	4.0	Win2	0.6175999999999999	0.0	Yes	2.673	0.001	3.0	GoodResponse	1	1.465	319.243	4	33	Fixation	Win	False
320.243	0.3	Win2	0.6175999999999999	0.0	Yes	2.673	0.001	3.0	GoodResponse	1	1.465	n/a	4	33	ButtonPress	Win	False
322.774	0.23	Win2	0.6175999999999999	0.003	Yes	2.673	-0.003	3.0	GoodResponse	1	0.189	321.963	4	33	Target	Win	False
322.963	0.3	Win2	0.6175999999999999	0.003	Yes	2.673	-0.003	3.0	GoodResponse	1	0.189	n/a	4	33	ButtonPress	Win	False
323.008	0.47	Win2	0.6175999999999999	n/a	Yes	2.673	n/a	n/a	GoodResponse	1	n/a	n/a	4	33	Blank	Win	False
323.476	1.45	Win2	0.6175999999999999	n/a	Yes	2.673	n/a	5.0	GoodResponse	1	0.008	322.484	4	33	Feedback	Win	False
324.93	2.673	Win2	0.6175999999999999	n/a	Yes	2.673	n/a	n/a	GoodResponse	1	0.0	n/a	4	33	ISIslide	Win	False
327.621	0.25	Lose2	0.6	0.0	No	2.629	0.021	n/a	NoResponse	-1	n/a	n/a	3	34	Cue	Loss	False
327.872	4.05	Lose2	0.6	0.0	No	2.629	0.001	3.0	NoResponse	-1	4.046	330.918	3	34	Fixation	Loss	False
331.918	0.24	Lose2	0.6	0.003	No	2.629	-0.003	3.0	NoResponse	-1	0.0	330.918	3	34	Target	Loss	False
331.918	0.3	Lose2	0.6	0.0	No	2.629	0.001	3.0	NoResponse	-1	4.046	n/a	3	34	ButtonPress	Loss	False
331.918	0.3	Lose2	0.6	0.003	No	2.629	-0.003	3.0	NoResponse	-1	0.0	n/a	3	34	ButtonPress	Loss	False
332.168	0.46	Lose2	0.6	n/a	No	2.629	n/a	n/a	NoResponse	-1	n/a	n/a	3	34	Blank	Loss	False
332.62	1.45	Lose2	0.6	n/a	No	2.629	n/a	5.0	NoResponse	-1	0.035	331.655	3	34	Feedback	Loss	False
334.074	2.629	Lose2	0.6	n/a	No	2.629	n/a	n/a	NoResponse	-1	0.0	n/a	3	34	ISIslide	Loss	False
336.715	0.25	Lose2	0.6111	0.0	Yes	2.685	0.015	n/a	GoodResponse	0	n/a	n/a	3	35	Cue	AvoidedLoss	True
336.966	4.0	Lose2	0.6111	0.0	Yes	2.685	0.001	n/a	GoodResponse	0	n/a	n/a	3	35	Fixation	AvoidedLoss	True
340.961	0.25	Lose2	0.6111	0.004	Yes	2.685	-0.004	3.0	GoodResponse	0	0.197	340.158	3	35	Target	AvoidedLoss	True
341.158	0.3	Lose2	0.6111	0.004	Yes	2.685	-0.004	3.0	GoodResponse	0	0.197	n/a	3	35	ButtonPress	AvoidedLoss	True
341.212	0.45	Lose2	0.6111	n/a	Yes	2.685	n/a	n/a	GoodResponse	0	n/a	n/a	3	35	Blank	AvoidedLoss	True
341.663	1.45	Lose2	0.6111	n/a	Yes	2.685	n/a	5.0	GoodResponse	0	0.017	340.68	3	35	Feedback	AvoidedLoss	True
343.118	2.685	Lose2	0.6111	n/a	Yes	2.685	n/a	n/a	GoodResponse	0	0.0	n/a	3	35	ISIslide	AvoidedLoss	True
345.826	0.25	Control	0.6215999999999999	0.0	Yes	2.674	0.026	n/a	GoodResponse	0	n/a	n/a	3	36	Cue	Neutral	True
346.077	4.0	Control	0.6215999999999999	0.0	Yes	2.674	0.001	n/a	GoodResponse	0	n/a	n/a	3	36	Fixation	Neutral	True
350.072	0.26	Control	0.6215999999999999	0.004	Yes	2.674	-0.004	3.0	GoodResponse	0	0.166	349.238	3	36	Target	Neutral	True
350.238	0.3	Control	0.6215999999999999	0.004	Yes	2.674	-0.004	3.0	GoodResponse	0	0.166	n/a	3	36	ButtonPress	Neutral	True
350.339	0.44	Control	0.6215999999999999	n/a	Yes	2.674	n/a	n/a	GoodResponse	0	n/a	n/a	3	36	Blank	Neutral	True
350.774	1.45	Control	0.6215999999999999	n/a	Yes	2.674	n/a	5.0	GoodResponse	0	0.028	349.802	3	36	Feedback	Neutral	True
352.228	2.674	Control	0.6215999999999999	n/a	Yes	2.674	n/a	n/a	GoodResponse	0	0.0	n/a	3	36	ISIslide	Neutral	True
354.92	0.25	Win2	0.6315999999999999	0.0	Yes	2.88	0.02	n/a	GoodResponse	1	n/a	n/a	4	37	Cue	Win	False
355.171	4.0	Win2	0.6315999999999999	0.0	Yes	2.88	0.001	3.0	GoodResponse	1	3.074	357.245	4	37	Fixation	Win	False
358.245	0.3	Win2	0.6315999999999999	0.0	Yes	2.88	0.001	3.0	GoodResponse	1	3.074	n/a	4	37	ButtonPress	Win	False
359.166	0.27	Win2	0.6315999999999999	0.004	Yes	2.88	-0.004	3.0	GoodResponse	1	0.261	358.427	4	37	Target	Win	False
359.427	0.3	Win2	0.6315999999999999	0.004	Yes	2.88	-0.004	3.0	GoodResponse	1	0.261	n/a	4	37	ButtonPress	Win	False
359.45	0.43	Win2	0.6315999999999999	n/a	Yes	2.88	n/a	n/a	GoodResponse	1	n/a	n/a	4	37	Blank	Win	False
359.868	1.45	Win2	0.6315999999999999	n/a	Yes	2.88	n/a	5.0	GoodResponse	1	0.008	358.876	4	37	Feedback	Win	False
361.322	2.88	Win2	0.6315999999999999	n/a	Yes	2.88	n/a	n/a	GoodResponse	1	0.0	n/a	4	37	ISIslide	Win	False
364.214	0.25	Lose2	0.6154	0.0	No	2.836	0.014	n/a	PrematurePress	-1	n/a	n/a	3	38	Cue	Loss	False
364.465	3.95	Lose2	0.6154	0.0	No	2.836	0.001	3.0	PrematurePress	-1	0.192	363.657	3	38	Fixation	Loss	False
364.657	0.3	Lose2	0.6154	0.0	No	2.836	0.001	3.0	PrematurePress	-1	0.192	n/a	3	38	ButtonPress	Loss	False
368.41	0.28	Lose2	0.6154	0.004	No	2.836	-0.004	3.0	PrematurePress	-1	0.077	367.487	3	38	Target	Loss	False
368.487	0.3	Lose2	0.6154	0.004	No	2.836	-0.004	3.0	PrematurePress	-1	0.077	n/a	3	38	ButtonPress	Loss	False
368.694	0.42	Lose2	0.6154	n/a	No	2.836	n/a	n/a	PrematurePress	-1	n/a	n/a	3	38	Blank	Loss	False
369.112	1.45	Lose2	0.6154	n/a	No	2.836	n/a	5.0	PrematurePress	-1	0.031	368.143	3	38	Feedback	Loss	False
370.567	2.836	Lose2	0.6154	n/a	No	2.836	n/a	n/a	PrematurePress	-1	0.0	n/a	3	38	ISIslide	Loss	False
373.425	0.25	Win2	0.625	0.0	Yes	2.975	0.025	n/a	GoodResponse	1	n/a	n/a	4	39	Cue	Win	True
373.676	4.1	Win2	0.625	0.0	Yes	2.975	0.001	n/a	GoodResponse	1	n/a	n/a	4	39	Fixation	Win	True
377.772	0.29	Win2	0.625	0.003	Yes	2.975	-0.003	3.0	GoodResponse	1	0.189	376.961	4	39	Target	Win	True
377.961	0.3	Win2	0.625	0.003	Yes	2.975	-0.003	3.0	GoodResponse	1	0.189	n/a	4	39	ButtonPress	Win	True
378.073	0.41	Win2	0.625	n/a	Yes	2.975	n/a	n/a	GoodResponse	1	n/a	n/a	4	39	Blank	Win	True
378.474	1.45	Win2	0.625	n/a	Yes	2.975	n/a	5.0	GoodResponse	1	0.035	377.509	4	39	Feedback	Win	True
379.928	2.975	Win2	0.625	n/a	Yes	2.975	n/a	n/a	GoodResponse	1	0.0	n/a	4	39	ISIslide	Win	True
382.92	0.25	Win2	0.6341	0.001	Yes	2.73	0.02	n/a	GoodResponse	1	n/a	n/a	5	40	Cue	Win	True
383.171	3.95	Win2	0.6341	0.0	Yes	2.73	0.001	n/a	GoodResponse	1	n/a	n/a	5	40	Fixation	Win	True
387.116	0.3	Win2	0.6341	0.004	Yes	2.73	-0.004	3.0	GoodResponse	1	0.18	386.296	5	40	Target	Win	True
387.296	0.3	Win2	0.6341	0.004	Yes	2.73	-0.004	3.0	GoodResponse	1	0.18	n/a	5	40	ButtonPress	Win	True
387.417	0.4	Win2	0.6341	n/a	Yes	2.73	n/a	n/a	GoodResponse	1	n/a	n/a	5	40	Blank	Win	True
387.818	1.45	Win2	0.6341	n/a	Yes	2.73	n/a	5.0	GoodResponse	1	0.008	386.826	5	40	Feedback	Win	True
389.273	2.73	Win2	0.6341	n/a	Yes	2.73	n/a	n/a	GoodResponse	1	0.0	n/a	5	40	ISIslide	Win	True
392.031	0.25	Win2	0.6429	0.0	Yes	2.769	0.031	n/a	GoodResponse	1	n/a	n/a	6	41	Cue	Win	True
392.282	3.9	Win2	0.6429	0.0	Yes	2.769	0.001	n/a	GoodResponse	1	n/a	n/a	6	41	Fixation	Win	True
396.177	0.31	Win2	0.6429	0.004	Yes	2.769	-0.004	3.0	GoodResponse	1	0.163	395.34	6	41	Target	Win	True
396.34	0.3	Win2	0.6429	0.004	Yes	2.769	-0.004	3.0	GoodResponse	1	0.163	n/a	6	41	ButtonPress	Win	True
396.494	0.39	Win2	0.6429	n/a	Yes	2.769	n/a	n/a	GoodResponse	1	n/a	n/a	6	41	Blank	Win	True
396.879	1.45	Win2	0.6429	n/a	Yes	2.769	n/a	5.0	GoodResponse	1	0.02	395.899	6	41	Feedback	Win	True
398.333	2.769	Win2	0.6429	n/a	Yes	2.769	n/a	n/a	GoodResponse	1	0.0	n/a	6	41	ISIslide	Win	True
401.125	0.25	Control	0.6512	0.0	Yes	2.925	0.025	n/a	GoodResponse	0	n/a	n/a	6	42	Cue	Neutral	True
401.376	3.85	Control	0.6512	0.0	Yes	2.925	0.001	n/a	GoodResponse	0	n/a	n/a	6	42	Fixation	Neutral	True
405.221	0.32	Control	0.6512	0.004	Yes	2.925	-0.004	3.0	GoodResponse	0	0.219	404.44	6	42	Target	Neutral	True
405.44	0.3	Control	0.6512	0.004	Yes	2.925	-0.004	3.0	GoodResponse	0	0.219	n/a	6	42	ButtonPress	Neutral	True
405.555	0.38	Control	0.6512	n/a	Yes	2.925	n/a	n/a	GoodResponse	0	n/a	n/a	6	42	Blank	Neutral	True
405.923	1.45	Control	0.6512	n/a	Yes	2.925	n/a	5.0	GoodResponse	0	0.001	404.924	6	42	Feedback	Neutral	True
407.377	2.925	Control	0.6512	n/a	Yes	2.925	n/a	n/a	GoodResponse	0	0.0	n/a	6	42	ISIslide	Neutral	True
410.319	0.25	Win2	0.6591	0.0	Yes	3.181	0.019	n/a	GoodResponse	1	n/a	n/a	7	43	Cue	Win	True
410.57	4.0	Win2	0.6591	0.0	Yes	3.181	0.001	n/a	GoodResponse	1	n/a	n/a	7	43	Fixation	Win	True
414.565	0.33	Win2	0.6591	0.004	Yes	3.181	-0.004	3.0	GoodResponse	1	0.126	413.691	7	43	Target	Win	True
414.691	0.3	Win2	0.6591	0.004	Yes	3.181	-0.004	3.0	GoodResponse	1	0.126	n/a	7	43	ButtonPress	Win	True
414.9	0.37	Win2	0.6591	n/a	Yes	3.181	n/a	n/a	GoodResponse	1	n/a	n/a	7	43	Blank	Win	True
415.267	1.45	Win2	0.6591	n/a	Yes	3.181	n/a	5.0	GoodResponse	1	0.022	414.289	7	43	Feedback	Win	True
416.722	3.181	Win2	0.6591	n/a	Yes	3.181	n/a	n/a	GoodResponse	1	0.0	n/a	7	43	ISIslide	Win	True
419.915	0.25	Win2	0.6667000000000001	0.0	Yes	2.985	0.015	n/a	GoodResponse	1	n/a	n/a	8	44	Cue	Win	True
420.165	4.0	Win2	0.6667000000000001	0.0	Yes	2.985	0.0	n/a	GoodResponse	1	n/a	n/a	8	44	Fixation	Win	True
424.161	0.33	Win2	0.6667000000000001	0.004	Yes	2.985	-0.004	3.0	GoodResponse	1	0.186	423.347	8	44	Target	Win	True
424.347	0.3	Win2	0.6667000000000001	0.004	Yes	2.985	-0.004	3.0	GoodResponse	1	0.186	n/a	8	44	ButtonPress	Win	True
424.495	0.37	Win2	0.6667000000000001	n/a	Yes	2.985	n/a	n/a	GoodResponse	1	n/a	n/a	8	44	Blank	Win	True
424.863	1.45	Win2	0.6667000000000001	n/a	Yes	2.985	n/a	5.0	GoodResponse	1	0.036	423.899	8	44	Feedback	Win	True
426.317	2.985	Win2	0.6667000000000001	n/a	Yes	2.985	n/a	n/a	GoodResponse	1	0.0	n/a	8	44	ISIslide	Win	True
429.326	0.25	Control	0.6739	0.0	Yes	2.874	0.026	n/a	GoodResponse	0	n/a	n/a	8	45	Cue	Neutral	True
429.577	4.1	Control	0.6739	0.0	Yes	2.874	0.001	n/a	GoodResponse	0	n/a	n/a	8	45	Fixation	Neutral	True
433.673	0.32	Control	0.6739	0.003	Yes	2.874	-0.003	3.0	GoodResponse	0	0.156	432.829	8	45	Target	Neutral	True
433.829	0.3	Control	0.6739	0.003	Yes	2.874	-0.003	3.0	GoodResponse	0	0.156	n/a	8	45	ButtonPress	Neutral	True
434.007	0.38	Control	0.6739	n/a	Yes	2.874	n/a	n/a	GoodResponse	0	n/a	n/a	8	45	Blank	Neutral	True
434.375	1.45	Control	0.6739	n/a	Yes	2.874	n/a	5.0	GoodResponse	0	0.036	433.411	8	45	Feedback	Neutral	True
435.829	2.874	Control	0.6739	n/a	Yes	2.874	n/a	n/a	GoodResponse	0	0.0	n/a	8	45	ISIslide	Neutral	True
438.721	0.25	Lose2	0.6809000000000001	0.0	Yes	3.379	0.021	n/a	GoodResponse	0	n/a	n/a	8	46	Cue	AvoidedLoss	True
438.972	4.0	Lose2	0.6809000000000001	0.0	Yes	3.379	0.001	n/a	GoodResponse	0	n/a	n/a	8	46	Fixation	AvoidedLoss	True
442.967	0.31	Lose2	0.6809000000000001	0.004	Yes	3.379	-0.004	3.0	GoodResponse	0	0.193	442.16	8	46	Target	AvoidedLoss	True
443.16	0.3	Lose2	0.6809000000000001	0.004	Yes	3.379	-0.004	3.0	GoodResponse	0	0.193	n/a	8	46	ButtonPress	AvoidedLoss	True
443.285	0.39	Lose2	0.6809000000000001	n/a	Yes	3.379	n/a	n/a	GoodResponse	0	n/a	n/a	8	46	Blank	AvoidedLoss	True
443.669	1.45	Lose2	0.6809000000000001	n/a	Yes	3.379	n/a	5.0	GoodResponse	0	0.009	442.678	8	46	Feedback	AvoidedLoss	True
445.123	3.379	Lose2	0.6809000000000001	n/a	Yes	3.379	n/a	n/a	GoodResponse	0	0.0	n/a	8	46	ISIslide	AvoidedLoss	True
448.517	0.25	Lose2	0.6875	0.0	Yes	2.683	0.017	n/a	GoodResponse	0	n/a	n/a	8	47	Cue	AvoidedLoss	True
448.768	4.0	Lose2	0.6875	0.0	Yes	2.683	0.001	n/a	GoodResponse	0	n/a	n/a	8	47	Fixation	AvoidedLoss	True
452.763	0.3	Lose2	0.6875	0.004	Yes	2.683	-0.004	3.0	GoodResponse	0	0.182	451.945	8	47	Target	AvoidedLoss	True
452.945	0.3	Lose2	0.6875	0.004	Yes	2.683	-0.004	3.0	GoodResponse	0	0.182	n/a	8	47	ButtonPress	AvoidedLoss	True
453.064	0.4	Lose2	0.6875	n/a	Yes	2.683	n/a	n/a	GoodResponse	0	n/a	n/a	8	47	Blank	AvoidedLoss	True
453.465	1.45	Lose2	0.6875	n/a	Yes	2.683	n/a	5.0	GoodResponse	0	0.018	452.483	8	47	Feedback	AvoidedLoss	True
454.919	2.683	Lose2	0.6875	n/a	Yes	2.683	n/a	n/a	GoodResponse	0	0.0	n/a	8	47	ISIslide	AvoidedLoss	True
457.628	0.25	Lose2	0.6939	0.0	Yes	3.022	0.028	n/a	GoodResponse	0	n/a	n/a	8	48	Cue	AvoidedLoss	True
457.878	3.95	Lose2	0.6939	0.0	Yes	3.022	0.0	n/a	GoodResponse	0	n/a	n/a	8	48	Fixation	AvoidedLoss	True
461.824	0.29	Lose2	0.6939	0.004	Yes	3.022	-0.004	3.0	GoodResponse	0	0.171	460.995	8	48	Target	AvoidedLoss	True
461.995	0.3	Lose2	0.6939	0.004	Yes	3.022	-0.004	3.0	GoodResponse	0	0.171	n/a	8	48	ButtonPress	AvoidedLoss	True
462.124	0.41	Lose2	0.6939	n/a	Yes	3.022	n/a	n/a	GoodResponse	0	n/a	n/a	8	48	Blank	AvoidedLoss	True
462.526	1.45	Lose2	0.6939	n/a	Yes	3.022	n/a	5.0	GoodResponse	0	0.031	461.557	8	48	Feedback	AvoidedLoss	True
463.98	3.022	Lose2	0.6939	n/a	Yes	3.022	n/a	n/a	GoodResponse	0	0.0	n/a	8	48	ISIslide	AvoidedLoss	True
467.022	0.25	Control	0.7	0.001	Yes	2.878	0.022	n/a	GoodResponse	0	n/a	n/a	8	49	Cue	Neutral	False
467.273	4.0	Control	0.7	0.0	Yes	2.878	0.001	3.0	GoodResponse	0	3.557	469.83	8	49	Fixation	Neutral	False
470.83	0.3	Control	0.7	0.0	Yes	2.878	0.001	3.0	GoodResponse	0	3.557	n/a	8	49	ButtonPress	Neutral	False
471.268	0.28	Control	0.7	0.004	Yes	2.878	-0.004	3.0	GoodResponse	0	0.254	470.522	8	49	Target	Neutral	False
471.522	0.3	Control	0.7	0.004	Yes	2.878	-0.004	3.0	GoodResponse	0	0.254	n/a	8	49	ButtonPress	Neutral	False
471.553	0.42	Control	0.7	n/a	Yes	2.878	n/a	n/a	GoodResponse	0	n/a	n/a	8	49	Blank	Neutral	False
471.971	1.45	Control	0.7	n/a	Yes	2.878	n/a	5.0	GoodResponse	0	0.0	470.971	8	49	Feedback	Neutral	False
473.425	2.878	Control	0.7	n/a	Yes	2.878	n/a	n/a	GoodResponse	0	0.0	n/a	8	49	ISIslide	Neutral	False
476.317	0.25	Control	0.7059000000000001	0.0	Yes	2.783	0.017	n/a	GoodResponse	0	n/a	n/a	8	50	Cue	Neutral	True
476.568	4.0	Control	0.7059000000000001	0.0	Yes	2.783	0.001	n/a	GoodResponse	0	n/a	n/a	8	50	Fixation	Neutral	True
480.563	0.27	Control	0.7059000000000001	0.004	Yes	2.783	-0.004	3.0	GoodResponse	0	0.168	479.731	8	50	Target	Neutral	True
480.731	0.3	Control	0.7059000000000001	0.004	Yes	2.783	-0.004	3.0	GoodResponse	0	0.168	n/a	8	50	ButtonPress	Neutral	True
480.847	0.43	Control	0.7059000000000001	n/a	Yes	2.783	n/a	n/a	GoodResponse	0	n/a	n/a	8	50	Blank	Neutral	True
481.265	1.45	Control	0.7059000000000001	n/a	Yes	2.783	n/a	5.0	GoodResponse	0	0.023	480.288	8	50	Feedback	Neutral	True
482.719	2.783	Control	0.7059000000000001	n/a	Yes	2.783	n/a	n/a	GoodResponse	0	0.0	n/a	8	50	ISIslide	Neutral	True
485.528	0.25	Control	0.7115	0.0	Yes	2.722	0.028	n/a	GoodResponse	0	n/a	n/a	8	51	Cue	Neutral	True
485.779	3.95	Control	0.7115	0.0	Yes	2.722	0.001	n/a	GoodResponse	0	n/a	n/a	8	51	Fixation	Neutral	True
489.724	0.26	Control	0.7115	0.004	Yes	2.722	-0.004	3.0	GoodResponse	0	0.171	488.895	8	51	Target	Neutral	True
489.895	0.3	Control	0.7115	0.004	Yes	2.722	-0.004	3.0	GoodResponse	0	0.171	n/a	8	51	ButtonPress	Neutral	True
489.991	0.44	Control	0.7115	n/a	Yes	2.722	n/a	n/a	GoodResponse	0	n/a	n/a	8	51	Blank	Neutral	True
490.426	1.45	Control	0.7115	n/a	Yes	2.722	n/a	5.0	GoodResponse	0	0.033	489.459	8	51	Feedback	Neutral	True
491.88	2.722	Control	0.7115	n/a	Yes	2.722	n/a	n/a	GoodResponse	0	0.0	n/a	8	51	ISIslide	Neutral	True
494.622	0.25	Control	0.7170000000000001	0.0	Yes	2.628	0.022	n/a	GoodResponse	0	n/a	n/a	8	52	Cue	Neutral	True
494.873	4.05	Control	0.7170000000000001	0.0	Yes	2.628	0.001	n/a	GoodResponse	0	n/a	n/a	8	52	Fixation	Neutral	True
498.918	0.25	Control	0.7170000000000001	0.004	Yes	2.628	-0.004	3.0	GoodResponse	0	0.135	498.053	8	52	Target	Neutral	True
499.053	0.3	Control	0.7170000000000001	0.004	Yes	2.628	-0.004	3.0	GoodResponse	0	0.135	n/a	8	52	ButtonPress	Neutral	True
499.169	0.45	Control	0.7170000000000001	n/a	Yes	2.628	n/a	n/a	GoodResponse	0	n/a	n/a	8	52	Blank	Neutral	True
499.62	1.45	Control	0.7170000000000001	n/a	Yes	2.628	n/a	5.0	GoodResponse	0	0.01	498.63	8	52	Feedback	Neutral	True
501.074	2.628	Control	0.7170000000000001	n/a	Yes	2.628	n/a	n/a	GoodResponse	0	0.0	n/a	8	52	ISIslide	Neutral	True
503.716	0.25	Win2	0.7037	0.0	No	2.934	0.016	n/a	NoResponse	0	n/a	n/a	8	53	Cue	MissedWin	False
503.966	4.05	Win2	0.7037	0.001	No	2.934	0.0	3.0	NoResponse	0	3.724	506.69	8	53	Fixation	MissedWin	False
507.69	0.3	Win2	0.7037	0.001	No	2.934	0.0	3.0	NoResponse	0	3.724	n/a	8	53	ButtonPress	MissedWin	False
508.012	0.24	Win2	0.7037	0.004	No	2.934	-0.004	3.0	NoResponse	0	0.262	507.274	8	53	Target	MissedWin	False
508.263	0.46	Win2	0.7037	n/a	No	2.934	n/a	n/a	NoResponse	0	n/a	n/a	8	53	Blank	MissedWin	False
508.274	0.3	Win2	0.7037	0.004	No	2.934	-0.004	3.0	NoResponse	0	0.262	n/a	8	53	ButtonPress	MissedWin	False
508.714	1.45	Win2	0.7037	n/a	No	2.934	n/a	5.0	NoResponse	0	0.037	507.751	8	53	Feedback	MissedWin	False
510.168	2.934	Win2	0.7037	n/a	No	2.934	n/a	n/a	NoResponse	0	0.0	n/a	8	53	ISIslide	MissedWin	False
513.127	0.25	Win2	0.6909000000000001	0.0	No	2.723	0.027	n/a	NoResponse	0	n/a	n/a	8	54	Cue	MissedWin	True
513.378	3.95	Win2	0.6909000000000001	0.0	No	2.723	0.001	3.0	NoResponse	0	3.869	516.247	8	54	Fixation	MissedWin	True
517.247	0.3	Win2	0.6909000000000001	0.0	No	2.723	0.001	3.0	NoResponse	0	3.869	n/a	8	54	ButtonPress	MissedWin	True
517.323	0.23	Win2	0.6909000000000001	0.004	No	2.723	-0.004	n/a	NoResponse	0	n/a	n/a	8	54	Target	MissedWin	True
517.557	0.47	Win2	0.6909000000000001	n/a	No	2.723	n/a	n/a	NoResponse	0	n/a	n/a	8	54	Blank	MissedWin	True
518.025	1.45	Win2	0.6909000000000001	n/a	No	2.723	n/a	5.0	NoResponse	0	0.043	517.068	8	54	Feedback	MissedWin	True
519.48	2.723	Win2	0.6909000000000001	n/a	No	2.723	n/a	n/a	NoResponse	0	0.0	n/a	8	54	ISIslide	MissedWin	True
522.221	0.25	Control	0.6964	0.0	Yes	3.029	0.021	n/a	GoodResponse	0	n/a	n/a	8	55	Cue	Neutral	True
522.472	3.95	Control	0.6964	0.0	Yes	3.029	0.001	n/a	GoodResponse	0	n/a	n/a	8	55	Fixation	Neutral	True
526.417	0.22	Control	0.6964	0.004	Yes	3.029	-0.004	3.0	GoodResponse	0	0.189	525.606	8	55	Target	Neutral	True
526.606	0.3	Control	0.6964	0.004	Yes	3.029	-0.004	3.0	GoodResponse	0	0.189	n/a	8	55	ButtonPress	Neutral	True
526.651	0.48	Control	0.6964	n/a	Yes	3.029	n/a	n/a	GoodResponse	0	n/a	n/a	8	55	Blank	Neutral	True
527.119	1.45	Control	0.6964	n/a	Yes	3.029	n/a	5.0	GoodResponse	0	0.022	526.141	8	55	Feedback	Neutral	True
528.574	3.029	Control	0.6964	n/a	Yes	3.029	n/a	n/a	GoodResponse	0	0.0	n/a	8	55	ISIslide	Neutral	True
531.616	0.25	Control	0.6842	0.0	No	2.834	0.016	n/a	NoResponse	0	n/a	n/a	8	56	Cue	Neutral	True
531.867	3.95	Control	0.6842	0.0	No	2.834	0.001	n/a	NoResponse	0	n/a	n/a	8	56	Fixation	Neutral	True
535.812	0.21	Control	0.6842	0.004	No	2.834	-0.004	3.0	NoResponse	0	0.334	535.146	8	56	Target	Neutral	True
536.029	0.49	Control	0.6842	n/a	No	2.834	n/a	n/a	NoResponse	0	n/a	n/a	8	56	Blank	Neutral	True
536.146	0.3	Control	0.6842	0.004	No	2.834	-0.004	3.0	NoResponse	0	0.334	n/a	8	56	ButtonPress	Neutral	True
536.514	1.45	Control	0.6842	n/a	No	2.834	n/a	5.0	NoResponse	0	0.042	535.556	8	56	Feedback	Neutral	True
537.968	2.834	Control	0.6842	n/a	No	2.834	n/a	n/a	NoResponse	0	0.0	n/a	8	56	ISIslide	Neutral	True
540.827	0.25	Control	0.6724	0.0	No	3.473	0.027	n/a	PrematurePress	0	n/a	n/a	8	57	Cue	Neutral	False
541.078	4.0	Control	0.6724	0.0	No	3.473	0.001	3.0	PrematurePress	0	2.97	543.048	8	57	Fixation	Neutral	False
544.048	0.3	Control	0.6724	0.0	No	3.473	0.001	3.0	PrematurePress	0	2.97	n/a	8	57	ButtonPress	Neutral	False
545.073	0.2	Control	0.6724	0.004	No	3.473	-0.004	3.0	PrematurePress	0	0.093	544.166	8	57	Target	Neutral	False
545.166	0.3	Control	0.6724	0.004	No	3.473	-0.004	3.0	PrematurePress	0	0.093	n/a	8	57	ButtonPress	Neutral	False
545.274	0.5	Control	0.6724	n/a	No	3.473	n/a	n/a	PrematurePress	0	n/a	n/a	8	57	Blank	Neutral	False
545.775	1.45	Control	0.6724	n/a	No	3.473	n/a	5.0	PrematurePress	0	0.001	544.776	8	57	Feedback	Neutral	False
547.229	3.473	Control	0.6724	n/a	No	3.473	n/a	n/a	PrematurePress	0	0.0	n/a	8	57	ISIslide	Neutral	False
550.723	0.25	Win2	0.6779999999999999	0.0	Yes	2.727	0.023	n/a	GoodResponse	1	n/a	n/a	9	58	Cue	Win	True
550.974	4.05	Win2	0.6779999999999999	0.0	Yes	2.727	0.001	n/a	GoodResponse	1	n/a	n/a	9	58	Fixation	Win	True
555.019	0.19	Win2	0.6779999999999999	0.004	Yes	2.727	-0.004	3.0	GoodResponse	1	0.175	554.194	9	58	Target	Win	True
555.194	0.3	Win2	0.6779999999999999	0.004	Yes	2.727	-0.004	3.0	GoodResponse	1	0.175	n/a	9	58	ButtonPress	Win	True
555.22	0.51	Win2	0.6779999999999999	n/a	Yes	2.727	n/a	n/a	GoodResponse	1	n/a	n/a	9	58	Blank	Win	True
555.722	1.45	Win2	0.6779999999999999	n/a	Yes	2.727	n/a	5.0	GoodResponse	1	0.006	554.728	9	58	Feedback	Win	True
557.176	2.727	Win2	0.6779999999999999	n/a	Yes	2.727	n/a	n/a	GoodResponse	1	0.0	n/a	9	58	ISIslide	Win	True
559.917	0.25	Lose2	0.6667000000000001	0.001	No	2.683	0.017	n/a	NoResponse	-1	n/a	n/a	8	59	Cue	Loss	True
560.168	4.0	Lose2	0.6667000000000001	0.0	No	2.683	0.001	3.0	NoResponse	-1	3.873	563.041	8	59	Fixation	Loss	True
564.041	0.3	Lose2	0.6667000000000001	0.0	No	2.683	0.001	3.0	NoResponse	-1	3.873	n/a	8	59	ButtonPress	Loss	True
564.164	0.18	Lose2	0.6667000000000001	0.003	No	2.683	-0.003	n/a	NoResponse	-1	n/a	n/a	8	59	Target	Loss	True
564.347	0.52	Lose2	0.6667000000000001	n/a	No	2.683	n/a	n/a	NoResponse	-1	n/a	n/a	8	59	Blank	Loss	True
564.866	1.45	Lose2	0.6667000000000001	n/a	No	2.683	n/a	5.0	NoResponse	-1	0.031	563.897	8	59	Feedback	Loss	True
566.32	2.683	Lose2	0.6667000000000001	n/a	No	2.683	n/a	n/a	NoResponse	-1	0.0	n/a	8	59	ISIslide	Loss	True
569.028	0.25	Control	0.6557	0.0	No	2.672	0.028	n/a	NoResponse	0	n/a	n/a	8	60	Cue	Neutral	True
569.279	4.0	Control	0.6557	0.0	No	2.672	0.001	n/a	NoResponse	0	n/a	n/a	8	60	Fixation	Neutral	True
573.274	0.17	Control	0.6557	0.004	No	2.672	-0.004	3.0	NoResponse	0	0.223	572.497	8	60	Target	Neutral	True
573.458	0.53	Control	0.6557	n/a	No	2.672	n/a	n/a	NoResponse	0	n/a	n/a	8	60	Blank	Neutral	True
573.497	0.3	Control	0.6557	0.004	No	2.672	-0.004	3.0	NoResponse	0	0.223	n/a	8	60	ButtonPress	Neutral	True
573.976	1.45	Control	0.6557	n/a	No	2.672	n/a	5.0	NoResponse	0	0.043	573.019	8	60	Feedback	Neutral	True
575.431	2.672	Control	0.6557	n/a	No	2.672	n/a	n/a	NoResponse	0	0.0	n/a	8	60	ISIslide	Neutral	True
578.122	0.25	Lose2	0.6452	0.0	No	2.978	0.022	n/a	LatePress	-1	n/a	n/a	7	61	Cue	Loss	True
578.373	4.0	Lose2	0.6452	0.0	No	2.978	0.001	n/a	LatePress	-1	n/a	n/a	7	61	Fixation	Loss	True
582.368	0.17	Lose2	0.6452	0.004	No	2.978	-0.004	3.0	LatePress	-1	0.173	581.541	7	61	Target	Loss	True
582.541	0.3	Lose2	0.6452	0.004	No	2.978	-0.004	3.0	LatePress	-1	0.173	n/a	7	61	ButtonPress	Loss	True
582.552	0.53	Lose2	0.6452	n/a	No	2.978	n/a	n/a	LatePress	-1	n/a	n/a	7	61	Blank	Loss	True
583.07	1.45	Lose2	0.6452	n/a	No	2.978	n/a	5.0	LatePress	-1	0.022	582.092	7	61	Feedback	Loss	True
584.525	2.978	Lose2	0.6452	n/a	No	2.978	n/a	n/a	LatePress	-1	0.0	n/a	7	61	ISIslide	Loss	True
587.517	0.25	Lose2	0.6507999999999999	0.0	Yes	2.883	0.017	n/a	GoodResponse	0	n/a	n/a	7	62	Cue	AvoidedLoss	True
587.768	3.9	Lose2	0.6507999999999999	0.0	Yes	2.883	0.001	n/a	GoodResponse	0	n/a	n/a	7	62	Fixation	AvoidedLoss	True
591.663	0.18	Lose2	0.6507999999999999	0.004	Yes	2.883	-0.004	3.0	GoodResponse	0	0.177	590.84	7	62	Target	AvoidedLoss	True
591.84	0.3	Lose2	0.6507999999999999	0.004	Yes	2.883	-0.004	3.0	GoodResponse	0	0.177	n/a	7	62	ButtonPress	AvoidedLoss	True
591.846	0.52	Lose2	0.6507999999999999	n/a	Yes	2.883	n/a	n/a	GoodResponse	0	n/a	n/a	7	62	Blank	AvoidedLoss	True
592.365	1.45	Lose2	0.6507999999999999	n/a	Yes	2.883	n/a	5.0	GoodResponse	0	0.044	591.409	7	62	Feedback	AvoidedLoss	True
593.819	2.883	Lose2	0.6507999999999999	n/a	Yes	2.883	n/a	n/a	GoodResponse	0	0.0	n/a	7	62	ISIslide	AvoidedLoss	True
596.728	0.25	Lose2	0.6406000000000001	0.0	No	2.622	0.028	n/a	NoResponse	-1	n/a	n/a	6	63	Cue	Loss	True
596.978	4.05	Lose2	0.6406000000000001	0.001	No	2.622	0.0	n/a	NoResponse	-1	n/a	n/a	6	63	Fixation	Loss	True
601.024	0.19	Lose2	0.6406000000000001	0.004	No	2.622	-0.004	3.0	NoResponse	-1	0.207	600.231	6	63	Target	Loss	True
601.225	0.51	Lose2	0.6406000000000001	n/a	No	2.622	n/a	n/a	NoResponse	-1	n/a	n/a	6	63	Blank	Loss	True
601.231	0.3	Lose2	0.6406000000000001	0.004	No	2.622	-0.004	3.0	NoResponse	-1	0.207	n/a	6	63	ButtonPress	Loss	True
601.726	1.45	Lose2	0.6406000000000001	n/a	No	2.622	n/a	5.0	NoResponse	-1	0.049	600.775	6	63	Feedback	Loss	True
603.18	2.622	Lose2	0.6406000000000001	n/a	No	2.622	n/a	n/a	NoResponse	-1	0.0	n/a	6	63	ISIslide	Loss	True
605.822	0.25	Win2	0.6308	0.0	No	3.128	0.022	n/a	NoResponse	0	n/a	n/a	6	64	Cue	MissedWin	True
606.072	4.15	Win2	0.6308	0.001	No	3.128	0.0	3.0	NoResponse	0	4.005	609.077	6	64	Fixation	MissedWin	True
610.077	0.3	Win2	0.6308	0.001	No	3.128	0.0	3.0	NoResponse	0	4.005	n/a	6	64	ButtonPress	MissedWin	True
610.218	0.2	Win2	0.6308	0.004	No	3.128	-0.004	n/a	NoResponse	0	n/a	n/a	6	64	Target	MissedWin	True
610.419	0.5	Win2	0.6308	n/a	No	3.128	n/a	n/a	NoResponse	0	n/a	n/a	6	64	Blank	MissedWin	True
610.92	1.45	Win2	0.6308	n/a	No	3.128	n/a	5.0	NoResponse	0	0.026	609.946	6	64	Feedback	MissedWin	True
612.375	3.128	Win2	0.6308	n/a	No	3.128	n/a	n/a	NoResponse	0	0.0	n/a	6	64	ISIslide	MissedWin	True
615.517	0.25	Control	0.6364	0.0	Yes	2.783	0.017	n/a	GoodResponse	0	n/a	n/a	6	65	Cue	Neutral	True
615.768	4.0	Control	0.6364	0.0	Yes	2.783	0.001	n/a	GoodResponse	0	n/a	n/a	6	65	Fixation	Neutral	True
619.763	0.21	Control	0.6364	0.004	Yes	2.783	-0.004	3.0	GoodResponse	0	0.202	618.965	6	65	Target	Neutral	True
619.965	0.3	Control	0.6364	0.004	Yes	2.783	-0.004	3.0	GoodResponse	0	0.202	n/a	6	65	ButtonPress	Neutral	True
619.981	0.49	Control	0.6364	n/a	Yes	2.783	n/a	n/a	GoodResponse	0	n/a	n/a	6	65	Blank	Neutral	True
620.466	1.45	Control	0.6364	n/a	Yes	2.783	n/a	5.0	GoodResponse	0	0.041	619.507	6	65	Feedback	Neutral	True
621.92	2.783	Control	0.6364	n/a	Yes	2.783	n/a	n/a	GoodResponse	0	0.0	n/a	6	65	ISIslide	Neutral	True
624.728	0.25	Win2	0.6418	0.0	Yes	2.772	0.028	n/a	GoodResponse	1	n/a	n/a	7	66	Cue	Win	True
624.979	3.9	Win2	0.6418	0.0	Yes	2.772	0.001	n/a	GoodResponse	1	n/a	n/a	7	66	Fixation	Win	True
628.874	0.22	Win2	0.6418	0.004	Yes	2.772	-0.004	3.0	GoodResponse	1	0.155	628.029	7	66	Target	Win	True
629.029	0.3	Win2	0.6418	0.004	Yes	2.772	-0.004	3.0	GoodResponse	1	0.155	n/a	7	66	ButtonPress	Win	True
629.108	0.48	Win2	0.6418	n/a	Yes	2.772	n/a	n/a	GoodResponse	1	n/a	n/a	7	66	Blank	Win	True
629.576	1.45	Win2	0.6418	n/a	Yes	2.772	n/a	5.0	GoodResponse	1	0.008	628.584	7	66	Feedback	Win	True
631.031	2.772	Win2	0.6418	n/a	Yes	2.772	n/a	n/a	GoodResponse	1	0.0	n/a	7	66	ISIslide	Win	True
633.822	0.25	Control	0.6324000000000001	0.0	No	2.728	0.022	n/a	PrematurePress	0	n/a	n/a	7	67	Cue	Neutral	True
634.073	3.95	Control	0.6324000000000001	0.0	No	2.728	0.001	n/a	PrematurePress	0	n/a	n/a	7	67	Fixation	Neutral	True
638.018	0.23	Control	0.6324000000000001	0.004	No	2.728	-0.004	3.0	PrematurePress	0	0.06	637.078	7	67	Target	Neutral	True
638.078	0.3	Control	0.6324000000000001	0.004	No	2.728	-0.004	3.0	PrematurePress	0	0.06	n/a	7	67	ButtonPress	Neutral	True
638.252	0.47	Control	0.6324000000000001	n/a	No	2.728	n/a	n/a	PrematurePress	0	n/a	n/a	7	67	Blank	Neutral	True
638.72	1.45	Control	0.6324000000000001	n/a	No	2.728	n/a	5.0	PrematurePress	0	0.03	637.75	7	67	Feedback	Neutral	True
640.175	2.728	Control	0.6324000000000001	n/a	No	2.728	n/a	n/a	PrematurePress	0	0.0	n/a	7	67	ISIslide	Neutral	True
642.916	0.25	Win2	0.6377	0.0	Yes	3.084	0.016	n/a	GoodResponse	1	n/a	n/a	8	68	Cue	Win	True
643.167	4.0	Win2	0.6377	0.0	Yes	3.084	0.001	n/a	GoodResponse	1	n/a	n/a	8	68	Fixation	Win	True
647.162	0.24	Win2	0.6377	0.004	Yes	3.084	-0.004	3.0	GoodResponse	1	0.175	646.337	8	68	Target	Win	True
647.337	0.3	Win2	0.6377	0.004	Yes	3.084	-0.004	3.0	GoodResponse	1	0.175	n/a	8	68	ButtonPress	Win	True
647.413	0.46	Win2	0.6377	n/a	Yes	3.084	n/a	n/a	GoodResponse	1	n/a	n/a	8	68	Blank	Win	True
647.864	1.45	Win2	0.6377	n/a	Yes	3.084	n/a	5.0	GoodResponse	1	0.008	646.872	8	68	Feedback	Win	True
649.319	3.084	Win2	0.6377	n/a	Yes	3.084	n/a	n/a	GoodResponse	1	0.0	n/a	8	68	ISIslide	Win	True
652.428	0.25	Win2	0.6429	0.0	Yes	3.222	0.028	n/a	GoodResponse	1	n/a	n/a	9	69	Cue	Win	True
652.679	3.95	Win2	0.6429	0.0	Yes	3.222	0.001	n/a	GoodResponse	1	n/a	n/a	9	69	Fixation	Win	True
656.624	0.25	Win2	0.6429	0.004	Yes	3.222	-0.004	3.0	GoodResponse	1	0.245	655.869	9	69	Target	Win	True
656.869	0.3	Win2	0.6429	0.004	Yes	3.222	-0.004	3.0	GoodResponse	1	0.245	n/a	9	69	ButtonPress	Win	True
656.875	0.45	Win2	0.6429	n/a	Yes	3.222	n/a	n/a	GoodResponse	1	n/a	n/a	9	69	Blank	Win	True
657.326	1.45	Win2	0.6429	n/a	Yes	3.222	n/a	5.0	GoodResponse	1	0.01	656.336	9	69	Feedback	Win	True
658.78	3.222	Win2	0.6429	n/a	Yes	3.222	n/a	n/a	GoodResponse	1	0.0	n/a	9	69	ISIslide	Win	True
662.023	0.25	Lose2	0.6479	0.001	Yes	3.027	0.023	n/a	GoodResponse	0	n/a	n/a	9	70	Cue	AvoidedLoss	True
662.274	4.05	Lose2	0.6479	0.0	Yes	3.027	0.001	n/a	GoodResponse	0	n/a	n/a	9	70	Fixation	AvoidedLoss	True
666.32	0.26	Lose2	0.6479	0.003	Yes	3.027	-0.003	3.0	GoodResponse	0	0.173	665.493	9	70	Target	AvoidedLoss	True
666.493	0.3	Lose2	0.6479	0.003	Yes	3.027	-0.003	3.0	GoodResponse	0	0.173	n/a	9	70	ButtonPress	AvoidedLoss	True
666.587	0.44	Lose2	0.6479	n/a	Yes	3.027	n/a	n/a	GoodResponse	0	n/a	n/a	9	70	Blank	AvoidedLoss	True
667.022	1.45	Lose2	0.6479	n/a	Yes	3.027	n/a	5.0	GoodResponse	0	0.021	666.043	9	70	Feedback	AvoidedLoss	True
668.476	3.027	Lose2	0.6479	n/a	Yes	3.027	n/a	n/a	GoodResponse	0	0.0	n/a	9	70	ISIslide	AvoidedLoss	True
671.519	0.25	Win2	0.6528	0.0	Yes	2.731	0.019	n/a	GoodResponse	1	n/a	n/a	10	71	Cue	Win	True
671.769	4.05	Win2	0.6528	0.0	Yes	2.731	0.0	n/a	GoodResponse	1	n/a	n/a	10	71	Fixation	Win	True
675.815	0.27	Win2	0.6528	0.004	Yes	2.731	-0.004	3.0	GoodResponse	1	0.176	674.991	10	71	Target	Win	True
675.991	0.3	Win2	0.6528	0.004	Yes	2.731	-0.004	3.0	GoodResponse	1	0.176	n/a	10	71	ButtonPress	Win	True
676.099	0.43	Win2	0.6528	n/a	Yes	2.731	n/a	n/a	GoodResponse	1	n/a	n/a	10	71	Blank	Win	True
676.517	1.45	Win2	0.6528	n/a	Yes	2.731	n/a	5.0	GoodResponse	1	0.038	675.555	10	71	Feedback	Win	True
677.971	2.731	Win2	0.6528	n/a	Yes	2.731	n/a	n/a	GoodResponse	1	0.0	n/a	10	71	ISIslide	Win	True
680.729	0.25	Win2	0.6575	0.001	Yes	2.771	0.029	n/a	GoodResponse	1	n/a	n/a	11	72	Cue	Win	True
680.98	4.1	Win2	0.6575	0.0	Yes	2.771	0.001	n/a	GoodResponse	1	n/a	n/a	11	72	Fixation	Win	True
685.076	0.28	Win2	0.6575	0.003	Yes	2.771	-0.003	3.0	GoodResponse	1	0.187	684.263	11	72	Target	Win	True
685.263	0.3	Win2	0.6575	0.003	Yes	2.771	-0.003	3.0	GoodResponse	1	0.187	n/a	11	72	ButtonPress	Win	True
685.36	0.42	Win2	0.6575	n/a	Yes	2.771	n/a	n/a	GoodResponse	1	n/a	n/a	11	72	Blank	Win	True
685.778	1.45	Win2	0.6575	n/a	Yes	2.771	n/a	5.0	GoodResponse	1	0.045	684.823	11	72	Feedback	Win	True
687.232	2.771	Win2	0.6575	n/a	Yes	2.771	n/a	n/a	GoodResponse	1	0.0	n/a	11	72	ISIslide	Win	True
690.024	0.25	Win2	0.6622	0.0	Yes	2.676	0.024	n/a	GoodResponse	1	n/a	n/a	12	73	Cue	Win	True
690.275	4.0	Win2	0.6622	0.0	Yes	2.676	0.001	n/a	GoodResponse	1	n/a	n/a	12	73	Fixation	Win	True
694.27	0.28	Win2	0.6622	0.004	Yes	2.676	-0.004	3.0	GoodResponse	1	0.17	693.44	12	73	Target	Win	True
694.44	0.3	Win2	0.6622	0.004	Yes	2.676	-0.004	3.0	GoodResponse	1	0.17	n/a	12	73	ButtonPress	Win	True
694.554	0.42	Win2	0.6622	n/a	Yes	2.676	n/a	n/a	GoodResponse	1	n/a	n/a	12	73	Blank	Win	True
694.972	1.45	Win2	0.6622	n/a	Yes	2.676	n/a	5.0	GoodResponse	1	0.021	693.993	12	73	Feedback	Win	True
696.426	2.676	Win2	0.6622	n/a	Yes	2.676	n/a	n/a	GoodResponse	1	0.0	n/a	12	73	ISIslide	Win	True
699.118	0.25	Lose2	0.6533	0.0	No	2.632	0.018	n/a	NoResponse	-1	n/a	n/a	11	74	Cue	Loss	True
699.369	4.05	Lose2	0.6533	0.0	No	2.632	0.001	3.0	NoResponse	-1	3.834	702.203	11	74	Fixation	Loss	True
703.203	0.3	Lose2	0.6533	0.0	No	2.632	0.001	3.0	NoResponse	-1	3.834	n/a	11	74	ButtonPress	Loss	True
703.414	0.28	Lose2	0.6533	0.004	No	2.632	-0.004	n/a	NoResponse	-1	n/a	n/a	11	74	Target	Loss	True
703.698	0.42	Lose2	0.6533	n/a	No	2.632	n/a	n/a	NoResponse	-1	n/a	n/a	11	74	Blank	Loss	True
704.116	1.45	Lose2	0.6533	n/a	No	2.632	n/a	5.0	NoResponse	-1	0.001	703.117	11	74	Feedback	Loss	True
705.571	2.632	Lose2	0.6533	n/a	No	2.632	n/a	n/a	NoResponse	-1	0.0	n/a	11	74	ISIslide	Loss	True
708.229	0.25	Lose2	0.6579	0.0	Yes	2.921	0.029	n/a	GoodResponse	0	n/a	n/a	11	75	Cue	AvoidedLoss	True
708.479	3.95	Lose2	0.6579	0.0	Yes	2.921	0.0	n/a	GoodResponse	0	n/a	n/a	11	75	Fixation	AvoidedLoss	True
712.441	0.29	Lose2	0.6579	0.0	Yes	2.921	0.012	3.0	GoodResponse	0	0.167	711.608	11	75	Target	AvoidedLoss	True
712.608	0.3	Lose2	0.6579	0.0	Yes	2.921	0.012	3.0	GoodResponse	0	0.167	n/a	11	75	ButtonPress	AvoidedLoss	True
712.725	0.41	Lose2	0.6579	n/a	Yes	2.921	n/a	n/a	GoodResponse	0	n/a	n/a	11	75	Blank	AvoidedLoss	True
713.127	1.45	Lose2	0.6579	n/a	Yes	2.921	n/a	5.0	GoodResponse	0	0.013	712.14	11	75	Feedback	AvoidedLoss	True
714.581	2.921	Lose2	0.6579	n/a	Yes	2.921	n/a	n/a	GoodResponse	0	0.0	n/a	11	75	ISIslide	AvoidedLoss	True
717.523	0.25	Control	0.6623	0.0	Yes	3.227	0.023	n/a	GoodResponse	0	n/a	n/a	11	76	Cue	Neutral	True
717.774	4.05	Control	0.6623	0.0	Yes	3.227	0.001	n/a	GoodResponse	0	n/a	n/a	11	76	Fixation	Neutral	True
721.819	0.29	Control	0.6623	0.004	Yes	3.227	-0.004	3.0	GoodResponse	0	0.175	720.994	11	76	Target	Neutral	True
721.994	0.3	Control	0.6623	0.004	Yes	3.227	-0.004	3.0	GoodResponse	0	0.175	n/a	11	76	ButtonPress	Neutral	True
722.12	0.41	Control	0.6623	n/a	Yes	3.227	n/a	n/a	GoodResponse	0	n/a	n/a	11	76	Blank	Neutral	True
722.521	1.45	Control	0.6623	n/a	Yes	3.227	n/a	5.0	GoodResponse	0	0.034	721.555	11	76	Feedback	Neutral	True
723.976	3.227	Control	0.6623	n/a	Yes	3.227	n/a	n/a	GoodResponse	0	0.0	n/a	11	76	ISIslide	Neutral	True
727.219	0.25	Lose2	0.6667000000000001	0.0	Yes	2.581	0.019	n/a	GoodResponse	0	n/a	n/a	11	77	Cue	AvoidedLoss	True
727.469	3.95	Lose2	0.6667000000000001	0.001	Yes	2.581	0.0	n/a	GoodResponse	0	n/a	n/a	11	77	Fixation	AvoidedLoss	True
731.415	0.29	Lose2	0.6667000000000001	0.004	Yes	2.581	-0.004	3.0	GoodResponse	0	0.174	730.589	11	77	Target	AvoidedLoss	True
731.589	0.3	Lose2	0.6667000000000001	0.004	Yes	2.581	-0.004	3.0	GoodResponse	0	0.174	n/a	11	77	ButtonPress	AvoidedLoss	True
731.716	0.41	Lose2	0.6667000000000001	n/a	Yes	2.581	n/a	n/a	GoodResponse	0	n/a	n/a	11	77	Blank	AvoidedLoss	True
732.117	1.45	Lose2	0.6667000000000001	n/a	Yes	2.581	n/a	5.0	GoodResponse	0	0.047	731.164	11	77	Feedback	AvoidedLoss	True
733.571	2.581	Lose2	0.6667000000000001	n/a	Yes	2.581	n/a	n/a	GoodResponse	0	0.0	n/a	11	77	ISIslide	AvoidedLoss	True
