onset	duration	cue_type	current_mean_accuracy	duration_error	is_hit	isi_adjusted	onset_delay	response	response_type	reward	rt	rt_time	total_reward	trial_number	trial_phase	trial_type	one_press
11.109	0.25	Control	1.0	0.0	Yes	2.941	0.009	n/a	GoodResponse	0	n/a	n/a	0	0	Cue	Neutral	True
11.359	3.85	Control	1.0	0.0	Yes	2.941	0.0	n/a	GoodResponse	0	n/a	n/a	0	0	Fixation	Neutral	True
15.221	0.4	Control	1.0	0.0	Yes	2.941	0.012	4.0	GoodResponse	0	0.222	14.443	0	0	Target	Neutral	True
15.443	0.3	Control	1.0	0.0	Yes	2.941	0.012	4.0	GoodResponse	0	0.222	n/a	0	0	ButtonPress	Neutral	True
15.605	0.3	Control	1.0	n/a	Yes	2.941	n/a	n/a	GoodResponse	0	n/a	n/a	0	0	Blank	Neutral	True
15.906	1.45	Control	1.0	n/a	Yes	2.941	n/a	5.0	GoodResponse	0	0.02	14.926	0	0	Feedback	Neutral	True
17.361	2.941	Control	1.0	n/a	Yes	2.941	n/a	n/a	GoodResponse	0	0.0	n/a	0	0	ISIslide	Neutral	True
20.32	0.25	Lose2	1.0	0.0	Yes	2.78	0.02	n/a	GoodResponse	0	n/a	n/a	0	1	Cue	AvoidedLoss	True
20.57	4.0	Lose2	1.0	0.0	Yes	2.78	0.0	n/a	GoodResponse	0	n/a	n/a	0	1	Fixation	AvoidedLoss	True
24.566	0.39	Lose2	1.0	0.004	Yes	2.78	-0.004	4.0	GoodResponse	0	0.178	23.744	0	1	Target	AvoidedLoss	True
24.744	0.3	Lose2	1.0	0.004	Yes	2.78	-0.004	4.0	GoodResponse	0	0.178	n/a	0	1	ButtonPress	AvoidedLoss	True
24.967	0.31	Lose2	1.0	n/a	Yes	2.78	n/a	n/a	GoodResponse	0	n/a	n/a	0	1	Blank	AvoidedLoss	True
25.268	1.45	Lose2	1.0	n/a	Yes	2.78	n/a	5.0	GoodResponse	0	0.024	24.292	0	1	Feedback	AvoidedLoss	True
26.722	2.78	Lose2	1.0	n/a	Yes	2.78	n/a	n/a	GoodResponse	0	0.0	n/a	0	1	ISIslide	AvoidedLoss	True
29.514	0.25	Control	0.6667000000000001	0.0	No	2.586	0.014	n/a	PrematurePress	0	n/a	n/a	0	2	Cue	Neutral	True
29.765	4.1	Control	0.6667000000000001	0.0	No	2.586	0.001	n/a	PrematurePress	0	n/a	n/a	0	2	Fixation	Neutral	True
33.86	0.38	Control	0.6667000000000001	0.004	No	2.586	-0.004	4.0	PrematurePress	0	0.077	32.937	0	2	Target	Neutral	True
33.937	0.3	Control	0.6667000000000001	0.004	No	2.586	-0.004	4.0	PrematurePress	0	0.077	n/a	0	2	ButtonPress	Neutral	True
34.245	0.32	Control	0.6667000000000001	n/a	No	2.586	n/a	n/a	PrematurePress	0	n/a	n/a	0	2	Blank	Neutral	True
34.562	1.45	Control	0.6667000000000001	n/a	No	2.586	n/a	5.0	PrematurePress	0	0.047	33.609	0	2	Feedback	Neutral	True
36.017	2.586	Control	0.6667000000000001	n/a	No	2.586	n/a	n/a	PrematurePress	0	0.0	n/a	0	2	ISIslide	Neutral	True
38.624	0.25	Win2	0.75	0.001	Yes	2.826	0.024	n/a	GoodResponse	1	n/a	n/a	1	3	Cue	Win	True
38.892	3.95	Win2	0.75	0.0	Yes	2.826	0.018	n/a	GoodResponse	1	n/a	n/a	1	3	Fixation	Win	True
42.82	0.37	Win2	0.75	0.004	Yes	2.826	-0.004	4.0	GoodResponse	1	0.182	42.002	1	3	Target	Win	True
43.002	0.3	Win2	0.75	0.004	Yes	2.826	-0.004	4.0	GoodResponse	1	0.182	n/a	1	3	ButtonPress	Win	True
43.205	0.33	Win2	0.75	n/a	Yes	2.826	n/a	n/a	GoodResponse	1	n/a	n/a	1	3	Blank	Win	True
43.522	1.45	Win2	0.75	n/a	Yes	2.826	n/a	5.0	GoodResponse	1	0.013	42.535	1	3	Feedback	Win	True
44.977	2.826	Win2	0.75	n/a	Yes	2.826	n/a	n/a	GoodResponse	1	0.0	n/a	1	3	ISIslide	Win	True
47.819	0.25	Win2	0.8	0.0	Yes	3.281	0.019	n/a	GoodResponse	1	n/a	n/a	2	4	Cue	Win	True
48.069	4.0	Win2	0.8	0.0	Yes	3.281	0.0	n/a	GoodResponse	1	n/a	n/a	2	4	Fixation	Win	True
52.065	0.36	Win2	0.8	0.004	Yes	3.281	-0.004	4.0	GoodResponse	1	0.166	51.231	2	4	Target	Win	True
52.231	0.3	Win2	0.8	0.004	Yes	3.281	-0.004	4.0	GoodResponse	1	0.166	n/a	2	4	ButtonPress	Win	True
52.432	0.34	Win2	0.8	n/a	Yes	3.281	n/a	n/a	GoodResponse	1	n/a	n/a	2	4	Blank	Win	True
52.767	1.45	Win2	0.8	n/a	Yes	3.281	n/a	5.0	GoodResponse	1	0.037	51.804	2	4	Feedback	Win	True
54.221	3.281	Win2	0.8	n/a	Yes	3.281	n/a	n/a	GoodResponse	1	0.0	n/a	2	4	ISIslide	Win	True
57.514	0.25	Win2	0.8332999999999999	0.001	Yes	2.786	0.014	n/a	GoodResponse	1	n/a	n/a	3	5	Cue	Win	True
57.765	4.0	Win2	0.8332999999999999	0.0	Yes	2.786	0.001	n/a	GoodResponse	1	n/a	n/a	3	5	Fixation	Win	True
61.76	0.35	Win2	0.8332999999999999	0.004	Yes	2.786	-0.004	4.0	GoodResponse	1	0.179	60.939	3	5	Target	Win	True
61.939	0.3	Win2	0.8332999999999999	0.004	Yes	2.786	-0.004	4.0	GoodResponse	1	0.179	n/a	3	5	ButtonPress	Win	True
62.111	0.35	Win2	0.8332999999999999	n/a	Yes	2.786	n/a	n/a	GoodResponse	1	n/a	n/a	3	5	Blank	Win	True
62.463	1.45	Win2	0.8332999999999999	n/a	Yes	2.786	n/a	5.0	GoodResponse	1	0.048	61.511	3	5	Feedback	Win	True
63.917	2.786	Win2	0.8332999999999999	n/a	Yes	2.786	n/a	n/a	GoodResponse	1	0.0	n/a	3	5	ISIslide	Win	True
66.725	0.25	Lose2	0.8571	0.0	Yes	2.725	0.025	n/a	GoodResponse	0	n/a	n/a	3	6	Cue	AvoidedLoss	True
66.976	3.95	Lose2	0.8571	0.0	Yes	2.725	0.001	n/a	GoodResponse	0	n/a	n/a	3	6	Fixation	AvoidedLoss	True
70.921	0.34	Lose2	0.8571	0.004	Yes	2.725	-0.004	4.0	GoodResponse	0	0.215	70.136	3	6	Target	AvoidedLoss	True
71.136	0.3	Lose2	0.8571	0.004	Yes	2.725	-0.004	4.0	GoodResponse	0	0.215	n/a	3	6	ButtonPress	AvoidedLoss	True
71.272	0.36	Lose2	0.8571	n/a	Yes	2.725	n/a	n/a	GoodResponse	0	n/a	n/a	3	6	Blank	AvoidedLoss	True
71.623	1.45	Lose2	0.8571	n/a	Yes	2.725	n/a	5.0	GoodResponse	0	0.01	70.633	3	6	Feedback	AvoidedLoss	True
73.078	2.725	Lose2	0.8571	n/a	Yes	2.725	n/a	n/a	GoodResponse	0	0.0	n/a	3	6	ISIslide	AvoidedLoss	True
75.819	0.25	Lose2	0.875	0.0	Yes	4.031	0.019	n/a	GoodResponse	0	n/a	n/a	3	7	Cue	AvoidedLoss	True
76.07	4.05	Lose2	0.875	0.0	Yes	4.031	0.001	n/a	GoodResponse	0	n/a	n/a	3	7	Fixation	AvoidedLoss	True
80.115	0.33	Lose2	0.875	0.004	Yes	4.031	-0.004	4.0	GoodResponse	0	0.174	79.289	3	7	Target	AvoidedLoss	True
80.289	0.3	Lose2	0.875	0.004	Yes	4.031	-0.004	4.0	GoodResponse	0	0.174	n/a	3	7	ButtonPress	AvoidedLoss	True
80.45	0.37	Lose2	0.875	n/a	Yes	4.031	n/a	n/a	GoodResponse	0	n/a	n/a	3	7	Blank	AvoidedLoss	True
80.818	1.45	Lose2	0.875	n/a	Yes	4.031	n/a	5.0	GoodResponse	0	0.035	79.853	3	7	Feedback	AvoidedLoss	True
82.272	4.031	Lose2	0.875	n/a	Yes	4.031	n/a	n/a	GoodResponse	0	0.0	n/a	3	7	ISIslide	AvoidedLoss	True
86.317	0.25	Lose2	0.8889	0.0	Yes	3.033	0.017	n/a	GoodResponse	0	n/a	n/a	3	8	Cue	AvoidedLoss	True
86.568	3.95	Lose2	0.8889	0.0	Yes	3.033	0.001	n/a	GoodResponse	0	n/a	n/a	3	8	Fixation	AvoidedLoss	True
90.513	0.32	Lose2	0.8889	0.004	Yes	3.033	-0.004	4.0	GoodResponse	0	0.196	89.709	3	8	Target	AvoidedLoss	True
90.709	0.3	Lose2	0.8889	0.004	Yes	3.033	-0.004	4.0	GoodResponse	0	0.196	n/a	3	8	ButtonPress	AvoidedLoss	True
90.848	0.38	Lose2	0.8889	n/a	Yes	3.033	n/a	n/a	GoodResponse	0	n/a	n/a	3	8	Blank	AvoidedLoss	True
91.215	1.45	Lose2	0.8889	n/a	Yes	3.033	n/a	5.0	GoodResponse	0	0.027	90.242	3	8	Feedback	AvoidedLoss	True
92.67	3.033	Lose2	0.8889	n/a	Yes	3.033	n/a	n/a	GoodResponse	0	0.0	n/a	3	8	ISIslide	AvoidedLoss	True
95.729	0.25	Lose2	0.8	0.0	No	3.121	0.029	n/a	PrematurePress	-1	n/a	n/a	2	9	Cue	Loss	True
95.98	3.95	Lose2	0.8	0.0	No	3.121	0.001	n/a	PrematurePress	-1	n/a	n/a	2	9	Fixation	Loss	True
99.925	0.31	Lose2	0.8	0.004	No	3.121	-0.004	4.0	PrematurePress	-1	0.008	98.933	2	9	Target	Loss	True
99.933	0.3	Lose2	0.8	0.004	No	3.121	-0.004	4.0	PrematurePress	-1	0.008	n/a	2	9	ButtonPress	Loss	True
100.242	0.39	Lose2	0.8	n/a	No	3.121	n/a	n/a	PrematurePress	-1	n/a	n/a	2	9	Blank	Loss	True
100.627	1.45	Lose2	0.8	n/a	No	3.121	n/a	5.0	PrematurePress	-1	0.03	99.657	2	9	Feedback	Loss	True
102.081	3.121	Lose2	0.8	n/a	No	3.121	n/a	n/a	PrematurePress	-1	0.0	n/a	2	9	ISIslide	Loss	True
105.224	0.25	Control	0.8181999999999999	0.0	Yes	3.276	0.024	n/a	GoodResponse	0	n/a	n/a	2	10	Cue	Neutral	True
105.475	4.0	Control	0.8181999999999999	0.0	Yes	3.276	0.001	n/a	GoodResponse	0	n/a	n/a	2	10	Fixation	Neutral	True
109.47	0.3	Control	0.8181999999999999	0.004	Yes	3.276	-0.004	4.0	GoodResponse	0	0.185	108.655	2	10	Target	Neutral	True
109.655	0.3	Control	0.8181999999999999	0.004	Yes	3.276	-0.004	4.0	GoodResponse	0	0.185	n/a	2	10	ButtonPress	Neutral	True
109.771	0.4	Control	0.8181999999999999	n/a	Yes	3.276	n/a	n/a	GoodResponse	0	n/a	n/a	2	10	Blank	Neutral	True
110.172	1.45	Control	0.8181999999999999	n/a	Yes	3.276	n/a	5.0	GoodResponse	0	0.046	109.218	2	10	Feedback	Neutral	True
111.626	3.276	Control	0.8181999999999999	n/a	Yes	3.276	n/a	n/a	GoodResponse	0	0.0	n/a	2	10	ISIslide	Neutral	True
114.92	0.25	Lose2	0.8332999999999999	0.0	Yes	2.73	0.02	n/a	GoodResponse	0	n/a	n/a	2	11	Cue	AvoidedLoss	True
115.17	4.05	Lose2	0.8332999999999999	0.001	Yes	2.73	0.0	n/a	GoodResponse	0	n/a	n/a	2	11	Fixation	AvoidedLoss	True
119.216	0.29	Lose2	0.8332999999999999	0.004	Yes	2.73	-0.004	4.0	GoodResponse	0	0.185	118.401	2	11	Target	AvoidedLoss	True
119.401	0.3	Lose2	0.8332999999999999	0.004	Yes	2.73	-0.004	4.0	GoodResponse	0	0.185	n/a	2	11	ButtonPress	AvoidedLoss	True
119.517	0.41	Lose2	0.8332999999999999	n/a	Yes	2.73	n/a	n/a	GoodResponse	0	n/a	n/a	2	11	Blank	AvoidedLoss	True
119.918	1.45	Lose2	0.8332999999999999	n/a	Yes	2.73	n/a	5.0	GoodResponse	0	0.007	118.925	2	11	Feedback	AvoidedLoss	True
121.372	2.73	Lose2	0.8332999999999999	n/a	Yes	2.73	n/a	n/a	GoodResponse	0	0.0	n/a	2	11	ISIslide	AvoidedLoss	True
124.114	0.25	Control	0.8462000000000001	0.0	Yes	2.986	0.014	n/a	GoodResponse	0	n/a	n/a	2	12	Cue	Neutral	True
124.365	3.9	Control	0.8462000000000001	0.0	Yes	2.986	0.001	n/a	GoodResponse	0	n/a	n/a	2	12	Fixation	Neutral	True
128.26	0.28	Control	0.8462000000000001	0.004	Yes	2.986	-0.004	4.0	GoodResponse	0	0.203	127.463	2	12	Target	Neutral	True
128.463	0.3	Control	0.8462000000000001	0.004	Yes	2.986	-0.004	4.0	GoodResponse	0	0.203	n/a	2	12	ButtonPress	Neutral	True
128.544	0.42	Control	0.8462000000000001	n/a	Yes	2.986	n/a	n/a	GoodResponse	0	n/a	n/a	2	12	Blank	Neutral	True
128.962	1.45	Control	0.8462000000000001	n/a	Yes	2.986	n/a	5.0	GoodResponse	0	0.037	127.999	2	12	Feedback	Neutral	True
130.416	2.986	Control	0.8462000000000001	n/a	Yes	2.986	n/a	n/a	GoodResponse	0	0.0	n/a	2	12	ISIslide	Neutral	True
133.425	0.25	Control	0.7857	0.0	No	2.775	0.025	n/a	NoResponse	0	n/a	n/a	2	13	Cue	Neutral	True
133.676	4.0	Control	0.7857	0.0	No	2.775	0.001	n/a	NoResponse	0	n/a	n/a	2	13	Fixation	Neutral	True
137.671	0.27	Control	0.7857	0.004	No	2.775	-0.004	4.0	NoResponse	0	0.292	136.963	2	13	Target	Neutral	True
137.955	0.43	Control	0.7857	n/a	No	2.775	n/a	n/a	NoResponse	0	n/a	n/a	2	13	Blank	Neutral	True
137.963	0.3	Control	0.7857	0.004	No	2.775	-0.004	4.0	NoResponse	0	0.292	n/a	2	13	ButtonPress	Neutral	True
138.373	1.45	Control	0.7857	n/a	No	2.775	n/a	5.0	NoResponse	0	0.04	137.413	2	13	Feedback	Neutral	True
139.828	2.775	Control	0.7857	n/a	No	2.775	n/a	n/a	NoResponse	0	0.0	n/a	2	13	ISIslide	Neutral	True
142.619	0.25	Win2	0.8	0.0	Yes	2.681	0.019	n/a	GoodResponse	1	n/a	n/a	3	14	Cue	Win	True
142.87	4.1	Win2	0.8	0.0	Yes	2.681	0.001	n/a	GoodResponse	1	n/a	n/a	3	14	Fixation	Win	True
146.966	0.26	Win2	0.8	0.003	Yes	2.681	-0.003	4.0	GoodResponse	1	0.178	146.144	3	14	Target	Win	True
147.144	0.3	Win2	0.8	0.003	Yes	2.681	-0.003	4.0	GoodResponse	1	0.178	n/a	3	14	ButtonPress	Win	True
147.233	0.44	Win2	0.8	n/a	Yes	2.681	n/a	n/a	GoodResponse	1	n/a	n/a	3	14	Blank	Win	True
147.668	1.45	Win2	0.8	n/a	Yes	2.681	n/a	5.0	GoodResponse	1	0.014	146.682	3	14	Feedback	Win	True
149.122	2.681	Win2	0.8	n/a	Yes	2.681	n/a	n/a	GoodResponse	1	0.0	n/a	3	14	ISIslide	Win	True
151.814	0.25	Control	0.8125	0.0	Yes	2.986	0.014	n/a	GoodResponse	0	n/a	n/a	3	15	Cue	Neutral	True
152.064	4.0	Control	0.8125	0.0	Yes	2.986	0.0	n/a	GoodResponse	0	n/a	n/a	3	15	Fixation	Neutral	True
156.06	0.25	Control	0.8125	0.004	Yes	2.986	-0.004	4.0	GoodResponse	0	0.164	155.224	3	15	Target	Neutral	True
156.224	0.3	Control	0.8125	0.004	Yes	2.986	-0.004	4.0	GoodResponse	0	0.164	n/a	3	15	ButtonPress	Neutral	True
156.31	0.45	Control	0.8125	n/a	Yes	2.986	n/a	n/a	GoodResponse	0	n/a	n/a	3	15	Blank	Neutral	True
156.762	1.45	Control	0.8125	n/a	Yes	2.986	n/a	5.0	GoodResponse	0	0.041	155.803	3	15	Feedback	Neutral	True
158.216	2.986	Control	0.8125	n/a	Yes	2.986	n/a	n/a	GoodResponse	0	0.0	n/a	3	15	ISIslide	Neutral	True
161.225	0.25	Win2	0.8234999999999999	0.0	Yes	2.875	0.025	n/a	GoodResponse	1	n/a	n/a	4	16	Cue	Win	True
161.476	4.0	Win2	0.8234999999999999	0.0	Yes	2.875	0.001	n/a	GoodResponse	1	n/a	n/a	4	16	Fixation	Win	True
165.471	0.24	Win2	0.8234999999999999	0.004	Yes	2.875	-0.004	4.0	GoodResponse	1	0.186	164.657	4	16	Target	Win	True
165.657	0.3	Win2	0.8234999999999999	0.004	Yes	2.875	-0.004	4.0	GoodResponse	1	0.186	n/a	4	16	ButtonPress	Win	True
165.722	0.46	Win2	0.8234999999999999	n/a	Yes	2.875	n/a	n/a	GoodResponse	1	n/a	n/a	4	16	Blank	Win	True
166.173	1.45	Win2	0.8234999999999999	n/a	Yes	2.875	n/a	5.0	GoodResponse	1	0.044	165.217	4	16	Feedback	Win	True
167.628	2.875	Win2	0.8234999999999999	n/a	Yes	2.875	n/a	n/a	GoodResponse	1	0.0	n/a	4	16	ISIslide	Win	True
170.52	0.25	Lose2	0.8332999999999999	0.0	Yes	2.73	0.02	n/a	GoodResponse	0	n/a	n/a	4	17	Cue	AvoidedLoss	True
170.77	3.95	Lose2	0.8332999999999999	0.0	Yes	2.73	0.0	n/a	GoodResponse	0	n/a	n/a	4	17	Fixation	AvoidedLoss	True
174.716	0.23	Lose2	0.8332999999999999	0.004	Yes	2.73	-0.004	4.0	GoodResponse	0	0.226	173.942	4	17	Target	AvoidedLoss	True
174.942	0.3	Lose2	0.8332999999999999	0.004	Yes	2.73	-0.004	4.0	GoodResponse	0	0.226	n/a	4	17	ButtonPress	AvoidedLoss	True
174.95	0.47	Lose2	0.8332999999999999	n/a	Yes	2.73	n/a	n/a	GoodResponse	0	n/a	n/a	4	17	Blank	AvoidedLoss	True
175.418	1.45	Lose2	0.8332999999999999	n/a	Yes	2.73	n/a	5.0	GoodResponse	0	0.019	174.437	4	17	Feedback	AvoidedLoss	True
176.872	2.73	Lose2	0.8332999999999999	n/a	Yes	2.73	n/a	n/a	GoodResponse	0	0.0	n/a	4	17	ISIslide	AvoidedLoss	True
179.614	0.25	Lose2	0.7895	0.0	No	2.736	0.014	n/a	NoResponse	-1	n/a	n/a	3	18	Cue	Loss	True
179.864	4.05	Lose2	0.7895	0.0	No	2.736	0.0	4.0	NoResponse	-1	3.958	182.822	3	18	Fixation	Loss	True
183.822	0.3	Lose2	0.7895	0.0	No	2.736	0.0	4.0	NoResponse	-1	3.958	n/a	3	18	ButtonPress	Loss	True
183.91	0.22	Lose2	0.7895	0.004	No	2.736	-0.004	n/a	NoResponse	-1	n/a	n/a	3	18	Target	Loss	True
184.144	0.48	Lose2	0.7895	n/a	No	2.736	n/a	n/a	NoResponse	-1	n/a	n/a	3	18	Blank	Loss	True
184.612	1.45	Lose2	0.7895	n/a	No	2.736	n/a	5.0	NoResponse	-1	0.045	183.657	3	18	Feedback	Loss	True
186.066	2.736	Lose2	0.7895	n/a	No	2.736	n/a	n/a	NoResponse	-1	0.0	n/a	3	18	ISIslide	Loss	True
188.824	0.25	Control	0.8	0.001	Yes	2.926	0.024	n/a	GoodResponse	0	n/a	n/a	3	19	Cue	Neutral	True
189.075	3.95	Control	0.8	0.0	Yes	2.926	0.001	n/a	GoodResponse	0	n/a	n/a	3	19	Fixation	Neutral	True
193.02	0.21	Control	0.8	0.004	Yes	2.926	-0.004	4.0	GoodResponse	0	0.186	192.206	3	19	Target	Neutral	True
193.206	0.3	Control	0.8	0.004	Yes	2.926	-0.004	4.0	GoodResponse	0	0.186	n/a	3	19	ButtonPress	Neutral	True
193.238	0.49	Control	0.8	n/a	Yes	2.926	n/a	n/a	GoodResponse	0	n/a	n/a	3	19	Blank	Neutral	True
193.722	1.45	Control	0.8	n/a	Yes	2.926	n/a	5.0	GoodResponse	0	0.008	192.73	3	19	Feedback	Neutral	True
195.177	2.926	Control	0.8	n/a	Yes	2.926	n/a	n/a	GoodResponse	0	0.0	n/a	3	19	ISIslide	Neutral	True
198.119	0.25	Control	0.8095	0.0	Yes	2.631	0.019	n/a	GoodResponse	0	n/a	n/a	3	20	Cue	Neutral	True
198.37	4.05	Control	0.8095	0.0	Yes	2.631	0.001	n/a	GoodResponse	0	n/a	n/a	3	20	Fixation	Neutral	True
202.415	0.2	Control	0.8095	0.004	Yes	2.631	-0.004	4.0	GoodResponse	0	0.194	201.609	3	20	Target	Neutral	True
202.609	0.3	Control	0.8095	0.004	Yes	2.631	-0.004	4.0	GoodResponse	0	0.194	n/a	3	20	ButtonPress	Neutral	True
202.616	0.5	Control	0.8095	n/a	Yes	2.631	n/a	n/a	GoodResponse	0	n/a	n/a	3	20	Blank	Neutral	True
203.117	1.45	Control	0.8095	n/a	Yes	2.631	n/a	5.0	GoodResponse	0	0.028	202.145	3	20	Feedback	Neutral	True
204.572	2.631	Control	0.8095	n/a	Yes	2.631	n/a	n/a	GoodResponse	0	0.0	n/a	3	20	ISIslide	Neutral	True
207.213	0.25	Control	0.7726999999999999	0.0	No	2.787	0.013	n/a	LatePress	0	n/a	n/a	3	21	Cue	Neutral	True
207.464	4.1	Control	0.7726999999999999	0.0	No	2.787	0.001	n/a	LatePress	0	n/a	n/a	3	21	Fixation	Neutral	True
211.559	0.19	Control	0.7726999999999999	0.004	No	2.787	-0.004	4.0	LatePress	0	0.19	210.749	3	21	Target	Neutral	True
211.749	0.3	Control	0.7726999999999999	0.004	No	2.787	-0.004	4.0	LatePress	0	0.19	n/a	3	21	ButtonPress	Neutral	True
211.76	0.51	Control	0.7726999999999999	n/a	No	2.787	n/a	n/a	LatePress	0	n/a	n/a	3	21	Blank	Neutral	True
212.261	1.45	Control	0.7726999999999999	n/a	No	2.787	n/a	5.0	LatePress	0	0.005	211.266	3	21	Feedback	Neutral	True
213.716	2.787	Control	0.7726999999999999	n/a	No	2.787	n/a	n/a	LatePress	0	0.0	n/a	3	21	ISIslide	Neutral	True
216.524	0.25	Control	0.7826000000000001	0.0	Yes	2.776	0.024	n/a	GoodResponse	0	n/a	n/a	3	22	Cue	Neutral	True
216.775	4.0	Control	0.7826000000000001	0.0	Yes	2.776	0.001	n/a	GoodResponse	0	n/a	n/a	3	22	Fixation	Neutral	True
220.77	0.18	Control	0.7826000000000001	0.004	Yes	2.776	-0.004	4.0	GoodResponse	0	0.142	219.912	3	22	Target	Neutral	True
220.912	0.3	Control	0.7826000000000001	0.004	Yes	2.776	-0.004	4.0	GoodResponse	0	0.142	n/a	3	22	ButtonPress	Neutral	True
220.954	0.52	Control	0.7826000000000001	n/a	Yes	2.776	n/a	n/a	GoodResponse	0	n/a	n/a	3	22	Blank	Neutral	True
221.472	1.45	Control	0.7826000000000001	n/a	Yes	2.776	n/a	5.0	GoodResponse	0	0.013	220.485	3	22	Feedback	Neutral	True
222.927	2.776	Control	0.7826000000000001	n/a	Yes	2.776	n/a	n/a	GoodResponse	0	0.0	n/a	3	22	ISIslide	Neutral	True
225.718	0.25	Control	0.75	0.0	No	2.782	0.018	n/a	NoResponse	0	n/a	n/a	3	23	Cue	Neutral	True
225.969	3.9	Control	0.75	0.0	No	2.782	0.001	n/a	NoResponse	0	n/a	n/a	3	23	Fixation	Neutral	True
229.864	0.17	Control	0.75	0.004	No	2.782	-0.004	4.0	NoResponse	0	0.222	229.086	3	23	Target	Neutral	True
230.048	0.53	Control	0.75	n/a	No	2.782	n/a	n/a	NoResponse	0	n/a	n/a	3	23	Blank	Neutral	True
230.086	0.3	Control	0.75	0.004	No	2.782	-0.004	4.0	NoResponse	0	0.222	n/a	3	23	ButtonPress	Neutral	True
230.566	1.45	Control	0.75	n/a	No	2.782	n/a	5.0	NoResponse	0	0.041	229.607	3	23	Feedback	Neutral	True
232.021	2.782	Control	0.75	n/a	No	2.782	n/a	n/a	NoResponse	0	0.0	n/a	3	23	ISIslide	Neutral	True
234.829	0.25	Win2	0.76	0.0	Yes	3.121	0.029	n/a	GoodResponse	1	n/a	n/a	4	24	Cue	Win	False
235.08	3.95	Win2	0.76	0.0	Yes	3.121	0.001	4.0	GoodResponse	1	3.588	237.668	4	24	Fixation	Win	False
238.668	0.3	Win2	0.76	0.0	Yes	3.121	0.001	4.0	GoodResponse	1	3.588	n/a	4	24	ButtonPress	Win	False
239.025	0.16	Win2	0.76	0.004	Yes	3.121	-0.004	4.0	GoodResponse	1	0.124	238.149	4	24	Target	Win	False
239.149	0.3	Win2	0.76	0.004	Yes	3.121	-0.004	4.0	GoodResponse	1	0.124	n/a	4	24	ButtonPress	Win	False
239.192	0.54	Win2	0.76	n/a	Yes	3.121	n/a	n/a	GoodResponse	1	n/a	n/a	4	24	Blank	Win	False
239.727	1.45	Win2	0.76	n/a	Yes	3.121	n/a	5.0	GoodResponse	1	0.002	238.729	4	24	Feedback	Win	False
241.181	3.121	Win2	0.76	n/a	Yes	3.121	n/a	n/a	GoodResponse	1	0.0	n/a	4	24	ISIslide	Win	False
244.324	0.25	Win2	0.7308	0.0	No	3.076	0.024	n/a	NoResponse	0	n/a	n/a	4	25	Cue	MissedWin	True
244.575	4.0	Win2	0.7308	0.0	No	3.076	0.001	n/a	NoResponse	0	n/a	n/a	4	25	Fixation	MissedWin	True
248.57	0.15	Win2	0.7308	0.004	No	3.076	-0.004	4.0	NoResponse	0	0.187	247.757	4	25	Target	MissedWin	True
248.721	0.55	Win2	0.7308	n/a	No	3.076	n/a	n/a	NoResponse	0	n/a	n/a	4	25	Blank	MissedWin	True
248.757	0.3	Win2	0.7308	0.004	No	3.076	-0.004	4.0	NoResponse	0	0.187	n/a	4	25	ButtonPress	MissedWin	True
249.272	1.45	Win2	0.7308	n/a	No	3.076	n/a	5.0	NoResponse	0	0.018	248.29	4	25	Feedback	MissedWin	True
250.727	3.076	Win2	0.7308	n/a	No	3.076	n/a	n/a	NoResponse	0	0.0	n/a	4	25	ISIslide	MissedWin	True
253.819	0.25	Win2	0.7037	0.0	No	2.931	0.019	n/a	NoResponse	0	n/a	n/a	4	26	Cue	MissedWin	True
254.07	3.95	Win2	0.7037	0.0	No	2.931	0.001	n/a	NoResponse	0	n/a	n/a	4	26	Fixation	MissedWin	True
258.015	0.15	Win2	0.7037	0.004	No	2.931	-0.004	4.0	NoResponse	0	0.177	257.192	4	26	Target	MissedWin	True
258.166	0.55	Win2	0.7037	n/a	No	2.931	n/a	n/a	NoResponse	0	n/a	n/a	4	26	Blank	MissedWin	True
258.192	0.3	Win2	0.7037	0.004	No	2.931	-0.004	4.0	NoResponse	0	0.177	n/a	4	26	ButtonPress	MissedWin	True
258.717	1.45	Win2	0.7037	n/a	No	2.931	n/a	5.0	NoResponse	0	0.037	257.754	4	26	Feedback	MissedWin	True
260.172	2.931	Win2	0.7037	n/a	No	2.931	n/a	n/a	NoResponse	0	0.0	n/a	4	26	ISIslide	MissedWin	True
263.114	0.25	Lose2	0.6786	0.0	No	2.836	0.014	n/a	NoResponse	-1	n/a	n/a	3	27	Cue	Loss	True
263.365	4.05	Lose2	0.6786	0.0	No	2.836	0.001	n/a	NoResponse	-1	n/a	n/a	3	27	Fixation	Loss	True
267.41	0.15	Lose2	0.6786	0.004	No	2.836	-0.004	4.0	NoResponse	-1	0.19	266.6	3	27	Target	Loss	True
267.56	0.55	Lose2	0.6786	n/a	No	2.836	n/a	n/a	NoResponse	-1	n/a	n/a	3	27	Blank	Loss	True
267.6	0.3	Lose2	0.6786	0.004	No	2.836	-0.004	4.0	NoResponse	-1	0.19	n/a	3	27	ButtonPress	Loss	True
268.112	1.45	Lose2	0.6786	n/a	No	2.836	n/a	5.0	NoResponse	-1	0.007	267.119	3	27	Feedback	Loss	True
269.566	2.836	Lose2	0.6786	n/a	No	2.836	n/a	n/a	NoResponse	-1	0.0	n/a	3	27	ISIslide	Loss	True
272.425	0.25	Control	0.6552	0.0	No	2.825	0.025	n/a	NoResponse	0	n/a	n/a	3	28	Cue	Neutral	False
272.676	4.05	Control	0.6552	0.0	No	2.825	0.001	4.0	NoResponse	0	2.59	274.266	3	28	Fixation	Neutral	False
275.266	0.3	Control	0.6552	0.0	No	2.825	0.001	4.0	NoResponse	0	2.59	n/a	3	28	ButtonPress	Neutral	False
276.721	0.15	Control	0.6552	0.004	No	2.825	-0.004	4.0	NoResponse	0	0.248	275.969	3	28	Target	Neutral	False
276.872	0.55	Control	0.6552	n/a	No	2.825	n/a	n/a	NoResponse	0	n/a	n/a	3	28	Blank	Neutral	False
276.969	0.3	Control	0.6552	0.004	No	2.825	-0.004	4.0	NoResponse	0	0.248	n/a	3	28	ButtonPress	Neutral	False
277.423	1.45	Control	0.6552	n/a	No	2.825	n/a	5.0	NoResponse	0	0.013	276.436	3	28	Feedback	Neutral	False
278.878	2.825	Control	0.6552	n/a	No	2.825	n/a	4.0	NoResponse	0	0.076	n/a	3	28	ISIslide	Neutral	False
281.703	0.25	Lose2	0.6333	0.0	No	2.847	0.003	n/a	NoResponse	-1	n/a	n/a	2	29	Cue	Loss	True
281.954	3.95	Lose2	0.6333	0.0	No	2.847	0.001	n/a	NoResponse	-1	n/a	n/a	2	29	Fixation	Loss	True
285.899	0.15	Lose2	0.6333	0.004	No	2.847	-0.004	4.0	NoResponse	-1	0.179	285.078	2	29	Target	Loss	True
286.049	0.55	Lose2	0.6333	n/a	No	2.847	n/a	n/a	NoResponse	-1	n/a	n/a	2	29	Blank	Loss	True
286.078	0.3	Lose2	0.6333	0.004	No	2.847	-0.004	4.0	NoResponse	-1	0.179	n/a	2	29	ButtonPress	Loss	True
286.601	1.45	Lose2	0.6333	n/a	No	2.847	n/a	5.0	NoResponse	-1	0.006	285.607	2	29	Feedback	Loss	True
288.055	2.847	Lose2	0.6333	n/a	No	2.847	n/a	n/a	NoResponse	-1	0.0	n/a	2	29	ISIslide	Loss	True
290.914	0.25	Win2	0.6129	0.0	No	2.786	0.014	n/a	NoResponse	0	n/a	n/a	2	30	Cue	MissedWin	False
291.164	3.9	Win2	0.6129	0.001	No	2.786	0.0	4.0	NoResponse	0	3.681	293.845	2	30	Fixation	MissedWin	False
294.845	0.3	Win2	0.6129	0.001	No	2.786	0.0	4.0	NoResponse	0	3.681	n/a	2	30	ButtonPress	MissedWin	False
295.076	0.16	Win2	0.6129	0.0	No	2.786	0.012	4.0	NoResponse	0	0.216	294.292	2	30	Target	MissedWin	False
295.227	0.54	Win2	0.6129	n/a	No	2.786	n/a	n/a	NoResponse	0	n/a	n/a	2	30	Blank	MissedWin	False
295.292	0.3	Win2	0.6129	0.0	No	2.786	0.012	4.0	NoResponse	0	0.216	n/a	2	30	ButtonPress	MissedWin	False
295.762	1.45	Win2	0.6129	n/a	No	2.786	n/a	5.0	NoResponse	0	0.016	294.778	2	30	Feedback	MissedWin	False
297.216	2.786	Win2	0.6129	n/a	No	2.786	n/a	n/a	NoResponse	0	0.0	n/a	2	30	ISIslide	MissedWin	False
300.024	0.25	Lose2	0.5938	0.0	No	2.826	0.024	n/a	PrematurePress	-1	n/a	n/a	1	31	Cue	Loss	False
300.275	4.05	Lose2	0.5938	0.0	No	2.826	0.001	4.0	PrematurePress	-1	4.048	303.323	1	31	Fixation	Loss	False
304.321	0.17	Lose2	0.5938	0.003	No	2.826	-0.003	4.0	PrematurePress	-1	0.002	303.323	1	31	Target	Loss	False
304.323	0.3	Lose2	0.5938	0.0	No	2.826	0.001	4.0	PrematurePress	-1	4.048	n/a	1	31	ButtonPress	Loss	False
304.323	0.3	Lose2	0.5938	0.003	No	2.826	-0.003	4.0	PrematurePress	-1	0.002	n/a	1	31	ButtonPress	Loss	False
304.504	0.53	Lose2	0.5938	n/a	No	2.826	n/a	n/a	PrematurePress	-1	n/a	n/a	1	31	Blank	Loss	False
305.023	1.45	Lose2	0.5938	n/a	No	2.826	n/a	5.0	PrematurePress	-1	0.023	304.046	1	31	Feedback	Loss	False
306.477	2.826	Lose2	0.5938	n/a	No	2.826	n/a	n/a	PrematurePress	-1	0.0	n/a	1	31	ISIslide	Loss	False
309.319	0.25	Lose2	0.5758	0.0	No	2.631	0.019	n/a	NoResponse	-1	n/a	n/a	0	32	Cue	Loss	False
309.57	4.15	Lose2	0.5758	0.0	No	2.631	0.001	4.0	NoResponse	-1	1.899	310.469	0	32	Fixation	Loss	False
311.469	0.3	Lose2	0.5758	0.0	No	2.631	0.001	4.0	NoResponse	-1	1.899	n/a	0	32	ButtonPress	Loss	False
313.715	0.18	Lose2	0.5758	0.004	No	2.631	-0.004	4.0	NoResponse	-1	0.225	312.94	0	32	Target	Loss	False
313.899	0.52	Lose2	0.5758	n/a	No	2.631	n/a	n/a	NoResponse	-1	n/a	n/a	0	32	Blank	Loss	False
313.94	0.3	Lose2	0.5758	0.004	No	2.631	-0.004	4.0	NoResponse	-1	0.225	n/a	0	32	ButtonPress	Loss	False
314.417	1.45	Lose2	0.5758	n/a	No	2.631	n/a	5.0	NoResponse	-1	0.044	313.461	0	32	Feedback	Loss	False
315.872	2.631	Lose2	0.5758	n/a	No	2.631	n/a	2.0	NoResponse	-1	0.078	n/a	0	32	ISIslide	Loss	False
318.496	0.25	Win2	0.5882000000000001	0.0	Yes	2.704	-0.004	n/a	GoodResponse	1	n/a	n/a	1	33	Cue	Win	True
318.747	4.0	Win2	0.5882000000000001	0.0	Yes	2.704	0.001	n/a	GoodResponse	1	n/a	n/a	1	33	Fixation	Win	True
322.742	0.19	Win2	0.5882000000000001	0.004	Yes	2.704	-0.004	1.0	GoodResponse	1	0.169	321.911	1	33	Target	Win	True
322.911	0.3	Win2	0.5882000000000001	0.004	Yes	2.704	-0.004	1.0	GoodResponse	1	0.169	n/a	1	33	ButtonPress	Win	True
322.943	0.51	Win2	0.5882000000000001	n/a	Yes	2.704	n/a	n/a	GoodResponse	1	n/a	n/a	1	33	Blank	Win	True
323.445	1.45	Win2	0.5882000000000001	n/a	Yes	2.704	n/a	5.0	GoodResponse	1	0.04	322.485	1	33	Feedback	Win	True
324.899	2.704	Win2	0.5882000000000001	n/a	Yes	2.704	n/a	n/a	GoodResponse	1	0.0	n/a	1	33	ISIslide	Win	True
327.624	0.25	Lose2	0.6	0.0	Yes	2.626	0.024	n/a	GoodResponse	0	n/a	n/a	1	34	Cue	AvoidedLoss	True
327.875	4.05	Lose2	0.6	0.0	Yes	2.626	0.001	n/a	GoodResponse	0	n/a	n/a	1	34	Fixation	AvoidedLoss	True
331.92	0.2	Lose2	0.6	0.004	Yes	2.626	-0.004	1.0	GoodResponse	0	0.179	331.099	1	34	Target	AvoidedLoss	True
332.099	0.3	Lose2	0.6	0.004	Yes	2.626	-0.004	1.0	GoodResponse	0	0.179	n/a	1	34	ButtonPress	AvoidedLoss	True
332.121	0.5	Lose2	0.6	n/a	Yes	2.626	n/a	n/a	GoodResponse	0	n/a	n/a	1	34	Blank	AvoidedLoss	True
332.622	1.45	Lose2	0.6	n/a	Yes	2.626	n/a	5.0	GoodResponse	0	0.033	331.655	1	34	Feedback	AvoidedLoss	True
334.076	2.626	Lose2	0.6	n/a	Yes	2.626	n/a	n/a	GoodResponse	0	0.0	n/a	1	34	ISIslide	AvoidedLoss	True
336.718	0.25	Lose2	0.6111	0.0	Yes	2.682	0.018	n/a	GoodResponse	0	n/a	n/a	1	35	Cue	AvoidedLoss	True
336.968	4.0	Lose2	0.6111	0.0	Yes	2.682	0.0	n/a	GoodResponse	0	n/a	n/a	1	35	Fixation	AvoidedLoss	True
340.98	0.21	Lose2	0.6111	0.0	Yes	2.682	0.012	1.0	GoodResponse	0	0.19	340.17	1	35	Target	AvoidedLoss	True
341.17	0.3	Lose2	0.6111	0.0	Yes	2.682	0.012	1.0	GoodResponse	0	0.19	n/a	1	35	ButtonPress	AvoidedLoss	True
341.181	0.49	Lose2	0.6111	n/a	Yes	2.682	n/a	n/a	GoodResponse	0	n/a	n/a	1	35	Blank	AvoidedLoss	True
341.666	1.45	Lose2	0.6111	n/a	Yes	2.682	n/a	5.0	GoodResponse	0	0.013	340.679	1	35	Feedback	AvoidedLoss	True
343.12	2.682	Lose2	0.6111	n/a	Yes	2.682	n/a	n/a	GoodResponse	0	0.0	n/a	1	35	ISIslide	AvoidedLoss	True
345.828	0.25	Control	0.5946	0.0	No	2.672	0.028	n/a	NoResponse	0	n/a	n/a	1	36	Cue	Neutral	True
346.079	4.0	Control	0.5946	0.0	No	2.672	0.001	1.0	NoResponse	0	3.945	349.024	1	36	Fixation	Neutral	True
350.024	0.3	Control	0.5946	0.0	No	2.672	0.001	1.0	NoResponse	0	3.945	n/a	1	36	ButtonPress	Neutral	True
350.074	0.22	Control	0.5946	0.004	No	2.672	-0.004	n/a	NoResponse	0	n/a	n/a	1	36	Target	Neutral	True
350.308	0.48	Control	0.5946	n/a	No	2.672	n/a	n/a	NoResponse	0	n/a	n/a	1	36	Blank	Neutral	True
350.776	1.45	Control	0.5946	n/a	No	2.672	n/a	5.0	NoResponse	0	0.025	349.801	1	36	Feedback	Neutral	True
352.231	2.672	Control	0.5946	n/a	No	2.672	n/a	n/a	NoResponse	0	0.0	n/a	1	36	ISIslide	Neutral	True
354.922	0.25	Win2	0.6053000000000001	0.0	Yes	2.878	0.022	n/a	GoodResponse	1	n/a	n/a	2	37	Cue	Win	True
355.173	4.0	Win2	0.6053000000000001	0.0	Yes	2.878	0.001	n/a	GoodResponse	1	n/a	n/a	2	37	Fixation	Win	True
359.168	0.23	Win2	0.6053000000000001	0.004	Yes	2.878	-0.004	1.0	GoodResponse	1	0.194	358.362	2	37	Target	Win	True
359.362	0.3	Win2	0.6053000000000001	0.004	Yes	2.878	-0.004	1.0	GoodResponse	1	0.194	n/a	2	37	ButtonPress	Win	True
359.402	0.47	Win2	0.6053000000000001	n/a	Yes	2.878	n/a	n/a	GoodResponse	1	n/a	n/a	2	37	Blank	Win	True
359.87	1.45	Win2	0.6053000000000001	n/a	Yes	2.878	n/a	5.0	GoodResponse	1	0.005	358.875	2	37	Feedback	Win	True
361.325	2.878	Win2	0.6053000000000001	n/a	Yes	2.878	n/a	n/a	GoodResponse	1	0.0	n/a	2	37	ISIslide	Win	True
364.217	0.25	Lose2	0.6154	0.0	Yes	2.833	0.017	n/a	GoodResponse	0	n/a	n/a	2	38	Cue	AvoidedLoss	True
364.467	3.95	Lose2	0.6154	0.001	Yes	2.833	0.0	n/a	GoodResponse	0	n/a	n/a	2	38	Fixation	AvoidedLoss	True
368.413	0.24	Lose2	0.6154	0.004	Yes	2.833	-0.004	1.0	GoodResponse	0	0.176	367.589	2	38	Target	AvoidedLoss	True
368.589	0.3	Lose2	0.6154	0.004	Yes	2.833	-0.004	1.0	GoodResponse	0	0.176	n/a	2	38	ButtonPress	AvoidedLoss	True
368.663	0.46	Lose2	0.6154	n/a	Yes	2.833	n/a	n/a	GoodResponse	0	n/a	n/a	2	38	Blank	AvoidedLoss	True
369.115	1.45	Lose2	0.6154	n/a	Yes	2.833	n/a	5.0	GoodResponse	0	0.028	368.143	2	38	Feedback	AvoidedLoss	True
370.569	2.833	Lose2	0.6154	n/a	Yes	2.833	n/a	n/a	GoodResponse	0	0.0	n/a	2	38	ISIslide	AvoidedLoss	True
373.428	0.25	Win2	0.625	0.0	Yes	2.972	0.028	n/a	GoodResponse	1	n/a	n/a	3	39	Cue	Win	True
373.678	4.1	Win2	0.625	0.0	Yes	2.972	0.0	n/a	GoodResponse	1	n/a	n/a	3	39	Fixation	Win	True
377.774	0.25	Win2	0.625	0.004	Yes	2.972	-0.004	1.0	GoodResponse	1	0.222	376.996	3	39	Target	Win	True
377.996	0.3	Win2	0.625	0.004	Yes	2.972	-0.004	1.0	GoodResponse	1	0.222	n/a	3	39	ButtonPress	Win	True
378.025	0.45	Win2	0.625	n/a	Yes	2.972	n/a	n/a	GoodResponse	1	n/a	n/a	3	39	Blank	Win	True
378.476	1.45	Win2	0.625	n/a	Yes	2.972	n/a	5.0	GoodResponse	1	0.033	377.509	3	39	Feedback	Win	True
379.93	2.972	Win2	0.625	n/a	Yes	2.972	n/a	n/a	GoodResponse	1	0.0	n/a	3	39	ISIslide	Win	True
382.923	0.25	Win2	0.6341	0.0	Yes	2.727	0.023	n/a	GoodResponse	1	n/a	n/a	4	40	Cue	Win	True
383.173	3.95	Win2	0.6341	0.001	Yes	2.727	0.0	n/a	GoodResponse	1	n/a	n/a	4	40	Fixation	Win	True
387.119	0.26	Win2	0.6341	0.004	Yes	2.727	-0.004	1.0	GoodResponse	1	0.233	386.352	4	40	Target	Win	True
387.352	0.3	Win2	0.6341	0.004	Yes	2.727	-0.004	1.0	GoodResponse	1	0.233	n/a	4	40	ButtonPress	Win	True
387.386	0.44	Win2	0.6341	n/a	Yes	2.727	n/a	n/a	GoodResponse	1	n/a	n/a	4	40	Blank	Win	True
387.821	1.45	Win2	0.6341	n/a	Yes	2.727	n/a	5.0	GoodResponse	1	0.005	386.826	4	40	Feedback	Win	True
389.275	2.727	Win2	0.6341	n/a	Yes	2.727	n/a	n/a	GoodResponse	1	0.0	n/a	4	40	ISIslide	Win	True
392.017	0.25	Win2	0.6429	0.0	Yes	2.783	0.017	n/a	GoodResponse	1	n/a	n/a	5	41	Cue	Win	True
392.267	3.9	Win2	0.6429	0.001	Yes	2.783	0.0	n/a	GoodResponse	1	n/a	n/a	5	41	Fixation	Win	True
396.179	0.27	Win2	0.6429	0.0	Yes	2.783	0.012	1.0	GoodResponse	1	0.206	395.385	5	41	Target	Win	True
396.385	0.3	Win2	0.6429	0.0	Yes	2.783	0.012	1.0	GoodResponse	1	0.206	n/a	5	41	ButtonPress	Win	True
396.447	0.43	Win2	0.6429	n/a	Yes	2.783	n/a	n/a	GoodResponse	1	n/a	n/a	5	41	Blank	Win	True
396.865	1.45	Win2	0.6429	n/a	Yes	2.783	n/a	5.0	GoodResponse	1	0.033	395.898	5	41	Feedback	Win	True
398.319	2.783	Win2	0.6429	n/a	Yes	2.783	n/a	n/a	GoodResponse	1	0.0	n/a	5	41	ISIslide	Win	True
401.127	0.25	Control	0.6512	0.0	Yes	2.923	0.027	n/a	GoodResponse	0	n/a	n/a	5	42	Cue	Neutral	False
401.378	3.85	Control	0.6512	0.0	Yes	2.923	0.001	1.0	GoodResponse	0	3.506	403.884	5	42	Fixation	Neutral	False
404.884	0.3	Control	0.6512	0.0	Yes	2.923	0.001	1.0	GoodResponse	0	3.506	n/a	5	42	ButtonPress	Neutral	False
405.223	0.28	Control	0.6512	0.004	Yes	2.923	-0.004	1.0	GoodResponse	0	0.218	404.441	5	42	Target	Neutral	False
405.441	0.3	Control	0.6512	0.004	Yes	2.923	-0.004	1.0	GoodResponse	0	0.218	n/a	5	42	ButtonPress	Neutral	False
405.507	0.42	Control	0.6512	n/a	Yes	2.923	n/a	n/a	GoodResponse	0	n/a	n/a	5	42	Blank	Neutral	False
405.925	1.45	Control	0.6512	n/a	Yes	2.923	n/a	5.0	GoodResponse	0	0.047	404.972	5	42	Feedback	Neutral	False
407.379	2.923	Control	0.6512	n/a	Yes	2.923	n/a	n/a	GoodResponse	0	0.0	n/a	5	42	ISIslide	Neutral	False
410.322	0.25	Win2	0.6591	0.0	Yes	3.178	0.022	n/a	GoodResponse	1	n/a	n/a	6	43	Cue	Win	False
410.572	4.0	Win2	0.6591	0.0	Yes	3.178	0.0	1.0	GoodResponse	1	3.884	413.456	6	43	Fixation	Win	False
414.456	0.3	Win2	0.6591	0.0	Yes	3.178	0.0	1.0	GoodResponse	1	3.884	n/a	6	43	ButtonPress	Win	False
414.568	0.29	Win2	0.6591	0.004	Yes	3.178	-0.004	1.0	GoodResponse	1	0.171	413.739	6	43	Target	Win	False
414.739	0.3	Win2	0.6591	0.004	Yes	3.178	-0.004	1.0	GoodResponse	1	0.171	n/a	6	43	ButtonPress	Win	False
414.868	0.41	Win2	0.6591	n/a	Yes	3.178	n/a	n/a	GoodResponse	1	n/a	n/a	6	43	Blank	Win	False
415.27	1.45	Win2	0.6591	n/a	Yes	3.178	n/a	5.0	GoodResponse	1	0.019	414.289	6	43	Feedback	Win	False
416.724	3.178	Win2	0.6591	n/a	Yes	3.178	n/a	n/a	GoodResponse	1	0.0	n/a	6	43	ISIslide	Win	False
419.917	0.25	Win2	0.6667000000000001	0.0	Yes	2.983	0.017	n/a	GoodResponse	1	n/a	n/a	7	44	Cue	Win	True
420.168	4.0	Win2	0.6667000000000001	0.0	Yes	2.983	0.001	n/a	GoodResponse	1	n/a	n/a	7	44	Fixation	Win	True
424.163	0.29	Win2	0.6667000000000001	0.004	Yes	2.983	-0.004	1.0	GoodResponse	1	0.178	423.341	7	44	Target	Win	True
424.341	0.3	Win2	0.6667000000000001	0.004	Yes	2.983	-0.004	1.0	GoodResponse	1	0.178	n/a	7	44	ButtonPress	Win	True
424.464	0.41	Win2	0.6667000000000001	n/a	Yes	2.983	n/a	n/a	GoodResponse	1	n/a	n/a	7	44	Blank	Win	True
424.865	1.45	Win2	0.6667000000000001	n/a	Yes	2.983	n/a	5.0	GoodResponse	1	0.033	423.898	7	44	Feedback	Win	True
426.319	2.983	Win2	0.6667000000000001	n/a	Yes	2.983	n/a	n/a	GoodResponse	1	0.0	n/a	7	44	ISIslide	Win	True
429.328	0.25	Control	0.6739	0.001	Yes	2.872	0.028	n/a	GoodResponse	0	n/a	n/a	7	45	Cue	Neutral	True
429.579	4.1	Control	0.6739	0.0	Yes	2.872	0.001	n/a	GoodResponse	0	n/a	n/a	7	45	Fixation	Neutral	True
433.675	0.28	Control	0.6739	0.003	Yes	2.872	-0.003	1.0	GoodResponse	0	0.201	432.876	7	45	Target	Neutral	True
433.876	0.3	Control	0.6739	0.003	Yes	2.872	-0.003	1.0	GoodResponse	0	0.201	n/a	7	45	ButtonPress	Neutral	True
433.959	0.42	Control	0.6739	n/a	Yes	2.872	n/a	n/a	GoodResponse	0	n/a	n/a	7	45	Blank	Neutral	True
434.377	1.45	Control	0.6739	n/a	Yes	2.872	n/a	5.0	GoodResponse	0	0.034	433.411	7	45	Feedback	Neutral	True
435.831	2.872	Control	0.6739	n/a	Yes	2.872	n/a	n/a	GoodResponse	0	0.0	n/a	7	45	ISIslide	Neutral	True
438.723	0.25	Lose2	0.6809000000000001	0.0	Yes	3.377	0.023	n/a	GoodResponse	0	n/a	n/a	7	46	Cue	AvoidedLoss	True
438.974	4.0	Lose2	0.6809000000000001	0.0	Yes	3.377	0.001	n/a	GoodResponse	0	n/a	n/a	7	46	Fixation	AvoidedLoss	True
442.969	0.27	Lose2	0.6809000000000001	0.004	Yes	3.377	-0.004	1.0	GoodResponse	0	0.202	442.171	7	46	Target	AvoidedLoss	True
443.171	0.3	Lose2	0.6809000000000001	0.004	Yes	3.377	-0.004	1.0	GoodResponse	0	0.202	n/a	7	46	ButtonPress	AvoidedLoss	True
443.254	0.43	Lose2	0.6809000000000001	n/a	Yes	3.377	n/a	n/a	GoodResponse	0	n/a	n/a	7	46	Blank	AvoidedLoss	True
443.671	1.45	Lose2	0.6809000000000001	n/a	Yes	3.377	n/a	5.0	GoodResponse	0	0.008	442.679	7	46	Feedback	AvoidedLoss	True
445.126	3.377	Lose2	0.6809000000000001	n/a	Yes	3.377	n/a	n/a	GoodResponse	0	0.0	n/a	7	46	ISIslide	AvoidedLoss	True
448.519	0.25	Lose2	0.6875	0.0	Yes	2.681	0.019	n/a	GoodResponse	0	n/a	n/a	7	47	Cue	AvoidedLoss	True
448.77	4.0	Lose2	0.6875	0.0	Yes	2.681	0.001	n/a	GoodResponse	0	n/a	n/a	7	47	Fixation	AvoidedLoss	True
452.765	0.26	Lose2	0.6875	0.004	Yes	2.681	-0.004	1.0	GoodResponse	0	0.218	451.983	7	47	Target	AvoidedLoss	True
452.983	0.3	Lose2	0.6875	0.004	Yes	2.681	-0.004	1.0	GoodResponse	0	0.218	n/a	7	47	ButtonPress	AvoidedLoss	True
453.033	0.44	Lose2	0.6875	n/a	Yes	2.681	n/a	n/a	GoodResponse	0	n/a	n/a	7	47	Blank	AvoidedLoss	True
453.467	1.45	Lose2	0.6875	n/a	Yes	2.681	n/a	5.0	GoodResponse	0	0.016	452.483	7	47	Feedback	AvoidedLoss	True
454.922	2.681	Lose2	0.6875	n/a	Yes	2.681	n/a	n/a	GoodResponse	0	0.0	n/a	7	47	ISIslide	AvoidedLoss	True
457.63	0.25	Lose2	0.6939	0.0	Yes	3.02	0.03	n/a	GoodResponse	0	n/a	n/a	7	48	Cue	AvoidedLoss	True
457.881	3.95	Lose2	0.6939	0.0	Yes	3.02	0.001	n/a	GoodResponse	0	n/a	n/a	7	48	Fixation	AvoidedLoss	True
461.826	0.25	Lose2	0.6939	0.004	Yes	3.02	-0.004	1.0	GoodResponse	0	0.214	461.04	7	48	Target	AvoidedLoss	True
462.04	0.3	Lose2	0.6939	0.004	Yes	3.02	-0.004	1.0	GoodResponse	0	0.214	n/a	7	48	ButtonPress	AvoidedLoss	True
462.077	0.45	Lose2	0.6939	n/a	Yes	3.02	n/a	n/a	GoodResponse	0	n/a	n/a	7	48	Blank	AvoidedLoss	True
462.528	1.45	Lose2	0.6939	n/a	Yes	3.02	n/a	5.0	GoodResponse	0	0.028	461.556	7	48	Feedback	AvoidedLoss	True
463.982	3.02	Lose2	0.6939	n/a	Yes	3.02	n/a	n/a	GoodResponse	0	0.0	n/a	7	48	ISIslide	AvoidedLoss	True
467.025	0.25	Control	0.7	0.0	Yes	2.875	0.025	n/a	GoodResponse	0	n/a	n/a	7	49	Cue	Neutral	True
467.275	4.0	Control	0.7	0.001	Yes	2.875	0.0	n/a	GoodResponse	0	n/a	n/a	7	49	Fixation	Neutral	True
471.271	0.24	Control	0.7	0.004	Yes	2.875	-0.004	1.0	GoodResponse	0	0.198	470.469	7	49	Target	Neutral	True
471.469	0.3	Control	0.7	0.004	Yes	2.875	-0.004	1.0	GoodResponse	0	0.198	n/a	7	49	ButtonPress	Neutral	True
471.522	0.46	Control	0.7	n/a	Yes	2.875	n/a	n/a	GoodResponse	0	n/a	n/a	7	49	Blank	Neutral	True
471.973	1.45	Control	0.7	n/a	Yes	2.875	n/a	5.0	GoodResponse	0	0.047	471.02	7	49	Feedback	Neutral	True
473.427	2.875	Control	0.7	n/a	Yes	2.875	n/a	n/a	GoodResponse	0	0.0	n/a	7	49	ISIslide	Neutral	True
476.319	0.25	Control	0.7059000000000001	0.0	Yes	2.781	0.019	n/a	GoodResponse	0	n/a	n/a	7	50	Cue	Neutral	True
476.57	4.0	Control	0.7059000000000001	0.0	Yes	2.781	0.001	n/a	GoodResponse	0	n/a	n/a	7	50	Fixation	Neutral	True
480.565	0.23	Control	0.7059000000000001	0.004	Yes	2.781	-0.004	1.0	GoodResponse	0	0.171	479.736	7	50	Target	Neutral	True
480.736	0.3	Control	0.7059000000000001	0.004	Yes	2.781	-0.004	1.0	GoodResponse	0	0.171	n/a	7	50	ButtonPress	Neutral	True
480.799	0.47	Control	0.7059000000000001	n/a	Yes	2.781	n/a	n/a	GoodResponse	0	n/a	n/a	7	50	Blank	Neutral	True
481.267	1.45	Control	0.7059000000000001	n/a	Yes	2.781	n/a	5.0	GoodResponse	0	0.021	480.288	7	50	Feedback	Neutral	True
482.722	2.781	Control	0.7059000000000001	n/a	Yes	2.781	n/a	n/a	GoodResponse	0	0.0	n/a	7	50	ISIslide	Neutral	True
485.513	0.25	Control	0.6923	0.001	No	2.737	0.013	n/a	PrematurePress	0	n/a	n/a	7	51	Cue	Neutral	False
485.764	3.95	Control	0.6923	0.0	No	2.737	0.001	1.0	PrematurePress	0	3.453	488.217	7	51	Fixation	Neutral	False
489.217	0.3	Control	0.6923	0.0	No	2.737	0.001	1.0	PrematurePress	0	3.453	n/a	7	51	ButtonPress	Neutral	False
489.709	0.22	Control	0.6923	0.004	No	2.737	-0.004	1.0	PrematurePress	0	0.035	488.744	7	51	Target	Neutral	False
489.744	0.3	Control	0.6923	0.004	No	2.737	-0.004	1.0	PrematurePress	0	0.035	n/a	7	51	ButtonPress	Neutral	False
489.943	0.48	Control	0.6923	n/a	No	2.737	n/a	n/a	PrematurePress	0	n/a	n/a	7	51	Blank	Neutral	False
490.411	1.45	Control	0.6923	n/a	No	2.737	n/a	5.0	PrematurePress	0	0.048	489.459	7	51	Feedback	Neutral	False
491.866	2.737	Control	0.6923	n/a	No	2.737	n/a	n/a	PrematurePress	0	0.0	n/a	7	51	ISIslide	Neutral	False
494.624	0.25	Control	0.6981	0.0	Yes	2.626	0.024	n/a	GoodResponse	0	n/a	n/a	7	52	Cue	Neutral	True
494.875	4.05	Control	0.6981	0.0	Yes	2.626	0.001	n/a	GoodResponse	0	n/a	n/a	7	52	Fixation	Neutral	True
498.92	0.21	Control	0.6981	0.004	Yes	2.626	-0.004	1.0	GoodResponse	0	0.178	498.098	7	52	Target	Neutral	True
499.098	0.3	Control	0.6981	0.004	Yes	2.626	-0.004	1.0	GoodResponse	0	0.178	n/a	7	52	ButtonPress	Neutral	True
499.138	0.49	Control	0.6981	n/a	Yes	2.626	n/a	n/a	GoodResponse	0	n/a	n/a	7	52	Blank	Neutral	True
499.622	1.45	Control	0.6981	n/a	Yes	2.626	n/a	5.0	GoodResponse	0	0.008	498.63	7	52	Feedback	Neutral	True
501.077	2.626	Control	0.6981	n/a	Yes	2.626	n/a	n/a	GoodResponse	0	0.0	n/a	7	52	ISIslide	Neutral	True
503.718	0.25	Win2	0.7037	0.0	Yes	2.932	0.018	n/a	GoodResponse	1	n/a	n/a	8	53	Cue	Win	True
503.969	4.05	Win2	0.7037	0.0	Yes	2.932	0.001	n/a	GoodResponse	1	n/a	n/a	8	53	Fixation	Win	True
508.014	0.2	Win2	0.7037	0.004	Yes	2.932	-0.004	1.0	GoodResponse	1	0.188	507.202	8	53	Target	Win	True
508.202	0.3	Win2	0.7037	0.004	Yes	2.932	-0.004	1.0	GoodResponse	1	0.188	n/a	8	53	ButtonPress	Win	True
508.215	0.5	Win2	0.7037	n/a	Yes	2.932	n/a	n/a	GoodResponse	1	n/a	n/a	8	53	Blank	Win	True
508.716	1.45	Win2	0.7037	n/a	Yes	2.932	n/a	5.0	GoodResponse	1	0.035	507.751	8	53	Feedback	Win	True
510.171	2.932	Win2	0.7037	n/a	Yes	2.932	n/a	n/a	GoodResponse	1	0.0	n/a	8	53	ISIslide	Win	True
513.13	0.25	Win2	0.7091	0.0	Yes	2.72	0.03	n/a	GoodResponse	1	n/a	n/a	9	54	Cue	Win	True
513.38	3.95	Win2	0.7091	0.0	Yes	2.72	0.0	n/a	GoodResponse	1	n/a	n/a	9	54	Fixation	Win	True
517.342	0.19	Win2	0.7091	0.0	Yes	2.72	0.012	1.0	GoodResponse	1	0.166	516.508	9	54	Target	Win	True
517.508	0.3	Win2	0.7091	0.0	Yes	2.72	0.012	1.0	GoodResponse	1	0.166	n/a	9	54	ButtonPress	Win	True
517.526	0.51	Win2	0.7091	n/a	Yes	2.72	n/a	n/a	GoodResponse	1	n/a	n/a	9	54	Blank	Win	True
518.028	1.45	Win2	0.7091	n/a	Yes	2.72	n/a	5.0	GoodResponse	1	0.04	517.068	9	54	Feedback	Win	True
519.482	2.72	Win2	0.7091	n/a	Yes	2.72	n/a	n/a	GoodResponse	1	0.0	n/a	9	54	ISIslide	Win	True
522.223	0.25	Control	0.6964	0.001	No	3.027	0.023	n/a	NoResponse	0	n/a	n/a	9	55	Cue	Neutral	True
522.474	3.95	Control	0.6964	0.0	No	3.027	0.001	n/a	NoResponse	0	n/a	n/a	9	55	Fixation	Neutral	True
526.419	0.18	Control	0.6964	0.004	No	3.027	-0.004	1.0	NoResponse	0	0.227	525.646	9	55	Target	Neutral	True
526.603	0.52	Control	0.6964	n/a	No	3.027	n/a	n/a	NoResponse	0	n/a	n/a	9	55	Blank	Neutral	True
526.646	0.3	Control	0.6964	0.004	No	3.027	-0.004	1.0	NoResponse	0	0.227	n/a	9	55	ButtonPress	Neutral	True
527.121	1.45	Control	0.6964	n/a	No	3.027	n/a	5.0	NoResponse	0	0.02	526.141	9	55	Feedback	Neutral	True
528.576	3.027	Control	0.6964	n/a	No	3.027	n/a	n/a	NoResponse	0	0.0	n/a	9	55	ISIslide	Neutral	True
531.618	0.25	Control	0.6842	0.0	No	2.832	0.018	n/a	LatePress	0	n/a	n/a	9	56	Cue	Neutral	True
531.869	3.95	Control	0.6842	0.0	No	2.832	0.001	n/a	LatePress	0	n/a	n/a	9	56	Fixation	Neutral	True
535.814	0.17	Control	0.6842	0.004	No	2.832	-0.004	1.0	LatePress	0	0.182	534.996	9	56	Target	Neutral	True
535.996	0.3	Control	0.6842	0.004	No	2.832	-0.004	1.0	LatePress	0	0.182	n/a	9	56	ButtonPress	Neutral	True
535.998	0.53	Control	0.6842	n/a	No	2.832	n/a	n/a	LatePress	0	n/a	n/a	9	56	Blank	Neutral	True
536.516	1.45	Control	0.6842	n/a	No	2.832	n/a	5.0	LatePress	0	0.04	535.556	9	56	Feedback	Neutral	True
537.971	2.832	Control	0.6842	n/a	No	2.832	n/a	n/a	LatePress	0	0.0	n/a	9	56	ISIslide	Neutral	True
540.829	0.25	Control	0.6724	0.0	No	3.471	0.029	n/a	NoResponse	0	n/a	n/a	9	57	Cue	Neutral	True
541.08	4.0	Control	0.6724	0.0	No	3.471	0.001	n/a	NoResponse	0	n/a	n/a	9	57	Fixation	Neutral	True
545.075	0.16	Control	0.6724	0.004	No	3.471	-0.004	1.0	NoResponse	0	0.188	544.263	9	57	Target	Neutral	True
545.242	0.54	Control	0.6724	n/a	No	3.471	n/a	n/a	NoResponse	0	n/a	n/a	9	57	Blank	Neutral	True
545.263	0.3	Control	0.6724	0.004	No	3.471	-0.004	1.0	NoResponse	0	0.188	n/a	9	57	ButtonPress	Neutral	True
545.777	1.45	Control	0.6724	n/a	No	3.471	n/a	5.0	NoResponse	0	0.047	544.824	9	57	Feedback	Neutral	True
547.232	3.471	Control	0.6724	n/a	No	3.471	n/a	n/a	NoResponse	0	0.0	n/a	9	57	ISIslide	Neutral	True
550.726	0.25	Win2	0.6609999999999999	0.0	No	2.724	0.026	n/a	PrematurePress	0	n/a	n/a	9	58	Cue	MissedWin	False
550.976	4.05	Win2	0.6609999999999999	0.0	No	2.724	0.0	1.0	PrematurePress	0	3.546	553.522	9	58	Fixation	MissedWin	False
554.522	0.3	Win2	0.6609999999999999	0.0	No	2.724	0.0	1.0	PrematurePress	0	3.546	n/a	9	58	ButtonPress	MissedWin	False
555.022	0.15	Win2	0.6609999999999999	0.004	No	2.724	-0.004	1.0	PrematurePress	0	0.024	554.046	9	58	Target	MissedWin	False
555.046	0.3	Win2	0.6609999999999999	0.004	No	2.724	-0.004	1.0	PrematurePress	0	0.024	n/a	9	58	ButtonPress	MissedWin	False
555.172	0.55	Win2	0.6609999999999999	n/a	No	2.724	n/a	n/a	PrematurePress	0	n/a	n/a	9	58	Blank	MissedWin	False
555.724	1.45	Win2	0.6609999999999999	n/a	No	2.724	n/a	5.0	PrematurePress	0	0.005	554.729	9	58	Feedback	MissedWin	False
557.178	2.724	Win2	0.6609999999999999	n/a	No	2.724	n/a	n/a	PrematurePress	0	0.0	n/a	9	58	ISIslide	MissedWin	False
559.92	0.25	Lose2	0.65	0.0	No	2.68	0.02	n/a	NoResponse	-1	n/a	n/a	8	59	Cue	Loss	True
560.171	4.0	Lose2	0.65	0.0	No	2.68	0.001	n/a	NoResponse	-1	n/a	n/a	8	59	Fixation	Loss	True
564.166	0.15	Lose2	0.65	0.004	No	2.68	-0.004	1.0	NoResponse	-1	0.168	563.334	8	59	Target	Loss	True
564.316	0.55	Lose2	0.65	n/a	No	2.68	n/a	n/a	NoResponse	-1	n/a	n/a	8	59	Blank	Loss	True
564.334	0.3	Lose2	0.65	0.004	No	2.68	-0.004	1.0	NoResponse	-1	0.168	n/a	8	59	ButtonPress	Loss	True
564.868	1.45	Lose2	0.65	n/a	No	2.68	n/a	5.0	NoResponse	-1	0.03	563.898	8	59	Feedback	Loss	True
566.322	2.68	Lose2	0.65	n/a	No	2.68	n/a	n/a	NoResponse	-1	0.0	n/a	8	59	ISIslide	Loss	True
569.014	0.25	Control	0.6393	0.0	No	2.686	0.014	n/a	NoResponse	0	n/a	n/a	8	60	Cue	Neutral	True
569.264	4.0	Control	0.6393	0.001	No	2.686	0.0	n/a	NoResponse	0	n/a	n/a	8	60	Fixation	Neutral	True
573.26	0.16	Control	0.6393	0.004	No	2.686	-0.004	1.0	NoResponse	0	0.186	572.446	8	60	Target	Neutral	True
573.427	0.54	Control	0.6393	n/a	No	2.686	n/a	n/a	NoResponse	0	n/a	n/a	8	60	Blank	Neutral	True
573.446	0.3	Control	0.6393	0.004	No	2.686	-0.004	1.0	NoResponse	0	0.186	n/a	8	60	ButtonPress	Neutral	True
573.962	1.45	Control	0.6393	n/a	No	2.686	n/a	5.0	NoResponse	0	0.008	572.97	8	60	Feedback	Neutral	True
575.416	2.686	Control	0.6393	n/a	No	2.686	n/a	n/a	NoResponse	0	0.0	n/a	8	60	ISIslide	Neutral	True
578.124	0.25	Lose2	0.629	0.0	No	2.976	0.024	n/a	LatePress	-1	n/a	n/a	7	61	Cue	Loss	False
578.375	4.0	Lose2	0.629	0.0	No	2.976	0.001	1.0	LatePress	-1	3.764	581.139	7	61	Fixation	Loss	False
582.139	0.3	Lose2	0.629	0.0	No	2.976	0.001	1.0	LatePress	-1	3.764	n/a	7	61	ButtonPress	Loss	False
582.37	0.17	Lose2	0.629	0.004	No	2.976	-0.004	1.0	LatePress	-1	0.174	581.544	7	61	Target	Loss	False
582.544	0.3	Lose2	0.629	0.004	No	2.976	-0.004	1.0	LatePress	-1	0.174	n/a	7	61	ButtonPress	Loss	False
582.554	0.53	Lose2	0.629	n/a	No	2.976	n/a	n/a	LatePress	-1	n/a	n/a	7	61	Blank	Loss	False
583.072	1.45	Lose2	0.629	n/a	No	2.976	n/a	5.0	LatePress	-1	0.02	582.092	7	61	Feedback	Loss	False
584.527	2.976	Lose2	0.629	n/a	No	2.976	n/a	n/a	LatePress	-1	0.0	n/a	7	61	ISIslide	Loss	False
587.519	0.25	Lose2	0.6349	0.0	Yes	2.881	0.019	n/a	GoodResponse	0	n/a	n/a	7	62	Cue	AvoidedLoss	True
587.77	3.9	Lose2	0.6349	0.0	Yes	2.881	0.001	n/a	GoodResponse	0	n/a	n/a	7	62	Fixation	AvoidedLoss	True
591.665	0.18	Lose2	0.6349	0.004	Yes	2.881	-0.004	1.0	GoodResponse	0	0.166	590.831	7	62	Target	AvoidedLoss	True
591.831	0.3	Lose2	0.6349	0.004	Yes	2.881	-0.004	1.0	GoodResponse	0	0.166	n/a	7	62	ButtonPress	AvoidedLoss	True
591.849	0.52	Lose2	0.6349	n/a	Yes	2.881	n/a	n/a	GoodResponse	0	n/a	n/a	7	62	Blank	AvoidedLoss	True
592.367	1.45	Lose2	0.6349	n/a	Yes	2.881	n/a	5.0	GoodResponse	0	0.042	591.409	7	62	Feedback	AvoidedLoss	True
593.821	2.881	Lose2	0.6349	n/a	Yes	2.881	n/a	n/a	GoodResponse	0	0.0	n/a	7	62	ISIslide	AvoidedLoss	True
596.73	0.25	Lose2	0.6406000000000001	0.0	Yes	2.62	0.03	n/a	GoodResponse	0	n/a	n/a	7	63	Cue	AvoidedLoss	True
596.981	4.05	Lose2	0.6406000000000001	0.0	Yes	2.62	0.001	n/a	GoodResponse	0	n/a	n/a	7	63	Fixation	AvoidedLoss	True
601.026	0.19	Lose2	0.6406000000000001	0.004	Yes	2.62	-0.004	1.0	GoodResponse	0	0.136	600.162	7	63	Target	AvoidedLoss	True
601.162	0.3	Lose2	0.6406000000000001	0.004	Yes	2.62	-0.004	1.0	GoodResponse	0	0.136	n/a	7	63	ButtonPress	AvoidedLoss	True
601.227	0.51	Lose2	0.6406000000000001	n/a	Yes	2.62	n/a	n/a	GoodResponse	0	n/a	n/a	7	63	Blank	AvoidedLoss	True
601.728	1.45	Lose2	0.6406000000000001	n/a	Yes	2.62	n/a	5.0	GoodResponse	0	0.047	600.775	7	63	Feedback	AvoidedLoss	True
603.183	2.62	Lose2	0.6406000000000001	n/a	Yes	2.62	n/a	n/a	GoodResponse	0	0.0	n/a	7	63	ISIslide	AvoidedLoss	True
605.824	0.25	Win2	0.6308	0.0	No	3.126	0.024	n/a	PrematurePress	0	n/a	n/a	7	64	Cue	MissedWin	True
606.075	4.15	Win2	0.6308	0.0	No	3.126	0.001	n/a	PrematurePress	0	n/a	n/a	7	64	Fixation	MissedWin	True
610.22	0.2	Win2	0.6308	0.004	No	3.126	-0.004	1.0	PrematurePress	0	0.019	609.239	7	64	Target	MissedWin	True
610.239	0.3	Win2	0.6308	0.004	No	3.126	-0.004	1.0	PrematurePress	0	0.019	n/a	7	64	ButtonPress	MissedWin	True
610.421	0.5	Win2	0.6308	n/a	No	3.126	n/a	n/a	PrematurePress	0	n/a	n/a	7	64	Blank	MissedWin	True
610.923	1.45	Win2	0.6308	n/a	No	3.126	n/a	5.0	PrematurePress	0	0.023	609.946	7	64	Feedback	MissedWin	True
612.377	3.126	Win2	0.6308	n/a	No	3.126	n/a	n/a	PrematurePress	0	0.0	n/a	7	64	ISIslide	MissedWin	True
615.52	0.25	Control	0.6212	0.0	No	2.78	0.02	n/a	NoResponse	0	n/a	n/a	7	65	Cue	Neutral	True
615.77	4.0	Control	0.6212	0.001	No	2.78	0.0	n/a	NoResponse	0	n/a	n/a	7	65	Fixation	Neutral	True
619.766	0.21	Control	0.6212	0.004	No	2.78	-0.004	1.0	NoResponse	0	0.239	619.005	7	65	Target	Neutral	True
619.983	0.49	Control	0.6212	n/a	No	2.78	n/a	n/a	NoResponse	0	n/a	n/a	7	65	Blank	Neutral	True
620.005	0.3	Control	0.6212	0.004	No	2.78	-0.004	1.0	NoResponse	0	0.239	n/a	7	65	ButtonPress	Neutral	True
620.468	1.45	Control	0.6212	n/a	No	2.78	n/a	5.0	NoResponse	0	0.039	619.507	7	65	Feedback	Neutral	True
621.922	2.78	Control	0.6212	n/a	No	2.78	n/a	n/a	NoResponse	0	0.0	n/a	7	65	ISIslide	Neutral	True
624.731	0.25	Win2	0.6269	0.0	Yes	2.769	0.031	n/a	GoodResponse	1	n/a	n/a	8	66	Cue	Win	True
624.981	3.9	Win2	0.6269	0.0	Yes	2.769	0.0	n/a	GoodResponse	1	n/a	n/a	8	66	Fixation	Win	True
628.893	0.22	Win2	0.6269	0.0	Yes	2.769	0.012	1.0	GoodResponse	1	0.151	628.044	8	66	Target	Win	True
629.044	0.3	Win2	0.6269	0.0	Yes	2.769	0.012	1.0	GoodResponse	1	0.151	n/a	8	66	ButtonPress	Win	True
629.11	0.48	Win2	0.6269	n/a	Yes	2.769	n/a	n/a	GoodResponse	1	n/a	n/a	8	66	Blank	Win	True
629.578	1.45	Win2	0.6269	n/a	Yes	2.769	n/a	5.0	GoodResponse	1	0.001	628.579	8	66	Feedback	Win	True
631.033	2.769	Win2	0.6269	n/a	Yes	2.769	n/a	n/a	GoodResponse	1	0.0	n/a	8	66	ISIslide	Win	True
633.825	0.25	Control	0.6175999999999999	0.0	No	2.725	0.025	n/a	NoResponse	0	n/a	n/a	8	67	Cue	Neutral	True
634.075	3.95	Control	0.6175999999999999	0.0	No	2.725	0.0	n/a	NoResponse	0	n/a	n/a	8	67	Fixation	Neutral	True
638.02	0.23	Control	0.6175999999999999	0.005	No	2.725	-0.005	1.0	NoResponse	0	0.264	637.284	8	67	Target	Neutral	True
638.254	0.47	Control	0.6175999999999999	n/a	No	2.725	n/a	n/a	NoResponse	0	n/a	n/a	8	67	Blank	Neutral	True
638.284	0.3	Control	0.6175999999999999	0.005	No	2.725	-0.005	1.0	NoResponse	0	0.264	n/a	8	67	ButtonPress	Neutral	True
638.723	1.45	Control	0.6175999999999999	n/a	No	2.725	n/a	5.0	NoResponse	0	0.027	637.75	8	67	Feedback	Neutral	True
640.177	2.725	Control	0.6175999999999999	n/a	No	2.725	n/a	n/a	NoResponse	0	0.0	n/a	8	67	ISIslide	Neutral	True
642.918	0.25	Win2	0.6232	0.001	Yes	3.082	0.018	n/a	GoodResponse	1	n/a	n/a	9	68	Cue	Win	True
643.169	4.0	Win2	0.6232	0.0	Yes	3.082	0.001	n/a	GoodResponse	1	n/a	n/a	9	68	Fixation	Win	True
647.165	0.24	Win2	0.6232	0.003	Yes	3.082	-0.003	1.0	GoodResponse	1	0.152	646.317	9	68	Target	Win	True
647.317	0.3	Win2	0.6232	0.003	Yes	3.082	-0.003	1.0	GoodResponse	1	0.152	n/a	9	68	ButtonPress	Win	True
647.415	0.46	Win2	0.6232	n/a	Yes	3.082	n/a	n/a	GoodResponse	1	n/a	n/a	9	68	Blank	Win	True
647.867	1.45	Win2	0.6232	n/a	Yes	3.082	n/a	5.0	GoodResponse	1	0.008	646.875	9	68	Feedback	Win	True
649.321	3.082	Win2	0.6232	n/a	Yes	3.082	n/a	n/a	GoodResponse	1	0.0	n/a	9	68	ISIslide	Win	True
652.43	0.25	Win2	0.6286	0.0	Yes	3.22	0.03	n/a	GoodResponse	1	n/a	n/a	10	69	Cue	Win	True
652.681	3.95	Win2	0.6286	0.0	Yes	3.22	0.001	n/a	GoodResponse	1	n/a	n/a	10	69	Fixation	Win	True
656.626	0.25	Win2	0.6286	0.004	Yes	3.22	-0.004	1.0	GoodResponse	1	0.188	655.814	10	69	Target	Win	True
656.814	0.3	Win2	0.6286	0.004	Yes	3.22	-0.004	1.0	GoodResponse	1	0.188	n/a	10	69	ButtonPress	Win	True
656.877	0.45	Win2	0.6286	n/a	Yes	3.22	n/a	n/a	GoodResponse	1	n/a	n/a	10	69	Blank	Win	True
657.328	1.45	Win2	0.6286	n/a	Yes	3.22	n/a	5.0	GoodResponse	1	0.008	656.336	10	69	Feedback	Win	True
658.783	3.22	Win2	0.6286	n/a	Yes	3.22	n/a	n/a	GoodResponse	1	0.0	n/a	10	69	ISIslide	Win	True
662.026	0.25	Lose2	0.6338	0.0	Yes	3.024	0.026	n/a	GoodResponse	0	n/a	n/a	10	70	Cue	AvoidedLoss	True
662.276	4.05	Lose2	0.6338	0.001	Yes	3.024	0.0	n/a	GoodResponse	0	n/a	n/a	10	70	Fixation	AvoidedLoss	True
666.322	0.26	Lose2	0.6338	0.004	Yes	3.024	-0.004	1.0	GoodResponse	0	0.231	665.553	10	70	Target	AvoidedLoss	True
666.553	0.3	Lose2	0.6338	0.004	Yes	3.024	-0.004	1.0	GoodResponse	0	0.231	n/a	10	70	ButtonPress	AvoidedLoss	True
666.589	0.44	Lose2	0.6338	n/a	Yes	3.024	n/a	n/a	GoodResponse	0	n/a	n/a	10	70	Blank	AvoidedLoss	True
667.024	1.45	Lose2	0.6338	n/a	Yes	3.024	n/a	5.0	GoodResponse	0	0.019	666.043	10	70	Feedback	AvoidedLoss	True
668.478	3.024	Lose2	0.6338	n/a	Yes	3.024	n/a	n/a	GoodResponse	0	0.0	n/a	10	70	ISIslide	AvoidedLoss	True
671.521	0.25	Win2	0.625	0.0	No	2.729	0.021	n/a	PrematurePress	0	n/a	n/a	10	71	Cue	MissedWin	True
671.772	4.05	Win2	0.625	0.0	No	2.729	0.001	n/a	PrematurePress	0	n/a	n/a	10	71	Fixation	MissedWin	True
675.817	0.27	Win2	0.625	0.004	No	2.729	-0.004	1.0	PrematurePress	0	0.008	674.825	10	71	Target	MissedWin	True
675.825	0.3	Win2	0.625	0.004	No	2.729	-0.004	1.0	PrematurePress	0	0.008	n/a	10	71	ButtonPress	MissedWin	True
676.101	0.43	Win2	0.625	n/a	No	2.729	n/a	n/a	PrematurePress	0	n/a	n/a	10	71	Blank	MissedWin	True
676.519	1.45	Win2	0.625	n/a	No	2.729	n/a	5.0	PrematurePress	0	0.036	675.555	10	71	Feedback	MissedWin	True
677.973	2.729	Win2	0.625	n/a	No	2.729	n/a	n/a	PrematurePress	0	0.0	n/a	10	71	ISIslide	MissedWin	True
680.715	0.25	Win2	0.6301	0.0	Yes	2.785	0.015	n/a	GoodResponse	1	n/a	n/a	11	72	Cue	Win	True
680.966	4.1	Win2	0.6301	0.0	Yes	2.785	0.001	n/a	GoodResponse	1	n/a	n/a	11	72	Fixation	Win	True
685.061	0.28	Win2	0.6301	0.004	Yes	2.785	-0.004	1.0	GoodResponse	1	0.182	684.243	11	72	Target	Win	True
685.243	0.3	Win2	0.6301	0.004	Yes	2.785	-0.004	1.0	GoodResponse	1	0.182	n/a	11	72	ButtonPress	Win	True
685.346	0.42	Win2	0.6301	n/a	Yes	2.785	n/a	n/a	GoodResponse	1	n/a	n/a	11	72	Blank	Win	True
685.764	1.45	Win2	0.6301	n/a	Yes	2.785	n/a	5.0	GoodResponse	1	0.01	684.774	11	72	Feedback	Win	True
687.218	2.785	Win2	0.6301	n/a	Yes	2.785	n/a	n/a	GoodResponse	1	0.0	n/a	11	72	ISIslide	Win	True
690.026	0.25	Win2	0.6351	0.0	Yes	2.674	0.026	n/a	GoodResponse	1	n/a	n/a	12	73	Cue	Win	True
690.277	4.0	Win2	0.6351	0.0	Yes	2.674	0.001	n/a	GoodResponse	1	n/a	n/a	12	73	Fixation	Win	True
694.272	0.29	Win2	0.6351	0.004	Yes	2.674	-0.004	1.0	GoodResponse	1	0.212	693.484	12	73	Target	Win	True
694.484	0.3	Win2	0.6351	0.004	Yes	2.674	-0.004	1.0	GoodResponse	1	0.212	n/a	12	73	ButtonPress	Win	True
694.573	0.41	Win2	0.6351	n/a	Yes	2.674	n/a	n/a	GoodResponse	1	n/a	n/a	12	73	Blank	Win	True
694.974	1.45	Win2	0.6351	n/a	Yes	2.674	n/a	5.0	GoodResponse	1	0.019	693.993	12	73	Feedback	Win	True
696.429	2.674	Win2	0.6351	n/a	Yes	2.674	n/a	n/a	GoodResponse	1	0.0	n/a	12	73	ISIslide	Win	True
699.12	0.25	Lose2	0.64	0.0	Yes	2.63	0.02	n/a	GoodResponse	0	n/a	n/a	12	74	Cue	AvoidedLoss	True
699.371	4.05	Lose2	0.64	0.0	Yes	2.63	0.001	n/a	GoodResponse	0	n/a	n/a	12	74	Fixation	AvoidedLoss	True
703.416	0.3	Lose2	0.64	0.004	Yes	2.63	-0.004	1.0	GoodResponse	0	0.162	702.578	12	74	Target	AvoidedLoss	True
703.578	0.3	Lose2	0.64	0.004	Yes	2.63	-0.004	1.0	GoodResponse	0	0.162	n/a	12	74	ButtonPress	AvoidedLoss	True
703.717	0.4	Lose2	0.64	n/a	Yes	2.63	n/a	n/a	GoodResponse	0	n/a	n/a	12	74	Blank	AvoidedLoss	True
704.118	1.45	Lose2	0.64	n/a	Yes	2.63	n/a	5.0	GoodResponse	0	0.046	703.164	12	74	Feedback	AvoidedLoss	True
705.573	2.63	Lose2	0.64	n/a	Yes	2.63	n/a	n/a	GoodResponse	0	0.0	n/a	12	74	ISIslide	AvoidedLoss	True
708.214	0.25	Lose2	0.6446999999999999	0.0	Yes	2.936	0.014	n/a	GoodResponse	0	n/a	n/a	12	75	Cue	AvoidedLoss	True
708.465	3.95	Lose2	0.6446999999999999	0.0	Yes	2.936	0.001	n/a	GoodResponse	0	n/a	n/a	12	75	Fixation	AvoidedLoss	True
712.41	0.31	Lose2	0.6446999999999999	0.004	Yes	2.936	-0.004	1.0	GoodResponse	0	0.198	711.608	12	75	Target	AvoidedLoss	True
712.608	0.3	Lose2	0.6446999999999999	0.004	Yes	2.936	-0.004	1.0	GoodResponse	0	0.198	n/a	12	75	ButtonPress	AvoidedLoss	True
712.728	0.39	Lose2	0.6446999999999999	n/a	Yes	2.936	n/a	n/a	GoodResponse	0	n/a	n/a	12	75	Blank	AvoidedLoss	True
713.112	1.45	Lose2	0.6446999999999999	n/a	Yes	2.936	n/a	5.0	GoodResponse	0	0.028	712.14	12	75	Feedback	AvoidedLoss	True
714.566	2.936	Lose2	0.6446999999999999	n/a	Yes	2.936	n/a	n/a	GoodResponse	0	0.0	n/a	12	75	ISIslide	AvoidedLoss	True
717.525	0.25	Control	0.6494	0.0	Yes	3.225	0.025	n/a	GoodResponse	0	n/a	n/a	12	76	Cue	Neutral	True
717.776	4.05	Control	0.6494	0.0	Yes	3.225	0.001	n/a	GoodResponse	0	n/a	n/a	12	76	Fixation	Neutral	True
721.822	0.32	Control	0.6494	0.003	Yes	3.225	-0.003	1.0	GoodResponse	0	0.203	721.025	12	76	Target	Neutral	True
722.025	0.3	Control	0.6494	0.003	Yes	3.225	-0.003	1.0	GoodResponse	0	0.203	n/a	12	76	ButtonPress	Neutral	True
722.156	0.38	Control	0.6494	n/a	Yes	3.225	n/a	n/a	GoodResponse	0	n/a	n/a	12	76	Blank	Neutral	True
722.524	1.45	Control	0.6494	n/a	Yes	3.225	n/a	5.0	GoodResponse	0	0.03	721.554	12	76	Feedback	Neutral	True
723.978	3.225	Control	0.6494	n/a	Yes	3.225	n/a	n/a	GoodResponse	0	0.0	n/a	12	76	ISIslide	Neutral	True
727.221	0.25	Lose2	0.6537999999999999	0.0	Yes	2.579	0.021	n/a	GoodResponse	0	n/a	n/a	12	77	Cue	AvoidedLoss	True
727.472	3.95	Lose2	0.6537999999999999	0.0	Yes	2.579	0.001	n/a	GoodResponse	0	n/a	n/a	12	77	Fixation	AvoidedLoss	True
731.417	0.33	Lose2	0.6537999999999999	0.004	Yes	2.579	-0.004	1.0	GoodResponse	0	0.195	730.612	12	77	Target	AvoidedLoss	True
731.612	0.3	Lose2	0.6537999999999999	0.004	Yes	2.579	-0.004	1.0	GoodResponse	0	0.195	n/a	12	77	ButtonPress	AvoidedLoss	True
731.751	0.37	Lose2	0.6537999999999999	n/a	Yes	2.579	n/a	n/a	GoodResponse	0	n/a	n/a	12	77	Blank	AvoidedLoss	True
732.119	1.45	Lose2	0.6537999999999999	n/a	Yes	2.579	n/a	5.0	GoodResponse	0	0.045	731.164	12	77	Feedback	AvoidedLoss	True
733.573	2.579	Lose2	0.6537999999999999	n/a	Yes	2.579	n/a	n/a	GoodResponse	0	0.0	n/a	12	77	ISIslide	AvoidedLoss	True
