onset	duration	cue_type	current_mean_accuracy	duration_error	is_hit	isi_adjusted	onset_delay	response	response_type	reward	rt	rt_time	total_reward	trial_number	trial_phase	trial_type	one_press
11.103	0.25	Control	1.0	0.0	Yes	2.947	0.003	n/a	GoodResponse	0	n/a	n/a	0	0	Cue	Neutral	True
11.354	3.85	Control	1.0	0.0	Yes	2.947	0.001	n/a	GoodResponse	0	n/a	n/a	0	0	Fixation	Neutral	True
15.199	0.4	Control	1.0	0.004	Yes	2.947	-0.004	2.0	GoodResponse	0	0.197	14.396	0	0	Target	Neutral	True
15.396	0.3	Control	1.0	0.004	Yes	2.947	-0.004	2.0	GoodResponse	0	0.197	n/a	0	0	ButtonPress	Neutral	True
15.6	0.3	Control	1.0	n/a	Yes	2.947	n/a	n/a	GoodResponse	0	n/a	n/a	0	0	Blank	Neutral	True
15.901	1.45	Control	1.0	n/a	Yes	2.947	n/a	5.0	GoodResponse	0	0.025	14.926	0	0	Feedback	Neutral	True
17.355	2.947	Control	1.0	n/a	Yes	2.947	n/a	n/a	GoodResponse	0	0.0	n/a	0	0	ISIslide	Neutral	True
20.331	0.25	Lose2	1.0	0.0	Yes	2.769	0.031	n/a	GoodResponse	0	n/a	n/a	0	1	Cue	AvoidedLoss	True
20.581	4.0	Lose2	1.0	0.001	Yes	2.769	0.0	n/a	GoodResponse	0	n/a	n/a	0	1	Fixation	AvoidedLoss	True
24.577	0.39	Lose2	1.0	0.004	Yes	2.769	-0.004	2.0	GoodResponse	0	0.172	23.749	0	1	Target	AvoidedLoss	True
24.749	0.3	Lose2	1.0	0.004	Yes	2.769	-0.004	2.0	GoodResponse	0	0.172	n/a	0	1	ButtonPress	AvoidedLoss	True
24.978	0.31	Lose2	1.0	n/a	Yes	2.769	n/a	n/a	GoodResponse	0	n/a	n/a	0	1	Blank	AvoidedLoss	True
25.279	1.45	Lose2	1.0	n/a	Yes	2.769	n/a	5.0	GoodResponse	0	0.013	24.292	0	1	Feedback	AvoidedLoss	True
26.733	2.769	Lose2	1.0	n/a	Yes	2.769	n/a	n/a	GoodResponse	0	0.0	n/a	0	1	ISIslide	AvoidedLoss	True
29.525	0.25	Control	1.0	0.0	Yes	2.575	0.025	n/a	GoodResponse	0	n/a	n/a	0	2	Cue	Neutral	True
29.776	4.1	Control	1.0	0.0	Yes	2.575	0.001	n/a	GoodResponse	0	n/a	n/a	0	2	Fixation	Neutral	True
33.871	0.38	Control	1.0	0.004	Yes	2.575	-0.004	2.0	GoodResponse	0	0.205	33.076	0	2	Target	Neutral	True
34.076	0.3	Control	1.0	0.004	Yes	2.575	-0.004	2.0	GoodResponse	0	0.205	n/a	0	2	ButtonPress	Neutral	True
34.256	0.32	Control	1.0	n/a	Yes	2.575	n/a	n/a	GoodResponse	0	n/a	n/a	0	2	Blank	Neutral	True
34.573	1.45	Control	1.0	n/a	Yes	2.575	n/a	5.0	GoodResponse	0	0.036	33.609	0	2	Feedback	Neutral	True
36.028	2.575	Control	1.0	n/a	Yes	2.575	n/a	n/a	GoodResponse	0	0.0	n/a	0	2	ISIslide	Neutral	True
38.619	0.25	Win2	1.0	0.0	Yes	2.831	0.019	n/a	GoodResponse	1	n/a	n/a	1	3	Cue	Win	True
38.87	3.95	Win2	1.0	0.0	Yes	2.831	0.001	n/a	GoodResponse	1	n/a	n/a	1	3	Fixation	Win	True
42.815	0.37	Win2	1.0	0.004	Yes	2.831	-0.004	2.0	GoodResponse	1	0.182	41.997	1	3	Target	Win	True
42.997	0.3	Win2	1.0	0.004	Yes	2.831	-0.004	2.0	GoodResponse	1	0.182	n/a	1	3	ButtonPress	Win	True
43.199	0.33	Win2	1.0	n/a	Yes	2.831	n/a	n/a	GoodResponse	1	n/a	n/a	1	3	Blank	Win	True
43.517	1.45	Win2	1.0	n/a	Yes	2.831	n/a	5.0	GoodResponse	1	0.019	42.536	1	3	Feedback	Win	True
44.971	2.831	Win2	1.0	n/a	Yes	2.831	n/a	n/a	GoodResponse	1	0.0	n/a	1	3	ISIslide	Win	True
47.83	0.25	Win2	1.0	0.0	Yes	3.27	0.03	n/a	GoodResponse	1	n/a	n/a	2	4	Cue	Win	True
48.081	4.0	Win2	1.0	0.0	Yes	3.27	0.001	n/a	GoodResponse	1	n/a	n/a	2	4	Fixation	Win	True
52.076	0.36	Win2	1.0	0.004	Yes	3.27	-0.004	2.0	GoodResponse	1	0.219	51.295	2	4	Target	Win	True
52.295	0.3	Win2	1.0	0.004	Yes	3.27	-0.004	2.0	GoodResponse	1	0.219	n/a	2	4	ButtonPress	Win	True
52.444	0.34	Win2	1.0	n/a	Yes	3.27	n/a	n/a	GoodResponse	1	n/a	n/a	2	4	Blank	Win	True
52.778	1.45	Win2	1.0	n/a	Yes	3.27	n/a	5.0	GoodResponse	1	0.027	51.805	2	4	Feedback	Win	True
54.232	3.27	Win2	1.0	n/a	Yes	3.27	n/a	n/a	GoodResponse	1	0.0	n/a	2	4	ISIslide	Win	True
57.526	0.25	Win2	1.0	0.0	Yes	2.774	0.026	n/a	GoodResponse	1	n/a	n/a	3	5	Cue	Win	True
57.776	4.0	Win2	1.0	0.0	Yes	2.774	0.0	n/a	GoodResponse	1	n/a	n/a	3	5	Fixation	Win	True
61.772	0.35	Win2	1.0	0.004	Yes	2.774	-0.004	2.0	GoodResponse	1	0.177	60.949	3	5	Target	Win	True
61.949	0.3	Win2	1.0	0.004	Yes	2.774	-0.004	2.0	GoodResponse	1	0.177	n/a	3	5	ButtonPress	Win	True
62.123	0.35	Win2	1.0	n/a	Yes	2.774	n/a	n/a	GoodResponse	1	n/a	n/a	3	5	Blank	Win	True
62.474	1.45	Win2	1.0	n/a	Yes	2.774	n/a	5.0	GoodResponse	1	0.038	61.512	3	5	Feedback	Win	True
63.928	2.774	Win2	1.0	n/a	Yes	2.774	n/a	n/a	GoodResponse	1	0.0	n/a	3	5	ISIslide	Win	True
66.72	0.25	Lose2	1.0	0.0	Yes	2.73	0.02	n/a	GoodResponse	0	n/a	n/a	3	6	Cue	AvoidedLoss	True
66.971	3.95	Lose2	1.0	0.0	Yes	2.73	0.001	n/a	GoodResponse	0	n/a	n/a	3	6	Fixation	AvoidedLoss	True
70.916	0.34	Lose2	1.0	0.004	Yes	2.73	-0.004	2.0	GoodResponse	0	0.191	70.107	3	6	Target	AvoidedLoss	True
71.107	0.3	Lose2	1.0	0.004	Yes	2.73	-0.004	2.0	GoodResponse	0	0.191	n/a	3	6	ButtonPress	AvoidedLoss	True
71.267	0.36	Lose2	1.0	n/a	Yes	2.73	n/a	n/a	GoodResponse	0	n/a	n/a	3	6	Blank	AvoidedLoss	True
71.618	1.45	Lose2	1.0	n/a	Yes	2.73	n/a	5.0	GoodResponse	0	0.015	70.633	3	6	Feedback	AvoidedLoss	True
73.072	2.73	Lose2	1.0	n/a	Yes	2.73	n/a	n/a	GoodResponse	0	0.0	n/a	3	6	ISIslide	AvoidedLoss	True
75.831	0.25	Lose2	1.0	0.0	Yes	4.019	0.031	n/a	GoodResponse	0	n/a	n/a	3	7	Cue	AvoidedLoss	True
76.081	4.05	Lose2	1.0	0.0	Yes	4.019	0.0	n/a	GoodResponse	0	n/a	n/a	3	7	Fixation	AvoidedLoss	True
80.127	0.33	Lose2	1.0	0.004	Yes	4.019	-0.004	2.0	GoodResponse	0	0.19	79.317	3	7	Target	AvoidedLoss	True
80.317	0.3	Lose2	1.0	0.004	Yes	4.019	-0.004	2.0	GoodResponse	0	0.19	n/a	3	7	ButtonPress	AvoidedLoss	True
80.461	0.37	Lose2	1.0	n/a	Yes	4.019	n/a	n/a	GoodResponse	0	n/a	n/a	3	7	Blank	AvoidedLoss	True
80.829	1.45	Lose2	1.0	n/a	Yes	4.019	n/a	5.0	GoodResponse	0	0.024	79.853	3	7	Feedback	AvoidedLoss	True
82.283	4.019	Lose2	1.0	n/a	Yes	4.019	n/a	n/a	GoodResponse	0	0.0	n/a	3	7	ISIslide	AvoidedLoss	True
86.329	0.25	Lose2	1.0	0.0	Yes	3.021	0.029	n/a	GoodResponse	0	n/a	n/a	3	8	Cue	AvoidedLoss	True
86.579	3.95	Lose2	1.0	0.001	Yes	3.021	0.0	n/a	GoodResponse	0	n/a	n/a	3	8	Fixation	AvoidedLoss	True
90.525	0.32	Lose2	1.0	0.004	Yes	3.021	-0.004	2.0	GoodResponse	0	0.222	89.747	3	8	Target	AvoidedLoss	True
90.747	0.3	Lose2	1.0	0.004	Yes	3.021	-0.004	2.0	GoodResponse	0	0.222	n/a	3	8	ButtonPress	AvoidedLoss	True
90.859	0.38	Lose2	1.0	n/a	Yes	3.021	n/a	n/a	GoodResponse	0	n/a	n/a	3	8	Blank	AvoidedLoss	True
91.227	1.45	Lose2	1.0	n/a	Yes	3.021	n/a	5.0	GoodResponse	0	0.016	90.243	3	8	Feedback	AvoidedLoss	True
92.681	3.021	Lose2	1.0	n/a	Yes	3.021	n/a	n/a	GoodResponse	0	0.0	n/a	3	8	ISIslide	AvoidedLoss	True
95.724	0.25	Lose2	1.0	0.0	Yes	3.126	0.024	n/a	GoodResponse	0	n/a	n/a	3	9	Cue	AvoidedLoss	True
95.974	3.95	Lose2	1.0	0.0	Yes	3.126	0.0	n/a	GoodResponse	0	n/a	n/a	3	9	Fixation	AvoidedLoss	True
99.936	0.31	Lose2	1.0	0.0	Yes	3.126	0.012	2.0	GoodResponse	0	0.198	99.134	3	9	Target	AvoidedLoss	True
100.134	0.3	Lose2	1.0	0.0	Yes	3.126	0.012	2.0	GoodResponse	0	0.198	n/a	3	9	ButtonPress	AvoidedLoss	True
100.237	0.39	Lose2	1.0	n/a	Yes	3.126	n/a	n/a	GoodResponse	0	n/a	n/a	3	9	Blank	AvoidedLoss	True
100.622	1.45	Lose2	1.0	n/a	Yes	3.126	n/a	5.0	GoodResponse	0	0.036	99.658	3	9	Feedback	AvoidedLoss	True
102.076	3.126	Lose2	1.0	n/a	Yes	3.126	n/a	n/a	GoodResponse	0	0.0	n/a	3	9	ISIslide	AvoidedLoss	True
105.219	0.25	Control	0.9091	0.0	No	3.281	0.019	n/a	NoResponse	0	n/a	n/a	3	10	Cue	Neutral	True
105.469	4.0	Control	0.9091	0.001	No	3.281	0.0	n/a	NoResponse	0	n/a	n/a	3	10	Fixation	Neutral	True
109.465	0.3	Control	0.9091	0.004	No	3.281	-0.004	2.0	NoResponse	0	0.454	108.919	3	10	Target	Neutral	True
109.766	0.4	Control	0.9091	n/a	No	3.281	n/a	n/a	NoResponse	0	n/a	n/a	3	10	Blank	Neutral	True
109.919	0.3	Control	0.9091	0.004	No	3.281	-0.004	2.0	NoResponse	0	0.454	n/a	3	10	ButtonPress	Neutral	True
110.167	1.45	Control	0.9091	n/a	No	3.281	n/a	5.0	NoResponse	0	0.008	109.175	3	10	Feedback	Neutral	True
111.621	3.281	Control	0.9091	n/a	No	3.281	n/a	n/a	NoResponse	0	0.0	n/a	3	10	ISIslide	Neutral	True
114.931	0.25	Lose2	0.9167000000000001	0.0	Yes	2.719	0.031	n/a	GoodResponse	0	n/a	n/a	3	11	Cue	AvoidedLoss	True
115.182	4.05	Lose2	0.9167000000000001	0.0	Yes	2.719	0.001	n/a	GoodResponse	0	n/a	n/a	3	11	Fixation	AvoidedLoss	True
119.227	0.29	Lose2	0.9167000000000001	0.004	Yes	2.719	-0.004	2.0	GoodResponse	0	0.179	118.406	3	11	Target	AvoidedLoss	True
119.406	0.3	Lose2	0.9167000000000001	0.004	Yes	2.719	-0.004	2.0	GoodResponse	0	0.179	n/a	3	11	ButtonPress	AvoidedLoss	True
119.528	0.41	Lose2	0.9167000000000001	n/a	Yes	2.719	n/a	n/a	GoodResponse	0	n/a	n/a	3	11	Blank	AvoidedLoss	True
119.929	1.45	Lose2	0.9167000000000001	n/a	Yes	2.719	n/a	5.0	GoodResponse	0	0.046	118.975	3	11	Feedback	AvoidedLoss	True
121.384	2.719	Lose2	0.9167000000000001	n/a	Yes	2.719	n/a	n/a	GoodResponse	0	0.0	n/a	3	11	ISIslide	AvoidedLoss	True
124.125	0.25	Control	0.9231	0.001	Yes	2.975	0.025	n/a	GoodResponse	0	n/a	n/a	3	12	Cue	Neutral	True
124.376	3.9	Control	0.9231	0.0	Yes	2.975	0.001	n/a	GoodResponse	0	n/a	n/a	3	12	Fixation	Neutral	True
128.271	0.28	Control	0.9231	0.004	Yes	2.975	-0.004	2.0	GoodResponse	0	0.21	127.481	3	12	Target	Neutral	True
128.481	0.3	Control	0.9231	0.004	Yes	2.975	-0.004	2.0	GoodResponse	0	0.21	n/a	3	12	ButtonPress	Neutral	True
128.555	0.42	Control	0.9231	n/a	Yes	2.975	n/a	n/a	GoodResponse	0	n/a	n/a	3	12	Blank	Neutral	True
128.973	1.45	Control	0.9231	n/a	Yes	2.975	n/a	5.0	GoodResponse	0	0.027	128.0	3	12	Feedback	Neutral	True
130.428	2.975	Control	0.9231	n/a	Yes	2.975	n/a	n/a	GoodResponse	0	0.0	n/a	3	12	ISIslide	Neutral	True
133.42	0.25	Control	0.9286	0.0	Yes	2.78	0.02	n/a	GoodResponse	0	n/a	n/a	3	13	Cue	Neutral	True
133.671	4.0	Control	0.9286	0.0	Yes	2.78	0.001	n/a	GoodResponse	0	n/a	n/a	3	13	Fixation	Neutral	True
137.666	0.27	Control	0.9286	0.004	Yes	2.78	-0.004	2.0	GoodResponse	0	0.158	136.824	3	13	Target	Neutral	True
137.824	0.3	Control	0.9286	0.004	Yes	2.78	-0.004	2.0	GoodResponse	0	0.158	n/a	3	13	ButtonPress	Neutral	True
137.95	0.43	Control	0.9286	n/a	Yes	2.78	n/a	n/a	GoodResponse	0	n/a	n/a	3	13	Blank	Neutral	True
138.368	1.45	Control	0.9286	n/a	Yes	2.78	n/a	5.0	GoodResponse	0	0.046	137.414	3	13	Feedback	Neutral	True
139.823	2.78	Control	0.9286	n/a	Yes	2.78	n/a	n/a	GoodResponse	0	0.0	n/a	3	13	ISIslide	Neutral	True
142.631	0.25	Win2	0.9333	0.0	Yes	2.669	0.031	n/a	GoodResponse	1	n/a	n/a	4	14	Cue	Win	True
142.882	4.1	Win2	0.9333	0.0	Yes	2.669	0.001	n/a	GoodResponse	1	n/a	n/a	4	14	Fixation	Win	True
146.977	0.26	Win2	0.9333	0.004	Yes	2.669	-0.004	2.0	GoodResponse	1	0.172	146.149	4	14	Target	Win	True
147.149	0.3	Win2	0.9333	0.004	Yes	2.669	-0.004	2.0	GoodResponse	1	0.172	n/a	4	14	ButtonPress	Win	True
147.245	0.44	Win2	0.9333	n/a	Yes	2.669	n/a	n/a	GoodResponse	1	n/a	n/a	4	14	Blank	Win	True
147.679	1.45	Win2	0.9333	n/a	Yes	2.669	n/a	5.0	GoodResponse	1	0.008	146.687	4	14	Feedback	Win	True
149.134	2.669	Win2	0.9333	n/a	Yes	2.669	n/a	n/a	GoodResponse	1	0.0	n/a	4	14	ISIslide	Win	True
151.825	0.25	Control	0.9375	0.0	Yes	2.975	0.025	n/a	GoodResponse	0	n/a	n/a	4	15	Cue	Neutral	True
152.076	4.0	Control	0.9375	0.0	Yes	2.975	0.001	n/a	GoodResponse	0	n/a	n/a	4	15	Fixation	Neutral	True
156.071	0.25	Control	0.9375	0.004	Yes	2.975	-0.004	2.0	GoodResponse	0	0.212	155.283	4	15	Target	Neutral	True
156.283	0.3	Control	0.9375	0.004	Yes	2.975	-0.004	2.0	GoodResponse	0	0.212	n/a	4	15	ButtonPress	Neutral	True
156.322	0.45	Control	0.9375	n/a	Yes	2.975	n/a	n/a	GoodResponse	0	n/a	n/a	4	15	Blank	Neutral	True
156.773	1.45	Control	0.9375	n/a	Yes	2.975	n/a	5.0	GoodResponse	0	0.031	155.804	4	15	Feedback	Neutral	True
158.228	2.975	Control	0.9375	n/a	Yes	2.975	n/a	n/a	GoodResponse	0	0.0	n/a	4	15	ISIslide	Neutral	True
161.22	0.25	Win2	0.9412	0.0	Yes	2.88	0.02	n/a	GoodResponse	1	n/a	n/a	5	16	Cue	Win	True
161.471	4.0	Win2	0.9412	0.0	Yes	2.88	0.001	n/a	GoodResponse	1	n/a	n/a	5	16	Fixation	Win	True
165.466	0.24	Win2	0.9412	0.004	Yes	2.88	-0.004	2.0	GoodResponse	1	0.167	164.633	5	16	Target	Win	True
165.633	0.3	Win2	0.9412	0.004	Yes	2.88	-0.004	2.0	GoodResponse	1	0.167	n/a	5	16	ButtonPress	Win	True
165.717	0.46	Win2	0.9412	n/a	Yes	2.88	n/a	n/a	GoodResponse	1	n/a	n/a	5	16	Blank	Win	True
166.168	1.45	Win2	0.9412	n/a	Yes	2.88	n/a	5.0	GoodResponse	1	0.007	165.175	5	16	Feedback	Win	True
167.623	2.88	Win2	0.9412	n/a	Yes	2.88	n/a	n/a	GoodResponse	1	0.0	n/a	5	16	ISIslide	Win	True
170.531	0.25	Lose2	0.9444	0.0	Yes	2.719	0.031	n/a	GoodResponse	0	n/a	n/a	5	17	Cue	AvoidedLoss	True
170.782	3.95	Lose2	0.9444	0.0	Yes	2.719	0.001	n/a	GoodResponse	0	n/a	n/a	5	17	Fixation	AvoidedLoss	True
174.727	0.23	Lose2	0.9444	0.004	Yes	2.719	-0.004	2.0	GoodResponse	0	0.174	173.901	5	17	Target	AvoidedLoss	True
174.901	0.3	Lose2	0.9444	0.004	Yes	2.719	-0.004	2.0	GoodResponse	0	0.174	n/a	5	17	ButtonPress	AvoidedLoss	True
174.961	0.47	Lose2	0.9444	n/a	Yes	2.719	n/a	n/a	GoodResponse	0	n/a	n/a	5	17	Blank	AvoidedLoss	True
175.429	1.45	Lose2	0.9444	n/a	Yes	2.719	n/a	5.0	GoodResponse	0	0.009	174.438	5	17	Feedback	AvoidedLoss	True
176.884	2.719	Lose2	0.9444	n/a	Yes	2.719	n/a	n/a	GoodResponse	0	0.0	n/a	5	17	ISIslide	AvoidedLoss	True
179.625	0.25	Lose2	0.9473999999999999	0.0	Yes	2.725	0.025	n/a	GoodResponse	0	n/a	n/a	5	18	Cue	AvoidedLoss	True
179.876	4.05	Lose2	0.9473999999999999	0.0	Yes	2.725	0.001	n/a	GoodResponse	0	n/a	n/a	5	18	Fixation	AvoidedLoss	True
183.921	0.22	Lose2	0.9473999999999999	0.004	Yes	2.725	-0.004	2.0	GoodResponse	0	0.152	183.073	5	18	Target	AvoidedLoss	True
184.073	0.3	Lose2	0.9473999999999999	0.004	Yes	2.725	-0.004	2.0	GoodResponse	0	0.152	n/a	5	18	ButtonPress	AvoidedLoss	True
184.155	0.48	Lose2	0.9473999999999999	n/a	Yes	2.725	n/a	n/a	GoodResponse	0	n/a	n/a	5	18	Blank	AvoidedLoss	True
184.624	1.45	Lose2	0.9473999999999999	n/a	Yes	2.725	n/a	5.0	GoodResponse	0	0.034	183.658	5	18	Feedback	AvoidedLoss	True
186.078	2.725	Lose2	0.9473999999999999	n/a	Yes	2.725	n/a	n/a	GoodResponse	0	0.0	n/a	5	18	ISIslide	AvoidedLoss	True
188.819	0.25	Control	0.95	0.001	Yes	2.931	0.019	n/a	GoodResponse	0	n/a	n/a	5	19	Cue	Neutral	True
189.07	3.95	Control	0.95	0.0	Yes	2.931	0.001	n/a	GoodResponse	0	n/a	n/a	5	19	Fixation	Neutral	True
193.015	0.21	Control	0.95	0.004	Yes	2.931	-0.004	2.0	GoodResponse	0	0.193	192.208	5	19	Target	Neutral	True
193.208	0.3	Control	0.95	0.004	Yes	2.931	-0.004	2.0	GoodResponse	0	0.193	n/a	5	19	ButtonPress	Neutral	True
193.233	0.49	Control	0.95	n/a	Yes	2.931	n/a	n/a	GoodResponse	0	n/a	n/a	5	19	Blank	Neutral	True
193.718	1.45	Control	0.95	n/a	Yes	2.931	n/a	5.0	GoodResponse	0	0.013	192.731	5	19	Feedback	Neutral	True
195.172	2.931	Control	0.95	n/a	Yes	2.931	n/a	n/a	GoodResponse	0	0.0	n/a	5	19	ISIslide	Neutral	True
198.131	0.25	Control	0.9523999999999999	0.0	Yes	2.619	0.031	n/a	GoodResponse	0	n/a	n/a	5	20	Cue	Neutral	True
198.382	4.05	Control	0.9523999999999999	0.0	Yes	2.619	0.001	n/a	GoodResponse	0	n/a	n/a	5	20	Fixation	Neutral	True
202.427	0.2	Control	0.9523999999999999	0.004	Yes	2.619	-0.004	2.0	GoodResponse	0	0.173	201.6	5	20	Target	Neutral	True
202.6	0.3	Control	0.9523999999999999	0.004	Yes	2.619	-0.004	2.0	GoodResponse	0	0.173	n/a	5	20	ButtonPress	Neutral	True
202.628	0.5	Control	0.9523999999999999	n/a	Yes	2.619	n/a	n/a	GoodResponse	0	n/a	n/a	5	20	Blank	Neutral	True
203.129	1.45	Control	0.9523999999999999	n/a	Yes	2.619	n/a	5.0	GoodResponse	0	0.017	202.146	5	20	Feedback	Neutral	True
204.583	2.619	Control	0.9523999999999999	n/a	Yes	2.619	n/a	n/a	GoodResponse	0	0.0	n/a	5	20	ISIslide	Neutral	True
207.225	0.25	Control	0.9545	0.0	Yes	2.775	0.025	n/a	GoodResponse	0	n/a	n/a	5	21	Cue	Neutral	True
207.475	4.1	Control	0.9545	0.001	Yes	2.775	0.0	n/a	GoodResponse	0	n/a	n/a	5	21	Fixation	Neutral	True
211.571	0.19	Control	0.9545	0.004	Yes	2.775	-0.004	2.0	GoodResponse	0	0.182	210.753	5	21	Target	Neutral	True
211.753	0.3	Control	0.9545	0.004	Yes	2.775	-0.004	2.0	GoodResponse	0	0.182	n/a	5	21	ButtonPress	Neutral	True
211.772	0.51	Control	0.9545	n/a	Yes	2.775	n/a	n/a	GoodResponse	0	n/a	n/a	5	21	Blank	Neutral	True
212.273	1.45	Control	0.9545	n/a	Yes	2.775	n/a	5.0	GoodResponse	0	0.044	211.317	5	21	Feedback	Neutral	True
213.728	2.775	Control	0.9545	n/a	Yes	2.775	n/a	n/a	GoodResponse	0	0.0	n/a	5	21	ISIslide	Neutral	True
216.519	0.25	Control	0.9565	0.0	Yes	2.781	0.019	n/a	GoodResponse	0	n/a	n/a	5	22	Cue	Neutral	True
216.77	4.0	Control	0.9565	0.0	Yes	2.781	0.001	n/a	GoodResponse	0	n/a	n/a	5	22	Fixation	Neutral	True
220.765	0.18	Control	0.9565	0.004	Yes	2.781	-0.004	2.0	GoodResponse	0	0.177	219.942	5	22	Target	Neutral	True
220.942	0.3	Control	0.9565	0.004	Yes	2.781	-0.004	2.0	GoodResponse	0	0.177	n/a	5	22	ButtonPress	Neutral	True
220.949	0.52	Control	0.9565	n/a	Yes	2.781	n/a	n/a	GoodResponse	0	n/a	n/a	5	22	Blank	Neutral	True
221.467	1.45	Control	0.9565	n/a	Yes	2.781	n/a	5.0	GoodResponse	0	0.019	220.486	5	22	Feedback	Neutral	True
222.922	2.781	Control	0.9565	n/a	Yes	2.781	n/a	n/a	GoodResponse	0	0.0	n/a	5	22	ISIslide	Neutral	True
225.73	0.25	Control	0.9167000000000001	0.0	No	2.77	0.03	n/a	LatePress	0	n/a	n/a	5	23	Cue	Neutral	True
225.981	3.9	Control	0.9167000000000001	0.0	No	2.77	0.001	n/a	LatePress	0	n/a	n/a	5	23	Fixation	Neutral	True
229.876	0.17	Control	0.9167000000000001	0.004	No	2.77	-0.004	2.0	LatePress	0	0.172	229.048	5	23	Target	Neutral	True
230.048	0.3	Control	0.9167000000000001	0.004	No	2.77	-0.004	2.0	LatePress	0	0.172	n/a	5	23	ButtonPress	Neutral	True
230.06	0.53	Control	0.9167000000000001	n/a	No	2.77	n/a	n/a	LatePress	0	n/a	n/a	5	23	Blank	Neutral	True
230.578	1.45	Control	0.9167000000000001	n/a	No	2.77	n/a	5.0	LatePress	0	0.03	229.608	5	23	Feedback	Neutral	True
232.032	2.77	Control	0.9167000000000001	n/a	No	2.77	n/a	n/a	LatePress	0	0.0	n/a	5	23	ISIslide	Neutral	True
234.824	0.25	Win2	0.92	0.0	Yes	3.126	0.024	n/a	GoodResponse	1	n/a	n/a	6	24	Cue	Win	True
235.075	3.95	Win2	0.92	0.0	Yes	3.126	0.001	n/a	GoodResponse	1	n/a	n/a	6	24	Fixation	Win	True
239.02	0.16	Win2	0.92	0.004	Yes	3.126	-0.004	2.0	GoodResponse	1	0.159	238.179	6	24	Target	Win	True
239.179	0.3	Win2	0.92	0.004	Yes	3.126	-0.004	2.0	GoodResponse	1	0.159	n/a	6	24	ButtonPress	Win	True
239.187	0.54	Win2	0.92	n/a	Yes	3.126	n/a	n/a	GoodResponse	1	n/a	n/a	6	24	Blank	Win	True
239.722	1.45	Win2	0.92	n/a	Yes	3.126	n/a	5.0	GoodResponse	1	0.009	238.731	6	24	Feedback	Win	True
241.177	3.126	Win2	0.92	n/a	Yes	3.126	n/a	n/a	GoodResponse	1	0.0	n/a	6	24	ISIslide	Win	True
244.319	0.25	Win2	0.8845999999999999	0.0	No	3.081	0.019	n/a	NoResponse	0	n/a	n/a	6	25	Cue	MissedWin	True
244.57	4.0	Win2	0.8845999999999999	0.0	No	3.081	0.001	n/a	NoResponse	0	n/a	n/a	6	25	Fixation	MissedWin	True
248.565	0.15	Win2	0.8845999999999999	0.004	No	3.081	-0.004	2.0	NoResponse	0	0.161	247.726	6	25	Target	MissedWin	True
248.716	0.55	Win2	0.8845999999999999	n/a	No	3.081	n/a	n/a	NoResponse	0	n/a	n/a	6	25	Blank	MissedWin	True
248.726	0.3	Win2	0.8845999999999999	0.004	No	3.081	-0.004	2.0	NoResponse	0	0.161	n/a	6	25	ButtonPress	MissedWin	True
249.267	1.45	Win2	0.8845999999999999	n/a	No	3.081	n/a	5.0	NoResponse	0	0.025	248.292	6	25	Feedback	MissedWin	True
250.722	3.081	Win2	0.8845999999999999	n/a	No	3.081	n/a	n/a	NoResponse	0	0.0	n/a	6	25	ISIslide	MissedWin	True
253.831	0.25	Win2	0.8519	0.0	No	2.919	0.031	n/a	NoResponse	0	n/a	n/a	6	26	Cue	MissedWin	True
254.082	3.95	Win2	0.8519	0.0	No	2.919	0.001	n/a	NoResponse	0	n/a	n/a	6	26	Fixation	MissedWin	True
258.027	0.15	Win2	0.8519	0.004	No	2.919	-0.004	2.0	NoResponse	0	0.176	257.203	6	26	Target	MissedWin	True
258.178	0.55	Win2	0.8519	n/a	No	2.919	n/a	n/a	NoResponse	0	n/a	n/a	6	26	Blank	MissedWin	True
258.203	0.3	Win2	0.8519	0.004	No	2.919	-0.004	2.0	NoResponse	0	0.176	n/a	6	26	ButtonPress	MissedWin	True
258.729	1.45	Win2	0.8519	n/a	No	2.919	n/a	5.0	NoResponse	0	0.026	257.755	6	26	Feedback	MissedWin	True
260.184	2.919	Win2	0.8519	n/a	No	2.919	n/a	n/a	NoResponse	0	0.0	n/a	6	26	ISIslide	MissedWin	True
263.126	0.25	Lose2	0.8214	0.0	No	2.824	0.026	n/a	NoResponse	-1	n/a	n/a	5	27	Cue	Loss	True
263.376	4.05	Lose2	0.8214	0.001	No	2.824	0.0	n/a	NoResponse	-1	n/a	n/a	5	27	Fixation	Loss	True
267.422	0.15	Lose2	0.8214	0.004	No	2.824	-0.004	2.0	NoResponse	-1	0.154	266.576	5	27	Target	Loss	True
267.572	0.55	Lose2	0.8214	n/a	No	2.824	n/a	n/a	NoResponse	-1	n/a	n/a	5	27	Blank	Loss	True
267.576	0.3	Lose2	0.8214	0.004	No	2.824	-0.004	2.0	NoResponse	-1	0.154	n/a	5	27	ButtonPress	Loss	True
268.124	1.45	Lose2	0.8214	n/a	No	2.824	n/a	5.0	NoResponse	-1	0.046	267.17	5	27	Feedback	Loss	True
269.578	2.824	Lose2	0.8214	n/a	No	2.824	n/a	n/a	NoResponse	-1	0.0	n/a	5	27	ISIslide	Loss	True
272.42	0.25	Control	0.7931	0.0	No	2.83	0.02	n/a	NoResponse	0	n/a	n/a	5	28	Cue	Neutral	True
272.671	4.05	Control	0.7931	0.0	No	2.83	0.001	n/a	NoResponse	0	n/a	n/a	5	28	Fixation	Neutral	True
276.716	0.15	Control	0.7931	0.004	No	2.83	-0.004	2.0	NoResponse	0	0.169	275.885	5	28	Target	Neutral	True
276.867	0.55	Control	0.7931	n/a	No	2.83	n/a	n/a	NoResponse	0	n/a	n/a	5	28	Blank	Neutral	True
276.885	0.3	Control	0.7931	0.004	No	2.83	-0.004	2.0	NoResponse	0	0.169	n/a	5	28	ButtonPress	Neutral	True
277.419	1.45	Control	0.7931	n/a	No	2.83	n/a	5.0	NoResponse	0	0.019	276.438	5	28	Feedback	Neutral	True
278.873	2.83	Control	0.7931	n/a	No	2.83	n/a	n/a	NoResponse	0	0.0	n/a	5	28	ISIslide	Neutral	True
281.732	0.25	Lose2	0.7667	0.0	No	2.818	0.032	n/a	NoResponse	-1	n/a	n/a	4	29	Cue	Loss	True
281.982	3.95	Lose2	0.7667	0.0	No	2.818	0.0	2.0	NoResponse	-1	3.862	284.844	4	29	Fixation	Loss	True
285.844	0.3	Lose2	0.7667	0.0	No	2.818	0.0	2.0	NoResponse	-1	3.862	n/a	4	29	ButtonPress	Loss	True
285.944	0.15	Lose2	0.7667	0.0	No	2.818	0.012	n/a	NoResponse	-1	n/a	n/a	4	29	Target	Loss	True
286.078	0.55	Lose2	0.7667	n/a	No	2.818	n/a	n/a	NoResponse	-1	n/a	n/a	4	29	Blank	Loss	True
286.63	1.45	Lose2	0.7667	n/a	No	2.818	n/a	5.0	NoResponse	-1	0.028	285.658	4	29	Feedback	Loss	True
288.084	2.818	Lose2	0.7667	n/a	No	2.818	n/a	n/a	NoResponse	-1	0.0	n/a	4	29	ISIslide	Loss	True
290.926	0.25	Win2	0.7419	0.0	No	2.774	0.026	n/a	NoResponse	0	n/a	n/a	4	30	Cue	MissedWin	True
291.177	3.9	Win2	0.7419	0.0	No	2.774	0.001	2.0	NoResponse	0	3.649	293.826	4	30	Fixation	MissedWin	True
294.826	0.3	Win2	0.7419	0.0	No	2.774	0.001	2.0	NoResponse	0	3.649	n/a	4	30	ButtonPress	MissedWin	True
295.072	0.15	Win2	0.7419	0.004	No	2.774	-0.004	n/a	NoResponse	0	n/a	n/a	4	30	Target	MissedWin	True
295.222	0.55	Win2	0.7419	n/a	No	2.774	n/a	n/a	NoResponse	0	n/a	n/a	4	30	Blank	MissedWin	True
295.774	1.45	Win2	0.7419	n/a	No	2.774	n/a	5.0	NoResponse	0	0.008	294.782	4	30	Feedback	MissedWin	True
297.228	2.774	Win2	0.7419	n/a	No	2.774	n/a	n/a	NoResponse	0	0.0	n/a	4	30	ISIslide	MissedWin	True
300.02	0.25	Lose2	0.7188	0.0	No	2.83	0.02	n/a	NoResponse	-1	n/a	n/a	3	31	Cue	Loss	True
300.27	4.05	Lose2	0.7188	0.001	No	2.83	0.0	n/a	NoResponse	-1	n/a	n/a	3	31	Fixation	Loss	True
304.316	0.15	Lose2	0.7188	0.004	No	2.83	-0.004	2.0	NoResponse	-1	0.166	303.482	3	31	Target	Loss	True
304.466	0.55	Lose2	0.7188	n/a	No	2.83	n/a	n/a	NoResponse	-1	n/a	n/a	3	31	Blank	Loss	True
304.482	0.3	Lose2	0.7188	0.004	No	2.83	-0.004	2.0	NoResponse	-1	0.166	n/a	3	31	ButtonPress	Loss	True
305.018	1.45	Lose2	0.7188	n/a	No	2.83	n/a	5.0	NoResponse	-1	0.029	304.047	3	31	Feedback	Loss	True
306.472	2.83	Lose2	0.7188	n/a	No	2.83	n/a	n/a	NoResponse	-1	0.0	n/a	3	31	ISIslide	Loss	True
309.331	0.25	Lose2	0.6970000000000001	0.0	No	2.619	0.031	n/a	NoResponse	-1	n/a	n/a	2	32	Cue	Loss	True
309.582	4.15	Lose2	0.6970000000000001	0.0	No	2.619	0.001	n/a	NoResponse	-1	n/a	n/a	2	32	Fixation	Loss	True
313.728	0.15	Lose2	0.6970000000000001	0.003	No	2.619	-0.003	2.0	NoResponse	-1	0.169	312.897	2	32	Target	Loss	True
313.878	0.55	Lose2	0.6970000000000001	n/a	No	2.619	n/a	n/a	NoResponse	-1	n/a	n/a	2	32	Blank	Loss	True
313.897	0.3	Lose2	0.6970000000000001	0.003	No	2.619	-0.003	2.0	NoResponse	-1	0.169	n/a	2	32	ButtonPress	Loss	True
314.43	1.45	Lose2	0.6970000000000001	n/a	No	2.619	n/a	5.0	NoResponse	-1	0.032	313.462	2	32	Feedback	Loss	True
315.884	2.619	Lose2	0.6970000000000001	n/a	No	2.619	n/a	n/a	NoResponse	-1	0.0	n/a	2	32	ISIslide	Loss	True
318.525	0.25	Win2	0.6765000000000001	0.0	No	2.675	0.025	n/a	NoResponse	0	n/a	n/a	2	33	Cue	MissedWin	True
318.776	4.0	Win2	0.6765000000000001	0.0	No	2.675	0.001	n/a	NoResponse	0	n/a	n/a	2	33	Fixation	MissedWin	True
322.771	0.15	Win2	0.6765000000000001	0.004	No	2.675	-0.004	2.0	NoResponse	0	0.174	321.945	2	33	Target	MissedWin	True
322.922	0.55	Win2	0.6765000000000001	n/a	No	2.675	n/a	n/a	NoResponse	0	n/a	n/a	2	33	Blank	MissedWin	True
322.945	0.3	Win2	0.6765000000000001	0.004	No	2.675	-0.004	2.0	NoResponse	0	0.174	n/a	2	33	ButtonPress	MissedWin	True
323.473	1.45	Win2	0.6765000000000001	n/a	No	2.675	n/a	5.0	NoResponse	0	0.014	322.487	2	33	Feedback	MissedWin	True
324.928	2.675	Win2	0.6765000000000001	n/a	No	2.675	n/a	n/a	NoResponse	0	0.0	n/a	2	33	ISIslide	MissedWin	True
327.619	0.25	Lose2	0.6570999999999999	0.0	No	2.631	0.019	n/a	NoResponse	-1	n/a	n/a	1	34	Cue	Loss	True
327.87	4.05	Lose2	0.6570999999999999	0.0	No	2.631	0.001	n/a	NoResponse	-1	n/a	n/a	1	34	Fixation	Loss	True
331.915	0.15	Lose2	0.6570999999999999	0.004	No	2.631	-0.004	2.0	NoResponse	-1	0.183	331.098	1	34	Target	Loss	True
332.066	0.55	Lose2	0.6570999999999999	n/a	No	2.631	n/a	n/a	NoResponse	-1	n/a	n/a	1	34	Blank	Loss	True
332.098	0.3	Lose2	0.6570999999999999	0.004	No	2.631	-0.004	2.0	NoResponse	-1	0.183	n/a	1	34	ButtonPress	Loss	True
332.618	1.45	Lose2	0.6570999999999999	n/a	No	2.631	n/a	5.0	NoResponse	-1	0.039	331.657	1	34	Feedback	Loss	True
334.072	2.631	Lose2	0.6570999999999999	n/a	No	2.631	n/a	n/a	NoResponse	-1	0.0	n/a	1	34	ISIslide	Loss	True
336.73	0.25	Lose2	0.6389	0.0	No	2.67	0.03	n/a	NoResponse	-1	n/a	n/a	0	35	Cue	Loss	True
336.981	4.0	Lose2	0.6389	0.0	No	2.67	0.001	n/a	NoResponse	-1	n/a	n/a	0	35	Fixation	Loss	True
340.976	0.15	Lose2	0.6389	0.004	No	2.67	-0.004	2.0	NoResponse	-1	0.169	340.145	0	35	Target	Loss	True
341.126	0.55	Lose2	0.6389	n/a	No	2.67	n/a	n/a	NoResponse	-1	n/a	n/a	0	35	Blank	Loss	True
341.145	0.3	Lose2	0.6389	0.004	No	2.67	-0.004	2.0	NoResponse	-1	0.169	n/a	0	35	ButtonPress	Loss	True
341.678	1.45	Lose2	0.6389	n/a	No	2.67	n/a	5.0	NoResponse	-1	0.008	340.686	0	35	Feedback	Loss	True
343.132	2.67	Lose2	0.6389	n/a	No	2.67	n/a	n/a	NoResponse	-1	0.0	n/a	0	35	ISIslide	Loss	True
345.824	0.25	Control	0.6215999999999999	0.0	No	2.676	0.024	n/a	NoResponse	0	n/a	n/a	0	36	Cue	Neutral	True
346.075	4.0	Control	0.6215999999999999	0.0	No	2.676	0.001	n/a	NoResponse	0	n/a	n/a	0	36	Fixation	Neutral	True
350.07	0.16	Control	0.6215999999999999	0.004	No	2.676	-0.004	2.0	NoResponse	0	0.216	349.286	0	36	Target	Neutral	True
350.237	0.54	Control	0.6215999999999999	n/a	No	2.676	n/a	n/a	NoResponse	0	n/a	n/a	0	36	Blank	Neutral	True
350.286	0.3	Control	0.6215999999999999	0.004	No	2.676	-0.004	2.0	NoResponse	0	0.216	n/a	0	36	ButtonPress	Neutral	True
350.772	1.45	Control	0.6215999999999999	n/a	No	2.676	n/a	5.0	NoResponse	0	0.032	349.804	0	36	Feedback	Neutral	True
352.226	2.676	Control	0.6215999999999999	n/a	No	2.676	n/a	n/a	NoResponse	0	0.0	n/a	0	36	ISIslide	Neutral	True
354.918	0.25	Win2	0.6053000000000001	0.0	No	2.882	0.018	n/a	LatePress	0	n/a	n/a	0	37	Cue	MissedWin	True
355.169	4.0	Win2	0.6053000000000001	0.0	No	2.882	0.001	n/a	LatePress	0	n/a	n/a	0	37	Fixation	MissedWin	True
359.164	0.17	Win2	0.6053000000000001	0.004	No	2.882	-0.004	2.0	LatePress	0	0.171	358.335	0	37	Target	MissedWin	True
359.335	0.3	Win2	0.6053000000000001	0.004	No	2.882	-0.004	2.0	LatePress	0	0.171	n/a	0	37	ButtonPress	MissedWin	True
359.348	0.53	Win2	0.6053000000000001	n/a	No	2.882	n/a	n/a	LatePress	0	n/a	n/a	0	37	Blank	MissedWin	True
359.866	1.45	Win2	0.6053000000000001	n/a	No	2.882	n/a	5.0	LatePress	0	0.011	358.877	0	37	Feedback	MissedWin	True
361.32	2.882	Win2	0.6053000000000001	n/a	No	2.882	n/a	n/a	LatePress	0	0.0	n/a	0	37	ISIslide	MissedWin	True
364.229	0.25	Lose2	0.6154	0.0	Yes	2.821	0.029	n/a	GoodResponse	0	n/a	n/a	0	38	Cue	AvoidedLoss	True
364.48	3.95	Lose2	0.6154	0.0	Yes	2.821	0.001	n/a	GoodResponse	0	n/a	n/a	0	38	Fixation	AvoidedLoss	True
368.425	0.18	Lose2	0.6154	0.004	Yes	2.821	-0.004	2.0	GoodResponse	0	0.159	367.584	0	38	Target	AvoidedLoss	True
368.584	0.3	Lose2	0.6154	0.004	Yes	2.821	-0.004	2.0	GoodResponse	0	0.159	n/a	0	38	ButtonPress	AvoidedLoss	True
368.609	0.52	Lose2	0.6154	n/a	Yes	2.821	n/a	n/a	GoodResponse	0	n/a	n/a	0	38	Blank	AvoidedLoss	True
369.127	1.45	Lose2	0.6154	n/a	Yes	2.821	n/a	5.0	GoodResponse	0	0.019	368.146	0	38	Feedback	AvoidedLoss	True
370.581	2.821	Lose2	0.6154	n/a	Yes	2.821	n/a	n/a	GoodResponse	0	0.0	n/a	0	38	ISIslide	AvoidedLoss	True
373.423	0.25	Win2	0.625	0.0	Yes	2.977	0.023	n/a	GoodResponse	1	n/a	n/a	1	39	Cue	Win	True
373.674	4.1	Win2	0.625	0.0	Yes	2.977	0.001	n/a	GoodResponse	1	n/a	n/a	1	39	Fixation	Win	True
377.77	0.19	Win2	0.625	0.003	Yes	2.977	-0.003	2.0	GoodResponse	1	0.164	376.934	1	39	Target	Win	True
377.934	0.3	Win2	0.625	0.003	Yes	2.977	-0.003	2.0	GoodResponse	1	0.164	n/a	1	39	ButtonPress	Win	True
377.97	0.51	Win2	0.625	n/a	Yes	2.977	n/a	n/a	GoodResponse	1	n/a	n/a	1	39	Blank	Win	True
378.472	1.45	Win2	0.625	n/a	Yes	2.977	n/a	5.0	GoodResponse	1	0.039	377.511	1	39	Feedback	Win	True
379.926	2.977	Win2	0.625	n/a	Yes	2.977	n/a	n/a	GoodResponse	1	0.0	n/a	1	39	ISIslide	Win	True
382.918	0.25	Win2	0.6341	0.0	Yes	2.732	0.018	n/a	GoodResponse	1	n/a	n/a	2	40	Cue	Win	True
383.169	3.95	Win2	0.6341	0.0	Yes	2.732	0.001	n/a	GoodResponse	1	n/a	n/a	2	40	Fixation	Win	True
387.114	0.2	Win2	0.6341	0.004	Yes	2.732	-0.004	2.0	GoodResponse	1	0.167	386.281	2	40	Target	Win	True
387.281	0.3	Win2	0.6341	0.004	Yes	2.732	-0.004	2.0	GoodResponse	1	0.167	n/a	2	40	ButtonPress	Win	True
387.315	0.5	Win2	0.6341	n/a	Yes	2.732	n/a	n/a	GoodResponse	1	n/a	n/a	2	40	Blank	Win	True
387.816	1.45	Win2	0.6341	n/a	Yes	2.732	n/a	5.0	GoodResponse	1	0.012	386.828	2	40	Feedback	Win	True
389.271	2.732	Win2	0.6341	n/a	Yes	2.732	n/a	n/a	GoodResponse	1	0.0	n/a	2	40	ISIslide	Win	True
392.029	0.25	Win2	0.6429	0.0	Yes	2.771	0.029	n/a	GoodResponse	1	n/a	n/a	3	41	Cue	Win	True
392.28	3.9	Win2	0.6429	0.0	Yes	2.771	0.001	n/a	GoodResponse	1	n/a	n/a	3	41	Fixation	Win	True
396.175	0.21	Win2	0.6429	0.004	Yes	2.771	-0.004	2.0	GoodResponse	1	0.17	395.345	3	41	Target	Win	True
396.345	0.3	Win2	0.6429	0.004	Yes	2.771	-0.004	2.0	GoodResponse	1	0.17	n/a	3	41	ButtonPress	Win	True
396.392	0.49	Win2	0.6429	n/a	Yes	2.771	n/a	n/a	GoodResponse	1	n/a	n/a	3	41	Blank	Win	True
396.877	1.45	Win2	0.6429	n/a	Yes	2.771	n/a	5.0	GoodResponse	1	0.024	395.901	3	41	Feedback	Win	True
398.331	2.771	Win2	0.6429	n/a	Yes	2.771	n/a	n/a	GoodResponse	1	0.0	n/a	3	41	ISIslide	Win	True
401.123	0.25	Control	0.6512	0.0	Yes	2.927	0.023	n/a	GoodResponse	0	n/a	n/a	3	42	Cue	Neutral	True
401.374	3.85	Control	0.6512	0.0	Yes	2.927	0.001	n/a	GoodResponse	0	n/a	n/a	3	42	Fixation	Neutral	True
405.219	0.22	Control	0.6512	0.004	Yes	2.927	-0.004	2.0	GoodResponse	0	0.177	404.396	3	42	Target	Neutral	True
405.396	0.3	Control	0.6512	0.004	Yes	2.927	-0.004	2.0	GoodResponse	0	0.177	n/a	3	42	ButtonPress	Neutral	True
405.453	0.48	Control	0.6512	n/a	Yes	2.927	n/a	n/a	GoodResponse	0	n/a	n/a	3	42	Blank	Neutral	True
405.921	1.45	Control	0.6512	n/a	Yes	2.927	n/a	5.0	GoodResponse	0	0.007	404.928	3	42	Feedback	Neutral	True
407.375	2.927	Control	0.6512	n/a	Yes	2.927	n/a	n/a	GoodResponse	0	0.0	n/a	3	42	ISIslide	Neutral	True
410.317	0.25	Win2	0.6591	0.0	Yes	3.183	0.017	n/a	GoodResponse	1	n/a	n/a	4	43	Cue	Win	True
410.568	4.0	Win2	0.6591	0.0	Yes	3.183	0.001	n/a	GoodResponse	1	n/a	n/a	4	43	Fixation	Win	True
414.563	0.23	Win2	0.6591	0.004	Yes	3.183	-0.004	2.0	GoodResponse	1	0.176	413.739	4	43	Target	Win	True
414.739	0.3	Win2	0.6591	0.004	Yes	3.183	-0.004	2.0	GoodResponse	1	0.176	n/a	4	43	ButtonPress	Win	True
414.797	0.47	Win2	0.6591	n/a	Yes	3.183	n/a	n/a	GoodResponse	1	n/a	n/a	4	43	Blank	Win	True
415.265	1.45	Win2	0.6591	n/a	Yes	3.183	n/a	5.0	GoodResponse	1	0.026	414.291	4	43	Feedback	Win	True
416.72	3.183	Win2	0.6591	n/a	Yes	3.183	n/a	n/a	GoodResponse	1	0.0	n/a	4	43	ISIslide	Win	True
419.929	0.25	Win2	0.6667000000000001	0.001	Yes	2.971	0.029	n/a	GoodResponse	1	n/a	n/a	5	44	Cue	Win	True
420.18	4.0	Win2	0.6667000000000001	0.0	Yes	2.971	0.001	n/a	GoodResponse	1	n/a	n/a	5	44	Fixation	Win	True
424.176	0.23	Win2	0.6667000000000001	0.003	Yes	2.971	-0.003	2.0	GoodResponse	1	0.185	423.361	5	44	Target	Win	True
424.361	0.3	Win2	0.6667000000000001	0.003	Yes	2.971	-0.003	2.0	GoodResponse	1	0.185	n/a	5	44	ButtonPress	Win	True
424.41	0.47	Win2	0.6667000000000001	n/a	Yes	2.971	n/a	n/a	GoodResponse	1	n/a	n/a	5	44	Blank	Win	True
424.878	1.45	Win2	0.6667000000000001	n/a	Yes	2.971	n/a	5.0	GoodResponse	1	0.023	423.901	5	44	Feedback	Win	True
426.332	2.971	Win2	0.6667000000000001	n/a	Yes	2.971	n/a	n/a	GoodResponse	1	0.0	n/a	5	44	ISIslide	Win	True
429.324	0.25	Control	0.6739	0.0	Yes	2.876	0.024	n/a	GoodResponse	0	n/a	n/a	5	45	Cue	Neutral	True
429.575	4.1	Control	0.6739	0.0	Yes	2.876	0.001	n/a	GoodResponse	0	n/a	n/a	5	45	Fixation	Neutral	True
433.671	0.22	Control	0.6739	0.003	Yes	2.876	-0.003	2.0	GoodResponse	0	0.167	432.838	5	45	Target	Neutral	True
433.838	0.3	Control	0.6739	0.003	Yes	2.876	-0.003	2.0	GoodResponse	0	0.167	n/a	5	45	ButtonPress	Neutral	True
433.905	0.48	Control	0.6739	n/a	Yes	2.876	n/a	n/a	GoodResponse	0	n/a	n/a	5	45	Blank	Neutral	True
434.373	1.45	Control	0.6739	n/a	Yes	2.876	n/a	5.0	GoodResponse	0	0.041	433.414	5	45	Feedback	Neutral	True
435.827	2.876	Control	0.6739	n/a	Yes	2.876	n/a	n/a	GoodResponse	0	0.0	n/a	5	45	ISIslide	Neutral	True
438.719	0.25	Lose2	0.6809000000000001	0.0	Yes	3.381	0.019	n/a	GoodResponse	0	n/a	n/a	5	46	Cue	AvoidedLoss	True
438.97	4.0	Lose2	0.6809000000000001	0.0	Yes	3.381	0.001	n/a	GoodResponse	0	n/a	n/a	5	46	Fixation	AvoidedLoss	True
442.965	0.21	Lose2	0.6809000000000001	0.004	Yes	3.381	-0.004	2.0	GoodResponse	0	0.166	442.131	5	46	Target	AvoidedLoss	True
443.131	0.3	Lose2	0.6809000000000001	0.004	Yes	3.381	-0.004	2.0	GoodResponse	0	0.166	n/a	5	46	ButtonPress	AvoidedLoss	True
443.183	0.49	Lose2	0.6809000000000001	n/a	Yes	3.381	n/a	n/a	GoodResponse	0	n/a	n/a	5	46	Blank	AvoidedLoss	True
443.667	1.45	Lose2	0.6809000000000001	n/a	Yes	3.381	n/a	5.0	GoodResponse	0	0.015	442.682	5	46	Feedback	AvoidedLoss	True
445.122	3.381	Lose2	0.6809000000000001	n/a	Yes	3.381	n/a	n/a	GoodResponse	0	0.0	n/a	5	46	ISIslide	AvoidedLoss	True
448.515	0.25	Lose2	0.6875	0.0	Yes	2.685	0.015	n/a	GoodResponse	0	n/a	n/a	5	47	Cue	AvoidedLoss	True
448.766	4.0	Lose2	0.6875	0.0	Yes	2.685	0.001	n/a	GoodResponse	0	n/a	n/a	5	47	Fixation	AvoidedLoss	True
452.761	0.2	Lose2	0.6875	0.004	Yes	2.685	-0.004	2.0	GoodResponse	0	0.192	451.953	5	47	Target	AvoidedLoss	True
452.953	0.3	Lose2	0.6875	0.004	Yes	2.685	-0.004	2.0	GoodResponse	0	0.192	n/a	5	47	ButtonPress	AvoidedLoss	True
452.962	0.5	Lose2	0.6875	n/a	Yes	2.685	n/a	n/a	GoodResponse	0	n/a	n/a	5	47	Blank	AvoidedLoss	True
453.463	1.45	Lose2	0.6875	n/a	Yes	2.685	n/a	5.0	GoodResponse	0	0.023	452.486	5	47	Feedback	AvoidedLoss	True
454.918	2.685	Lose2	0.6875	n/a	Yes	2.685	n/a	n/a	GoodResponse	0	0.0	n/a	5	47	ISIslide	AvoidedLoss	True
457.626	0.25	Lose2	0.6939	0.0	Yes	3.024	0.026	n/a	GoodResponse	0	n/a	n/a	5	48	Cue	AvoidedLoss	True
457.877	3.95	Lose2	0.6939	0.0	Yes	3.024	0.001	n/a	GoodResponse	0	n/a	n/a	5	48	Fixation	AvoidedLoss	True
461.822	0.19	Lose2	0.6939	0.004	Yes	3.024	-0.004	2.0	GoodResponse	0	0.168	460.99	5	48	Target	AvoidedLoss	True
461.99	0.3	Lose2	0.6939	0.004	Yes	3.024	-0.004	2.0	GoodResponse	0	0.168	n/a	5	48	ButtonPress	AvoidedLoss	True
462.022	0.51	Lose2	0.6939	n/a	Yes	3.024	n/a	n/a	GoodResponse	0	n/a	n/a	5	48	Blank	AvoidedLoss	True
462.524	1.45	Lose2	0.6939	n/a	Yes	3.024	n/a	5.0	GoodResponse	0	0.035	461.559	5	48	Feedback	AvoidedLoss	True
463.978	3.024	Lose2	0.6939	n/a	Yes	3.024	n/a	n/a	GoodResponse	0	0.0	n/a	5	48	ISIslide	AvoidedLoss	True
467.021	0.25	Control	0.7	0.0	Yes	2.879	0.021	n/a	GoodResponse	0	n/a	n/a	5	49	Cue	Neutral	True
467.271	4.0	Control	0.7	0.001	Yes	2.879	0.0	n/a	GoodResponse	0	n/a	n/a	5	49	Fixation	Neutral	True
471.267	0.18	Control	0.7	0.004	Yes	2.879	-0.004	2.0	GoodResponse	0	0.173	470.44	5	49	Target	Neutral	True
471.44	0.3	Control	0.7	0.004	Yes	2.879	-0.004	2.0	GoodResponse	0	0.173	n/a	5	49	ButtonPress	Neutral	True
471.451	0.52	Control	0.7	n/a	Yes	2.879	n/a	n/a	GoodResponse	0	n/a	n/a	5	49	Blank	Neutral	True
471.969	1.45	Control	0.7	n/a	Yes	2.879	n/a	5.0	GoodResponse	0	0.008	470.977	5	49	Feedback	Neutral	True
473.423	2.879	Control	0.7	n/a	Yes	2.879	n/a	n/a	GoodResponse	0	0.0	n/a	5	49	ISIslide	Neutral	True
476.315	0.25	Control	0.6862999999999999	0.0	No	2.785	0.015	n/a	LatePress	0	n/a	n/a	5	50	Cue	Neutral	True
476.566	4.0	Control	0.6862999999999999	0.0	No	2.785	0.001	n/a	LatePress	0	n/a	n/a	5	50	Fixation	Neutral	True
480.561	0.17	Control	0.6862999999999999	0.004	No	2.785	-0.004	2.0	LatePress	0	0.181	479.742	5	50	Target	Neutral	True
480.742	0.3	Control	0.6862999999999999	0.004	No	2.785	-0.004	2.0	LatePress	0	0.181	n/a	5	50	ButtonPress	Neutral	True
480.745	0.53	Control	0.6862999999999999	n/a	No	2.785	n/a	n/a	LatePress	0	n/a	n/a	5	50	Blank	Neutral	True
481.263	1.45	Control	0.6862999999999999	n/a	No	2.785	n/a	5.0	LatePress	0	0.028	480.291	5	50	Feedback	Neutral	True
482.718	2.785	Control	0.6862999999999999	n/a	No	2.785	n/a	n/a	LatePress	0	0.0	n/a	5	50	ISIslide	Neutral	True
485.526	0.25	Control	0.6923	0.0	Yes	2.724	0.026	n/a	GoodResponse	0	n/a	n/a	5	51	Cue	Neutral	True
485.777	3.95	Control	0.6923	0.0	Yes	2.724	0.001	n/a	GoodResponse	0	n/a	n/a	5	51	Fixation	Neutral	True
489.722	0.16	Control	0.6923	0.004	Yes	2.724	-0.004	2.0	GoodResponse	0	0.154	488.876	5	51	Target	Neutral	True
489.876	0.3	Control	0.6923	0.004	Yes	2.724	-0.004	2.0	GoodResponse	0	0.154	n/a	5	51	ButtonPress	Neutral	True
489.889	0.54	Control	0.6923	n/a	Yes	2.724	n/a	n/a	GoodResponse	0	n/a	n/a	5	51	Blank	Neutral	True
490.424	1.45	Control	0.6923	n/a	Yes	2.724	n/a	5.0	GoodResponse	0	0.038	489.462	5	51	Feedback	Neutral	True
491.879	2.724	Control	0.6923	n/a	Yes	2.724	n/a	n/a	GoodResponse	0	0.0	n/a	5	51	ISIslide	Neutral	True
494.62	0.25	Control	0.6981	0.0	Yes	2.63	0.02	n/a	GoodResponse	0	n/a	n/a	5	52	Cue	Neutral	True
494.871	4.05	Control	0.6981	0.0	Yes	2.63	0.001	n/a	GoodResponse	0	n/a	n/a	5	52	Fixation	Neutral	True
498.916	0.15	Control	0.6981	0.004	Yes	2.63	-0.004	2.0	GoodResponse	0	0.149	498.065	5	52	Target	Neutral	True
499.065	0.3	Control	0.6981	0.004	Yes	2.63	-0.004	2.0	GoodResponse	0	0.149	n/a	5	52	ButtonPress	Neutral	True
499.067	0.55	Control	0.6981	n/a	Yes	2.63	n/a	n/a	GoodResponse	0	n/a	n/a	5	52	Blank	Neutral	True
499.618	1.45	Control	0.6981	n/a	Yes	2.63	n/a	5.0	GoodResponse	0	0.015	498.633	5	52	Feedback	Neutral	True
501.073	2.63	Control	0.6981	n/a	Yes	2.63	n/a	n/a	GoodResponse	0	0.0	n/a	5	52	ISIslide	Neutral	True
503.731	0.25	Win2	0.6851999999999999	0.0	No	2.919	0.031	n/a	NoResponse	0	n/a	n/a	5	53	Cue	MissedWin	True
503.982	4.05	Win2	0.6851999999999999	0.0	No	2.919	0.001	n/a	NoResponse	0	n/a	n/a	5	53	Fixation	MissedWin	True
508.027	0.15	Win2	0.6851999999999999	0.004	No	2.919	-0.004	2.0	NoResponse	0	0.162	507.189	5	53	Target	MissedWin	True
508.177	0.55	Win2	0.6851999999999999	n/a	No	2.919	n/a	n/a	NoResponse	0	n/a	n/a	5	53	Blank	MissedWin	True
508.189	0.3	Win2	0.6851999999999999	0.004	No	2.919	-0.004	2.0	NoResponse	0	0.162	n/a	5	53	ButtonPress	MissedWin	True
508.729	1.45	Win2	0.6851999999999999	n/a	No	2.919	n/a	5.0	NoResponse	0	0.026	507.755	5	53	Feedback	MissedWin	True
510.184	2.919	Win2	0.6851999999999999	n/a	No	2.919	n/a	n/a	NoResponse	0	0.0	n/a	5	53	ISIslide	MissedWin	True
513.126	0.25	Win2	0.6727	0.0	No	2.724	0.026	n/a	NoResponse	0	n/a	n/a	5	54	Cue	MissedWin	True
513.376	3.95	Win2	0.6727	0.0	No	2.724	0.0	n/a	NoResponse	0	n/a	n/a	5	54	Fixation	MissedWin	True
517.322	0.15	Win2	0.6727	0.004	No	2.724	-0.004	2.0	NoResponse	0	0.162	516.484	5	54	Target	MissedWin	True
517.472	0.55	Win2	0.6727	n/a	No	2.724	n/a	n/a	NoResponse	0	n/a	n/a	5	54	Blank	MissedWin	True
517.484	0.3	Win2	0.6727	0.004	No	2.724	-0.004	2.0	NoResponse	0	0.162	n/a	5	54	ButtonPress	MissedWin	True
518.024	1.45	Win2	0.6727	n/a	No	2.724	n/a	5.0	NoResponse	0	0.047	517.071	5	54	Feedback	MissedWin	True
519.478	2.724	Win2	0.6727	n/a	No	2.724	n/a	n/a	NoResponse	0	0.0	n/a	5	54	ISIslide	MissedWin	True
522.22	0.25	Control	0.6607	0.0	No	3.03	0.02	n/a	NoResponse	0	n/a	n/a	5	55	Cue	Neutral	True
522.47	3.95	Control	0.6607	0.0	No	3.03	0.0	n/a	NoResponse	0	n/a	n/a	5	55	Fixation	Neutral	True
526.416	0.15	Control	0.6607	0.004	No	3.03	-0.004	2.0	NoResponse	0	0.188	525.604	5	55	Target	Neutral	True
526.566	0.55	Control	0.6607	n/a	No	3.03	n/a	n/a	NoResponse	0	n/a	n/a	5	55	Blank	Neutral	True
526.604	0.3	Control	0.6607	0.004	No	3.03	-0.004	2.0	NoResponse	0	0.188	n/a	5	55	ButtonPress	Neutral	True
527.118	1.45	Control	0.6607	n/a	No	3.03	n/a	5.0	NoResponse	0	0.026	526.144	5	55	Feedback	Neutral	True
528.572	3.03	Control	0.6607	n/a	No	3.03	n/a	n/a	NoResponse	0	0.0	n/a	5	55	ISIslide	Neutral	True
531.614	0.25	Control	0.6667000000000001	0.001	Yes	2.836	0.014	n/a	GoodResponse	0	n/a	n/a	5	56	Cue	Neutral	True
531.865	3.95	Control	0.6667000000000001	0.0	Yes	2.836	0.001	n/a	GoodResponse	0	n/a	n/a	5	56	Fixation	Neutral	True
535.81	0.15	Control	0.6667000000000001	0.004	Yes	2.836	-0.004	2.0	GoodResponse	0	0.144	534.954	5	56	Target	Neutral	True
535.954	0.3	Control	0.6667000000000001	0.004	Yes	2.836	-0.004	2.0	GoodResponse	0	0.144	n/a	5	56	ButtonPress	Neutral	True
535.961	0.55	Control	0.6667000000000001	n/a	Yes	2.836	n/a	n/a	GoodResponse	0	n/a	n/a	5	56	Blank	Neutral	True
536.512	1.45	Control	0.6667000000000001	n/a	Yes	2.836	n/a	5.0	GoodResponse	0	0.047	535.559	5	56	Feedback	Neutral	True
537.967	2.836	Control	0.6667000000000001	n/a	Yes	2.836	n/a	n/a	GoodResponse	0	0.0	n/a	5	56	ISIslide	Neutral	True
540.825	0.25	Control	0.6552	0.001	No	3.475	0.025	n/a	NoResponse	0	n/a	n/a	5	57	Cue	Neutral	True
541.076	4.0	Control	0.6552	0.0	No	3.475	0.001	n/a	NoResponse	0	n/a	n/a	5	57	Fixation	Neutral	True
545.072	0.15	Control	0.6552	0.003	No	3.475	-0.003	2.0	NoResponse	0	0.168	544.24	5	57	Target	Neutral	True
545.222	0.55	Control	0.6552	n/a	No	3.475	n/a	n/a	NoResponse	0	n/a	n/a	5	57	Blank	Neutral	True
545.24	0.3	Control	0.6552	0.003	No	3.475	-0.003	2.0	NoResponse	0	0.168	n/a	5	57	ButtonPress	Neutral	True
545.774	1.45	Control	0.6552	n/a	No	3.475	n/a	5.0	NoResponse	0	0.007	544.781	5	57	Feedback	Neutral	True
547.228	3.475	Control	0.6552	n/a	No	3.475	n/a	n/a	NoResponse	0	0.0	n/a	5	57	ISIslide	Neutral	True
550.722	0.25	Win2	0.6441	0.0	No	2.728	0.022	n/a	NoResponse	0	n/a	n/a	5	58	Cue	MissedWin	True
550.973	4.05	Win2	0.6441	0.0	No	2.728	0.001	n/a	NoResponse	0	n/a	n/a	5	58	Fixation	MissedWin	True
555.018	0.15	Win2	0.6441	0.004	No	2.728	-0.004	2.0	NoResponse	0	0.167	554.185	5	58	Target	MissedWin	True
555.168	0.55	Win2	0.6441	n/a	No	2.728	n/a	n/a	NoResponse	0	n/a	n/a	5	58	Blank	MissedWin	True
555.185	0.3	Win2	0.6441	0.004	No	2.728	-0.004	2.0	NoResponse	0	0.167	n/a	5	58	ButtonPress	MissedWin	True
555.72	1.45	Win2	0.6441	n/a	No	2.728	n/a	5.0	NoResponse	0	0.01	554.73	5	58	Feedback	MissedWin	True
557.174	2.728	Win2	0.6441	n/a	No	2.728	n/a	n/a	NoResponse	0	0.0	n/a	5	58	ISIslide	MissedWin	True
559.916	0.25	Lose2	0.6333	0.0	No	2.684	0.016	n/a	NoResponse	-1	n/a	n/a	4	59	Cue	Loss	True
560.167	4.0	Lose2	0.6333	0.0	No	2.684	0.001	n/a	NoResponse	-1	n/a	n/a	4	59	Fixation	Loss	True
564.162	0.16	Lose2	0.6333	0.004	No	2.684	-0.004	2.0	NoResponse	-1	0.179	563.341	4	59	Target	Loss	True
564.329	0.54	Lose2	0.6333	n/a	No	2.684	n/a	n/a	NoResponse	-1	n/a	n/a	4	59	Blank	Loss	True
564.341	0.3	Lose2	0.6333	0.004	No	2.684	-0.004	2.0	NoResponse	-1	0.179	n/a	4	59	ButtonPress	Loss	True
564.864	1.45	Lose2	0.6333	n/a	No	2.684	n/a	5.0	NoResponse	-1	0.037	563.901	4	59	Feedback	Loss	True
566.319	2.684	Lose2	0.6333	n/a	No	2.684	n/a	n/a	NoResponse	-1	0.0	n/a	4	59	ISIslide	Loss	True
569.027	0.25	Control	0.6393	0.0	Yes	2.673	0.027	n/a	GoodResponse	0	n/a	n/a	4	60	Cue	Neutral	True
569.277	4.0	Control	0.6393	0.001	Yes	2.673	0.0	n/a	GoodResponse	0	n/a	n/a	4	60	Fixation	Neutral	True
573.273	0.17	Control	0.6393	0.004	Yes	2.673	-0.004	2.0	GoodResponse	0	0.165	572.438	4	60	Target	Neutral	True
573.438	0.3	Control	0.6393	0.004	Yes	2.673	-0.004	2.0	GoodResponse	0	0.165	n/a	4	60	ButtonPress	Neutral	True
573.457	0.53	Control	0.6393	n/a	Yes	2.673	n/a	n/a	GoodResponse	0	n/a	n/a	4	60	Blank	Neutral	True
573.975	1.45	Control	0.6393	n/a	Yes	2.673	n/a	5.0	GoodResponse	0	0.048	573.023	4	60	Feedback	Neutral	True
575.429	2.673	Control	0.6393	n/a	Yes	2.673	n/a	n/a	GoodResponse	0	0.0	n/a	4	60	ISIslide	Neutral	True
578.121	0.25	Lose2	0.6452	0.0	Yes	2.979	0.021	n/a	GoodResponse	0	n/a	n/a	4	61	Cue	AvoidedLoss	True
578.371	4.0	Lose2	0.6452	0.0	Yes	2.979	0.0	n/a	GoodResponse	0	n/a	n/a	4	61	Fixation	AvoidedLoss	True
582.367	0.18	Lose2	0.6452	0.004	Yes	2.979	-0.004	2.0	GoodResponse	0	0.166	581.533	4	61	Target	AvoidedLoss	True
582.533	0.3	Lose2	0.6452	0.004	Yes	2.979	-0.004	2.0	GoodResponse	0	0.166	n/a	4	61	ButtonPress	AvoidedLoss	True
582.551	0.52	Lose2	0.6452	n/a	Yes	2.979	n/a	n/a	GoodResponse	0	n/a	n/a	4	61	Blank	AvoidedLoss	True
583.069	1.45	Lose2	0.6452	n/a	Yes	2.979	n/a	5.0	GoodResponse	0	0.027	582.096	4	61	Feedback	AvoidedLoss	True
584.523	2.979	Lose2	0.6452	n/a	Yes	2.979	n/a	n/a	GoodResponse	0	0.0	n/a	4	61	ISIslide	AvoidedLoss	True
587.515	0.25	Lose2	0.6507999999999999	0.001	Yes	2.885	0.015	n/a	GoodResponse	0	n/a	n/a	4	62	Cue	AvoidedLoss	True
587.766	3.9	Lose2	0.6507999999999999	0.0	Yes	2.885	0.001	n/a	GoodResponse	0	n/a	n/a	4	62	Fixation	AvoidedLoss	True
591.661	0.19	Lose2	0.6507999999999999	0.004	Yes	2.885	-0.004	2.0	GoodResponse	0	0.162	590.823	4	62	Target	AvoidedLoss	True
591.823	0.3	Lose2	0.6507999999999999	0.004	Yes	2.885	-0.004	2.0	GoodResponse	0	0.162	n/a	4	62	ButtonPress	AvoidedLoss	True
591.862	0.51	Lose2	0.6507999999999999	n/a	Yes	2.885	n/a	n/a	GoodResponse	0	n/a	n/a	4	62	Blank	AvoidedLoss	True
592.363	1.45	Lose2	0.6507999999999999	n/a	Yes	2.885	n/a	5.0	GoodResponse	0	0.002	591.365	4	62	Feedback	AvoidedLoss	True
593.818	2.885	Lose2	0.6507999999999999	n/a	Yes	2.885	n/a	n/a	GoodResponse	0	0.0	n/a	4	62	ISIslide	AvoidedLoss	True
596.726	0.25	Lose2	0.6406000000000001	0.001	No	2.624	0.026	n/a	NoResponse	-1	n/a	n/a	3	63	Cue	Loss	True
596.977	4.05	Lose2	0.6406000000000001	0.0	No	2.624	0.001	n/a	NoResponse	-1	n/a	n/a	3	63	Fixation	Loss	True
601.023	0.2	Lose2	0.6406000000000001	0.003	No	2.624	-0.003	2.0	NoResponse	-1	0.267	600.29	3	63	Target	Loss	True
601.223	0.5	Lose2	0.6406000000000001	n/a	No	2.624	n/a	n/a	NoResponse	-1	n/a	n/a	3	63	Blank	Loss	True
601.29	0.3	Lose2	0.6406000000000001	0.003	No	2.624	-0.003	2.0	NoResponse	-1	0.267	n/a	3	63	ButtonPress	Loss	True
601.725	1.45	Lose2	0.6406000000000001	n/a	No	2.624	n/a	5.0	NoResponse	-1	0.007	600.732	3	63	Feedback	Loss	True
603.179	2.624	Lose2	0.6406000000000001	n/a	No	2.624	n/a	n/a	NoResponse	-1	0.0	n/a	3	63	ISIslide	Loss	True
605.82	0.25	Win2	0.6462	0.0	Yes	3.13	0.02	n/a	GoodResponse	1	n/a	n/a	4	64	Cue	Win	True
606.071	4.15	Win2	0.6462	0.0	Yes	3.13	0.001	n/a	GoodResponse	1	n/a	n/a	4	64	Fixation	Win	True
610.217	0.21	Win2	0.6462	0.003	Yes	3.13	-0.003	2.0	GoodResponse	1	0.168	609.385	4	64	Target	Win	True
610.385	0.3	Win2	0.6462	0.003	Yes	3.13	-0.003	2.0	GoodResponse	1	0.168	n/a	4	64	ButtonPress	Win	True
610.434	0.49	Win2	0.6462	n/a	Yes	3.13	n/a	n/a	GoodResponse	1	n/a	n/a	4	64	Blank	Win	True
610.919	1.45	Win2	0.6462	n/a	Yes	3.13	n/a	5.0	GoodResponse	1	0.03	609.949	4	64	Feedback	Win	True
612.373	3.13	Win2	0.6462	n/a	Yes	3.13	n/a	n/a	GoodResponse	1	0.0	n/a	4	64	ISIslide	Win	True
615.516	0.25	Control	0.6515000000000001	0.0	Yes	2.784	0.016	n/a	GoodResponse	0	n/a	n/a	4	65	Cue	Neutral	True
615.767	4.0	Control	0.6515000000000001	0.0	Yes	2.784	0.001	n/a	GoodResponse	0	n/a	n/a	4	65	Fixation	Neutral	True
619.762	0.22	Control	0.6515000000000001	0.004	Yes	2.784	-0.004	2.0	GoodResponse	0	0.171	618.933	4	65	Target	Neutral	True
619.933	0.3	Control	0.6515000000000001	0.004	Yes	2.784	-0.004	2.0	GoodResponse	0	0.171	n/a	4	65	ButtonPress	Neutral	True
619.996	0.48	Control	0.6515000000000001	n/a	Yes	2.784	n/a	n/a	GoodResponse	0	n/a	n/a	4	65	Blank	Neutral	True
620.464	1.45	Control	0.6515000000000001	n/a	Yes	2.784	n/a	5.0	GoodResponse	0	0.046	619.51	4	65	Feedback	Neutral	True
621.919	2.784	Control	0.6515000000000001	n/a	Yes	2.784	n/a	n/a	GoodResponse	0	0.0	n/a	4	65	ISIslide	Neutral	True
624.727	0.25	Win2	0.6567000000000001	0.0	Yes	2.773	0.027	n/a	GoodResponse	1	n/a	n/a	5	66	Cue	Win	True
624.978	3.9	Win2	0.6567000000000001	0.0	Yes	2.773	0.001	n/a	GoodResponse	1	n/a	n/a	5	66	Fixation	Win	True
628.873	0.23	Win2	0.6567000000000001	0.004	Yes	2.773	-0.004	2.0	GoodResponse	1	0.165	628.038	5	66	Target	Win	True
629.038	0.3	Win2	0.6567000000000001	0.004	Yes	2.773	-0.004	2.0	GoodResponse	1	0.165	n/a	5	66	ButtonPress	Win	True
629.107	0.47	Win2	0.6567000000000001	n/a	Yes	2.773	n/a	n/a	GoodResponse	1	n/a	n/a	5	66	Blank	Win	True
629.575	1.45	Win2	0.6567000000000001	n/a	Yes	2.773	n/a	5.0	GoodResponse	1	0.008	628.583	5	66	Feedback	Win	True
631.029	2.773	Win2	0.6567000000000001	n/a	Yes	2.773	n/a	n/a	GoodResponse	1	0.0	n/a	5	66	ISIslide	Win	True
633.821	0.25	Control	0.6618	0.0	Yes	2.729	0.021	n/a	GoodResponse	0	n/a	n/a	5	67	Cue	Neutral	True
634.072	3.95	Control	0.6618	0.0	Yes	2.729	0.001	n/a	GoodResponse	0	n/a	n/a	5	67	Fixation	Neutral	True
638.017	0.23	Control	0.6618	0.004	Yes	2.729	-0.004	2.0	GoodResponse	0	0.176	637.193	5	67	Target	Neutral	True
638.193	0.3	Control	0.6618	0.004	Yes	2.729	-0.004	2.0	GoodResponse	0	0.176	n/a	5	67	ButtonPress	Neutral	True
638.251	0.47	Control	0.6618	n/a	Yes	2.729	n/a	n/a	GoodResponse	0	n/a	n/a	5	67	Blank	Neutral	True
638.719	1.45	Control	0.6618	n/a	Yes	2.729	n/a	5.0	GoodResponse	0	0.035	637.754	5	67	Feedback	Neutral	True
640.173	2.729	Control	0.6618	n/a	Yes	2.729	n/a	n/a	GoodResponse	0	0.0	n/a	5	67	ISIslide	Neutral	True
642.932	0.25	Win2	0.6667000000000001	0.0	Yes	3.068	0.032	n/a	GoodResponse	1	n/a	n/a	6	68	Cue	Win	True
643.182	4.0	Win2	0.6667000000000001	0.001	Yes	3.068	0.0	n/a	GoodResponse	1	n/a	n/a	6	68	Fixation	Win	True
647.178	0.23	Win2	0.6667000000000001	0.004	Yes	3.068	-0.004	2.0	GoodResponse	1	0.171	646.349	6	68	Target	Win	True
647.349	0.3	Win2	0.6667000000000001	0.004	Yes	3.068	-0.004	2.0	GoodResponse	1	0.171	n/a	6	68	ButtonPress	Win	True
647.412	0.47	Win2	0.6667000000000001	n/a	Yes	3.068	n/a	n/a	GoodResponse	1	n/a	n/a	6	68	Blank	Win	True
647.88	1.45	Win2	0.6667000000000001	n/a	Yes	3.068	n/a	5.0	GoodResponse	1	0.045	646.925	6	68	Feedback	Win	True
649.334	3.068	Win2	0.6667000000000001	n/a	Yes	3.068	n/a	n/a	GoodResponse	1	0.0	n/a	6	68	ISIslide	Win	True
652.427	0.25	Win2	0.6714	0.0	Yes	3.223	0.027	n/a	GoodResponse	1	n/a	n/a	7	69	Cue	Win	True
652.678	3.95	Win2	0.6714	0.0	Yes	3.223	0.001	n/a	GoodResponse	1	n/a	n/a	7	69	Fixation	Win	True
656.623	0.22	Win2	0.6714	0.004	Yes	3.223	-0.004	2.0	GoodResponse	1	0.178	655.801	7	69	Target	Win	True
656.801	0.3	Win2	0.6714	0.004	Yes	3.223	-0.004	2.0	GoodResponse	1	0.178	n/a	7	69	ButtonPress	Win	True
656.857	0.48	Win2	0.6714	n/a	Yes	3.223	n/a	n/a	GoodResponse	1	n/a	n/a	7	69	Blank	Win	True
657.325	1.45	Win2	0.6714	n/a	Yes	3.223	n/a	5.0	GoodResponse	1	0.015	656.34	7	69	Feedback	Win	True
658.779	3.223	Win2	0.6714	n/a	Yes	3.223	n/a	n/a	GoodResponse	1	0.0	n/a	7	69	ISIslide	Win	True
662.022	0.25	Lose2	0.6761	0.0	Yes	3.028	0.022	n/a	GoodResponse	0	n/a	n/a	7	70	Cue	AvoidedLoss	True
662.273	4.05	Lose2	0.6761	0.0	Yes	3.028	0.001	n/a	GoodResponse	0	n/a	n/a	7	70	Fixation	AvoidedLoss	True
666.319	0.21	Lose2	0.6761	0.003	Yes	3.028	-0.003	2.0	GoodResponse	0	0.179	665.498	7	70	Target	AvoidedLoss	True
666.498	0.3	Lose2	0.6761	0.003	Yes	3.028	-0.003	2.0	GoodResponse	0	0.179	n/a	7	70	ButtonPress	AvoidedLoss	True
666.536	0.49	Lose2	0.6761	n/a	Yes	3.028	n/a	n/a	GoodResponse	0	n/a	n/a	7	70	Blank	AvoidedLoss	True
667.021	1.45	Lose2	0.6761	n/a	Yes	3.028	n/a	5.0	GoodResponse	0	0.026	666.047	7	70	Feedback	AvoidedLoss	True
668.475	3.028	Lose2	0.6761	n/a	Yes	3.028	n/a	n/a	GoodResponse	0	0.0	n/a	7	70	ISIslide	AvoidedLoss	True
671.517	0.25	Win2	0.6667000000000001	0.001	No	2.733	0.017	n/a	NoResponse	0	n/a	n/a	7	71	Cue	MissedWin	True
671.768	4.05	Win2	0.6667000000000001	0.0	No	2.733	0.001	n/a	NoResponse	0	n/a	n/a	7	71	Fixation	MissedWin	True
675.814	0.2	Win2	0.6667000000000001	0.003	No	2.733	-0.003	2.0	NoResponse	0	0.232	675.046	7	71	Target	MissedWin	True
676.014	0.5	Win2	0.6667000000000001	n/a	No	2.733	n/a	n/a	NoResponse	0	n/a	n/a	7	71	Blank	MissedWin	True
676.046	0.3	Win2	0.6667000000000001	0.003	No	2.733	-0.003	2.0	NoResponse	0	0.232	n/a	7	71	ButtonPress	MissedWin	True
676.516	1.45	Win2	0.6667000000000001	n/a	No	2.733	n/a	5.0	NoResponse	0	0.043	675.559	7	71	Feedback	MissedWin	True
677.97	2.733	Win2	0.6667000000000001	n/a	No	2.733	n/a	n/a	NoResponse	0	0.0	n/a	7	71	ISIslide	MissedWin	True
680.728	0.25	Win2	0.6712	0.001	Yes	2.772	0.028	n/a	GoodResponse	1	n/a	n/a	8	72	Cue	Win	True
680.979	4.1	Win2	0.6712	0.0	Yes	2.772	0.001	n/a	GoodResponse	1	n/a	n/a	8	72	Fixation	Win	True
685.075	0.19	Win2	0.6712	0.003	Yes	2.772	-0.003	2.0	GoodResponse	1	0.162	684.237	8	72	Target	Win	True
685.237	0.3	Win2	0.6712	0.003	Yes	2.772	-0.003	2.0	GoodResponse	1	0.162	n/a	8	72	ButtonPress	Win	True
685.275	0.51	Win2	0.6712	n/a	Yes	2.772	n/a	n/a	GoodResponse	1	n/a	n/a	8	72	Blank	Win	True
685.777	1.45	Win2	0.6712	n/a	Yes	2.772	n/a	5.0	GoodResponse	1	0.007	684.784	8	72	Feedback	Win	True
687.231	2.772	Win2	0.6712	n/a	Yes	2.772	n/a	n/a	GoodResponse	1	0.0	n/a	8	72	ISIslide	Win	True
690.023	0.25	Win2	0.6757	0.0	Yes	2.677	0.023	n/a	GoodResponse	1	n/a	n/a	9	73	Cue	Win	True
690.274	4.0	Win2	0.6757	0.0	Yes	2.677	0.001	n/a	GoodResponse	1	n/a	n/a	9	73	Fixation	Win	True
694.269	0.18	Win2	0.6757	0.004	Yes	2.677	-0.004	2.0	GoodResponse	1	0.175	693.444	9	73	Target	Win	True
694.444	0.3	Win2	0.6757	0.004	Yes	2.677	-0.004	2.0	GoodResponse	1	0.175	n/a	9	73	ButtonPress	Win	True
694.453	0.52	Win2	0.6757	n/a	Yes	2.677	n/a	n/a	GoodResponse	1	n/a	n/a	9	73	Blank	Win	True
694.971	1.45	Win2	0.6757	n/a	Yes	2.677	n/a	5.0	GoodResponse	1	0.027	693.998	9	73	Feedback	Win	True
696.426	2.677	Win2	0.6757	n/a	Yes	2.677	n/a	n/a	GoodResponse	1	0.0	n/a	9	73	ISIslide	Win	True
699.117	0.25	Lose2	0.6667000000000001	0.0	No	2.633	0.017	n/a	PrematurePress	-1	n/a	n/a	8	74	Cue	Loss	True
699.368	4.05	Lose2	0.6667000000000001	0.0	No	2.633	0.001	n/a	PrematurePress	-1	n/a	n/a	8	74	Fixation	Loss	True
703.413	0.17	Lose2	0.6667000000000001	0.004	No	2.633	-0.004	2.0	PrematurePress	-1	0.075	702.488	8	74	Target	Loss	True
703.488	0.3	Lose2	0.6667000000000001	0.004	No	2.633	-0.004	2.0	PrematurePress	-1	0.075	n/a	8	74	ButtonPress	Loss	True
703.597	0.53	Lose2	0.6667000000000001	n/a	No	2.633	n/a	n/a	PrematurePress	-1	n/a	n/a	8	74	Blank	Loss	True
704.115	1.45	Lose2	0.6667000000000001	n/a	No	2.633	n/a	5.0	PrematurePress	-1	0.008	703.123	8	74	Feedback	Loss	True
705.57	2.633	Lose2	0.6667000000000001	n/a	No	2.633	n/a	n/a	PrematurePress	-1	0.0	n/a	8	74	ISIslide	Loss	True
708.228	0.25	Lose2	0.6579	0.0	No	2.922	0.028	n/a	LatePress	-1	n/a	n/a	7	75	Cue	Loss	True
708.478	3.95	Lose2	0.6579	0.0	No	2.922	0.0	n/a	LatePress	-1	n/a	n/a	7	75	Fixation	Loss	True
712.424	0.16	Lose2	0.6579	0.004	No	2.922	-0.004	2.0	LatePress	-1	0.166	711.59	7	75	Target	Loss	True
712.59	0.3	Lose2	0.6579	0.004	No	2.922	-0.004	2.0	LatePress	-1	0.166	n/a	7	75	ButtonPress	Loss	True
712.591	0.54	Lose2	0.6579	n/a	No	2.922	n/a	n/a	LatePress	-1	n/a	n/a	7	75	Blank	Loss	True
713.126	1.45	Lose2	0.6579	n/a	No	2.922	n/a	5.0	LatePress	-1	0.018	712.144	7	75	Feedback	Loss	True
714.58	2.922	Lose2	0.6579	n/a	No	2.922	n/a	n/a	LatePress	-1	0.0	n/a	7	75	ISIslide	Loss	True
717.522	0.25	Control	0.6623	0.0	Yes	3.228	0.022	n/a	GoodResponse	0	n/a	n/a	7	76	Cue	Neutral	False
717.773	4.05	Control	0.6623	0.0	Yes	3.228	0.001	2.0	GoodResponse	0	3.711	720.484	7	76	Fixation	Neutral	False
721.484	0.3	Control	0.6623	0.0	Yes	3.228	0.001	2.0	GoodResponse	0	3.711	n/a	7	76	ButtonPress	Neutral	False
721.818	0.16	Control	0.6623	0.004	Yes	3.228	-0.004	2.0	GoodResponse	0	0.122	720.94	7	76	Target	Neutral	False
721.94	0.3	Control	0.6623	0.004	Yes	3.228	-0.004	2.0	GoodResponse	0	0.122	n/a	7	76	ButtonPress	Neutral	False
721.986	0.54	Control	0.6623	n/a	Yes	3.228	n/a	n/a	GoodResponse	0	n/a	n/a	7	76	Blank	Neutral	False
722.52	1.45	Control	0.6623	n/a	Yes	3.228	n/a	5.0	GoodResponse	0	0.039	721.559	7	76	Feedback	Neutral	False
723.975	3.228	Control	0.6623	n/a	Yes	3.228	n/a	n/a	GoodResponse	0	0.0	n/a	7	76	ISIslide	Neutral	False
727.218	0.25	Lose2	0.6537999999999999	0.0	No	2.582	0.018	n/a	LatePress	-1	n/a	n/a	6	77	Cue	Loss	True
727.469	3.95	Lose2	0.6537999999999999	0.0	No	2.582	0.001	n/a	LatePress	-1	n/a	n/a	6	77	Fixation	Loss	True
731.414	0.16	Lose2	0.6537999999999999	0.004	No	2.582	-0.004	2.0	LatePress	-1	0.161	730.575	6	77	Target	Loss	True
731.575	0.3	Lose2	0.6537999999999999	0.004	No	2.582	-0.004	2.0	LatePress	-1	0.161	n/a	6	77	ButtonPress	Loss	True
731.581	0.54	Lose2	0.6537999999999999	n/a	No	2.582	n/a	n/a	LatePress	-1	n/a	n/a	6	77	Blank	Loss	True
732.116	1.45	Lose2	0.6537999999999999	n/a	No	2.582	n/a	5.0	LatePress	-1	0.007	731.123	6	77	Feedback	Loss	True
733.57	2.582	Lose2	0.6537999999999999	n/a	No	2.582	n/a	n/a	LatePress	-1	0.0	n/a	6	77	ISIslide	Loss	True
